requirements.started,requirements.stopped,key_resp_3.keys,key_resp_3.rt,key_resp_3.duration,Subject ID,Age,Gender,date,expName,psychopyVersion,OS,frameRate,instructions1.started,instructions1.stopped,key_resp.keys,key_resp.rt,key_resp.duration,example.started,example.stopped,enter_2.keys,enter_2.rt,enter_2.duration,instructions2.started,instructions2.stopped,enter_3.keys,enter_3.rt,enter_3.duration,image.started,image.stopped,slider_2.started,slider_2.stopped,next.keys,next.rt,next.duration,slider.response,trial_block_1.thisRepN,trial_block_1.thisTrialN,trial_block_1.thisN,trial_block_1.thisIndex,trial_block_1.ran,Path,Width,Height,Index,Duration,trial_block_2.thisRepN,trial_block_2.thisTrialN,trial_block_2.thisN,trial_block_2.thisIndex,trial_block_2.ran,rest_break.started,rest_break.stopped,end_break.started,end_break.stopped,key_resp_5.keys,key_resp_5.rt,key_resp_5.duration,trial_block_3.thisRepN,trial_block_3.thisTrialN,trial_block_3.thisN,trial_block_3.thisIndex,trial_block_3.ran,trial_block_4.thisRepN,trial_block_4.thisTrialN,trial_block_4.thisN,trial_block_4.thisIndex,trial_block_4.ran,questions_intro.started,questions_intro.stopped,enter_12.keys,enter_12.rt,enter_12.duration,question2.started,question2.stopped,question_doingbest.response,question_doingbest.rt,enter_15.keys,enter_15.rt,enter_15.duration,pattern.started,pattern.stopped,pattern_2.text,enter_17.keys,enter_17.rt,enter_17.duration,thankyou.started,thankyou.stopped,enter_14.keys,enter_14.rt,enter_14.duration
0.0001,10.7587,return,10.7553,,V3_063,18,Female,2024-11-14_16h37.47.668,jersey_experiment_5_v3,2023.2.2,Win32,84.74576271,,,,,,,,,,,,,,,,,,,,,,,,,,,,,,,,,,,,,,,,,,,,,,,,,,,,,,,,,,,,,,,,,,,,,,,,,,,,,,
,,,,,V3_063,18,Female,2024-11-14_16h37.47.668,jersey_experiment_5_v3,2023.2.2,Win32,84.74576271,10.7588,18.4055,return,7.6381,,,,,,,,,,,,,,,,,,,,,,,,,,,,,,,,,,,,,,,,,,,,,,,,,,,,,,,,,,,,,,,,,,,,,,,,,,
,,,,,V3_063,18,Female,2024-11-14_16h37.47.668,jersey_experiment_5_v3,2023.2.2,Win32,84.74576271,,,,,,18.4055,25.0825,return,6.6457,,,,,,,,,,,,,,,,,,,,,,,,,,,,,,,,,,,,,,,,,,,,,,,,,,,,,,,,,,,,,,,,,,,,,
,,,,,V3_063,18,Female,2024-11-14_16h37.47.668,jersey_experiment_5_v3,2023.2.2,Win32,84.74576271,,,,,,,,,,,25.0825,42.7184,return,17.622,,,,,,,,,,,,,,,,,,,,,,,,,,,,,,,,,,,,,,,,,,,,,,,,,,,,,,,,,,,,,,,,
,,,,,V3_063,18,Female,2024-11-14_16h37.47.668,jersey_experiment_5_v3,2023.2.2,Win32,84.74576271,,,,,,,,,,,,,,,,42.7205,44.2713,44.2713,54.7306,return,3.3543,,23.30729167,0,0,0,50,1,FBP-RB-18.png,0.35,1.2,51,0.75,,,,,,,,,,,,,,,,,,,,,,,,,,,,,,,,,,,,,,,,,,,,,
,,,,,V3_063,18,Female,2024-11-14_16h37.47.668,jersey_experiment_5_v3,2023.2.2,Win32,84.74576271,,,,,,,,,,,,,,,,54.7309,56.0247,56.0247,72.2487,return,13.0996,,72.52604167,0,1,1,43,1,FBP-OG-19.png,0.43,1.2,44,0.5,,,,,,,,,,,,,,,,,,,,,,,,,,,,,,,,,,,,,,,,,,,,,
,,,,,V3_063,18,Female,2024-11-14_16h37.47.668,jersey_experiment_5_v3,2023.2.2,Win32,84.74576271,,,,,,,,,,,,,,,,72.2491,73.8018,73.8018,92.7438,return,1.4397,,48.95833333,0,2,2,21,1,FBP-PT-18.png,0.37,1.2,22,0.75,,,,,,,,,,,,,,,,,,,,,,,,,,,,,,,,,,,,,,,,,,,,,
,,,,,V3_063,18,Female,2024-11-14_16h37.47.668,jersey_experiment_5_v3,2023.2.2,Win32,84.74576271,,,,,,,,,,,,,,,,92.7441,94.038,94.038,100.7791,return,2.4026,,74.21875,0,3,3,34,1,FBP-OG-17.png,0.45,1.2,35,0.5,,,,,,,,,,,,,,,,,,,,,,,,,,,,,,,,,,,,,,,,,,,,,
,,,,,V3_063,18,Female,2024-11-14_16h37.47.668,jersey_experiment_5_v3,2023.2.2,Win32,84.74576271,,,,,,,,,,,,,,,,100.7794,102.3323,102.3323,106.2853,return,1.4931,,27.60416667,0,4,4,1,1,FBP-YG-71.png,0.37,1.2,2,0.75,,,,,,,,,,,,,,,,,,,,,,,,,,,,,,,,,,,,,,,,,,,,,
,,,,,V3_063,18,Female,2024-11-14_16h37.47.668,jersey_experiment_5_v3,2023.2.2,Win32,84.74576271,,,,,,,,,,,,,,,,106.2856,107.8383,107.8384,111.3209,return,0.8163,,96.875,0,5,5,47,1,FBP-RB-17.png,0.4,1.2,48,0.75,,,,,,,,,,,,,,,,,,,,,,,,,,,,,,,,,,,,,,,,,,,,,
,,,,,V3_063,18,Female,2024-11-14_16h37.47.668,jersey_experiment_5_v3,2023.2.2,Win32,84.74576271,,,,,,,,,,,,,,,,111.3212,112.8738,112.8739,115.2269,return,1.0724,,98.828125,0,6,6,54,1,FBP-RB-18.png,0.45,1.2,55,0.75,,,,,,,,,,,,,,,,,,,,,,,,,,,,,,,,,,,,,,,,,,,,,
,,,,,V3_063,18,Female,2024-11-14_16h37.47.668,jersey_experiment_5_v3,2023.2.2,Win32,84.74576271,,,,,,,,,,,,,,,,115.2271,116.7799,116.7799,119.0623,return,0.9253,,1.302083333,0,7,7,15,1,FBP-PT-17.png,0.35,1.2,16,0.75,,,,,,,,,,,,,,,,,,,,,,,,,,,,,,,,,,,,,,,,,,,,,
,,,,,V3_063,18,Female,2024-11-14_16h37.47.668,jersey_experiment_5_v3,2023.2.2,Win32,84.74576271,,,,,,,,,,,,,,,,119.0626,120.6153,120.6153,123.392,return,1.0351,,74.08854167,0,8,8,59,1,FBP-RB-19.png,0.45,1.2,60,0.75,,,,,,,,,,,,,,,,,,,,,,,,,,,,,,,,,,,,,,,,,,,,,
,,,,,V3_063,18,Female,2024-11-14_16h37.47.668,jersey_experiment_5_v3,2023.2.2,Win32,84.74576271,,,,,,,,,,,,,,,,123.3924,124.9449,124.945,128.7333,return,2.363,,75.26041667,0,9,9,49,1,FBP-RB-17.png,0.45,1.2,50,0.75,,,,,,,,,,,,,,,,,,,,,,,,,,,,,,,,,,,,,,,,,,,,,
,,,,,V3_063,18,Female,2024-11-14_16h37.47.668,jersey_experiment_5_v3,2023.2.2,Win32,84.74576271,,,,,,,,,,,,,,,,128.7336,130.2863,130.2863,134.9922,return,3.4691,,49.86979167,0,10,10,27,1,FBP-PT-19.png,0.4,1.2,28,0.75,,,,,,,,,,,,,,,,,,,,,,,,,,,,,,,,,,,,,,,,,,,,,
,,,,,V3_063,18,Female,2024-11-14_16h37.47.668,jersey_experiment_5_v3,2023.2.2,Win32,84.74576271,,,,,,,,,,,,,,,,134.9925,136.5452,136.5453,139.6277,return,1.3666,,2.994791667,0,11,11,20,1,FBP-PT-18.png,0.35,1.2,21,0.75,,,,,,,,,,,,,,,,,,,,,,,,,,,,,,,,,,,,,,,,,,,,,
,,,,,V3_063,18,Female,2024-11-14_16h37.47.668,jersey_experiment_5_v3,2023.2.2,Win32,84.74576271,,,,,,,,,,,,,,,,139.628,140.922,140.922,144.9221,return,2.8745,,46.09375,0,12,12,31,1,FBP-OG-17.png,0.37,1.2,32,0.5,,,,,,,,,,,,,,,,,,,,,,,,,,,,,,,,,,,,,,,,,,,,,
,,,,,V3_063,18,Female,2024-11-14_16h37.47.668,jersey_experiment_5_v3,2023.2.2,Win32,84.74576271,,,,,,,,,,,,,,,,144.9224,146.2162,146.2163,153.7577,return,6.329,,64.453125,0,13,13,38,1,FBP-OG-18.png,0.43,1.2,39,0.5,,,,,,,,,,,,,,,,,,,,,,,,,,,,,,,,,,,,,,,,,,,,,
,,,,,V3_063,18,Female,2024-11-14_16h37.47.668,jersey_experiment_5_v3,2023.2.2,Win32,84.74576271,,,,,,,,,,,,,,,,153.7581,155.0519,155.0519,160.0638,return,3.1052,,47.91666667,0,14,14,37,1,FBP-OG-18.png,0.4,1.2,38,0.5,,,,,,,,,,,,,,,,,,,,,,,,,,,,,,,,,,,,,,,,,,,,,
,,,,,V3_063,18,Female,2024-11-14_16h37.47.668,jersey_experiment_5_v3,2023.2.2,Win32,84.74576271,,,,,,,,,,,,,,,,160.0641,161.6168,161.6169,165.9111,return,1.8994,,74.609375,0,15,15,19,1,FBP-PT-17.png,0.45,1.2,20,0.75,,,,,,,,,,,,,,,,,,,,,,,,,,,,,,,,,,,,,,,,,,,,,
,,,,,V3_063,18,Female,2024-11-14_16h37.47.668,jersey_experiment_5_v3,2023.2.2,Win32,84.74576271,,,,,,,,,,,,,,,,165.9114,167.4643,167.4643,172.6997,return,2.1657,,40.625,0,16,16,25,1,FBP-PT-19.png,0.35,1.2,26,0.75,,,,,,,,,,,,,,,,,,,,,,,,,,,,,,,,,,,,,,,,,,,,,
,,,,,V3_063,18,Female,2024-11-14_16h37.47.668,jersey_experiment_5_v3,2023.2.2,Win32,84.74576271,,,,,,,,,,,,,,,,172.6999,174.2526,174.2526,176.0409,return,0.6756,,67.05729167,0,17,17,48,1,FBP-RB-17.png,0.43,1.2,49,0.75,,,,,,,,,,,,,,,,,,,,,,,,,,,,,,,,,,,,,,,,,,,,,
,,,,,V3_063,18,Female,2024-11-14_16h37.47.668,jersey_experiment_5_v3,2023.2.2,Win32,84.74576271,,,,,,,,,,,,,,,,176.0411,177.5937,177.5937,179.8175,return,0.6509,,78.90625,0,18,18,29,1,FBP-PT-19.png,0.45,1.2,30,0.75,,,,,,,,,,,,,,,,,,,,,,,,,,,,,,,,,,,,,,,,,,,,,
,,,,,V3_063,18,Female,2024-11-14_16h37.47.668,jersey_experiment_5_v3,2023.2.2,Win32,84.74576271,,,,,,,,,,,,,,,,179.8177,181.3705,181.3705,184.253,return,0.8473,,50,0,19,19,6,1,FBP-YG-81.png,0.37,1.2,7,0.75,,,,,,,,,,,,,,,,,,,,,,,,,,,,,,,,,,,,,,,,,,,,,
,,,,,V3_063,18,Female,2024-11-14_16h37.47.668,jersey_experiment_5_v3,2023.2.2,Win32,84.74576271,,,,,,,,,,,,,,,,184.2533,185.5471,185.5472,188.4883,return,0.8052,,69.140625,0,20,20,44,1,FBP-OG-19.png,0.45,1.2,45,0.5,,,,,,,,,,,,,,,,,,,,,,,,,,,,,,,,,,,,,,,,,,,,,
,,,,,V3_063,18,Female,2024-11-14_16h37.47.668,jersey_experiment_5_v3,2023.2.2,Win32,84.74576271,,,,,,,,,,,,,,,,188.4887,190.0414,190.0414,191.9591,return,0.9801,,49.86979167,0,21,21,52,1,FBP-RB-18.png,0.4,1.2,53,0.75,,,,,,,,,,,,,,,,,,,,,,,,,,,,,,,,,,,,,,,,,,,,,
,,,,,V3_063,18,Female,2024-11-14_16h37.47.668,jersey_experiment_5_v3,2023.2.2,Win32,84.74576271,,,,,,,,,,,,,,,,191.9594,193.5121,193.5122,198.1594,return,3.2387,,64.19270833,0,22,22,28,1,FBP-PT-19.png,0.43,1.2,29,0.75,,,,,,,,,,,,,,,,,,,,,,,,,,,,,,,,,,,,,,,,,,,,,
,,,,,V3_063,18,Female,2024-11-14_16h37.47.668,jersey_experiment_5_v3,2023.2.2,Win32,84.74576271,,,,,,,,,,,,,,,,198.1597,199.4534,199.4535,201.6301,return,0.6356,,41.53645833,0,23,23,32,1,FBP-OG-17.png,0.4,1.2,33,0.5,,,,,,,,,,,,,,,,,,,,,,,,,,,,,,,,,,,,,,,,,,,,,
,,,,,V3_063,18,Female,2024-11-14_16h37.47.668,jersey_experiment_5_v3,2023.2.2,Win32,84.74576271,,,,,,,,,,,,,,,,201.6304,203.1832,203.1832,205.2067,return,0.5826,,62.890625,0,24,24,53,1,FBP-RB-18.png,0.43,1.2,54,0.75,,,,,,,,,,,,,,,,,,,,,,,,,,,,,,,,,,,,,,,,,,,,,
,,,,,V3_063,18,Female,2024-11-14_16h37.47.668,jersey_experiment_5_v3,2023.2.2,Win32,84.74576271,,,,,,,,,,,,,,,,205.2069,206.7598,206.7599,208.7598,return,0.9476,,2.994791667,0,25,25,16,1,FBP-PT-17.png,0.37,1.2,17,0.75,,,,,,,,,,,,,,,,,,,,,,,,,,,,,,,,,,,,,,,,,,,,,
,,,,,V3_063,18,Female,2024-11-14_16h37.47.668,jersey_experiment_5_v3,2023.2.2,Win32,84.74576271,,,,,,,,,,,,,,,,208.7601,210.3127,210.3128,213.0188,return,1.8018,,11.71875,0,26,26,17,1,FBP-PT-17.png,0.4,1.2,18,0.75,,,,,,,,,,,,,,,,,,,,,,,,,,,,,,,,,,,,,,,,,,,,,
,,,,,V3_063,18,Female,2024-11-14_16h37.47.668,jersey_experiment_5_v3,2023.2.2,Win32,84.74576271,,,,,,,,,,,,,,,,213.0191,214.3127,214.3128,217.5131,return,0.6876,,0.130208333,0,27,27,30,1,FBP-OG-17.png,0.35,1.2,31,0.5,,,,,,,,,,,,,,,,,,,,,,,,,,,,,,,,,,,,,,,,,,,,,
,,,,,V3_063,18,Female,2024-11-14_16h37.47.668,jersey_experiment_5_v3,2023.2.2,Win32,84.74576271,,,,,,,,,,,,,,,,217.5133,219.066,219.066,221.5601,return,0.7225,,60.9375,0,28,28,18,1,FBP-PT-17.png,0.43,1.2,19,0.75,,,,,,,,,,,,,,,,,,,,,,,,,,,,,,,,,,,,,,,,,,,,,
,,,,,V3_063,18,Female,2024-11-14_16h37.47.668,jersey_experiment_5_v3,2023.2.2,Win32,84.74576271,,,,,,,,,,,,,,,,221.5604,223.1132,223.1133,225.3722,return,1.2488,,49.08854167,0,29,29,0,1,FBP-YG-71.png,0.35,1.2,1,0.75,,,,,,,,,,,,,,,,,,,,,,,,,,,,,,,,,,,,,,,,,,,,,
,,,,,V3_063,18,Female,2024-11-14_16h37.47.668,jersey_experiment_5_v3,2023.2.2,Win32,84.74576271,,,,,,,,,,,,,,,,225.3724,226.9251,226.9251,230.1724,return,1.0839,,56.51041667,0,30,30,46,1,FBP-RB-17.png,0.37,1.2,47,0.75,,,,,,,,,,,,,,,,,,,,,,,,,,,,,,,,,,,,,,,,,,,,,
,,,,,V3_063,18,Female,2024-11-14_16h37.47.668,jersey_experiment_5_v3,2023.2.2,Win32,84.74576271,,,,,,,,,,,,,,,,230.1727,231.7253,231.7253,236.2549,return,2.3427,,37.109375,0,31,31,56,1,FBP-RB-19.png,0.37,1.2,57,0.75,,,,,,,,,,,,,,,,,,,,,,,,,,,,,,,,,,,,,,,,,,,,,
,,,,,V3_063,18,Female,2024-11-14_16h37.47.668,jersey_experiment_5_v3,2023.2.2,Win32,84.74576271,,,,,,,,,,,,,,,,236.2553,237.549,237.5491,239.9021,return,0.6512,,0.651041667,0,32,32,35,1,FBP-OG-18.png,0.35,1.2,36,0.5,,,,,,,,,,,,,,,,,,,,,,,,,,,,,,,,,,,,,,,,,,,,,
,,,,,V3_063,18,Female,2024-11-14_16h37.47.668,jersey_experiment_5_v3,2023.2.2,Win32,84.74576271,,,,,,,,,,,,,,,,239.9023,241.455,241.4551,244.0082,return,1.3707,,86.84895833,0,33,33,9,1,FBP-YG-81.png,0.45,1.2,10,0.75,,,,,,,,,,,,,,,,,,,,,,,,,,,,,,,,,,,,,,,,,,,,,
,,,,,V3_063,18,Female,2024-11-14_16h37.47.668,jersey_experiment_5_v3,2023.2.2,Win32,84.74576271,,,,,,,,,,,,,,,,244.0085,245.3023,245.3024,250.2202,return,3.7429,,43.61979167,0,34,34,42,1,FBP-OG-19.png,0.4,1.2,43,0.5,,,,,,,,,,,,,,,,,,,,,,,,,,,,,,,,,,,,,,,,,,,,,
,,,,,V3_063,18,Female,2024-11-14_16h37.47.668,jersey_experiment_5_v3,2023.2.2,Win32,84.74576271,,,,,,,,,,,,,,,,250.2207,251.7731,251.7731,255.432,return,1.5234,,67.70833333,0,35,35,57,1,FBP-RB-19.png,0.4,1.2,58,0.75,,,,,,,,,,,,,,,,,,,,,,,,,,,,,,,,,,,,,,,,,,,,,
,,,,,V3_063,18,Female,2024-11-14_16h37.47.668,jersey_experiment_5_v3,2023.2.2,Win32,84.74576271,,,,,,,,,,,,,,,,255.4323,256.7262,256.7262,258.9028,return,0.6524,,0.130208333,0,36,36,40,1,FBP-OG-19.png,0.35,1.2,41,0.5,,,,,,,,,,,,,,,,,,,,,,,,,,,,,,,,,,,,,,,,,,,,,
,,,,,V3_063,18,Female,2024-11-14_16h37.47.668,jersey_experiment_5_v3,2023.2.2,Win32,84.74576271,,,,,,,,,,,,,,,,258.903,260.197,260.197,268.4913,return,1.2716,,3.515625,0,37,37,41,1,FBP-OG-19.png,0.37,1.2,42,0.5,,,,,,,,,,,,,,,,,,,,,,,,,,,,,,,,,,,,,,,,,,,,,
,,,,,V3_063,18,Female,2024-11-14_16h37.47.668,jersey_experiment_5_v3,2023.2.2,Win32,84.74576271,,,,,,,,,,,,,,,,268.4917,269.7855,269.7855,272.0209,return,0.7135,,0.130208333,0,38,38,36,1,FBP-OG-18.png,0.37,1.2,37,0.5,,,,,,,,,,,,,,,,,,,,,,,,,,,,,,,,,,,,,,,,,,,,,
,,,,,V3_063,18,Female,2024-11-14_16h37.47.668,jersey_experiment_5_v3,2023.2.2,Win32,84.74576271,,,,,,,,,,,,,,,,272.0212,273.5738,273.5739,276.7151,return,0.6934,,62.76041667,0,39,39,24,1,FBP-PT-18.png,0.45,1.2,25,0.75,,,,,,,,,,,,,,,,,,,,,,,,,,,,,,,,,,,,,,,,,,,,,
,,,,,V3_063,18,Female,2024-11-14_16h37.47.668,jersey_experiment_5_v3,2023.2.2,Win32,84.74576271,,,,,,,,,,,,,,,,276.7154,278.2683,278.2683,285.6803,return,1.3421,,49.21875,0,40,40,4,1,FBP-YG-71.png,0.45,1.2,5,0.75,,,,,,,,,,,,,,,,,,,,,,,,,,,,,,,,,,,,,,,,,,,,,
,,,,,V3_063,18,Female,2024-11-14_16h37.47.668,jersey_experiment_5_v3,2023.2.2,Win32,84.74576271,,,,,,,,,,,,,,,,285.6807,286.9745,286.9745,290.551,return,1.5939,,64.84375,0,41,41,39,1,FBP-OG-18.png,0.45,1.2,40,0.5,,,,,,,,,,,,,,,,,,,,,,,,,,,,,,,,,,,,,,,,,,,,,
,,,,,V3_063,18,Female,2024-11-14_16h37.47.668,jersey_experiment_5_v3,2023.2.2,Win32,84.74576271,,,,,,,,,,,,,,,,290.5514,292.104,292.1041,296.1747,return,1.9866,,36.58854167,0,42,42,45,1,FBP-RB-17.png,0.35,1.2,46,0.75,,,,,,,,,,,,,,,,,,,,,,,,,,,,,,,,,,,,,,,,,,,,,
,,,,,V3_063,18,Female,2024-11-14_16h37.47.668,jersey_experiment_5_v3,2023.2.2,Win32,84.74576271,,,,,,,,,,,,,,,,296.1751,297.7277,297.7277,300.1279,return,0.6216,,24.21875,0,43,43,55,1,FBP-RB-19.png,0.35,1.2,56,0.75,,,,,,,,,,,,,,,,,,,,,,,,,,,,,,,,,,,,,,,,,,,,,
,,,,,V3_063,18,Female,2024-11-14_16h37.47.668,jersey_experiment_5_v3,2023.2.2,Win32,84.74576271,,,,,,,,,,,,,,,,300.1282,301.681,301.681,305.2574,return,2.4381,,35.9375,0,44,44,10,1,FBP-YG-91.png,0.35,1.2,11,0.75,,,,,,,,,,,,,,,,,,,,,,,,,,,,,,,,,,,,,,,,,,,,,
,,,,,V3_063,18,Female,2024-11-14_16h37.47.668,jersey_experiment_5_v3,2023.2.2,Win32,84.74576271,,,,,,,,,,,,,,,,305.2576,306.8104,306.8105,309.1635,return,0.9524,,56.77083333,0,45,45,11,1,FBP-YG-91.png,0.37,1.2,12,0.75,,,,,,,,,,,,,,,,,,,,,,,,,,,,,,,,,,,,,,,,,,,,,
,,,,,V3_063,18,Female,2024-11-14_16h37.47.668,jersey_experiment_5_v3,2023.2.2,Win32,84.74576271,,,,,,,,,,,,,,,,309.1639,310.7164,310.7165,315.4461,return,1.0545,,61.06770833,0,46,46,3,1,FBP-YG-71.png,0.43,1.2,4,0.75,,,,,,,,,,,,,,,,,,,,,,,,,,,,,,,,,,,,,,,,,,,,,
,,,,,V3_063,18,Female,2024-11-14_16h37.47.668,jersey_experiment_5_v3,2023.2.2,Win32,84.74576271,,,,,,,,,,,,,,,,315.4465,316.9989,316.9989,319.1521,return,0.6713,,50.65104167,0,47,47,22,1,FBP-PT-18.png,0.4,1.2,23,0.75,,,,,,,,,,,,,,,,,,,,,,,,,,,,,,,,,,,,,,,,,,,,,
,,,,,V3_063,18,Female,2024-11-14_16h37.47.668,jersey_experiment_5_v3,2023.2.2,Win32,84.74576271,,,,,,,,,,,,,,,,319.1524,320.7051,320.7052,323.4229,return,0.7402,,36.06770833,0,48,48,5,1,FBP-YG-81.png,0.35,1.2,6,0.75,,,,,,,,,,,,,,,,,,,,,,,,,,,,,,,,,,,,,,,,,,,,,
,,,,,V3_063,18,Female,2024-11-14_16h37.47.668,jersey_experiment_5_v3,2023.2.2,Win32,84.74576271,,,,,,,,,,,,,,,,323.4232,324.9757,324.9758,327.317,return,0.6561,,49.47916667,0,49,49,7,1,FBP-YG-81.png,0.4,1.2,8,0.75,,,,,,,,,,,,,,,,,,,,,,,,,,,,,,,,,,,,,,,,,,,,,
,,,,,V3_063,18,Female,2024-11-14_16h37.47.668,jersey_experiment_5_v3,2023.2.2,Win32,84.74576271,,,,,,,,,,,,,,,,327.3174,328.8701,328.8701,330.0585,return,0.6256,,49.34895833,0,50,50,12,1,FBP-YG-91.png,0.4,1.2,13,0.75,,,,,,,,,,,,,,,,,,,,,,,,,,,,,,,,,,,,,,,,,,,,,
,,,,,V3_063,18,Female,2024-11-14_16h37.47.668,jersey_experiment_5_v3,2023.2.2,Win32,84.74576271,,,,,,,,,,,,,,,,330.0588,331.6114,331.6114,336.2233,return,1.8666,,39.71354167,0,51,51,51,1,FBP-RB-18.png,0.37,1.2,52,0.75,,,,,,,,,,,,,,,,,,,,,,,,,,,,,,,,,,,,,,,,,,,,,
,,,,,V3_063,18,Female,2024-11-14_16h37.47.668,jersey_experiment_5_v3,2023.2.2,Win32,84.74576271,,,,,,,,,,,,,,,,336.2235,337.5174,337.5175,339.8941,return,0.761,,68.61979167,0,52,52,33,1,FBP-OG-17.png,0.43,1.2,34,0.5,,,,,,,,,,,,,,,,,,,,,,,,,,,,,,,,,,,,,,,,,,,,,
,,,,,V3_063,18,Female,2024-11-14_16h37.47.668,jersey_experiment_5_v3,2023.2.2,Win32,84.74576271,,,,,,,,,,,,,,,,339.8944,341.447,341.447,343.7059,return,0.6497,,69.79166667,0,53,53,2,1,FBP-YG-71.png,0.4,1.2,3,0.75,,,,,,,,,,,,,,,,,,,,,,,,,,,,,,,,,,,,,,,,,,,,,
,,,,,V3_063,18,Female,2024-11-14_16h37.47.668,jersey_experiment_5_v3,2023.2.2,Win32,84.74576271,,,,,,,,,,,,,,,,343.7061,345.259,345.2591,346.553,return,0.6735,,65.75520833,0,54,54,23,1,FBP-PT-18.png,0.43,1.2,24,0.75,,,,,,,,,,,,,,,,,,,,,,,,,,,,,,,,,,,,,,,,,,,,,
,,,,,V3_063,18,Female,2024-11-14_16h37.47.668,jersey_experiment_5_v3,2023.2.2,Win32,84.74576271,,,,,,,,,,,,,,,,346.5533,348.106,348.1061,351.4828,return,1.7909,,2.864583333,0,55,55,26,1,FBP-PT-19.png,0.37,1.2,27,0.75,,,,,,,,,,,,,,,,,,,,,,,,,,,,,,,,,,,,,,,,,,,,,
,,,,,V3_063,18,Female,2024-11-14_16h37.47.668,jersey_experiment_5_v3,2023.2.2,Win32,84.74576271,,,,,,,,,,,,,,,,351.4833,353.0357,353.0357,355.3416,return,0.6727,,66.796875,0,56,56,8,1,FBP-YG-81.png,0.43,1.2,9,0.75,,,,,,,,,,,,,,,,,,,,,,,,,,,,,,,,,,,,,,,,,,,,,
,,,,,V3_063,18,Female,2024-11-14_16h37.47.668,jersey_experiment_5_v3,2023.2.2,Win32,84.74576271,,,,,,,,,,,,,,,,355.342,356.8947,356.8947,358.0948,return,0.7054,,66.015625,0,57,57,14,1,FBP-YG-91.png,0.45,1.2,15,0.75,,,,,,,,,,,,,,,,,,,,,,,,,,,,,,,,,,,,,,,,,,,,,
,,,,,V3_063,18,Female,2024-11-14_16h37.47.668,jersey_experiment_5_v3,2023.2.2,Win32,84.74576271,,,,,,,,,,,,,,,,358.0951,359.6477,359.6477,360.7301,return,0.5672,,66.14583333,0,58,58,13,1,FBP-YG-91.png,0.43,1.2,14,0.75,,,,,,,,,,,,,,,,,,,,,,,,,,,,,,,,,,,,,,,,,,,,,
,,,,,V3_063,18,Female,2024-11-14_16h37.47.668,jersey_experiment_5_v3,2023.2.2,Win32,84.74576271,,,,,,,,,,,,,,,,360.7304,362.2831,362.2832,367.5186,return,3.1637,,74.21875,0,59,59,58,1,FBP-RB-19.png,0.43,1.2,59,0.75,,,,,,,,,,,,,,,,,,,,,,,,,,,,,,,,,,,,,,,,,,,,,
,,,,,V3_063,18,Female,2024-11-14_16h37.47.668,jersey_experiment_5_v3,2023.2.2,Win32,84.74576271,,,,,,,,,,,,,,,,367.5211,369.0716,369.0716,372.8482,return,2.1204,,24.47916667,,,,,,FBP-PT-81.png,0.35,1.2,21,0.75,0,0,0,20,1,,,,,,,,,,,,,,,,,,,,,,,,,,,,,,,,,,,,,,,,
,,,,,V3_063,18,Female,2024-11-14_16h37.47.668,jersey_experiment_5_v3,2023.2.2,Win32,84.74576271,,,,,,,,,,,,,,,,372.8485,374.4012,374.4013,385.99,return,4.4656,,49.73958333,,,,,,FBP-RB-91.png,0.43,1.2,59,0.75,0,1,1,58,1,,,,,,,,,,,,,,,,,,,,,,,,,,,,,,,,,,,,,,,,
,,,,,V3_063,18,Female,2024-11-14_16h37.47.668,jersey_experiment_5_v3,2023.2.2,Win32,84.74576271,,,,,,,,,,,,,,,,385.9903,387.543,387.543,391.4371,return,2.1885,,89.84375,,,,,,FBP-RB-71.png,0.43,1.2,49,0.75,0,2,2,48,1,,,,,,,,,,,,,,,,,,,,,,,,,,,,,,,,,,,,,,,,
,,,,,V3_063,18,Female,2024-11-14_16h37.47.668,jersey_experiment_5_v3,2023.2.2,Win32,84.74576271,,,,,,,,,,,,,,,,391.4376,392.7313,392.7313,395.8137,return,1.5814,,31.640625,,,,,,FBP-OG-81.png,0.37,1.2,37,0.5,0,3,3,36,1,,,,,,,,,,,,,,,,,,,,,,,,,,,,,,,,,,,,,,,,
,,,,,V3_063,18,Female,2024-11-14_16h37.47.668,jersey_experiment_5_v3,2023.2.2,Win32,84.74576271,,,,,,,,,,,,,,,,395.8141,397.108,397.1081,399.2964,return,0.7434,,63.15104167,,,,,,FBP-OG-81.png,0.43,1.2,39,0.5,0,4,4,38,1,,,,,,,,,,,,,,,,,,,,,,,,,,,,,,,,,,,,,,,,
,,,,,V3_063,18,Female,2024-11-14_16h37.47.668,jersey_experiment_5_v3,2023.2.2,Win32,84.74576271,,,,,,,,,,,,,,,,399.2966,400.5904,400.5905,402.5552,return,0.6849,,25.13020833,,,,,,FBP-OG-71.png,0.37,1.2,32,0.5,0,5,5,31,1,,,,,,,,,,,,,,,,,,,,,,,,,,,,,,,,,,,,,,,,
,,,,,V3_063,18,Female,2024-11-14_16h37.47.668,jersey_experiment_5_v3,2023.2.2,Win32,84.74576271,,,,,,,,,,,,,,,,402.5556,404.1084,404.1084,406.0612,return,0.7301,,99.73958333,,,,,,FBP-RB-91.png,0.45,1.2,60,0.75,0,6,6,59,1,,,,,,,,,,,,,,,,,,,,,,,,,,,,,,,,,,,,,,,,
,,,,,V3_063,18,Female,2024-11-14_16h37.47.668,jersey_experiment_5_v3,2023.2.2,Win32,84.74576271,,,,,,,,,,,,,,,,406.0614,407.6025,407.6026,410.7319,return,1.9901,,74.21875,,,,,,FBP-RB-81.png,0.37,1.2,52,0.75,0,7,7,51,1,,,,,,,,,,,,,,,,,,,,,,,,,,,,,,,,,,,,,,,,
,,,,,V3_063,18,Female,2024-11-14_16h37.47.668,jersey_experiment_5_v3,2023.2.2,Win32,84.74576271,,,,,,,,,,,,,,,,410.7323,412.285,412.285,414.5439,return,0.6737,,85.15625,,,,,,FBP-PT-91.png,0.43,1.2,29,0.75,0,8,8,28,1,,,,,,,,,,,,,,,,,,,,,,,,,,,,,,,,,,,,,,,,
,,,,,V3_063,18,Female,2024-11-14_16h37.47.668,jersey_experiment_5_v3,2023.2.2,Win32,84.74576271,,,,,,,,,,,,,,,,414.5443,416.0969,416.0969,417.6382,return,0.631,,74.08854167,,,,,,FBP-YG-17.png,0.37,1.2,2,0.75,0,9,9,1,1,,,,,,,,,,,,,,,,,,,,,,,,,,,,,,,,,,,,,,,,
,,,,,V3_063,18,Female,2024-11-14_16h37.47.668,jersey_experiment_5_v3,2023.2.2,Win32,84.74576271,,,,,,,,,,,,,,,,417.6384,419.1909,419.191,421.2617,return,0.6588,,64.32291667,,,,,,FBP-RB-91.png,0.4,1.2,58,0.75,0,10,10,57,1,,,,,,,,,,,,,,,,,,,,,,,,,,,,,,,,,,,,,,,,
,,,,,V3_063,18,Female,2024-11-14_16h37.47.668,jersey_experiment_5_v3,2023.2.2,Win32,84.74576271,,,,,,,,,,,,,,,,421.262,422.8148,422.8149,424.3442,return,0.6281,,74.86979167,,,,,,FBP-YG-18.png,0.45,1.2,10,0.75,0,11,11,9,1,,,,,,,,,,,,,,,,,,,,,,,,,,,,,,,,,,,,,,,,
,,,,,V3_063,18,Female,2024-11-14_16h37.47.668,jersey_experiment_5_v3,2023.2.2,Win32,84.74576271,,,,,,,,,,,,,,,,424.3446,425.8972,425.8973,427.5913,return,0.6994,,74.86979167,,,,,,FBP-YG-17.png,0.4,1.2,3,0.75,0,12,12,2,1,,,,,,,,,,,,,,,,,,,,,,,,,,,,,,,,,,,,,,,,
,,,,,V3_063,18,Female,2024-11-14_16h37.47.668,jersey_experiment_5_v3,2023.2.2,Win32,84.74576271,,,,,,,,,,,,,,,,427.5916,429.1444,429.1444,431.9799,return,1.4815,,61.19791667,,,,,,FBP-YG-17.png,0.43,1.2,4,0.75,0,13,13,3,1,,,,,,,,,,,,,,,,,,,,,,,,,,,,,,,,,,,,,,,,
,,,,,V3_063,18,Female,2024-11-14_16h37.47.668,jersey_experiment_5_v3,2023.2.2,Win32,84.74576271,,,,,,,,,,,,,,,,431.9802,433.2742,433.2742,435.7211,return,0.6285,,0.911458333,,,,,,FBP-OG-91.png,0.35,1.2,41,0.5,0,14,14,40,1,,,,,,,,,,,,,,,,,,,,,,,,,,,,,,,,,,,,,,,,
,,,,,V3_063,18,Female,2024-11-14_16h37.47.668,jersey_experiment_5_v3,2023.2.2,Win32,84.74576271,,,,,,,,,,,,,,,,435.7215,437.2743,437.2744,440.7097,return,2.5848,,85.41666667,,,,,,FBP-PT-81.png,0.45,1.2,25,0.75,0,15,15,24,1,,,,,,,,,,,,,,,,,,,,,,,,,,,,,,,,,,,,,,,,
,,,,,V3_063,18,Female,2024-11-14_16h37.47.668,jersey_experiment_5_v3,2023.2.2,Win32,84.74576271,,,,,,,,,,,,,,,,440.7101,442.2625,442.2625,444.9684,return,1.2747,,75.390625,,,,,,FBP-YG-19.png,0.4,1.2,13,0.75,0,16,16,12,1,,,,,,,,,,,,,,,,,,,,,,,,,,,,,,,,,,,,,,,,
,,,,,V3_063,18,Female,2024-11-14_16h37.47.668,jersey_experiment_5_v3,2023.2.2,Win32,84.74576271,,,,,,,,,,,,,,,,444.9687,446.5217,446.5218,448.3334,return,0.6357,,24.73958333,,,,,,FBP-YG-18.png,0.35,1.2,6,0.75,0,17,17,5,1,,,,,,,,,,,,,,,,,,,,,,,,,,,,,,,,,,,,,,,,
,,,,,V3_063,18,Female,2024-11-14_16h37.47.668,jersey_experiment_5_v3,2023.2.2,Win32,84.74576271,,,,,,,,,,,,,,,,448.3338,449.6276,449.6277,453.2159,return,2.4088,,64.58333333,,,,,,FBP-OG-91.png,0.43,1.2,44,0.5,0,18,18,43,1,,,,,,,,,,,,,,,,,,,,,,,,,,,,,,,,,,,,,,,,
,,,,,V3_063,18,Female,2024-11-14_16h37.47.668,jersey_experiment_5_v3,2023.2.2,Win32,84.74576271,,,,,,,,,,,,,,,,453.2161,454.7691,454.7691,458.5337,return,0.6049,,36.97916667,,,,,,FBP-PT-81.png,0.4,1.2,23,0.75,0,19,19,22,1,,,,,,,,,,,,,,,,,,,,,,,,,,,,,,,,,,,,,,,,
,,,,,V3_063,18,Female,2024-11-14_16h37.47.668,jersey_experiment_5_v3,2023.2.2,Win32,84.74576271,,,,,,,,,,,,,,,,458.534,460.0866,460.0866,461.3574,return,0.6122,,50.390625,,,,,,FBP-YG-19.png,0.35,1.2,11,0.75,0,20,20,10,1,,,,,,,,,,,,,,,,,,,,,,,,,,,,,,,,,,,,,,,,
,,,,,V3_063,18,Female,2024-11-14_16h37.47.668,jersey_experiment_5_v3,2023.2.2,Win32,84.74576271,,,,,,,,,,,,,,,,461.3576,462.899,462.899,464.4281,return,0.8609,,74.609375,,,,,,FBP-PT-91.png,0.4,1.2,28,0.75,0,21,21,27,1,,,,,,,,,,,,,,,,,,,,,,,,,,,,,,,,,,,,,,,,
,,,,,V3_063,18,Female,2024-11-14_16h37.47.668,jersey_experiment_5_v3,2023.2.2,Win32,84.74576271,,,,,,,,,,,,,,,,464.4284,465.7225,465.7225,467.6283,return,0.8009,,88.80208333,,,,,,FBP-OG-71.png,0.4,1.2,33,0.5,0,22,22,32,1,,,,,,,,,,,,,,,,,,,,,,,,,,,,,,,,,,,,,,,,
,,,,,V3_063,18,Female,2024-11-14_16h37.47.668,jersey_experiment_5_v3,2023.2.2,Win32,84.74576271,,,,,,,,,,,,,,,,467.6286,469.1812,469.1813,470.8637,return,0.5989,,91.796875,,,,,,FBP-RB-81.png,0.45,1.2,55,0.75,0,23,23,54,1,,,,,,,,,,,,,,,,,,,,,,,,,,,,,,,,,,,,,,,,
,,,,,V3_063,18,Female,2024-11-14_16h37.47.668,jersey_experiment_5_v3,2023.2.2,Win32,84.74576271,,,,,,,,,,,,,,,,470.8639,472.4168,472.4169,473.8638,return,0.6297,,50.65104167,,,,,,FBP-PT-71.png,0.35,1.2,16,0.75,0,24,24,15,1,,,,,,,,,,,,,,,,,,,,,,,,,,,,,,,,,,,,,,,,
,,,,,V3_063,18,Female,2024-11-14_16h37.47.668,jersey_experiment_5_v3,2023.2.2,Win32,84.74576271,,,,,,,,,,,,,,,,473.8639,475.4168,475.4169,476.8757,return,0.5786,,75.65104167,,,,,,FBP-PT-91.png,0.45,1.2,30,0.75,0,25,25,29,1,,,,,,,,,,,,,,,,,,,,,,,,,,,,,,,,,,,,,,,,
,,,,,V3_063,18,Female,2024-11-14_16h37.47.668,jersey_experiment_5_v3,2023.2.2,Win32,84.74576271,,,,,,,,,,,,,,,,476.8761,478.1698,478.1698,479.7229,return,0.5814,,1.041666667,,,,,,FBP-OG-91.png,0.37,1.2,42,0.5,0,26,26,41,1,,,,,,,,,,,,,,,,,,,,,,,,,,,,,,,,,,,,,,,,
,,,,,V3_063,18,Female,2024-11-14_16h37.47.668,jersey_experiment_5_v3,2023.2.2,Win32,84.74576271,,,,,,,,,,,,,,,,479.7231,481.2757,481.2757,484.1113,return,1.6349,,39.58333333,,,,,,FBP-PT-71.png,0.37,1.2,17,0.75,0,27,27,16,1,,,,,,,,,,,,,,,,,,,,,,,,,,,,,,,,,,,,,,,,
,,,,,V3_063,18,Female,2024-11-14_16h37.47.668,jersey_experiment_5_v3,2023.2.2,Win32,84.74576271,,,,,,,,,,,,,,,,484.1116,485.4055,485.4056,487.2054,return,0.5955,,63.15104167,,,,,,FBP-OG-91.png,0.4,1.2,43,0.5,0,28,28,42,1,,,,,,,,,,,,,,,,,,,,,,,,,,,,,,,,,,,,,,,,
,,,,,V3_063,18,Female,2024-11-14_16h37.47.668,jersey_experiment_5_v3,2023.2.2,Win32,84.74576271,,,,,,,,,,,,,,,,487.2056,488.4997,488.4998,492.6881,return,3.0733,,37.5,,,,,,FBP-OG-71.png,0.35,1.2,31,0.5,0,29,29,30,1,,,,,,,,,,,,,,,,,,,,,,,,,,,,,,,,,,,,,,,,
,,,,,V3_063,18,Female,2024-11-14_16h37.47.668,jersey_experiment_5_v3,2023.2.2,Win32,84.74576271,,,,,,,,,,,,,,,,492.6883,494.2409,494.241,496.2058,return,0.6358,,82.29166667,,,,,,FBP-RB-71.png,0.37,1.2,47,0.75,0,30,30,46,1,,,,,,,,,,,,,,,,,,,,,,,,,,,,,,,,,,,,,,,,
,,,,,V3_063,18,Female,2024-11-14_16h37.47.668,jersey_experiment_5_v3,2023.2.2,Win32,84.74576271,,,,,,,,,,,,,,,,496.2059,497.7586,497.7587,499.4529,return,0.5894,,85.15625,,,,,,FBP-RB-71.png,0.35,1.2,46,0.75,0,31,31,45,1,,,,,,,,,,,,,,,,,,,,,,,,,,,,,,,,,,,,,,,,
,,,,,V3_063,18,Female,2024-11-14_16h37.47.668,jersey_experiment_5_v3,2023.2.2,Win32,84.74576271,,,,,,,,,,,,,,,,499.4532,501.0059,501.006,504.559,return,0.6828,,91.40625,,,,,,FBP-RB-71.png,0.4,1.2,48,0.75,0,32,32,47,1,,,,,,,,,,,,,,,,,,,,,,,,,,,,,,,,,,,,,,,,
,,,,,V3_063,18,Female,2024-11-14_16h37.47.668,jersey_experiment_5_v3,2023.2.2,Win32,84.74576271,,,,,,,,,,,,,,,,504.5593,506.1006,506.1007,507.7591,return,0.738,,98.69791667,,,,,,FBP-PT-81.png,0.43,1.2,24,0.75,0,33,33,23,1,,,,,,,,,,,,,,,,,,,,,,,,,,,,,,,,,,,,,,,,
,,,,,V3_063,18,Female,2024-11-14_16h37.47.668,jersey_experiment_5_v3,2023.2.2,Win32,84.74576271,,,,,,,,,,,,,,,,507.7594,509.312,509.3121,513.5123,return,3.4996,,98.95833333,,,,,,FBP-PT-71.png,0.4,1.2,18,0.75,0,34,34,17,1,,,,,,,,,,,,,,,,,,,,,,,,,,,,,,,,,,,,,,,,
,,,,,V3_063,18,Female,2024-11-14_16h37.47.668,jersey_experiment_5_v3,2023.2.2,Win32,84.74576271,,,,,,,,,,,,,,,,513.5126,515.0652,515.0653,520.0771,return,3.3794,,88.671875,,,,,,FBP-YG-18.png,0.37,1.2,7,0.75,0,35,35,6,1,,,,,,,,,,,,,,,,,,,,,,,,,,,,,,,,,,,,,,,,
,,,,,V3_063,18,Female,2024-11-14_16h37.47.668,jersey_experiment_5_v3,2023.2.2,Win32,84.74576271,,,,,,,,,,,,,,,,520.0775,521.6302,521.6303,523.9126,return,0.6633,,61.45833333,,,,,,FBP-PT-81.png,0.37,1.2,22,0.75,0,36,36,21,1,,,,,,,,,,,,,,,,,,,,,,,,,,,,,,,,,,,,,,,,
,,,,,V3_063,18,Female,2024-11-14_16h37.47.668,jersey_experiment_5_v3,2023.2.2,Win32,84.74576271,,,,,,,,,,,,,,,,523.9131,525.4657,525.4657,528.0775,return,0.6482,,74.609375,,,,,,FBP-YG-17.png,0.35,1.2,1,0.75,0,37,37,0,1,,,,,,,,,,,,,,,,,,,,,,,,,,,,,,,,,,,,,,,,
,,,,,V3_063,18,Female,2024-11-14_16h37.47.668,jersey_experiment_5_v3,2023.2.2,Win32,84.74576271,,,,,,,,,,,,,,,,528.0779,529.3718,529.3718,534.266,return,1.2952,,88.28125,,,,,,FBP-OG-71.png,0.45,1.2,35,0.5,0,38,38,34,1,,,,,,,,,,,,,,,,,,,,,,,,,,,,,,,,,,,,,,,,
,,,,,V3_063,18,Female,2024-11-14_16h37.47.668,jersey_experiment_5_v3,2023.2.2,Win32,84.74576271,,,,,,,,,,,,,,,,534.2663,535.819,535.819,542.478,return,3.2383,,89.453125,,,,,,FBP-YG-19.png,0.43,1.2,14,0.75,0,39,39,13,1,,,,,,,,,,,,,,,,,,,,,,,,,,,,,,,,,,,,,,,,
,,,,,V3_063,18,Female,2024-11-14_16h37.47.668,jersey_experiment_5_v3,2023.2.2,Win32,84.74576271,,,,,,,,,,,,,,,,542.4782,543.7728,543.7728,545.5841,return,1.0591,,98.95833333,,,,,,FBP-OG-81.png,0.45,1.2,40,0.5,0,40,40,39,1,,,,,,,,,,,,,,,,,,,,,,,,,,,,,,,,,,,,,,,,
,,,,,V3_063,18,Female,2024-11-14_16h37.47.668,jersey_experiment_5_v3,2023.2.2,Win32,84.74576271,,,,,,,,,,,,,,,,545.5844,547.137,547.137,548.6783,return,0.7219,,99.73958333,,,,,,FBP-RB-81.png,0.43,1.2,54,0.75,0,41,41,53,1,,,,,,,,,,,,,,,,,,,,,,,,,,,,,,,,,,,,,,,,
,,,,,V3_063,18,Female,2024-11-14_16h37.47.668,jersey_experiment_5_v3,2023.2.2,Win32,84.74576271,,,,,,,,,,,,,,,,548.6787,550.2313,550.2314,551.9019,return,0.6825,,85.41666667,,,,,,FBP-RB-81.png,0.4,1.2,53,0.75,0,42,42,52,1,,,,,,,,,,,,,,,,,,,,,,,,,,,,,,,,,,,,,,,,
,,,,,V3_063,18,Female,2024-11-14_16h37.47.668,jersey_experiment_5_v3,2023.2.2,Win32,84.74576271,,,,,,,,,,,,,,,,551.9021,553.4551,553.4551,555.4786,return,0.7243,,99.609375,,,,,,FBP-YG-19.png,0.45,1.2,15,0.75,0,43,43,14,1,,,,,,,,,,,,,,,,,,,,,,,,,,,,,,,,,,,,,,,,
,,,,,V3_063,18,Female,2024-11-14_16h37.47.668,jersey_experiment_5_v3,2023.2.2,Win32,84.74576271,,,,,,,,,,,,,,,,555.4788,556.7726,556.7727,560.7731,return,1.021,,99.21875,,,,,,FBP-OG-91.png,0.45,1.2,45,0.5,0,44,44,44,1,,,,,,,,,,,,,,,,,,,,,,,,,,,,,,,,,,,,,,,,
,,,,,V3_063,18,Female,2024-11-14_16h37.47.668,jersey_experiment_5_v3,2023.2.2,Win32,84.74576271,,,,,,,,,,,,,,,,560.7734,562.3259,562.3259,564.5376,return,0.7102,,89.84375,,,,,,FBP-PT-71.png,0.45,1.2,20,0.75,0,45,45,19,1,,,,,,,,,,,,,,,,,,,,,,,,,,,,,,,,,,,,,,,,
,,,,,V3_063,18,Female,2024-11-14_16h37.47.668,jersey_experiment_5_v3,2023.2.2,Win32,84.74576271,,,,,,,,,,,,,,,,564.538,565.832,565.832,569.0084,return,0.7165,,74.609375,,,,,,FBP-OG-71.png,0.43,1.2,34,0.5,0,46,46,33,1,,,,,,,,,,,,,,,,,,,,,,,,,,,,,,,,,,,,,,,,
,,,,,V3_063,18,Female,2024-11-14_16h37.47.668,jersey_experiment_5_v3,2023.2.2,Win32,84.74576271,,,,,,,,,,,,,,,,569.0088,570.55,570.5501,572.3615,return,0.6987,,24.73958333,,,,,,FBP-PT-91.png,0.37,1.2,27,0.75,0,47,47,26,1,,,,,,,,,,,,,,,,,,,,,,,,,,,,,,,,,,,,,,,,
,,,,,V3_063,18,Female,2024-11-14_16h37.47.668,jersey_experiment_5_v3,2023.2.2,Win32,84.74576271,,,,,,,,,,,,,,,,572.3618,573.9145,573.9146,576.2793,return,0.6731,,72.00520833,,,,,,FBP-YG-18.png,0.43,1.2,9,0.75,0,48,48,8,1,,,,,,,,,,,,,,,,,,,,,,,,,,,,,,,,,,,,,,,,
,,,,,V3_063,18,Female,2024-11-14_16h37.47.668,jersey_experiment_5_v3,2023.2.2,Win32,84.74576271,,,,,,,,,,,,,,,,576.2796,577.8324,577.8324,580.3971,return,0.7301,,49.34895833,,,,,,FBP-PT-91.png,0.35,1.2,26,0.75,0,49,49,25,1,,,,,,,,,,,,,,,,,,,,,,,,,,,,,,,,,,,,,,,,
,,,,,V3_063,18,Female,2024-11-14_16h37.47.668,jersey_experiment_5_v3,2023.2.2,Win32,84.74576271,,,,,,,,,,,,,,,,580.3975,581.9501,581.9501,583.4797,return,0.6526,,48.95833333,,,,,,FBP-RB-81.png,0.35,1.2,51,0.75,0,50,50,50,1,,,,,,,,,,,,,,,,,,,,,,,,,,,,,,,,,,,,,,,,
,,,,,V3_063,18,Female,2024-11-14_16h37.47.668,jersey_experiment_5_v3,2023.2.2,Win32,84.74576271,,,,,,,,,,,,,,,,583.48,585.0327,585.0327,586.2327,return,0.6255,,49.73958333,,,,,,FBP-YG-19.png,0.37,1.2,12,0.75,0,51,51,11,1,,,,,,,,,,,,,,,,,,,,,,,,,,,,,,,,,,,,,,,,
,,,,,V3_063,18,Female,2024-11-14_16h37.47.668,jersey_experiment_5_v3,2023.2.2,Win32,84.74576271,,,,,,,,,,,,,,,,586.2329,587.7857,587.7857,589.4563,return,0.6445,,74.34895833,,,,,,FBP-PT-71.png,0.43,1.2,19,0.75,0,52,52,18,1,,,,,,,,,,,,,,,,,,,,,,,,,,,,,,,,,,,,,,,,
,,,,,V3_063,18,Female,2024-11-14_16h37.47.668,jersey_experiment_5_v3,2023.2.2,Win32,84.74576271,,,,,,,,,,,,,,,,589.4566,591.0093,591.0093,594.0446,return,2.1192,,99.73958333,,,,,,FBP-YG-17.png,0.45,1.2,5,0.75,0,53,53,4,1,,,,,,,,,,,,,,,,,,,,,,,,,,,,,,,,,,,,,,,,
,,,,,V3_063,18,Female,2024-11-14_16h37.47.668,jersey_experiment_5_v3,2023.2.2,Win32,84.74576271,,,,,,,,,,,,,,,,594.0448,595.3388,595.3388,598.1039,return,0.711,,99.609375,,,,,,FBP-OG-81.png,0.4,1.2,38,0.5,0,54,54,37,1,,,,,,,,,,,,,,,,,,,,,,,,,,,,,,,,,,,,,,,,
,,,,,V3_063,18,Female,2024-11-14_16h37.47.668,jersey_experiment_5_v3,2023.2.2,Win32,84.74576271,,,,,,,,,,,,,,,,598.1041,599.6568,599.6569,603.8451,return,2.8999,,99.47916667,,,,,,FBP-RB-91.png,0.35,1.2,56,0.75,0,55,55,55,1,,,,,,,,,,,,,,,,,,,,,,,,,,,,,,,,,,,,,,,,
,,,,,V3_063,18,Female,2024-11-14_16h37.47.668,jersey_experiment_5_v3,2023.2.2,Win32,84.74576271,,,,,,,,,,,,,,,,603.8454,605.3981,605.3981,606.8216,return,0.5966,,93.48958333,,,,,,FBP-YG-18.png,0.4,1.2,8,0.75,0,56,56,7,1,,,,,,,,,,,,,,,,,,,,,,,,,,,,,,,,,,,,,,,,
,,,,,V3_063,18,Female,2024-11-14_16h37.47.668,jersey_experiment_5_v3,2023.2.2,Win32,84.74576271,,,,,,,,,,,,,,,,606.8219,608.3747,608.3748,610.1747,return,0.6585,,74.609375,,,,,,FBP-RB-91.png,0.37,1.2,57,0.75,0,57,57,56,1,,,,,,,,,,,,,,,,,,,,,,,,,,,,,,,,,,,,,,,,
,,,,,V3_063,18,Female,2024-11-14_16h37.47.668,jersey_experiment_5_v3,2023.2.2,Win32,84.74576271,,,,,,,,,,,,,,,,610.1751,611.7277,611.7277,613.4454,return,0.6661,,98.30729167,,,,,,FBP-RB-71.png,0.45,1.2,50,0.75,0,58,58,49,1,,,,,,,,,,,,,,,,,,,,,,,,,,,,,,,,,,,,,,,,
,,,,,V3_063,18,Female,2024-11-14_16h37.47.668,jersey_experiment_5_v3,2023.2.2,Win32,84.74576271,,,,,,,,,,,,,,,,613.4457,614.7398,614.7398,616.4221,return,0.6194,,74.73958333,,,,,,FBP-OG-81.png,0.35,1.2,36,0.5,0,59,59,35,1,,,,,,,,,,,,,,,,,,,,,,,,,,,,,,,,,,,,,,,,
,,,,,V3_063,18,Female,2024-11-14_16h37.47.668,jersey_experiment_5_v3,2023.2.2,Win32,84.74576271,,,,,,,,,,,,,,,,,,,,,,,,,,,,,,,,,,,,,,,616.4221,736.4149,,,,,,,,,,,,,,,,,,,,,,,,,,,,,,,,,,,,,,
,,,,,V3_063,18,Female,2024-11-14_16h37.47.668,jersey_experiment_5_v3,2023.2.2,Win32,84.74576271,,,,,,,,,,,,,,,,,,,,,,,,,,,,,,,,,,,,,,,,,736.4149,747.274,return,10.8497,,,,,,,,,,,,,,,,,,,,,,,,,,,,,,,,,,
,,,,,V3_063,18,Female,2024-11-14_16h37.47.668,jersey_experiment_5_v3,2023.2.2,Win32,84.74576271,,,,,,,,,,,,,,,,747.2752,748.5681,748.5682,752.9566,return,0.8007,,50.390625,,,,,,FBP-PT-19.png,0.37,1.2,27,0.5,,,,,,,,,,,,,0,0,0,26,1,,,,,,,,,,,,,,,,,,,,,,,,,,,,
,,,,,V3_063,18,Female,2024-11-14_16h37.47.668,jersey_experiment_5_v3,2023.2.2,Win32,84.74576271,,,,,,,,,,,,,,,,752.9571,754.2506,754.2507,756.2508,return,0.9086,,76.04166667,,,,,,FBP-YG-71.png,0.4,1.2,3,0.5,,,,,,,,,,,,,0,1,1,2,1,,,,,,,,,,,,,,,,,,,,,,,,,,,,
,,,,,V3_063,18,Female,2024-11-14_16h37.47.668,jersey_experiment_5_v3,2023.2.2,Win32,84.74576271,,,,,,,,,,,,,,,,756.251,757.8037,757.8038,770.063,return,0.5082,,74.21875,,,,,,FBP-OG-19.png,0.45,1.2,45,0.75,,,,,,,,,,,,,0,2,2,44,1,,,,,,,,,,,,,,,,,,,,,,,,,,,,
,,,,,V3_063,18,Female,2024-11-14_16h37.47.668,jersey_experiment_5_v3,2023.2.2,Win32,84.74576271,,,,,,,,,,,,,,,,770.0633,771.3572,771.3573,773.5457,return,0.4869,,62.5,,,,,,FBP-YG-91.png,0.37,1.2,12,0.5,,,,,,,,,,,,,0,3,3,11,1,,,,,,,,,,,,,,,,,,,,,,,,,,,,
,,,,,V3_063,18,Female,2024-11-14_16h37.47.668,jersey_experiment_5_v3,2023.2.2,Win32,84.74576271,,,,,,,,,,,,,,,,773.5461,774.8398,774.8399,778.1222,return,0.5921,,75.26041667,,,,,,FBP-PT-18.png,0.37,1.2,22,0.5,,,,,,,,,,,,,0,4,4,21,1,,,,,,,,,,,,,,,,,,,,,,,,,,,,
,,,,,V3_063,18,Female,2024-11-14_16h37.47.668,jersey_experiment_5_v3,2023.2.2,Win32,84.74576271,,,,,,,,,,,,,,,,778.1225,779.6753,779.6753,780.781,return,0.5185,,74.47916667,,,,,,FBP-OG-17.png,0.35,1.2,31,0.75,,,,,,,,,,,,,0,5,5,30,1,,,,,,,,,,,,,,,,,,,,,,,,,,,,
,,,,,V3_063,18,Female,2024-11-14_16h37.47.668,jersey_experiment_5_v3,2023.2.2,Win32,84.74576271,,,,,,,,,,,,,,,,780.7813,782.0752,782.0752,784.4166,return,1.4812,,73.30729167,,,,,,FBP-PT-18.png,0.35,1.2,21,0.5,,,,,,,,,,,,,0,6,6,20,1,,,,,,,,,,,,,,,,,,,,,,,,,,,,
,,,,,V3_063,18,Female,2024-11-14_16h37.47.668,jersey_experiment_5_v3,2023.2.2,Win32,84.74576271,,,,,,,,,,,,,,,,784.4169,785.7108,785.7109,787.3579,return,0.5311,,74.73958333,,,,,,FBP-YG-71.png,0.37,1.2,2,0.5,,,,,,,,,,,,,0,7,7,1,1,,,,,,,,,,,,,,,,,,,,,,,,,,,,
,,,,,V3_063,18,Female,2024-11-14_16h37.47.668,jersey_experiment_5_v3,2023.2.2,Win32,84.74576271,,,,,,,,,,,,,,,,787.3581,788.911,788.9111,790.1814,return,0.5853,,98.4375,,,,,,FBP-OG-19.png,0.4,1.2,43,0.75,,,,,,,,,,,,,0,8,8,42,1,,,,,,,,,,,,,,,,,,,,,,,,,,,,
,,,,,V3_063,18,Female,2024-11-14_16h37.47.668,jersey_experiment_5_v3,2023.2.2,Win32,84.74576271,,,,,,,,,,,,,,,,790.1817,791.7346,791.7346,793.1815,return,0.565,,75.65104167,,,,,,FBP-OG-18.png,0.35,1.2,36,0.75,,,,,,,,,,,,,0,9,9,35,1,,,,,,,,,,,,,,,,,,,,,,,,,,,,
,,,,,V3_063,18,Female,2024-11-14_16h37.47.668,jersey_experiment_5_v3,2023.2.2,Win32,84.74576271,,,,,,,,,,,,,,,,793.1818,794.4759,794.4759,795.7698,return,0.5568,,99.47916667,,,,,,FBP-YG-71.png,0.45,1.2,5,0.5,,,,,,,,,,,,,0,10,10,4,1,,,,,,,,,,,,,,,,,,,,,,,,,,,,
,,,,,V3_063,18,Female,2024-11-14_16h37.47.668,jersey_experiment_5_v3,2023.2.2,Win32,84.74576271,,,,,,,,,,,,,,,,795.7701,797.0641,797.0641,800.5585,return,0.518,,66.92708333,,,,,,FBP-PT-18.png,0.4,1.2,23,0.5,,,,,,,,,,,,,0,11,11,22,1,,,,,,,,,,,,,,,,,,,,,,,,,,,,
,,,,,V3_063,18,Female,2024-11-14_16h37.47.668,jersey_experiment_5_v3,2023.2.2,Win32,84.74576271,,,,,,,,,,,,,,,,800.5587,801.8527,801.8527,803.182,return,0.5055,,99.08854167,,,,,,FBP-RB-19.png,0.45,1.2,60,0.5,,,,,,,,,,,,,0,12,12,59,1,,,,,,,,,,,,,,,,,,,,,,,,,,,,
,,,,,V3_063,18,Female,2024-11-14_16h37.47.668,jersey_experiment_5_v3,2023.2.2,Win32,84.74576271,,,,,,,,,,,,,,,,803.1823,804.4761,804.4761,806.4762,return,0.577,,99.34895833,,,,,,FBP-RB-19.png,0.4,1.2,58,0.5,,,,,,,,,,,,,0,13,13,57,1,,,,,,,,,,,,,,,,,,,,,,,,,,,,
,,,,,V3_063,18,Female,2024-11-14_16h37.47.668,jersey_experiment_5_v3,2023.2.2,Win32,84.74576271,,,,,,,,,,,,,,,,806.4764,807.7706,807.7707,810.0293,return,0.5653,,50.52083333,,,,,,FBP-RB-17.png,0.35,1.2,46,0.5,,,,,,,,,,,,,0,14,14,45,1,,,,,,,,,,,,,,,,,,,,,,,,,,,,
,,,,,V3_063,18,Female,2024-11-14_16h37.47.668,jersey_experiment_5_v3,2023.2.2,Win32,84.74576271,,,,,,,,,,,,,,,,810.0296,811.3235,811.3236,813.5118,return,1.0887,,64.19270833,,,,,,FBP-YG-91.png,0.35,1.2,11,0.5,,,,,,,,,,,,,0,15,15,10,1,,,,,,,,,,,,,,,,,,,,,,,,,,,,
,,,,,V3_063,18,Female,2024-11-14_16h37.47.668,jersey_experiment_5_v3,2023.2.2,Win32,84.74576271,,,,,,,,,,,,,,,,813.5121,814.8058,814.8058,815.9354,return,0.4947,,62.890625,,,,,,FBP-YG-81.png,0.35,1.2,6,0.5,,,,,,,,,,,,,0,16,16,5,1,,,,,,,,,,,,,,,,,,,,,,,,,,,,
,,,,,V3_063,18,Female,2024-11-14_16h37.47.668,jersey_experiment_5_v3,2023.2.2,Win32,84.74576271,,,,,,,,,,,,,,,,815.9358,817.2296,817.2297,818.6061,return,0.5076,,74.609375,,,,,,FBP-RB-18.png,0.37,1.2,52,0.5,,,,,,,,,,,,,0,17,17,51,1,,,,,,,,,,,,,,,,,,,,,,,,,,,,
,,,,,V3_063,18,Female,2024-11-14_16h37.47.668,jersey_experiment_5_v3,2023.2.2,Win32,84.74576271,,,,,,,,,,,,,,,,818.6064,820.1589,820.159,821.0297,return,0.5955,,74.73958333,,,,,,FBP-OG-19.png,0.37,1.2,42,0.75,,,,,,,,,,,,,0,18,18,41,1,,,,,,,,,,,,,,,,,,,,,,,,,,,,
,,,,,V3_063,18,Female,2024-11-14_16h37.47.668,jersey_experiment_5_v3,2023.2.2,Win32,84.74576271,,,,,,,,,,,,,,,,821.0299,822.3238,822.3239,824.8886,return,1.9466,,65.36458333,,,,,,FBP-PT-19.png,0.35,1.2,26,0.5,,,,,,,,,,,,,0,19,19,25,1,,,,,,,,,,,,,,,,,,,,,,,,,,,,
,,,,,V3_063,18,Female,2024-11-14_16h37.47.668,jersey_experiment_5_v3,2023.2.2,Win32,84.74576271,,,,,,,,,,,,,,,,824.8889,826.1831,826.1831,827.277,return,0.4955,,63.28125,,,,,,FBP-PT-17.png,0.37,1.2,17,0.5,,,,,,,,,,,,,0,20,20,16,1,,,,,,,,,,,,,,,,,,,,,,,,,,,,
,,,,,V3_063,18,Female,2024-11-14_16h37.47.668,jersey_experiment_5_v3,2023.2.2,Win32,84.74576271,,,,,,,,,,,,,,,,827.2772,828.5712,828.5712,830.5712,return,0.4377,,74.34895833,,,,,,FBP-PT-17.png,0.4,1.2,18,0.5,,,,,,,,,,,,,0,21,21,17,1,,,,,,,,,,,,,,,,,,,,,,,,,,,,
,,,,,V3_063,18,Female,2024-11-14_16h37.47.668,jersey_experiment_5_v3,2023.2.2,Win32,84.74576271,,,,,,,,,,,,,,,,830.5714,831.8654,831.8654,833.1595,return,0.7474,,76.171875,,,,,,FBP-YG-81.png,0.4,1.2,8,0.5,,,,,,,,,,,,,0,22,22,7,1,,,,,,,,,,,,,,,,,,,,,,,,,,,,
,,,,,V3_063,18,Female,2024-11-14_16h37.47.668,jersey_experiment_5_v3,2023.2.2,Win32,84.74576271,,,,,,,,,,,,,,,,833.1598,834.7125,834.7126,835.9008,return,0.5411,,98.95833333,,,,,,FBP-OG-19.png,0.43,1.2,44,0.75,,,,,,,,,,,,,0,23,23,43,1,,,,,,,,,,,,,,,,,,,,,,,,,,,,
,,,,,V3_063,18,Female,2024-11-14_16h37.47.668,jersey_experiment_5_v3,2023.2.2,Win32,84.74576271,,,,,,,,,,,,,,,,835.9011,837.1949,837.1949,838.5598,return,0.4725,,97.78645833,,,,,,FBP-RB-18.png,0.43,1.2,54,0.5,,,,,,,,,,,,,0,24,24,53,1,,,,,,,,,,,,,,,,,,,,,,,,,,,,
,,,,,V3_063,18,Female,2024-11-14_16h37.47.668,jersey_experiment_5_v3,2023.2.2,Win32,84.74576271,,,,,,,,,,,,,,,,838.56,839.8539,839.8539,841.9834,return,0.529,,99.73958333,,,,,,FBP-PT-17.png,0.43,1.2,19,0.5,,,,,,,,,,,,,0,25,25,18,1,,,,,,,,,,,,,,,,,,,,,,,,,,,,
,,,,,V3_063,18,Female,2024-11-14_16h37.47.668,jersey_experiment_5_v3,2023.2.2,Win32,84.74576271,,,,,,,,,,,,,,,,841.9839,843.2776,843.2777,844.7011,return,0.4723,,74.21875,,,,,,FBP-YG-91.png,0.4,1.2,13,0.5,,,,,,,,,,,,,0,26,26,12,1,,,,,,,,,,,,,,,,,,,,,,,,,,,,
,,,,,V3_063,18,Female,2024-11-14_16h37.47.668,jersey_experiment_5_v3,2023.2.2,Win32,84.74576271,,,,,,,,,,,,,,,,844.7014,846.2543,846.2544,848.7366,return,1.8826,,50.13020833,,,,,,FBP-OG-18.png,0.37,1.2,37,0.75,,,,,,,,,,,,,0,27,27,36,1,,,,,,,,,,,,,,,,,,,,,,,,,,,,
,,,,,V3_063,18,Female,2024-11-14_16h37.47.668,jersey_experiment_5_v3,2023.2.2,Win32,84.74576271,,,,,,,,,,,,,,,,848.737,850.0309,850.031,851.3603,return,0.4694,,25,,,,,,FBP-PT-17.png,0.35,1.2,16,0.5,,,,,,,,,,,,,0,28,28,15,1,,,,,,,,,,,,,,,,,,,,,,,,,,,,
,,,,,V3_063,18,Female,2024-11-14_16h37.47.668,jersey_experiment_5_v3,2023.2.2,Win32,84.74576271,,,,,,,,,,,,,,,,851.3605,852.6544,852.6545,854.431,return,0.6117,,99.86979167,,,,,,FBP-RB-18.png,0.45,1.2,55,0.5,,,,,,,,,,,,,0,29,29,54,1,,,,,,,,,,,,,,,,,,,,,,,,,,,,
,,,,,V3_063,18,Female,2024-11-14_16h37.47.668,jersey_experiment_5_v3,2023.2.2,Win32,84.74576271,,,,,,,,,,,,,,,,854.4313,855.7252,855.7252,857.4664,return,0.4742,,99.21875,,,,,,FBP-PT-18.png,0.45,1.2,25,0.5,,,,,,,,,,,,,0,30,30,24,1,,,,,,,,,,,,,,,,,,,,,,,,,,,,
,,,,,V3_063,18,Female,2024-11-14_16h37.47.668,jersey_experiment_5_v3,2023.2.2,Win32,84.74576271,,,,,,,,,,,,,,,,857.4666,858.7606,858.7607,859.996,return,0.4714,,74.08854167,,,,,,FBP-YG-81.png,0.37,1.2,7,0.5,,,,,,,,,,,,,0,31,31,6,1,,,,,,,,,,,,,,,,,,,,,,,,,,,,
,,,,,V3_063,18,Female,2024-11-14_16h37.47.668,jersey_experiment_5_v3,2023.2.2,Win32,84.74576271,,,,,,,,,,,,,,,,859.9962,861.2902,861.2903,863.0078,return,0.4941,,98.69791667,,,,,,FBP-PT-18.png,0.43,1.2,24,0.5,,,,,,,,,,,,,0,32,32,23,1,,,,,,,,,,,,,,,,,,,,,,,,,,,,
,,,,,V3_063,18,Female,2024-11-14_16h37.47.668,jersey_experiment_5_v3,2023.2.2,Win32,84.74576271,,,,,,,,,,,,,,,,863.0081,864.3018,864.3019,865.1489,return,0.4484,,98.828125,,,,,,FBP-RB-17.png,0.45,1.2,50,0.5,,,,,,,,,,,,,0,33,33,49,1,,,,,,,,,,,,,,,,,,,,,,,,,,,,
,,,,,V3_063,18,Female,2024-11-14_16h37.47.668,jersey_experiment_5_v3,2023.2.2,Win32,84.74576271,,,,,,,,,,,,,,,,865.1492,866.4431,866.4431,867.5962,return,0.5551,,97.13541667,,,,,,FBP-RB-19.png,0.43,1.2,59,0.5,,,,,,,,,,,,,0,34,34,58,1,,,,,,,,,,,,,,,,,,,,,,,,,,,,
,,,,,V3_063,18,Female,2024-11-14_16h37.47.668,jersey_experiment_5_v3,2023.2.2,Win32,84.74576271,,,,,,,,,,,,,,,,867.5964,868.8902,868.8903,870.6082,return,0.5175,,99.21875,,,,,,FBP-PT-19.png,0.45,1.2,30,0.5,,,,,,,,,,,,,0,35,35,29,1,,,,,,,,,,,,,,,,,,,,,,,,,,,,
,,,,,V3_063,18,Female,2024-11-14_16h37.47.668,jersey_experiment_5_v3,2023.2.2,Win32,84.74576271,,,,,,,,,,,,,,,,870.6085,871.9022,871.9022,872.9847,return,0.5226,,98.30729167,,,,,,FBP-YG-91.png,0.43,1.2,14,0.5,,,,,,,,,,,,,0,36,36,13,1,,,,,,,,,,,,,,,,,,,,,,,,,,,,
,,,,,V3_063,18,Female,2024-11-14_16h37.47.668,jersey_experiment_5_v3,2023.2.2,Win32,84.74576271,,,,,,,,,,,,,,,,872.985,874.2786,874.2786,875.161,return,0.5096,,98.4375,,,,,,FBP-PT-19.png,0.43,1.2,29,0.5,,,,,,,,,,,,,0,37,37,28,1,,,,,,,,,,,,,,,,,,,,,,,,,,,,
,,,,,V3_063,18,Female,2024-11-14_16h37.47.668,jersey_experiment_5_v3,2023.2.2,Win32,84.74576271,,,,,,,,,,,,,,,,875.1614,876.7142,876.7142,877.7025,return,0.5958,,98.4375,,,,,,FBP-OG-18.png,0.45,1.2,40,0.75,,,,,,,,,,,,,0,38,38,39,1,,,,,,,,,,,,,,,,,,,,,,,,,,,,
,,,,,V3_063,18,Female,2024-11-14_16h37.47.668,jersey_experiment_5_v3,2023.2.2,Win32,84.74576271,,,,,,,,,,,,,,,,877.7027,879.2554,879.2554,880.2789,return,0.6395,,98.4375,,,,,,FBP-OG-17.png,0.45,1.2,35,0.75,,,,,,,,,,,,,0,39,39,34,1,,,,,,,,,,,,,,,,,,,,,,,,,,,,
,,,,,V3_063,18,Female,2024-11-14_16h37.47.668,jersey_experiment_5_v3,2023.2.2,Win32,84.74576271,,,,,,,,,,,,,,,,880.2791,881.5733,881.5734,884.9851,return,0.5214,,50,,,,,,FBP-RB-19.png,0.35,1.2,56,0.5,,,,,,,,,,,,,0,40,40,55,1,,,,,,,,,,,,,,,,,,,,,,,,,,,,
,,,,,V3_063,18,Female,2024-11-14_16h37.47.668,jersey_experiment_5_v3,2023.2.2,Win32,84.74576271,,,,,,,,,,,,,,,,884.9854,886.2793,886.2794,888.0793,return,0.5048,,75.390625,,,,,,FBP-RB-17.png,0.4,1.2,48,0.5,,,,,,,,,,,,,0,41,41,47,1,,,,,,,,,,,,,,,,,,,,,,,,,,,,
,,,,,V3_063,18,Female,2024-11-14_16h37.47.668,jersey_experiment_5_v3,2023.2.2,Win32,84.74576271,,,,,,,,,,,,,,,,888.0796,889.6323,889.6324,892.1735,return,1.6343,,75,,,,,,FBP-OG-18.png,0.4,1.2,38,0.75,,,,,,,,,,,,,0,42,42,37,1,,,,,,,,,,,,,,,,,,,,,,,,,,,,
,,,,,V3_063,18,Female,2024-11-14_16h37.47.668,jersey_experiment_5_v3,2023.2.2,Win32,84.74576271,,,,,,,,,,,,,,,,892.1739,893.7266,893.7266,895.3383,return,0.651,,99.34895833,,,,,,FBP-OG-17.png,0.43,1.2,34,0.75,,,,,,,,,,,,,0,43,43,33,1,,,,,,,,,,,,,,,,,,,,,,,,,,,,
,,,,,V3_063,18,Female,2024-11-14_16h37.47.668,jersey_experiment_5_v3,2023.2.2,Win32,84.74576271,,,,,,,,,,,,,,,,895.3385,896.6326,896.6327,898.1031,return,0.5336,,75.91145833,,,,,,FBP-RB-19.png,0.37,1.2,57,0.5,,,,,,,,,,,,,0,44,44,56,1,,,,,,,,,,,,,,,,,,,,,,,,,,,,
,,,,,V3_063,18,Female,2024-11-14_16h37.47.668,jersey_experiment_5_v3,2023.2.2,Win32,84.74576271,,,,,,,,,,,,,,,,898.1033,899.3974,899.3975,900.9385,return,0.5429,,49.21875,,,,,,FBP-YG-71.png,0.35,1.2,1,0.5,,,,,,,,,,,,,0,45,45,0,1,,,,,,,,,,,,,,,,,,,,,,,,,,,,
,,,,,V3_063,18,Female,2024-11-14_16h37.47.668,jersey_experiment_5_v3,2023.2.2,Win32,84.74576271,,,,,,,,,,,,,,,,900.9388,902.2329,902.233,904.0917,return,0.496,,75.52083333,,,,,,FBP-YG-91.png,0.45,1.2,15,0.5,,,,,,,,,,,,,0,46,46,14,1,,,,,,,,,,,,,,,,,,,,,,,,,,,,
,,,,,V3_063,18,Female,2024-11-14_16h37.47.668,jersey_experiment_5_v3,2023.2.2,Win32,84.74576271,,,,,,,,,,,,,,,,904.0919,905.3857,905.3858,906.6682,return,0.531,,74.34895833,,,,,,FBP-RB-18.png,0.4,1.2,53,0.5,,,,,,,,,,,,,0,47,47,52,1,,,,,,,,,,,,,,,,,,,,,,,,,,,,
,,,,,V3_063,18,Female,2024-11-14_16h37.47.668,jersey_experiment_5_v3,2023.2.2,Win32,84.74576271,,,,,,,,,,,,,,,,906.6685,907.9623,907.9623,911.1625,return,1.285,,63.41145833,,,,,,FBP-PT-19.png,0.4,1.2,28,0.5,,,,,,,,,,,,,0,48,48,27,1,,,,,,,,,,,,,,,,,,,,,,,,,,,,
,,,,,V3_063,18,Female,2024-11-14_16h37.47.668,jersey_experiment_5_v3,2023.2.2,Win32,84.74576271,,,,,,,,,,,,,,,,911.1629,912.4567,912.4567,913.7979,return,0.4901,,48.56770833,,,,,,FBP-RB-17.png,0.37,1.2,47,0.5,,,,,,,,,,,,,0,49,49,46,1,,,,,,,,,,,,,,,,,,,,,,,,,,,,
,,,,,V3_063,18,Female,2024-11-14_16h37.47.668,jersey_experiment_5_v3,2023.2.2,Win32,84.74576271,,,,,,,,,,,,,,,,913.7981,915.3509,915.3509,916.598,return,0.4864,,74.08854167,,,,,,FBP-OG-18.png,0.43,1.2,39,0.75,,,,,,,,,,,,,0,50,50,38,1,,,,,,,,,,,,,,,,,,,,,,,,,,,,
,,,,,V3_063,18,Female,2024-11-14_16h37.47.668,jersey_experiment_5_v3,2023.2.2,Win32,84.74576271,,,,,,,,,,,,,,,,916.5984,917.8921,917.8922,918.8804,return,0.5179,,74.08854167,,,,,,FBP-PT-17.png,0.45,1.2,20,0.5,,,,,,,,,,,,,0,51,51,19,1,,,,,,,,,,,,,,,,,,,,,,,,,,,,
,,,,,V3_063,18,Female,2024-11-14_16h37.47.668,jersey_experiment_5_v3,2023.2.2,Win32,84.74576271,,,,,,,,,,,,,,,,918.8807,920.1745,920.1746,921.1981,return,0.4951,,74.08854167,,,,,,FBP-YG-81.png,0.43,1.2,9,0.5,,,,,,,,,,,,,0,52,52,8,1,,,,,,,,,,,,,,,,,,,,,,,,,,,,
,,,,,V3_063,18,Female,2024-11-14_16h37.47.668,jersey_experiment_5_v3,2023.2.2,Win32,84.74576271,,,,,,,,,,,,,,,,921.1983,922.7512,922.7512,923.61,return,0.4748,,72.13541667,,,,,,FBP-OG-17.png,0.4,1.2,33,0.75,,,,,,,,,,,,,0,53,53,32,1,,,,,,,,,,,,,,,,,,,,,,,,,,,,
,,,,,V3_063,18,Female,2024-11-14_16h37.47.668,jersey_experiment_5_v3,2023.2.2,Win32,84.74576271,,,,,,,,,,,,,,,,923.6103,925.1632,925.1632,927.6101,return,0.6732,,51.30208333,,,,,,FBP-OG-19.png,0.35,1.2,41,0.75,,,,,,,,,,,,,0,54,54,40,1,,,,,,,,,,,,,,,,,,,,,,,,,,,,
,,,,,V3_063,18,Female,2024-11-14_16h37.47.668,jersey_experiment_5_v3,2023.2.2,Win32,84.74576271,,,,,,,,,,,,,,,,927.6104,928.9045,928.9046,930.8574,return,0.533,,36.97916667,,,,,,FBP-RB-18.png,0.35,1.2,51,0.5,,,,,,,,,,,,,0,55,55,50,1,,,,,,,,,,,,,,,,,,,,,,,,,,,,
,,,,,V3_063,18,Female,2024-11-14_16h37.47.668,jersey_experiment_5_v3,2023.2.2,Win32,84.74576271,,,,,,,,,,,,,,,,930.8578,932.1516,932.1516,933.7517,return,0.5714,,74.73958333,,,,,,FBP-YG-71.png,0.43,1.2,4,0.5,,,,,,,,,,,,,0,56,56,3,1,,,,,,,,,,,,,,,,,,,,,,,,,,,,
,,,,,V3_063,18,Female,2024-11-14_16h37.47.668,jersey_experiment_5_v3,2023.2.2,Win32,84.74576271,,,,,,,,,,,,,,,,933.752,935.3048,935.3048,936.4692,return,0.4913,,48.95833333,,,,,,FBP-OG-17.png,0.37,1.2,32,0.75,,,,,,,,,,,,,0,57,57,31,1,,,,,,,,,,,,,,,,,,,,,,,,,,,,
,,,,,V3_063,18,Female,2024-11-14_16h37.47.668,jersey_experiment_5_v3,2023.2.2,Win32,84.74576271,,,,,,,,,,,,,,,,936.4695,937.7637,937.7638,939.7871,return,0.5804,,74.73958333,,,,,,FBP-RB-17.png,0.43,1.2,49,0.5,,,,,,,,,,,,,0,58,58,48,1,,,,,,,,,,,,,,,,,,,,,,,,,,,,
,,,,,V3_063,18,Female,2024-11-14_16h37.47.668,jersey_experiment_5_v3,2023.2.2,Win32,84.74576271,,,,,,,,,,,,,,,,939.7873,941.0813,941.0813,942.5873,return,1.0606,,74.73958333,,,,,,FBP-YG-81.png,0.45,1.2,10,0.5,,,,,,,,,,,,,0,59,59,9,1,,,,,,,,,,,,,,,,,,,,,,,,,,,,
,,,,,V3_063,18,Female,2024-11-14_16h37.47.668,jersey_experiment_5_v3,2023.2.2,Win32,84.74576271,,,,,,,,,,,,,,,,942.5886,943.8812,943.8813,945.4697,return,0.5743,,98.69791667,,,,,,FBP-PT-81.png,0.45,1.2,25,0.5,,,,,,,,,,,,,,,,,,0,0,0,24,1,,,,,,,,,,,,,,,,,,,,,,,
,,,,,V3_063,18,Female,2024-11-14_16h37.47.668,jersey_experiment_5_v3,2023.2.2,Win32,84.74576271,,,,,,,,,,,,,,,,945.4699,946.7638,946.7638,948.2228,return,0.7873,,98.69791667,,,,,,FBP-RB-71.png,0.37,1.2,47,0.5,,,,,,,,,,,,,,,,,,0,1,1,46,1,,,,,,,,,,,,,,,,,,,,,,,
,,,,,V3_063,18,Female,2024-11-14_16h37.47.668,jersey_experiment_5_v3,2023.2.2,Win32,84.74576271,,,,,,,,,,,,,,,,948.2231,949.5168,949.5168,954.67,return,3.859,,74.47916667,,,,,,FBP-PT-91.png,0.35,1.2,26,0.5,,,,,,,,,,,,,,,,,,0,2,2,25,1,,,,,,,,,,,,,,,,,,,,,,,
,,,,,V3_063,18,Female,2024-11-14_16h37.47.668,jersey_experiment_5_v3,2023.2.2,Win32,84.74576271,,,,,,,,,,,,,,,,954.6703,956.2232,956.2232,957.9643,return,0.7656,,73.828125,,,,,,FBP-OG-81.png,0.4,1.2,38,0.75,,,,,,,,,,,,,,,,,,0,3,3,37,1,,,,,,,,,,,,,,,,,,,,,,,
,,,,,V3_063,18,Female,2024-11-14_16h37.47.668,jersey_experiment_5_v3,2023.2.2,Win32,84.74576271,,,,,,,,,,,,,,,,957.9646,959.2584,959.2585,961.3409,return,0.5798,,98.56770833,,,,,,FBP-RB-91.png,0.45,1.2,60,0.5,,,,,,,,,,,,,,,,,,0,4,4,59,1,,,,,,,,,,,,,,,,,,,,,,,
,,,,,V3_063,18,Female,2024-11-14_16h37.47.668,jersey_experiment_5_v3,2023.2.2,Win32,84.74576271,,,,,,,,,,,,,,,,961.3413,962.6349,962.6349,964.6351,return,0.6136,,76.5625,,,,,,FBP-YG-19.png,0.4,1.2,13,0.5,,,,,,,,,,,,,,,,,,0,5,5,12,1,,,,,,,,,,,,,,,,,,,,,,,
,,,,,V3_063,18,Female,2024-11-14_16h37.47.668,jersey_experiment_5_v3,2023.2.2,Win32,84.74576271,,,,,,,,,,,,,,,,964.6354,965.9293,965.9294,968.0469,return,0.6338,,50.13020833,,,,,,FBP-YG-17.png,0.35,1.2,1,0.5,,,,,,,,,,,,,,,,,,0,6,6,0,1,,,,,,,,,,,,,,,,,,,,,,,
,,,,,V3_063,18,Female,2024-11-14_16h37.47.668,jersey_experiment_5_v3,2023.2.2,Win32,84.74576271,,,,,,,,,,,,,,,,968.0473,969.341,969.3411,971.2588,return,0.6489,,40.10416667,,,,,,FBP-YG-18.png,0.37,1.2,7,0.5,,,,,,,,,,,,,,,,,,0,7,7,6,1,,,,,,,,,,,,,,,,,,,,,,,
,,,,,V3_063,18,Female,2024-11-14_16h37.47.668,jersey_experiment_5_v3,2023.2.2,Win32,84.74576271,,,,,,,,,,,,,,,,971.2591,972.553,972.5531,976.3414,return,2.9736,,25,,,,,,FBP-PT-81.png,0.35,1.2,21,0.5,,,,,,,,,,,,,,,,,,0,8,8,20,1,,,,,,,,,,,,,,,,,,,,,,,
,,,,,V3_063,18,Female,2024-11-14_16h37.47.668,jersey_experiment_5_v3,2023.2.2,Win32,84.74576271,,,,,,,,,,,,,,,,976.3416,977.6355,977.6356,979.5415,return,0.7721,,74.47916667,,,,,,FBP-YG-18.png,0.43,1.2,9,0.5,,,,,,,,,,,,,,,,,,0,9,9,8,1,,,,,,,,,,,,,,,,,,,,,,,
,,,,,V3_063,18,Female,2024-11-14_16h37.47.668,jersey_experiment_5_v3,2023.2.2,Win32,84.74576271,,,,,,,,,,,,,,,,979.5418,980.8357,980.8358,982.4005,return,0.6806,,72.65625,,,,,,FBP-PT-91.png,0.45,1.2,30,0.5,,,,,,,,,,,,,,,,,,0,10,10,29,1,,,,,,,,,,,,,,,,,,,,,,,
,,,,,V3_063,18,Female,2024-11-14_16h37.47.668,jersey_experiment_5_v3,2023.2.2,Win32,84.74576271,,,,,,,,,,,,,,,,982.4008,983.6947,983.6947,985.1653,return,0.942,,74.609375,,,,,,FBP-PT-71.png,0.45,1.2,20,0.5,,,,,,,,,,,,,,,,,,0,11,11,19,1,,,,,,,,,,,,,,,,,,,,,,,
,,,,,V3_063,18,Female,2024-11-14_16h37.47.668,jersey_experiment_5_v3,2023.2.2,Win32,84.74576271,,,,,,,,,,,,,,,,985.1656,986.7184,986.7184,988.989,return,0.5561,,86.45833333,,,,,,FBP-OG-81.png,0.43,1.2,39,0.75,,,,,,,,,,,,,,,,,,0,12,12,38,1,,,,,,,,,,,,,,,,,,,,,,,
,,,,,V3_063,18,Female,2024-11-14_16h37.47.668,jersey_experiment_5_v3,2023.2.2,Win32,84.74576271,,,,,,,,,,,,,,,,988.9892,990.283,990.2831,992.6009,return,1.1438,,48.4375,,,,,,FBP-PT-91.png,0.37,1.2,27,0.5,,,,,,,,,,,,,,,,,,0,13,13,26,1,,,,,,,,,,,,,,,,,,,,,,,
,,,,,V3_063,18,Female,2024-11-14_16h37.47.668,jersey_experiment_5_v3,2023.2.2,Win32,84.74576271,,,,,,,,,,,,,,,,992.6011,993.8951,993.8951,996.7658,return,1.8828,,75.26041667,,,,,,FBP-YG-19.png,0.45,1.2,15,0.5,,,,,,,,,,,,,,,,,,0,14,14,14,1,,,,,,,,,,,,,,,,,,,,,,,
,,,,,V3_063,18,Female,2024-11-14_16h37.47.668,jersey_experiment_5_v3,2023.2.2,Win32,84.74576271,,,,,,,,,,,,,,,,996.7661,998.3188,998.3188,1000.6012,return,1.2615,,75.13020833,,,,,,FBP-OG-71.png,0.35,1.2,31,0.75,,,,,,,,,,,,,,,,,,0,15,15,30,1,,,,,,,,,,,,,,,,,,,,,,,
,,,,,V3_063,18,Female,2024-11-14_16h37.47.668,jersey_experiment_5_v3,2023.2.2,Win32,84.74576271,,,,,,,,,,,,,,,,1000.6015,1001.8953,1001.8953,1005.166,return,1.6004,,74.73958333,,,,,,FBP-PT-81.png,0.37,1.2,22,0.5,,,,,,,,,,,,,,,,,,0,16,16,21,1,,,,,,,,,,,,,,,,,,,,,,,
,,,,,V3_063,18,Female,2024-11-14_16h37.47.668,jersey_experiment_5_v3,2023.2.2,Win32,84.74576271,,,,,,,,,,,,,,,,1005.1663,1006.4602,1006.4602,1007.9661,return,0.5647,,50,,,,,,FBP-PT-71.png,0.35,1.2,16,0.5,,,,,,,,,,,,,,,,,,0,17,17,15,1,,,,,,,,,,,,,,,,,,,,,,,
,,,,,V3_063,18,Female,2024-11-14_16h37.47.668,jersey_experiment_5_v3,2023.2.2,Win32,84.74576271,,,,,,,,,,,,,,,,1007.9664,1009.519,1009.5191,1011.5428,return,0.5821,,49.73958333,,,,,,FBP-OG-91.png,0.37,1.2,42,0.75,,,,,,,,,,,,,,,,,,0,18,18,41,1,,,,,,,,,,,,,,,,,,,,,,,
,,,,,V3_063,18,Female,2024-11-14_16h37.47.668,jersey_experiment_5_v3,2023.2.2,Win32,84.74576271,,,,,,,,,,,,,,,,1011.543,1012.8369,1012.837,1014.0605,return,0.5295,,74.21875,,,,,,FBP-RB-91.png,0.43,1.2,59,0.5,,,,,,,,,,,,,,,,,,0,19,19,58,1,,,,,,,,,,,,,,,,,,,,,,,
,,,,,V3_063,18,Female,2024-11-14_16h37.47.668,jersey_experiment_5_v3,2023.2.2,Win32,84.74576271,,,,,,,,,,,,,,,,1014.0607,1015.3548,1015.3548,1018.0134,return,1.2346,,59.50520833,,,,,,FBP-YG-17.png,0.37,1.2,2,0.5,,,,,,,,,,,,,,,,,,0,20,20,1,1,,,,,,,,,,,,,,,,,,,,,,,
,,,,,V3_063,18,Female,2024-11-14_16h37.47.668,jersey_experiment_5_v3,2023.2.2,Win32,84.74576271,,,,,,,,,,,,,,,,1018.0137,1019.3077,1019.3078,1022.2843,return,0.5074,,62.5,,,,,,FBP-YG-19.png,0.37,1.2,12,0.5,,,,,,,,,,,,,,,,,,0,21,21,11,1,,,,,,,,,,,,,,,,,,,,,,,
,,,,,V3_063,18,Female,2024-11-14_16h37.47.668,jersey_experiment_5_v3,2023.2.2,Win32,84.74576271,,,,,,,,,,,,,,,,1022.2846,1023.5784,1023.5786,1025.0962,return,0.4768,,74.34895833,,,,,,FBP-YG-18.png,0.45,1.2,10,0.5,,,,,,,,,,,,,,,,,,0,22,22,9,1,,,,,,,,,,,,,,,,,,,,,,,
,,,,,V3_063,18,Female,2024-11-14_16h37.47.668,jersey_experiment_5_v3,2023.2.2,Win32,84.74576271,,,,,,,,,,,,,,,,1025.0966,1026.3905,1026.3905,1027.8493,return,0.6503,,75.91145833,,,,,,FBP-YG-17.png,0.43,1.2,4,0.5,,,,,,,,,,,,,,,,,,0,23,23,3,1,,,,,,,,,,,,,,,,,,,,,,,
,,,,,V3_063,18,Female,2024-11-14_16h37.47.668,jersey_experiment_5_v3,2023.2.2,Win32,84.74576271,,,,,,,,,,,,,,,,1027.8496,1029.1434,1029.1434,1030.1552,return,0.5076,,73.4375,,,,,,FBP-YG-18.png,0.4,1.2,8,0.5,,,,,,,,,,,,,,,,,,0,24,24,7,1,,,,,,,,,,,,,,,,,,,,,,,
,,,,,V3_063,18,Female,2024-11-14_16h37.47.668,jersey_experiment_5_v3,2023.2.2,Win32,84.74576271,,,,,,,,,,,,,,,,1030.1556,1031.4494,1031.4494,1033.6967,return,0.5548,,60.9375,,,,,,FBP-RB-81.png,0.35,1.2,51,0.5,,,,,,,,,,,,,,,,,,0,25,25,50,1,,,,,,,,,,,,,,,,,,,,,,,
,,,,,V3_063,18,Female,2024-11-14_16h37.47.668,jersey_experiment_5_v3,2023.2.2,Win32,84.74576271,,,,,,,,,,,,,,,,1033.697,1034.9908,1034.9909,1037.2143,return,0.5884,,74.08854167,,,,,,FBP-PT-81.png,0.4,1.2,23,0.5,,,,,,,,,,,,,,,,,,0,26,26,22,1,,,,,,,,,,,,,,,,,,,,,,,
,,,,,V3_063,18,Female,2024-11-14_16h37.47.668,jersey_experiment_5_v3,2023.2.2,Win32,84.74576271,,,,,,,,,,,,,,,,1037.2146,1038.7673,1038.7674,1045.5793,return,5.2857,,76.43229167,,,,,,FBP-OG-71.png,0.45,1.2,35,0.75,,,,,,,,,,,,,,,,,,0,27,27,34,1,,,,,,,,,,,,,,,,,,,,,,,
,,,,,V3_063,18,Female,2024-11-14_16h37.47.668,jersey_experiment_5_v3,2023.2.2,Win32,84.74576271,,,,,,,,,,,,,,,,1045.5795,1046.8734,1046.8734,1049.0148,return,1.0309,,75.390625,,,,,,FBP-PT-71.png,0.37,1.2,17,0.5,,,,,,,,,,,,,,,,,,0,28,28,16,1,,,,,,,,,,,,,,,,,,,,,,,
,,,,,V3_063,18,Female,2024-11-14_16h37.47.668,jersey_experiment_5_v3,2023.2.2,Win32,84.74576271,,,,,,,,,,,,,,,,1049.015,1050.5679,1050.5679,1053.8856,return,2.4004,,25.390625,,,,,,FBP-OG-81.png,0.35,1.2,36,0.75,,,,,,,,,,,,,,,,,,0,29,29,35,1,,,,,,,,,,,,,,,,,,,,,,,
,,,,,V3_063,18,Female,2024-11-14_16h37.47.668,jersey_experiment_5_v3,2023.2.2,Win32,84.74576271,,,,,,,,,,,,,,,,1053.8859,1055.1796,1055.1797,1058.3681,return,1.5174,,25.91145833,,,,,,FBP-RB-81.png,0.37,1.2,52,0.5,,,,,,,,,,,,,,,,,,0,30,30,51,1,,,,,,,,,,,,,,,,,,,,,,,
,,,,,V3_063,18,Female,2024-11-14_16h37.47.668,jersey_experiment_5_v3,2023.2.2,Win32,84.74576271,,,,,,,,,,,,,,,,1058.3683,1059.9212,1059.9212,1061.58,return,0.602,,99.21875,,,,,,FBP-OG-91.png,0.45,1.2,45,0.75,,,,,,,,,,,,,,,,,,0,31,31,44,1,,,,,,,,,,,,,,,,,,,,,,,
,,,,,V3_063,18,Female,2024-11-14_16h37.47.668,jersey_experiment_5_v3,2023.2.2,Win32,84.74576271,,,,,,,,,,,,,,,,1061.5802,1062.874,1062.874,1064.3094,return,0.5617,,74.34895833,,,,,,FBP-RB-71.png,0.4,1.2,48,0.5,,,,,,,,,,,,,,,,,,0,32,32,47,1,,,,,,,,,,,,,,,,,,,,,,,
,,,,,V3_063,18,Female,2024-11-14_16h37.47.668,jersey_experiment_5_v3,2023.2.2,Win32,84.74576271,,,,,,,,,,,,,,,,1064.3097,1065.6036,1065.6037,1067.8037,return,0.5065,,74.21875,,,,,,FBP-RB-81.png,0.45,1.2,55,0.5,,,,,,,,,,,,,,,,,,0,33,33,54,1,,,,,,,,,,,,,,,,,,,,,,,
,,,,,V3_063,18,Female,2024-11-14_16h37.47.668,jersey_experiment_5_v3,2023.2.2,Win32,84.74576271,,,,,,,,,,,,,,,,1067.8041,1069.3566,1069.3567,1071.0156,return,0.5596,,98.4375,,,,,,FBP-OG-71.png,0.43,1.2,34,0.75,,,,,,,,,,,,,,,,,,0,34,34,33,1,,,,,,,,,,,,,,,,,,,,,,,
,,,,,V3_063,18,Female,2024-11-14_16h37.47.668,jersey_experiment_5_v3,2023.2.2,Win32,84.74576271,,,,,,,,,,,,,,,,1071.0159,1072.3097,1072.3097,1074.3451,return,0.6406,,74.609375,,,,,,FBP-YG-17.png,0.4,1.2,3,0.5,,,,,,,,,,,,,,,,,,0,35,35,2,1,,,,,,,,,,,,,,,,,,,,,,,
,,,,,V3_063,18,Female,2024-11-14_16h37.47.668,jersey_experiment_5_v3,2023.2.2,Win32,84.74576271,,,,,,,,,,,,,,,,1074.3454,1075.8983,1075.8984,1078.3925,return,1.2532,,50.26041667,,,,,,FBP-OG-81.png,0.37,1.2,37,0.75,,,,,,,,,,,,,,,,,,0,36,36,36,1,,,,,,,,,,,,,,,,,,,,,,,
,,,,,V3_063,18,Female,2024-11-14_16h37.47.668,jersey_experiment_5_v3,2023.2.2,Win32,84.74576271,,,,,,,,,,,,,,,,1078.3927,1079.9455,1079.9455,1081.5454,return,0.7342,,97.91666667,,,,,,FBP-OG-81.png,0.45,1.2,40,0.75,,,,,,,,,,,,,,,,,,0,37,37,39,1,,,,,,,,,,,,,,,,,,,,,,,
,,,,,V3_063,18,Female,2024-11-14_16h37.47.668,jersey_experiment_5_v3,2023.2.2,Win32,84.74576271,,,,,,,,,,,,,,,,1081.5457,1082.8397,1082.8397,1083.8867,return,0.5639,,99.34895833,,,,,,FBP-PT-81.png,0.43,1.2,24,0.5,,,,,,,,,,,,,,,,,,0,38,38,23,1,,,,,,,,,,,,,,,,,,,,,,,
,,,,,V3_063,18,Female,2024-11-14_16h37.47.668,jersey_experiment_5_v3,2023.2.2,Win32,84.74576271,,,,,,,,,,,,,,,,1083.887,1085.4396,1085.4398,1091.0869,return,0.5645,,73.95833333,,,,,,FBP-OG-71.png,0.4,1.2,33,0.75,,,,,,,,,,,,,,,,,,0,39,39,32,1,,,,,,,,,,,,,,,,,,,,,,,
,,,,,V3_063,18,Female,2024-11-14_16h37.47.668,jersey_experiment_5_v3,2023.2.2,Win32,84.74576271,,,,,,,,,,,,,,,,1091.0872,1092.3811,1092.3811,1096.4399,return,1.4051,,58.984375,,,,,,FBP-RB-91.png,0.4,1.2,58,0.5,,,,,,,,,,,,,,,,,,0,40,40,57,1,,,,,,,,,,,,,,,,,,,,,,,
,,,,,V3_063,18,Female,2024-11-14_16h37.47.668,jersey_experiment_5_v3,2023.2.2,Win32,84.74576271,,,,,,,,,,,,,,,,1096.4402,1097.7342,1097.7343,1100.1225,return,1.1764,,74.609375,,,,,,FBP-RB-71.png,0.43,1.2,49,0.5,,,,,,,,,,,,,,,,,,0,41,41,48,1,,,,,,,,,,,,,,,,,,,,,,,
,,,,,V3_063,18,Female,2024-11-14_16h37.47.668,jersey_experiment_5_v3,2023.2.2,Win32,84.74576271,,,,,,,,,,,,,,,,1100.1228,1101.4169,1101.4169,1103.3345,return,0.502,,98.95833333,,,,,,FBP-YG-17.png,0.45,1.2,5,0.5,,,,,,,,,,,,,,,,,,0,42,42,4,1,,,,,,,,,,,,,,,,,,,,,,,
,,,,,V3_063,18,Female,2024-11-14_16h37.47.668,jersey_experiment_5_v3,2023.2.2,Win32,84.74576271,,,,,,,,,,,,,,,,1103.3348,1104.6286,1104.6286,1107.0051,return,0.5656,,59.765625,,,,,,FBP-RB-71.png,0.35,1.2,46,0.5,,,,,,,,,,,,,,,,,,0,43,43,45,1,,,,,,,,,,,,,,,,,,,,,,,
,,,,,V3_063,18,Female,2024-11-14_16h37.47.668,jersey_experiment_5_v3,2023.2.2,Win32,84.74576271,,,,,,,,,,,,,,,,1107.0054,1108.5583,1108.5584,1110.8289,return,0.5641,,73.4375,,,,,,FBP-OG-91.png,0.35,1.2,41,0.75,,,,,,,,,,,,,,,,,,0,44,44,40,1,,,,,,,,,,,,,,,,,,,,,,,
,,,,,V3_063,18,Female,2024-11-14_16h37.47.668,jersey_experiment_5_v3,2023.2.2,Win32,84.74576271,,,,,,,,,,,,,,,,1110.8292,1112.3817,1112.3818,1113.9348,return,0.5426,,99.34895833,,,,,,FBP-OG-91.png,0.43,1.2,44,0.75,,,,,,,,,,,,,,,,,,0,45,45,43,1,,,,,,,,,,,,,,,,,,,,,,,
,,,,,V3_063,18,Female,2024-11-14_16h37.47.668,jersey_experiment_5_v3,2023.2.2,Win32,84.74576271,,,,,,,,,,,,,,,,1113.9352,1115.2291,1115.2292,1116.4878,return,0.5239,,74.73958333,,,,,,FBP-RB-91.png,0.35,1.2,56,0.5,,,,,,,,,,,,,,,,,,0,46,46,55,1,,,,,,,,,,,,,,,,,,,,,,,
,,,,,V3_063,18,Female,2024-11-14_16h37.47.668,jersey_experiment_5_v3,2023.2.2,Win32,84.74576271,,,,,,,,,,,,,,,,1116.4882,1117.7822,1117.7822,1119.1469,return,0.5314,,74.34895833,,,,,,FBP-YG-18.png,0.35,1.2,6,0.5,,,,,,,,,,,,,,,,,,0,47,47,5,1,,,,,,,,,,,,,,,,,,,,,,,
,,,,,V3_063,18,Female,2024-11-14_16h37.47.668,jersey_experiment_5_v3,2023.2.2,Win32,84.74576271,,,,,,,,,,,,,,,,1119.1472,1120.4412,1120.4413,1122.7588,return,0.5473,,73.56770833,,,,,,FBP-PT-71.png,0.4,1.2,18,0.5,,,,,,,,,,,,,,,,,,0,48,48,17,1,,,,,,,,,,,,,,,,,,,,,,,
,,,,,V3_063,18,Female,2024-11-14_16h37.47.668,jersey_experiment_5_v3,2023.2.2,Win32,84.74576271,,,,,,,,,,,,,,,,1122.7591,1124.3116,1124.3117,1125.6059,return,0.5375,,73.69791667,,,,,,FBP-OG-71.png,0.37,1.2,32,0.75,,,,,,,,,,,,,,,,,,0,49,49,31,1,,,,,,,,,,,,,,,,,,,,,,,
,,,,,V3_063,18,Female,2024-11-14_16h37.47.668,jersey_experiment_5_v3,2023.2.2,Win32,84.74576271,,,,,,,,,,,,,,,,1125.6062,1126.9,1126.9001,1128.7943,return,1.0025,,98.30729167,,,,,,FBP-YG-19.png,0.43,1.2,14,0.5,,,,,,,,,,,,,,,,,,0,50,50,13,1,,,,,,,,,,,,,,,,,,,,,,,
,,,,,V3_063,18,Female,2024-11-14_16h37.47.668,jersey_experiment_5_v3,2023.2.2,Win32,84.74576271,,,,,,,,,,,,,,,,1128.7945,1130.0883,1130.0883,1131.7355,return,0.5113,,75.13020833,,,,,,FBP-RB-91.png,0.37,1.2,57,0.5,,,,,,,,,,,,,,,,,,0,51,51,56,1,,,,,,,,,,,,,,,,,,,,,,,
,,,,,V3_063,18,Female,2024-11-14_16h37.47.668,jersey_experiment_5_v3,2023.2.2,Win32,84.74576271,,,,,,,,,,,,,,,,1131.7359,1133.0297,1133.0298,1134.359,return,0.5365,,98.17708333,,,,,,FBP-RB-81.png,0.43,1.2,54,0.5,,,,,,,,,,,,,,,,,,0,52,52,53,1,,,,,,,,,,,,,,,,,,,,,,,
,,,,,V3_063,18,Female,2024-11-14_16h37.47.668,jersey_experiment_5_v3,2023.2.2,Win32,84.74576271,,,,,,,,,,,,,,,,1134.3593,1135.6533,1135.6533,1137.2887,return,0.5232,,99.34895833,,,,,,FBP-RB-71.png,0.45,1.2,50,0.5,,,,,,,,,,,,,,,,,,0,53,53,49,1,,,,,,,,,,,,,,,,,,,,,,,
,,,,,V3_063,18,Female,2024-11-14_16h37.47.668,jersey_experiment_5_v3,2023.2.2,Win32,84.74576271,,,,,,,,,,,,,,,,1137.289,1138.5829,1138.5829,1140.477,return,0.5188,,99.86979167,,,,,,FBP-PT-91.png,0.4,1.2,28,0.5,,,,,,,,,,,,,,,,,,0,54,54,27,1,,,,,,,,,,,,,,,,,,,,,,,
,,,,,V3_063,18,Female,2024-11-14_16h37.47.668,jersey_experiment_5_v3,2023.2.2,Win32,84.74576271,,,,,,,,,,,,,,,,1140.4773,1141.7713,1141.7713,1143.1477,return,0.6959,,98.95833333,,,,,,FBP-PT-91.png,0.43,1.2,29,0.5,,,,,,,,,,,,,,,,,,0,55,55,28,1,,,,,,,,,,,,,,,,,,,,,,,
,,,,,V3_063,18,Female,2024-11-14_16h37.47.668,jersey_experiment_5_v3,2023.2.2,Win32,84.74576271,,,,,,,,,,,,,,,,1143.1479,1144.442,1144.4421,1145.6537,return,0.4907,,75.52083333,,,,,,FBP-RB-81.png,0.4,1.2,53,0.5,,,,,,,,,,,,,,,,,,0,56,56,52,1,,,,,,,,,,,,,,,,,,,,,,,
,,,,,V3_063,18,Female,2024-11-14_16h37.47.668,jersey_experiment_5_v3,2023.2.2,Win32,84.74576271,,,,,,,,,,,,,,,,1145.6539,1146.9478,1146.9479,1148.5243,return,0.6253,,99.21875,,,,,,FBP-PT-71.png,0.43,1.2,19,0.5,,,,,,,,,,,,,,,,,,0,57,57,18,1,,,,,,,,,,,,,,,,,,,,,,,
,,,,,V3_063,18,Female,2024-11-14_16h37.47.668,jersey_experiment_5_v3,2023.2.2,Win32,84.74576271,,,,,,,,,,,,,,,,1148.5246,1149.8186,1149.8187,1151.3245,return,0.5075,,50.13020833,,,,,,FBP-YG-19.png,0.35,1.2,11,0.5,,,,,,,,,,,,,,,,,,0,58,58,10,1,,,,,,,,,,,,,,,,,,,,,,,
,,,,,V3_063,18,Female,2024-11-14_16h37.47.668,jersey_experiment_5_v3,2023.2.2,Win32,84.74576271,,,,,,,,,,,,,,,,1151.3247,1152.8775,1152.8776,1153.9365,return,0.5213,,73.4375,,,,,,FBP-OG-91.png,0.4,1.2,43,0.75,,,,,,,,,,,,,,,,,,0,59,59,42,1,,,,,,,,,,,,,,,,,,,,,,,
,,,,,V3_063,18,Female,2024-11-14_16h37.47.668,jersey_experiment_5_v3,2023.2.2,Win32,84.74576271,,,,,,,,,,,,,,,,,,,,,,,,,,,,,,,,,,,,,,,,,,,,,,,,,,,,,,,,1153.9365,1166.4427,return,12.4971,,,,,,,,,,,,,,,,,,,
,,,,,V3_063,18,Female,2024-11-14_16h37.47.668,jersey_experiment_5_v3,2023.2.2,Win32,84.74576271,,,,,,,,,,,,,,,,,,,,,,,,,,,,,,,,,,,,,,,,,,,,,,,,,,,,,,,,,,,,,1166.4428,1173.7608,1,4.9084,return,2.3847,,,,,,,,,,,,
,,,,,V3_063,18,Female,2024-11-14_16h37.47.668,jersey_experiment_5_v3,2023.2.2,Win32,84.74576271,,,,,,,,,,,,,,,,,,,,,,,,,,,,,,,,,,,,,,,,,,,,,,,,,,,,,,,,,,,,,,,,,,,,1173.7608,1274.9183,I noticed that sometimes throughout the experiment the same images of the players would be shown but in different jersey color or skin tones. ,right,89.7871,,,,,,
,,,,,V3_063,18,Female,2024-11-14_16h37.47.668,jersey_experiment_5_v3,2023.2.2,Win32,84.74576271,,,,,,,,,,,,,,,,,,,,,,,,,,,,,,,,,,,,,,,,,,,,,,,,,,,,,,,,,,,,,,,,,,,,,,,,,,1274.9184,1284.0473,return,9.1146,