requirements.started,requirements.stopped,key_resp_3.keys,key_resp_3.rt,key_resp_3.duration,Subject ID,Age,Gender,date,expName,psychopyVersion,OS,frameRate,instructions1.started,instructions1.stopped,key_resp.keys,key_resp.rt,key_resp.duration,example.started,example.stopped,enter_2.keys,enter_2.rt,enter_2.duration,instructions2.started,instructions2.stopped,enter_3.keys,enter_3.rt,enter_3.duration,image.started,image.stopped,slider_2.started,slider_2.stopped,next.keys,next.rt,next.duration,slider.response,trial_block_1.thisRepN,trial_block_1.thisTrialN,trial_block_1.thisN,trial_block_1.thisIndex,trial_block_1.ran,Path,Width,Height,Index,Duration,trial_block_2.thisRepN,trial_block_2.thisTrialN,trial_block_2.thisN,trial_block_2.thisIndex,trial_block_2.ran,rest_break.started,rest_break.stopped,end_break.started,end_break.stopped,key_resp_5.keys,key_resp_5.rt,key_resp_5.duration,trial_block_3.thisRepN,trial_block_3.thisTrialN,trial_block_3.thisN,trial_block_3.thisIndex,trial_block_3.ran,trial_block_4.thisRepN,trial_block_4.thisTrialN,trial_block_4.thisN,trial_block_4.thisIndex,trial_block_4.ran,questions_intro.started,questions_intro.stopped,enter_12.keys,enter_12.rt,enter_12.duration,question2.started,question2.stopped,question_doingbest.response,question_doingbest.rt,enter_15.keys,enter_15.rt,enter_15.duration,pattern.started,pattern.stopped,pattern_2.text,enter_17.keys,enter_17.rt,enter_17.duration,thankyou.started,thankyou.stopped,enter_14.keys,enter_14.rt,enter_14.duration
0.0001,13.1474,return,13.1366,,V3_031,21,Female,2024-10-21_17h02.23.957,jersey_experiment_5_v3,2023.2.2,Win32,85.47008547,,,,,,,,,,,,,,,,,,,,,,,,,,,,,,,,,,,,,,,,,,,,,,,,,,,,,,,,,,,,,,,,,,,,,,,,,,,,,,
,,,,,V3_031,21,Female,2024-10-21_17h02.23.957,jersey_experiment_5_v3,2023.2.2,Win32,85.47008547,13.1475,19.8065,return,6.6347,,,,,,,,,,,,,,,,,,,,,,,,,,,,,,,,,,,,,,,,,,,,,,,,,,,,,,,,,,,,,,,,,,,,,,,,,,
,,,,,V3_031,21,Female,2024-10-21_17h02.23.957,jersey_experiment_5_v3,2023.2.2,Win32,85.47008547,,,,,,19.8066,24.5714,return,4.7258,,,,,,,,,,,,,,,,,,,,,,,,,,,,,,,,,,,,,,,,,,,,,,,,,,,,,,,,,,,,,,,,,,,,,
,,,,,V3_031,21,Female,2024-10-21_17h02.23.957,jersey_experiment_5_v3,2023.2.2,Win32,85.47008547,,,,,,,,,,,24.5715,47.3369,return,22.7554,,,,,,,,,,,,,,,,,,,,,,,,,,,,,,,,,,,,,,,,,,,,,,,,,,,,,,,,,,,,,,,,
,,,,,V3_031,21,Female,2024-10-21_17h02.23.957,jersey_experiment_5_v3,2023.2.2,Win32,85.47008547,,,,,,,,,,,,,,,,47.339,48.8896,48.8897,61.596,return,3.2924,,74.86979167,0,0,0,9,1,FBP-YG-81.png,0.45,1.2,10,0.75,,,,,,,,,,,,,,,,,,,,,,,,,,,,,,,,,,,,,,,,,,,,,
,,,,,V3_031,21,Female,2024-10-21_17h02.23.957,jersey_experiment_5_v3,2023.2.2,Win32,85.47008547,,,,,,,,,,,,,,,,61.5964,63.149,63.1491,69.5257,return,2.8903,,49.609375,0,1,1,47,1,FBP-RB-17.png,0.4,1.2,48,0.75,,,,,,,,,,,,,,,,,,,,,,,,,,,,,,,,,,,,,,,,,,,,,
,,,,,V3_031,21,Female,2024-10-21_17h02.23.957,jersey_experiment_5_v3,2023.2.2,Win32,85.47008547,,,,,,,,,,,,,,,,69.5259,71.0788,71.0788,75.7848,return,1.0988,,58.59375,0,2,2,46,1,FBP-RB-17.png,0.37,1.2,47,0.75,,,,,,,,,,,,,,,,,,,,,,,,,,,,,,,,,,,,,,,,,,,,,
,,,,,V3_031,21,Female,2024-10-21_17h02.23.957,jersey_experiment_5_v3,2023.2.2,Win32,85.47008547,,,,,,,,,,,,,,,,75.7851,77.3379,77.3379,81.2908,return,1.0384,,83.984375,0,3,3,48,1,FBP-RB-17.png,0.43,1.2,49,0.75,,,,,,,,,,,,,,,,,,,,,,,,,,,,,,,,,,,,,,,,,,,,,
,,,,,V3_031,21,Female,2024-10-21_17h02.23.957,jersey_experiment_5_v3,2023.2.2,Win32,85.47008547,,,,,,,,,,,,,,,,81.291,82.8439,82.844,86.0794,return,1.3887,,81.38020833,0,4,4,57,1,FBP-RB-19.png,0.4,1.2,58,0.75,,,,,,,,,,,,,,,,,,,,,,,,,,,,,,,,,,,,,,,,,,,,,
,,,,,V3_031,21,Female,2024-10-21_17h02.23.957,jersey_experiment_5_v3,2023.2.2,Win32,85.47008547,,,,,,,,,,,,,,,,86.0798,87.6322,87.6323,91.4206,return,0.9499,,77.08333333,0,5,5,7,1,FBP-YG-81.png,0.4,1.2,8,0.75,,,,,,,,,,,,,,,,,,,,,,,,,,,,,,,,,,,,,,,,,,,,,
,,,,,V3_031,21,Female,2024-10-21_17h02.23.957,jersey_experiment_5_v3,2023.2.2,Win32,85.47008547,,,,,,,,,,,,,,,,91.4208,92.9737,92.9737,95.9503,return,1.2478,,99.86979167,0,6,6,8,1,FBP-YG-81.png,0.43,1.2,9,0.75,,,,,,,,,,,,,,,,,,,,,,,,,,,,,,,,,,,,,,,,,,,,,
,,,,,V3_031,21,Female,2024-10-21_17h02.23.957,jersey_experiment_5_v3,2023.2.2,Win32,85.47008547,,,,,,,,,,,,,,,,95.9506,97.5032,97.5032,99.915,return,1.1426,,100,0,7,7,14,1,FBP-YG-91.png,0.45,1.2,15,0.75,,,,,,,,,,,,,,,,,,,,,,,,,,,,,,,,,,,,,,,,,,,,,
,,,,,V3_031,21,Female,2024-10-21_17h02.23.957,jersey_experiment_5_v3,2023.2.2,Win32,85.47008547,,,,,,,,,,,,,,,,99.9155,101.468,101.4681,105.1505,return,0.8472,,58.72395833,0,8,8,16,1,FBP-PT-17.png,0.37,1.2,17,0.75,,,,,,,,,,,,,,,,,,,,,,,,,,,,,,,,,,,,,,,,,,,,,
,,,,,V3_031,21,Female,2024-10-21_17h02.23.957,jersey_experiment_5_v3,2023.2.2,Win32,85.47008547,,,,,,,,,,,,,,,,105.1507,106.7035,106.7036,109.2919,return,0.9795,,75,0,9,9,49,1,FBP-RB-17.png,0.45,1.2,50,0.75,,,,,,,,,,,,,,,,,,,,,,,,,,,,,,,,,,,,,,,,,,,,,
,,,,,V3_031,21,Female,2024-10-21_17h02.23.957,jersey_experiment_5_v3,2023.2.2,Win32,85.47008547,,,,,,,,,,,,,,,,109.2922,110.5861,110.5861,113.7743,return,0.8471,,96.875,0,10,10,34,1,FBP-OG-17.png,0.45,1.2,35,0.5,,,,,,,,,,,,,,,,,,,,,,,,,,,,,,,,,,,,,,,,,,,,,
,,,,,V3_031,21,Female,2024-10-21_17h02.23.957,jersey_experiment_5_v3,2023.2.2,Win32,85.47008547,,,,,,,,,,,,,,,,113.7746,115.3274,115.3274,118.857,return,0.9329,,29.42708333,0,11,11,10,1,FBP-YG-91.png,0.35,1.2,11,0.75,,,,,,,,,,,,,,,,,,,,,,,,,,,,,,,,,,,,,,,,,,,,,
,,,,,V3_031,21,Female,2024-10-21_17h02.23.957,jersey_experiment_5_v3,2023.2.2,Win32,85.47008547,,,,,,,,,,,,,,,,118.8573,120.41,120.4101,123.1983,return,1.1898,,74.609375,0,12,12,58,1,FBP-RB-19.png,0.43,1.2,59,0.75,,,,,,,,,,,,,,,,,,,,,,,,,,,,,,,,,,,,,,,,,,,,,
,,,,,V3_031,21,Female,2024-10-21_17h02.23.957,jersey_experiment_5_v3,2023.2.2,Win32,85.47008547,,,,,,,,,,,,,,,,123.1985,124.4926,124.4926,127.4337,return,0.9097,,59.89583333,0,13,13,32,1,FBP-OG-17.png,0.4,1.2,33,0.5,,,,,,,,,,,,,,,,,,,,,,,,,,,,,,,,,,,,,,,,,,,,,
,,,,,V3_031,21,Female,2024-10-21_17h02.23.957,jersey_experiment_5_v3,2023.2.2,Win32,85.47008547,,,,,,,,,,,,,,,,127.434,128.9867,128.9867,132.1987,return,0.7129,,74.609375,0,14,14,13,1,FBP-YG-91.png,0.43,1.2,14,0.75,,,,,,,,,,,,,,,,,,,,,,,,,,,,,,,,,,,,,,,,,,,,,
,,,,,V3_031,21,Female,2024-10-21_17h02.23.957,jersey_experiment_5_v3,2023.2.2,Win32,85.47008547,,,,,,,,,,,,,,,,132.1991,133.493,133.493,136.2459,return,0.9726,,24.73958333,0,15,15,40,1,FBP-OG-19.png,0.35,1.2,41,0.5,,,,,,,,,,,,,,,,,,,,,,,,,,,,,,,,,,,,,,,,,,,,,
,,,,,V3_031,21,Female,2024-10-21_17h02.23.957,jersey_experiment_5_v3,2023.2.2,Win32,85.47008547,,,,,,,,,,,,,,,,136.2462,137.7988,137.7988,140.7166,return,1.0124,,74.609375,0,16,16,52,1,FBP-RB-18.png,0.4,1.2,53,0.75,,,,,,,,,,,,,,,,,,,,,,,,,,,,,,,,,,,,,,,,,,,,,
,,,,,V3_031,21,Female,2024-10-21_17h02.23.957,jersey_experiment_5_v3,2023.2.2,Win32,85.47008547,,,,,,,,,,,,,,,,140.7169,142.2696,142.2697,144.7991,return,0.8141,,89.97395833,0,17,17,24,1,FBP-PT-18.png,0.45,1.2,25,0.75,,,,,,,,,,,,,,,,,,,,,,,,,,,,,,,,,,,,,,,,,,,,,
,,,,,V3_031,21,Female,2024-10-21_17h02.23.957,jersey_experiment_5_v3,2023.2.2,Win32,85.47008547,,,,,,,,,,,,,,,,144.7994,146.3521,146.3521,149.0934,return,0.7219,,26.30208333,0,18,18,5,1,FBP-YG-81.png,0.35,1.2,6,0.75,,,,,,,,,,,,,,,,,,,,,,,,,,,,,,,,,,,,,,,,,,,,,
,,,,,V3_031,21,Female,2024-10-21_17h02.23.957,jersey_experiment_5_v3,2023.2.2,Win32,85.47008547,,,,,,,,,,,,,,,,149.0936,150.6465,150.6467,153.7523,return,1.2994,,96.09375,0,19,19,19,1,FBP-PT-17.png,0.45,1.2,20,0.75,,,,,,,,,,,,,,,,,,,,,,,,,,,,,,,,,,,,,,,,,,,,,
,,,,,V3_031,21,Female,2024-10-21_17h02.23.957,jersey_experiment_5_v3,2023.2.2,Win32,85.47008547,,,,,,,,,,,,,,,,153.7526,155.3053,155.3053,157.9644,return,1.2718,,98.69791667,0,20,20,28,1,FBP-PT-19.png,0.43,1.2,29,0.75,,,,,,,,,,,,,,,,,,,,,,,,,,,,,,,,,,,,,,,,,,,,,
,,,,,V3_031,21,Female,2024-10-21_17h02.23.957,jersey_experiment_5_v3,2023.2.2,Win32,85.47008547,,,,,,,,,,,,,,,,157.9648,159.5173,159.5174,162.5408,return,0.7275,,74.609375,0,21,21,12,1,FBP-YG-91.png,0.4,1.2,13,0.75,,,,,,,,,,,,,,,,,,,,,,,,,,,,,,,,,,,,,,,,,,,,,
,,,,,V3_031,21,Female,2024-10-21_17h02.23.957,jersey_experiment_5_v3,2023.2.2,Win32,85.47008547,,,,,,,,,,,,,,,,162.5411,164.094,164.0941,166.5058,return,1.0494,,73.56770833,0,22,22,17,1,FBP-PT-17.png,0.4,1.2,18,0.75,,,,,,,,,,,,,,,,,,,,,,,,,,,,,,,,,,,,,,,,,,,,,
,,,,,V3_031,21,Female,2024-10-21_17h02.23.957,jersey_experiment_5_v3,2023.2.2,Win32,85.47008547,,,,,,,,,,,,,,,,166.5062,168.0588,168.0588,170.6707,return,1.0223,,48.95833333,0,23,23,0,1,FBP-YG-71.png,0.35,1.2,1,0.75,,,,,,,,,,,,,,,,,,,,,,,,,,,,,,,,,,,,,,,,,,,,,
,,,,,V3_031,21,Female,2024-10-21_17h02.23.957,jersey_experiment_5_v3,2023.2.2,Win32,85.47008547,,,,,,,,,,,,,,,,170.6711,172.2235,172.2236,174.9532,return,1.096,,57.94270833,0,24,24,6,1,FBP-YG-81.png,0.37,1.2,7,0.75,,,,,,,,,,,,,,,,,,,,,,,,,,,,,,,,,,,,,,,,,,,,,
,,,,,V3_031,21,Female,2024-10-21_17h02.23.957,jersey_experiment_5_v3,2023.2.2,Win32,85.47008547,,,,,,,,,,,,,,,,174.9535,176.506,176.5062,178.8239,return,1.0998,,74.86979167,0,25,25,18,1,FBP-PT-17.png,0.43,1.2,19,0.75,,,,,,,,,,,,,,,,,,,,,,,,,,,,,,,,,,,,,,,,,,,,,
,,,,,V3_031,21,Female,2024-10-21_17h02.23.957,jersey_experiment_5_v3,2023.2.2,Win32,85.47008547,,,,,,,,,,,,,,,,178.8241,180.1179,180.1179,182.4475,return,0.7906,,96.74479167,0,26,26,43,1,FBP-OG-19.png,0.43,1.2,44,0.5,,,,,,,,,,,,,,,,,,,,,,,,,,,,,,,,,,,,,,,,,,,,,
,,,,,V3_031,21,Female,2024-10-21_17h02.23.957,jersey_experiment_5_v3,2023.2.2,Win32,85.47008547,,,,,,,,,,,,,,,,182.4479,184.0005,184.0006,188.2359,return,0.6986,,40.10416667,0,27,27,50,1,FBP-RB-18.png,0.35,1.2,51,0.75,,,,,,,,,,,,,,,,,,,,,,,,,,,,,,,,,,,,,,,,,,,,,
,,,,,V3_031,21,Female,2024-10-21_17h02.23.957,jersey_experiment_5_v3,2023.2.2,Win32,85.47008547,,,,,,,,,,,,,,,,188.2362,189.789,189.789,192.4597,return,1.0136,,97.78645833,0,28,28,27,1,FBP-PT-19.png,0.4,1.2,28,0.75,,,,,,,,,,,,,,,,,,,,,,,,,,,,,,,,,,,,,,,,,,,,,
,,,,,V3_031,21,Female,2024-10-21_17h02.23.957,jersey_experiment_5_v3,2023.2.2,Win32,85.47008547,,,,,,,,,,,,,,,,192.4599,194.0127,194.0128,196.1538,return,0.9525,,99.609375,0,29,29,22,1,FBP-PT-18.png,0.4,1.2,23,0.75,,,,,,,,,,,,,,,,,,,,,,,,,,,,,,,,,,,,,,,,,,,,,
,,,,,V3_031,21,Female,2024-10-21_17h02.23.957,jersey_experiment_5_v3,2023.2.2,Win32,85.47008547,,,,,,,,,,,,,,,,196.1541,197.707,197.707,200.2952,return,0.9321,,26.5625,0,30,30,20,1,FBP-PT-18.png,0.35,1.2,21,0.75,,,,,,,,,,,,,,,,,,,,,,,,,,,,,,,,,,,,,,,,,,,,,
,,,,,V3_031,21,Female,2024-10-21_17h02.23.957,jersey_experiment_5_v3,2023.2.2,Win32,85.47008547,,,,,,,,,,,,,,,,200.2956,201.5894,201.5894,205.3072,return,0.7553,,35.546875,0,31,31,41,1,FBP-OG-19.png,0.37,1.2,42,0.5,,,,,,,,,,,,,,,,,,,,,,,,,,,,,,,,,,,,,,,,,,,,,
,,,,,V3_031,21,Female,2024-10-21_17h02.23.957,jersey_experiment_5_v3,2023.2.2,Win32,85.47008547,,,,,,,,,,,,,,,,205.3074,206.8602,206.8603,211.3662,return,0.6535,,42.31770833,0,32,32,15,1,FBP-PT-17.png,0.35,1.2,16,0.75,,,,,,,,,,,,,,,,,,,,,,,,,,,,,,,,,,,,,,,,,,,,,
,,,,,V3_031,21,Female,2024-10-21_17h02.23.957,jersey_experiment_5_v3,2023.2.2,Win32,85.47008547,,,,,,,,,,,,,,,,211.3665,212.9192,212.9192,215.0017,return,0.6626,,93.61979167,0,33,33,29,1,FBP-PT-19.png,0.45,1.2,30,0.75,,,,,,,,,,,,,,,,,,,,,,,,,,,,,,,,,,,,,,,,,,,,,
,,,,,V3_031,21,Female,2024-10-21_17h02.23.957,jersey_experiment_5_v3,2023.2.2,Win32,85.47008547,,,,,,,,,,,,,,,,215.0019,216.5546,216.5546,220.649,return,0.9222,,69.53125,0,34,34,26,1,FBP-PT-19.png,0.37,1.2,27,0.75,,,,,,,,,,,,,,,,,,,,,,,,,,,,,,,,,,,,,,,,,,,,,
,,,,,V3_031,21,Female,2024-10-21_17h02.23.957,jersey_experiment_5_v3,2023.2.2,Win32,85.47008547,,,,,,,,,,,,,,,,220.6492,221.9431,221.9432,224.2019,return,0.7093,,75.52083333,0,35,35,37,1,FBP-OG-18.png,0.4,1.2,38,0.5,,,,,,,,,,,,,,,,,,,,,,,,,,,,,,,,,,,,,,,,,,,,,
,,,,,V3_031,21,Female,2024-10-21_17h02.23.957,jersey_experiment_5_v3,2023.2.2,Win32,85.47008547,,,,,,,,,,,,,,,,224.2023,225.4961,225.4962,227.9198,return,0.6929,,77.99479167,0,36,36,33,1,FBP-OG-17.png,0.43,1.2,34,0.5,,,,,,,,,,,,,,,,,,,,,,,,,,,,,,,,,,,,,,,,,,,,,
,,,,,V3_031,21,Female,2024-10-21_17h02.23.957,jersey_experiment_5_v3,2023.2.2,Win32,85.47008547,,,,,,,,,,,,,,,,227.92,229.4728,229.473,231.5316,return,0.801,,36.19791667,0,37,37,11,1,FBP-YG-91.png,0.37,1.2,12,0.75,,,,,,,,,,,,,,,,,,,,,,,,,,,,,,,,,,,,,,,,,,,,,
,,,,,V3_031,21,Female,2024-10-21_17h02.23.957,jersey_experiment_5_v3,2023.2.2,Win32,85.47008547,,,,,,,,,,,,,,,,231.5319,233.0847,233.0848,234.9906,return,0.8131,,44.53125,0,38,38,51,1,FBP-RB-18.png,0.37,1.2,52,0.75,,,,,,,,,,,,,,,,,,,,,,,,,,,,,,,,,,,,,,,,,,,,,
,,,,,V3_031,21,Female,2024-10-21_17h02.23.957,jersey_experiment_5_v3,2023.2.2,Win32,85.47008547,,,,,,,,,,,,,,,,234.9908,236.2847,236.2848,238.5084,return,0.589,,47.13541667,0,39,39,31,1,FBP-OG-17.png,0.37,1.2,32,0.5,,,,,,,,,,,,,,,,,,,,,,,,,,,,,,,,,,,,,,,,,,,,,
,,,,,V3_031,21,Female,2024-10-21_17h02.23.957,jersey_experiment_5_v3,2023.2.2,Win32,85.47008547,,,,,,,,,,,,,,,,238.5087,240.0614,240.0614,242.7792,return,0.6335,,44.01041667,0,40,40,45,1,FBP-RB-17.png,0.35,1.2,46,0.75,,,,,,,,,,,,,,,,,,,,,,,,,,,,,,,,,,,,,,,,,,,,,
,,,,,V3_031,21,Female,2024-10-21_17h02.23.957,jersey_experiment_5_v3,2023.2.2,Win32,85.47008547,,,,,,,,,,,,,,,,242.7795,244.0734,244.0734,247.0381,return,0.7294,,73.17708333,0,41,41,39,1,FBP-OG-18.png,0.45,1.2,40,0.5,,,,,,,,,,,,,,,,,,,,,,,,,,,,,,,,,,,,,,,,,,,,,
,,,,,V3_031,21,Female,2024-10-21_17h02.23.957,jersey_experiment_5_v3,2023.2.2,Win32,85.47008547,,,,,,,,,,,,,,,,247.0384,248.3324,248.3324,251.2383,return,0.794,,94.921875,0,42,42,38,1,FBP-OG-18.png,0.43,1.2,39,0.5,,,,,,,,,,,,,,,,,,,,,,,,,,,,,,,,,,,,,,,,,,,,,
,,,,,V3_031,21,Female,2024-10-21_17h02.23.957,jersey_experiment_5_v3,2023.2.2,Win32,85.47008547,,,,,,,,,,,,,,,,251.2387,252.7913,252.7914,255.4033,return,1.0375,,97.91666667,0,43,43,55,1,FBP-RB-19.png,0.35,1.2,56,0.75,,,,,,,,,,,,,,,,,,,,,,,,,,,,,,,,,,,,,,,,,,,,,
,,,,,V3_031,21,Female,2024-10-21_17h02.23.957,jersey_experiment_5_v3,2023.2.2,Win32,85.47008547,,,,,,,,,,,,,,,,255.4038,256.9562,256.9562,261.2858,return,0.9492,,99.609375,0,44,44,4,1,FBP-YG-71.png,0.45,1.2,5,0.75,,,,,,,,,,,,,,,,,,,,,,,,,,,,,,,,,,,,,,,,,,,,,
,,,,,V3_031,21,Female,2024-10-21_17h02.23.957,jersey_experiment_5_v3,2023.2.2,Win32,85.47008547,,,,,,,,,,,,,,,,261.2861,262.5799,262.58,266.5213,return,0.9914,,50.78125,0,45,45,30,1,FBP-OG-17.png,0.35,1.2,31,0.5,,,,,,,,,,,,,,,,,,,,,,,,,,,,,,,,,,,,,,,,,,,,,
,,,,,V3_031,21,Female,2024-10-21_17h02.23.957,jersey_experiment_5_v3,2023.2.2,Win32,85.47008547,,,,,,,,,,,,,,,,266.5218,268.0743,268.0743,271.4156,return,0.6765,,85.80729167,0,46,46,3,1,FBP-YG-71.png,0.43,1.2,4,0.75,,,,,,,,,,,,,,,,,,,,,,,,,,,,,,,,,,,,,,,,,,,,,
,,,,,V3_031,21,Female,2024-10-21_17h02.23.957,jersey_experiment_5_v3,2023.2.2,Win32,85.47008547,,,,,,,,,,,,,,,,271.4158,272.9685,272.9686,274.9333,return,1.0906,,89.58333333,0,47,47,2,1,FBP-YG-71.png,0.4,1.2,3,0.75,,,,,,,,,,,,,,,,,,,,,,,,,,,,,,,,,,,,,,,,,,,,,
,,,,,V3_031,21,Female,2024-10-21_17h02.23.957,jersey_experiment_5_v3,2023.2.2,Win32,85.47008547,,,,,,,,,,,,,,,,274.9336,276.2275,276.2276,278.6865,return,0.8163,,95.18229167,0,48,48,42,1,FBP-OG-19.png,0.4,1.2,43,0.5,,,,,,,,,,,,,,,,,,,,,,,,,,,,,,,,,,,,,,,,,,,,,
,,,,,V3_031,21,Female,2024-10-21_17h02.23.957,jersey_experiment_5_v3,2023.2.2,Win32,85.47008547,,,,,,,,,,,,,,,,278.6868,280.2394,280.2394,282.8276,return,0.933,,66.66666667,0,49,49,21,1,FBP-PT-18.png,0.37,1.2,22,0.75,,,,,,,,,,,,,,,,,,,,,,,,,,,,,,,,,,,,,,,,,,,,,
,,,,,V3_031,21,Female,2024-10-21_17h02.23.957,jersey_experiment_5_v3,2023.2.2,Win32,85.47008547,,,,,,,,,,,,,,,,282.8278,284.3807,284.3808,286.9807,return,0.7959,,76.171875,0,50,50,23,1,FBP-PT-18.png,0.43,1.2,24,0.75,,,,,,,,,,,,,,,,,,,,,,,,,,,,,,,,,,,,,,,,,,,,,
,,,,,V3_031,21,Female,2024-10-21_17h02.23.957,jersey_experiment_5_v3,2023.2.2,Win32,85.47008547,,,,,,,,,,,,,,,,286.9811,288.5338,288.5339,290.4043,return,0.7739,,91.796875,0,51,51,53,1,FBP-RB-18.png,0.43,1.2,54,0.75,,,,,,,,,,,,,,,,,,,,,,,,,,,,,,,,,,,,,,,,,,,,,
,,,,,V3_031,21,Female,2024-10-21_17h02.23.957,jersey_experiment_5_v3,2023.2.2,Win32,85.47008547,,,,,,,,,,,,,,,,290.4046,291.6986,291.6987,294.7339,return,0.8161,,96.35416667,0,52,52,44,1,FBP-OG-19.png,0.45,1.2,45,0.5,,,,,,,,,,,,,,,,,,,,,,,,,,,,,,,,,,,,,,,,,,,,,
,,,,,V3_031,21,Female,2024-10-21_17h02.23.957,jersey_experiment_5_v3,2023.2.2,Win32,85.47008547,,,,,,,,,,,,,,,,294.7342,296.0282,296.0282,298.2636,return,0.7703,,78.515625,0,53,53,36,1,FBP-OG-18.png,0.37,1.2,37,0.5,,,,,,,,,,,,,,,,,,,,,,,,,,,,,,,,,,,,,,,,,,,,,
,,,,,V3_031,21,Female,2024-10-21_17h02.23.957,jersey_experiment_5_v3,2023.2.2,Win32,85.47008547,,,,,,,,,,,,,,,,298.2639,299.8165,299.8165,301.7224,return,0.731,,86.84895833,0,54,54,54,1,FBP-RB-18.png,0.45,1.2,55,0.75,,,,,,,,,,,,,,,,,,,,,,,,,,,,,,,,,,,,,,,,,,,,,
,,,,,V3_031,21,Female,2024-10-21_17h02.23.957,jersey_experiment_5_v3,2023.2.2,Win32,85.47008547,,,,,,,,,,,,,,,,301.7226,303.2755,303.2755,305.5462,return,0.7799,,62.890625,0,55,55,1,1,FBP-YG-71.png,0.37,1.2,2,0.75,,,,,,,,,,,,,,,,,,,,,,,,,,,,,,,,,,,,,,,,,,,,,
,,,,,V3_031,21,Female,2024-10-21_17h02.23.957,jersey_experiment_5_v3,2023.2.2,Win32,85.47008547,,,,,,,,,,,,,,,,305.5466,307.0991,307.0992,309.6287,return,0.7266,,95.703125,0,56,56,59,1,FBP-RB-19.png,0.45,1.2,60,0.75,,,,,,,,,,,,,,,,,,,,,,,,,,,,,,,,,,,,,,,,,,,,,
,,,,,V3_031,21,Female,2024-10-21_17h02.23.957,jersey_experiment_5_v3,2023.2.2,Win32,85.47008547,,,,,,,,,,,,,,,,309.6288,310.9229,310.9229,313.5112,return,0.9123,,64.97395833,0,57,57,35,1,FBP-OG-18.png,0.35,1.2,36,0.5,,,,,,,,,,,,,,,,,,,,,,,,,,,,,,,,,,,,,,,,,,,,,
,,,,,V3_031,21,Female,2024-10-21_17h02.23.957,jersey_experiment_5_v3,2023.2.2,Win32,85.47008547,,,,,,,,,,,,,,,,313.5115,315.0641,315.0641,316.7937,return,0.6704,,51.953125,0,58,58,56,1,FBP-RB-19.png,0.37,1.2,57,0.75,,,,,,,,,,,,,,,,,,,,,,,,,,,,,,,,,,,,,,,,,,,,,
,,,,,V3_031,21,Female,2024-10-21_17h02.23.957,jersey_experiment_5_v3,2023.2.2,Win32,85.47008547,,,,,,,,,,,,,,,,316.794,318.3467,318.3467,320.2291,return,0.7227,,37.23958333,0,59,59,25,1,FBP-PT-19.png,0.35,1.2,26,0.75,,,,,,,,,,,,,,,,,,,,,,,,,,,,,,,,,,,,,,,,,,,,,
,,,,,V3_031,21,Female,2024-10-21_17h02.23.957,jersey_experiment_5_v3,2023.2.2,Win32,85.47008547,,,,,,,,,,,,,,,,320.2321,321.5351,321.5351,323.9939,return,0.7331,,71.22395833,,,,,,FBP-OG-81.png,0.4,1.2,38,0.5,0,0,0,37,1,,,,,,,,,,,,,,,,,,,,,,,,,,,,,,,,,,,,,,,,
,,,,,V3_031,21,Female,2024-10-21_17h02.23.957,jersey_experiment_5_v3,2023.2.2,Win32,85.47008547,,,,,,,,,,,,,,,,323.9943,325.5469,325.547,327.7117,return,1.0822,,99.21875,,,,,,FBP-PT-81.png,0.45,1.2,25,0.75,0,1,1,24,1,,,,,,,,,,,,,,,,,,,,,,,,,,,,,,,,,,,,,,,,
,,,,,V3_031,21,Female,2024-10-21_17h02.23.957,jersey_experiment_5_v3,2023.2.2,Win32,85.47008547,,,,,,,,,,,,,,,,327.712,329.2646,329.2647,331.9471,return,1.0717,,24.47916667,,,,,,FBP-YG-17.png,0.35,1.2,1,0.75,0,2,2,0,1,,,,,,,,,,,,,,,,,,,,,,,,,,,,,,,,,,,,,,,,
,,,,,V3_031,21,Female,2024-10-21_17h02.23.957,jersey_experiment_5_v3,2023.2.2,Win32,85.47008547,,,,,,,,,,,,,,,,331.9472,333.5001,333.5001,335.7708,return,0.7318,,80.98958333,,,,,,FBP-RB-91.png,0.45,1.2,60,0.75,0,3,3,59,1,,,,,,,,,,,,,,,,,,,,,,,,,,,,,,,,,,,,,,,,
,,,,,V3_031,21,Female,2024-10-21_17h02.23.957,jersey_experiment_5_v3,2023.2.2,Win32,85.47008547,,,,,,,,,,,,,,,,335.7711,337.3239,337.324,339.6298,return,0.8156,,52.34375,,,,,,FBP-RB-81.png,0.37,1.2,52,0.75,0,4,4,51,1,,,,,,,,,,,,,,,,,,,,,,,,,,,,,,,,,,,,,,,,
,,,,,V3_031,21,Female,2024-10-21_17h02.23.957,jersey_experiment_5_v3,2023.2.2,Win32,85.47008547,,,,,,,,,,,,,,,,339.6301,340.924,340.924,343.6888,return,1.2511,,75.26041667,,,,,,FBP-OG-81.png,0.43,1.2,39,0.5,0,5,5,38,1,,,,,,,,,,,,,,,,,,,,,,,,,,,,,,,,,,,,,,,,
,,,,,V3_031,21,Female,2024-10-21_17h02.23.957,jersey_experiment_5_v3,2023.2.2,Win32,85.47008547,,,,,,,,,,,,,,,,343.689,345.2418,345.2419,347.7595,return,0.7998,,56.90104167,,,,,,FBP-YG-18.png,0.37,1.2,7,0.75,0,6,6,6,1,,,,,,,,,,,,,,,,,,,,,,,,,,,,,,,,,,,,,,,,
,,,,,V3_031,21,Female,2024-10-21_17h02.23.957,jersey_experiment_5_v3,2023.2.2,Win32,85.47008547,,,,,,,,,,,,,,,,347.7597,349.3126,349.3126,351.595,return,0.8495,,33.984375,,,,,,FBP-PT-81.png,0.35,1.2,21,0.75,0,7,7,20,1,,,,,,,,,,,,,,,,,,,,,,,,,,,,,,,,,,,,,,,,
,,,,,V3_031,21,Female,2024-10-21_17h02.23.957,jersey_experiment_5_v3,2023.2.2,Win32,85.47008547,,,,,,,,,,,,,,,,351.5953,352.8892,352.8893,355.9245,return,0.8642,,41.015625,,,,,,FBP-OG-71.png,0.37,1.2,32,0.5,0,8,8,31,1,,,,,,,,,,,,,,,,,,,,,,,,,,,,,,,,,,,,,,,,
,,,,,V3_031,21,Female,2024-10-21_17h02.23.957,jersey_experiment_5_v3,2023.2.2,Win32,85.47008547,,,,,,,,,,,,,,,,355.9249,357.4775,357.4775,359.4541,return,0.8001,,46.22395833,,,,,,FBP-RB-81.png,0.35,1.2,51,0.75,0,9,9,50,1,,,,,,,,,,,,,,,,,,,,,,,,,,,,,,,,,,,,,,,,
,,,,,V3_031,21,Female,2024-10-21_17h02.23.957,jersey_experiment_5_v3,2023.2.2,Win32,85.47008547,,,,,,,,,,,,,,,,359.4544,360.7482,360.7482,366.1367,return,0.6744,,50.52083333,,,,,,FBP-OG-71.png,0.35,1.2,31,0.5,0,10,10,30,1,,,,,,,,,,,,,,,,,,,,,,,,,,,,,,,,,,,,,,,,
,,,,,V3_031,21,Female,2024-10-21_17h02.23.957,jersey_experiment_5_v3,2023.2.2,Win32,85.47008547,,,,,,,,,,,,,,,,366.1369,367.6898,367.6898,370.0426,return,0.7323,,75.390625,,,,,,FBP-PT-81.png,0.43,1.2,24,0.75,0,11,11,23,1,,,,,,,,,,,,,,,,,,,,,,,,,,,,,,,,,,,,,,,,
,,,,,V3_031,21,Female,2024-10-21_17h02.23.957,jersey_experiment_5_v3,2023.2.2,Win32,85.47008547,,,,,,,,,,,,,,,,370.0429,371.5957,371.5958,374.1252,return,0.659,,71.484375,,,,,,FBP-YG-18.png,0.4,1.2,8,0.75,0,12,12,7,1,,,,,,,,,,,,,,,,,,,,,,,,,,,,,,,,,,,,,,,,
,,,,,V3_031,21,Female,2024-10-21_17h02.23.957,jersey_experiment_5_v3,2023.2.2,Win32,85.47008547,,,,,,,,,,,,,,,,374.1255,375.6782,375.6782,378.0077,return,0.5822,,65.625,,,,,,FBP-PT-71.png,0.35,1.2,16,0.75,0,13,13,15,1,,,,,,,,,,,,,,,,,,,,,,,,,,,,,,,,,,,,,,,,
,,,,,V3_031,21,Female,2024-10-21_17h02.23.957,jersey_experiment_5_v3,2023.2.2,Win32,85.47008547,,,,,,,,,,,,,,,,378.0079,379.3019,379.3019,381.8313,return,0.6977,,25,,,,,,FBP-OG-91.png,0.35,1.2,41,0.5,0,14,14,40,1,,,,,,,,,,,,,,,,,,,,,,,,,,,,,,,,,,,,,,,,
,,,,,V3_031,21,Female,2024-10-21_17h02.23.957,jersey_experiment_5_v3,2023.2.2,Win32,85.47008547,,,,,,,,,,,,,,,,381.8317,383.3843,383.3844,385.2315,return,0.628,,28.77604167,,,,,,FBP-YG-18.png,0.35,1.2,6,0.75,0,15,15,5,1,,,,,,,,,,,,,,,,,,,,,,,,,,,,,,,,,,,,,,,,
,,,,,V3_031,21,Female,2024-10-21_17h02.23.957,jersey_experiment_5_v3,2023.2.2,Win32,85.47008547,,,,,,,,,,,,,,,,385.2316,386.7844,386.7844,389.3493,return,0.7361,,97.65625,,,,,,FBP-RB-81.png,0.45,1.2,55,0.75,0,16,16,54,1,,,,,,,,,,,,,,,,,,,,,,,,,,,,,,,,,,,,,,,,
,,,,,V3_031,21,Female,2024-10-21_17h02.23.957,jersey_experiment_5_v3,2023.2.2,Win32,85.47008547,,,,,,,,,,,,,,,,389.3496,390.9023,390.9023,392.7965,return,0.8321,,99.21875,,,,,,FBP-YG-18.png,0.45,1.2,10,0.75,0,17,17,9,1,,,,,,,,,,,,,,,,,,,,,,,,,,,,,,,,,,,,,,,,
,,,,,V3_031,21,Female,2024-10-21_17h02.23.957,jersey_experiment_5_v3,2023.2.2,Win32,85.47008547,,,,,,,,,,,,,,,,392.797,394.3495,394.3496,396.5378,return,0.639,,32.03125,,,,,,FBP-PT-91.png,0.35,1.2,26,0.75,0,18,18,25,1,,,,,,,,,,,,,,,,,,,,,,,,,,,,,,,,,,,,,,,,
,,,,,V3_031,21,Female,2024-10-21_17h02.23.957,jersey_experiment_5_v3,2023.2.2,Win32,85.47008547,,,,,,,,,,,,,,,,396.5381,398.091,398.091,400.1967,return,0.7363,,75.26041667,,,,,,FBP-YG-17.png,0.4,1.2,3,0.75,0,19,19,2,1,,,,,,,,,,,,,,,,,,,,,,,,,,,,,,,,,,,,,,,,
,,,,,V3_031,21,Female,2024-10-21_17h02.23.957,jersey_experiment_5_v3,2023.2.2,Win32,85.47008547,,,,,,,,,,,,,,,,400.197,401.7497,401.7498,403.9734,return,0.7142,,91.27604167,,,,,,FBP-RB-81.png,0.43,1.2,54,0.75,0,20,20,53,1,,,,,,,,,,,,,,,,,,,,,,,,,,,,,,,,,,,,,,,,
,,,,,V3_031,21,Female,2024-10-21_17h02.23.957,jersey_experiment_5_v3,2023.2.2,Win32,85.47008547,,,,,,,,,,,,,,,,403.9739,405.5266,405.5266,407.35,return,0.6781,,97.52604167,,,,,,FBP-RB-91.png,0.43,1.2,59,0.75,0,21,21,58,1,,,,,,,,,,,,,,,,,,,,,,,,,,,,,,,,,,,,,,,,
,,,,,V3_031,21,Female,2024-10-21_17h02.23.957,jersey_experiment_5_v3,2023.2.2,Win32,85.47008547,,,,,,,,,,,,,,,,407.3503,408.9029,408.903,410.6796,return,0.7356,,99.21875,,,,,,FBP-YG-19.png,0.4,1.2,13,0.75,0,22,22,12,1,,,,,,,,,,,,,,,,,,,,,,,,,,,,,,,,,,,,,,,,
,,,,,V3_031,21,Female,2024-10-21_17h02.23.957,jersey_experiment_5_v3,2023.2.2,Win32,85.47008547,,,,,,,,,,,,,,,,410.6798,412.2324,412.2325,415.5149,return,1.6847,,99.609375,,,,,,FBP-YG-19.png,0.43,1.2,14,0.75,0,23,23,13,1,,,,,,,,,,,,,,,,,,,,,,,,,,,,,,,,,,,,,,,,
,,,,,V3_031,21,Female,2024-10-21_17h02.23.957,jersey_experiment_5_v3,2023.2.2,Win32,85.47008547,,,,,,,,,,,,,,,,415.5152,417.068,417.0681,419.1504,return,0.9177,,96.875,,,,,,FBP-RB-71.png,0.35,1.2,46,0.75,0,24,24,45,1,,,,,,,,,,,,,,,,,,,,,,,,,,,,,,,,,,,,,,,,
,,,,,V3_031,21,Female,2024-10-21_17h02.23.957,jersey_experiment_5_v3,2023.2.2,Win32,85.47008547,,,,,,,,,,,,,,,,419.1507,420.7033,420.7033,422.0798,return,0.7296,,97.265625,,,,,,FBP-YG-17.png,0.43,1.2,4,0.75,0,25,25,3,1,,,,,,,,,,,,,,,,,,,,,,,,,,,,,,,,,,,,,,,,
,,,,,V3_031,21,Female,2024-10-21_17h02.23.957,jersey_experiment_5_v3,2023.2.2,Win32,85.47008547,,,,,,,,,,,,,,,,422.0801,423.6329,423.6329,425.5977,return,1.0122,,98.828125,,,,,,FBP-RB-71.png,0.45,1.2,50,0.75,0,26,26,49,1,,,,,,,,,,,,,,,,,,,,,,,,,,,,,,,,,,,,,,,,
,,,,,V3_031,21,Female,2024-10-21_17h02.23.957,jersey_experiment_5_v3,2023.2.2,Win32,85.47008547,,,,,,,,,,,,,,,,425.598,426.8919,426.892,429.6097,return,0.8232,,25.78125,,,,,,FBP-OG-81.png,0.37,1.2,37,0.5,0,27,27,36,1,,,,,,,,,,,,,,,,,,,,,,,,,,,,,,,,,,,,,,,,
,,,,,V3_031,21,Female,2024-10-21_17h02.23.957,jersey_experiment_5_v3,2023.2.2,Win32,85.47008547,,,,,,,,,,,,,,,,429.6101,430.9038,430.9039,433.8215,return,1.7103,,25.390625,,,,,,FBP-OG-81.png,0.35,1.2,36,0.5,0,28,28,35,1,,,,,,,,,,,,,,,,,,,,,,,,,,,,,,,,,,,,,,,,
,,,,,V3_031,21,Female,2024-10-21_17h02.23.957,jersey_experiment_5_v3,2023.2.2,Win32,85.47008547,,,,,,,,,,,,,,,,433.8217,435.3747,435.3747,437.5276,return,0.7588,,93.88020833,,,,,,FBP-RB-81.png,0.4,1.2,53,0.75,0,29,29,52,1,,,,,,,,,,,,,,,,,,,,,,,,,,,,,,,,,,,,,,,,
,,,,,V3_031,21,Female,2024-10-21_17h02.23.957,jersey_experiment_5_v3,2023.2.2,Win32,85.47008547,,,,,,,,,,,,,,,,437.5278,438.8217,438.8218,440.9747,return,0.6605,,84.375,,,,,,FBP-OG-91.png,0.43,1.2,44,0.5,0,30,30,43,1,,,,,,,,,,,,,,,,,,,,,,,,,,,,,,,,,,,,,,,,
,,,,,V3_031,21,Female,2024-10-21_17h02.23.957,jersey_experiment_5_v3,2023.2.2,Win32,85.47008547,,,,,,,,,,,,,,,,440.9749,442.5278,442.5278,444.7278,return,0.7586,,74.47916667,,,,,,FBP-RB-91.png,0.35,1.2,56,0.75,0,31,31,55,1,,,,,,,,,,,,,,,,,,,,,,,,,,,,,,,,,,,,,,,,
,,,,,V3_031,21,Female,2024-10-21_17h02.23.957,jersey_experiment_5_v3,2023.2.2,Win32,85.47008547,,,,,,,,,,,,,,,,444.7281,446.2808,446.2808,448.222,return,0.6378,,74.47916667,,,,,,FBP-RB-91.png,0.4,1.2,58,0.75,0,32,32,57,1,,,,,,,,,,,,,,,,,,,,,,,,,,,,,,,,,,,,,,,,
,,,,,V3_031,21,Female,2024-10-21_17h02.23.957,jersey_experiment_5_v3,2023.2.2,Win32,85.47008547,,,,,,,,,,,,,,,,448.2223,449.7751,449.7751,451.9634,return,0.6726,,36.97916667,,,,,,FBP-PT-81.png,0.37,1.2,22,0.75,0,33,33,21,1,,,,,,,,,,,,,,,,,,,,,,,,,,,,,,,,,,,,,,,,
,,,,,V3_031,21,Female,2024-10-21_17h02.23.957,jersey_experiment_5_v3,2023.2.2,Win32,85.47008547,,,,,,,,,,,,,,,,451.9636,453.5164,453.5164,455.5988,return,0.7865,,74.34895833,,,,,,FBP-PT-91.png,0.45,1.2,30,0.75,0,34,34,29,1,,,,,,,,,,,,,,,,,,,,,,,,,,,,,,,,,,,,,,,,
,,,,,V3_031,21,Female,2024-10-21_17h02.23.957,jersey_experiment_5_v3,2023.2.2,Win32,85.47008547,,,,,,,,,,,,,,,,455.5991,457.152,457.1521,458.9165,return,0.7145,,82.68229167,,,,,,FBP-PT-71.png,0.45,1.2,20,0.75,0,35,35,19,1,,,,,,,,,,,,,,,,,,,,,,,,,,,,,,,,,,,,,,,,
,,,,,V3_031,21,Female,2024-10-21_17h02.23.957,jersey_experiment_5_v3,2023.2.2,Win32,85.47008547,,,,,,,,,,,,,,,,458.9167,460.4696,460.4697,463.4227,return,0.7209,,91.66666667,,,,,,FBP-YG-18.png,0.43,1.2,9,0.75,0,36,36,8,1,,,,,,,,,,,,,,,,,,,,,,,,,,,,,,,,,,,,,,,,
,,,,,V3_031,21,Female,2024-10-21_17h02.23.957,jersey_experiment_5_v3,2023.2.2,Win32,85.47008547,,,,,,,,,,,,,,,,463.4228,464.7168,464.7169,467.0345,return,1.1559,,48.046875,,,,,,FBP-OG-91.png,0.4,1.2,43,0.5,0,37,37,42,1,,,,,,,,,,,,,,,,,,,,,,,,,,,,,,,,,,,,,,,,
,,,,,V3_031,21,Female,2024-10-21_17h02.23.957,jersey_experiment_5_v3,2023.2.2,Win32,85.47008547,,,,,,,,,,,,,,,,467.0346,468.5876,468.5876,470.6465,return,0.6148,,75.65104167,,,,,,FBP-PT-91.png,0.43,1.2,29,0.75,0,38,38,28,1,,,,,,,,,,,,,,,,,,,,,,,,,,,,,,,,,,,,,,,,
,,,,,V3_031,21,Female,2024-10-21_17h02.23.957,jersey_experiment_5_v3,2023.2.2,Win32,85.47008547,,,,,,,,,,,,,,,,470.6467,472.1994,472.1994,473.4937,return,0.5921,,61.97916667,,,,,,FBP-PT-71.png,0.37,1.2,17,0.75,0,39,39,16,1,,,,,,,,,,,,,,,,,,,,,,,,,,,,,,,,,,,,,,,,
,,,,,V3_031,21,Female,2024-10-21_17h02.23.957,jersey_experiment_5_v3,2023.2.2,Win32,85.47008547,,,,,,,,,,,,,,,,473.494,474.7878,474.7878,476.9997,return,0.7001,,99.34895833,,,,,,FBP-OG-71.png,0.45,1.2,35,0.5,0,40,40,34,1,,,,,,,,,,,,,,,,,,,,,,,,,,,,,,,,,,,,,,,,
,,,,,V3_031,21,Female,2024-10-21_17h02.23.957,jersey_experiment_5_v3,2023.2.2,Win32,85.47008547,,,,,,,,,,,,,,,,476.9999,478.5528,478.5529,480.0704,return,0.6895,,86.71875,,,,,,FBP-PT-71.png,0.4,1.2,18,0.75,0,41,41,17,1,,,,,,,,,,,,,,,,,,,,,,,,,,,,,,,,,,,,,,,,
,,,,,V3_031,21,Female,2024-10-21_17h02.23.957,jersey_experiment_5_v3,2023.2.2,Win32,85.47008547,,,,,,,,,,,,,,,,480.0706,481.3645,481.3645,483.6586,return,0.7782,,98.828125,,,,,,FBP-OG-81.png,0.45,1.2,40,0.5,0,42,42,39,1,,,,,,,,,,,,,,,,,,,,,,,,,,,,,,,,,,,,,,,,
,,,,,V3_031,21,Female,2024-10-21_17h02.23.957,jersey_experiment_5_v3,2023.2.2,Win32,85.47008547,,,,,,,,,,,,,,,,483.6588,485.2,485.2001,487.3058,return,0.65,,62.109375,,,,,,FBP-YG-19.png,0.35,1.2,11,0.75,0,43,43,10,1,,,,,,,,,,,,,,,,,,,,,,,,,,,,,,,,,,,,,,,,
,,,,,V3_031,21,Female,2024-10-21_17h02.23.957,jersey_experiment_5_v3,2023.2.2,Win32,85.47008547,,,,,,,,,,,,,,,,487.3062,488.6,488.6,490.8943,return,0.6226,,73.56770833,,,,,,FBP-OG-91.png,0.45,1.2,45,0.5,0,44,44,44,1,,,,,,,,,,,,,,,,,,,,,,,,,,,,,,,,,,,,,,,,
,,,,,V3_031,21,Female,2024-10-21_17h02.23.957,jersey_experiment_5_v3,2023.2.2,Win32,85.47008547,,,,,,,,,,,,,,,,490.8945,492.4474,492.4475,494.8944,return,0.6587,,62.76041667,,,,,,FBP-RB-91.png,0.37,1.2,57,0.75,0,45,45,56,1,,,,,,,,,,,,,,,,,,,,,,,,,,,,,,,,,,,,,,,,
,,,,,V3_031,21,Female,2024-10-21_17h02.23.957,jersey_experiment_5_v3,2023.2.2,Win32,85.47008547,,,,,,,,,,,,,,,,494.8948,496.4474,496.4475,498.6946,return,0.7245,,70.3125,,,,,,FBP-YG-19.png,0.37,1.2,12,0.75,0,46,46,11,1,,,,,,,,,,,,,,,,,,,,,,,,,,,,,,,,,,,,,,,,
,,,,,V3_031,21,Female,2024-10-21_17h02.23.957,jersey_experiment_5_v3,2023.2.2,Win32,85.47008547,,,,,,,,,,,,,,,,498.6948,499.9887,499.9888,502.0594,return,0.8396,,75.52083333,,,,,,FBP-OG-71.png,0.4,1.2,33,0.5,0,47,47,32,1,,,,,,,,,,,,,,,,,,,,,,,,,,,,,,,,,,,,,,,,
,,,,,V3_031,21,Female,2024-10-21_17h02.23.957,jersey_experiment_5_v3,2023.2.2,Win32,85.47008547,,,,,,,,,,,,,,,,502.0596,503.3537,503.3538,505.8948,return,0.7588,,36.71875,,,,,,FBP-OG-91.png,0.37,1.2,42,0.5,0,48,48,41,1,,,,,,,,,,,,,,,,,,,,,,,,,,,,,,,,,,,,,,,,
,,,,,V3_031,21,Female,2024-10-21_17h02.23.957,jersey_experiment_5_v3,2023.2.2,Win32,85.47008547,,,,,,,,,,,,,,,,505.8951,507.4478,507.448,509.7891,return,0.6697,,29.16666667,,,,,,FBP-YG-17.png,0.37,1.2,2,0.75,0,49,49,1,1,,,,,,,,,,,,,,,,,,,,,,,,,,,,,,,,,,,,,,,,
,,,,,V3_031,21,Female,2024-10-21_17h02.23.957,jersey_experiment_5_v3,2023.2.2,Win32,85.47008547,,,,,,,,,,,,,,,,509.7892,511.342,511.3421,513.9658,return,0.8602,,76.43229167,,,,,,FBP-PT-81.png,0.4,1.2,23,0.75,0,50,50,22,1,,,,,,,,,,,,,,,,,,,,,,,,,,,,,,,,,,,,,,,,
,,,,,V3_031,21,Female,2024-10-21_17h02.23.957,jersey_experiment_5_v3,2023.2.2,Win32,85.47008547,,,,,,,,,,,,,,,,513.9662,515.2599,515.26,517.0717,return,0.7898,,91.14583333,,,,,,FBP-OG-71.png,0.43,1.2,34,0.5,0,51,51,33,1,,,,,,,,,,,,,,,,,,,,,,,,,,,,,,,,,,,,,,,,
,,,,,V3_031,21,Female,2024-10-21_17h02.23.957,jersey_experiment_5_v3,2023.2.2,Win32,85.47008547,,,,,,,,,,,,,,,,517.072,518.6247,518.6247,520.9541,return,0.7061,,96.35416667,,,,,,FBP-PT-91.png,0.37,1.2,27,0.75,0,52,52,26,1,,,,,,,,,,,,,,,,,,,,,,,,,,,,,,,,,,,,,,,,
,,,,,V3_031,21,Female,2024-10-21_17h02.23.957,jersey_experiment_5_v3,2023.2.2,Win32,85.47008547,,,,,,,,,,,,,,,,520.9543,522.4956,522.4956,523.8484,return,0.7224,,99.08854167,,,,,,FBP-RB-71.png,0.37,1.2,47,0.75,0,53,53,46,1,,,,,,,,,,,,,,,,,,,,,,,,,,,,,,,,,,,,,,,,
,,,,,V3_031,21,Female,2024-10-21_17h02.23.957,jersey_experiment_5_v3,2023.2.2,Win32,85.47008547,,,,,,,,,,,,,,,,523.8487,525.4015,525.4015,527.1663,return,0.6491,,93.09895833,,,,,,FBP-PT-91.png,0.4,1.2,28,0.75,0,54,54,27,1,,,,,,,,,,,,,,,,,,,,,,,,,,,,,,,,,,,,,,,,
,,,,,V3_031,21,Female,2024-10-21_17h02.23.957,jersey_experiment_5_v3,2023.2.2,Win32,85.47008547,,,,,,,,,,,,,,,,527.1666,528.7193,528.7193,532.5193,return,2.5708,,75,,,,,,FBP-PT-71.png,0.43,1.2,19,0.75,0,55,55,18,1,,,,,,,,,,,,,,,,,,,,,,,,,,,,,,,,,,,,,,,,
,,,,,V3_031,21,Female,2024-10-21_17h02.23.957,jersey_experiment_5_v3,2023.2.2,Win32,85.47008547,,,,,,,,,,,,,,,,532.5196,534.0724,534.0724,536.143,return,0.7167,,93.48958333,,,,,,FBP-RB-71.png,0.43,1.2,49,0.75,0,56,56,48,1,,,,,,,,,,,,,,,,,,,,,,,,,,,,,,,,,,,,,,,,
,,,,,V3_031,21,Female,2024-10-21_17h02.23.957,jersey_experiment_5_v3,2023.2.2,Win32,85.47008547,,,,,,,,,,,,,,,,536.1433,537.6962,537.6962,539.9666,return,1.0975,,99.47916667,,,,,,FBP-YG-19.png,0.45,1.2,15,0.75,0,57,57,14,1,,,,,,,,,,,,,,,,,,,,,,,,,,,,,,,,,,,,,,,,
,,,,,V3_031,21,Female,2024-10-21_17h02.23.957,jersey_experiment_5_v3,2023.2.2,Win32,85.47008547,,,,,,,,,,,,,,,,539.9669,541.5197,541.5197,543.3903,return,0.713,,97.78645833,,,,,,FBP-YG-17.png,0.45,1.2,5,0.75,0,58,58,4,1,,,,,,,,,,,,,,,,,,,,,,,,,,,,,,,,,,,,,,,,
,,,,,V3_031,21,Female,2024-10-21_17h02.23.957,jersey_experiment_5_v3,2023.2.2,Win32,85.47008547,,,,,,,,,,,,,,,,543.3906,544.9435,544.9435,547.0846,return,0.7302,,77.99479167,,,,,,FBP-RB-71.png,0.4,1.2,48,0.75,0,59,59,47,1,,,,,,,,,,,,,,,,,,,,,,,,,,,,,,,,,,,,,,,,
,,,,,V3_031,21,Female,2024-10-21_17h02.23.957,jersey_experiment_5_v3,2023.2.2,Win32,85.47008547,,,,,,,,,,,,,,,,,,,,,,,,,,,,,,,,,,,,,,,547.0848,667.0774,,,,,,,,,,,,,,,,,,,,,,,,,,,,,,,,,,,,,,
,,,,,V3_031,21,Female,2024-10-21_17h02.23.957,jersey_experiment_5_v3,2023.2.2,Win32,85.47008547,,,,,,,,,,,,,,,,,,,,,,,,,,,,,,,,,,,,,,,,,667.0775,716.5499,return,49.4672,,,,,,,,,,,,,,,,,,,,,,,,,,,,,,,,,,
,,,,,V3_031,21,Female,2024-10-21_17h02.23.957,jersey_experiment_5_v3,2023.2.2,Win32,85.47008547,,,,,,,,,,,,,,,,716.5517,717.8439,717.844,721.4558,return,1.5188,,75.52083333,,,,,,FBP-RB-17.png,0.45,1.2,50,0.5,,,,,,,,,,,,,0,0,0,49,1,,,,,,,,,,,,,,,,,,,,,,,,,,,,
,,,,,V3_031,21,Female,2024-10-21_17h02.23.957,jersey_experiment_5_v3,2023.2.2,Win32,85.47008547,,,,,,,,,,,,,,,,721.456,722.75,722.75,724.9971,return,1.2399,,74.21875,,,,,,FBP-RB-19.png,0.4,1.2,58,0.5,,,,,,,,,,,,,0,1,1,57,1,,,,,,,,,,,,,,,,,,,,,,,,,,,,
,,,,,V3_031,21,Female,2024-10-21_17h02.23.957,jersey_experiment_5_v3,2023.2.2,Win32,85.47008547,,,,,,,,,,,,,,,,724.9976,726.5501,726.5501,728.2325,return,0.6518,,82.29166667,,,,,,FBP-OG-18.png,0.45,1.2,40,0.75,,,,,,,,,,,,,0,2,2,39,1,,,,,,,,,,,,,,,,,,,,,,,,,,,,
,,,,,V3_031,21,Female,2024-10-21_17h02.23.957,jersey_experiment_5_v3,2023.2.2,Win32,85.47008547,,,,,,,,,,,,,,,,728.2326,729.5267,729.5267,731.1974,return,0.6978,,81.11979167,,,,,,FBP-YG-81.png,0.4,1.2,8,0.5,,,,,,,,,,,,,0,3,3,7,1,,,,,,,,,,,,,,,,,,,,,,,,,,,,
,,,,,V3_031,21,Female,2024-10-21_17h02.23.957,jersey_experiment_5_v3,2023.2.2,Win32,85.47008547,,,,,,,,,,,,,,,,731.1976,732.4915,732.4915,735.374,return,1.1867,,96.74479167,,,,,,FBP-PT-19.png,0.45,1.2,30,0.5,,,,,,,,,,,,,0,4,4,29,1,,,,,,,,,,,,,,,,,,,,,,,,,,,,
,,,,,V3_031,21,Female,2024-10-21_17h02.23.957,jersey_experiment_5_v3,2023.2.2,Win32,85.47008547,,,,,,,,,,,,,,,,735.3742,736.6682,736.6683,738.9977,return,1.2548,,86.45833333,,,,,,FBP-RB-18.png,0.4,1.2,53,0.5,,,,,,,,,,,,,0,5,5,52,1,,,,,,,,,,,,,,,,,,,,,,,,,,,,
,,,,,V3_031,21,Female,2024-10-21_17h02.23.957,jersey_experiment_5_v3,2023.2.2,Win32,85.47008547,,,,,,,,,,,,,,,,738.9979,740.2919,740.2919,742.5743,return,0.8552,,75.13020833,,,,,,FBP-RB-18.png,0.37,1.2,52,0.5,,,,,,,,,,,,,0,6,6,51,1,,,,,,,,,,,,,,,,,,,,,,,,,,,,
,,,,,V3_031,21,Female,2024-10-21_17h02.23.957,jersey_experiment_5_v3,2023.2.2,Win32,85.47008547,,,,,,,,,,,,,,,,742.5747,743.8684,743.8684,746.598,return,0.9957,,98.56770833,,,,,,FBP-YG-71.png,0.45,1.2,5,0.5,,,,,,,,,,,,,0,7,7,4,1,,,,,,,,,,,,,,,,,,,,,,,,,,,,
,,,,,V3_031,21,Female,2024-10-21_17h02.23.957,jersey_experiment_5_v3,2023.2.2,Win32,85.47008547,,,,,,,,,,,,,,,,746.5983,747.8921,747.8921,751.151,return,0.8139,,31.77083333,,,,,,FBP-PT-19.png,0.35,1.2,26,0.5,,,,,,,,,,,,,0,8,8,25,1,,,,,,,,,,,,,,,,,,,,,,,,,,,,
,,,,,V3_031,21,Female,2024-10-21_17h02.23.957,jersey_experiment_5_v3,2023.2.2,Win32,85.47008547,,,,,,,,,,,,,,,,751.1513,752.7041,752.7042,754.998,return,0.8072,,27.08333333,,,,,,FBP-OG-17.png,0.35,1.2,31,0.75,,,,,,,,,,,,,0,9,9,30,1,,,,,,,,,,,,,,,,,,,,,,,,,,,,
,,,,,V3_031,21,Female,2024-10-21_17h02.23.957,jersey_experiment_5_v3,2023.2.2,Win32,85.47008547,,,,,,,,,,,,,,,,754.9983,756.2925,756.2925,759.422,return,0.7844,,75.390625,,,,,,FBP-YG-91.png,0.4,1.2,13,0.5,,,,,,,,,,,,,0,10,10,12,1,,,,,,,,,,,,,,,,,,,,,,,,,,,,
,,,,,V3_031,21,Female,2024-10-21_17h02.23.957,jersey_experiment_5_v3,2023.2.2,Win32,85.47008547,,,,,,,,,,,,,,,,759.4222,760.7161,760.7162,762.3751,return,0.7088,,80.59895833,,,,,,FBP-RB-17.png,0.4,1.2,48,0.5,,,,,,,,,,,,,0,11,11,47,1,,,,,,,,,,,,,,,,,,,,,,,,,,,,
,,,,,V3_031,21,Female,2024-10-21_17h02.23.957,jersey_experiment_5_v3,2023.2.2,Win32,85.47008547,,,,,,,,,,,,,,,,762.3753,763.6692,763.6692,765.2221,return,0.6306,,91.92708333,,,,,,FBP-YG-91.png,0.43,1.2,14,0.5,,,,,,,,,,,,,0,12,12,13,1,,,,,,,,,,,,,,,,,,,,,,,,,,,,
,,,,,V3_031,21,Female,2024-10-21_17h02.23.957,jersey_experiment_5_v3,2023.2.2,Win32,85.47008547,,,,,,,,,,,,,,,,765.2223,766.7752,766.7753,768.9751,return,0.5958,,75.390625,,,,,,FBP-OG-17.png,0.37,1.2,32,0.75,,,,,,,,,,,,,0,13,13,31,1,,,,,,,,,,,,,,,,,,,,,,,,,,,,
,,,,,V3_031,21,Female,2024-10-21_17h02.23.957,jersey_experiment_5_v3,2023.2.2,Win32,85.47008547,,,,,,,,,,,,,,,,768.9753,770.5282,770.5283,772.4459,return,0.5809,,66.40625,,,,,,FBP-OG-18.png,0.35,1.2,36,0.75,,,,,,,,,,,,,0,14,14,35,1,,,,,,,,,,,,,,,,,,,,,,,,,,,,
,,,,,V3_031,21,Female,2024-10-21_17h02.23.957,jersey_experiment_5_v3,2023.2.2,Win32,85.47008547,,,,,,,,,,,,,,,,772.4462,773.7401,773.7402,776.2696,return,0.7867,,74.86979167,,,,,,FBP-PT-18.png,0.37,1.2,22,0.5,,,,,,,,,,,,,0,15,15,21,1,,,,,,,,,,,,,,,,,,,,,,,,,,,,
,,,,,V3_031,21,Female,2024-10-21_17h02.23.957,jersey_experiment_5_v3,2023.2.2,Win32,85.47008547,,,,,,,,,,,,,,,,776.2698,777.564,777.564,779.0226,return,0.6695,,73.30729167,,,,,,FBP-PT-17.png,0.37,1.2,17,0.5,,,,,,,,,,,,,0,16,16,16,1,,,,,,,,,,,,,,,,,,,,,,,,,,,,
,,,,,V3_031,21,Female,2024-10-21_17h02.23.957,jersey_experiment_5_v3,2023.2.2,Win32,85.47008547,,,,,,,,,,,,,,,,779.0229,780.3168,780.3168,781.9285,return,0.7225,,90.234375,,,,,,FBP-YG-91.png,0.45,1.2,15,0.5,,,,,,,,,,,,,0,17,17,14,1,,,,,,,,,,,,,,,,,,,,,,,,,,,,
,,,,,V3_031,21,Female,2024-10-21_17h02.23.957,jersey_experiment_5_v3,2023.2.2,Win32,85.47008547,,,,,,,,,,,,,,,,781.9289,783.2227,783.2228,785.2228,return,0.6167,,94.40104167,,,,,,FBP-YG-71.png,0.43,1.2,4,0.5,,,,,,,,,,,,,0,18,18,3,1,,,,,,,,,,,,,,,,,,,,,,,,,,,,
,,,,,V3_031,21,Female,2024-10-21_17h02.23.957,jersey_experiment_5_v3,2023.2.2,Win32,85.47008547,,,,,,,,,,,,,,,,785.223,786.517,786.5172,789.4466,return,1.0273,,50.26041667,,,,,,FBP-RB-17.png,0.35,1.2,46,0.5,,,,,,,,,,,,,0,19,19,45,1,,,,,,,,,,,,,,,,,,,,,,,,,,,,
,,,,,V3_031,21,Female,2024-10-21_17h02.23.957,jersey_experiment_5_v3,2023.2.2,Win32,85.47008547,,,,,,,,,,,,,,,,789.4468,790.7408,790.7408,792.1172,return,0.6894,,50.13020833,,,,,,FBP-RB-19.png,0.37,1.2,57,0.5,,,,,,,,,,,,,0,20,20,56,1,,,,,,,,,,,,,,,,,,,,,,,,,,,,
,,,,,V3_031,21,Female,2024-10-21_17h02.23.957,jersey_experiment_5_v3,2023.2.2,Win32,85.47008547,,,,,,,,,,,,,,,,792.1175,793.6702,793.6702,796.1643,return,0.8676,,97.65625,,,,,,FBP-OG-17.png,0.45,1.2,35,0.75,,,,,,,,,,,,,0,21,21,34,1,,,,,,,,,,,,,,,,,,,,,,,,,,,,
,,,,,V3_031,21,Female,2024-10-21_17h02.23.957,jersey_experiment_5_v3,2023.2.2,Win32,85.47008547,,,,,,,,,,,,,,,,796.1646,797.4587,797.4587,800.247,return,0.6522,,75.390625,,,,,,FBP-RB-19.png,0.35,1.2,56,0.5,,,,,,,,,,,,,0,22,22,55,1,,,,,,,,,,,,,,,,,,,,,,,,,,,,
,,,,,V3_031,21,Female,2024-10-21_17h02.23.957,jersey_experiment_5_v3,2023.2.2,Win32,85.47008547,,,,,,,,,,,,,,,,800.2472,801.5411,801.5412,804.0589,return,0.6245,,82.421875,,,,,,FBP-PT-18.png,0.43,1.2,24,0.5,,,,,,,,,,,,,0,23,23,23,1,,,,,,,,,,,,,,,,,,,,,,,,,,,,
,,,,,V3_031,21,Female,2024-10-21_17h02.23.957,jersey_experiment_5_v3,2023.2.2,Win32,85.47008547,,,,,,,,,,,,,,,,804.0592,805.6119,805.6119,807.1649,return,0.6119,,83.33333333,,,,,,FBP-OG-19.png,0.4,1.2,43,0.75,,,,,,,,,,,,,0,24,24,42,1,,,,,,,,,,,,,,,,,,,,,,,,,,,,
,,,,,V3_031,21,Female,2024-10-21_17h02.23.957,jersey_experiment_5_v3,2023.2.2,Win32,85.47008547,,,,,,,,,,,,,,,,807.1651,808.4591,808.4591,810.2709,return,0.6928,,81.51041667,,,,,,FBP-PT-18.png,0.4,1.2,23,0.5,,,,,,,,,,,,,0,25,25,22,1,,,,,,,,,,,,,,,,,,,,,,,,,,,,
,,,,,V3_031,21,Female,2024-10-21_17h02.23.957,jersey_experiment_5_v3,2023.2.2,Win32,85.47008547,,,,,,,,,,,,,,,,810.2712,811.565,811.565,813.071,return,0.6117,,84.50520833,,,,,,FBP-PT-19.png,0.4,1.2,28,0.5,,,,,,,,,,,,,0,26,26,27,1,,,,,,,,,,,,,,,,,,,,,,,,,,,,
,,,,,V3_031,21,Female,2024-10-21_17h02.23.957,jersey_experiment_5_v3,2023.2.2,Win32,85.47008547,,,,,,,,,,,,,,,,813.0713,814.3652,814.3653,815.7652,return,0.6553,,82.16145833,,,,,,FBP-YG-91.png,0.37,1.2,12,0.5,,,,,,,,,,,,,0,27,27,11,1,,,,,,,,,,,,,,,,,,,,,,,,,,,,
,,,,,V3_031,21,Female,2024-10-21_17h02.23.957,jersey_experiment_5_v3,2023.2.2,Win32,85.47008547,,,,,,,,,,,,,,,,815.7656,817.0594,817.0594,818.5653,return,0.8041,,81.51041667,,,,,,FBP-PT-17.png,0.4,1.2,18,0.5,,,,,,,,,,,,,0,28,28,17,1,,,,,,,,,,,,,,,,,,,,,,,,,,,,
,,,,,V3_031,21,Female,2024-10-21_17h02.23.957,jersey_experiment_5_v3,2023.2.2,Win32,85.47008547,,,,,,,,,,,,,,,,818.5656,819.8595,819.8595,821.989,return,0.62,,79.94791667,,,,,,FBP-YG-71.png,0.4,1.2,3,0.5,,,,,,,,,,,,,0,29,29,2,1,,,,,,,,,,,,,,,,,,,,,,,,,,,,
,,,,,V3_031,21,Female,2024-10-21_17h02.23.957,jersey_experiment_5_v3,2023.2.2,Win32,85.47008547,,,,,,,,,,,,,,,,821.9892,823.2832,823.2832,827.095,return,0.6416,,62.23958333,,,,,,FBP-YG-81.png,0.37,1.2,7,0.5,,,,,,,,,,,,,0,30,30,6,1,,,,,,,,,,,,,,,,,,,,,,,,,,,,
,,,,,V3_031,21,Female,2024-10-21_17h02.23.957,jersey_experiment_5_v3,2023.2.2,Win32,85.47008547,,,,,,,,,,,,,,,,827.0953,828.3892,828.3893,829.9422,return,0.5717,,74.86979167,,,,,,FBP-YG-81.png,0.43,1.2,9,0.5,,,,,,,,,,,,,0,31,31,8,1,,,,,,,,,,,,,,,,,,,,,,,,,,,,
,,,,,V3_031,21,Female,2024-10-21_17h02.23.957,jersey_experiment_5_v3,2023.2.2,Win32,85.47008547,,,,,,,,,,,,,,,,829.9425,831.4951,831.4952,834.2483,return,0.7111,,99.47916667,,,,,,FBP-OG-19.png,0.45,1.2,45,0.75,,,,,,,,,,,,,0,32,32,44,1,,,,,,,,,,,,,,,,,,,,,,,,,,,,
,,,,,V3_031,21,Female,2024-10-21_17h02.23.957,jersey_experiment_5_v3,2023.2.2,Win32,85.47008547,,,,,,,,,,,,,,,,834.2486,835.5424,835.5424,837.8955,return,1.0731,,88.41145833,,,,,,FBP-RB-18.png,0.35,1.2,51,0.5,,,,,,,,,,,,,0,33,33,50,1,,,,,,,,,,,,,,,,,,,,,,,,,,,,
,,,,,V3_031,21,Female,2024-10-21_17h02.23.957,jersey_experiment_5_v3,2023.2.2,Win32,85.47008547,,,,,,,,,,,,,,,,837.8958,839.1896,839.1896,841.1309,return,0.6834,,80.859375,,,,,,FBP-YG-81.png,0.35,1.2,6,0.5,,,,,,,,,,,,,0,34,34,5,1,,,,,,,,,,,,,,,,,,,,,,,,,,,,
,,,,,V3_031,21,Female,2024-10-21_17h02.23.957,jersey_experiment_5_v3,2023.2.2,Win32,85.47008547,,,,,,,,,,,,,,,,841.1312,842.425,842.4251,843.978,return,0.6271,,74.47916667,,,,,,FBP-YG-71.png,0.37,1.2,2,0.5,,,,,,,,,,,,,0,35,35,1,1,,,,,,,,,,,,,,,,,,,,,,,,,,,,
,,,,,V3_031,21,Female,2024-10-21_17h02.23.957,jersey_experiment_5_v3,2023.2.2,Win32,85.47008547,,,,,,,,,,,,,,,,843.9782,845.5312,845.5312,846.7313,return,0.5646,,71.61458333,,,,,,FBP-OG-18.png,0.37,1.2,37,0.75,,,,,,,,,,,,,0,36,36,36,1,,,,,,,,,,,,,,,,,,,,,,,,,,,,
,,,,,V3_031,21,Female,2024-10-21_17h02.23.957,jersey_experiment_5_v3,2023.2.2,Win32,85.47008547,,,,,,,,,,,,,,,,846.7315,848.2843,848.2843,849.6723,return,0.6048,,75.78125,,,,,,FBP-OG-18.png,0.43,1.2,39,0.75,,,,,,,,,,,,,0,37,37,38,1,,,,,,,,,,,,,,,,,,,,,,,,,,,,
,,,,,V3_031,21,Female,2024-10-21_17h02.23.957,jersey_experiment_5_v3,2023.2.2,Win32,85.47008547,,,,,,,,,,,,,,,,849.6726,850.9668,850.9668,854.296,return,1.4173,,37.76041667,,,,,,FBP-YG-91.png,0.35,1.2,11,0.5,,,,,,,,,,,,,0,38,38,10,1,,,,,,,,,,,,,,,,,,,,,,,,,,,,
,,,,,V3_031,21,Female,2024-10-21_17h02.23.957,jersey_experiment_5_v3,2023.2.2,Win32,85.47008547,,,,,,,,,,,,,,,,854.2963,855.5903,855.5903,857.6256,return,0.6378,,75.78125,,,,,,FBP-RB-17.png,0.43,1.2,49,0.5,,,,,,,,,,,,,0,39,39,48,1,,,,,,,,,,,,,,,,,,,,,,,,,,,,
,,,,,V3_031,21,Female,2024-10-21_17h02.23.957,jersey_experiment_5_v3,2023.2.2,Win32,85.47008547,,,,,,,,,,,,,,,,857.6258,859.1786,859.1787,860.567,return,0.614,,65.234375,,,,,,FBP-OG-18.png,0.4,1.2,38,0.75,,,,,,,,,,,,,0,40,40,37,1,,,,,,,,,,,,,,,,,,,,,,,,,,,,
,,,,,V3_031,21,Female,2024-10-21_17h02.23.957,jersey_experiment_5_v3,2023.2.2,Win32,85.47008547,,,,,,,,,,,,,,,,860.5671,861.8611,861.8611,863.4845,return,0.6598,,76.43229167,,,,,,FBP-PT-19.png,0.43,1.2,29,0.5,,,,,,,,,,,,,0,41,41,28,1,,,,,,,,,,,,,,,,,,,,,,,,,,,,
,,,,,V3_031,21,Female,2024-10-21_17h02.23.957,jersey_experiment_5_v3,2023.2.2,Win32,85.47008547,,,,,,,,,,,,,,,,863.4848,865.0378,865.0379,866.4612,return,0.659,,87.890625,,,,,,FBP-OG-19.png,0.43,1.2,44,0.75,,,,,,,,,,,,,0,42,42,43,1,,,,,,,,,,,,,,,,,,,,,,,,,,,,
,,,,,V3_031,21,Female,2024-10-21_17h02.23.957,jersey_experiment_5_v3,2023.2.2,Win32,85.47008547,,,,,,,,,,,,,,,,866.4614,867.7555,867.7555,869.2261,return,0.5882,,94.01041667,,,,,,FBP-PT-17.png,0.43,1.2,19,0.5,,,,,,,,,,,,,0,43,43,18,1,,,,,,,,,,,,,,,,,,,,,,,,,,,,
,,,,,V3_031,21,Female,2024-10-21_17h02.23.957,jersey_experiment_5_v3,2023.2.2,Win32,85.47008547,,,,,,,,,,,,,,,,869.2263,870.7791,870.7791,872.6615,return,0.6079,,29.6875,,,,,,FBP-OG-19.png,0.37,1.2,42,0.75,,,,,,,,,,,,,0,44,44,41,1,,,,,,,,,,,,,,,,,,,,,,,,,,,,
,,,,,V3_031,21,Female,2024-10-21_17h02.23.957,jersey_experiment_5_v3,2023.2.2,Win32,85.47008547,,,,,,,,,,,,,,,,872.6619,873.9557,873.9557,875.9792,return,0.5669,,49.86979167,,,,,,FBP-PT-17.png,0.35,1.2,16,0.5,,,,,,,,,,,,,0,45,45,15,1,,,,,,,,,,,,,,,,,,,,,,,,,,,,
,,,,,V3_031,21,Female,2024-10-21_17h02.23.957,jersey_experiment_5_v3,2023.2.2,Win32,85.47008547,,,,,,,,,,,,,,,,875.9794,877.5322,877.5322,879.8382,return,0.565,,37.109375,,,,,,FBP-OG-19.png,0.35,1.2,41,0.75,,,,,,,,,,,,,0,46,46,40,1,,,,,,,,,,,,,,,,,,,,,,,,,,,,
,,,,,V3_031,21,Female,2024-10-21_17h02.23.957,jersey_experiment_5_v3,2023.2.2,Win32,85.47008547,,,,,,,,,,,,,,,,879.8384,881.1324,881.1324,882.6148,return,0.593,,76.04166667,,,,,,FBP-RB-18.png,0.45,1.2,55,0.5,,,,,,,,,,,,,0,47,47,54,1,,,,,,,,,,,,,,,,,,,,,,,,,,,,
,,,,,V3_031,21,Female,2024-10-21_17h02.23.957,jersey_experiment_5_v3,2023.2.2,Win32,85.47008547,,,,,,,,,,,,,,,,882.615,883.909,883.909,885.1913,return,0.6012,,75.13020833,,,,,,FBP-RB-19.png,0.45,1.2,60,0.5,,,,,,,,,,,,,0,48,48,59,1,,,,,,,,,,,,,,,,,,,,,,,,,,,,
,,,,,V3_031,21,Female,2024-10-21_17h02.23.957,jersey_experiment_5_v3,2023.2.2,Win32,85.47008547,,,,,,,,,,,,,,,,885.1916,886.4854,886.4856,887.7091,return,0.6356,,75.13020833,,,,,,FBP-RB-18.png,0.43,1.2,54,0.5,,,,,,,,,,,,,0,49,49,53,1,,,,,,,,,,,,,,,,,,,,,,,,,,,,
,,,,,V3_031,21,Female,2024-10-21_17h02.23.957,jersey_experiment_5_v3,2023.2.2,Win32,85.47008547,,,,,,,,,,,,,,,,887.7094,889.2623,889.2623,892.2974,return,0.6249,,75.26041667,,,,,,FBP-OG-17.png,0.4,1.2,33,0.75,,,,,,,,,,,,,0,50,50,32,1,,,,,,,,,,,,,,,,,,,,,,,,,,,,
,,,,,V3_031,21,Female,2024-10-21_17h02.23.957,jersey_experiment_5_v3,2023.2.2,Win32,85.47008547,,,,,,,,,,,,,,,,892.2977,893.5917,893.5917,894.8623,return,0.6459,,74.08854167,,,,,,FBP-RB-19.png,0.43,1.2,59,0.5,,,,,,,,,,,,,0,51,51,58,1,,,,,,,,,,,,,,,,,,,,,,,,,,,,
,,,,,V3_031,21,Female,2024-10-21_17h02.23.957,jersey_experiment_5_v3,2023.2.2,Win32,85.47008547,,,,,,,,,,,,,,,,894.8627,896.1564,896.1565,897.886,return,0.9387,,73.828125,,,,,,FBP-RB-17.png,0.37,1.2,47,0.5,,,,,,,,,,,,,0,52,52,46,1,,,,,,,,,,,,,,,,,,,,,,,,,,,,
,,,,,V3_031,21,Female,2024-10-21_17h02.23.957,jersey_experiment_5_v3,2023.2.2,Win32,85.47008547,,,,,,,,,,,,,,,,897.8863,899.4391,899.4391,901.0037,return,0.7073,,75.390625,,,,,,FBP-OG-17.png,0.43,1.2,34,0.75,,,,,,,,,,,,,0,53,53,33,1,,,,,,,,,,,,,,,,,,,,,,,,,,,,
,,,,,V3_031,21,Female,2024-10-21_17h02.23.957,jersey_experiment_5_v3,2023.2.2,Win32,85.47008547,,,,,,,,,,,,,,,,901.0039,902.2979,902.2979,903.9333,return,0.6617,,91.40625,,,,,,FBP-PT-17.png,0.45,1.2,20,0.5,,,,,,,,,,,,,0,54,54,19,1,,,,,,,,,,,,,,,,,,,,,,,,,,,,
,,,,,V3_031,21,Female,2024-10-21_17h02.23.957,jersey_experiment_5_v3,2023.2.2,Win32,85.47008547,,,,,,,,,,,,,,,,903.9336,905.2274,905.2274,906.8392,return,0.6249,,61.06770833,,,,,,FBP-YG-71.png,0.35,1.2,1,0.5,,,,,,,,,,,,,0,55,55,0,1,,,,,,,,,,,,,,,,,,,,,,,,,,,,
,,,,,V3_031,21,Female,2024-10-21_17h02.23.957,jersey_experiment_5_v3,2023.2.2,Win32,85.47008547,,,,,,,,,,,,,,,,906.8394,908.1334,908.1334,909.557,return,0.6896,,61.97916667,,,,,,FBP-PT-19.png,0.37,1.2,27,0.5,,,,,,,,,,,,,0,56,56,26,1,,,,,,,,,,,,,,,,,,,,,,,,,,,,
,,,,,V3_031,21,Female,2024-10-21_17h02.23.957,jersey_experiment_5_v3,2023.2.2,Win32,85.47008547,,,,,,,,,,,,,,,,909.5573,910.8512,910.8512,912.7571,return,0.7022,,95.18229167,,,,,,FBP-YG-81.png,0.45,1.2,10,0.5,,,,,,,,,,,,,0,57,57,9,1,,,,,,,,,,,,,,,,,,,,,,,,,,,,
,,,,,V3_031,21,Female,2024-10-21_17h02.23.957,jersey_experiment_5_v3,2023.2.2,Win32,85.47008547,,,,,,,,,,,,,,,,912.7573,914.0513,914.0513,915.6866,return,0.5949,,98.4375,,,,,,FBP-PT-18.png,0.45,1.2,25,0.5,,,,,,,,,,,,,0,58,58,24,1,,,,,,,,,,,,,,,,,,,,,,,,,,,,
,,,,,V3_031,21,Female,2024-10-21_17h02.23.957,jersey_experiment_5_v3,2023.2.2,Win32,85.47008547,,,,,,,,,,,,,,,,915.6869,916.9809,916.9809,918.7339,return,0.6124,,25.390625,,,,,,FBP-PT-18.png,0.35,1.2,21,0.5,,,,,,,,,,,,,0,59,59,20,1,,,,,,,,,,,,,,,,,,,,,,,,,,,,
,,,,,V3_031,21,Female,2024-10-21_17h02.23.957,jersey_experiment_5_v3,2023.2.2,Win32,85.47008547,,,,,,,,,,,,,,,,918.7357,920.0279,920.028,921.3692,return,0.5809,,36.19791667,,,,,,FBP-YG-19.png,0.37,1.2,12,0.5,,,,,,,,,,,,,,,,,,0,0,0,11,1,,,,,,,,,,,,,,,,,,,,,,,
,,,,,V3_031,21,Female,2024-10-21_17h02.23.957,jersey_experiment_5_v3,2023.2.2,Win32,85.47008547,,,,,,,,,,,,,,,,921.3695,922.6635,922.6635,924.0753,return,0.5889,,41.40625,,,,,,FBP-PT-71.png,0.37,1.2,17,0.5,,,,,,,,,,,,,,,,,,0,1,1,16,1,,,,,,,,,,,,,,,,,,,,,,,
,,,,,V3_031,21,Female,2024-10-21_17h02.23.957,jersey_experiment_5_v3,2023.2.2,Win32,85.47008547,,,,,,,,,,,,,,,,924.0755,925.3694,925.3695,927.087,return,0.6347,,74.08854167,,,,,,FBP-PT-81.png,0.45,1.2,25,0.5,,,,,,,,,,,,,,,,,,0,2,2,24,1,,,,,,,,,,,,,,,,,,,,,,,
,,,,,V3_031,21,Female,2024-10-21_17h02.23.957,jersey_experiment_5_v3,2023.2.2,Win32,85.47008547,,,,,,,,,,,,,,,,927.0872,928.3813,928.3815,930.2165,return,0.6123,,32.94270833,,,,,,FBP-RB-71.png,0.35,1.2,46,0.5,,,,,,,,,,,,,,,,,,0,3,3,45,1,,,,,,,,,,,,,,,,,,,,,,,
,,,,,V3_031,21,Female,2024-10-21_17h02.23.957,jersey_experiment_5_v3,2023.2.2,Win32,85.47008547,,,,,,,,,,,,,,,,930.2168,931.5107,931.5107,933.0637,return,0.5682,,75,,,,,,FBP-PT-71.png,0.4,1.2,18,0.5,,,,,,,,,,,,,,,,,,0,4,4,17,1,,,,,,,,,,,,,,,,,,,,,,,
,,,,,V3_031,21,Female,2024-10-21_17h02.23.957,jersey_experiment_5_v3,2023.2.2,Win32,85.47008547,,,,,,,,,,,,,,,,933.064,934.3578,934.3579,936.2637,return,0.6867,,96.484375,,,,,,FBP-RB-91.png,0.45,1.2,60,0.5,,,,,,,,,,,,,,,,,,0,5,5,59,1,,,,,,,,,,,,,,,,,,,,,,,
,,,,,V3_031,21,Female,2024-10-21_17h02.23.957,jersey_experiment_5_v3,2023.2.2,Win32,85.47008547,,,,,,,,,,,,,,,,936.264,937.558,937.5581,940.7935,return,0.6488,,91.92708333,,,,,,FBP-PT-81.png,0.35,1.2,21,0.5,,,,,,,,,,,,,,,,,,0,6,6,20,1,,,,,,,,,,,,,,,,,,,,,,,
,,,,,V3_031,21,Female,2024-10-21_17h02.23.957,jersey_experiment_5_v3,2023.2.2,Win32,85.47008547,,,,,,,,,,,,,,,,940.7939,942.0877,942.0877,944.6995,return,0.9069,,75.91145833,,,,,,FBP-PT-81.png,0.4,1.2,23,0.5,,,,,,,,,,,,,,,,,,0,7,7,22,1,,,,,,,,,,,,,,,,,,,,,,,
,,,,,V3_031,21,Female,2024-10-21_17h02.23.957,jersey_experiment_5_v3,2023.2.2,Win32,85.47008547,,,,,,,,,,,,,,,,944.6997,946.2525,946.2525,948.029,return,0.6956,,99.86979167,,,,,,FBP-OG-91.png,0.45,1.2,45,0.75,,,,,,,,,,,,,,,,,,0,8,8,44,1,,,,,,,,,,,,,,,,,,,,,,,
,,,,,V3_031,21,Female,2024-10-21_17h02.23.957,jersey_experiment_5_v3,2023.2.2,Win32,85.47008547,,,,,,,,,,,,,,,,948.0293,949.582,949.5821,950.8291,return,0.6512,,99.609375,,,,,,FBP-OG-81.png,0.43,1.2,39,0.75,,,,,,,,,,,,,,,,,,0,9,9,38,1,,,,,,,,,,,,,,,,,,,,,,,
,,,,,V3_031,21,Female,2024-10-21_17h02.23.957,jersey_experiment_5_v3,2023.2.2,Win32,85.47008547,,,,,,,,,,,,,,,,950.8293,952.1232,952.1233,954.9117,return,0.7296,,76.69270833,,,,,,FBP-YG-19.png,0.35,1.2,11,0.5,,,,,,,,,,,,,,,,,,0,10,10,10,1,,,,,,,,,,,,,,,,,,,,,,,
,,,,,V3_031,21,Female,2024-10-21_17h02.23.957,jersey_experiment_5_v3,2023.2.2,Win32,85.47008547,,,,,,,,,,,,,,,,954.912,956.4647,956.4647,958.2647,return,0.6514,,83.85416667,,,,,,FBP-OG-91.png,0.4,1.2,43,0.75,,,,,,,,,,,,,,,,,,0,11,11,42,1,,,,,,,,,,,,,,,,,,,,,,,
,,,,,V3_031,21,Female,2024-10-21_17h02.23.957,jersey_experiment_5_v3,2023.2.2,Win32,85.47008547,,,,,,,,,,,,,,,,958.265,959.8177,959.8178,963.0531,return,2.3374,,78.515625,,,,,,FBP-OG-71.png,0.37,1.2,32,0.75,,,,,,,,,,,,,,,,,,0,12,12,31,1,,,,,,,,,,,,,,,,,,,,,,,
,,,,,V3_031,21,Female,2024-10-21_17h02.23.957,jersey_experiment_5_v3,2023.2.2,Win32,85.47008547,,,,,,,,,,,,,,,,963.0534,964.3473,964.3473,965.6061,return,0.5474,,73.95833333,,,,,,FBP-RB-91.png,0.37,1.2,57,0.5,,,,,,,,,,,,,,,,,,0,13,13,56,1,,,,,,,,,,,,,,,,,,,,,,,
,,,,,V3_031,21,Female,2024-10-21_17h02.23.957,jersey_experiment_5_v3,2023.2.2,Win32,85.47008547,,,,,,,,,,,,,,,,965.6064,966.9003,966.9003,968.5003,return,0.6176,,97.265625,,,,,,FBP-RB-81.png,0.43,1.2,54,0.5,,,,,,,,,,,,,,,,,,0,14,14,53,1,,,,,,,,,,,,,,,,,,,,,,,
,,,,,V3_031,21,Female,2024-10-21_17h02.23.957,jersey_experiment_5_v3,2023.2.2,Win32,85.47008547,,,,,,,,,,,,,,,,968.5007,969.7945,969.7946,971.0534,return,0.5882,,99.34895833,,,,,,FBP-YG-18.png,0.37,1.2,7,0.5,,,,,,,,,,,,,,,,,,0,15,15,6,1,,,,,,,,,,,,,,,,,,,,,,,
,,,,,V3_031,21,Female,2024-10-21_17h02.23.957,jersey_experiment_5_v3,2023.2.2,Win32,85.47008547,,,,,,,,,,,,,,,,971.0537,972.3476,972.3476,973.9829,return,0.9676,,99.73958333,,,,,,FBP-YG-18.png,0.45,1.2,10,0.5,,,,,,,,,,,,,,,,,,0,16,16,9,1,,,,,,,,,,,,,,,,,,,,,,,
,,,,,V3_031,21,Female,2024-10-21_17h02.23.957,jersey_experiment_5_v3,2023.2.2,Win32,85.47008547,,,,,,,,,,,,,,,,973.9831,975.2771,975.2771,976.6182,return,0.6603,,98.95833333,,,,,,FBP-YG-19.png,0.45,1.2,15,0.5,,,,,,,,,,,,,,,,,,0,17,17,14,1,,,,,,,,,,,,,,,,,,,,,,,
,,,,,V3_031,21,Female,2024-10-21_17h02.23.957,jersey_experiment_5_v3,2023.2.2,Win32,85.47008547,,,,,,,,,,,,,,,,976.6185,977.9126,977.9127,979.4656,return,0.628,,92.05729167,,,,,,FBP-RB-71.png,0.4,1.2,48,0.5,,,,,,,,,,,,,,,,,,0,18,18,47,1,,,,,,,,,,,,,,,,,,,,,,,
,,,,,V3_031,21,Female,2024-10-21_17h02.23.957,jersey_experiment_5_v3,2023.2.2,Win32,85.47008547,,,,,,,,,,,,,,,,979.4657,980.7596,980.7596,983.1597,return,0.5685,,63.54166667,,,,,,FBP-PT-91.png,0.35,1.2,26,0.5,,,,,,,,,,,,,,,,,,0,19,19,25,1,,,,,,,,,,,,,,,,,,,,,,,
,,,,,V3_031,21,Female,2024-10-21_17h02.23.957,jersey_experiment_5_v3,2023.2.2,Win32,85.47008547,,,,,,,,,,,,,,,,983.1599,984.4539,984.454,986.1245,return,0.5864,,74.73958333,,,,,,FBP-YG-17.png,0.45,1.2,5,0.5,,,,,,,,,,,,,,,,,,0,20,20,4,1,,,,,,,,,,,,,,,,,,,,,,,
,,,,,V3_031,21,Female,2024-10-21_17h02.23.957,jersey_experiment_5_v3,2023.2.2,Win32,85.47008547,,,,,,,,,,,,,,,,986.1249,987.6776,987.6776,988.9834,return,0.6252,,75.13020833,,,,,,FBP-OG-71.png,0.45,1.2,35,0.75,,,,,,,,,,,,,,,,,,0,21,21,34,1,,,,,,,,,,,,,,,,,,,,,,,
,,,,,V3_031,21,Female,2024-10-21_17h02.23.957,jersey_experiment_5_v3,2023.2.2,Win32,85.47008547,,,,,,,,,,,,,,,,988.9837,990.2777,990.2777,991.4189,return,0.6044,,74.86979167,,,,,,FBP-YG-17.png,0.43,1.2,4,0.5,,,,,,,,,,,,,,,,,,0,22,22,3,1,,,,,,,,,,,,,,,,,,,,,,,
,,,,,V3_031,21,Female,2024-10-21_17h02.23.957,jersey_experiment_5_v3,2023.2.2,Win32,85.47008547,,,,,,,,,,,,,,,,991.4192,992.713,992.7131,994.0425,return,0.5912,,74.47916667,,,,,,FBP-RB-71.png,0.43,1.2,49,0.5,,,,,,,,,,,,,,,,,,0,23,23,48,1,,,,,,,,,,,,,,,,,,,,,,,
,,,,,V3_031,21,Female,2024-10-21_17h02.23.957,jersey_experiment_5_v3,2023.2.2,Win32,85.47008547,,,,,,,,,,,,,,,,994.0427,995.3366,995.3368,996.6662,return,0.5425,,80.20833333,,,,,,FBP-YG-17.png,0.37,1.2,2,0.5,,,,,,,,,,,,,,,,,,0,24,24,1,1,,,,,,,,,,,,,,,,,,,,,,,
,,,,,V3_031,21,Female,2024-10-21_17h02.23.957,jersey_experiment_5_v3,2023.2.2,Win32,85.47008547,,,,,,,,,,,,,,,,996.6663,998.2193,998.2193,999.4309,return,0.558,,91.015625,,,,,,FBP-OG-81.png,0.45,1.2,40,0.75,,,,,,,,,,,,,,,,,,0,25,25,39,1,,,,,,,,,,,,,,,,,,,,,,,
,,,,,V3_031,21,Female,2024-10-21_17h02.23.957,jersey_experiment_5_v3,2023.2.2,Win32,85.47008547,,,,,,,,,,,,,,,,999.4311,1000.7252,1000.7252,1004.5017,return,0.6311,,48.4375,,,,,,FBP-YG-18.png,0.35,1.2,6,0.5,,,,,,,,,,,,,,,,,,0,26,26,5,1,,,,,,,,,,,,,,,,,,,,,,,
,,,,,V3_031,21,Female,2024-10-21_17h02.23.957,jersey_experiment_5_v3,2023.2.2,Win32,85.47008547,,,,,,,,,,,,,,,,1004.5018,1006.0547,1006.0547,1008.0784,return,0.722,,71.09375,,,,,,FBP-OG-71.png,0.35,1.2,31,0.75,,,,,,,,,,,,,,,,,,0,27,27,30,1,,,,,,,,,,,,,,,,,,,,,,,
,,,,,V3_031,21,Female,2024-10-21_17h02.23.957,jersey_experiment_5_v3,2023.2.2,Win32,85.47008547,,,,,,,,,,,,,,,,1008.0786,1009.3725,1009.3726,1011.1607,return,0.7323,,75.26041667,,,,,,FBP-YG-19.png,0.43,1.2,14,0.5,,,,,,,,,,,,,,,,,,0,28,28,13,1,,,,,,,,,,,,,,,,,,,,,,,
,,,,,V3_031,21,Female,2024-10-21_17h02.23.957,jersey_experiment_5_v3,2023.2.2,Win32,85.47008547,,,,,,,,,,,,,,,,1011.1609,1012.4549,1012.455,1014.0314,return,0.5806,,64.58333333,,,,,,FBP-PT-91.png,0.37,1.2,27,0.5,,,,,,,,,,,,,,,,,,0,29,29,26,1,,,,,,,,,,,,,,,,,,,,,,,
,,,,,V3_031,21,Female,2024-10-21_17h02.23.957,jersey_experiment_5_v3,2023.2.2,Win32,85.47008547,,,,,,,,,,,,,,,,1014.0317,1015.3256,1015.3257,1016.9728,return,0.6024,,69.01041667,,,,,,FBP-PT-81.png,0.37,1.2,22,0.5,,,,,,,,,,,,,,,,,,0,30,30,21,1,,,,,,,,,,,,,,,,,,,,,,,
,,,,,V3_031,21,Female,2024-10-21_17h02.23.957,jersey_experiment_5_v3,2023.2.2,Win32,85.47008547,,,,,,,,,,,,,,,,1016.9732,1018.267,1018.267,1019.7492,return,0.608,,73.95833333,,,,,,FBP-YG-18.png,0.4,1.2,8,0.5,,,,,,,,,,,,,,,,,,0,31,31,7,1,,,,,,,,,,,,,,,,,,,,,,,
,,,,,V3_031,21,Female,2024-10-21_17h02.23.957,jersey_experiment_5_v3,2023.2.2,Win32,85.47008547,,,,,,,,,,,,,,,,1019.7494,1021.0435,1021.0436,1022.3611,return,0.5571,,75.52083333,,,,,,FBP-RB-81.png,0.37,1.2,52,0.5,,,,,,,,,,,,,,,,,,0,32,32,51,1,,,,,,,,,,,,,,,,,,,,,,,
,,,,,V3_031,21,Female,2024-10-21_17h02.23.957,jersey_experiment_5_v3,2023.2.2,Win32,85.47008547,,,,,,,,,,,,,,,,1022.3613,1023.6553,1023.6554,1025.2907,return,0.6615,,77.86458333,,,,,,FBP-PT-81.png,0.43,1.2,24,0.5,,,,,,,,,,,,,,,,,,0,33,33,23,1,,,,,,,,,,,,,,,,,,,,,,,
,,,,,V3_031,21,Female,2024-10-21_17h02.23.957,jersey_experiment_5_v3,2023.2.2,Win32,85.47008547,,,,,,,,,,,,,,,,1025.291,1026.5848,1026.5848,1028.0909,return,0.6374,,93.48958333,,,,,,FBP-YG-18.png,0.43,1.2,9,0.5,,,,,,,,,,,,,,,,,,0,34,34,8,1,,,,,,,,,,,,,,,,,,,,,,,
,,,,,V3_031,21,Female,2024-10-21_17h02.23.957,jersey_experiment_5_v3,2023.2.2,Win32,85.47008547,,,,,,,,,,,,,,,,1028.0911,1029.385,1029.385,1030.985,return,0.6709,,84.765625,,,,,,FBP-PT-71.png,0.35,1.2,16,0.5,,,,,,,,,,,,,,,,,,0,35,35,15,1,,,,,,,,,,,,,,,,,,,,,,,
,,,,,V3_031,21,Female,2024-10-21_17h02.23.957,jersey_experiment_5_v3,2023.2.2,Win32,85.47008547,,,,,,,,,,,,,,,,1030.9852,1032.2792,1032.2792,1033.7851,return,0.5535,,98.30729167,,,,,,FBP-RB-91.png,0.4,1.2,58,0.5,,,,,,,,,,,,,,,,,,0,36,36,57,1,,,,,,,,,,,,,,,,,,,,,,,
,,,,,V3_031,21,Female,2024-10-21_17h02.23.957,jersey_experiment_5_v3,2023.2.2,Win32,85.47008547,,,,,,,,,,,,,,,,1033.7854,1035.3383,1035.3383,1036.7736,return,0.5488,,77.99479167,,,,,,FBP-OG-81.png,0.4,1.2,38,0.75,,,,,,,,,,,,,,,,,,0,37,37,37,1,,,,,,,,,,,,,,,,,,,,,,,
,,,,,V3_031,21,Female,2024-10-21_17h02.23.957,jersey_experiment_5_v3,2023.2.2,Win32,85.47008547,,,,,,,,,,,,,,,,1036.7738,1038.0677,1038.0678,1039.75,return,0.5682,,60.15625,,,,,,FBP-YG-17.png,0.4,1.2,3,0.5,,,,,,,,,,,,,,,,,,0,38,38,2,1,,,,,,,,,,,,,,,,,,,,,,,
,,,,,V3_031,21,Female,2024-10-21_17h02.23.957,jersey_experiment_5_v3,2023.2.2,Win32,85.47008547,,,,,,,,,,,,,,,,1039.7501,1041.0443,1041.0444,1042.4914,return,0.5524,,51.82291667,,,,,,FBP-YG-17.png,0.35,1.2,1,0.5,,,,,,,,,,,,,,,,,,0,39,39,0,1,,,,,,,,,,,,,,,,,,,,,,,
,,,,,V3_031,21,Female,2024-10-21_17h02.23.957,jersey_experiment_5_v3,2023.2.2,Win32,85.47008547,,,,,,,,,,,,,,,,1042.4916,1044.0444,1044.0444,1046.3738,return,0.6665,,45.96354167,,,,,,FBP-OG-81.png,0.37,1.2,37,0.75,,,,,,,,,,,,,,,,,,0,40,40,36,1,,,,,,,,,,,,,,,,,,,,,,,
,,,,,V3_031,21,Female,2024-10-21_17h02.23.957,jersey_experiment_5_v3,2023.2.2,Win32,85.47008547,,,,,,,,,,,,,,,,1046.374,1047.668,1047.668,1049.174,return,0.6057,,74.21875,,,,,,FBP-RB-81.png,0.45,1.2,55,0.5,,,,,,,,,,,,,,,,,,0,41,41,54,1,,,,,,,,,,,,,,,,,,,,,,,
,,,,,V3_031,21,Female,2024-10-21_17h02.23.957,jersey_experiment_5_v3,2023.2.2,Win32,85.47008547,,,,,,,,,,,,,,,,1049.1742,1050.468,1050.4681,1052.574,return,0.5877,,49.34895833,,,,,,FBP-RB-71.png,0.37,1.2,47,0.5,,,,,,,,,,,,,,,,,,0,42,42,46,1,,,,,,,,,,,,,,,,,,,,,,,
,,,,,V3_031,21,Female,2024-10-21_17h02.23.957,jersey_experiment_5_v3,2023.2.2,Win32,85.47008547,,,,,,,,,,,,,,,,1052.5742,1053.8682,1053.8683,1055.6565,return,0.5447,,75,,,,,,FBP-RB-91.png,0.43,1.2,59,0.5,,,,,,,,,,,,,,,,,,0,43,43,58,1,,,,,,,,,,,,,,,,,,,,,,,
,,,,,V3_031,21,Female,2024-10-21_17h02.23.957,jersey_experiment_5_v3,2023.2.2,Win32,85.47008547,,,,,,,,,,,,,,,,1055.6567,1057.2098,1057.2098,1058.6331,return,0.5688,,49.47916667,,,,,,FBP-OG-91.png,0.37,1.2,42,0.75,,,,,,,,,,,,,,,,,,0,44,44,41,1,,,,,,,,,,,,,,,,,,,,,,,
,,,,,V3_031,21,Female,2024-10-21_17h02.23.957,jersey_experiment_5_v3,2023.2.2,Win32,85.47008547,,,,,,,,,,,,,,,,1058.6334,1060.1861,1060.1862,1061.8333,return,0.6629,,42.05729167,,,,,,FBP-OG-71.png,0.4,1.2,33,0.75,,,,,,,,,,,,,,,,,,0,45,45,32,1,,,,,,,,,,,,,,,,,,,,,,,
,,,,,V3_031,21,Female,2024-10-21_17h02.23.957,jersey_experiment_5_v3,2023.2.2,Win32,85.47008547,,,,,,,,,,,,,,,,1061.8337,1063.1275,1063.1275,1064.7628,return,0.6611,,75.26041667,,,,,,FBP-PT-71.png,0.45,1.2,20,0.5,,,,,,,,,,,,,,,,,,0,46,46,19,1,,,,,,,,,,,,,,,,,,,,,,,
,,,,,V3_031,21,Female,2024-10-21_17h02.23.957,jersey_experiment_5_v3,2023.2.2,Win32,85.47008547,,,,,,,,,,,,,,,,1064.7631,1066.0569,1066.0569,1067.351,return,0.5224,,59.63541667,,,,,,FBP-PT-91.png,0.4,1.2,28,0.5,,,,,,,,,,,,,,,,,,0,47,47,27,1,,,,,,,,,,,,,,,,,,,,,,,
,,,,,V3_031,21,Female,2024-10-21_17h02.23.957,jersey_experiment_5_v3,2023.2.2,Win32,85.47008547,,,,,,,,,,,,,,,,1067.3512,1068.6453,1068.6454,1070.3983,return,0.5726,,74.73958333,,,,,,FBP-RB-81.png,0.4,1.2,53,0.5,,,,,,,,,,,,,,,,,,0,48,48,52,1,,,,,,,,,,,,,,,,,,,,,,,
,,,,,V3_031,21,Female,2024-10-21_17h02.23.957,jersey_experiment_5_v3,2023.2.2,Win32,85.47008547,,,,,,,,,,,,,,,,1070.3984,1071.9515,1071.9515,1073.4219,return,0.5653,,48.828125,,,,,,FBP-OG-81.png,0.35,1.2,36,0.75,,,,,,,,,,,,,,,,,,0,49,49,35,1,,,,,,,,,,,,,,,,,,,,,,,
,,,,,V3_031,21,Female,2024-10-21_17h02.23.957,jersey_experiment_5_v3,2023.2.2,Win32,85.47008547,,,,,,,,,,,,,,,,1073.4222,1074.975,1074.975,1076.1044,return,0.5814,,75.13020833,,,,,,FBP-OG-71.png,0.43,1.2,34,0.75,,,,,,,,,,,,,,,,,,0,50,50,33,1,,,,,,,,,,,,,,,,,,,,,,,
,,,,,V3_031,21,Female,2024-10-21_17h02.23.957,jersey_experiment_5_v3,2023.2.2,Win32,85.47008547,,,,,,,,,,,,,,,,1076.1046,1077.3985,1077.3985,1078.4926,return,0.5969,,76.171875,,,,,,FBP-PT-91.png,0.43,1.2,29,0.5,,,,,,,,,,,,,,,,,,0,51,51,28,1,,,,,,,,,,,,,,,,,,,,,,,
,,,,,V3_031,21,Female,2024-10-21_17h02.23.957,jersey_experiment_5_v3,2023.2.2,Win32,85.47008547,,,,,,,,,,,,,,,,1078.4929,1079.7869,1079.7869,1081.081,return,0.6158,,83.46354167,,,,,,FBP-RB-71.png,0.45,1.2,50,0.5,,,,,,,,,,,,,,,,,,0,52,52,49,1,,,,,,,,,,,,,,,,,,,,,,,
,,,,,V3_031,21,Female,2024-10-21_17h02.23.957,jersey_experiment_5_v3,2023.2.2,Win32,85.47008547,,,,,,,,,,,,,,,,1081.0813,1082.3752,1082.3753,1083.7399,return,0.5896,,87.890625,,,,,,FBP-YG-19.png,0.4,1.2,13,0.5,,,,,,,,,,,,,,,,,,0,53,53,12,1,,,,,,,,,,,,,,,,,,,,,,,
,,,,,V3_031,21,Female,2024-10-21_17h02.23.957,jersey_experiment_5_v3,2023.2.2,Win32,85.47008547,,,,,,,,,,,,,,,,1083.7403,1085.2932,1085.2932,1086.7165,return,0.6033,,26.30208333,,,,,,FBP-OG-91.png,0.35,1.2,41,0.75,,,,,,,,,,,,,,,,,,0,54,54,40,1,,,,,,,,,,,,,,,,,,,,,,,
,,,,,V3_031,21,Female,2024-10-21_17h02.23.957,jersey_experiment_5_v3,2023.2.2,Win32,85.47008547,,,,,,,,,,,,,,,,1086.7168,1088.0109,1088.0109,1090.1991,return,1.0164,,76.953125,,,,,,FBP-PT-91.png,0.45,1.2,30,0.5,,,,,,,,,,,,,,,,,,0,55,55,29,1,,,,,,,,,,,,,,,,,,,,,,,
,,,,,V3_031,21,Female,2024-10-21_17h02.23.957,jersey_experiment_5_v3,2023.2.2,Win32,85.47008547,,,,,,,,,,,,,,,,1090.1993,1091.4933,1091.4934,1093.5286,return,0.5798,,96.74479167,,,,,,FBP-PT-71.png,0.43,1.2,19,0.5,,,,,,,,,,,,,,,,,,0,56,56,18,1,,,,,,,,,,,,,,,,,,,,,,,
,,,,,V3_031,21,Female,2024-10-21_17h02.23.957,jersey_experiment_5_v3,2023.2.2,Win32,85.47008547,,,,,,,,,,,,,,,,1093.5288,1095.0818,1095.0818,1096.8698,return,0.6539,,75.65104167,,,,,,FBP-OG-91.png,0.43,1.2,44,0.75,,,,,,,,,,,,,,,,,,0,57,57,43,1,,,,,,,,,,,,,,,,,,,,,,,
,,,,,V3_031,21,Female,2024-10-21_17h02.23.957,jersey_experiment_5_v3,2023.2.2,Win32,85.47008547,,,,,,,,,,,,,,,,1096.87,1098.1642,1098.1642,1099.6699,return,0.6191,,26.30208333,,,,,,FBP-RB-81.png,0.35,1.2,51,0.5,,,,,,,,,,,,,,,,,,0,58,58,50,1,,,,,,,,,,,,,,,,,,,,,,,
,,,,,V3_031,21,Female,2024-10-21_17h02.23.957,jersey_experiment_5_v3,2023.2.2,Win32,85.47008547,,,,,,,,,,,,,,,,1099.6701,1100.9641,1100.9641,1102.27,return,0.5437,,34.63541667,,,,,,FBP-RB-91.png,0.35,1.2,56,0.5,,,,,,,,,,,,,,,,,,0,59,59,55,1,,,,,,,,,,,,,,,,,,,,,,,
,,,,,V3_031,21,Female,2024-10-21_17h02.23.957,jersey_experiment_5_v3,2023.2.2,Win32,85.47008547,,,,,,,,,,,,,,,,,,,,,,,,,,,,,,,,,,,,,,,,,,,,,,,,,,,,,,,,1102.2702,1107.4351,return,5.1552,,,,,,,,,,,,,,,,,,,
,,,,,V3_031,21,Female,2024-10-21_17h02.23.957,jersey_experiment_5_v3,2023.2.2,Win32,85.47008547,,,,,,,,,,,,,,,,,,,,,,,,,,,,,,,,,,,,,,,,,,,,,,,,,,,,,,,,,,,,,1107.4353,1110.7764,1,2.1366,return,1.1913,,,,,,,,,,,,
,,,,,V3_031,21,Female,2024-10-21_17h02.23.957,jersey_experiment_5_v3,2023.2.2,Win32,85.47008547,,,,,,,,,,,,,,,,,,,,,,,,,,,,,,,,,,,,,,,,,,,,,,,,,,,,,,,,,,,,,,,,,,,,1110.7765,1155.2612,I noticed that the sizes of the football players were often repeated.,right,38.4369,,,,,,
,,,,,V3_031,21,Female,2024-10-21_17h02.23.957,jersey_experiment_5_v3,2023.2.2,Win32,85.47008547,,,,,,,,,,,,,,,,,,,,,,,,,,,,,,,,,,,,,,,,,,,,,,,,,,,,,,,,,,,,,,,,,,,,,,,,,,1155.2613,1159.1194,return,3.849,