requirements.started,requirements.stopped,key_resp_3.keys,key_resp_3.rt,key_resp_3.duration,Subject ID,Age,Gender,date,expName,psychopyVersion,OS,frameRate,instructions1.started,instructions1.stopped,key_resp.keys,key_resp.rt,key_resp.duration,example.started,example.stopped,enter_2.keys,enter_2.rt,enter_2.duration,instructions2.started,instructions2.stopped,enter_3.keys,enter_3.rt,enter_3.duration,image.started,image.stopped,slider_2.started,slider_2.stopped,next.keys,next.rt,next.duration,slider.response,trial_block_1.thisRepN,trial_block_1.thisTrialN,trial_block_1.thisN,trial_block_1.thisIndex,trial_block_1.ran,Path,Width,Height,Index,Duration,trial_block_2.thisRepN,trial_block_2.thisTrialN,trial_block_2.thisN,trial_block_2.thisIndex,trial_block_2.ran,rest_break.started,rest_break.stopped,end_break.started,end_break.stopped,key_resp_5.keys,key_resp_5.rt,key_resp_5.duration,trial_block_3.thisRepN,trial_block_3.thisTrialN,trial_block_3.thisN,trial_block_3.thisIndex,trial_block_3.ran,trial_block_4.thisRepN,trial_block_4.thisTrialN,trial_block_4.thisN,trial_block_4.thisIndex,trial_block_4.ran,questions_intro.started,questions_intro.stopped,enter_12.keys,enter_12.rt,enter_12.duration,question2.started,question2.stopped,question_doingbest.response,question_doingbest.rt,enter_15.keys,enter_15.rt,enter_15.duration,pattern.started,pattern.stopped,pattern_2.text,enter_17.keys,enter_17.rt,enter_17.duration,thankyou.started,thankyou.stopped,enter_14.keys,enter_14.rt,enter_14.duration
0,27.4342,return,27.4302,,V3_093,21,Male,2025-01-30_15h04.55.456,jersey_experiment_5_v3,2023.2.2,Win32,84.74576271,,,,,,,,,,,,,,,,,,,,,,,,,,,,,,,,,,,,,,,,,,,,,,,,,,,,,,,,,,,,,,,,,,,,,,,,,,,,,,
,,,,,V3_093,21,Male,2025-01-30_15h04.55.456,jersey_experiment_5_v3,2023.2.2,Win32,84.74576271,27.4342,36.3458,return,8.9021,,,,,,,,,,,,,,,,,,,,,,,,,,,,,,,,,,,,,,,,,,,,,,,,,,,,,,,,,,,,,,,,,,,,,,,,,,
,,,,,V3_093,21,Male,2025-01-30_15h04.55.456,jersey_experiment_5_v3,2023.2.2,Win32,84.74576271,,,,,,36.3459,40.1225,return,3.7435,,,,,,,,,,,,,,,,,,,,,,,,,,,,,,,,,,,,,,,,,,,,,,,,,,,,,,,,,,,,,,,,,,,,,
,,,,,V3_093,21,Male,2025-01-30_15h04.55.456,jersey_experiment_5_v3,2023.2.2,Win32,84.74576271,,,,,,,,,,,40.1225,52.7229,return,12.5864,,,,,,,,,,,,,,,,,,,,,,,,,,,,,,,,,,,,,,,,,,,,,,,,,,,,,,,,,,,,,,,,
,,,,,V3_093,21,Male,2025-01-30_15h04.55.456,jersey_experiment_5_v3,2023.2.2,Win32,84.74576271,,,,,,,,,,,,,,,,52.7249,54.2759,54.276,59.9351,return,1.5677,,50.390625,0,0,0,8,1,FBP-YG-81.png,0.43,1.2,9,0.75,,,,,,,,,,,,,,,,,,,,,,,,,,,,,,,,,,,,,,,,,,,,,
,,,,,V3_093,21,Male,2025-01-30_15h04.55.456,jersey_experiment_5_v3,2023.2.2,Win32,84.74576271,,,,,,,,,,,,,,,,59.9353,61.488,61.488,65.7705,return,3.243,,23.30729167,0,1,1,11,1,FBP-YG-91.png,0.37,1.2,12,0.75,,,,,,,,,,,,,,,,,,,,,,,,,,,,,,,,,,,,,,,,,,,,,
,,,,,V3_093,21,Male,2025-01-30_15h04.55.456,jersey_experiment_5_v3,2023.2.2,Win32,84.74576271,,,,,,,,,,,,,,,,65.7708,67.3235,67.3235,70.4295,return,1.1455,,30.72916667,0,2,2,52,1,FBP-RB-18.png,0.4,1.2,53,0.75,,,,,,,,,,,,,,,,,,,,,,,,,,,,,,,,,,,,,,,,,,,,,
,,,,,V3_093,21,Male,2025-01-30_15h04.55.456,jersey_experiment_5_v3,2023.2.2,Win32,84.74576271,,,,,,,,,,,,,,,,70.4297,71.9825,71.9826,75.0648,return,0.4441,,35.67708333,0,3,3,16,1,FBP-PT-17.png,0.37,1.2,17,0.75,,,,,,,,,,,,,,,,,,,,,,,,,,,,,,,,,,,,,,,,,,,,,
,,,,,V3_093,21,Male,2025-01-30_15h04.55.456,jersey_experiment_5_v3,2023.2.2,Win32,84.74576271,,,,,,,,,,,,,,,,75.065,76.3591,76.3592,78.7238,return,0.3641,,75.91145833,0,4,4,33,1,FBP-OG-17.png,0.43,1.2,34,0.5,,,,,,,,,,,,,,,,,,,,,,,,,,,,,,,,,,,,,,,,,,,,,
,,,,,V3_093,21,Male,2025-01-30_15h04.55.456,jersey_experiment_5_v3,2023.2.2,Win32,84.74576271,,,,,,,,,,,,,,,,78.7241,80.277,80.277,81.4651,return,0.1938,,61.84895833,0,5,5,28,1,FBP-PT-19.png,0.43,1.2,29,0.75,,,,,,,,,,,,,,,,,,,,,,,,,,,,,,,,,,,,,,,,,,,,,
,,,,,V3_093,21,Male,2025-01-30_15h04.55.456,jersey_experiment_5_v3,2023.2.2,Win32,84.74576271,,,,,,,,,,,,,,,,81.4654,83.0181,83.0181,84.4889,return,0.3388,,81.90104167,0,6,6,9,1,FBP-YG-81.png,0.45,1.2,10,0.75,,,,,,,,,,,,,,,,,,,,,,,,,,,,,,,,,,,,,,,,,,,,,
,,,,,V3_093,21,Male,2025-01-30_15h04.55.456,jersey_experiment_5_v3,2023.2.2,Win32,84.74576271,,,,,,,,,,,,,,,,84.4892,86.0418,86.0418,87.6301,return,0.1435,,50,0,7,7,27,1,FBP-PT-19.png,0.4,1.2,28,0.75,,,,,,,,,,,,,,,,,,,,,,,,,,,,,,,,,,,,,,,,,,,,,
,,,,,V3_093,21,Male,2025-01-30_15h04.55.456,jersey_experiment_5_v3,2023.2.2,Win32,84.74576271,,,,,,,,,,,,,,,,87.6304,89.1831,89.1831,91.5362,return,0.7208,,49.47916667,0,8,8,47,1,FBP-RB-17.png,0.4,1.2,48,0.75,,,,,,,,,,,,,,,,,,,,,,,,,,,,,,,,,,,,,,,,,,,,,
,,,,,V3_093,21,Male,2025-01-30_15h04.55.456,jersey_experiment_5_v3,2023.2.2,Win32,84.74576271,,,,,,,,,,,,,,,,91.5364,93.0891,93.0892,95.4657,return,1.3613,,53.64583333,0,9,9,17,1,FBP-PT-17.png,0.4,1.2,18,0.75,,,,,,,,,,,,,,,,,,,,,,,,,,,,,,,,,,,,,,,,,,,,,
,,,,,V3_093,21,Male,2025-01-30_15h04.55.456,jersey_experiment_5_v3,2023.2.2,Win32,84.74576271,,,,,,,,,,,,,,,,95.466,97.0186,97.0187,98.4188,return,0.2696,,55.72916667,0,10,10,21,1,FBP-PT-18.png,0.37,1.2,22,0.75,,,,,,,,,,,,,,,,,,,,,,,,,,,,,,,,,,,,,,,,,,,,,
,,,,,V3_093,21,Male,2025-01-30_15h04.55.456,jersey_experiment_5_v3,2023.2.2,Win32,84.74576271,,,,,,,,,,,,,,,,98.419,99.7129,99.7129,102.8188,return,0.3399,,65.88541667,0,11,11,32,1,FBP-OG-17.png,0.4,1.2,33,0.5,,,,,,,,,,,,,,,,,,,,,,,,,,,,,,,,,,,,,,,,,,,,,
,,,,,V3_093,21,Male,2025-01-30_15h04.55.456,jersey_experiment_5_v3,2023.2.2,Win32,84.74576271,,,,,,,,,,,,,,,,102.8191,104.372,104.372,107.572,return,0.1506,,64.71354167,0,12,12,7,1,FBP-YG-81.png,0.4,1.2,8,0.75,,,,,,,,,,,,,,,,,,,,,,,,,,,,,,,,,,,,,,,,,,,,,
,,,,,V3_093,21,Male,2025-01-30_15h04.55.456,jersey_experiment_5_v3,2023.2.2,Win32,84.74576271,,,,,,,,,,,,,,,,107.5723,109.125,109.1252,110.6897,return,0.2146,,12.63020833,0,13,13,25,1,FBP-PT-19.png,0.35,1.2,26,0.75,,,,,,,,,,,,,,,,,,,,,,,,,,,,,,,,,,,,,,,,,,,,,
,,,,,V3_093,21,Male,2025-01-30_15h04.55.456,jersey_experiment_5_v3,2023.2.2,Win32,84.74576271,,,,,,,,,,,,,,,,110.69,112.2427,112.2428,113.6663,return,0.3059,,20.18229167,0,14,14,51,1,FBP-RB-18.png,0.37,1.2,52,0.75,,,,,,,,,,,,,,,,,,,,,,,,,,,,,,,,,,,,,,,,,,,,,
,,,,,V3_093,21,Male,2025-01-30_15h04.55.456,jersey_experiment_5_v3,2023.2.2,Win32,84.74576271,,,,,,,,,,,,,,,,113.6667,115.2194,115.2194,117.9489,return,0.2168,,75,0,15,15,3,1,FBP-YG-71.png,0.43,1.2,4,0.75,,,,,,,,,,,,,,,,,,,,,,,,,,,,,,,,,,,,,,,,,,,,,
,,,,,V3_093,21,Male,2025-01-30_15h04.55.456,jersey_experiment_5_v3,2023.2.2,Win32,84.74576271,,,,,,,,,,,,,,,,117.9492,119.5018,119.5019,121.2785,return,0.2979,,60.67708333,0,16,16,57,1,FBP-RB-19.png,0.4,1.2,58,0.75,,,,,,,,,,,,,,,,,,,,,,,,,,,,,,,,,,,,,,,,,,,,,
,,,,,V3_093,21,Male,2025-01-30_15h04.55.456,jersey_experiment_5_v3,2023.2.2,Win32,84.74576271,,,,,,,,,,,,,,,,121.2787,122.5725,122.5725,124.255,return,0.4263,,84.765625,0,17,17,39,1,FBP-OG-18.png,0.45,1.2,40,0.5,,,,,,,,,,,,,,,,,,,,,,,,,,,,,,,,,,,,,,,,,,,,,
,,,,,V3_093,21,Male,2025-01-30_15h04.55.456,jersey_experiment_5_v3,2023.2.2,Win32,84.74576271,,,,,,,,,,,,,,,,124.2553,125.8079,125.8079,128.5964,return,0.2499,,37.76041667,0,18,18,46,1,FBP-RB-17.png,0.37,1.2,47,0.75,,,,,,,,,,,,,,,,,,,,,,,,,,,,,,,,,,,,,,,,,,,,,
,,,,,V3_093,21,Male,2025-01-30_15h04.55.456,jersey_experiment_5_v3,2023.2.2,Win32,84.74576271,,,,,,,,,,,,,,,,128.5968,130.1494,130.1494,132.0906,return,0.4075,,61.19791667,0,19,19,22,1,FBP-PT-18.png,0.4,1.2,23,0.75,,,,,,,,,,,,,,,,,,,,,,,,,,,,,,,,,,,,,,,,,,,,,
,,,,,V3_093,21,Male,2025-01-30_15h04.55.456,jersey_experiment_5_v3,2023.2.2,Win32,84.74576271,,,,,,,,,,,,,,,,132.091,133.6437,133.6438,135.1494,return,0.4984,,42.05729167,0,20,20,26,1,FBP-PT-19.png,0.37,1.2,27,0.75,,,,,,,,,,,,,,,,,,,,,,,,,,,,,,,,,,,,,,,,,,,,,
,,,,,V3_093,21,Male,2025-01-30_15h04.55.456,jersey_experiment_5_v3,2023.2.2,Win32,84.74576271,,,,,,,,,,,,,,,,135.1498,136.4436,136.4436,138.3967,return,0.17,,55.20833333,0,21,21,41,1,FBP-OG-19.png,0.37,1.2,42,0.5,,,,,,,,,,,,,,,,,,,,,,,,,,,,,,,,,,,,,,,,,,,,,
,,,,,V3_093,21,Male,2025-01-30_15h04.55.456,jersey_experiment_5_v3,2023.2.2,Win32,84.74576271,,,,,,,,,,,,,,,,138.3971,139.9497,139.9498,141.9146,return,0.2649,,60.9375,0,22,22,12,1,FBP-YG-91.png,0.4,1.2,13,0.75,,,,,,,,,,,,,,,,,,,,,,,,,,,,,,,,,,,,,,,,,,,,,
,,,,,V3_093,21,Male,2025-01-30_15h04.55.456,jersey_experiment_5_v3,2023.2.2,Win32,84.74576271,,,,,,,,,,,,,,,,141.9148,143.4676,143.4677,145.091,return,0.5884,,87.890625,0,23,23,59,1,FBP-RB-19.png,0.45,1.2,60,0.75,,,,,,,,,,,,,,,,,,,,,,,,,,,,,,,,,,,,,,,,,,,,,
,,,,,V3_093,21,Male,2025-01-30_15h04.55.456,jersey_experiment_5_v3,2023.2.2,Win32,84.74576271,,,,,,,,,,,,,,,,145.0913,146.3852,146.3853,148.5852,return,0.1969,,29.296875,0,24,24,35,1,FBP-OG-18.png,0.35,1.2,36,0.5,,,,,,,,,,,,,,,,,,,,,,,,,,,,,,,,,,,,,,,,,,,,,
,,,,,V3_093,21,Male,2025-01-30_15h04.55.456,jersey_experiment_5_v3,2023.2.2,Win32,84.74576271,,,,,,,,,,,,,,,,148.5856,149.8795,149.8796,151.2678,return,0.2121,,25.13020833,0,25,25,30,1,FBP-OG-17.png,0.35,1.2,31,0.5,,,,,,,,,,,,,,,,,,,,,,,,,,,,,,,,,,,,,,,,,,,,,
,,,,,V3_093,21,Male,2025-01-30_15h04.55.456,jersey_experiment_5_v3,2023.2.2,Win32,84.74576271,,,,,,,,,,,,,,,,151.268,152.8208,152.8209,153.6914,return,0.3229,,25.13020833,0,26,26,0,1,FBP-YG-71.png,0.35,1.2,1,0.75,,,,,,,,,,,,,,,,,,,,,,,,,,,,,,,,,,,,,,,,,,,,,
,,,,,V3_093,21,Male,2025-01-30_15h04.55.456,jersey_experiment_5_v3,2023.2.2,Win32,84.74576271,,,,,,,,,,,,,,,,153.6917,154.9855,154.9856,156.5621,return,0.2588,,75,0,27,27,34,1,FBP-OG-17.png,0.45,1.2,35,0.5,,,,,,,,,,,,,,,,,,,,,,,,,,,,,,,,,,,,,,,,,,,,,
,,,,,V3_093,21,Male,2025-01-30_15h04.55.456,jersey_experiment_5_v3,2023.2.2,Win32,84.74576271,,,,,,,,,,,,,,,,156.5624,158.115,158.115,162.3505,return,0.1681,,27.86458333,0,28,28,5,1,FBP-YG-81.png,0.35,1.2,6,0.75,,,,,,,,,,,,,,,,,,,,,,,,,,,,,,,,,,,,,,,,,,,,,
,,,,,V3_093,21,Male,2025-01-30_15h04.55.456,jersey_experiment_5_v3,2023.2.2,Win32,84.74576271,,,,,,,,,,,,,,,,162.3507,163.6447,163.6447,165.1858,return,0.1788,,75.65104167,0,29,29,38,1,FBP-OG-18.png,0.43,1.2,39,0.5,,,,,,,,,,,,,,,,,,,,,,,,,,,,,,,,,,,,,,,,,,,,,
,,,,,V3_093,21,Male,2025-01-30_15h04.55.456,jersey_experiment_5_v3,2023.2.2,Win32,84.74576271,,,,,,,,,,,,,,,,165.186,166.4801,166.4801,169.6331,return,0.3188,,60.80729167,0,30,30,37,1,FBP-OG-18.png,0.4,1.2,38,0.5,,,,,,,,,,,,,,,,,,,,,,,,,,,,,,,,,,,,,,,,,,,,,
,,,,,V3_093,21,Male,2025-01-30_15h04.55.456,jersey_experiment_5_v3,2023.2.2,Win32,84.74576271,,,,,,,,,,,,,,,,169.6335,171.1863,171.1863,172.1745,return,0.2142,,86.84895833,0,31,31,13,1,FBP-YG-91.png,0.43,1.2,14,0.75,,,,,,,,,,,,,,,,,,,,,,,,,,,,,,,,,,,,,,,,,,,,,
,,,,,V3_093,21,Male,2025-01-30_15h04.55.456,jersey_experiment_5_v3,2023.2.2,Win32,84.74576271,,,,,,,,,,,,,,,,172.1747,173.7275,173.7275,175.4099,return,0.2219,,16.27604167,0,32,32,55,1,FBP-RB-19.png,0.35,1.2,56,0.75,,,,,,,,,,,,,,,,,,,,,,,,,,,,,,,,,,,,,,,,,,,,,
,,,,,V3_093,21,Male,2025-01-30_15h04.55.456,jersey_experiment_5_v3,2023.2.2,Win32,84.74576271,,,,,,,,,,,,,,,,175.4103,176.9628,176.9629,179.3746,return,0.8858,,92.1875,0,33,33,29,1,FBP-PT-19.png,0.45,1.2,30,0.75,,,,,,,,,,,,,,,,,,,,,,,,,,,,,,,,,,,,,,,,,,,,,
,,,,,V3_093,21,Male,2025-01-30_15h04.55.456,jersey_experiment_5_v3,2023.2.2,Win32,84.74576271,,,,,,,,,,,,,,,,179.3748,180.9161,180.9161,183.2807,return,0.1548,,40.625,0,34,34,20,1,FBP-PT-18.png,0.35,1.2,21,0.75,,,,,,,,,,,,,,,,,,,,,,,,,,,,,,,,,,,,,,,,,,,,,
,,,,,V3_093,21,Male,2025-01-30_15h04.55.456,jersey_experiment_5_v3,2023.2.2,Win32,84.74576271,,,,,,,,,,,,,,,,183.2811,184.8338,184.8339,186.1279,return,0.2022,,92.05729167,0,35,35,48,1,FBP-RB-17.png,0.43,1.2,49,0.75,,,,,,,,,,,,,,,,,,,,,,,,,,,,,,,,,,,,,,,,,,,,,
,,,,,V3_093,21,Male,2025-01-30_15h04.55.456,jersey_experiment_5_v3,2023.2.2,Win32,84.74576271,,,,,,,,,,,,,,,,186.1282,187.681,187.681,190.2813,return,0.1269,,58.72395833,0,36,36,45,1,FBP-RB-17.png,0.35,1.2,46,0.75,,,,,,,,,,,,,,,,,,,,,,,,,,,,,,,,,,,,,,,,,,,,,
,,,,,V3_093,21,Male,2025-01-30_15h04.55.456,jersey_experiment_5_v3,2023.2.2,Win32,84.74576271,,,,,,,,,,,,,,,,190.2817,191.8342,191.8343,193.14,return,0.1424,,79.296875,0,37,37,54,1,FBP-RB-18.png,0.45,1.2,55,0.75,,,,,,,,,,,,,,,,,,,,,,,,,,,,,,,,,,,,,,,,,,,,,
,,,,,V3_093,21,Male,2025-01-30_15h04.55.456,jersey_experiment_5_v3,2023.2.2,Win32,84.74576271,,,,,,,,,,,,,,,,193.1402,194.6928,194.6928,195.881,return,0.2206,,91.796875,0,38,38,19,1,FBP-PT-17.png,0.45,1.2,20,0.75,,,,,,,,,,,,,,,,,,,,,,,,,,,,,,,,,,,,,,,,,,,,,
,,,,,V3_093,21,Male,2025-01-30_15h04.55.456,jersey_experiment_5_v3,2023.2.2,Win32,84.74576271,,,,,,,,,,,,,,,,195.8813,197.1754,197.1754,200.7871,return,0.7428,,57.8125,0,39,39,40,1,FBP-OG-19.png,0.35,1.2,41,0.5,,,,,,,,,,,,,,,,,,,,,,,,,,,,,,,,,,,,,,,,,,,,,
,,,,,V3_093,21,Male,2025-01-30_15h04.55.456,jersey_experiment_5_v3,2023.2.2,Win32,84.74576271,,,,,,,,,,,,,,,,200.7875,202.3403,202.3403,203.8108,return,0.1179,,58.33333333,0,40,40,15,1,FBP-PT-17.png,0.35,1.2,16,0.75,,,,,,,,,,,,,,,,,,,,,,,,,,,,,,,,,,,,,,,,,,,,,
,,,,,V3_093,21,Male,2025-01-30_15h04.55.456,jersey_experiment_5_v3,2023.2.2,Win32,84.74576271,,,,,,,,,,,,,,,,203.8111,205.3523,205.3523,206.7521,return,0.1903,,75.78125,0,41,41,53,1,FBP-RB-18.png,0.43,1.2,54,0.75,,,,,,,,,,,,,,,,,,,,,,,,,,,,,,,,,,,,,,,,,,,,,
,,,,,V3_093,21,Male,2025-01-30_15h04.55.456,jersey_experiment_5_v3,2023.2.2,Win32,84.74576271,,,,,,,,,,,,,,,,206.7525,208.3051,208.3051,209.87,return,0.2276,,79.81770833,0,42,42,2,1,FBP-YG-71.png,0.4,1.2,3,0.75,,,,,,,,,,,,,,,,,,,,,,,,,,,,,,,,,,,,,,,,,,,,,
,,,,,V3_093,21,Male,2025-01-30_15h04.55.456,jersey_experiment_5_v3,2023.2.2,Win32,84.74576271,,,,,,,,,,,,,,,,209.8702,211.4228,211.4228,212.576,return,0.3538,,83.203125,0,43,43,56,1,FBP-RB-19.png,0.37,1.2,57,0.75,,,,,,,,,,,,,,,,,,,,,,,,,,,,,,,,,,,,,,,,,,,,,
,,,,,V3_093,21,Male,2025-01-30_15h04.55.456,jersey_experiment_5_v3,2023.2.2,Win32,84.74576271,,,,,,,,,,,,,,,,212.5763,214.129,214.129,215.5877,return,0.1678,,87.109375,0,44,44,18,1,FBP-PT-17.png,0.43,1.2,19,0.75,,,,,,,,,,,,,,,,,,,,,,,,,,,,,,,,,,,,,,,,,,,,,
,,,,,V3_093,21,Male,2025-01-30_15h04.55.456,jersey_experiment_5_v3,2023.2.2,Win32,84.74576271,,,,,,,,,,,,,,,,215.5879,217.1407,217.1408,218.2233,return,0.1803,,91.14583333,0,45,45,14,1,FBP-YG-91.png,0.45,1.2,15,0.75,,,,,,,,,,,,,,,,,,,,,,,,,,,,,,,,,,,,,,,,,,,,,
,,,,,V3_093,21,Male,2025-01-30_15h04.55.456,jersey_experiment_5_v3,2023.2.2,Win32,84.74576271,,,,,,,,,,,,,,,,218.2236,219.5174,219.5174,220.7644,return,0.1903,,84.765625,0,46,46,44,1,FBP-OG-19.png,0.45,1.2,45,0.5,,,,,,,,,,,,,,,,,,,,,,,,,,,,,,,,,,,,,,,,,,,,,
,,,,,V3_093,21,Male,2025-01-30_15h04.55.456,jersey_experiment_5_v3,2023.2.2,Win32,84.74576271,,,,,,,,,,,,,,,,220.7647,222.3175,222.3175,223.3298,return,0.2356,,75.26041667,0,47,47,58,1,FBP-RB-19.png,0.43,1.2,59,0.75,,,,,,,,,,,,,,,,,,,,,,,,,,,,,,,,,,,,,,,,,,,,,
,,,,,V3_093,21,Male,2025-01-30_15h04.55.456,jersey_experiment_5_v3,2023.2.2,Win32,84.74576271,,,,,,,,,,,,,,,,223.33,224.6234,224.6234,227.2116,return,0.2768,,33.85416667,0,48,48,36,1,FBP-OG-18.png,0.37,1.2,37,0.5,,,,,,,,,,,,,,,,,,,,,,,,,,,,,,,,,,,,,,,,,,,,,
,,,,,V3_093,21,Male,2025-01-30_15h04.55.456,jersey_experiment_5_v3,2023.2.2,Win32,84.74576271,,,,,,,,,,,,,,,,227.2118,228.7648,228.7648,230.1296,return,0.2118,,38.15104167,0,49,49,10,1,FBP-YG-91.png,0.35,1.2,11,0.75,,,,,,,,,,,,,,,,,,,,,,,,,,,,,,,,,,,,,,,,,,,,,
,,,,,V3_093,21,Male,2025-01-30_15h04.55.456,jersey_experiment_5_v3,2023.2.2,Win32,84.74576271,,,,,,,,,,,,,,,,230.1298,231.6825,231.6826,234.2825,return,0.2426,,35.546875,0,50,50,6,1,FBP-YG-81.png,0.37,1.2,7,0.75,,,,,,,,,,,,,,,,,,,,,,,,,,,,,,,,,,,,,,,,,,,,,
,,,,,V3_093,21,Male,2025-01-30_15h04.55.456,jersey_experiment_5_v3,2023.2.2,Win32,84.74576271,,,,,,,,,,,,,,,,234.2829,235.8358,235.8358,237.1886,return,0.3296,,75.91145833,0,51,51,24,1,FBP-PT-18.png,0.45,1.2,25,0.75,,,,,,,,,,,,,,,,,,,,,,,,,,,,,,,,,,,,,,,,,,,,,
,,,,,V3_093,21,Male,2025-01-30_15h04.55.456,jersey_experiment_5_v3,2023.2.2,Win32,84.74576271,,,,,,,,,,,,,,,,237.1889,238.7418,238.7418,239.7416,return,0.2011,,83.984375,0,52,52,4,1,FBP-YG-71.png,0.45,1.2,5,0.75,,,,,,,,,,,,,,,,,,,,,,,,,,,,,,,,,,,,,,,,,,,,,
,,,,,V3_093,21,Male,2025-01-30_15h04.55.456,jersey_experiment_5_v3,2023.2.2,Win32,84.74576271,,,,,,,,,,,,,,,,239.7418,241.2948,241.295,242.3653,return,0.2145,,56.51041667,0,53,53,1,1,FBP-YG-71.png,0.37,1.2,2,0.75,,,,,,,,,,,,,,,,,,,,,,,,,,,,,,,,,,,,,,,,,,,,,
,,,,,V3_093,21,Male,2025-01-30_15h04.55.456,jersey_experiment_5_v3,2023.2.2,Win32,84.74576271,,,,,,,,,,,,,,,,242.3656,243.6595,243.6595,244.7183,return,0.1567,,54.55729167,0,54,54,42,1,FBP-OG-19.png,0.4,1.2,43,0.5,,,,,,,,,,,,,,,,,,,,,,,,,,,,,,,,,,,,,,,,,,,,,
,,,,,V3_093,21,Male,2025-01-30_15h04.55.456,jersey_experiment_5_v3,2023.2.2,Win32,84.74576271,,,,,,,,,,,,,,,,244.7185,246.2712,246.2712,247.8595,return,0.4704,,24.08854167,0,55,55,50,1,FBP-RB-18.png,0.35,1.2,51,0.75,,,,,,,,,,,,,,,,,,,,,,,,,,,,,,,,,,,,,,,,,,,,,
,,,,,V3_093,21,Male,2025-01-30_15h04.55.456,jersey_experiment_5_v3,2023.2.2,Win32,84.74576271,,,,,,,,,,,,,,,,247.86,249.4127,249.4127,250.6362,return,0.1706,,65.75520833,0,56,56,49,1,FBP-RB-17.png,0.45,1.2,50,0.75,,,,,,,,,,,,,,,,,,,,,,,,,,,,,,,,,,,,,,,,,,,,,
,,,,,V3_093,21,Male,2025-01-30_15h04.55.456,jersey_experiment_5_v3,2023.2.2,Win32,84.74576271,,,,,,,,,,,,,,,,250.6364,252.189,252.1891,253.2834,return,0.1187,,57.55208333,0,57,57,23,1,FBP-PT-18.png,0.43,1.2,24,0.75,,,,,,,,,,,,,,,,,,,,,,,,,,,,,,,,,,,,,,,,,,,,,
,,,,,V3_093,21,Male,2025-01-30_15h04.55.456,jersey_experiment_5_v3,2023.2.2,Win32,84.74576271,,,,,,,,,,,,,,,,253.2836,254.5773,254.5774,255.9539,return,0.1289,,24.73958333,0,58,58,31,1,FBP-OG-17.png,0.37,1.2,32,0.5,,,,,,,,,,,,,,,,,,,,,,,,,,,,,,,,,,,,,,,,,,,,,
,,,,,V3_093,21,Male,2025-01-30_15h04.55.456,jersey_experiment_5_v3,2023.2.2,Win32,84.74576271,,,,,,,,,,,,,,,,255.9544,257.248,257.2481,260.0953,return,0.1536,,68.48958333,0,59,59,43,1,FBP-OG-19.png,0.43,1.2,44,0.5,,,,,,,,,,,,,,,,,,,,,,,,,,,,,,,,,,,,,,,,,,,,,
,,,,,V3_093,21,Male,2025-01-30_15h04.55.456,jersey_experiment_5_v3,2023.2.2,Win32,84.74576271,,,,,,,,,,,,,,,,260.0968,261.3894,261.3894,262.5779,return,0.156,,33.46354167,,,,,,FBP-OG-81.png,0.35,1.2,36,0.5,0,0,0,35,1,,,,,,,,,,,,,,,,,,,,,,,,,,,,,,,,,,,,,,,,
,,,,,V3_093,21,Male,2025-01-30_15h04.55.456,jersey_experiment_5_v3,2023.2.2,Win32,84.74576271,,,,,,,,,,,,,,,,262.5781,264.1307,264.1309,265.2014,return,0.2593,,35.28645833,,,,,,FBP-PT-71.png,0.35,1.2,16,0.75,0,1,1,15,1,,,,,,,,,,,,,,,,,,,,,,,,,,,,,,,,,,,,,,,,
,,,,,V3_093,21,Male,2025-01-30_15h04.55.456,jersey_experiment_5_v3,2023.2.2,Win32,84.74576271,,,,,,,,,,,,,,,,265.2016,266.7543,266.7543,268.2838,return,0.1944,,37.109375,,,,,,FBP-PT-71.png,0.37,1.2,17,0.75,0,2,2,16,1,,,,,,,,,,,,,,,,,,,,,,,,,,,,,,,,,,,,,,,,
,,,,,V3_093,21,Male,2025-01-30_15h04.55.456,jersey_experiment_5_v3,2023.2.2,Win32,84.74576271,,,,,,,,,,,,,,,,268.284,269.8369,269.8369,271.2133,return,0.239,,76.43229167,,,,,,FBP-PT-91.png,0.43,1.2,29,0.75,0,3,3,28,1,,,,,,,,,,,,,,,,,,,,,,,,,,,,,,,,,,,,,,,,
,,,,,V3_093,21,Male,2025-01-30_15h04.55.456,jersey_experiment_5_v3,2023.2.2,Win32,84.74576271,,,,,,,,,,,,,,,,271.2136,272.5075,272.5076,273.5781,return,0.2196,,80.72916667,,,,,,FBP-OG-71.png,0.45,1.2,35,0.5,0,4,4,34,1,,,,,,,,,,,,,,,,,,,,,,,,,,,,,,,,,,,,,,,,
,,,,,V3_093,21,Male,2025-01-30_15h04.55.456,jersey_experiment_5_v3,2023.2.2,Win32,84.74576271,,,,,,,,,,,,,,,,273.5784,275.1311,275.1312,276.9431,return,0.129,,80.20833333,,,,,,FBP-YG-17.png,0.43,1.2,4,0.75,0,5,5,3,1,,,,,,,,,,,,,,,,,,,,,,,,,,,,,,,,,,,,,,,,
,,,,,V3_093,21,Male,2025-01-30_15h04.55.456,jersey_experiment_5_v3,2023.2.2,Win32,84.74576271,,,,,,,,,,,,,,,,276.9432,278.496,278.4961,279.5313,return,0.1946,,86.84895833,,,,,,FBP-YG-18.png,0.45,1.2,10,0.75,0,6,6,9,1,,,,,,,,,,,,,,,,,,,,,,,,,,,,,,,,,,,,,,,,
,,,,,V3_093,21,Male,2025-01-30_15h04.55.456,jersey_experiment_5_v3,2023.2.2,Win32,84.74576271,,,,,,,,,,,,,,,,279.5315,281.0842,281.0843,282.002,return,0.3767,,88.671875,,,,,,FBP-RB-81.png,0.43,1.2,54,0.75,0,7,7,53,1,,,,,,,,,,,,,,,,,,,,,,,,,,,,,,,,,,,,,,,,
,,,,,V3_093,21,Male,2025-01-30_15h04.55.456,jersey_experiment_5_v3,2023.2.2,Win32,84.74576271,,,,,,,,,,,,,,,,282.0023,283.555,283.5551,285.1787,return,0.1823,,49.86979167,,,,,,FBP-PT-91.png,0.4,1.2,28,0.75,0,8,8,27,1,,,,,,,,,,,,,,,,,,,,,,,,,,,,,,,,,,,,,,,,
,,,,,V3_093,21,Male,2025-01-30_15h04.55.456,jersey_experiment_5_v3,2023.2.2,Win32,84.74576271,,,,,,,,,,,,,,,,285.1789,286.7317,286.7317,287.9671,return,0.1317,,55.33854167,,,,,,FBP-RB-71.png,0.35,1.2,46,0.75,0,9,9,45,1,,,,,,,,,,,,,,,,,,,,,,,,,,,,,,,,,,,,,,,,
,,,,,V3_093,21,Male,2025-01-30_15h04.55.456,jersey_experiment_5_v3,2023.2.2,Win32,84.74576271,,,,,,,,,,,,,,,,287.9674,289.2613,289.2614,290.367,return,0.2026,,45.703125,,,,,,FBP-OG-81.png,0.37,1.2,37,0.5,0,10,10,36,1,,,,,,,,,,,,,,,,,,,,,,,,,,,,,,,,,,,,,,,,
,,,,,V3_093,21,Male,2025-01-30_15h04.55.456,jersey_experiment_5_v3,2023.2.2,Win32,84.74576271,,,,,,,,,,,,,,,,290.3672,291.9201,291.9201,292.9906,return,0.1998,,82.8125,,,,,,FBP-RB-71.png,0.45,1.2,50,0.75,0,11,11,49,1,,,,,,,,,,,,,,,,,,,,,,,,,,,,,,,,,,,,,,,,
,,,,,V3_093,21,Male,2025-01-30_15h04.55.456,jersey_experiment_5_v3,2023.2.2,Win32,84.74576271,,,,,,,,,,,,,,,,292.9908,294.2848,294.2848,295.4731,return,0.2037,,75.52083333,,,,,,FBP-OG-71.png,0.43,1.2,34,0.5,0,12,12,33,1,,,,,,,,,,,,,,,,,,,,,,,,,,,,,,,,,,,,,,,,
,,,,,V3_093,21,Male,2025-01-30_15h04.55.456,jersey_experiment_5_v3,2023.2.2,Win32,84.74576271,,,,,,,,,,,,,,,,295.4733,297.0261,297.0262,297.7086,return,0.3467,,75.52083333,,,,,,FBP-PT-71.png,0.43,1.2,19,0.75,0,13,13,18,1,,,,,,,,,,,,,,,,,,,,,,,,,,,,,,,,,,,,,,,,
,,,,,V3_093,21,Male,2025-01-30_15h04.55.456,jersey_experiment_5_v3,2023.2.2,Win32,84.74576271,,,,,,,,,,,,,,,,297.7088,299.2616,299.2616,302.2852,return,0.1777,,54.296875,,,,,,FBP-PT-81.png,0.35,1.2,21,0.75,0,14,14,20,1,,,,,,,,,,,,,,,,,,,,,,,,,,,,,,,,,,,,,,,,
,,,,,V3_093,21,Male,2025-01-30_15h04.55.456,jersey_experiment_5_v3,2023.2.2,Win32,84.74576271,,,,,,,,,,,,,,,,302.2854,303.8381,303.8382,307.1206,return,0.6588,,64.32291667,,,,,,FBP-PT-81.png,0.37,1.2,22,0.75,0,15,15,21,1,,,,,,,,,,,,,,,,,,,,,,,,,,,,,,,,,,,,,,,,
,,,,,V3_093,21,Male,2025-01-30_15h04.55.456,jersey_experiment_5_v3,2023.2.2,Win32,84.74576271,,,,,,,,,,,,,,,,307.1209,308.6737,308.6737,310.1912,return,0.1778,,58.72395833,,,,,,FBP-RB-91.png,0.4,1.2,58,0.75,0,16,16,57,1,,,,,,,,,,,,,,,,,,,,,,,,,,,,,,,,,,,,,,,,
,,,,,V3_093,21,Male,2025-01-30_15h04.55.456,jersey_experiment_5_v3,2023.2.2,Win32,84.74576271,,,,,,,,,,,,,,,,310.1916,311.4856,311.4856,313.7091,return,0.1448,,24.609375,,,,,,FBP-OG-71.png,0.35,1.2,31,0.5,0,17,17,30,1,,,,,,,,,,,,,,,,,,,,,,,,,,,,,,,,,,,,,,,,
,,,,,V3_093,21,Male,2025-01-30_15h04.55.456,jersey_experiment_5_v3,2023.2.2,Win32,84.74576271,,,,,,,,,,,,,,,,313.7094,315.2622,315.2622,316.9915,return,1.0376,,19.140625,,,,,,FBP-RB-91.png,0.35,1.2,56,0.75,0,18,18,55,1,,,,,,,,,,,,,,,,,,,,,,,,,,,,,,,,,,,,,,,,
,,,,,V3_093,21,Male,2025-01-30_15h04.55.456,jersey_experiment_5_v3,2023.2.2,Win32,84.74576271,,,,,,,,,,,,,,,,316.9917,318.2857,318.2857,322.686,return,2.8743,,63.54166667,,,,,,FBP-OG-91.png,0.45,1.2,45,0.5,0,19,19,44,1,,,,,,,,,,,,,,,,,,,,,,,,,,,,,,,,,,,,,,,,
,,,,,V3_093,21,Male,2025-01-30_15h04.55.456,jersey_experiment_5_v3,2023.2.2,Win32,84.74576271,,,,,,,,,,,,,,,,322.6863,324.2387,324.2388,327.2155,return,1.6379,,49.73958333,,,,,,FBP-RB-71.png,0.37,1.2,47,0.75,0,20,20,46,1,,,,,,,,,,,,,,,,,,,,,,,,,,,,,,,,,,,,,,,,
,,,,,V3_093,21,Male,2025-01-30_15h04.55.456,jersey_experiment_5_v3,2023.2.2,Win32,84.74576271,,,,,,,,,,,,,,,,327.2158,328.7685,328.7685,329.5214,return,0.4004,,49.73958333,,,,,,FBP-RB-81.png,0.37,1.2,52,0.75,0,21,21,51,1,,,,,,,,,,,,,,,,,,,,,,,,,,,,,,,,,,,,,,,,
,,,,,V3_093,21,Male,2025-01-30_15h04.55.456,jersey_experiment_5_v3,2023.2.2,Win32,84.74576271,,,,,,,,,,,,,,,,329.5217,331.0747,331.0747,332.2861,return,0.2024,,65.49479167,,,,,,FBP-PT-91.png,0.45,1.2,30,0.75,0,22,22,29,1,,,,,,,,,,,,,,,,,,,,,,,,,,,,,,,,,,,,,,,,
,,,,,V3_093,21,Male,2025-01-30_15h04.55.456,jersey_experiment_5_v3,2023.2.2,Win32,84.74576271,,,,,,,,,,,,,,,,332.2863,333.5806,333.5806,335.7099,return,0.1569,,46.74479167,,,,,,FBP-OG-91.png,0.37,1.2,42,0.5,0,23,23,41,1,,,,,,,,,,,,,,,,,,,,,,,,,,,,,,,,,,,,,,,,
,,,,,V3_093,21,Male,2025-01-30_15h04.55.456,jersey_experiment_5_v3,2023.2.2,Win32,84.74576271,,,,,,,,,,,,,,,,335.7102,337.0041,337.0042,338.7336,return,0.6397,,43.88020833,,,,,,FBP-OG-71.png,0.4,1.2,33,0.5,0,24,24,32,1,,,,,,,,,,,,,,,,,,,,,,,,,,,,,,,,,,,,,,,,
,,,,,V3_093,21,Male,2025-01-30_15h04.55.456,jersey_experiment_5_v3,2023.2.2,Win32,84.74576271,,,,,,,,,,,,,,,,338.7338,340.2865,340.2866,342.0983,return,0.8107,,69.01041667,,,,,,FBP-RB-91.png,0.43,1.2,59,0.75,0,25,25,58,1,,,,,,,,,,,,,,,,,,,,,,,,,,,,,,,,,,,,,,,,
,,,,,V3_093,21,Male,2025-01-30_15h04.55.456,jersey_experiment_5_v3,2023.2.2,Win32,84.74576271,,,,,,,,,,,,,,,,342.0985,343.3927,343.3927,345.2279,return,1.065,,83.33333333,,,,,,FBP-OG-81.png,0.45,1.2,40,0.5,0,26,26,39,1,,,,,,,,,,,,,,,,,,,,,,,,,,,,,,,,,,,,,,,,
,,,,,V3_093,21,Male,2025-01-30_15h04.55.456,jersey_experiment_5_v3,2023.2.2,Win32,84.74576271,,,,,,,,,,,,,,,,345.2281,346.7808,346.7809,350.7223,return,0.5066,,65.36458333,,,,,,FBP-YG-17.png,0.35,1.2,1,0.75,0,27,27,0,1,,,,,,,,,,,,,,,,,,,,,,,,,,,,,,,,,,,,,,,,
,,,,,V3_093,21,Male,2025-01-30_15h04.55.456,jersey_experiment_5_v3,2023.2.2,Win32,84.74576271,,,,,,,,,,,,,,,,350.7227,352.2751,352.2752,354.1458,return,0.2119,,54.94791667,,,,,,FBP-YG-18.png,0.37,1.2,7,0.75,0,28,28,6,1,,,,,,,,,,,,,,,,,,,,,,,,,,,,,,,,,,,,,,,,
,,,,,V3_093,21,Male,2025-01-30_15h04.55.456,jersey_experiment_5_v3,2023.2.2,Win32,84.74576271,,,,,,,,,,,,,,,,354.1462,355.699,355.699,357.2754,return,0.1008,,49.86979167,,,,,,FBP-PT-91.png,0.35,1.2,26,0.75,0,29,29,25,1,,,,,,,,,,,,,,,,,,,,,,,,,,,,,,,,,,,,,,,,
,,,,,V3_093,21,Male,2025-01-30_15h04.55.456,jersey_experiment_5_v3,2023.2.2,Win32,84.74576271,,,,,,,,,,,,,,,,357.2756,358.8286,358.8286,360.2401,return,0.1666,,69.66145833,,,,,,FBP-YG-19.png,0.43,1.2,14,0.75,0,30,30,13,1,,,,,,,,,,,,,,,,,,,,,,,,,,,,,,,,,,,,,,,,
,,,,,V3_093,21,Male,2025-01-30_15h04.55.456,jersey_experiment_5_v3,2023.2.2,Win32,84.74576271,,,,,,,,,,,,,,,,360.2405,361.5345,361.5346,362.6286,return,0.1301,,67.1875,,,,,,FBP-OG-81.png,0.4,1.2,38,0.5,0,31,31,37,1,,,,,,,,,,,,,,,,,,,,,,,,,,,,,,,,,,,,,,,,
,,,,,V3_093,21,Male,2025-01-30_15h04.55.456,jersey_experiment_5_v3,2023.2.2,Win32,84.74576271,,,,,,,,,,,,,,,,362.6289,364.1816,364.1816,366.0288,return,0.2036,,42.96875,,,,,,FBP-RB-91.png,0.37,1.2,57,0.75,0,32,32,56,1,,,,,,,,,,,,,,,,,,,,,,,,,,,,,,,,,,,,,,,,
,,,,,V3_093,21,Male,2025-01-30_15h04.55.456,jersey_experiment_5_v3,2023.2.2,Win32,84.74576271,,,,,,,,,,,,,,,,366.0291,367.5817,367.5818,369.3114,return,0.1427,,46.35416667,,,,,,FBP-YG-17.png,0.4,1.2,3,0.75,0,33,33,2,1,,,,,,,,,,,,,,,,,,,,,,,,,,,,,,,,,,,,,,,,
,,,,,V3_093,21,Male,2025-01-30_15h04.55.456,jersey_experiment_5_v3,2023.2.2,Win32,84.74576271,,,,,,,,,,,,,,,,369.3117,370.8644,370.8644,373.3466,return,1.2581,,49.73958333,,,,,,FBP-PT-71.png,0.4,1.2,18,0.75,0,34,34,17,1,,,,,,,,,,,,,,,,,,,,,,,,,,,,,,,,,,,,,,,,
,,,,,V3_093,21,Male,2025-01-30_15h04.55.456,jersey_experiment_5_v3,2023.2.2,Win32,84.74576271,,,,,,,,,,,,,,,,373.3468,374.8996,374.8997,376.3821,return,0.051,,30.20833333,,,,,,FBP-YG-19.png,0.35,1.2,11,0.75,0,35,35,10,1,,,,,,,,,,,,,,,,,,,,,,,,,,,,,,,,,,,,,,,,
,,,,,V3_093,21,Male,2025-01-30_15h04.55.456,jersey_experiment_5_v3,2023.2.2,Win32,84.74576271,,,,,,,,,,,,,,,,376.3824,377.9352,377.9352,378.8292,return,0.1459,,70.703125,,,,,,FBP-YG-17.png,0.45,1.2,5,0.75,0,36,36,4,1,,,,,,,,,,,,,,,,,,,,,,,,,,,,,,,,,,,,,,,,
,,,,,V3_093,21,Male,2025-01-30_15h04.55.456,jersey_experiment_5_v3,2023.2.2,Win32,84.74576271,,,,,,,,,,,,,,,,378.8294,380.3821,380.3821,385.8412,return,1.8124,,56.11979167,,,,,,FBP-YG-19.png,0.37,1.2,12,0.75,0,37,37,11,1,,,,,,,,,,,,,,,,,,,,,,,,,,,,,,,,,,,,,,,,
,,,,,V3_093,21,Male,2025-01-30_15h04.55.456,jersey_experiment_5_v3,2023.2.2,Win32,84.74576271,,,,,,,,,,,,,,,,385.8414,387.3944,387.3945,388.4413,return,0.2404,,87.5,,,,,,FBP-RB-91.png,0.45,1.2,60,0.75,0,38,38,59,1,,,,,,,,,,,,,,,,,,,,,,,,,,,,,,,,,,,,,,,,
,,,,,V3_093,21,Male,2025-01-30_15h04.55.456,jersey_experiment_5_v3,2023.2.2,Win32,84.74576271,,,,,,,,,,,,,,,,388.4416,389.9944,389.9944,391.3003,return,0.0563,,75,,,,,,FBP-PT-91.png,0.37,1.2,27,0.75,0,39,39,26,1,,,,,,,,,,,,,,,,,,,,,,,,,,,,,,,,,,,,,,,,
,,,,,V3_093,21,Male,2025-01-30_15h04.55.456,jersey_experiment_5_v3,2023.2.2,Win32,84.74576271,,,,,,,,,,,,,,,,391.3006,392.8534,392.8534,396.5124,return,2.5075,,39.19270833,,,,,,FBP-RB-81.png,0.35,1.2,51,0.75,0,40,40,50,1,,,,,,,,,,,,,,,,,,,,,,,,,,,,,,,,,,,,,,,,
,,,,,V3_093,21,Male,2025-01-30_15h04.55.456,jersey_experiment_5_v3,2023.2.2,Win32,84.74576271,,,,,,,,,,,,,,,,396.5126,397.8063,397.8064,400.03,return,0.977,,89.84375,,,,,,FBP-OG-81.png,0.43,1.2,39,0.5,0,41,41,38,1,,,,,,,,,,,,,,,,,,,,,,,,,,,,,,,,,,,,,,,,
,,,,,V3_093,21,Male,2025-01-30_15h04.55.456,jersey_experiment_5_v3,2023.2.2,Win32,84.74576271,,,,,,,,,,,,,,,,400.0302,401.5829,401.583,402.8302,return,0.1687,,91.796875,,,,,,FBP-PT-71.png,0.45,1.2,20,0.75,0,42,42,19,1,,,,,,,,,,,,,,,,,,,,,,,,,,,,,,,,,,,,,,,,
,,,,,V3_093,21,Male,2025-01-30_15h04.55.456,jersey_experiment_5_v3,2023.2.2,Win32,84.74576271,,,,,,,,,,,,,,,,402.8304,404.3829,404.383,405.5009,return,0.967,,86.06770833,,,,,,FBP-RB-71.png,0.43,1.2,49,0.75,0,43,43,48,1,,,,,,,,,,,,,,,,,,,,,,,,,,,,,,,,,,,,,,,,
,,,,,V3_093,21,Male,2025-01-30_15h04.55.456,jersey_experiment_5_v3,2023.2.2,Win32,84.74576271,,,,,,,,,,,,,,,,405.5011,406.795,406.795,408.0186,return,0.6358,,90.36458333,,,,,,FBP-OG-91.png,0.43,1.2,44,0.5,0,44,44,43,1,,,,,,,,,,,,,,,,,,,,,,,,,,,,,,,,,,,,,,,,
,,,,,V3_093,21,Male,2025-01-30_15h04.55.456,jersey_experiment_5_v3,2023.2.2,Win32,84.74576271,,,,,,,,,,,,,,,,408.0188,409.5716,409.5716,410.8774,return,0.1791,,86.84895833,,,,,,FBP-RB-81.png,0.4,1.2,53,0.75,0,45,45,52,1,,,,,,,,,,,,,,,,,,,,,,,,,,,,,,,,,,,,,,,,
,,,,,V3_093,21,Male,2025-01-30_15h04.55.456,jersey_experiment_5_v3,2023.2.2,Win32,84.74576271,,,,,,,,,,,,,,,,410.8777,412.4305,412.4305,413.6189,return,0.3898,,83.59375,,,,,,FBP-PT-81.png,0.43,1.2,24,0.75,0,46,46,23,1,,,,,,,,,,,,,,,,,,,,,,,,,,,,,,,,,,,,,,,,
,,,,,V3_093,21,Male,2025-01-30_15h04.55.456,jersey_experiment_5_v3,2023.2.2,Win32,84.74576271,,,,,,,,,,,,,,,,413.6191,415.1719,415.1719,416.3364,return,0.6471,,92.83854167,,,,,,FBP-YG-19.png,0.45,1.2,15,0.75,0,47,47,14,1,,,,,,,,,,,,,,,,,,,,,,,,,,,,,,,,,,,,,,,,
,,,,,V3_093,21,Male,2025-01-30_15h04.55.456,jersey_experiment_5_v3,2023.2.2,Win32,84.74576271,,,,,,,,,,,,,,,,416.3367,417.8894,417.8895,419.3483,return,0.7857,,86.58854167,,,,,,FBP-YG-17.png,0.37,1.2,2,0.75,0,48,48,1,1,,,,,,,,,,,,,,,,,,,,,,,,,,,,,,,,,,,,,,,,
,,,,,V3_093,21,Male,2025-01-30_15h04.55.456,jersey_experiment_5_v3,2023.2.2,Win32,84.74576271,,,,,,,,,,,,,,,,419.3486,420.9014,420.9014,421.9131,return,0.2677,,89.19270833,,,,,,FBP-RB-71.png,0.4,1.2,48,0.75,0,49,49,47,1,,,,,,,,,,,,,,,,,,,,,,,,,,,,,,,,,,,,,,,,
,,,,,V3_093,21,Male,2025-01-30_15h04.55.456,jersey_experiment_5_v3,2023.2.2,Win32,84.74576271,,,,,,,,,,,,,,,,421.9134,423.466,423.4661,425.4426,return,0.1753,,85.546875,,,,,,FBP-YG-18.png,0.4,1.2,8,0.75,0,50,50,7,1,,,,,,,,,,,,,,,,,,,,,,,,,,,,,,,,,,,,,,,,
,,,,,V3_093,21,Male,2025-01-30_15h04.55.456,jersey_experiment_5_v3,2023.2.2,Win32,84.74576271,,,,,,,,,,,,,,,,425.4428,426.737,426.737,428.0193,return,0.1783,,82.94270833,,,,,,FBP-OG-91.png,0.4,1.2,43,0.5,0,51,51,42,1,,,,,,,,,,,,,,,,,,,,,,,,,,,,,,,,,,,,,,,,
,,,,,V3_093,21,Male,2025-01-30_15h04.55.456,jersey_experiment_5_v3,2023.2.2,Win32,84.74576271,,,,,,,,,,,,,,,,428.0195,429.3134,429.3134,431.537,return,0.4798,,65.36458333,,,,,,FBP-OG-91.png,0.35,1.2,41,0.5,0,52,52,40,1,,,,,,,,,,,,,,,,,,,,,,,,,,,,,,,,,,,,,,,,
,,,,,V3_093,21,Male,2025-01-30_15h04.55.456,jersey_experiment_5_v3,2023.2.2,Win32,84.74576271,,,,,,,,,,,,,,,,431.5372,432.8311,432.8312,433.8195,return,0.1566,,69.40104167,,,,,,FBP-OG-71.png,0.37,1.2,32,0.5,0,53,53,31,1,,,,,,,,,,,,,,,,,,,,,,,,,,,,,,,,,,,,,,,,
,,,,,V3_093,21,Male,2025-01-30_15h04.55.456,jersey_experiment_5_v3,2023.2.2,Win32,84.74576271,,,,,,,,,,,,,,,,433.8197,435.3728,435.3728,437.5373,return,1.1773,,89.97395833,,,,,,FBP-RB-81.png,0.45,1.2,55,0.75,0,54,54,54,1,,,,,,,,,,,,,,,,,,,,,,,,,,,,,,,,,,,,,,,,
,,,,,V3_093,21,Male,2025-01-30_15h04.55.456,jersey_experiment_5_v3,2023.2.2,Win32,84.74576271,,,,,,,,,,,,,,,,437.5376,439.0903,439.0903,440.7845,return,0.1767,,88.15104167,,,,,,FBP-PT-81.png,0.4,1.2,23,0.75,0,55,55,22,1,,,,,,,,,,,,,,,,,,,,,,,,,,,,,,,,,,,,,,,,
,,,,,V3_093,21,Male,2025-01-30_15h04.55.456,jersey_experiment_5_v3,2023.2.2,Win32,84.74576271,,,,,,,,,,,,,,,,440.7848,442.3375,442.3375,444.1257,return,0.5778,,74.21875,,,,,,FBP-YG-19.png,0.4,1.2,13,0.75,0,56,56,12,1,,,,,,,,,,,,,,,,,,,,,,,,,,,,,,,,,,,,,,,,
,,,,,V3_093,21,Male,2025-01-30_15h04.55.456,jersey_experiment_5_v3,2023.2.2,Win32,84.74576271,,,,,,,,,,,,,,,,444.1259,445.6789,445.6789,446.467,return,0.1412,,81.38020833,,,,,,FBP-YG-18.png,0.43,1.2,9,0.75,0,57,57,8,1,,,,,,,,,,,,,,,,,,,,,,,,,,,,,,,,,,,,,,,,
,,,,,V3_093,21,Male,2025-01-30_15h04.55.456,jersey_experiment_5_v3,2023.2.2,Win32,84.74576271,,,,,,,,,,,,,,,,446.4672,448.02,448.02,449.5847,return,0.2131,,67.83854167,,,,,,FBP-YG-18.png,0.35,1.2,6,0.75,0,58,58,5,1,,,,,,,,,,,,,,,,,,,,,,,,,,,,,,,,,,,,,,,,
,,,,,V3_093,21,Male,2025-01-30_15h04.55.456,jersey_experiment_5_v3,2023.2.2,Win32,84.74576271,,,,,,,,,,,,,,,,449.585,451.138,451.138,452.1143,return,0.2577,,84.24479167,,,,,,FBP-PT-81.png,0.45,1.2,25,0.75,0,59,59,24,1,,,,,,,,,,,,,,,,,,,,,,,,,,,,,,,,,,,,,,,,
,,,,,V3_093,21,Male,2025-01-30_15h04.55.456,jersey_experiment_5_v3,2023.2.2,Win32,84.74576271,,,,,,,,,,,,,,,,,,,,,,,,,,,,,,,,,,,,,,,452.1144,572.1069,,,,,,,,,,,,,,,,,,,,,,,,,,,,,,,,,,,,,,
,,,,,V3_093,21,Male,2025-01-30_15h04.55.456,jersey_experiment_5_v3,2023.2.2,Win32,84.74576271,,,,,,,,,,,,,,,,,,,,,,,,,,,,,,,,,,,,,,,,,572.107,584.8136,return,12.6969,,,,,,,,,,,,,,,,,,,,,,,,,,,,,,,,,,
,,,,,V3_093,21,Male,2025-01-30_15h04.55.456,jersey_experiment_5_v3,2023.2.2,Win32,84.74576271,,,,,,,,,,,,,,,,584.8156,586.1078,586.1078,590.3313,return,2.748,,55.20833333,,,,,,FBP-YG-91.png,0.35,1.2,11,0.5,,,,,,,,,,,,,0,0,0,10,1,,,,,,,,,,,,,,,,,,,,,,,,,,,,
,,,,,V3_093,21,Male,2025-01-30_15h04.55.456,jersey_experiment_5_v3,2023.2.2,Win32,84.74576271,,,,,,,,,,,,,,,,590.3316,591.6253,591.6254,593.2961,return,0.1552,,78.38541667,,,,,,FBP-PT-19.png,0.4,1.2,28,0.5,,,,,,,,,,,,,0,1,1,27,1,,,,,,,,,,,,,,,,,,,,,,,,,,,,
,,,,,V3_093,21,Male,2025-01-30_15h04.55.456,jersey_experiment_5_v3,2023.2.2,Win32,84.74576271,,,,,,,,,,,,,,,,593.2963,594.8492,594.8492,597.5552,return,0.1417,,56.77083333,,,,,,FBP-OG-19.png,0.35,1.2,41,0.75,,,,,,,,,,,,,0,2,2,40,1,,,,,,,,,,,,,,,,,,,,,,,,,,,,
,,,,,V3_093,21,Male,2025-01-30_15h04.55.456,jersey_experiment_5_v3,2023.2.2,Win32,84.74576271,,,,,,,,,,,,,,,,597.5553,598.8493,598.8494,600.3317,return,0.7349,,49.47916667,,,,,,FBP-RB-18.png,0.35,1.2,51,0.5,,,,,,,,,,,,,0,3,3,50,1,,,,,,,,,,,,,,,,,,,,,,,,,,,,
,,,,,V3_093,21,Male,2025-01-30_15h04.55.456,jersey_experiment_5_v3,2023.2.2,Win32,84.74576271,,,,,,,,,,,,,,,,600.332,601.6258,601.6259,602.9905,return,0.1331,,81.51041667,,,,,,FBP-RB-19.png,0.43,1.2,59,0.5,,,,,,,,,,,,,0,4,4,58,1,,,,,,,,,,,,,,,,,,,,,,,,,,,,
,,,,,V3_093,21,Male,2025-01-30_15h04.55.456,jersey_experiment_5_v3,2023.2.2,Win32,84.74576271,,,,,,,,,,,,,,,,602.9908,604.2847,604.2847,604.9906,return,0.1552,,84.63541667,,,,,,FBP-PT-18.png,0.4,1.2,23,0.5,,,,,,,,,,,,,0,5,5,22,1,,,,,,,,,,,,,,,,,,,,,,,,,,,,
,,,,,V3_093,21,Male,2025-01-30_15h04.55.456,jersey_experiment_5_v3,2023.2.2,Win32,84.74576271,,,,,,,,,,,,,,,,604.9909,606.2848,606.285,608.285,return,0.1675,,99.73958333,,,,,,FBP-PT-17.png,0.45,1.2,20,0.5,,,,,,,,,,,,,0,6,6,19,1,,,,,,,,,,,,,,,,,,,,,,,,,,,,
,,,,,V3_093,21,Male,2025-01-30_15h04.55.456,jersey_experiment_5_v3,2023.2.2,Win32,84.74576271,,,,,,,,,,,,,,,,608.2852,609.579,609.579,610.9321,return,0.5881,,82.16145833,,,,,,FBP-YG-91.png,0.4,1.2,13,0.5,,,,,,,,,,,,,0,7,7,12,1,,,,,,,,,,,,,,,,,,,,,,,,,,,,
,,,,,V3_093,21,Male,2025-01-30_15h04.55.456,jersey_experiment_5_v3,2023.2.2,Win32,84.74576271,,,,,,,,,,,,,,,,610.9323,612.2262,612.2263,613.0499,return,0.135,,94.921875,,,,,,FBP-RB-17.png,0.43,1.2,49,0.5,,,,,,,,,,,,,0,8,8,48,1,,,,,,,,,,,,,,,,,,,,,,,,,,,,
,,,,,V3_093,21,Male,2025-01-30_15h04.55.456,jersey_experiment_5_v3,2023.2.2,Win32,84.74576271,,,,,,,,,,,,,,,,613.0502,614.3439,614.344,615.4381,return,0.3686,,80.72916667,,,,,,FBP-YG-71.png,0.4,1.2,3,0.5,,,,,,,,,,,,,0,9,9,2,1,,,,,,,,,,,,,,,,,,,,,,,,,,,,
,,,,,V3_093,21,Male,2025-01-30_15h04.55.456,jersey_experiment_5_v3,2023.2.2,Win32,84.74576271,,,,,,,,,,,,,,,,615.4384,616.9912,616.9912,618.2382,return,0.0488,,81.77083333,,,,,,FBP-OG-18.png,0.4,1.2,38,0.75,,,,,,,,,,,,,0,10,10,37,1,,,,,,,,,,,,,,,,,,,,,,,,,,,,
,,,,,V3_093,21,Male,2025-01-30_15h04.55.456,jersey_experiment_5_v3,2023.2.2,Win32,84.74576271,,,,,,,,,,,,,,,,618.2385,619.5324,619.5325,622.1559,return,0.7203,,37.36979167,,,,,,FBP-RB-19.png,0.35,1.2,56,0.5,,,,,,,,,,,,,0,11,11,55,1,,,,,,,,,,,,,,,,,,,,,,,,,,,,
,,,,,V3_093,21,Male,2025-01-30_15h04.55.456,jersey_experiment_5_v3,2023.2.2,Win32,84.74576271,,,,,,,,,,,,,,,,622.1562,623.4503,623.4503,624.9443,return,0.1078,,86.328125,,,,,,FBP-RB-18.png,0.45,1.2,55,0.5,,,,,,,,,,,,,0,12,12,54,1,,,,,,,,,,,,,,,,,,,,,,,,,,,,
,,,,,V3_093,21,Male,2025-01-30_15h04.55.456,jersey_experiment_5_v3,2023.2.2,Win32,84.74576271,,,,,,,,,,,,,,,,624.9445,626.4858,626.4858,627.0267,return,0.1284,,92.05729167,,,,,,FBP-OG-17.png,0.45,1.2,35,0.75,,,,,,,,,,,,,0,13,13,34,1,,,,,,,,,,,,,,,,,,,,,,,,,,,,
,,,,,V3_093,21,Male,2025-01-30_15h04.55.456,jersey_experiment_5_v3,2023.2.2,Win32,84.74576271,,,,,,,,,,,,,,,,627.0269,628.5799,628.58,629.662,return,0.1537,,49.86979167,,,,,,FBP-OG-18.png,0.37,1.2,37,0.75,,,,,,,,,,,,,0,14,14,36,1,,,,,,,,,,,,,,,,,,,,,,,,,,,,
,,,,,V3_093,21,Male,2025-01-30_15h04.55.456,jersey_experiment_5_v3,2023.2.2,Win32,84.74576271,,,,,,,,,,,,,,,,629.6624,630.9563,630.9563,633.8388,return,1.4033,,98.95833333,,,,,,FBP-PT-18.png,0.45,1.2,25,0.5,,,,,,,,,,,,,0,15,15,24,1,,,,,,,,,,,,,,,,,,,,,,,,,,,,
,,,,,V3_093,21,Male,2025-01-30_15h04.55.456,jersey_experiment_5_v3,2023.2.2,Win32,84.74576271,,,,,,,,,,,,,,,,633.8389,635.3919,635.3919,636.1094,return,0.0365,,78.77604167,,,,,,FBP-OG-19.png,0.4,1.2,43,0.75,,,,,,,,,,,,,0,16,16,42,1,,,,,,,,,,,,,,,,,,,,,,,,,,,,
,,,,,V3_093,21,Male,2025-01-30_15h04.55.456,jersey_experiment_5_v3,2023.2.2,Win32,84.74576271,,,,,,,,,,,,,,,,636.1096,637.4037,637.4037,638.8626,return,0.192,,91.40625,,,,,,FBP-PT-19.png,0.45,1.2,30,0.5,,,,,,,,,,,,,0,17,17,29,1,,,,,,,,,,,,,,,,,,,,,,,,,,,,
,,,,,V3_093,21,Male,2025-01-30_15h04.55.456,jersey_experiment_5_v3,2023.2.2,Win32,84.74576271,,,,,,,,,,,,,,,,638.8629,640.4156,640.4157,642.5098,return,0.1221,,78.64583333,,,,,,FBP-OG-19.png,0.37,1.2,42,0.75,,,,,,,,,,,,,0,18,18,41,1,,,,,,,,,,,,,,,,,,,,,,,,,,,,
,,,,,V3_093,21,Male,2025-01-30_15h04.55.456,jersey_experiment_5_v3,2023.2.2,Win32,84.74576271,,,,,,,,,,,,,,,,642.51,643.8038,643.8038,645.3804,return,0.6827,,75.390625,,,,,,FBP-PT-17.png,0.37,1.2,17,0.5,,,,,,,,,,,,,0,19,19,16,1,,,,,,,,,,,,,,,,,,,,,,,,,,,,
,,,,,V3_093,21,Male,2025-01-30_15h04.55.456,jersey_experiment_5_v3,2023.2.2,Win32,84.74576271,,,,,,,,,,,,,,,,645.3807,646.9335,646.9335,647.6746,return,0.219,,82.16145833,,,,,,FBP-OG-19.png,0.43,1.2,44,0.75,,,,,,,,,,,,,0,20,20,43,1,,,,,,,,,,,,,,,,,,,,,,,,,,,,
,,,,,V3_093,21,Male,2025-01-30_15h04.55.456,jersey_experiment_5_v3,2023.2.2,Win32,84.74576271,,,,,,,,,,,,,,,,647.6749,649.2276,649.2277,649.8041,return,0.2177,,85.80729167,,,,,,FBP-OG-17.png,0.4,1.2,33,0.75,,,,,,,,,,,,,0,21,21,32,1,,,,,,,,,,,,,,,,,,,,,,,,,,,,
,,,,,V3_093,21,Male,2025-01-30_15h04.55.456,jersey_experiment_5_v3,2023.2.2,Win32,84.74576271,,,,,,,,,,,,,,,,649.8042,651.0983,651.0984,651.7218,return,0.1718,,85.41666667,,,,,,FBP-PT-17.png,0.4,1.2,18,0.5,,,,,,,,,,,,,0,22,22,17,1,,,,,,,,,,,,,,,,,,,,,,,,,,,,
,,,,,V3_093,21,Male,2025-01-30_15h04.55.456,jersey_experiment_5_v3,2023.2.2,Win32,84.74576271,,,,,,,,,,,,,,,,651.7221,653.2748,653.2749,654.4513,return,0.706,,89.19270833,,,,,,FBP-OG-18.png,0.43,1.2,39,0.75,,,,,,,,,,,,,0,23,23,38,1,,,,,,,,,,,,,,,,,,,,,,,,,,,,
,,,,,V3_093,21,Male,2025-01-30_15h04.55.456,jersey_experiment_5_v3,2023.2.2,Win32,84.74576271,,,,,,,,,,,,,,,,654.4516,656.0043,656.0044,656.6397,return,0.1317,,90.36458333,,,,,,FBP-OG-19.png,0.45,1.2,45,0.75,,,,,,,,,,,,,0,24,24,44,1,,,,,,,,,,,,,,,,,,,,,,,,,,,,
,,,,,V3_093,21,Male,2025-01-30_15h04.55.456,jersey_experiment_5_v3,2023.2.2,Win32,84.74576271,,,,,,,,,,,,,,,,656.6399,657.9337,657.9339,658.6398,return,0.1795,,91.796875,,,,,,FBP-YG-81.png,0.43,1.2,9,0.5,,,,,,,,,,,,,0,25,25,8,1,,,,,,,,,,,,,,,,,,,,,,,,,,,,
,,,,,V3_093,21,Male,2025-01-30_15h04.55.456,jersey_experiment_5_v3,2023.2.2,Win32,84.74576271,,,,,,,,,,,,,,,,658.64,659.9339,659.9339,660.7222,return,0.1651,,93.22916667,,,,,,FBP-YG-71.png,0.43,1.2,4,0.5,,,,,,,,,,,,,0,26,26,3,1,,,,,,,,,,,,,,,,,,,,,,,,,,,,
,,,,,V3_093,21,Male,2025-01-30_15h04.55.456,jersey_experiment_5_v3,2023.2.2,Win32,84.74576271,,,,,,,,,,,,,,,,660.7225,662.0163,662.0163,662.9223,return,0.3339,,93.22916667,,,,,,FBP-YG-91.png,0.43,1.2,14,0.5,,,,,,,,,,,,,0,27,27,13,1,,,,,,,,,,,,,,,,,,,,,,,,,,,,
,,,,,V3_093,21,Male,2025-01-30_15h04.55.456,jersey_experiment_5_v3,2023.2.2,Win32,84.74576271,,,,,,,,,,,,,,,,662.9226,664.2163,664.2164,664.9223,return,0.1373,,94.53125,,,,,,FBP-YG-91.png,0.45,1.2,15,0.5,,,,,,,,,,,,,0,28,28,14,1,,,,,,,,,,,,,,,,,,,,,,,,,,,,
,,,,,V3_093,21,Male,2025-01-30_15h04.55.456,jersey_experiment_5_v3,2023.2.2,Win32,84.74576271,,,,,,,,,,,,,,,,664.9226,666.4752,666.4753,669.2285,return,1.5582,,50.52083333,,,,,,FBP-OG-17.png,0.35,1.2,31,0.75,,,,,,,,,,,,,0,29,29,30,1,,,,,,,,,,,,,,,,,,,,,,,,,,,,
,,,,,V3_093,21,Male,2025-01-30_15h04.55.456,jersey_experiment_5_v3,2023.2.2,Win32,84.74576271,,,,,,,,,,,,,,,,669.2288,670.5225,670.5225,672.1696,return,0.6424,,63.02083333,,,,,,FBP-YG-81.png,0.35,1.2,6,0.5,,,,,,,,,,,,,0,30,30,5,1,,,,,,,,,,,,,,,,,,,,,,,,,,,,
,,,,,V3_093,21,Male,2025-01-30_15h04.55.456,jersey_experiment_5_v3,2023.2.2,Win32,84.74576271,,,,,,,,,,,,,,,,672.1699,673.4637,673.4638,674.6051,return,0.1546,,67.96875,,,,,,FBP-RB-19.png,0.37,1.2,57,0.5,,,,,,,,,,,,,0,31,31,56,1,,,,,,,,,,,,,,,,,,,,,,,,,,,,
,,,,,V3_093,21,Male,2025-01-30_15h04.55.456,jersey_experiment_5_v3,2023.2.2,Win32,84.74576271,,,,,,,,,,,,,,,,674.6052,675.8992,675.8993,676.8638,return,0.2015,,87.63020833,,,,,,FBP-PT-17.png,0.43,1.2,19,0.5,,,,,,,,,,,,,0,32,32,18,1,,,,,,,,,,,,,,,,,,,,,,,,,,,,
,,,,,V3_093,21,Male,2025-01-30_15h04.55.456,jersey_experiment_5_v3,2023.2.2,Win32,84.74576271,,,,,,,,,,,,,,,,676.8641,678.1582,678.1584,679.2761,return,0.1449,,74.86979167,,,,,,FBP-PT-19.png,0.37,1.2,27,0.5,,,,,,,,,,,,,0,33,33,26,1,,,,,,,,,,,,,,,,,,,,,,,,,,,,
,,,,,V3_093,21,Male,2025-01-30_15h04.55.456,jersey_experiment_5_v3,2023.2.2,Win32,84.74576271,,,,,,,,,,,,,,,,679.2763,680.57,680.57,681.2993,return,0.156,,83.72395833,,,,,,FBP-PT-18.png,0.43,1.2,24,0.5,,,,,,,,,,,,,0,34,34,23,1,,,,,,,,,,,,,,,,,,,,,,,,,,,,
,,,,,V3_093,21,Male,2025-01-30_15h04.55.456,jersey_experiment_5_v3,2023.2.2,Win32,84.74576271,,,,,,,,,,,,,,,,681.2996,682.5935,682.5937,684.3466,return,0.8657,,78.38541667,,,,,,FBP-RB-19.png,0.4,1.2,58,0.5,,,,,,,,,,,,,0,35,35,57,1,,,,,,,,,,,,,,,,,,,,,,,,,,,,
,,,,,V3_093,21,Male,2025-01-30_15h04.55.456,jersey_experiment_5_v3,2023.2.2,Win32,84.74576271,,,,,,,,,,,,,,,,684.3469,685.6407,685.6407,686.2407,return,0.1649,,78.515625,,,,,,FBP-RB-17.png,0.37,1.2,47,0.5,,,,,,,,,,,,,0,36,36,46,1,,,,,,,,,,,,,,,,,,,,,,,,,,,,
,,,,,V3_093,21,Male,2025-01-30_15h04.55.456,jersey_experiment_5_v3,2023.2.2,Win32,84.74576271,,,,,,,,,,,,,,,,686.241,687.535,687.5352,689.3938,return,0.1885,,64.97395833,,,,,,FBP-YG-71.png,0.35,1.2,1,0.5,,,,,,,,,,,,,0,37,37,0,1,,,,,,,,,,,,,,,,,,,,,,,,,,,,
,,,,,V3_093,21,Male,2025-01-30_15h04.55.456,jersey_experiment_5_v3,2023.2.2,Win32,84.74576271,,,,,,,,,,,,,,,,689.3941,690.6879,690.6879,691.6762,return,0.1354,,91.66666667,,,,,,FBP-RB-18.png,0.43,1.2,54,0.5,,,,,,,,,,,,,0,38,38,53,1,,,,,,,,,,,,,,,,,,,,,,,,,,,,
,,,,,V3_093,21,Male,2025-01-30_15h04.55.456,jersey_experiment_5_v3,2023.2.2,Win32,84.74576271,,,,,,,,,,,,,,,,691.6765,693.2292,693.2293,693.8528,return,0.2408,,91.66666667,,,,,,FBP-OG-17.png,0.43,1.2,34,0.75,,,,,,,,,,,,,0,39,39,33,1,,,,,,,,,,,,,,,,,,,,,,,,,,,,
,,,,,V3_093,21,Male,2025-01-30_15h04.55.456,jersey_experiment_5_v3,2023.2.2,Win32,84.74576271,,,,,,,,,,,,,,,,693.8531,695.1471,695.1472,697.8882,return,1.0725,,78.77604167,,,,,,FBP-YG-91.png,0.37,1.2,12,0.5,,,,,,,,,,,,,0,40,40,11,1,,,,,,,,,,,,,,,,,,,,,,,,,,,,
,,,,,V3_093,21,Male,2025-01-30_15h04.55.456,jersey_experiment_5_v3,2023.2.2,Win32,84.74576271,,,,,,,,,,,,,,,,697.8884,699.1824,699.1825,700.5589,return,0.2239,,99.21875,,,,,,FBP-YG-81.png,0.45,1.2,10,0.5,,,,,,,,,,,,,0,41,41,9,1,,,,,,,,,,,,,,,,,,,,,,,,,,,,
,,,,,V3_093,21,Male,2025-01-30_15h04.55.456,jersey_experiment_5_v3,2023.2.2,Win32,84.74576271,,,,,,,,,,,,,,,,700.5592,702.1119,702.1119,703.7708,return,0.9132,,93.09895833,,,,,,FBP-OG-18.png,0.45,1.2,40,0.75,,,,,,,,,,,,,0,42,42,39,1,,,,,,,,,,,,,,,,,,,,,,,,,,,,
,,,,,V3_093,21,Male,2025-01-30_15h04.55.456,jersey_experiment_5_v3,2023.2.2,Win32,84.74576271,,,,,,,,,,,,,,,,703.771,705.065,705.065,706.818,return,0.706,,90.625,,,,,,FBP-RB-17.png,0.45,1.2,50,0.5,,,,,,,,,,,,,0,43,43,49,1,,,,,,,,,,,,,,,,,,,,,,,,,,,,
,,,,,V3_093,21,Male,2025-01-30_15h04.55.456,jersey_experiment_5_v3,2023.2.2,Win32,84.74576271,,,,,,,,,,,,,,,,706.8182,708.1121,708.1121,709.6299,return,0.1574,,80.33854167,,,,,,FBP-YG-71.png,0.37,1.2,2,0.5,,,,,,,,,,,,,0,44,44,1,1,,,,,,,,,,,,,,,,,,,,,,,,,,,,
,,,,,V3_093,21,Male,2025-01-30_15h04.55.456,jersey_experiment_5_v3,2023.2.2,Win32,84.74576271,,,,,,,,,,,,,,,,709.6304,710.9242,710.9242,711.6182,return,0.1519,,80.59895833,,,,,,FBP-YG-81.png,0.37,1.2,7,0.5,,,,,,,,,,,,,0,45,45,6,1,,,,,,,,,,,,,,,,,,,,,,,,,,,,
,,,,,V3_093,21,Male,2025-01-30_15h04.55.456,jersey_experiment_5_v3,2023.2.2,Win32,84.74576271,,,,,,,,,,,,,,,,711.6184,712.9124,712.9124,713.7124,return,0.1544,,95.44270833,,,,,,FBP-YG-71.png,0.45,1.2,5,0.5,,,,,,,,,,,,,0,46,46,4,1,,,,,,,,,,,,,,,,,,,,,,,,,,,,
,,,,,V3_093,21,Male,2025-01-30_15h04.55.456,jersey_experiment_5_v3,2023.2.2,Win32,84.74576271,,,,,,,,,,,,,,,,713.7127,715.0066,715.0066,717.3478,return,1.269,,81.90104167,,,,,,FBP-RB-17.png,0.35,1.2,46,0.5,,,,,,,,,,,,,0,47,47,45,1,,,,,,,,,,,,,,,,,,,,,,,,,,,,
,,,,,V3_093,21,Male,2025-01-30_15h04.55.456,jersey_experiment_5_v3,2023.2.2,Win32,84.74576271,,,,,,,,,,,,,,,,717.3481,718.9009,718.901,720.0773,return,0.5577,,85.15625,,,,,,FBP-OG-17.png,0.37,1.2,32,0.75,,,,,,,,,,,,,0,48,48,31,1,,,,,,,,,,,,,,,,,,,,,,,,,,,,
,,,,,V3_093,21,Male,2025-01-30_15h04.55.456,jersey_experiment_5_v3,2023.2.2,Win32,84.74576271,,,,,,,,,,,,,,,,720.0775,721.3715,721.3715,722.4305,return,0.3091,,85.28645833,,,,,,FBP-PT-18.png,0.35,1.2,21,0.5,,,,,,,,,,,,,0,49,49,20,1,,,,,,,,,,,,,,,,,,,,,,,,,,,,
,,,,,V3_093,21,Male,2025-01-30_15h04.55.456,jersey_experiment_5_v3,2023.2.2,Win32,84.74576271,,,,,,,,,,,,,,,,722.4307,723.7245,723.7246,725.5364,return,0.7768,,81.25,,,,,,FBP-PT-17.png,0.35,1.2,16,0.5,,,,,,,,,,,,,0,50,50,15,1,,,,,,,,,,,,,,,,,,,,,,,,,,,,
,,,,,V3_093,21,Male,2025-01-30_15h04.55.456,jersey_experiment_5_v3,2023.2.2,Win32,84.74576271,,,,,,,,,,,,,,,,725.5366,726.8306,726.8306,728.4776,return,0.9208,,83.203125,,,,,,FBP-PT-18.png,0.37,1.2,22,0.5,,,,,,,,,,,,,0,51,51,21,1,,,,,,,,,,,,,,,,,,,,,,,,,,,,
,,,,,V3_093,21,Male,2025-01-30_15h04.55.456,jersey_experiment_5_v3,2023.2.2,Win32,84.74576271,,,,,,,,,,,,,,,,728.4779,729.7719,729.7719,731.5365,return,0.8701,,90.49479167,,,,,,FBP-PT-19.png,0.43,1.2,29,0.5,,,,,,,,,,,,,0,52,52,28,1,,,,,,,,,,,,,,,,,,,,,,,,,,,,
,,,,,V3_093,21,Male,2025-01-30_15h04.55.456,jersey_experiment_5_v3,2023.2.2,Win32,84.74576271,,,,,,,,,,,,,,,,731.5367,732.8308,732.8308,734.9602,return,0.6016,,92.05729167,,,,,,FBP-RB-17.png,0.4,1.2,48,0.5,,,,,,,,,,,,,0,53,53,47,1,,,,,,,,,,,,,,,,,,,,,,,,,,,,
,,,,,V3_093,21,Male,2025-01-30_15h04.55.456,jersey_experiment_5_v3,2023.2.2,Win32,84.74576271,,,,,,,,,,,,,,,,734.9604,736.2544,736.2545,737.9838,return,0.0951,,99.21875,,,,,,FBP-RB-19.png,0.45,1.2,60,0.5,,,,,,,,,,,,,0,54,54,59,1,,,,,,,,,,,,,,,,,,,,,,,,,,,,
,,,,,V3_093,21,Male,2025-01-30_15h04.55.456,jersey_experiment_5_v3,2023.2.2,Win32,84.74576271,,,,,,,,,,,,,,,,737.9841,739.2781,739.2782,740.2192,return,0.1468,,88.93229167,,,,,,FBP-PT-19.png,0.35,1.2,26,0.5,,,,,,,,,,,,,0,55,55,25,1,,,,,,,,,,,,,,,,,,,,,,,,,,,,
,,,,,V3_093,21,Male,2025-01-30_15h04.55.456,jersey_experiment_5_v3,2023.2.2,Win32,84.74576271,,,,,,,,,,,,,,,,740.2194,741.5135,741.5135,742.243,return,0.1178,,91.40625,,,,,,FBP-YG-81.png,0.4,1.2,8,0.5,,,,,,,,,,,,,0,56,56,7,1,,,,,,,,,,,,,,,,,,,,,,,,,,,,
,,,,,V3_093,21,Male,2025-01-30_15h04.55.456,jersey_experiment_5_v3,2023.2.2,Win32,84.74576271,,,,,,,,,,,,,,,,742.2432,743.537,743.537,744.8429,return,0.9248,,86.06770833,,,,,,FBP-RB-18.png,0.37,1.2,52,0.5,,,,,,,,,,,,,0,57,57,51,1,,,,,,,,,,,,,,,,,,,,,,,,,,,,
,,,,,V3_093,21,Male,2025-01-30_15h04.55.456,jersey_experiment_5_v3,2023.2.2,Win32,84.74576271,,,,,,,,,,,,,,,,744.8432,746.1371,746.1372,747.9844,return,1.179,,88.93229167,,,,,,FBP-RB-18.png,0.4,1.2,53,0.5,,,,,,,,,,,,,0,58,58,52,1,,,,,,,,,,,,,,,,,,,,,,,,,,,,
,,,,,V3_093,21,Male,2025-01-30_15h04.55.456,jersey_experiment_5_v3,2023.2.2,Win32,84.74576271,,,,,,,,,,,,,,,,747.9846,749.5372,749.5373,750.4197,return,0.2121,,78.38541667,,,,,,FBP-OG-18.png,0.35,1.2,36,0.75,,,,,,,,,,,,,0,59,59,35,1,,,,,,,,,,,,,,,,,,,,,,,,,,,,
,,,,,V3_093,21,Male,2025-01-30_15h04.55.456,jersey_experiment_5_v3,2023.2.2,Win32,84.74576271,,,,,,,,,,,,,,,,750.4208,751.9727,751.9728,754.514,return,0.9269,,92.578125,,,,,,FBP-OG-91.png,0.45,1.2,45,0.75,,,,,,,,,,,,,,,,,,0,0,0,44,1,,,,,,,,,,,,,,,,,,,,,,,
,,,,,V3_093,21,Male,2025-01-30_15h04.55.456,jersey_experiment_5_v3,2023.2.2,Win32,84.74576271,,,,,,,,,,,,,,,,754.5143,755.8081,755.8081,757.0435,return,0.1202,,90.625,,,,,,FBP-PT-91.png,0.37,1.2,27,0.5,,,,,,,,,,,,,,,,,,0,1,1,26,1,,,,,,,,,,,,,,,,,,,,,,,
,,,,,V3_093,21,Male,2025-01-30_15h04.55.456,jersey_experiment_5_v3,2023.2.2,Win32,84.74576271,,,,,,,,,,,,,,,,757.0437,758.3376,758.3376,759.2906,return,0.2275,,86.58854167,,,,,,FBP-RB-71.png,0.35,1.2,46,0.5,,,,,,,,,,,,,,,,,,0,2,2,45,1,,,,,,,,,,,,,,,,,,,,,,,
,,,,,V3_093,21,Male,2025-01-30_15h04.55.456,jersey_experiment_5_v3,2023.2.2,Win32,84.74576271,,,,,,,,,,,,,,,,759.2909,760.5847,760.5847,761.8554,return,0.2382,,90.88541667,,,,,,FBP-PT-71.png,0.45,1.2,20,0.5,,,,,,,,,,,,,,,,,,0,3,3,19,1,,,,,,,,,,,,,,,,,,,,,,,
,,,,,V3_093,21,Male,2025-01-30_15h04.55.456,jersey_experiment_5_v3,2023.2.2,Win32,84.74576271,,,,,,,,,,,,,,,,761.8556,763.1496,763.1496,764.7145,return,0.9693,,92.05729167,,,,,,FBP-YG-18.png,0.43,1.2,9,0.5,,,,,,,,,,,,,,,,,,0,4,4,8,1,,,,,,,,,,,,,,,,,,,,,,,
,,,,,V3_093,21,Male,2025-01-30_15h04.55.456,jersey_experiment_5_v3,2023.2.2,Win32,84.74576271,,,,,,,,,,,,,,,,764.7147,766.0085,766.0086,767.6203,return,0.6909,,84.89583333,,,,,,FBP-RB-81.png,0.35,1.2,51,0.5,,,,,,,,,,,,,,,,,,0,5,5,50,1,,,,,,,,,,,,,,,,,,,,,,,
,,,,,V3_093,21,Male,2025-01-30_15h04.55.456,jersey_experiment_5_v3,2023.2.2,Win32,84.74576271,,,,,,,,,,,,,,,,767.6206,768.9144,768.9145,770.0206,return,0.2123,,90.88541667,,,,,,FBP-RB-81.png,0.43,1.2,54,0.5,,,,,,,,,,,,,,,,,,0,6,6,53,1,,,,,,,,,,,,,,,,,,,,,,,
,,,,,V3_093,21,Male,2025-01-30_15h04.55.456,jersey_experiment_5_v3,2023.2.2,Win32,84.74576271,,,,,,,,,,,,,,,,770.0209,771.3146,771.3147,772.6559,return,0.1437,,75.13020833,,,,,,FBP-YG-18.png,0.37,1.2,7,0.5,,,,,,,,,,,,,,,,,,0,7,7,6,1,,,,,,,,,,,,,,,,,,,,,,,
,,,,,V3_093,21,Male,2025-01-30_15h04.55.456,jersey_experiment_5_v3,2023.2.2,Win32,84.74576271,,,,,,,,,,,,,,,,772.656,773.95,773.95,774.6206,return,0.1199,,75.13020833,,,,,,FBP-PT-81.png,0.35,1.2,21,0.5,,,,,,,,,,,,,,,,,,0,8,8,20,1,,,,,,,,,,,,,,,,,,,,,,,
,,,,,V3_093,21,Male,2025-01-30_15h04.55.456,jersey_experiment_5_v3,2023.2.2,Win32,84.74576271,,,,,,,,,,,,,,,,774.6208,775.9147,775.9147,777.6208,return,1.3179,,77.08333333,,,,,,FBP-RB-91.png,0.35,1.2,56,0.5,,,,,,,,,,,,,,,,,,0,9,9,55,1,,,,,,,,,,,,,,,,,,,,,,,
,,,,,V3_093,21,Male,2025-01-30_15h04.55.456,jersey_experiment_5_v3,2023.2.2,Win32,84.74576271,,,,,,,,,,,,,,,,777.621,779.1737,779.1738,780.1385,return,0.322,,77.34375,,,,,,FBP-OG-81.png,0.35,1.2,36,0.75,,,,,,,,,,,,,,,,,,0,10,10,35,1,,,,,,,,,,,,,,,,,,,,,,,
,,,,,V3_093,21,Male,2025-01-30_15h04.55.456,jersey_experiment_5_v3,2023.2.2,Win32,84.74576271,,,,,,,,,,,,,,,,780.1386,781.4326,781.4327,783.0562,return,0.7551,,83.59375,,,,,,FBP-PT-91.png,0.4,1.2,28,0.5,,,,,,,,,,,,,,,,,,0,11,11,27,1,,,,,,,,,,,,,,,,,,,,,,,
,,,,,V3_093,21,Male,2025-01-30_15h04.55.456,jersey_experiment_5_v3,2023.2.2,Win32,84.74576271,,,,,,,,,,,,,,,,783.0564,784.3504,784.3504,785.5622,return,0.4305,,90.36458333,,,,,,FBP-YG-17.png,0.43,1.2,4,0.5,,,,,,,,,,,,,,,,,,0,12,12,3,1,,,,,,,,,,,,,,,,,,,,,,,
,,,,,V3_093,21,Male,2025-01-30_15h04.55.456,jersey_experiment_5_v3,2023.2.2,Win32,84.74576271,,,,,,,,,,,,,,,,785.5625,786.8564,786.8564,788.1858,return,0.1966,,86.97916667,,,,,,FBP-YG-17.png,0.4,1.2,3,0.5,,,,,,,,,,,,,,,,,,0,13,13,2,1,,,,,,,,,,,,,,,,,,,,,,,
,,,,,V3_093,21,Male,2025-01-30_15h04.55.456,jersey_experiment_5_v3,2023.2.2,Win32,84.74576271,,,,,,,,,,,,,,,,788.1861,789.4799,789.48,790.2095,return,0.1972,,86.84895833,,,,,,FBP-RB-71.png,0.37,1.2,47,0.5,,,,,,,,,,,,,,,,,,0,14,14,46,1,,,,,,,,,,,,,,,,,,,,,,,
,,,,,V3_093,21,Male,2025-01-30_15h04.55.456,jersey_experiment_5_v3,2023.2.2,Win32,84.74576271,,,,,,,,,,,,,,,,790.2097,791.5036,791.5036,793.1978,return,0.8752,,92.1875,,,,,,FBP-RB-91.png,0.45,1.2,60,0.5,,,,,,,,,,,,,,,,,,0,15,15,59,1,,,,,,,,,,,,,,,,,,,,,,,
,,,,,V3_093,21,Male,2025-01-30_15h04.55.456,jersey_experiment_5_v3,2023.2.2,Win32,84.74576271,,,,,,,,,,,,,,,,793.198,794.7508,794.7508,796.5626,return,1.2941,,90.49479167,,,,,,FBP-OG-91.png,0.4,1.2,43,0.75,,,,,,,,,,,,,,,,,,0,16,16,42,1,,,,,,,,,,,,,,,,,,,,,,,
,,,,,V3_093,21,Male,2025-01-30_15h04.55.456,jersey_experiment_5_v3,2023.2.2,Win32,84.74576271,,,,,,,,,,,,,,,,796.5629,797.8568,797.8568,798.6098,return,0.2356,,90.625,,,,,,FBP-PT-71.png,0.4,1.2,18,0.5,,,,,,,,,,,,,,,,,,0,17,17,17,1,,,,,,,,,,,,,,,,,,,,,,,
,,,,,V3_093,21,Male,2025-01-30_15h04.55.456,jersey_experiment_5_v3,2023.2.2,Win32,84.74576271,,,,,,,,,,,,,,,,798.61,799.9038,799.9039,800.8098,return,0.2313,,88.80208333,,,,,,FBP-YG-19.png,0.37,1.2,12,0.5,,,,,,,,,,,,,,,,,,0,18,18,11,1,,,,,,,,,,,,,,,,,,,,,,,
,,,,,V3_093,21,Male,2025-01-30_15h04.55.456,jersey_experiment_5_v3,2023.2.2,Win32,84.74576271,,,,,,,,,,,,,,,,800.81,802.1039,802.104,802.9157,return,0.0472,,88.02083333,,,,,,FBP-PT-81.png,0.43,1.2,24,0.5,,,,,,,,,,,,,,,,,,0,19,19,23,1,,,,,,,,,,,,,,,,,,,,,,,
,,,,,V3_093,21,Male,2025-01-30_15h04.55.456,jersey_experiment_5_v3,2023.2.2,Win32,84.74576271,,,,,,,,,,,,,,,,802.9161,804.4689,804.4689,805.1041,return,0.2138,,87.36979167,,,,,,FBP-OG-71.png,0.37,1.2,32,0.75,,,,,,,,,,,,,,,,,,0,20,20,31,1,,,,,,,,,,,,,,,,,,,,,,,
,,,,,V3_093,21,Male,2025-01-30_15h04.55.456,jersey_experiment_5_v3,2023.2.2,Win32,84.74576271,,,,,,,,,,,,,,,,805.1043,806.657,806.657,807.2806,return,0.1781,,89.453125,,,,,,FBP-OG-71.png,0.43,1.2,34,0.75,,,,,,,,,,,,,,,,,,0,21,21,33,1,,,,,,,,,,,,,,,,,,,,,,,
,,,,,V3_093,21,Male,2025-01-30_15h04.55.456,jersey_experiment_5_v3,2023.2.2,Win32,84.74576271,,,,,,,,,,,,,,,,807.2809,808.5749,808.5749,809.9984,return,0.1686,,89.58333333,,,,,,FBP-PT-81.png,0.4,1.2,23,0.5,,,,,,,,,,,,,,,,,,0,22,22,22,1,,,,,,,,,,,,,,,,,,,,,,,
,,,,,V3_093,21,Male,2025-01-30_15h04.55.456,jersey_experiment_5_v3,2023.2.2,Win32,84.74576271,,,,,,,,,,,,,,,,809.9986,811.2925,811.2926,812.116,return,0.1755,,94.40104167,,,,,,FBP-RB-81.png,0.45,1.2,55,0.5,,,,,,,,,,,,,,,,,,0,23,23,54,1,,,,,,,,,,,,,,,,,,,,,,,
,,,,,V3_093,21,Male,2025-01-30_15h04.55.456,jersey_experiment_5_v3,2023.2.2,Win32,84.74576271,,,,,,,,,,,,,,,,812.1163,813.4103,813.4104,814.7398,return,0.1797,,83.85416667,,,,,,FBP-YG-17.png,0.37,1.2,2,0.5,,,,,,,,,,,,,,,,,,0,24,24,1,1,,,,,,,,,,,,,,,,,,,,,,,
,,,,,V3_093,21,Male,2025-01-30_15h04.55.456,jersey_experiment_5_v3,2023.2.2,Win32,84.74576271,,,,,,,,,,,,,,,,814.74,816.293,816.2931,818.5753,return,1.4377,,78.38541667,,,,,,FBP-OG-91.png,0.35,1.2,41,0.75,,,,,,,,,,,,,,,,,,0,25,25,40,1,,,,,,,,,,,,,,,,,,,,,,,
,,,,,V3_093,21,Male,2025-01-30_15h04.55.456,jersey_experiment_5_v3,2023.2.2,Win32,84.74576271,,,,,,,,,,,,,,,,818.5755,820.1285,820.1285,820.8341,return,0.1632,,87.76041667,,,,,,FBP-OG-81.png,0.45,1.2,40,0.75,,,,,,,,,,,,,,,,,,0,26,26,39,1,,,,,,,,,,,,,,,,,,,,,,,
,,,,,V3_093,21,Male,2025-01-30_15h04.55.456,jersey_experiment_5_v3,2023.2.2,Win32,84.74576271,,,,,,,,,,,,,,,,820.8345,822.1283,822.1284,823.4342,return,0.2312,,83.203125,,,,,,FBP-YG-18.png,0.4,1.2,8,0.5,,,,,,,,,,,,,,,,,,0,27,27,7,1,,,,,,,,,,,,,,,,,,,,,,,
,,,,,V3_093,21,Male,2025-01-30_15h04.55.456,jersey_experiment_5_v3,2023.2.2,Win32,84.74576271,,,,,,,,,,,,,,,,823.4345,824.7284,824.7284,825.9167,return,0.0753,,80.33854167,,,,,,FBP-PT-81.png,0.37,1.2,22,0.5,,,,,,,,,,,,,,,,,,0,28,28,21,1,,,,,,,,,,,,,,,,,,,,,,,
,,,,,V3_093,21,Male,2025-01-30_15h04.55.456,jersey_experiment_5_v3,2023.2.2,Win32,84.74576271,,,,,,,,,,,,,,,,825.917,827.4696,827.4697,828.6227,return,0.3447,,80.078125,,,,,,FBP-OG-71.png,0.4,1.2,33,0.75,,,,,,,,,,,,,,,,,,0,29,29,32,1,,,,,,,,,,,,,,,,,,,,,,,
,,,,,V3_093,21,Male,2025-01-30_15h04.55.456,jersey_experiment_5_v3,2023.2.2,Win32,84.74576271,,,,,,,,,,,,,,,,828.6229,829.9168,829.9169,831.2462,return,0.2391,,75.52083333,,,,,,FBP-RB-81.png,0.4,1.2,53,0.5,,,,,,,,,,,,,,,,,,0,30,30,52,1,,,,,,,,,,,,,,,,,,,,,,,
,,,,,V3_093,21,Male,2025-01-30_15h04.55.456,jersey_experiment_5_v3,2023.2.2,Win32,84.74576271,,,,,,,,,,,,,,,,831.2465,832.5405,832.5405,833.4111,return,0.1649,,79.296875,,,,,,FBP-RB-91.png,0.43,1.2,59,0.5,,,,,,,,,,,,,,,,,,0,31,31,58,1,,,,,,,,,,,,,,,,,,,,,,,
,,,,,V3_093,21,Male,2025-01-30_15h04.55.456,jersey_experiment_5_v3,2023.2.2,Win32,84.74576271,,,,,,,,,,,,,,,,833.4114,834.9641,834.9641,835.9643,return,0.1931,,75.78125,,,,,,FBP-OG-81.png,0.37,1.2,37,0.75,,,,,,,,,,,,,,,,,,0,32,32,36,1,,,,,,,,,,,,,,,,,,,,,,,
,,,,,V3_093,21,Male,2025-01-30_15h04.55.456,jersey_experiment_5_v3,2023.2.2,Win32,84.74576271,,,,,,,,,,,,,,,,835.9644,837.2583,837.2583,840.976,return,0.8376,,44.140625,,,,,,FBP-PT-91.png,0.35,1.2,26,0.5,,,,,,,,,,,,,,,,,,0,33,33,25,1,,,,,,,,,,,,,,,,,,,,,,,
,,,,,V3_093,21,Male,2025-01-30_15h04.55.456,jersey_experiment_5_v3,2023.2.2,Win32,84.74576271,,,,,,,,,,,,,,,,840.9763,842.2702,842.2702,843.2349,return,0.1645,,46.61458333,,,,,,FBP-YG-18.png,0.35,1.2,6,0.5,,,,,,,,,,,,,,,,,,0,34,34,5,1,,,,,,,,,,,,,,,,,,,,,,,
,,,,,V3_093,21,Male,2025-01-30_15h04.55.456,jersey_experiment_5_v3,2023.2.2,Win32,84.74576271,,,,,,,,,,,,,,,,843.2352,844.5291,844.5292,845.6115,return,0.1936,,78.90625,,,,,,FBP-RB-71.png,0.45,1.2,50,0.5,,,,,,,,,,,,,,,,,,0,35,35,49,1,,,,,,,,,,,,,,,,,,,,,,,
,,,,,V3_093,21,Male,2025-01-30_15h04.55.456,jersey_experiment_5_v3,2023.2.2,Win32,84.74576271,,,,,,,,,,,,,,,,845.6118,847.1645,847.1645,848.4939,return,0.1559,,50.52083333,,,,,,FBP-OG-71.png,0.35,1.2,31,0.75,,,,,,,,,,,,,,,,,,0,36,36,30,1,,,,,,,,,,,,,,,,,,,,,,,
,,,,,V3_093,21,Male,2025-01-30_15h04.55.456,jersey_experiment_5_v3,2023.2.2,Win32,84.74576271,,,,,,,,,,,,,,,,848.4941,849.7881,849.7882,851.8707,return,1.0508,,86.58854167,,,,,,FBP-PT-91.png,0.43,1.2,29,0.5,,,,,,,,,,,,,,,,,,0,37,37,28,1,,,,,,,,,,,,,,,,,,,,,,,
,,,,,V3_093,21,Male,2025-01-30_15h04.55.456,jersey_experiment_5_v3,2023.2.2,Win32,84.74576271,,,,,,,,,,,,,,,,851.8709,853.1647,853.1647,854.7648,return,0.6865,,78.90625,,,,,,FBP-RB-91.png,0.4,1.2,58,0.5,,,,,,,,,,,,,,,,,,0,38,38,57,1,,,,,,,,,,,,,,,,,,,,,,,
,,,,,V3_093,21,Male,2025-01-30_15h04.55.456,jersey_experiment_5_v3,2023.2.2,Win32,84.74576271,,,,,,,,,,,,,,,,854.7651,856.059,856.0591,856.7649,return,0.146,,82.16145833,,,,,,FBP-PT-71.png,0.43,1.2,19,0.5,,,,,,,,,,,,,,,,,,0,39,39,18,1,,,,,,,,,,,,,,,,,,,,,,,
,,,,,V3_093,21,Male,2025-01-30_15h04.55.456,jersey_experiment_5_v3,2023.2.2,Win32,84.74576271,,,,,,,,,,,,,,,,856.7652,858.059,858.059,859.2945,return,0.192,,89.84375,,,,,,FBP-PT-91.png,0.45,1.2,30,0.5,,,,,,,,,,,,,,,,,,0,40,40,29,1,,,,,,,,,,,,,,,,,,,,,,,
,,,,,V3_093,21,Male,2025-01-30_15h04.55.456,jersey_experiment_5_v3,2023.2.2,Win32,84.74576271,,,,,,,,,,,,,,,,859.2948,860.5885,860.5886,861.6004,return,0.1902,,80.33854167,,,,,,FBP-RB-81.png,0.37,1.2,52,0.5,,,,,,,,,,,,,,,,,,0,41,41,51,1,,,,,,,,,,,,,,,,,,,,,,,
,,,,,V3_093,21,Male,2025-01-30_15h04.55.456,jersey_experiment_5_v3,2023.2.2,Win32,84.74576271,,,,,,,,,,,,,,,,861.6007,862.8944,862.8946,864.8475,return,0.7322,,81.11979167,,,,,,FBP-RB-71.png,0.4,1.2,48,0.5,,,,,,,,,,,,,,,,,,0,42,42,47,1,,,,,,,,,,,,,,,,,,,,,,,
,,,,,V3_093,21,Male,2025-01-30_15h04.55.456,jersey_experiment_5_v3,2023.2.2,Win32,84.74576271,,,,,,,,,,,,,,,,864.8478,866.4008,866.4008,867.2475,return,0.0968,,75.13020833,,,,,,FBP-OG-91.png,0.37,1.2,42,0.75,,,,,,,,,,,,,,,,,,0,43,43,41,1,,,,,,,,,,,,,,,,,,,,,,,
,,,,,V3_093,21,Male,2025-01-30_15h04.55.456,jersey_experiment_5_v3,2023.2.2,Win32,84.74576271,,,,,,,,,,,,,,,,867.2478,868.8006,868.8007,869.7536,return,0.1145,,89.19270833,,,,,,FBP-OG-91.png,0.43,1.2,44,0.75,,,,,,,,,,,,,,,,,,0,44,44,43,1,,,,,,,,,,,,,,,,,,,,,,,
,,,,,V3_093,21,Male,2025-01-30_15h04.55.456,jersey_experiment_5_v3,2023.2.2,Win32,84.74576271,,,,,,,,,,,,,,,,869.7538,871.0479,871.0479,873.1066,return,1.1632,,86.84895833,,,,,,FBP-YG-19.png,0.43,1.2,14,0.5,,,,,,,,,,,,,,,,,,0,45,45,13,1,,,,,,,,,,,,,,,,,,,,,,,
,,,,,V3_093,21,Male,2025-01-30_15h04.55.456,jersey_experiment_5_v3,2023.2.2,Win32,84.74576271,,,,,,,,,,,,,,,,873.1068,874.4008,874.4009,875.3304,return,0.1392,,95.703125,,,,,,FBP-YG-19.png,0.45,1.2,15,0.5,,,,,,,,,,,,,,,,,,0,46,46,14,1,,,,,,,,,,,,,,,,,,,,,,,
,,,,,V3_093,21,Male,2025-01-30_15h04.55.456,jersey_experiment_5_v3,2023.2.2,Win32,84.74576271,,,,,,,,,,,,,,,,875.3306,876.6246,876.6247,878.06,return,0.1359,,91.92708333,,,,,,FBP-PT-81.png,0.45,1.2,25,0.5,,,,,,,,,,,,,,,,,,0,47,47,24,1,,,,,,,,,,,,,,,,,,,,,,,
,,,,,V3_093,21,Male,2025-01-30_15h04.55.456,jersey_experiment_5_v3,2023.2.2,Win32,84.74576271,,,,,,,,,,,,,,,,878.0606,879.3538,879.3539,882.307,return,1.9296,,81.11979167,,,,,,FBP-RB-91.png,0.37,1.2,57,0.5,,,,,,,,,,,,,,,,,,0,48,48,56,1,,,,,,,,,,,,,,,,,,,,,,,
,,,,,V3_093,21,Male,2025-01-30_15h04.55.456,jersey_experiment_5_v3,2023.2.2,Win32,84.74576271,,,,,,,,,,,,,,,,882.3074,883.6012,883.6013,884.3777,return,0.1604,,86.58854167,,,,,,FBP-RB-71.png,0.43,1.2,49,0.5,,,,,,,,,,,,,,,,,,0,49,49,48,1,,,,,,,,,,,,,,,,,,,,,,,
,,,,,V3_093,21,Male,2025-01-30_15h04.55.456,jersey_experiment_5_v3,2023.2.2,Win32,84.74576271,,,,,,,,,,,,,,,,884.3781,885.6719,885.6719,886.8602,return,0.1459,,74.34895833,,,,,,FBP-PT-71.png,0.35,1.2,16,0.5,,,,,,,,,,,,,,,,,,0,50,50,15,1,,,,,,,,,,,,,,,,,,,,,,,
,,,,,V3_093,21,Male,2025-01-30_15h04.55.456,jersey_experiment_5_v3,2023.2.2,Win32,84.74576271,,,,,,,,,,,,,,,,886.8604,888.1542,888.1543,890.0133,return,0.1219,,60.41666667,,,,,,FBP-YG-19.png,0.35,1.2,11,0.5,,,,,,,,,,,,,,,,,,0,51,51,10,1,,,,,,,,,,,,,,,,,,,,,,,
,,,,,V3_093,21,Male,2025-01-30_15h04.55.456,jersey_experiment_5_v3,2023.2.2,Win32,84.74576271,,,,,,,,,,,,,,,,890.0136,891.3073,891.3074,892.6014,return,0.0912,,69.53125,,,,,,FBP-YG-19.png,0.4,1.2,13,0.5,,,,,,,,,,,,,,,,,,0,52,52,12,1,,,,,,,,,,,,,,,,,,,,,,,
,,,,,V3_093,21,Male,2025-01-30_15h04.55.456,jersey_experiment_5_v3,2023.2.2,Win32,84.74576271,,,,,,,,,,,,,,,,892.6017,894.1429,894.143,895.437,return,0.2273,,82.03125,,,,,,FBP-OG-71.png,0.45,1.2,35,0.75,,,,,,,,,,,,,,,,,,0,53,53,34,1,,,,,,,,,,,,,,,,,,,,,,,
,,,,,V3_093,21,Male,2025-01-30_15h04.55.456,jersey_experiment_5_v3,2023.2.2,Win32,84.74576271,,,,,,,,,,,,,,,,895.4372,896.7311,896.7311,897.5194,return,0.1322,,86.06770833,,,,,,FBP-YG-18.png,0.45,1.2,10,0.5,,,,,,,,,,,,,,,,,,0,54,54,9,1,,,,,,,,,,,,,,,,,,,,,,,
,,,,,V3_093,21,Male,2025-01-30_15h04.55.456,jersey_experiment_5_v3,2023.2.2,Win32,84.74576271,,,,,,,,,,,,,,,,897.5198,898.8136,898.8136,899.4724,return,0.071,,90.75520833,,,,,,FBP-YG-17.png,0.45,1.2,5,0.5,,,,,,,,,,,,,,,,,,0,55,55,4,1,,,,,,,,,,,,,,,,,,,,,,,
,,,,,V3_093,21,Male,2025-01-30_15h04.55.456,jersey_experiment_5_v3,2023.2.2,Win32,84.74576271,,,,,,,,,,,,,,,,899.4728,901.0254,901.0254,901.8841,return,0.1107,,90.625,,,,,,FBP-OG-81.png,0.43,1.2,39,0.75,,,,,,,,,,,,,,,,,,0,56,56,38,1,,,,,,,,,,,,,,,,,,,,,,,
,,,,,V3_093,21,Male,2025-01-30_15h04.55.456,jersey_experiment_5_v3,2023.2.2,Win32,84.74576271,,,,,,,,,,,,,,,,901.8844,903.1784,903.1784,904.1079,return,0.1831,,84.89583333,,,,,,FBP-PT-71.png,0.37,1.2,17,0.5,,,,,,,,,,,,,,,,,,0,57,57,16,1,,,,,,,,,,,,,,,,,,,,,,,
,,,,,V3_093,21,Male,2025-01-30_15h04.55.456,jersey_experiment_5_v3,2023.2.2,Win32,84.74576271,,,,,,,,,,,,,,,,904.1082,905.4019,905.402,906.9904,return,0.7203,,74.86979167,,,,,,FBP-YG-17.png,0.35,1.2,1,0.5,,,,,,,,,,,,,,,,,,0,58,58,0,1,,,,,,,,,,,,,,,,,,,,,,,
,,,,,V3_093,21,Male,2025-01-30_15h04.55.456,jersey_experiment_5_v3,2023.2.2,Win32,84.74576271,,,,,,,,,,,,,,,,906.9907,908.5433,908.5433,909.214,return,0.1809,,74.86979167,,,,,,FBP-OG-81.png,0.4,1.2,38,0.75,,,,,,,,,,,,,,,,,,0,59,59,37,1,,,,,,,,,,,,,,,,,,,,,,,
,,,,,V3_093,21,Male,2025-01-30_15h04.55.456,jersey_experiment_5_v3,2023.2.2,Win32,84.74576271,,,,,,,,,,,,,,,,,,,,,,,,,,,,,,,,,,,,,,,,,,,,,,,,,,,,,,,,909.2141,913.5671,return,4.3443,,,,,,,,,,,,,,,,,,,
,,,,,V3_093,21,Male,2025-01-30_15h04.55.456,jersey_experiment_5_v3,2023.2.2,Win32,84.74576271,,,,,,,,,,,,,,,,,,,,,,,,,,,,,,,,,,,,,,,,,,,,,,,,,,,,,,,,,,,,,913.5671,917.8378,1,2.9095,return,1.3447,,,,,,,,,,,,
,,,,,V3_093,21,Male,2025-01-30_15h04.55.456,jersey_experiment_5_v3,2023.2.2,Win32,84.74576271,,,,,,,,,,,,,,,,,,,,,,,,,,,,,,,,,,,,,,,,,,,,,,,,,,,,,,,,,,,,,,,,,,,,917.8379,1004.2185,Maybe to see if there's a bias if you show people similar body sizes consecutively? I noticed a lot of husky body shapes were shown repeatedly and then sprinkled in with some more neutral and slender bodies.,right,72.6792,,,,,,
,,,,,V3_093,21,Male,2025-01-30_15h04.55.456,jersey_experiment_5_v3,2023.2.2,Win32,84.74576271,,,,,,,,,,,,,,,,,,,,,,,,,,,,,,,,,,,,,,,,,,,,,,,,,,,,,,,,,,,,,,,,,,,,,,,,,,1004.2185,1006.4765,return,2.249,