requirements.started,requirements.stopped,key_resp_3.keys,key_resp_3.rt,key_resp_3.duration,Subject ID,Age,Gender,date,expName,psychopyVersion,OS,frameRate,instructions1.started,instructions1.stopped,key_resp.keys,key_resp.rt,key_resp.duration,example.started,example.stopped,enter_2.keys,enter_2.rt,enter_2.duration,instructions2.started,instructions2.stopped,enter_3.keys,enter_3.rt,enter_3.duration,image.started,image.stopped,slider_2.started,slider_2.stopped,next.keys,next.rt,next.duration,slider.response,trial_block_1.thisRepN,trial_block_1.thisTrialN,trial_block_1.thisN,trial_block_1.thisIndex,trial_block_1.ran,Path,Width,Height,Index,Duration,trial_block_2.thisRepN,trial_block_2.thisTrialN,trial_block_2.thisN,trial_block_2.thisIndex,trial_block_2.ran,rest_break.started,rest_break.stopped,end_break.started,end_break.stopped,key_resp_5.keys,key_resp_5.rt,key_resp_5.duration,trial_block_3.thisRepN,trial_block_3.thisTrialN,trial_block_3.thisN,trial_block_3.thisIndex,trial_block_3.ran,trial_block_4.thisRepN,trial_block_4.thisTrialN,trial_block_4.thisN,trial_block_4.thisIndex,trial_block_4.ran,questions_intro.started,questions_intro.stopped,enter_12.keys,enter_12.rt,enter_12.duration,question2.started,question2.stopped,question_doingbest.response,question_doingbest.rt,enter_15.keys,enter_15.rt,enter_15.duration,pattern.started,pattern.stopped,pattern_2.text,enter_17.keys,enter_17.rt,enter_17.duration,thankyou.started,thankyou.stopped,enter_14.keys,enter_14.rt,enter_14.duration
0.0007,27.5467,return,27.5325,,V3_001,18,Female,2024-10-13_12h52.59.512,jersey_experiment_5_v3,2023.2.2,Win32,59.88023952,,,,,,,,,,,,,,,,,,,,,,,,,,,,,,,,,,,,,,,,,,,,,,,,,,,,,,,,,,,,,,,,,,,,,,,,,,,,,,
,,,,,V3_001,18,Female,2024-10-13_12h52.59.512,jersey_experiment_5_v3,2023.2.2,Win32,59.88023952,27.5469,39.5637,return,11.9988,,,,,,,,,,,,,,,,,,,,,,,,,,,,,,,,,,,,,,,,,,,,,,,,,,,,,,,,,,,,,,,,,,,,,,,,,,
,,,,,V3_001,18,Female,2024-10-13_12h52.59.512,jersey_experiment_5_v3,2023.2.2,Win32,59.88023952,,,,,,39.5639,51.7134,return,12.0767,,,,,,,,,,,,,,,,,,,,,,,,,,,,,,,,,,,,,,,,,,,,,,,,,,,,,,,,,,,,,,,,,,,,,
,,,,,V3_001,18,Female,2024-10-13_12h52.59.512,jersey_experiment_5_v3,2023.2.2,Win32,59.88023952,,,,,,,,,,,51.7135,70.4471,return,18.7209,,,,,,,,,,,,,,,,,,,,,,,,,,,,,,,,,,,,,,,,,,,,,,,,,,,,,,,,,,,,,,,,
,,,,,V3_001,18,Female,2024-10-13_12h52.59.512,jersey_experiment_5_v3,2023.2.2,Win32,59.88023952,,,,,,,,,,,,,,,,70.4635,71.763,71.7633,84.3305,return,7.4835,,74.72222222,0,0,0,41,1,FBP-OG-19.png,0.37,1.2,42,0.5,,,,,,,,,,,,,,,,,,,,,,,,,,,,,,,,,,,,,,,,,,,,,
,,,,,V3_001,18,Female,2024-10-13_12h52.59.512,jersey_experiment_5_v3,2023.2.2,Win32,59.88023952,,,,,,,,,,,,,,,,84.3404,85.8796,85.8797,95.4962,return,7.018,,94.79166667,0,1,1,48,1,FBP-RB-17.png,0.43,1.2,49,0.75,,,,,,,,,,,,,,,,,,,,,,,,,,,,,,,,,,,,,,,,,,,,,
,,,,,V3_001,18,Female,2024-10-13_12h52.59.512,jersey_experiment_5_v3,2023.2.2,Win32,59.88023952,,,,,,,,,,,,,,,,95.5076,96.7965,96.7967,102.4631,return,2.5022,,58.40277778,0,2,2,44,1,FBP-OG-19.png,0.45,1.2,45,0.5,,,,,,,,,,,,,,,,,,,,,,,,,,,,,,,,,,,,,,,,,,,,,
,,,,,V3_001,18,Female,2024-10-13_12h52.59.512,jersey_experiment_5_v3,2023.2.2,Win32,59.88023952,,,,,,,,,,,,,,,,102.471,104.0132,104.0133,108.4801,return,2.008,,24.86111111,0,3,3,26,1,FBP-PT-19.png,0.37,1.2,27,0.75,,,,,,,,,,,,,,,,,,,,,,,,,,,,,,,,,,,,,,,,,,,,,
,,,,,V3_001,18,Female,2024-10-13_12h52.59.512,jersey_experiment_5_v3,2023.2.2,Win32,59.88023952,,,,,,,,,,,,,,,,108.4917,110.0297,110.0299,113.5131,return,1.4172,,99.86111111,0,4,4,49,1,FBP-RB-17.png,0.45,1.2,50,0.75,,,,,,,,,,,,,,,,,,,,,,,,,,,,,,,,,,,,,,,,,,,,,
,,,,,V3_001,18,Female,2024-10-13_12h52.59.512,jersey_experiment_5_v3,2023.2.2,Win32,59.88023952,,,,,,,,,,,,,,,,113.5134,114.8132,114.8133,117.8134,return,1.2844,,57.91666667,0,5,5,37,1,FBP-OG-18.png,0.4,1.2,38,0.5,,,,,,,,,,,,,,,,,,,,,,,,,,,,,,,,,,,,,,,,,,,,,
,,,,,V3_001,18,Female,2024-10-13_12h52.59.512,jersey_experiment_5_v3,2023.2.2,Win32,59.88023952,,,,,,,,,,,,,,,,117.8138,119.3632,119.3632,126.1466,return,4.5229,,27.08333333,0,6,6,15,1,FBP-PT-17.png,0.35,1.2,16,0.75,,,,,,,,,,,,,,,,,,,,,,,,,,,,,,,,,,,,,,,,,,,,,
,,,,,V3_001,18,Female,2024-10-13_12h52.59.512,jersey_experiment_5_v3,2023.2.2,Win32,59.88023952,,,,,,,,,,,,,,,,126.1471,127.6967,127.6968,131.1632,return,1.2285,,87.36111111,0,7,7,12,1,FBP-YG-91.png,0.4,1.2,13,0.75,,,,,,,,,,,,,,,,,,,,,,,,,,,,,,,,,,,,,,,,,,,,,
,,,,,V3_001,18,Female,2024-10-13_12h52.59.512,jersey_experiment_5_v3,2023.2.2,Win32,59.88023952,,,,,,,,,,,,,,,,131.1637,132.7133,132.7134,137.68,return,1.6732,,99.23611111,0,8,8,9,1,FBP-YG-81.png,0.45,1.2,10,0.75,,,,,,,,,,,,,,,,,,,,,,,,,,,,,,,,,,,,,,,,,,,,,
,,,,,V3_001,18,Female,2024-10-13_12h52.59.512,jersey_experiment_5_v3,2023.2.2,Win32,59.88023952,,,,,,,,,,,,,,,,137.6803,138.9801,138.9801,142.6137,return,1.3859,,90,0,9,9,43,1,FBP-OG-19.png,0.43,1.2,44,0.5,,,,,,,,,,,,,,,,,,,,,,,,,,,,,,,,,,,,,,,,,,,,,
,,,,,V3_001,18,Female,2024-10-13_12h52.59.512,jersey_experiment_5_v3,2023.2.2,Win32,59.88023952,,,,,,,,,,,,,,,,142.6141,143.9132,143.9132,148.0135,return,1.526,,35.06944444,0,10,10,31,1,FBP-OG-17.png,0.37,1.2,32,0.5,,,,,,,,,,,,,,,,,,,,,,,,,,,,,,,,,,,,,,,,,,,,,
,,,,,V3_001,18,Female,2024-10-13_12h52.59.512,jersey_experiment_5_v3,2023.2.2,Win32,59.88023952,,,,,,,,,,,,,,,,148.014,149.5636,149.5637,152.8134,return,1.1929,,27.84722222,0,11,11,10,1,FBP-YG-91.png,0.35,1.2,11,0.75,,,,,,,,,,,,,,,,,,,,,,,,,,,,,,,,,,,,,,,,,,,,,
,,,,,V3_001,18,Female,2024-10-13_12h52.59.512,jersey_experiment_5_v3,2023.2.2,Win32,59.88023952,,,,,,,,,,,,,,,,152.8138,154.1134,154.1135,157.1635,return,1.1116,,18.95833333,0,12,12,35,1,FBP-OG-18.png,0.35,1.2,36,0.5,,,,,,,,,,,,,,,,,,,,,,,,,,,,,,,,,,,,,,,,,,,,,
,,,,,V3_001,18,Female,2024-10-13_12h52.59.512,jersey_experiment_5_v3,2023.2.2,Win32,59.88023952,,,,,,,,,,,,,,,,157.1639,158.7136,158.7137,162.0304,return,0.7928,,25.69444444,0,13,13,0,1,FBP-YG-71.png,0.35,1.2,1,0.75,,,,,,,,,,,,,,,,,,,,,,,,,,,,,,,,,,,,,,,,,,,,,
,,,,,V3_001,18,Female,2024-10-13_12h52.59.512,jersey_experiment_5_v3,2023.2.2,Win32,59.88023952,,,,,,,,,,,,,,,,162.0308,163.5804,163.5804,166.5135,return,0.857,,96.875,0,14,14,19,1,FBP-PT-17.png,0.45,1.2,20,0.75,,,,,,,,,,,,,,,,,,,,,,,,,,,,,,,,,,,,,,,,,,,,,
,,,,,V3_001,18,Female,2024-10-13_12h52.59.512,jersey_experiment_5_v3,2023.2.2,Win32,59.88023952,,,,,,,,,,,,,,,,166.5138,168.0638,168.0638,170.3469,return,0.9295,,99.16666667,0,15,15,29,1,FBP-PT-19.png,0.45,1.2,30,0.75,,,,,,,,,,,,,,,,,,,,,,,,,,,,,,,,,,,,,,,,,,,,,
,,,,,V3_001,18,Female,2024-10-13_12h52.59.512,jersey_experiment_5_v3,2023.2.2,Win32,59.88023952,,,,,,,,,,,,,,,,170.3474,171.8968,171.8969,176.797,return,3.5771,,92.70833333,0,16,16,18,1,FBP-PT-17.png,0.43,1.2,19,0.75,,,,,,,,,,,,,,,,,,,,,,,,,,,,,,,,,,,,,,,,,,,,,
,,,,,V3_001,18,Female,2024-10-13_12h52.59.512,jersey_experiment_5_v3,2023.2.2,Win32,59.88023952,,,,,,,,,,,,,,,,176.7976,178.3475,178.3477,182.4641,return,1.0745,,99.51388889,0,17,17,14,1,FBP-YG-91.png,0.45,1.2,15,0.75,,,,,,,,,,,,,,,,,,,,,,,,,,,,,,,,,,,,,,,,,,,,,
,,,,,V3_001,18,Female,2024-10-13_12h52.59.512,jersey_experiment_5_v3,2023.2.2,Win32,59.88023952,,,,,,,,,,,,,,,,182.4646,184.0139,184.0139,186.9138,return,0.7405,,98.68055556,0,18,18,54,1,FBP-RB-18.png,0.45,1.2,55,0.75,,,,,,,,,,,,,,,,,,,,,,,,,,,,,,,,,,,,,,,,,,,,,
,,,,,V3_001,18,Female,2024-10-13_12h52.59.512,jersey_experiment_5_v3,2023.2.2,Win32,59.88023952,,,,,,,,,,,,,,,,186.9143,188.2137,188.2137,191.147,return,0.7335,,90.97222222,0,19,19,33,1,FBP-OG-17.png,0.43,1.2,34,0.5,,,,,,,,,,,,,,,,,,,,,,,,,,,,,,,,,,,,,,,,,,,,,
,,,,,V3_001,18,Female,2024-10-13_12h52.59.512,jersey_experiment_5_v3,2023.2.2,Win32,59.88023952,,,,,,,,,,,,,,,,191.1474,192.4473,192.4473,195.7804,return,1.0029,,90.34722222,0,20,20,39,1,FBP-OG-18.png,0.45,1.2,40,0.5,,,,,,,,,,,,,,,,,,,,,,,,,,,,,,,,,,,,,,,,,,,,,
,,,,,V3_001,18,Female,2024-10-13_12h52.59.512,jersey_experiment_5_v3,2023.2.2,Win32,59.88023952,,,,,,,,,,,,,,,,195.7809,197.3305,197.3306,201.4804,return,2.134,,72.22222222,0,21,21,52,1,FBP-RB-18.png,0.4,1.2,53,0.75,,,,,,,,,,,,,,,,,,,,,,,,,,,,,,,,,,,,,,,,,,,,,
,,,,,V3_001,18,Female,2024-10-13_12h52.59.512,jersey_experiment_5_v3,2023.2.2,Win32,59.88023952,,,,,,,,,,,,,,,,201.4808,203.0304,203.0304,207.2807,return,1.1572,,41.59722222,0,22,22,21,1,FBP-PT-18.png,0.37,1.2,22,0.75,,,,,,,,,,,,,,,,,,,,,,,,,,,,,,,,,,,,,,,,,,,,,
,,,,,V3_001,18,Female,2024-10-13_12h52.59.512,jersey_experiment_5_v3,2023.2.2,Win32,59.88023952,,,,,,,,,,,,,,,,207.2811,208.8303,208.8304,217.2974,return,1.4229,,49.51388889,0,23,23,46,1,FBP-RB-17.png,0.37,1.2,47,0.75,,,,,,,,,,,,,,,,,,,,,,,,,,,,,,,,,,,,,,,,,,,,,
,,,,,V3_001,18,Female,2024-10-13_12h52.59.512,jersey_experiment_5_v3,2023.2.2,Win32,59.88023952,,,,,,,,,,,,,,,,217.2977,218.8476,218.8478,223.6809,return,0.7728,,45.13888889,0,24,24,25,1,FBP-PT-19.png,0.35,1.2,26,0.75,,,,,,,,,,,,,,,,,,,,,,,,,,,,,,,,,,,,,,,,,,,,,
,,,,,V3_001,18,Female,2024-10-13_12h52.59.512,jersey_experiment_5_v3,2023.2.2,Win32,59.88023952,,,,,,,,,,,,,,,,223.6812,225.2307,225.2307,228.0306,return,0.9081,,46.18055556,0,25,25,20,1,FBP-PT-18.png,0.35,1.2,21,0.75,,,,,,,,,,,,,,,,,,,,,,,,,,,,,,,,,,,,,,,,,,,,,
,,,,,V3_001,18,Female,2024-10-13_12h52.59.512,jersey_experiment_5_v3,2023.2.2,Win32,59.88023952,,,,,,,,,,,,,,,,228.0311,229.5806,229.5806,233.8972,return,2.2844,,98.19444444,0,26,26,23,1,FBP-PT-18.png,0.43,1.2,24,0.75,,,,,,,,,,,,,,,,,,,,,,,,,,,,,,,,,,,,,,,,,,,,,
,,,,,V3_001,18,Female,2024-10-13_12h52.59.512,jersey_experiment_5_v3,2023.2.2,Win32,59.88023952,,,,,,,,,,,,,,,,233.8977,235.4474,235.4474,238.0307,return,0.843,,58.47222222,0,27,27,6,1,FBP-YG-81.png,0.37,1.2,7,0.75,,,,,,,,,,,,,,,,,,,,,,,,,,,,,,,,,,,,,,,,,,,,,
,,,,,V3_001,18,Female,2024-10-13_12h52.59.512,jersey_experiment_5_v3,2023.2.2,Win32,59.88023952,,,,,,,,,,,,,,,,238.0312,239.5809,239.5809,242.7473,return,0.828,,63.75,0,28,28,22,1,FBP-PT-18.png,0.4,1.2,23,0.75,,,,,,,,,,,,,,,,,,,,,,,,,,,,,,,,,,,,,,,,,,,,,
,,,,,V3_001,18,Female,2024-10-13_12h52.59.512,jersey_experiment_5_v3,2023.2.2,Win32,59.88023952,,,,,,,,,,,,,,,,242.7476,244.0474,244.0475,249.6805,return,3.4408,,25,0,29,29,40,1,FBP-OG-19.png,0.35,1.2,41,0.5,,,,,,,,,,,,,,,,,,,,,,,,,,,,,,,,,,,,,,,,,,,,,
,,,,,V3_001,18,Female,2024-10-13_12h52.59.512,jersey_experiment_5_v3,2023.2.2,Win32,59.88023952,,,,,,,,,,,,,,,,249.6809,251.2308,251.2308,254.0645,return,0.7581,,92.91666667,0,30,30,24,1,FBP-PT-18.png,0.45,1.2,25,0.75,,,,,,,,,,,,,,,,,,,,,,,,,,,,,,,,,,,,,,,,,,,,,
,,,,,V3_001,18,Female,2024-10-13_12h52.59.512,jersey_experiment_5_v3,2023.2.2,Win32,59.88023952,,,,,,,,,,,,,,,,254.0649,255.6143,255.6144,258.9806,return,0.7532,,35.27777778,0,31,31,16,1,FBP-PT-17.png,0.37,1.2,17,0.75,,,,,,,,,,,,,,,,,,,,,,,,,,,,,,,,,,,,,,,,,,,,,
,,,,,V3_001,18,Female,2024-10-13_12h52.59.512,jersey_experiment_5_v3,2023.2.2,Win32,59.88023952,,,,,,,,,,,,,,,,258.9811,260.5308,260.531,263.231,return,0.8092,,94.51388889,0,32,32,47,1,FBP-RB-17.png,0.4,1.2,48,0.75,,,,,,,,,,,,,,,,,,,,,,,,,,,,,,,,,,,,,,,,,,,,,
,,,,,V3_001,18,Female,2024-10-13_12h52.59.512,jersey_experiment_5_v3,2023.2.2,Win32,59.88023952,,,,,,,,,,,,,,,,263.2312,264.7811,264.7812,267.1309,return,0.7662,,99.30555556,0,33,33,4,1,FBP-YG-71.png,0.45,1.2,5,0.75,,,,,,,,,,,,,,,,,,,,,,,,,,,,,,,,,,,,,,,,,,,,,
,,,,,V3_001,18,Female,2024-10-13_12h52.59.512,jersey_experiment_5_v3,2023.2.2,Win32,59.88023952,,,,,,,,,,,,,,,,267.1311,268.6808,268.6808,271.1977,return,0.6451,,86.25,0,34,34,3,1,FBP-YG-71.png,0.43,1.2,4,0.75,,,,,,,,,,,,,,,,,,,,,,,,,,,,,,,,,,,,,,,,,,,,,
,,,,,V3_001,18,Female,2024-10-13_12h52.59.512,jersey_experiment_5_v3,2023.2.2,Win32,59.88023952,,,,,,,,,,,,,,,,271.1982,272.7475,272.7477,275.2309,return,0.6582,,76.66666667,0,35,35,17,1,FBP-PT-17.png,0.4,1.2,18,0.75,,,,,,,,,,,,,,,,,,,,,,,,,,,,,,,,,,,,,,,,,,,,,
,,,,,V3_001,18,Female,2024-10-13_12h52.59.512,jersey_experiment_5_v3,2023.2.2,Win32,59.88023952,,,,,,,,,,,,,,,,275.2314,276.7811,276.7813,279.1642,return,0.7268,,98.54166667,0,36,36,28,1,FBP-PT-19.png,0.43,1.2,29,0.75,,,,,,,,,,,,,,,,,,,,,,,,,,,,,,,,,,,,,,,,,,,,,
,,,,,V3_001,18,Female,2024-10-13_12h52.59.512,jersey_experiment_5_v3,2023.2.2,Win32,59.88023952,,,,,,,,,,,,,,,,279.1646,280.4643,280.4644,287.6645,return,1.6245,,79.02777778,0,37,37,38,1,FBP-OG-18.png,0.43,1.2,39,0.5,,,,,,,,,,,,,,,,,,,,,,,,,,,,,,,,,,,,,,,,,,,,,
,,,,,V3_001,18,Female,2024-10-13_12h52.59.512,jersey_experiment_5_v3,2023.2.2,Win32,59.88023952,,,,,,,,,,,,,,,,287.6648,288.9645,288.9646,291.7314,return,0.9375,,78.88888889,0,38,38,42,1,FBP-OG-19.png,0.4,1.2,43,0.5,,,,,,,,,,,,,,,,,,,,,,,,,,,,,,,,,,,,,,,,,,,,,
,,,,,V3_001,18,Female,2024-10-13_12h52.59.512,jersey_experiment_5_v3,2023.2.2,Win32,59.88023952,,,,,,,,,,,,,,,,291.7318,293.2811,293.2813,295.6477,return,0.757,,95.83333333,0,39,39,57,1,FBP-RB-19.png,0.4,1.2,58,0.75,,,,,,,,,,,,,,,,,,,,,,,,,,,,,,,,,,,,,,,,,,,,,
,,,,,V3_001,18,Female,2024-10-13_12h52.59.512,jersey_experiment_5_v3,2023.2.2,Win32,59.88023952,,,,,,,,,,,,,,,,295.6481,297.1975,297.1975,301.5145,return,1.0129,,7.708333333,0,40,40,45,1,FBP-RB-17.png,0.35,1.2,46,0.75,,,,,,,,,,,,,,,,,,,,,,,,,,,,,,,,,,,,,,,,,,,,,
,,,,,V3_001,18,Female,2024-10-13_12h52.59.512,jersey_experiment_5_v3,2023.2.2,Win32,59.88023952,,,,,,,,,,,,,,,,301.5148,303.0645,303.0646,306.5977,return,1.8518,,26.31944444,0,41,41,5,1,FBP-YG-81.png,0.35,1.2,6,0.75,,,,,,,,,,,,,,,,,,,,,,,,,,,,,,,,,,,,,,,,,,,,,
,,,,,V3_001,18,Female,2024-10-13_12h52.59.512,jersey_experiment_5_v3,2023.2.2,Win32,59.88023952,,,,,,,,,,,,,,,,306.598,308.1477,308.1478,311.1979,return,0.7091,,49.65277778,0,42,42,1,1,FBP-YG-71.png,0.37,1.2,2,0.75,,,,,,,,,,,,,,,,,,,,,,,,,,,,,,,,,,,,,,,,,,,,,
,,,,,V3_001,18,Female,2024-10-13_12h52.59.512,jersey_experiment_5_v3,2023.2.2,Win32,59.88023952,,,,,,,,,,,,,,,,311.1984,312.748,312.7481,314.731,return,0.8456,,74.58333333,0,43,43,56,1,FBP-RB-19.png,0.37,1.2,57,0.75,,,,,,,,,,,,,,,,,,,,,,,,,,,,,,,,,,,,,,,,,,,,,
,,,,,V3_001,18,Female,2024-10-13_12h52.59.512,jersey_experiment_5_v3,2023.2.2,Win32,59.88023952,,,,,,,,,,,,,,,,314.7312,316.2811,316.2812,318.3146,return,0.7597,,97.63888889,0,44,44,11,1,FBP-YG-91.png,0.37,1.2,12,0.75,,,,,,,,,,,,,,,,,,,,,,,,,,,,,,,,,,,,,,,,,,,,,
,,,,,V3_001,18,Female,2024-10-13_12h52.59.512,jersey_experiment_5_v3,2023.2.2,Win32,59.88023952,,,,,,,,,,,,,,,,318.315,319.8647,319.8648,322.3813,return,0.6762,,77.43055556,0,45,45,58,1,FBP-RB-19.png,0.43,1.2,59,0.75,,,,,,,,,,,,,,,,,,,,,,,,,,,,,,,,,,,,,,,,,,,,,
,,,,,V3_001,18,Female,2024-10-13_12h52.59.512,jersey_experiment_5_v3,2023.2.2,Win32,59.88023952,,,,,,,,,,,,,,,,322.3816,323.6811,323.6812,326.0314,return,0.7239,,90.06944444,0,46,46,32,1,FBP-OG-17.png,0.4,1.2,33,0.5,,,,,,,,,,,,,,,,,,,,,,,,,,,,,,,,,,,,,,,,,,,,,
,,,,,V3_001,18,Female,2024-10-13_12h52.59.512,jersey_experiment_5_v3,2023.2.2,Win32,59.88023952,,,,,,,,,,,,,,,,326.0317,327.5815,327.5816,330.0812,return,0.7715,,97.29166667,0,47,47,53,1,FBP-RB-18.png,0.43,1.2,54,0.75,,,,,,,,,,,,,,,,,,,,,,,,,,,,,,,,,,,,,,,,,,,,,
,,,,,V3_001,18,Female,2024-10-13_12h52.59.512,jersey_experiment_5_v3,2023.2.2,Win32,59.88023952,,,,,,,,,,,,,,,,330.0817,331.6314,331.6315,334.0984,return,0.7223,,98.61111111,0,48,48,13,1,FBP-YG-91.png,0.43,1.2,14,0.75,,,,,,,,,,,,,,,,,,,,,,,,,,,,,,,,,,,,,,,,,,,,,
,,,,,V3_001,18,Female,2024-10-13_12h52.59.512,jersey_experiment_5_v3,2023.2.2,Win32,59.88023952,,,,,,,,,,,,,,,,334.0992,335.3981,335.3981,337.9312,return,0.7793,,25.27777778,0,49,49,30,1,FBP-OG-17.png,0.35,1.2,31,0.5,,,,,,,,,,,,,,,,,,,,,,,,,,,,,,,,,,,,,,,,,,,,,
,,,,,V3_001,18,Female,2024-10-13_12h52.59.512,jersey_experiment_5_v3,2023.2.2,Win32,59.88023952,,,,,,,,,,,,,,,,337.9315,339.4811,339.4812,342.5481,return,0.6711,,83.125,0,50,50,2,1,FBP-YG-71.png,0.4,1.2,3,0.75,,,,,,,,,,,,,,,,,,,,,,,,,,,,,,,,,,,,,,,,,,,,,
,,,,,V3_001,18,Female,2024-10-13_12h52.59.512,jersey_experiment_5_v3,2023.2.2,Win32,59.88023952,,,,,,,,,,,,,,,,342.5485,344.0981,344.0982,347.4647,return,0.6493,,41.94444444,0,51,51,51,1,FBP-RB-18.png,0.37,1.2,52,0.75,,,,,,,,,,,,,,,,,,,,,,,,,,,,,,,,,,,,,,,,,,,,,
,,,,,V3_001,18,Female,2024-10-13_12h52.59.512,jersey_experiment_5_v3,2023.2.2,Win32,59.88023952,,,,,,,,,,,,,,,,347.465,349.0148,349.0148,351.2318,return,0.6402,,75.41666667,0,52,52,27,1,FBP-PT-19.png,0.4,1.2,28,0.75,,,,,,,,,,,,,,,,,,,,,,,,,,,,,,,,,,,,,,,,,,,,,
,,,,,V3_001,18,Female,2024-10-13_12h52.59.512,jersey_experiment_5_v3,2023.2.2,Win32,59.88023952,,,,,,,,,,,,,,,,351.2321,352.7818,352.7819,355.0314,return,0.6845,,49.72222222,0,53,53,55,1,FBP-RB-19.png,0.35,1.2,56,0.75,,,,,,,,,,,,,,,,,,,,,,,,,,,,,,,,,,,,,,,,,,,,,
,,,,,V3_001,18,Female,2024-10-13_12h52.59.512,jersey_experiment_5_v3,2023.2.2,Win32,59.88023952,,,,,,,,,,,,,,,,355.0317,356.3314,356.3314,359.4481,return,0.65,,64.02777778,0,54,54,36,1,FBP-OG-18.png,0.37,1.2,37,0.5,,,,,,,,,,,,,,,,,,,,,,,,,,,,,,,,,,,,,,,,,,,,,
,,,,,V3_001,18,Female,2024-10-13_12h52.59.512,jersey_experiment_5_v3,2023.2.2,Win32,59.88023952,,,,,,,,,,,,,,,,359.4487,360.9983,360.9984,363.7483,return,0.5897,,68.61111111,0,55,55,8,1,FBP-YG-81.png,0.43,1.2,9,0.75,,,,,,,,,,,,,,,,,,,,,,,,,,,,,,,,,,,,,,,,,,,,,
,,,,,V3_001,18,Female,2024-10-13_12h52.59.512,jersey_experiment_5_v3,2023.2.2,Win32,59.88023952,,,,,,,,,,,,,,,,363.7488,365.2985,365.2986,367.5984,return,0.5915,,96.25,0,56,56,59,1,FBP-RB-19.png,0.45,1.2,60,0.75,,,,,,,,,,,,,,,,,,,,,,,,,,,,,,,,,,,,,,,,,,,,,
,,,,,V3_001,18,Female,2024-10-13_12h52.59.512,jersey_experiment_5_v3,2023.2.2,Win32,59.88023952,,,,,,,,,,,,,,,,367.5988,369.1482,369.1483,372.0818,return,0.6886,,39.65277778,0,57,57,50,1,FBP-RB-18.png,0.35,1.2,51,0.75,,,,,,,,,,,,,,,,,,,,,,,,,,,,,,,,,,,,,,,,,,,,,
,,,,,V3_001,18,Female,2024-10-13_12h52.59.512,jersey_experiment_5_v3,2023.2.2,Win32,59.88023952,,,,,,,,,,,,,,,,372.0822,373.3818,373.3819,379.8652,return,0.6342,,96.45833333,0,58,58,34,1,FBP-OG-17.png,0.45,1.2,35,0.5,,,,,,,,,,,,,,,,,,,,,,,,,,,,,,,,,,,,,,,,,,,,,
,,,,,V3_001,18,Female,2024-10-13_12h52.59.512,jersey_experiment_5_v3,2023.2.2,Win32,59.88023952,,,,,,,,,,,,,,,,379.8656,381.4151,381.4152,383.9149,return,0.5956,,69.23611111,0,59,59,7,1,FBP-YG-81.png,0.4,1.2,8,0.75,,,,,,,,,,,,,,,,,,,,,,,,,,,,,,,,,,,,,,,,,,,,,
,,,,,V3_001,18,Female,2024-10-13_12h52.59.512,jersey_experiment_5_v3,2023.2.2,Win32,59.88023952,,,,,,,,,,,,,,,,383.9188,385.4652,385.4654,387.1315,return,0.6446,,64.44444444,,,,,,FBP-YG-19.png,0.37,1.2,12,0.75,0,0,0,11,1,,,,,,,,,,,,,,,,,,,,,,,,,,,,,,,,,,,,,,,,
,,,,,V3_001,18,Female,2024-10-13_12h52.59.512,jersey_experiment_5_v3,2023.2.2,Win32,59.88023952,,,,,,,,,,,,,,,,387.132,388.4317,388.4318,390.8149,return,0.6093,,75.55555556,,,,,,FBP-OG-71.png,0.4,1.2,33,0.5,0,1,1,32,1,,,,,,,,,,,,,,,,,,,,,,,,,,,,,,,,,,,,,,,,
,,,,,V3_001,18,Female,2024-10-13_12h52.59.512,jersey_experiment_5_v3,2023.2.2,Win32,59.88023952,,,,,,,,,,,,,,,,390.8155,392.3651,392.3651,394.6153,return,0.5837,,61.66666667,,,,,,FBP-YG-18.png,0.37,1.2,7,0.75,0,2,2,6,1,,,,,,,,,,,,,,,,,,,,,,,,,,,,,,,,,,,,,,,,
,,,,,V3_001,18,Female,2024-10-13_12h52.59.512,jersey_experiment_5_v3,2023.2.2,Win32,59.88023952,,,,,,,,,,,,,,,,394.6157,396.165,396.165,398.5985,return,0.6183,,96.11111111,,,,,,FBP-YG-18.png,0.45,1.2,10,0.75,0,3,3,9,1,,,,,,,,,,,,,,,,,,,,,,,,,,,,,,,,,,,,,,,,
,,,,,V3_001,18,Female,2024-10-13_12h52.59.512,jersey_experiment_5_v3,2023.2.2,Win32,59.88023952,,,,,,,,,,,,,,,,398.599,400.1485,400.1486,402.7816,return,0.6929,,49.79166667,,,,,,FBP-YG-17.png,0.37,1.2,2,0.75,0,4,4,1,1,,,,,,,,,,,,,,,,,,,,,,,,,,,,,,,,,,,,,,,,
,,,,,V3_001,18,Female,2024-10-13_12h52.59.512,jersey_experiment_5_v3,2023.2.2,Win32,59.88023952,,,,,,,,,,,,,,,,402.782,404.3321,404.3323,407.2818,return,0.6392,,57.08333333,,,,,,FBP-PT-71.png,0.37,1.2,17,0.75,0,5,5,16,1,,,,,,,,,,,,,,,,,,,,,,,,,,,,,,,,,,,,,,,,
,,,,,V3_001,18,Female,2024-10-13_12h52.59.512,jersey_experiment_5_v3,2023.2.2,Win32,59.88023952,,,,,,,,,,,,,,,,407.2823,408.582,408.5821,410.7317,return,0.5278,,36.11111111,,,,,,FBP-OG-81.png,0.35,1.2,36,0.5,0,6,6,35,1,,,,,,,,,,,,,,,,,,,,,,,,,,,,,,,,,,,,,,,,
,,,,,V3_001,18,Female,2024-10-13_12h52.59.512,jersey_experiment_5_v3,2023.2.2,Win32,59.88023952,,,,,,,,,,,,,,,,410.7319,412.2818,412.2819,415.3822,return,0.7837,,43.61111111,,,,,,FBP-RB-81.png,0.35,1.2,51,0.75,0,7,7,50,1,,,,,,,,,,,,,,,,,,,,,,,,,,,,,,,,,,,,,,,,
,,,,,V3_001,18,Female,2024-10-13_12h52.59.512,jersey_experiment_5_v3,2023.2.2,Win32,59.88023952,,,,,,,,,,,,,,,,415.3828,416.9317,416.9318,419.0489,return,0.5674,,72.22222222,,,,,,FBP-YG-19.png,0.4,1.2,13,0.75,0,8,8,12,1,,,,,,,,,,,,,,,,,,,,,,,,,,,,,,,,,,,,,,,,
,,,,,V3_001,18,Female,2024-10-13_12h52.59.512,jersey_experiment_5_v3,2023.2.2,Win32,59.88023952,,,,,,,,,,,,,,,,419.0495,420.5989,420.5989,424.4823,return,0.7713,,99.44444444,,,,,,FBP-PT-81.png,0.45,1.2,25,0.75,0,9,9,24,1,,,,,,,,,,,,,,,,,,,,,,,,,,,,,,,,,,,,,,,,
,,,,,V3_001,18,Female,2024-10-13_12h52.59.512,jersey_experiment_5_v3,2023.2.2,Win32,59.88023952,,,,,,,,,,,,,,,,424.4829,426.0324,426.0325,429.1154,return,1.3019,,34.72222222,,,,,,FBP-YG-17.png,0.35,1.2,1,0.75,0,10,10,0,1,,,,,,,,,,,,,,,,,,,,,,,,,,,,,,,,,,,,,,,,
,,,,,V3_001,18,Female,2024-10-13_12h52.59.512,jersey_experiment_5_v3,2023.2.2,Win32,59.88023952,,,,,,,,,,,,,,,,429.1157,430.4151,430.4151,435.2821,return,0.7065,,52.22222222,,,,,,FBP-OG-71.png,0.43,1.2,34,0.5,0,11,11,33,1,,,,,,,,,,,,,,,,,,,,,,,,,,,,,,,,,,,,,,,,
,,,,,V3_001,18,Female,2024-10-13_12h52.59.512,jersey_experiment_5_v3,2023.2.2,Win32,59.88023952,,,,,,,,,,,,,,,,435.2827,436.832,436.8321,439.5988,return,0.6909,,68.33333333,,,,,,FBP-RB-71.png,0.45,1.2,50,0.75,0,12,12,49,1,,,,,,,,,,,,,,,,,,,,,,,,,,,,,,,,,,,,,,,,
,,,,,V3_001,18,Female,2024-10-13_12h52.59.512,jersey_experiment_5_v3,2023.2.2,Win32,59.88023952,,,,,,,,,,,,,,,,439.5991,440.899,440.8991,443.582,return,0.6758,,77.22222222,,,,,,FBP-OG-81.png,0.4,1.2,38,0.5,0,13,13,37,1,,,,,,,,,,,,,,,,,,,,,,,,,,,,,,,,,,,,,,,,
,,,,,V3_001,18,Female,2024-10-13_12h52.59.512,jersey_experiment_5_v3,2023.2.2,Win32,59.88023952,,,,,,,,,,,,,,,,443.5824,445.132,445.132,449.3322,return,2.0022,,66.38888889,,,,,,FBP-PT-81.png,0.4,1.2,23,0.75,0,14,14,22,1,,,,,,,,,,,,,,,,,,,,,,,,,,,,,,,,,,,,,,,,
,,,,,V3_001,18,Female,2024-10-13_12h52.59.512,jersey_experiment_5_v3,2023.2.2,Win32,59.88023952,,,,,,,,,,,,,,,,449.3327,450.882,450.882,455.5654,return,0.7092,,67.77777778,,,,,,FBP-YG-17.png,0.43,1.2,4,0.75,0,15,15,3,1,,,,,,,,,,,,,,,,,,,,,,,,,,,,,,,,,,,,,,,,
,,,,,V3_001,18,Female,2024-10-13_12h52.59.512,jersey_experiment_5_v3,2023.2.2,Win32,59.88023952,,,,,,,,,,,,,,,,455.5658,457.1155,457.1156,459.2153,return,0.7567,,32.43055556,,,,,,FBP-PT-91.png,0.35,1.2,26,0.75,0,16,16,25,1,,,,,,,,,,,,,,,,,,,,,,,,,,,,,,,,,,,,,,,,
,,,,,V3_001,18,Female,2024-10-13_12h52.59.512,jersey_experiment_5_v3,2023.2.2,Win32,59.88023952,,,,,,,,,,,,,,,,459.2158,460.7655,460.7656,463.749,return,0.6525,,33.05555556,,,,,,FBP-RB-91.png,0.35,1.2,56,0.75,0,17,17,55,1,,,,,,,,,,,,,,,,,,,,,,,,,,,,,,,,,,,,,,,,
,,,,,V3_001,18,Female,2024-10-13_12h52.59.512,jersey_experiment_5_v3,2023.2.2,Win32,59.88023952,,,,,,,,,,,,,,,,463.7494,465.2991,465.2991,467.3488,return,0.6195,,62.15277778,,,,,,FBP-YG-18.png,0.4,1.2,8,0.75,0,18,18,7,1,,,,,,,,,,,,,,,,,,,,,,,,,,,,,,,,,,,,,,,,
,,,,,V3_001,18,Female,2024-10-13_12h52.59.512,jersey_experiment_5_v3,2023.2.2,Win32,59.88023952,,,,,,,,,,,,,,,,467.3493,468.6491,468.6492,474.0492,return,3.5909,,50.83333333,,,,,,FBP-OG-81.png,0.37,1.2,37,0.5,0,19,19,36,1,,,,,,,,,,,,,,,,,,,,,,,,,,,,,,,,,,,,,,,,
,,,,,V3_001,18,Female,2024-10-13_12h52.59.512,jersey_experiment_5_v3,2023.2.2,Win32,59.88023952,,,,,,,,,,,,,,,,474.0497,475.3491,475.3491,477.6324,return,0.6397,,58.33333333,,,,,,FBP-OG-91.png,0.4,1.2,43,0.5,0,20,20,42,1,,,,,,,,,,,,,,,,,,,,,,,,,,,,,,,,,,,,,,,,
,,,,,V3_001,18,Female,2024-10-13_12h52.59.512,jersey_experiment_5_v3,2023.2.2,Win32,59.88023952,,,,,,,,,,,,,,,,477.6329,479.1828,479.183,481.5003,return,0.5636,,64.93055556,,,,,,FBP-RB-91.png,0.4,1.2,58,0.75,0,21,21,57,1,,,,,,,,,,,,,,,,,,,,,,,,,,,,,,,,,,,,,,,,
,,,,,V3_001,18,Female,2024-10-13_12h52.59.512,jersey_experiment_5_v3,2023.2.2,Win32,59.88023952,,,,,,,,,,,,,,,,481.5008,482.7989,482.7989,485.0657,return,0.5846,,93.88888889,,,,,,FBP-OG-81.png,0.43,1.2,39,0.5,0,22,22,38,1,,,,,,,,,,,,,,,,,,,,,,,,,,,,,,,,,,,,,,,,
,,,,,V3_001,18,Female,2024-10-13_12h52.59.512,jersey_experiment_5_v3,2023.2.2,Win32,59.88023952,,,,,,,,,,,,,,,,485.0661,486.6157,486.6158,488.8325,return,0.5572,,97.63888889,,,,,,FBP-RB-71.png,0.43,1.2,49,0.75,0,23,23,48,1,,,,,,,,,,,,,,,,,,,,,,,,,,,,,,,,,,,,,,,,
,,,,,V3_001,18,Female,2024-10-13_12h52.59.512,jersey_experiment_5_v3,2023.2.2,Win32,59.88023952,,,,,,,,,,,,,,,,488.8329,490.1323,490.1323,492.4658,return,0.539,,92.56944444,,,,,,FBP-OG-71.png,0.45,1.2,35,0.5,0,24,24,34,1,,,,,,,,,,,,,,,,,,,,,,,,,,,,,,,,,,,,,,,,
,,,,,V3_001,18,Female,2024-10-13_12h52.59.512,jersey_experiment_5_v3,2023.2.2,Win32,59.88023952,,,,,,,,,,,,,,,,492.4663,493.7655,493.7655,495.7159,return,0.637,,92.29166667,,,,,,FBP-OG-91.png,0.45,1.2,45,0.5,0,25,25,44,1,,,,,,,,,,,,,,,,,,,,,,,,,,,,,,,,,,,,,,,,
,,,,,V3_001,18,Female,2024-10-13_12h52.59.512,jersey_experiment_5_v3,2023.2.2,Win32,59.88023952,,,,,,,,,,,,,,,,495.7163,497.2657,497.2658,500.1659,return,0.6516,,97.70833333,,,,,,FBP-RB-71.png,0.4,1.2,48,0.75,0,26,26,47,1,,,,,,,,,,,,,,,,,,,,,,,,,,,,,,,,,,,,,,,,
,,,,,V3_001,18,Female,2024-10-13_12h52.59.512,jersey_experiment_5_v3,2023.2.2,Win32,59.88023952,,,,,,,,,,,,,,,,500.1664,501.7157,501.7158,505.9654,return,0.6927,,24.58333333,,,,,,FBP-PT-71.png,0.35,1.2,16,0.75,0,27,27,15,1,,,,,,,,,,,,,,,,,,,,,,,,,,,,,,,,,,,,,,,,
,,,,,V3_001,18,Female,2024-10-13_12h52.59.512,jersey_experiment_5_v3,2023.2.2,Win32,59.88023952,,,,,,,,,,,,,,,,505.9658,507.5162,507.5162,509.8998,return,0.6003,,82.98611111,,,,,,FBP-PT-91.png,0.45,1.2,30,0.75,0,28,28,29,1,,,,,,,,,,,,,,,,,,,,,,,,,,,,,,,,,,,,,,,,
,,,,,V3_001,18,Female,2024-10-13_12h52.59.512,jersey_experiment_5_v3,2023.2.2,Win32,59.88023952,,,,,,,,,,,,,,,,509.9003,511.4494,511.4494,513.216,return,0.5736,,50.48611111,,,,,,FBP-PT-91.png,0.37,1.2,27,0.75,0,29,29,26,1,,,,,,,,,,,,,,,,,,,,,,,,,,,,,,,,,,,,,,,,
,,,,,V3_001,18,Female,2024-10-13_12h52.59.512,jersey_experiment_5_v3,2023.2.2,Win32,59.88023952,,,,,,,,,,,,,,,,513.2166,514.7658,514.7659,519.4829,return,3.3191,,74.93055556,,,,,,FBP-RB-81.png,0.43,1.2,54,0.75,0,30,30,53,1,,,,,,,,,,,,,,,,,,,,,,,,,,,,,,,,,,,,,,,,
,,,,,V3_001,18,Female,2024-10-13_12h52.59.512,jersey_experiment_5_v3,2023.2.2,Win32,59.88023952,,,,,,,,,,,,,,,,519.4916,521.0325,521.0326,525.7659,return,0.6341,,79.72222222,,,,,,FBP-YG-17.png,0.45,1.2,5,0.75,0,31,31,4,1,,,,,,,,,,,,,,,,,,,,,,,,,,,,,,,,,,,,,,,,
,,,,,V3_001,18,Female,2024-10-13_12h52.59.512,jersey_experiment_5_v3,2023.2.2,Win32,59.88023952,,,,,,,,,,,,,,,,525.7663,527.3159,527.316,529.6998,return,0.6041,,62.36111111,,,,,,FBP-PT-91.png,0.4,1.2,28,0.75,0,32,32,27,1,,,,,,,,,,,,,,,,,,,,,,,,,,,,,,,,,,,,,,,,
,,,,,V3_001,18,Female,2024-10-13_12h52.59.512,jersey_experiment_5_v3,2023.2.2,Win32,59.88023952,,,,,,,,,,,,,,,,529.7004,531.2497,531.2497,533.2495,return,0.5721,,50.41666667,,,,,,FBP-RB-81.png,0.37,1.2,52,0.75,0,33,33,51,1,,,,,,,,,,,,,,,,,,,,,,,,,,,,,,,,,,,,,,,,
,,,,,V3_001,18,Female,2024-10-13_12h52.59.512,jersey_experiment_5_v3,2023.2.2,Win32,59.88023952,,,,,,,,,,,,,,,,533.25,534.7995,534.7996,537.1324,return,0.56,,74.72222222,,,,,,FBP-PT-81.png,0.43,1.2,24,0.75,0,34,34,23,1,,,,,,,,,,,,,,,,,,,,,,,,,,,,,,,,,,,,,,,,
,,,,,V3_001,18,Female,2024-10-13_12h52.59.512,jersey_experiment_5_v3,2023.2.2,Win32,59.88023952,,,,,,,,,,,,,,,,537.1327,538.6825,538.6826,541.3329,return,0.9852,,73.54166667,,,,,,FBP-PT-71.png,0.43,1.2,19,0.75,0,35,35,18,1,,,,,,,,,,,,,,,,,,,,,,,,,,,,,,,,,,,,,,,,
,,,,,V3_001,18,Female,2024-10-13_12h52.59.512,jersey_experiment_5_v3,2023.2.2,Win32,59.88023952,,,,,,,,,,,,,,,,541.3333,542.8826,542.8826,545.916,return,0.6614,,25.90277778,,,,,,FBP-YG-18.png,0.35,1.2,6,0.75,0,36,36,5,1,,,,,,,,,,,,,,,,,,,,,,,,,,,,,,,,,,,,,,,,
,,,,,V3_001,18,Female,2024-10-13_12h52.59.512,jersey_experiment_5_v3,2023.2.2,Win32,59.88023952,,,,,,,,,,,,,,,,545.9164,547.4663,547.4663,557.8663,return,8.1826,,91.94444444,,,,,,FBP-RB-81.png,0.45,1.2,55,0.75,0,37,37,54,1,,,,,,,,,,,,,,,,,,,,,,,,,,,,,,,,,,,,,,,,
,,,,,V3_001,18,Female,2024-10-13_12h52.59.512,jersey_experiment_5_v3,2023.2.2,Win32,59.88023952,,,,,,,,,,,,,,,,557.8776,559.4163,559.4163,562.6996,return,0.6758,,74.79166667,,,,,,FBP-PT-91.png,0.43,1.2,29,0.75,0,38,38,28,1,,,,,,,,,,,,,,,,,,,,,,,,,,,,,,,,,,,,,,,,
,,,,,V3_001,18,Female,2024-10-13_12h52.59.512,jersey_experiment_5_v3,2023.2.2,Win32,59.88023952,,,,,,,,,,,,,,,,562.7001,563.9996,563.9998,566.5827,return,0.7174,,98.05555556,,,,,,FBP-OG-81.png,0.45,1.2,40,0.5,0,39,39,39,1,,,,,,,,,,,,,,,,,,,,,,,,,,,,,,,,,,,,,,,,
,,,,,V3_001,18,Female,2024-10-13_12h52.59.512,jersey_experiment_5_v3,2023.2.2,Win32,59.88023952,,,,,,,,,,,,,,,,566.583,568.1328,568.1329,570.516,return,0.5357,,82.70833333,,,,,,FBP-PT-71.png,0.45,1.2,20,0.75,0,40,40,19,1,,,,,,,,,,,,,,,,,,,,,,,,,,,,,,,,,,,,,,,,
,,,,,V3_001,18,Female,2024-10-13_12h52.59.512,jersey_experiment_5_v3,2023.2.2,Win32,59.88023952,,,,,,,,,,,,,,,,570.5166,572.0661,572.0661,574.5332,return,0.6347,,49.44444444,,,,,,FBP-YG-19.png,0.35,1.2,11,0.75,0,41,41,10,1,,,,,,,,,,,,,,,,,,,,,,,,,,,,,,,,,,,,,,,,
,,,,,V3_001,18,Female,2024-10-13_12h52.59.512,jersey_experiment_5_v3,2023.2.2,Win32,59.88023952,,,,,,,,,,,,,,,,574.5338,576.0832,576.0833,578.9327,return,0.9688,,74.02777778,,,,,,FBP-PT-71.png,0.4,1.2,18,0.75,0,42,42,17,1,,,,,,,,,,,,,,,,,,,,,,,,,,,,,,,,,,,,,,,,
,,,,,V3_001,18,Female,2024-10-13_12h52.59.512,jersey_experiment_5_v3,2023.2.2,Win32,59.88023952,,,,,,,,,,,,,,,,578.933,580.4829,580.483,601.7662,return,0.7167,,49.44444444,,,,,,FBP-YG-19.png,0.43,1.2,14,0.75,0,43,43,13,1,,,,,,,,,,,,,,,,,,,,,,,,,,,,,,,,,,,,,,,,
,,,,,V3_001,18,Female,2024-10-13_12h52.59.512,jersey_experiment_5_v3,2023.2.2,Win32,59.88023952,,,,,,,,,,,,,,,,601.7664,603.3162,603.3162,605.9501,return,0.9928,,87.5,,,,,,FBP-YG-18.png,0.43,1.2,9,0.75,0,44,44,8,1,,,,,,,,,,,,,,,,,,,,,,,,,,,,,,,,,,,,,,,,
,,,,,V3_001,18,Female,2024-10-13_12h52.59.512,jersey_experiment_5_v3,2023.2.2,Win32,59.88023952,,,,,,,,,,,,,,,,605.9504,607.4998,607.4998,610.2333,return,0.7838,,91.80555556,,,,,,FBP-YG-19.png,0.45,1.2,15,0.75,0,45,45,14,1,,,,,,,,,,,,,,,,,,,,,,,,,,,,,,,,,,,,,,,,
,,,,,V3_001,18,Female,2024-10-13_12h52.59.512,jersey_experiment_5_v3,2023.2.2,Win32,59.88023952,,,,,,,,,,,,,,,,610.2338,611.7834,611.7835,615.1331,return,0.6778,,71.73611111,,,,,,FBP-YG-17.png,0.4,1.2,3,0.75,0,46,46,2,1,,,,,,,,,,,,,,,,,,,,,,,,,,,,,,,,,,,,,,,,
,,,,,V3_001,18,Female,2024-10-13_12h52.59.512,jersey_experiment_5_v3,2023.2.2,Win32,59.88023952,,,,,,,,,,,,,,,,615.1335,616.4331,616.4332,619.0831,return,0.6334,,22.08333333,,,,,,FBP-OG-71.png,0.35,1.2,31,0.5,0,47,47,30,1,,,,,,,,,,,,,,,,,,,,,,,,,,,,,,,,,,,,,,,,
,,,,,V3_001,18,Female,2024-10-13_12h52.59.512,jersey_experiment_5_v3,2023.2.2,Win32,59.88023952,,,,,,,,,,,,,,,,619.0838,620.6332,620.6332,622.8663,return,0.6057,,33.125,,,,,,FBP-PT-81.png,0.35,1.2,21,0.75,0,48,48,20,1,,,,,,,,,,,,,,,,,,,,,,,,,,,,,,,,,,,,,,,,
,,,,,V3_001,18,Female,2024-10-13_12h52.59.512,jersey_experiment_5_v3,2023.2.2,Win32,59.88023952,,,,,,,,,,,,,,,,622.8667,624.4167,624.4167,626.2,return,0.5825,,63.40277778,,,,,,FBP-RB-81.png,0.4,1.2,53,0.75,0,49,49,52,1,,,,,,,,,,,,,,,,,,,,,,,,,,,,,,,,,,,,,,,,
,,,,,V3_001,18,Female,2024-10-13_12h52.59.512,jersey_experiment_5_v3,2023.2.2,Win32,59.88023952,,,,,,,,,,,,,,,,626.2003,627.7499,627.7499,629.8503,return,0.5342,,85.90277778,,,,,,FBP-RB-91.png,0.43,1.2,59,0.75,0,50,50,58,1,,,,,,,,,,,,,,,,,,,,,,,,,,,,,,,,,,,,,,,,
,,,,,V3_001,18,Female,2024-10-13_12h52.59.512,jersey_experiment_5_v3,2023.2.2,Win32,59.88023952,,,,,,,,,,,,,,,,629.8509,631.4001,631.4002,635.133,return,1.8596,,84.72222222,,,,,,FBP-RB-71.png,0.35,1.2,46,0.75,0,51,51,45,1,,,,,,,,,,,,,,,,,,,,,,,,,,,,,,,,,,,,,,,,
,,,,,V3_001,18,Female,2024-10-13_12h52.59.512,jersey_experiment_5_v3,2023.2.2,Win32,59.88023952,,,,,,,,,,,,,,,,635.1333,636.4334,636.4335,638.3498,return,0.6087,,73.95833333,,,,,,FBP-OG-91.png,0.37,1.2,42,0.5,0,52,52,41,1,,,,,,,,,,,,,,,,,,,,,,,,,,,,,,,,,,,,,,,,
,,,,,V3_001,18,Female,2024-10-13_12h52.59.512,jersey_experiment_5_v3,2023.2.2,Win32,59.88023952,,,,,,,,,,,,,,,,638.3502,639.6501,639.6502,641.7499,return,0.5346,,91.25,,,,,,FBP-OG-91.png,0.43,1.2,44,0.5,0,53,53,43,1,,,,,,,,,,,,,,,,,,,,,,,,,,,,,,,,,,,,,,,,
,,,,,V3_001,18,Female,2024-10-13_12h52.59.512,jersey_experiment_5_v3,2023.2.2,Win32,59.88023952,,,,,,,,,,,,,,,,641.7502,643.3,643.3,645.1668,return,0.6415,,95,,,,,,FBP-RB-91.png,0.45,1.2,60,0.75,0,54,54,59,1,,,,,,,,,,,,,,,,,,,,,,,,,,,,,,,,,,,,,,,,
,,,,,V3_001,18,Female,2024-10-13_12h52.59.512,jersey_experiment_5_v3,2023.2.2,Win32,59.88023952,,,,,,,,,,,,,,,,645.1671,646.4669,646.467,649.4166,return,0.6501,,74.23611111,,,,,,FBP-OG-91.png,0.35,1.2,41,0.5,0,55,55,40,1,,,,,,,,,,,,,,,,,,,,,,,,,,,,,,,,,,,,,,,,
,,,,,V3_001,18,Female,2024-10-13_12h52.59.512,jersey_experiment_5_v3,2023.2.2,Win32,59.88023952,,,,,,,,,,,,,,,,649.417,650.967,650.9671,653.9169,return,0.6434,,69.375,,,,,,FBP-RB-71.png,0.37,1.2,47,0.75,0,56,56,46,1,,,,,,,,,,,,,,,,,,,,,,,,,,,,,,,,,,,,,,,,
,,,,,V3_001,18,Female,2024-10-13_12h52.59.512,jersey_experiment_5_v3,2023.2.2,Win32,59.88023952,,,,,,,,,,,,,,,,653.9173,655.2167,655.2168,657.6335,return,0.655,,49.79166667,,,,,,FBP-OG-71.png,0.37,1.2,32,0.5,0,57,57,31,1,,,,,,,,,,,,,,,,,,,,,,,,,,,,,,,,,,,,,,,,
,,,,,V3_001,18,Female,2024-10-13_12h52.59.512,jersey_experiment_5_v3,2023.2.2,Win32,59.88023952,,,,,,,,,,,,,,,,657.6339,659.1838,659.1839,667.1335,return,0.8589,,64.58333333,,,,,,FBP-RB-91.png,0.37,1.2,57,0.75,0,58,58,56,1,,,,,,,,,,,,,,,,,,,,,,,,,,,,,,,,,,,,,,,,
,,,,,V3_001,18,Female,2024-10-13_12h52.59.512,jersey_experiment_5_v3,2023.2.2,Win32,59.88023952,,,,,,,,,,,,,,,,667.1338,668.6836,668.6837,670.6667,return,0.5951,,49.44444444,,,,,,FBP-PT-81.png,0.37,1.2,22,0.75,0,59,59,21,1,,,,,,,,,,,,,,,,,,,,,,,,,,,,,,,,,,,,,,,,
,,,,,V3_001,18,Female,2024-10-13_12h52.59.512,jersey_experiment_5_v3,2023.2.2,Win32,59.88023952,,,,,,,,,,,,,,,,,,,,,,,,,,,,,,,,,,,,,,,670.6674,790.6685,,,,,,,,,,,,,,,,,,,,,,,,,,,,,,,,,,,,,,
,,,,,V3_001,18,Female,2024-10-13_12h52.59.512,jersey_experiment_5_v3,2023.2.2,Win32,59.88023952,,,,,,,,,,,,,,,,,,,,,,,,,,,,,,,,,,,,,,,,,790.6687,837.9018,return,47.2242,,,,,,,,,,,,,,,,,,,,,,,,,,,,,,,,,,
,,,,,V3_001,18,Female,2024-10-13_12h52.59.512,jersey_experiment_5_v3,2023.2.2,Win32,59.88023952,,,,,,,,,,,,,,,,837.913,839.2014,839.2016,844.2348,return,0.953,,50.13888889,,,,,,FBP-RB-19.png,0.35,1.2,56,0.5,,,,,,,,,,,,,0,0,0,55,1,,,,,,,,,,,,,,,,,,,,,,,,,,,,
,,,,,V3_001,18,Female,2024-10-13_12h52.59.512,jersey_experiment_5_v3,2023.2.2,Win32,59.88023952,,,,,,,,,,,,,,,,844.2358,845.5349,845.535,848.268,return,0.6949,,59.09722222,,,,,,FBP-RB-17.png,0.37,1.2,47,0.5,,,,,,,,,,,,,0,1,1,46,1,,,,,,,,,,,,,,,,,,,,,,,,,,,,
,,,,,V3_001,18,Female,2024-10-13_12h52.59.512,jersey_experiment_5_v3,2023.2.2,Win32,59.88023952,,,,,,,,,,,,,,,,848.2684,849.5681,849.5683,851.8517,return,0.6952,,73.125,,,,,,FBP-RB-18.png,0.4,1.2,53,0.5,,,,,,,,,,,,,0,2,2,52,1,,,,,,,,,,,,,,,,,,,,,,,,,,,,
,,,,,V3_001,18,Female,2024-10-13_12h52.59.512,jersey_experiment_5_v3,2023.2.2,Win32,59.88023952,,,,,,,,,,,,,,,,851.8521,853.1514,853.1514,855.3182,return,0.6834,,83.05555556,,,,,,FBP-YG-71.png,0.45,1.2,5,0.5,,,,,,,,,,,,,0,3,3,4,1,,,,,,,,,,,,,,,,,,,,,,,,,,,,
,,,,,V3_001,18,Female,2024-10-13_12h52.59.512,jersey_experiment_5_v3,2023.2.2,Win32,59.88023952,,,,,,,,,,,,,,,,855.3187,856.6183,856.6185,863.1182,return,4.8109,,87.01388889,,,,,,FBP-RB-18.png,0.45,1.2,55,0.5,,,,,,,,,,,,,0,4,4,54,1,,,,,,,,,,,,,,,,,,,,,,,,,,,,
,,,,,V3_001,18,Female,2024-10-13_12h52.59.512,jersey_experiment_5_v3,2023.2.2,Win32,59.88023952,,,,,,,,,,,,,,,,863.1299,864.4184,864.4184,867.1182,return,0.6587,,43.19444444,,,,,,FBP-YG-71.png,0.37,1.2,2,0.5,,,,,,,,,,,,,0,5,5,1,1,,,,,,,,,,,,,,,,,,,,,,,,,,,,
,,,,,V3_001,18,Female,2024-10-13_12h52.59.512,jersey_experiment_5_v3,2023.2.2,Win32,59.88023952,,,,,,,,,,,,,,,,867.1186,868.4185,868.4186,871.235,return,0.6381,,43.125,,,,,,FBP-YG-81.png,0.35,1.2,6,0.5,,,,,,,,,,,,,0,6,6,5,1,,,,,,,,,,,,,,,,,,,,,,,,,,,,
,,,,,V3_001,18,Female,2024-10-13_12h52.59.512,jersey_experiment_5_v3,2023.2.2,Win32,59.88023952,,,,,,,,,,,,,,,,871.2353,872.5351,872.5352,874.8352,return,0.6369,,79.65277778,,,,,,FBP-PT-18.png,0.43,1.2,24,0.5,,,,,,,,,,,,,0,7,7,23,1,,,,,,,,,,,,,,,,,,,,,,,,,,,,
,,,,,V3_001,18,Female,2024-10-13_12h52.59.512,jersey_experiment_5_v3,2023.2.2,Win32,59.88023952,,,,,,,,,,,,,,,,874.8357,876.3849,876.385,879.1683,return,0.6066,,80.55555556,,,,,,FBP-OG-18.png,0.43,1.2,39,0.75,,,,,,,,,,,,,0,8,8,38,1,,,,,,,,,,,,,,,,,,,,,,,,,,,,
,,,,,V3_001,18,Female,2024-10-13_12h52.59.512,jersey_experiment_5_v3,2023.2.2,Win32,59.88023952,,,,,,,,,,,,,,,,879.1687,880.4684,880.4685,882.9681,return,0.9322,,78.125,,,,,,FBP-PT-18.png,0.4,1.2,23,0.5,,,,,,,,,,,,,0,9,9,22,1,,,,,,,,,,,,,,,,,,,,,,,,,,,,
,,,,,V3_001,18,Female,2024-10-13_12h52.59.512,jersey_experiment_5_v3,2023.2.2,Win32,59.88023952,,,,,,,,,,,,,,,,882.9688,884.2685,884.2685,886.5184,return,0.5675,,82.70833333,,,,,,FBP-YG-91.png,0.43,1.2,14,0.5,,,,,,,,,,,,,0,10,10,13,1,,,,,,,,,,,,,,,,,,,,,,,,,,,,
,,,,,V3_001,18,Female,2024-10-13_12h52.59.512,jersey_experiment_5_v3,2023.2.2,Win32,59.88023952,,,,,,,,,,,,,,,,886.5188,887.8187,887.8188,889.8348,return,0.7956,,79.44444444,,,,,,FBP-PT-17.png,0.4,1.2,18,0.5,,,,,,,,,,,,,0,11,11,17,1,,,,,,,,,,,,,,,,,,,,,,,,,,,,
,,,,,V3_001,18,Female,2024-10-13_12h52.59.512,jersey_experiment_5_v3,2023.2.2,Win32,59.88023952,,,,,,,,,,,,,,,,889.835,891.1349,891.1349,893.0849,return,0.5768,,37.22222222,,,,,,FBP-RB-17.png,0.35,1.2,46,0.5,,,,,,,,,,,,,0,12,12,45,1,,,,,,,,,,,,,,,,,,,,,,,,,,,,
,,,,,V3_001,18,Female,2024-10-13_12h52.59.512,jersey_experiment_5_v3,2023.2.2,Win32,59.88023952,,,,,,,,,,,,,,,,893.0854,894.3847,894.3847,897.635,return,0.8365,,57.77777778,,,,,,FBP-PT-17.png,0.45,1.2,20,0.5,,,,,,,,,,,,,0,13,13,19,1,,,,,,,,,,,,,,,,,,,,,,,,,,,,
,,,,,V3_001,18,Female,2024-10-13_12h52.59.512,jersey_experiment_5_v3,2023.2.2,Win32,59.88023952,,,,,,,,,,,,,,,,897.6354,899.185,899.185,908.5018,return,7.1852,,81.66666667,,,,,,FBP-OG-19.png,0.45,1.2,45,0.75,,,,,,,,,,,,,0,14,14,44,1,,,,,,,,,,,,,,,,,,,,,,,,,,,,
,,,,,V3_001,18,Female,2024-10-13_12h52.59.512,jersey_experiment_5_v3,2023.2.2,Win32,59.88023952,,,,,,,,,,,,,,,,908.5108,909.8021,909.8022,914.1023,return,1.0514,,85.34722222,,,,,,FBP-RB-19.png,0.45,1.2,60,0.5,,,,,,,,,,,,,0,15,15,59,1,,,,,,,,,,,,,,,,,,,,,,,,,,,,
,,,,,V3_001,18,Female,2024-10-13_12h52.59.512,jersey_experiment_5_v3,2023.2.2,Win32,59.88023952,,,,,,,,,,,,,,,,914.1029,915.4017,915.4018,924.4354,return,6.8875,,75,,,,,,FBP-YG-91.png,0.4,1.2,13,0.5,,,,,,,,,,,,,0,16,16,12,1,,,,,,,,,,,,,,,,,,,,,,,,,,,,
,,,,,V3_001,18,Female,2024-10-13_12h52.59.512,jersey_experiment_5_v3,2023.2.2,Win32,59.88023952,,,,,,,,,,,,,,,,924.4359,925.735,925.7352,928.1687,return,0.3174,,62.98611111,,,,,,FBP-YG-91.png,0.37,1.2,12,0.5,,,,,,,,,,,,,0,17,17,11,1,,,,,,,,,,,,,,,,,,,,,,,,,,,,
,,,,,V3_001,18,Female,2024-10-13_12h52.59.512,jersey_experiment_5_v3,2023.2.2,Win32,59.88023952,,,,,,,,,,,,,,,,928.1693,929.7187,929.7187,931.5683,return,0.2061,,39.72222222,,,,,,FBP-OG-17.png,0.35,1.2,31,0.75,,,,,,,,,,,,,0,18,18,30,1,,,,,,,,,,,,,,,,,,,,,,,,,,,,
,,,,,V3_001,18,Female,2024-10-13_12h52.59.512,jersey_experiment_5_v3,2023.2.2,Win32,59.88023952,,,,,,,,,,,,,,,,931.5686,932.8687,932.8689,936.6854,return,2.2767,,65,,,,,,FBP-RB-19.png,0.43,1.2,59,0.5,,,,,,,,,,,,,0,19,19,58,1,,,,,,,,,,,,,,,,,,,,,,,,,,,,
,,,,,V3_001,18,Female,2024-10-13_12h52.59.512,jersey_experiment_5_v3,2023.2.2,Win32,59.88023952,,,,,,,,,,,,,,,,936.6859,937.9852,937.9852,939.4021,return,0.2174,,50.48611111,,,,,,FBP-YG-81.png,0.37,1.2,7,0.5,,,,,,,,,,,,,0,20,20,6,1,,,,,,,,,,,,,,,,,,,,,,,,,,,,
,,,,,V3_001,18,Female,2024-10-13_12h52.59.512,jersey_experiment_5_v3,2023.2.2,Win32,59.88023952,,,,,,,,,,,,,,,,939.4026,940.7021,940.7022,942.069,return,0.352,,66.52777778,,,,,,FBP-YG-71.png,0.4,1.2,3,0.5,,,,,,,,,,,,,0,21,21,2,1,,,,,,,,,,,,,,,,,,,,,,,,,,,,
,,,,,V3_001,18,Female,2024-10-13_12h52.59.512,jersey_experiment_5_v3,2023.2.2,Win32,59.88023952,,,,,,,,,,,,,,,,942.0694,943.3688,943.3688,944.902,return,0.2676,,25.06944444,,,,,,FBP-RB-18.png,0.35,1.2,51,0.5,,,,,,,,,,,,,0,22,22,50,1,,,,,,,,,,,,,,,,,,,,,,,,,,,,
,,,,,V3_001,18,Female,2024-10-13_12h52.59.512,jersey_experiment_5_v3,2023.2.2,Win32,59.88023952,,,,,,,,,,,,,,,,944.9023,946.452,946.452,949.502,return,0.3258,,58.88888889,,,,,,FBP-OG-19.png,0.43,1.2,44,0.75,,,,,,,,,,,,,0,23,23,43,1,,,,,,,,,,,,,,,,,,,,,,,,,,,,
,,,,,V3_001,18,Female,2024-10-13_12h52.59.512,jersey_experiment_5_v3,2023.2.2,Win32,59.88023952,,,,,,,,,,,,,,,,949.5024,950.8024,950.8025,952.4021,return,0.1877,,69.86111111,,,,,,FBP-YG-81.png,0.45,1.2,10,0.5,,,,,,,,,,,,,0,24,24,9,1,,,,,,,,,,,,,,,,,,,,,,,,,,,,
,,,,,V3_001,18,Female,2024-10-13_12h52.59.512,jersey_experiment_5_v3,2023.2.2,Win32,59.88023952,,,,,,,,,,,,,,,,952.4024,953.7019,953.7019,955.5854,return,0.1387,,71.94444444,,,,,,FBP-RB-19.png,0.4,1.2,58,0.5,,,,,,,,,,,,,0,25,25,57,1,,,,,,,,,,,,,,,,,,,,,,,,,,,,
,,,,,V3_001,18,Female,2024-10-13_12h52.59.512,jersey_experiment_5_v3,2023.2.2,Win32,59.88023952,,,,,,,,,,,,,,,,955.5858,956.8855,956.8856,960.5189,return,0.2507,,68.88888889,,,,,,FBP-PT-19.png,0.43,1.2,29,0.5,,,,,,,,,,,,,0,26,26,28,1,,,,,,,,,,,,,,,,,,,,,,,,,,,,
,,,,,V3_001,18,Female,2024-10-13_12h52.59.512,jersey_experiment_5_v3,2023.2.2,Win32,59.88023952,,,,,,,,,,,,,,,,960.5194,961.8193,961.8194,963.4023,return,0.4121,,68.125,,,,,,FBP-RB-17.png,0.4,1.2,48,0.5,,,,,,,,,,,,,0,27,27,47,1,,,,,,,,,,,,,,,,,,,,,,,,,,,,
,,,,,V3_001,18,Female,2024-10-13_12h52.59.512,jersey_experiment_5_v3,2023.2.2,Win32,59.88023952,,,,,,,,,,,,,,,,963.4025,964.7019,964.702,967.9023,return,2.359,,20.90277778,,,,,,FBP-PT-18.png,0.35,1.2,21,0.5,,,,,,,,,,,,,0,28,28,20,1,,,,,,,,,,,,,,,,,,,,,,,,,,,,
,,,,,V3_001,18,Female,2024-10-13_12h52.59.512,jersey_experiment_5_v3,2023.2.2,Win32,59.88023952,,,,,,,,,,,,,,,,967.9026,969.202,969.2021,972.0189,return,0.2033,,76.73611111,,,,,,FBP-RB-17.png,0.43,1.2,49,0.5,,,,,,,,,,,,,0,29,29,48,1,,,,,,,,,,,,,,,,,,,,,,,,,,,,
,,,,,V3_001,18,Female,2024-10-13_12h52.59.512,jersey_experiment_5_v3,2023.2.2,Win32,59.88023952,,,,,,,,,,,,,,,,972.0194,973.3192,973.3193,974.6193,return,0.2123,,47.15277778,,,,,,FBP-RB-19.png,0.37,1.2,57,0.5,,,,,,,,,,,,,0,30,30,56,1,,,,,,,,,,,,,,,,,,,,,,,,,,,,
,,,,,V3_001,18,Female,2024-10-13_12h52.59.512,jersey_experiment_5_v3,2023.2.2,Win32,59.88023952,,,,,,,,,,,,,,,,974.6199,975.9189,975.919,977.8855,return,0.3105,,74.51388889,,,,,,FBP-YG-71.png,0.43,1.2,4,0.5,,,,,,,,,,,,,0,31,31,3,1,,,,,,,,,,,,,,,,,,,,,,,,,,,,
,,,,,V3_001,18,Female,2024-10-13_12h52.59.512,jersey_experiment_5_v3,2023.2.2,Win32,59.88023952,,,,,,,,,,,,,,,,977.886,979.4357,979.4358,980.602,return,0.2462,,76.31944444,,,,,,FBP-OG-17.png,0.43,1.2,34,0.75,,,,,,,,,,,,,0,32,32,33,1,,,,,,,,,,,,,,,,,,,,,,,,,,,,
,,,,,V3_001,18,Female,2024-10-13_12h52.59.512,jersey_experiment_5_v3,2023.2.2,Win32,59.88023952,,,,,,,,,,,,,,,,980.6022,982.1522,982.1522,984.7357,return,0.9909,,42.98611111,,,,,,FBP-OG-17.png,0.37,1.2,32,0.75,,,,,,,,,,,,,0,33,33,31,1,,,,,,,,,,,,,,,,,,,,,,,,,,,,
,,,,,V3_001,18,Female,2024-10-13_12h52.59.512,jersey_experiment_5_v3,2023.2.2,Win32,59.88023952,,,,,,,,,,,,,,,,984.7361,986.0356,986.0358,987.0524,return,0.2433,,59.79166667,,,,,,FBP-YG-81.png,0.4,1.2,8,0.5,,,,,,,,,,,,,0,34,34,7,1,,,,,,,,,,,,,,,,,,,,,,,,,,,,
,,,,,V3_001,18,Female,2024-10-13_12h52.59.512,jersey_experiment_5_v3,2023.2.2,Win32,59.88023952,,,,,,,,,,,,,,,,987.0529,988.3525,988.3526,1044.0197,return,46.9371,,62.15277778,,,,,,FBP-RB-17.png,0.45,1.2,50,0.5,,,,,,,,,,,,,0,35,35,49,1,,,,,,,,,,,,,,,,,,,,,,,,,,,,
,,,,,V3_001,18,Female,2024-10-13_12h52.59.512,jersey_experiment_5_v3,2023.2.2,Win32,59.88023952,,,,,,,,,,,,,,,,1044.0322,1045.5866,1045.5866,1048.3032,return,0.6748,,54.23611111,,,,,,FBP-OG-19.png,0.4,1.2,43,0.75,,,,,,,,,,,,,0,36,36,42,1,,,,,,,,,,,,,,,,,,,,,,,,,,,,
,,,,,V3_001,18,Female,2024-10-13_12h52.59.512,jersey_experiment_5_v3,2023.2.2,Win32,59.88023952,,,,,,,,,,,,,,,,1048.3041,1049.6027,1049.6027,1052.1864,return,0.7965,,66.38888889,,,,,,FBP-PT-17.png,0.43,1.2,19,0.5,,,,,,,,,,,,,0,37,37,18,1,,,,,,,,,,,,,,,,,,,,,,,,,,,,
,,,,,V3_001,18,Female,2024-10-13_12h52.59.512,jersey_experiment_5_v3,2023.2.2,Win32,59.88023952,,,,,,,,,,,,,,,,1052.1872,1053.4859,1053.486,1056.3195,return,0.258,,28.47222222,,,,,,FBP-PT-18.png,0.37,1.2,22,0.5,,,,,,,,,,,,,0,38,38,21,1,,,,,,,,,,,,,,,,,,,,,,,,,,,,
,,,,,V3_001,18,Female,2024-10-13_12h52.59.512,jersey_experiment_5_v3,2023.2.2,Win32,59.88023952,,,,,,,,,,,,,,,,1056.3199,1057.8692,1057.8693,1059.8692,return,0.3926,,57.43055556,,,,,,FBP-OG-17.png,0.4,1.2,33,0.75,,,,,,,,,,,,,0,39,39,32,1,,,,,,,,,,,,,,,,,,,,,,,,,,,,
,,,,,V3_001,18,Female,2024-10-13_12h52.59.512,jersey_experiment_5_v3,2023.2.2,Win32,59.88023952,,,,,,,,,,,,,,,,1059.8696,1061.1694,1061.1696,1062.4865,return,0.2007,,47.91666667,,,,,,FBP-PT-19.png,0.35,1.2,26,0.5,,,,,,,,,,,,,0,40,40,25,1,,,,,,,,,,,,,,,,,,,,,,,,,,,,
,,,,,V3_001,18,Female,2024-10-13_12h52.59.512,jersey_experiment_5_v3,2023.2.2,Win32,59.88023952,,,,,,,,,,,,,,,,1062.4869,1063.7861,1063.7863,1065.2866,return,0.234,,71.94444444,,,,,,FBP-PT-18.png,0.45,1.2,25,0.5,,,,,,,,,,,,,0,41,41,24,1,,,,,,,,,,,,,,,,,,,,,,,,,,,,
,,,,,V3_001,18,Female,2024-10-13_12h52.59.512,jersey_experiment_5_v3,2023.2.2,Win32,59.88023952,,,,,,,,,,,,,,,,1065.2869,1066.8361,1066.8362,1068.3698,return,0.3557,,50.34722222,,,,,,FBP-OG-19.png,0.35,1.2,41,0.75,,,,,,,,,,,,,0,42,42,40,1,,,,,,,,,,,,,,,,,,,,,,,,,,,,
,,,,,V3_001,18,Female,2024-10-13_12h52.59.512,jersey_experiment_5_v3,2023.2.2,Win32,59.88023952,,,,,,,,,,,,,,,,1068.3702,1069.6695,1069.6696,1071.2028,return,0.1889,,52.98611111,,,,,,FBP-YG-71.png,0.35,1.2,1,0.5,,,,,,,,,,,,,0,43,43,0,1,,,,,,,,,,,,,,,,,,,,,,,,,,,,
,,,,,V3_001,18,Female,2024-10-13_12h52.59.512,jersey_experiment_5_v3,2023.2.2,Win32,59.88023952,,,,,,,,,,,,,,,,1071.2033,1072.5029,1072.503,1073.9194,return,0.4729,,64.86111111,,,,,,FBP-PT-17.png,0.37,1.2,17,0.5,,,,,,,,,,,,,0,44,44,16,1,,,,,,,,,,,,,,,,,,,,,,,,,,,,
,,,,,V3_001,18,Female,2024-10-13_12h52.59.512,jersey_experiment_5_v3,2023.2.2,Win32,59.88023952,,,,,,,,,,,,,,,,1073.9198,1075.22,1075.2201,1076.5198,return,0.6837,,74.30555556,,,,,,FBP-RB-18.png,0.43,1.2,54,0.5,,,,,,,,,,,,,0,45,45,53,1,,,,,,,,,,,,,,,,,,,,,,,,,,,,
,,,,,V3_001,18,Female,2024-10-13_12h52.59.512,jersey_experiment_5_v3,2023.2.2,Win32,59.88023952,,,,,,,,,,,,,,,,1076.5202,1078.0695,1078.0697,1078.8529,return,0.2013,,78.26388889,,,,,,FBP-OG-18.png,0.4,1.2,38,0.75,,,,,,,,,,,,,0,46,46,37,1,,,,,,,,,,,,,,,,,,,,,,,,,,,,
,,,,,V3_001,18,Female,2024-10-13_12h52.59.512,jersey_experiment_5_v3,2023.2.2,Win32,59.88023952,,,,,,,,,,,,,,,,1078.8533,1080.1529,1080.1529,1081.4031,return,0.2621,,44.86111111,,,,,,FBP-YG-91.png,0.35,1.2,11,0.5,,,,,,,,,,,,,0,47,47,10,1,,,,,,,,,,,,,,,,,,,,,,,,,,,,
,,,,,V3_001,18,Female,2024-10-13_12h52.59.512,jersey_experiment_5_v3,2023.2.2,Win32,59.88023952,,,,,,,,,,,,,,,,1081.4035,1082.7028,1082.7029,1083.9697,return,0.156,,75.69444444,,,,,,FBP-PT-19.png,0.4,1.2,28,0.5,,,,,,,,,,,,,0,48,48,27,1,,,,,,,,,,,,,,,,,,,,,,,,,,,,
,,,,,V3_001,18,Female,2024-10-13_12h52.59.512,jersey_experiment_5_v3,2023.2.2,Win32,59.88023952,,,,,,,,,,,,,,,,1083.9702,1085.2697,1085.2698,1086.3532,return,0.1391,,80.20833333,,,,,,FBP-YG-91.png,0.45,1.2,15,0.5,,,,,,,,,,,,,0,49,49,14,1,,,,,,,,,,,,,,,,,,,,,,,,,,,,
,,,,,V3_001,18,Female,2024-10-13_12h52.59.512,jersey_experiment_5_v3,2023.2.2,Win32,59.88023952,,,,,,,,,,,,,,,,1086.3537,1087.9033,1087.9034,1089.3532,return,0.134,,59.23611111,,,,,,FBP-OG-18.png,0.37,1.2,37,0.75,,,,,,,,,,,,,0,50,50,36,1,,,,,,,,,,,,,,,,,,,,,,,,,,,,
,,,,,V3_001,18,Female,2024-10-13_12h52.59.512,jersey_experiment_5_v3,2023.2.2,Win32,59.88023952,,,,,,,,,,,,,,,,1089.3535,1090.9032,1090.9032,1092.903,return,0.1686,,78.26388889,,,,,,FBP-OG-17.png,0.45,1.2,35,0.75,,,,,,,,,,,,,0,51,51,34,1,,,,,,,,,,,,,,,,,,,,,,,,,,,,
,,,,,V3_001,18,Female,2024-10-13_12h52.59.512,jersey_experiment_5_v3,2023.2.2,Win32,59.88023952,,,,,,,,,,,,,,,,1092.9036,1094.2028,1094.2028,1096.3196,return,0.1237,,70.20833333,,,,,,FBP-PT-19.png,0.37,1.2,27,0.5,,,,,,,,,,,,,0,52,52,26,1,,,,,,,,,,,,,,,,,,,,,,,,,,,,
,,,,,V3_001,18,Female,2024-10-13_12h52.59.512,jersey_experiment_5_v3,2023.2.2,Win32,59.88023952,,,,,,,,,,,,,,,,1096.32,1097.6201,1097.6203,1099.0028,return,0.2958,,36.31944444,,,,,,FBP-PT-17.png,0.35,1.2,16,0.5,,,,,,,,,,,,,0,53,53,15,1,,,,,,,,,,,,,,,,,,,,,,,,,,,,
,,,,,V3_001,18,Female,2024-10-13_12h52.59.512,jersey_experiment_5_v3,2023.2.2,Win32,59.88023952,,,,,,,,,,,,,,,,1099.003,1100.3034,1100.3034,1101.5034,return,0.1905,,76.45833333,,,,,,FBP-PT-19.png,0.45,1.2,30,0.5,,,,,,,,,,,,,0,54,54,29,1,,,,,,,,,,,,,,,,,,,,,,,,,,,,
,,,,,V3_001,18,Female,2024-10-13_12h52.59.512,jersey_experiment_5_v3,2023.2.2,Win32,59.88023952,,,,,,,,,,,,,,,,1101.504,1103.053,1103.0531,1104.4029,return,0.1707,,78.26388889,,,,,,FBP-OG-18.png,0.45,1.2,40,0.75,,,,,,,,,,,,,0,55,55,39,1,,,,,,,,,,,,,,,,,,,,,,,,,,,,
,,,,,V3_001,18,Female,2024-10-13_12h52.59.512,jersey_experiment_5_v3,2023.2.2,Win32,59.88023952,,,,,,,,,,,,,,,,1104.4033,1105.953,1105.9531,1107.3865,return,0.246,,58.40277778,,,,,,FBP-OG-19.png,0.37,1.2,42,0.75,,,,,,,,,,,,,0,56,56,41,1,,,,,,,,,,,,,,,,,,,,,,,,,,,,
,,,,,V3_001,18,Female,2024-10-13_12h52.59.512,jersey_experiment_5_v3,2023.2.2,Win32,59.88023952,,,,,,,,,,,,,,,,1107.387,1108.9365,1108.9366,1113.3034,return,0.1835,,38.47222222,,,,,,FBP-OG-18.png,0.35,1.2,36,0.75,,,,,,,,,,,,,0,57,57,35,1,,,,,,,,,,,,,,,,,,,,,,,,,,,,
,,,,,V3_001,18,Female,2024-10-13_12h52.59.512,jersey_experiment_5_v3,2023.2.2,Win32,59.88023952,,,,,,,,,,,,,,,,1113.3038,1114.6033,1114.6034,1116.9531,return,1.6173,,46.04166667,,,,,,FBP-RB-18.png,0.37,1.2,52,0.5,,,,,,,,,,,,,0,58,58,51,1,,,,,,,,,,,,,,,,,,,,,,,,,,,,
,,,,,V3_001,18,Female,2024-10-13_12h52.59.512,jersey_experiment_5_v3,2023.2.2,Win32,59.88023952,,,,,,,,,,,,,,,,1116.9534,1118.2529,1118.253,1123.8364,return,3.3617,,62.63888889,,,,,,FBP-YG-81.png,0.43,1.2,9,0.5,,,,,,,,,,,,,0,59,59,8,1,,,,,,,,,,,,,,,,,,,,,,,,,,,,
,,,,,V3_001,18,Female,2024-10-13_12h52.59.512,jersey_experiment_5_v3,2023.2.2,Win32,59.88023952,,,,,,,,,,,,,,,,1123.8405,1125.1364,1125.1365,1126.32,return,0.1413,,52.29166667,,,,,,FBP-YG-19.png,0.4,1.2,13,0.5,,,,,,,,,,,,,,,,,,0,0,0,12,1,,,,,,,,,,,,,,,,,,,,,,,
,,,,,V3_001,18,Female,2024-10-13_12h52.59.512,jersey_experiment_5_v3,2023.2.2,Win32,59.88023952,,,,,,,,,,,,,,,,1126.3208,1127.87,1127.8701,1128.8864,return,0.1021,,54.51388889,,,,,,FBP-OG-81.png,0.37,1.2,37,0.75,,,,,,,,,,,,,,,,,,0,1,1,36,1,,,,,,,,,,,,,,,,,,,,,,,
,,,,,V3_001,18,Female,2024-10-13_12h52.59.512,jersey_experiment_5_v3,2023.2.2,Win32,59.88023952,,,,,,,,,,,,,,,,1128.8867,1130.4368,1130.4369,1131.9698,return,0.1725,,74.65277778,,,,,,FBP-OG-71.png,0.43,1.2,34,0.75,,,,,,,,,,,,,,,,,,0,2,2,33,1,,,,,,,,,,,,,,,,,,,,,,,
,,,,,V3_001,18,Female,2024-10-13_12h52.59.512,jersey_experiment_5_v3,2023.2.2,Win32,59.88023952,,,,,,,,,,,,,,,,1131.9704,1133.5202,1133.5202,1134.4364,return,0.1683,,59.16666667,,,,,,FBP-OG-91.png,0.37,1.2,42,0.75,,,,,,,,,,,,,,,,,,0,3,3,41,1,,,,,,,,,,,,,,,,,,,,,,,
,,,,,V3_001,18,Female,2024-10-13_12h52.59.512,jersey_experiment_5_v3,2023.2.2,Win32,59.88023952,,,,,,,,,,,,,,,,1134.4368,1135.7366,1135.7366,1137.1197,return,0.1737,,43.26388889,,,,,,FBP-YG-17.png,0.35,1.2,1,0.5,,,,,,,,,,,,,,,,,,0,4,4,0,1,,,,,,,,,,,,,,,,,,,,,,,
,,,,,V3_001,18,Female,2024-10-13_12h52.59.512,jersey_experiment_5_v3,2023.2.2,Win32,59.88023952,,,,,,,,,,,,,,,,1137.12,1138.4202,1138.4203,1139.3701,return,0.0675,,81.875,,,,,,FBP-PT-71.png,0.43,1.2,19,0.5,,,,,,,,,,,,,,,,,,0,5,5,18,1,,,,,,,,,,,,,,,,,,,,,,,
,,,,,V3_001,18,Female,2024-10-13_12h52.59.512,jersey_experiment_5_v3,2023.2.2,Win32,59.88023952,,,,,,,,,,,,,,,,1139.3705,1140.6703,1140.6705,1141.27,return,0.1189,,86.38888889,,,,,,FBP-RB-91.png,0.45,1.2,60,0.5,,,,,,,,,,,,,,,,,,0,6,6,59,1,,,,,,,,,,,,,,,,,,,,,,,
,,,,,V3_001,18,Female,2024-10-13_12h52.59.512,jersey_experiment_5_v3,2023.2.2,Win32,59.88023952,,,,,,,,,,,,,,,,1141.2704,1142.5698,1142.5699,1143.603,return,0.2533,,82.08333333,,,,,,FBP-RB-81.png,0.4,1.2,53,0.5,,,,,,,,,,,,,,,,,,0,7,7,52,1,,,,,,,,,,,,,,,,,,,,,,,
,,,,,V3_001,18,Female,2024-10-13_12h52.59.512,jersey_experiment_5_v3,2023.2.2,Win32,59.88023952,,,,,,,,,,,,,,,,1143.6033,1144.9034,1144.9035,1145.8033,return,0.1608,,54.16666667,,,,,,FBP-RB-81.png,0.35,1.2,51,0.5,,,,,,,,,,,,,,,,,,0,8,8,50,1,,,,,,,,,,,,,,,,,,,,,,,
,,,,,V3_001,18,Female,2024-10-13_12h52.59.512,jersey_experiment_5_v3,2023.2.2,Win32,59.88023952,,,,,,,,,,,,,,,,1145.8038,1147.1036,1147.1036,1148.0535,return,0.2175,,84.86111111,,,,,,FBP-PT-91.png,0.45,1.2,30,0.5,,,,,,,,,,,,,,,,,,0,9,9,29,1,,,,,,,,,,,,,,,,,,,,,,,
,,,,,V3_001,18,Female,2024-10-13_12h52.59.512,jersey_experiment_5_v3,2023.2.2,Win32,59.88023952,,,,,,,,,,,,,,,,1148.054,1149.3534,1149.3534,1150.3867,return,0.17,,86.66666667,,,,,,FBP-PT-91.png,0.43,1.2,29,0.5,,,,,,,,,,,,,,,,,,0,10,10,28,1,,,,,,,,,,,,,,,,,,,,,,,
,,,,,V3_001,18,Female,2024-10-13_12h52.59.512,jersey_experiment_5_v3,2023.2.2,Win32,59.88023952,,,,,,,,,,,,,,,,1150.3872,1151.9368,1151.9369,1153.4199,return,0.1116,,80.13888889,,,,,,FBP-OG-91.png,0.4,1.2,43,0.75,,,,,,,,,,,,,,,,,,0,11,11,42,1,,,,,,,,,,,,,,,,,,,,,,,
,,,,,V3_001,18,Female,2024-10-13_12h52.59.512,jersey_experiment_5_v3,2023.2.2,Win32,59.88023952,,,,,,,,,,,,,,,,1153.4201,1154.7199,1154.72,1156.9867,return,0.2128,,71.66666667,,,,,,FBP-PT-71.png,0.4,1.2,18,0.5,,,,,,,,,,,,,,,,,,0,12,12,17,1,,,,,,,,,,,,,,,,,,,,,,,
,,,,,V3_001,18,Female,2024-10-13_12h52.59.512,jersey_experiment_5_v3,2023.2.2,Win32,59.88023952,,,,,,,,,,,,,,,,1156.9872,1158.2868,1158.2869,1160.4199,return,1.2022,,44.375,,,,,,FBP-PT-91.png,0.35,1.2,26,0.5,,,,,,,,,,,,,,,,,,0,13,13,25,1,,,,,,,,,,,,,,,,,,,,,,,
,,,,,V3_001,18,Female,2024-10-13_12h52.59.512,jersey_experiment_5_v3,2023.2.2,Win32,59.88023952,,,,,,,,,,,,,,,,1160.4204,1161.7203,1161.7204,1162.6199,return,0.094,,57.22222222,,,,,,FBP-RB-81.png,0.37,1.2,52,0.5,,,,,,,,,,,,,,,,,,0,14,14,51,1,,,,,,,,,,,,,,,,,,,,,,,
,,,,,V3_001,18,Female,2024-10-13_12h52.59.512,jersey_experiment_5_v3,2023.2.2,Win32,59.88023952,,,,,,,,,,,,,,,,1162.6202,1163.9202,1163.9204,1164.9701,return,0.1963,,71.11111111,,,,,,FBP-PT-91.png,0.37,1.2,27,0.5,,,,,,,,,,,,,,,,,,0,15,15,26,1,,,,,,,,,,,,,,,,,,,,,,,
,,,,,V3_001,18,Female,2024-10-13_12h52.59.512,jersey_experiment_5_v3,2023.2.2,Win32,59.88023952,,,,,,,,,,,,,,,,1164.9702,1166.27,1166.27,1167.3701,return,0.1469,,88.54166667,,,,,,FBP-PT-81.png,0.45,1.2,25,0.5,,,,,,,,,,,,,,,,,,0,16,16,24,1,,,,,,,,,,,,,,,,,,,,,,,
,,,,,V3_001,18,Female,2024-10-13_12h52.59.512,jersey_experiment_5_v3,2023.2.2,Win32,59.88023952,,,,,,,,,,,,,,,,1167.3703,1168.6702,1168.6702,1169.4534,return,0.0589,,93.81944444,,,,,,FBP-RB-91.png,0.43,1.2,59,0.5,,,,,,,,,,,,,,,,,,0,17,17,58,1,,,,,,,,,,,,,,,,,,,,,,,
,,,,,V3_001,18,Female,2024-10-13_12h52.59.512,jersey_experiment_5_v3,2023.2.2,Win32,59.88023952,,,,,,,,,,,,,,,,1169.4537,1170.7535,1170.7536,1172.4535,return,0.3346,,54.30555556,,,,,,FBP-RB-91.png,0.37,1.2,57,0.5,,,,,,,,,,,,,,,,,,0,18,18,56,1,,,,,,,,,,,,,,,,,,,,,,,
,,,,,V3_001,18,Female,2024-10-13_12h52.59.512,jersey_experiment_5_v3,2023.2.2,Win32,59.88023952,,,,,,,,,,,,,,,,1172.454,1174.0036,1174.0037,1179.1035,return,2.9741,,60.83333333,,,,,,FBP-OG-81.png,0.35,1.2,36,0.75,,,,,,,,,,,,,,,,,,0,19,19,35,1,,,,,,,,,,,,,,,,,,,,,,,
,,,,,V3_001,18,Female,2024-10-13_12h52.59.512,jersey_experiment_5_v3,2023.2.2,Win32,59.88023952,,,,,,,,,,,,,,,,1179.104,1180.4035,1180.4036,1181.9537,return,0.156,,50.06944444,,,,,,FBP-PT-71.png,0.35,1.2,16,0.5,,,,,,,,,,,,,,,,,,0,20,20,15,1,,,,,,,,,,,,,,,,,,,,,,,
,,,,,V3_001,18,Female,2024-10-13_12h52.59.512,jersey_experiment_5_v3,2023.2.2,Win32,59.88023952,,,,,,,,,,,,,,,,1181.954,1183.2536,1183.2537,1184.4538,return,0.1325,,67.22222222,,,,,,FBP-YG-18.png,0.4,1.2,8,0.5,,,,,,,,,,,,,,,,,,0,21,21,7,1,,,,,,,,,,,,,,,,,,,,,,,
,,,,,V3_001,18,Female,2024-10-13_12h52.59.512,jersey_experiment_5_v3,2023.2.2,Win32,59.88023952,,,,,,,,,,,,,,,,1184.4542,1185.7539,1185.754,1186.5203,return,0.102,,74.23611111,,,,,,FBP-YG-19.png,0.45,1.2,15,0.5,,,,,,,,,,,,,,,,,,0,22,22,14,1,,,,,,,,,,,,,,,,,,,,,,,
,,,,,V3_001,18,Female,2024-10-13_12h52.59.512,jersey_experiment_5_v3,2023.2.2,Win32,59.88023952,,,,,,,,,,,,,,,,1186.5206,1187.8204,1187.8205,1189.12,return,0.1898,,74.16666667,,,,,,FBP-YG-19.png,0.37,1.2,12,0.5,,,,,,,,,,,,,,,,,,0,23,23,11,1,,,,,,,,,,,,,,,,,,,,,,,
,,,,,V3_001,18,Female,2024-10-13_12h52.59.512,jersey_experiment_5_v3,2023.2.2,Win32,59.88023952,,,,,,,,,,,,,,,,1189.1204,1190.4206,1190.4207,1191.437,return,0.2597,,83.26388889,,,,,,FBP-RB-71.png,0.45,1.2,50,0.5,,,,,,,,,,,,,,,,,,0,24,24,49,1,,,,,,,,,,,,,,,,,,,,,,,
,,,,,V3_001,18,Female,2024-10-13_12h52.59.512,jersey_experiment_5_v3,2023.2.2,Win32,59.88023952,,,,,,,,,,,,,,,,1191.4373,1192.9871,1192.9872,1194.0869,return,0.2177,,90.625,,,,,,FBP-OG-81.png,0.43,1.2,39,0.75,,,,,,,,,,,,,,,,,,0,25,25,38,1,,,,,,,,,,,,,,,,,,,,,,,
,,,,,V3_001,18,Female,2024-10-13_12h52.59.512,jersey_experiment_5_v3,2023.2.2,Win32,59.88023952,,,,,,,,,,,,,,,,1194.0872,1195.3872,1195.3873,1196.2868,return,0.1575,,94.02777778,,,,,,FBP-RB-81.png,0.43,1.2,54,0.5,,,,,,,,,,,,,,,,,,0,26,26,53,1,,,,,,,,,,,,,,,,,,,,,,,
,,,,,V3_001,18,Female,2024-10-13_12h52.59.512,jersey_experiment_5_v3,2023.2.2,Win32,59.88023952,,,,,,,,,,,,,,,,1196.287,1197.5869,1197.587,1198.7872,return,0.2205,,45.69444444,,,,,,FBP-YG-18.png,0.35,1.2,6,0.5,,,,,,,,,,,,,,,,,,0,27,27,5,1,,,,,,,,,,,,,,,,,,,,,,,
,,,,,V3_001,18,Female,2024-10-13_12h52.59.512,jersey_experiment_5_v3,2023.2.2,Win32,59.88023952,,,,,,,,,,,,,,,,1198.7876,1200.0872,1200.0874,1201.3539,return,0.2359,,67.84722222,,,,,,FBP-RB-91.png,0.4,1.2,58,0.5,,,,,,,,,,,,,,,,,,0,28,28,57,1,,,,,,,,,,,,,,,,,,,,,,,
,,,,,V3_001,18,Female,2024-10-13_12h52.59.512,jersey_experiment_5_v3,2023.2.2,Win32,59.88023952,,,,,,,,,,,,,,,,1201.3541,1202.6536,1202.6536,1203.7204,return,0.1514,,83.54166667,,,,,,FBP-YG-17.png,0.43,1.2,4,0.5,,,,,,,,,,,,,,,,,,0,29,29,3,1,,,,,,,,,,,,,,,,,,,,,,,
,,,,,V3_001,18,Female,2024-10-13_12h52.59.512,jersey_experiment_5_v3,2023.2.2,Win32,59.88023952,,,,,,,,,,,,,,,,1203.7209,1205.0201,1205.0202,1207.287,return,0.151,,50.06944444,,,,,,FBP-RB-91.png,0.35,1.2,56,0.5,,,,,,,,,,,,,,,,,,0,30,30,55,1,,,,,,,,,,,,,,,,,,,,,,,
,,,,,V3_001,18,Female,2024-10-13_12h52.59.512,jersey_experiment_5_v3,2023.2.2,Win32,59.88023952,,,,,,,,,,,,,,,,1207.2872,1208.5872,1208.5873,1210.5045,return,0.6505,,62.84722222,,,,,,FBP-YG-19.png,0.35,1.2,11,0.5,,,,,,,,,,,,,,,,,,0,31,31,10,1,,,,,,,,,,,,,,,,,,,,,,,
,,,,,V3_001,18,Female,2024-10-13_12h52.59.512,jersey_experiment_5_v3,2023.2.2,Win32,59.88023952,,,,,,,,,,,,,,,,1210.505,1212.0535,1212.0536,1214.1373,return,0.4179,,45,,,,,,FBP-OG-71.png,0.35,1.2,31,0.75,,,,,,,,,,,,,,,,,,0,32,32,30,1,,,,,,,,,,,,,,,,,,,,,,,
,,,,,V3_001,18,Female,2024-10-13_12h52.59.512,jersey_experiment_5_v3,2023.2.2,Win32,59.88023952,,,,,,,,,,,,,,,,1214.1377,1215.4372,1215.4373,1216.5703,return,0.2792,,76.31944444,,,,,,FBP-RB-71.png,0.43,1.2,49,0.5,,,,,,,,,,,,,,,,,,0,33,33,48,1,,,,,,,,,,,,,,,,,,,,,,,
,,,,,V3_001,18,Female,2024-10-13_12h52.59.512,jersey_experiment_5_v3,2023.2.2,Win32,59.88023952,,,,,,,,,,,,,,,,1216.5707,1217.8706,1217.8707,1219.1372,return,0.3569,,70.69444444,,,,,,FBP-YG-17.png,0.37,1.2,2,0.5,,,,,,,,,,,,,,,,,,0,34,34,1,1,,,,,,,,,,,,,,,,,,,,,,,
,,,,,V3_001,18,Female,2024-10-13_12h52.59.512,jersey_experiment_5_v3,2023.2.2,Win32,59.88023952,,,,,,,,,,,,,,,,1219.1376,1220.4371,1220.4371,1223.3872,return,0.1937,,69.30555556,,,,,,FBP-RB-71.png,0.37,1.2,47,0.5,,,,,,,,,,,,,,,,,,0,35,35,46,1,,,,,,,,,,,,,,,,,,,,,,,
,,,,,V3_001,18,Female,2024-10-13_12h52.59.512,jersey_experiment_5_v3,2023.2.2,Win32,59.88023952,,,,,,,,,,,,,,,,1223.3875,1224.6868,1224.6869,1225.8537,return,0.2587,,68.88888889,,,,,,FBP-YG-18.png,0.37,1.2,7,0.5,,,,,,,,,,,,,,,,,,0,36,36,6,1,,,,,,,,,,,,,,,,,,,,,,,
,,,,,V3_001,18,Female,2024-10-13_12h52.59.512,jersey_experiment_5_v3,2023.2.2,Win32,59.88023952,,,,,,,,,,,,,,,,1225.8539,1227.1537,1227.1537,1228.3041,return,0.1565,,83.88888889,,,,,,FBP-YG-17.png,0.45,1.2,5,0.5,,,,,,,,,,,,,,,,,,0,37,37,4,1,,,,,,,,,,,,,,,,,,,,,,,
,,,,,V3_001,18,Female,2024-10-13_12h52.59.512,jersey_experiment_5_v3,2023.2.2,Win32,59.88023952,,,,,,,,,,,,,,,,1228.3045,1229.6039,1229.604,1230.354,return,0.171,,89.79166667,,,,,,FBP-PT-81.png,0.43,1.2,24,0.5,,,,,,,,,,,,,,,,,,0,38,38,23,1,,,,,,,,,,,,,,,,,,,,,,,
,,,,,V3_001,18,Female,2024-10-13_12h52.59.512,jersey_experiment_5_v3,2023.2.2,Win32,59.88023952,,,,,,,,,,,,,,,,1230.3545,1231.6538,1231.6538,1236.7877,return,1.1354,,93.88888889,,,,,,FBP-RB-71.png,0.4,1.2,48,0.5,,,,,,,,,,,,,,,,,,0,39,39,47,1,,,,,,,,,,,,,,,,,,,,,,,
,,,,,V3_001,18,Female,2024-10-13_12h52.59.512,jersey_experiment_5_v3,2023.2.2,Win32,59.88023952,,,,,,,,,,,,,,,,1236.788,1238.0871,1238.0872,1239.2376,return,0.2184,,40.41666667,,,,,,FBP-PT-81.png,0.35,1.2,21,0.5,,,,,,,,,,,,,,,,,,0,40,40,20,1,,,,,,,,,,,,,,,,,,,,,,,
,,,,,V3_001,18,Female,2024-10-13_12h52.59.512,jersey_experiment_5_v3,2023.2.2,Win32,59.88023952,,,,,,,,,,,,,,,,1239.2381,1240.5375,1240.5376,1243.2706,return,1.452,,60.625,,,,,,FBP-YG-18.png,0.43,1.2,9,0.5,,,,,,,,,,,,,,,,,,0,41,41,8,1,,,,,,,,,,,,,,,,,,,,,,,
,,,,,V3_001,18,Female,2024-10-13_12h52.59.512,jersey_experiment_5_v3,2023.2.2,Win32,59.88023952,,,,,,,,,,,,,,,,1243.2709,1244.8207,1244.8207,1245.9709,return,0.1035,,66.73611111,,,,,,FBP-OG-81.png,0.4,1.2,38,0.75,,,,,,,,,,,,,,,,,,0,42,42,37,1,,,,,,,,,,,,,,,,,,,,,,,
,,,,,V3_001,18,Female,2024-10-13_12h52.59.512,jersey_experiment_5_v3,2023.2.2,Win32,59.88023952,,,,,,,,,,,,,,,,1245.9713,1247.5212,1247.5212,1248.2871,return,0.1917,,81.52777778,,,,,,FBP-OG-71.png,0.45,1.2,35,0.75,,,,,,,,,,,,,,,,,,0,43,43,34,1,,,,,,,,,,,,,,,,,,,,,,,
,,,,,V3_001,18,Female,2024-10-13_12h52.59.512,jersey_experiment_5_v3,2023.2.2,Win32,59.88023952,,,,,,,,,,,,,,,,1248.2874,1249.5873,1249.5874,1250.6539,return,0.2095,,83.54166667,,,,,,FBP-PT-81.png,0.4,1.2,23,0.5,,,,,,,,,,,,,,,,,,0,44,44,22,1,,,,,,,,,,,,,,,,,,,,,,,
,,,,,V3_001,18,Female,2024-10-13_12h52.59.512,jersey_experiment_5_v3,2023.2.2,Win32,59.88023952,,,,,,,,,,,,,,,,1250.6542,1252.2041,1252.2042,1256.8705,return,0.301,,80.48611111,,,,,,FBP-OG-91.png,0.43,1.2,44,0.75,,,,,,,,,,,,,,,,,,0,45,45,43,1,,,,,,,,,,,,,,,,,,,,,,,
,,,,,V3_001,18,Female,2024-10-13_12h52.59.512,jersey_experiment_5_v3,2023.2.2,Win32,59.88023952,,,,,,,,,,,,,,,,1256.871,1258.1708,1258.1708,1259.4206,return,0.4244,,81.31944444,,,,,,FBP-PT-71.png,0.45,1.2,20,0.5,,,,,,,,,,,,,,,,,,0,46,46,19,1,,,,,,,,,,,,,,,,,,,,,,,
,,,,,V3_001,18,Female,2024-10-13_12h52.59.512,jersey_experiment_5_v3,2023.2.2,Win32,59.88023952,,,,,,,,,,,,,,,,1259.4211,1260.7207,1260.7207,1261.6376,return,0.1686,,70.06944444,,,,,,FBP-PT-71.png,0.37,1.2,17,0.5,,,,,,,,,,,,,,,,,,0,47,47,16,1,,,,,,,,,,,,,,,,,,,,,,,
,,,,,V3_001,18,Female,2024-10-13_12h52.59.512,jersey_experiment_5_v3,2023.2.2,Win32,59.88023952,,,,,,,,,,,,,,,,1261.6379,1262.9374,1262.9376,1263.954,return,0.1719,,57.77777778,,,,,,FBP-RB-71.png,0.35,1.2,46,0.5,,,,,,,,,,,,,,,,,,0,48,48,45,1,,,,,,,,,,,,,,,,,,,,,,,
,,,,,V3_001,18,Female,2024-10-13_12h52.59.512,jersey_experiment_5_v3,2023.2.2,Win32,59.88023952,,,,,,,,,,,,,,,,1263.9544,1265.2541,1265.2541,1267.3543,return,0.168,,65.20833333,,,,,,FBP-PT-81.png,0.37,1.2,22,0.5,,,,,,,,,,,,,,,,,,0,49,49,21,1,,,,,,,,,,,,,,,,,,,,,,,
,,,,,V3_001,18,Female,2024-10-13_12h52.59.512,jersey_experiment_5_v3,2023.2.2,Win32,59.88023952,,,,,,,,,,,,,,,,1267.3547,1268.6542,1268.6543,1269.6874,return,0.1504,,77.22222222,,,,,,FBP-PT-91.png,0.4,1.2,28,0.5,,,,,,,,,,,,,,,,,,0,50,50,27,1,,,,,,,,,,,,,,,,,,,,,,,
,,,,,V3_001,18,Female,2024-10-13_12h52.59.512,jersey_experiment_5_v3,2023.2.2,Win32,59.88023952,,,,,,,,,,,,,,,,1269.6879,1271.2378,1271.2379,1272.404,return,0.1523,,92.22222222,,,,,,FBP-OG-91.png,0.45,1.2,45,0.75,,,,,,,,,,,,,,,,,,0,51,51,44,1,,,,,,,,,,,,,,,,,,,,,,,
,,,,,V3_001,18,Female,2024-10-13_12h52.59.512,jersey_experiment_5_v3,2023.2.2,Win32,59.88023952,,,,,,,,,,,,,,,,1272.4043,1273.9541,1273.9542,1275.4707,return,0.4074,,78.95833333,,,,,,FBP-OG-91.png,0.35,1.2,41,0.75,,,,,,,,,,,,,,,,,,0,52,52,40,1,,,,,,,,,,,,,,,,,,,,,,,
,,,,,V3_001,18,Female,2024-10-13_12h52.59.512,jersey_experiment_5_v3,2023.2.2,Win32,59.88023952,,,,,,,,,,,,,,,,1275.4712,1277.0208,1277.0209,1278.2208,return,0.1765,,86.25,,,,,,FBP-OG-81.png,0.45,1.2,40,0.75,,,,,,,,,,,,,,,,,,0,53,53,39,1,,,,,,,,,,,,,,,,,,,,,,,
,,,,,V3_001,18,Female,2024-10-13_12h52.59.512,jersey_experiment_5_v3,2023.2.2,Win32,59.88023952,,,,,,,,,,,,,,,,1278.2214,1279.5207,1279.5208,1280.9376,return,0.2346,,94.09722222,,,,,,FBP-RB-81.png,0.45,1.2,55,0.5,,,,,,,,,,,,,,,,,,0,54,54,54,1,,,,,,,,,,,,,,,,,,,,,,,
,,,,,V3_001,18,Female,2024-10-13_12h52.59.512,jersey_experiment_5_v3,2023.2.2,Win32,59.88023952,,,,,,,,,,,,,,,,1280.9382,1282.2379,1282.2379,1283.2375,return,0.2513,,96.52777778,,,,,,FBP-YG-19.png,0.43,1.2,14,0.5,,,,,,,,,,,,,,,,,,0,55,55,13,1,,,,,,,,,,,,,,,,,,,,,,,
,,,,,V3_001,18,Female,2024-10-13_12h52.59.512,jersey_experiment_5_v3,2023.2.2,Win32,59.88023952,,,,,,,,,,,,,,,,1283.238,1284.5378,1284.5379,1287.5875,return,0.2683,,89.375,,,,,,FBP-YG-17.png,0.4,1.2,3,0.5,,,,,,,,,,,,,,,,,,0,56,56,2,1,,,,,,,,,,,,,,,,,,,,,,,
,,,,,V3_001,18,Female,2024-10-13_12h52.59.512,jersey_experiment_5_v3,2023.2.2,Win32,59.88023952,,,,,,,,,,,,,,,,1287.588,1289.1376,1289.1377,1291.9206,return,0.189,,77.77777778,,,,,,FBP-OG-71.png,0.4,1.2,33,0.75,,,,,,,,,,,,,,,,,,0,57,57,32,1,,,,,,,,,,,,,,,,,,,,,,,
,,,,,V3_001,18,Female,2024-10-13_12h52.59.512,jersey_experiment_5_v3,2023.2.2,Win32,59.88023952,,,,,,,,,,,,,,,,1291.9209,1293.471,1293.471,1294.4711,return,0.1509,,54.93055556,,,,,,FBP-OG-71.png,0.37,1.2,32,0.75,,,,,,,,,,,,,,,,,,0,58,58,31,1,,,,,,,,,,,,,,,,,,,,,,,
,,,,,V3_001,18,Female,2024-10-13_12h52.59.512,jersey_experiment_5_v3,2023.2.2,Win32,59.88023952,,,,,,,,,,,,,,,,1294.4715,1295.771,1295.771,1306.4043,return,9.4518,,80.625,,,,,,FBP-YG-18.png,0.45,1.2,10,0.5,,,,,,,,,,,,,,,,,,0,59,59,9,1,,,,,,,,,,,,,,,,,,,,,,,
,,,,,V3_001,18,Female,2024-10-13_12h52.59.512,jersey_experiment_5_v3,2023.2.2,Win32,59.88023952,,,,,,,,,,,,,,,,,,,,,,,,,,,,,,,,,,,,,,,,,,,,,,,,,,,,,,,,1306.4049,1313.1388,return,6.7059,,,,,,,,,,,,,,,,,,,
,,,,,V3_001,18,Female,2024-10-13_12h52.59.512,jersey_experiment_5_v3,2023.2.2,Win32,59.88023952,,,,,,,,,,,,,,,,,,,,,,,,,,,,,,,,,,,,,,,,,,,,,,,,,,,,,,,,,,,,,1313.139,1319.8714,1,5.119,return,1.5904,,,,,,,,,,,,
,,,,,V3_001,18,Female,2024-10-13_12h52.59.512,jersey_experiment_5_v3,2023.2.2,Win32,59.88023952,,,,,,,,,,,,,,,,,,,,,,,,,,,,,,,,,,,,,,,,,,,,,,,,,,,,,,,,,,,,,,,,,,,,1319.8716,1542.9174,This study could be about how individuals rate the images over time/how an image compares to the image before without realizing. Or how quickly an individual completes the study based off of measurable characteristics. I recognized that many of the images shown to me where repeated images as well as the notion that some of those images were exactly the same as ones showed earlier in the study just in different colored clothes.,right,213.1637,,,,,,
,,,,,V3_001,18,Female,2024-10-13_12h52.59.512,jersey_experiment_5_v3,2023.2.2,Win32,59.88023952,,,,,,,,,,,,,,,,,,,,,,,,,,,,,,,,,,,,,,,,,,,,,,,,,,,,,,,,,,,,,,,,,,,,,,,,,,1542.9176,1579.5071,return,36.5725,