requirements.started,requirements.stopped,key_resp_3.keys,key_resp_3.rt,key_resp_3.duration,Subject ID,Age,Gender,date,expName,psychopyVersion,OS,frameRate,instructions1.started,instructions1.stopped,key_resp.keys,key_resp.rt,key_resp.duration,example.started,example.stopped,enter_2.keys,enter_2.rt,enter_2.duration,instructions2.started,instructions2.stopped,enter_3.keys,enter_3.rt,enter_3.duration,image.started,image.stopped,slider_2.started,slider_2.stopped,next.keys,next.rt,next.duration,slider.response,trial_block_1.thisRepN,trial_block_1.thisTrialN,trial_block_1.thisN,trial_block_1.thisIndex,trial_block_1.ran,Path,Width,Height,Index,Duration,trial_block_2.thisRepN,trial_block_2.thisTrialN,trial_block_2.thisN,trial_block_2.thisIndex,trial_block_2.ran,rest_break.started,rest_break.stopped,end_break.started,end_break.stopped,key_resp_5.keys,key_resp_5.rt,key_resp_5.duration,trial_block_3.thisRepN,trial_block_3.thisTrialN,trial_block_3.thisN,trial_block_3.thisIndex,trial_block_3.ran,trial_block_4.thisRepN,trial_block_4.thisTrialN,trial_block_4.thisN,trial_block_4.thisIndex,trial_block_4.ran,questions_intro.started,questions_intro.stopped,enter_12.keys,enter_12.rt,enter_12.duration,question2.started,question2.stopped,question_doingbest.response,question_doingbest.rt,enter_15.keys,enter_15.rt,enter_15.duration,pattern.started,pattern.stopped,pattern_2.text,enter_17.keys,enter_17.rt,enter_17.duration,thankyou.started,thankyou.stopped,enter_14.keys,enter_14.rt,enter_14.duration
0,1.818,return,1.8116,,V3_090,20,Male,2025-01-30_13h33.21.274,jersey_experiment_5_v3,2023.2.2,Win32,85.47008547,,,,,,,,,,,,,,,,,,,,,,,,,,,,,,,,,,,,,,,,,,,,,,,,,,,,,,,,,,,,,,,,,,,,,,,,,,,,,,
,,,,,V3_090,20,Male,2025-01-30_13h33.21.274,jersey_experiment_5_v3,2023.2.2,Win32,85.47008547,1.818,2.6501,return,0.8237,,,,,,,,,,,,,,,,,,,,,,,,,,,,,,,,,,,,,,,,,,,,,,,,,,,,,,,,,,,,,,,,,,,,,,,,,,
,,,,,V3_090,20,Male,2025-01-30_13h33.21.274,jersey_experiment_5_v3,2023.2.2,Win32,85.47008547,,,,,,2.6501,5.0036,return,2.3352,,,,,,,,,,,,,,,,,,,,,,,,,,,,,,,,,,,,,,,,,,,,,,,,,,,,,,,,,,,,,,,,,,,,,
,,,,,V3_090,20,Male,2025-01-30_13h33.21.274,jersey_experiment_5_v3,2023.2.2,Win32,85.47008547,,,,,,,,,,,5.0036,6.0532,return,1.0353,,,,,,,,,,,,,,,,,,,,,,,,,,,,,,,,,,,,,,,,,,,,,,,,,,,,,,,,,,,,,,,,
,,,,,V3_090,20,Male,2025-01-30_13h33.21.274,jersey_experiment_5_v3,2023.2.2,Win32,85.47008547,,,,,,,,,,,,,,,,6.0545,7.6001,7.6002,21.6773,return,3.7797,,74.47916667,0,0,0,4,1,FBP-YG-71.png,0.45,1.2,5,0.75,,,,,,,,,,,,,,,,,,,,,,,,,,,,,,,,,,,,,,,,,,,,,
,,,,,V3_090,20,Male,2025-01-30_13h33.21.274,jersey_experiment_5_v3,2023.2.2,Win32,85.47008547,,,,,,,,,,,,,,,,21.6775,23.2242,23.2242,28.1538,return,2.7075,,25.78125,0,1,1,25,1,FBP-PT-19.png,0.35,1.2,26,0.75,,,,,,,,,,,,,,,,,,,,,,,,,,,,,,,,,,,,,,,,,,,,,
,,,,,V3_090,20,Male,2025-01-30_13h33.21.274,jersey_experiment_5_v3,2023.2.2,Win32,85.47008547,,,,,,,,,,,,,,,,28.1541,29.7102,29.7102,33.7336,return,2.2207,,87.5,0,2,2,17,1,FBP-PT-17.png,0.4,1.2,18,0.75,,,,,,,,,,,,,,,,,,,,,,,,,,,,,,,,,,,,,,,,,,,,,
,,,,,V3_090,20,Male,2025-01-30_13h33.21.274,jersey_experiment_5_v3,2023.2.2,Win32,85.47008547,,,,,,,,,,,,,,,,33.7338,35.2867,35.2867,38.8865,return,1.4909,,74.73958333,0,3,3,59,1,FBP-RB-19.png,0.45,1.2,60,0.75,,,,,,,,,,,,,,,,,,,,,,,,,,,,,,,,,,,,,,,,,,,,,
,,,,,V3_090,20,Male,2025-01-30_13h33.21.274,jersey_experiment_5_v3,2023.2.2,Win32,85.47008547,,,,,,,,,,,,,,,,38.8866,40.431,40.431,43.0754,return,0.9181,,86.97916667,0,4,4,19,1,FBP-PT-17.png,0.45,1.2,20,0.75,,,,,,,,,,,,,,,,,,,,,,,,,,,,,,,,,,,,,,,,,,,,,
,,,,,V3_090,20,Male,2025-01-30_13h33.21.274,jersey_experiment_5_v3,2023.2.2,Win32,85.47008547,,,,,,,,,,,,,,,,43.0755,44.6193,44.6194,47.5924,return,1.0201,,37.36979167,0,5,5,26,1,FBP-PT-19.png,0.37,1.2,27,0.75,,,,,,,,,,,,,,,,,,,,,,,,,,,,,,,,,,,,,,,,,,,,,
,,,,,V3_090,20,Male,2025-01-30_13h33.21.274,jersey_experiment_5_v3,2023.2.2,Win32,85.47008547,,,,,,,,,,,,,,,,47.5925,48.884,48.884,53.8051,return,0.6914,,64.19270833,0,6,6,43,1,FBP-OG-19.png,0.43,1.2,44,0.5,,,,,,,,,,,,,,,,,,,,,,,,,,,,,,,,,,,,,,,,,,,,,
,,,,,V3_090,20,Male,2025-01-30_13h33.21.274,jersey_experiment_5_v3,2023.2.2,Win32,85.47008547,,,,,,,,,,,,,,,,53.8052,55.3581,55.3581,58.7703,return,1.083,,24.47916667,0,7,7,16,1,FBP-PT-17.png,0.37,1.2,17,0.75,,,,,,,,,,,,,,,,,,,,,,,,,,,,,,,,,,,,,,,,,,,,,
,,,,,V3_090,20,Male,2025-01-30_13h33.21.274,jersey_experiment_5_v3,2023.2.2,Win32,85.47008547,,,,,,,,,,,,,,,,58.7703,60.314,60.314,62.7315,return,0.8261,,24.609375,0,8,8,12,1,FBP-YG-91.png,0.4,1.2,13,0.75,,,,,,,,,,,,,,,,,,,,,,,,,,,,,,,,,,,,,,,,,,,,,
,,,,,V3_090,20,Male,2025-01-30_13h33.21.274,jersey_experiment_5_v3,2023.2.2,Win32,85.47008547,,,,,,,,,,,,,,,,62.7318,64.0313,64.0313,67.32,return,0.7592,,62.23958333,0,9,9,44,1,FBP-OG-19.png,0.45,1.2,45,0.5,,,,,,,,,,,,,,,,,,,,,,,,,,,,,,,,,,,,,,,,,,,,,
,,,,,V3_090,20,Male,2025-01-30_13h33.21.274,jersey_experiment_5_v3,2023.2.2,Win32,85.47008547,,,,,,,,,,,,,,,,67.3202,68.8642,68.8642,73.5468,return,0.635,,50,0,10,10,53,1,FBP-RB-18.png,0.43,1.2,54,0.75,,,,,,,,,,,,,,,,,,,,,,,,,,,,,,,,,,,,,,,,,,,,,
,,,,,V3_090,20,Male,2025-01-30_13h33.21.274,jersey_experiment_5_v3,2023.2.2,Win32,85.47008547,,,,,,,,,,,,,,,,73.547,75.0912,75.0912,82.2205,return,0.7677,,0.78125,0,11,11,6,1,FBP-YG-81.png,0.37,1.2,7,0.75,,,,,,,,,,,,,,,,,,,,,,,,,,,,,,,,,,,,,,,,,,,,,
,,,,,V3_090,20,Male,2025-01-30_13h33.21.274,jersey_experiment_5_v3,2023.2.2,Win32,85.47008547,,,,,,,,,,,,,,,,82.2208,83.772,83.772,87.3739,return,0.9798,,61.97916667,0,12,12,28,1,FBP-PT-19.png,0.43,1.2,29,0.75,,,,,,,,,,,,,,,,,,,,,,,,,,,,,,,,,,,,,,,,,,,,,
,,,,,V3_090,20,Male,2025-01-30_13h33.21.274,jersey_experiment_5_v3,2023.2.2,Win32,85.47008547,,,,,,,,,,,,,,,,87.374,88.9208,88.9208,91.6182,return,0.7533,,24.47916667,0,13,13,7,1,FBP-YG-81.png,0.4,1.2,8,0.75,,,,,,,,,,,,,,,,,,,,,,,,,,,,,,,,,,,,,,,,,,,,,
,,,,,V3_090,20,Male,2025-01-30_13h33.21.274,jersey_experiment_5_v3,2023.2.2,Win32,85.47008547,,,,,,,,,,,,,,,,91.6185,93.1714,93.1714,95.6658,return,1.0123,,74.86979167,0,14,14,54,1,FBP-RB-18.png,0.45,1.2,55,0.75,,,,,,,,,,,,,,,,,,,,,,,,,,,,,,,,,,,,,,,,,,,,,
,,,,,V3_090,20,Male,2025-01-30_13h33.21.274,jersey_experiment_5_v3,2023.2.2,Win32,85.47008547,,,,,,,,,,,,,,,,95.6659,97.2185,97.2185,100.9212,return,0.8757,,0.651041667,0,15,15,56,1,FBP-RB-19.png,0.37,1.2,57,0.75,,,,,,,,,,,,,,,,,,,,,,,,,,,,,,,,,,,,,,,,,,,,,
,,,,,V3_090,20,Male,2025-01-30_13h33.21.274,jersey_experiment_5_v3,2023.2.2,Win32,85.47008547,,,,,,,,,,,,,,,,100.9215,102.4656,102.4656,105.0688,return,0.7445,,0.130208333,0,16,16,5,1,FBP-YG-81.png,0.35,1.2,6,0.75,,,,,,,,,,,,,,,,,,,,,,,,,,,,,,,,,,,,,,,,,,,,,
,,,,,V3_090,20,Male,2025-01-30_13h33.21.274,jersey_experiment_5_v3,2023.2.2,Win32,85.47008547,,,,,,,,,,,,,,,,105.0689,106.3717,106.3717,109.2572,return,1.0504,,25.13020833,0,17,17,32,1,FBP-OG-17.png,0.4,1.2,33,0.5,,,,,,,,,,,,,,,,,,,,,,,,,,,,,,,,,,,,,,,,,,,,,
,,,,,V3_090,20,Male,2025-01-30_13h33.21.274,jersey_experiment_5_v3,2023.2.2,Win32,85.47008547,,,,,,,,,,,,,,,,109.2573,110.8039,110.804,113.9921,return,0.8751,,50.13020833,0,18,18,48,1,FBP-RB-17.png,0.43,1.2,49,0.75,,,,,,,,,,,,,,,,,,,,,,,,,,,,,,,,,,,,,,,,,,,,,
,,,,,V3_090,20,Male,2025-01-30_13h33.21.274,jersey_experiment_5_v3,2023.2.2,Win32,85.47008547,,,,,,,,,,,,,,,,113.9923,115.5335,115.5335,119.0546,return,0.7062,,24.47916667,0,19,19,2,1,FBP-YG-71.png,0.4,1.2,3,0.75,,,,,,,,,,,,,,,,,,,,,,,,,,,,,,,,,,,,,,,,,,,,,
,,,,,V3_090,20,Male,2025-01-30_13h33.21.274,jersey_experiment_5_v3,2023.2.2,Win32,85.47008547,,,,,,,,,,,,,,,,119.0547,120.3632,120.3633,123.1632,return,0.9881,,37.23958333,0,20,20,42,1,FBP-OG-19.png,0.4,1.2,43,0.5,,,,,,,,,,,,,,,,,,,,,,,,,,,,,,,,,,,,,,,,,,,,,
,,,,,V3_090,20,Male,2025-01-30_13h33.21.274,jersey_experiment_5_v3,2023.2.2,Win32,85.47008547,,,,,,,,,,,,,,,,123.1635,124.7103,124.7104,127.4227,return,1.1682,,74.47916667,0,21,21,24,1,FBP-PT-18.png,0.45,1.2,25,0.75,,,,,,,,,,,,,,,,,,,,,,,,,,,,,,,,,,,,,,,,,,,,,
,,,,,V3_090,20,Male,2025-01-30_13h33.21.274,jersey_experiment_5_v3,2023.2.2,Win32,85.47008547,,,,,,,,,,,,,,,,127.4228,128.9738,128.9738,131.3371,return,1.0671,,74.609375,0,22,22,13,1,FBP-YG-91.png,0.43,1.2,14,0.75,,,,,,,,,,,,,,,,,,,,,,,,,,,,,,,,,,,,,,,,,,,,,
,,,,,V3_090,20,Male,2025-01-30_13h33.21.274,jersey_experiment_5_v3,2023.2.2,Win32,85.47008547,,,,,,,,,,,,,,,,131.3373,132.8815,132.8815,136.011,return,0.9883,,0.130208333,0,23,23,45,1,FBP-RB-17.png,0.35,1.2,46,0.75,,,,,,,,,,,,,,,,,,,,,,,,,,,,,,,,,,,,,,,,,,,,,
,,,,,V3_090,20,Male,2025-01-30_13h33.21.274,jersey_experiment_5_v3,2023.2.2,Win32,85.47008547,,,,,,,,,,,,,,,,136.0112,137.3025,137.3026,139.8698,return,0.7677,,0.260416667,0,24,24,41,1,FBP-OG-19.png,0.37,1.2,42,0.5,,,,,,,,,,,,,,,,,,,,,,,,,,,,,,,,,,,,,,,,,,,,,
,,,,,V3_090,20,Male,2025-01-30_13h33.21.274,jersey_experiment_5_v3,2023.2.2,Win32,85.47008547,,,,,,,,,,,,,,,,139.87,141.4168,141.4169,146.1763,return,0.7683,,0.130208333,0,25,25,15,1,FBP-PT-17.png,0.35,1.2,16,0.75,,,,,,,,,,,,,,,,,,,,,,,,,,,,,,,,,,,,,,,,,,,,,
,,,,,V3_090,20,Male,2025-01-30_13h33.21.274,jersey_experiment_5_v3,2023.2.2,Win32,85.47008547,,,,,,,,,,,,,,,,146.1765,147.4677,147.4678,151.6823,return,0.9329,,24.609375,0,26,26,37,1,FBP-OG-18.png,0.4,1.2,38,0.5,,,,,,,,,,,,,,,,,,,,,,,,,,,,,,,,,,,,,,,,,,,,,
,,,,,V3_090,20,Male,2025-01-30_13h33.21.274,jersey_experiment_5_v3,2023.2.2,Win32,85.47008547,,,,,,,,,,,,,,,,151.6825,153.2289,153.2289,155.7705,return,0.7803,,74.73958333,0,27,27,49,1,FBP-RB-17.png,0.45,1.2,50,0.75,,,,,,,,,,,,,,,,,,,,,,,,,,,,,,,,,,,,,,,,,,,,,
,,,,,V3_090,20,Male,2025-01-30_13h33.21.274,jersey_experiment_5_v3,2023.2.2,Win32,85.47008547,,,,,,,,,,,,,,,,155.7707,157.0705,157.0705,160.0121,return,0.721,,24.34895833,0,28,28,30,1,FBP-OG-17.png,0.35,1.2,31,0.5,,,,,,,,,,,,,,,,,,,,,,,,,,,,,,,,,,,,,,,,,,,,,
,,,,,V3_090,20,Male,2025-01-30_13h33.21.274,jersey_experiment_5_v3,2023.2.2,Win32,85.47008547,,,,,,,,,,,,,,,,160.0123,161.5651,161.5652,164.7886,return,0.8145,,11.97916667,0,29,29,55,1,FBP-RB-19.png,0.35,1.2,56,0.75,,,,,,,,,,,,,,,,,,,,,,,,,,,,,,,,,,,,,,,,,,,,,
,,,,,V3_090,20,Male,2025-01-30_13h33.21.274,jersey_experiment_5_v3,2023.2.2,Win32,85.47008547,,,,,,,,,,,,,,,,164.7887,166.0826,166.0826,171.6415,return,3.4607,,71.09375,0,30,30,38,1,FBP-OG-18.png,0.43,1.2,39,0.5,,,,,,,,,,,,,,,,,,,,,,,,,,,,,,,,,,,,,,,,,,,,,
,,,,,V3_090,20,Male,2025-01-30_13h33.21.274,jersey_experiment_5_v3,2023.2.2,Win32,85.47008547,,,,,,,,,,,,,,,,171.6417,173.1978,173.1978,175.0002,return,0.5791,,80.20833333,0,31,31,3,1,FBP-YG-71.png,0.43,1.2,4,0.75,,,,,,,,,,,,,,,,,,,,,,,,,,,,,,,,,,,,,,,,,,,,,
,,,,,V3_090,20,Male,2025-01-30_13h33.21.274,jersey_experiment_5_v3,2023.2.2,Win32,85.47008547,,,,,,,,,,,,,,,,175.0004,176.5538,176.5539,178.43,return,0.7777,,74.609375,0,32,32,27,1,FBP-PT-19.png,0.4,1.2,28,0.75,,,,,,,,,,,,,,,,,,,,,,,,,,,,,,,,,,,,,,,,,,,,,
,,,,,V3_090,20,Male,2025-01-30_13h33.21.274,jersey_experiment_5_v3,2023.2.2,Win32,85.47008547,,,,,,,,,,,,,,,,178.4302,179.7242,179.7242,183.904,return,1.0354,,74.47916667,0,33,33,33,1,FBP-OG-17.png,0.43,1.2,34,0.5,,,,,,,,,,,,,,,,,,,,,,,,,,,,,,,,,,,,,,,,,,,,,
,,,,,V3_090,20,Male,2025-01-30_13h33.21.274,jersey_experiment_5_v3,2023.2.2,Win32,85.47008547,,,,,,,,,,,,,,,,183.9042,185.4483,185.4483,188.4538,return,0.8318,,1.302083333,0,34,34,51,1,FBP-RB-18.png,0.37,1.2,52,0.75,,,,,,,,,,,,,,,,,,,,,,,,,,,,,,,,,,,,,,,,,,,,,
,,,,,V3_090,20,Male,2025-01-30_13h33.21.274,jersey_experiment_5_v3,2023.2.2,Win32,85.47008547,,,,,,,,,,,,,,,,188.454,189.9984,189.9984,193.0017,return,0.6593,,86.71875,0,35,35,9,1,FBP-YG-81.png,0.45,1.2,10,0.75,,,,,,,,,,,,,,,,,,,,,,,,,,,,,,,,,,,,,,,,,,,,,
,,,,,V3_090,20,Male,2025-01-30_13h33.21.274,jersey_experiment_5_v3,2023.2.2,Win32,85.47008547,,,,,,,,,,,,,,,,193.0019,194.5543,194.5543,196.9545,return,0.7531,,74.86979167,0,36,36,22,1,FBP-PT-18.png,0.4,1.2,23,0.75,,,,,,,,,,,,,,,,,,,,,,,,,,,,,,,,,,,,,,,,,,,,,
,,,,,V3_090,20,Male,2025-01-30_13h33.21.274,jersey_experiment_5_v3,2023.2.2,Win32,85.47008547,,,,,,,,,,,,,,,,196.9547,198.2486,198.2486,201.0346,return,0.7302,,99.609375,0,37,37,34,1,FBP-OG-17.png,0.45,1.2,35,0.5,,,,,,,,,,,,,,,,,,,,,,,,,,,,,,,,,,,,,,,,,,,,,
,,,,,V3_090,20,Male,2025-01-30_13h33.21.274,jersey_experiment_5_v3,2023.2.2,Win32,85.47008547,,,,,,,,,,,,,,,,201.0347,202.5781,202.5781,204.8934,return,0.7857,,99.34895833,0,38,38,23,1,FBP-PT-18.png,0.43,1.2,24,0.75,,,,,,,,,,,,,,,,,,,,,,,,,,,,,,,,,,,,,,,,,,,,,
,,,,,V3_090,20,Male,2025-01-30_13h33.21.274,jersey_experiment_5_v3,2023.2.2,Win32,85.47008547,,,,,,,,,,,,,,,,204.8936,206.4459,206.4459,208.8076,return,0.5009,,89.71354167,0,39,39,14,1,FBP-YG-91.png,0.45,1.2,15,0.75,,,,,,,,,,,,,,,,,,,,,,,,,,,,,,,,,,,,,,,,,,,,,
,,,,,V3_090,20,Male,2025-01-30_13h33.21.274,jersey_experiment_5_v3,2023.2.2,Win32,85.47008547,,,,,,,,,,,,,,,,208.8077,210.3668,210.3668,213.6701,return,0.824,,5.598958333,0,40,40,0,1,FBP-YG-71.png,0.35,1.2,1,0.75,,,,,,,,,,,,,,,,,,,,,,,,,,,,,,,,,,,,,,,,,,,,,
,,,,,V3_090,20,Male,2025-01-30_13h33.21.274,jersey_experiment_5_v3,2023.2.2,Win32,85.47008547,,,,,,,,,,,,,,,,213.6702,215.2227,215.2227,219.761,return,0.6121,,88.54166667,0,41,41,58,1,FBP-RB-19.png,0.43,1.2,59,0.75,,,,,,,,,,,,,,,,,,,,,,,,,,,,,,,,,,,,,,,,,,,,,
,,,,,V3_090,20,Male,2025-01-30_13h33.21.274,jersey_experiment_5_v3,2023.2.2,Win32,85.47008547,,,,,,,,,,,,,,,,219.7612,221.0581,221.0582,223.8026,return,0.9325,,14.32291667,0,42,42,31,1,FBP-OG-17.png,0.37,1.2,32,0.5,,,,,,,,,,,,,,,,,,,,,,,,,,,,,,,,,,,,,,,,,,,,,
,,,,,V3_090,20,Male,2025-01-30_13h33.21.274,jersey_experiment_5_v3,2023.2.2,Win32,85.47008547,,,,,,,,,,,,,,,,223.8027,225.3494,225.3495,231.8791,return,1.7243,,0.520833333,0,43,43,50,1,FBP-RB-18.png,0.35,1.2,51,0.75,,,,,,,,,,,,,,,,,,,,,,,,,,,,,,,,,,,,,,,,,,,,,
,,,,,V3_090,20,Male,2025-01-30_13h33.21.274,jersey_experiment_5_v3,2023.2.2,Win32,85.47008547,,,,,,,,,,,,,,,,231.8793,233.4354,233.4354,238.8707,return,1.7414,,13.28125,0,44,44,11,1,FBP-YG-91.png,0.37,1.2,12,0.75,,,,,,,,,,,,,,,,,,,,,,,,,,,,,,,,,,,,,,,,,,,,,
,,,,,V3_090,20,Male,2025-01-30_13h33.21.274,jersey_experiment_5_v3,2023.2.2,Win32,85.47008547,,,,,,,,,,,,,,,,238.8708,240.415,240.415,246.0006,return,2.1887,,49.73958333,0,45,45,57,1,FBP-RB-19.png,0.4,1.2,58,0.75,,,,,,,,,,,,,,,,,,,,,,,,,,,,,,,,,,,,,,,,,,,,,
,,,,,V3_090,20,Male,2025-01-30_13h33.21.274,jersey_experiment_5_v3,2023.2.2,Win32,85.47008547,,,,,,,,,,,,,,,,246.0008,247.5448,247.5448,252.6272,return,1.5209,,24.21875,0,46,46,1,1,FBP-YG-71.png,0.37,1.2,2,0.75,,,,,,,,,,,,,,,,,,,,,,,,,,,,,,,,,,,,,,,,,,,,,
,,,,,V3_090,20,Male,2025-01-30_13h33.21.274,jersey_experiment_5_v3,2023.2.2,Win32,85.47008547,,,,,,,,,,,,,,,,252.6274,254.1803,254.1803,257.0834,return,1.2798,,98.828125,0,47,47,29,1,FBP-PT-19.png,0.45,1.2,30,0.75,,,,,,,,,,,,,,,,,,,,,,,,,,,,,,,,,,,,,,,,,,,,,
,,,,,V3_090,20,Male,2025-01-30_13h33.21.274,jersey_experiment_5_v3,2023.2.2,Win32,85.47008547,,,,,,,,,,,,,,,,257.0836,258.3919,258.3919,262.343,return,0.8919,,0.520833333,0,48,48,36,1,FBP-OG-18.png,0.37,1.2,37,0.5,,,,,,,,,,,,,,,,,,,,,,,,,,,,,,,,,,,,,,,,,,,,,
,,,,,V3_090,20,Male,2025-01-30_13h33.21.274,jersey_experiment_5_v3,2023.2.2,Win32,85.47008547,,,,,,,,,,,,,,,,262.3431,263.892,263.8921,267.4134,return,0.856,,70.83333333,0,49,49,8,1,FBP-YG-81.png,0.43,1.2,9,0.75,,,,,,,,,,,,,,,,,,,,,,,,,,,,,,,,,,,,,,,,,,,,,
,,,,,V3_090,20,Male,2025-01-30_13h33.21.274,jersey_experiment_5_v3,2023.2.2,Win32,85.47008547,,,,,,,,,,,,,,,,267.4136,268.707,268.707,270.9512,return,0.698,,1.692708333,0,50,50,35,1,FBP-OG-18.png,0.35,1.2,36,0.5,,,,,,,,,,,,,,,,,,,,,,,,,,,,,,,,,,,,,,,,,,,,,
,,,,,V3_090,20,Male,2025-01-30_13h33.21.274,jersey_experiment_5_v3,2023.2.2,Win32,85.47008547,,,,,,,,,,,,,,,,270.9514,272.5105,272.5105,274.5577,return,0.7534,,5.338541667,0,51,51,46,1,FBP-RB-17.png,0.37,1.2,47,0.75,,,,,,,,,,,,,,,,,,,,,,,,,,,,,,,,,,,,,,,,,,,,,
,,,,,V3_090,20,Male,2025-01-30_13h33.21.274,jersey_experiment_5_v3,2023.2.2,Win32,85.47008547,,,,,,,,,,,,,,,,274.5578,276.1102,276.1102,278.5796,return,0.837,,4.427083333,0,52,52,20,1,FBP-PT-18.png,0.35,1.2,21,0.75,,,,,,,,,,,,,,,,,,,,,,,,,,,,,,,,,,,,,,,,,,,,,
,,,,,V3_090,20,Male,2025-01-30_13h33.21.274,jersey_experiment_5_v3,2023.2.2,Win32,85.47008547,,,,,,,,,,,,,,,,278.5797,279.875,279.875,283.9313,return,0.8708,,66.14583333,0,53,53,39,1,FBP-OG-18.png,0.45,1.2,40,0.5,,,,,,,,,,,,,,,,,,,,,,,,,,,,,,,,,,,,,,,,,,,,,
,,,,,V3_090,20,Male,2025-01-30_13h33.21.274,jersey_experiment_5_v3,2023.2.2,Win32,85.47008547,,,,,,,,,,,,,,,,283.9315,285.4755,285.4755,287.7904,return,0.9888,,76.69270833,0,54,54,18,1,FBP-PT-17.png,0.43,1.2,19,0.75,,,,,,,,,,,,,,,,,,,,,,,,,,,,,,,,,,,,,,,,,,,,,
,,,,,V3_090,20,Male,2025-01-30_13h33.21.274,jersey_experiment_5_v3,2023.2.2,Win32,85.47008547,,,,,,,,,,,,,,,,287.7905,289.0846,289.0847,294.4723,return,1.0478,,0.390625,0,55,55,40,1,FBP-OG-19.png,0.35,1.2,41,0.5,,,,,,,,,,,,,,,,,,,,,,,,,,,,,,,,,,,,,,,,,,,,,
,,,,,V3_090,20,Male,2025-01-30_13h33.21.274,jersey_experiment_5_v3,2023.2.2,Win32,85.47008547,,,,,,,,,,,,,,,,294.4724,296.0167,296.0167,301.7522,return,0.6645,,37.36979167,0,56,56,21,1,FBP-PT-18.png,0.37,1.2,22,0.75,,,,,,,,,,,,,,,,,,,,,,,,,,,,,,,,,,,,,,,,,,,,,
,,,,,V3_090,20,Male,2025-01-30_13h33.21.274,jersey_experiment_5_v3,2023.2.2,Win32,85.47008547,,,,,,,,,,,,,,,,301.7524,303.3113,303.3113,307.8382,return,0.5882,,63.671875,0,57,57,52,1,FBP-RB-18.png,0.4,1.2,53,0.75,,,,,,,,,,,,,,,,,,,,,,,,,,,,,,,,,,,,,,,,,,,,,
,,,,,V3_090,20,Male,2025-01-30_13h33.21.274,jersey_experiment_5_v3,2023.2.2,Win32,85.47008547,,,,,,,,,,,,,,,,307.8384,309.3912,309.3913,311.3825,return,0.58,,17.05729167,0,58,58,10,1,FBP-YG-91.png,0.35,1.2,11,0.75,,,,,,,,,,,,,,,,,,,,,,,,,,,,,,,,,,,,,,,,,,,,,
,,,,,V3_090,20,Male,2025-01-30_13h33.21.274,jersey_experiment_5_v3,2023.2.2,Win32,85.47008547,,,,,,,,,,,,,,,,311.3826,312.9353,312.9353,315.3592,return,0.7299,,50,0,59,59,47,1,FBP-RB-17.png,0.4,1.2,48,0.75,,,,,,,,,,,,,,,,,,,,,,,,,,,,,,,,,,,,,,,,,,,,,
,,,,,V3_090,20,Male,2025-01-30_13h33.21.274,jersey_experiment_5_v3,2023.2.2,Win32,85.47008547,,,,,,,,,,,,,,,,315.3606,316.9118,316.9118,319.1328,return,0.8091,,70.57291667,,,,,,FBP-RB-91.png,0.43,1.2,59,0.75,0,0,0,58,1,,,,,,,,,,,,,,,,,,,,,,,,,,,,,,,,,,,,,,,,
,,,,,V3_090,20,Male,2025-01-30_13h33.21.274,jersey_experiment_5_v3,2023.2.2,Win32,85.47008547,,,,,,,,,,,,,,,,319.133,320.6765,320.6766,322.6153,return,0.715,,76.30208333,,,,,,FBP-PT-91.png,0.4,1.2,28,0.75,0,1,1,27,1,,,,,,,,,,,,,,,,,,,,,,,,,,,,,,,,,,,,,,,,
,,,,,V3_090,20,Male,2025-01-30_13h33.21.274,jersey_experiment_5_v3,2023.2.2,Win32,85.47008547,,,,,,,,,,,,,,,,322.6155,324.1683,324.1684,325.8827,return,0.6281,,87.23958333,,,,,,FBP-YG-19.png,0.43,1.2,14,0.75,0,2,2,13,1,,,,,,,,,,,,,,,,,,,,,,,,,,,,,,,,,,,,,,,,
,,,,,V3_090,20,Male,2025-01-30_13h33.21.274,jersey_experiment_5_v3,2023.2.2,Win32,85.47008547,,,,,,,,,,,,,,,,325.8829,327.43,327.43,329.7214,return,0.7299,,62.890625,,,,,,FBP-RB-91.png,0.4,1.2,58,0.75,0,3,3,57,1,,,,,,,,,,,,,,,,,,,,,,,,,,,,,,,,,,,,,,,,
,,,,,V3_090,20,Male,2025-01-30_13h33.21.274,jersey_experiment_5_v3,2023.2.2,Win32,85.47008547,,,,,,,,,,,,,,,,329.7214,331.03,331.03,333.2124,return,0.7076,,74.86979167,,,,,,FBP-OG-81.png,0.4,1.2,38,0.5,0,4,4,37,1,,,,,,,,,,,,,,,,,,,,,,,,,,,,,,,,,,,,,,,,
,,,,,V3_090,20,Male,2025-01-30_13h33.21.274,jersey_experiment_5_v3,2023.2.2,Win32,85.47008547,,,,,,,,,,,,,,,,333.2125,334.5065,334.5065,336.8651,return,1.0583,,98.95833333,,,,,,FBP-OG-91.png,0.45,1.2,45,0.5,0,5,5,44,1,,,,,,,,,,,,,,,,,,,,,,,,,,,,,,,,,,,,,,,,
,,,,,V3_090,20,Male,2025-01-30_13h33.21.274,jersey_experiment_5_v3,2023.2.2,Win32,85.47008547,,,,,,,,,,,,,,,,336.8652,338.4125,338.4126,341.3594,return,0.9319,,99.47916667,,,,,,FBP-PT-71.png,0.43,1.2,19,0.75,0,6,6,18,1,,,,,,,,,,,,,,,,,,,,,,,,,,,,,,,,,,,,,,,,
,,,,,V3_090,20,Male,2025-01-30_13h33.21.274,jersey_experiment_5_v3,2023.2.2,Win32,85.47008547,,,,,,,,,,,,,,,,341.3595,342.9127,342.9127,345.2127,return,0.7395,,98.95833333,,,,,,FBP-RB-71.png,0.45,1.2,50,0.75,0,7,7,49,1,,,,,,,,,,,,,,,,,,,,,,,,,,,,,,,,,,,,,,,,
,,,,,V3_090,20,Male,2025-01-30_13h33.21.274,jersey_experiment_5_v3,2023.2.2,Win32,85.47008547,,,,,,,,,,,,,,,,345.213,346.772,346.772,349.4012,return,0.8989,,97.52604167,,,,,,FBP-YG-18.png,0.43,1.2,9,0.75,0,8,8,8,1,,,,,,,,,,,,,,,,,,,,,,,,,,,,,,,,,,,,,,,,
,,,,,V3_090,20,Male,2025-01-30_13h33.21.274,jersey_experiment_5_v3,2023.2.2,Win32,85.47008547,,,,,,,,,,,,,,,,349.4014,350.9607,350.9607,353.4872,return,0.8327,,7.421875,,,,,,FBP-RB-91.png,0.37,1.2,57,0.75,0,9,9,56,1,,,,,,,,,,,,,,,,,,,,,,,,,,,,,,,,,,,,,,,,
,,,,,V3_090,20,Male,2025-01-30_13h33.21.274,jersey_experiment_5_v3,2023.2.2,Win32,85.47008547,,,,,,,,,,,,,,,,353.4874,355.0293,355.0293,357.5016,return,0.6735,,89.453125,,,,,,FBP-RB-81.png,0.43,1.2,54,0.75,0,10,10,53,1,,,,,,,,,,,,,,,,,,,,,,,,,,,,,,,,,,,,,,,,
,,,,,V3_090,20,Male,2025-01-30_13h33.21.274,jersey_experiment_5_v3,2023.2.2,Win32,85.47008547,,,,,,,,,,,,,,,,357.5018,359.0547,359.0547,361.4313,return,0.6826,,86.84895833,,,,,,FBP-PT-81.png,0.4,1.2,23,0.75,0,11,11,22,1,,,,,,,,,,,,,,,,,,,,,,,,,,,,,,,,,,,,,,,,
,,,,,V3_090,20,Male,2025-01-30_13h33.21.274,jersey_experiment_5_v3,2023.2.2,Win32,85.47008547,,,,,,,,,,,,,,,,361.4314,362.9841,362.9841,365.5488,return,0.744,,87.109375,,,,,,FBP-RB-81.png,0.4,1.2,53,0.75,0,12,12,52,1,,,,,,,,,,,,,,,,,,,,,,,,,,,,,,,,,,,,,,,,
,,,,,V3_090,20,Male,2025-01-30_13h33.21.274,jersey_experiment_5_v3,2023.2.2,Win32,85.47008547,,,,,,,,,,,,,,,,365.549,367.0959,367.096,369.4407,return,0.668,,76.953125,,,,,,FBP-PT-91.png,0.37,1.2,27,0.75,0,13,13,26,1,,,,,,,,,,,,,,,,,,,,,,,,,,,,,,,,,,,,,,,,
,,,,,V3_090,20,Male,2025-01-30_13h33.21.274,jersey_experiment_5_v3,2023.2.2,Win32,85.47008547,,,,,,,,,,,,,,,,369.4408,370.9846,370.9846,373.6257,return,0.6341,,75.13020833,,,,,,FBP-PT-71.png,0.4,1.2,18,0.75,0,14,14,17,1,,,,,,,,,,,,,,,,,,,,,,,,,,,,,,,,,,,,,,,,
,,,,,V3_090,20,Male,2025-01-30_13h33.21.274,jersey_experiment_5_v3,2023.2.2,Win32,85.47008547,,,,,,,,,,,,,,,,373.6259,375.1818,375.1818,377.7081,return,0.7402,,95.83333333,,,,,,FBP-RB-81.png,0.45,1.2,55,0.75,0,15,15,54,1,,,,,,,,,,,,,,,,,,,,,,,,,,,,,,,,,,,,,,,,
,,,,,V3_090,20,Male,2025-01-30_13h33.21.274,jersey_experiment_5_v3,2023.2.2,Win32,85.47008547,,,,,,,,,,,,,,,,377.7083,379.2673,379.2673,382.2087,return,0.7532,,27.60416667,,,,,,FBP-RB-71.png,0.37,1.2,47,0.75,0,16,16,46,1,,,,,,,,,,,,,,,,,,,,,,,,,,,,,,,,,,,,,,,,
,,,,,V3_090,20,Male,2025-01-30_13h33.21.274,jersey_experiment_5_v3,2023.2.2,Win32,85.47008547,,,,,,,,,,,,,,,,382.2088,383.7617,383.7617,385.9908,return,0.7692,,24.47916667,,,,,,FBP-PT-71.png,0.35,1.2,16,0.75,0,17,17,15,1,,,,,,,,,,,,,,,,,,,,,,,,,,,,,,,,,,,,,,,,
,,,,,V3_090,20,Male,2025-01-30_13h33.21.274,jersey_experiment_5_v3,2023.2.2,Win32,85.47008547,,,,,,,,,,,,,,,,385.991,387.5497,387.5497,389.6295,return,0.7624,,12.23958333,,,,,,FBP-YG-19.png,0.37,1.2,12,0.75,0,18,18,11,1,,,,,,,,,,,,,,,,,,,,,,,,,,,,,,,,,,,,,,,,
,,,,,V3_090,20,Male,2025-01-30_13h33.21.274,jersey_experiment_5_v3,2023.2.2,Win32,85.47008547,,,,,,,,,,,,,,,,389.6296,391.1719,391.1719,393.9972,return,0.6975,,11.84895833,,,,,,FBP-YG-17.png,0.37,1.2,2,0.75,0,19,19,1,1,,,,,,,,,,,,,,,,,,,,,,,,,,,,,,,,,,,,,,,,
,,,,,V3_090,20,Male,2025-01-30_13h33.21.274,jersey_experiment_5_v3,2023.2.2,Win32,85.47008547,,,,,,,,,,,,,,,,393.9974,395.2911,395.2911,398.0062,return,1.0356,,88.671875,,,,,,FBP-OG-71.png,0.43,1.2,34,0.5,0,20,20,33,1,,,,,,,,,,,,,,,,,,,,,,,,,,,,,,,,,,,,,,,,
,,,,,V3_090,20,Male,2025-01-30_13h33.21.274,jersey_experiment_5_v3,2023.2.2,Win32,85.47008547,,,,,,,,,,,,,,,,398.0062,399.5502,399.5503,401.9913,return,0.854,,89.71354167,,,,,,FBP-YG-17.png,0.43,1.2,4,0.75,0,21,21,3,1,,,,,,,,,,,,,,,,,,,,,,,,,,,,,,,,,,,,,,,,
,,,,,V3_090,20,Male,2025-01-30_13h33.21.274,jersey_experiment_5_v3,2023.2.2,Win32,85.47008547,,,,,,,,,,,,,,,,401.9916,403.2917,403.2917,406.6422,return,1.0125,,1.5625,,,,,,FBP-OG-81.png,0.35,1.2,36,0.5,0,22,22,35,1,,,,,,,,,,,,,,,,,,,,,,,,,,,,,,,,,,,,,,,,
,,,,,V3_090,20,Male,2025-01-30_13h33.21.274,jersey_experiment_5_v3,2023.2.2,Win32,85.47008547,,,,,,,,,,,,,,,,406.6423,407.9358,407.9358,411.5276,return,0.768,,92.96875,,,,,,FBP-OG-71.png,0.45,1.2,35,0.5,0,23,23,34,1,,,,,,,,,,,,,,,,,,,,,,,,,,,,,,,,,,,,,,,,
,,,,,V3_090,20,Male,2025-01-30_13h33.21.274,jersey_experiment_5_v3,2023.2.2,Win32,85.47008547,,,,,,,,,,,,,,,,411.5277,413.074,413.0741,418.0216,return,1.5293,,0.520833333,,,,,,FBP-RB-71.png,0.35,1.2,46,0.75,0,24,24,45,1,,,,,,,,,,,,,,,,,,,,,,,,,,,,,,,,,,,,,,,,
,,,,,V3_090,20,Male,2025-01-30_13h33.21.274,jersey_experiment_5_v3,2023.2.2,Win32,85.47008547,,,,,,,,,,,,,,,,418.0216,419.5744,419.5744,421.6309,return,0.8945,,1.692708333,,,,,,FBP-PT-81.png,0.35,1.2,21,0.75,0,25,25,20,1,,,,,,,,,,,,,,,,,,,,,,,,,,,,,,,,,,,,,,,,
,,,,,V3_090,20,Male,2025-01-30_13h33.21.274,jersey_experiment_5_v3,2023.2.2,Win32,85.47008547,,,,,,,,,,,,,,,,421.631,422.9396,422.9396,426.4745,return,1.0753,,15.49479167,,,,,,FBP-OG-81.png,0.43,1.2,39,0.5,0,26,26,38,1,,,,,,,,,,,,,,,,,,,,,,,,,,,,,,,,,,,,,,,,
,,,,,V3_090,20,Male,2025-01-30_13h33.21.274,jersey_experiment_5_v3,2023.2.2,Win32,85.47008547,,,,,,,,,,,,,,,,426.4748,428.0219,428.0219,431.0106,return,0.5797,,42.1875,,,,,,FBP-RB-71.png,0.43,1.2,49,0.75,0,27,27,48,1,,,,,,,,,,,,,,,,,,,,,,,,,,,,,,,,,,,,,,,,
,,,,,V3_090,20,Male,2025-01-30_13h33.21.274,jersey_experiment_5_v3,2023.2.2,Win32,85.47008547,,,,,,,,,,,,,,,,431.0109,432.5572,432.5573,436.1725,return,1.0594,,41.92708333,,,,,,FBP-YG-17.png,0.4,1.2,3,0.75,0,28,28,2,1,,,,,,,,,,,,,,,,,,,,,,,,,,,,,,,,,,,,,,,,
,,,,,V3_090,20,Male,2025-01-30_13h33.21.274,jersey_experiment_5_v3,2023.2.2,Win32,85.47008547,,,,,,,,,,,,,,,,436.1726,437.4794,437.4794,439.8195,return,0.5885,,33.46354167,,,,,,FBP-OG-71.png,0.37,1.2,32,0.5,0,29,29,31,1,,,,,,,,,,,,,,,,,,,,,,,,,,,,,,,,,,,,,,,,
,,,,,V3_090,20,Male,2025-01-30_13h33.21.274,jersey_experiment_5_v3,2023.2.2,Win32,85.47008547,,,,,,,,,,,,,,,,439.8196,441.3622,441.3622,443.7963,return,0.7623,,26.04166667,,,,,,FBP-RB-81.png,0.35,1.2,51,0.75,0,30,30,50,1,,,,,,,,,,,,,,,,,,,,,,,,,,,,,,,,,,,,,,,,
,,,,,V3_090,20,Male,2025-01-30_13h33.21.274,jersey_experiment_5_v3,2023.2.2,Win32,85.47008547,,,,,,,,,,,,,,,,443.7964,445.3403,445.3403,447.7404,return,0.9326,,25.52083333,,,,,,FBP-YG-18.png,0.37,1.2,7,0.75,0,31,31,6,1,,,,,,,,,,,,,,,,,,,,,,,,,,,,,,,,,,,,,,,,
,,,,,V3_090,20,Male,2025-01-30_13h33.21.274,jersey_experiment_5_v3,2023.2.2,Win32,85.47008547,,,,,,,,,,,,,,,,447.7405,449.2934,449.2934,451.9109,return,0.5221,,31.51041667,,,,,,FBP-RB-81.png,0.37,1.2,52,0.75,0,32,32,51,1,,,,,,,,,,,,,,,,,,,,,,,,,,,,,,,,,,,,,,,,
,,,,,V3_090,20,Male,2025-01-30_13h33.21.274,jersey_experiment_5_v3,2023.2.2,Win32,85.47008547,,,,,,,,,,,,,,,,451.9111,453.4582,453.4582,456.2672,return,0.8944,,88.02083333,,,,,,FBP-YG-19.png,0.45,1.2,15,0.75,0,33,33,14,1,,,,,,,,,,,,,,,,,,,,,,,,,,,,,,,,,,,,,,,,
,,,,,V3_090,20,Male,2025-01-30_13h33.21.274,jersey_experiment_5_v3,2023.2.2,Win32,85.47008547,,,,,,,,,,,,,,,,456.2674,457.5761,457.5761,459.8097,return,0.6097,,96.484375,,,,,,FBP-OG-81.png,0.45,1.2,40,0.5,0,34,34,39,1,,,,,,,,,,,,,,,,,,,,,,,,,,,,,,,,,,,,,,,,
,,,,,V3_090,20,Male,2025-01-30_13h33.21.274,jersey_experiment_5_v3,2023.2.2,Win32,85.47008547,,,,,,,,,,,,,,,,459.8099,461.3583,461.3583,463.5616,return,1.0677,,92.578125,,,,,,FBP-RB-71.png,0.4,1.2,48,0.75,0,35,35,47,1,,,,,,,,,,,,,,,,,,,,,,,,,,,,,,,,,,,,,,,,
,,,,,V3_090,20,Male,2025-01-30_13h33.21.274,jersey_experiment_5_v3,2023.2.2,Win32,85.47008547,,,,,,,,,,,,,,,,463.5617,465.1055,465.1055,467.6707,return,0.9797,,99.47916667,,,,,,FBP-PT-81.png,0.45,1.2,25,0.75,0,36,36,24,1,,,,,,,,,,,,,,,,,,,,,,,,,,,,,,,,,,,,,,,,
,,,,,V3_090,20,Male,2025-01-30_13h33.21.274,jersey_experiment_5_v3,2023.2.2,Win32,85.47008547,,,,,,,,,,,,,,,,467.6708,469.2238,469.2238,471.562,return,0.7619,,99.47916667,,,,,,FBP-PT-91.png,0.43,1.2,29,0.75,0,37,37,28,1,,,,,,,,,,,,,,,,,,,,,,,,,,,,,,,,,,,,,,,,
,,,,,V3_090,20,Male,2025-01-30_13h33.21.274,jersey_experiment_5_v3,2023.2.2,Win32,85.47008547,,,,,,,,,,,,,,,,471.5622,473.1058,473.1059,475.975,return,0.7657,,14.32291667,,,,,,FBP-YG-19.png,0.35,1.2,11,0.75,0,38,38,10,1,,,,,,,,,,,,,,,,,,,,,,,,,,,,,,,,,,,,,,,,
,,,,,V3_090,20,Male,2025-01-30_13h33.21.274,jersey_experiment_5_v3,2023.2.2,Win32,85.47008547,,,,,,,,,,,,,,,,475.9752,477.5237,477.5237,483.7175,return,4.1555,,59.11458333,,,,,,FBP-PT-81.png,0.37,1.2,22,0.75,0,39,39,21,1,,,,,,,,,,,,,,,,,,,,,,,,,,,,,,,,,,,,,,,,
,,,,,V3_090,20,Male,2025-01-30_13h33.21.274,jersey_experiment_5_v3,2023.2.2,Win32,85.47008547,,,,,,,,,,,,,,,,483.7177,485.2711,485.2711,489.4535,return,2.6462,,39.19270833,,,,,,FBP-PT-91.png,0.35,1.2,26,0.75,0,40,40,25,1,,,,,,,,,,,,,,,,,,,,,,,,,,,,,,,,,,,,,,,,
,,,,,V3_090,20,Male,2025-01-30_13h33.21.274,jersey_experiment_5_v3,2023.2.2,Win32,85.47008547,,,,,,,,,,,,,,,,489.4537,490.7475,490.7476,492.4805,return,0.6208,,39.453125,,,,,,FBP-OG-91.png,0.35,1.2,41,0.5,0,41,41,40,1,,,,,,,,,,,,,,,,,,,,,,,,,,,,,,,,,,,,,,,,
,,,,,V3_090,20,Male,2025-01-30_13h33.21.274,jersey_experiment_5_v3,2023.2.2,Win32,85.47008547,,,,,,,,,,,,,,,,492.4807,494.0244,494.0244,498.6837,return,1.0271,,44.79166667,,,,,,FBP-YG-18.png,0.4,1.2,8,0.75,0,42,42,7,1,,,,,,,,,,,,,,,,,,,,,,,,,,,,,,,,,,,,,,,,
,,,,,V3_090,20,Male,2025-01-30_13h33.21.274,jersey_experiment_5_v3,2023.2.2,Win32,85.47008547,,,,,,,,,,,,,,,,498.6839,500.2358,500.2358,502.834,return,1.5061,,81.11979167,,,,,,FBP-PT-81.png,0.43,1.2,24,0.75,0,43,43,23,1,,,,,,,,,,,,,,,,,,,,,,,,,,,,,,,,,,,,,,,,
,,,,,V3_090,20,Male,2025-01-30_13h33.21.274,jersey_experiment_5_v3,2023.2.2,Win32,85.47008547,,,,,,,,,,,,,,,,502.8341,504.378,504.378,506.4573,return,0.7616,,4.817708333,,,,,,FBP-YG-17.png,0.35,1.2,1,0.75,0,44,44,0,1,,,,,,,,,,,,,,,,,,,,,,,,,,,,,,,,,,,,,,,,
,,,,,V3_090,20,Male,2025-01-30_13h33.21.274,jersey_experiment_5_v3,2023.2.2,Win32,85.47008547,,,,,,,,,,,,,,,,506.4574,508.0105,508.0106,510.0958,return,0.9799,,92.96875,,,,,,FBP-PT-91.png,0.45,1.2,30,0.75,0,45,45,29,1,,,,,,,,,,,,,,,,,,,,,,,,,,,,,,,,,,,,,,,,
,,,,,V3_090,20,Male,2025-01-30_13h33.21.274,jersey_experiment_5_v3,2023.2.2,Win32,85.47008547,,,,,,,,,,,,,,,,510.096,511.6425,511.6426,515.9015,return,1.1067,,37.76041667,,,,,,FBP-PT-71.png,0.37,1.2,17,0.75,0,46,46,16,1,,,,,,,,,,,,,,,,,,,,,,,,,,,,,,,,,,,,,,,,
,,,,,V3_090,20,Male,2025-01-30_13h33.21.274,jersey_experiment_5_v3,2023.2.2,Win32,85.47008547,,,,,,,,,,,,,,,,515.9018,517.4457,517.4457,519.5399,return,0.6117,,49.609375,,,,,,FBP-YG-19.png,0.4,1.2,13,0.75,0,47,47,12,1,,,,,,,,,,,,,,,,,,,,,,,,,,,,,,,,,,,,,,,,
,,,,,V3_090,20,Male,2025-01-30_13h33.21.274,jersey_experiment_5_v3,2023.2.2,Win32,85.47008547,,,,,,,,,,,,,,,,519.5401,521.0934,521.0934,524.2848,return,1.7413,,79.55729167,,,,,,FBP-PT-71.png,0.45,1.2,20,0.75,0,48,48,19,1,,,,,,,,,,,,,,,,,,,,,,,,,,,,,,,,,,,,,,,,
,,,,,V3_090,20,Male,2025-01-30_13h33.21.274,jersey_experiment_5_v3,2023.2.2,Win32,85.47008547,,,,,,,,,,,,,,,,524.2849,525.8356,525.8357,528.0079,return,0.8416,,17.96875,,,,,,FBP-YG-18.png,0.35,1.2,6,0.75,0,49,49,5,1,,,,,,,,,,,,,,,,,,,,,,,,,,,,,,,,,,,,,,,,
,,,,,V3_090,20,Male,2025-01-30_13h33.21.274,jersey_experiment_5_v3,2023.2.2,Win32,85.47008547,,,,,,,,,,,,,,,,528.0081,529.5642,529.5643,532.3321,return,0.6269,,90.234375,,,,,,FBP-YG-17.png,0.45,1.2,5,0.75,0,50,50,4,1,,,,,,,,,,,,,,,,,,,,,,,,,,,,,,,,,,,,,,,,
,,,,,V3_090,20,Male,2025-01-30_13h33.21.274,jersey_experiment_5_v3,2023.2.2,Win32,85.47008547,,,,,,,,,,,,,,,,532.3323,533.8849,533.8849,535.4704,return,0.8562,,94.66145833,,,,,,FBP-YG-18.png,0.45,1.2,10,0.75,0,51,51,9,1,,,,,,,,,,,,,,,,,,,,,,,,,,,,,,,,,,,,,,,,
,,,,,V3_090,20,Male,2025-01-30_13h33.21.274,jersey_experiment_5_v3,2023.2.2,Win32,85.47008547,,,,,,,,,,,,,,,,535.4705,536.7646,536.7646,541.4938,return,2.3147,,63.15104167,,,,,,FBP-OG-81.png,0.37,1.2,37,0.5,0,52,52,36,1,,,,,,,,,,,,,,,,,,,,,,,,,,,,,,,,,,,,,,,,
,,,,,V3_090,20,Male,2025-01-30_13h33.21.274,jersey_experiment_5_v3,2023.2.2,Win32,85.47008547,,,,,,,,,,,,,,,,541.4939,543.0471,543.0471,545.5967,return,1.0694,,1.302083333,,,,,,FBP-RB-91.png,0.35,1.2,56,0.75,0,53,53,55,1,,,,,,,,,,,,,,,,,,,,,,,,,,,,,,,,,,,,,,,,
,,,,,V3_090,20,Male,2025-01-30_13h33.21.274,jersey_experiment_5_v3,2023.2.2,Win32,85.47008547,,,,,,,,,,,,,,,,545.5969,546.8909,546.8909,549.5652,return,0.8242,,14.97395833,,,,,,FBP-OG-71.png,0.35,1.2,31,0.5,0,54,54,30,1,,,,,,,,,,,,,,,,,,,,,,,,,,,,,,,,,,,,,,,,
,,,,,V3_090,20,Male,2025-01-30_13h33.21.274,jersey_experiment_5_v3,2023.2.2,Win32,85.47008547,,,,,,,,,,,,,,,,549.5654,550.8736,550.8736,554.9499,return,0.6169,,59.24479167,,,,,,FBP-OG-71.png,0.4,1.2,33,0.5,0,55,55,32,1,,,,,,,,,,,,,,,,,,,,,,,,,,,,,,,,,,,,,,,,
,,,,,V3_090,20,Male,2025-01-30_13h33.21.274,jersey_experiment_5_v3,2023.2.2,Win32,85.47008547,,,,,,,,,,,,,,,,554.9501,556.4976,556.4976,558.3619,return,0.6277,,86.328125,,,,,,FBP-RB-91.png,0.45,1.2,60,0.75,0,56,56,59,1,,,,,,,,,,,,,,,,,,,,,,,,,,,,,,,,,,,,,,,,
,,,,,V3_090,20,Male,2025-01-30_13h33.21.274,jersey_experiment_5_v3,2023.2.2,Win32,85.47008547,,,,,,,,,,,,,,,,558.3622,559.656,559.656,563.8951,return,0.8006,,78.90625,,,,,,FBP-OG-91.png,0.4,1.2,43,0.5,0,57,57,42,1,,,,,,,,,,,,,,,,,,,,,,,,,,,,,,,,,,,,,,,,
,,,,,V3_090,20,Male,2025-01-30_13h33.21.274,jersey_experiment_5_v3,2023.2.2,Win32,85.47008547,,,,,,,,,,,,,,,,563.8953,565.1892,565.1892,567.0863,return,0.5329,,67.05729167,,,,,,FBP-OG-91.png,0.37,1.2,42,0.5,0,58,58,41,1,,,,,,,,,,,,,,,,,,,,,,,,,,,,,,,,,,,,,,,,
,,,,,V3_090,20,Male,2025-01-30_13h33.21.274,jersey_experiment_5_v3,2023.2.2,Win32,85.47008547,,,,,,,,,,,,,,,,567.0864,568.3889,568.3889,570.1448,return,0.5645,,80.33854167,,,,,,FBP-OG-91.png,0.43,1.2,44,0.5,0,59,59,43,1,,,,,,,,,,,,,,,,,,,,,,,,,,,,,,,,,,,,,,,,
,,,,,V3_090,20,Male,2025-01-30_13h33.21.274,jersey_experiment_5_v3,2023.2.2,Win32,85.47008547,,,,,,,,,,,,,,,,,,,,,,,,,,,,,,,,,,,,,,,570.1451,690.1436,,,,,,,,,,,,,,,,,,,,,,,,,,,,,,,,,,,,,,
,,,,,V3_090,20,Male,2025-01-30_13h33.21.274,jersey_experiment_5_v3,2023.2.2,Win32,85.47008547,,,,,,,,,,,,,,,,,,,,,,,,,,,,,,,,,,,,,,,,,690.1437,719.3506,return,29.1922,,,,,,,,,,,,,,,,,,,,,,,,,,,,,,,,,,
,,,,,V3_090,20,Male,2025-01-30_13h33.21.274,jersey_experiment_5_v3,2023.2.2,Win32,85.47008547,,,,,,,,,,,,,,,,719.3517,720.6448,720.6448,724.1832,return,1.2798,,67.96875,,,,,,FBP-YG-91.png,0.4,1.2,13,0.5,,,,,,,,,,,,,0,0,0,12,1,,,,,,,,,,,,,,,,,,,,,,,,,,,,
,,,,,V3_090,20,Male,2025-01-30_13h33.21.274,jersey_experiment_5_v3,2023.2.2,Win32,85.47008547,,,,,,,,,,,,,,,,724.1835,725.4918,725.4918,727.2389,return,0.8191,,72.00520833,,,,,,FBP-RB-19.png,0.4,1.2,58,0.5,,,,,,,,,,,,,0,1,1,57,1,,,,,,,,,,,,,,,,,,,,,,,,,,,,
,,,,,V3_090,20,Male,2025-01-30_13h33.21.274,jersey_experiment_5_v3,2023.2.2,Win32,85.47008547,,,,,,,,,,,,,,,,727.2391,728.536,728.536,730.1983,return,0.8238,,86.06770833,,,,,,FBP-PT-17.png,0.43,1.2,19,0.5,,,,,,,,,,,,,0,2,2,18,1,,,,,,,,,,,,,,,,,,,,,,,,,,,,
,,,,,V3_090,20,Male,2025-01-30_13h33.21.274,jersey_experiment_5_v3,2023.2.2,Win32,85.47008547,,,,,,,,,,,,,,,,730.1984,731.4922,731.4922,733.0219,return,0.4939,,38.41145833,,,,,,FBP-RB-17.png,0.35,1.2,46,0.5,,,,,,,,,,,,,0,3,3,45,1,,,,,,,,,,,,,,,,,,,,,,,,,,,,
,,,,,V3_090,20,Male,2025-01-30_13h33.21.274,jersey_experiment_5_v3,2023.2.2,Win32,85.47008547,,,,,,,,,,,,,,,,733.022,734.5748,734.5748,736.3015,return,0.6463,,73.828125,,,,,,FBP-OG-19.png,0.43,1.2,44,0.75,,,,,,,,,,,,,0,4,4,43,1,,,,,,,,,,,,,,,,,,,,,,,,,,,,
,,,,,V3_090,20,Male,2025-01-30_13h33.21.274,jersey_experiment_5_v3,2023.2.2,Win32,85.47008547,,,,,,,,,,,,,,,,736.3017,737.5955,737.5955,740.1218,return,0.9781,,36.328125,,,,,,FBP-YG-81.png,0.35,1.2,6,0.5,,,,,,,,,,,,,0,5,5,5,1,,,,,,,,,,,,,,,,,,,,,,,,,,,,
,,,,,V3_090,20,Male,2025-01-30_13h33.21.274,jersey_experiment_5_v3,2023.2.2,Win32,85.47008547,,,,,,,,,,,,,,,,740.1221,741.4219,741.4219,744.2311,return,0.6205,,73.30729167,,,,,,FBP-RB-18.png,0.43,1.2,54,0.5,,,,,,,,,,,,,0,6,6,53,1,,,,,,,,,,,,,,,,,,,,,,,,,,,,
,,,,,V3_090,20,Male,2025-01-30_13h33.21.274,jersey_experiment_5_v3,2023.2.2,Win32,85.47008547,,,,,,,,,,,,,,,,744.2312,745.5398,745.5398,747.1925,return,0.4647,,24.73958333,,,,,,FBP-YG-91.png,0.35,1.2,11,0.5,,,,,,,,,,,,,0,7,7,10,1,,,,,,,,,,,,,,,,,,,,,,,,,,,,
,,,,,V3_090,20,Male,2025-01-30_13h33.21.274,jersey_experiment_5_v3,2023.2.2,Win32,85.47008547,,,,,,,,,,,,,,,,747.1927,748.4867,748.4868,750.9755,return,0.6502,,85.02604167,,,,,,FBP-RB-17.png,0.45,1.2,50,0.5,,,,,,,,,,,,,0,8,8,49,1,,,,,,,,,,,,,,,,,,,,,,,,,,,,
,,,,,V3_090,20,Male,2025-01-30_13h33.21.274,jersey_experiment_5_v3,2023.2.2,Win32,85.47008547,,,,,,,,,,,,,,,,750.9757,752.2784,752.2784,754.2986,return,0.7555,,95.703125,,,,,,FBP-RB-18.png,0.45,1.2,55,0.5,,,,,,,,,,,,,0,9,9,54,1,,,,,,,,,,,,,,,,,,,,,,,,,,,,
,,,,,V3_090,20,Male,2025-01-30_13h33.21.274,jersey_experiment_5_v3,2023.2.2,Win32,85.47008547,,,,,,,,,,,,,,,,754.2989,755.846,755.846,757.2902,return,0.565,,87.23958333,,,,,,FBP-OG-17.png,0.4,1.2,33,0.75,,,,,,,,,,,,,0,10,10,32,1,,,,,,,,,,,,,,,,,,,,,,,,,,,,
,,,,,V3_090,20,Male,2025-01-30_13h33.21.274,jersey_experiment_5_v3,2023.2.2,Win32,85.47008547,,,,,,,,,,,,,,,,757.2905,758.599,758.599,760.6231,return,0.8153,,99.34895833,,,,,,FBP-PT-18.png,0.45,1.2,25,0.5,,,,,,,,,,,,,0,11,11,24,1,,,,,,,,,,,,,,,,,,,,,,,,,,,,
,,,,,V3_090,20,Male,2025-01-30_13h33.21.274,jersey_experiment_5_v3,2023.2.2,Win32,85.47008547,,,,,,,,,,,,,,,,760.6232,762.1758,762.1758,763.4682,return,0.871,,99.21875,,,,,,FBP-OG-17.png,0.45,1.2,35,0.75,,,,,,,,,,,,,0,12,12,34,1,,,,,,,,,,,,,,,,,,,,,,,,,,,,
,,,,,V3_090,20,Male,2025-01-30_13h33.21.274,jersey_experiment_5_v3,2023.2.2,Win32,85.47008547,,,,,,,,,,,,,,,,763.4684,764.7641,764.7641,766.1053,return,0.6032,,88.93229167,,,,,,FBP-PT-17.png,0.4,1.2,18,0.5,,,,,,,,,,,,,0,13,13,17,1,,,,,,,,,,,,,,,,,,,,,,,,,,,,
,,,,,V3_090,20,Male,2025-01-30_13h33.21.274,jersey_experiment_5_v3,2023.2.2,Win32,85.47008547,,,,,,,,,,,,,,,,766.1055,767.3994,767.3994,768.9524,return,0.5178,,82.55208333,,,,,,FBP-YG-91.png,0.43,1.2,14,0.5,,,,,,,,,,,,,0,14,14,13,1,,,,,,,,,,,,,,,,,,,,,,,,,,,,
,,,,,V3_090,20,Male,2025-01-30_13h33.21.274,jersey_experiment_5_v3,2023.2.2,Win32,85.47008547,,,,,,,,,,,,,,,,768.9524,770.2555,770.2556,773.856,return,1.1622,,57.94270833,,,,,,FBP-YG-81.png,0.37,1.2,7,0.5,,,,,,,,,,,,,0,15,15,6,1,,,,,,,,,,,,,,,,,,,,,,,,,,,,
,,,,,V3_090,20,Male,2025-01-30_13h33.21.274,jersey_experiment_5_v3,2023.2.2,Win32,85.47008547,,,,,,,,,,,,,,,,773.856,775.1495,775.1495,776.5992,return,0.4231,,63.28125,,,,,,FBP-PT-18.png,0.37,1.2,22,0.5,,,,,,,,,,,,,0,16,16,21,1,,,,,,,,,,,,,,,,,,,,,,,,,,,,
,,,,,V3_090,20,Male,2025-01-30_13h33.21.274,jersey_experiment_5_v3,2023.2.2,Win32,85.47008547,,,,,,,,,,,,,,,,776.5993,777.894,777.894,779.55,return,0.471,,49.21875,,,,,,FBP-PT-18.png,0.35,1.2,21,0.5,,,,,,,,,,,,,0,17,17,20,1,,,,,,,,,,,,,,,,,,,,,,,,,,,,
,,,,,V3_090,20,Male,2025-01-30_13h33.21.274,jersey_experiment_5_v3,2023.2.2,Win32,85.47008547,,,,,,,,,,,,,,,,779.5501,781.0939,781.094,782.7116,return,0.557,,86.84895833,,,,,,FBP-OG-17.png,0.43,1.2,34,0.75,,,,,,,,,,,,,0,18,18,33,1,,,,,,,,,,,,,,,,,,,,,,,,,,,,
,,,,,V3_090,20,Male,2025-01-30_13h33.21.274,jersey_experiment_5_v3,2023.2.2,Win32,85.47008547,,,,,,,,,,,,,,,,782.7117,784.2559,784.2559,785.4565,return,0.4948,,78.90625,,,,,,FBP-OG-19.png,0.4,1.2,43,0.75,,,,,,,,,,,,,0,19,19,42,1,,,,,,,,,,,,,,,,,,,,,,,,,,,,
,,,,,V3_090,20,Male,2025-01-30_13h33.21.274,jersey_experiment_5_v3,2023.2.2,Win32,85.47008547,,,,,,,,,,,,,,,,785.4566,787.0001,787.0002,788.1823,return,0.4756,,80.59895833,,,,,,FBP-OG-18.png,0.4,1.2,38,0.75,,,,,,,,,,,,,0,20,20,37,1,,,,,,,,,,,,,,,,,,,,,,,,,,,,
,,,,,V3_090,20,Male,2025-01-30_13h33.21.274,jersey_experiment_5_v3,2023.2.2,Win32,85.47008547,,,,,,,,,,,,,,,,788.1825,789.4795,789.4796,792.3038,return,1.164,,30.98958333,,,,,,FBP-RB-18.png,0.37,1.2,52,0.5,,,,,,,,,,,,,0,21,21,51,1,,,,,,,,,,,,,,,,,,,,,,,,,,,,
,,,,,V3_090,20,Male,2025-01-30_13h33.21.274,jersey_experiment_5_v3,2023.2.2,Win32,85.47008547,,,,,,,,,,,,,,,,792.3039,793.6061,793.6062,794.9862,return,0.503,,29.42708333,,,,,,FBP-YG-71.png,0.37,1.2,2,0.5,,,,,,,,,,,,,0,22,22,1,1,,,,,,,,,,,,,,,,,,,,,,,,,,,,
,,,,,V3_090,20,Male,2025-01-30_13h33.21.274,jersey_experiment_5_v3,2023.2.2,Win32,85.47008547,,,,,,,,,,,,,,,,794.9863,796.2947,796.2947,798.4123,return,0.556,,49.47916667,,,,,,FBP-RB-18.png,0.4,1.2,53,0.5,,,,,,,,,,,,,0,23,23,52,1,,,,,,,,,,,,,,,,,,,,,,,,,,,,
,,,,,V3_090,20,Male,2025-01-30_13h33.21.274,jersey_experiment_5_v3,2023.2.2,Win32,85.47008547,,,,,,,,,,,,,,,,798.4124,799.9656,799.9657,801.8182,return,0.6397,,75.13020833,,,,,,FBP-OG-18.png,0.45,1.2,40,0.75,,,,,,,,,,,,,0,24,24,39,1,,,,,,,,,,,,,,,,,,,,,,,,,,,,
,,,,,V3_090,20,Male,2025-01-30_13h33.21.274,jersey_experiment_5_v3,2023.2.2,Win32,85.47008547,,,,,,,,,,,,,,,,801.8184,803.1124,803.1124,806.1392,return,1.5617,,85.67708333,,,,,,FBP-YG-81.png,0.43,1.2,9,0.5,,,,,,,,,,,,,0,25,25,8,1,,,,,,,,,,,,,,,,,,,,,,,,,,,,
,,,,,V3_090,20,Male,2025-01-30_13h33.21.274,jersey_experiment_5_v3,2023.2.2,Win32,85.47008547,,,,,,,,,,,,,,,,806.1392,807.4465,807.4465,809.7864,return,0.5885,,76.30208333,,,,,,FBP-YG-71.png,0.4,1.2,3,0.5,,,,,,,,,,,,,0,26,26,2,1,,,,,,,,,,,,,,,,,,,,,,,,,,,,
,,,,,V3_090,20,Male,2025-01-30_13h33.21.274,jersey_experiment_5_v3,2023.2.2,Win32,85.47008547,,,,,,,,,,,,,,,,809.7865,811.3306,811.3306,812.9716,return,0.5441,,24.34895833,,,,,,FBP-OG-17.png,0.35,1.2,31,0.75,,,,,,,,,,,,,0,27,27,30,1,,,,,,,,,,,,,,,,,,,,,,,,,,,,
,,,,,V3_090,20,Male,2025-01-30_13h33.21.274,jersey_experiment_5_v3,2023.2.2,Win32,85.47008547,,,,,,,,,,,,,,,,812.9718,814.2657,814.2658,816.7427,return,1.4739,,10.28645833,,,,,,FBP-RB-19.png,0.35,1.2,56,0.5,,,,,,,,,,,,,0,28,28,55,1,,,,,,,,,,,,,,,,,,,,,,,,,,,,
,,,,,V3_090,20,Male,2025-01-30_13h33.21.274,jersey_experiment_5_v3,2023.2.2,Win32,85.47008547,,,,,,,,,,,,,,,,816.7429,818.2956,818.2956,819.6812,return,0.5534,,16.40625,,,,,,FBP-OG-18.png,0.35,1.2,36,0.75,,,,,,,,,,,,,0,29,29,35,1,,,,,,,,,,,,,,,,,,,,,,,,,,,,
,,,,,V3_090,20,Male,2025-01-30_13h33.21.274,jersey_experiment_5_v3,2023.2.2,Win32,85.47008547,,,,,,,,,,,,,,,,819.6814,820.9867,820.9867,822.2809,return,0.4086,,10.67708333,,,,,,FBP-RB-19.png,0.37,1.2,57,0.5,,,,,,,,,,,,,0,30,30,56,1,,,,,,,,,,,,,,,,,,,,,,,,,,,,
,,,,,V3_090,20,Male,2025-01-30_13h33.21.274,jersey_experiment_5_v3,2023.2.2,Win32,85.47008547,,,,,,,,,,,,,,,,822.2811,823.5749,823.5749,825.4339,return,0.4236,,4.166666667,,,,,,FBP-RB-18.png,0.35,1.2,51,0.5,,,,,,,,,,,,,0,31,31,50,1,,,,,,,,,,,,,,,,,,,,,,,,,,,,
,,,,,V3_090,20,Male,2025-01-30_13h33.21.274,jersey_experiment_5_v3,2023.2.2,Win32,85.47008547,,,,,,,,,,,,,,,,825.4341,826.7427,826.7427,830.1786,return,0.8153,,90.10416667,,,,,,FBP-YG-71.png,0.45,1.2,5,0.5,,,,,,,,,,,,,0,32,32,4,1,,,,,,,,,,,,,,,,,,,,,,,,,,,,
,,,,,V3_090,20,Male,2025-01-30_13h33.21.274,jersey_experiment_5_v3,2023.2.2,Win32,85.47008547,,,,,,,,,,,,,,,,830.1787,831.4813,831.4813,833.6546,return,0.5019,,95.703125,,,,,,FBP-PT-18.png,0.4,1.2,23,0.5,,,,,,,,,,,,,0,33,33,22,1,,,,,,,,,,,,,,,,,,,,,,,,,,,,
,,,,,V3_090,20,Male,2025-01-30_13h33.21.274,jersey_experiment_5_v3,2023.2.2,Win32,85.47008547,,,,,,,,,,,,,,,,833.6548,834.9486,834.9487,836.7202,return,0.5566,,96.61458333,,,,,,FBP-PT-19.png,0.43,1.2,29,0.5,,,,,,,,,,,,,0,34,34,28,1,,,,,,,,,,,,,,,,,,,,,,,,,,,,
,,,,,V3_090,20,Male,2025-01-30_13h33.21.274,jersey_experiment_5_v3,2023.2.2,Win32,85.47008547,,,,,,,,,,,,,,,,836.7204,838.0226,838.0226,840.0549,return,0.8315,,96.35416667,,,,,,FBP-PT-18.png,0.43,1.2,24,0.5,,,,,,,,,,,,,0,35,35,23,1,,,,,,,,,,,,,,,,,,,,,,,,,,,,
,,,,,V3_090,20,Male,2025-01-30_13h33.21.274,jersey_experiment_5_v3,2023.2.2,Win32,85.47008547,,,,,,,,,,,,,,,,840.0552,841.355,841.355,843.9907,return,0.4622,,17.578125,,,,,,FBP-RB-17.png,0.37,1.2,47,0.5,,,,,,,,,,,,,0,36,36,46,1,,,,,,,,,,,,,,,,,,,,,,,,,,,,
,,,,,V3_090,20,Male,2025-01-30_13h33.21.274,jersey_experiment_5_v3,2023.2.2,Win32,85.47008547,,,,,,,,,,,,,,,,843.9909,845.2934,845.2934,860.5652,return,1.35,,4.817708333,,,,,,FBP-YG-71.png,0.35,1.2,1,0.5,,,,,,,,,,,,,0,37,37,0,1,,,,,,,,,,,,,,,,,,,,,,,,,,,,
,,,,,V3_090,20,Male,2025-01-30_13h33.21.274,jersey_experiment_5_v3,2023.2.2,Win32,85.47008547,,,,,,,,,,,,,,,,860.5654,861.8735,861.8736,864.2505,return,0.6594,,10.80729167,,,,,,FBP-PT-17.png,0.35,1.2,16,0.5,,,,,,,,,,,,,0,38,38,15,1,,,,,,,,,,,,,,,,,,,,,,,,,,,,
,,,,,V3_090,20,Male,2025-01-30_13h33.21.274,jersey_experiment_5_v3,2023.2.2,Win32,85.47008547,,,,,,,,,,,,,,,,864.2506,865.8033,865.8033,867.5297,return,0.5883,,17.70833333,,,,,,FBP-OG-19.png,0.37,1.2,42,0.75,,,,,,,,,,,,,0,39,39,41,1,,,,,,,,,,,,,,,,,,,,,,,,,,,,
,,,,,V3_090,20,Male,2025-01-30_13h33.21.274,jersey_experiment_5_v3,2023.2.2,Win32,85.47008547,,,,,,,,,,,,,,,,867.5298,868.8381,868.8381,870.8007,return,0.5267,,39.58333333,,,,,,FBP-RB-17.png,0.4,1.2,48,0.5,,,,,,,,,,,,,0,40,40,47,1,,,,,,,,,,,,,,,,,,,,,,,,,,,,
,,,,,V3_090,20,Male,2025-01-30_13h33.21.274,jersey_experiment_5_v3,2023.2.2,Win32,85.47008547,,,,,,,,,,,,,,,,870.8009,872.0947,872.0947,873.7566,return,0.5564,,48.95833333,,,,,,FBP-PT-19.png,0.37,1.2,27,0.5,,,,,,,,,,,,,0,41,41,26,1,,,,,,,,,,,,,,,,,,,,,,,,,,,,
,,,,,V3_090,20,Male,2025-01-30_13h33.21.274,jersey_experiment_5_v3,2023.2.2,Win32,85.47008547,,,,,,,,,,,,,,,,873.7567,875.3096,875.3096,876.7622,return,0.4836,,44.921875,,,,,,FBP-OG-18.png,0.37,1.2,37,0.75,,,,,,,,,,,,,0,42,42,36,1,,,,,,,,,,,,,,,,,,,,,,,,,,,,
,,,,,V3_090,20,Male,2025-01-30_13h33.21.274,jersey_experiment_5_v3,2023.2.2,Win32,85.47008547,,,,,,,,,,,,,,,,876.7624,878.0624,878.0624,880.2273,return,0.6269,,78.64583333,,,,,,FBP-YG-81.png,0.45,1.2,10,0.5,,,,,,,,,,,,,0,43,43,9,1,,,,,,,,,,,,,,,,,,,,,,,,,,,,
,,,,,V3_090,20,Male,2025-01-30_13h33.21.274,jersey_experiment_5_v3,2023.2.2,Win32,85.47008547,,,,,,,,,,,,,,,,880.2275,881.5213,881.5213,883.1922,return,0.5797,,86.06770833,,,,,,FBP-RB-17.png,0.43,1.2,49,0.5,,,,,,,,,,,,,0,44,44,48,1,,,,,,,,,,,,,,,,,,,,,,,,,,,,
,,,,,V3_090,20,Male,2025-01-30_13h33.21.274,jersey_experiment_5_v3,2023.2.2,Win32,85.47008547,,,,,,,,,,,,,,,,883.1923,884.4951,884.4951,886.51,return,0.603,,42.1875,,,,,,FBP-PT-19.png,0.35,1.2,26,0.5,,,,,,,,,,,,,0,45,45,25,1,,,,,,,,,,,,,,,,,,,,,,,,,,,,
,,,,,V3_090,20,Male,2025-01-30_13h33.21.274,jersey_experiment_5_v3,2023.2.2,Win32,85.47008547,,,,,,,,,,,,,,,,886.5101,887.8039,887.8039,889.8514,return,0.58,,85.02604167,,,,,,FBP-YG-71.png,0.43,1.2,4,0.5,,,,,,,,,,,,,0,46,46,3,1,,,,,,,,,,,,,,,,,,,,,,,,,,,,
,,,,,V3_090,20,Male,2025-01-30_13h33.21.274,jersey_experiment_5_v3,2023.2.2,Win32,85.47008547,,,,,,,,,,,,,,,,889.8516,891.1544,891.1544,892.9427,return,0.5974,,97.91666667,,,,,,FBP-YG-91.png,0.45,1.2,15,0.5,,,,,,,,,,,,,0,47,47,14,1,,,,,,,,,,,,,,,,,,,,,,,,,,,,
,,,,,V3_090,20,Male,2025-01-30_13h33.21.274,jersey_experiment_5_v3,2023.2.2,Win32,85.47008547,,,,,,,,,,,,,,,,892.9428,894.2357,894.2358,896.4489,return,0.5419,,71.74479167,,,,,,FBP-PT-17.png,0.37,1.2,17,0.5,,,,,,,,,,,,,0,48,48,16,1,,,,,,,,,,,,,,,,,,,,,,,,,,,,
,,,,,V3_090,20,Male,2025-01-30_13h33.21.274,jersey_experiment_5_v3,2023.2.2,Win32,85.47008547,,,,,,,,,,,,,,,,896.4489,897.9927,897.9927,899.5783,return,0.5504,,49.86979167,,,,,,FBP-OG-17.png,0.37,1.2,32,0.75,,,,,,,,,,,,,0,49,49,31,1,,,,,,,,,,,,,,,,,,,,,,,,,,,,
,,,,,V3_090,20,Male,2025-01-30_13h33.21.274,jersey_experiment_5_v3,2023.2.2,Win32,85.47008547,,,,,,,,,,,,,,,,899.5784,900.8724,900.8724,902.6338,return,0.6135,,63.15104167,,,,,,FBP-PT-19.png,0.4,1.2,28,0.5,,,,,,,,,,,,,0,50,50,27,1,,,,,,,,,,,,,,,,,,,,,,,,,,,,
,,,,,V3_090,20,Male,2025-01-30_13h33.21.274,jersey_experiment_5_v3,2023.2.2,Win32,85.47008547,,,,,,,,,,,,,,,,902.634,903.931,903.9311,905.7104,return,0.6502,,89.97395833,,,,,,FBP-PT-19.png,0.45,1.2,30,0.5,,,,,,,,,,,,,0,51,51,29,1,,,,,,,,,,,,,,,,,,,,,,,,,,,,
,,,,,V3_090,20,Male,2025-01-30_13h33.21.274,jersey_experiment_5_v3,2023.2.2,Win32,85.47008547,,,,,,,,,,,,,,,,905.7106,907.2634,907.2634,909.1787,return,0.739,,24.86979167,,,,,,FBP-OG-19.png,0.35,1.2,41,0.75,,,,,,,,,,,,,0,52,52,40,1,,,,,,,,,,,,,,,,,,,,,,,,,,,,
,,,,,V3_090,20,Male,2025-01-30_13h33.21.274,jersey_experiment_5_v3,2023.2.2,Win32,85.47008547,,,,,,,,,,,,,,,,909.1789,910.4725,910.4726,912.2138,return,0.5735,,88.15104167,,,,,,FBP-RB-19.png,0.45,1.2,60,0.5,,,,,,,,,,,,,0,53,53,59,1,,,,,,,,,,,,,,,,,,,,,,,,,,,,
,,,,,V3_090,20,Male,2025-01-30_13h33.21.274,jersey_experiment_5_v3,2023.2.2,Win32,85.47008547,,,,,,,,,,,,,,,,912.2138,913.5226,913.5226,915.4524,return,0.6592,,99.34895833,,,,,,FBP-PT-17.png,0.45,1.2,20,0.5,,,,,,,,,,,,,0,54,54,19,1,,,,,,,,,,,,,,,,,,,,,,,,,,,,
,,,,,V3_090,20,Male,2025-01-30_13h33.21.274,jersey_experiment_5_v3,2023.2.2,Win32,85.47008547,,,,,,,,,,,,,,,,915.4525,916.746,916.746,920.9671,return,1.5384,,75.390625,,,,,,FBP-YG-91.png,0.37,1.2,12,0.5,,,,,,,,,,,,,0,55,55,11,1,,,,,,,,,,,,,,,,,,,,,,,,,,,,
,,,,,V3_090,20,Male,2025-01-30_13h33.21.274,jersey_experiment_5_v3,2023.2.2,Win32,85.47008547,,,,,,,,,,,,,,,,920.9671,922.5202,922.5202,923.8343,return,0.4721,,81.25,,,,,,FBP-OG-19.png,0.45,1.2,45,0.75,,,,,,,,,,,,,0,56,56,44,1,,,,,,,,,,,,,,,,,,,,,,,,,,,,
,,,,,V3_090,20,Male,2025-01-30_13h33.21.274,jersey_experiment_5_v3,2023.2.2,Win32,85.47008547,,,,,,,,,,,,,,,,923.8346,925.1322,925.1322,926.6527,return,0.5094,,83.33333333,,,,,,FBP-RB-19.png,0.43,1.2,59,0.5,,,,,,,,,,,,,0,57,57,58,1,,,,,,,,,,,,,,,,,,,,,,,,,,,,
,,,,,V3_090,20,Male,2025-01-30_13h33.21.274,jersey_experiment_5_v3,2023.2.2,Win32,85.47008547,,,,,,,,,,,,,,,,926.6529,927.9465,927.9465,929.5463,return,0.5412,,66.015625,,,,,,FBP-YG-81.png,0.4,1.2,8,0.5,,,,,,,,,,,,,0,58,58,7,1,,,,,,,,,,,,,,,,,,,,,,,,,,,,
,,,,,V3_090,20,Male,2025-01-30_13h33.21.274,jersey_experiment_5_v3,2023.2.2,Win32,85.47008547,,,,,,,,,,,,,,,,929.5464,931.0998,931.0999,932.682,return,0.5811,,94.140625,,,,,,FBP-OG-18.png,0.43,1.2,39,0.75,,,,,,,,,,,,,0,59,59,38,1,,,,,,,,,,,,,,,,,,,,,,,,,,,,
,,,,,V3_090,20,Male,2025-01-30_13h33.21.274,jersey_experiment_5_v3,2023.2.2,Win32,85.47008547,,,,,,,,,,,,,,,,932.6832,933.979,933.9791,935.9561,return,0.4711,,74.609375,,,,,,FBP-YG-17.png,0.4,1.2,3,0.5,,,,,,,,,,,,,,,,,,0,0,0,2,1,,,,,,,,,,,,,,,,,,,,,,,
,,,,,V3_090,20,Male,2025-01-30_13h33.21.274,jersey_experiment_5_v3,2023.2.2,Win32,85.47008547,,,,,,,,,,,,,,,,935.9563,937.5001,937.5001,939.2736,return,0.5179,,92.578125,,,,,,FBP-OG-91.png,0.45,1.2,45,0.75,,,,,,,,,,,,,,,,,,0,1,1,44,1,,,,,,,,,,,,,,,,,,,,,,,
,,,,,V3_090,20,Male,2025-01-30_13h33.21.274,jersey_experiment_5_v3,2023.2.2,Win32,85.47008547,,,,,,,,,,,,,,,,939.2738,940.5679,940.5679,942.5999,return,0.58,,47.52604167,,,,,,FBP-PT-91.png,0.37,1.2,27,0.5,,,,,,,,,,,,,,,,,,0,2,2,26,1,,,,,,,,,,,,,,,,,,,,,,,
,,,,,V3_090,20,Male,2025-01-30_13h33.21.274,jersey_experiment_5_v3,2023.2.2,Win32,85.47008547,,,,,,,,,,,,,,,,942.6002,944.1442,944.1442,945.7123,return,0.721,,34.63541667,,,,,,FBP-OG-91.png,0.37,1.2,42,0.75,,,,,,,,,,,,,,,,,,0,3,3,41,1,,,,,,,,,,,,,,,,,,,,,,,
,,,,,V3_090,20,Male,2025-01-30_13h33.21.274,jersey_experiment_5_v3,2023.2.2,Win32,85.47008547,,,,,,,,,,,,,,,,945.7124,947.0064,947.0064,948.5595,return,0.5883,,24.609375,,,,,,FBP-PT-71.png,0.35,1.2,16,0.5,,,,,,,,,,,,,,,,,,0,4,4,15,1,,,,,,,,,,,,,,,,,,,,,,,
,,,,,V3_090,20,Male,2025-01-30_13h33.21.274,jersey_experiment_5_v3,2023.2.2,Win32,85.47008547,,,,,,,,,,,,,,,,948.5596,949.8534,949.8534,952.0039,return,0.5975,,36.328125,,,,,,FBP-YG-18.png,0.4,1.2,8,0.5,,,,,,,,,,,,,,,,,,0,5,5,7,1,,,,,,,,,,,,,,,,,,,,,,,
,,,,,V3_090,20,Male,2025-01-30_13h33.21.274,jersey_experiment_5_v3,2023.2.2,Win32,85.47008547,,,,,,,,,,,,,,,,952.004,953.2977,953.2977,955.1329,return,0.5414,,6.25,,,,,,FBP-RB-91.png,0.37,1.2,57,0.5,,,,,,,,,,,,,,,,,,0,6,6,56,1,,,,,,,,,,,,,,,,,,,,,,,
,,,,,V3_090,20,Male,2025-01-30_13h33.21.274,jersey_experiment_5_v3,2023.2.2,Win32,85.47008547,,,,,,,,,,,,,,,,955.1331,956.4417,956.4418,959.195,return,0.8618,,90.234375,,,,,,FBP-RB-91.png,0.43,1.2,59,0.5,,,,,,,,,,,,,,,,,,0,7,7,58,1,,,,,,,,,,,,,,,,,,,,,,,
,,,,,V3_090,20,Male,2025-01-30_13h33.21.274,jersey_experiment_5_v3,2023.2.2,Win32,85.47008547,,,,,,,,,,,,,,,,959.1951,960.4893,960.4893,962.1834,return,0.6592,,98.95833333,,,,,,FBP-PT-71.png,0.43,1.2,19,0.5,,,,,,,,,,,,,,,,,,0,8,8,18,1,,,,,,,,,,,,,,,,,,,,,,,
,,,,,V3_090,20,Male,2025-01-30_13h33.21.274,jersey_experiment_5_v3,2023.2.2,Win32,85.47008547,,,,,,,,,,,,,,,,962.1835,963.4775,963.4775,965.1773,return,0.5348,,91.14583333,,,,,,FBP-YG-17.png,0.43,1.2,4,0.5,,,,,,,,,,,,,,,,,,0,9,9,3,1,,,,,,,,,,,,,,,,,,,,,,,
,,,,,V3_090,20,Male,2025-01-30_13h33.21.274,jersey_experiment_5_v3,2023.2.2,Win32,85.47008547,,,,,,,,,,,,,,,,965.1775,966.4748,966.4748,968.1603,return,0.7211,,95.44270833,,,,,,FBP-RB-91.png,0.45,1.2,60,0.5,,,,,,,,,,,,,,,,,,0,10,10,59,1,,,,,,,,,,,,,,,,,,,,,,,
,,,,,V3_090,20,Male,2025-01-30_13h33.21.274,jersey_experiment_5_v3,2023.2.2,Win32,85.47008547,,,,,,,,,,,,,,,,968.1604,969.7068,969.7069,971.1948,return,0.5408,,91.015625,,,,,,FBP-OG-81.png,0.43,1.2,39,0.75,,,,,,,,,,,,,,,,,,0,11,11,38,1,,,,,,,,,,,,,,,,,,,,,,,
,,,,,V3_090,20,Male,2025-01-30_13h33.21.274,jersey_experiment_5_v3,2023.2.2,Win32,85.47008547,,,,,,,,,,,,,,,,971.1949,972.4878,972.4879,974.1841,return,0.7299,,87.109375,,,,,,FBP-YG-17.png,0.45,1.2,5,0.5,,,,,,,,,,,,,,,,,,0,12,12,4,1,,,,,,,,,,,,,,,,,,,,,,,
,,,,,V3_090,20,Male,2025-01-30_13h33.21.274,jersey_experiment_5_v3,2023.2.2,Win32,85.47008547,,,,,,,,,,,,,,,,974.1842,975.4779,975.4779,977.831,return,0.6119,,82.29166667,,,,,,FBP-PT-81.png,0.4,1.2,23,0.5,,,,,,,,,,,,,,,,,,0,13,13,22,1,,,,,,,,,,,,,,,,,,,,,,,
,,,,,V3_090,20,Male,2025-01-30_13h33.21.274,jersey_experiment_5_v3,2023.2.2,Win32,85.47008547,,,,,,,,,,,,,,,,977.8312,979.1252,979.1252,980.8434,return,0.5568,,61.97916667,,,,,,FBP-RB-71.png,0.37,1.2,47,0.5,,,,,,,,,,,,,,,,,,0,14,14,46,1,,,,,,,,,,,,,,,,,,,,,,,
,,,,,V3_090,20,Male,2025-01-30_13h33.21.274,jersey_experiment_5_v3,2023.2.2,Win32,85.47008547,,,,,,,,,,,,,,,,980.8436,982.3897,982.3897,984.9607,return,1.6724,,68.61979167,,,,,,FBP-OG-71.png,0.4,1.2,33,0.75,,,,,,,,,,,,,,,,,,0,15,15,32,1,,,,,,,,,,,,,,,,,,,,,,,
,,,,,V3_090,20,Male,2025-01-30_13h33.21.274,jersey_experiment_5_v3,2023.2.2,Win32,85.47008547,,,,,,,,,,,,,,,,984.9609,986.5075,986.5075,988.1371,return,0.7206,,75.26041667,,,,,,FBP-OG-91.png,0.4,1.2,43,0.75,,,,,,,,,,,,,,,,,,0,16,16,42,1,,,,,,,,,,,,,,,,,,,,,,,
,,,,,V3_090,20,Male,2025-01-30_13h33.21.274,jersey_experiment_5_v3,2023.2.2,Win32,85.47008547,,,,,,,,,,,,,,,,988.1372,989.4311,989.4312,991.143,return,0.5811,,75.26041667,,,,,,FBP-RB-71.png,0.43,1.2,49,0.5,,,,,,,,,,,,,,,,,,0,17,17,48,1,,,,,,,,,,,,,,,,,,,,,,,
,,,,,V3_090,20,Male,2025-01-30_13h33.21.274,jersey_experiment_5_v3,2023.2.2,Win32,85.47008547,,,,,,,,,,,,,,,,991.1432,992.4371,992.4372,994.0285,return,0.6119,,81.11979167,,,,,,FBP-RB-81.png,0.43,1.2,54,0.5,,,,,,,,,,,,,,,,,,0,18,18,53,1,,,,,,,,,,,,,,,,,,,,,,,
,,,,,V3_090,20,Male,2025-01-30_13h33.21.274,jersey_experiment_5_v3,2023.2.2,Win32,85.47008547,,,,,,,,,,,,,,,,994.0287,995.5818,995.5818,997.3143,return,0.5884,,24.08854167,,,,,,FBP-OG-81.png,0.35,1.2,36,0.75,,,,,,,,,,,,,,,,,,0,19,19,35,1,,,,,,,,,,,,,,,,,,,,,,,
,,,,,V3_090,20,Male,2025-01-30_13h33.21.274,jersey_experiment_5_v3,2023.2.2,Win32,85.47008547,,,,,,,,,,,,,,,,997.3144,998.6079,998.6079,1000.7965,return,0.5091,,11.19791667,,,,,,FBP-YG-18.png,0.37,1.2,7,0.5,,,,,,,,,,,,,,,,,,0,20,20,6,1,,,,,,,,,,,,,,,,,,,,,,,
,,,,,V3_090,20,Male,2025-01-30_13h33.21.274,jersey_experiment_5_v3,2023.2.2,Win32,85.47008547,,,,,,,,,,,,,,,,1000.7968,1002.0995,1002.0995,1004.3788,return,0.5894,,74.609375,,,,,,FBP-YG-18.png,0.43,1.2,9,0.5,,,,,,,,,,,,,,,,,,0,21,21,8,1,,,,,,,,,,,,,,,,,,,,,,,
,,,,,V3_090,20,Male,2025-01-30_13h33.21.274,jersey_experiment_5_v3,2023.2.2,Win32,85.47008547,,,,,,,,,,,,,,,,1004.379,1005.6759,1005.6759,1007.4494,return,0.5698,,13.02083333,,,,,,FBP-PT-91.png,0.35,1.2,26,0.5,,,,,,,,,,,,,,,,,,0,22,22,25,1,,,,,,,,,,,,,,,,,,,,,,,
,,,,,V3_090,20,Male,2025-01-30_13h33.21.274,jersey_experiment_5_v3,2023.2.2,Win32,85.47008547,,,,,,,,,,,,,,,,1007.4497,1008.9938,1008.9938,1010.1233,return,0.4324,,7.942708333,,,,,,FBP-OG-71.png,0.35,1.2,31,0.75,,,,,,,,,,,,,,,,,,0,23,23,30,1,,,,,,,,,,,,,,,,,,,,,,,
,,,,,V3_090,20,Male,2025-01-30_13h33.21.274,jersey_experiment_5_v3,2023.2.2,Win32,85.47008547,,,,,,,,,,,,,,,,1010.1235,1011.4322,1011.4323,1012.8676,return,0.5432,,6.901041667,,,,,,FBP-YG-17.png,0.35,1.2,1,0.5,,,,,,,,,,,,,,,,,,0,24,24,0,1,,,,,,,,,,,,,,,,,,,,,,,
,,,,,V3_090,20,Male,2025-01-30_13h33.21.274,jersey_experiment_5_v3,2023.2.2,Win32,85.47008547,,,,,,,,,,,,,,,,1012.8678,1014.4204,1014.4204,1017.9269,return,1.5918,,57.421875,,,,,,FBP-OG-81.png,0.4,1.2,38,0.75,,,,,,,,,,,,,,,,,,0,25,25,37,1,,,,,,,,,,,,,,,,,,,,,,,
,,,,,V3_090,20,Male,2025-01-30_13h33.21.274,jersey_experiment_5_v3,2023.2.2,Win32,85.47008547,,,,,,,,,,,,,,,,1017.927,1019.2295,1019.2295,1021.1975,return,0.6976,,87.23958333,,,,,,FBP-YG-19.png,0.45,1.2,15,0.5,,,,,,,,,,,,,,,,,,0,26,26,14,1,,,,,,,,,,,,,,,,,,,,,,,
,,,,,V3_090,20,Male,2025-01-30_13h33.21.274,jersey_experiment_5_v3,2023.2.2,Win32,85.47008547,,,,,,,,,,,,,,,,1021.1976,1022.5003,1022.5004,1024.7591,return,0.5028,,20.703125,,,,,,FBP-PT-81.png,0.35,1.2,21,0.5,,,,,,,,,,,,,,,,,,0,27,27,20,1,,,,,,,,,,,,,,,,,,,,,,,
,,,,,V3_090,20,Male,2025-01-30_13h33.21.274,jersey_experiment_5_v3,2023.2.2,Win32,85.47008547,,,,,,,,,,,,,,,,1024.7607,1026.0679,1026.0679,1028.7034,return,0.7208,,87.109375,,,,,,FBP-YG-18.png,0.45,1.2,10,0.5,,,,,,,,,,,,,,,,,,0,28,28,9,1,,,,,,,,,,,,,,,,,,,,,,,
,,,,,V3_090,20,Male,2025-01-30_13h33.21.274,jersey_experiment_5_v3,2023.2.2,Win32,85.47008547,,,,,,,,,,,,,,,,1028.7036,1030.0066,1030.0066,1032.9862,return,0.5799,,74.609375,,,,,,FBP-PT-81.png,0.37,1.2,22,0.5,,,,,,,,,,,,,,,,,,0,29,29,21,1,,,,,,,,,,,,,,,,,,,,,,,
,,,,,V3_090,20,Male,2025-01-30_13h33.21.274,jersey_experiment_5_v3,2023.2.2,Win32,85.47008547,,,,,,,,,,,,,,,,1032.9864,1034.2891,1034.2892,1036.6094,return,1.0499,,62.109375,,,,,,FBP-PT-71.png,0.37,1.2,17,0.5,,,,,,,,,,,,,,,,,,0,30,30,16,1,,,,,,,,,,,,,,,,,,,,,,,
,,,,,V3_090,20,Male,2025-01-30_13h33.21.274,jersey_experiment_5_v3,2023.2.2,Win32,85.47008547,,,,,,,,,,,,,,,,1036.6095,1037.9127,1037.9127,1039.9038,return,0.5648,,0.390625,,,,,,FBP-RB-91.png,0.35,1.2,56,0.5,,,,,,,,,,,,,,,,,,0,31,31,55,1,,,,,,,,,,,,,,,,,,,,,,,
,,,,,V3_090,20,Male,2025-01-30_13h33.21.274,jersey_experiment_5_v3,2023.2.2,Win32,85.47008547,,,,,,,,,,,,,,,,1039.9041,1041.1979,1041.1979,1043.2222,return,0.5183,,36.84895833,,,,,,FBP-PT-91.png,0.4,1.2,28,0.5,,,,,,,,,,,,,,,,,,0,32,32,27,1,,,,,,,,,,,,,,,,,,,,,,,
,,,,,V3_090,20,Male,2025-01-30_13h33.21.274,jersey_experiment_5_v3,2023.2.2,Win32,85.47008547,,,,,,,,,,,,,,,,1043.2224,1044.7684,1044.7684,1045.9803,return,0.5421,,25,,,,,,FBP-OG-71.png,0.37,1.2,32,0.75,,,,,,,,,,,,,,,,,,0,33,33,31,1,,,,,,,,,,,,,,,,,,,,,,,
,,,,,V3_090,20,Male,2025-01-30_13h33.21.274,jersey_experiment_5_v3,2023.2.2,Win32,85.47008547,,,,,,,,,,,,,,,,1045.9805,1047.2743,1047.2743,1049.5129,return,0.5177,,71.74479167,,,,,,FBP-PT-91.png,0.43,1.2,29,0.5,,,,,,,,,,,,,,,,,,0,34,34,28,1,,,,,,,,,,,,,,,,,,,,,,,
,,,,,V3_090,20,Male,2025-01-30_13h33.21.274,jersey_experiment_5_v3,2023.2.2,Win32,85.47008547,,,,,,,,,,,,,,,,1049.513,1050.8217,1050.8217,1052.7131,return,0.6119,,65.75520833,,,,,,FBP-RB-91.png,0.4,1.2,58,0.5,,,,,,,,,,,,,,,,,,0,35,35,57,1,,,,,,,,,,,,,,,,,,,,,,,
,,,,,V3_090,20,Male,2025-01-30_13h33.21.274,jersey_experiment_5_v3,2023.2.2,Win32,85.47008547,,,,,,,,,,,,,,,,1052.7132,1054.0221,1054.0221,1056.569,return,0.747,,14.58333333,,,,,,FBP-YG-19.png,0.35,1.2,11,0.5,,,,,,,,,,,,,,,,,,0,36,36,10,1,,,,,,,,,,,,,,,,,,,,,,,
,,,,,V3_090,20,Male,2025-01-30_13h33.21.274,jersey_experiment_5_v3,2023.2.2,Win32,85.47008547,,,,,,,,,,,,,,,,1056.5692,1057.8664,1057.8664,1060.3924,return,0.6034,,82.29166667,,,,,,FBP-PT-71.png,0.4,1.2,18,0.5,,,,,,,,,,,,,,,,,,0,37,37,17,1,,,,,,,,,,,,,,,,,,,,,,,
,,,,,V3_090,20,Male,2025-01-30_13h33.21.274,jersey_experiment_5_v3,2023.2.2,Win32,85.47008547,,,,,,,,,,,,,,,,1060.3926,1061.6867,1061.6868,1064.475,return,1.028,,20.3125,,,,,,FBP-YG-17.png,0.37,1.2,2,0.5,,,,,,,,,,,,,,,,,,0,38,38,1,1,,,,,,,,,,,,,,,,,,,,,,,
,,,,,V3_090,20,Male,2025-01-30_13h33.21.274,jersey_experiment_5_v3,2023.2.2,Win32,85.47008547,,,,,,,,,,,,,,,,1064.4753,1066.0224,1066.0224,1068.2343,return,0.5796,,96.35416667,,,,,,FBP-OG-81.png,0.45,1.2,40,0.75,,,,,,,,,,,,,,,,,,0,39,39,39,1,,,,,,,,,,,,,,,,,,,,,,,
,,,,,V3_090,20,Male,2025-01-30_13h33.21.274,jersey_experiment_5_v3,2023.2.2,Win32,85.47008547,,,,,,,,,,,,,,,,1068.2344,1069.7874,1069.7875,1071.8436,return,0.5978,,7.421875,,,,,,FBP-OG-91.png,0.35,1.2,41,0.75,,,,,,,,,,,,,,,,,,0,40,40,40,1,,,,,,,,,,,,,,,,,,,,,,,
,,,,,V3_090,20,Male,2025-01-30_13h33.21.274,jersey_experiment_5_v3,2023.2.2,Win32,85.47008547,,,,,,,,,,,,,,,,1071.8437,1073.146,1073.146,1074.9967,return,0.6359,,99.47916667,,,,,,FBP-PT-91.png,0.45,1.2,30,0.5,,,,,,,,,,,,,,,,,,0,41,41,29,1,,,,,,,,,,,,,,,,,,,,,,,
,,,,,V3_090,20,Male,2025-01-30_13h33.21.274,jersey_experiment_5_v3,2023.2.2,Win32,85.47008547,,,,,,,,,,,,,,,,1074.9968,1076.5405,1076.5405,1079.0199,return,1.459,,85.67708333,,,,,,FBP-OG-71.png,0.43,1.2,34,0.75,,,,,,,,,,,,,,,,,,0,42,42,33,1,,,,,,,,,,,,,,,,,,,,,,,
,,,,,V3_090,20,Male,2025-01-30_13h33.21.274,jersey_experiment_5_v3,2023.2.2,Win32,85.47008547,,,,,,,,,,,,,,,,1079.0201,1080.329,1080.329,1081.958,return,0.5852,,96.875,,,,,,FBP-PT-71.png,0.45,1.2,20,0.5,,,,,,,,,,,,,,,,,,0,43,43,19,1,,,,,,,,,,,,,,,,,,,,,,,
,,,,,V3_090,20,Male,2025-01-30_13h33.21.274,jersey_experiment_5_v3,2023.2.2,Win32,85.47008547,,,,,,,,,,,,,,,,1081.9583,1083.2521,1083.2521,1084.8225,return,0.532,,95.96354167,,,,,,FBP-PT-81.png,0.45,1.2,25,0.5,,,,,,,,,,,,,,,,,,0,44,44,24,1,,,,,,,,,,,,,,,,,,,,,,,
,,,,,V3_090,20,Male,2025-01-30_13h33.21.274,jersey_experiment_5_v3,2023.2.2,Win32,85.47008547,,,,,,,,,,,,,,,,1084.8227,1086.1172,1086.1172,1087.9295,return,0.4242,,73.95833333,,,,,,FBP-RB-71.png,0.4,1.2,48,0.5,,,,,,,,,,,,,,,,,,0,45,45,47,1,,,,,,,,,,,,,,,,,,,,,,,
,,,,,V3_090,20,Male,2025-01-30_13h33.21.274,jersey_experiment_5_v3,2023.2.2,Win32,85.47008547,,,,,,,,,,,,,,,,1087.9297,1089.4816,1089.4816,1091.5584,return,0.4434,,44.79166667,,,,,,FBP-OG-81.png,0.37,1.2,37,0.75,,,,,,,,,,,,,,,,,,0,46,46,36,1,,,,,,,,,,,,,,,,,,,,,,,
,,,,,V3_090,20,Male,2025-01-30_13h33.21.274,jersey_experiment_5_v3,2023.2.2,Win32,85.47008547,,,,,,,,,,,,,,,,1091.5586,1092.856,1092.8561,1094.5735,return,0.565,,18.61979167,,,,,,FBP-RB-81.png,0.35,1.2,51,0.5,,,,,,,,,,,,,,,,,,0,47,47,50,1,,,,,,,,,,,,,,,,,,,,,,,
,,,,,V3_090,20,Male,2025-01-30_13h33.21.274,jersey_experiment_5_v3,2023.2.2,Win32,85.47008547,,,,,,,,,,,,,,,,1094.5737,1096.1178,1096.1179,1097.9857,return,0.8708,,75.390625,,,,,,FBP-OG-91.png,0.43,1.2,44,0.75,,,,,,,,,,,,,,,,,,0,48,48,43,1,,,,,,,,,,,,,,,,,,,,,,,
,,,,,V3_090,20,Male,2025-01-30_13h33.21.274,jersey_experiment_5_v3,2023.2.2,Win32,85.47008547,,,,,,,,,,,,,,,,1097.9859,1099.2944,1099.2944,1101.1151,return,0.4473,,12.36979167,,,,,,FBP-YG-18.png,0.35,1.2,6,0.5,,,,,,,,,,,,,,,,,,0,49,49,5,1,,,,,,,,,,,,,,,,,,,,,,,
,,,,,V3_090,20,Male,2025-01-30_13h33.21.274,jersey_experiment_5_v3,2023.2.2,Win32,85.47008547,,,,,,,,,,,,,,,,1101.1152,1102.6682,1102.6682,1104.6359,return,0.533,,74.86979167,,,,,,FBP-OG-71.png,0.45,1.2,35,0.75,,,,,,,,,,,,,,,,,,0,50,50,34,1,,,,,,,,,,,,,,,,,,,,,,,
,,,,,V3_090,20,Male,2025-01-30_13h33.21.274,jersey_experiment_5_v3,2023.2.2,Win32,85.47008547,,,,,,,,,,,,,,,,1104.6361,1105.9299,1105.9299,1107.8126,return,0.5094,,92.578125,,,,,,FBP-RB-81.png,0.45,1.2,55,0.5,,,,,,,,,,,,,,,,,,0,51,51,54,1,,,,,,,,,,,,,,,,,,,,,,,
,,,,,V3_090,20,Male,2025-01-30_13h33.21.274,jersey_experiment_5_v3,2023.2.2,Win32,85.47008547,,,,,,,,,,,,,,,,1107.8128,1109.1064,1109.1065,1111.3655,return,0.6268,,13.41145833,,,,,,FBP-RB-81.png,0.37,1.2,52,0.5,,,,,,,,,,,,,,,,,,0,52,52,51,1,,,,,,,,,,,,,,,,,,,,,,,
,,,,,V3_090,20,Male,2025-01-30_13h33.21.274,jersey_experiment_5_v3,2023.2.2,Win32,85.47008547,,,,,,,,,,,,,,,,1111.3656,1112.6685,1112.6685,1115.4654,return,0.8638,,8.984375,,,,,,FBP-YG-19.png,0.37,1.2,12,0.5,,,,,,,,,,,,,,,,,,0,53,53,11,1,,,,,,,,,,,,,,,,,,,,,,,
,,,,,V3_090,20,Male,2025-01-30_13h33.21.274,jersey_experiment_5_v3,2023.2.2,Win32,85.47008547,,,,,,,,,,,,,,,,1115.4655,1116.7595,1116.7595,1120.3948,return,1.933,,42.1875,,,,,,FBP-RB-81.png,0.4,1.2,53,0.5,,,,,,,,,,,,,,,,,,0,54,54,52,1,,,,,,,,,,,,,,,,,,,,,,,
,,,,,V3_090,20,Male,2025-01-30_13h33.21.274,jersey_experiment_5_v3,2023.2.2,Win32,85.47008547,,,,,,,,,,,,,,,,1120.395,1121.6891,1121.6891,1123.6483,return,0.5651,,14.97395833,,,,,,FBP-RB-71.png,0.35,1.2,46,0.5,,,,,,,,,,,,,,,,,,0,55,55,45,1,,,,,,,,,,,,,,,,,,,,,,,
,,,,,V3_090,20,Male,2025-01-30_13h33.21.274,jersey_experiment_5_v3,2023.2.2,Win32,85.47008547,,,,,,,,,,,,,,,,1123.6484,1124.9513,1124.9513,1127.0604,return,0.6741,,94.66145833,,,,,,FBP-PT-81.png,0.43,1.2,24,0.5,,,,,,,,,,,,,,,,,,0,56,56,23,1,,,,,,,,,,,,,,,,,,,,,,,
,,,,,V3_090,20,Male,2025-01-30_13h33.21.274,jersey_experiment_5_v3,2023.2.2,Win32,85.47008547,,,,,,,,,,,,,,,,1127.0605,1128.3541,1128.3541,1130.8107,return,1.2244,,79.55729167,,,,,,FBP-YG-19.png,0.4,1.2,13,0.5,,,,,,,,,,,,,,,,,,0,57,57,12,1,,,,,,,,,,,,,,,,,,,,,,,
,,,,,V3_090,20,Male,2025-01-30_13h33.21.274,jersey_experiment_5_v3,2023.2.2,Win32,85.47008547,,,,,,,,,,,,,,,,1130.8109,1132.1193,1132.1193,1133.8692,return,0.5178,,89.19270833,,,,,,FBP-YG-19.png,0.43,1.2,14,0.5,,,,,,,,,,,,,,,,,,0,58,58,13,1,,,,,,,,,,,,,,,,,,,,,,,
,,,,,V3_090,20,Male,2025-01-30_13h33.21.274,jersey_experiment_5_v3,2023.2.2,Win32,85.47008547,,,,,,,,,,,,,,,,1133.8692,1135.1632,1135.1632,1136.7635,return,0.5417,,95.57291667,,,,,,FBP-RB-71.png,0.45,1.2,50,0.5,,,,,,,,,,,,,,,,,,0,59,59,49,1,,,,,,,,,,,,,,,,,,,,,,,
,,,,,V3_090,20,Male,2025-01-30_13h33.21.274,jersey_experiment_5_v3,2023.2.2,Win32,85.47008547,,,,,,,,,,,,,,,,,,,,,,,,,,,,,,,,,,,,,,,,,,,,,,,,,,,,,,,,1136.7636,1146.9286,return,10.1503,,,,,,,,,,,,,,,,,,,
,,,,,V3_090,20,Male,2025-01-30_13h33.21.274,jersey_experiment_5_v3,2023.2.2,Win32,85.47008547,,,,,,,,,,,,,,,,,,,,,,,,,,,,,,,,,,,,,,,,,,,,,,,,,,,,,,,,,,,,,1146.9286,1151.6111,1,3.5676,return,1.106,,,,,,,,,,,,
,,,,,V3_090,20,Male,2025-01-30_13h33.21.274,jersey_experiment_5_v3,2023.2.2,Win32,85.47008547,,,,,,,,,,,,,,,,,,,,,,,,,,,,,,,,,,,,,,,,,,,,,,,,,,,,,,,,,,,,,,,,,,,,1151.6111,1249.0196,"I have no clue what this study could be about. As far as I know, I did not see any patterns, but I was able to catch on to the fact that only White and African American footballers were shown.",right,89.3446,,,,,,
,,,,,V3_090,20,Male,2025-01-30_13h33.21.274,jersey_experiment_5_v3,2023.2.2,Win32,85.47008547,,,,,,,,,,,,,,,,,,,,,,,,,,,,,,,,,,,,,,,,,,,,,,,,,,,,,,,,,,,,,,,,,,,,,,,,,,1249.0197,1258.2974,return,9.271,