requirements.started,requirements.stopped,key_resp_3.keys,key_resp_3.rt,key_resp_3.duration,Subject ID,Age,Gender,date,expName,psychopyVersion,OS,frameRate,instructions1.started,instructions1.stopped,key_resp.keys,key_resp.rt,key_resp.duration,example.started,example.stopped,enter_2.keys,enter_2.rt,enter_2.duration,instructions2.started,instructions2.stopped,enter_3.keys,enter_3.rt,enter_3.duration,image.started,image.stopped,slider_2.started,slider_2.stopped,next.keys,next.rt,next.duration,slider.response,trial_block_1.thisRepN,trial_block_1.thisTrialN,trial_block_1.thisN,trial_block_1.thisIndex,trial_block_1.ran,Path,Width,Height,Index,Duration,trial_block_2.thisRepN,trial_block_2.thisTrialN,trial_block_2.thisN,trial_block_2.thisIndex,trial_block_2.ran,rest_break.started,rest_break.stopped,end_break.started,end_break.stopped,key_resp_5.keys,key_resp_5.rt,key_resp_5.duration,trial_block_3.thisRepN,trial_block_3.thisTrialN,trial_block_3.thisN,trial_block_3.thisIndex,trial_block_3.ran,trial_block_4.thisRepN,trial_block_4.thisTrialN,trial_block_4.thisN,trial_block_4.thisIndex,trial_block_4.ran,questions_intro.started,questions_intro.stopped,enter_12.keys,enter_12.rt,enter_12.duration,question2.started,question2.stopped,question_doingbest.response,question_doingbest.rt,enter_15.keys,enter_15.rt,enter_15.duration,pattern.started,pattern.stopped,pattern_2.text,enter_17.keys,enter_17.rt,enter_17.duration,thankyou.started,thankyou.stopped,enter_14.keys,enter_14.rt,enter_14.duration
0,7.6614,return,7.6569,,V3_055,19,female,2024-11-07_16h51.13.379,jersey_experiment_5_v3,2023.2.2,Win32,84.74576271,,,,,,,,,,,,,,,,,,,,,,,,,,,,,,,,,,,,,,,,,,,,,,,,,,,,,,,,,,,,,,,,,,,,,,,,,,,,,,
,,,,,V3_055,19,female,2024-11-07_16h51.13.379,jersey_experiment_5_v3,2023.2.2,Win32,84.74576271,7.6615,16.4853,return,8.8084,,,,,,,,,,,,,,,,,,,,,,,,,,,,,,,,,,,,,,,,,,,,,,,,,,,,,,,,,,,,,,,,,,,,,,,,,,
,,,,,V3_055,19,female,2024-11-07_16h51.13.379,jersey_experiment_5_v3,2023.2.2,Win32,84.74576271,,,,,,16.4853,23.1589,return,6.6424,,,,,,,,,,,,,,,,,,,,,,,,,,,,,,,,,,,,,,,,,,,,,,,,,,,,,,,,,,,,,,,,,,,,,
,,,,,V3_055,19,female,2024-11-07_16h51.13.379,jersey_experiment_5_v3,2023.2.2,Win32,84.74576271,,,,,,,,,,,23.159,35.4708,return,12.2989,,,,,,,,,,,,,,,,,,,,,,,,,,,,,,,,,,,,,,,,,,,,,,,,,,,,,,,,,,,,,,,,
,,,,,V3_055,19,female,2024-11-07_16h51.13.379,jersey_experiment_5_v3,2023.2.2,Win32,84.74576271,,,,,,,,,,,,,,,,35.4723,37.0166,37.0166,44.0123,return,1.4154,,24.609375,0,0,0,5,1,FBP-YG-81.png,0.35,1.2,6,0.75,,,,,,,,,,,,,,,,,,,,,,,,,,,,,,,,,,,,,,,,,,,,,
,,,,,V3_055,19,female,2024-11-07_16h51.13.379,jersey_experiment_5_v3,2023.2.2,Win32,84.74576271,,,,,,,,,,,,,,,,44.0126,45.5654,45.5655,51.1537,return,3.9078,,26.5625,0,1,1,20,1,FBP-PT-18.png,0.35,1.2,21,0.75,,,,,,,,,,,,,,,,,,,,,,,,,,,,,,,,,,,,,,,,,,,,,
,,,,,V3_055,19,female,2024-11-07_16h51.13.379,jersey_experiment_5_v3,2023.2.2,Win32,84.74576271,,,,,,,,,,,,,,,,51.1541,52.7068,52.7069,58.7894,return,2.0689,,89.84375,0,2,2,48,1,FBP-RB-17.png,0.43,1.2,49,0.75,,,,,,,,,,,,,,,,,,,,,,,,,,,,,,,,,,,,,,,,,,,,,
,,,,,V3_055,19,female,2024-11-07_16h51.13.379,jersey_experiment_5_v3,2023.2.2,Win32,84.74576271,,,,,,,,,,,,,,,,58.7897,60.3424,60.3424,65.1896,return,1.8373,,75.52083333,0,3,3,3,1,FBP-YG-71.png,0.43,1.2,4,0.75,,,,,,,,,,,,,,,,,,,,,,,,,,,,,,,,,,,,,,,,,,,,,
,,,,,V3_055,19,female,2024-11-07_16h51.13.379,jersey_experiment_5_v3,2023.2.2,Win32,84.74576271,,,,,,,,,,,,,,,,65.1898,66.7425,66.7426,70.8486,return,2.0031,,75.13020833,0,4,4,22,1,FBP-PT-18.png,0.4,1.2,23,0.75,,,,,,,,,,,,,,,,,,,,,,,,,,,,,,,,,,,,,,,,,,,,,
,,,,,V3_055,19,female,2024-11-07_16h51.13.379,jersey_experiment_5_v3,2023.2.2,Win32,84.74576271,,,,,,,,,,,,,,,,70.8489,72.4016,72.4017,77.9666,return,2.3932,,39.0625,0,5,5,0,1,FBP-YG-71.png,0.35,1.2,1,0.75,,,,,,,,,,,,,,,,,,,,,,,,,,,,,,,,,,,,,,,,,,,,,
,,,,,V3_055,19,female,2024-11-07_16h51.13.379,jersey_experiment_5_v3,2023.2.2,Win32,84.74576271,,,,,,,,,,,,,,,,77.9668,79.5196,79.5196,86.0137,return,1.4527,,31.51041667,0,6,6,25,1,FBP-PT-19.png,0.35,1.2,26,0.75,,,,,,,,,,,,,,,,,,,,,,,,,,,,,,,,,,,,,,,,,,,,,
,,,,,V3_055,19,female,2024-11-07_16h51.13.379,jersey_experiment_5_v3,2023.2.2,Win32,84.74576271,,,,,,,,,,,,,,,,86.014,87.5668,87.5669,94.6376,return,3.6761,,86.06770833,0,7,7,18,1,FBP-PT-17.png,0.43,1.2,19,0.75,,,,,,,,,,,,,,,,,,,,,,,,,,,,,,,,,,,,,,,,,,,,,
,,,,,V3_055,19,female,2024-11-07_16h51.13.379,jersey_experiment_5_v3,2023.2.2,Win32,84.74576271,,,,,,,,,,,,,,,,94.6379,96.1906,96.1906,101.2614,return,2.5122,,86.58854167,0,8,8,54,1,FBP-RB-18.png,0.45,1.2,55,0.75,,,,,,,,,,,,,,,,,,,,,,,,,,,,,,,,,,,,,,,,,,,,,
,,,,,V3_055,19,female,2024-11-07_16h51.13.379,jersey_experiment_5_v3,2023.2.2,Win32,84.74576271,,,,,,,,,,,,,,,,101.2617,102.8144,102.8144,111.7442,return,4.5053,,40.36458333,0,9,9,55,1,FBP-RB-19.png,0.35,1.2,56,0.75,,,,,,,,,,,,,,,,,,,,,,,,,,,,,,,,,,,,,,,,,,,,,
,,,,,V3_055,19,female,2024-11-07_16h51.13.379,jersey_experiment_5_v3,2023.2.2,Win32,84.74576271,,,,,,,,,,,,,,,,111.7446,113.2971,113.2972,117.968,return,2.049,,87.109375,0,10,10,59,1,FBP-RB-19.png,0.45,1.2,60,0.75,,,,,,,,,,,,,,,,,,,,,,,,,,,,,,,,,,,,,,,,,,,,,
,,,,,V3_055,19,female,2024-11-07_16h51.13.379,jersey_experiment_5_v3,2023.2.2,Win32,84.74576271,,,,,,,,,,,,,,,,117.9682,119.2621,119.2621,126.4506,return,4.7774,,65.75520833,0,11,11,36,1,FBP-OG-18.png,0.37,1.2,37,0.5,,,,,,,,,,,,,,,,,,,,,,,,,,,,,,,,,,,,,,,,,,,,,
,,,,,V3_055,19,female,2024-11-07_16h51.13.379,jersey_experiment_5_v3,2023.2.2,Win32,84.74576271,,,,,,,,,,,,,,,,126.451,128.0037,128.0037,133.3568,return,2.6301,,78.125,0,12,12,14,1,FBP-YG-91.png,0.45,1.2,15,0.75,,,,,,,,,,,,,,,,,,,,,,,,,,,,,,,,,,,,,,,,,,,,,
,,,,,V3_055,19,female,2024-11-07_16h51.13.379,jersey_experiment_5_v3,2023.2.2,Win32,84.74576271,,,,,,,,,,,,,,,,133.3571,134.9098,134.9098,138.3688,return,1.5555,,77.734375,0,13,13,8,1,FBP-YG-81.png,0.43,1.2,9,0.75,,,,,,,,,,,,,,,,,,,,,,,,,,,,,,,,,,,,,,,,,,,,,
,,,,,V3_055,19,female,2024-11-07_16h51.13.379,jersey_experiment_5_v3,2023.2.2,Win32,84.74576271,,,,,,,,,,,,,,,,138.369,139.9217,139.9217,147.5338,return,5.8882,,65.88541667,0,14,14,51,1,FBP-RB-18.png,0.37,1.2,52,0.75,,,,,,,,,,,,,,,,,,,,,,,,,,,,,,,,,,,,,,,,,,,,,
,,,,,V3_055,19,female,2024-11-07_16h51.13.379,jersey_experiment_5_v3,2023.2.2,Win32,84.74576271,,,,,,,,,,,,,,,,147.5343,149.0867,149.0868,161.2283,return,7.6634,,48.30729167,0,15,15,45,1,FBP-RB-17.png,0.35,1.2,46,0.75,,,,,,,,,,,,,,,,,,,,,,,,,,,,,,,,,,,,,,,,,,,,,
,,,,,V3_055,19,female,2024-11-07_16h51.13.379,jersey_experiment_5_v3,2023.2.2,Win32,84.74576271,,,,,,,,,,,,,,,,161.2285,162.5225,162.5225,167.7581,return,2.3801,,62.76041667,0,16,16,37,1,FBP-OG-18.png,0.4,1.2,38,0.5,,,,,,,,,,,,,,,,,,,,,,,,,,,,,,,,,,,,,,,,,,,,,
,,,,,V3_055,19,female,2024-11-07_16h51.13.379,jersey_experiment_5_v3,2023.2.2,Win32,84.74576271,,,,,,,,,,,,,,,,167.7583,169.0522,169.0523,172.2052,return,1.1239,,58.85416667,0,17,17,40,1,FBP-OG-19.png,0.35,1.2,41,0.5,,,,,,,,,,,,,,,,,,,,,,,,,,,,,,,,,,,,,,,,,,,,,
,,,,,V3_055,19,female,2024-11-07_16h51.13.379,jersey_experiment_5_v3,2023.2.2,Win32,84.74576271,,,,,,,,,,,,,,,,172.2056,173.4994,173.4994,183.7232,return,3.7591,,60.80729167,0,18,18,41,1,FBP-OG-19.png,0.37,1.2,42,0.5,,,,,,,,,,,,,,,,,,,,,,,,,,,,,,,,,,,,,,,,,,,,,
,,,,,V3_055,19,female,2024-11-07_16h51.13.379,jersey_experiment_5_v3,2023.2.2,Win32,84.74576271,,,,,,,,,,,,,,,,183.7235,185.2763,185.2764,190.1824,return,1.6372,,80.98958333,0,19,19,13,1,FBP-YG-91.png,0.43,1.2,14,0.75,,,,,,,,,,,,,,,,,,,,,,,,,,,,,,,,,,,,,,,,,,,,,
,,,,,V3_055,19,female,2024-11-07_16h51.13.379,jersey_experiment_5_v3,2023.2.2,Win32,84.74576271,,,,,,,,,,,,,,,,190.1828,191.7354,191.7355,197.8533,return,3.0532,,57.55208333,0,20,20,16,1,FBP-PT-17.png,0.37,1.2,17,0.75,,,,,,,,,,,,,,,,,,,,,,,,,,,,,,,,,,,,,,,,,,,,,
,,,,,V3_055,19,female,2024-11-07_16h51.13.379,jersey_experiment_5_v3,2023.2.2,Win32,84.74576271,,,,,,,,,,,,,,,,197.8535,199.4063,199.4063,205.877,return,3.5684,,63.41145833,0,21,21,2,1,FBP-YG-71.png,0.4,1.2,3,0.75,,,,,,,,,,,,,,,,,,,,,,,,,,,,,,,,,,,,,,,,,,,,,
,,,,,V3_055,19,female,2024-11-07_16h51.13.379,jersey_experiment_5_v3,2023.2.2,Win32,84.74576271,,,,,,,,,,,,,,,,205.8772,207.4301,207.4302,211.2184,return,1.2626,,73.95833333,0,22,22,53,1,FBP-RB-18.png,0.43,1.2,54,0.75,,,,,,,,,,,,,,,,,,,,,,,,,,,,,,,,,,,,,,,,,,,,,
,,,,,V3_055,19,female,2024-11-07_16h51.13.379,jersey_experiment_5_v3,2023.2.2,Win32,84.74576271,,,,,,,,,,,,,,,,211.2187,212.5126,212.5126,216.7362,return,2.45,,60.02604167,0,23,23,32,1,FBP-OG-17.png,0.4,1.2,33,0.5,,,,,,,,,,,,,,,,,,,,,,,,,,,,,,,,,,,,,,,,,,,,,
,,,,,V3_055,19,female,2024-11-07_16h51.13.379,jersey_experiment_5_v3,2023.2.2,Win32,84.74576271,,,,,,,,,,,,,,,,216.7364,218.2893,218.2893,221.7717,return,2.243,,41.53645833,0,24,24,56,1,FBP-RB-19.png,0.37,1.2,57,0.75,,,,,,,,,,,,,,,,,,,,,,,,,,,,,,,,,,,,,,,,,,,,,
,,,,,V3_055,19,female,2024-11-07_16h51.13.379,jersey_experiment_5_v3,2023.2.2,Win32,84.74576271,,,,,,,,,,,,,,,,221.772,223.3247,223.3248,230.2427,return,4.5052,,56.51041667,0,25,25,47,1,FBP-RB-17.png,0.4,1.2,48,0.75,,,,,,,,,,,,,,,,,,,,,,,,,,,,,,,,,,,,,,,,,,,,,
,,,,,V3_055,19,female,2024-11-07_16h51.13.379,jersey_experiment_5_v3,2023.2.2,Win32,84.74576271,,,,,,,,,,,,,,,,230.2428,231.7956,231.7957,236.6899,return,2.7631,,73.56770833,0,26,26,17,1,FBP-PT-17.png,0.4,1.2,18,0.75,,,,,,,,,,,,,,,,,,,,,,,,,,,,,,,,,,,,,,,,,,,,,
,,,,,V3_055,19,female,2024-11-07_16h51.13.379,jersey_experiment_5_v3,2023.2.2,Win32,84.74576271,,,,,,,,,,,,,,,,236.6902,237.9841,237.9842,244.1962,return,2.6862,,80.20833333,0,27,27,38,1,FBP-OG-18.png,0.43,1.2,39,0.5,,,,,,,,,,,,,,,,,,,,,,,,,,,,,,,,,,,,,,,,,,,,,
,,,,,V3_055,19,female,2024-11-07_16h51.13.379,jersey_experiment_5_v3,2023.2.2,Win32,84.74576271,,,,,,,,,,,,,,,,244.1965,245.4904,245.4904,249.9845,return,1.0044,,24.73958333,0,28,28,31,1,FBP-OG-17.png,0.37,1.2,32,0.5,,,,,,,,,,,,,,,,,,,,,,,,,,,,,,,,,,,,,,,,,,,,,
,,,,,V3_055,19,female,2024-11-07_16h51.13.379,jersey_experiment_5_v3,2023.2.2,Win32,84.74576271,,,,,,,,,,,,,,,,249.9847,251.5376,251.5377,260.8438,return,7.6162,,23.56770833,0,29,29,50,1,FBP-RB-18.png,0.35,1.2,51,0.75,,,,,,,,,,,,,,,,,,,,,,,,,,,,,,,,,,,,,,,,,,,,,
,,,,,V3_055,19,female,2024-11-07_16h51.13.379,jersey_experiment_5_v3,2023.2.2,Win32,84.74576271,,,,,,,,,,,,,,,,260.8441,262.1379,262.138,267.0086,return,3.0248,,76.30208333,0,30,30,44,1,FBP-OG-19.png,0.45,1.2,45,0.5,,,,,,,,,,,,,,,,,,,,,,,,,,,,,,,,,,,,,,,,,,,,,
,,,,,V3_055,19,female,2024-11-07_16h51.13.379,jersey_experiment_5_v3,2023.2.2,Win32,84.74576271,,,,,,,,,,,,,,,,267.0088,268.5617,268.5618,273.5854,return,3.8252,,79.42708333,0,31,31,19,1,FBP-PT-17.png,0.45,1.2,20,0.75,,,,,,,,,,,,,,,,,,,,,,,,,,,,,,,,,,,,,,,,,,,,,
,,,,,V3_055,19,female,2024-11-07_16h51.13.379,jersey_experiment_5_v3,2023.2.2,Win32,84.74576271,,,,,,,,,,,,,,,,273.5856,275.1384,275.1385,280.7858,return,2.9889,,23.17708333,0,32,32,10,1,FBP-YG-91.png,0.35,1.2,11,0.75,,,,,,,,,,,,,,,,,,,,,,,,,,,,,,,,,,,,,,,,,,,,,
,,,,,V3_055,19,female,2024-11-07_16h51.13.379,jersey_experiment_5_v3,2023.2.2,Win32,84.74576271,,,,,,,,,,,,,,,,280.786,282.3386,282.3387,285.5389,return,1.0374,,75.13020833,0,33,33,29,1,FBP-PT-19.png,0.45,1.2,30,0.75,,,,,,,,,,,,,,,,,,,,,,,,,,,,,,,,,,,,,,,,,,,,,
,,,,,V3_055,19,female,2024-11-07_16h51.13.379,jersey_experiment_5_v3,2023.2.2,Win32,84.74576271,,,,,,,,,,,,,,,,285.5391,287.0918,287.0918,290.1389,return,0.9967,,49.609375,0,34,34,6,1,FBP-YG-81.png,0.37,1.2,7,0.75,,,,,,,,,,,,,,,,,,,,,,,,,,,,,,,,,,,,,,,,,,,,,
,,,,,V3_055,19,female,2024-11-07_16h51.13.379,jersey_experiment_5_v3,2023.2.2,Win32,84.74576271,,,,,,,,,,,,,,,,290.1391,291.692,291.6921,294.6685,return,1.2061,,84.89583333,0,35,35,24,1,FBP-PT-18.png,0.45,1.2,25,0.75,,,,,,,,,,,,,,,,,,,,,,,,,,,,,,,,,,,,,,,,,,,,,
,,,,,V3_055,19,female,2024-11-07_16h51.13.379,jersey_experiment_5_v3,2023.2.2,Win32,84.74576271,,,,,,,,,,,,,,,,294.6688,295.9628,295.9628,299.2334,return,1.7802,,79.55729167,0,36,36,42,1,FBP-OG-19.png,0.4,1.2,43,0.5,,,,,,,,,,,,,,,,,,,,,,,,,,,,,,,,,,,,,,,,,,,,,
,,,,,V3_055,19,female,2024-11-07_16h51.13.379,jersey_experiment_5_v3,2023.2.2,Win32,84.74576271,,,,,,,,,,,,,,,,299.2336,300.7866,300.7867,304.0924,return,2.1952,,73.95833333,0,37,37,7,1,FBP-YG-81.png,0.4,1.2,8,0.75,,,,,,,,,,,,,,,,,,,,,,,,,,,,,,,,,,,,,,,,,,,,,
,,,,,V3_055,19,female,2024-11-07_16h51.13.379,jersey_experiment_5_v3,2023.2.2,Win32,84.74576271,,,,,,,,,,,,,,,,304.0926,305.6453,305.6454,313.1516,return,3.6746,,51.82291667,0,38,38,46,1,FBP-RB-17.png,0.37,1.2,47,0.75,,,,,,,,,,,,,,,,,,,,,,,,,,,,,,,,,,,,,,,,,,,,,
,,,,,V3_055,19,female,2024-11-07_16h51.13.379,jersey_experiment_5_v3,2023.2.2,Win32,84.74576271,,,,,,,,,,,,,,,,313.1518,314.7046,314.7046,320.3871,return,2.7767,,94.79166667,0,39,39,49,1,FBP-RB-17.png,0.45,1.2,50,0.75,,,,,,,,,,,,,,,,,,,,,,,,,,,,,,,,,,,,,,,,,,,,,
,,,,,V3_055,19,female,2024-11-07_16h51.13.379,jersey_experiment_5_v3,2023.2.2,Win32,84.74576271,,,,,,,,,,,,,,,,320.3874,321.9402,321.9402,326.364,return,3.0079,,97.65625,0,40,40,9,1,FBP-YG-81.png,0.45,1.2,10,0.75,,,,,,,,,,,,,,,,,,,,,,,,,,,,,,,,,,,,,,,,,,,,,
,,,,,V3_055,19,female,2024-11-07_16h51.13.379,jersey_experiment_5_v3,2023.2.2,Win32,84.74576271,,,,,,,,,,,,,,,,326.3643,327.9169,327.9169,331.67,return,2.2464,,67.83854167,0,41,41,28,1,FBP-PT-19.png,0.43,1.2,29,0.75,,,,,,,,,,,,,,,,,,,,,,,,,,,,,,,,,,,,,,,,,,,,,
,,,,,V3_055,19,female,2024-11-07_16h51.13.379,jersey_experiment_5_v3,2023.2.2,Win32,84.74576271,,,,,,,,,,,,,,,,331.6702,332.9641,332.9642,338.0467,return,0.8517,,19.79166667,0,42,42,30,1,FBP-OG-17.png,0.35,1.2,31,0.5,,,,,,,,,,,,,,,,,,,,,,,,,,,,,,,,,,,,,,,,,,,,,
,,,,,V3_055,19,female,2024-11-07_16h51.13.379,jersey_experiment_5_v3,2023.2.2,Win32,84.74576271,,,,,,,,,,,,,,,,338.0469,339.5996,339.5996,343.2351,return,1.5075,,57.55208333,0,43,43,12,1,FBP-YG-91.png,0.4,1.2,13,0.75,,,,,,,,,,,,,,,,,,,,,,,,,,,,,,,,,,,,,,,,,,,,,
,,,,,V3_055,19,female,2024-11-07_16h51.13.379,jersey_experiment_5_v3,2023.2.2,Win32,84.74576271,,,,,,,,,,,,,,,,343.2353,344.7881,344.7881,350.4823,return,3.3331,,70.57291667,0,44,44,57,1,FBP-RB-19.png,0.4,1.2,58,0.75,,,,,,,,,,,,,,,,,,,,,,,,,,,,,,,,,,,,,,,,,,,,,
,,,,,V3_055,19,female,2024-11-07_16h51.13.379,jersey_experiment_5_v3,2023.2.2,Win32,84.74576271,,,,,,,,,,,,,,,,350.4826,351.7765,351.7766,355.7766,return,1.6856,,87.23958333,0,45,45,39,1,FBP-OG-18.png,0.45,1.2,40,0.5,,,,,,,,,,,,,,,,,,,,,,,,,,,,,,,,,,,,,,,,,,,,,
,,,,,V3_055,19,female,2024-11-07_16h51.13.379,jersey_experiment_5_v3,2023.2.2,Win32,84.74576271,,,,,,,,,,,,,,,,355.7768,357.3297,357.3297,361.3769,return,1.1792,,57.421875,0,46,46,1,1,FBP-YG-71.png,0.37,1.2,2,0.75,,,,,,,,,,,,,,,,,,,,,,,,,,,,,,,,,,,,,,,,,,,,,
,,,,,V3_055,19,female,2024-11-07_16h51.13.379,jersey_experiment_5_v3,2023.2.2,Win32,84.74576271,,,,,,,,,,,,,,,,361.3772,362.93,362.93,367.8829,return,3.0204,,83.33333333,0,47,47,4,1,FBP-YG-71.png,0.45,1.2,5,0.75,,,,,,,,,,,,,,,,,,,,,,,,,,,,,,,,,,,,,,,,,,,,,
,,,,,V3_055,19,female,2024-11-07_16h51.13.379,jersey_experiment_5_v3,2023.2.2,Win32,84.74576271,,,,,,,,,,,,,,,,367.8833,369.4359,369.436,372.8596,return,2.0303,,36.97916667,0,48,48,15,1,FBP-PT-17.png,0.35,1.2,16,0.75,,,,,,,,,,,,,,,,,,,,,,,,,,,,,,,,,,,,,,,,,,,,,
,,,,,V3_055,19,female,2024-11-07_16h51.13.379,jersey_experiment_5_v3,2023.2.2,Win32,84.74576271,,,,,,,,,,,,,,,,372.8599,374.4128,374.4128,381.1659,return,4.6761,,62.23958333,0,49,49,52,1,FBP-RB-18.png,0.4,1.2,53,0.75,,,,,,,,,,,,,,,,,,,,,,,,,,,,,,,,,,,,,,,,,,,,,
,,,,,V3_055,19,female,2024-11-07_16h51.13.379,jersey_experiment_5_v3,2023.2.2,Win32,84.74576271,,,,,,,,,,,,,,,,381.1661,382.7189,382.7189,386.5072,return,1.6047,,43.48958333,0,50,50,11,1,FBP-YG-91.png,0.37,1.2,12,0.75,,,,,,,,,,,,,,,,,,,,,,,,,,,,,,,,,,,,,,,,,,,,,
,,,,,V3_055,19,female,2024-11-07_16h51.13.379,jersey_experiment_5_v3,2023.2.2,Win32,84.74576271,,,,,,,,,,,,,,,,386.5074,388.0602,388.0603,391.3897,return,1.5904,,76.69270833,0,51,51,23,1,FBP-PT-18.png,0.43,1.2,24,0.75,,,,,,,,,,,,,,,,,,,,,,,,,,,,,,,,,,,,,,,,,,,,,
,,,,,V3_055,19,female,2024-11-07_16h51.13.379,jersey_experiment_5_v3,2023.2.2,Win32,84.74576271,,,,,,,,,,,,,,,,391.39,392.9427,392.9427,399.0136,return,4.1884,,60.80729167,0,52,52,26,1,FBP-PT-19.png,0.37,1.2,27,0.75,,,,,,,,,,,,,,,,,,,,,,,,,,,,,,,,,,,,,,,,,,,,,
,,,,,V3_055,19,female,2024-11-07_16h51.13.379,jersey_experiment_5_v3,2023.2.2,Win32,84.74576271,,,,,,,,,,,,,,,,399.0139,400.3077,400.3077,403.1079,return,1.3651,,75.26041667,0,53,53,43,1,FBP-OG-19.png,0.43,1.2,44,0.5,,,,,,,,,,,,,,,,,,,,,,,,,,,,,,,,,,,,,,,,,,,,,
,,,,,V3_055,19,female,2024-11-07_16h51.13.379,jersey_experiment_5_v3,2023.2.2,Win32,84.74576271,,,,,,,,,,,,,,,,403.1083,404.6608,404.6608,408.4021,return,1.2244,,55.33854167,0,54,54,27,1,FBP-PT-19.png,0.4,1.2,28,0.75,,,,,,,,,,,,,,,,,,,,,,,,,,,,,,,,,,,,,,,,,,,,,
,,,,,V3_055,19,female,2024-11-07_16h51.13.379,jersey_experiment_5_v3,2023.2.2,Win32,84.74576271,,,,,,,,,,,,,,,,408.4026,409.6963,409.6964,415.6378,return,3.8597,,57.94270833,0,55,55,33,1,FBP-OG-17.png,0.43,1.2,34,0.5,,,,,,,,,,,,,,,,,,,,,,,,,,,,,,,,,,,,,,,,,,,,,
,,,,,V3_055,19,female,2024-11-07_16h51.13.379,jersey_experiment_5_v3,2023.2.2,Win32,84.74576271,,,,,,,,,,,,,,,,415.638,417.1908,417.1908,420.5908,return,1.3222,,40.49479167,0,56,56,21,1,FBP-PT-18.png,0.37,1.2,22,0.75,,,,,,,,,,,,,,,,,,,,,,,,,,,,,,,,,,,,,,,,,,,,,
,,,,,V3_055,19,female,2024-11-07_16h51.13.379,jersey_experiment_5_v3,2023.2.2,Win32,84.74576271,,,,,,,,,,,,,,,,420.5911,421.885,421.885,428.5559,return,4.5219,,72.65625,0,57,57,34,1,FBP-OG-17.png,0.45,1.2,35,0.5,,,,,,,,,,,,,,,,,,,,,,,,,,,,,,,,,,,,,,,,,,,,,
,,,,,V3_055,19,female,2024-11-07_16h51.13.379,jersey_experiment_5_v3,2023.2.2,Win32,84.74576271,,,,,,,,,,,,,,,,428.5561,429.8499,429.8499,434.4149,return,2.591,,29.55729167,0,58,58,35,1,FBP-OG-18.png,0.35,1.2,36,0.5,,,,,,,,,,,,,,,,,,,,,,,,,,,,,,,,,,,,,,,,,,,,,
,,,,,V3_055,19,female,2024-11-07_16h51.13.379,jersey_experiment_5_v3,2023.2.2,Win32,84.74576271,,,,,,,,,,,,,,,,434.4151,435.9678,435.9679,442.3563,return,3.1616,,75.91145833,0,59,59,58,1,FBP-RB-19.png,0.43,1.2,59,0.75,,,,,,,,,,,,,,,,,,,,,,,,,,,,,,,,,,,,,,,,,,,,,
,,,,,V3_055,19,female,2024-11-07_16h51.13.379,jersey_experiment_5_v3,2023.2.2,Win32,84.74576271,,,,,,,,,,,,,,,,442.3579,443.9093,443.9093,448.3329,return,2.1472,,49.08854167,,,,,,FBP-RB-91.png,0.37,1.2,57,0.75,0,0,0,56,1,,,,,,,,,,,,,,,,,,,,,,,,,,,,,,,,,,,,,,,,
,,,,,V3_055,19,female,2024-11-07_16h51.13.379,jersey_experiment_5_v3,2023.2.2,Win32,84.74576271,,,,,,,,,,,,,,,,448.3332,449.8861,449.8861,455.5216,return,4.0629,,67.96875,,,,,,FBP-YG-18.png,0.4,1.2,8,0.75,0,1,1,7,1,,,,,,,,,,,,,,,,,,,,,,,,,,,,,,,,,,,,,,,,
,,,,,V3_055,19,female,2024-11-07_16h51.13.379,jersey_experiment_5_v3,2023.2.2,Win32,84.74576271,,,,,,,,,,,,,,,,455.5218,457.0746,457.0747,462.7689,return,1.9537,,80.859375,,,,,,FBP-YG-17.png,0.43,1.2,4,0.75,0,2,2,3,1,,,,,,,,,,,,,,,,,,,,,,,,,,,,,,,,,,,,,,,,
,,,,,V3_055,19,female,2024-11-07_16h51.13.379,jersey_experiment_5_v3,2023.2.2,Win32,84.74576271,,,,,,,,,,,,,,,,462.7691,464.3219,464.3219,469.2163,return,1.1449,,83.203125,,,,,,FBP-PT-81.png,0.43,1.2,24,0.75,0,3,3,23,1,,,,,,,,,,,,,,,,,,,,,,,,,,,,,,,,,,,,,,,,
,,,,,V3_055,19,female,2024-11-07_16h51.13.379,jersey_experiment_5_v3,2023.2.2,Win32,84.74576271,,,,,,,,,,,,,,,,469.2164,470.5104,470.5104,476.4753,return,2.9963,,94.53125,,,,,,FBP-OG-81.png,0.45,1.2,40,0.5,0,4,4,39,1,,,,,,,,,,,,,,,,,,,,,,,,,,,,,,,,,,,,,,,,
,,,,,V3_055,19,female,2024-11-07_16h51.13.379,jersey_experiment_5_v3,2023.2.2,Win32,84.74576271,,,,,,,,,,,,,,,,476.4755,478.0283,478.0283,481.7931,return,1.5786,,94.53125,,,,,,FBP-RB-71.png,0.45,1.2,50,0.75,0,5,5,49,1,,,,,,,,,,,,,,,,,,,,,,,,,,,,,,,,,,,,,,,,
,,,,,V3_055,19,female,2024-11-07_16h51.13.379,jersey_experiment_5_v3,2023.2.2,Win32,84.74576271,,,,,,,,,,,,,,,,481.7934,483.3461,483.3461,489.4758,return,3.6845,,58.07291667,,,,,,FBP-RB-81.png,0.4,1.2,53,0.75,0,6,6,52,1,,,,,,,,,,,,,,,,,,,,,,,,,,,,,,,,,,,,,,,,
,,,,,V3_055,19,female,2024-11-07_16h51.13.379,jersey_experiment_5_v3,2023.2.2,Win32,84.74576271,,,,,,,,,,,,,,,,489.476,490.7699,490.77,497.2289,return,2.7443,,60.80729167,,,,,,FBP-OG-91.png,0.4,1.2,43,0.5,0,7,7,42,1,,,,,,,,,,,,,,,,,,,,,,,,,,,,,,,,,,,,,,,,
,,,,,V3_055,19,female,2024-11-07_16h51.13.379,jersey_experiment_5_v3,2023.2.2,Win32,84.74576271,,,,,,,,,,,,,,,,497.2292,498.782,498.782,503.1233,return,2.0158,,55.72916667,,,,,,FBP-PT-81.png,0.37,1.2,22,0.75,0,8,8,21,1,,,,,,,,,,,,,,,,,,,,,,,,,,,,,,,,,,,,,,,,
,,,,,V3_055,19,female,2024-11-07_16h51.13.379,jersey_experiment_5_v3,2023.2.2,Win32,84.74576271,,,,,,,,,,,,,,,,503.1236,504.6763,504.6763,511.853,return,4.8983,,87.23958333,,,,,,FBP-PT-91.png,0.45,1.2,30,0.75,0,9,9,29,1,,,,,,,,,,,,,,,,,,,,,,,,,,,,,,,,,,,,,,,,
,,,,,V3_055,19,female,2024-11-07_16h51.13.379,jersey_experiment_5_v3,2023.2.2,Win32,84.74576271,,,,,,,,,,,,,,,,511.8533,513.4059,513.406,521.3592,return,5.5534,,67.578125,,,,,,FBP-RB-71.png,0.37,1.2,47,0.75,0,10,10,46,1,,,,,,,,,,,,,,,,,,,,,,,,,,,,,,,,,,,,,,,,
,,,,,V3_055,19,female,2024-11-07_16h51.13.379,jersey_experiment_5_v3,2023.2.2,Win32,84.74576271,,,,,,,,,,,,,,,,521.3594,522.6534,522.6534,526.9476,return,1.2789,,60.80729167,,,,,,FBP-OG-71.png,0.4,1.2,33,0.5,0,11,11,32,1,,,,,,,,,,,,,,,,,,,,,,,,,,,,,,,,,,,,,,,,
,,,,,V3_055,19,female,2024-11-07_16h51.13.379,jersey_experiment_5_v3,2023.2.2,Win32,84.74576271,,,,,,,,,,,,,,,,526.9478,528.2418,528.2419,533.7597,return,2.228,,29.94791667,,,,,,FBP-OG-81.png,0.35,1.2,36,0.5,0,12,12,35,1,,,,,,,,,,,,,,,,,,,,,,,,,,,,,,,,,,,,,,,,
,,,,,V3_055,19,female,2024-11-07_16h51.13.379,jersey_experiment_5_v3,2023.2.2,Win32,84.74576271,,,,,,,,,,,,,,,,533.76,535.3128,535.3128,541.0423,return,3.6714,,14.32291667,,,,,,FBP-PT-91.png,0.35,1.2,26,0.75,0,13,13,25,1,,,,,,,,,,,,,,,,,,,,,,,,,,,,,,,,,,,,,,,,
,,,,,V3_055,19,female,2024-11-07_16h51.13.379,jersey_experiment_5_v3,2023.2.2,Win32,84.74576271,,,,,,,,,,,,,,,,541.0426,542.3365,542.3365,546.3837,return,1.4859,,25.65104167,,,,,,FBP-OG-91.png,0.35,1.2,41,0.5,0,14,14,40,1,,,,,,,,,,,,,,,,,,,,,,,,,,,,,,,,,,,,,,,,
,,,,,V3_055,19,female,2024-11-07_16h51.13.379,jersey_experiment_5_v3,2023.2.2,Win32,84.74576271,,,,,,,,,,,,,,,,546.384,547.9366,547.9368,553.8429,return,2.4085,,89.84375,,,,,,FBP-PT-71.png,0.43,1.2,19,0.75,0,15,15,18,1,,,,,,,,,,,,,,,,,,,,,,,,,,,,,,,,,,,,,,,,
,,,,,V3_055,19,female,2024-11-07_16h51.13.379,jersey_experiment_5_v3,2023.2.2,Win32,84.74576271,,,,,,,,,,,,,,,,553.8432,555.1369,555.137,558.2078,return,1.4612,,97.265625,,,,,,FBP-OG-91.png,0.45,1.2,45,0.5,0,16,16,44,1,,,,,,,,,,,,,,,,,,,,,,,,,,,,,,,,,,,,,,,,
,,,,,V3_055,19,female,2024-11-07_16h51.13.379,jersey_experiment_5_v3,2023.2.2,Win32,84.74576271,,,,,,,,,,,,,,,,558.208,559.7607,559.7607,562.443,return,1.314,,75.13020833,,,,,,FBP-RB-71.png,0.4,1.2,48,0.75,0,17,17,47,1,,,,,,,,,,,,,,,,,,,,,,,,,,,,,,,,,,,,,,,,
,,,,,V3_055,19,female,2024-11-07_16h51.13.379,jersey_experiment_5_v3,2023.2.2,Win32,84.74576271,,,,,,,,,,,,,,,,562.4433,563.7373,563.7374,571.7728,return,6.1713,,56.640625,,,,,,FBP-OG-71.png,0.37,1.2,32,0.5,0,18,18,31,1,,,,,,,,,,,,,,,,,,,,,,,,,,,,,,,,,,,,,,,,
,,,,,V3_055,19,female,2024-11-07_16h51.13.379,jersey_experiment_5_v3,2023.2.2,Win32,84.74576271,,,,,,,,,,,,,,,,571.7731,573.3258,573.3259,578.5144,return,3.1278,,36.58854167,,,,,,FBP-PT-71.png,0.35,1.2,16,0.75,0,19,19,15,1,,,,,,,,,,,,,,,,,,,,,,,,,,,,,,,,,,,,,,,,
,,,,,V3_055,19,female,2024-11-07_16h51.13.379,jersey_experiment_5_v3,2023.2.2,Win32,84.74576271,,,,,,,,,,,,,,,,578.5147,580.0674,580.0674,585.2322,return,2.5999,,69.40104167,,,,,,FBP-YG-17.png,0.4,1.2,3,0.75,0,20,20,2,1,,,,,,,,,,,,,,,,,,,,,,,,,,,,,,,,,,,,,,,,
,,,,,V3_055,19,female,2024-11-07_16h51.13.379,jersey_experiment_5_v3,2023.2.2,Win32,84.74576271,,,,,,,,,,,,,,,,585.2325,586.5264,586.5264,589.3148,return,1.1766,,77.99479167,,,,,,FBP-OG-81.png,0.4,1.2,38,0.5,0,21,21,37,1,,,,,,,,,,,,,,,,,,,,,,,,,,,,,,,,,,,,,,,,
,,,,,V3_055,19,female,2024-11-07_16h51.13.379,jersey_experiment_5_v3,2023.2.2,Win32,84.74576271,,,,,,,,,,,,,,,,589.3151,590.8679,590.8679,594.7738,return,1.6923,,26.04166667,,,,,,FBP-YG-19.png,0.35,1.2,11,0.75,0,22,22,10,1,,,,,,,,,,,,,,,,,,,,,,,,,,,,,,,,,,,,,,,,
,,,,,V3_055,19,female,2024-11-07_16h51.13.379,jersey_experiment_5_v3,2023.2.2,Win32,84.74576271,,,,,,,,,,,,,,,,594.774,596.0679,596.068,600.868,return,2.4496,,66.796875,,,,,,FBP-OG-81.png,0.37,1.2,37,0.5,0,23,23,36,1,,,,,,,,,,,,,,,,,,,,,,,,,,,,,,,,,,,,,,,,
,,,,,V3_055,19,female,2024-11-07_16h51.13.379,jersey_experiment_5_v3,2023.2.2,Win32,84.74576271,,,,,,,,,,,,,,,,600.8682,602.4211,602.4211,607.233,return,1.7065,,61.06770833,,,,,,FBP-PT-71.png,0.37,1.2,17,0.75,0,24,24,16,1,,,,,,,,,,,,,,,,,,,,,,,,,,,,,,,,,,,,,,,,
,,,,,V3_055,19,female,2024-11-07_16h51.13.379,jersey_experiment_5_v3,2023.2.2,Win32,84.74576271,,,,,,,,,,,,,,,,607.2334,608.5271,608.5272,612.598,return,2.1178,,76.69270833,,,,,,FBP-OG-81.png,0.43,1.2,39,0.5,0,25,25,38,1,,,,,,,,,,,,,,,,,,,,,,,,,,,,,,,,,,,,,,,,
,,,,,V3_055,19,female,2024-11-07_16h51.13.379,jersey_experiment_5_v3,2023.2.2,Win32,84.74576271,,,,,,,,,,,,,,,,612.5982,614.1509,614.151,617.1864,return,1.6345,,86.84895833,,,,,,FBP-RB-81.png,0.43,1.2,54,0.75,0,26,26,53,1,,,,,,,,,,,,,,,,,,,,,,,,,,,,,,,,,,,,,,,,
,,,,,V3_055,19,female,2024-11-07_16h51.13.379,jersey_experiment_5_v3,2023.2.2,Win32,84.74576271,,,,,,,,,,,,,,,,617.1865,618.4805,618.4805,621.1159,return,1.2414,,87.63020833,,,,,,FBP-OG-91.png,0.43,1.2,44,0.5,0,27,27,43,1,,,,,,,,,,,,,,,,,,,,,,,,,,,,,,,,,,,,,,,,
,,,,,V3_055,19,female,2024-11-07_16h51.13.379,jersey_experiment_5_v3,2023.2.2,Win32,84.74576271,,,,,,,,,,,,,,,,621.1162,622.6689,622.6689,628.3986,return,2.3226,,65.10416667,,,,,,FBP-RB-71.png,0.35,1.2,46,0.75,0,28,28,45,1,,,,,,,,,,,,,,,,,,,,,,,,,,,,,,,,,,,,,,,,
,,,,,V3_055,19,female,2024-11-07_16h51.13.379,jersey_experiment_5_v3,2023.2.2,Win32,84.74576271,,,,,,,,,,,,,,,,628.3988,629.9515,629.9516,632.975,return,1.0863,,84.24479167,,,,,,FBP-YG-17.png,0.45,1.2,5,0.75,0,29,29,4,1,,,,,,,,,,,,,,,,,,,,,,,,,,,,,,,,,,,,,,,,
,,,,,V3_055,19,female,2024-11-07_16h51.13.379,jersey_experiment_5_v3,2023.2.2,Win32,84.74576271,,,,,,,,,,,,,,,,632.9752,634.5282,634.5282,637.1988,return,1.2395,,85.67708333,,,,,,FBP-RB-91.png,0.45,1.2,60,0.75,0,30,30,59,1,,,,,,,,,,,,,,,,,,,,,,,,,,,,,,,,,,,,,,,,
,,,,,V3_055,19,female,2024-11-07_16h51.13.379,jersey_experiment_5_v3,2023.2.2,Win32,84.74576271,,,,,,,,,,,,,,,,637.1991,638.7517,638.7518,641.8696,return,0.8997,,75.390625,,,,,,FBP-RB-91.png,0.43,1.2,59,0.75,0,31,31,58,1,,,,,,,,,,,,,,,,,,,,,,,,,,,,,,,,,,,,,,,,
,,,,,V3_055,19,female,2024-11-07_16h51.13.379,jersey_experiment_5_v3,2023.2.2,Win32,84.74576271,,,,,,,,,,,,,,,,641.8698,643.4225,643.4226,646.2108,return,1.1433,,75.65104167,,,,,,FBP-PT-91.png,0.43,1.2,29,0.75,0,32,32,28,1,,,,,,,,,,,,,,,,,,,,,,,,,,,,,,,,,,,,,,,,
,,,,,V3_055,19,female,2024-11-07_16h51.13.379,jersey_experiment_5_v3,2023.2.2,Win32,84.74576271,,,,,,,,,,,,,,,,646.2111,647.7638,647.7639,652.6346,return,1.8085,,3.776041667,,,,,,FBP-RB-91.png,0.35,1.2,56,0.75,0,33,33,55,1,,,,,,,,,,,,,,,,,,,,,,,,,,,,,,,,,,,,,,,,
,,,,,V3_055,19,female,2024-11-07_16h51.13.379,jersey_experiment_5_v3,2023.2.2,Win32,84.74576271,,,,,,,,,,,,,,,,652.6349,653.9289,653.929,658.5408,return,2.2157,,90.75520833,,,,,,FBP-OG-71.png,0.45,1.2,35,0.5,0,34,34,34,1,,,,,,,,,,,,,,,,,,,,,,,,,,,,,,,,,,,,,,,,
,,,,,V3_055,19,female,2024-11-07_16h51.13.379,jersey_experiment_5_v3,2023.2.2,Win32,84.74576271,,,,,,,,,,,,,,,,658.5411,660.0938,660.0938,666.341,return,1.9867,,4.296875,,,,,,FBP-RB-81.png,0.37,1.2,52,0.75,0,35,35,51,1,,,,,,,,,,,,,,,,,,,,,,,,,,,,,,,,,,,,,,,,
,,,,,V3_055,19,female,2024-11-07_16h51.13.379,jersey_experiment_5_v3,2023.2.2,Win32,84.74576271,,,,,,,,,,,,,,,,666.3413,667.894,667.8941,671.7648,return,1.8592,,0.260416667,,,,,,FBP-RB-81.png,0.35,1.2,51,0.75,0,36,36,50,1,,,,,,,,,,,,,,,,,,,,,,,,,,,,,,,,,,,,,,,,
,,,,,V3_055,19,female,2024-11-07_16h51.13.379,jersey_experiment_5_v3,2023.2.2,Win32,84.74576271,,,,,,,,,,,,,,,,671.7651,673.059,673.059,679.4709,return,3.6983,,69.40104167,,,,,,FBP-OG-71.png,0.43,1.2,34,0.5,0,37,37,33,1,,,,,,,,,,,,,,,,,,,,,,,,,,,,,,,,,,,,,,,,
,,,,,V3_055,19,female,2024-11-07_16h51.13.379,jersey_experiment_5_v3,2023.2.2,Win32,84.74576271,,,,,,,,,,,,,,,,679.4713,681.024,681.024,684.3182,return,1.4497,,85.80729167,,,,,,FBP-YG-19.png,0.45,1.2,15,0.75,0,38,38,14,1,,,,,,,,,,,,,,,,,,,,,,,,,,,,,,,,,,,,,,,,
,,,,,V3_055,19,female,2024-11-07_16h51.13.379,jersey_experiment_5_v3,2023.2.2,Win32,84.74576271,,,,,,,,,,,,,,,,684.3184,685.8712,685.8712,689.7772,return,1.6105,,66.92708333,,,,,,FBP-RB-91.png,0.4,1.2,58,0.75,0,39,39,57,1,,,,,,,,,,,,,,,,,,,,,,,,,,,,,,,,,,,,,,,,
,,,,,V3_055,19,female,2024-11-07_16h51.13.379,jersey_experiment_5_v3,2023.2.2,Win32,84.74576271,,,,,,,,,,,,,,,,689.7774,691.3302,691.3303,696.8951,return,3.3098,,88.28125,,,,,,FBP-YG-19.png,0.43,1.2,14,0.75,0,40,40,13,1,,,,,,,,,,,,,,,,,,,,,,,,,,,,,,,,,,,,,,,,
,,,,,V3_055,19,female,2024-11-07_16h51.13.379,jersey_experiment_5_v3,2023.2.2,Win32,84.74576271,,,,,,,,,,,,,,,,696.8953,698.448,698.448,701.9305,return,1.5262,,64.19270833,,,,,,FBP-YG-18.png,0.37,1.2,7,0.75,0,41,41,6,1,,,,,,,,,,,,,,,,,,,,,,,,,,,,,,,,,,,,,,,,
,,,,,V3_055,19,female,2024-11-07_16h51.13.379,jersey_experiment_5_v3,2023.2.2,Win32,84.74576271,,,,,,,,,,,,,,,,701.9307,703.4836,703.4837,706.6719,return,1.2392,,29.03645833,,,,,,FBP-YG-17.png,0.35,1.2,1,0.75,0,42,42,0,1,,,,,,,,,,,,,,,,,,,,,,,,,,,,,,,,,,,,,,,,
,,,,,V3_055,19,female,2024-11-07_16h51.13.379,jersey_experiment_5_v3,2023.2.2,Win32,84.74576271,,,,,,,,,,,,,,,,706.6723,708.2277,708.2278,713.373,return,1.4274,,62.23958333,,,,,,FBP-PT-91.png,0.37,1.2,27,0.75,0,43,43,26,1,,,,,,,,,,,,,,,,,,,,,,,,,,,,,,,,,,,,,,,,
,,,,,V3_055,19,female,2024-11-07_16h51.13.379,jersey_experiment_5_v3,2023.2.2,Win32,84.74576271,,,,,,,,,,,,,,,,713.3732,714.9254,714.9254,717.4668,return,0.9564,,76.5625,,,,,,FBP-PT-71.png,0.45,1.2,20,0.75,0,44,44,19,1,,,,,,,,,,,,,,,,,,,,,,,,,,,,,,,,,,,,,,,,
,,,,,V3_055,19,female,2024-11-07_16h51.13.379,jersey_experiment_5_v3,2023.2.2,Win32,84.74576271,,,,,,,,,,,,,,,,717.4669,718.7695,718.7695,723.0519,return,1.3258,,56.640625,,,,,,FBP-OG-91.png,0.37,1.2,42,0.5,0,45,45,41,1,,,,,,,,,,,,,,,,,,,,,,,,,,,,,,,,,,,,,,,,
,,,,,V3_055,19,female,2024-11-07_16h51.13.379,jersey_experiment_5_v3,2023.2.2,Win32,84.74576271,,,,,,,,,,,,,,,,723.052,724.3433,724.3433,729.9144,return,3.6237,,30.59895833,,,,,,FBP-OG-71.png,0.35,1.2,31,0.5,0,46,46,30,1,,,,,,,,,,,,,,,,,,,,,,,,,,,,,,,,,,,,,,,,
,,,,,V3_055,19,female,2024-11-07_16h51.13.379,jersey_experiment_5_v3,2023.2.2,Win32,84.74576271,,,,,,,,,,,,,,,,729.9146,731.4675,731.4675,738.1084,return,4.136,,63.28125,,,,,,FBP-PT-71.png,0.4,1.2,18,0.75,0,47,47,17,1,,,,,,,,,,,,,,,,,,,,,,,,,,,,,,,,,,,,,,,,
,,,,,V3_055,19,female,2024-11-07_16h51.13.379,jersey_experiment_5_v3,2023.2.2,Win32,84.74576271,,,,,,,,,,,,,,,,738.1087,739.6615,739.6615,743.147,return,1.7029,,42.31770833,,,,,,FBP-YG-19.png,0.37,1.2,12,0.75,0,48,48,11,1,,,,,,,,,,,,,,,,,,,,,,,,,,,,,,,,,,,,,,,,
,,,,,V3_055,19,female,2024-11-07_16h51.13.379,jersey_experiment_5_v3,2023.2.2,Win32,84.74576271,,,,,,,,,,,,,,,,743.1472,744.7003,744.7003,747.5944,return,0.9415,,69.01041667,,,,,,FBP-PT-81.png,0.45,1.2,25,0.75,0,49,49,24,1,,,,,,,,,,,,,,,,,,,,,,,,,,,,,,,,,,,,,,,,
,,,,,V3_055,19,female,2024-11-07_16h51.13.379,jersey_experiment_5_v3,2023.2.2,Win32,84.74576271,,,,,,,,,,,,,,,,747.5945,749.1473,749.1473,751.6178,return,0.8792,,55.59895833,,,,,,FBP-YG-19.png,0.4,1.2,13,0.75,0,50,50,12,1,,,,,,,,,,,,,,,,,,,,,,,,,,,,,,,,,,,,,,,,
,,,,,V3_055,19,female,2024-11-07_16h51.13.379,jersey_experiment_5_v3,2023.2.2,Win32,84.74576271,,,,,,,,,,,,,,,,751.618,753.1709,753.1709,755.6098,return,0.7913,,60.15625,,,,,,FBP-PT-81.png,0.4,1.2,23,0.75,0,51,51,22,1,,,,,,,,,,,,,,,,,,,,,,,,,,,,,,,,,,,,,,,,
,,,,,V3_055,19,female,2024-11-07_16h51.13.379,jersey_experiment_5_v3,2023.2.2,Win32,84.74576271,,,,,,,,,,,,,,,,755.6099,757.1627,757.1627,759.3748,return,0.6828,,66.796875,,,,,,FBP-RB-71.png,0.43,1.2,49,0.75,0,52,52,48,1,,,,,,,,,,,,,,,,,,,,,,,,,,,,,,,,,,,,,,,,
,,,,,V3_055,19,female,2024-11-07_16h51.13.379,jersey_experiment_5_v3,2023.2.2,Win32,84.74576271,,,,,,,,,,,,,,,,759.375,760.9211,760.9211,762.4806,return,0.4154,,74.73958333,,,,,,FBP-RB-81.png,0.45,1.2,55,0.75,0,53,53,54,1,,,,,,,,,,,,,,,,,,,,,,,,,,,,,,,,,,,,,,,,
,,,,,V3_055,19,female,2024-11-07_16h51.13.379,jersey_experiment_5_v3,2023.2.2,Win32,84.74576271,,,,,,,,,,,,,,,,762.4808,764.0335,764.0336,767.1014,return,1.436,,25.26041667,,,,,,FBP-YG-18.png,0.35,1.2,6,0.75,0,54,54,5,1,,,,,,,,,,,,,,,,,,,,,,,,,,,,,,,,,,,,,,,,
,,,,,V3_055,19,female,2024-11-07_16h51.13.379,jersey_experiment_5_v3,2023.2.2,Win32,84.74576271,,,,,,,,,,,,,,,,767.1016,768.6454,768.6454,771.6808,return,0.8624,,60.9375,,,,,,FBP-YG-18.png,0.43,1.2,9,0.75,0,55,55,8,1,,,,,,,,,,,,,,,,,,,,,,,,,,,,,,,,,,,,,,,,
,,,,,V3_055,19,female,2024-11-07_16h51.13.379,jersey_experiment_5_v3,2023.2.2,Win32,84.74576271,,,,,,,,,,,,,,,,771.681,773.234,773.234,775.1164,return,0.4153,,50.26041667,,,,,,FBP-YG-17.png,0.37,1.2,2,0.75,0,56,56,1,1,,,,,,,,,,,,,,,,,,,,,,,,,,,,,,,,,,,,,,,,
,,,,,V3_055,19,female,2024-11-07_16h51.13.379,jersey_experiment_5_v3,2023.2.2,Win32,84.74576271,,,,,,,,,,,,,,,,775.1165,776.6627,776.6628,778.246,return,0.6588,,55.859375,,,,,,FBP-PT-91.png,0.4,1.2,28,0.75,0,57,57,27,1,,,,,,,,,,,,,,,,,,,,,,,,,,,,,,,,,,,,,,,,
,,,,,V3_055,19,female,2024-11-07_16h51.13.379,jersey_experiment_5_v3,2023.2.2,Win32,84.74576271,,,,,,,,,,,,,,,,778.2461,779.799,779.799,781.7756,return,0.6828,,33.203125,,,,,,FBP-PT-81.png,0.35,1.2,21,0.75,0,58,58,20,1,,,,,,,,,,,,,,,,,,,,,,,,,,,,,,,,,,,,,,,,
,,,,,V3_055,19,female,2024-11-07_16h51.13.379,jersey_experiment_5_v3,2023.2.2,Win32,84.74576271,,,,,,,,,,,,,,,,781.7758,783.3283,783.3283,785.3991,return,0.4946,,75.65104167,,,,,,FBP-YG-18.png,0.45,1.2,10,0.75,0,59,59,9,1,,,,,,,,,,,,,,,,,,,,,,,,,,,,,,,,,,,,,,,,
,,,,,V3_055,19,female,2024-11-07_16h51.13.379,jersey_experiment_5_v3,2023.2.2,Win32,84.74576271,,,,,,,,,,,,,,,,,,,,,,,,,,,,,,,,,,,,,,,785.3991,905.3971,,,,,,,,,,,,,,,,,,,,,,,,,,,,,,,,,,,,,,
,,,,,V3_055,19,female,2024-11-07_16h51.13.379,jersey_experiment_5_v3,2023.2.2,Win32,84.74576271,,,,,,,,,,,,,,,,,,,,,,,,,,,,,,,,,,,,,,,,,905.3971,912.7148,return,7.3023,,,,,,,,,,,,,,,,,,,,,,,,,,,,,,,,,,
,,,,,V3_055,19,female,2024-11-07_16h51.13.379,jersey_experiment_5_v3,2023.2.2,Win32,84.74576271,,,,,,,,,,,,,,,,912.7161,914.0154,914.0155,917.7805,return,0.9415,,56.51041667,,,,,,FBP-PT-18.png,0.35,1.2,21,0.5,,,,,,,,,,,,,0,0,0,20,1,,,,,,,,,,,,,,,,,,,,,,,,,,,,
,,,,,V3_055,19,female,2024-11-07_16h51.13.379,jersey_experiment_5_v3,2023.2.2,Win32,84.74576271,,,,,,,,,,,,,,,,917.7807,919.083,919.083,921.8512,return,1.1079,,72.13541667,,,,,,FBP-YG-71.png,0.43,1.2,4,0.5,,,,,,,,,,,,,0,1,1,3,1,,,,,,,,,,,,,,,,,,,,,,,,,,,,
,,,,,V3_055,19,female,2024-11-07_16h51.13.379,jersey_experiment_5_v3,2023.2.2,Win32,84.74576271,,,,,,,,,,,,,,,,921.8513,923.1539,923.1539,925.9303,return,0.5733,,63.80208333,,,,,,FBP-PT-17.png,0.4,1.2,18,0.5,,,,,,,,,,,,,0,2,2,17,1,,,,,,,,,,,,,,,,,,,,,,,,,,,,
,,,,,V3_055,19,female,2024-11-07_16h51.13.379,jersey_experiment_5_v3,2023.2.2,Win32,84.74576271,,,,,,,,,,,,,,,,925.9305,927.2396,927.2396,931.0515,return,2.5091,,30.078125,,,,,,FBP-YG-91.png,0.35,1.2,11,0.5,,,,,,,,,,,,,0,3,3,10,1,,,,,,,,,,,,,,,,,,,,,,,,,,,,
,,,,,V3_055,19,female,2024-11-07_16h51.13.379,jersey_experiment_5_v3,2023.2.2,Win32,84.74576271,,,,,,,,,,,,,,,,931.0516,932.6044,932.6044,934.4164,return,0.518,,38.93229167,,,,,,FBP-OG-18.png,0.35,1.2,36,0.75,,,,,,,,,,,,,0,4,4,35,1,,,,,,,,,,,,,,,,,,,,,,,,,,,,
,,,,,V3_055,19,female,2024-11-07_16h51.13.379,jersey_experiment_5_v3,2023.2.2,Win32,84.74576271,,,,,,,,,,,,,,,,934.4166,935.9694,935.9694,938.1809,return,0.6267,,64.453125,,,,,,FBP-OG-19.png,0.43,1.2,44,0.75,,,,,,,,,,,,,0,5,5,43,1,,,,,,,,,,,,,,,,,,,,,,,,,,,,
,,,,,V3_055,19,female,2024-11-07_16h51.13.379,jersey_experiment_5_v3,2023.2.2,Win32,84.74576271,,,,,,,,,,,,,,,,938.1811,939.4837,939.4837,941.5227,return,0.5563,,61.58854167,,,,,,FBP-RB-19.png,0.37,1.2,57,0.5,,,,,,,,,,,,,0,6,6,56,1,,,,,,,,,,,,,,,,,,,,,,,,,,,,
,,,,,V3_055,19,female,2024-11-07_16h51.13.379,jersey_experiment_5_v3,2023.2.2,Win32,84.74576271,,,,,,,,,,,,,,,,941.5229,942.8165,942.8165,944.9344,return,0.6036,,75.26041667,,,,,,FBP-YG-81.png,0.45,1.2,10,0.5,,,,,,,,,,,,,0,7,7,9,1,,,,,,,,,,,,,,,,,,,,,,,,,,,,
,,,,,V3_055,19,female,2024-11-07_16h51.13.379,jersey_experiment_5_v3,2023.2.2,Win32,84.74576271,,,,,,,,,,,,,,,,944.9346,946.2283,946.2283,948.3313,return,0.8003,,65.625,,,,,,FBP-YG-71.png,0.4,1.2,3,0.5,,,,,,,,,,,,,0,8,8,2,1,,,,,,,,,,,,,,,,,,,,,,,,,,,,
,,,,,V3_055,19,female,2024-11-07_16h51.13.379,jersey_experiment_5_v3,2023.2.2,Win32,84.74576271,,,,,,,,,,,,,,,,948.3315,949.8753,949.8753,952.4637,return,1.3411,,61.328125,,,,,,FBP-OG-17.png,0.4,1.2,33,0.75,,,,,,,,,,,,,0,9,9,32,1,,,,,,,,,,,,,,,,,,,,,,,,,,,,
,,,,,V3_055,19,female,2024-11-07_16h51.13.379,jersey_experiment_5_v3,2023.2.2,Win32,84.74576271,,,,,,,,,,,,,,,,952.4639,953.7579,953.758,956.6372,return,1.3648,,55.078125,,,,,,FBP-PT-18.png,0.37,1.2,22,0.5,,,,,,,,,,,,,0,10,10,21,1,,,,,,,,,,,,,,,,,,,,,,,,,,,,
,,,,,V3_055,19,female,2024-11-07_16h51.13.379,jersey_experiment_5_v3,2023.2.2,Win32,84.74576271,,,,,,,,,,,,,,,,956.6373,957.9464,957.9464,959.6642,return,0.4474,,69.66145833,,,,,,FBP-RB-17.png,0.43,1.2,49,0.5,,,,,,,,,,,,,0,11,11,48,1,,,,,,,,,,,,,,,,,,,,,,,,,,,,
,,,,,V3_055,19,female,2024-11-07_16h51.13.379,jersey_experiment_5_v3,2023.2.2,Win32,84.74576271,,,,,,,,,,,,,,,,959.6643,960.9583,960.9583,964.5673,return,1.4119,,51.04166667,,,,,,FBP-YG-71.png,0.37,1.2,2,0.5,,,,,,,,,,,,,0,12,12,1,1,,,,,,,,,,,,,,,,,,,,,,,,,,,,
,,,,,V3_055,19,female,2024-11-07_16h51.13.379,jersey_experiment_5_v3,2023.2.2,Win32,84.74576271,,,,,,,,,,,,,,,,964.5675,966.1111,966.1111,971.2881,return,1.1908,,47.91666667,,,,,,FBP-OG-17.png,0.37,1.2,32,0.75,,,,,,,,,,,,,0,13,13,31,1,,,,,,,,,,,,,,,,,,,,,,,,,,,,
,,,,,V3_055,19,female,2024-11-07_16h51.13.379,jersey_experiment_5_v3,2023.2.2,Win32,84.74576271,,,,,,,,,,,,,,,,971.2882,972.5908,972.5909,977.6176,return,3.1298,,30.20833333,,,,,,FBP-RB-17.png,0.35,1.2,46,0.5,,,,,,,,,,,,,0,14,14,45,1,,,,,,,,,,,,,,,,,,,,,,,,,,,,
,,,,,V3_055,19,female,2024-11-07_16h51.13.379,jersey_experiment_5_v3,2023.2.2,Win32,84.74576271,,,,,,,,,,,,,,,,977.6177,978.9118,978.9118,981.1946,return,0.5092,,74.08854167,,,,,,FBP-RB-19.png,0.43,1.2,59,0.5,,,,,,,,,,,,,0,15,15,58,1,,,,,,,,,,,,,,,,,,,,,,,,,,,,
,,,,,V3_055,19,female,2024-11-07_16h51.13.379,jersey_experiment_5_v3,2023.2.2,Win32,84.74576271,,,,,,,,,,,,,,,,981.1948,982.7411,982.7411,985.3208,return,1.4442,,43.61979167,,,,,,FBP-OG-17.png,0.35,1.2,31,0.75,,,,,,,,,,,,,0,16,16,30,1,,,,,,,,,,,,,,,,,,,,,,,,,,,,
,,,,,V3_055,19,female,2024-11-07_16h51.13.379,jersey_experiment_5_v3,2023.2.2,Win32,84.74576271,,,,,,,,,,,,,,,,985.3211,986.6282,986.6282,988.4184,return,0.5095,,54.94791667,,,,,,FBP-PT-18.png,0.4,1.2,23,0.5,,,,,,,,,,,,,0,17,17,22,1,,,,,,,,,,,,,,,,,,,,,,,,,,,,
,,,,,V3_055,19,female,2024-11-07_16h51.13.379,jersey_experiment_5_v3,2023.2.2,Win32,84.74576271,,,,,,,,,,,,,,,,988.4186,989.9712,989.9713,991.6655,return,0.6358,,65.49479167,,,,,,FBP-OG-17.png,0.43,1.2,34,0.75,,,,,,,,,,,,,0,18,18,33,1,,,,,,,,,,,,,,,,,,,,,,,,,,,,
,,,,,V3_055,19,female,2024-11-07_16h51.13.379,jersey_experiment_5_v3,2023.2.2,Win32,84.74576271,,,,,,,,,,,,,,,,991.6657,993.2122,993.2122,994.9445,return,0.5881,,50.26041667,,,,,,FBP-OG-19.png,0.35,1.2,41,0.75,,,,,,,,,,,,,0,19,19,40,1,,,,,,,,,,,,,,,,,,,,,,,,,,,,
,,,,,V3_055,19,female,2024-11-07_16h51.13.379,jersey_experiment_5_v3,2023.2.2,Win32,84.74576271,,,,,,,,,,,,,,,,994.9447,996.2473,996.2473,998.8474,return,0.9082,,50.390625,,,,,,FBP-PT-17.png,0.37,1.2,17,0.5,,,,,,,,,,,,,0,20,20,16,1,,,,,,,,,,,,,,,,,,,,,,,,,,,,
,,,,,V3_055,19,female,2024-11-07_16h51.13.379,jersey_experiment_5_v3,2023.2.2,Win32,84.74576271,,,,,,,,,,,,,,,,998.8476,1000.4005,1000.4005,1004.3182,return,2.5456,,72.265625,,,,,,FBP-OG-17.png,0.45,1.2,35,0.75,,,,,,,,,,,,,0,21,21,34,1,,,,,,,,,,,,,,,,,,,,,,,,,,,,
,,,,,V3_055,19,female,2024-11-07_16h51.13.379,jersey_experiment_5_v3,2023.2.2,Win32,84.74576271,,,,,,,,,,,,,,,,1004.3183,1005.6123,1005.6123,1007.9066,return,0.5088,,73.828125,,,,,,FBP-PT-19.png,0.45,1.2,30,0.5,,,,,,,,,,,,,0,22,22,29,1,,,,,,,,,,,,,,,,,,,,,,,,,,,,
,,,,,V3_055,19,female,2024-11-07_16h51.13.379,jersey_experiment_5_v3,2023.2.2,Win32,84.74576271,,,,,,,,,,,,,,,,1007.907,1009.4596,1009.4596,1012.2714,return,1.062,,69.40104167,,,,,,FBP-OG-18.png,0.43,1.2,39,0.75,,,,,,,,,,,,,0,23,23,38,1,,,,,,,,,,,,,,,,,,,,,,,,,,,,
,,,,,V3_055,19,female,2024-11-07_16h51.13.379,jersey_experiment_5_v3,2023.2.2,Win32,84.74576271,,,,,,,,,,,,,,,,1012.2718,1013.5656,1013.5656,1016.0363,return,0.7617,,40.36458333,,,,,,FBP-RB-17.png,0.37,1.2,47,0.5,,,,,,,,,,,,,0,24,24,46,1,,,,,,,,,,,,,,,,,,,,,,,,,,,,
,,,,,V3_055,19,female,2024-11-07_16h51.13.379,jersey_experiment_5_v3,2023.2.2,Win32,84.74576271,,,,,,,,,,,,,,,,1016.0365,1017.3303,1017.3304,1019.4247,return,0.8021,,23.30729167,,,,,,FBP-RB-19.png,0.35,1.2,56,0.5,,,,,,,,,,,,,0,25,25,55,1,,,,,,,,,,,,,,,,,,,,,,,,,,,,
,,,,,V3_055,19,female,2024-11-07_16h51.13.379,jersey_experiment_5_v3,2023.2.2,Win32,84.74576271,,,,,,,,,,,,,,,,1019.4249,1020.7189,1020.7189,1022.6719,return,0.529,,26.04166667,,,,,,FBP-RB-18.png,0.37,1.2,52,0.5,,,,,,,,,,,,,0,26,26,51,1,,,,,,,,,,,,,,,,,,,,,,,,,,,,
,,,,,V3_055,19,female,2024-11-07_16h51.13.379,jersey_experiment_5_v3,2023.2.2,Win32,84.74576271,,,,,,,,,,,,,,,,1022.6721,1023.966,1023.966,1026.161,return,0.5801,,67.70833333,,,,,,FBP-YG-81.png,0.43,1.2,9,0.5,,,,,,,,,,,,,0,27,27,8,1,,,,,,,,,,,,,,,,,,,,,,,,,,,,
,,,,,V3_055,19,female,2024-11-07_16h51.13.379,jersey_experiment_5_v3,2023.2.2,Win32,84.74576271,,,,,,,,,,,,,,,,1026.1611,1027.4637,1027.4637,1029.5342,return,0.8474,,34.50520833,,,,,,FBP-YG-71.png,0.35,1.2,1,0.5,,,,,,,,,,,,,0,28,28,0,1,,,,,,,,,,,,,,,,,,,,,,,,,,,,
,,,,,V3_055,19,female,2024-11-07_16h51.13.379,jersey_experiment_5_v3,2023.2.2,Win32,84.74576271,,,,,,,,,,,,,,,,1029.5344,1031.0788,1031.0788,1034.5429,return,1.7815,,64.0625,,,,,,FBP-OG-19.png,0.37,1.2,42,0.75,,,,,,,,,,,,,0,29,29,41,1,,,,,,,,,,,,,,,,,,,,,,,,,,,,
,,,,,V3_055,19,female,2024-11-07_16h51.13.379,jersey_experiment_5_v3,2023.2.2,Win32,84.74576271,,,,,,,,,,,,,,,,1034.5431,1035.8407,1035.8407,1037.6672,return,0.5795,,75.52083333,,,,,,FBP-PT-18.png,0.45,1.2,25,0.5,,,,,,,,,,,,,0,30,30,24,1,,,,,,,,,,,,,,,,,,,,,,,,,,,,
,,,,,V3_055,19,female,2024-11-07_16h51.13.379,jersey_experiment_5_v3,2023.2.2,Win32,84.74576271,,,,,,,,,,,,,,,,1037.6674,1038.961,1038.961,1040.2173,return,0.3535,,79.6875,,,,,,FBP-RB-19.png,0.45,1.2,60,0.5,,,,,,,,,,,,,0,31,31,59,1,,,,,,,,,,,,,,,,,,,,,,,,,,,,
,,,,,V3_055,19,female,2024-11-07_16h51.13.379,jersey_experiment_5_v3,2023.2.2,Win32,84.74576271,,,,,,,,,,,,,,,,1040.2174,1041.5262,1041.5262,1044.1551,return,0.6986,,55.72916667,,,,,,FBP-RB-18.png,0.4,1.2,53,0.5,,,,,,,,,,,,,0,32,32,52,1,,,,,,,,,,,,,,,,,,,,,,,,,,,,
,,,,,V3_055,19,female,2024-11-07_16h51.13.379,jersey_experiment_5_v3,2023.2.2,Win32,84.74576271,,,,,,,,,,,,,,,,1044.1553,1045.6995,1045.6995,1047.6444,return,0.3212,,58.07291667,,,,,,FBP-OG-18.png,0.37,1.2,37,0.75,,,,,,,,,,,,,0,33,33,36,1,,,,,,,,,,,,,,,,,,,,,,,,,,,,
,,,,,V3_055,19,female,2024-11-07_16h51.13.379,jersey_experiment_5_v3,2023.2.2,Win32,84.74576271,,,,,,,,,,,,,,,,1047.6445,1048.9381,1048.9381,1052.3789,return,2.24,,72.00520833,,,,,,FBP-PT-17.png,0.45,1.2,20,0.5,,,,,,,,,,,,,0,34,34,19,1,,,,,,,,,,,,,,,,,,,,,,,,,,,,
,,,,,V3_055,19,female,2024-11-07_16h51.13.379,jersey_experiment_5_v3,2023.2.2,Win32,84.74576271,,,,,,,,,,,,,,,,1052.3793,1053.6767,1053.6768,1055.959,return,1.2006,,51.04166667,,,,,,FBP-PT-19.png,0.37,1.2,27,0.5,,,,,,,,,,,,,0,35,35,26,1,,,,,,,,,,,,,,,,,,,,,,,,,,,,
,,,,,V3_055,19,female,2024-11-07_16h51.13.379,jersey_experiment_5_v3,2023.2.2,Win32,84.74576271,,,,,,,,,,,,,,,,1055.9591,1057.2678,1057.2678,1059.0883,return,0.5412,,61.84895833,,,,,,FBP-PT-17.png,0.43,1.2,19,0.5,,,,,,,,,,,,,0,36,36,18,1,,,,,,,,,,,,,,,,,,,,,,,,,,,,
,,,,,V3_055,19,female,2024-11-07_16h51.13.379,jersey_experiment_5_v3,2023.2.2,Win32,84.74576271,,,,,,,,,,,,,,,,1059.0885,1060.3822,1060.3823,1062.8617,return,0.4756,,50.26041667,,,,,,FBP-YG-91.png,0.37,1.2,12,0.5,,,,,,,,,,,,,0,37,37,11,1,,,,,,,,,,,,,,,,,,,,,,,,,,,,
,,,,,V3_055,19,female,2024-11-07_16h51.13.379,jersey_experiment_5_v3,2023.2.2,Win32,84.74576271,,,,,,,,,,,,,,,,1062.8619,1064.1606,1064.1606,1066.8681,return,0.7056,,57.421875,,,,,,FBP-RB-19.png,0.4,1.2,58,0.5,,,,,,,,,,,,,0,38,38,57,1,,,,,,,,,,,,,,,,,,,,,,,,,,,,
,,,,,V3_055,19,female,2024-11-07_16h51.13.379,jersey_experiment_5_v3,2023.2.2,Win32,84.74576271,,,,,,,,,,,,,,,,1066.8683,1068.171,1068.171,1070.445,return,0.8859,,50.26041667,,,,,,FBP-YG-81.png,0.35,1.2,6,0.5,,,,,,,,,,,,,0,39,39,5,1,,,,,,,,,,,,,,,,,,,,,,,,,,,,
,,,,,V3_055,19,female,2024-11-07_16h51.13.379,jersey_experiment_5_v3,2023.2.2,Win32,84.74576271,,,,,,,,,,,,,,,,1070.4452,1071.9978,1071.9978,1075.5798,return,2.2151,,71.875,,,,,,FBP-OG-18.png,0.45,1.2,40,0.75,,,,,,,,,,,,,0,40,40,39,1,,,,,,,,,,,,,,,,,,,,,,,,,,,,
,,,,,V3_055,19,female,2024-11-07_16h51.13.379,jersey_experiment_5_v3,2023.2.2,Win32,84.74576271,,,,,,,,,,,,,,,,1075.58,1076.8773,1076.8773,1078.5863,return,0.5328,,64.71354167,,,,,,FBP-PT-19.png,0.4,1.2,28,0.5,,,,,,,,,,,,,0,41,41,27,1,,,,,,,,,,,,,,,,,,,,,,,,,,,,
,,,,,V3_055,19,female,2024-11-07_16h51.13.379,jersey_experiment_5_v3,2023.2.2,Win32,84.74576271,,,,,,,,,,,,,,,,1078.5864,1079.889,1079.8891,1082.4774,return,0.4,,53.38541667,,,,,,FBP-YG-81.png,0.4,1.2,8,0.5,,,,,,,,,,,,,0,42,42,7,1,,,,,,,,,,,,,,,,,,,,,,,,,,,,
,,,,,V3_055,19,female,2024-11-07_16h51.13.379,jersey_experiment_5_v3,2023.2.2,Win32,84.74576271,,,,,,,,,,,,,,,,1082.4775,1083.7717,1083.7717,1087.6928,return,1.4122,,46.09375,,,,,,FBP-PT-17.png,0.35,1.2,16,0.5,,,,,,,,,,,,,0,43,43,15,1,,,,,,,,,,,,,,,,,,,,,,,,,,,,
,,,,,V3_055,19,female,2024-11-07_16h51.13.379,jersey_experiment_5_v3,2023.2.2,Win32,84.74576271,,,,,,,,,,,,,,,,1087.693,1089.239,1089.239,1091.1749,return,0.4151,,60.41666667,,,,,,FBP-OG-18.png,0.4,1.2,38,0.75,,,,,,,,,,,,,0,44,44,37,1,,,,,,,,,,,,,,,,,,,,,,,,,,,,
,,,,,V3_055,19,female,2024-11-07_16h51.13.379,jersey_experiment_5_v3,2023.2.2,Win32,84.74576271,,,,,,,,,,,,,,,,1091.175,1092.4746,1092.4746,1096.5488,return,2.5035,,70.3125,,,,,,FBP-PT-18.png,0.43,1.2,24,0.5,,,,,,,,,,,,,0,45,45,23,1,,,,,,,,,,,,,,,,,,,,,,,,,,,,
,,,,,V3_055,19,female,2024-11-07_16h51.13.379,jersey_experiment_5_v3,2023.2.2,Win32,84.74576271,,,,,,,,,,,,,,,,1096.549,1097.8427,1097.8427,1100.2341,return,0.4942,,73.046875,,,,,,FBP-YG-91.png,0.45,1.2,15,0.5,,,,,,,,,,,,,0,46,46,14,1,,,,,,,,,,,,,,,,,,,,,,,,,,,,
,,,,,V3_055,19,female,2024-11-07_16h51.13.379,jersey_experiment_5_v3,2023.2.2,Win32,84.74576271,,,,,,,,,,,,,,,,1100.2342,1101.7873,1101.7873,1103.4578,return,0.4858,,73.30729167,,,,,,FBP-OG-19.png,0.45,1.2,45,0.75,,,,,,,,,,,,,0,47,47,44,1,,,,,,,,,,,,,,,,,,,,,,,,,,,,
,,,,,V3_055,19,female,2024-11-07_16h51.13.379,jersey_experiment_5_v3,2023.2.2,Win32,84.74576271,,,,,,,,,,,,,,,,1103.458,1105.0044,1105.0045,1106.3992,return,0.5093,,66.53645833,,,,,,FBP-OG-19.png,0.4,1.2,43,0.75,,,,,,,,,,,,,0,48,48,42,1,,,,,,,,,,,,,,,,,,,,,,,,,,,,
,,,,,V3_055,19,female,2024-11-07_16h51.13.379,jersey_experiment_5_v3,2023.2.2,Win32,84.74576271,,,,,,,,,,,,,,,,1106.3993,1107.6933,1107.6934,1110.5637,return,0.4854,,65.75520833,,,,,,FBP-YG-91.png,0.43,1.2,14,0.5,,,,,,,,,,,,,0,49,49,13,1,,,,,,,,,,,,,,,,,,,,,,,,,,,,
,,,,,V3_055,19,female,2024-11-07_16h51.13.379,jersey_experiment_5_v3,2023.2.2,Win32,84.74576271,,,,,,,,,,,,,,,,1110.564,1111.8579,1111.8579,1114.47,return,1.0739,,52.08333333,,,,,,FBP-YG-81.png,0.37,1.2,7,0.5,,,,,,,,,,,,,0,50,50,6,1,,,,,,,,,,,,,,,,,,,,,,,,,,,,
,,,,,V3_055,19,female,2024-11-07_16h51.13.379,jersey_experiment_5_v3,2023.2.2,Win32,84.74576271,,,,,,,,,,,,,,,,1114.4703,1115.773,1115.773,1118.1408,return,0.5566,,39.97395833,,,,,,FBP-PT-19.png,0.35,1.2,26,0.5,,,,,,,,,,,,,0,51,51,25,1,,,,,,,,,,,,,,,,,,,,,,,,,,,,
,,,,,V3_055,19,female,2024-11-07_16h51.13.379,jersey_experiment_5_v3,2023.2.2,Win32,84.74576271,,,,,,,,,,,,,,,,1118.1409,1119.4347,1119.4347,1121.3225,return,0.8049,,28.90625,,,,,,FBP-RB-18.png,0.35,1.2,51,0.5,,,,,,,,,,,,,0,52,52,50,1,,,,,,,,,,,,,,,,,,,,,,,,,,,,
,,,,,V3_055,19,female,2024-11-07_16h51.13.379,jersey_experiment_5_v3,2023.2.2,Win32,84.74576271,,,,,,,,,,,,,,,,1121.3227,1122.6167,1122.6167,1124.353,return,0.3295,,65.234375,,,,,,FBP-YG-91.png,0.4,1.2,13,0.5,,,,,,,,,,,,,0,53,53,12,1,,,,,,,,,,,,,,,,,,,,,,,,,,,,
,,,,,V3_055,19,female,2024-11-07_16h51.13.379,jersey_experiment_5_v3,2023.2.2,Win32,84.74576271,,,,,,,,,,,,,,,,1124.3531,1125.6468,1125.6468,1127.2555,return,0.5177,,78.125,,,,,,FBP-RB-18.png,0.45,1.2,55,0.5,,,,,,,,,,,,,0,54,54,54,1,,,,,,,,,,,,,,,,,,,,,,,,,,,,
,,,,,V3_055,19,female,2024-11-07_16h51.13.379,jersey_experiment_5_v3,2023.2.2,Win32,84.74576271,,,,,,,,,,,,,,,,1127.2556,1128.5647,1128.5648,1130.0288,return,0.5114,,72.00520833,,,,,,FBP-RB-18.png,0.43,1.2,54,0.5,,,,,,,,,,,,,0,55,55,53,1,,,,,,,,,,,,,,,,,,,,,,,,,,,,
,,,,,V3_055,19,female,2024-11-07_16h51.13.379,jersey_experiment_5_v3,2023.2.2,Win32,84.74576271,,,,,,,,,,,,,,,,1130.029,1131.3262,1131.3262,1134.1734,return,1.7987,,86.97916667,,,,,,FBP-RB-17.png,0.45,1.2,50,0.5,,,,,,,,,,,,,0,56,56,49,1,,,,,,,,,,,,,,,,,,,,,,,,,,,,
,,,,,V3_055,19,female,2024-11-07_16h51.13.379,jersey_experiment_5_v3,2023.2.2,Win32,84.74576271,,,,,,,,,,,,,,,,1134.1736,1135.4676,1135.4676,1137.5063,return,1.2154,,80.33854167,,,,,,FBP-PT-19.png,0.43,1.2,29,0.5,,,,,,,,,,,,,0,57,57,28,1,,,,,,,,,,,,,,,,,,,,,,,,,,,,
,,,,,V3_055,19,female,2024-11-07_16h51.13.379,jersey_experiment_5_v3,2023.2.2,Win32,84.74576271,,,,,,,,,,,,,,,,1137.5065,1138.8001,1138.8002,1141.3886,return,0.6975,,92.44791667,,,,,,FBP-YG-71.png,0.45,1.2,5,0.5,,,,,,,,,,,,,0,58,58,4,1,,,,,,,,,,,,,,,,,,,,,,,,,,,,
,,,,,V3_055,19,female,2024-11-07_16h51.13.379,jersey_experiment_5_v3,2023.2.2,Win32,84.74576271,,,,,,,,,,,,,,,,1141.3887,1142.6914,1142.6914,1145.0831,return,1.2709,,70.18229167,,,,,,FBP-RB-17.png,0.4,1.2,48,0.5,,,,,,,,,,,,,0,59,59,47,1,,,,,,,,,,,,,,,,,,,,,,,,,,,,
,,,,,V3_055,19,female,2024-11-07_16h51.13.379,jersey_experiment_5_v3,2023.2.2,Win32,84.74576271,,,,,,,,,,,,,,,,1145.0842,1146.3857,1146.3858,1148.6125,return,1.0741,,80.98958333,,,,,,FBP-PT-71.png,0.45,1.2,20,0.5,,,,,,,,,,,,,,,,,,0,0,0,19,1,,,,,,,,,,,,,,,,,,,,,,,
,,,,,V3_055,19,female,2024-11-07_16h51.13.379,jersey_experiment_5_v3,2023.2.2,Win32,84.74576271,,,,,,,,,,,,,,,,1148.6127,1149.9066,1149.9067,1151.3419,return,0.415,,75.65104167,,,,,,FBP-RB-91.png,0.43,1.2,59,0.5,,,,,,,,,,,,,,,,,,0,1,1,58,1,,,,,,,,,,,,,,,,,,,,,,,
,,,,,V3_055,19,female,2024-11-07_16h51.13.379,jersey_experiment_5_v3,2023.2.2,Win32,84.74576271,,,,,,,,,,,,,,,,1151.3421,1152.6361,1152.6361,1155.0833,return,0.4962,,48.56770833,,,,,,FBP-RB-81.png,0.37,1.2,52,0.5,,,,,,,,,,,,,,,,,,0,2,2,51,1,,,,,,,,,,,,,,,,,,,,,,,
,,,,,V3_055,19,female,2024-11-07_16h51.13.379,jersey_experiment_5_v3,2023.2.2,Win32,84.74576271,,,,,,,,,,,,,,,,1155.0835,1156.6363,1156.6363,1158.3052,return,0.6253,,61.328125,,,,,,FBP-OG-91.png,0.4,1.2,43,0.75,,,,,,,,,,,,,,,,,,0,3,3,42,1,,,,,,,,,,,,,,,,,,,,,,,
,,,,,V3_055,19,female,2024-11-07_16h51.13.379,jersey_experiment_5_v3,2023.2.2,Win32,84.74576271,,,,,,,,,,,,,,,,1158.3054,1159.6011,1159.6012,1161.4365,return,0.5884,,72.39583333,,,,,,FBP-PT-91.png,0.45,1.2,30,0.5,,,,,,,,,,,,,,,,,,0,4,4,29,1,,,,,,,,,,,,,,,,,,,,,,,
,,,,,V3_055,19,female,2024-11-07_16h51.13.379,jersey_experiment_5_v3,2023.2.2,Win32,84.74576271,,,,,,,,,,,,,,,,1161.4367,1162.7306,1162.7306,1166.0336,return,0.9178,,44.79166667,,,,,,FBP-RB-91.png,0.37,1.2,57,0.5,,,,,,,,,,,,,,,,,,0,5,5,56,1,,,,,,,,,,,,,,,,,,,,,,,
,,,,,V3_055,19,female,2024-11-07_16h51.13.379,jersey_experiment_5_v3,2023.2.2,Win32,84.74576271,,,,,,,,,,,,,,,,1166.0337,1167.3277,1167.3277,1181.1785,return,11.9538,,53.25520833,,,,,,FBP-PT-91.png,0.35,1.2,26,0.5,,,,,,,,,,,,,,,,,,0,6,6,25,1,,,,,,,,,,,,,,,,,,,,,,,
,,,,,V3_055,19,female,2024-11-07_16h51.13.379,jersey_experiment_5_v3,2023.2.2,Win32,84.74576271,,,,,,,,,,,,,,,,1181.1787,1182.4811,1182.4811,1184.3956,return,0.8777,,66.53645833,,,,,,FBP-PT-81.png,0.45,1.2,25,0.5,,,,,,,,,,,,,,,,,,0,7,7,24,1,,,,,,,,,,,,,,,,,,,,,,,
,,,,,V3_055,19,female,2024-11-07_16h51.13.379,jersey_experiment_5_v3,2023.2.2,Win32,84.74576271,,,,,,,,,,,,,,,,1184.3959,1185.6958,1185.6958,1187.7753,return,1.0355,,52.734375,,,,,,FBP-YG-19.png,0.37,1.2,12,0.5,,,,,,,,,,,,,,,,,,0,8,8,11,1,,,,,,,,,,,,,,,,,,,,,,,
,,,,,V3_055,19,female,2024-11-07_16h51.13.379,jersey_experiment_5_v3,2023.2.2,Win32,84.74576271,,,,,,,,,,,,,,,,1187.7754,1189.0695,1189.0695,1191.2664,return,0.543,,51.69270833,,,,,,FBP-YG-17.png,0.37,1.2,2,0.5,,,,,,,,,,,,,,,,,,0,9,9,1,1,,,,,,,,,,,,,,,,,,,,,,,
,,,,,V3_055,19,female,2024-11-07_16h51.13.379,jersey_experiment_5_v3,2023.2.2,Win32,84.74576271,,,,,,,,,,,,,,,,1191.2666,1192.8258,1192.8258,1194.4262,return,0.6033,,54.55729167,,,,,,FBP-OG-81.png,0.37,1.2,37,0.75,,,,,,,,,,,,,,,,,,0,10,10,36,1,,,,,,,,,,,,,,,,,,,,,,,
,,,,,V3_055,19,female,2024-11-07_16h51.13.379,jersey_experiment_5_v3,2023.2.2,Win32,84.74576271,,,,,,,,,,,,,,,,1194.4263,1195.9786,1195.9786,1197.5407,return,0.73,,57.8125,,,,,,FBP-OG-81.png,0.4,1.2,38,0.75,,,,,,,,,,,,,,,,,,0,11,11,37,1,,,,,,,,,,,,,,,,,,,,,,,
,,,,,V3_055,19,female,2024-11-07_16h51.13.379,jersey_experiment_5_v3,2023.2.2,Win32,84.74576271,,,,,,,,,,,,,,,,1197.5409,1198.8347,1198.8347,1200.3085,return,0.4232,,63.80208333,,,,,,FBP-RB-71.png,0.43,1.2,49,0.5,,,,,,,,,,,,,,,,,,0,12,12,48,1,,,,,,,,,,,,,,,,,,,,,,,
,,,,,V3_055,19,female,2024-11-07_16h51.13.379,jersey_experiment_5_v3,2023.2.2,Win32,84.74576271,,,,,,,,,,,,,,,,1200.3087,1201.6026,1201.6026,1203.6263,return,0.7297,,56.11979167,,,,,,FBP-RB-81.png,0.4,1.2,53,0.5,,,,,,,,,,,,,,,,,,0,13,13,52,1,,,,,,,,,,,,,,,,,,,,,,,
,,,,,V3_055,19,female,2024-11-07_16h51.13.379,jersey_experiment_5_v3,2023.2.2,Win32,84.74576271,,,,,,,,,,,,,,,,1203.6265,1204.9203,1204.9203,1206.2701,return,0.4473,,59.765625,,,,,,FBP-PT-81.png,0.43,1.2,24,0.5,,,,,,,,,,,,,,,,,,0,14,14,23,1,,,,,,,,,,,,,,,,,,,,,,,
,,,,,V3_055,19,female,2024-11-07_16h51.13.379,jersey_experiment_5_v3,2023.2.2,Win32,84.74576271,,,,,,,,,,,,,,,,1206.2702,1207.8233,1207.8233,1210.0501,return,0.8003,,55.33854167,,,,,,FBP-OG-91.png,0.37,1.2,42,0.75,,,,,,,,,,,,,,,,,,0,15,15,41,1,,,,,,,,,,,,,,,,,,,,,,,
,,,,,V3_055,19,female,2024-11-07_16h51.13.379,jersey_experiment_5_v3,2023.2.2,Win32,84.74576271,,,,,,,,,,,,,,,,1210.0503,1211.3423,1211.3424,1213.1884,return,0.8242,,63.15104167,,,,,,FBP-YG-17.png,0.43,1.2,4,0.5,,,,,,,,,,,,,,,,,,0,16,16,3,1,,,,,,,,,,,,,,,,,,,,,,,
,,,,,V3_055,19,female,2024-11-07_16h51.13.379,jersey_experiment_5_v3,2023.2.2,Win32,84.74576271,,,,,,,,,,,,,,,,1213.1886,1214.4972,1214.4972,1216.2674,return,0.5132,,69.921875,,,,,,FBP-YG-18.png,0.43,1.2,9,0.5,,,,,,,,,,,,,,,,,,0,17,17,8,1,,,,,,,,,,,,,,,,,,,,,,,
,,,,,V3_055,19,female,2024-11-07_16h51.13.379,jersey_experiment_5_v3,2023.2.2,Win32,84.74576271,,,,,,,,,,,,,,,,1216.2675,1217.8157,1217.8157,1219.565,return,0.4796,,55.33854167,,,,,,FBP-OG-81.png,0.35,1.2,36,0.75,,,,,,,,,,,,,,,,,,0,18,18,35,1,,,,,,,,,,,,,,,,,,,,,,,
,,,,,V3_055,19,female,2024-11-07_16h51.13.379,jersey_experiment_5_v3,2023.2.2,Win32,84.74576271,,,,,,,,,,,,,,,,1219.5652,1220.8588,1220.8588,1222.2709,return,0.4946,,60.28645833,,,,,,FBP-RB-91.png,0.4,1.2,58,0.5,,,,,,,,,,,,,,,,,,0,19,19,57,1,,,,,,,,,,,,,,,,,,,,,,,
,,,,,V3_055,19,female,2024-11-07_16h51.13.379,jersey_experiment_5_v3,2023.2.2,Win32,84.74576271,,,,,,,,,,,,,,,,1222.271,1223.5648,1223.5648,1226.5772,return,1.1535,,50.65104167,,,,,,FBP-RB-81.png,0.35,1.2,51,0.5,,,,,,,,,,,,,,,,,,0,20,20,50,1,,,,,,,,,,,,,,,,,,,,,,,
,,,,,V3_055,19,female,2024-11-07_16h51.13.379,jersey_experiment_5_v3,2023.2.2,Win32,84.74576271,,,,,,,,,,,,,,,,1226.5774,1228.1212,1228.1212,1229.6442,return,0.9,,59.375,,,,,,FBP-OG-71.png,0.4,1.2,33,0.75,,,,,,,,,,,,,,,,,,0,21,21,32,1,,,,,,,,,,,,,,,,,,,,,,,
,,,,,V3_055,19,female,2024-11-07_16h51.13.379,jersey_experiment_5_v3,2023.2.2,Win32,84.74576271,,,,,,,,,,,,,,,,1229.6445,1231.1885,1231.1885,1232.8962,return,0.4216,,41.015625,,,,,,FBP-OG-91.png,0.35,1.2,41,0.75,,,,,,,,,,,,,,,,,,0,22,22,40,1,,,,,,,,,,,,,,,,,,,,,,,
,,,,,V3_055,19,female,2024-11-07_16h51.13.379,jersey_experiment_5_v3,2023.2.2,Win32,84.74576271,,,,,,,,,,,,,,,,1232.8965,1234.2008,1234.2009,1236.757,return,0.918,,65.88541667,,,,,,FBP-YG-19.png,0.45,1.2,15,0.5,,,,,,,,,,,,,,,,,,0,23,23,14,1,,,,,,,,,,,,,,,,,,,,,,,
,,,,,V3_055,19,female,2024-11-07_16h51.13.379,jersey_experiment_5_v3,2023.2.2,Win32,84.74576271,,,,,,,,,,,,,,,,1236.7573,1238.0509,1238.0509,1240.3421,return,1.0827,,23.56770833,,,,,,FBP-RB-71.png,0.35,1.2,46,0.5,,,,,,,,,,,,,,,,,,0,24,24,45,1,,,,,,,,,,,,,,,,,,,,,,,
,,,,,V3_055,19,female,2024-11-07_16h51.13.379,jersey_experiment_5_v3,2023.2.2,Win32,84.74576271,,,,,,,,,,,,,,,,1240.3423,1241.6446,1241.6447,1243.5195,return,0.3385,,49.47916667,,,,,,FBP-PT-91.png,0.37,1.2,27,0.5,,,,,,,,,,,,,,,,,,0,25,25,26,1,,,,,,,,,,,,,,,,,,,,,,,
,,,,,V3_055,19,female,2024-11-07_16h51.13.379,jersey_experiment_5_v3,2023.2.2,Win32,84.74576271,,,,,,,,,,,,,,,,1243.5196,1244.8126,1244.8126,1246.2246,return,0.4558,,47.00520833,,,,,,FBP-PT-71.png,0.35,1.2,16,0.5,,,,,,,,,,,,,,,,,,0,26,26,15,1,,,,,,,,,,,,,,,,,,,,,,,
,,,,,V3_055,19,female,2024-11-07_16h51.13.379,jersey_experiment_5_v3,2023.2.2,Win32,84.74576271,,,,,,,,,,,,,,,,1246.2248,1247.5188,1247.5189,1248.9274,return,0.3777,,63.02083333,,,,,,FBP-YG-19.png,0.43,1.2,14,0.5,,,,,,,,,,,,,,,,,,0,27,27,13,1,,,,,,,,,,,,,,,,,,,,,,,
,,,,,V3_055,19,female,2024-11-07_16h51.13.379,jersey_experiment_5_v3,2023.2.2,Win32,84.74576271,,,,,,,,,,,,,,,,1248.9276,1250.4751,1250.4751,1251.5338,return,0.3445,,62.23958333,,,,,,FBP-OG-71.png,0.43,1.2,34,0.75,,,,,,,,,,,,,,,,,,0,28,28,33,1,,,,,,,,,,,,,,,,,,,,,,,
,,,,,V3_055,19,female,2024-11-07_16h51.13.379,jersey_experiment_5_v3,2023.2.2,Win32,84.74576271,,,,,,,,,,,,,,,,1251.5339,1252.8367,1252.8367,1255.3547,return,0.315,,40.234375,,,,,,FBP-YG-17.png,0.35,1.2,1,0.5,,,,,,,,,,,,,,,,,,0,29,29,0,1,,,,,,,,,,,,,,,,,,,,,,,
,,,,,V3_055,19,female,2024-11-07_16h51.13.379,jersey_experiment_5_v3,2023.2.2,Win32,84.74576271,,,,,,,,,,,,,,,,1255.3549,1256.6633,1256.6634,1258.9456,return,0.3999,,58.72395833,,,,,,FBP-PT-91.png,0.43,1.2,29,0.5,,,,,,,,,,,,,,,,,,0,30,30,28,1,,,,,,,,,,,,,,,,,,,,,,,
,,,,,V3_055,19,female,2024-11-07_16h51.13.379,jersey_experiment_5_v3,2023.2.2,Win32,84.74576271,,,,,,,,,,,,,,,,1258.9458,1260.2489,1260.249,1262.4523,return,0.5181,,52.60416667,,,,,,FBP-YG-18.png,0.4,1.2,8,0.5,,,,,,,,,,,,,,,,,,0,31,31,7,1,,,,,,,,,,,,,,,,,,,,,,,
,,,,,V3_055,19,female,2024-11-07_16h51.13.379,jersey_experiment_5_v3,2023.2.2,Win32,84.74576271,,,,,,,,,,,,,,,,1262.4524,1264.0049,1264.0049,1266.4377,return,0.3068,,48.4375,,,,,,FBP-OG-71.png,0.37,1.2,32,0.75,,,,,,,,,,,,,,,,,,0,32,32,31,1,,,,,,,,,,,,,,,,,,,,,,,
,,,,,V3_055,19,female,2024-11-07_16h51.13.379,jersey_experiment_5_v3,2023.2.2,Win32,84.74576271,,,,,,,,,,,,,,,,1266.4379,1267.7315,1267.7315,1270.3199,return,0.9652,,59.50520833,,,,,,FBP-RB-91.png,0.45,1.2,60,0.5,,,,,,,,,,,,,,,,,,0,33,33,59,1,,,,,,,,,,,,,,,,,,,,,,,
,,,,,V3_055,19,female,2024-11-07_16h51.13.379,jersey_experiment_5_v3,2023.2.2,Win32,84.74576271,,,,,,,,,,,,,,,,1270.3201,1271.6139,1271.6139,1274.1078,return,0.3851,,40.10416667,,,,,,FBP-YG-18.png,0.35,1.2,6,0.5,,,,,,,,,,,,,,,,,,0,34,34,5,1,,,,,,,,,,,,,,,,,,,,,,,
,,,,,V3_055,19,female,2024-11-07_16h51.13.379,jersey_experiment_5_v3,2023.2.2,Win32,84.74576271,,,,,,,,,,,,,,,,1274.108,1275.6523,1275.6524,1277.9349,return,0.5094,,62.76041667,,,,,,FBP-OG-91.png,0.45,1.2,45,0.75,,,,,,,,,,,,,,,,,,0,35,35,44,1,,,,,,,,,,,,,,,,,,,,,,,
,,,,,V3_055,19,female,2024-11-07_16h51.13.379,jersey_experiment_5_v3,2023.2.2,Win32,84.74576271,,,,,,,,,,,,,,,,1277.9351,1279.229,1279.229,1281.4733,return,0.2589,,64.0625,,,,,,FBP-PT-71.png,0.43,1.2,19,0.5,,,,,,,,,,,,,,,,,,0,36,36,18,1,,,,,,,,,,,,,,,,,,,,,,,
,,,,,V3_055,19,female,2024-11-07_16h51.13.379,jersey_experiment_5_v3,2023.2.2,Win32,84.74576271,,,,,,,,,,,,,,,,1281.4734,1283.0261,1283.0261,1284.697,return,0.3536,,62.23958333,,,,,,FBP-OG-91.png,0.43,1.2,44,0.75,,,,,,,,,,,,,,,,,,0,37,37,43,1,,,,,,,,,,,,,,,,,,,,,,,
,,,,,V3_055,19,female,2024-11-07_16h51.13.379,jersey_experiment_5_v3,2023.2.2,Win32,84.74576271,,,,,,,,,,,,,,,,1284.6971,1286.0058,1286.0058,1287.3876,return,0.2273,,54.81770833,,,,,,FBP-PT-71.png,0.4,1.2,18,0.5,,,,,,,,,,,,,,,,,,0,38,38,17,1,,,,,,,,,,,,,,,,,,,,,,,
,,,,,V3_055,19,female,2024-11-07_16h51.13.379,jersey_experiment_5_v3,2023.2.2,Win32,84.74576271,,,,,,,,,,,,,,,,1287.3878,1288.6881,1288.6882,1293.9204,return,3.365,,58.46354167,,,,,,FBP-PT-91.png,0.4,1.2,28,0.5,,,,,,,,,,,,,,,,,,0,39,39,27,1,,,,,,,,,,,,,,,,,,,,,,,
,,,,,V3_055,19,female,2024-11-07_16h51.13.379,jersey_experiment_5_v3,2023.2.2,Win32,84.74576271,,,,,,,,,,,,,,,,1293.9205,1295.2295,1295.2296,1298.3105,return,0.4136,,49.21875,,,,,,FBP-RB-81.png,0.43,1.2,54,0.5,,,,,,,,,,,,,,,,,,0,40,40,53,1,,,,,,,,,,,,,,,,,,,,,,,
,,,,,V3_055,19,female,2024-11-07_16h51.13.379,jersey_experiment_5_v3,2023.2.2,Win32,84.74576271,,,,,,,,,,,,,,,,1298.3107,1299.6063,1299.6064,1301.9528,return,1.3664,,40.49479167,,,,,,FBP-YG-18.png,0.37,1.2,7,0.5,,,,,,,,,,,,,,,,,,0,41,41,6,1,,,,,,,,,,,,,,,,,,,,,,,
,,,,,V3_055,19,female,2024-11-07_16h51.13.379,jersey_experiment_5_v3,2023.2.2,Win32,84.74576271,,,,,,,,,,,,,,,,1301.953,1303.2535,1303.2535,1305.2773,return,0.3771,,24.73958333,,,,,,FBP-RB-91.png,0.35,1.2,56,0.5,,,,,,,,,,,,,,,,,,0,42,42,55,1,,,,,,,,,,,,,,,,,,,,,,,
,,,,,V3_055,19,female,2024-11-07_16h51.13.379,jersey_experiment_5_v3,2023.2.2,Win32,84.74576271,,,,,,,,,,,,,,,,1305.2774,1306.5712,1306.5712,1308.4067,return,0.4944,,49.86979167,,,,,,FBP-RB-71.png,0.4,1.2,48,0.5,,,,,,,,,,,,,,,,,,0,43,43,47,1,,,,,,,,,,,,,,,,,,,,,,,
,,,,,V3_055,19,female,2024-11-07_16h51.13.379,jersey_experiment_5_v3,2023.2.2,Win32,84.74576271,,,,,,,,,,,,,,,,1308.4068,1309.7005,1309.7005,1311.3244,return,0.4004,,64.58333333,,,,,,FBP-RB-81.png,0.45,1.2,55,0.5,,,,,,,,,,,,,,,,,,0,44,44,54,1,,,,,,,,,,,,,,,,,,,,,,,
,,,,,V3_055,19,female,2024-11-07_16h51.13.379,jersey_experiment_5_v3,2023.2.2,Win32,84.74576271,,,,,,,,,,,,,,,,1311.3246,1312.6273,1312.6273,1316.5098,return,0.3771,,47.00520833,,,,,,FBP-PT-71.png,0.37,1.2,17,0.5,,,,,,,,,,,,,,,,,,0,45,45,16,1,,,,,,,,,,,,,,,,,,,,,,,
,,,,,V3_055,19,female,2024-11-07_16h51.13.379,jersey_experiment_5_v3,2023.2.2,Win32,84.74576271,,,,,,,,,,,,,,,,1316.51,1317.8036,1317.8037,1319.6627,return,0.597,,70.18229167,,,,,,FBP-RB-71.png,0.45,1.2,50,0.5,,,,,,,,,,,,,,,,,,0,46,46,49,1,,,,,,,,,,,,,,,,,,,,,,,
,,,,,V3_055,19,female,2024-11-07_16h51.13.379,jersey_experiment_5_v3,2023.2.2,Win32,84.74576271,,,,,,,,,,,,,,,,1319.6629,1320.9717,1320.9718,1324.5336,return,0.6913,,27.34375,,,,,,FBP-YG-19.png,0.35,1.2,11,0.5,,,,,,,,,,,,,,,,,,0,47,47,10,1,,,,,,,,,,,,,,,,,,,,,,,
,,,,,V3_055,19,female,2024-11-07_16h51.13.379,jersey_experiment_5_v3,2023.2.2,Win32,84.74576271,,,,,,,,,,,,,,,,1324.5338,1325.8425,1325.8425,1328.0313,return,0.7686,,59.89583333,,,,,,FBP-PT-81.png,0.37,1.2,22,0.5,,,,,,,,,,,,,,,,,,0,48,48,21,1,,,,,,,,,,,,,,,,,,,,,,,
,,,,,V3_055,19,female,2024-11-07_16h51.13.379,jersey_experiment_5_v3,2023.2.2,Win32,84.74576271,,,,,,,,,,,,,,,,1328.0314,1329.5845,1329.5845,1331.8663,return,1.1061,,64.97395833,,,,,,FBP-OG-81.png,0.43,1.2,39,0.75,,,,,,,,,,,,,,,,,,0,49,49,38,1,,,,,,,,,,,,,,,,,,,,,,,
,,,,,V3_055,19,female,2024-11-07_16h51.13.379,jersey_experiment_5_v3,2023.2.2,Win32,84.74576271,,,,,,,,,,,,,,,,1331.8665,1333.1603,1333.1603,1336.8632,return,2.0237,,52.47395833,,,,,,FBP-RB-71.png,0.37,1.2,47,0.5,,,,,,,,,,,,,,,,,,0,50,50,46,1,,,,,,,,,,,,,,,,,,,,,,,
,,,,,V3_055,19,female,2024-11-07_16h51.13.379,jersey_experiment_5_v3,2023.2.2,Win32,84.74576271,,,,,,,,,,,,,,,,1336.8634,1338.1576,1338.1576,1340.1019,return,0.2356,,57.94270833,,,,,,FBP-PT-81.png,0.4,1.2,23,0.5,,,,,,,,,,,,,,,,,,0,51,51,22,1,,,,,,,,,,,,,,,,,,,,,,,
,,,,,V3_055,19,female,2024-11-07_16h51.13.379,jersey_experiment_5_v3,2023.2.2,Win32,84.74576271,,,,,,,,,,,,,,,,1340.1021,1341.6548,1341.6548,1343.1779,return,0.4644,,39.0625,,,,,,FBP-OG-71.png,0.35,1.2,31,0.75,,,,,,,,,,,,,,,,,,0,52,52,30,1,,,,,,,,,,,,,,,,,,,,,,,
,,,,,V3_055,19,female,2024-11-07_16h51.13.379,jersey_experiment_5_v3,2023.2.2,Win32,84.74576271,,,,,,,,,,,,,,,,1343.1782,1344.472,1344.4721,1346.2513,return,0.3762,,69.921875,,,,,,FBP-YG-18.png,0.45,1.2,10,0.5,,,,,,,,,,,,,,,,,,0,53,53,9,1,,,,,,,,,,,,,,,,,,,,,,,
,,,,,V3_055,19,female,2024-11-07_16h51.13.379,jersey_experiment_5_v3,2023.2.2,Win32,84.74576271,,,,,,,,,,,,,,,,1346.2514,1347.5428,1347.5428,1350.2436,return,1.4121,,63.671875,,,,,,FBP-YG-17.png,0.4,1.2,3,0.5,,,,,,,,,,,,,,,,,,0,54,54,2,1,,,,,,,,,,,,,,,,,,,,,,,
,,,,,V3_055,19,female,2024-11-07_16h51.13.379,jersey_experiment_5_v3,2023.2.2,Win32,84.74576271,,,,,,,,,,,,,,,,1350.2437,1351.5464,1351.5464,1353.5142,return,0.6975,,32.29166667,,,,,,FBP-PT-81.png,0.35,1.2,21,0.5,,,,,,,,,,,,,,,,,,0,55,55,20,1,,,,,,,,,,,,,,,,,,,,,,,
,,,,,V3_055,19,female,2024-11-07_16h51.13.379,jersey_experiment_5_v3,2023.2.2,Win32,84.74576271,,,,,,,,,,,,,,,,1353.5144,1355.0671,1355.0671,1357.0671,return,0.3681,,75.390625,,,,,,FBP-OG-81.png,0.45,1.2,40,0.75,,,,,,,,,,,,,,,,,,0,56,56,39,1,,,,,,,,,,,,,,,,,,,,,,,
,,,,,V3_055,19,female,2024-11-07_16h51.13.379,jersey_experiment_5_v3,2023.2.2,Win32,84.74576271,,,,,,,,,,,,,,,,1357.0672,1358.3701,1358.3701,1360.0086,return,0.5886,,56.90104167,,,,,,FBP-YG-19.png,0.4,1.2,13,0.5,,,,,,,,,,,,,,,,,,0,57,57,12,1,,,,,,,,,,,,,,,,,,,,,,,
,,,,,V3_055,19,female,2024-11-07_16h51.13.379,jersey_experiment_5_v3,2023.2.2,Win32,84.74576271,,,,,,,,,,,,,,,,1360.0088,1361.3024,1361.3024,1362.6524,return,0.4474,,61.06770833,,,,,,FBP-YG-17.png,0.45,1.2,5,0.5,,,,,,,,,,,,,,,,,,0,58,58,4,1,,,,,,,,,,,,,,,,,,,,,,,
,,,,,V3_055,19,female,2024-11-07_16h51.13.379,jersey_experiment_5_v3,2023.2.2,Win32,84.74576271,,,,,,,,,,,,,,,,1362.6525,1364.2022,1364.2023,1366.2057,return,1.1382,,62.76041667,,,,,,FBP-OG-71.png,0.45,1.2,35,0.75,,,,,,,,,,,,,,,,,,0,59,59,34,1,,,,,,,,,,,,,,,,,,,,,,,
,,,,,V3_055,19,female,2024-11-07_16h51.13.379,jersey_experiment_5_v3,2023.2.2,Win32,84.74576271,,,,,,,,,,,,,,,,,,,,,,,,,,,,,,,,,,,,,,,,,,,,,,,,,,,,,,,,1366.2057,1371.6143,return,5.3892,,,,,,,,,,,,,,,,,,,
,,,,,V3_055,19,female,2024-11-07_16h51.13.379,jersey_experiment_5_v3,2023.2.2,Win32,84.74576271,,,,,,,,,,,,,,,,,,,,,,,,,,,,,,,,,,,,,,,,,,,,,,,,,,,,,,,,,,,,,1371.6143,1376.5269,1,3.2415,return,1.6622,,,,,,,,,,,,
,,,,,V3_055,19,female,2024-11-07_16h51.13.379,jersey_experiment_5_v3,2023.2.2,Win32,84.74576271,,,,,,,,,,,,,,,,,,,,,,,,,,,,,,,,,,,,,,,,,,,,,,,,,,,,,,,,,,,,,,,,,,,,1376.5269,1441.4881,Was it potentially about race of the person? Or it could have been how relative size perception changes.,right,52.7343,,,,,,
,,,,,V3_055,19,female,2024-11-07_16h51.13.379,jersey_experiment_5_v3,2023.2.2,Win32,84.74576271,,,,,,,,,,,,,,,,,,,,,,,,,,,,,,,,,,,,,,,,,,,,,,,,,,,,,,,,,,,,,,,,,,,,,,,,,,1441.4881,1448.8204,return,7.3179,