requirements.started,requirements.stopped,key_resp_3.keys,key_resp_3.rt,key_resp_3.duration,Subject ID,Age,Gender,date,expName,psychopyVersion,OS,frameRate,instructions1.started,instructions1.stopped,key_resp.keys,key_resp.rt,key_resp.duration,example.started,example.stopped,enter_2.keys,enter_2.rt,enter_2.duration,instructions2.started,instructions2.stopped,enter_3.keys,enter_3.rt,enter_3.duration,image.started,image.stopped,slider_2.started,slider_2.stopped,next.keys,next.rt,next.duration,slider.response,trial_block_1.thisRepN,trial_block_1.thisTrialN,trial_block_1.thisN,trial_block_1.thisIndex,trial_block_1.ran,Path,Width,Height,Index,Duration,trial_block_2.thisRepN,trial_block_2.thisTrialN,trial_block_2.thisN,trial_block_2.thisIndex,trial_block_2.ran,rest_break.started,rest_break.stopped,end_break.started,end_break.stopped,key_resp_5.keys,key_resp_5.rt,key_resp_5.duration,trial_block_3.thisRepN,trial_block_3.thisTrialN,trial_block_3.thisN,trial_block_3.thisIndex,trial_block_3.ran,trial_block_4.thisRepN,trial_block_4.thisTrialN,trial_block_4.thisN,trial_block_4.thisIndex,trial_block_4.ran,questions_intro.started,questions_intro.stopped,enter_12.keys,enter_12.rt,enter_12.duration,question2.started,question2.stopped,question_doingbest.response,question_doingbest.rt,enter_15.keys,enter_15.rt,enter_15.duration,pattern.started,pattern.stopped,pattern_2.text,enter_17.keys,enter_17.rt,enter_17.duration,thankyou.started,thankyou.stopped,enter_14.keys,enter_14.rt,enter_14.duration
0,19.0248,return,19.0206,,V3_059,21,Female,2024-11-09_17h12.29.477,jersey_experiment_5_v3,2023.2.2,Win32,85.47008547,,,,,,,,,,,,,,,,,,,,,,,,,,,,,,,,,,,,,,,,,,,,,,,,,,,,,,,,,,,,,,,,,,,,,,,,,,,,,,
,,,,,V3_059,21,Female,2024-11-09_17h12.29.477,jersey_experiment_5_v3,2023.2.2,Win32,85.47008547,19.0248,31.025,return,11.9921,,,,,,,,,,,,,,,,,,,,,,,,,,,,,,,,,,,,,,,,,,,,,,,,,,,,,,,,,,,,,,,,,,,,,,,,,,
,,,,,V3_059,21,Female,2024-11-09_17h12.29.477,jersey_experiment_5_v3,2023.2.2,Win32,85.47008547,,,,,,31.025,37.689,return,6.6336,,,,,,,,,,,,,,,,,,,,,,,,,,,,,,,,,,,,,,,,,,,,,,,,,,,,,,,,,,,,,,,,,,,,,
,,,,,V3_059,21,Female,2024-11-09_17h12.29.477,jersey_experiment_5_v3,2023.2.2,Win32,85.47008547,,,,,,,,,,,37.6891,68.4783,return,30.7852,,,,,,,,,,,,,,,,,,,,,,,,,,,,,,,,,,,,,,,,,,,,,,,,,,,,,,,,,,,,,,,,
,,,,,V3_059,21,Female,2024-11-09_17h12.29.477,jersey_experiment_5_v3,2023.2.2,Win32,85.47008547,,,,,,,,,,,,,,,,68.4799,70.0316,70.0316,83.6084,return,3.6,,50,0,0,0,56,1,FBP-RB-19.png,0.37,1.2,57,0.75,,,,,,,,,,,,,,,,,,,,,,,,,,,,,,,,,,,,,,,,,,,,,
,,,,,V3_059,21,Female,2024-11-09_17h12.29.477,jersey_experiment_5_v3,2023.2.2,Win32,85.47008547,,,,,,,,,,,,,,,,83.6087,85.1614,85.1614,89.3144,return,1.9087,,99.21875,0,1,1,59,1,FBP-RB-19.png,0.45,1.2,60,0.75,,,,,,,,,,,,,,,,,,,,,,,,,,,,,,,,,,,,,,,,,,,,,
,,,,,V3_059,21,Female,2024-11-09_17h12.29.477,jersey_experiment_5_v3,2023.2.2,Win32,85.47008547,,,,,,,,,,,,,,,,89.3147,90.8675,90.8675,95.8794,return,2.5572,,24.73958333,0,2,2,10,1,FBP-YG-91.png,0.35,1.2,11,0.75,,,,,,,,,,,,,,,,,,,,,,,,,,,,,,,,,,,,,,,,,,,,,
,,,,,V3_059,21,Female,2024-11-09_17h12.29.477,jersey_experiment_5_v3,2023.2.2,Win32,85.47008547,,,,,,,,,,,,,,,,95.8796,97.1737,97.1737,99.3973,return,0.9043,,74.609375,0,3,3,41,1,FBP-OG-19.png,0.37,1.2,42,0.5,,,,,,,,,,,,,,,,,,,,,,,,,,,,,,,,,,,,,,,,,,,,,
,,,,,V3_059,21,Female,2024-11-09_17h12.29.477,jersey_experiment_5_v3,2023.2.2,Win32,85.47008547,,,,,,,,,,,,,,,,99.3975,100.9502,100.9502,103.0329,return,0.2822,,50.65104167,0,4,4,45,1,FBP-RB-17.png,0.35,1.2,46,0.75,,,,,,,,,,,,,,,,,,,,,,,,,,,,,,,,,,,,,,,,,,,,,
,,,,,V3_059,21,Female,2024-11-09_17h12.29.477,jersey_experiment_5_v3,2023.2.2,Win32,85.47008547,,,,,,,,,,,,,,,,103.0331,104.5856,104.5856,106.1975,return,0.5193,,99.47916667,0,5,5,18,1,FBP-PT-17.png,0.43,1.2,19,0.75,,,,,,,,,,,,,,,,,,,,,,,,,,,,,,,,,,,,,,,,,,,,,
,,,,,V3_059,21,Female,2024-11-09_17h12.29.477,jersey_experiment_5_v3,2023.2.2,Win32,85.47008547,,,,,,,,,,,,,,,,106.1977,107.4915,107.4916,110.374,return,0.2824,,74.73958333,0,6,6,31,1,FBP-OG-17.png,0.37,1.2,32,0.5,,,,,,,,,,,,,,,,,,,,,,,,,,,,,,,,,,,,,,,,,,,,,
,,,,,V3_059,21,Female,2024-11-09_17h12.29.477,jersey_experiment_5_v3,2023.2.2,Win32,85.47008547,,,,,,,,,,,,,,,,110.3742,111.6683,111.6684,114.0566,return,0.4317,,99.609375,0,7,7,39,1,FBP-OG-18.png,0.45,1.2,40,0.5,,,,,,,,,,,,,,,,,,,,,,,,,,,,,,,,,,,,,,,,,,,,,
,,,,,V3_059,21,Female,2024-11-09_17h12.29.477,jersey_experiment_5_v3,2023.2.2,Win32,85.47008547,,,,,,,,,,,,,,,,114.057,115.6096,115.6096,117.6567,return,0.4235,,24.609375,0,8,8,55,1,FBP-RB-19.png,0.35,1.2,56,0.75,,,,,,,,,,,,,,,,,,,,,,,,,,,,,,,,,,,,,,,,,,,,,
,,,,,V3_059,21,Female,2024-11-09_17h12.29.477,jersey_experiment_5_v3,2023.2.2,Win32,85.47008547,,,,,,,,,,,,,,,,117.6569,119.2097,119.2098,121.6688,return,0.3549,,50.13020833,0,9,9,21,1,FBP-PT-18.png,0.37,1.2,22,0.75,,,,,,,,,,,,,,,,,,,,,,,,,,,,,,,,,,,,,,,,,,,,,
,,,,,V3_059,21,Female,2024-11-09_17h12.29.477,jersey_experiment_5_v3,2023.2.2,Win32,85.47008547,,,,,,,,,,,,,,,,121.669,123.2217,123.2217,124.9629,return,0.3062,,75.26041667,0,10,10,26,1,FBP-PT-19.png,0.37,1.2,27,0.75,,,,,,,,,,,,,,,,,,,,,,,,,,,,,,,,,,,,,,,,,,,,,
,,,,,V3_059,21,Female,2024-11-09_17h12.29.477,jersey_experiment_5_v3,2023.2.2,Win32,85.47008547,,,,,,,,,,,,,,,,124.9632,126.2571,126.2571,129.9865,return,0.5218,,99.08854167,0,11,11,32,1,FBP-OG-17.png,0.4,1.2,33,0.5,,,,,,,,,,,,,,,,,,,,,,,,,,,,,,,,,,,,,,,,,,,,,
,,,,,V3_059,21,Female,2024-11-09_17h12.29.477,jersey_experiment_5_v3,2023.2.2,Win32,85.47008547,,,,,,,,,,,,,,,,129.9868,131.5396,131.5396,133.0456,return,0.4955,,99.08854167,0,12,12,29,1,FBP-PT-19.png,0.45,1.2,30,0.75,,,,,,,,,,,,,,,,,,,,,,,,,,,,,,,,,,,,,,,,,,,,,
,,,,,V3_059,21,Female,2024-11-09_17h12.29.477,jersey_experiment_5_v3,2023.2.2,Win32,85.47008547,,,,,,,,,,,,,,,,133.0458,134.5985,134.5986,135.8456,return,0.4096,,99.609375,0,13,13,49,1,FBP-RB-17.png,0.45,1.2,50,0.75,,,,,,,,,,,,,,,,,,,,,,,,,,,,,,,,,,,,,,,,,,,,,
,,,,,V3_059,21,Female,2024-11-09_17h12.29.477,jersey_experiment_5_v3,2023.2.2,Win32,85.47008547,,,,,,,,,,,,,,,,135.8458,137.1398,137.1398,138.7518,return,0.4426,,86.97916667,0,14,14,37,1,FBP-OG-18.png,0.4,1.2,38,0.5,,,,,,,,,,,,,,,,,,,,,,,,,,,,,,,,,,,,,,,,,,,,,
,,,,,V3_059,21,Female,2024-11-09_17h12.29.477,jersey_experiment_5_v3,2023.2.2,Win32,85.47008547,,,,,,,,,,,,,,,,138.752,140.3047,140.3047,142.4224,return,0.328,,99.21875,0,15,15,23,1,FBP-PT-18.png,0.43,1.2,24,0.75,,,,,,,,,,,,,,,,,,,,,,,,,,,,,,,,,,,,,,,,,,,,,
,,,,,V3_059,21,Female,2024-11-09_17h12.29.477,jersey_experiment_5_v3,2023.2.2,Win32,85.47008547,,,,,,,,,,,,,,,,142.4226,143.9753,143.9753,145.5753,return,0.2576,,89.32291667,0,16,16,2,1,FBP-YG-71.png,0.4,1.2,3,0.75,,,,,,,,,,,,,,,,,,,,,,,,,,,,,,,,,,,,,,,,,,,,,
,,,,,V3_059,21,Female,2024-11-09_17h12.29.477,jersey_experiment_5_v3,2023.2.2,Win32,85.47008547,,,,,,,,,,,,,,,,145.5756,146.8695,146.8695,148.4226,return,0.2586,,96.74479167,0,17,17,43,1,FBP-OG-19.png,0.43,1.2,44,0.5,,,,,,,,,,,,,,,,,,,,,,,,,,,,,,,,,,,,,,,,,,,,,
,,,,,V3_059,21,Female,2024-11-09_17h12.29.477,jersey_experiment_5_v3,2023.2.2,Win32,85.47008547,,,,,,,,,,,,,,,,148.4229,149.7168,149.7169,154.1522,return,0.5651,,19.53125,0,18,18,35,1,FBP-OG-18.png,0.35,1.2,36,0.5,,,,,,,,,,,,,,,,,,,,,,,,,,,,,,,,,,,,,,,,,,,,,
,,,,,V3_059,21,Female,2024-11-09_17h12.29.477,jersey_experiment_5_v3,2023.2.2,Win32,85.47008547,,,,,,,,,,,,,,,,154.1525,155.7052,155.7053,157.6347,return,0.4512,,88.54166667,0,19,19,53,1,FBP-RB-18.png,0.43,1.2,54,0.75,,,,,,,,,,,,,,,,,,,,,,,,,,,,,,,,,,,,,,,,,,,,,
,,,,,V3_059,21,Female,2024-11-09_17h12.29.477,jersey_experiment_5_v3,2023.2.2,Win32,85.47008547,,,,,,,,,,,,,,,,157.6349,159.1877,159.1877,161.7525,return,0.2121,,36.328125,0,20,20,46,1,FBP-RB-17.png,0.37,1.2,47,0.75,,,,,,,,,,,,,,,,,,,,,,,,,,,,,,,,,,,,,,,,,,,,,
,,,,,V3_059,21,Female,2024-11-09_17h12.29.477,jersey_experiment_5_v3,2023.2.2,Win32,85.47008547,,,,,,,,,,,,,,,,161.7527,163.3056,163.3057,167.2233,return,2.4391,,79.6875,0,21,21,28,1,FBP-PT-19.png,0.43,1.2,29,0.75,,,,,,,,,,,,,,,,,,,,,,,,,,,,,,,,,,,,,,,,,,,,,
,,,,,V3_059,21,Female,2024-11-09_17h12.29.477,jersey_experiment_5_v3,2023.2.2,Win32,85.47008547,,,,,,,,,,,,,,,,167.2235,168.7762,168.7762,170.5764,return,0.4537,,87.23958333,0,22,22,13,1,FBP-YG-91.png,0.43,1.2,14,0.75,,,,,,,,,,,,,,,,,,,,,,,,,,,,,,,,,,,,,,,,,,,,,
,,,,,V3_059,21,Female,2024-11-09_17h12.29.477,jersey_experiment_5_v3,2023.2.2,Win32,85.47008547,,,,,,,,,,,,,,,,170.5766,172.1293,172.1294,173.6,return,0.2306,,96.875,0,23,23,14,1,FBP-YG-91.png,0.45,1.2,15,0.75,,,,,,,,,,,,,,,,,,,,,,,,,,,,,,,,,,,,,,,,,,,,,
,,,,,V3_059,21,Female,2024-11-09_17h12.29.477,jersey_experiment_5_v3,2023.2.2,Win32,85.47008547,,,,,,,,,,,,,,,,173.6003,175.153,175.1531,177.0236,return,0.3448,,99.47916667,0,24,24,9,1,FBP-YG-81.png,0.45,1.2,10,0.75,,,,,,,,,,,,,,,,,,,,,,,,,,,,,,,,,,,,,,,,,,,,,
,,,,,V3_059,21,Female,2024-11-09_17h12.29.477,jersey_experiment_5_v3,2023.2.2,Win32,85.47008547,,,,,,,,,,,,,,,,177.0238,178.3177,178.3178,180.8826,return,0.2949,,49.21875,0,25,25,42,1,FBP-OG-19.png,0.4,1.2,43,0.5,,,,,,,,,,,,,,,,,,,,,,,,,,,,,,,,,,,,,,,,,,,,,
,,,,,V3_059,21,Female,2024-11-09_17h12.29.477,jersey_experiment_5_v3,2023.2.2,Win32,85.47008547,,,,,,,,,,,,,,,,180.8828,182.4357,182.4357,184.2473,return,0.471,,78.77604167,0,26,26,8,1,FBP-YG-81.png,0.43,1.2,9,0.75,,,,,,,,,,,,,,,,,,,,,,,,,,,,,,,,,,,,,,,,,,,,,
,,,,,V3_059,21,Female,2024-11-09_17h12.29.477,jersey_experiment_5_v3,2023.2.2,Win32,85.47008547,,,,,,,,,,,,,,,,184.2477,185.8003,185.8004,187.2241,return,0.2353,,75.78125,0,27,27,17,1,FBP-PT-17.png,0.4,1.2,18,0.75,,,,,,,,,,,,,,,,,,,,,,,,,,,,,,,,,,,,,,,,,,,,,
,,,,,V3_059,21,Female,2024-11-09_17h12.29.477,jersey_experiment_5_v3,2023.2.2,Win32,85.47008547,,,,,,,,,,,,,,,,187.2244,188.777,188.777,189.7771,return,0.2492,,76.82291667,0,28,28,27,1,FBP-PT-19.png,0.4,1.2,28,0.75,,,,,,,,,,,,,,,,,,,,,,,,,,,,,,,,,,,,,,,,,,,,,
,,,,,V3_059,21,Female,2024-11-09_17h12.29.477,jersey_experiment_5_v3,2023.2.2,Win32,85.47008547,,,,,,,,,,,,,,,,189.7773,191.0712,191.0712,192.777,return,0.2271,,48.046875,0,29,29,36,1,FBP-OG-18.png,0.37,1.2,37,0.5,,,,,,,,,,,,,,,,,,,,,,,,,,,,,,,,,,,,,,,,,,,,,
,,,,,V3_059,21,Female,2024-11-09_17h12.29.477,jersey_experiment_5_v3,2023.2.2,Win32,85.47008547,,,,,,,,,,,,,,,,192.7773,194.0714,194.0715,198.6951,return,0.338,,72.91666667,0,30,30,33,1,FBP-OG-17.png,0.43,1.2,34,0.5,,,,,,,,,,,,,,,,,,,,,,,,,,,,,,,,,,,,,,,,,,,,,
,,,,,V3_059,21,Female,2024-11-09_17h12.29.477,jersey_experiment_5_v3,2023.2.2,Win32,85.47008547,,,,,,,,,,,,,,,,198.6953,200.2481,200.2481,202.4364,return,0.2486,,50,0,31,31,1,1,FBP-YG-71.png,0.37,1.2,2,0.75,,,,,,,,,,,,,,,,,,,,,,,,,,,,,,,,,,,,,,,,,,,,,
,,,,,V3_059,21,Female,2024-11-09_17h12.29.477,jersey_experiment_5_v3,2023.2.2,Win32,85.47008547,,,,,,,,,,,,,,,,202.4366,203.9776,203.9776,205.6365,return,0.2694,,24.34895833,0,32,32,15,1,FBP-PT-17.png,0.35,1.2,16,0.75,,,,,,,,,,,,,,,,,,,,,,,,,,,,,,,,,,,,,,,,,,,,,
,,,,,V3_059,21,Female,2024-11-09_17h12.29.477,jersey_experiment_5_v3,2023.2.2,Win32,85.47008547,,,,,,,,,,,,,,,,205.6367,207.1894,207.1895,209.3424,return,0.2789,,78.25520833,0,33,33,19,1,FBP-PT-17.png,0.45,1.2,20,0.75,,,,,,,,,,,,,,,,,,,,,,,,,,,,,,,,,,,,,,,,,,,,,
,,,,,V3_059,21,Female,2024-11-09_17h12.29.477,jersey_experiment_5_v3,2023.2.2,Win32,85.47008547,,,,,,,,,,,,,,,,209.3426,210.8956,210.8957,211.6836,return,0.1778,,86.19791667,0,34,34,24,1,FBP-PT-18.png,0.45,1.2,25,0.75,,,,,,,,,,,,,,,,,,,,,,,,,,,,,,,,,,,,,,,,,,,,,
,,,,,V3_059,21,Female,2024-11-09_17h12.29.477,jersey_experiment_5_v3,2023.2.2,Win32,85.47008547,,,,,,,,,,,,,,,,211.6839,213.2367,213.2368,214.119,return,0.3785,,87.890625,0,35,35,52,1,FBP-RB-18.png,0.4,1.2,53,0.75,,,,,,,,,,,,,,,,,,,,,,,,,,,,,,,,,,,,,,,,,,,,,
,,,,,V3_059,21,Female,2024-11-09_17h12.29.477,jersey_experiment_5_v3,2023.2.2,Win32,85.47008547,,,,,,,,,,,,,,,,214.1193,215.6721,215.6721,217.2487,return,0.324,,93.48958333,0,36,36,48,1,FBP-RB-17.png,0.43,1.2,49,0.75,,,,,,,,,,,,,,,,,,,,,,,,,,,,,,,,,,,,,,,,,,,,,
,,,,,V3_059,21,Female,2024-11-09_17h12.29.477,jersey_experiment_5_v3,2023.2.2,Win32,85.47008547,,,,,,,,,,,,,,,,217.249,218.8019,218.802,221.4724,return,0.2285,,29.55729167,0,37,37,25,1,FBP-PT-19.png,0.35,1.2,26,0.75,,,,,,,,,,,,,,,,,,,,,,,,,,,,,,,,,,,,,,,,,,,,,
,,,,,V3_059,21,Female,2024-11-09_17h12.29.477,jersey_experiment_5_v3,2023.2.2,Win32,85.47008547,,,,,,,,,,,,,,,,221.4727,223.0255,223.0256,225.6843,return,0.2847,,48.828125,0,38,38,7,1,FBP-YG-81.png,0.4,1.2,8,0.75,,,,,,,,,,,,,,,,,,,,,,,,,,,,,,,,,,,,,,,,,,,,,
,,,,,V3_059,21,Female,2024-11-09_17h12.29.477,jersey_experiment_5_v3,2023.2.2,Win32,85.47008547,,,,,,,,,,,,,,,,225.6847,227.2373,227.2373,228.1668,return,0.1785,,48.4375,0,39,39,12,1,FBP-YG-91.png,0.4,1.2,13,0.75,,,,,,,,,,,,,,,,,,,,,,,,,,,,,,,,,,,,,,,,,,,,,
,,,,,V3_059,21,Female,2024-11-09_17h12.29.477,jersey_experiment_5_v3,2023.2.2,Win32,85.47008547,,,,,,,,,,,,,,,,228.167,229.7198,229.7198,230.8962,return,0.1598,,30.72916667,0,40,40,16,1,FBP-PT-17.png,0.37,1.2,17,0.75,,,,,,,,,,,,,,,,,,,,,,,,,,,,,,,,,,,,,,,,,,,,,
,,,,,V3_059,21,Female,2024-11-09_17h12.29.477,jersey_experiment_5_v3,2023.2.2,Win32,85.47008547,,,,,,,,,,,,,,,,230.8966,232.4491,232.4491,234.4727,return,0.2132,,74.34895833,0,41,41,58,1,FBP-RB-19.png,0.43,1.2,59,0.75,,,,,,,,,,,,,,,,,,,,,,,,,,,,,,,,,,,,,,,,,,,,,
,,,,,V3_059,21,Female,2024-11-09_17h12.29.477,jersey_experiment_5_v3,2023.2.2,Win32,85.47008547,,,,,,,,,,,,,,,,234.473,236.0258,236.0258,236.9905,return,0.2427,,83.33333333,0,42,42,4,1,FBP-YG-71.png,0.45,1.2,5,0.75,,,,,,,,,,,,,,,,,,,,,,,,,,,,,,,,,,,,,,,,,,,,,
,,,,,V3_059,21,Female,2024-11-09_17h12.29.477,jersey_experiment_5_v3,2023.2.2,Win32,85.47008547,,,,,,,,,,,,,,,,236.9908,238.5435,238.5436,239.8142,return,0.1884,,87.23958333,0,43,43,57,1,FBP-RB-19.png,0.4,1.2,58,0.75,,,,,,,,,,,,,,,,,,,,,,,,,,,,,,,,,,,,,,,,,,,,,
,,,,,V3_059,21,Female,2024-11-09_17h12.29.477,jersey_experiment_5_v3,2023.2.2,Win32,85.47008547,,,,,,,,,,,,,,,,239.8144,241.1083,241.1084,244.8496,return,0.2521,,10.546875,0,44,44,40,1,FBP-OG-19.png,0.35,1.2,41,0.5,,,,,,,,,,,,,,,,,,,,,,,,,,,,,,,,,,,,,,,,,,,,,
,,,,,V3_059,21,Female,2024-11-09_17h12.29.477,jersey_experiment_5_v3,2023.2.2,Win32,85.47008547,,,,,,,,,,,,,,,,244.8499,246.4027,246.4027,248.5322,return,0.2479,,87.36979167,0,45,45,3,1,FBP-YG-71.png,0.43,1.2,4,0.75,,,,,,,,,,,,,,,,,,,,,,,,,,,,,,,,,,,,,,,,,,,,,
,,,,,V3_059,21,Female,2024-11-09_17h12.29.477,jersey_experiment_5_v3,2023.2.2,Win32,85.47008547,,,,,,,,,,,,,,,,248.5324,249.8264,249.8264,252.3206,return,0.124,,24.21875,0,46,46,30,1,FBP-OG-17.png,0.35,1.2,31,0.5,,,,,,,,,,,,,,,,,,,,,,,,,,,,,,,,,,,,,,,,,,,,,
,,,,,V3_059,21,Female,2024-11-09_17h12.29.477,jersey_experiment_5_v3,2023.2.2,Win32,85.47008547,,,,,,,,,,,,,,,,252.3208,253.8736,253.8736,254.7441,return,0.1506,,24.21875,0,47,47,5,1,FBP-YG-81.png,0.35,1.2,6,0.75,,,,,,,,,,,,,,,,,,,,,,,,,,,,,,,,,,,,,,,,,,,,,
,,,,,V3_059,21,Female,2024-11-09_17h12.29.477,jersey_experiment_5_v3,2023.2.2,Win32,85.47008547,,,,,,,,,,,,,,,,254.7443,256.0383,256.0383,258.4384,return,0.34,,99.47916667,0,48,48,34,1,FBP-OG-17.png,0.45,1.2,35,0.5,,,,,,,,,,,,,,,,,,,,,,,,,,,,,,,,,,,,,,,,,,,,,
,,,,,V3_059,21,Female,2024-11-09_17h12.29.477,jersey_experiment_5_v3,2023.2.2,Win32,85.47008547,,,,,,,,,,,,,,,,258.4388,259.9914,259.9914,262.521,return,0.2268,,29.6875,0,49,49,20,1,FBP-PT-18.png,0.35,1.2,21,0.75,,,,,,,,,,,,,,,,,,,,,,,,,,,,,,,,,,,,,,,,,,,,,
,,,,,V3_059,21,Female,2024-11-09_17h12.29.477,jersey_experiment_5_v3,2023.2.2,Win32,85.47008547,,,,,,,,,,,,,,,,262.5212,264.074,264.074,266.2975,return,0.2202,,30.20833333,0,50,50,6,1,FBP-YG-81.png,0.37,1.2,7,0.75,,,,,,,,,,,,,,,,,,,,,,,,,,,,,,,,,,,,,,,,,,,,,
,,,,,V3_059,21,Female,2024-11-09_17h12.29.477,jersey_experiment_5_v3,2023.2.2,Win32,85.47008547,,,,,,,,,,,,,,,,266.2978,267.8504,267.8506,269.7447,return,0.512,,29.42708333,0,51,51,51,1,FBP-RB-18.png,0.37,1.2,52,0.75,,,,,,,,,,,,,,,,,,,,,,,,,,,,,,,,,,,,,,,,,,,,,
,,,,,V3_059,21,Female,2024-11-09_17h12.29.477,jersey_experiment_5_v3,2023.2.2,Win32,85.47008547,,,,,,,,,,,,,,,,269.7449,271.0389,271.0389,272.486,return,0.3301,,99.47916667,0,52,52,38,1,FBP-OG-18.png,0.43,1.2,39,0.5,,,,,,,,,,,,,,,,,,,,,,,,,,,,,,,,,,,,,,,,,,,,,
,,,,,V3_059,21,Female,2024-11-09_17h12.29.477,jersey_experiment_5_v3,2023.2.2,Win32,85.47008547,,,,,,,,,,,,,,,,272.4862,274.039,274.039,275.545,return,0.3616,,82.94270833,0,53,53,11,1,FBP-YG-91.png,0.37,1.2,12,0.75,,,,,,,,,,,,,,,,,,,,,,,,,,,,,,,,,,,,,,,,,,,,,
,,,,,V3_059,21,Female,2024-11-09_17h12.29.477,jersey_experiment_5_v3,2023.2.2,Win32,85.47008547,,,,,,,,,,,,,,,,275.5452,277.0979,277.098,278.1334,return,0.5294,,82.94270833,0,54,54,47,1,FBP-RB-17.png,0.4,1.2,48,0.75,,,,,,,,,,,,,,,,,,,,,,,,,,,,,,,,,,,,,,,,,,,,,
,,,,,V3_059,21,Female,2024-11-09_17h12.29.477,jersey_experiment_5_v3,2023.2.2,Win32,85.47008547,,,,,,,,,,,,,,,,278.1336,279.4274,279.4275,281.2511,return,0.4155,,99.73958333,0,55,55,44,1,FBP-OG-19.png,0.45,1.2,45,0.5,,,,,,,,,,,,,,,,,,,,,,,,,,,,,,,,,,,,,,,,,,,,,
,,,,,V3_059,21,Female,2024-11-09_17h12.29.477,jersey_experiment_5_v3,2023.2.2,Win32,85.47008547,,,,,,,,,,,,,,,,281.2514,282.804,282.8041,283.604,return,0.235,,98.95833333,0,56,56,54,1,FBP-RB-18.png,0.45,1.2,55,0.75,,,,,,,,,,,,,,,,,,,,,,,,,,,,,,,,,,,,,,,,,,,,,
,,,,,V3_059,21,Female,2024-11-09_17h12.29.477,jersey_experiment_5_v3,2023.2.2,Win32,85.47008547,,,,,,,,,,,,,,,,283.6043,285.1454,285.1455,287.1924,return,0.259,,62.36979167,0,57,57,50,1,FBP-RB-18.png,0.35,1.2,51,0.75,,,,,,,,,,,,,,,,,,,,,,,,,,,,,,,,,,,,,,,,,,,,,
,,,,,V3_059,21,Female,2024-11-09_17h12.29.477,jersey_experiment_5_v3,2023.2.2,Win32,85.47008547,,,,,,,,,,,,,,,,287.1928,288.7453,288.7454,291.1925,return,0.2214,,28.25520833,0,58,58,0,1,FBP-YG-71.png,0.35,1.2,1,0.75,,,,,,,,,,,,,,,,,,,,,,,,,,,,,,,,,,,,,,,,,,,,,
,,,,,V3_059,21,Female,2024-11-09_17h12.29.477,jersey_experiment_5_v3,2023.2.2,Win32,85.47008547,,,,,,,,,,,,,,,,291.1928,292.7456,292.7456,295.028,return,0.4371,,50.65104167,0,59,59,22,1,FBP-PT-18.png,0.4,1.2,23,0.75,,,,,,,,,,,,,,,,,,,,,,,,,,,,,,,,,,,,,,,,,,,,,
,,,,,V3_059,21,Female,2024-11-09_17h12.29.477,jersey_experiment_5_v3,2023.2.2,Win32,85.47008547,,,,,,,,,,,,,,,,295.0296,296.5809,296.581,297.734,return,0.1764,,74.86979167,,,,,,FBP-PT-71.png,0.43,1.2,19,0.75,0,0,0,18,1,,,,,,,,,,,,,,,,,,,,,,,,,,,,,,,,,,,,,,,,
,,,,,V3_059,21,Female,2024-11-09_17h12.29.477,jersey_experiment_5_v3,2023.2.2,Win32,85.47008547,,,,,,,,,,,,,,,,297.7343,299.2869,299.287,300.3341,return,0.2188,,74.21875,,,,,,FBP-YG-19.png,0.4,1.2,13,0.75,0,1,1,12,1,,,,,,,,,,,,,,,,,,,,,,,,,,,,,,,,,,,,,,,,
,,,,,V3_059,21,Female,2024-11-09_17h12.29.477,jersey_experiment_5_v3,2023.2.2,Win32,85.47008547,,,,,,,,,,,,,,,,300.3343,301.6282,301.6282,305.2049,return,1.6233,,29.55729167,,,,,,FBP-OG-81.png,0.35,1.2,36,0.5,0,2,2,35,1,,,,,,,,,,,,,,,,,,,,,,,,,,,,,,,,,,,,,,,,
,,,,,V3_059,21,Female,2024-11-09_17h12.29.477,jersey_experiment_5_v3,2023.2.2,Win32,85.47008547,,,,,,,,,,,,,,,,305.2051,306.7578,306.7579,308.9461,return,0.275,,80.59895833,,,,,,FBP-YG-17.png,0.45,1.2,5,0.75,0,3,3,4,1,,,,,,,,,,,,,,,,,,,,,,,,,,,,,,,,,,,,,,,,
,,,,,V3_059,21,Female,2024-11-09_17h12.29.477,jersey_experiment_5_v3,2023.2.2,Win32,85.47008547,,,,,,,,,,,,,,,,308.9464,310.2403,310.2404,311.1344,return,0.1607,,89.453125,,,,,,FBP-OG-81.png,0.45,1.2,40,0.5,0,4,4,39,1,,,,,,,,,,,,,,,,,,,,,,,,,,,,,,,,,,,,,,,,
,,,,,V3_059,21,Female,2024-11-09_17h12.29.477,jersey_experiment_5_v3,2023.2.2,Win32,85.47008547,,,,,,,,,,,,,,,,311.1347,312.4286,312.4288,315.3818,return,0.1423,,72.39583333,,,,,,FBP-OG-71.png,0.4,1.2,33,0.5,0,5,5,32,1,,,,,,,,,,,,,,,,,,,,,,,,,,,,,,,,,,,,,,,,
,,,,,V3_059,21,Female,2024-11-09_17h12.29.477,jersey_experiment_5_v3,2023.2.2,Win32,85.47008547,,,,,,,,,,,,,,,,315.3821,316.9347,316.9348,318.676,return,0.0262,,70.3125,,,,,,FBP-RB-91.png,0.37,1.2,57,0.75,0,6,6,56,1,,,,,,,,,,,,,,,,,,,,,,,,,,,,,,,,,,,,,,,,
,,,,,V3_059,21,Female,2024-11-09_17h12.29.477,jersey_experiment_5_v3,2023.2.2,Win32,85.47008547,,,,,,,,,,,,,,,,318.6762,319.9702,319.9703,321.4643,return,0.4685,,89.58333333,,,,,,FBP-OG-81.png,0.43,1.2,39,0.5,0,7,7,38,1,,,,,,,,,,,,,,,,,,,,,,,,,,,,,,,,,,,,,,,,
,,,,,V3_059,21,Female,2024-11-09_17h12.29.477,jersey_experiment_5_v3,2023.2.2,Win32,85.47008547,,,,,,,,,,,,,,,,321.4645,323.0173,323.0173,325.0409,return,0.1674,,21.74479167,,,,,,FBP-YG-17.png,0.35,1.2,1,0.75,0,8,8,0,1,,,,,,,,,,,,,,,,,,,,,,,,,,,,,,,,,,,,,,,,
,,,,,V3_059,21,Female,2024-11-09_17h12.29.477,jersey_experiment_5_v3,2023.2.2,Win32,85.47008547,,,,,,,,,,,,,,,,325.0411,326.5942,326.5942,328.3352,return,0.4429,,99.73958333,,,,,,FBP-YG-18.png,0.43,1.2,9,0.75,0,9,9,8,1,,,,,,,,,,,,,,,,,,,,,,,,,,,,,,,,,,,,,,,,
,,,,,V3_059,21,Female,2024-11-09_17h12.29.477,jersey_experiment_5_v3,2023.2.2,Win32,85.47008547,,,,,,,,,,,,,,,,328.3354,329.8881,329.8881,331.4175,return,0.186,,78.90625,,,,,,FBP-YG-17.png,0.37,1.2,2,0.75,0,10,10,1,1,,,,,,,,,,,,,,,,,,,,,,,,,,,,,,,,,,,,,,,,
,,,,,V3_059,21,Female,2024-11-09_17h12.29.477,jersey_experiment_5_v3,2023.2.2,Win32,85.47008547,,,,,,,,,,,,,,,,331.4178,332.9707,332.9708,334.6882,return,0.3005,,99.47916667,,,,,,FBP-RB-81.png,0.45,1.2,55,0.75,0,11,11,54,1,,,,,,,,,,,,,,,,,,,,,,,,,,,,,,,,,,,,,,,,
,,,,,V3_059,21,Female,2024-11-09_17h12.29.477,jersey_experiment_5_v3,2023.2.2,Win32,85.47008547,,,,,,,,,,,,,,,,334.6884,336.2296,336.2296,336.9943,return,0.2604,,99.08854167,,,,,,FBP-PT-81.png,0.43,1.2,24,0.75,0,12,12,23,1,,,,,,,,,,,,,,,,,,,,,,,,,,,,,,,,,,,,,,,,
,,,,,V3_059,21,Female,2024-11-09_17h12.29.477,jersey_experiment_5_v3,2023.2.2,Win32,85.47008547,,,,,,,,,,,,,,,,336.9945,338.5476,338.5476,339.7474,return,0.2825,,70.703125,,,,,,FBP-PT-91.png,0.37,1.2,27,0.75,0,13,13,26,1,,,,,,,,,,,,,,,,,,,,,,,,,,,,,,,,,,,,,,,,
,,,,,V3_059,21,Female,2024-11-09_17h12.29.477,jersey_experiment_5_v3,2023.2.2,Win32,85.47008547,,,,,,,,,,,,,,,,339.7477,341.0415,341.0415,343.3003,return,0.2373,,99.73958333,,,,,,FBP-OG-71.png,0.43,1.2,34,0.5,0,14,14,33,1,,,,,,,,,,,,,,,,,,,,,,,,,,,,,,,,,,,,,,,,
,,,,,V3_059,21,Female,2024-11-09_17h12.29.477,jersey_experiment_5_v3,2023.2.2,Win32,85.47008547,,,,,,,,,,,,,,,,343.3005,344.8536,344.8536,346.9005,return,0.2025,,74.86979167,,,,,,FBP-YG-17.png,0.4,1.2,3,0.75,0,15,15,2,1,,,,,,,,,,,,,,,,,,,,,,,,,,,,,,,,,,,,,,,,
,,,,,V3_059,21,Female,2024-11-09_17h12.29.477,jersey_experiment_5_v3,2023.2.2,Win32,85.47008547,,,,,,,,,,,,,,,,346.9007,348.1949,348.195,349.6066,return,0.2096,,49.47916667,,,,,,FBP-OG-81.png,0.4,1.2,38,0.5,0,16,16,37,1,,,,,,,,,,,,,,,,,,,,,,,,,,,,,,,,,,,,,,,,
,,,,,V3_059,21,Female,2024-11-09_17h12.29.477,jersey_experiment_5_v3,2023.2.2,Win32,85.47008547,,,,,,,,,,,,,,,,349.6067,351.1596,351.1596,353.3008,return,0.2352,,24.08854167,,,,,,FBP-RB-71.png,0.35,1.2,46,0.75,0,17,17,45,1,,,,,,,,,,,,,,,,,,,,,,,,,,,,,,,,,,,,,,,,
,,,,,V3_059,21,Female,2024-11-09_17h12.29.477,jersey_experiment_5_v3,2023.2.2,Win32,85.47008547,,,,,,,,,,,,,,,,353.3011,354.8538,354.8539,356.1597,return,0.2187,,98.30729167,,,,,,FBP-PT-91.png,0.43,1.2,29,0.75,0,18,18,28,1,,,,,,,,,,,,,,,,,,,,,,,,,,,,,,,,,,,,,,,,
,,,,,V3_059,21,Female,2024-11-09_17h12.29.477,jersey_experiment_5_v3,2023.2.2,Win32,85.47008547,,,,,,,,,,,,,,,,356.16,357.7128,357.7128,358.8069,return,0.3038,,97.39583333,,,,,,FBP-YG-17.png,0.43,1.2,4,0.75,0,19,19,3,1,,,,,,,,,,,,,,,,,,,,,,,,,,,,,,,,,,,,,,,,
,,,,,V3_059,21,Female,2024-11-09_17h12.29.477,jersey_experiment_5_v3,2023.2.2,Win32,85.47008547,,,,,,,,,,,,,,,,358.8071,360.36,360.36,362.4187,return,0.2006,,98.95833333,,,,,,FBP-RB-71.png,0.43,1.2,49,0.75,0,20,20,48,1,,,,,,,,,,,,,,,,,,,,,,,,,,,,,,,,,,,,,,,,
,,,,,V3_059,21,Female,2024-11-09_17h12.29.477,jersey_experiment_5_v3,2023.2.2,Win32,85.47008547,,,,,,,,,,,,,,,,362.419,363.9718,363.9718,366.1954,return,0.2503,,75.52083333,,,,,,FBP-PT-71.png,0.37,1.2,17,0.75,0,21,21,16,1,,,,,,,,,,,,,,,,,,,,,,,,,,,,,,,,,,,,,,,,
,,,,,V3_059,21,Female,2024-11-09_17h12.29.477,jersey_experiment_5_v3,2023.2.2,Win32,85.47008547,,,,,,,,,,,,,,,,366.1957,367.4896,367.4896,369.1248,return,0.3311,,74.609375,,,,,,FBP-OG-91.png,0.43,1.2,44,0.5,0,22,22,43,1,,,,,,,,,,,,,,,,,,,,,,,,,,,,,,,,,,,,,,,,
,,,,,V3_059,21,Female,2024-11-09_17h12.29.477,jersey_experiment_5_v3,2023.2.2,Win32,85.47008547,,,,,,,,,,,,,,,,369.1251,370.678,370.678,371.6545,return,0.2592,,88.02083333,,,,,,FBP-PT-81.png,0.45,1.2,25,0.75,0,23,23,24,1,,,,,,,,,,,,,,,,,,,,,,,,,,,,,,,,,,,,,,,,
,,,,,V3_059,21,Female,2024-11-09_17h12.29.477,jersey_experiment_5_v3,2023.2.2,Win32,85.47008547,,,,,,,,,,,,,,,,371.6547,373.2074,373.2075,377.8898,return,0.605,,25,,,,,,FBP-YG-18.png,0.37,1.2,7,0.75,0,24,24,6,1,,,,,,,,,,,,,,,,,,,,,,,,,,,,,,,,,,,,,,,,
,,,,,V3_059,21,Female,2024-11-09_17h12.29.477,jersey_experiment_5_v3,2023.2.2,Win32,85.47008547,,,,,,,,,,,,,,,,377.8901,379.1841,379.1841,381.5725,return,0.6853,,2.864583333,,,,,,FBP-OG-91.png,0.35,1.2,41,0.5,0,25,25,40,1,,,,,,,,,,,,,,,,,,,,,,,,,,,,,,,,,,,,,,,,
,,,,,V3_059,21,Female,2024-11-09_17h12.29.477,jersey_experiment_5_v3,2023.2.2,Win32,85.47008547,,,,,,,,,,,,,,,,381.5727,382.8666,382.8666,384.2901,return,0.3222,,10.546875,,,,,,FBP-OG-71.png,0.37,1.2,32,0.5,0,26,26,31,1,,,,,,,,,,,,,,,,,,,,,,,,,,,,,,,,,,,,,,,,
,,,,,V3_059,21,Female,2024-11-09_17h12.29.477,jersey_experiment_5_v3,2023.2.2,Win32,85.47008547,,,,,,,,,,,,,,,,384.2904,385.8432,385.8433,387.714,return,0.1807,,93.61979167,,,,,,FBP-PT-91.png,0.45,1.2,30,0.75,0,27,27,29,1,,,,,,,,,,,,,,,,,,,,,,,,,,,,,,,,,,,,,,,,
,,,,,V3_059,21,Female,2024-11-09_17h12.29.477,jersey_experiment_5_v3,2023.2.2,Win32,85.47008547,,,,,,,,,,,,,,,,387.7143,389.2667,389.2667,390.8669,return,0.1216,,90.49479167,,,,,,FBP-RB-71.png,0.37,1.2,47,0.75,0,28,28,46,1,,,,,,,,,,,,,,,,,,,,,,,,,,,,,,,,,,,,,,,,
,,,,,V3_059,21,Female,2024-11-09_17h12.29.477,jersey_experiment_5_v3,2023.2.2,Win32,85.47008547,,,,,,,,,,,,,,,,390.8672,392.4198,392.4198,393.4905,return,0.1673,,98.95833333,,,,,,FBP-RB-81.png,0.43,1.2,54,0.75,0,29,29,53,1,,,,,,,,,,,,,,,,,,,,,,,,,,,,,,,,,,,,,,,,
,,,,,V3_059,21,Female,2024-11-09_17h12.29.477,jersey_experiment_5_v3,2023.2.2,Win32,85.47008547,,,,,,,,,,,,,,,,393.4908,395.0435,395.0435,397.3259,return,0.2187,,25.78125,,,,,,FBP-PT-91.png,0.35,1.2,26,0.75,0,30,30,25,1,,,,,,,,,,,,,,,,,,,,,,,,,,,,,,,,,,,,,,,,
,,,,,V3_059,21,Female,2024-11-09_17h12.29.477,jersey_experiment_5_v3,2023.2.2,Win32,85.47008547,,,,,,,,,,,,,,,,397.3261,398.8789,398.8789,402.5026,return,0.1869,,83.59375,,,,,,FBP-YG-19.png,0.43,1.2,14,0.75,0,31,31,13,1,,,,,,,,,,,,,,,,,,,,,,,,,,,,,,,,,,,,,,,,
,,,,,V3_059,21,Female,2024-11-09_17h12.29.477,jersey_experiment_5_v3,2023.2.2,Win32,85.47008547,,,,,,,,,,,,,,,,402.5029,404.0558,404.0558,405.0908,return,0.1096,,98.56770833,,,,,,FBP-PT-71.png,0.45,1.2,20,0.75,0,32,32,19,1,,,,,,,,,,,,,,,,,,,,,,,,,,,,,,,,,,,,,,,,
,,,,,V3_059,21,Female,2024-11-09_17h12.29.477,jersey_experiment_5_v3,2023.2.2,Win32,85.47008547,,,,,,,,,,,,,,,,405.0911,406.6324,406.6324,407.5853,return,0.2139,,83.984375,,,,,,FBP-RB-71.png,0.4,1.2,48,0.75,0,33,33,47,1,,,,,,,,,,,,,,,,,,,,,,,,,,,,,,,,,,,,,,,,
,,,,,V3_059,21,Female,2024-11-09_17h12.29.477,jersey_experiment_5_v3,2023.2.2,Win32,85.47008547,,,,,,,,,,,,,,,,407.5855,409.1383,409.1384,410.4559,return,0.2026,,46.09375,,,,,,FBP-PT-71.png,0.35,1.2,16,0.75,0,34,34,15,1,,,,,,,,,,,,,,,,,,,,,,,,,,,,,,,,,,,,,,,,
,,,,,V3_059,21,Female,2024-11-09_17h12.29.477,jersey_experiment_5_v3,2023.2.2,Win32,85.47008547,,,,,,,,,,,,,,,,410.4561,412.0088,412.0088,413.2089,return,0.1652,,37.23958333,,,,,,FBP-YG-19.png,0.35,1.2,11,0.75,0,35,35,10,1,,,,,,,,,,,,,,,,,,,,,,,,,,,,,,,,,,,,,,,,
,,,,,V3_059,21,Female,2024-11-09_17h12.29.477,jersey_experiment_5_v3,2023.2.2,Win32,85.47008547,,,,,,,,,,,,,,,,413.2091,414.503,414.503,416.256,return,0.2526,,96.09375,,,,,,FBP-OG-91.png,0.45,1.2,45,0.5,0,36,36,44,1,,,,,,,,,,,,,,,,,,,,,,,,,,,,,,,,,,,,,,,,
,,,,,V3_059,21,Female,2024-11-09_17h12.29.477,jersey_experiment_5_v3,2023.2.2,Win32,85.47008547,,,,,,,,,,,,,,,,416.2562,417.5502,417.5502,421.1857,return,0.2291,,15.234375,,,,,,FBP-OG-91.png,0.37,1.2,42,0.5,0,37,37,41,1,,,,,,,,,,,,,,,,,,,,,,,,,,,,,,,,,,,,,,,,
,,,,,V3_059,21,Female,2024-11-09_17h12.29.477,jersey_experiment_5_v3,2023.2.2,Win32,85.47008547,,,,,,,,,,,,,,,,421.1859,422.4797,422.4797,423.5387,return,0.1804,,11.71875,,,,,,FBP-OG-71.png,0.35,1.2,31,0.5,0,38,38,30,1,,,,,,,,,,,,,,,,,,,,,,,,,,,,,,,,,,,,,,,,
,,,,,V3_059,21,Female,2024-11-09_17h12.29.477,jersey_experiment_5_v3,2023.2.2,Win32,85.47008547,,,,,,,,,,,,,,,,423.539,425.092,425.092,426.4682,return,0.1053,,65.10416667,,,,,,FBP-RB-81.png,0.4,1.2,53,0.75,0,39,39,52,1,,,,,,,,,,,,,,,,,,,,,,,,,,,,,,,,,,,,,,,,
,,,,,V3_059,21,Female,2024-11-09_17h12.29.477,jersey_experiment_5_v3,2023.2.2,Win32,85.47008547,,,,,,,,,,,,,,,,426.4685,428.0214,428.0214,428.7389,return,0.0503,,99.21875,,,,,,FBP-RB-71.png,0.45,1.2,50,0.75,0,40,40,49,1,,,,,,,,,,,,,,,,,,,,,,,,,,,,,,,,,,,,,,,,
,,,,,V3_059,21,Female,2024-11-09_17h12.29.477,jersey_experiment_5_v3,2023.2.2,Win32,85.47008547,,,,,,,,,,,,,,,,428.7391,430.2918,430.2918,432.8214,return,0.2131,,68.22916667,,,,,,FBP-PT-81.png,0.4,1.2,23,0.75,0,41,41,22,1,,,,,,,,,,,,,,,,,,,,,,,,,,,,,,,,,,,,,,,,
,,,,,V3_059,21,Female,2024-11-09_17h12.29.477,jersey_experiment_5_v3,2023.2.2,Win32,85.47008547,,,,,,,,,,,,,,,,432.8217,434.3745,434.3746,436.3745,return,0.2356,,73.95833333,,,,,,FBP-RB-91.png,0.4,1.2,58,0.75,0,42,42,57,1,,,,,,,,,,,,,,,,,,,,,,,,,,,,,,,,,,,,,,,,
,,,,,V3_059,21,Female,2024-11-09_17h12.29.477,jersey_experiment_5_v3,2023.2.2,Win32,85.47008547,,,,,,,,,,,,,,,,436.3748,437.9276,437.9276,439.2805,return,0.2615,,99.47916667,,,,,,FBP-RB-91.png,0.45,1.2,60,0.75,0,43,43,59,1,,,,,,,,,,,,,,,,,,,,,,,,,,,,,,,,,,,,,,,,
,,,,,V3_059,21,Female,2024-11-09_17h12.29.477,jersey_experiment_5_v3,2023.2.2,Win32,85.47008547,,,,,,,,,,,,,,,,439.2808,440.8337,440.8337,442.0571,return,0.2607,,70.3125,,,,,,FBP-RB-81.png,0.37,1.2,52,0.75,0,44,44,51,1,,,,,,,,,,,,,,,,,,,,,,,,,,,,,,,,,,,,,,,,
,,,,,V3_059,21,Female,2024-11-09_17h12.29.477,jersey_experiment_5_v3,2023.2.2,Win32,85.47008547,,,,,,,,,,,,,,,,442.0573,443.6102,443.6102,444.5277,return,0.1836,,57.16145833,,,,,,FBP-PT-81.png,0.37,1.2,22,0.75,0,45,45,21,1,,,,,,,,,,,,,,,,,,,,,,,,,,,,,,,,,,,,,,,,
,,,,,V3_059,21,Female,2024-11-09_17h12.29.477,jersey_experiment_5_v3,2023.2.2,Win32,85.47008547,,,,,,,,,,,,,,,,444.5279,445.822,445.822,447.9514,return,1.3487,,45.18229167,,,,,,FBP-OG-91.png,0.4,1.2,43,0.5,0,46,46,42,1,,,,,,,,,,,,,,,,,,,,,,,,,,,,,,,,,,,,,,,,
,,,,,V3_059,21,Female,2024-11-09_17h12.29.477,jersey_experiment_5_v3,2023.2.2,Win32,85.47008547,,,,,,,,,,,,,,,,447.9517,449.5043,449.5045,450.8809,return,0.1682,,20.96354167,,,,,,FBP-RB-81.png,0.35,1.2,51,0.75,0,47,47,50,1,,,,,,,,,,,,,,,,,,,,,,,,,,,,,,,,,,,,,,,,
,,,,,V3_059,21,Female,2024-11-09_17h12.29.477,jersey_experiment_5_v3,2023.2.2,Win32,85.47008547,,,,,,,,,,,,,,,,450.8811,452.4341,452.4341,454.1751,return,0.1692,,87.5,,,,,,FBP-YG-18.png,0.45,1.2,10,0.75,0,48,48,9,1,,,,,,,,,,,,,,,,,,,,,,,,,,,,,,,,,,,,,,,,
,,,,,V3_059,21,Female,2024-11-09_17h12.29.477,jersey_experiment_5_v3,2023.2.2,Win32,85.47008547,,,,,,,,,,,,,,,,454.1754,455.7283,455.7283,457.2223,return,0.1047,,99.609375,,,,,,FBP-RB-91.png,0.43,1.2,59,0.75,0,49,49,58,1,,,,,,,,,,,,,,,,,,,,,,,,,,,,,,,,,,,,,,,,
,,,,,V3_059,21,Female,2024-11-09_17h12.29.477,jersey_experiment_5_v3,2023.2.2,Win32,85.47008547,,,,,,,,,,,,,,,,457.2226,458.7753,458.7753,461.9048,return,0.1237,,20.83333333,,,,,,FBP-PT-81.png,0.35,1.2,21,0.75,0,50,50,20,1,,,,,,,,,,,,,,,,,,,,,,,,,,,,,,,,,,,,,,,,
,,,,,V3_059,21,Female,2024-11-09_17h12.29.477,jersey_experiment_5_v3,2023.2.2,Win32,85.47008547,,,,,,,,,,,,,,,,461.9049,463.4578,463.4579,465.2815,return,0.1663,,36.58854167,,,,,,FBP-PT-71.png,0.4,1.2,18,0.75,0,51,51,17,1,,,,,,,,,,,,,,,,,,,,,,,,,,,,,,,,,,,,,,,,
,,,,,V3_059,21,Female,2024-11-09_17h12.29.477,jersey_experiment_5_v3,2023.2.2,Win32,85.47008547,,,,,,,,,,,,,,,,465.2817,466.8345,466.8346,467.9051,return,0.2026,,42.83854167,,,,,,FBP-YG-18.png,0.4,1.2,8,0.75,0,52,52,7,1,,,,,,,,,,,,,,,,,,,,,,,,,,,,,,,,,,,,,,,,
,,,,,V3_059,21,Female,2024-11-09_17h12.29.477,jersey_experiment_5_v3,2023.2.2,Win32,85.47008547,,,,,,,,,,,,,,,,467.9053,469.4582,469.4583,470.4816,return,0.1111,,63.54166667,,,,,,FBP-PT-91.png,0.4,1.2,28,0.75,0,53,53,27,1,,,,,,,,,,,,,,,,,,,,,,,,,,,,,,,,,,,,,,,,
,,,,,V3_059,21,Female,2024-11-09_17h12.29.477,jersey_experiment_5_v3,2023.2.2,Win32,85.47008547,,,,,,,,,,,,,,,,470.4818,472.0347,472.0347,472.9757,return,0.2069,,33.85416667,,,,,,FBP-YG-19.png,0.37,1.2,12,0.75,0,54,54,11,1,,,,,,,,,,,,,,,,,,,,,,,,,,,,,,,,,,,,,,,,
,,,,,V3_059,21,Female,2024-11-09_17h12.29.477,jersey_experiment_5_v3,2023.2.2,Win32,85.47008547,,,,,,,,,,,,,,,,472.976,474.5289,474.5289,477.87,return,0.4438,,48.95833333,,,,,,FBP-RB-91.png,0.35,1.2,56,0.75,0,55,55,55,1,,,,,,,,,,,,,,,,,,,,,,,,,,,,,,,,,,,,,,,,
,,,,,V3_059,21,Female,2024-11-09_17h12.29.477,jersey_experiment_5_v3,2023.2.2,Win32,85.47008547,,,,,,,,,,,,,,,,477.8703,479.4231,479.4231,480.4466,return,0.2047,,27.99479167,,,,,,FBP-YG-18.png,0.35,1.2,6,0.75,0,56,56,5,1,,,,,,,,,,,,,,,,,,,,,,,,,,,,,,,,,,,,,,,,
,,,,,V3_059,21,Female,2024-11-09_17h12.29.477,jersey_experiment_5_v3,2023.2.2,Win32,85.47008547,,,,,,,,,,,,,,,,480.4469,481.9998,481.9998,483.2468,return,0.0416,,96.484375,,,,,,FBP-YG-19.png,0.45,1.2,15,0.75,0,57,57,14,1,,,,,,,,,,,,,,,,,,,,,,,,,,,,,,,,,,,,,,,,
,,,,,V3_059,21,Female,2024-11-09_17h12.29.477,jersey_experiment_5_v3,2023.2.2,Win32,85.47008547,,,,,,,,,,,,,,,,483.2471,484.541,484.541,486.9998,return,1.6253,,99.34895833,,,,,,FBP-OG-71.png,0.45,1.2,35,0.5,0,58,58,34,1,,,,,,,,,,,,,,,,,,,,,,,,,,,,,,,,,,,,,,,,
,,,,,V3_059,21,Female,2024-11-09_17h12.29.477,jersey_experiment_5_v3,2023.2.2,Win32,85.47008547,,,,,,,,,,,,,,,,487,488.2941,488.2941,489.5999,return,0.2187,,37.76041667,,,,,,FBP-OG-81.png,0.37,1.2,37,0.5,0,59,59,36,1,,,,,,,,,,,,,,,,,,,,,,,,,,,,,,,,,,,,,,,,
,,,,,V3_059,21,Female,2024-11-09_17h12.29.477,jersey_experiment_5_v3,2023.2.2,Win32,85.47008547,,,,,,,,,,,,,,,,,,,,,,,,,,,,,,,,,,,,,,,489.5999,609.5927,,,,,,,,,,,,,,,,,,,,,,,,,,,,,,,,,,,,,,
,,,,,V3_059,21,Female,2024-11-09_17h12.29.477,jersey_experiment_5_v3,2023.2.2,Win32,85.47008547,,,,,,,,,,,,,,,,,,,,,,,,,,,,,,,,,,,,,,,,,609.5927,621.8756,return,12.2743,,,,,,,,,,,,,,,,,,,,,,,,,,,,,,,,,,
,,,,,V3_059,21,Female,2024-11-09_17h12.29.477,jersey_experiment_5_v3,2023.2.2,Win32,85.47008547,,,,,,,,,,,,,,,,621.8769,623.1697,623.1698,626.511,return,1.8061,,66.14583333,,,,,,FBP-YG-71.png,0.37,1.2,2,0.5,,,,,,,,,,,,,0,0,0,1,1,,,,,,,,,,,,,,,,,,,,,,,,,,,,
,,,,,V3_059,21,Female,2024-11-09_17h12.29.477,jersey_experiment_5_v3,2023.2.2,Win32,85.47008547,,,,,,,,,,,,,,,,626.5113,628.064,628.064,629.4405,return,0.2399,,59.24479167,,,,,,FBP-OG-19.png,0.35,1.2,41,0.75,,,,,,,,,,,,,0,1,1,40,1,,,,,,,,,,,,,,,,,,,,,,,,,,,,
,,,,,V3_059,21,Female,2024-11-09_17h12.29.477,jersey_experiment_5_v3,2023.2.2,Win32,85.47008547,,,,,,,,,,,,,,,,629.4407,630.7347,630.7347,631.8875,return,0.0761,,89.453125,,,,,,FBP-PT-18.png,0.43,1.2,24,0.5,,,,,,,,,,,,,0,2,2,23,1,,,,,,,,,,,,,,,,,,,,,,,,,,,,
,,,,,V3_059,21,Female,2024-11-09_17h12.29.477,jersey_experiment_5_v3,2023.2.2,Win32,85.47008547,,,,,,,,,,,,,,,,631.8878,633.1818,633.1818,633.8406,return,0.0884,,91.796875,,,,,,FBP-RB-18.png,0.4,1.2,53,0.5,,,,,,,,,,,,,0,3,3,52,1,,,,,,,,,,,,,,,,,,,,,,,,,,,,
,,,,,V3_059,21,Female,2024-11-09_17h12.29.477,jersey_experiment_5_v3,2023.2.2,Win32,85.47008547,,,,,,,,,,,,,,,,633.8409,635.1348,635.1348,636.0054,return,0.1566,,98.95833333,,,,,,FBP-RB-17.png,0.43,1.2,49,0.5,,,,,,,,,,,,,0,4,4,48,1,,,,,,,,,,,,,,,,,,,,,,,,,,,,
,,,,,V3_059,21,Female,2024-11-09_17h12.29.477,jersey_experiment_5_v3,2023.2.2,Win32,85.47008547,,,,,,,,,,,,,,,,636.0058,637.5586,637.5586,638.5938,return,0.2051,,78.64583333,,,,,,FBP-OG-19.png,0.4,1.2,43,0.75,,,,,,,,,,,,,0,5,5,42,1,,,,,,,,,,,,,,,,,,,,,,,,,,,,
,,,,,V3_059,21,Female,2024-11-09_17h12.29.477,jersey_experiment_5_v3,2023.2.2,Win32,85.47008547,,,,,,,,,,,,,,,,638.5941,640.1469,640.1469,641.6175,return,0.2957,,98.95833333,,,,,,FBP-OG-19.png,0.45,1.2,45,0.75,,,,,,,,,,,,,0,6,6,44,1,,,,,,,,,,,,,,,,,,,,,,,,,,,,
,,,,,V3_059,21,Female,2024-11-09_17h12.29.477,jersey_experiment_5_v3,2023.2.2,Win32,85.47008547,,,,,,,,,,,,,,,,641.6177,642.9114,642.9115,645.1117,return,0.3684,,26.953125,,,,,,FBP-PT-18.png,0.35,1.2,21,0.5,,,,,,,,,,,,,0,7,7,20,1,,,,,,,,,,,,,,,,,,,,,,,,,,,,
,,,,,V3_059,21,Female,2024-11-09_17h12.29.477,jersey_experiment_5_v3,2023.2.2,Win32,85.47008547,,,,,,,,,,,,,,,,645.112,646.4057,646.4057,647.5353,return,0.147,,32.421875,,,,,,FBP-PT-19.png,0.35,1.2,26,0.5,,,,,,,,,,,,,0,8,8,25,1,,,,,,,,,,,,,,,,,,,,,,,,,,,,
,,,,,V3_059,21,Female,2024-11-09_17h12.29.477,jersey_experiment_5_v3,2023.2.2,Win32,85.47008547,,,,,,,,,,,,,,,,647.5355,649.0885,649.0885,650.359,return,0.11,,88.15104167,,,,,,FBP-OG-18.png,0.43,1.2,39,0.75,,,,,,,,,,,,,0,9,9,38,1,,,,,,,,,,,,,,,,,,,,,,,,,,,,
,,,,,V3_059,21,Female,2024-11-09_17h12.29.477,jersey_experiment_5_v3,2023.2.2,Win32,85.47008547,,,,,,,,,,,,,,,,650.3592,651.6531,651.6531,652.6059,return,0.135,,99.609375,,,,,,FBP-YG-81.png,0.45,1.2,10,0.5,,,,,,,,,,,,,0,10,10,9,1,,,,,,,,,,,,,,,,,,,,,,,,,,,,
,,,,,V3_059,21,Female,2024-11-09_17h12.29.477,jersey_experiment_5_v3,2023.2.2,Win32,85.47008547,,,,,,,,,,,,,,,,652.6062,653.9001,653.9002,655.3356,return,0.2826,,37.109375,,,,,,FBP-YG-91.png,0.35,1.2,11,0.5,,,,,,,,,,,,,0,11,11,10,1,,,,,,,,,,,,,,,,,,,,,,,,,,,,
,,,,,V3_059,21,Female,2024-11-09_17h12.29.477,jersey_experiment_5_v3,2023.2.2,Win32,85.47008547,,,,,,,,,,,,,,,,655.3359,656.8885,656.8886,658.2768,return,0.1769,,28.64583333,,,,,,FBP-OG-19.png,0.37,1.2,42,0.75,,,,,,,,,,,,,0,12,12,41,1,,,,,,,,,,,,,,,,,,,,,,,,,,,,
,,,,,V3_059,21,Female,2024-11-09_17h12.29.477,jersey_experiment_5_v3,2023.2.2,Win32,85.47008547,,,,,,,,,,,,,,,,658.277,659.571,659.5711,661.5593,return,0.1422,,63.671875,,,,,,FBP-YG-91.png,0.4,1.2,13,0.5,,,,,,,,,,,,,0,13,13,12,1,,,,,,,,,,,,,,,,,,,,,,,,,,,,
,,,,,V3_059,21,Female,2024-11-09_17h12.29.477,jersey_experiment_5_v3,2023.2.2,Win32,85.47008547,,,,,,,,,,,,,,,,661.5597,662.8535,662.8536,663.9829,return,0.043,,55.859375,,,,,,FBP-RB-18.png,0.35,1.2,51,0.5,,,,,,,,,,,,,0,14,14,50,1,,,,,,,,,,,,,,,,,,,,,,,,,,,,
,,,,,V3_059,21,Female,2024-11-09_17h12.29.477,jersey_experiment_5_v3,2023.2.2,Win32,85.47008547,,,,,,,,,,,,,,,,663.9832,665.5359,665.536,667.4301,return,1.0592,,63.41145833,,,,,,FBP-OG-18.png,0.35,1.2,36,0.75,,,,,,,,,,,,,0,15,15,35,1,,,,,,,,,,,,,,,,,,,,,,,,,,,,
,,,,,V3_059,21,Female,2024-11-09_17h12.29.477,jersey_experiment_5_v3,2023.2.2,Win32,85.47008547,,,,,,,,,,,,,,,,667.4304,668.9831,668.9832,669.6067,return,0.1425,,63.28125,,,,,,FBP-OG-17.png,0.37,1.2,32,0.75,,,,,,,,,,,,,0,16,16,31,1,,,,,,,,,,,,,,,,,,,,,,,,,,,,
,,,,,V3_059,21,Female,2024-11-09_17h12.29.477,jersey_experiment_5_v3,2023.2.2,Win32,85.47008547,,,,,,,,,,,,,,,,669.6069,670.9007,670.9008,671.748,return,0.132,,90.10416667,,,,,,FBP-RB-18.png,0.45,1.2,55,0.5,,,,,,,,,,,,,0,17,17,54,1,,,,,,,,,,,,,,,,,,,,,,,,,,,,
,,,,,V3_059,21,Female,2024-11-09_17h12.29.477,jersey_experiment_5_v3,2023.2.2,Win32,85.47008547,,,,,,,,,,,,,,,,671.7482,673.042,673.0421,677.3835,return,2.1516,,44.140625,,,,,,FBP-YG-71.png,0.35,1.2,1,0.5,,,,,,,,,,,,,0,18,18,0,1,,,,,,,,,,,,,,,,,,,,,,,,,,,,
,,,,,V3_059,21,Female,2024-11-09_17h12.29.477,jersey_experiment_5_v3,2023.2.2,Win32,85.47008547,,,,,,,,,,,,,,,,677.3837,678.6776,678.6776,679.5247,return,0.1297,,43.359375,,,,,,FBP-RB-17.png,0.37,1.2,47,0.5,,,,,,,,,,,,,0,19,19,46,1,,,,,,,,,,,,,,,,,,,,,,,,,,,,
,,,,,V3_059,21,Female,2024-11-09_17h12.29.477,jersey_experiment_5_v3,2023.2.2,Win32,85.47008547,,,,,,,,,,,,,,,,679.5249,680.8189,680.819,682.3247,return,0.2718,,63.02083333,,,,,,FBP-YG-71.png,0.4,1.2,3,0.5,,,,,,,,,,,,,0,20,20,2,1,,,,,,,,,,,,,,,,,,,,,,,,,,,,
,,,,,V3_059,21,Female,2024-11-09_17h12.29.477,jersey_experiment_5_v3,2023.2.2,Win32,85.47008547,,,,,,,,,,,,,,,,682.325,683.619,683.619,684.3131,return,0.1651,,78.77604167,,,,,,FBP-PT-17.png,0.4,1.2,18,0.5,,,,,,,,,,,,,0,21,21,17,1,,,,,,,,,,,,,,,,,,,,,,,,,,,,
,,,,,V3_059,21,Female,2024-11-09_17h12.29.477,jersey_experiment_5_v3,2023.2.2,Win32,85.47008547,,,,,,,,,,,,,,,,684.3134,685.6074,685.6074,687.8309,return,0.8316,,88.80208333,,,,,,FBP-YG-71.png,0.43,1.2,4,0.5,,,,,,,,,,,,,0,22,22,3,1,,,,,,,,,,,,,,,,,,,,,,,,,,,,
,,,,,V3_059,21,Female,2024-11-09_17h12.29.477,jersey_experiment_5_v3,2023.2.2,Win32,85.47008547,,,,,,,,,,,,,,,,687.8312,689.125,689.1251,689.7603,return,0.1945,,87.890625,,,,,,FBP-RB-19.png,0.4,1.2,58,0.5,,,,,,,,,,,,,0,23,23,57,1,,,,,,,,,,,,,,,,,,,,,,,,,,,,
,,,,,V3_059,21,Female,2024-11-09_17h12.29.477,jersey_experiment_5_v3,2023.2.2,Win32,85.47008547,,,,,,,,,,,,,,,,689.7607,691.0545,691.0545,691.7957,return,0.0238,,97.78645833,,,,,,FBP-RB-19.png,0.43,1.2,59,0.5,,,,,,,,,,,,,0,24,24,58,1,,,,,,,,,,,,,,,,,,,,,,,,,,,,
,,,,,V3_059,21,Female,2024-11-09_17h12.29.477,jersey_experiment_5_v3,2023.2.2,Win32,85.47008547,,,,,,,,,,,,,,,,691.7961,693.0898,693.0898,694.3252,return,0.4809,,99.609375,,,,,,FBP-PT-17.png,0.45,1.2,20,0.5,,,,,,,,,,,,,0,25,25,19,1,,,,,,,,,,,,,,,,,,,,,,,,,,,,
,,,,,V3_059,21,Female,2024-11-09_17h12.29.477,jersey_experiment_5_v3,2023.2.2,Win32,85.47008547,,,,,,,,,,,,,,,,694.3254,695.6194,695.6194,696.3253,return,0.1428,,99.609375,,,,,,FBP-PT-19.png,0.45,1.2,30,0.5,,,,,,,,,,,,,0,26,26,29,1,,,,,,,,,,,,,,,,,,,,,,,,,,,,
,,,,,V3_059,21,Female,2024-11-09_17h12.29.477,jersey_experiment_5_v3,2023.2.2,Win32,85.47008547,,,,,,,,,,,,,,,,696.3256,697.6194,697.6195,698.8313,return,0.0056,,39.58333333,,,,,,FBP-PT-19.png,0.4,1.2,28,0.5,,,,,,,,,,,,,0,27,27,27,1,,,,,,,,,,,,,,,,,,,,,,,,,,,,
,,,,,V3_059,21,Female,2024-11-09_17h12.29.477,jersey_experiment_5_v3,2023.2.2,Win32,85.47008547,,,,,,,,,,,,,,,,698.8316,700.1253,700.1253,701.2197,return,0.1206,,14.84375,,,,,,FBP-RB-17.png,0.35,1.2,46,0.5,,,,,,,,,,,,,0,28,28,45,1,,,,,,,,,,,,,,,,,,,,,,,,,,,,
,,,,,V3_059,21,Female,2024-11-09_17h12.29.477,jersey_experiment_5_v3,2023.2.2,Win32,85.47008547,,,,,,,,,,,,,,,,701.2199,702.7727,702.7727,704.4315,return,0.24,,68.359375,,,,,,FBP-OG-19.png,0.43,1.2,44,0.75,,,,,,,,,,,,,0,29,29,43,1,,,,,,,,,,,,,,,,,,,,,,,,,,,,
,,,,,V3_059,21,Female,2024-11-09_17h12.29.477,jersey_experiment_5_v3,2023.2.2,Win32,85.47008547,,,,,,,,,,,,,,,,704.4317,705.7258,705.7259,706.6082,return,0.0064,,80.859375,,,,,,FBP-YG-91.png,0.37,1.2,12,0.5,,,,,,,,,,,,,0,30,30,11,1,,,,,,,,,,,,,,,,,,,,,,,,,,,,
,,,,,V3_059,21,Female,2024-11-09_17h12.29.477,jersey_experiment_5_v3,2023.2.2,Win32,85.47008547,,,,,,,,,,,,,,,,706.6084,707.9024,707.9025,708.6905,return,0.0157,,88.28125,,,,,,FBP-RB-19.png,0.45,1.2,60,0.5,,,,,,,,,,,,,0,31,31,59,1,,,,,,,,,,,,,,,,,,,,,,,,,,,,
,,,,,V3_059,21,Female,2024-11-09_17h12.29.477,jersey_experiment_5_v3,2023.2.2,Win32,85.47008547,,,,,,,,,,,,,,,,708.6907,709.9846,709.9847,711.3024,return,0.683,,94.140625,,,,,,FBP-YG-81.png,0.4,1.2,8,0.5,,,,,,,,,,,,,0,32,32,7,1,,,,,,,,,,,,,,,,,,,,,,,,,,,,
,,,,,V3_059,21,Female,2024-11-09_17h12.29.477,jersey_experiment_5_v3,2023.2.2,Win32,85.47008547,,,,,,,,,,,,,,,,711.3026,712.8553,712.8554,715.22,return,0.6015,,95.44270833,,,,,,FBP-OG-17.png,0.43,1.2,34,0.75,,,,,,,,,,,,,0,33,33,33,1,,,,,,,,,,,,,,,,,,,,,,,,,,,,
,,,,,V3_059,21,Female,2024-11-09_17h12.29.477,jersey_experiment_5_v3,2023.2.2,Win32,85.47008547,,,,,,,,,,,,,,,,715.2203,716.7733,716.7733,717.9614,return,0.1645,,5.078125,,,,,,FBP-OG-17.png,0.35,1.2,31,0.75,,,,,,,,,,,,,0,34,34,30,1,,,,,,,,,,,,,,,,,,,,,,,,,,,,
,,,,,V3_059,21,Female,2024-11-09_17h12.29.477,jersey_experiment_5_v3,2023.2.2,Win32,85.47008547,,,,,,,,,,,,,,,,717.9616,719.2555,719.2555,720.4086,return,0.0371,,91.40625,,,,,,FBP-YG-81.png,0.43,1.2,9,0.5,,,,,,,,,,,,,0,35,35,8,1,,,,,,,,,,,,,,,,,,,,,,,,,,,,
,,,,,V3_059,21,Female,2024-11-09_17h12.29.477,jersey_experiment_5_v3,2023.2.2,Win32,85.47008547,,,,,,,,,,,,,,,,720.4089,721.7027,721.7028,723.3263,return,0.1144,,51.30208333,,,,,,FBP-RB-18.png,0.37,1.2,52,0.5,,,,,,,,,,,,,0,36,36,51,1,,,,,,,,,,,,,,,,,,,,,,,,,,,,
,,,,,V3_059,21,Female,2024-11-09_17h12.29.477,jersey_experiment_5_v3,2023.2.2,Win32,85.47008547,,,,,,,,,,,,,,,,723.3266,724.6205,724.6205,725.2559,return,0.1189,,45.44270833,,,,,,FBP-PT-19.png,0.37,1.2,27,0.5,,,,,,,,,,,,,0,37,37,26,1,,,,,,,,,,,,,,,,,,,,,,,,,,,,
,,,,,V3_059,21,Female,2024-11-09_17h12.29.477,jersey_experiment_5_v3,2023.2.2,Win32,85.47008547,,,,,,,,,,,,,,,,725.2561,726.5499,726.5499,727.7499,return,0.5154,,34.63541667,,,,,,FBP-RB-19.png,0.35,1.2,56,0.5,,,,,,,,,,,,,0,38,38,55,1,,,,,,,,,,,,,,,,,,,,,,,,,,,,
,,,,,V3_059,21,Female,2024-11-09_17h12.29.477,jersey_experiment_5_v3,2023.2.2,Win32,85.47008547,,,,,,,,,,,,,,,,727.7502,729.0442,729.0442,730.7736,return,0.0578,,70.18229167,,,,,,FBP-RB-17.png,0.4,1.2,48,0.5,,,,,,,,,,,,,0,39,39,47,1,,,,,,,,,,,,,,,,,,,,,,,,,,,,
,,,,,V3_059,21,Female,2024-11-09_17h12.29.477,jersey_experiment_5_v3,2023.2.2,Win32,85.47008547,,,,,,,,,,,,,,,,730.7738,732.0678,732.0679,732.7031,return,0.016,,83.203125,,,,,,FBP-PT-18.png,0.45,1.2,25,0.5,,,,,,,,,,,,,0,40,40,24,1,,,,,,,,,,,,,,,,,,,,,,,,,,,,
,,,,,V3_059,21,Female,2024-11-09_17h12.29.477,jersey_experiment_5_v3,2023.2.2,Win32,85.47008547,,,,,,,,,,,,,,,,732.7034,733.9975,733.9976,735.0915,return,0.1795,,86.58854167,,,,,,FBP-PT-17.png,0.43,1.2,19,0.5,,,,,,,,,,,,,0,41,41,18,1,,,,,,,,,,,,,,,,,,,,,,,,,,,,
,,,,,V3_059,21,Female,2024-11-09_17h12.29.477,jersey_experiment_5_v3,2023.2.2,Win32,85.47008547,,,,,,,,,,,,,,,,735.0917,736.3857,736.3857,737.4561,return,0.0864,,78.90625,,,,,,FBP-PT-18.png,0.4,1.2,23,0.5,,,,,,,,,,,,,0,42,42,22,1,,,,,,,,,,,,,,,,,,,,,,,,,,,,
,,,,,V3_059,21,Female,2024-11-09_17h12.29.477,jersey_experiment_5_v3,2023.2.2,Win32,85.47008547,,,,,,,,,,,,,,,,737.4564,738.7506,738.7506,741.7623,return,0.4986,,37.109375,,,,,,FBP-YG-81.png,0.35,1.2,6,0.5,,,,,,,,,,,,,0,43,43,5,1,,,,,,,,,,,,,,,,,,,,,,,,,,,,
,,,,,V3_059,21,Female,2024-11-09_17h12.29.477,jersey_experiment_5_v3,2023.2.2,Win32,85.47008547,,,,,,,,,,,,,,,,741.7625,743.3154,743.3155,744.7036,return,0.3239,,78.90625,,,,,,FBP-OG-17.png,0.4,1.2,33,0.75,,,,,,,,,,,,,0,44,44,32,1,,,,,,,,,,,,,,,,,,,,,,,,,,,,
,,,,,V3_059,21,Female,2024-11-09_17h12.29.477,jersey_experiment_5_v3,2023.2.2,Win32,85.47008547,,,,,,,,,,,,,,,,744.7039,745.9977,745.9977,746.9038,return,0.0233,,87.76041667,,,,,,FBP-YG-71.png,0.45,1.2,5,0.5,,,,,,,,,,,,,0,45,45,4,1,,,,,,,,,,,,,,,,,,,,,,,,,,,,
,,,,,V3_059,21,Female,2024-11-09_17h12.29.477,jersey_experiment_5_v3,2023.2.2,Win32,85.47008547,,,,,,,,,,,,,,,,746.904,748.1979,748.198,748.9274,return,0.147,,84.765625,,,,,,FBP-RB-18.png,0.43,1.2,54,0.5,,,,,,,,,,,,,0,46,46,53,1,,,,,,,,,,,,,,,,,,,,,,,,,,,,
,,,,,V3_059,21,Female,2024-11-09_17h12.29.477,jersey_experiment_5_v3,2023.2.2,Win32,85.47008547,,,,,,,,,,,,,,,,748.9276,750.4804,750.4804,750.904,return,0.0003,,86.84895833,,,,,,FBP-OG-17.png,0.45,1.2,35,0.75,,,,,,,,,,,,,0,47,47,34,1,,,,,,,,,,,,,,,,,,,,,,,,,,,,
,,,,,V3_059,21,Female,2024-11-09_17h12.29.477,jersey_experiment_5_v3,2023.2.2,Win32,85.47008547,,,,,,,,,,,,,,,,750.9042,752.1981,752.1981,753.5509,return,0.063,,23.30729167,,,,,,FBP-PT-17.png,0.37,1.2,17,0.5,,,,,,,,,,,,,0,48,48,16,1,,,,,,,,,,,,,,,,,,,,,,,,,,,,
,,,,,V3_059,21,Female,2024-11-09_17h12.29.477,jersey_experiment_5_v3,2023.2.2,Win32,85.47008547,,,,,,,,,,,,,,,,753.5511,754.8451,754.8452,755.304,return,0.1163,,23.4375,,,,,,FBP-YG-81.png,0.37,1.2,7,0.5,,,,,,,,,,,,,0,49,49,6,1,,,,,,,,,,,,,,,,,,,,,,,,,,,,
,,,,,V3_059,21,Female,2024-11-09_17h12.29.477,jersey_experiment_5_v3,2023.2.2,Win32,85.47008547,,,,,,,,,,,,,,,,755.3041,756.5983,756.5983,758.3276,return,0.0708,,55.98958333,,,,,,FBP-PT-19.png,0.43,1.2,29,0.5,,,,,,,,,,,,,0,50,50,28,1,,,,,,,,,,,,,,,,,,,,,,,,,,,,
,,,,,V3_059,21,Female,2024-11-09_17h12.29.477,jersey_experiment_5_v3,2023.2.2,Win32,85.47008547,,,,,,,,,,,,,,,,758.3278,759.6218,759.6218,762.3748,return,0.659,,30.078125,,,,,,FBP-RB-19.png,0.37,1.2,57,0.5,,,,,,,,,,,,,0,51,51,56,1,,,,,,,,,,,,,,,,,,,,,,,,,,,,
,,,,,V3_059,21,Female,2024-11-09_17h12.29.477,jersey_experiment_5_v3,2023.2.2,Win32,85.47008547,,,,,,,,,,,,,,,,762.3751,763.669,763.6691,765.2221,return,0.1888,,75.26041667,,,,,,FBP-RB-17.png,0.45,1.2,50,0.5,,,,,,,,,,,,,0,52,52,49,1,,,,,,,,,,,,,,,,,,,,,,,,,,,,
,,,,,V3_059,21,Female,2024-11-09_17h12.29.477,jersey_experiment_5_v3,2023.2.2,Win32,85.47008547,,,,,,,,,,,,,,,,765.2224,766.7749,766.775,768.5752,return,0.1927,,35.80729167,,,,,,FBP-OG-18.png,0.37,1.2,37,0.75,,,,,,,,,,,,,0,53,53,36,1,,,,,,,,,,,,,,,,,,,,,,,,,,,,
,,,,,V3_059,21,Female,2024-11-09_17h12.29.477,jersey_experiment_5_v3,2023.2.2,Win32,85.47008547,,,,,,,,,,,,,,,,768.5754,770.1281,770.1282,771.234,return,0.0249,,79.55729167,,,,,,FBP-OG-18.png,0.45,1.2,40,0.75,,,,,,,,,,,,,0,54,54,39,1,,,,,,,,,,,,,,,,,,,,,,,,,,,,
,,,,,V3_059,21,Female,2024-11-09_17h12.29.477,jersey_experiment_5_v3,2023.2.2,Win32,85.47008547,,,,,,,,,,,,,,,,771.2341,772.528,772.5281,773.54,return,0.0378,,49.47916667,,,,,,FBP-PT-18.png,0.37,1.2,22,0.5,,,,,,,,,,,,,0,55,55,21,1,,,,,,,,,,,,,,,,,,,,,,,,,,,,
,,,,,V3_059,21,Female,2024-11-09_17h12.29.477,jersey_experiment_5_v3,2023.2.2,Win32,85.47008547,,,,,,,,,,,,,,,,773.5402,774.8343,774.8343,775.8811,return,0.2126,,29.94791667,,,,,,FBP-PT-17.png,0.35,1.2,16,0.5,,,,,,,,,,,,,0,56,56,15,1,,,,,,,,,,,,,,,,,,,,,,,,,,,,
,,,,,V3_059,21,Female,2024-11-09_17h12.29.477,jersey_experiment_5_v3,2023.2.2,Win32,85.47008547,,,,,,,,,,,,,,,,775.8815,777.1755,777.1755,778.2931,return,0.1326,,81.51041667,,,,,,FBP-YG-91.png,0.43,1.2,14,0.5,,,,,,,,,,,,,0,57,57,13,1,,,,,,,,,,,,,,,,,,,,,,,,,,,,
,,,,,V3_059,21,Female,2024-11-09_17h12.29.477,jersey_experiment_5_v3,2023.2.2,Win32,85.47008547,,,,,,,,,,,,,,,,778.2933,779.8462,779.8463,780.5637,return,0.1071,,80.078125,,,,,,FBP-OG-18.png,0.4,1.2,38,0.75,,,,,,,,,,,,,0,58,58,37,1,,,,,,,,,,,,,,,,,,,,,,,,,,,,
,,,,,V3_059,21,Female,2024-11-09_17h12.29.477,jersey_experiment_5_v3,2023.2.2,Win32,85.47008547,,,,,,,,,,,,,,,,780.564,781.8579,781.858,782.5991,return,0.0126,,92.1875,,,,,,FBP-YG-91.png,0.45,1.2,15,0.5,,,,,,,,,,,,,0,59,59,14,1,,,,,,,,,,,,,,,,,,,,,,,,,,,,
,,,,,V3_059,21,Female,2024-11-09_17h12.29.477,jersey_experiment_5_v3,2023.2.2,Win32,85.47008547,,,,,,,,,,,,,,,,782.6005,784.1522,784.1522,785.7639,return,0.908,,94.66145833,,,,,,FBP-OG-91.png,0.45,1.2,45,0.75,,,,,,,,,,,,,,,,,,0,0,0,44,1,,,,,,,,,,,,,,,,,,,,,,,
,,,,,V3_059,21,Female,2024-11-09_17h12.29.477,jersey_experiment_5_v3,2023.2.2,Win32,85.47008547,,,,,,,,,,,,,,,,785.7642,787.058,787.058,790.1053,return,0.2019,,23.69791667,,,,,,FBP-YG-18.png,0.35,1.2,6,0.5,,,,,,,,,,,,,,,,,,0,1,1,5,1,,,,,,,,,,,,,,,,,,,,,,,
,,,,,V3_059,21,Female,2024-11-09_17h12.29.477,jersey_experiment_5_v3,2023.2.2,Win32,85.47008547,,,,,,,,,,,,,,,,790.1055,791.6585,791.6585,792.8464,return,0.0416,,77.99479167,,,,,,FBP-OG-91.png,0.43,1.2,44,0.75,,,,,,,,,,,,,,,,,,0,2,2,43,1,,,,,,,,,,,,,,,,,,,,,,,
,,,,,V3_059,21,Female,2024-11-09_17h12.29.477,jersey_experiment_5_v3,2023.2.2,Win32,85.47008547,,,,,,,,,,,,,,,,792.8467,794.1407,794.1407,795.3172,return,0.1661,,66.40625,,,,,,FBP-PT-91.png,0.4,1.2,28,0.5,,,,,,,,,,,,,,,,,,0,3,3,27,1,,,,,,,,,,,,,,,,,,,,,,,
,,,,,V3_059,21,Female,2024-11-09_17h12.29.477,jersey_experiment_5_v3,2023.2.2,Win32,85.47008547,,,,,,,,,,,,,,,,795.3175,796.6113,796.6114,797.6233,return,0.1413,,50,,,,,,FBP-RB-71.png,0.37,1.2,47,0.5,,,,,,,,,,,,,,,,,,0,4,4,46,1,,,,,,,,,,,,,,,,,,,,,,,
,,,,,V3_059,21,Female,2024-11-09_17h12.29.477,jersey_experiment_5_v3,2023.2.2,Win32,85.47008547,,,,,,,,,,,,,,,,797.6236,798.9174,798.9174,800.0233,return,0.1498,,85.15625,,,,,,FBP-RB-81.png,0.45,1.2,55,0.5,,,,,,,,,,,,,,,,,,0,5,5,54,1,,,,,,,,,,,,,,,,,,,,,,,
,,,,,V3_059,21,Female,2024-11-09_17h12.29.477,jersey_experiment_5_v3,2023.2.2,Win32,85.47008547,,,,,,,,,,,,,,,,800.0235,801.3176,801.3177,802.2233,return,0.2072,,50.91145833,,,,,,FBP-YG-18.png,0.37,1.2,7,0.5,,,,,,,,,,,,,,,,,,0,6,6,6,1,,,,,,,,,,,,,,,,,,,,,,,
,,,,,V3_059,21,Female,2024-11-09_17h12.29.477,jersey_experiment_5_v3,2023.2.2,Win32,85.47008547,,,,,,,,,,,,,,,,802.2236,803.5176,803.5176,804.9176,return,0.2231,,76.43229167,,,,,,FBP-YG-19.png,0.43,1.2,14,0.5,,,,,,,,,,,,,,,,,,0,7,7,13,1,,,,,,,,,,,,,,,,,,,,,,,
,,,,,V3_059,21,Female,2024-11-09_17h12.29.477,jersey_experiment_5_v3,2023.2.2,Win32,85.47008547,,,,,,,,,,,,,,,,804.9178,806.2117,806.2117,807.0706,return,0.1843,,77.99479167,,,,,,FBP-YG-18.png,0.4,1.2,8,0.5,,,,,,,,,,,,,,,,,,0,8,8,7,1,,,,,,,,,,,,,,,,,,,,,,,
,,,,,V3_059,21,Female,2024-11-09_17h12.29.477,jersey_experiment_5_v3,2023.2.2,Win32,85.47008547,,,,,,,,,,,,,,,,807.0708,808.6235,808.6235,812.2709,return,0.1137,,24.21875,,,,,,FBP-OG-81.png,0.37,1.2,37,0.75,,,,,,,,,,,,,,,,,,0,9,9,36,1,,,,,,,,,,,,,,,,,,,,,,,
,,,,,V3_059,21,Female,2024-11-09_17h12.29.477,jersey_experiment_5_v3,2023.2.2,Win32,85.47008547,,,,,,,,,,,,,,,,812.2711,813.5651,813.5651,814.8003,return,0.1475,,75.91145833,,,,,,FBP-YG-17.png,0.43,1.2,4,0.5,,,,,,,,,,,,,,,,,,0,10,10,3,1,,,,,,,,,,,,,,,,,,,,,,,
,,,,,V3_059,21,Female,2024-11-09_17h12.29.477,jersey_experiment_5_v3,2023.2.2,Win32,85.47008547,,,,,,,,,,,,,,,,814.8005,816.0944,816.0945,818.7887,return,1.059,,71.875,,,,,,FBP-YG-19.png,0.37,1.2,12,0.5,,,,,,,,,,,,,,,,,,0,11,11,11,1,,,,,,,,,,,,,,,,,,,,,,,
,,,,,V3_059,21,Female,2024-11-09_17h12.29.477,jersey_experiment_5_v3,2023.2.2,Win32,85.47008547,,,,,,,,,,,,,,,,818.7889,820.0827,820.0827,821.4476,return,0.0471,,26.43229167,,,,,,FBP-PT-81.png,0.35,1.2,21,0.5,,,,,,,,,,,,,,,,,,0,12,12,20,1,,,,,,,,,,,,,,,,,,,,,,,
,,,,,V3_059,21,Female,2024-11-09_17h12.29.477,jersey_experiment_5_v3,2023.2.2,Win32,85.47008547,,,,,,,,,,,,,,,,821.4479,822.7418,822.7418,823.7301,return,0.0974,,93.09895833,,,,,,FBP-PT-91.png,0.45,1.2,30,0.5,,,,,,,,,,,,,,,,,,0,13,13,29,1,,,,,,,,,,,,,,,,,,,,,,,
,,,,,V3_059,21,Female,2024-11-09_17h12.29.477,jersey_experiment_5_v3,2023.2.2,Win32,85.47008547,,,,,,,,,,,,,,,,823.7303,825.2833,825.2833,826.1653,return,0.0827,,48.30729167,,,,,,FBP-OG-71.png,0.37,1.2,32,0.75,,,,,,,,,,,,,,,,,,0,14,14,31,1,,,,,,,,,,,,,,,,,,,,,,,
,,,,,V3_059,21,Female,2024-11-09_17h12.29.477,jersey_experiment_5_v3,2023.2.2,Win32,85.47008547,,,,,,,,,,,,,,,,826.1654,827.4596,827.4597,828.4832,return,0.1097,,29.03645833,,,,,,FBP-PT-91.png,0.35,1.2,26,0.5,,,,,,,,,,,,,,,,,,0,15,15,25,1,,,,,,,,,,,,,,,,,,,,,,,
,,,,,V3_059,21,Female,2024-11-09_17h12.29.477,jersey_experiment_5_v3,2023.2.2,Win32,85.47008547,,,,,,,,,,,,,,,,828.4834,829.7776,829.7776,831.601,return,0.016,,70.57291667,,,,,,FBP-RB-71.png,0.4,1.2,48,0.5,,,,,,,,,,,,,,,,,,0,16,16,47,1,,,,,,,,,,,,,,,,,,,,,,,
,,,,,V3_059,21,Female,2024-11-09_17h12.29.477,jersey_experiment_5_v3,2023.2.2,Win32,85.47008547,,,,,,,,,,,,,,,,831.6012,833.1543,833.1543,835.0599,return,1.2966,,75,,,,,,FBP-OG-71.png,0.4,1.2,33,0.75,,,,,,,,,,,,,,,,,,0,17,17,32,1,,,,,,,,,,,,,,,,,,,,,,,
,,,,,V3_059,21,Female,2024-11-09_17h12.29.477,jersey_experiment_5_v3,2023.2.2,Win32,85.47008547,,,,,,,,,,,,,,,,835.0602,836.354,836.3541,837.225,return,0.1413,,85.15625,,,,,,FBP-PT-71.png,0.4,1.2,18,0.5,,,,,,,,,,,,,,,,,,0,18,18,17,1,,,,,,,,,,,,,,,,,,,,,,,
,,,,,V3_059,21,Female,2024-11-09_17h12.29.477,jersey_experiment_5_v3,2023.2.2,Win32,85.47008547,,,,,,,,,,,,,,,,837.2253,838.7778,838.7778,839.6953,return,0.086,,15.75520833,,,,,,FBP-OG-81.png,0.35,1.2,36,0.75,,,,,,,,,,,,,,,,,,0,19,19,35,1,,,,,,,,,,,,,,,,,,,,,,,
,,,,,V3_059,21,Female,2024-11-09_17h12.29.477,jersey_experiment_5_v3,2023.2.2,Win32,85.47008547,,,,,,,,,,,,,,,,839.6955,841.2486,841.2487,843.2485,return,0.1708,,50.52083333,,,,,,FBP-OG-81.png,0.4,1.2,38,0.75,,,,,,,,,,,,,,,,,,0,20,20,37,1,,,,,,,,,,,,,,,,,,,,,,,
,,,,,V3_059,21,Female,2024-11-09_17h12.29.477,jersey_experiment_5_v3,2023.2.2,Win32,85.47008547,,,,,,,,,,,,,,,,843.2488,844.5426,844.5427,845.7309,return,0.2273,,75.52083333,,,,,,FBP-RB-91.png,0.45,1.2,60,0.5,,,,,,,,,,,,,,,,,,0,21,21,59,1,,,,,,,,,,,,,,,,,,,,,,,
,,,,,V3_059,21,Female,2024-11-09_17h12.29.477,jersey_experiment_5_v3,2023.2.2,Win32,85.47008547,,,,,,,,,,,,,,,,845.7311,847.0254,847.0254,847.8602,return,0.1046,,83.85416667,,,,,,FBP-RB-91.png,0.43,1.2,59,0.5,,,,,,,,,,,,,,,,,,0,22,22,58,1,,,,,,,,,,,,,,,,,,,,,,,
,,,,,V3_059,21,Female,2024-11-09_17h12.29.477,jersey_experiment_5_v3,2023.2.2,Win32,85.47008547,,,,,,,,,,,,,,,,847.8605,849.1545,849.1546,851.9663,return,1.926,,33.85416667,,,,,,FBP-PT-81.png,0.37,1.2,22,0.5,,,,,,,,,,,,,,,,,,0,23,23,21,1,,,,,,,,,,,,,,,,,,,,,,,
,,,,,V3_059,21,Female,2024-11-09_17h12.29.477,jersey_experiment_5_v3,2023.2.2,Win32,85.47008547,,,,,,,,,,,,,,,,851.9667,853.5195,853.5195,855.0253,return,0.0956,,74.86979167,,,,,,FBP-OG-81.png,0.43,1.2,39,0.75,,,,,,,,,,,,,,,,,,0,24,24,38,1,,,,,,,,,,,,,,,,,,,,,,,
,,,,,V3_059,21,Female,2024-11-09_17h12.29.477,jersey_experiment_5_v3,2023.2.2,Win32,85.47008547,,,,,,,,,,,,,,,,855.0255,856.3195,856.3196,857.1666,return,0.0283,,89.84375,,,,,,FBP-RB-71.png,0.45,1.2,50,0.5,,,,,,,,,,,,,,,,,,0,25,25,49,1,,,,,,,,,,,,,,,,,,,,,,,
,,,,,V3_059,21,Female,2024-11-09_17h12.29.477,jersey_experiment_5_v3,2023.2.2,Win32,85.47008547,,,,,,,,,,,,,,,,857.1667,858.4606,858.4607,859.4137,return,0.2124,,39.453125,,,,,,FBP-RB-91.png,0.37,1.2,57,0.5,,,,,,,,,,,,,,,,,,0,26,26,56,1,,,,,,,,,,,,,,,,,,,,,,,
,,,,,V3_059,21,Female,2024-11-09_17h12.29.477,jersey_experiment_5_v3,2023.2.2,Win32,85.47008547,,,,,,,,,,,,,,,,859.4139,860.9668,860.967,861.6844,return,0.108,,24.08854167,,,,,,FBP-OG-91.png,0.37,1.2,42,0.75,,,,,,,,,,,,,,,,,,0,27,27,41,1,,,,,,,,,,,,,,,,,,,,,,,
,,,,,V3_059,21,Female,2024-11-09_17h12.29.477,jersey_experiment_5_v3,2023.2.2,Win32,85.47008547,,,,,,,,,,,,,,,,861.6847,862.9787,862.9787,864.0963,return,0.218,,75.91145833,,,,,,FBP-PT-81.png,0.43,1.2,24,0.5,,,,,,,,,,,,,,,,,,0,28,28,23,1,,,,,,,,,,,,,,,,,,,,,,,
,,,,,V3_059,21,Female,2024-11-09_17h12.29.477,jersey_experiment_5_v3,2023.2.2,Win32,85.47008547,,,,,,,,,,,,,,,,864.0966,865.3906,865.3906,867.0964,return,0.133,,23.56770833,,,,,,FBP-YG-17.png,0.35,1.2,1,0.5,,,,,,,,,,,,,,,,,,0,29,29,0,1,,,,,,,,,,,,,,,,,,,,,,,
,,,,,V3_059,21,Female,2024-11-09_17h12.29.477,jersey_experiment_5_v3,2023.2.2,Win32,85.47008547,,,,,,,,,,,,,,,,867.0966,868.3906,868.3907,870.1671,return,0.6826,,86.328125,,,,,,FBP-YG-19.png,0.45,1.2,15,0.5,,,,,,,,,,,,,,,,,,0,30,30,14,1,,,,,,,,,,,,,,,,,,,,,,,
,,,,,V3_059,21,Female,2024-11-09_17h12.29.477,jersey_experiment_5_v3,2023.2.2,Win32,85.47008547,,,,,,,,,,,,,,,,870.1674,871.4613,871.4613,873.438,return,0.1262,,13.54166667,,,,,,FBP-YG-19.png,0.35,1.2,11,0.5,,,,,,,,,,,,,,,,,,0,31,31,10,1,,,,,,,,,,,,,,,,,,,,,,,
,,,,,V3_059,21,Female,2024-11-09_17h12.29.477,jersey_experiment_5_v3,2023.2.2,Win32,85.47008547,,,,,,,,,,,,,,,,873.4382,874.732,874.7321,876.5791,return,0.1568,,70.57291667,,,,,,FBP-YG-19.png,0.4,1.2,13,0.5,,,,,,,,,,,,,,,,,,0,32,32,12,1,,,,,,,,,,,,,,,,,,,,,,,
,,,,,V3_059,21,Female,2024-11-09_17h12.29.477,jersey_experiment_5_v3,2023.2.2,Win32,85.47008547,,,,,,,,,,,,,,,,876.5793,877.8732,877.8734,879.391,return,0.1094,,80.72916667,,,,,,FBP-PT-71.png,0.45,1.2,20,0.5,,,,,,,,,,,,,,,,,,0,33,33,19,1,,,,,,,,,,,,,,,,,,,,,,,
,,,,,V3_059,21,Female,2024-11-09_17h12.29.477,jersey_experiment_5_v3,2023.2.2,Win32,85.47008547,,,,,,,,,,,,,,,,879.3913,880.6851,880.6852,882.4735,return,0.1646,,28.90625,,,,,,FBP-PT-71.png,0.35,1.2,16,0.5,,,,,,,,,,,,,,,,,,0,34,34,15,1,,,,,,,,,,,,,,,,,,,,,,,
,,,,,V3_059,21,Female,2024-11-09_17h12.29.477,jersey_experiment_5_v3,2023.2.2,Win32,85.47008547,,,,,,,,,,,,,,,,882.4737,883.7676,883.7676,885.2147,return,0.1002,,85.546875,,,,,,FBP-YG-17.png,0.45,1.2,5,0.5,,,,,,,,,,,,,,,,,,0,35,35,4,1,,,,,,,,,,,,,,,,,,,,,,,
,,,,,V3_059,21,Female,2024-11-09_17h12.29.477,jersey_experiment_5_v3,2023.2.2,Win32,85.47008547,,,,,,,,,,,,,,,,885.2149,886.5091,886.5091,887.4383,return,0.1124,,82.55208333,,,,,,FBP-PT-71.png,0.43,1.2,19,0.5,,,,,,,,,,,,,,,,,,0,36,36,18,1,,,,,,,,,,,,,,,,,,,,,,,
,,,,,V3_059,21,Female,2024-11-09_17h12.29.477,jersey_experiment_5_v3,2023.2.2,Win32,85.47008547,,,,,,,,,,,,,,,,887.4387,888.7325,888.7325,891.4268,return,0.2507,,51.30208333,,,,,,FBP-PT-91.png,0.37,1.2,27,0.5,,,,,,,,,,,,,,,,,,0,37,37,26,1,,,,,,,,,,,,,,,,,,,,,,,
,,,,,V3_059,21,Female,2024-11-09_17h12.29.477,jersey_experiment_5_v3,2023.2.2,Win32,85.47008547,,,,,,,,,,,,,,,,891.4271,892.7209,892.721,894.0386,return,0.1332,,88.02083333,,,,,,FBP-RB-91.png,0.4,1.2,58,0.5,,,,,,,,,,,,,,,,,,0,38,38,57,1,,,,,,,,,,,,,,,,,,,,,,,
,,,,,V3_059,21,Female,2024-11-09_17h12.29.477,jersey_experiment_5_v3,2023.2.2,Win32,85.47008547,,,,,,,,,,,,,,,,894.0388,895.3327,895.3328,896.9682,return,0.1411,,94.79166667,,,,,,FBP-RB-81.png,0.43,1.2,54,0.5,,,,,,,,,,,,,,,,,,0,39,39,53,1,,,,,,,,,,,,,,,,,,,,,,,
,,,,,V3_059,21,Female,2024-11-09_17h12.29.477,jersey_experiment_5_v3,2023.2.2,Win32,85.47008547,,,,,,,,,,,,,,,,896.9684,898.2623,898.2623,899.6622,return,0.1612,,60.9375,,,,,,FBP-YG-17.png,0.4,1.2,3,0.5,,,,,,,,,,,,,,,,,,0,40,40,2,1,,,,,,,,,,,,,,,,,,,,,,,
,,,,,V3_059,21,Female,2024-11-09_17h12.29.477,jersey_experiment_5_v3,2023.2.2,Win32,85.47008547,,,,,,,,,,,,,,,,899.6625,900.9563,900.9564,902.2858,return,0.1843,,81.38020833,,,,,,FBP-RB-71.png,0.43,1.2,49,0.5,,,,,,,,,,,,,,,,,,0,41,41,48,1,,,,,,,,,,,,,,,,,,,,,,,
,,,,,V3_059,21,Female,2024-11-09_17h12.29.477,jersey_experiment_5_v3,2023.2.2,Win32,85.47008547,,,,,,,,,,,,,,,,902.286,903.8389,903.839,905.7801,return,0.2026,,91.796875,,,,,,FBP-OG-71.png,0.45,1.2,35,0.75,,,,,,,,,,,,,,,,,,0,42,42,34,1,,,,,,,,,,,,,,,,,,,,,,,
,,,,,V3_059,21,Female,2024-11-09_17h12.29.477,jersey_experiment_5_v3,2023.2.2,Win32,85.47008547,,,,,,,,,,,,,,,,905.7804,907.0743,907.0744,907.6861,return,0.0367,,91.27604167,,,,,,FBP-PT-81.png,0.4,1.2,23,0.5,,,,,,,,,,,,,,,,,,0,43,43,22,1,,,,,,,,,,,,,,,,,,,,,,,
,,,,,V3_059,21,Female,2024-11-09_17h12.29.477,jersey_experiment_5_v3,2023.2.2,Win32,85.47008547,,,,,,,,,,,,,,,,907.6863,909.2391,909.2392,910.3922,return,0.188,,17.1875,,,,,,FBP-OG-91.png,0.35,1.2,41,0.75,,,,,,,,,,,,,,,,,,0,44,44,40,1,,,,,,,,,,,,,,,,,,,,,,,
,,,,,V3_059,21,Female,2024-11-09_17h12.29.477,jersey_experiment_5_v3,2023.2.2,Win32,85.47008547,,,,,,,,,,,,,,,,910.3925,911.6863,911.6864,913.3687,return,0.0241,,25,,,,,,FBP-RB-71.png,0.35,1.2,46,0.5,,,,,,,,,,,,,,,,,,0,45,45,45,1,,,,,,,,,,,,,,,,,,,,,,,
,,,,,V3_059,21,Female,2024-11-09_17h12.29.477,jersey_experiment_5_v3,2023.2.2,Win32,85.47008547,,,,,,,,,,,,,,,,913.3689,914.6628,914.6629,915.4864,return,0.0166,,17.578125,,,,,,FBP-RB-81.png,0.37,1.2,52,0.5,,,,,,,,,,,,,,,,,,0,46,46,51,1,,,,,,,,,,,,,,,,,,,,,,,
,,,,,V3_059,21,Female,2024-11-09_17h12.29.477,jersey_experiment_5_v3,2023.2.2,Win32,85.47008547,,,,,,,,,,,,,,,,915.4866,916.7806,916.7807,917.8865,return,0.1106,,88.671875,,,,,,FBP-YG-18.png,0.45,1.2,10,0.5,,,,,,,,,,,,,,,,,,0,47,47,9,1,,,,,,,,,,,,,,,,,,,,,,,
,,,,,V3_059,21,Female,2024-11-09_17h12.29.477,jersey_experiment_5_v3,2023.2.2,Win32,85.47008547,,,,,,,,,,,,,,,,917.8867,919.1807,919.1807,919.816,return,0.0082,,95.3125,,,,,,FBP-PT-91.png,0.43,1.2,29,0.5,,,,,,,,,,,,,,,,,,0,48,48,28,1,,,,,,,,,,,,,,,,,,,,,,,
,,,,,V3_059,21,Female,2024-11-09_17h12.29.477,jersey_experiment_5_v3,2023.2.2,Win32,85.47008547,,,,,,,,,,,,,,,,919.8162,921.1104,921.1104,922.3925,return,0.0601,,48.69791667,,,,,,FBP-RB-81.png,0.35,1.2,51,0.5,,,,,,,,,,,,,,,,,,0,49,49,50,1,,,,,,,,,,,,,,,,,,,,,,,
,,,,,V3_059,21,Female,2024-11-09_17h12.29.477,jersey_experiment_5_v3,2023.2.2,Win32,85.47008547,,,,,,,,,,,,,,,,922.3927,923.6867,923.6867,924.7573,return,0.6836,,48.56770833,,,,,,FBP-RB-91.png,0.35,1.2,56,0.5,,,,,,,,,,,,,,,,,,0,50,50,55,1,,,,,,,,,,,,,,,,,,,,,,,
,,,,,V3_059,21,Female,2024-11-09_17h12.29.477,jersey_experiment_5_v3,2023.2.2,Win32,85.47008547,,,,,,,,,,,,,,,,924.7577,926.0515,926.0515,927.4281,return,0.142,,74.609375,,,,,,FBP-RB-81.png,0.4,1.2,53,0.5,,,,,,,,,,,,,,,,,,0,51,51,52,1,,,,,,,,,,,,,,,,,,,,,,,
,,,,,V3_059,21,Female,2024-11-09_17h12.29.477,jersey_experiment_5_v3,2023.2.2,Win32,85.47008547,,,,,,,,,,,,,,,,927.4282,928.7222,928.7222,929.3457,return,0.0753,,74.73958333,,,,,,FBP-PT-71.png,0.37,1.2,17,0.5,,,,,,,,,,,,,,,,,,0,52,52,16,1,,,,,,,,,,,,,,,,,,,,,,,
,,,,,V3_059,21,Female,2024-11-09_17h12.29.477,jersey_experiment_5_v3,2023.2.2,Win32,85.47008547,,,,,,,,,,,,,,,,929.346,930.6398,930.6399,933.4282,return,1.9294,,74.47916667,,,,,,FBP-YG-17.png,0.37,1.2,2,0.5,,,,,,,,,,,,,,,,,,0,53,53,1,1,,,,,,,,,,,,,,,,,,,,,,,
,,,,,V3_059,21,Female,2024-11-09_17h12.29.477,jersey_experiment_5_v3,2023.2.2,Win32,85.47008547,,,,,,,,,,,,,,,,933.4284,934.9813,934.9813,935.9932,return,0.1076,,82.8125,,,,,,FBP-OG-91.png,0.4,1.2,43,0.75,,,,,,,,,,,,,,,,,,0,54,54,42,1,,,,,,,,,,,,,,,,,,,,,,,
,,,,,V3_059,21,Female,2024-11-09_17h12.29.477,jersey_experiment_5_v3,2023.2.2,Win32,85.47008547,,,,,,,,,,,,,,,,935.9934,937.5462,937.5462,938.8048,return,0.0949,,50,,,,,,FBP-OG-71.png,0.35,1.2,31,0.75,,,,,,,,,,,,,,,,,,0,55,55,30,1,,,,,,,,,,,,,,,,,,,,,,,
,,,,,V3_059,21,Female,2024-11-09_17h12.29.477,jersey_experiment_5_v3,2023.2.2,Win32,85.47008547,,,,,,,,,,,,,,,,938.8051,940.0991,940.0992,942.3344,return,1.0907,,81.11979167,,,,,,FBP-YG-18.png,0.43,1.2,9,0.5,,,,,,,,,,,,,,,,,,0,56,56,8,1,,,,,,,,,,,,,,,,,,,,,,,
,,,,,V3_059,21,Female,2024-11-09_17h12.29.477,jersey_experiment_5_v3,2023.2.2,Win32,85.47008547,,,,,,,,,,,,,,,,942.3347,943.6287,943.6287,944.864,return,0.1226,,96.484375,,,,,,FBP-PT-81.png,0.45,1.2,25,0.5,,,,,,,,,,,,,,,,,,0,57,57,24,1,,,,,,,,,,,,,,,,,,,,,,,
,,,,,V3_059,21,Female,2024-11-09_17h12.29.477,jersey_experiment_5_v3,2023.2.2,Win32,85.47008547,,,,,,,,,,,,,,,,944.8643,946.4169,946.4169,947.7464,return,0.1799,,99.73958333,,,,,,FBP-OG-81.png,0.45,1.2,40,0.75,,,,,,,,,,,,,,,,,,0,58,58,39,1,,,,,,,,,,,,,,,,,,,,,,,
,,,,,V3_059,21,Female,2024-11-09_17h12.29.477,jersey_experiment_5_v3,2023.2.2,Win32,85.47008547,,,,,,,,,,,,,,,,947.7467,949.2995,949.2995,950.1113,return,0.1476,,99.609375,,,,,,FBP-OG-71.png,0.43,1.2,34,0.75,,,,,,,,,,,,,,,,,,0,59,59,33,1,,,,,,,,,,,,,,,,,,,,,,,
,,,,,V3_059,21,Female,2024-11-09_17h12.29.477,jersey_experiment_5_v3,2023.2.2,Win32,85.47008547,,,,,,,,,,,,,,,,,,,,,,,,,,,,,,,,,,,,,,,,,,,,,,,,,,,,,,,,950.1114,962.4175,return,12.2985,,,,,,,,,,,,,,,,,,,
,,,,,V3_059,21,Female,2024-11-09_17h12.29.477,jersey_experiment_5_v3,2023.2.2,Win32,85.47008547,,,,,,,,,,,,,,,,,,,,,,,,,,,,,,,,,,,,,,,,,,,,,,,,,,,,,,,,,,,,,962.4176,971.5355,1,6.9832,return,2.1244,,,,,,,,,,,,
,,,,,V3_059,21,Female,2024-11-09_17h12.29.477,jersey_experiment_5_v3,2023.2.2,Win32,85.47008547,,,,,,,,,,,,,,,,,,,,,,,,,,,,,,,,,,,,,,,,,,,,,,,,,,,,,,,,,,,,,,,,,,,,971.5355,1180.5675,Some of the body types were shown few times but in different outfits and colors so most of them had the same size just different color of skin and outfit.I am not sure what the study is about maybe how people see players depending on the color they are wearing.,right,191.1134,,,,,,
,,,,,V3_059,21,Female,2024-11-09_17h12.29.477,jersey_experiment_5_v3,2023.2.2,Win32,85.47008547,,,,,,,,,,,,,,,,,,,,,,,,,,,,,,,,,,,,,,,,,,,,,,,,,,,,,,,,,,,,,,,,,,,,,,,,,,1180.5675,1186.5435,return,5.9705,