requirements.started,requirements.stopped,key_resp_3.keys,key_resp_3.rt,key_resp_3.duration,Subject ID,Age,Gender,date,expName,psychopyVersion,OS,frameRate,instructions1.started,instructions1.stopped,key_resp.keys,key_resp.rt,key_resp.duration,example.started,example.stopped,enter_2.keys,enter_2.rt,enter_2.duration,instructions2.started,instructions2.stopped,enter_3.keys,enter_3.rt,enter_3.duration,image.started,image.stopped,slider_2.started,slider_2.stopped,next.keys,next.rt,next.duration,slider.response,trial_block_1.thisRepN,trial_block_1.thisTrialN,trial_block_1.thisN,trial_block_1.thisIndex,trial_block_1.ran,Path,Width,Height,Index,Duration,trial_block_2.thisRepN,trial_block_2.thisTrialN,trial_block_2.thisN,trial_block_2.thisIndex,trial_block_2.ran,rest_break.started,rest_break.stopped,end_break.started,end_break.stopped,key_resp_5.keys,key_resp_5.rt,key_resp_5.duration,trial_block_3.thisRepN,trial_block_3.thisTrialN,trial_block_3.thisN,trial_block_3.thisIndex,trial_block_3.ran,trial_block_4.thisRepN,trial_block_4.thisTrialN,trial_block_4.thisN,trial_block_4.thisIndex,trial_block_4.ran,questions_intro.started,questions_intro.stopped,enter_12.keys,enter_12.rt,enter_12.duration,question2.started,question2.stopped,question_doingbest.response,question_doingbest.rt,enter_15.keys,enter_15.rt,enter_15.duration,pattern.started,pattern.stopped,pattern_2.text,enter_17.keys,enter_17.rt,enter_17.duration,thankyou.started,thankyou.stopped,enter_14.keys,enter_14.rt,enter_14.duration
0,10.6253,return,10.6205,,V3_038,26,Male,2024-10-28_13h15.26.479,jersey_experiment_5_v3,2023.2.2,Win32,84.74576271,,,,,,,,,,,,,,,,,,,,,,,,,,,,,,,,,,,,,,,,,,,,,,,,,,,,,,,,,,,,,,,,,,,,,,,,,,,,,,
,,,,,V3_038,26,Male,2024-10-28_13h15.26.479,jersey_experiment_5_v3,2023.2.2,Win32,84.74576271,10.6254,17.1983,return,6.5648,,,,,,,,,,,,,,,,,,,,,,,,,,,,,,,,,,,,,,,,,,,,,,,,,,,,,,,,,,,,,,,,,,,,,,,,,,
,,,,,V3_038,26,Male,2024-10-28_13h15.26.479,jersey_experiment_5_v3,2023.2.2,Win32,84.74576271,,,,,,17.1985,23.278,return,6.0374,,,,,,,,,,,,,,,,,,,,,,,,,,,,,,,,,,,,,,,,,,,,,,,,,,,,,,,,,,,,,,,,,,,,,
,,,,,V3_038,26,Male,2024-10-28_13h15.26.479,jersey_experiment_5_v3,2023.2.2,Win32,84.74576271,,,,,,,,,,,23.2781,40.9962,return,17.7021,,,,,,,,,,,,,,,,,,,,,,,,,,,,,,,,,,,,,,,,,,,,,,,,,,,,,,,,,,,,,,,,
,,,,,V3_038,26,Male,2024-10-28_13h15.26.479,jersey_experiment_5_v3,2023.2.2,Win32,84.74576271,,,,,,,,,,,,,,,,40.9999,42.3021,42.3022,56.9733,return,4.6988,,25.65104167,0,0,0,31,1,FBP-OG-17.png,0.37,1.2,32,0.5,,,,,,,,,,,,,,,,,,,,,,,,,,,,,,,,,,,,,,,,,,,,,
,,,,,V3_038,26,Male,2024-10-28_13h15.26.479,jersey_experiment_5_v3,2023.2.2,Win32,84.74576271,,,,,,,,,,,,,,,,56.9737,58.5261,58.5262,65.8088,return,2.0009,,50,0,1,1,22,1,FBP-PT-18.png,0.4,1.2,23,0.75,,,,,,,,,,,,,,,,,,,,,,,,,,,,,,,,,,,,,,,,,,,,,
,,,,,V3_038,26,Male,2024-10-28_13h15.26.479,jersey_experiment_5_v3,2023.2.2,Win32,84.74576271,,,,,,,,,,,,,,,,65.8091,67.1029,67.103,70.7971,return,0.9591,,50,0,2,2,36,1,FBP-OG-18.png,0.37,1.2,37,0.5,,,,,,,,,,,,,,,,,,,,,,,,,,,,,,,,,,,,,,,,,,,,,
,,,,,V3_038,26,Male,2024-10-28_13h15.26.479,jersey_experiment_5_v3,2023.2.2,Win32,84.74576271,,,,,,,,,,,,,,,,70.7973,72.3501,72.3502,75.4678,return,0.957,,75.13020833,0,3,3,4,1,FBP-YG-71.png,0.45,1.2,5,0.75,,,,,,,,,,,,,,,,,,,,,,,,,,,,,,,,,,,,,,,,,,,,,
,,,,,V3_038,26,Male,2024-10-28_13h15.26.479,jersey_experiment_5_v3,2023.2.2,Win32,84.74576271,,,,,,,,,,,,,,,,75.4681,77.0208,77.0208,82.2916,return,2.8553,,49.47916667,0,4,4,10,1,FBP-YG-91.png,0.35,1.2,11,0.75,,,,,,,,,,,,,,,,,,,,,,,,,,,,,,,,,,,,,,,,,,,,,
,,,,,V3_038,26,Male,2024-10-28_13h15.26.479,jersey_experiment_5_v3,2023.2.2,Win32,84.74576271,,,,,,,,,,,,,,,,82.2919,83.5858,83.5859,90.5273,return,2.1217,,72.265625,0,5,5,43,1,FBP-OG-19.png,0.43,1.2,44,0.5,,,,,,,,,,,,,,,,,,,,,,,,,,,,,,,,,,,,,,,,,,,,,
,,,,,V3_038,26,Male,2024-10-28_13h15.26.479,jersey_experiment_5_v3,2023.2.2,Win32,84.74576271,,,,,,,,,,,,,,,,90.5274,92.0802,92.0802,99.0922,return,3.9394,,84.24479167,0,6,6,53,1,FBP-RB-18.png,0.43,1.2,54,0.75,,,,,,,,,,,,,,,,,,,,,,,,,,,,,,,,,,,,,,,,,,,,,
,,,,,V3_038,26,Male,2024-10-28_13h15.26.479,jersey_experiment_5_v3,2023.2.2,Win32,84.74576271,,,,,,,,,,,,,,,,99.0924,100.6451,100.6452,104.0806,return,1.4954,,99.08854167,0,7,7,18,1,FBP-PT-17.png,0.43,1.2,19,0.75,,,,,,,,,,,,,,,,,,,,,,,,,,,,,,,,,,,,,,,,,,,,,
,,,,,V3_038,26,Male,2024-10-28_13h15.26.479,jersey_experiment_5_v3,2023.2.2,Win32,84.74576271,,,,,,,,,,,,,,,,104.0809,105.6336,105.6336,108.8456,return,2.1118,,99.08854167,0,8,8,19,1,FBP-PT-17.png,0.45,1.2,20,0.75,,,,,,,,,,,,,,,,,,,,,,,,,,,,,,,,,,,,,,,,,,,,,
,,,,,V3_038,26,Male,2024-10-28_13h15.26.479,jersey_experiment_5_v3,2023.2.2,Win32,84.74576271,,,,,,,,,,,,,,,,108.8458,110.3985,110.3986,115.587,return,1.4829,,39.32291667,0,9,9,17,1,FBP-PT-17.png,0.4,1.2,18,0.75,,,,,,,,,,,,,,,,,,,,,,,,,,,,,,,,,,,,,,,,,,,,,
,,,,,V3_038,26,Male,2024-10-28_13h15.26.479,jersey_experiment_5_v3,2023.2.2,Win32,84.74576271,,,,,,,,,,,,,,,,115.5873,117.1399,117.1399,120.6694,return,0.9085,,49.08854167,0,10,10,57,1,FBP-RB-19.png,0.4,1.2,58,0.75,,,,,,,,,,,,,,,,,,,,,,,,,,,,,,,,,,,,,,,,,,,,,
,,,,,V3_038,26,Male,2024-10-28_13h15.26.479,jersey_experiment_5_v3,2023.2.2,Win32,84.74576271,,,,,,,,,,,,,,,,120.6698,122.2224,122.2225,125.552,return,0.6738,,24.73958333,0,11,11,15,1,FBP-PT-17.png,0.35,1.2,16,0.75,,,,,,,,,,,,,,,,,,,,,,,,,,,,,,,,,,,,,,,,,,,,,
,,,,,V3_038,26,Male,2024-10-28_13h15.26.479,jersey_experiment_5_v3,2023.2.2,Win32,84.74576271,,,,,,,,,,,,,,,,125.5522,127.1049,127.1049,131.0934,return,1.5066,,54.94791667,0,12,12,8,1,FBP-YG-81.png,0.43,1.2,9,0.75,,,,,,,,,,,,,,,,,,,,,,,,,,,,,,,,,,,,,,,,,,,,,
,,,,,V3_038,26,Male,2024-10-28_13h15.26.479,jersey_experiment_5_v3,2023.2.2,Win32,84.74576271,,,,,,,,,,,,,,,,131.0936,132.6464,132.6464,136.2583,return,1.0838,,49.86979167,0,13,13,11,1,FBP-YG-91.png,0.37,1.2,12,0.75,,,,,,,,,,,,,,,,,,,,,,,,,,,,,,,,,,,,,,,,,,,,,
,,,,,V3_038,26,Male,2024-10-28_13h15.26.479,jersey_experiment_5_v3,2023.2.2,Win32,84.74576271,,,,,,,,,,,,,,,,136.2585,137.8112,137.8112,140.882,return,0.8822,,75.26041667,0,14,14,52,1,FBP-RB-18.png,0.4,1.2,53,0.75,,,,,,,,,,,,,,,,,,,,,,,,,,,,,,,,,,,,,,,,,,,,,
,,,,,V3_038,26,Male,2024-10-28_13h15.26.479,jersey_experiment_5_v3,2023.2.2,Win32,84.74576271,,,,,,,,,,,,,,,,140.8821,142.4349,142.4349,145.2469,return,0.6601,,25,0,15,15,20,1,FBP-PT-18.png,0.35,1.2,21,0.75,,,,,,,,,,,,,,,,,,,,,,,,,,,,,,,,,,,,,,,,,,,,,
,,,,,V3_038,26,Male,2024-10-28_13h15.26.479,jersey_experiment_5_v3,2023.2.2,Win32,84.74576271,,,,,,,,,,,,,,,,145.2471,146.7998,146.7999,151.8353,return,2.0533,,75.390625,0,16,16,48,1,FBP-RB-17.png,0.43,1.2,49,0.75,,,,,,,,,,,,,,,,,,,,,,,,,,,,,,,,,,,,,,,,,,,,,
,,,,,V3_038,26,Male,2024-10-28_13h15.26.479,jersey_experiment_5_v3,2023.2.2,Win32,84.74576271,,,,,,,,,,,,,,,,151.8356,153.3882,153.3883,156.8944,return,0.699,,0.651041667,0,17,17,25,1,FBP-PT-19.png,0.35,1.2,26,0.75,,,,,,,,,,,,,,,,,,,,,,,,,,,,,,,,,,,,,,,,,,,,,
,,,,,V3_038,26,Male,2024-10-28_13h15.26.479,jersey_experiment_5_v3,2023.2.2,Win32,84.74576271,,,,,,,,,,,,,,,,156.8946,158.4473,158.4473,164.2828,return,0.7968,,99.73958333,0,18,18,58,1,FBP-RB-19.png,0.43,1.2,59,0.75,,,,,,,,,,,,,,,,,,,,,,,,,,,,,,,,,,,,,,,,,,,,,
,,,,,V3_038,26,Male,2024-10-28_13h15.26.479,jersey_experiment_5_v3,2023.2.2,Win32,84.74576271,,,,,,,,,,,,,,,,164.2829,165.5771,165.5772,168.8124,return,0.8776,,6.380208333,0,19,19,30,1,FBP-OG-17.png,0.35,1.2,31,0.5,,,,,,,,,,,,,,,,,,,,,,,,,,,,,,,,,,,,,,,,,,,,,
,,,,,V3_038,26,Male,2024-10-28_13h15.26.479,jersey_experiment_5_v3,2023.2.2,Win32,84.74576271,,,,,,,,,,,,,,,,168.8126,170.3653,170.3654,173.989,return,0.8473,,25.13020833,0,20,20,5,1,FBP-YG-81.png,0.35,1.2,6,0.75,,,,,,,,,,,,,,,,,,,,,,,,,,,,,,,,,,,,,,,,,,,,,
,,,,,V3_038,26,Male,2024-10-28_13h15.26.479,jersey_experiment_5_v3,2023.2.2,Win32,84.74576271,,,,,,,,,,,,,,,,173.9894,175.2832,175.2833,179.1892,return,0.5181,,49.73958333,0,21,21,32,1,FBP-OG-17.png,0.4,1.2,33,0.5,,,,,,,,,,,,,,,,,,,,,,,,,,,,,,,,,,,,,,,,,,,,,
,,,,,V3_038,26,Male,2024-10-28_13h15.26.479,jersey_experiment_5_v3,2023.2.2,Win32,84.74576271,,,,,,,,,,,,,,,,179.1895,180.7422,180.7423,188.766,return,7.0259,,34.24479167,0,22,22,46,1,FBP-RB-17.png,0.37,1.2,47,0.75,,,,,,,,,,,,,,,,,,,,,,,,,,,,,,,,,,,,,,,,,,,,,
,,,,,V3_038,26,Male,2024-10-28_13h15.26.479,jersey_experiment_5_v3,2023.2.2,Win32,84.74576271,,,,,,,,,,,,,,,,188.7662,190.0602,190.0602,192.5073,return,0.7453,,75.13020833,0,23,23,44,1,FBP-OG-19.png,0.45,1.2,45,0.5,,,,,,,,,,,,,,,,,,,,,,,,,,,,,,,,,,,,,,,,,,,,,
,,,,,V3_038,26,Male,2024-10-28_13h15.26.479,jersey_experiment_5_v3,2023.2.2,Win32,84.74576271,,,,,,,,,,,,,,,,192.5077,194.0605,194.0605,196.2839,return,0.6174,,25.52083333,0,24,24,26,1,FBP-PT-19.png,0.37,1.2,27,0.75,,,,,,,,,,,,,,,,,,,,,,,,,,,,,,,,,,,,,,,,,,,,,
,,,,,V3_038,26,Male,2024-10-28_13h15.26.479,jersey_experiment_5_v3,2023.2.2,Win32,84.74576271,,,,,,,,,,,,,,,,196.2841,197.837,197.8371,199.2017,return,0.5891,,24.86979167,0,25,25,1,1,FBP-YG-71.png,0.37,1.2,2,0.75,,,,,,,,,,,,,,,,,,,,,,,,,,,,,,,,,,,,,,,,,,,,,
,,,,,V3_038,26,Male,2024-10-28_13h15.26.479,jersey_experiment_5_v3,2023.2.2,Win32,84.74576271,,,,,,,,,,,,,,,,199.2019,200.7547,200.7548,202.8135,return,0.6964,,75.13020833,0,26,26,54,1,FBP-RB-18.png,0.45,1.2,55,0.75,,,,,,,,,,,,,,,,,,,,,,,,,,,,,,,,,,,,,,,,,,,,,
,,,,,V3_038,26,Male,2024-10-28_13h15.26.479,jersey_experiment_5_v3,2023.2.2,Win32,84.74576271,,,,,,,,,,,,,,,,202.8137,204.1078,204.1078,206.4843,return,0.6673,,24.73958333,0,27,27,41,1,FBP-OG-19.png,0.37,1.2,42,0.5,,,,,,,,,,,,,,,,,,,,,,,,,,,,,,,,,,,,,,,,,,,,,
,,,,,V3_038,26,Male,2024-10-28_13h15.26.479,jersey_experiment_5_v3,2023.2.2,Win32,84.74576271,,,,,,,,,,,,,,,,206.4846,208.0375,208.0375,210.5079,return,0.6889,,74.73958333,0,28,28,3,1,FBP-YG-71.png,0.43,1.2,4,0.75,,,,,,,,,,,,,,,,,,,,,,,,,,,,,,,,,,,,,,,,,,,,,
,,,,,V3_038,26,Male,2024-10-28_13h15.26.479,jersey_experiment_5_v3,2023.2.2,Win32,84.74576271,,,,,,,,,,,,,,,,210.5082,212.061,212.0611,214.861,return,0.8532,,99.73958333,0,29,29,49,1,FBP-RB-17.png,0.45,1.2,50,0.75,,,,,,,,,,,,,,,,,,,,,,,,,,,,,,,,,,,,,,,,,,,,,
,,,,,V3_038,26,Male,2024-10-28_13h15.26.479,jersey_experiment_5_v3,2023.2.2,Win32,84.74576271,,,,,,,,,,,,,,,,214.8613,216.4141,216.4141,219.9789,return,0.7102,,99.34895833,0,30,30,23,1,FBP-PT-18.png,0.43,1.2,24,0.75,,,,,,,,,,,,,,,,,,,,,,,,,,,,,,,,,,,,,,,,,,,,,
,,,,,V3_038,26,Male,2024-10-28_13h15.26.479,jersey_experiment_5_v3,2023.2.2,Win32,84.74576271,,,,,,,,,,,,,,,,219.9791,221.5319,221.5319,225.1086,return,0.7081,,99.21875,0,31,31,14,1,FBP-YG-91.png,0.45,1.2,15,0.75,,,,,,,,,,,,,,,,,,,,,,,,,,,,,,,,,,,,,,,,,,,,,
,,,,,V3_038,26,Male,2024-10-28_13h15.26.479,jersey_experiment_5_v3,2023.2.2,Win32,84.74576271,,,,,,,,,,,,,,,,225.1087,226.4027,226.4027,228.0263,return,0.75,,99.21875,0,32,32,38,1,FBP-OG-18.png,0.43,1.2,39,0.5,,,,,,,,,,,,,,,,,,,,,,,,,,,,,,,,,,,,,,,,,,,,,
,,,,,V3_038,26,Male,2024-10-28_13h15.26.479,jersey_experiment_5_v3,2023.2.2,Win32,84.74576271,,,,,,,,,,,,,,,,228.0266,229.5793,229.5793,239.1798,return,1.5018,,0.260416667,0,33,33,50,1,FBP-RB-18.png,0.35,1.2,51,0.75,,,,,,,,,,,,,,,,,,,,,,,,,,,,,,,,,,,,,,,,,,,,,
,,,,,V3_038,26,Male,2024-10-28_13h15.26.479,jersey_experiment_5_v3,2023.2.2,Win32,84.74576271,,,,,,,,,,,,,,,,239.18,240.4739,240.4739,242.8856,return,0.635,,24.73958333,0,34,34,42,1,FBP-OG-19.png,0.4,1.2,43,0.5,,,,,,,,,,,,,,,,,,,,,,,,,,,,,,,,,,,,,,,,,,,,,
,,,,,V3_038,26,Male,2024-10-28_13h15.26.479,jersey_experiment_5_v3,2023.2.2,Win32,84.74576271,,,,,,,,,,,,,,,,242.8859,244.4387,244.4387,249.58,return,0.7017,,54.16666667,0,35,35,13,1,FBP-YG-91.png,0.43,1.2,14,0.75,,,,,,,,,,,,,,,,,,,,,,,,,,,,,,,,,,,,,,,,,,,,,
,,,,,V3_038,26,Male,2024-10-28_13h15.26.479,jersey_experiment_5_v3,2023.2.2,Win32,84.74576271,,,,,,,,,,,,,,,,249.5803,251.133,251.1331,253.0037,return,0.5252,,54.16666667,0,36,36,7,1,FBP-YG-81.png,0.4,1.2,8,0.75,,,,,,,,,,,,,,,,,,,,,,,,,,,,,,,,,,,,,,,,,,,,,
,,,,,V3_038,26,Male,2024-10-28_13h15.26.479,jersey_experiment_5_v3,2023.2.2,Win32,84.74576271,,,,,,,,,,,,,,,,253.0039,254.2979,254.2979,256.5097,return,0.7901,,73.828125,0,37,37,34,1,FBP-OG-17.png,0.45,1.2,35,0.5,,,,,,,,,,,,,,,,,,,,,,,,,,,,,,,,,,,,,,,,,,,,,
,,,,,V3_038,26,Male,2024-10-28_13h15.26.479,jersey_experiment_5_v3,2023.2.2,Win32,84.74576271,,,,,,,,,,,,,,,,256.51,258.0627,258.0627,261.1216,return,0.6604,,25.26041667,0,38,38,6,1,FBP-YG-81.png,0.37,1.2,7,0.75,,,,,,,,,,,,,,,,,,,,,,,,,,,,,,,,,,,,,,,,,,,,,
,,,,,V3_038,26,Male,2024-10-28_13h15.26.479,jersey_experiment_5_v3,2023.2.2,Win32,84.74576271,,,,,,,,,,,,,,,,261.1218,262.4159,262.4159,265.2511,return,0.5311,,0.130208333,0,39,39,35,1,FBP-OG-18.png,0.35,1.2,36,0.5,,,,,,,,,,,,,,,,,,,,,,,,,,,,,,,,,,,,,,,,,,,,,
,,,,,V3_038,26,Male,2024-10-28_13h15.26.479,jersey_experiment_5_v3,2023.2.2,Win32,84.74576271,,,,,,,,,,,,,,,,265.2513,266.8041,266.8042,268.1571,return,0.6044,,0.130208333,0,40,40,51,1,FBP-RB-18.png,0.37,1.2,52,0.75,,,,,,,,,,,,,,,,,,,,,,,,,,,,,,,,,,,,,,,,,,,,,
,,,,,V3_038,26,Male,2024-10-28_13h15.26.479,jersey_experiment_5_v3,2023.2.2,Win32,84.74576271,,,,,,,,,,,,,,,,268.1573,269.7101,269.7102,272.0986,return,0.7037,,74.86979167,0,41,41,29,1,FBP-PT-19.png,0.45,1.2,30,0.75,,,,,,,,,,,,,,,,,,,,,,,,,,,,,,,,,,,,,,,,,,,,,
,,,,,V3_038,26,Male,2024-10-28_13h15.26.479,jersey_experiment_5_v3,2023.2.2,Win32,84.74576271,,,,,,,,,,,,,,,,272.0988,273.3926,273.3927,276.5458,return,0.6722,,0.260416667,0,42,42,40,1,FBP-OG-19.png,0.35,1.2,41,0.5,,,,,,,,,,,,,,,,,,,,,,,,,,,,,,,,,,,,,,,,,,,,,
,,,,,V3_038,26,Male,2024-10-28_13h15.26.479,jersey_experiment_5_v3,2023.2.2,Win32,84.74576271,,,,,,,,,,,,,,,,276.5461,278.0986,278.0987,279.7106,return,1.0492,,0.260416667,0,43,43,21,1,FBP-PT-18.png,0.37,1.2,22,0.75,,,,,,,,,,,,,,,,,,,,,,,,,,,,,,,,,,,,,,,,,,,,,
,,,,,V3_038,26,Male,2024-10-28_13h15.26.479,jersey_experiment_5_v3,2023.2.2,Win32,84.74576271,,,,,,,,,,,,,,,,279.7108,281.2635,281.2635,283.6047,return,0.6749,,25.13020833,0,44,44,12,1,FBP-YG-91.png,0.4,1.2,13,0.75,,,,,,,,,,,,,,,,,,,,,,,,,,,,,,,,,,,,,,,,,,,,,
,,,,,V3_038,26,Male,2024-10-28_13h15.26.479,jersey_experiment_5_v3,2023.2.2,Win32,84.74576271,,,,,,,,,,,,,,,,283.6049,285.1576,285.1576,287.2284,return,0.8264,,74.609375,0,45,45,24,1,FBP-PT-18.png,0.45,1.2,25,0.75,,,,,,,,,,,,,,,,,,,,,,,,,,,,,,,,,,,,,,,,,,,,,
,,,,,V3_038,26,Male,2024-10-28_13h15.26.479,jersey_experiment_5_v3,2023.2.2,Win32,84.74576271,,,,,,,,,,,,,,,,287.2287,288.5225,288.5226,290.3226,return,0.6921,,74.47916667,0,46,46,39,1,FBP-OG-18.png,0.45,1.2,40,0.5,,,,,,,,,,,,,,,,,,,,,,,,,,,,,,,,,,,,,,,,,,,,,
,,,,,V3_038,26,Male,2024-10-28_13h15.26.479,jersey_experiment_5_v3,2023.2.2,Win32,84.74576271,,,,,,,,,,,,,,,,290.3229,291.8756,291.8756,297.0406,return,0.6378,,57.55208333,0,47,47,2,1,FBP-YG-71.png,0.4,1.2,3,0.75,,,,,,,,,,,,,,,,,,,,,,,,,,,,,,,,,,,,,,,,,,,,,
,,,,,V3_038,26,Male,2024-10-28_13h15.26.479,jersey_experiment_5_v3,2023.2.2,Win32,84.74576271,,,,,,,,,,,,,,,,297.0409,298.5936,298.5936,300.8288,return,0.7241,,50.26041667,0,48,48,27,1,FBP-PT-19.png,0.4,1.2,28,0.75,,,,,,,,,,,,,,,,,,,,,,,,,,,,,,,,,,,,,,,,,,,,,
,,,,,V3_038,26,Male,2024-10-28_13h15.26.479,jersey_experiment_5_v3,2023.2.2,Win32,84.74576271,,,,,,,,,,,,,,,,300.8292,302.382,302.382,304.7349,return,0.5573,,74.47916667,0,49,49,9,1,FBP-YG-81.png,0.45,1.2,10,0.75,,,,,,,,,,,,,,,,,,,,,,,,,,,,,,,,,,,,,,,,,,,,,
,,,,,V3_038,26,Male,2024-10-28_13h15.26.479,jersey_experiment_5_v3,2023.2.2,Win32,84.74576271,,,,,,,,,,,,,,,,304.735,306.2878,306.2879,309.0527,return,0.5003,,24.73958333,0,50,50,55,1,FBP-RB-19.png,0.35,1.2,56,0.75,,,,,,,,,,,,,,,,,,,,,,,,,,,,,,,,,,,,,,,,,,,,,
,,,,,V3_038,26,Male,2024-10-28_13h15.26.479,jersey_experiment_5_v3,2023.2.2,Win32,84.74576271,,,,,,,,,,,,,,,,309.053,310.6058,310.6059,312.8529,return,0.5556,,24.47916667,0,51,51,45,1,FBP-RB-17.png,0.35,1.2,46,0.75,,,,,,,,,,,,,,,,,,,,,,,,,,,,,,,,,,,,,,,,,,,,,
,,,,,V3_038,26,Male,2024-10-28_13h15.26.479,jersey_experiment_5_v3,2023.2.2,Win32,84.74576271,,,,,,,,,,,,,,,,312.8531,314.406,314.4061,321.8414,return,3.9546,,55.59895833,0,52,52,47,1,FBP-RB-17.png,0.4,1.2,48,0.75,,,,,,,,,,,,,,,,,,,,,,,,,,,,,,,,,,,,,,,,,,,,,
,,,,,V3_038,26,Male,2024-10-28_13h15.26.479,jersey_experiment_5_v3,2023.2.2,Win32,84.74576271,,,,,,,,,,,,,,,,321.8417,323.1357,323.1357,325.7004,return,0.6849,,51.04166667,0,53,53,37,1,FBP-OG-18.png,0.4,1.2,38,0.5,,,,,,,,,,,,,,,,,,,,,,,,,,,,,,,,,,,,,,,,,,,,,
,,,,,V3_038,26,Male,2024-10-28_13h15.26.479,jersey_experiment_5_v3,2023.2.2,Win32,84.74576271,,,,,,,,,,,,,,,,325.7007,327.2534,327.2535,332.4301,return,0.6522,,42.578125,0,54,54,16,1,FBP-PT-17.png,0.37,1.2,17,0.75,,,,,,,,,,,,,,,,,,,,,,,,,,,,,,,,,,,,,,,,,,,,,
,,,,,V3_038,26,Male,2024-10-28_13h15.26.479,jersey_experiment_5_v3,2023.2.2,Win32,84.74576271,,,,,,,,,,,,,,,,332.4303,333.9831,333.9831,335.7008,return,0.5152,,41.53645833,0,55,55,56,1,FBP-RB-19.png,0.37,1.2,57,0.75,,,,,,,,,,,,,,,,,,,,,,,,,,,,,,,,,,,,,,,,,,,,,
,,,,,V3_038,26,Male,2024-10-28_13h15.26.479,jersey_experiment_5_v3,2023.2.2,Win32,84.74576271,,,,,,,,,,,,,,,,335.701,337.2538,337.2539,339.595,return,0.4889,,75.13020833,0,56,56,59,1,FBP-RB-19.png,0.45,1.2,60,0.75,,,,,,,,,,,,,,,,,,,,,,,,,,,,,,,,,,,,,,,,,,,,,
,,,,,V3_038,26,Male,2024-10-28_13h15.26.479,jersey_experiment_5_v3,2023.2.2,Win32,84.74576271,,,,,,,,,,,,,,,,339.5951,341.148,341.148,343.5011,return,0.5238,,0.520833333,0,57,57,0,1,FBP-YG-71.png,0.35,1.2,1,0.75,,,,,,,,,,,,,,,,,,,,,,,,,,,,,,,,,,,,,,,,,,,,,
,,,,,V3_038,26,Male,2024-10-28_13h15.26.479,jersey_experiment_5_v3,2023.2.2,Win32,84.74576271,,,,,,,,,,,,,,,,343.5013,344.7952,344.7953,347.4541,return,0.4755,,74.34895833,0,58,58,33,1,FBP-OG-17.png,0.43,1.2,34,0.5,,,,,,,,,,,,,,,,,,,,,,,,,,,,,,,,,,,,,,,,,,,,,
,,,,,V3_038,26,Male,2024-10-28_13h15.26.479,jersey_experiment_5_v3,2023.2.2,Win32,84.74576271,,,,,,,,,,,,,,,,347.4544,349.0071,349.0072,350.2072,return,0.4739,,74.86979167,0,59,59,28,1,FBP-PT-19.png,0.43,1.2,29,0.75,,,,,,,,,,,,,,,,,,,,,,,,,,,,,,,,,,,,,,,,,,,,,
,,,,,V3_038,26,Male,2024-10-28_13h15.26.479,jersey_experiment_5_v3,2023.2.2,Win32,84.74576271,,,,,,,,,,,,,,,,350.2094,351.7602,351.7602,354.3367,return,0.7557,,99.47916667,,,,,,FBP-RB-81.png,0.45,1.2,55,0.75,0,0,0,54,1,,,,,,,,,,,,,,,,,,,,,,,,,,,,,,,,,,,,,,,,
,,,,,V3_038,26,Male,2024-10-28_13h15.26.479,jersey_experiment_5_v3,2023.2.2,Win32,84.74576271,,,,,,,,,,,,,,,,354.3371,355.8898,355.8898,359.9252,return,0.5737,,0.390625,,,,,,FBP-YG-18.png,0.35,1.2,6,0.75,0,1,1,5,1,,,,,,,,,,,,,,,,,,,,,,,,,,,,,,,,,,,,,,,,
,,,,,V3_038,26,Male,2024-10-28_13h15.26.479,jersey_experiment_5_v3,2023.2.2,Win32,84.74576271,,,,,,,,,,,,,,,,359.9255,361.4783,361.4783,363.6195,return,0.5743,,99.73958333,,,,,,FBP-PT-81.png,0.45,1.2,25,0.75,0,2,2,24,1,,,,,,,,,,,,,,,,,,,,,,,,,,,,,,,,,,,,,,,,
,,,,,V3_038,26,Male,2024-10-28_13h15.26.479,jersey_experiment_5_v3,2023.2.2,Win32,84.74576271,,,,,,,,,,,,,,,,363.6198,364.9136,364.9136,366.8431,return,0.6064,,75.78125,,,,,,FBP-OG-81.png,0.43,1.2,39,0.5,0,3,3,38,1,,,,,,,,,,,,,,,,,,,,,,,,,,,,,,,,,,,,,,,,
,,,,,V3_038,26,Male,2024-10-28_13h15.26.479,jersey_experiment_5_v3,2023.2.2,Win32,84.74576271,,,,,,,,,,,,,,,,366.8434,368.3963,368.3964,371.9729,return,0.5414,,99.609375,,,,,,FBP-RB-71.png,0.45,1.2,50,0.75,0,4,4,49,1,,,,,,,,,,,,,,,,,,,,,,,,,,,,,,,,,,,,,,,,
,,,,,V3_038,26,Male,2024-10-28_13h15.26.479,jersey_experiment_5_v3,2023.2.2,Win32,84.74576271,,,,,,,,,,,,,,,,371.9731,373.5257,373.5257,375.1376,return,0.8396,,98.828125,,,,,,FBP-PT-81.png,0.4,1.2,23,0.75,0,5,5,22,1,,,,,,,,,,,,,,,,,,,,,,,,,,,,,,,,,,,,,,,,
,,,,,V3_038,26,Male,2024-10-28_13h15.26.479,jersey_experiment_5_v3,2023.2.2,Win32,84.74576271,,,,,,,,,,,,,,,,375.1379,376.6905,376.6905,378.1729,return,0.7947,,98.828125,,,,,,FBP-PT-91.png,0.4,1.2,28,0.75,0,6,6,27,1,,,,,,,,,,,,,,,,,,,,,,,,,,,,,,,,,,,,,,,,
,,,,,V3_038,26,Male,2024-10-28_13h15.26.479,jersey_experiment_5_v3,2023.2.2,Win32,84.74576271,,,,,,,,,,,,,,,,378.1732,379.7259,379.7259,380.9731,return,0.559,,99.73958333,,,,,,FBP-YG-17.png,0.45,1.2,5,0.75,0,7,7,4,1,,,,,,,,,,,,,,,,,,,,,,,,,,,,,,,,,,,,,,,,
,,,,,V3_038,26,Male,2024-10-28_13h15.26.479,jersey_experiment_5_v3,2023.2.2,Win32,84.74576271,,,,,,,,,,,,,,,,380.9733,382.5259,382.526,384.6672,return,0.5844,,99.73958333,,,,,,FBP-RB-71.png,0.4,1.2,48,0.75,0,8,8,47,1,,,,,,,,,,,,,,,,,,,,,,,,,,,,,,,,,,,,,,,,
,,,,,V3_038,26,Male,2024-10-28_13h15.26.479,jersey_experiment_5_v3,2023.2.2,Win32,84.74576271,,,,,,,,,,,,,,,,384.6676,386.2203,386.2204,387.7145,return,0.8245,,99.73958333,,,,,,FBP-YG-19.png,0.45,1.2,15,0.75,0,9,9,14,1,,,,,,,,,,,,,,,,,,,,,,,,,,,,,,,,,,,,,,,,
,,,,,V3_038,26,Male,2024-10-28_13h15.26.479,jersey_experiment_5_v3,2023.2.2,Win32,84.74576271,,,,,,,,,,,,,,,,387.7146,389.0086,389.0086,392.397,return,0.6181,,68.48958333,,,,,,FBP-OG-71.png,0.37,1.2,32,0.5,0,10,10,31,1,,,,,,,,,,,,,,,,,,,,,,,,,,,,,,,,,,,,,,,,
,,,,,V3_038,26,Male,2024-10-28_13h15.26.479,jersey_experiment_5_v3,2023.2.2,Win32,84.74576271,,,,,,,,,,,,,,,,392.3973,393.95,393.95,395.6442,return,0.5718,,67.96875,,,,,,FBP-RB-91.png,0.35,1.2,56,0.75,0,11,11,55,1,,,,,,,,,,,,,,,,,,,,,,,,,,,,,,,,,,,,,,,,
,,,,,V3_038,26,Male,2024-10-28_13h15.26.479,jersey_experiment_5_v3,2023.2.2,Win32,84.74576271,,,,,,,,,,,,,,,,395.6446,397.1972,397.1973,399.7266,return,0.8159,,66.92708333,,,,,,FBP-PT-71.png,0.37,1.2,17,0.75,0,12,12,16,1,,,,,,,,,,,,,,,,,,,,,,,,,,,,,,,,,,,,,,,,
,,,,,V3_038,26,Male,2024-10-28_13h15.26.479,jersey_experiment_5_v3,2023.2.2,Win32,84.74576271,,,,,,,,,,,,,,,,399.7268,401.0209,401.0209,403.1856,return,0.6585,,74.73958333,,,,,,FBP-OG-91.png,0.43,1.2,44,0.5,0,13,13,43,1,,,,,,,,,,,,,,,,,,,,,,,,,,,,,,,,,,,,,,,,
,,,,,V3_038,26,Male,2024-10-28_13h15.26.479,jersey_experiment_5_v3,2023.2.2,Win32,84.74576271,,,,,,,,,,,,,,,,403.1859,404.4798,404.4798,405.9386,return,0.4959,,74.73958333,,,,,,FBP-OG-71.png,0.45,1.2,35,0.5,0,14,14,34,1,,,,,,,,,,,,,,,,,,,,,,,,,,,,,,,,,,,,,,,,
,,,,,V3_038,26,Male,2024-10-28_13h15.26.479,jersey_experiment_5_v3,2023.2.2,Win32,84.74576271,,,,,,,,,,,,,,,,405.9388,407.4917,407.4917,409.8446,return,0.7526,,70.3125,,,,,,FBP-RB-71.png,0.37,1.2,47,0.75,0,15,15,46,1,,,,,,,,,,,,,,,,,,,,,,,,,,,,,,,,,,,,,,,,
,,,,,V3_038,26,Male,2024-10-28_13h15.26.479,jersey_experiment_5_v3,2023.2.2,Win32,84.74576271,,,,,,,,,,,,,,,,409.8449,411.3977,411.3978,412.7978,return,0.6506,,66.015625,,,,,,FBP-YG-17.png,0.35,1.2,1,0.75,0,16,16,0,1,,,,,,,,,,,,,,,,,,,,,,,,,,,,,,,,,,,,,,,,
,,,,,V3_038,26,Male,2024-10-28_13h15.26.479,jersey_experiment_5_v3,2023.2.2,Win32,84.74576271,,,,,,,,,,,,,,,,412.798,414.3508,414.3508,415.7744,return,0.5659,,66.015625,,,,,,FBP-RB-81.png,0.4,1.2,53,0.75,0,17,17,52,1,,,,,,,,,,,,,,,,,,,,,,,,,,,,,,,,,,,,,,,,
,,,,,V3_038,26,Male,2024-10-28_13h15.26.479,jersey_experiment_5_v3,2023.2.2,Win32,84.74576271,,,,,,,,,,,,,,,,415.7747,417.3273,417.3274,419.1038,return,0.5557,,74.73958333,,,,,,FBP-RB-91.png,0.4,1.2,58,0.75,0,18,18,57,1,,,,,,,,,,,,,,,,,,,,,,,,,,,,,,,,,,,,,,,,
,,,,,V3_038,26,Male,2024-10-28_13h15.26.479,jersey_experiment_5_v3,2023.2.2,Win32,84.74576271,,,,,,,,,,,,,,,,419.104,420.6569,420.6569,421.6686,return,0.5411,,75,,,,,,FBP-PT-91.png,0.43,1.2,29,0.75,0,19,19,28,1,,,,,,,,,,,,,,,,,,,,,,,,,,,,,,,,,,,,,,,,
,,,,,V3_038,26,Male,2024-10-28_13h15.26.479,jersey_experiment_5_v3,2023.2.2,Win32,84.74576271,,,,,,,,,,,,,,,,421.6688,423.2217,423.2218,424.8217,return,0.8468,,75.13020833,,,,,,FBP-PT-81.png,0.43,1.2,24,0.75,0,20,20,23,1,,,,,,,,,,,,,,,,,,,,,,,,,,,,,,,,,,,,,,,,
,,,,,V3_038,26,Male,2024-10-28_13h15.26.479,jersey_experiment_5_v3,2023.2.2,Win32,84.74576271,,,,,,,,,,,,,,,,424.822,426.1159,426.1159,427.1983,return,0.6959,,75.13020833,,,,,,FBP-OG-81.png,0.45,1.2,40,0.5,0,21,21,39,1,,,,,,,,,,,,,,,,,,,,,,,,,,,,,,,,,,,,,,,,
,,,,,V3_038,26,Male,2024-10-28_13h15.26.479,jersey_experiment_5_v3,2023.2.2,Win32,84.74576271,,,,,,,,,,,,,,,,427.1984,428.7397,428.7398,430.0691,return,0.1413,,25,,,,,,FBP-PT-91.png,0.35,1.2,26,0.75,0,22,22,25,1,,,,,,,,,,,,,,,,,,,,,,,,,,,,,,,,,,,,,,,,
,,,,,V3_038,26,Male,2024-10-28_13h15.26.479,jersey_experiment_5_v3,2023.2.2,Win32,84.74576271,,,,,,,,,,,,,,,,430.0693,431.6219,431.6219,433.3279,return,0.132,,40.75520833,,,,,,FBP-YG-18.png,0.4,1.2,8,0.75,0,23,23,7,1,,,,,,,,,,,,,,,,,,,,,,,,,,,,,,,,,,,,,,,,
,,,,,V3_038,26,Male,2024-10-28_13h15.26.479,jersey_experiment_5_v3,2023.2.2,Win32,84.74576271,,,,,,,,,,,,,,,,433.3282,434.8809,434.8809,435.7398,return,0.0622,,42.44791667,,,,,,FBP-RB-81.png,0.37,1.2,52,0.75,0,24,24,51,1,,,,,,,,,,,,,,,,,,,,,,,,,,,,,,,,,,,,,,,,
,,,,,V3_038,26,Male,2024-10-28_13h15.26.479,jersey_experiment_5_v3,2023.2.2,Win32,84.74576271,,,,,,,,,,,,,,,,435.74,437.2929,437.293,438.5633,return,0.0802,,0.260416667,,,,,,FBP-YG-19.png,0.35,1.2,11,0.75,0,25,25,10,1,,,,,,,,,,,,,,,,,,,,,,,,,,,,,,,,,,,,,,,,
,,,,,V3_038,26,Male,2024-10-28_13h15.26.479,jersey_experiment_5_v3,2023.2.2,Win32,84.74576271,,,,,,,,,,,,,,,,438.5636,440.1165,440.1165,441.3753,return,0.1567,,74.609375,,,,,,FBP-PT-91.png,0.45,1.2,30,0.75,0,26,26,29,1,,,,,,,,,,,,,,,,,,,,,,,,,,,,,,,,,,,,,,,,
,,,,,V3_038,26,Male,2024-10-28_13h15.26.479,jersey_experiment_5_v3,2023.2.2,Win32,84.74576271,,,,,,,,,,,,,,,,441.3756,442.9282,442.9282,445.7402,return,0.1249,,42.1875,,,,,,FBP-PT-71.png,0.4,1.2,18,0.75,0,27,27,17,1,,,,,,,,,,,,,,,,,,,,,,,,,,,,,,,,,,,,,,,,
,,,,,V3_038,26,Male,2024-10-28_13h15.26.479,jersey_experiment_5_v3,2023.2.2,Win32,84.74576271,,,,,,,,,,,,,,,,445.7405,447.2931,447.2931,448.8814,return,0.0607,,25,,,,,,FBP-PT-71.png,0.35,1.2,16,0.75,0,28,28,15,1,,,,,,,,,,,,,,,,,,,,,,,,,,,,,,,,,,,,,,,,
,,,,,V3_038,26,Male,2024-10-28_13h15.26.479,jersey_experiment_5_v3,2023.2.2,Win32,84.74576271,,,,,,,,,,,,,,,,448.8817,450.4345,450.4346,450.9638,return,0.1258,,25,,,,,,FBP-PT-81.png,0.37,1.2,22,0.75,0,29,29,21,1,,,,,,,,,,,,,,,,,,,,,,,,,,,,,,,,,,,,,,,,
,,,,,V3_038,26,Male,2024-10-28_13h15.26.479,jersey_experiment_5_v3,2023.2.2,Win32,84.74576271,,,,,,,,,,,,,,,,450.9642,452.5168,452.5169,454.5758,return,0.284,,74.609375,,,,,,FBP-RB-71.png,0.43,1.2,49,0.75,0,30,30,48,1,,,,,,,,,,,,,,,,,,,,,,,,,,,,,,,,,,,,,,,,
,,,,,V3_038,26,Male,2024-10-28_13h15.26.479,jersey_experiment_5_v3,2023.2.2,Win32,84.74576271,,,,,,,,,,,,,,,,454.5761,456.1287,456.1287,456.7406,return,0.0476,,74.73958333,,,,,,FBP-PT-71.png,0.45,1.2,20,0.75,0,31,31,19,1,,,,,,,,,,,,,,,,,,,,,,,,,,,,,,,,,,,,,,,,
,,,,,V3_038,26,Male,2024-10-28_13h15.26.479,jersey_experiment_5_v3,2023.2.2,Win32,84.74576271,,,,,,,,,,,,,,,,456.7408,458.2938,458.2938,459.7878,return,0.2188,,24.21875,,,,,,FBP-YG-19.png,0.37,1.2,12,0.75,0,32,32,11,1,,,,,,,,,,,,,,,,,,,,,,,,,,,,,,,,,,,,,,,,
,,,,,V3_038,26,Male,2024-10-28_13h15.26.479,jersey_experiment_5_v3,2023.2.2,Win32,84.74576271,,,,,,,,,,,,,,,,459.788,461.3408,461.3409,462.4466,return,0.0518,,75.13020833,,,,,,FBP-RB-91.png,0.43,1.2,59,0.75,0,33,33,58,1,,,,,,,,,,,,,,,,,,,,,,,,,,,,,,,,,,,,,,,,
,,,,,V3_038,26,Male,2024-10-28_13h15.26.479,jersey_experiment_5_v3,2023.2.2,Win32,84.74576271,,,,,,,,,,,,,,,,462.4469,463.9995,463.9996,464.3055,return,0.0958,,75,,,,,,FBP-RB-81.png,0.43,1.2,54,0.75,0,34,34,53,1,,,,,,,,,,,,,,,,,,,,,,,,,,,,,,,,,,,,,,,,
,,,,,V3_038,26,Male,2024-10-28_13h15.26.479,jersey_experiment_5_v3,2023.2.2,Win32,84.74576271,,,,,,,,,,,,,,,,464.3059,465.8586,465.8587,467.1527,return,0.049,,0.260416667,,,,,,FBP-RB-81.png,0.35,1.2,51,0.75,0,35,35,50,1,,,,,,,,,,,,,,,,,,,,,,,,,,,,,,,,,,,,,,,,
,,,,,V3_038,26,Male,2024-10-28_13h15.26.479,jersey_experiment_5_v3,2023.2.2,Win32,84.74576271,,,,,,,,,,,,,,,,467.1529,468.7057,468.7058,469.188,return,0.0394,,0.260416667,,,,,,FBP-RB-71.png,0.35,1.2,46,0.75,0,36,36,45,1,,,,,,,,,,,,,,,,,,,,,,,,,,,,,,,,,,,,,,,,
,,,,,V3_038,26,Male,2024-10-28_13h15.26.479,jersey_experiment_5_v3,2023.2.2,Win32,84.74576271,,,,,,,,,,,,,,,,469.1883,470.7411,470.7412,471.1528,return,0.0829,,0.260416667,,,,,,FBP-YG-18.png,0.37,1.2,7,0.75,0,37,37,6,1,,,,,,,,,,,,,,,,,,,,,,,,,,,,,,,,,,,,,,,,
,,,,,V3_038,26,Male,2024-10-28_13h15.26.479,jersey_experiment_5_v3,2023.2.2,Win32,84.74576271,,,,,,,,,,,,,,,,471.153,472.7058,472.7058,474.2824,return,0.0796,,75,,,,,,FBP-YG-19.png,0.43,1.2,14,0.75,0,38,38,13,1,,,,,,,,,,,,,,,,,,,,,,,,,,,,,,,,,,,,,,,,
,,,,,V3_038,26,Male,2024-10-28_13h15.26.479,jersey_experiment_5_v3,2023.2.2,Win32,84.74576271,,,,,,,,,,,,,,,,474.2825,475.5765,475.5765,479.0589,return,0.0951,,72.00520833,,,,,,FBP-OG-71.png,0.4,1.2,33,0.5,0,39,39,32,1,,,,,,,,,,,,,,,,,,,,,,,,,,,,,,,,,,,,,,,,
,,,,,V3_038,26,Male,2024-10-28_13h15.26.479,jersey_experiment_5_v3,2023.2.2,Win32,84.74576271,,,,,,,,,,,,,,,,479.0591,480.3532,480.3532,483.9062,return,2.6361,,54.94791667,,,,,,FBP-OG-91.png,0.35,1.2,41,0.5,0,40,40,40,1,,,,,,,,,,,,,,,,,,,,,,,,,,,,,,,,,,,,,,,,
,,,,,V3_038,26,Male,2024-10-28_13h15.26.479,jersey_experiment_5_v3,2023.2.2,Win32,84.74576271,,,,,,,,,,,,,,,,483.9065,485.4591,485.4592,487.1888,return,0.1186,,63.80208333,,,,,,FBP-YG-17.png,0.4,1.2,3,0.75,0,41,41,2,1,,,,,,,,,,,,,,,,,,,,,,,,,,,,,,,,,,,,,,,,
,,,,,V3_038,26,Male,2024-10-28_13h15.26.479,jersey_experiment_5_v3,2023.2.2,Win32,84.74576271,,,,,,,,,,,,,,,,487.189,488.4829,488.483,489.7418,return,0.029,,61.84895833,,,,,,FBP-OG-91.png,0.37,1.2,42,0.5,0,42,42,41,1,,,,,,,,,,,,,,,,,,,,,,,,,,,,,,,,,,,,,,,,
,,,,,V3_038,26,Male,2024-10-28_13h15.26.479,jersey_experiment_5_v3,2023.2.2,Win32,84.74576271,,,,,,,,,,,,,,,,489.742,491.0359,491.036,492.4007,return,0.0966,,61.84895833,,,,,,FBP-OG-81.png,0.37,1.2,37,0.5,0,43,43,36,1,,,,,,,,,,,,,,,,,,,,,,,,,,,,,,,,,,,,,,,,
,,,,,V3_038,26,Male,2024-10-28_13h15.26.479,jersey_experiment_5_v3,2023.2.2,Win32,84.74576271,,,,,,,,,,,,,,,,492.401,493.6949,493.6949,495.1537,return,0.0354,,69.01041667,,,,,,FBP-OG-81.png,0.4,1.2,38,0.5,0,44,44,37,1,,,,,,,,,,,,,,,,,,,,,,,,,,,,,,,,,,,,,,,,
,,,,,V3_038,26,Male,2024-10-28_13h15.26.479,jersey_experiment_5_v3,2023.2.2,Win32,84.74576271,,,,,,,,,,,,,,,,495.1539,496.7068,496.7068,498.2126,return,0.0473,,26.04166667,,,,,,FBP-PT-81.png,0.35,1.2,21,0.75,0,45,45,20,1,,,,,,,,,,,,,,,,,,,,,,,,,,,,,,,,,,,,,,,,
,,,,,V3_038,26,Male,2024-10-28_13h15.26.479,jersey_experiment_5_v3,2023.2.2,Win32,84.74576271,,,,,,,,,,,,,,,,498.2129,499.7658,499.7659,501.1539,return,0.0564,,61.06770833,,,,,,FBP-YG-19.png,0.4,1.2,13,0.75,0,46,46,12,1,,,,,,,,,,,,,,,,,,,,,,,,,,,,,,,,,,,,,,,,
,,,,,V3_038,26,Male,2024-10-28_13h15.26.479,jersey_experiment_5_v3,2023.2.2,Win32,84.74576271,,,,,,,,,,,,,,,,501.1542,502.448,502.448,503.3071,return,0.0435,,74.86979167,,,,,,FBP-OG-71.png,0.43,1.2,34,0.5,0,47,47,33,1,,,,,,,,,,,,,,,,,,,,,,,,,,,,,,,,,,,,,,,,
,,,,,V3_038,26,Male,2024-10-28_13h15.26.479,jersey_experiment_5_v3,2023.2.2,Win32,84.74576271,,,,,,,,,,,,,,,,503.3074,504.8601,504.8602,508.1424,return,2.648,,50,,,,,,FBP-YG-17.png,0.37,1.2,2,0.75,0,48,48,1,1,,,,,,,,,,,,,,,,,,,,,,,,,,,,,,,,,,,,,,,,
,,,,,V3_038,26,Male,2024-10-28_13h15.26.479,jersey_experiment_5_v3,2023.2.2,Win32,84.74576271,,,,,,,,,,,,,,,,508.1427,509.6839,509.6839,510.7072,return,0.0338,,74.86979167,,,,,,FBP-YG-17.png,0.43,1.2,4,0.75,0,49,49,3,1,,,,,,,,,,,,,,,,,,,,,,,,,,,,,,,,,,,,,,,,
,,,,,V3_038,26,Male,2024-10-28_13h15.26.479,jersey_experiment_5_v3,2023.2.2,Win32,84.74576271,,,,,,,,,,,,,,,,510.7074,512.2601,512.2602,512.9072,return,0.3021,,74.73958333,,,,,,FBP-RB-91.png,0.45,1.2,60,0.75,0,50,50,59,1,,,,,,,,,,,,,,,,,,,,,,,,,,,,,,,,,,,,,,,,
,,,,,V3_038,26,Male,2024-10-28_13h15.26.479,jersey_experiment_5_v3,2023.2.2,Win32,84.74576271,,,,,,,,,,,,,,,,512.9073,514.4604,514.4604,514.8957,return,0.0273,,74.86979167,,,,,,FBP-PT-71.png,0.43,1.2,19,0.75,0,51,51,18,1,,,,,,,,,,,,,,,,,,,,,,,,,,,,,,,,,,,,,,,,
,,,,,V3_038,26,Male,2024-10-28_13h15.26.479,jersey_experiment_5_v3,2023.2.2,Win32,84.74576271,,,,,,,,,,,,,,,,514.896,516.1898,516.1898,519.3428,return,0.0749,,14.71354167,,,,,,FBP-OG-71.png,0.35,1.2,31,0.5,0,52,52,30,1,,,,,,,,,,,,,,,,,,,,,,,,,,,,,,,,,,,,,,,,
,,,,,V3_038,26,Male,2024-10-28_13h15.26.479,jersey_experiment_5_v3,2023.2.2,Win32,84.74576271,,,,,,,,,,,,,,,,519.3431,520.8959,520.8959,521.5546,return,0.0475,,15.36458333,,,,,,FBP-RB-91.png,0.37,1.2,57,0.75,0,53,53,56,1,,,,,,,,,,,,,,,,,,,,,,,,,,,,,,,,,,,,,,,,
,,,,,V3_038,26,Male,2024-10-28_13h15.26.479,jersey_experiment_5_v3,2023.2.2,Win32,84.74576271,,,,,,,,,,,,,,,,521.5549,522.8488,522.8489,524.2252,return,0.047,,74.86979167,,,,,,FBP-OG-91.png,0.45,1.2,45,0.5,0,54,54,44,1,,,,,,,,,,,,,,,,,,,,,,,,,,,,,,,,,,,,,,,,
,,,,,V3_038,26,Male,2024-10-28_13h15.26.479,jersey_experiment_5_v3,2023.2.2,Win32,84.74576271,,,,,,,,,,,,,,,,524.2255,525.5196,525.5196,526.5548,return,0.0513,,24.47916667,,,,,,FBP-OG-81.png,0.35,1.2,36,0.5,0,55,55,35,1,,,,,,,,,,,,,,,,,,,,,,,,,,,,,,,,,,,,,,,,
,,,,,V3_038,26,Male,2024-10-28_13h15.26.479,jersey_experiment_5_v3,2023.2.2,Win32,84.74576271,,,,,,,,,,,,,,,,526.555,528.0963,528.0963,528.955,return,0.0198,,75.65104167,,,,,,FBP-YG-18.png,0.43,1.2,9,0.75,0,56,56,8,1,,,,,,,,,,,,,,,,,,,,,,,,,,,,,,,,,,,,,,,,
,,,,,V3_038,26,Male,2024-10-28_13h15.26.479,jersey_experiment_5_v3,2023.2.2,Win32,84.74576271,,,,,,,,,,,,,,,,528.9553,530.5081,530.5081,532.014,return,0.0252,,99.86979167,,,,,,FBP-YG-18.png,0.45,1.2,10,0.75,0,57,57,9,1,,,,,,,,,,,,,,,,,,,,,,,,,,,,,,,,,,,,,,,,
,,,,,V3_038,26,Male,2024-10-28_13h15.26.479,jersey_experiment_5_v3,2023.2.2,Win32,84.74576271,,,,,,,,,,,,,,,,532.0142,533.308,533.308,534.5318,return,0.0153,,74.21875,,,,,,FBP-OG-91.png,0.4,1.2,43,0.5,0,58,58,42,1,,,,,,,,,,,,,,,,,,,,,,,,,,,,,,,,,,,,,,,,
,,,,,V3_038,26,Male,2024-10-28_13h15.26.479,jersey_experiment_5_v3,2023.2.2,Win32,84.74576271,,,,,,,,,,,,,,,,534.532,536.0849,536.0849,538.1907,return,0.0752,,33.07291667,,,,,,FBP-PT-91.png,0.37,1.2,27,0.75,0,59,59,26,1,,,,,,,,,,,,,,,,,,,,,,,,,,,,,,,,,,,,,,,,
,,,,,V3_038,26,Male,2024-10-28_13h15.26.479,jersey_experiment_5_v3,2023.2.2,Win32,84.74576271,,,,,,,,,,,,,,,,,,,,,,,,,,,,,,,,,,,,,,,538.1909,658.1836,,,,,,,,,,,,,,,,,,,,,,,,,,,,,,,,,,,,,,
,,,,,V3_038,26,Male,2024-10-28_13h15.26.479,jersey_experiment_5_v3,2023.2.2,Win32,84.74576271,,,,,,,,,,,,,,,,,,,,,,,,,,,,,,,,,,,,,,,,,658.1836,661.2424,return,3.0546,,,,,,,,,,,,,,,,,,,,,,,,,,,,,,,,,,
,,,,,V3_038,26,Male,2024-10-28_13h15.26.479,jersey_experiment_5_v3,2023.2.2,Win32,84.74576271,,,,,,,,,,,,,,,,661.2442,662.5365,662.5365,666.6541,return,1.5231,,39.71354167,,,,,,FBP-RB-17.png,0.35,1.2,46,0.5,,,,,,,,,,,,,0,0,0,45,1,,,,,,,,,,,,,,,,,,,,,,,,,,,,
,,,,,V3_038,26,Male,2024-10-28_13h15.26.479,jersey_experiment_5_v3,2023.2.2,Win32,84.74576271,,,,,,,,,,,,,,,,666.6546,667.9484,667.9485,670.3719,return,0.7215,,72.265625,,,,,,FBP-YG-91.png,0.4,1.2,13,0.5,,,,,,,,,,,,,0,1,1,12,1,,,,,,,,,,,,,,,,,,,,,,,,,,,,
,,,,,V3_038,26,Male,2024-10-28_13h15.26.479,jersey_experiment_5_v3,2023.2.2,Win32,84.74576271,,,,,,,,,,,,,,,,670.3721,671.6661,671.6662,673.925,return,0.5199,,74.73958333,,,,,,FBP-RB-17.png,0.45,1.2,50,0.5,,,,,,,,,,,,,0,2,2,49,1,,,,,,,,,,,,,,,,,,,,,,,,,,,,
,,,,,V3_038,26,Male,2024-10-28_13h15.26.479,jersey_experiment_5_v3,2023.2.2,Win32,84.74576271,,,,,,,,,,,,,,,,673.9252,675.2192,675.2193,677.1956,return,0.6879,,74.73958333,,,,,,FBP-PT-17.png,0.43,1.2,19,0.5,,,,,,,,,,,,,0,3,3,18,1,,,,,,,,,,,,,,,,,,,,,,,,,,,,
,,,,,V3_038,26,Male,2024-10-28_13h15.26.479,jersey_experiment_5_v3,2023.2.2,Win32,84.74576271,,,,,,,,,,,,,,,,677.1959,678.4899,678.49,680.1723,return,0.5482,,69.01041667,,,,,,FBP-RB-18.png,0.4,1.2,53,0.5,,,,,,,,,,,,,0,4,4,52,1,,,,,,,,,,,,,,,,,,,,,,,,,,,,
,,,,,V3_038,26,Male,2024-10-28_13h15.26.479,jersey_experiment_5_v3,2023.2.2,Win32,84.74576271,,,,,,,,,,,,,,,,680.1726,681.4664,681.4664,682.6079,return,0.6607,,67.96875,,,,,,FBP-RB-17.png,0.4,1.2,48,0.5,,,,,,,,,,,,,0,5,5,47,1,,,,,,,,,,,,,,,,,,,,,,,,,,,,
,,,,,V3_038,26,Male,2024-10-28_13h15.26.479,jersey_experiment_5_v3,2023.2.2,Win32,84.74576271,,,,,,,,,,,,,,,,682.6081,684.1609,684.1609,685.2197,return,0.4851,,74.21875,,,,,,FBP-OG-17.png,0.43,1.2,34,0.75,,,,,,,,,,,,,0,6,6,33,1,,,,,,,,,,,,,,,,,,,,,,,,,,,,
,,,,,V3_038,26,Male,2024-10-28_13h15.26.479,jersey_experiment_5_v3,2023.2.2,Win32,84.74576271,,,,,,,,,,,,,,,,685.2199,686.5137,686.5137,689.4903,return,0.7302,,29.03645833,,,,,,FBP-YG-71.png,0.35,1.2,1,0.5,,,,,,,,,,,,,0,7,7,0,1,,,,,,,,,,,,,,,,,,,,,,,,,,,,
,,,,,V3_038,26,Male,2024-10-28_13h15.26.479,jersey_experiment_5_v3,2023.2.2,Win32,84.74576271,,,,,,,,,,,,,,,,689.4906,691.0435,691.0436,692.7963,return,0.5363,,75.390625,,,,,,FBP-OG-19.png,0.45,1.2,45,0.75,,,,,,,,,,,,,0,8,8,44,1,,,,,,,,,,,,,,,,,,,,,,,,,,,,
,,,,,V3_038,26,Male,2024-10-28_13h15.26.479,jersey_experiment_5_v3,2023.2.2,Win32,84.74576271,,,,,,,,,,,,,,,,692.7966,694.0904,694.0904,695.9023,return,0.5107,,24.86979167,,,,,,FBP-RB-18.png,0.35,1.2,51,0.5,,,,,,,,,,,,,0,9,9,50,1,,,,,,,,,,,,,,,,,,,,,,,,,,,,
,,,,,V3_038,26,Male,2024-10-28_13h15.26.479,jersey_experiment_5_v3,2023.2.2,Win32,84.74576271,,,,,,,,,,,,,,,,695.9026,697.1965,697.1966,698.8671,return,0.4862,,61.58854167,,,,,,FBP-PT-18.png,0.43,1.2,24,0.5,,,,,,,,,,,,,0,10,10,23,1,,,,,,,,,,,,,,,,,,,,,,,,,,,,
,,,,,V3_038,26,Male,2024-10-28_13h15.26.479,jersey_experiment_5_v3,2023.2.2,Win32,84.74576271,,,,,,,,,,,,,,,,698.8674,700.1613,700.1614,701.5497,return,0.4646,,24.609375,,,,,,FBP-PT-18.png,0.37,1.2,22,0.5,,,,,,,,,,,,,0,11,11,21,1,,,,,,,,,,,,,,,,,,,,,,,,,,,,
,,,,,V3_038,26,Male,2024-10-28_13h15.26.479,jersey_experiment_5_v3,2023.2.2,Win32,84.74576271,,,,,,,,,,,,,,,,701.5499,703.1026,703.1026,704.8439,return,0.4764,,48.95833333,,,,,,FBP-OG-19.png,0.4,1.2,43,0.75,,,,,,,,,,,,,0,12,12,42,1,,,,,,,,,,,,,,,,,,,,,,,,,,,,
,,,,,V3_038,26,Male,2024-10-28_13h15.26.479,jersey_experiment_5_v3,2023.2.2,Win32,84.74576271,,,,,,,,,,,,,,,,704.8441,706.138,706.1381,707.7145,return,0.7067,,73.69791667,,,,,,FBP-YG-81.png,0.43,1.2,9,0.5,,,,,,,,,,,,,0,13,13,8,1,,,,,,,,,,,,,,,,,,,,,,,,,,,,
,,,,,V3_038,26,Male,2024-10-28_13h15.26.479,jersey_experiment_5_v3,2023.2.2,Win32,84.74576271,,,,,,,,,,,,,,,,707.7148,709.2676,709.2676,710.8441,return,0.4525,,55.859375,,,,,,FBP-OG-17.png,0.4,1.2,33,0.75,,,,,,,,,,,,,0,14,14,32,1,,,,,,,,,,,,,,,,,,,,,,,,,,,,
,,,,,V3_038,26,Male,2024-10-28_13h15.26.479,jersey_experiment_5_v3,2023.2.2,Win32,84.74576271,,,,,,,,,,,,,,,,710.8443,712.3972,712.3972,713.9382,return,0.5035,,72.39583333,,,,,,FBP-OG-19.png,0.43,1.2,44,0.75,,,,,,,,,,,,,0,15,15,43,1,,,,,,,,,,,,,,,,,,,,,,,,,,,,
,,,,,V3_038,26,Male,2024-10-28_13h15.26.479,jersey_experiment_5_v3,2023.2.2,Win32,84.74576271,,,,,,,,,,,,,,,,713.9385,715.2325,715.2325,716.7971,return,0.4649,,74.86979167,,,,,,FBP-YG-81.png,0.45,1.2,10,0.5,,,,,,,,,,,,,0,16,16,9,1,,,,,,,,,,,,,,,,,,,,,,,,,,,,
,,,,,V3_038,26,Male,2024-10-28_13h15.26.479,jersey_experiment_5_v3,2023.2.2,Win32,84.74576271,,,,,,,,,,,,,,,,716.7974,718.0913,718.0913,719.1033,return,0.4238,,74.86979167,,,,,,FBP-PT-19.png,0.43,1.2,29,0.5,,,,,,,,,,,,,0,17,17,28,1,,,,,,,,,,,,,,,,,,,,,,,,,,,,
,,,,,V3_038,26,Male,2024-10-28_13h15.26.479,jersey_experiment_5_v3,2023.2.2,Win32,84.74576271,,,,,,,,,,,,,,,,719.1035,720.3974,720.3975,723.0446,return,0.4101,,18.22916667,,,,,,FBP-PT-17.png,0.35,1.2,16,0.5,,,,,,,,,,,,,0,18,18,15,1,,,,,,,,,,,,,,,,,,,,,,,,,,,,
,,,,,V3_038,26,Male,2024-10-28_13h15.26.479,jersey_experiment_5_v3,2023.2.2,Win32,84.74576271,,,,,,,,,,,,,,,,723.0448,724.5976,724.5976,727.1388,return,0.5651,,58.07291667,,,,,,FBP-OG-18.png,0.43,1.2,39,0.75,,,,,,,,,,,,,0,19,19,38,1,,,,,,,,,,,,,,,,,,,,,,,,,,,,
,,,,,V3_038,26,Male,2024-10-28_13h15.26.479,jersey_experiment_5_v3,2023.2.2,Win32,84.74576271,,,,,,,,,,,,,,,,727.1391,728.692,728.692,730.1271,return,0.4983,,74.73958333,,,,,,FBP-OG-17.png,0.45,1.2,35,0.75,,,,,,,,,,,,,0,20,20,34,1,,,,,,,,,,,,,,,,,,,,,,,,,,,,
,,,,,V3_038,26,Male,2024-10-28_13h15.26.479,jersey_experiment_5_v3,2023.2.2,Win32,84.74576271,,,,,,,,,,,,,,,,730.1274,731.4212,731.4213,733.998,return,0.992,,66.27604167,,,,,,FBP-PT-19.png,0.4,1.2,28,0.5,,,,,,,,,,,,,0,21,21,27,1,,,,,,,,,,,,,,,,,,,,,,,,,,,,
,,,,,V3_038,26,Male,2024-10-28_13h15.26.479,jersey_experiment_5_v3,2023.2.2,Win32,84.74576271,,,,,,,,,,,,,,,,733.9982,735.292,735.292,737.645,return,0.5222,,73.30729167,,,,,,FBP-YG-71.png,0.43,1.2,4,0.5,,,,,,,,,,,,,0,22,22,3,1,,,,,,,,,,,,,,,,,,,,,,,,,,,,
,,,,,V3_038,26,Male,2024-10-28_13h15.26.479,jersey_experiment_5_v3,2023.2.2,Win32,84.74576271,,,,,,,,,,,,,,,,737.6453,738.9393,738.9393,741.1627,return,0.479,,75.13020833,,,,,,FBP-RB-19.png,0.45,1.2,60,0.5,,,,,,,,,,,,,0,23,23,59,1,,,,,,,,,,,,,,,,,,,,,,,,,,,,
,,,,,V3_038,26,Male,2024-10-28_13h15.26.479,jersey_experiment_5_v3,2023.2.2,Win32,84.74576271,,,,,,,,,,,,,,,,741.163,742.457,742.457,744.0219,return,0.5178,,62.109375,,,,,,FBP-YG-71.png,0.4,1.2,3,0.5,,,,,,,,,,,,,0,24,24,2,1,,,,,,,,,,,,,,,,,,,,,,,,,,,,
,,,,,V3_038,26,Male,2024-10-28_13h15.26.479,jersey_experiment_5_v3,2023.2.2,Win32,84.74576271,,,,,,,,,,,,,,,,744.0221,745.316,745.316,748.5866,return,0.538,,53.77604167,,,,,,FBP-PT-17.png,0.37,1.2,17,0.5,,,,,,,,,,,,,0,25,25,16,1,,,,,,,,,,,,,,,,,,,,,,,,,,,,
,,,,,V3_038,26,Male,2024-10-28_13h15.26.479,jersey_experiment_5_v3,2023.2.2,Win32,84.74576271,,,,,,,,,,,,,,,,748.5868,749.8808,749.8808,751.2926,return,0.5463,,74.73958333,,,,,,FBP-YG-91.png,0.43,1.2,14,0.5,,,,,,,,,,,,,0,26,26,13,1,,,,,,,,,,,,,,,,,,,,,,,,,,,,
,,,,,V3_038,26,Male,2024-10-28_13h15.26.479,jersey_experiment_5_v3,2023.2.2,Win32,84.74576271,,,,,,,,,,,,,,,,751.2928,752.5868,752.5868,754.2693,return,0.5233,,87.5,,,,,,FBP-PT-17.png,0.45,1.2,20,0.5,,,,,,,,,,,,,0,27,27,19,1,,,,,,,,,,,,,,,,,,,,,,,,,,,,
,,,,,V3_038,26,Male,2024-10-28_13h15.26.479,jersey_experiment_5_v3,2023.2.2,Win32,84.74576271,,,,,,,,,,,,,,,,754.2695,755.5634,755.5634,757.987,return,0.4079,,85.28645833,,,,,,FBP-YG-91.png,0.45,1.2,15,0.5,,,,,,,,,,,,,0,28,28,14,1,,,,,,,,,,,,,,,,,,,,,,,,,,,,
,,,,,V3_038,26,Male,2024-10-28_13h15.26.479,jersey_experiment_5_v3,2023.2.2,Win32,84.74576271,,,,,,,,,,,,,,,,757.9872,759.5285,759.5286,761.6341,return,0.5267,,41.796875,,,,,,FBP-OG-17.png,0.35,1.2,31,0.75,,,,,,,,,,,,,0,29,29,30,1,,,,,,,,,,,,,,,,,,,,,,,,,,,,
,,,,,V3_038,26,Male,2024-10-28_13h15.26.479,jersey_experiment_5_v3,2023.2.2,Win32,84.74576271,,,,,,,,,,,,,,,,761.6343,762.9283,762.9283,765.105,return,0.4153,,18.22916667,,,,,,FBP-RB-19.png,0.35,1.2,56,0.5,,,,,,,,,,,,,0,30,30,55,1,,,,,,,,,,,,,,,,,,,,,,,,,,,,
,,,,,V3_038,26,Male,2024-10-28_13h15.26.479,jersey_experiment_5_v3,2023.2.2,Win32,84.74576271,,,,,,,,,,,,,,,,765.1052,766.399,766.399,768.8815,return,0.459,,10.9375,,,,,,FBP-RB-18.png,0.37,1.2,52,0.5,,,,,,,,,,,,,0,31,31,51,1,,,,,,,,,,,,,,,,,,,,,,,,,,,,
,,,,,V3_038,26,Male,2024-10-28_13h15.26.479,jersey_experiment_5_v3,2023.2.2,Win32,84.74576271,,,,,,,,,,,,,,,,768.8818,770.4347,770.4348,773.517,return,1.2139,,55.078125,,,,,,FBP-OG-18.png,0.4,1.2,38,0.75,,,,,,,,,,,,,0,32,32,37,1,,,,,,,,,,,,,,,,,,,,,,,,,,,,
,,,,,V3_038,26,Male,2024-10-28_13h15.26.479,jersey_experiment_5_v3,2023.2.2,Win32,84.74576271,,,,,,,,,,,,,,,,773.5173,774.8111,774.8112,776.3406,return,0.4318,,34.89583333,,,,,,FBP-RB-19.png,0.37,1.2,57,0.5,,,,,,,,,,,,,0,33,33,56,1,,,,,,,,,,,,,,,,,,,,,,,,,,,,
,,,,,V3_038,26,Male,2024-10-28_13h15.26.479,jersey_experiment_5_v3,2023.2.2,Win32,84.74576271,,,,,,,,,,,,,,,,776.3409,777.6348,777.6348,779.1642,return,0.4389,,25.52083333,,,,,,FBP-RB-17.png,0.37,1.2,47,0.5,,,,,,,,,,,,,0,34,34,46,1,,,,,,,,,,,,,,,,,,,,,,,,,,,,
,,,,,V3_038,26,Male,2024-10-28_13h15.26.479,jersey_experiment_5_v3,2023.2.2,Win32,84.74576271,,,,,,,,,,,,,,,,779.1646,780.4583,780.4583,787.494,return,0.5515,,0.651041667,,,,,,FBP-YG-91.png,0.35,1.2,11,0.5,,,,,,,,,,,,,0,35,35,10,1,,,,,,,,,,,,,,,,,,,,,,,,,,,,
,,,,,V3_038,26,Male,2024-10-28_13h15.26.479,jersey_experiment_5_v3,2023.2.2,Win32,84.74576271,,,,,,,,,,,,,,,,787.4943,788.7881,788.7882,791.8235,return,0.6002,,68.22916667,,,,,,FBP-PT-18.png,0.4,1.2,23,0.5,,,,,,,,,,,,,0,36,36,22,1,,,,,,,,,,,,,,,,,,,,,,,,,,,,
,,,,,V3_038,26,Male,2024-10-28_13h15.26.479,jersey_experiment_5_v3,2023.2.2,Win32,84.74576271,,,,,,,,,,,,,,,,791.8239,793.1177,793.1178,794.5884,return,0.4972,,74.73958333,,,,,,FBP-RB-17.png,0.43,1.2,49,0.5,,,,,,,,,,,,,0,37,37,48,1,,,,,,,,,,,,,,,,,,,,,,,,,,,,
,,,,,V3_038,26,Male,2024-10-28_13h15.26.479,jersey_experiment_5_v3,2023.2.2,Win32,84.74576271,,,,,,,,,,,,,,,,794.5886,795.8826,795.8826,797.4825,return,0.4439,,61.71875,,,,,,FBP-PT-17.png,0.4,1.2,18,0.5,,,,,,,,,,,,,0,38,38,17,1,,,,,,,,,,,,,,,,,,,,,,,,,,,,
,,,,,V3_038,26,Male,2024-10-28_13h15.26.479,jersey_experiment_5_v3,2023.2.2,Win32,84.74576271,,,,,,,,,,,,,,,,797.4828,798.7768,798.7769,801.4356,return,0.3959,,49.609375,,,,,,FBP-PT-19.png,0.35,1.2,26,0.5,,,,,,,,,,,,,0,39,39,25,1,,,,,,,,,,,,,,,,,,,,,,,,,,,,
,,,,,V3_038,26,Male,2024-10-28_13h15.26.479,jersey_experiment_5_v3,2023.2.2,Win32,84.74576271,,,,,,,,,,,,,,,,801.4359,802.7299,802.73,804.0005,return,0.4387,,74.609375,,,,,,FBP-PT-19.png,0.45,1.2,30,0.5,,,,,,,,,,,,,0,40,40,29,1,,,,,,,,,,,,,,,,,,,,,,,,,,,,
,,,,,V3_038,26,Male,2024-10-28_13h15.26.479,jersey_experiment_5_v3,2023.2.2,Win32,84.74576271,,,,,,,,,,,,,,,,804.0007,805.2947,805.2947,806.177,return,0.4814,,74.609375,,,,,,FBP-RB-18.png,0.43,1.2,54,0.5,,,,,,,,,,,,,0,41,41,53,1,,,,,,,,,,,,,,,,,,,,,,,,,,,,
,,,,,V3_038,26,Male,2024-10-28_13h15.26.479,jersey_experiment_5_v3,2023.2.2,Win32,84.74576271,,,,,,,,,,,,,,,,806.1773,807.7303,807.7304,809.7771,return,0.5434,,25.390625,,,,,,FBP-OG-19.png,0.35,1.2,41,0.75,,,,,,,,,,,,,0,42,42,40,1,,,,,,,,,,,,,,,,,,,,,,,,,,,,
,,,,,V3_038,26,Male,2024-10-28_13h15.26.479,jersey_experiment_5_v3,2023.2.2,Win32,84.74576271,,,,,,,,,,,,,,,,809.7773,811.0713,811.0713,813.2361,return,0.6356,,75.26041667,,,,,,FBP-YG-71.png,0.45,1.2,5,0.5,,,,,,,,,,,,,0,43,43,4,1,,,,,,,,,,,,,,,,,,,,,,,,,,,,
,,,,,V3_038,26,Male,2024-10-28_13h15.26.479,jersey_experiment_5_v3,2023.2.2,Win32,84.74576271,,,,,,,,,,,,,,,,813.2363,814.5303,814.5304,815.8596,return,0.4618,,75,,,,,,FBP-RB-19.png,0.43,1.2,59,0.5,,,,,,,,,,,,,0,44,44,58,1,,,,,,,,,,,,,,,,,,,,,,,,,,,,
,,,,,V3_038,26,Male,2024-10-28_13h15.26.479,jersey_experiment_5_v3,2023.2.2,Win32,84.74576271,,,,,,,,,,,,,,,,815.8599,817.1539,817.1539,818.0952,return,0.4975,,75,,,,,,FBP-PT-18.png,0.45,1.2,25,0.5,,,,,,,,,,,,,0,45,45,24,1,,,,,,,,,,,,,,,,,,,,,,,,,,,,
,,,,,V3_038,26,Male,2024-10-28_13h15.26.479,jersey_experiment_5_v3,2023.2.2,Win32,84.74576271,,,,,,,,,,,,,,,,818.0954,819.6481,819.6482,821.8365,return,0.4892,,24.86979167,,,,,,FBP-OG-18.png,0.37,1.2,37,0.75,,,,,,,,,,,,,0,46,46,36,1,,,,,,,,,,,,,,,,,,,,,,,,,,,,
,,,,,V3_038,26,Male,2024-10-28_13h15.26.479,jersey_experiment_5_v3,2023.2.2,Win32,84.74576271,,,,,,,,,,,,,,,,821.8367,823.3893,823.3893,824.1896,return,0.3705,,24.86979167,,,,,,FBP-OG-19.png,0.37,1.2,42,0.75,,,,,,,,,,,,,0,47,47,41,1,,,,,,,,,,,,,,,,,,,,,,,,,,,,
,,,,,V3_038,26,Male,2024-10-28_13h15.26.479,jersey_experiment_5_v3,2023.2.2,Win32,84.74576271,,,,,,,,,,,,,,,,824.1899,825.4836,825.4837,827.4132,return,0.4263,,24.86979167,,,,,,FBP-YG-81.png,0.4,1.2,8,0.5,,,,,,,,,,,,,0,48,48,7,1,,,,,,,,,,,,,,,,,,,,,,,,,,,,
,,,,,V3_038,26,Male,2024-10-28_13h15.26.479,jersey_experiment_5_v3,2023.2.2,Win32,84.74576271,,,,,,,,,,,,,,,,827.4134,828.9661,828.9662,831.1192,return,0.7672,,74.609375,,,,,,FBP-OG-18.png,0.45,1.2,40,0.75,,,,,,,,,,,,,0,49,49,39,1,,,,,,,,,,,,,,,,,,,,,,,,,,,,
,,,,,V3_038,26,Male,2024-10-28_13h15.26.479,jersey_experiment_5_v3,2023.2.2,Win32,84.74576271,,,,,,,,,,,,,,,,831.1193,832.4134,832.4134,834.531,return,0.4557,,25.13020833,,,,,,FBP-PT-19.png,0.37,1.2,27,0.5,,,,,,,,,,,,,0,50,50,26,1,,,,,,,,,,,,,,,,,,,,,,,,,,,,
,,,,,V3_038,26,Male,2024-10-28_13h15.26.479,jersey_experiment_5_v3,2023.2.2,Win32,84.74576271,,,,,,,,,,,,,,,,834.5313,835.8251,835.8251,836.8605,return,0.4147,,25.13020833,,,,,,FBP-YG-91.png,0.37,1.2,12,0.5,,,,,,,,,,,,,0,51,51,11,1,,,,,,,,,,,,,,,,,,,,,,,,,,,,
,,,,,V3_038,26,Male,2024-10-28_13h15.26.479,jersey_experiment_5_v3,2023.2.2,Win32,84.74576271,,,,,,,,,,,,,,,,836.8608,838.4135,838.4135,839.5312,return,0.5946,,25.26041667,,,,,,FBP-OG-17.png,0.37,1.2,32,0.75,,,,,,,,,,,,,0,52,52,31,1,,,,,,,,,,,,,,,,,,,,,,,,,,,,
,,,,,V3_038,26,Male,2024-10-28_13h15.26.479,jersey_experiment_5_v3,2023.2.2,Win32,84.74576271,,,,,,,,,,,,,,,,839.5313,840.8254,840.8255,841.8608,return,0.3902,,25.26041667,,,,,,FBP-YG-81.png,0.37,1.2,7,0.5,,,,,,,,,,,,,0,53,53,6,1,,,,,,,,,,,,,,,,,,,,,,,,,,,,
,,,,,V3_038,26,Male,2024-10-28_13h15.26.479,jersey_experiment_5_v3,2023.2.2,Win32,84.74576271,,,,,,,,,,,,,,,,841.861,843.1549,843.1549,845.4726,return,0.7086,,75,,,,,,FBP-RB-18.png,0.45,1.2,55,0.5,,,,,,,,,,,,,0,54,54,54,1,,,,,,,,,,,,,,,,,,,,,,,,,,,,
,,,,,V3_038,26,Male,2024-10-28_13h15.26.479,jersey_experiment_5_v3,2023.2.2,Win32,84.74576271,,,,,,,,,,,,,,,,845.4728,846.7668,846.7668,848.7785,return,0.7499,,24.34895833,,,,,,FBP-YG-81.png,0.35,1.2,6,0.5,,,,,,,,,,,,,0,55,55,5,1,,,,,,,,,,,,,,,,,,,,,,,,,,,,
,,,,,V3_038,26,Male,2024-10-28_13h15.26.479,jersey_experiment_5_v3,2023.2.2,Win32,84.74576271,,,,,,,,,,,,,,,,848.7788,850.3316,850.3316,851.414,return,0.802,,24.47916667,,,,,,FBP-OG-18.png,0.35,1.2,36,0.75,,,,,,,,,,,,,0,56,56,35,1,,,,,,,,,,,,,,,,,,,,,,,,,,,,
,,,,,V3_038,26,Male,2024-10-28_13h15.26.479,jersey_experiment_5_v3,2023.2.2,Win32,84.74576271,,,,,,,,,,,,,,,,851.4143,852.7082,852.7083,855.7906,return,0.4634,,49.86979167,,,,,,FBP-RB-19.png,0.4,1.2,58,0.5,,,,,,,,,,,,,0,57,57,57,1,,,,,,,,,,,,,,,,,,,,,,,,,,,,
,,,,,V3_038,26,Male,2024-10-28_13h15.26.479,jersey_experiment_5_v3,2023.2.2,Win32,84.74576271,,,,,,,,,,,,,,,,855.7908,857.0847,857.0847,860.7202,return,0.5544,,0.260416667,,,,,,FBP-PT-18.png,0.35,1.2,21,0.5,,,,,,,,,,,,,0,58,58,20,1,,,,,,,,,,,,,,,,,,,,,,,,,,,,
,,,,,V3_038,26,Male,2024-10-28_13h15.26.479,jersey_experiment_5_v3,2023.2.2,Win32,84.74576271,,,,,,,,,,,,,,,,860.7204,862.0144,862.0145,862.8615,return,0.4999,,0.260416667,,,,,,FBP-YG-71.png,0.37,1.2,2,0.5,,,,,,,,,,,,,0,59,59,1,1,,,,,,,,,,,,,,,,,,,,,,,,,,,,
,,,,,V3_038,26,Male,2024-10-28_13h15.26.479,jersey_experiment_5_v3,2023.2.2,Win32,84.74576271,,,,,,,,,,,,,,,,862.8628,864.4145,864.4145,866.8617,return,0.7662,,60.80729167,,,,,,FBP-OG-71.png,0.43,1.2,34,0.75,,,,,,,,,,,,,,,,,,0,0,0,33,1,,,,,,,,,,,,,,,,,,,,,,,
,,,,,V3_038,26,Male,2024-10-28_13h15.26.479,jersey_experiment_5_v3,2023.2.2,Win32,84.74576271,,,,,,,,,,,,,,,,866.862,868.1558,868.1558,870.156,return,0.7839,,25.26041667,,,,,,FBP-RB-81.png,0.35,1.2,51,0.5,,,,,,,,,,,,,,,,,,0,1,1,50,1,,,,,,,,,,,,,,,,,,,,,,,
,,,,,V3_038,26,Male,2024-10-28_13h15.26.479,jersey_experiment_5_v3,2023.2.2,Win32,84.74576271,,,,,,,,,,,,,,,,870.1562,871.45,871.45,873.909,return,0.5658,,99.73958333,,,,,,FBP-RB-91.png,0.45,1.2,60,0.5,,,,,,,,,,,,,,,,,,0,2,2,59,1,,,,,,,,,,,,,,,,,,,,,,,
,,,,,V3_038,26,Male,2024-10-28_13h15.26.479,jersey_experiment_5_v3,2023.2.2,Win32,84.74576271,,,,,,,,,,,,,,,,873.9093,875.2031,875.2032,877.0856,return,0.4958,,0.260416667,,,,,,FBP-YG-17.png,0.35,1.2,1,0.5,,,,,,,,,,,,,,,,,,0,3,3,0,1,,,,,,,,,,,,,,,,,,,,,,,
,,,,,V3_038,26,Male,2024-10-28_13h15.26.479,jersey_experiment_5_v3,2023.2.2,Win32,84.74576271,,,,,,,,,,,,,,,,877.0859,878.3797,878.3799,879.9092,return,0.4001,,75.390625,,,,,,FBP-PT-71.png,0.43,1.2,19,0.5,,,,,,,,,,,,,,,,,,0,4,4,18,1,,,,,,,,,,,,,,,,,,,,,,,
,,,,,V3_038,26,Male,2024-10-28_13h15.26.479,jersey_experiment_5_v3,2023.2.2,Win32,84.74576271,,,,,,,,,,,,,,,,879.9095,881.2033,881.2034,882.2505,return,0.3699,,75.390625,,,,,,FBP-RB-91.png,0.4,1.2,58,0.5,,,,,,,,,,,,,,,,,,0,5,5,57,1,,,,,,,,,,,,,,,,,,,,,,,
,,,,,V3_038,26,Male,2024-10-28_13h15.26.479,jersey_experiment_5_v3,2023.2.2,Win32,84.74576271,,,,,,,,,,,,,,,,882.2508,883.8035,883.8035,885.474,return,0.6599,,99.609375,,,,,,FBP-OG-91.png,0.45,1.2,45,0.75,,,,,,,,,,,,,,,,,,0,6,6,44,1,,,,,,,,,,,,,,,,,,,,,,,
,,,,,V3_038,26,Male,2024-10-28_13h15.26.479,jersey_experiment_5_v3,2023.2.2,Win32,84.74576271,,,,,,,,,,,,,,,,885.4743,886.7682,886.7683,887.8036,return,0.4412,,99.73958333,,,,,,FBP-PT-71.png,0.4,1.2,18,0.5,,,,,,,,,,,,,,,,,,0,7,7,17,1,,,,,,,,,,,,,,,,,,,,,,,
,,,,,V3_038,26,Male,2024-10-28_13h15.26.479,jersey_experiment_5_v3,2023.2.2,Win32,84.74576271,,,,,,,,,,,,,,,,887.8039,889.0978,889.0978,891.2978,return,0.6608,,87.76041667,,,,,,FBP-YG-18.png,0.37,1.2,7,0.5,,,,,,,,,,,,,,,,,,0,8,8,6,1,,,,,,,,,,,,,,,,,,,,,,,
,,,,,V3_038,26,Male,2024-10-28_13h15.26.479,jersey_experiment_5_v3,2023.2.2,Win32,84.74576271,,,,,,,,,,,,,,,,891.2981,892.592,892.5921,894.2509,return,0.5364,,99.21875,,,,,,FBP-YG-19.png,0.4,1.2,13,0.5,,,,,,,,,,,,,,,,,,0,9,9,12,1,,,,,,,,,,,,,,,,,,,,,,,
,,,,,V3_038,26,Male,2024-10-28_13h15.26.479,jersey_experiment_5_v3,2023.2.2,Win32,84.74576271,,,,,,,,,,,,,,,,894.2511,895.5451,895.5452,896.604,return,0.4308,,99.86979167,,,,,,FBP-PT-91.png,0.45,1.2,30,0.5,,,,,,,,,,,,,,,,,,0,10,10,29,1,,,,,,,,,,,,,,,,,,,,,,,
,,,,,V3_038,26,Male,2024-10-28_13h15.26.479,jersey_experiment_5_v3,2023.2.2,Win32,84.74576271,,,,,,,,,,,,,,,,896.6042,898.1571,898.1571,899.6746,return,0.3968,,75.52083333,,,,,,FBP-OG-71.png,0.37,1.2,32,0.75,,,,,,,,,,,,,,,,,,0,11,11,31,1,,,,,,,,,,,,,,,,,,,,,,,
,,,,,V3_038,26,Male,2024-10-28_13h15.26.479,jersey_experiment_5_v3,2023.2.2,Win32,84.74576271,,,,,,,,,,,,,,,,899.6748,900.9689,900.9689,903.3806,return,0.5418,,99.34895833,,,,,,FBP-RB-71.png,0.43,1.2,49,0.5,,,,,,,,,,,,,,,,,,0,12,12,48,1,,,,,,,,,,,,,,,,,,,,,,,
,,,,,V3_038,26,Male,2024-10-28_13h15.26.479,jersey_experiment_5_v3,2023.2.2,Win32,84.74576271,,,,,,,,,,,,,,,,903.3808,904.6747,904.6747,905.9337,return,0.4753,,99.73958333,,,,,,FBP-RB-71.png,0.45,1.2,50,0.5,,,,,,,,,,,,,,,,,,0,13,13,49,1,,,,,,,,,,,,,,,,,,,,,,,
,,,,,V3_038,26,Male,2024-10-28_13h15.26.479,jersey_experiment_5_v3,2023.2.2,Win32,84.74576271,,,,,,,,,,,,,,,,905.934,907.2278,907.2278,908.275,return,0.424,,99.86979167,,,,,,FBP-YG-19.png,0.45,1.2,15,0.5,,,,,,,,,,,,,,,,,,0,14,14,14,1,,,,,,,,,,,,,,,,,,,,,,,
,,,,,V3_038,26,Male,2024-10-28_13h15.26.479,jersey_experiment_5_v3,2023.2.2,Win32,84.74576271,,,,,,,,,,,,,,,,908.2752,909.569,909.569,911.4868,return,0.4161,,75.13020833,,,,,,FBP-YG-19.png,0.37,1.2,12,0.5,,,,,,,,,,,,,,,,,,0,15,15,11,1,,,,,,,,,,,,,,,,,,,,,,,
,,,,,V3_038,26,Male,2024-10-28_13h15.26.479,jersey_experiment_5_v3,2023.2.2,Win32,84.74576271,,,,,,,,,,,,,,,,911.4871,912.781,912.781,914.828,return,0.523,,99.08854167,,,,,,FBP-PT-71.png,0.45,1.2,20,0.5,,,,,,,,,,,,,,,,,,0,16,16,19,1,,,,,,,,,,,,,,,,,,,,,,,
,,,,,V3_038,26,Male,2024-10-28_13h15.26.479,jersey_experiment_5_v3,2023.2.2,Win32,84.74576271,,,,,,,,,,,,,,,,914.8283,916.1223,916.1223,920.099,return,0.7071,,75,,,,,,FBP-PT-81.png,0.4,1.2,23,0.5,,,,,,,,,,,,,,,,,,0,17,17,22,1,,,,,,,,,,,,,,,,,,,,,,,
,,,,,V3_038,26,Male,2024-10-28_13h15.26.479,jersey_experiment_5_v3,2023.2.2,Win32,84.74576271,,,,,,,,,,,,,,,,920.0993,921.393,921.3931,923.2637,return,0.78,,99.47916667,,,,,,FBP-PT-81.png,0.45,1.2,25,0.5,,,,,,,,,,,,,,,,,,0,18,18,24,1,,,,,,,,,,,,,,,,,,,,,,,
,,,,,V3_038,26,Male,2024-10-28_13h15.26.479,jersey_experiment_5_v3,2023.2.2,Win32,84.74576271,,,,,,,,,,,,,,,,923.264,924.8167,924.8167,926.4168,return,0.5303,,75.52083333,,,,,,FBP-OG-71.png,0.4,1.2,33,0.75,,,,,,,,,,,,,,,,,,0,19,19,32,1,,,,,,,,,,,,,,,,,,,,,,,
,,,,,V3_038,26,Male,2024-10-28_13h15.26.479,jersey_experiment_5_v3,2023.2.2,Win32,84.74576271,,,,,,,,,,,,,,,,926.4171,927.7109,927.7109,929.2758,return,0.406,,78.125,,,,,,FBP-PT-91.png,0.43,1.2,29,0.5,,,,,,,,,,,,,,,,,,0,20,20,28,1,,,,,,,,,,,,,,,,,,,,,,,
,,,,,V3_038,26,Male,2024-10-28_13h15.26.479,jersey_experiment_5_v3,2023.2.2,Win32,84.74576271,,,,,,,,,,,,,,,,929.276,930.8289,930.829,932.37,return,0.519,,99.47916667,,,,,,FBP-OG-81.png,0.45,1.2,40,0.75,,,,,,,,,,,,,,,,,,0,21,21,39,1,,,,,,,,,,,,,,,,,,,,,,,
,,,,,V3_038,26,Male,2024-10-28_13h15.26.479,jersey_experiment_5_v3,2023.2.2,Win32,84.74576271,,,,,,,,,,,,,,,,932.3702,933.6642,933.6643,934.7464,return,0.6284,,99.47916667,,,,,,FBP-YG-19.png,0.43,1.2,14,0.5,,,,,,,,,,,,,,,,,,0,22,22,13,1,,,,,,,,,,,,,,,,,,,,,,,
,,,,,V3_038,26,Male,2024-10-28_13h15.26.479,jersey_experiment_5_v3,2023.2.2,Win32,84.74576271,,,,,,,,,,,,,,,,934.7468,936.0407,936.0408,936.8525,return,0.4851,,99.34895833,,,,,,FBP-YG-17.png,0.45,1.2,5,0.5,,,,,,,,,,,,,,,,,,0,23,23,4,1,,,,,,,,,,,,,,,,,,,,,,,
,,,,,V3_038,26,Male,2024-10-28_13h15.26.479,jersey_experiment_5_v3,2023.2.2,Win32,84.74576271,,,,,,,,,,,,,,,,936.8528,938.1467,938.1467,940.2761,return,0.4241,,73.30729167,,,,,,FBP-PT-71.png,0.37,1.2,17,0.5,,,,,,,,,,,,,,,,,,0,24,24,16,1,,,,,,,,,,,,,,,,,,,,,,,
,,,,,V3_038,26,Male,2024-10-28_13h15.26.479,jersey_experiment_5_v3,2023.2.2,Win32,84.74576271,,,,,,,,,,,,,,,,940.2765,941.8291,941.8291,942.9939,return,0.4221,,75.390625,,,,,,FBP-OG-81.png,0.43,1.2,39,0.75,,,,,,,,,,,,,,,,,,0,25,25,38,1,,,,,,,,,,,,,,,,,,,,,,,
,,,,,V3_038,26,Male,2024-10-28_13h15.26.479,jersey_experiment_5_v3,2023.2.2,Win32,84.74576271,,,,,,,,,,,,,,,,942.9941,944.2882,944.2882,946.0999,return,0.4002,,65.625,,,,,,FBP-PT-91.png,0.37,1.2,27,0.5,,,,,,,,,,,,,,,,,,0,26,26,26,1,,,,,,,,,,,,,,,,,,,,,,,
,,,,,V3_038,26,Male,2024-10-28_13h15.26.479,jersey_experiment_5_v3,2023.2.2,Win32,84.74576271,,,,,,,,,,,,,,,,946.1001,947.6532,947.6532,949.1706,return,0.4475,,89.58333333,,,,,,FBP-OG-71.png,0.45,1.2,35,0.75,,,,,,,,,,,,,,,,,,0,27,27,34,1,,,,,,,,,,,,,,,,,,,,,,,
,,,,,V3_038,26,Male,2024-10-28_13h15.26.479,jersey_experiment_5_v3,2023.2.2,Win32,84.74576271,,,,,,,,,,,,,,,,949.1709,950.4647,950.4647,952.1589,return,0.4045,,70.83333333,,,,,,FBP-RB-71.png,0.35,1.2,46,0.5,,,,,,,,,,,,,,,,,,0,28,28,45,1,,,,,,,,,,,,,,,,,,,,,,,
,,,,,V3_038,26,Male,2024-10-28_13h15.26.479,jersey_experiment_5_v3,2023.2.2,Win32,84.74576271,,,,,,,,,,,,,,,,952.1592,953.7119,953.712,954.6414,return,0.4136,,68.88020833,,,,,,FBP-OG-81.png,0.37,1.2,37,0.75,,,,,,,,,,,,,,,,,,0,29,29,36,1,,,,,,,,,,,,,,,,,,,,,,,
,,,,,V3_038,26,Male,2024-10-28_13h15.26.479,jersey_experiment_5_v3,2023.2.2,Win32,84.74576271,,,,,,,,,,,,,,,,954.6416,955.9356,955.9356,958.5121,return,0.3904,,89.84375,,,,,,FBP-YG-18.png,0.45,1.2,10,0.5,,,,,,,,,,,,,,,,,,0,30,30,9,1,,,,,,,,,,,,,,,,,,,,,,,
,,,,,V3_038,26,Male,2024-10-28_13h15.26.479,jersey_experiment_5_v3,2023.2.2,Win32,84.74576271,,,,,,,,,,,,,,,,958.5123,959.8063,959.8064,962.124,return,0.6307,,71.35416667,,,,,,FBP-YG-17.png,0.37,1.2,2,0.5,,,,,,,,,,,,,,,,,,0,31,31,1,1,,,,,,,,,,,,,,,,,,,,,,,
,,,,,V3_038,26,Male,2024-10-28_13h15.26.479,jersey_experiment_5_v3,2023.2.2,Win32,84.74576271,,,,,,,,,,,,,,,,962.1243,963.418,963.4181,964.736,return,0.3786,,67.1875,,,,,,FBP-PT-81.png,0.35,1.2,21,0.5,,,,,,,,,,,,,,,,,,0,32,32,20,1,,,,,,,,,,,,,,,,,,,,,,,
,,,,,V3_038,26,Male,2024-10-28_13h15.26.479,jersey_experiment_5_v3,2023.2.2,Win32,84.74576271,,,,,,,,,,,,,,,,964.7361,966.0299,966.03,967.5243,return,0.4079,,74.34895833,,,,,,FBP-RB-81.png,0.43,1.2,54,0.5,,,,,,,,,,,,,,,,,,0,33,33,53,1,,,,,,,,,,,,,,,,,,,,,,,
,,,,,V3_038,26,Male,2024-10-28_13h15.26.479,jersey_experiment_5_v3,2023.2.2,Win32,84.74576271,,,,,,,,,,,,,,,,967.5244,969.0772,969.0772,969.7714,return,0.5711,,74.34895833,,,,,,FBP-OG-81.png,0.4,1.2,38,0.75,,,,,,,,,,,,,,,,,,0,34,34,37,1,,,,,,,,,,,,,,,,,,,,,,,
,,,,,V3_038,26,Male,2024-10-28_13h15.26.479,jersey_experiment_5_v3,2023.2.2,Win32,84.74576271,,,,,,,,,,,,,,,,969.7716,971.0655,971.0656,972.8303,return,0.3698,,37.109375,,,,,,FBP-YG-18.png,0.35,1.2,6,0.5,,,,,,,,,,,,,,,,,,0,35,35,5,1,,,,,,,,,,,,,,,,,,,,,,,
,,,,,V3_038,26,Male,2024-10-28_13h15.26.479,jersey_experiment_5_v3,2023.2.2,Win32,84.74576271,,,,,,,,,,,,,,,,972.8305,974.1244,974.1244,975.5364,return,0.3554,,30.20833333,,,,,,FBP-PT-91.png,0.35,1.2,26,0.5,,,,,,,,,,,,,,,,,,0,36,36,25,1,,,,,,,,,,,,,,,,,,,,,,,
,,,,,V3_038,26,Male,2024-10-28_13h15.26.479,jersey_experiment_5_v3,2023.2.2,Win32,84.74576271,,,,,,,,,,,,,,,,975.5366,976.8304,976.8305,978.8658,return,0.3073,,50,,,,,,FBP-YG-17.png,0.4,1.2,3,0.5,,,,,,,,,,,,,,,,,,0,37,37,2,1,,,,,,,,,,,,,,,,,,,,,,,
,,,,,V3_038,26,Male,2024-10-28_13h15.26.479,jersey_experiment_5_v3,2023.2.2,Win32,84.74576271,,,,,,,,,,,,,,,,978.866,980.16,980.16,981.2423,return,0.3383,,50,,,,,,FBP-RB-91.png,0.43,1.2,59,0.5,,,,,,,,,,,,,,,,,,0,38,38,58,1,,,,,,,,,,,,,,,,,,,,,,,
,,,,,V3_038,26,Male,2024-10-28_13h15.26.479,jersey_experiment_5_v3,2023.2.2,Win32,84.74576271,,,,,,,,,,,,,,,,981.2425,982.5365,982.5366,984.0426,return,0.3491,,24.47916667,,,,,,FBP-PT-71.png,0.35,1.2,16,0.5,,,,,,,,,,,,,,,,,,0,39,39,15,1,,,,,,,,,,,,,,,,,,,,,,,
,,,,,V3_038,26,Male,2024-10-28_13h15.26.479,jersey_experiment_5_v3,2023.2.2,Win32,84.74576271,,,,,,,,,,,,,,,,984.0427,985.3366,985.3366,987.5367,return,0.3993,,50.26041667,,,,,,FBP-PT-81.png,0.43,1.2,24,0.5,,,,,,,,,,,,,,,,,,0,40,40,23,1,,,,,,,,,,,,,,,,,,,,,,,
,,,,,V3_038,26,Male,2024-10-28_13h15.26.479,jersey_experiment_5_v3,2023.2.2,Win32,84.74576271,,,,,,,,,,,,,,,,987.537,988.8309,988.831,990.478,return,0.3695,,25.26041667,,,,,,FBP-PT-81.png,0.37,1.2,22,0.5,,,,,,,,,,,,,,,,,,0,41,41,21,1,,,,,,,,,,,,,,,,,,,,,,,
,,,,,V3_038,26,Male,2024-10-28_13h15.26.479,jersey_experiment_5_v3,2023.2.2,Win32,84.74576271,,,,,,,,,,,,,,,,990.4782,991.7722,991.7722,993.2662,return,0.4244,,49.86979167,,,,,,FBP-YG-18.png,0.43,1.2,9,0.5,,,,,,,,,,,,,,,,,,0,42,42,8,1,,,,,,,,,,,,,,,,,,,,,,,
,,,,,V3_038,26,Male,2024-10-28_13h15.26.479,jersey_experiment_5_v3,2023.2.2,Win32,84.74576271,,,,,,,,,,,,,,,,993.2665,994.8195,994.8196,996.6664,return,0.397,,15.88541667,,,,,,FBP-OG-71.png,0.35,1.2,31,0.75,,,,,,,,,,,,,,,,,,0,43,43,30,1,,,,,,,,,,,,,,,,,,,,,,,
,,,,,V3_038,26,Male,2024-10-28_13h15.26.479,jersey_experiment_5_v3,2023.2.2,Win32,84.74576271,,,,,,,,,,,,,,,,996.6667,997.9606,997.9607,999.5843,return,0.424,,49.73958333,,,,,,FBP-YG-17.png,0.43,1.2,4,0.5,,,,,,,,,,,,,,,,,,0,44,44,3,1,,,,,,,,,,,,,,,,,,,,,,,
,,,,,V3_038,26,Male,2024-10-28_13h15.26.479,jersey_experiment_5_v3,2023.2.2,Win32,84.74576271,,,,,,,,,,,,,,,,999.5845,1000.8784,1000.8785,1001.8078,return,0.3801,,49.73958333,,,,,,FBP-RB-71.png,0.4,1.2,48,0.5,,,,,,,,,,,,,,,,,,0,45,45,47,1,,,,,,,,,,,,,,,,,,,,,,,
,,,,,V3_038,26,Male,2024-10-28_13h15.26.479,jersey_experiment_5_v3,2023.2.2,Win32,84.74576271,,,,,,,,,,,,,,,,1001.8081,1003.1019,1003.102,1004.0434,return,0.3382,,49.73958333,,,,,,FBP-RB-71.png,0.37,1.2,47,0.5,,,,,,,,,,,,,,,,,,0,46,46,46,1,,,,,,,,,,,,,,,,,,,,,,,
,,,,,V3_038,26,Male,2024-10-28_13h15.26.479,jersey_experiment_5_v3,2023.2.2,Win32,84.74576271,,,,,,,,,,,,,,,,1004.0436,1005.5962,1005.5962,1008.8434,return,0.3944,,49.86979167,,,,,,FBP-OG-91.png,0.35,1.2,41,0.75,,,,,,,,,,,,,,,,,,0,47,47,40,1,,,,,,,,,,,,,,,,,,,,,,,
,,,,,V3_038,26,Male,2024-10-28_13h15.26.479,jersey_experiment_5_v3,2023.2.2,Win32,84.74576271,,,,,,,,,,,,,,,,1008.8437,1010.1376,1010.1376,1010.8904,return,0.4321,,49.86979167,,,,,,FBP-YG-18.png,0.4,1.2,8,0.5,,,,,,,,,,,,,,,,,,0,48,48,7,1,,,,,,,,,,,,,,,,,,,,,,,
,,,,,V3_038,26,Male,2024-10-28_13h15.26.479,jersey_experiment_5_v3,2023.2.2,Win32,84.74576271,,,,,,,,,,,,,,,,1010.8907,1012.1847,1012.1847,1013.9495,return,0.3589,,74.73958333,,,,,,FBP-RB-81.png,0.45,1.2,55,0.5,,,,,,,,,,,,,,,,,,0,49,49,54,1,,,,,,,,,,,,,,,,,,,,,,,
,,,,,V3_038,26,Male,2024-10-28_13h15.26.479,jersey_experiment_5_v3,2023.2.2,Win32,84.74576271,,,,,,,,,,,,,,,,1013.9497,1015.5025,1015.5025,1017.3261,return,0.4406,,25.91145833,,,,,,FBP-OG-91.png,0.37,1.2,42,0.75,,,,,,,,,,,,,,,,,,0,50,50,41,1,,,,,,,,,,,,,,,,,,,,,,,
,,,,,V3_038,26,Male,2024-10-28_13h15.26.479,jersey_experiment_5_v3,2023.2.2,Win32,84.74576271,,,,,,,,,,,,,,,,1017.3263,1018.6201,1018.6201,1019.491,return,0.4371,,25.91145833,,,,,,FBP-YG-19.png,0.35,1.2,11,0.5,,,,,,,,,,,,,,,,,,0,51,51,10,1,,,,,,,,,,,,,,,,,,,,,,,
,,,,,V3_038,26,Male,2024-10-28_13h15.26.479,jersey_experiment_5_v3,2023.2.2,Win32,84.74576271,,,,,,,,,,,,,,,,1019.4912,1021.0439,1021.0439,1022.644,return,0.4127,,25.390625,,,,,,FBP-OG-81.png,0.35,1.2,36,0.75,,,,,,,,,,,,,,,,,,0,52,52,35,1,,,,,,,,,,,,,,,,,,,,,,,
,,,,,V3_038,26,Male,2024-10-28_13h15.26.479,jersey_experiment_5_v3,2023.2.2,Win32,84.74576271,,,,,,,,,,,,,,,,1022.6442,1023.938,1023.9382,1024.8204,return,0.3755,,25.390625,,,,,,FBP-RB-81.png,0.37,1.2,52,0.5,,,,,,,,,,,,,,,,,,0,53,53,51,1,,,,,,,,,,,,,,,,,,,,,,,
,,,,,V3_038,26,Male,2024-10-28_13h15.26.479,jersey_experiment_5_v3,2023.2.2,Win32,84.74576271,,,,,,,,,,,,,,,,1024.8207,1026.3735,1026.3736,1028.7501,return,0.4838,,71.74479167,,,,,,FBP-OG-91.png,0.43,1.2,44,0.75,,,,,,,,,,,,,,,,,,0,54,54,43,1,,,,,,,,,,,,,,,,,,,,,,,
,,,,,V3_038,26,Male,2024-10-28_13h15.26.479,jersey_experiment_5_v3,2023.2.2,Win32,84.74576271,,,,,,,,,,,,,,,,1028.7502,1030.0441,1030.0442,1031.9383,return,0.4019,,25.52083333,,,,,,FBP-RB-91.png,0.35,1.2,56,0.5,,,,,,,,,,,,,,,,,,0,55,55,55,1,,,,,,,,,,,,,,,,,,,,,,,
,,,,,V3_038,26,Male,2024-10-28_13h15.26.479,jersey_experiment_5_v3,2023.2.2,Win32,84.74576271,,,,,,,,,,,,,,,,1031.9386,1033.2326,1033.2326,1035.1149,return,0.4285,,66.66666667,,,,,,FBP-PT-91.png,0.4,1.2,28,0.5,,,,,,,,,,,,,,,,,,0,56,56,27,1,,,,,,,,,,,,,,,,,,,,,,,
,,,,,V3_038,26,Male,2024-10-28_13h15.26.479,jersey_experiment_5_v3,2023.2.2,Win32,84.74576271,,,,,,,,,,,,,,,,1035.1152,1036.6682,1036.6682,1037.6797,return,0.332,,69.01041667,,,,,,FBP-OG-91.png,0.4,1.2,43,0.75,,,,,,,,,,,,,,,,,,0,57,57,42,1,,,,,,,,,,,,,,,,,,,,,,,
,,,,,V3_038,26,Male,2024-10-28_13h15.26.479,jersey_experiment_5_v3,2023.2.2,Win32,84.74576271,,,,,,,,,,,,,,,,1037.68,1038.9738,1038.9739,1040.2916,return,0.3055,,69.01041667,,,,,,FBP-RB-81.png,0.4,1.2,53,0.5,,,,,,,,,,,,,,,,,,0,58,58,52,1,,,,,,,,,,,,,,,,,,,,,,,
,,,,,V3_038,26,Male,2024-10-28_13h15.26.479,jersey_experiment_5_v3,2023.2.2,Win32,84.74576271,,,,,,,,,,,,,,,,1040.2919,1041.5858,1041.5859,1044.5978,return,0.3455,,49.86979167,,,,,,FBP-RB-91.png,0.37,1.2,57,0.5,,,,,,,,,,,,,,,,,,0,59,59,56,1,,,,,,,,,,,,,,,,,,,,,,,
,,,,,V3_038,26,Male,2024-10-28_13h15.26.479,jersey_experiment_5_v3,2023.2.2,Win32,84.74576271,,,,,,,,,,,,,,,,,,,,,,,,,,,,,,,,,,,,,,,,,,,,,,,,,,,,,,,,1044.598,1049.5626,return,4.9606,,,,,,,,,,,,,,,,,,,
,,,,,V3_038,26,Male,2024-10-28_13h15.26.479,jersey_experiment_5_v3,2023.2.2,Win32,84.74576271,,,,,,,,,,,,,,,,,,,,,,,,,,,,,,,,,,,,,,,,,,,,,,,,,,,,,,,,,,,,,1049.5627,1055.7982,1,3.7834,return,2.4386,,,,,,,,,,,,
,,,,,V3_038,26,Male,2024-10-28_13h15.26.479,jersey_experiment_5_v3,2023.2.2,Win32,84.74576271,,,,,,,,,,,,,,,,,,,,,,,,,,,,,,,,,,,,,,,,,,,,,,,,,,,,,,,,,,,,,,,,,,,,1055.7983,1167.0265,Yes. I recognize patterns with the players having the same alternating uniform colors and having both variants of colors show up as all types of slender body types. The study is about determining how the mind perceives the human body through visual stimuli.,right,102.322,,,,,,
,,,,,V3_038,26,Male,2024-10-28_13h15.26.479,jersey_experiment_5_v3,2023.2.2,Win32,84.74576271,,,,,,,,,,,,,,,,,,,,,,,,,,,,,,,,,,,,,,,,,,,,,,,,,,,,,,,,,,,,,,,,,,,,,,,,,,1167.0265,1171.2142,return,4.1803,