requirements.started,requirements.stopped,key_resp_3.keys,key_resp_3.rt,key_resp_3.duration,Subject ID,Age,Gender,date,expName,psychopyVersion,OS,frameRate,instructions1.started,instructions1.stopped,key_resp.keys,key_resp.rt,key_resp.duration,example.started,example.stopped,enter_2.keys,enter_2.rt,enter_2.duration,instructions2.started,instructions2.stopped,enter_3.keys,enter_3.rt,enter_3.duration,image.started,image.stopped,slider_2.started,slider_2.stopped,next.keys,next.rt,next.duration,slider.response,trial_block_1.thisRepN,trial_block_1.thisTrialN,trial_block_1.thisN,trial_block_1.thisIndex,trial_block_1.ran,Path,Width,Height,Index,Duration,trial_block_2.thisRepN,trial_block_2.thisTrialN,trial_block_2.thisN,trial_block_2.thisIndex,trial_block_2.ran,rest_break.started,rest_break.stopped,end_break.started,end_break.stopped,key_resp_5.keys,key_resp_5.rt,key_resp_5.duration,trial_block_3.thisRepN,trial_block_3.thisTrialN,trial_block_3.thisN,trial_block_3.thisIndex,trial_block_3.ran,trial_block_4.thisRepN,trial_block_4.thisTrialN,trial_block_4.thisN,trial_block_4.thisIndex,trial_block_4.ran,questions_intro.started,questions_intro.stopped,enter_12.keys,enter_12.rt,enter_12.duration,question2.started,question2.stopped,question_doingbest.response,question_doingbest.rt,enter_15.keys,enter_15.rt,enter_15.duration,pattern.started,pattern.stopped,pattern_2.text,enter_17.keys,enter_17.rt,enter_17.duration,thankyou.started,thankyou.stopped,enter_14.keys,enter_14.rt,enter_14.duration
0.0001,17.9182,return,17.9149,,V3_009,21,Female,2024-10-15_14h56.19.788,jersey_experiment_5_v3,2023.2.2,Win32,85.47008547,,,,,,,,,,,,,,,,,,,,,,,,,,,,,,,,,,,,,,,,,,,,,,,,,,,,,,,,,,,,,,,,,,,,,,,,,,,,,,
,,,,,V3_009,21,Female,2024-10-15_14h56.19.788,jersey_experiment_5_v3,2023.2.2,Win32,85.47008547,17.9182,23.8774,return,5.9447,,,,,,,,,,,,,,,,,,,,,,,,,,,,,,,,,,,,,,,,,,,,,,,,,,,,,,,,,,,,,,,,,,,,,,,,,,
,,,,,V3_009,21,Female,2024-10-15_14h56.19.788,jersey_experiment_5_v3,2023.2.2,Win32,85.47008547,,,,,,23.8775,28.9836,return,5.0643,,,,,,,,,,,,,,,,,,,,,,,,,,,,,,,,,,,,,,,,,,,,,,,,,,,,,,,,,,,,,,,,,,,,,
,,,,,V3_009,21,Female,2024-10-15_14h56.19.788,jersey_experiment_5_v3,2023.2.2,Win32,85.47008547,,,,,,,,,,,28.9837,42.1602,return,13.1581,,,,,,,,,,,,,,,,,,,,,,,,,,,,,,,,,,,,,,,,,,,,,,,,,,,,,,,,,,,,,,,,
,,,,,V3_009,21,Female,2024-10-15_14h56.19.788,jersey_experiment_5_v3,2023.2.2,Win32,85.47008547,,,,,,,,,,,,,,,,42.1623,43.7075,43.7075,56.8377,return,10.8386,,75,0,0,0,23,1,FBP-PT-18.png,0.43,1.2,24,0.75,,,,,,,,,,,,,,,,,,,,,,,,,,,,,,,,,,,,,,,,,,,,,
,,,,,V3_009,21,Female,2024-10-15_14h56.19.788,jersey_experiment_5_v3,2023.2.2,Win32,85.47008547,,,,,,,,,,,,,,,,56.8379,58.3903,58.3904,64.697,return,3.1449,,92.1875,0,1,1,4,1,FBP-YG-71.png,0.45,1.2,5,0.75,,,,,,,,,,,,,,,,,,,,,,,,,,,,,,,,,,,,,,,,,,,,,
,,,,,V3_009,21,Female,2024-10-15_14h56.19.788,jersey_experiment_5_v3,2023.2.2,Win32,85.47008547,,,,,,,,,,,,,,,,64.6972,66.2435,66.2436,72.9177,return,2.9283,,36.84895833,0,2,2,15,1,FBP-PT-17.png,0.35,1.2,16,0.75,,,,,,,,,,,,,,,,,,,,,,,,,,,,,,,,,,,,,,,,,,,,,
,,,,,V3_009,21,Female,2024-10-15_14h56.19.788,jersey_experiment_5_v3,2023.2.2,Win32,85.47008547,,,,,,,,,,,,,,,,72.9179,74.2113,74.2113,79.4824,return,1.9146,,39.0625,0,3,3,30,1,FBP-OG-17.png,0.35,1.2,31,0.5,,,,,,,,,,,,,,,,,,,,,,,,,,,,,,,,,,,,,,,,,,,,,
,,,,,V3_009,21,Female,2024-10-15_14h56.19.788,jersey_experiment_5_v3,2023.2.2,Win32,85.47008547,,,,,,,,,,,,,,,,79.4825,81.0354,81.0354,86.1384,return,2.3213,,74.08854167,0,4,4,11,1,FBP-YG-91.png,0.37,1.2,12,0.75,,,,,,,,,,,,,,,,,,,,,,,,,,,,,,,,,,,,,,,,,,,,,
,,,,,V3_009,21,Female,2024-10-15_14h56.19.788,jersey_experiment_5_v3,2023.2.2,Win32,85.47008547,,,,,,,,,,,,,,,,86.1387,87.6914,87.6914,92.6328,return,2.1568,,85.15625,0,5,5,18,1,FBP-PT-17.png,0.43,1.2,19,0.75,,,,,,,,,,,,,,,,,,,,,,,,,,,,,,,,,,,,,,,,,,,,,
,,,,,V3_009,21,Female,2024-10-15_14h56.19.788,jersey_experiment_5_v3,2023.2.2,Win32,85.47008547,,,,,,,,,,,,,,,,92.633,94.1857,94.1858,98.8157,return,1.7328,,74.86979167,0,6,6,46,1,FBP-RB-17.png,0.37,1.2,47,0.75,,,,,,,,,,,,,,,,,,,,,,,,,,,,,,,,,,,,,,,,,,,,,
,,,,,V3_009,21,Female,2024-10-15_14h56.19.788,jersey_experiment_5_v3,2023.2.2,Win32,85.47008547,,,,,,,,,,,,,,,,98.8158,100.3624,100.3625,103.8039,return,1.2386,,74.86979167,0,7,7,57,1,FBP-RB-19.png,0.4,1.2,58,0.75,,,,,,,,,,,,,,,,,,,,,,,,,,,,,,,,,,,,,,,,,,,,,
,,,,,V3_009,21,Female,2024-10-15_14h56.19.788,jersey_experiment_5_v3,2023.2.2,Win32,85.47008547,,,,,,,,,,,,,,,,103.804,105.0982,105.0982,108.6985,return,1.3886,,74.86979167,0,8,8,43,1,FBP-OG-19.png,0.43,1.2,44,0.5,,,,,,,,,,,,,,,,,,,,,,,,,,,,,,,,,,,,,,,,,,,,,
,,,,,V3_009,21,Female,2024-10-15_14h56.19.788,jersey_experiment_5_v3,2023.2.2,Win32,85.47008547,,,,,,,,,,,,,,,,108.6988,109.9982,109.9982,119.24,return,6.7769,,74.86979167,0,9,9,37,1,FBP-OG-18.png,0.4,1.2,38,0.5,,,,,,,,,,,,,,,,,,,,,,,,,,,,,,,,,,,,,,,,,,,,,
,,,,,V3_009,21,Female,2024-10-15_14h56.19.788,jersey_experiment_5_v3,2023.2.2,Win32,85.47008547,,,,,,,,,,,,,,,,119.2402,120.7867,120.7867,126.3751,return,1.168,,79.03645833,0,10,10,22,1,FBP-PT-18.png,0.4,1.2,23,0.75,,,,,,,,,,,,,,,,,,,,,,,,,,,,,,,,,,,,,,,,,,,,,
,,,,,V3_009,21,Female,2024-10-15_14h56.19.788,jersey_experiment_5_v3,2023.2.2,Win32,85.47008547,,,,,,,,,,,,,,,,126.3753,127.9282,127.9282,132.1636,return,1.7584,,50.13020833,0,11,11,10,1,FBP-YG-91.png,0.35,1.2,11,0.75,,,,,,,,,,,,,,,,,,,,,,,,,,,,,,,,,,,,,,,,,,,,,
,,,,,V3_009,21,Female,2024-10-15_14h56.19.788,jersey_experiment_5_v3,2023.2.2,Win32,85.47008547,,,,,,,,,,,,,,,,132.1638,133.7167,133.7167,137.2697,return,1.4506,,99.34895833,0,12,12,14,1,FBP-YG-91.png,0.45,1.2,15,0.75,,,,,,,,,,,,,,,,,,,,,,,,,,,,,,,,,,,,,,,,,,,,,
,,,,,V3_009,21,Female,2024-10-15_14h56.19.788,jersey_experiment_5_v3,2023.2.2,Win32,85.47008547,,,,,,,,,,,,,,,,137.27,138.8226,138.8227,141.6346,return,1.3798,,99.47916667,0,13,13,19,1,FBP-PT-17.png,0.45,1.2,20,0.75,,,,,,,,,,,,,,,,,,,,,,,,,,,,,,,,,,,,,,,,,,,,,
,,,,,V3_009,21,Female,2024-10-15_14h56.19.788,jersey_experiment_5_v3,2023.2.2,Win32,85.47008547,,,,,,,,,,,,,,,,141.6349,142.9287,142.9288,146.9353,return,1.333,,74.609375,0,14,14,42,1,FBP-OG-19.png,0.4,1.2,43,0.5,,,,,,,,,,,,,,,,,,,,,,,,,,,,,,,,,,,,,,,,,,,,,
,,,,,V3_009,21,Female,2024-10-15_14h56.19.788,jersey_experiment_5_v3,2023.2.2,Win32,85.47008547,,,,,,,,,,,,,,,,146.9354,148.4819,148.482,151.4468,return,1.517,,74.609375,0,15,15,7,1,FBP-YG-81.png,0.4,1.2,8,0.75,,,,,,,,,,,,,,,,,,,,,,,,,,,,,,,,,,,,,,,,,,,,,
,,,,,V3_009,21,Female,2024-10-15_14h56.19.788,jersey_experiment_5_v3,2023.2.2,Win32,85.47008547,,,,,,,,,,,,,,,,151.447,152.747,152.747,156.4115,return,1.9528,,74.609375,0,16,16,33,1,FBP-OG-17.png,0.43,1.2,34,0.5,,,,,,,,,,,,,,,,,,,,,,,,,,,,,,,,,,,,,,,,,,,,,
,,,,,V3_009,21,Female,2024-10-15_14h56.19.788,jersey_experiment_5_v3,2023.2.2,Win32,85.47008547,,,,,,,,,,,,,,,,156.4118,157.9645,157.9645,163.0119,return,1.7901,,26.04166667,0,17,17,6,1,FBP-YG-81.png,0.37,1.2,7,0.75,,,,,,,,,,,,,,,,,,,,,,,,,,,,,,,,,,,,,,,,,,,,,
,,,,,V3_009,21,Female,2024-10-15_14h56.19.788,jersey_experiment_5_v3,2023.2.2,Win32,85.47008547,,,,,,,,,,,,,,,,163.0122,164.306,164.306,167.506,return,1.086,,73.828125,0,18,18,39,1,FBP-OG-18.png,0.45,1.2,40,0.5,,,,,,,,,,,,,,,,,,,,,,,,,,,,,,,,,,,,,,,,,,,,,
,,,,,V3_009,21,Female,2024-10-15_14h56.19.788,jersey_experiment_5_v3,2023.2.2,Win32,85.47008547,,,,,,,,,,,,,,,,167.5064,169.0592,169.0592,171.5533,return,1.3137,,75.65104167,0,19,19,12,1,FBP-YG-91.png,0.4,1.2,13,0.75,,,,,,,,,,,,,,,,,,,,,,,,,,,,,,,,,,,,,,,,,,,,,
,,,,,V3_009,21,Female,2024-10-15_14h56.19.788,jersey_experiment_5_v3,2023.2.2,Win32,85.47008547,,,,,,,,,,,,,,,,171.5536,172.8476,172.8476,177.3125,return,2.6826,,26.04166667,0,20,20,35,1,FBP-OG-18.png,0.35,1.2,36,0.5,,,,,,,,,,,,,,,,,,,,,,,,,,,,,,,,,,,,,,,,,,,,,
,,,,,V3_009,21,Female,2024-10-15_14h56.19.788,jersey_experiment_5_v3,2023.2.2,Win32,85.47008547,,,,,,,,,,,,,,,,177.3126,178.6065,178.6066,181.195,return,1.153,,24.73958333,0,21,21,40,1,FBP-OG-19.png,0.35,1.2,41,0.5,,,,,,,,,,,,,,,,,,,,,,,,,,,,,,,,,,,,,,,,,,,,,
,,,,,V3_009,21,Female,2024-10-15_14h56.19.788,jersey_experiment_5_v3,2023.2.2,Win32,85.47008547,,,,,,,,,,,,,,,,181.1952,182.495,182.4951,187.3598,return,2.3208,,76.5625,0,22,22,44,1,FBP-OG-19.png,0.45,1.2,45,0.5,,,,,,,,,,,,,,,,,,,,,,,,,,,,,,,,,,,,,,,,,,,,,
,,,,,V3_009,21,Female,2024-10-15_14h56.19.788,jersey_experiment_5_v3,2023.2.2,Win32,85.47008547,,,,,,,,,,,,,,,,187.3601,188.907,188.907,191.3604,return,1.3882,,99.73958333,0,23,23,49,1,FBP-RB-17.png,0.45,1.2,50,0.75,,,,,,,,,,,,,,,,,,,,,,,,,,,,,,,,,,,,,,,,,,,,,
,,,,,V3_009,21,Female,2024-10-15_14h56.19.788,jersey_experiment_5_v3,2023.2.2,Win32,85.47008547,,,,,,,,,,,,,,,,191.3606,192.66,192.66,195.5425,return,0.7405,,99.47916667,0,24,24,34,1,FBP-OG-17.png,0.45,1.2,35,0.5,,,,,,,,,,,,,,,,,,,,,,,,,,,,,,,,,,,,,,,,,,,,,
,,,,,V3_009,21,Female,2024-10-15_14h56.19.788,jersey_experiment_5_v3,2023.2.2,Win32,85.47008547,,,,,,,,,,,,,,,,195.5427,197.0955,197.0956,199.0956,return,0.6367,,98.95833333,0,25,25,29,1,FBP-PT-19.png,0.45,1.2,30,0.75,,,,,,,,,,,,,,,,,,,,,,,,,,,,,,,,,,,,,,,,,,,,,
,,,,,V3_009,21,Female,2024-10-15_14h56.19.788,jersey_experiment_5_v3,2023.2.2,Win32,85.47008547,,,,,,,,,,,,,,,,199.0957,200.6485,200.6485,203.1545,return,0.9361,,74.73958333,0,26,26,45,1,FBP-RB-17.png,0.35,1.2,46,0.75,,,,,,,,,,,,,,,,,,,,,,,,,,,,,,,,,,,,,,,,,,,,,
,,,,,V3_009,21,Female,2024-10-15_14h56.19.788,jersey_experiment_5_v3,2023.2.2,Win32,85.47008547,,,,,,,,,,,,,,,,203.1548,204.4487,204.4488,207.3547,return,1.6472,,75.390625,0,27,27,38,1,FBP-OG-18.png,0.43,1.2,39,0.5,,,,,,,,,,,,,,,,,,,,,,,,,,,,,,,,,,,,,,,,,,,,,
,,,,,V3_009,21,Female,2024-10-15_14h56.19.788,jersey_experiment_5_v3,2023.2.2,Win32,85.47008547,,,,,,,,,,,,,,,,207.355,208.8987,208.8987,211.0082,return,0.9883,,75.13020833,0,28,28,52,1,FBP-RB-18.png,0.4,1.2,53,0.75,,,,,,,,,,,,,,,,,,,,,,,,,,,,,,,,,,,,,,,,,,,,,
,,,,,V3_009,21,Female,2024-10-15_14h56.19.788,jersey_experiment_5_v3,2023.2.2,Win32,85.47008547,,,,,,,,,,,,,,,,211.0085,212.3077,212.3078,215.2492,return,1.5577,,64.58333333,0,29,29,36,1,FBP-OG-18.png,0.37,1.2,37,0.5,,,,,,,,,,,,,,,,,,,,,,,,,,,,,,,,,,,,,,,,,,,,,
,,,,,V3_009,21,Female,2024-10-15_14h56.19.788,jersey_experiment_5_v3,2023.2.2,Win32,85.47008547,,,,,,,,,,,,,,,,215.2494,216.8021,216.8021,219.0963,return,0.8243,,60.02604167,0,30,30,56,1,FBP-RB-19.png,0.37,1.2,57,0.75,,,,,,,,,,,,,,,,,,,,,,,,,,,,,,,,,,,,,,,,,,,,,
,,,,,V3_009,21,Female,2024-10-15_14h56.19.788,jersey_experiment_5_v3,2023.2.2,Win32,85.47008547,,,,,,,,,,,,,,,,219.0965,220.6406,220.6406,223.0612,return,1.2403,,61.45833333,0,31,31,1,1,FBP-YG-71.png,0.37,1.2,2,0.75,,,,,,,,,,,,,,,,,,,,,,,,,,,,,,,,,,,,,,,,,,,,,
,,,,,V3_009,21,Female,2024-10-15_14h56.19.788,jersey_experiment_5_v3,2023.2.2,Win32,85.47008547,,,,,,,,,,,,,,,,223.0615,224.3553,224.3554,226.4966,return,0.4671,,64.71354167,0,32,32,31,1,FBP-OG-17.png,0.37,1.2,32,0.5,,,,,,,,,,,,,,,,,,,,,,,,,,,,,,,,,,,,,,,,,,,,,
,,,,,V3_009,21,Female,2024-10-15_14h56.19.788,jersey_experiment_5_v3,2023.2.2,Win32,85.47008547,,,,,,,,,,,,,,,,226.4968,228.0496,228.0496,231.4564,return,0.6978,,99.34895833,0,33,33,8,1,FBP-YG-81.png,0.43,1.2,9,0.75,,,,,,,,,,,,,,,,,,,,,,,,,,,,,,,,,,,,,,,,,,,,,
,,,,,V3_009,21,Female,2024-10-15_14h56.19.788,jersey_experiment_5_v3,2023.2.2,Win32,85.47008547,,,,,,,,,,,,,,,,231.4566,233.0027,233.0027,235.0616,return,0.6607,,99.609375,0,34,34,58,1,FBP-RB-19.png,0.43,1.2,59,0.75,,,,,,,,,,,,,,,,,,,,,,,,,,,,,,,,,,,,,,,,,,,,,
,,,,,V3_009,21,Female,2024-10-15_14h56.19.788,jersey_experiment_5_v3,2023.2.2,Win32,85.47008547,,,,,,,,,,,,,,,,235.0619,236.6146,236.6147,238.803,return,0.6852,,74.609375,0,35,35,51,1,FBP-RB-18.png,0.37,1.2,52,0.75,,,,,,,,,,,,,,,,,,,,,,,,,,,,,,,,,,,,,,,,,,,,,
,,,,,V3_009,21,Female,2024-10-15_14h56.19.788,jersey_experiment_5_v3,2023.2.2,Win32,85.47008547,,,,,,,,,,,,,,,,238.8032,240.3559,240.3559,242.05,return,0.7335,,74.609375,0,36,36,2,1,FBP-YG-71.png,0.4,1.2,3,0.75,,,,,,,,,,,,,,,,,,,,,,,,,,,,,,,,,,,,,,,,,,,,,
,,,,,V3_009,21,Female,2024-10-15_14h56.19.788,jersey_experiment_5_v3,2023.2.2,Win32,85.47008547,,,,,,,,,,,,,,,,242.0503,243.603,243.603,245.4738,return,1.2893,,74.609375,0,37,37,17,1,FBP-PT-17.png,0.4,1.2,18,0.75,,,,,,,,,,,,,,,,,,,,,,,,,,,,,,,,,,,,,,,,,,,,,
,,,,,V3_009,21,Female,2024-10-15_14h56.19.788,jersey_experiment_5_v3,2023.2.2,Win32,85.47008547,,,,,,,,,,,,,,,,245.4741,247.0267,247.0267,251.8151,return,3.4742,,24.47916667,0,38,38,21,1,FBP-PT-18.png,0.37,1.2,22,0.75,,,,,,,,,,,,,,,,,,,,,,,,,,,,,,,,,,,,,,,,,,,,,
,,,,,V3_009,21,Female,2024-10-15_14h56.19.788,jersey_experiment_5_v3,2023.2.2,Win32,85.47008547,,,,,,,,,,,,,,,,251.8154,253.3682,253.3683,255.48,return,0.4471,,74.08854167,0,39,39,47,1,FBP-RB-17.png,0.4,1.2,48,0.75,,,,,,,,,,,,,,,,,,,,,,,,,,,,,,,,,,,,,,,,,,,,,
,,,,,V3_009,21,Female,2024-10-15_14h56.19.788,jersey_experiment_5_v3,2023.2.2,Win32,85.47008547,,,,,,,,,,,,,,,,255.4803,257.0273,257.0273,259.4805,return,0.4151,,74.73958333,0,40,40,20,1,FBP-PT-18.png,0.35,1.2,21,0.75,,,,,,,,,,,,,,,,,,,,,,,,,,,,,,,,,,,,,,,,,,,,,
,,,,,V3_009,21,Female,2024-10-15_14h56.19.788,jersey_experiment_5_v3,2023.2.2,Win32,85.47008547,,,,,,,,,,,,,,,,259.4807,261.0331,261.0331,263.301,return,0.3764,,25.26041667,0,41,41,5,1,FBP-YG-81.png,0.35,1.2,6,0.75,,,,,,,,,,,,,,,,,,,,,,,,,,,,,,,,,,,,,,,,,,,,,
,,,,,V3_009,21,Female,2024-10-15_14h56.19.788,jersey_experiment_5_v3,2023.2.2,Win32,85.47008547,,,,,,,,,,,,,,,,263.3011,264.8534,264.8534,267.0423,return,0.8326,,24.609375,0,42,42,0,1,FBP-YG-71.png,0.35,1.2,1,0.75,,,,,,,,,,,,,,,,,,,,,,,,,,,,,,,,,,,,,,,,,,,,,
,,,,,V3_009,21,Female,2024-10-15_14h56.19.788,jersey_experiment_5_v3,2023.2.2,Win32,85.47008547,,,,,,,,,,,,,,,,267.0425,268.5922,268.5923,270.4395,return,0.6223,,24.21875,0,43,43,26,1,FBP-PT-19.png,0.37,1.2,27,0.75,,,,,,,,,,,,,,,,,,,,,,,,,,,,,,,,,,,,,,,,,,,,,
,,,,,V3_009,21,Female,2024-10-15_14h56.19.788,jersey_experiment_5_v3,2023.2.2,Win32,85.47008547,,,,,,,,,,,,,,,,270.4397,271.9985,271.9986,273.8747,return,0.4872,,73.95833333,0,44,44,28,1,FBP-PT-19.png,0.43,1.2,29,0.75,,,,,,,,,,,,,,,,,,,,,,,,,,,,,,,,,,,,,,,,,,,,,
,,,,,V3_009,21,Female,2024-10-15_14h56.19.788,jersey_experiment_5_v3,2023.2.2,Win32,85.47008547,,,,,,,,,,,,,,,,273.8751,275.1689,275.169,276.5338,return,0.3799,,74.609375,0,45,45,41,1,FBP-OG-19.png,0.37,1.2,42,0.5,,,,,,,,,,,,,,,,,,,,,,,,,,,,,,,,,,,,,,,,,,,,,
,,,,,V3_009,21,Female,2024-10-15_14h56.19.788,jersey_experiment_5_v3,2023.2.2,Win32,85.47008547,,,,,,,,,,,,,,,,276.534,277.8278,277.828,279.6516,return,0.5348,,74.609375,0,46,46,32,1,FBP-OG-17.png,0.4,1.2,33,0.5,,,,,,,,,,,,,,,,,,,,,,,,,,,,,,,,,,,,,,,,,,,,,
,,,,,V3_009,21,Female,2024-10-15_14h56.19.788,jersey_experiment_5_v3,2023.2.2,Win32,85.47008547,,,,,,,,,,,,,,,,279.6518,281.2046,281.2046,282.8546,return,0.259,,99.47916667,0,47,47,13,1,FBP-YG-91.png,0.43,1.2,14,0.75,,,,,,,,,,,,,,,,,,,,,,,,,,,,,,,,,,,,,,,,,,,,,
,,,,,V3_009,21,Female,2024-10-15_14h56.19.788,jersey_experiment_5_v3,2023.2.2,Win32,85.47008547,,,,,,,,,,,,,,,,282.8547,284.3989,284.3989,285.4108,return,0.321,,99.34895833,0,48,48,9,1,FBP-YG-81.png,0.45,1.2,10,0.75,,,,,,,,,,,,,,,,,,,,,,,,,,,,,,,,,,,,,,,,,,,,,
,,,,,V3_009,21,Female,2024-10-15_14h56.19.788,jersey_experiment_5_v3,2023.2.2,Win32,85.47008547,,,,,,,,,,,,,,,,285.4109,286.9576,286.9577,289.2164,return,1.2642,,99.34895833,0,49,49,3,1,FBP-YG-71.png,0.43,1.2,4,0.75,,,,,,,,,,,,,,,,,,,,,,,,,,,,,,,,,,,,,,,,,,,,,
,,,,,V3_009,21,Female,2024-10-15_14h56.19.788,jersey_experiment_5_v3,2023.2.2,Win32,85.47008547,,,,,,,,,,,,,,,,289.2166,290.7754,290.7754,299.37,return,1.0031,,99.86979167,0,50,50,24,1,FBP-PT-18.png,0.45,1.2,25,0.75,,,,,,,,,,,,,,,,,,,,,,,,,,,,,,,,,,,,,,,,,,,,,
,,,,,V3_009,21,Female,2024-10-15_14h56.19.788,jersey_experiment_5_v3,2023.2.2,Win32,85.47008547,,,,,,,,,,,,,,,,299.3702,300.9259,300.9259,303.223,return,1.2705,,99.34895833,0,51,51,59,1,FBP-RB-19.png,0.45,1.2,60,0.75,,,,,,,,,,,,,,,,,,,,,,,,,,,,,,,,,,,,,,,,,,,,,
,,,,,V3_009,21,Female,2024-10-15_14h56.19.788,jersey_experiment_5_v3,2023.2.2,Win32,85.47008547,,,,,,,,,,,,,,,,303.2232,304.77,304.7701,308.0643,return,1.5942,,25.26041667,0,52,52,55,1,FBP-RB-19.png,0.35,1.2,56,0.75,,,,,,,,,,,,,,,,,,,,,,,,,,,,,,,,,,,,,,,,,,,,,
,,,,,V3_009,21,Female,2024-10-15_14h56.19.788,jersey_experiment_5_v3,2023.2.2,Win32,85.47008547,,,,,,,,,,,,,,,,308.0646,309.6173,309.6174,312.6997,return,0.8705,,25.52083333,0,53,53,25,1,FBP-PT-19.png,0.35,1.2,26,0.75,,,,,,,,,,,,,,,,,,,,,,,,,,,,,,,,,,,,,,,,,,,,,
,,,,,V3_009,21,Female,2024-10-15_14h56.19.788,jersey_experiment_5_v3,2023.2.2,Win32,85.47008547,,,,,,,,,,,,,,,,312.7,314.2527,314.2527,317.1296,return,0.8385,,74.08854167,0,54,54,48,1,FBP-RB-17.png,0.43,1.2,49,0.75,,,,,,,,,,,,,,,,,,,,,,,,,,,,,,,,,,,,,,,,,,,,,
,,,,,V3_009,21,Female,2024-10-15_14h56.19.788,jersey_experiment_5_v3,2023.2.2,Win32,85.47008547,,,,,,,,,,,,,,,,317.1298,318.6825,318.6825,320.6826,return,0.7999,,99.73958333,0,55,55,54,1,FBP-RB-18.png,0.45,1.2,55,0.75,,,,,,,,,,,,,,,,,,,,,,,,,,,,,,,,,,,,,,,,,,,,,
,,,,,V3_009,21,Female,2024-10-15_14h56.19.788,jersey_experiment_5_v3,2023.2.2,Win32,85.47008547,,,,,,,,,,,,,,,,320.6828,322.2295,322.2296,324.9871,return,0.8131,,75.390625,0,56,56,50,1,FBP-RB-18.png,0.35,1.2,51,0.75,,,,,,,,,,,,,,,,,,,,,,,,,,,,,,,,,,,,,,,,,,,,,
,,,,,V3_009,21,Female,2024-10-15_14h56.19.788,jersey_experiment_5_v3,2023.2.2,Win32,85.47008547,,,,,,,,,,,,,,,,324.9873,326.5418,326.5419,328.3943,return,0.7618,,99.86979167,0,57,57,53,1,FBP-RB-18.png,0.43,1.2,54,0.75,,,,,,,,,,,,,,,,,,,,,,,,,,,,,,,,,,,,,,,,,,,,,
,,,,,V3_009,21,Female,2024-10-15_14h56.19.788,jersey_experiment_5_v3,2023.2.2,Win32,85.47008547,,,,,,,,,,,,,,,,328.3946,329.9476,329.9476,332.0181,return,0.7832,,25,0,58,58,16,1,FBP-PT-17.png,0.37,1.2,17,0.75,,,,,,,,,,,,,,,,,,,,,,,,,,,,,,,,,,,,,,,,,,,,,
,,,,,V3_009,21,Female,2024-10-15_14h56.19.788,jersey_experiment_5_v3,2023.2.2,Win32,85.47008547,,,,,,,,,,,,,,,,332.0184,333.5713,333.5713,336.0066,return,1.2946,,24.34895833,0,59,59,27,1,FBP-PT-19.png,0.4,1.2,28,0.75,,,,,,,,,,,,,,,,,,,,,,,,,,,,,,,,,,,,,,,,,,,,,
,,,,,V3_009,21,Female,2024-10-15_14h56.19.788,jersey_experiment_5_v3,2023.2.2,Win32,85.47008547,,,,,,,,,,,,,,,,336.0086,337.5595,337.5596,339.7714,return,1.3093,,24.86979167,,,,,,FBP-PT-91.png,0.37,1.2,27,0.75,0,0,0,26,1,,,,,,,,,,,,,,,,,,,,,,,,,,,,,,,,,,,,,,,,
,,,,,V3_009,21,Female,2024-10-15_14h56.19.788,jersey_experiment_5_v3,2023.2.2,Win32,85.47008547,,,,,,,,,,,,,,,,339.7717,341.0656,341.0656,344.2303,return,1.6733,,24.86979167,,,,,,FBP-OG-91.png,0.37,1.2,42,0.5,0,1,1,41,1,,,,,,,,,,,,,,,,,,,,,,,,,,,,,,,,,,,,,,,,
,,,,,V3_009,21,Female,2024-10-15_14h56.19.788,jersey_experiment_5_v3,2023.2.2,Win32,85.47008547,,,,,,,,,,,,,,,,344.2306,345.7749,345.7749,347.9246,return,0.9069,,74.47916667,,,,,,FBP-RB-91.png,0.4,1.2,58,0.75,0,2,2,57,1,,,,,,,,,,,,,,,,,,,,,,,,,,,,,,,,,,,,,,,,
,,,,,V3_009,21,Female,2024-10-15_14h56.19.788,jersey_experiment_5_v3,2023.2.2,Win32,85.47008547,,,,,,,,,,,,,,,,347.9249,349.2187,349.2188,352.619,return,1.1989,,25.13020833,,,,,,FBP-OG-71.png,0.35,1.2,31,0.5,0,3,3,30,1,,,,,,,,,,,,,,,,,,,,,,,,,,,,,,,,,,,,,,,,
,,,,,V3_009,21,Female,2024-10-15_14h56.19.788,jersey_experiment_5_v3,2023.2.2,Win32,85.47008547,,,,,,,,,,,,,,,,352.6192,353.9162,353.9163,358.4339,return,1.0355,,99.47916667,,,,,,FBP-OG-81.png,0.45,1.2,40,0.5,0,4,4,39,1,,,,,,,,,,,,,,,,,,,,,,,,,,,,,,,,,,,,,,,,
,,,,,V3_009,21,Female,2024-10-15_14h56.19.788,jersey_experiment_5_v3,2023.2.2,Win32,85.47008547,,,,,,,,,,,,,,,,358.434,359.9786,359.9786,362.0254,return,0.8387,,23.95833333,,,,,,FBP-PT-71.png,0.4,1.2,18,0.75,0,5,5,17,1,,,,,,,,,,,,,,,,,,,,,,,,,,,,,,,,,,,,,,,,
,,,,,V3_009,21,Female,2024-10-15_14h56.19.788,jersey_experiment_5_v3,2023.2.2,Win32,85.47008547,,,,,,,,,,,,,,,,362.0256,363.5787,363.5788,365.9373,return,0.4669,,99.86979167,,,,,,FBP-YG-19.png,0.43,1.2,14,0.75,0,6,6,13,1,,,,,,,,,,,,,,,,,,,,,,,,,,,,,,,,,,,,,,,,
,,,,,V3_009,21,Female,2024-10-15_14h56.19.788,jersey_experiment_5_v3,2023.2.2,Win32,85.47008547,,,,,,,,,,,,,,,,365.9375,367.4842,367.4842,369.7373,return,0.7296,,24.34895833,,,,,,FBP-PT-81.png,0.4,1.2,23,0.75,0,7,7,22,1,,,,,,,,,,,,,,,,,,,,,,,,,,,,,,,,,,,,,,,,
,,,,,V3_009,21,Female,2024-10-15_14h56.19.788,jersey_experiment_5_v3,2023.2.2,Win32,85.47008547,,,,,,,,,,,,,,,,369.7376,371.0313,371.0314,372.3552,return,0.6034,,24.34895833,,,,,,FBP-OG-81.png,0.35,1.2,36,0.5,0,8,8,35,1,,,,,,,,,,,,,,,,,,,,,,,,,,,,,,,,,,,,,,,,
,,,,,V3_009,21,Female,2024-10-15_14h56.19.788,jersey_experiment_5_v3,2023.2.2,Win32,85.47008547,,,,,,,,,,,,,,,,372.3554,373.6551,373.6551,375.8669,return,0.6357,,74.08854167,,,,,,FBP-OG-91.png,0.45,1.2,45,0.5,0,9,9,44,1,,,,,,,,,,,,,,,,,,,,,,,,,,,,,,,,,,,,,,,,
,,,,,V3_009,21,Female,2024-10-15_14h56.19.788,jersey_experiment_5_v3,2023.2.2,Win32,85.47008547,,,,,,,,,,,,,,,,375.8671,377.4199,377.4199,378.4497,return,0.5088,,74.08854167,,,,,,FBP-PT-71.png,0.43,1.2,19,0.75,0,10,10,18,1,,,,,,,,,,,,,,,,,,,,,,,,,,,,,,,,,,,,,,,,
,,,,,V3_009,21,Female,2024-10-15_14h56.19.788,jersey_experiment_5_v3,2023.2.2,Win32,85.47008547,,,,,,,,,,,,,,,,378.45,379.9964,379.9964,381.126,return,0.3176,,74.08854167,,,,,,FBP-RB-81.png,0.35,1.2,51,0.75,0,11,11,50,1,,,,,,,,,,,,,,,,,,,,,,,,,,,,,,,,,,,,,,,,
,,,,,V3_009,21,Female,2024-10-15_14h56.19.788,jersey_experiment_5_v3,2023.2.2,Win32,85.47008547,,,,,,,,,,,,,,,,381.1262,382.6788,382.6788,383.7612,return,0.5021,,73.95833333,,,,,,FBP-PT-71.png,0.37,1.2,17,0.75,0,12,12,16,1,,,,,,,,,,,,,,,,,,,,,,,,,,,,,,,,,,,,,,,,
,,,,,V3_009,21,Female,2024-10-15_14h56.19.788,jersey_experiment_5_v3,2023.2.2,Win32,85.47008547,,,,,,,,,,,,,,,,383.7615,385.3143,385.3143,387.2501,return,0.3918,,99.73958333,,,,,,FBP-YG-18.png,0.45,1.2,10,0.75,0,13,13,9,1,,,,,,,,,,,,,,,,,,,,,,,,,,,,,,,,,,,,,,,,
,,,,,V3_009,21,Female,2024-10-15_14h56.19.788,jersey_experiment_5_v3,2023.2.2,Win32,85.47008547,,,,,,,,,,,,,,,,387.2504,388.7967,388.7967,390.1497,return,0.3526,,99.21875,,,,,,FBP-RB-91.png,0.43,1.2,59,0.75,0,14,14,58,1,,,,,,,,,,,,,,,,,,,,,,,,,,,,,,,,,,,,,,,,
,,,,,V3_009,21,Female,2024-10-15_14h56.19.788,jersey_experiment_5_v3,2023.2.2,Win32,85.47008547,,,,,,,,,,,,,,,,390.15,391.7027,391.7028,392.9146,return,0.3827,,97.91666667,,,,,,FBP-PT-71.png,0.45,1.2,20,0.75,0,15,15,19,1,,,,,,,,,,,,,,,,,,,,,,,,,,,,,,,,,,,,,,,,
,,,,,V3_009,21,Female,2024-10-15_14h56.19.788,jersey_experiment_5_v3,2023.2.2,Win32,85.47008547,,,,,,,,,,,,,,,,392.9148,394.4674,394.4676,396.1853,return,0.2439,,74.73958333,,,,,,FBP-RB-71.png,0.37,1.2,47,0.75,0,16,16,46,1,,,,,,,,,,,,,,,,,,,,,,,,,,,,,,,,,,,,,,,,
,,,,,V3_009,21,Female,2024-10-15_14h56.19.788,jersey_experiment_5_v3,2023.2.2,Win32,85.47008547,,,,,,,,,,,,,,,,396.1855,397.7383,397.7383,400.9448,return,1.2492,,99.08854167,,,,,,FBP-PT-91.png,0.43,1.2,29,0.75,0,17,17,28,1,,,,,,,,,,,,,,,,,,,,,,,,,,,,,,,,,,,,,,,,
,,,,,V3_009,21,Female,2024-10-15_14h56.19.788,jersey_experiment_5_v3,2023.2.2,Win32,85.47008547,,,,,,,,,,,,,,,,400.9449,402.4915,402.4915,404.7738,return,1.3444,,25,,,,,,FBP-YG-17.png,0.35,1.2,1,0.75,0,18,18,0,1,,,,,,,,,,,,,,,,,,,,,,,,,,,,,,,,,,,,,,,,
,,,,,V3_009,21,Female,2024-10-15_14h56.19.788,jersey_experiment_5_v3,2023.2.2,Win32,85.47008547,,,,,,,,,,,,,,,,404.7741,406.3181,406.3181,408.2946,return,0.3145,,99.73958333,,,,,,FBP-RB-91.png,0.45,1.2,60,0.75,0,19,19,59,1,,,,,,,,,,,,,,,,,,,,,,,,,,,,,,,,,,,,,,,,
,,,,,V3_009,21,Female,2024-10-15_14h56.19.788,jersey_experiment_5_v3,2023.2.2,Win32,85.47008547,,,,,,,,,,,,,,,,408.2948,409.8389,409.8389,411.8158,return,0.4474,,24.86979167,,,,,,FBP-YG-19.png,0.35,1.2,11,0.75,0,20,20,10,1,,,,,,,,,,,,,,,,,,,,,,,,,,,,,,,,,,,,,,,,
,,,,,V3_009,21,Female,2024-10-15_14h56.19.788,jersey_experiment_5_v3,2023.2.2,Win32,85.47008547,,,,,,,,,,,,,,,,411.8159,413.1153,413.1153,415.2919,return,0.3296,,74.47916667,,,,,,FBP-OG-81.png,0.4,1.2,38,0.5,0,21,21,37,1,,,,,,,,,,,,,,,,,,,,,,,,,,,,,,,,,,,,,,,,
,,,,,V3_009,21,Female,2024-10-15_14h56.19.788,jersey_experiment_5_v3,2023.2.2,Win32,85.47008547,,,,,,,,,,,,,,,,415.2922,416.8448,416.8448,418.6011,return,0.4004,,25.65104167,,,,,,FBP-PT-71.png,0.35,1.2,16,0.75,0,22,22,15,1,,,,,,,,,,,,,,,,,,,,,,,,,,,,,,,,,,,,,,,,
,,,,,V3_009,21,Female,2024-10-15_14h56.19.788,jersey_experiment_5_v3,2023.2.2,Win32,85.47008547,,,,,,,,,,,,,,,,418.6012,420.1539,420.1539,422.0686,return,0.5457,,99.08854167,,,,,,FBP-PT-81.png,0.43,1.2,24,0.75,0,23,23,23,1,,,,,,,,,,,,,,,,,,,,,,,,,,,,,,,,,,,,,,,,
,,,,,V3_009,21,Female,2024-10-15_14h56.19.788,jersey_experiment_5_v3,2023.2.2,Win32,85.47008547,,,,,,,,,,,,,,,,422.0688,423.6216,423.6216,425.0866,return,0.7765,,99.609375,,,,,,FBP-RB-81.png,0.43,1.2,54,0.75,0,24,24,53,1,,,,,,,,,,,,,,,,,,,,,,,,,,,,,,,,,,,,,,,,
,,,,,V3_009,21,Female,2024-10-15_14h56.19.788,jersey_experiment_5_v3,2023.2.2,Win32,85.47008547,,,,,,,,,,,,,,,,425.0867,426.6392,426.6393,430.6954,return,0.8944,,76.69270833,,,,,,FBP-RB-91.png,0.35,1.2,56,0.75,0,25,25,55,1,,,,,,,,,,,,,,,,,,,,,,,,,,,,,,,,,,,,,,,,
,,,,,V3_009,21,Female,2024-10-15_14h56.19.788,jersey_experiment_5_v3,2023.2.2,Win32,85.47008547,,,,,,,,,,,,,,,,430.6955,431.9983,431.9984,433.9396,return,0.4964,,99.47916667,,,,,,FBP-OG-91.png,0.43,1.2,44,0.5,0,26,26,43,1,,,,,,,,,,,,,,,,,,,,,,,,,,,,,,,,,,,,,,,,
,,,,,V3_009,21,Female,2024-10-15_14h56.19.788,jersey_experiment_5_v3,2023.2.2,Win32,85.47008547,,,,,,,,,,,,,,,,433.9399,435.4926,435.4926,447.1284,return,10.8099,,99.21875,,,,,,FBP-PT-81.png,0.45,1.2,25,0.75,0,27,27,24,1,,,,,,,,,,,,,,,,,,,,,,,,,,,,,,,,,,,,,,,,
,,,,,V3_009,21,Female,2024-10-15_14h56.19.788,jersey_experiment_5_v3,2023.2.2,Win32,85.47008547,,,,,,,,,,,,,,,,447.1287,448.6813,448.6813,453.9757,return,0.81,,76.171875,,,,,,FBP-YG-19.png,0.4,1.2,13,0.75,0,28,28,12,1,,,,,,,,,,,,,,,,,,,,,,,,,,,,,,,,,,,,,,,,
,,,,,V3_009,21,Female,2024-10-15_14h56.19.788,jersey_experiment_5_v3,2023.2.2,Win32,85.47008547,,,,,,,,,,,,,,,,453.976,455.5286,455.5287,457.5876,return,0.7471,,76.04166667,,,,,,FBP-YG-17.png,0.37,1.2,2,0.75,0,29,29,1,1,,,,,,,,,,,,,,,,,,,,,,,,,,,,,,,,,,,,,,,,
,,,,,V3_009,21,Female,2024-10-15_14h56.19.788,jersey_experiment_5_v3,2023.2.2,Win32,85.47008547,,,,,,,,,,,,,,,,457.5878,458.8818,458.8818,460.8529,return,0.4389,,26.43229167,,,,,,FBP-OG-81.png,0.37,1.2,37,0.5,0,30,30,36,1,,,,,,,,,,,,,,,,,,,,,,,,,,,,,,,,,,,,,,,,
,,,,,V3_009,21,Female,2024-10-15_14h56.19.788,jersey_experiment_5_v3,2023.2.2,Win32,85.47008547,,,,,,,,,,,,,,,,460.8531,462.4061,462.4061,463.841,return,0.4387,,74.34895833,,,,,,FBP-RB-81.png,0.37,1.2,52,0.75,0,31,31,51,1,,,,,,,,,,,,,,,,,,,,,,,,,,,,,,,,,,,,,,,,
,,,,,V3_009,21,Female,2024-10-15_14h56.19.788,jersey_experiment_5_v3,2023.2.2,Win32,85.47008547,,,,,,,,,,,,,,,,463.8411,465.3878,465.3878,466.2468,return,0.259,,74.34895833,,,,,,FBP-RB-81.png,0.4,1.2,53,0.75,0,32,32,52,1,,,,,,,,,,,,,,,,,,,,,,,,,,,,,,,,,,,,,,,,
,,,,,V3_009,21,Female,2024-10-15_14h56.19.788,jersey_experiment_5_v3,2023.2.2,Win32,85.47008547,,,,,,,,,,,,,,,,466.2471,467.7996,467.7997,469.5206,return,0.2206,,99.21875,,,,,,FBP-RB-81.png,0.45,1.2,55,0.75,0,33,33,54,1,,,,,,,,,,,,,,,,,,,,,,,,,,,,,,,,,,,,,,,,
,,,,,V3_009,21,Female,2024-10-15_14h56.19.788,jersey_experiment_5_v3,2023.2.2,Win32,85.47008547,,,,,,,,,,,,,,,,469.5207,471.0703,471.0704,477.8472,return,1.4268,,99.21875,,,,,,FBP-PT-91.png,0.45,1.2,30,0.75,0,34,34,29,1,,,,,,,,,,,,,,,,,,,,,,,,,,,,,,,,,,,,,,,,
,,,,,V3_009,21,Female,2024-10-15_14h56.19.788,jersey_experiment_5_v3,2023.2.2,Win32,85.47008547,,,,,,,,,,,,,,,,477.8475,479.1413,479.1414,482.98,return,0.2914,,50.26041667,,,,,,FBP-OG-71.png,0.43,1.2,34,0.5,0,35,35,33,1,,,,,,,,,,,,,,,,,,,,,,,,,,,,,,,,,,,,,,,,
,,,,,V3_009,21,Female,2024-10-15_14h56.19.788,jersey_experiment_5_v3,2023.2.2,Win32,85.47008547,,,,,,,,,,,,,,,,482.9801,484.5329,484.5329,485.8945,return,0.3769,,26.04166667,,,,,,FBP-PT-81.png,0.35,1.2,21,0.75,0,36,36,20,1,,,,,,,,,,,,,,,,,,,,,,,,,,,,,,,,,,,,,,,,
,,,,,V3_009,21,Female,2024-10-15_14h56.19.788,jersey_experiment_5_v3,2023.2.2,Win32,85.47008547,,,,,,,,,,,,,,,,485.8948,487.4475,487.4475,488.4859,return,0.4002,,25,,,,,,FBP-PT-91.png,0.35,1.2,26,0.75,0,37,37,25,1,,,,,,,,,,,,,,,,,,,,,,,,,,,,,,,,,,,,,,,,
,,,,,V3_009,21,Female,2024-10-15_14h56.19.788,jersey_experiment_5_v3,2023.2.2,Win32,85.47008547,,,,,,,,,,,,,,,,488.4862,490.0357,490.0357,491.1535,return,0.3455,,24.73958333,,,,,,FBP-PT-91.png,0.4,1.2,28,0.75,0,38,38,27,1,,,,,,,,,,,,,,,,,,,,,,,,,,,,,,,,,,,,,,,,
,,,,,V3_009,21,Female,2024-10-15_14h56.19.788,jersey_experiment_5_v3,2023.2.2,Win32,85.47008547,,,,,,,,,,,,,,,,491.1537,492.7129,492.7129,494.4242,return,0.4949,,73.56770833,,,,,,FBP-RB-71.png,0.43,1.2,49,0.75,0,39,39,48,1,,,,,,,,,,,,,,,,,,,,,,,,,,,,,,,,,,,,,,,,
,,,,,V3_009,21,Female,2024-10-15_14h56.19.788,jersey_experiment_5_v3,2023.2.2,Win32,85.47008547,,,,,,,,,,,,,,,,494.4244,495.9774,495.9774,497.4875,return,0.6486,,74.47916667,,,,,,FBP-YG-18.png,0.43,1.2,9,0.75,0,40,40,8,1,,,,,,,,,,,,,,,,,,,,,,,,,,,,,,,,,,,,,,,,
,,,,,V3_009,21,Female,2024-10-15_14h56.19.788,jersey_experiment_5_v3,2023.2.2,Win32,85.47008547,,,,,,,,,,,,,,,,497.4877,498.7892,498.7892,499.9302,return,0.4318,,75.13020833,,,,,,FBP-OG-71.png,0.4,1.2,33,0.5,0,41,41,32,1,,,,,,,,,,,,,,,,,,,,,,,,,,,,,,,,,,,,,,,,
,,,,,V3_009,21,Female,2024-10-15_14h56.19.788,jersey_experiment_5_v3,2023.2.2,Win32,85.47008547,,,,,,,,,,,,,,,,499.9305,501.4833,501.4833,503.0833,return,0.4085,,25.52083333,,,,,,FBP-YG-18.png,0.35,1.2,6,0.75,0,42,42,5,1,,,,,,,,,,,,,,,,,,,,,,,,,,,,,,,,,,,,,,,,
,,,,,V3_009,21,Female,2024-10-15_14h56.19.788,jersey_experiment_5_v3,2023.2.2,Win32,85.47008547,,,,,,,,,,,,,,,,503.0836,504.6363,504.6363,505.8482,return,0.4386,,24.609375,,,,,,FBP-PT-81.png,0.37,1.2,22,0.75,0,43,43,21,1,,,,,,,,,,,,,,,,,,,,,,,,,,,,,,,,,,,,,,,,
,,,,,V3_009,21,Female,2024-10-15_14h56.19.788,jersey_experiment_5_v3,2023.2.2,Win32,85.47008547,,,,,,,,,,,,,,,,505.8485,507.4043,507.4043,508.6601,return,0.6251,,25.26041667,,,,,,FBP-RB-91.png,0.37,1.2,57,0.75,0,44,44,56,1,,,,,,,,,,,,,,,,,,,,,,,,,,,,,,,,,,,,,,,,
,,,,,V3_009,21,Female,2024-10-15_14h56.19.788,jersey_experiment_5_v3,2023.2.2,Win32,85.47008547,,,,,,,,,,,,,,,,508.6603,510.213,510.2131,511.6484,return,0.2912,,74.86979167,,,,,,FBP-YG-17.png,0.4,1.2,3,0.75,0,45,45,2,1,,,,,,,,,,,,,,,,,,,,,,,,,,,,,,,,,,,,,,,,
,,,,,V3_009,21,Female,2024-10-15_14h56.19.788,jersey_experiment_5_v3,2023.2.2,Win32,85.47008547,,,,,,,,,,,,,,,,511.6487,512.9426,512.9427,514.3897,return,0.2371,,24.609375,,,,,,FBP-OG-91.png,0.35,1.2,41,0.5,0,46,46,40,1,,,,,,,,,,,,,,,,,,,,,,,,,,,,,,,,,,,,,,,,
,,,,,V3_009,21,Female,2024-10-15_14h56.19.788,jersey_experiment_5_v3,2023.2.2,Win32,85.47008547,,,,,,,,,,,,,,,,514.39,515.9373,515.9374,517.3959,return,0.2588,,98.828125,,,,,,FBP-YG-19.png,0.45,1.2,15,0.75,0,47,47,14,1,,,,,,,,,,,,,,,,,,,,,,,,,,,,,,,,,,,,,,,,
,,,,,V3_009,21,Female,2024-10-15_14h56.19.788,jersey_experiment_5_v3,2023.2.2,Win32,85.47008547,,,,,,,,,,,,,,,,517.3961,518.6985,518.6985,520.0783,return,0.447,,99.86979167,,,,,,FBP-OG-71.png,0.45,1.2,35,0.5,0,48,48,34,1,,,,,,,,,,,,,,,,,,,,,,,,,,,,,,,,,,,,,,,,
,,,,,V3_009,21,Female,2024-10-15_14h56.19.788,jersey_experiment_5_v3,2023.2.2,Win32,85.47008547,,,,,,,,,,,,,,,,520.0785,521.6251,521.6251,522.6253,return,0.5221,,99.86979167,,,,,,FBP-YG-17.png,0.45,1.2,5,0.75,0,49,49,4,1,,,,,,,,,,,,,,,,,,,,,,,,,,,,,,,,,,,,,,,,
,,,,,V3_009,21,Female,2024-10-15_14h56.19.788,jersey_experiment_5_v3,2023.2.2,Win32,85.47008547,,,,,,,,,,,,,,,,522.6255,524.1783,524.1784,525.0902,return,0.5091,,99.73958333,,,,,,FBP-YG-17.png,0.43,1.2,4,0.75,0,50,50,3,1,,,,,,,,,,,,,,,,,,,,,,,,,,,,,,,,,,,,,,,,
,,,,,V3_009,21,Female,2024-10-15_14h56.19.788,jersey_experiment_5_v3,2023.2.2,Win32,85.47008547,,,,,,,,,,,,,,,,525.0905,526.3902,526.3902,527.396,return,0.353,,99.34895833,,,,,,FBP-OG-91.png,0.4,1.2,43,0.5,0,51,51,42,1,,,,,,,,,,,,,,,,,,,,,,,,,,,,,,,,,,,,,,,,
,,,,,V3_009,21,Female,2024-10-15_14h56.19.788,jersey_experiment_5_v3,2023.2.2,Win32,85.47008547,,,,,,,,,,,,,,,,527.3962,528.6987,528.6988,530.5197,return,0.4247,,73.17708333,,,,,,FBP-OG-71.png,0.37,1.2,32,0.5,0,52,52,31,1,,,,,,,,,,,,,,,,,,,,,,,,,,,,,,,,,,,,,,,,
,,,,,V3_009,21,Female,2024-10-15_14h56.19.788,jersey_experiment_5_v3,2023.2.2,Win32,85.47008547,,,,,,,,,,,,,,,,530.52,532.0727,532.0727,533.876,return,0.3855,,64.84375,,,,,,FBP-RB-71.png,0.35,1.2,46,0.75,0,53,53,45,1,,,,,,,,,,,,,,,,,,,,,,,,,,,,,,,,,,,,,,,,
,,,,,V3_009,21,Female,2024-10-15_14h56.19.788,jersey_experiment_5_v3,2023.2.2,Win32,85.47008547,,,,,,,,,,,,,,,,533.8763,535.4205,535.4206,536.4376,return,0.3448,,74.47916667,,,,,,FBP-RB-71.png,0.4,1.2,48,0.75,0,54,54,47,1,,,,,,,,,,,,,,,,,,,,,,,,,,,,,,,,,,,,,,,,
,,,,,V3_009,21,Female,2024-10-15_14h56.19.788,jersey_experiment_5_v3,2023.2.2,Win32,85.47008547,,,,,,,,,,,,,,,,536.4378,537.9851,537.9851,539.2964,return,0.3469,,98.56770833,,,,,,FBP-RB-71.png,0.45,1.2,50,0.75,0,55,55,49,1,,,,,,,,,,,,,,,,,,,,,,,,,,,,,,,,,,,,,,,,
,,,,,V3_009,21,Female,2024-10-15_14h56.19.788,jersey_experiment_5_v3,2023.2.2,Win32,85.47008547,,,,,,,,,,,,,,,,539.2966,540.8408,540.8408,541.6849,return,0.3219,,99.73958333,,,,,,FBP-YG-18.png,0.4,1.2,8,0.75,0,56,56,7,1,,,,,,,,,,,,,,,,,,,,,,,,,,,,,,,,,,,,,,,,
,,,,,V3_009,21,Female,2024-10-15_14h56.19.788,jersey_experiment_5_v3,2023.2.2,Win32,85.47008547,,,,,,,,,,,,,,,,541.6851,543.2377,543.2377,544.5673,return,0.2931,,99.73958333,,,,,,FBP-YG-18.png,0.37,1.2,7,0.75,0,57,57,6,1,,,,,,,,,,,,,,,,,,,,,,,,,,,,,,,,,,,,,,,,
,,,,,V3_009,21,Female,2024-10-15_14h56.19.788,jersey_experiment_5_v3,2023.2.2,Win32,85.47008547,,,,,,,,,,,,,,,,544.5675,545.8613,545.8614,547.1791,return,0.2203,,74.34895833,,,,,,FBP-OG-81.png,0.43,1.2,39,0.5,0,58,58,38,1,,,,,,,,,,,,,,,,,,,,,,,,,,,,,,,,,,,,,,,,
,,,,,V3_009,21,Female,2024-10-15_14h56.19.788,jersey_experiment_5_v3,2023.2.2,Win32,85.47008547,,,,,,,,,,,,,,,,547.1794,548.732,548.7321,549.7204,return,0.4242,,74.34895833,,,,,,FBP-YG-19.png,0.37,1.2,12,0.75,0,59,59,11,1,,,,,,,,,,,,,,,,,,,,,,,,,,,,,,,,,,,,,,,,
,,,,,V3_009,21,Female,2024-10-15_14h56.19.788,jersey_experiment_5_v3,2023.2.2,Win32,85.47008547,,,,,,,,,,,,,,,,,,,,,,,,,,,,,,,,,,,,,,,549.7206,669.7132,,,,,,,,,,,,,,,,,,,,,,,,,,,,,,,,,,,,,,
,,,,,V3_009,21,Female,2024-10-15_14h56.19.788,jersey_experiment_5_v3,2023.2.2,Win32,85.47008547,,,,,,,,,,,,,,,,,,,,,,,,,,,,,,,,,,,,,,,,,669.7133,679.1959,return,9.459,,,,,,,,,,,,,,,,,,,,,,,,,,,,,,,,,,
,,,,,V3_009,21,Female,2024-10-15_14h56.19.788,jersey_experiment_5_v3,2023.2.2,Win32,85.47008547,,,,,,,,,,,,,,,,679.1975,680.49,680.4901,686.549,return,2.8361,,75,,,,,,FBP-YG-81.png,0.43,1.2,9,0.5,,,,,,,,,,,,,0,0,0,8,1,,,,,,,,,,,,,,,,,,,,,,,,,,,,
,,,,,V3_009,21,Female,2024-10-15_14h56.19.788,jersey_experiment_5_v3,2023.2.2,Win32,85.47008547,,,,,,,,,,,,,,,,686.5493,687.8432,687.8433,689.3789,return,0.368,,75.65104167,,,,,,FBP-PT-18.png,0.4,1.2,23,0.5,,,,,,,,,,,,,0,1,1,22,1,,,,,,,,,,,,,,,,,,,,,,,,,,,,
,,,,,V3_009,21,Female,2024-10-15_14h56.19.788,jersey_experiment_5_v3,2023.2.2,Win32,85.47008547,,,,,,,,,,,,,,,,689.3791,690.6786,690.6787,691.9729,return,0.378,,75.52083333,,,,,,FBP-RB-17.png,0.43,1.2,49,0.5,,,,,,,,,,,,,0,2,2,48,1,,,,,,,,,,,,,,,,,,,,,,,,,,,,
,,,,,V3_009,21,Female,2024-10-15_14h56.19.788,jersey_experiment_5_v3,2023.2.2,Win32,85.47008547,,,,,,,,,,,,,,,,691.973,693.2669,693.2669,694.9964,return,0.4284,,24.34895833,,,,,,FBP-RB-17.png,0.35,1.2,46,0.5,,,,,,,,,,,,,0,3,3,45,1,,,,,,,,,,,,,,,,,,,,,,,,,,,,
,,,,,V3_009,21,Female,2024-10-15_14h56.19.788,jersey_experiment_5_v3,2023.2.2,Win32,85.47008547,,,,,,,,,,,,,,,,694.9966,696.2964,696.2964,698.2264,return,0.2589,,99.08854167,,,,,,FBP-YG-91.png,0.45,1.2,15,0.5,,,,,,,,,,,,,0,4,4,14,1,,,,,,,,,,,,,,,,,,,,,,,,,,,,
,,,,,V3_009,21,Female,2024-10-15_14h56.19.788,jersey_experiment_5_v3,2023.2.2,Win32,85.47008547,,,,,,,,,,,,,,,,698.2265,699.5292,699.5292,701.1055,return,0.4085,,99.08854167,,,,,,FBP-YG-91.png,0.43,1.2,14,0.5,,,,,,,,,,,,,0,5,5,13,1,,,,,,,,,,,,,,,,,,,,,,,,,,,,
,,,,,V3_009,21,Female,2024-10-15_14h56.19.788,jersey_experiment_5_v3,2023.2.2,Win32,85.47008547,,,,,,,,,,,,,,,,701.1057,702.4146,702.4146,703.538,return,0.3688,,99.34895833,,,,,,FBP-PT-19.png,0.43,1.2,29,0.5,,,,,,,,,,,,,0,6,6,28,1,,,,,,,,,,,,,,,,,,,,,,,,,,,,
,,,,,V3_009,21,Female,2024-10-15_14h56.19.788,jersey_experiment_5_v3,2023.2.2,Win32,85.47008547,,,,,,,,,,,,,,,,703.5382,704.8321,704.8321,706.6028,return,0.235,,25.390625,,,,,,FBP-YG-81.png,0.37,1.2,7,0.5,,,,,,,,,,,,,0,7,7,6,1,,,,,,,,,,,,,,,,,,,,,,,,,,,,
,,,,,V3_009,21,Female,2024-10-15_14h56.19.788,jersey_experiment_5_v3,2023.2.2,Win32,85.47008547,,,,,,,,,,,,,,,,706.6029,707.8967,707.8967,714.0858,return,0.5648,,24.21875,,,,,,FBP-PT-17.png,0.35,1.2,16,0.5,,,,,,,,,,,,,0,8,8,15,1,,,,,,,,,,,,,,,,,,,,,,,,,,,,
,,,,,V3_009,21,Female,2024-10-15_14h56.19.788,jersey_experiment_5_v3,2023.2.2,Win32,85.47008547,,,,,,,,,,,,,,,,714.086,715.3856,715.3856,717.1298,return,0.4237,,25.52083333,,,,,,FBP-PT-17.png,0.37,1.2,17,0.5,,,,,,,,,,,,,0,9,9,16,1,,,,,,,,,,,,,,,,,,,,,,,,,,,,
,,,,,V3_009,21,Female,2024-10-15_14h56.19.788,jersey_experiment_5_v3,2023.2.2,Win32,85.47008547,,,,,,,,,,,,,,,,717.1301,718.4326,718.4326,719.7149,return,0.3003,,25.52083333,,,,,,FBP-YG-71.png,0.37,1.2,2,0.5,,,,,,,,,,,,,0,10,10,1,1,,,,,,,,,,,,,,,,,,,,,,,,,,,,
,,,,,V3_009,21,Female,2024-10-15_14h56.19.788,jersey_experiment_5_v3,2023.2.2,Win32,85.47008547,,,,,,,,,,,,,,,,719.7152,721.268,721.268,722.8093,return,0.1972,,74.47916667,,,,,,FBP-OG-19.png,0.4,1.2,43,0.75,,,,,,,,,,,,,0,11,11,42,1,,,,,,,,,,,,,,,,,,,,,,,,,,,,
,,,,,V3_009,21,Female,2024-10-15_14h56.19.788,jersey_experiment_5_v3,2023.2.2,Win32,85.47008547,,,,,,,,,,,,,,,,722.8096,724.1034,724.1034,724.9505,return,0.3317,,74.47916667,,,,,,FBP-RB-17.png,0.4,1.2,48,0.5,,,,,,,,,,,,,0,12,12,47,1,,,,,,,,,,,,,,,,,,,,,,,,,,,,
,,,,,V3_009,21,Female,2024-10-15_14h56.19.788,jersey_experiment_5_v3,2023.2.2,Win32,85.47008547,,,,,,,,,,,,,,,,724.9507,726.5033,726.5034,727.357,return,0.3684,,74.47916667,,,,,,FBP-OG-18.png,0.4,1.2,38,0.75,,,,,,,,,,,,,0,13,13,37,1,,,,,,,,,,,,,,,,,,,,,,,,,,,,
,,,,,V3_009,21,Female,2024-10-15_14h56.19.788,jersey_experiment_5_v3,2023.2.2,Win32,85.47008547,,,,,,,,,,,,,,,,727.3571,728.6566,728.6566,729.9066,return,0.1649,,24.08854167,,,,,,FBP-PT-18.png,0.37,1.2,22,0.5,,,,,,,,,,,,,0,14,14,21,1,,,,,,,,,,,,,,,,,,,,,,,,,,,,
,,,,,V3_009,21,Female,2024-10-15_14h56.19.788,jersey_experiment_5_v3,2023.2.2,Win32,85.47008547,,,,,,,,,,,,,,,,729.9069,731.2008,731.2009,732.4097,return,0.2354,,99.34895833,,,,,,FBP-RB-18.png,0.43,1.2,54,0.5,,,,,,,,,,,,,0,15,15,53,1,,,,,,,,,,,,,,,,,,,,,,,,,,,,
,,,,,V3_009,21,Female,2024-10-15_14h56.19.788,jersey_experiment_5_v3,2023.2.2,Win32,85.47008547,,,,,,,,,,,,,,,,732.4098,733.9626,733.9626,734.8685,return,0.2752,,99.34895833,,,,,,FBP-OG-18.png,0.45,1.2,40,0.75,,,,,,,,,,,,,0,16,16,39,1,,,,,,,,,,,,,,,,,,,,,,,,,,,,
,,,,,V3_009,21,Female,2024-10-15_14h56.19.788,jersey_experiment_5_v3,2023.2.2,Win32,85.47008547,,,,,,,,,,,,,,,,734.8688,736.4215,736.4216,737.3156,return,0.4173,,99.34895833,,,,,,FBP-OG-17.png,0.45,1.2,35,0.75,,,,,,,,,,,,,0,17,17,34,1,,,,,,,,,,,,,,,,,,,,,,,,,,,,
,,,,,V3_009,21,Female,2024-10-15_14h56.19.788,jersey_experiment_5_v3,2023.2.2,Win32,85.47008547,,,,,,,,,,,,,,,,737.3158,738.6098,738.6099,739.7338,return,0.1414,,74.08854167,,,,,,FBP-RB-19.png,0.37,1.2,57,0.5,,,,,,,,,,,,,0,18,18,56,1,,,,,,,,,,,,,,,,,,,,,,,,,,,,
,,,,,V3_009,21,Female,2024-10-15_14h56.19.788,jersey_experiment_5_v3,2023.2.2,Win32,85.47008547,,,,,,,,,,,,,,,,739.734,741.287,741.287,742.322,return,0.297,,98.95833333,,,,,,FBP-OG-17.png,0.43,1.2,34,0.75,,,,,,,,,,,,,0,19,19,33,1,,,,,,,,,,,,,,,,,,,,,,,,,,,,
,,,,,V3_009,21,Female,2024-10-15_14h56.19.788,jersey_experiment_5_v3,2023.2.2,Win32,85.47008547,,,,,,,,,,,,,,,,742.3222,743.6161,743.6162,744.7865,return,0.18,,75,,,,,,FBP-PT-17.png,0.4,1.2,18,0.5,,,,,,,,,,,,,0,20,20,17,1,,,,,,,,,,,,,,,,,,,,,,,,,,,,
,,,,,V3_009,21,Female,2024-10-15_14h56.19.788,jersey_experiment_5_v3,2023.2.2,Win32,85.47008547,,,,,,,,,,,,,,,,744.7868,746.3395,746.3396,748.2454,return,0.224,,26.04166667,,,,,,FBP-OG-17.png,0.37,1.2,32,0.75,,,,,,,,,,,,,0,21,21,31,1,,,,,,,,,,,,,,,,,,,,,,,,,,,,
,,,,,V3_009,21,Female,2024-10-15_14h56.19.788,jersey_experiment_5_v3,2023.2.2,Win32,85.47008547,,,,,,,,,,,,,,,,748.2456,749.5455,749.5455,751.3986,return,0.591,,72.78645833,,,,,,FBP-RB-18.png,0.4,1.2,53,0.5,,,,,,,,,,,,,0,22,22,52,1,,,,,,,,,,,,,,,,,,,,,,,,,,,,
,,,,,V3_009,21,Female,2024-10-15_14h56.19.788,jersey_experiment_5_v3,2023.2.2,Win32,85.47008547,,,,,,,,,,,,,,,,751.3987,752.6927,752.6928,753.7577,return,0.353,,75.26041667,,,,,,FBP-RB-17.png,0.37,1.2,47,0.5,,,,,,,,,,,,,0,23,23,46,1,,,,,,,,,,,,,,,,,,,,,,,,,,,,
,,,,,V3_009,21,Female,2024-10-15_14h56.19.788,jersey_experiment_5_v3,2023.2.2,Win32,85.47008547,,,,,,,,,,,,,,,,753.7579,755.3109,755.3109,756.6576,return,0.2636,,24.73958333,,,,,,FBP-OG-18.png,0.35,1.2,36,0.75,,,,,,,,,,,,,0,24,24,35,1,,,,,,,,,,,,,,,,,,,,,,,,,,,,
,,,,,V3_009,21,Female,2024-10-15_14h56.19.788,jersey_experiment_5_v3,2023.2.2,Win32,85.47008547,,,,,,,,,,,,,,,,756.6578,757.9518,757.9518,759.634,return,0.2058,,74.609375,,,,,,FBP-YG-91.png,0.4,1.2,13,0.5,,,,,,,,,,,,,0,25,25,12,1,,,,,,,,,,,,,,,,,,,,,,,,,,,,
,,,,,V3_009,21,Female,2024-10-15_14h56.19.788,jersey_experiment_5_v3,2023.2.2,Win32,85.47008547,,,,,,,,,,,,,,,,759.6343,760.9283,760.9283,761.7518,return,0.2688,,74.609375,,,,,,FBP-RB-18.png,0.35,1.2,51,0.5,,,,,,,,,,,,,0,26,26,50,1,,,,,,,,,,,,,,,,,,,,,,,,,,,,
,,,,,V3_009,21,Female,2024-10-15_14h56.19.788,jersey_experiment_5_v3,2023.2.2,Win32,85.47008547,,,,,,,,,,,,,,,,761.7521,763.046,763.0461,763.8758,return,0.2977,,74.609375,,,,,,FBP-RB-19.png,0.35,1.2,56,0.5,,,,,,,,,,,,,0,27,27,55,1,,,,,,,,,,,,,,,,,,,,,,,,,,,,
,,,,,V3_009,21,Female,2024-10-15_14h56.19.788,jersey_experiment_5_v3,2023.2.2,Win32,85.47008547,,,,,,,,,,,,,,,,763.8761,765.1755,765.1755,766.4023,return,0.2356,,99.609375,,,,,,FBP-YG-71.png,0.43,1.2,4,0.5,,,,,,,,,,,,,0,28,28,3,1,,,,,,,,,,,,,,,,,,,,,,,,,,,,
,,,,,V3_009,21,Female,2024-10-15_14h56.19.788,jersey_experiment_5_v3,2023.2.2,Win32,85.47008547,,,,,,,,,,,,,,,,766.4024,767.705,767.7051,768.6462,return,0.3325,,99.609375,,,,,,FBP-PT-19.png,0.45,1.2,30,0.5,,,,,,,,,,,,,0,29,29,29,1,,,,,,,,,,,,,,,,,,,,,,,,,,,,
,,,,,V3_009,21,Female,2024-10-15_14h56.19.788,jersey_experiment_5_v3,2023.2.2,Win32,85.47008547,,,,,,,,,,,,,,,,768.6464,769.9404,769.9404,771.317,return,0.2358,,73.69791667,,,,,,FBP-YG-91.png,0.37,1.2,12,0.5,,,,,,,,,,,,,0,30,30,11,1,,,,,,,,,,,,,,,,,,,,,,,,,,,,
,,,,,V3_009,21,Female,2024-10-15_14h56.19.788,jersey_experiment_5_v3,2023.2.2,Win32,85.47008547,,,,,,,,,,,,,,,,771.3172,772.6111,772.6112,773.8581,return,0.2539,,99.47916667,,,,,,FBP-PT-18.png,0.45,1.2,25,0.5,,,,,,,,,,,,,0,31,31,24,1,,,,,,,,,,,,,,,,,,,,,,,,,,,,
,,,,,V3_009,21,Female,2024-10-15_14h56.19.788,jersey_experiment_5_v3,2023.2.2,Win32,85.47008547,,,,,,,,,,,,,,,,773.8583,775.1523,775.1523,777.2231,return,0.1887,,24.47916667,,,,,,FBP-PT-19.png,0.35,1.2,26,0.5,,,,,,,,,,,,,0,32,32,25,1,,,,,,,,,,,,,,,,,,,,,,,,,,,,
,,,,,V3_009,21,Female,2024-10-15_14h56.19.788,jersey_experiment_5_v3,2023.2.2,Win32,85.47008547,,,,,,,,,,,,,,,,777.2234,778.776,778.776,780.238,return,0.2442,,74.08854167,,,,,,FBP-OG-18.png,0.43,1.2,39,0.75,,,,,,,,,,,,,0,33,33,38,1,,,,,,,,,,,,,,,,,,,,,,,,,,,,
,,,,,V3_009,21,Female,2024-10-15_14h56.19.788,jersey_experiment_5_v3,2023.2.2,Win32,85.47008547,,,,,,,,,,,,,,,,780.2382,781.5408,781.5409,784.188,return,0.1885,,75.13020833,,,,,,FBP-YG-91.png,0.35,1.2,11,0.5,,,,,,,,,,,,,0,34,34,10,1,,,,,,,,,,,,,,,,,,,,,,,,,,,,
,,,,,V3_009,21,Female,2024-10-15_14h56.19.788,jersey_experiment_5_v3,2023.2.2,Win32,85.47008547,,,,,,,,,,,,,,,,784.1883,785.4822,785.4822,786.9762,return,0.2911,,98.30729167,,,,,,FBP-RB-18.png,0.37,1.2,52,0.5,,,,,,,,,,,,,0,35,35,51,1,,,,,,,,,,,,,,,,,,,,,,,,,,,,
,,,,,V3_009,21,Female,2024-10-15_14h56.19.788,jersey_experiment_5_v3,2023.2.2,Win32,85.47008547,,,,,,,,,,,,,,,,786.9766,788.2705,788.2705,791.2588,return,0.2214,,74.21875,,,,,,FBP-YG-71.png,0.35,1.2,1,0.5,,,,,,,,,,,,,0,36,36,0,1,,,,,,,,,,,,,,,,,,,,,,,,,,,,
,,,,,V3_009,21,Female,2024-10-15_14h56.19.788,jersey_experiment_5_v3,2023.2.2,Win32,85.47008547,,,,,,,,,,,,,,,,791.2591,792.5529,792.553,794.1178,return,0.2593,,74.47916667,,,,,,FBP-YG-81.png,0.35,1.2,6,0.5,,,,,,,,,,,,,0,37,37,5,1,,,,,,,,,,,,,,,,,,,,,,,,,,,,
,,,,,V3_009,21,Female,2024-10-15_14h56.19.788,jersey_experiment_5_v3,2023.2.2,Win32,85.47008547,,,,,,,,,,,,,,,,794.1181,795.412,795.412,796.7414,return,0.3653,,98.56770833,,,,,,FBP-RB-19.png,0.45,1.2,60,0.5,,,,,,,,,,,,,0,38,38,59,1,,,,,,,,,,,,,,,,,,,,,,,,,,,,
,,,,,V3_009,21,Female,2024-10-15_14h56.19.788,jersey_experiment_5_v3,2023.2.2,Win32,85.47008547,,,,,,,,,,,,,,,,796.7416,798.3007,798.3007,799.2238,return,0.3295,,99.21875,,,,,,FBP-OG-19.png,0.43,1.2,44,0.75,,,,,,,,,,,,,0,39,39,43,1,,,,,,,,,,,,,,,,,,,,,,,,,,,,
,,,,,V3_009,21,Female,2024-10-15_14h56.19.788,jersey_experiment_5_v3,2023.2.2,Win32,85.47008547,,,,,,,,,,,,,,,,799.224,800.518,800.5181,801.624,return,0.3662,,99.21875,,,,,,FBP-YG-71.png,0.45,1.2,5,0.5,,,,,,,,,,,,,0,40,40,4,1,,,,,,,,,,,,,,,,,,,,,,,,,,,,
,,,,,V3_009,21,Female,2024-10-15_14h56.19.788,jersey_experiment_5_v3,2023.2.2,Win32,85.47008547,,,,,,,,,,,,,,,,801.6242,802.9182,802.9182,808.1654,return,1.3418,,99.21875,,,,,,FBP-RB-17.png,0.45,1.2,50,0.5,,,,,,,,,,,,,0,41,41,49,1,,,,,,,,,,,,,,,,,,,,,,,,,,,,
,,,,,V3_009,21,Female,2024-10-15_14h56.19.788,jersey_experiment_5_v3,2023.2.2,Win32,85.47008547,,,,,,,,,,,,,,,,808.1655,809.4596,809.4596,811.2007,return,0.6788,,99.21875,,,,,,FBP-PT-18.png,0.43,1.2,24,0.5,,,,,,,,,,,,,0,42,42,23,1,,,,,,,,,,,,,,,,,,,,,,,,,,,,
,,,,,V3_009,21,Female,2024-10-15_14h56.19.788,jersey_experiment_5_v3,2023.2.2,Win32,85.47008547,,,,,,,,,,,,,,,,811.201,812.7539,812.7539,813.7185,return,0.4477,,99.21875,,,,,,FBP-OG-19.png,0.45,1.2,45,0.75,,,,,,,,,,,,,0,43,43,44,1,,,,,,,,,,,,,,,,,,,,,,,,,,,,
,,,,,V3_009,21,Female,2024-10-15_14h56.19.788,jersey_experiment_5_v3,2023.2.2,Win32,85.47008547,,,,,,,,,,,,,,,,813.7187,815.0127,815.0128,817.2245,return,0.2035,,76.04166667,,,,,,FBP-PT-19.png,0.4,1.2,28,0.5,,,,,,,,,,,,,0,44,44,27,1,,,,,,,,,,,,,,,,,,,,,,,,,,,,
,,,,,V3_009,21,Female,2024-10-15_14h56.19.788,jersey_experiment_5_v3,2023.2.2,Win32,85.47008547,,,,,,,,,,,,,,,,817.2248,818.7721,818.7722,820.2952,return,0.237,,25.52083333,,,,,,FBP-OG-17.png,0.35,1.2,31,0.75,,,,,,,,,,,,,0,45,45,30,1,,,,,,,,,,,,,,,,,,,,,,,,,,,,
,,,,,V3_009,21,Female,2024-10-15_14h56.19.788,jersey_experiment_5_v3,2023.2.2,Win32,85.47008547,,,,,,,,,,,,,,,,820.2955,821.5893,821.5894,823.2835,return,0.2175,,75.52083333,,,,,,FBP-YG-71.png,0.4,1.2,3,0.5,,,,,,,,,,,,,0,46,46,2,1,,,,,,,,,,,,,,,,,,,,,,,,,,,,
,,,,,V3_009,21,Female,2024-10-15_14h56.19.788,jersey_experiment_5_v3,2023.2.2,Win32,85.47008547,,,,,,,,,,,,,,,,823.2838,824.5839,824.584,825.8311,return,0.2357,,98.828125,,,,,,FBP-PT-17.png,0.45,1.2,20,0.5,,,,,,,,,,,,,0,47,47,19,1,,,,,,,,,,,,,,,,,,,,,,,,,,,,
,,,,,V3_009,21,Female,2024-10-15_14h56.19.788,jersey_experiment_5_v3,2023.2.2,Win32,85.47008547,,,,,,,,,,,,,,,,825.8312,827.1308,827.1309,828.3018,return,0.2351,,75.26041667,,,,,,FBP-YG-81.png,0.4,1.2,8,0.5,,,,,,,,,,,,,0,48,48,7,1,,,,,,,,,,,,,,,,,,,,,,,,,,,,
,,,,,V3_009,21,Female,2024-10-15_14h56.19.788,jersey_experiment_5_v3,2023.2.2,Win32,85.47008547,,,,,,,,,,,,,,,,828.302,829.6015,829.6016,831.2251,return,0.589,,98.828125,,,,,,FBP-YG-81.png,0.45,1.2,10,0.5,,,,,,,,,,,,,0,49,49,9,1,,,,,,,,,,,,,,,,,,,,,,,,,,,,
,,,,,V3_009,21,Female,2024-10-15_14h56.19.788,jersey_experiment_5_v3,2023.2.2,Win32,85.47008547,,,,,,,,,,,,,,,,831.2254,832.7727,832.7727,834.2251,return,0.2989,,24.34895833,,,,,,FBP-OG-19.png,0.35,1.2,41,0.75,,,,,,,,,,,,,0,50,50,40,1,,,,,,,,,,,,,,,,,,,,,,,,,,,,
,,,,,V3_009,21,Female,2024-10-15_14h56.19.788,jersey_experiment_5_v3,2023.2.2,Win32,85.47008547,,,,,,,,,,,,,,,,834.2253,835.5193,835.5194,837.0606,return,0.3308,,73.4375,,,,,,FBP-RB-19.png,0.4,1.2,58,0.5,,,,,,,,,,,,,0,51,51,57,1,,,,,,,,,,,,,,,,,,,,,,,,,,,,
,,,,,V3_009,21,Female,2024-10-15_14h56.19.788,jersey_experiment_5_v3,2023.2.2,Win32,85.47008547,,,,,,,,,,,,,,,,837.0609,838.3548,838.3548,839.6667,return,0.2265,,75.78125,,,,,,FBP-RB-19.png,0.43,1.2,59,0.5,,,,,,,,,,,,,0,52,52,58,1,,,,,,,,,,,,,,,,,,,,,,,,,,,,
,,,,,V3_009,21,Female,2024-10-15_14h56.19.788,jersey_experiment_5_v3,2023.2.2,Win32,85.47008547,,,,,,,,,,,,,,,,839.6668,840.9666,840.9667,841.9724,return,0.4148,,75.78125,,,,,,FBP-PT-19.png,0.37,1.2,27,0.5,,,,,,,,,,,,,0,53,53,26,1,,,,,,,,,,,,,,,,,,,,,,,,,,,,
,,,,,V3_009,21,Female,2024-10-15_14h56.19.788,jersey_experiment_5_v3,2023.2.2,Win32,85.47008547,,,,,,,,,,,,,,,,841.9726,843.5195,843.5195,844.2962,return,0.3154,,75.78125,,,,,,FBP-OG-17.png,0.4,1.2,33,0.75,,,,,,,,,,,,,0,54,54,32,1,,,,,,,,,,,,,,,,,,,,,,,,,,,,
,,,,,V3_009,21,Female,2024-10-15_14h56.19.788,jersey_experiment_5_v3,2023.2.2,Win32,85.47008547,,,,,,,,,,,,,,,,844.2964,845.5963,845.5963,846.7962,return,0.2737,,99.73958333,,,,,,FBP-RB-18.png,0.45,1.2,55,0.5,,,,,,,,,,,,,0,55,55,54,1,,,,,,,,,,,,,,,,,,,,,,,,,,,,
,,,,,V3_009,21,Female,2024-10-15_14h56.19.788,jersey_experiment_5_v3,2023.2.2,Win32,85.47008547,,,,,,,,,,,,,,,,846.7964,848.3493,848.3495,849.8086,return,0.2742,,25.390625,,,,,,FBP-OG-18.png,0.37,1.2,37,0.75,,,,,,,,,,,,,0,56,56,36,1,,,,,,,,,,,,,,,,,,,,,,,,,,,,
,,,,,V3_009,21,Female,2024-10-15_14h56.19.788,jersey_experiment_5_v3,2023.2.2,Win32,85.47008547,,,,,,,,,,,,,,,,849.8087,851.1081,851.1081,852.3968,return,0.2271,,0.390625,,,,,,FBP-PT-18.png,0.35,1.2,21,0.5,,,,,,,,,,,,,0,57,57,20,1,,,,,,,,,,,,,,,,,,,,,,,,,,,,
,,,,,V3_009,21,Female,2024-10-15_14h56.19.788,jersey_experiment_5_v3,2023.2.2,Win32,85.47008547,,,,,,,,,,,,,,,,852.397,853.6965,853.6965,854.9617,return,0.1886,,75,,,,,,FBP-PT-17.png,0.43,1.2,19,0.5,,,,,,,,,,,,,0,58,58,18,1,,,,,,,,,,,,,,,,,,,,,,,,,,,,
,,,,,V3_009,21,Female,2024-10-15_14h56.19.788,jersey_experiment_5_v3,2023.2.2,Win32,85.47008547,,,,,,,,,,,,,,,,854.9618,856.5148,856.5148,857.5084,return,0.2514,,26.5625,,,,,,FBP-OG-19.png,0.37,1.2,42,0.75,,,,,,,,,,,,,0,59,59,41,1,,,,,,,,,,,,,,,,,,,,,,,,,,,,
,,,,,V3_009,21,Female,2024-10-15_14h56.19.788,jersey_experiment_5_v3,2023.2.2,Win32,85.47008547,,,,,,,,,,,,,,,,857.5097,858.8053,858.8054,860.3556,return,0.216,,99.34895833,,,,,,FBP-RB-91.png,0.43,1.2,59,0.5,,,,,,,,,,,,,,,,,,0,0,0,58,1,,,,,,,,,,,,,,,,,,,,,,,
,,,,,V3_009,21,Female,2024-10-15_14h56.19.788,jersey_experiment_5_v3,2023.2.2,Win32,85.47008547,,,,,,,,,,,,,,,,860.3558,861.6496,861.6496,862.4684,return,0.204,,99.34895833,,,,,,FBP-RB-71.png,0.45,1.2,50,0.5,,,,,,,,,,,,,,,,,,0,1,1,49,1,,,,,,,,,,,,,,,,,,,,,,,
,,,,,V3_009,21,Female,2024-10-15_14h56.19.788,jersey_experiment_5_v3,2023.2.2,Win32,85.47008547,,,,,,,,,,,,,,,,862.4685,863.7616,863.7616,864.9558,return,0.2213,,74.21875,,,,,,FBP-YG-17.png,0.37,1.2,2,0.5,,,,,,,,,,,,,,,,,,0,2,2,1,1,,,,,,,,,,,,,,,,,,,,,,,
,,,,,V3_009,21,Female,2024-10-15_14h56.19.788,jersey_experiment_5_v3,2023.2.2,Win32,85.47008547,,,,,,,,,,,,,,,,864.956,866.2498,866.2499,867.4797,return,0.18,,25.390625,,,,,,FBP-RB-81.png,0.35,1.2,51,0.5,,,,,,,,,,,,,,,,,,0,3,3,50,1,,,,,,,,,,,,,,,,,,,,,,,
,,,,,V3_009,21,Female,2024-10-15_14h56.19.788,jersey_experiment_5_v3,2023.2.2,Win32,85.47008547,,,,,,,,,,,,,,,,867.4799,868.7734,868.7734,869.7795,return,0.1792,,25.13020833,,,,,,FBP-PT-81.png,0.37,1.2,22,0.5,,,,,,,,,,,,,,,,,,0,4,4,21,1,,,,,,,,,,,,,,,,,,,,,,,
,,,,,V3_009,21,Female,2024-10-15_14h56.19.788,jersey_experiment_5_v3,2023.2.2,Win32,85.47008547,,,,,,,,,,,,,,,,869.7797,871.0734,871.0735,872.6329,return,0.2119,,73.95833333,,,,,,FBP-RB-81.png,0.37,1.2,52,0.5,,,,,,,,,,,,,,,,,,0,5,5,51,1,,,,,,,,,,,,,,,,,,,,,,,
,,,,,V3_009,21,Female,2024-10-15_14h56.19.788,jersey_experiment_5_v3,2023.2.2,Win32,85.47008547,,,,,,,,,,,,,,,,872.6331,873.9269,873.9269,875.156,return,0.2605,,98.046875,,,,,,FBP-PT-91.png,0.45,1.2,30,0.5,,,,,,,,,,,,,,,,,,0,6,6,29,1,,,,,,,,,,,,,,,,,,,,,,,
,,,,,V3_009,21,Female,2024-10-15_14h56.19.788,jersey_experiment_5_v3,2023.2.2,Win32,85.47008547,,,,,,,,,,,,,,,,875.1563,876.4503,876.4503,877.4416,return,0.2119,,75.91145833,,,,,,FBP-RB-71.png,0.37,1.2,47,0.5,,,,,,,,,,,,,,,,,,0,7,7,46,1,,,,,,,,,,,,,,,,,,,,,,,
,,,,,V3_009,21,Female,2024-10-15_14h56.19.788,jersey_experiment_5_v3,2023.2.2,Win32,85.47008547,,,,,,,,,,,,,,,,877.4418,878.7503,878.7503,880.1392,return,0.2977,,26.171875,,,,,,FBP-YG-19.png,0.37,1.2,12,0.5,,,,,,,,,,,,,,,,,,0,8,8,11,1,,,,,,,,,,,,,,,,,,,,,,,
,,,,,V3_009,21,Female,2024-10-15_14h56.19.788,jersey_experiment_5_v3,2023.2.2,Win32,85.47008547,,,,,,,,,,,,,,,,880.1393,881.4331,881.4331,883.0568,return,0.4708,,99.21875,,,,,,FBP-YG-18.png,0.45,1.2,10,0.5,,,,,,,,,,,,,,,,,,0,9,9,9,1,,,,,,,,,,,,,,,,,,,,,,,
,,,,,V3_009,21,Female,2024-10-15_14h56.19.788,jersey_experiment_5_v3,2023.2.2,Win32,85.47008547,,,,,,,,,,,,,,,,883.0571,884.3507,884.3508,885.5917,return,0.2457,,76.04166667,,,,,,FBP-YG-19.png,0.4,1.2,13,0.5,,,,,,,,,,,,,,,,,,0,10,10,12,1,,,,,,,,,,,,,,,,,,,,,,,
,,,,,V3_009,21,Female,2024-10-15_14h56.19.788,jersey_experiment_5_v3,2023.2.2,Win32,85.47008547,,,,,,,,,,,,,,,,885.592,887.1448,887.1448,888.642,return,0.2355,,24.47916667,,,,,,FBP-OG-91.png,0.4,1.2,43,0.75,,,,,,,,,,,,,,,,,,0,11,11,42,1,,,,,,,,,,,,,,,,,,,,,,,
,,,,,V3_009,21,Female,2024-10-15_14h56.19.788,jersey_experiment_5_v3,2023.2.2,Win32,85.47008547,,,,,,,,,,,,,,,,888.6422,889.9448,889.9449,891.4626,return,0.2592,,99.08854167,,,,,,FBP-PT-71.png,0.45,1.2,20,0.5,,,,,,,,,,,,,,,,,,0,12,12,19,1,,,,,,,,,,,,,,,,,,,,,,,
,,,,,V3_009,21,Female,2024-10-15_14h56.19.788,jersey_experiment_5_v3,2023.2.2,Win32,85.47008547,,,,,,,,,,,,,,,,891.463,892.7567,892.7568,893.6508,return,0.2769,,99.08854167,,,,,,FBP-RB-81.png,0.43,1.2,54,0.5,,,,,,,,,,,,,,,,,,0,13,13,53,1,,,,,,,,,,,,,,,,,,,,,,,
,,,,,V3_009,21,Female,2024-10-15_14h56.19.788,jersey_experiment_5_v3,2023.2.2,Win32,85.47008547,,,,,,,,,,,,,,,,893.6511,894.945,894.945,895.9921,return,0.2684,,99.08854167,,,,,,FBP-PT-91.png,0.43,1.2,29,0.5,,,,,,,,,,,,,,,,,,0,14,14,28,1,,,,,,,,,,,,,,,,,,,,,,,
,,,,,V3_009,21,Female,2024-10-15_14h56.19.788,jersey_experiment_5_v3,2023.2.2,Win32,85.47008547,,,,,,,,,,,,,,,,895.9925,897.2864,897.2864,898.2097,return,0.4235,,99.08854167,,,,,,FBP-RB-71.png,0.4,1.2,48,0.5,,,,,,,,,,,,,,,,,,0,15,15,47,1,,,,,,,,,,,,,,,,,,,,,,,
,,,,,V3_009,21,Female,2024-10-15_14h56.19.788,jersey_experiment_5_v3,2023.2.2,Win32,85.47008547,,,,,,,,,,,,,,,,898.21,899.5098,899.5099,903.0277,return,1.1115,,76.171875,,,,,,FBP-PT-81.png,0.45,1.2,25,0.5,,,,,,,,,,,,,,,,,,0,16,16,24,1,,,,,,,,,,,,,,,,,,,,,,,
,,,,,V3_009,21,Female,2024-10-15_14h56.19.788,jersey_experiment_5_v3,2023.2.2,Win32,85.47008547,,,,,,,,,,,,,,,,903.028,904.3218,904.3219,907.2223,return,0.8387,,74.47916667,,,,,,FBP-RB-91.png,0.37,1.2,57,0.5,,,,,,,,,,,,,,,,,,0,17,17,56,1,,,,,,,,,,,,,,,,,,,,,,,
,,,,,V3_009,21,Female,2024-10-15_14h56.19.788,jersey_experiment_5_v3,2023.2.2,Win32,85.47008547,,,,,,,,,,,,,,,,907.2225,908.5253,908.5253,910.628,return,0.8995,,25.78125,,,,,,FBP-RB-71.png,0.35,1.2,46,0.5,,,,,,,,,,,,,,,,,,0,18,18,45,1,,,,,,,,,,,,,,,,,,,,,,,
,,,,,V3_009,21,Female,2024-10-15_14h56.19.788,jersey_experiment_5_v3,2023.2.2,Win32,85.47008547,,,,,,,,,,,,,,,,910.6284,912.1869,912.1869,914.1017,return,1.0826,,25.390625,,,,,,FBP-OG-71.png,0.35,1.2,31,0.75,,,,,,,,,,,,,,,,,,0,19,19,30,1,,,,,,,,,,,,,,,,,,,,,,,
,,,,,V3_009,21,Female,2024-10-15_14h56.19.788,jersey_experiment_5_v3,2023.2.2,Win32,85.47008547,,,,,,,,,,,,,,,,914.1018,915.6463,915.6463,917.7638,return,1.1057,,99.73958333,,,,,,FBP-OG-71.png,0.45,1.2,35,0.75,,,,,,,,,,,,,,,,,,0,20,20,34,1,,,,,,,,,,,,,,,,,,,,,,,
,,,,,V3_009,21,Female,2024-10-15_14h56.19.788,jersey_experiment_5_v3,2023.2.2,Win32,85.47008547,,,,,,,,,,,,,,,,917.764,919.0664,919.0664,920.9814,return,0.9067,,76.04166667,,,,,,FBP-PT-81.png,0.4,1.2,23,0.5,,,,,,,,,,,,,,,,,,0,21,21,22,1,,,,,,,,,,,,,,,,,,,,,,,
,,,,,V3_009,21,Female,2024-10-15_14h56.19.788,jersey_experiment_5_v3,2023.2.2,Win32,85.47008547,,,,,,,,,,,,,,,,920.9816,922.2815,922.2815,924.0403,return,0.9042,,99.609375,,,,,,FBP-RB-71.png,0.43,1.2,49,0.5,,,,,,,,,,,,,,,,,,0,22,22,48,1,,,,,,,,,,,,,,,,,,,,,,,
,,,,,V3_009,21,Female,2024-10-15_14h56.19.788,jersey_experiment_5_v3,2023.2.2,Win32,85.47008547,,,,,,,,,,,,,,,,924.0405,925.3344,925.3344,926.6522,return,0.7621,,99.609375,,,,,,FBP-YG-17.png,0.43,1.2,4,0.5,,,,,,,,,,,,,,,,,,0,23,23,3,1,,,,,,,,,,,,,,,,,,,,,,,
,,,,,V3_009,21,Female,2024-10-15_14h56.19.788,jersey_experiment_5_v3,2023.2.2,Win32,85.47008547,,,,,,,,,,,,,,,,926.6525,927.9522,927.9522,929.6404,return,0.6834,,74.73958333,,,,,,FBP-PT-71.png,0.4,1.2,18,0.5,,,,,,,,,,,,,,,,,,0,24,24,17,1,,,,,,,,,,,,,,,,,,,,,,,
,,,,,V3_009,21,Female,2024-10-15_14h56.19.788,jersey_experiment_5_v3,2023.2.2,Win32,85.47008547,,,,,,,,,,,,,,,,929.6407,931.1934,931.1935,932.3581,return,0.6739,,73.95833333,,,,,,FBP-OG-91.png,0.35,1.2,41,0.75,,,,,,,,,,,,,,,,,,0,25,25,40,1,,,,,,,,,,,,,,,,,,,,,,,
,,,,,V3_009,21,Female,2024-10-15_14h56.19.788,jersey_experiment_5_v3,2023.2.2,Win32,85.47008547,,,,,,,,,,,,,,,,932.3584,933.6554,933.6555,935.7646,return,0.6827,,75.52083333,,,,,,FBP-YG-18.png,0.35,1.2,6,0.5,,,,,,,,,,,,,,,,,,0,26,26,5,1,,,,,,,,,,,,,,,,,,,,,,,
,,,,,V3_009,21,Female,2024-10-15_14h56.19.788,jersey_experiment_5_v3,2023.2.2,Win32,85.47008547,,,,,,,,,,,,,,,,935.7648,937.067,937.067,938.706,return,0.7447,,99.08854167,,,,,,FBP-YG-19.png,0.43,1.2,14,0.5,,,,,,,,,,,,,,,,,,0,27,27,13,1,,,,,,,,,,,,,,,,,,,,,,,
,,,,,V3_009,21,Female,2024-10-15_14h56.19.788,jersey_experiment_5_v3,2023.2.2,Win32,85.47008547,,,,,,,,,,,,,,,,938.7061,940.0056,940.0057,941.3646,return,0.8232,,99.08854167,,,,,,FBP-YG-18.png,0.43,1.2,9,0.5,,,,,,,,,,,,,,,,,,0,28,28,8,1,,,,,,,,,,,,,,,,,,,,,,,
,,,,,V3_009,21,Female,2024-10-15_14h56.19.788,jersey_experiment_5_v3,2023.2.2,Win32,85.47008547,,,,,,,,,,,,,,,,941.3648,942.6675,942.6675,944.471,return,0.7448,,75.65104167,,,,,,FBP-PT-71.png,0.35,1.2,16,0.5,,,,,,,,,,,,,,,,,,0,29,29,15,1,,,,,,,,,,,,,,,,,,,,,,,
,,,,,V3_009,21,Female,2024-10-15_14h56.19.788,jersey_experiment_5_v3,2023.2.2,Win32,85.47008547,,,,,,,,,,,,,,,,944.4711,946.0176,946.0176,947.7824,return,0.6849,,75.65104167,,,,,,FBP-OG-71.png,0.4,1.2,33,0.75,,,,,,,,,,,,,,,,,,0,30,30,32,1,,,,,,,,,,,,,,,,,,,,,,,
,,,,,V3_009,21,Female,2024-10-15_14h56.19.788,jersey_experiment_5_v3,2023.2.2,Win32,85.47008547,,,,,,,,,,,,,,,,947.7826,949.3414,949.3414,951.1001,return,1.091,,98.95833333,,,,,,FBP-OG-71.png,0.43,1.2,34,0.75,,,,,,,,,,,,,,,,,,0,31,31,33,1,,,,,,,,,,,,,,,,,,,,,,,
,,,,,V3_009,21,Female,2024-10-15_14h56.19.788,jersey_experiment_5_v3,2023.2.2,Win32,85.47008547,,,,,,,,,,,,,,,,951.1004,952.3944,952.3944,954.5472,return,0.897,,75.91145833,,,,,,FBP-PT-91.png,0.4,1.2,28,0.5,,,,,,,,,,,,,,,,,,0,32,32,27,1,,,,,,,,,,,,,,,,,,,,,,,
,,,,,V3_009,21,Female,2024-10-15_14h56.19.788,jersey_experiment_5_v3,2023.2.2,Win32,85.47008547,,,,,,,,,,,,,,,,954.5474,955.8449,955.8449,957.7944,return,0.8184,,99.08854167,,,,,,FBP-RB-91.png,0.45,1.2,60,0.5,,,,,,,,,,,,,,,,,,0,33,33,59,1,,,,,,,,,,,,,,,,,,,,,,,
,,,,,V3_009,21,Female,2024-10-15_14h56.19.788,jersey_experiment_5_v3,2023.2.2,Win32,85.47008547,,,,,,,,,,,,,,,,957.7946,959.0917,959.0917,960.9655,return,0.8001,,75.390625,,,,,,FBP-RB-91.png,0.35,1.2,56,0.5,,,,,,,,,,,,,,,,,,0,34,34,55,1,,,,,,,,,,,,,,,,,,,,,,,
,,,,,V3_009,21,Female,2024-10-15_14h56.19.788,jersey_experiment_5_v3,2023.2.2,Win32,85.47008547,,,,,,,,,,,,,,,,960.9657,962.5186,962.5187,964.4954,return,0.7917,,99.34895833,,,,,,FBP-OG-91.png,0.45,1.2,45,0.75,,,,,,,,,,,,,,,,,,0,35,35,44,1,,,,,,,,,,,,,,,,,,,,,,,
,,,,,V3_009,21,Female,2024-10-15_14h56.19.788,jersey_experiment_5_v3,2023.2.2,Win32,85.47008547,,,,,,,,,,,,,,,,964.4957,965.7949,965.7949,967.7479,return,0.7318,,74.609375,,,,,,FBP-RB-81.png,0.4,1.2,53,0.5,,,,,,,,,,,,,,,,,,0,36,36,52,1,,,,,,,,,,,,,,,,,,,,,,,
,,,,,V3_009,21,Female,2024-10-15_14h56.19.788,jersey_experiment_5_v3,2023.2.2,Win32,85.47008547,,,,,,,,,,,,,,,,967.7481,969.0419,969.0419,970.9745,return,0.8239,,25.91145833,,,,,,FBP-PT-91.png,0.35,1.2,26,0.5,,,,,,,,,,,,,,,,,,0,37,37,25,1,,,,,,,,,,,,,,,,,,,,,,,
,,,,,V3_009,21,Female,2024-10-15_14h56.19.788,jersey_experiment_5_v3,2023.2.2,Win32,85.47008547,,,,,,,,,,,,,,,,970.9747,972.5275,972.5275,974.4724,return,0.8005,,72.78645833,,,,,,FBP-OG-81.png,0.43,1.2,39,0.75,,,,,,,,,,,,,,,,,,0,38,38,38,1,,,,,,,,,,,,,,,,,,,,,,,
,,,,,V3_009,21,Female,2024-10-15_14h56.19.788,jersey_experiment_5_v3,2023.2.2,Win32,85.47008547,,,,,,,,,,,,,,,,974.4725,975.7658,975.7659,978.166,return,1.615,,76.5625,,,,,,FBP-PT-91.png,0.37,1.2,27,0.5,,,,,,,,,,,,,,,,,,0,39,39,26,1,,,,,,,,,,,,,,,,,,,,,,,
,,,,,V3_009,21,Female,2024-10-15_14h56.19.788,jersey_experiment_5_v3,2023.2.2,Win32,85.47008547,,,,,,,,,,,,,,,,978.1662,979.7191,979.7191,981.7835,return,0.6132,,24.08854167,,,,,,FBP-OG-91.png,0.37,1.2,42,0.75,,,,,,,,,,,,,,,,,,0,40,40,41,1,,,,,,,,,,,,,,,,,,,,,,,
,,,,,V3_009,21,Female,2024-10-15_14h56.19.788,jersey_experiment_5_v3,2023.2.2,Win32,85.47008547,,,,,,,,,,,,,,,,981.7837,983.084,983.084,984.572,return,0.3065,,25.390625,,,,,,FBP-PT-71.png,0.37,1.2,17,0.5,,,,,,,,,,,,,,,,,,0,41,41,16,1,,,,,,,,,,,,,,,,,,,,,,,
,,,,,V3_009,21,Female,2024-10-15_14h56.19.788,jersey_experiment_5_v3,2023.2.2,Win32,85.47008547,,,,,,,,,,,,,,,,984.5723,985.866,985.866,987.6074,return,0.2589,,99.73958333,,,,,,FBP-YG-17.png,0.45,1.2,5,0.5,,,,,,,,,,,,,,,,,,0,42,42,4,1,,,,,,,,,,,,,,,,,,,,,,,
,,,,,V3_009,21,Female,2024-10-15_14h56.19.788,jersey_experiment_5_v3,2023.2.2,Win32,85.47008547,,,,,,,,,,,,,,,,987.6077,988.9047,988.9047,991.1871,return,1.0591,,99.08854167,,,,,,FBP-YG-18.png,0.4,1.2,8,0.5,,,,,,,,,,,,,,,,,,0,43,43,7,1,,,,,,,,,,,,,,,,,,,,,,,
,,,,,V3_009,21,Female,2024-10-15_14h56.19.788,jersey_experiment_5_v3,2023.2.2,Win32,85.47008547,,,,,,,,,,,,,,,,991.1873,992.4899,992.49,995.4901,return,0.8897,,75.65104167,,,,,,FBP-PT-71.png,0.43,1.2,19,0.5,,,,,,,,,,,,,,,,,,0,44,44,18,1,,,,,,,,,,,,,,,,,,,,,,,
,,,,,V3_009,21,Female,2024-10-15_14h56.19.788,jersey_experiment_5_v3,2023.2.2,Win32,85.47008547,,,,,,,,,,,,,,,,995.4903,996.7841,996.7841,999.2026,return,1.1216,,99.73958333,,,,,,FBP-RB-81.png,0.45,1.2,55,0.5,,,,,,,,,,,,,,,,,,0,45,45,54,1,,,,,,,,,,,,,,,,,,,,,,,
,,,,,V3_009,21,Female,2024-10-15_14h56.19.788,jersey_experiment_5_v3,2023.2.2,Win32,85.47008547,,,,,,,,,,,,,,,,999.2029,1000.5019,1000.5019,1003.2722,return,0.932,,75.78125,,,,,,FBP-RB-91.png,0.4,1.2,58,0.5,,,,,,,,,,,,,,,,,,0,46,46,57,1,,,,,,,,,,,,,,,,,,,,,,,
,,,,,V3_009,21,Female,2024-10-15_14h56.19.788,jersey_experiment_5_v3,2023.2.2,Win32,85.47008547,,,,,,,,,,,,,,,,1003.2725,1004.5728,1004.5729,1009.3963,return,1.1781,,99.86979167,,,,,,FBP-YG-19.png,0.45,1.2,15,0.5,,,,,,,,,,,,,,,,,,0,47,47,14,1,,,,,,,,,,,,,,,,,,,,,,,
,,,,,V3_009,21,Female,2024-10-15_14h56.19.788,jersey_experiment_5_v3,2023.2.2,Win32,85.47008547,,,,,,,,,,,,,,,,1009.3966,1010.9438,1010.9438,1013.4907,return,0.8505,,0.911458333,,,,,,FBP-OG-81.png,0.35,1.2,36,0.75,,,,,,,,,,,,,,,,,,0,48,48,35,1,,,,,,,,,,,,,,,,,,,,,,,
,,,,,V3_009,21,Female,2024-10-15_14h56.19.788,jersey_experiment_5_v3,2023.2.2,Win32,85.47008547,,,,,,,,,,,,,,,,1013.4909,1014.7849,1014.7849,1018.4027,return,0.8234,,25.26041667,,,,,,FBP-YG-19.png,0.35,1.2,11,0.5,,,,,,,,,,,,,,,,,,0,49,49,10,1,,,,,,,,,,,,,,,,,,,,,,,
,,,,,V3_009,21,Female,2024-10-15_14h56.19.788,jersey_experiment_5_v3,2023.2.2,Win32,85.47008547,,,,,,,,,,,,,,,,1018.403,1019.9558,1019.9558,1024.9146,return,0.7917,,25.78125,,,,,,FBP-OG-81.png,0.37,1.2,37,0.75,,,,,,,,,,,,,,,,,,0,50,50,36,1,,,,,,,,,,,,,,,,,,,,,,,
,,,,,V3_009,21,Female,2024-10-15_14h56.19.788,jersey_experiment_5_v3,2023.2.2,Win32,85.47008547,,,,,,,,,,,,,,,,1024.9148,1026.4676,1026.4676,1029.656,return,0.8942,,75,,,,,,FBP-OG-91.png,0.43,1.2,44,0.75,,,,,,,,,,,,,,,,,,0,51,51,43,1,,,,,,,,,,,,,,,,,,,,,,,
,,,,,V3_009,21,Female,2024-10-15_14h56.19.788,jersey_experiment_5_v3,2023.2.2,Win32,85.47008547,,,,,,,,,,,,,,,,1029.6562,1030.9502,1030.9502,1032.7854,return,1.2987,,75,,,,,,FBP-YG-17.png,0.4,1.2,3,0.5,,,,,,,,,,,,,,,,,,0,52,52,2,1,,,,,,,,,,,,,,,,,,,,,,,
,,,,,V3_009,21,Female,2024-10-15_14h56.19.788,jersey_experiment_5_v3,2023.2.2,Win32,85.47008547,,,,,,,,,,,,,,,,1032.7858,1034.0797,1034.0797,1035.7033,return,0.5415,,98.69791667,,,,,,FBP-PT-81.png,0.43,1.2,24,0.5,,,,,,,,,,,,,,,,,,0,53,53,23,1,,,,,,,,,,,,,,,,,,,,,,,
,,,,,V3_009,21,Female,2024-10-15_14h56.19.788,jersey_experiment_5_v3,2023.2.2,Win32,85.47008547,,,,,,,,,,,,,,,,1035.7036,1037.2508,1037.2508,1038.5534,return,0.3057,,75,,,,,,FBP-OG-71.png,0.37,1.2,32,0.75,,,,,,,,,,,,,,,,,,0,54,54,31,1,,,,,,,,,,,,,,,,,,,,,,,
,,,,,V3_009,21,Female,2024-10-15_14h56.19.788,jersey_experiment_5_v3,2023.2.2,Win32,85.47008547,,,,,,,,,,,,,,,,1038.5536,1039.8626,1039.8627,1040.9152,return,0.4297,,74.86979167,,,,,,FBP-YG-18.png,0.37,1.2,7,0.5,,,,,,,,,,,,,,,,,,0,55,55,6,1,,,,,,,,,,,,,,,,,,,,,,,
,,,,,V3_009,21,Female,2024-10-15_14h56.19.788,jersey_experiment_5_v3,2023.2.2,Win32,85.47008547,,,,,,,,,,,,,,,,1040.9155,1042.2094,1042.2095,1044.898,return,0.4001,,25.65104167,,,,,,FBP-PT-81.png,0.35,1.2,21,0.5,,,,,,,,,,,,,,,,,,0,56,56,20,1,,,,,,,,,,,,,,,,,,,,,,,
,,,,,V3_009,21,Female,2024-10-15_14h56.19.788,jersey_experiment_5_v3,2023.2.2,Win32,85.47008547,,,,,,,,,,,,,,,,1044.8982,1046.4449,1046.445,1047.227,return,0.3995,,25.65104167,,,,,,FBP-OG-81.png,0.4,1.2,38,0.75,,,,,,,,,,,,,,,,,,0,57,57,37,1,,,,,,,,,,,,,,,,,,,,,,,
,,,,,V3_009,21,Female,2024-10-15_14h56.19.788,jersey_experiment_5_v3,2023.2.2,Win32,85.47008547,,,,,,,,,,,,,,,,1047.2272,1048.5273,1048.5273,1051.3455,return,0.7766,,74.73958333,,,,,,FBP-YG-17.png,0.35,1.2,1,0.5,,,,,,,,,,,,,,,,,,0,58,58,0,1,,,,,,,,,,,,,,,,,,,,,,,
,,,,,V3_009,21,Female,2024-10-15_14h56.19.788,jersey_experiment_5_v3,2023.2.2,Win32,85.47008547,,,,,,,,,,,,,,,,1051.3457,1052.892,1052.8921,1054.5072,return,0.8325,,99.34895833,,,,,,FBP-OG-81.png,0.45,1.2,40,0.75,,,,,,,,,,,,,,,,,,0,59,59,39,1,,,,,,,,,,,,,,,,,,,,,,,
,,,,,V3_009,21,Female,2024-10-15_14h56.19.788,jersey_experiment_5_v3,2023.2.2,Win32,85.47008547,,,,,,,,,,,,,,,,,,,,,,,,,,,,,,,,,,,,,,,,,,,,,,,,,,,,,,,,1054.5073,1059.5749,return,5.0464,,,,,,,,,,,,,,,,,,,
,,,,,V3_009,21,Female,2024-10-15_14h56.19.788,jersey_experiment_5_v3,2023.2.2,Win32,85.47008547,,,,,,,,,,,,,,,,,,,,,,,,,,,,,,,,,,,,,,,,,,,,,,,,,,,,,,,,,,,,,1059.575,1063.6574,1,2.8092,return,1.247,,,,,,,,,,,,
,,,,,V3_009,21,Female,2024-10-15_14h56.19.788,jersey_experiment_5_v3,2023.2.2,Win32,85.47008547,,,,,,,,,,,,,,,,,,,,,,,,,,,,,,,,,,,,,,,,,,,,,,,,,,,,,,,,,,,,,,,,,,,,1063.6576,1132.825,No I am not sure. The only patterns I recognized was alternating skin and jersey colors.,right,63.8849,,,,,,
,,,,,V3_009,21,Female,2024-10-15_14h56.19.788,jersey_experiment_5_v3,2023.2.2,Win32,85.47008547,,,,,,,,,,,,,,,,,,,,,,,,,,,,,,,,,,,,,,,,,,,,,,,,,,,,,,,,,,,,,,,,,,,,,,,,,,1132.8252,1137.4513,return,4.6118,