requirements.started,requirements.stopped,key_resp_3.keys,key_resp_3.rt,key_resp_3.duration,Subject ID,Age,Gender,date,expName,psychopyVersion,OS,frameRate,instructions1.started,instructions1.stopped,key_resp.keys,key_resp.rt,key_resp.duration,example.started,example.stopped,enter_2.keys,enter_2.rt,enter_2.duration,instructions2.started,instructions2.stopped,enter_3.keys,enter_3.rt,enter_3.duration,image.started,image.stopped,slider_2.started,slider_2.stopped,next.keys,next.rt,next.duration,slider.response,trial_block_1.thisRepN,trial_block_1.thisTrialN,trial_block_1.thisN,trial_block_1.thisIndex,trial_block_1.ran,Path,Width,Height,Index,Duration,trial_block_2.thisRepN,trial_block_2.thisTrialN,trial_block_2.thisN,trial_block_2.thisIndex,trial_block_2.ran,rest_break.started,rest_break.stopped,end_break.started,end_break.stopped,key_resp_5.keys,key_resp_5.rt,key_resp_5.duration,trial_block_3.thisRepN,trial_block_3.thisTrialN,trial_block_3.thisN,trial_block_3.thisIndex,trial_block_3.ran,trial_block_4.thisRepN,trial_block_4.thisTrialN,trial_block_4.thisN,trial_block_4.thisIndex,trial_block_4.ran,questions_intro.started,questions_intro.stopped,enter_12.keys,enter_12.rt,enter_12.duration,question2.started,question2.stopped,question_doingbest.response,question_doingbest.rt,enter_15.keys,enter_15.rt,enter_15.duration,pattern.started,pattern.stopped,pattern_2.text,enter_17.keys,enter_17.rt,enter_17.duration,thankyou.started,thankyou.stopped,enter_14.keys,enter_14.rt,enter_14.duration
0.0001,19.8731,return,19.8673,,V3_089,20,female,2024-11-22_17h30.53.216,jersey_experiment_5_v3,2023.2.2,Win32,84.74576271,,,,,,,,,,,,,,,,,,,,,,,,,,,,,,,,,,,,,,,,,,,,,,,,,,,,,,,,,,,,,,,,,,,,,,,,,,,,,,
,,,,,V3_089,20,female,2024-11-22_17h30.53.216,jersey_experiment_5_v3,2023.2.2,Win32,84.74576271,19.8732,30.8533,return,10.9652,,,,,,,,,,,,,,,,,,,,,,,,,,,,,,,,,,,,,,,,,,,,,,,,,,,,,,,,,,,,,,,,,,,,,,,,,,
,,,,,V3_089,20,female,2024-11-22_17h30.53.216,jersey_experiment_5_v3,2023.2.2,Win32,84.74576271,,,,,,30.8533,40.6237,return,9.7356,,,,,,,,,,,,,,,,,,,,,,,,,,,,,,,,,,,,,,,,,,,,,,,,,,,,,,,,,,,,,,,,,,,,,
,,,,,V3_089,20,female,2024-11-22_17h30.53.216,jersey_experiment_5_v3,2023.2.2,Win32,84.74576271,,,,,,,,,,,40.6237,63.7421,return,23.1055,,,,,,,,,,,,,,,,,,,,,,,,,,,,,,,,,,,,,,,,,,,,,,,,,,,,,,,,,,,,,,,,
,,,,,V3_089,20,female,2024-11-22_17h30.53.216,jersey_experiment_5_v3,2023.2.2,Win32,84.74576271,,,,,,,,,,,,,,,,63.7442,65.295,65.2951,77.2602,return,1.1211,,75,0,0,0,49,1,FBP-RB-17.png,0.45,1.2,50,0.75,,,,,,,,,,,,,,,,,,,,,,,,,,,,,,,,,,,,,,,,,,,,,
,,,,,V3_089,20,female,2024-11-22_17h30.53.216,jersey_experiment_5_v3,2023.2.2,Win32,84.74576271,,,,,,,,,,,,,,,,77.2606,78.5545,78.5545,82.4958,return,0.9414,,66.796875,0,1,1,42,1,FBP-OG-19.png,0.4,1.2,43,0.5,,,,,,,,,,,,,,,,,,,,,,,,,,,,,,,,,,,,,,,,,,,,,
,,,,,V3_089,20,female,2024-11-22_17h30.53.216,jersey_experiment_5_v3,2023.2.2,Win32,84.74576271,,,,,,,,,,,,,,,,82.4962,84.0489,84.0489,87.7547,return,0.779,,75.26041667,0,2,2,29,1,FBP-PT-19.png,0.45,1.2,30,0.75,,,,,,,,,,,,,,,,,,,,,,,,,,,,,,,,,,,,,,,,,,,,,
,,,,,V3_089,20,female,2024-11-22_17h30.53.216,jersey_experiment_5_v3,2023.2.2,Win32,84.74576271,,,,,,,,,,,,,,,,87.755,89.3077,89.3078,94.3785,return,0.8505,,72.13541667,0,3,3,8,1,FBP-YG-81.png,0.43,1.2,9,0.75,,,,,,,,,,,,,,,,,,,,,,,,,,,,,,,,,,,,,,,,,,,,,
,,,,,V3_089,20,female,2024-11-22_17h30.53.216,jersey_experiment_5_v3,2023.2.2,Win32,84.74576271,,,,,,,,,,,,,,,,94.3788,95.9316,95.9316,99.4023,return,0.7921,,68.48958333,0,4,4,12,1,FBP-YG-91.png,0.4,1.2,13,0.75,,,,,,,,,,,,,,,,,,,,,,,,,,,,,,,,,,,,,,,,,,,,,
,,,,,V3_089,20,female,2024-11-22_17h30.53.216,jersey_experiment_5_v3,2023.2.2,Win32,84.74576271,,,,,,,,,,,,,,,,99.4026,100.9554,100.9554,106.285,return,0.7543,,68.22916667,0,5,5,52,1,FBP-RB-18.png,0.4,1.2,53,0.75,,,,,,,,,,,,,,,,,,,,,,,,,,,,,,,,,,,,,,,,,,,,,
,,,,,V3_089,20,female,2024-11-22_17h30.53.216,jersey_experiment_5_v3,2023.2.2,Win32,84.74576271,,,,,,,,,,,,,,,,106.2852,107.8379,107.8379,112.7793,return,0.9205,,48.69791667,0,6,6,21,1,FBP-PT-18.png,0.37,1.2,22,0.75,,,,,,,,,,,,,,,,,,,,,,,,,,,,,,,,,,,,,,,,,,,,,
,,,,,V3_089,20,female,2024-11-22_17h30.53.216,jersey_experiment_5_v3,2023.2.2,Win32,84.74576271,,,,,,,,,,,,,,,,112.7795,114.0735,114.0735,115.9677,return,0.5898,,48.95833333,0,7,7,37,1,FBP-OG-18.png,0.4,1.2,38,0.5,,,,,,,,,,,,,,,,,,,,,,,,,,,,,,,,,,,,,,,,,,,,,
,,,,,V3_089,20,female,2024-11-22_17h30.53.216,jersey_experiment_5_v3,2023.2.2,Win32,84.74576271,,,,,,,,,,,,,,,,115.968,117.5206,117.5206,120.8384,return,1.5803,,24.609375,0,8,8,50,1,FBP-RB-18.png,0.35,1.2,51,0.75,,,,,,,,,,,,,,,,,,,,,,,,,,,,,,,,,,,,,,,,,,,,,
,,,,,V3_089,20,female,2024-11-22_17h30.53.216,jersey_experiment_5_v3,2023.2.2,Win32,84.74576271,,,,,,,,,,,,,,,,120.8386,122.1327,122.1328,126.168,return,0.7229,,69.53125,0,9,9,34,1,FBP-OG-17.png,0.45,1.2,35,0.5,,,,,,,,,,,,,,,,,,,,,,,,,,,,,,,,,,,,,,,,,,,,,
,,,,,V3_089,20,female,2024-11-22_17h30.53.216,jersey_experiment_5_v3,2023.2.2,Win32,84.74576271,,,,,,,,,,,,,,,,126.1683,127.721,127.7211,130.9448,return,0.7642,,52.08333333,0,10,10,47,1,FBP-RB-17.png,0.4,1.2,48,0.75,,,,,,,,,,,,,,,,,,,,,,,,,,,,,,,,,,,,,,,,,,,,,
,,,,,V3_089,20,female,2024-11-22_17h30.53.216,jersey_experiment_5_v3,2023.2.2,Win32,84.74576271,,,,,,,,,,,,,,,,130.945,132.4977,132.4978,134.7095,return,0.5969,,70.44270833,0,11,11,23,1,FBP-PT-18.png,0.43,1.2,24,0.75,,,,,,,,,,,,,,,,,,,,,,,,,,,,,,,,,,,,,,,,,,,,,
,,,,,V3_089,20,female,2024-11-22_17h30.53.216,jersey_experiment_5_v3,2023.2.2,Win32,84.74576271,,,,,,,,,,,,,,,,134.7098,136.2626,136.2627,139.051,return,0.627,,75.13020833,0,12,12,4,1,FBP-YG-71.png,0.45,1.2,5,0.75,,,,,,,,,,,,,,,,,,,,,,,,,,,,,,,,,,,,,,,,,,,,,
,,,,,V3_089,20,female,2024-11-22_17h30.53.216,jersey_experiment_5_v3,2023.2.2,Win32,84.74576271,,,,,,,,,,,,,,,,139.0512,140.6039,140.604,147.2747,return,4.4353,,22.265625,0,13,13,15,1,FBP-PT-17.png,0.35,1.2,16,0.75,,,,,,,,,,,,,,,,,,,,,,,,,,,,,,,,,,,,,,,,,,,,,
,,,,,V3_089,20,female,2024-11-22_17h30.53.216,jersey_experiment_5_v3,2023.2.2,Win32,84.74576271,,,,,,,,,,,,,,,,147.275,148.8277,148.8278,151.5337,return,0.6457,,71.22395833,0,14,14,13,1,FBP-YG-91.png,0.43,1.2,14,0.75,,,,,,,,,,,,,,,,,,,,,,,,,,,,,,,,,,,,,,,,,,,,,
,,,,,V3_089,20,female,2024-11-22_17h30.53.216,jersey_experiment_5_v3,2023.2.2,Win32,84.74576271,,,,,,,,,,,,,,,,151.5341,153.0868,153.0869,154.4633,return,0.6974,,70.83333333,0,15,15,28,1,FBP-PT-19.png,0.43,1.2,29,0.75,,,,,,,,,,,,,,,,,,,,,,,,,,,,,,,,,,,,,,,,,,,,,
,,,,,V3_089,20,female,2024-11-22_17h30.53.216,jersey_experiment_5_v3,2023.2.2,Win32,84.74576271,,,,,,,,,,,,,,,,154.4636,156.0163,156.0164,157.734,return,0.5612,,75.13020833,0,16,16,59,1,FBP-RB-19.png,0.45,1.2,60,0.75,,,,,,,,,,,,,,,,,,,,,,,,,,,,,,,,,,,,,,,,,,,,,
,,,,,V3_089,20,female,2024-11-22_17h30.53.216,jersey_experiment_5_v3,2023.2.2,Win32,84.74576271,,,,,,,,,,,,,,,,157.7342,159.0282,159.0282,165.6167,return,3.6626,,75.13020833,0,17,17,39,1,FBP-OG-18.png,0.45,1.2,40,0.5,,,,,,,,,,,,,,,,,,,,,,,,,,,,,,,,,,,,,,,,,,,,,
,,,,,V3_089,20,female,2024-11-22_17h30.53.216,jersey_experiment_5_v3,2023.2.2,Win32,84.74576271,,,,,,,,,,,,,,,,165.6169,167.1699,167.17,169.6639,return,0.6144,,24.609375,0,18,18,20,1,FBP-PT-18.png,0.35,1.2,21,0.75,,,,,,,,,,,,,,,,,,,,,,,,,,,,,,,,,,,,,,,,,,,,,
,,,,,V3_089,20,female,2024-11-22_17h30.53.216,jersey_experiment_5_v3,2023.2.2,Win32,84.74576271,,,,,,,,,,,,,,,,169.6642,171.2168,171.2168,175.8642,return,1.7579,,54.296875,0,19,19,26,1,FBP-PT-19.png,0.37,1.2,27,0.75,,,,,,,,,,,,,,,,,,,,,,,,,,,,,,,,,,,,,,,,,,,,,
,,,,,V3_089,20,female,2024-11-22_17h30.53.216,jersey_experiment_5_v3,2023.2.2,Win32,84.74576271,,,,,,,,,,,,,,,,175.8643,177.4173,177.4174,182.3468,return,3.3094,,80.72916667,0,20,20,14,1,FBP-YG-91.png,0.45,1.2,15,0.75,,,,,,,,,,,,,,,,,,,,,,,,,,,,,,,,,,,,,,,,,,,,,
,,,,,V3_089,20,female,2024-11-22_17h30.53.216,jersey_experiment_5_v3,2023.2.2,Win32,84.74576271,,,,,,,,,,,,,,,,182.3469,183.8997,183.8999,186.441,return,0.8877,,34.765625,0,21,21,25,1,FBP-PT-19.png,0.35,1.2,26,0.75,,,,,,,,,,,,,,,,,,,,,,,,,,,,,,,,,,,,,,,,,,,,,
,,,,,V3_089,20,female,2024-11-22_17h30.53.216,jersey_experiment_5_v3,2023.2.2,Win32,84.74576271,,,,,,,,,,,,,,,,186.4412,187.7351,187.7352,189.547,return,0.5559,,23.95833333,0,22,22,36,1,FBP-OG-18.png,0.37,1.2,37,0.5,,,,,,,,,,,,,,,,,,,,,,,,,,,,,,,,,,,,,,,,,,,,,
,,,,,V3_089,20,female,2024-11-22_17h30.53.216,jersey_experiment_5_v3,2023.2.2,Win32,84.74576271,,,,,,,,,,,,,,,,189.5472,191.1,191.1,193.5824,return,0.8572,,75.91145833,0,23,23,19,1,FBP-PT-17.png,0.45,1.2,20,0.75,,,,,,,,,,,,,,,,,,,,,,,,,,,,,,,,,,,,,,,,,,,,,
,,,,,V3_089,20,female,2024-11-22_17h30.53.216,jersey_experiment_5_v3,2023.2.2,Win32,84.74576271,,,,,,,,,,,,,,,,193.5827,195.1355,195.1355,196.665,return,0.523,,82.55208333,0,24,24,24,1,FBP-PT-18.png,0.45,1.2,25,0.75,,,,,,,,,,,,,,,,,,,,,,,,,,,,,,,,,,,,,,,,,,,,,
,,,,,V3_089,20,female,2024-11-22_17h30.53.216,jersey_experiment_5_v3,2023.2.2,Win32,84.74576271,,,,,,,,,,,,,,,,196.6652,198.2179,198.218,200.5591,return,0.6122,,46.61458333,0,25,25,11,1,FBP-YG-91.png,0.37,1.2,12,0.75,,,,,,,,,,,,,,,,,,,,,,,,,,,,,,,,,,,,,,,,,,,,,
,,,,,V3_089,20,female,2024-11-22_17h30.53.216,jersey_experiment_5_v3,2023.2.2,Win32,84.74576271,,,,,,,,,,,,,,,,200.5593,202.1122,202.1122,203.5828,return,0.5886,,46.74479167,0,26,26,51,1,FBP-RB-18.png,0.37,1.2,52,0.75,,,,,,,,,,,,,,,,,,,,,,,,,,,,,,,,,,,,,,,,,,,,,
,,,,,V3_089,20,female,2024-11-22_17h30.53.216,jersey_experiment_5_v3,2023.2.2,Win32,84.74576271,,,,,,,,,,,,,,,,203.583,205.1358,205.1359,206.83,return,0.5885,,58.203125,0,27,27,22,1,FBP-PT-18.png,0.4,1.2,23,0.75,,,,,,,,,,,,,,,,,,,,,,,,,,,,,,,,,,,,,,,,,,,,,
,,,,,V3_089,20,female,2024-11-22_17h30.53.216,jersey_experiment_5_v3,2023.2.2,Win32,84.74576271,,,,,,,,,,,,,,,,206.8302,208.3831,208.3831,209.8536,return,0.6014,,67.05729167,0,28,28,58,1,FBP-RB-19.png,0.43,1.2,59,0.75,,,,,,,,,,,,,,,,,,,,,,,,,,,,,,,,,,,,,,,,,,,,,
,,,,,V3_089,20,female,2024-11-22_17h30.53.216,jersey_experiment_5_v3,2023.2.2,Win32,84.74576271,,,,,,,,,,,,,,,,209.8539,211.1479,211.1479,213.4774,return,0.4912,,59.11458333,0,29,29,32,1,FBP-OG-17.png,0.4,1.2,33,0.5,,,,,,,,,,,,,,,,,,,,,,,,,,,,,,,,,,,,,,,,,,,,,
,,,,,V3_089,20,female,2024-11-22_17h30.53.216,jersey_experiment_5_v3,2023.2.2,Win32,84.74576271,,,,,,,,,,,,,,,,213.4776,214.7714,214.7714,216.7127,return,0.523,,75.13020833,0,30,30,44,1,FBP-OG-19.png,0.45,1.2,45,0.5,,,,,,,,,,,,,,,,,,,,,,,,,,,,,,,,,,,,,,,,,,,,,
,,,,,V3_089,20,female,2024-11-22_17h30.53.216,jersey_experiment_5_v3,2023.2.2,Win32,84.74576271,,,,,,,,,,,,,,,,216.713,218.2656,218.2657,219.7836,return,0.5236,,71.484375,0,31,31,3,1,FBP-YG-71.png,0.43,1.2,4,0.75,,,,,,,,,,,,,,,,,,,,,,,,,,,,,,,,,,,,,,,,,,,,,
,,,,,V3_089,20,female,2024-11-22_17h30.53.216,jersey_experiment_5_v3,2023.2.2,Win32,84.74576271,,,,,,,,,,,,,,,,219.7837,221.3365,221.3366,223.2542,return,0.5962,,33.59375,0,32,32,45,1,FBP-RB-17.png,0.35,1.2,46,0.75,,,,,,,,,,,,,,,,,,,,,,,,,,,,,,,,,,,,,,,,,,,,,
,,,,,V3_089,20,female,2024-11-22_17h30.53.216,jersey_experiment_5_v3,2023.2.2,Win32,84.74576271,,,,,,,,,,,,,,,,223.2544,224.8071,224.8072,226.3602,return,0.581,,26.43229167,0,33,33,5,1,FBP-YG-81.png,0.35,1.2,6,0.75,,,,,,,,,,,,,,,,,,,,,,,,,,,,,,,,,,,,,,,,,,,,,
,,,,,V3_089,20,female,2024-11-22_17h30.53.216,jersey_experiment_5_v3,2023.2.2,Win32,84.74576271,,,,,,,,,,,,,,,,226.3604,227.6543,227.6544,229.5369,return,0.6216,,83.85416667,0,34,34,33,1,FBP-OG-17.png,0.43,1.2,34,0.5,,,,,,,,,,,,,,,,,,,,,,,,,,,,,,,,,,,,,,,,,,,,,
,,,,,V3_089,20,female,2024-11-22_17h30.53.216,jersey_experiment_5_v3,2023.2.2,Win32,84.74576271,,,,,,,,,,,,,,,,229.5371,230.8309,230.831,232.6663,return,0.5068,,75.13020833,0,35,35,31,1,FBP-OG-17.png,0.37,1.2,32,0.5,,,,,,,,,,,,,,,,,,,,,,,,,,,,,,,,,,,,,,,,,,,,,
,,,,,V3_089,20,female,2024-11-22_17h30.53.216,jersey_experiment_5_v3,2023.2.2,Win32,84.74576271,,,,,,,,,,,,,,,,232.6667,233.9604,233.9605,235.7017,return,0.5596,,78.64583333,0,36,36,43,1,FBP-OG-19.png,0.43,1.2,44,0.5,,,,,,,,,,,,,,,,,,,,,,,,,,,,,,,,,,,,,,,,,,,,,
,,,,,V3_089,20,female,2024-11-22_17h30.53.216,jersey_experiment_5_v3,2023.2.2,Win32,84.74576271,,,,,,,,,,,,,,,,235.7019,237.2548,237.2548,238.4782,return,0.5288,,78.515625,0,37,37,17,1,FBP-PT-17.png,0.4,1.2,18,0.75,,,,,,,,,,,,,,,,,,,,,,,,,,,,,,,,,,,,,,,,,,,,,
,,,,,V3_089,20,female,2024-11-22_17h30.53.216,jersey_experiment_5_v3,2023.2.2,Win32,84.74576271,,,,,,,,,,,,,,,,238.4784,240.0313,240.0313,241.8078,return,0.5421,,38.15104167,0,38,38,46,1,FBP-RB-17.png,0.37,1.2,47,0.75,,,,,,,,,,,,,,,,,,,,,,,,,,,,,,,,,,,,,,,,,,,,,
,,,,,V3_089,20,female,2024-11-22_17h30.53.216,jersey_experiment_5_v3,2023.2.2,Win32,84.74576271,,,,,,,,,,,,,,,,241.808,243.3609,243.3609,244.5845,return,0.5354,,38.15104167,0,39,39,2,1,FBP-YG-71.png,0.4,1.2,3,0.75,,,,,,,,,,,,,,,,,,,,,,,,,,,,,,,,,,,,,,,,,,,,,
,,,,,V3_089,20,female,2024-11-22_17h30.53.216,jersey_experiment_5_v3,2023.2.2,Win32,84.74576271,,,,,,,,,,,,,,,,244.5847,246.1375,246.1375,248.2316,return,0.7007,,25.26041667,0,40,40,56,1,FBP-RB-19.png,0.37,1.2,57,0.75,,,,,,,,,,,,,,,,,,,,,,,,,,,,,,,,,,,,,,,,,,,,,
,,,,,V3_089,20,female,2024-11-22_17h30.53.216,jersey_experiment_5_v3,2023.2.2,Win32,84.74576271,,,,,,,,,,,,,,,,248.2319,249.7847,249.7847,251.4082,return,0.6982,,24.73958333,0,41,41,1,1,FBP-YG-71.png,0.37,1.2,2,0.75,,,,,,,,,,,,,,,,,,,,,,,,,,,,,,,,,,,,,,,,,,,,,
,,,,,V3_089,20,female,2024-11-22_17h30.53.216,jersey_experiment_5_v3,2023.2.2,Win32,84.74576271,,,,,,,,,,,,,,,,251.4084,252.9612,252.9613,255.7732,return,0.613,,68.359375,0,42,42,48,1,FBP-RB-17.png,0.43,1.2,49,0.75,,,,,,,,,,,,,,,,,,,,,,,,,,,,,,,,,,,,,,,,,,,,,
,,,,,V3_089,20,female,2024-11-22_17h30.53.216,jersey_experiment_5_v3,2023.2.2,Win32,84.74576271,,,,,,,,,,,,,,,,255.7734,257.3146,257.3146,259.1262,return,0.4669,,27.47395833,0,43,43,10,1,FBP-YG-91.png,0.35,1.2,11,0.75,,,,,,,,,,,,,,,,,,,,,,,,,,,,,,,,,,,,,,,,,,,,,
,,,,,V3_089,20,female,2024-11-22_17h30.53.216,jersey_experiment_5_v3,2023.2.2,Win32,84.74576271,,,,,,,,,,,,,,,,259.1264,260.6791,260.6792,263.5145,return,0.906,,26.69270833,0,44,44,16,1,FBP-PT-17.png,0.37,1.2,17,0.75,,,,,,,,,,,,,,,,,,,,,,,,,,,,,,,,,,,,,,,,,,,,,
,,,,,V3_089,20,female,2024-11-22_17h30.53.216,jersey_experiment_5_v3,2023.2.2,Win32,84.74576271,,,,,,,,,,,,,,,,263.5148,264.8087,264.8088,266.6561,return,0.4389,,14.97395833,0,45,45,40,1,FBP-OG-19.png,0.35,1.2,41,0.5,,,,,,,,,,,,,,,,,,,,,,,,,,,,,,,,,,,,,,,,,,,,,
,,,,,V3_089,20,female,2024-11-22_17h30.53.216,jersey_experiment_5_v3,2023.2.2,Win32,84.74576271,,,,,,,,,,,,,,,,266.6564,268.2089,268.2089,271.6089,return,1.7779,,20.83333333,0,46,46,0,1,FBP-YG-71.png,0.35,1.2,1,0.75,,,,,,,,,,,,,,,,,,,,,,,,,,,,,,,,,,,,,,,,,,,,,
,,,,,V3_089,20,female,2024-11-22_17h30.53.216,jersey_experiment_5_v3,2023.2.2,Win32,84.74576271,,,,,,,,,,,,,,,,271.6092,272.9032,272.9032,274.7032,return,0.1886,,24.47916667,0,47,47,41,1,FBP-OG-19.png,0.37,1.2,42,0.5,,,,,,,,,,,,,,,,,,,,,,,,,,,,,,,,,,,,,,,,,,,,,
,,,,,V3_089,20,female,2024-11-22_17h30.53.216,jersey_experiment_5_v3,2023.2.2,Win32,84.74576271,,,,,,,,,,,,,,,,274.7035,275.9975,275.9975,277.7739,return,0.1884,,22.265625,0,48,48,30,1,FBP-OG-17.png,0.35,1.2,31,0.5,,,,,,,,,,,,,,,,,,,,,,,,,,,,,,,,,,,,,,,,,,,,,
,,,,,V3_089,20,female,2024-11-22_17h30.53.216,jersey_experiment_5_v3,2023.2.2,Win32,84.74576271,,,,,,,,,,,,,,,,277.7742,279.0681,279.0682,281.2564,return,0.4403,,56.11979167,0,49,49,38,1,FBP-OG-18.png,0.43,1.2,39,0.5,,,,,,,,,,,,,,,,,,,,,,,,,,,,,,,,,,,,,,,,,,,,,
,,,,,V3_089,20,female,2024-11-22_17h30.53.216,jersey_experiment_5_v3,2023.2.2,Win32,84.74576271,,,,,,,,,,,,,,,,281.2567,282.8094,282.8095,284.5037,return,0.415,,52.21354167,0,50,50,27,1,FBP-PT-19.png,0.4,1.2,28,0.75,,,,,,,,,,,,,,,,,,,,,,,,,,,,,,,,,,,,,,,,,,,,,
,,,,,V3_089,20,female,2024-11-22_17h30.53.216,jersey_experiment_5_v3,2023.2.2,Win32,84.74576271,,,,,,,,,,,,,,,,284.5039,286.0566,286.0566,287.5744,return,0.216,,50.26041667,0,51,51,6,1,FBP-YG-81.png,0.37,1.2,7,0.75,,,,,,,,,,,,,,,,,,,,,,,,,,,,,,,,,,,,,,,,,,,,,
,,,,,V3_089,20,female,2024-11-22_17h30.53.216,jersey_experiment_5_v3,2023.2.2,Win32,84.74576271,,,,,,,,,,,,,,,,287.5747,289.1273,289.1273,290.8567,return,0.4054,,28.38541667,0,52,52,55,1,FBP-RB-19.png,0.35,1.2,56,0.75,,,,,,,,,,,,,,,,,,,,,,,,,,,,,,,,,,,,,,,,,,,,,
,,,,,V3_089,20,female,2024-11-22_17h30.53.216,jersey_experiment_5_v3,2023.2.2,Win32,84.74576271,,,,,,,,,,,,,,,,290.857,292.4098,292.4099,294.1275,return,0.1498,,68.09895833,0,53,53,9,1,FBP-YG-81.png,0.45,1.2,10,0.75,,,,,,,,,,,,,,,,,,,,,,,,,,,,,,,,,,,,,,,,,,,,,
,,,,,V3_089,20,female,2024-11-22_17h30.53.216,jersey_experiment_5_v3,2023.2.2,Win32,84.74576271,,,,,,,,,,,,,,,,294.1278,295.6805,295.6806,296.8924,return,0.1319,,61.45833333,0,54,54,7,1,FBP-YG-81.png,0.4,1.2,8,0.75,,,,,,,,,,,,,,,,,,,,,,,,,,,,,,,,,,,,,,,,,,,,,
,,,,,V3_089,20,female,2024-11-22_17h30.53.216,jersey_experiment_5_v3,2023.2.2,Win32,84.74576271,,,,,,,,,,,,,,,,296.8926,298.4453,298.4453,299.422,return,0.1495,,75,0,55,55,54,1,FBP-RB-18.png,0.45,1.2,55,0.75,,,,,,,,,,,,,,,,,,,,,,,,,,,,,,,,,,,,,,,,,,,,,
,,,,,V3_089,20,female,2024-11-22_17h30.53.216,jersey_experiment_5_v3,2023.2.2,Win32,84.74576271,,,,,,,,,,,,,,,,299.4221,300.716,300.7161,301.9749,return,0.2309,,33.33333333,0,56,56,35,1,FBP-OG-18.png,0.35,1.2,36,0.5,,,,,,,,,,,,,,,,,,,,,,,,,,,,,,,,,,,,,,,,,,,,,
,,,,,V3_089,20,female,2024-11-22_17h30.53.216,jersey_experiment_5_v3,2023.2.2,Win32,84.74576271,,,,,,,,,,,,,,,,301.9752,303.5279,303.5279,306.328,return,1.156,,55.859375,0,57,57,57,1,FBP-RB-19.png,0.4,1.2,58,0.75,,,,,,,,,,,,,,,,,,,,,,,,,,,,,,,,,,,,,,,,,,,,,
,,,,,V3_089,20,female,2024-11-22_17h30.53.216,jersey_experiment_5_v3,2023.2.2,Win32,84.74576271,,,,,,,,,,,,,,,,306.3282,307.881,307.881,308.7987,return,0.1168,,57.94270833,0,58,58,53,1,FBP-RB-18.png,0.43,1.2,54,0.75,,,,,,,,,,,,,,,,,,,,,,,,,,,,,,,,,,,,,,,,,,,,,
,,,,,V3_089,20,female,2024-11-22_17h30.53.216,jersey_experiment_5_v3,2023.2.2,Win32,84.74576271,,,,,,,,,,,,,,,,308.7989,310.3517,310.3517,311.5045,return,0.1415,,62.63020833,0,59,59,18,1,FBP-PT-17.png,0.43,1.2,19,0.75,,,,,,,,,,,,,,,,,,,,,,,,,,,,,,,,,,,,,,,,,,,,,
,,,,,V3_089,20,female,2024-11-22_17h30.53.216,jersey_experiment_5_v3,2023.2.2,Win32,84.74576271,,,,,,,,,,,,,,,,311.5057,313.0576,313.0576,314.3637,return,0.3558,,36.97916667,,,,,,FBP-RB-71.png,0.37,1.2,47,0.75,0,0,0,46,1,,,,,,,,,,,,,,,,,,,,,,,,,,,,,,,,,,,,,,,,
,,,,,V3_089,20,female,2024-11-22_17h30.53.216,jersey_experiment_5_v3,2023.2.2,Win32,84.74576271,,,,,,,,,,,,,,,,314.3639,315.9165,315.9165,318.552,return,0.8299,,65.49479167,,,,,,FBP-YG-17.png,0.45,1.2,5,0.75,0,1,1,4,1,,,,,,,,,,,,,,,,,,,,,,,,,,,,,,,,,,,,,,,,
,,,,,V3_089,20,female,2024-11-22_17h30.53.216,jersey_experiment_5_v3,2023.2.2,Win32,84.74576271,,,,,,,,,,,,,,,,318.5522,320.105,320.105,321.7405,return,0.1665,,55.72916667,,,,,,FBP-YG-17.png,0.4,1.2,3,0.75,0,2,2,2,1,,,,,,,,,,,,,,,,,,,,,,,,,,,,,,,,,,,,,,,,
,,,,,V3_089,20,female,2024-11-22_17h30.53.216,jersey_experiment_5_v3,2023.2.2,Win32,84.74576271,,,,,,,,,,,,,,,,321.7407,323.2934,323.2934,324.8227,return,0.2077,,33.07291667,,,,,,FBP-PT-91.png,0.35,1.2,26,0.75,0,3,3,25,1,,,,,,,,,,,,,,,,,,,,,,,,,,,,,,,,,,,,,,,,
,,,,,V3_089,20,female,2024-11-22_17h30.53.216,jersey_experiment_5_v3,2023.2.2,Win32,84.74576271,,,,,,,,,,,,,,,,324.823,326.376,326.3761,327.8465,return,0.1726,,50.91145833,,,,,,FBP-PT-81.png,0.45,1.2,25,0.75,0,4,4,24,1,,,,,,,,,,,,,,,,,,,,,,,,,,,,,,,,,,,,,,,,
,,,,,V3_089,20,female,2024-11-22_17h30.53.216,jersey_experiment_5_v3,2023.2.2,Win32,84.74576271,,,,,,,,,,,,,,,,327.8467,329.3995,329.3995,331.0349,return,0.4152,,62.76041667,,,,,,FBP-RB-91.png,0.35,1.2,56,0.75,0,5,5,55,1,,,,,,,,,,,,,,,,,,,,,,,,,,,,,,,,,,,,,,,,
,,,,,V3_089,20,female,2024-11-22_17h30.53.216,jersey_experiment_5_v3,2023.2.2,Win32,84.74576271,,,,,,,,,,,,,,,,331.0352,332.5877,332.5877,333.5291,return,0.0738,,64.97395833,,,,,,FBP-RB-81.png,0.43,1.2,54,0.75,0,6,6,53,1,,,,,,,,,,,,,,,,,,,,,,,,,,,,,,,,,,,,,,,,
,,,,,V3_089,20,female,2024-11-22_17h30.53.216,jersey_experiment_5_v3,2023.2.2,Win32,84.74576271,,,,,,,,,,,,,,,,333.5293,335.0821,335.0821,336.4586,return,0.1064,,29.6875,,,,,,FBP-RB-81.png,0.35,1.2,51,0.75,0,7,7,50,1,,,,,,,,,,,,,,,,,,,,,,,,,,,,,,,,,,,,,,,,
,,,,,V3_089,20,female,2024-11-22_17h30.53.216,jersey_experiment_5_v3,2023.2.2,Win32,84.74576271,,,,,,,,,,,,,,,,336.4589,338.0115,338.0115,338.8235,return,0.1229,,29.6875,,,,,,FBP-RB-71.png,0.35,1.2,46,0.75,0,8,8,45,1,,,,,,,,,,,,,,,,,,,,,,,,,,,,,,,,,,,,,,,,
,,,,,V3_089,20,female,2024-11-22_17h30.53.216,jersey_experiment_5_v3,2023.2.2,Win32,84.74576271,,,,,,,,,,,,,,,,338.8237,340.1176,340.1177,343.5648,return,1.8841,,37.109375,,,,,,FBP-OG-91.png,0.4,1.2,43,0.5,0,9,9,42,1,,,,,,,,,,,,,,,,,,,,,,,,,,,,,,,,,,,,,,,,
,,,,,V3_089,20,female,2024-11-22_17h30.53.216,jersey_experiment_5_v3,2023.2.2,Win32,84.74576271,,,,,,,,,,,,,,,,343.565,345.1177,345.1178,346.5884,return,0.2272,,69.140625,,,,,,FBP-YG-18.png,0.45,1.2,10,0.75,0,10,10,9,1,,,,,,,,,,,,,,,,,,,,,,,,,,,,,,,,,,,,,,,,
,,,,,V3_089,20,female,2024-11-22_17h30.53.216,jersey_experiment_5_v3,2023.2.2,Win32,84.74576271,,,,,,,,,,,,,,,,346.5886,347.8825,347.8825,349.8002,return,0.2753,,32.03125,,,,,,FBP-OG-91.png,0.37,1.2,42,0.5,0,11,11,41,1,,,,,,,,,,,,,,,,,,,,,,,,,,,,,,,,,,,,,,,,
,,,,,V3_089,20,female,2024-11-22_17h30.53.216,jersey_experiment_5_v3,2023.2.2,Win32,84.74576271,,,,,,,,,,,,,,,,349.8004,351.3533,351.3533,354.0711,return,1.4774,,79.42708333,,,,,,FBP-RB-91.png,0.45,1.2,60,0.75,0,12,12,59,1,,,,,,,,,,,,,,,,,,,,,,,,,,,,,,,,,,,,,,,,
,,,,,V3_089,20,female,2024-11-22_17h30.53.216,jersey_experiment_5_v3,2023.2.2,Win32,84.74576271,,,,,,,,,,,,,,,,354.0713,355.6241,355.6242,356.7418,return,0.1376,,32.55208333,,,,,,FBP-YG-17.png,0.37,1.2,2,0.75,0,13,13,1,1,,,,,,,,,,,,,,,,,,,,,,,,,,,,,,,,,,,,,,,,
,,,,,V3_089,20,female,2024-11-22_17h30.53.216,jersey_experiment_5_v3,2023.2.2,Win32,84.74576271,,,,,,,,,,,,,,,,356.742,358.2948,358.2948,359.8948,return,0.4177,,73.4375,,,,,,FBP-YG-18.png,0.43,1.2,9,0.75,0,14,14,8,1,,,,,,,,,,,,,,,,,,,,,,,,,,,,,,,,,,,,,,,,
,,,,,V3_089,20,female,2024-11-22_17h30.53.216,jersey_experiment_5_v3,2023.2.2,Win32,84.74576271,,,,,,,,,,,,,,,,359.8951,361.4477,361.4478,363.8362,return,0.7058,,29.6875,,,,,,FBP-RB-91.png,0.37,1.2,57,0.75,0,15,15,56,1,,,,,,,,,,,,,,,,,,,,,,,,,,,,,,,,,,,,,,,,
,,,,,V3_089,20,female,2024-11-22_17h30.53.216,jersey_experiment_5_v3,2023.2.2,Win32,84.74576271,,,,,,,,,,,,,,,,363.8363,365.3892,365.3892,366.4245,return,0.0993,,62.890625,,,,,,FBP-PT-81.png,0.43,1.2,24,0.75,0,16,16,23,1,,,,,,,,,,,,,,,,,,,,,,,,,,,,,,,,,,,,,,,,
,,,,,V3_089,20,female,2024-11-22_17h30.53.216,jersey_experiment_5_v3,2023.2.2,Win32,84.74576271,,,,,,,,,,,,,,,,366.4247,367.7186,367.7187,368.9893,return,0.1329,,36.84895833,,,,,,FBP-OG-71.png,0.37,1.2,32,0.5,0,17,17,31,1,,,,,,,,,,,,,,,,,,,,,,,,,,,,,,,,,,,,,,,,
,,,,,V3_089,20,female,2024-11-22_17h30.53.216,jersey_experiment_5_v3,2023.2.2,Win32,84.74576271,,,,,,,,,,,,,,,,368.9895,370.5423,370.5424,371.8245,return,0.1414,,25.91145833,,,,,,FBP-YG-19.png,0.35,1.2,11,0.75,0,18,18,10,1,,,,,,,,,,,,,,,,,,,,,,,,,,,,,,,,,,,,,,,,
,,,,,V3_089,20,female,2024-11-22_17h30.53.216,jersey_experiment_5_v3,2023.2.2,Win32,84.74576271,,,,,,,,,,,,,,,,371.8248,373.366,373.366,377.0366,return,2.8146,,67.96875,,,,,,FBP-RB-81.png,0.45,1.2,55,0.75,0,19,19,54,1,,,,,,,,,,,,,,,,,,,,,,,,,,,,,,,,,,,,,,,,
,,,,,V3_089,20,female,2024-11-22_17h30.53.216,jersey_experiment_5_v3,2023.2.2,Win32,84.74576271,,,,,,,,,,,,,,,,377.0368,378.3308,378.3308,380.1426,return,0.7282,,63.41145833,,,,,,FBP-OG-81.png,0.4,1.2,38,0.5,0,20,20,37,1,,,,,,,,,,,,,,,,,,,,,,,,,,,,,,,,,,,,,,,,
,,,,,V3_089,20,female,2024-11-22_17h30.53.216,jersey_experiment_5_v3,2023.2.2,Win32,84.74576271,,,,,,,,,,,,,,,,380.1429,381.6956,381.6957,383.0015,return,0.1806,,84.63541667,,,,,,FBP-PT-91.png,0.45,1.2,30,0.75,0,21,21,29,1,,,,,,,,,,,,,,,,,,,,,,,,,,,,,,,,,,,,,,,,
,,,,,V3_089,20,female,2024-11-22_17h30.53.216,jersey_experiment_5_v3,2023.2.2,Win32,84.74576271,,,,,,,,,,,,,,,,383.0018,384.5545,384.5546,385.437,return,0.0603,,75.52083333,,,,,,FBP-YG-17.png,0.43,1.2,4,0.75,0,22,22,3,1,,,,,,,,,,,,,,,,,,,,,,,,,,,,,,,,,,,,,,,,
,,,,,V3_089,20,female,2024-11-22_17h30.53.216,jersey_experiment_5_v3,2023.2.2,Win32,84.74576271,,,,,,,,,,,,,,,,385.4372,386.9903,386.9903,389.1313,return,1.0847,,43.88020833,,,,,,FBP-PT-91.png,0.37,1.2,27,0.75,0,23,23,26,1,,,,,,,,,,,,,,,,,,,,,,,,,,,,,,,,,,,,,,,,
,,,,,V3_089,20,female,2024-11-22_17h30.53.216,jersey_experiment_5_v3,2023.2.2,Win32,84.74576271,,,,,,,,,,,,,,,,389.1316,390.6842,390.6842,392.5549,return,0.1313,,52.60416667,,,,,,FBP-RB-71.png,0.4,1.2,48,0.75,0,24,24,47,1,,,,,,,,,,,,,,,,,,,,,,,,,,,,,,,,,,,,,,,,
,,,,,V3_089,20,female,2024-11-22_17h30.53.216,jersey_experiment_5_v3,2023.2.2,Win32,84.74576271,,,,,,,,,,,,,,,,392.5551,394.1079,394.1079,397.0373,return,0.248,,48.046875,,,,,,FBP-RB-91.png,0.4,1.2,58,0.75,0,25,25,57,1,,,,,,,,,,,,,,,,,,,,,,,,,,,,,,,,,,,,,,,,
,,,,,V3_089,20,female,2024-11-22_17h30.53.216,jersey_experiment_5_v3,2023.2.2,Win32,84.74576271,,,,,,,,,,,,,,,,397.0377,398.3316,398.3316,400.3905,return,0.5963,,27.34375,,,,,,FBP-OG-71.png,0.35,1.2,31,0.5,0,26,26,30,1,,,,,,,,,,,,,,,,,,,,,,,,,,,,,,,,,,,,,,,,
,,,,,V3_089,20,female,2024-11-22_17h30.53.216,jersey_experiment_5_v3,2023.2.2,Win32,84.74576271,,,,,,,,,,,,,,,,400.3906,401.6846,401.6847,403.1907,return,0.196,,65.625,,,,,,FBP-OG-81.png,0.45,1.2,40,0.5,0,27,27,39,1,,,,,,,,,,,,,,,,,,,,,,,,,,,,,,,,,,,,,,,,
,,,,,V3_089,20,female,2024-11-22_17h30.53.216,jersey_experiment_5_v3,2023.2.2,Win32,84.74576271,,,,,,,,,,,,,,,,403.1908,404.7437,404.7437,406.3317,return,0.2108,,16.796875,,,,,,FBP-PT-71.png,0.35,1.2,16,0.75,0,28,28,15,1,,,,,,,,,,,,,,,,,,,,,,,,,,,,,,,,,,,,,,,,
,,,,,V3_089,20,female,2024-11-22_17h30.53.216,jersey_experiment_5_v3,2023.2.2,Win32,84.74576271,,,,,,,,,,,,,,,,406.332,407.8848,407.8849,408.7321,return,0.0611,,12.5,,,,,,FBP-PT-81.png,0.35,1.2,21,0.75,0,29,29,20,1,,,,,,,,,,,,,,,,,,,,,,,,,,,,,,,,,,,,,,,,
,,,,,V3_089,20,female,2024-11-22_17h30.53.216,jersey_experiment_5_v3,2023.2.2,Win32,84.74576271,,,,,,,,,,,,,,,,408.7322,410.026,410.0261,411.6378,return,0.2201,,21.09375,,,,,,FBP-OG-81.png,0.37,1.2,37,0.5,0,30,30,36,1,,,,,,,,,,,,,,,,,,,,,,,,,,,,,,,,,,,,,,,,
,,,,,V3_089,20,female,2024-11-22_17h30.53.216,jersey_experiment_5_v3,2023.2.2,Win32,84.74576271,,,,,,,,,,,,,,,,411.638,413.191,413.191,414.3203,return,0.15,,29.16666667,,,,,,FBP-RB-81.png,0.37,1.2,52,0.75,0,31,31,51,1,,,,,,,,,,,,,,,,,,,,,,,,,,,,,,,,,,,,,,,,
,,,,,V3_089,20,female,2024-11-22_17h30.53.216,jersey_experiment_5_v3,2023.2.2,Win32,84.74576271,,,,,,,,,,,,,,,,414.3206,415.6146,415.6146,416.6499,return,0.1308,,30.46875,,,,,,FBP-OG-71.png,0.4,1.2,33,0.5,0,32,32,32,1,,,,,,,,,,,,,,,,,,,,,,,,,,,,,,,,,,,,,,,,
,,,,,V3_089,20,female,2024-11-22_17h30.53.216,jersey_experiment_5_v3,2023.2.2,Win32,84.74576271,,,,,,,,,,,,,,,,416.6501,418.2028,418.2029,419.5796,return,0.1792,,35.02604167,,,,,,FBP-PT-71.png,0.37,1.2,17,0.75,0,33,33,16,1,,,,,,,,,,,,,,,,,,,,,,,,,,,,,,,,,,,,,,,,
,,,,,V3_089,20,female,2024-11-22_17h30.53.216,jersey_experiment_5_v3,2023.2.2,Win32,84.74576271,,,,,,,,,,,,,,,,419.5798,421.1324,421.1324,421.9324,return,0.0967,,35.02604167,,,,,,FBP-PT-71.png,0.4,1.2,18,0.75,0,34,34,17,1,,,,,,,,,,,,,,,,,,,,,,,,,,,,,,,,,,,,,,,,
,,,,,V3_089,20,female,2024-11-22_17h30.53.216,jersey_experiment_5_v3,2023.2.2,Win32,84.74576271,,,,,,,,,,,,,,,,421.9326,423.4855,423.4856,426.2385,return,0.284,,58.85416667,,,,,,FBP-RB-71.png,0.43,1.2,49,0.75,0,35,35,48,1,,,,,,,,,,,,,,,,,,,,,,,,,,,,,,,,,,,,,,,,
,,,,,V3_089,20,female,2024-11-22_17h30.53.216,jersey_experiment_5_v3,2023.2.2,Win32,84.74576271,,,,,,,,,,,,,,,,426.2387,427.7917,427.7917,429.2622,return,0.0795,,14.84375,,,,,,FBP-YG-18.png,0.35,1.2,6,0.75,0,36,36,5,1,,,,,,,,,,,,,,,,,,,,,,,,,,,,,,,,,,,,,,,,
,,,,,V3_089,20,female,2024-11-22_17h30.53.216,jersey_experiment_5_v3,2023.2.2,Win32,84.74576271,,,,,,,,,,,,,,,,429.2624,430.8153,430.8153,432.8623,return,0.2351,,46.22395833,,,,,,FBP-YG-19.png,0.4,1.2,13,0.75,0,37,37,12,1,,,,,,,,,,,,,,,,,,,,,,,,,,,,,,,,,,,,,,,,
,,,,,V3_089,20,female,2024-11-22_17h30.53.216,jersey_experiment_5_v3,2023.2.2,Win32,84.74576271,,,,,,,,,,,,,,,,432.8626,434.4153,434.4153,435.1801,return,0.2034,,46.22395833,,,,,,FBP-YG-19.png,0.37,1.2,12,0.75,0,38,38,11,1,,,,,,,,,,,,,,,,,,,,,,,,,,,,,,,,,,,,,,,,
,,,,,V3_089,20,female,2024-11-22_17h30.53.216,jersey_experiment_5_v3,2023.2.2,Win32,84.74576271,,,,,,,,,,,,,,,,435.1803,436.4742,436.4743,438.6625,return,0.8534,,31.640625,,,,,,FBP-OG-91.png,0.35,1.2,41,0.5,0,39,39,40,1,,,,,,,,,,,,,,,,,,,,,,,,,,,,,,,,,,,,,,,,
,,,,,V3_089,20,female,2024-11-22_17h30.53.216,jersey_experiment_5_v3,2023.2.2,Win32,84.74576271,,,,,,,,,,,,,,,,438.6627,440.2157,440.2157,441.9335,return,0.2113,,91.40625,,,,,,FBP-YG-19.png,0.45,1.2,15,0.75,0,40,40,14,1,,,,,,,,,,,,,,,,,,,,,,,,,,,,,,,,,,,,,,,,
,,,,,V3_089,20,female,2024-11-22_17h30.53.216,jersey_experiment_5_v3,2023.2.2,Win32,84.74576271,,,,,,,,,,,,,,,,441.9338,443.4863,443.4863,444.6627,return,0.1456,,80.59895833,,,,,,FBP-PT-71.png,0.43,1.2,19,0.75,0,41,41,18,1,,,,,,,,,,,,,,,,,,,,,,,,,,,,,,,,,,,,,,,,
,,,,,V3_089,20,female,2024-11-22_17h30.53.216,jersey_experiment_5_v3,2023.2.2,Win32,84.74576271,,,,,,,,,,,,,,,,444.6629,446.2158,446.2159,447.2393,return,0.1953,,71.61458333,,,,,,FBP-PT-81.png,0.4,1.2,23,0.75,0,42,42,22,1,,,,,,,,,,,,,,,,,,,,,,,,,,,,,,,,,,,,,,,,
,,,,,V3_089,20,female,2024-11-22_17h30.53.216,jersey_experiment_5_v3,2023.2.2,Win32,84.74576271,,,,,,,,,,,,,,,,447.2396,448.5334,448.5335,449.0512,return,0.0269,,71.875,,,,,,FBP-OG-71.png,0.43,1.2,34,0.5,0,43,43,33,1,,,,,,,,,,,,,,,,,,,,,,,,,,,,,,,,,,,,,,,,
,,,,,V3_089,20,female,2024-11-22_17h30.53.216,jersey_experiment_5_v3,2023.2.2,Win32,84.74576271,,,,,,,,,,,,,,,,449.0516,450.6042,450.6042,451.5689,return,0.0707,,76.43229167,,,,,,FBP-YG-19.png,0.43,1.2,14,0.75,0,44,44,13,1,,,,,,,,,,,,,,,,,,,,,,,,,,,,,,,,,,,,,,,,
,,,,,V3_089,20,female,2024-11-22_17h30.53.216,jersey_experiment_5_v3,2023.2.2,Win32,84.74576271,,,,,,,,,,,,,,,,451.5691,453.1219,453.1219,454.0632,return,0.2442,,81.25,,,,,,FBP-RB-71.png,0.45,1.2,50,0.75,0,45,45,49,1,,,,,,,,,,,,,,,,,,,,,,,,,,,,,,,,,,,,,,,,
,,,,,V3_089,20,female,2024-11-22_17h30.53.216,jersey_experiment_5_v3,2023.2.2,Win32,84.74576271,,,,,,,,,,,,,,,,454.0634,455.6161,455.6162,456.475,return,0.1796,,75.65104167,,,,,,FBP-PT-91.png,0.43,1.2,29,0.75,0,46,46,28,1,,,,,,,,,,,,,,,,,,,,,,,,,,,,,,,,,,,,,,,,
,,,,,V3_089,20,female,2024-11-22_17h30.53.216,jersey_experiment_5_v3,2023.2.2,Win32,84.74576271,,,,,,,,,,,,,,,,456.4753,458.028,458.028,459.4671,return,0.2124,,67.70833333,,,,,,FBP-RB-81.png,0.4,1.2,53,0.75,0,47,47,52,1,,,,,,,,,,,,,,,,,,,,,,,,,,,,,,,,,,,,,,,,
,,,,,V3_089,20,female,2024-11-22_17h30.53.216,jersey_experiment_5_v3,2023.2.2,Win32,84.74576271,,,,,,,,,,,,,,,,459.4672,461.0112,461.0112,463.8165,return,0.182,,37.5,,,,,,FBP-YG-18.png,0.37,1.2,7,0.75,0,48,48,6,1,,,,,,,,,,,,,,,,,,,,,,,,,,,,,,,,,,,,,,,,
,,,,,V3_089,20,female,2024-11-22_17h30.53.216,jersey_experiment_5_v3,2023.2.2,Win32,84.74576271,,,,,,,,,,,,,,,,463.8167,465.3642,465.3642,467.5107,return,0.1371,,29.296875,,,,,,FBP-PT-81.png,0.37,1.2,22,0.75,0,49,49,21,1,,,,,,,,,,,,,,,,,,,,,,,,,,,,,,,,,,,,,,,,
,,,,,V3_089,20,female,2024-11-22_17h30.53.216,jersey_experiment_5_v3,2023.2.2,Win32,84.74576271,,,,,,,,,,,,,,,,467.511,469.0583,469.0583,471.8992,return,0.3089,,44.79166667,,,,,,FBP-RB-91.png,0.43,1.2,59,0.75,0,50,50,58,1,,,,,,,,,,,,,,,,,,,,,,,,,,,,,,,,,,,,,,,,
,,,,,V3_089,20,female,2024-11-22_17h30.53.216,jersey_experiment_5_v3,2023.2.2,Win32,84.74576271,,,,,,,,,,,,,,,,471.8994,473.4436,473.4437,474.3144,return,0.0324,,44.79166667,,,,,,FBP-YG-18.png,0.4,1.2,8,0.75,0,51,51,7,1,,,,,,,,,,,,,,,,,,,,,,,,,,,,,,,,,,,,,,,,
,,,,,V3_089,20,female,2024-11-22_17h30.53.216,jersey_experiment_5_v3,2023.2.2,Win32,84.74576271,,,,,,,,,,,,,,,,474.3145,475.864,475.8641,476.5699,return,0.0404,,44.79166667,,,,,,FBP-PT-91.png,0.4,1.2,28,0.75,0,52,52,27,1,,,,,,,,,,,,,,,,,,,,,,,,,,,,,,,,,,,,,,,,
,,,,,V3_089,20,female,2024-11-22_17h30.53.216,jersey_experiment_5_v3,2023.2.2,Win32,84.74576271,,,,,,,,,,,,,,,,476.5702,477.8673,477.8673,480.3936,return,0.0988,,43.09895833,,,,,,FBP-OG-81.png,0.43,1.2,39,0.5,0,53,53,38,1,,,,,,,,,,,,,,,,,,,,,,,,,,,,,,,,,,,,,,,,
,,,,,V3_089,20,female,2024-11-22_17h30.53.216,jersey_experiment_5_v3,2023.2.2,Win32,84.74576271,,,,,,,,,,,,,,,,480.3938,481.6878,481.6878,482.9501,return,0.1179,,69.27083333,,,,,,FBP-OG-91.png,0.45,1.2,45,0.5,0,54,54,44,1,,,,,,,,,,,,,,,,,,,,,,,,,,,,,,,,,,,,,,,,
,,,,,V3_089,20,female,2024-11-22_17h30.53.216,jersey_experiment_5_v3,2023.2.2,Win32,84.74576271,,,,,,,,,,,,,,,,482.9503,484.4944,484.4944,485.5585,return,0.1222,,12.23958333,,,,,,FBP-YG-17.png,0.35,1.2,1,0.75,0,55,55,0,1,,,,,,,,,,,,,,,,,,,,,,,,,,,,,,,,,,,,,,,,
,,,,,V3_089,20,female,2024-11-22_17h30.53.216,jersey_experiment_5_v3,2023.2.2,Win32,84.74576271,,,,,,,,,,,,,,,,485.5587,486.8527,486.8527,488.3617,return,0.1969,,68.61979167,,,,,,FBP-OG-71.png,0.45,1.2,35,0.5,0,56,56,34,1,,,,,,,,,,,,,,,,,,,,,,,,,,,,,,,,,,,,,,,,
,,,,,V3_089,20,female,2024-11-22_17h30.53.216,jersey_experiment_5_v3,2023.2.2,Win32,84.74576271,,,,,,,,,,,,,,,,488.3619,489.9061,489.9061,490.7621,return,0.2121,,82.94270833,,,,,,FBP-PT-71.png,0.45,1.2,20,0.75,0,57,57,19,1,,,,,,,,,,,,,,,,,,,,,,,,,,,,,,,,,,,,,,,,
,,,,,V3_089,20,female,2024-11-22_17h30.53.216,jersey_experiment_5_v3,2023.2.2,Win32,84.74576271,,,,,,,,,,,,,,,,490.7622,492.0711,492.0712,494.7536,return,1.8271,,58.46354167,,,,,,FBP-OG-91.png,0.43,1.2,44,0.5,0,58,58,43,1,,,,,,,,,,,,,,,,,,,,,,,,,,,,,,,,,,,,,,,,
,,,,,V3_089,20,female,2024-11-22_17h30.53.216,jersey_experiment_5_v3,2023.2.2,Win32,84.74576271,,,,,,,,,,,,,,,,494.7538,496.0475,496.0475,497.4213,return,0.15,,6.640625,,,,,,FBP-OG-81.png,0.35,1.2,36,0.5,0,59,59,35,1,,,,,,,,,,,,,,,,,,,,,,,,,,,,,,,,,,,,,,,,
,,,,,V3_089,20,female,2024-11-22_17h30.53.216,jersey_experiment_5_v3,2023.2.2,Win32,84.74576271,,,,,,,,,,,,,,,,,,,,,,,,,,,,,,,,,,,,,,,497.4213,617.4257,,,,,,,,,,,,,,,,,,,,,,,,,,,,,,,,,,,,,,
,,,,,V3_089,20,female,2024-11-22_17h30.53.216,jersey_experiment_5_v3,2023.2.2,Win32,84.74576271,,,,,,,,,,,,,,,,,,,,,,,,,,,,,,,,,,,,,,,,,617.4257,626.3586,return,8.918,,,,,,,,,,,,,,,,,,,,,,,,,,,,,,,,,,
,,,,,V3_089,20,female,2024-11-22_17h30.53.216,jersey_experiment_5_v3,2023.2.2,Win32,84.74576271,,,,,,,,,,,,,,,,626.3597,627.6615,627.6615,630.5086,return,0.706,,38.15104167,,,,,,FBP-YG-81.png,0.43,1.2,9,0.5,,,,,,,,,,,,,0,0,0,8,1,,,,,,,,,,,,,,,,,,,,,,,,,,,,
,,,,,V3_089,20,female,2024-11-22_17h30.53.216,jersey_experiment_5_v3,2023.2.2,Win32,84.74576271,,,,,,,,,,,,,,,,630.5088,631.8176,631.8176,633.7086,return,0.1734,,25.13020833,,,,,,FBP-RB-19.png,0.37,1.2,57,0.5,,,,,,,,,,,,,0,1,1,56,1,,,,,,,,,,,,,,,,,,,,,,,,,,,,
,,,,,V3_089,20,female,2024-11-22_17h30.53.216,jersey_experiment_5_v3,2023.2.2,Win32,84.74576271,,,,,,,,,,,,,,,,633.7088,635.0177,635.0177,636.6819,return,0.1687,,47.13541667,,,,,,FBP-YG-81.png,0.4,1.2,8,0.5,,,,,,,,,,,,,0,2,2,7,1,,,,,,,,,,,,,,,,,,,,,,,,,,,,
,,,,,V3_089,20,female,2024-11-22_17h30.53.216,jersey_experiment_5_v3,2023.2.2,Win32,84.74576271,,,,,,,,,,,,,,,,636.6822,637.9835,637.9835,639.6233,return,0.1096,,60.546875,,,,,,FBP-RB-18.png,0.45,1.2,55,0.5,,,,,,,,,,,,,0,3,3,54,1,,,,,,,,,,,,,,,,,,,,,,,,,,,,
,,,,,V3_089,20,female,2024-11-22_17h30.53.216,jersey_experiment_5_v3,2023.2.2,Win32,84.74576271,,,,,,,,,,,,,,,,639.6235,640.9236,640.9236,642.6887,return,0.4387,,24.08854167,,,,,,FBP-PT-19.png,0.37,1.2,27,0.5,,,,,,,,,,,,,0,4,4,26,1,,,,,,,,,,,,,,,,,,,,,,,,,,,,
,,,,,V3_089,20,female,2024-11-22_17h30.53.216,jersey_experiment_5_v3,2023.2.2,Win32,84.74576271,,,,,,,,,,,,,,,,642.6888,643.9828,643.9828,645.4939,return,0.8051,,11.97916667,,,,,,FBP-PT-17.png,0.35,1.2,16,0.5,,,,,,,,,,,,,0,5,5,15,1,,,,,,,,,,,,,,,,,,,,,,,,,,,,
,,,,,V3_089,20,female,2024-11-22_17h30.53.216,jersey_experiment_5_v3,2023.2.2,Win32,84.74576271,,,,,,,,,,,,,,,,645.4942,646.7883,646.7883,648.1949,return,0.062,,61.58854167,,,,,,FBP-PT-19.png,0.45,1.2,30,0.5,,,,,,,,,,,,,0,6,6,29,1,,,,,,,,,,,,,,,,,,,,,,,,,,,,
,,,,,V3_089,20,female,2024-11-22_17h30.53.216,jersey_experiment_5_v3,2023.2.2,Win32,84.74576271,,,,,,,,,,,,,,,,648.195,649.7477,649.7477,652.0774,return,1.333,,24.21875,,,,,,FBP-OG-18.png,0.37,1.2,37,0.75,,,,,,,,,,,,,0,7,7,36,1,,,,,,,,,,,,,,,,,,,,,,,,,,,,
,,,,,V3_089,20,female,2024-11-22_17h30.53.216,jersey_experiment_5_v3,2023.2.2,Win32,84.74576271,,,,,,,,,,,,,,,,652.0776,653.3708,653.3709,655.0003,return,0.144,,45.05208333,,,,,,FBP-PT-19.png,0.4,1.2,28,0.5,,,,,,,,,,,,,0,8,8,27,1,,,,,,,,,,,,,,,,,,,,,,,,,,,,
,,,,,V3_089,20,female,2024-11-22_17h30.53.216,jersey_experiment_5_v3,2023.2.2,Win32,84.74576271,,,,,,,,,,,,,,,,655.0006,656.548,656.5481,657.5597,return,0.062,,27.47395833,,,,,,FBP-OG-19.png,0.37,1.2,42,0.75,,,,,,,,,,,,,0,9,9,41,1,,,,,,,,,,,,,,,,,,,,,,,,,,,,
,,,,,V3_089,20,female,2024-11-22_17h30.53.216,jersey_experiment_5_v3,2023.2.2,Win32,84.74576271,,,,,,,,,,,,,,,,657.5598,658.8625,658.8625,665.5598,return,0.2352,,54.03645833,,,,,,FBP-PT-17.png,0.43,1.2,19,0.5,,,,,,,,,,,,,0,10,10,18,1,,,,,,,,,,,,,,,,,,,,,,,,,,,,
,,,,,V3_089,20,female,2024-11-22_17h30.53.216,jersey_experiment_5_v3,2023.2.2,Win32,84.74576271,,,,,,,,,,,,,,,,665.56,667.1069,667.1069,668.1251,return,0.156,,72.78645833,,,,,,FBP-OG-19.png,0.43,1.2,44,0.75,,,,,,,,,,,,,0,11,11,43,1,,,,,,,,,,,,,,,,,,,,,,,,,,,,
,,,,,V3_089,20,female,2024-11-22_17h30.53.216,jersey_experiment_5_v3,2023.2.2,Win32,84.74576271,,,,,,,,,,,,,,,,668.1253,669.4279,669.4279,670.878,return,0.1093,,24.86979167,,,,,,FBP-RB-18.png,0.37,1.2,52,0.5,,,,,,,,,,,,,0,12,12,51,1,,,,,,,,,,,,,,,,,,,,,,,,,,,,
,,,,,V3_089,20,female,2024-11-22_17h30.53.216,jersey_experiment_5_v3,2023.2.2,Win32,84.74576271,,,,,,,,,,,,,,,,670.8781,672.1718,672.1718,673.357,return,0.1261,,18.75,,,,,,FBP-YG-91.png,0.35,1.2,11,0.5,,,,,,,,,,,,,0,13,13,10,1,,,,,,,,,,,,,,,,,,,,,,,,,,,,
,,,,,V3_089,20,female,2024-11-22_17h30.53.216,jersey_experiment_5_v3,2023.2.2,Win32,84.74576271,,,,,,,,,,,,,,,,673.3571,674.66,674.66,676.0863,return,0.1257,,73.69791667,,,,,,FBP-YG-81.png,0.45,1.2,10,0.5,,,,,,,,,,,,,0,14,14,9,1,,,,,,,,,,,,,,,,,,,,,,,,,,,,
,,,,,V3_089,20,female,2024-11-22_17h30.53.216,jersey_experiment_5_v3,2023.2.2,Win32,84.74576271,,,,,,,,,,,,,,,,676.0864,677.3955,677.3956,678.6281,return,0.0702,,73.69791667,,,,,,FBP-PT-17.png,0.45,1.2,20,0.5,,,,,,,,,,,,,0,15,15,19,1,,,,,,,,,,,,,,,,,,,,,,,,,,,,
,,,,,V3_089,20,female,2024-11-22_17h30.53.216,jersey_experiment_5_v3,2023.2.2,Win32,84.74576271,,,,,,,,,,,,,,,,678.6283,680.1809,680.181,681.0837,return,0.0348,,73.69791667,,,,,,FBP-OG-18.png,0.45,1.2,40,0.75,,,,,,,,,,,,,0,16,16,39,1,,,,,,,,,,,,,,,,,,,,,,,,,,,,
,,,,,V3_089,20,female,2024-11-22_17h30.53.216,jersey_experiment_5_v3,2023.2.2,Win32,84.74576271,,,,,,,,,,,,,,,,681.0839,682.3844,682.3844,683.7341,return,0.1176,,48.95833333,,,,,,FBP-RB-17.png,0.4,1.2,48,0.5,,,,,,,,,,,,,0,17,17,47,1,,,,,,,,,,,,,,,,,,,,,,,,,,,,
,,,,,V3_089,20,female,2024-11-22_17h30.53.216,jersey_experiment_5_v3,2023.2.2,Win32,84.74576271,,,,,,,,,,,,,,,,683.7343,685.0413,685.0414,686.1022,return,0.0624,,63.54166667,,,,,,FBP-YG-71.png,0.45,1.2,5,0.5,,,,,,,,,,,,,0,18,18,4,1,,,,,,,,,,,,,,,,,,,,,,,,,,,,
,,,,,V3_089,20,female,2024-11-22_17h30.53.216,jersey_experiment_5_v3,2023.2.2,Win32,84.74576271,,,,,,,,,,,,,,,,686.1025,687.6552,687.6553,688.5343,return,0.0794,,31.90104167,,,,,,FBP-OG-17.png,0.4,1.2,33,0.75,,,,,,,,,,,,,0,19,19,32,1,,,,,,,,,,,,,,,,,,,,,,,,,,,,
,,,,,V3_089,20,female,2024-11-22_17h30.53.216,jersey_experiment_5_v3,2023.2.2,Win32,84.74576271,,,,,,,,,,,,,,,,688.5344,690.0876,690.0876,691.632,return,0.1096,,27.60416667,,,,,,FBP-OG-19.png,0.4,1.2,43,0.75,,,,,,,,,,,,,0,20,20,42,1,,,,,,,,,,,,,,,,,,,,,,,,,,,,
,,,,,V3_089,20,female,2024-11-22_17h30.53.216,jersey_experiment_5_v3,2023.2.2,Win32,84.74576271,,,,,,,,,,,,,,,,691.6321,692.9258,692.9258,694.5112,return,0.1177,,24.08854167,,,,,,FBP-YG-81.png,0.35,1.2,6,0.5,,,,,,,,,,,,,0,21,21,5,1,,,,,,,,,,,,,,,,,,,,,,,,,,,,
,,,,,V3_089,20,female,2024-11-22_17h30.53.216,jersey_experiment_5_v3,2023.2.2,Win32,84.74576271,,,,,,,,,,,,,,,,694.5114,695.805,695.805,697.0204,return,0.1564,,17.31770833,,,,,,FBP-YG-81.png,0.37,1.2,7,0.5,,,,,,,,,,,,,0,22,22,6,1,,,,,,,,,,,,,,,,,,,,,,,,,,,,
,,,,,V3_089,20,female,2024-11-22_17h30.53.216,jersey_experiment_5_v3,2023.2.2,Win32,84.74576271,,,,,,,,,,,,,,,,697.0205,698.3229,698.3229,699.1936,return,0.0792,,19.01041667,,,,,,FBP-YG-71.png,0.37,1.2,2,0.5,,,,,,,,,,,,,0,23,23,1,1,,,,,,,,,,,,,,,,,,,,,,,,,,,,
,,,,,V3_089,20,female,2024-11-22_17h30.53.216,jersey_experiment_5_v3,2023.2.2,Win32,84.74576271,,,,,,,,,,,,,,,,699.1938,700.4877,700.4877,701.3264,return,0.0389,,20.3125,,,,,,FBP-PT-18.png,0.37,1.2,22,0.5,,,,,,,,,,,,,0,24,24,21,1,,,,,,,,,,,,,,,,,,,,,,,,,,,,
,,,,,V3_089,20,female,2024-11-22_17h30.53.216,jersey_experiment_5_v3,2023.2.2,Win32,84.74576271,,,,,,,,,,,,,,,,701.3266,702.629,702.629,703.6643,return,0.1415,,8.333333333,,,,,,FBP-YG-71.png,0.35,1.2,1,0.5,,,,,,,,,,,,,0,25,25,0,1,,,,,,,,,,,,,,,,,,,,,,,,,,,,
,,,,,V3_089,20,female,2024-11-22_17h30.53.216,jersey_experiment_5_v3,2023.2.2,Win32,84.74576271,,,,,,,,,,,,,,,,703.6645,704.9586,704.9586,706.5736,return,0.1566,,64.84375,,,,,,FBP-RB-17.png,0.45,1.2,50,0.5,,,,,,,,,,,,,0,26,26,49,1,,,,,,,,,,,,,,,,,,,,,,,,,,,,
,,,,,V3_089,20,female,2024-11-22_17h30.53.216,jersey_experiment_5_v3,2023.2.2,Win32,84.74576271,,,,,,,,,,,,,,,,706.5738,707.873,707.873,708.5031,return,0.0153,,71.61458333,,,,,,FBP-PT-18.png,0.45,1.2,25,0.5,,,,,,,,,,,,,0,27,27,24,1,,,,,,,,,,,,,,,,,,,,,,,,,,,,
,,,,,V3_089,20,female,2024-11-22_17h30.53.216,jersey_experiment_5_v3,2023.2.2,Win32,84.74576271,,,,,,,,,,,,,,,,708.5033,710.0497,710.0497,710.762,return,0.1096,,64.84375,,,,,,FBP-OG-17.png,0.43,1.2,34,0.75,,,,,,,,,,,,,0,28,28,33,1,,,,,,,,,,,,,,,,,,,,,,,,,,,,
,,,,,V3_089,20,female,2024-11-22_17h30.53.216,jersey_experiment_5_v3,2023.2.2,Win32,84.74576271,,,,,,,,,,,,,,,,710.7622,712.0643,712.0643,713.1908,return,0.4427,,64.84375,,,,,,FBP-RB-17.png,0.43,1.2,49,0.5,,,,,,,,,,,,,0,29,29,48,1,,,,,,,,,,,,,,,,,,,,,,,,,,,,
,,,,,V3_089,20,female,2024-11-22_17h30.53.216,jersey_experiment_5_v3,2023.2.2,Win32,84.74576271,,,,,,,,,,,,,,,,713.1911,714.4849,714.485,715.7086,return,0.3292,,64.84375,,,,,,FBP-RB-18.png,0.43,1.2,54,0.5,,,,,,,,,,,,,0,30,30,53,1,,,,,,,,,,,,,,,,,,,,,,,,,,,,
,,,,,V3_089,20,female,2024-11-22_17h30.53.216,jersey_experiment_5_v3,2023.2.2,Win32,84.74576271,,,,,,,,,,,,,,,,715.7088,717.0059,717.0059,719.9322,return,0.1433,,48.56770833,,,,,,FBP-YG-71.png,0.4,1.2,3,0.5,,,,,,,,,,,,,0,31,31,2,1,,,,,,,,,,,,,,,,,,,,,,,,,,,,
,,,,,V3_089,20,female,2024-11-22_17h30.53.216,jersey_experiment_5_v3,2023.2.2,Win32,84.74576271,,,,,,,,,,,,,,,,719.9324,721.2328,721.2328,722.5507,return,0.1095,,2.994791667,,,,,,FBP-RB-17.png,0.35,1.2,46,0.5,,,,,,,,,,,,,0,32,32,45,1,,,,,,,,,,,,,,,,,,,,,,,,,,,,
,,,,,V3_089,20,female,2024-11-22_17h30.53.216,jersey_experiment_5_v3,2023.2.2,Win32,84.74576271,,,,,,,,,,,,,,,,722.5509,723.8501,723.8501,724.936,return,0.5178,,3.385416667,,,,,,FBP-RB-19.png,0.35,1.2,56,0.5,,,,,,,,,,,,,0,33,33,55,1,,,,,,,,,,,,,,,,,,,,,,,,,,,,
,,,,,V3_089,20,female,2024-11-22_17h30.53.216,jersey_experiment_5_v3,2023.2.2,Win32,84.74576271,,,,,,,,,,,,,,,,724.9361,726.4802,726.4802,728.4334,return,0.2353,,67.1875,,,,,,FBP-OG-19.png,0.45,1.2,45,0.75,,,,,,,,,,,,,0,34,34,44,1,,,,,,,,,,,,,,,,,,,,,,,,,,,,
,,,,,V3_089,20,female,2024-11-22_17h30.53.216,jersey_experiment_5_v3,2023.2.2,Win32,84.74576271,,,,,,,,,,,,,,,,728.4335,729.9861,729.9861,730.7797,return,0.2145,,67.96875,,,,,,FBP-OG-18.png,0.43,1.2,39,0.75,,,,,,,,,,,,,0,35,35,38,1,,,,,,,,,,,,,,,,,,,,,,,,,,,,
,,,,,V3_089,20,female,2024-11-22_17h30.53.216,jersey_experiment_5_v3,2023.2.2,Win32,84.74576271,,,,,,,,,,,,,,,,730.7799,732.0803,732.0803,733.2419,return,0.1178,,55.859375,,,,,,FBP-YG-91.png,0.4,1.2,13,0.5,,,,,,,,,,,,,0,36,36,12,1,,,,,,,,,,,,,,,,,,,,,,,,,,,,
,,,,,V3_089,20,female,2024-11-22_17h30.53.216,jersey_experiment_5_v3,2023.2.2,Win32,84.74576271,,,,,,,,,,,,,,,,733.242,734.5511,734.5511,735.7127,return,0.1261,,29.55729167,,,,,,FBP-PT-18.png,0.35,1.2,21,0.5,,,,,,,,,,,,,0,37,37,20,1,,,,,,,,,,,,,,,,,,,,,,,,,,,,
,,,,,V3_089,20,female,2024-11-22_17h30.53.216,jersey_experiment_5_v3,2023.2.2,Win32,84.74576271,,,,,,,,,,,,,,,,735.7128,737.2657,737.2658,738.2304,return,0.1735,,26.43229167,,,,,,FBP-OG-17.png,0.35,1.2,31,0.75,,,,,,,,,,,,,0,38,38,30,1,,,,,,,,,,,,,,,,,,,,,,,,,,,,
,,,,,V3_089,20,female,2024-11-22_17h30.53.216,jersey_experiment_5_v3,2023.2.2,Win32,84.74576271,,,,,,,,,,,,,,,,738.2306,739.7749,739.7749,741.0623,return,0.1577,,68.359375,,,,,,FBP-OG-17.png,0.45,1.2,35,0.75,,,,,,,,,,,,,0,39,39,34,1,,,,,,,,,,,,,,,,,,,,,,,,,,,,
,,,,,V3_089,20,female,2024-11-22_17h30.53.216,jersey_experiment_5_v3,2023.2.2,Win32,84.74576271,,,,,,,,,,,,,,,,741.0626,742.6072,742.6072,745.0545,return,0.1415,,26.04166667,,,,,,FBP-OG-18.png,0.4,1.2,38,0.75,,,,,,,,,,,,,0,40,40,37,1,,,,,,,,,,,,,,,,,,,,,,,,,,,,
,,,,,V3_089,20,female,2024-11-22_17h30.53.216,jersey_experiment_5_v3,2023.2.2,Win32,84.74576271,,,,,,,,,,,,,,,,745.0547,746.3568,746.3568,747.9957,return,0.1653,,23.046875,,,,,,FBP-YG-91.png,0.37,1.2,12,0.5,,,,,,,,,,,,,0,41,41,11,1,,,,,,,,,,,,,,,,,,,,,,,,,,,,
,,,,,V3_089,20,female,2024-11-22_17h30.53.216,jersey_experiment_5_v3,2023.2.2,Win32,84.74576271,,,,,,,,,,,,,,,,747.9958,749.289,749.2891,751.1871,return,0.6976,,28.64583333,,,,,,FBP-RB-19.png,0.4,1.2,58,0.5,,,,,,,,,,,,,0,42,42,57,1,,,,,,,,,,,,,,,,,,,,,,,,,,,,
,,,,,V3_089,20,female,2024-11-22_17h30.53.216,jersey_experiment_5_v3,2023.2.2,Win32,84.74576271,,,,,,,,,,,,,,,,751.1872,752.7404,752.7404,754.3021,return,0.6597,,21.61458333,,,,,,FBP-OG-18.png,0.35,1.2,36,0.75,,,,,,,,,,,,,0,43,43,35,1,,,,,,,,,,,,,,,,,,,,,,,,,,,,
,,,,,V3_089,20,female,2024-11-22_17h30.53.216,jersey_experiment_5_v3,2023.2.2,Win32,84.74576271,,,,,,,,,,,,,,,,754.3022,755.6104,755.6104,756.7015,return,0.1412,,10.9375,,,,,,FBP-PT-19.png,0.35,1.2,26,0.5,,,,,,,,,,,,,0,44,44,25,1,,,,,,,,,,,,,,,,,,,,,,,,,,,,
,,,,,V3_089,20,female,2024-11-22_17h30.53.216,jersey_experiment_5_v3,2023.2.2,Win32,84.74576271,,,,,,,,,,,,,,,,756.7015,758.0043,758.0044,758.9051,return,0.1562,,9.244791667,,,,,,FBP-RB-17.png,0.37,1.2,47,0.5,,,,,,,,,,,,,0,45,45,46,1,,,,,,,,,,,,,,,,,,,,,,,,,,,,
,,,,,V3_089,20,female,2024-11-22_17h30.53.216,jersey_experiment_5_v3,2023.2.2,Win32,84.74576271,,,,,,,,,,,,,,,,758.9053,760.2079,760.208,762.0868,return,0.1694,,54.03645833,,,,,,FBP-YG-91.png,0.45,1.2,15,0.5,,,,,,,,,,,,,0,46,46,14,1,,,,,,,,,,,,,,,,,,,,,,,,,,,,
,,,,,V3_089,20,female,2024-11-22_17h30.53.216,jersey_experiment_5_v3,2023.2.2,Win32,84.74576271,,,,,,,,,,,,,,,,762.0871,763.3842,763.3842,764.4869,return,0.1456,,58.72395833,,,,,,FBP-RB-19.png,0.43,1.2,59,0.5,,,,,,,,,,,,,0,47,47,58,1,,,,,,,,,,,,,,,,,,,,,,,,,,,,
,,,,,V3_089,20,female,2024-11-22_17h30.53.216,jersey_experiment_5_v3,2023.2.2,Win32,84.74576271,,,,,,,,,,,,,,,,764.4872,766.0346,766.0347,767.729,return,0.3444,,26.43229167,,,,,,FBP-OG-17.png,0.37,1.2,32,0.75,,,,,,,,,,,,,0,48,48,31,1,,,,,,,,,,,,,,,,,,,,,,,,,,,,
,,,,,V3_089,20,female,2024-11-22_17h30.53.216,jersey_experiment_5_v3,2023.2.2,Win32,84.74576271,,,,,,,,,,,,,,,,767.7291,769.0284,769.0284,771.078,return,0.3993,,27.21354167,,,,,,FBP-PT-17.png,0.4,1.2,18,0.5,,,,,,,,,,,,,0,49,49,17,1,,,,,,,,,,,,,,,,,,,,,,,,,,,,
,,,,,V3_089,20,female,2024-11-22_17h30.53.216,jersey_experiment_5_v3,2023.2.2,Win32,84.74576271,,,,,,,,,,,,,,,,771.0782,772.3696,772.3696,773.9969,return,0.0791,,27.34375,,,,,,FBP-RB-18.png,0.4,1.2,53,0.5,,,,,,,,,,,,,0,50,50,52,1,,,,,,,,,,,,,,,,,,,,,,,,,,,,
,,,,,V3_089,20,female,2024-11-22_17h30.53.216,jersey_experiment_5_v3,2023.2.2,Win32,84.74576271,,,,,,,,,,,,,,,,773.997,775.2908,775.2908,776.4909,return,0.1417,,60.67708333,,,,,,FBP-PT-18.png,0.43,1.2,24,0.5,,,,,,,,,,,,,0,51,51,23,1,,,,,,,,,,,,,,,,,,,,,,,,,,,,
,,,,,V3_089,20,female,2024-11-22_17h30.53.216,jersey_experiment_5_v3,2023.2.2,Win32,84.74576271,,,,,,,,,,,,,,,,776.4911,777.7848,777.7849,780.6558,return,0.3296,,70.44270833,,,,,,FBP-YG-71.png,0.43,1.2,4,0.5,,,,,,,,,,,,,0,52,52,3,1,,,,,,,,,,,,,,,,,,,,,,,,,,,,
,,,,,V3_089,20,female,2024-11-22_17h30.53.216,jersey_experiment_5_v3,2023.2.2,Win32,84.74576271,,,,,,,,,,,,,,,,780.6559,781.9643,781.9644,783.8465,return,0.203,,75,,,,,,FBP-RB-19.png,0.45,1.2,60,0.5,,,,,,,,,,,,,0,53,53,59,1,,,,,,,,,,,,,,,,,,,,,,,,,,,,
,,,,,V3_089,20,female,2024-11-22_17h30.53.216,jersey_experiment_5_v3,2023.2.2,Win32,84.74576271,,,,,,,,,,,,,,,,783.8467,785.141,785.1411,785.9739,return,0.0711,,75,,,,,,FBP-YG-91.png,0.43,1.2,14,0.5,,,,,,,,,,,,,0,54,54,13,1,,,,,,,,,,,,,,,,,,,,,,,,,,,,
,,,,,V3_089,20,female,2024-11-22_17h30.53.216,jersey_experiment_5_v3,2023.2.2,Win32,84.74576271,,,,,,,,,,,,,,,,785.974,787.5177,787.5178,788.9298,return,0.165,,49.34895833,,,,,,FBP-OG-19.png,0.35,1.2,41,0.75,,,,,,,,,,,,,0,55,55,40,1,,,,,,,,,,,,,,,,,,,,,,,,,,,,
,,,,,V3_089,20,female,2024-11-22_17h30.53.216,jersey_experiment_5_v3,2023.2.2,Win32,84.74576271,,,,,,,,,,,,,,,,788.9302,790.2322,790.2322,791.4475,return,0.0711,,29.16666667,,,,,,FBP-RB-18.png,0.35,1.2,51,0.5,,,,,,,,,,,,,0,56,56,50,1,,,,,,,,,,,,,,,,,,,,,,,,,,,,
,,,,,V3_089,20,female,2024-11-22_17h30.53.216,jersey_experiment_5_v3,2023.2.2,Win32,84.74576271,,,,,,,,,,,,,,,,791.4477,792.7414,792.7414,795.3534,return,0.9092,,44.66145833,,,,,,FBP-PT-17.png,0.37,1.2,17,0.5,,,,,,,,,,,,,0,57,57,16,1,,,,,,,,,,,,,,,,,,,,,,,,,,,,
,,,,,V3_089,20,female,2024-11-22_17h30.53.216,jersey_experiment_5_v3,2023.2.2,Win32,84.74576271,,,,,,,,,,,,,,,,795.3535,796.6559,796.6559,798.3652,return,0.0857,,55.859375,,,,,,FBP-PT-19.png,0.43,1.2,29,0.5,,,,,,,,,,,,,0,58,58,28,1,,,,,,,,,,,,,,,,,,,,,,,,,,,,
,,,,,V3_089,20,female,2024-11-22_17h30.53.216,jersey_experiment_5_v3,2023.2.2,Win32,84.74576271,,,,,,,,,,,,,,,,798.3653,799.6681,799.6682,800.5066,return,0.0155,,55.98958333,,,,,,FBP-PT-18.png,0.4,1.2,23,0.5,,,,,,,,,,,,,0,59,59,22,1,,,,,,,,,,,,,,,,,,,,,,,,,,,,
,,,,,V3_089,20,female,2024-11-22_17h30.53.216,jersey_experiment_5_v3,2023.2.2,Win32,84.74576271,,,,,,,,,,,,,,,,800.5077,801.801,801.801,803.4247,return,0.4388,,45.57291667,,,,,,FBP-RB-81.png,0.37,1.2,52,0.5,,,,,,,,,,,,,,,,,,0,0,0,51,1,,,,,,,,,,,,,,,,,,,,,,,
,,,,,V3_089,20,female,2024-11-22_17h30.53.216,jersey_experiment_5_v3,2023.2.2,Win32,84.74576271,,,,,,,,,,,,,,,,803.4249,804.7238,804.7239,806.0295,return,0.166,,66.40625,,,,,,FBP-YG-18.png,0.45,1.2,10,0.5,,,,,,,,,,,,,,,,,,0,1,1,9,1,,,,,,,,,,,,,,,,,,,,,,,
,,,,,V3_089,20,female,2024-11-22_17h30.53.216,jersey_experiment_5_v3,2023.2.2,Win32,84.74576271,,,,,,,,,,,,,,,,806.0298,807.3239,807.3239,807.9274,return,0.1177,,66.40625,,,,,,FBP-YG-19.png,0.45,1.2,15,0.5,,,,,,,,,,,,,,,,,,0,2,2,14,1,,,,,,,,,,,,,,,,,,,,,,,
,,,,,V3_089,20,female,2024-11-22_17h30.53.216,jersey_experiment_5_v3,2023.2.2,Win32,84.74576271,,,,,,,,,,,,,,,,807.9275,809.4715,809.4715,810.0921,return,0.1736,,66.40625,,,,,,FBP-OG-71.png,0.45,1.2,35,0.75,,,,,,,,,,,,,,,,,,0,3,3,34,1,,,,,,,,,,,,,,,,,,,,,,,
,,,,,V3_089,20,female,2024-11-22_17h30.53.216,jersey_experiment_5_v3,2023.2.2,Win32,84.74576271,,,,,,,,,,,,,,,,810.0923,811.6364,811.6364,813.0249,return,0.2121,,31.77083333,,,,,,FBP-OG-91.png,0.35,1.2,41,0.75,,,,,,,,,,,,,,,,,,0,4,4,40,1,,,,,,,,,,,,,,,,,,,,,,,
,,,,,V3_089,20,female,2024-11-22_17h30.53.216,jersey_experiment_5_v3,2023.2.2,Win32,84.74576271,,,,,,,,,,,,,,,,813.025,814.5776,814.5776,815.7543,return,0.2121,,24.21875,,,,,,FBP-OG-71.png,0.35,1.2,31,0.75,,,,,,,,,,,,,,,,,,0,5,5,30,1,,,,,,,,,,,,,,,,,,,,,,,
,,,,,V3_089,20,female,2024-11-22_17h30.53.216,jersey_experiment_5_v3,2023.2.2,Win32,84.74576271,,,,,,,,,,,,,,,,815.7544,817.0482,817.0483,818.2013,return,0.2035,,24.47916667,,,,,,FBP-RB-71.png,0.37,1.2,47,0.5,,,,,,,,,,,,,,,,,,0,6,6,46,1,,,,,,,,,,,,,,,,,,,,,,,
,,,,,V3_089,20,female,2024-11-22_17h30.53.216,jersey_experiment_5_v3,2023.2.2,Win32,84.74576271,,,,,,,,,,,,,,,,818.2015,819.5043,819.5044,821.8574,return,0.2446,,39.19270833,,,,,,FBP-YG-19.png,0.4,1.2,13,0.5,,,,,,,,,,,,,,,,,,0,7,7,12,1,,,,,,,,,,,,,,,,,,,,,,,
,,,,,V3_089,20,female,2024-11-22_17h30.53.216,jersey_experiment_5_v3,2023.2.2,Win32,84.74576271,,,,,,,,,,,,,,,,821.8576,823.41,823.41,825.4959,return,0.965,,64.0625,,,,,,FBP-OG-81.png,0.45,1.2,40,0.75,,,,,,,,,,,,,,,,,,0,8,8,39,1,,,,,,,,,,,,,,,,,,,,,,,
,,,,,V3_089,20,female,2024-11-22_17h30.53.216,jersey_experiment_5_v3,2023.2.2,Win32,84.74576271,,,,,,,,,,,,,,,,825.4961,826.7898,826.7898,828.0353,return,0.1076,,64.0625,,,,,,FBP-YG-19.png,0.43,1.2,14,0.5,,,,,,,,,,,,,,,,,,0,9,9,13,1,,,,,,,,,,,,,,,,,,,,,,,
,,,,,V3_089,20,female,2024-11-22_17h30.53.216,jersey_experiment_5_v3,2023.2.2,Win32,84.74576271,,,,,,,,,,,,,,,,828.0355,829.34,829.3401,831.7402,return,0.409,,41.27604167,,,,,,FBP-PT-91.png,0.37,1.2,27,0.5,,,,,,,,,,,,,,,,,,0,10,10,26,1,,,,,,,,,,,,,,,,,,,,,,,
,,,,,V3_089,20,female,2024-11-22_17h30.53.216,jersey_experiment_5_v3,2023.2.2,Win32,84.74576271,,,,,,,,,,,,,,,,831.7402,833.2929,833.2929,835.5903,return,0.0621,,66.015625,,,,,,FBP-OG-91.png,0.45,1.2,45,0.75,,,,,,,,,,,,,,,,,,0,11,11,44,1,,,,,,,,,,,,,,,,,,,,,,,
,,,,,V3_089,20,female,2024-11-22_17h30.53.216,jersey_experiment_5_v3,2023.2.2,Win32,84.74576271,,,,,,,,,,,,,,,,835.5905,836.8843,836.8844,838.0224,return,0.0707,,29.03645833,,,,,,FBP-YG-18.png,0.35,1.2,6,0.5,,,,,,,,,,,,,,,,,,0,12,12,5,1,,,,,,,,,,,,,,,,,,,,,,,
,,,,,V3_089,20,female,2024-11-22_17h30.53.216,jersey_experiment_5_v3,2023.2.2,Win32,84.74576271,,,,,,,,,,,,,,,,838.0226,839.3164,839.3164,843.0966,return,0.9181,,38.671875,,,,,,FBP-RB-91.png,0.43,1.2,59,0.5,,,,,,,,,,,,,,,,,,0,13,13,58,1,,,,,,,,,,,,,,,,,,,,,,,
,,,,,V3_089,20,female,2024-11-22_17h30.53.216,jersey_experiment_5_v3,2023.2.2,Win32,84.74576271,,,,,,,,,,,,,,,,843.0968,844.3993,844.3994,846.2585,return,0.7772,,75.390625,,,,,,FBP-PT-71.png,0.45,1.2,20,0.5,,,,,,,,,,,,,,,,,,0,14,14,19,1,,,,,,,,,,,,,,,,,,,,,,,
,,,,,V3_089,20,female,2024-11-22_17h30.53.216,jersey_experiment_5_v3,2023.2.2,Win32,84.74576271,,,,,,,,,,,,,,,,846.2587,847.5523,847.5523,849.0021,return,0.556,,12.890625,,,,,,FBP-YG-18.png,0.37,1.2,7,0.5,,,,,,,,,,,,,,,,,,0,15,15,6,1,,,,,,,,,,,,,,,,,,,,,,,
,,,,,V3_089,20,female,2024-11-22_17h30.53.216,jersey_experiment_5_v3,2023.2.2,Win32,84.74576271,,,,,,,,,,,,,,,,849.0023,850.3053,850.3054,854.3139,return,2.4368,,37.5,,,,,,FBP-PT-81.png,0.35,1.2,21,0.5,,,,,,,,,,,,,,,,,,0,16,16,20,1,,,,,,,,,,,,,,,,,,,,,,,
,,,,,V3_089,20,female,2024-11-22_17h30.53.216,jersey_experiment_5_v3,2023.2.2,Win32,84.74576271,,,,,,,,,,,,,,,,854.3141,855.6145,855.6145,857.5754,return,0.8233,,67.578125,,,,,,FBP-PT-91.png,0.43,1.2,29,0.5,,,,,,,,,,,,,,,,,,0,17,17,28,1,,,,,,,,,,,,,,,,,,,,,,,
,,,,,V3_089,20,female,2024-11-22_17h30.53.216,jersey_experiment_5_v3,2023.2.2,Win32,84.74576271,,,,,,,,,,,,,,,,857.5756,859.1206,859.1206,860.956,return,0.4859,,48.30729167,,,,,,FBP-OG-81.png,0.43,1.2,39,0.75,,,,,,,,,,,,,,,,,,0,18,18,38,1,,,,,,,,,,,,,,,,,,,,,,,
,,,,,V3_089,20,female,2024-11-22_17h30.53.216,jersey_experiment_5_v3,2023.2.2,Win32,84.74576271,,,,,,,,,,,,,,,,860.9562,862.259,862.2591,865.3259,return,0.5899,,13.28125,,,,,,FBP-RB-91.png,0.35,1.2,56,0.5,,,,,,,,,,,,,,,,,,0,19,19,55,1,,,,,,,,,,,,,,,,,,,,,,,
,,,,,V3_089,20,female,2024-11-22_17h30.53.216,jersey_experiment_5_v3,2023.2.2,Win32,84.74576271,,,,,,,,,,,,,,,,865.3262,866.8673,866.8673,868.3691,return,0.3546,,41.53645833,,,,,,FBP-OG-71.png,0.43,1.2,34,0.75,,,,,,,,,,,,,,,,,,0,20,20,33,1,,,,,,,,,,,,,,,,,,,,,,,
,,,,,V3_089,20,female,2024-11-22_17h30.53.216,jersey_experiment_5_v3,2023.2.2,Win32,84.74576271,,,,,,,,,,,,,,,,868.3693,869.6705,869.6705,871.4034,return,0.533,,61.84895833,,,,,,FBP-YG-17.png,0.45,1.2,5,0.5,,,,,,,,,,,,,,,,,,0,21,21,4,1,,,,,,,,,,,,,,,,,,,,,,,
,,,,,V3_089,20,female,2024-11-22_17h30.53.216,jersey_experiment_5_v3,2023.2.2,Win32,84.74576271,,,,,,,,,,,,,,,,871.4035,872.7061,872.7061,873.7563,return,0.4858,,61.84895833,,,,,,FBP-RB-81.png,0.45,1.2,55,0.5,,,,,,,,,,,,,,,,,,0,22,22,54,1,,,,,,,,,,,,,,,,,,,,,,,
,,,,,V3_089,20,female,2024-11-22_17h30.53.216,jersey_experiment_5_v3,2023.2.2,Win32,84.74576271,,,,,,,,,,,,,,,,873.7564,875.0486,875.0487,878.6829,return,0.4791,,22.265625,,,,,,FBP-PT-71.png,0.37,1.2,17,0.5,,,,,,,,,,,,,,,,,,0,23,23,16,1,,,,,,,,,,,,,,,,,,,,,,,
,,,,,V3_089,20,female,2024-11-22_17h30.53.216,jersey_experiment_5_v3,2023.2.2,Win32,84.74576271,,,,,,,,,,,,,,,,878.6832,879.9773,879.9773,882.6038,return,1.0976,,79.03645833,,,,,,FBP-RB-71.png,0.45,1.2,50,0.5,,,,,,,,,,,,,,,,,,0,24,24,49,1,,,,,,,,,,,,,,,,,,,,,,,
,,,,,V3_089,20,female,2024-11-22_17h30.53.216,jersey_experiment_5_v3,2023.2.2,Win32,84.74576271,,,,,,,,,,,,,,,,882.604,883.9065,883.9065,884.9187,return,0.4322,,79.03645833,,,,,,FBP-RB-91.png,0.45,1.2,60,0.5,,,,,,,,,,,,,,,,,,0,25,25,59,1,,,,,,,,,,,,,,,,,,,,,,,
,,,,,V3_089,20,female,2024-11-22_17h30.53.216,jersey_experiment_5_v3,2023.2.2,Win32,84.74576271,,,,,,,,,,,,,,,,884.9189,886.4605,886.4605,887.898,return,0.4858,,73.4375,,,,,,FBP-OG-91.png,0.43,1.2,44,0.75,,,,,,,,,,,,,,,,,,0,26,26,43,1,,,,,,,,,,,,,,,,,,,,,,,
,,,,,V3_089,20,female,2024-11-22_17h30.53.216,jersey_experiment_5_v3,2023.2.2,Win32,84.74576271,,,,,,,,,,,,,,,,887.8981,889.1922,889.1923,890.1188,return,0.4798,,73.4375,,,,,,FBP-RB-71.png,0.43,1.2,49,0.5,,,,,,,,,,,,,,,,,,0,27,27,48,1,,,,,,,,,,,,,,,,,,,,,,,
,,,,,V3_089,20,female,2024-11-22_17h30.53.216,jersey_experiment_5_v3,2023.2.2,Win32,84.74576271,,,,,,,,,,,,,,,,890.119,891.427,891.427,894.0955,return,0.5889,,35.67708333,,,,,,FBP-YG-17.png,0.35,1.2,1,0.5,,,,,,,,,,,,,,,,,,0,28,28,0,1,,,,,,,,,,,,,,,,,,,,,,,
,,,,,V3_089,20,female,2024-11-22_17h30.53.216,jersey_experiment_5_v3,2023.2.2,Win32,84.74576271,,,,,,,,,,,,,,,,894.0956,895.3894,895.3895,896.4485,return,0.4092,,35.67708333,,,,,,FBP-PT-71.png,0.4,1.2,18,0.5,,,,,,,,,,,,,,,,,,0,29,29,17,1,,,,,,,,,,,,,,,,,,,,,,,
,,,,,V3_089,20,female,2024-11-22_17h30.53.216,jersey_experiment_5_v3,2023.2.2,Win32,84.74576271,,,,,,,,,,,,,,,,896.4487,897.7573,897.7574,899.6163,return,0.4004,,35.80729167,,,,,,FBP-PT-71.png,0.43,1.2,19,0.5,,,,,,,,,,,,,,,,,,0,30,30,18,1,,,,,,,,,,,,,,,,,,,,,,,
,,,,,V3_089,20,female,2024-11-22_17h30.53.216,jersey_experiment_5_v3,2023.2.2,Win32,84.74576271,,,,,,,,,,,,,,,,899.6165,900.919,900.919,902.425,return,0.4473,,24.34895833,,,,,,FBP-PT-81.png,0.37,1.2,22,0.5,,,,,,,,,,,,,,,,,,0,31,31,21,1,,,,,,,,,,,,,,,,,,,,,,,
,,,,,V3_089,20,female,2024-11-22_17h30.53.216,jersey_experiment_5_v3,2023.2.2,Win32,84.74576271,,,,,,,,,,,,,,,,902.4251,903.7189,903.7189,904.7547,return,0.4006,,17.96875,,,,,,FBP-PT-91.png,0.35,1.2,26,0.5,,,,,,,,,,,,,,,,,,0,32,32,25,1,,,,,,,,,,,,,,,,,,,,,,,
,,,,,V3_089,20,female,2024-11-22_17h30.53.216,jersey_experiment_5_v3,2023.2.2,Win32,84.74576271,,,,,,,,,,,,,,,,904.7548,906.0636,906.0636,907.9931,return,0.518,,24.86979167,,,,,,FBP-RB-91.png,0.4,1.2,58,0.5,,,,,,,,,,,,,,,,,,0,33,33,57,1,,,,,,,,,,,,,,,,,,,,,,,
,,,,,V3_089,20,female,2024-11-22_17h30.53.216,jersey_experiment_5_v3,2023.2.2,Win32,84.74576271,,,,,,,,,,,,,,,,907.9934,909.2869,909.2869,912.1904,return,0.4946,,23.4375,,,,,,FBP-YG-19.png,0.37,1.2,12,0.5,,,,,,,,,,,,,,,,,,0,34,34,11,1,,,,,,,,,,,,,,,,,,,,,,,
,,,,,V3_089,20,female,2024-11-22_17h30.53.216,jersey_experiment_5_v3,2023.2.2,Win32,84.74576271,,,,,,,,,,,,,,,,912.1906,913.7326,913.7326,915.0051,return,0.4708,,4.817708333,,,,,,FBP-OG-81.png,0.35,1.2,36,0.75,,,,,,,,,,,,,,,,,,0,35,35,35,1,,,,,,,,,,,,,,,,,,,,,,,
,,,,,V3_089,20,female,2024-11-22_17h30.53.216,jersey_experiment_5_v3,2023.2.2,Win32,84.74576271,,,,,,,,,,,,,,,,915.0054,916.5579,916.558,917.5229,return,0.4475,,5.859375,,,,,,FBP-OG-71.png,0.37,1.2,32,0.75,,,,,,,,,,,,,,,,,,0,36,36,31,1,,,,,,,,,,,,,,,,,,,,,,,
,,,,,V3_089,20,female,2024-11-22_17h30.53.216,jersey_experiment_5_v3,2023.2.2,Win32,84.74576271,,,,,,,,,,,,,,,,917.523,918.8169,918.8169,921.2644,return,0.5097,,47.91666667,,,,,,FBP-YG-18.png,0.43,1.2,9,0.5,,,,,,,,,,,,,,,,,,0,37,37,8,1,,,,,,,,,,,,,,,,,,,,,,,
,,,,,V3_089,20,female,2024-11-22_17h30.53.216,jersey_experiment_5_v3,2023.2.2,Win32,84.74576271,,,,,,,,,,,,,,,,921.2646,922.8167,922.8167,923.8846,return,0.5646,,47.65625,,,,,,FBP-OG-81.png,0.4,1.2,38,0.75,,,,,,,,,,,,,,,,,,0,38,38,37,1,,,,,,,,,,,,,,,,,,,,,,,
,,,,,V3_089,20,female,2024-11-22_17h30.53.216,jersey_experiment_5_v3,2023.2.2,Win32,84.74576271,,,,,,,,,,,,,,,,923.8848,925.1819,925.1819,927.1822,return,1.0356,,44.66145833,,,,,,FBP-YG-17.png,0.4,1.2,3,0.5,,,,,,,,,,,,,,,,,,0,39,39,2,1,,,,,,,,,,,,,,,,,,,,,,,
,,,,,V3_089,20,female,2024-11-22_17h30.53.216,jersey_experiment_5_v3,2023.2.2,Win32,84.74576271,,,,,,,,,,,,,,,,927.1823,928.476,928.476,929.9351,return,0.5329,,26.04166667,,,,,,FBP-YG-19.png,0.35,1.2,11,0.5,,,,,,,,,,,,,,,,,,0,40,40,10,1,,,,,,,,,,,,,,,,,,,,,,,
,,,,,V3_089,20,female,2024-11-22_17h30.53.216,jersey_experiment_5_v3,2023.2.2,Win32,84.74576271,,,,,,,,,,,,,,,,929.9353,931.238,931.238,932.806,return,0.4474,,22.91666667,,,,,,FBP-RB-71.png,0.35,1.2,46,0.5,,,,,,,,,,,,,,,,,,0,41,41,45,1,,,,,,,,,,,,,,,,,,,,,,,
,,,,,V3_089,20,female,2024-11-22_17h30.53.216,jersey_experiment_5_v3,2023.2.2,Win32,84.74576271,,,,,,,,,,,,,,,,932.8061,934.1082,934.1082,935.2297,return,0.5096,,22.91666667,,,,,,FBP-RB-91.png,0.37,1.2,57,0.5,,,,,,,,,,,,,,,,,,0,42,42,56,1,,,,,,,,,,,,,,,,,,,,,,,
,,,,,V3_089,20,female,2024-11-22_17h30.53.216,jersey_experiment_5_v3,2023.2.2,Win32,84.74576271,,,,,,,,,,,,,,,,935.2298,936.5234,936.5234,938.7903,return,1.5055,,25.52083333,,,,,,FBP-PT-91.png,0.4,1.2,28,0.5,,,,,,,,,,,,,,,,,,0,43,43,27,1,,,,,,,,,,,,,,,,,,,,,,,
,,,,,V3_089,20,female,2024-11-22_17h30.53.216,jersey_experiment_5_v3,2023.2.2,Win32,84.74576271,,,,,,,,,,,,,,,,938.7906,940.0853,940.0853,942.2741,return,0.527,,51.43229167,,,,,,FBP-RB-81.png,0.43,1.2,54,0.5,,,,,,,,,,,,,,,,,,0,44,44,53,1,,,,,,,,,,,,,,,,,,,,,,,
,,,,,V3_089,20,female,2024-11-22_17h30.53.216,jersey_experiment_5_v3,2023.2.2,Win32,84.74576271,,,,,,,,,,,,,,,,942.2742,943.5679,943.568,946.0389,return,1.2713,,26.04166667,,,,,,FBP-YG-17.png,0.37,1.2,2,0.5,,,,,,,,,,,,,,,,,,0,45,45,1,1,,,,,,,,,,,,,,,,,,,,,,,
,,,,,V3_089,20,female,2024-11-22_17h30.53.216,jersey_experiment_5_v3,2023.2.2,Win32,84.74576271,,,,,,,,,,,,,,,,946.0389,947.3476,947.3476,948.4065,return,0.4621,,24.86979167,,,,,,FBP-PT-71.png,0.35,1.2,16,0.5,,,,,,,,,,,,,,,,,,0,46,46,15,1,,,,,,,,,,,,,,,,,,,,,,,
,,,,,V3_089,20,female,2024-11-22_17h30.53.216,jersey_experiment_5_v3,2023.2.2,Win32,84.74576271,,,,,,,,,,,,,,,,948.4066,949.7059,949.7059,952.4627,return,1.1531,,24.86979167,,,,,,FBP-YG-18.png,0.4,1.2,8,0.5,,,,,,,,,,,,,,,,,,0,47,47,7,1,,,,,,,,,,,,,,,,,,,,,,,
,,,,,V3_089,20,female,2024-11-22_17h30.53.216,jersey_experiment_5_v3,2023.2.2,Win32,84.74576271,,,,,,,,,,,,,,,,952.4629,953.7562,953.7562,955.7564,return,0.4556,,25,,,,,,FBP-RB-71.png,0.4,1.2,48,0.5,,,,,,,,,,,,,,,,,,0,48,48,47,1,,,,,,,,,,,,,,,,,,,,,,,
,,,,,V3_089,20,female,2024-11-22_17h30.53.216,jersey_experiment_5_v3,2023.2.2,Win32,84.74576271,,,,,,,,,,,,,,,,955.7566,957.0508,957.0509,959.9921,return,1.9768,,33.07291667,,,,,,FBP-PT-81.png,0.4,1.2,23,0.5,,,,,,,,,,,,,,,,,,0,49,49,22,1,,,,,,,,,,,,,,,,,,,,,,,
,,,,,V3_089,20,female,2024-11-22_17h30.53.216,jersey_experiment_5_v3,2023.2.2,Win32,84.74576271,,,,,,,,,,,,,,,,959.9923,961.545,961.545,964.9097,return,0.6117,,39.84375,,,,,,FBP-OG-71.png,0.4,1.2,33,0.75,,,,,,,,,,,,,,,,,,0,50,50,32,1,,,,,,,,,,,,,,,,,,,,,,,
,,,,,V3_089,20,female,2024-11-22_17h30.53.216,jersey_experiment_5_v3,2023.2.2,Win32,84.74576271,,,,,,,,,,,,,,,,964.9098,966.2187,966.2187,968.1418,return,0.5037,,70.96354167,,,,,,FBP-PT-81.png,0.45,1.2,25,0.5,,,,,,,,,,,,,,,,,,0,51,51,24,1,,,,,,,,,,,,,,,,,,,,,,,
,,,,,V3_089,20,female,2024-11-22_17h30.53.216,jersey_experiment_5_v3,2023.2.2,Win32,84.74576271,,,,,,,,,,,,,,,,968.142,969.4423,969.4423,970.8864,return,0.7852,,70.96354167,,,,,,FBP-PT-81.png,0.43,1.2,24,0.5,,,,,,,,,,,,,,,,,,0,52,52,23,1,,,,,,,,,,,,,,,,,,,,,,,
,,,,,V3_089,20,female,2024-11-22_17h30.53.216,jersey_experiment_5_v3,2023.2.2,Win32,84.74576271,,,,,,,,,,,,,,,,970.8866,972.1802,972.1802,973.9369,return,0.533,,26.04166667,,,,,,FBP-RB-81.png,0.35,1.2,51,0.5,,,,,,,,,,,,,,,,,,0,53,53,50,1,,,,,,,,,,,,,,,,,,,,,,,
,,,,,V3_089,20,female,2024-11-22_17h30.53.216,jersey_experiment_5_v3,2023.2.2,Win32,84.74576271,,,,,,,,,,,,,,,,973.9371,975.2308,975.2309,977.8751,return,0.7535,,47.78645833,,,,,,FBP-YG-17.png,0.43,1.2,4,0.5,,,,,,,,,,,,,,,,,,0,54,54,3,1,,,,,,,,,,,,,,,,,,,,,,,
,,,,,V3_089,20,female,2024-11-22_17h30.53.216,jersey_experiment_5_v3,2023.2.2,Win32,84.74576271,,,,,,,,,,,,,,,,977.8753,979.4192,979.4193,984.0011,return,3.3971,,25.390625,,,,,,FBP-OG-81.png,0.37,1.2,37,0.75,,,,,,,,,,,,,,,,,,0,55,55,36,1,,,,,,,,,,,,,,,,,,,,,,,
,,,,,V3_089,20,female,2024-11-22_17h30.53.216,jersey_experiment_5_v3,2023.2.2,Win32,84.74576271,,,,,,,,,,,,,,,,984.0013,985.3019,985.3019,987.5138,return,0.4624,,73.56770833,,,,,,FBP-PT-91.png,0.45,1.2,30,0.5,,,,,,,,,,,,,,,,,,0,56,56,29,1,,,,,,,,,,,,,,,,,,,,,,,
,,,,,V3_089,20,female,2024-11-22_17h30.53.216,jersey_experiment_5_v3,2023.2.2,Win32,84.74576271,,,,,,,,,,,,,,,,987.514,989.0667,989.0667,990.3374,return,0.5179,,43.75,,,,,,FBP-OG-91.png,0.37,1.2,42,0.75,,,,,,,,,,,,,,,,,,0,57,57,41,1,,,,,,,,,,,,,,,,,,,,,,,
,,,,,V3_089,20,female,2024-11-22_17h30.53.216,jersey_experiment_5_v3,2023.2.2,Win32,84.74576271,,,,,,,,,,,,,,,,990.3376,991.6312,991.6313,993.193,return,0.503,,44.01041667,,,,,,FBP-RB-81.png,0.4,1.2,53,0.5,,,,,,,,,,,,,,,,,,0,58,58,52,1,,,,,,,,,,,,,,,,,,,,,,,
,,,,,V3_089,20,female,2024-11-22_17h30.53.216,jersey_experiment_5_v3,2023.2.2,Win32,84.74576271,,,,,,,,,,,,,,,,993.1931,994.746,994.7461,996.0722,return,0.5004,,46.35416667,,,,,,FBP-OG-91.png,0.4,1.2,43,0.75,,,,,,,,,,,,,,,,,,0,59,59,42,1,,,,,,,,,,,,,,,,,,,,,,,
,,,,,V3_089,20,female,2024-11-22_17h30.53.216,jersey_experiment_5_v3,2023.2.2,Win32,84.74576271,,,,,,,,,,,,,,,,,,,,,,,,,,,,,,,,,,,,,,,,,,,,,,,,,,,,,,,,996.0723,1002.8256,return,6.7346,,,,,,,,,,,,,,,,,,,
,,,,,V3_089,20,female,2024-11-22_17h30.53.216,jersey_experiment_5_v3,2023.2.2,Win32,84.74576271,,,,,,,,,,,,,,,,,,,,,,,,,,,,,,,,,,,,,,,,,,,,,,,,,,,,,,,,,,,,,1002.8256,1007.9936,1,3.5675,return,1.585,,,,,,,,,,,,
,,,,,V3_089,20,female,2024-11-22_17h30.53.216,jersey_experiment_5_v3,2023.2.2,Win32,84.74576271,,,,,,,,,,,,,,,,,,,,,,,,,,,,,,,,,,,,,,,,,,,,,,,,,,,,,,,,,,,,,,,,,,,,1007.9936,1085.9179,maybe if race plays a factor in how body size in perceived ,right,66.6526,,,,,,
,,,,,V3_089,20,female,2024-11-22_17h30.53.216,jersey_experiment_5_v3,2023.2.2,Win32,84.74576271,,,,,,,,,,,,,,,,,,,,,,,,,,,,,,,,,,,,,,,,,,,,,,,,,,,,,,,,,,,,,,,,,,,,,,,,,,1085.9179,1092.6944,return,6.7685,