requirements.started,requirements.stopped,key_resp_3.keys,key_resp_3.rt,key_resp_3.duration,Subject ID,Age,Gender,date,expName,psychopyVersion,OS,frameRate,instructions1.started,instructions1.stopped,key_resp.keys,key_resp.rt,key_resp.duration,example.started,example.stopped,enter_2.keys,enter_2.rt,enter_2.duration,instructions2.started,instructions2.stopped,enter_3.keys,enter_3.rt,enter_3.duration,image.started,image.stopped,slider_2.started,slider_2.stopped,next.keys,next.rt,next.duration,slider.response,trial_block_1.thisRepN,trial_block_1.thisTrialN,trial_block_1.thisN,trial_block_1.thisIndex,trial_block_1.ran,Path,Width,Height,Index,Duration,trial_block_2.thisRepN,trial_block_2.thisTrialN,trial_block_2.thisN,trial_block_2.thisIndex,trial_block_2.ran,rest_break.started,rest_break.stopped,end_break.started,end_break.stopped,key_resp_5.keys,key_resp_5.rt,key_resp_5.duration,trial_block_3.thisRepN,trial_block_3.thisTrialN,trial_block_3.thisN,trial_block_3.thisIndex,trial_block_3.ran,trial_block_4.thisRepN,trial_block_4.thisTrialN,trial_block_4.thisN,trial_block_4.thisIndex,trial_block_4.ran,questions_intro.started,questions_intro.stopped,enter_12.keys,enter_12.rt,enter_12.duration,question2.started,question2.stopped,question_doingbest.response,question_doingbest.rt,enter_15.keys,enter_15.rt,enter_15.duration,pattern.started,pattern.stopped,pattern_2.text,enter_17.keys,enter_17.rt,enter_17.duration,thankyou.started,thankyou.stopped,enter_14.keys,enter_14.rt,enter_14.duration
0.0001,10.9032,return,10.8911,,V3_046,21,Female,2024-11-04_16h08.49.279,jersey_experiment_5_v3,2023.2.2,Win32,84.74576271,,,,,,,,,,,,,,,,,,,,,,,,,,,,,,,,,,,,,,,,,,,,,,,,,,,,,,,,,,,,,,,,,,,,,,,,,,,,,,
,,,,,V3_046,21,Female,2024-11-04_16h08.49.279,jersey_experiment_5_v3,2023.2.2,Win32,84.74576271,10.9032,16.1034,return,5.1782,,,,,,,,,,,,,,,,,,,,,,,,,,,,,,,,,,,,,,,,,,,,,,,,,,,,,,,,,,,,,,,,,,,,,,,,,,
,,,,,V3_046,21,Female,2024-11-04_16h08.49.279,jersey_experiment_5_v3,2023.2.2,Win32,84.74576271,,,,,,16.1035,20.2448,return,4.106,,,,,,,,,,,,,,,,,,,,,,,,,,,,,,,,,,,,,,,,,,,,,,,,,,,,,,,,,,,,,,,,,,,,,
,,,,,V3_046,21,Female,2024-11-04_16h08.49.279,jersey_experiment_5_v3,2023.2.2,Win32,84.74576271,,,,,,,,,,,20.2449,24.8567,return,4.5961,,,,,,,,,,,,,,,,,,,,,,,,,,,,,,,,,,,,,,,,,,,,,,,,,,,,,,,,,,,,,,,,
,,,,,V3_046,21,Female,2024-11-04_16h08.49.279,jersey_experiment_5_v3,2023.2.2,Win32,84.74576271,,,,,,,,,,,,,,,,24.8595,26.4095,26.4096,33.0452,return,2.192,,74.47916667,0,0,0,54,1,FBP-RB-18.png,0.45,1.2,55,0.75,,,,,,,,,,,,,,,,,,,,,,,,,,,,,,,,,,,,,,,,,,,,,
,,,,,V3_046,21,Female,2024-11-04_16h08.49.279,jersey_experiment_5_v3,2023.2.2,Win32,84.74576271,,,,,,,,,,,,,,,,33.0455,34.5981,34.5981,37.3158,return,1.8756,,47.13541667,0,1,1,27,1,FBP-PT-19.png,0.4,1.2,28,0.75,,,,,,,,,,,,,,,,,,,,,,,,,,,,,,,,,,,,,,,,,,,,,
,,,,,V3_046,21,Female,2024-11-04_16h08.49.279,jersey_experiment_5_v3,2023.2.2,Win32,84.74576271,,,,,,,,,,,,,,,,37.3161,38.8688,38.8689,39.9277,return,0.2378,,30.98958333,0,2,2,25,1,FBP-PT-19.png,0.35,1.2,26,0.75,,,,,,,,,,,,,,,,,,,,,,,,,,,,,,,,,,,,,,,,,,,,,
,,,,,V3_046,21,Female,2024-11-04_16h08.49.279,jersey_experiment_5_v3,2023.2.2,Win32,84.74576271,,,,,,,,,,,,,,,,39.9279,41.4809,41.481,42.7396,return,0.4757,,70.05208333,0,3,3,14,1,FBP-YG-91.png,0.45,1.2,15,0.75,,,,,,,,,,,,,,,,,,,,,,,,,,,,,,,,,,,,,,,,,,,,,
,,,,,V3_046,21,Female,2024-11-04_16h08.49.279,jersey_experiment_5_v3,2023.2.2,Win32,84.74576271,,,,,,,,,,,,,,,,42.7398,44.0337,44.0337,45.4456,return,0.6487,,47.78645833,0,4,4,31,1,FBP-OG-17.png,0.37,1.2,32,0.5,,,,,,,,,,,,,,,,,,,,,,,,,,,,,,,,,,,,,,,,,,,,,
,,,,,V3_046,21,Female,2024-11-04_16h08.49.279,jersey_experiment_5_v3,2023.2.2,Win32,84.74576271,,,,,,,,,,,,,,,,45.4459,46.9985,46.9985,48.0103,return,0.1649,,39.32291667,0,5,5,56,1,FBP-RB-19.png,0.37,1.2,57,0.75,,,,,,,,,,,,,,,,,,,,,,,,,,,,,,,,,,,,,,,,,,,,,
,,,,,V3_046,21,Female,2024-11-04_16h08.49.279,jersey_experiment_5_v3,2023.2.2,Win32,84.74576271,,,,,,,,,,,,,,,,48.0106,49.3045,49.3046,50.1164,return,0.144,,51.43229167,0,6,6,32,1,FBP-OG-17.png,0.4,1.2,33,0.5,,,,,,,,,,,,,,,,,,,,,,,,,,,,,,,,,,,,,,,,,,,,,
,,,,,V3_046,21,Female,2024-11-04_16h08.49.279,jersey_experiment_5_v3,2023.2.2,Win32,84.74576271,,,,,,,,,,,,,,,,50.1167,51.6694,51.6694,52.4575,return,0.1651,,68.48958333,0,7,7,8,1,FBP-YG-81.png,0.43,1.2,9,0.75,,,,,,,,,,,,,,,,,,,,,,,,,,,,,,,,,,,,,,,,,,,,,
,,,,,V3_046,21,Female,2024-11-04_16h08.49.279,jersey_experiment_5_v3,2023.2.2,Win32,84.74576271,,,,,,,,,,,,,,,,52.4578,54.0107,54.0107,55.2224,return,0.2036,,29.94791667,0,8,8,15,1,FBP-PT-17.png,0.35,1.2,16,0.75,,,,,,,,,,,,,,,,,,,,,,,,,,,,,,,,,,,,,,,,,,,,,
,,,,,V3_046,21,Female,2024-11-04_16h08.49.279,jersey_experiment_5_v3,2023.2.2,Win32,84.74576271,,,,,,,,,,,,,,,,55.2226,56.7757,56.7757,57.4931,return,0.1551,,75.26041667,0,9,9,4,1,FBP-YG-71.png,0.45,1.2,5,0.75,,,,,,,,,,,,,,,,,,,,,,,,,,,,,,,,,,,,,,,,,,,,,
,,,,,V3_046,21,Female,2024-11-04_16h08.49.279,jersey_experiment_5_v3,2023.2.2,Win32,84.74576271,,,,,,,,,,,,,,,,57.4933,59.046,59.046,60.1166,return,0.204,,51.04166667,0,10,10,46,1,FBP-RB-17.png,0.37,1.2,47,0.75,,,,,,,,,,,,,,,,,,,,,,,,,,,,,,,,,,,,,,,,,,,,,
,,,,,V3_046,21,Female,2024-11-04_16h08.49.279,jersey_experiment_5_v3,2023.2.2,Win32,84.74576271,,,,,,,,,,,,,,,,60.1168,61.6696,61.6696,62.4226,return,0.2021,,46.09375,0,11,11,16,1,FBP-PT-17.png,0.37,1.2,17,0.75,,,,,,,,,,,,,,,,,,,,,,,,,,,,,,,,,,,,,,,,,,,,,
,,,,,V3_046,21,Female,2024-11-04_16h08.49.279,jersey_experiment_5_v3,2023.2.2,Win32,84.74576271,,,,,,,,,,,,,,,,62.4228,63.9756,63.9757,64.7756,return,0.1806,,80.33854167,0,12,12,19,1,FBP-PT-17.png,0.45,1.2,20,0.75,,,,,,,,,,,,,,,,,,,,,,,,,,,,,,,,,,,,,,,,,,,,,
,,,,,V3_046,21,Female,2024-11-04_16h08.49.279,jersey_experiment_5_v3,2023.2.2,Win32,84.74576271,,,,,,,,,,,,,,,,64.7758,66.3287,66.3288,66.9875,return,0.1097,,65.49479167,0,13,13,58,1,FBP-RB-19.png,0.43,1.2,59,0.75,,,,,,,,,,,,,,,,,,,,,,,,,,,,,,,,,,,,,,,,,,,,,
,,,,,V3_046,21,Female,2024-11-04_16h08.49.279,jersey_experiment_5_v3,2023.2.2,Win32,84.74576271,,,,,,,,,,,,,,,,66.9878,68.2818,68.2818,69.2582,return,0.1414,,82.03125,0,14,14,33,1,FBP-OG-17.png,0.43,1.2,34,0.5,,,,,,,,,,,,,,,,,,,,,,,,,,,,,,,,,,,,,,,,,,,,,
,,,,,V3_046,21,Female,2024-11-04_16h08.49.279,jersey_experiment_5_v3,2023.2.2,Win32,84.74576271,,,,,,,,,,,,,,,,69.2585,70.5525,70.5525,71.4347,return,0.1439,,34.11458333,0,15,15,30,1,FBP-OG-17.png,0.35,1.2,31,0.5,,,,,,,,,,,,,,,,,,,,,,,,,,,,,,,,,,,,,,,,,,,,,
,,,,,V3_046,21,Female,2024-11-04_16h08.49.279,jersey_experiment_5_v3,2023.2.2,Win32,84.74576271,,,,,,,,,,,,,,,,71.435,72.9877,72.9878,73.9407,return,0.1921,,26.04166667,0,16,16,45,1,FBP-RB-17.png,0.35,1.2,46,0.75,,,,,,,,,,,,,,,,,,,,,,,,,,,,,,,,,,,,,,,,,,,,,
,,,,,V3_046,21,Female,2024-11-04_16h08.49.279,jersey_experiment_5_v3,2023.2.2,Win32,84.74576271,,,,,,,,,,,,,,,,73.9411,75.4938,75.4939,76.4114,return,0.1885,,45.44270833,0,17,17,6,1,FBP-YG-81.png,0.37,1.2,7,0.75,,,,,,,,,,,,,,,,,,,,,,,,,,,,,,,,,,,,,,,,,,,,,
,,,,,V3_046,21,Female,2024-11-04_16h08.49.279,jersey_experiment_5_v3,2023.2.2,Win32,84.74576271,,,,,,,,,,,,,,,,76.4116,77.9643,77.9644,79.1409,return,0.2484,,64.32291667,0,18,18,57,1,FBP-RB-19.png,0.4,1.2,58,0.75,,,,,,,,,,,,,,,,,,,,,,,,,,,,,,,,,,,,,,,,,,,,,
,,,,,V3_046,21,Female,2024-11-04_16h08.49.279,jersey_experiment_5_v3,2023.2.2,Win32,84.74576271,,,,,,,,,,,,,,,,79.1412,80.6938,80.6939,81.4585,return,0.1827,,66.14583333,0,19,19,7,1,FBP-YG-81.png,0.4,1.2,8,0.75,,,,,,,,,,,,,,,,,,,,,,,,,,,,,,,,,,,,,,,,,,,,,
,,,,,V3_046,21,Female,2024-11-04_16h08.49.279,jersey_experiment_5_v3,2023.2.2,Win32,84.74576271,,,,,,,,,,,,,,,,81.4588,83.0118,83.0118,83.6235,return,0.1895,,77.21354167,0,20,20,24,1,FBP-PT-18.png,0.45,1.2,25,0.75,,,,,,,,,,,,,,,,,,,,,,,,,,,,,,,,,,,,,,,,,,,,,
,,,,,V3_046,21,Female,2024-11-04_16h08.49.279,jersey_experiment_5_v3,2023.2.2,Win32,84.74576271,,,,,,,,,,,,,,,,83.6237,85.1765,85.1766,86.0235,return,0.225,,33.203125,0,21,21,0,1,FBP-YG-71.png,0.35,1.2,1,0.75,,,,,,,,,,,,,,,,,,,,,,,,,,,,,,,,,,,,,,,,,,,,,
,,,,,V3_046,21,Female,2024-11-04_16h08.49.279,jersey_experiment_5_v3,2023.2.2,Win32,84.74576271,,,,,,,,,,,,,,,,86.0237,87.3178,87.3178,88.1059,return,0.1978,,73.4375,0,22,22,42,1,FBP-OG-19.png,0.4,1.2,43,0.5,,,,,,,,,,,,,,,,,,,,,,,,,,,,,,,,,,,,,,,,,,,,,
,,,,,V3_046,21,Female,2024-11-04_16h08.49.279,jersey_experiment_5_v3,2023.2.2,Win32,84.74576271,,,,,,,,,,,,,,,,88.1062,89.6474,89.6475,90.2355,return,0.1781,,63.28125,0,23,23,52,1,FBP-RB-18.png,0.4,1.2,53,0.75,,,,,,,,,,,,,,,,,,,,,,,,,,,,,,,,,,,,,,,,,,,,,
,,,,,V3_046,21,Female,2024-11-04_16h08.49.279,jersey_experiment_5_v3,2023.2.2,Win32,84.74576271,,,,,,,,,,,,,,,,90.2358,91.7885,91.7885,92.4355,return,0.2488,,64.84375,0,24,24,12,1,FBP-YG-91.png,0.4,1.2,13,0.75,,,,,,,,,,,,,,,,,,,,,,,,,,,,,,,,,,,,,,,,,,,,,
,,,,,V3_046,21,Female,2024-11-04_16h08.49.279,jersey_experiment_5_v3,2023.2.2,Win32,84.74576271,,,,,,,,,,,,,,,,92.4358,93.9885,93.9886,95.3533,return,0.8083,,42.83854167,0,25,25,26,1,FBP-PT-19.png,0.37,1.2,27,0.75,,,,,,,,,,,,,,,,,,,,,,,,,,,,,,,,,,,,,,,,,,,,,
,,,,,V3_046,21,Female,2024-11-04_16h08.49.279,jersey_experiment_5_v3,2023.2.2,Win32,84.74576271,,,,,,,,,,,,,,,,95.3536,96.6474,96.6475,97.671,return,0.228,,73.56770833,0,26,26,38,1,FBP-OG-18.png,0.43,1.2,39,0.5,,,,,,,,,,,,,,,,,,,,,,,,,,,,,,,,,,,,,,,,,,,,,
,,,,,V3_046,21,Female,2024-11-04_16h08.49.279,jersey_experiment_5_v3,2023.2.2,Win32,84.74576271,,,,,,,,,,,,,,,,97.6712,99.2239,99.224,99.8239,return,0.1736,,75.65104167,0,27,27,48,1,FBP-RB-17.png,0.43,1.2,49,0.75,,,,,,,,,,,,,,,,,,,,,,,,,,,,,,,,,,,,,,,,,,,,,
,,,,,V3_046,21,Female,2024-11-04_16h08.49.279,jersey_experiment_5_v3,2023.2.2,Win32,84.74576271,,,,,,,,,,,,,,,,99.8242,101.377,101.377,102.0359,return,0.1932,,57.29166667,0,28,28,47,1,FBP-RB-17.png,0.4,1.2,48,0.75,,,,,,,,,,,,,,,,,,,,,,,,,,,,,,,,,,,,,,,,,,,,,
,,,,,V3_046,21,Female,2024-11-04_16h08.49.279,jersey_experiment_5_v3,2023.2.2,Win32,84.74576271,,,,,,,,,,,,,,,,102.0361,103.5889,103.5889,104.2241,return,0.1107,,35.28645833,0,29,29,21,1,FBP-PT-18.png,0.37,1.2,22,0.75,,,,,,,,,,,,,,,,,,,,,,,,,,,,,,,,,,,,,,,,,,,,,
,,,,,V3_046,21,Female,2024-11-04_16h08.49.279,jersey_experiment_5_v3,2023.2.2,Win32,84.74576271,,,,,,,,,,,,,,,,104.2243,105.7656,105.7656,106.4713,return,0.1665,,69.140625,0,30,30,18,1,FBP-PT-17.png,0.43,1.2,19,0.75,,,,,,,,,,,,,,,,,,,,,,,,,,,,,,,,,,,,,,,,,,,,,
,,,,,V3_046,21,Female,2024-11-04_16h08.49.279,jersey_experiment_5_v3,2023.2.2,Win32,84.74576271,,,,,,,,,,,,,,,,106.4715,108.0244,108.0244,108.9067,return,0.2442,,29.6875,0,31,31,5,1,FBP-YG-81.png,0.35,1.2,6,0.75,,,,,,,,,,,,,,,,,,,,,,,,,,,,,,,,,,,,,,,,,,,,,
,,,,,V3_046,21,Female,2024-11-04_16h08.49.279,jersey_experiment_5_v3,2023.2.2,Win32,84.74576271,,,,,,,,,,,,,,,,108.907,110.4598,110.4598,111.6833,return,0.6175,,48.828125,0,32,32,17,1,FBP-PT-17.png,0.4,1.2,18,0.75,,,,,,,,,,,,,,,,,,,,,,,,,,,,,,,,,,,,,,,,,,,,,
,,,,,V3_046,21,Female,2024-11-04_16h08.49.279,jersey_experiment_5_v3,2023.2.2,Win32,84.74576271,,,,,,,,,,,,,,,,111.6836,113.2365,113.2365,113.8009,return,0.1524,,71.484375,0,33,33,3,1,FBP-YG-71.png,0.43,1.2,4,0.75,,,,,,,,,,,,,,,,,,,,,,,,,,,,,,,,,,,,,,,,,,,,,
,,,,,V3_046,21,Female,2024-11-04_16h08.49.279,jersey_experiment_5_v3,2023.2.2,Win32,84.74576271,,,,,,,,,,,,,,,,113.8012,115.3542,115.3542,116.0718,return,0.1311,,16.53645833,0,34,34,20,1,FBP-PT-18.png,0.35,1.2,21,0.75,,,,,,,,,,,,,,,,,,,,,,,,,,,,,,,,,,,,,,,,,,,,,
,,,,,V3_046,21,Female,2024-11-04_16h08.49.279,jersey_experiment_5_v3,2023.2.2,Win32,84.74576271,,,,,,,,,,,,,,,,116.072,117.6247,117.6247,118.3423,return,0.1519,,23.046875,0,35,35,11,1,FBP-YG-91.png,0.37,1.2,12,0.75,,,,,,,,,,,,,,,,,,,,,,,,,,,,,,,,,,,,,,,,,,,,,
,,,,,V3_046,21,Female,2024-11-04_16h08.49.279,jersey_experiment_5_v3,2023.2.2,Win32,84.74576271,,,,,,,,,,,,,,,,118.3426,119.8955,119.8955,120.6013,return,0.0789,,80.078125,0,36,36,28,1,FBP-PT-19.png,0.43,1.2,29,0.75,,,,,,,,,,,,,,,,,,,,,,,,,,,,,,,,,,,,,,,,,,,,,
,,,,,V3_046,21,Female,2024-11-04_16h08.49.279,jersey_experiment_5_v3,2023.2.2,Win32,84.74576271,,,,,,,,,,,,,,,,120.6016,121.8953,121.8954,122.6485,return,0.1043,,10.546875,0,37,37,35,1,FBP-OG-18.png,0.35,1.2,36,0.5,,,,,,,,,,,,,,,,,,,,,,,,,,,,,,,,,,,,,,,,,,,,,
,,,,,V3_046,21,Female,2024-11-04_16h08.49.279,jersey_experiment_5_v3,2023.2.2,Win32,84.74576271,,,,,,,,,,,,,,,,122.6488,124.2015,124.2016,125.0249,return,0.1571,,45.05208333,0,38,38,2,1,FBP-YG-71.png,0.4,1.2,3,0.75,,,,,,,,,,,,,,,,,,,,,,,,,,,,,,,,,,,,,,,,,,,,,
,,,,,V3_046,21,Female,2024-11-04_16h08.49.279,jersey_experiment_5_v3,2023.2.2,Win32,84.74576271,,,,,,,,,,,,,,,,125.0252,126.5779,126.5779,127.225,return,0.1328,,31.90104167,0,39,39,10,1,FBP-YG-91.png,0.35,1.2,11,0.75,,,,,,,,,,,,,,,,,,,,,,,,,,,,,,,,,,,,,,,,,,,,,
,,,,,V3_046,21,Female,2024-11-04_16h08.49.279,jersey_experiment_5_v3,2023.2.2,Win32,84.74576271,,,,,,,,,,,,,,,,127.2253,128.7782,128.7782,129.7545,return,0.5278,,36.97916667,0,40,40,51,1,FBP-RB-18.png,0.37,1.2,52,0.75,,,,,,,,,,,,,,,,,,,,,,,,,,,,,,,,,,,,,,,,,,,,,
,,,,,V3_046,21,Female,2024-11-04_16h08.49.279,jersey_experiment_5_v3,2023.2.2,Win32,84.74576271,,,,,,,,,,,,,,,,129.7547,131.0489,131.0489,131.8487,return,0.149,,22.65625,0,41,41,40,1,FBP-OG-19.png,0.35,1.2,41,0.5,,,,,,,,,,,,,,,,,,,,,,,,,,,,,,,,,,,,,,,,,,,,,
,,,,,V3_046,21,Female,2024-11-04_16h08.49.279,jersey_experiment_5_v3,2023.2.2,Win32,84.74576271,,,,,,,,,,,,,,,,131.849,133.4018,133.4019,133.9546,return,0.1227,,75.26041667,0,42,42,29,1,FBP-PT-19.png,0.45,1.2,30,0.75,,,,,,,,,,,,,,,,,,,,,,,,,,,,,,,,,,,,,,,,,,,,,
,,,,,V3_046,21,Female,2024-11-04_16h08.49.279,jersey_experiment_5_v3,2023.2.2,Win32,84.74576271,,,,,,,,,,,,,,,,133.9548,135.5075,135.5076,136.0488,return,0.0902,,77.08333333,0,43,43,53,1,FBP-RB-18.png,0.43,1.2,54,0.75,,,,,,,,,,,,,,,,,,,,,,,,,,,,,,,,,,,,,,,,,,,,,
,,,,,V3_046,21,Female,2024-11-04_16h08.49.279,jersey_experiment_5_v3,2023.2.2,Win32,84.74576271,,,,,,,,,,,,,,,,136.0491,137.3429,137.3429,138.049,return,0.1247,,64.58333333,0,44,44,37,1,FBP-OG-18.png,0.4,1.2,38,0.5,,,,,,,,,,,,,,,,,,,,,,,,,,,,,,,,,,,,,,,,,,,,,
,,,,,V3_046,21,Female,2024-11-04_16h08.49.279,jersey_experiment_5_v3,2023.2.2,Win32,84.74576271,,,,,,,,,,,,,,,,138.0492,139.6021,139.6021,140.202,return,0.2118,,92.70833333,0,45,45,9,1,FBP-YG-81.png,0.45,1.2,10,0.75,,,,,,,,,,,,,,,,,,,,,,,,,,,,,,,,,,,,,,,,,,,,,
,,,,,V3_046,21,Female,2024-11-04_16h08.49.279,jersey_experiment_5_v3,2023.2.2,Win32,84.74576271,,,,,,,,,,,,,,,,140.2022,141.755,141.755,142.3079,return,0.1578,,90.75520833,0,46,46,49,1,FBP-RB-17.png,0.45,1.2,50,0.75,,,,,,,,,,,,,,,,,,,,,,,,,,,,,,,,,,,,,,,,,,,,,
,,,,,V3_046,21,Female,2024-11-04_16h08.49.279,jersey_experiment_5_v3,2023.2.2,Win32,84.74576271,,,,,,,,,,,,,,,,142.3082,143.8609,143.861,144.8728,return,0.1322,,15.75520833,0,47,47,55,1,FBP-RB-19.png,0.35,1.2,56,0.75,,,,,,,,,,,,,,,,,,,,,,,,,,,,,,,,,,,,,,,,,,,,,
,,,,,V3_046,21,Female,2024-11-04_16h08.49.279,jersey_experiment_5_v3,2023.2.2,Win32,84.74576271,,,,,,,,,,,,,,,,144.873,146.4257,146.4257,147.6846,return,0.5323,,88.41145833,0,48,48,59,1,FBP-RB-19.png,0.45,1.2,60,0.75,,,,,,,,,,,,,,,,,,,,,,,,,,,,,,,,,,,,,,,,,,,,,
,,,,,V3_046,21,Female,2024-11-04_16h08.49.279,jersey_experiment_5_v3,2023.2.2,Win32,84.74576271,,,,,,,,,,,,,,,,147.6849,148.9788,148.9789,149.6375,return,0.1442,,84.375,0,49,49,44,1,FBP-OG-19.png,0.45,1.2,45,0.5,,,,,,,,,,,,,,,,,,,,,,,,,,,,,,,,,,,,,,,,,,,,,
,,,,,V3_046,21,Female,2024-11-04_16h08.49.279,jersey_experiment_5_v3,2023.2.2,Win32,84.74576271,,,,,,,,,,,,,,,,149.6379,150.9318,150.9319,151.767,return,0.2257,,36.19791667,0,50,50,41,1,FBP-OG-19.png,0.37,1.2,42,0.5,,,,,,,,,,,,,,,,,,,,,,,,,,,,,,,,,,,,,,,,,,,,,
,,,,,V3_046,21,Female,2024-11-04_16h08.49.279,jersey_experiment_5_v3,2023.2.2,Win32,84.74576271,,,,,,,,,,,,,,,,151.7673,153.3201,153.3202,154.0966,return,0.1378,,27.99479167,0,51,51,50,1,FBP-RB-18.png,0.35,1.2,51,0.75,,,,,,,,,,,,,,,,,,,,,,,,,,,,,,,,,,,,,,,,,,,,,
,,,,,V3_046,21,Female,2024-11-04_16h08.49.279,jersey_experiment_5_v3,2023.2.2,Win32,84.74576271,,,,,,,,,,,,,,,,154.0969,155.3908,155.3908,156.1791,return,0.0999,,75.78125,0,52,52,43,1,FBP-OG-19.png,0.43,1.2,44,0.5,,,,,,,,,,,,,,,,,,,,,,,,,,,,,,,,,,,,,,,,,,,,,
,,,,,V3_046,21,Female,2024-11-04_16h08.49.279,jersey_experiment_5_v3,2023.2.2,Win32,84.74576271,,,,,,,,,,,,,,,,156.1794,157.4733,157.4734,158.2733,return,0.1723,,27.86458333,0,53,53,36,1,FBP-OG-18.png,0.37,1.2,37,0.5,,,,,,,,,,,,,,,,,,,,,,,,,,,,,,,,,,,,,,,,,,,,,
,,,,,V3_046,21,Female,2024-11-04_16h08.49.279,jersey_experiment_5_v3,2023.2.2,Win32,84.74576271,,,,,,,,,,,,,,,,158.2735,159.8263,159.8264,160.5792,return,0.1468,,83.984375,0,54,54,23,1,FBP-PT-18.png,0.43,1.2,24,0.75,,,,,,,,,,,,,,,,,,,,,,,,,,,,,,,,,,,,,,,,,,,,,
,,,,,V3_046,21,Female,2024-11-04_16h08.49.279,jersey_experiment_5_v3,2023.2.2,Win32,84.74576271,,,,,,,,,,,,,,,,160.5794,162.1323,162.1323,163.2852,return,0.1919,,56.51041667,0,55,55,22,1,FBP-PT-18.png,0.4,1.2,23,0.75,,,,,,,,,,,,,,,,,,,,,,,,,,,,,,,,,,,,,,,,,,,,,
,,,,,V3_046,21,Female,2024-11-04_16h08.49.279,jersey_experiment_5_v3,2023.2.2,Win32,84.74576271,,,,,,,,,,,,,,,,163.2854,164.5792,164.5793,165.2852,return,0.1285,,72.52604167,0,56,56,34,1,FBP-OG-17.png,0.45,1.2,35,0.5,,,,,,,,,,,,,,,,,,,,,,,,,,,,,,,,,,,,,,,,,,,,,
,,,,,V3_046,21,Female,2024-11-04_16h08.49.279,jersey_experiment_5_v3,2023.2.2,Win32,84.74576271,,,,,,,,,,,,,,,,165.2856,166.8384,166.8384,167.5206,return,0.1963,,45.83333333,0,57,57,1,1,FBP-YG-71.png,0.37,1.2,2,0.75,,,,,,,,,,,,,,,,,,,,,,,,,,,,,,,,,,,,,,,,,,,,,
,,,,,V3_046,21,Female,2024-11-04_16h08.49.279,jersey_experiment_5_v3,2023.2.2,Win32,84.74576271,,,,,,,,,,,,,,,,167.5208,168.8148,168.8148,169.5206,return,0.1569,,86.19791667,0,58,58,39,1,FBP-OG-18.png,0.45,1.2,40,0.5,,,,,,,,,,,,,,,,,,,,,,,,,,,,,,,,,,,,,,,,,,,,,
,,,,,V3_046,21,Female,2024-11-04_16h08.49.279,jersey_experiment_5_v3,2023.2.2,Win32,84.74576271,,,,,,,,,,,,,,,,169.5209,171.0736,171.0736,171.7208,return,0.1548,,84.765625,0,59,59,13,1,FBP-YG-91.png,0.43,1.2,14,0.75,,,,,,,,,,,,,,,,,,,,,,,,,,,,,,,,,,,,,,,,,,,,,
,,,,,V3_046,21,Female,2024-11-04_16h08.49.279,jersey_experiment_5_v3,2023.2.2,Win32,84.74576271,,,,,,,,,,,,,,,,171.722,173.2738,173.2738,173.815,return,0.1315,,84.765625,,,,,,FBP-PT-81.png,0.43,1.2,24,0.75,0,0,0,23,1,,,,,,,,,,,,,,,,,,,,,,,,,,,,,,,,,,,,,,,,
,,,,,V3_046,21,Female,2024-11-04_16h08.49.279,jersey_experiment_5_v3,2023.2.2,Win32,84.74576271,,,,,,,,,,,,,,,,173.8152,175.1092,175.1092,175.9914,return,0.1187,,33.203125,,,,,,FBP-OG-81.png,0.37,1.2,37,0.5,0,1,1,36,1,,,,,,,,,,,,,,,,,,,,,,,,,,,,,,,,,,,,,,,,
,,,,,V3_046,21,Female,2024-11-04_16h08.49.279,jersey_experiment_5_v3,2023.2.2,Win32,84.74576271,,,,,,,,,,,,,,,,175.9916,177.5447,177.5447,178.7563,return,0.5178,,26.04166667,,,,,,FBP-YG-17.png,0.35,1.2,1,0.75,0,2,2,0,1,,,,,,,,,,,,,,,,,,,,,,,,,,,,,,,,,,,,,,,,
,,,,,V3_046,21,Female,2024-11-04_16h08.49.279,jersey_experiment_5_v3,2023.2.2,Win32,84.74576271,,,,,,,,,,,,,,,,178.7565,180.2977,180.2977,181.0152,return,0.2726,,87.5,,,,,,FBP-PT-91.png,0.43,1.2,29,0.75,0,3,3,28,1,,,,,,,,,,,,,,,,,,,,,,,,,,,,,,,,,,,,,,,,
,,,,,V3_046,21,Female,2024-11-04_16h08.49.279,jersey_experiment_5_v3,2023.2.2,Win32,84.74576271,,,,,,,,,,,,,,,,181.0155,182.5683,182.5684,183.3918,return,0.1694,,13.54166667,,,,,,FBP-PT-71.png,0.37,1.2,17,0.75,0,4,4,16,1,,,,,,,,,,,,,,,,,,,,,,,,,,,,,,,,,,,,,,,,
,,,,,V3_046,21,Female,2024-11-04_16h08.49.279,jersey_experiment_5_v3,2023.2.2,Win32,84.74576271,,,,,,,,,,,,,,,,183.392,184.9448,184.9449,185.9448,return,0.2824,,92.1875,,,,,,FBP-YG-17.png,0.45,1.2,5,0.75,0,5,5,4,1,,,,,,,,,,,,,,,,,,,,,,,,,,,,,,,,,,,,,,,,
,,,,,V3_046,21,Female,2024-11-04_16h08.49.279,jersey_experiment_5_v3,2023.2.2,Win32,84.74576271,,,,,,,,,,,,,,,,185.945,187.4863,187.4864,188.4037,return,0.2286,,12.63020833,,,,,,FBP-YG-18.png,0.37,1.2,7,0.75,0,6,6,6,1,,,,,,,,,,,,,,,,,,,,,,,,,,,,,,,,,,,,,,,,
,,,,,V3_046,21,Female,2024-11-04_16h08.49.279,jersey_experiment_5_v3,2023.2.2,Win32,84.74576271,,,,,,,,,,,,,,,,188.4039,189.9567,189.9568,192.2157,return,1.825,,86.19791667,,,,,,FBP-YG-18.png,0.45,1.2,10,0.75,0,7,7,9,1,,,,,,,,,,,,,,,,,,,,,,,,,,,,,,,,,,,,,,,,
,,,,,V3_046,21,Female,2024-11-04_16h08.49.279,jersey_experiment_5_v3,2023.2.2,Win32,84.74576271,,,,,,,,,,,,,,,,192.2159,193.5099,193.51,194.0745,return,0.0937,,81.51041667,,,,,,FBP-OG-71.png,0.45,1.2,35,0.5,0,8,8,34,1,,,,,,,,,,,,,,,,,,,,,,,,,,,,,,,,,,,,,,,,
,,,,,V3_046,21,Female,2024-11-04_16h08.49.279,jersey_experiment_5_v3,2023.2.2,Win32,84.74576271,,,,,,,,,,,,,,,,194.0748,195.3686,195.3687,196.251,return,0.0943,,23.4375,,,,,,FBP-OG-71.png,0.4,1.2,33,0.5,0,9,9,32,1,,,,,,,,,,,,,,,,,,,,,,,,,,,,,,,,,,,,,,,,
,,,,,V3_046,21,Female,2024-11-04_16h08.49.279,jersey_experiment_5_v3,2023.2.2,Win32,84.74576271,,,,,,,,,,,,,,,,196.2512,197.7925,197.7926,198.4394,return,0.1659,,12.109375,,,,,,FBP-PT-81.png,0.35,1.2,21,0.75,0,10,10,20,1,,,,,,,,,,,,,,,,,,,,,,,,,,,,,,,,,,,,,,,,
,,,,,V3_046,21,Female,2024-11-04_16h08.49.279,jersey_experiment_5_v3,2023.2.2,Win32,84.74576271,,,,,,,,,,,,,,,,198.4398,199.9924,199.9925,200.5217,return,0.1098,,33.72395833,,,,,,FBP-PT-91.png,0.4,1.2,28,0.75,0,11,11,27,1,,,,,,,,,,,,,,,,,,,,,,,,,,,,,,,,,,,,,,,,
,,,,,V3_046,21,Female,2024-11-04_16h08.49.279,jersey_experiment_5_v3,2023.2.2,Win32,84.74576271,,,,,,,,,,,,,,,,200.5219,202.0632,202.0633,202.6278,return,0.203,,68.75,,,,,,FBP-RB-91.png,0.4,1.2,58,0.75,0,12,12,57,1,,,,,,,,,,,,,,,,,,,,,,,,,,,,,,,,,,,,,,,,
,,,,,V3_046,21,Female,2024-11-04_16h08.49.279,jersey_experiment_5_v3,2023.2.2,Win32,84.74576271,,,,,,,,,,,,,,,,202.628,204.1808,204.1808,204.8043,return,0.1809,,58.203125,,,,,,FBP-RB-81.png,0.4,1.2,53,0.75,0,13,13,52,1,,,,,,,,,,,,,,,,,,,,,,,,,,,,,,,,,,,,,,,,
,,,,,V3_046,21,Female,2024-11-04_16h08.49.279,jersey_experiment_5_v3,2023.2.2,Win32,84.74576271,,,,,,,,,,,,,,,,204.8046,206.3574,206.3574,207.3809,return,0.5921,,63.80208333,,,,,,FBP-PT-81.png,0.4,1.2,23,0.75,0,14,14,22,1,,,,,,,,,,,,,,,,,,,,,,,,,,,,,,,,,,,,,,,,
,,,,,V3_046,21,Female,2024-11-04_16h08.49.279,jersey_experiment_5_v3,2023.2.2,Win32,84.74576271,,,,,,,,,,,,,,,,207.3811,208.934,208.934,209.9928,return,0.612,,60.41666667,,,,,,FBP-YG-17.png,0.4,1.2,3,0.75,0,15,15,2,1,,,,,,,,,,,,,,,,,,,,,,,,,,,,,,,,,,,,,,,,
,,,,,V3_046,21,Female,2024-11-04_16h08.49.279,jersey_experiment_5_v3,2023.2.2,Win32,84.74576271,,,,,,,,,,,,,,,,209.993,211.2869,211.287,211.9929,return,0.0943,,30.078125,,,,,,FBP-OG-81.png,0.35,1.2,36,0.5,0,16,16,35,1,,,,,,,,,,,,,,,,,,,,,,,,,,,,,,,,,,,,,,,,
,,,,,V3_046,21,Female,2024-11-04_16h08.49.279,jersey_experiment_5_v3,2023.2.2,Win32,84.74576271,,,,,,,,,,,,,,,,211.9931,213.546,213.5461,214.4988,return,0.1196,,68.75,,,,,,FBP-PT-71.png,0.4,1.2,18,0.75,0,17,17,17,1,,,,,,,,,,,,,,,,,,,,,,,,,,,,,,,,,,,,,,,,
,,,,,V3_046,21,Female,2024-11-04_16h08.49.279,jersey_experiment_5_v3,2023.2.2,Win32,84.74576271,,,,,,,,,,,,,,,,214.499,215.7932,215.7933,216.6165,return,0.2275,,34.89583333,,,,,,FBP-OG-71.png,0.37,1.2,32,0.5,0,18,18,31,1,,,,,,,,,,,,,,,,,,,,,,,,,,,,,,,,,,,,,,,,
,,,,,V3_046,21,Female,2024-11-04_16h08.49.279,jersey_experiment_5_v3,2023.2.2,Win32,84.74576271,,,,,,,,,,,,,,,,216.6167,218.1697,218.1697,218.7109,return,0.0626,,88.15104167,,,,,,FBP-RB-91.png,0.45,1.2,60,0.75,0,19,19,59,1,,,,,,,,,,,,,,,,,,,,,,,,,,,,,,,,,,,,,,,,
,,,,,V3_046,21,Female,2024-11-04_16h08.49.279,jersey_experiment_5_v3,2023.2.2,Win32,84.74576271,,,,,,,,,,,,,,,,218.711,220.2636,220.2637,221.2639,return,0.1265,,89.84375,,,,,,FBP-PT-91.png,0.45,1.2,30,0.75,0,20,20,29,1,,,,,,,,,,,,,,,,,,,,,,,,,,,,,,,,,,,,,,,,
,,,,,V3_046,21,Female,2024-11-04_16h08.49.279,jersey_experiment_5_v3,2023.2.2,Win32,84.74576271,,,,,,,,,,,,,,,,221.2641,222.8169,222.8169,223.6403,return,0.1651,,30.98958333,,,,,,FBP-YG-19.png,0.35,1.2,11,0.75,0,21,21,10,1,,,,,,,,,,,,,,,,,,,,,,,,,,,,,,,,,,,,,,,,
,,,,,V3_046,21,Female,2024-11-04_16h08.49.279,jersey_experiment_5_v3,2023.2.2,Win32,84.74576271,,,,,,,,,,,,,,,,223.6407,225.1935,225.1936,226.0992,return,0.1434,,35.546875,,,,,,FBP-RB-91.png,0.37,1.2,57,0.75,0,22,22,56,1,,,,,,,,,,,,,,,,,,,,,,,,,,,,,,,,,,,,,,,,
,,,,,V3_046,21,Female,2024-11-04_16h08.49.279,jersey_experiment_5_v3,2023.2.2,Win32,84.74576271,,,,,,,,,,,,,,,,226.0994,227.6407,227.6407,228.6405,return,0.1144,,90.75520833,,,,,,FBP-RB-91.png,0.43,1.2,59,0.75,0,23,23,58,1,,,,,,,,,,,,,,,,,,,,,,,,,,,,,,,,,,,,,,,,
,,,,,V3_046,21,Female,2024-11-04_16h08.49.279,jersey_experiment_5_v3,2023.2.2,Win32,84.74576271,,,,,,,,,,,,,,,,228.6407,230.1934,230.1935,230.7582,return,0.1392,,80.98958333,,,,,,FBP-PT-71.png,0.43,1.2,19,0.75,0,24,24,18,1,,,,,,,,,,,,,,,,,,,,,,,,,,,,,,,,,,,,,,,,
,,,,,V3_046,21,Female,2024-11-04_16h08.49.279,jersey_experiment_5_v3,2023.2.2,Win32,84.74576271,,,,,,,,,,,,,,,,230.7584,232.3113,232.3114,232.9818,return,0.1439,,59.63541667,,,,,,FBP-YG-19.png,0.37,1.2,12,0.75,0,25,25,11,1,,,,,,,,,,,,,,,,,,,,,,,,,,,,,,,,,,,,,,,,
,,,,,V3_046,21,Female,2024-11-04_16h08.49.279,jersey_experiment_5_v3,2023.2.2,Win32,84.74576271,,,,,,,,,,,,,,,,232.9821,234.5233,234.5233,235.5937,return,0.6826,,54.81770833,,,,,,FBP-PT-91.png,0.37,1.2,27,0.75,0,26,26,26,1,,,,,,,,,,,,,,,,,,,,,,,,,,,,,,,,,,,,,,,,
,,,,,V3_046,21,Female,2024-11-04_16h08.49.279,jersey_experiment_5_v3,2023.2.2,Win32,84.74576271,,,,,,,,,,,,,,,,235.594,237.1469,237.1469,237.7702,return,0.1174,,32.29166667,,,,,,FBP-PT-91.png,0.35,1.2,26,0.75,0,27,27,25,1,,,,,,,,,,,,,,,,,,,,,,,,,,,,,,,,,,,,,,,,
,,,,,V3_046,21,Female,2024-11-04_16h08.49.279,jersey_experiment_5_v3,2023.2.2,Win32,84.74576271,,,,,,,,,,,,,,,,237.7705,239.0644,239.0645,240.0998,return,0.4246,,30.859375,,,,,,FBP-OG-71.png,0.35,1.2,31,0.5,0,28,28,30,1,,,,,,,,,,,,,,,,,,,,,,,,,,,,,,,,,,,,,,,,
,,,,,V3_046,21,Female,2024-11-04_16h08.49.279,jersey_experiment_5_v3,2023.2.2,Win32,84.74576271,,,,,,,,,,,,,,,,240.1001,241.653,241.653,242.4881,return,0.1987,,89.19270833,,,,,,FBP-YG-19.png,0.45,1.2,15,0.75,0,29,29,14,1,,,,,,,,,,,,,,,,,,,,,,,,,,,,,,,,,,,,,,,,
,,,,,V3_046,21,Female,2024-11-04_16h08.49.279,jersey_experiment_5_v3,2023.2.2,Win32,84.74576271,,,,,,,,,,,,,,,,242.4884,243.7823,243.7824,244.5119,return,0.1267,,65.234375,,,,,,FBP-OG-81.png,0.4,1.2,38,0.5,0,30,30,37,1,,,,,,,,,,,,,,,,,,,,,,,,,,,,,,,,,,,,,,,,
,,,,,V3_046,21,Female,2024-11-04_16h08.49.279,jersey_experiment_5_v3,2023.2.2,Win32,84.74576271,,,,,,,,,,,,,,,,244.5122,246.0649,246.065,246.8176,return,0.1558,,91.796875,,,,,,FBP-RB-81.png,0.45,1.2,55,0.75,0,31,31,54,1,,,,,,,,,,,,,,,,,,,,,,,,,,,,,,,,,,,,,,,,
,,,,,V3_046,21,Female,2024-11-04_16h08.49.279,jersey_experiment_5_v3,2023.2.2,Win32,84.74576271,,,,,,,,,,,,,,,,246.8179,248.3708,248.3708,249.606,return,0.1565,,41.015625,,,,,,FBP-RB-81.png,0.37,1.2,52,0.75,0,32,32,51,1,,,,,,,,,,,,,,,,,,,,,,,,,,,,,,,,,,,,,,,,
,,,,,V3_046,21,Female,2024-11-04_16h08.49.279,jersey_experiment_5_v3,2023.2.2,Win32,84.74576271,,,,,,,,,,,,,,,,249.6063,251.1592,251.1592,251.8179,return,0.2107,,92.96875,,,,,,FBP-PT-71.png,0.45,1.2,20,0.75,0,33,33,19,1,,,,,,,,,,,,,,,,,,,,,,,,,,,,,,,,,,,,,,,,
,,,,,V3_046,21,Female,2024-11-04_16h08.49.279,jersey_experiment_5_v3,2023.2.2,Win32,84.74576271,,,,,,,,,,,,,,,,251.8181,253.1119,253.112,253.7944,return,0.1357,,72.00520833,,,,,,FBP-OG-91.png,0.43,1.2,44,0.5,0,34,34,43,1,,,,,,,,,,,,,,,,,,,,,,,,,,,,,,,,,,,,,,,,
,,,,,V3_046,21,Female,2024-11-04_16h08.49.279,jersey_experiment_5_v3,2023.2.2,Win32,84.74576271,,,,,,,,,,,,,,,,253.7946,255.0886,255.0886,256.4416,return,0.7295,,57.55208333,,,,,,FBP-OG-91.png,0.37,1.2,42,0.5,0,35,35,41,1,,,,,,,,,,,,,,,,,,,,,,,,,,,,,,,,,,,,,,,,
,,,,,V3_046,21,Female,2024-11-04_16h08.49.279,jersey_experiment_5_v3,2023.2.2,Win32,84.74576271,,,,,,,,,,,,,,,,256.4418,257.9946,257.9947,258.8652,return,0.1802,,77.21354167,,,,,,FBP-PT-81.png,0.45,1.2,25,0.75,0,36,36,24,1,,,,,,,,,,,,,,,,,,,,,,,,,,,,,,,,,,,,,,,,
,,,,,V3_046,21,Female,2024-11-04_16h08.49.279,jersey_experiment_5_v3,2023.2.2,Win32,84.74576271,,,,,,,,,,,,,,,,258.8654,260.1594,260.1595,260.8888,return,0.1513,,34.375,,,,,,FBP-OG-91.png,0.35,1.2,41,0.5,0,37,37,40,1,,,,,,,,,,,,,,,,,,,,,,,,,,,,,,,,,,,,,,,,
,,,,,V3_046,21,Female,2024-11-04_16h08.49.279,jersey_experiment_5_v3,2023.2.2,Win32,84.74576271,,,,,,,,,,,,,,,,260.8892,262.4419,262.4419,263.1244,return,0.1073,,91.015625,,,,,,FBP-RB-81.png,0.43,1.2,54,0.75,0,38,38,53,1,,,,,,,,,,,,,,,,,,,,,,,,,,,,,,,,,,,,,,,,
,,,,,V3_046,21,Female,2024-11-04_16h08.49.279,jersey_experiment_5_v3,2023.2.2,Win32,84.74576271,,,,,,,,,,,,,,,,263.1247,264.6771,264.6771,265.7714,return,0.0921,,15.75520833,,,,,,FBP-RB-91.png,0.35,1.2,56,0.75,0,39,39,55,1,,,,,,,,,,,,,,,,,,,,,,,,,,,,,,,,,,,,,,,,
,,,,,V3_046,21,Female,2024-11-04_16h08.49.279,jersey_experiment_5_v3,2023.2.2,Win32,84.74576271,,,,,,,,,,,,,,,,265.7716,267.0656,267.0656,267.995,return,0.1178,,92.1875,,,,,,FBP-OG-91.png,0.45,1.2,45,0.5,0,40,40,44,1,,,,,,,,,,,,,,,,,,,,,,,,,,,,,,,,,,,,,,,,
,,,,,V3_046,21,Female,2024-11-04_16h08.49.279,jersey_experiment_5_v3,2023.2.2,Win32,84.74576271,,,,,,,,,,,,,,,,267.9952,269.2892,269.2893,270.0068,return,0.1789,,63.15104167,,,,,,FBP-OG-91.png,0.4,1.2,43,0.5,0,41,41,42,1,,,,,,,,,,,,,,,,,,,,,,,,,,,,,,,,,,,,,,,,
,,,,,V3_046,21,Female,2024-11-04_16h08.49.279,jersey_experiment_5_v3,2023.2.2,Win32,84.74576271,,,,,,,,,,,,,,,,270.007,271.5597,271.5597,272.1127,return,0.0414,,34.50520833,,,,,,FBP-RB-81.png,0.35,1.2,51,0.75,0,42,42,50,1,,,,,,,,,,,,,,,,,,,,,,,,,,,,,,,,,,,,,,,,
,,,,,V3_046,21,Female,2024-11-04_16h08.49.279,jersey_experiment_5_v3,2023.2.2,Win32,84.74576271,,,,,,,,,,,,,,,,272.113,273.6657,273.6657,274.5598,return,0.1578,,71.74479167,,,,,,FBP-YG-18.png,0.43,1.2,9,0.75,0,43,43,8,1,,,,,,,,,,,,,,,,,,,,,,,,,,,,,,,,,,,,,,,,
,,,,,V3_046,21,Female,2024-11-04_16h08.49.279,jersey_experiment_5_v3,2023.2.2,Win32,84.74576271,,,,,,,,,,,,,,,,274.5601,276.113,276.113,276.7598,return,0.1085,,30.72916667,,,,,,FBP-YG-17.png,0.37,1.2,2,0.75,0,44,44,1,1,,,,,,,,,,,,,,,,,,,,,,,,,,,,,,,,,,,,,,,,
,,,,,V3_046,21,Female,2024-11-04_16h08.49.279,jersey_experiment_5_v3,2023.2.2,Win32,84.74576271,,,,,,,,,,,,,,,,276.7601,278.313,278.313,279.0424,return,0.099,,41.796875,,,,,,FBP-PT-81.png,0.37,1.2,22,0.75,0,45,45,21,1,,,,,,,,,,,,,,,,,,,,,,,,,,,,,,,,,,,,,,,,
,,,,,V3_046,21,Female,2024-11-04_16h08.49.279,jersey_experiment_5_v3,2023.2.2,Win32,84.74576271,,,,,,,,,,,,,,,,279.0426,280.5954,280.5954,281.313,return,0.1481,,20.44270833,,,,,,FBP-YG-18.png,0.35,1.2,6,0.75,0,46,46,5,1,,,,,,,,,,,,,,,,,,,,,,,,,,,,,,,,,,,,,,,,
,,,,,V3_046,21,Female,2024-11-04_16h08.49.279,jersey_experiment_5_v3,2023.2.2,Win32,84.74576271,,,,,,,,,,,,,,,,281.3132,282.6075,282.6076,283.5602,return,0.2364,,66.40625,,,,,,FBP-OG-71.png,0.43,1.2,34,0.5,0,47,47,33,1,,,,,,,,,,,,,,,,,,,,,,,,,,,,,,,,,,,,,,,,
,,,,,V3_046,21,Female,2024-11-04_16h08.49.279,jersey_experiment_5_v3,2023.2.2,Win32,84.74576271,,,,,,,,,,,,,,,,283.5605,285.1132,285.1132,285.6544,return,0.1785,,70.44270833,,,,,,FBP-RB-71.png,0.37,1.2,47,0.75,0,48,48,46,1,,,,,,,,,,,,,,,,,,,,,,,,,,,,,,,,,,,,,,,,
,,,,,V3_046,21,Female,2024-11-04_16h08.49.279,jersey_experiment_5_v3,2023.2.2,Win32,84.74576271,,,,,,,,,,,,,,,,285.6547,287.2075,287.2076,287.8427,return,0.0984,,58.33333333,,,,,,FBP-PT-71.png,0.35,1.2,16,0.75,0,49,49,15,1,,,,,,,,,,,,,,,,,,,,,,,,,,,,,,,,,,,,,,,,
,,,,,V3_046,21,Female,2024-11-04_16h08.49.279,jersey_experiment_5_v3,2023.2.2,Win32,84.74576271,,,,,,,,,,,,,,,,287.8429,289.1369,289.137,289.8193,return,0.1643,,87.76041667,,,,,,FBP-OG-81.png,0.45,1.2,40,0.5,0,50,50,39,1,,,,,,,,,,,,,,,,,,,,,,,,,,,,,,,,,,,,,,,,
,,,,,V3_046,21,Female,2024-11-04_16h08.49.279,jersey_experiment_5_v3,2023.2.2,Win32,84.74576271,,,,,,,,,,,,,,,,289.8195,291.3724,291.3725,292.3723,return,0.1456,,85.9375,,,,,,FBP-RB-71.png,0.45,1.2,50,0.75,0,51,51,49,1,,,,,,,,,,,,,,,,,,,,,,,,,,,,,,,,,,,,,,,,
,,,,,V3_046,21,Female,2024-11-04_16h08.49.279,jersey_experiment_5_v3,2023.2.2,Win32,84.74576271,,,,,,,,,,,,,,,,292.3725,293.9253,293.9253,294.7136,return,0.1176,,63.671875,,,,,,FBP-YG-19.png,0.4,1.2,13,0.75,0,52,52,12,1,,,,,,,,,,,,,,,,,,,,,,,,,,,,,,,,,,,,,,,,
,,,,,V3_046,21,Female,2024-11-04_16h08.49.279,jersey_experiment_5_v3,2023.2.2,Win32,84.74576271,,,,,,,,,,,,,,,,294.7138,296.2667,296.2667,297.1606,return,0.2491,,85.9375,,,,,,FBP-YG-19.png,0.43,1.2,14,0.75,0,53,53,13,1,,,,,,,,,,,,,,,,,,,,,,,,,,,,,,,,,,,,,,,,
,,,,,V3_046,21,Female,2024-11-04_16h08.49.279,jersey_experiment_5_v3,2023.2.2,Win32,84.74576271,,,,,,,,,,,,,,,,297.1608,298.7137,298.7137,299.7373,return,0.165,,86.58854167,,,,,,FBP-RB-71.png,0.4,1.2,48,0.75,0,54,54,47,1,,,,,,,,,,,,,,,,,,,,,,,,,,,,,,,,,,,,,,,,
,,,,,V3_046,21,Female,2024-11-04_16h08.49.279,jersey_experiment_5_v3,2023.2.2,Win32,84.74576271,,,,,,,,,,,,,,,,299.7375,301.2903,301.2903,301.9725,return,0.2242,,86.06770833,,,,,,FBP-YG-18.png,0.4,1.2,8,0.75,0,55,55,7,1,,,,,,,,,,,,,,,,,,,,,,,,,,,,,,,,,,,,,,,,
,,,,,V3_046,21,Female,2024-11-04_16h08.49.279,jersey_experiment_5_v3,2023.2.2,Win32,84.74576271,,,,,,,,,,,,,,,,301.9728,303.5141,303.5141,304.2904,return,0.1355,,44.40104167,,,,,,FBP-RB-71.png,0.35,1.2,46,0.75,0,56,56,45,1,,,,,,,,,,,,,,,,,,,,,,,,,,,,,,,,,,,,,,,,
,,,,,V3_046,21,Female,2024-11-04_16h08.49.279,jersey_experiment_5_v3,2023.2.2,Win32,84.74576271,,,,,,,,,,,,,,,,304.2907,305.8435,305.8435,306.6669,return,0.073,,81.11979167,,,,,,FBP-YG-17.png,0.43,1.2,4,0.75,0,57,57,3,1,,,,,,,,,,,,,,,,,,,,,,,,,,,,,,,,,,,,,,,,
,,,,,V3_046,21,Female,2024-11-04_16h08.49.279,jersey_experiment_5_v3,2023.2.2,Win32,84.74576271,,,,,,,,,,,,,,,,306.6672,307.9611,307.9612,308.914,return,0.1346,,78.25520833,,,,,,FBP-OG-81.png,0.43,1.2,39,0.5,0,58,58,38,1,,,,,,,,,,,,,,,,,,,,,,,,,,,,,,,,,,,,,,,,
,,,,,V3_046,21,Female,2024-11-04_16h08.49.279,jersey_experiment_5_v3,2023.2.2,Win32,84.74576271,,,,,,,,,,,,,,,,308.9143,310.4555,310.4555,311.0671,return,0.1417,,84.375,,,,,,FBP-RB-71.png,0.43,1.2,49,0.75,0,59,59,48,1,,,,,,,,,,,,,,,,,,,,,,,,,,,,,,,,,,,,,,,,
,,,,,V3_046,21,Female,2024-11-04_16h08.49.279,jersey_experiment_5_v3,2023.2.2,Win32,84.74576271,,,,,,,,,,,,,,,,,,,,,,,,,,,,,,,,,,,,,,,311.0673,431.0599,,,,,,,,,,,,,,,,,,,,,,,,,,,,,,,,,,,,,,
,,,,,V3_046,21,Female,2024-11-04_16h08.49.279,jersey_experiment_5_v3,2023.2.2,Win32,84.74576271,,,,,,,,,,,,,,,,,,,,,,,,,,,,,,,,,,,,,,,,,431.0601,432.9658,return,1.8976,,,,,,,,,,,,,,,,,,,,,,,,,,,,,,,,,,
,,,,,V3_046,21,Female,2024-11-04_16h08.49.279,jersey_experiment_5_v3,2023.2.2,Win32,84.74576271,,,,,,,,,,,,,,,,432.9677,434.2599,434.26,436.4481,return,1.1493,,58.33333333,,,,,,FBP-RB-19.png,0.4,1.2,58,0.5,,,,,,,,,,,,,0,0,0,57,1,,,,,,,,,,,,,,,,,,,,,,,,,,,,
,,,,,V3_046,21,Female,2024-11-04_16h08.49.279,jersey_experiment_5_v3,2023.2.2,Win32,84.74576271,,,,,,,,,,,,,,,,436.4485,438.0014,438.0014,438.4718,return,0.0608,,70.57291667,,,,,,FBP-OG-18.png,0.45,1.2,40,0.75,,,,,,,,,,,,,0,1,1,39,1,,,,,,,,,,,,,,,,,,,,,,,,,,,,
,,,,,V3_046,21,Female,2024-11-04_16h08.49.279,jersey_experiment_5_v3,2023.2.2,Win32,84.74576271,,,,,,,,,,,,,,,,438.472,439.7659,439.7659,440.3777,return,0.1171,,60.9375,,,,,,FBP-YG-91.png,0.4,1.2,13,0.5,,,,,,,,,,,,,0,2,2,12,1,,,,,,,,,,,,,,,,,,,,,,,,,,,,
,,,,,V3_046,21,Female,2024-11-04_16h08.49.279,jersey_experiment_5_v3,2023.2.2,Win32,84.74576271,,,,,,,,,,,,,,,,440.378,441.9306,441.9307,442.472,return,0.1622,,83.203125,,,,,,FBP-OG-17.png,0.43,1.2,34,0.75,,,,,,,,,,,,,0,3,3,33,1,,,,,,,,,,,,,,,,,,,,,,,,,,,,
,,,,,V3_046,21,Female,2024-11-04_16h08.49.279,jersey_experiment_5_v3,2023.2.2,Win32,84.74576271,,,,,,,,,,,,,,,,442.4722,443.766,443.766,444.4249,return,0.2343,,80.98958333,,,,,,FBP-RB-19.png,0.45,1.2,60,0.5,,,,,,,,,,,,,0,4,4,59,1,,,,,,,,,,,,,,,,,,,,,,,,,,,,
,,,,,V3_046,21,Female,2024-11-04_16h08.49.279,jersey_experiment_5_v3,2023.2.2,Win32,84.74576271,,,,,,,,,,,,,,,,444.4252,445.7194,445.7194,446.5662,return,0.1803,,32.68229167,,,,,,FBP-PT-17.png,0.37,1.2,17,0.5,,,,,,,,,,,,,0,5,5,16,1,,,,,,,,,,,,,,,,,,,,,,,,,,,,
,,,,,V3_046,21,Female,2024-11-04_16h08.49.279,jersey_experiment_5_v3,2023.2.2,Win32,84.74576271,,,,,,,,,,,,,,,,446.5665,447.8604,447.8604,448.5191,return,0.1079,,32.8125,,,,,,FBP-RB-19.png,0.37,1.2,57,0.5,,,,,,,,,,,,,0,6,6,56,1,,,,,,,,,,,,,,,,,,,,,,,,,,,,
,,,,,V3_046,21,Female,2024-11-04_16h08.49.279,jersey_experiment_5_v3,2023.2.2,Win32,84.74576271,,,,,,,,,,,,,,,,448.5194,450.0722,450.0722,450.9195,return,0.2118,,25.52083333,,,,,,FBP-OG-19.png,0.37,1.2,42,0.75,,,,,,,,,,,,,0,7,7,41,1,,,,,,,,,,,,,,,,,,,,,,,,,,,,
,,,,,V3_046,21,Female,2024-11-04_16h08.49.279,jersey_experiment_5_v3,2023.2.2,Win32,84.74576271,,,,,,,,,,,,,,,,450.9198,452.2135,452.2136,452.8723,return,0.1146,,23.17708333,,,,,,FBP-RB-18.png,0.37,1.2,52,0.5,,,,,,,,,,,,,0,8,8,51,1,,,,,,,,,,,,,,,,,,,,,,,,,,,,
,,,,,V3_046,21,Female,2024-11-04_16h08.49.279,jersey_experiment_5_v3,2023.2.2,Win32,84.74576271,,,,,,,,,,,,,,,,452.8726,454.1666,454.1666,454.8842,return,0.0595,,79.81770833,,,,,,FBP-PT-19.png,0.4,1.2,28,0.5,,,,,,,,,,,,,0,9,9,27,1,,,,,,,,,,,,,,,,,,,,,,,,,,,,
,,,,,V3_046,21,Female,2024-11-04_16h08.49.279,jersey_experiment_5_v3,2023.2.2,Win32,84.74576271,,,,,,,,,,,,,,,,454.8844,456.1783,456.1783,456.9548,return,0.2118,,56.38020833,,,,,,FBP-PT-18.png,0.37,1.2,22,0.5,,,,,,,,,,,,,0,10,10,21,1,,,,,,,,,,,,,,,,,,,,,,,,,,,,
,,,,,V3_046,21,Female,2024-11-04_16h08.49.279,jersey_experiment_5_v3,2023.2.2,Win32,84.74576271,,,,,,,,,,,,,,,,456.9549,458.2489,458.249,458.9196,return,0.2021,,86.328125,,,,,,FBP-PT-18.png,0.4,1.2,23,0.5,,,,,,,,,,,,,0,11,11,22,1,,,,,,,,,,,,,,,,,,,,,,,,,,,,
,,,,,V3_046,21,Female,2024-11-04_16h08.49.279,jersey_experiment_5_v3,2023.2.2,Win32,84.74576271,,,,,,,,,,,,,,,,458.9199,460.4727,460.4727,461.061,return,0.1796,,85.67708333,,,,,,FBP-OG-18.png,0.4,1.2,38,0.75,,,,,,,,,,,,,0,12,12,37,1,,,,,,,,,,,,,,,,,,,,,,,,,,,,
,,,,,V3_046,21,Female,2024-11-04_16h08.49.279,jersey_experiment_5_v3,2023.2.2,Win32,84.74576271,,,,,,,,,,,,,,,,461.0611,462.6022,462.6022,463.3314,return,0.1695,,16.27604167,,,,,,FBP-OG-18.png,0.35,1.2,36,0.75,,,,,,,,,,,,,0,13,13,35,1,,,,,,,,,,,,,,,,,,,,,,,,,,,,
,,,,,V3_046,21,Female,2024-11-04_16h08.49.279,jersey_experiment_5_v3,2023.2.2,Win32,84.74576271,,,,,,,,,,,,,,,,463.3317,464.6258,464.6258,465.5433,return,0.1525,,90.88541667,,,,,,FBP-YG-81.png,0.45,1.2,10,0.5,,,,,,,,,,,,,0,14,14,9,1,,,,,,,,,,,,,,,,,,,,,,,,,,,,
,,,,,V3_046,21,Female,2024-11-04_16h08.49.279,jersey_experiment_5_v3,2023.2.2,Win32,84.74576271,,,,,,,,,,,,,,,,465.5435,466.8377,466.8377,467.4022,return,0.1412,,66.92708333,,,,,,FBP-RB-19.png,0.43,1.2,59,0.5,,,,,,,,,,,,,0,15,15,58,1,,,,,,,,,,,,,,,,,,,,,,,,,,,,
,,,,,V3_046,21,Female,2024-11-04_16h08.49.279,jersey_experiment_5_v3,2023.2.2,Win32,84.74576271,,,,,,,,,,,,,,,,467.4026,468.6964,468.6964,469.2493,return,0.0661,,44.27083333,,,,,,FBP-YG-71.png,0.35,1.2,1,0.5,,,,,,,,,,,,,0,16,16,0,1,,,,,,,,,,,,,,,,,,,,,,,,,,,,
,,,,,V3_046,21,Female,2024-11-04_16h08.49.279,jersey_experiment_5_v3,2023.2.2,Win32,84.74576271,,,,,,,,,,,,,,,,469.2496,470.5436,470.5436,471.0612,return,0.133,,64.32291667,,,,,,FBP-RB-18.png,0.4,1.2,53,0.5,,,,,,,,,,,,,0,17,17,52,1,,,,,,,,,,,,,,,,,,,,,,,,,,,,
,,,,,V3_046,21,Female,2024-11-04_16h08.49.279,jersey_experiment_5_v3,2023.2.2,Win32,84.74576271,,,,,,,,,,,,,,,,471.0614,472.3554,472.3555,473.1437,return,0.1498,,37.63020833,,,,,,FBP-RB-17.png,0.35,1.2,46,0.5,,,,,,,,,,,,,0,18,18,45,1,,,,,,,,,,,,,,,,,,,,,,,,,,,,
,,,,,V3_046,21,Female,2024-11-04_16h08.49.279,jersey_experiment_5_v3,2023.2.2,Win32,84.74576271,,,,,,,,,,,,,,,,473.1439,474.4377,474.4378,475.3202,return,0.2732,,26.953125,,,,,,FBP-PT-17.png,0.35,1.2,16,0.5,,,,,,,,,,,,,0,19,19,15,1,,,,,,,,,,,,,,,,,,,,,,,,,,,,
,,,,,V3_046,21,Female,2024-11-04_16h08.49.279,jersey_experiment_5_v3,2023.2.2,Win32,84.74576271,,,,,,,,,,,,,,,,475.3204,476.6143,476.6143,477.3792,return,0.1468,,30.59895833,,,,,,FBP-RB-17.png,0.37,1.2,47,0.5,,,,,,,,,,,,,0,20,20,46,1,,,,,,,,,,,,,,,,,,,,,,,,,,,,
,,,,,V3_046,21,Female,2024-11-04_16h08.49.279,jersey_experiment_5_v3,2023.2.2,Win32,84.74576271,,,,,,,,,,,,,,,,477.3796,478.6735,478.6735,479.2733,return,0.0867,,86.45833333,,,,,,FBP-YG-71.png,0.45,1.2,5,0.5,,,,,,,,,,,,,0,21,21,4,1,,,,,,,,,,,,,,,,,,,,,,,,,,,,
,,,,,V3_046,21,Female,2024-11-04_16h08.49.279,jersey_experiment_5_v3,2023.2.2,Win32,84.74576271,,,,,,,,,,,,,,,,479.2734,480.5675,480.5675,481.0499,return,0.1411,,70.44270833,,,,,,FBP-RB-17.png,0.43,1.2,49,0.5,,,,,,,,,,,,,0,22,22,48,1,,,,,,,,,,,,,,,,,,,,,,,,,,,,
,,,,,V3_046,21,Female,2024-11-04_16h08.49.279,jersey_experiment_5_v3,2023.2.2,Win32,84.74576271,,,,,,,,,,,,,,,,481.0501,482.3439,482.344,483.0146,return,0.093,,31.38020833,,,,,,FBP-YG-81.png,0.37,1.2,7,0.5,,,,,,,,,,,,,0,23,23,6,1,,,,,,,,,,,,,,,,,,,,,,,,,,,,
,,,,,V3_046,21,Female,2024-11-04_16h08.49.279,jersey_experiment_5_v3,2023.2.2,Win32,84.74576271,,,,,,,,,,,,,,,,483.0149,484.3087,484.3088,484.9677,return,0.0394,,82.68229167,,,,,,FBP-YG-91.png,0.43,1.2,14,0.5,,,,,,,,,,,,,0,24,24,13,1,,,,,,,,,,,,,,,,,,,,,,,,,,,,
,,,,,V3_046,21,Female,2024-11-04_16h08.49.279,jersey_experiment_5_v3,2023.2.2,Win32,84.74576271,,,,,,,,,,,,,,,,484.968,486.5205,486.5205,487.3325,return,0.1453,,80.59895833,,,,,,FBP-OG-18.png,0.43,1.2,39,0.75,,,,,,,,,,,,,0,25,25,38,1,,,,,,,,,,,,,,,,,,,,,,,,,,,,
,,,,,V3_046,21,Female,2024-11-04_16h08.49.279,jersey_experiment_5_v3,2023.2.2,Win32,84.74576271,,,,,,,,,,,,,,,,487.3327,488.6266,488.6268,489.2854,return,0.1293,,27.34375,,,,,,FBP-YG-91.png,0.35,1.2,11,0.5,,,,,,,,,,,,,0,26,26,10,1,,,,,,,,,,,,,,,,,,,,,,,,,,,,
,,,,,V3_046,21,Female,2024-11-04_16h08.49.279,jersey_experiment_5_v3,2023.2.2,Win32,84.74576271,,,,,,,,,,,,,,,,489.2857,490.5798,490.5798,491.2266,return,0.1417,,84.89583333,,,,,,FBP-PT-18.png,0.45,1.2,25,0.5,,,,,,,,,,,,,0,27,27,24,1,,,,,,,,,,,,,,,,,,,,,,,,,,,,
,,,,,V3_046,21,Female,2024-11-04_16h08.49.279,jersey_experiment_5_v3,2023.2.2,Win32,84.74576271,,,,,,,,,,,,,,,,491.2269,492.5211,492.5211,493.4974,return,0.1264,,14.58333333,,,,,,FBP-PT-18.png,0.35,1.2,21,0.5,,,,,,,,,,,,,0,28,28,20,1,,,,,,,,,,,,,,,,,,,,,,,,,,,,
,,,,,V3_046,21,Female,2024-11-04_16h08.49.279,jersey_experiment_5_v3,2023.2.2,Win32,84.74576271,,,,,,,,,,,,,,,,493.4976,495.0503,495.0503,496.3093,return,0.592,,76.82291667,,,,,,FBP-OG-17.png,0.4,1.2,33,0.75,,,,,,,,,,,,,0,29,29,32,1,,,,,,,,,,,,,,,,,,,,,,,,,,,,
,,,,,V3_046,21,Female,2024-11-04_16h08.49.279,jersey_experiment_5_v3,2023.2.2,Win32,84.74576271,,,,,,,,,,,,,,,,496.3095,497.6033,497.6034,498.2975,return,0.0805,,85.41666667,,,,,,FBP-YG-71.png,0.43,1.2,4,0.5,,,,,,,,,,,,,0,30,30,3,1,,,,,,,,,,,,,,,,,,,,,,,,,,,,
,,,,,V3_046,21,Female,2024-11-04_16h08.49.279,jersey_experiment_5_v3,2023.2.2,Win32,84.74576271,,,,,,,,,,,,,,,,498.2978,499.5917,499.5918,501.0624,return,0.8633,,29.6875,,,,,,FBP-YG-81.png,0.35,1.2,6,0.5,,,,,,,,,,,,,0,31,31,5,1,,,,,,,,,,,,,,,,,,,,,,,,,,,,
,,,,,V3_046,21,Female,2024-11-04_16h08.49.279,jersey_experiment_5_v3,2023.2.2,Win32,84.74576271,,,,,,,,,,,,,,,,501.0627,502.6154,502.6154,503.3448,return,0.1844,,29.03645833,,,,,,FBP-OG-17.png,0.37,1.2,32,0.75,,,,,,,,,,,,,0,32,32,31,1,,,,,,,,,,,,,,,,,,,,,,,,,,,,
,,,,,V3_046,21,Female,2024-11-04_16h08.49.279,jersey_experiment_5_v3,2023.2.2,Win32,84.74576271,,,,,,,,,,,,,,,,503.345,504.6389,504.6389,505.2861,return,0.1328,,33.203125,,,,,,FBP-YG-71.png,0.37,1.2,2,0.5,,,,,,,,,,,,,0,33,33,1,1,,,,,,,,,,,,,,,,,,,,,,,,,,,,
,,,,,V3_046,21,Female,2024-11-04_16h08.49.279,jersey_experiment_5_v3,2023.2.2,Win32,84.74576271,,,,,,,,,,,,,,,,505.2862,506.5801,506.5801,507.639,return,0.2589,,86.71875,,,,,,FBP-PT-17.png,0.45,1.2,20,0.5,,,,,,,,,,,,,0,34,34,19,1,,,,,,,,,,,,,,,,,,,,,,,,,,,,
,,,,,V3_046,21,Female,2024-11-04_16h08.49.279,jersey_experiment_5_v3,2023.2.2,Win32,84.74576271,,,,,,,,,,,,,,,,507.6394,508.9333,508.9333,510.6626,return,0.8338,,80.98958333,,,,,,FBP-YG-81.png,0.43,1.2,9,0.5,,,,,,,,,,,,,0,35,35,8,1,,,,,,,,,,,,,,,,,,,,,,,,,,,,
,,,,,V3_046,21,Female,2024-11-04_16h08.49.279,jersey_experiment_5_v3,2023.2.2,Win32,84.74576271,,,,,,,,,,,,,,,,510.6629,512.2156,512.2157,513.1099,return,0.1758,,27.60416667,,,,,,FBP-OG-18.png,0.37,1.2,37,0.75,,,,,,,,,,,,,0,36,36,36,1,,,,,,,,,,,,,,,,,,,,,,,,,,,,
,,,,,V3_046,21,Female,2024-11-04_16h08.49.279,jersey_experiment_5_v3,2023.2.2,Win32,84.74576271,,,,,,,,,,,,,,,,513.1101,514.4042,514.4042,515.2393,return,0.1103,,92.70833333,,,,,,FBP-RB-18.png,0.45,1.2,55,0.5,,,,,,,,,,,,,0,37,37,54,1,,,,,,,,,,,,,,,,,,,,,,,,,,,,
,,,,,V3_046,21,Female,2024-11-04_16h08.49.279,jersey_experiment_5_v3,2023.2.2,Win32,84.74576271,,,,,,,,,,,,,,,,515.2395,516.7925,516.7926,517.8747,return,0.1447,,31.51041667,,,,,,FBP-OG-19.png,0.4,1.2,43,0.75,,,,,,,,,,,,,0,38,38,42,1,,,,,,,,,,,,,,,,,,,,,,,,,,,,
,,,,,V3_046,21,Female,2024-11-04_16h08.49.279,jersey_experiment_5_v3,2023.2.2,Win32,84.74576271,,,,,,,,,,,,,,,,517.8751,519.1689,519.1689,520.0749,return,0.247,,69.79166667,,,,,,FBP-PT-19.png,0.43,1.2,29,0.5,,,,,,,,,,,,,0,39,39,28,1,,,,,,,,,,,,,,,,,,,,,,,,,,,,
,,,,,V3_046,21,Female,2024-11-04_16h08.49.279,jersey_experiment_5_v3,2023.2.2,Win32,84.74576271,,,,,,,,,,,,,,,,520.0751,521.3689,521.3689,523.0398,return,0.1839,,69.01041667,,,,,,FBP-YG-81.png,0.4,1.2,8,0.5,,,,,,,,,,,,,0,40,40,7,1,,,,,,,,,,,,,,,,,,,,,,,,,,,,
,,,,,V3_046,21,Female,2024-11-04_16h08.49.279,jersey_experiment_5_v3,2023.2.2,Win32,84.74576271,,,,,,,,,,,,,,,,523.04,524.334,524.3341,525.5573,return,0.5443,,34.24479167,,,,,,FBP-RB-19.png,0.35,1.2,56,0.5,,,,,,,,,,,,,0,41,41,55,1,,,,,,,,,,,,,,,,,,,,,,,,,,,,
,,,,,V3_046,21,Female,2024-11-04_16h08.49.279,jersey_experiment_5_v3,2023.2.2,Win32,84.74576271,,,,,,,,,,,,,,,,525.5576,526.8514,526.8514,527.4633,return,0.1187,,31.25,,,,,,FBP-PT-19.png,0.35,1.2,26,0.5,,,,,,,,,,,,,0,42,42,25,1,,,,,,,,,,,,,,,,,,,,,,,,,,,,
,,,,,V3_046,21,Female,2024-11-04_16h08.49.279,jersey_experiment_5_v3,2023.2.2,Win32,84.74576271,,,,,,,,,,,,,,,,527.4636,528.7575,528.7575,529.5457,return,0.1408,,76.04166667,,,,,,FBP-PT-18.png,0.43,1.2,24,0.5,,,,,,,,,,,,,0,43,43,23,1,,,,,,,,,,,,,,,,,,,,,,,,,,,,
,,,,,V3_046,21,Female,2024-11-04_16h08.49.279,jersey_experiment_5_v3,2023.2.2,Win32,84.74576271,,,,,,,,,,,,,,,,529.5459,530.8398,530.8399,531.3694,return,0.1413,,75,,,,,,FBP-PT-17.png,0.43,1.2,19,0.5,,,,,,,,,,,,,0,44,44,18,1,,,,,,,,,,,,,,,,,,,,,,,,,,,,
,,,,,V3_046,21,Female,2024-11-04_16h08.49.279,jersey_experiment_5_v3,2023.2.2,Win32,84.74576271,,,,,,,,,,,,,,,,531.3696,532.6636,532.6636,534.4989,return,0.7351,,60.67708333,,,,,,FBP-YG-91.png,0.37,1.2,12,0.5,,,,,,,,,,,,,0,45,45,11,1,,,,,,,,,,,,,,,,,,,,,,,,,,,,
,,,,,V3_046,21,Female,2024-11-04_16h08.49.279,jersey_experiment_5_v3,2023.2.2,Win32,84.74576271,,,,,,,,,,,,,,,,534.4992,535.793,535.7931,536.499,return,0.1232,,86.58854167,,,,,,FBP-PT-19.png,0.45,1.2,30,0.5,,,,,,,,,,,,,0,46,46,29,1,,,,,,,,,,,,,,,,,,,,,,,,,,,,
,,,,,V3_046,21,Female,2024-11-04_16h08.49.279,jersey_experiment_5_v3,2023.2.2,Win32,84.74576271,,,,,,,,,,,,,,,,536.4992,537.7931,537.7931,538.4048,return,0.1052,,84.50520833,,,,,,FBP-RB-17.png,0.4,1.2,48,0.5,,,,,,,,,,,,,0,47,47,47,1,,,,,,,,,,,,,,,,,,,,,,,,,,,,
,,,,,V3_046,21,Female,2024-11-04_16h08.49.279,jersey_experiment_5_v3,2023.2.2,Win32,84.74576271,,,,,,,,,,,,,,,,538.4051,539.958,539.958,540.8403,return,0.1314,,20.18229167,,,,,,FBP-OG-17.png,0.35,1.2,31,0.75,,,,,,,,,,,,,0,48,48,30,1,,,,,,,,,,,,,,,,,,,,,,,,,,,,
,,,,,V3_046,21,Female,2024-11-04_16h08.49.279,jersey_experiment_5_v3,2023.2.2,Win32,84.74576271,,,,,,,,,,,,,,,,540.8406,542.3934,542.3934,542.9345,return,0.0608,,91.27604167,,,,,,FBP-OG-19.png,0.45,1.2,45,0.75,,,,,,,,,,,,,0,49,49,44,1,,,,,,,,,,,,,,,,,,,,,,,,,,,,
,,,,,V3_046,21,Female,2024-11-04_16h08.49.279,jersey_experiment_5_v3,2023.2.2,Win32,84.74576271,,,,,,,,,,,,,,,,542.9348,544.2286,544.2286,545.5698,return,0.9833,,82.421875,,,,,,FBP-RB-17.png,0.45,1.2,50,0.5,,,,,,,,,,,,,0,50,50,49,1,,,,,,,,,,,,,,,,,,,,,,,,,,,,
,,,,,V3_046,21,Female,2024-11-04_16h08.49.279,jersey_experiment_5_v3,2023.2.2,Win32,84.74576271,,,,,,,,,,,,,,,,545.5701,546.8642,546.8642,547.5935,return,0.091,,66.14583333,,,,,,FBP-YG-71.png,0.4,1.2,3,0.5,,,,,,,,,,,,,0,51,51,2,1,,,,,,,,,,,,,,,,,,,,,,,,,,,,
,,,,,V3_046,21,Female,2024-11-04_16h08.49.279,jersey_experiment_5_v3,2023.2.2,Win32,84.74576271,,,,,,,,,,,,,,,,547.5937,549.1467,549.1467,549.6994,return,0.17,,92.70833333,,,,,,FBP-OG-17.png,0.45,1.2,35,0.75,,,,,,,,,,,,,0,52,52,34,1,,,,,,,,,,,,,,,,,,,,,,,,,,,,
,,,,,V3_046,21,Female,2024-11-04_16h08.49.279,jersey_experiment_5_v3,2023.2.2,Win32,84.74576271,,,,,,,,,,,,,,,,549.6996,551.2526,551.2526,551.97,return,0.0754,,29.94791667,,,,,,FBP-OG-19.png,0.35,1.2,41,0.75,,,,,,,,,,,,,0,53,53,40,1,,,,,,,,,,,,,,,,,,,,,,,,,,,,
,,,,,V3_046,21,Female,2024-11-04_16h08.49.279,jersey_experiment_5_v3,2023.2.2,Win32,84.74576271,,,,,,,,,,,,,,,,551.9703,553.5231,553.5232,554.1819,return,0.2027,,57.94270833,,,,,,FBP-OG-19.png,0.43,1.2,44,0.75,,,,,,,,,,,,,0,54,54,43,1,,,,,,,,,,,,,,,,,,,,,,,,,,,,
,,,,,V3_046,21,Female,2024-11-04_16h08.49.279,jersey_experiment_5_v3,2023.2.2,Win32,84.74576271,,,,,,,,,,,,,,,,554.1822,555.4761,555.4762,556.1702,return,0.1406,,45.96354167,,,,,,FBP-PT-17.png,0.4,1.2,18,0.5,,,,,,,,,,,,,0,55,55,17,1,,,,,,,,,,,,,,,,,,,,,,,,,,,,
,,,,,V3_046,21,Female,2024-11-04_16h08.49.279,jersey_experiment_5_v3,2023.2.2,Win32,84.74576271,,,,,,,,,,,,,,,,556.1705,557.4643,557.4644,558.0643,return,0.0515,,36.71875,,,,,,FBP-RB-18.png,0.35,1.2,51,0.5,,,,,,,,,,,,,0,56,56,50,1,,,,,,,,,,,,,,,,,,,,,,,,,,,,
,,,,,V3_046,21,Female,2024-11-04_16h08.49.279,jersey_experiment_5_v3,2023.2.2,Win32,84.74576271,,,,,,,,,,,,,,,,558.0646,559.3586,559.3586,559.9115,return,0.0713,,35.15625,,,,,,FBP-PT-19.png,0.37,1.2,27,0.5,,,,,,,,,,,,,0,57,57,26,1,,,,,,,,,,,,,,,,,,,,,,,,,,,,
,,,,,V3_046,21,Female,2024-11-04_16h08.49.279,jersey_experiment_5_v3,2023.2.2,Win32,84.74576271,,,,,,,,,,,,,,,,559.9118,561.2058,561.2059,561.747,return,0.0996,,66.92708333,,,,,,FBP-RB-18.png,0.43,1.2,54,0.5,,,,,,,,,,,,,0,58,58,53,1,,,,,,,,,,,,,,,,,,,,,,,,,,,,
,,,,,V3_046,21,Female,2024-11-04_16h08.49.279,jersey_experiment_5_v3,2023.2.2,Win32,84.74576271,,,,,,,,,,,,,,,,561.7472,563.0411,563.0411,563.547,return,0.1165,,78.515625,,,,,,FBP-YG-91.png,0.45,1.2,15,0.5,,,,,,,,,,,,,0,59,59,14,1,,,,,,,,,,,,,,,,,,,,,,,,,,,,
,,,,,V3_046,21,Female,2024-11-04_16h08.49.279,jersey_experiment_5_v3,2023.2.2,Win32,84.74576271,,,,,,,,,,,,,,,,563.5485,564.8412,564.8412,565.4883,return,0.0401,,81.640625,,,,,,FBP-YG-19.png,0.43,1.2,14,0.5,,,,,,,,,,,,,,,,,,0,0,0,13,1,,,,,,,,,,,,,,,,,,,,,,,
,,,,,V3_046,21,Female,2024-11-04_16h08.49.279,jersey_experiment_5_v3,2023.2.2,Win32,84.74576271,,,,,,,,,,,,,,,,565.4885,566.7825,566.7826,567.9942,return,0.1423,,15.49479167,,,,,,FBP-YG-17.png,0.35,1.2,1,0.5,,,,,,,,,,,,,,,,,,0,1,1,0,1,,,,,,,,,,,,,,,,,,,,,,,
,,,,,V3_046,21,Female,2024-11-04_16h08.49.279,jersey_experiment_5_v3,2023.2.2,Win32,84.74576271,,,,,,,,,,,,,,,,567.9945,569.2885,569.2885,570.1119,return,0.1144,,91.015625,,,,,,FBP-RB-91.png,0.45,1.2,60,0.5,,,,,,,,,,,,,,,,,,0,2,2,59,1,,,,,,,,,,,,,,,,,,,,,,,
,,,,,V3_046,21,Female,2024-11-04_16h08.49.279,jersey_experiment_5_v3,2023.2.2,Win32,84.74576271,,,,,,,,,,,,,,,,570.1121,571.6651,571.6651,572.6415,return,0.1718,,13.671875,,,,,,FBP-OG-91.png,0.37,1.2,42,0.75,,,,,,,,,,,,,,,,,,0,3,3,41,1,,,,,,,,,,,,,,,,,,,,,,,
,,,,,V3_046,21,Female,2024-11-04_16h08.49.279,jersey_experiment_5_v3,2023.2.2,Win32,84.74576271,,,,,,,,,,,,,,,,572.6417,573.9356,573.9356,574.7708,return,0.0987,,34.50520833,,,,,,FBP-PT-81.png,0.37,1.2,22,0.5,,,,,,,,,,,,,,,,,,0,4,4,21,1,,,,,,,,,,,,,,,,,,,,,,,
,,,,,V3_046,21,Female,2024-11-04_16h08.49.279,jersey_experiment_5_v3,2023.2.2,Win32,84.74576271,,,,,,,,,,,,,,,,574.7711,576.0653,576.0653,576.8182,return,0.1223,,89.71354167,,,,,,FBP-RB-91.png,0.43,1.2,59,0.5,,,,,,,,,,,,,,,,,,0,5,5,58,1,,,,,,,,,,,,,,,,,,,,,,,
,,,,,V3_046,21,Female,2024-11-04_16h08.49.279,jersey_experiment_5_v3,2023.2.2,Win32,84.74576271,,,,,,,,,,,,,,,,576.8184,578.1123,578.1123,578.6416,return,0.0882,,81.77083333,,,,,,FBP-RB-71.png,0.4,1.2,48,0.5,,,,,,,,,,,,,,,,,,0,6,6,47,1,,,,,,,,,,,,,,,,,,,,,,,
,,,,,V3_046,21,Female,2024-11-04_16h08.49.279,jersey_experiment_5_v3,2023.2.2,Win32,84.74576271,,,,,,,,,,,,,,,,578.6419,579.9359,579.9359,580.7712,return,0.2994,,60.02604167,,,,,,FBP-YG-17.png,0.37,1.2,2,0.5,,,,,,,,,,,,,,,,,,0,7,7,1,1,,,,,,,,,,,,,,,,,,,,,,,
,,,,,V3_046,21,Female,2024-11-04_16h08.49.279,jersey_experiment_5_v3,2023.2.2,Win32,84.74576271,,,,,,,,,,,,,,,,580.7713,582.0653,582.0653,583.2654,return,0.1702,,27.60416667,,,,,,FBP-PT-91.png,0.35,1.2,26,0.5,,,,,,,,,,,,,,,,,,0,8,8,25,1,,,,,,,,,,,,,,,,,,,,,,,
,,,,,V3_046,21,Female,2024-11-04_16h08.49.279,jersey_experiment_5_v3,2023.2.2,Win32,84.74576271,,,,,,,,,,,,,,,,583.2656,584.5596,584.5597,585.489,return,0.086,,69.140625,,,,,,FBP-YG-18.png,0.43,1.2,9,0.5,,,,,,,,,,,,,,,,,,0,9,9,8,1,,,,,,,,,,,,,,,,,,,,,,,
,,,,,V3_046,21,Female,2024-11-04_16h08.49.279,jersey_experiment_5_v3,2023.2.2,Win32,84.74576271,,,,,,,,,,,,,,,,585.4892,587.042,587.0421,587.4772,return,0.2031,,84.63541667,,,,,,FBP-OG-71.png,0.45,1.2,35,0.75,,,,,,,,,,,,,,,,,,0,10,10,34,1,,,,,,,,,,,,,,,,,,,,,,,
,,,,,V3_046,21,Female,2024-11-04_16h08.49.279,jersey_experiment_5_v3,2023.2.2,Win32,84.74576271,,,,,,,,,,,,,,,,587.4774,588.7715,588.7715,589.9126,return,0.5415,,34.63541667,,,,,,FBP-YG-19.png,0.37,1.2,12,0.5,,,,,,,,,,,,,,,,,,0,11,11,11,1,,,,,,,,,,,,,,,,,,,,,,,
,,,,,V3_046,21,Female,2024-11-04_16h08.49.279,jersey_experiment_5_v3,2023.2.2,Win32,84.74576271,,,,,,,,,,,,,,,,589.9129,591.4658,591.4658,592.148,return,0.122,,76.43229167,,,,,,FBP-OG-71.png,0.43,1.2,34,0.75,,,,,,,,,,,,,,,,,,0,12,12,33,1,,,,,,,,,,,,,,,,,,,,,,,
,,,,,V3_046,21,Female,2024-11-04_16h08.49.279,jersey_experiment_5_v3,2023.2.2,Win32,84.74576271,,,,,,,,,,,,,,,,592.1484,593.4423,593.4423,595.0188,return,0.6694,,75,,,,,,FBP-RB-91.png,0.37,1.2,57,0.5,,,,,,,,,,,,,,,,,,0,13,13,56,1,,,,,,,,,,,,,,,,,,,,,,,
,,,,,V3_046,21,Female,2024-11-04_16h08.49.279,jersey_experiment_5_v3,2023.2.2,Win32,84.74576271,,,,,,,,,,,,,,,,595.0191,596.3129,596.3129,597.0306,return,0.118,,88.02083333,,,,,,FBP-RB-71.png,0.45,1.2,50,0.5,,,,,,,,,,,,,,,,,,0,14,14,49,1,,,,,,,,,,,,,,,,,,,,,,,
,,,,,V3_046,21,Female,2024-11-04_16h08.49.279,jersey_experiment_5_v3,2023.2.2,Win32,84.74576271,,,,,,,,,,,,,,,,597.0308,598.3247,598.3248,599.7129,return,0.8764,,92.05729167,,,,,,FBP-YG-17.png,0.43,1.2,4,0.5,,,,,,,,,,,,,,,,,,0,15,15,3,1,,,,,,,,,,,,,,,,,,,,,,,
,,,,,V3_046,21,Female,2024-11-04_16h08.49.279,jersey_experiment_5_v3,2023.2.2,Win32,84.74576271,,,,,,,,,,,,,,,,599.7132,601.0073,601.0073,601.8425,return,0.0523,,15.234375,,,,,,FBP-YG-19.png,0.35,1.2,11,0.5,,,,,,,,,,,,,,,,,,0,16,16,10,1,,,,,,,,,,,,,,,,,,,,,,,
,,,,,V3_046,21,Female,2024-11-04_16h08.49.279,jersey_experiment_5_v3,2023.2.2,Win32,84.74576271,,,,,,,,,,,,,,,,601.8427,603.1367,603.1368,603.8896,return,0.1717,,75.91145833,,,,,,FBP-YG-18.png,0.4,1.2,8,0.5,,,,,,,,,,,,,,,,,,0,17,17,7,1,,,,,,,,,,,,,,,,,,,,,,,
,,,,,V3_046,21,Female,2024-11-04_16h08.49.279,jersey_experiment_5_v3,2023.2.2,Win32,84.74576271,,,,,,,,,,,,,,,,603.8899,605.1839,605.1839,606.0898,return,0.1648,,89.71354167,,,,,,FBP-PT-71.png,0.43,1.2,19,0.5,,,,,,,,,,,,,,,,,,0,18,18,18,1,,,,,,,,,,,,,,,,,,,,,,,
,,,,,V3_046,21,Female,2024-11-04_16h08.49.279,jersey_experiment_5_v3,2023.2.2,Win32,84.74576271,,,,,,,,,,,,,,,,606.09,607.384,607.384,608.3134,return,0.3165,,5.46875,,,,,,FBP-YG-18.png,0.35,1.2,6,0.5,,,,,,,,,,,,,,,,,,0,19,19,5,1,,,,,,,,,,,,,,,,,,,,,,,
,,,,,V3_046,21,Female,2024-11-04_16h08.49.279,jersey_experiment_5_v3,2023.2.2,Win32,84.74576271,,,,,,,,,,,,,,,,608.3136,609.8664,609.8665,610.4075,return,0.0822,,14.32291667,,,,,,FBP-OG-81.png,0.37,1.2,37,0.75,,,,,,,,,,,,,,,,,,0,20,20,36,1,,,,,,,,,,,,,,,,,,,,,,,
,,,,,V3_046,21,Female,2024-11-04_16h08.49.279,jersey_experiment_5_v3,2023.2.2,Win32,84.74576271,,,,,,,,,,,,,,,,610.4077,611.7019,611.7019,612.6312,return,0.2849,,65.234375,,,,,,FBP-PT-81.png,0.43,1.2,24,0.5,,,,,,,,,,,,,,,,,,0,21,21,23,1,,,,,,,,,,,,,,,,,,,,,,,
,,,,,V3_046,21,Female,2024-11-04_16h08.49.279,jersey_experiment_5_v3,2023.2.2,Win32,84.74576271,,,,,,,,,,,,,,,,612.6314,613.9254,613.9255,615.1606,return,0.5414,,91.53645833,,,,,,FBP-PT-81.png,0.45,1.2,25,0.5,,,,,,,,,,,,,,,,,,0,22,22,24,1,,,,,,,,,,,,,,,,,,,,,,,
,,,,,V3_046,21,Female,2024-11-04_16h08.49.279,jersey_experiment_5_v3,2023.2.2,Win32,84.74576271,,,,,,,,,,,,,,,,615.1608,616.4548,616.4549,617.5255,return,0.2272,,63.28125,,,,,,FBP-PT-91.png,0.43,1.2,29,0.5,,,,,,,,,,,,,,,,,,0,23,23,28,1,,,,,,,,,,,,,,,,,,,,,,,
,,,,,V3_046,21,Female,2024-11-04_16h08.49.279,jersey_experiment_5_v3,2023.2.2,Win32,84.74576271,,,,,,,,,,,,,,,,617.5257,618.8196,618.8197,619.4784,return,0.0711,,79.296875,,,,,,FBP-YG-18.png,0.45,1.2,10,0.5,,,,,,,,,,,,,,,,,,0,24,24,9,1,,,,,,,,,,,,,,,,,,,,,,,
,,,,,V3_046,21,Female,2024-11-04_16h08.49.279,jersey_experiment_5_v3,2023.2.2,Win32,84.74576271,,,,,,,,,,,,,,,,619.4786,620.7727,620.7727,621.3609,return,0.0514,,86.06770833,,,,,,FBP-RB-81.png,0.43,1.2,54,0.5,,,,,,,,,,,,,,,,,,0,25,25,53,1,,,,,,,,,,,,,,,,,,,,,,,
,,,,,V3_046,21,Female,2024-11-04_16h08.49.279,jersey_experiment_5_v3,2023.2.2,Win32,84.74576271,,,,,,,,,,,,,,,,621.3612,622.6553,622.6554,623.3845,return,0.117,,8.723958333,,,,,,FBP-PT-71.png,0.35,1.2,16,0.5,,,,,,,,,,,,,,,,,,0,26,26,15,1,,,,,,,,,,,,,,,,,,,,,,,
,,,,,V3_046,21,Female,2024-11-04_16h08.49.279,jersey_experiment_5_v3,2023.2.2,Win32,84.74576271,,,,,,,,,,,,,,,,623.3848,624.6787,624.6787,625.3376,return,0.1155,,34.24479167,,,,,,FBP-PT-81.png,0.4,1.2,23,0.5,,,,,,,,,,,,,,,,,,0,27,27,22,1,,,,,,,,,,,,,,,,,,,,,,,
,,,,,V3_046,21,Female,2024-11-04_16h08.49.279,jersey_experiment_5_v3,2023.2.2,Win32,84.74576271,,,,,,,,,,,,,,,,625.3378,626.8905,626.8905,627.667,return,0.1582,,45.44270833,,,,,,FBP-OG-81.png,0.4,1.2,38,0.75,,,,,,,,,,,,,,,,,,0,28,28,37,1,,,,,,,,,,,,,,,,,,,,,,,
,,,,,V3_046,21,Female,2024-11-04_16h08.49.279,jersey_experiment_5_v3,2023.2.2,Win32,84.74576271,,,,,,,,,,,,,,,,627.6672,628.9612,628.9612,629.4906,return,0.0375,,59.765625,,,,,,FBP-RB-71.png,0.43,1.2,49,0.5,,,,,,,,,,,,,,,,,,0,29,29,48,1,,,,,,,,,,,,,,,,,,,,,,,
,,,,,V3_046,21,Female,2024-11-04_16h08.49.279,jersey_experiment_5_v3,2023.2.2,Win32,84.74576271,,,,,,,,,,,,,,,,629.4909,630.7847,630.7848,631.5378,return,0.195,,44.140625,,,,,,FBP-PT-91.png,0.4,1.2,28,0.5,,,,,,,,,,,,,,,,,,0,30,30,27,1,,,,,,,,,,,,,,,,,,,,,,,
,,,,,V3_046,21,Female,2024-11-04_16h08.49.279,jersey_experiment_5_v3,2023.2.2,Win32,84.74576271,,,,,,,,,,,,,,,,631.538,632.8319,632.832,633.4084,return,0.0534,,32.16145833,,,,,,FBP-RB-81.png,0.37,1.2,52,0.5,,,,,,,,,,,,,,,,,,0,31,31,51,1,,,,,,,,,,,,,,,,,,,,,,,
,,,,,V3_046,21,Female,2024-11-04_16h08.49.279,jersey_experiment_5_v3,2023.2.2,Win32,84.74576271,,,,,,,,,,,,,,,,633.4086,634.7027,634.7027,635.3852,return,0.1556,,28.515625,,,,,,FBP-RB-71.png,0.37,1.2,47,0.5,,,,,,,,,,,,,,,,,,0,32,32,46,1,,,,,,,,,,,,,,,,,,,,,,,
,,,,,V3_046,21,Female,2024-11-04_16h08.49.279,jersey_experiment_5_v3,2023.2.2,Win32,84.74576271,,,,,,,,,,,,,,,,635.3854,636.6791,636.6791,637.3615,return,0.2385,,28.38541667,,,,,,FBP-RB-71.png,0.35,1.2,46,0.5,,,,,,,,,,,,,,,,,,0,33,33,45,1,,,,,,,,,,,,,,,,,,,,,,,
,,,,,V3_046,21,Female,2024-11-04_16h08.49.279,jersey_experiment_5_v3,2023.2.2,Win32,84.74576271,,,,,,,,,,,,,,,,637.3617,638.9145,638.9146,639.4791,return,0.0854,,77.734375,,,,,,FBP-OG-91.png,0.43,1.2,44,0.75,,,,,,,,,,,,,,,,,,0,34,34,43,1,,,,,,,,,,,,,,,,,,,,,,,
,,,,,V3_046,21,Female,2024-11-04_16h08.49.279,jersey_experiment_5_v3,2023.2.2,Win32,84.74576271,,,,,,,,,,,,,,,,639.4793,641.0323,641.0324,642.938,return,0.8863,,44.66145833,,,,,,FBP-OG-91.png,0.4,1.2,43,0.75,,,,,,,,,,,,,,,,,,0,35,35,42,1,,,,,,,,,,,,,,,,,,,,,,,
,,,,,V3_046,21,Female,2024-11-04_16h08.49.279,jersey_experiment_5_v3,2023.2.2,Win32,84.74576271,,,,,,,,,,,,,,,,642.9383,644.2323,644.2324,645.4912,return,0.6639,,75.26041667,,,,,,FBP-YG-19.png,0.45,1.2,15,0.5,,,,,,,,,,,,,,,,,,0,36,36,14,1,,,,,,,,,,,,,,,,,,,,,,,
,,,,,V3_046,21,Female,2024-11-04_16h08.49.279,jersey_experiment_5_v3,2023.2.2,Win32,84.74576271,,,,,,,,,,,,,,,,645.4914,646.7854,646.7854,647.609,return,0.118,,36.71875,,,,,,FBP-YG-18.png,0.37,1.2,7,0.5,,,,,,,,,,,,,,,,,,0,37,37,6,1,,,,,,,,,,,,,,,,,,,,,,,
,,,,,V3_046,21,Female,2024-11-04_16h08.49.279,jersey_experiment_5_v3,2023.2.2,Win32,84.74576271,,,,,,,,,,,,,,,,647.6092,648.9031,648.9031,649.6091,return,0.0345,,71.09375,,,,,,FBP-PT-71.png,0.4,1.2,18,0.5,,,,,,,,,,,,,,,,,,0,38,38,17,1,,,,,,,,,,,,,,,,,,,,,,,
,,,,,V3_046,21,Female,2024-11-04_16h08.49.279,jersey_experiment_5_v3,2023.2.2,Win32,84.74576271,,,,,,,,,,,,,,,,649.6094,650.9031,650.9031,651.6091,return,0.1526,,91.796875,,,,,,FBP-PT-91.png,0.45,1.2,30,0.5,,,,,,,,,,,,,,,,,,0,39,39,29,1,,,,,,,,,,,,,,,,,,,,,,,
,,,,,V3_046,21,Female,2024-11-04_16h08.49.279,jersey_experiment_5_v3,2023.2.2,Win32,84.74576271,,,,,,,,,,,,,,,,651.6093,652.9033,652.9033,653.5385,return,0.0764,,29.81770833,,,,,,FBP-PT-71.png,0.37,1.2,17,0.5,,,,,,,,,,,,,,,,,,0,40,40,16,1,,,,,,,,,,,,,,,,,,,,,,,
,,,,,V3_046,21,Female,2024-11-04_16h08.49.279,jersey_experiment_5_v3,2023.2.2,Win32,84.74576271,,,,,,,,,,,,,,,,653.5388,654.8327,654.8327,656.4799,return,0.1836,,86.328125,,,,,,FBP-YG-17.png,0.45,1.2,5,0.5,,,,,,,,,,,,,,,,,,0,41,41,4,1,,,,,,,,,,,,,,,,,,,,,,,
,,,,,V3_046,21,Female,2024-11-04_16h08.49.279,jersey_experiment_5_v3,2023.2.2,Win32,84.74576271,,,,,,,,,,,,,,,,656.4802,658.0329,658.033,659.0917,return,0.2736,,10.9375,,,,,,FBP-OG-91.png,0.35,1.2,41,0.75,,,,,,,,,,,,,,,,,,0,42,42,40,1,,,,,,,,,,,,,,,,,,,,,,,
,,,,,V3_046,21,Female,2024-11-04_16h08.49.279,jersey_experiment_5_v3,2023.2.2,Win32,84.74576271,,,,,,,,,,,,,,,,659.092,660.3859,660.386,661.1271,return,0.1797,,37.76041667,,,,,,FBP-RB-81.png,0.4,1.2,53,0.5,,,,,,,,,,,,,,,,,,0,43,43,52,1,,,,,,,,,,,,,,,,,,,,,,,
,,,,,V3_046,21,Female,2024-11-04_16h08.49.279,jersey_experiment_5_v3,2023.2.2,Win32,84.74576271,,,,,,,,,,,,,,,,661.1273,662.4213,662.4213,663.0565,return,0.0525,,16.14583333,,,,,,FBP-RB-81.png,0.35,1.2,51,0.5,,,,,,,,,,,,,,,,,,0,44,44,50,1,,,,,,,,,,,,,,,,,,,,,,,
,,,,,V3_046,21,Female,2024-11-04_16h08.49.279,jersey_experiment_5_v3,2023.2.2,Win32,84.74576271,,,,,,,,,,,,,,,,663.0568,664.6097,664.6098,665.139,return,0.1465,,10.67708333,,,,,,FBP-OG-71.png,0.37,1.2,32,0.75,,,,,,,,,,,,,,,,,,0,45,45,31,1,,,,,,,,,,,,,,,,,,,,,,,
,,,,,V3_046,21,Female,2024-11-04_16h08.49.279,jersey_experiment_5_v3,2023.2.2,Win32,84.74576271,,,,,,,,,,,,,,,,665.1391,666.6804,666.6804,667.492,return,0.0984,,54.81770833,,,,,,FBP-OG-71.png,0.4,1.2,33,0.75,,,,,,,,,,,,,,,,,,0,46,46,32,1,,,,,,,,,,,,,,,,,,,,,,,
,,,,,V3_046,21,Female,2024-11-04_16h08.49.279,jersey_experiment_5_v3,2023.2.2,Win32,84.74576271,,,,,,,,,,,,,,,,667.4923,669.0451,669.0451,669.5274,return,0.0691,,77.08333333,,,,,,FBP-OG-91.png,0.45,1.2,45,0.75,,,,,,,,,,,,,,,,,,0,47,47,44,1,,,,,,,,,,,,,,,,,,,,,,,
,,,,,V3_046,21,Female,2024-11-04_16h08.49.279,jersey_experiment_5_v3,2023.2.2,Win32,84.74576271,,,,,,,,,,,,,,,,669.5276,670.8216,670.8217,671.6568,return,0.1491,,20.96354167,,,,,,FBP-PT-81.png,0.35,1.2,21,0.5,,,,,,,,,,,,,,,,,,0,48,48,20,1,,,,,,,,,,,,,,,,,,,,,,,
,,,,,V3_046,21,Female,2024-11-04_16h08.49.279,jersey_experiment_5_v3,2023.2.2,Win32,84.74576271,,,,,,,,,,,,,,,,671.657,672.9512,672.9512,673.7158,return,0.1682,,71.875,,,,,,FBP-YG-19.png,0.4,1.2,13,0.5,,,,,,,,,,,,,,,,,,0,49,49,12,1,,,,,,,,,,,,,,,,,,,,,,,
,,,,,V3_046,21,Female,2024-11-04_16h08.49.279,jersey_experiment_5_v3,2023.2.2,Win32,84.74576271,,,,,,,,,,,,,,,,673.716,675.01,675.0101,675.7512,return,0.1746,,89.0625,,,,,,FBP-RB-91.png,0.4,1.2,58,0.5,,,,,,,,,,,,,,,,,,0,50,50,57,1,,,,,,,,,,,,,,,,,,,,,,,
,,,,,V3_046,21,Female,2024-11-04_16h08.49.279,jersey_experiment_5_v3,2023.2.2,Win32,84.74576271,,,,,,,,,,,,,,,,675.7514,677.0455,677.0455,678.1277,return,0.1343,,88.80208333,,,,,,FBP-RB-81.png,0.45,1.2,55,0.5,,,,,,,,,,,,,,,,,,0,51,51,54,1,,,,,,,,,,,,,,,,,,,,,,,
,,,,,V3_046,21,Female,2024-11-04_16h08.49.279,jersey_experiment_5_v3,2023.2.2,Win32,84.74576271,,,,,,,,,,,,,,,,678.1279,679.6808,679.6808,680.2454,return,0.1558,,90.88541667,,,,,,FBP-OG-81.png,0.45,1.2,40,0.75,,,,,,,,,,,,,,,,,,0,52,52,39,1,,,,,,,,,,,,,,,,,,,,,,,
,,,,,V3_046,21,Female,2024-11-04_16h08.49.279,jersey_experiment_5_v3,2023.2.2,Win32,84.74576271,,,,,,,,,,,,,,,,680.2457,681.7983,681.7984,682.6337,return,0.1883,,85.28645833,,,,,,FBP-OG-81.png,0.43,1.2,39,0.75,,,,,,,,,,,,,,,,,,0,53,53,38,1,,,,,,,,,,,,,,,,,,,,,,,
,,,,,V3_046,21,Female,2024-11-04_16h08.49.279,jersey_experiment_5_v3,2023.2.2,Win32,84.74576271,,,,,,,,,,,,,,,,682.6339,683.9279,683.9279,684.9279,return,0.1347,,15.10416667,,,,,,FBP-PT-91.png,0.37,1.2,27,0.5,,,,,,,,,,,,,,,,,,0,54,54,26,1,,,,,,,,,,,,,,,,,,,,,,,
,,,,,V3_046,21,Female,2024-11-04_16h08.49.279,jersey_experiment_5_v3,2023.2.2,Win32,84.74576271,,,,,,,,,,,,,,,,684.9282,686.481,686.481,687.0104,return,0.1431,,7.552083333,,,,,,FBP-OG-71.png,0.35,1.2,31,0.75,,,,,,,,,,,,,,,,,,0,55,55,30,1,,,,,,,,,,,,,,,,,,,,,,,
,,,,,V3_046,21,Female,2024-11-04_16h08.49.279,jersey_experiment_5_v3,2023.2.2,Win32,84.74576271,,,,,,,,,,,,,,,,687.0109,688.3047,688.3047,688.9281,return,0.0901,,65.49479167,,,,,,FBP-YG-17.png,0.4,1.2,3,0.5,,,,,,,,,,,,,,,,,,0,56,56,2,1,,,,,,,,,,,,,,,,,,,,,,,
,,,,,V3_046,21,Female,2024-11-04_16h08.49.279,jersey_experiment_5_v3,2023.2.2,Win32,84.74576271,,,,,,,,,,,,,,,,688.9284,690.2223,690.2223,691.1516,return,0.2884,,10.15625,,,,,,FBP-RB-91.png,0.35,1.2,56,0.5,,,,,,,,,,,,,,,,,,0,57,57,55,1,,,,,,,,,,,,,,,,,,,,,,,
,,,,,V3_046,21,Female,2024-11-04_16h08.49.279,jersey_experiment_5_v3,2023.2.2,Win32,84.74576271,,,,,,,,,,,,,,,,691.1518,692.4459,692.4459,693.1517,return,0.0673,,86.328125,,,,,,FBP-PT-71.png,0.45,1.2,20,0.5,,,,,,,,,,,,,,,,,,0,58,58,19,1,,,,,,,,,,,,,,,,,,,,,,,
,,,,,V3_046,21,Female,2024-11-04_16h08.49.279,jersey_experiment_5_v3,2023.2.2,Win32,84.74576271,,,,,,,,,,,,,,,,693.1519,694.7049,694.7049,695.6577,return,0.1412,,14.32291667,,,,,,FBP-OG-81.png,0.35,1.2,36,0.75,,,,,,,,,,,,,,,,,,0,59,59,35,1,,,,,,,,,,,,,,,,,,,,,,,
,,,,,V3_046,21,Female,2024-11-04_16h08.49.279,jersey_experiment_5_v3,2023.2.2,Win32,84.74576271,,,,,,,,,,,,,,,,,,,,,,,,,,,,,,,,,,,,,,,,,,,,,,,,,,,,,,,,695.6579,698.8226,return,3.1549,,,,,,,,,,,,,,,,,,,
,,,,,V3_046,21,Female,2024-11-04_16h08.49.279,jersey_experiment_5_v3,2023.2.2,Win32,84.74576271,,,,,,,,,,,,,,,,,,,,,,,,,,,,,,,,,,,,,,,,,,,,,,,,,,,,,,,,,,,,,698.8228,703.0581,1,3.3524,return,0.8727,,,,,,,,,,,,
,,,,,V3_046,21,Female,2024-11-04_16h08.49.279,jersey_experiment_5_v3,2023.2.2,Win32,84.74576271,,,,,,,,,,,,,,,,,,,,,,,,,,,,,,,,,,,,,,,,,,,,,,,,,,,,,,,,,,,,,,,,,,,,703.0583,728.6595,the perception of recognition of weight,right,22.6613,,,,,,
,,,,,V3_046,21,Female,2024-11-04_16h08.49.279,jersey_experiment_5_v3,2023.2.2,Win32,84.74576271,,,,,,,,,,,,,,,,,,,,,,,,,,,,,,,,,,,,,,,,,,,,,,,,,,,,,,,,,,,,,,,,,,,,,,,,,,728.6595,731.2708,return,2.602,