requirements.started,requirements.stopped,key_resp_3.keys,key_resp_3.rt,key_resp_3.duration,Subject ID,Age,Gender,date,expName,psychopyVersion,OS,frameRate,instructions1.started,instructions1.stopped,key_resp.keys,key_resp.rt,key_resp.duration,example.started,example.stopped,enter_2.keys,enter_2.rt,enter_2.duration,instructions2.started,instructions2.stopped,enter_3.keys,enter_3.rt,enter_3.duration,image.started,image.stopped,slider_2.started,slider_2.stopped,next.keys,next.rt,next.duration,slider.response,trial_block_1.thisRepN,trial_block_1.thisTrialN,trial_block_1.thisN,trial_block_1.thisIndex,trial_block_1.ran,Path,Width,Height,Index,Duration,trial_block_2.thisRepN,trial_block_2.thisTrialN,trial_block_2.thisN,trial_block_2.thisIndex,trial_block_2.ran,rest_break.started,rest_break.stopped,end_break.started,end_break.stopped,key_resp_5.keys,key_resp_5.rt,key_resp_5.duration,trial_block_3.thisRepN,trial_block_3.thisTrialN,trial_block_3.thisN,trial_block_3.thisIndex,trial_block_3.ran,trial_block_4.thisRepN,trial_block_4.thisTrialN,trial_block_4.thisN,trial_block_4.thisIndex,trial_block_4.ran,questions_intro.started,questions_intro.stopped,enter_12.keys,enter_12.rt,enter_12.duration,question2.started,question2.stopped,question_doingbest.response,question_doingbest.rt,enter_15.keys,enter_15.rt,enter_15.duration,pattern.started,pattern.stopped,pattern_2.text,enter_17.keys,enter_17.rt,enter_17.duration,thankyou.started,thankyou.stopped,enter_14.keys,enter_14.rt,enter_14.duration
0,2.2179,return,2.2111,,V3_066,22,Female,2024-11-15_15h53.41.518,jersey_experiment_5_v3,2023.2.2,Win32,84.74576271,,,,,,,,,,,,,,,,,,,,,,,,,,,,,,,,,,,,,,,,,,,,,,,,,,,,,,,,,,,,,,,,,,,,,,,,,,,,,,
,,,,,V3_066,22,Female,2024-11-15_15h53.41.518,jersey_experiment_5_v3,2023.2.2,Win32,84.74576271,2.2179,3.819,return,1.5923,,,,,,,,,,,,,,,,,,,,,,,,,,,,,,,,,,,,,,,,,,,,,,,,,,,,,,,,,,,,,,,,,,,,,,,,,,
,,,,,V3_066,22,Female,2024-11-15_15h53.41.518,jersey_experiment_5_v3,2023.2.2,Win32,84.74576271,,,,,,3.8191,7.9884,return,4.1433,,,,,,,,,,,,,,,,,,,,,,,,,,,,,,,,,,,,,,,,,,,,,,,,,,,,,,,,,,,,,,,,,,,,,
,,,,,V3_066,22,Female,2024-11-15_15h53.41.518,jersey_experiment_5_v3,2023.2.2,Win32,84.74576271,,,,,,,,,,,7.9884,10.9886,return,2.9871,,,,,,,,,,,,,,,,,,,,,,,,,,,,,,,,,,,,,,,,,,,,,,,,,,,,,,,,,,,,,,,,
,,,,,V3_066,22,Female,2024-11-15_15h53.41.518,jersey_experiment_5_v3,2023.2.2,Win32,84.74576271,,,,,,,,,,,,,,,,10.9908,12.2828,12.2828,16.6007,return,1.1677,,74.34895833,0,0,0,38,1,FBP-OG-18.png,0.43,1.2,39,0.5,,,,,,,,,,,,,,,,,,,,,,,,,,,,,,,,,,,,,,,,,,,,,
,,,,,V3_066,22,Female,2024-11-15_15h53.41.518,jersey_experiment_5_v3,2023.2.2,Win32,84.74576271,,,,,,,,,,,,,,,,16.6009,17.8948,17.8948,22.6126,return,1.0424,,75.390625,0,1,1,44,1,FBP-OG-19.png,0.45,1.2,45,0.5,,,,,,,,,,,,,,,,,,,,,,,,,,,,,,,,,,,,,,,,,,,,,
,,,,,V3_066,22,Female,2024-11-15_15h53.41.518,jersey_experiment_5_v3,2023.2.2,Win32,84.74576271,,,,,,,,,,,,,,,,22.6131,24.1655,24.1657,27.5304,return,1.3187,,25.65104167,0,2,2,12,1,FBP-YG-91.png,0.4,1.2,13,0.75,,,,,,,,,,,,,,,,,,,,,,,,,,,,,,,,,,,,,,,,,,,,,
,,,,,V3_066,22,Female,2024-11-15_15h53.41.518,jersey_experiment_5_v3,2023.2.2,Win32,84.74576271,,,,,,,,,,,,,,,,27.5308,29.0835,29.0835,32.1188,return,1.5814,,0.390625,0,3,3,21,1,FBP-PT-18.png,0.37,1.2,22,0.75,,,,,,,,,,,,,,,,,,,,,,,,,,,,,,,,,,,,,,,,,,,,,
,,,,,V3_066,22,Female,2024-11-15_15h53.41.518,jersey_experiment_5_v3,2023.2.2,Win32,84.74576271,,,,,,,,,,,,,,,,32.119,33.6717,33.6718,36.213,return,1.1363,,74.34895833,0,4,4,53,1,FBP-RB-18.png,0.43,1.2,54,0.75,,,,,,,,,,,,,,,,,,,,,,,,,,,,,,,,,,,,,,,,,,,,,
,,,,,V3_066,22,Female,2024-11-15_15h53.41.518,jersey_experiment_5_v3,2023.2.2,Win32,84.74576271,,,,,,,,,,,,,,,,36.2133,37.5074,37.5075,45.2251,return,6.225,,24.34895833,0,5,5,35,1,FBP-OG-18.png,0.35,1.2,36,0.5,,,,,,,,,,,,,,,,,,,,,,,,,,,,,,,,,,,,,,,,,,,,,
,,,,,V3_066,22,Female,2024-11-15_15h53.41.518,jersey_experiment_5_v3,2023.2.2,Win32,84.74576271,,,,,,,,,,,,,,,,45.2254,46.5193,46.5193,50.4841,return,1.7218,,15.10416667,0,6,6,36,1,FBP-OG-18.png,0.37,1.2,37,0.5,,,,,,,,,,,,,,,,,,,,,,,,,,,,,,,,,,,,,,,,,,,,,
,,,,,V3_066,22,Female,2024-11-15_15h53.41.518,jersey_experiment_5_v3,2023.2.2,Win32,84.74576271,,,,,,,,,,,,,,,,50.4843,52.0371,52.0372,54.9079,return,1.1664,,32.68229167,0,7,7,26,1,FBP-PT-19.png,0.37,1.2,27,0.75,,,,,,,,,,,,,,,,,,,,,,,,,,,,,,,,,,,,,,,,,,,,,
,,,,,V3_066,22,Female,2024-11-15_15h53.41.518,jersey_experiment_5_v3,2023.2.2,Win32,84.74576271,,,,,,,,,,,,,,,,54.9081,56.4608,56.4608,59.8139,return,1.9924,,14.71354167,0,8,8,50,1,FBP-RB-18.png,0.35,1.2,51,0.75,,,,,,,,,,,,,,,,,,,,,,,,,,,,,,,,,,,,,,,,,,,,,
,,,,,V3_066,22,Female,2024-11-15_15h53.41.518,jersey_experiment_5_v3,2023.2.2,Win32,84.74576271,,,,,,,,,,,,,,,,59.8142,61.108,61.108,64.1787,return,1.2442,,82.8125,0,9,9,33,1,FBP-OG-17.png,0.43,1.2,34,0.5,,,,,,,,,,,,,,,,,,,,,,,,,,,,,,,,,,,,,,,,,,,,,
,,,,,V3_066,22,Female,2024-11-15_15h53.41.518,jersey_experiment_5_v3,2023.2.2,Win32,84.74576271,,,,,,,,,,,,,,,,64.1789,65.7317,65.7317,67.8494,return,1.0586,,93.88020833,0,10,10,24,1,FBP-PT-18.png,0.45,1.2,25,0.75,,,,,,,,,,,,,,,,,,,,,,,,,,,,,,,,,,,,,,,,,,,,,
,,,,,V3_066,22,Female,2024-11-15_15h53.41.518,jersey_experiment_5_v3,2023.2.2,Win32,84.74576271,,,,,,,,,,,,,,,,67.8496,69.4024,69.4025,72.3084,return,1.0743,,8.723958333,0,11,11,0,1,FBP-YG-71.png,0.35,1.2,1,0.75,,,,,,,,,,,,,,,,,,,,,,,,,,,,,,,,,,,,,,,,,,,,,
,,,,,V3_066,22,Female,2024-11-15_15h53.41.518,jersey_experiment_5_v3,2023.2.2,Win32,84.74576271,,,,,,,,,,,,,,,,72.3086,73.8615,73.8615,76.6026,return,1.1663,,95.703125,0,12,12,49,1,FBP-RB-17.png,0.45,1.2,50,0.75,,,,,,,,,,,,,,,,,,,,,,,,,,,,,,,,,,,,,,,,,,,,,
,,,,,V3_066,22,Female,2024-11-15_15h53.41.518,jersey_experiment_5_v3,2023.2.2,Win32,84.74576271,,,,,,,,,,,,,,,,76.6028,77.8968,77.8968,81.8971,return,2.1797,,26.69270833,0,13,13,40,1,FBP-OG-19.png,0.35,1.2,41,0.5,,,,,,,,,,,,,,,,,,,,,,,,,,,,,,,,,,,,,,,,,,,,,
,,,,,V3_066,22,Female,2024-11-15_15h53.41.518,jersey_experiment_5_v3,2023.2.2,Win32,84.74576271,,,,,,,,,,,,,,,,81.8973,83.4499,83.45,86.2971,return,1.0837,,91.66666667,0,14,14,48,1,FBP-RB-17.png,0.43,1.2,49,0.75,,,,,,,,,,,,,,,,,,,,,,,,,,,,,,,,,,,,,,,,,,,,,
,,,,,V3_066,22,Female,2024-11-15_15h53.41.518,jersey_experiment_5_v3,2023.2.2,Win32,84.74576271,,,,,,,,,,,,,,,,86.2974,87.8501,87.8501,91.6855,return,2.0761,,35.9375,0,15,15,1,1,FBP-YG-71.png,0.37,1.2,2,0.75,,,,,,,,,,,,,,,,,,,,,,,,,,,,,,,,,,,,,,,,,,,,,
,,,,,V3_066,22,Female,2024-11-15_15h53.41.518,jersey_experiment_5_v3,2023.2.2,Win32,84.74576271,,,,,,,,,,,,,,,,91.6859,92.9797,92.9798,95.9562,return,1.4659,,67.83854167,0,16,16,32,1,FBP-OG-17.png,0.4,1.2,33,0.5,,,,,,,,,,,,,,,,,,,,,,,,,,,,,,,,,,,,,,,,,,,,,
,,,,,V3_066,22,Female,2024-11-15_15h53.41.518,jersey_experiment_5_v3,2023.2.2,Win32,84.74576271,,,,,,,,,,,,,,,,95.9565,97.2504,97.2505,100.6978,return,1.248,,32.68229167,0,17,17,31,1,FBP-OG-17.png,0.37,1.2,32,0.5,,,,,,,,,,,,,,,,,,,,,,,,,,,,,,,,,,,,,,,,,,,,,
,,,,,V3_066,22,Female,2024-11-15_15h53.41.518,jersey_experiment_5_v3,2023.2.2,Win32,84.74576271,,,,,,,,,,,,,,,,100.6982,102.2507,102.2507,105.6742,return,1.4836,,53.64583333,0,18,18,47,1,FBP-RB-17.png,0.4,1.2,48,0.75,,,,,,,,,,,,,,,,,,,,,,,,,,,,,,,,,,,,,,,,,,,,,
,,,,,V3_066,22,Female,2024-11-15_15h53.41.518,jersey_experiment_5_v3,2023.2.2,Win32,84.74576271,,,,,,,,,,,,,,,,105.6745,107.2272,107.2273,109.4273,return,0.9613,,98.4375,0,19,19,14,1,FBP-YG-91.png,0.45,1.2,15,0.75,,,,,,,,,,,,,,,,,,,,,,,,,,,,,,,,,,,,,,,,,,,,,
,,,,,V3_066,22,Female,2024-11-15_15h53.41.518,jersey_experiment_5_v3,2023.2.2,Win32,84.74576271,,,,,,,,,,,,,,,,109.4275,110.9803,110.9803,113.757,return,1.1909,,20.05208333,0,20,20,15,1,FBP-PT-17.png,0.35,1.2,16,0.75,,,,,,,,,,,,,,,,,,,,,,,,,,,,,,,,,,,,,,,,,,,,,
,,,,,V3_066,22,Female,2024-11-15_15h53.41.518,jersey_experiment_5_v3,2023.2.2,Win32,84.74576271,,,,,,,,,,,,,,,,113.7572,115.3099,115.3099,118.3924,return,1.2388,,75.13020833,0,21,21,28,1,FBP-PT-19.png,0.43,1.2,29,0.75,,,,,,,,,,,,,,,,,,,,,,,,,,,,,,,,,,,,,,,,,,,,,
,,,,,V3_066,22,Female,2024-11-15_15h53.41.518,jersey_experiment_5_v3,2023.2.2,Win32,84.74576271,,,,,,,,,,,,,,,,118.3927,119.9454,119.9455,123.0985,return,1.93,,68.61979167,0,22,22,8,1,FBP-YG-81.png,0.43,1.2,9,0.75,,,,,,,,,,,,,,,,,,,,,,,,,,,,,,,,,,,,,,,,,,,,,
,,,,,V3_066,22,Female,2024-11-15_15h53.41.518,jersey_experiment_5_v3,2023.2.2,Win32,84.74576271,,,,,,,,,,,,,,,,123.0987,124.6514,124.6515,127.3223,return,1.6119,,58.46354167,0,23,23,57,1,FBP-RB-19.png,0.4,1.2,58,0.75,,,,,,,,,,,,,,,,,,,,,,,,,,,,,,,,,,,,,,,,,,,,,
,,,,,V3_066,22,Female,2024-11-15_15h53.41.518,jersey_experiment_5_v3,2023.2.2,Win32,84.74576271,,,,,,,,,,,,,,,,127.3227,128.8752,128.8752,131.0753,return,0.6894,,91.66666667,0,24,24,9,1,FBP-YG-81.png,0.45,1.2,10,0.75,,,,,,,,,,,,,,,,,,,,,,,,,,,,,,,,,,,,,,,,,,,,,
,,,,,V3_066,22,Female,2024-11-15_15h53.41.518,jersey_experiment_5_v3,2023.2.2,Win32,84.74576271,,,,,,,,,,,,,,,,131.0754,132.3694,132.3694,135.1107,return,1.1197,,22.65625,0,25,25,41,1,FBP-OG-19.png,0.37,1.2,42,0.5,,,,,,,,,,,,,,,,,,,,,,,,,,,,,,,,,,,,,,,,,,,,,
,,,,,V3_066,22,Female,2024-11-15_15h53.41.518,jersey_experiment_5_v3,2023.2.2,Win32,84.74576271,,,,,,,,,,,,,,,,135.111,136.6636,136.6636,139.0992,return,1.1532,,5.208333333,0,26,26,56,1,FBP-RB-19.png,0.37,1.2,57,0.75,,,,,,,,,,,,,,,,,,,,,,,,,,,,,,,,,,,,,,,,,,,,,
,,,,,V3_066,22,Female,2024-11-15_15h53.41.518,jersey_experiment_5_v3,2023.2.2,Win32,84.74576271,,,,,,,,,,,,,,,,139.0994,140.652,140.6521,143.2287,return,0.7872,,88.671875,0,27,27,4,1,FBP-YG-71.png,0.45,1.2,5,0.75,,,,,,,,,,,,,,,,,,,,,,,,,,,,,,,,,,,,,,,,,,,,,
,,,,,V3_066,22,Female,2024-11-15_15h53.41.518,jersey_experiment_5_v3,2023.2.2,Win32,84.74576271,,,,,,,,,,,,,,,,143.2291,144.7816,144.7816,147.4171,return,1.4613,,68.22916667,0,28,28,27,1,FBP-PT-19.png,0.4,1.2,28,0.75,,,,,,,,,,,,,,,,,,,,,,,,,,,,,,,,,,,,,,,,,,,,,
,,,,,V3_066,22,Female,2024-11-15_15h53.41.518,jersey_experiment_5_v3,2023.2.2,Win32,84.74576271,,,,,,,,,,,,,,,,147.4173,148.7111,148.7112,151.0525,return,0.9435,,57.68229167,0,29,29,37,1,FBP-OG-18.png,0.4,1.2,38,0.5,,,,,,,,,,,,,,,,,,,,,,,,,,,,,,,,,,,,,,,,,,,,,
,,,,,V3_066,22,Female,2024-11-15_15h53.41.518,jersey_experiment_5_v3,2023.2.2,Win32,84.74576271,,,,,,,,,,,,,,,,151.0527,152.6054,152.6055,154.7819,return,0.9503,,88.671875,0,30,30,19,1,FBP-PT-17.png,0.45,1.2,20,0.75,,,,,,,,,,,,,,,,,,,,,,,,,,,,,,,,,,,,,,,,,,,,,
,,,,,V3_066,22,Female,2024-11-15_15h53.41.518,jersey_experiment_5_v3,2023.2.2,Win32,84.74576271,,,,,,,,,,,,,,,,154.7823,156.3348,156.3348,160.2762,return,2.948,,76.30208333,0,31,31,18,1,FBP-PT-17.png,0.43,1.2,19,0.75,,,,,,,,,,,,,,,,,,,,,,,,,,,,,,,,,,,,,,,,,,,,,
,,,,,V3_066,22,Female,2024-11-15_15h53.41.518,jersey_experiment_5_v3,2023.2.2,Win32,84.74576271,,,,,,,,,,,,,,,,160.2764,161.8293,161.8294,164.0058,return,0.947,,30.33854167,0,32,32,6,1,FBP-YG-81.png,0.37,1.2,7,0.75,,,,,,,,,,,,,,,,,,,,,,,,,,,,,,,,,,,,,,,,,,,,,
,,,,,V3_066,22,Female,2024-11-15_15h53.41.518,jersey_experiment_5_v3,2023.2.2,Win32,84.74576271,,,,,,,,,,,,,,,,164.006,165.5588,165.5588,167.5237,return,0.5941,,36.84895833,0,33,33,7,1,FBP-YG-81.png,0.4,1.2,8,0.75,,,,,,,,,,,,,,,,,,,,,,,,,,,,,,,,,,,,,,,,,,,,,
,,,,,V3_066,22,Female,2024-11-15_15h53.41.518,jersey_experiment_5_v3,2023.2.2,Win32,84.74576271,,,,,,,,,,,,,,,,167.5239,169.0766,169.0766,171.0767,return,0.7951,,69.66145833,0,34,34,54,1,FBP-RB-18.png,0.45,1.2,55,0.75,,,,,,,,,,,,,,,,,,,,,,,,,,,,,,,,,,,,,,,,,,,,,
,,,,,V3_066,22,Female,2024-11-15_15h53.41.518,jersey_experiment_5_v3,2023.2.2,Win32,84.74576271,,,,,,,,,,,,,,,,171.0768,172.6297,172.6297,176.0769,return,0.6354,,49.86979167,0,35,35,17,1,FBP-PT-17.png,0.4,1.2,18,0.75,,,,,,,,,,,,,,,,,,,,,,,,,,,,,,,,,,,,,,,,,,,,,
,,,,,V3_066,22,Female,2024-11-15_15h53.41.518,jersey_experiment_5_v3,2023.2.2,Win32,84.74576271,,,,,,,,,,,,,,,,176.0772,177.6298,177.6298,179.3359,return,0.6845,,33.33333333,0,36,36,2,1,FBP-YG-71.png,0.4,1.2,3,0.75,,,,,,,,,,,,,,,,,,,,,,,,,,,,,,,,,,,,,,,,,,,,,
,,,,,V3_066,22,Female,2024-11-15_15h53.41.518,jersey_experiment_5_v3,2023.2.2,Win32,84.74576271,,,,,,,,,,,,,,,,179.3361,180.8889,180.8889,182.583,return,0.6159,,21.35416667,0,37,37,16,1,FBP-PT-17.png,0.37,1.2,17,0.75,,,,,,,,,,,,,,,,,,,,,,,,,,,,,,,,,,,,,,,,,,,,,
,,,,,V3_066,22,Female,2024-11-15_15h53.41.518,jersey_experiment_5_v3,2023.2.2,Win32,84.74576271,,,,,,,,,,,,,,,,182.5834,184.136,184.136,186.3478,return,0.8133,,69.66145833,0,38,38,59,1,FBP-RB-19.png,0.45,1.2,60,0.75,,,,,,,,,,,,,,,,,,,,,,,,,,,,,,,,,,,,,,,,,,,,,
,,,,,V3_066,22,Female,2024-11-15_15h53.41.518,jersey_experiment_5_v3,2023.2.2,Win32,84.74576271,,,,,,,,,,,,,,,,186.348,187.9009,187.9009,189.795,return,0.6908,,53.77604167,0,39,39,52,1,FBP-RB-18.png,0.4,1.2,53,0.75,,,,,,,,,,,,,,,,,,,,,,,,,,,,,,,,,,,,,,,,,,,,,
,,,,,V3_066,22,Female,2024-11-15_15h53.41.518,jersey_experiment_5_v3,2023.2.2,Win32,84.74576271,,,,,,,,,,,,,,,,189.7953,191.348,191.3481,193.7834,return,0.8485,,58.46354167,0,40,40,23,1,FBP-PT-18.png,0.43,1.2,24,0.75,,,,,,,,,,,,,,,,,,,,,,,,,,,,,,,,,,,,,,,,,,,,,
,,,,,V3_066,22,Female,2024-11-15_15h53.41.518,jersey_experiment_5_v3,2023.2.2,Win32,84.74576271,,,,,,,,,,,,,,,,193.7836,195.0776,195.0777,196.9835,return,0.6512,,82.16145833,0,41,41,39,1,FBP-OG-18.png,0.45,1.2,40,0.5,,,,,,,,,,,,,,,,,,,,,,,,,,,,,,,,,,,,,,,,,,,,,
,,,,,V3_066,22,Female,2024-11-15_15h53.41.518,jersey_experiment_5_v3,2023.2.2,Win32,84.74576271,,,,,,,,,,,,,,,,196.9839,198.5367,198.5367,200.713,return,0.7319,,37.5,0,42,42,11,1,FBP-YG-91.png,0.37,1.2,12,0.75,,,,,,,,,,,,,,,,,,,,,,,,,,,,,,,,,,,,,,,,,,,,,
,,,,,V3_066,22,Female,2024-11-15_15h53.41.518,jersey_experiment_5_v3,2023.2.2,Win32,84.74576271,,,,,,,,,,,,,,,,200.7133,202.0072,202.0072,204.1838,return,0.5907,,77.34375,0,43,43,43,1,FBP-OG-19.png,0.43,1.2,44,0.5,,,,,,,,,,,,,,,,,,,,,,,,,,,,,,,,,,,,,,,,,,,,,
,,,,,V3_066,22,Female,2024-11-15_15h53.41.518,jersey_experiment_5_v3,2023.2.2,Win32,84.74576271,,,,,,,,,,,,,,,,204.184,205.4782,205.4782,207.7368,return,0.5792,,11.45833333,0,44,44,30,1,FBP-OG-17.png,0.35,1.2,31,0.5,,,,,,,,,,,,,,,,,,,,,,,,,,,,,,,,,,,,,,,,,,,,,
,,,,,V3_066,22,Female,2024-11-15_15h53.41.518,jersey_experiment_5_v3,2023.2.2,Win32,84.74576271,,,,,,,,,,,,,,,,207.7371,209.2898,209.2898,211.3958,return,0.6901,,93.75,0,45,45,29,1,FBP-PT-19.png,0.45,1.2,30,0.75,,,,,,,,,,,,,,,,,,,,,,,,,,,,,,,,,,,,,,,,,,,,,
,,,,,V3_066,22,Female,2024-11-15_15h53.41.518,jersey_experiment_5_v3,2023.2.2,Win32,84.74576271,,,,,,,,,,,,,,,,211.396,212.9488,212.9489,215.196,return,0.7664,,5.46875,0,46,46,55,1,FBP-RB-19.png,0.35,1.2,56,0.75,,,,,,,,,,,,,,,,,,,,,,,,,,,,,,,,,,,,,,,,,,,,,
,,,,,V3_066,22,Female,2024-11-15_15h53.41.518,jersey_experiment_5_v3,2023.2.2,Win32,84.74576271,,,,,,,,,,,,,,,,215.1962,216.7492,216.7492,219.5961,return,0.8367,,0.130208333,0,47,47,10,1,FBP-YG-91.png,0.35,1.2,11,0.75,,,,,,,,,,,,,,,,,,,,,,,,,,,,,,,,,,,,,,,,,,,,,
,,,,,V3_066,22,Female,2024-11-15_15h53.41.518,jersey_experiment_5_v3,2023.2.2,Win32,84.74576271,,,,,,,,,,,,,,,,219.5964,221.1492,221.1492,224.808,return,1.0235,,50.91145833,0,48,48,22,1,FBP-PT-18.png,0.4,1.2,23,0.75,,,,,,,,,,,,,,,,,,,,,,,,,,,,,,,,,,,,,,,,,,,,,
,,,,,V3_066,22,Female,2024-11-15_15h53.41.518,jersey_experiment_5_v3,2023.2.2,Win32,84.74576271,,,,,,,,,,,,,,,,224.8083,226.361,226.361,228.6788,return,0.7459,,62.63020833,0,49,49,3,1,FBP-YG-71.png,0.43,1.2,4,0.75,,,,,,,,,,,,,,,,,,,,,,,,,,,,,,,,,,,,,,,,,,,,,
,,,,,V3_066,22,Female,2024-11-15_15h53.41.518,jersey_experiment_5_v3,2023.2.2,Win32,84.74576271,,,,,,,,,,,,,,,,228.679,230.2318,230.2318,232.1024,return,0.8762,,75.65104167,0,50,50,13,1,FBP-YG-91.png,0.43,1.2,14,0.75,,,,,,,,,,,,,,,,,,,,,,,,,,,,,,,,,,,,,,,,,,,,,
,,,,,V3_066,22,Female,2024-11-15_15h53.41.518,jersey_experiment_5_v3,2023.2.2,Win32,84.74576271,,,,,,,,,,,,,,,,232.1027,233.3967,233.3968,235.2437,return,0.9651,,83.46354167,0,51,51,34,1,FBP-OG-17.png,0.45,1.2,35,0.5,,,,,,,,,,,,,,,,,,,,,,,,,,,,,,,,,,,,,,,,,,,,,
,,,,,V3_066,22,Female,2024-11-15_15h53.41.518,jersey_experiment_5_v3,2023.2.2,Win32,84.74576271,,,,,,,,,,,,,,,,235.244,236.797,236.797,238.585,return,0.6023,,18.09895833,0,52,52,25,1,FBP-PT-19.png,0.35,1.2,26,0.75,,,,,,,,,,,,,,,,,,,,,,,,,,,,,,,,,,,,,,,,,,,,,
,,,,,V3_066,22,Female,2024-11-15_15h53.41.518,jersey_experiment_5_v3,2023.2.2,Win32,84.74576271,,,,,,,,,,,,,,,,238.5853,240.1382,240.1383,241.9498,return,0.9534,,1.171875,0,53,53,5,1,FBP-YG-81.png,0.35,1.2,6,0.75,,,,,,,,,,,,,,,,,,,,,,,,,,,,,,,,,,,,,,,,,,,,,
,,,,,V3_066,22,Female,2024-11-15_15h53.41.518,jersey_experiment_5_v3,2023.2.2,Win32,84.74576271,,,,,,,,,,,,,,,,241.9501,243.5028,243.5028,245.6911,return,0.7546,,0.651041667,0,54,54,20,1,FBP-PT-18.png,0.35,1.2,21,0.75,,,,,,,,,,,,,,,,,,,,,,,,,,,,,,,,,,,,,,,,,,,,,
,,,,,V3_066,22,Female,2024-11-15_15h53.41.518,jersey_experiment_5_v3,2023.2.2,Win32,84.74576271,,,,,,,,,,,,,,,,245.6914,247.244,247.244,249.3147,return,1.2441,,7.682291667,0,55,55,46,1,FBP-RB-17.png,0.37,1.2,47,0.75,,,,,,,,,,,,,,,,,,,,,,,,,,,,,,,,,,,,,,,,,,,,,
,,,,,V3_066,22,Female,2024-11-15_15h53.41.518,jersey_experiment_5_v3,2023.2.2,Win32,84.74576271,,,,,,,,,,,,,,,,249.315,250.6089,250.6089,252.6325,return,0.6748,,67.44791667,0,56,56,42,1,FBP-OG-19.png,0.4,1.2,43,0.5,,,,,,,,,,,,,,,,,,,,,,,,,,,,,,,,,,,,,,,,,,,,,
,,,,,V3_066,22,Female,2024-11-15_15h53.41.518,jersey_experiment_5_v3,2023.2.2,Win32,84.74576271,,,,,,,,,,,,,,,,252.6328,254.1857,254.1858,255.7856,return,0.7064,,85.80729167,0,57,57,58,1,FBP-RB-19.png,0.43,1.2,59,0.75,,,,,,,,,,,,,,,,,,,,,,,,,,,,,,,,,,,,,,,,,,,,,
,,,,,V3_066,22,Female,2024-11-15_15h53.41.518,jersey_experiment_5_v3,2023.2.2,Win32,84.74576271,,,,,,,,,,,,,,,,255.786,257.3387,257.3387,259.4446,return,0.6188,,41.14583333,0,58,58,51,1,FBP-RB-18.png,0.37,1.2,52,0.75,,,,,,,,,,,,,,,,,,,,,,,,,,,,,,,,,,,,,,,,,,,,,
,,,,,V3_066,22,Female,2024-11-15_15h53.41.518,jersey_experiment_5_v3,2023.2.2,Win32,84.74576271,,,,,,,,,,,,,,,,259.4451,260.9975,260.9976,262.9388,return,0.6333,,20.18229167,0,59,59,45,1,FBP-RB-17.png,0.35,1.2,46,0.75,,,,,,,,,,,,,,,,,,,,,,,,,,,,,,,,,,,,,,,,,,,,,
,,,,,V3_066,22,Female,2024-11-15_15h53.41.518,jersey_experiment_5_v3,2023.2.2,Win32,84.74576271,,,,,,,,,,,,,,,,262.9404,264.4921,264.4921,265.9979,return,0.6729,,85.546875,,,,,,FBP-PT-81.png,0.45,1.2,25,0.75,0,0,0,24,1,,,,,,,,,,,,,,,,,,,,,,,,,,,,,,,,,,,,,,,,
,,,,,V3_066,22,Female,2024-11-15_15h53.41.518,jersey_experiment_5_v3,2023.2.2,Win32,84.74576271,,,,,,,,,,,,,,,,265.9982,267.5508,267.5508,269.3391,return,0.6578,,8.072916667,,,,,,FBP-PT-71.png,0.35,1.2,16,0.75,0,1,1,15,1,,,,,,,,,,,,,,,,,,,,,,,,,,,,,,,,,,,,,,,,
,,,,,V3_066,22,Female,2024-11-15_15h53.41.518,jersey_experiment_5_v3,2023.2.2,Win32,84.74576271,,,,,,,,,,,,,,,,269.3393,270.8922,270.8922,273.1627,return,0.8112,,92.44791667,,,,,,FBP-PT-91.png,0.45,1.2,30,0.75,0,2,2,29,1,,,,,,,,,,,,,,,,,,,,,,,,,,,,,,,,,,,,,,,,
,,,,,V3_066,22,Female,2024-11-15_15h53.41.518,jersey_experiment_5_v3,2023.2.2,Win32,84.74576271,,,,,,,,,,,,,,,,273.163,274.7157,274.7158,276.9512,return,0.6033,,75.26041667,,,,,,FBP-YG-18.png,0.4,1.2,8,0.75,0,3,3,7,1,,,,,,,,,,,,,,,,,,,,,,,,,,,,,,,,,,,,,,,,
,,,,,V3_066,22,Female,2024-11-15_15h53.41.518,jersey_experiment_5_v3,2023.2.2,Win32,84.74576271,,,,,,,,,,,,,,,,276.9515,278.5041,278.5042,279.9395,return,0.7481,,75,,,,,,FBP-YG-17.png,0.4,1.2,3,0.75,0,4,4,2,1,,,,,,,,,,,,,,,,,,,,,,,,,,,,,,,,,,,,,,,,
,,,,,V3_066,22,Female,2024-11-15_15h53.41.518,jersey_experiment_5_v3,2023.2.2,Win32,84.74576271,,,,,,,,,,,,,,,,279.9398,281.4924,281.4925,283.0337,return,0.5416,,70.18229167,,,,,,FBP-RB-71.png,0.4,1.2,48,0.75,0,5,5,47,1,,,,,,,,,,,,,,,,,,,,,,,,,,,,,,,,,,,,,,,,
,,,,,V3_066,22,Female,2024-11-15_15h53.41.518,jersey_experiment_5_v3,2023.2.2,Win32,84.74576271,,,,,,,,,,,,,,,,283.034,284.5867,284.5868,286.2457,return,0.7591,,39.32291667,,,,,,FBP-YG-17.png,0.35,1.2,1,0.75,0,6,6,0,1,,,,,,,,,,,,,,,,,,,,,,,,,,,,,,,,,,,,,,,,
,,,,,V3_066,22,Female,2024-11-15_15h53.41.518,jersey_experiment_5_v3,2023.2.2,Win32,84.74576271,,,,,,,,,,,,,,,,286.2459,287.7987,287.7987,289.0811,return,0.6025,,26.30208333,,,,,,FBP-RB-91.png,0.35,1.2,56,0.75,0,7,7,55,1,,,,,,,,,,,,,,,,,,,,,,,,,,,,,,,,,,,,,,,,
,,,,,V3_066,22,Female,2024-11-15_15h53.41.518,jersey_experiment_5_v3,2023.2.2,Win32,84.74576271,,,,,,,,,,,,,,,,289.0813,290.634,290.6341,295.2459,return,0.768,,55.859375,,,,,,FBP-YG-19.png,0.43,1.2,14,0.75,0,8,8,13,1,,,,,,,,,,,,,,,,,,,,,,,,,,,,,,,,,,,,,,,,
,,,,,V3_066,22,Female,2024-11-15_15h53.41.518,jersey_experiment_5_v3,2023.2.2,Win32,84.74576271,,,,,,,,,,,,,,,,295.2461,296.7988,296.7989,298.6696,return,0.7144,,32.16145833,,,,,,FBP-PT-81.png,0.37,1.2,22,0.75,0,9,9,21,1,,,,,,,,,,,,,,,,,,,,,,,,,,,,,,,,,,,,,,,,
,,,,,V3_066,22,Female,2024-11-15_15h53.41.518,jersey_experiment_5_v3,2023.2.2,Win32,84.74576271,,,,,,,,,,,,,,,,298.6699,300.2227,300.2227,302.152,return,0.8271,,89.58333333,,,,,,FBP-YG-18.png,0.45,1.2,10,0.75,0,10,10,9,1,,,,,,,,,,,,,,,,,,,,,,,,,,,,,,,,,,,,,,,,
,,,,,V3_066,22,Female,2024-11-15_15h53.41.518,jersey_experiment_5_v3,2023.2.2,Win32,84.74576271,,,,,,,,,,,,,,,,302.1522,303.7053,303.7053,304.9169,return,0.5934,,99.86979167,,,,,,FBP-RB-91.png,0.45,1.2,60,0.75,0,11,11,59,1,,,,,,,,,,,,,,,,,,,,,,,,,,,,,,,,,,,,,,,,
,,,,,V3_066,22,Female,2024-11-15_15h53.41.518,jersey_experiment_5_v3,2023.2.2,Win32,84.74576271,,,,,,,,,,,,,,,,304.9171,306.4698,306.4698,307.7992,return,0.6744,,95.96354167,,,,,,FBP-YG-17.png,0.45,1.2,5,0.75,0,12,12,4,1,,,,,,,,,,,,,,,,,,,,,,,,,,,,,,,,,,,,,,,,
,,,,,V3_066,22,Female,2024-11-15_15h53.41.518,jersey_experiment_5_v3,2023.2.2,Win32,84.74576271,,,,,,,,,,,,,,,,307.7995,309.3523,309.3523,310.9994,return,0.6717,,89.84375,,,,,,FBP-RB-71.png,0.45,1.2,50,0.75,0,13,13,49,1,,,,,,,,,,,,,,,,,,,,,,,,,,,,,,,,,,,,,,,,
,,,,,V3_066,22,Female,2024-11-15_15h53.41.518,jersey_experiment_5_v3,2023.2.2,Win32,84.74576271,,,,,,,,,,,,,,,,310.9997,312.5523,312.5524,316.2468,return,0.6743,,39.71354167,,,,,,FBP-PT-71.png,0.37,1.2,17,0.75,0,14,14,16,1,,,,,,,,,,,,,,,,,,,,,,,,,,,,,,,,,,,,,,,,
,,,,,V3_066,22,Female,2024-11-15_15h53.41.518,jersey_experiment_5_v3,2023.2.2,Win32,84.74576271,,,,,,,,,,,,,,,,316.2471,317.7997,317.7998,319.3056,return,0.6609,,21.09375,,,,,,FBP-RB-91.png,0.37,1.2,57,0.75,0,15,15,56,1,,,,,,,,,,,,,,,,,,,,,,,,,,,,,,,,,,,,,,,,
,,,,,V3_066,22,Female,2024-11-15_15h53.41.518,jersey_experiment_5_v3,2023.2.2,Win32,84.74576271,,,,,,,,,,,,,,,,319.306,320.8585,320.8586,322.8938,return,0.6485,,61.06770833,,,,,,FBP-PT-71.png,0.4,1.2,18,0.75,0,16,16,17,1,,,,,,,,,,,,,,,,,,,,,,,,,,,,,,,,,,,,,,,,
,,,,,V3_066,22,Female,2024-11-15_15h53.41.518,jersey_experiment_5_v3,2023.2.2,Win32,84.74576271,,,,,,,,,,,,,,,,322.8941,324.4471,324.4472,326.094,return,0.8026,,84.89583333,,,,,,FBP-PT-91.png,0.43,1.2,29,0.75,0,17,17,28,1,,,,,,,,,,,,,,,,,,,,,,,,,,,,,,,,,,,,,,,,
,,,,,V3_066,22,Female,2024-11-15_15h53.41.518,jersey_experiment_5_v3,2023.2.2,Win32,84.74576271,,,,,,,,,,,,,,,,326.0943,327.6471,327.6471,332.2943,return,0.7681,,33.46354167,,,,,,FBP-YG-19.png,0.35,1.2,11,0.75,0,18,18,10,1,,,,,,,,,,,,,,,,,,,,,,,,,,,,,,,,,,,,,,,,
,,,,,V3_066,22,Female,2024-11-15_15h53.41.518,jersey_experiment_5_v3,2023.2.2,Win32,84.74576271,,,,,,,,,,,,,,,,332.2946,333.5884,333.5885,335.9886,return,0.5821,,24.21875,,,,,,FBP-OG-91.png,0.37,1.2,42,0.5,0,19,19,41,1,,,,,,,,,,,,,,,,,,,,,,,,,,,,,,,,,,,,,,,,
,,,,,V3_066,22,Female,2024-11-15_15h53.41.518,jersey_experiment_5_v3,2023.2.2,Win32,84.74576271,,,,,,,,,,,,,,,,335.9889,337.5417,337.5418,339.1416,return,0.6412,,77.34375,,,,,,FBP-YG-18.png,0.43,1.2,9,0.75,0,20,20,8,1,,,,,,,,,,,,,,,,,,,,,,,,,,,,,,,,,,,,,,,,
,,,,,V3_066,22,Female,2024-11-15_15h53.41.518,jersey_experiment_5_v3,2023.2.2,Win32,84.74576271,,,,,,,,,,,,,,,,339.142,340.6946,340.6947,341.8946,return,0.5564,,85.02604167,,,,,,FBP-RB-91.png,0.43,1.2,59,0.75,0,21,21,58,1,,,,,,,,,,,,,,,,,,,,,,,,,,,,,,,,,,,,,,,,
,,,,,V3_066,22,Female,2024-11-15_15h53.41.518,jersey_experiment_5_v3,2023.2.2,Win32,84.74576271,,,,,,,,,,,,,,,,341.8949,343.4477,343.4478,344.9887,return,0.5571,,17.578125,,,,,,FBP-PT-81.png,0.35,1.2,21,0.75,0,22,22,20,1,,,,,,,,,,,,,,,,,,,,,,,,,,,,,,,,,,,,,,,,
,,,,,V3_066,22,Female,2024-11-15_15h53.41.518,jersey_experiment_5_v3,2023.2.2,Win32,84.74576271,,,,,,,,,,,,,,,,344.989,346.5419,346.542,348.7066,return,0.6797,,35.80729167,,,,,,FBP-PT-91.png,0.37,1.2,27,0.75,0,23,23,26,1,,,,,,,,,,,,,,,,,,,,,,,,,,,,,,,,,,,,,,,,
,,,,,V3_066,22,Female,2024-11-15_15h53.41.518,jersey_experiment_5_v3,2023.2.2,Win32,84.74576271,,,,,,,,,,,,,,,,348.7068,350.0007,350.0008,351.8481,return,0.6005,,5.989583333,,,,,,FBP-OG-71.png,0.35,1.2,31,0.5,0,24,24,30,1,,,,,,,,,,,,,,,,,,,,,,,,,,,,,,,,,,,,,,,,
,,,,,V3_066,22,Female,2024-11-15_15h53.41.518,jersey_experiment_5_v3,2023.2.2,Win32,84.74576271,,,,,,,,,,,,,,,,351.8484,353.4009,353.401,354.6127,return,0.6149,,8.463541667,,,,,,FBP-RB-81.png,0.35,1.2,51,0.75,0,25,25,50,1,,,,,,,,,,,,,,,,,,,,,,,,,,,,,,,,,,,,,,,,
,,,,,V3_066,22,Female,2024-11-15_15h53.41.518,jersey_experiment_5_v3,2023.2.2,Win32,84.74576271,,,,,,,,,,,,,,,,354.613,355.9069,355.9069,358.7069,return,0.9225,,78.25520833,,,,,,FBP-OG-91.png,0.4,1.2,43,0.5,0,26,26,42,1,,,,,,,,,,,,,,,,,,,,,,,,,,,,,,,,,,,,,,,,
,,,,,V3_066,22,Female,2024-11-15_15h53.41.518,jersey_experiment_5_v3,2023.2.2,Win32,84.74576271,,,,,,,,,,,,,,,,358.7073,360.0012,360.0013,361.8953,return,0.5687,,96.875,,,,,,FBP-OG-91.png,0.43,1.2,44,0.5,0,27,27,43,1,,,,,,,,,,,,,,,,,,,,,,,,,,,,,,,,,,,,,,,,
,,,,,V3_066,22,Female,2024-11-15_15h53.41.518,jersey_experiment_5_v3,2023.2.2,Win32,84.74576271,,,,,,,,,,,,,,,,361.8955,363.4483,363.4484,367.1427,return,0.5799,,46.61458333,,,,,,FBP-YG-18.png,0.37,1.2,7,0.75,0,28,28,6,1,,,,,,,,,,,,,,,,,,,,,,,,,,,,,,,,,,,,,,,,
,,,,,V3_066,22,Female,2024-11-15_15h53.41.518,jersey_experiment_5_v3,2023.2.2,Win32,84.74576271,,,,,,,,,,,,,,,,367.1429,368.6956,368.6956,370.2369,return,0.5894,,50.13020833,,,,,,FBP-RB-71.png,0.37,1.2,47,0.75,0,29,29,46,1,,,,,,,,,,,,,,,,,,,,,,,,,,,,,,,,,,,,,,,,
,,,,,V3_066,22,Female,2024-11-15_15h53.41.518,jersey_experiment_5_v3,2023.2.2,Win32,84.74576271,,,,,,,,,,,,,,,,370.2371,371.7898,371.7899,373.5076,return,0.7125,,93.48958333,,,,,,FBP-YG-19.png,0.45,1.2,15,0.75,0,30,30,14,1,,,,,,,,,,,,,,,,,,,,,,,,,,,,,,,,,,,,,,,,
,,,,,V3_066,22,Female,2024-11-15_15h53.41.518,jersey_experiment_5_v3,2023.2.2,Win32,84.74576271,,,,,,,,,,,,,,,,373.5079,375.0607,375.0607,377.0137,return,0.6768,,73.56770833,,,,,,FBP-RB-91.png,0.4,1.2,58,0.75,0,31,31,57,1,,,,,,,,,,,,,,,,,,,,,,,,,,,,,,,,,,,,,,,,
,,,,,V3_066,22,Female,2024-11-15_15h53.41.518,jersey_experiment_5_v3,2023.2.2,Win32,84.74576271,,,,,,,,,,,,,,,,377.0139,378.3077,378.3078,380.3313,return,1.0821,,57.16145833,,,,,,FBP-OG-81.png,0.37,1.2,37,0.5,0,32,32,36,1,,,,,,,,,,,,,,,,,,,,,,,,,,,,,,,,,,,,,,,,
,,,,,V3_066,22,Female,2024-11-15_15h53.41.518,jersey_experiment_5_v3,2023.2.2,Win32,84.74576271,,,,,,,,,,,,,,,,380.3316,381.6255,381.6256,385.2727,return,0.791,,99.86979167,,,,,,FBP-OG-91.png,0.45,1.2,45,0.5,0,33,33,44,1,,,,,,,,,,,,,,,,,,,,,,,,,,,,,,,,,,,,,,,,
,,,,,V3_066,22,Female,2024-11-15_15h53.41.518,jersey_experiment_5_v3,2023.2.2,Win32,84.74576271,,,,,,,,,,,,,,,,385.2729,386.5669,386.5669,388.0138,return,0.5651,,92.44791667,,,,,,FBP-OG-71.png,0.43,1.2,34,0.5,0,34,34,33,1,,,,,,,,,,,,,,,,,,,,,,,,,,,,,,,,,,,,,,,,
,,,,,V3_066,22,Female,2024-11-15_15h53.41.518,jersey_experiment_5_v3,2023.2.2,Win32,84.74576271,,,,,,,,,,,,,,,,388.0142,389.3081,389.3082,391.6729,return,0.5552,,44.53125,,,,,,FBP-OG-91.png,0.35,1.2,41,0.5,0,35,35,40,1,,,,,,,,,,,,,,,,,,,,,,,,,,,,,,,,,,,,,,,,
,,,,,V3_066,22,Female,2024-11-15_15h53.41.518,jersey_experiment_5_v3,2023.2.2,Win32,84.74576271,,,,,,,,,,,,,,,,391.6731,393.2143,393.2144,394.5319,return,0.5723,,70.57291667,,,,,,FBP-RB-81.png,0.43,1.2,54,0.75,0,36,36,53,1,,,,,,,,,,,,,,,,,,,,,,,,,,,,,,,,,,,,,,,,
,,,,,V3_066,22,Female,2024-11-15_15h53.41.518,jersey_experiment_5_v3,2023.2.2,Win32,84.74576271,,,,,,,,,,,,,,,,394.532,396.0851,396.0851,397.6732,return,0.6023,,22.91666667,,,,,,FBP-YG-18.png,0.35,1.2,6,0.75,0,37,37,5,1,,,,,,,,,,,,,,,,,,,,,,,,,,,,,,,,,,,,,,,,
,,,,,V3_066,22,Female,2024-11-15_15h53.41.518,jersey_experiment_5_v3,2023.2.2,Win32,84.74576271,,,,,,,,,,,,,,,,397.6735,398.9674,398.9674,401.5321,return,1.1193,,80.72916667,,,,,,FBP-OG-81.png,0.43,1.2,39,0.5,0,38,38,38,1,,,,,,,,,,,,,,,,,,,,,,,,,,,,,,,,,,,,,,,,
,,,,,V3_066,22,Female,2024-11-15_15h53.41.518,jersey_experiment_5_v3,2023.2.2,Win32,84.74576271,,,,,,,,,,,,,,,,401.5324,403.0851,403.0852,404.3793,return,0.6103,,84.24479167,,,,,,FBP-YG-17.png,0.43,1.2,4,0.75,0,39,39,3,1,,,,,,,,,,,,,,,,,,,,,,,,,,,,,,,,,,,,,,,,
,,,,,V3_066,22,Female,2024-11-15_15h53.41.518,jersey_experiment_5_v3,2023.2.2,Win32,84.74576271,,,,,,,,,,,,,,,,404.3796,405.9323,405.9323,408.8738,return,0.7437,,43.75,,,,,,FBP-PT-91.png,0.35,1.2,26,0.75,0,40,40,25,1,,,,,,,,,,,,,,,,,,,,,,,,,,,,,,,,,,,,,,,,
,,,,,V3_066,22,Female,2024-11-15_15h53.41.518,jersey_experiment_5_v3,2023.2.2,Win32,84.74576271,,,,,,,,,,,,,,,,408.8741,410.4266,410.4266,412.9208,return,0.6734,,45.44270833,,,,,,FBP-RB-81.png,0.37,1.2,52,0.75,0,41,41,51,1,,,,,,,,,,,,,,,,,,,,,,,,,,,,,,,,,,,,,,,,
,,,,,V3_066,22,Female,2024-11-15_15h53.41.518,jersey_experiment_5_v3,2023.2.2,Win32,84.74576271,,,,,,,,,,,,,,,,412.9212,414.4742,414.4742,416.6503,return,0.8482,,73.4375,,,,,,FBP-PT-71.png,0.43,1.2,19,0.75,0,42,42,18,1,,,,,,,,,,,,,,,,,,,,,,,,,,,,,,,,,,,,,,,,
,,,,,V3_066,22,Female,2024-11-15_15h53.41.518,jersey_experiment_5_v3,2023.2.2,Win32,84.74576271,,,,,,,,,,,,,,,,416.6506,417.9444,417.9445,419.8974,return,0.5537,,95.05208333,,,,,,FBP-OG-81.png,0.45,1.2,40,0.5,0,43,43,39,1,,,,,,,,,,,,,,,,,,,,,,,,,,,,,,,,,,,,,,,,
,,,,,V3_066,22,Female,2024-11-15_15h53.41.518,jersey_experiment_5_v3,2023.2.2,Win32,84.74576271,,,,,,,,,,,,,,,,419.8977,421.4505,421.4505,422.98,return,0.714,,73.046875,,,,,,FBP-YG-19.png,0.4,1.2,13,0.75,0,44,44,12,1,,,,,,,,,,,,,,,,,,,,,,,,,,,,,,,,,,,,,,,,
,,,,,V3_066,22,Female,2024-11-15_15h53.41.518,jersey_experiment_5_v3,2023.2.2,Win32,84.74576271,,,,,,,,,,,,,,,,422.9803,424.5331,424.5332,426.333,return,0.7663,,43.88020833,,,,,,FBP-RB-71.png,0.35,1.2,46,0.75,0,45,45,45,1,,,,,,,,,,,,,,,,,,,,,,,,,,,,,,,,,,,,,,,,
,,,,,V3_066,22,Female,2024-11-15_15h53.41.518,jersey_experiment_5_v3,2023.2.2,Win32,84.74576271,,,,,,,,,,,,,,,,426.3333,427.8861,427.8861,429.3097,return,0.5887,,78.77604167,,,,,,FBP-RB-71.png,0.43,1.2,49,0.75,0,46,46,48,1,,,,,,,,,,,,,,,,,,,,,,,,,,,,,,,,,,,,,,,,
,,,,,V3_066,22,Female,2024-11-15_15h53.41.518,jersey_experiment_5_v3,2023.2.2,Win32,84.74576271,,,,,,,,,,,,,,,,429.3102,430.6036,430.6037,432.6978,return,0.6009,,64.84375,,,,,,FBP-OG-71.png,0.4,1.2,33,0.5,0,47,47,32,1,,,,,,,,,,,,,,,,,,,,,,,,,,,,,,,,,,,,,,,,
,,,,,V3_066,22,Female,2024-11-15_15h53.41.518,jersey_experiment_5_v3,2023.2.2,Win32,84.74576271,,,,,,,,,,,,,,,,432.698,433.9921,433.9921,435.5569,return,0.583,,40.88541667,,,,,,FBP-OG-71.png,0.37,1.2,32,0.5,0,48,48,31,1,,,,,,,,,,,,,,,,,,,,,,,,,,,,,,,,,,,,,,,,
,,,,,V3_066,22,Female,2024-11-15_15h53.41.518,jersey_experiment_5_v3,2023.2.2,Win32,84.74576271,,,,,,,,,,,,,,,,435.5572,437.1101,437.1101,439.4158,return,0.6616,,61.84895833,,,,,,FBP-RB-81.png,0.4,1.2,53,0.75,0,49,49,52,1,,,,,,,,,,,,,,,,,,,,,,,,,,,,,,,,,,,,,,,,
,,,,,V3_066,22,Female,2024-11-15_15h53.41.518,jersey_experiment_5_v3,2023.2.2,Win32,84.74576271,,,,,,,,,,,,,,,,439.4161,440.9688,440.969,444.3455,return,0.577,,45.05208333,,,,,,FBP-YG-19.png,0.37,1.2,12,0.75,0,50,50,11,1,,,,,,,,,,,,,,,,,,,,,,,,,,,,,,,,,,,,,,,,
,,,,,V3_066,22,Female,2024-11-15_15h53.41.518,jersey_experiment_5_v3,2023.2.2,Win32,84.74576271,,,,,,,,,,,,,,,,444.3458,445.6396,445.6396,447.4985,return,0.621,,97.00520833,,,,,,FBP-OG-71.png,0.45,1.2,35,0.5,0,51,51,34,1,,,,,,,,,,,,,,,,,,,,,,,,,,,,,,,,,,,,,,,,
,,,,,V3_066,22,Female,2024-11-15_15h53.41.518,jersey_experiment_5_v3,2023.2.2,Win32,84.74576271,,,,,,,,,,,,,,,,447.4989,449.0517,449.0517,451.4634,return,1.7808,,99.21875,,,,,,FBP-PT-71.png,0.45,1.2,20,0.75,0,52,52,19,1,,,,,,,,,,,,,,,,,,,,,,,,,,,,,,,,,,,,,,,,
,,,,,V3_066,22,Female,2024-11-15_15h53.41.518,jersey_experiment_5_v3,2023.2.2,Win32,84.74576271,,,,,,,,,,,,,,,,451.4637,453.0165,453.0165,455.0635,return,0.7921,,55.33854167,,,,,,FBP-PT-91.png,0.4,1.2,28,0.75,0,53,53,27,1,,,,,,,,,,,,,,,,,,,,,,,,,,,,,,,,,,,,,,,,
,,,,,V3_066,22,Female,2024-11-15_15h53.41.518,jersey_experiment_5_v3,2023.2.2,Win32,84.74576271,,,,,,,,,,,,,,,,455.0637,456.3576,456.3577,458.0402,return,0.874,,65.88541667,,,,,,FBP-OG-81.png,0.4,1.2,38,0.5,0,54,54,37,1,,,,,,,,,,,,,,,,,,,,,,,,,,,,,,,,,,,,,,,,
,,,,,V3_066,22,Female,2024-11-15_15h53.41.518,jersey_experiment_5_v3,2023.2.2,Win32,84.74576271,,,,,,,,,,,,,,,,458.0404,459.5933,459.5933,460.8518,return,0.5948,,62.23958333,,,,,,FBP-PT-81.png,0.4,1.2,23,0.75,0,55,55,22,1,,,,,,,,,,,,,,,,,,,,,,,,,,,,,,,,,,,,,,,,
,,,,,V3_066,22,Female,2024-11-15_15h53.41.518,jersey_experiment_5_v3,2023.2.2,Win32,84.74576271,,,,,,,,,,,,,,,,460.8521,462.4049,462.405,464.3226,return,1.1382,,43.359375,,,,,,FBP-YG-17.png,0.37,1.2,2,0.75,0,56,56,1,1,,,,,,,,,,,,,,,,,,,,,,,,,,,,,,,,,,,,,,,,
,,,,,V3_066,22,Female,2024-11-15_15h53.41.518,jersey_experiment_5_v3,2023.2.2,Win32,84.74576271,,,,,,,,,,,,,,,,464.3228,465.6168,465.6168,467.2051,return,0.5683,,22.13541667,,,,,,FBP-OG-81.png,0.35,1.2,36,0.5,0,57,57,35,1,,,,,,,,,,,,,,,,,,,,,,,,,,,,,,,,,,,,,,,,
,,,,,V3_066,22,Female,2024-11-15_15h53.41.518,jersey_experiment_5_v3,2023.2.2,Win32,84.74576271,,,,,,,,,,,,,,,,467.2053,468.7464,468.7465,472.57,return,2.1546,,86.71875,,,,,,FBP-PT-81.png,0.43,1.2,24,0.75,0,58,58,23,1,,,,,,,,,,,,,,,,,,,,,,,,,,,,,,,,,,,,,,,,
,,,,,V3_066,22,Female,2024-11-15_15h53.41.518,jersey_experiment_5_v3,2023.2.2,Win32,84.74576271,,,,,,,,,,,,,,,,472.5703,474.1231,474.1231,476.676,return,0.7246,,99.609375,,,,,,FBP-RB-81.png,0.45,1.2,55,0.75,0,59,59,54,1,,,,,,,,,,,,,,,,,,,,,,,,,,,,,,,,,,,,,,,,
,,,,,V3_066,22,Female,2024-11-15_15h53.41.518,jersey_experiment_5_v3,2023.2.2,Win32,84.74576271,,,,,,,,,,,,,,,,,,,,,,,,,,,,,,,,,,,,,,,476.6763,596.6689,,,,,,,,,,,,,,,,,,,,,,,,,,,,,,,,,,,,,,
,,,,,V3_066,22,Female,2024-11-15_15h53.41.518,jersey_experiment_5_v3,2023.2.2,Win32,84.74576271,,,,,,,,,,,,,,,,,,,,,,,,,,,,,,,,,,,,,,,,,596.669,600.0101,return,3.3296,,,,,,,,,,,,,,,,,,,,,,,,,,,,,,,,,,
,,,,,V3_066,22,Female,2024-11-15_15h53.41.518,jersey_experiment_5_v3,2023.2.2,Win32,84.74576271,,,,,,,,,,,,,,,,600.0122,601.3042,601.3042,604.1984,return,0.6991,,22.78645833,,,,,,FBP-YG-81.png,0.35,1.2,6,0.5,,,,,,,,,,,,,0,0,0,5,1,,,,,,,,,,,,,,,,,,,,,,,,,,,,
,,,,,V3_066,22,Female,2024-11-15_15h53.41.518,jersey_experiment_5_v3,2023.2.2,Win32,84.74576271,,,,,,,,,,,,,,,,604.1988,605.4925,605.4925,607.7514,return,0.6981,,54.42708333,,,,,,FBP-PT-19.png,0.4,1.2,28,0.5,,,,,,,,,,,,,0,1,1,27,1,,,,,,,,,,,,,,,,,,,,,,,,,,,,
,,,,,V3_066,22,Female,2024-11-15_15h53.41.518,jersey_experiment_5_v3,2023.2.2,Win32,84.74576271,,,,,,,,,,,,,,,,607.7517,609.3044,609.3045,611.3632,return,0.7846,,27.21354167,,,,,,FBP-OG-19.png,0.35,1.2,41,0.75,,,,,,,,,,,,,0,2,2,40,1,,,,,,,,,,,,,,,,,,,,,,,,,,,,
,,,,,V3_066,22,Female,2024-11-15_15h53.41.518,jersey_experiment_5_v3,2023.2.2,Win32,84.74576271,,,,,,,,,,,,,,,,611.3636,612.9164,612.9165,615.1751,return,1.4012,,62.63020833,,,,,,FBP-OG-19.png,0.4,1.2,43,0.75,,,,,,,,,,,,,0,3,3,42,1,,,,,,,,,,,,,,,,,,,,,,,,,,,,
,,,,,V3_066,22,Female,2024-11-15_15h53.41.518,jersey_experiment_5_v3,2023.2.2,Win32,84.74576271,,,,,,,,,,,,,,,,615.1754,616.7282,616.7282,620.4931,return,3.012,,61.84895833,,,,,,FBP-OG-17.png,0.4,1.2,33,0.75,,,,,,,,,,,,,0,4,4,32,1,,,,,,,,,,,,,,,,,,,,,,,,,,,,
,,,,,V3_066,22,Female,2024-11-15_15h53.41.518,jersey_experiment_5_v3,2023.2.2,Win32,84.74576271,,,,,,,,,,,,,,,,620.4934,621.7874,621.7875,623.5873,return,0.6186,,73.828125,,,,,,FBP-YG-91.png,0.4,1.2,13,0.5,,,,,,,,,,,,,0,5,5,12,1,,,,,,,,,,,,,,,,,,,,,,,,,,,,
,,,,,V3_066,22,Female,2024-11-15_15h53.41.518,jersey_experiment_5_v3,2023.2.2,Win32,84.74576271,,,,,,,,,,,,,,,,623.5876,624.8816,624.8816,626.6933,return,0.7555,,28.515625,,,,,,FBP-PT-18.png,0.37,1.2,22,0.5,,,,,,,,,,,,,0,6,6,21,1,,,,,,,,,,,,,,,,,,,,,,,,,,,,
,,,,,V3_066,22,Female,2024-11-15_15h53.41.518,jersey_experiment_5_v3,2023.2.2,Win32,84.74576271,,,,,,,,,,,,,,,,626.6935,627.9874,627.9875,629.47,return,0.6261,,24.86979167,,,,,,FBP-PT-19.png,0.37,1.2,27,0.5,,,,,,,,,,,,,0,7,7,26,1,,,,,,,,,,,,,,,,,,,,,,,,,,,,
,,,,,V3_066,22,Female,2024-11-15_15h53.41.518,jersey_experiment_5_v3,2023.2.2,Win32,84.74576271,,,,,,,,,,,,,,,,629.4703,630.7641,630.7642,633.1877,return,1.3478,,29.16666667,,,,,,FBP-YG-91.png,0.37,1.2,12,0.5,,,,,,,,,,,,,0,8,8,11,1,,,,,,,,,,,,,,,,,,,,,,,,,,,,
,,,,,V3_066,22,Female,2024-11-15_15h53.41.518,jersey_experiment_5_v3,2023.2.2,Win32,84.74576271,,,,,,,,,,,,,,,,633.188,634.4818,634.4818,636.4584,return,0.6721,,99.47916667,,,,,,FBP-RB-18.png,0.45,1.2,55,0.5,,,,,,,,,,,,,0,9,9,54,1,,,,,,,,,,,,,,,,,,,,,,,,,,,,
,,,,,V3_066,22,Female,2024-11-15_15h53.41.518,jersey_experiment_5_v3,2023.2.2,Win32,84.74576271,,,,,,,,,,,,,,,,636.4587,637.7524,637.7525,638.9878,return,0.6223,,99.73958333,,,,,,FBP-PT-19.png,0.45,1.2,30,0.5,,,,,,,,,,,,,0,10,10,29,1,,,,,,,,,,,,,,,,,,,,,,,,,,,,
,,,,,V3_066,22,Female,2024-11-15_15h53.41.518,jersey_experiment_5_v3,2023.2.2,Win32,84.74576271,,,,,,,,,,,,,,,,638.9881,640.282,640.282,642.7762,return,0.6253,,29.03645833,,,,,,FBP-RB-17.png,0.35,1.2,46,0.5,,,,,,,,,,,,,0,11,11,45,1,,,,,,,,,,,,,,,,,,,,,,,,,,,,
,,,,,V3_066,22,Female,2024-11-15_15h53.41.518,jersey_experiment_5_v3,2023.2.2,Win32,84.74576271,,,,,,,,,,,,,,,,642.7765,644.0711,644.0712,645.9881,return,1.0074,,30.20833333,,,,,,FBP-YG-71.png,0.37,1.2,2,0.5,,,,,,,,,,,,,0,12,12,1,1,,,,,,,,,,,,,,,,,,,,,,,,,,,,
,,,,,V3_066,22,Female,2024-11-15_15h53.41.518,jersey_experiment_5_v3,2023.2.2,Win32,84.74576271,,,,,,,,,,,,,,,,645.9884,647.2824,647.2824,649.1412,return,0.5445,,33.984375,,,,,,FBP-PT-17.png,0.37,1.2,17,0.5,,,,,,,,,,,,,0,13,13,16,1,,,,,,,,,,,,,,,,,,,,,,,,,,,,
,,,,,V3_066,22,Female,2024-11-15_15h53.41.518,jersey_experiment_5_v3,2023.2.2,Win32,84.74576271,,,,,,,,,,,,,,,,649.1414,650.4353,650.4355,652.2354,return,0.6225,,98.4375,,,,,,FBP-RB-17.png,0.45,1.2,50,0.5,,,,,,,,,,,,,0,14,14,49,1,,,,,,,,,,,,,,,,,,,,,,,,,,,,
,,,,,V3_066,22,Female,2024-11-15_15h53.41.518,jersey_experiment_5_v3,2023.2.2,Win32,84.74576271,,,,,,,,,,,,,,,,652.2357,653.5296,653.5296,655.6355,return,0.5711,,57.421875,,,,,,FBP-YG-81.png,0.4,1.2,8,0.5,,,,,,,,,,,,,0,15,15,7,1,,,,,,,,,,,,,,,,,,,,,,,,,,,,
,,,,,V3_066,22,Female,2024-11-15_15h53.41.518,jersey_experiment_5_v3,2023.2.2,Win32,84.74576271,,,,,,,,,,,,,,,,655.6359,656.9297,656.9297,659.2358,return,0.6546,,97.91666667,,,,,,FBP-YG-81.png,0.45,1.2,10,0.5,,,,,,,,,,,,,0,16,16,9,1,,,,,,,,,,,,,,,,,,,,,,,,,,,,
,,,,,V3_066,22,Female,2024-11-15_15h53.41.518,jersey_experiment_5_v3,2023.2.2,Win32,84.74576271,,,,,,,,,,,,,,,,659.2361,660.7886,660.7887,662.1652,return,0.6279,,79.94791667,,,,,,FBP-OG-17.png,0.43,1.2,34,0.75,,,,,,,,,,,,,0,17,17,33,1,,,,,,,,,,,,,,,,,,,,,,,,,,,,
,,,,,V3_066,22,Female,2024-11-15_15h53.41.518,jersey_experiment_5_v3,2023.2.2,Win32,84.74576271,,,,,,,,,,,,,,,,662.1655,663.4594,663.4595,665.8478,return,0.6976,,32.8125,,,,,,FBP-YG-91.png,0.35,1.2,11,0.5,,,,,,,,,,,,,0,18,18,10,1,,,,,,,,,,,,,,,,,,,,,,,,,,,,
,,,,,V3_066,22,Female,2024-11-15_15h53.41.518,jersey_experiment_5_v3,2023.2.2,Win32,84.74576271,,,,,,,,,,,,,,,,665.848,667.3892,667.3892,669.2361,return,1.1722,,90.36458333,,,,,,FBP-OG-17.png,0.45,1.2,35,0.75,,,,,,,,,,,,,0,19,19,34,1,,,,,,,,,,,,,,,,,,,,,,,,,,,,
,,,,,V3_066,22,Female,2024-11-15_15h53.41.518,jersey_experiment_5_v3,2023.2.2,Win32,84.74576271,,,,,,,,,,,,,,,,669.2364,670.5302,670.5303,672.6126,return,0.6525,,34.375,,,,,,FBP-RB-18.png,0.35,1.2,51,0.5,,,,,,,,,,,,,0,20,20,50,1,,,,,,,,,,,,,,,,,,,,,,,,,,,,
,,,,,V3_066,22,Female,2024-11-15_15h53.41.518,jersey_experiment_5_v3,2023.2.2,Win32,84.74576271,,,,,,,,,,,,,,,,672.613,673.9068,673.9069,675.6362,return,0.6411,,19.921875,,,,,,FBP-PT-17.png,0.35,1.2,16,0.5,,,,,,,,,,,,,0,21,21,15,1,,,,,,,,,,,,,,,,,,,,,,,,,,,,
,,,,,V3_066,22,Female,2024-11-15_15h53.41.518,jersey_experiment_5_v3,2023.2.2,Win32,84.74576271,,,,,,,,,,,,,,,,675.6365,677.1894,677.1895,678.601,return,0.626,,29.81770833,,,,,,FBP-OG-19.png,0.37,1.2,42,0.75,,,,,,,,,,,,,0,22,22,41,1,,,,,,,,,,,,,,,,,,,,,,,,,,,,
,,,,,V3_066,22,Female,2024-11-15_15h53.41.518,jersey_experiment_5_v3,2023.2.2,Win32,84.74576271,,,,,,,,,,,,,,,,678.6013,679.8953,679.8953,681.7072,return,0.6282,,98.30729167,,,,,,FBP-YG-71.png,0.45,1.2,5,0.5,,,,,,,,,,,,,0,23,23,4,1,,,,,,,,,,,,,,,,,,,,,,,,,,,,
,,,,,V3_066,22,Female,2024-11-15_15h53.41.518,jersey_experiment_5_v3,2023.2.2,Win32,84.74576271,,,,,,,,,,,,,,,,681.7074,683.2602,683.2603,685.1661,return,0.752,,35.41666667,,,,,,FBP-OG-17.png,0.35,1.2,31,0.75,,,,,,,,,,,,,0,24,24,30,1,,,,,,,,,,,,,,,,,,,,,,,,,,,,
,,,,,V3_066,22,Female,2024-11-15_15h53.41.518,jersey_experiment_5_v3,2023.2.2,Win32,84.74576271,,,,,,,,,,,,,,,,685.1664,686.4603,686.4604,688.0604,return,0.5549,,83.07291667,,,,,,FBP-PT-18.png,0.43,1.2,24,0.5,,,,,,,,,,,,,0,25,25,23,1,,,,,,,,,,,,,,,,,,,,,,,,,,,,
,,,,,V3_066,22,Female,2024-11-15_15h53.41.518,jersey_experiment_5_v3,2023.2.2,Win32,84.74576271,,,,,,,,,,,,,,,,688.0608,689.6133,689.6134,691.0134,return,0.6757,,87.63020833,,,,,,FBP-OG-19.png,0.43,1.2,44,0.75,,,,,,,,,,,,,0,26,26,43,1,,,,,,,,,,,,,,,,,,,,,,,,,,,,
,,,,,V3_066,22,Female,2024-11-15_15h53.41.518,jersey_experiment_5_v3,2023.2.2,Win32,84.74576271,,,,,,,,,,,,,,,,691.0138,692.3075,692.3076,694.0722,return,0.6254,,40.88541667,,,,,,FBP-YG-81.png,0.37,1.2,7,0.5,,,,,,,,,,,,,0,27,27,6,1,,,,,,,,,,,,,,,,,,,,,,,,,,,,
,,,,,V3_066,22,Female,2024-11-15_15h53.41.518,jersey_experiment_5_v3,2023.2.2,Win32,84.74576271,,,,,,,,,,,,,,,,694.0726,695.3663,695.3664,697.2841,return,0.7249,,58.59375,,,,,,FBP-PT-17.png,0.4,1.2,18,0.5,,,,,,,,,,,,,0,28,28,17,1,,,,,,,,,,,,,,,,,,,,,,,,,,,,
,,,,,V3_066,22,Female,2024-11-15_15h53.41.518,jersey_experiment_5_v3,2023.2.2,Win32,84.74576271,,,,,,,,,,,,,,,,697.2845,698.5783,698.5783,700.2019,return,0.5553,,87.5,,,,,,FBP-RB-19.png,0.45,1.2,60,0.5,,,,,,,,,,,,,0,29,29,59,1,,,,,,,,,,,,,,,,,,,,,,,,,,,,
,,,,,V3_066,22,Female,2024-11-15_15h53.41.518,jersey_experiment_5_v3,2023.2.2,Win32,84.74576271,,,,,,,,,,,,,,,,700.2022,701.4961,701.4961,703.6608,return,0.5424,,43.88020833,,,,,,FBP-RB-19.png,0.37,1.2,57,0.5,,,,,,,,,,,,,0,30,30,56,1,,,,,,,,,,,,,,,,,,,,,,,,,,,,
,,,,,V3_066,22,Female,2024-11-15_15h53.41.518,jersey_experiment_5_v3,2023.2.2,Win32,84.74576271,,,,,,,,,,,,,,,,703.6611,705.2022,705.2023,706.5785,return,0.5701,,84.24479167,,,,,,FBP-OG-19.png,0.45,1.2,45,0.75,,,,,,,,,,,,,0,31,31,44,1,,,,,,,,,,,,,,,,,,,,,,,,,,,,
,,,,,V3_066,22,Female,2024-11-15_15h53.41.518,jersey_experiment_5_v3,2023.2.2,Win32,84.74576271,,,,,,,,,,,,,,,,706.5788,707.8729,707.8729,709.1316,return,0.5496,,83.07291667,,,,,,FBP-YG-91.png,0.43,1.2,14,0.5,,,,,,,,,,,,,0,32,32,13,1,,,,,,,,,,,,,,,,,,,,,,,,,,,,
,,,,,V3_066,22,Female,2024-11-15_15h53.41.518,jersey_experiment_5_v3,2023.2.2,Win32,84.74576271,,,,,,,,,,,,,,,,709.1318,710.4257,710.4258,711.8494,return,0.5568,,93.61979167,,,,,,FBP-RB-19.png,0.43,1.2,59,0.5,,,,,,,,,,,,,0,33,33,58,1,,,,,,,,,,,,,,,,,,,,,,,,,,,,
,,,,,V3_066,22,Female,2024-11-15_15h53.41.518,jersey_experiment_5_v3,2023.2.2,Win32,84.74576271,,,,,,,,,,,,,,,,711.8497,713.1434,713.1435,714.826,return,0.6131,,99.47916667,,,,,,FBP-YG-91.png,0.45,1.2,15,0.5,,,,,,,,,,,,,0,34,34,14,1,,,,,,,,,,,,,,,,,,,,,,,,,,,,
,,,,,V3_066,22,Female,2024-11-15_15h53.41.518,jersey_experiment_5_v3,2023.2.2,Win32,84.74576271,,,,,,,,,,,,,,,,714.8263,716.3789,716.379,717.7673,return,0.6034,,88.80208333,,,,,,FBP-OG-18.png,0.43,1.2,39,0.75,,,,,,,,,,,,,0,35,35,38,1,,,,,,,,,,,,,,,,,,,,,,,,,,,,
,,,,,V3_066,22,Female,2024-11-15_15h53.41.518,jersey_experiment_5_v3,2023.2.2,Win32,84.74576271,,,,,,,,,,,,,,,,717.7675,719.0614,719.0614,722.1085,return,1.4348,,46.61458333,,,,,,FBP-PT-18.png,0.4,1.2,23,0.5,,,,,,,,,,,,,0,36,36,22,1,,,,,,,,,,,,,,,,,,,,,,,,,,,,
,,,,,V3_066,22,Female,2024-11-15_15h53.41.518,jersey_experiment_5_v3,2023.2.2,Win32,84.74576271,,,,,,,,,,,,,,,,722.1089,723.4027,723.4027,725.191,return,0.6043,,76.171875,,,,,,FBP-PT-17.png,0.43,1.2,19,0.5,,,,,,,,,,,,,0,37,37,18,1,,,,,,,,,,,,,,,,,,,,,,,,,,,,
,,,,,V3_066,22,Female,2024-11-15_15h53.41.518,jersey_experiment_5_v3,2023.2.2,Win32,84.74576271,,,,,,,,,,,,,,,,725.1913,726.4852,726.4852,728.5089,return,0.6339,,6.25,,,,,,FBP-PT-18.png,0.35,1.2,21,0.5,,,,,,,,,,,,,0,38,38,20,1,,,,,,,,,,,,,,,,,,,,,,,,,,,,
,,,,,V3_066,22,Female,2024-11-15_15h53.41.518,jersey_experiment_5_v3,2023.2.2,Win32,84.74576271,,,,,,,,,,,,,,,,728.5092,730.062,730.062,731.45,return,0.6826,,4.036458333,,,,,,FBP-OG-17.png,0.37,1.2,32,0.75,,,,,,,,,,,,,0,39,39,31,1,,,,,,,,,,,,,,,,,,,,,,,,,,,,
,,,,,V3_066,22,Female,2024-11-15_15h53.41.518,jersey_experiment_5_v3,2023.2.2,Win32,84.74576271,,,,,,,,,,,,,,,,731.4503,732.7443,732.7444,735.6268,return,0.5889,,44.140625,,,,,,FBP-RB-17.png,0.4,1.2,48,0.5,,,,,,,,,,,,,0,40,40,47,1,,,,,,,,,,,,,,,,,,,,,,,,,,,,
,,,,,V3_066,22,Female,2024-11-15_15h53.41.518,jersey_experiment_5_v3,2023.2.2,Win32,84.74576271,,,,,,,,,,,,,,,,735.6272,736.9209,736.921,738.9798,return,0.5004,,50.26041667,,,,,,FBP-RB-19.png,0.4,1.2,58,0.5,,,,,,,,,,,,,0,41,41,57,1,,,,,,,,,,,,,,,,,,,,,,,,,,,,
,,,,,V3_066,22,Female,2024-11-15_15h53.41.518,jersey_experiment_5_v3,2023.2.2,Win32,84.74576271,,,,,,,,,,,,,,,,738.98,740.2741,740.2741,741.9565,return,0.6292,,7.552083333,,,,,,FBP-PT-19.png,0.35,1.2,26,0.5,,,,,,,,,,,,,0,42,42,25,1,,,,,,,,,,,,,,,,,,,,,,,,,,,,
,,,,,V3_066,22,Female,2024-11-15_15h53.41.518,jersey_experiment_5_v3,2023.2.2,Win32,84.74576271,,,,,,,,,,,,,,,,741.9568,743.2504,743.2505,746.1329,return,0.5432,,66.53645833,,,,,,FBP-RB-18.png,0.43,1.2,54,0.5,,,,,,,,,,,,,0,43,43,53,1,,,,,,,,,,,,,,,,,,,,,,,,,,,,
,,,,,V3_066,22,Female,2024-11-15_15h53.41.518,jersey_experiment_5_v3,2023.2.2,Win32,84.74576271,,,,,,,,,,,,,,,,746.1333,747.4271,747.4272,748.9096,return,0.6495,,57.94270833,,,,,,FBP-YG-71.png,0.4,1.2,3,0.5,,,,,,,,,,,,,0,44,44,2,1,,,,,,,,,,,,,,,,,,,,,,,,,,,,
,,,,,V3_066,22,Female,2024-11-15_15h53.41.518,jersey_experiment_5_v3,2023.2.2,Win32,84.74576271,,,,,,,,,,,,,,,,748.9098,750.2038,750.2039,752.5567,return,0.6334,,19.53125,,,,,,FBP-RB-19.png,0.35,1.2,56,0.5,,,,,,,,,,,,,0,45,45,55,1,,,,,,,,,,,,,,,,,,,,,,,,,,,,
,,,,,V3_066,22,Female,2024-11-15_15h53.41.518,jersey_experiment_5_v3,2023.2.2,Win32,84.74576271,,,,,,,,,,,,,,,,752.557,753.8509,753.8509,755.6275,return,0.5885,,22.65625,,,,,,FBP-RB-17.png,0.37,1.2,47,0.5,,,,,,,,,,,,,0,46,46,46,1,,,,,,,,,,,,,,,,,,,,,,,,,,,,
,,,,,V3_066,22,Female,2024-11-15_15h53.41.518,jersey_experiment_5_v3,2023.2.2,Win32,84.74576271,,,,,,,,,,,,,,,,755.6277,757.169,757.169,758.6629,return,0.6867,,95.3125,,,,,,FBP-OG-18.png,0.45,1.2,40,0.75,,,,,,,,,,,,,0,47,47,39,1,,,,,,,,,,,,,,,,,,,,,,,,,,,,
,,,,,V3_066,22,Female,2024-11-15_15h53.41.518,jersey_experiment_5_v3,2023.2.2,Win32,84.74576271,,,,,,,,,,,,,,,,758.6632,759.9571,759.9571,761.2513,return,0.6437,,87.76041667,,,,,,FBP-PT-18.png,0.45,1.2,25,0.5,,,,,,,,,,,,,0,48,48,24,1,,,,,,,,,,,,,,,,,,,,,,,,,,,,
,,,,,V3_066,22,Female,2024-11-15_15h53.41.518,jersey_experiment_5_v3,2023.2.2,Win32,84.74576271,,,,,,,,,,,,,,,,761.2515,762.8043,762.8043,765.1807,return,0.7061,,11.58854167,,,,,,FBP-OG-18.png,0.35,1.2,36,0.75,,,,,,,,,,,,,0,49,49,35,1,,,,,,,,,,,,,,,,,,,,,,,,,,,,
,,,,,V3_066,22,Female,2024-11-15_15h53.41.518,jersey_experiment_5_v3,2023.2.2,Win32,84.74576271,,,,,,,,,,,,,,,,765.1809,766.4749,766.4749,768.5339,return,0.7338,,33.203125,,,,,,FBP-RB-18.png,0.37,1.2,52,0.5,,,,,,,,,,,,,0,50,50,51,1,,,,,,,,,,,,,,,,,,,,,,,,,,,,
,,,,,V3_066,22,Female,2024-11-15_15h53.41.518,jersey_experiment_5_v3,2023.2.2,Win32,84.74576271,,,,,,,,,,,,,,,,768.5342,770.087,770.0871,771.8516,return,0.7043,,61.06770833,,,,,,FBP-OG-18.png,0.4,1.2,38,0.75,,,,,,,,,,,,,0,51,51,37,1,,,,,,,,,,,,,,,,,,,,,,,,,,,,
,,,,,V3_066,22,Female,2024-11-15_15h53.41.518,jersey_experiment_5_v3,2023.2.2,Win32,84.74576271,,,,,,,,,,,,,,,,771.8519,773.1457,773.1457,774.6752,return,0.7025,,77.34375,,,,,,FBP-PT-19.png,0.43,1.2,29,0.5,,,,,,,,,,,,,0,52,52,28,1,,,,,,,,,,,,,,,,,,,,,,,,,,,,
,,,,,V3_066,22,Female,2024-11-15_15h53.41.518,jersey_experiment_5_v3,2023.2.2,Win32,84.74576271,,,,,,,,,,,,,,,,774.6755,775.9694,775.9694,777.3695,return,0.6137,,86.97916667,,,,,,FBP-RB-17.png,0.43,1.2,49,0.5,,,,,,,,,,,,,0,53,53,48,1,,,,,,,,,,,,,,,,,,,,,,,,,,,,
,,,,,V3_066,22,Female,2024-11-15_15h53.41.518,jersey_experiment_5_v3,2023.2.2,Win32,84.74576271,,,,,,,,,,,,,,,,777.3698,778.6636,778.6636,780.4049,return,0.6759,,79.03645833,,,,,,FBP-YG-71.png,0.43,1.2,4,0.5,,,,,,,,,,,,,0,54,54,3,1,,,,,,,,,,,,,,,,,,,,,,,,,,,,
,,,,,V3_066,22,Female,2024-11-15_15h53.41.518,jersey_experiment_5_v3,2023.2.2,Win32,84.74576271,,,,,,,,,,,,,,,,780.4052,781.958,781.958,783.8049,return,0.6251,,40.234375,,,,,,FBP-OG-18.png,0.37,1.2,37,0.75,,,,,,,,,,,,,0,55,55,36,1,,,,,,,,,,,,,,,,,,,,,,,,,,,,
,,,,,V3_066,22,Female,2024-11-15_15h53.41.518,jersey_experiment_5_v3,2023.2.2,Win32,84.74576271,,,,,,,,,,,,,,,,783.8051,785.0992,785.0993,787.4521,return,0.6038,,42.31770833,,,,,,FBP-RB-18.png,0.4,1.2,53,0.5,,,,,,,,,,,,,0,56,56,52,1,,,,,,,,,,,,,,,,,,,,,,,,,,,,
,,,,,V3_066,22,Female,2024-11-15_15h53.41.518,jersey_experiment_5_v3,2023.2.2,Win32,84.74576271,,,,,,,,,,,,,,,,787.4524,788.7464,788.7464,790.3936,return,0.5886,,77.734375,,,,,,FBP-YG-81.png,0.43,1.2,9,0.5,,,,,,,,,,,,,0,57,57,8,1,,,,,,,,,,,,,,,,,,,,,,,,,,,,
,,,,,V3_066,22,Female,2024-11-15_15h53.41.518,jersey_experiment_5_v3,2023.2.2,Win32,84.74576271,,,,,,,,,,,,,,,,790.3939,791.6877,791.6877,792.8878,return,0.5801,,78.38541667,,,,,,FBP-PT-17.png,0.45,1.2,20,0.5,,,,,,,,,,,,,0,58,58,19,1,,,,,,,,,,,,,,,,,,,,,,,,,,,,
,,,,,V3_066,22,Female,2024-11-15_15h53.41.518,jersey_experiment_5_v3,2023.2.2,Win32,84.74576271,,,,,,,,,,,,,,,,792.8882,794.1819,794.182,796.8762,return,0.5415,,15.75520833,,,,,,FBP-YG-71.png,0.35,1.2,1,0.5,,,,,,,,,,,,,0,59,59,0,1,,,,,,,,,,,,,,,,,,,,,,,,,,,,
,,,,,V3_066,22,Female,2024-11-15_15h53.41.518,jersey_experiment_5_v3,2023.2.2,Win32,84.74576271,,,,,,,,,,,,,,,,796.8784,798.4291,798.4291,800.0526,return,0.642,,85.546875,,,,,,FBP-OG-71.png,0.45,1.2,35,0.75,,,,,,,,,,,,,,,,,,0,0,0,34,1,,,,,,,,,,,,,,,,,,,,,,,
,,,,,V3_066,22,Female,2024-11-15_15h53.41.518,jersey_experiment_5_v3,2023.2.2,Win32,84.74576271,,,,,,,,,,,,,,,,800.053,801.3468,801.347,802.4764,return,0.5647,,81.90104167,,,,,,FBP-PT-81.png,0.43,1.2,24,0.5,,,,,,,,,,,,,,,,,,0,1,1,23,1,,,,,,,,,,,,,,,,,,,,,,,
,,,,,V3_066,22,Female,2024-11-15_15h53.41.518,jersey_experiment_5_v3,2023.2.2,Win32,84.74576271,,,,,,,,,,,,,,,,802.4766,804.0292,804.0293,805.0649,return,0.5779,,82.68229167,,,,,,FBP-OG-91.png,0.45,1.2,45,0.75,,,,,,,,,,,,,,,,,,0,2,2,44,1,,,,,,,,,,,,,,,,,,,,,,,
,,,,,V3_066,22,Female,2024-11-15_15h53.41.518,jersey_experiment_5_v3,2023.2.2,Win32,84.74576271,,,,,,,,,,,,,,,,805.0651,806.6177,806.6178,808.2294,return,0.653,,16.53645833,,,,,,FBP-OG-91.png,0.35,1.2,41,0.75,,,,,,,,,,,,,,,,,,0,3,3,40,1,,,,,,,,,,,,,,,,,,,,,,,
,,,,,V3_066,22,Female,2024-11-15_15h53.41.518,jersey_experiment_5_v3,2023.2.2,Win32,84.74576271,,,,,,,,,,,,,,,,808.2297,809.7825,809.7825,811.7825,return,0.5814,,31.77083333,,,,,,FBP-OG-81.png,0.4,1.2,38,0.75,,,,,,,,,,,,,,,,,,0,4,4,37,1,,,,,,,,,,,,,,,,,,,,,,,
,,,,,V3_066,22,Female,2024-11-15_15h53.41.518,jersey_experiment_5_v3,2023.2.2,Win32,84.74576271,,,,,,,,,,,,,,,,811.7827,813.0766,813.0767,815.3001,return,0.5484,,41.27604167,,,,,,FBP-YG-19.png,0.4,1.2,13,0.5,,,,,,,,,,,,,,,,,,0,5,5,12,1,,,,,,,,,,,,,,,,,,,,,,,
,,,,,V3_066,22,Female,2024-11-15_15h53.41.518,jersey_experiment_5_v3,2023.2.2,Win32,84.74576271,,,,,,,,,,,,,,,,815.3004,816.5944,816.5944,818.2769,return,0.5229,,22.52604167,,,,,,FBP-RB-71.png,0.37,1.2,47,0.5,,,,,,,,,,,,,,,,,,0,6,6,46,1,,,,,,,,,,,,,,,,,,,,,,,
,,,,,V3_066,22,Female,2024-11-15_15h53.41.518,jersey_experiment_5_v3,2023.2.2,Win32,84.74576271,,,,,,,,,,,,,,,,818.2771,819.8299,819.8299,821.2886,return,0.5893,,19.27083333,,,,,,FBP-OG-71.png,0.37,1.2,32,0.75,,,,,,,,,,,,,,,,,,0,7,7,31,1,,,,,,,,,,,,,,,,,,,,,,,
,,,,,V3_066,22,Female,2024-11-15_15h53.41.518,jersey_experiment_5_v3,2023.2.2,Win32,84.74576271,,,,,,,,,,,,,,,,821.2889,822.5829,822.583,824.2183,return,0.6467,,19.40104167,,,,,,FBP-PT-91.png,0.37,1.2,27,0.5,,,,,,,,,,,,,,,,,,0,8,8,26,1,,,,,,,,,,,,,,,,,,,,,,,
,,,,,V3_066,22,Female,2024-11-15_15h53.41.518,jersey_experiment_5_v3,2023.2.2,Win32,84.74576271,,,,,,,,,,,,,,,,824.2186,825.7714,825.7715,827.8301,return,0.6054,,53.38541667,,,,,,FBP-OG-91.png,0.4,1.2,43,0.75,,,,,,,,,,,,,,,,,,0,9,9,42,1,,,,,,,,,,,,,,,,,,,,,,,
,,,,,V3_066,22,Female,2024-11-15_15h53.41.518,jersey_experiment_5_v3,2023.2.2,Win32,84.74576271,,,,,,,,,,,,,,,,827.8304,829.1242,829.1243,830.4772,return,0.5993,,48.69791667,,,,,,FBP-YG-17.png,0.4,1.2,3,0.5,,,,,,,,,,,,,,,,,,0,10,10,2,1,,,,,,,,,,,,,,,,,,,,,,,
,,,,,V3_066,22,Female,2024-11-15_15h53.41.518,jersey_experiment_5_v3,2023.2.2,Win32,84.74576271,,,,,,,,,,,,,,,,830.4775,831.7713,831.7713,833.7362,return,0.6622,,30.59895833,,,,,,FBP-RB-91.png,0.35,1.2,56,0.5,,,,,,,,,,,,,,,,,,0,11,11,55,1,,,,,,,,,,,,,,,,,,,,,,,
,,,,,V3_066,22,Female,2024-11-15_15h53.41.518,jersey_experiment_5_v3,2023.2.2,Win32,84.74576271,,,,,,,,,,,,,,,,833.7363,835.0304,835.0305,836.854,return,0.6287,,94.53125,,,,,,FBP-RB-91.png,0.45,1.2,60,0.5,,,,,,,,,,,,,,,,,,0,12,12,59,1,,,,,,,,,,,,,,,,,,,,,,,
,,,,,V3_066,22,Female,2024-11-15_15h53.41.518,jersey_experiment_5_v3,2023.2.2,Win32,84.74576271,,,,,,,,,,,,,,,,836.8543,838.1482,838.1482,839.4659,return,0.7074,,93.75,,,,,,FBP-YG-19.png,0.45,1.2,15,0.5,,,,,,,,,,,,,,,,,,0,13,13,14,1,,,,,,,,,,,,,,,,,,,,,,,
,,,,,V3_066,22,Female,2024-11-15_15h53.41.518,jersey_experiment_5_v3,2023.2.2,Win32,84.74576271,,,,,,,,,,,,,,,,839.4662,840.7601,840.7601,842.8425,return,0.4939,,32.421875,,,,,,FBP-YG-19.png,0.37,1.2,12,0.5,,,,,,,,,,,,,,,,,,0,14,14,11,1,,,,,,,,,,,,,,,,,,,,,,,
,,,,,V3_066,22,Female,2024-11-15_15h53.41.518,jersey_experiment_5_v3,2023.2.2,Win32,84.74576271,,,,,,,,,,,,,,,,842.8427,844.1365,844.1366,845.525,return,0.5442,,45.3125,,,,,,FBP-RB-71.png,0.4,1.2,48,0.5,,,,,,,,,,,,,,,,,,0,15,15,47,1,,,,,,,,,,,,,,,,,,,,,,,
,,,,,V3_066,22,Female,2024-11-15_15h53.41.518,jersey_experiment_5_v3,2023.2.2,Win32,84.74576271,,,,,,,,,,,,,,,,845.5253,847.0781,847.0781,848.172,return,0.5178,,79.42708333,,,,,,FBP-OG-81.png,0.45,1.2,40,0.75,,,,,,,,,,,,,,,,,,0,16,16,39,1,,,,,,,,,,,,,,,,,,,,,,,
,,,,,V3_066,22,Female,2024-11-15_15h53.41.518,jersey_experiment_5_v3,2023.2.2,Win32,84.74576271,,,,,,,,,,,,,,,,848.1723,849.4663,849.4663,851.7016,return,0.853,,8.333333333,,,,,,FBP-YG-19.png,0.35,1.2,11,0.5,,,,,,,,,,,,,,,,,,0,17,17,10,1,,,,,,,,,,,,,,,,,,,,,,,
,,,,,V3_066,22,Female,2024-11-15_15h53.41.518,jersey_experiment_5_v3,2023.2.2,Win32,84.74576271,,,,,,,,,,,,,,,,851.7019,852.9959,852.9959,854.4901,return,0.542,,55.859375,,,,,,FBP-RB-81.png,0.4,1.2,53,0.5,,,,,,,,,,,,,,,,,,0,18,18,52,1,,,,,,,,,,,,,,,,,,,,,,,
,,,,,V3_066,22,Female,2024-11-15_15h53.41.518,jersey_experiment_5_v3,2023.2.2,Win32,84.74576271,,,,,,,,,,,,,,,,854.4903,855.7841,855.7841,859.0785,return,2.1576,,65.88541667,,,,,,FBP-YG-18.png,0.43,1.2,9,0.5,,,,,,,,,,,,,,,,,,0,19,19,8,1,,,,,,,,,,,,,,,,,,,,,,,
,,,,,V3_066,22,Female,2024-11-15_15h53.41.518,jersey_experiment_5_v3,2023.2.2,Win32,84.74576271,,,,,,,,,,,,,,,,859.0787,860.3725,860.3726,861.9256,return,0.7472,,87.5,,,,,,FBP-RB-71.png,0.45,1.2,50,0.5,,,,,,,,,,,,,,,,,,0,20,20,49,1,,,,,,,,,,,,,,,,,,,,,,,
,,,,,V3_066,22,Female,2024-11-15_15h53.41.518,jersey_experiment_5_v3,2023.2.2,Win32,84.74576271,,,,,,,,,,,,,,,,861.9258,863.2196,863.2197,864.7257,return,0.5674,,19.66145833,,,,,,FBP-PT-91.png,0.35,1.2,26,0.5,,,,,,,,,,,,,,,,,,0,21,21,25,1,,,,,,,,,,,,,,,,,,,,,,,
,,,,,V3_066,22,Female,2024-11-15_15h53.41.518,jersey_experiment_5_v3,2023.2.2,Win32,84.74576271,,,,,,,,,,,,,,,,864.7259,866.0198,866.0198,868.408,return,0.5291,,67.70833333,,,,,,FBP-PT-71.png,0.45,1.2,20,0.5,,,,,,,,,,,,,,,,,,0,22,22,19,1,,,,,,,,,,,,,,,,,,,,,,,
,,,,,V3_066,22,Female,2024-11-15_15h53.41.518,jersey_experiment_5_v3,2023.2.2,Win32,84.74576271,,,,,,,,,,,,,,,,868.4082,869.7022,869.7022,872.7497,return,0.5575,,52.60416667,,,,,,FBP-RB-81.png,0.35,1.2,51,0.5,,,,,,,,,,,,,,,,,,0,23,23,50,1,,,,,,,,,,,,,,,,,,,,,,,
,,,,,V3_066,22,Female,2024-11-15_15h53.41.518,jersey_experiment_5_v3,2023.2.2,Win32,84.74576271,,,,,,,,,,,,,,,,872.75,874.0436,874.0437,877.4672,return,2.2118,,79.6875,,,,,,FBP-YG-19.png,0.43,1.2,14,0.5,,,,,,,,,,,,,,,,,,0,24,24,13,1,,,,,,,,,,,,,,,,,,,,,,,
,,,,,V3_066,22,Female,2024-11-15_15h53.41.518,jersey_experiment_5_v3,2023.2.2,Win32,84.74576271,,,,,,,,,,,,,,,,877.4675,878.7613,878.7614,880.3968,return,0.5567,,79.296875,,,,,,FBP-RB-71.png,0.43,1.2,49,0.5,,,,,,,,,,,,,,,,,,0,25,25,48,1,,,,,,,,,,,,,,,,,,,,,,,
,,,,,V3_066,22,Female,2024-11-15_15h53.41.518,jersey_experiment_5_v3,2023.2.2,Win32,84.74576271,,,,,,,,,,,,,,,,880.397,881.9499,881.9499,883.797,return,0.9476,,37.76041667,,,,,,FBP-OG-81.png,0.35,1.2,36,0.75,,,,,,,,,,,,,,,,,,0,26,26,35,1,,,,,,,,,,,,,,,,,,,,,,,
,,,,,V3_066,22,Female,2024-11-15_15h53.41.518,jersey_experiment_5_v3,2023.2.2,Win32,84.74576271,,,,,,,,,,,,,,,,883.7973,885.0911,885.0911,886.3266,return,0.5434,,17.1875,,,,,,FBP-PT-71.png,0.35,1.2,16,0.5,,,,,,,,,,,,,,,,,,0,27,27,15,1,,,,,,,,,,,,,,,,,,,,,,,
,,,,,V3_066,22,Female,2024-11-15_15h53.41.518,jersey_experiment_5_v3,2023.2.2,Win32,84.74576271,,,,,,,,,,,,,,,,886.3268,887.6206,887.6206,889.609,return,0.6143,,91.40625,,,,,,FBP-YG-17.png,0.45,1.2,5,0.5,,,,,,,,,,,,,,,,,,0,28,28,4,1,,,,,,,,,,,,,,,,,,,,,,,
,,,,,V3_066,22,Female,2024-11-15_15h53.41.518,jersey_experiment_5_v3,2023.2.2,Win32,84.74576271,,,,,,,,,,,,,,,,889.6092,890.903,890.9031,892.0915,return,0.5923,,98.828125,,,,,,FBP-RB-81.png,0.45,1.2,55,0.5,,,,,,,,,,,,,,,,,,0,29,29,54,1,,,,,,,,,,,,,,,,,,,,,,,
,,,,,V3_066,22,Female,2024-11-15_15h53.41.518,jersey_experiment_5_v3,2023.2.2,Win32,84.74576271,,,,,,,,,,,,,,,,892.0917,893.3854,893.3855,894.6797,return,0.5331,,78.64583333,,,,,,FBP-RB-91.png,0.4,1.2,58,0.5,,,,,,,,,,,,,,,,,,0,30,30,57,1,,,,,,,,,,,,,,,,,,,,,,,
,,,,,V3_066,22,Female,2024-11-15_15h53.41.518,jersey_experiment_5_v3,2023.2.2,Win32,84.74576271,,,,,,,,,,,,,,,,894.68,895.9739,895.9739,897.48,return,0.5332,,65.36458333,,,,,,FBP-PT-71.png,0.4,1.2,18,0.5,,,,,,,,,,,,,,,,,,0,31,31,17,1,,,,,,,,,,,,,,,,,,,,,,,
,,,,,V3_066,22,Female,2024-11-15_15h53.41.518,jersey_experiment_5_v3,2023.2.2,Win32,84.74576271,,,,,,,,,,,,,,,,897.4802,898.7739,898.7739,901.3859,return,0.5547,,36.45833333,,,,,,FBP-YG-18.png,0.35,1.2,6,0.5,,,,,,,,,,,,,,,,,,0,32,32,5,1,,,,,,,,,,,,,,,,,,,,,,,
,,,,,V3_066,22,Female,2024-11-15_15h53.41.518,jersey_experiment_5_v3,2023.2.2,Win32,84.74576271,,,,,,,,,,,,,,,,901.3863,902.68,902.68,904.1859,return,0.5782,,14.58333333,,,,,,FBP-YG-17.png,0.35,1.2,1,0.5,,,,,,,,,,,,,,,,,,0,33,33,0,1,,,,,,,,,,,,,,,,,,,,,,,
,,,,,V3_066,22,Female,2024-11-15_15h53.41.518,jersey_experiment_5_v3,2023.2.2,Win32,84.74576271,,,,,,,,,,,,,,,,904.1862,905.4802,905.4803,907.6449,return,0.578,,85.02604167,,,,,,FBP-RB-81.png,0.43,1.2,54,0.5,,,,,,,,,,,,,,,,,,0,34,34,53,1,,,,,,,,,,,,,,,,,,,,,,,
,,,,,V3_066,22,Female,2024-11-15_15h53.41.518,jersey_experiment_5_v3,2023.2.2,Win32,84.74576271,,,,,,,,,,,,,,,,907.6453,908.9391,908.9391,911.7039,return,1.426,,12.36979167,,,,,,FBP-PT-81.png,0.35,1.2,21,0.5,,,,,,,,,,,,,,,,,,0,35,35,20,1,,,,,,,,,,,,,,,,,,,,,,,
,,,,,V3_066,22,Female,2024-11-15_15h53.41.518,jersey_experiment_5_v3,2023.2.2,Win32,84.74576271,,,,,,,,,,,,,,,,911.7041,913.257,913.257,915.2217,return,0.5353,,77.34375,,,,,,FBP-OG-71.png,0.4,1.2,33,0.75,,,,,,,,,,,,,,,,,,0,36,36,32,1,,,,,,,,,,,,,,,,,,,,,,,
,,,,,V3_066,22,Female,2024-11-15_15h53.41.518,jersey_experiment_5_v3,2023.2.2,Win32,84.74576271,,,,,,,,,,,,,,,,915.2222,916.5158,916.5158,918.0922,return,0.6269,,94.79166667,,,,,,FBP-RB-91.png,0.43,1.2,59,0.5,,,,,,,,,,,,,,,,,,0,37,37,58,1,,,,,,,,,,,,,,,,,,,,,,,
,,,,,V3_066,22,Female,2024-11-15_15h53.41.518,jersey_experiment_5_v3,2023.2.2,Win32,84.74576271,,,,,,,,,,,,,,,,918.0925,919.6455,919.6456,922.116,return,0.5467,,52.60416667,,,,,,FBP-OG-91.png,0.37,1.2,42,0.75,,,,,,,,,,,,,,,,,,0,38,38,41,1,,,,,,,,,,,,,,,,,,,,,,,
,,,,,V3_066,22,Female,2024-11-15_15h53.41.518,jersey_experiment_5_v3,2023.2.2,Win32,84.74576271,,,,,,,,,,,,,,,,922.1163,923.4101,923.4102,924.6926,return,0.548,,46.74479167,,,,,,FBP-YG-18.png,0.37,1.2,7,0.5,,,,,,,,,,,,,,,,,,0,39,39,6,1,,,,,,,,,,,,,,,,,,,,,,,
,,,,,V3_066,22,Female,2024-11-15_15h53.41.518,jersey_experiment_5_v3,2023.2.2,Win32,84.74576271,,,,,,,,,,,,,,,,924.6929,925.9866,925.9867,927.7987,return,0.5543,,98.56770833,,,,,,FBP-PT-91.png,0.45,1.2,30,0.5,,,,,,,,,,,,,,,,,,0,40,40,29,1,,,,,,,,,,,,,,,,,,,,,,,
,,,,,V3_066,22,Female,2024-11-15_15h53.41.518,jersey_experiment_5_v3,2023.2.2,Win32,84.74576271,,,,,,,,,,,,,,,,927.7991,929.0926,929.0927,931.2928,return,0.6115,,50.91145833,,,,,,FBP-RB-71.png,0.35,1.2,46,0.5,,,,,,,,,,,,,,,,,,0,41,41,45,1,,,,,,,,,,,,,,,,,,,,,,,
,,,,,V3_066,22,Female,2024-11-15_15h53.41.518,jersey_experiment_5_v3,2023.2.2,Win32,84.74576271,,,,,,,,,,,,,,,,931.2931,932.5871,932.5871,934.3165,return,0.5031,,59.765625,,,,,,FBP-RB-91.png,0.37,1.2,57,0.5,,,,,,,,,,,,,,,,,,0,42,42,56,1,,,,,,,,,,,,,,,,,,,,,,,
,,,,,V3_066,22,Female,2024-11-15_15h53.41.518,jersey_experiment_5_v3,2023.2.2,Win32,84.74576271,,,,,,,,,,,,,,,,934.3168,935.6106,935.6107,936.9637,return,0.5372,,80.59895833,,,,,,FBP-YG-17.png,0.43,1.2,4,0.5,,,,,,,,,,,,,,,,,,0,43,43,3,1,,,,,,,,,,,,,,,,,,,,,,,
,,,,,V3_066,22,Female,2024-11-15_15h53.41.518,jersey_experiment_5_v3,2023.2.2,Win32,84.74576271,,,,,,,,,,,,,,,,936.9639,938.5166,938.5167,939.6106,return,0.5183,,79.03645833,,,,,,FBP-OG-91.png,0.43,1.2,44,0.75,,,,,,,,,,,,,,,,,,0,44,44,43,1,,,,,,,,,,,,,,,,,,,,,,,
,,,,,V3_066,22,Female,2024-11-15_15h53.41.518,jersey_experiment_5_v3,2023.2.2,Win32,84.74576271,,,,,,,,,,,,,,,,939.611,940.9049,940.905,942.7168,return,0.5267,,84.11458333,,,,,,FBP-PT-71.png,0.43,1.2,19,0.5,,,,,,,,,,,,,,,,,,0,45,45,18,1,,,,,,,,,,,,,,,,,,,,,,,
,,,,,V3_066,22,Female,2024-11-15_15h53.41.518,jersey_experiment_5_v3,2023.2.2,Win32,84.74576271,,,,,,,,,,,,,,,,942.7171,944.2699,944.2699,946.4699,return,1.3457,,47.91666667,,,,,,FBP-OG-81.png,0.37,1.2,37,0.75,,,,,,,,,,,,,,,,,,0,46,46,36,1,,,,,,,,,,,,,,,,,,,,,,,
,,,,,V3_066,22,Female,2024-11-15_15h53.41.518,jersey_experiment_5_v3,2023.2.2,Win32,84.74576271,,,,,,,,,,,,,,,,946.4701,948.0228,948.0229,949.317,return,0.5123,,36.97916667,,,,,,FBP-OG-71.png,0.35,1.2,31,0.75,,,,,,,,,,,,,,,,,,0,47,47,30,1,,,,,,,,,,,,,,,,,,,,,,,
,,,,,V3_066,22,Female,2024-11-15_15h53.41.518,jersey_experiment_5_v3,2023.2.2,Win32,84.74576271,,,,,,,,,,,,,,,,949.3172,950.6112,950.6113,951.8349,return,0.4913,,29.42708333,,,,,,FBP-PT-71.png,0.37,1.2,17,0.5,,,,,,,,,,,,,,,,,,0,48,48,16,1,,,,,,,,,,,,,,,,,,,,,,,
,,,,,V3_066,22,Female,2024-11-15_15h53.41.518,jersey_experiment_5_v3,2023.2.2,Win32,84.74576271,,,,,,,,,,,,,,,,951.8352,953.1289,953.129,954.8584,return,1.0696,,28.90625,,,,,,FBP-PT-81.png,0.37,1.2,22,0.5,,,,,,,,,,,,,,,,,,0,49,49,21,1,,,,,,,,,,,,,,,,,,,,,,,
,,,,,V3_066,22,Female,2024-11-15_15h53.41.518,jersey_experiment_5_v3,2023.2.2,Win32,84.74576271,,,,,,,,,,,,,,,,954.8587,956.1526,956.1527,958.8704,return,0.4971,,52.21354167,,,,,,FBP-YG-18.png,0.4,1.2,8,0.5,,,,,,,,,,,,,,,,,,0,50,50,7,1,,,,,,,,,,,,,,,,,,,,,,,
,,,,,V3_066,22,Female,2024-11-15_15h53.41.518,jersey_experiment_5_v3,2023.2.2,Win32,84.74576271,,,,,,,,,,,,,,,,958.8707,960.4234,960.4234,962.294,return,0.4996,,63.80208333,,,,,,FBP-OG-81.png,0.43,1.2,39,0.75,,,,,,,,,,,,,,,,,,0,51,51,38,1,,,,,,,,,,,,,,,,,,,,,,,
,,,,,V3_066,22,Female,2024-11-15_15h53.41.518,jersey_experiment_5_v3,2023.2.2,Win32,84.74576271,,,,,,,,,,,,,,,,962.2943,963.5882,963.5882,966.1412,return,0.5642,,47.265625,,,,,,FBP-RB-81.png,0.37,1.2,52,0.5,,,,,,,,,,,,,,,,,,0,52,52,51,1,,,,,,,,,,,,,,,,,,,,,,,
,,,,,V3_066,22,Female,2024-11-15_15h53.41.518,jersey_experiment_5_v3,2023.2.2,Win32,84.74576271,,,,,,,,,,,,,,,,966.1415,967.4355,967.4355,969.3177,return,0.5926,,90.625,,,,,,FBP-PT-81.png,0.45,1.2,25,0.5,,,,,,,,,,,,,,,,,,0,53,53,24,1,,,,,,,,,,,,,,,,,,,,,,,
,,,,,V3_066,22,Female,2024-11-15_15h53.41.518,jersey_experiment_5_v3,2023.2.2,Win32,84.74576271,,,,,,,,,,,,,,,,969.3179,970.6119,970.612,972.6356,return,0.9424,,45.05208333,,,,,,FBP-PT-81.png,0.4,1.2,23,0.5,,,,,,,,,,,,,,,,,,0,54,54,22,1,,,,,,,,,,,,,,,,,,,,,,,
,,,,,V3_066,22,Female,2024-11-15_15h53.41.518,jersey_experiment_5_v3,2023.2.2,Win32,84.74576271,,,,,,,,,,,,,,,,972.6358,973.9296,973.9297,975.9416,return,0.5702,,39.97395833,,,,,,FBP-YG-17.png,0.37,1.2,2,0.5,,,,,,,,,,,,,,,,,,0,55,55,1,1,,,,,,,,,,,,,,,,,,,,,,,
,,,,,V3_066,22,Female,2024-11-15_15h53.41.518,jersey_experiment_5_v3,2023.2.2,Win32,84.74576271,,,,,,,,,,,,,,,,975.9418,977.2357,977.2357,979.4121,return,0.9235,,85.41666667,,,,,,FBP-PT-91.png,0.43,1.2,29,0.5,,,,,,,,,,,,,,,,,,0,56,56,28,1,,,,,,,,,,,,,,,,,,,,,,,
,,,,,V3_066,22,Female,2024-11-15_15h53.41.518,jersey_experiment_5_v3,2023.2.2,Win32,84.74576271,,,,,,,,,,,,,,,,979.4125,980.7064,980.7065,982.3418,return,0.5705,,93.88020833,,,,,,FBP-YG-18.png,0.45,1.2,10,0.5,,,,,,,,,,,,,,,,,,0,57,57,9,1,,,,,,,,,,,,,,,,,,,,,,,
,,,,,V3_066,22,Female,2024-11-15_15h53.41.518,jersey_experiment_5_v3,2023.2.2,Win32,84.74576271,,,,,,,,,,,,,,,,982.342,983.6359,983.6359,986.0243,return,1.3562,,67.83854167,,,,,,FBP-PT-91.png,0.4,1.2,28,0.5,,,,,,,,,,,,,,,,,,0,58,58,27,1,,,,,,,,,,,,,,,,,,,,,,,
,,,,,V3_066,22,Female,2024-11-15_15h53.41.518,jersey_experiment_5_v3,2023.2.2,Win32,84.74576271,,,,,,,,,,,,,,,,986.0245,987.5773,987.5773,988.8361,return,0.572,,81.77083333,,,,,,FBP-OG-71.png,0.43,1.2,34,0.75,,,,,,,,,,,,,,,,,,0,59,59,33,1,,,,,,,,,,,,,,,,,,,,,,,
,,,,,V3_066,22,Female,2024-11-15_15h53.41.518,jersey_experiment_5_v3,2023.2.2,Win32,84.74576271,,,,,,,,,,,,,,,,,,,,,,,,,,,,,,,,,,,,,,,,,,,,,,,,,,,,,,,,988.8364,993.9423,return,5.0959,,,,,,,,,,,,,,,,,,,
,,,,,V3_066,22,Female,2024-11-15_15h53.41.518,jersey_experiment_5_v3,2023.2.2,Win32,84.74576271,,,,,,,,,,,,,,,,,,,,,,,,,,,,,,,,,,,,,,,,,,,,,,,,,,,,,,,,,,,,,993.9424,998.166,1,2.7123,return,1.4991,,,,,,,,,,,,
,,,,,V3_066,22,Female,2024-11-15_15h53.41.518,jersey_experiment_5_v3,2023.2.2,Win32,84.74576271,,,,,,,,,,,,,,,,,,,,,,,,,,,,,,,,,,,,,,,,,,,,,,,,,,,,,,,,,,,,,,,,,,,,998.1662,1059.8866,"I do wonder if the experiment has anything to do with the colors of the skin and jerseys or with the ordering of the numbers on the jerseys (91 vs 19) and how we perceive thinness or wideness, but I'm not sure. ",right,55.6871,,,,,,
,,,,,V3_066,22,Female,2024-11-15_15h53.41.518,jersey_experiment_5_v3,2023.2.2,Win32,84.74576271,,,,,,,,,,,,,,,,,,,,,,,,,,,,,,,,,,,,,,,,,,,,,,,,,,,,,,,,,,,,,,,,,,,,,,,,,,1059.8867,1062.4862,return,2.5916,