requirements.started,requirements.stopped,key_resp_3.keys,key_resp_3.rt,key_resp_3.duration,Subject ID,Age,Gender,date,expName,psychopyVersion,OS,frameRate,instructions1.started,instructions1.stopped,key_resp.keys,key_resp.rt,key_resp.duration,example.started,example.stopped,enter_2.keys,enter_2.rt,enter_2.duration,instructions2.started,instructions2.stopped,enter_3.keys,enter_3.rt,enter_3.duration,image.started,image.stopped,slider_2.started,slider_2.stopped,next.keys,next.rt,next.duration,slider.response,trial_block_1.thisRepN,trial_block_1.thisTrialN,trial_block_1.thisN,trial_block_1.thisIndex,trial_block_1.ran,Path,Width,Height,Index,Duration,trial_block_2.thisRepN,trial_block_2.thisTrialN,trial_block_2.thisN,trial_block_2.thisIndex,trial_block_2.ran,rest_break.started,rest_break.stopped,end_break.started,end_break.stopped,key_resp_5.keys,key_resp_5.rt,key_resp_5.duration,trial_block_3.thisRepN,trial_block_3.thisTrialN,trial_block_3.thisN,trial_block_3.thisIndex,trial_block_3.ran,trial_block_4.thisRepN,trial_block_4.thisTrialN,trial_block_4.thisN,trial_block_4.thisIndex,trial_block_4.ran,questions_intro.started,questions_intro.stopped,enter_12.keys,enter_12.rt,enter_12.duration,question2.started,question2.stopped,question_doingbest.response,question_doingbest.rt,enter_15.keys,enter_15.rt,enter_15.duration,pattern.started,pattern.stopped,pattern_2.text,enter_17.keys,enter_17.rt,enter_17.duration,thankyou.started,thankyou.stopped,enter_14.keys,enter_14.rt,enter_14.duration
0,9.3742,return,9.369,,V3_051,22,female,2024-11-05_16h52.05.667,jersey_experiment_5_v3,2023.2.2,Win32,84.74576271,,,,,,,,,,,,,,,,,,,,,,,,,,,,,,,,,,,,,,,,,,,,,,,,,,,,,,,,,,,,,,,,,,,,,,,,,,,,,,
,,,,,V3_051,22,female,2024-11-05_16h52.05.667,jersey_experiment_5_v3,2023.2.2,Win32,84.74576271,9.3743,16.1811,return,6.7916,,,,,,,,,,,,,,,,,,,,,,,,,,,,,,,,,,,,,,,,,,,,,,,,,,,,,,,,,,,,,,,,,,,,,,,,,,
,,,,,V3_051,22,female,2024-11-05_16h52.05.667,jersey_experiment_5_v3,2023.2.2,Win32,84.74576271,,,,,,16.1812,22.2923,return,6.079,,,,,,,,,,,,,,,,,,,,,,,,,,,,,,,,,,,,,,,,,,,,,,,,,,,,,,,,,,,,,,,,,,,,,
,,,,,V3_051,22,female,2024-11-05_16h52.05.667,jersey_experiment_5_v3,2023.2.2,Win32,84.74576271,,,,,,,,,,,22.2924,36.3517,return,14.049,,,,,,,,,,,,,,,,,,,,,,,,,,,,,,,,,,,,,,,,,,,,,,,,,,,,,,,,,,,,,,,,
,,,,,V3_051,22,female,2024-11-05_16h52.05.667,jersey_experiment_5_v3,2023.2.2,Win32,84.74576271,,,,,,,,,,,,,,,,36.3537,37.9046,37.9047,45.6932,return,4.7495,,75.78125,0,0,0,24,1,FBP-PT-18.png,0.45,1.2,25,0.75,,,,,,,,,,,,,,,,,,,,,,,,,,,,,,,,,,,,,,,,,,,,,
,,,,,V3_051,22,female,2024-11-05_16h52.05.667,jersey_experiment_5_v3,2023.2.2,Win32,84.74576271,,,,,,,,,,,,,,,,45.6935,46.9875,46.9875,49.6461,return,1.1951,,49.86979167,0,1,1,43,1,FBP-OG-19.png,0.43,1.2,44,0.5,,,,,,,,,,,,,,,,,,,,,,,,,,,,,,,,,,,,,,,,,,,,,
,,,,,V3_051,22,female,2024-11-05_16h52.05.667,jersey_experiment_5_v3,2023.2.2,Win32,84.74576271,,,,,,,,,,,,,,,,49.6464,51.1992,51.1992,53.1523,return,0.4877,,26.82291667,0,2,2,0,1,FBP-YG-71.png,0.35,1.2,1,0.75,,,,,,,,,,,,,,,,,,,,,,,,,,,,,,,,,,,,,,,,,,,,,
,,,,,V3_051,22,female,2024-11-05_16h52.05.667,jersey_experiment_5_v3,2023.2.2,Win32,84.74576271,,,,,,,,,,,,,,,,53.1526,54.4464,54.4464,57.0229,return,0.2986,,50.91145833,0,3,3,32,1,FBP-OG-17.png,0.4,1.2,33,0.5,,,,,,,,,,,,,,,,,,,,,,,,,,,,,,,,,,,,,,,,,,,,,
,,,,,V3_051,22,female,2024-11-05_16h52.05.667,jersey_experiment_5_v3,2023.2.2,Win32,84.74576271,,,,,,,,,,,,,,,,57.0232,58.5759,58.5759,60.0348,return,0.2948,,48.4375,0,4,4,56,1,FBP-RB-19.png,0.37,1.2,57,0.75,,,,,,,,,,,,,,,,,,,,,,,,,,,,,,,,,,,,,,,,,,,,,
,,,,,V3_051,22,female,2024-11-05_16h52.05.667,jersey_experiment_5_v3,2023.2.2,Win32,84.74576271,,,,,,,,,,,,,,,,60.0351,61.329,61.3291,62.6231,return,0.2178,,74.73958333,0,5,5,39,1,FBP-OG-18.png,0.45,1.2,40,0.5,,,,,,,,,,,,,,,,,,,,,,,,,,,,,,,,,,,,,,,,,,,,,
,,,,,V3_051,22,female,2024-11-05_16h52.05.667,jersey_experiment_5_v3,2023.2.2,Win32,84.74576271,,,,,,,,,,,,,,,,62.6234,63.9173,63.9174,65.6351,return,0.7555,,74.47916667,0,6,6,37,1,FBP-OG-18.png,0.4,1.2,38,0.5,,,,,,,,,,,,,,,,,,,,,,,,,,,,,,,,,,,,,,,,,,,,,
,,,,,V3_051,22,female,2024-11-05_16h52.05.667,jersey_experiment_5_v3,2023.2.2,Win32,84.74576271,,,,,,,,,,,,,,,,65.6353,67.188,67.188,68.6233,return,0.2962,,25.78125,0,7,7,26,1,FBP-PT-19.png,0.37,1.2,27,0.75,,,,,,,,,,,,,,,,,,,,,,,,,,,,,,,,,,,,,,,,,,,,,
,,,,,V3_051,22,female,2024-11-05_16h52.05.667,jersey_experiment_5_v3,2023.2.2,Win32,84.74576271,,,,,,,,,,,,,,,,68.6238,70.1764,70.1765,71.4588,return,0.2831,,25.390625,0,8,8,20,1,FBP-PT-18.png,0.35,1.2,21,0.75,,,,,,,,,,,,,,,,,,,,,,,,,,,,,,,,,,,,,,,,,,,,,
,,,,,V3_051,22,female,2024-11-05_16h52.05.667,jersey_experiment_5_v3,2023.2.2,Win32,84.74576271,,,,,,,,,,,,,,,,71.459,73.0117,73.0117,75.2354,return,0.943,,75.390625,0,9,9,3,1,FBP-YG-71.png,0.43,1.2,4,0.75,,,,,,,,,,,,,,,,,,,,,,,,,,,,,,,,,,,,,,,,,,,,,
,,,,,V3_051,22,female,2024-11-05_16h52.05.667,jersey_experiment_5_v3,2023.2.2,Win32,84.74576271,,,,,,,,,,,,,,,,75.2357,76.7883,76.7883,79.2002,return,0.8031,,50.91145833,0,10,10,5,1,FBP-YG-81.png,0.35,1.2,6,0.75,,,,,,,,,,,,,,,,,,,,,,,,,,,,,,,,,,,,,,,,,,,,,
,,,,,V3_051,22,female,2024-11-05_16h52.05.667,jersey_experiment_5_v3,2023.2.2,Win32,84.74576271,,,,,,,,,,,,,,,,79.2005,80.4943,80.4944,81.7415,return,0.2784,,25,0,11,11,40,1,FBP-OG-19.png,0.35,1.2,41,0.5,,,,,,,,,,,,,,,,,,,,,,,,,,,,,,,,,,,,,,,,,,,,,
,,,,,V3_051,22,female,2024-11-05_16h52.05.667,jersey_experiment_5_v3,2023.2.2,Win32,84.74576271,,,,,,,,,,,,,,,,81.7417,83.2945,83.2945,84.224,return,0.217,,25.390625,0,12,12,57,1,FBP-RB-19.png,0.4,1.2,58,0.75,,,,,,,,,,,,,,,,,,,,,,,,,,,,,,,,,,,,,,,,,,,,,
,,,,,V3_051,22,female,2024-11-05_16h52.05.667,jersey_experiment_5_v3,2023.2.2,Win32,84.74576271,,,,,,,,,,,,,,,,84.2243,85.5181,85.5182,87.1417,return,0.2353,,1.171875,0,13,13,35,1,FBP-OG-18.png,0.35,1.2,36,0.5,,,,,,,,,,,,,,,,,,,,,,,,,,,,,,,,,,,,,,,,,,,,,
,,,,,V3_051,22,female,2024-11-05_16h52.05.667,jersey_experiment_5_v3,2023.2.2,Win32,84.74576271,,,,,,,,,,,,,,,,87.142,88.6946,88.6947,89.8241,return,0.2167,,23.4375,0,14,14,12,1,FBP-YG-91.png,0.4,1.2,13,0.75,,,,,,,,,,,,,,,,,,,,,,,,,,,,,,,,,,,,,,,,,,,,,
,,,,,V3_051,22,female,2024-11-05_16h52.05.667,jersey_experiment_5_v3,2023.2.2,Win32,84.74576271,,,,,,,,,,,,,,,,89.8244,91.3771,91.3772,92.4715,return,0.1909,,50.52083333,0,15,15,29,1,FBP-PT-19.png,0.45,1.2,30,0.75,,,,,,,,,,,,,,,,,,,,,,,,,,,,,,,,,,,,,,,,,,,,,
,,,,,V3_051,22,female,2024-11-05_16h52.05.667,jersey_experiment_5_v3,2023.2.2,Win32,84.74576271,,,,,,,,,,,,,,,,92.4717,93.7654,93.7655,94.7185,return,0.2187,,25.91145833,0,16,16,30,1,FBP-OG-17.png,0.35,1.2,31,0.5,,,,,,,,,,,,,,,,,,,,,,,,,,,,,,,,,,,,,,,,,,,,,
,,,,,V3_051,22,female,2024-11-05_16h52.05.667,jersey_experiment_5_v3,2023.2.2,Win32,84.74576271,,,,,,,,,,,,,,,,94.719,96.2716,96.2717,98.1657,return,1.3414,,0.130208333,0,17,17,45,1,FBP-RB-17.png,0.35,1.2,46,0.75,,,,,,,,,,,,,,,,,,,,,,,,,,,,,,,,,,,,,,,,,,,,,
,,,,,V3_051,22,female,2024-11-05_16h52.05.667,jersey_experiment_5_v3,2023.2.2,Win32,84.74576271,,,,,,,,,,,,,,,,98.166,99.7185,99.7185,101.1422,return,0.3061,,0.390625,0,18,18,11,1,FBP-YG-91.png,0.37,1.2,12,0.75,,,,,,,,,,,,,,,,,,,,,,,,,,,,,,,,,,,,,,,,,,,,,
,,,,,V3_051,22,female,2024-11-05_16h52.05.667,jersey_experiment_5_v3,2023.2.2,Win32,84.74576271,,,,,,,,,,,,,,,,101.1424,102.6952,102.6952,104.0129,return,0.2198,,25.65104167,0,19,19,52,1,FBP-RB-18.png,0.4,1.2,53,0.75,,,,,,,,,,,,,,,,,,,,,,,,,,,,,,,,,,,,,,,,,,,,,
,,,,,V3_051,22,female,2024-11-05_16h52.05.667,jersey_experiment_5_v3,2023.2.2,Win32,84.74576271,,,,,,,,,,,,,,,,104.0132,105.307,105.3071,106.0129,return,0.2199,,25.26041667,0,20,20,36,1,FBP-OG-18.png,0.37,1.2,37,0.5,,,,,,,,,,,,,,,,,,,,,,,,,,,,,,,,,,,,,,,,,,,,,
,,,,,V3_051,22,female,2024-11-05_16h52.05.667,jersey_experiment_5_v3,2023.2.2,Win32,84.74576271,,,,,,,,,,,,,,,,106.0131,107.566,107.566,108.6601,return,0.1885,,49.34895833,0,21,21,14,1,FBP-YG-91.png,0.45,1.2,15,0.75,,,,,,,,,,,,,,,,,,,,,,,,,,,,,,,,,,,,,,,,,,,,,
,,,,,V3_051,22,female,2024-11-05_16h52.05.667,jersey_experiment_5_v3,2023.2.2,Win32,84.74576271,,,,,,,,,,,,,,,,108.6604,109.9542,109.9542,111.0248,return,0.263,,48.56770833,0,22,22,44,1,FBP-OG-19.png,0.45,1.2,45,0.5,,,,,,,,,,,,,,,,,,,,,,,,,,,,,,,,,,,,,,,,,,,,,
,,,,,V3_051,22,female,2024-11-05_16h52.05.667,jersey_experiment_5_v3,2023.2.2,Win32,84.74576271,,,,,,,,,,,,,,,,111.0251,112.578,112.5781,113.8723,return,0.2282,,0.520833333,0,23,23,55,1,FBP-RB-19.png,0.35,1.2,56,0.75,,,,,,,,,,,,,,,,,,,,,,,,,,,,,,,,,,,,,,,,,,,,,
,,,,,V3_051,22,female,2024-11-05_16h52.05.667,jersey_experiment_5_v3,2023.2.2,Win32,84.74576271,,,,,,,,,,,,,,,,113.8726,115.4252,115.4252,116.8959,return,0.3701,,75.78125,0,24,24,48,1,FBP-RB-17.png,0.43,1.2,49,0.75,,,,,,,,,,,,,,,,,,,,,,,,,,,,,,,,,,,,,,,,,,,,,
,,,,,V3_051,22,female,2024-11-05_16h52.05.667,jersey_experiment_5_v3,2023.2.2,Win32,84.74576271,,,,,,,,,,,,,,,,116.8961,118.4488,118.4488,120.0134,return,0.2514,,25.91145833,0,25,25,53,1,FBP-RB-18.png,0.43,1.2,54,0.75,,,,,,,,,,,,,,,,,,,,,,,,,,,,,,,,,,,,,,,,,,,,,
,,,,,V3_051,22,female,2024-11-05_16h52.05.667,jersey_experiment_5_v3,2023.2.2,Win32,84.74576271,,,,,,,,,,,,,,,,120.0135,121.5547,121.5548,122.79,return,0.4113,,1.171875,0,26,26,25,1,FBP-PT-19.png,0.35,1.2,26,0.75,,,,,,,,,,,,,,,,,,,,,,,,,,,,,,,,,,,,,,,,,,,,,
,,,,,V3_051,22,female,2024-11-05_16h52.05.667,jersey_experiment_5_v3,2023.2.2,Win32,84.74576271,,,,,,,,,,,,,,,,122.7902,124.3315,124.3315,125.602,return,0.2979,,1.171875,0,27,27,6,1,FBP-YG-81.png,0.37,1.2,7,0.75,,,,,,,,,,,,,,,,,,,,,,,,,,,,,,,,,,,,,,,,,,,,,
,,,,,V3_051,22,female,2024-11-05_16h52.05.667,jersey_experiment_5_v3,2023.2.2,Win32,84.74576271,,,,,,,,,,,,,,,,125.6022,127.1549,127.155,129.8843,return,1.7016,,25.13020833,0,28,28,7,1,FBP-YG-81.png,0.4,1.2,8,0.75,,,,,,,,,,,,,,,,,,,,,,,,,,,,,,,,,,,,,,,,,,,,,
,,,,,V3_051,22,female,2024-11-05_16h52.05.667,jersey_experiment_5_v3,2023.2.2,Win32,84.74576271,,,,,,,,,,,,,,,,129.8845,131.4373,131.4373,132.414,return,0.1719,,50.26041667,0,29,29,58,1,FBP-RB-19.png,0.43,1.2,59,0.75,,,,,,,,,,,,,,,,,,,,,,,,,,,,,,,,,,,,,,,,,,,,,
,,,,,V3_051,22,female,2024-11-05_16h52.05.667,jersey_experiment_5_v3,2023.2.2,Win32,84.74576271,,,,,,,,,,,,,,,,132.4141,133.9671,133.9671,135.0257,return,0.1525,,50.78125,0,30,30,19,1,FBP-PT-17.png,0.45,1.2,20,0.75,,,,,,,,,,,,,,,,,,,,,,,,,,,,,,,,,,,,,,,,,,,,,
,,,,,V3_051,22,female,2024-11-05_16h52.05.667,jersey_experiment_5_v3,2023.2.2,Win32,84.74576271,,,,,,,,,,,,,,,,135.026,136.5671,136.5672,137.52,return,0.1462,,26.30208333,0,31,31,22,1,FBP-PT-18.png,0.4,1.2,23,0.75,,,,,,,,,,,,,,,,,,,,,,,,,,,,,,,,,,,,,,,,,,,,,
,,,,,V3_051,22,female,2024-11-05_16h52.05.667,jersey_experiment_5_v3,2023.2.2,Win32,84.74576271,,,,,,,,,,,,,,,,137.5202,139.073,139.0732,140.0378,return,0.3531,,49.08854167,0,32,32,13,1,FBP-YG-91.png,0.43,1.2,14,0.75,,,,,,,,,,,,,,,,,,,,,,,,,,,,,,,,,,,,,,,,,,,,,
,,,,,V3_051,22,female,2024-11-05_16h52.05.667,jersey_experiment_5_v3,2023.2.2,Win32,84.74576271,,,,,,,,,,,,,,,,140.0381,141.5908,141.5909,142.8496,return,0.18,,76.30208333,0,33,33,4,1,FBP-YG-71.png,0.45,1.2,5,0.75,,,,,,,,,,,,,,,,,,,,,,,,,,,,,,,,,,,,,,,,,,,,,
,,,,,V3_051,22,female,2024-11-05_16h52.05.667,jersey_experiment_5_v3,2023.2.2,Win32,84.74576271,,,,,,,,,,,,,,,,142.8499,144.4026,144.4027,145.4143,return,0.2268,,48.95833333,0,34,34,54,1,FBP-RB-18.png,0.45,1.2,55,0.75,,,,,,,,,,,,,,,,,,,,,,,,,,,,,,,,,,,,,,,,,,,,,
,,,,,V3_051,22,female,2024-11-05_16h52.05.667,jersey_experiment_5_v3,2023.2.2,Win32,84.74576271,,,,,,,,,,,,,,,,145.4146,146.9676,146.9676,147.838,return,0.2069,,23.69791667,0,35,35,2,1,FBP-YG-71.png,0.4,1.2,3,0.75,,,,,,,,,,,,,,,,,,,,,,,,,,,,,,,,,,,,,,,,,,,,,
,,,,,V3_051,22,female,2024-11-05_16h52.05.667,jersey_experiment_5_v3,2023.2.2,Win32,84.74576271,,,,,,,,,,,,,,,,147.8383,149.1322,149.1322,150.1911,return,0.1594,,50.26041667,0,36,36,34,1,FBP-OG-17.png,0.45,1.2,35,0.5,,,,,,,,,,,,,,,,,,,,,,,,,,,,,,,,,,,,,,,,,,,,,
,,,,,V3_051,22,female,2024-11-05_16h52.05.667,jersey_experiment_5_v3,2023.2.2,Win32,84.74576271,,,,,,,,,,,,,,,,150.1913,151.7441,151.7442,153.0264,return,0.2852,,0.260416667,0,37,37,16,1,FBP-PT-17.png,0.37,1.2,17,0.75,,,,,,,,,,,,,,,,,,,,,,,,,,,,,,,,,,,,,,,,,,,,,
,,,,,V3_051,22,female,2024-11-05_16h52.05.667,jersey_experiment_5_v3,2023.2.2,Win32,84.74576271,,,,,,,,,,,,,,,,153.0267,154.5797,154.5797,174.6861,return,0.7818,,2.213541667,0,38,38,17,1,FBP-PT-17.png,0.4,1.2,18,0.75,,,,,,,,,,,,,,,,,,,,,,,,,,,,,,,,,,,,,,,,,,,,,
,,,,,V3_051,22,female,2024-11-05_16h52.05.667,jersey_experiment_5_v3,2023.2.2,Win32,84.74576271,,,,,,,,,,,,,,,,174.6864,176.2392,176.2392,177.5685,return,0.2248,,4.296875,0,39,39,47,1,FBP-RB-17.png,0.4,1.2,48,0.75,,,,,,,,,,,,,,,,,,,,,,,,,,,,,,,,,,,,,,,,,,,,,
,,,,,V3_051,22,female,2024-11-05_16h52.05.667,jersey_experiment_5_v3,2023.2.2,Win32,84.74576271,,,,,,,,,,,,,,,,177.5689,179.1217,179.1217,179.9803,return,0.2431,,1.953125,0,40,40,21,1,FBP-PT-18.png,0.37,1.2,22,0.75,,,,,,,,,,,,,,,,,,,,,,,,,,,,,,,,,,,,,,,,,,,,,
,,,,,V3_051,22,female,2024-11-05_16h52.05.667,jersey_experiment_5_v3,2023.2.2,Win32,84.74576271,,,,,,,,,,,,,,,,179.9805,181.5335,181.5335,182.6394,return,0.2137,,48.046875,0,41,41,28,1,FBP-PT-19.png,0.43,1.2,29,0.75,,,,,,,,,,,,,,,,,,,,,,,,,,,,,,,,,,,,,,,,,,,,,
,,,,,V3_051,22,female,2024-11-05_16h52.05.667,jersey_experiment_5_v3,2023.2.2,Win32,84.74576271,,,,,,,,,,,,,,,,182.6396,183.9334,183.9335,185.1217,return,0.1292,,25.390625,0,42,42,33,1,FBP-OG-17.png,0.43,1.2,34,0.5,,,,,,,,,,,,,,,,,,,,,,,,,,,,,,,,,,,,,,,,,,,,,
,,,,,V3_051,22,female,2024-11-05_16h52.05.667,jersey_experiment_5_v3,2023.2.2,Win32,84.74576271,,,,,,,,,,,,,,,,185.1219,186.6747,186.6748,187.9806,return,0.1143,,3.645833333,0,43,43,18,1,FBP-PT-17.png,0.43,1.2,19,0.75,,,,,,,,,,,,,,,,,,,,,,,,,,,,,,,,,,,,,,,,,,,,,
,,,,,V3_051,22,female,2024-11-05_16h52.05.667,jersey_experiment_5_v3,2023.2.2,Win32,84.74576271,,,,,,,,,,,,,,,,187.9809,189.5339,189.5339,190.4161,return,0.1564,,2.473958333,0,44,44,1,1,FBP-YG-71.png,0.37,1.2,2,0.75,,,,,,,,,,,,,,,,,,,,,,,,,,,,,,,,,,,,,,,,,,,,,
,,,,,V3_051,22,female,2024-11-05_16h52.05.667,jersey_experiment_5_v3,2023.2.2,Win32,84.74576271,,,,,,,,,,,,,,,,190.4163,191.9691,191.9691,192.8632,return,0.2176,,2.864583333,0,45,45,51,1,FBP-RB-18.png,0.37,1.2,52,0.75,,,,,,,,,,,,,,,,,,,,,,,,,,,,,,,,,,,,,,,,,,,,,
,,,,,V3_051,22,female,2024-11-05_16h52.05.667,jersey_experiment_5_v3,2023.2.2,Win32,84.74576271,,,,,,,,,,,,,,,,192.8635,194.1574,194.1575,194.9456,return,0.2035,,3.125,0,46,46,42,1,FBP-OG-19.png,0.4,1.2,43,0.5,,,,,,,,,,,,,,,,,,,,,,,,,,,,,,,,,,,,,,,,,,,,,
,,,,,V3_051,22,female,2024-11-05_16h52.05.667,jersey_experiment_5_v3,2023.2.2,Win32,84.74576271,,,,,,,,,,,,,,,,194.9459,196.4987,196.4987,197.2634,return,0.2255,,3.125,0,47,47,10,1,FBP-YG-91.png,0.35,1.2,11,0.75,,,,,,,,,,,,,,,,,,,,,,,,,,,,,,,,,,,,,,,,,,,,,
,,,,,V3_051,22,female,2024-11-05_16h52.05.667,jersey_experiment_5_v3,2023.2.2,Win32,84.74576271,,,,,,,,,,,,,,,,197.2636,198.8165,198.8166,200.7224,return,1.0851,,64.71354167,0,48,48,9,1,FBP-YG-81.png,0.45,1.2,10,0.75,,,,,,,,,,,,,,,,,,,,,,,,,,,,,,,,,,,,,,,,,,,,,
,,,,,V3_051,22,female,2024-11-05_16h52.05.667,jersey_experiment_5_v3,2023.2.2,Win32,84.74576271,,,,,,,,,,,,,,,,200.7226,202.0165,202.0165,203.2282,return,0.1148,,24.86979167,0,49,49,38,1,FBP-OG-18.png,0.43,1.2,39,0.5,,,,,,,,,,,,,,,,,,,,,,,,,,,,,,,,,,,,,,,,,,,,,
,,,,,V3_051,22,female,2024-11-05_16h52.05.667,jersey_experiment_5_v3,2023.2.2,Win32,84.74576271,,,,,,,,,,,,,,,,203.2285,204.7814,204.7814,205.9225,return,0.1432,,13.80208333,0,50,50,15,1,FBP-PT-17.png,0.35,1.2,16,0.75,,,,,,,,,,,,,,,,,,,,,,,,,,,,,,,,,,,,,,,,,,,,,
,,,,,V3_051,22,female,2024-11-05_16h52.05.667,jersey_experiment_5_v3,2023.2.2,Win32,84.74576271,,,,,,,,,,,,,,,,205.9228,207.2168,207.2168,208.0167,return,0.2237,,9.114583333,0,51,51,41,1,FBP-OG-19.png,0.37,1.2,42,0.5,,,,,,,,,,,,,,,,,,,,,,,,,,,,,,,,,,,,,,,,,,,,,
,,,,,V3_051,22,female,2024-11-05_16h52.05.667,jersey_experiment_5_v3,2023.2.2,Win32,84.74576271,,,,,,,,,,,,,,,,208.017,209.5698,209.5698,210.5816,return,0.2121,,94.40104167,0,52,52,49,1,FBP-RB-17.png,0.45,1.2,50,0.75,,,,,,,,,,,,,,,,,,,,,,,,,,,,,,,,,,,,,,,,,,,,,
,,,,,V3_051,22,female,2024-11-05_16h52.05.667,jersey_experiment_5_v3,2023.2.2,Win32,84.74576271,,,,,,,,,,,,,,,,210.5818,212.1347,212.1347,214.3111,return,1.4591,,11.45833333,0,53,53,50,1,FBP-RB-18.png,0.35,1.2,51,0.75,,,,,,,,,,,,,,,,,,,,,,,,,,,,,,,,,,,,,,,,,,,,,
,,,,,V3_051,22,female,2024-11-05_16h52.05.667,jersey_experiment_5_v3,2023.2.2,Win32,84.74576271,,,,,,,,,,,,,,,,214.3112,215.6051,215.6052,216.9464,return,0.2047,,25,0,54,54,31,1,FBP-OG-17.png,0.37,1.2,32,0.5,,,,,,,,,,,,,,,,,,,,,,,,,,,,,,,,,,,,,,,,,,,,,
,,,,,V3_051,22,female,2024-11-05_16h52.05.667,jersey_experiment_5_v3,2023.2.2,Win32,84.74576271,,,,,,,,,,,,,,,,216.9466,218.4997,218.4997,219.6996,return,0.7282,,49.73958333,0,55,55,27,1,FBP-PT-19.png,0.4,1.2,28,0.75,,,,,,,,,,,,,,,,,,,,,,,,,,,,,,,,,,,,,,,,,,,,,
,,,,,V3_051,22,female,2024-11-05_16h52.05.667,jersey_experiment_5_v3,2023.2.2,Win32,84.74576271,,,,,,,,,,,,,,,,219.6998,221.2526,221.2527,222.2761,return,0.2362,,87.23958333,0,56,56,23,1,FBP-PT-18.png,0.43,1.2,24,0.75,,,,,,,,,,,,,,,,,,,,,,,,,,,,,,,,,,,,,,,,,,,,,
,,,,,V3_051,22,female,2024-11-05_16h52.05.667,jersey_experiment_5_v3,2023.2.2,Win32,84.74576271,,,,,,,,,,,,,,,,222.2765,223.8291,223.8292,225.4763,return,0.3848,,64.32291667,0,57,57,8,1,FBP-YG-81.png,0.43,1.2,9,0.75,,,,,,,,,,,,,,,,,,,,,,,,,,,,,,,,,,,,,,,,,,,,,
,,,,,V3_051,22,female,2024-11-05_16h52.05.667,jersey_experiment_5_v3,2023.2.2,Win32,84.74576271,,,,,,,,,,,,,,,,225.4766,227.0293,227.0293,227.9589,return,0.2593,,18.359375,0,58,58,46,1,FBP-RB-17.png,0.37,1.2,47,0.75,,,,,,,,,,,,,,,,,,,,,,,,,,,,,,,,,,,,,,,,,,,,,
,,,,,V3_051,22,female,2024-11-05_16h52.05.667,jersey_experiment_5_v3,2023.2.2,Win32,84.74576271,,,,,,,,,,,,,,,,227.9591,229.5118,229.5119,231.2294,return,1.0412,,90.88541667,0,59,59,59,1,FBP-RB-19.png,0.45,1.2,60,0.75,,,,,,,,,,,,,,,,,,,,,,,,,,,,,,,,,,,,,,,,,,,,,
,,,,,V3_051,22,female,2024-11-05_16h52.05.667,jersey_experiment_5_v3,2023.2.2,Win32,84.74576271,,,,,,,,,,,,,,,,231.2316,232.7826,232.7826,234.1001,return,0.2601,,74.08854167,,,,,,FBP-RB-91.png,0.4,1.2,58,0.75,0,0,0,57,1,,,,,,,,,,,,,,,,,,,,,,,,,,,,,,,,,,,,,,,,
,,,,,V3_051,22,female,2024-11-05_16h52.05.667,jersey_experiment_5_v3,2023.2.2,Win32,84.74576271,,,,,,,,,,,,,,,,234.1003,235.6531,235.6532,237.3119,return,0.201,,25.52083333,,,,,,FBP-RB-71.png,0.35,1.2,46,0.75,0,1,1,45,1,,,,,,,,,,,,,,,,,,,,,,,,,,,,,,,,,,,,,,,,
,,,,,V3_051,22,female,2024-11-05_16h52.05.667,jersey_experiment_5_v3,2023.2.2,Win32,84.74576271,,,,,,,,,,,,,,,,237.3122,238.865,238.865,239.9594,return,0.1787,,93.09895833,,,,,,FBP-PT-71.png,0.43,1.2,19,0.75,0,2,2,18,1,,,,,,,,,,,,,,,,,,,,,,,,,,,,,,,,,,,,,,,,
,,,,,V3_051,22,female,2024-11-05_16h52.05.667,jersey_experiment_5_v3,2023.2.2,Win32,84.74576271,,,,,,,,,,,,,,,,239.9596,241.5123,241.5124,242.3826,return,0.2064,,92.70833333,,,,,,FBP-YG-18.png,0.45,1.2,10,0.75,0,3,3,9,1,,,,,,,,,,,,,,,,,,,,,,,,,,,,,,,,,,,,,,,,
,,,,,V3_051,22,female,2024-11-05_16h52.05.667,jersey_experiment_5_v3,2023.2.2,Win32,84.74576271,,,,,,,,,,,,,,,,242.3829,243.9358,243.9358,244.9004,return,0.1311,,96.35416667,,,,,,FBP-PT-81.png,0.45,1.2,25,0.75,0,4,4,24,1,,,,,,,,,,,,,,,,,,,,,,,,,,,,,,,,,,,,,,,,
,,,,,V3_051,22,female,2024-11-05_16h52.05.667,jersey_experiment_5_v3,2023.2.2,Win32,84.74576271,,,,,,,,,,,,,,,,244.9007,246.4535,246.4535,247.5829,return,0.191,,62.23958333,,,,,,FBP-PT-91.png,0.45,1.2,30,0.75,0,5,5,29,1,,,,,,,,,,,,,,,,,,,,,,,,,,,,,,,,,,,,,,,,
,,,,,V3_051,22,female,2024-11-05_16h52.05.667,jersey_experiment_5_v3,2023.2.2,Win32,84.74576271,,,,,,,,,,,,,,,,247.5831,249.1361,249.1361,249.983,return,0.2296,,88.15104167,,,,,,FBP-RB-71.png,0.43,1.2,49,0.75,0,6,6,48,1,,,,,,,,,,,,,,,,,,,,,,,,,,,,,,,,,,,,,,,,
,,,,,V3_051,22,female,2024-11-05_16h52.05.667,jersey_experiment_5_v3,2023.2.2,Win32,84.74576271,,,,,,,,,,,,,,,,249.9832,251.536,251.536,252.4773,return,0.2892,,30.72916667,,,,,,FBP-RB-81.png,0.4,1.2,53,0.75,0,7,7,52,1,,,,,,,,,,,,,,,,,,,,,,,,,,,,,,,,,,,,,,,,
,,,,,V3_051,22,female,2024-11-05_16h52.05.667,jersey_experiment_5_v3,2023.2.2,Win32,84.74576271,,,,,,,,,,,,,,,,252.4775,254.0304,254.0305,255.6303,return,0.711,,25.390625,,,,,,FBP-RB-91.png,0.37,1.2,57,0.75,0,8,8,56,1,,,,,,,,,,,,,,,,,,,,,,,,,,,,,,,,,,,,,,,,
,,,,,V3_051,22,female,2024-11-05_16h52.05.667,jersey_experiment_5_v3,2023.2.2,Win32,84.74576271,,,,,,,,,,,,,,,,255.6305,257.1832,257.1832,257.7951,return,0.165,,25.26041667,,,,,,FBP-YG-19.png,0.4,1.2,13,0.75,0,9,9,12,1,,,,,,,,,,,,,,,,,,,,,,,,,,,,,,,,,,,,,,,,
,,,,,V3_051,22,female,2024-11-05_16h52.05.667,jersey_experiment_5_v3,2023.2.2,Win32,84.74576271,,,,,,,,,,,,,,,,257.7953,259.3481,259.3481,260.3247,return,0.1991,,3.255208333,,,,,,FBP-PT-71.png,0.35,1.2,16,0.75,0,10,10,15,1,,,,,,,,,,,,,,,,,,,,,,,,,,,,,,,,,,,,,,,,
,,,,,V3_051,22,female,2024-11-05_16h52.05.667,jersey_experiment_5_v3,2023.2.2,Win32,84.74576271,,,,,,,,,,,,,,,,260.3249,261.6188,261.6189,262.7835,return,0.1435,,87.5,,,,,,FBP-OG-81.png,0.43,1.2,39,0.5,0,11,11,38,1,,,,,,,,,,,,,,,,,,,,,,,,,,,,,,,,,,,,,,,,
,,,,,V3_051,22,female,2024-11-05_16h52.05.667,jersey_experiment_5_v3,2023.2.2,Win32,84.74576271,,,,,,,,,,,,,,,,262.7837,264.0777,264.0777,264.913,return,0.1304,,64.19270833,,,,,,FBP-OG-71.png,0.4,1.2,33,0.5,0,12,12,32,1,,,,,,,,,,,,,,,,,,,,,,,,,,,,,,,,,,,,,,,,
,,,,,V3_051,22,female,2024-11-05_16h52.05.667,jersey_experiment_5_v3,2023.2.2,Win32,84.74576271,,,,,,,,,,,,,,,,264.9132,266.466,266.4661,267.2307,return,0.1932,,17.31770833,,,,,,FBP-YG-19.png,0.37,1.2,12,0.75,0,13,13,11,1,,,,,,,,,,,,,,,,,,,,,,,,,,,,,,,,,,,,,,,,
,,,,,V3_051,22,female,2024-11-05_16h52.05.667,jersey_experiment_5_v3,2023.2.2,Win32,84.74576271,,,,,,,,,,,,,,,,267.2309,268.7839,268.7839,270.019,return,0.1745,,75.91145833,,,,,,FBP-YG-19.png,0.45,1.2,15,0.75,0,14,14,14,1,,,,,,,,,,,,,,,,,,,,,,,,,,,,,,,,,,,,,,,,
,,,,,V3_051,22,female,2024-11-05_16h52.05.667,jersey_experiment_5_v3,2023.2.2,Win32,84.74576271,,,,,,,,,,,,,,,,270.0192,271.572,271.572,272.5132,return,0.1779,,40.49479167,,,,,,FBP-PT-81.png,0.4,1.2,23,0.75,0,15,15,22,1,,,,,,,,,,,,,,,,,,,,,,,,,,,,,,,,,,,,,,,,
,,,,,V3_051,22,female,2024-11-05_16h52.05.667,jersey_experiment_5_v3,2023.2.2,Win32,84.74576271,,,,,,,,,,,,,,,,272.5134,274.0547,274.0547,275.1016,return,0.1723,,75.78125,,,,,,FBP-PT-81.png,0.43,1.2,24,0.75,0,16,16,23,1,,,,,,,,,,,,,,,,,,,,,,,,,,,,,,,,,,,,,,,,
,,,,,V3_051,22,female,2024-11-05_16h52.05.667,jersey_experiment_5_v3,2023.2.2,Win32,84.74576271,,,,,,,,,,,,,,,,275.1018,276.3958,276.3958,277.3017,return,0.1549,,91.40625,,,,,,FBP-OG-91.png,0.45,1.2,45,0.5,0,17,17,44,1,,,,,,,,,,,,,,,,,,,,,,,,,,,,,,,,,,,,,,,,
,,,,,V3_051,22,female,2024-11-05_16h52.05.667,jersey_experiment_5_v3,2023.2.2,Win32,84.74576271,,,,,,,,,,,,,,,,277.3019,278.8547,278.8547,280.1018,return,0.144,,14.32291667,,,,,,FBP-RB-71.png,0.4,1.2,48,0.75,0,18,18,47,1,,,,,,,,,,,,,,,,,,,,,,,,,,,,,,,,,,,,,,,,
,,,,,V3_051,22,female,2024-11-05_16h52.05.667,jersey_experiment_5_v3,2023.2.2,Win32,84.74576271,,,,,,,,,,,,,,,,280.102,281.6549,281.6549,282.5019,return,0.2104,,79.94791667,,,,,,FBP-PT-71.png,0.45,1.2,20,0.75,0,19,19,19,1,,,,,,,,,,,,,,,,,,,,,,,,,,,,,,,,,,,,,,,,
,,,,,V3_051,22,female,2024-11-05_16h52.05.667,jersey_experiment_5_v3,2023.2.2,Win32,84.74576271,,,,,,,,,,,,,,,,282.5022,284.0548,284.0549,284.996,return,0.1781,,3.125,,,,,,FBP-RB-91.png,0.35,1.2,56,0.75,0,20,20,55,1,,,,,,,,,,,,,,,,,,,,,,,,,,,,,,,,,,,,,,,,
,,,,,V3_051,22,female,2024-11-05_16h52.05.667,jersey_experiment_5_v3,2023.2.2,Win32,84.74576271,,,,,,,,,,,,,,,,284.9963,286.5493,286.5493,287.3138,return,0.1765,,90.234375,,,,,,FBP-PT-91.png,0.43,1.2,29,0.75,0,21,21,28,1,,,,,,,,,,,,,,,,,,,,,,,,,,,,,,,,,,,,,,,,
,,,,,V3_051,22,female,2024-11-05_16h52.05.667,jersey_experiment_5_v3,2023.2.2,Win32,84.74576271,,,,,,,,,,,,,,,,287.3139,288.608,288.6081,290.0787,return,0.1207,,96.484375,,,,,,FBP-OG-81.png,0.45,1.2,40,0.5,0,22,22,39,1,,,,,,,,,,,,,,,,,,,,,,,,,,,,,,,,,,,,,,,,
,,,,,V3_051,22,female,2024-11-05_16h52.05.667,jersey_experiment_5_v3,2023.2.2,Win32,84.74576271,,,,,,,,,,,,,,,,290.0789,291.3728,291.3728,293.1375,return,0.1889,,2.604166667,,,,,,FBP-OG-91.png,0.37,1.2,42,0.5,0,23,23,41,1,,,,,,,,,,,,,,,,,,,,,,,,,,,,,,,,,,,,,,,,
,,,,,V3_051,22,female,2024-11-05_16h52.05.667,jersey_experiment_5_v3,2023.2.2,Win32,84.74576271,,,,,,,,,,,,,,,,293.1378,294.6905,294.6905,296.0788,return,0.159,,75.390625,,,,,,FBP-YG-18.png,0.43,1.2,9,0.75,0,24,24,8,1,,,,,,,,,,,,,,,,,,,,,,,,,,,,,,,,,,,,,,,,
,,,,,V3_051,22,female,2024-11-05_16h52.05.667,jersey_experiment_5_v3,2023.2.2,Win32,84.74576271,,,,,,,,,,,,,,,,296.079,297.632,297.632,298.62,return,0.1492,,4.036458333,,,,,,FBP-YG-17.png,0.35,1.2,1,0.75,0,25,25,0,1,,,,,,,,,,,,,,,,,,,,,,,,,,,,,,,,,,,,,,,,
,,,,,V3_051,22,female,2024-11-05_16h52.05.667,jersey_experiment_5_v3,2023.2.2,Win32,84.74576271,,,,,,,,,,,,,,,,298.6202,299.9145,299.9145,300.8553,return,0.2492,,10.67708333,,,,,,FBP-OG-81.png,0.37,1.2,37,0.5,0,26,26,36,1,,,,,,,,,,,,,,,,,,,,,,,,,,,,,,,,,,,,,,,,
,,,,,V3_051,22,female,2024-11-05_16h52.05.667,jersey_experiment_5_v3,2023.2.2,Win32,84.74576271,,,,,,,,,,,,,,,,300.8555,302.3968,302.3968,303.0202,return,0.2086,,5.338541667,,,,,,FBP-RB-81.png,0.37,1.2,52,0.75,0,27,27,51,1,,,,,,,,,,,,,,,,,,,,,,,,,,,,,,,,,,,,,,,,
,,,,,V3_051,22,female,2024-11-05_16h52.05.667,jersey_experiment_5_v3,2023.2.2,Win32,84.74576271,,,,,,,,,,,,,,,,303.0203,304.3144,304.3144,304.7968,return,0.3486,,5.338541667,,,,,,FBP-OG-91.png,0.35,1.2,41,0.5,0,28,28,40,1,,,,,,,,,,,,,,,,,,,,,,,,,,,,,,,,,,,,,,,,
,,,,,V3_051,22,female,2024-11-05_16h52.05.667,jersey_experiment_5_v3,2023.2.2,Win32,84.74576271,,,,,,,,,,,,,,,,304.7971,306.3497,306.3497,307.2204,return,0.34,,5.859375,,,,,,FBP-PT-71.png,0.37,1.2,17,0.75,0,29,29,16,1,,,,,,,,,,,,,,,,,,,,,,,,,,,,,,,,,,,,,,,,
,,,,,V3_051,22,female,2024-11-05_16h52.05.667,jersey_experiment_5_v3,2023.2.2,Win32,84.74576271,,,,,,,,,,,,,,,,307.2207,308.7735,308.7735,309.9382,return,0.6983,,60.9375,,,,,,FBP-PT-91.png,0.4,1.2,28,0.75,0,30,30,27,1,,,,,,,,,,,,,,,,,,,,,,,,,,,,,,,,,,,,,,,,
,,,,,V3_051,22,female,2024-11-05_16h52.05.667,jersey_experiment_5_v3,2023.2.2,Win32,84.74576271,,,,,,,,,,,,,,,,309.9385,311.4913,311.4914,312.7029,return,0.5348,,12.63020833,,,,,,FBP-YG-19.png,0.35,1.2,11,0.75,0,31,31,10,1,,,,,,,,,,,,,,,,,,,,,,,,,,,,,,,,,,,,,,,,
,,,,,V3_051,22,female,2024-11-05_16h52.05.667,jersey_experiment_5_v3,2023.2.2,Win32,84.74576271,,,,,,,,,,,,,,,,312.7032,313.9972,313.9973,315.8797,return,0.4009,,96.484375,,,,,,FBP-OG-71.png,0.45,1.2,35,0.5,0,32,32,34,1,,,,,,,,,,,,,,,,,,,,,,,,,,,,,,,,,,,,,,,,
,,,,,V3_051,22,female,2024-11-05_16h52.05.667,jersey_experiment_5_v3,2023.2.2,Win32,84.74576271,,,,,,,,,,,,,,,,315.88,317.4326,317.4327,318.1973,return,0.1417,,25,,,,,,FBP-YG-18.png,0.35,1.2,6,0.75,0,33,33,5,1,,,,,,,,,,,,,,,,,,,,,,,,,,,,,,,,,,,,,,,,
,,,,,V3_051,22,female,2024-11-05_16h52.05.667,jersey_experiment_5_v3,2023.2.2,Win32,84.74576271,,,,,,,,,,,,,,,,318.1975,319.7505,319.7505,320.4444,return,0.229,,12.23958333,,,,,,FBP-RB-71.png,0.37,1.2,47,0.75,0,34,34,46,1,,,,,,,,,,,,,,,,,,,,,,,,,,,,,,,,,,,,,,,,
,,,,,V3_051,22,female,2024-11-05_16h52.05.667,jersey_experiment_5_v3,2023.2.2,Win32,84.74576271,,,,,,,,,,,,,,,,320.4448,321.9975,321.9975,322.8209,return,0.1506,,76.30208333,,,,,,FBP-RB-81.png,0.43,1.2,54,0.75,0,35,35,53,1,,,,,,,,,,,,,,,,,,,,,,,,,,,,,,,,,,,,,,,,
,,,,,V3_051,22,female,2024-11-05_16h52.05.667,jersey_experiment_5_v3,2023.2.2,Win32,84.74576271,,,,,,,,,,,,,,,,322.8211,324.3624,324.3625,325.2446,return,0.1126,,96.74479167,,,,,,FBP-RB-91.png,0.45,1.2,60,0.75,0,36,36,59,1,,,,,,,,,,,,,,,,,,,,,,,,,,,,,,,,,,,,,,,,
,,,,,V3_051,22,female,2024-11-05_16h52.05.667,jersey_experiment_5_v3,2023.2.2,Win32,84.74576271,,,,,,,,,,,,,,,,325.2449,326.7977,326.7978,327.7505,return,0.1392,,97.13541667,,,,,,FBP-YG-17.png,0.43,1.2,4,0.75,0,37,37,3,1,,,,,,,,,,,,,,,,,,,,,,,,,,,,,,,,,,,,,,,,
,,,,,V3_051,22,female,2024-11-05_16h52.05.667,jersey_experiment_5_v3,2023.2.2,Win32,84.74576271,,,,,,,,,,,,,,,,327.7509,329.3037,329.3038,330.8802,return,0.6521,,21.09375,,,,,,FBP-PT-91.png,0.35,1.2,26,0.75,0,38,38,25,1,,,,,,,,,,,,,,,,,,,,,,,,,,,,,,,,,,,,,,,,
,,,,,V3_051,22,female,2024-11-05_16h52.05.667,jersey_experiment_5_v3,2023.2.2,Win32,84.74576271,,,,,,,,,,,,,,,,330.8804,332.4332,332.4332,333.4919,return,0.1868,,77.734375,,,,,,FBP-YG-19.png,0.43,1.2,14,0.75,0,39,39,13,1,,,,,,,,,,,,,,,,,,,,,,,,,,,,,,,,,,,,,,,,
,,,,,V3_051,22,female,2024-11-05_16h52.05.667,jersey_experiment_5_v3,2023.2.2,Win32,84.74576271,,,,,,,,,,,,,,,,333.4922,335.0451,335.0451,336.0451,return,0.252,,90.49479167,,,,,,FBP-RB-81.png,0.45,1.2,55,0.75,0,40,40,54,1,,,,,,,,,,,,,,,,,,,,,,,,,,,,,,,,,,,,,,,,
,,,,,V3_051,22,female,2024-11-05_16h52.05.667,jersey_experiment_5_v3,2023.2.2,Win32,84.74576271,,,,,,,,,,,,,,,,336.0453,337.5981,337.5981,338.551,return,0.2274,,11.84895833,,,,,,FBP-RB-81.png,0.35,1.2,51,0.75,0,41,41,50,1,,,,,,,,,,,,,,,,,,,,,,,,,,,,,,,,,,,,,,,,
,,,,,V3_051,22,female,2024-11-05_16h52.05.667,jersey_experiment_5_v3,2023.2.2,Win32,84.74576271,,,,,,,,,,,,,,,,338.5513,340.1041,340.1042,340.8805,return,0.1418,,51.171875,,,,,,FBP-YG-17.png,0.4,1.2,3,0.75,0,42,42,2,1,,,,,,,,,,,,,,,,,,,,,,,,,,,,,,,,,,,,,,,,
,,,,,V3_051,22,female,2024-11-05_16h52.05.667,jersey_experiment_5_v3,2023.2.2,Win32,84.74576271,,,,,,,,,,,,,,,,340.8808,342.1748,342.1749,343.5864,return,0.142,,37.76041667,,,,,,FBP-OG-81.png,0.35,1.2,36,0.5,0,43,43,35,1,,,,,,,,,,,,,,,,,,,,,,,,,,,,,,,,,,,,,,,,
,,,,,V3_051,22,female,2024-11-05_16h52.05.667,jersey_experiment_5_v3,2023.2.2,Win32,84.74576271,,,,,,,,,,,,,,,,343.5866,344.8808,344.8808,345.9042,return,0.1696,,75.52083333,,,,,,FBP-OG-71.png,0.43,1.2,34,0.5,0,44,44,33,1,,,,,,,,,,,,,,,,,,,,,,,,,,,,,,,,,,,,,,,,
,,,,,V3_051,22,female,2024-11-05_16h52.05.667,jersey_experiment_5_v3,2023.2.2,Win32,84.74576271,,,,,,,,,,,,,,,,345.9045,347.1984,347.1985,348.5748,return,0.1668,,54.296875,,,,,,FBP-OG-91.png,0.4,1.2,43,0.5,0,45,45,42,1,,,,,,,,,,,,,,,,,,,,,,,,,,,,,,,,,,,,,,,,
,,,,,V3_051,22,female,2024-11-05_16h52.05.667,jersey_experiment_5_v3,2023.2.2,Win32,84.74576271,,,,,,,,,,,,,,,,348.5751,350.128,350.128,350.6572,return,0.1683,,49.73958333,,,,,,FBP-YG-17.png,0.37,1.2,2,0.75,0,46,46,1,1,,,,,,,,,,,,,,,,,,,,,,,,,,,,,,,,,,,,,,,,
,,,,,V3_051,22,female,2024-11-05_16h52.05.667,jersey_experiment_5_v3,2023.2.2,Win32,84.74576271,,,,,,,,,,,,,,,,350.6575,351.9515,351.9515,352.928,return,0.205,,74.21875,,,,,,FBP-OG-91.png,0.43,1.2,44,0.5,0,47,47,43,1,,,,,,,,,,,,,,,,,,,,,,,,,,,,,,,,,,,,,,,,
,,,,,V3_051,22,female,2024-11-05_16h52.05.667,jersey_experiment_5_v3,2023.2.2,Win32,84.74576271,,,,,,,,,,,,,,,,352.9283,354.4811,354.4811,356.1634,return,0.4016,,97.78645833,,,,,,FBP-RB-71.png,0.45,1.2,50,0.75,0,48,48,49,1,,,,,,,,,,,,,,,,,,,,,,,,,,,,,,,,,,,,,,,,
,,,,,V3_051,22,female,2024-11-05_16h52.05.667,jersey_experiment_5_v3,2023.2.2,Win32,84.74576271,,,,,,,,,,,,,,,,356.1636,357.4576,357.4576,358.7164,return,0.2402,,22.78645833,,,,,,FBP-OG-71.png,0.35,1.2,31,0.5,0,49,49,30,1,,,,,,,,,,,,,,,,,,,,,,,,,,,,,,,,,,,,,,,,
,,,,,V3_051,22,female,2024-11-05_16h52.05.667,jersey_experiment_5_v3,2023.2.2,Win32,84.74576271,,,,,,,,,,,,,,,,358.7166,360.0107,360.0107,361.2342,return,0.3074,,19.40104167,,,,,,FBP-OG-71.png,0.37,1.2,32,0.5,0,50,50,31,1,,,,,,,,,,,,,,,,,,,,,,,,,,,,,,,,,,,,,,,,
,,,,,V3_051,22,female,2024-11-05_16h52.05.667,jersey_experiment_5_v3,2023.2.2,Win32,84.74576271,,,,,,,,,,,,,,,,361.2345,362.7871,362.7871,363.4225,return,0.136,,39.84375,,,,,,FBP-PT-71.png,0.4,1.2,18,0.75,0,51,51,17,1,,,,,,,,,,,,,,,,,,,,,,,,,,,,,,,,,,,,,,,,
,,,,,V3_051,22,female,2024-11-05_16h52.05.667,jersey_experiment_5_v3,2023.2.2,Win32,84.74576271,,,,,,,,,,,,,,,,363.4228,364.9757,364.9757,365.6225,return,0.2119,,28.515625,,,,,,FBP-PT-91.png,0.37,1.2,27,0.75,0,52,52,26,1,,,,,,,,,,,,,,,,,,,,,,,,,,,,,,,,,,,,,,,,
,,,,,V3_051,22,female,2024-11-05_16h52.05.667,jersey_experiment_5_v3,2023.2.2,Win32,84.74576271,,,,,,,,,,,,,,,,365.6227,367.1757,367.1757,367.8933,return,0.1654,,7.8125,,,,,,FBP-PT-81.png,0.35,1.2,21,0.75,0,53,53,20,1,,,,,,,,,,,,,,,,,,,,,,,,,,,,,,,,,,,,,,,,
,,,,,V3_051,22,female,2024-11-05_16h52.05.667,jersey_experiment_5_v3,2023.2.2,Win32,84.74576271,,,,,,,,,,,,,,,,367.8935,369.4462,369.4463,370.4815,return,0.1327,,50.91145833,,,,,,FBP-YG-18.png,0.37,1.2,7,0.75,0,54,54,6,1,,,,,,,,,,,,,,,,,,,,,,,,,,,,,,,,,,,,,,,,
,,,,,V3_051,22,female,2024-11-05_16h52.05.667,jersey_experiment_5_v3,2023.2.2,Win32,84.74576271,,,,,,,,,,,,,,,,370.4818,372.0347,372.0348,373.1053,return,0.153,,30.46875,,,,,,FBP-PT-81.png,0.37,1.2,22,0.75,0,55,55,21,1,,,,,,,,,,,,,,,,,,,,,,,,,,,,,,,,,,,,,,,,
,,,,,V3_051,22,female,2024-11-05_16h52.05.667,jersey_experiment_5_v3,2023.2.2,Win32,84.74576271,,,,,,,,,,,,,,,,373.1055,374.6583,374.6583,375.3405,return,0.1125,,76.82291667,,,,,,FBP-RB-91.png,0.43,1.2,59,0.75,0,56,56,58,1,,,,,,,,,,,,,,,,,,,,,,,,,,,,,,,,,,,,,,,,
,,,,,V3_051,22,female,2024-11-05_16h52.05.667,jersey_experiment_5_v3,2023.2.2,Win32,84.74576271,,,,,,,,,,,,,,,,375.3408,376.8938,376.8938,377.6348,return,0.1314,,61.328125,,,,,,FBP-YG-18.png,0.4,1.2,8,0.75,0,57,57,7,1,,,,,,,,,,,,,,,,,,,,,,,,,,,,,,,,,,,,,,,,
,,,,,V3_051,22,female,2024-11-05_16h52.05.667,jersey_experiment_5_v3,2023.2.2,Win32,84.74576271,,,,,,,,,,,,,,,,377.6351,379.188,379.188,380.5291,return,0.8626,,86.58854167,,,,,,FBP-YG-17.png,0.45,1.2,5,0.75,0,58,58,4,1,,,,,,,,,,,,,,,,,,,,,,,,,,,,,,,,,,,,,,,,
,,,,,V3_051,22,female,2024-11-05_16h52.05.667,jersey_experiment_5_v3,2023.2.2,Win32,84.74576271,,,,,,,,,,,,,,,,380.5293,381.8231,381.8232,383.0232,return,0.1437,,64.58333333,,,,,,FBP-OG-81.png,0.4,1.2,38,0.5,0,59,59,37,1,,,,,,,,,,,,,,,,,,,,,,,,,,,,,,,,,,,,,,,,
,,,,,V3_051,22,female,2024-11-05_16h52.05.667,jersey_experiment_5_v3,2023.2.2,Win32,84.74576271,,,,,,,,,,,,,,,,,,,,,,,,,,,,,,,,,,,,,,,383.0235,503.0161,,,,,,,,,,,,,,,,,,,,,,,,,,,,,,,,,,,,,,
,,,,,V3_051,22,female,2024-11-05_16h52.05.667,jersey_experiment_5_v3,2023.2.2,Win32,84.74576271,,,,,,,,,,,,,,,,,,,,,,,,,,,,,,,,,,,,,,,,,503.0161,504.9101,return,1.8854,,,,,,,,,,,,,,,,,,,,,,,,,,,,,,,,,,
,,,,,V3_051,22,female,2024-11-05_16h52.05.667,jersey_experiment_5_v3,2023.2.2,Win32,84.74576271,,,,,,,,,,,,,,,,504.9119,506.4632,506.4632,508.6043,return,0.5379,,39.0625,,,,,,FBP-OG-19.png,0.37,1.2,42,0.75,,,,,,,,,,,,,0,0,0,41,1,,,,,,,,,,,,,,,,,,,,,,,,,,,,
,,,,,V3_051,22,female,2024-11-05_16h52.05.667,jersey_experiment_5_v3,2023.2.2,Win32,84.74576271,,,,,,,,,,,,,,,,508.6046,509.8986,509.8986,510.8162,return,0.1811,,76.69270833,,,,,,FBP-PT-17.png,0.45,1.2,20,0.5,,,,,,,,,,,,,0,1,1,19,1,,,,,,,,,,,,,,,,,,,,,,,,,,,,
,,,,,V3_051,22,female,2024-11-05_16h52.05.667,jersey_experiment_5_v3,2023.2.2,Win32,84.74576271,,,,,,,,,,,,,,,,510.8165,512.1105,512.1105,512.981,return,0.1427,,26.43229167,,,,,,FBP-YG-91.png,0.35,1.2,11,0.5,,,,,,,,,,,,,0,2,2,10,1,,,,,,,,,,,,,,,,,,,,,,,,,,,,
,,,,,V3_051,22,female,2024-11-05_16h52.05.667,jersey_experiment_5_v3,2023.2.2,Win32,84.74576271,,,,,,,,,,,,,,,,512.9813,514.5341,514.5341,515.381,return,0.1564,,82.03125,,,,,,FBP-OG-18.png,0.43,1.2,39,0.75,,,,,,,,,,,,,0,3,3,38,1,,,,,,,,,,,,,,,,,,,,,,,,,,,,
,,,,,V3_051,22,female,2024-11-05_16h52.05.667,jersey_experiment_5_v3,2023.2.2,Win32,84.74576271,,,,,,,,,,,,,,,,515.3813,516.6753,516.6753,517.534,return,0.1577,,67.70833333,,,,,,FBP-PT-18.png,0.43,1.2,24,0.5,,,,,,,,,,,,,0,4,4,23,1,,,,,,,,,,,,,,,,,,,,,,,,,,,,
,,,,,V3_051,22,female,2024-11-05_16h52.05.667,jersey_experiment_5_v3,2023.2.2,Win32,84.74576271,,,,,,,,,,,,,,,,517.5343,518.8284,518.8285,519.6047,return,0.1884,,26.69270833,,,,,,FBP-YG-71.png,0.35,1.2,1,0.5,,,,,,,,,,,,,0,5,5,0,1,,,,,,,,,,,,,,,,,,,,,,,,,,,,
,,,,,V3_051,22,female,2024-11-05_16h52.05.667,jersey_experiment_5_v3,2023.2.2,Win32,84.74576271,,,,,,,,,,,,,,,,519.605,520.8989,520.8989,521.7813,return,0.1168,,49.86979167,,,,,,FBP-PT-19.png,0.4,1.2,28,0.5,,,,,,,,,,,,,0,6,6,27,1,,,,,,,,,,,,,,,,,,,,,,,,,,,,
,,,,,V3_051,22,female,2024-11-05_16h52.05.667,jersey_experiment_5_v3,2023.2.2,Win32,84.74576271,,,,,,,,,,,,,,,,521.7816,523.3344,523.3344,523.8756,return,0.1642,,38.54166667,,,,,,FBP-OG-17.png,0.37,1.2,32,0.75,,,,,,,,,,,,,0,7,7,31,1,,,,,,,,,,,,,,,,,,,,,,,,,,,,
,,,,,V3_051,22,female,2024-11-05_16h52.05.667,jersey_experiment_5_v3,2023.2.2,Win32,84.74576271,,,,,,,,,,,,,,,,523.8758,525.1698,525.1699,526.0168,return,0.1199,,73.046875,,,,,,FBP-PT-19.png,0.43,1.2,29,0.5,,,,,,,,,,,,,0,8,8,28,1,,,,,,,,,,,,,,,,,,,,,,,,,,,,
,,,,,V3_051,22,female,2024-11-05_16h52.05.667,jersey_experiment_5_v3,2023.2.2,Win32,84.74576271,,,,,,,,,,,,,,,,526.0169,527.5581,527.5582,528.4521,return,0.1259,,50.65104167,,,,,,FBP-OG-18.png,0.4,1.2,38,0.75,,,,,,,,,,,,,0,9,9,37,1,,,,,,,,,,,,,,,,,,,,,,,,,,,,
,,,,,V3_051,22,female,2024-11-05_16h52.05.667,jersey_experiment_5_v3,2023.2.2,Win32,84.74576271,,,,,,,,,,,,,,,,528.4523,529.7464,529.7464,530.8169,return,0.3316,,79.16666667,,,,,,FBP-YG-91.png,0.43,1.2,14,0.5,,,,,,,,,,,,,0,10,10,13,1,,,,,,,,,,,,,,,,,,,,,,,,,,,,
,,,,,V3_051,22,female,2024-11-05_16h52.05.667,jersey_experiment_5_v3,2023.2.2,Win32,84.74576271,,,,,,,,,,,,,,,,530.8172,532.1113,532.1114,534.0056,return,0.2353,,20.18229167,,,,,,FBP-RB-17.png,0.37,1.2,47,0.5,,,,,,,,,,,,,0,11,11,46,1,,,,,,,,,,,,,,,,,,,,,,,,,,,,
,,,,,V3_051,22,female,2024-11-05_16h52.05.667,jersey_experiment_5_v3,2023.2.2,Win32,84.74576271,,,,,,,,,,,,,,,,534.0057,535.2995,535.2995,536.4056,return,0.222,,18.75,,,,,,FBP-RB-18.png,0.37,1.2,52,0.5,,,,,,,,,,,,,0,12,12,51,1,,,,,,,,,,,,,,,,,,,,,,,,,,,,
,,,,,V3_051,22,female,2024-11-05_16h52.05.667,jersey_experiment_5_v3,2023.2.2,Win32,84.74576271,,,,,,,,,,,,,,,,536.4058,537.6995,537.6995,538.276,return,0.2153,,27.99479167,,,,,,FBP-PT-19.png,0.37,1.2,27,0.5,,,,,,,,,,,,,0,13,13,26,1,,,,,,,,,,,,,,,,,,,,,,,,,,,,
,,,,,V3_051,22,female,2024-11-05_16h52.05.667,jersey_experiment_5_v3,2023.2.2,Win32,84.74576271,,,,,,,,,,,,,,,,538.2763,539.5703,539.5703,540.5585,return,0.1439,,80.72916667,,,,,,FBP-PT-18.png,0.45,1.2,25,0.5,,,,,,,,,,,,,0,14,14,24,1,,,,,,,,,,,,,,,,,,,,,,,,,,,,
,,,,,V3_051,22,female,2024-11-05_16h52.05.667,jersey_experiment_5_v3,2023.2.2,Win32,84.74576271,,,,,,,,,,,,,,,,540.5587,541.8526,541.8527,543.0409,return,0.8745,,64.32291667,,,,,,FBP-RB-17.png,0.4,1.2,48,0.5,,,,,,,,,,,,,0,15,15,47,1,,,,,,,,,,,,,,,,,,,,,,,,,,,,
,,,,,V3_051,22,female,2024-11-05_16h52.05.667,jersey_experiment_5_v3,2023.2.2,Win32,84.74576271,,,,,,,,,,,,,,,,543.0413,544.3351,544.3351,544.9116,return,0.1816,,61.328125,,,,,,FBP-RB-19.png,0.4,1.2,58,0.5,,,,,,,,,,,,,0,16,16,57,1,,,,,,,,,,,,,,,,,,,,,,,,,,,,
,,,,,V3_051,22,female,2024-11-05_16h52.05.667,jersey_experiment_5_v3,2023.2.2,Win32,84.74576271,,,,,,,,,,,,,,,,544.9118,546.2056,546.2057,546.8999,return,0.1504,,89.19270833,,,,,,FBP-RB-17.png,0.43,1.2,49,0.5,,,,,,,,,,,,,0,17,17,48,1,,,,,,,,,,,,,,,,,,,,,,,,,,,,
,,,,,V3_051,22,female,2024-11-05_16h52.05.667,jersey_experiment_5_v3,2023.2.2,Win32,84.74576271,,,,,,,,,,,,,,,,546.9002,548.1941,548.1942,549.2176,return,0.142,,4.296875,,,,,,FBP-RB-18.png,0.35,1.2,51,0.5,,,,,,,,,,,,,0,18,18,50,1,,,,,,,,,,,,,,,,,,,,,,,,,,,,
,,,,,V3_051,22,female,2024-11-05_16h52.05.667,jersey_experiment_5_v3,2023.2.2,Win32,84.74576271,,,,,,,,,,,,,,,,549.2178,550.5119,550.5119,551.7473,return,0.5772,,25.390625,,,,,,FBP-YG-91.png,0.37,1.2,12,0.5,,,,,,,,,,,,,0,19,19,11,1,,,,,,,,,,,,,,,,,,,,,,,,,,,,
,,,,,V3_051,22,female,2024-11-05_16h52.05.667,jersey_experiment_5_v3,2023.2.2,Win32,84.74576271,,,,,,,,,,,,,,,,551.7476,553.0415,553.0415,554.359,return,0.8479,,27.734375,,,,,,FBP-PT-18.png,0.37,1.2,22,0.5,,,,,,,,,,,,,0,20,20,21,1,,,,,,,,,,,,,,,,,,,,,,,,,,,,
,,,,,V3_051,22,female,2024-11-05_16h52.05.667,jersey_experiment_5_v3,2023.2.2,Win32,84.74576271,,,,,,,,,,,,,,,,554.3593,555.6531,555.6532,556.9002,return,0.1981,,98.30729167,,,,,,FBP-RB-17.png,0.45,1.2,50,0.5,,,,,,,,,,,,,0,21,21,49,1,,,,,,,,,,,,,,,,,,,,,,,,,,,,
,,,,,V3_051,22,female,2024-11-05_16h52.05.667,jersey_experiment_5_v3,2023.2.2,Win32,84.74576271,,,,,,,,,,,,,,,,556.9005,558.1944,558.1944,559.571,return,0.6021,,50.52083333,,,,,,FBP-YG-71.png,0.4,1.2,3,0.5,,,,,,,,,,,,,0,22,22,2,1,,,,,,,,,,,,,,,,,,,,,,,,,,,,
,,,,,V3_051,22,female,2024-11-05_16h52.05.667,jersey_experiment_5_v3,2023.2.2,Win32,84.74576271,,,,,,,,,,,,,,,,559.5712,560.865,560.865,561.6535,return,0.1886,,34.375,,,,,,FBP-PT-17.png,0.37,1.2,17,0.5,,,,,,,,,,,,,0,23,23,16,1,,,,,,,,,,,,,,,,,,,,,,,,,,,,
,,,,,V3_051,22,female,2024-11-05_16h52.05.667,jersey_experiment_5_v3,2023.2.2,Win32,84.74576271,,,,,,,,,,,,,,,,561.6537,562.9476,562.9476,563.83,return,0.2328,,83.33333333,,,,,,FBP-RB-19.png,0.43,1.2,59,0.5,,,,,,,,,,,,,0,24,24,58,1,,,,,,,,,,,,,,,,,,,,,,,,,,,,
,,,,,V3_051,22,female,2024-11-05_16h52.05.667,jersey_experiment_5_v3,2023.2.2,Win32,84.74576271,,,,,,,,,,,,,,,,563.8302,565.3831,565.3831,566.0653,return,0.2273,,51.43229167,,,,,,FBP-OG-17.png,0.4,1.2,33,0.75,,,,,,,,,,,,,0,25,25,32,1,,,,,,,,,,,,,,,,,,,,,,,,,,,,
,,,,,V3_051,22,female,2024-11-05_16h52.05.667,jersey_experiment_5_v3,2023.2.2,Win32,84.74576271,,,,,,,,,,,,,,,,566.0655,567.3595,567.3596,568.7007,return,0.6181,,75,,,,,,FBP-RB-18.png,0.43,1.2,54,0.5,,,,,,,,,,,,,0,26,26,53,1,,,,,,,,,,,,,,,,,,,,,,,,,,,,
,,,,,V3_051,22,female,2024-11-05_16h52.05.667,jersey_experiment_5_v3,2023.2.2,Win32,84.74576271,,,,,,,,,,,,,,,,568.701,569.9949,569.995,570.6773,return,0.1873,,36.06770833,,,,,,FBP-PT-17.png,0.35,1.2,16,0.5,,,,,,,,,,,,,0,27,27,15,1,,,,,,,,,,,,,,,,,,,,,,,,,,,,
,,,,,V3_051,22,female,2024-11-05_16h52.05.667,jersey_experiment_5_v3,2023.2.2,Win32,84.74576271,,,,,,,,,,,,,,,,570.6775,571.9715,571.9715,572.9831,return,0.5417,,48.046875,,,,,,FBP-YG-81.png,0.37,1.2,7,0.5,,,,,,,,,,,,,0,28,28,6,1,,,,,,,,,,,,,,,,,,,,,,,,,,,,
,,,,,V3_051,22,female,2024-11-05_16h52.05.667,jersey_experiment_5_v3,2023.2.2,Win32,84.74576271,,,,,,,,,,,,,,,,572.9833,574.5246,574.5246,575.101,return,0.2182,,77.99479167,,,,,,FBP-OG-18.png,0.45,1.2,40,0.75,,,,,,,,,,,,,0,29,29,39,1,,,,,,,,,,,,,,,,,,,,,,,,,,,,
,,,,,V3_051,22,female,2024-11-05_16h52.05.667,jersey_experiment_5_v3,2023.2.2,Win32,84.74576271,,,,,,,,,,,,,,,,575.1012,576.3952,576.3952,577.1716,return,0.1339,,14.0625,,,,,,FBP-RB-17.png,0.35,1.2,46,0.5,,,,,,,,,,,,,0,30,30,45,1,,,,,,,,,,,,,,,,,,,,,,,,,,,,
,,,,,V3_051,22,female,2024-11-05_16h52.05.667,jersey_experiment_5_v3,2023.2.2,Win32,84.74576271,,,,,,,,,,,,,,,,577.1718,578.4656,578.4657,579.8305,return,0.7195,,77.34375,,,,,,FBP-RB-18.png,0.4,1.2,53,0.5,,,,,,,,,,,,,0,31,31,52,1,,,,,,,,,,,,,,,,,,,,,,,,,,,,
,,,,,V3_051,22,female,2024-11-05_16h52.05.667,jersey_experiment_5_v3,2023.2.2,Win32,84.74576271,,,,,,,,,,,,,,,,579.8307,581.1249,581.1249,581.7485,return,0.1652,,95.18229167,,,,,,FBP-YG-81.png,0.43,1.2,9,0.5,,,,,,,,,,,,,0,32,32,8,1,,,,,,,,,,,,,,,,,,,,,,,,,,,,
,,,,,V3_051,22,female,2024-11-05_16h52.05.667,jersey_experiment_5_v3,2023.2.2,Win32,84.74576271,,,,,,,,,,,,,,,,581.7487,583.3014,583.3014,584.0188,return,0.0861,,4.6875,,,,,,FBP-OG-18.png,0.35,1.2,36,0.75,,,,,,,,,,,,,0,33,33,35,1,,,,,,,,,,,,,,,,,,,,,,,,,,,,
,,,,,V3_051,22,female,2024-11-05_16h52.05.667,jersey_experiment_5_v3,2023.2.2,Win32,84.74576271,,,,,,,,,,,,,,,,584.0191,585.3132,585.3132,586.0778,return,0.1247,,72.00520833,,,,,,FBP-PT-19.png,0.45,1.2,30,0.5,,,,,,,,,,,,,0,34,34,29,1,,,,,,,,,,,,,,,,,,,,,,,,,,,,
,,,,,V3_051,22,female,2024-11-05_16h52.05.667,jersey_experiment_5_v3,2023.2.2,Win32,84.74576271,,,,,,,,,,,,,,,,586.0781,587.3719,587.372,588.9603,return,1.1693,,26.5625,,,,,,FBP-YG-81.png,0.35,1.2,6,0.5,,,,,,,,,,,,,0,35,35,5,1,,,,,,,,,,,,,,,,,,,,,,,,,,,,
,,,,,V3_051,22,female,2024-11-05_16h52.05.667,jersey_experiment_5_v3,2023.2.2,Win32,84.74576271,,,,,,,,,,,,,,,,588.9605,590.2546,590.2546,591.0074,return,0.2759,,67.70833333,,,,,,FBP-PT-18.png,0.4,1.2,23,0.5,,,,,,,,,,,,,0,36,36,22,1,,,,,,,,,,,,,,,,,,,,,,,,,,,,
,,,,,V3_051,22,female,2024-11-05_16h52.05.667,jersey_experiment_5_v3,2023.2.2,Win32,84.74576271,,,,,,,,,,,,,,,,591.0076,592.5605,592.5605,593.7489,return,0.9518,,76.171875,,,,,,FBP-OG-17.png,0.45,1.2,35,0.75,,,,,,,,,,,,,0,37,37,34,1,,,,,,,,,,,,,,,,,,,,,,,,,,,,
,,,,,V3_051,22,female,2024-11-05_16h52.05.667,jersey_experiment_5_v3,2023.2.2,Win32,84.74576271,,,,,,,,,,,,,,,,593.7492,595.3018,595.3018,596.4664,return,0.6838,,50.13020833,,,,,,FBP-OG-19.png,0.35,1.2,41,0.75,,,,,,,,,,,,,0,38,38,40,1,,,,,,,,,,,,,,,,,,,,,,,,,,,,
,,,,,V3_051,22,female,2024-11-05_16h52.05.667,jersey_experiment_5_v3,2023.2.2,Win32,84.74576271,,,,,,,,,,,,,,,,596.4666,597.7606,597.7606,598.3959,return,0.1383,,75.13020833,,,,,,FBP-YG-81.png,0.45,1.2,10,0.5,,,,,,,,,,,,,0,39,39,9,1,,,,,,,,,,,,,,,,,,,,,,,,,,,,
,,,,,V3_051,22,female,2024-11-05_16h52.05.667,jersey_experiment_5_v3,2023.2.2,Win32,84.74576271,,,,,,,,,,,,,,,,598.3961,599.6902,599.6902,600.5253,return,0.172,,28.77604167,,,,,,FBP-PT-19.png,0.35,1.2,26,0.5,,,,,,,,,,,,,0,40,40,25,1,,,,,,,,,,,,,,,,,,,,,,,,,,,,
,,,,,V3_051,22,female,2024-11-05_16h52.05.667,jersey_experiment_5_v3,2023.2.2,Win32,84.74576271,,,,,,,,,,,,,,,,600.5256,601.8196,601.8197,602.4195,return,0.1646,,61.97916667,,,,,,FBP-YG-81.png,0.4,1.2,8,0.5,,,,,,,,,,,,,0,41,41,7,1,,,,,,,,,,,,,,,,,,,,,,,,,,,,
,,,,,V3_051,22,female,2024-11-05_16h52.05.667,jersey_experiment_5_v3,2023.2.2,Win32,84.74576271,,,,,,,,,,,,,,,,602.4198,603.7136,603.7137,604.1138,return,0.0147,,61.71875,,,,,,FBP-RB-19.png,0.37,1.2,57,0.5,,,,,,,,,,,,,0,42,42,56,1,,,,,,,,,,,,,,,,,,,,,,,,,,,,
,,,,,V3_051,22,female,2024-11-05_16h52.05.667,jersey_experiment_5_v3,2023.2.2,Win32,84.74576271,,,,,,,,,,,,,,,,604.114,605.408,605.408,606.0549,return,0.1887,,72.65625,,,,,,FBP-YG-91.png,0.4,1.2,13,0.5,,,,,,,,,,,,,0,43,43,12,1,,,,,,,,,,,,,,,,,,,,,,,,,,,,
,,,,,V3_051,22,female,2024-11-05_16h52.05.667,jersey_experiment_5_v3,2023.2.2,Win32,84.74576271,,,,,,,,,,,,,,,,606.0552,607.3491,607.3492,608.1612,return,0.1804,,86.06770833,,,,,,FBP-YG-71.png,0.43,1.2,4,0.5,,,,,,,,,,,,,0,44,44,3,1,,,,,,,,,,,,,,,,,,,,,,,,,,,,
,,,,,V3_051,22,female,2024-11-05_16h52.05.667,jersey_experiment_5_v3,2023.2.2,Win32,84.74576271,,,,,,,,,,,,,,,,608.1614,609.4553,609.4553,610.3258,return,0.1073,,25.91145833,,,,,,FBP-RB-19.png,0.35,1.2,56,0.5,,,,,,,,,,,,,0,45,45,55,1,,,,,,,,,,,,,,,,,,,,,,,,,,,,
,,,,,V3_051,22,female,2024-11-05_16h52.05.667,jersey_experiment_5_v3,2023.2.2,Win32,84.74576271,,,,,,,,,,,,,,,,610.326,611.62,611.62,612.5022,return,0.1414,,75.78125,,,,,,FBP-RB-19.png,0.45,1.2,60,0.5,,,,,,,,,,,,,0,46,46,59,1,,,,,,,,,,,,,,,,,,,,,,,,,,,,
,,,,,V3_051,22,female,2024-11-05_16h52.05.667,jersey_experiment_5_v3,2023.2.2,Win32,84.74576271,,,,,,,,,,,,,,,,612.5025,613.7966,613.7967,614.326,return,0.0684,,82.421875,,,,,,FBP-PT-17.png,0.43,1.2,19,0.5,,,,,,,,,,,,,0,47,47,18,1,,,,,,,,,,,,,,,,,,,,,,,,,,,,
,,,,,V3_051,22,female,2024-11-05_16h52.05.667,jersey_experiment_5_v3,2023.2.2,Win32,84.74576271,,,,,,,,,,,,,,,,614.3262,615.6201,615.6201,616.1497,return,0.1046,,92.31770833,,,,,,FBP-YG-91.png,0.45,1.2,15,0.5,,,,,,,,,,,,,0,48,48,14,1,,,,,,,,,,,,,,,,,,,,,,,,,,,,
,,,,,V3_051,22,female,2024-11-05_16h52.05.667,jersey_experiment_5_v3,2023.2.2,Win32,84.74576271,,,,,,,,,,,,,,,,616.1499,617.7025,617.7025,618.9614,return,0.6275,,45.57291667,,,,,,FBP-OG-18.png,0.37,1.2,37,0.75,,,,,,,,,,,,,0,49,49,36,1,,,,,,,,,,,,,,,,,,,,,,,,,,,,
,,,,,V3_051,22,female,2024-11-05_16h52.05.667,jersey_experiment_5_v3,2023.2.2,Win32,84.74576271,,,,,,,,,,,,,,,,618.9617,620.5146,620.5146,620.8203,return,0.1069,,48.046875,,,,,,FBP-OG-19.png,0.43,1.2,44,0.75,,,,,,,,,,,,,0,50,50,43,1,,,,,,,,,,,,,,,,,,,,,,,,,,,,
,,,,,V3_051,22,female,2024-11-05_16h52.05.667,jersey_experiment_5_v3,2023.2.2,Win32,84.74576271,,,,,,,,,,,,,,,,620.8205,622.3617,622.3617,623.1497,return,0.1243,,50.78125,,,,,,FBP-OG-19.png,0.4,1.2,43,0.75,,,,,,,,,,,,,0,51,51,42,1,,,,,,,,,,,,,,,,,,,,,,,,,,,,
,,,,,V3_051,22,female,2024-11-05_16h52.05.667,jersey_experiment_5_v3,2023.2.2,Win32,84.74576271,,,,,,,,,,,,,,,,623.1499,624.444,624.4441,624.9498,return,0.1177,,85.02604167,,,,,,FBP-YG-71.png,0.45,1.2,5,0.5,,,,,,,,,,,,,0,52,52,4,1,,,,,,,,,,,,,,,,,,,,,,,,,,,,
,,,,,V3_051,22,female,2024-11-05_16h52.05.667,jersey_experiment_5_v3,2023.2.2,Win32,84.74576271,,,,,,,,,,,,,,,,624.9501,626.5029,626.5031,627.2322,return,0.1456,,22.265625,,,,,,FBP-OG-17.png,0.35,1.2,31,0.75,,,,,,,,,,,,,0,53,53,30,1,,,,,,,,,,,,,,,,,,,,,,,,,,,,
,,,,,V3_051,22,female,2024-11-05_16h52.05.667,jersey_experiment_5_v3,2023.2.2,Win32,84.74576271,,,,,,,,,,,,,,,,627.2326,628.5264,628.5265,629.197,return,0.2179,,17.70833333,,,,,,FBP-PT-18.png,0.35,1.2,21,0.5,,,,,,,,,,,,,0,54,54,20,1,,,,,,,,,,,,,,,,,,,,,,,,,,,,
,,,,,V3_051,22,female,2024-11-05_16h52.05.667,jersey_experiment_5_v3,2023.2.2,Win32,84.74576271,,,,,,,,,,,,,,,,629.1972,630.7502,630.7502,631.3619,return,0.1806,,82.16145833,,,,,,FBP-OG-19.png,0.45,1.2,45,0.75,,,,,,,,,,,,,0,55,55,44,1,,,,,,,,,,,,,,,,,,,,,,,,,,,,
,,,,,V3_051,22,female,2024-11-05_16h52.05.667,jersey_experiment_5_v3,2023.2.2,Win32,84.74576271,,,,,,,,,,,,,,,,631.3622,632.9149,632.9149,633.6795,return,0.1228,,85.546875,,,,,,FBP-OG-17.png,0.43,1.2,34,0.75,,,,,,,,,,,,,0,56,56,33,1,,,,,,,,,,,,,,,,,,,,,,,,,,,,
,,,,,V3_051,22,female,2024-11-05_16h52.05.667,jersey_experiment_5_v3,2023.2.2,Win32,84.74576271,,,,,,,,,,,,,,,,633.6797,634.9737,634.9737,635.5385,return,0.2236,,84.11458333,,,,,,FBP-RB-18.png,0.45,1.2,55,0.5,,,,,,,,,,,,,0,57,57,54,1,,,,,,,,,,,,,,,,,,,,,,,,,,,,
,,,,,V3_051,22,female,2024-11-05_16h52.05.667,jersey_experiment_5_v3,2023.2.2,Win32,84.74576271,,,,,,,,,,,,,,,,635.5387,636.8326,636.8327,637.9739,return,0.1398,,49.47916667,,,,,,FBP-YG-71.png,0.37,1.2,2,0.5,,,,,,,,,,,,,0,58,58,1,1,,,,,,,,,,,,,,,,,,,,,,,,,,,,
,,,,,V3_051,22,female,2024-11-05_16h52.05.667,jersey_experiment_5_v3,2023.2.2,Win32,84.74576271,,,,,,,,,,,,,,,,637.9741,639.268,639.268,640.2562,return,0.1421,,48.69791667,,,,,,FBP-PT-17.png,0.4,1.2,18,0.5,,,,,,,,,,,,,0,59,59,17,1,,,,,,,,,,,,,,,,,,,,,,,,,,,,
,,,,,V3_051,22,female,2024-11-05_16h52.05.667,jersey_experiment_5_v3,2023.2.2,Win32,84.74576271,,,,,,,,,,,,,,,,640.2575,641.8093,641.8093,642.2563,return,0.181,,48.69791667,,,,,,FBP-OG-81.png,0.37,1.2,37,0.75,,,,,,,,,,,,,,,,,,0,0,0,36,1,,,,,,,,,,,,,,,,,,,,,,,
,,,,,V3_051,22,female,2024-11-05_16h52.05.667,jersey_experiment_5_v3,2023.2.2,Win32,84.74576271,,,,,,,,,,,,,,,,642.2566,643.8096,643.8096,644.9153,return,0.4372,,90.88541667,,,,,,FBP-OG-81.png,0.43,1.2,39,0.75,,,,,,,,,,,,,,,,,,0,1,1,38,1,,,,,,,,,,,,,,,,,,,,,,,
,,,,,V3_051,22,female,2024-11-05_16h52.05.667,jersey_experiment_5_v3,2023.2.2,Win32,84.74576271,,,,,,,,,,,,,,,,644.9157,646.2096,646.2096,647.5391,return,0.2008,,9.895833333,,,,,,FBP-PT-91.png,0.35,1.2,26,0.5,,,,,,,,,,,,,,,,,,0,2,2,25,1,,,,,,,,,,,,,,,,,,,,,,,
,,,,,V3_051,22,female,2024-11-05_16h52.05.667,jersey_experiment_5_v3,2023.2.2,Win32,84.74576271,,,,,,,,,,,,,,,,647.5392,648.8331,648.8332,649.8567,return,0.1205,,47.52604167,,,,,,FBP-RB-81.png,0.4,1.2,53,0.5,,,,,,,,,,,,,,,,,,0,3,3,52,1,,,,,,,,,,,,,,,,,,,,,,,
,,,,,V3_051,22,female,2024-11-05_16h52.05.667,jersey_experiment_5_v3,2023.2.2,Win32,84.74576271,,,,,,,,,,,,,,,,649.8569,651.4096,651.4097,652.2684,return,0.5024,,64.58333333,,,,,,FBP-OG-91.png,0.43,1.2,44,0.75,,,,,,,,,,,,,,,,,,0,4,4,43,1,,,,,,,,,,,,,,,,,,,,,,,
,,,,,V3_051,22,female,2024-11-05_16h52.05.667,jersey_experiment_5_v3,2023.2.2,Win32,84.74576271,,,,,,,,,,,,,,,,652.2686,653.8216,653.8216,654.3862,return,0.1439,,45.05208333,,,,,,FBP-OG-71.png,0.4,1.2,33,0.75,,,,,,,,,,,,,,,,,,0,5,5,32,1,,,,,,,,,,,,,,,,,,,,,,,
,,,,,V3_051,22,female,2024-11-05_16h52.05.667,jersey_experiment_5_v3,2023.2.2,Win32,84.74576271,,,,,,,,,,,,,,,,654.3866,655.6804,655.6804,656.951,return,0.7062,,26.5625,,,,,,FBP-PT-81.png,0.35,1.2,21,0.5,,,,,,,,,,,,,,,,,,0,6,6,20,1,,,,,,,,,,,,,,,,,,,,,,,
,,,,,V3_051,22,female,2024-11-05_16h52.05.667,jersey_experiment_5_v3,2023.2.2,Win32,84.74576271,,,,,,,,,,,,,,,,656.9512,658.2452,658.2453,659.8453,return,0.1877,,66.14583333,,,,,,FBP-RB-71.png,0.43,1.2,49,0.5,,,,,,,,,,,,,,,,,,0,7,7,48,1,,,,,,,,,,,,,,,,,,,,,,,
,,,,,V3_051,22,female,2024-11-05_16h52.05.667,jersey_experiment_5_v3,2023.2.2,Win32,84.74576271,,,,,,,,,,,,,,,,659.8456,661.3983,661.3984,661.9984,return,0.1676,,72.91666667,,,,,,FBP-OG-91.png,0.45,1.2,45,0.75,,,,,,,,,,,,,,,,,,0,8,8,44,1,,,,,,,,,,,,,,,,,,,,,,,
,,,,,V3_051,22,female,2024-11-05_16h52.05.667,jersey_experiment_5_v3,2023.2.2,Win32,84.74576271,,,,,,,,,,,,,,,,661.9986,663.5513,663.5513,664.2925,return,0.1041,,72.65625,,,,,,FBP-OG-71.png,0.45,1.2,35,0.75,,,,,,,,,,,,,,,,,,0,9,9,34,1,,,,,,,,,,,,,,,,,,,,,,,
,,,,,V3_051,22,female,2024-11-05_16h52.05.667,jersey_experiment_5_v3,2023.2.2,Win32,84.74576271,,,,,,,,,,,,,,,,664.2927,665.5866,665.5867,666.7396,return,0.2447,,63.02083333,,,,,,FBP-PT-71.png,0.4,1.2,18,0.5,,,,,,,,,,,,,,,,,,0,10,10,17,1,,,,,,,,,,,,,,,,,,,,,,,
,,,,,V3_051,22,female,2024-11-05_16h52.05.667,jersey_experiment_5_v3,2023.2.2,Win32,84.74576271,,,,,,,,,,,,,,,,666.7398,668.0338,668.0338,669.281,return,0.6728,,24.73958333,,,,,,FBP-RB-91.png,0.35,1.2,56,0.5,,,,,,,,,,,,,,,,,,0,11,11,55,1,,,,,,,,,,,,,,,,,,,,,,,
,,,,,V3_051,22,female,2024-11-05_16h52.05.667,jersey_experiment_5_v3,2023.2.2,Win32,84.74576271,,,,,,,,,,,,,,,,669.2812,670.5752,670.5752,671.2809,return,0.098,,56.11979167,,,,,,FBP-PT-91.png,0.43,1.2,29,0.5,,,,,,,,,,,,,,,,,,0,12,12,28,1,,,,,,,,,,,,,,,,,,,,,,,
,,,,,V3_051,22,female,2024-11-05_16h52.05.667,jersey_experiment_5_v3,2023.2.2,Win32,84.74576271,,,,,,,,,,,,,,,,671.2812,672.5751,672.5752,673.1987,return,0.2061,,72.78645833,,,,,,FBP-YG-17.png,0.45,1.2,5,0.5,,,,,,,,,,,,,,,,,,0,13,13,4,1,,,,,,,,,,,,,,,,,,,,,,,
,,,,,V3_051,22,female,2024-11-05_16h52.05.667,jersey_experiment_5_v3,2023.2.2,Win32,84.74576271,,,,,,,,,,,,,,,,673.1989,674.7517,674.7517,676.1165,return,0.7523,,73.17708333,,,,,,FBP-OG-71.png,0.43,1.2,34,0.75,,,,,,,,,,,,,,,,,,0,14,14,33,1,,,,,,,,,,,,,,,,,,,,,,,
,,,,,V3_051,22,female,2024-11-05_16h52.05.667,jersey_experiment_5_v3,2023.2.2,Win32,84.74576271,,,,,,,,,,,,,,,,676.1167,677.4108,677.4109,678.3046,return,0.0861,,3.385416667,,,,,,FBP-PT-71.png,0.35,1.2,16,0.5,,,,,,,,,,,,,,,,,,0,15,15,15,1,,,,,,,,,,,,,,,,,,,,,,,
,,,,,V3_051,22,female,2024-11-05_16h52.05.667,jersey_experiment_5_v3,2023.2.2,Win32,84.74576271,,,,,,,,,,,,,,,,678.3048,679.5989,679.599,680.4931,return,0.1449,,16.40625,,,,,,FBP-PT-91.png,0.37,1.2,27,0.5,,,,,,,,,,,,,,,,,,0,16,16,26,1,,,,,,,,,,,,,,,,,,,,,,,
,,,,,V3_051,22,female,2024-11-05_16h52.05.667,jersey_experiment_5_v3,2023.2.2,Win32,84.74576271,,,,,,,,,,,,,,,,680.4933,681.7874,681.7875,682.7521,return,0.145,,71.484375,,,,,,FBP-PT-91.png,0.45,1.2,30,0.5,,,,,,,,,,,,,,,,,,0,17,17,29,1,,,,,,,,,,,,,,,,,,,,,,,
,,,,,V3_051,22,female,2024-11-05_16h52.05.667,jersey_experiment_5_v3,2023.2.2,Win32,84.74576271,,,,,,,,,,,,,,,,682.7523,684.046,684.046,684.8226,return,0.3664,,67.31770833,,,,,,FBP-PT-91.png,0.4,1.2,28,0.5,,,,,,,,,,,,,,,,,,0,18,18,27,1,,,,,,,,,,,,,,,,,,,,,,,
,,,,,V3_051,22,female,2024-11-05_16h52.05.667,jersey_experiment_5_v3,2023.2.2,Win32,84.74576271,,,,,,,,,,,,,,,,684.8228,686.3757,686.3757,687.5051,return,0.0961,,49.86979167,,,,,,FBP-OG-81.png,0.4,1.2,38,0.75,,,,,,,,,,,,,,,,,,0,19,19,37,1,,,,,,,,,,,,,,,,,,,,,,,
,,,,,V3_051,22,female,2024-11-05_16h52.05.667,jersey_experiment_5_v3,2023.2.2,Win32,84.74576271,,,,,,,,,,,,,,,,687.5053,689.0581,689.0581,689.6816,return,0.1444,,78.125,,,,,,FBP-OG-81.png,0.45,1.2,40,0.75,,,,,,,,,,,,,,,,,,0,20,20,39,1,,,,,,,,,,,,,,,,,,,,,,,
,,,,,V3_051,22,female,2024-11-05_16h52.05.667,jersey_experiment_5_v3,2023.2.2,Win32,84.74576271,,,,,,,,,,,,,,,,689.6819,690.976,690.9761,691.6464,return,0.1224,,15.625,,,,,,FBP-YG-18.png,0.35,1.2,6,0.5,,,,,,,,,,,,,,,,,,0,21,21,5,1,,,,,,,,,,,,,,,,,,,,,,,
,,,,,V3_051,22,female,2024-11-05_16h52.05.667,jersey_experiment_5_v3,2023.2.2,Win32,84.74576271,,,,,,,,,,,,,,,,691.6467,692.9406,692.9406,693.7995,return,0.2437,,68.359375,,,,,,FBP-RB-91.png,0.43,1.2,59,0.5,,,,,,,,,,,,,,,,,,0,22,22,58,1,,,,,,,,,,,,,,,,,,,,,,,
,,,,,V3_051,22,female,2024-11-05_16h52.05.667,jersey_experiment_5_v3,2023.2.2,Win32,84.74576271,,,,,,,,,,,,,,,,693.7997,695.0937,695.0937,695.7643,return,0.2034,,30.20833333,,,,,,FBP-YG-19.png,0.35,1.2,11,0.5,,,,,,,,,,,,,,,,,,0,23,23,10,1,,,,,,,,,,,,,,,,,,,,,,,
,,,,,V3_051,22,female,2024-11-05_16h52.05.667,jersey_experiment_5_v3,2023.2.2,Win32,84.74576271,,,,,,,,,,,,,,,,695.7646,697.3173,697.3173,697.729,return,0.2003,,48.046875,,,,,,FBP-OG-71.png,0.37,1.2,32,0.75,,,,,,,,,,,,,,,,,,0,24,24,31,1,,,,,,,,,,,,,,,,,,,,,,,
,,,,,V3_051,22,female,2024-11-05_16h52.05.667,jersey_experiment_5_v3,2023.2.2,Win32,84.74576271,,,,,,,,,,,,,,,,697.7292,699.0231,699.0232,699.4938,return,0.079,,48.046875,,,,,,FBP-YG-18.png,0.37,1.2,7,0.5,,,,,,,,,,,,,,,,,,0,25,25,6,1,,,,,,,,,,,,,,,,,,,,,,,
,,,,,V3_051,22,female,2024-11-05_16h52.05.667,jersey_experiment_5_v3,2023.2.2,Win32,84.74576271,,,,,,,,,,,,,,,,699.4939,700.788,700.788,701.0586,return,0.0628,,48.046875,,,,,,FBP-YG-17.png,0.35,1.2,1,0.5,,,,,,,,,,,,,,,,,,0,26,26,0,1,,,,,,,,,,,,,,,,,,,,,,,
,,,,,V3_051,22,female,2024-11-05_16h52.05.667,jersey_experiment_5_v3,2023.2.2,Win32,84.74576271,,,,,,,,,,,,,,,,701.0588,702.3527,702.3527,703.188,return,0.2906,,48.046875,,,,,,FBP-YG-19.png,0.37,1.2,12,0.5,,,,,,,,,,,,,,,,,,0,27,27,11,1,,,,,,,,,,,,,,,,,,,,,,,
,,,,,V3_051,22,female,2024-11-05_16h52.05.667,jersey_experiment_5_v3,2023.2.2,Win32,84.74576271,,,,,,,,,,,,,,,,703.1883,704.4822,704.4823,705.3645,return,0.4265,,48.046875,,,,,,FBP-YG-17.png,0.37,1.2,2,0.5,,,,,,,,,,,,,,,,,,0,28,28,1,1,,,,,,,,,,,,,,,,,,,,,,,
,,,,,V3_051,22,female,2024-11-05_16h52.05.667,jersey_experiment_5_v3,2023.2.2,Win32,84.74576271,,,,,,,,,,,,,,,,705.3648,706.9178,706.9178,707.3412,return,0.1685,,39.84375,,,,,,FBP-OG-91.png,0.35,1.2,41,0.75,,,,,,,,,,,,,,,,,,0,29,29,40,1,,,,,,,,,,,,,,,,,,,,,,,
,,,,,V3_051,22,female,2024-11-05_16h52.05.667,jersey_experiment_5_v3,2023.2.2,Win32,84.74576271,,,,,,,,,,,,,,,,707.3414,708.6354,708.6354,709.4235,return,0.0838,,68.22916667,,,,,,FBP-RB-71.png,0.37,1.2,47,0.5,,,,,,,,,,,,,,,,,,0,30,30,46,1,,,,,,,,,,,,,,,,,,,,,,,
,,,,,V3_051,22,female,2024-11-05_16h52.05.667,jersey_experiment_5_v3,2023.2.2,Win32,84.74576271,,,,,,,,,,,,,,,,709.4237,710.7178,710.7178,711.3295,return,0.1209,,81.51041667,,,,,,FBP-RB-91.png,0.4,1.2,58,0.5,,,,,,,,,,,,,,,,,,0,31,31,57,1,,,,,,,,,,,,,,,,,,,,,,,
,,,,,V3_051,22,female,2024-11-05_16h52.05.667,jersey_experiment_5_v3,2023.2.2,Win32,84.74576271,,,,,,,,,,,,,,,,711.3298,712.6236,712.6236,713.212,return,0.1601,,92.83854167,,,,,,FBP-PT-81.png,0.45,1.2,25,0.5,,,,,,,,,,,,,,,,,,0,32,32,24,1,,,,,,,,,,,,,,,,,,,,,,,
,,,,,V3_051,22,female,2024-11-05_16h52.05.667,jersey_experiment_5_v3,2023.2.2,Win32,84.74576271,,,,,,,,,,,,,,,,713.212,714.5062,714.5062,714.9767,return,0.0746,,88.02083333,,,,,,FBP-YG-17.png,0.43,1.2,4,0.5,,,,,,,,,,,,,,,,,,0,33,33,3,1,,,,,,,,,,,,,,,,,,,,,,,
,,,,,V3_051,22,female,2024-11-05_16h52.05.667,jersey_experiment_5_v3,2023.2.2,Win32,84.74576271,,,,,,,,,,,,,,,,714.9769,716.5181,716.5182,717.2119,return,0.1129,,17.96875,,,,,,FBP-OG-81.png,0.35,1.2,36,0.75,,,,,,,,,,,,,,,,,,0,34,34,35,1,,,,,,,,,,,,,,,,,,,,,,,
,,,,,V3_051,22,female,2024-11-05_16h52.05.667,jersey_experiment_5_v3,2023.2.2,Win32,84.74576271,,,,,,,,,,,,,,,,717.2122,718.5064,718.5065,718.9769,return,0.0355,,74.47916667,,,,,,FBP-PT-71.png,0.45,1.2,20,0.5,,,,,,,,,,,,,,,,,,0,35,35,19,1,,,,,,,,,,,,,,,,,,,,,,,
,,,,,V3_051,22,female,2024-11-05_16h52.05.667,jersey_experiment_5_v3,2023.2.2,Win32,84.74576271,,,,,,,,,,,,,,,,718.9771,720.271,720.271,720.7416,return,0.0574,,78.515625,,,,,,FBP-YG-18.png,0.4,1.2,8,0.5,,,,,,,,,,,,,,,,,,0,36,36,7,1,,,,,,,,,,,,,,,,,,,,,,,
,,,,,V3_051,22,female,2024-11-05_16h52.05.667,jersey_experiment_5_v3,2023.2.2,Win32,84.74576271,,,,,,,,,,,,,,,,720.7418,722.0358,722.0358,722.8711,return,0.2127,,76.171875,,,,,,FBP-PT-81.png,0.43,1.2,24,0.5,,,,,,,,,,,,,,,,,,0,37,37,23,1,,,,,,,,,,,,,,,,,,,,,,,
,,,,,V3_051,22,female,2024-11-05_16h52.05.667,jersey_experiment_5_v3,2023.2.2,Win32,84.74576271,,,,,,,,,,,,,,,,722.8714,724.1654,724.1654,724.9888,return,0.1844,,58.85416667,,,,,,FBP-YG-19.png,0.4,1.2,13,0.5,,,,,,,,,,,,,,,,,,0,38,38,12,1,,,,,,,,,,,,,,,,,,,,,,,
,,,,,V3_051,22,female,2024-11-05_16h52.05.667,jersey_experiment_5_v3,2023.2.2,Win32,84.74576271,,,,,,,,,,,,,,,,724.9889,726.283,726.283,726.8361,return,0.1521,,84.50520833,,,,,,FBP-YG-18.png,0.45,1.2,10,0.5,,,,,,,,,,,,,,,,,,0,39,39,9,1,,,,,,,,,,,,,,,,,,,,,,,
,,,,,V3_051,22,female,2024-11-05_16h52.05.667,jersey_experiment_5_v3,2023.2.2,Win32,84.74576271,,,,,,,,,,,,,,,,726.8363,728.1301,728.1302,728.789,return,0.0788,,47.52604167,,,,,,FBP-PT-81.png,0.37,1.2,22,0.5,,,,,,,,,,,,,,,,,,0,40,40,21,1,,,,,,,,,,,,,,,,,,,,,,,
,,,,,V3_051,22,female,2024-11-05_16h52.05.667,jersey_experiment_5_v3,2023.2.2,Win32,84.74576271,,,,,,,,,,,,,,,,728.7892,730.0832,730.0832,731.3303,return,0.1066,,25.52083333,,,,,,FBP-PT-71.png,0.37,1.2,17,0.5,,,,,,,,,,,,,,,,,,0,41,41,16,1,,,,,,,,,,,,,,,,,,,,,,,
,,,,,V3_051,22,female,2024-11-05_16h52.05.667,jersey_experiment_5_v3,2023.2.2,Win32,84.74576271,,,,,,,,,,,,,,,,731.3305,732.6244,732.6244,733.1539,return,0.1199,,50.26041667,,,,,,FBP-YG-19.png,0.43,1.2,14,0.5,,,,,,,,,,,,,,,,,,0,42,42,13,1,,,,,,,,,,,,,,,,,,,,,,,
,,,,,V3_051,22,female,2024-11-05_16h52.05.667,jersey_experiment_5_v3,2023.2.2,Win32,84.74576271,,,,,,,,,,,,,,,,733.1542,734.4481,734.4481,735.6127,return,0.2063,,18.48958333,,,,,,FBP-RB-81.png,0.35,1.2,51,0.5,,,,,,,,,,,,,,,,,,0,43,43,50,1,,,,,,,,,,,,,,,,,,,,,,,
,,,,,V3_051,22,female,2024-11-05_16h52.05.667,jersey_experiment_5_v3,2023.2.2,Win32,84.74576271,,,,,,,,,,,,,,,,735.613,736.907,736.907,737.6364,return,0.129,,45.703125,,,,,,FBP-YG-17.png,0.4,1.2,3,0.5,,,,,,,,,,,,,,,,,,0,44,44,2,1,,,,,,,,,,,,,,,,,,,,,,,
,,,,,V3_051,22,female,2024-11-05_16h52.05.667,jersey_experiment_5_v3,2023.2.2,Win32,84.74576271,,,,,,,,,,,,,,,,737.6366,738.9307,738.9307,740.3659,return,0.228,,45.05208333,,,,,,FBP-RB-71.png,0.35,1.2,46,0.5,,,,,,,,,,,,,,,,,,0,45,45,45,1,,,,,,,,,,,,,,,,,,,,,,,
,,,,,V3_051,22,female,2024-11-05_16h52.05.667,jersey_experiment_5_v3,2023.2.2,Win32,84.74576271,,,,,,,,,,,,,,,,740.3662,741.66,741.6601,743.6365,return,1.5867,,42.70833333,,,,,,FBP-RB-91.png,0.37,1.2,57,0.5,,,,,,,,,,,,,,,,,,0,46,46,56,1,,,,,,,,,,,,,,,,,,,,,,,
,,,,,V3_051,22,female,2024-11-05_16h52.05.667,jersey_experiment_5_v3,2023.2.2,Win32,84.74576271,,,,,,,,,,,,,,,,743.6368,745.1897,745.1897,745.7426,return,0.1938,,50.91145833,,,,,,FBP-OG-91.png,0.4,1.2,43,0.75,,,,,,,,,,,,,,,,,,0,47,47,42,1,,,,,,,,,,,,,,,,,,,,,,,
,,,,,V3_051,22,female,2024-11-05_16h52.05.667,jersey_experiment_5_v3,2023.2.2,Win32,84.74576271,,,,,,,,,,,,,,,,745.7429,747.0368,747.0369,747.6367,return,0.1883,,70.83333333,,,,,,FBP-YG-19.png,0.45,1.2,15,0.5,,,,,,,,,,,,,,,,,,0,48,48,14,1,,,,,,,,,,,,,,,,,,,,,,,
,,,,,V3_051,22,female,2024-11-05_16h52.05.667,jersey_experiment_5_v3,2023.2.2,Win32,84.74576271,,,,,,,,,,,,,,,,747.637,749.1899,749.1899,749.8251,return,0.1551,,14.19270833,,,,,,FBP-OG-91.png,0.37,1.2,42,0.75,,,,,,,,,,,,,,,,,,0,49,49,41,1,,,,,,,,,,,,,,,,,,,,,,,
,,,,,V3_051,22,female,2024-11-05_16h52.05.667,jersey_experiment_5_v3,2023.2.2,Win32,84.74576271,,,,,,,,,,,,,,,,749.8253,751.1194,751.1194,751.9546,return,0.108,,27.734375,,,,,,FBP-RB-81.png,0.43,1.2,54,0.5,,,,,,,,,,,,,,,,,,0,50,50,53,1,,,,,,,,,,,,,,,,,,,,,,,
,,,,,V3_051,22,female,2024-11-05_16h52.05.667,jersey_experiment_5_v3,2023.2.2,Win32,84.74576271,,,,,,,,,,,,,,,,751.955,753.2487,753.2488,754.5194,return,0.6488,,58.33333333,,,,,,FBP-RB-71.png,0.4,1.2,48,0.5,,,,,,,,,,,,,,,,,,0,51,51,47,1,,,,,,,,,,,,,,,,,,,,,,,
,,,,,V3_051,22,female,2024-11-05_16h52.05.667,jersey_experiment_5_v3,2023.2.2,Win32,84.74576271,,,,,,,,,,,,,,,,754.5197,756.0726,756.0727,756.6607,return,0.1335,,13.28125,,,,,,FBP-OG-71.png,0.35,1.2,31,0.75,,,,,,,,,,,,,,,,,,0,52,52,30,1,,,,,,,,,,,,,,,,,,,,,,,
,,,,,V3_051,22,female,2024-11-05_16h52.05.667,jersey_experiment_5_v3,2023.2.2,Win32,84.74576271,,,,,,,,,,,,,,,,756.661,757.9548,757.9548,759.3431,return,0.2162,,78.25520833,,,,,,FBP-YG-18.png,0.43,1.2,9,0.5,,,,,,,,,,,,,,,,,,0,53,53,8,1,,,,,,,,,,,,,,,,,,,,,,,
,,,,,V3_051,22,female,2024-11-05_16h52.05.667,jersey_experiment_5_v3,2023.2.2,Win32,84.74576271,,,,,,,,,,,,,,,,759.3433,760.6371,760.6372,761.3078,return,0.1264,,89.19270833,,,,,,FBP-RB-71.png,0.45,1.2,50,0.5,,,,,,,,,,,,,,,,,,0,54,54,49,1,,,,,,,,,,,,,,,,,,,,,,,
,,,,,V3_051,22,female,2024-11-05_16h52.05.667,jersey_experiment_5_v3,2023.2.2,Win32,84.74576271,,,,,,,,,,,,,,,,761.3081,762.602,762.6021,763.5668,return,0.5473,,91.53645833,,,,,,FBP-RB-81.png,0.45,1.2,55,0.5,,,,,,,,,,,,,,,,,,0,55,55,54,1,,,,,,,,,,,,,,,,,,,,,,,
,,,,,V3_051,22,female,2024-11-05_16h52.05.667,jersey_experiment_5_v3,2023.2.2,Win32,84.74576271,,,,,,,,,,,,,,,,763.5671,764.8609,764.8609,765.8255,return,0.5763,,90.75520833,,,,,,FBP-RB-91.png,0.45,1.2,60,0.5,,,,,,,,,,,,,,,,,,0,56,56,59,1,,,,,,,,,,,,,,,,,,,,,,,
,,,,,V3_051,22,female,2024-11-05_16h52.05.667,jersey_experiment_5_v3,2023.2.2,Win32,84.74576271,,,,,,,,,,,,,,,,765.8258,767.1199,767.1199,767.6612,return,0.2517,,82.421875,,,,,,FBP-PT-71.png,0.43,1.2,19,0.5,,,,,,,,,,,,,,,,,,0,57,57,18,1,,,,,,,,,,,,,,,,,,,,,,,
,,,,,V3_051,22,female,2024-11-05_16h52.05.667,jersey_experiment_5_v3,2023.2.2,Win32,84.74576271,,,,,,,,,,,,,,,,767.6613,768.9552,768.9553,769.7787,return,0.1768,,86.84895833,,,,,,FBP-PT-81.png,0.4,1.2,23,0.5,,,,,,,,,,,,,,,,,,0,58,58,22,1,,,,,,,,,,,,,,,,,,,,,,,
,,,,,V3_051,22,female,2024-11-05_16h52.05.667,jersey_experiment_5_v3,2023.2.2,Win32,84.74576271,,,,,,,,,,,,,,,,769.7789,771.073,771.073,771.7318,return,0.0817,,31.38020833,,,,,,FBP-RB-81.png,0.37,1.2,52,0.5,,,,,,,,,,,,,,,,,,0,59,59,51,1,,,,,,,,,,,,,,,,,,,,,,,
,,,,,V3_051,22,female,2024-11-05_16h52.05.667,jersey_experiment_5_v3,2023.2.2,Win32,84.74576271,,,,,,,,,,,,,,,,,,,,,,,,,,,,,,,,,,,,,,,,,,,,,,,,,,,,,,,,771.7319,778.7204,return,6.9777,,,,,,,,,,,,,,,,,,,
,,,,,V3_051,22,female,2024-11-05_16h52.05.667,jersey_experiment_5_v3,2023.2.2,Win32,84.74576271,,,,,,,,,,,,,,,,,,,,,,,,,,,,,,,,,,,,,,,,,,,,,,,,,,,,,,,,,,,,,778.7206,782.9324,1,3.1628,return,1.0355,,,,,,,,,,,,
,,,,,V3_051,22,female,2024-11-05_16h52.05.667,jersey_experiment_5_v3,2023.2.2,Win32,84.74576271,,,,,,,,,,,,,,,,,,,,,,,,,,,,,,,,,,,,,,,,,,,,,,,,,,,,,,,,,,,,,,,,,,,,782.9326,820.7224,I do not have an idea on what this study might be about. I recognized that some of the pictures were closer up on the screen.,right,33.988,,,,,,
,,,,,V3_051,22,female,2024-11-05_16h52.05.667,jersey_experiment_5_v3,2023.2.2,Win32,84.74576271,,,,,,,,,,,,,,,,,,,,,,,,,,,,,,,,,,,,,,,,,,,,,,,,,,,,,,,,,,,,,,,,,,,,,,,,,,820.7225,823.9221,return,3.1875,