requirements.started,requirements.stopped,key_resp_3.keys,key_resp_3.rt,key_resp_3.duration,Subject ID,Age,Gender,date,expName,psychopyVersion,OS,frameRate,instructions1.started,instructions1.stopped,key_resp.keys,key_resp.rt,key_resp.duration,example.started,example.stopped,enter_2.keys,enter_2.rt,enter_2.duration,instructions2.started,instructions2.stopped,enter_3.keys,enter_3.rt,enter_3.duration,image.started,image.stopped,slider_2.started,slider_2.stopped,next.keys,next.rt,next.duration,slider.response,trial_block_1.thisRepN,trial_block_1.thisTrialN,trial_block_1.thisN,trial_block_1.thisIndex,trial_block_1.ran,Path,Width,Height,Index,Duration,trial_block_2.thisRepN,trial_block_2.thisTrialN,trial_block_2.thisN,trial_block_2.thisIndex,trial_block_2.ran,rest_break.started,rest_break.stopped,end_break.started,end_break.stopped,key_resp_5.keys,key_resp_5.rt,key_resp_5.duration,trial_block_3.thisRepN,trial_block_3.thisTrialN,trial_block_3.thisN,trial_block_3.thisIndex,trial_block_3.ran,trial_block_4.thisRepN,trial_block_4.thisTrialN,trial_block_4.thisN,trial_block_4.thisIndex,trial_block_4.ran,questions_intro.started,questions_intro.stopped,enter_12.keys,enter_12.rt,enter_12.duration,question2.started,question2.stopped,question_doingbest.response,question_doingbest.rt,enter_15.keys,enter_15.rt,enter_15.duration,pattern.started,pattern.stopped,pattern_2.text,enter_17.keys,enter_17.rt,enter_17.duration,thankyou.started,thankyou.stopped,enter_14.keys,enter_14.rt,enter_14.duration
0.0002,17.5864,return,17.5818,,V3_061,20,Female,2024-11-14_15h22.07.667,jersey_experiment_5_v3,2023.2.2,Win32,85.47008547,,,,,,,,,,,,,,,,,,,,,,,,,,,,,,,,,,,,,,,,,,,,,,,,,,,,,,,,,,,,,,,,,,,,,,,,,,,,,,
,,,,,V3_061,20,Female,2024-11-14_15h22.07.667,jersey_experiment_5_v3,2023.2.2,Win32,85.47008547,17.5866,29.6912,return,12.0947,,,,,,,,,,,,,,,,,,,,,,,,,,,,,,,,,,,,,,,,,,,,,,,,,,,,,,,,,,,,,,,,,,,,,,,,,,
,,,,,V3_061,20,Female,2024-11-14_15h22.07.667,jersey_experiment_5_v3,2023.2.2,Win32,85.47008547,,,,,,29.6913,36.4649,return,6.7297,,,,,,,,,,,,,,,,,,,,,,,,,,,,,,,,,,,,,,,,,,,,,,,,,,,,,,,,,,,,,,,,,,,,,
,,,,,V3_061,20,Female,2024-11-14_15h22.07.667,jersey_experiment_5_v3,2023.2.2,Win32,85.47008547,,,,,,,,,,,36.4651,59.8539,return,23.3806,,,,,,,,,,,,,,,,,,,,,,,,,,,,,,,,,,,,,,,,,,,,,,,,,,,,,,,,,,,,,,,,
,,,,,V3_061,20,Female,2024-11-14_15h22.07.667,jersey_experiment_5_v3,2023.2.2,Win32,85.47008547,,,,,,,,,,,,,,,,59.8567,61.4069,61.4071,67.1368,return,2.2147,,24.73958333,0,0,0,20,1,FBP-PT-18.png,0.35,1.2,21,0.75,,,,,,,,,,,,,,,,,,,,,,,,,,,,,,,,,,,,,,,,,,,,,
,,,,,V3_061,20,Female,2024-11-14_15h22.07.667,jersey_experiment_5_v3,2023.2.2,Win32,85.47008547,,,,,,,,,,,,,,,,67.1374,68.6894,68.6894,73.266,return,1.639,,25.13020833,0,1,1,55,1,FBP-RB-19.png,0.35,1.2,56,0.75,,,,,,,,,,,,,,,,,,,,,,,,,,,,,,,,,,,,,,,,,,,,,
,,,,,V3_061,20,Female,2024-11-14_15h22.07.667,jersey_experiment_5_v3,2023.2.2,Win32,85.47008547,,,,,,,,,,,,,,,,73.2663,74.8189,74.819,80.3957,return,1.1953,,49.34895833,0,2,2,7,1,FBP-YG-81.png,0.4,1.2,8,0.75,,,,,,,,,,,,,,,,,,,,,,,,,,,,,,,,,,,,,,,,,,,,,
,,,,,V3_061,20,Female,2024-11-14_15h22.07.667,jersey_experiment_5_v3,2023.2.2,Win32,85.47008547,,,,,,,,,,,,,,,,80.396,81.9487,81.9487,86.9724,return,2.111,,74.47916667,0,3,3,59,1,FBP-RB-19.png,0.45,1.2,60,0.75,,,,,,,,,,,,,,,,,,,,,,,,,,,,,,,,,,,,,,,,,,,,,
,,,,,V3_061,20,Female,2024-11-14_15h22.07.667,jersey_experiment_5_v3,2023.2.2,Win32,85.47008547,,,,,,,,,,,,,,,,86.9727,88.2666,88.2666,91.6431,return,1.0429,,74.609375,0,4,4,39,1,FBP-OG-18.png,0.45,1.2,40,0.5,,,,,,,,,,,,,,,,,,,,,,,,,,,,,,,,,,,,,,,,,,,,,
,,,,,V3_061,20,Female,2024-11-14_15h22.07.667,jersey_experiment_5_v3,2023.2.2,Win32,85.47008547,,,,,,,,,,,,,,,,91.6435,93.1962,93.1962,95.7141,return,1.0589,,74.609375,0,5,5,24,1,FBP-PT-18.png,0.45,1.2,25,0.75,,,,,,,,,,,,,,,,,,,,,,,,,,,,,,,,,,,,,,,,,,,,,
,,,,,V3_061,20,Female,2024-11-14_15h22.07.667,jersey_experiment_5_v3,2023.2.2,Win32,85.47008547,,,,,,,,,,,,,,,,95.7143,97.008,97.0081,101.7966,return,2.2439,,73.17708333,0,6,6,37,1,FBP-OG-18.png,0.4,1.2,38,0.5,,,,,,,,,,,,,,,,,,,,,,,,,,,,,,,,,,,,,,,,,,,,,
,,,,,V3_061,20,Female,2024-11-14_15h22.07.667,jersey_experiment_5_v3,2023.2.2,Win32,85.47008547,,,,,,,,,,,,,,,,101.7969,103.0906,103.0907,106.432,return,0.4607,,72.91666667,0,7,7,44,1,FBP-OG-19.png,0.45,1.2,45,0.5,,,,,,,,,,,,,,,,,,,,,,,,,,,,,,,,,,,,,,,,,,,,,
,,,,,V3_061,20,Female,2024-11-14_15h22.07.667,jersey_experiment_5_v3,2023.2.2,Win32,85.47008547,,,,,,,,,,,,,,,,106.4324,107.985,107.985,110.8442,return,0.8534,,25.390625,0,8,8,21,1,FBP-PT-18.png,0.37,1.2,22,0.75,,,,,,,,,,,,,,,,,,,,,,,,,,,,,,,,,,,,,,,,,,,,,
,,,,,V3_061,20,Female,2024-11-14_15h22.07.667,jersey_experiment_5_v3,2023.2.2,Win32,85.47008547,,,,,,,,,,,,,,,,110.8444,112.3971,112.3972,116.6442,return,2.2355,,38.15104167,0,9,9,52,1,FBP-RB-18.png,0.4,1.2,53,0.75,,,,,,,,,,,,,,,,,,,,,,,,,,,,,,,,,,,,,,,,,,,,,
,,,,,V3_061,20,Female,2024-11-14_15h22.07.667,jersey_experiment_5_v3,2023.2.2,Win32,85.47008547,,,,,,,,,,,,,,,,116.6446,117.9382,117.9382,119.809,return,0.4955,,11.58854167,0,10,10,30,1,FBP-OG-17.png,0.35,1.2,31,0.5,,,,,,,,,,,,,,,,,,,,,,,,,,,,,,,,,,,,,,,,,,,,,
,,,,,V3_061,20,Female,2024-11-14_15h22.07.667,jersey_experiment_5_v3,2023.2.2,Win32,85.47008547,,,,,,,,,,,,,,,,119.8093,121.1031,121.1032,124.1975,return,1.3283,,55.20833333,0,11,11,38,1,FBP-OG-18.png,0.43,1.2,39,0.5,,,,,,,,,,,,,,,,,,,,,,,,,,,,,,,,,,,,,,,,,,,,,
,,,,,V3_061,20,Female,2024-11-14_15h22.07.667,jersey_experiment_5_v3,2023.2.2,Win32,85.47008547,,,,,,,,,,,,,,,,124.1978,125.4915,125.4915,127.621,return,0.3914,,39.58333333,0,12,12,32,1,FBP-OG-17.png,0.4,1.2,33,0.5,,,,,,,,,,,,,,,,,,,,,,,,,,,,,,,,,,,,,,,,,,,,,
,,,,,V3_061,20,Female,2024-11-14_15h22.07.667,jersey_experiment_5_v3,2023.2.2,Win32,85.47008547,,,,,,,,,,,,,,,,127.6212,129.1741,129.1741,131.5858,return,0.8829,,74.47916667,0,13,13,4,1,FBP-YG-71.png,0.45,1.2,5,0.75,,,,,,,,,,,,,,,,,,,,,,,,,,,,,,,,,,,,,,,,,,,,,
,,,,,V3_061,20,Female,2024-11-14_15h22.07.667,jersey_experiment_5_v3,2023.2.2,Win32,85.47008547,,,,,,,,,,,,,,,,131.586,132.8802,132.8802,134.8331,return,0.1906,,3.645833333,0,14,14,40,1,FBP-OG-19.png,0.35,1.2,41,0.5,,,,,,,,,,,,,,,,,,,,,,,,,,,,,,,,,,,,,,,,,,,,,
,,,,,V3_061,20,Female,2024-11-14_15h22.07.667,jersey_experiment_5_v3,2023.2.2,Win32,85.47008547,,,,,,,,,,,,,,,,134.8334,136.3861,136.3861,138.245,return,0.3379,,15.625,0,15,15,47,1,FBP-RB-17.png,0.4,1.2,48,0.75,,,,,,,,,,,,,,,,,,,,,,,,,,,,,,,,,,,,,,,,,,,,,
,,,,,V3_061,20,Female,2024-11-14_15h22.07.667,jersey_experiment_5_v3,2023.2.2,Win32,85.47008547,,,,,,,,,,,,,,,,138.2452,139.5391,139.5391,140.9747,return,0.1933,,12.36979167,0,16,16,41,1,FBP-OG-19.png,0.37,1.2,42,0.5,,,,,,,,,,,,,,,,,,,,,,,,,,,,,,,,,,,,,,,,,,,,,
,,,,,V3_061,20,Female,2024-11-14_15h22.07.667,jersey_experiment_5_v3,2023.2.2,Win32,85.47008547,,,,,,,,,,,,,,,,140.9749,142.5278,142.5278,143.7866,return,0.2181,,4.427083333,0,17,17,50,1,FBP-RB-18.png,0.35,1.2,51,0.75,,,,,,,,,,,,,,,,,,,,,,,,,,,,,,,,,,,,,,,,,,,,,
,,,,,V3_061,20,Female,2024-11-14_15h22.07.667,jersey_experiment_5_v3,2023.2.2,Win32,85.47008547,,,,,,,,,,,,,,,,143.7868,145.3393,145.3393,146.7396,return,0.1884,,24.73958333,0,18,18,12,1,FBP-YG-91.png,0.4,1.2,13,0.75,,,,,,,,,,,,,,,,,,,,,,,,,,,,,,,,,,,,,,,,,,,,,
,,,,,V3_061,20,Female,2024-11-14_15h22.07.667,jersey_experiment_5_v3,2023.2.2,Win32,85.47008547,,,,,,,,,,,,,,,,146.7398,148.2924,148.2925,149.9043,return,0.1795,,45.83333333,0,19,19,48,1,FBP-RB-17.png,0.43,1.2,49,0.75,,,,,,,,,,,,,,,,,,,,,,,,,,,,,,,,,,,,,,,,,,,,,
,,,,,V3_061,20,Female,2024-11-14_15h22.07.667,jersey_experiment_5_v3,2023.2.2,Win32,85.47008547,,,,,,,,,,,,,,,,149.9045,151.1984,151.1984,153.5162,return,0.3,,84.375,0,20,20,34,1,FBP-OG-17.png,0.45,1.2,35,0.5,,,,,,,,,,,,,,,,,,,,,,,,,,,,,,,,,,,,,,,,,,,,,
,,,,,V3_061,20,Female,2024-11-14_15h22.07.667,jersey_experiment_5_v3,2023.2.2,Win32,85.47008547,,,,,,,,,,,,,,,,153.5165,155.0694,155.0694,159.8458,return,3.2798,,3.90625,0,21,21,26,1,FBP-PT-19.png,0.37,1.2,27,0.75,,,,,,,,,,,,,,,,,,,,,,,,,,,,,,,,,,,,,,,,,,,,,
,,,,,V3_061,20,Female,2024-11-14_15h22.07.667,jersey_experiment_5_v3,2023.2.2,Win32,85.47008547,,,,,,,,,,,,,,,,159.8461,161.3988,161.3988,163.246,return,0.2528,,75.390625,0,22,22,54,1,FBP-RB-18.png,0.45,1.2,55,0.75,,,,,,,,,,,,,,,,,,,,,,,,,,,,,,,,,,,,,,,,,,,,,
,,,,,V3_061,20,Female,2024-11-14_15h22.07.667,jersey_experiment_5_v3,2023.2.2,Win32,85.47008547,,,,,,,,,,,,,,,,163.2462,164.7989,164.7989,168.4813,return,0.5432,,4.296875,0,23,23,6,1,FBP-YG-81.png,0.37,1.2,7,0.75,,,,,,,,,,,,,,,,,,,,,,,,,,,,,,,,,,,,,,,,,,,,,
,,,,,V3_061,20,Female,2024-11-14_15h22.07.667,jersey_experiment_5_v3,2023.2.2,Win32,85.47008547,,,,,,,,,,,,,,,,168.4816,170.0344,170.0344,171.4934,return,0.247,,4.557291667,0,24,24,1,1,FBP-YG-71.png,0.37,1.2,2,0.75,,,,,,,,,,,,,,,,,,,,,,,,,,,,,,,,,,,,,,,,,,,,,
,,,,,V3_061,20,Female,2024-11-14_15h22.07.667,jersey_experiment_5_v3,2023.2.2,Win32,85.47008547,,,,,,,,,,,,,,,,171.4937,173.0463,173.0464,174.7404,return,0.4573,,3.125,0,25,25,11,1,FBP-YG-91.png,0.37,1.2,12,0.75,,,,,,,,,,,,,,,,,,,,,,,,,,,,,,,,,,,,,,,,,,,,,
,,,,,V3_061,20,Female,2024-11-14_15h22.07.667,jersey_experiment_5_v3,2023.2.2,Win32,85.47008547,,,,,,,,,,,,,,,,174.7408,176.0348,176.0349,177.9173,return,0.4385,,2.213541667,0,26,26,36,1,FBP-OG-18.png,0.37,1.2,37,0.5,,,,,,,,,,,,,,,,,,,,,,,,,,,,,,,,,,,,,,,,,,,,,
,,,,,V3_061,20,Female,2024-11-14_15h22.07.667,jersey_experiment_5_v3,2023.2.2,Win32,85.47008547,,,,,,,,,,,,,,,,177.9175,179.2113,179.2113,181.4585,return,0.1311,,34.89583333,0,27,27,43,1,FBP-OG-19.png,0.43,1.2,44,0.5,,,,,,,,,,,,,,,,,,,,,,,,,,,,,,,,,,,,,,,,,,,,,
,,,,,V3_061,20,Female,2024-11-14_15h22.07.667,jersey_experiment_5_v3,2023.2.2,Win32,85.47008547,,,,,,,,,,,,,,,,181.4586,183.0114,183.0114,184.6232,return,0.1453,,33.07291667,0,28,28,13,1,FBP-YG-91.png,0.43,1.2,14,0.75,,,,,,,,,,,,,,,,,,,,,,,,,,,,,,,,,,,,,,,,,,,,,
,,,,,V3_061,20,Female,2024-11-14_15h22.07.667,jersey_experiment_5_v3,2023.2.2,Win32,85.47008547,,,,,,,,,,,,,,,,184.6235,186.1762,186.1762,187.5999,return,0.1565,,6.640625,0,29,29,16,1,FBP-PT-17.png,0.37,1.2,17,0.75,,,,,,,,,,,,,,,,,,,,,,,,,,,,,,,,,,,,,,,,,,,,,
,,,,,V3_061,20,Female,2024-11-14_15h22.07.667,jersey_experiment_5_v3,2023.2.2,Win32,85.47008547,,,,,,,,,,,,,,,,187.6001,189.1529,189.153,190.741,return,0.1649,,91.015625,0,30,30,19,1,FBP-PT-17.png,0.45,1.2,20,0.75,,,,,,,,,,,,,,,,,,,,,,,,,,,,,,,,,,,,,,,,,,,,,
,,,,,V3_061,20,Female,2024-11-14_15h22.07.667,jersey_experiment_5_v3,2023.2.2,Win32,85.47008547,,,,,,,,,,,,,,,,190.7413,192.2941,192.2942,193.8357,return,0.0907,,69.53125,0,31,31,8,1,FBP-YG-81.png,0.43,1.2,9,0.75,,,,,,,,,,,,,,,,,,,,,,,,,,,,,,,,,,,,,,,,,,,,,
,,,,,V3_061,20,Female,2024-11-14_15h22.07.667,jersey_experiment_5_v3,2023.2.2,Win32,85.47008547,,,,,,,,,,,,,,,,193.836,195.3884,195.3884,197.2944,return,0.1456,,1.822916667,0,32,32,15,1,FBP-PT-17.png,0.35,1.2,16,0.75,,,,,,,,,,,,,,,,,,,,,,,,,,,,,,,,,,,,,,,,,,,,,
,,,,,V3_061,20,Female,2024-11-14_15h22.07.667,jersey_experiment_5_v3,2023.2.2,Win32,85.47008547,,,,,,,,,,,,,,,,197.2947,198.8474,198.8474,200.1768,return,0.1306,,2.734375,0,33,33,56,1,FBP-RB-19.png,0.37,1.2,57,0.75,,,,,,,,,,,,,,,,,,,,,,,,,,,,,,,,,,,,,,,,,,,,,
,,,,,V3_061,20,Female,2024-11-14_15h22.07.667,jersey_experiment_5_v3,2023.2.2,Win32,85.47008547,,,,,,,,,,,,,,,,200.1771,201.7299,201.73,204.1417,return,1.0865,,36.58854167,0,34,34,28,1,FBP-PT-19.png,0.43,1.2,29,0.75,,,,,,,,,,,,,,,,,,,,,,,,,,,,,,,,,,,,,,,,,,,,,
,,,,,V3_061,20,Female,2024-11-14_15h22.07.667,jersey_experiment_5_v3,2023.2.2,Win32,85.47008547,,,,,,,,,,,,,,,,204.1419,205.6946,205.6948,206.5301,return,0.1767,,35.80729167,0,35,35,2,1,FBP-YG-71.png,0.4,1.2,3,0.75,,,,,,,,,,,,,,,,,,,,,,,,,,,,,,,,,,,,,,,,,,,,,
,,,,,V3_061,20,Female,2024-11-14_15h22.07.667,jersey_experiment_5_v3,2023.2.2,Win32,85.47008547,,,,,,,,,,,,,,,,206.5304,207.824,207.824,209.6947,return,0.1426,,29.16666667,0,36,36,31,1,FBP-OG-17.png,0.37,1.2,32,0.5,,,,,,,,,,,,,,,,,,,,,,,,,,,,,,,,,,,,,,,,,,,,,
,,,,,V3_061,20,Female,2024-11-14_15h22.07.667,jersey_experiment_5_v3,2023.2.2,Win32,85.47008547,,,,,,,,,,,,,,,,209.6951,211.2479,211.2479,213.542,return,0.1752,,87.76041667,0,37,37,29,1,FBP-PT-19.png,0.45,1.2,30,0.75,,,,,,,,,,,,,,,,,,,,,,,,,,,,,,,,,,,,,,,,,,,,,
,,,,,V3_061,20,Female,2024-11-14_15h22.07.667,jersey_experiment_5_v3,2023.2.2,Win32,85.47008547,,,,,,,,,,,,,,,,213.5423,215.0949,215.0949,217.2011,return,1.037,,78.125,0,38,38,58,1,FBP-RB-19.png,0.43,1.2,59,0.75,,,,,,,,,,,,,,,,,,,,,,,,,,,,,,,,,,,,,,,,,,,,,
,,,,,V3_061,20,Female,2024-11-14_15h22.07.667,jersey_experiment_5_v3,2023.2.2,Win32,85.47008547,,,,,,,,,,,,,,,,217.2014,218.4951,218.4951,222.6717,return,0.8742,,43.22916667,0,39,39,42,1,FBP-OG-19.png,0.4,1.2,43,0.5,,,,,,,,,,,,,,,,,,,,,,,,,,,,,,,,,,,,,,,,,,,,,
,,,,,V3_061,20,Female,2024-11-14_15h22.07.667,jersey_experiment_5_v3,2023.2.2,Win32,85.47008547,,,,,,,,,,,,,,,,222.672,224.2247,224.2248,225.6012,return,0.202,,74.08854167,0,40,40,23,1,FBP-PT-18.png,0.43,1.2,24,0.75,,,,,,,,,,,,,,,,,,,,,,,,,,,,,,,,,,,,,,,,,,,,,
,,,,,V3_061,20,Female,2024-11-14_15h22.07.667,jersey_experiment_5_v3,2023.2.2,Win32,85.47008547,,,,,,,,,,,,,,,,225.6015,227.1543,227.1544,229.5307,return,0.3119,,5.208333333,0,41,41,5,1,FBP-YG-81.png,0.35,1.2,6,0.75,,,,,,,,,,,,,,,,,,,,,,,,,,,,,,,,,,,,,,,,,,,,,
,,,,,V3_061,20,Female,2024-11-14_15h22.07.667,jersey_experiment_5_v3,2023.2.2,Win32,85.47008547,,,,,,,,,,,,,,,,229.5308,230.8249,230.825,233.778,return,0.1761,,62.36979167,0,42,42,33,1,FBP-OG-17.png,0.43,1.2,34,0.5,,,,,,,,,,,,,,,,,,,,,,,,,,,,,,,,,,,,,,,,,,,,,
,,,,,V3_061,20,Female,2024-11-14_15h22.07.667,jersey_experiment_5_v3,2023.2.2,Win32,85.47008547,,,,,,,,,,,,,,,,233.7783,235.3308,235.3309,236.4959,return,0.157,,57.68229167,0,43,43,3,1,FBP-YG-71.png,0.43,1.2,4,0.75,,,,,,,,,,,,,,,,,,,,,,,,,,,,,,,,,,,,,,,,,,,,,
,,,,,V3_061,20,Female,2024-11-14_15h22.07.667,jersey_experiment_5_v3,2023.2.2,Win32,85.47008547,,,,,,,,,,,,,,,,236.4962,238.0486,238.0486,238.7075,return,0.1071,,60.67708333,0,44,44,57,1,FBP-RB-19.png,0.4,1.2,58,0.75,,,,,,,,,,,,,,,,,,,,,,,,,,,,,,,,,,,,,,,,,,,,,
,,,,,V3_061,20,Female,2024-11-14_15h22.07.667,jersey_experiment_5_v3,2023.2.2,Win32,85.47008547,,,,,,,,,,,,,,,,238.7077,240.2604,240.2604,243.1197,return,1.2982,,61.328125,0,45,45,17,1,FBP-PT-17.png,0.4,1.2,18,0.75,,,,,,,,,,,,,,,,,,,,,,,,,,,,,,,,,,,,,,,,,,,,,
,,,,,V3_061,20,Female,2024-11-14_15h22.07.667,jersey_experiment_5_v3,2023.2.2,Win32,85.47008547,,,,,,,,,,,,,,,,243.1199,244.6725,244.6726,247.1197,return,0.1529,,12.109375,0,46,46,10,1,FBP-YG-91.png,0.35,1.2,11,0.75,,,,,,,,,,,,,,,,,,,,,,,,,,,,,,,,,,,,,,,,,,,,,
,,,,,V3_061,20,Female,2024-11-14_15h22.07.667,jersey_experiment_5_v3,2023.2.2,Win32,85.47008547,,,,,,,,,,,,,,,,247.12,248.6731,248.6731,249.6962,return,0.1795,,7.161458333,0,47,47,51,1,FBP-RB-18.png,0.37,1.2,52,0.75,,,,,,,,,,,,,,,,,,,,,,,,,,,,,,,,,,,,,,,,,,,,,
,,,,,V3_061,20,Female,2024-11-14_15h22.07.667,jersey_experiment_5_v3,2023.2.2,Win32,85.47008547,,,,,,,,,,,,,,,,249.6964,251.2492,251.2493,252.6726,return,0.1315,,74.34895833,0,48,48,14,1,FBP-YG-91.png,0.45,1.2,15,0.75,,,,,,,,,,,,,,,,,,,,,,,,,,,,,,,,,,,,,,,,,,,,,
,,,,,V3_061,20,Female,2024-11-14_15h22.07.667,jersey_experiment_5_v3,2023.2.2,Win32,85.47008547,,,,,,,,,,,,,,,,252.673,254.2259,254.2259,256.5435,return,0.2041,,37.890625,0,49,49,46,1,FBP-RB-17.png,0.37,1.2,47,0.75,,,,,,,,,,,,,,,,,,,,,,,,,,,,,,,,,,,,,,,,,,,,,
,,,,,V3_061,20,Female,2024-11-14_15h22.07.667,jersey_experiment_5_v3,2023.2.2,Win32,85.47008547,,,,,,,,,,,,,,,,256.5438,258.0964,258.0965,259.9086,return,0.1782,,75.52083333,0,50,50,53,1,FBP-RB-18.png,0.43,1.2,54,0.75,,,,,,,,,,,,,,,,,,,,,,,,,,,,,,,,,,,,,,,,,,,,,
,,,,,V3_061,20,Female,2024-11-14_15h22.07.667,jersey_experiment_5_v3,2023.2.2,Win32,85.47008547,,,,,,,,,,,,,,,,259.9089,261.4613,261.4614,262.7672,return,0.0514,,74.34895833,0,51,51,18,1,FBP-PT-17.png,0.43,1.2,19,0.75,,,,,,,,,,,,,,,,,,,,,,,,,,,,,,,,,,,,,,,,,,,,,
,,,,,V3_061,20,Female,2024-11-14_15h22.07.667,jersey_experiment_5_v3,2023.2.2,Win32,85.47008547,,,,,,,,,,,,,,,,262.7674,264.3087,264.3088,274.5326,return,2.4105,,38.41145833,0,52,52,25,1,FBP-PT-19.png,0.35,1.2,26,0.75,,,,,,,,,,,,,,,,,,,,,,,,,,,,,,,,,,,,,,,,,,,,,
,,,,,V3_061,20,Female,2024-11-14_15h22.07.667,jersey_experiment_5_v3,2023.2.2,Win32,85.47008547,,,,,,,,,,,,,,,,274.533,275.8265,275.8266,277.568,return,0.1528,,13.02083333,0,53,53,35,1,FBP-OG-18.png,0.35,1.2,36,0.5,,,,,,,,,,,,,,,,,,,,,,,,,,,,,,,,,,,,,,,,,,,,,
,,,,,V3_061,20,Female,2024-11-14_15h22.07.667,jersey_experiment_5_v3,2023.2.2,Win32,85.47008547,,,,,,,,,,,,,,,,277.5683,279.1208,279.1209,280.3211,return,0.152,,12.23958333,0,54,54,45,1,FBP-RB-17.png,0.35,1.2,46,0.75,,,,,,,,,,,,,,,,,,,,,,,,,,,,,,,,,,,,,,,,,,,,,
,,,,,V3_061,20,Female,2024-11-14_15h22.07.667,jersey_experiment_5_v3,2023.2.2,Win32,85.47008547,,,,,,,,,,,,,,,,280.3212,281.8738,281.8739,283.7798,return,0.1886,,88.671875,0,55,55,9,1,FBP-YG-81.png,0.45,1.2,10,0.75,,,,,,,,,,,,,,,,,,,,,,,,,,,,,,,,,,,,,,,,,,,,,
,,,,,V3_061,20,Female,2024-11-14_15h22.07.667,jersey_experiment_5_v3,2023.2.2,Win32,85.47008547,,,,,,,,,,,,,,,,283.7801,285.3329,285.3329,287.0273,return,1.0121,,24.08854167,0,56,56,0,1,FBP-YG-71.png,0.35,1.2,1,0.75,,,,,,,,,,,,,,,,,,,,,,,,,,,,,,,,,,,,,,,,,,,,,
,,,,,V3_061,20,Female,2024-11-14_15h22.07.667,jersey_experiment_5_v3,2023.2.2,Win32,85.47008547,,,,,,,,,,,,,,,,287.0276,288.5801,288.5802,290.8507,return,0.2594,,36.45833333,0,57,57,22,1,FBP-PT-18.png,0.4,1.2,23,0.75,,,,,,,,,,,,,,,,,,,,,,,,,,,,,,,,,,,,,,,,,,,,,
,,,,,V3_061,20,Female,2024-11-14_15h22.07.667,jersey_experiment_5_v3,2023.2.2,Win32,85.47008547,,,,,,,,,,,,,,,,290.8511,292.4038,292.4039,294.0042,return,0.142,,89.58333333,0,58,58,49,1,FBP-RB-17.png,0.45,1.2,50,0.75,,,,,,,,,,,,,,,,,,,,,,,,,,,,,,,,,,,,,,,,,,,,,
,,,,,V3_061,20,Female,2024-11-14_15h22.07.667,jersey_experiment_5_v3,2023.2.2,Win32,85.47008547,,,,,,,,,,,,,,,,294.0046,295.5567,295.5568,297.3804,return,0.1178,,74.34895833,0,59,59,27,1,FBP-PT-19.png,0.4,1.2,28,0.75,,,,,,,,,,,,,,,,,,,,,,,,,,,,,,,,,,,,,,,,,,,,,
,,,,,V3_061,20,Female,2024-11-14_15h22.07.667,jersey_experiment_5_v3,2023.2.2,Win32,85.47008547,,,,,,,,,,,,,,,,297.3825,298.9334,298.9336,299.9688,return,0.202,,24.47916667,,,,,,FBP-YG-17.png,0.35,1.2,1,0.75,0,0,0,0,1,,,,,,,,,,,,,,,,,,,,,,,,,,,,,,,,,,,,,,,,
,,,,,V3_061,20,Female,2024-11-14_15h22.07.667,jersey_experiment_5_v3,2023.2.2,Win32,85.47008547,,,,,,,,,,,,,,,,299.9692,301.2628,301.2628,302.5806,return,0.1888,,25.26041667,,,,,,FBP-OG-81.png,0.37,1.2,37,0.5,0,1,1,36,1,,,,,,,,,,,,,,,,,,,,,,,,,,,,,,,,,,,,,,,,
,,,,,V3_061,20,Female,2024-11-14_15h22.07.667,jersey_experiment_5_v3,2023.2.2,Win32,85.47008547,,,,,,,,,,,,,,,,302.581,304.1335,304.1335,308.5103,return,1.2759,,30.46875,,,,,,FBP-RB-91.png,0.4,1.2,58,0.75,0,2,2,57,1,,,,,,,,,,,,,,,,,,,,,,,,,,,,,,,,,,,,,,,,
,,,,,V3_061,20,Female,2024-11-14_15h22.07.667,jersey_experiment_5_v3,2023.2.2,Win32,85.47008547,,,,,,,,,,,,,,,,308.5105,309.8043,309.8044,311.216,return,0.1547,,83.72395833,,,,,,FBP-OG-91.png,0.45,1.2,45,0.5,0,3,3,44,1,,,,,,,,,,,,,,,,,,,,,,,,,,,,,,,,,,,,,,,,
,,,,,V3_061,20,Female,2024-11-14_15h22.07.667,jersey_experiment_5_v3,2023.2.2,Win32,85.47008547,,,,,,,,,,,,,,,,311.2161,312.7576,312.7576,315.0869,return,0.2632,,46.875,,,,,,FBP-RB-91.png,0.37,1.2,57,0.75,0,4,4,56,1,,,,,,,,,,,,,,,,,,,,,,,,,,,,,,,,,,,,,,,,
,,,,,V3_061,20,Female,2024-11-14_15h22.07.667,jersey_experiment_5_v3,2023.2.2,Win32,85.47008547,,,,,,,,,,,,,,,,315.0872,316.6398,316.6398,317.8283,return,0.1649,,41.53645833,,,,,,FBP-PT-91.png,0.35,1.2,26,0.75,0,5,5,25,1,,,,,,,,,,,,,,,,,,,,,,,,,,,,,,,,,,,,,,,,
,,,,,V3_061,20,Female,2024-11-14_15h22.07.667,jersey_experiment_5_v3,2023.2.2,Win32,85.47008547,,,,,,,,,,,,,,,,317.8287,319.1223,319.1224,320.7341,return,0.2134,,91.40625,,,,,,FBP-OG-81.png,0.45,1.2,40,0.5,0,6,6,39,1,,,,,,,,,,,,,,,,,,,,,,,,,,,,,,,,,,,,,,,,
,,,,,V3_061,20,Female,2024-11-14_15h22.07.667,jersey_experiment_5_v3,2023.2.2,Win32,85.47008547,,,,,,,,,,,,,,,,320.7344,322.0283,322.0283,322.852,return,0.1543,,93.88020833,,,,,,FBP-OG-91.png,0.43,1.2,44,0.5,0,7,7,43,1,,,,,,,,,,,,,,,,,,,,,,,,,,,,,,,,,,,,,,,,
,,,,,V3_061,20,Female,2024-11-14_15h22.07.667,jersey_experiment_5_v3,2023.2.2,Win32,85.47008547,,,,,,,,,,,,,,,,322.8522,324.405,324.4051,325.8402,return,0.5561,,75,,,,,,FBP-PT-91.png,0.45,1.2,30,0.75,0,8,8,29,1,,,,,,,,,,,,,,,,,,,,,,,,,,,,,,,,,,,,,,,,
,,,,,V3_061,20,Female,2024-11-14_15h22.07.667,jersey_experiment_5_v3,2023.2.2,Win32,85.47008547,,,,,,,,,,,,,,,,325.8404,327.3934,327.3935,329.6524,return,1.3443,,61.06770833,,,,,,FBP-YG-18.png,0.4,1.2,8,0.75,0,9,9,7,1,,,,,,,,,,,,,,,,,,,,,,,,,,,,,,,,,,,,,,,,
,,,,,V3_061,20,Female,2024-11-14_15h22.07.667,jersey_experiment_5_v3,2023.2.2,Win32,85.47008547,,,,,,,,,,,,,,,,329.6526,331.2055,331.2056,333.7465,return,0.3428,,25,,,,,,FBP-YG-18.png,0.37,1.2,7,0.75,0,10,10,6,1,,,,,,,,,,,,,,,,,,,,,,,,,,,,,,,,,,,,,,,,
,,,,,V3_061,20,Female,2024-11-14_15h22.07.667,jersey_experiment_5_v3,2023.2.2,Win32,85.47008547,,,,,,,,,,,,,,,,333.7468,335.2996,335.2996,336.7348,return,0.3454,,74.609375,,,,,,FBP-RB-91.png,0.43,1.2,59,0.75,0,11,11,58,1,,,,,,,,,,,,,,,,,,,,,,,,,,,,,,,,,,,,,,,,
,,,,,V3_061,20,Female,2024-11-14_15h22.07.667,jersey_experiment_5_v3,2023.2.2,Win32,85.47008547,,,,,,,,,,,,,,,,336.7352,338.2878,338.2878,340.2527,return,0.1798,,64.71354167,,,,,,FBP-RB-71.png,0.4,1.2,48,0.75,0,12,12,47,1,,,,,,,,,,,,,,,,,,,,,,,,,,,,,,,,,,,,,,,,
,,,,,V3_061,20,Female,2024-11-14_15h22.07.667,jersey_experiment_5_v3,2023.2.2,Win32,85.47008547,,,,,,,,,,,,,,,,340.253,341.5469,341.547,342.9468,return,0.4371,,62.5,,,,,,FBP-OG-71.png,0.4,1.2,33,0.5,0,13,13,32,1,,,,,,,,,,,,,,,,,,,,,,,,,,,,,,,,,,,,,,,,
,,,,,V3_061,20,Female,2024-11-14_15h22.07.667,jersey_experiment_5_v3,2023.2.2,Win32,85.47008547,,,,,,,,,,,,,,,,342.9472,344.4997,344.4998,345.7588,return,0.1336,,60.02604167,,,,,,FBP-PT-71.png,0.4,1.2,18,0.75,0,14,14,17,1,,,,,,,,,,,,,,,,,,,,,,,,,,,,,,,,,,,,,,,,
,,,,,V3_061,20,Female,2024-11-14_15h22.07.667,jersey_experiment_5_v3,2023.2.2,Win32,85.47008547,,,,,,,,,,,,,,,,345.7592,347.3116,347.3117,349.8883,return,0.1562,,56.25,,,,,,FBP-YG-19.png,0.37,1.2,12,0.75,0,15,15,11,1,,,,,,,,,,,,,,,,,,,,,,,,,,,,,,,,,,,,,,,,
,,,,,V3_061,20,Female,2024-11-14_15h22.07.667,jersey_experiment_5_v3,2023.2.2,Win32,85.47008547,,,,,,,,,,,,,,,,349.8885,351.1826,351.1827,353.5473,return,0.22,,24.47916667,,,,,,FBP-OG-91.png,0.35,1.2,41,0.5,0,16,16,40,1,,,,,,,,,,,,,,,,,,,,,,,,,,,,,,,,,,,,,,,,
,,,,,V3_061,20,Female,2024-11-14_15h22.07.667,jersey_experiment_5_v3,2023.2.2,Win32,85.47008547,,,,,,,,,,,,,,,,353.5476,355.1002,355.1002,356.5593,return,0.3682,,22.78645833,,,,,,FBP-YG-19.png,0.35,1.2,11,0.75,0,17,17,10,1,,,,,,,,,,,,,,,,,,,,,,,,,,,,,,,,,,,,,,,,
,,,,,V3_061,20,Female,2024-11-14_15h22.07.667,jersey_experiment_5_v3,2023.2.2,Win32,85.47008547,,,,,,,,,,,,,,,,356.5596,358.1121,358.1121,359.7003,return,0.1545,,92.05729167,,,,,,FBP-RB-71.png,0.45,1.2,50,0.75,0,18,18,49,1,,,,,,,,,,,,,,,,,,,,,,,,,,,,,,,,,,,,,,,,
,,,,,V3_061,20,Female,2024-11-14_15h22.07.667,jersey_experiment_5_v3,2023.2.2,Win32,85.47008547,,,,,,,,,,,,,,,,359.7006,361.2533,361.2534,362.2064,return,0.1335,,90.49479167,,,,,,FBP-PT-81.png,0.45,1.2,25,0.75,0,19,19,24,1,,,,,,,,,,,,,,,,,,,,,,,,,,,,,,,,,,,,,,,,
,,,,,V3_061,20,Female,2024-11-14_15h22.07.667,jersey_experiment_5_v3,2023.2.2,Win32,85.47008547,,,,,,,,,,,,,,,,362.2065,363.7595,363.7595,365.6537,return,0.1783,,44.27083333,,,,,,FBP-PT-71.png,0.37,1.2,17,0.75,0,20,20,16,1,,,,,,,,,,,,,,,,,,,,,,,,,,,,,,,,,,,,,,,,
,,,,,V3_061,20,Female,2024-11-14_15h22.07.667,jersey_experiment_5_v3,2023.2.2,Win32,85.47008547,,,,,,,,,,,,,,,,365.654,367.2067,367.2067,368.9596,return,0.1687,,66.66666667,,,,,,FBP-RB-71.png,0.43,1.2,49,0.75,0,21,21,48,1,,,,,,,,,,,,,,,,,,,,,,,,,,,,,,,,,,,,,,,,
,,,,,V3_061,20,Female,2024-11-14_15h22.07.667,jersey_experiment_5_v3,2023.2.2,Win32,85.47008547,,,,,,,,,,,,,,,,368.96,370.5126,370.5126,372.3832,return,0.2842,,70.44270833,,,,,,FBP-RB-81.png,0.4,1.2,53,0.75,0,22,22,52,1,,,,,,,,,,,,,,,,,,,,,,,,,,,,,,,,,,,,,,,,
,,,,,V3_061,20,Female,2024-11-14_15h22.07.667,jersey_experiment_5_v3,2023.2.2,Win32,85.47008547,,,,,,,,,,,,,,,,372.3834,373.9361,373.9361,374.8303,return,0.1693,,72.13541667,,,,,,FBP-YG-19.png,0.4,1.2,13,0.75,0,23,23,12,1,,,,,,,,,,,,,,,,,,,,,,,,,,,,,,,,,,,,,,,,
,,,,,V3_061,20,Female,2024-11-14_15h22.07.667,jersey_experiment_5_v3,2023.2.2,Win32,85.47008547,,,,,,,,,,,,,,,,374.8306,376.3835,376.3835,377.9366,return,0.1901,,32.29166667,,,,,,FBP-RB-71.png,0.35,1.2,46,0.75,0,24,24,45,1,,,,,,,,,,,,,,,,,,,,,,,,,,,,,,,,,,,,,,,,
,,,,,V3_061,20,Female,2024-11-14_15h22.07.667,jersey_experiment_5_v3,2023.2.2,Win32,85.47008547,,,,,,,,,,,,,,,,377.9367,379.4895,379.4895,380.9013,return,0.1567,,50.13020833,,,,,,FBP-PT-71.png,0.43,1.2,19,0.75,0,25,25,18,1,,,,,,,,,,,,,,,,,,,,,,,,,,,,,,,,,,,,,,,,
,,,,,V3_061,20,Female,2024-11-14_15h22.07.667,jersey_experiment_5_v3,2023.2.2,Win32,85.47008547,,,,,,,,,,,,,,,,380.9015,382.1953,382.1953,383.5014,return,0.2054,,31.11979167,,,,,,FBP-OG-71.png,0.35,1.2,31,0.5,0,26,26,30,1,,,,,,,,,,,,,,,,,,,,,,,,,,,,,,,,,,,,,,,,
,,,,,V3_061,20,Female,2024-11-14_15h22.07.667,jersey_experiment_5_v3,2023.2.2,Win32,85.47008547,,,,,,,,,,,,,,,,383.5017,384.7953,384.7953,387.9839,return,0.1331,,23.30729167,,,,,,FBP-OG-91.png,0.37,1.2,42,0.5,0,27,27,41,1,,,,,,,,,,,,,,,,,,,,,,,,,,,,,,,,,,,,,,,,
,,,,,V3_061,20,Female,2024-11-14_15h22.07.667,jersey_experiment_5_v3,2023.2.2,Win32,85.47008547,,,,,,,,,,,,,,,,387.9842,389.2779,389.278,391.9487,return,0.0861,,49.08854167,,,,,,FBP-OG-91.png,0.4,1.2,43,0.5,0,28,28,42,1,,,,,,,,,,,,,,,,,,,,,,,,,,,,,,,,,,,,,,,,
,,,,,V3_061,20,Female,2024-11-14_15h22.07.667,jersey_experiment_5_v3,2023.2.2,Win32,85.47008547,,,,,,,,,,,,,,,,391.9489,393.5016,393.5017,394.3371,return,0.1655,,33.984375,,,,,,FBP-YG-17.png,0.37,1.2,2,0.75,0,29,29,1,1,,,,,,,,,,,,,,,,,,,,,,,,,,,,,,,,,,,,,,,,
,,,,,V3_061,20,Female,2024-11-14_15h22.07.667,jersey_experiment_5_v3,2023.2.2,Win32,85.47008547,,,,,,,,,,,,,,,,394.3374,395.6312,395.6312,396.9254,return,0.0415,,56.25,,,,,,FBP-OG-71.png,0.43,1.2,34,0.5,0,30,30,33,1,,,,,,,,,,,,,,,,,,,,,,,,,,,,,,,,,,,,,,,,
,,,,,V3_061,20,Female,2024-11-14_15h22.07.667,jersey_experiment_5_v3,2023.2.2,Win32,85.47008547,,,,,,,,,,,,,,,,396.9256,398.2196,398.2196,399.2313,return,0.1575,,60.546875,,,,,,FBP-OG-81.png,0.43,1.2,39,0.5,0,31,31,38,1,,,,,,,,,,,,,,,,,,,,,,,,,,,,,,,,,,,,,,,,
,,,,,V3_061,20,Female,2024-11-14_15h22.07.667,jersey_experiment_5_v3,2023.2.2,Win32,85.47008547,,,,,,,,,,,,,,,,399.2316,400.7842,400.7843,402.7022,return,0.1231,,15.625,,,,,,FBP-RB-81.png,0.35,1.2,51,0.75,0,32,32,50,1,,,,,,,,,,,,,,,,,,,,,,,,,,,,,,,,,,,,,,,,
,,,,,V3_061,20,Female,2024-11-14_15h22.07.667,jersey_experiment_5_v3,2023.2.2,Win32,85.47008547,,,,,,,,,,,,,,,,402.7025,403.9962,403.9963,404.9609,return,0.0969,,25.26041667,,,,,,FBP-OG-71.png,0.37,1.2,32,0.5,0,33,33,31,1,,,,,,,,,,,,,,,,,,,,,,,,,,,,,,,,,,,,,,,,
,,,,,V3_061,20,Female,2024-11-14_15h22.07.667,jersey_experiment_5_v3,2023.2.2,Win32,85.47008547,,,,,,,,,,,,,,,,404.9611,406.5141,406.5141,407.9846,return,0.4382,,73.828125,,,,,,FBP-PT-81.png,0.43,1.2,24,0.75,0,34,34,23,1,,,,,,,,,,,,,,,,,,,,,,,,,,,,,,,,,,,,,,,,
,,,,,V3_061,20,Female,2024-11-14_15h22.07.667,jersey_experiment_5_v3,2023.2.2,Win32,85.47008547,,,,,,,,,,,,,,,,407.9848,409.5375,409.5376,410.655,return,0.2968,,80.078125,,,,,,FBP-YG-17.png,0.45,1.2,5,0.75,0,35,35,4,1,,,,,,,,,,,,,,,,,,,,,,,,,,,,,,,,,,,,,,,,
,,,,,V3_061,20,Female,2024-11-14_15h22.07.667,jersey_experiment_5_v3,2023.2.2,Win32,85.47008547,,,,,,,,,,,,,,,,410.6554,412.2082,412.2082,413.2435,return,0.2903,,81.77083333,,,,,,FBP-RB-81.png,0.45,1.2,55,0.75,0,36,36,54,1,,,,,,,,,,,,,,,,,,,,,,,,,,,,,,,,,,,,,,,,
,,,,,V3_061,20,Female,2024-11-14_15h22.07.667,jersey_experiment_5_v3,2023.2.2,Win32,85.47008547,,,,,,,,,,,,,,,,413.244,414.7967,414.7967,416.432,return,0.1573,,41.66666667,,,,,,FBP-PT-81.png,0.37,1.2,22,0.75,0,37,37,21,1,,,,,,,,,,,,,,,,,,,,,,,,,,,,,,,,,,,,,,,,
,,,,,V3_061,20,Female,2024-11-14_15h22.07.667,jersey_experiment_5_v3,2023.2.2,Win32,85.47008547,,,,,,,,,,,,,,,,416.4322,417.9849,417.9849,418.9732,return,0.1666,,42.578125,,,,,,FBP-PT-91.png,0.37,1.2,27,0.75,0,38,38,26,1,,,,,,,,,,,,,,,,,,,,,,,,,,,,,,,,,,,,,,,,
,,,,,V3_061,20,Female,2024-11-14_15h22.07.667,jersey_experiment_5_v3,2023.2.2,Win32,85.47008547,,,,,,,,,,,,,,,,418.9735,420.2672,420.2673,421.5027,return,0.2038,,40.36458333,,,,,,FBP-OG-81.png,0.35,1.2,36,0.5,0,39,39,35,1,,,,,,,,,,,,,,,,,,,,,,,,,,,,,,,,,,,,,,,,
,,,,,V3_061,20,Female,2024-11-14_15h22.07.667,jersey_experiment_5_v3,2023.2.2,Win32,85.47008547,,,,,,,,,,,,,,,,421.5029,423.0556,423.0557,424.2206,return,0.2175,,24.08854167,,,,,,FBP-YG-18.png,0.35,1.2,6,0.75,0,40,40,5,1,,,,,,,,,,,,,,,,,,,,,,,,,,,,,,,,,,,,,,,,
,,,,,V3_061,20,Female,2024-11-14_15h22.07.667,jersey_experiment_5_v3,2023.2.2,Win32,85.47008547,,,,,,,,,,,,,,,,424.2209,425.7734,425.7734,426.9264,return,0.1666,,36.19791667,,,,,,FBP-RB-81.png,0.37,1.2,52,0.75,0,41,41,51,1,,,,,,,,,,,,,,,,,,,,,,,,,,,,,,,,,,,,,,,,
,,,,,V3_061,20,Female,2024-11-14_15h22.07.667,jersey_experiment_5_v3,2023.2.2,Win32,85.47008547,,,,,,,,,,,,,,,,426.9266,428.4794,428.4795,430.0442,return,0.1484,,40.88541667,,,,,,FBP-YG-17.png,0.4,1.2,3,0.75,0,42,42,2,1,,,,,,,,,,,,,,,,,,,,,,,,,,,,,,,,,,,,,,,,
,,,,,V3_061,20,Female,2024-11-14_15h22.07.667,jersey_experiment_5_v3,2023.2.2,Win32,85.47008547,,,,,,,,,,,,,,,,430.0444,431.5973,431.5973,432.5148,return,0.1269,,75.390625,,,,,,FBP-RB-91.png,0.45,1.2,60,0.75,0,43,43,59,1,,,,,,,,,,,,,,,,,,,,,,,,,,,,,,,,,,,,,,,,
,,,,,V3_061,20,Female,2024-11-14_15h22.07.667,jersey_experiment_5_v3,2023.2.2,Win32,85.47008547,,,,,,,,,,,,,,,,432.5151,434.0678,434.0679,435.8091,return,0.0578,,73.828125,,,,,,FBP-RB-81.png,0.43,1.2,54,0.75,0,44,44,53,1,,,,,,,,,,,,,,,,,,,,,,,,,,,,,,,,,,,,,,,,
,,,,,V3_061,20,Female,2024-11-14_15h22.07.667,jersey_experiment_5_v3,2023.2.2,Win32,85.47008547,,,,,,,,,,,,,,,,435.8093,437.3621,437.3622,438.1622,return,0.0483,,77.99479167,,,,,,FBP-YG-18.png,0.45,1.2,10,0.75,0,45,45,9,1,,,,,,,,,,,,,,,,,,,,,,,,,,,,,,,,,,,,,,,,
,,,,,V3_061,20,Female,2024-11-14_15h22.07.667,jersey_experiment_5_v3,2023.2.2,Win32,85.47008547,,,,,,,,,,,,,,,,438.1624,439.7151,439.7152,440.7741,return,0.1046,,76.953125,,,,,,FBP-YG-19.png,0.45,1.2,15,0.75,0,46,46,14,1,,,,,,,,,,,,,,,,,,,,,,,,,,,,,,,,,,,,,,,,
,,,,,V3_061,20,Female,2024-11-14_15h22.07.667,jersey_experiment_5_v3,2023.2.2,Win32,85.47008547,,,,,,,,,,,,,,,,440.7744,442.3271,442.3272,443.7979,return,0.165,,22.78645833,,,,,,FBP-RB-91.png,0.35,1.2,56,0.75,0,47,47,55,1,,,,,,,,,,,,,,,,,,,,,,,,,,,,,,,,,,,,,,,,
,,,,,V3_061,20,Female,2024-11-14_15h22.07.667,jersey_experiment_5_v3,2023.2.2,Win32,85.47008547,,,,,,,,,,,,,,,,443.7981,445.3507,445.3507,448.5154,return,0.282,,74.21875,,,,,,FBP-YG-17.png,0.43,1.2,4,0.75,0,48,48,3,1,,,,,,,,,,,,,,,,,,,,,,,,,,,,,,,,,,,,,,,,
,,,,,V3_061,20,Female,2024-11-14_15h22.07.667,jersey_experiment_5_v3,2023.2.2,Win32,85.47008547,,,,,,,,,,,,,,,,448.5158,450.0685,450.0686,451.2685,return,0.1644,,40.10416667,,,,,,FBP-PT-81.png,0.4,1.2,23,0.75,0,49,49,22,1,,,,,,,,,,,,,,,,,,,,,,,,,,,,,,,,,,,,,,,,
,,,,,V3_061,20,Female,2024-11-14_15h22.07.667,jersey_experiment_5_v3,2023.2.2,Win32,85.47008547,,,,,,,,,,,,,,,,451.2686,452.8215,452.8215,453.9392,return,0.2479,,39.19270833,,,,,,FBP-PT-91.png,0.4,1.2,28,0.75,0,50,50,27,1,,,,,,,,,,,,,,,,,,,,,,,,,,,,,,,,,,,,,,,,
,,,,,V3_061,20,Female,2024-11-14_15h22.07.667,jersey_experiment_5_v3,2023.2.2,Win32,85.47008547,,,,,,,,,,,,,,,,453.9395,455.4922,455.4923,457.2688,return,0.4821,,52.08333333,,,,,,FBP-YG-18.png,0.43,1.2,9,0.75,0,51,51,8,1,,,,,,,,,,,,,,,,,,,,,,,,,,,,,,,,,,,,,,,,
,,,,,V3_061,20,Female,2024-11-14_15h22.07.667,jersey_experiment_5_v3,2023.2.2,Win32,85.47008547,,,,,,,,,,,,,,,,457.2691,458.8216,458.8216,461.9041,return,0.5063,,22.65625,,,,,,FBP-PT-71.png,0.35,1.2,16,0.75,0,52,52,15,1,,,,,,,,,,,,,,,,,,,,,,,,,,,,,,,,,,,,,,,,
,,,,,V3_061,20,Female,2024-11-14_15h22.07.667,jersey_experiment_5_v3,2023.2.2,Win32,85.47008547,,,,,,,,,,,,,,,,461.9045,463.4571,463.4571,464.669,return,0.1463,,48.69791667,,,,,,FBP-YG-19.png,0.43,1.2,14,0.75,0,53,53,13,1,,,,,,,,,,,,,,,,,,,,,,,,,,,,,,,,,,,,,,,,
,,,,,V3_061,20,Female,2024-11-14_15h22.07.667,jersey_experiment_5_v3,2023.2.2,Win32,85.47008547,,,,,,,,,,,,,,,,464.6695,466.2221,466.2223,468.7399,return,0.1796,,27.34375,,,,,,FBP-PT-81.png,0.35,1.2,21,0.75,0,54,54,20,1,,,,,,,,,,,,,,,,,,,,,,,,,,,,,,,,,,,,,,,,
,,,,,V3_061,20,Female,2024-11-14_15h22.07.667,jersey_experiment_5_v3,2023.2.2,Win32,85.47008547,,,,,,,,,,,,,,,,468.7401,470.0342,470.0342,471.4105,return,0.1508,,45.703125,,,,,,FBP-OG-81.png,0.4,1.2,38,0.5,0,55,55,37,1,,,,,,,,,,,,,,,,,,,,,,,,,,,,,,,,,,,,,,,,
,,,,,V3_061,20,Female,2024-11-14_15h22.07.667,jersey_experiment_5_v3,2023.2.2,Win32,85.47008547,,,,,,,,,,,,,,,,471.4108,472.9634,472.9635,474.3048,return,0.1907,,37.63020833,,,,,,FBP-RB-71.png,0.37,1.2,47,0.75,0,56,56,46,1,,,,,,,,,,,,,,,,,,,,,,,,,,,,,,,,,,,,,,,,
,,,,,V3_061,20,Female,2024-11-14_15h22.07.667,jersey_experiment_5_v3,2023.2.2,Win32,85.47008547,,,,,,,,,,,,,,,,474.3051,475.8576,475.8577,476.8812,return,0.2021,,49.86979167,,,,,,FBP-PT-91.png,0.43,1.2,29,0.75,0,57,57,28,1,,,,,,,,,,,,,,,,,,,,,,,,,,,,,,,,,,,,,,,,
,,,,,V3_061,20,Female,2024-11-14_15h22.07.667,jersey_experiment_5_v3,2023.2.2,Win32,85.47008547,,,,,,,,,,,,,,,,476.8815,478.4343,478.4344,480.0932,return,0.0874,,71.74479167,,,,,,FBP-PT-71.png,0.45,1.2,20,0.75,0,58,58,19,1,,,,,,,,,,,,,,,,,,,,,,,,,,,,,,,,,,,,,,,,
,,,,,V3_061,20,Female,2024-11-14_15h22.07.667,jersey_experiment_5_v3,2023.2.2,Win32,85.47008547,,,,,,,,,,,,,,,,480.0935,481.3873,481.3874,482.0108,return,0.1147,,71.74479167,,,,,,FBP-OG-71.png,0.45,1.2,35,0.5,0,59,59,34,1,,,,,,,,,,,,,,,,,,,,,,,,,,,,,,,,,,,,,,,,
,,,,,V3_061,20,Female,2024-11-14_15h22.07.667,jersey_experiment_5_v3,2023.2.2,Win32,85.47008547,,,,,,,,,,,,,,,,,,,,,,,,,,,,,,,,,,,,,,,482.0111,602.0038,,,,,,,,,,,,,,,,,,,,,,,,,,,,,,,,,,,,,,
,,,,,V3_061,20,Female,2024-11-14_15h22.07.667,jersey_experiment_5_v3,2023.2.2,Win32,85.47008547,,,,,,,,,,,,,,,,,,,,,,,,,,,,,,,,,,,,,,,,,602.004,617.8042,return,15.7927,,,,,,,,,,,,,,,,,,,,,,,,,,,,,,,,,,
,,,,,V3_061,20,Female,2024-11-14_15h22.07.667,jersey_experiment_5_v3,2023.2.2,Win32,85.47008547,,,,,,,,,,,,,,,,617.8055,619.3573,619.3573,624.9809,return,3.262,,48.30729167,,,,,,FBP-OG-19.png,0.43,1.2,44,0.75,,,,,,,,,,,,,0,0,0,43,1,,,,,,,,,,,,,,,,,,,,,,,,,,,,
,,,,,V3_061,20,Female,2024-11-14_15h22.07.667,jersey_experiment_5_v3,2023.2.2,Win32,85.47008547,,,,,,,,,,,,,,,,624.9814,626.275,626.275,628.6519,return,0.2877,,43.88020833,,,,,,FBP-PT-19.png,0.37,1.2,27,0.5,,,,,,,,,,,,,0,1,1,26,1,,,,,,,,,,,,,,,,,,,,,,,,,,,,
,,,,,V3_061,20,Female,2024-11-14_15h22.07.667,jersey_experiment_5_v3,2023.2.2,Win32,85.47008547,,,,,,,,,,,,,,,,628.6522,629.9458,629.9459,631.3343,return,0.1643,,23.828125,,,,,,FBP-YG-91.png,0.35,1.2,11,0.5,,,,,,,,,,,,,0,2,2,10,1,,,,,,,,,,,,,,,,,,,,,,,,,,,,
,,,,,V3_061,20,Female,2024-11-14_15h22.07.667,jersey_experiment_5_v3,2023.2.2,Win32,85.47008547,,,,,,,,,,,,,,,,631.3345,632.8871,632.8873,634.4992,return,0.1991,,24.08854167,,,,,,FBP-OG-17.png,0.37,1.2,32,0.75,,,,,,,,,,,,,0,3,3,31,1,,,,,,,,,,,,,,,,,,,,,,,,,,,,
,,,,,V3_061,20,Female,2024-11-14_15h22.07.667,jersey_experiment_5_v3,2023.2.2,Win32,85.47008547,,,,,,,,,,,,,,,,634.4996,635.7932,635.7932,638.699,return,0.4205,,66.40625,,,,,,FBP-PT-18.png,0.45,1.2,25,0.5,,,,,,,,,,,,,0,4,4,24,1,,,,,,,,,,,,,,,,,,,,,,,,,,,,
,,,,,V3_061,20,Female,2024-11-14_15h22.07.667,jersey_experiment_5_v3,2023.2.2,Win32,85.47008547,,,,,,,,,,,,,,,,638.6993,639.9933,639.9934,641.4523,return,0.184,,47.52604167,,,,,,FBP-YG-71.png,0.4,1.2,3,0.5,,,,,,,,,,,,,0,5,5,2,1,,,,,,,,,,,,,,,,,,,,,,,,,,,,
,,,,,V3_061,20,Female,2024-11-14_15h22.07.667,jersey_experiment_5_v3,2023.2.2,Win32,85.47008547,,,,,,,,,,,,,,,,641.4526,642.7465,642.7465,644.1582,return,0.4174,,75.13020833,,,,,,FBP-YG-91.png,0.45,1.2,15,0.5,,,,,,,,,,,,,0,6,6,14,1,,,,,,,,,,,,,,,,,,,,,,,,,,,,
,,,,,V3_061,20,Female,2024-11-14_15h22.07.667,jersey_experiment_5_v3,2023.2.2,Win32,85.47008547,,,,,,,,,,,,,,,,644.1584,645.4524,645.4524,646.8172,return,0.1317,,54.55729167,,,,,,FBP-YG-71.png,0.43,1.2,4,0.5,,,,,,,,,,,,,0,7,7,3,1,,,,,,,,,,,,,,,,,,,,,,,,,,,,
,,,,,V3_061,20,Female,2024-11-14_15h22.07.667,jersey_experiment_5_v3,2023.2.2,Win32,85.47008547,,,,,,,,,,,,,,,,646.8174,648.1114,648.1114,649.8408,return,0.1055,,23.828125,,,,,,FBP-YG-71.png,0.35,1.2,1,0.5,,,,,,,,,,,,,0,8,8,0,1,,,,,,,,,,,,,,,,,,,,,,,,,,,,
,,,,,V3_061,20,Female,2024-11-14_15h22.07.667,jersey_experiment_5_v3,2023.2.2,Win32,85.47008547,,,,,,,,,,,,,,,,649.8412,651.135,651.135,652.0526,return,0.1649,,22.78645833,,,,,,FBP-RB-18.png,0.37,1.2,52,0.5,,,,,,,,,,,,,0,9,9,51,1,,,,,,,,,,,,,,,,,,,,,,,,,,,,
,,,,,V3_061,20,Female,2024-11-14_15h22.07.667,jersey_experiment_5_v3,2023.2.2,Win32,85.47008547,,,,,,,,,,,,,,,,652.0529,653.3467,653.3468,654.0058,return,0.1766,,21.74479167,,,,,,FBP-YG-91.png,0.37,1.2,12,0.5,,,,,,,,,,,,,0,10,10,11,1,,,,,,,,,,,,,,,,,,,,,,,,,,,,
,,,,,V3_061,20,Female,2024-11-14_15h22.07.667,jersey_experiment_5_v3,2023.2.2,Win32,85.47008547,,,,,,,,,,,,,,,,654.006,655.5586,655.5587,656.1586,return,0.0638,,17.70833333,,,,,,FBP-OG-17.png,0.35,1.2,31,0.75,,,,,,,,,,,,,0,11,11,30,1,,,,,,,,,,,,,,,,,,,,,,,,,,,,
,,,,,V3_061,20,Female,2024-11-14_15h22.07.667,jersey_experiment_5_v3,2023.2.2,Win32,85.47008547,,,,,,,,,,,,,,,,656.159,657.7116,657.7116,658.9706,return,0.2681,,24.21875,,,,,,FBP-OG-19.png,0.37,1.2,42,0.75,,,,,,,,,,,,,0,12,12,41,1,,,,,,,,,,,,,,,,,,,,,,,,,,,,
,,,,,V3_061,20,Female,2024-11-14_15h22.07.667,jersey_experiment_5_v3,2023.2.2,Win32,85.47008547,,,,,,,,,,,,,,,,658.9708,660.2647,660.2648,661.1471,return,0.1719,,26.30208333,,,,,,FBP-PT-18.png,0.35,1.2,21,0.5,,,,,,,,,,,,,0,13,13,20,1,,,,,,,,,,,,,,,,,,,,,,,,,,,,
,,,,,V3_061,20,Female,2024-11-14_15h22.07.667,jersey_experiment_5_v3,2023.2.2,Win32,85.47008547,,,,,,,,,,,,,,,,661.1473,662.7002,662.7003,664.6883,return,0.8036,,87.890625,,,,,,FBP-OG-18.png,0.45,1.2,40,0.75,,,,,,,,,,,,,0,14,14,39,1,,,,,,,,,,,,,,,,,,,,,,,,,,,,
,,,,,V3_061,20,Female,2024-11-14_15h22.07.667,jersey_experiment_5_v3,2023.2.2,Win32,85.47008547,,,,,,,,,,,,,,,,664.6886,665.9826,665.9828,667.0414,return,0.1068,,26.82291667,,,,,,FBP-RB-19.png,0.37,1.2,57,0.5,,,,,,,,,,,,,0,15,15,56,1,,,,,,,,,,,,,,,,,,,,,,,,,,,,
,,,,,V3_061,20,Female,2024-11-14_15h22.07.667,jersey_experiment_5_v3,2023.2.2,Win32,85.47008547,,,,,,,,,,,,,,,,667.0417,668.3355,668.3355,669.4298,return,0.1318,,99.08854167,,,,,,FBP-RB-18.png,0.45,1.2,55,0.5,,,,,,,,,,,,,0,16,16,54,1,,,,,,,,,,,,,,,,,,,,,,,,,,,,
,,,,,V3_061,20,Female,2024-11-14_15h22.07.667,jersey_experiment_5_v3,2023.2.2,Win32,85.47008547,,,,,,,,,,,,,,,,669.4303,670.724,670.7241,672.1004,return,0.1414,,62.23958333,,,,,,FBP-RB-17.png,0.4,1.2,48,0.5,,,,,,,,,,,,,0,17,17,47,1,,,,,,,,,,,,,,,,,,,,,,,,,,,,
,,,,,V3_061,20,Female,2024-11-14_15h22.07.667,jersey_experiment_5_v3,2023.2.2,Win32,85.47008547,,,,,,,,,,,,,,,,672.1006,673.3945,673.3945,674.43,return,0.1233,,25.91145833,,,,,,FBP-RB-19.png,0.35,1.2,56,0.5,,,,,,,,,,,,,0,18,18,55,1,,,,,,,,,,,,,,,,,,,,,,,,,,,,
,,,,,V3_061,20,Female,2024-11-14_15h22.07.667,jersey_experiment_5_v3,2023.2.2,Win32,85.47008547,,,,,,,,,,,,,,,,674.4303,675.724,675.724,677.2653,return,0.1786,,42.1875,,,,,,FBP-PT-17.png,0.4,1.2,18,0.5,,,,,,,,,,,,,0,19,19,17,1,,,,,,,,,,,,,,,,,,,,,,,,,,,,
,,,,,V3_061,20,Female,2024-11-14_15h22.07.667,jersey_experiment_5_v3,2023.2.2,Win32,85.47008547,,,,,,,,,,,,,,,,677.2655,678.8185,678.8185,679.7478,return,0.2117,,30.078125,,,,,,FBP-OG-18.png,0.37,1.2,37,0.75,,,,,,,,,,,,,0,20,20,36,1,,,,,,,,,,,,,,,,,,,,,,,,,,,,
,,,,,V3_061,20,Female,2024-11-14_15h22.07.667,jersey_experiment_5_v3,2023.2.2,Win32,85.47008547,,,,,,,,,,,,,,,,679.7479,681.0423,681.0424,682.4303,return,0.3696,,29.42708333,,,,,,FBP-RB-17.png,0.35,1.2,46,0.5,,,,,,,,,,,,,0,21,21,45,1,,,,,,,,,,,,,,,,,,,,,,,,,,,,
,,,,,V3_061,20,Female,2024-11-14_15h22.07.667,jersey_experiment_5_v3,2023.2.2,Win32,85.47008547,,,,,,,,,,,,,,,,682.4306,683.7244,683.7245,685.6773,return,0.1709,,89.84375,,,,,,FBP-YG-71.png,0.45,1.2,5,0.5,,,,,,,,,,,,,0,22,22,4,1,,,,,,,,,,,,,,,,,,,,,,,,,,,,
,,,,,V3_061,20,Female,2024-11-14_15h22.07.667,jersey_experiment_5_v3,2023.2.2,Win32,85.47008547,,,,,,,,,,,,,,,,685.6776,686.9715,686.9716,688.1483,return,0.0821,,27.99479167,,,,,,FBP-RB-17.png,0.37,1.2,47,0.5,,,,,,,,,,,,,0,23,23,46,1,,,,,,,,,,,,,,,,,,,,,,,,,,,,
,,,,,V3_061,20,Female,2024-11-14_15h22.07.667,jersey_experiment_5_v3,2023.2.2,Win32,85.47008547,,,,,,,,,,,,,,,,688.1485,689.7009,689.7011,690.7719,return,0.1392,,25.390625,,,,,,FBP-OG-19.png,0.35,1.2,41,0.75,,,,,,,,,,,,,0,24,24,40,1,,,,,,,,,,,,,,,,,,,,,,,,,,,,
,,,,,V3_061,20,Female,2024-11-14_15h22.07.667,jersey_experiment_5_v3,2023.2.2,Win32,85.47008547,,,,,,,,,,,,,,,,690.7721,692.066,692.0661,693.5366,return,0.1443,,62.890625,,,,,,FBP-PT-17.png,0.45,1.2,20,0.5,,,,,,,,,,,,,0,25,25,19,1,,,,,,,,,,,,,,,,,,,,,,,,,,,,
,,,,,V3_061,20,Female,2024-11-14_15h22.07.667,jersey_experiment_5_v3,2023.2.2,Win32,85.47008547,,,,,,,,,,,,,,,,693.5369,694.8308,694.8308,695.8779,return,0.0833,,57.29166667,,,,,,FBP-RB-18.png,0.4,1.2,53,0.5,,,,,,,,,,,,,0,26,26,52,1,,,,,,,,,,,,,,,,,,,,,,,,,,,,
,,,,,V3_061,20,Female,2024-11-14_15h22.07.667,jersey_experiment_5_v3,2023.2.2,Win32,85.47008547,,,,,,,,,,,,,,,,695.8781,697.1719,697.172,698.3013,return,0.1696,,76.30208333,,,,,,FBP-RB-17.png,0.45,1.2,50,0.5,,,,,,,,,,,,,0,27,27,49,1,,,,,,,,,,,,,,,,,,,,,,,,,,,,
,,,,,V3_061,20,Female,2024-11-14_15h22.07.667,jersey_experiment_5_v3,2023.2.2,Win32,85.47008547,,,,,,,,,,,,,,,,698.3016,699.5955,699.5956,700.8779,return,0.0763,,25.65104167,,,,,,FBP-RB-18.png,0.35,1.2,51,0.5,,,,,,,,,,,,,0,28,28,50,1,,,,,,,,,,,,,,,,,,,,,,,,,,,,
,,,,,V3_061,20,Female,2024-11-14_15h22.07.667,jersey_experiment_5_v3,2023.2.2,Win32,85.47008547,,,,,,,,,,,,,,,,700.8781,702.1722,702.1722,703.7488,return,0.1887,,22.39583333,,,,,,FBP-RB-17.png,0.43,1.2,49,0.5,,,,,,,,,,,,,0,29,29,48,1,,,,,,,,,,,,,,,,,,,,,,,,,,,,
,,,,,V3_061,20,Female,2024-11-14_15h22.07.667,jersey_experiment_5_v3,2023.2.2,Win32,85.47008547,,,,,,,,,,,,,,,,703.749,705.3017,705.3017,706.337,return,0.0366,,19.79166667,,,,,,FBP-OG-17.png,0.43,1.2,34,0.75,,,,,,,,,,,,,0,30,30,33,1,,,,,,,,,,,,,,,,,,,,,,,,,,,,
,,,,,V3_061,20,Female,2024-11-14_15h22.07.667,jersey_experiment_5_v3,2023.2.2,Win32,85.47008547,,,,,,,,,,,,,,,,706.3372,707.6311,707.6311,710.7253,return,2.4003,,20.3125,,,,,,FBP-YG-91.png,0.43,1.2,14,0.5,,,,,,,,,,,,,0,31,31,13,1,,,,,,,,,,,,,,,,,,,,,,,,,,,,
,,,,,V3_061,20,Female,2024-11-14_15h22.07.667,jersey_experiment_5_v3,2023.2.2,Win32,85.47008547,,,,,,,,,,,,,,,,710.7256,712.0196,712.0196,712.9961,return,0.2354,,16.92708333,,,,,,FBP-YG-91.png,0.4,1.2,13,0.5,,,,,,,,,,,,,0,32,32,12,1,,,,,,,,,,,,,,,,,,,,,,,,,,,,
,,,,,V3_061,20,Female,2024-11-14_15h22.07.667,jersey_experiment_5_v3,2023.2.2,Win32,85.47008547,,,,,,,,,,,,,,,,712.9964,714.2902,714.2902,715.8079,return,0.2742,,24.47916667,,,,,,FBP-PT-19.png,0.43,1.2,29,0.5,,,,,,,,,,,,,0,33,33,28,1,,,,,,,,,,,,,,,,,,,,,,,,,,,,
,,,,,V3_061,20,Female,2024-11-14_15h22.07.667,jersey_experiment_5_v3,2023.2.2,Win32,85.47008547,,,,,,,,,,,,,,,,715.8081,717.361,717.3611,718.4432,return,0.1144,,41.14583333,,,,,,FBP-OG-18.png,0.4,1.2,38,0.75,,,,,,,,,,,,,0,34,34,37,1,,,,,,,,,,,,,,,,,,,,,,,,,,,,
,,,,,V3_061,20,Female,2024-11-14_15h22.07.667,jersey_experiment_5_v3,2023.2.2,Win32,85.47008547,,,,,,,,,,,,,,,,718.4434,719.9963,719.9963,720.5492,return,0.1881,,41.015625,,,,,,FBP-OG-17.png,0.4,1.2,33,0.75,,,,,,,,,,,,,0,35,35,32,1,,,,,,,,,,,,,,,,,,,,,,,,,,,,
,,,,,V3_061,20,Female,2024-11-14_15h22.07.667,jersey_experiment_5_v3,2023.2.2,Win32,85.47008547,,,,,,,,,,,,,,,,720.5495,721.8433,721.8434,724.7495,return,0.6771,,18.88020833,,,,,,FBP-YG-81.png,0.35,1.2,6,0.5,,,,,,,,,,,,,0,36,36,5,1,,,,,,,,,,,,,,,,,,,,,,,,,,,,
,,,,,V3_061,20,Female,2024-11-14_15h22.07.667,jersey_experiment_5_v3,2023.2.2,Win32,85.47008547,,,,,,,,,,,,,,,,724.7498,726.0436,726.0436,728.1968,return,0.0472,,62.890625,,,,,,FBP-RB-19.png,0.43,1.2,59,0.5,,,,,,,,,,,,,0,37,37,58,1,,,,,,,,,,,,,,,,,,,,,,,,,,,,
,,,,,V3_061,20,Female,2024-11-14_15h22.07.667,jersey_experiment_5_v3,2023.2.2,Win32,85.47008547,,,,,,,,,,,,,,,,728.1971,729.4907,729.4908,730.4203,return,0.1632,,61.45833333,,,,,,FBP-RB-18.png,0.43,1.2,54,0.5,,,,,,,,,,,,,0,38,38,53,1,,,,,,,,,,,,,,,,,,,,,,,,,,,,
,,,,,V3_061,20,Female,2024-11-14_15h22.07.667,jersey_experiment_5_v3,2023.2.2,Win32,85.47008547,,,,,,,,,,,,,,,,730.4205,731.7146,731.7146,733.291,return,0.1234,,40.88541667,,,,,,FBP-PT-17.png,0.35,1.2,16,0.5,,,,,,,,,,,,,0,39,39,15,1,,,,,,,,,,,,,,,,,,,,,,,,,,,,
,,,,,V3_061,20,Female,2024-11-14_15h22.07.667,jersey_experiment_5_v3,2023.2.2,Win32,85.47008547,,,,,,,,,,,,,,,,733.2913,734.8442,734.8442,736.1265,return,0.17,,50.390625,,,,,,FBP-OG-18.png,0.43,1.2,39,0.75,,,,,,,,,,,,,0,40,40,38,1,,,,,,,,,,,,,,,,,,,,,,,,,,,,
,,,,,V3_061,20,Female,2024-11-14_15h22.07.667,jersey_experiment_5_v3,2023.2.2,Win32,85.47008547,,,,,,,,,,,,,,,,736.1268,737.4202,737.4203,738.8207,return,0.0361,,43.09895833,,,,,,FBP-PT-17.png,0.37,1.2,17,0.5,,,,,,,,,,,,,0,41,41,16,1,,,,,,,,,,,,,,,,,,,,,,,,,,,,
,,,,,V3_061,20,Female,2024-11-14_15h22.07.667,jersey_experiment_5_v3,2023.2.2,Win32,85.47008547,,,,,,,,,,,,,,,,738.821,740.1146,740.1146,742.2089,return,0.7908,,75.91145833,,,,,,FBP-PT-19.png,0.45,1.2,30,0.5,,,,,,,,,,,,,0,42,42,29,1,,,,,,,,,,,,,,,,,,,,,,,,,,,,
,,,,,V3_061,20,Female,2024-11-14_15h22.07.667,jersey_experiment_5_v3,2023.2.2,Win32,85.47008547,,,,,,,,,,,,,,,,742.2092,743.7621,743.7622,745.9973,return,0.1198,,59.765625,,,,,,FBP-OG-19.png,0.4,1.2,43,0.75,,,,,,,,,,,,,0,43,43,42,1,,,,,,,,,,,,,,,,,,,,,,,,,,,,
,,,,,V3_061,20,Female,2024-11-14_15h22.07.667,jersey_experiment_5_v3,2023.2.2,Win32,85.47008547,,,,,,,,,,,,,,,,745.9976,747.2914,747.2914,747.8443,return,0.1282,,59.765625,,,,,,FBP-PT-19.png,0.4,1.2,28,0.5,,,,,,,,,,,,,0,44,44,27,1,,,,,,,,,,,,,,,,,,,,,,,,,,,,
,,,,,V3_061,20,Female,2024-11-14_15h22.07.667,jersey_experiment_5_v3,2023.2.2,Win32,85.47008547,,,,,,,,,,,,,,,,747.8446,749.1385,749.1385,750.3973,return,0.1119,,48.95833333,,,,,,FBP-PT-19.png,0.35,1.2,26,0.5,,,,,,,,,,,,,0,45,45,25,1,,,,,,,,,,,,,,,,,,,,,,,,,,,,
,,,,,V3_061,20,Female,2024-11-14_15h22.07.667,jersey_experiment_5_v3,2023.2.2,Win32,85.47008547,,,,,,,,,,,,,,,,750.3977,751.6915,751.6915,752.8445,return,0.2619,,47.91666667,,,,,,FBP-YG-71.png,0.37,1.2,2,0.5,,,,,,,,,,,,,0,46,46,1,1,,,,,,,,,,,,,,,,,,,,,,,,,,,,
,,,,,V3_061,20,Female,2024-11-14_15h22.07.667,jersey_experiment_5_v3,2023.2.2,Win32,85.47008547,,,,,,,,,,,,,,,,752.8449,754.1388,754.1388,754.6681,return,0.1252,,47.91666667,,,,,,FBP-YG-81.png,0.4,1.2,8,0.5,,,,,,,,,,,,,0,47,47,7,1,,,,,,,,,,,,,,,,,,,,,,,,,,,,
,,,,,V3_061,20,Female,2024-11-14_15h22.07.667,jersey_experiment_5_v3,2023.2.2,Win32,85.47008547,,,,,,,,,,,,,,,,754.6685,756.2214,756.2214,757.8564,return,0.8854,,71.875,,,,,,FBP-OG-17.png,0.45,1.2,35,0.75,,,,,,,,,,,,,0,48,48,34,1,,,,,,,,,,,,,,,,,,,,,,,,,,,,
,,,,,V3_061,20,Female,2024-11-14_15h22.07.667,jersey_experiment_5_v3,2023.2.2,Win32,85.47008547,,,,,,,,,,,,,,,,757.8568,759.4096,759.4097,761.8097,return,0.1883,,37.109375,,,,,,FBP-OG-18.png,0.35,1.2,36,0.75,,,,,,,,,,,,,0,49,49,35,1,,,,,,,,,,,,,,,,,,,,,,,,,,,,
,,,,,V3_061,20,Female,2024-11-14_15h22.07.667,jersey_experiment_5_v3,2023.2.2,Win32,85.47008547,,,,,,,,,,,,,,,,761.81,763.363,763.363,764.7391,return,0.0945,,76.43229167,,,,,,FBP-OG-19.png,0.45,1.2,45,0.75,,,,,,,,,,,,,0,50,50,44,1,,,,,,,,,,,,,,,,,,,,,,,,,,,,
,,,,,V3_061,20,Female,2024-11-14_15h22.07.667,jersey_experiment_5_v3,2023.2.2,Win32,85.47008547,,,,,,,,,,,,,,,,764.7395,766.0333,766.0333,767.8572,return,0.0859,,45.83333333,,,,,,FBP-RB-19.png,0.4,1.2,58,0.5,,,,,,,,,,,,,0,51,51,57,1,,,,,,,,,,,,,,,,,,,,,,,,,,,,
,,,,,V3_061,20,Female,2024-11-14_15h22.07.667,jersey_experiment_5_v3,2023.2.2,Win32,85.47008547,,,,,,,,,,,,,,,,767.8574,769.1511,769.1512,771.2689,return,0.1881,,56.38020833,,,,,,FBP-PT-18.png,0.43,1.2,24,0.5,,,,,,,,,,,,,0,52,52,23,1,,,,,,,,,,,,,,,,,,,,,,,,,,,,
,,,,,V3_061,20,Female,2024-11-14_15h22.07.667,jersey_experiment_5_v3,2023.2.2,Win32,85.47008547,,,,,,,,,,,,,,,,771.2691,772.563,772.5631,773.8689,return,0.2656,,62.23958333,,,,,,FBP-RB-19.png,0.45,1.2,60,0.5,,,,,,,,,,,,,0,53,53,59,1,,,,,,,,,,,,,,,,,,,,,,,,,,,,
,,,,,V3_061,20,Female,2024-11-14_15h22.07.667,jersey_experiment_5_v3,2023.2.2,Win32,85.47008547,,,,,,,,,,,,,,,,773.8692,775.1631,775.1632,776.4336,return,0.199,,48.4375,,,,,,FBP-PT-18.png,0.37,1.2,22,0.5,,,,,,,,,,,,,0,54,54,21,1,,,,,,,,,,,,,,,,,,,,,,,,,,,,
,,,,,V3_061,20,Female,2024-11-14_15h22.07.667,jersey_experiment_5_v3,2023.2.2,Win32,85.47008547,,,,,,,,,,,,,,,,776.434,777.7279,777.728,779.2454,return,0.1825,,51.69270833,,,,,,FBP-YG-81.png,0.45,1.2,10,0.5,,,,,,,,,,,,,0,55,55,9,1,,,,,,,,,,,,,,,,,,,,,,,,,,,,
,,,,,V3_061,20,Female,2024-11-14_15h22.07.667,jersey_experiment_5_v3,2023.2.2,Win32,85.47008547,,,,,,,,,,,,,,,,779.2457,780.5398,780.5398,781.1049,return,0.1672,,51.69270833,,,,,,FBP-PT-17.png,0.43,1.2,19,0.5,,,,,,,,,,,,,0,56,56,18,1,,,,,,,,,,,,,,,,,,,,,,,,,,,,
,,,,,V3_061,20,Female,2024-11-14_15h22.07.667,jersey_experiment_5_v3,2023.2.2,Win32,85.47008547,,,,,,,,,,,,,,,,781.1052,782.3987,782.3987,783.4221,return,0.0759,,35.9375,,,,,,FBP-YG-81.png,0.37,1.2,7,0.5,,,,,,,,,,,,,0,57,57,6,1,,,,,,,,,,,,,,,,,,,,,,,,,,,,
,,,,,V3_061,20,Female,2024-11-14_15h22.07.667,jersey_experiment_5_v3,2023.2.2,Win32,85.47008547,,,,,,,,,,,,,,,,783.4224,784.7164,784.7164,785.5872,return,0.1521,,36.45833333,,,,,,FBP-PT-18.png,0.4,1.2,23,0.5,,,,,,,,,,,,,0,58,58,22,1,,,,,,,,,,,,,,,,,,,,,,,,,,,,
,,,,,V3_061,20,Female,2024-11-14_15h22.07.667,jersey_experiment_5_v3,2023.2.2,Win32,85.47008547,,,,,,,,,,,,,,,,785.5876,786.8811,786.8812,789.2813,return,0.155,,48.56770833,,,,,,FBP-YG-81.png,0.43,1.2,9,0.5,,,,,,,,,,,,,0,59,59,8,1,,,,,,,,,,,,,,,,,,,,,,,,,,,,
,,,,,V3_061,20,Female,2024-11-14_15h22.07.667,jersey_experiment_5_v3,2023.2.2,Win32,85.47008547,,,,,,,,,,,,,,,,789.2831,790.5754,790.5754,791.7171,return,0.1652,,49.86979167,,,,,,FBP-PT-91.png,0.43,1.2,29,0.5,,,,,,,,,,,,,,,,,,0,0,0,28,1,,,,,,,,,,,,,,,,,,,,,,,
,,,,,V3_061,20,Female,2024-11-14_15h22.07.667,jersey_experiment_5_v3,2023.2.2,Win32,85.47008547,,,,,,,,,,,,,,,,791.7177,793.0108,793.0109,795.0461,return,0.1516,,47.265625,,,,,,FBP-PT-81.png,0.4,1.2,23,0.5,,,,,,,,,,,,,,,,,,0,1,1,22,1,,,,,,,,,,,,,,,,,,,,,,,
,,,,,V3_061,20,Female,2024-11-14_15h22.07.667,jersey_experiment_5_v3,2023.2.2,Win32,85.47008547,,,,,,,,,,,,,,,,795.0463,796.3404,796.3404,797.0933,return,0.0344,,47.52604167,,,,,,FBP-RB-71.png,0.4,1.2,48,0.5,,,,,,,,,,,,,,,,,,0,2,2,47,1,,,,,,,,,,,,,,,,,,,,,,,
,,,,,V3_061,20,Female,2024-11-14_15h22.07.667,jersey_experiment_5_v3,2023.2.2,Win32,85.47008547,,,,,,,,,,,,,,,,797.0937,798.3877,798.3877,799.5642,return,0.3608,,26.43229167,,,,,,FBP-RB-91.png,0.35,1.2,56,0.5,,,,,,,,,,,,,,,,,,0,3,3,55,1,,,,,,,,,,,,,,,,,,,,,,,
,,,,,V3_061,20,Female,2024-11-14_15h22.07.667,jersey_experiment_5_v3,2023.2.2,Win32,85.47008547,,,,,,,,,,,,,,,,799.5644,800.8581,800.8581,801.8112,return,0.2599,,17.05729167,,,,,,FBP-PT-91.png,0.35,1.2,26,0.5,,,,,,,,,,,,,,,,,,0,4,4,25,1,,,,,,,,,,,,,,,,,,,,,,,
,,,,,V3_061,20,Female,2024-11-14_15h22.07.667,jersey_experiment_5_v3,2023.2.2,Win32,85.47008547,,,,,,,,,,,,,,,,801.8115,803.1053,803.1053,803.87,return,0.2512,,14.71354167,,,,,,FBP-RB-81.png,0.35,1.2,51,0.5,,,,,,,,,,,,,,,,,,0,5,5,50,1,,,,,,,,,,,,,,,,,,,,,,,
,,,,,V3_061,20,Female,2024-11-14_15h22.07.667,jersey_experiment_5_v3,2023.2.2,Win32,85.47008547,,,,,,,,,,,,,,,,803.8702,805.1642,805.1644,807.4938,return,0.0473,,28.515625,,,,,,FBP-RB-81.png,0.4,1.2,53,0.5,,,,,,,,,,,,,,,,,,0,6,6,52,1,,,,,,,,,,,,,,,,,,,,,,,
,,,,,V3_061,20,Female,2024-11-14_15h22.07.667,jersey_experiment_5_v3,2023.2.2,Win32,85.47008547,,,,,,,,,,,,,,,,807.4942,808.7878,808.7879,811.6704,return,0.1665,,67.1875,,,,,,FBP-PT-81.png,0.45,1.2,25,0.5,,,,,,,,,,,,,,,,,,0,7,7,24,1,,,,,,,,,,,,,,,,,,,,,,,
,,,,,V3_061,20,Female,2024-11-14_15h22.07.667,jersey_experiment_5_v3,2023.2.2,Win32,85.47008547,,,,,,,,,,,,,,,,811.6706,812.9643,812.9644,816.0352,return,0.071,,33.984375,,,,,,FBP-YG-18.png,0.35,1.2,6,0.5,,,,,,,,,,,,,,,,,,0,8,8,5,1,,,,,,,,,,,,,,,,,,,,,,,
,,,,,V3_061,20,Female,2024-11-14_15h22.07.667,jersey_experiment_5_v3,2023.2.2,Win32,85.47008547,,,,,,,,,,,,,,,,816.0354,817.588,817.5881,818.5882,return,0.1953,,50.13020833,,,,,,FBP-OG-81.png,0.43,1.2,39,0.75,,,,,,,,,,,,,,,,,,0,9,9,38,1,,,,,,,,,,,,,,,,,,,,,,,
,,,,,V3_061,20,Female,2024-11-14_15h22.07.667,jersey_experiment_5_v3,2023.2.2,Win32,85.47008547,,,,,,,,,,,,,,,,818.5886,819.8824,819.8825,821.3178,return,0.2746,,53.64583333,,,,,,FBP-YG-18.png,0.43,1.2,9,0.5,,,,,,,,,,,,,,,,,,0,10,10,8,1,,,,,,,,,,,,,,,,,,,,,,,
,,,,,V3_061,20,Female,2024-11-14_15h22.07.667,jersey_experiment_5_v3,2023.2.2,Win32,85.47008547,,,,,,,,,,,,,,,,821.3181,822.612,822.612,823.3179,return,0.142,,62.890625,,,,,,FBP-YG-18.png,0.45,1.2,10,0.5,,,,,,,,,,,,,,,,,,0,11,11,9,1,,,,,,,,,,,,,,,,,,,,,,,
,,,,,V3_061,20,Female,2024-11-14_15h22.07.667,jersey_experiment_5_v3,2023.2.2,Win32,85.47008547,,,,,,,,,,,,,,,,823.3182,824.871,824.871,826.0827,return,0.0583,,26.30208333,,,,,,FBP-OG-81.png,0.37,1.2,37,0.75,,,,,,,,,,,,,,,,,,0,12,12,36,1,,,,,,,,,,,,,,,,,,,,,,,
,,,,,V3_061,20,Female,2024-11-14_15h22.07.667,jersey_experiment_5_v3,2023.2.2,Win32,85.47008547,,,,,,,,,,,,,,,,826.083,827.3769,827.3769,828.6592,return,0.1062,,37.76041667,,,,,,FBP-YG-18.png,0.4,1.2,8,0.5,,,,,,,,,,,,,,,,,,0,13,13,7,1,,,,,,,,,,,,,,,,,,,,,,,
,,,,,V3_061,20,Female,2024-11-14_15h22.07.667,jersey_experiment_5_v3,2023.2.2,Win32,85.47008547,,,,,,,,,,,,,,,,828.6594,829.9533,829.9533,831.3418,return,0.1118,,36.328125,,,,,,FBP-PT-91.png,0.4,1.2,28,0.5,,,,,,,,,,,,,,,,,,0,14,14,27,1,,,,,,,,,,,,,,,,,,,,,,,
,,,,,V3_061,20,Female,2024-11-14_15h22.07.667,jersey_experiment_5_v3,2023.2.2,Win32,85.47008547,,,,,,,,,,,,,,,,831.3421,832.8947,832.8947,833.9185,return,0.0525,,23.828125,,,,,,FBP-OG-91.png,0.37,1.2,42,0.75,,,,,,,,,,,,,,,,,,0,15,15,41,1,,,,,,,,,,,,,,,,,,,,,,,
,,,,,V3_061,20,Female,2024-11-14_15h22.07.667,jersey_experiment_5_v3,2023.2.2,Win32,85.47008547,,,,,,,,,,,,,,,,833.9187,835.2124,835.2125,837.1537,return,0.0943,,75.65104167,,,,,,FBP-YG-17.png,0.45,1.2,5,0.5,,,,,,,,,,,,,,,,,,0,16,16,4,1,,,,,,,,,,,,,,,,,,,,,,,
,,,,,V3_061,20,Female,2024-11-14_15h22.07.667,jersey_experiment_5_v3,2023.2.2,Win32,85.47008547,,,,,,,,,,,,,,,,837.1539,838.4478,838.4479,839.4714,return,0.1307,,85.15625,,,,,,FBP-RB-91.png,0.45,1.2,60,0.5,,,,,,,,,,,,,,,,,,0,17,17,59,1,,,,,,,,,,,,,,,,,,,,,,,
,,,,,V3_061,20,Female,2024-11-14_15h22.07.667,jersey_experiment_5_v3,2023.2.2,Win32,85.47008547,,,,,,,,,,,,,,,,839.4717,840.7655,840.7655,843.0243,return,0.6486,,64.19270833,,,,,,FBP-YG-19.png,0.4,1.2,13,0.5,,,,,,,,,,,,,,,,,,0,18,18,12,1,,,,,,,,,,,,,,,,,,,,,,,
,,,,,V3_061,20,Female,2024-11-14_15h22.07.667,jersey_experiment_5_v3,2023.2.2,Win32,85.47008547,,,,,,,,,,,,,,,,843.0246,844.5775,844.5775,845.2599,return,0.0184,,74.47916667,,,,,,FBP-OG-91.png,0.45,1.2,45,0.75,,,,,,,,,,,,,,,,,,0,19,19,44,1,,,,,,,,,,,,,,,,,,,,,,,
,,,,,V3_061,20,Female,2024-11-14_15h22.07.667,jersey_experiment_5_v3,2023.2.2,Win32,85.47008547,,,,,,,,,,,,,,,,845.2601,846.5543,846.5543,848.06,return,0.1135,,25.91145833,,,,,,FBP-PT-81.png,0.35,1.2,21,0.5,,,,,,,,,,,,,,,,,,0,20,20,20,1,,,,,,,,,,,,,,,,,,,,,,,
,,,,,V3_061,20,Female,2024-11-14_15h22.07.667,jersey_experiment_5_v3,2023.2.2,Win32,85.47008547,,,,,,,,,,,,,,,,848.0603,849.6132,849.6132,851.213,return,1.0759,,27.08333333,,,,,,FBP-OG-71.png,0.37,1.2,32,0.75,,,,,,,,,,,,,,,,,,0,21,21,31,1,,,,,,,,,,,,,,,,,,,,,,,
,,,,,V3_061,20,Female,2024-11-14_15h22.07.667,jersey_experiment_5_v3,2023.2.2,Win32,85.47008547,,,,,,,,,,,,,,,,851.2132,852.5072,852.5072,854.5546,return,0.0327,,66.14583333,,,,,,FBP-PT-71.png,0.45,1.2,20,0.5,,,,,,,,,,,,,,,,,,0,22,22,19,1,,,,,,,,,,,,,,,,,,,,,,,
,,,,,V3_061,20,Female,2024-11-14_15h22.07.667,jersey_experiment_5_v3,2023.2.2,Win32,85.47008547,,,,,,,,,,,,,,,,854.5549,856.1073,856.1074,856.7546,return,0.1074,,70.18229167,,,,,,FBP-OG-81.png,0.45,1.2,40,0.75,,,,,,,,,,,,,,,,,,0,23,23,39,1,,,,,,,,,,,,,,,,,,,,,,,
,,,,,V3_061,20,Female,2024-11-14_15h22.07.667,jersey_experiment_5_v3,2023.2.2,Win32,85.47008547,,,,,,,,,,,,,,,,856.7549,858.0486,858.0487,860.3192,return,0.9929,,32.421875,,,,,,FBP-YG-19.png,0.35,1.2,11,0.5,,,,,,,,,,,,,,,,,,0,24,24,10,1,,,,,,,,,,,,,,,,,,,,,,,
,,,,,V3_061,20,Female,2024-11-14_15h22.07.667,jersey_experiment_5_v3,2023.2.2,Win32,85.47008547,,,,,,,,,,,,,,,,860.3194,861.6134,861.6135,863.6488,return,0.2028,,50.91145833,,,,,,FBP-RB-71.png,0.43,1.2,49,0.5,,,,,,,,,,,,,,,,,,0,25,25,48,1,,,,,,,,,,,,,,,,,,,,,,,
,,,,,V3_061,20,Female,2024-11-14_15h22.07.667,jersey_experiment_5_v3,2023.2.2,Win32,85.47008547,,,,,,,,,,,,,,,,863.6491,865.2018,865.2019,865.8724,return,0.1679,,52.99479167,,,,,,FBP-OG-71.png,0.45,1.2,35,0.75,,,,,,,,,,,,,,,,,,0,26,26,34,1,,,,,,,,,,,,,,,,,,,,,,,
,,,,,V3_061,20,Female,2024-11-14_15h22.07.667,jersey_experiment_5_v3,2023.2.2,Win32,85.47008547,,,,,,,,,,,,,,,,865.8728,867.1666,867.1666,868.5078,return,0.3252,,35.546875,,,,,,FBP-RB-71.png,0.37,1.2,47,0.5,,,,,,,,,,,,,,,,,,0,27,27,46,1,,,,,,,,,,,,,,,,,,,,,,,
,,,,,V3_061,20,Female,2024-11-14_15h22.07.667,jersey_experiment_5_v3,2023.2.2,Win32,85.47008547,,,,,,,,,,,,,,,,868.508,869.8019,869.802,870.8373,return,0.7633,,33.984375,,,,,,FBP-RB-81.png,0.37,1.2,52,0.5,,,,,,,,,,,,,,,,,,0,28,28,51,1,,,,,,,,,,,,,,,,,,,,,,,
,,,,,V3_061,20,Female,2024-11-14_15h22.07.667,jersey_experiment_5_v3,2023.2.2,Win32,85.47008547,,,,,,,,,,,,,,,,870.8377,872.1313,872.1314,873.649,return,0.9892,,29.6875,,,,,,FBP-RB-91.png,0.37,1.2,57,0.5,,,,,,,,,,,,,,,,,,0,29,29,56,1,,,,,,,,,,,,,,,,,,,,,,,
,,,,,V3_061,20,Female,2024-11-14_15h22.07.667,jersey_experiment_5_v3,2023.2.2,Win32,85.47008547,,,,,,,,,,,,,,,,873.6494,874.9432,874.9433,879.9081,return,3.2135,,75.390625,,,,,,FBP-YG-19.png,0.45,1.2,15,0.5,,,,,,,,,,,,,,,,,,0,30,30,14,1,,,,,,,,,,,,,,,,,,,,,,,
,,,,,V3_061,20,Female,2024-11-14_15h22.07.667,jersey_experiment_5_v3,2023.2.2,Win32,85.47008547,,,,,,,,,,,,,,,,879.9085,881.2024,881.2024,883.6377,return,0.0474,,24.73958333,,,,,,FBP-PT-91.png,0.37,1.2,27,0.5,,,,,,,,,,,,,,,,,,0,31,31,26,1,,,,,,,,,,,,,,,,,,,,,,,
,,,,,V3_061,20,Female,2024-11-14_15h22.07.667,jersey_experiment_5_v3,2023.2.2,Win32,85.47008547,,,,,,,,,,,,,,,,883.638,884.932,884.932,886.4026,return,0.3804,,25.91145833,,,,,,FBP-RB-91.png,0.43,1.2,59,0.5,,,,,,,,,,,,,,,,,,0,32,32,58,1,,,,,,,,,,,,,,,,,,,,,,,
,,,,,V3_061,20,Female,2024-11-14_15h22.07.667,jersey_experiment_5_v3,2023.2.2,Win32,85.47008547,,,,,,,,,,,,,,,,886.4027,887.6966,887.6966,889.2144,return,0.3216,,76.43229167,,,,,,FBP-YG-17.png,0.43,1.2,4,0.5,,,,,,,,,,,,,,,,,,0,33,33,3,1,,,,,,,,,,,,,,,,,,,,,,,
,,,,,V3_061,20,Female,2024-11-14_15h22.07.667,jersey_experiment_5_v3,2023.2.2,Win32,85.47008547,,,,,,,,,,,,,,,,889.2148,890.5088,890.5088,891.6028,return,0.1194,,49.34895833,,,,,,FBP-PT-71.png,0.37,1.2,17,0.5,,,,,,,,,,,,,,,,,,0,34,34,16,1,,,,,,,,,,,,,,,,,,,,,,,
,,,,,V3_061,20,Female,2024-11-14_15h22.07.667,jersey_experiment_5_v3,2023.2.2,Win32,85.47008547,,,,,,,,,,,,,,,,891.6032,892.8969,892.897,893.7795,return,0.1261,,35.28645833,,,,,,FBP-YG-17.png,0.37,1.2,2,0.5,,,,,,,,,,,,,,,,,,0,35,35,1,1,,,,,,,,,,,,,,,,,,,,,,,
,,,,,V3_061,20,Female,2024-11-14_15h22.07.667,jersey_experiment_5_v3,2023.2.2,Win32,85.47008547,,,,,,,,,,,,,,,,893.7797,895.0736,895.0736,895.7561,return,0.0315,,32.55208333,,,,,,FBP-PT-71.png,0.35,1.2,16,0.5,,,,,,,,,,,,,,,,,,0,36,36,15,1,,,,,,,,,,,,,,,,,,,,,,,
,,,,,V3_061,20,Female,2024-11-14_15h22.07.667,jersey_experiment_5_v3,2023.2.2,Win32,85.47008547,,,,,,,,,,,,,,,,895.7563,897.0499,897.0499,898.5561,return,0.5131,,48.4375,,,,,,FBP-PT-81.png,0.43,1.2,24,0.5,,,,,,,,,,,,,,,,,,0,37,37,23,1,,,,,,,,,,,,,,,,,,,,,,,
,,,,,V3_061,20,Female,2024-11-14_15h22.07.667,jersey_experiment_5_v3,2023.2.2,Win32,85.47008547,,,,,,,,,,,,,,,,898.5563,899.8501,899.8501,901.356,return,0.8184,,48.56770833,,,,,,FBP-RB-81.png,0.43,1.2,54,0.5,,,,,,,,,,,,,,,,,,0,38,38,53,1,,,,,,,,,,,,,,,,,,,,,,,
,,,,,V3_061,20,Female,2024-11-14_15h22.07.667,jersey_experiment_5_v3,2023.2.2,Win32,85.47008547,,,,,,,,,,,,,,,,901.3563,902.6502,902.6503,903.7796,return,0.6592,,51.04166667,,,,,,FBP-PT-71.png,0.43,1.2,19,0.5,,,,,,,,,,,,,,,,,,0,39,39,18,1,,,,,,,,,,,,,,,,,,,,,,,
,,,,,V3_061,20,Female,2024-11-14_15h22.07.667,jersey_experiment_5_v3,2023.2.2,Win32,85.47008547,,,,,,,,,,,,,,,,903.7799,905.3327,905.3328,906.3209,return,0.1674,,51.82291667,,,,,,FBP-OG-91.png,0.43,1.2,44,0.75,,,,,,,,,,,,,,,,,,0,40,40,43,1,,,,,,,,,,,,,,,,,,,,,,,
,,,,,V3_061,20,Female,2024-11-14_15h22.07.667,jersey_experiment_5_v3,2023.2.2,Win32,85.47008547,,,,,,,,,,,,,,,,906.3211,907.615,907.615,909.0388,return,0.2154,,23.69791667,,,,,,FBP-RB-71.png,0.35,1.2,46,0.5,,,,,,,,,,,,,,,,,,0,41,41,45,1,,,,,,,,,,,,,,,,,,,,,,,
,,,,,V3_061,20,Female,2024-11-14_15h22.07.667,jersey_experiment_5_v3,2023.2.2,Win32,85.47008547,,,,,,,,,,,,,,,,909.0391,910.3328,910.3329,911.2505,return,0.1882,,23.56770833,,,,,,FBP-YG-19.png,0.37,1.2,12,0.5,,,,,,,,,,,,,,,,,,0,42,42,11,1,,,,,,,,,,,,,,,,,,,,,,,
,,,,,V3_061,20,Female,2024-11-14_15h22.07.667,jersey_experiment_5_v3,2023.2.2,Win32,85.47008547,,,,,,,,,,,,,,,,911.2508,912.8037,912.8038,914.2272,return,0.3533,,33.85416667,,,,,,FBP-OG-91.png,0.4,1.2,43,0.75,,,,,,,,,,,,,,,,,,0,43,43,42,1,,,,,,,,,,,,,,,,,,,,,,,
,,,,,V3_061,20,Female,2024-11-14_15h22.07.667,jersey_experiment_5_v3,2023.2.2,Win32,85.47008547,,,,,,,,,,,,,,,,914.2275,915.78,915.78,917.3568,return,0.0541,,23.95833333,,,,,,FBP-OG-91.png,0.35,1.2,41,0.75,,,,,,,,,,,,,,,,,,0,44,44,40,1,,,,,,,,,,,,,,,,,,,,,,,
,,,,,V3_061,20,Female,2024-11-14_15h22.07.667,jersey_experiment_5_v3,2023.2.2,Win32,85.47008547,,,,,,,,,,,,,,,,917.3571,918.6508,918.651,920.3802,return,0.772,,22.13541667,,,,,,FBP-YG-17.png,0.35,1.2,1,0.5,,,,,,,,,,,,,,,,,,0,45,45,0,1,,,,,,,,,,,,,,,,,,,,,,,
,,,,,V3_061,20,Female,2024-11-14_15h22.07.667,jersey_experiment_5_v3,2023.2.2,Win32,85.47008547,,,,,,,,,,,,,,,,920.3804,921.6746,921.6746,923.9687,return,0.4379,,51.171875,,,,,,FBP-YG-19.png,0.43,1.2,14,0.5,,,,,,,,,,,,,,,,,,0,46,46,13,1,,,,,,,,,,,,,,,,,,,,,,,
,,,,,V3_061,20,Female,2024-11-14_15h22.07.667,jersey_experiment_5_v3,2023.2.2,Win32,85.47008547,,,,,,,,,,,,,,,,923.969,925.5217,925.5217,926.11,return,0.0998,,50,,,,,,FBP-OG-81.png,0.4,1.2,38,0.75,,,,,,,,,,,,,,,,,,0,47,47,37,1,,,,,,,,,,,,,,,,,,,,,,,
,,,,,V3_061,20,Female,2024-11-14_15h22.07.667,jersey_experiment_5_v3,2023.2.2,Win32,85.47008547,,,,,,,,,,,,,,,,926.1103,927.4041,927.4041,928.8278,return,0.1243,,53.25520833,,,,,,FBP-RB-81.png,0.45,1.2,55,0.5,,,,,,,,,,,,,,,,,,0,48,48,54,1,,,,,,,,,,,,,,,,,,,,,,,
,,,,,V3_061,20,Female,2024-11-14_15h22.07.667,jersey_experiment_5_v3,2023.2.2,Win32,85.47008547,,,,,,,,,,,,,,,,928.828,930.1222,930.1222,931.569,return,0.05,,37.63020833,,,,,,FBP-PT-81.png,0.37,1.2,22,0.5,,,,,,,,,,,,,,,,,,0,49,49,21,1,,,,,,,,,,,,,,,,,,,,,,,
,,,,,V3_061,20,Female,2024-11-14_15h22.07.667,jersey_experiment_5_v3,2023.2.2,Win32,85.47008547,,,,,,,,,,,,,,,,931.5693,933.122,933.1221,934.7808,return,0.0981,,32.8125,,,,,,FBP-OG-81.png,0.35,1.2,36,0.75,,,,,,,,,,,,,,,,,,0,50,50,35,1,,,,,,,,,,,,,,,,,,,,,,,
,,,,,V3_061,20,Female,2024-11-14_15h22.07.667,jersey_experiment_5_v3,2023.2.2,Win32,85.47008547,,,,,,,,,,,,,,,,934.781,936.075,936.0751,938.0986,return,0.2725,,49.73958333,,,,,,FBP-PT-71.png,0.4,1.2,18,0.5,,,,,,,,,,,,,,,,,,0,51,51,17,1,,,,,,,,,,,,,,,,,,,,,,,
,,,,,V3_061,20,Female,2024-11-14_15h22.07.667,jersey_experiment_5_v3,2023.2.2,Win32,85.47008547,,,,,,,,,,,,,,,,938.099,939.3926,939.3926,940.8633,return,0.1543,,74.609375,,,,,,FBP-PT-91.png,0.45,1.2,30,0.5,,,,,,,,,,,,,,,,,,0,52,52,29,1,,,,,,,,,,,,,,,,,,,,,,,
,,,,,V3_061,20,Female,2024-11-14_15h22.07.667,jersey_experiment_5_v3,2023.2.2,Win32,85.47008547,,,,,,,,,,,,,,,,940.8636,942.1576,942.1577,943.0987,return,0.1502,,74.609375,,,,,,FBP-RB-91.png,0.4,1.2,58,0.5,,,,,,,,,,,,,,,,,,0,53,53,57,1,,,,,,,,,,,,,,,,,,,,,,,
,,,,,V3_061,20,Female,2024-11-14_15h22.07.667,jersey_experiment_5_v3,2023.2.2,Win32,85.47008547,,,,,,,,,,,,,,,,943.0989,944.393,944.3931,945.0049,return,0.0643,,74.609375,,,,,,FBP-YG-17.png,0.4,1.2,3,0.5,,,,,,,,,,,,,,,,,,0,54,54,2,1,,,,,,,,,,,,,,,,,,,,,,,
,,,,,V3_061,20,Female,2024-11-14_15h22.07.667,jersey_experiment_5_v3,2023.2.2,Win32,85.47008547,,,,,,,,,,,,,,,,945.0051,946.2989,946.299,948.5813,return,0.4343,,94.40104167,,,,,,FBP-RB-71.png,0.45,1.2,50,0.5,,,,,,,,,,,,,,,,,,0,55,55,49,1,,,,,,,,,,,,,,,,,,,,,,,
,,,,,V3_061,20,Female,2024-11-14_15h22.07.667,jersey_experiment_5_v3,2023.2.2,Win32,85.47008547,,,,,,,,,,,,,,,,948.5816,950.1346,950.1346,952.4168,return,1.3059,,82.29166667,,,,,,FBP-OG-71.png,0.43,1.2,34,0.75,,,,,,,,,,,,,,,,,,0,56,56,33,1,,,,,,,,,,,,,,,,,,,,,,,
,,,,,V3_061,20,Female,2024-11-14_15h22.07.667,jersey_experiment_5_v3,2023.2.2,Win32,85.47008547,,,,,,,,,,,,,,,,952.4171,953.9699,953.97,955.9585,return,0.3523,,25.78125,,,,,,FBP-OG-71.png,0.35,1.2,31,0.75,,,,,,,,,,,,,,,,,,0,57,57,30,1,,,,,,,,,,,,,,,,,,,,,,,
,,,,,V3_061,20,Female,2024-11-14_15h22.07.667,jersey_experiment_5_v3,2023.2.2,Win32,85.47008547,,,,,,,,,,,,,,,,955.9587,957.5111,957.5111,959.3582,return,0.1938,,37.63020833,,,,,,FBP-OG-71.png,0.4,1.2,33,0.75,,,,,,,,,,,,,,,,,,0,58,58,32,1,,,,,,,,,,,,,,,,,,,,,,,
,,,,,V3_061,20,Female,2024-11-14_15h22.07.667,jersey_experiment_5_v3,2023.2.2,Win32,85.47008547,,,,,,,,,,,,,,,,959.3586,960.6524,960.6524,962.0289,return,0.3011,,32.421875,,,,,,FBP-YG-18.png,0.37,1.2,7,0.5,,,,,,,,,,,,,,,,,,0,59,59,6,1,,,,,,,,,,,,,,,,,,,,,,,
,,,,,V3_061,20,Female,2024-11-14_15h22.07.667,jersey_experiment_5_v3,2023.2.2,Win32,85.47008547,,,,,,,,,,,,,,,,,,,,,,,,,,,,,,,,,,,,,,,,,,,,,,,,,,,,,,,,962.0291,967.2644,return,5.226,,,,,,,,,,,,,,,,,,,
,,,,,V3_061,20,Female,2024-11-14_15h22.07.667,jersey_experiment_5_v3,2023.2.2,Win32,85.47008547,,,,,,,,,,,,,,,,,,,,,,,,,,,,,,,,,,,,,,,,,,,,,,,,,,,,,,,,,,,,,967.2646,973.8767,1,3.5138,return,3.082,,,,,,,,,,,,
,,,,,V3_061,20,Female,2024-11-14_15h22.07.667,jersey_experiment_5_v3,2023.2.2,Win32,85.47008547,,,,,,,,,,,,,,,,,,,,,,,,,,,,,,,,,,,,,,,,,,,,,,,,,,,,,,,,,,,,,,,,,,,,973.8768,1130.6243,"I assumed that the study is about how visual reference impacts one's perception. For instance, an objectively diligent football player would look more neutral if following a very diligent reference but look very diligent if following a husky football player. The white/ black skin color might be a way to control for bias/stereotyping.",right,146.8672,,,,,,
,,,,,V3_061,20,Female,2024-11-14_15h22.07.667,jersey_experiment_5_v3,2023.2.2,Win32,85.47008547,,,,,,,,,,,,,,,,,,,,,,,,,,,,,,,,,,,,,,,,,,,,,,,,,,,,,,,,,,,,,,,,,,,,,,,,,,1130.6243,1134.3885,return,3.7537,