requirements.started,requirements.stopped,key_resp_3.keys,key_resp_3.rt,key_resp_3.duration,Subject ID,Age,Gender,date,expName,psychopyVersion,OS,frameRate,instructions1.started,instructions1.stopped,key_resp.keys,key_resp.rt,key_resp.duration,example.started,example.stopped,enter_2.keys,enter_2.rt,enter_2.duration,instructions2.started,instructions2.stopped,enter_3.keys,enter_3.rt,enter_3.duration,image.started,image.stopped,slider_2.started,slider_2.stopped,next.keys,next.rt,next.duration,slider.response,trial_block_1.thisRepN,trial_block_1.thisTrialN,trial_block_1.thisN,trial_block_1.thisIndex,trial_block_1.ran,Path,Width,Height,Index,Duration,trial_block_2.thisRepN,trial_block_2.thisTrialN,trial_block_2.thisN,trial_block_2.thisIndex,trial_block_2.ran,rest_break.started,rest_break.stopped,end_break.started,end_break.stopped,key_resp_5.keys,key_resp_5.rt,key_resp_5.duration,trial_block_3.thisRepN,trial_block_3.thisTrialN,trial_block_3.thisN,trial_block_3.thisIndex,trial_block_3.ran,trial_block_4.thisRepN,trial_block_4.thisTrialN,trial_block_4.thisN,trial_block_4.thisIndex,trial_block_4.ran,questions_intro.started,questions_intro.stopped,enter_12.keys,enter_12.rt,enter_12.duration,question2.started,question2.stopped,question_doingbest.response,question_doingbest.rt,enter_15.keys,enter_15.rt,enter_15.duration,pattern.started,pattern.stopped,pattern_2.text,enter_17.keys,enter_17.rt,enter_17.duration,thankyou.started,thankyou.stopped,enter_14.keys,enter_14.rt,enter_14.duration
0,7.1489,return,7.1453,,V3_092,19,F,2025-01-30_14h32.36.254,jersey_experiment_5_v3,2023.2.2,Win32,85.47008547,,,,,,,,,,,,,,,,,,,,,,,,,,,,,,,,,,,,,,,,,,,,,,,,,,,,,,,,,,,,,,,,,,,,,,,,,,,,,,
,,,,,V3_092,19,F,2025-01-30_14h32.36.254,jersey_experiment_5_v3,2023.2.2,Win32,85.47008547,7.149,12.9106,return,5.7437,,,,,,,,,,,,,,,,,,,,,,,,,,,,,,,,,,,,,,,,,,,,,,,,,,,,,,,,,,,,,,,,,,,,,,,,,,
,,,,,V3_092,19,F,2025-01-30_14h32.36.254,jersey_experiment_5_v3,2023.2.2,Win32,85.47008547,,,,,,12.9106,17.1727,return,4.2286,,,,,,,,,,,,,,,,,,,,,,,,,,,,,,,,,,,,,,,,,,,,,,,,,,,,,,,,,,,,,,,,,,,,,
,,,,,V3_092,19,F,2025-01-30_14h32.36.254,jersey_experiment_5_v3,2023.2.2,Win32,85.47008547,,,,,,,,,,,17.1728,32.8911,return,15.7034,,,,,,,,,,,,,,,,,,,,,,,,,,,,,,,,,,,,,,,,,,,,,,,,,,,,,,,,,,,,,,,,
,,,,,V3_092,19,F,2025-01-30_14h32.36.254,jersey_experiment_5_v3,2023.2.2,Win32,85.47008547,,,,,,,,,,,,,,,,32.8926,34.4353,34.4354,41.1501,return,2.8559,,65.625,0,0,0,55,1,FBP-RB-19.png,0.35,1.2,56,0.75,,,,,,,,,,,,,,,,,,,,,,,,,,,,,,,,,,,,,,,,,,,,,
,,,,,V3_092,19,F,2025-01-30_14h32.36.254,jersey_experiment_5_v3,2023.2.2,Win32,85.47008547,,,,,,,,,,,,,,,,41.1502,42.703,42.703,45.4089,return,0.8796,,74.609375,0,1,1,58,1,FBP-RB-19.png,0.43,1.2,59,0.75,,,,,,,,,,,,,,,,,,,,,,,,,,,,,,,,,,,,,,,,,,,,,
,,,,,V3_092,19,F,2025-01-30_14h32.36.254,jersey_experiment_5_v3,2023.2.2,Win32,85.47008547,,,,,,,,,,,,,,,,45.4091,46.9621,46.9621,48.915,return,0.5413,,82.421875,0,2,2,49,1,FBP-RB-17.png,0.45,1.2,50,0.75,,,,,,,,,,,,,,,,,,,,,,,,,,,,,,,,,,,,,,,,,,,,,
,,,,,V3_092,19,F,2025-01-30_14h32.36.254,jersey_experiment_5_v3,2023.2.2,Win32,85.47008547,,,,,,,,,,,,,,,,48.9152,50.4593,50.4593,52.1785,return,0.4961,,78.515625,0,3,3,2,1,FBP-YG-71.png,0.4,1.2,3,0.75,,,,,,,,,,,,,,,,,,,,,,,,,,,,,,,,,,,,,,,,,,,,,
,,,,,V3_092,19,F,2025-01-30_14h32.36.254,jersey_experiment_5_v3,2023.2.2,Win32,85.47008547,,,,,,,,,,,,,,,,52.1787,53.4709,53.4709,55.0246,return,0.2826,,50.13020833,0,4,4,36,1,FBP-OG-18.png,0.37,1.2,37,0.5,,,,,,,,,,,,,,,,,,,,,,,,,,,,,,,,,,,,,,,,,,,,,
,,,,,V3_092,19,F,2025-01-30_14h32.36.254,jersey_experiment_5_v3,2023.2.2,Win32,85.47008547,,,,,,,,,,,,,,,,55.0248,56.5768,56.5768,58.2477,return,0.4386,,87.36979167,0,5,5,9,1,FBP-YG-81.png,0.45,1.2,10,0.75,,,,,,,,,,,,,,,,,,,,,,,,,,,,,,,,,,,,,,,,,,,,,
,,,,,V3_092,19,F,2025-01-30_14h32.36.254,jersey_experiment_5_v3,2023.2.2,Win32,85.47008547,,,,,,,,,,,,,,,,58.2478,59.5418,59.5418,61.7304,return,0.6036,,25.52083333,0,6,6,30,1,FBP-OG-17.png,0.35,1.2,31,0.5,,,,,,,,,,,,,,,,,,,,,,,,,,,,,,,,,,,,,,,,,,,,,
,,,,,V3_092,19,F,2025-01-30_14h32.36.254,jersey_experiment_5_v3,2023.2.2,Win32,85.47008547,,,,,,,,,,,,,,,,61.7307,63.2772,63.2772,64.9072,return,0.2742,,75.78125,0,7,7,13,1,FBP-YG-91.png,0.43,1.2,14,0.75,,,,,,,,,,,,,,,,,,,,,,,,,,,,,,,,,,,,,,,,,,,,,
,,,,,V3_092,19,F,2025-01-30_14h32.36.254,jersey_experiment_5_v3,2023.2.2,Win32,85.47008547,,,,,,,,,,,,,,,,64.9074,66.4597,66.4597,68.0452,return,0.5519,,89.71354167,0,8,8,3,1,FBP-YG-71.png,0.43,1.2,4,0.75,,,,,,,,,,,,,,,,,,,,,,,,,,,,,,,,,,,,,,,,,,,,,
,,,,,V3_092,19,F,2025-01-30_14h32.36.254,jersey_experiment_5_v3,2023.2.2,Win32,85.47008547,,,,,,,,,,,,,,,,68.0454,69.5916,69.5916,70.9778,return,0.4229,,34.765625,0,9,9,5,1,FBP-YG-81.png,0.35,1.2,6,0.75,,,,,,,,,,,,,,,,,,,,,,,,,,,,,,,,,,,,,,,,,,,,,
,,,,,V3_092,19,F,2025-01-30_14h32.36.254,jersey_experiment_5_v3,2023.2.2,Win32,85.47008547,,,,,,,,,,,,,,,,70.978,72.5247,72.5247,74.0606,return,0.3448,,62.63020833,0,10,10,57,1,FBP-RB-19.png,0.4,1.2,58,0.75,,,,,,,,,,,,,,,,,,,,,,,,,,,,,,,,,,,,,,,,,,,,,
,,,,,V3_092,19,F,2025-01-30_14h32.36.254,jersey_experiment_5_v3,2023.2.2,Win32,85.47008547,,,,,,,,,,,,,,,,74.0606,75.6071,75.6072,76.9868,return,0.4944,,58.46354167,0,11,11,56,1,FBP-RB-19.png,0.37,1.2,57,0.75,,,,,,,,,,,,,,,,,,,,,,,,,,,,,,,,,,,,,,,,,,,,,
,,,,,V3_092,19,F,2025-01-30_14h32.36.254,jersey_experiment_5_v3,2023.2.2,Win32,85.47008547,,,,,,,,,,,,,,,,76.9868,78.5308,78.5308,79.9013,return,0.3239,,49.47916667,0,12,12,26,1,FBP-PT-19.png,0.37,1.2,27,0.75,,,,,,,,,,,,,,,,,,,,,,,,,,,,,,,,,,,,,,,,,,,,,
,,,,,V3_092,19,F,2025-01-30_14h32.36.254,jersey_experiment_5_v3,2023.2.2,Win32,85.47008547,,,,,,,,,,,,,,,,79.9015,81.4575,81.4575,83.293,return,0.5736,,66.796875,0,13,13,47,1,FBP-RB-17.png,0.4,1.2,48,0.75,,,,,,,,,,,,,,,,,,,,,,,,,,,,,,,,,,,,,,,,,,,,,
,,,,,V3_092,19,F,2025-01-30_14h32.36.254,jersey_experiment_5_v3,2023.2.2,Win32,85.47008547,,,,,,,,,,,,,,,,83.2931,84.8368,84.8369,85.9665,return,0.259,,41.27604167,0,14,14,51,1,FBP-RB-18.png,0.37,1.2,52,0.75,,,,,,,,,,,,,,,,,,,,,,,,,,,,,,,,,,,,,,,,,,,,,
,,,,,V3_092,19,F,2025-01-30_14h32.36.254,jersey_experiment_5_v3,2023.2.2,Win32,85.47008547,,,,,,,,,,,,,,,,85.9667,87.2694,87.2694,88.3754,return,0.2913,,41.27604167,0,15,15,41,1,FBP-OG-19.png,0.37,1.2,42,0.5,,,,,,,,,,,,,,,,,,,,,,,,,,,,,,,,,,,,,,,,,,,,,
,,,,,V3_092,19,F,2025-01-30_14h32.36.254,jersey_experiment_5_v3,2023.2.2,Win32,85.47008547,,,,,,,,,,,,,,,,88.3756,89.6693,89.6694,91.5198,return,0.2591,,68.22916667,0,16,16,37,1,FBP-OG-18.png,0.4,1.2,38,0.5,,,,,,,,,,,,,,,,,,,,,,,,,,,,,,,,,,,,,,,,,,,,,
,,,,,V3_092,19,F,2025-01-30_14h32.36.254,jersey_experiment_5_v3,2023.2.2,Win32,85.47008547,,,,,,,,,,,,,,,,91.52,93.0709,93.071,94.461,return,0.3682,,38.93229167,0,17,17,50,1,FBP-RB-18.png,0.35,1.2,51,0.75,,,,,,,,,,,,,,,,,,,,,,,,,,,,,,,,,,,,,,,,,,,,,
,,,,,V3_092,19,F,2025-01-30_14h32.36.254,jersey_experiment_5_v3,2023.2.2,Win32,85.47008547,,,,,,,,,,,,,,,,94.4611,96.0134,96.0134,97.7404,return,0.4003,,89.84375,0,18,18,59,1,FBP-RB-19.png,0.45,1.2,60,0.75,,,,,,,,,,,,,,,,,,,,,,,,,,,,,,,,,,,,,,,,,,,,,
,,,,,V3_092,19,F,2025-01-30_14h32.36.254,jersey_experiment_5_v3,2023.2.2,Win32,85.47008547,,,,,,,,,,,,,,,,97.7406,99.2903,99.2904,100.7202,return,0.3447,,97.13541667,0,19,19,24,1,FBP-PT-18.png,0.45,1.2,25,0.75,,,,,,,,,,,,,,,,,,,,,,,,,,,,,,,,,,,,,,,,,,,,,
,,,,,V3_092,19,F,2025-01-30_14h32.36.254,jersey_experiment_5_v3,2023.2.2,Win32,85.47008547,,,,,,,,,,,,,,,,100.7203,102.0144,102.0144,103.4262,return,0.3298,,50.13020833,0,20,20,31,1,FBP-OG-17.png,0.37,1.2,32,0.5,,,,,,,,,,,,,,,,,,,,,,,,,,,,,,,,,,,,,,,,,,,,,
,,,,,V3_092,19,F,2025-01-30_14h32.36.254,jersey_experiment_5_v3,2023.2.2,Win32,85.47008547,,,,,,,,,,,,,,,,103.4263,104.9729,104.9729,106.2971,return,0.3447,,76.43229167,0,21,21,52,1,FBP-RB-18.png,0.4,1.2,53,0.75,,,,,,,,,,,,,,,,,,,,,,,,,,,,,,,,,,,,,,,,,,,,,
,,,,,V3_092,19,F,2025-01-30_14h32.36.254,jersey_experiment_5_v3,2023.2.2,Win32,85.47008547,,,,,,,,,,,,,,,,106.2972,107.8435,107.8435,109.553,return,0.3064,,86.45833333,0,22,22,53,1,FBP-RB-18.png,0.43,1.2,54,0.75,,,,,,,,,,,,,,,,,,,,,,,,,,,,,,,,,,,,,,,,,,,,,
,,,,,V3_092,19,F,2025-01-30_14h32.36.254,jersey_experiment_5_v3,2023.2.2,Win32,85.47008547,,,,,,,,,,,,,,,,109.5532,110.8614,110.8614,112.3443,return,0.4939,,99.47916667,0,23,23,39,1,FBP-OG-18.png,0.45,1.2,40,0.5,,,,,,,,,,,,,,,,,,,,,,,,,,,,,,,,,,,,,,,,,,,,,
,,,,,V3_092,19,F,2025-01-30_14h32.36.254,jersey_experiment_5_v3,2023.2.2,Win32,85.47008547,,,,,,,,,,,,,,,,112.3445,113.8972,113.8972,116.0469,return,0.6586,,99.21875,0,24,24,23,1,FBP-PT-18.png,0.43,1.2,24,0.75,,,,,,,,,,,,,,,,,,,,,,,,,,,,,,,,,,,,,,,,,,,,,
,,,,,V3_092,19,F,2025-01-30_14h32.36.254,jersey_experiment_5_v3,2023.2.2,Win32,85.47008547,,,,,,,,,,,,,,,,116.0471,117.5914,117.5914,118.8385,return,0.4255,,25.26041667,0,25,25,25,1,FBP-PT-19.png,0.35,1.2,26,0.75,,,,,,,,,,,,,,,,,,,,,,,,,,,,,,,,,,,,,,,,,,,,,
,,,,,V3_092,19,F,2025-01-30_14h32.36.254,jersey_experiment_5_v3,2023.2.2,Win32,85.47008547,,,,,,,,,,,,,,,,118.8386,120.3914,120.3914,121.3412,return,0.2441,,15.75520833,0,26,26,10,1,FBP-YG-91.png,0.35,1.2,11,0.75,,,,,,,,,,,,,,,,,,,,,,,,,,,,,,,,,,,,,,,,,,,,,
,,,,,V3_092,19,F,2025-01-30_14h32.36.254,jersey_experiment_5_v3,2023.2.2,Win32,85.47008547,,,,,,,,,,,,,,,,121.3413,122.8856,122.8856,124.1796,return,0.2353,,41.53645833,0,27,27,22,1,FBP-PT-18.png,0.4,1.2,23,0.75,,,,,,,,,,,,,,,,,,,,,,,,,,,,,,,,,,,,,,,,,,,,,
,,,,,V3_092,19,F,2025-01-30_14h32.36.254,jersey_experiment_5_v3,2023.2.2,Win32,85.47008547,,,,,,,,,,,,,,,,124.1797,125.4825,125.4825,126.7062,return,0.3298,,76.171875,0,28,28,44,1,FBP-OG-19.png,0.45,1.2,45,0.5,,,,,,,,,,,,,,,,,,,,,,,,,,,,,,,,,,,,,,,,,,,,,
,,,,,V3_092,19,F,2025-01-30_14h32.36.254,jersey_experiment_5_v3,2023.2.2,Win32,85.47008547,,,,,,,,,,,,,,,,126.7064,128.2594,128.2595,129.3419,return,0.236,,83.984375,0,29,29,18,1,FBP-PT-17.png,0.43,1.2,19,0.75,,,,,,,,,,,,,,,,,,,,,,,,,,,,,,,,,,,,,,,,,,,,,
,,,,,V3_092,19,F,2025-01-30_14h32.36.254,jersey_experiment_5_v3,2023.2.2,Win32,85.47008547,,,,,,,,,,,,,,,,129.3421,130.884,130.884,132.0626,return,0.1904,,51.04166667,0,30,30,1,1,FBP-YG-71.png,0.37,1.2,2,0.75,,,,,,,,,,,,,,,,,,,,,,,,,,,,,,,,,,,,,,,,,,,,,
,,,,,V3_092,19,F,2025-01-30_14h32.36.254,jersey_experiment_5_v3,2023.2.2,Win32,85.47008547,,,,,,,,,,,,,,,,132.0629,133.6152,133.6152,134.7452,return,0.2268,,74.73958333,0,31,31,8,1,FBP-YG-81.png,0.43,1.2,9,0.75,,,,,,,,,,,,,,,,,,,,,,,,,,,,,,,,,,,,,,,,,,,,,
,,,,,V3_092,19,F,2025-01-30_14h32.36.254,jersey_experiment_5_v3,2023.2.2,Win32,85.47008547,,,,,,,,,,,,,,,,134.7453,136.048,136.0481,137.1924,return,0.2268,,80.46875,0,32,32,38,1,FBP-OG-18.png,0.43,1.2,39,0.5,,,,,,,,,,,,,,,,,,,,,,,,,,,,,,,,,,,,,,,,,,,,,
,,,,,V3_092,19,F,2025-01-30_14h32.36.254,jersey_experiment_5_v3,2023.2.2,Win32,85.47008547,,,,,,,,,,,,,,,,137.1925,138.4947,138.4948,139.8833,return,0.4559,,84.89583333,0,33,33,33,1,FBP-OG-17.png,0.43,1.2,34,0.5,,,,,,,,,,,,,,,,,,,,,,,,,,,,,,,,,,,,,,,,,,,,,
,,,,,V3_092,19,F,2025-01-30_14h32.36.254,jersey_experiment_5_v3,2023.2.2,Win32,85.47008547,,,,,,,,,,,,,,,,139.8834,141.436,141.436,142.7217,return,0.2737,,89.71354167,0,34,34,28,1,FBP-PT-19.png,0.43,1.2,29,0.75,,,,,,,,,,,,,,,,,,,,,,,,,,,,,,,,,,,,,,,,,,,,,
,,,,,V3_092,19,F,2025-01-30_14h32.36.254,jersey_experiment_5_v3,2023.2.2,Win32,85.47008547,,,,,,,,,,,,,,,,142.7219,144.0161,144.0161,145.5862,return,0.2841,,38.02083333,0,35,35,40,1,FBP-OG-19.png,0.35,1.2,41,0.5,,,,,,,,,,,,,,,,,,,,,,,,,,,,,,,,,,,,,,,,,,,,,
,,,,,V3_092,19,F,2025-01-30_14h32.36.254,jersey_experiment_5_v3,2023.2.2,Win32,85.47008547,,,,,,,,,,,,,,,,145.5863,147.1454,147.1454,148.4865,return,0.2033,,48.046875,0,36,36,12,1,FBP-YG-91.png,0.4,1.2,13,0.75,,,,,,,,,,,,,,,,,,,,,,,,,,,,,,,,,,,,,,,,,,,,,
,,,,,V3_092,19,F,2025-01-30_14h32.36.254,jersey_experiment_5_v3,2023.2.2,Win32,85.47008547,,,,,,,,,,,,,,,,148.4865,150.0392,150.0392,151.4044,return,0.353,,85.80729167,0,37,37,54,1,FBP-RB-18.png,0.45,1.2,55,0.75,,,,,,,,,,,,,,,,,,,,,,,,,,,,,,,,,,,,,,,,,,,,,
,,,,,V3_092,19,F,2025-01-30_14h32.36.254,jersey_experiment_5_v3,2023.2.2,Win32,85.47008547,,,,,,,,,,,,,,,,151.4046,152.7072,152.7072,153.8365,return,0.3297,,23.95833333,0,38,38,35,1,FBP-OG-18.png,0.35,1.2,36,0.5,,,,,,,,,,,,,,,,,,,,,,,,,,,,,,,,,,,,,,,,,,,,,
,,,,,V3_092,19,F,2025-01-30_14h32.36.254,jersey_experiment_5_v3,2023.2.2,Win32,85.47008547,,,,,,,,,,,,,,,,153.8366,155.3811,155.3811,156.6753,return,0.3682,,91.27604167,0,39,39,14,1,FBP-YG-91.png,0.45,1.2,15,0.75,,,,,,,,,,,,,,,,,,,,,,,,,,,,,,,,,,,,,,,,,,,,,
,,,,,V3_092,19,F,2025-01-30_14h32.36.254,jersey_experiment_5_v3,2023.2.2,Win32,85.47008547,,,,,,,,,,,,,,,,156.6754,158.2286,158.2286,159.4755,return,0.2354,,96.74479167,0,40,40,19,1,FBP-PT-17.png,0.45,1.2,20,0.75,,,,,,,,,,,,,,,,,,,,,,,,,,,,,,,,,,,,,,,,,,,,,
,,,,,V3_092,19,F,2025-01-30_14h32.36.254,jersey_experiment_5_v3,2023.2.2,Win32,85.47008547,,,,,,,,,,,,,,,,159.4756,161.0223,161.0224,162.2988,return,0.2973,,47.78645833,0,41,41,46,1,FBP-RB-17.png,0.37,1.2,47,0.75,,,,,,,,,,,,,,,,,,,,,,,,,,,,,,,,,,,,,,,,,,,,,
,,,,,V3_092,19,F,2025-01-30_14h32.36.254,jersey_experiment_5_v3,2023.2.2,Win32,85.47008547,,,,,,,,,,,,,,,,162.2989,163.6019,163.6019,164.637,return,0.1969,,69.921875,0,42,42,43,1,FBP-OG-19.png,0.43,1.2,44,0.5,,,,,,,,,,,,,,,,,,,,,,,,,,,,,,,,,,,,,,,,,,,,,
,,,,,V3_092,19,F,2025-01-30_14h32.36.254,jersey_experiment_5_v3,2023.2.2,Win32,85.47008547,,,,,,,,,,,,,,,,164.6371,166.1815,166.1815,167.287,return,0.2265,,49.73958333,0,43,43,11,1,FBP-YG-91.png,0.37,1.2,12,0.75,,,,,,,,,,,,,,,,,,,,,,,,,,,,,,,,,,,,,,,,,,,,,
,,,,,V3_092,19,F,2025-01-30_14h32.36.254,jersey_experiment_5_v3,2023.2.2,Win32,85.47008547,,,,,,,,,,,,,,,,167.2871,168.8399,168.8399,169.7576,return,0.2353,,34.765625,0,44,44,15,1,FBP-PT-17.png,0.35,1.2,16,0.75,,,,,,,,,,,,,,,,,,,,,,,,,,,,,,,,,,,,,,,,,,,,,
,,,,,V3_092,19,F,2025-01-30_14h32.36.254,jersey_experiment_5_v3,2023.2.2,Win32,85.47008547,,,,,,,,,,,,,,,,169.7577,171.0609,171.0609,172.0876,return,0.2742,,94.66145833,0,45,45,34,1,FBP-OG-17.png,0.45,1.2,35,0.5,,,,,,,,,,,,,,,,,,,,,,,,,,,,,,,,,,,,,,,,,,,,,
,,,,,V3_092,19,F,2025-01-30_14h32.36.254,jersey_experiment_5_v3,2023.2.2,Win32,85.47008547,,,,,,,,,,,,,,,,172.0878,173.6403,173.6404,174.755,return,0.2679,,23.69791667,0,46,46,6,1,FBP-YG-81.png,0.37,1.2,7,0.75,,,,,,,,,,,,,,,,,,,,,,,,,,,,,,,,,,,,,,,,,,,,,
,,,,,V3_092,19,F,2025-01-30_14h32.36.254,jersey_experiment_5_v3,2023.2.2,Win32,85.47008547,,,,,,,,,,,,,,,,174.7552,176.2994,176.2994,178.3551,return,0.2353,,70.83333333,0,47,47,48,1,FBP-RB-17.png,0.43,1.2,49,0.75,,,,,,,,,,,,,,,,,,,,,,,,,,,,,,,,,,,,,,,,,,,,,
,,,,,V3_092,19,F,2025-01-30_14h32.36.254,jersey_experiment_5_v3,2023.2.2,Win32,85.47008547,,,,,,,,,,,,,,,,178.3553,179.8992,179.8992,181.0053,return,0.2269,,29.6875,0,48,48,16,1,FBP-PT-17.png,0.37,1.2,17,0.75,,,,,,,,,,,,,,,,,,,,,,,,,,,,,,,,,,,,,,,,,,,,,
,,,,,V3_092,19,F,2025-01-30_14h32.36.254,jersey_experiment_5_v3,2023.2.2,Win32,85.47008547,,,,,,,,,,,,,,,,181.0054,182.5582,182.5582,183.8527,return,0.3769,,82.8125,0,49,49,29,1,FBP-PT-19.png,0.45,1.2,30,0.75,,,,,,,,,,,,,,,,,,,,,,,,,,,,,,,,,,,,,,,,,,,,,
,,,,,V3_092,19,F,2025-01-30_14h32.36.254,jersey_experiment_5_v3,2023.2.2,Win32,85.47008547,,,,,,,,,,,,,,,,183.8529,185.4055,185.4055,186.7791,return,0.2355,,67.83854167,0,50,50,21,1,FBP-PT-18.png,0.37,1.2,22,0.75,,,,,,,,,,,,,,,,,,,,,,,,,,,,,,,,,,,,,,,,,,,,,
,,,,,V3_092,19,F,2025-01-30_14h32.36.254,jersey_experiment_5_v3,2023.2.2,Win32,85.47008547,,,,,,,,,,,,,,,,186.7792,188.0733,188.0733,189.4144,return,0.1885,,73.56770833,0,51,51,32,1,FBP-OG-17.png,0.4,1.2,33,0.5,,,,,,,,,,,,,,,,,,,,,,,,,,,,,,,,,,,,,,,,,,,,,
,,,,,V3_092,19,F,2025-01-30_14h32.36.254,jersey_experiment_5_v3,2023.2.2,Win32,85.47008547,,,,,,,,,,,,,,,,189.4146,190.957,190.9571,192.1675,return,0.4944,,45.703125,0,52,52,45,1,FBP-RB-17.png,0.35,1.2,46,0.75,,,,,,,,,,,,,,,,,,,,,,,,,,,,,,,,,,,,,,,,,,,,,
,,,,,V3_092,19,F,2025-01-30_14h32.36.254,jersey_experiment_5_v3,2023.2.2,Win32,85.47008547,,,,,,,,,,,,,,,,192.1677,193.7118,193.7119,194.6763,return,0.2501,,80.078125,0,53,53,4,1,FBP-YG-71.png,0.45,1.2,5,0.75,,,,,,,,,,,,,,,,,,,,,,,,,,,,,,,,,,,,,,,,,,,,,
,,,,,V3_092,19,F,2025-01-30_14h32.36.254,jersey_experiment_5_v3,2023.2.2,Win32,85.47008547,,,,,,,,,,,,,,,,194.6764,195.9791,195.9792,196.9441,return,0.1647,,85.546875,0,54,54,42,1,FBP-OG-19.png,0.4,1.2,43,0.5,,,,,,,,,,,,,,,,,,,,,,,,,,,,,,,,,,,,,,,,,,,,,
,,,,,V3_092,19,F,2025-01-30_14h32.36.254,jersey_experiment_5_v3,2023.2.2,Win32,85.47008547,,,,,,,,,,,,,,,,196.9442,198.4885,198.4885,199.435,return,0.2086,,70.57291667,0,55,55,17,1,FBP-PT-17.png,0.4,1.2,18,0.75,,,,,,,,,,,,,,,,,,,,,,,,,,,,,,,,,,,,,,,,,,,,,
,,,,,V3_092,19,F,2025-01-30_14h32.36.254,jersey_experiment_5_v3,2023.2.2,Win32,85.47008547,,,,,,,,,,,,,,,,199.4353,200.9831,200.9831,202.1104,return,0.2016,,27.47395833,0,56,56,20,1,FBP-PT-18.png,0.35,1.2,21,0.75,,,,,,,,,,,,,,,,,,,,,,,,,,,,,,,,,,,,,,,,,,,,,
,,,,,V3_092,19,F,2025-01-30_14h32.36.254,jersey_experiment_5_v3,2023.2.2,Win32,85.47008547,,,,,,,,,,,,,,,,202.1105,203.6651,203.6651,204.5592,return,0.212,,18.75,0,57,57,0,1,FBP-YG-71.png,0.35,1.2,1,0.75,,,,,,,,,,,,,,,,,,,,,,,,,,,,,,,,,,,,,,,,,,,,,
,,,,,V3_092,19,F,2025-01-30_14h32.36.254,jersey_experiment_5_v3,2023.2.2,Win32,85.47008547,,,,,,,,,,,,,,,,204.5594,206.1123,206.1123,207.1711,return,0.1797,,41.015625,0,58,58,27,1,FBP-PT-19.png,0.4,1.2,28,0.75,,,,,,,,,,,,,,,,,,,,,,,,,,,,,,,,,,,,,,,,,,,,,
,,,,,V3_092,19,F,2025-01-30_14h32.36.254,jersey_experiment_5_v3,2023.2.2,Win32,85.47008547,,,,,,,,,,,,,,,,207.1712,208.724,208.724,209.4064,return,0.1648,,56.90104167,0,59,59,7,1,FBP-YG-81.png,0.4,1.2,8,0.75,,,,,,,,,,,,,,,,,,,,,,,,,,,,,,,,,,,,,,,,,,,,,
,,,,,V3_092,19,F,2025-01-30_14h32.36.254,jersey_experiment_5_v3,2023.2.2,Win32,85.47008547,,,,,,,,,,,,,,,,209.4076,210.9594,210.9594,211.6889,return,0.1798,,44.921875,,,,,,FBP-PT-71.png,0.35,1.2,16,0.75,0,0,0,15,1,,,,,,,,,,,,,,,,,,,,,,,,,,,,,,,,,,,,,,,,
,,,,,V3_092,19,F,2025-01-30_14h32.36.254,jersey_experiment_5_v3,2023.2.2,Win32,85.47008547,,,,,,,,,,,,,,,,211.689,213.2416,213.2416,214.3244,return,0.3297,,47.39583333,,,,,,FBP-RB-71.png,0.37,1.2,47,0.75,0,1,1,46,1,,,,,,,,,,,,,,,,,,,,,,,,,,,,,,,,,,,,,,,,
,,,,,V3_092,19,F,2025-01-30_14h32.36.254,jersey_experiment_5_v3,2023.2.2,Win32,85.47008547,,,,,,,,,,,,,,,,214.3246,215.6187,215.6187,216.7655,return,0.2184,,62.109375,,,,,,FBP-OG-91.png,0.4,1.2,43,0.5,0,2,2,42,1,,,,,,,,,,,,,,,,,,,,,,,,,,,,,,,,,,,,,,,,
,,,,,V3_092,19,F,2025-01-30_14h32.36.254,jersey_experiment_5_v3,2023.2.2,Win32,85.47008547,,,,,,,,,,,,,,,,216.7656,218.3095,218.3095,219.1482,return,0.2272,,71.74479167,,,,,,FBP-PT-81.png,0.4,1.2,23,0.75,0,3,3,22,1,,,,,,,,,,,,,,,,,,,,,,,,,,,,,,,,,,,,,,,,
,,,,,V3_092,19,F,2025-01-30_14h32.36.254,jersey_experiment_5_v3,2023.2.2,Win32,85.47008547,,,,,,,,,,,,,,,,219.1483,220.701,220.701,221.7923,return,0.2123,,42.83854167,,,,,,FBP-RB-91.png,0.35,1.2,56,0.75,0,4,4,55,1,,,,,,,,,,,,,,,,,,,,,,,,,,,,,,,,,,,,,,,,
,,,,,V3_092,19,F,2025-01-30_14h32.36.254,jersey_experiment_5_v3,2023.2.2,Win32,85.47008547,,,,,,,,,,,,,,,,221.7924,223.0861,223.0862,224.8509,return,0.2119,,67.83854167,,,,,,FBP-OG-91.png,0.37,1.2,42,0.5,0,5,5,41,1,,,,,,,,,,,,,,,,,,,,,,,,,,,,,,,,,,,,,,,,
,,,,,V3_092,19,F,2025-01-30_14h32.36.254,jersey_experiment_5_v3,2023.2.2,Win32,85.47008547,,,,,,,,,,,,,,,,224.851,226.395,226.3951,227.295,return,0.2281,,79.16666667,,,,,,FBP-RB-71.png,0.43,1.2,49,0.75,0,6,6,48,1,,,,,,,,,,,,,,,,,,,,,,,,,,,,,,,,,,,,,,,,
,,,,,V3_092,19,F,2025-01-30_14h32.36.254,jersey_experiment_5_v3,2023.2.2,Win32,85.47008547,,,,,,,,,,,,,,,,227.2953,228.5924,228.5924,229.6663,return,0.165,,91.66666667,,,,,,FBP-OG-81.png,0.45,1.2,40,0.5,0,7,7,39,1,,,,,,,,,,,,,,,,,,,,,,,,,,,,,,,,,,,,,,,,
,,,,,V3_092,19,F,2025-01-30_14h32.36.254,jersey_experiment_5_v3,2023.2.2,Win32,85.47008547,,,,,,,,,,,,,,,,229.6664,231.219,231.2191,232.1423,return,0.182,,44.921875,,,,,,FBP-PT-81.png,0.37,1.2,22,0.75,0,8,8,21,1,,,,,,,,,,,,,,,,,,,,,,,,,,,,,,,,,,,,,,,,
,,,,,V3_092,19,F,2025-01-30_14h32.36.254,jersey_experiment_5_v3,2023.2.2,Win32,85.47008547,,,,,,,,,,,,,,,,232.1426,233.4365,233.4366,234.9895,return,0.1829,,68.88020833,,,,,,FBP-OG-81.png,0.4,1.2,38,0.5,0,9,9,37,1,,,,,,,,,,,,,,,,,,,,,,,,,,,,,,,,,,,,,,,,
,,,,,V3_092,19,F,2025-01-30_14h32.36.254,jersey_experiment_5_v3,2023.2.2,Win32,85.47008547,,,,,,,,,,,,,,,,234.9897,236.5369,236.537,237.4784,return,0.2375,,83.33333333,,,,,,FBP-YG-17.png,0.45,1.2,5,0.75,0,10,10,4,1,,,,,,,,,,,,,,,,,,,,,,,,,,,,,,,,,,,,,,,,
,,,,,V3_092,19,F,2025-01-30_14h32.36.254,jersey_experiment_5_v3,2023.2.2,Win32,85.47008547,,,,,,,,,,,,,,,,237.4785,238.7808,238.7808,239.8082,return,0.2745,,93.22916667,,,,,,FBP-OG-71.png,0.45,1.2,35,0.5,0,11,11,34,1,,,,,,,,,,,,,,,,,,,,,,,,,,,,,,,,,,,,,,,,
,,,,,V3_092,19,F,2025-01-30_14h32.36.254,jersey_experiment_5_v3,2023.2.2,Win32,85.47008547,,,,,,,,,,,,,,,,239.8083,241.1018,241.1019,242.4752,return,0.1179,,44.27083333,,,,,,FBP-OG-71.png,0.37,1.2,32,0.5,0,12,12,31,1,,,,,,,,,,,,,,,,,,,,,,,,,,,,,,,,,,,,,,,,
,,,,,V3_092,19,F,2025-01-30_14h32.36.254,jersey_experiment_5_v3,2023.2.2,Win32,85.47008547,,,,,,,,,,,,,,,,242.4753,244.02,244.02,245.0722,return,0.1448,,59.765625,,,,,,FBP-YG-18.png,0.4,1.2,8,0.75,0,13,13,7,1,,,,,,,,,,,,,,,,,,,,,,,,,,,,,,,,,,,,,,,,
,,,,,V3_092,19,F,2025-01-30_14h32.36.254,jersey_experiment_5_v3,2023.2.2,Win32,85.47008547,,,,,,,,,,,,,,,,245.0725,246.6164,246.6165,247.3698,return,0.1415,,51.30208333,,,,,,FBP-YG-17.png,0.37,1.2,2,0.75,0,14,14,1,1,,,,,,,,,,,,,,,,,,,,,,,,,,,,,,,,,,,,,,,,
,,,,,V3_092,19,F,2025-01-30_14h32.36.254,jersey_experiment_5_v3,2023.2.2,Win32,85.47008547,,,,,,,,,,,,,,,,247.37,248.9113,248.9114,249.7611,return,0.1799,,72.65625,,,,,,FBP-PT-91.png,0.43,1.2,29,0.75,0,15,15,28,1,,,,,,,,,,,,,,,,,,,,,,,,,,,,,,,,,,,,,,,,
,,,,,V3_092,19,F,2025-01-30_14h32.36.254,jersey_experiment_5_v3,2023.2.2,Win32,85.47008547,,,,,,,,,,,,,,,,249.7612,251.3139,251.3139,252.1612,return,0.18,,46.35416667,,,,,,FBP-PT-71.png,0.37,1.2,17,0.75,0,16,16,16,1,,,,,,,,,,,,,,,,,,,,,,,,,,,,,,,,,,,,,,,,
,,,,,V3_092,19,F,2025-01-30_14h32.36.254,jersey_experiment_5_v3,2023.2.2,Win32,85.47008547,,,,,,,,,,,,,,,,252.1612,253.714,253.714,254.6372,return,0.2301,,34.375,,,,,,FBP-PT-81.png,0.35,1.2,21,0.75,0,17,17,20,1,,,,,,,,,,,,,,,,,,,,,,,,,,,,,,,,,,,,,,,,
,,,,,V3_092,19,F,2025-01-30_14h32.36.254,jersey_experiment_5_v3,2023.2.2,Win32,85.47008547,,,,,,,,,,,,,,,,254.6374,256.1848,256.1848,256.8904,return,0.1562,,28.515625,,,,,,FBP-RB-81.png,0.35,1.2,51,0.75,0,18,18,50,1,,,,,,,,,,,,,,,,,,,,,,,,,,,,,,,,,,,,,,,,
,,,,,V3_092,19,F,2025-01-30_14h32.36.254,jersey_experiment_5_v3,2023.2.2,Win32,85.47008547,,,,,,,,,,,,,,,,256.8907,258.444,258.444,260.3315,return,1.1258,,81.640625,,,,,,FBP-RB-91.png,0.45,1.2,60,0.75,0,19,19,59,1,,,,,,,,,,,,,,,,,,,,,,,,,,,,,,,,,,,,,,,,
,,,,,V3_092,19,F,2025-01-30_14h32.36.254,jersey_experiment_5_v3,2023.2.2,Win32,85.47008547,,,,,,,,,,,,,,,,260.3318,261.6258,261.6258,262.9468,return,0.2121,,89.453125,,,,,,FBP-OG-71.png,0.43,1.2,34,0.5,0,20,20,33,1,,,,,,,,,,,,,,,,,,,,,,,,,,,,,,,,,,,,,,,,
,,,,,V3_092,19,F,2025-01-30_14h32.36.254,jersey_experiment_5_v3,2023.2.2,Win32,85.47008547,,,,,,,,,,,,,,,,262.9469,264.2554,264.2554,265.5499,return,0.2033,,83.46354167,,,,,,FBP-OG-81.png,0.43,1.2,39,0.5,0,21,21,38,1,,,,,,,,,,,,,,,,,,,,,,,,,,,,,,,,,,,,,,,,
,,,,,V3_092,19,F,2025-01-30_14h32.36.254,jersey_experiment_5_v3,2023.2.2,Win32,85.47008547,,,,,,,,,,,,,,,,265.5501,267.0965,267.0966,268.1941,return,0.1654,,84.50520833,,,,,,FBP-YG-18.png,0.43,1.2,9,0.75,0,22,22,8,1,,,,,,,,,,,,,,,,,,,,,,,,,,,,,,,,,,,,,,,,
,,,,,V3_092,19,F,2025-01-30_14h32.36.254,jersey_experiment_5_v3,2023.2.2,Win32,85.47008547,,,,,,,,,,,,,,,,268.1943,269.7364,269.7365,270.8206,return,0.2035,,38.15104167,,,,,,FBP-PT-91.png,0.35,1.2,26,0.75,0,23,23,25,1,,,,,,,,,,,,,,,,,,,,,,,,,,,,,,,,,,,,,,,,
,,,,,V3_092,19,F,2025-01-30_14h32.36.254,jersey_experiment_5_v3,2023.2.2,Win32,85.47008547,,,,,,,,,,,,,,,,270.8207,272.1235,272.1235,273.2205,return,0.2974,,77.08333333,,,,,,FBP-OG-91.png,0.43,1.2,44,0.5,0,24,24,43,1,,,,,,,,,,,,,,,,,,,,,,,,,,,,,,,,,,,,,,,,
,,,,,V3_092,19,F,2025-01-30_14h32.36.254,jersey_experiment_5_v3,2023.2.2,Win32,85.47008547,,,,,,,,,,,,,,,,273.2207,274.7675,274.7675,275.9032,return,0.1565,,82.29166667,,,,,,FBP-YG-17.png,0.43,1.2,4,0.75,0,25,25,3,1,,,,,,,,,,,,,,,,,,,,,,,,,,,,,,,,,,,,,,,,
,,,,,V3_092,19,F,2025-01-30_14h32.36.254,jersey_experiment_5_v3,2023.2.2,Win32,85.47008547,,,,,,,,,,,,,,,,275.9033,277.4499,277.45,278.3972,return,0.1649,,82.16145833,,,,,,FBP-RB-71.png,0.4,1.2,48,0.75,0,26,26,47,1,,,,,,,,,,,,,,,,,,,,,,,,,,,,,,,,,,,,,,,,
,,,,,V3_092,19,F,2025-01-30_14h32.36.254,jersey_experiment_5_v3,2023.2.2,Win32,85.47008547,,,,,,,,,,,,,,,,278.3973,279.6999,279.7,280.7979,return,0.1419,,91.015625,,,,,,FBP-OG-91.png,0.45,1.2,45,0.5,0,27,27,44,1,,,,,,,,,,,,,,,,,,,,,,,,,,,,,,,,,,,,,,,,
,,,,,V3_092,19,F,2025-01-30_14h32.36.254,jersey_experiment_5_v3,2023.2.2,Win32,85.47008547,,,,,,,,,,,,,,,,280.7981,282.3504,282.3504,283.3371,return,0.1781,,90.49479167,,,,,,FBP-YG-19.png,0.45,1.2,15,0.75,0,28,28,14,1,,,,,,,,,,,,,,,,,,,,,,,,,,,,,,,,,,,,,,,,
,,,,,V3_092,19,F,2025-01-30_14h32.36.254,jersey_experiment_5_v3,2023.2.2,Win32,85.47008547,,,,,,,,,,,,,,,,283.3373,284.6416,284.6417,286.3357,return,0.2696,,33.984375,,,,,,FBP-OG-71.png,0.35,1.2,31,0.5,0,29,29,30,1,,,,,,,,,,,,,,,,,,,,,,,,,,,,,,,,,,,,,,,,
,,,,,V3_092,19,F,2025-01-30_14h32.36.254,jersey_experiment_5_v3,2023.2.2,Win32,85.47008547,,,,,,,,,,,,,,,,286.3358,287.8781,287.8781,288.8212,return,0.2123,,39.71354167,,,,,,FBP-YG-18.png,0.37,1.2,7,0.75,0,30,30,6,1,,,,,,,,,,,,,,,,,,,,,,,,,,,,,,,,,,,,,,,,
,,,,,V3_092,19,F,2025-01-30_14h32.36.254,jersey_experiment_5_v3,2023.2.2,Win32,85.47008547,,,,,,,,,,,,,,,,288.8214,290.374,290.374,291.168,return,0.2156,,35.67708333,,,,,,FBP-YG-19.png,0.37,1.2,12,0.75,0,31,31,11,1,,,,,,,,,,,,,,,,,,,,,,,,,,,,,,,,,,,,,,,,
,,,,,V3_092,19,F,2025-01-30_14h32.36.254,jersey_experiment_5_v3,2023.2.2,Win32,85.47008547,,,,,,,,,,,,,,,,291.1683,292.7124,292.7124,293.8568,return,0.1884,,43.61979167,,,,,,FBP-PT-71.png,0.4,1.2,18,0.75,0,32,32,17,1,,,,,,,,,,,,,,,,,,,,,,,,,,,,,,,,,,,,,,,,
,,,,,V3_092,19,F,2025-01-30_14h32.36.254,jersey_experiment_5_v3,2023.2.2,Win32,85.47008547,,,,,,,,,,,,,,,,293.857,295.4093,295.4093,296.492,return,0.2034,,64.58333333,,,,,,FBP-PT-81.png,0.45,1.2,25,0.75,0,33,33,24,1,,,,,,,,,,,,,,,,,,,,,,,,,,,,,,,,,,,,,,,,
,,,,,V3_092,19,F,2025-01-30_14h32.36.254,jersey_experiment_5_v3,2023.2.2,Win32,85.47008547,,,,,,,,,,,,,,,,296.4921,297.7859,297.7859,298.7363,return,0.1882,,51.82291667,,,,,,FBP-OG-81.png,0.37,1.2,37,0.5,0,34,34,36,1,,,,,,,,,,,,,,,,,,,,,,,,,,,,,,,,,,,,,,,,
,,,,,V3_092,19,F,2025-01-30_14h32.36.254,jersey_experiment_5_v3,2023.2.2,Win32,85.47008547,,,,,,,,,,,,,,,,298.7364,300.2807,300.2807,301.2219,return,0.2507,,81.77083333,,,,,,FBP-RB-81.png,0.43,1.2,54,0.75,0,35,35,53,1,,,,,,,,,,,,,,,,,,,,,,,,,,,,,,,,,,,,,,,,
,,,,,V3_092,19,F,2025-01-30_14h32.36.254,jersey_experiment_5_v3,2023.2.2,Win32,85.47008547,,,,,,,,,,,,,,,,301.2221,302.7746,302.7747,303.8391,return,0.1194,,73.4375,,,,,,FBP-YG-17.png,0.4,1.2,3,0.75,0,36,36,2,1,,,,,,,,,,,,,,,,,,,,,,,,,,,,,,,,,,,,,,,,
,,,,,V3_092,19,F,2025-01-30_14h32.36.254,jersey_experiment_5_v3,2023.2.2,Win32,85.47008547,,,,,,,,,,,,,,,,303.8393,305.3863,305.3863,306.4627,return,0.17,,66.14583333,,,,,,FBP-YG-19.png,0.4,1.2,13,0.75,0,37,37,12,1,,,,,,,,,,,,,,,,,,,,,,,,,,,,,,,,,,,,,,,,
,,,,,V3_092,19,F,2025-01-30_14h32.36.254,jersey_experiment_5_v3,2023.2.2,Win32,85.47008547,,,,,,,,,,,,,,,,306.463,307.7628,307.7628,308.7981,return,0.156,,45.05208333,,,,,,FBP-OG-81.png,0.35,1.2,36,0.5,0,38,38,35,1,,,,,,,,,,,,,,,,,,,,,,,,,,,,,,,,,,,,,,,,
,,,,,V3_092,19,F,2025-01-30_14h32.36.254,jersey_experiment_5_v3,2023.2.2,Win32,85.47008547,,,,,,,,,,,,,,,,308.7983,310.3512,310.3512,311.3484,return,0.1886,,75.52083333,,,,,,FBP-RB-71.png,0.45,1.2,50,0.75,0,39,39,49,1,,,,,,,,,,,,,,,,,,,,,,,,,,,,,,,,,,,,,,,,
,,,,,V3_092,19,F,2025-01-30_14h32.36.254,jersey_experiment_5_v3,2023.2.2,Win32,85.47008547,,,,,,,,,,,,,,,,311.3486,312.9017,312.9017,313.7953,return,0.2927,,91.27604167,,,,,,FBP-YG-18.png,0.45,1.2,10,0.75,0,40,40,9,1,,,,,,,,,,,,,,,,,,,,,,,,,,,,,,,,,,,,,,,,
,,,,,V3_092,19,F,2025-01-30_14h32.36.254,jersey_experiment_5_v3,2023.2.2,Win32,85.47008547,,,,,,,,,,,,,,,,313.7955,315.3402,315.3403,316.4459,return,0.2506,,95.18229167,,,,,,FBP-RB-81.png,0.45,1.2,55,0.75,0,41,41,54,1,,,,,,,,,,,,,,,,,,,,,,,,,,,,,,,,,,,,,,,,
,,,,,V3_092,19,F,2025-01-30_14h32.36.254,jersey_experiment_5_v3,2023.2.2,Win32,85.47008547,,,,,,,,,,,,,,,,316.446,317.9984,317.9984,318.9398,return,0.2266,,50,,,,,,FBP-PT-91.png,0.37,1.2,27,0.75,0,42,42,26,1,,,,,,,,,,,,,,,,,,,,,,,,,,,,,,,,,,,,,,,,
,,,,,V3_092,19,F,2025-01-30_14h32.36.254,jersey_experiment_5_v3,2023.2.2,Win32,85.47008547,,,,,,,,,,,,,,,,318.94,320.2428,320.2428,321.4397,return,0.1192,,45.96354167,,,,,,FBP-OG-71.png,0.4,1.2,33,0.5,0,43,43,32,1,,,,,,,,,,,,,,,,,,,,,,,,,,,,,,,,,,,,,,,,
,,,,,V3_092,19,F,2025-01-30_14h32.36.254,jersey_experiment_5_v3,2023.2.2,Win32,85.47008547,,,,,,,,,,,,,,,,321.44,322.9871,322.9873,323.693,return,0.2266,,37.890625,,,,,,FBP-YG-19.png,0.35,1.2,11,0.75,0,44,44,10,1,,,,,,,,,,,,,,,,,,,,,,,,,,,,,,,,,,,,,,,,
,,,,,V3_092,19,F,2025-01-30_14h32.36.254,jersey_experiment_5_v3,2023.2.2,Win32,85.47008547,,,,,,,,,,,,,,,,323.6931,325.24,325.24,326.2516,return,0.1815,,32.16145833,,,,,,FBP-RB-81.png,0.37,1.2,52,0.75,0,45,45,51,1,,,,,,,,,,,,,,,,,,,,,,,,,,,,,,,,,,,,,,,,
,,,,,V3_092,19,F,2025-01-30_14h32.36.254,jersey_experiment_5_v3,2023.2.2,Win32,85.47008547,,,,,,,,,,,,,,,,326.2519,327.7958,327.7958,328.8636,return,0.2013,,34.11458333,,,,,,FBP-PT-91.png,0.4,1.2,28,0.75,0,46,46,27,1,,,,,,,,,,,,,,,,,,,,,,,,,,,,,,,,,,,,,,,,
,,,,,V3_092,19,F,2025-01-30_14h32.36.254,jersey_experiment_5_v3,2023.2.2,Win32,85.47008547,,,,,,,,,,,,,,,,328.8638,330.4081,330.4082,331.4199,return,0.1973,,60.9375,,,,,,FBP-RB-91.png,0.43,1.2,59,0.75,0,47,47,58,1,,,,,,,,,,,,,,,,,,,,,,,,,,,,,,,,,,,,,,,,
,,,,,V3_092,19,F,2025-01-30_14h32.36.254,jersey_experiment_5_v3,2023.2.2,Win32,85.47008547,,,,,,,,,,,,,,,,331.42,332.9725,332.9726,334.0285,return,0.1473,,65.10416667,,,,,,FBP-PT-71.png,0.43,1.2,19,0.75,0,48,48,18,1,,,,,,,,,,,,,,,,,,,,,,,,,,,,,,,,,,,,,,,,
,,,,,V3_092,19,F,2025-01-30_14h32.36.254,jersey_experiment_5_v3,2023.2.2,Win32,85.47008547,,,,,,,,,,,,,,,,334.0287,335.5759,335.5759,337.2698,return,0.5559,,29.6875,,,,,,FBP-YG-17.png,0.35,1.2,1,0.75,0,49,49,0,1,,,,,,,,,,,,,,,,,,,,,,,,,,,,,,,,,,,,,,,,
,,,,,V3_092,19,F,2025-01-30_14h32.36.254,jersey_experiment_5_v3,2023.2.2,Win32,85.47008547,,,,,,,,,,,,,,,,337.27,338.8232,338.8233,339.7494,return,0.1501,,64.0625,,,,,,FBP-RB-81.png,0.4,1.2,53,0.75,0,50,50,52,1,,,,,,,,,,,,,,,,,,,,,,,,,,,,,,,,,,,,,,,,
,,,,,V3_092,19,F,2025-01-30_14h32.36.254,jersey_experiment_5_v3,2023.2.2,Win32,85.47008547,,,,,,,,,,,,,,,,339.7495,341.2943,341.2944,342.447,return,0.156,,36.97916667,,,,,,FBP-RB-91.png,0.37,1.2,57,0.75,0,51,51,56,1,,,,,,,,,,,,,,,,,,,,,,,,,,,,,,,,,,,,,,,,
,,,,,V3_092,19,F,2025-01-30_14h32.36.254,jersey_experiment_5_v3,2023.2.2,Win32,85.47008547,,,,,,,,,,,,,,,,342.4472,343.9995,343.9995,344.9881,return,0.212,,27.60416667,,,,,,FBP-RB-71.png,0.35,1.2,46,0.75,0,52,52,45,1,,,,,,,,,,,,,,,,,,,,,,,,,,,,,,,,,,,,,,,,
,,,,,V3_092,19,F,2025-01-30_14h32.36.254,jersey_experiment_5_v3,2023.2.2,Win32,85.47008547,,,,,,,,,,,,,,,,344.9884,346.282,346.282,347.3176,return,0.1561,,24.34895833,,,,,,FBP-OG-91.png,0.35,1.2,41,0.5,0,53,53,40,1,,,,,,,,,,,,,,,,,,,,,,,,,,,,,,,,,,,,,,,,
,,,,,V3_092,19,F,2025-01-30_14h32.36.254,jersey_experiment_5_v3,2023.2.2,Win32,85.47008547,,,,,,,,,,,,,,,,347.3178,348.8642,348.8642,349.9151,return,0.1655,,20.57291667,,,,,,FBP-YG-18.png,0.35,1.2,6,0.75,0,54,54,5,1,,,,,,,,,,,,,,,,,,,,,,,,,,,,,,,,,,,,,,,,
,,,,,V3_092,19,F,2025-01-30_14h32.36.254,jersey_experiment_5_v3,2023.2.2,Win32,85.47008547,,,,,,,,,,,,,,,,349.9153,351.4677,351.4677,352.4468,return,0.1646,,74.08854167,,,,,,FBP-PT-81.png,0.43,1.2,24,0.75,0,55,55,23,1,,,,,,,,,,,,,,,,,,,,,,,,,,,,,,,,,,,,,,,,
,,,,,V3_092,19,F,2025-01-30_14h32.36.254,jersey_experiment_5_v3,2023.2.2,Win32,85.47008547,,,,,,,,,,,,,,,,352.4469,354.0003,354.0003,354.8795,return,0.165,,81.640625,,,,,,FBP-PT-91.png,0.45,1.2,30,0.75,0,56,56,29,1,,,,,,,,,,,,,,,,,,,,,,,,,,,,,,,,,,,,,,,,
,,,,,V3_092,19,F,2025-01-30_14h32.36.254,jersey_experiment_5_v3,2023.2.2,Win32,85.47008547,,,,,,,,,,,,,,,,354.8797,356.4238,356.4238,357.2176,return,0.1754,,87.63020833,,,,,,FBP-YG-19.png,0.43,1.2,14,0.75,0,57,57,13,1,,,,,,,,,,,,,,,,,,,,,,,,,,,,,,,,,,,,,,,,
,,,,,V3_092,19,F,2025-01-30_14h32.36.254,jersey_experiment_5_v3,2023.2.2,Win32,85.47008547,,,,,,,,,,,,,,,,357.2179,358.7618,358.7619,359.8341,return,0.234,,79.55729167,,,,,,FBP-RB-91.png,0.4,1.2,58,0.75,0,58,58,57,1,,,,,,,,,,,,,,,,,,,,,,,,,,,,,,,,,,,,,,,,
,,,,,V3_092,19,F,2025-01-30_14h32.36.254,jersey_experiment_5_v3,2023.2.2,Win32,85.47008547,,,,,,,,,,,,,,,,359.8344,361.3886,361.3886,362.315,return,0.212,,92.70833333,,,,,,FBP-PT-71.png,0.45,1.2,20,0.75,0,59,59,19,1,,,,,,,,,,,,,,,,,,,,,,,,,,,,,,,,,,,,,,,,
,,,,,V3_092,19,F,2025-01-30_14h32.36.254,jersey_experiment_5_v3,2023.2.2,Win32,85.47008547,,,,,,,,,,,,,,,,,,,,,,,,,,,,,,,,,,,,,,,362.315,482.3164,,,,,,,,,,,,,,,,,,,,,,,,,,,,,,,,,,,,,,
,,,,,V3_092,19,F,2025-01-30_14h32.36.254,jersey_experiment_5_v3,2023.2.2,Win32,85.47008547,,,,,,,,,,,,,,,,,,,,,,,,,,,,,,,,,,,,,,,,,482.3165,503.7235,return,21.3888,,,,,,,,,,,,,,,,,,,,,,,,,,,,,,,,,,
,,,,,V3_092,19,F,2025-01-30_14h32.36.254,jersey_experiment_5_v3,2023.2.2,Win32,85.47008547,,,,,,,,,,,,,,,,503.7247,505.0177,505.0177,510.5323,return,4.2208,,55.078125,,,,,,FBP-PT-17.png,0.43,1.2,19,0.5,,,,,,,,,,,,,0,0,0,18,1,,,,,,,,,,,,,,,,,,,,,,,,,,,,
,,,,,V3_092,19,F,2025-01-30_14h32.36.254,jersey_experiment_5_v3,2023.2.2,Win32,85.47008547,,,,,,,,,,,,,,,,510.5324,511.8264,511.8264,512.9003,return,0.274,,71.35416667,,,,,,FBP-RB-17.png,0.45,1.2,50,0.5,,,,,,,,,,,,,0,1,1,49,1,,,,,,,,,,,,,,,,,,,,,,,,,,,,
,,,,,V3_092,19,F,2025-01-30_14h32.36.254,jersey_experiment_5_v3,2023.2.2,Win32,85.47008547,,,,,,,,,,,,,,,,512.9005,514.2031,514.2031,515.0418,return,0.2591,,76.953125,,,,,,FBP-YG-81.png,0.43,1.2,9,0.5,,,,,,,,,,,,,0,2,2,8,1,,,,,,,,,,,,,,,,,,,,,,,,,,,,
,,,,,V3_092,19,F,2025-01-30_14h32.36.254,jersey_experiment_5_v3,2023.2.2,Win32,85.47008547,,,,,,,,,,,,,,,,515.0419,516.3353,516.3353,517.5359,return,0.2272,,32.94270833,,,,,,FBP-PT-17.png,0.35,1.2,16,0.5,,,,,,,,,,,,,0,3,3,15,1,,,,,,,,,,,,,,,,,,,,,,,,,,,,
,,,,,V3_092,19,F,2025-01-30_14h32.36.254,jersey_experiment_5_v3,2023.2.2,Win32,85.47008547,,,,,,,,,,,,,,,,517.5361,518.8295,518.8295,519.8267,return,0.1885,,30.859375,,,,,,FBP-YG-71.png,0.37,1.2,2,0.5,,,,,,,,,,,,,0,4,4,1,1,,,,,,,,,,,,,,,,,,,,,,,,,,,,
,,,,,V3_092,19,F,2025-01-30_14h32.36.254,jersey_experiment_5_v3,2023.2.2,Win32,85.47008547,,,,,,,,,,,,,,,,519.8269,521.1205,521.1206,522.2655,return,0.2979,,78.90625,,,,,,FBP-YG-71.png,0.45,1.2,5,0.5,,,,,,,,,,,,,0,5,5,4,1,,,,,,,,,,,,,,,,,,,,,,,,,,,,
,,,,,V3_092,19,F,2025-01-30_14h32.36.254,jersey_experiment_5_v3,2023.2.2,Win32,85.47008547,,,,,,,,,,,,,,,,522.2656,523.8182,523.8182,524.7129,return,0.2593,,79.296875,,,,,,FBP-OG-18.png,0.43,1.2,39,0.75,,,,,,,,,,,,,0,6,6,38,1,,,,,,,,,,,,,,,,,,,,,,,,,,,,
,,,,,V3_092,19,F,2025-01-30_14h32.36.254,jersey_experiment_5_v3,2023.2.2,Win32,85.47008547,,,,,,,,,,,,,,,,524.7131,526.015,526.0151,527.0034,return,0.2204,,85.41666667,,,,,,FBP-YG-91.png,0.45,1.2,15,0.5,,,,,,,,,,,,,0,7,7,14,1,,,,,,,,,,,,,,,,,,,,,,,,,,,,
,,,,,V3_092,19,F,2025-01-30_14h32.36.254,jersey_experiment_5_v3,2023.2.2,Win32,85.47008547,,,,,,,,,,,,,,,,527.0036,528.3125,528.3125,529.3482,return,0.1565,,87.5,,,,,,FBP-RB-18.png,0.4,1.2,53,0.5,,,,,,,,,,,,,0,8,8,52,1,,,,,,,,,,,,,,,,,,,,,,,,,,,,
,,,,,V3_092,19,F,2025-01-30_14h32.36.254,jersey_experiment_5_v3,2023.2.2,Win32,85.47008547,,,,,,,,,,,,,,,,529.3484,530.6419,530.642,531.6626,return,0.1884,,82.29166667,,,,,,FBP-PT-18.png,0.43,1.2,24,0.5,,,,,,,,,,,,,0,9,9,23,1,,,,,,,,,,,,,,,,,,,,,,,,,,,,
,,,,,V3_092,19,F,2025-01-30_14h32.36.254,jersey_experiment_5_v3,2023.2.2,Win32,85.47008547,,,,,,,,,,,,,,,,531.6627,532.9713,532.9713,534.0542,return,0.1888,,78.38541667,,,,,,FBP-PT-19.png,0.43,1.2,29,0.5,,,,,,,,,,,,,0,10,10,28,1,,,,,,,,,,,,,,,,,,,,,,,,,,,,
,,,,,V3_092,19,F,2025-01-30_14h32.36.254,jersey_experiment_5_v3,2023.2.2,Win32,85.47008547,,,,,,,,,,,,,,,,534.0544,535.3474,535.3474,536.2745,return,0.165,,49.21875,,,,,,FBP-PT-17.png,0.37,1.2,17,0.5,,,,,,,,,,,,,0,11,11,16,1,,,,,,,,,,,,,,,,,,,,,,,,,,,,
,,,,,V3_092,19,F,2025-01-30_14h32.36.254,jersey_experiment_5_v3,2023.2.2,Win32,85.47008547,,,,,,,,,,,,,,,,536.2746,537.5685,537.5686,538.3215,return,0.1974,,45.44270833,,,,,,FBP-RB-18.png,0.37,1.2,52,0.5,,,,,,,,,,,,,0,12,12,51,1,,,,,,,,,,,,,,,,,,,,,,,,,,,,
,,,,,V3_092,19,F,2025-01-30_14h32.36.254,jersey_experiment_5_v3,2023.2.2,Win32,85.47008547,,,,,,,,,,,,,,,,538.3217,539.8661,539.8661,540.5569,return,0.1734,,62.63020833,,,,,,FBP-OG-17.png,0.43,1.2,34,0.75,,,,,,,,,,,,,0,13,13,33,1,,,,,,,,,,,,,,,,,,,,,,,,,,,,
,,,,,V3_092,19,F,2025-01-30_14h32.36.254,jersey_experiment_5_v3,2023.2.2,Win32,85.47008547,,,,,,,,,,,,,,,,540.557,541.851,541.8511,542.8481,return,0.1923,,36.71875,,,,,,FBP-YG-71.png,0.35,1.2,1,0.5,,,,,,,,,,,,,0,14,14,0,1,,,,,,,,,,,,,,,,,,,,,,,,,,,,
,,,,,V3_092,19,F,2025-01-30_14h32.36.254,jersey_experiment_5_v3,2023.2.2,Win32,85.47008547,,,,,,,,,,,,,,,,542.8482,544.4013,544.4013,545.041,return,0.1869,,38.28125,,,,,,FBP-OG-19.png,0.37,1.2,42,0.75,,,,,,,,,,,,,0,15,15,41,1,,,,,,,,,,,,,,,,,,,,,,,,,,,,
,,,,,V3_092,19,F,2025-01-30_14h32.36.254,jersey_experiment_5_v3,2023.2.2,Win32,85.47008547,,,,,,,,,,,,,,,,545.0413,546.3453,546.3453,547.3571,return,0.1413,,77.99479167,,,,,,FBP-RB-18.png,0.45,1.2,55,0.5,,,,,,,,,,,,,0,16,16,54,1,,,,,,,,,,,,,,,,,,,,,,,,,,,,
,,,,,V3_092,19,F,2025-01-30_14h32.36.254,jersey_experiment_5_v3,2023.2.2,Win32,85.47008547,,,,,,,,,,,,,,,,547.3572,548.9017,548.9017,549.6399,return,0.2205,,80.859375,,,,,,FBP-OG-18.png,0.45,1.2,40,0.75,,,,,,,,,,,,,0,17,17,39,1,,,,,,,,,,,,,,,,,,,,,,,,,,,,
,,,,,V3_092,19,F,2025-01-30_14h32.36.254,jersey_experiment_5_v3,2023.2.2,Win32,85.47008547,,,,,,,,,,,,,,,,549.64,550.9337,550.9337,552.1234,return,0.1762,,70.83333333,,,,,,FBP-YG-81.png,0.4,1.2,8,0.5,,,,,,,,,,,,,0,18,18,7,1,,,,,,,,,,,,,,,,,,,,,,,,,,,,
,,,,,V3_092,19,F,2025-01-30_14h32.36.254,jersey_experiment_5_v3,2023.2.2,Win32,85.47008547,,,,,,,,,,,,,,,,552.1235,553.4195,553.4195,554.5575,return,0.2673,,31.77083333,,,,,,FBP-RB-17.png,0.35,1.2,46,0.5,,,,,,,,,,,,,0,19,19,45,1,,,,,,,,,,,,,,,,,,,,,,,,,,,,
,,,,,V3_092,19,F,2025-01-30_14h32.36.254,jersey_experiment_5_v3,2023.2.2,Win32,85.47008547,,,,,,,,,,,,,,,,554.5576,555.8665,555.8665,556.8634,return,0.212,,83.33333333,,,,,,FBP-YG-71.png,0.43,1.2,4,0.5,,,,,,,,,,,,,0,20,20,3,1,,,,,,,,,,,,,,,,,,,,,,,,,,,,
,,,,,V3_092,19,F,2025-01-30_14h32.36.254,jersey_experiment_5_v3,2023.2.2,Win32,85.47008547,,,,,,,,,,,,,,,,556.8636,558.1721,558.1722,559.2133,return,0.2068,,49.86979167,,,,,,FBP-PT-17.png,0.4,1.2,18,0.5,,,,,,,,,,,,,0,21,21,17,1,,,,,,,,,,,,,,,,,,,,,,,,,,,,
,,,,,V3_092,19,F,2025-01-30_14h32.36.254,jersey_experiment_5_v3,2023.2.2,Win32,85.47008547,,,,,,,,,,,,,,,,559.2135,560.5076,560.5076,561.3729,return,0.3062,,40.10416667,,,,,,FBP-YG-91.png,0.35,1.2,11,0.5,,,,,,,,,,,,,0,22,22,10,1,,,,,,,,,,,,,,,,,,,,,,,,,,,,
,,,,,V3_092,19,F,2025-01-30_14h32.36.254,jersey_experiment_5_v3,2023.2.2,Win32,85.47008547,,,,,,,,,,,,,,,,561.373,562.6668,562.6668,563.6636,return,0.2824,,32.03125,,,,,,FBP-RB-18.png,0.35,1.2,51,0.5,,,,,,,,,,,,,0,23,23,50,1,,,,,,,,,,,,,,,,,,,,,,,,,,,,
,,,,,V3_092,19,F,2025-01-30_14h32.36.254,jersey_experiment_5_v3,2023.2.2,Win32,85.47008547,,,,,,,,,,,,,,,,563.6638,564.9725,564.9726,566.0087,return,0.2042,,71.875,,,,,,FBP-PT-17.png,0.45,1.2,20,0.5,,,,,,,,,,,,,0,24,24,19,1,,,,,,,,,,,,,,,,,,,,,,,,,,,,
,,,,,V3_092,19,F,2025-01-30_14h32.36.254,jersey_experiment_5_v3,2023.2.2,Win32,85.47008547,,,,,,,,,,,,,,,,566.0089,567.3019,567.3019,568.3226,return,0.165,,34.89583333,,,,,,FBP-YG-81.png,0.35,1.2,6,0.5,,,,,,,,,,,,,0,25,25,5,1,,,,,,,,,,,,,,,,,,,,,,,,,,,,
,,,,,V3_092,19,F,2025-01-30_14h32.36.254,jersey_experiment_5_v3,2023.2.2,Win32,85.47008547,,,,,,,,,,,,,,,,568.3227,569.6168,569.6168,570.6053,return,0.2208,,87.36979167,,,,,,FBP-YG-81.png,0.45,1.2,10,0.5,,,,,,,,,,,,,0,26,26,9,1,,,,,,,,,,,,,,,,,,,,,,,,,,,,
,,,,,V3_092,19,F,2025-01-30_14h32.36.254,jersey_experiment_5_v3,2023.2.2,Win32,85.47008547,,,,,,,,,,,,,,,,570.6055,571.8997,571.8997,572.9493,return,0.1648,,49.34895833,,,,,,FBP-YG-71.png,0.4,1.2,3,0.5,,,,,,,,,,,,,0,27,27,2,1,,,,,,,,,,,,,,,,,,,,,,,,,,,,
,,,,,V3_092,19,F,2025-01-30_14h32.36.254,jersey_experiment_5_v3,2023.2.2,Win32,85.47008547,,,,,,,,,,,,,,,,572.9495,574.2432,574.2432,575.2792,return,0.2121,,32.55208333,,,,,,FBP-RB-19.png,0.35,1.2,56,0.5,,,,,,,,,,,,,0,28,28,55,1,,,,,,,,,,,,,,,,,,,,,,,,,,,,
,,,,,V3_092,19,F,2025-01-30_14h32.36.254,jersey_experiment_5_v3,2023.2.2,Win32,85.47008547,,,,,,,,,,,,,,,,575.2793,576.5732,576.5732,577.8674,return,0.18,,50.13020833,,,,,,FBP-YG-91.png,0.37,1.2,12,0.5,,,,,,,,,,,,,0,29,29,11,1,,,,,,,,,,,,,,,,,,,,,,,,,,,,
,,,,,V3_092,19,F,2025-01-30_14h32.36.254,jersey_experiment_5_v3,2023.2.2,Win32,85.47008547,,,,,,,,,,,,,,,,577.8676,579.1612,579.1613,580.1035,return,0.1797,,71.09375,,,,,,FBP-PT-19.png,0.4,1.2,28,0.5,,,,,,,,,,,,,0,30,30,27,1,,,,,,,,,,,,,,,,,,,,,,,,,,,,
,,,,,V3_092,19,F,2025-01-30_14h32.36.254,jersey_experiment_5_v3,2023.2.2,Win32,85.47008547,,,,,,,,,,,,,,,,580.1036,581.6558,581.6558,582.4643,return,0.1971,,88.93229167,,,,,,FBP-OG-17.png,0.45,1.2,35,0.75,,,,,,,,,,,,,0,31,31,34,1,,,,,,,,,,,,,,,,,,,,,,,,,,,,
,,,,,V3_092,19,F,2025-01-30_14h32.36.254,jersey_experiment_5_v3,2023.2.2,Win32,85.47008547,,,,,,,,,,,,,,,,582.4644,583.7582,583.7583,584.903,return,0.2032,,92.83854167,,,,,,FBP-PT-18.png,0.45,1.2,25,0.5,,,,,,,,,,,,,0,32,32,24,1,,,,,,,,,,,,,,,,,,,,,,,,,,,,
,,,,,V3_092,19,F,2025-01-30_14h32.36.254,jersey_experiment_5_v3,2023.2.2,Win32,85.47008547,,,,,,,,,,,,,,,,584.9033,586.1972,586.1973,587.2169,return,0.1879,,88.54166667,,,,,,FBP-YG-91.png,0.43,1.2,14,0.5,,,,,,,,,,,,,0,33,33,13,1,,,,,,,,,,,,,,,,,,,,,,,,,,,,
,,,,,V3_092,19,F,2025-01-30_14h32.36.254,jersey_experiment_5_v3,2023.2.2,Win32,85.47008547,,,,,,,,,,,,,,,,587.217,588.5117,588.5117,589.4851,return,0.1569,,82.421875,,,,,,FBP-RB-17.png,0.43,1.2,49,0.5,,,,,,,,,,,,,0,34,34,48,1,,,,,,,,,,,,,,,,,,,,,,,,,,,,
,,,,,V3_092,19,F,2025-01-30_14h32.36.254,jersey_experiment_5_v3,2023.2.2,Win32,85.47008547,,,,,,,,,,,,,,,,589.4853,591.0441,591.0442,591.6028,return,0.1192,,77.99479167,,,,,,FBP-OG-19.png,0.4,1.2,43,0.75,,,,,,,,,,,,,0,35,35,42,1,,,,,,,,,,,,,,,,,,,,,,,,,,,,
,,,,,V3_092,19,F,2025-01-30_14h32.36.254,jersey_experiment_5_v3,2023.2.2,Win32,85.47008547,,,,,,,,,,,,,,,,591.6031,592.9029,592.9029,593.6501,return,0.1667,,72.52604167,,,,,,FBP-PT-18.png,0.4,1.2,23,0.5,,,,,,,,,,,,,0,36,36,22,1,,,,,,,,,,,,,,,,,,,,,,,,,,,,
,,,,,V3_092,19,F,2025-01-30_14h32.36.254,jersey_experiment_5_v3,2023.2.2,Win32,85.47008547,,,,,,,,,,,,,,,,593.6503,595.1942,595.1942,595.8383,return,0.1705,,65.234375,,,,,,FBP-OG-18.png,0.4,1.2,38,0.75,,,,,,,,,,,,,0,37,37,37,1,,,,,,,,,,,,,,,,,,,,,,,,,,,,
,,,,,V3_092,19,F,2025-01-30_14h32.36.254,jersey_experiment_5_v3,2023.2.2,Win32,85.47008547,,,,,,,,,,,,,,,,595.8386,597.3824,597.3824,599.0537,return,1.1857,,41.40625,,,,,,FBP-OG-17.png,0.37,1.2,32,0.75,,,,,,,,,,,,,0,38,38,31,1,,,,,,,,,,,,,,,,,,,,,,,,,,,,
,,,,,V3_092,19,F,2025-01-30_14h32.36.254,jersey_experiment_5_v3,2023.2.2,Win32,85.47008547,,,,,,,,,,,,,,,,599.0538,600.5976,600.5976,601.586,return,0.2977,,27.86458333,,,,,,FBP-OG-19.png,0.35,1.2,41,0.75,,,,,,,,,,,,,0,39,39,40,1,,,,,,,,,,,,,,,,,,,,,,,,,,,,
,,,,,V3_092,19,F,2025-01-30_14h32.36.254,jersey_experiment_5_v3,2023.2.2,Win32,85.47008547,,,,,,,,,,,,,,,,601.5861,603.139,603.139,604.8621,return,1.0531,,69.79166667,,,,,,FBP-OG-19.png,0.43,1.2,44,0.75,,,,,,,,,,,,,0,40,40,43,1,,,,,,,,,,,,,,,,,,,,,,,,,,,,
,,,,,V3_092,19,F,2025-01-30_14h32.36.254,jersey_experiment_5_v3,2023.2.2,Win32,85.47008547,,,,,,,,,,,,,,,,604.8623,606.4095,606.4096,607.4541,return,0.1767,,44.27083333,,,,,,FBP-OG-18.png,0.35,1.2,36,0.75,,,,,,,,,,,,,0,41,41,35,1,,,,,,,,,,,,,,,,,,,,,,,,,,,,
,,,,,V3_092,19,F,2025-01-30_14h32.36.254,jersey_experiment_5_v3,2023.2.2,Win32,85.47008547,,,,,,,,,,,,,,,,607.4543,608.7477,608.7477,609.9008,return,0.2118,,83.203125,,,,,,FBP-RB-19.png,0.45,1.2,60,0.5,,,,,,,,,,,,,0,42,42,59,1,,,,,,,,,,,,,,,,,,,,,,,,,,,,
,,,,,V3_092,19,F,2025-01-30_14h32.36.254,jersey_experiment_5_v3,2023.2.2,Win32,85.47008547,,,,,,,,,,,,,,,,609.901,611.2095,611.2095,612.3246,return,0.2593,,84.24479167,,,,,,FBP-PT-19.png,0.45,1.2,30,0.5,,,,,,,,,,,,,0,43,43,29,1,,,,,,,,,,,,,,,,,,,,,,,,,,,,
,,,,,V3_092,19,F,2025-01-30_14h32.36.254,jersey_experiment_5_v3,2023.2.2,Win32,85.47008547,,,,,,,,,,,,,,,,612.3248,613.6271,613.6272,614.81,return,0.2503,,78.64583333,,,,,,FBP-RB-18.png,0.43,1.2,54,0.5,,,,,,,,,,,,,0,44,44,53,1,,,,,,,,,,,,,,,,,,,,,,,,,,,,
,,,,,V3_092,19,F,2025-01-30_14h32.36.254,jersey_experiment_5_v3,2023.2.2,Win32,85.47008547,,,,,,,,,,,,,,,,614.8102,616.1039,616.1039,617.469,return,0.1885,,75,,,,,,FBP-YG-91.png,0.4,1.2,13,0.5,,,,,,,,,,,,,0,45,45,12,1,,,,,,,,,,,,,,,,,,,,,,,,,,,,
,,,,,V3_092,19,F,2025-01-30_14h32.36.254,jersey_experiment_5_v3,2023.2.2,Win32,85.47008547,,,,,,,,,,,,,,,,617.4691,618.7627,618.7627,621.1804,return,1.5603,,54.42708333,,,,,,FBP-PT-19.png,0.37,1.2,27,0.5,,,,,,,,,,,,,0,46,46,26,1,,,,,,,,,,,,,,,,,,,,,,,,,,,,
,,,,,V3_092,19,F,2025-01-30_14h32.36.254,jersey_experiment_5_v3,2023.2.2,Win32,85.47008547,,,,,,,,,,,,,,,,621.1806,622.4746,622.4746,623.7601,return,0.2353,,30.46875,,,,,,FBP-PT-18.png,0.35,1.2,21,0.5,,,,,,,,,,,,,0,47,47,20,1,,,,,,,,,,,,,,,,,,,,,,,,,,,,
,,,,,V3_092,19,F,2025-01-30_14h32.36.254,jersey_experiment_5_v3,2023.2.2,Win32,85.47008547,,,,,,,,,,,,,,,,623.7603,625.3045,625.3045,626.3483,return,0.2119,,30.59895833,,,,,,FBP-OG-18.png,0.37,1.2,37,0.75,,,,,,,,,,,,,0,48,48,36,1,,,,,,,,,,,,,,,,,,,,,,,,,,,,
,,,,,V3_092,19,F,2025-01-30_14h32.36.254,jersey_experiment_5_v3,2023.2.2,Win32,85.47008547,,,,,,,,,,,,,,,,626.3485,627.6513,627.6513,628.9132,return,0.1259,,27.08333333,,,,,,FBP-RB-17.png,0.37,1.2,47,0.5,,,,,,,,,,,,,0,49,49,46,1,,,,,,,,,,,,,,,,,,,,,,,,,,,,
,,,,,V3_092,19,F,2025-01-30_14h32.36.254,jersey_experiment_5_v3,2023.2.2,Win32,85.47008547,,,,,,,,,,,,,,,,628.9133,630.2075,630.2075,631.149,return,0.1415,,50.78125,,,,,,FBP-RB-17.png,0.4,1.2,48,0.5,,,,,,,,,,,,,0,50,50,47,1,,,,,,,,,,,,,,,,,,,,,,,,,,,,
,,,,,V3_092,19,F,2025-01-30_14h32.36.254,jersey_experiment_5_v3,2023.2.2,Win32,85.47008547,,,,,,,,,,,,,,,,631.1491,632.4428,632.4428,633.3281,return,0.1561,,70.44270833,,,,,,FBP-RB-19.png,0.43,1.2,59,0.5,,,,,,,,,,,,,0,51,51,58,1,,,,,,,,,,,,,,,,,,,,,,,,,,,,
,,,,,V3_092,19,F,2025-01-30_14h32.36.254,jersey_experiment_5_v3,2023.2.2,Win32,85.47008547,,,,,,,,,,,,,,,,633.3283,634.6313,634.6313,635.5873,return,0.2036,,44.140625,,,,,,FBP-PT-19.png,0.35,1.2,26,0.5,,,,,,,,,,,,,0,52,52,25,1,,,,,,,,,,,,,,,,,,,,,,,,,,,,
,,,,,V3_092,19,F,2025-01-30_14h32.36.254,jersey_experiment_5_v3,2023.2.2,Win32,85.47008547,,,,,,,,,,,,,,,,635.5874,636.8868,636.8869,638.4342,return,0.2032,,46.74479167,,,,,,FBP-RB-19.png,0.37,1.2,57,0.5,,,,,,,,,,,,,0,53,53,56,1,,,,,,,,,,,,,,,,,,,,,,,,,,,,
,,,,,V3_092,19,F,2025-01-30_14h32.36.254,jersey_experiment_5_v3,2023.2.2,Win32,85.47008547,,,,,,,,,,,,,,,,638.4343,639.7284,639.7284,641.4079,return,0.1501,,44.27083333,,,,,,FBP-YG-81.png,0.37,1.2,7,0.5,,,,,,,,,,,,,0,54,54,6,1,,,,,,,,,,,,,,,,,,,,,,,,,,,,
,,,,,V3_092,19,F,2025-01-30_14h32.36.254,jersey_experiment_5_v3,2023.2.2,Win32,85.47008547,,,,,,,,,,,,,,,,641.4081,642.9521,642.9521,643.9167,return,0.1795,,74.08854167,,,,,,FBP-OG-19.png,0.45,1.2,45,0.75,,,,,,,,,,,,,0,55,55,44,1,,,,,,,,,,,,,,,,,,,,,,,,,,,,
,,,,,V3_092,19,F,2025-01-30_14h32.36.254,jersey_experiment_5_v3,2023.2.2,Win32,85.47008547,,,,,,,,,,,,,,,,643.9168,645.4698,645.4698,646.5052,return,0.368,,63.671875,,,,,,FBP-OG-17.png,0.4,1.2,33,0.75,,,,,,,,,,,,,0,56,56,32,1,,,,,,,,,,,,,,,,,,,,,,,,,,,,
,,,,,V3_092,19,F,2025-01-30_14h32.36.254,jersey_experiment_5_v3,2023.2.2,Win32,85.47008547,,,,,,,,,,,,,,,,646.5054,648.052,648.052,649.2285,return,0.3368,,23.69791667,,,,,,FBP-OG-17.png,0.35,1.2,31,0.75,,,,,,,,,,,,,0,57,57,30,1,,,,,,,,,,,,,,,,,,,,,,,,,,,,
,,,,,V3_092,19,F,2025-01-30_14h32.36.254,jersey_experiment_5_v3,2023.2.2,Win32,85.47008547,,,,,,,,,,,,,,,,649.2287,650.5286,650.5286,651.6434,return,0.1884,,17.96875,,,,,,FBP-PT-18.png,0.37,1.2,22,0.5,,,,,,,,,,,,,0,58,58,21,1,,,,,,,,,,,,,,,,,,,,,,,,,,,,
,,,,,V3_092,19,F,2025-01-30_14h32.36.254,jersey_experiment_5_v3,2023.2.2,Win32,85.47008547,,,,,,,,,,,,,,,,651.6434,652.9462,652.9462,654.1287,return,0.1887,,39.0625,,,,,,FBP-RB-19.png,0.4,1.2,58,0.5,,,,,,,,,,,,,0,59,59,57,1,,,,,,,,,,,,,,,,,,,,,,,,,,,,
,,,,,V3_092,19,F,2025-01-30_14h32.36.254,jersey_experiment_5_v3,2023.2.2,Win32,85.47008547,,,,,,,,,,,,,,,,654.1297,655.4233,655.4233,656.4438,return,0.165,,31.11979167,,,,,,FBP-RB-81.png,0.37,1.2,52,0.5,,,,,,,,,,,,,,,,,,0,0,0,51,1,,,,,,,,,,,,,,,,,,,,,,,
,,,,,V3_092,19,F,2025-01-30_14h32.36.254,jersey_experiment_5_v3,2023.2.2,Win32,85.47008547,,,,,,,,,,,,,,,,656.444,657.7371,657.7371,658.5851,return,0.1888,,33.203125,,,,,,FBP-RB-71.png,0.37,1.2,47,0.5,,,,,,,,,,,,,,,,,,0,1,1,46,1,,,,,,,,,,,,,,,,,,,,,,,
,,,,,V3_092,19,F,2025-01-30_14h32.36.254,jersey_experiment_5_v3,2023.2.2,Win32,85.47008547,,,,,,,,,,,,,,,,658.5853,659.8789,659.8789,661.3146,return,0.5651,,64.19270833,,,,,,FBP-PT-81.png,0.43,1.2,24,0.5,,,,,,,,,,,,,,,,,,0,2,2,23,1,,,,,,,,,,,,,,,,,,,,,,,
,,,,,V3_092,19,F,2025-01-30_14h32.36.254,jersey_experiment_5_v3,2023.2.2,Win32,85.47008547,,,,,,,,,,,,,,,,661.3147,662.8588,662.8589,663.6643,return,0.1667,,52.86458333,,,,,,FBP-OG-91.png,0.37,1.2,42,0.75,,,,,,,,,,,,,,,,,,0,3,3,41,1,,,,,,,,,,,,,,,,,,,,,,,
,,,,,V3_092,19,F,2025-01-30_14h32.36.254,jersey_experiment_5_v3,2023.2.2,Win32,85.47008547,,,,,,,,,,,,,,,,663.6646,664.9584,664.9584,666.5615,return,0.9179,,34.50520833,,,,,,FBP-PT-91.png,0.35,1.2,26,0.5,,,,,,,,,,,,,,,,,,0,4,4,25,1,,,,,,,,,,,,,,,,,,,,,,,
,,,,,V3_092,19,F,2025-01-30_14h32.36.254,jersey_experiment_5_v3,2023.2.2,Win32,85.47008547,,,,,,,,,,,,,,,,666.5617,668.1149,668.115,669.0237,return,0.2119,,33.59375,,,,,,FBP-OG-71.png,0.37,1.2,32,0.75,,,,,,,,,,,,,,,,,,0,5,5,31,1,,,,,,,,,,,,,,,,,,,,,,,
,,,,,V3_092,19,F,2025-01-30_14h32.36.254,jersey_experiment_5_v3,2023.2.2,Win32,85.47008547,,,,,,,,,,,,,,,,669.0239,670.3175,670.3176,671.3528,return,0.1796,,63.671875,,,,,,FBP-PT-81.png,0.4,1.2,23,0.5,,,,,,,,,,,,,,,,,,0,6,6,22,1,,,,,,,,,,,,,,,,,,,,,,,
,,,,,V3_092,19,F,2025-01-30_14h32.36.254,jersey_experiment_5_v3,2023.2.2,Win32,85.47008547,,,,,,,,,,,,,,,,671.3529,672.6559,672.6559,673.4474,return,0.2031,,64.84375,,,,,,FBP-RB-71.png,0.4,1.2,48,0.5,,,,,,,,,,,,,,,,,,0,7,7,47,1,,,,,,,,,,,,,,,,,,,,,,,
,,,,,V3_092,19,F,2025-01-30_14h32.36.254,jersey_experiment_5_v3,2023.2.2,Win32,85.47008547,,,,,,,,,,,,,,,,673.4475,674.7501,674.7501,675.6594,return,0.1885,,80.20833333,,,,,,FBP-RB-91.png,0.45,1.2,60,0.5,,,,,,,,,,,,,,,,,,0,8,8,59,1,,,,,,,,,,,,,,,,,,,,,,,
,,,,,V3_092,19,F,2025-01-30_14h32.36.254,jersey_experiment_5_v3,2023.2.2,Win32,85.47008547,,,,,,,,,,,,,,,,675.6596,676.9516,676.9516,677.8095,return,0.2122,,85.9375,,,,,,FBP-YG-18.png,0.45,1.2,10,0.5,,,,,,,,,,,,,,,,,,0,9,9,9,1,,,,,,,,,,,,,,,,,,,,,,,
,,,,,V3_092,19,F,2025-01-30_14h32.36.254,jersey_experiment_5_v3,2023.2.2,Win32,85.47008547,,,,,,,,,,,,,,,,677.8096,679.1179,679.1179,680.1237,return,0.2436,,54.81770833,,,,,,FBP-PT-71.png,0.37,1.2,17,0.5,,,,,,,,,,,,,,,,,,0,10,10,16,1,,,,,,,,,,,,,,,,,,,,,,,
,,,,,V3_092,19,F,2025-01-30_14h32.36.254,jersey_experiment_5_v3,2023.2.2,Win32,85.47008547,,,,,,,,,,,,,,,,680.1239,681.4242,681.4242,682.3033,return,0.1414,,32.16145833,,,,,,FBP-RB-81.png,0.35,1.2,51,0.5,,,,,,,,,,,,,,,,,,0,11,11,50,1,,,,,,,,,,,,,,,,,,,,,,,
,,,,,V3_092,19,F,2025-01-30_14h32.36.254,jersey_experiment_5_v3,2023.2.2,Win32,85.47008547,,,,,,,,,,,,,,,,682.3035,683.5976,683.5976,684.586,return,0.2592,,26.953125,,,,,,FBP-RB-91.png,0.35,1.2,56,0.5,,,,,,,,,,,,,,,,,,0,12,12,55,1,,,,,,,,,,,,,,,,,,,,,,,
,,,,,V3_092,19,F,2025-01-30_14h32.36.254,jersey_experiment_5_v3,2023.2.2,Win32,85.47008547,,,,,,,,,,,,,,,,684.5861,685.8947,685.8947,687.6127,return,0.165,,57.16145833,,,,,,FBP-PT-91.png,0.4,1.2,28,0.5,,,,,,,,,,,,,,,,,,0,13,13,27,1,,,,,,,,,,,,,,,,,,,,,,,
,,,,,V3_092,19,F,2025-01-30_14h32.36.254,jersey_experiment_5_v3,2023.2.2,Win32,85.47008547,,,,,,,,,,,,,,,,687.6129,688.9046,688.9047,690.1123,return,0.1901,,46.875,,,,,,FBP-PT-81.png,0.37,1.2,22,0.5,,,,,,,,,,,,,,,,,,0,14,14,21,1,,,,,,,,,,,,,,,,,,,,,,,
,,,,,V3_092,19,F,2025-01-30_14h32.36.254,jersey_experiment_5_v3,2023.2.2,Win32,85.47008547,,,,,,,,,,,,,,,,690.1125,691.4096,691.4096,692.3983,return,0.1654,,49.21875,,,,,,FBP-PT-91.png,0.37,1.2,27,0.5,,,,,,,,,,,,,,,,,,0,15,15,26,1,,,,,,,,,,,,,,,,,,,,,,,
,,,,,V3_092,19,F,2025-01-30_14h32.36.254,jersey_experiment_5_v3,2023.2.2,Win32,85.47008547,,,,,,,,,,,,,,,,692.3984,693.6922,693.6922,694.5126,return,0.1814,,68.88020833,,,,,,FBP-PT-71.png,0.43,1.2,19,0.5,,,,,,,,,,,,,,,,,,0,16,16,18,1,,,,,,,,,,,,,,,,,,,,,,,
,,,,,V3_092,19,F,2025-01-30_14h32.36.254,jersey_experiment_5_v3,2023.2.2,Win32,85.47008547,,,,,,,,,,,,,,,,694.5128,695.8098,695.8098,696.5289,return,0.1867,,91.796875,,,,,,FBP-PT-81.png,0.45,1.2,25,0.5,,,,,,,,,,,,,,,,,,0,17,17,24,1,,,,,,,,,,,,,,,,,,,,,,,
,,,,,V3_092,19,F,2025-01-30_14h32.36.254,jersey_experiment_5_v3,2023.2.2,Win32,85.47008547,,,,,,,,,,,,,,,,696.5291,698.0835,698.0835,699.1426,return,0.2976,,19.79166667,,,,,,FBP-OG-71.png,0.35,1.2,31,0.75,,,,,,,,,,,,,,,,,,0,18,18,30,1,,,,,,,,,,,,,,,,,,,,,,,
,,,,,V3_092,19,F,2025-01-30_14h32.36.254,jersey_experiment_5_v3,2023.2.2,Win32,85.47008547,,,,,,,,,,,,,,,,699.1429,700.4368,700.4368,701.4251,return,0.1095,,74.47916667,,,,,,FBP-YG-17.png,0.43,1.2,4,0.5,,,,,,,,,,,,,,,,,,0,19,19,3,1,,,,,,,,,,,,,,,,,,,,,,,
,,,,,V3_092,19,F,2025-01-30_14h32.36.254,jersey_experiment_5_v3,2023.2.2,Win32,85.47008547,,,,,,,,,,,,,,,,701.4252,702.7189,702.7189,703.6924,return,0.1649,,54.16666667,,,,,,FBP-YG-18.png,0.37,1.2,7,0.5,,,,,,,,,,,,,,,,,,0,20,20,6,1,,,,,,,,,,,,,,,,,,,,,,,
,,,,,V3_092,19,F,2025-01-30_14h32.36.254,jersey_experiment_5_v3,2023.2.2,Win32,85.47008547,,,,,,,,,,,,,,,,703.6926,704.9865,704.9865,706.1554,return,0.2279,,39.58333333,,,,,,FBP-PT-81.png,0.35,1.2,21,0.5,,,,,,,,,,,,,,,,,,0,21,21,20,1,,,,,,,,,,,,,,,,,,,,,,,
,,,,,V3_092,19,F,2025-01-30_14h32.36.254,jersey_experiment_5_v3,2023.2.2,Win32,85.47008547,,,,,,,,,,,,,,,,706.1555,707.4575,707.4575,708.5072,return,0.203,,53.77604167,,,,,,FBP-RB-91.png,0.37,1.2,57,0.5,,,,,,,,,,,,,,,,,,0,22,22,56,1,,,,,,,,,,,,,,,,,,,,,,,
,,,,,V3_092,19,F,2025-01-30_14h32.36.254,jersey_experiment_5_v3,2023.2.2,Win32,85.47008547,,,,,,,,,,,,,,,,708.5073,710.0601,710.0602,710.6812,return,0.1887,,38.54166667,,,,,,FBP-OG-81.png,0.35,1.2,36,0.75,,,,,,,,,,,,,,,,,,0,23,23,35,1,,,,,,,,,,,,,,,,,,,,,,,
,,,,,V3_092,19,F,2025-01-30_14h32.36.254,jersey_experiment_5_v3,2023.2.2,Win32,85.47008547,,,,,,,,,,,,,,,,710.6814,711.975,711.975,712.7989,return,0.1654,,73.56770833,,,,,,FBP-YG-19.png,0.4,1.2,13,0.5,,,,,,,,,,,,,,,,,,0,24,24,12,1,,,,,,,,,,,,,,,,,,,,,,,
,,,,,V3_092,19,F,2025-01-30_14h32.36.254,jersey_experiment_5_v3,2023.2.2,Win32,85.47008547,,,,,,,,,,,,,,,,712.799,714.1077,714.1077,715.1664,return,0.1647,,91.796875,,,,,,FBP-RB-71.png,0.45,1.2,50,0.5,,,,,,,,,,,,,,,,,,0,25,25,49,1,,,,,,,,,,,,,,,,,,,,,,,
,,,,,V3_092,19,F,2025-01-30_14h32.36.254,jersey_experiment_5_v3,2023.2.2,Win32,85.47008547,,,,,,,,,,,,,,,,715.1666,716.7196,716.7196,718.3198,return,0.1794,,53.515625,,,,,,FBP-OG-81.png,0.4,1.2,38,0.75,,,,,,,,,,,,,,,,,,0,26,26,37,1,,,,,,,,,,,,,,,,,,,,,,,
,,,,,V3_092,19,F,2025-01-30_14h32.36.254,jersey_experiment_5_v3,2023.2.2,Win32,85.47008547,,,,,,,,,,,,,,,,718.32,719.6226,719.6226,720.4697,return,0.2356,,76.30208333,,,,,,FBP-RB-81.png,0.43,1.2,54,0.5,,,,,,,,,,,,,,,,,,0,27,27,53,1,,,,,,,,,,,,,,,,,,,,,,,
,,,,,V3_092,19,F,2025-01-30_14h32.36.254,jersey_experiment_5_v3,2023.2.2,Win32,85.47008547,,,,,,,,,,,,,,,,720.4697,721.7636,721.7636,722.5875,return,0.1652,,29.296875,,,,,,FBP-YG-17.png,0.35,1.2,1,0.5,,,,,,,,,,,,,,,,,,0,28,28,0,1,,,,,,,,,,,,,,,,,,,,,,,
,,,,,V3_092,19,F,2025-01-30_14h32.36.254,jersey_experiment_5_v3,2023.2.2,Win32,85.47008547,,,,,,,,,,,,,,,,722.5877,723.8963,723.8963,724.8936,return,0.1652,,26.04166667,,,,,,FBP-YG-17.png,0.37,1.2,2,0.5,,,,,,,,,,,,,,,,,,0,29,29,1,1,,,,,,,,,,,,,,,,,,,,,,,
,,,,,V3_092,19,F,2025-01-30_14h32.36.254,jersey_experiment_5_v3,2023.2.2,Win32,85.47008547,,,,,,,,,,,,,,,,724.8938,726.202,726.202,726.9404,return,0.1414,,18.48958333,,,,,,FBP-RB-71.png,0.35,1.2,46,0.5,,,,,,,,,,,,,,,,,,0,30,30,45,1,,,,,,,,,,,,,,,,,,,,,,,
,,,,,V3_092,19,F,2025-01-30_14h32.36.254,jersey_experiment_5_v3,2023.2.2,Win32,85.47008547,,,,,,,,,,,,,,,,726.9405,728.2491,728.2491,729.1437,return,0.18,,60.546875,,,,,,FBP-RB-91.png,0.4,1.2,58,0.5,,,,,,,,,,,,,,,,,,0,31,31,57,1,,,,,,,,,,,,,,,,,,,,,,,
,,,,,V3_092,19,F,2025-01-30_14h32.36.254,jersey_experiment_5_v3,2023.2.2,Win32,85.47008547,,,,,,,,,,,,,,,,729.1439,730.4375,730.4375,731.1668,return,0.1881,,42.83854167,,,,,,FBP-YG-19.png,0.35,1.2,11,0.5,,,,,,,,,,,,,,,,,,0,32,32,10,1,,,,,,,,,,,,,,,,,,,,,,,
,,,,,V3_092,19,F,2025-01-30_14h32.36.254,jersey_experiment_5_v3,2023.2.2,Win32,85.47008547,,,,,,,,,,,,,,,,731.1669,732.714,732.714,733.9847,return,0.6623,,78.77604167,,,,,,FBP-OG-81.png,0.45,1.2,40,0.75,,,,,,,,,,,,,,,,,,0,33,33,39,1,,,,,,,,,,,,,,,,,,,,,,,
,,,,,V3_092,19,F,2025-01-30_14h32.36.254,jersey_experiment_5_v3,2023.2.2,Win32,85.47008547,,,,,,,,,,,,,,,,733.9849,735.2787,735.2787,736.1304,return,0.1867,,85.546875,,,,,,FBP-PT-71.png,0.45,1.2,20,0.5,,,,,,,,,,,,,,,,,,0,34,34,19,1,,,,,,,,,,,,,,,,,,,,,,,
,,,,,V3_092,19,F,2025-01-30_14h32.36.254,jersey_experiment_5_v3,2023.2.2,Win32,85.47008547,,,,,,,,,,,,,,,,736.1305,737.4351,737.4351,738.1555,return,0.2031,,88.671875,,,,,,FBP-RB-71.png,0.43,1.2,49,0.5,,,,,,,,,,,,,,,,,,0,35,35,48,1,,,,,,,,,,,,,,,,,,,,,,,
,,,,,V3_092,19,F,2025-01-30_14h32.36.254,jersey_experiment_5_v3,2023.2.2,Win32,85.47008547,,,,,,,,,,,,,,,,738.1556,739.4497,739.4497,740.3531,return,0.1978,,97.265625,,,,,,FBP-YG-17.png,0.45,1.2,5,0.5,,,,,,,,,,,,,,,,,,0,36,36,4,1,,,,,,,,,,,,,,,,,,,,,,,
,,,,,V3_092,19,F,2025-01-30_14h32.36.254,jersey_experiment_5_v3,2023.2.2,Win32,85.47008547,,,,,,,,,,,,,,,,740.3533,741.6465,741.6466,742.4236,return,0.1886,,75.26041667,,,,,,FBP-YG-18.png,0.4,1.2,8,0.5,,,,,,,,,,,,,,,,,,0,37,37,7,1,,,,,,,,,,,,,,,,,,,,,,,
,,,,,V3_092,19,F,2025-01-30_14h32.36.254,jersey_experiment_5_v3,2023.2.2,Win32,85.47008547,,,,,,,,,,,,,,,,742.4237,743.9676,743.9676,744.8463,return,0.1965,,84.50520833,,,,,,FBP-OG-71.png,0.45,1.2,35,0.75,,,,,,,,,,,,,,,,,,0,38,38,34,1,,,,,,,,,,,,,,,,,,,,,,,
,,,,,V3_092,19,F,2025-01-30_14h32.36.254,jersey_experiment_5_v3,2023.2.2,Win32,85.47008547,,,,,,,,,,,,,,,,744.8464,746.138,746.138,746.933,return,0.1803,,90.234375,,,,,,FBP-YG-19.png,0.43,1.2,14,0.5,,,,,,,,,,,,,,,,,,0,39,39,13,1,,,,,,,,,,,,,,,,,,,,,,,
,,,,,V3_092,19,F,2025-01-30_14h32.36.254,jersey_experiment_5_v3,2023.2.2,Win32,85.47008547,,,,,,,,,,,,,,,,746.9331,748.2265,748.2265,749.2707,return,0.1887,,71.875,,,,,,FBP-YG-17.png,0.4,1.2,3,0.5,,,,,,,,,,,,,,,,,,0,40,40,2,1,,,,,,,,,,,,,,,,,,,,,,,
,,,,,V3_092,19,F,2025-01-30_14h32.36.254,jersey_experiment_5_v3,2023.2.2,Win32,85.47008547,,,,,,,,,,,,,,,,749.2708,750.5646,750.5646,752.3446,return,0.1653,,60.15625,,,,,,FBP-YG-19.png,0.37,1.2,12,0.5,,,,,,,,,,,,,,,,,,0,41,41,11,1,,,,,,,,,,,,,,,,,,,,,,,
,,,,,V3_092,19,F,2025-01-30_14h32.36.254,jersey_experiment_5_v3,2023.2.2,Win32,85.47008547,,,,,,,,,,,,,,,,752.3447,753.6473,753.6473,754.9095,return,0.6358,,58.46354167,,,,,,FBP-PT-71.png,0.4,1.2,18,0.5,,,,,,,,,,,,,,,,,,0,42,42,17,1,,,,,,,,,,,,,,,,,,,,,,,
,,,,,V3_092,19,F,2025-01-30_14h32.36.254,jersey_experiment_5_v3,2023.2.2,Win32,85.47008547,,,,,,,,,,,,,,,,754.9098,756.4625,756.4626,757.1536,return,0.1884,,72.00520833,,,,,,FBP-OG-81.png,0.43,1.2,39,0.75,,,,,,,,,,,,,,,,,,0,43,43,38,1,,,,,,,,,,,,,,,,,,,,,,,
,,,,,V3_092,19,F,2025-01-30_14h32.36.254,jersey_experiment_5_v3,2023.2.2,Win32,85.47008547,,,,,,,,,,,,,,,,757.1538,758.6975,758.6975,759.4592,return,0.197,,59.50520833,,,,,,FBP-OG-71.png,0.4,1.2,33,0.75,,,,,,,,,,,,,,,,,,0,44,44,32,1,,,,,,,,,,,,,,,,,,,,,,,
,,,,,V3_092,19,F,2025-01-30_14h32.36.254,jersey_experiment_5_v3,2023.2.2,Win32,85.47008547,,,,,,,,,,,,,,,,759.4593,760.7535,760.7536,761.7567,return,0.2034,,38.80208333,,,,,,FBP-PT-71.png,0.35,1.2,16,0.5,,,,,,,,,,,,,,,,,,0,45,45,15,1,,,,,,,,,,,,,,,,,,,,,,,
,,,,,V3_092,19,F,2025-01-30_14h32.36.254,jersey_experiment_5_v3,2023.2.2,Win32,85.47008547,,,,,,,,,,,,,,,,761.7568,763.0504,763.0505,764.4622,return,0.7527,,26.82291667,,,,,,FBP-YG-18.png,0.35,1.2,6,0.5,,,,,,,,,,,,,,,,,,0,46,46,5,1,,,,,,,,,,,,,,,,,,,,,,,
,,,,,V3_092,19,F,2025-01-30_14h32.36.254,jersey_experiment_5_v3,2023.2.2,Win32,85.47008547,,,,,,,,,,,,,,,,764.4624,766.0156,766.0156,766.8154,return,0.2122,,48.828125,,,,,,FBP-OG-91.png,0.4,1.2,43,0.75,,,,,,,,,,,,,,,,,,0,47,47,42,1,,,,,,,,,,,,,,,,,,,,,,,
,,,,,V3_092,19,F,2025-01-30_14h32.36.254,jersey_experiment_5_v3,2023.2.2,Win32,85.47008547,,,,,,,,,,,,,,,,766.8156,768.3666,768.3666,769.2949,return,0.2121,,39.19270833,,,,,,FBP-OG-81.png,0.37,1.2,37,0.75,,,,,,,,,,,,,,,,,,0,48,48,36,1,,,,,,,,,,,,,,,,,,,,,,,
,,,,,V3_092,19,F,2025-01-30_14h32.36.254,jersey_experiment_5_v3,2023.2.2,Win32,85.47008547,,,,,,,,,,,,,,,,769.2951,770.8388,770.8389,771.6629,return,0.1795,,72.13541667,,,,,,FBP-OG-91.png,0.43,1.2,44,0.75,,,,,,,,,,,,,,,,,,0,49,49,43,1,,,,,,,,,,,,,,,,,,,,,,,
,,,,,V3_092,19,F,2025-01-30_14h32.36.254,jersey_experiment_5_v3,2023.2.2,Win32,85.47008547,,,,,,,,,,,,,,,,771.6631,772.9656,772.9657,773.9925,return,0.212,,84.24479167,,,,,,FBP-RB-81.png,0.45,1.2,55,0.5,,,,,,,,,,,,,,,,,,0,50,50,54,1,,,,,,,,,,,,,,,,,,,,,,,
,,,,,V3_092,19,F,2025-01-30_14h32.36.254,jersey_experiment_5_v3,2023.2.2,Win32,85.47008547,,,,,,,,,,,,,,,,773.9927,775.5451,775.5452,776.7686,return,0.6121,,86.84895833,,,,,,FBP-OG-91.png,0.45,1.2,45,0.75,,,,,,,,,,,,,,,,,,0,51,51,44,1,,,,,,,,,,,,,,,,,,,,,,,
,,,,,V3_092,19,F,2025-01-30_14h32.36.254,jersey_experiment_5_v3,2023.2.2,Win32,85.47008547,,,,,,,,,,,,,,,,776.7688,778.0629,778.0629,779.5073,return,0.1652,,68.22916667,,,,,,FBP-RB-81.png,0.4,1.2,53,0.5,,,,,,,,,,,,,,,,,,0,52,52,52,1,,,,,,,,,,,,,,,,,,,,,,,
,,,,,V3_092,19,F,2025-01-30_14h32.36.254,jersey_experiment_5_v3,2023.2.2,Win32,85.47008547,,,,,,,,,,,,,,,,779.5075,781.0511,781.0511,782.4012,return,0.7165,,45.96354167,,,,,,FBP-OG-91.png,0.35,1.2,41,0.75,,,,,,,,,,,,,,,,,,0,53,53,40,1,,,,,,,,,,,,,,,,,,,,,,,
,,,,,V3_092,19,F,2025-01-30_14h32.36.254,jersey_experiment_5_v3,2023.2.2,Win32,85.47008547,,,,,,,,,,,,,,,,782.4014,783.6955,783.6955,784.4635,return,0.1331,,75.91145833,,,,,,FBP-PT-91.png,0.43,1.2,29,0.5,,,,,,,,,,,,,,,,,,0,54,54,28,1,,,,,,,,,,,,,,,,,,,,,,,
,,,,,V3_092,19,F,2025-01-30_14h32.36.254,jersey_experiment_5_v3,2023.2.2,Win32,85.47008547,,,,,,,,,,,,,,,,784.4637,786.0104,786.0104,786.9751,return,0.1463,,74.609375,,,,,,FBP-OG-71.png,0.43,1.2,34,0.75,,,,,,,,,,,,,,,,,,0,55,55,33,1,,,,,,,,,,,,,,,,,,,,,,,
,,,,,V3_092,19,F,2025-01-30_14h32.36.254,jersey_experiment_5_v3,2023.2.2,Win32,85.47008547,,,,,,,,,,,,,,,,786.9752,788.269,788.269,789.0754,return,0.2135,,85.80729167,,,,,,FBP-PT-91.png,0.45,1.2,30,0.5,,,,,,,,,,,,,,,,,,0,56,56,29,1,,,,,,,,,,,,,,,,,,,,,,,
,,,,,V3_092,19,F,2025-01-30_14h32.36.254,jersey_experiment_5_v3,2023.2.2,Win32,85.47008547,,,,,,,,,,,,,,,,789.0756,790.3781,790.3782,791.2017,return,0.1649,,89.58333333,,,,,,FBP-RB-91.png,0.43,1.2,59,0.5,,,,,,,,,,,,,,,,,,0,57,57,58,1,,,,,,,,,,,,,,,,,,,,,,,
,,,,,V3_092,19,F,2025-01-30_14h32.36.254,jersey_experiment_5_v3,2023.2.2,Win32,85.47008547,,,,,,,,,,,,,,,,791.2018,792.5106,792.5106,793.4992,return,0.2036,,91.53645833,,,,,,FBP-YG-19.png,0.45,1.2,15,0.5,,,,,,,,,,,,,,,,,,0,58,58,14,1,,,,,,,,,,,,,,,,,,,,,,,
,,,,,V3_092,19,F,2025-01-30_14h32.36.254,jersey_experiment_5_v3,2023.2.2,Win32,85.47008547,,,,,,,,,,,,,,,,793.4993,794.7931,794.7931,795.5931,return,0.1888,,89.58333333,,,,,,FBP-YG-18.png,0.43,1.2,9,0.5,,,,,,,,,,,,,,,,,,0,59,59,8,1,,,,,,,,,,,,,,,,,,,,,,,
,,,,,V3_092,19,F,2025-01-30_14h32.36.254,jersey_experiment_5_v3,2023.2.2,Win32,85.47008547,,,,,,,,,,,,,,,,,,,,,,,,,,,,,,,,,,,,,,,,,,,,,,,,,,,,,,,,795.5932,798.9799,return,3.3781,,,,,,,,,,,,,,,,,,,
,,,,,V3_092,19,F,2025-01-30_14h32.36.254,jersey_experiment_5_v3,2023.2.2,Win32,85.47008547,,,,,,,,,,,,,,,,,,,,,,,,,,,,,,,,,,,,,,,,,,,,,,,,,,,,,,,,,,,,,798.9799,801.711,1,1.9432,return,0.7678,,,,,,,,,,,,
,,,,,V3_092,19,F,2025-01-30_14h32.36.254,jersey_experiment_5_v3,2023.2.2,Win32,85.47008547,,,,,,,,,,,,,,,,,,,,,,,,,,,,,,,,,,,,,,,,,,,,,,,,,,,,,,,,,,,,,,,,,,,,801.711,815.2648,no not at all,right,10.0003,,,,,,
,,,,,V3_092,19,F,2025-01-30_14h32.36.254,jersey_experiment_5_v3,2023.2.2,Win32,85.47008547,,,,,,,,,,,,,,,,,,,,,,,,,,,,,,,,,,,,,,,,,,,,,,,,,,,,,,,,,,,,,,,,,,,,,,,,,,815.2648,817.9793,return,2.7061,