requirements.started,requirements.stopped,key_resp_3.keys,key_resp_3.rt,key_resp_3.duration,Subject ID,Age,Gender,date,expName,psychopyVersion,OS,frameRate,instructions1.started,instructions1.stopped,key_resp.keys,key_resp.rt,key_resp.duration,example.started,example.stopped,enter_2.keys,enter_2.rt,enter_2.duration,instructions2.started,instructions2.stopped,enter_3.keys,enter_3.rt,enter_3.duration,image.started,image.stopped,slider_2.started,slider_2.stopped,next.keys,next.rt,next.duration,slider.response,trial_block_1.thisRepN,trial_block_1.thisTrialN,trial_block_1.thisN,trial_block_1.thisIndex,trial_block_1.ran,Path,Width,Height,Index,Duration,trial_block_2.thisRepN,trial_block_2.thisTrialN,trial_block_2.thisN,trial_block_2.thisIndex,trial_block_2.ran,rest_break.started,rest_break.stopped,end_break.started,end_break.stopped,key_resp_5.keys,key_resp_5.rt,key_resp_5.duration,trial_block_3.thisRepN,trial_block_3.thisTrialN,trial_block_3.thisN,trial_block_3.thisIndex,trial_block_3.ran,trial_block_4.thisRepN,trial_block_4.thisTrialN,trial_block_4.thisN,trial_block_4.thisIndex,trial_block_4.ran,questions_intro.started,questions_intro.stopped,enter_12.keys,enter_12.rt,enter_12.duration,question2.started,question2.stopped,question_doingbest.response,question_doingbest.rt,enter_15.keys,enter_15.rt,enter_15.duration,pattern.started,pattern.stopped,pattern_2.text,enter_17.keys,enter_17.rt,enter_17.duration,thankyou.started,thankyou.stopped,enter_14.keys,enter_14.rt,enter_14.duration
0.0001,7.451,return,7.4434,,V3_057,18,female,2024-11-09_15h20.49.779,jersey_experiment_5_v3,2023.2.2,Win32,85.47008547,,,,,,,,,,,,,,,,,,,,,,,,,,,,,,,,,,,,,,,,,,,,,,,,,,,,,,,,,,,,,,,,,,,,,,,,,,,,,,
,,,,,V3_057,18,female,2024-11-09_15h20.49.779,jersey_experiment_5_v3,2023.2.2,Win32,85.47008547,7.4511,12.3218,return,4.8477,,,,,,,,,,,,,,,,,,,,,,,,,,,,,,,,,,,,,,,,,,,,,,,,,,,,,,,,,,,,,,,,,,,,,,,,,,
,,,,,V3_057,18,female,2024-11-09_15h20.49.779,jersey_experiment_5_v3,2023.2.2,Win32,85.47008547,,,,,,12.322,16.4162,return,4.0548,,,,,,,,,,,,,,,,,,,,,,,,,,,,,,,,,,,,,,,,,,,,,,,,,,,,,,,,,,,,,,,,,,,,,
,,,,,V3_057,18,female,2024-11-09_15h20.49.779,jersey_experiment_5_v3,2023.2.2,Win32,85.47008547,,,,,,,,,,,16.4162,30.5171,return,14.086,,,,,,,,,,,,,,,,,,,,,,,,,,,,,,,,,,,,,,,,,,,,,,,,,,,,,,,,,,,,,,,,
,,,,,V3_057,18,female,2024-11-09_15h20.49.779,jersey_experiment_5_v3,2023.2.2,Win32,85.47008547,,,,,,,,,,,,,,,,30.5199,32.0698,32.0699,37.5463,return,1.4439,,75.13020833,0,0,0,25,1,FBP-PT-19.png,0.35,1.2,26,0.75,,,,,,,,,,,,,,,,,,,,,,,,,,,,,,,,,,,,,,,,,,,,,
,,,,,V3_057,18,female,2024-11-09_15h20.49.779,jersey_experiment_5_v3,2023.2.2,Win32,85.47008547,,,,,,,,,,,,,,,,37.5467,39.0991,39.0992,43.5816,return,2.0724,,75.390625,0,1,1,0,1,FBP-YG-71.png,0.35,1.2,1,0.75,,,,,,,,,,,,,,,,,,,,,,,,,,,,,,,,,,,,,,,,,,,,,
,,,,,V3_057,18,female,2024-11-09_15h20.49.779,jersey_experiment_5_v3,2023.2.2,Win32,85.47008547,,,,,,,,,,,,,,,,43.5818,45.1345,45.1346,48.5583,return,1.3086,,99.73958333,0,2,2,48,1,FBP-RB-17.png,0.43,1.2,49,0.75,,,,,,,,,,,,,,,,,,,,,,,,,,,,,,,,,,,,,,,,,,,,,
,,,,,V3_057,18,female,2024-11-09_15h20.49.779,jersey_experiment_5_v3,2023.2.2,Win32,85.47008547,,,,,,,,,,,,,,,,48.5585,50.1113,50.1113,53.8055,return,1.3226,,74.73958333,0,3,3,22,1,FBP-PT-18.png,0.4,1.2,23,0.75,,,,,,,,,,,,,,,,,,,,,,,,,,,,,,,,,,,,,,,,,,,,,
,,,,,V3_057,18,female,2024-11-09_15h20.49.779,jersey_experiment_5_v3,2023.2.2,Win32,85.47008547,,,,,,,,,,,,,,,,53.8057,55.3585,55.3585,64.3824,return,6.8164,,88.15104167,0,4,4,4,1,FBP-YG-71.png,0.45,1.2,5,0.75,,,,,,,,,,,,,,,,,,,,,,,,,,,,,,,,,,,,,,,,,,,,,
,,,,,V3_057,18,female,2024-11-09_15h20.49.779,jersey_experiment_5_v3,2023.2.2,Win32,85.47008547,,,,,,,,,,,,,,,,64.3827,65.6765,65.6765,69.312,return,1.7203,,28.38541667,0,5,5,40,1,FBP-OG-19.png,0.35,1.2,41,0.5,,,,,,,,,,,,,,,,,,,,,,,,,,,,,,,,,,,,,,,,,,,,,
,,,,,V3_057,18,female,2024-11-09_15h20.49.779,jersey_experiment_5_v3,2023.2.2,Win32,85.47008547,,,,,,,,,,,,,,,,69.3124,70.6061,70.6061,73.9004,return,0.8533,,42.05729167,0,6,6,30,1,FBP-OG-17.png,0.35,1.2,31,0.5,,,,,,,,,,,,,,,,,,,,,,,,,,,,,,,,,,,,,,,,,,,,,
,,,,,V3_057,18,female,2024-11-09_15h20.49.779,jersey_experiment_5_v3,2023.2.2,Win32,85.47008547,,,,,,,,,,,,,,,,73.9006,75.1945,75.1945,77.9946,return,0.8863,,64.84375,0,7,7,36,1,FBP-OG-18.png,0.37,1.2,37,0.5,,,,,,,,,,,,,,,,,,,,,,,,,,,,,,,,,,,,,,,,,,,,,
,,,,,V3_057,18,female,2024-11-09_15h20.49.779,jersey_experiment_5_v3,2023.2.2,Win32,85.47008547,,,,,,,,,,,,,,,,77.9948,79.5476,79.5476,82.0654,return,0.7883,,74.47916667,0,8,8,5,1,FBP-YG-81.png,0.35,1.2,6,0.75,,,,,,,,,,,,,,,,,,,,,,,,,,,,,,,,,,,,,,,,,,,,,
,,,,,V3_057,18,female,2024-11-09_15h20.49.779,jersey_experiment_5_v3,2023.2.2,Win32,85.47008547,,,,,,,,,,,,,,,,82.0657,83.6183,83.6184,85.9008,return,0.9233,,98.17708333,0,9,9,3,1,FBP-YG-71.png,0.43,1.2,4,0.75,,,,,,,,,,,,,,,,,,,,,,,,,,,,,,,,,,,,,,,,,,,,,
,,,,,V3_057,18,female,2024-11-09_15h20.49.779,jersey_experiment_5_v3,2023.2.2,Win32,85.47008547,,,,,,,,,,,,,,,,85.901,87.4537,87.4538,89.9363,return,0.7774,,76.04166667,0,10,10,11,1,FBP-YG-91.png,0.37,1.2,12,0.75,,,,,,,,,,,,,,,,,,,,,,,,,,,,,,,,,,,,,,,,,,,,,
,,,,,V3_057,18,female,2024-11-09_15h20.49.779,jersey_experiment_5_v3,2023.2.2,Win32,85.47008547,,,,,,,,,,,,,,,,89.9366,91.4892,91.4893,94.0422,return,1.1378,,99.73958333,0,11,11,57,1,FBP-RB-19.png,0.4,1.2,58,0.75,,,,,,,,,,,,,,,,,,,,,,,,,,,,,,,,,,,,,,,,,,,,,
,,,,,V3_057,18,female,2024-11-09_15h20.49.779,jersey_experiment_5_v3,2023.2.2,Win32,85.47008547,,,,,,,,,,,,,,,,94.0426,95.5953,95.5953,97.5365,return,0.7445,,61.19791667,0,12,12,1,1,FBP-YG-71.png,0.37,1.2,2,0.75,,,,,,,,,,,,,,,,,,,,,,,,,,,,,,,,,,,,,,,,,,,,,
,,,,,V3_057,18,female,2024-11-09_15h20.49.779,jersey_experiment_5_v3,2023.2.2,Win32,85.47008547,,,,,,,,,,,,,,,,97.5368,98.8307,98.8307,101.0659,return,0.9613,,94.40104167,0,13,13,38,1,FBP-OG-18.png,0.43,1.2,39,0.5,,,,,,,,,,,,,,,,,,,,,,,,,,,,,,,,,,,,,,,,,,,,,
,,,,,V3_057,18,female,2024-11-09_15h20.49.779,jersey_experiment_5_v3,2023.2.2,Win32,85.47008547,,,,,,,,,,,,,,,,101.0661,102.3603,102.3603,104.6192,return,0.7124,,78.515625,0,14,14,31,1,FBP-OG-17.png,0.37,1.2,32,0.5,,,,,,,,,,,,,,,,,,,,,,,,,,,,,,,,,,,,,,,,,,,,,
,,,,,V3_057,18,female,2024-11-09_15h20.49.779,jersey_experiment_5_v3,2023.2.2,Win32,85.47008547,,,,,,,,,,,,,,,,104.6194,106.1721,106.1721,108.2075,return,0.756,,73.4375,0,15,15,26,1,FBP-PT-19.png,0.37,1.2,27,0.75,,,,,,,,,,,,,,,,,,,,,,,,,,,,,,,,,,,,,,,,,,,,,
,,,,,V3_057,18,female,2024-11-09_15h20.49.779,jersey_experiment_5_v3,2023.2.2,Win32,85.47008547,,,,,,,,,,,,,,,,108.2077,109.7604,109.7604,112.1723,return,0.6879,,63.80208333,0,16,16,6,1,FBP-YG-81.png,0.37,1.2,7,0.75,,,,,,,,,,,,,,,,,,,,,,,,,,,,,,,,,,,,,,,,,,,,,
,,,,,V3_057,18,female,2024-11-09_15h20.49.779,jersey_experiment_5_v3,2023.2.2,Win32,85.47008547,,,,,,,,,,,,,,,,112.1726,113.4665,113.4665,115.796,return,0.6968,,50.390625,0,17,17,35,1,FBP-OG-18.png,0.35,1.2,36,0.5,,,,,,,,,,,,,,,,,,,,,,,,,,,,,,,,,,,,,,,,,,,,,
,,,,,V3_057,18,female,2024-11-09_15h20.49.779,jersey_experiment_5_v3,2023.2.2,Win32,85.47008547,,,,,,,,,,,,,,,,115.7963,117.3491,117.3491,119.4432,return,0.7764,,92.05729167,0,18,18,28,1,FBP-PT-19.png,0.43,1.2,29,0.75,,,,,,,,,,,,,,,,,,,,,,,,,,,,,,,,,,,,,,,,,,,,,
,,,,,V3_057,18,female,2024-11-09_15h20.49.779,jersey_experiment_5_v3,2023.2.2,Win32,85.47008547,,,,,,,,,,,,,,,,119.4435,120.9962,120.9962,122.9491,return,0.7041,,69.66145833,0,19,19,56,1,FBP-RB-19.png,0.37,1.2,57,0.75,,,,,,,,,,,,,,,,,,,,,,,,,,,,,,,,,,,,,,,,,,,,,
,,,,,V3_057,18,female,2024-11-09_15h20.49.779,jersey_experiment_5_v3,2023.2.2,Win32,85.47008547,,,,,,,,,,,,,,,,122.9493,124.5022,124.5023,127.8083,return,0.8811,,99.609375,0,20,20,59,1,FBP-RB-19.png,0.45,1.2,60,0.75,,,,,,,,,,,,,,,,,,,,,,,,,,,,,,,,,,,,,,,,,,,,,
,,,,,V3_057,18,female,2024-11-09_15h20.49.779,jersey_experiment_5_v3,2023.2.2,Win32,85.47008547,,,,,,,,,,,,,,,,127.8085,129.1025,129.1026,131.6202,return,0.7168,,78.90625,0,21,21,37,1,FBP-OG-18.png,0.4,1.2,38,0.5,,,,,,,,,,,,,,,,,,,,,,,,,,,,,,,,,,,,,,,,,,,,,
,,,,,V3_057,18,female,2024-11-09_15h20.49.779,jersey_experiment_5_v3,2023.2.2,Win32,85.47008547,,,,,,,,,,,,,,,,131.6204,132.9143,132.9144,135.8203,return,0.8651,,99.73958333,0,22,22,44,1,FBP-OG-19.png,0.45,1.2,45,0.5,,,,,,,,,,,,,,,,,,,,,,,,,,,,,,,,,,,,,,,,,,,,,
,,,,,V3_057,18,female,2024-11-09_15h20.49.779,jersey_experiment_5_v3,2023.2.2,Win32,85.47008547,,,,,,,,,,,,,,,,135.8206,137.3733,137.3733,141.1734,return,1.2573,,98.56770833,0,23,23,9,1,FBP-YG-81.png,0.45,1.2,10,0.75,,,,,,,,,,,,,,,,,,,,,,,,,,,,,,,,,,,,,,,,,,,,,
,,,,,V3_057,18,female,2024-11-09_15h20.49.779,jersey_experiment_5_v3,2023.2.2,Win32,85.47008547,,,,,,,,,,,,,,,,141.1738,142.7264,142.7264,145.3383,return,1.138,,22.52604167,0,24,24,51,1,FBP-RB-18.png,0.37,1.2,52,0.75,,,,,,,,,,,,,,,,,,,,,,,,,,,,,,,,,,,,,,,,,,,,,
,,,,,V3_057,18,female,2024-11-09_15h20.49.779,jersey_experiment_5_v3,2023.2.2,Win32,85.47008547,,,,,,,,,,,,,,,,145.3386,146.8912,146.8913,149.0443,return,0.7921,,61.45833333,0,25,25,17,1,FBP-PT-17.png,0.4,1.2,18,0.75,,,,,,,,,,,,,,,,,,,,,,,,,,,,,,,,,,,,,,,,,,,,,
,,,,,V3_057,18,female,2024-11-09_15h20.49.779,jersey_experiment_5_v3,2023.2.2,Win32,85.47008547,,,,,,,,,,,,,,,,149.0445,150.3385,150.3386,153.1386,return,0.8606,,99.21875,0,26,26,34,1,FBP-OG-17.png,0.45,1.2,35,0.5,,,,,,,,,,,,,,,,,,,,,,,,,,,,,,,,,,,,,,,,,,,,,
,,,,,V3_057,18,female,2024-11-09_15h20.49.779,jersey_experiment_5_v3,2023.2.2,Win32,85.47008547,,,,,,,,,,,,,,,,153.1389,154.6915,154.6916,156.6681,return,0.6382,,75.26041667,0,27,27,23,1,FBP-PT-18.png,0.43,1.2,24,0.75,,,,,,,,,,,,,,,,,,,,,,,,,,,,,,,,,,,,,,,,,,,,,
,,,,,V3_057,18,female,2024-11-09_15h20.49.779,jersey_experiment_5_v3,2023.2.2,Win32,85.47008547,,,,,,,,,,,,,,,,156.6683,158.2212,158.2212,160.433,return,0.6847,,73.30729167,0,28,28,12,1,FBP-YG-91.png,0.4,1.2,13,0.75,,,,,,,,,,,,,,,,,,,,,,,,,,,,,,,,,,,,,,,,,,,,,
,,,,,V3_057,18,female,2024-11-09_15h20.49.779,jersey_experiment_5_v3,2023.2.2,Win32,85.47008547,,,,,,,,,,,,,,,,160.4333,161.9859,161.9859,163.6919,return,0.6422,,94.66145833,0,29,29,58,1,FBP-RB-19.png,0.43,1.2,59,0.75,,,,,,,,,,,,,,,,,,,,,,,,,,,,,,,,,,,,,,,,,,,,,
,,,,,V3_057,18,female,2024-11-09_15h20.49.779,jersey_experiment_5_v3,2023.2.2,Win32,85.47008547,,,,,,,,,,,,,,,,163.6921,165.2448,165.2449,167.3274,return,0.5796,,92.1875,0,30,30,54,1,FBP-RB-18.png,0.45,1.2,55,0.75,,,,,,,,,,,,,,,,,,,,,,,,,,,,,,,,,,,,,,,,,,,,,
,,,,,V3_057,18,female,2024-11-09_15h20.49.779,jersey_experiment_5_v3,2023.2.2,Win32,85.47008547,,,,,,,,,,,,,,,,167.3276,168.8803,168.8804,170.8097,return,0.7347,,21.09375,0,31,31,10,1,FBP-YG-91.png,0.35,1.2,11,0.75,,,,,,,,,,,,,,,,,,,,,,,,,,,,,,,,,,,,,,,,,,,,,
,,,,,V3_057,18,female,2024-11-09_15h20.49.779,jersey_experiment_5_v3,2023.2.2,Win32,85.47008547,,,,,,,,,,,,,,,,170.8099,172.3628,172.3629,175.2923,return,0.7461,,73.046875,0,32,32,8,1,FBP-YG-81.png,0.43,1.2,9,0.75,,,,,,,,,,,,,,,,,,,,,,,,,,,,,,,,,,,,,,,,,,,,,
,,,,,V3_057,18,female,2024-11-09_15h20.49.779,jersey_experiment_5_v3,2023.2.2,Win32,85.47008547,,,,,,,,,,,,,,,,175.2925,176.5865,176.5865,178.81,return,0.7497,,94.27083333,0,33,33,39,1,FBP-OG-18.png,0.45,1.2,40,0.5,,,,,,,,,,,,,,,,,,,,,,,,,,,,,,,,,,,,,,,,,,,,,
,,,,,V3_057,18,female,2024-11-09_15h20.49.779,jersey_experiment_5_v3,2023.2.2,Win32,85.47008547,,,,,,,,,,,,,,,,178.8104,180.3631,180.3632,182.069,return,0.6121,,76.5625,0,34,34,18,1,FBP-PT-17.png,0.43,1.2,19,0.75,,,,,,,,,,,,,,,,,,,,,,,,,,,,,,,,,,,,,,,,,,,,,
,,,,,V3_057,18,female,2024-11-09_15h20.49.779,jersey_experiment_5_v3,2023.2.2,Win32,85.47008547,,,,,,,,,,,,,,,,182.0693,183.6219,183.622,185.1515,return,0.6248,,70.703125,0,35,35,13,1,FBP-YG-91.png,0.43,1.2,14,0.75,,,,,,,,,,,,,,,,,,,,,,,,,,,,,,,,,,,,,,,,,,,,,
,,,,,V3_057,18,female,2024-11-09_15h20.49.779,jersey_experiment_5_v3,2023.2.2,Win32,85.47008547,,,,,,,,,,,,,,,,185.1518,186.7045,186.7045,189.187,return,0.7761,,1.692708333,0,36,36,15,1,FBP-PT-17.png,0.35,1.2,16,0.75,,,,,,,,,,,,,,,,,,,,,,,,,,,,,,,,,,,,,,,,,,,,,
,,,,,V3_057,18,female,2024-11-09_15h20.49.779,jersey_experiment_5_v3,2023.2.2,Win32,85.47008547,,,,,,,,,,,,,,,,189.1872,190.4811,190.4811,192.3872,return,0.6835,,14.19270833,0,37,37,41,1,FBP-OG-19.png,0.37,1.2,42,0.5,,,,,,,,,,,,,,,,,,,,,,,,,,,,,,,,,,,,,,,,,,,,,
,,,,,V3_057,18,female,2024-11-09_15h20.49.779,jersey_experiment_5_v3,2023.2.2,Win32,85.47008547,,,,,,,,,,,,,,,,192.3873,193.94,193.9401,195.8695,return,0.605,,37.890625,0,38,38,52,1,FBP-RB-18.png,0.4,1.2,53,0.75,,,,,,,,,,,,,,,,,,,,,,,,,,,,,,,,,,,,,,,,,,,,,
,,,,,V3_057,18,female,2024-11-09_15h20.49.779,jersey_experiment_5_v3,2023.2.2,Win32,85.47008547,,,,,,,,,,,,,,,,195.8698,197.4224,197.4225,199.4226,return,0.7082,,95.57291667,0,39,39,49,1,FBP-RB-17.png,0.45,1.2,50,0.75,,,,,,,,,,,,,,,,,,,,,,,,,,,,,,,,,,,,,,,,,,,,,
,,,,,V3_057,18,female,2024-11-09_15h20.49.779,jersey_experiment_5_v3,2023.2.2,Win32,85.47008547,,,,,,,,,,,,,,,,199.4229,200.9756,200.9756,203.1404,return,0.6837,,33.59375,0,40,40,21,1,FBP-PT-18.png,0.37,1.2,22,0.75,,,,,,,,,,,,,,,,,,,,,,,,,,,,,,,,,,,,,,,,,,,,,
,,,,,V3_057,18,female,2024-11-09_15h20.49.779,jersey_experiment_5_v3,2023.2.2,Win32,85.47008547,,,,,,,,,,,,,,,,203.1407,204.4346,204.4346,206.3875,return,0.7198,,61.19791667,0,41,41,32,1,FBP-OG-17.png,0.4,1.2,33,0.5,,,,,,,,,,,,,,,,,,,,,,,,,,,,,,,,,,,,,,,,,,,,,
,,,,,V3_057,18,female,2024-11-09_15h20.49.779,jersey_experiment_5_v3,2023.2.2,Win32,85.47008547,,,,,,,,,,,,,,,,206.3878,207.9407,207.9408,209.8819,return,0.6913,,25.52083333,0,42,42,45,1,FBP-RB-17.png,0.35,1.2,46,0.75,,,,,,,,,,,,,,,,,,,,,,,,,,,,,,,,,,,,,,,,,,,,,
,,,,,V3_057,18,female,2024-11-09_15h20.49.779,jersey_experiment_5_v3,2023.2.2,Win32,85.47008547,,,,,,,,,,,,,,,,209.8821,211.4348,211.4349,212.9643,return,0.5886,,25.52083333,0,43,43,46,1,FBP-RB-17.png,0.37,1.2,47,0.75,,,,,,,,,,,,,,,,,,,,,,,,,,,,,,,,,,,,,,,,,,,,,
,,,,,V3_057,18,female,2024-11-09_15h20.49.779,jersey_experiment_5_v3,2023.2.2,Win32,85.47008547,,,,,,,,,,,,,,,,212.9646,214.5172,214.5173,216.2585,return,0.6121,,66.92708333,0,44,44,47,1,FBP-RB-17.png,0.4,1.2,48,0.75,,,,,,,,,,,,,,,,,,,,,,,,,,,,,,,,,,,,,,,,,,,,,
,,,,,V3_057,18,female,2024-11-09_15h20.49.779,jersey_experiment_5_v3,2023.2.2,Win32,85.47008547,,,,,,,,,,,,,,,,216.2588,217.8115,217.8116,219.2939,return,0.6263,,98.17708333,0,45,45,29,1,FBP-PT-19.png,0.45,1.2,30,0.75,,,,,,,,,,,,,,,,,,,,,,,,,,,,,,,,,,,,,,,,,,,,,
,,,,,V3_057,18,female,2024-11-09_15h20.49.779,jersey_experiment_5_v3,2023.2.2,Win32,85.47008547,,,,,,,,,,,,,,,,219.2942,220.847,220.847,222.5646,return,0.6454,,3.125,0,46,46,20,1,FBP-PT-18.png,0.35,1.2,21,0.75,,,,,,,,,,,,,,,,,,,,,,,,,,,,,,,,,,,,,,,,,,,,,
,,,,,V3_057,18,female,2024-11-09_15h20.49.779,jersey_experiment_5_v3,2023.2.2,Win32,85.47008547,,,,,,,,,,,,,,,,222.5649,224.1176,224.1176,226.3884,return,0.7922,,73.046875,0,47,47,2,1,FBP-YG-71.png,0.4,1.2,3,0.75,,,,,,,,,,,,,,,,,,,,,,,,,,,,,,,,,,,,,,,,,,,,,
,,,,,V3_057,18,female,2024-11-09_15h20.49.779,jersey_experiment_5_v3,2023.2.2,Win32,85.47008547,,,,,,,,,,,,,,,,226.3886,227.9414,227.9415,229.7648,return,0.6591,,95.57291667,0,48,48,53,1,FBP-RB-18.png,0.43,1.2,54,0.75,,,,,,,,,,,,,,,,,,,,,,,,,,,,,,,,,,,,,,,,,,,,,
,,,,,V3_057,18,female,2024-11-09_15h20.49.779,jersey_experiment_5_v3,2023.2.2,Win32,85.47008547,,,,,,,,,,,,,,,,229.7651,231.059,231.059,234.2357,return,2.0647,,84.63541667,0,49,49,42,1,FBP-OG-19.png,0.4,1.2,43,0.5,,,,,,,,,,,,,,,,,,,,,,,,,,,,,,,,,,,,,,,,,,,,,
,,,,,V3_057,18,female,2024-11-09_15h20.49.779,jersey_experiment_5_v3,2023.2.2,Win32,85.47008547,,,,,,,,,,,,,,,,234.236,235.7886,235.7887,237.2828,return,0.6965,,99.86979167,0,50,50,14,1,FBP-YG-91.png,0.45,1.2,15,0.75,,,,,,,,,,,,,,,,,,,,,,,,,,,,,,,,,,,,,,,,,,,,,
,,,,,V3_057,18,female,2024-11-09_15h20.49.779,jersey_experiment_5_v3,2023.2.2,Win32,85.47008547,,,,,,,,,,,,,,,,237.283,238.8357,238.8357,240.0829,return,0.562,,99.34895833,0,51,51,24,1,FBP-PT-18.png,0.45,1.2,25,0.75,,,,,,,,,,,,,,,,,,,,,,,,,,,,,,,,,,,,,,,,,,,,,
,,,,,V3_057,18,female,2024-11-09_15h20.49.779,jersey_experiment_5_v3,2023.2.2,Win32,85.47008547,,,,,,,,,,,,,,,,240.0832,241.6361,241.6361,244.1535,return,0.6403,,50.390625,0,52,52,7,1,FBP-YG-81.png,0.4,1.2,8,0.75,,,,,,,,,,,,,,,,,,,,,,,,,,,,,,,,,,,,,,,,,,,,,
,,,,,V3_057,18,female,2024-11-09_15h20.49.779,jersey_experiment_5_v3,2023.2.2,Win32,85.47008547,,,,,,,,,,,,,,,,244.1537,245.7068,245.7068,248.0009,return,0.6605,,23.69791667,0,53,53,55,1,FBP-RB-19.png,0.35,1.2,56,0.75,,,,,,,,,,,,,,,,,,,,,,,,,,,,,,,,,,,,,,,,,,,,,
,,,,,V3_057,18,female,2024-11-09_15h20.49.779,jersey_experiment_5_v3,2023.2.2,Win32,85.47008547,,,,,,,,,,,,,,,,248.0012,249.5538,249.5538,251.9068,return,0.8942,,99.34895833,0,54,54,19,1,FBP-PT-17.png,0.45,1.2,20,0.75,,,,,,,,,,,,,,,,,,,,,,,,,,,,,,,,,,,,,,,,,,,,,
,,,,,V3_057,18,female,2024-11-09_15h20.49.779,jersey_experiment_5_v3,2023.2.2,Win32,85.47008547,,,,,,,,,,,,,,,,251.9071,253.2011,253.2012,255.26,return,0.85,,86.84895833,0,55,55,43,1,FBP-OG-19.png,0.43,1.2,44,0.5,,,,,,,,,,,,,,,,,,,,,,,,,,,,,,,,,,,,,,,,,,,,,
,,,,,V3_057,18,female,2024-11-09_15h20.49.779,jersey_experiment_5_v3,2023.2.2,Win32,85.47008547,,,,,,,,,,,,,,,,255.2603,256.813,256.8131,258.766,return,0.709,,48.95833333,0,56,56,16,1,FBP-PT-17.png,0.37,1.2,17,0.75,,,,,,,,,,,,,,,,,,,,,,,,,,,,,,,,,,,,,,,,,,,,,
,,,,,V3_057,18,female,2024-11-09_15h20.49.779,jersey_experiment_5_v3,2023.2.2,Win32,85.47008547,,,,,,,,,,,,,,,,258.7662,260.3191,260.3191,261.7307,return,0.1444,,62.5,0,57,57,27,1,FBP-PT-19.png,0.4,1.2,28,0.75,,,,,,,,,,,,,,,,,,,,,,,,,,,,,,,,,,,,,,,,,,,,,
,,,,,V3_057,18,female,2024-11-09_15h20.49.779,jersey_experiment_5_v3,2023.2.2,Win32,85.47008547,,,,,,,,,,,,,,,,261.7309,263.0252,263.0252,263.9778,return,0.1733,,87.23958333,0,58,58,33,1,FBP-OG-17.png,0.43,1.2,34,0.5,,,,,,,,,,,,,,,,,,,,,,,,,,,,,,,,,,,,,,,,,,,,,
,,,,,V3_057,18,female,2024-11-09_15h20.49.779,jersey_experiment_5_v3,2023.2.2,Win32,85.47008547,,,,,,,,,,,,,,,,263.978,265.5192,265.5192,266.8367,return,0.4965,,27.99479167,0,59,59,50,1,FBP-RB-18.png,0.35,1.2,51,0.75,,,,,,,,,,,,,,,,,,,,,,,,,,,,,,,,,,,,,,,,,,,,,
,,,,,V3_057,18,female,2024-11-09_15h20.49.779,jersey_experiment_5_v3,2023.2.2,Win32,85.47008547,,,,,,,,,,,,,,,,266.8382,268.39,268.3901,269.3781,return,0.1657,,99.609375,,,,,,FBP-PT-71.png,0.45,1.2,20,0.75,0,0,0,19,1,,,,,,,,,,,,,,,,,,,,,,,,,,,,,,,,,,,,,,,,
,,,,,V3_057,18,female,2024-11-09_15h20.49.779,jersey_experiment_5_v3,2023.2.2,Win32,85.47008547,,,,,,,,,,,,,,,,269.3784,270.6721,270.6722,271.6959,return,0.0965,,74.609375,,,,,,FBP-OG-81.png,0.4,1.2,38,0.5,0,1,1,37,1,,,,,,,,,,,,,,,,,,,,,,,,,,,,,,,,,,,,,,,,
,,,,,V3_057,18,female,2024-11-09_15h20.49.779,jersey_experiment_5_v3,2023.2.2,Win32,85.47008547,,,,,,,,,,,,,,,,271.6961,273.249,273.249,274.8137,return,0.474,,39.84375,,,,,,FBP-PT-91.png,0.35,1.2,26,0.75,0,2,2,25,1,,,,,,,,,,,,,,,,,,,,,,,,,,,,,,,,,,,,,,,,
,,,,,V3_057,18,female,2024-11-09_15h20.49.779,jersey_experiment_5_v3,2023.2.2,Win32,85.47008547,,,,,,,,,,,,,,,,274.8138,276.1079,276.108,277.5549,return,0.1279,,99.21875,,,,,,FBP-OG-91.png,0.45,1.2,45,0.5,0,3,3,44,1,,,,,,,,,,,,,,,,,,,,,,,,,,,,,,,,,,,,,,,,
,,,,,V3_057,18,female,2024-11-09_15h20.49.779,jersey_experiment_5_v3,2023.2.2,Win32,85.47008547,,,,,,,,,,,,,,,,277.5552,279.108,279.1081,280.1315,return,0.165,,75.26041667,,,,,,FBP-RB-91.png,0.4,1.2,58,0.75,0,4,4,57,1,,,,,,,,,,,,,,,,,,,,,,,,,,,,,,,,,,,,,,,,
,,,,,V3_057,18,female,2024-11-09_15h20.49.779,jersey_experiment_5_v3,2023.2.2,Win32,85.47008547,,,,,,,,,,,,,,,,280.1317,281.4255,281.4256,282.461,return,0.0982,,61.71875,,,,,,FBP-OG-71.png,0.35,1.2,31,0.5,0,5,5,30,1,,,,,,,,,,,,,,,,,,,,,,,,,,,,,,,,,,,,,,,,
,,,,,V3_057,18,female,2024-11-09_15h20.49.779,jersey_experiment_5_v3,2023.2.2,Win32,85.47008547,,,,,,,,,,,,,,,,282.4612,284.014,284.0141,284.9434,return,0.1309,,97.00520833,,,,,,FBP-YG-19.png,0.45,1.2,15,0.75,0,6,6,14,1,,,,,,,,,,,,,,,,,,,,,,,,,,,,,,,,,,,,,,,,
,,,,,V3_057,18,female,2024-11-09_15h20.49.779,jersey_experiment_5_v3,2023.2.2,Win32,85.47008547,,,,,,,,,,,,,,,,284.9436,286.2375,286.2375,287.5318,return,0.1246,,60.67708333,,,,,,FBP-OG-71.png,0.37,1.2,32,0.5,0,7,7,31,1,,,,,,,,,,,,,,,,,,,,,,,,,,,,,,,,,,,,,,,,
,,,,,V3_057,18,female,2024-11-09_15h20.49.779,jersey_experiment_5_v3,2023.2.2,Win32,85.47008547,,,,,,,,,,,,,,,,287.532,289.0848,289.0848,290.3202,return,0.2257,,99.73958333,,,,,,FBP-YG-18.png,0.45,1.2,10,0.75,0,8,8,9,1,,,,,,,,,,,,,,,,,,,,,,,,,,,,,,,,,,,,,,,,
,,,,,V3_057,18,female,2024-11-09_15h20.49.779,jersey_experiment_5_v3,2023.2.2,Win32,85.47008547,,,,,,,,,,,,,,,,290.3204,291.8731,291.8732,294.0026,return,0.306,,99.86979167,,,,,,FBP-RB-91.png,0.45,1.2,60,0.75,0,9,9,59,1,,,,,,,,,,,,,,,,,,,,,,,,,,,,,,,,,,,,,,,,
,,,,,V3_057,18,female,2024-11-09_15h20.49.779,jersey_experiment_5_v3,2023.2.2,Win32,85.47008547,,,,,,,,,,,,,,,,294.0028,295.5556,295.5556,296.6733,return,0.1798,,88.28125,,,,,,FBP-PT-71.png,0.43,1.2,19,0.75,0,10,10,18,1,,,,,,,,,,,,,,,,,,,,,,,,,,,,,,,,,,,,,,,,
,,,,,V3_057,18,female,2024-11-09_15h20.49.779,jersey_experiment_5_v3,2023.2.2,Win32,85.47008547,,,,,,,,,,,,,,,,296.6735,298.2264,298.2264,299.9792,return,0.1953,,79.81770833,,,,,,FBP-PT-71.png,0.4,1.2,18,0.75,0,11,11,17,1,,,,,,,,,,,,,,,,,,,,,,,,,,,,,,,,,,,,,,,,
,,,,,V3_057,18,female,2024-11-09_15h20.49.779,jersey_experiment_5_v3,2023.2.2,Win32,85.47008547,,,,,,,,,,,,,,,,299.9795,301.5322,301.5323,303.344,return,0.285,,29.16666667,,,,,,FBP-PT-81.png,0.35,1.2,21,0.75,0,12,12,20,1,,,,,,,,,,,,,,,,,,,,,,,,,,,,,,,,,,,,,,,,
,,,,,V3_057,18,female,2024-11-09_15h20.49.779,jersey_experiment_5_v3,2023.2.2,Win32,85.47008547,,,,,,,,,,,,,,,,303.3442,304.8972,304.8973,305.6146,return,0.1676,,16.796875,,,,,,FBP-RB-71.png,0.35,1.2,46,0.75,0,13,13,45,1,,,,,,,,,,,,,,,,,,,,,,,,,,,,,,,,,,,,,,,,
,,,,,V3_057,18,female,2024-11-09_15h20.49.779,jersey_experiment_5_v3,2023.2.2,Win32,85.47008547,,,,,,,,,,,,,,,,305.615,307.1679,307.168,308.0149,return,0.1651,,81.25,,,,,,FBP-RB-81.png,0.45,1.2,55,0.75,0,14,14,54,1,,,,,,,,,,,,,,,,,,,,,,,,,,,,,,,,,,,,,,,,
,,,,,V3_057,18,female,2024-11-09_15h20.49.779,jersey_experiment_5_v3,2023.2.2,Win32,85.47008547,,,,,,,,,,,,,,,,308.0151,309.568,309.568,310.2855,return,0.1226,,69.66145833,,,,,,FBP-YG-18.png,0.37,1.2,7,0.75,0,15,15,6,1,,,,,,,,,,,,,,,,,,,,,,,,,,,,,,,,,,,,,,,,
,,,,,V3_057,18,female,2024-11-09_15h20.49.779,jersey_experiment_5_v3,2023.2.2,Win32,85.47008547,,,,,,,,,,,,,,,,310.2857,311.8269,311.8269,312.6855,return,0.1932,,54.42708333,,,,,,FBP-RB-71.png,0.37,1.2,47,0.75,0,16,16,46,1,,,,,,,,,,,,,,,,,,,,,,,,,,,,,,,,,,,,,,,,
,,,,,V3_057,18,female,2024-11-09_15h20.49.779,jersey_experiment_5_v3,2023.2.2,Win32,85.47008547,,,,,,,,,,,,,,,,312.6858,314.2387,314.2387,315.0739,return,0.1415,,87.23958333,,,,,,FBP-RB-71.png,0.43,1.2,49,0.75,0,17,17,48,1,,,,,,,,,,,,,,,,,,,,,,,,,,,,,,,,,,,,,,,,
,,,,,V3_057,18,female,2024-11-09_15h20.49.779,jersey_experiment_5_v3,2023.2.2,Win32,85.47008547,,,,,,,,,,,,,,,,315.0742,316.6271,316.6271,318.0975,return,0.1991,,28.38541667,,,,,,FBP-RB-91.png,0.35,1.2,56,0.75,0,18,18,55,1,,,,,,,,,,,,,,,,,,,,,,,,,,,,,,,,,,,,,,,,
,,,,,V3_057,18,female,2024-11-09_15h20.49.779,jersey_experiment_5_v3,2023.2.2,Win32,85.47008547,,,,,,,,,,,,,,,,318.0978,319.3916,319.3917,320.2859,return,0.1088,,79.03645833,,,,,,FBP-OG-81.png,0.43,1.2,39,0.5,0,19,19,38,1,,,,,,,,,,,,,,,,,,,,,,,,,,,,,,,,,,,,,,,,
,,,,,V3_057,18,female,2024-11-09_15h20.49.779,jersey_experiment_5_v3,2023.2.2,Win32,85.47008547,,,,,,,,,,,,,,,,320.2861,321.8389,321.839,322.7683,return,0.1084,,98.69791667,,,,,,FBP-RB-71.png,0.45,1.2,50,0.75,0,20,20,49,1,,,,,,,,,,,,,,,,,,,,,,,,,,,,,,,,,,,,,,,,
,,,,,V3_057,18,female,2024-11-09_15h20.49.779,jersey_experiment_5_v3,2023.2.2,Win32,85.47008547,,,,,,,,,,,,,,,,322.7686,324.3214,324.3215,325.1566,return,0.1649,,77.34375,,,,,,FBP-YG-18.png,0.4,1.2,8,0.75,0,21,21,7,1,,,,,,,,,,,,,,,,,,,,,,,,,,,,,,,,,,,,,,,,
,,,,,V3_057,18,female,2024-11-09_15h20.49.779,jersey_experiment_5_v3,2023.2.2,Win32,85.47008547,,,,,,,,,,,,,,,,325.1568,326.7096,326.7097,328.0156,return,0.2034,,99.08854167,,,,,,FBP-PT-81.png,0.45,1.2,25,0.75,0,22,22,24,1,,,,,,,,,,,,,,,,,,,,,,,,,,,,,,,,,,,,,,,,
,,,,,V3_057,18,female,2024-11-09_15h20.49.779,jersey_experiment_5_v3,2023.2.2,Win32,85.47008547,,,,,,,,,,,,,,,,328.0159,329.5687,329.5687,330.6392,return,0.1545,,69.53125,,,,,,FBP-YG-18.png,0.43,1.2,9,0.75,0,23,23,8,1,,,,,,,,,,,,,,,,,,,,,,,,,,,,,,,,,,,,,,,,
,,,,,V3_057,18,female,2024-11-09_15h20.49.779,jersey_experiment_5_v3,2023.2.2,Win32,85.47008547,,,,,,,,,,,,,,,,330.6393,332.1922,332.1922,333.0863,return,0.1296,,60.546875,,,,,,FBP-PT-91.png,0.4,1.2,28,0.75,0,24,24,27,1,,,,,,,,,,,,,,,,,,,,,,,,,,,,,,,,,,,,,,,,
,,,,,V3_057,18,female,2024-11-09_15h20.49.779,jersey_experiment_5_v3,2023.2.2,Win32,85.47008547,,,,,,,,,,,,,,,,333.0866,334.6394,334.6394,335.6511,return,0.1644,,94.40104167,,,,,,FBP-PT-91.png,0.43,1.2,29,0.75,0,25,25,28,1,,,,,,,,,,,,,,,,,,,,,,,,,,,,,,,,,,,,,,,,
,,,,,V3_057,18,female,2024-11-09_15h20.49.779,jersey_experiment_5_v3,2023.2.2,Win32,85.47008547,,,,,,,,,,,,,,,,335.6514,336.9454,336.9455,338.1101,return,0.1439,,16.92708333,,,,,,FBP-OG-81.png,0.35,1.2,36,0.5,0,26,26,35,1,,,,,,,,,,,,,,,,,,,,,,,,,,,,,,,,,,,,,,,,
,,,,,V3_057,18,female,2024-11-09_15h20.49.779,jersey_experiment_5_v3,2023.2.2,Win32,85.47008547,,,,,,,,,,,,,,,,338.1103,339.6633,339.6633,340.7337,return,0.0988,,28.90625,,,,,,FBP-PT-81.png,0.37,1.2,22,0.75,0,27,27,21,1,,,,,,,,,,,,,,,,,,,,,,,,,,,,,,,,,,,,,,,,
,,,,,V3_057,18,female,2024-11-09_15h20.49.779,jersey_experiment_5_v3,2023.2.2,Win32,85.47008547,,,,,,,,,,,,,,,,340.7341,342.2867,342.2868,345.2986,return,0.6911,,44.53125,,,,,,FBP-RB-91.png,0.37,1.2,57,0.75,0,28,28,56,1,,,,,,,,,,,,,,,,,,,,,,,,,,,,,,,,,,,,,,,,
,,,,,V3_057,18,female,2024-11-09_15h20.49.779,jersey_experiment_5_v3,2023.2.2,Win32,85.47008547,,,,,,,,,,,,,,,,345.299,346.5927,346.5929,347.7928,return,0.1194,,49.21875,,,,,,FBP-OG-71.png,0.4,1.2,33,0.5,0,29,29,32,1,,,,,,,,,,,,,,,,,,,,,,,,,,,,,,,,,,,,,,,,
,,,,,V3_057,18,female,2024-11-09_15h20.49.779,jersey_experiment_5_v3,2023.2.2,Win32,85.47008547,,,,,,,,,,,,,,,,347.793,349.3459,349.3459,350.2046,return,0.1823,,30.98958333,,,,,,FBP-YG-18.png,0.35,1.2,6,0.75,0,30,30,5,1,,,,,,,,,,,,,,,,,,,,,,,,,,,,,,,,,,,,,,,,
,,,,,V3_057,18,female,2024-11-09_15h20.49.779,jersey_experiment_5_v3,2023.2.2,Win32,85.47008547,,,,,,,,,,,,,,,,350.2048,351.7576,351.7577,352.7341,return,0.0834,,91.92708333,,,,,,FBP-YG-17.png,0.45,1.2,5,0.75,0,31,31,4,1,,,,,,,,,,,,,,,,,,,,,,,,,,,,,,,,,,,,,,,,
,,,,,V3_057,18,female,2024-11-09_15h20.49.779,jersey_experiment_5_v3,2023.2.2,Win32,85.47008547,,,,,,,,,,,,,,,,352.7343,354.0282,354.0283,355.0049,return,0.167,,75.13020833,,,,,,FBP-OG-91.png,0.4,1.2,43,0.5,0,32,32,42,1,,,,,,,,,,,,,,,,,,,,,,,,,,,,,,,,,,,,,,,,
,,,,,V3_057,18,female,2024-11-09_15h20.49.779,jersey_experiment_5_v3,2023.2.2,Win32,85.47008547,,,,,,,,,,,,,,,,355.0051,356.299,356.2991,357.4754,return,0.1179,,88.671875,,,,,,FBP-OG-91.png,0.37,1.2,42,0.5,0,33,33,41,1,,,,,,,,,,,,,,,,,,,,,,,,,,,,,,,,,,,,,,,,
,,,,,V3_057,18,female,2024-11-09_15h20.49.779,jersey_experiment_5_v3,2023.2.2,Win32,85.47008547,,,,,,,,,,,,,,,,357.4757,359.0287,359.0287,359.7696,return,0.1133,,98.69791667,,,,,,FBP-PT-81.png,0.43,1.2,24,0.75,0,34,34,23,1,,,,,,,,,,,,,,,,,,,,,,,,,,,,,,,,,,,,,,,,
,,,,,V3_057,18,female,2024-11-09_15h20.49.779,jersey_experiment_5_v3,2023.2.2,Win32,85.47008547,,,,,,,,,,,,,,,,359.7698,361.3227,361.3228,362.2874,return,0.1207,,77.21354167,,,,,,FBP-PT-71.png,0.37,1.2,17,0.75,0,35,35,16,1,,,,,,,,,,,,,,,,,,,,,,,,,,,,,,,,,,,,,,,,
,,,,,V3_057,18,female,2024-11-09_15h20.49.779,jersey_experiment_5_v3,2023.2.2,Win32,85.47008547,,,,,,,,,,,,,,,,362.2876,363.5815,363.5816,364.6993,return,0.1603,,99.73958333,,,,,,FBP-OG-71.png,0.43,1.2,34,0.5,0,36,36,33,1,,,,,,,,,,,,,,,,,,,,,,,,,,,,,,,,,,,,,,,,
,,,,,V3_057,18,female,2024-11-09_15h20.49.779,jersey_experiment_5_v3,2023.2.2,Win32,85.47008547,,,,,,,,,,,,,,,,364.6995,366.2524,366.2524,367.0287,return,0.0708,,17.44791667,,,,,,FBP-RB-81.png,0.35,1.2,51,0.75,0,37,37,50,1,,,,,,,,,,,,,,,,,,,,,,,,,,,,,,,,,,,,,,,,
,,,,,V3_057,18,female,2024-11-09_15h20.49.779,jersey_experiment_5_v3,2023.2.2,Win32,85.47008547,,,,,,,,,,,,,,,,367.0291,368.582,368.582,369.3699,return,0.1024,,28.77604167,,,,,,FBP-YG-17.png,0.35,1.2,1,0.75,0,38,38,0,1,,,,,,,,,,,,,,,,,,,,,,,,,,,,,,,,,,,,,,,,
,,,,,V3_057,18,female,2024-11-09_15h20.49.779,jersey_experiment_5_v3,2023.2.2,Win32,85.47008547,,,,,,,,,,,,,,,,369.3702,370.923,370.9231,372.4172,return,0.1087,,41.14583333,,,,,,FBP-RB-81.png,0.37,1.2,52,0.75,0,39,39,51,1,,,,,,,,,,,,,,,,,,,,,,,,,,,,,,,,,,,,,,,,
,,,,,V3_057,18,female,2024-11-09_15h20.49.779,jersey_experiment_5_v3,2023.2.2,Win32,85.47008547,,,,,,,,,,,,,,,,372.4175,373.9703,373.9704,374.8291,return,0.1104,,76.953125,,,,,,FBP-PT-91.png,0.45,1.2,30,0.75,0,40,40,29,1,,,,,,,,,,,,,,,,,,,,,,,,,,,,,,,,,,,,,,,,
,,,,,V3_057,18,female,2024-11-09_15h20.49.779,jersey_experiment_5_v3,2023.2.2,Win32,85.47008547,,,,,,,,,,,,,,,,374.8294,376.1234,376.1234,377.488,return,0.1519,,99.609375,,,,,,FBP-OG-71.png,0.45,1.2,35,0.5,0,41,41,34,1,,,,,,,,,,,,,,,,,,,,,,,,,,,,,,,,,,,,,,,,
,,,,,V3_057,18,female,2024-11-09_15h20.49.779,jersey_experiment_5_v3,2023.2.2,Win32,85.47008547,,,,,,,,,,,,,,,,377.4882,379.0411,379.0411,380.0292,return,0.1809,,76.04166667,,,,,,FBP-PT-81.png,0.4,1.2,23,0.75,0,42,42,22,1,,,,,,,,,,,,,,,,,,,,,,,,,,,,,,,,,,,,,,,,
,,,,,V3_057,18,female,2024-11-09_15h20.49.779,jersey_experiment_5_v3,2023.2.2,Win32,85.47008547,,,,,,,,,,,,,,,,380.0293,381.5823,381.5823,383.4882,return,0.1994,,47.78645833,,,,,,FBP-PT-71.png,0.35,1.2,16,0.75,0,43,43,15,1,,,,,,,,,,,,,,,,,,,,,,,,,,,,,,,,,,,,,,,,
,,,,,V3_057,18,female,2024-11-09_15h20.49.779,jersey_experiment_5_v3,2023.2.2,Win32,85.47008547,,,,,,,,,,,,,,,,383.4885,385.0411,385.0411,386.4649,return,0.1414,,98.828125,,,,,,FBP-YG-19.png,0.43,1.2,14,0.75,0,44,44,13,1,,,,,,,,,,,,,,,,,,,,,,,,,,,,,,,,,,,,,,,,
,,,,,V3_057,18,female,2024-11-09_15h20.49.779,jersey_experiment_5_v3,2023.2.2,Win32,85.47008547,,,,,,,,,,,,,,,,386.4651,388.0178,388.0179,390.818,return,1.3899,,66.015625,,,,,,FBP-YG-17.png,0.43,1.2,4,0.75,0,45,45,3,1,,,,,,,,,,,,,,,,,,,,,,,,,,,,,,,,,,,,,,,,
,,,,,V3_057,18,female,2024-11-09_15h20.49.779,jersey_experiment_5_v3,2023.2.2,Win32,85.47008547,,,,,,,,,,,,,,,,390.8182,392.112,392.1121,393.1827,return,0.1214,,99.73958333,,,,,,FBP-OG-81.png,0.45,1.2,40,0.5,0,46,46,39,1,,,,,,,,,,,,,,,,,,,,,,,,,,,,,,,,,,,,,,,,
,,,,,V3_057,18,female,2024-11-09_15h20.49.779,jersey_experiment_5_v3,2023.2.2,Win32,85.47008547,,,,,,,,,,,,,,,,393.183,394.7356,394.7357,396.5475,return,0.118,,98.4375,,,,,,FBP-RB-81.png,0.4,1.2,53,0.75,0,47,47,52,1,,,,,,,,,,,,,,,,,,,,,,,,,,,,,,,,,,,,,,,,
,,,,,V3_057,18,female,2024-11-09_15h20.49.779,jersey_experiment_5_v3,2023.2.2,Win32,85.47008547,,,,,,,,,,,,,,,,396.5477,398.1005,398.1006,399.0066,return,0.1183,,81.51041667,,,,,,FBP-RB-71.png,0.4,1.2,48,0.75,0,48,48,47,1,,,,,,,,,,,,,,,,,,,,,,,,,,,,,,,,,,,,,,,,
,,,,,V3_057,18,female,2024-11-09_15h20.49.779,jersey_experiment_5_v3,2023.2.2,Win32,85.47008547,,,,,,,,,,,,,,,,399.0068,400.3006,400.3007,401.277,return,0.1329,,26.171875,,,,,,FBP-OG-91.png,0.35,1.2,41,0.5,0,49,49,40,1,,,,,,,,,,,,,,,,,,,,,,,,,,,,,,,,,,,,,,,,
,,,,,V3_057,18,female,2024-11-09_15h20.49.779,jersey_experiment_5_v3,2023.2.2,Win32,85.47008547,,,,,,,,,,,,,,,,401.2772,402.83,402.8301,404.6183,return,0.8418,,20.83333333,,,,,,FBP-PT-91.png,0.37,1.2,27,0.75,0,50,50,26,1,,,,,,,,,,,,,,,,,,,,,,,,,,,,,,,,,,,,,,,,
,,,,,V3_057,18,female,2024-11-09_15h20.49.779,jersey_experiment_5_v3,2023.2.2,Win32,85.47008547,,,,,,,,,,,,,,,,404.6186,406.1715,406.1715,407.195,return,0.1686,,29.16666667,,,,,,FBP-YG-17.png,0.37,1.2,2,0.75,0,51,51,1,1,,,,,,,,,,,,,,,,,,,,,,,,,,,,,,,,,,,,,,,,
,,,,,V3_057,18,female,2024-11-09_15h20.49.779,jersey_experiment_5_v3,2023.2.2,Win32,85.47008547,,,,,,,,,,,,,,,,407.1952,408.7484,408.7484,409.7127,return,0.2119,,78.90625,,,,,,FBP-RB-91.png,0.43,1.2,59,0.75,0,52,52,58,1,,,,,,,,,,,,,,,,,,,,,,,,,,,,,,,,,,,,,,,,
,,,,,V3_057,18,female,2024-11-09_15h20.49.779,jersey_experiment_5_v3,2023.2.2,Win32,85.47008547,,,,,,,,,,,,,,,,409.7129,411.2657,411.2658,413.0187,return,0.11,,60.02604167,,,,,,FBP-YG-19.png,0.37,1.2,12,0.75,0,53,53,11,1,,,,,,,,,,,,,,,,,,,,,,,,,,,,,,,,,,,,,,,,
,,,,,V3_057,18,female,2024-11-09_15h20.49.779,jersey_experiment_5_v3,2023.2.2,Win32,85.47008547,,,,,,,,,,,,,,,,413.019,414.5719,414.5719,415.1953,return,0.0896,,80.078125,,,,,,FBP-RB-81.png,0.43,1.2,54,0.75,0,54,54,53,1,,,,,,,,,,,,,,,,,,,,,,,,,,,,,,,,,,,,,,,,
,,,,,V3_057,18,female,2024-11-09_15h20.49.779,jersey_experiment_5_v3,2023.2.2,Win32,85.47008547,,,,,,,,,,,,,,,,415.1956,416.4895,416.4895,417.2777,return,0.1324,,94.79166667,,,,,,FBP-OG-91.png,0.43,1.2,44,0.5,0,55,55,43,1,,,,,,,,,,,,,,,,,,,,,,,,,,,,,,,,,,,,,,,,
,,,,,V3_057,18,female,2024-11-09_15h20.49.779,jersey_experiment_5_v3,2023.2.2,Win32,85.47008547,,,,,,,,,,,,,,,,417.2779,418.8307,418.8307,419.619,return,0.2328,,97.13541667,,,,,,FBP-YG-19.png,0.4,1.2,13,0.75,0,56,56,12,1,,,,,,,,,,,,,,,,,,,,,,,,,,,,,,,,,,,,,,,,
,,,,,V3_057,18,female,2024-11-09_15h20.49.779,jersey_experiment_5_v3,2023.2.2,Win32,85.47008547,,,,,,,,,,,,,,,,419.6192,420.9133,420.9133,421.7955,return,0.1413,,72.265625,,,,,,FBP-OG-81.png,0.37,1.2,37,0.5,0,57,57,36,1,,,,,,,,,,,,,,,,,,,,,,,,,,,,,,,,,,,,,,,,
,,,,,V3_057,18,female,2024-11-09_15h20.49.779,jersey_experiment_5_v3,2023.2.2,Win32,85.47008547,,,,,,,,,,,,,,,,421.7958,423.3484,423.3484,424.0427,return,0.1709,,64.58333333,,,,,,FBP-YG-19.png,0.35,1.2,11,0.75,0,58,58,10,1,,,,,,,,,,,,,,,,,,,,,,,,,,,,,,,,,,,,,,,,
,,,,,V3_057,18,female,2024-11-09_15h20.49.779,jersey_experiment_5_v3,2023.2.2,Win32,85.47008547,,,,,,,,,,,,,,,,424.0429,425.5957,425.5957,427.3251,return,0.131,,64.453125,,,,,,FBP-YG-17.png,0.4,1.2,3,0.75,0,59,59,2,1,,,,,,,,,,,,,,,,,,,,,,,,,,,,,,,,,,,,,,,,
,,,,,V3_057,18,female,2024-11-09_15h20.49.779,jersey_experiment_5_v3,2023.2.2,Win32,85.47008547,,,,,,,,,,,,,,,,,,,,,,,,,,,,,,,,,,,,,,,427.3254,547.3179,,,,,,,,,,,,,,,,,,,,,,,,,,,,,,,,,,,,,,
,,,,,V3_057,18,female,2024-11-09_15h20.49.779,jersey_experiment_5_v3,2023.2.2,Win32,85.47008547,,,,,,,,,,,,,,,,,,,,,,,,,,,,,,,,,,,,,,,,,547.3179,548.8356,return,1.5045,,,,,,,,,,,,,,,,,,,,,,,,,,,,,,,,,,
,,,,,V3_057,18,female,2024-11-09_15h20.49.779,jersey_experiment_5_v3,2023.2.2,Win32,85.47008547,,,,,,,,,,,,,,,,548.8369,550.1297,550.1297,552.2591,return,0.9315,,28.38541667,,,,,,FBP-PT-17.png,0.37,1.2,17,0.5,,,,,,,,,,,,,0,0,0,16,1,,,,,,,,,,,,,,,,,,,,,,,,,,,,
,,,,,V3_057,18,female,2024-11-09_15h20.49.779,jersey_experiment_5_v3,2023.2.2,Win32,85.47008547,,,,,,,,,,,,,,,,552.2595,553.5533,553.5534,554.8004,return,0.0927,,42.70833333,,,,,,FBP-RB-18.png,0.37,1.2,52,0.5,,,,,,,,,,,,,0,1,1,51,1,,,,,,,,,,,,,,,,,,,,,,,,,,,,
,,,,,V3_057,18,female,2024-11-09_15h20.49.779,jersey_experiment_5_v3,2023.2.2,Win32,85.47008547,,,,,,,,,,,,,,,,554.8007,556.0946,556.0948,557.2476,return,0.2745,,91.92708333,,,,,,FBP-YG-81.png,0.45,1.2,10,0.5,,,,,,,,,,,,,0,2,2,9,1,,,,,,,,,,,,,,,,,,,,,,,,,,,,
,,,,,V3_057,18,female,2024-11-09_15h20.49.779,jersey_experiment_5_v3,2023.2.2,Win32,85.47008547,,,,,,,,,,,,,,,,557.2479,558.8006,558.8007,559.7538,return,0.2674,,31.25,,,,,,FBP-OG-19.png,0.35,1.2,41,0.75,,,,,,,,,,,,,0,3,3,40,1,,,,,,,,,,,,,,,,,,,,,,,,,,,,
,,,,,V3_057,18,female,2024-11-09_15h20.49.779,jersey_experiment_5_v3,2023.2.2,Win32,85.47008547,,,,,,,,,,,,,,,,559.754,561.0478,561.0478,561.8596,return,0.1157,,54.296875,,,,,,FBP-RB-19.png,0.37,1.2,57,0.5,,,,,,,,,,,,,0,4,4,56,1,,,,,,,,,,,,,,,,,,,,,,,,,,,,
,,,,,V3_057,18,female,2024-11-09_15h20.49.779,jersey_experiment_5_v3,2023.2.2,Win32,85.47008547,,,,,,,,,,,,,,,,561.8598,563.1535,563.1537,563.789,return,0.0981,,58.07291667,,,,,,FBP-RB-19.png,0.35,1.2,56,0.5,,,,,,,,,,,,,0,5,5,55,1,,,,,,,,,,,,,,,,,,,,,,,,,,,,
,,,,,V3_057,18,female,2024-11-09_15h20.49.779,jersey_experiment_5_v3,2023.2.2,Win32,85.47008547,,,,,,,,,,,,,,,,563.7892,565.0833,565.0833,565.9891,return,0.1263,,88.80208333,,,,,,FBP-RB-17.png,0.45,1.2,50,0.5,,,,,,,,,,,,,0,6,6,49,1,,,,,,,,,,,,,,,,,,,,,,,,,,,,
,,,,,V3_057,18,female,2024-11-09_15h20.49.779,jersey_experiment_5_v3,2023.2.2,Win32,85.47008547,,,,,,,,,,,,,,,,565.9894,567.5421,567.5421,568.1892,return,0.0739,,89.32291667,,,,,,FBP-OG-18.png,0.43,1.2,39,0.75,,,,,,,,,,,,,0,7,7,38,1,,,,,,,,,,,,,,,,,,,,,,,,,,,,
,,,,,V3_057,18,female,2024-11-09_15h20.49.779,jersey_experiment_5_v3,2023.2.2,Win32,85.47008547,,,,,,,,,,,,,,,,568.1894,569.4833,569.4833,570.8128,return,0.1938,,67.1875,,,,,,FBP-PT-18.png,0.37,1.2,22,0.5,,,,,,,,,,,,,0,8,8,21,1,,,,,,,,,,,,,,,,,,,,,,,,,,,,
,,,,,V3_057,18,female,2024-11-09_15h20.49.779,jersey_experiment_5_v3,2023.2.2,Win32,85.47008547,,,,,,,,,,,,,,,,570.8131,572.1069,572.107,572.8954,return,0.1563,,90.88541667,,,,,,FBP-RB-18.png,0.43,1.2,54,0.5,,,,,,,,,,,,,0,9,9,53,1,,,,,,,,,,,,,,,,,,,,,,,,,,,,
,,,,,V3_057,18,female,2024-11-09_15h20.49.779,jersey_experiment_5_v3,2023.2.2,Win32,85.47008547,,,,,,,,,,,,,,,,572.8956,574.1892,574.1894,575.1776,return,0.1691,,52.734375,,,,,,FBP-PT-17.png,0.35,1.2,16,0.5,,,,,,,,,,,,,0,10,10,15,1,,,,,,,,,,,,,,,,,,,,,,,,,,,,
,,,,,V3_057,18,female,2024-11-09_15h20.49.779,jersey_experiment_5_v3,2023.2.2,Win32,85.47008547,,,,,,,,,,,,,,,,575.1778,576.7308,576.7308,577.5072,return,0.1403,,76.5625,,,,,,FBP-OG-18.png,0.4,1.2,38,0.75,,,,,,,,,,,,,0,11,11,37,1,,,,,,,,,,,,,,,,,,,,,,,,,,,,
,,,,,V3_057,18,female,2024-11-09_15h20.49.779,jersey_experiment_5_v3,2023.2.2,Win32,85.47008547,,,,,,,,,,,,,,,,577.5075,578.8013,578.8013,579.6954,return,0.1556,,93.75,,,,,,FBP-PT-18.png,0.43,1.2,24,0.5,,,,,,,,,,,,,0,12,12,23,1,,,,,,,,,,,,,,,,,,,,,,,,,,,,
,,,,,V3_057,18,female,2024-11-09_15h20.49.779,jersey_experiment_5_v3,2023.2.2,Win32,85.47008547,,,,,,,,,,,,,,,,579.6957,580.9897,580.9897,581.8131,return,0.1178,,69.01041667,,,,,,FBP-YG-81.png,0.37,1.2,7,0.5,,,,,,,,,,,,,0,13,13,6,1,,,,,,,,,,,,,,,,,,,,,,,,,,,,
,,,,,V3_057,18,female,2024-11-09_15h20.49.779,jersey_experiment_5_v3,2023.2.2,Win32,85.47008547,,,,,,,,,,,,,,,,581.8134,583.3661,583.3661,584.6839,return,0.7476,,59.24479167,,,,,,FBP-OG-17.png,0.35,1.2,31,0.75,,,,,,,,,,,,,0,14,14,30,1,,,,,,,,,,,,,,,,,,,,,,,,,,,,
,,,,,V3_057,18,female,2024-11-09_15h20.49.779,jersey_experiment_5_v3,2023.2.2,Win32,85.47008547,,,,,,,,,,,,,,,,584.6842,585.978,585.978,586.6839,return,0.0753,,82.16145833,,,,,,FBP-YG-91.png,0.43,1.2,14,0.5,,,,,,,,,,,,,0,15,15,13,1,,,,,,,,,,,,,,,,,,,,,,,,,,,,
,,,,,V3_057,18,female,2024-11-09_15h20.49.779,jersey_experiment_5_v3,2023.2.2,Win32,85.47008547,,,,,,,,,,,,,,,,586.6841,588.2253,588.2253,589.0722,return,0.0961,,98.17708333,,,,,,FBP-OG-17.png,0.43,1.2,34,0.75,,,,,,,,,,,,,0,16,16,33,1,,,,,,,,,,,,,,,,,,,,,,,,,,,,
,,,,,V3_057,18,female,2024-11-09_15h20.49.779,jersey_experiment_5_v3,2023.2.2,Win32,85.47008547,,,,,,,,,,,,,,,,589.0725,590.3663,590.3664,591.4842,return,0.0885,,43.22916667,,,,,,FBP-YG-91.png,0.37,1.2,12,0.5,,,,,,,,,,,,,0,17,17,11,1,,,,,,,,,,,,,,,,,,,,,,,,,,,,
,,,,,V3_057,18,female,2024-11-09_15h20.49.779,jersey_experiment_5_v3,2023.2.2,Win32,85.47008547,,,,,,,,,,,,,,,,591.4844,592.7784,592.7785,593.6491,return,0.1075,,94.921875,,,,,,FBP-RB-17.png,0.43,1.2,49,0.5,,,,,,,,,,,,,0,18,18,48,1,,,,,,,,,,,,,,,,,,,,,,,,,,,,
,,,,,V3_057,18,female,2024-11-09_15h20.49.779,jersey_experiment_5_v3,2023.2.2,Win32,85.47008547,,,,,,,,,,,,,,,,593.6493,595.2019,595.202,595.7431,return,0.1089,,74.21875,,,,,,FBP-OG-17.png,0.4,1.2,33,0.75,,,,,,,,,,,,,0,19,19,32,1,,,,,,,,,,,,,,,,,,,,,,,,,,,,
,,,,,V3_057,18,female,2024-11-09_15h20.49.779,jersey_experiment_5_v3,2023.2.2,Win32,85.47008547,,,,,,,,,,,,,,,,595.7433,597.0373,597.0374,597.8373,return,0.0638,,99.34895833,,,,,,FBP-PT-18.png,0.45,1.2,25,0.5,,,,,,,,,,,,,0,20,20,24,1,,,,,,,,,,,,,,,,,,,,,,,,,,,,
,,,,,V3_057,18,female,2024-11-09_15h20.49.779,jersey_experiment_5_v3,2023.2.2,Win32,85.47008547,,,,,,,,,,,,,,,,597.8375,599.1316,599.1316,599.8256,return,0.0948,,82.29166667,,,,,,FBP-PT-17.png,0.43,1.2,19,0.5,,,,,,,,,,,,,0,21,21,18,1,,,,,,,,,,,,,,,,,,,,,,,,,,,,
,,,,,V3_057,18,female,2024-11-09_15h20.49.779,jersey_experiment_5_v3,2023.2.2,Win32,85.47008547,,,,,,,,,,,,,,,,599.826,601.1197,601.1198,601.8375,return,0.2284,,96.09375,,,,,,FBP-RB-19.png,0.43,1.2,59,0.5,,,,,,,,,,,,,0,22,22,58,1,,,,,,,,,,,,,,,,,,,,,,,,,,,,
,,,,,V3_057,18,female,2024-11-09_15h20.49.779,jersey_experiment_5_v3,2023.2.2,Win32,85.47008547,,,,,,,,,,,,,,,,601.8377,603.3906,603.3906,604.6611,return,0.3206,,99.73958333,,,,,,FBP-OG-18.png,0.45,1.2,40,0.75,,,,,,,,,,,,,0,23,23,39,1,,,,,,,,,,,,,,,,,,,,,,,,,,,,
,,,,,V3_057,18,female,2024-11-09_15h20.49.779,jersey_experiment_5_v3,2023.2.2,Win32,85.47008547,,,,,,,,,,,,,,,,604.6614,605.9553,605.9554,609.6142,return,0.1786,,45.3125,,,,,,FBP-RB-18.png,0.35,1.2,51,0.5,,,,,,,,,,,,,0,24,24,50,1,,,,,,,,,,,,,,,,,,,,,,,,,,,,
,,,,,V3_057,18,female,2024-11-09_15h20.49.779,jersey_experiment_5_v3,2023.2.2,Win32,85.47008547,,,,,,,,,,,,,,,,609.6144,610.9084,610.9084,612.0966,return,0.0606,,66.796875,,,,,,FBP-RB-17.png,0.4,1.2,48,0.5,,,,,,,,,,,,,0,25,25,47,1,,,,,,,,,,,,,,,,,,,,,,,,,,,,
,,,,,V3_057,18,female,2024-11-09_15h20.49.779,jersey_experiment_5_v3,2023.2.2,Win32,85.47008547,,,,,,,,,,,,,,,,612.0968,613.391,613.3911,614.2026,return,0.1356,,92.96875,,,,,,FBP-YG-91.png,0.45,1.2,15,0.5,,,,,,,,,,,,,0,26,26,14,1,,,,,,,,,,,,,,,,,,,,,,,,,,,,
,,,,,V3_057,18,female,2024-11-09_15h20.49.779,jersey_experiment_5_v3,2023.2.2,Win32,85.47008547,,,,,,,,,,,,,,,,614.2029,615.4969,615.497,617.1557,return,0.1185,,24.609375,,,,,,FBP-YG-81.png,0.35,1.2,6,0.5,,,,,,,,,,,,,0,27,27,5,1,,,,,,,,,,,,,,,,,,,,,,,,,,,,
,,,,,V3_057,18,female,2024-11-09_15h20.49.779,jersey_experiment_5_v3,2023.2.2,Win32,85.47008547,,,,,,,,,,,,,,,,617.1559,618.7087,618.7088,619.5323,return,0.17,,27.34375,,,,,,FBP-OG-19.png,0.37,1.2,42,0.75,,,,,,,,,,,,,0,28,28,41,1,,,,,,,,,,,,,,,,,,,,,,,,,,,,
,,,,,V3_057,18,female,2024-11-09_15h20.49.779,jersey_experiment_5_v3,2023.2.2,Win32,85.47008547,,,,,,,,,,,,,,,,619.5326,621.0854,621.0854,621.8029,return,0.2898,,22.91666667,,,,,,FBP-OG-17.png,0.37,1.2,32,0.75,,,,,,,,,,,,,0,29,29,31,1,,,,,,,,,,,,,,,,,,,,,,,,,,,,
,,,,,V3_057,18,female,2024-11-09_15h20.49.779,jersey_experiment_5_v3,2023.2.2,Win32,85.47008547,,,,,,,,,,,,,,,,621.8031,623.0972,623.0973,624.1324,return,0.0949,,46.22395833,,,,,,FBP-PT-18.png,0.4,1.2,23,0.5,,,,,,,,,,,,,0,30,30,22,1,,,,,,,,,,,,,,,,,,,,,,,,,,,,
,,,,,V3_057,18,female,2024-11-09_15h20.49.779,jersey_experiment_5_v3,2023.2.2,Win32,85.47008547,,,,,,,,,,,,,,,,624.1328,625.6855,625.6855,626.3326,return,0.1217,,75.91145833,,,,,,FBP-OG-17.png,0.45,1.2,35,0.75,,,,,,,,,,,,,0,31,31,34,1,,,,,,,,,,,,,,,,,,,,,,,,,,,,
,,,,,V3_057,18,female,2024-11-09_15h20.49.779,jersey_experiment_5_v3,2023.2.2,Win32,85.47008547,,,,,,,,,,,,,,,,626.3328,627.6268,627.6268,628.2737,return,0.1415,,83.72395833,,,,,,FBP-YG-81.png,0.43,1.2,9,0.5,,,,,,,,,,,,,0,32,32,8,1,,,,,,,,,,,,,,,,,,,,,,,,,,,,
,,,,,V3_057,18,female,2024-11-09_15h20.49.779,jersey_experiment_5_v3,2023.2.2,Win32,85.47008547,,,,,,,,,,,,,,,,628.274,629.5679,629.568,630.4737,return,0.1696,,75.52083333,,,,,,FBP-PT-19.png,0.4,1.2,28,0.5,,,,,,,,,,,,,0,33,33,27,1,,,,,,,,,,,,,,,,,,,,,,,,,,,,
,,,,,V3_057,18,female,2024-11-09_15h20.49.779,jersey_experiment_5_v3,2023.2.2,Win32,85.47008547,,,,,,,,,,,,,,,,630.474,631.7679,631.7679,632.9797,return,0.1411,,39.71354167,,,,,,FBP-RB-17.png,0.35,1.2,46,0.5,,,,,,,,,,,,,0,34,34,45,1,,,,,,,,,,,,,,,,,,,,,,,,,,,,
,,,,,V3_057,18,female,2024-11-09_15h20.49.779,jersey_experiment_5_v3,2023.2.2,Win32,85.47008547,,,,,,,,,,,,,,,,632.98,634.2741,634.2742,635.0033,return,0.1111,,74.21875,,,,,,FBP-RB-19.png,0.4,1.2,58,0.5,,,,,,,,,,,,,0,35,35,57,1,,,,,,,,,,,,,,,,,,,,,,,,,,,,
,,,,,V3_057,18,female,2024-11-09_15h20.49.779,jersey_experiment_5_v3,2023.2.2,Win32,85.47008547,,,,,,,,,,,,,,,,635.0035,636.2976,636.2976,637.533,return,0.0987,,96.484375,,,,,,FBP-YG-71.png,0.45,1.2,5,0.5,,,,,,,,,,,,,0,36,36,4,1,,,,,,,,,,,,,,,,,,,,,,,,,,,,
,,,,,V3_057,18,female,2024-11-09_15h20.49.779,jersey_experiment_5_v3,2023.2.2,Win32,85.47008547,,,,,,,,,,,,,,,,637.5332,638.8273,638.8273,639.533,return,0.0642,,76.30208333,,,,,,FBP-YG-91.png,0.4,1.2,13,0.5,,,,,,,,,,,,,0,37,37,12,1,,,,,,,,,,,,,,,,,,,,,,,,,,,,
,,,,,V3_057,18,female,2024-11-09_15h20.49.779,jersey_experiment_5_v3,2023.2.2,Win32,85.47008547,,,,,,,,,,,,,,,,639.5332,640.8273,640.8274,641.6625,return,0.0742,,19.27083333,,,,,,FBP-PT-18.png,0.35,1.2,21,0.5,,,,,,,,,,,,,0,38,38,20,1,,,,,,,,,,,,,,,,,,,,,,,,,,,,
,,,,,V3_057,18,female,2024-11-09_15h20.49.779,jersey_experiment_5_v3,2023.2.2,Win32,85.47008547,,,,,,,,,,,,,,,,641.6627,642.9568,642.9569,643.792,return,0.1562,,14.19270833,,,,,,FBP-PT-19.png,0.35,1.2,26,0.5,,,,,,,,,,,,,0,39,39,25,1,,,,,,,,,,,,,,,,,,,,,,,,,,,,
,,,,,V3_057,18,female,2024-11-09_15h20.49.779,jersey_experiment_5_v3,2023.2.2,Win32,85.47008547,,,,,,,,,,,,,,,,643.7922,645.0862,645.0862,645.8273,return,0.0813,,23.17708333,,,,,,FBP-YG-71.png,0.37,1.2,2,0.5,,,,,,,,,,,,,0,40,40,1,1,,,,,,,,,,,,,,,,,,,,,,,,,,,,
,,,,,V3_057,18,female,2024-11-09_15h20.49.779,jersey_experiment_5_v3,2023.2.2,Win32,85.47008547,,,,,,,,,,,,,,,,645.8275,647.1216,647.1216,648.098,return,0.1315,,98.69791667,,,,,,FBP-PT-19.png,0.43,1.2,29,0.5,,,,,,,,,,,,,0,41,41,28,1,,,,,,,,,,,,,,,,,,,,,,,,,,,,
,,,,,V3_057,18,female,2024-11-09_15h20.49.779,jersey_experiment_5_v3,2023.2.2,Win32,85.47008547,,,,,,,,,,,,,,,,648.0984,649.3922,649.3922,650.91,return,0.0828,,33.59375,,,,,,FBP-YG-71.png,0.35,1.2,1,0.5,,,,,,,,,,,,,0,42,42,0,1,,,,,,,,,,,,,,,,,,,,,,,,,,,,
,,,,,V3_057,18,female,2024-11-09_15h20.49.779,jersey_experiment_5_v3,2023.2.2,Win32,85.47008547,,,,,,,,,,,,,,,,650.9102,652.204,652.204,653.31,return,0.0856,,49.21875,,,,,,FBP-RB-17.png,0.37,1.2,47,0.5,,,,,,,,,,,,,0,43,43,46,1,,,,,,,,,,,,,,,,,,,,,,,,,,,,
,,,,,V3_057,18,female,2024-11-09_15h20.49.779,jersey_experiment_5_v3,2023.2.2,Win32,85.47008547,,,,,,,,,,,,,,,,653.3103,654.6042,654.6043,655.5571,return,0.0956,,97.78645833,,,,,,FBP-PT-19.png,0.45,1.2,30,0.5,,,,,,,,,,,,,0,44,44,29,1,,,,,,,,,,,,,,,,,,,,,,,,,,,,
,,,,,V3_057,18,female,2024-11-09_15h20.49.779,jersey_experiment_5_v3,2023.2.2,Win32,85.47008547,,,,,,,,,,,,,,,,655.5573,657.1102,657.1103,658.5808,return,0.1413,,99.34895833,,,,,,FBP-OG-19.png,0.43,1.2,44,0.75,,,,,,,,,,,,,0,45,45,43,1,,,,,,,,,,,,,,,,,,,,,,,,,,,,
,,,,,V3_057,18,female,2024-11-09_15h20.49.779,jersey_experiment_5_v3,2023.2.2,Win32,85.47008547,,,,,,,,,,,,,,,,658.5811,660.1338,660.1339,661.3573,return,0.1091,,27.60416667,,,,,,FBP-OG-18.png,0.37,1.2,37,0.75,,,,,,,,,,,,,0,46,46,36,1,,,,,,,,,,,,,,,,,,,,,,,,,,,,
,,,,,V3_057,18,female,2024-11-09_15h20.49.779,jersey_experiment_5_v3,2023.2.2,Win32,85.47008547,,,,,,,,,,,,,,,,661.3577,662.6515,662.6516,663.6162,return,0.0801,,87.5,,,,,,FBP-YG-71.png,0.43,1.2,4,0.5,,,,,,,,,,,,,0,47,47,3,1,,,,,,,,,,,,,,,,,,,,,,,,,,,,
,,,,,V3_057,18,female,2024-11-09_15h20.49.779,jersey_experiment_5_v3,2023.2.2,Win32,85.47008547,,,,,,,,,,,,,,,,663.6164,664.9106,664.9106,665.6044,return,0.0703,,97.52604167,,,,,,FBP-RB-18.png,0.45,1.2,55,0.5,,,,,,,,,,,,,0,48,48,54,1,,,,,,,,,,,,,,,,,,,,,,,,,,,,
,,,,,V3_057,18,female,2024-11-09_15h20.49.779,jersey_experiment_5_v3,2023.2.2,Win32,85.47008547,,,,,,,,,,,,,,,,665.6047,666.8987,666.8988,667.5223,return,0.164,,99.609375,,,,,,FBP-PT-17.png,0.45,1.2,20,0.5,,,,,,,,,,,,,0,49,49,19,1,,,,,,,,,,,,,,,,,,,,,,,,,,,,
,,,,,V3_057,18,female,2024-11-09_15h20.49.779,jersey_experiment_5_v3,2023.2.2,Win32,85.47008547,,,,,,,,,,,,,,,,667.5226,668.8165,668.8166,669.5457,return,0.0873,,84.50520833,,,,,,FBP-YG-71.png,0.4,1.2,3,0.5,,,,,,,,,,,,,0,50,50,2,1,,,,,,,,,,,,,,,,,,,,,,,,,,,,
,,,,,V3_057,18,female,2024-11-09_15h20.49.779,jersey_experiment_5_v3,2023.2.2,Win32,85.47008547,,,,,,,,,,,,,,,,669.5459,671.0872,671.0872,671.6518,return,0.1326,,98.69791667,,,,,,FBP-OG-19.png,0.45,1.2,45,0.75,,,,,,,,,,,,,0,51,51,44,1,,,,,,,,,,,,,,,,,,,,,,,,,,,,
,,,,,V3_057,18,female,2024-11-09_15h20.49.779,jersey_experiment_5_v3,2023.2.2,Win32,85.47008547,,,,,,,,,,,,,,,,671.652,672.946,672.9461,674.4638,return,0.2465,,99.47916667,,,,,,FBP-RB-19.png,0.45,1.2,60,0.5,,,,,,,,,,,,,0,52,52,59,1,,,,,,,,,,,,,,,,,,,,,,,,,,,,
,,,,,V3_057,18,female,2024-11-09_15h20.49.779,jersey_experiment_5_v3,2023.2.2,Win32,85.47008547,,,,,,,,,,,,,,,,674.4641,675.7577,675.7578,676.8992,return,0.163,,20.83333333,,,,,,FBP-YG-91.png,0.35,1.2,11,0.5,,,,,,,,,,,,,0,53,53,10,1,,,,,,,,,,,,,,,,,,,,,,,,,,,,
,,,,,V3_057,18,female,2024-11-09_15h20.49.779,jersey_experiment_5_v3,2023.2.2,Win32,85.47008547,,,,,,,,,,,,,,,,676.8994,678.1933,678.1933,679.0404,return,0.1333,,34.89583333,,,,,,FBP-YG-81.png,0.4,1.2,8,0.5,,,,,,,,,,,,,0,54,54,7,1,,,,,,,,,,,,,,,,,,,,,,,,,,,,
,,,,,V3_057,18,female,2024-11-09_15h20.49.779,jersey_experiment_5_v3,2023.2.2,Win32,85.47008547,,,,,,,,,,,,,,,,679.0406,680.3346,680.3346,681.0757,return,0.0813,,45.57291667,,,,,,FBP-RB-18.png,0.4,1.2,53,0.5,,,,,,,,,,,,,0,55,55,52,1,,,,,,,,,,,,,,,,,,,,,,,,,,,,
,,,,,V3_057,18,female,2024-11-09_15h20.49.779,jersey_experiment_5_v3,2023.2.2,Win32,85.47008547,,,,,,,,,,,,,,,,681.0759,682.617,682.6171,683.8405,return,0.0943,,74.08854167,,,,,,FBP-OG-19.png,0.4,1.2,43,0.75,,,,,,,,,,,,,0,56,56,42,1,,,,,,,,,,,,,,,,,,,,,,,,,,,,
,,,,,V3_057,18,female,2024-11-09_15h20.49.779,jersey_experiment_5_v3,2023.2.2,Win32,85.47008547,,,,,,,,,,,,,,,,683.8408,685.1347,685.1348,686.1937,return,0.0704,,77.21354167,,,,,,FBP-PT-19.png,0.37,1.2,27,0.5,,,,,,,,,,,,,0,57,57,26,1,,,,,,,,,,,,,,,,,,,,,,,,,,,,
,,,,,V3_057,18,female,2024-11-09_15h20.49.779,jersey_experiment_5_v3,2023.2.2,Win32,85.47008547,,,,,,,,,,,,,,,,686.1939,687.7467,687.7467,688.5231,return,0.1467,,25.91145833,,,,,,FBP-OG-18.png,0.35,1.2,36,0.75,,,,,,,,,,,,,0,58,58,35,1,,,,,,,,,,,,,,,,,,,,,,,,,,,,
,,,,,V3_057,18,female,2024-11-09_15h20.49.779,jersey_experiment_5_v3,2023.2.2,Win32,85.47008547,,,,,,,,,,,,,,,,688.5233,689.8173,689.8173,690.9938,return,0.0734,,70.05208333,,,,,,FBP-PT-17.png,0.4,1.2,18,0.5,,,,,,,,,,,,,0,59,59,17,1,,,,,,,,,,,,,,,,,,,,,,,,,,,,
,,,,,V3_057,18,female,2024-11-09_15h20.49.779,jersey_experiment_5_v3,2023.2.2,Win32,85.47008547,,,,,,,,,,,,,,,,690.9951,692.2879,692.2879,692.9937,return,0.0841,,48.95833333,,,,,,FBP-PT-71.png,0.37,1.2,17,0.5,,,,,,,,,,,,,,,,,,0,0,0,16,1,,,,,,,,,,,,,,,,,,,,,,,
,,,,,V3_057,18,female,2024-11-09_15h20.49.779,jersey_experiment_5_v3,2023.2.2,Win32,85.47008547,,,,,,,,,,,,,,,,692.9941,694.2879,694.2879,695.2998,return,0.0863,,27.34375,,,,,,FBP-YG-18.png,0.35,1.2,6,0.5,,,,,,,,,,,,,,,,,,0,1,1,5,1,,,,,,,,,,,,,,,,,,,,,,,
,,,,,V3_057,18,female,2024-11-09_15h20.49.779,jersey_experiment_5_v3,2023.2.2,Win32,85.47008547,,,,,,,,,,,,,,,,695.3001,696.5941,696.5941,697.5351,return,0.0956,,78.77604167,,,,,,FBP-YG-17.png,0.43,1.2,4,0.5,,,,,,,,,,,,,,,,,,0,2,2,3,1,,,,,,,,,,,,,,,,,,,,,,,
,,,,,V3_057,18,female,2024-11-09_15h20.49.779,jersey_experiment_5_v3,2023.2.2,Win32,85.47008547,,,,,,,,,,,,,,,,697.5354,698.8293,698.8293,699.441,return,0.1209,,71.484375,,,,,,FBP-PT-81.png,0.37,1.2,22,0.5,,,,,,,,,,,,,,,,,,0,3,3,21,1,,,,,,,,,,,,,,,,,,,,,,,
,,,,,V3_057,18,female,2024-11-09_15h20.49.779,jersey_experiment_5_v3,2023.2.2,Win32,85.47008547,,,,,,,,,,,,,,,,699.4412,700.7353,700.7353,701.9001,return,0.2059,,67.96875,,,,,,FBP-RB-91.png,0.37,1.2,57,0.5,,,,,,,,,,,,,,,,,,0,4,4,56,1,,,,,,,,,,,,,,,,,,,,,,,
,,,,,V3_057,18,female,2024-11-09_15h20.49.779,jersey_experiment_5_v3,2023.2.2,Win32,85.47008547,,,,,,,,,,,,,,,,701.9004,703.1942,703.1943,703.9824,return,0.0943,,97.65625,,,,,,FBP-PT-71.png,0.43,1.2,19,0.5,,,,,,,,,,,,,,,,,,0,5,5,18,1,,,,,,,,,,,,,,,,,,,,,,,
,,,,,V3_057,18,female,2024-11-09_15h20.49.779,jersey_experiment_5_v3,2023.2.2,Win32,85.47008547,,,,,,,,,,,,,,,,703.9826,705.2766,705.2767,706.0766,return,0.0981,,77.99479167,,,,,,FBP-YG-19.png,0.4,1.2,13,0.5,,,,,,,,,,,,,,,,,,0,6,6,12,1,,,,,,,,,,,,,,,,,,,,,,,
,,,,,V3_057,18,female,2024-11-09_15h20.49.779,jersey_experiment_5_v3,2023.2.2,Win32,85.47008547,,,,,,,,,,,,,,,,706.0768,707.3708,707.3709,708.3356,return,0.0724,,99.609375,,,,,,FBP-RB-71.png,0.45,1.2,50,0.5,,,,,,,,,,,,,,,,,,0,7,7,49,1,,,,,,,,,,,,,,,,,,,,,,,
,,,,,V3_057,18,female,2024-11-09_15h20.49.779,jersey_experiment_5_v3,2023.2.2,Win32,85.47008547,,,,,,,,,,,,,,,,708.3358,709.6298,709.6298,710.3827,return,0.0946,,77.60416667,,,,,,FBP-RB-81.png,0.4,1.2,53,0.5,,,,,,,,,,,,,,,,,,0,8,8,52,1,,,,,,,,,,,,,,,,,,,,,,,
,,,,,V3_057,18,female,2024-11-09_15h20.49.779,jersey_experiment_5_v3,2023.2.2,Win32,85.47008547,,,,,,,,,,,,,,,,710.3829,711.6767,711.6768,712.3827,return,0.1329,,94.66145833,,,,,,FBP-PT-91.png,0.43,1.2,29,0.5,,,,,,,,,,,,,,,,,,0,9,9,28,1,,,,,,,,,,,,,,,,,,,,,,,
,,,,,V3_057,18,female,2024-11-09_15h20.49.779,jersey_experiment_5_v3,2023.2.2,Win32,85.47008547,,,,,,,,,,,,,,,,712.383,713.6771,713.6772,714.2769,return,0.1178,,99.21875,,,,,,FBP-RB-81.png,0.43,1.2,54,0.5,,,,,,,,,,,,,,,,,,0,10,10,53,1,,,,,,,,,,,,,,,,,,,,,,,
,,,,,V3_057,18,female,2024-11-09_15h20.49.779,jersey_experiment_5_v3,2023.2.2,Win32,85.47008547,,,,,,,,,,,,,,,,714.2772,715.5711,715.5712,716.7475,return,0.1815,,23.828125,,,,,,FBP-YG-19.png,0.35,1.2,11,0.5,,,,,,,,,,,,,,,,,,0,11,11,10,1,,,,,,,,,,,,,,,,,,,,,,,
,,,,,V3_057,18,female,2024-11-09_15h20.49.779,jersey_experiment_5_v3,2023.2.2,Win32,85.47008547,,,,,,,,,,,,,,,,716.7478,718.2891,718.2892,719.0889,return,0.0713,,98.95833333,,,,,,FBP-OG-71.png,0.45,1.2,35,0.75,,,,,,,,,,,,,,,,,,0,12,12,34,1,,,,,,,,,,,,,,,,,,,,,,,
,,,,,V3_057,18,female,2024-11-09_15h20.49.779,jersey_experiment_5_v3,2023.2.2,Win32,85.47008547,,,,,,,,,,,,,,,,719.0891,720.642,720.642,721.8066,return,0.0271,,45.96354167,,,,,,FBP-OG-91.png,0.4,1.2,43,0.75,,,,,,,,,,,,,,,,,,0,13,13,42,1,,,,,,,,,,,,,,,,,,,,,,,
,,,,,V3_057,18,female,2024-11-09_15h20.49.779,jersey_experiment_5_v3,2023.2.2,Win32,85.47008547,,,,,,,,,,,,,,,,721.807,723.1009,723.1009,724.3832,return,0.6501,,88.02083333,,,,,,FBP-PT-91.png,0.45,1.2,30,0.5,,,,,,,,,,,,,,,,,,0,14,14,29,1,,,,,,,,,,,,,,,,,,,,,,,
,,,,,V3_057,18,female,2024-11-09_15h20.49.779,jersey_experiment_5_v3,2023.2.2,Win32,85.47008547,,,,,,,,,,,,,,,,724.3836,725.6776,725.6776,726.5008,return,0.07,,16.66666667,,,,,,FBP-PT-71.png,0.35,1.2,16,0.5,,,,,,,,,,,,,,,,,,0,15,15,15,1,,,,,,,,,,,,,,,,,,,,,,,
,,,,,V3_057,18,female,2024-11-09_15h20.49.779,jersey_experiment_5_v3,2023.2.2,Win32,85.47008547,,,,,,,,,,,,,,,,726.5011,728.0539,728.054,729.0539,return,0.0364,,72.78645833,,,,,,FBP-OG-81.png,0.43,1.2,39,0.75,,,,,,,,,,,,,,,,,,0,16,16,38,1,,,,,,,,,,,,,,,,,,,,,,,
,,,,,V3_057,18,female,2024-11-09_15h20.49.779,jersey_experiment_5_v3,2023.2.2,Win32,85.47008547,,,,,,,,,,,,,,,,729.0542,730.6069,730.6069,731.0893,return,0.1779,,73.828125,,,,,,FBP-OG-81.png,0.4,1.2,38,0.75,,,,,,,,,,,,,,,,,,0,17,17,37,1,,,,,,,,,,,,,,,,,,,,,,,
,,,,,V3_057,18,female,2024-11-09_15h20.49.779,jersey_experiment_5_v3,2023.2.2,Win32,85.47008547,,,,,,,,,,,,,,,,731.0895,732.3835,732.3836,733.1483,return,0.1552,,73.828125,,,,,,FBP-PT-91.png,0.4,1.2,28,0.5,,,,,,,,,,,,,,,,,,0,18,18,27,1,,,,,,,,,,,,,,,,,,,,,,,
,,,,,V3_057,18,female,2024-11-09_15h20.49.779,jersey_experiment_5_v3,2023.2.2,Win32,85.47008547,,,,,,,,,,,,,,,,733.1484,734.7012,734.7012,735.972,return,0.212,,44.921875,,,,,,FBP-OG-71.png,0.37,1.2,32,0.75,,,,,,,,,,,,,,,,,,0,19,19,31,1,,,,,,,,,,,,,,,,,,,,,,,
,,,,,V3_057,18,female,2024-11-09_15h20.49.779,jersey_experiment_5_v3,2023.2.2,Win32,85.47008547,,,,,,,,,,,,,,,,735.9722,737.525,737.525,738.2426,return,0.0605,,25.390625,,,,,,FBP-OG-71.png,0.35,1.2,31,0.75,,,,,,,,,,,,,,,,,,0,20,20,30,1,,,,,,,,,,,,,,,,,,,,,,,
,,,,,V3_057,18,female,2024-11-09_15h20.49.779,jersey_experiment_5_v3,2023.2.2,Win32,85.47008547,,,,,,,,,,,,,,,,738.2428,739.5368,739.5369,741.9721,return,0.3142,,25.13020833,,,,,,FBP-RB-81.png,0.35,1.2,51,0.5,,,,,,,,,,,,,,,,,,0,21,21,50,1,,,,,,,,,,,,,,,,,,,,,,,
,,,,,V3_057,18,female,2024-11-09_15h20.49.779,jersey_experiment_5_v3,2023.2.2,Win32,85.47008547,,,,,,,,,,,,,,,,741.9722,743.2662,743.2663,744.3487,return,0.1233,,45.05208333,,,,,,FBP-RB-91.png,0.4,1.2,58,0.5,,,,,,,,,,,,,,,,,,0,22,22,57,1,,,,,,,,,,,,,,,,,,,,,,,
,,,,,V3_057,18,female,2024-11-09_15h20.49.779,jersey_experiment_5_v3,2023.2.2,Win32,85.47008547,,,,,,,,,,,,,,,,744.3489,745.6428,745.6428,746.2429,return,0.0711,,48.046875,,,,,,FBP-RB-91.png,0.35,1.2,56,0.5,,,,,,,,,,,,,,,,,,0,23,23,55,1,,,,,,,,,,,,,,,,,,,,,,,
,,,,,V3_057,18,female,2024-11-09_15h20.49.779,jersey_experiment_5_v3,2023.2.2,Win32,85.47008547,,,,,,,,,,,,,,,,746.2431,747.5372,747.5372,749.5959,return,0.8408,,97.13541667,,,,,,FBP-RB-81.png,0.45,1.2,55,0.5,,,,,,,,,,,,,,,,,,0,24,24,54,1,,,,,,,,,,,,,,,,,,,,,,,
,,,,,V3_057,18,female,2024-11-09_15h20.49.779,jersey_experiment_5_v3,2023.2.2,Win32,85.47008547,,,,,,,,,,,,,,,,749.5962,750.8902,750.8902,752.09,return,0.1364,,27.47395833,,,,,,FBP-YG-19.png,0.37,1.2,12,0.5,,,,,,,,,,,,,,,,,,0,25,25,11,1,,,,,,,,,,,,,,,,,,,,,,,
,,,,,V3_057,18,female,2024-11-09_15h20.49.779,jersey_experiment_5_v3,2023.2.2,Win32,85.47008547,,,,,,,,,,,,,,,,752.0903,753.3844,753.3844,754.0666,return,0.0239,,44.01041667,,,,,,FBP-YG-17.png,0.37,1.2,2,0.5,,,,,,,,,,,,,,,,,,0,26,26,1,1,,,,,,,,,,,,,,,,,,,,,,,
,,,,,V3_057,18,female,2024-11-09_15h20.49.779,jersey_experiment_5_v3,2023.2.2,Win32,85.47008547,,,,,,,,,,,,,,,,754.0669,755.361,755.361,756.3019,return,0.0748,,93.75,,,,,,FBP-YG-17.png,0.45,1.2,5,0.5,,,,,,,,,,,,,,,,,,0,27,27,4,1,,,,,,,,,,,,,,,,,,,,,,,
,,,,,V3_057,18,female,2024-11-09_15h20.49.779,jersey_experiment_5_v3,2023.2.2,Win32,85.47008547,,,,,,,,,,,,,,,,756.3021,757.5964,757.5964,758.8787,return,0.0946,,23.95833333,,,,,,FBP-RB-71.png,0.35,1.2,46,0.5,,,,,,,,,,,,,,,,,,0,28,28,45,1,,,,,,,,,,,,,,,,,,,,,,,
,,,,,V3_057,18,female,2024-11-09_15h20.49.779,jersey_experiment_5_v3,2023.2.2,Win32,85.47008547,,,,,,,,,,,,,,,,758.8789,760.1729,760.1729,761.1493,return,0.0755,,65.234375,,,,,,FBP-RB-81.png,0.37,1.2,52,0.5,,,,,,,,,,,,,,,,,,0,29,29,51,1,,,,,,,,,,,,,,,,,,,,,,,
,,,,,V3_057,18,female,2024-11-09_15h20.49.779,jersey_experiment_5_v3,2023.2.2,Win32,85.47008547,,,,,,,,,,,,,,,,761.1495,762.7023,762.7024,763.5022,return,0.0976,,98.95833333,,,,,,FBP-OG-81.png,0.45,1.2,40,0.75,,,,,,,,,,,,,,,,,,0,30,30,39,1,,,,,,,,,,,,,,,,,,,,,,,
,,,,,V3_057,18,female,2024-11-09_15h20.49.779,jersey_experiment_5_v3,2023.2.2,Win32,85.47008547,,,,,,,,,,,,,,,,763.5024,765.0437,765.0438,765.9141,return,0.1376,,99.73958333,,,,,,FBP-OG-71.png,0.43,1.2,34,0.75,,,,,,,,,,,,,,,,,,0,31,31,33,1,,,,,,,,,,,,,,,,,,,,,,,
,,,,,V3_057,18,female,2024-11-09_15h20.49.779,jersey_experiment_5_v3,2023.2.2,Win32,85.47008547,,,,,,,,,,,,,,,,765.9143,767.2084,767.2084,768.5613,return,0.0478,,40.36458333,,,,,,FBP-PT-91.png,0.37,1.2,27,0.5,,,,,,,,,,,,,,,,,,0,32,32,26,1,,,,,,,,,,,,,,,,,,,,,,,
,,,,,V3_057,18,female,2024-11-09_15h20.49.779,jersey_experiment_5_v3,2023.2.2,Win32,85.47008547,,,,,,,,,,,,,,,,768.5615,769.8556,769.8556,770.8672,return,0.0477,,99.34895833,,,,,,FBP-RB-91.png,0.45,1.2,60,0.5,,,,,,,,,,,,,,,,,,0,33,33,59,1,,,,,,,,,,,,,,,,,,,,,,,
,,,,,V3_057,18,female,2024-11-09_15h20.49.779,jersey_experiment_5_v3,2023.2.2,Win32,85.47008547,,,,,,,,,,,,,,,,770.8675,772.4204,772.4204,773.9144,return,0.0665,,25,,,,,,FBP-OG-81.png,0.35,1.2,36,0.75,,,,,,,,,,,,,,,,,,0,34,34,35,1,,,,,,,,,,,,,,,,,,,,,,,
,,,,,V3_057,18,female,2024-11-09_15h20.49.779,jersey_experiment_5_v3,2023.2.2,Win32,85.47008547,,,,,,,,,,,,,,,,773.9146,775.2086,775.2086,775.9498,return,0.0515,,33.46354167,,,,,,FBP-RB-71.png,0.37,1.2,47,0.5,,,,,,,,,,,,,,,,,,0,35,35,46,1,,,,,,,,,,,,,,,,,,,,,,,
,,,,,V3_057,18,female,2024-11-09_15h20.49.779,jersey_experiment_5_v3,2023.2.2,Win32,85.47008547,,,,,,,,,,,,,,,,775.95,777.2441,777.2441,778.1265,return,0.1097,,42.31770833,,,,,,FBP-PT-91.png,0.35,1.2,26,0.5,,,,,,,,,,,,,,,,,,0,36,36,25,1,,,,,,,,,,,,,,,,,,,,,,,
,,,,,V3_057,18,female,2024-11-09_15h20.49.779,jersey_experiment_5_v3,2023.2.2,Win32,85.47008547,,,,,,,,,,,,,,,,778.1267,779.6796,779.6796,780.2913,return,0.0705,,73.69791667,,,,,,FBP-OG-91.png,0.43,1.2,44,0.75,,,,,,,,,,,,,,,,,,0,37,37,43,1,,,,,,,,,,,,,,,,,,,,,,,
,,,,,V3_057,18,female,2024-11-09_15h20.49.779,jersey_experiment_5_v3,2023.2.2,Win32,85.47008547,,,,,,,,,,,,,,,,780.2915,781.5852,781.5853,782.5266,return,0.0712,,99.08854167,,,,,,FBP-YG-18.png,0.43,1.2,9,0.5,,,,,,,,,,,,,,,,,,0,38,38,8,1,,,,,,,,,,,,,,,,,,,,,,,
,,,,,V3_057,18,female,2024-11-09_15h20.49.779,jersey_experiment_5_v3,2023.2.2,Win32,85.47008547,,,,,,,,,,,,,,,,782.5268,783.8208,783.8209,784.4208,return,0.0809,,99.73958333,,,,,,FBP-YG-18.png,0.45,1.2,10,0.5,,,,,,,,,,,,,,,,,,0,39,39,9,1,,,,,,,,,,,,,,,,,,,,,,,
,,,,,V3_057,18,female,2024-11-09_15h20.49.779,jersey_experiment_5_v3,2023.2.2,Win32,85.47008547,,,,,,,,,,,,,,,,784.4211,785.7149,785.7149,786.562,return,0.0945,,92.96875,,,,,,FBP-PT-81.png,0.43,1.2,24,0.5,,,,,,,,,,,,,,,,,,0,40,40,23,1,,,,,,,,,,,,,,,,,,,,,,,
,,,,,V3_057,18,female,2024-11-09_15h20.49.779,jersey_experiment_5_v3,2023.2.2,Win32,85.47008547,,,,,,,,,,,,,,,,786.5624,787.8561,787.8562,788.4327,return,0.0716,,95.18229167,,,,,,FBP-RB-91.png,0.43,1.2,59,0.5,,,,,,,,,,,,,,,,,,0,41,41,58,1,,,,,,,,,,,,,,,,,,,,,,,
,,,,,V3_057,18,female,2024-11-09_15h20.49.779,jersey_experiment_5_v3,2023.2.2,Win32,85.47008547,,,,,,,,,,,,,,,,788.4329,789.7268,789.7269,790.3151,return,0.0896,,94.40104167,,,,,,FBP-RB-71.png,0.4,1.2,48,0.5,,,,,,,,,,,,,,,,,,0,42,42,47,1,,,,,,,,,,,,,,,,,,,,,,,
,,,,,V3_057,18,female,2024-11-09_15h20.49.779,jersey_experiment_5_v3,2023.2.2,Win32,85.47008547,,,,,,,,,,,,,,,,790.3154,791.6092,791.6093,792.3387,return,0.1313,,98.69791667,,,,,,FBP-YG-19.png,0.45,1.2,15,0.5,,,,,,,,,,,,,,,,,,0,43,43,14,1,,,,,,,,,,,,,,,,,,,,,,,
,,,,,V3_057,18,female,2024-11-09_15h20.49.779,jersey_experiment_5_v3,2023.2.2,Win32,85.47008547,,,,,,,,,,,,,,,,792.3389,793.6328,793.6329,794.7035,return,0.0498,,96.09375,,,,,,FBP-YG-19.png,0.43,1.2,14,0.5,,,,,,,,,,,,,,,,,,0,44,44,13,1,,,,,,,,,,,,,,,,,,,,,,,
,,,,,V3_057,18,female,2024-11-09_15h20.49.779,jersey_experiment_5_v3,2023.2.2,Win32,85.47008547,,,,,,,,,,,,,,,,794.7036,796.2567,796.2568,797.1506,return,0.0975,,28.64583333,,,,,,FBP-OG-91.png,0.37,1.2,42,0.75,,,,,,,,,,,,,,,,,,0,45,45,41,1,,,,,,,,,,,,,,,,,,,,,,,
,,,,,V3_057,18,female,2024-11-09_15h20.49.779,jersey_experiment_5_v3,2023.2.2,Win32,85.47008547,,,,,,,,,,,,,,,,797.1508,798.692,798.692,799.4567,return,0.1057,,4.817708333,,,,,,FBP-OG-81.png,0.37,1.2,37,0.75,,,,,,,,,,,,,,,,,,0,46,46,36,1,,,,,,,,,,,,,,,,,,,,,,,
,,,,,V3_057,18,female,2024-11-09_15h20.49.779,jersey_experiment_5_v3,2023.2.2,Win32,85.47008547,,,,,,,,,,,,,,,,799.457,800.7508,800.7508,801.4919,return,0.0473,,23.95833333,,,,,,FBP-YG-18.png,0.37,1.2,7,0.5,,,,,,,,,,,,,,,,,,0,47,47,6,1,,,,,,,,,,,,,,,,,,,,,,,
,,,,,V3_057,18,female,2024-11-09_15h20.49.779,jersey_experiment_5_v3,2023.2.2,Win32,85.47008547,,,,,,,,,,,,,,,,801.4921,802.7861,802.7862,803.7861,return,0.0551,,93.75,,,,,,FBP-PT-71.png,0.45,1.2,20,0.5,,,,,,,,,,,,,,,,,,0,48,48,19,1,,,,,,,,,,,,,,,,,,,,,,,
,,,,,V3_057,18,female,2024-11-09_15h20.49.779,jersey_experiment_5_v3,2023.2.2,Win32,85.47008547,,,,,,,,,,,,,,,,803.7864,805.3394,805.3394,806.1744,return,0.0704,,25.65104167,,,,,,FBP-OG-91.png,0.35,1.2,41,0.75,,,,,,,,,,,,,,,,,,0,49,49,40,1,,,,,,,,,,,,,,,,,,,,,,,
,,,,,V3_057,18,female,2024-11-09_15h20.49.779,jersey_experiment_5_v3,2023.2.2,Win32,85.47008547,,,,,,,,,,,,,,,,806.1746,807.4687,807.4687,808.8686,return,0.5415,,42.1875,,,,,,FBP-YG-18.png,0.4,1.2,8,0.5,,,,,,,,,,,,,,,,,,0,50,50,7,1,,,,,,,,,,,,,,,,,,,,,,,
,,,,,V3_057,18,female,2024-11-09_15h20.49.779,jersey_experiment_5_v3,2023.2.2,Win32,85.47008547,,,,,,,,,,,,,,,,808.8689,810.1628,810.1629,810.8098,return,0.0907,,46.61458333,,,,,,FBP-PT-71.png,0.4,1.2,18,0.5,,,,,,,,,,,,,,,,,,0,51,51,17,1,,,,,,,,,,,,,,,,,,,,,,,
,,,,,V3_057,18,female,2024-11-09_15h20.49.779,jersey_experiment_5_v3,2023.2.2,Win32,85.47008547,,,,,,,,,,,,,,,,810.8101,812.1043,812.1043,814.2218,return,1.4514,,51.69270833,,,,,,FBP-PT-81.png,0.4,1.2,23,0.5,,,,,,,,,,,,,,,,,,0,52,52,22,1,,,,,,,,,,,,,,,,,,,,,,,
,,,,,V3_057,18,female,2024-11-09_15h20.49.779,jersey_experiment_5_v3,2023.2.2,Win32,85.47008547,,,,,,,,,,,,,,,,814.222,815.516,815.516,816.3632,return,0.1462,,29.81770833,,,,,,FBP-PT-81.png,0.35,1.2,21,0.5,,,,,,,,,,,,,,,,,,0,53,53,20,1,,,,,,,,,,,,,,,,,,,,,,,
,,,,,V3_057,18,female,2024-11-09_15h20.49.779,jersey_experiment_5_v3,2023.2.2,Win32,85.47008547,,,,,,,,,,,,,,,,816.3634,817.6573,817.6574,820.2219,return,1.0592,,75.65104167,,,,,,FBP-RB-71.png,0.43,1.2,49,0.5,,,,,,,,,,,,,,,,,,0,54,54,48,1,,,,,,,,,,,,,,,,,,,,,,,
,,,,,V3_057,18,female,2024-11-09_15h20.49.779,jersey_experiment_5_v3,2023.2.2,Win32,85.47008547,,,,,,,,,,,,,,,,820.222,821.7634,821.7634,822.7162,return,0.0025,,74.47916667,,,,,,FBP-OG-71.png,0.4,1.2,33,0.75,,,,,,,,,,,,,,,,,,0,55,55,32,1,,,,,,,,,,,,,,,,,,,,,,,
,,,,,V3_057,18,female,2024-11-09_15h20.49.779,jersey_experiment_5_v3,2023.2.2,Win32,85.47008547,,,,,,,,,,,,,,,,822.7164,824.0104,824.0105,824.3398,return,0.1419,,75.26041667,,,,,,FBP-YG-17.png,0.4,1.2,3,0.5,,,,,,,,,,,,,,,,,,0,56,56,2,1,,,,,,,,,,,,,,,,,,,,,,,
,,,,,V3_057,18,female,2024-11-09_15h20.49.779,jersey_experiment_5_v3,2023.2.2,Win32,85.47008547,,,,,,,,,,,,,,,,824.3402,825.6341,825.6341,826.9282,return,0.1181,,39.84375,,,,,,FBP-YG-17.png,0.35,1.2,1,0.5,,,,,,,,,,,,,,,,,,0,57,57,0,1,,,,,,,,,,,,,,,,,,,,,,,
,,,,,V3_057,18,female,2024-11-09_15h20.49.779,jersey_experiment_5_v3,2023.2.2,Win32,85.47008547,,,,,,,,,,,,,,,,826.9285,828.2225,828.2225,829.2341,return,0.0842,,74.73958333,,,,,,FBP-PT-81.png,0.45,1.2,25,0.5,,,,,,,,,,,,,,,,,,0,58,58,24,1,,,,,,,,,,,,,,,,,,,,,,,
,,,,,V3_057,18,female,2024-11-09_15h20.49.779,jersey_experiment_5_v3,2023.2.2,Win32,85.47008547,,,,,,,,,,,,,,,,829.2344,830.7872,830.7873,831.2577,return,0.1245,,85.80729167,,,,,,FBP-OG-91.png,0.45,1.2,45,0.75,,,,,,,,,,,,,,,,,,0,59,59,44,1,,,,,,,,,,,,,,,,,,,,,,,
,,,,,V3_057,18,female,2024-11-09_15h20.49.779,jersey_experiment_5_v3,2023.2.2,Win32,85.47008547,,,,,,,,,,,,,,,,,,,,,,,,,,,,,,,,,,,,,,,,,,,,,,,,,,,,,,,,831.2579,838.3052,return,7.0362,,,,,,,,,,,,,,,,,,,
,,,,,V3_057,18,female,2024-11-09_15h20.49.779,jersey_experiment_5_v3,2023.2.2,Win32,85.47008547,,,,,,,,,,,,,,,,,,,,,,,,,,,,,,,,,,,,,,,,,,,,,,,,,,,,,,,,,,,,,838.3053,842.5289,1,3.5202,return,0.684,,,,,,,,,,,,
,,,,,V3_057,18,female,2024-11-09_15h20.49.779,jersey_experiment_5_v3,2023.2.2,Win32,85.47008547,,,,,,,,,,,,,,,,,,,,,,,,,,,,,,,,,,,,,,,,,,,,,,,,,,,,,,,,,,,,,,,,,,,,842.529,960.843,"how different colours will affect the subject's judgements on pictures with different sizesthe colours green red orange and numbers like 71,81,91 appears repeatedly",right,102.7323,,,,,,
,,,,,V3_057,18,female,2024-11-09_15h20.49.779,jersey_experiment_5_v3,2023.2.2,Win32,85.47008547,,,,,,,,,,,,,,,,,,,,,,,,,,,,,,,,,,,,,,,,,,,,,,,,,,,,,,,,,,,,,,,,,,,,,,,,,,960.843,965.4929,return,4.6355,