requirements.started,requirements.stopped,key_resp_3.keys,key_resp_3.rt,key_resp_3.duration,Subject ID,Age,Gender,date,expName,psychopyVersion,OS,frameRate,instructions1.started,instructions1.stopped,key_resp.keys,key_resp.rt,key_resp.duration,example.started,example.stopped,enter_2.keys,enter_2.rt,enter_2.duration,instructions2.started,instructions2.stopped,enter_3.keys,enter_3.rt,enter_3.duration,image.started,image.stopped,slider_2.started,slider_2.stopped,next.keys,next.rt,next.duration,slider.response,trial_block_1.thisRepN,trial_block_1.thisTrialN,trial_block_1.thisN,trial_block_1.thisIndex,trial_block_1.ran,Path,Width,Height,Index,Duration,trial_block_2.thisRepN,trial_block_2.thisTrialN,trial_block_2.thisN,trial_block_2.thisIndex,trial_block_2.ran,rest_break.started,rest_break.stopped,end_break.started,end_break.stopped,key_resp_5.keys,key_resp_5.rt,key_resp_5.duration,trial_block_3.thisRepN,trial_block_3.thisTrialN,trial_block_3.thisN,trial_block_3.thisIndex,trial_block_3.ran,trial_block_4.thisRepN,trial_block_4.thisTrialN,trial_block_4.thisN,trial_block_4.thisIndex,trial_block_4.ran,questions_intro.started,questions_intro.stopped,enter_12.keys,enter_12.rt,enter_12.duration,question2.started,question2.stopped,question_doingbest.response,question_doingbest.rt,enter_15.keys,enter_15.rt,enter_15.duration,pattern.started,pattern.stopped,pattern_2.text,enter_17.keys,enter_17.rt,enter_17.duration,thankyou.started,thankyou.stopped,enter_14.keys,enter_14.rt,enter_14.duration
1E-04,9.7475,return,9.7374,,V3_073,19,Female,2024-11-18_13h15.14.859,jersey_experiment_5_v3,2023.2.2,Win32,84.74576271,,,,,,,,,,,,,,,,,,,,,,,,,,,,,,,,,,,,,,,,,,,,,,,,,,,,,,,,,,,,,,,,,,,,,,,,,,,,,,
,,,,,V3_073,19,Female,2024-11-18_13h15.14.859,jersey_experiment_5_v3,2023.2.2,Win32,84.74576271,9.7478,15.406,return,5.6449,,,,,,,,,,,,,,,,,,,,,,,,,,,,,,,,,,,,,,,,,,,,,,,,,,,,,,,,,,,,,,,,,,,,,,,,,,
,,,,,V3_073,19,Female,2024-11-18_13h15.14.859,jersey_experiment_5_v3,2023.2.2,Win32,84.74576271,,,,,,15.4061,19.936,return,4.4983,,,,,,,,,,,,,,,,,,,,,,,,,,,,,,,,,,,,,,,,,,,,,,,,,,,,,,,,,,,,,,,,,,,,,
,,,,,V3_073,19,Female,2024-11-18_13h15.14.859,jersey_experiment_5_v3,2023.2.2,Win32,84.74576271,,,,,,,,,,,19.9363,32.3246,return,12.3724,,,,,,,,,,,,,,,,,,,,,,,,,,,,,,,,,,,,,,,,,,,,,,,,,,,,,,,,,,,,,,,,
,,,,,V3_073,19,Female,2024-11-18_13h15.14.859,jersey_experiment_5_v3,2023.2.2,Win32,84.74576271,,,,,,,,,,,,,,,,32.3327,33.8779,33.8783,42.7012,return,2.7985,,25.78125,0,0,0,50,1,FBP-RB-18.png,0.35,1.2,51,0.75,,,,,,,,,,,,,,,,,,,,,,,,,,,,,,,,,,,,,,,,,,,,,
,,,,,V3_073,19,Female,2024-11-18_13h15.14.859,jersey_experiment_5_v3,2023.2.2,Win32,84.74576271,,,,,,,,,,,,,,,,42.7014,44.2437,44.2437,49.4795,return,1.8589,,23.69791667,0,1,1,10,1,FBP-YG-91.png,0.35,1.2,11,0.75,,,,,,,,,,,,,,,,,,,,,,,,,,,,,,,,,,,,,,,,,,,,,
,,,,,V3_073,19,Female,2024-11-18_13h15.14.859,jersey_experiment_5_v3,2023.2.2,Win32,84.74576271,,,,,,,,,,,,,,,,49.4797,51.0308,51.0308,53.5504,return,1.0475,,74.34895833,0,2,2,49,1,FBP-RB-17.png,0.45,1.2,50,0.75,,,,,,,,,,,,,,,,,,,,,,,,,,,,,,,,,,,,,,,,,,,,,
,,,,,V3_073,19,Female,2024-11-18_13h15.14.859,jersey_experiment_5_v3,2023.2.2,Win32,84.74576271,,,,,,,,,,,,,,,,53.5507,55.1029,55.1029,58.7974,return,1.7885,,49.73958333,0,3,3,56,1,FBP-RB-19.png,0.37,1.2,57,0.75,,,,,,,,,,,,,,,,,,,,,,,,,,,,,,,,,,,,,,,,,,,,,
,,,,,V3_073,19,Female,2024-11-18_13h15.14.859,jersey_experiment_5_v3,2023.2.2,Win32,84.74576271,,,,,,,,,,,,,,,,58.7976,60.0913,60.0913,63.8917,return,2.2589,,79.03645833,0,4,4,39,1,FBP-OG-18.png,0.45,1.2,40,0.5,,,,,,,,,,,,,,,,,,,,,,,,,,,,,,,,,,,,,,,,,,,,,
,,,,,V3_073,19,Female,2024-11-18_13h15.14.859,jersey_experiment_5_v3,2023.2.2,Win32,84.74576271,,,,,,,,,,,,,,,,63.8918,65.4431,65.4432,69.8449,return,3.1651,,62.63020833,0,5,5,57,1,FBP-RB-19.png,0.4,1.2,58,0.75,,,,,,,,,,,,,,,,,,,,,,,,,,,,,,,,,,,,,,,,,,,,,
,,,,,V3_073,19,Female,2024-11-18_13h15.14.859,jersey_experiment_5_v3,2023.2.2,Win32,84.74576271,,,,,,,,,,,,,,,,69.845,71.1372,71.1373,72.9862,return,0.2707,,74.609375,0,6,6,38,1,FBP-OG-18.png,0.43,1.2,39,0.5,,,,,,,,,,,,,,,,,,,,,,,,,,,,,,,,,,,,,,,,,,,,,
,,,,,V3_073,19,Female,2024-11-18_13h15.14.859,jersey_experiment_5_v3,2023.2.2,Win32,84.74576271,,,,,,,,,,,,,,,,72.9864,74.28,74.2801,77.7022,return,1.9547,,78.90625,0,7,7,34,1,FBP-OG-17.png,0.45,1.2,35,0.5,,,,,,,,,,,,,,,,,,,,,,,,,,,,,,,,,,,,,,,,,,,,,
,,,,,V3_073,19,Female,2024-11-18_13h15.14.859,jersey_experiment_5_v3,2023.2.2,Win32,84.74576271,,,,,,,,,,,,,,,,77.7024,79.2452,79.2452,80.0688,return,0.2472,,81.640625,0,8,8,8,1,FBP-YG-81.png,0.43,1.2,9,0.75,,,,,,,,,,,,,,,,,,,,,,,,,,,,,,,,,,,,,,,,,,,,,
,,,,,V3_073,19,Female,2024-11-18_13h15.14.859,jersey_experiment_5_v3,2023.2.2,Win32,84.74576271,,,,,,,,,,,,,,,,80.0689,81.3628,81.3628,84.1731,return,0.1866,,24.34895833,0,9,9,31,1,FBP-OG-17.png,0.37,1.2,32,0.5,,,,,,,,,,,,,,,,,,,,,,,,,,,,,,,,,,,,,,,,,,,,,
,,,,,V3_073,19,Female,2024-11-18_13h15.14.859,jersey_experiment_5_v3,2023.2.2,Win32,84.74576271,,,,,,,,,,,,,,,,84.1733,85.7276,85.7276,86.4557,return,0.2122,,25.390625,0,10,10,1,1,FBP-YG-71.png,0.37,1.2,2,0.75,,,,,,,,,,,,,,,,,,,,,,,,,,,,,,,,,,,,,,,,,,,,,
,,,,,V3_073,19,Female,2024-11-18_13h15.14.859,jersey_experiment_5_v3,2023.2.2,Win32,84.74576271,,,,,,,,,,,,,,,,86.4561,87.7512,87.7512,89.1985,return,0.1883,,74.08854167,0,11,11,43,1,FBP-OG-19.png,0.43,1.2,44,0.5,,,,,,,,,,,,,,,,,,,,,,,,,,,,,,,,,,,,,,,,,,,,,
,,,,,V3_073,19,Female,2024-11-18_13h15.14.859,jersey_experiment_5_v3,2023.2.2,Win32,84.74576271,,,,,,,,,,,,,,,,89.1987,90.7513,90.7513,92.6912,return,0.1218,,24.73958333,0,12,12,25,1,FBP-PT-19.png,0.35,1.2,26,0.75,,,,,,,,,,,,,,,,,,,,,,,,,,,,,,,,,,,,,,,,,,,,,
,,,,,V3_073,19,Female,2024-11-18_13h15.14.859,jersey_experiment_5_v3,2023.2.2,Win32,84.74576271,,,,,,,,,,,,,,,,92.6914,94.2339,94.2339,95.0912,return,0.1218,,75,0,13,13,28,1,FBP-PT-19.png,0.43,1.2,29,0.75,,,,,,,,,,,,,,,,,,,,,,,,,,,,,,,,,,,,,,,,,,,,,
,,,,,V3_073,19,Female,2024-11-18_13h15.14.859,jersey_experiment_5_v3,2023.2.2,Win32,84.74576271,,,,,,,,,,,,,,,,95.0914,96.6339,96.6339,98.8796,return,1.396,,96.35416667,0,14,14,19,1,FBP-PT-17.png,0.45,1.2,20,0.75,,,,,,,,,,,,,,,,,,,,,,,,,,,,,,,,,,,,,,,,,,,,,
,,,,,V3_073,19,Female,2024-11-18_13h15.14.859,jersey_experiment_5_v3,2023.2.2,Win32,84.74576271,,,,,,,,,,,,,,,,98.8798,100.4223,100.4224,102.0812,return,0.2237,,25.78125,0,15,15,55,1,FBP-RB-19.png,0.35,1.2,56,0.75,,,,,,,,,,,,,,,,,,,,,,,,,,,,,,,,,,,,,,,,,,,,,
,,,,,V3_073,19,Female,2024-11-18_13h15.14.859,jersey_experiment_5_v3,2023.2.2,Win32,84.74576271,,,,,,,,,,,,,,,,102.0813,103.3755,103.3755,106.2327,return,0.1768,,24.47916667,0,16,16,40,1,FBP-OG-19.png,0.35,1.2,41,0.5,,,,,,,,,,,,,,,,,,,,,,,,,,,,,,,,,,,,,,,,,,,,,
,,,,,V3_073,19,Female,2024-11-18_13h15.14.859,jersey_experiment_5_v3,2023.2.2,Win32,84.74576271,,,,,,,,,,,,,,,,106.2331,107.5283,107.5283,108.3875,return,0.1061,,25.26041667,0,17,17,36,1,FBP-OG-18.png,0.37,1.2,37,0.5,,,,,,,,,,,,,,,,,,,,,,,,,,,,,,,,,,,,,,,,,,,,,
,,,,,V3_073,19,Female,2024-11-18_13h15.14.859,jersey_experiment_5_v3,2023.2.2,Win32,84.74576271,,,,,,,,,,,,,,,,108.3876,109.9402,109.9403,113.2698,return,1.2354,,34.89583333,0,18,18,26,1,FBP-PT-19.png,0.37,1.2,27,0.75,,,,,,,,,,,,,,,,,,,,,,,,,,,,,,,,,,,,,,,,,,,,,
,,,,,V3_073,19,Female,2024-11-18_13h15.14.859,jersey_experiment_5_v3,2023.2.2,Win32,84.74576271,,,,,,,,,,,,,,,,113.2699,114.8226,114.8226,115.8936,return,0.0825,,24.609375,0,19,19,21,1,FBP-PT-18.png,0.37,1.2,22,0.75,,,,,,,,,,,,,,,,,,,,,,,,,,,,,,,,,,,,,,,,,,,,,
,,,,,V3_073,19,Female,2024-11-18_13h15.14.859,jersey_experiment_5_v3,2023.2.2,Win32,84.74576271,,,,,,,,,,,,,,,,115.8937,117.4463,117.4464,118.5644,return,0.1181,,75.13020833,0,20,20,18,1,FBP-PT-17.png,0.43,1.2,19,0.75,,,,,,,,,,,,,,,,,,,,,,,,,,,,,,,,,,,,,,,,,,,,,
,,,,,V3_073,19,Female,2024-11-18_13h15.14.859,jersey_experiment_5_v3,2023.2.2,Win32,84.74576271,,,,,,,,,,,,,,,,118.5646,120.1172,120.1173,121.1762,return,0.2473,,91.66666667,0,21,21,4,1,FBP-YG-71.png,0.45,1.2,5,0.75,,,,,,,,,,,,,,,,,,,,,,,,,,,,,,,,,,,,,,,,,,,,,
,,,,,V3_073,19,Female,2024-11-18_13h15.14.859,jersey_experiment_5_v3,2023.2.2,Win32,84.74576271,,,,,,,,,,,,,,,,121.1763,122.7275,122.7276,123.5879,return,0.2003,,90.10416667,0,22,22,29,1,FBP-PT-19.png,0.45,1.2,30,0.75,,,,,,,,,,,,,,,,,,,,,,,,,,,,,,,,,,,,,,,,,,,,,
,,,,,V3_073,19,Female,2024-11-18_13h15.14.859,jersey_experiment_5_v3,2023.2.2,Win32,84.74576271,,,,,,,,,,,,,,,,123.5882,125.1395,125.1395,126.2117,return,0.1062,,25.390625,0,23,23,20,1,FBP-PT-18.png,0.35,1.2,21,0.75,,,,,,,,,,,,,,,,,,,,,,,,,,,,,,,,,,,,,,,,,,,,,
,,,,,V3_073,19,Female,2024-11-18_13h15.14.859,jersey_experiment_5_v3,2023.2.2,Win32,84.74576271,,,,,,,,,,,,,,,,126.2119,127.7645,127.7646,128.906,return,0.1533,,24.73958333,0,24,24,15,1,FBP-PT-17.png,0.35,1.2,16,0.75,,,,,,,,,,,,,,,,,,,,,,,,,,,,,,,,,,,,,,,,,,,,,
,,,,,V3_073,19,Female,2024-11-18_13h15.14.859,jersey_experiment_5_v3,2023.2.2,Win32,84.74576271,,,,,,,,,,,,,,,,128.9062,130.4587,130.4588,131.5395,return,0.2271,,82.03125,0,25,25,58,1,FBP-RB-19.png,0.43,1.2,59,0.75,,,,,,,,,,,,,,,,,,,,,,,,,,,,,,,,,,,,,,,,,,,,,
,,,,,V3_073,19,Female,2024-11-18_13h15.14.859,jersey_experiment_5_v3,2023.2.2,Win32,84.74576271,,,,,,,,,,,,,,,,131.5398,133.0822,133.0823,134.9749,return,0.0908,,24.86979167,0,26,26,6,1,FBP-YG-81.png,0.37,1.2,7,0.75,,,,,,,,,,,,,,,,,,,,,,,,,,,,,,,,,,,,,,,,,,,,,
,,,,,V3_073,19,Female,2024-11-18_13h15.14.859,jersey_experiment_5_v3,2023.2.2,Win32,84.74576271,,,,,,,,,,,,,,,,134.9751,136.5178,136.5178,137.3162,return,0.1796,,25.65104167,0,27,27,0,1,FBP-YG-71.png,0.35,1.2,1,0.75,,,,,,,,,,,,,,,,,,,,,,,,,,,,,,,,,,,,,,,,,,,,,
,,,,,V3_073,19,Female,2024-11-18_13h15.14.859,jersey_experiment_5_v3,2023.2.2,Win32,84.74576271,,,,,,,,,,,,,,,,137.3165,138.612,138.612,141.0002,return,1.506,,83.46354167,0,28,28,37,1,FBP-OG-18.png,0.4,1.2,38,0.5,,,,,,,,,,,,,,,,,,,,,,,,,,,,,,,,,,,,,,,,,,,,,
,,,,,V3_073,19,Female,2024-11-18_13h15.14.859,jersey_experiment_5_v3,2023.2.2,Win32,84.74576271,,,,,,,,,,,,,,,,141.0004,142.5533,142.5533,144.2106,return,0.2049,,49.86979167,0,29,29,17,1,FBP-PT-17.png,0.4,1.2,18,0.75,,,,,,,,,,,,,,,,,,,,,,,,,,,,,,,,,,,,,,,,,,,,,
,,,,,V3_073,19,Female,2024-11-18_13h15.14.859,jersey_experiment_5_v3,2023.2.2,Win32,84.74576271,,,,,,,,,,,,,,,,144.2108,145.7651,145.7652,147.0593,return,0.7178,,79.55729167,0,30,30,48,1,FBP-RB-17.png,0.43,1.2,49,0.75,,,,,,,,,,,,,,,,,,,,,,,,,,,,,,,,,,,,,,,,,,,,,
,,,,,V3_073,19,Female,2024-11-18_13h15.14.859,jersey_experiment_5_v3,2023.2.2,Win32,84.74576271,,,,,,,,,,,,,,,,147.0596,148.6122,148.6122,149.4695,return,0.304,,79.16666667,0,31,31,13,1,FBP-YG-91.png,0.43,1.2,14,0.75,,,,,,,,,,,,,,,,,,,,,,,,,,,,,,,,,,,,,,,,,,,,,
,,,,,V3_073,19,Female,2024-11-18_13h15.14.859,jersey_experiment_5_v3,2023.2.2,Win32,84.74576271,,,,,,,,,,,,,,,,149.4697,151.0123,151.0124,152.1168,return,0.1437,,86.06770833,0,32,32,14,1,FBP-YG-91.png,0.45,1.2,15,0.75,,,,,,,,,,,,,,,,,,,,,,,,,,,,,,,,,,,,,,,,,,,,,
,,,,,V3_073,19,Female,2024-11-18_13h15.14.859,jersey_experiment_5_v3,2023.2.2,Win32,84.74576271,,,,,,,,,,,,,,,,152.1169,153.4124,153.4124,154.705,return,0.1004,,74.73958333,0,33,33,42,1,FBP-OG-19.png,0.4,1.2,43,0.5,,,,,,,,,,,,,,,,,,,,,,,,,,,,,,,,,,,,,,,,,,,,,
,,,,,V3_073,19,Female,2024-11-18_13h15.14.859,jersey_experiment_5_v3,2023.2.2,Win32,84.74576271,,,,,,,,,,,,,,,,154.7052,155.9992,155.9992,157.5875,return,0.1803,,26.171875,0,34,34,35,1,FBP-OG-18.png,0.35,1.2,36,0.5,,,,,,,,,,,,,,,,,,,,,,,,,,,,,,,,,,,,,,,,,,,,,
,,,,,V3_073,19,Female,2024-11-18_13h15.14.859,jersey_experiment_5_v3,2023.2.2,Win32,84.74576271,,,,,,,,,,,,,,,,157.5876,159.1303,159.1304,160.2599,return,0.1883,,24.609375,0,35,35,11,1,FBP-YG-91.png,0.37,1.2,12,0.75,,,,,,,,,,,,,,,,,,,,,,,,,,,,,,,,,,,,,,,,,,,,,
,,,,,V3_073,19,Female,2024-11-18_13h15.14.859,jersey_experiment_5_v3,2023.2.2,Win32,84.74576271,,,,,,,,,,,,,,,,160.2601,161.8114,161.8114,163.1893,return,0.2942,,49.08854167,0,36,36,27,1,FBP-PT-19.png,0.4,1.2,28,0.75,,,,,,,,,,,,,,,,,,,,,,,,,,,,,,,,,,,,,,,,,,,,,
,,,,,V3_073,19,Female,2024-11-18_13h15.14.859,jersey_experiment_5_v3,2023.2.2,Win32,84.74576271,,,,,,,,,,,,,,,,163.1896,164.4835,164.4836,165.6936,return,0.1037,,24.86979167,0,37,37,30,1,FBP-OG-17.png,0.35,1.2,31,0.5,,,,,,,,,,,,,,,,,,,,,,,,,,,,,,,,,,,,,,,,,,,,,
,,,,,V3_073,19,Female,2024-11-18_13h15.14.859,jersey_experiment_5_v3,2023.2.2,Win32,84.74576271,,,,,,,,,,,,,,,,165.6939,166.9894,166.9894,167.7895,return,0.165,,25.52083333,0,38,38,41,1,FBP-OG-19.png,0.37,1.2,42,0.5,,,,,,,,,,,,,,,,,,,,,,,,,,,,,,,,,,,,,,,,,,,,,
,,,,,V3_073,19,Female,2024-11-18_13h15.14.859,jersey_experiment_5_v3,2023.2.2,Win32,84.74576271,,,,,,,,,,,,,,,,167.7897,169.3424,169.3425,170.9425,return,0.5767,,77.99479167,0,39,39,24,1,FBP-PT-18.png,0.45,1.2,25,0.75,,,,,,,,,,,,,,,,,,,,,,,,,,,,,,,,,,,,,,,,,,,,,
,,,,,V3_073,19,Female,2024-11-18_13h15.14.859,jersey_experiment_5_v3,2023.2.2,Win32,84.74576271,,,,,,,,,,,,,,,,170.9427,172.4954,172.4954,175.5781,return,1.0237,,40.10416667,0,40,40,46,1,FBP-RB-17.png,0.37,1.2,47,0.75,,,,,,,,,,,,,,,,,,,,,,,,,,,,,,,,,,,,,,,,,,,,,
,,,,,V3_073,19,Female,2024-11-18_13h15.14.859,jersey_experiment_5_v3,2023.2.2,Win32,84.74576271,,,,,,,,,,,,,,,,175.5783,177.1294,177.1295,178.4017,return,0.0707,,38.54166667,0,41,41,2,1,FBP-YG-71.png,0.4,1.2,3,0.75,,,,,,,,,,,,,,,,,,,,,,,,,,,,,,,,,,,,,,,,,,,,,
,,,,,V3_073,19,Female,2024-11-18_13h15.14.859,jersey_experiment_5_v3,2023.2.2,Win32,84.74576271,,,,,,,,,,,,,,,,178.4019,179.9531,179.9531,181.0488,return,0.0474,,24.73958333,0,42,42,5,1,FBP-YG-81.png,0.35,1.2,6,0.75,,,,,,,,,,,,,,,,,,,,,,,,,,,,,,,,,,,,,,,,,,,,,
,,,,,V3_073,19,Female,2024-11-18_13h15.14.859,jersey_experiment_5_v3,2023.2.2,Win32,84.74576271,,,,,,,,,,,,,,,,181.0489,182.6017,182.6017,184.1431,return,0.1649,,76.30208333,0,43,43,59,1,FBP-RB-19.png,0.45,1.2,60,0.75,,,,,,,,,,,,,,,,,,,,,,,,,,,,,,,,,,,,,,,,,,,,,
,,,,,V3_073,19,Female,2024-11-18_13h15.14.859,jersey_experiment_5_v3,2023.2.2,Win32,84.74576271,,,,,,,,,,,,,,,,184.1432,185.4371,185.4371,186.0374,return,0.1296,,76.30208333,0,44,44,33,1,FBP-OG-17.png,0.43,1.2,34,0.5,,,,,,,,,,,,,,,,,,,,,,,,,,,,,,,,,,,,,,,,,,,,,
,,,,,V3_073,19,Female,2024-11-18_13h15.14.859,jersey_experiment_5_v3,2023.2.2,Win32,84.74576271,,,,,,,,,,,,,,,,186.0375,187.5886,187.5887,189.424,return,0.1605,,50.52083333,0,45,45,16,1,FBP-PT-17.png,0.37,1.2,17,0.75,,,,,,,,,,,,,,,,,,,,,,,,,,,,,,,,,,,,,,,,,,,,,
,,,,,V3_073,19,Female,2024-11-18_13h15.14.859,jersey_experiment_5_v3,2023.2.2,Win32,84.74576271,,,,,,,,,,,,,,,,189.4245,190.7181,190.7181,191.6022,return,0.1178,,50.91145833,0,46,46,32,1,FBP-OG-17.png,0.4,1.2,33,0.5,,,,,,,,,,,,,,,,,,,,,,,,,,,,,,,,,,,,,,,,,,,,,
,,,,,V3_073,19,Female,2024-11-18_13h15.14.859,jersey_experiment_5_v3,2023.2.2,Win32,84.74576271,,,,,,,,,,,,,,,,191.6024,193.155,193.1551,194.32,return,0.071,,76.43229167,0,47,47,52,1,FBP-RB-18.png,0.4,1.2,53,0.75,,,,,,,,,,,,,,,,,,,,,,,,,,,,,,,,,,,,,,,,,,,,,
,,,,,V3_073,19,Female,2024-11-18_13h15.14.859,jersey_experiment_5_v3,2023.2.2,Win32,84.74576271,,,,,,,,,,,,,,,,194.3202,195.8712,195.8713,196.673,return,0.1885,,76.30208333,0,48,48,22,1,FBP-PT-18.png,0.4,1.2,23,0.75,,,,,,,,,,,,,,,,,,,,,,,,,,,,,,,,,,,,,,,,,,,,,
,,,,,V3_073,19,Female,2024-11-18_13h15.14.859,jersey_experiment_5_v3,2023.2.2,Win32,84.74576271,,,,,,,,,,,,,,,,196.6732,198.2243,198.2243,199.8848,return,0.0709,,35.41666667,0,49,49,51,1,FBP-RB-18.png,0.37,1.2,52,0.75,,,,,,,,,,,,,,,,,,,,,,,,,,,,,,,,,,,,,,,,,,,,,
,,,,,V3_073,19,Female,2024-11-18_13h15.14.859,jersey_experiment_5_v3,2023.2.2,Win32,84.74576271,,,,,,,,,,,,,,,,199.8848,201.4376,201.4376,202.5791,return,0.0945,,50.390625,0,50,50,12,1,FBP-YG-91.png,0.4,1.2,13,0.75,,,,,,,,,,,,,,,,,,,,,,,,,,,,,,,,,,,,,,,,,,,,,
,,,,,V3_073,19,Female,2024-11-18_13h15.14.859,jersey_experiment_5_v3,2023.2.2,Win32,84.74576271,,,,,,,,,,,,,,,,202.5793,204.1304,204.1304,204.7674,return,0.1649,,50.390625,0,51,51,45,1,FBP-RB-17.png,0.35,1.2,46,0.75,,,,,,,,,,,,,,,,,,,,,,,,,,,,,,,,,,,,,,,,,,,,,
,,,,,V3_073,19,Female,2024-11-18_13h15.14.859,jersey_experiment_5_v3,2023.2.2,Win32,84.74576271,,,,,,,,,,,,,,,,204.7676,206.3204,206.3204,207.2615,return,0.1062,,76.43229167,0,52,52,3,1,FBP-YG-71.png,0.43,1.2,4,0.75,,,,,,,,,,,,,,,,,,,,,,,,,,,,,,,,,,,,,,,,,,,,,
,,,,,V3_073,19,Female,2024-11-18_13h15.14.859,jersey_experiment_5_v3,2023.2.2,Win32,84.74576271,,,,,,,,,,,,,,,,207.2616,208.8131,208.8131,209.4129,return,0.0963,,79.42708333,0,53,53,53,1,FBP-RB-18.png,0.43,1.2,54,0.75,,,,,,,,,,,,,,,,,,,,,,,,,,,,,,,,,,,,,,,,,,,,,
,,,,,V3_073,19,Female,2024-11-18_13h15.14.859,jersey_experiment_5_v3,2023.2.2,Win32,84.74576271,,,,,,,,,,,,,,,,209.4131,210.9674,210.9675,211.9088,return,0.1061,,80.33854167,0,54,54,23,1,FBP-PT-18.png,0.43,1.2,24,0.75,,,,,,,,,,,,,,,,,,,,,,,,,,,,,,,,,,,,,,,,,,,,,
,,,,,V3_073,19,Female,2024-11-18_13h15.14.859,jersey_experiment_5_v3,2023.2.2,Win32,84.74576271,,,,,,,,,,,,,,,,211.909,213.4601,213.4601,214.0954,return,0.1138,,80.078125,0,55,55,7,1,FBP-YG-81.png,0.4,1.2,8,0.75,,,,,,,,,,,,,,,,,,,,,,,,,,,,,,,,,,,,,,,,,,,,,
,,,,,V3_073,19,Female,2024-11-18_13h15.14.859,jersey_experiment_5_v3,2023.2.2,Win32,84.74576271,,,,,,,,,,,,,,,,214.0956,215.65,215.65,216.2502,return,0.0708,,85.9375,0,56,56,9,1,FBP-YG-81.png,0.45,1.2,10,0.75,,,,,,,,,,,,,,,,,,,,,,,,,,,,,,,,,,,,,,,,,,,,,
,,,,,V3_073,19,Female,2024-11-18_13h15.14.859,jersey_experiment_5_v3,2023.2.2,Win32,84.74576271,,,,,,,,,,,,,,,,216.2504,217.8016,217.8016,218.4147,return,0.0707,,85.9375,0,57,57,47,1,FBP-RB-17.png,0.4,1.2,48,0.75,,,,,,,,,,,,,,,,,,,,,,,,,,,,,,,,,,,,,,,,,,,,,
,,,,,V3_073,19,Female,2024-11-18_13h15.14.859,jersey_experiment_5_v3,2023.2.2,Win32,84.74576271,,,,,,,,,,,,,,,,218.4149,219.7073,219.7073,220.5325,return,0.0471,,88.80208333,0,58,58,44,1,FBP-OG-19.png,0.45,1.2,45,0.5,,,,,,,,,,,,,,,,,,,,,,,,,,,,,,,,,,,,,,,,,,,,,
,,,,,V3_073,19,Female,2024-11-18_13h15.14.859,jersey_experiment_5_v3,2023.2.2,Win32,84.74576271,,,,,,,,,,,,,,,,220.5327,222.0855,222.0856,222.7193,return,0.0316,,90.234375,0,59,59,54,1,FBP-RB-18.png,0.45,1.2,55,0.75,,,,,,,,,,,,,,,,,,,,,,,,,,,,,,,,,,,,,,,,,,,,,
,,,,,V3_073,19,Female,2024-11-18_13h15.14.859,jersey_experiment_5_v3,2023.2.2,Win32,84.74576271,,,,,,,,,,,,,,,,222.7205,224.0135,224.0135,224.7915,return,0.1531,,90.49479167,,,,,,FBP-OG-71.png,0.43,1.2,34,0.5,0,0,0,33,1,,,,,,,,,,,,,,,,,,,,,,,,,,,,,,,,,,,,,,,,
,,,,,V3_073,19,Female,2024-11-18_13h15.14.859,jersey_experiment_5_v3,2023.2.2,Win32,84.74576271,,,,,,,,,,,,,,,,224.7917,226.3445,226.3445,227.5076,return,0.0975,,74.34895833,,,,,,FBP-PT-71.png,0.4,1.2,18,0.75,0,1,1,17,1,,,,,,,,,,,,,,,,,,,,,,,,,,,,,,,,,,,,,,,,
,,,,,V3_073,19,Female,2024-11-18_13h15.14.859,jersey_experiment_5_v3,2023.2.2,Win32,84.74576271,,,,,,,,,,,,,,,,227.5079,229.0504,229.0504,230.533,return,0.1532,,26.953125,,,,,,FBP-PT-81.png,0.37,1.2,22,0.75,0,2,2,21,1,,,,,,,,,,,,,,,,,,,,,,,,,,,,,,,,,,,,,,,,
,,,,,V3_073,19,Female,2024-11-18_13h15.14.859,jersey_experiment_5_v3,2023.2.2,Win32,84.74576271,,,,,,,,,,,,,,,,230.5331,232.0845,232.0845,233.5332,return,0.7062,,26.5625,,,,,,FBP-RB-71.png,0.37,1.2,47,0.75,0,3,3,46,1,,,,,,,,,,,,,,,,,,,,,,,,,,,,,,,,,,,,,,,,
,,,,,V3_073,19,Female,2024-11-18_13h15.14.859,jersey_experiment_5_v3,2023.2.2,Win32,84.74576271,,,,,,,,,,,,,,,,233.5334,235.0861,235.0861,235.9685,return,0.0709,,81.11979167,,,,,,FBP-YG-17.png,0.45,1.2,5,0.75,0,4,4,4,1,,,,,,,,,,,,,,,,,,,,,,,,,,,,,,,,,,,,,,,,
,,,,,V3_073,19,Female,2024-11-18_13h15.14.859,jersey_experiment_5_v3,2023.2.2,Win32,84.74576271,,,,,,,,,,,,,,,,235.9687,237.5215,237.5215,238.9921,return,0.0708,,49.21875,,,,,,FBP-YG-19.png,0.43,1.2,14,0.75,0,5,5,13,1,,,,,,,,,,,,,,,,,,,,,,,,,,,,,,,,,,,,,,,,
,,,,,V3_073,19,Female,2024-11-18_13h15.14.859,jersey_experiment_5_v3,2023.2.2,Win32,84.74576271,,,,,,,,,,,,,,,,238.9923,240.5449,240.5449,241.8159,return,0.1414,,24.86979167,,,,,,FBP-RB-81.png,0.37,1.2,52,0.75,0,6,6,51,1,,,,,,,,,,,,,,,,,,,,,,,,,,,,,,,,,,,,,,,,
,,,,,V3_073,19,Female,2024-11-18_13h15.14.859,jersey_experiment_5_v3,2023.2.2,Win32,84.74576271,,,,,,,,,,,,,,,,241.8161,243.3687,243.3687,246.4865,return,0.2591,,25.390625,,,,,,FBP-RB-91.png,0.35,1.2,56,0.75,0,7,7,55,1,,,,,,,,,,,,,,,,,,,,,,,,,,,,,,,,,,,,,,,,
,,,,,V3_073,19,Female,2024-11-18_13h15.14.859,jersey_experiment_5_v3,2023.2.2,Win32,84.74576271,,,,,,,,,,,,,,,,246.4867,248.0395,248.0395,249.6631,return,0.1649,,73.828125,,,,,,FBP-RB-81.png,0.45,1.2,55,0.75,0,8,8,54,1,,,,,,,,,,,,,,,,,,,,,,,,,,,,,,,,,,,,,,,,
,,,,,V3_073,19,Female,2024-11-18_13h15.14.859,jersey_experiment_5_v3,2023.2.2,Win32,84.74576271,,,,,,,,,,,,,,,,249.6634,251.2145,251.2145,251.9221,return,0.2238,,73.95833333,,,,,,FBP-PT-81.png,0.43,1.2,24,0.75,0,9,9,23,1,,,,,,,,,,,,,,,,,,,,,,,,,,,,,,,,,,,,,,,,
,,,,,V3_073,19,Female,2024-11-18_13h15.14.859,jersey_experiment_5_v3,2023.2.2,Win32,84.74576271,,,,,,,,,,,,,,,,251.9222,253.4733,253.4734,254.6264,return,0.0166,,49.47916667,,,,,,FBP-YG-19.png,0.4,1.2,13,0.75,0,10,10,12,1,,,,,,,,,,,,,,,,,,,,,,,,,,,,,,,,,,,,,,,,
,,,,,V3_073,19,Female,2024-11-18_13h15.14.859,jersey_experiment_5_v3,2023.2.2,Win32,84.74576271,,,,,,,,,,,,,,,,254.6265,256.1809,256.1809,256.8382,return,0.2716,,49.47916667,,,,,,FBP-RB-71.png,0.4,1.2,48,0.75,0,11,11,47,1,,,,,,,,,,,,,,,,,,,,,,,,,,,,,,,,,,,,,,,,
,,,,,V3_073,19,Female,2024-11-18_13h15.14.859,jersey_experiment_5_v3,2023.2.2,Win32,84.74576271,,,,,,,,,,,,,,,,256.8385,258.3912,258.3913,260.3677,return,0.2194,,24.21875,,,,,,FBP-RB-81.png,0.35,1.2,51,0.75,0,12,12,50,1,,,,,,,,,,,,,,,,,,,,,,,,,,,,,,,,,,,,,,,,
,,,,,V3_073,19,Female,2024-11-18_13h15.14.859,jersey_experiment_5_v3,2023.2.2,Win32,84.74576271,,,,,,,,,,,,,,,,260.3679,261.9105,261.9105,262.6167,return,0.1768,,24.21875,,,,,,FBP-YG-17.png,0.35,1.2,1,0.75,0,13,13,0,1,,,,,,,,,,,,,,,,,,,,,,,,,,,,,,,,,,,,,,,,
,,,,,V3_073,19,Female,2024-11-18_13h15.14.859,jersey_experiment_5_v3,2023.2.2,Win32,84.74576271,,,,,,,,,,,,,,,,262.6169,264.1678,264.1679,266.4621,return,1.7386,,41.66666667,,,,,,FBP-YG-19.png,0.37,1.2,12,0.75,0,14,14,11,1,,,,,,,,,,,,,,,,,,,,,,,,,,,,,,,,,,,,,,,,
,,,,,V3_073,19,Female,2024-11-18_13h15.14.859,jersey_experiment_5_v3,2023.2.2,Win32,84.74576271,,,,,,,,,,,,,,,,266.4623,268.0048,268.0049,268.6857,return,0.0919,,41.92708333,,,,,,FBP-YG-18.png,0.4,1.2,8,0.75,0,15,15,7,1,,,,,,,,,,,,,,,,,,,,,,,,,,,,,,,,,,,,,,,,
,,,,,V3_073,19,Female,2024-11-18_13h15.14.859,jersey_experiment_5_v3,2023.2.2,Win32,84.74576271,,,,,,,,,,,,,,,,268.6859,270.2387,270.2387,271.4741,return,0.1465,,25,,,,,,FBP-YG-19.png,0.35,1.2,11,0.75,0,16,16,10,1,,,,,,,,,,,,,,,,,,,,,,,,,,,,,,,,,,,,,,,,
,,,,,V3_073,19,Female,2024-11-18_13h15.14.859,jersey_experiment_5_v3,2023.2.2,Win32,84.74576271,,,,,,,,,,,,,,,,271.4743,272.7696,272.7696,273.9228,return,0.1061,,25,,,,,,FBP-OG-71.png,0.37,1.2,32,0.5,0,17,17,31,1,,,,,,,,,,,,,,,,,,,,,,,,,,,,,,,,,,,,,,,,
,,,,,V3_073,19,Female,2024-11-18_13h15.14.859,jersey_experiment_5_v3,2023.2.2,Win32,84.74576271,,,,,,,,,,,,,,,,273.9229,275.4755,275.4756,276.5466,return,0.0004,,50.13020833,,,,,,FBP-PT-91.png,0.4,1.2,28,0.75,0,18,18,27,1,,,,,,,,,,,,,,,,,,,,,,,,,,,,,,,,,,,,,,,,
,,,,,V3_073,19,Female,2024-11-18_13h15.14.859,jersey_experiment_5_v3,2023.2.2,Win32,84.74576271,,,,,,,,,,,,,,,,276.5468,278.0994,278.0994,279.6626,return,0.1146,,74.86979167,,,,,,FBP-YG-19.png,0.45,1.2,15,0.75,0,19,19,14,1,,,,,,,,,,,,,,,,,,,,,,,,,,,,,,,,,,,,,,,,
,,,,,V3_073,19,Female,2024-11-18_13h15.14.859,jersey_experiment_5_v3,2023.2.2,Win32,84.74576271,,,,,,,,,,,,,,,,279.6628,281.217,281.217,282.1583,return,0.2591,,74.47916667,,,,,,FBP-PT-81.png,0.4,1.2,23,0.75,0,20,20,22,1,,,,,,,,,,,,,,,,,,,,,,,,,,,,,,,,,,,,,,,,
,,,,,V3_073,19,Female,2024-11-18_13h15.14.859,jersey_experiment_5_v3,2023.2.2,Win32,84.74576271,,,,,,,,,,,,,,,,282.1585,283.7113,283.7113,284.5819,return,0.1414,,74.47916667,,,,,,FBP-PT-71.png,0.45,1.2,20,0.75,0,21,21,19,1,,,,,,,,,,,,,,,,,,,,,,,,,,,,,,,,,,,,,,,,
,,,,,V3_073,19,Female,2024-11-18_13h15.14.859,jersey_experiment_5_v3,2023.2.2,Win32,84.74576271,,,,,,,,,,,,,,,,284.5822,286.1334,286.1334,286.8644,return,0.0827,,74.34895833,,,,,,FBP-YG-18.png,0.43,1.2,9,0.75,0,22,22,8,1,,,,,,,,,,,,,,,,,,,,,,,,,,,,,,,,,,,,,,,,
,,,,,V3_073,19,Female,2024-11-18_13h15.14.859,jersey_experiment_5_v3,2023.2.2,Win32,84.74576271,,,,,,,,,,,,,,,,286.8646,288.1569,288.1569,289.5822,return,0.0707,,25,,,,,,FBP-OG-81.png,0.37,1.2,37,0.5,0,23,23,36,1,,,,,,,,,,,,,,,,,,,,,,,,,,,,,,,,,,,,,,,,
,,,,,V3_073,19,Female,2024-11-18_13h15.14.859,jersey_experiment_5_v3,2023.2.2,Win32,84.74576271,,,,,,,,,,,,,,,,289.5824,290.8747,290.8748,292.2057,return,0.059,,74.86979167,,,,,,FBP-OG-91.png,0.43,1.2,44,0.5,0,24,24,43,1,,,,,,,,,,,,,,,,,,,,,,,,,,,,,,,,,,,,,,,,
,,,,,V3_073,19,Female,2024-11-18_13h15.14.859,jersey_experiment_5_v3,2023.2.2,Win32,84.74576271,,,,,,,,,,,,,,,,292.2058,293.4999,293.4999,294.6414,return,0.0474,,49.609375,,,,,,FBP-OG-91.png,0.4,1.2,43,0.5,0,25,25,42,1,,,,,,,,,,,,,,,,,,,,,,,,,,,,,,,,,,,,,,,,
,,,,,V3_073,19,Female,2024-11-18_13h15.14.859,jersey_experiment_5_v3,2023.2.2,Win32,84.74576271,,,,,,,,,,,,,,,,294.6415,295.9351,295.9352,298.7104,return,0.0021,,74.08854167,,,,,,FBP-OG-81.png,0.43,1.2,39,0.5,0,26,26,38,1,,,,,,,,,,,,,,,,,,,,,,,,,,,,,,,,,,,,,,,,
,,,,,V3_073,19,Female,2024-11-18_13h15.14.859,jersey_experiment_5_v3,2023.2.2,Win32,84.74576271,,,,,,,,,,,,,,,,298.7105,300.2648,300.2649,301.6769,return,0.1769,,24.47916667,,,,,,FBP-PT-71.png,0.37,1.2,17,0.75,0,27,27,16,1,,,,,,,,,,,,,,,,,,,,,,,,,,,,,,,,,,,,,,,,
,,,,,V3_073,19,Female,2024-11-18_13h15.14.859,jersey_experiment_5_v3,2023.2.2,Win32,84.74576271,,,,,,,,,,,,,,,,301.677,303.2296,303.2297,306.0299,return,0.6471,,24.21875,,,,,,FBP-YG-18.png,0.37,1.2,7,0.75,0,28,28,6,1,,,,,,,,,,,,,,,,,,,,,,,,,,,,,,,,,,,,,,,,
,,,,,V3_073,19,Female,2024-11-18_13h15.14.859,jersey_experiment_5_v3,2023.2.2,Win32,84.74576271,,,,,,,,,,,,,,,,306.0301,307.5829,307.5829,308.6889,return,0.2709,,24.47916667,,,,,,FBP-PT-91.png,0.37,1.2,27,0.75,0,29,29,26,1,,,,,,,,,,,,,,,,,,,,,,,,,,,,,,,,,,,,,,,,
,,,,,V3_073,19,Female,2024-11-18_13h15.14.859,jersey_experiment_5_v3,2023.2.2,Win32,84.74576271,,,,,,,,,,,,,,,,308.6891,310.2416,310.2417,310.9595,return,0.2237,,24.47916667,,,,,,FBP-YG-17.png,0.37,1.2,2,0.75,0,30,30,1,1,,,,,,,,,,,,,,,,,,,,,,,,,,,,,,,,,,,,,,,,
,,,,,V3_073,19,Female,2024-11-18_13h15.14.859,jersey_experiment_5_v3,2023.2.2,Win32,84.74576271,,,,,,,,,,,,,,,,310.9597,312.5124,312.5124,313.6185,return,0.0708,,75.390625,,,,,,FBP-RB-71.png,0.45,1.2,50,0.75,0,31,31,49,1,,,,,,,,,,,,,,,,,,,,,,,,,,,,,,,,,,,,,,,,
,,,,,V3_073,19,Female,2024-11-18_13h15.14.859,jersey_experiment_5_v3,2023.2.2,Win32,84.74576271,,,,,,,,,,,,,,,,313.6186,315.1711,315.1712,315.9835,return,0.0004,,49.34895833,,,,,,FBP-YG-17.png,0.4,1.2,3,0.75,0,32,32,2,1,,,,,,,,,,,,,,,,,,,,,,,,,,,,,,,,,,,,,,,,
,,,,,V3_073,19,Female,2024-11-18_13h15.14.859,jersey_experiment_5_v3,2023.2.2,Win32,84.74576271,,,,,,,,,,,,,,,,315.9837,317.5345,317.5345,319.1818,return,0.6448,,49.08854167,,,,,,FBP-RB-81.png,0.4,1.2,53,0.75,0,33,33,52,1,,,,,,,,,,,,,,,,,,,,,,,,,,,,,,,,,,,,,,,,
,,,,,V3_073,19,Female,2024-11-18_13h15.14.859,jersey_experiment_5_v3,2023.2.2,Win32,84.74576271,,,,,,,,,,,,,,,,319.1821,320.4758,320.4758,321.5248,return,0.0004,,24.609375,,,,,,FBP-OG-81.png,0.35,1.2,36,0.5,0,34,34,35,1,,,,,,,,,,,,,,,,,,,,,,,,,,,,,,,,,,,,,,,,
,,,,,V3_073,19,Female,2024-11-18_13h15.14.859,jersey_experiment_5_v3,2023.2.2,Win32,84.74576271,,,,,,,,,,,,,,,,321.525,323.0777,323.0777,324.8187,return,0.6824,,66.92708333,,,,,,FBP-PT-91.png,0.45,1.2,30,0.75,0,35,35,29,1,,,,,,,,,,,,,,,,,,,,,,,,,,,,,,,,,,,,,,,,
,,,,,V3_073,19,Female,2024-11-18_13h15.14.859,jersey_experiment_5_v3,2023.2.2,Win32,84.74576271,,,,,,,,,,,,,,,,324.8188,326.1112,326.1113,326.9113,return,0.102,,66.92708333,,,,,,FBP-OG-71.png,0.4,1.2,33,0.5,0,36,36,32,1,,,,,,,,,,,,,,,,,,,,,,,,,,,,,,,,,,,,,,,,
,,,,,V3_073,19,Female,2024-11-18_13h15.14.859,jersey_experiment_5_v3,2023.2.2,Win32,84.74576271,,,,,,,,,,,,,,,,326.9114,328.4658,328.4658,329.3937,return,0.0761,,81.640625,,,,,,FBP-PT-91.png,0.43,1.2,29,0.75,0,37,37,28,1,,,,,,,,,,,,,,,,,,,,,,,,,,,,,,,,,,,,,,,,
,,,,,V3_073,19,Female,2024-11-18_13h15.14.859,jersey_experiment_5_v3,2023.2.2,Win32,84.74576271,,,,,,,,,,,,,,,,329.3938,330.9364,330.9364,332.3016,return,0.118,,66.015625,,,,,,FBP-RB-91.png,0.4,1.2,58,0.75,0,38,38,57,1,,,,,,,,,,,,,,,,,,,,,,,,,,,,,,,,,,,,,,,,
,,,,,V3_073,19,Female,2024-11-18_13h15.14.859,jersey_experiment_5_v3,2023.2.2,Win32,84.74576271,,,,,,,,,,,,,,,,332.3016,333.8543,333.8543,334.7013,return,0.012,,84.24479167,,,,,,FBP-RB-71.png,0.43,1.2,49,0.75,0,39,39,48,1,,,,,,,,,,,,,,,,,,,,,,,,,,,,,,,,,,,,,,,,
,,,,,V3_073,19,Female,2024-11-18_13h15.14.859,jersey_experiment_5_v3,2023.2.2,Win32,84.74576271,,,,,,,,,,,,,,,,334.7014,336.2426,336.2426,337.5016,return,0.0119,,25,,,,,,FBP-RB-71.png,0.35,1.2,46,0.75,0,40,40,45,1,,,,,,,,,,,,,,,,,,,,,,,,,,,,,,,,,,,,,,,,
,,,,,V3_073,19,Female,2024-11-18_13h15.14.859,jersey_experiment_5_v3,2023.2.2,Win32,84.74576271,,,,,,,,,,,,,,,,337.5018,338.7956,338.7956,339.3605,return,0.1295,,25.78125,,,,,,FBP-OG-91.png,0.35,1.2,41,0.5,0,41,41,40,1,,,,,,,,,,,,,,,,,,,,,,,,,,,,,,,,,,,,,,,,
,,,,,V3_073,19,Female,2024-11-18_13h15.14.859,jersey_experiment_5_v3,2023.2.2,Win32,84.74576271,,,,,,,,,,,,,,,,339.3607,340.9118,340.9119,341.5253,return,0.1414,,25.78125,,,,,,FBP-YG-18.png,0.35,1.2,6,0.75,0,42,42,5,1,,,,,,,,,,,,,,,,,,,,,,,,,,,,,,,,,,,,,,,,
,,,,,V3_073,19,Female,2024-11-18_13h15.14.859,jersey_experiment_5_v3,2023.2.2,Win32,84.74576271,,,,,,,,,,,,,,,,341.5256,343.0782,343.0782,344.1372,return,0.0942,,79.55729167,,,,,,FBP-RB-91.png,0.45,1.2,60,0.75,0,43,43,59,1,,,,,,,,,,,,,,,,,,,,,,,,,,,,,,,,,,,,,,,,
,,,,,V3_073,19,Female,2024-11-18_13h15.14.859,jersey_experiment_5_v3,2023.2.2,Win32,84.74576271,,,,,,,,,,,,,,,,344.1373,345.4312,345.4312,345.9842,return,0.0355,,78.90625,,,,,,FBP-OG-81.png,0.45,1.2,40,0.5,0,44,44,39,1,,,,,,,,,,,,,,,,,,,,,,,,,,,,,,,,,,,,,,,,
,,,,,V3_073,19,Female,2024-11-18_13h15.14.859,jersey_experiment_5_v3,2023.2.2,Win32,84.74576271,,,,,,,,,,,,,,,,345.9844,347.2767,347.2768,348.4062,return,0.002,,50.13020833,,,,,,FBP-OG-81.png,0.4,1.2,38,0.5,0,45,45,37,1,,,,,,,,,,,,,,,,,,,,,,,,,,,,,,,,,,,,,,,,
,,,,,V3_073,19,Female,2024-11-18_13h15.14.859,jersey_experiment_5_v3,2023.2.2,Win32,84.74576271,,,,,,,,,,,,,,,,348.4065,349.7003,349.7004,350.6316,return,0.0004,,25.13020833,,,,,,FBP-OG-71.png,0.35,1.2,31,0.5,0,46,46,30,1,,,,,,,,,,,,,,,,,,,,,,,,,,,,,,,,,,,,,,,,
,,,,,V3_073,19,Female,2024-11-18_13h15.14.859,jersey_experiment_5_v3,2023.2.2,Win32,84.74576271,,,,,,,,,,,,,,,,350.6317,352.1844,352.1844,352.9476,return,0.0271,,80.59895833,,,,,,FBP-YG-18.png,0.45,1.2,10,0.75,0,47,47,9,1,,,,,,,,,,,,,,,,,,,,,,,,,,,,,,,,,,,,,,,,
,,,,,V3_073,19,Female,2024-11-18_13h15.14.859,jersey_experiment_5_v3,2023.2.2,Win32,84.74576271,,,,,,,,,,,,,,,,352.9478,354.4903,354.4903,355.6552,return,0.1886,,49.47916667,,,,,,FBP-PT-71.png,0.35,1.2,16,0.75,0,48,48,15,1,,,,,,,,,,,,,,,,,,,,,,,,,,,,,,,,,,,,,,,,
,,,,,V3_073,19,Female,2024-11-18_13h15.14.859,jersey_experiment_5_v3,2023.2.2,Win32,84.74576271,,,,,,,,,,,,,,,,355.6554,356.9491,356.9491,358.2083,return,0.1766,,75.65104167,,,,,,FBP-OG-71.png,0.45,1.2,35,0.5,0,49,49,34,1,,,,,,,,,,,,,,,,,,,,,,,,,,,,,,,,,,,,,,,,
,,,,,V3_073,19,Female,2024-11-18_13h15.14.859,jersey_experiment_5_v3,2023.2.2,Win32,84.74576271,,,,,,,,,,,,,,,,358.2085,359.7596,359.7596,360.4082,return,0.1884,,75.390625,,,,,,FBP-PT-81.png,0.45,1.2,25,0.75,0,50,50,24,1,,,,,,,,,,,,,,,,,,,,,,,,,,,,,,,,,,,,,,,,
,,,,,V3_073,19,Female,2024-11-18_13h15.14.859,jersey_experiment_5_v3,2023.2.2,Win32,84.74576271,,,,,,,,,,,,,,,,360.4084,361.9496,361.9496,363.2186,return,0.1339,,23.56770833,,,,,,FBP-RB-91.png,0.37,1.2,57,0.75,0,51,51,56,1,,,,,,,,,,,,,,,,,,,,,,,,,,,,,,,,,,,,,,,,
,,,,,V3_073,19,Female,2024-11-18_13h15.14.859,jersey_experiment_5_v3,2023.2.2,Win32,84.74576271,,,,,,,,,,,,,,,,363.2188,364.5128,364.5128,365.185,return,0.0945,,23.828125,,,,,,FBP-OG-91.png,0.37,1.2,42,0.5,0,52,52,41,1,,,,,,,,,,,,,,,,,,,,,,,,,,,,,,,,,,,,,,,,
,,,,,V3_073,19,Female,2024-11-18_13h15.14.859,jersey_experiment_5_v3,2023.2.2,Win32,84.74576271,,,,,,,,,,,,,,,,365.1852,366.7264,366.7264,367.9379,return,0.0944,,77.47395833,,,,,,FBP-RB-81.png,0.43,1.2,54,0.75,0,53,53,53,1,,,,,,,,,,,,,,,,,,,,,,,,,,,,,,,,,,,,,,,,
,,,,,V3_073,19,Female,2024-11-18_13h15.14.859,jersey_experiment_5_v3,2023.2.2,Win32,84.74576271,,,,,,,,,,,,,,,,367.9381,369.4908,369.4909,370.4792,return,0.1178,,50.13020833,,,,,,FBP-PT-81.png,0.35,1.2,21,0.75,0,54,54,20,1,,,,,,,,,,,,,,,,,,,,,,,,,,,,,,,,,,,,,,,,
,,,,,V3_073,19,Female,2024-11-18_13h15.14.859,jersey_experiment_5_v3,2023.2.2,Win32,84.74576271,,,,,,,,,,,,,,,,370.4794,372.0322,372.0322,373.8542,return,1.1385,,68.61979167,,,,,,FBP-PT-71.png,0.43,1.2,19,0.75,0,55,55,18,1,,,,,,,,,,,,,,,,,,,,,,,,,,,,,,,,,,,,,,,,
,,,,,V3_073,19,Female,2024-11-18_13h15.14.859,jersey_experiment_5_v3,2023.2.2,Win32,84.74576271,,,,,,,,,,,,,,,,373.8544,375.1484,375.1484,376.4325,return,0.1886,,74.86979167,,,,,,FBP-OG-91.png,0.45,1.2,45,0.5,0,56,56,44,1,,,,,,,,,,,,,,,,,,,,,,,,,,,,,,,,,,,,,,,,
,,,,,V3_073,19,Female,2024-11-18_13h15.14.859,jersey_experiment_5_v3,2023.2.2,Win32,84.74576271,,,,,,,,,,,,,,,,376.4326,377.9853,377.9853,379.8795,return,1.271,,74.08854167,,,,,,FBP-YG-17.png,0.43,1.2,4,0.75,0,57,57,3,1,,,,,,,,,,,,,,,,,,,,,,,,,,,,,,,,,,,,,,,,
,,,,,V3_073,19,Female,2024-11-18_13h15.14.859,jersey_experiment_5_v3,2023.2.2,Win32,84.74576271,,,,,,,,,,,,,,,,379.8797,381.4309,381.431,382.7856,return,0.5297,,75.390625,,,,,,FBP-RB-91.png,0.43,1.2,59,0.75,0,58,58,58,1,,,,,,,,,,,,,,,,,,,,,,,,,,,,,,,,,,,,,,,,
,,,,,V3_073,19,Female,2024-11-18_13h15.14.859,jersey_experiment_5_v3,2023.2.2,Win32,84.74576271,,,,,,,,,,,,,,,,382.7859,384.3384,384.3384,386.5136,return,0.9237,,32.421875,,,,,,FBP-PT-91.png,0.35,1.2,26,0.75,0,59,59,25,1,,,,,,,,,,,,,,,,,,,,,,,,,,,,,,,,,,,,,,,,
,,,,,V3_073,19,Female,2024-11-18_13h15.14.859,jersey_experiment_5_v3,2023.2.2,Win32,84.74576271,,,,,,,,,,,,,,,,,,,,,,,,,,,,,,,,,,,,,,,386.5137,506.5077,,,,,,,,,,,,,,,,,,,,,,,,,,,,,,,,,,,,,,
,,,,,V3_073,19,Female,2024-11-18_13h15.14.859,jersey_experiment_5_v3,2023.2.2,Win32,84.74576271,,,,,,,,,,,,,,,,,,,,,,,,,,,,,,,,,,,,,,,,,506.5078,570.7913,return,64.2628,,,,,,,,,,,,,,,,,,,,,,,,,,,,,,,,,,
,,,,,V3_073,19,Female,2024-11-18_13h15.14.859,jersey_experiment_5_v3,2023.2.2,Win32,84.74576271,,,,,,,,,,,,,,,,570.795,572.3452,572.3453,575.6514,return,0.7297,,49.86979167,,,,,,FBP-OG-18.png,0.43,1.2,39,0.75,,,,,,,,,,,,,0,0,0,38,1,,,,,,,,,,,,,,,,,,,,,,,,,,,,
,,,,,V3_073,19,Female,2024-11-18_13h15.14.859,jersey_experiment_5_v3,2023.2.2,Win32,84.74576271,,,,,,,,,,,,,,,,575.6516,577.2043,577.2043,579.2046,return,0.6708,,75.13020833,,,,,,FBP-OG-18.png,0.45,1.2,40,0.75,,,,,,,,,,,,,0,1,1,39,1,,,,,,,,,,,,,,,,,,,,,,,,,,,,
,,,,,V3_073,19,Female,2024-11-18_13h15.14.859,jersey_experiment_5_v3,2023.2.2,Win32,84.74576271,,,,,,,,,,,,,,,,579.2047,580.4986,580.4987,581.956,return,0.6035,,49.21875,,,,,,FBP-RB-17.png,0.37,1.2,47,0.5,,,,,,,,,,,,,0,2,2,46,1,,,,,,,,,,,,,,,,,,,,,,,,,,,,
,,,,,V3_073,19,Female,2024-11-18_13h15.14.859,jersey_experiment_5_v3,2023.2.2,Win32,84.74576271,,,,,,,,,,,,,,,,581.9562,583.4987,583.4988,586.1105,return,0.2118,,50.52083333,,,,,,FBP-OG-19.png,0.37,1.2,42,0.75,,,,,,,,,,,,,0,3,3,41,1,,,,,,,,,,,,,,,,,,,,,,,,,,,,
,,,,,V3_073,19,Female,2024-11-18_13h15.14.859,jersey_experiment_5_v3,2023.2.2,Win32,84.74576271,,,,,,,,,,,,,,,,586.1106,587.4047,587.4048,589.0739,return,0.4168,,75.390625,,,,,,FBP-RB-19.png,0.45,1.2,60,0.5,,,,,,,,,,,,,0,4,4,59,1,,,,,,,,,,,,,,,,,,,,,,,,,,,,
,,,,,V3_073,19,Female,2024-11-18_13h15.14.859,jersey_experiment_5_v3,2023.2.2,Win32,84.74576271,,,,,,,,,,,,,,,,589.0741,590.3694,590.3694,590.8993,return,0.0829,,73.56770833,,,,,,FBP-YG-71.png,0.45,1.2,5,0.5,,,,,,,,,,,,,0,5,5,4,1,,,,,,,,,,,,,,,,,,,,,,,,,,,,
,,,,,V3_073,19,Female,2024-11-18_13h15.14.859,jersey_experiment_5_v3,2023.2.2,Win32,84.74576271,,,,,,,,,,,,,,,,590.8995,592.1932,592.1932,592.5093,return,0.0335,,73.4375,,,,,,FBP-PT-19.png,0.45,1.2,30,0.5,,,,,,,,,,,,,0,6,6,29,1,,,,,,,,,,,,,,,,,,,,,,,,,,,,
,,,,,V3_073,19,Female,2024-11-18_13h15.14.859,jersey_experiment_5_v3,2023.2.2,Win32,84.74576271,,,,,,,,,,,,,,,,592.5094,594.052,594.052,595.38,return,0.3563,,49.08854167,,,,,,FBP-OG-18.png,0.37,1.2,37,0.75,,,,,,,,,,,,,0,7,7,36,1,,,,,,,,,,,,,,,,,,,,,,,,,,,,
,,,,,V3_073,19,Female,2024-11-18_13h15.14.859,jersey_experiment_5_v3,2023.2.2,Win32,84.74576271,,,,,,,,,,,,,,,,595.3802,596.9227,596.9227,599.7801,return,0.0738,,49.609375,,,,,,FBP-OG-18.png,0.4,1.2,38,0.75,,,,,,,,,,,,,0,8,8,37,1,,,,,,,,,,,,,,,,,,,,,,,,,,,,
,,,,,V3_073,19,Female,2024-11-18_13h15.14.859,jersey_experiment_5_v3,2023.2.2,Win32,84.74576271,,,,,,,,,,,,,,,,599.7803,601.0757,601.0757,601.6876,return,0.0943,,49.34895833,,,,,,FBP-YG-71.png,0.43,1.2,4,0.5,,,,,,,,,,,,,0,9,9,3,1,,,,,,,,,,,,,,,,,,,,,,,,,,,,
,,,,,V3_073,19,Female,2024-11-18_13h15.14.859,jersey_experiment_5_v3,2023.2.2,Win32,84.74576271,,,,,,,,,,,,,,,,601.6878,602.9803,602.9803,604.2289,return,0.0944,,25.26041667,,,,,,FBP-PT-18.png,0.35,1.2,21,0.5,,,,,,,,,,,,,0,10,10,20,1,,,,,,,,,,,,,,,,,,,,,,,,,,,,
,,,,,V3_073,19,Female,2024-11-18_13h15.14.859,jersey_experiment_5_v3,2023.2.2,Win32,84.74576271,,,,,,,,,,,,,,,,604.229,605.5216,605.5216,606.8627,return,0.1969,,66.015625,,,,,,FBP-PT-17.png,0.45,1.2,20,0.5,,,,,,,,,,,,,0,11,11,19,1,,,,,,,,,,,,,,,,,,,,,,,,,,,,
,,,,,V3_073,19,Female,2024-11-18_13h15.14.859,jersey_experiment_5_v3,2023.2.2,Win32,84.74576271,,,,,,,,,,,,,,,,606.8628,608.1583,608.1583,609.4746,return,0.0753,,50.91145833,,,,,,FBP-YG-91.png,0.4,1.2,13,0.5,,,,,,,,,,,,,0,12,12,12,1,,,,,,,,,,,,,,,,,,,,,,,,,,,,
,,,,,V3_073,19,Female,2024-11-18_13h15.14.859,jersey_experiment_5_v3,2023.2.2,Win32,84.74576271,,,,,,,,,,,,,,,,609.4748,610.7688,610.7688,611.8866,return,0.1735,,22.91666667,,,,,,FBP-YG-81.png,0.37,1.2,7,0.5,,,,,,,,,,,,,0,13,13,6,1,,,,,,,,,,,,,,,,,,,,,,,,,,,,
,,,,,V3_073,19,Female,2024-11-18_13h15.14.859,jersey_experiment_5_v3,2023.2.2,Win32,84.74576271,,,,,,,,,,,,,,,,611.8867,613.1821,613.1821,614.3825,return,0.0004,,50.78125,,,,,,FBP-RB-19.png,0.43,1.2,59,0.5,,,,,,,,,,,,,0,14,14,58,1,,,,,,,,,,,,,,,,,,,,,,,,,,,,
,,,,,V3_073,19,Female,2024-11-18_13h15.14.859,jersey_experiment_5_v3,2023.2.2,Win32,84.74576271,,,,,,,,,,,,,,,,614.3826,615.6748,615.6749,616.7941,return,0.0709,,25.65104167,,,,,,FBP-RB-18.png,0.35,1.2,51,0.5,,,,,,,,,,,,,0,15,15,50,1,,,,,,,,,,,,,,,,,,,,,,,,,,,,
,,,,,V3_073,19,Female,2024-11-18_13h15.14.859,jersey_experiment_5_v3,2023.2.2,Win32,84.74576271,,,,,,,,,,,,,,,,616.7943,618.0867,618.0867,619.3001,return,0.0003,,49.609375,,,,,,FBP-PT-19.png,0.4,1.2,28,0.5,,,,,,,,,,,,,0,16,16,27,1,,,,,,,,,,,,,,,,,,,,,,,,,,,,
,,,,,V3_073,19,Female,2024-11-18_13h15.14.859,jersey_experiment_5_v3,2023.2.2,Win32,84.74576271,,,,,,,,,,,,,,,,619.3002,620.5927,620.5927,622.8516,return,0.2037,,32.16145833,,,,,,FBP-RB-19.png,0.35,1.2,56,0.5,,,,,,,,,,,,,0,17,17,55,1,,,,,,,,,,,,,,,,,,,,,,,,,,,,
,,,,,V3_073,19,Female,2024-11-18_13h15.14.859,jersey_experiment_5_v3,2023.2.2,Win32,84.74576271,,,,,,,,,,,,,,,,622.8518,624.3944,624.3944,625.8652,return,0.6001,,25.26041667,,,,,,FBP-OG-19.png,0.35,1.2,41,0.75,,,,,,,,,,,,,0,18,18,40,1,,,,,,,,,,,,,,,,,,,,,,,,,,,,
,,,,,V3_073,19,Female,2024-11-18_13h15.14.859,jersey_experiment_5_v3,2023.2.2,Win32,84.74576271,,,,,,,,,,,,,,,,625.8653,627.1591,627.1591,629.077,return,0.0355,,50.52083333,,,,,,FBP-YG-81.png,0.35,1.2,6,0.5,,,,,,,,,,,,,0,19,19,5,1,,,,,,,,,,,,,,,,,,,,,,,,,,,,
,,,,,V3_073,19,Female,2024-11-18_13h15.14.859,jersey_experiment_5_v3,2023.2.2,Win32,84.74576271,,,,,,,,,,,,,,,,629.0772,630.371,630.371,631.8063,return,0.0119,,49.34895833,,,,,,FBP-RB-19.png,0.4,1.2,58,0.5,,,,,,,,,,,,,0,20,20,57,1,,,,,,,,,,,,,,,,,,,,,,,,,,,,
,,,,,V3_073,19,Female,2024-11-18_13h15.14.859,jersey_experiment_5_v3,2023.2.2,Win32,84.74576271,,,,,,,,,,,,,,,,631.8064,633.0989,633.0989,633.5225,return,0.0047,,49.34895833,,,,,,FBP-PT-17.png,0.37,1.2,17,0.5,,,,,,,,,,,,,0,21,21,16,1,,,,,,,,,,,,,,,,,,,,,,,,,,,,
,,,,,V3_073,19,Female,2024-11-18_13h15.14.859,jersey_experiment_5_v3,2023.2.2,Win32,84.74576271,,,,,,,,,,,,,,,,633.5227,634.818,634.818,635.6992,return,0.004,,65.49479167,,,,,,FBP-YG-71.png,0.4,1.2,3,0.5,,,,,,,,,,,,,0,22,22,2,1,,,,,,,,,,,,,,,,,,,,,,,,,,,,
,,,,,V3_073,19,Female,2024-11-18_13h15.14.859,jersey_experiment_5_v3,2023.2.2,Win32,84.74576271,,,,,,,,,,,,,,,,635.6995,637.2419,637.2419,638.2421,return,0.0709,,74.86979167,,,,,,FBP-OG-17.png,0.43,1.2,34,0.75,,,,,,,,,,,,,0,23,23,33,1,,,,,,,,,,,,,,,,,,,,,,,,,,,,
,,,,,V3_073,19,Female,2024-11-18_13h15.14.859,jersey_experiment_5_v3,2023.2.2,Win32,84.74576271,,,,,,,,,,,,,,,,638.2423,639.5359,639.5359,640.7698,return,0.0642,,76.171875,,,,,,FBP-RB-17.png,0.43,1.2,49,0.5,,,,,,,,,,,,,0,24,24,48,1,,,,,,,,,,,,,,,,,,,,,,,,,,,,
,,,,,V3_073,19,Female,2024-11-18_13h15.14.859,jersey_experiment_5_v3,2023.2.2,Win32,84.74576271,,,,,,,,,,,,,,,,640.77,642.0654,642.0655,643.7481,return,0.0003,,25.26041667,,,,,,FBP-RB-18.png,0.37,1.2,52,0.5,,,,,,,,,,,,,0,25,25,51,1,,,,,,,,,,,,,,,,,,,,,,,,,,,,
,,,,,V3_073,19,Female,2024-11-18_13h15.14.859,jersey_experiment_5_v3,2023.2.2,Win32,84.74576271,,,,,,,,,,,,,,,,643.7483,645.0421,645.0421,645.9365,return,0.0003,,50.52083333,,,,,,FBP-PT-18.png,0.43,1.2,24,0.5,,,,,,,,,,,,,0,26,26,23,1,,,,,,,,,,,,,,,,,,,,,,,,,,,,
,,,,,V3_073,19,Female,2024-11-18_13h15.14.859,jersey_experiment_5_v3,2023.2.2,Win32,84.74576271,,,,,,,,,,,,,,,,645.9367,647.4892,647.4893,648.7717,return,0.5414,,75.65104167,,,,,,FBP-OG-19.png,0.45,1.2,45,0.75,,,,,,,,,,,,,0,27,27,44,1,,,,,,,,,,,,,,,,,,,,,,,,,,,,
,,,,,V3_073,19,Female,2024-11-18_13h15.14.859,jersey_experiment_5_v3,2023.2.2,Win32,84.74576271,,,,,,,,,,,,,,,,648.7719,650.0643,650.0643,650.5953,return,0.0237,,74.34895833,,,,,,FBP-PT-18.png,0.4,1.2,23,0.5,,,,,,,,,,,,,0,28,28,22,1,,,,,,,,,,,,,,,,,,,,,,,,,,,,
,,,,,V3_073,19,Female,2024-11-18_13h15.14.859,jersey_experiment_5_v3,2023.2.2,Win32,84.74576271,,,,,,,,,,,,,,,,650.5955,651.8893,651.8893,653.5838,return,0.5532,,24.86979167,,,,,,FBP-PT-17.png,0.35,1.2,16,0.5,,,,,,,,,,,,,0,29,29,15,1,,,,,,,,,,,,,,,,,,,,,,,,,,,,
,,,,,V3_073,19,Female,2024-11-18_13h15.14.859,jersey_experiment_5_v3,2023.2.2,Win32,84.74576271,,,,,,,,,,,,,,,,653.5841,654.8778,654.8778,656.2661,return,0.4708,,26.04166667,,,,,,FBP-YG-91.png,0.35,1.2,11,0.5,,,,,,,,,,,,,0,30,30,10,1,,,,,,,,,,,,,,,,,,,,,,,,,,,,
,,,,,V3_073,19,Female,2024-11-18_13h15.14.859,jersey_experiment_5_v3,2023.2.2,Win32,84.74576271,,,,,,,,,,,,,,,,656.2662,657.5587,657.5588,658.7705,return,0.04,,74.609375,,,,,,FBP-RB-17.png,0.45,1.2,50,0.5,,,,,,,,,,,,,0,31,31,49,1,,,,,,,,,,,,,,,,,,,,,,,,,,,,
,,,,,V3_073,19,Female,2024-11-18_13h15.14.859,jersey_experiment_5_v3,2023.2.2,Win32,84.74576271,,,,,,,,,,,,,,,,658.7709,660.0646,660.0647,661.0295,return,0.1313,,51.171875,,,,,,FBP-YG-91.png,0.37,1.2,12,0.5,,,,,,,,,,,,,0,32,32,11,1,,,,,,,,,,,,,,,,,,,,,,,,,,,,
,,,,,V3_073,19,Female,2024-11-18_13h15.14.859,jersey_experiment_5_v3,2023.2.2,Win32,84.74576271,,,,,,,,,,,,,,,,661.0298,662.3251,662.3251,663.1254,return,0.0004,,73.17708333,,,,,,FBP-YG-81.png,0.43,1.2,9,0.5,,,,,,,,,,,,,0,33,33,8,1,,,,,,,,,,,,,,,,,,,,,,,,,,,,
,,,,,V3_073,19,Female,2024-11-18_13h15.14.859,jersey_experiment_5_v3,2023.2.2,Win32,84.74576271,,,,,,,,,,,,,,,,663.1256,664.4179,664.418,665.7137,return,0.4827,,50.65104167,,,,,,FBP-YG-71.png,0.35,1.2,1,0.5,,,,,,,,,,,,,0,34,34,0,1,,,,,,,,,,,,,,,,,,,,,,,,,,,,
,,,,,V3_073,19,Female,2024-11-18_13h15.14.859,jersey_experiment_5_v3,2023.2.2,Win32,84.74576271,,,,,,,,,,,,,,,,665.7139,667.0075,667.0076,668.2314,return,0.1061,,74.08854167,,,,,,FBP-YG-91.png,0.43,1.2,14,0.5,,,,,,,,,,,,,0,35,35,13,1,,,,,,,,,,,,,,,,,,,,,,,,,,,,
,,,,,V3_073,19,Female,2024-11-18_13h15.14.859,jersey_experiment_5_v3,2023.2.2,Win32,84.74576271,,,,,,,,,,,,,,,,668.2315,669.5254,669.5254,670.9255,return,0.4473,,51.171875,,,,,,FBP-YG-71.png,0.37,1.2,2,0.5,,,,,,,,,,,,,0,36,36,1,1,,,,,,,,,,,,,,,,,,,,,,,,,,,,
,,,,,V3_073,19,Female,2024-11-18_13h15.14.859,jersey_experiment_5_v3,2023.2.2,Win32,84.74576271,,,,,,,,,,,,,,,,670.9256,672.4768,672.4769,673.0063,return,0.0324,,51.171875,,,,,,FBP-OG-17.png,0.37,1.2,32,0.75,,,,,,,,,,,,,0,37,37,31,1,,,,,,,,,,,,,,,,,,,,,,,,,,,,
,,,,,V3_073,19,Female,2024-11-18_13h15.14.859,jersey_experiment_5_v3,2023.2.2,Win32,84.74576271,,,,,,,,,,,,,,,,673.0065,674.3005,674.3006,674.6534,return,0.1039,,51.171875,,,,,,FBP-RB-17.png,0.35,1.2,46,0.5,,,,,,,,,,,,,0,38,38,45,1,,,,,,,,,,,,,,,,,,,,,,,,,,,,
,,,,,V3_073,19,Female,2024-11-18_13h15.14.859,jersey_experiment_5_v3,2023.2.2,Win32,84.74576271,,,,,,,,,,,,,,,,674.6536,675.9491,675.9491,677.1359,return,0.0896,,51.04166667,,,,,,FBP-PT-19.png,0.37,1.2,27,0.5,,,,,,,,,,,,,0,39,39,26,1,,,,,,,,,,,,,,,,,,,,,,,,,,,,
,,,,,V3_073,19,Female,2024-11-18_13h15.14.859,jersey_experiment_5_v3,2023.2.2,Win32,84.74576271,,,,,,,,,,,,,,,,677.1362,678.4301,678.4301,678.9847,return,0.0237,,51.04166667,,,,,,FBP-PT-19.png,0.35,1.2,26,0.5,,,,,,,,,,,,,0,40,40,25,1,,,,,,,,,,,,,,,,,,,,,,,,,,,,
,,,,,V3_073,19,Female,2024-11-18_13h15.14.859,jersey_experiment_5_v3,2023.2.2,Win32,84.74576271,,,,,,,,,,,,,,,,678.9848,680.5376,680.5376,681.1495,return,0.1062,,67.70833333,,,,,,FBP-OG-19.png,0.43,1.2,44,0.75,,,,,,,,,,,,,0,41,41,43,1,,,,,,,,,,,,,,,,,,,,,,,,,,,,
,,,,,V3_073,19,Female,2024-11-18_13h15.14.859,jersey_experiment_5_v3,2023.2.2,Win32,84.74576271,,,,,,,,,,,,,,,,681.1497,682.7008,682.7008,683.3968,return,0.0004,,70.05208333,,,,,,FBP-OG-19.png,0.4,1.2,43,0.75,,,,,,,,,,,,,0,42,42,42,1,,,,,,,,,,,,,,,,,,,,,,,,,,,,
,,,,,V3_073,19,Female,2024-11-18_13h15.14.859,jersey_experiment_5_v3,2023.2.2,Win32,84.74576271,,,,,,,,,,,,,,,,683.3969,684.6906,684.6906,685.1009,return,0.0339,,69.921875,,,,,,FBP-PT-17.png,0.43,1.2,19,0.5,,,,,,,,,,,,,0,43,43,18,1,,,,,,,,,,,,,,,,,,,,,,,,,,,,
,,,,,V3_073,19,Female,2024-11-18_13h15.14.859,jersey_experiment_5_v3,2023.2.2,Win32,84.74576271,,,,,,,,,,,,,,,,685.101,686.3966,686.3966,686.7614,return,0.0589,,69.921875,,,,,,FBP-PT-18.png,0.45,1.2,25,0.5,,,,,,,,,,,,,0,44,44,24,1,,,,,,,,,,,,,,,,,,,,,,,,,,,,
,,,,,V3_073,19,Female,2024-11-18_13h15.14.859,jersey_experiment_5_v3,2023.2.2,Win32,84.74576271,,,,,,,,,,,,,,,,686.7615,688.054,688.054,690.2423,return,0.4521,,64.0625,,,,,,FBP-RB-17.png,0.4,1.2,48,0.5,,,,,,,,,,,,,0,45,45,47,1,,,,,,,,,,,,,,,,,,,,,,,,,,,,
,,,,,V3_073,19,Female,2024-11-18_13h15.14.859,jersey_experiment_5_v3,2023.2.2,Win32,84.74576271,,,,,,,,,,,,,,,,690.2425,691.5364,691.5365,692.9028,return,0.7885,,63.80208333,,,,,,FBP-PT-18.png,0.37,1.2,22,0.5,,,,,,,,,,,,,0,46,46,21,1,,,,,,,,,,,,,,,,,,,,,,,,,,,,
,,,,,V3_073,19,Female,2024-11-18_13h15.14.859,jersey_experiment_5_v3,2023.2.2,Win32,84.74576271,,,,,,,,,,,,,,,,692.9029,694.4558,694.4558,696.0323,return,0.4473,,24.73958333,,,,,,FBP-OG-17.png,0.35,1.2,31,0.75,,,,,,,,,,,,,0,47,47,30,1,,,,,,,,,,,,,,,,,,,,,,,,,,,,
,,,,,V3_073,19,Female,2024-11-18_13h15.14.859,jersey_experiment_5_v3,2023.2.2,Win32,84.74576271,,,,,,,,,,,,,,,,696.0325,697.3263,697.3263,698.1501,return,0.4592,,24.86979167,,,,,,FBP-RB-19.png,0.37,1.2,57,0.5,,,,,,,,,,,,,0,48,48,56,1,,,,,,,,,,,,,,,,,,,,,,,,,,,,
,,,,,V3_073,19,Female,2024-11-18_13h15.14.859,jersey_experiment_5_v3,2023.2.2,Win32,84.74576271,,,,,,,,,,,,,,,,698.1502,699.444,699.4441,700.878,return,0.4798,,74.34895833,,,,,,FBP-RB-18.png,0.43,1.2,54,0.5,,,,,,,,,,,,,0,49,49,53,1,,,,,,,,,,,,,,,,,,,,,,,,,,,,
,,,,,V3_073,19,Female,2024-11-18_13h15.14.859,jersey_experiment_5_v3,2023.2.2,Win32,84.74576271,,,,,,,,,,,,,,,,700.8782,702.4206,702.4206,703.0561,return,0.0943,,73.95833333,,,,,,FBP-OG-17.png,0.4,1.2,33,0.75,,,,,,,,,,,,,0,50,50,32,1,,,,,,,,,,,,,,,,,,,,,,,,,,,,
,,,,,V3_073,19,Female,2024-11-18_13h15.14.859,jersey_experiment_5_v3,2023.2.2,Win32,84.74576271,,,,,,,,,,,,,,,,703.0563,704.3502,704.3503,706.3386,return,1.6119,,65.36458333,,,,,,FBP-YG-81.png,0.4,1.2,8,0.5,,,,,,,,,,,,,0,51,51,7,1,,,,,,,,,,,,,,,,,,,,,,,,,,,,
,,,,,V3_073,19,Female,2024-11-18_13h15.14.859,jersey_experiment_5_v3,2023.2.2,Win32,84.74576271,,,,,,,,,,,,,,,,706.3388,707.6326,707.6326,709.2329,return,0.4474,,74.73958333,,,,,,FBP-PT-19.png,0.43,1.2,29,0.5,,,,,,,,,,,,,0,52,52,28,1,,,,,,,,,,,,,,,,,,,,,,,,,,,,
,,,,,V3_073,19,Female,2024-11-18_13h15.14.859,jersey_experiment_5_v3,2023.2.2,Win32,84.74576271,,,,,,,,,,,,,,,,709.233,710.7842,710.7842,711.4329,return,0.0238,,77.47395833,,,,,,FBP-OG-17.png,0.45,1.2,35,0.75,,,,,,,,,,,,,0,53,53,34,1,,,,,,,,,,,,,,,,,,,,,,,,,,,,
,,,,,V3_073,19,Female,2024-11-18_13h15.14.859,jersey_experiment_5_v3,2023.2.2,Win32,84.74576271,,,,,,,,,,,,,,,,711.433,712.7255,712.7255,713.7019,return,0.4134,,77.34375,,,,,,FBP-YG-91.png,0.45,1.2,15,0.5,,,,,,,,,,,,,0,54,54,14,1,,,,,,,,,,,,,,,,,,,,,,,,,,,,
,,,,,V3_073,19,Female,2024-11-18_13h15.14.859,jersey_experiment_5_v3,2023.2.2,Win32,84.74576271,,,,,,,,,,,,,,,,713.702,714.9975,714.9975,716.1963,return,0.4971,,82.421875,,,,,,FBP-RB-18.png,0.45,1.2,55,0.5,,,,,,,,,,,,,0,55,55,54,1,,,,,,,,,,,,,,,,,,,,,,,,,,,,
,,,,,V3_073,19,Female,2024-11-18_13h15.14.859,jersey_experiment_5_v3,2023.2.2,Win32,84.74576271,,,,,,,,,,,,,,,,716.1964,717.4919,717.4919,718.7391,return,0.0474,,52.08333333,,,,,,FBP-RB-18.png,0.4,1.2,53,0.5,,,,,,,,,,,,,0,56,56,52,1,,,,,,,,,,,,,,,,,,,,,,,,,,,,
,,,,,V3_073,19,Female,2024-11-18_13h15.14.859,jersey_experiment_5_v3,2023.2.2,Win32,84.74576271,,,,,,,,,,,,,,,,718.7394,720.0316,720.0316,720.6452,return,0.1767,,52.21354167,,,,,,FBP-PT-17.png,0.4,1.2,18,0.5,,,,,,,,,,,,,0,57,57,17,1,,,,,,,,,,,,,,,,,,,,,,,,,,,,
,,,,,V3_073,19,Female,2024-11-18_13h15.14.859,jersey_experiment_5_v3,2023.2.2,Win32,84.74576271,,,,,,,,,,,,,,,,720.6454,722.1965,722.1966,723.2687,return,0.1767,,26.04166667,,,,,,FBP-OG-18.png,0.35,1.2,36,0.75,,,,,,,,,,,,,0,58,58,35,1,,,,,,,,,,,,,,,,,,,,,,,,,,,,
,,,,,V3_073,19,Female,2024-11-18_13h15.14.859,jersey_experiment_5_v3,2023.2.2,Win32,84.74576271,,,,,,,,,,,,,,,,723.2688,724.5611,724.5611,725.7981,return,0.0826,,75.13020833,,,,,,FBP-YG-81.png,0.45,1.2,10,0.5,,,,,,,,,,,,,0,59,59,9,1,,,,,,,,,,,,,,,,,,,,,,,,,,,,
,,,,,V3_073,19,Female,2024-11-18_13h15.14.859,jersey_experiment_5_v3,2023.2.2,Win32,84.74576271,,,,,,,,,,,,,,,,725.7994,727.0907,727.0907,727.7159,return,0.1296,,74.21875,,,,,,FBP-PT-91.png,0.45,1.2,30,0.5,,,,,,,,,,,,,,,,,,0,0,0,29,1,,,,,,,,,,,,,,,,,,,,,,,
,,,,,V3_073,19,Female,2024-11-18_13h15.14.859,jersey_experiment_5_v3,2023.2.2,Win32,84.74576271,,,,,,,,,,,,,,,,727.7161,729.0098,729.0098,729.61,return,0.0706,,76.69270833,,,,,,FBP-YG-18.png,0.45,1.2,10,0.5,,,,,,,,,,,,,,,,,,0,1,1,9,1,,,,,,,,,,,,,,,,,,,,,,,
,,,,,V3_073,19,Female,2024-11-18_13h15.14.859,jersey_experiment_5_v3,2023.2.2,Win32,84.74576271,,,,,,,,,,,,,,,,729.6101,730.904,730.904,731.5514,return,0.2121,,76.43229167,,,,,,FBP-PT-91.png,0.4,1.2,28,0.5,,,,,,,,,,,,,,,,,,0,2,2,27,1,,,,,,,,,,,,,,,,,,,,,,,
,,,,,V3_073,19,Female,2024-11-18_13h15.14.859,jersey_experiment_5_v3,2023.2.2,Win32,84.74576271,,,,,,,,,,,,,,,,731.5516,733.1042,733.1042,733.75,return,0.0606,,49.47916667,,,,,,FBP-OG-91.png,0.4,1.2,43,0.75,,,,,,,,,,,,,,,,,,0,3,3,42,1,,,,,,,,,,,,,,,,,,,,,,,
,,,,,V3_073,19,Female,2024-11-18_13h15.14.859,jersey_experiment_5_v3,2023.2.2,Win32,84.74576271,,,,,,,,,,,,,,,,733.7502,735.0453,735.0453,736.1749,return,0.0825,,23.828125,,,,,,FBP-YG-18.png,0.35,1.2,6,0.5,,,,,,,,,,,,,,,,,,0,4,4,5,1,,,,,,,,,,,,,,,,,,,,,,,
,,,,,V3_073,19,Female,2024-11-18_13h15.14.859,jersey_experiment_5_v3,2023.2.2,Win32,84.74576271,,,,,,,,,,,,,,,,736.175,737.728,737.728,738.3517,return,0.1297,,23.828125,,,,,,FBP-OG-91.png,0.35,1.2,41,0.75,,,,,,,,,,,,,,,,,,0,5,5,40,1,,,,,,,,,,,,,,,,,,,,,,,
,,,,,V3_073,19,Female,2024-11-18_13h15.14.859,jersey_experiment_5_v3,2023.2.2,Win32,84.74576271,,,,,,,,,,,,,,,,738.3518,739.6442,739.6442,740.5499,return,0.0614,,66.40625,,,,,,FBP-RB-91.png,0.4,1.2,58,0.5,,,,,,,,,,,,,,,,,,0,6,6,57,1,,,,,,,,,,,,,,,,,,,,,,,
,,,,,V3_073,19,Female,2024-11-18_13h15.14.859,jersey_experiment_5_v3,2023.2.2,Win32,84.74576271,,,,,,,,,,,,,,,,740.5502,742.0926,742.0926,742.7517,return,0.0944,,77.08333333,,,,,,FBP-OG-81.png,0.43,1.2,39,0.75,,,,,,,,,,,,,,,,,,0,7,7,38,1,,,,,,,,,,,,,,,,,,,,,,,
,,,,,V3_073,19,Female,2024-11-18_13h15.14.859,jersey_experiment_5_v3,2023.2.2,Win32,84.74576271,,,,,,,,,,,,,,,,742.7519,744.0445,744.0445,744.9502,return,0.0018,,64.97395833,,,,,,FBP-RB-81.png,0.4,1.2,53,0.5,,,,,,,,,,,,,,,,,,0,8,8,52,1,,,,,,,,,,,,,,,,,,,,,,,
,,,,,V3_073,19,Female,2024-11-18_13h15.14.859,jersey_experiment_5_v3,2023.2.2,Win32,84.74576271,,,,,,,,,,,,,,,,744.9503,746.2443,746.2443,747.293,return,0.0355,,49.86979167,,,,,,FBP-YG-19.png,0.37,1.2,12,0.5,,,,,,,,,,,,,,,,,,0,9,9,11,1,,,,,,,,,,,,,,,,,,,,,,,
,,,,,V3_073,19,Female,2024-11-18_13h15.14.859,jersey_experiment_5_v3,2023.2.2,Win32,84.74576271,,,,,,,,,,,,,,,,747.2931,748.587,748.5871,749.1856,return,0.1939,,49.73958333,,,,,,FBP-PT-91.png,0.35,1.2,26,0.5,,,,,,,,,,,,,,,,,,0,10,10,25,1,,,,,,,,,,,,,,,,,,,,,,,
,,,,,V3_073,19,Female,2024-11-18_13h15.14.859,jersey_experiment_5_v3,2023.2.2,Win32,84.74576271,,,,,,,,,,,,,,,,749.1859,750.4811,750.4812,752.3756,return,0.5768,,69.53125,,,,,,FBP-PT-81.png,0.45,1.2,25,0.5,,,,,,,,,,,,,,,,,,0,11,11,24,1,,,,,,,,,,,,,,,,,,,,,,,
,,,,,V3_073,19,Female,2024-11-18_13h15.14.859,jersey_experiment_5_v3,2023.2.2,Win32,84.74576271,,,,,,,,,,,,,,,,752.3758,753.6697,753.6697,754.4328,return,0.0417,,75.78125,,,,,,FBP-RB-71.png,0.43,1.2,49,0.5,,,,,,,,,,,,,,,,,,0,12,12,48,1,,,,,,,,,,,,,,,,,,,,,,,
,,,,,V3_073,19,Female,2024-11-18_13h15.14.859,jersey_experiment_5_v3,2023.2.2,Win32,84.74576271,,,,,,,,,,,,,,,,754.433,755.727,755.727,756.3976,return,0.0567,,75.91145833,,,,,,FBP-YG-17.png,0.45,1.2,5,0.5,,,,,,,,,,,,,,,,,,0,13,13,4,1,,,,,,,,,,,,,,,,,,,,,,,
,,,,,V3_073,19,Female,2024-11-18_13h15.14.859,jersey_experiment_5_v3,2023.2.2,Win32,84.74576271,,,,,,,,,,,,,,,,756.3977,757.6918,757.6918,758.8937,return,0.0005,,76.5625,,,,,,FBP-RB-91.png,0.43,1.2,59,0.5,,,,,,,,,,,,,,,,,,0,14,14,58,1,,,,,,,,,,,,,,,,,,,,,,,
,,,,,V3_073,19,Female,2024-11-18_13h15.14.859,jersey_experiment_5_v3,2023.2.2,Win32,84.74576271,,,,,,,,,,,,,,,,758.8939,760.4463,760.4463,762.1271,return,0.6902,,23.69791667,,,,,,FBP-OG-71.png,0.35,1.2,31,0.75,,,,,,,,,,,,,,,,,,0,15,15,30,1,,,,,,,,,,,,,,,,,,,,,,,
,,,,,V3_073,19,Female,2024-11-18_13h15.14.859,jersey_experiment_5_v3,2023.2.2,Win32,84.74576271,,,,,,,,,,,,,,,,762.1273,763.4215,763.4215,766.7745,return,0.5781,,48.046875,,,,,,FBP-PT-71.png,0.43,1.2,19,0.5,,,,,,,,,,,,,,,,,,0,16,16,18,1,,,,,,,,,,,,,,,,,,,,,,,
,,,,,V3_073,19,Female,2024-11-18_13h15.14.859,jersey_experiment_5_v3,2023.2.2,Win32,84.74576271,,,,,,,,,,,,,,,,766.7747,768.329,768.3291,769.8585,return,0.1061,,67.05729167,,,,,,FBP-OG-91.png,0.43,1.2,44,0.75,,,,,,,,,,,,,,,,,,0,17,17,43,1,,,,,,,,,,,,,,,,,,,,,,,
,,,,,V3_073,19,Female,2024-11-18_13h15.14.859,jersey_experiment_5_v3,2023.2.2,Win32,84.74576271,,,,,,,,,,,,,,,,769.8586,771.1512,771.1512,771.9998,return,0.1413,,75.78125,,,,,,FBP-RB-81.png,0.45,1.2,55,0.5,,,,,,,,,,,,,,,,,,0,18,18,54,1,,,,,,,,,,,,,,,,,,,,,,,
,,,,,V3_073,19,Female,2024-11-18_13h15.14.859,jersey_experiment_5_v3,2023.2.2,Win32,84.74576271,,,,,,,,,,,,,,,,772,773.5511,773.5512,773.9396,return,0.0391,,77.60416667,,,,,,FBP-OG-81.png,0.45,1.2,40,0.75,,,,,,,,,,,,,,,,,,0,19,19,39,1,,,,,,,,,,,,,,,,,,,,,,,
,,,,,V3_073,19,Female,2024-11-18_13h15.14.859,jersey_experiment_5_v3,2023.2.2,Win32,84.74576271,,,,,,,,,,,,,,,,773.9397,775.4939,775.4939,776.4454,return,0.4569,,79.296875,,,,,,FBP-OG-71.png,0.45,1.2,35,0.75,,,,,,,,,,,,,,,,,,0,20,20,34,1,,,,,,,,,,,,,,,,,,,,,,,
,,,,,V3_073,19,Female,2024-11-18_13h15.14.859,jersey_experiment_5_v3,2023.2.2,Win32,84.74576271,,,,,,,,,,,,,,,,776.4456,777.9882,777.9882,779.0002,return,0.059,,25.65104167,,,,,,FBP-OG-71.png,0.37,1.2,32,0.75,,,,,,,,,,,,,,,,,,0,21,21,31,1,,,,,,,,,,,,,,,,,,,,,,,
,,,,,V3_073,19,Female,2024-11-18_13h15.14.859,jersey_experiment_5_v3,2023.2.2,Win32,84.74576271,,,,,,,,,,,,,,,,779.0003,780.5531,780.5531,781.459,return,0.0357,,49.21875,,,,,,FBP-OG-71.png,0.4,1.2,33,0.75,,,,,,,,,,,,,,,,,,0,22,22,32,1,,,,,,,,,,,,,,,,,,,,,,,
,,,,,V3_073,19,Female,2024-11-18_13h15.14.859,jersey_experiment_5_v3,2023.2.2,Win32,84.74576271,,,,,,,,,,,,,,,,781.459,782.753,782.753,783.3178,return,0.0709,,49.21875,,,,,,FBP-PT-81.png,0.4,1.2,23,0.5,,,,,,,,,,,,,,,,,,0,23,23,22,1,,,,,,,,,,,,,,,,,,,,,,,
,,,,,V3_073,19,Female,2024-11-18_13h15.14.859,jersey_experiment_5_v3,2023.2.2,Win32,84.74576271,,,,,,,,,,,,,,,,783.318,784.6105,784.6105,785.8105,return,0.04,,78.125,,,,,,FBP-YG-19.png,0.45,1.2,15,0.5,,,,,,,,,,,,,,,,,,0,24,24,14,1,,,,,,,,,,,,,,,,,,,,,,,
,,,,,V3_073,19,Female,2024-11-18_13h15.14.859,jersey_experiment_5_v3,2023.2.2,Win32,84.74576271,,,,,,,,,,,,,,,,785.8107,787.3532,787.3532,788.4223,return,0.0724,,50.13020833,,,,,,FBP-OG-81.png,0.4,1.2,38,0.75,,,,,,,,,,,,,,,,,,0,25,25,37,1,,,,,,,,,,,,,,,,,,,,,,,
,,,,,V3_073,19,Female,2024-11-18_13h15.14.859,jersey_experiment_5_v3,2023.2.2,Win32,84.74576271,,,,,,,,,,,,,,,,788.4226,789.7182,789.7182,790.4341,return,0.0638,,55.33854167,,,,,,FBP-YG-19.png,0.4,1.2,13,0.5,,,,,,,,,,,,,,,,,,0,26,26,12,1,,,,,,,,,,,,,,,,,,,,,,,
,,,,,V3_073,19,Female,2024-11-18_13h15.14.859,jersey_experiment_5_v3,2023.2.2,Win32,84.74576271,,,,,,,,,,,,,,,,790.4342,791.7284,791.7286,793.3419,return,0.0943,,40.36458333,,,,,,FBP-PT-71.png,0.37,1.2,17,0.5,,,,,,,,,,,,,,,,,,0,27,27,16,1,,,,,,,,,,,,,,,,,,,,,,,
,,,,,V3_073,19,Female,2024-11-18_13h15.14.859,jersey_experiment_5_v3,2023.2.2,Win32,84.74576271,,,,,,,,,,,,,,,,793.3421,794.6344,794.6344,795.5539,return,0.0004,,33.07291667,,,,,,FBP-RB-91.png,0.37,1.2,57,0.5,,,,,,,,,,,,,,,,,,0,28,28,56,1,,,,,,,,,,,,,,,,,,,,,,,
,,,,,V3_073,19,Female,2024-11-18_13h15.14.859,jersey_experiment_5_v3,2023.2.2,Win32,84.74576271,,,,,,,,,,,,,,,,795.5541,796.8476,796.8476,798.2109,return,0.0394,,68.48958333,,,,,,FBP-PT-71.png,0.4,1.2,18,0.5,,,,,,,,,,,,,,,,,,0,29,29,17,1,,,,,,,,,,,,,,,,,,,,,,,
,,,,,V3_073,19,Female,2024-11-18_13h15.14.859,jersey_experiment_5_v3,2023.2.2,Win32,84.74576271,,,,,,,,,,,,,,,,798.211,799.5067,799.5067,800.87,return,0.4251,,38.02083333,,,,,,FBP-PT-91.png,0.37,1.2,27,0.5,,,,,,,,,,,,,,,,,,0,30,30,26,1,,,,,,,,,,,,,,,,,,,,,,,
,,,,,V3_073,19,Female,2024-11-18_13h15.14.859,jersey_experiment_5_v3,2023.2.2,Win32,84.74576271,,,,,,,,,,,,,,,,800.8701,802.1655,802.1655,803.5188,return,0.4236,,77.60416667,,,,,,FBP-RB-71.png,0.45,1.2,50,0.5,,,,,,,,,,,,,,,,,,0,31,31,49,1,,,,,,,,,,,,,,,,,,,,,,,
,,,,,V3_073,19,Female,2024-11-18_13h15.14.859,jersey_experiment_5_v3,2023.2.2,Win32,84.74576271,,,,,,,,,,,,,,,,803.519,805.07,805.0701,805.4583,return,0.0165,,79.296875,,,,,,FBP-OG-91.png,0.45,1.2,45,0.75,,,,,,,,,,,,,,,,,,0,32,32,44,1,,,,,,,,,,,,,,,,,,,,,,,
,,,,,V3_073,19,Female,2024-11-18_13h15.14.859,jersey_experiment_5_v3,2023.2.2,Win32,84.74576271,,,,,,,,,,,,,,,,805.4584,806.7525,806.7526,808.2013,return,0.0709,,35.546875,,,,,,FBP-RB-91.png,0.35,1.2,56,0.5,,,,,,,,,,,,,,,,,,0,33,33,55,1,,,,,,,,,,,,,,,,,,,,,,,
,,,,,V3_073,19,Female,2024-11-18_13h15.14.859,jersey_experiment_5_v3,2023.2.2,Win32,84.74576271,,,,,,,,,,,,,,,,808.2015,809.4938,809.4938,810.1895,return,0.412,,35.546875,,,,,,FBP-RB-71.png,0.37,1.2,47,0.5,,,,,,,,,,,,,,,,,,0,34,34,46,1,,,,,,,,,,,,,,,,,,,,,,,
,,,,,V3_073,19,Female,2024-11-18_13h15.14.859,jersey_experiment_5_v3,2023.2.2,Win32,84.74576271,,,,,,,,,,,,,,,,810.1897,811.4833,811.4833,813.5526,return,1.0892,,64.84375,,,,,,FBP-YG-17.png,0.43,1.2,4,0.5,,,,,,,,,,,,,,,,,,0,35,35,3,1,,,,,,,,,,,,,,,,,,,,,,,
,,,,,V3_073,19,Female,2024-11-18_13h15.14.859,jersey_experiment_5_v3,2023.2.2,Win32,84.74576271,,,,,,,,,,,,,,,,813.5527,814.8483,814.8483,816.3057,return,0.7231,,64.19270833,,,,,,FBP-RB-71.png,0.4,1.2,48,0.5,,,,,,,,,,,,,,,,,,0,36,36,47,1,,,,,,,,,,,,,,,,,,,,,,,
,,,,,V3_073,19,Female,2024-11-18_13h15.14.859,jersey_experiment_5_v3,2023.2.2,Win32,84.74576271,,,,,,,,,,,,,,,,816.3059,817.8603,817.8603,819.0603,return,0.0236,,60.67708333,,,,,,FBP-OG-81.png,0.37,1.2,37,0.75,,,,,,,,,,,,,,,,,,0,37,37,36,1,,,,,,,,,,,,,,,,,,,,,,,
,,,,,V3_073,19,Female,2024-11-18_13h15.14.859,jersey_experiment_5_v3,2023.2.2,Win32,84.74576271,,,,,,,,,,,,,,,,819.0605,820.3544,820.3544,821.6001,return,0.466,,79.42708333,,,,,,FBP-PT-71.png,0.45,1.2,20,0.5,,,,,,,,,,,,,,,,,,0,38,38,19,1,,,,,,,,,,,,,,,,,,,,,,,
,,,,,V3_073,19,Female,2024-11-18_13h15.14.859,jersey_experiment_5_v3,2023.2.2,Win32,84.74576271,,,,,,,,,,,,,,,,821.6002,822.8958,822.8958,823.3661,return,0.141,,79.03645833,,,,,,FBP-YG-19.png,0.43,1.2,14,0.5,,,,,,,,,,,,,,,,,,0,39,39,13,1,,,,,,,,,,,,,,,,,,,,,,,
,,,,,V3_073,19,Female,2024-11-18_13h15.14.859,jersey_experiment_5_v3,2023.2.2,Win32,84.74576271,,,,,,,,,,,,,,,,823.3663,824.6605,824.6605,826.0019,return,0.118,,64.97395833,,,,,,FBP-RB-71.png,0.35,1.2,46,0.5,,,,,,,,,,,,,,,,,,0,40,40,45,1,,,,,,,,,,,,,,,,,,,,,,,
,,,,,V3_073,19,Female,2024-11-18_13h15.14.859,jersey_experiment_5_v3,2023.2.2,Win32,84.74576271,,,,,,,,,,,,,,,,826.0021,827.2958,827.2959,829.6962,return,0.1413,,48.69791667,,,,,,FBP-PT-71.png,0.35,1.2,16,0.5,,,,,,,,,,,,,,,,,,0,41,41,15,1,,,,,,,,,,,,,,,,,,,,,,,
,,,,,V3_073,19,Female,2024-11-18_13h15.14.859,jersey_experiment_5_v3,2023.2.2,Win32,84.74576271,,,,,,,,,,,,,,,,829.6963,830.9901,830.9901,831.4727,return,0.0236,,48.69791667,,,,,,FBP-RB-81.png,0.35,1.2,51,0.5,,,,,,,,,,,,,,,,,,0,42,42,50,1,,,,,,,,,,,,,,,,,,,,,,,
,,,,,V3_073,19,Female,2024-11-18_13h15.14.859,jersey_experiment_5_v3,2023.2.2,Win32,84.74576271,,,,,,,,,,,,,,,,831.4729,832.7666,832.7666,833.6374,return,0.0003,,76.43229167,,,,,,FBP-RB-81.png,0.43,1.2,54,0.5,,,,,,,,,,,,,,,,,,0,43,43,53,1,,,,,,,,,,,,,,,,,,,,,,,
,,,,,V3_073,19,Female,2024-11-18_13h15.14.859,jersey_experiment_5_v3,2023.2.2,Win32,84.74576271,,,,,,,,,,,,,,,,833.6376,834.93,834.93,836.5653,return,0.4254,,25.65104167,,,,,,FBP-YG-19.png,0.35,1.2,11,0.5,,,,,,,,,,,,,,,,,,0,44,44,10,1,,,,,,,,,,,,,,,,,,,,,,,
,,,,,V3_073,19,Female,2024-11-18_13h15.14.859,jersey_experiment_5_v3,2023.2.2,Win32,84.74576271,,,,,,,,,,,,,,,,836.5655,838.1079,838.108,838.9183,return,0.0604,,25.65104167,,,,,,FBP-OG-81.png,0.35,1.2,36,0.75,,,,,,,,,,,,,,,,,,0,45,45,35,1,,,,,,,,,,,,,,,,,,,,,,,
,,,,,V3_073,19,Female,2024-11-18_13h15.14.859,jersey_experiment_5_v3,2023.2.2,Win32,84.74576271,,,,,,,,,,,,,,,,838.9186,840.2125,840.2125,841.3889,return,0.0103,,70.57291667,,,,,,FBP-YG-17.png,0.4,1.2,3,0.5,,,,,,,,,,,,,,,,,,0,46,46,2,1,,,,,,,,,,,,,,,,,,,,,,,
,,,,,V3_073,19,Female,2024-11-18_13h15.14.859,jersey_experiment_5_v3,2023.2.2,Win32,84.74576271,,,,,,,,,,,,,,,,841.3891,842.6846,842.6846,844.4027,return,0.6355,,58.72395833,,,,,,FBP-YG-17.png,0.37,1.2,2,0.5,,,,,,,,,,,,,,,,,,0,47,47,1,1,,,,,,,,,,,,,,,,,,,,,,,
,,,,,V3_073,19,Female,2024-11-18_13h15.14.859,jersey_experiment_5_v3,2023.2.2,Win32,84.74576271,,,,,,,,,,,,,,,,844.4028,845.6965,845.6966,846.1421,return,0.1033,,58.72395833,,,,,,FBP-PT-81.png,0.37,1.2,22,0.5,,,,,,,,,,,,,,,,,,0,48,48,21,1,,,,,,,,,,,,,,,,,,,,,,,
,,,,,V3_073,19,Female,2024-11-18_13h15.14.859,jersey_experiment_5_v3,2023.2.2,Win32,84.74576271,,,,,,,,,,,,,,,,846.1424,847.4363,847.4363,848.3186,return,0.0085,,75.91145833,,,,,,FBP-PT-91.png,0.43,1.2,29,0.5,,,,,,,,,,,,,,,,,,0,49,49,28,1,,,,,,,,,,,,,,,,,,,,,,,
,,,,,V3_073,19,Female,2024-11-18_13h15.14.859,jersey_experiment_5_v3,2023.2.2,Win32,84.74576271,,,,,,,,,,,,,,,,848.3188,849.6143,849.6143,850.3068,return,0.0983,,75.91145833,,,,,,FBP-RB-91.png,0.45,1.2,60,0.5,,,,,,,,,,,,,,,,,,0,50,50,59,1,,,,,,,,,,,,,,,,,,,,,,,
,,,,,V3_073,19,Female,2024-11-18_13h15.14.859,jersey_experiment_5_v3,2023.2.2,Win32,84.74576271,,,,,,,,,,,,,,,,850.307,851.8496,851.8497,852.4734,return,0.094,,65.234375,,,,,,FBP-OG-91.png,0.37,1.2,42,0.75,,,,,,,,,,,,,,,,,,0,51,51,41,1,,,,,,,,,,,,,,,,,,,,,,,
,,,,,V3_073,19,Female,2024-11-18_13h15.14.859,jersey_experiment_5_v3,2023.2.2,Win32,84.74576271,,,,,,,,,,,,,,,,852.4736,853.7675,853.7675,855.4617,return,0.5059,,50.13020833,,,,,,FBP-RB-81.png,0.37,1.2,52,0.5,,,,,,,,,,,,,,,,,,0,52,52,51,1,,,,,,,,,,,,,,,,,,,,,,,
,,,,,V3_073,19,Female,2024-11-18_13h15.14.859,jersey_experiment_5_v3,2023.2.2,Win32,84.74576271,,,,,,,,,,,,,,,,855.4618,856.7543,856.7543,857.1677,return,0.0356,,50.13020833,,,,,,FBP-YG-17.png,0.35,1.2,1,0.5,,,,,,,,,,,,,,,,,,0,53,53,0,1,,,,,,,,,,,,,,,,,,,,,,,
,,,,,V3_073,19,Female,2024-11-18_13h15.14.859,jersey_experiment_5_v3,2023.2.2,Win32,84.74576271,,,,,,,,,,,,,,,,857.1678,858.4616,858.4617,859.6384,return,0.1885,,75.26041667,,,,,,FBP-YG-18.png,0.43,1.2,9,0.5,,,,,,,,,,,,,,,,,,0,54,54,8,1,,,,,,,,,,,,,,,,,,,,,,,
,,,,,V3_073,19,Female,2024-11-18_13h15.14.859,jersey_experiment_5_v3,2023.2.2,Win32,84.74576271,,,,,,,,,,,,,,,,859.6386,860.9309,860.9309,861.3663,return,0.0491,,75.78125,,,,,,FBP-PT-81.png,0.43,1.2,24,0.5,,,,,,,,,,,,,,,,,,0,55,55,23,1,,,,,,,,,,,,,,,,,,,,,,,
,,,,,V3_073,19,Female,2024-11-18_13h15.14.859,jersey_experiment_5_v3,2023.2.2,Win32,84.74576271,,,,,,,,,,,,,,,,861.3664,862.6603,862.6604,864.4033,return,0.4828,,49.86979167,,,,,,FBP-PT-81.png,0.35,1.2,21,0.5,,,,,,,,,,,,,,,,,,0,56,56,20,1,,,,,,,,,,,,,,,,,,,,,,,
,,,,,V3_073,19,Female,2024-11-18_13h15.14.859,jersey_experiment_5_v3,2023.2.2,Win32,84.74576271,,,,,,,,,,,,,,,,864.4033,865.6958,865.6958,866.7194,return,0.5255,,49.86979167,,,,,,FBP-YG-18.png,0.37,1.2,7,0.5,,,,,,,,,,,,,,,,,,0,57,57,6,1,,,,,,,,,,,,,,,,,,,,,,,
,,,,,V3_073,19,Female,2024-11-18_13h15.14.859,jersey_experiment_5_v3,2023.2.2,Win32,84.74576271,,,,,,,,,,,,,,,,866.7195,868.262,868.262,869.3429,return,0.1846,,73.828125,,,,,,FBP-OG-71.png,0.43,1.2,34,0.75,,,,,,,,,,,,,,,,,,0,58,58,33,1,,,,,,,,,,,,,,,,,,,,,,,
,,,,,V3_073,19,Female,2024-11-18_13h15.14.859,jersey_experiment_5_v3,2023.2.2,Win32,84.74576271,,,,,,,,,,,,,,,,869.3432,870.6386,870.6386,871.7211,return,0.0238,,67.05729167,,,,,,FBP-YG-18.png,0.4,1.2,8,0.5,,,,,,,,,,,,,,,,,,0,59,59,7,1,,,,,,,,,,,,,,,,,,,,,,,
,,,,,V3_073,19,Female,2024-11-18_13h15.14.859,jersey_experiment_5_v3,2023.2.2,Win32,84.74576271,,,,,,,,,,,,,,,,,,,,,,,,,,,,,,,,,,,,,,,,,,,,,,,,,,,,,,,,871.7214,875.3786,return,3.6401,,,,,,,,,,,,,,,,,,,
,,,,,V3_073,19,Female,2024-11-18_13h15.14.859,jersey_experiment_5_v3,2023.2.2,Win32,84.74576271,,,,,,,,,,,,,,,,,,,,,,,,,,,,,,,,,,,,,,,,,,,,,,,,,,,,,,,,,,,,,875.3787,879.8626,1,3.1189,return,1.3532,,,,,,,,,,,,
,,,,,V3_073,19,Female,2024-11-18_13h15.14.859,jersey_experiment_5_v3,2023.2.2,Win32,84.74576271,,,,,,,,,,,,,,,,,,,,,,,,,,,,,,,,,,,,,,,,,,,,,,,,,,,,,,,,,,,,,,,,,,,,879.8628,967.0309,i think it might be about perceiving body size in regards to race of the subject (white men vs black men perceived to be bigger/smaller by stereotypes). i think some of them were the same image back to back with colors changed but my perception also maybe changed?,right,81.8149,,,,,,
,,,,,V3_073,19,Female,2024-11-18_13h15.14.859,jersey_experiment_5_v3,2023.2.2,Win32,84.74576271,,,,,,,,,,,,,,,,,,,,,,,,,,,,,,,,,,,,,,,,,,,,,,,,,,,,,,,,,,,,,,,,,,,,,,,,,,967.031,969.9719,return,2.9294,