requirements.started,requirements.stopped,key_resp_3.keys,key_resp_3.rt,key_resp_3.duration,Subject ID,Age,Gender,date,expName,psychopyVersion,OS,frameRate,instructions1.started,instructions1.stopped,key_resp.keys,key_resp.rt,key_resp.duration,example.started,example.stopped,enter_2.keys,enter_2.rt,enter_2.duration,instructions2.started,instructions2.stopped,enter_3.keys,enter_3.rt,enter_3.duration,image.started,image.stopped,slider_2.started,slider_2.stopped,next.keys,next.rt,next.duration,slider.response,trial_block_1.thisRepN,trial_block_1.thisTrialN,trial_block_1.thisN,trial_block_1.thisIndex,trial_block_1.ran,Path,Width,Height,Index,Duration,trial_block_2.thisRepN,trial_block_2.thisTrialN,trial_block_2.thisN,trial_block_2.thisIndex,trial_block_2.ran,rest_break.started,rest_break.stopped,end_break.started,end_break.stopped,key_resp_5.keys,key_resp_5.rt,key_resp_5.duration,trial_block_3.thisRepN,trial_block_3.thisTrialN,trial_block_3.thisN,trial_block_3.thisIndex,trial_block_3.ran,trial_block_4.thisRepN,trial_block_4.thisTrialN,trial_block_4.thisN,trial_block_4.thisIndex,trial_block_4.ran,questions_intro.started,questions_intro.stopped,enter_12.keys,enter_12.rt,enter_12.duration,question2.started,question2.stopped,question_doingbest.response,question_doingbest.rt,enter_15.keys,enter_15.rt,enter_15.duration,pattern.started,pattern.stopped,pattern_2.text,enter_17.keys,enter_17.rt,enter_17.duration,thankyou.started,thankyou.stopped,enter_14.keys,enter_14.rt,enter_14.duration
0,1.6291,return,1.6117,,V3_078,19,Female,2024-11-20_13h27.20.889,jersey_experiment_5_v3,2023.2.2,Win32,85.47008547,,,,,,,,,,,,,,,,,,,,,,,,,,,,,,,,,,,,,,,,,,,,,,,,,,,,,,,,,,,,,,,,,,,,,,,,,,,,,,
,,,,,V3_078,19,Female,2024-11-20_13h27.20.889,jersey_experiment_5_v3,2023.2.2,Win32,85.47008547,1.6292,2.4073,return,0.7595,,,,,,,,,,,,,,,,,,,,,,,,,,,,,,,,,,,,,,,,,,,,,,,,,,,,,,,,,,,,,,,,,,,,,,,,,,
,,,,,V3_078,19,Female,2024-11-20_13h27.20.889,jersey_experiment_5_v3,2023.2.2,Win32,85.47008547,,,,,,2.4074,2.9127,return,0.471,,,,,,,,,,,,,,,,,,,,,,,,,,,,,,,,,,,,,,,,,,,,,,,,,,,,,,,,,,,,,,,,,,,,,
,,,,,V3_078,19,Female,2024-11-20_13h27.20.889,jersey_experiment_5_v3,2023.2.2,Win32,85.47008547,,,,,,,,,,,2.9127,3.5178,return,0.5848,,,,,,,,,,,,,,,,,,,,,,,,,,,,,,,,,,,,,,,,,,,,,,,,,,,,,,,,,,,,,,,,
,,,,,V3_078,19,Female,2024-11-20_13h27.20.889,jersey_experiment_5_v3,2023.2.2,Win32,85.47008547,,,,,,,,,,,,,,,,3.5198,5.0588,5.0589,8.0522,return,1.5914,,74.73958333,0,0,0,55,1,FBP-RB-19.png,0.35,1.2,56,0.75,,,,,,,,,,,,,,,,,,,,,,,,,,,,,,,,,,,,,,,,,,,,,
,,,,,V3_078,19,Female,2024-11-20_13h27.20.889,jersey_experiment_5_v3,2023.2.2,Win32,85.47008547,,,,,,,,,,,,,,,,8.0524,9.5957,9.5957,12.4801,return,1.0412,,75.26041667,0,1,1,48,1,FBP-RB-17.png,0.43,1.2,49,0.75,,,,,,,,,,,,,,,,,,,,,,,,,,,,,,,,,,,,,,,,,,,,,
,,,,,V3_078,19,Female,2024-11-20_13h27.20.889,jersey_experiment_5_v3,2023.2.2,Win32,85.47008547,,,,,,,,,,,,,,,,12.4803,14.0348,14.0348,16.3446,return,0.3956,,23.95833333,0,2,2,45,1,FBP-RB-17.png,0.35,1.2,46,0.75,,,,,,,,,,,,,,,,,,,,,,,,,,,,,,,,,,,,,,,,,,,,,
,,,,,V3_078,19,Female,2024-11-20_13h27.20.889,jersey_experiment_5_v3,2023.2.2,Win32,85.47008547,,,,,,,,,,,,,,,,16.3447,17.8971,17.8971,19.6298,return,0.2404,,25.13020833,0,3,3,5,1,FBP-YG-81.png,0.35,1.2,6,0.75,,,,,,,,,,,,,,,,,,,,,,,,,,,,,,,,,,,,,,,,,,,,,
,,,,,V3_078,19,Female,2024-11-20_13h27.20.889,jersey_experiment_5_v3,2023.2.2,Win32,85.47008547,,,,,,,,,,,,,,,,19.6301,21.1889,21.1889,24.886,return,0.5763,,99.34895833,0,4,4,9,1,FBP-YG-81.png,0.45,1.2,10,0.75,,,,,,,,,,,,,,,,,,,,,,,,,,,,,,,,,,,,,,,,,,,,,
,,,,,V3_078,19,Female,2024-11-20_13h27.20.889,jersey_experiment_5_v3,2023.2.2,Win32,85.47008547,,,,,,,,,,,,,,,,24.8861,26.4315,26.4316,29.0197,return,0.406,,23.69791667,0,5,5,15,1,FBP-PT-17.png,0.35,1.2,16,0.75,,,,,,,,,,,,,,,,,,,,,,,,,,,,,,,,,,,,,,,,,,,,,
,,,,,V3_078,19,Female,2024-11-20_13h27.20.889,jersey_experiment_5_v3,2023.2.2,Win32,85.47008547,,,,,,,,,,,,,,,,29.0199,30.5624,30.5624,31.9024,return,0.2437,,49.86979167,0,6,6,7,1,FBP-YG-81.png,0.4,1.2,8,0.75,,,,,,,,,,,,,,,,,,,,,,,,,,,,,,,,,,,,,,,,,,,,,
,,,,,V3_078,19,Female,2024-11-20_13h27.20.889,jersey_experiment_5_v3,2023.2.2,Win32,85.47008547,,,,,,,,,,,,,,,,31.9026,33.1983,33.1983,34.6043,return,0.2697,,73.95833333,0,7,7,43,1,FBP-OG-19.png,0.43,1.2,44,0.5,,,,,,,,,,,,,,,,,,,,,,,,,,,,,,,,,,,,,,,,,,,,,
,,,,,V3_078,19,Female,2024-11-20_13h27.20.889,jersey_experiment_5_v3,2023.2.2,Win32,85.47008547,,,,,,,,,,,,,,,,34.6044,36.1418,36.1418,38.4982,return,0.2257,,75.65104167,0,8,8,13,1,FBP-YG-91.png,0.43,1.2,14,0.75,,,,,,,,,,,,,,,,,,,,,,,,,,,,,,,,,,,,,,,,,,,,,
,,,,,V3_078,19,Female,2024-11-20_13h27.20.889,jersey_experiment_5_v3,2023.2.2,Win32,85.47008547,,,,,,,,,,,,,,,,38.4984,40.0463,40.0463,43.1315,return,0.6697,,3.385416667,0,9,9,20,1,FBP-PT-18.png,0.35,1.2,21,0.75,,,,,,,,,,,,,,,,,,,,,,,,,,,,,,,,,,,,,,,,,,,,,
,,,,,V3_078,19,Female,2024-11-20_13h27.20.889,jersey_experiment_5_v3,2023.2.2,Win32,85.47008547,,,,,,,,,,,,,,,,43.1317,44.6731,44.6732,47.2445,return,0.2162,,70.18229167,0,10,10,11,1,FBP-YG-91.png,0.37,1.2,12,0.75,,,,,,,,,,,,,,,,,,,,,,,,,,,,,,,,,,,,,,,,,,,,,
,,,,,V3_078,19,Female,2024-11-20_13h27.20.889,jersey_experiment_5_v3,2023.2.2,Win32,85.47008547,,,,,,,,,,,,,,,,47.2447,48.7882,48.7882,52.393,return,0.2517,,50.13020833,0,11,11,2,1,FBP-YG-71.png,0.4,1.2,3,0.75,,,,,,,,,,,,,,,,,,,,,,,,,,,,,,,,,,,,,,,,,,,,,
,,,,,V3_078,19,Female,2024-11-20_13h27.20.889,jersey_experiment_5_v3,2023.2.2,Win32,85.47008547,,,,,,,,,,,,,,,,52.3931,53.9467,53.9467,55.2278,return,0.2046,,74.34895833,0,12,12,4,1,FBP-YG-71.png,0.45,1.2,5,0.75,,,,,,,,,,,,,,,,,,,,,,,,,,,,,,,,,,,,,,,,,,,,,
,,,,,V3_078,19,Female,2024-11-20_13h27.20.889,jersey_experiment_5_v3,2023.2.2,Win32,85.47008547,,,,,,,,,,,,,,,,55.2281,56.7837,56.7838,58.6845,return,0.1108,,49.73958333,0,13,13,27,1,FBP-PT-19.png,0.4,1.2,28,0.75,,,,,,,,,,,,,,,,,,,,,,,,,,,,,,,,,,,,,,,,,,,,,
,,,,,V3_078,19,Female,2024-11-20_13h27.20.889,jersey_experiment_5_v3,2023.2.2,Win32,85.47008547,,,,,,,,,,,,,,,,58.6847,60.2256,60.2256,61.6519,return,0.2319,,25.26041667,0,14,14,51,1,FBP-RB-18.png,0.37,1.2,52,0.75,,,,,,,,,,,,,,,,,,,,,,,,,,,,,,,,,,,,,,,,,,,,,
,,,,,V3_078,19,Female,2024-11-20_13h27.20.889,jersey_experiment_5_v3,2023.2.2,Win32,85.47008547,,,,,,,,,,,,,,,,61.6522,62.9346,62.9346,64.3497,return,0.2233,,74.47916667,0,15,15,39,1,FBP-OG-18.png,0.45,1.2,40,0.5,,,,,,,,,,,,,,,,,,,,,,,,,,,,,,,,,,,,,,,,,,,,,
,,,,,V3_078,19,Female,2024-11-20_13h27.20.889,jersey_experiment_5_v3,2023.2.2,Win32,85.47008547,,,,,,,,,,,,,,,,64.3499,65.8865,65.8865,68.2148,return,0.1348,,74.86979167,0,16,16,19,1,FBP-PT-17.png,0.45,1.2,20,0.75,,,,,,,,,,,,,,,,,,,,,,,,,,,,,,,,,,,,,,,,,,,,,
,,,,,V3_078,19,Female,2024-11-20_13h27.20.889,jersey_experiment_5_v3,2023.2.2,Win32,85.47008547,,,,,,,,,,,,,,,,68.215,69.5104,69.5104,70.9024,return,0.1742,,50,0,17,17,32,1,FBP-OG-17.png,0.4,1.2,33,0.5,,,,,,,,,,,,,,,,,,,,,,,,,,,,,,,,,,,,,,,,,,,,,
,,,,,V3_078,19,Female,2024-11-20_13h27.20.889,jersey_experiment_5_v3,2023.2.2,Win32,85.47008547,,,,,,,,,,,,,,,,70.9026,72.4498,72.4498,73.5494,return,0.2126,,25.78125,0,18,18,25,1,FBP-PT-19.png,0.35,1.2,26,0.75,,,,,,,,,,,,,,,,,,,,,,,,,,,,,,,,,,,,,,,,,,,,,
,,,,,V3_078,19,Female,2024-11-20_13h27.20.889,jersey_experiment_5_v3,2023.2.2,Win32,85.47008547,,,,,,,,,,,,,,,,73.5495,75.0962,75.0963,76.1978,return,0.1672,,49.86979167,0,19,19,3,1,FBP-YG-71.png,0.43,1.2,4,0.75,,,,,,,,,,,,,,,,,,,,,,,,,,,,,,,,,,,,,,,,,,,,,
,,,,,V3_078,19,Female,2024-11-20_13h27.20.889,jersey_experiment_5_v3,2023.2.2,Win32,85.47008547,,,,,,,,,,,,,,,,76.198,77.7387,77.7388,79.0081,return,0.1905,,75.65104167,0,20,20,24,1,FBP-PT-18.png,0.45,1.2,25,0.75,,,,,,,,,,,,,,,,,,,,,,,,,,,,,,,,,,,,,,,,,,,,,
,,,,,V3_078,19,Female,2024-11-20_13h27.20.889,jersey_experiment_5_v3,2023.2.2,Win32,85.47008547,,,,,,,,,,,,,,,,79.0083,80.2947,80.2948,81.7021,return,0.0957,,24.34895833,0,21,21,36,1,FBP-OG-18.png,0.37,1.2,37,0.5,,,,,,,,,,,,,,,,,,,,,,,,,,,,,,,,,,,,,,,,,,,,,
,,,,,V3_078,19,Female,2024-11-20_13h27.20.889,jersey_experiment_5_v3,2023.2.2,Win32,85.47008547,,,,,,,,,,,,,,,,81.7024,83.2367,83.2367,84.3929,return,0.1113,,0.911458333,0,22,22,1,1,FBP-YG-71.png,0.37,1.2,2,0.75,,,,,,,,,,,,,,,,,,,,,,,,,,,,,,,,,,,,,,,,,,,,,
,,,,,V3_078,19,Female,2024-11-20_13h27.20.889,jersey_experiment_5_v3,2023.2.2,Win32,85.47008547,,,,,,,,,,,,,,,,84.393,85.9434,85.9434,86.9711,return,0.0947,,75,0,23,23,14,1,FBP-YG-91.png,0.45,1.2,15,0.75,,,,,,,,,,,,,,,,,,,,,,,,,,,,,,,,,,,,,,,,,,,,,
,,,,,V3_078,19,Female,2024-11-20_13h27.20.889,jersey_experiment_5_v3,2023.2.2,Win32,85.47008547,,,,,,,,,,,,,,,,86.9713,88.5185,88.5185,89.6085,return,0.1651,,99.47916667,0,24,24,59,1,FBP-RB-19.png,0.45,1.2,60,0.75,,,,,,,,,,,,,,,,,,,,,,,,,,,,,,,,,,,,,,,,,,,,,
,,,,,V3_078,19,Female,2024-11-20_13h27.20.889,jersey_experiment_5_v3,2023.2.2,Win32,85.47008547,,,,,,,,,,,,,,,,89.6087,91.1647,91.1647,92.0483,return,0.282,,99.47916667,0,25,25,49,1,FBP-RB-17.png,0.45,1.2,50,0.75,,,,,,,,,,,,,,,,,,,,,,,,,,,,,,,,,,,,,,,,,,,,,
,,,,,V3_078,19,Female,2024-11-20_13h27.20.889,jersey_experiment_5_v3,2023.2.2,Win32,85.47008547,,,,,,,,,,,,,,,,92.0485,93.3338,93.3339,95.0762,return,0.3679,,75.26041667,0,26,26,34,1,FBP-OG-17.png,0.45,1.2,35,0.5,,,,,,,,,,,,,,,,,,,,,,,,,,,,,,,,,,,,,,,,,,,,,
,,,,,V3_078,19,Female,2024-11-20_13h27.20.889,jersey_experiment_5_v3,2023.2.2,Win32,85.47008547,,,,,,,,,,,,,,,,95.0764,96.6193,96.6193,97.4826,return,0.165,,75.26041667,0,27,27,23,1,FBP-PT-18.png,0.43,1.2,24,0.75,,,,,,,,,,,,,,,,,,,,,,,,,,,,,,,,,,,,,,,,,,,,,
,,,,,V3_078,19,Female,2024-11-20_13h27.20.889,jersey_experiment_5_v3,2023.2.2,Win32,85.47008547,,,,,,,,,,,,,,,,97.4828,99.0316,99.0317,100.2478,return,0.1475,,25,0,28,28,50,1,FBP-RB-18.png,0.35,1.2,51,0.75,,,,,,,,,,,,,,,,,,,,,,,,,,,,,,,,,,,,,,,,,,,,,
,,,,,V3_078,19,Female,2024-11-20_13h27.20.889,jersey_experiment_5_v3,2023.2.2,Win32,85.47008547,,,,,,,,,,,,,,,,100.2479,101.7916,101.7916,103.1321,return,0.1298,,75.13020833,0,29,29,29,1,FBP-PT-19.png,0.45,1.2,30,0.75,,,,,,,,,,,,,,,,,,,,,,,,,,,,,,,,,,,,,,,,,,,,,
,,,,,V3_078,19,Female,2024-11-20_13h27.20.889,jersey_experiment_5_v3,2023.2.2,Win32,85.47008547,,,,,,,,,,,,,,,,103.1323,104.687,104.687,106.891,return,0.1313,,24.08854167,0,30,30,6,1,FBP-YG-81.png,0.37,1.2,7,0.75,,,,,,,,,,,,,,,,,,,,,,,,,,,,,,,,,,,,,,,,,,,,,
,,,,,V3_078,19,Female,2024-11-20_13h27.20.889,jersey_experiment_5_v3,2023.2.2,Win32,85.47008547,,,,,,,,,,,,,,,,106.8912,108.4395,108.4396,110.1029,return,0.2133,,75.91145833,0,31,31,58,1,FBP-RB-19.png,0.43,1.2,59,0.75,,,,,,,,,,,,,,,,,,,,,,,,,,,,,,,,,,,,,,,,,,,,,
,,,,,V3_078,19,Female,2024-11-20_13h27.20.889,jersey_experiment_5_v3,2023.2.2,Win32,85.47008547,,,,,,,,,,,,,,,,110.103,111.6555,111.6555,113.0386,return,0.1769,,99.08854167,0,32,32,8,1,FBP-YG-81.png,0.43,1.2,9,0.75,,,,,,,,,,,,,,,,,,,,,,,,,,,,,,,,,,,,,,,,,,,,,
,,,,,V3_078,19,Female,2024-11-20_13h27.20.889,jersey_experiment_5_v3,2023.2.2,Win32,85.47008547,,,,,,,,,,,,,,,,113.0388,114.5886,114.5886,116.3935,return,0.2537,,99.609375,0,33,33,18,1,FBP-PT-17.png,0.43,1.2,19,0.75,,,,,,,,,,,,,,,,,,,,,,,,,,,,,,,,,,,,,,,,,,,,,
,,,,,V3_078,19,Female,2024-11-20_13h27.20.889,jersey_experiment_5_v3,2023.2.2,Win32,85.47008547,,,,,,,,,,,,,,,,116.3937,117.9361,117.9361,119.6264,return,0.1678,,49.86979167,0,34,34,26,1,FBP-PT-19.png,0.37,1.2,27,0.75,,,,,,,,,,,,,,,,,,,,,,,,,,,,,,,,,,,,,,,,,,,,,
,,,,,V3_078,19,Female,2024-11-20_13h27.20.889,jersey_experiment_5_v3,2023.2.2,Win32,85.47008547,,,,,,,,,,,,,,,,119.6266,120.9308,120.9308,121.899,return,0.1862,,49.86979167,0,35,35,37,1,FBP-OG-18.png,0.4,1.2,38,0.5,,,,,,,,,,,,,,,,,,,,,,,,,,,,,,,,,,,,,,,,,,,,,
,,,,,V3_078,19,Female,2024-11-20_13h27.20.889,jersey_experiment_5_v3,2023.2.2,Win32,85.47008547,,,,,,,,,,,,,,,,121.8991,123.4397,123.4397,125.3319,return,0.1287,,60.546875,0,36,36,22,1,FBP-PT-18.png,0.4,1.2,23,0.75,,,,,,,,,,,,,,,,,,,,,,,,,,,,,,,,,,,,,,,,,,,,,
,,,,,V3_078,19,Female,2024-11-20_13h27.20.889,jersey_experiment_5_v3,2023.2.2,Win32,85.47008547,,,,,,,,,,,,,,,,125.332,126.8756,126.8756,128.6594,return,0.1677,,44.01041667,0,37,37,56,1,FBP-RB-19.png,0.37,1.2,57,0.75,,,,,,,,,,,,,,,,,,,,,,,,,,,,,,,,,,,,,,,,,,,,,
,,,,,V3_078,19,Female,2024-11-20_13h27.20.889,jersey_experiment_5_v3,2023.2.2,Win32,85.47008547,,,,,,,,,,,,,,,,128.6596,130.204,130.204,131.1921,return,0.1112,,49.86979167,0,38,38,17,1,FBP-PT-17.png,0.4,1.2,18,0.75,,,,,,,,,,,,,,,,,,,,,,,,,,,,,,,,,,,,,,,,,,,,,
,,,,,V3_078,19,Female,2024-11-20_13h27.20.889,jersey_experiment_5_v3,2023.2.2,Win32,85.47008547,,,,,,,,,,,,,,,,131.1924,132.4967,132.4968,133.634,return,0.0969,,24.73958333,0,39,39,40,1,FBP-OG-19.png,0.35,1.2,41,0.5,,,,,,,,,,,,,,,,,,,,,,,,,,,,,,,,,,,,,,,,,,,,,
,,,,,V3_078,19,Female,2024-11-20_13h27.20.889,jersey_experiment_5_v3,2023.2.2,Win32,85.47008547,,,,,,,,,,,,,,,,133.6342,135.1916,135.1916,136.2816,return,0.1836,,74.73958333,0,40,40,53,1,FBP-RB-18.png,0.43,1.2,54,0.75,,,,,,,,,,,,,,,,,,,,,,,,,,,,,,,,,,,,,,,,,,,,,
,,,,,V3_078,19,Female,2024-11-20_13h27.20.889,jersey_experiment_5_v3,2023.2.2,Win32,85.47008547,,,,,,,,,,,,,,,,136.2818,137.5668,137.5668,138.3937,return,0.2415,,74.73958333,0,41,41,38,1,FBP-OG-18.png,0.43,1.2,39,0.5,,,,,,,,,,,,,,,,,,,,,,,,,,,,,,,,,,,,,,,,,,,,,
,,,,,V3_078,19,Female,2024-11-20_13h27.20.889,jersey_experiment_5_v3,2023.2.2,Win32,85.47008547,,,,,,,,,,,,,,,,138.3939,139.932,139.932,140.9825,return,0.2371,,51.43229167,0,42,42,16,1,FBP-PT-17.png,0.37,1.2,17,0.75,,,,,,,,,,,,,,,,,,,,,,,,,,,,,,,,,,,,,,,,,,,,,
,,,,,V3_078,19,Female,2024-11-20_13h27.20.889,jersey_experiment_5_v3,2023.2.2,Win32,85.47008547,,,,,,,,,,,,,,,,140.9826,142.5324,142.5325,144.7146,return,0.1674,,99.34895833,0,43,43,28,1,FBP-PT-19.png,0.43,1.2,29,0.75,,,,,,,,,,,,,,,,,,,,,,,,,,,,,,,,,,,,,,,,,,,,,
,,,,,V3_078,19,Female,2024-11-20_13h27.20.889,jersey_experiment_5_v3,2023.2.2,Win32,85.47008547,,,,,,,,,,,,,,,,144.7148,146.2647,146.2647,147.3268,return,0.0381,,49.86979167,0,44,44,21,1,FBP-PT-18.png,0.37,1.2,22,0.75,,,,,,,,,,,,,,,,,,,,,,,,,,,,,,,,,,,,,,,,,,,,,
,,,,,V3_078,19,Female,2024-11-20_13h27.20.889,jersey_experiment_5_v3,2023.2.2,Win32,85.47008547,,,,,,,,,,,,,,,,147.327,148.8658,148.8659,150.0249,return,0.1493,,24.73958333,0,45,45,0,1,FBP-YG-71.png,0.35,1.2,1,0.75,,,,,,,,,,,,,,,,,,,,,,,,,,,,,,,,,,,,,,,,,,,,,
,,,,,V3_078,19,Female,2024-11-20_13h27.20.889,jersey_experiment_5_v3,2023.2.2,Win32,85.47008547,,,,,,,,,,,,,,,,150.0252,151.3245,151.3245,153.1966,return,0.1479,,24.73958333,0,46,46,35,1,FBP-OG-18.png,0.35,1.2,36,0.5,,,,,,,,,,,,,,,,,,,,,,,,,,,,,,,,,,,,,,,,,,,,,
,,,,,V3_078,19,Female,2024-11-20_13h27.20.889,jersey_experiment_5_v3,2023.2.2,Win32,85.47008547,,,,,,,,,,,,,,,,153.1967,154.7479,154.748,156.9872,return,1.3426,,50,0,47,47,47,1,FBP-RB-17.png,0.4,1.2,48,0.75,,,,,,,,,,,,,,,,,,,,,,,,,,,,,,,,,,,,,,,,,,,,,
,,,,,V3_078,19,Female,2024-11-20_13h27.20.889,jersey_experiment_5_v3,2023.2.2,Win32,85.47008547,,,,,,,,,,,,,,,,156.9875,158.2956,158.2956,161.758,return,2.0687,,74.21875,0,48,48,33,1,FBP-OG-17.png,0.43,1.2,34,0.5,,,,,,,,,,,,,,,,,,,,,,,,,,,,,,,,,,,,,,,,,,,,,
,,,,,V3_078,19,Female,2024-11-20_13h27.20.889,jersey_experiment_5_v3,2023.2.2,Win32,85.47008547,,,,,,,,,,,,,,,,161.7581,163.3104,163.3104,165.214,return,0.2034,,75.26041667,0,49,49,12,1,FBP-YG-91.png,0.4,1.2,13,0.75,,,,,,,,,,,,,,,,,,,,,,,,,,,,,,,,,,,,,,,,,,,,,
,,,,,V3_078,19,Female,2024-11-20_13h27.20.889,jersey_experiment_5_v3,2023.2.2,Win32,85.47008547,,,,,,,,,,,,,,,,165.2142,166.7583,166.7583,167.8619,return,0.2038,,74.21875,0,50,50,52,1,FBP-RB-18.png,0.4,1.2,53,0.75,,,,,,,,,,,,,,,,,,,,,,,,,,,,,,,,,,,,,,,,,,,,,
,,,,,V3_078,19,Female,2024-11-20_13h27.20.889,jersey_experiment_5_v3,2023.2.2,Win32,85.47008547,,,,,,,,,,,,,,,,167.8621,169.3955,169.3955,170.9451,return,0.48,,50.26041667,0,51,51,46,1,FBP-RB-17.png,0.37,1.2,47,0.75,,,,,,,,,,,,,,,,,,,,,,,,,,,,,,,,,,,,,,,,,,,,,
,,,,,V3_078,19,Female,2024-11-20_13h27.20.889,jersey_experiment_5_v3,2023.2.2,Win32,85.47008547,,,,,,,,,,,,,,,,170.9453,172.2282,172.2282,173.873,return,0.0768,,99.86979167,0,52,52,44,1,FBP-OG-19.png,0.45,1.2,45,0.5,,,,,,,,,,,,,,,,,,,,,,,,,,,,,,,,,,,,,,,,,,,,,
,,,,,V3_078,19,Female,2024-11-20_13h27.20.889,jersey_experiment_5_v3,2023.2.2,Win32,85.47008547,,,,,,,,,,,,,,,,173.8733,175.1717,175.1717,176.379,return,0.1284,,50.390625,0,53,53,31,1,FBP-OG-17.png,0.37,1.2,32,0.5,,,,,,,,,,,,,,,,,,,,,,,,,,,,,,,,,,,,,,,,,,,,,
,,,,,V3_078,19,Female,2024-11-20_13h27.20.889,jersey_experiment_5_v3,2023.2.2,Win32,85.47008547,,,,,,,,,,,,,,,,176.3792,177.9366,177.9366,179.0076,return,0.1135,,25.26041667,0,54,54,10,1,FBP-YG-91.png,0.35,1.2,11,0.75,,,,,,,,,,,,,,,,,,,,,,,,,,,,,,,,,,,,,,,,,,,,,
,,,,,V3_078,19,Female,2024-11-20_13h27.20.889,jersey_experiment_5_v3,2023.2.2,Win32,85.47008547,,,,,,,,,,,,,,,,179.0077,180.5607,180.5607,181.6432,return,0.1302,,74.609375,0,55,55,57,1,FBP-RB-19.png,0.4,1.2,58,0.75,,,,,,,,,,,,,,,,,,,,,,,,,,,,,,,,,,,,,,,,,,,,,
,,,,,V3_078,19,Female,2024-11-20_13h27.20.889,jersey_experiment_5_v3,2023.2.2,Win32,85.47008547,,,,,,,,,,,,,,,,181.6434,182.946,182.946,184.1025,return,0.1477,,24.47916667,0,56,56,41,1,FBP-OG-19.png,0.37,1.2,42,0.5,,,,,,,,,,,,,,,,,,,,,,,,,,,,,,,,,,,,,,,,,,,,,
,,,,,V3_078,19,Female,2024-11-20_13h27.20.889,jersey_experiment_5_v3,2023.2.2,Win32,85.47008547,,,,,,,,,,,,,,,,184.1027,185.4076,185.4076,186.6505,return,0.1123,,50.390625,0,57,57,42,1,FBP-OG-19.png,0.4,1.2,43,0.5,,,,,,,,,,,,,,,,,,,,,,,,,,,,,,,,,,,,,,,,,,,,,
,,,,,V3_078,19,Female,2024-11-20_13h27.20.889,jersey_experiment_5_v3,2023.2.2,Win32,85.47008547,,,,,,,,,,,,,,,,186.6506,187.9435,187.9435,189.3842,return,0.0754,,41.27604167,0,58,58,30,1,FBP-OG-17.png,0.35,1.2,31,0.5,,,,,,,,,,,,,,,,,,,,,,,,,,,,,,,,,,,,,,,,,,,,,
,,,,,V3_078,19,Female,2024-11-20_13h27.20.889,jersey_experiment_5_v3,2023.2.2,Win32,85.47008547,,,,,,,,,,,,,,,,189.3844,190.9328,190.9328,192.108,return,0.1469,,99.86979167,0,59,59,54,1,FBP-RB-18.png,0.45,1.2,55,0.75,,,,,,,,,,,,,,,,,,,,,,,,,,,,,,,,,,,,,,,,,,,,,
,,,,,V3_078,19,Female,2024-11-20_13h27.20.889,jersey_experiment_5_v3,2023.2.2,Win32,85.47008547,,,,,,,,,,,,,,,,192.1097,193.4039,193.4039,195.0528,return,0.1844,,25.91145833,,,,,,FBP-OG-81.png,0.35,1.2,36,0.5,0,0,0,35,1,,,,,,,,,,,,,,,,,,,,,,,,,,,,,,,,,,,,,,,,
,,,,,V3_078,19,Female,2024-11-20_13h27.20.889,jersey_experiment_5_v3,2023.2.2,Win32,85.47008547,,,,,,,,,,,,,,,,195.053,196.5946,196.5946,197.5482,return,0.1106,,49.73958333,,,,,,FBP-PT-91.png,0.4,1.2,28,0.75,0,1,1,27,1,,,,,,,,,,,,,,,,,,,,,,,,,,,,,,,,,,,,,,,,
,,,,,V3_078,19,Female,2024-11-20_13h27.20.889,jersey_experiment_5_v3,2023.2.2,Win32,85.47008547,,,,,,,,,,,,,,,,197.5484,198.8515,198.8515,200.6494,return,0.1155,,58.59375,,,,,,FBP-OG-71.png,0.4,1.2,33,0.5,0,2,2,32,1,,,,,,,,,,,,,,,,,,,,,,,,,,,,,,,,,,,,,,,,
,,,,,V3_078,19,Female,2024-11-20_13h27.20.889,jersey_experiment_5_v3,2023.2.2,Win32,85.47008547,,,,,,,,,,,,,,,,200.6496,202.1822,202.1823,203.1713,return,0.1856,,75.91145833,,,,,,FBP-YG-18.png,0.45,1.2,10,0.75,0,3,3,9,1,,,,,,,,,,,,,,,,,,,,,,,,,,,,,,,,,,,,,,,,
,,,,,V3_078,19,Female,2024-11-20_13h27.20.889,jersey_experiment_5_v3,2023.2.2,Win32,85.47008547,,,,,,,,,,,,,,,,203.1715,204.7245,204.7245,206.172,return,0.1878,,49.47916667,,,,,,FBP-PT-81.png,0.37,1.2,22,0.75,0,4,4,21,1,,,,,,,,,,,,,,,,,,,,,,,,,,,,,,,,,,,,,,,,
,,,,,V3_078,19,Female,2024-11-20_13h27.20.889,jersey_experiment_5_v3,2023.2.2,Win32,85.47008547,,,,,,,,,,,,,,,,206.1721,207.7237,207.7237,208.8986,return,0.114,,32.8125,,,,,,FBP-YG-17.png,0.37,1.2,2,0.75,0,5,5,1,1,,,,,,,,,,,,,,,,,,,,,,,,,,,,,,,,,,,,,,,,
,,,,,V3_078,19,Female,2024-11-20_13h27.20.889,jersey_experiment_5_v3,2023.2.2,Win32,85.47008547,,,,,,,,,,,,,,,,208.8988,210.4482,210.4482,212.1462,return,0.0022,,9.765625,,,,,,FBP-PT-91.png,0.35,1.2,26,0.75,0,6,6,25,1,,,,,,,,,,,,,,,,,,,,,,,,,,,,,,,,,,,,,,,,
,,,,,V3_078,19,Female,2024-11-20_13h27.20.889,jersey_experiment_5_v3,2023.2.2,Win32,85.47008547,,,,,,,,,,,,,,,,212.1464,213.7045,213.7045,215.5215,return,0.1912,,61.97916667,,,,,,FBP-PT-91.png,0.43,1.2,29,0.75,0,7,7,28,1,,,,,,,,,,,,,,,,,,,,,,,,,,,,,,,,,,,,,,,,
,,,,,V3_078,19,Female,2024-11-20_13h27.20.889,jersey_experiment_5_v3,2023.2.2,Win32,85.47008547,,,,,,,,,,,,,,,,215.5216,217.0688,217.0688,218.2104,return,0.1655,,98.828125,,,,,,FBP-RB-81.png,0.45,1.2,55,0.75,0,8,8,54,1,,,,,,,,,,,,,,,,,,,,,,,,,,,,,,,,,,,,,,,,
,,,,,V3_078,19,Female,2024-11-20_13h27.20.889,jersey_experiment_5_v3,2023.2.2,Win32,85.47008547,,,,,,,,,,,,,,,,218.2105,219.7508,219.7509,220.553,return,0.1853,,99.08854167,,,,,,FBP-PT-71.png,0.45,1.2,20,0.75,0,9,9,19,1,,,,,,,,,,,,,,,,,,,,,,,,,,,,,,,,,,,,,,,,
,,,,,V3_078,19,Female,2024-11-20_13h27.20.889,jersey_experiment_5_v3,2023.2.2,Win32,85.47008547,,,,,,,,,,,,,,,,220.5531,222.1055,222.1055,223.4847,return,0.1101,,60.9375,,,,,,FBP-YG-17.png,0.4,1.2,3,0.75,0,10,10,2,1,,,,,,,,,,,,,,,,,,,,,,,,,,,,,,,,,,,,,,,,
,,,,,V3_078,19,Female,2024-11-20_13h27.20.889,jersey_experiment_5_v3,2023.2.2,Win32,85.47008547,,,,,,,,,,,,,,,,223.4849,225.0193,225.0194,227.4353,return,0.7163,,50,,,,,,FBP-YG-18.png,0.35,1.2,6,0.75,0,11,11,5,1,,,,,,,,,,,,,,,,,,,,,,,,,,,,,,,,,,,,,,,,
,,,,,V3_078,19,Female,2024-11-20_13h27.20.889,jersey_experiment_5_v3,2023.2.2,Win32,85.47008547,,,,,,,,,,,,,,,,227.4355,228.9724,228.9724,229.8881,return,0.0606,,24.34895833,,,,,,FBP-RB-91.png,0.35,1.2,56,0.75,0,12,12,55,1,,,,,,,,,,,,,,,,,,,,,,,,,,,,,,,,,,,,,,,,
,,,,,V3_078,19,Female,2024-11-20_13h27.20.889,jersey_experiment_5_v3,2023.2.2,Win32,85.47008547,,,,,,,,,,,,,,,,229.8883,231.4325,231.4326,234.187,return,0.1665,,50.26041667,,,,,,FBP-RB-91.png,0.4,1.2,58,0.75,0,13,13,57,1,,,,,,,,,,,,,,,,,,,,,,,,,,,,,,,,,,,,,,,,
,,,,,V3_078,19,Female,2024-11-20_13h27.20.889,jersey_experiment_5_v3,2023.2.2,Win32,85.47008547,,,,,,,,,,,,,,,,234.1872,235.7345,235.7345,236.9666,return,0.1296,,99.21875,,,,,,FBP-RB-71.png,0.45,1.2,50,0.75,0,14,14,49,1,,,,,,,,,,,,,,,,,,,,,,,,,,,,,,,,,,,,,,,,
,,,,,V3_078,19,Female,2024-11-20_13h27.20.889,jersey_experiment_5_v3,2023.2.2,Win32,85.47008547,,,,,,,,,,,,,,,,236.9667,238.2609,238.2609,240.4798,return,0.1116,,36.84895833,,,,,,FBP-OG-71.png,0.37,1.2,32,0.5,0,15,15,31,1,,,,,,,,,,,,,,,,,,,,,,,,,,,,,,,,,,,,,,,,
,,,,,V3_078,19,Female,2024-11-20_13h27.20.889,jersey_experiment_5_v3,2023.2.2,Win32,85.47008547,,,,,,,,,,,,,,,,240.4799,242.0271,242.0271,244.0035,return,0.1513,,25.91145833,,,,,,FBP-RB-81.png,0.37,1.2,52,0.75,0,16,16,51,1,,,,,,,,,,,,,,,,,,,,,,,,,,,,,,,,,,,,,,,,
,,,,,V3_078,19,Female,2024-11-20_13h27.20.889,jersey_experiment_5_v3,2023.2.2,Win32,85.47008547,,,,,,,,,,,,,,,,244.0037,245.5457,245.5457,246.4784,return,0.1313,,50.26041667,,,,,,FBP-YG-19.png,0.4,1.2,13,0.75,0,17,17,12,1,,,,,,,,,,,,,,,,,,,,,,,,,,,,,,,,,,,,,,,,
,,,,,V3_078,19,Female,2024-11-20_13h27.20.889,jersey_experiment_5_v3,2023.2.2,Win32,85.47008547,,,,,,,,,,,,,,,,246.4786,248.0291,248.0292,249.4373,return,0.166,,38.671875,,,,,,FBP-YG-19.png,0.35,1.2,11,0.75,0,18,18,10,1,,,,,,,,,,,,,,,,,,,,,,,,,,,,,,,,,,,,,,,,
,,,,,V3_078,19,Female,2024-11-20_13h27.20.889,jersey_experiment_5_v3,2023.2.2,Win32,85.47008547,,,,,,,,,,,,,,,,249.4375,250.9739,250.9739,251.8678,return,0.1479,,38.671875,,,,,,FBP-YG-18.png,0.37,1.2,7,0.75,0,19,19,6,1,,,,,,,,,,,,,,,,,,,,,,,,,,,,,,,,,,,,,,,,
,,,,,V3_078,19,Female,2024-11-20_13h27.20.889,jersey_experiment_5_v3,2023.2.2,Win32,85.47008547,,,,,,,,,,,,,,,,251.868,253.153,253.153,254.8561,return,0.1477,,76.82291667,,,,,,FBP-OG-81.png,0.43,1.2,39,0.5,0,20,20,38,1,,,,,,,,,,,,,,,,,,,,,,,,,,,,,,,,,,,,,,,,
,,,,,V3_078,19,Female,2024-11-20_13h27.20.889,jersey_experiment_5_v3,2023.2.2,Win32,85.47008547,,,,,,,,,,,,,,,,254.8562,256.4015,256.4015,258.54,return,0.1657,,99.73958333,,,,,,FBP-YG-19.png,0.43,1.2,14,0.75,0,21,21,13,1,,,,,,,,,,,,,,,,,,,,,,,,,,,,,,,,,,,,,,,,
,,,,,V3_078,19,Female,2024-11-20_13h27.20.889,jersey_experiment_5_v3,2023.2.2,Win32,85.47008547,,,,,,,,,,,,,,,,258.5401,259.823,259.823,260.69,return,0.2083,,99.609375,,,,,,FBP-OG-71.png,0.43,1.2,34,0.5,0,22,22,33,1,,,,,,,,,,,,,,,,,,,,,,,,,,,,,,,,,,,,,,,,
,,,,,V3_078,19,Female,2024-11-20_13h27.20.889,jersey_experiment_5_v3,2023.2.2,Win32,85.47008547,,,,,,,,,,,,,,,,260.6901,262.224,262.224,264.2618,return,0.1541,,25.390625,,,,,,FBP-PT-71.png,0.35,1.2,16,0.75,0,23,23,15,1,,,,,,,,,,,,,,,,,,,,,,,,,,,,,,,,,,,,,,,,
,,,,,V3_078,19,Female,2024-11-20_13h27.20.889,jersey_experiment_5_v3,2023.2.2,Win32,85.47008547,,,,,,,,,,,,,,,,264.2619,265.5638,265.5639,267.7143,return,1.6457,,0.651041667,,,,,,FBP-OG-91.png,0.35,1.2,41,0.5,0,24,24,40,1,,,,,,,,,,,,,,,,,,,,,,,,,,,,,,,,,,,,,,,,
,,,,,V3_078,19,Female,2024-11-20_13h27.20.889,jersey_experiment_5_v3,2023.2.2,Win32,85.47008547,,,,,,,,,,,,,,,,267.7144,269.2694,269.2694,270.5167,return,0.1837,,75.65104167,,,,,,FBP-PT-81.png,0.43,1.2,24,0.75,0,25,25,23,1,,,,,,,,,,,,,,,,,,,,,,,,,,,,,,,,,,,,,,,,
,,,,,V3_078,19,Female,2024-11-20_13h27.20.889,jersey_experiment_5_v3,2023.2.2,Win32,85.47008547,,,,,,,,,,,,,,,,270.5169,272.0626,272.0627,274.2328,return,0.2059,,76.82291667,,,,,,FBP-YG-18.png,0.43,1.2,9,0.75,0,26,26,8,1,,,,,,,,,,,,,,,,,,,,,,,,,,,,,,,,,,,,,,,,
,,,,,V3_078,19,Female,2024-11-20_13h27.20.889,jersey_experiment_5_v3,2023.2.2,Win32,85.47008547,,,,,,,,,,,,,,,,274.233,275.7677,275.7677,276.799,return,0.1882,,99.73958333,,,,,,FBP-PT-81.png,0.45,1.2,25,0.75,0,27,27,24,1,,,,,,,,,,,,,,,,,,,,,,,,,,,,,,,,,,,,,,,,
,,,,,V3_078,19,Female,2024-11-20_13h27.20.889,jersey_experiment_5_v3,2023.2.2,Win32,85.47008547,,,,,,,,,,,,,,,,276.7992,278.1019,278.1019,279.9469,return,0.1857,,99.21875,,,,,,FBP-OG-81.png,0.45,1.2,40,0.5,0,28,28,39,1,,,,,,,,,,,,,,,,,,,,,,,,,,,,,,,,,,,,,,,,
,,,,,V3_078,19,Female,2024-11-20_13h27.20.889,jersey_experiment_5_v3,2023.2.2,Win32,85.47008547,,,,,,,,,,,,,,,,279.9471,281.4926,281.4926,282.2774,return,0.206,,99.21875,,,,,,FBP-YG-17.png,0.45,1.2,5,0.75,0,29,29,4,1,,,,,,,,,,,,,,,,,,,,,,,,,,,,,,,,,,,,,,,,
,,,,,V3_078,19,Female,2024-11-20_13h27.20.889,jersey_experiment_5_v3,2023.2.2,Win32,85.47008547,,,,,,,,,,,,,,,,282.2776,283.8212,283.8212,285.6321,return,0.1525,,24.47916667,,,,,,FBP-RB-91.png,0.37,1.2,57,0.75,0,30,30,56,1,,,,,,,,,,,,,,,,,,,,,,,,,,,,,,,,,,,,,,,,
,,,,,V3_078,19,Female,2024-11-20_13h27.20.889,jersey_experiment_5_v3,2023.2.2,Win32,85.47008547,,,,,,,,,,,,,,,,285.6323,287.1738,287.1738,288.9587,return,0.132,,92.96875,,,,,,FBP-YG-19.png,0.45,1.2,15,0.75,0,31,31,14,1,,,,,,,,,,,,,,,,,,,,,,,,,,,,,,,,,,,,,,,,
,,,,,V3_078,19,Female,2024-11-20_13h27.20.889,jersey_experiment_5_v3,2023.2.2,Win32,85.47008547,,,,,,,,,,,,,,,,288.9589,290.5169,290.517,292.0664,return,0.2948,,50.52083333,,,,,,FBP-RB-71.png,0.37,1.2,47,0.75,0,32,32,46,1,,,,,,,,,,,,,,,,,,,,,,,,,,,,,,,,,,,,,,,,
,,,,,V3_078,19,Female,2024-11-20_13h27.20.889,jersey_experiment_5_v3,2023.2.2,Win32,85.47008547,,,,,,,,,,,,,,,,292.0666,293.3731,293.3731,294.7959,return,0.0022,,43.61979167,,,,,,FBP-OG-91.png,0.4,1.2,43,0.5,0,33,33,42,1,,,,,,,,,,,,,,,,,,,,,,,,,,,,,,,,,,,,,,,,
,,,,,V3_078,19,Female,2024-11-20_13h27.20.889,jersey_experiment_5_v3,2023.2.2,Win32,85.47008547,,,,,,,,,,,,,,,,294.796,296.3421,296.3422,297.7361,return,0.1662,,24.73958333,,,,,,FBP-YG-17.png,0.35,1.2,1,0.75,0,34,34,0,1,,,,,,,,,,,,,,,,,,,,,,,,,,,,,,,,,,,,,,,,
,,,,,V3_078,19,Female,2024-11-20_13h27.20.889,jersey_experiment_5_v3,2023.2.2,Win32,85.47008547,,,,,,,,,,,,,,,,297.7363,299.2851,299.2852,300.5099,return,0.1644,,50.13020833,,,,,,FBP-RB-71.png,0.4,1.2,48,0.75,0,35,35,47,1,,,,,,,,,,,,,,,,,,,,,,,,,,,,,,,,,,,,,,,,
,,,,,V3_078,19,Female,2024-11-20_13h27.20.889,jersey_experiment_5_v3,2023.2.2,Win32,85.47008547,,,,,,,,,,,,,,,,300.51,302.0455,302.0455,303.8063,return,0.1327,,25.390625,,,,,,FBP-PT-81.png,0.4,1.2,23,0.75,0,36,36,22,1,,,,,,,,,,,,,,,,,,,,,,,,,,,,,,,,,,,,,,,,
,,,,,V3_078,19,Female,2024-11-20_13h27.20.889,jersey_experiment_5_v3,2023.2.2,Win32,85.47008547,,,,,,,,,,,,,,,,303.8065,305.0956,305.0956,307.1247,return,0.0984,,38.41145833,,,,,,FBP-OG-81.png,0.4,1.2,38,0.5,0,37,37,37,1,,,,,,,,,,,,,,,,,,,,,,,,,,,,,,,,,,,,,,,,
,,,,,V3_078,19,Female,2024-11-20_13h27.20.889,jersey_experiment_5_v3,2023.2.2,Win32,85.47008547,,,,,,,,,,,,,,,,307.1249,308.4231,308.4231,309.8676,return,0.1835,,34.50520833,,,,,,FBP-OG-81.png,0.37,1.2,37,0.5,0,38,38,36,1,,,,,,,,,,,,,,,,,,,,,,,,,,,,,,,,,,,,,,,,
,,,,,V3_078,19,Female,2024-11-20_13h27.20.889,jersey_experiment_5_v3,2023.2.2,Win32,85.47008547,,,,,,,,,,,,,,,,309.8678,311.4221,311.4221,312.5294,return,0.1485,,74.609375,,,,,,FBP-RB-91.png,0.45,1.2,60,0.75,0,39,39,59,1,,,,,,,,,,,,,,,,,,,,,,,,,,,,,,,,,,,,,,,,
,,,,,V3_078,19,Female,2024-11-20_13h27.20.889,jersey_experiment_5_v3,2023.2.2,Win32,85.47008547,,,,,,,,,,,,,,,,312.5296,314.0766,314.0766,314.9875,return,0.1111,,86.06770833,,,,,,FBP-RB-71.png,0.43,1.2,49,0.75,0,40,40,48,1,,,,,,,,,,,,,,,,,,,,,,,,,,,,,,,,,,,,,,,,
,,,,,V3_078,19,Female,2024-11-20_13h27.20.889,jersey_experiment_5_v3,2023.2.2,Win32,85.47008547,,,,,,,,,,,,,,,,314.9878,316.5298,316.5299,317.9618,return,0.2401,,50.52083333,,,,,,FBP-PT-71.png,0.4,1.2,18,0.75,0,41,41,17,1,,,,,,,,,,,,,,,,,,,,,,,,,,,,,,,,,,,,,,,,
,,,,,V3_078,19,Female,2024-11-20_13h27.20.889,jersey_experiment_5_v3,2023.2.2,Win32,85.47008547,,,,,,,,,,,,,,,,317.962,319.5084,319.5084,320.3458,return,0.1512,,50.390625,,,,,,FBP-PT-71.png,0.43,1.2,19,0.75,0,42,42,18,1,,,,,,,,,,,,,,,,,,,,,,,,,,,,,,,,,,,,,,,,
,,,,,V3_078,19,Female,2024-11-20_13h27.20.889,jersey_experiment_5_v3,2023.2.2,Win32,85.47008547,,,,,,,,,,,,,,,,320.346,321.8968,321.8968,322.5191,return,0.1492,,50.390625,,,,,,FBP-RB-91.png,0.43,1.2,59,0.75,0,43,43,58,1,,,,,,,,,,,,,,,,,,,,,,,,,,,,,,,,,,,,,,,,
,,,,,V3_078,19,Female,2024-11-20_13h27.20.889,jersey_experiment_5_v3,2023.2.2,Win32,85.47008547,,,,,,,,,,,,,,,,322.5192,323.8181,323.8181,325.3317,return,0.1687,,63.41145833,,,,,,FBP-OG-71.png,0.45,1.2,35,0.5,0,44,44,34,1,,,,,,,,,,,,,,,,,,,,,,,,,,,,,,,,,,,,,,,,
,,,,,V3_078,19,Female,2024-11-20_13h27.20.889,jersey_experiment_5_v3,2023.2.2,Win32,85.47008547,,,,,,,,,,,,,,,,325.332,326.8724,326.8724,327.9763,return,0.1334,,34.11458333,,,,,,FBP-YG-19.png,0.37,1.2,12,0.75,0,45,45,11,1,,,,,,,,,,,,,,,,,,,,,,,,,,,,,,,,,,,,,,,,
,,,,,V3_078,19,Female,2024-11-20_13h27.20.889,jersey_experiment_5_v3,2023.2.2,Win32,85.47008547,,,,,,,,,,,,,,,,327.9765,329.2695,329.2695,330.4557,return,0.15,,50.65104167,,,,,,FBP-OG-91.png,0.43,1.2,44,0.5,0,46,46,43,1,,,,,,,,,,,,,,,,,,,,,,,,,,,,,,,,,,,,,,,,
,,,,,V3_078,19,Female,2024-11-20_13h27.20.889,jersey_experiment_5_v3,2023.2.2,Win32,85.47008547,,,,,,,,,,,,,,,,330.4559,332.0142,332.0142,332.6344,return,0.2042,,50.65104167,,,,,,FBP-RB-81.png,0.4,1.2,53,0.75,0,47,47,52,1,,,,,,,,,,,,,,,,,,,,,,,,,,,,,,,,,,,,,,,,
,,,,,V3_078,19,Female,2024-11-20_13h27.20.889,jersey_experiment_5_v3,2023.2.2,Win32,85.47008547,,,,,,,,,,,,,,,,332.6345,334.1778,334.1778,335.7067,return,0.0772,,24.73958333,,,,,,FBP-PT-91.png,0.37,1.2,27,0.75,0,48,48,26,1,,,,,,,,,,,,,,,,,,,,,,,,,,,,,,,,,,,,,,,,
,,,,,V3_078,19,Female,2024-11-20_13h27.20.889,jersey_experiment_5_v3,2023.2.2,Win32,85.47008547,,,,,,,,,,,,,,,,335.7069,337.2486,337.2486,338.5527,return,0.1505,,48.95833333,,,,,,FBP-YG-17.png,0.43,1.2,4,0.75,0,49,49,3,1,,,,,,,,,,,,,,,,,,,,,,,,,,,,,,,,,,,,,,,,
,,,,,V3_078,19,Female,2024-11-20_13h27.20.889,jersey_experiment_5_v3,2023.2.2,Win32,85.47008547,,,,,,,,,,,,,,,,338.553,340.0927,340.0928,341.0821,return,0.1314,,75,,,,,,FBP-RB-81.png,0.43,1.2,54,0.75,0,50,50,53,1,,,,,,,,,,,,,,,,,,,,,,,,,,,,,,,,,,,,,,,,
,,,,,V3_078,19,Female,2024-11-20_13h27.20.889,jersey_experiment_5_v3,2023.2.2,Win32,85.47008547,,,,,,,,,,,,,,,,341.0823,342.6267,342.6267,343.7923,return,0.1338,,24.86979167,,,,,,FBP-PT-71.png,0.37,1.2,17,0.75,0,51,51,16,1,,,,,,,,,,,,,,,,,,,,,,,,,,,,,,,,,,,,,,,,
,,,,,V3_078,19,Female,2024-11-20_13h27.20.889,jersey_experiment_5_v3,2023.2.2,Win32,85.47008547,,,,,,,,,,,,,,,,343.7925,345.335,345.335,346.696,return,0.0922,,25.65104167,,,,,,FBP-YG-18.png,0.4,1.2,8,0.75,0,52,52,7,1,,,,,,,,,,,,,,,,,,,,,,,,,,,,,,,,,,,,,,,,
,,,,,V3_078,19,Female,2024-11-20_13h27.20.889,jersey_experiment_5_v3,2023.2.2,Win32,85.47008547,,,,,,,,,,,,,,,,346.6962,347.9953,347.9953,349.1086,return,0.0563,,21.484375,,,,,,FBP-OG-71.png,0.35,1.2,31,0.5,0,53,53,30,1,,,,,,,,,,,,,,,,,,,,,,,,,,,,,,,,,,,,,,,,
,,,,,V3_078,19,Female,2024-11-20_13h27.20.889,jersey_experiment_5_v3,2023.2.2,Win32,85.47008547,,,,,,,,,,,,,,,,349.1087,350.6596,350.6596,351.8562,return,0.1151,,99.21875,,,,,,FBP-PT-91.png,0.45,1.2,30,0.75,0,54,54,29,1,,,,,,,,,,,,,,,,,,,,,,,,,,,,,,,,,,,,,,,,
,,,,,V3_078,19,Female,2024-11-20_13h27.20.889,jersey_experiment_5_v3,2023.2.2,Win32,85.47008547,,,,,,,,,,,,,,,,351.8564,353.3913,353.3913,355.0127,return,0.074,,38.54166667,,,,,,FBP-RB-81.png,0.35,1.2,51,0.75,0,55,55,50,1,,,,,,,,,,,,,,,,,,,,,,,,,,,,,,,,,,,,,,,,
,,,,,V3_078,19,Female,2024-11-20_13h27.20.889,jersey_experiment_5_v3,2023.2.2,Win32,85.47008547,,,,,,,,,,,,,,,,355.0128,356.5584,356.5585,358.0592,return,0.0754,,25,,,,,,FBP-RB-71.png,0.35,1.2,46,0.75,0,56,56,45,1,,,,,,,,,,,,,,,,,,,,,,,,,,,,,,,,,,,,,,,,
,,,,,V3_078,19,Female,2024-11-20_13h27.20.889,jersey_experiment_5_v3,2023.2.2,Win32,85.47008547,,,,,,,,,,,,,,,,358.0593,359.342,359.342,360.5126,return,0.1474,,11.84895833,,,,,,FBP-OG-91.png,0.37,1.2,42,0.5,0,57,57,41,1,,,,,,,,,,,,,,,,,,,,,,,,,,,,,,,,,,,,,,,,
,,,,,V3_078,19,Female,2024-11-20_13h27.20.889,jersey_experiment_5_v3,2023.2.2,Win32,85.47008547,,,,,,,,,,,,,,,,360.5127,361.812,361.812,363.7556,return,0.8992,,87.109375,,,,,,FBP-OG-91.png,0.45,1.2,45,0.5,0,58,58,44,1,,,,,,,,,,,,,,,,,,,,,,,,,,,,,,,,,,,,,,,,
,,,,,V3_078,19,Female,2024-11-20_13h27.20.889,jersey_experiment_5_v3,2023.2.2,Win32,85.47008547,,,,,,,,,,,,,,,,363.7557,365.2983,365.2984,366.1761,return,0.1308,,25.13020833,,,,,,FBP-PT-81.png,0.35,1.2,21,0.75,0,59,59,20,1,,,,,,,,,,,,,,,,,,,,,,,,,,,,,,,,,,,,,,,,
,,,,,V3_078,19,Female,2024-11-20_13h27.20.889,jersey_experiment_5_v3,2023.2.2,Win32,85.47008547,,,,,,,,,,,,,,,,,,,,,,,,,,,,,,,,,,,,,,,366.1763,486.1743,,,,,,,,,,,,,,,,,,,,,,,,,,,,,,,,,,,,,,
,,,,,V3_078,19,Female,2024-11-20_13h27.20.889,jersey_experiment_5_v3,2023.2.2,Win32,85.47008547,,,,,,,,,,,,,,,,,,,,,,,,,,,,,,,,,,,,,,,,,486.1744,497.7501,return,11.5589,,,,,,,,,,,,,,,,,,,,,,,,,,,,,,,,,,
,,,,,V3_078,19,Female,2024-11-20_13h27.20.889,jersey_experiment_5_v3,2023.2.2,Win32,85.47008547,,,,,,,,,,,,,,,,497.7515,499.0431,499.0432,503.755,return,0.6102,,23.95833333,,,,,,FBP-PT-18.png,0.37,1.2,22,0.5,,,,,,,,,,,,,0,0,0,21,1,,,,,,,,,,,,,,,,,,,,,,,,,,,,
,,,,,V3_078,19,Female,2024-11-20_13h27.20.889,jersey_experiment_5_v3,2023.2.2,Win32,85.47008547,,,,,,,,,,,,,,,,503.7552,505.0474,505.0475,506.4429,return,0.1477,,74.34895833,,,,,,FBP-YG-71.png,0.43,1.2,4,0.5,,,,,,,,,,,,,0,1,1,3,1,,,,,,,,,,,,,,,,,,,,,,,,,,,,
,,,,,V3_078,19,Female,2024-11-20_13h27.20.889,jersey_experiment_5_v3,2023.2.2,Win32,85.47008547,,,,,,,,,,,,,,,,506.443,507.7389,507.7389,509.1506,return,0.2078,,24.21875,,,,,,FBP-PT-18.png,0.35,1.2,21,0.5,,,,,,,,,,,,,0,2,2,20,1,,,,,,,,,,,,,,,,,,,,,,,,,,,,
,,,,,V3_078,19,Female,2024-11-20_13h27.20.889,jersey_experiment_5_v3,2023.2.2,Win32,85.47008547,,,,,,,,,,,,,,,,509.1508,510.6949,510.6949,512.0974,return,0.0747,,34.375,,,,,,FBP-OG-18.png,0.37,1.2,37,0.75,,,,,,,,,,,,,0,3,3,36,1,,,,,,,,,,,,,,,,,,,,,,,,,,,,
,,,,,V3_078,19,Female,2024-11-20_13h27.20.889,jersey_experiment_5_v3,2023.2.2,Win32,85.47008547,,,,,,,,,,,,,,,,512.0976,513.3921,513.3922,514.565,return,0.1117,,50.26041667,,,,,,FBP-RB-19.png,0.37,1.2,57,0.5,,,,,,,,,,,,,0,4,4,56,1,,,,,,,,,,,,,,,,,,,,,,,,,,,,
,,,,,V3_078,19,Female,2024-11-20_13h27.20.889,jersey_experiment_5_v3,2023.2.2,Win32,85.47008547,,,,,,,,,,,,,,,,514.5652,515.8645,515.8647,516.7623,return,0.1104,,75.52083333,,,,,,FBP-RB-18.png,0.45,1.2,55,0.5,,,,,,,,,,,,,0,5,5,54,1,,,,,,,,,,,,,,,,,,,,,,,,,,,,
,,,,,V3_078,19,Female,2024-11-20_13h27.20.889,jersey_experiment_5_v3,2023.2.2,Win32,85.47008547,,,,,,,,,,,,,,,,516.7626,518.3038,518.3038,519.1682,return,0.1293,,91.015625,,,,,,FBP-OG-19.png,0.43,1.2,44,0.75,,,,,,,,,,,,,0,6,6,43,1,,,,,,,,,,,,,,,,,,,,,,,,,,,,
,,,,,V3_078,19,Female,2024-11-20_13h27.20.889,jersey_experiment_5_v3,2023.2.2,Win32,85.47008547,,,,,,,,,,,,,,,,519.1685,520.7025,520.7025,522.3831,return,0.2062,,99.47916667,,,,,,FBP-OG-18.png,0.45,1.2,40,0.75,,,,,,,,,,,,,0,7,7,39,1,,,,,,,,,,,,,,,,,,,,,,,,,,,,
,,,,,V3_078,19,Female,2024-11-20_13h27.20.889,jersey_experiment_5_v3,2023.2.2,Win32,85.47008547,,,,,,,,,,,,,,,,522.3832,523.9234,523.9234,525.102,return,0.1145,,36.19791667,,,,,,FBP-OG-19.png,0.35,1.2,41,0.75,,,,,,,,,,,,,0,8,8,40,1,,,,,,,,,,,,,,,,,,,,,,,,,,,,
,,,,,V3_078,19,Female,2024-11-20_13h27.20.889,jersey_experiment_5_v3,2023.2.2,Win32,85.47008547,,,,,,,,,,,,,,,,525.1023,526.399,526.3991,527.6753,return,0.1111,,16.015625,,,,,,FBP-YG-71.png,0.35,1.2,1,0.5,,,,,,,,,,,,,0,9,9,0,1,,,,,,,,,,,,,,,,,,,,,,,,,,,,
,,,,,V3_078,19,Female,2024-11-20_13h27.20.889,jersey_experiment_5_v3,2023.2.2,Win32,85.47008547,,,,,,,,,,,,,,,,527.6755,528.9674,528.9674,530.5685,return,0.2211,,87.63020833,,,,,,FBP-YG-91.png,0.43,1.2,14,0.5,,,,,,,,,,,,,0,10,10,13,1,,,,,,,,,,,,,,,,,,,,,,,,,,,,
,,,,,V3_078,19,Female,2024-11-20_13h27.20.889,jersey_experiment_5_v3,2023.2.2,Win32,85.47008547,,,,,,,,,,,,,,,,530.5687,531.8569,531.8569,532.9109,return,0.1331,,75,,,,,,FBP-YG-71.png,0.4,1.2,3,0.5,,,,,,,,,,,,,0,11,11,2,1,,,,,,,,,,,,,,,,,,,,,,,,,,,,
,,,,,V3_078,19,Female,2024-11-20_13h27.20.889,jersey_experiment_5_v3,2023.2.2,Win32,85.47008547,,,,,,,,,,,,,,,,532.9111,534.2102,534.2102,535.6889,return,0.7419,,38.41145833,,,,,,FBP-YG-81.png,0.35,1.2,6,0.5,,,,,,,,,,,,,0,12,12,5,1,,,,,,,,,,,,,,,,,,,,,,,,,,,,
,,,,,V3_078,19,Female,2024-11-20_13h27.20.889,jersey_experiment_5_v3,2023.2.2,Win32,85.47008547,,,,,,,,,,,,,,,,535.689,537.2291,537.2291,538.6433,return,0.1297,,3.776041667,,,,,,FBP-OG-17.png,0.35,1.2,31,0.75,,,,,,,,,,,,,0,13,13,30,1,,,,,,,,,,,,,,,,,,,,,,,,,,,,
,,,,,V3_078,19,Female,2024-11-20_13h27.20.889,jersey_experiment_5_v3,2023.2.2,Win32,85.47008547,,,,,,,,,,,,,,,,538.6435,539.941,539.941,541.1278,return,0.1294,,25.13020833,,,,,,FBP-RB-17.png,0.37,1.2,47,0.5,,,,,,,,,,,,,0,14,14,46,1,,,,,,,,,,,,,,,,,,,,,,,,,,,,
,,,,,V3_078,19,Female,2024-11-20_13h27.20.889,jersey_experiment_5_v3,2023.2.2,Win32,85.47008547,,,,,,,,,,,,,,,,541.128,542.6763,542.6763,543.5951,return,0.1129,,74.609375,,,,,,FBP-OG-18.png,0.43,1.2,39,0.75,,,,,,,,,,,,,0,15,15,38,1,,,,,,,,,,,,,,,,,,,,,,,,,,,,
,,,,,V3_078,19,Female,2024-11-20_13h27.20.889,jersey_experiment_5_v3,2023.2.2,Win32,85.47008547,,,,,,,,,,,,,,,,543.5953,545.1441,545.1442,546.2653,return,0.1331,,44.921875,,,,,,FBP-OG-18.png,0.35,1.2,36,0.75,,,,,,,,,,,,,0,16,16,35,1,,,,,,,,,,,,,,,,,,,,,,,,,,,,
,,,,,V3_078,19,Female,2024-11-20_13h27.20.889,jersey_experiment_5_v3,2023.2.2,Win32,85.47008547,,,,,,,,,,,,,,,,546.2655,547.5623,547.5623,548.4672,return,0.2606,,51.04166667,,,,,,FBP-YG-81.png,0.4,1.2,8,0.5,,,,,,,,,,,,,0,17,17,7,1,,,,,,,,,,,,,,,,,,,,,,,,,,,,
,,,,,V3_078,19,Female,2024-11-20_13h27.20.889,jersey_experiment_5_v3,2023.2.2,Win32,85.47008547,,,,,,,,,,,,,,,,548.4673,550.0069,550.0069,550.8857,return,0.0739,,65.75520833,,,,,,FBP-OG-18.png,0.4,1.2,38,0.75,,,,,,,,,,,,,0,18,18,37,1,,,,,,,,,,,,,,,,,,,,,,,,,,,,
,,,,,V3_078,19,Female,2024-11-20_13h27.20.889,jersey_experiment_5_v3,2023.2.2,Win32,85.47008547,,,,,,,,,,,,,,,,550.8859,552.178,552.178,553.0183,return,0.1114,,76.171875,,,,,,FBP-YG-81.png,0.43,1.2,9,0.5,,,,,,,,,,,,,0,19,19,8,1,,,,,,,,,,,,,,,,,,,,,,,,,,,,
,,,,,V3_078,19,Female,2024-11-20_13h27.20.889,jersey_experiment_5_v3,2023.2.2,Win32,85.47008547,,,,,,,,,,,,,,,,553.0185,554.5522,554.5522,555.5931,return,0.1307,,61.06770833,,,,,,FBP-OG-17.png,0.4,1.2,33,0.75,,,,,,,,,,,,,0,20,20,32,1,,,,,,,,,,,,,,,,,,,,,,,,,,,,
,,,,,V3_078,19,Female,2024-11-20_13h27.20.889,jersey_experiment_5_v3,2023.2.2,Win32,85.47008547,,,,,,,,,,,,,,,,555.5932,557.1369,557.137,558.2223,return,0.0947,,94.79166667,,,,,,FBP-OG-17.png,0.45,1.2,35,0.75,,,,,,,,,,,,,0,21,21,34,1,,,,,,,,,,,,,,,,,,,,,,,,,,,,
,,,,,V3_078,19,Female,2024-11-20_13h27.20.889,jersey_experiment_5_v3,2023.2.2,Win32,85.47008547,,,,,,,,,,,,,,,,558.2225,559.5173,559.5174,560.7964,return,0.1142,,67.70833333,,,,,,FBP-PT-19.png,0.4,1.2,28,0.5,,,,,,,,,,,,,0,22,22,27,1,,,,,,,,,,,,,,,,,,,,,,,,,,,,
,,,,,V3_078,19,Female,2024-11-20_13h27.20.889,jersey_experiment_5_v3,2023.2.2,Win32,85.47008547,,,,,,,,,,,,,,,,560.7965,562.1006,562.1006,563.1895,return,0.096,,83.59375,,,,,,FBP-RB-17.png,0.43,1.2,49,0.5,,,,,,,,,,,,,0,23,23,48,1,,,,,,,,,,,,,,,,,,,,,,,,,,,,
,,,,,V3_078,19,Female,2024-11-20_13h27.20.889,jersey_experiment_5_v3,2023.2.2,Win32,85.47008547,,,,,,,,,,,,,,,,563.1898,564.749,564.749,565.9154,return,0.1293,,57.68229167,,,,,,FBP-OG-19.png,0.4,1.2,43,0.75,,,,,,,,,,,,,0,24,24,42,1,,,,,,,,,,,,,,,,,,,,,,,,,,,,
,,,,,V3_078,19,Female,2024-11-20_13h27.20.889,jersey_experiment_5_v3,2023.2.2,Win32,85.47008547,,,,,,,,,,,,,,,,565.9155,567.4593,567.4594,568.7575,return,0.0582,,37.76041667,,,,,,FBP-OG-19.png,0.37,1.2,42,0.75,,,,,,,,,,,,,0,25,25,41,1,,,,,,,,,,,,,,,,,,,,,,,,,,,,
,,,,,V3_078,19,Female,2024-11-20_13h27.20.889,jersey_experiment_5_v3,2023.2.2,Win32,85.47008547,,,,,,,,,,,,,,,,568.7578,570.056,570.056,571.1301,return,0.2056,,26.04166667,,,,,,FBP-RB-19.png,0.35,1.2,56,0.5,,,,,,,,,,,,,0,26,26,55,1,,,,,,,,,,,,,,,,,,,,,,,,,,,,
,,,,,V3_078,19,Female,2024-11-20_13h27.20.889,jersey_experiment_5_v3,2023.2.2,Win32,85.47008547,,,,,,,,,,,,,,,,571.1303,572.6676,572.6676,573.7348,return,0.3148,,75.52083333,,,,,,FBP-OG-17.png,0.43,1.2,34,0.75,,,,,,,,,,,,,0,27,27,33,1,,,,,,,,,,,,,,,,,,,,,,,,,,,,
,,,,,V3_078,19,Female,2024-11-20_13h27.20.889,jersey_experiment_5_v3,2023.2.2,Win32,85.47008547,,,,,,,,,,,,,,,,573.735,575.2799,575.28,576.4518,return,0.0389,,49.609375,,,,,,FBP-OG-17.png,0.37,1.2,32,0.75,,,,,,,,,,,,,0,28,28,31,1,,,,,,,,,,,,,,,,,,,,,,,,,,,,
,,,,,V3_078,19,Female,2024-11-20_13h27.20.889,jersey_experiment_5_v3,2023.2.2,Win32,85.47008547,,,,,,,,,,,,,,,,576.452,577.7475,577.7475,578.8111,return,0.1661,,74.47916667,,,,,,FBP-RB-19.png,0.43,1.2,59,0.5,,,,,,,,,,,,,0,29,29,58,1,,,,,,,,,,,,,,,,,,,,,,,,,,,,
,,,,,V3_078,19,Female,2024-11-20_13h27.20.889,jersey_experiment_5_v3,2023.2.2,Win32,85.47008547,,,,,,,,,,,,,,,,578.8113,580.108,580.1081,581.508,return,0.5139,,50.13020833,,,,,,FBP-YG-81.png,0.37,1.2,7,0.5,,,,,,,,,,,,,0,30,30,6,1,,,,,,,,,,,,,,,,,,,,,,,,,,,,
,,,,,V3_078,19,Female,2024-11-20_13h27.20.889,jersey_experiment_5_v3,2023.2.2,Win32,85.47008547,,,,,,,,,,,,,,,,581.5082,582.802,582.802,583.714,return,0.0742,,99.34895833,,,,,,FBP-PT-19.png,0.45,1.2,30,0.5,,,,,,,,,,,,,0,31,31,29,1,,,,,,,,,,,,,,,,,,,,,,,,,,,,
,,,,,V3_078,19,Female,2024-11-20_13h27.20.889,jersey_experiment_5_v3,2023.2.2,Win32,85.47008547,,,,,,,,,,,,,,,,583.7142,584.9996,584.9997,586.062,return,0.0605,,26.5625,,,,,,FBP-PT-17.png,0.35,1.2,16,0.5,,,,,,,,,,,,,0,32,32,15,1,,,,,,,,,,,,,,,,,,,,,,,,,,,,
,,,,,V3_078,19,Female,2024-11-20_13h27.20.889,jersey_experiment_5_v3,2023.2.2,Win32,85.47008547,,,,,,,,,,,,,,,,586.0621,587.3654,587.3655,588.4686,return,0.0923,,98.4375,,,,,,FBP-PT-17.png,0.45,1.2,20,0.5,,,,,,,,,,,,,0,33,33,19,1,,,,,,,,,,,,,,,,,,,,,,,,,,,,
,,,,,V3_078,19,Female,2024-11-20_13h27.20.889,jersey_experiment_5_v3,2023.2.2,Win32,85.47008547,,,,,,,,,,,,,,,,588.4687,589.7655,589.7655,591.4022,return,0.077,,74.73958333,,,,,,FBP-RB-18.png,0.4,1.2,53,0.5,,,,,,,,,,,,,0,34,34,52,1,,,,,,,,,,,,,,,,,,,,,,,,,,,,
,,,,,V3_078,19,Female,2024-11-20_13h27.20.889,jersey_experiment_5_v3,2023.2.2,Win32,85.47008547,,,,,,,,,,,,,,,,591.4024,592.9502,592.9502,593.6485,return,0.1304,,91.796875,,,,,,FBP-OG-19.png,0.45,1.2,45,0.75,,,,,,,,,,,,,0,35,35,44,1,,,,,,,,,,,,,,,,,,,,,,,,,,,,
,,,,,V3_078,19,Female,2024-11-20_13h27.20.889,jersey_experiment_5_v3,2023.2.2,Win32,85.47008547,,,,,,,,,,,,,,,,593.6487,594.9488,594.9489,596.2033,return,0.0745,,27.21354167,,,,,,FBP-RB-18.png,0.35,1.2,51,0.5,,,,,,,,,,,,,0,36,36,50,1,,,,,,,,,,,,,,,,,,,,,,,,,,,,
,,,,,V3_078,19,Female,2024-11-20_13h27.20.889,jersey_experiment_5_v3,2023.2.2,Win32,85.47008547,,,,,,,,,,,,,,,,596.2036,597.5067,597.5067,598.7794,return,0.1315,,98.4375,,,,,,FBP-YG-91.png,0.45,1.2,15,0.5,,,,,,,,,,,,,0,37,37,14,1,,,,,,,,,,,,,,,,,,,,,,,,,,,,
,,,,,V3_078,19,Female,2024-11-20_13h27.20.889,jersey_experiment_5_v3,2023.2.2,Win32,85.47008547,,,,,,,,,,,,,,,,598.7796,600.0734,600.0735,601.4074,return,0.0206,,74.47916667,,,,,,FBP-RB-18.png,0.43,1.2,54,0.5,,,,,,,,,,,,,0,38,38,53,1,,,,,,,,,,,,,,,,,,,,,,,,,,,,
,,,,,V3_078,19,Female,2024-11-20_13h27.20.889,jersey_experiment_5_v3,2023.2.2,Win32,85.47008547,,,,,,,,,,,,,,,,601.4075,602.7019,602.7019,603.8036,return,0.0938,,50.65104167,,,,,,FBP-YG-91.png,0.37,1.2,12,0.5,,,,,,,,,,,,,0,39,39,11,1,,,,,,,,,,,,,,,,,,,,,,,,,,,,
,,,,,V3_078,19,Female,2024-11-20_13h27.20.889,jersey_experiment_5_v3,2023.2.2,Win32,85.47008547,,,,,,,,,,,,,,,,603.8038,605.0989,605.099,605.9709,return,0.1108,,28.38541667,,,,,,FBP-PT-19.png,0.37,1.2,27,0.5,,,,,,,,,,,,,0,40,40,26,1,,,,,,,,,,,,,,,,,,,,,,,,,,,,
,,,,,V3_078,19,Female,2024-11-20_13h27.20.889,jersey_experiment_5_v3,2023.2.2,Win32,85.47008547,,,,,,,,,,,,,,,,605.9711,607.2614,607.2614,608.9084,return,0.1129,,99.21875,,,,,,FBP-PT-18.png,0.45,1.2,25,0.5,,,,,,,,,,,,,0,41,41,24,1,,,,,,,,,,,,,,,,,,,,,,,,,,,,
,,,,,V3_078,19,Female,2024-11-20_13h27.20.889,jersey_experiment_5_v3,2023.2.2,Win32,85.47008547,,,,,,,,,,,,,,,,608.9085,610.2011,610.2012,612.1838,return,0.2792,,0.130208333,,,,,,FBP-PT-19.png,0.35,1.2,26,0.5,,,,,,,,,,,,,0,42,42,25,1,,,,,,,,,,,,,,,,,,,,,,,,,,,,
,,,,,V3_078,19,Female,2024-11-20_13h27.20.889,jersey_experiment_5_v3,2023.2.2,Win32,85.47008547,,,,,,,,,,,,,,,,612.184,613.4676,613.4676,614.6137,return,0.096,,25.26041667,,,,,,FBP-RB-18.png,0.37,1.2,52,0.5,,,,,,,,,,,,,0,43,43,51,1,,,,,,,,,,,,,,,,,,,,,,,,,,,,
,,,,,V3_078,19,Female,2024-11-20_13h27.20.889,jersey_experiment_5_v3,2023.2.2,Win32,85.47008547,,,,,,,,,,,,,,,,614.6139,615.9059,615.9059,616.9337,return,0.1512,,13.28125,,,,,,FBP-RB-17.png,0.35,1.2,46,0.5,,,,,,,,,,,,,0,44,44,45,1,,,,,,,,,,,,,,,,,,,,,,,,,,,,
,,,,,V3_078,19,Female,2024-11-20_13h27.20.889,jersey_experiment_5_v3,2023.2.2,Win32,85.47008547,,,,,,,,,,,,,,,,616.9339,618.2243,618.2244,619.2671,return,0.1648,,1.692708333,,,,,,FBP-YG-91.png,0.35,1.2,11,0.5,,,,,,,,,,,,,0,45,45,10,1,,,,,,,,,,,,,,,,,,,,,,,,,,,,
,,,,,V3_078,19,Female,2024-11-20_13h27.20.889,jersey_experiment_5_v3,2023.2.2,Win32,85.47008547,,,,,,,,,,,,,,,,619.2673,620.5532,620.5532,621.8078,return,0.0945,,49.609375,,,,,,FBP-PT-17.png,0.4,1.2,18,0.5,,,,,,,,,,,,,0,46,46,17,1,,,,,,,,,,,,,,,,,,,,,,,,,,,,
,,,,,V3_078,19,Female,2024-11-20_13h27.20.889,jersey_experiment_5_v3,2023.2.2,Win32,85.47008547,,,,,,,,,,,,,,,,621.8079,623.1054,623.1055,624.4004,return,0.0758,,95.96354167,,,,,,FBP-RB-17.png,0.45,1.2,50,0.5,,,,,,,,,,,,,0,47,47,49,1,,,,,,,,,,,,,,,,,,,,,,,,,,,,
,,,,,V3_078,19,Female,2024-11-20_13h27.20.889,jersey_experiment_5_v3,2023.2.2,Win32,85.47008547,,,,,,,,,,,,,,,,624.4006,625.7038,625.7039,626.4941,return,0.0956,,98.828125,,,,,,FBP-YG-81.png,0.45,1.2,10,0.5,,,,,,,,,,,,,0,48,48,9,1,,,,,,,,,,,,,,,,,,,,,,,,,,,,
,,,,,V3_078,19,Female,2024-11-20_13h27.20.889,jersey_experiment_5_v3,2023.2.2,Win32,85.47008547,,,,,,,,,,,,,,,,626.4943,627.796,627.796,628.4914,return,0.2232,,98.69791667,,,,,,FBP-PT-19.png,0.43,1.2,29,0.5,,,,,,,,,,,,,0,49,49,28,1,,,,,,,,,,,,,,,,,,,,,,,,,,,,
,,,,,V3_078,19,Female,2024-11-20_13h27.20.889,jersey_experiment_5_v3,2023.2.2,Win32,85.47008547,,,,,,,,,,,,,,,,628.4916,629.7891,629.7892,631.5142,return,0.7735,,34.24479167,,,,,,FBP-PT-17.png,0.37,1.2,17,0.5,,,,,,,,,,,,,0,50,50,16,1,,,,,,,,,,,,,,,,,,,,,,,,,,,,
,,,,,V3_078,19,Female,2024-11-20_13h27.20.889,jersey_experiment_5_v3,2023.2.2,Win32,85.47008547,,,,,,,,,,,,,,,,631.5144,632.8118,632.8118,633.6427,return,0.0393,,72.265625,,,,,,FBP-RB-19.png,0.45,1.2,60,0.5,,,,,,,,,,,,,0,51,51,59,1,,,,,,,,,,,,,,,,,,,,,,,,,,,,
,,,,,V3_078,19,Female,2024-11-20_13h27.20.889,jersey_experiment_5_v3,2023.2.2,Win32,85.47008547,,,,,,,,,,,,,,,,633.6429,634.9408,634.9408,635.9562,return,0.0934,,48.56770833,,,,,,FBP-PT-18.png,0.4,1.2,23,0.5,,,,,,,,,,,,,0,52,52,22,1,,,,,,,,,,,,,,,,,,,,,,,,,,,,
,,,,,V3_078,19,Female,2024-11-20_13h27.20.889,jersey_experiment_5_v3,2023.2.2,Win32,85.47008547,,,,,,,,,,,,,,,,635.9564,637.2564,637.2564,639.0139,return,0.168,,73.30729167,,,,,,FBP-PT-18.png,0.43,1.2,24,0.5,,,,,,,,,,,,,0,53,53,23,1,,,,,,,,,,,,,,,,,,,,,,,,,,,,
,,,,,V3_078,19,Female,2024-11-20_13h27.20.889,jersey_experiment_5_v3,2023.2.2,Win32,85.47008547,,,,,,,,,,,,,,,,639.014,640.3181,640.3182,641.4641,return,0.0745,,73.046875,,,,,,FBP-RB-19.png,0.4,1.2,58,0.5,,,,,,,,,,,,,0,54,54,57,1,,,,,,,,,,,,,,,,,,,,,,,,,,,,
,,,,,V3_078,19,Female,2024-11-20_13h27.20.889,jersey_experiment_5_v3,2023.2.2,Win32,85.47008547,,,,,,,,,,,,,,,,641.4643,642.7512,642.7512,643.6709,return,0.0392,,89.58333333,,,,,,FBP-YG-71.png,0.45,1.2,5,0.5,,,,,,,,,,,,,0,55,55,4,1,,,,,,,,,,,,,,,,,,,,,,,,,,,,
,,,,,V3_078,19,Female,2024-11-20_13h27.20.889,jersey_experiment_5_v3,2023.2.2,Win32,85.47008547,,,,,,,,,,,,,,,,643.6711,644.9753,644.9754,646.5462,return,0.0201,,62.890625,,,,,,FBP-YG-91.png,0.4,1.2,13,0.5,,,,,,,,,,,,,0,56,56,12,1,,,,,,,,,,,,,,,,,,,,,,,,,,,,
,,,,,V3_078,19,Female,2024-11-20_13h27.20.889,jersey_experiment_5_v3,2023.2.2,Win32,85.47008547,,,,,,,,,,,,,,,,646.5464,647.8444,647.8444,649.0445,return,0.3055,,63.41145833,,,,,,FBP-RB-17.png,0.4,1.2,48,0.5,,,,,,,,,,,,,0,57,57,47,1,,,,,,,,,,,,,,,,,,,,,,,,,,,,
,,,,,V3_078,19,Female,2024-11-20_13h27.20.889,jersey_experiment_5_v3,2023.2.2,Win32,85.47008547,,,,,,,,,,,,,,,,649.0446,650.3366,650.3366,651.2054,return,0.1311,,50.78125,,,,,,FBP-YG-71.png,0.37,1.2,2,0.5,,,,,,,,,,,,,0,58,58,1,1,,,,,,,,,,,,,,,,,,,,,,,,,,,,
,,,,,V3_078,19,Female,2024-11-20_13h27.20.889,jersey_experiment_5_v3,2023.2.2,Win32,85.47008547,,,,,,,,,,,,,,,,651.2056,652.5077,652.5077,653.3599,return,0.0198,,68.22916667,,,,,,FBP-PT-17.png,0.43,1.2,19,0.5,,,,,,,,,,,,,0,59,59,18,1,,,,,,,,,,,,,,,,,,,,,,,,,,,,
,,,,,V3_078,19,Female,2024-11-20_13h27.20.889,jersey_experiment_5_v3,2023.2.2,Win32,85.47008547,,,,,,,,,,,,,,,,653.3616,654.65,654.6501,655.8406,return,0.0937,,74.47916667,,,,,,FBP-PT-81.png,0.43,1.2,24,0.5,,,,,,,,,,,,,,,,,,0,0,0,23,1,,,,,,,,,,,,,,,,,,,,,,,
,,,,,V3_078,19,Female,2024-11-20_13h27.20.889,jersey_experiment_5_v3,2023.2.2,Win32,85.47008547,,,,,,,,,,,,,,,,655.8409,657.1447,657.1448,658.1022,return,0.241,,86.06770833,,,,,,FBP-YG-19.png,0.43,1.2,14,0.5,,,,,,,,,,,,,,,,,,0,1,1,13,1,,,,,,,,,,,,,,,,,,,,,,,
,,,,,V3_078,19,Female,2024-11-20_13h27.20.889,jersey_experiment_5_v3,2023.2.2,Win32,85.47008547,,,,,,,,,,,,,,,,658.1024,659.3993,659.3993,660.3905,return,0.1287,,51.43229167,,,,,,FBP-RB-81.png,0.37,1.2,52,0.5,,,,,,,,,,,,,,,,,,0,2,2,51,1,,,,,,,,,,,,,,,,,,,,,,,
,,,,,V3_078,19,Female,2024-11-20_13h27.20.889,jersey_experiment_5_v3,2023.2.2,Win32,85.47008547,,,,,,,,,,,,,,,,660.3907,661.69,661.69,662.5558,return,0.0934,,77.21354167,,,,,,FBP-RB-91.png,0.45,1.2,60,0.5,,,,,,,,,,,,,,,,,,0,3,3,59,1,,,,,,,,,,,,,,,,,,,,,,,
,,,,,V3_078,19,Female,2024-11-20_13h27.20.889,jersey_experiment_5_v3,2023.2.2,Win32,85.47008547,,,,,,,,,,,,,,,,662.5559,663.8533,663.8533,664.7132,return,0.0943,,50.52083333,,,,,,FBP-PT-71.png,0.4,1.2,18,0.5,,,,,,,,,,,,,,,,,,0,4,4,17,1,,,,,,,,,,,,,,,,,,,,,,,
,,,,,V3_078,19,Female,2024-11-20_13h27.20.889,jersey_experiment_5_v3,2023.2.2,Win32,85.47008547,,,,,,,,,,,,,,,,664.7134,666.0159,666.0159,666.8975,return,0.0745,,75.78125,,,,,,FBP-YG-17.png,0.43,1.2,4,0.5,,,,,,,,,,,,,,,,,,0,5,5,3,1,,,,,,,,,,,,,,,,,,,,,,,
,,,,,V3_078,19,Female,2024-11-20_13h27.20.889,jersey_experiment_5_v3,2023.2.2,Win32,85.47008547,,,,,,,,,,,,,,,,666.8977,668.195,668.1951,668.7245,return,0.2225,,75.78125,,,,,,FBP-RB-71.png,0.43,1.2,49,0.5,,,,,,,,,,,,,,,,,,0,6,6,48,1,,,,,,,,,,,,,,,,,,,,,,,
,,,,,V3_078,19,Female,2024-11-20_13h27.20.889,jersey_experiment_5_v3,2023.2.2,Win32,85.47008547,,,,,,,,,,,,,,,,668.7248,670.0231,670.0232,671.0605,return,0.095,,26.43229167,,,,,,FBP-RB-81.png,0.35,1.2,51,0.5,,,,,,,,,,,,,,,,,,0,7,7,50,1,,,,,,,,,,,,,,,,,,,,,,,
,,,,,V3_078,19,Female,2024-11-20_13h27.20.889,jersey_experiment_5_v3,2023.2.2,Win32,85.47008547,,,,,,,,,,,,,,,,671.0607,672.3526,672.3526,673.6476,return,0.0201,,4.427083333,,,,,,FBP-PT-71.png,0.37,1.2,17,0.5,,,,,,,,,,,,,,,,,,0,8,8,16,1,,,,,,,,,,,,,,,,,,,,,,,
,,,,,V3_078,19,Female,2024-11-20_13h27.20.889,jersey_experiment_5_v3,2023.2.2,Win32,85.47008547,,,,,,,,,,,,,,,,673.6477,674.9529,674.9529,675.8198,return,0.1322,,25.91145833,,,,,,FBP-RB-71.png,0.37,1.2,47,0.5,,,,,,,,,,,,,,,,,,0,9,9,46,1,,,,,,,,,,,,,,,,,,,,,,,
,,,,,V3_078,19,Female,2024-11-20_13h27.20.889,jersey_experiment_5_v3,2023.2.2,Win32,85.47008547,,,,,,,,,,,,,,,,675.82,677.1172,677.1172,677.8091,return,0.1689,,25.78125,,,,,,FBP-RB-91.png,0.4,1.2,58,0.5,,,,,,,,,,,,,,,,,,0,10,10,57,1,,,,,,,,,,,,,,,,,,,,,,,
,,,,,V3_078,19,Female,2024-11-20_13h27.20.889,jersey_experiment_5_v3,2023.2.2,Win32,85.47008547,,,,,,,,,,,,,,,,677.8094,679.365,679.365,679.7747,return,0.1708,,25.52083333,,,,,,FBP-OG-81.png,0.35,1.2,36,0.75,,,,,,,,,,,,,,,,,,0,11,11,35,1,,,,,,,,,,,,,,,,,,,,,,,
,,,,,V3_078,19,Female,2024-11-20_13h27.20.889,jersey_experiment_5_v3,2023.2.2,Win32,85.47008547,,,,,,,,,,,,,,,,679.7749,681.3228,681.3229,682.2126,return,0.1871,,73.95833333,,,,,,FBP-OG-81.png,0.43,1.2,39,0.75,,,,,,,,,,,,,,,,,,0,12,12,38,1,,,,,,,,,,,,,,,,,,,,,,,
,,,,,V3_078,19,Female,2024-11-20_13h27.20.889,jersey_experiment_5_v3,2023.2.2,Win32,85.47008547,,,,,,,,,,,,,,,,682.2128,683.5125,683.5125,684.4587,return,0.1466,,76.953125,,,,,,FBP-RB-71.png,0.4,1.2,48,0.5,,,,,,,,,,,,,,,,,,0,13,13,47,1,,,,,,,,,,,,,,,,,,,,,,,
,,,,,V3_078,19,Female,2024-11-20_13h27.20.889,jersey_experiment_5_v3,2023.2.2,Win32,85.47008547,,,,,,,,,,,,,,,,684.4588,685.7442,685.7442,686.7024,return,0.0225,,25.65104167,,,,,,FBP-PT-81.png,0.35,1.2,21,0.5,,,,,,,,,,,,,,,,,,0,14,14,20,1,,,,,,,,,,,,,,,,,,,,,,,
,,,,,V3_078,19,Female,2024-11-20_13h27.20.889,jersey_experiment_5_v3,2023.2.2,Win32,85.47008547,,,,,,,,,,,,,,,,686.7026,687.9942,687.9942,688.6557,return,0.1308,,24.609375,,,,,,FBP-YG-19.png,0.35,1.2,11,0.5,,,,,,,,,,,,,,,,,,0,15,15,10,1,,,,,,,,,,,,,,,,,,,,,,,
,,,,,V3_078,19,Female,2024-11-20_13h27.20.889,jersey_experiment_5_v3,2023.2.2,Win32,85.47008547,,,,,,,,,,,,,,,,688.6558,689.9525,689.9525,691.1133,return,0.1859,,72.52604167,,,,,,FBP-RB-81.png,0.43,1.2,54,0.5,,,,,,,,,,,,,,,,,,0,16,16,53,1,,,,,,,,,,,,,,,,,,,,,,,
,,,,,V3_078,19,Female,2024-11-20_13h27.20.889,jersey_experiment_5_v3,2023.2.2,Win32,85.47008547,,,,,,,,,,,,,,,,691.1135,692.4113,692.4113,693.9364,return,0.2273,,27.21354167,,,,,,FBP-YG-17.png,0.35,1.2,1,0.5,,,,,,,,,,,,,,,,,,0,17,17,0,1,,,,,,,,,,,,,,,,,,,,,,,
,,,,,V3_078,19,Female,2024-11-20_13h27.20.889,jersey_experiment_5_v3,2023.2.2,Win32,85.47008547,,,,,,,,,,,,,,,,693.9366,695.2342,695.2342,696.2684,return,0.0391,,25.26041667,,,,,,FBP-RB-91.png,0.37,1.2,57,0.5,,,,,,,,,,,,,,,,,,0,18,18,56,1,,,,,,,,,,,,,,,,,,,,,,,
,,,,,V3_078,19,Female,2024-11-20_13h27.20.889,jersey_experiment_5_v3,2023.2.2,Win32,85.47008547,,,,,,,,,,,,,,,,696.2686,697.5771,697.5771,698.8325,return,0.204,,76.69270833,,,,,,FBP-YG-19.png,0.45,1.2,15,0.5,,,,,,,,,,,,,,,,,,0,19,19,14,1,,,,,,,,,,,,,,,,,,,,,,,
,,,,,V3_078,19,Female,2024-11-20_13h27.20.889,jersey_experiment_5_v3,2023.2.2,Win32,85.47008547,,,,,,,,,,,,,,,,698.8327,700.1303,700.1304,701.1014,return,0.3736,,81.11979167,,,,,,FBP-PT-81.png,0.4,1.2,23,0.5,,,,,,,,,,,,,,,,,,0,20,20,22,1,,,,,,,,,,,,,,,,,,,,,,,
,,,,,V3_078,19,Female,2024-11-20_13h27.20.889,jersey_experiment_5_v3,2023.2.2,Win32,85.47008547,,,,,,,,,,,,,,,,701.1017,702.6475,702.6476,703.3436,return,0.1481,,66.015625,,,,,,FBP-OG-81.png,0.4,1.2,38,0.75,,,,,,,,,,,,,,,,,,0,21,21,37,1,,,,,,,,,,,,,,,,,,,,,,,
,,,,,V3_078,19,Female,2024-11-20_13h27.20.889,jersey_experiment_5_v3,2023.2.2,Win32,85.47008547,,,,,,,,,,,,,,,,703.3438,704.6504,704.6505,705.4591,return,0.1512,,74.08854167,,,,,,FBP-YG-19.png,0.4,1.2,13,0.5,,,,,,,,,,,,,,,,,,0,22,22,12,1,,,,,,,,,,,,,,,,,,,,,,,
,,,,,V3_078,19,Female,2024-11-20_13h27.20.889,jersey_experiment_5_v3,2023.2.2,Win32,85.47008547,,,,,,,,,,,,,,,,705.4593,707.0138,707.0138,707.6402,return,0.0936,,50.91145833,,,,,,FBP-OG-71.png,0.37,1.2,32,0.75,,,,,,,,,,,,,,,,,,0,23,23,31,1,,,,,,,,,,,,,,,,,,,,,,,
,,,,,V3_078,19,Female,2024-11-20_13h27.20.889,jersey_experiment_5_v3,2023.2.2,Win32,85.47008547,,,,,,,,,,,,,,,,707.6403,708.938,708.938,710.0972,return,0.0592,,60.80729167,,,,,,FBP-PT-91.png,0.4,1.2,28,0.5,,,,,,,,,,,,,,,,,,0,24,24,27,1,,,,,,,,,,,,,,,,,,,,,,,
,,,,,V3_078,19,Female,2024-11-20_13h27.20.889,jersey_experiment_5_v3,2023.2.2,Win32,85.47008547,,,,,,,,,,,,,,,,710.0974,711.4037,711.4037,712.3729,return,0.0978,,60.80729167,,,,,,FBP-YG-17.png,0.4,1.2,3,0.5,,,,,,,,,,,,,,,,,,0,25,25,2,1,,,,,,,,,,,,,,,,,,,,,,,
,,,,,V3_078,19,Female,2024-11-20_13h27.20.889,jersey_experiment_5_v3,2023.2.2,Win32,85.47008547,,,,,,,,,,,,,,,,712.3731,713.6654,713.6654,714.4909,return,0.074,,80.33854167,,,,,,FBP-YG-18.png,0.45,1.2,10,0.5,,,,,,,,,,,,,,,,,,0,26,26,9,1,,,,,,,,,,,,,,,,,,,,,,,
,,,,,V3_078,19,Female,2024-11-20_13h27.20.889,jersey_experiment_5_v3,2023.2.2,Win32,85.47008547,,,,,,,,,,,,,,,,714.4911,715.7796,715.7797,717.0128,return,0.0579,,41.27604167,,,,,,FBP-PT-91.png,0.37,1.2,27,0.5,,,,,,,,,,,,,,,,,,0,27,27,26,1,,,,,,,,,,,,,,,,,,,,,,,
,,,,,V3_078,19,Female,2024-11-20_13h27.20.889,jersey_experiment_5_v3,2023.2.2,Win32,85.47008547,,,,,,,,,,,,,,,,717.0129,718.3034,718.3034,719.5656,return,0.1134,,92.83854167,,,,,,FBP-YG-17.png,0.45,1.2,5,0.5,,,,,,,,,,,,,,,,,,0,28,28,4,1,,,,,,,,,,,,,,,,,,,,,,,
,,,,,V3_078,19,Female,2024-11-20_13h27.20.889,jersey_experiment_5_v3,2023.2.2,Win32,85.47008547,,,,,,,,,,,,,,,,719.5658,721.1132,721.1132,722.2519,return,0.1126,,35.9375,,,,,,FBP-OG-81.png,0.37,1.2,37,0.75,,,,,,,,,,,,,,,,,,0,29,29,36,1,,,,,,,,,,,,,,,,,,,,,,,
,,,,,V3_078,19,Female,2024-11-20_13h27.20.889,jersey_experiment_5_v3,2023.2.2,Win32,85.47008547,,,,,,,,,,,,,,,,722.2521,723.8014,723.8014,724.4432,return,0.1691,,24.86979167,,,,,,FBP-OG-91.png,0.37,1.2,42,0.75,,,,,,,,,,,,,,,,,,0,30,30,41,1,,,,,,,,,,,,,,,,,,,,,,,
,,,,,V3_078,19,Female,2024-11-20_13h27.20.889,jersey_experiment_5_v3,2023.2.2,Win32,85.47008547,,,,,,,,,,,,,,,,724.4433,725.7316,725.7317,726.8405,return,0.1279,,74.86979167,,,,,,FBP-YG-18.png,0.43,1.2,9,0.5,,,,,,,,,,,,,,,,,,0,31,31,8,1,,,,,,,,,,,,,,,,,,,,,,,
,,,,,V3_078,19,Female,2024-11-20_13h27.20.889,jersey_experiment_5_v3,2023.2.2,Win32,85.47008547,,,,,,,,,,,,,,,,726.8406,728.1408,728.1408,729.2267,return,0.1504,,27.08333333,,,,,,FBP-YG-18.png,0.35,1.2,6,0.5,,,,,,,,,,,,,,,,,,0,32,32,5,1,,,,,,,,,,,,,,,,,,,,,,,
,,,,,V3_078,19,Female,2024-11-20_13h27.20.889,jersey_experiment_5_v3,2023.2.2,Win32,85.47008547,,,,,,,,,,,,,,,,729.2269,730.5315,730.5316,731.5293,return,0.0772,,94.66145833,,,,,,FBP-PT-71.png,0.45,1.2,20,0.5,,,,,,,,,,,,,,,,,,0,33,33,19,1,,,,,,,,,,,,,,,,,,,,,,,
,,,,,V3_078,19,Female,2024-11-20_13h27.20.889,jersey_experiment_5_v3,2023.2.2,Win32,85.47008547,,,,,,,,,,,,,,,,731.5294,733.0872,733.0872,733.8765,return,0.2938,,98.30729167,,,,,,FBP-OG-91.png,0.45,1.2,45,0.75,,,,,,,,,,,,,,,,,,0,34,34,44,1,,,,,,,,,,,,,,,,,,,,,,,
,,,,,V3_078,19,Female,2024-11-20_13h27.20.889,jersey_experiment_5_v3,2023.2.2,Win32,85.47008547,,,,,,,,,,,,,,,,733.8767,735.1797,735.1798,735.784,return,0.1867,,98.30729167,,,,,,FBP-PT-81.png,0.45,1.2,25,0.5,,,,,,,,,,,,,,,,,,0,35,35,24,1,,,,,,,,,,,,,,,,,,,,,,,
,,,,,V3_078,19,Female,2024-11-20_13h27.20.889,jersey_experiment_5_v3,2023.2.2,Win32,85.47008547,,,,,,,,,,,,,,,,735.7841,737.3315,737.3315,738.3578,return,0.13,,87.63020833,,,,,,FBP-OG-71.png,0.43,1.2,34,0.75,,,,,,,,,,,,,,,,,,0,36,36,33,1,,,,,,,,,,,,,,,,,,,,,,,
,,,,,V3_078,19,Female,2024-11-20_13h27.20.889,jersey_experiment_5_v3,2023.2.2,Win32,85.47008547,,,,,,,,,,,,,,,,738.3579,739.653,739.653,740.9273,return,0.2425,,26.30208333,,,,,,FBP-RB-71.png,0.35,1.2,46,0.5,,,,,,,,,,,,,,,,,,0,37,37,45,1,,,,,,,,,,,,,,,,,,,,,,,
,,,,,V3_078,19,Female,2024-11-20_13h27.20.889,jersey_experiment_5_v3,2023.2.2,Win32,85.47008547,,,,,,,,,,,,,,,,740.9275,742.2248,742.2248,743.4755,return,0.0742,,62.23958333,,,,,,FBP-RB-91.png,0.43,1.2,59,0.5,,,,,,,,,,,,,,,,,,0,38,38,58,1,,,,,,,,,,,,,,,,,,,,,,,
,,,,,V3_078,19,Female,2024-11-20_13h27.20.889,jersey_experiment_5_v3,2023.2.2,Win32,85.47008547,,,,,,,,,,,,,,,,743.4757,744.7837,744.7838,746.6557,return,0.1135,,51.04166667,,,,,,FBP-YG-17.png,0.37,1.2,2,0.5,,,,,,,,,,,,,,,,,,0,39,39,1,1,,,,,,,,,,,,,,,,,,,,,,,
,,,,,V3_078,19,Female,2024-11-20_13h27.20.889,jersey_experiment_5_v3,2023.2.2,Win32,85.47008547,,,,,,,,,,,,,,,,746.6558,747.9503,747.9503,748.8525,return,0.0942,,36.84895833,,,,,,FBP-PT-81.png,0.37,1.2,22,0.5,,,,,,,,,,,,,,,,,,0,40,40,21,1,,,,,,,,,,,,,,,,,,,,,,,
,,,,,V3_078,19,Female,2024-11-20_13h27.20.889,jersey_experiment_5_v3,2023.2.2,Win32,85.47008547,,,,,,,,,,,,,,,,748.8526,750.1364,750.1364,751.1145,return,0.0951,,73.69791667,,,,,,FBP-PT-71.png,0.43,1.2,19,0.5,,,,,,,,,,,,,,,,,,0,41,41,18,1,,,,,,,,,,,,,,,,,,,,,,,
,,,,,V3_078,19,Female,2024-11-20_13h27.20.889,jersey_experiment_5_v3,2023.2.2,Win32,85.47008547,,,,,,,,,,,,,,,,751.1147,752.6522,752.6523,753.2595,return,0.185,,87.63020833,,,,,,FBP-OG-81.png,0.45,1.2,40,0.75,,,,,,,,,,,,,,,,,,0,42,42,39,1,,,,,,,,,,,,,,,,,,,,,,,
,,,,,V3_078,19,Female,2024-11-20_13h27.20.889,jersey_experiment_5_v3,2023.2.2,Win32,85.47008547,,,,,,,,,,,,,,,,753.2596,754.808,754.8081,755.563,return,0.1113,,30.72916667,,,,,,FBP-OG-91.png,0.4,1.2,43,0.75,,,,,,,,,,,,,,,,,,0,43,43,42,1,,,,,,,,,,,,,,,,,,,,,,,
,,,,,V3_078,19,Female,2024-11-20_13h27.20.889,jersey_experiment_5_v3,2023.2.2,Win32,85.47008547,,,,,,,,,,,,,,,,755.5631,757.1126,757.1126,757.8884,return,0.1479,,75.52083333,,,,,,FBP-OG-91.png,0.43,1.2,44,0.75,,,,,,,,,,,,,,,,,,0,44,44,43,1,,,,,,,,,,,,,,,,,,,,,,,
,,,,,V3_078,19,Female,2024-11-20_13h27.20.889,jersey_experiment_5_v3,2023.2.2,Win32,85.47008547,,,,,,,,,,,,,,,,757.8886,759.192,759.192,760.1482,return,0.1832,,49.34895833,,,,,,FBP-YG-19.png,0.37,1.2,12,0.5,,,,,,,,,,,,,,,,,,0,45,45,11,1,,,,,,,,,,,,,,,,,,,,,,,
,,,,,V3_078,19,Female,2024-11-20_13h27.20.889,jersey_experiment_5_v3,2023.2.2,Win32,85.47008547,,,,,,,,,,,,,,,,760.1483,761.688,761.688,762.396,return,0.1525,,27.08333333,,,,,,FBP-OG-91.png,0.35,1.2,41,0.75,,,,,,,,,,,,,,,,,,0,46,46,40,1,,,,,,,,,,,,,,,,,,,,,,,
,,,,,V3_078,19,Female,2024-11-20_13h27.20.889,jersey_experiment_5_v3,2023.2.2,Win32,85.47008547,,,,,,,,,,,,,,,,762.3962,763.6797,763.6797,764.7882,return,0.0567,,95.83333333,,,,,,FBP-PT-91.png,0.45,1.2,30,0.5,,,,,,,,,,,,,,,,,,0,47,47,29,1,,,,,,,,,,,,,,,,,,,,,,,
,,,,,V3_078,19,Female,2024-11-20_13h27.20.889,jersey_experiment_5_v3,2023.2.2,Win32,85.47008547,,,,,,,,,,,,,,,,764.7884,766.0842,766.0842,768.124,return,1.175,,67.44791667,,,,,,FBP-RB-91.png,0.35,1.2,56,0.5,,,,,,,,,,,,,,,,,,0,48,48,55,1,,,,,,,,,,,,,,,,,,,,,,,
,,,,,V3_078,19,Female,2024-11-20_13h27.20.889,jersey_experiment_5_v3,2023.2.2,Win32,85.47008547,,,,,,,,,,,,,,,,768.1241,769.4149,769.415,770.1092,return,0.0576,,73.17708333,,,,,,FBP-YG-18.png,0.4,1.2,8,0.5,,,,,,,,,,,,,,,,,,0,49,49,7,1,,,,,,,,,,,,,,,,,,,,,,,
,,,,,V3_078,19,Female,2024-11-20_13h27.20.889,jersey_experiment_5_v3,2023.2.2,Win32,85.47008547,,,,,,,,,,,,,,,,770.1093,771.417,771.417,772.3342,return,0.0934,,86.97916667,,,,,,FBP-PT-91.png,0.43,1.2,29,0.5,,,,,,,,,,,,,,,,,,0,50,50,28,1,,,,,,,,,,,,,,,,,,,,,,,
,,,,,V3_078,19,Female,2024-11-20_13h27.20.889,jersey_experiment_5_v3,2023.2.2,Win32,85.47008547,,,,,,,,,,,,,,,,772.3344,773.642,773.6421,774.6173,return,0.1159,,34.11458333,,,,,,FBP-PT-91.png,0.35,1.2,26,0.5,,,,,,,,,,,,,,,,,,0,51,51,25,1,,,,,,,,,,,,,,,,,,,,,,,
,,,,,V3_078,19,Female,2024-11-20_13h27.20.889,jersey_experiment_5_v3,2023.2.2,Win32,85.47008547,,,,,,,,,,,,,,,,774.6175,775.9121,775.9122,776.6139,return,0.0978,,21.875,,,,,,FBP-PT-71.png,0.35,1.2,16,0.5,,,,,,,,,,,,,,,,,,0,52,52,15,1,,,,,,,,,,,,,,,,,,,,,,,
,,,,,V3_078,19,Female,2024-11-20_13h27.20.889,jersey_experiment_5_v3,2023.2.2,Win32,85.47008547,,,,,,,,,,,,,,,,776.614,778.1676,778.1676,779.5489,return,0.0571,,49.86979167,,,,,,FBP-OG-71.png,0.4,1.2,33,0.75,,,,,,,,,,,,,,,,,,0,53,53,32,1,,,,,,,,,,,,,,,,,,,,,,,
,,,,,V3_078,19,Female,2024-11-20_13h27.20.889,jersey_experiment_5_v3,2023.2.2,Win32,85.47008547,,,,,,,,,,,,,,,,779.5492,781.1008,781.1009,782.8621,return,0.8537,,99.47916667,,,,,,FBP-OG-71.png,0.45,1.2,35,0.75,,,,,,,,,,,,,,,,,,0,54,54,34,1,,,,,,,,,,,,,,,,,,,,,,,
,,,,,V3_078,19,Female,2024-11-20_13h27.20.889,jersey_experiment_5_v3,2023.2.2,Win32,85.47008547,,,,,,,,,,,,,,,,782.8623,784.1663,784.1663,785.0524,return,0.0734,,78.125,,,,,,FBP-RB-81.png,0.4,1.2,53,0.5,,,,,,,,,,,,,,,,,,0,55,55,52,1,,,,,,,,,,,,,,,,,,,,,,,
,,,,,V3_078,19,Female,2024-11-20_13h27.20.889,jersey_experiment_5_v3,2023.2.2,Win32,85.47008547,,,,,,,,,,,,,,,,785.0527,786.3576,786.3576,787.0924,return,0.0782,,99.47916667,,,,,,FBP-RB-81.png,0.45,1.2,55,0.5,,,,,,,,,,,,,,,,,,0,56,56,54,1,,,,,,,,,,,,,,,,,,,,,,,
,,,,,V3_078,19,Female,2024-11-20_13h27.20.889,jersey_experiment_5_v3,2023.2.2,Win32,85.47008547,,,,,,,,,,,,,,,,787.0926,788.6417,788.6417,789.6118,return,0.1133,,25.13020833,,,,,,FBP-OG-71.png,0.35,1.2,31,0.75,,,,,,,,,,,,,,,,,,0,57,57,30,1,,,,,,,,,,,,,,,,,,,,,,,
,,,,,V3_078,19,Female,2024-11-20_13h27.20.889,jersey_experiment_5_v3,2023.2.2,Win32,85.47008547,,,,,,,,,,,,,,,,789.612,790.9044,790.9045,792.2512,return,0.1669,,89.84375,,,,,,FBP-RB-71.png,0.45,1.2,50,0.5,,,,,,,,,,,,,,,,,,0,58,58,49,1,,,,,,,,,,,,,,,,,,,,,,,
,,,,,V3_078,19,Female,2024-11-20_13h27.20.889,jersey_experiment_5_v3,2023.2.2,Win32,85.47008547,,,,,,,,,,,,,,,,792.2514,793.5345,793.5346,794.765,return,0.3696,,58.07291667,,,,,,FBP-YG-18.png,0.37,1.2,7,0.5,,,,,,,,,,,,,,,,,,0,59,59,6,1,,,,,,,,,,,,,,,,,,,,,,,
,,,,,V3_078,19,Female,2024-11-20_13h27.20.889,jersey_experiment_5_v3,2023.2.2,Win32,85.47008547,,,,,,,,,,,,,,,,,,,,,,,,,,,,,,,,,,,,,,,,,,,,,,,,,,,,,,,,794.7651,799.1635,return,4.3791,,,,,,,,,,,,,,,,,,,
,,,,,V3_078,19,Female,2024-11-20_13h27.20.889,jersey_experiment_5_v3,2023.2.2,Win32,85.47008547,,,,,,,,,,,,,,,,,,,,,,,,,,,,,,,,,,,,,,,,,,,,,,,,,,,,,,,,,,,,,799.1635,803.8975,1,3.8567,return,0.8599,,,,,,,,,,,,
,,,,,V3_078,19,Female,2024-11-20_13h27.20.889,jersey_experiment_5_v3,2023.2.2,Win32,85.47008547,,,,,,,,,,,,,,,,,,,,,,,,,,,,,,,,,,,,,,,,,,,,,,,,,,,,,,,,,,,,,,,,,,,,803.8976,874.508,I don't really know much about the study besides it being about the way we perceive things. I thought the images were pretty random. I didn't notice any patterns.,right,57.0383,,,,,,
,,,,,V3_078,19,Female,2024-11-20_13h27.20.889,jersey_experiment_5_v3,2023.2.2,Win32,85.47008547,,,,,,,,,,,,,,,,,,,,,,,,,,,,,,,,,,,,,,,,,,,,,,,,,,,,,,,,,,,,,,,,,,,,,,,,,,874.5081,879.1238,return,4.5977,