requirements.started,requirements.stopped,key_resp_3.keys,key_resp_3.rt,key_resp_3.duration,Subject ID,Age,Gender,date,expName,psychopyVersion,OS,frameRate,instructions1.started,instructions1.stopped,key_resp.keys,key_resp.rt,key_resp.duration,example.started,example.stopped,enter_2.keys,enter_2.rt,enter_2.duration,instructions2.started,instructions2.stopped,enter_3.keys,enter_3.rt,enter_3.duration,image.started,image.stopped,slider_2.started,slider_2.stopped,next.keys,next.rt,next.duration,slider.response,trial_block_1.thisRepN,trial_block_1.thisTrialN,trial_block_1.thisN,trial_block_1.thisIndex,trial_block_1.ran,Path,Width,Height,Index,Duration,trial_block_2.thisRepN,trial_block_2.thisTrialN,trial_block_2.thisN,trial_block_2.thisIndex,trial_block_2.ran,rest_break.started,rest_break.stopped,end_break.started,end_break.stopped,key_resp_5.keys,key_resp_5.rt,key_resp_5.duration,trial_block_3.thisRepN,trial_block_3.thisTrialN,trial_block_3.thisN,trial_block_3.thisIndex,trial_block_3.ran,trial_block_4.thisRepN,trial_block_4.thisTrialN,trial_block_4.thisN,trial_block_4.thisIndex,trial_block_4.ran,questions_intro.started,questions_intro.stopped,enter_12.keys,enter_12.rt,enter_12.duration,question2.started,question2.stopped,question_doingbest.response,question_doingbest.rt,enter_15.keys,enter_15.rt,enter_15.duration,pattern.started,pattern.stopped,pattern_2.text,enter_17.keys,enter_17.rt,enter_17.duration,thankyou.started,thankyou.stopped,enter_14.keys,enter_14.rt,enter_14.duration
1E-04,6.6629,return,6.6527,,V3_021,21,Female,2024-10-19_14h29.05.621,jersey_experiment_5_v3,2023.2.2,Win32,84.03361344,,,,,,,,,,,,,,,,,,,,,,,,,,,,,,,,,,,,,,,,,,,,,,,,,,,,,,,,,,,,,,,,,,,,,,,,,,,,,,
,,,,,V3_021,21,Female,2024-10-19_14h29.05.621,jersey_experiment_5_v3,2023.2.2,Win32,84.03361344,6.663,15.3574,return,8.6675,,,,,,,,,,,,,,,,,,,,,,,,,,,,,,,,,,,,,,,,,,,,,,,,,,,,,,,,,,,,,,,,,,,,,,,,,,
,,,,,V3_021,21,Female,2024-10-19_14h29.05.621,jersey_experiment_5_v3,2023.2.2,Win32,84.03361344,,,,,,15.3575,18.6632,return,3.2692,,,,,,,,,,,,,,,,,,,,,,,,,,,,,,,,,,,,,,,,,,,,,,,,,,,,,,,,,,,,,,,,,,,,,
,,,,,V3_021,21,Female,2024-10-19_14h29.05.621,jersey_experiment_5_v3,2023.2.2,Win32,84.03361344,,,,,,,,,,,18.6633,34.9228,return,16.2491,,,,,,,,,,,,,,,,,,,,,,,,,,,,,,,,,,,,,,,,,,,,,,,,,,,,,,,,,,,,,,,,
,,,,,V3_021,21,Female,2024-10-19_14h29.05.621,jersey_experiment_5_v3,2023.2.2,Win32,84.03361344,,,,,,,,,,,,,,,,34.9252,36.4758,36.4758,39.4286,return,1.3722,,64.19270833,0,0,0,4,1,FBP-YG-71.png,0.45,1.2,5,0.75,,,,,,,,,,,,,,,,,,,,,,,,,,,,,,,,,,,,,,,,,,,,,
,,,,,V3_021,21,Female,2024-10-19_14h29.05.621,jersey_experiment_5_v3,2023.2.2,Win32,84.03361344,,,,,,,,,,,,,,,,39.4288,40.9816,40.9817,43.0052,return,0.8103,,48.69791667,0,1,1,25,1,FBP-PT-19.png,0.35,1.2,26,0.75,,,,,,,,,,,,,,,,,,,,,,,,,,,,,,,,,,,,,,,,,,,,,
,,,,,V3_021,21,Female,2024-10-19_14h29.05.621,jersey_experiment_5_v3,2023.2.2,Win32,84.03361344,,,,,,,,,,,,,,,,43.0054,44.2994,44.2995,45.9465,return,1.0449,,48.69791667,0,2,2,40,1,FBP-OG-19.png,0.35,1.2,41,0.5,,,,,,,,,,,,,,,,,,,,,,,,,,,,,,,,,,,,,,,,,,,,,
,,,,,V3_021,21,Female,2024-10-19_14h29.05.621,jersey_experiment_5_v3,2023.2.2,Win32,84.03361344,,,,,,,,,,,,,,,,45.9467,47.4996,47.4996,49.1585,return,0.285,,65.234375,0,3,3,49,1,FBP-RB-17.png,0.45,1.2,50,0.75,,,,,,,,,,,,,,,,,,,,,,,,,,,,,,,,,,,,,,,,,,,,,
,,,,,V3_021,21,Female,2024-10-19_14h29.05.621,jersey_experiment_5_v3,2023.2.2,Win32,84.03361344,,,,,,,,,,,,,,,,49.1588,50.7115,50.7115,51.6526,return,0.466,,65.234375,0,4,4,9,1,FBP-YG-81.png,0.45,1.2,10,0.75,,,,,,,,,,,,,,,,,,,,,,,,,,,,,,,,,,,,,,,,,,,,,
,,,,,V3_021,21,Female,2024-10-19_14h29.05.621,jersey_experiment_5_v3,2023.2.2,Win32,84.03361344,,,,,,,,,,,,,,,,51.6529,53.2057,53.2058,54.6763,return,0.502,,53.64583333,0,5,5,26,1,FBP-PT-19.png,0.37,1.2,27,0.75,,,,,,,,,,,,,,,,,,,,,,,,,,,,,,,,,,,,,,,,,,,,,
,,,,,V3_021,21,Female,2024-10-19_14h29.05.621,jersey_experiment_5_v3,2023.2.2,Win32,84.03361344,,,,,,,,,,,,,,,,54.6765,56.2292,56.2292,56.9704,return,0.204,,53.64583333,0,6,6,46,1,FBP-RB-17.png,0.37,1.2,47,0.75,,,,,,,,,,,,,,,,,,,,,,,,,,,,,,,,,,,,,,,,,,,,,
,,,,,V3_021,21,Female,2024-10-19_14h29.05.621,jersey_experiment_5_v3,2023.2.2,Win32,84.03361344,,,,,,,,,,,,,,,,56.9708,58.5235,58.5235,61.2883,return,0.7331,,53.64583333,0,7,7,21,1,FBP-PT-18.png,0.37,1.2,22,0.75,,,,,,,,,,,,,,,,,,,,,,,,,,,,,,,,,,,,,,,,,,,,,
,,,,,V3_021,21,Female,2024-10-19_14h29.05.621,jersey_experiment_5_v3,2023.2.2,Win32,84.03361344,,,,,,,,,,,,,,,,61.2885,62.8296,62.8296,63.9236,return,0.4319,,68.22916667,0,8,8,53,1,FBP-RB-18.png,0.43,1.2,54,0.75,,,,,,,,,,,,,,,,,,,,,,,,,,,,,,,,,,,,,,,,,,,,,
,,,,,V3_021,21,Female,2024-10-19_14h29.05.621,jersey_experiment_5_v3,2023.2.2,Win32,84.03361344,,,,,,,,,,,,,,,,63.9238,65.4768,65.4768,66.8061,return,0.2394,,54.81770833,0,9,9,20,1,FBP-PT-18.png,0.35,1.2,21,0.75,,,,,,,,,,,,,,,,,,,,,,,,,,,,,,,,,,,,,,,,,,,,,
,,,,,V3_021,21,Female,2024-10-19_14h29.05.621,jersey_experiment_5_v3,2023.2.2,Win32,84.03361344,,,,,,,,,,,,,,,,66.8065,68.1002,68.1003,69.3358,return,0.2004,,60.41666667,0,10,10,33,1,FBP-OG-17.png,0.43,1.2,34,0.5,,,,,,,,,,,,,,,,,,,,,,,,,,,,,,,,,,,,,,,,,,,,,
,,,,,V3_021,21,Female,2024-10-19_14h29.05.621,jersey_experiment_5_v3,2023.2.2,Win32,84.03361344,,,,,,,,,,,,,,,,69.336,70.6298,70.6298,71.9005,return,0.4237,,58.984375,0,11,11,37,1,FBP-OG-18.png,0.4,1.2,38,0.5,,,,,,,,,,,,,,,,,,,,,,,,,,,,,,,,,,,,,,,,,,,,,
,,,,,V3_021,21,Female,2024-10-19_14h29.05.621,jersey_experiment_5_v3,2023.2.2,Win32,84.03361344,,,,,,,,,,,,,,,,71.9007,73.4535,73.4536,74.43,return,0.1795,,55.46875,0,12,12,10,1,FBP-YG-91.png,0.35,1.2,11,0.75,,,,,,,,,,,,,,,,,,,,,,,,,,,,,,,,,,,,,,,,,,,,,
,,,,,V3_021,21,Female,2024-10-19_14h29.05.621,jersey_experiment_5_v3,2023.2.2,Win32,84.03361344,,,,,,,,,,,,,,,,74.4303,75.9829,75.983,76.9007,return,0.1939,,53.125,0,13,13,6,1,FBP-YG-81.png,0.37,1.2,7,0.75,,,,,,,,,,,,,,,,,,,,,,,,,,,,,,,,,,,,,,,,,,,,,
,,,,,V3_021,21,Female,2024-10-19_14h29.05.621,jersey_experiment_5_v3,2023.2.2,Win32,84.03361344,,,,,,,,,,,,,,,,76.9009,78.4538,78.4538,79.0773,return,0.1479,,50.26041667,0,14,14,45,1,FBP-RB-17.png,0.35,1.2,46,0.75,,,,,,,,,,,,,,,,,,,,,,,,,,,,,,,,,,,,,,,,,,,,,
,,,,,V3_021,21,Female,2024-10-19_14h29.05.621,jersey_experiment_5_v3,2023.2.2,Win32,84.03361344,,,,,,,,,,,,,,,,79.0776,80.6302,80.6302,81.5125,return,0.2036,,58.59375,0,15,15,17,1,FBP-PT-17.png,0.4,1.2,18,0.75,,,,,,,,,,,,,,,,,,,,,,,,,,,,,,,,,,,,,,,,,,,,,
,,,,,V3_021,21,Female,2024-10-19_14h29.05.621,jersey_experiment_5_v3,2023.2.2,Win32,84.03361344,,,,,,,,,,,,,,,,81.5127,83.0656,83.0656,85.2305,return,1.4758,,61.19791667,0,16,16,7,1,FBP-YG-81.png,0.4,1.2,8,0.75,,,,,,,,,,,,,,,,,,,,,,,,,,,,,,,,,,,,,,,,,,,,,
,,,,,V3_021,21,Female,2024-10-19_14h29.05.621,jersey_experiment_5_v3,2023.2.2,Win32,84.03361344,,,,,,,,,,,,,,,,85.2307,86.5245,86.5246,87.4775,return,0.1478,,53.25520833,0,17,17,36,1,FBP-OG-18.png,0.37,1.2,37,0.5,,,,,,,,,,,,,,,,,,,,,,,,,,,,,,,,,,,,,,,,,,,,,
,,,,,V3_021,21,Female,2024-10-19_14h29.05.621,jersey_experiment_5_v3,2023.2.2,Win32,84.03361344,,,,,,,,,,,,,,,,87.4778,88.7717,88.7718,90.3718,return,0.2907,,55.59895833,0,18,18,44,1,FBP-OG-19.png,0.45,1.2,45,0.5,,,,,,,,,,,,,,,,,,,,,,,,,,,,,,,,,,,,,,,,,,,,,
,,,,,V3_021,21,Female,2024-10-19_14h29.05.621,jersey_experiment_5_v3,2023.2.2,Win32,84.03361344,,,,,,,,,,,,,,,,90.372,91.6659,91.666,92.4894,return,0.1672,,55.46875,0,19,19,39,1,FBP-OG-18.png,0.45,1.2,40,0.5,,,,,,,,,,,,,,,,,,,,,,,,,,,,,,,,,,,,,,,,,,,,,
,,,,,V3_021,21,Female,2024-10-19_14h29.05.621,jersey_experiment_5_v3,2023.2.2,Win32,84.03361344,,,,,,,,,,,,,,,,92.4897,94.0425,94.0425,94.5953,return,0.0753,,55.46875,0,20,20,58,1,FBP-RB-19.png,0.43,1.2,59,0.75,,,,,,,,,,,,,,,,,,,,,,,,,,,,,,,,,,,,,,,,,,,,,
,,,,,V3_021,21,Female,2024-10-19_14h29.05.621,jersey_experiment_5_v3,2023.2.2,Win32,84.03361344,,,,,,,,,,,,,,,,94.5957,96.1487,96.1487,97.2073,return,0.2835,,63.15104167,0,21,21,59,1,FBP-RB-19.png,0.45,1.2,60,0.75,,,,,,,,,,,,,,,,,,,,,,,,,,,,,,,,,,,,,,,,,,,,,
,,,,,V3_021,21,Female,2024-10-19_14h29.05.621,jersey_experiment_5_v3,2023.2.2,Win32,84.03361344,,,,,,,,,,,,,,,,97.2076,98.7602,98.7602,99.7485,return,0.3487,,60.15625,0,22,22,3,1,FBP-YG-71.png,0.43,1.2,4,0.75,,,,,,,,,,,,,,,,,,,,,,,,,,,,,,,,,,,,,,,,,,,,,
,,,,,V3_021,21,Female,2024-10-19_14h29.05.621,jersey_experiment_5_v3,2023.2.2,Win32,84.03361344,,,,,,,,,,,,,,,,99.7488,101.0427,101.0427,102.3133,return,0.165,,64.84375,0,23,23,34,1,FBP-OG-17.png,0.45,1.2,35,0.5,,,,,,,,,,,,,,,,,,,,,,,,,,,,,,,,,,,,,,,,,,,,,
,,,,,V3_021,21,Female,2024-10-19_14h29.05.621,jersey_experiment_5_v3,2023.2.2,Win32,84.03361344,,,,,,,,,,,,,,,,102.3136,103.6075,103.6076,104.7959,return,0.385,,59.50520833,0,24,24,38,1,FBP-OG-18.png,0.43,1.2,39,0.5,,,,,,,,,,,,,,,,,,,,,,,,,,,,,,,,,,,,,,,,,,,,,
,,,,,V3_021,21,Female,2024-10-19_14h29.05.621,jersey_experiment_5_v3,2023.2.2,Win32,84.03361344,,,,,,,,,,,,,,,,104.7962,106.3488,106.3489,107.6077,return,0.7539,,59.50520833,0,25,25,18,1,FBP-PT-17.png,0.43,1.2,19,0.75,,,,,,,,,,,,,,,,,,,,,,,,,,,,,,,,,,,,,,,,,,,,,
,,,,,V3_021,21,Female,2024-10-19_14h29.05.621,jersey_experiment_5_v3,2023.2.2,Win32,84.03361344,,,,,,,,,,,,,,,,107.6079,109.1607,109.1607,110.5841,return,0.8355,,54.55729167,0,26,26,11,1,FBP-YG-91.png,0.37,1.2,12,0.75,,,,,,,,,,,,,,,,,,,,,,,,,,,,,,,,,,,,,,,,,,,,,
,,,,,V3_021,21,Female,2024-10-19_14h29.05.621,jersey_experiment_5_v3,2023.2.2,Win32,84.03361344,,,,,,,,,,,,,,,,110.5843,112.1372,112.1373,115.2081,return,1.9795,,60.9375,0,27,27,23,1,FBP-PT-18.png,0.43,1.2,24,0.75,,,,,,,,,,,,,,,,,,,,,,,,,,,,,,,,,,,,,,,,,,,,,
,,,,,V3_021,21,Female,2024-10-19_14h29.05.621,jersey_experiment_5_v3,2023.2.2,Win32,84.03361344,,,,,,,,,,,,,,,,115.2083,116.761,116.761,119.8317,return,0.9088,,56.51041667,0,28,28,51,1,FBP-RB-18.png,0.37,1.2,52,0.75,,,,,,,,,,,,,,,,,,,,,,,,,,,,,,,,,,,,,,,,,,,,,
,,,,,V3_021,21,Female,2024-10-19_14h29.05.621,jersey_experiment_5_v3,2023.2.2,Win32,84.03361344,,,,,,,,,,,,,,,,119.8319,121.3848,121.3848,122.2201,return,0.1811,,47.52604167,0,29,29,2,1,FBP-YG-71.png,0.4,1.2,3,0.75,,,,,,,,,,,,,,,,,,,,,,,,,,,,,,,,,,,,,,,,,,,,,
,,,,,V3_021,21,Female,2024-10-19_14h29.05.621,jersey_experiment_5_v3,2023.2.2,Win32,84.03361344,,,,,,,,,,,,,,,,122.2203,123.5141,123.5141,124.1376,return,0.073,,49.34895833,0,30,30,41,1,FBP-OG-19.png,0.37,1.2,42,0.5,,,,,,,,,,,,,,,,,,,,,,,,,,,,,,,,,,,,,,,,,,,,,
,,,,,V3_021,21,Female,2024-10-19_14h29.05.621,jersey_experiment_5_v3,2023.2.2,Win32,84.03361344,,,,,,,,,,,,,,,,124.138,125.4319,125.4319,126.279,return,0.2034,,52.99479167,0,31,31,42,1,FBP-OG-19.png,0.4,1.2,43,0.5,,,,,,,,,,,,,,,,,,,,,,,,,,,,,,,,,,,,,,,,,,,,,
,,,,,V3_021,21,Female,2024-10-19_14h29.05.621,jersey_experiment_5_v3,2023.2.2,Win32,84.03361344,,,,,,,,,,,,,,,,126.2792,127.832,127.832,128.5496,return,0.1204,,56.11979167,0,32,32,48,1,FBP-RB-17.png,0.43,1.2,49,0.75,,,,,,,,,,,,,,,,,,,,,,,,,,,,,,,,,,,,,,,,,,,,,
,,,,,V3_021,21,Female,2024-10-19_14h29.05.621,jersey_experiment_5_v3,2023.2.2,Win32,84.03361344,,,,,,,,,,,,,,,,128.5498,130.1026,130.1026,130.9733,return,0.212,,56.77083333,0,33,33,13,1,FBP-YG-91.png,0.43,1.2,14,0.75,,,,,,,,,,,,,,,,,,,,,,,,,,,,,,,,,,,,,,,,,,,,,
,,,,,V3_021,21,Female,2024-10-19_14h29.05.621,jersey_experiment_5_v3,2023.2.2,Win32,84.03361344,,,,,,,,,,,,,,,,130.9735,132.5264,132.5264,133.3733,return,0.1406,,48.95833333,0,34,34,0,1,FBP-YG-71.png,0.35,1.2,1,0.75,,,,,,,,,,,,,,,,,,,,,,,,,,,,,,,,,,,,,,,,,,,,,
,,,,,V3_021,21,Female,2024-10-19_14h29.05.621,jersey_experiment_5_v3,2023.2.2,Win32,84.03361344,,,,,,,,,,,,,,,,133.3736,134.6674,134.6675,135.2086,return,0.1099,,48.17708333,0,35,35,35,1,FBP-OG-18.png,0.35,1.2,36,0.5,,,,,,,,,,,,,,,,,,,,,,,,,,,,,,,,,,,,,,,,,,,,,
,,,,,V3_021,21,Female,2024-10-19_14h29.05.621,jersey_experiment_5_v3,2023.2.2,Win32,84.03361344,,,,,,,,,,,,,,,,135.2088,136.7501,136.7501,137.4794,return,0.1691,,52.34375,0,36,36,8,1,FBP-YG-81.png,0.43,1.2,9,0.75,,,,,,,,,,,,,,,,,,,,,,,,,,,,,,,,,,,,,,,,,,,,,
,,,,,V3_021,21,Female,2024-10-19_14h29.05.621,jersey_experiment_5_v3,2023.2.2,Win32,84.03361344,,,,,,,,,,,,,,,,137.4796,138.7736,138.7736,139.5265,return,0.0525,,48.30729167,0,37,37,31,1,FBP-OG-17.png,0.37,1.2,32,0.5,,,,,,,,,,,,,,,,,,,,,,,,,,,,,,,,,,,,,,,,,,,,,
,,,,,V3_021,21,Female,2024-10-19_14h29.05.621,jersey_experiment_5_v3,2023.2.2,Win32,84.03361344,,,,,,,,,,,,,,,,139.5267,141.0796,141.0796,141.7384,return,0.1059,,57.29166667,0,38,38,27,1,FBP-PT-19.png,0.4,1.2,28,0.75,,,,,,,,,,,,,,,,,,,,,,,,,,,,,,,,,,,,,,,,,,,,,
,,,,,V3_021,21,Female,2024-10-19_14h29.05.621,jersey_experiment_5_v3,2023.2.2,Win32,84.03361344,,,,,,,,,,,,,,,,141.7385,143.2915,143.2915,143.6914,return,0.1888,,56.640625,0,39,39,56,1,FBP-RB-19.png,0.37,1.2,57,0.75,,,,,,,,,,,,,,,,,,,,,,,,,,,,,,,,,,,,,,,,,,,,,
,,,,,V3_021,21,Female,2024-10-19_14h29.05.621,jersey_experiment_5_v3,2023.2.2,Win32,84.03361344,,,,,,,,,,,,,,,,143.6916,145.2446,145.2446,146.021,return,0.1332,,51.953125,0,40,40,5,1,FBP-YG-81.png,0.35,1.2,6,0.75,,,,,,,,,,,,,,,,,,,,,,,,,,,,,,,,,,,,,,,,,,,,,
,,,,,V3_021,21,Female,2024-10-19_14h29.05.621,jersey_experiment_5_v3,2023.2.2,Win32,84.03361344,,,,,,,,,,,,,,,,146.0213,147.5741,147.5741,148.3741,return,0.1551,,63.80208333,0,41,41,19,1,FBP-PT-17.png,0.45,1.2,20,0.75,,,,,,,,,,,,,,,,,,,,,,,,,,,,,,,,,,,,,,,,,,,,,
,,,,,V3_021,21,Female,2024-10-19_14h29.05.621,jersey_experiment_5_v3,2023.2.2,Win32,84.03361344,,,,,,,,,,,,,,,,148.3744,149.927,149.9271,150.5388,return,0.0819,,58.59375,0,42,42,52,1,FBP-RB-18.png,0.4,1.2,53,0.75,,,,,,,,,,,,,,,,,,,,,,,,,,,,,,,,,,,,,,,,,,,,,
,,,,,V3_021,21,Female,2024-10-19_14h29.05.621,jersey_experiment_5_v3,2023.2.2,Win32,84.03361344,,,,,,,,,,,,,,,,150.5392,152.0918,152.0919,152.7624,return,0.1335,,59.24479167,0,43,43,12,1,FBP-YG-91.png,0.4,1.2,13,0.75,,,,,,,,,,,,,,,,,,,,,,,,,,,,,,,,,,,,,,,,,,,,,
,,,,,V3_021,21,Female,2024-10-19_14h29.05.621,jersey_experiment_5_v3,2023.2.2,Win32,84.03361344,,,,,,,,,,,,,,,,152.7627,154.3154,154.3154,155.3153,return,0.1581,,67.578125,0,44,44,29,1,FBP-PT-19.png,0.45,1.2,30,0.75,,,,,,,,,,,,,,,,,,,,,,,,,,,,,,,,,,,,,,,,,,,,,
,,,,,V3_021,21,Female,2024-10-19_14h29.05.621,jersey_experiment_5_v3,2023.2.2,Win32,84.03361344,,,,,,,,,,,,,,,,155.3155,156.8684,156.8684,157.4683,return,0.1334,,66.40625,0,45,45,47,1,FBP-RB-17.png,0.4,1.2,48,0.75,,,,,,,,,,,,,,,,,,,,,,,,,,,,,,,,,,,,,,,,,,,,,
,,,,,V3_021,21,Female,2024-10-19_14h29.05.621,jersey_experiment_5_v3,2023.2.2,Win32,84.03361344,,,,,,,,,,,,,,,,157.4686,159.0216,159.0216,159.9744,return,0.2277,,50.65104167,0,46,46,15,1,FBP-PT-17.png,0.35,1.2,16,0.75,,,,,,,,,,,,,,,,,,,,,,,,,,,,,,,,,,,,,,,,,,,,,
,,,,,V3_021,21,Female,2024-10-19_14h29.05.621,jersey_experiment_5_v3,2023.2.2,Win32,84.03361344,,,,,,,,,,,,,,,,159.9746,161.2685,161.2686,161.9274,return,0.1693,,50.390625,0,47,47,30,1,FBP-OG-17.png,0.35,1.2,31,0.5,,,,,,,,,,,,,,,,,,,,,,,,,,,,,,,,,,,,,,,,,,,,,
,,,,,V3_021,21,Female,2024-10-19_14h29.05.621,jersey_experiment_5_v3,2023.2.2,Win32,84.03361344,,,,,,,,,,,,,,,,161.9277,163.4804,163.4805,164.1157,return,0.1128,,64.84375,0,48,48,14,1,FBP-YG-91.png,0.45,1.2,15,0.75,,,,,,,,,,,,,,,,,,,,,,,,,,,,,,,,,,,,,,,,,,,,,
,,,,,V3_021,21,Female,2024-10-19_14h29.05.621,jersey_experiment_5_v3,2023.2.2,Win32,84.03361344,,,,,,,,,,,,,,,,164.1159,165.6688,165.6689,166.3393,return,0.171,,57.16145833,0,49,49,50,1,FBP-RB-18.png,0.35,1.2,51,0.75,,,,,,,,,,,,,,,,,,,,,,,,,,,,,,,,,,,,,,,,,,,,,
,,,,,V3_021,21,Female,2024-10-19_14h29.05.621,jersey_experiment_5_v3,2023.2.2,Win32,84.03361344,,,,,,,,,,,,,,,,166.3396,167.8925,167.8925,168.6689,return,0.1203,,69.140625,0,50,50,28,1,FBP-PT-19.png,0.43,1.2,29,0.75,,,,,,,,,,,,,,,,,,,,,,,,,,,,,,,,,,,,,,,,,,,,,
,,,,,V3_021,21,Female,2024-10-19_14h29.05.621,jersey_experiment_5_v3,2023.2.2,Win32,84.03361344,,,,,,,,,,,,,,,,168.6691,170.2219,170.222,170.8454,return,0.023,,66.27604167,0,51,51,57,1,FBP-RB-19.png,0.4,1.2,58,0.75,,,,,,,,,,,,,,,,,,,,,,,,,,,,,,,,,,,,,,,,,,,,,
,,,,,V3_021,21,Female,2024-10-19_14h29.05.621,jersey_experiment_5_v3,2023.2.2,Win32,84.03361344,,,,,,,,,,,,,,,,170.8455,172.1395,172.1395,172.81,return,0.0842,,56.25,0,52,52,32,1,FBP-OG-17.png,0.4,1.2,33,0.5,,,,,,,,,,,,,,,,,,,,,,,,,,,,,,,,,,,,,,,,,,,,,
,,,,,V3_021,21,Female,2024-10-19_14h29.05.621,jersey_experiment_5_v3,2023.2.2,Win32,84.03361344,,,,,,,,,,,,,,,,172.8103,174.3633,174.3633,174.9515,return,0.0635,,46.35416667,0,53,53,1,1,FBP-YG-71.png,0.37,1.2,2,0.75,,,,,,,,,,,,,,,,,,,,,,,,,,,,,,,,,,,,,,,,,,,,,
,,,,,V3_021,21,Female,2024-10-19_14h29.05.621,jersey_experiment_5_v3,2023.2.2,Win32,84.03361344,,,,,,,,,,,,,,,,174.9517,176.5046,176.5047,177.3868,return,0.2441,,66.27604167,0,54,54,54,1,FBP-RB-18.png,0.45,1.2,55,0.75,,,,,,,,,,,,,,,,,,,,,,,,,,,,,,,,,,,,,,,,,,,,,
,,,,,V3_021,21,Female,2024-10-19_14h29.05.621,jersey_experiment_5_v3,2023.2.2,Win32,84.03361344,,,,,,,,,,,,,,,,177.3871,178.94,178.94,179.5399,return,0.1141,,51.30208333,0,55,55,16,1,FBP-PT-17.png,0.37,1.2,17,0.75,,,,,,,,,,,,,,,,,,,,,,,,,,,,,,,,,,,,,,,,,,,,,
,,,,,V3_021,21,Female,2024-10-19_14h29.05.621,jersey_experiment_5_v3,2023.2.2,Win32,84.03361344,,,,,,,,,,,,,,,,179.5401,180.834,180.8341,181.9163,return,0.1337,,66.66666667,0,56,56,43,1,FBP-OG-19.png,0.43,1.2,44,0.5,,,,,,,,,,,,,,,,,,,,,,,,,,,,,,,,,,,,,,,,,,,,,
,,,,,V3_021,21,Female,2024-10-19_14h29.05.621,jersey_experiment_5_v3,2023.2.2,Win32,84.03361344,,,,,,,,,,,,,,,,181.9166,183.4695,183.4696,184.0577,return,0.0858,,58.33333333,0,57,57,22,1,FBP-PT-18.png,0.4,1.2,23,0.75,,,,,,,,,,,,,,,,,,,,,,,,,,,,,,,,,,,,,,,,,,,,,
,,,,,V3_021,21,Female,2024-10-19_14h29.05.621,jersey_experiment_5_v3,2023.2.2,Win32,84.03361344,,,,,,,,,,,,,,,,184.0578,185.6107,185.6107,186.3165,return,0.0605,,67.31770833,0,58,58,24,1,FBP-PT-18.png,0.45,1.2,25,0.75,,,,,,,,,,,,,,,,,,,,,,,,,,,,,,,,,,,,,,,,,,,,,
,,,,,V3_021,21,Female,2024-10-19_14h29.05.621,jersey_experiment_5_v3,2023.2.2,Win32,84.03361344,,,,,,,,,,,,,,,,186.3167,187.8696,187.8697,188.6225,return,0.1196,,51.69270833,0,59,59,55,1,FBP-RB-19.png,0.35,1.2,56,0.75,,,,,,,,,,,,,,,,,,,,,,,,,,,,,,,,,,,,,,,,,,,,,
,,,,,V3_021,21,Female,2024-10-19_14h29.05.621,jersey_experiment_5_v3,2023.2.2,Win32,84.03361344,,,,,,,,,,,,,,,,188.6244,189.9166,189.9167,190.4696,return,0.1007,,56.51041667,,,,,,FBP-OG-91.png,0.4,1.2,43,0.5,0,0,0,42,1,,,,,,,,,,,,,,,,,,,,,,,,,,,,,,,,,,,,,,,,
,,,,,V3_021,21,Female,2024-10-19_14h29.05.621,jersey_experiment_5_v3,2023.2.2,Win32,84.03361344,,,,,,,,,,,,,,,,190.4698,192.0227,192.0228,192.6343,return,0.1194,,62.23958333,,,,,,FBP-YG-17.png,0.43,1.2,4,0.75,0,1,1,3,1,,,,,,,,,,,,,,,,,,,,,,,,,,,,,,,,,,,,,,,,
,,,,,V3_021,21,Female,2024-10-19_14h29.05.621,jersey_experiment_5_v3,2023.2.2,Win32,84.03361344,,,,,,,,,,,,,,,,192.6345,194.1757,194.1758,195.2109,return,0.4394,,50.78125,,,,,,FBP-YG-17.png,0.37,1.2,2,0.75,0,2,2,1,1,,,,,,,,,,,,,,,,,,,,,,,,,,,,,,,,,,,,,,,,
,,,,,V3_021,21,Female,2024-10-19_14h29.05.621,jersey_experiment_5_v3,2023.2.2,Win32,84.03361344,,,,,,,,,,,,,,,,195.211,196.764,196.764,197.8698,return,0.5549,,54.94791667,,,,,,FBP-PT-91.png,0.4,1.2,28,0.75,0,3,3,27,1,,,,,,,,,,,,,,,,,,,,,,,,,,,,,,,,,,,,,,,,
,,,,,V3_021,21,Female,2024-10-19_14h29.05.621,jersey_experiment_5_v3,2023.2.2,Win32,84.03361344,,,,,,,,,,,,,,,,197.8702,199.423,199.423,200.517,return,0.5247,,64.58333333,,,,,,FBP-YG-19.png,0.45,1.2,15,0.75,0,4,4,14,1,,,,,,,,,,,,,,,,,,,,,,,,,,,,,,,,,,,,,,,,
,,,,,V3_021,21,Female,2024-10-19_14h29.05.621,jersey_experiment_5_v3,2023.2.2,Win32,84.03361344,,,,,,,,,,,,,,,,200.5172,201.8113,201.8114,203.0113,return,0.5498,,53.38541667,,,,,,FBP-OG-91.png,0.35,1.2,41,0.5,0,5,5,40,1,,,,,,,,,,,,,,,,,,,,,,,,,,,,,,,,,,,,,,,,
,,,,,V3_021,21,Female,2024-10-19_14h29.05.621,jersey_experiment_5_v3,2023.2.2,Win32,84.03361344,,,,,,,,,,,,,,,,203.0114,204.5645,204.5646,205.7879,return,0.5648,,50.26041667,,,,,,FBP-YG-19.png,0.37,1.2,12,0.75,0,6,6,11,1,,,,,,,,,,,,,,,,,,,,,,,,,,,,,,,,,,,,,,,,
,,,,,V3_021,21,Female,2024-10-19_14h29.05.621,jersey_experiment_5_v3,2023.2.2,Win32,84.03361344,,,,,,,,,,,,,,,,205.7882,207.3408,207.3408,208.7645,return,0.3216,,59.50520833,,,,,,FBP-RB-81.png,0.45,1.2,55,0.75,0,7,7,54,1,,,,,,,,,,,,,,,,,,,,,,,,,,,,,,,,,,,,,,,,
,,,,,V3_021,21,Female,2024-10-19_14h29.05.621,jersey_experiment_5_v3,2023.2.2,Win32,84.03361344,,,,,,,,,,,,,,,,208.7647,210.3178,210.3178,211.694,return,0.8107,,70.96354167,,,,,,FBP-YG-17.png,0.45,1.2,5,0.75,0,8,8,4,1,,,,,,,,,,,,,,,,,,,,,,,,,,,,,,,,,,,,,,,,
,,,,,V3_021,21,Female,2024-10-19_14h29.05.621,jersey_experiment_5_v3,2023.2.2,Win32,84.03361344,,,,,,,,,,,,,,,,211.6942,213.247,213.247,214.1882,return,0.1045,,65.75520833,,,,,,FBP-PT-81.png,0.45,1.2,25,0.75,0,9,9,24,1,,,,,,,,,,,,,,,,,,,,,,,,,,,,,,,,,,,,,,,,
,,,,,V3_021,21,Female,2024-10-19_14h29.05.621,jersey_experiment_5_v3,2023.2.2,Win32,84.03361344,,,,,,,,,,,,,,,,214.1883,215.4823,215.4824,216.812,return,0.7678,,59.63541667,,,,,,FBP-OG-71.png,0.45,1.2,35,0.5,0,10,10,34,1,,,,,,,,,,,,,,,,,,,,,,,,,,,,,,,,,,,,,,,,
,,,,,V3_021,21,Female,2024-10-19_14h29.05.621,jersey_experiment_5_v3,2023.2.2,Win32,84.03361344,,,,,,,,,,,,,,,,216.8122,218.365,218.365,219.0589,return,0.1113,,52.21354167,,,,,,FBP-RB-91.png,0.35,1.2,56,0.75,0,11,11,55,1,,,,,,,,,,,,,,,,,,,,,,,,,,,,,,,,,,,,,,,,
,,,,,V3_021,21,Female,2024-10-19_14h29.05.621,jersey_experiment_5_v3,2023.2.2,Win32,84.03361344,,,,,,,,,,,,,,,,219.0591,220.3531,220.3532,221.0591,return,0.1369,,52.21354167,,,,,,FBP-OG-71.png,0.35,1.2,31,0.5,0,12,12,30,1,,,,,,,,,,,,,,,,,,,,,,,,,,,,,,,,,,,,,,,,
,,,,,V3_021,21,Female,2024-10-19_14h29.05.621,jersey_experiment_5_v3,2023.2.2,Win32,84.03361344,,,,,,,,,,,,,,,,221.0594,222.3532,222.3533,223.1296,return,0.128,,59.89583333,,,,,,FBP-OG-81.png,0.43,1.2,39,0.5,0,13,13,38,1,,,,,,,,,,,,,,,,,,,,,,,,,,,,,,,,,,,,,,,,
,,,,,V3_021,21,Female,2024-10-19_14h29.05.621,jersey_experiment_5_v3,2023.2.2,Win32,84.03361344,,,,,,,,,,,,,,,,223.1299,224.4238,224.4238,225.0474,return,0.048,,66.27604167,,,,,,FBP-OG-71.png,0.43,1.2,34,0.5,0,14,14,33,1,,,,,,,,,,,,,,,,,,,,,,,,,,,,,,,,,,,,,,,,
,,,,,V3_021,21,Female,2024-10-19_14h29.05.621,jersey_experiment_5_v3,2023.2.2,Win32,84.03361344,,,,,,,,,,,,,,,,225.0477,226.6005,226.6005,227.5416,return,0.1828,,63.80208333,,,,,,FBP-RB-81.png,0.4,1.2,53,0.75,0,15,15,52,1,,,,,,,,,,,,,,,,,,,,,,,,,,,,,,,,,,,,,,,,
,,,,,V3_021,21,Female,2024-10-19_14h29.05.621,jersey_experiment_5_v3,2023.2.2,Win32,84.03361344,,,,,,,,,,,,,,,,227.5418,229.0947,229.0947,229.8356,return,0.1962,,59.375,,,,,,FBP-PT-81.png,0.4,1.2,23,0.75,0,16,16,22,1,,,,,,,,,,,,,,,,,,,,,,,,,,,,,,,,,,,,,,,,
,,,,,V3_021,21,Female,2024-10-19_14h29.05.621,jersey_experiment_5_v3,2023.2.2,Win32,84.03361344,,,,,,,,,,,,,,,,229.8359,231.1301,231.1302,231.8594,return,0.1131,,61.06770833,,,,,,FBP-OG-71.png,0.4,1.2,33,0.5,0,17,17,32,1,,,,,,,,,,,,,,,,,,,,,,,,,,,,,,,,,,,,,,,,
,,,,,V3_021,21,Female,2024-10-19_14h29.05.621,jersey_experiment_5_v3,2023.2.2,Win32,84.03361344,,,,,,,,,,,,,,,,231.8595,233.1535,233.1536,233.9301,return,0.0962,,54.296875,,,,,,FBP-OG-71.png,0.37,1.2,32,0.5,0,18,18,31,1,,,,,,,,,,,,,,,,,,,,,,,,,,,,,,,,,,,,,,,,
,,,,,V3_021,21,Female,2024-10-19_14h29.05.621,jersey_experiment_5_v3,2023.2.2,Win32,84.03361344,,,,,,,,,,,,,,,,233.9304,235.4831,235.4831,236.0713,return,0.1064,,51.04166667,,,,,,FBP-YG-19.png,0.35,1.2,11,0.75,0,19,19,10,1,,,,,,,,,,,,,,,,,,,,,,,,,,,,,,,,,,,,,,,,
,,,,,V3_021,21,Female,2024-10-19_14h29.05.621,jersey_experiment_5_v3,2023.2.2,Win32,84.03361344,,,,,,,,,,,,,,,,236.0714,237.6128,237.6128,238.1657,return,0.1084,,52.99479167,,,,,,FBP-RB-71.png,0.35,1.2,46,0.75,0,20,20,45,1,,,,,,,,,,,,,,,,,,,,,,,,,,,,,,,,,,,,,,,,
,,,,,V3_021,21,Female,2024-10-19_14h29.05.621,jersey_experiment_5_v3,2023.2.2,Win32,84.03361344,,,,,,,,,,,,,,,,238.1661,239.7185,239.7185,240.3422,return,0.1118,,52.47395833,,,,,,FBP-YG-17.png,0.35,1.2,1,0.75,0,21,21,0,1,,,,,,,,,,,,,,,,,,,,,,,,,,,,,,,,,,,,,,,,
,,,,,V3_021,21,Female,2024-10-19_14h29.05.621,jersey_experiment_5_v3,2023.2.2,Win32,84.03361344,,,,,,,,,,,,,,,,240.3424,241.895,241.895,243.0009,return,0.6355,,58.46354167,,,,,,FBP-RB-81.png,0.43,1.2,54,0.75,0,22,22,53,1,,,,,,,,,,,,,,,,,,,,,,,,,,,,,,,,,,,,,,,,
,,,,,V3_021,21,Female,2024-10-19_14h29.05.621,jersey_experiment_5_v3,2023.2.2,Win32,84.03361344,,,,,,,,,,,,,,,,243.0012,244.5541,244.5541,245.3541,return,0.4012,,57.421875,,,,,,FBP-PT-71.png,0.37,1.2,17,0.75,0,23,23,16,1,,,,,,,,,,,,,,,,,,,,,,,,,,,,,,,,,,,,,,,,
,,,,,V3_021,21,Female,2024-10-19_14h29.05.621,jersey_experiment_5_v3,2023.2.2,Win32,84.03361344,,,,,,,,,,,,,,,,245.3544,246.907,246.9072,247.966,return,0.4467,,54.94791667,,,,,,FBP-RB-91.png,0.37,1.2,57,0.75,0,24,24,56,1,,,,,,,,,,,,,,,,,,,,,,,,,,,,,,,,,,,,,,,,
,,,,,V3_021,21,Female,2024-10-19_14h29.05.621,jersey_experiment_5_v3,2023.2.2,Win32,84.03361344,,,,,,,,,,,,,,,,247.9661,249.5189,249.519,251.0013,return,0.6039,,54.94791667,,,,,,FBP-RB-71.png,0.4,1.2,48,0.75,0,25,25,47,1,,,,,,,,,,,,,,,,,,,,,,,,,,,,,,,,,,,,,,,,
,,,,,V3_021,21,Female,2024-10-19_14h29.05.621,jersey_experiment_5_v3,2023.2.2,Win32,84.03361344,,,,,,,,,,,,,,,,251.0015,252.5546,252.5547,253.7072,return,0.4501,,65.10416667,,,,,,FBP-PT-91.png,0.45,1.2,30,0.75,0,26,26,29,1,,,,,,,,,,,,,,,,,,,,,,,,,,,,,,,,,,,,,,,,
,,,,,V3_021,21,Female,2024-10-19_14h29.05.621,jersey_experiment_5_v3,2023.2.2,Win32,84.03361344,,,,,,,,,,,,,,,,253.7075,255.2603,255.2605,256.1663,return,0.5313,,65.10416667,,,,,,FBP-YG-18.png,0.45,1.2,10,0.75,0,27,27,9,1,,,,,,,,,,,,,,,,,,,,,,,,,,,,,,,,,,,,,,,,
,,,,,V3_021,21,Female,2024-10-19_14h29.05.621,jersey_experiment_5_v3,2023.2.2,Win32,84.03361344,,,,,,,,,,,,,,,,256.1665,257.7192,257.7192,258.9075,return,0.5571,,51.04166667,,,,,,FBP-PT-71.png,0.35,1.2,16,0.75,0,28,28,15,1,,,,,,,,,,,,,,,,,,,,,,,,,,,,,,,,,,,,,,,,
,,,,,V3_021,21,Female,2024-10-19_14h29.05.621,jersey_experiment_5_v3,2023.2.2,Win32,84.03361344,,,,,,,,,,,,,,,,258.9077,260.4605,260.4605,261.3546,return,0.5444,,51.04166667,,,,,,FBP-YG-18.png,0.35,1.2,6,0.75,0,29,29,5,1,,,,,,,,,,,,,,,,,,,,,,,,,,,,,,,,,,,,,,,,
,,,,,V3_021,21,Female,2024-10-19_14h29.05.621,jersey_experiment_5_v3,2023.2.2,Win32,84.03361344,,,,,,,,,,,,,,,,261.3547,262.9078,262.9078,263.9665,return,0.4232,,63.671875,,,,,,FBP-RB-71.png,0.45,1.2,50,0.75,0,30,30,49,1,,,,,,,,,,,,,,,,,,,,,,,,,,,,,,,,,,,,,,,,
,,,,,V3_021,21,Female,2024-10-19_14h29.05.621,jersey_experiment_5_v3,2023.2.2,Win32,84.03361344,,,,,,,,,,,,,,,,263.9667,265.5197,265.5197,266.6137,return,0.5234,,67.31770833,,,,,,FBP-RB-91.png,0.45,1.2,60,0.75,0,31,31,59,1,,,,,,,,,,,,,,,,,,,,,,,,,,,,,,,,,,,,,,,,
,,,,,V3_021,21,Female,2024-10-19_14h29.05.621,jersey_experiment_5_v3,2023.2.2,Win32,84.03361344,,,,,,,,,,,,,,,,266.6138,268.1669,268.167,269.4138,return,0.5712,,48.30729167,,,,,,FBP-RB-81.png,0.35,1.2,51,0.75,0,32,32,50,1,,,,,,,,,,,,,,,,,,,,,,,,,,,,,,,,,,,,,,,,
,,,,,V3_021,21,Female,2024-10-19_14h29.05.621,jersey_experiment_5_v3,2023.2.2,Win32,84.03361344,,,,,,,,,,,,,,,,269.4141,270.9668,270.9668,272.0845,return,0.4035,,56.51041667,,,,,,FBP-YG-17.png,0.4,1.2,3,0.75,0,33,33,2,1,,,,,,,,,,,,,,,,,,,,,,,,,,,,,,,,,,,,,,,,
,,,,,V3_021,21,Female,2024-10-19_14h29.05.621,jersey_experiment_5_v3,2023.2.2,Win32,84.03361344,,,,,,,,,,,,,,,,272.0847,273.3786,273.3787,274.5082,return,0.4967,,53.90625,,,,,,FBP-OG-91.png,0.37,1.2,42,0.5,0,34,34,41,1,,,,,,,,,,,,,,,,,,,,,,,,,,,,,,,,,,,,,,,,
,,,,,V3_021,21,Female,2024-10-19_14h29.05.621,jersey_experiment_5_v3,2023.2.2,Win32,84.03361344,,,,,,,,,,,,,,,,274.5084,276.0495,276.0496,277.6728,return,0.9081,,53.38541667,,,,,,FBP-PT-91.png,0.37,1.2,27,0.75,0,35,35,26,1,,,,,,,,,,,,,,,,,,,,,,,,,,,,,,,,,,,,,,,,
,,,,,V3_021,21,Female,2024-10-19_14h29.05.621,jersey_experiment_5_v3,2023.2.2,Win32,84.03361344,,,,,,,,,,,,,,,,277.6732,279.2261,279.2261,280.2496,return,0.4947,,63.41145833,,,,,,FBP-PT-81.png,0.43,1.2,24,0.75,0,36,36,23,1,,,,,,,,,,,,,,,,,,,,,,,,,,,,,,,,,,,,,,,,
,,,,,V3_021,21,Female,2024-10-19_14h29.05.621,jersey_experiment_5_v3,2023.2.2,Win32,84.03361344,,,,,,,,,,,,,,,,280.2498,281.8027,281.8028,283.0849,return,0.5648,,62.5,,,,,,FBP-RB-91.png,0.4,1.2,58,0.75,0,37,37,57,1,,,,,,,,,,,,,,,,,,,,,,,,,,,,,,,,,,,,,,,,
,,,,,V3_021,21,Female,2024-10-19_14h29.05.621,jersey_experiment_5_v3,2023.2.2,Win32,84.03361344,,,,,,,,,,,,,,,,283.0855,284.379,284.3791,285.0379,return,0.1266,,61.84895833,,,,,,FBP-OG-91.png,0.43,1.2,44,0.5,0,38,38,43,1,,,,,,,,,,,,,,,,,,,,,,,,,,,,,,,,,,,,,,,,
,,,,,V3_021,21,Female,2024-10-19_14h29.05.621,jersey_experiment_5_v3,2023.2.2,Win32,84.03361344,,,,,,,,,,,,,,,,285.0381,286.591,286.5911,287.3087,return,0.0484,,64.97395833,,,,,,FBP-RB-71.png,0.43,1.2,49,0.75,0,39,39,48,1,,,,,,,,,,,,,,,,,,,,,,,,,,,,,,,,,,,,,,,,
,,,,,V3_021,21,Female,2024-10-19_14h29.05.621,jersey_experiment_5_v3,2023.2.2,Win32,84.03361344,,,,,,,,,,,,,,,,287.309,288.6027,288.6027,289.2263,return,0.0331,,61.45833333,,,,,,FBP-OG-81.png,0.35,1.2,36,0.5,0,40,40,35,1,,,,,,,,,,,,,,,,,,,,,,,,,,,,,,,,,,,,,,,,
,,,,,V3_021,21,Female,2024-10-19_14h29.05.621,jersey_experiment_5_v3,2023.2.2,Win32,84.03361344,,,,,,,,,,,,,,,,289.2265,290.7792,290.7793,291.2733,return,0.1302,,61.45833333,,,,,,FBP-RB-71.png,0.37,1.2,47,0.75,0,41,41,46,1,,,,,,,,,,,,,,,,,,,,,,,,,,,,,,,,,,,,,,,,
,,,,,V3_021,21,Female,2024-10-19_14h29.05.621,jersey_experiment_5_v3,2023.2.2,Win32,84.03361344,,,,,,,,,,,,,,,,291.2735,292.8263,292.8264,293.6028,return,0.2208,,52.34375,,,,,,FBP-YG-18.png,0.37,1.2,7,0.75,0,42,42,6,1,,,,,,,,,,,,,,,,,,,,,,,,,,,,,,,,,,,,,,,,
,,,,,V3_021,21,Female,2024-10-19_14h29.05.621,jersey_experiment_5_v3,2023.2.2,Win32,84.03361344,,,,,,,,,,,,,,,,293.6031,295.156,295.156,295.9442,return,0.086,,56.640625,,,,,,FBP-PT-91.png,0.35,1.2,26,0.75,0,43,43,25,1,,,,,,,,,,,,,,,,,,,,,,,,,,,,,,,,,,,,,,,,
,,,,,V3_021,21,Female,2024-10-19_14h29.05.621,jersey_experiment_5_v3,2023.2.2,Win32,84.03361344,,,,,,,,,,,,,,,,295.9444,297.2385,297.2385,297.862,return,0.1239,,60.15625,,,,,,FBP-OG-81.png,0.4,1.2,38,0.5,0,44,44,37,1,,,,,,,,,,,,,,,,,,,,,,,,,,,,,,,,,,,,,,,,
,,,,,V3_021,21,Female,2024-10-19_14h29.05.621,jersey_experiment_5_v3,2023.2.2,Win32,84.03361344,,,,,,,,,,,,,,,,297.8622,299.415,299.4151,299.9796,return,0.0796,,53.38541667,,,,,,FBP-PT-81.png,0.37,1.2,22,0.75,0,45,45,21,1,,,,,,,,,,,,,,,,,,,,,,,,,,,,,,,,,,,,,,,,
,,,,,V3_021,21,Female,2024-10-19_14h29.05.621,jersey_experiment_5_v3,2023.2.2,Win32,84.03361344,,,,,,,,,,,,,,,,299.9799,301.2739,301.274,301.8973,return,0.0459,,59.50520833,,,,,,FBP-OG-81.png,0.37,1.2,37,0.5,0,46,46,36,1,,,,,,,,,,,,,,,,,,,,,,,,,,,,,,,,,,,,,,,,
,,,,,V3_021,21,Female,2024-10-19_14h29.05.621,jersey_experiment_5_v3,2023.2.2,Win32,84.03361344,,,,,,,,,,,,,,,,301.8976,303.4506,303.4506,304.0031,return,0.088,,63.54166667,,,,,,FBP-RB-91.png,0.43,1.2,59,0.75,0,47,47,58,1,,,,,,,,,,,,,,,,,,,,,,,,,,,,,,,,,,,,,,,,
,,,,,V3_021,21,Female,2024-10-19_14h29.05.621,jersey_experiment_5_v3,2023.2.2,Win32,84.03361344,,,,,,,,,,,,,,,,304.0033,305.5445,305.5446,306.0856,return,0.1123,,59.765625,,,,,,FBP-PT-71.png,0.45,1.2,20,0.75,0,48,48,19,1,,,,,,,,,,,,,,,,,,,,,,,,,,,,,,,,,,,,,,,,
,,,,,V3_021,21,Female,2024-10-19_14h29.05.621,jersey_experiment_5_v3,2023.2.2,Win32,84.03361344,,,,,,,,,,,,,,,,306.0858,307.627,307.6271,308.2269,return,0.0309,,63.02083333,,,,,,FBP-PT-91.png,0.43,1.2,29,0.75,0,49,49,28,1,,,,,,,,,,,,,,,,,,,,,,,,,,,,,,,,,,,,,,,,
,,,,,V3_021,21,Female,2024-10-19_14h29.05.621,jersey_experiment_5_v3,2023.2.2,Win32,84.03361344,,,,,,,,,,,,,,,,308.227,309.78,309.78,310.2859,return,0.0943,,63.15104167,,,,,,FBP-PT-71.png,0.4,1.2,18,0.75,0,50,50,17,1,,,,,,,,,,,,,,,,,,,,,,,,,,,,,,,,,,,,,,,,
,,,,,V3_021,21,Female,2024-10-19_14h29.05.621,jersey_experiment_5_v3,2023.2.2,Win32,84.03361344,,,,,,,,,,,,,,,,310.2861,311.5801,311.5801,312.439,return,0.1422,,69.40104167,,,,,,FBP-OG-81.png,0.45,1.2,40,0.5,0,51,51,39,1,,,,,,,,,,,,,,,,,,,,,,,,,,,,,,,,,,,,,,,,
,,,,,V3_021,21,Female,2024-10-19_14h29.05.621,jersey_experiment_5_v3,2023.2.2,Win32,84.03361344,,,,,,,,,,,,,,,,312.4391,313.9803,313.9804,315.0508,return,0.2141,,55.72916667,,,,,,FBP-RB-81.png,0.37,1.2,52,0.75,0,52,52,51,1,,,,,,,,,,,,,,,,,,,,,,,,,,,,,,,,,,,,,,,,
,,,,,V3_021,21,Female,2024-10-19_14h29.05.621,jersey_experiment_5_v3,2023.2.2,Win32,84.03361344,,,,,,,,,,,,,,,,315.0511,316.604,316.604,317.2037,return,0.079,,49.21875,,,,,,FBP-PT-81.png,0.35,1.2,21,0.75,0,53,53,20,1,,,,,,,,,,,,,,,,,,,,,,,,,,,,,,,,,,,,,,,,
,,,,,V3_021,21,Female,2024-10-19_14h29.05.621,jersey_experiment_5_v3,2023.2.2,Win32,84.03361344,,,,,,,,,,,,,,,,317.2039,318.4982,318.4982,319.3804,return,0.2629,,69.01041667,,,,,,FBP-OG-91.png,0.45,1.2,45,0.5,0,54,54,44,1,,,,,,,,,,,,,,,,,,,,,,,,,,,,,,,,,,,,,,,,
,,,,,V3_021,21,Female,2024-10-19_14h29.05.621,jersey_experiment_5_v3,2023.2.2,Win32,84.03361344,,,,,,,,,,,,,,,,319.3805,320.9334,320.9334,321.7335,return,0.2301,,62.109375,,,,,,FBP-YG-19.png,0.4,1.2,13,0.75,0,55,55,12,1,,,,,,,,,,,,,,,,,,,,,,,,,,,,,,,,,,,,,,,,
,,,,,V3_021,21,Female,2024-10-19_14h29.05.621,jersey_experiment_5_v3,2023.2.2,Win32,84.03361344,,,,,,,,,,,,,,,,321.7337,323.2863,323.2864,324.2512,return,0.1098,,57.16145833,,,,,,FBP-YG-18.png,0.4,1.2,8,0.75,0,56,56,7,1,,,,,,,,,,,,,,,,,,,,,,,,,,,,,,,,,,,,,,,,
,,,,,V3_021,21,Female,2024-10-19_14h29.05.621,jersey_experiment_5_v3,2023.2.2,Win32,84.03361344,,,,,,,,,,,,,,,,324.2513,325.804,325.8041,327.5925,return,0.1441,,59.765625,,,,,,FBP-YG-18.png,0.43,1.2,9,0.75,0,57,57,8,1,,,,,,,,,,,,,,,,,,,,,,,,,,,,,,,,,,,,,,,,
,,,,,V3_021,21,Female,2024-10-19_14h29.05.621,jersey_experiment_5_v3,2023.2.2,Win32,84.03361344,,,,,,,,,,,,,,,,327.5927,329.1454,329.1455,329.6749,return,0.0092,,62.23958333,,,,,,FBP-YG-19.png,0.43,1.2,14,0.75,0,58,58,13,1,,,,,,,,,,,,,,,,,,,,,,,,,,,,,,,,,,,,,,,,
,,,,,V3_021,21,Female,2024-10-19_14h29.05.621,jersey_experiment_5_v3,2023.2.2,Win32,84.03361344,,,,,,,,,,,,,,,,329.6751,331.2279,331.2281,331.722,return,0.0804,,69.40104167,,,,,,FBP-PT-71.png,0.43,1.2,19,0.75,0,59,59,18,1,,,,,,,,,,,,,,,,,,,,,,,,,,,,,,,,,,,,,,,,
,,,,,V3_021,21,Female,2024-10-19_14h29.05.621,jersey_experiment_5_v3,2023.2.2,Win32,84.03361344,,,,,,,,,,,,,,,,,,,,,,,,,,,,,,,,,,,,,,,331.7222,451.715,,,,,,,,,,,,,,,,,,,,,,,,,,,,,,,,,,,,,,
,,,,,V3_021,21,Female,2024-10-19_14h29.05.621,jersey_experiment_5_v3,2023.2.2,Win32,84.03361344,,,,,,,,,,,,,,,,,,,,,,,,,,,,,,,,,,,,,,,,,451.7151,453.0444,return,1.3238,,,,,,,,,,,,,,,,,,,,,,,,,,,,,,,,,,
,,,,,V3_021,21,Female,2024-10-19_14h29.05.621,jersey_experiment_5_v3,2023.2.2,Win32,84.03361344,,,,,,,,,,,,,,,,453.0459,454.5973,454.5974,455.8443,return,0.37,,53.90625,,,,,,FBP-OG-18.png,0.37,1.2,37,0.75,,,,,,,,,,,,,0,0,0,36,1,,,,,,,,,,,,,,,,,,,,,,,,,,,,
,,,,,V3_021,21,Female,2024-10-19_14h29.05.621,jersey_experiment_5_v3,2023.2.2,Win32,84.03361344,,,,,,,,,,,,,,,,455.8445,457.1384,457.1385,458.1033,return,0.2949,,62.76041667,,,,,,FBP-YG-71.png,0.4,1.2,3,0.5,,,,,,,,,,,,,0,1,1,2,1,,,,,,,,,,,,,,,,,,,,,,,,,,,,
,,,,,V3_021,21,Female,2024-10-19_14h29.05.621,jersey_experiment_5_v3,2023.2.2,Win32,84.03361344,,,,,,,,,,,,,,,,458.1034,459.3974,459.3975,460.4445,return,0.2568,,68.61979167,,,,,,FBP-YG-81.png,0.45,1.2,10,0.5,,,,,,,,,,,,,0,2,2,9,1,,,,,,,,,,,,,,,,,,,,,,,,,,,,
,,,,,V3_021,21,Female,2024-10-19_14h29.05.621,jersey_experiment_5_v3,2023.2.2,Win32,84.03361344,,,,,,,,,,,,,,,,460.4446,461.9975,461.9976,462.6328,return,0.0731,,60.02604167,,,,,,FBP-OG-19.png,0.43,1.2,44,0.75,,,,,,,,,,,,,0,3,3,43,1,,,,,,,,,,,,,,,,,,,,,,,,,,,,
,,,,,V3_021,21,Female,2024-10-19_14h29.05.621,jersey_experiment_5_v3,2023.2.2,Win32,84.03361344,,,,,,,,,,,,,,,,462.6331,463.927,463.927,464.4211,return,0.076,,62.36979167,,,,,,FBP-YG-81.png,0.43,1.2,9,0.5,,,,,,,,,,,,,0,4,4,8,1,,,,,,,,,,,,,,,,,,,,,,,,,,,,
,,,,,V3_021,21,Female,2024-10-19_14h29.05.621,jersey_experiment_5_v3,2023.2.2,Win32,84.03361344,,,,,,,,,,,,,,,,464.4214,465.7153,465.7153,466.2212,return,0.1023,,63.41145833,,,,,,FBP-RB-17.png,0.37,1.2,47,0.5,,,,,,,,,,,,,0,5,5,46,1,,,,,,,,,,,,,,,,,,,,,,,,,,,,
,,,,,V3_021,21,Female,2024-10-19_14h29.05.621,jersey_experiment_5_v3,2023.2.2,Win32,84.03361344,,,,,,,,,,,,,,,,466.2213,467.5154,467.5155,468.5859,return,0.5562,,67.83854167,,,,,,FBP-RB-17.png,0.45,1.2,50,0.5,,,,,,,,,,,,,0,6,6,49,1,,,,,,,,,,,,,,,,,,,,,,,,,,,,
,,,,,V3_021,21,Female,2024-10-19_14h29.05.621,jersey_experiment_5_v3,2023.2.2,Win32,84.03361344,,,,,,,,,,,,,,,,468.5861,469.8801,469.8801,470.4565,return,0.1679,,65.625,,,,,,FBP-PT-18.png,0.43,1.2,24,0.5,,,,,,,,,,,,,0,7,7,23,1,,,,,,,,,,,,,,,,,,,,,,,,,,,,
,,,,,V3_021,21,Female,2024-10-19_14h29.05.621,jersey_experiment_5_v3,2023.2.2,Win32,84.03361344,,,,,,,,,,,,,,,,470.4568,471.7507,471.7508,472.6685,return,0.1651,,57.94270833,,,,,,FBP-YG-71.png,0.35,1.2,1,0.5,,,,,,,,,,,,,0,8,8,0,1,,,,,,,,,,,,,,,,,,,,,,,,,,,,
,,,,,V3_021,21,Female,2024-10-19_14h29.05.621,jersey_experiment_5_v3,2023.2.2,Win32,84.03361344,,,,,,,,,,,,,,,,472.6687,473.9626,473.9626,474.5038,return,0.038,,67.31770833,,,,,,FBP-PT-17.png,0.43,1.2,19,0.5,,,,,,,,,,,,,0,9,9,18,1,,,,,,,,,,,,,,,,,,,,,,,,,,,,
,,,,,V3_021,21,Female,2024-10-19_14h29.05.621,jersey_experiment_5_v3,2023.2.2,Win32,84.03361344,,,,,,,,,,,,,,,,474.504,475.798,475.7981,476.2804,return,0.0394,,62.76041667,,,,,,FBP-PT-17.png,0.4,1.2,18,0.5,,,,,,,,,,,,,0,10,10,17,1,,,,,,,,,,,,,,,,,,,,,,,,,,,,
,,,,,V3_021,21,Female,2024-10-19_14h29.05.621,jersey_experiment_5_v3,2023.2.2,Win32,84.03361344,,,,,,,,,,,,,,,,476.2806,477.5746,477.5746,478.1039,return,0.0513,,60.02604167,,,,,,FBP-YG-81.png,0.37,1.2,7,0.5,,,,,,,,,,,,,0,11,11,6,1,,,,,,,,,,,,,,,,,,,,,,,,,,,,
,,,,,V3_021,21,Female,2024-10-19_14h29.05.621,jersey_experiment_5_v3,2023.2.2,Win32,84.03361344,,,,,,,,,,,,,,,,478.1041,479.3981,479.3982,480.0453,return,0.204,,60.546875,,,,,,FBP-RB-17.png,0.4,1.2,48,0.5,,,,,,,,,,,,,0,12,12,47,1,,,,,,,,,,,,,,,,,,,,,,,,,,,,
,,,,,V3_021,21,Female,2024-10-19_14h29.05.621,jersey_experiment_5_v3,2023.2.2,Win32,84.03361344,,,,,,,,,,,,,,,,480.0456,481.5984,481.5984,482.1042,return,0.0613,,57.03125,,,,,,FBP-OG-17.png,0.35,1.2,31,0.75,,,,,,,,,,,,,0,13,13,30,1,,,,,,,,,,,,,,,,,,,,,,,,,,,,
,,,,,V3_021,21,Female,2024-10-19_14h29.05.621,jersey_experiment_5_v3,2023.2.2,Win32,84.03361344,,,,,,,,,,,,,,,,482.1044,483.6572,483.6572,484.1983,return,0.0984,,56.51041667,,,,,,FBP-OG-19.png,0.4,1.2,43,0.75,,,,,,,,,,,,,0,14,14,42,1,,,,,,,,,,,,,,,,,,,,,,,,,,,,
,,,,,V3_021,21,Female,2024-10-19_14h29.05.621,jersey_experiment_5_v3,2023.2.2,Win32,84.03361344,,,,,,,,,,,,,,,,484.1986,485.4925,485.4926,486.116,return,0.1372,,60.41666667,,,,,,FBP-YG-71.png,0.43,1.2,4,0.5,,,,,,,,,,,,,0,15,15,3,1,,,,,,,,,,,,,,,,,,,,,,,,,,,,
,,,,,V3_021,21,Female,2024-10-19_14h29.05.621,jersey_experiment_5_v3,2023.2.2,Win32,84.03361344,,,,,,,,,,,,,,,,486.1163,487.4105,487.4106,487.8926,return,0.0309,,64.58333333,,,,,,FBP-RB-19.png,0.45,1.2,60,0.5,,,,,,,,,,,,,0,16,16,59,1,,,,,,,,,,,,,,,,,,,,,,,,,,,,
,,,,,V3_021,21,Female,2024-10-19_14h29.05.621,jersey_experiment_5_v3,2023.2.2,Win32,84.03361344,,,,,,,,,,,,,,,,487.8929,489.1867,489.1867,490.1515,return,0.0517,,53.90625,,,,,,FBP-PT-17.png,0.35,1.2,16,0.5,,,,,,,,,,,,,0,17,17,15,1,,,,,,,,,,,,,,,,,,,,,,,,,,,,
,,,,,V3_021,21,Female,2024-10-19_14h29.05.621,jersey_experiment_5_v3,2023.2.2,Win32,84.03361344,,,,,,,,,,,,,,,,490.1517,491.4455,491.4456,492.1987,return,0.2172,,58.984375,,,,,,FBP-RB-18.png,0.45,1.2,55,0.5,,,,,,,,,,,,,0,18,18,54,1,,,,,,,,,,,,,,,,,,,,,,,,,,,,
,,,,,V3_021,21,Female,2024-10-19_14h29.05.621,jersey_experiment_5_v3,2023.2.2,Win32,84.03361344,,,,,,,,,,,,,,,,492.199,493.4929,493.493,494.0692,return,0.0422,,53.125,,,,,,FBP-RB-17.png,0.35,1.2,46,0.5,,,,,,,,,,,,,0,19,19,45,1,,,,,,,,,,,,,,,,,,,,,,,,,,,,
,,,,,V3_021,21,Female,2024-10-19_14h29.05.621,jersey_experiment_5_v3,2023.2.2,Win32,84.03361344,,,,,,,,,,,,,,,,494.0693,495.3635,495.3635,495.7871,return,0.0149,,61.328125,,,,,,FBP-YG-91.png,0.4,1.2,13,0.5,,,,,,,,,,,,,0,20,20,12,1,,,,,,,,,,,,,,,,,,,,,,,,,,,,
,,,,,V3_021,21,Female,2024-10-19_14h29.05.621,jersey_experiment_5_v3,2023.2.2,Win32,84.03361344,,,,,,,,,,,,,,,,495.7872,497.0812,497.0812,497.5165,return,0.0086,,62.890625,,,,,,FBP-PT-18.png,0.4,1.2,23,0.5,,,,,,,,,,,,,0,21,21,22,1,,,,,,,,,,,,,,,,,,,,,,,,,,,,
,,,,,V3_021,21,Female,2024-10-19_14h29.05.621,jersey_experiment_5_v3,2023.2.2,Win32,84.03361344,,,,,,,,,,,,,,,,497.5168,498.8106,498.8107,499.4343,return,0.0608,,61.84895833,,,,,,FBP-RB-18.png,0.4,1.2,53,0.5,,,,,,,,,,,,,0,22,22,52,1,,,,,,,,,,,,,,,,,,,,,,,,,,,,
,,,,,V3_021,21,Female,2024-10-19_14h29.05.621,jersey_experiment_5_v3,2023.2.2,Win32,84.03361344,,,,,,,,,,,,,,,,499.4345,500.7283,500.7283,501.2694,return,0.0652,,65.234375,,,,,,FBP-YG-91.png,0.45,1.2,15,0.5,,,,,,,,,,,,,0,23,23,14,1,,,,,,,,,,,,,,,,,,,,,,,,,,,,
,,,,,V3_021,21,Female,2024-10-19_14h29.05.621,jersey_experiment_5_v3,2023.2.2,Win32,84.03361344,,,,,,,,,,,,,,,,501.2696,502.5638,502.5638,503.9638,return,0.1011,,51.953125,,,,,,FBP-RB-19.png,0.35,1.2,56,0.5,,,,,,,,,,,,,0,24,24,55,1,,,,,,,,,,,,,,,,,,,,,,,,,,,,
,,,,,V3_021,21,Female,2024-10-19_14h29.05.621,jersey_experiment_5_v3,2023.2.2,Win32,84.03361344,,,,,,,,,,,,,,,,503.964,505.2581,505.2581,505.9639,return,0.1176,,67.44791667,,,,,,FBP-YG-91.png,0.43,1.2,14,0.5,,,,,,,,,,,,,0,25,25,13,1,,,,,,,,,,,,,,,,,,,,,,,,,,,,
,,,,,V3_021,21,Female,2024-10-19_14h29.05.621,jersey_experiment_5_v3,2023.2.2,Win32,84.03361344,,,,,,,,,,,,,,,,505.9643,507.258,507.258,508.164,return,0.0435,,63.41145833,,,,,,FBP-RB-17.png,0.43,1.2,49,0.5,,,,,,,,,,,,,0,26,26,48,1,,,,,,,,,,,,,,,,,,,,,,,,,,,,
,,,,,V3_021,21,Female,2024-10-19_14h29.05.621,jersey_experiment_5_v3,2023.2.2,Win32,84.03361344,,,,,,,,,,,,,,,,508.1642,509.7169,509.7169,510.2345,return,0.3313,,60.15625,,,,,,FBP-OG-18.png,0.4,1.2,38,0.75,,,,,,,,,,,,,0,27,27,37,1,,,,,,,,,,,,,,,,,,,,,,,,,,,,
,,,,,V3_021,21,Female,2024-10-19_14h29.05.621,jersey_experiment_5_v3,2023.2.2,Win32,84.03361344,,,,,,,,,,,,,,,,510.2347,511.7877,511.7877,512.3288,return,0.0156,,53.515625,,,,,,FBP-OG-17.png,0.37,1.2,32,0.75,,,,,,,,,,,,,0,28,28,31,1,,,,,,,,,,,,,,,,,,,,,,,,,,,,
,,,,,V3_021,21,Female,2024-10-19_14h29.05.621,jersey_experiment_5_v3,2023.2.2,Win32,84.03361344,,,,,,,,,,,,,,,,512.329,513.623,513.623,514.7877,return,0.581,,52.734375,,,,,,FBP-PT-18.png,0.37,1.2,22,0.5,,,,,,,,,,,,,0,29,29,21,1,,,,,,,,,,,,,,,,,,,,,,,,,,,,
,,,,,V3_021,21,Female,2024-10-19_14h29.05.621,jersey_experiment_5_v3,2023.2.2,Win32,84.03361344,,,,,,,,,,,,,,,,514.7879,516.3409,516.3409,517.082,return,0.0476,,48.17708333,,,,,,FBP-OG-19.png,0.35,1.2,41,0.75,,,,,,,,,,,,,0,30,30,40,1,,,,,,,,,,,,,,,,,,,,,,,,,,,,
,,,,,V3_021,21,Female,2024-10-19_14h29.05.621,jersey_experiment_5_v3,2023.2.2,Win32,84.03361344,,,,,,,,,,,,,,,,517.0822,518.3761,518.3762,519.0467,return,0.0037,,67.1875,,,,,,FBP-PT-19.png,0.43,1.2,29,0.5,,,,,,,,,,,,,0,31,31,28,1,,,,,,,,,,,,,,,,,,,,,,,,,,,,
,,,,,V3_021,21,Female,2024-10-19_14h29.05.621,jersey_experiment_5_v3,2023.2.2,Win32,84.03361344,,,,,,,,,,,,,,,,519.047,520.341,520.341,521.3645,return,0.145,,59.50520833,,,,,,FBP-YG-71.png,0.37,1.2,2,0.5,,,,,,,,,,,,,0,32,32,1,1,,,,,,,,,,,,,,,,,,,,,,,,,,,,
,,,,,V3_021,21,Female,2024-10-19_14h29.05.621,jersey_experiment_5_v3,2023.2.2,Win32,84.03361344,,,,,,,,,,,,,,,,521.3646,522.6587,522.6587,523.2703,return,0.0409,,63.93229167,,,,,,FBP-RB-19.png,0.4,1.2,58,0.5,,,,,,,,,,,,,0,33,33,57,1,,,,,,,,,,,,,,,,,,,,,,,,,,,,
,,,,,V3_021,21,Female,2024-10-19_14h29.05.621,jersey_experiment_5_v3,2023.2.2,Win32,84.03361344,,,,,,,,,,,,,,,,523.2704,524.5645,524.5646,526.1645,return,0.0192,,49.34895833,,,,,,FBP-RB-18.png,0.35,1.2,51,0.5,,,,,,,,,,,,,0,34,34,50,1,,,,,,,,,,,,,,,,,,,,,,,,,,,,
,,,,,V3_021,21,Female,2024-10-19_14h29.05.621,jersey_experiment_5_v3,2023.2.2,Win32,84.03361344,,,,,,,,,,,,,,,,526.1646,527.7058,527.7059,528.0706,return,0.143,,49.34895833,,,,,,FBP-OG-18.png,0.35,1.2,36,0.75,,,,,,,,,,,,,0,35,35,35,1,,,,,,,,,,,,,,,,,,,,,,,,,,,,
,,,,,V3_021,21,Female,2024-10-19_14h29.05.621,jersey_experiment_5_v3,2023.2.2,Win32,84.03361344,,,,,,,,,,,,,,,,528.0708,529.3647,529.3648,529.9177,return,0.0475,,49.34895833,,,,,,FBP-YG-91.png,0.35,1.2,11,0.5,,,,,,,,,,,,,0,36,36,10,1,,,,,,,,,,,,,,,,,,,,,,,,,,,,
,,,,,V3_021,21,Female,2024-10-19_14h29.05.621,jersey_experiment_5_v3,2023.2.2,Win32,84.03361344,,,,,,,,,,,,,,,,529.918,531.4707,531.4707,531.9413,return,0.0147,,67.96875,,,,,,FBP-OG-17.png,0.45,1.2,35,0.75,,,,,,,,,,,,,0,37,37,34,1,,,,,,,,,,,,,,,,,,,,,,,,,,,,
,,,,,V3_021,21,Female,2024-10-19_14h29.05.621,jersey_experiment_5_v3,2023.2.2,Win32,84.03361344,,,,,,,,,,,,,,,,531.9415,533.2356,533.2356,533.6943,return,0.015,,56.90104167,,,,,,FBP-PT-19.png,0.4,1.2,28,0.5,,,,,,,,,,,,,0,38,38,27,1,,,,,,,,,,,,,,,,,,,,,,,,,,,,
,,,,,V3_021,21,Female,2024-10-19_14h29.05.621,jersey_experiment_5_v3,2023.2.2,Win32,84.03361344,,,,,,,,,,,,,,,,533.6946,534.9884,534.9885,535.7177,return,0.0491,,53.125,,,,,,FBP-PT-19.png,0.37,1.2,27,0.5,,,,,,,,,,,,,0,39,39,26,1,,,,,,,,,,,,,,,,,,,,,,,,,,,,
,,,,,V3_021,21,Female,2024-10-19_14h29.05.621,jersey_experiment_5_v3,2023.2.2,Win32,84.03361344,,,,,,,,,,,,,,,,535.7179,537.0121,537.0121,537.7414,return,0.1442,,54.42708333,,,,,,FBP-YG-81.png,0.35,1.2,6,0.5,,,,,,,,,,,,,0,40,40,5,1,,,,,,,,,,,,,,,,,,,,,,,,,,,,
,,,,,V3_021,21,Female,2024-10-19_14h29.05.621,jersey_experiment_5_v3,2023.2.2,Win32,84.03361344,,,,,,,,,,,,,,,,537.7416,539.0357,539.0358,540.1416,return,0.4156,,58.72395833,,,,,,FBP-YG-91.png,0.37,1.2,12,0.5,,,,,,,,,,,,,0,41,41,11,1,,,,,,,,,,,,,,,,,,,,,,,,,,,,
,,,,,V3_021,21,Female,2024-10-19_14h29.05.621,jersey_experiment_5_v3,2023.2.2,Win32,84.03361344,,,,,,,,,,,,,,,,540.1418,541.4357,541.4357,541.9887,return,0.0781,,57.03125,,,,,,FBP-RB-18.png,0.37,1.2,52,0.5,,,,,,,,,,,,,0,42,42,51,1,,,,,,,,,,,,,,,,,,,,,,,,,,,,
,,,,,V3_021,21,Female,2024-10-19_14h29.05.621,jersey_experiment_5_v3,2023.2.2,Win32,84.03361344,,,,,,,,,,,,,,,,541.989,543.2829,543.2829,543.9652,return,0.0705,,64.32291667,,,,,,FBP-PT-18.png,0.45,1.2,25,0.5,,,,,,,,,,,,,0,43,43,24,1,,,,,,,,,,,,,,,,,,,,,,,,,,,,
,,,,,V3_021,21,Female,2024-10-19_14h29.05.621,jersey_experiment_5_v3,2023.2.2,Win32,84.03361344,,,,,,,,,,,,,,,,543.9655,545.5183,545.5183,547.3535,return,0.1072,,63.28125,,,,,,FBP-OG-18.png,0.43,1.2,39,0.75,,,,,,,,,,,,,0,44,44,38,1,,,,,,,,,,,,,,,,,,,,,,,,,,,,
,,,,,V3_021,21,Female,2024-10-19_14h29.05.621,jersey_experiment_5_v3,2023.2.2,Win32,84.03361344,,,,,,,,,,,,,,,,547.3538,548.6477,548.6477,550.0596,return,0.1275,,63.15104167,,,,,,FBP-PT-17.png,0.37,1.2,17,0.5,,,,,,,,,,,,,0,45,45,16,1,,,,,,,,,,,,,,,,,,,,,,,,,,,,
,,,,,V3_021,21,Female,2024-10-19_14h29.05.621,jersey_experiment_5_v3,2023.2.2,Win32,84.03361344,,,,,,,,,,,,,,,,550.0599,551.3537,551.3537,552.1656,return,0.1123,,58.72395833,,,,,,FBP-YG-81.png,0.4,1.2,8,0.5,,,,,,,,,,,,,0,46,46,7,1,,,,,,,,,,,,,,,,,,,,,,,,,,,,
,,,,,V3_021,21,Female,2024-10-19_14h29.05.621,jersey_experiment_5_v3,2023.2.2,Win32,84.03361344,,,,,,,,,,,,,,,,552.1659,553.4599,553.46,554.1187,return,0.0644,,65.88541667,,,,,,FBP-PT-19.png,0.45,1.2,30,0.5,,,,,,,,,,,,,0,47,47,29,1,,,,,,,,,,,,,,,,,,,,,,,,,,,,
,,,,,V3_021,21,Female,2024-10-19_14h29.05.621,jersey_experiment_5_v3,2023.2.2,Win32,84.03361344,,,,,,,,,,,,,,,,554.1188,555.6716,555.6716,558.1422,return,0.7926,,63.15104167,,,,,,FBP-OG-18.png,0.45,1.2,40,0.75,,,,,,,,,,,,,0,48,48,39,1,,,,,,,,,,,,,,,,,,,,,,,,,,,,
,,,,,V3_021,21,Female,2024-10-19_14h29.05.621,jersey_experiment_5_v3,2023.2.2,Win32,84.03361344,,,,,,,,,,,,,,,,558.1425,559.6953,559.6954,560.7778,return,0.2987,,54.94791667,,,,,,FBP-OG-19.png,0.37,1.2,42,0.75,,,,,,,,,,,,,0,49,49,41,1,,,,,,,,,,,,,,,,,,,,,,,,,,,,
,,,,,V3_021,21,Female,2024-10-19_14h29.05.621,jersey_experiment_5_v3,2023.2.2,Win32,84.03361344,,,,,,,,,,,,,,,,560.7779,562.0718,562.0718,562.6601,return,0.0665,,60.9375,,,,,,FBP-RB-18.png,0.43,1.2,54,0.5,,,,,,,,,,,,,0,50,50,53,1,,,,,,,,,,,,,,,,,,,,,,,,,,,,
,,,,,V3_021,21,Female,2024-10-19_14h29.05.621,jersey_experiment_5_v3,2023.2.2,Win32,84.03361344,,,,,,,,,,,,,,,,562.6604,563.9547,563.9548,564.4836,return,0.0632,,64.71354167,,,,,,FBP-RB-19.png,0.43,1.2,59,0.5,,,,,,,,,,,,,0,51,51,58,1,,,,,,,,,,,,,,,,,,,,,,,,,,,,
,,,,,V3_021,21,Female,2024-10-19_14h29.05.621,jersey_experiment_5_v3,2023.2.2,Win32,84.03361344,,,,,,,,,,,,,,,,564.484,565.7781,565.7782,566.4131,return,0.1967,,68.48958333,,,,,,FBP-PT-17.png,0.45,1.2,20,0.5,,,,,,,,,,,,,0,52,52,19,1,,,,,,,,,,,,,,,,,,,,,,,,,,,,
,,,,,V3_021,21,Female,2024-10-19_14h29.05.621,jersey_experiment_5_v3,2023.2.2,Win32,84.03361344,,,,,,,,,,,,,,,,566.4133,567.7074,567.7075,568.4838,return,0.0552,,50.65104167,,,,,,FBP-PT-18.png,0.35,1.2,21,0.5,,,,,,,,,,,,,0,53,53,20,1,,,,,,,,,,,,,,,,,,,,,,,,,,,,
,,,,,V3_021,21,Female,2024-10-19_14h29.05.621,jersey_experiment_5_v3,2023.2.2,Win32,84.03361344,,,,,,,,,,,,,,,,568.484,569.7781,569.7781,570.6015,return,0.1199,,52.734375,,,,,,FBP-PT-19.png,0.35,1.2,26,0.5,,,,,,,,,,,,,0,54,54,25,1,,,,,,,,,,,,,,,,,,,,,,,,,,,,
,,,,,V3_021,21,Female,2024-10-19_14h29.05.621,jersey_experiment_5_v3,2023.2.2,Win32,84.03361344,,,,,,,,,,,,,,,,570.6017,572.1431,572.1431,572.8369,return,0.0623,,61.06770833,,,,,,FBP-OG-17.png,0.4,1.2,33,0.75,,,,,,,,,,,,,0,55,55,32,1,,,,,,,,,,,,,,,,,,,,,,,,,,,,
,,,,,V3_021,21,Female,2024-10-19_14h29.05.621,jersey_experiment_5_v3,2023.2.2,Win32,84.03361344,,,,,,,,,,,,,,,,572.8372,574.3901,574.3901,575.4841,return,0.3043,,64.71354167,,,,,,FBP-OG-19.png,0.45,1.2,45,0.75,,,,,,,,,,,,,0,56,56,44,1,,,,,,,,,,,,,,,,,,,,,,,,,,,,
,,,,,V3_021,21,Female,2024-10-19_14h29.05.621,jersey_experiment_5_v3,2023.2.2,Win32,84.03361344,,,,,,,,,,,,,,,,575.4843,576.7784,576.7784,577.437,return,0.1193,,57.421875,,,,,,FBP-RB-19.png,0.37,1.2,57,0.5,,,,,,,,,,,,,0,57,57,56,1,,,,,,,,,,,,,,,,,,,,,,,,,,,,
,,,,,V3_021,21,Female,2024-10-19_14h29.05.621,jersey_experiment_5_v3,2023.2.2,Win32,84.03361344,,,,,,,,,,,,,,,,577.4372,578.7312,578.7313,579.8372,return,0.5431,,67.05729167,,,,,,FBP-YG-71.png,0.45,1.2,5,0.5,,,,,,,,,,,,,0,58,58,4,1,,,,,,,,,,,,,,,,,,,,,,,,,,,,
,,,,,V3_021,21,Female,2024-10-19_14h29.05.621,jersey_experiment_5_v3,2023.2.2,Win32,84.03361344,,,,,,,,,,,,,,,,579.8374,581.39,581.3901,581.9548,return,0.052,,67.05729167,,,,,,FBP-OG-17.png,0.43,1.2,34,0.75,,,,,,,,,,,,,0,59,59,33,1,,,,,,,,,,,,,,,,,,,,,,,,,,,,
,,,,,V3_021,21,Female,2024-10-19_14h29.05.621,jersey_experiment_5_v3,2023.2.2,Win32,84.03361344,,,,,,,,,,,,,,,,581.9562,583.2491,583.2491,583.9314,return,0.1647,,69.140625,,,,,,FBP-RB-81.png,0.45,1.2,55,0.5,,,,,,,,,,,,,,,,,,0,0,0,54,1,,,,,,,,,,,,,,,,,,,,,,,
,,,,,V3_021,21,Female,2024-10-19_14h29.05.621,jersey_experiment_5_v3,2023.2.2,Win32,84.03361344,,,,,,,,,,,,,,,,583.9316,585.2256,585.2257,585.9316,return,0.0629,,70.57291667,,,,,,FBP-PT-71.png,0.45,1.2,20,0.5,,,,,,,,,,,,,,,,,,0,1,1,19,1,,,,,,,,,,,,,,,,,,,,,,,
,,,,,V3_021,21,Female,2024-10-19_14h29.05.621,jersey_experiment_5_v3,2023.2.2,Win32,84.03361344,,,,,,,,,,,,,,,,585.9318,587.2257,587.2257,587.8376,return,0.0377,,62.23958333,,,,,,FBP-RB-81.png,0.37,1.2,52,0.5,,,,,,,,,,,,,,,,,,0,2,2,51,1,,,,,,,,,,,,,,,,,,,,,,,
,,,,,V3_021,21,Female,2024-10-19_14h29.05.621,jersey_experiment_5_v3,2023.2.2,Win32,84.03361344,,,,,,,,,,,,,,,,587.8378,589.1317,589.1317,589.7199,return,0.1193,,62.36979167,,,,,,FBP-PT-71.png,0.37,1.2,17,0.5,,,,,,,,,,,,,,,,,,0,3,3,16,1,,,,,,,,,,,,,,,,,,,,,,,
,,,,,V3_021,21,Female,2024-10-19_14h29.05.621,jersey_experiment_5_v3,2023.2.2,Win32,84.03361344,,,,,,,,,,,,,,,,589.7201,591.2613,591.2613,591.9552,return,0.0675,,66.66666667,,,,,,FBP-OG-91.png,0.45,1.2,45,0.75,,,,,,,,,,,,,,,,,,0,4,4,44,1,,,,,,,,,,,,,,,,,,,,,,,
,,,,,V3_021,21,Female,2024-10-19_14h29.05.621,jersey_experiment_5_v3,2023.2.2,Win32,84.03361344,,,,,,,,,,,,,,,,591.9553,593.4966,593.4966,594.1201,return,0.1566,,62.23958333,,,,,,FBP-OG-81.png,0.4,1.2,38,0.75,,,,,,,,,,,,,,,,,,0,5,5,37,1,,,,,,,,,,,,,,,,,,,,,,,
,,,,,V3_021,21,Female,2024-10-19_14h29.05.621,jersey_experiment_5_v3,2023.2.2,Win32,84.03361344,,,,,,,,,,,,,,,,594.1204,595.4142,595.4142,596.0732,return,0.1088,,66.14583333,,,,,,FBP-RB-71.png,0.45,1.2,50,0.5,,,,,,,,,,,,,,,,,,0,6,6,49,1,,,,,,,,,,,,,,,,,,,,,,,
,,,,,V3_021,21,Female,2024-10-19_14h29.05.621,jersey_experiment_5_v3,2023.2.2,Win32,84.03361344,,,,,,,,,,,,,,,,596.0733,597.3675,597.3675,598.0732,return,0.1912,,57.421875,,,,,,FBP-RB-71.png,0.4,1.2,48,0.5,,,,,,,,,,,,,,,,,,0,7,7,47,1,,,,,,,,,,,,,,,,,,,,,,,
,,,,,V3_021,21,Female,2024-10-19_14h29.05.621,jersey_experiment_5_v3,2023.2.2,Win32,84.03361344,,,,,,,,,,,,,,,,598.0735,599.3674,599.3674,599.9437,return,0.0277,,55.20833333,,,,,,FBP-YG-18.png,0.35,1.2,6,0.5,,,,,,,,,,,,,,,,,,0,8,8,5,1,,,,,,,,,,,,,,,,,,,,,,,
,,,,,V3_021,21,Female,2024-10-19_14h29.05.621,jersey_experiment_5_v3,2023.2.2,Win32,84.03361344,,,,,,,,,,,,,,,,599.944,601.4969,601.4969,602.5321,return,0.5024,,61.328125,,,,,,FBP-OG-91.png,0.4,1.2,43,0.75,,,,,,,,,,,,,,,,,,0,9,9,42,1,,,,,,,,,,,,,,,,,,,,,,,
,,,,,V3_021,21,Female,2024-10-19_14h29.05.621,jersey_experiment_5_v3,2023.2.2,Win32,84.03361344,,,,,,,,,,,,,,,,602.5323,604.0853,604.0853,604.6617,return,0.0414,,56.25,,,,,,FBP-OG-71.png,0.35,1.2,31,0.75,,,,,,,,,,,,,,,,,,0,10,10,30,1,,,,,,,,,,,,,,,,,,,,,,,
,,,,,V3_021,21,Female,2024-10-19_14h29.05.621,jersey_experiment_5_v3,2023.2.2,Win32,84.03361344,,,,,,,,,,,,,,,,604.6619,605.9557,605.9558,606.6146,return,0.0875,,59.50520833,,,,,,FBP-YG-18.png,0.4,1.2,8,0.5,,,,,,,,,,,,,,,,,,0,11,11,7,1,,,,,,,,,,,,,,,,,,,,,,,
,,,,,V3_021,21,Female,2024-10-19_14h29.05.621,jersey_experiment_5_v3,2023.2.2,Win32,84.03361344,,,,,,,,,,,,,,,,606.6148,607.9088,607.9088,608.4737,return,0.063,,60.15625,,,,,,FBP-YG-19.png,0.37,1.2,12,0.5,,,,,,,,,,,,,,,,,,0,12,12,11,1,,,,,,,,,,,,,,,,,,,,,,,
,,,,,V3_021,21,Female,2024-10-19_14h29.05.621,jersey_experiment_5_v3,2023.2.2,Win32,84.03361344,,,,,,,,,,,,,,,,608.4739,610.0266,610.0266,610.9677,return,0.4707,,67.96875,,,,,,FBP-OG-71.png,0.45,1.2,35,0.75,,,,,,,,,,,,,,,,,,0,13,13,34,1,,,,,,,,,,,,,,,,,,,,,,,
,,,,,V3_021,21,Female,2024-10-19_14h29.05.621,jersey_experiment_5_v3,2023.2.2,Win32,84.03361344,,,,,,,,,,,,,,,,610.9678,612.262,612.2621,612.9561,return,0.0079,,53.38541667,,,,,,FBP-PT-81.png,0.35,1.2,21,0.5,,,,,,,,,,,,,,,,,,0,14,14,20,1,,,,,,,,,,,,,,,,,,,,,,,
,,,,,V3_021,21,Female,2024-10-19_14h29.05.621,jersey_experiment_5_v3,2023.2.2,Win32,84.03361344,,,,,,,,,,,,,,,,612.9562,614.2503,614.2504,614.921,return,0.025,,59.63541667,,,,,,FBP-YG-18.png,0.43,1.2,9,0.5,,,,,,,,,,,,,,,,,,0,15,15,8,1,,,,,,,,,,,,,,,,,,,,,,,
,,,,,V3_021,21,Female,2024-10-19_14h29.05.621,jersey_experiment_5_v3,2023.2.2,Win32,84.03361344,,,,,,,,,,,,,,,,614.9211,616.474,616.474,617.0152,return,0.026,,57.68229167,,,,,,FBP-OG-91.png,0.37,1.2,42,0.75,,,,,,,,,,,,,,,,,,0,16,16,41,1,,,,,,,,,,,,,,,,,,,,,,,
,,,,,V3_021,21,Female,2024-10-19_14h29.05.621,jersey_experiment_5_v3,2023.2.2,Win32,84.03361344,,,,,,,,,,,,,,,,617.0156,618.568,618.5681,618.9091,return,0.1179,,56.77083333,,,,,,FBP-OG-91.png,0.35,1.2,41,0.75,,,,,,,,,,,,,,,,,,0,17,17,40,1,,,,,,,,,,,,,,,,,,,,,,,
,,,,,V3_021,21,Female,2024-10-19_14h29.05.621,jersey_experiment_5_v3,2023.2.2,Win32,84.03361344,,,,,,,,,,,,,,,,618.9093,620.2035,620.2036,620.7329,return,0.0705,,63.93229167,,,,,,FBP-YG-18.png,0.45,1.2,10,0.5,,,,,,,,,,,,,,,,,,0,18,18,9,1,,,,,,,,,,,,,,,,,,,,,,,
,,,,,V3_021,21,Female,2024-10-19_14h29.05.621,jersey_experiment_5_v3,2023.2.2,Win32,84.03361344,,,,,,,,,,,,,,,,620.7332,622.0269,622.027,622.5093,return,0.0003,,59.50520833,,,,,,FBP-YG-19.png,0.4,1.2,13,0.5,,,,,,,,,,,,,,,,,,0,19,19,12,1,,,,,,,,,,,,,,,,,,,,,,,
,,,,,V3_021,21,Female,2024-10-19_14h29.05.621,jersey_experiment_5_v3,2023.2.2,Win32,84.03361344,,,,,,,,,,,,,,,,622.5095,623.8034,623.8035,624.4034,return,0.0671,,65.625,,,,,,FBP-PT-91.png,0.43,1.2,29,0.5,,,,,,,,,,,,,,,,,,0,20,20,28,1,,,,,,,,,,,,,,,,,,,,,,,
,,,,,V3_021,21,Female,2024-10-19_14h29.05.621,jersey_experiment_5_v3,2023.2.2,Win32,84.03361344,,,,,,,,,,,,,,,,624.4037,625.9567,625.9567,626.8389,return,0.264,,55.078125,,,,,,FBP-OG-81.png,0.37,1.2,37,0.75,,,,,,,,,,,,,,,,,,0,21,21,36,1,,,,,,,,,,,,,,,,,,,,,,,
,,,,,V3_021,21,Female,2024-10-19_14h29.05.621,jersey_experiment_5_v3,2023.2.2,Win32,84.03361344,,,,,,,,,,,,,,,,626.8392,628.392,628.392,628.8743,return,0.0628,,65.88541667,,,,,,FBP-OG-91.png,0.43,1.2,44,0.75,,,,,,,,,,,,,,,,,,0,22,22,43,1,,,,,,,,,,,,,,,,,,,,,,,
,,,,,V3_021,21,Female,2024-10-19_14h29.05.621,jersey_experiment_5_v3,2023.2.2,Win32,84.03361344,,,,,,,,,,,,,,,,628.8746,630.1685,630.1685,630.792,return,0.0509,,62.63020833,,,,,,FBP-PT-71.png,0.4,1.2,18,0.5,,,,,,,,,,,,,,,,,,0,23,23,17,1,,,,,,,,,,,,,,,,,,,,,,,
,,,,,V3_021,21,Female,2024-10-19_14h29.05.621,jersey_experiment_5_v3,2023.2.2,Win32,84.03361344,,,,,,,,,,,,,,,,630.7923,632.0862,632.0862,632.6979,return,0.1669,,58.33333333,,,,,,FBP-PT-91.png,0.35,1.2,26,0.5,,,,,,,,,,,,,,,,,,0,24,24,25,1,,,,,,,,,,,,,,,,,,,,,,,
,,,,,V3_021,21,Female,2024-10-19_14h29.05.621,jersey_experiment_5_v3,2023.2.2,Win32,84.03361344,,,,,,,,,,,,,,,,632.6981,633.9922,633.9922,634.8039,return,0.1141,,61.06770833,,,,,,FBP-YG-18.png,0.37,1.2,7,0.5,,,,,,,,,,,,,,,,,,0,25,25,6,1,,,,,,,,,,,,,,,,,,,,,,,
,,,,,V3_021,21,Female,2024-10-19_14h29.05.621,jersey_experiment_5_v3,2023.2.2,Win32,84.03361344,,,,,,,,,,,,,,,,634.8041,636.3454,636.3454,637.0511,return,0.1262,,63.80208333,,,,,,FBP-OG-71.png,0.37,1.2,32,0.75,,,,,,,,,,,,,,,,,,0,26,26,31,1,,,,,,,,,,,,,,,,,,,,,,,
,,,,,V3_021,21,Female,2024-10-19_14h29.05.621,jersey_experiment_5_v3,2023.2.2,Win32,84.03361344,,,,,,,,,,,,,,,,637.0513,638.604,638.604,639.5572,return,0.4293,,67.578125,,,,,,FBP-OG-81.png,0.45,1.2,40,0.75,,,,,,,,,,,,,,,,,,0,27,27,39,1,,,,,,,,,,,,,,,,,,,,,,,
,,,,,V3_021,21,Female,2024-10-19_14h29.05.621,jersey_experiment_5_v3,2023.2.2,Win32,84.03361344,,,,,,,,,,,,,,,,639.5573,640.8513,640.8513,641.722,return,0.3535,,55.20833333,,,,,,FBP-RB-71.png,0.35,1.2,46,0.5,,,,,,,,,,,,,,,,,,0,28,28,45,1,,,,,,,,,,,,,,,,,,,,,,,
,,,,,V3_021,21,Female,2024-10-19_14h29.05.621,jersey_experiment_5_v3,2023.2.2,Win32,84.03361344,,,,,,,,,,,,,,,,641.7224,643.0161,643.0162,644.616,return,0.9098,,54.296875,,,,,,FBP-PT-81.png,0.37,1.2,22,0.5,,,,,,,,,,,,,,,,,,0,29,29,21,1,,,,,,,,,,,,,,,,,,,,,,,
,,,,,V3_021,21,Female,2024-10-19_14h29.05.621,jersey_experiment_5_v3,2023.2.2,Win32,84.03361344,,,,,,,,,,,,,,,,644.6163,646.1694,646.1694,646.9338,return,0.3592,,62.76041667,,,,,,FBP-OG-71.png,0.43,1.2,34,0.75,,,,,,,,,,,,,,,,,,0,30,30,33,1,,,,,,,,,,,,,,,,,,,,,,,
,,,,,V3_021,21,Female,2024-10-19_14h29.05.621,jersey_experiment_5_v3,2023.2.2,Win32,84.03361344,,,,,,,,,,,,,,,,646.9342,648.228,648.228,649.4632,return,0.6619,,58.59375,,,,,,FBP-PT-91.png,0.4,1.2,28,0.5,,,,,,,,,,,,,,,,,,0,31,31,27,1,,,,,,,,,,,,,,,,,,,,,,,
,,,,,V3_021,21,Female,2024-10-19_14h29.05.621,jersey_experiment_5_v3,2023.2.2,Win32,84.03361344,,,,,,,,,,,,,,,,649.4636,650.7576,650.7576,651.8751,return,0.5025,,55.46875,,,,,,FBP-RB-81.png,0.35,1.2,51,0.5,,,,,,,,,,,,,,,,,,0,32,32,50,1,,,,,,,,,,,,,,,,,,,,,,,
,,,,,V3_021,21,Female,2024-10-19_14h29.05.621,jersey_experiment_5_v3,2023.2.2,Win32,84.03361344,,,,,,,,,,,,,,,,651.8752,653.1694,653.1694,654.0753,return,0.4612,,61.328125,,,,,,FBP-YG-19.png,0.43,1.2,14,0.5,,,,,,,,,,,,,,,,,,0,33,33,13,1,,,,,,,,,,,,,,,,,,,,,,,
,,,,,V3_021,21,Female,2024-10-19_14h29.05.621,jersey_experiment_5_v3,2023.2.2,Win32,84.03361344,,,,,,,,,,,,,,,,654.0754,655.3694,655.3694,656.5224,return,0.4866,,66.53645833,,,,,,FBP-YG-19.png,0.45,1.2,15,0.5,,,,,,,,,,,,,,,,,,0,34,34,14,1,,,,,,,,,,,,,,,,,,,,,,,
,,,,,V3_021,21,Female,2024-10-19_14h29.05.621,jersey_experiment_5_v3,2023.2.2,Win32,84.03361344,,,,,,,,,,,,,,,,656.5226,657.8167,657.8167,658.5696,return,0.001,,64.453125,,,,,,FBP-YG-17.png,0.45,1.2,5,0.5,,,,,,,,,,,,,,,,,,0,35,35,4,1,,,,,,,,,,,,,,,,,,,,,,,
,,,,,V3_021,21,Female,2024-10-19_14h29.05.621,jersey_experiment_5_v3,2023.2.2,Win32,84.03361344,,,,,,,,,,,,,,,,658.5699,659.8636,659.8636,660.346,return,0.0721,,63.41145833,,,,,,FBP-RB-81.png,0.4,1.2,53,0.5,,,,,,,,,,,,,,,,,,0,36,36,52,1,,,,,,,,,,,,,,,,,,,,,,,
,,,,,V3_021,21,Female,2024-10-19_14h29.05.621,jersey_experiment_5_v3,2023.2.2,Win32,84.03361344,,,,,,,,,,,,,,,,660.3463,661.6403,661.6403,662.0757,return,0.024,,67.83854167,,,,,,FBP-YG-17.png,0.4,1.2,3,0.5,,,,,,,,,,,,,,,,,,0,37,37,2,1,,,,,,,,,,,,,,,,,,,,,,,
,,,,,V3_021,21,Female,2024-10-19_14h29.05.621,jersey_experiment_5_v3,2023.2.2,Win32,84.03361344,,,,,,,,,,,,,,,,662.0759,663.3697,663.3698,664.8756,return,0.957,,66.92708333,,,,,,FBP-YG-17.png,0.37,1.2,2,0.5,,,,,,,,,,,,,,,,,,0,38,38,1,1,,,,,,,,,,,,,,,,,,,,,,,
,,,,,V3_021,21,Female,2024-10-19_14h29.05.621,jersey_experiment_5_v3,2023.2.2,Win32,84.03361344,,,,,,,,,,,,,,,,664.8759,666.1701,666.1701,667.2993,return,0.3263,,64.0625,,,,,,FBP-PT-81.png,0.43,1.2,24,0.5,,,,,,,,,,,,,,,,,,0,39,39,23,1,,,,,,,,,,,,,,,,,,,,,,,
,,,,,V3_021,21,Female,2024-10-19_14h29.05.621,jersey_experiment_5_v3,2023.2.2,Win32,84.03361344,,,,,,,,,,,,,,,,667.2995,668.5934,668.5934,669.2404,return,0.0034,,62.36979167,,,,,,FBP-RB-91.png,0.45,1.2,60,0.5,,,,,,,,,,,,,,,,,,0,40,40,59,1,,,,,,,,,,,,,,,,,,,,,,,
,,,,,V3_021,21,Female,2024-10-19_14h29.05.621,jersey_experiment_5_v3,2023.2.2,Win32,84.03361344,,,,,,,,,,,,,,,,669.2407,670.5347,670.5347,671.0171,return,0.024,,66.92708333,,,,,,FBP-YG-17.png,0.43,1.2,4,0.5,,,,,,,,,,,,,,,,,,0,41,41,3,1,,,,,,,,,,,,,,,,,,,,,,,
,,,,,V3_021,21,Female,2024-10-19_14h29.05.621,jersey_experiment_5_v3,2023.2.2,Win32,84.03361344,,,,,,,,,,,,,,,,671.0173,672.3113,672.3113,673.6877,return,0.4748,,64.97395833,,,,,,FBP-PT-91.png,0.37,1.2,27,0.5,,,,,,,,,,,,,,,,,,0,42,42,26,1,,,,,,,,,,,,,,,,,,,,,,,
,,,,,V3_021,21,Female,2024-10-19_14h29.05.621,jersey_experiment_5_v3,2023.2.2,Win32,84.03361344,,,,,,,,,,,,,,,,673.6879,674.9819,674.9819,675.7702,return,0.3533,,66.015625,,,,,,FBP-RB-91.png,0.43,1.2,59,0.5,,,,,,,,,,,,,,,,,,0,43,43,58,1,,,,,,,,,,,,,,,,,,,,,,,
,,,,,V3_021,21,Female,2024-10-19_14h29.05.621,jersey_experiment_5_v3,2023.2.2,Win32,84.03361344,,,,,,,,,,,,,,,,675.7705,677.0644,677.0644,677.9938,return,0.3787,,66.015625,,,,,,FBP-RB-71.png,0.37,1.2,47,0.5,,,,,,,,,,,,,,,,,,0,44,44,46,1,,,,,,,,,,,,,,,,,,,,,,,
,,,,,V3_021,21,Female,2024-10-19_14h29.05.621,jersey_experiment_5_v3,2023.2.2,Win32,84.03361344,,,,,,,,,,,,,,,,677.994,679.2879,679.288,680.2997,return,0.4079,,63.15104167,,,,,,FBP-YG-19.png,0.35,1.2,11,0.5,,,,,,,,,,,,,,,,,,0,45,45,10,1,,,,,,,,,,,,,,,,,,,,,,,
,,,,,V3_021,21,Female,2024-10-19_14h29.05.621,jersey_experiment_5_v3,2023.2.2,Win32,84.03361344,,,,,,,,,,,,,,,,680.3,681.8528,681.8529,682.3469,return,0.0348,,67.1875,,,,,,FBP-OG-81.png,0.43,1.2,39,0.75,,,,,,,,,,,,,,,,,,0,46,46,38,1,,,,,,,,,,,,,,,,,,,,,,,
,,,,,V3_021,21,Female,2024-10-19_14h29.05.621,jersey_experiment_5_v3,2023.2.2,Win32,84.03361344,,,,,,,,,,,,,,,,682.3472,683.6412,683.6412,684.2293,return,0.0771,,66.53645833,,,,,,FBP-PT-71.png,0.43,1.2,19,0.5,,,,,,,,,,,,,,,,,,0,47,47,18,1,,,,,,,,,,,,,,,,,,,,,,,
,,,,,V3_021,21,Female,2024-10-19_14h29.05.621,jersey_experiment_5_v3,2023.2.2,Win32,84.03361344,,,,,,,,,,,,,,,,684.2295,685.5234,685.5234,686.2059,return,0.0236,,67.83854167,,,,,,FBP-PT-81.png,0.45,1.2,25,0.5,,,,,,,,,,,,,,,,,,0,48,48,24,1,,,,,,,,,,,,,,,,,,,,,,,
,,,,,V3_021,21,Female,2024-10-19_14h29.05.621,jersey_experiment_5_v3,2023.2.2,Win32,84.03361344,,,,,,,,,,,,,,,,686.2061,687.7589,687.759,688.3119,return,0.1415,,65.234375,,,,,,FBP-OG-81.png,0.35,1.2,36,0.75,,,,,,,,,,,,,,,,,,0,49,49,35,1,,,,,,,,,,,,,,,,,,,,,,,
,,,,,V3_021,21,Female,2024-10-19_14h29.05.621,jersey_experiment_5_v3,2023.2.2,Win32,84.03361344,,,,,,,,,,,,,,,,688.3122,689.606,689.6061,690.3002,return,0.0571,,63.80208333,,,,,,FBP-PT-71.png,0.35,1.2,16,0.5,,,,,,,,,,,,,,,,,,0,50,50,15,1,,,,,,,,,,,,,,,,,,,,,,,
,,,,,V3_021,21,Female,2024-10-19_14h29.05.621,jersey_experiment_5_v3,2023.2.2,Win32,84.03361344,,,,,,,,,,,,,,,,690.3005,691.5945,691.5946,692.1473,return,0.1852,,62.63020833,,,,,,FBP-RB-91.png,0.37,1.2,57,0.5,,,,,,,,,,,,,,,,,,0,51,51,56,1,,,,,,,,,,,,,,,,,,,,,,,
,,,,,V3_021,21,Female,2024-10-19_14h29.05.621,jersey_experiment_5_v3,2023.2.2,Win32,84.03361344,,,,,,,,,,,,,,,,692.1475,693.4415,693.4415,694.1238,return,0.1417,,66.015625,,,,,,FBP-PT-91.png,0.45,1.2,30,0.5,,,,,,,,,,,,,,,,,,0,52,52,29,1,,,,,,,,,,,,,,,,,,,,,,,
,,,,,V3_021,21,Female,2024-10-19_14h29.05.621,jersey_experiment_5_v3,2023.2.2,Win32,84.03361344,,,,,,,,,,,,,,,,694.1239,695.4181,695.4182,696.1005,return,0.0193,,63.28125,,,,,,FBP-RB-91.png,0.35,1.2,56,0.5,,,,,,,,,,,,,,,,,,0,53,53,55,1,,,,,,,,,,,,,,,,,,,,,,,
,,,,,V3_021,21,Female,2024-10-19_14h29.05.621,jersey_experiment_5_v3,2023.2.2,Win32,84.03361344,,,,,,,,,,,,,,,,696.1007,697.3947,697.3947,698.0888,return,0.1779,,64.453125,,,,,,FBP-PT-81.png,0.4,1.2,23,0.5,,,,,,,,,,,,,,,,,,0,54,54,22,1,,,,,,,,,,,,,,,,,,,,,,,
,,,,,V3_021,21,Female,2024-10-19_14h29.05.621,jersey_experiment_5_v3,2023.2.2,Win32,84.03361344,,,,,,,,,,,,,,,,698.089,699.383,699.383,699.9005,return,0.0004,,66.27604167,,,,,,FBP-RB-71.png,0.43,1.2,49,0.5,,,,,,,,,,,,,,,,,,0,55,55,48,1,,,,,,,,,,,,,,,,,,,,,,,
,,,,,V3_021,21,Female,2024-10-19_14h29.05.621,jersey_experiment_5_v3,2023.2.2,Win32,84.03361344,,,,,,,,,,,,,,,,699.9006,701.1946,701.1947,701.7829,return,0.1697,,62.23958333,,,,,,FBP-YG-17.png,0.35,1.2,1,0.5,,,,,,,,,,,,,,,,,,0,56,56,0,1,,,,,,,,,,,,,,,,,,,,,,,
,,,,,V3_021,21,Female,2024-10-19_14h29.05.621,jersey_experiment_5_v3,2023.2.2,Win32,84.03361344,,,,,,,,,,,,,,,,701.7832,703.0771,703.0771,703.9947,return,0.4591,,65.88541667,,,,,,FBP-RB-81.png,0.43,1.2,54,0.5,,,,,,,,,,,,,,,,,,0,57,57,53,1,,,,,,,,,,,,,,,,,,,,,,,
,,,,,V3_021,21,Female,2024-10-19_14h29.05.621,jersey_experiment_5_v3,2023.2.2,Win32,84.03361344,,,,,,,,,,,,,,,,703.9951,705.5477,705.5478,707.3713,return,0.5558,,61.58854167,,,,,,FBP-OG-71.png,0.4,1.2,33,0.75,,,,,,,,,,,,,,,,,,0,58,58,32,1,,,,,,,,,,,,,,,,,,,,,,,
,,,,,V3_021,21,Female,2024-10-19_14h29.05.621,jersey_experiment_5_v3,2023.2.2,Win32,84.03361344,,,,,,,,,,,,,,,,707.3717,708.6657,708.6657,709.6067,return,0.5107,,55.72916667,,,,,,FBP-RB-91.png,0.4,1.2,58,0.5,,,,,,,,,,,,,,,,,,0,59,59,57,1,,,,,,,,,,,,,,,,,,,,,,,
,,,,,V3_021,21,Female,2024-10-19_14h29.05.621,jersey_experiment_5_v3,2023.2.2,Win32,84.03361344,,,,,,,,,,,,,,,,,,,,,,,,,,,,,,,,,,,,,,,,,,,,,,,,,,,,,,,,709.6069,712.054,return,2.4412,,,,,,,,,,,,,,,,,,,
,,,,,V3_021,21,Female,2024-10-19_14h29.05.621,jersey_experiment_5_v3,2023.2.2,Win32,84.03361344,,,,,,,,,,,,,,,,,,,,,,,,,,,,,,,,,,,,,,,,,,,,,,,,,,,,,,,,,,,,,712.0541,714.1717,1,1.5482,return,0.556,,,,,,,,,,,,
,,,,,V3_021,21,Female,2024-10-19_14h29.05.621,jersey_experiment_5_v3,2023.2.2,Win32,84.03361344,,,,,,,,,,,,,,,,,,,,,,,,,,,,,,,,,,,,,,,,,,,,,,,,,,,,,,,,,,,,,,,,,,,,714.1718,722.2199,perhaps about race,right,5.3169,,,,,,
,,,,,V3_021,21,Female,2024-10-19_14h29.05.621,jersey_experiment_5_v3,2023.2.2,Win32,84.03361344,,,,,,,,,,,,,,,,,,,,,,,,,,,,,,,,,,,,,,,,,,,,,,,,,,,,,,,,,,,,,,,,,,,,,,,,,,722.22,724.525,return,2.2958,