requirements.started,requirements.stopped,key_resp_3.keys,key_resp_3.rt,key_resp_3.duration,Subject ID,Age,Gender,date,expName,psychopyVersion,OS,frameRate,instructions1.started,instructions1.stopped,key_resp.keys,key_resp.rt,key_resp.duration,example.started,example.stopped,enter_2.keys,enter_2.rt,enter_2.duration,instructions2.started,instructions2.stopped,enter_3.keys,enter_3.rt,enter_3.duration,image.started,image.stopped,slider_2.started,slider_2.stopped,next.keys,next.rt,next.duration,slider.response,trial_block_1.thisRepN,trial_block_1.thisTrialN,trial_block_1.thisN,trial_block_1.thisIndex,trial_block_1.ran,Path,Width,Height,Index,Duration,trial_block_2.thisRepN,trial_block_2.thisTrialN,trial_block_2.thisN,trial_block_2.thisIndex,trial_block_2.ran,rest_break.started,rest_break.stopped,end_break.started,end_break.stopped,key_resp_5.keys,key_resp_5.rt,key_resp_5.duration,trial_block_3.thisRepN,trial_block_3.thisTrialN,trial_block_3.thisN,trial_block_3.thisIndex,trial_block_3.ran,trial_block_4.thisRepN,trial_block_4.thisTrialN,trial_block_4.thisN,trial_block_4.thisIndex,trial_block_4.ran,questions_intro.started,questions_intro.stopped,enter_12.keys,enter_12.rt,enter_12.duration,question2.started,question2.stopped,question_doingbest.response,question_doingbest.rt,enter_15.keys,enter_15.rt,enter_15.duration,pattern.started,pattern.stopped,pattern_2.text,enter_17.keys,enter_17.rt,enter_17.duration,thankyou.started,thankyou.stopped,enter_14.keys,enter_14.rt,enter_14.duration
0,16.8968,return,16.8938,,V3_069,18,female,2024-11-16_17h03.19.839,jersey_experiment_5_v3,2023.2.2,Win32,85.47008547,,,,,,,,,,,,,,,,,,,,,,,,,,,,,,,,,,,,,,,,,,,,,,,,,,,,,,,,,,,,,,,,,,,,,,,,,,,,,,
,,,,,V3_069,18,female,2024-11-16_17h03.19.839,jersey_experiment_5_v3,2023.2.2,Win32,85.47008547,16.8969,33.7718,return,16.8601,,,,,,,,,,,,,,,,,,,,,,,,,,,,,,,,,,,,,,,,,,,,,,,,,,,,,,,,,,,,,,,,,,,,,,,,,,
,,,,,V3_069,18,female,2024-11-16_17h03.19.839,jersey_experiment_5_v3,2023.2.2,Win32,85.47008547,,,,,,33.7718,44.8828,return,11.0828,,,,,,,,,,,,,,,,,,,,,,,,,,,,,,,,,,,,,,,,,,,,,,,,,,,,,,,,,,,,,,,,,,,,,
,,,,,V3_069,18,female,2024-11-16_17h03.19.839,jersey_experiment_5_v3,2023.2.2,Win32,85.47008547,,,,,,,,,,,44.8828,81.5075,return,36.6159,,,,,,,,,,,,,,,,,,,,,,,,,,,,,,,,,,,,,,,,,,,,,,,,,,,,,,,,,,,,,,,,
,,,,,V3_069,18,female,2024-11-16_17h03.19.839,jersey_experiment_5_v3,2023.2.2,Win32,85.47008547,,,,,,,,,,,,,,,,81.5091,82.8017,82.8018,92.661,return,5.1095,,75,0,0,0,44,1,FBP-OG-19.png,0.45,1.2,45,0.5,,,,,,,,,,,,,,,,,,,,,,,,,,,,,,,,,,,,,,,,,,,,,
,,,,,V3_069,18,female,2024-11-16_17h03.19.839,jersey_experiment_5_v3,2023.2.2,Win32,85.47008547,,,,,,,,,,,,,,,,92.6613,94.2139,94.2139,98.5317,return,1.6509,,24.34895833,0,1,1,50,1,FBP-RB-18.png,0.35,1.2,51,0.75,,,,,,,,,,,,,,,,,,,,,,,,,,,,,,,,,,,,,,,,,,,,,
,,,,,V3_069,18,female,2024-11-16_17h03.19.839,jersey_experiment_5_v3,2023.2.2,Win32,85.47008547,,,,,,,,,,,,,,,,98.5319,99.8259,99.8259,103.7791,return,1.4628,,25.26041667,0,2,2,31,1,FBP-OG-17.png,0.37,1.2,32,0.5,,,,,,,,,,,,,,,,,,,,,,,,,,,,,,,,,,,,,,,,,,,,,
,,,,,V3_069,18,female,2024-11-16_17h03.19.839,jersey_experiment_5_v3,2023.2.2,Win32,85.47008547,,,,,,,,,,,,,,,,103.7793,105.3319,105.332,110.085,return,0.9093,,50.52083333,0,3,3,47,1,FBP-RB-17.png,0.4,1.2,48,0.75,,,,,,,,,,,,,,,,,,,,,,,,,,,,,,,,,,,,,,,,,,,,,
,,,,,V3_069,18,female,2024-11-16_17h03.19.839,jersey_experiment_5_v3,2023.2.2,Win32,85.47008547,,,,,,,,,,,,,,,,110.0853,111.3793,111.3793,114.6147,return,1.0841,,25,0,4,4,30,1,FBP-OG-17.png,0.35,1.2,31,0.5,,,,,,,,,,,,,,,,,,,,,,,,,,,,,,,,,,,,,,,,,,,,,
,,,,,V3_069,18,female,2024-11-16_17h03.19.839,jersey_experiment_5_v3,2023.2.2,Win32,85.47008547,,,,,,,,,,,,,,,,114.6149,116.1676,116.1677,120.2971,return,1.5214,,99.609375,0,5,5,59,1,FBP-RB-19.png,0.45,1.2,60,0.75,,,,,,,,,,,,,,,,,,,,,,,,,,,,,,,,,,,,,,,,,,,,,
,,,,,V3_069,18,female,2024-11-16_17h03.19.839,jersey_experiment_5_v3,2023.2.2,Win32,85.47008547,,,,,,,,,,,,,,,,120.2974,121.8502,121.8503,125.7916,return,1.4679,,99.609375,0,6,6,23,1,FBP-PT-18.png,0.43,1.2,24,0.75,,,,,,,,,,,,,,,,,,,,,,,,,,,,,,,,,,,,,,,,,,,,,
,,,,,V3_069,18,female,2024-11-16_17h03.19.839,jersey_experiment_5_v3,2023.2.2,Win32,85.47008547,,,,,,,,,,,,,,,,125.7917,127.3445,127.3445,129.7917,return,1.0439,,99.08854167,0,7,7,9,1,FBP-YG-81.png,0.45,1.2,10,0.75,,,,,,,,,,,,,,,,,,,,,,,,,,,,,,,,,,,,,,,,,,,,,
,,,,,V3_069,18,female,2024-11-16_17h03.19.839,jersey_experiment_5_v3,2023.2.2,Win32,85.47008547,,,,,,,,,,,,,,,,129.7919,131.3447,131.3448,133.3211,return,0.7401,,25.52083333,0,8,8,15,1,FBP-PT-17.png,0.35,1.2,16,0.75,,,,,,,,,,,,,,,,,,,,,,,,,,,,,,,,,,,,,,,,,,,,,
,,,,,V3_069,18,female,2024-11-16_17h03.19.839,jersey_experiment_5_v3,2023.2.2,Win32,85.47008547,,,,,,,,,,,,,,,,133.3214,134.8742,134.8743,136.9802,return,0.9178,,75.52083333,0,9,9,29,1,FBP-PT-19.png,0.45,1.2,30,0.75,,,,,,,,,,,,,,,,,,,,,,,,,,,,,,,,,,,,,,,,,,,,,
,,,,,V3_069,18,female,2024-11-16_17h03.19.839,jersey_experiment_5_v3,2023.2.2,Win32,85.47008547,,,,,,,,,,,,,,,,136.9805,138.2742,138.2742,142.1686,return,0.8112,,99.86979167,0,10,10,34,1,FBP-OG-17.png,0.45,1.2,35,0.5,,,,,,,,,,,,,,,,,,,,,,,,,,,,,,,,,,,,,,,,,,,,,
,,,,,V3_069,18,female,2024-11-16_17h03.19.839,jersey_experiment_5_v3,2023.2.2,Win32,85.47008547,,,,,,,,,,,,,,,,142.1689,143.7214,143.7215,146.3923,return,1.109,,24.73958333,0,11,11,6,1,FBP-YG-81.png,0.37,1.2,7,0.75,,,,,,,,,,,,,,,,,,,,,,,,,,,,,,,,,,,,,,,,,,,,,
,,,,,V3_069,18,female,2024-11-16_17h03.19.839,jersey_experiment_5_v3,2023.2.2,Win32,85.47008547,,,,,,,,,,,,,,,,146.3926,147.6863,147.6863,150.1808,return,0.9328,,25.65104167,0,12,12,41,1,FBP-OG-19.png,0.37,1.2,42,0.5,,,,,,,,,,,,,,,,,,,,,,,,,,,,,,,,,,,,,,,,,,,,,
,,,,,V3_069,18,female,2024-11-16_17h03.19.839,jersey_experiment_5_v3,2023.2.2,Win32,85.47008547,,,,,,,,,,,,,,,,150.181,151.7336,151.7337,155.369,return,1.1868,,98.95833333,0,13,13,14,1,FBP-YG-91.png,0.45,1.2,15,0.75,,,,,,,,,,,,,,,,,,,,,,,,,,,,,,,,,,,,,,,,,,,,,
,,,,,V3_069,18,female,2024-11-16_17h03.19.839,jersey_experiment_5_v3,2023.2.2,Win32,85.47008547,,,,,,,,,,,,,,,,155.3693,156.9221,156.9221,159.2045,return,0.8512,,24.609375,0,14,14,21,1,FBP-PT-18.png,0.37,1.2,22,0.75,,,,,,,,,,,,,,,,,,,,,,,,,,,,,,,,,,,,,,,,,,,,,
,,,,,V3_069,18,female,2024-11-16_17h03.19.839,jersey_experiment_5_v3,2023.2.2,Win32,85.47008547,,,,,,,,,,,,,,,,159.2047,160.4987,160.4988,163.1693,return,0.9918,,49.08854167,0,15,15,37,1,FBP-OG-18.png,0.4,1.2,38,0.5,,,,,,,,,,,,,,,,,,,,,,,,,,,,,,,,,,,,,,,,,,,,,
,,,,,V3_069,18,female,2024-11-16_17h03.19.839,jersey_experiment_5_v3,2023.2.2,Win32,85.47008547,,,,,,,,,,,,,,,,163.1694,164.7224,164.7224,166.2401,return,0.7486,,50,0,16,16,11,1,FBP-YG-91.png,0.37,1.2,12,0.75,,,,,,,,,,,,,,,,,,,,,,,,,,,,,,,,,,,,,,,,,,,,,
,,,,,V3_069,18,female,2024-11-16_17h03.19.839,jersey_experiment_5_v3,2023.2.2,Win32,85.47008547,,,,,,,,,,,,,,,,166.2403,167.7931,167.7931,169.652,return,0.8984,,25.91145833,0,17,17,55,1,FBP-RB-19.png,0.35,1.2,56,0.75,,,,,,,,,,,,,,,,,,,,,,,,,,,,,,,,,,,,,,,,,,,,,
,,,,,V3_069,18,female,2024-11-16_17h03.19.839,jersey_experiment_5_v3,2023.2.2,Win32,85.47008547,,,,,,,,,,,,,,,,169.6523,171.2049,171.2049,173.0286,return,0.7543,,24.08854167,0,18,18,0,1,FBP-YG-71.png,0.35,1.2,1,0.75,,,,,,,,,,,,,,,,,,,,,,,,,,,,,,,,,,,,,,,,,,,,,
,,,,,V3_069,18,female,2024-11-16_17h03.19.839,jersey_experiment_5_v3,2023.2.2,Win32,85.47008547,,,,,,,,,,,,,,,,173.0288,174.5816,174.5816,176.8169,return,0.8428,,49.47916667,0,19,19,57,1,FBP-RB-19.png,0.4,1.2,58,0.75,,,,,,,,,,,,,,,,,,,,,,,,,,,,,,,,,,,,,,,,,,,,,
,,,,,V3_069,18,female,2024-11-16_17h03.19.839,jersey_experiment_5_v3,2023.2.2,Win32,85.47008547,,,,,,,,,,,,,,,,176.8172,178.3699,178.37,179.6405,return,0.651,,49.47916667,0,20,20,1,1,FBP-YG-71.png,0.37,1.2,2,0.75,,,,,,,,,,,,,,,,,,,,,,,,,,,,,,,,,,,,,,,,,,,,,
,,,,,V3_069,18,female,2024-11-16_17h03.19.839,jersey_experiment_5_v3,2023.2.2,Win32,85.47008547,,,,,,,,,,,,,,,,179.6407,181.1935,181.1935,183.6524,return,0.8979,,24.08854167,0,21,21,5,1,FBP-YG-81.png,0.35,1.2,6,0.75,,,,,,,,,,,,,,,,,,,,,,,,,,,,,,,,,,,,,,,,,,,,,
,,,,,V3_069,18,female,2024-11-16_17h03.19.839,jersey_experiment_5_v3,2023.2.2,Win32,85.47008547,,,,,,,,,,,,,,,,183.6526,185.2054,185.2055,187.8878,return,0.7613,,74.609375,0,22,22,28,1,FBP-PT-19.png,0.43,1.2,29,0.75,,,,,,,,,,,,,,,,,,,,,,,,,,,,,,,,,,,,,,,,,,,,,
,,,,,V3_069,18,female,2024-11-16_17h03.19.839,jersey_experiment_5_v3,2023.2.2,Win32,85.47008547,,,,,,,,,,,,,,,,187.8881,189.182,189.182,191.1114,return,0.7771,,74.47916667,0,23,23,43,1,FBP-OG-19.png,0.43,1.2,44,0.5,,,,,,,,,,,,,,,,,,,,,,,,,,,,,,,,,,,,,,,,,,,,,
,,,,,V3_069,18,female,2024-11-16_17h03.19.839,jersey_experiment_5_v3,2023.2.2,Win32,85.47008547,,,,,,,,,,,,,,,,191.1116,192.6645,192.6646,194.9116,return,0.7968,,50,0,24,24,46,1,FBP-RB-17.png,0.37,1.2,47,0.75,,,,,,,,,,,,,,,,,,,,,,,,,,,,,,,,,,,,,,,,,,,,,
,,,,,V3_069,18,female,2024-11-16_17h03.19.839,jersey_experiment_5_v3,2023.2.2,Win32,85.47008547,,,,,,,,,,,,,,,,194.9118,196.4532,196.4532,199.1236,return,0.7775,,49.86979167,0,25,25,25,1,FBP-PT-19.png,0.35,1.2,26,0.75,,,,,,,,,,,,,,,,,,,,,,,,,,,,,,,,,,,,,,,,,,,,,
,,,,,V3_069,18,female,2024-11-16_17h03.19.839,jersey_experiment_5_v3,2023.2.2,Win32,85.47008547,,,,,,,,,,,,,,,,199.1237,200.4178,200.4178,202.0532,return,0.7326,,49.86979167,0,26,26,32,1,FBP-OG-17.png,0.4,1.2,33,0.5,,,,,,,,,,,,,,,,,,,,,,,,,,,,,,,,,,,,,,,,,,,,,
,,,,,V3_069,18,female,2024-11-16_17h03.19.839,jersey_experiment_5_v3,2023.2.2,Win32,85.47008547,,,,,,,,,,,,,,,,202.0535,203.6062,203.6062,205.7826,return,0.7685,,74.47916667,0,27,27,27,1,FBP-PT-19.png,0.4,1.2,28,0.75,,,,,,,,,,,,,,,,,,,,,,,,,,,,,,,,,,,,,,,,,,,,,
,,,,,V3_069,18,female,2024-11-16_17h03.19.839,jersey_experiment_5_v3,2023.2.2,Win32,85.47008547,,,,,,,,,,,,,,,,205.7829,207.3357,207.3357,212.0066,return,1.1785,,99.47916667,0,28,28,13,1,FBP-YG-91.png,0.43,1.2,14,0.75,,,,,,,,,,,,,,,,,,,,,,,,,,,,,,,,,,,,,,,,,,,,,
,,,,,V3_069,18,female,2024-11-16_17h03.19.839,jersey_experiment_5_v3,2023.2.2,Win32,85.47008547,,,,,,,,,,,,,,,,212.0069,213.5594,213.5594,216.0068,return,0.8956,,49.609375,0,29,29,56,1,FBP-RB-19.png,0.37,1.2,57,0.75,,,,,,,,,,,,,,,,,,,,,,,,,,,,,,,,,,,,,,,,,,,,,
,,,,,V3_069,18,female,2024-11-16_17h03.19.839,jersey_experiment_5_v3,2023.2.2,Win32,85.47008547,,,,,,,,,,,,,,,,216.0072,217.5596,217.5597,219.8655,return,0.8111,,50.52083333,0,30,30,12,1,FBP-YG-91.png,0.4,1.2,13,0.75,,,,,,,,,,,,,,,,,,,,,,,,,,,,,,,,,,,,,,,,,,,,,
,,,,,V3_069,18,female,2024-11-16_17h03.19.839,jersey_experiment_5_v3,2023.2.2,Win32,85.47008547,,,,,,,,,,,,,,,,219.8659,221.4185,221.4186,223.4775,return,0.768,,100,0,31,31,49,1,FBP-RB-17.png,0.45,1.2,50,0.75,,,,,,,,,,,,,,,,,,,,,,,,,,,,,,,,,,,,,,,,,,,,,
,,,,,V3_069,18,female,2024-11-16_17h03.19.839,jersey_experiment_5_v3,2023.2.2,Win32,85.47008547,,,,,,,,,,,,,,,,223.4777,224.7717,224.7717,227.3364,return,0.6823,,100,0,32,32,39,1,FBP-OG-18.png,0.45,1.2,40,0.5,,,,,,,,,,,,,,,,,,,,,,,,,,,,,,,,,,,,,,,,,,,,,
,,,,,V3_069,18,female,2024-11-16_17h03.19.839,jersey_experiment_5_v3,2023.2.2,Win32,85.47008547,,,,,,,,,,,,,,,,227.3367,228.8895,228.8895,230.9369,return,0.7318,,49.73958333,0,33,33,22,1,FBP-PT-18.png,0.4,1.2,23,0.75,,,,,,,,,,,,,,,,,,,,,,,,,,,,,,,,,,,,,,,,,,,,,
,,,,,V3_069,18,female,2024-11-16_17h03.19.839,jersey_experiment_5_v3,2023.2.2,Win32,85.47008547,,,,,,,,,,,,,,,,230.9372,232.4896,232.4896,234.1602,return,0.7963,,75.390625,0,34,34,18,1,FBP-PT-17.png,0.43,1.2,19,0.75,,,,,,,,,,,,,,,,,,,,,,,,,,,,,,,,,,,,,,,,,,,,,
,,,,,V3_069,18,female,2024-11-16_17h03.19.839,jersey_experiment_5_v3,2023.2.2,Win32,85.47008547,,,,,,,,,,,,,,,,234.1604,235.4544,235.4545,237.2899,return,0.7317,,25.13020833,0,35,35,36,1,FBP-OG-18.png,0.37,1.2,37,0.5,,,,,,,,,,,,,,,,,,,,,,,,,,,,,,,,,,,,,,,,,,,,,
,,,,,V3_069,18,female,2024-11-16_17h03.19.839,jersey_experiment_5_v3,2023.2.2,Win32,85.47008547,,,,,,,,,,,,,,,,237.2901,238.8428,238.8428,240.4546,return,0.7075,,74.73958333,0,36,36,52,1,FBP-RB-18.png,0.4,1.2,53,0.75,,,,,,,,,,,,,,,,,,,,,,,,,,,,,,,,,,,,,,,,,,,,,
,,,,,V3_069,18,female,2024-11-16_17h03.19.839,jersey_experiment_5_v3,2023.2.2,Win32,85.47008547,,,,,,,,,,,,,,,,240.4549,242.0077,242.0077,243.5841,return,0.7937,,99.73958333,0,37,37,8,1,FBP-YG-81.png,0.43,1.2,9,0.75,,,,,,,,,,,,,,,,,,,,,,,,,,,,,,,,,,,,,,,,,,,,,
,,,,,V3_069,18,female,2024-11-16_17h03.19.839,jersey_experiment_5_v3,2023.2.2,Win32,85.47008547,,,,,,,,,,,,,,,,243.5844,244.8782,244.8783,247.0076,return,0.8063,,24.609375,0,38,38,35,1,FBP-OG-18.png,0.35,1.2,36,0.5,,,,,,,,,,,,,,,,,,,,,,,,,,,,,,,,,,,,,,,,,,,,,
,,,,,V3_069,18,female,2024-11-16_17h03.19.839,jersey_experiment_5_v3,2023.2.2,Win32,85.47008547,,,,,,,,,,,,,,,,247.0079,248.5606,248.5607,250.6667,return,0.6417,,74.73958333,0,39,39,2,1,FBP-YG-71.png,0.4,1.2,3,0.75,,,,,,,,,,,,,,,,,,,,,,,,,,,,,,,,,,,,,,,,,,,,,
,,,,,V3_069,18,female,2024-11-16_17h03.19.839,jersey_experiment_5_v3,2023.2.2,Win32,85.47008547,,,,,,,,,,,,,,,,250.6669,251.9608,251.9609,253.6316,return,0.6781,,75,0,40,40,38,1,FBP-OG-18.png,0.43,1.2,39,0.5,,,,,,,,,,,,,,,,,,,,,,,,,,,,,,,,,,,,,,,,,,,,,
,,,,,V3_069,18,female,2024-11-16_17h03.19.839,jersey_experiment_5_v3,2023.2.2,Win32,85.47008547,,,,,,,,,,,,,,,,253.6318,255.1847,255.1847,257.6082,return,0.8095,,50.91145833,0,41,41,51,1,FBP-RB-18.png,0.37,1.2,52,0.75,,,,,,,,,,,,,,,,,,,,,,,,,,,,,,,,,,,,,,,,,,,,,
,,,,,V3_069,18,female,2024-11-16_17h03.19.839,jersey_experiment_5_v3,2023.2.2,Win32,85.47008547,,,,,,,,,,,,,,,,257.6084,258.9022,258.9022,261.9847,return,1.2417,,99.73958333,0,42,42,33,1,FBP-OG-17.png,0.43,1.2,34,0.5,,,,,,,,,,,,,,,,,,,,,,,,,,,,,,,,,,,,,,,,,,,,,
,,,,,V3_069,18,female,2024-11-16_17h03.19.839,jersey_experiment_5_v3,2023.2.2,Win32,85.47008547,,,,,,,,,,,,,,,,261.985,263.5377,263.5378,264.7379,return,0.6887,,99.47916667,0,43,43,24,1,FBP-PT-18.png,0.45,1.2,25,0.75,,,,,,,,,,,,,,,,,,,,,,,,,,,,,,,,,,,,,,,,,,,,,
,,,,,V3_069,18,female,2024-11-16_17h03.19.839,jersey_experiment_5_v3,2023.2.2,Win32,85.47008547,,,,,,,,,,,,,,,,264.7381,266.291,266.2911,268.2911,return,0.9101,,1.171875,0,44,44,10,1,FBP-YG-91.png,0.35,1.2,11,0.75,,,,,,,,,,,,,,,,,,,,,,,,,,,,,,,,,,,,,,,,,,,,,
,,,,,V3_069,18,female,2024-11-16_17h03.19.839,jersey_experiment_5_v3,2023.2.2,Win32,85.47008547,,,,,,,,,,,,,,,,268.2913,269.8439,269.844,272.3851,return,1.2171,,76.04166667,0,45,45,48,1,FBP-RB-17.png,0.43,1.2,49,0.75,,,,,,,,,,,,,,,,,,,,,,,,,,,,,,,,,,,,,,,,,,,,,
,,,,,V3_069,18,female,2024-11-16_17h03.19.839,jersey_experiment_5_v3,2023.2.2,Win32,85.47008547,,,,,,,,,,,,,,,,272.3852,273.9382,273.9382,277.1618,return,0.824,,99.21875,0,46,46,53,1,FBP-RB-18.png,0.43,1.2,54,0.75,,,,,,,,,,,,,,,,,,,,,,,,,,,,,,,,,,,,,,,,,,,,,
,,,,,V3_069,18,female,2024-11-16_17h03.19.839,jersey_experiment_5_v3,2023.2.2,Win32,85.47008547,,,,,,,,,,,,,,,,277.1621,278.7149,278.715,280.0208,return,0.7531,,99.609375,0,47,47,54,1,FBP-RB-18.png,0.45,1.2,55,0.75,,,,,,,,,,,,,,,,,,,,,,,,,,,,,,,,,,,,,,,,,,,,,
,,,,,V3_069,18,female,2024-11-16_17h03.19.839,jersey_experiment_5_v3,2023.2.2,Win32,85.47008547,,,,,,,,,,,,,,,,280.0211,281.5737,281.5738,283.7031,return,0.7304,,50.26041667,0,48,48,7,1,FBP-YG-81.png,0.4,1.2,8,0.75,,,,,,,,,,,,,,,,,,,,,,,,,,,,,,,,,,,,,,,,,,,,,
,,,,,V3_069,18,female,2024-11-16_17h03.19.839,jersey_experiment_5_v3,2023.2.2,Win32,85.47008547,,,,,,,,,,,,,,,,283.7034,285.2446,285.2447,287.1034,return,0.761,,25.390625,0,49,49,45,1,FBP-RB-17.png,0.35,1.2,46,0.75,,,,,,,,,,,,,,,,,,,,,,,,,,,,,,,,,,,,,,,,,,,,,
,,,,,V3_069,18,female,2024-11-16_17h03.19.839,jersey_experiment_5_v3,2023.2.2,Win32,85.47008547,,,,,,,,,,,,,,,,287.1036,288.6565,288.6566,290.1505,return,0.6846,,24.47916667,0,50,50,20,1,FBP-PT-18.png,0.35,1.2,21,0.75,,,,,,,,,,,,,,,,,,,,,,,,,,,,,,,,,,,,,,,,,,,,,
,,,,,V3_069,18,female,2024-11-16_17h03.19.839,jersey_experiment_5_v3,2023.2.2,Win32,85.47008547,,,,,,,,,,,,,,,,290.1508,291.7035,291.7036,294.48,return,0.8083,,98.828125,0,51,51,19,1,FBP-PT-17.png,0.45,1.2,20,0.75,,,,,,,,,,,,,,,,,,,,,,,,,,,,,,,,,,,,,,,,,,,,,
,,,,,V3_069,18,female,2024-11-16_17h03.19.839,jersey_experiment_5_v3,2023.2.2,Win32,85.47008547,,,,,,,,,,,,,,,,294.4803,296.0331,296.0332,298.2332,return,0.768,,99.21875,0,52,52,4,1,FBP-YG-71.png,0.45,1.2,5,0.75,,,,,,,,,,,,,,,,,,,,,,,,,,,,,,,,,,,,,,,,,,,,,
,,,,,V3_069,18,female,2024-11-16_17h03.19.839,jersey_experiment_5_v3,2023.2.2,Win32,85.47008547,,,,,,,,,,,,,,,,298.2334,299.7862,299.7863,302.1157,return,0.7791,,49.34895833,0,53,53,17,1,FBP-PT-17.png,0.4,1.2,18,0.75,,,,,,,,,,,,,,,,,,,,,,,,,,,,,,,,,,,,,,,,,,,,,
,,,,,V3_069,18,female,2024-11-16_17h03.19.839,jersey_experiment_5_v3,2023.2.2,Win32,85.47008547,,,,,,,,,,,,,,,,302.116,303.6687,303.6687,305.8923,return,0.8981,,75.13020833,0,54,54,58,1,FBP-RB-19.png,0.43,1.2,59,0.75,,,,,,,,,,,,,,,,,,,,,,,,,,,,,,,,,,,,,,,,,,,,,
,,,,,V3_069,18,female,2024-11-16_17h03.19.839,jersey_experiment_5_v3,2023.2.2,Win32,85.47008547,,,,,,,,,,,,,,,,305.8926,307.1866,307.1866,309.4924,return,1.016,,26.43229167,0,55,55,40,1,FBP-OG-19.png,0.35,1.2,41,0.5,,,,,,,,,,,,,,,,,,,,,,,,,,,,,,,,,,,,,,,,,,,,,
,,,,,V3_069,18,female,2024-11-16_17h03.19.839,jersey_experiment_5_v3,2023.2.2,Win32,85.47008547,,,,,,,,,,,,,,,,309.4927,311.0456,311.0457,312.9044,return,0.7851,,26.04166667,0,56,56,26,1,FBP-PT-19.png,0.37,1.2,27,0.75,,,,,,,,,,,,,,,,,,,,,,,,,,,,,,,,,,,,,,,,,,,,,
,,,,,V3_069,18,female,2024-11-16_17h03.19.839,jersey_experiment_5_v3,2023.2.2,Win32,85.47008547,,,,,,,,,,,,,,,,312.9047,314.4574,314.4574,317.6338,return,0.8167,,99.73958333,0,57,57,3,1,FBP-YG-71.png,0.43,1.2,4,0.75,,,,,,,,,,,,,,,,,,,,,,,,,,,,,,,,,,,,,,,,,,,,,
,,,,,V3_069,18,female,2024-11-16_17h03.19.839,jersey_experiment_5_v3,2023.2.2,Win32,85.47008547,,,,,,,,,,,,,,,,317.6341,319.187,319.187,320.8575,return,0.7395,,25.78125,0,58,58,16,1,FBP-PT-17.png,0.37,1.2,17,0.75,,,,,,,,,,,,,,,,,,,,,,,,,,,,,,,,,,,,,,,,,,,,,
,,,,,V3_069,18,female,2024-11-16_17h03.19.839,jersey_experiment_5_v3,2023.2.2,Win32,85.47008547,,,,,,,,,,,,,,,,320.8577,322.1517,322.1517,323.94,return,0.6725,,25,0,59,59,42,1,FBP-OG-19.png,0.4,1.2,43,0.5,,,,,,,,,,,,,,,,,,,,,,,,,,,,,,,,,,,,,,,,,,,,,
,,,,,V3_069,18,female,2024-11-16_17h03.19.839,jersey_experiment_5_v3,2023.2.2,Win32,85.47008547,,,,,,,,,,,,,,,,323.9417,325.2341,325.2342,326.9284,return,0.7475,,24.47916667,,,,,,FBP-OG-71.png,0.37,1.2,32,0.5,0,0,0,31,1,,,,,,,,,,,,,,,,,,,,,,,,,,,,,,,,,,,,,,,,
,,,,,V3_069,18,female,2024-11-16_17h03.19.839,jersey_experiment_5_v3,2023.2.2,Win32,85.47008547,,,,,,,,,,,,,,,,326.9287,328.2224,328.2224,329.6578,return,0.739,,25.78125,,,,,,FBP-OG-91.png,0.4,1.2,43,0.5,0,1,1,42,1,,,,,,,,,,,,,,,,,,,,,,,,,,,,,,,,,,,,,,,,
,,,,,V3_069,18,female,2024-11-16_17h03.19.839,jersey_experiment_5_v3,2023.2.2,Win32,85.47008547,,,,,,,,,,,,,,,,329.6581,331.211,331.211,332.7049,return,0.6306,,75.13020833,,,,,,FBP-PT-71.png,0.4,1.2,18,0.75,0,2,2,17,1,,,,,,,,,,,,,,,,,,,,,,,,,,,,,,,,,,,,,,,,
,,,,,V3_069,18,female,2024-11-16_17h03.19.839,jersey_experiment_5_v3,2023.2.2,Win32,85.47008547,,,,,,,,,,,,,,,,332.7052,334.2581,334.2581,335.8346,return,0.6605,,99.21875,,,,,,FBP-RB-91.png,0.45,1.2,60,0.75,0,3,3,59,1,,,,,,,,,,,,,,,,,,,,,,,,,,,,,,,,,,,,,,,,
,,,,,V3_069,18,female,2024-11-16_17h03.19.839,jersey_experiment_5_v3,2023.2.2,Win32,85.47008547,,,,,,,,,,,,,,,,335.8349,337.1289,337.1289,340.3289,return,0.6823,,99.86979167,,,,,,FBP-OG-71.png,0.45,1.2,35,0.5,0,4,4,34,1,,,,,,,,,,,,,,,,,,,,,,,,,,,,,,,,,,,,,,,,
,,,,,V3_069,18,female,2024-11-16_17h03.19.839,jersey_experiment_5_v3,2023.2.2,Win32,85.47008547,,,,,,,,,,,,,,,,340.3291,341.6229,341.6229,344.5643,return,0.7532,,75.26041667,,,,,,FBP-OG-71.png,0.43,1.2,34,0.5,0,5,5,33,1,,,,,,,,,,,,,,,,,,,,,,,,,,,,,,,,,,,,,,,,
,,,,,V3_069,18,female,2024-11-16_17h03.19.839,jersey_experiment_5_v3,2023.2.2,Win32,85.47008547,,,,,,,,,,,,,,,,344.5646,346.1173,346.1173,347.3173,return,0.6503,,73.95833333,,,,,,FBP-YG-17.png,0.4,1.2,3,0.75,0,6,6,2,1,,,,,,,,,,,,,,,,,,,,,,,,,,,,,,,,,,,,,,,,
,,,,,V3_069,18,female,2024-11-16_17h03.19.839,jersey_experiment_5_v3,2023.2.2,Win32,85.47008547,,,,,,,,,,,,,,,,347.3176,348.8705,348.8705,351.094,return,1.1083,,49.47916667,,,,,,FBP-YG-18.png,0.4,1.2,8,0.75,0,7,7,7,1,,,,,,,,,,,,,,,,,,,,,,,,,,,,,,,,,,,,,,,,
,,,,,V3_069,18,female,2024-11-16_17h03.19.839,jersey_experiment_5_v3,2023.2.2,Win32,85.47008547,,,,,,,,,,,,,,,,351.0943,352.647,352.647,354.5058,return,0.6207,,75.13020833,,,,,,FBP-PT-81.png,0.43,1.2,24,0.75,0,8,8,23,1,,,,,,,,,,,,,,,,,,,,,,,,,,,,,,,,,,,,,,,,
,,,,,V3_069,18,female,2024-11-16_17h03.19.839,jersey_experiment_5_v3,2023.2.2,Win32,85.47008547,,,,,,,,,,,,,,,,354.5061,356.0588,356.0589,358.106,return,0.8341,,24.21875,,,,,,FBP-PT-71.png,0.35,1.2,16,0.75,0,9,9,15,1,,,,,,,,,,,,,,,,,,,,,,,,,,,,,,,,,,,,,,,,
,,,,,V3_069,18,female,2024-11-16_17h03.19.839,jersey_experiment_5_v3,2023.2.2,Win32,85.47008547,,,,,,,,,,,,,,,,358.1063,359.659,359.6591,361.2826,return,0.6731,,25.26041667,,,,,,FBP-RB-81.png,0.35,1.2,51,0.75,0,10,10,50,1,,,,,,,,,,,,,,,,,,,,,,,,,,,,,,,,,,,,,,,,
,,,,,V3_069,18,female,2024-11-16_17h03.19.839,jersey_experiment_5_v3,2023.2.2,Win32,85.47008547,,,,,,,,,,,,,,,,361.2829,362.8356,362.8356,364.7415,return,0.709,,51.04166667,,,,,,FBP-RB-71.png,0.37,1.2,47,0.75,0,11,11,46,1,,,,,,,,,,,,,,,,,,,,,,,,,,,,,,,,,,,,,,,,
,,,,,V3_069,18,female,2024-11-16_17h03.19.839,jersey_experiment_5_v3,2023.2.2,Win32,85.47008547,,,,,,,,,,,,,,,,364.7419,366.2946,366.2946,367.8123,return,0.6836,,49.08854167,,,,,,FBP-RB-91.png,0.37,1.2,57,0.75,0,12,12,56,1,,,,,,,,,,,,,,,,,,,,,,,,,,,,,,,,,,,,,,,,
,,,,,V3_069,18,female,2024-11-16_17h03.19.839,jersey_experiment_5_v3,2023.2.2,Win32,85.47008547,,,,,,,,,,,,,,,,367.8125,369.3652,369.3653,371.4476,return,0.683,,50,,,,,,FBP-PT-71.png,0.43,1.2,19,0.75,0,13,13,18,1,,,,,,,,,,,,,,,,,,,,,,,,,,,,,,,,,,,,,,,,
,,,,,V3_069,18,female,2024-11-16_17h03.19.839,jersey_experiment_5_v3,2023.2.2,Win32,85.47008547,,,,,,,,,,,,,,,,371.4478,373.0007,373.0007,374.6948,return,0.6595,,50.26041667,,,,,,FBP-RB-81.png,0.37,1.2,52,0.75,0,14,14,51,1,,,,,,,,,,,,,,,,,,,,,,,,,,,,,,,,,,,,,,,,
,,,,,V3_069,18,female,2024-11-16_17h03.19.839,jersey_experiment_5_v3,2023.2.2,Win32,85.47008547,,,,,,,,,,,,,,,,374.6951,376.248,376.2481,377.8597,return,0.7693,,23.828125,,,,,,FBP-YG-17.png,0.35,1.2,1,0.75,0,15,15,0,1,,,,,,,,,,,,,,,,,,,,,,,,,,,,,,,,,,,,,,,,
,,,,,V3_069,18,female,2024-11-16_17h03.19.839,jersey_experiment_5_v3,2023.2.2,Win32,85.47008547,,,,,,,,,,,,,,,,377.8599,379.4126,379.4126,381.3186,return,0.7553,,98.69791667,,,,,,FBP-YG-17.png,0.45,1.2,5,0.75,0,16,16,4,1,,,,,,,,,,,,,,,,,,,,,,,,,,,,,,,,,,,,,,,,
,,,,,V3_069,18,female,2024-11-16_17h03.19.839,jersey_experiment_5_v3,2023.2.2,Win32,85.47008547,,,,,,,,,,,,,,,,381.3188,382.8718,382.8718,384.5187,return,0.7685,,98.69791667,,,,,,FBP-RB-81.png,0.45,1.2,55,0.75,0,17,17,54,1,,,,,,,,,,,,,,,,,,,,,,,,,,,,,,,,,,,,,,,,
,,,,,V3_069,18,female,2024-11-16_17h03.19.839,jersey_experiment_5_v3,2023.2.2,Win32,85.47008547,,,,,,,,,,,,,,,,384.5189,386.0717,386.0717,387.3071,return,0.6468,,98.69791667,,,,,,FBP-RB-91.png,0.43,1.2,59,0.75,0,18,18,58,1,,,,,,,,,,,,,,,,,,,,,,,,,,,,,,,,,,,,,,,,
,,,,,V3_069,18,female,2024-11-16_17h03.19.839,jersey_experiment_5_v3,2023.2.2,Win32,85.47008547,,,,,,,,,,,,,,,,387.3072,388.86,388.8601,393.0131,return,1.294,,99.609375,,,,,,FBP-RB-71.png,0.43,1.2,49,0.75,0,19,19,48,1,,,,,,,,,,,,,,,,,,,,,,,,,,,,,,,,,,,,,,,,
,,,,,V3_069,18,female,2024-11-16_17h03.19.839,jersey_experiment_5_v3,2023.2.2,Win32,85.47008547,,,,,,,,,,,,,,,,393.0134,394.5664,394.5664,397.2251,return,0.1882,,75.13020833,,,,,,FBP-PT-91.png,0.43,1.2,29,0.75,0,20,20,28,1,,,,,,,,,,,,,,,,,,,,,,,,,,,,,,,,,,,,,,,,
,,,,,V3_069,18,female,2024-11-16_17h03.19.839,jersey_experiment_5_v3,2023.2.2,Win32,85.47008547,,,,,,,,,,,,,,,,397.2255,398.7782,398.7782,400.1193,return,0.233,,23.69791667,,,,,,FBP-RB-91.png,0.35,1.2,56,0.75,0,21,21,55,1,,,,,,,,,,,,,,,,,,,,,,,,,,,,,,,,,,,,,,,,
,,,,,V3_069,18,female,2024-11-16_17h03.19.839,jersey_experiment_5_v3,2023.2.2,Win32,85.47008547,,,,,,,,,,,,,,,,400.1195,401.6723,401.6723,403.7783,return,0.1471,,76.171875,,,,,,FBP-YG-19.png,0.4,1.2,13,0.75,0,22,22,12,1,,,,,,,,,,,,,,,,,,,,,,,,,,,,,,,,,,,,,,,,
,,,,,V3_069,18,female,2024-11-16_17h03.19.839,jersey_experiment_5_v3,2023.2.2,Win32,85.47008547,,,,,,,,,,,,,,,,403.7785,405.0724,405.0725,406.849,return,0.1938,,25.65104167,,,,,,FBP-OG-71.png,0.35,1.2,31,0.5,0,23,23,30,1,,,,,,,,,,,,,,,,,,,,,,,,,,,,,,,,,,,,,,,,
,,,,,V3_069,18,female,2024-11-16_17h03.19.839,jersey_experiment_5_v3,2023.2.2,Win32,85.47008547,,,,,,,,,,,,,,,,406.8492,408.4018,408.4019,410.1668,return,0.1334,,74.47916667,,,,,,FBP-RB-71.png,0.4,1.2,48,0.75,0,24,24,47,1,,,,,,,,,,,,,,,,,,,,,,,,,,,,,,,,,,,,,,,,
,,,,,V3_069,18,female,2024-11-16_17h03.19.839,jersey_experiment_5_v3,2023.2.2,Win32,85.47008547,,,,,,,,,,,,,,,,410.167,411.4611,411.4611,412.4728,return,0.0631,,24.34895833,,,,,,FBP-OG-91.png,0.37,1.2,42,0.5,0,25,25,41,1,,,,,,,,,,,,,,,,,,,,,,,,,,,,,,,,,,,,,,,,
,,,,,V3_069,18,female,2024-11-16_17h03.19.839,jersey_experiment_5_v3,2023.2.2,Win32,85.47008547,,,,,,,,,,,,,,,,412.473,414.0141,414.0142,415.861,return,0.2277,,98.56770833,,,,,,FBP-YG-18.png,0.45,1.2,10,0.75,0,26,26,9,1,,,,,,,,,,,,,,,,,,,,,,,,,,,,,,,,,,,,,,,,
,,,,,V3_069,18,female,2024-11-16_17h03.19.839,jersey_experiment_5_v3,2023.2.2,Win32,85.47008547,,,,,,,,,,,,,,,,415.8613,417.1553,417.1553,418.6965,return,0.128,,48.95833333,,,,,,FBP-OG-81.png,0.35,1.2,36,0.5,0,27,27,35,1,,,,,,,,,,,,,,,,,,,,,,,,,,,,,,,,,,,,,,,,
,,,,,V3_069,18,female,2024-11-16_17h03.19.839,jersey_experiment_5_v3,2023.2.2,Win32,85.47008547,,,,,,,,,,,,,,,,418.6968,419.9906,419.9907,420.673,return,0.0874,,50.65104167,,,,,,FBP-OG-81.png,0.37,1.2,37,0.5,0,28,28,36,1,,,,,,,,,,,,,,,,,,,,,,,,,,,,,,,,,,,,,,,,
,,,,,V3_069,18,female,2024-11-16_17h03.19.839,jersey_experiment_5_v3,2023.2.2,Win32,85.47008547,,,,,,,,,,,,,,,,420.6732,422.226,422.226,422.9201,return,0.1646,,50.65104167,,,,,,FBP-YG-19.png,0.35,1.2,11,0.75,0,29,29,10,1,,,,,,,,,,,,,,,,,,,,,,,,,,,,,,,,,,,,,,,,
,,,,,V3_069,18,female,2024-11-16_17h03.19.839,jersey_experiment_5_v3,2023.2.2,Win32,85.47008547,,,,,,,,,,,,,,,,422.9203,424.2144,424.2144,424.7437,return,0.2358,,50.65104167,,,,,,FBP-OG-71.png,0.4,1.2,33,0.5,0,30,30,32,1,,,,,,,,,,,,,,,,,,,,,,,,,,,,,,,,,,,,,,,,
,,,,,V3_069,18,female,2024-11-16_17h03.19.839,jersey_experiment_5_v3,2023.2.2,Win32,85.47008547,,,,,,,,,,,,,,,,424.744,426.2967,426.2967,426.932,return,0.1537,,50.65104167,,,,,,FBP-YG-18.png,0.37,1.2,7,0.75,0,31,31,6,1,,,,,,,,,,,,,,,,,,,,,,,,,,,,,,,,,,,,,,,,
,,,,,V3_069,18,female,2024-11-16_17h03.19.839,jersey_experiment_5_v3,2023.2.2,Win32,85.47008547,,,,,,,,,,,,,,,,426.9322,428.485,428.485,429.1202,return,0.1491,,50.65104167,,,,,,FBP-PT-81.png,0.37,1.2,22,0.75,0,32,32,21,1,,,,,,,,,,,,,,,,,,,,,,,,,,,,,,,,,,,,,,,,
,,,,,V3_069,18,female,2024-11-16_17h03.19.839,jersey_experiment_5_v3,2023.2.2,Win32,85.47008547,,,,,,,,,,,,,,,,429.1205,430.6735,430.6735,431.6263,return,0.1414,,74.47916667,,,,,,FBP-RB-81.png,0.43,1.2,54,0.75,0,33,33,53,1,,,,,,,,,,,,,,,,,,,,,,,,,,,,,,,,,,,,,,,,
,,,,,V3_069,18,female,2024-11-16_17h03.19.839,jersey_experiment_5_v3,2023.2.2,Win32,85.47008547,,,,,,,,,,,,,,,,431.6264,433.1676,433.1677,434.6028,return,0.1653,,99.34895833,,,,,,FBP-PT-71.png,0.45,1.2,20,0.75,0,34,34,19,1,,,,,,,,,,,,,,,,,,,,,,,,,,,,,,,,,,,,,,,,
,,,,,V3_069,18,female,2024-11-16_17h03.19.839,jersey_experiment_5_v3,2023.2.2,Win32,85.47008547,,,,,,,,,,,,,,,,434.6029,436.1441,436.1441,436.8265,return,0.2113,,98.95833333,,,,,,FBP-YG-17.png,0.43,1.2,4,0.75,0,35,35,3,1,,,,,,,,,,,,,,,,,,,,,,,,,,,,,,,,,,,,,,,,
,,,,,V3_069,18,female,2024-11-16_17h03.19.839,jersey_experiment_5_v3,2023.2.2,Win32,85.47008547,,,,,,,,,,,,,,,,436.8266,438.1206,438.1206,438.8266,return,0.1624,,98.95833333,,,,,,FBP-OG-91.png,0.45,1.2,45,0.5,0,36,36,44,1,,,,,,,,,,,,,,,,,,,,,,,,,,,,,,,,,,,,,,,,
,,,,,V3_069,18,female,2024-11-16_17h03.19.839,jersey_experiment_5_v3,2023.2.2,Win32,85.47008547,,,,,,,,,,,,,,,,438.8268,440.3796,440.3796,441.0266,return,0.1465,,98.95833333,,,,,,FBP-PT-81.png,0.45,1.2,25,0.75,0,37,37,24,1,,,,,,,,,,,,,,,,,,,,,,,,,,,,,,,,,,,,,,,,
,,,,,V3_069,18,female,2024-11-16_17h03.19.839,jersey_experiment_5_v3,2023.2.2,Win32,85.47008547,,,,,,,,,,,,,,,,441.0268,442.3207,442.3207,443.062,return,0.1559,,98.95833333,,,,,,FBP-OG-81.png,0.43,1.2,39,0.5,0,38,38,38,1,,,,,,,,,,,,,,,,,,,,,,,,,,,,,,,,,,,,,,,,
,,,,,V3_069,18,female,2024-11-16_17h03.19.839,jersey_experiment_5_v3,2023.2.2,Win32,85.47008547,,,,,,,,,,,,,,,,443.0622,444.6152,444.6152,446.2974,return,0.1648,,24.609375,,,,,,FBP-PT-91.png,0.37,1.2,27,0.75,0,39,39,26,1,,,,,,,,,,,,,,,,,,,,,,,,,,,,,,,,,,,,,,,,
,,,,,V3_069,18,female,2024-11-16_17h03.19.839,jersey_experiment_5_v3,2023.2.2,Win32,85.47008547,,,,,,,,,,,,,,,,446.2976,447.8504,447.8504,449.5681,return,0.1259,,49.34895833,,,,,,FBP-PT-71.png,0.37,1.2,17,0.75,0,40,40,16,1,,,,,,,,,,,,,,,,,,,,,,,,,,,,,,,,,,,,,,,,
,,,,,V3_069,18,female,2024-11-16_17h03.19.839,jersey_experiment_5_v3,2023.2.2,Win32,85.47008547,,,,,,,,,,,,,,,,449.5684,451.1211,451.1211,451.6976,return,0.1465,,49.08854167,,,,,,FBP-PT-81.png,0.4,1.2,23,0.75,0,41,41,22,1,,,,,,,,,,,,,,,,,,,,,,,,,,,,,,,,,,,,,,,,
,,,,,V3_069,18,female,2024-11-16_17h03.19.839,jersey_experiment_5_v3,2023.2.2,Win32,85.47008547,,,,,,,,,,,,,,,,451.6978,453.2506,453.2507,453.8742,return,0.1349,,49.08854167,,,,,,FBP-RB-81.png,0.4,1.2,53,0.75,0,42,42,52,1,,,,,,,,,,,,,,,,,,,,,,,,,,,,,,,,,,,,,,,,
,,,,,V3_069,18,female,2024-11-16_17h03.19.839,jersey_experiment_5_v3,2023.2.2,Win32,85.47008547,,,,,,,,,,,,,,,,453.8743,455.4272,455.4272,456.4037,return,0.1108,,24.08854167,,,,,,FBP-RB-71.png,0.35,1.2,46,0.75,0,43,43,45,1,,,,,,,,,,,,,,,,,,,,,,,,,,,,,,,,,,,,,,,,
,,,,,V3_069,18,female,2024-11-16_17h03.19.839,jersey_experiment_5_v3,2023.2.2,Win32,85.47008547,,,,,,,,,,,,,,,,456.4038,457.9569,457.9569,459.3214,return,0.1564,,99.609375,,,,,,FBP-RB-71.png,0.45,1.2,50,0.75,0,44,44,49,1,,,,,,,,,,,,,,,,,,,,,,,,,,,,,,,,,,,,,,,,
,,,,,V3_069,18,female,2024-11-16_17h03.19.839,jersey_experiment_5_v3,2023.2.2,Win32,85.47008547,,,,,,,,,,,,,,,,459.3216,460.6157,460.6157,461.3215,return,0.2018,,99.609375,,,,,,FBP-OG-81.png,0.45,1.2,40,0.5,0,45,45,39,1,,,,,,,,,,,,,,,,,,,,,,,,,,,,,,,,,,,,,,,,
,,,,,V3_069,18,female,2024-11-16_17h03.19.839,jersey_experiment_5_v3,2023.2.2,Win32,85.47008547,,,,,,,,,,,,,,,,461.3217,462.863,462.863,464.0864,return,0.0097,,74.73958333,,,,,,FBP-YG-19.png,0.37,1.2,12,0.75,0,46,46,11,1,,,,,,,,,,,,,,,,,,,,,,,,,,,,,,,,,,,,,,,,
,,,,,V3_069,18,female,2024-11-16_17h03.19.839,jersey_experiment_5_v3,2023.2.2,Win32,85.47008547,,,,,,,,,,,,,,,,464.0866,465.6394,465.6394,467.2158,return,0.2673,,74.73958333,,,,,,FBP-RB-91.png,0.4,1.2,58,0.75,0,47,47,57,1,,,,,,,,,,,,,,,,,,,,,,,,,,,,,,,,,,,,,,,,
,,,,,V3_069,18,female,2024-11-16_17h03.19.839,jersey_experiment_5_v3,2023.2.2,Win32,85.47008547,,,,,,,,,,,,,,,,467.2161,468.7689,468.7689,475.0162,return,0.1625,,74.86979167,,,,,,FBP-PT-91.png,0.35,1.2,26,0.75,0,48,48,25,1,,,,,,,,,,,,,,,,,,,,,,,,,,,,,,,,,,,,,,,,
,,,,,V3_069,18,female,2024-11-16_17h03.19.839,jersey_experiment_5_v3,2023.2.2,Win32,85.47008547,,,,,,,,,,,,,,,,475.0164,476.5693,476.5693,478.0988,return,0.1227,,74.34895833,,,,,,FBP-YG-19.png,0.45,1.2,15,0.75,0,49,49,14,1,,,,,,,,,,,,,,,,,,,,,,,,,,,,,,,,,,,,,,,,
,,,,,V3_069,18,female,2024-11-16_17h03.19.839,jersey_experiment_5_v3,2023.2.2,Win32,85.47008547,,,,,,,,,,,,,,,,478.0991,479.652,479.652,480.7106,return,0.1322,,23.828125,,,,,,FBP-PT-81.png,0.35,1.2,21,0.75,0,50,50,20,1,,,,,,,,,,,,,,,,,,,,,,,,,,,,,,,,,,,,,,,,
,,,,,V3_069,18,female,2024-11-16_17h03.19.839,jersey_experiment_5_v3,2023.2.2,Win32,85.47008547,,,,,,,,,,,,,,,,480.7108,482.2636,482.2636,483.2634,return,0.0868,,49.86979167,,,,,,FBP-YG-18.png,0.35,1.2,6,0.75,0,51,51,5,1,,,,,,,,,,,,,,,,,,,,,,,,,,,,,,,,,,,,,,,,
,,,,,V3_069,18,female,2024-11-16_17h03.19.839,jersey_experiment_5_v3,2023.2.2,Win32,85.47008547,,,,,,,,,,,,,,,,483.2636,484.805,484.8051,486.499,return,0.1581,,99.86979167,,,,,,FBP-PT-91.png,0.45,1.2,30,0.75,0,52,52,29,1,,,,,,,,,,,,,,,,,,,,,,,,,,,,,,,,,,,,,,,,
,,,,,V3_069,18,female,2024-11-16_17h03.19.839,jersey_experiment_5_v3,2023.2.2,Win32,85.47008547,,,,,,,,,,,,,,,,486.4993,487.7931,487.7931,489.8756,return,0.4853,,74.21875,,,,,,FBP-OG-81.png,0.4,1.2,38,0.5,0,53,53,37,1,,,,,,,,,,,,,,,,,,,,,,,,,,,,,,,,,,,,,,,,
,,,,,V3_069,18,female,2024-11-16_17h03.19.839,jersey_experiment_5_v3,2023.2.2,Win32,85.47008547,,,,,,,,,,,,,,,,489.8758,491.4286,491.4286,492.4521,return,0.0033,,74.609375,,,,,,FBP-YG-17.png,0.37,1.2,2,0.75,0,54,54,1,1,,,,,,,,,,,,,,,,,,,,,,,,,,,,,,,,,,,,,,,,
,,,,,V3_069,18,female,2024-11-16_17h03.19.839,jersey_experiment_5_v3,2023.2.2,Win32,85.47008547,,,,,,,,,,,,,,,,492.4524,494.0054,494.0054,495.6522,return,0.1572,,99.609375,,,,,,FBP-YG-19.png,0.43,1.2,14,0.75,0,55,55,13,1,,,,,,,,,,,,,,,,,,,,,,,,,,,,,,,,,,,,,,,,
,,,,,V3_069,18,female,2024-11-16_17h03.19.839,jersey_experiment_5_v3,2023.2.2,Win32,85.47008547,,,,,,,,,,,,,,,,495.6525,497.2055,497.2055,498.5347,return,0.1292,,99.34895833,,,,,,FBP-YG-18.png,0.43,1.2,9,0.75,0,56,56,8,1,,,,,,,,,,,,,,,,,,,,,,,,,,,,,,,,,,,,,,,,
,,,,,V3_069,18,female,2024-11-16_17h03.19.839,jersey_experiment_5_v3,2023.2.2,Win32,85.47008547,,,,,,,,,,,,,,,,498.535,499.8289,499.829,500.4877,return,0.1262,,99.08854167,,,,,,FBP-OG-91.png,0.43,1.2,44,0.5,0,57,57,43,1,,,,,,,,,,,,,,,,,,,,,,,,,,,,,,,,,,,,,,,,
,,,,,V3_069,18,female,2024-11-16_17h03.19.839,jersey_experiment_5_v3,2023.2.2,Win32,85.47008547,,,,,,,,,,,,,,,,500.4881,501.7819,501.782,503.1114,return,0.1802,,23.4375,,,,,,FBP-OG-91.png,0.35,1.2,41,0.5,0,58,58,40,1,,,,,,,,,,,,,,,,,,,,,,,,,,,,,,,,,,,,,,,,
,,,,,V3_069,18,female,2024-11-16_17h03.19.839,jersey_experiment_5_v3,2023.2.2,Win32,85.47008547,,,,,,,,,,,,,,,,503.1117,504.6646,504.6646,505.5703,return,0.1002,,49.21875,,,,,,FBP-PT-91.png,0.4,1.2,28,0.75,0,59,59,27,1,,,,,,,,,,,,,,,,,,,,,,,,,,,,,,,,,,,,,,,,
,,,,,V3_069,18,female,2024-11-16_17h03.19.839,jersey_experiment_5_v3,2023.2.2,Win32,85.47008547,,,,,,,,,,,,,,,,,,,,,,,,,,,,,,,,,,,,,,,505.5704,625.5631,,,,,,,,,,,,,,,,,,,,,,,,,,,,,,,,,,,,,,
,,,,,V3_069,18,female,2024-11-16_17h03.19.839,jersey_experiment_5_v3,2023.2.2,Win32,85.47008547,,,,,,,,,,,,,,,,,,,,,,,,,,,,,,,,,,,,,,,,,625.5631,628.916,return,3.3451,,,,,,,,,,,,,,,,,,,,,,,,,,,,,,,,,,
,,,,,V3_069,18,female,2024-11-16_17h03.19.839,jersey_experiment_5_v3,2023.2.2,Win32,85.47008547,,,,,,,,,,,,,,,,628.9173,630.2104,630.2104,631.669,return,0.13,,49.21875,,,,,,FBP-YG-91.png,0.4,1.2,13,0.5,,,,,,,,,,,,,0,0,0,12,1,,,,,,,,,,,,,,,,,,,,,,,,,,,,
,,,,,V3_069,18,female,2024-11-16_17h03.19.839,jersey_experiment_5_v3,2023.2.2,Win32,85.47008547,,,,,,,,,,,,,,,,631.6693,632.9633,632.9633,634.2926,return,0.2136,,76.43229167,,,,,,FBP-YG-91.png,0.43,1.2,14,0.5,,,,,,,,,,,,,0,1,1,13,1,,,,,,,,,,,,,,,,,,,,,,,,,,,,
,,,,,V3_069,18,female,2024-11-16_17h03.19.839,jersey_experiment_5_v3,2023.2.2,Win32,85.47008547,,,,,,,,,,,,,,,,634.2929,635.587,635.587,637.2576,return,0.2036,,99.21875,,,,,,FBP-RB-18.png,0.45,1.2,55,0.5,,,,,,,,,,,,,0,2,2,54,1,,,,,,,,,,,,,,,,,,,,,,,,,,,,
,,,,,V3_069,18,female,2024-11-16_17h03.19.839,jersey_experiment_5_v3,2023.2.2,Win32,85.47008547,,,,,,,,,,,,,,,,637.2578,638.5517,638.5518,639.6224,return,0.1507,,74.21875,,,,,,FBP-YG-71.png,0.43,1.2,4,0.5,,,,,,,,,,,,,0,3,3,3,1,,,,,,,,,,,,,,,,,,,,,,,,,,,,
,,,,,V3_069,18,female,2024-11-16_17h03.19.839,jersey_experiment_5_v3,2023.2.2,Win32,85.47008547,,,,,,,,,,,,,,,,639.6226,641.1753,641.1754,642.5047,return,0.0861,,48.828125,,,,,,FBP-OG-18.png,0.37,1.2,37,0.75,,,,,,,,,,,,,0,4,4,36,1,,,,,,,,,,,,,,,,,,,,,,,,,,,,
,,,,,V3_069,18,female,2024-11-16_17h03.19.839,jersey_experiment_5_v3,2023.2.2,Win32,85.47008547,,,,,,,,,,,,,,,,642.505,643.799,643.799,645.8813,return,0.1029,,74.08854167,,,,,,FBP-RB-18.png,0.4,1.2,53,0.5,,,,,,,,,,,,,0,5,5,52,1,,,,,,,,,,,,,,,,,,,,,,,,,,,,
,,,,,V3_069,18,female,2024-11-16_17h03.19.839,jersey_experiment_5_v3,2023.2.2,Win32,85.47008547,,,,,,,,,,,,,,,,645.8816,647.1757,647.1757,648.3404,return,0.1568,,72.78645833,,,,,,FBP-YG-81.png,0.4,1.2,8,0.5,,,,,,,,,,,,,0,6,6,7,1,,,,,,,,,,,,,,,,,,,,,,,,,,,,
,,,,,V3_069,18,female,2024-11-16_17h03.19.839,jersey_experiment_5_v3,2023.2.2,Win32,85.47008547,,,,,,,,,,,,,,,,648.3406,649.8933,649.8933,650.858,return,0.116,,99.47916667,,,,,,FBP-OG-17.png,0.45,1.2,35,0.75,,,,,,,,,,,,,0,7,7,34,1,,,,,,,,,,,,,,,,,,,,,,,,,,,,
,,,,,V3_069,18,female,2024-11-16_17h03.19.839,jersey_experiment_5_v3,2023.2.2,Win32,85.47008547,,,,,,,,,,,,,,,,650.8583,652.1522,652.1522,653.6581,return,0.1184,,74.34895833,,,,,,FBP-YG-81.png,0.43,1.2,9,0.5,,,,,,,,,,,,,0,8,8,8,1,,,,,,,,,,,,,,,,,,,,,,,,,,,,
,,,,,V3_069,18,female,2024-11-16_17h03.19.839,jersey_experiment_5_v3,2023.2.2,Win32,85.47008547,,,,,,,,,,,,,,,,653.6584,655.2112,655.2112,656.6112,return,0.0755,,49.21875,,,,,,FBP-OG-19.png,0.37,1.2,42,0.75,,,,,,,,,,,,,0,9,9,41,1,,,,,,,,,,,,,,,,,,,,,,,,,,,,
,,,,,V3_069,18,female,2024-11-16_17h03.19.839,jersey_experiment_5_v3,2023.2.2,Win32,85.47008547,,,,,,,,,,,,,,,,656.6115,657.9054,657.9054,658.4819,return,0.0989,,49.86979167,,,,,,FBP-PT-19.png,0.4,1.2,28,0.5,,,,,,,,,,,,,0,10,10,27,1,,,,,,,,,,,,,,,,,,,,,,,,,,,,
,,,,,V3_069,18,female,2024-11-16_17h03.19.839,jersey_experiment_5_v3,2023.2.2,Win32,85.47008547,,,,,,,,,,,,,,,,658.482,659.7761,659.7761,660.835,return,0.0487,,99.34895833,,,,,,FBP-PT-17.png,0.43,1.2,19,0.5,,,,,,,,,,,,,0,11,11,18,1,,,,,,,,,,,,,,,,,,,,,,,,,,,,
,,,,,V3_069,18,female,2024-11-16_17h03.19.839,jersey_experiment_5_v3,2023.2.2,Win32,85.47008547,,,,,,,,,,,,,,,,660.8353,662.388,662.3881,664.3056,return,0.0872,,50.26041667,,,,,,FBP-OG-17.png,0.37,1.2,32,0.75,,,,,,,,,,,,,0,12,12,31,1,,,,,,,,,,,,,,,,,,,,,,,,,,,,
,,,,,V3_069,18,female,2024-11-16_17h03.19.839,jersey_experiment_5_v3,2023.2.2,Win32,85.47008547,,,,,,,,,,,,,,,,664.3059,665.5998,665.5999,667.0822,return,0.0718,,99.73958333,,,,,,FBP-YG-91.png,0.45,1.2,15,0.5,,,,,,,,,,,,,0,13,13,14,1,,,,,,,,,,,,,,,,,,,,,,,,,,,,
,,,,,V3_069,18,female,2024-11-16_17h03.19.839,jersey_experiment_5_v3,2023.2.2,Win32,85.47008547,,,,,,,,,,,,,,,,667.0824,668.3765,668.3766,669.9058,return,0.0617,,74.86979167,,,,,,FBP-PT-19.png,0.43,1.2,29,0.5,,,,,,,,,,,,,0,14,14,28,1,,,,,,,,,,,,,,,,,,,,,,,,,,,,
,,,,,V3_069,18,female,2024-11-16_17h03.19.839,jersey_experiment_5_v3,2023.2.2,Win32,85.47008547,,,,,,,,,,,,,,,,669.9061,671.2001,671.2001,672.1766,return,0.1472,,22.52604167,,,,,,FBP-PT-19.png,0.35,1.2,26,0.5,,,,,,,,,,,,,0,15,15,25,1,,,,,,,,,,,,,,,,,,,,,,,,,,,,
,,,,,V3_069,18,female,2024-11-16_17h03.19.839,jersey_experiment_5_v3,2023.2.2,Win32,85.47008547,,,,,,,,,,,,,,,,672.1767,673.7297,673.7297,675.553,return,0.0883,,99.47916667,,,,,,FBP-OG-18.png,0.43,1.2,39,0.75,,,,,,,,,,,,,0,16,16,38,1,,,,,,,,,,,,,,,,,,,,,,,,,,,,
,,,,,V3_069,18,female,2024-11-16_17h03.19.839,jersey_experiment_5_v3,2023.2.2,Win32,85.47008547,,,,,,,,,,,,,,,,675.5533,676.8474,676.8474,677.9532,return,0.1011,,50.13020833,,,,,,FBP-YG-81.png,0.37,1.2,7,0.5,,,,,,,,,,,,,0,17,17,6,1,,,,,,,,,,,,,,,,,,,,,,,,,,,,
,,,,,V3_069,18,female,2024-11-16_17h03.19.839,jersey_experiment_5_v3,2023.2.2,Win32,85.47008547,,,,,,,,,,,,,,,,677.9534,679.2474,679.2474,680.2474,return,0.1547,,48.95833333,,,,,,FBP-PT-18.png,0.4,1.2,23,0.5,,,,,,,,,,,,,0,18,18,22,1,,,,,,,,,,,,,,,,,,,,,,,,,,,,
,,,,,V3_069,18,female,2024-11-16_17h03.19.839,jersey_experiment_5_v3,2023.2.2,Win32,85.47008547,,,,,,,,,,,,,,,,680.2476,681.8003,681.8004,683.2005,return,0.3371,,50.26041667,,,,,,FBP-OG-18.png,0.4,1.2,38,0.75,,,,,,,,,,,,,0,19,19,37,1,,,,,,,,,,,,,,,,,,,,,,,,,,,,
,,,,,V3_069,18,female,2024-11-16_17h03.19.839,jersey_experiment_5_v3,2023.2.2,Win32,85.47008547,,,,,,,,,,,,,,,,683.2008,684.4948,684.4948,686.3064,return,0.2635,,99.21875,,,,,,FBP-YG-81.png,0.45,1.2,10,0.5,,,,,,,,,,,,,0,20,20,9,1,,,,,,,,,,,,,,,,,,,,,,,,,,,,
,,,,,V3_069,18,female,2024-11-16_17h03.19.839,jersey_experiment_5_v3,2023.2.2,Win32,85.47008547,,,,,,,,,,,,,,,,686.3066,687.6005,687.6006,689.7536,return,0.9885,,98.828125,,,,,,FBP-RB-19.png,0.45,1.2,60,0.5,,,,,,,,,,,,,0,21,21,59,1,,,,,,,,,,,,,,,,,,,,,,,,,,,,
,,,,,V3_069,18,female,2024-11-16_17h03.19.839,jersey_experiment_5_v3,2023.2.2,Win32,85.47008547,,,,,,,,,,,,,,,,689.7538,691.0478,691.0478,692.7302,return,0.071,,50.390625,,,,,,FBP-PT-17.png,0.4,1.2,18,0.5,,,,,,,,,,,,,0,22,22,17,1,,,,,,,,,,,,,,,,,,,,,,,,,,,,
,,,,,V3_069,18,female,2024-11-16_17h03.19.839,jersey_experiment_5_v3,2023.2.2,Win32,85.47008547,,,,,,,,,,,,,,,,692.7306,694.0242,694.0243,694.8714,return,0.0563,,50.65104167,,,,,,FBP-RB-18.png,0.37,1.2,52,0.5,,,,,,,,,,,,,0,23,23,51,1,,,,,,,,,,,,,,,,,,,,,,,,,,,,
,,,,,V3_069,18,female,2024-11-16_17h03.19.839,jersey_experiment_5_v3,2023.2.2,Win32,85.47008547,,,,,,,,,,,,,,,,694.8717,696.1655,696.1656,696.954,return,0.1078,,50.65104167,,,,,,FBP-YG-91.png,0.35,1.2,11,0.5,,,,,,,,,,,,,0,24,24,10,1,,,,,,,,,,,,,,,,,,,,,,,,,,,,
,,,,,V3_069,18,female,2024-11-16_17h03.19.839,jersey_experiment_5_v3,2023.2.2,Win32,85.47008547,,,,,,,,,,,,,,,,696.9542,698.248,698.248,699.5307,return,0.0943,,24.21875,,,,,,FBP-RB-19.png,0.35,1.2,56,0.5,,,,,,,,,,,,,0,25,25,55,1,,,,,,,,,,,,,,,,,,,,,,,,,,,,
,,,,,V3_069,18,female,2024-11-16_17h03.19.839,jersey_experiment_5_v3,2023.2.2,Win32,85.47008547,,,,,,,,,,,,,,,,699.531,700.8246,700.8246,701.4481,return,0.1303,,25.26041667,,,,,,FBP-YG-71.png,0.35,1.2,1,0.5,,,,,,,,,,,,,0,26,26,0,1,,,,,,,,,,,,,,,,,,,,,,,,,,,,
,,,,,V3_069,18,female,2024-11-16_17h03.19.839,jersey_experiment_5_v3,2023.2.2,Win32,85.47008547,,,,,,,,,,,,,,,,701.4483,703.0012,703.0013,704.5189,return,0.2917,,99.08854167,,,,,,FBP-OG-18.png,0.45,1.2,40,0.75,,,,,,,,,,,,,0,27,27,39,1,,,,,,,,,,,,,,,,,,,,,,,,,,,,
,,,,,V3_069,18,female,2024-11-16_17h03.19.839,jersey_experiment_5_v3,2023.2.2,Win32,85.47008547,,,,,,,,,,,,,,,,704.5191,706.0721,706.0721,707.1072,return,0.0756,,50.78125,,,,,,FBP-OG-19.png,0.4,1.2,43,0.75,,,,,,,,,,,,,0,28,28,42,1,,,,,,,,,,,,,,,,,,,,,,,,,,,,
,,,,,V3_069,18,female,2024-11-16_17h03.19.839,jersey_experiment_5_v3,2023.2.2,Win32,85.47008547,,,,,,,,,,,,,,,,707.1074,708.6486,708.6487,709.5543,return,0.1083,,98.95833333,,,,,,FBP-OG-17.png,0.43,1.2,34,0.75,,,,,,,,,,,,,0,29,29,33,1,,,,,,,,,,,,,,,,,,,,,,,,,,,,
,,,,,V3_069,18,female,2024-11-16_17h03.19.839,jersey_experiment_5_v3,2023.2.2,Win32,85.47008547,,,,,,,,,,,,,,,,709.5546,710.8485,710.8485,712.4721,return,0.0785,,98.828125,,,,,,FBP-RB-19.png,0.43,1.2,59,0.5,,,,,,,,,,,,,0,30,30,58,1,,,,,,,,,,,,,,,,,,,,,,,,,,,,
,,,,,V3_069,18,female,2024-11-16_17h03.19.839,jersey_experiment_5_v3,2023.2.2,Win32,85.47008547,,,,,,,,,,,,,,,,712.4724,713.7662,713.7662,714.4016,return,0.1951,,98.828125,,,,,,FBP-PT-18.png,0.45,1.2,25,0.5,,,,,,,,,,,,,0,31,31,24,1,,,,,,,,,,,,,,,,,,,,,,,,,,,,
,,,,,V3_069,18,female,2024-11-16_17h03.19.839,jersey_experiment_5_v3,2023.2.2,Win32,85.47008547,,,,,,,,,,,,,,,,714.4018,715.6957,715.6959,716.8252,return,0.0234,,25,,,,,,FBP-RB-18.png,0.35,1.2,51,0.5,,,,,,,,,,,,,0,32,32,50,1,,,,,,,,,,,,,,,,,,,,,,,,,,,,
,,,,,V3_069,18,female,2024-11-16_17h03.19.839,jersey_experiment_5_v3,2023.2.2,Win32,85.47008547,,,,,,,,,,,,,,,,716.8253,718.1194,718.1194,718.8723,return,0.1416,,25.78125,,,,,,FBP-RB-17.png,0.35,1.2,46,0.5,,,,,,,,,,,,,0,33,33,45,1,,,,,,,,,,,,,,,,,,,,,,,,,,,,
,,,,,V3_069,18,female,2024-11-16_17h03.19.839,jersey_experiment_5_v3,2023.2.2,Win32,85.47008547,,,,,,,,,,,,,,,,718.8725,720.4253,720.4253,721.0961,return,0.1071,,25.390625,,,,,,FBP-OG-19.png,0.35,1.2,41,0.75,,,,,,,,,,,,,0,34,34,40,1,,,,,,,,,,,,,,,,,,,,,,,,,,,,
,,,,,V3_069,18,female,2024-11-16_17h03.19.839,jersey_experiment_5_v3,2023.2.2,Win32,85.47008547,,,,,,,,,,,,,,,,721.0963,722.3901,722.3902,722.9667,return,0.1039,,25.390625,,,,,,FBP-YG-81.png,0.35,1.2,6,0.5,,,,,,,,,,,,,0,35,35,5,1,,,,,,,,,,,,,,,,,,,,,,,,,,,,
,,,,,V3_069,18,female,2024-11-16_17h03.19.839,jersey_experiment_5_v3,2023.2.2,Win32,85.47008547,,,,,,,,,,,,,,,,722.9669,724.261,724.261,726.2492,return,0.9174,,99.609375,,,,,,FBP-PT-19.png,0.45,1.2,30,0.5,,,,,,,,,,,,,0,36,36,29,1,,,,,,,,,,,,,,,,,,,,,,,,,,,,
,,,,,V3_069,18,female,2024-11-16_17h03.19.839,jersey_experiment_5_v3,2023.2.2,Win32,85.47008547,,,,,,,,,,,,,,,,726.2494,727.5432,727.5432,728.3432,return,0.0919,,99.21875,,,,,,FBP-RB-17.png,0.43,1.2,49,0.5,,,,,,,,,,,,,0,37,37,48,1,,,,,,,,,,,,,,,,,,,,,,,,,,,,
,,,,,V3_069,18,female,2024-11-16_17h03.19.839,jersey_experiment_5_v3,2023.2.2,Win32,85.47008547,,,,,,,,,,,,,,,,728.3434,729.6374,729.6374,730.3197,return,0.0907,,99.73958333,,,,,,FBP-RB-17.png,0.45,1.2,50,0.5,,,,,,,,,,,,,0,38,38,49,1,,,,,,,,,,,,,,,,,,,,,,,,,,,,
,,,,,V3_069,18,female,2024-11-16_17h03.19.839,jersey_experiment_5_v3,2023.2.2,Win32,85.47008547,,,,,,,,,,,,,,,,730.32,731.614,731.614,732.0846,return,0.2269,,99.73958333,,,,,,FBP-RB-19.png,0.4,1.2,58,0.5,,,,,,,,,,,,,0,39,39,57,1,,,,,,,,,,,,,,,,,,,,,,,,,,,,
,,,,,V3_069,18,female,2024-11-16_17h03.19.839,jersey_experiment_5_v3,2023.2.2,Win32,85.47008547,,,,,,,,,,,,,,,,732.0849,733.379,733.379,734.5434,return,0.0426,,74.47916667,,,,,,FBP-RB-17.png,0.37,1.2,47,0.5,,,,,,,,,,,,,0,40,40,46,1,,,,,,,,,,,,,,,,,,,,,,,,,,,,
,,,,,V3_069,18,female,2024-11-16_17h03.19.839,jersey_experiment_5_v3,2023.2.2,Win32,85.47008547,,,,,,,,,,,,,,,,734.5436,736.0849,736.085,737.1555,return,0.0754,,24.47916667,,,,,,FBP-OG-18.png,0.35,1.2,36,0.75,,,,,,,,,,,,,0,41,41,35,1,,,,,,,,,,,,,,,,,,,,,,,,,,,,
,,,,,V3_069,18,female,2024-11-16_17h03.19.839,jersey_experiment_5_v3,2023.2.2,Win32,85.47008547,,,,,,,,,,,,,,,,737.1557,738.4496,738.4496,739.0143,return,0.1296,,26.43229167,,,,,,FBP-YG-71.png,0.37,1.2,2,0.5,,,,,,,,,,,,,0,42,42,1,1,,,,,,,,,,,,,,,,,,,,,,,,,,,,
,,,,,V3_069,18,female,2024-11-16_17h03.19.839,jersey_experiment_5_v3,2023.2.2,Win32,85.47008547,,,,,,,,,,,,,,,,739.0146,740.3085,740.3085,740.9321,return,0.0947,,25.26041667,,,,,,FBP-PT-17.png,0.37,1.2,17,0.5,,,,,,,,,,,,,0,43,43,16,1,,,,,,,,,,,,,,,,,,,,,,,,,,,,
,,,,,V3_069,18,female,2024-11-16_17h03.19.839,jersey_experiment_5_v3,2023.2.2,Win32,85.47008547,,,,,,,,,,,,,,,,740.9323,742.2261,742.2262,742.8498,return,0.0533,,25.26041667,,,,,,FBP-YG-91.png,0.37,1.2,12,0.5,,,,,,,,,,,,,0,44,44,11,1,,,,,,,,,,,,,,,,,,,,,,,,,,,,
,,,,,V3_069,18,female,2024-11-16_17h03.19.839,jersey_experiment_5_v3,2023.2.2,Win32,85.47008547,,,,,,,,,,,,,,,,742.85,744.1438,744.1438,744.6969,return,0.0837,,25.26041667,,,,,,FBP-PT-17.png,0.35,1.2,16,0.5,,,,,,,,,,,,,0,45,45,15,1,,,,,,,,,,,,,,,,,,,,,,,,,,,,
,,,,,V3_069,18,female,2024-11-16_17h03.19.839,jersey_experiment_5_v3,2023.2.2,Win32,85.47008547,,,,,,,,,,,,,,,,744.6971,746.2498,746.2498,746.7674,return,0.0438,,25.26041667,,,,,,FBP-OG-17.png,0.35,1.2,31,0.75,,,,,,,,,,,,,0,46,46,30,1,,,,,,,,,,,,,,,,,,,,,,,,,,,,
,,,,,V3_069,18,female,2024-11-16_17h03.19.839,jersey_experiment_5_v3,2023.2.2,Win32,85.47008547,,,,,,,,,,,,,,,,746.7677,748.3208,748.3208,749.2969,return,0.054,,98.828125,,,,,,FBP-OG-19.png,0.43,1.2,44,0.75,,,,,,,,,,,,,0,47,47,43,1,,,,,,,,,,,,,,,,,,,,,,,,,,,,
,,,,,V3_069,18,female,2024-11-16_17h03.19.839,jersey_experiment_5_v3,2023.2.2,Win32,85.47008547,,,,,,,,,,,,,,,,749.2971,750.5911,750.5911,751.1089,return,0.0267,,98.828125,,,,,,FBP-PT-18.png,0.43,1.2,24,0.5,,,,,,,,,,,,,0,48,48,23,1,,,,,,,,,,,,,,,,,,,,,,,,,,,,
,,,,,V3_069,18,female,2024-11-16_17h03.19.839,jersey_experiment_5_v3,2023.2.2,Win32,85.47008547,,,,,,,,,,,,,,,,751.1091,752.6618,752.6619,753.7207,return,0.0103,,74.47916667,,,,,,FBP-OG-17.png,0.4,1.2,33,0.75,,,,,,,,,,,,,0,49,49,32,1,,,,,,,,,,,,,,,,,,,,,,,,,,,,
,,,,,V3_069,18,female,2024-11-16_17h03.19.839,jersey_experiment_5_v3,2023.2.2,Win32,85.47008547,,,,,,,,,,,,,,,,753.7209,755.0149,755.015,757.1914,return,0.0839,,48.69791667,,,,,,FBP-PT-19.png,0.37,1.2,27,0.5,,,,,,,,,,,,,0,50,50,26,1,,,,,,,,,,,,,,,,,,,,,,,,,,,,
,,,,,V3_069,18,female,2024-11-16_17h03.19.839,jersey_experiment_5_v3,2023.2.2,Win32,85.47008547,,,,,,,,,,,,,,,,757.1917,758.4856,758.4856,759.568,return,0.1374,,49.73958333,,,,,,FBP-RB-19.png,0.37,1.2,57,0.5,,,,,,,,,,,,,0,51,51,56,1,,,,,,,,,,,,,,,,,,,,,,,,,,,,
,,,,,V3_069,18,female,2024-11-16_17h03.19.839,jersey_experiment_5_v3,2023.2.2,Win32,85.47008547,,,,,,,,,,,,,,,,759.5682,761.1211,761.1212,762.1681,return,0.0349,,98.69791667,,,,,,FBP-OG-19.png,0.45,1.2,45,0.75,,,,,,,,,,,,,0,52,52,44,1,,,,,,,,,,,,,,,,,,,,,,,,,,,,
,,,,,V3_069,18,female,2024-11-16_17h03.19.839,jersey_experiment_5_v3,2023.2.2,Win32,85.47008547,,,,,,,,,,,,,,,,762.1684,763.4623,763.4623,763.9918,return,0.1314,,98.828125,,,,,,FBP-RB-18.png,0.43,1.2,54,0.5,,,,,,,,,,,,,0,53,53,53,1,,,,,,,,,,,,,,,,,,,,,,,,,,,,
,,,,,V3_069,18,female,2024-11-16_17h03.19.839,jersey_experiment_5_v3,2023.2.2,Win32,85.47008547,,,,,,,,,,,,,,,,763.992,765.2858,765.2859,765.5683,return,0.0902,,98.828125,,,,,,FBP-YG-71.png,0.45,1.2,5,0.5,,,,,,,,,,,,,0,54,54,4,1,,,,,,,,,,,,,,,,,,,,,,,,,,,,
,,,,,V3_069,18,female,2024-11-16_17h03.19.839,jersey_experiment_5_v3,2023.2.2,Win32,85.47008547,,,,,,,,,,,,,,,,765.5686,766.8625,766.8625,767.6861,return,0.0013,,74.21875,,,,,,FBP-RB-17.png,0.4,1.2,48,0.5,,,,,,,,,,,,,0,55,55,47,1,,,,,,,,,,,,,,,,,,,,,,,,,,,,
,,,,,V3_069,18,female,2024-11-16_17h03.19.839,jersey_experiment_5_v3,2023.2.2,Win32,85.47008547,,,,,,,,,,,,,,,,767.6863,768.9802,768.9802,769.8743,return,0.1203,,49.609375,,,,,,FBP-PT-18.png,0.35,1.2,21,0.5,,,,,,,,,,,,,0,56,56,20,1,,,,,,,,,,,,,,,,,,,,,,,,,,,,
,,,,,V3_069,18,female,2024-11-16_17h03.19.839,jersey_experiment_5_v3,2023.2.2,Win32,85.47008547,,,,,,,,,,,,,,,,769.8745,771.1687,771.1687,772.4508,return,0.1229,,99.609375,,,,,,FBP-PT-17.png,0.45,1.2,20,0.5,,,,,,,,,,,,,0,57,57,19,1,,,,,,,,,,,,,,,,,,,,,,,,,,,,
,,,,,V3_069,18,female,2024-11-16_17h03.19.839,jersey_experiment_5_v3,2023.2.2,Win32,85.47008547,,,,,,,,,,,,,,,,772.4512,773.7451,773.7451,774.9334,return,0.0236,,74.08854167,,,,,,FBP-YG-71.png,0.4,1.2,3,0.5,,,,,,,,,,,,,0,58,58,2,1,,,,,,,,,,,,,,,,,,,,,,,,,,,,
,,,,,V3_069,18,female,2024-11-16_17h03.19.839,jersey_experiment_5_v3,2023.2.2,Win32,85.47008547,,,,,,,,,,,,,,,,774.9336,776.2275,776.2276,777.4746,return,0.0171,,74.47916667,,,,,,FBP-PT-18.png,0.37,1.2,22,0.5,,,,,,,,,,,,,0,59,59,21,1,,,,,,,,,,,,,,,,,,,,,,,,,,,,
,,,,,V3_069,18,female,2024-11-16_17h03.19.839,jersey_experiment_5_v3,2023.2.2,Win32,85.47008547,,,,,,,,,,,,,,,,777.4758,779.0276,779.0276,780.4747,return,0.0557,,98.95833333,,,,,,FBP-OG-81.png,0.43,1.2,39,0.75,,,,,,,,,,,,,,,,,,0,0,0,38,1,,,,,,,,,,,,,,,,,,,,,,,
,,,,,V3_069,18,female,2024-11-16_17h03.19.839,jersey_experiment_5_v3,2023.2.2,Win32,85.47008547,,,,,,,,,,,,,,,,780.475,782.0278,782.0278,783.0395,return,0.0903,,76.5625,,,,,,FBP-OG-91.png,0.4,1.2,43,0.75,,,,,,,,,,,,,,,,,,0,1,1,42,1,,,,,,,,,,,,,,,,,,,,,,,
,,,,,V3_069,18,female,2024-11-16_17h03.19.839,jersey_experiment_5_v3,2023.2.2,Win32,85.47008547,,,,,,,,,,,,,,,,783.0397,784.5925,784.5925,785.6396,return,0.0003,,50.390625,,,,,,FBP-OG-71.png,0.35,1.2,31,0.75,,,,,,,,,,,,,,,,,,0,2,2,30,1,,,,,,,,,,,,,,,,,,,,,,,
,,,,,V3_069,18,female,2024-11-16_17h03.19.839,jersey_experiment_5_v3,2023.2.2,Win32,85.47008547,,,,,,,,,,,,,,,,785.6398,786.9337,786.9337,787.7221,return,0.0473,,49.86979167,,,,,,FBP-RB-81.png,0.37,1.2,52,0.5,,,,,,,,,,,,,,,,,,0,3,3,51,1,,,,,,,,,,,,,,,,,,,,,,,
,,,,,V3_069,18,female,2024-11-16_17h03.19.839,jersey_experiment_5_v3,2023.2.2,Win32,85.47008547,,,,,,,,,,,,,,,,787.7224,789.0162,789.0162,789.9573,return,0.0365,,24.86979167,,,,,,FBP-RB-81.png,0.35,1.2,51,0.5,,,,,,,,,,,,,,,,,,0,4,4,50,1,,,,,,,,,,,,,,,,,,,,,,,
,,,,,V3_069,18,female,2024-11-16_17h03.19.839,jersey_experiment_5_v3,2023.2.2,Win32,85.47008547,,,,,,,,,,,,,,,,789.9576,791.2514,791.2515,792.4516,return,0.0751,,98.69791667,,,,,,FBP-YG-17.png,0.43,1.2,4,0.5,,,,,,,,,,,,,,,,,,0,5,5,3,1,,,,,,,,,,,,,,,,,,,,,,,
,,,,,V3_069,18,female,2024-11-16_17h03.19.839,jersey_experiment_5_v3,2023.2.2,Win32,85.47008547,,,,,,,,,,,,,,,,792.4519,793.7458,793.7458,795.4165,return,0.434,,26.171875,,,,,,FBP-PT-81.png,0.35,1.2,21,0.5,,,,,,,,,,,,,,,,,,0,6,6,20,1,,,,,,,,,,,,,,,,,,,,,,,
,,,,,V3_069,18,female,2024-11-16_17h03.19.839,jersey_experiment_5_v3,2023.2.2,Win32,85.47008547,,,,,,,,,,,,,,,,795.4167,796.7105,796.7105,798.1929,return,0.1249,,49.47916667,,,,,,FBP-PT-91.png,0.4,1.2,28,0.5,,,,,,,,,,,,,,,,,,0,7,7,27,1,,,,,,,,,,,,,,,,,,,,,,,
,,,,,V3_069,18,female,2024-11-16_17h03.19.839,jersey_experiment_5_v3,2023.2.2,Win32,85.47008547,,,,,,,,,,,,,,,,798.1932,799.4872,799.4873,800.3578,return,0.0729,,98.17708333,,,,,,FBP-YG-19.png,0.45,1.2,15,0.5,,,,,,,,,,,,,,,,,,0,8,8,14,1,,,,,,,,,,,,,,,,,,,,,,,
,,,,,V3_069,18,female,2024-11-16_17h03.19.839,jersey_experiment_5_v3,2023.2.2,Win32,85.47008547,,,,,,,,,,,,,,,,800.358,801.6519,801.652,802.1343,return,0.0606,,98.17708333,,,,,,FBP-PT-81.png,0.45,1.2,25,0.5,,,,,,,,,,,,,,,,,,0,9,9,24,1,,,,,,,,,,,,,,,,,,,,,,,
,,,,,V3_069,18,female,2024-11-16_17h03.19.839,jersey_experiment_5_v3,2023.2.2,Win32,85.47008547,,,,,,,,,,,,,,,,802.1345,803.4284,803.4284,804.7579,return,0.0826,,75.65104167,,,,,,FBP-RB-71.png,0.4,1.2,48,0.5,,,,,,,,,,,,,,,,,,0,10,10,47,1,,,,,,,,,,,,,,,,,,,,,,,
,,,,,V3_069,18,female,2024-11-16_17h03.19.839,jersey_experiment_5_v3,2023.2.2,Win32,85.47008547,,,,,,,,,,,,,,,,804.7582,806.0522,806.0522,807.5934,return,0.1633,,99.21875,,,,,,FBP-PT-91.png,0.45,1.2,30,0.5,,,,,,,,,,,,,,,,,,0,11,11,29,1,,,,,,,,,,,,,,,,,,,,,,,
,,,,,V3_069,18,female,2024-11-16_17h03.19.839,jersey_experiment_5_v3,2023.2.2,Win32,85.47008547,,,,,,,,,,,,,,,,807.5937,809.1464,809.1464,809.864,return,0.0474,,99.34895833,,,,,,FBP-OG-91.png,0.43,1.2,44,0.75,,,,,,,,,,,,,,,,,,0,12,12,43,1,,,,,,,,,,,,,,,,,,,,,,,
,,,,,V3_069,18,female,2024-11-16_17h03.19.839,jersey_experiment_5_v3,2023.2.2,Win32,85.47008547,,,,,,,,,,,,,,,,809.8642,811.1581,811.1582,811.6053,return,0.0264,,99.34895833,,,,,,FBP-RB-71.png,0.43,1.2,49,0.5,,,,,,,,,,,,,,,,,,0,13,13,48,1,,,,,,,,,,,,,,,,,,,,,,,
,,,,,V3_069,18,female,2024-11-16_17h03.19.839,jersey_experiment_5_v3,2023.2.2,Win32,85.47008547,,,,,,,,,,,,,,,,811.6056,812.8993,812.8994,814.4525,return,0.5293,,22.00520833,,,,,,FBP-YG-18.png,0.35,1.2,6,0.5,,,,,,,,,,,,,,,,,,0,14,14,5,1,,,,,,,,,,,,,,,,,,,,,,,
,,,,,V3_069,18,female,2024-11-16_17h03.19.839,jersey_experiment_5_v3,2023.2.2,Win32,85.47008547,,,,,,,,,,,,,,,,814.4527,816.0055,816.0056,818.3468,return,1.4515,,74.73958333,,,,,,FBP-OG-91.png,0.45,1.2,45,0.75,,,,,,,,,,,,,,,,,,0,15,15,44,1,,,,,,,,,,,,,,,,,,,,,,,
,,,,,V3_069,18,female,2024-11-16_17h03.19.839,jersey_experiment_5_v3,2023.2.2,Win32,85.47008547,,,,,,,,,,,,,,,,818.3469,819.641,819.641,821.4409,return,0.6899,,26.30208333,,,,,,FBP-YG-18.png,0.37,1.2,7,0.5,,,,,,,,,,,,,,,,,,0,16,16,6,1,,,,,,,,,,,,,,,,,,,,,,,
,,,,,V3_069,18,female,2024-11-16_17h03.19.839,jersey_experiment_5_v3,2023.2.2,Win32,85.47008547,,,,,,,,,,,,,,,,821.4412,822.7351,822.7351,823.735,return,0.1308,,48.17708333,,,,,,FBP-RB-81.png,0.43,1.2,54,0.5,,,,,,,,,,,,,,,,,,0,17,17,53,1,,,,,,,,,,,,,,,,,,,,,,,
,,,,,V3_069,18,female,2024-11-16_17h03.19.839,jersey_experiment_5_v3,2023.2.2,Win32,85.47008547,,,,,,,,,,,,,,,,823.7353,825.0293,825.0293,826.0647,return,0.1715,,23.4375,,,,,,FBP-PT-91.png,0.35,1.2,26,0.5,,,,,,,,,,,,,,,,,,0,18,18,25,1,,,,,,,,,,,,,,,,,,,,,,,
,,,,,V3_069,18,female,2024-11-16_17h03.19.839,jersey_experiment_5_v3,2023.2.2,Win32,85.47008547,,,,,,,,,,,,,,,,826.0649,827.6177,827.6177,828.194,return,0.2979,,24.86979167,,,,,,FBP-OG-81.png,0.35,1.2,36,0.75,,,,,,,,,,,,,,,,,,0,19,19,35,1,,,,,,,,,,,,,,,,,,,,,,,
,,,,,V3_069,18,female,2024-11-16_17h03.19.839,jersey_experiment_5_v3,2023.2.2,Win32,85.47008547,,,,,,,,,,,,,,,,828.1942,829.7471,829.7471,830.1941,return,0.0872,,26.43229167,,,,,,FBP-OG-81.png,0.4,1.2,38,0.75,,,,,,,,,,,,,,,,,,0,20,20,37,1,,,,,,,,,,,,,,,,,,,,,,,
,,,,,V3_069,18,female,2024-11-16_17h03.19.839,jersey_experiment_5_v3,2023.2.2,Win32,85.47008547,,,,,,,,,,,,,,,,830.1943,831.4883,831.4883,831.8884,return,0.0396,,26.43229167,,,,,,FBP-RB-71.png,0.35,1.2,46,0.5,,,,,,,,,,,,,,,,,,0,21,21,45,1,,,,,,,,,,,,,,,,,,,,,,,
,,,,,V3_069,18,female,2024-11-16_17h03.19.839,jersey_experiment_5_v3,2023.2.2,Win32,85.47008547,,,,,,,,,,,,,,,,831.8887,833.1827,833.1827,834.2885,return,0.1725,,75.52083333,,,,,,FBP-RB-81.png,0.45,1.2,55,0.5,,,,,,,,,,,,,,,,,,0,22,22,54,1,,,,,,,,,,,,,,,,,,,,,,,
,,,,,V3_069,18,female,2024-11-16_17h03.19.839,jersey_experiment_5_v3,2023.2.2,Win32,85.47008547,,,,,,,,,,,,,,,,834.2888,835.8417,835.8417,837.3357,return,0.0371,,48.56770833,,,,,,FBP-OG-81.png,0.37,1.2,37,0.75,,,,,,,,,,,,,,,,,,0,23,23,36,1,,,,,,,,,,,,,,,,,,,,,,,
,,,,,V3_069,18,female,2024-11-16_17h03.19.839,jersey_experiment_5_v3,2023.2.2,Win32,85.47008547,,,,,,,,,,,,,,,,837.3359,838.8887,838.8887,840.371,return,0.1111,,48.56770833,,,,,,FBP-OG-71.png,0.37,1.2,32,0.75,,,,,,,,,,,,,,,,,,0,24,24,31,1,,,,,,,,,,,,,,,,,,,,,,,
,,,,,V3_069,18,female,2024-11-16_17h03.19.839,jersey_experiment_5_v3,2023.2.2,Win32,85.47008547,,,,,,,,,,,,,,,,840.3713,841.6652,841.6653,842.7711,return,0.0512,,75.26041667,,,,,,FBP-YG-17.png,0.4,1.2,3,0.5,,,,,,,,,,,,,,,,,,0,25,25,2,1,,,,,,,,,,,,,,,,,,,,,,,
,,,,,V3_069,18,female,2024-11-16_17h03.19.839,jersey_experiment_5_v3,2023.2.2,Win32,85.47008547,,,,,,,,,,,,,,,,842.7713,844.0652,844.0653,845.4183,return,0.1412,,74.86979167,,,,,,FBP-PT-91.png,0.43,1.2,29,0.5,,,,,,,,,,,,,,,,,,0,26,26,28,1,,,,,,,,,,,,,,,,,,,,,,,
,,,,,V3_069,18,female,2024-11-16_17h03.19.839,jersey_experiment_5_v3,2023.2.2,Win32,85.47008547,,,,,,,,,,,,,,,,845.4186,846.9712,846.9712,847.5714,return,0.1673,,74.86979167,,,,,,FBP-OG-71.png,0.4,1.2,33,0.75,,,,,,,,,,,,,,,,,,0,27,27,32,1,,,,,,,,,,,,,,,,,,,,,,,
,,,,,V3_069,18,female,2024-11-16_17h03.19.839,jersey_experiment_5_v3,2023.2.2,Win32,85.47008547,,,,,,,,,,,,,,,,847.5715,848.8655,848.8656,849.3831,return,0.037,,74.86979167,,,,,,FBP-YG-19.png,0.4,1.2,13,0.5,,,,,,,,,,,,,,,,,,0,28,28,12,1,,,,,,,,,,,,,,,,,,,,,,,
,,,,,V3_069,18,female,2024-11-16_17h03.19.839,jersey_experiment_5_v3,2023.2.2,Win32,85.47008547,,,,,,,,,,,,,,,,849.3834,850.6773,850.6774,851.2185,return,0.041,,74.86979167,,,,,,FBP-YG-19.png,0.37,1.2,12,0.5,,,,,,,,,,,,,,,,,,0,29,29,11,1,,,,,,,,,,,,,,,,,,,,,,,
,,,,,V3_069,18,female,2024-11-16_17h03.19.839,jersey_experiment_5_v3,2023.2.2,Win32,85.47008547,,,,,,,,,,,,,,,,851.2187,852.5127,852.5128,853.0304,return,0.0944,,74.86979167,,,,,,FBP-YG-17.png,0.37,1.2,2,0.5,,,,,,,,,,,,,,,,,,0,30,30,1,1,,,,,,,,,,,,,,,,,,,,,,,
,,,,,V3_069,18,female,2024-11-16_17h03.19.839,jersey_experiment_5_v3,2023.2.2,Win32,85.47008547,,,,,,,,,,,,,,,,853.0307,854.3245,854.3246,855.6068,return,0.1056,,98.56770833,,,,,,FBP-RB-91.png,0.45,1.2,60,0.5,,,,,,,,,,,,,,,,,,0,31,31,59,1,,,,,,,,,,,,,,,,,,,,,,,
,,,,,V3_069,18,female,2024-11-16_17h03.19.839,jersey_experiment_5_v3,2023.2.2,Win32,85.47008547,,,,,,,,,,,,,,,,855.6071,856.901,856.901,857.8893,return,0.111,,74.86979167,,,,,,FBP-YG-18.png,0.4,1.2,8,0.5,,,,,,,,,,,,,,,,,,0,32,32,7,1,,,,,,,,,,,,,,,,,,,,,,,
,,,,,V3_069,18,female,2024-11-16_17h03.19.839,jersey_experiment_5_v3,2023.2.2,Win32,85.47008547,,,,,,,,,,,,,,,,857.8895,859.1834,859.1834,859.666,return,0.0415,,75.26041667,,,,,,FBP-YG-19.png,0.35,1.2,11,0.5,,,,,,,,,,,,,,,,,,0,33,33,10,1,,,,,,,,,,,,,,,,,,,,,,,
,,,,,V3_069,18,female,2024-11-16_17h03.19.839,jersey_experiment_5_v3,2023.2.2,Win32,85.47008547,,,,,,,,,,,,,,,,859.6662,860.9601,860.9602,861.6543,return,0.0489,,75.52083333,,,,,,FBP-RB-91.png,0.43,1.2,59,0.5,,,,,,,,,,,,,,,,,,0,34,34,58,1,,,,,,,,,,,,,,,,,,,,,,,
,,,,,V3_069,18,female,2024-11-16_17h03.19.839,jersey_experiment_5_v3,2023.2.2,Win32,85.47008547,,,,,,,,,,,,,,,,861.6545,862.9484,862.9484,863.9836,return,0.1107,,48.4375,,,,,,FBP-RB-71.png,0.37,1.2,47,0.5,,,,,,,,,,,,,,,,,,0,35,35,46,1,,,,,,,,,,,,,,,,,,,,,,,
,,,,,V3_069,18,female,2024-11-16_17h03.19.839,jersey_experiment_5_v3,2023.2.2,Win32,85.47008547,,,,,,,,,,,,,,,,863.9837,865.5367,865.5368,866.2308,return,0.0855,,50.65104167,,,,,,FBP-OG-91.png,0.37,1.2,42,0.75,,,,,,,,,,,,,,,,,,0,36,36,41,1,,,,,,,,,,,,,,,,,,,,,,,
,,,,,V3_069,18,female,2024-11-16_17h03.19.839,jersey_experiment_5_v3,2023.2.2,Win32,85.47008547,,,,,,,,,,,,,,,,866.231,867.7838,867.7838,868.4898,return,0.2333,,50.65104167,,,,,,FBP-OG-91.png,0.35,1.2,41,0.75,,,,,,,,,,,,,,,,,,0,37,37,40,1,,,,,,,,,,,,,,,,,,,,,,,
,,,,,V3_069,18,female,2024-11-16_17h03.19.839,jersey_experiment_5_v3,2023.2.2,Win32,85.47008547,,,,,,,,,,,,,,,,868.4901,869.7838,869.7838,870.9605,return,0.2177,,72.00520833,,,,,,FBP-YG-19.png,0.43,1.2,14,0.5,,,,,,,,,,,,,,,,,,0,38,38,13,1,,,,,,,,,,,,,,,,,,,,,,,
,,,,,V3_069,18,female,2024-11-16_17h03.19.839,jersey_experiment_5_v3,2023.2.2,Win32,85.47008547,,,,,,,,,,,,,,,,870.9607,872.5134,872.5135,873.243,return,0.0212,,74.08854167,,,,,,FBP-OG-81.png,0.45,1.2,40,0.75,,,,,,,,,,,,,,,,,,0,39,39,39,1,,,,,,,,,,,,,,,,,,,,,,,
,,,,,V3_069,18,female,2024-11-16_17h03.19.839,jersey_experiment_5_v3,2023.2.2,Win32,85.47008547,,,,,,,,,,,,,,,,873.2432,874.5371,874.5372,875.09,return,0.0613,,74.08854167,,,,,,FBP-YG-17.png,0.35,1.2,1,0.5,,,,,,,,,,,,,,,,,,0,40,40,0,1,,,,,,,,,,,,,,,,,,,,,,,
,,,,,V3_069,18,female,2024-11-16_17h03.19.839,jersey_experiment_5_v3,2023.2.2,Win32,85.47008547,,,,,,,,,,,,,,,,875.0902,876.3841,876.3841,877.3135,return,0.0654,,75.52083333,,,,,,FBP-RB-71.png,0.45,1.2,50,0.5,,,,,,,,,,,,,,,,,,0,41,41,49,1,,,,,,,,,,,,,,,,,,,,,,,
,,,,,V3_069,18,female,2024-11-16_17h03.19.839,jersey_experiment_5_v3,2023.2.2,Win32,85.47008547,,,,,,,,,,,,,,,,877.3137,878.6078,878.6078,879.5372,return,0.0539,,98.828125,,,,,,FBP-YG-17.png,0.45,1.2,5,0.5,,,,,,,,,,,,,,,,,,0,42,42,4,1,,,,,,,,,,,,,,,,,,,,,,,
,,,,,V3_069,18,female,2024-11-16_17h03.19.839,jersey_experiment_5_v3,2023.2.2,Win32,85.47008547,,,,,,,,,,,,,,,,879.5375,880.8313,880.8313,881.749,return,0.0737,,75.390625,,,,,,FBP-RB-81.png,0.4,1.2,53,0.5,,,,,,,,,,,,,,,,,,0,43,43,52,1,,,,,,,,,,,,,,,,,,,,,,,
,,,,,V3_069,18,female,2024-11-16_17h03.19.839,jersey_experiment_5_v3,2023.2.2,Win32,85.47008547,,,,,,,,,,,,,,,,881.7492,883.0432,883.0432,883.7139,return,0.0416,,99.47916667,,,,,,FBP-PT-71.png,0.45,1.2,20,0.5,,,,,,,,,,,,,,,,,,0,44,44,19,1,,,,,,,,,,,,,,,,,,,,,,,
,,,,,V3_069,18,female,2024-11-16_17h03.19.839,jersey_experiment_5_v3,2023.2.2,Win32,85.47008547,,,,,,,,,,,,,,,,883.7141,885.0081,885.0081,885.9375,return,0.062,,97.52604167,,,,,,FBP-YG-18.png,0.45,1.2,10,0.5,,,,,,,,,,,,,,,,,,0,45,45,9,1,,,,,,,,,,,,,,,,,,,,,,,
,,,,,V3_069,18,female,2024-11-16_17h03.19.839,jersey_experiment_5_v3,2023.2.2,Win32,85.47008547,,,,,,,,,,,,,,,,885.9377,887.2316,887.2317,888.4316,return,0.089,,74.21875,,,,,,FBP-PT-71.png,0.35,1.2,16,0.5,,,,,,,,,,,,,,,,,,0,46,46,15,1,,,,,,,,,,,,,,,,,,,,,,,
,,,,,V3_069,18,female,2024-11-16_17h03.19.839,jersey_experiment_5_v3,2023.2.2,Win32,85.47008547,,,,,,,,,,,,,,,,888.432,889.7258,889.7258,890.8317,return,0.0556,,24.73958333,,,,,,FBP-RB-91.png,0.35,1.2,56,0.5,,,,,,,,,,,,,,,,,,0,47,47,55,1,,,,,,,,,,,,,,,,,,,,,,,
,,,,,V3_069,18,female,2024-11-16_17h03.19.839,jersey_experiment_5_v3,2023.2.2,Win32,85.47008547,,,,,,,,,,,,,,,,890.8319,892.126,892.126,893.2673,return,0.1426,,26.69270833,,,,,,FBP-RB-91.png,0.37,1.2,57,0.5,,,,,,,,,,,,,,,,,,0,48,48,56,1,,,,,,,,,,,,,,,,,,,,,,,
,,,,,V3_069,18,female,2024-11-16_17h03.19.839,jersey_experiment_5_v3,2023.2.2,Win32,85.47008547,,,,,,,,,,,,,,,,893.2675,894.5615,894.5615,895.9142,return,0.1415,,99.73958333,,,,,,FBP-PT-81.png,0.43,1.2,24,0.5,,,,,,,,,,,,,,,,,,0,49,49,23,1,,,,,,,,,,,,,,,,,,,,,,,
,,,,,V3_069,18,female,2024-11-16_17h03.19.839,jersey_experiment_5_v3,2023.2.2,Win32,85.47008547,,,,,,,,,,,,,,,,895.9144,897.2085,897.2085,898.2086,return,0.101,,74.34895833,,,,,,FBP-PT-71.png,0.4,1.2,18,0.5,,,,,,,,,,,,,,,,,,0,50,50,17,1,,,,,,,,,,,,,,,,,,,,,,,
,,,,,V3_069,18,female,2024-11-16_17h03.19.839,jersey_experiment_5_v3,2023.2.2,Win32,85.47008547,,,,,,,,,,,,,,,,898.2088,899.5026,899.5026,900.2321,return,0.1178,,74.34895833,,,,,,FBP-PT-71.png,0.43,1.2,19,0.5,,,,,,,,,,,,,,,,,,0,51,51,18,1,,,,,,,,,,,,,,,,,,,,,,,
,,,,,V3_069,18,female,2024-11-16_17h03.19.839,jersey_experiment_5_v3,2023.2.2,Win32,85.47008547,,,,,,,,,,,,,,,,900.2323,901.5264,901.5264,902.3735,return,0.0851,,51.171875,,,,,,FBP-PT-81.png,0.37,1.2,22,0.5,,,,,,,,,,,,,,,,,,0,52,52,21,1,,,,,,,,,,,,,,,,,,,,,,,
,,,,,V3_069,18,female,2024-11-16_17h03.19.839,jersey_experiment_5_v3,2023.2.2,Win32,85.47008547,,,,,,,,,,,,,,,,902.3737,903.6676,903.6676,904.8322,return,0.0786,,74.609375,,,,,,FBP-PT-81.png,0.4,1.2,23,0.5,,,,,,,,,,,,,,,,,,0,53,53,22,1,,,,,,,,,,,,,,,,,,,,,,,
,,,,,V3_069,18,female,2024-11-16_17h03.19.839,jersey_experiment_5_v3,2023.2.2,Win32,85.47008547,,,,,,,,,,,,,,,,904.8325,906.3852,906.3852,907.5382,return,0.1469,,99.34895833,,,,,,FBP-OG-71.png,0.43,1.2,34,0.75,,,,,,,,,,,,,,,,,,0,54,54,33,1,,,,,,,,,,,,,,,,,,,,,,,
,,,,,V3_069,18,female,2024-11-16_17h03.19.839,jersey_experiment_5_v3,2023.2.2,Win32,85.47008547,,,,,,,,,,,,,,,,907.5385,908.8324,908.8325,909.3384,return,0.0964,,99.21875,,,,,,FBP-RB-91.png,0.4,1.2,58,0.5,,,,,,,,,,,,,,,,,,0,55,55,57,1,,,,,,,,,,,,,,,,,,,,,,,
,,,,,V3_069,18,female,2024-11-16_17h03.19.839,jersey_experiment_5_v3,2023.2.2,Win32,85.47008547,,,,,,,,,,,,,,,,909.3385,910.8913,910.8913,911.6325,return,0.2297,,98.95833333,,,,,,FBP-OG-71.png,0.45,1.2,35,0.75,,,,,,,,,,,,,,,,,,0,56,56,34,1,,,,,,,,,,,,,,,,,,,,,,,
,,,,,V3_069,18,female,2024-11-16_17h03.19.839,jersey_experiment_5_v3,2023.2.2,Win32,85.47008547,,,,,,,,,,,,,,,,911.6328,912.9267,912.9268,914.0092,return,0.0942,,25.65104167,,,,,,FBP-PT-71.png,0.37,1.2,17,0.5,,,,,,,,,,,,,,,,,,0,57,57,16,1,,,,,,,,,,,,,,,,,,,,,,,
,,,,,V3_069,18,female,2024-11-16_17h03.19.839,jersey_experiment_5_v3,2023.2.2,Win32,85.47008547,,,,,,,,,,,,,,,,914.0094,915.3032,915.3033,916.8092,return,0.1414,,99.86979167,,,,,,FBP-YG-18.png,0.43,1.2,9,0.5,,,,,,,,,,,,,,,,,,0,58,58,8,1,,,,,,,,,,,,,,,,,,,,,,,
,,,,,V3_069,18,female,2024-11-16_17h03.19.839,jersey_experiment_5_v3,2023.2.2,Win32,85.47008547,,,,,,,,,,,,,,,,916.8094,918.1033,918.1033,919.1033,return,0.0674,,48.4375,,,,,,FBP-PT-91.png,0.37,1.2,27,0.5,,,,,,,,,,,,,,,,,,0,59,59,26,1,,,,,,,,,,,,,,,,,,,,,,,
,,,,,V3_069,18,female,2024-11-16_17h03.19.839,jersey_experiment_5_v3,2023.2.2,Win32,85.47008547,,,,,,,,,,,,,,,,,,,,,,,,,,,,,,,,,,,,,,,,,,,,,,,,,,,,,,,,919.1034,930.0215,return,10.9088,,,,,,,,,,,,,,,,,,,
,,,,,V3_069,18,female,2024-11-16_17h03.19.839,jersey_experiment_5_v3,2023.2.2,Win32,85.47008547,,,,,,,,,,,,,,,,,,,,,,,,,,,,,,,,,,,,,,,,,,,,,,,,,,,,,,,,,,,,,930.0216,936.5511,1,5.0812,return,1.436,,,,,,,,,,,,
,,,,,V3_069,18,female,2024-11-16_17h03.19.839,jersey_experiment_5_v3,2023.2.2,Win32,85.47008547,,,,,,,,,,,,,,,,,,,,,,,,,,,,,,,,,,,,,,,,,,,,,,,,,,,,,,,,,,,,,,,,,,,,936.5511,989.1536,Maybe if the color of the players make us see them as bigger or smaller?,right,44.4429,,,,,,
,,,,,V3_069,18,female,2024-11-16_17h03.19.839,jersey_experiment_5_v3,2023.2.2,Win32,85.47008547,,,,,,,,,,,,,,,,,,,,,,,,,,,,,,,,,,,,,,,,,,,,,,,,,,,,,,,,,,,,,,,,,,,,,,,,,,989.1536,994.7886,return,5.6259,