requirements.started,requirements.stopped,key_resp_3.keys,key_resp_3.rt,key_resp_3.duration,Subject ID,Age,Gender,date,expName,psychopyVersion,OS,frameRate,instructions1.started,instructions1.stopped,key_resp.keys,key_resp.rt,key_resp.duration,example.started,example.stopped,enter_2.keys,enter_2.rt,enter_2.duration,instructions2.started,instructions2.stopped,enter_3.keys,enter_3.rt,enter_3.duration,image.started,image.stopped,slider_2.started,slider_2.stopped,next.keys,next.rt,next.duration,slider.response,trial_block_1.thisRepN,trial_block_1.thisTrialN,trial_block_1.thisN,trial_block_1.thisIndex,trial_block_1.ran,Path,Width,Height,Index,Duration,trial_block_2.thisRepN,trial_block_2.thisTrialN,trial_block_2.thisN,trial_block_2.thisIndex,trial_block_2.ran,rest_break.started,rest_break.stopped,end_break.started,end_break.stopped,key_resp_5.keys,key_resp_5.rt,key_resp_5.duration,trial_block_3.thisRepN,trial_block_3.thisTrialN,trial_block_3.thisN,trial_block_3.thisIndex,trial_block_3.ran,trial_block_4.thisRepN,trial_block_4.thisTrialN,trial_block_4.thisN,trial_block_4.thisIndex,trial_block_4.ran,questions_intro.started,questions_intro.stopped,enter_12.keys,enter_12.rt,enter_12.duration,question2.started,question2.stopped,question_doingbest.response,question_doingbest.rt,enter_15.keys,enter_15.rt,enter_15.duration,pattern.started,pattern.stopped,pattern_2.text,enter_17.keys,enter_17.rt,enter_17.duration,thankyou.started,thankyou.stopped,enter_14.keys,enter_14.rt,enter_14.duration
1E-04,69.8194,return,69.8132,,V3_083,24,Female,2024-11-21_15h53.04.722,jersey_experiment_5_v3,2023.2.2,Win32,84.74576271,,,,,,,,,,,,,,,,,,,,,,,,,,,,,,,,,,,,,,,,,,,,,,,,,,,,,,,,,,,,,,,,,,,,,,,,,,,,,,
,,,,,V3_083,24,Female,2024-11-21_15h53.04.722,jersey_experiment_5_v3,2023.2.2,Win32,84.74576271,69.8195,97.3265,return,27.4944,,,,,,,,,,,,,,,,,,,,,,,,,,,,,,,,,,,,,,,,,,,,,,,,,,,,,,,,,,,,,,,,,,,,,,,,,,
,,,,,V3_083,24,Female,2024-11-21_15h53.04.722,jersey_experiment_5_v3,2023.2.2,Win32,84.74576271,,,,,,97.3265,103.4174,return,6.061,,,,,,,,,,,,,,,,,,,,,,,,,,,,,,,,,,,,,,,,,,,,,,,,,,,,,,,,,,,,,,,,,,,,,
,,,,,V3_083,24,Female,2024-11-21_15h53.04.722,jersey_experiment_5_v3,2023.2.2,Win32,84.74576271,,,,,,,,,,,103.4174,147.6191,return,44.1886,,,,,,,,,,,,,,,,,,,,,,,,,,,,,,,,,,,,,,,,,,,,,,,,,,,,,,,,,,,,,,,,
,,,,,V3_083,24,Female,2024-11-21_15h53.04.722,jersey_experiment_5_v3,2023.2.2,Win32,84.74576271,,,,,,,,,,,,,,,,147.6209,149.1721,149.1721,156.9135,return,3.365,,50.26041667,0,0,0,15,1,FBP-PT-17.png,0.35,1.2,16,0.75,,,,,,,,,,,,,,,,,,,,,,,,,,,,,,,,,,,,,,,,,,,,,
,,,,,V3_083,24,Female,2024-11-21_15h53.04.722,jersey_experiment_5_v3,2023.2.2,Win32,84.74576271,,,,,,,,,,,,,,,,156.9139,158.4666,158.4667,165.5846,return,3.9762,,55.98958333,0,1,1,52,1,FBP-RB-18.png,0.4,1.2,53,0.75,,,,,,,,,,,,,,,,,,,,,,,,,,,,,,,,,,,,,,,,,,,,,
,,,,,V3_083,24,Female,2024-11-21_15h53.04.722,jersey_experiment_5_v3,2023.2.2,Win32,84.74576271,,,,,,,,,,,,,,,,165.5848,167.1375,167.1375,171.4435,return,1.0017,,69.66145833,0,2,2,28,1,FBP-PT-19.png,0.43,1.2,29,0.75,,,,,,,,,,,,,,,,,,,,,,,,,,,,,,,,,,,,,,,,,,,,,
,,,,,V3_083,24,Female,2024-11-21_15h53.04.722,jersey_experiment_5_v3,2023.2.2,Win32,84.74576271,,,,,,,,,,,,,,,,171.4437,172.7377,172.7378,176.2907,return,0.8713,,75.13020833,0,3,3,39,1,FBP-OG-18.png,0.45,1.2,40,0.5,,,,,,,,,,,,,,,,,,,,,,,,,,,,,,,,,,,,,,,,,,,,,
,,,,,V3_083,24,Female,2024-11-21_15h53.04.722,jersey_experiment_5_v3,2023.2.2,Win32,84.74576271,,,,,,,,,,,,,,,,176.291,177.8438,177.8439,179.5144,return,0.6388,,74.86979167,0,4,4,58,1,FBP-RB-19.png,0.43,1.2,59,0.75,,,,,,,,,,,,,,,,,,,,,,,,,,,,,,,,,,,,,,,,,,,,,
,,,,,V3_083,24,Female,2024-11-21_15h53.04.722,jersey_experiment_5_v3,2023.2.2,Win32,84.74576271,,,,,,,,,,,,,,,,179.5146,181.0673,181.0674,183.0204,return,0.7229,,74.86979167,0,5,5,24,1,FBP-PT-18.png,0.45,1.2,25,0.75,,,,,,,,,,,,,,,,,,,,,,,,,,,,,,,,,,,,,,,,,,,,,
,,,,,V3_083,24,Female,2024-11-21_15h53.04.722,jersey_experiment_5_v3,2023.2.2,Win32,84.74576271,,,,,,,,,,,,,,,,183.0207,184.5733,184.5734,187.5382,return,0.8142,,35.02604167,0,6,6,21,1,FBP-PT-18.png,0.37,1.2,22,0.75,,,,,,,,,,,,,,,,,,,,,,,,,,,,,,,,,,,,,,,,,,,,,
,,,,,V3_083,24,Female,2024-11-21_15h53.04.722,jersey_experiment_5_v3,2023.2.2,Win32,84.74576271,,,,,,,,,,,,,,,,187.5385,189.0913,189.0913,191.9619,return,0.9925,,35.02604167,0,7,7,5,1,FBP-YG-81.png,0.35,1.2,6,0.75,,,,,,,,,,,,,,,,,,,,,,,,,,,,,,,,,,,,,,,,,,,,,
,,,,,V3_083,24,Female,2024-11-21_15h53.04.722,jersey_experiment_5_v3,2023.2.2,Win32,84.74576271,,,,,,,,,,,,,,,,191.9622,193.5149,193.5149,196.8679,return,0.7379,,54.16666667,0,8,8,57,1,FBP-RB-19.png,0.4,1.2,58,0.75,,,,,,,,,,,,,,,,,,,,,,,,,,,,,,,,,,,,,,,,,,,,,
,,,,,V3_083,24,Female,2024-11-21_15h53.04.722,jersey_experiment_5_v3,2023.2.2,Win32,84.74576271,,,,,,,,,,,,,,,,196.8681,198.4209,198.4211,200.7389,return,0.6585,,74.47916667,0,9,9,59,1,FBP-RB-19.png,0.45,1.2,60,0.75,,,,,,,,,,,,,,,,,,,,,,,,,,,,,,,,,,,,,,,,,,,,,
,,,,,V3_083,24,Female,2024-11-21_15h53.04.722,jersey_experiment_5_v3,2023.2.2,Win32,84.74576271,,,,,,,,,,,,,,,,200.7391,202.2917,202.2918,203.6801,return,0.5327,,74.21875,0,10,10,49,1,FBP-RB-17.png,0.45,1.2,50,0.75,,,,,,,,,,,,,,,,,,,,,,,,,,,,,,,,,,,,,,,,,,,,,
,,,,,V3_083,24,Female,2024-11-21_15h53.04.722,jersey_experiment_5_v3,2023.2.2,Win32,84.74576271,,,,,,,,,,,,,,,,203.6803,205.233,205.2331,206.6214,return,0.6277,,73.95833333,0,11,11,14,1,FBP-YG-91.png,0.45,1.2,15,0.75,,,,,,,,,,,,,,,,,,,,,,,,,,,,,,,,,,,,,,,,,,,,,
,,,,,V3_083,24,Female,2024-11-21_15h53.04.722,jersey_experiment_5_v3,2023.2.2,Win32,84.74576271,,,,,,,,,,,,,,,,206.6216,207.9155,207.9156,210.5745,return,0.6831,,24.73958333,0,12,12,36,1,FBP-OG-18.png,0.37,1.2,37,0.5,,,,,,,,,,,,,,,,,,,,,,,,,,,,,,,,,,,,,,,,,,,,,
,,,,,V3_083,24,Female,2024-11-21_15h53.04.722,jersey_experiment_5_v3,2023.2.2,Win32,84.74576271,,,,,,,,,,,,,,,,210.5747,212.1274,212.1274,215.3864,return,0.8073,,39.97395833,0,13,13,22,1,FBP-PT-18.png,0.4,1.2,23,0.75,,,,,,,,,,,,,,,,,,,,,,,,,,,,,,,,,,,,,,,,,,,,,
,,,,,V3_083,24,Female,2024-11-21_15h53.04.722,jersey_experiment_5_v3,2023.2.2,Win32,84.74576271,,,,,,,,,,,,,,,,215.3867,216.9393,216.9394,219.6925,return,0.2017,,29.16666667,0,14,14,10,1,FBP-YG-91.png,0.35,1.2,11,0.75,,,,,,,,,,,,,,,,,,,,,,,,,,,,,,,,,,,,,,,,,,,,,
,,,,,V3_083,24,Female,2024-11-21_15h53.04.722,jersey_experiment_5_v3,2023.2.2,Win32,84.74576271,,,,,,,,,,,,,,,,219.6928,220.9868,220.9868,222.5867,return,0.1952,,33.59375,0,15,15,31,1,FBP-OG-17.png,0.37,1.2,32,0.5,,,,,,,,,,,,,,,,,,,,,,,,,,,,,,,,,,,,,,,,,,,,,
,,,,,V3_083,24,Female,2024-11-21_15h53.04.722,jersey_experiment_5_v3,2023.2.2,Win32,84.74576271,,,,,,,,,,,,,,,,222.587,223.8809,223.8809,225.328,return,0.2593,,48.95833333,0,16,16,42,1,FBP-OG-19.png,0.4,1.2,43,0.5,,,,,,,,,,,,,,,,,,,,,,,,,,,,,,,,,,,,,,,,,,,,,
,,,,,V3_083,24,Female,2024-11-21_15h53.04.722,jersey_experiment_5_v3,2023.2.2,Win32,84.74576271,,,,,,,,,,,,,,,,225.3282,226.8809,226.881,227.9988,return,0.1676,,36.58854167,0,17,17,0,1,FBP-YG-71.png,0.35,1.2,1,0.75,,,,,,,,,,,,,,,,,,,,,,,,,,,,,,,,,,,,,,,,,,,,,
,,,,,V3_083,24,Female,2024-11-21_15h53.04.722,jersey_experiment_5_v3,2023.2.2,Win32,84.74576271,,,,,,,,,,,,,,,,227.999,229.2927,229.2928,231.5165,return,0.1818,,47.78645833,0,18,18,40,1,FBP-OG-19.png,0.35,1.2,41,0.5,,,,,,,,,,,,,,,,,,,,,,,,,,,,,,,,,,,,,,,,,,,,,
,,,,,V3_083,24,Female,2024-11-21_15h53.04.722,jersey_experiment_5_v3,2023.2.2,Win32,84.74576271,,,,,,,,,,,,,,,,231.5166,233.0696,233.0697,234.5166,return,0.2204,,67.83854167,0,19,19,7,1,FBP-YG-81.png,0.4,1.2,8,0.75,,,,,,,,,,,,,,,,,,,,,,,,,,,,,,,,,,,,,,,,,,,,,
,,,,,V3_083,24,Female,2024-11-21_15h53.04.722,jersey_experiment_5_v3,2023.2.2,Win32,84.74576271,,,,,,,,,,,,,,,,234.5168,236.0696,236.0696,237.1638,return,0.1588,,75.26041667,0,20,20,23,1,FBP-PT-18.png,0.43,1.2,24,0.75,,,,,,,,,,,,,,,,,,,,,,,,,,,,,,,,,,,,,,,,,,,,,
,,,,,V3_083,24,Female,2024-11-21_15h53.04.722,jersey_experiment_5_v3,2023.2.2,Win32,84.74576271,,,,,,,,,,,,,,,,237.164,238.7168,238.7169,239.9402,return,0.2037,,73.828125,0,21,21,47,1,FBP-RB-17.png,0.4,1.2,48,0.75,,,,,,,,,,,,,,,,,,,,,,,,,,,,,,,,,,,,,,,,,,,,,
,,,,,V3_083,24,Female,2024-11-21_15h53.04.722,jersey_experiment_5_v3,2023.2.2,Win32,84.74576271,,,,,,,,,,,,,,,,239.9405,241.4933,241.4933,242.7406,return,0.2334,,62.36979167,0,22,22,20,1,FBP-PT-18.png,0.35,1.2,21,0.75,,,,,,,,,,,,,,,,,,,,,,,,,,,,,,,,,,,,,,,,,,,,,
,,,,,V3_083,24,Female,2024-11-21_15h53.04.722,jersey_experiment_5_v3,2023.2.2,Win32,84.74576271,,,,,,,,,,,,,,,,242.7409,244.2936,244.2936,245.9051,return,0.1975,,76.82291667,0,23,23,3,1,FBP-YG-71.png,0.43,1.2,4,0.75,,,,,,,,,,,,,,,,,,,,,,,,,,,,,,,,,,,,,,,,,,,,,
,,,,,V3_083,24,Female,2024-11-21_15h53.04.722,jersey_experiment_5_v3,2023.2.2,Win32,84.74576271,,,,,,,,,,,,,,,,245.9054,247.4583,247.4583,248.5641,return,0.1261,,85.41666667,0,24,24,9,1,FBP-YG-81.png,0.45,1.2,10,0.75,,,,,,,,,,,,,,,,,,,,,,,,,,,,,,,,,,,,,,,,,,,,,
,,,,,V3_083,24,Female,2024-11-21_15h53.04.722,jersey_experiment_5_v3,2023.2.2,Win32,84.74576271,,,,,,,,,,,,,,,,248.5644,250.1173,250.1173,252.035,return,0.2352,,46.875,0,25,25,25,1,FBP-PT-19.png,0.35,1.2,26,0.75,,,,,,,,,,,,,,,,,,,,,,,,,,,,,,,,,,,,,,,,,,,,,
,,,,,V3_083,24,Female,2024-11-21_15h53.04.722,jersey_experiment_5_v3,2023.2.2,Win32,84.74576271,,,,,,,,,,,,,,,,252.0353,253.5879,253.5879,254.9408,return,0.3813,,51.30208333,0,26,26,51,1,FBP-RB-18.png,0.37,1.2,52,0.75,,,,,,,,,,,,,,,,,,,,,,,,,,,,,,,,,,,,,,,,,,,,,
,,,,,V3_083,24,Female,2024-11-21_15h53.04.722,jersey_experiment_5_v3,2023.2.2,Win32,84.74576271,,,,,,,,,,,,,,,,254.9411,256.4939,256.4939,257.3292,return,0.1881,,51.82291667,0,27,27,46,1,FBP-RB-17.png,0.37,1.2,47,0.75,,,,,,,,,,,,,,,,,,,,,,,,,,,,,,,,,,,,,,,,,,,,,
,,,,,V3_083,24,Female,2024-11-21_15h53.04.722,jersey_experiment_5_v3,2023.2.2,Win32,84.74576271,,,,,,,,,,,,,,,,257.3293,258.8705,258.8706,259.9527,return,0.1731,,51.30208333,0,28,28,1,1,FBP-YG-71.png,0.37,1.2,2,0.75,,,,,,,,,,,,,,,,,,,,,,,,,,,,,,,,,,,,,,,,,,,,,
,,,,,V3_083,24,Female,2024-11-21_15h53.04.722,jersey_experiment_5_v3,2023.2.2,Win32,84.74576271,,,,,,,,,,,,,,,,259.953,261.2469,261.247,263.1059,return,0.1886,,66.796875,0,29,29,37,1,FBP-OG-18.png,0.4,1.2,38,0.5,,,,,,,,,,,,,,,,,,,,,,,,,,,,,,,,,,,,,,,,,,,,,
,,,,,V3_083,24,Female,2024-11-21_15h53.04.722,jersey_experiment_5_v3,2023.2.2,Win32,84.74576271,,,,,,,,,,,,,,,,263.1062,264.4,264.4,265.2471,return,0.2377,,65.75520833,0,30,30,32,1,FBP-OG-17.png,0.4,1.2,33,0.5,,,,,,,,,,,,,,,,,,,,,,,,,,,,,,,,,,,,,,,,,,,,,
,,,,,V3_083,24,Female,2024-11-21_15h53.04.722,jersey_experiment_5_v3,2023.2.2,Win32,84.74576271,,,,,,,,,,,,,,,,265.2473,266.5412,266.5412,267.7296,return,0.2817,,80.33854167,0,31,31,34,1,FBP-OG-17.png,0.45,1.2,35,0.5,,,,,,,,,,,,,,,,,,,,,,,,,,,,,,,,,,,,,,,,,,,,,
,,,,,V3_083,24,Female,2024-11-21_15h53.04.722,jersey_experiment_5_v3,2023.2.2,Win32,84.74576271,,,,,,,,,,,,,,,,267.7298,269.2826,269.2826,270.3296,return,0.1727,,85.546875,0,32,32,53,1,FBP-RB-18.png,0.43,1.2,54,0.75,,,,,,,,,,,,,,,,,,,,,,,,,,,,,,,,,,,,,,,,,,,,,
,,,,,V3_083,24,Female,2024-11-21_15h53.04.722,jersey_experiment_5_v3,2023.2.2,Win32,84.74576271,,,,,,,,,,,,,,,,270.3299,271.6238,271.6239,272.7062,return,0.1652,,91.66666667,0,33,33,44,1,FBP-OG-19.png,0.45,1.2,45,0.5,,,,,,,,,,,,,,,,,,,,,,,,,,,,,,,,,,,,,,,,,,,,,
,,,,,V3_083,24,Female,2024-11-21_15h53.04.722,jersey_experiment_5_v3,2023.2.2,Win32,84.74576271,,,,,,,,,,,,,,,,272.7064,274.0003,274.0003,280.7068,return,2.4323,,46.35416667,0,34,34,30,1,FBP-OG-17.png,0.35,1.2,31,0.5,,,,,,,,,,,,,,,,,,,,,,,,,,,,,,,,,,,,,,,,,,,,,
,,,,,V3_083,24,Female,2024-11-21_15h53.04.722,jersey_experiment_5_v3,2023.2.2,Win32,84.74576271,,,,,,,,,,,,,,,,280.707,282.2596,282.2596,294.5307,return,1.1925,,50.52083333,0,35,35,19,1,FBP-PT-17.png,0.45,1.2,20,0.75,,,,,,,,,,,,,,,,,,,,,,,,,,,,,,,,,,,,,,,,,,,,,
,,,,,V3_083,24,Female,2024-11-21_15h53.04.722,jersey_experiment_5_v3,2023.2.2,Win32,84.74576271,,,,,,,,,,,,,,,,294.5308,296.0836,296.0837,298.1307,return,0.2353,,76.171875,0,36,36,4,1,FBP-YG-71.png,0.45,1.2,5,0.75,,,,,,,,,,,,,,,,,,,,,,,,,,,,,,,,,,,,,,,,,,,,,
,,,,,V3_083,24,Female,2024-11-21_15h53.04.722,jersey_experiment_5_v3,2023.2.2,Win32,84.74576271,,,,,,,,,,,,,,,,298.131,299.6839,299.6839,300.7662,return,0.1646,,85.9375,0,37,37,29,1,FBP-PT-19.png,0.45,1.2,30,0.75,,,,,,,,,,,,,,,,,,,,,,,,,,,,,,,,,,,,,,,,,,,,,
,,,,,V3_083,24,Female,2024-11-21_15h53.04.722,jersey_experiment_5_v3,2023.2.2,Win32,84.74576271,,,,,,,,,,,,,,,,300.7664,302.3193,302.3193,303.8015,return,0.1373,,56.640625,0,38,38,56,1,FBP-RB-19.png,0.37,1.2,57,0.75,,,,,,,,,,,,,,,,,,,,,,,,,,,,,,,,,,,,,,,,,,,,,
,,,,,V3_083,24,Female,2024-11-21_15h53.04.722,jersey_experiment_5_v3,2023.2.2,Win32,84.74576271,,,,,,,,,,,,,,,,303.8017,305.0957,305.0957,306.3664,return,0.227,,39.453125,0,39,39,35,1,FBP-OG-18.png,0.35,1.2,36,0.5,,,,,,,,,,,,,,,,,,,,,,,,,,,,,,,,,,,,,,,,,,,,,
,,,,,V3_083,24,Female,2024-11-21_15h53.04.722,jersey_experiment_5_v3,2023.2.2,Win32,84.74576271,,,,,,,,,,,,,,,,306.3666,307.6605,307.6606,310.249,return,0.9146,,48.69791667,0,40,40,41,1,FBP-OG-19.png,0.37,1.2,42,0.5,,,,,,,,,,,,,,,,,,,,,,,,,,,,,,,,,,,,,,,,,,,,,
,,,,,V3_083,24,Female,2024-11-21_15h53.04.722,jersey_experiment_5_v3,2023.2.2,Win32,84.74576271,,,,,,,,,,,,,,,,310.2492,311.802,311.802,312.8843,return,0.18,,49.08854167,0,41,41,6,1,FBP-YG-81.png,0.37,1.2,7,0.75,,,,,,,,,,,,,,,,,,,,,,,,,,,,,,,,,,,,,,,,,,,,,
,,,,,V3_083,24,Female,2024-11-21_15h53.04.722,jersey_experiment_5_v3,2023.2.2,Win32,84.74576271,,,,,,,,,,,,,,,,312.8845,314.4373,314.4373,316.0491,return,0.1888,,46.875,0,42,42,45,1,FBP-RB-17.png,0.35,1.2,46,0.75,,,,,,,,,,,,,,,,,,,,,,,,,,,,,,,,,,,,,,,,,,,,,
,,,,,V3_083,24,Female,2024-11-21_15h53.04.722,jersey_experiment_5_v3,2023.2.2,Win32,84.74576271,,,,,,,,,,,,,,,,316.0493,317.6022,317.6022,319.2492,return,0.1274,,79.6875,0,43,43,48,1,FBP-RB-17.png,0.43,1.2,49,0.75,,,,,,,,,,,,,,,,,,,,,,,,,,,,,,,,,,,,,,,,,,,,,
,,,,,V3_083,24,Female,2024-11-21_15h53.04.722,jersey_experiment_5_v3,2023.2.2,Win32,84.74576271,,,,,,,,,,,,,,,,319.2494,320.8024,320.8024,322.7553,return,0.1416,,78.38541667,0,44,44,2,1,FBP-YG-71.png,0.4,1.2,3,0.75,,,,,,,,,,,,,,,,,,,,,,,,,,,,,,,,,,,,,,,,,,,,,
,,,,,V3_083,24,Female,2024-11-21_15h53.04.722,jersey_experiment_5_v3,2023.2.2,Win32,84.74576271,,,,,,,,,,,,,,,,322.7554,324.3084,324.3084,325.3789,return,0.1646,,67.44791667,0,45,45,17,1,FBP-PT-17.png,0.4,1.2,18,0.75,,,,,,,,,,,,,,,,,,,,,,,,,,,,,,,,,,,,,,,,,,,,,
,,,,,V3_083,24,Female,2024-11-21_15h53.04.722,jersey_experiment_5_v3,2023.2.2,Win32,84.74576271,,,,,,,,,,,,,,,,325.3792,326.932,326.9321,328.1084,return,0.1198,,51.5625,0,46,46,50,1,FBP-RB-18.png,0.35,1.2,51,0.75,,,,,,,,,,,,,,,,,,,,,,,,,,,,,,,,,,,,,,,,,,,,,
,,,,,V3_083,24,Female,2024-11-21_15h53.04.722,jersey_experiment_5_v3,2023.2.2,Win32,84.74576271,,,,,,,,,,,,,,,,328.1087,329.6614,329.6614,331.2146,return,0.1797,,50.390625,0,47,47,55,1,FBP-RB-19.png,0.35,1.2,56,0.75,,,,,,,,,,,,,,,,,,,,,,,,,,,,,,,,,,,,,,,,,,,,,
,,,,,V3_083,24,Female,2024-11-21_15h53.04.722,jersey_experiment_5_v3,2023.2.2,Win32,84.74576271,,,,,,,,,,,,,,,,331.2148,332.7675,332.7675,334.1792,return,0.1637,,79.16666667,0,48,48,13,1,FBP-YG-91.png,0.43,1.2,14,0.75,,,,,,,,,,,,,,,,,,,,,,,,,,,,,,,,,,,,,,,,,,,,,
,,,,,V3_083,24,Female,2024-11-21_15h53.04.722,jersey_experiment_5_v3,2023.2.2,Win32,84.74576271,,,,,,,,,,,,,,,,334.1795,335.7321,335.7322,338.3676,return,0.1803,,57.94270833,0,49,49,16,1,FBP-PT-17.png,0.37,1.2,17,0.75,,,,,,,,,,,,,,,,,,,,,,,,,,,,,,,,,,,,,,,,,,,,,
,,,,,V3_083,24,Female,2024-11-21_15h53.04.722,jersey_experiment_5_v3,2023.2.2,Win32,84.74576271,,,,,,,,,,,,,,,,338.3678,339.9206,339.9206,340.9442,return,0.1501,,77.734375,0,50,50,8,1,FBP-YG-81.png,0.43,1.2,9,0.75,,,,,,,,,,,,,,,,,,,,,,,,,,,,,,,,,,,,,,,,,,,,,
,,,,,V3_083,24,Female,2024-11-21_15h53.04.722,jersey_experiment_5_v3,2023.2.2,Win32,84.74576271,,,,,,,,,,,,,,,,340.9445,342.4971,342.4972,343.6149,return,0.2358,,94.140625,0,51,51,54,1,FBP-RB-18.png,0.45,1.2,55,0.75,,,,,,,,,,,,,,,,,,,,,,,,,,,,,,,,,,,,,,,,,,,,,
,,,,,V3_083,24,Female,2024-11-21_15h53.04.722,jersey_experiment_5_v3,2023.2.2,Win32,84.74576271,,,,,,,,,,,,,,,,343.6151,345.1678,345.1679,346.1563,return,0.1348,,84.24479167,0,52,52,18,1,FBP-PT-17.png,0.43,1.2,19,0.75,,,,,,,,,,,,,,,,,,,,,,,,,,,,,,,,,,,,,,,,,,,,,
,,,,,V3_083,24,Female,2024-11-21_15h53.04.722,jersey_experiment_5_v3,2023.2.2,Win32,84.74576271,,,,,,,,,,,,,,,,346.1565,347.7094,347.7095,349.168,return,0.1434,,54.42708333,0,53,53,11,1,FBP-YG-91.png,0.37,1.2,12,0.75,,,,,,,,,,,,,,,,,,,,,,,,,,,,,,,,,,,,,,,,,,,,,
,,,,,V3_083,24,Female,2024-11-21_15h53.04.722,jersey_experiment_5_v3,2023.2.2,Win32,84.74576271,,,,,,,,,,,,,,,,349.1682,350.721,350.721,351.7564,return,0.1819,,68.48958333,0,54,54,27,1,FBP-PT-19.png,0.4,1.2,28,0.75,,,,,,,,,,,,,,,,,,,,,,,,,,,,,,,,,,,,,,,,,,,,,
,,,,,V3_083,24,Female,2024-11-21_15h53.04.722,jersey_experiment_5_v3,2023.2.2,Win32,84.74576271,,,,,,,,,,,,,,,,351.7566,353.0505,353.0505,355.427,return,1.0738,,90.88541667,0,55,55,38,1,FBP-OG-18.png,0.43,1.2,39,0.5,,,,,,,,,,,,,,,,,,,,,,,,,,,,,,,,,,,,,,,,,,,,,
,,,,,V3_083,24,Female,2024-11-21_15h53.04.722,jersey_experiment_5_v3,2023.2.2,Win32,84.74576271,,,,,,,,,,,,,,,,355.4272,356.7212,356.7213,357.6977,return,0.2122,,91.40625,0,56,56,43,1,FBP-OG-19.png,0.43,1.2,44,0.5,,,,,,,,,,,,,,,,,,,,,,,,,,,,,,,,,,,,,,,,,,,,,
,,,,,V3_083,24,Female,2024-11-21_15h53.04.722,jersey_experiment_5_v3,2023.2.2,Win32,84.74576271,,,,,,,,,,,,,,,,357.698,358.9919,358.992,359.6155,return,0.1563,,90.49479167,0,57,57,33,1,FBP-OG-17.png,0.43,1.2,34,0.5,,,,,,,,,,,,,,,,,,,,,,,,,,,,,,,,,,,,,,,,,,,,,
,,,,,V3_083,24,Female,2024-11-21_15h53.04.722,jersey_experiment_5_v3,2023.2.2,Win32,84.74576271,,,,,,,,,,,,,,,,359.6158,361.1685,361.1685,362.5567,return,0.1665,,50.91145833,0,58,58,26,1,FBP-PT-19.png,0.37,1.2,27,0.75,,,,,,,,,,,,,,,,,,,,,,,,,,,,,,,,,,,,,,,,,,,,,
,,,,,V3_083,24,Female,2024-11-21_15h53.04.722,jersey_experiment_5_v3,2023.2.2,Win32,84.74576271,,,,,,,,,,,,,,,,362.5569,364.1098,364.1098,366.6392,return,0.1523,,72.39583333,0,59,59,12,1,FBP-YG-91.png,0.4,1.2,13,0.75,,,,,,,,,,,,,,,,,,,,,,,,,,,,,,,,,,,,,,,,,,,,,
,,,,,V3_083,24,Female,2024-11-21_15h53.04.722,jersey_experiment_5_v3,2023.2.2,Win32,84.74576271,,,,,,,,,,,,,,,,366.6406,368.1924,368.1925,369.1687,return,0.1907,,85.67708333,,,,,,FBP-YG-17.png,0.43,1.2,4,0.75,0,0,0,3,1,,,,,,,,,,,,,,,,,,,,,,,,,,,,,,,,,,,,,,,,
,,,,,V3_083,24,Female,2024-11-21_15h53.04.722,jersey_experiment_5_v3,2023.2.2,Win32,84.74576271,,,,,,,,,,,,,,,,369.169,370.7217,370.7218,371.3689,return,0.2205,,85.02604167,,,,,,FBP-RB-71.png,0.4,1.2,48,0.75,0,1,1,47,1,,,,,,,,,,,,,,,,,,,,,,,,,,,,,,,,,,,,,,,,
,,,,,V3_083,24,Female,2024-11-21_15h53.04.722,jersey_experiment_5_v3,2023.2.2,Win32,84.74576271,,,,,,,,,,,,,,,,371.3691,372.9218,372.9219,374.5102,return,0.1565,,53.125,,,,,,FBP-PT-71.png,0.35,1.2,16,0.75,0,2,2,15,1,,,,,,,,,,,,,,,,,,,,,,,,,,,,,,,,,,,,,,,,
,,,,,V3_083,24,Female,2024-11-21_15h53.04.722,jersey_experiment_5_v3,2023.2.2,Win32,84.74576271,,,,,,,,,,,,,,,,374.5105,376.0631,376.0632,376.9572,return,0.0953,,57.94270833,,,,,,FBP-YG-18.png,0.37,1.2,7,0.75,0,3,3,6,1,,,,,,,,,,,,,,,,,,,,,,,,,,,,,,,,,,,,,,,,
,,,,,V3_083,24,Female,2024-11-21_15h53.04.722,jersey_experiment_5_v3,2023.2.2,Win32,84.74576271,,,,,,,,,,,,,,,,376.9574,378.5105,378.5105,379.3457,return,0.1273,,72.78645833,,,,,,FBP-YG-19.png,0.4,1.2,13,0.75,0,4,4,12,1,,,,,,,,,,,,,,,,,,,,,,,,,,,,,,,,,,,,,,,,
,,,,,V3_083,24,Female,2024-11-21_15h53.04.722,jersey_experiment_5_v3,2023.2.2,Win32,84.74576271,,,,,,,,,,,,,,,,379.3458,380.8985,380.8985,381.7222,return,0.2275,,69.01041667,,,,,,FBP-PT-91.png,0.37,1.2,27,0.75,0,5,5,26,1,,,,,,,,,,,,,,,,,,,,,,,,,,,,,,,,,,,,,,,,
,,,,,V3_083,24,Female,2024-11-21_15h53.04.722,jersey_experiment_5_v3,2023.2.2,Win32,84.74576271,,,,,,,,,,,,,,,,381.7225,383.0163,383.0163,384.0282,return,0.0842,,50.26041667,,,,,,FBP-OG-91.png,0.35,1.2,41,0.5,0,6,6,40,1,,,,,,,,,,,,,,,,,,,,,,,,,,,,,,,,,,,,,,,,
,,,,,V3_083,24,Female,2024-11-21_15h53.04.722,jersey_experiment_5_v3,2023.2.2,Win32,84.74576271,,,,,,,,,,,,,,,,384.0284,385.3224,385.3224,386.1459,return,0.032,,74.08854167,,,,,,FBP-OG-81.png,0.43,1.2,39,0.5,0,7,7,38,1,,,,,,,,,,,,,,,,,,,,,,,,,,,,,,,,,,,,,,,,
,,,,,V3_083,24,Female,2024-11-21_15h53.04.722,jersey_experiment_5_v3,2023.2.2,Win32,84.74576271,,,,,,,,,,,,,,,,386.1462,387.699,387.699,388.5459,return,0.1179,,74.21875,,,,,,FBP-PT-91.png,0.4,1.2,28,0.75,0,8,8,27,1,,,,,,,,,,,,,,,,,,,,,,,,,,,,,,,,,,,,,,,,
,,,,,V3_083,24,Female,2024-11-21_15h53.04.722,jersey_experiment_5_v3,2023.2.2,Win32,84.74576271,,,,,,,,,,,,,,,,388.5462,390.099,390.0991,390.7461,return,0.1211,,85.80729167,,,,,,FBP-PT-71.png,0.43,1.2,19,0.75,0,9,9,18,1,,,,,,,,,,,,,,,,,,,,,,,,,,,,,,,,,,,,,,,,
,,,,,V3_083,24,Female,2024-11-21_15h53.04.722,jersey_experiment_5_v3,2023.2.2,Win32,84.74576271,,,,,,,,,,,,,,,,390.7464,392.2991,392.2992,393.5698,return,0.1566,,86.328125,,,,,,FBP-YG-19.png,0.43,1.2,14,0.75,0,10,10,13,1,,,,,,,,,,,,,,,,,,,,,,,,,,,,,,,,,,,,,,,,
,,,,,V3_083,24,Female,2024-11-21_15h53.04.722,jersey_experiment_5_v3,2023.2.2,Win32,84.74576271,,,,,,,,,,,,,,,,393.57,394.8638,394.864,395.8874,return,0.1282,,66.53645833,,,,,,FBP-OG-71.png,0.35,1.2,31,0.5,0,11,11,30,1,,,,,,,,,,,,,,,,,,,,,,,,,,,,,,,,,,,,,,,,
,,,,,V3_083,24,Female,2024-11-21_15h53.04.722,jersey_experiment_5_v3,2023.2.2,Win32,84.74576271,,,,,,,,,,,,,,,,395.8876,397.4403,397.4404,400.0757,return,0.6027,,75,,,,,,FBP-PT-71.png,0.4,1.2,18,0.75,0,12,12,17,1,,,,,,,,,,,,,,,,,,,,,,,,,,,,,,,,,,,,,,,,
,,,,,V3_083,24,Female,2024-11-21_15h53.04.722,jersey_experiment_5_v3,2023.2.2,Win32,84.74576271,,,,,,,,,,,,,,,,400.076,401.6287,401.6288,408.0525,return,0.1258,,64.97395833,,,,,,FBP-YG-17.png,0.35,1.2,1,0.75,0,13,13,0,1,,,,,,,,,,,,,,,,,,,,,,,,,,,,,,,,,,,,,,,,
,,,,,V3_083,24,Female,2024-11-21_15h53.04.722,jersey_experiment_5_v3,2023.2.2,Win32,84.74576271,,,,,,,,,,,,,,,,408.0528,409.594,409.594,410.5585,return,0.1571,,60.15625,,,,,,FBP-RB-91.png,0.37,1.2,57,0.75,0,14,14,56,1,,,,,,,,,,,,,,,,,,,,,,,,,,,,,,,,,,,,,,,,
,,,,,V3_083,24,Female,2024-11-21_15h53.04.722,jersey_experiment_5_v3,2023.2.2,Win32,84.74576271,,,,,,,,,,,,,,,,410.5587,411.8527,411.8527,412.8292,return,0.0748,,70.83333333,,,,,,FBP-OG-71.png,0.4,1.2,33,0.5,0,15,15,32,1,,,,,,,,,,,,,,,,,,,,,,,,,,,,,,,,,,,,,,,,
,,,,,V3_083,24,Female,2024-11-21_15h53.04.722,jersey_experiment_5_v3,2023.2.2,Win32,84.74576271,,,,,,,,,,,,,,,,412.8295,414.1234,414.1234,415.641,return,0.1854,,71.74479167,,,,,,FBP-OG-81.png,0.37,1.2,37,0.5,0,16,16,36,1,,,,,,,,,,,,,,,,,,,,,,,,,,,,,,,,,,,,,,,,
,,,,,V3_083,24,Female,2024-11-21_15h53.04.722,jersey_experiment_5_v3,2023.2.2,Win32,84.74576271,,,,,,,,,,,,,,,,415.6413,417.1941,417.1942,418.0648,return,0.1192,,81.38020833,,,,,,FBP-RB-91.png,0.4,1.2,58,0.75,0,17,17,57,1,,,,,,,,,,,,,,,,,,,,,,,,,,,,,,,,,,,,,,,,
,,,,,V3_083,24,Female,2024-11-21_15h53.04.722,jersey_experiment_5_v3,2023.2.2,Win32,84.74576271,,,,,,,,,,,,,,,,418.0651,419.6179,419.618,420.7708,return,0.1626,,52.21354167,,,,,,FBP-RB-81.png,0.35,1.2,51,0.75,0,18,18,50,1,,,,,,,,,,,,,,,,,,,,,,,,,,,,,,,,,,,,,,,,
,,,,,V3_083,24,Female,2024-11-21_15h53.04.722,jersey_experiment_5_v3,2023.2.2,Win32,84.74576271,,,,,,,,,,,,,,,,420.7711,422.3237,422.3237,423.5827,return,0.1525,,52.47395833,,,,,,FBP-RB-71.png,0.35,1.2,46,0.75,0,19,19,45,1,,,,,,,,,,,,,,,,,,,,,,,,,,,,,,,,,,,,,,,,
,,,,,V3_083,24,Female,2024-11-21_15h53.04.722,jersey_experiment_5_v3,2023.2.2,Win32,84.74576271,,,,,,,,,,,,,,,,423.5829,425.1357,425.1357,426.0415,return,0.1699,,53.77604167,,,,,,FBP-RB-71.png,0.37,1.2,47,0.75,0,20,20,46,1,,,,,,,,,,,,,,,,,,,,,,,,,,,,,,,,,,,,,,,,
,,,,,V3_083,24,Female,2024-11-21_15h53.04.722,jersey_experiment_5_v3,2023.2.2,Win32,84.74576271,,,,,,,,,,,,,,,,426.0417,427.5946,427.5946,428.7358,return,0.1666,,81.25,,,,,,FBP-PT-81.png,0.45,1.2,25,0.75,0,21,21,24,1,,,,,,,,,,,,,,,,,,,,,,,,,,,,,,,,,,,,,,,,
,,,,,V3_083,24,Female,2024-11-21_15h53.04.722,jersey_experiment_5_v3,2023.2.2,Win32,84.74576271,,,,,,,,,,,,,,,,428.736,430.2888,430.2888,431.3946,return,0.1265,,50.13020833,,,,,,FBP-YG-19.png,0.35,1.2,11,0.75,0,22,22,10,1,,,,,,,,,,,,,,,,,,,,,,,,,,,,,,,,,,,,,,,,
,,,,,V3_083,24,Female,2024-11-21_15h53.04.722,jersey_experiment_5_v3,2023.2.2,Win32,84.74576271,,,,,,,,,,,,,,,,431.3948,432.9477,432.9477,433.5712,return,0.1097,,52.60416667,,,,,,FBP-YG-18.png,0.35,1.2,6,0.75,0,23,23,5,1,,,,,,,,,,,,,,,,,,,,,,,,,,,,,,,,,,,,,,,,
,,,,,V3_083,24,Female,2024-11-21_15h53.04.722,jersey_experiment_5_v3,2023.2.2,Win32,84.74576271,,,,,,,,,,,,,,,,433.5714,435.1242,435.1243,435.8183,return,0.0859,,56.11979167,,,,,,FBP-YG-19.png,0.37,1.2,12,0.75,0,24,24,11,1,,,,,,,,,,,,,,,,,,,,,,,,,,,,,,,,,,,,,,,,
,,,,,V3_083,24,Female,2024-11-21_15h53.04.722,jersey_experiment_5_v3,2023.2.2,Win32,84.74576271,,,,,,,,,,,,,,,,435.8186,437.3715,437.3716,438.5715,return,0.2418,,90.75520833,,,,,,FBP-RB-71.png,0.45,1.2,50,0.75,0,25,25,49,1,,,,,,,,,,,,,,,,,,,,,,,,,,,,,,,,,,,,,,,,
,,,,,V3_083,24,Female,2024-11-21_15h53.04.722,jersey_experiment_5_v3,2023.2.2,Win32,84.74576271,,,,,,,,,,,,,,,,438.5717,440.1245,440.1245,440.701,return,0.1219,,91.40625,,,,,,FBP-YG-18.png,0.45,1.2,10,0.75,0,26,26,9,1,,,,,,,,,,,,,,,,,,,,,,,,,,,,,,,,,,,,,,,,
,,,,,V3_083,24,Female,2024-11-21_15h53.04.722,jersey_experiment_5_v3,2023.2.2,Win32,84.74576271,,,,,,,,,,,,,,,,440.7012,442.2538,442.2538,442.995,return,0.3298,,91.015625,,,,,,FBP-YG-19.png,0.45,1.2,15,0.75,0,27,27,14,1,,,,,,,,,,,,,,,,,,,,,,,,,,,,,,,,,,,,,,,,
,,,,,V3_083,24,Female,2024-11-21_15h53.04.722,jersey_experiment_5_v3,2023.2.2,Win32,84.74576271,,,,,,,,,,,,,,,,442.9953,444.5481,444.5482,445.0187,return,0.1718,,90.36458333,,,,,,FBP-RB-71.png,0.43,1.2,49,0.75,0,28,28,48,1,,,,,,,,,,,,,,,,,,,,,,,,,,,,,,,,,,,,,,,,
,,,,,V3_083,24,Female,2024-11-21_15h53.04.722,jersey_experiment_5_v3,2023.2.2,Win32,84.74576271,,,,,,,,,,,,,,,,445.019,446.5717,446.5717,447.0422,return,0.15,,90.36458333,,,,,,FBP-PT-91.png,0.43,1.2,29,0.75,0,29,29,28,1,,,,,,,,,,,,,,,,,,,,,,,,,,,,,,,,,,,,,,,,
,,,,,V3_083,24,Female,2024-11-21_15h53.04.722,jersey_experiment_5_v3,2023.2.2,Win32,84.74576271,,,,,,,,,,,,,,,,447.0425,448.3364,448.3365,450.6661,return,0.1019,,57.03125,,,,,,FBP-OG-91.png,0.37,1.2,42,0.5,0,30,30,41,1,,,,,,,,,,,,,,,,,,,,,,,,,,,,,,,,,,,,,,,,
,,,,,V3_083,24,Female,2024-11-21_15h53.04.722,jersey_experiment_5_v3,2023.2.2,Win32,84.74576271,,,,,,,,,,,,,,,,450.6663,451.9601,451.9601,452.5485,return,0.0814,,62.23958333,,,,,,FBP-OG-91.png,0.4,1.2,43,0.5,0,31,31,42,1,,,,,,,,,,,,,,,,,,,,,,,,,,,,,,,,,,,,,,,,
,,,,,V3_083,24,Female,2024-11-21_15h53.04.722,jersey_experiment_5_v3,2023.2.2,Win32,84.74576271,,,,,,,,,,,,,,,,452.5487,454.1016,454.1017,454.878,return,0.0737,,88.15104167,,,,,,FBP-RB-81.png,0.43,1.2,54,0.75,0,32,32,53,1,,,,,,,,,,,,,,,,,,,,,,,,,,,,,,,,,,,,,,,,
,,,,,V3_083,24,Female,2024-11-21_15h53.04.722,jersey_experiment_5_v3,2023.2.2,Win32,84.74576271,,,,,,,,,,,,,,,,454.8782,456.4311,456.4312,457.5723,return,0.1546,,48.56770833,,,,,,FBP-RB-91.png,0.35,1.2,56,0.75,0,33,33,55,1,,,,,,,,,,,,,,,,,,,,,,,,,,,,,,,,,,,,,,,,
,,,,,V3_083,24,Female,2024-11-21_15h53.04.722,jersey_experiment_5_v3,2023.2.2,Win32,84.74576271,,,,,,,,,,,,,,,,457.5726,459.1252,459.1252,460.3134,return,0.1495,,74.86979167,,,,,,FBP-YG-17.png,0.4,1.2,3,0.75,0,34,34,2,1,,,,,,,,,,,,,,,,,,,,,,,,,,,,,,,,,,,,,,,,
,,,,,V3_083,24,Female,2024-11-21_15h53.04.722,jersey_experiment_5_v3,2023.2.2,Win32,84.74576271,,,,,,,,,,,,,,,,460.3136,461.8665,461.8666,463.1019,return,0.2046,,83.07291667,,,,,,FBP-PT-91.png,0.45,1.2,30,0.75,0,35,35,29,1,,,,,,,,,,,,,,,,,,,,,,,,,,,,,,,,,,,,,,,,
,,,,,V3_083,24,Female,2024-11-21_15h53.04.722,jersey_experiment_5_v3,2023.2.2,Win32,84.74576271,,,,,,,,,,,,,,,,463.1021,464.6548,464.6548,465.8196,return,0.1321,,60.80729167,,,,,,FBP-PT-81.png,0.37,1.2,22,0.75,0,36,36,21,1,,,,,,,,,,,,,,,,,,,,,,,,,,,,,,,,,,,,,,,,
,,,,,V3_083,24,Female,2024-11-21_15h53.04.722,jersey_experiment_5_v3,2023.2.2,Win32,84.74576271,,,,,,,,,,,,,,,,465.8197,467.3726,467.3726,467.996,return,0.0964,,74.609375,,,,,,FBP-YG-17.png,0.37,1.2,2,0.75,0,37,37,1,1,,,,,,,,,,,,,,,,,,,,,,,,,,,,,,,,,,,,,,,,
,,,,,V3_083,24,Female,2024-11-21_15h53.04.722,jersey_experiment_5_v3,2023.2.2,Win32,84.74576271,,,,,,,,,,,,,,,,467.9962,469.2901,469.2903,470.9139,return,0.8867,,88.28125,,,,,,FBP-OG-71.png,0.45,1.2,35,0.5,0,38,38,34,1,,,,,,,,,,,,,,,,,,,,,,,,,,,,,,,,,,,,,,,,
,,,,,V3_083,24,Female,2024-11-21_15h53.04.722,jersey_experiment_5_v3,2023.2.2,Win32,84.74576271,,,,,,,,,,,,,,,,470.9141,472.4668,472.4669,473.5022,return,0.134,,91.66666667,,,,,,FBP-YG-17.png,0.45,1.2,5,0.75,0,39,39,4,1,,,,,,,,,,,,,,,,,,,,,,,,,,,,,,,,,,,,,,,,
,,,,,V3_083,24,Female,2024-11-21_15h53.04.722,jersey_experiment_5_v3,2023.2.2,Win32,84.74576271,,,,,,,,,,,,,,,,473.5023,475.0552,475.0552,475.8082,return,0.1576,,90.625,,,,,,FBP-PT-71.png,0.45,1.2,20,0.75,0,40,40,19,1,,,,,,,,,,,,,,,,,,,,,,,,,,,,,,,,,,,,,,,,
,,,,,V3_083,24,Female,2024-11-21_15h53.04.722,jersey_experiment_5_v3,2023.2.2,Win32,84.74576271,,,,,,,,,,,,,,,,475.8084,477.3612,477.3613,477.7376,return,0.1699,,90.49479167,,,,,,FBP-RB-81.png,0.45,1.2,55,0.75,0,41,41,54,1,,,,,,,,,,,,,,,,,,,,,,,,,,,,,,,,,,,,,,,,
,,,,,V3_083,24,Female,2024-11-21_15h53.04.722,jersey_experiment_5_v3,2023.2.2,Win32,84.74576271,,,,,,,,,,,,,,,,477.7378,479.0318,479.0318,480.7612,return,0.1364,,91.796875,,,,,,FBP-OG-81.png,0.45,1.2,40,0.5,0,42,42,39,1,,,,,,,,,,,,,,,,,,,,,,,,,,,,,,,,,,,,,,,,
,,,,,V3_083,24,Female,2024-11-21_15h53.04.722,jersey_experiment_5_v3,2023.2.2,Win32,84.74576271,,,,,,,,,,,,,,,,480.7614,482.3144,482.3145,483.1143,return,0.125,,83.46354167,,,,,,FBP-RB-81.png,0.4,1.2,53,0.75,0,43,43,52,1,,,,,,,,,,,,,,,,,,,,,,,,,,,,,,,,,,,,,,,,
,,,,,V3_083,24,Female,2024-11-21_15h53.04.722,jersey_experiment_5_v3,2023.2.2,Win32,84.74576271,,,,,,,,,,,,,,,,483.1146,484.4087,484.4087,485.2908,return,0.1717,,80.33854167,,,,,,FBP-OG-71.png,0.43,1.2,34,0.5,0,44,44,33,1,,,,,,,,,,,,,,,,,,,,,,,,,,,,,,,,,,,,,,,,
,,,,,V3_083,24,Female,2024-11-21_15h53.04.722,jersey_experiment_5_v3,2023.2.2,Win32,84.74576271,,,,,,,,,,,,,,,,485.2911,486.844,486.844,488.691,return,0.5897,,64.71354167,,,,,,FBP-RB-81.png,0.37,1.2,52,0.75,0,45,45,51,1,,,,,,,,,,,,,,,,,,,,,,,,,,,,,,,,,,,,,,,,
,,,,,V3_083,24,Female,2024-11-21_15h53.04.722,jersey_experiment_5_v3,2023.2.2,Win32,84.74576271,,,,,,,,,,,,,,,,488.6912,490.2442,490.2442,491.2207,return,0.1722,,50.78125,,,,,,FBP-PT-81.png,0.35,1.2,21,0.75,0,46,46,20,1,,,,,,,,,,,,,,,,,,,,,,,,,,,,,,,,,,,,,,,,
,,,,,V3_083,24,Female,2024-11-21_15h53.04.722,jersey_experiment_5_v3,2023.2.2,Win32,84.74576271,,,,,,,,,,,,,,,,491.2209,492.7737,492.7737,494.2088,return,0.1761,,47.91666667,,,,,,FBP-PT-71.png,0.37,1.2,17,0.75,0,47,47,16,1,,,,,,,,,,,,,,,,,,,,,,,,,,,,,,,,,,,,,,,,
,,,,,V3_083,24,Female,2024-11-21_15h53.04.722,jersey_experiment_5_v3,2023.2.2,Win32,84.74576271,,,,,,,,,,,,,,,,494.209,495.5031,495.5032,497.0561,return,0.1427,,66.14583333,,,,,,FBP-OG-91.png,0.43,1.2,44,0.5,0,48,48,43,1,,,,,,,,,,,,,,,,,,,,,,,,,,,,,,,,,,,,,,,,
,,,,,V3_083,24,Female,2024-11-21_15h53.04.722,jersey_experiment_5_v3,2023.2.2,Win32,84.74576271,,,,,,,,,,,,,,,,497.0563,498.6091,498.6091,499.4443,return,0.1308,,72.91666667,,,,,,FBP-RB-91.png,0.45,1.2,60,0.75,0,49,49,59,1,,,,,,,,,,,,,,,,,,,,,,,,,,,,,,,,,,,,,,,,
,,,,,V3_083,24,Female,2024-11-21_15h53.04.722,jersey_experiment_5_v3,2023.2.2,Win32,84.74576271,,,,,,,,,,,,,,,,499.4446,500.9976,500.9976,502.7975,return,0.1455,,43.09895833,,,,,,FBP-PT-91.png,0.35,1.2,26,0.75,0,50,50,25,1,,,,,,,,,,,,,,,,,,,,,,,,,,,,,,,,,,,,,,,,
,,,,,V3_083,24,Female,2024-11-21_15h53.04.722,jersey_experiment_5_v3,2023.2.2,Win32,84.74576271,,,,,,,,,,,,,,,,502.7978,504.3506,504.3507,505.4211,return,0.0634,,74.34895833,,,,,,FBP-RB-91.png,0.43,1.2,59,0.75,0,51,51,58,1,,,,,,,,,,,,,,,,,,,,,,,,,,,,,,,,,,,,,,,,
,,,,,V3_083,24,Female,2024-11-21_15h53.04.722,jersey_experiment_5_v3,2023.2.2,Win32,84.74576271,,,,,,,,,,,,,,,,505.4213,506.9742,506.9743,507.9387,return,0.1199,,54.296875,,,,,,FBP-PT-81.png,0.4,1.2,23,0.75,0,52,52,22,1,,,,,,,,,,,,,,,,,,,,,,,,,,,,,,,,,,,,,,,,
,,,,,V3_083,24,Female,2024-11-21_15h53.04.722,jersey_experiment_5_v3,2023.2.2,Win32,84.74576271,,,,,,,,,,,,,,,,507.9389,509.4919,509.492,511.9507,return,0.1206,,60.15625,,,,,,FBP-YG-18.png,0.4,1.2,8,0.75,0,53,53,7,1,,,,,,,,,,,,,,,,,,,,,,,,,,,,,,,,,,,,,,,,
,,,,,V3_083,24,Female,2024-11-21_15h53.04.722,jersey_experiment_5_v3,2023.2.2,Win32,84.74576271,,,,,,,,,,,,,,,,511.9509,513.5038,513.5038,514.6215,return,0.1421,,73.56770833,,,,,,FBP-YG-18.png,0.43,1.2,9,0.75,0,54,54,8,1,,,,,,,,,,,,,,,,,,,,,,,,,,,,,,,,,,,,,,,,
,,,,,V3_083,24,Female,2024-11-21_15h53.04.722,jersey_experiment_5_v3,2023.2.2,Win32,84.74576271,,,,,,,,,,,,,,,,514.6218,515.9156,515.9157,516.9863,return,0.1488,,68.09895833,,,,,,FBP-OG-81.png,0.4,1.2,38,0.5,0,55,55,37,1,,,,,,,,,,,,,,,,,,,,,,,,,,,,,,,,,,,,,,,,
,,,,,V3_083,24,Female,2024-11-21_15h53.04.722,jersey_experiment_5_v3,2023.2.2,Win32,84.74576271,,,,,,,,,,,,,,,,516.9865,518.5392,518.5392,521.057,return,0.1269,,75.26041667,,,,,,FBP-PT-81.png,0.43,1.2,24,0.75,0,56,56,23,1,,,,,,,,,,,,,,,,,,,,,,,,,,,,,,,,,,,,,,,,
,,,,,V3_083,24,Female,2024-11-21_15h53.04.722,jersey_experiment_5_v3,2023.2.2,Win32,84.74576271,,,,,,,,,,,,,,,,521.0573,522.3511,522.3512,523.0923,return,0.1173,,79.296875,,,,,,FBP-OG-91.png,0.45,1.2,45,0.5,0,57,57,44,1,,,,,,,,,,,,,,,,,,,,,,,,,,,,,,,,,,,,,,,,
,,,,,V3_083,24,Female,2024-11-21_15h53.04.722,jersey_experiment_5_v3,2023.2.2,Win32,84.74576271,,,,,,,,,,,,,,,,523.0925,524.3868,524.3868,526.116,return,0.1654,,42.1875,,,,,,FBP-OG-81.png,0.35,1.2,36,0.5,0,58,58,35,1,,,,,,,,,,,,,,,,,,,,,,,,,,,,,,,,,,,,,,,,
,,,,,V3_083,24,Female,2024-11-21_15h53.04.722,jersey_experiment_5_v3,2023.2.2,Win32,84.74576271,,,,,,,,,,,,,,,,526.1162,527.4103,527.4103,528.6574,return,0.151,,44.01041667,,,,,,FBP-OG-71.png,0.37,1.2,32,0.5,0,59,59,31,1,,,,,,,,,,,,,,,,,,,,,,,,,,,,,,,,,,,,,,,,
,,,,,V3_083,24,Female,2024-11-21_15h53.04.722,jersey_experiment_5_v3,2023.2.2,Win32,84.74576271,,,,,,,,,,,,,,,,,,,,,,,,,,,,,,,,,,,,,,,528.6574,648.6502,,,,,,,,,,,,,,,,,,,,,,,,,,,,,,,,,,,,,,
,,,,,V3_083,24,Female,2024-11-21_15h53.04.722,jersey_experiment_5_v3,2023.2.2,Win32,84.74576271,,,,,,,,,,,,,,,,,,,,,,,,,,,,,,,,,,,,,,,,,648.6503,677.8395,return,29.1805,,,,,,,,,,,,,,,,,,,,,,,,,,,,,,,,,,
,,,,,V3_083,24,Female,2024-11-21_15h53.04.722,jersey_experiment_5_v3,2023.2.2,Win32,84.74576271,,,,,,,,,,,,,,,,677.8407,679.1336,679.1336,682.922,return,1.3689,,73.046875,,,,,,FBP-YG-91.png,0.43,1.2,14,0.5,,,,,,,,,,,,,0,0,0,13,1,,,,,,,,,,,,,,,,,,,,,,,,,,,,
,,,,,V3_083,24,Female,2024-11-21_15h53.04.722,jersey_experiment_5_v3,2023.2.2,Win32,84.74576271,,,,,,,,,,,,,,,,682.9224,684.2163,684.2163,685.3103,return,0.1683,,71.875,,,,,,FBP-RB-19.png,0.4,1.2,58,0.5,,,,,,,,,,,,,0,1,1,57,1,,,,,,,,,,,,,,,,,,,,,,,,,,,,
,,,,,V3_083,24,Female,2024-11-21_15h53.04.722,jersey_experiment_5_v3,2023.2.2,Win32,84.74576271,,,,,,,,,,,,,,,,685.3106,686.6045,686.6045,687.5457,return,0.173,,74.86979167,,,,,,FBP-PT-18.png,0.43,1.2,24,0.5,,,,,,,,,,,,,0,2,2,23,1,,,,,,,,,,,,,,,,,,,,,,,,,,,,
,,,,,V3_083,24,Female,2024-11-21_15h53.04.722,jersey_experiment_5_v3,2023.2.2,Win32,84.74576271,,,,,,,,,,,,,,,,687.546,688.8399,688.8399,690.9107,return,0.8033,,50,,,,,,FBP-YG-81.png,0.37,1.2,7,0.5,,,,,,,,,,,,,0,3,3,6,1,,,,,,,,,,,,,,,,,,,,,,,,,,,,
,,,,,V3_083,24,Female,2024-11-21_15h53.04.722,jersey_experiment_5_v3,2023.2.2,Win32,84.74576271,,,,,,,,,,,,,,,,690.9109,692.2047,692.2047,693.4755,return,0.2357,,49.34895833,,,,,,FBP-RB-19.png,0.35,1.2,56,0.5,,,,,,,,,,,,,0,4,4,55,1,,,,,,,,,,,,,,,,,,,,,,,,,,,,
,,,,,V3_083,24,Female,2024-11-21_15h53.04.722,jersey_experiment_5_v3,2023.2.2,Win32,84.74576271,,,,,,,,,,,,,,,,693.4756,695.0286,695.0286,695.8048,return,0.1549,,44.79166667,,,,,,FBP-OG-19.png,0.35,1.2,41,0.75,,,,,,,,,,,,,0,5,5,40,1,,,,,,,,,,,,,,,,,,,,,,,,,,,,
,,,,,V3_083,24,Female,2024-11-21_15h53.04.722,jersey_experiment_5_v3,2023.2.2,Win32,84.74576271,,,,,,,,,,,,,,,,695.805,697.0992,697.0992,698.0167,return,0.1429,,46.35416667,,,,,,FBP-RB-18.png,0.37,1.2,52,0.5,,,,,,,,,,,,,0,6,6,51,1,,,,,,,,,,,,,,,,,,,,,,,,,,,,
,,,,,V3_083,24,Female,2024-11-21_15h53.04.722,jersey_experiment_5_v3,2023.2.2,Win32,84.74576271,,,,,,,,,,,,,,,,698.0168,699.3109,699.311,700.0993,return,0.1625,,39.32291667,,,,,,FBP-PT-18.png,0.35,1.2,21,0.5,,,,,,,,,,,,,0,7,7,20,1,,,,,,,,,,,,,,,,,,,,,,,,,,,,
,,,,,V3_083,24,Female,2024-11-21_15h53.04.722,jersey_experiment_5_v3,2023.2.2,Win32,84.74576271,,,,,,,,,,,,,,,,700.0995,701.3935,701.3936,702.1934,return,0.1647,,39.97395833,,,,,,FBP-YG-91.png,0.35,1.2,11,0.5,,,,,,,,,,,,,0,8,8,10,1,,,,,,,,,,,,,,,,,,,,,,,,,,,,
,,,,,V3_083,24,Female,2024-11-21_15h53.04.722,jersey_experiment_5_v3,2023.2.2,Win32,84.74576271,,,,,,,,,,,,,,,,702.1937,703.7465,703.7465,705.1934,return,0.0875,,74.47916667,,,,,,FBP-OG-18.png,0.43,1.2,39,0.75,,,,,,,,,,,,,0,9,9,38,1,,,,,,,,,,,,,,,,,,,,,,,,,,,,
,,,,,V3_083,24,Female,2024-11-21_15h53.04.722,jersey_experiment_5_v3,2023.2.2,Win32,84.74576271,,,,,,,,,,,,,,,,705.1936,706.7466,706.7467,707.8173,return,0.2324,,90.36458333,,,,,,FBP-OG-19.png,0.45,1.2,45,0.75,,,,,,,,,,,,,0,10,10,44,1,,,,,,,,,,,,,,,,,,,,,,,,,,,,
,,,,,V3_083,24,Female,2024-11-21_15h53.04.722,jersey_experiment_5_v3,2023.2.2,Win32,84.74576271,,,,,,,,,,,,,,,,707.8175,709.1114,709.1115,710.8173,return,0.2596,,46.61458333,,,,,,FBP-RB-17.png,0.35,1.2,46,0.5,,,,,,,,,,,,,0,11,11,45,1,,,,,,,,,,,,,,,,,,,,,,,,,,,,
,,,,,V3_083,24,Female,2024-11-21_15h53.04.722,jersey_experiment_5_v3,2023.2.2,Win32,84.74576271,,,,,,,,,,,,,,,,710.8176,712.1113,712.1114,714.3822,return,1.4828,,49.08854167,,,,,,FBP-RB-19.png,0.37,1.2,57,0.5,,,,,,,,,,,,,0,12,12,56,1,,,,,,,,,,,,,,,,,,,,,,,,,,,,
,,,,,V3_083,24,Female,2024-11-21_15h53.04.722,jersey_experiment_5_v3,2023.2.2,Win32,84.74576271,,,,,,,,,,,,,,,,714.3824,715.9351,715.9352,716.7468,return,0.1953,,49.21875,,,,,,FBP-OG-17.png,0.37,1.2,32,0.75,,,,,,,,,,,,,0,13,13,31,1,,,,,,,,,,,,,,,,,,,,,,,,,,,,
,,,,,V3_083,24,Female,2024-11-21_15h53.04.722,jersey_experiment_5_v3,2023.2.2,Win32,84.74576271,,,,,,,,,,,,,,,,716.7471,718.041,718.041,719.2531,return,0.1392,,89.84375,,,,,,FBP-YG-91.png,0.45,1.2,15,0.5,,,,,,,,,,,,,0,14,14,14,1,,,,,,,,,,,,,,,,,,,,,,,,,,,,
,,,,,V3_083,24,Female,2024-11-21_15h53.04.722,jersey_experiment_5_v3,2023.2.2,Win32,84.74576271,,,,,,,,,,,,,,,,719.2532,720.547,720.5471,722.1942,return,0.0863,,45.18229167,,,,,,FBP-PT-19.png,0.35,1.2,26,0.5,,,,,,,,,,,,,0,15,15,25,1,,,,,,,,,,,,,,,,,,,,,,,,,,,,
,,,,,V3_083,24,Female,2024-11-21_15h53.04.722,jersey_experiment_5_v3,2023.2.2,Win32,84.74576271,,,,,,,,,,,,,,,,722.1945,723.4882,723.4882,725.6649,return,0.0804,,47.65625,,,,,,FBP-PT-18.png,0.37,1.2,22,0.5,,,,,,,,,,,,,0,16,16,21,1,,,,,,,,,,,,,,,,,,,,,,,,,,,,
,,,,,V3_083,24,Female,2024-11-21_15h53.04.722,jersey_experiment_5_v3,2023.2.2,Win32,84.74576271,,,,,,,,,,,,,,,,725.6651,726.9591,726.9591,728.3945,return,0.181,,89.97395833,,,,,,FBP-PT-17.png,0.43,1.2,19,0.5,,,,,,,,,,,,,0,17,17,18,1,,,,,,,,,,,,,,,,,,,,,,,,,,,,
,,,,,V3_083,24,Female,2024-11-21_15h53.04.722,jersey_experiment_5_v3,2023.2.2,Win32,84.74576271,,,,,,,,,,,,,,,,728.3947,729.6885,729.6886,730.8181,return,0.1969,,92.70833333,,,,,,FBP-YG-71.png,0.45,1.2,5,0.5,,,,,,,,,,,,,0,18,18,4,1,,,,,,,,,,,,,,,,,,,,,,,,,,,,
,,,,,V3_083,24,Female,2024-11-21_15h53.04.722,jersey_experiment_5_v3,2023.2.2,Win32,84.74576271,,,,,,,,,,,,,,,,730.8182,732.1121,732.1122,733.2182,return,0.1412,,74.21875,,,,,,FBP-YG-71.png,0.4,1.2,3,0.5,,,,,,,,,,,,,0,19,19,2,1,,,,,,,,,,,,,,,,,,,,,,,,,,,,
,,,,,V3_083,24,Female,2024-11-21_15h53.04.722,jersey_experiment_5_v3,2023.2.2,Win32,84.74576271,,,,,,,,,,,,,,,,733.2185,734.5122,734.5123,735.4064,return,0.1216,,87.890625,,,,,,FBP-RB-19.png,0.43,1.2,59,0.5,,,,,,,,,,,,,0,20,20,58,1,,,,,,,,,,,,,,,,,,,,,,,,,,,,
,,,,,V3_083,24,Female,2024-11-21_15h53.04.722,jersey_experiment_5_v3,2023.2.2,Win32,84.74576271,,,,,,,,,,,,,,,,735.4066,736.9595,736.9595,738.4418,return,0.3928,,45.44270833,,,,,,FBP-OG-18.png,0.35,1.2,36,0.75,,,,,,,,,,,,,0,21,21,35,1,,,,,,,,,,,,,,,,,,,,,,,,,,,,
,,,,,V3_083,24,Female,2024-11-21_15h53.04.722,jersey_experiment_5_v3,2023.2.2,Win32,84.74576271,,,,,,,,,,,,,,,,738.442,739.7359,739.736,740.9948,return,0.0945,,82.68229167,,,,,,FBP-PT-19.png,0.43,1.2,29,0.5,,,,,,,,,,,,,0,22,22,28,1,,,,,,,,,,,,,,,,,,,,,,,,,,,,
,,,,,V3_083,24,Female,2024-11-21_15h53.04.722,jersey_experiment_5_v3,2023.2.2,Win32,84.74576271,,,,,,,,,,,,,,,,740.995,742.289,742.2891,743.0068,return,0.0975,,93.09895833,,,,,,FBP-PT-17.png,0.45,1.2,20,0.5,,,,,,,,,,,,,0,23,23,19,1,,,,,,,,,,,,,,,,,,,,,,,,,,,,
,,,,,V3_083,24,Female,2024-11-21_15h53.04.722,jersey_experiment_5_v3,2023.2.2,Win32,84.74576271,,,,,,,,,,,,,,,,743.007,744.3011,744.3011,745.4187,return,0.1133,,78.125,,,,,,FBP-PT-18.png,0.4,1.2,23,0.5,,,,,,,,,,,,,0,24,24,22,1,,,,,,,,,,,,,,,,,,,,,,,,,,,,
,,,,,V3_083,24,Female,2024-11-21_15h53.04.722,jersey_experiment_5_v3,2023.2.2,Win32,84.74576271,,,,,,,,,,,,,,,,745.4189,746.9717,746.9717,747.6775,return,0.1437,,88.93229167,,,,,,FBP-OG-17.png,0.45,1.2,35,0.75,,,,,,,,,,,,,0,25,25,34,1,,,,,,,,,,,,,,,,,,,,,,,,,,,,
,,,,,V3_083,24,Female,2024-11-21_15h53.04.722,jersey_experiment_5_v3,2023.2.2,Win32,84.74576271,,,,,,,,,,,,,,,,747.6777,748.9718,748.9718,750.6188,return,0.1916,,40.49479167,,,,,,FBP-YG-71.png,0.35,1.2,1,0.5,,,,,,,,,,,,,0,26,26,0,1,,,,,,,,,,,,,,,,,,,,,,,,,,,,
,,,,,V3_083,24,Female,2024-11-21_15h53.04.722,jersey_experiment_5_v3,2023.2.2,Win32,84.74576271,,,,,,,,,,,,,,,,750.6191,752.1716,752.1717,753.3601,return,0.0803,,70.96354167,,,,,,FBP-OG-19.png,0.4,1.2,43,0.75,,,,,,,,,,,,,0,27,27,42,1,,,,,,,,,,,,,,,,,,,,,,,,,,,,
,,,,,V3_083,24,Female,2024-11-21_15h53.04.722,jersey_experiment_5_v3,2023.2.2,Win32,84.74576271,,,,,,,,,,,,,,,,753.3603,754.9131,754.9131,755.4189,return,0.1601,,75,,,,,,FBP-OG-17.png,0.4,1.2,33,0.75,,,,,,,,,,,,,0,28,28,32,1,,,,,,,,,,,,,,,,,,,,,,,,,,,,
,,,,,V3_083,24,Female,2024-11-21_15h53.04.722,jersey_experiment_5_v3,2023.2.2,Win32,84.74576271,,,,,,,,,,,,,,,,755.4191,756.7131,756.7132,758.5604,return,0.0575,,51.5625,,,,,,FBP-PT-19.png,0.37,1.2,27,0.5,,,,,,,,,,,,,0,29,29,26,1,,,,,,,,,,,,,,,,,,,,,,,,,,,,
,,,,,V3_083,24,Female,2024-11-21_15h53.04.722,jersey_experiment_5_v3,2023.2.2,Win32,84.74576271,,,,,,,,,,,,,,,,758.5607,759.8545,759.8545,760.7132,return,0.1145,,82.03125,,,,,,FBP-RB-18.png,0.45,1.2,55,0.5,,,,,,,,,,,,,0,30,30,54,1,,,,,,,,,,,,,,,,,,,,,,,,,,,,
,,,,,V3_083,24,Female,2024-11-21_15h53.04.722,jersey_experiment_5_v3,2023.2.2,Win32,84.74576271,,,,,,,,,,,,,,,,760.7134,762.0075,762.0075,764.4312,return,0.0702,,47.52604167,,,,,,FBP-RB-17.png,0.37,1.2,47,0.5,,,,,,,,,,,,,0,31,31,46,1,,,,,,,,,,,,,,,,,,,,,,,,,,,,
,,,,,V3_083,24,Female,2024-11-21_15h53.04.722,jersey_experiment_5_v3,2023.2.2,Win32,84.74576271,,,,,,,,,,,,,,,,764.4314,765.7253,765.7253,766.6077,return,0.1048,,68.22916667,,,,,,FBP-YG-91.png,0.4,1.2,13,0.5,,,,,,,,,,,,,0,32,32,12,1,,,,,,,,,,,,,,,,,,,,,,,,,,,,
,,,,,V3_083,24,Female,2024-11-21_15h53.04.722,jersey_experiment_5_v3,2023.2.2,Win32,84.74576271,,,,,,,,,,,,,,,,766.608,767.9017,767.9018,768.6195,return,0.089,,66.14583333,,,,,,FBP-PT-19.png,0.4,1.2,28,0.5,,,,,,,,,,,,,0,33,33,27,1,,,,,,,,,,,,,,,,,,,,,,,,,,,,
,,,,,V3_083,24,Female,2024-11-21_15h53.04.722,jersey_experiment_5_v3,2023.2.2,Win32,84.74576271,,,,,,,,,,,,,,,,768.6197,770.1724,770.1724,770.7845,return,0.1093,,82.68229167,,,,,,FBP-OG-17.png,0.43,1.2,34,0.75,,,,,,,,,,,,,0,34,34,33,1,,,,,,,,,,,,,,,,,,,,,,,,,,,,
,,,,,V3_083,24,Female,2024-11-21_15h53.04.722,jersey_experiment_5_v3,2023.2.2,Win32,84.74576271,,,,,,,,,,,,,,,,770.7847,772.0784,772.0784,772.796,return,0.1096,,88.15104167,,,,,,FBP-RB-17.png,0.43,1.2,49,0.5,,,,,,,,,,,,,0,35,35,48,1,,,,,,,,,,,,,,,,,,,,,,,,,,,,
,,,,,V3_083,24,Female,2024-11-21_15h53.04.722,jersey_experiment_5_v3,2023.2.2,Win32,84.74576271,,,,,,,,,,,,,,,,772.7962,774.0912,774.0912,774.8786,return,0.1102,,77.734375,,,,,,FBP-RB-17.png,0.4,1.2,48,0.5,,,,,,,,,,,,,0,36,36,47,1,,,,,,,,,,,,,,,,,,,,,,,,,,,,
,,,,,V3_083,24,Female,2024-11-21_15h53.04.722,jersey_experiment_5_v3,2023.2.2,Win32,84.74576271,,,,,,,,,,,,,,,,774.8788,776.1728,776.1728,776.8197,return,0.1026,,87.63020833,,,,,,FBP-RB-19.png,0.45,1.2,60,0.5,,,,,,,,,,,,,0,37,37,59,1,,,,,,,,,,,,,,,,,,,,,,,,,,,,
,,,,,V3_083,24,Female,2024-11-21_15h53.04.722,jersey_experiment_5_v3,2023.2.2,Win32,84.74576271,,,,,,,,,,,,,,,,776.82,778.1139,778.1139,778.6668,return,0.1216,,87.890625,,,,,,FBP-RB-18.png,0.43,1.2,54,0.5,,,,,,,,,,,,,0,38,38,53,1,,,,,,,,,,,,,,,,,,,,,,,,,,,,
,,,,,V3_083,24,Female,2024-11-21_15h53.04.722,jersey_experiment_5_v3,2023.2.2,Win32,84.74576271,,,,,,,,,,,,,,,,778.6671,779.9611,779.9612,781.1848,return,0.1575,,39.32291667,,,,,,FBP-RB-18.png,0.35,1.2,51,0.5,,,,,,,,,,,,,0,39,39,50,1,,,,,,,,,,,,,,,,,,,,,,,,,,,,
,,,,,V3_083,24,Female,2024-11-21_15h53.04.722,jersey_experiment_5_v3,2023.2.2,Win32,84.74576271,,,,,,,,,,,,,,,,781.185,782.479,782.479,783.5847,return,0.1803,,81.51041667,,,,,,FBP-PT-19.png,0.45,1.2,30,0.5,,,,,,,,,,,,,0,40,40,29,1,,,,,,,,,,,,,,,,,,,,,,,,,,,,
,,,,,V3_083,24,Female,2024-11-21_15h53.04.722,jersey_experiment_5_v3,2023.2.2,Win32,84.74576271,,,,,,,,,,,,,,,,783.5849,784.879,784.8791,786.8439,return,0.227,,57.421875,,,,,,FBP-PT-17.png,0.4,1.2,18,0.5,,,,,,,,,,,,,0,41,41,17,1,,,,,,,,,,,,,,,,,,,,,,,,,,,,
,,,,,V3_083,24,Female,2024-11-21_15h53.04.722,jersey_experiment_5_v3,2023.2.2,Win32,84.74576271,,,,,,,,,,,,,,,,786.8441,788.1379,788.138,789.5144,return,0.1925,,85.15625,,,,,,FBP-PT-18.png,0.45,1.2,25,0.5,,,,,,,,,,,,,0,42,42,24,1,,,,,,,,,,,,,,,,,,,,,,,,,,,,
,,,,,V3_083,24,Female,2024-11-21_15h53.04.722,jersey_experiment_5_v3,2023.2.2,Win32,84.74576271,,,,,,,,,,,,,,,,789.5146,791.0676,791.0676,792.6439,return,0.0945,,47.91666667,,,,,,FBP-OG-18.png,0.37,1.2,37,0.75,,,,,,,,,,,,,0,43,43,36,1,,,,,,,,,,,,,,,,,,,,,,,,,,,,
,,,,,V3_083,24,Female,2024-11-21_15h53.04.722,jersey_experiment_5_v3,2023.2.2,Win32,84.74576271,,,,,,,,,,,,,,,,792.6441,793.938,793.938,795.8089,return,0.1503,,27.21354167,,,,,,FBP-PT-17.png,0.35,1.2,16,0.5,,,,,,,,,,,,,0,44,44,15,1,,,,,,,,,,,,,,,,,,,,,,,,,,,,
,,,,,V3_083,24,Female,2024-11-21_15h53.04.722,jersey_experiment_5_v3,2023.2.2,Win32,84.74576271,,,,,,,,,,,,,,,,795.8091,797.103,797.103,798.2912,return,0.4008,,73.046875,,,,,,FBP-YG-81.png,0.45,1.2,10,0.5,,,,,,,,,,,,,0,45,45,9,1,,,,,,,,,,,,,,,,,,,,,,,,,,,,
,,,,,V3_083,24,Female,2024-11-21_15h53.04.722,jersey_experiment_5_v3,2023.2.2,Win32,84.74576271,,,,,,,,,,,,,,,,798.2916,799.5853,799.5853,801.362,return,0.1887,,31.51041667,,,,,,FBP-YG-81.png,0.35,1.2,6,0.5,,,,,,,,,,,,,0,46,46,5,1,,,,,,,,,,,,,,,,,,,,,,,,,,,,
,,,,,V3_083,24,Female,2024-11-21_15h53.04.722,jersey_experiment_5_v3,2023.2.2,Win32,84.74576271,,,,,,,,,,,,,,,,801.3622,802.6562,802.6563,803.7384,return,0.1575,,83.33333333,,,,,,FBP-RB-17.png,0.45,1.2,50,0.5,,,,,,,,,,,,,0,47,47,49,1,,,,,,,,,,,,,,,,,,,,,,,,,,,,
,,,,,V3_083,24,Female,2024-11-21_15h53.04.722,jersey_experiment_5_v3,2023.2.2,Win32,84.74576271,,,,,,,,,,,,,,,,803.7386,805.2916,805.2916,806.6562,return,0.2213,,60.80729167,,,,,,FBP-OG-19.png,0.43,1.2,44,0.75,,,,,,,,,,,,,0,48,48,43,1,,,,,,,,,,,,,,,,,,,,,,,,,,,,
,,,,,V3_083,24,Female,2024-11-21_15h53.04.722,jersey_experiment_5_v3,2023.2.2,Win32,84.74576271,,,,,,,,,,,,,,,,806.6564,808.2092,808.2092,809.9858,return,0.1657,,75.78125,,,,,,FBP-OG-18.png,0.45,1.2,40,0.75,,,,,,,,,,,,,0,49,49,39,1,,,,,,,,,,,,,,,,,,,,,,,,,,,,
,,,,,V3_083,24,Female,2024-11-21_15h53.04.722,jersey_experiment_5_v3,2023.2.2,Win32,84.74576271,,,,,,,,,,,,,,,,809.986,811.5388,811.5388,813.1389,return,0.1415,,30.98958333,,,,,,FBP-OG-17.png,0.35,1.2,31,0.75,,,,,,,,,,,,,0,50,50,30,1,,,,,,,,,,,,,,,,,,,,,,,,,,,,
,,,,,V3_083,24,Female,2024-11-21_15h53.04.722,jersey_experiment_5_v3,2023.2.2,Win32,84.74576271,,,,,,,,,,,,,,,,813.1391,814.433,814.433,818.7155,return,0.1344,,70.18229167,,,,,,FBP-YG-71.png,0.43,1.2,4,0.5,,,,,,,,,,,,,0,51,51,3,1,,,,,,,,,,,,,,,,,,,,,,,,,,,,
,,,,,V3_083,24,Female,2024-11-21_15h53.04.722,jersey_experiment_5_v3,2023.2.2,Win32,84.74576271,,,,,,,,,,,,,,,,818.7158,820.2686,820.2686,821.5864,return,0.2517,,48.828125,,,,,,FBP-OG-18.png,0.4,1.2,38,0.75,,,,,,,,,,,,,0,52,52,37,1,,,,,,,,,,,,,,,,,,,,,,,,,,,,
,,,,,V3_083,24,Female,2024-11-21_15h53.04.722,jersey_experiment_5_v3,2023.2.2,Win32,84.74576271,,,,,,,,,,,,,,,,821.5866,822.8805,822.8805,824.0687,return,0.1648,,52.99479167,,,,,,FBP-RB-18.png,0.4,1.2,53,0.5,,,,,,,,,,,,,0,53,53,52,1,,,,,,,,,,,,,,,,,,,,,,,,,,,,
,,,,,V3_083,24,Female,2024-11-21_15h53.04.722,jersey_experiment_5_v3,2023.2.2,Win32,84.74576271,,,,,,,,,,,,,,,,824.0688,825.3629,825.3629,826.5747,return,0.1334,,46.875,,,,,,FBP-YG-91.png,0.37,1.2,12,0.5,,,,,,,,,,,,,0,54,54,11,1,,,,,,,,,,,,,,,,,,,,,,,,,,,,
,,,,,V3_083,24,Female,2024-11-21_15h53.04.722,jersey_experiment_5_v3,2023.2.2,Win32,84.74576271,,,,,,,,,,,,,,,,826.5749,827.8687,827.8688,830.8924,return,0.0293,,48.4375,,,,,,FBP-PT-17.png,0.37,1.2,17,0.5,,,,,,,,,,,,,0,55,55,16,1,,,,,,,,,,,,,,,,,,,,,,,,,,,,
,,,,,V3_083,24,Female,2024-11-21_15h53.04.722,jersey_experiment_5_v3,2023.2.2,Win32,84.74576271,,,,,,,,,,,,,,,,830.8926,832.1868,832.1868,833.869,return,0.1426,,72.78645833,,,,,,FBP-YG-81.png,0.43,1.2,9,0.5,,,,,,,,,,,,,0,56,56,8,1,,,,,,,,,,,,,,,,,,,,,,,,,,,,
,,,,,V3_083,24,Female,2024-11-21_15h53.04.722,jersey_experiment_5_v3,2023.2.2,Win32,84.74576271,,,,,,,,,,,,,,,,833.8693,835.1632,835.1633,836.7631,return,0.0744,,46.74479167,,,,,,FBP-YG-71.png,0.37,1.2,2,0.5,,,,,,,,,,,,,0,57,57,1,1,,,,,,,,,,,,,,,,,,,,,,,,,,,,
,,,,,V3_083,24,Female,2024-11-21_15h53.04.722,jersey_experiment_5_v3,2023.2.2,Win32,84.74576271,,,,,,,,,,,,,,,,836.7634,838.3162,838.3162,839.2456,return,0.1223,,54.42708333,,,,,,FBP-OG-19.png,0.37,1.2,42,0.75,,,,,,,,,,,,,0,58,58,41,1,,,,,,,,,,,,,,,,,,,,,,,,,,,,
,,,,,V3_083,24,Female,2024-11-21_15h53.04.722,jersey_experiment_5_v3,2023.2.2,Win32,84.74576271,,,,,,,,,,,,,,,,839.2459,840.5399,840.5399,841.6106,return,0.0901,,70.3125,,,,,,FBP-YG-81.png,0.4,1.2,8,0.5,,,,,,,,,,,,,0,59,59,7,1,,,,,,,,,,,,,,,,,,,,,,,,,,,,
,,,,,V3_083,24,Female,2024-11-21_15h53.04.722,jersey_experiment_5_v3,2023.2.2,Win32,84.74576271,,,,,,,,,,,,,,,,841.6121,842.9049,842.9049,844.1401,return,0.0619,,47.13541667,,,,,,FBP-YG-17.png,0.35,1.2,1,0.5,,,,,,,,,,,,,,,,,,0,0,0,0,1,,,,,,,,,,,,,,,,,,,,,,,
,,,,,V3_083,24,Female,2024-11-21_15h53.04.722,jersey_experiment_5_v3,2023.2.2,Win32,84.74576271,,,,,,,,,,,,,,,,844.1403,845.4341,845.4341,846.0576,return,0.0908,,47.52604167,,,,,,FBP-YG-19.png,0.35,1.2,11,0.5,,,,,,,,,,,,,,,,,,0,1,1,10,1,,,,,,,,,,,,,,,,,,,,,,,
,,,,,V3_083,24,Female,2024-11-21_15h53.04.722,jersey_experiment_5_v3,2023.2.2,Win32,84.74576271,,,,,,,,,,,,,,,,846.0578,847.5991,847.5991,848.5871,return,0.0541,,50.78125,,,,,,FBP-OG-81.png,0.37,1.2,37,0.75,,,,,,,,,,,,,,,,,,0,2,2,36,1,,,,,,,,,,,,,,,,,,,,,,,
,,,,,V3_083,24,Female,2024-11-21_15h53.04.722,jersey_experiment_5_v3,2023.2.2,Win32,84.74576271,,,,,,,,,,,,,,,,848.5873,850.1402,850.1402,850.8579,return,0.0788,,80.72916667,,,,,,FBP-OG-81.png,0.45,1.2,40,0.75,,,,,,,,,,,,,,,,,,0,3,3,39,1,,,,,,,,,,,,,,,,,,,,,,,
,,,,,V3_083,24,Female,2024-11-21_15h53.04.722,jersey_experiment_5_v3,2023.2.2,Win32,84.74576271,,,,,,,,,,,,,,,,850.8581,852.1521,852.1521,853.3874,return,0.2185,,63.28125,,,,,,FBP-PT-81.png,0.4,1.2,23,0.5,,,,,,,,,,,,,,,,,,0,4,4,22,1,,,,,,,,,,,,,,,,,,,,,,,
,,,,,V3_083,24,Female,2024-11-21_15h53.04.722,jersey_experiment_5_v3,2023.2.2,Win32,84.74576271,,,,,,,,,,,,,,,,853.3877,854.6816,854.6816,855.9052,return,0.0865,,56.38020833,,,,,,FBP-PT-81.png,0.35,1.2,21,0.5,,,,,,,,,,,,,,,,,,0,5,5,20,1,,,,,,,,,,,,,,,,,,,,,,,
,,,,,V3_083,24,Female,2024-11-21_15h53.04.722,jersey_experiment_5_v3,2023.2.2,Win32,84.74576271,,,,,,,,,,,,,,,,855.9055,857.1994,857.1995,857.964,return,0.2179,,64.32291667,,,,,,FBP-YG-19.png,0.4,1.2,13,0.5,,,,,,,,,,,,,,,,,,0,6,6,12,1,,,,,,,,,,,,,,,,,,,,,,,
,,,,,V3_083,24,Female,2024-11-21_15h53.04.722,jersey_experiment_5_v3,2023.2.2,Win32,84.74576271,,,,,,,,,,,,,,,,857.9642,859.5172,859.5172,860.5291,return,0.2001,,47.65625,,,,,,FBP-OG-81.png,0.35,1.2,36,0.75,,,,,,,,,,,,,,,,,,0,7,7,35,1,,,,,,,,,,,,,,,,,,,,,,,
,,,,,V3_083,24,Female,2024-11-21_15h53.04.722,jersey_experiment_5_v3,2023.2.2,Win32,84.74576271,,,,,,,,,,,,,,,,860.5293,861.8231,861.8231,862.682,return,0.1377,,46.35416667,,,,,,FBP-YG-18.png,0.35,1.2,6,0.5,,,,,,,,,,,,,,,,,,0,8,8,5,1,,,,,,,,,,,,,,,,,,,,,,,
,,,,,V3_083,24,Female,2024-11-21_15h53.04.722,jersey_experiment_5_v3,2023.2.2,Win32,84.74576271,,,,,,,,,,,,,,,,862.6823,864.2351,864.2351,864.9408,return,0.1348,,79.94791667,,,,,,FBP-OG-91.png,0.45,1.2,45,0.75,,,,,,,,,,,,,,,,,,0,9,9,44,1,,,,,,,,,,,,,,,,,,,,,,,
,,,,,V3_083,24,Female,2024-11-21_15h53.04.722,jersey_experiment_5_v3,2023.2.2,Win32,84.74576271,,,,,,,,,,,,,,,,864.9411,866.235,866.235,867.4232,return,0.1671,,52.21354167,,,,,,FBP-RB-71.png,0.35,1.2,46,0.5,,,,,,,,,,,,,,,,,,0,10,10,45,1,,,,,,,,,,,,,,,,,,,,,,,
,,,,,V3_083,24,Female,2024-11-21_15h53.04.722,jersey_experiment_5_v3,2023.2.2,Win32,84.74576271,,,,,,,,,,,,,,,,867.4235,868.7174,868.7175,870.1763,return,0.1752,,59.11458333,,,,,,FBP-RB-71.png,0.37,1.2,47,0.5,,,,,,,,,,,,,,,,,,0,11,11,46,1,,,,,,,,,,,,,,,,,,,,,,,
,,,,,V3_083,24,Female,2024-11-21_15h53.04.722,jersey_experiment_5_v3,2023.2.2,Win32,84.74576271,,,,,,,,,,,,,,,,870.1765,871.7293,871.7293,872.4,return,0.0845,,62.63020833,,,,,,FBP-OG-81.png,0.4,1.2,38,0.75,,,,,,,,,,,,,,,,,,0,12,12,37,1,,,,,,,,,,,,,,,,,,,,,,,
,,,,,V3_083,24,Female,2024-11-21_15h53.04.722,jersey_experiment_5_v3,2023.2.2,Win32,84.74576271,,,,,,,,,,,,,,,,872.4002,873.6942,873.6942,874.6235,return,0.1048,,60.02604167,,,,,,FBP-PT-81.png,0.37,1.2,22,0.5,,,,,,,,,,,,,,,,,,0,13,13,21,1,,,,,,,,,,,,,,,,,,,,,,,
,,,,,V3_083,24,Female,2024-11-21_15h53.04.722,jersey_experiment_5_v3,2023.2.2,Win32,84.74576271,,,,,,,,,,,,,,,,874.6238,876.1765,876.1766,877.7884,return,0.1201,,78.38541667,,,,,,FBP-OG-71.png,0.43,1.2,34,0.75,,,,,,,,,,,,,,,,,,0,14,14,33,1,,,,,,,,,,,,,,,,,,,,,,,
,,,,,V3_083,24,Female,2024-11-21_15h53.04.722,jersey_experiment_5_v3,2023.2.2,Win32,84.74576271,,,,,,,,,,,,,,,,877.7887,879.0826,879.0826,880.059,return,0.1801,,81.51041667,,,,,,FBP-YG-17.png,0.43,1.2,4,0.5,,,,,,,,,,,,,,,,,,0,15,15,3,1,,,,,,,,,,,,,,,,,,,,,,,
,,,,,V3_083,24,Female,2024-11-21_15h53.04.722,jersey_experiment_5_v3,2023.2.2,Win32,84.74576271,,,,,,,,,,,,,,,,880.0593,881.3532,881.3533,882.412,return,0.1473,,66.015625,,,,,,FBP-YG-17.png,0.37,1.2,2,0.5,,,,,,,,,,,,,,,,,,0,16,16,1,1,,,,,,,,,,,,,,,,,,,,,,,
,,,,,V3_083,24,Female,2024-11-21_15h53.04.722,jersey_experiment_5_v3,2023.2.2,Win32,84.74576271,,,,,,,,,,,,,,,,882.4123,883.7062,883.7062,885.0712,return,0.1524,,50.52083333,,,,,,FBP-PT-71.png,0.35,1.2,16,0.5,,,,,,,,,,,,,,,,,,0,17,17,15,1,,,,,,,,,,,,,,,,,,,,,,,
,,,,,V3_083,24,Female,2024-11-21_15h53.04.722,jersey_experiment_5_v3,2023.2.2,Win32,84.74576271,,,,,,,,,,,,,,,,885.0714,886.624,886.6241,887.4593,return,0.1655,,69.53125,,,,,,FBP-OG-91.png,0.43,1.2,44,0.75,,,,,,,,,,,,,,,,,,0,18,18,43,1,,,,,,,,,,,,,,,,,,,,,,,
,,,,,V3_083,24,Female,2024-11-21_15h53.04.722,jersey_experiment_5_v3,2023.2.2,Win32,84.74576271,,,,,,,,,,,,,,,,887.4595,889.0124,889.0124,889.789,return,0.1219,,70.96354167,,,,,,FBP-OG-71.png,0.4,1.2,33,0.75,,,,,,,,,,,,,,,,,,0,19,19,32,1,,,,,,,,,,,,,,,,,,,,,,,
,,,,,V3_083,24,Female,2024-11-21_15h53.04.722,jersey_experiment_5_v3,2023.2.2,Win32,84.74576271,,,,,,,,,,,,,,,,889.7893,891.0832,891.0832,891.8832,return,0.1675,,84.50520833,,,,,,FBP-PT-81.png,0.43,1.2,24,0.5,,,,,,,,,,,,,,,,,,0,20,20,23,1,,,,,,,,,,,,,,,,,,,,,,,
,,,,,V3_083,24,Female,2024-11-21_15h53.04.722,jersey_experiment_5_v3,2023.2.2,Win32,84.74576271,,,,,,,,,,,,,,,,891.8834,893.1771,893.1772,894.4361,return,0.1656,,81.38020833,,,,,,FBP-RB-91.png,0.4,1.2,58,0.5,,,,,,,,,,,,,,,,,,0,21,21,57,1,,,,,,,,,,,,,,,,,,,,,,,
,,,,,V3_083,24,Female,2024-11-21_15h53.04.722,jersey_experiment_5_v3,2023.2.2,Win32,84.74576271,,,,,,,,,,,,,,,,894.4364,895.7301,895.7303,896.2714,return,0.1527,,79.42708333,,,,,,FBP-YG-18.png,0.43,1.2,9,0.5,,,,,,,,,,,,,,,,,,0,22,22,8,1,,,,,,,,,,,,,,,,,,,,,,,
,,,,,V3_083,24,Female,2024-11-21_15h53.04.722,jersey_experiment_5_v3,2023.2.2,Win32,84.74576271,,,,,,,,,,,,,,,,896.2717,897.5656,897.5656,898.8009,return,0.0854,,80.98958333,,,,,,FBP-PT-71.png,0.45,1.2,20,0.5,,,,,,,,,,,,,,,,,,0,23,23,19,1,,,,,,,,,,,,,,,,,,,,,,,
,,,,,V3_083,24,Female,2024-11-21_15h53.04.722,jersey_experiment_5_v3,2023.2.2,Win32,84.74576271,,,,,,,,,,,,,,,,898.8012,900.0951,900.0952,900.6834,return,0.0893,,83.33333333,,,,,,FBP-RB-71.png,0.43,1.2,49,0.5,,,,,,,,,,,,,,,,,,0,24,24,48,1,,,,,,,,,,,,,,,,,,,,,,,
,,,,,V3_083,24,Female,2024-11-21_15h53.04.722,jersey_experiment_5_v3,2023.2.2,Win32,84.74576271,,,,,,,,,,,,,,,,900.6837,901.9776,901.9777,902.8012,return,0.3916,,87.5,,,,,,FBP-PT-91.png,0.43,1.2,29,0.5,,,,,,,,,,,,,,,,,,0,25,25,28,1,,,,,,,,,,,,,,,,,,,,,,,
,,,,,V3_083,24,Female,2024-11-21_15h53.04.722,jersey_experiment_5_v3,2023.2.2,Win32,84.74576271,,,,,,,,,,,,,,,,902.8014,904.3541,904.3542,905.2365,return,0.2589,,87.76041667,,,,,,FBP-OG-71.png,0.45,1.2,35,0.75,,,,,,,,,,,,,,,,,,0,26,26,34,1,,,,,,,,,,,,,,,,,,,,,,,
,,,,,V3_083,24,Female,2024-11-21_15h53.04.722,jersey_experiment_5_v3,2023.2.2,Win32,84.74576271,,,,,,,,,,,,,,,,905.2366,906.5309,906.531,908.1778,return,0.1261,,51.171875,,,,,,FBP-YG-19.png,0.37,1.2,12,0.5,,,,,,,,,,,,,,,,,,0,27,27,11,1,,,,,,,,,,,,,,,,,,,,,,,
,,,,,V3_083,24,Female,2024-11-21_15h53.04.722,jersey_experiment_5_v3,2023.2.2,Win32,84.74576271,,,,,,,,,,,,,,,,908.1779,909.472,909.472,910.9897,return,0.1657,,60.80729167,,,,,,FBP-YG-17.png,0.4,1.2,3,0.5,,,,,,,,,,,,,,,,,,0,28,28,2,1,,,,,,,,,,,,,,,,,,,,,,,
,,,,,V3_083,24,Female,2024-11-21_15h53.04.722,jersey_experiment_5_v3,2023.2.2,Win32,84.74576271,,,,,,,,,,,,,,,,910.9899,912.2838,912.2838,913.4251,return,0.104,,50.26041667,,,,,,FBP-PT-71.png,0.37,1.2,17,0.5,,,,,,,,,,,,,,,,,,0,29,29,16,1,,,,,,,,,,,,,,,,,,,,,,,
,,,,,V3_083,24,Female,2024-11-21_15h53.04.722,jersey_experiment_5_v3,2023.2.2,Win32,84.74576271,,,,,,,,,,,,,,,,913.4253,914.7192,914.7192,915.6487,return,0.0842,,81.90104167,,,,,,FBP-YG-19.png,0.45,1.2,15,0.5,,,,,,,,,,,,,,,,,,0,30,30,14,1,,,,,,,,,,,,,,,,,,,,,,,
,,,,,V3_083,24,Female,2024-11-21_15h53.04.722,jersey_experiment_5_v3,2023.2.2,Win32,84.74576271,,,,,,,,,,,,,,,,915.6489,916.9433,916.9433,919.1193,return,0.1772,,52.08333333,,,,,,FBP-YG-18.png,0.4,1.2,8,0.5,,,,,,,,,,,,,,,,,,0,31,31,7,1,,,,,,,,,,,,,,,,,,,,,,,
,,,,,V3_083,24,Female,2024-11-21_15h53.04.722,jersey_experiment_5_v3,2023.2.2,Win32,84.74576271,,,,,,,,,,,,,,,,919.1196,920.4134,920.4134,921.5313,return,0.0506,,72.78645833,,,,,,FBP-RB-81.png,0.4,1.2,53,0.5,,,,,,,,,,,,,,,,,,0,32,32,52,1,,,,,,,,,,,,,,,,,,,,,,,
,,,,,V3_083,24,Female,2024-11-21_15h53.04.722,jersey_experiment_5_v3,2023.2.2,Win32,84.74576271,,,,,,,,,,,,,,,,921.5315,922.8254,922.8255,924.2255,return,0.1654,,51.82291667,,,,,,FBP-RB-91.png,0.35,1.2,56,0.5,,,,,,,,,,,,,,,,,,0,33,33,55,1,,,,,,,,,,,,,,,,,,,,,,,
,,,,,V3_083,24,Female,2024-11-21_15h53.04.722,jersey_experiment_5_v3,2023.2.2,Win32,84.74576271,,,,,,,,,,,,,,,,924.2258,925.7785,925.7785,928.5904,return,0.1096,,63.28125,,,,,,FBP-OG-91.png,0.4,1.2,43,0.75,,,,,,,,,,,,,,,,,,0,34,34,42,1,,,,,,,,,,,,,,,,,,,,,,,
,,,,,V3_083,24,Female,2024-11-21_15h53.04.722,jersey_experiment_5_v3,2023.2.2,Win32,84.74576271,,,,,,,,,,,,,,,,928.5906,929.8847,929.8847,931.0729,return,0.1427,,74.86979167,,,,,,FBP-PT-71.png,0.43,1.2,19,0.5,,,,,,,,,,,,,,,,,,0,35,35,18,1,,,,,,,,,,,,,,,,,,,,,,,
,,,,,V3_083,24,Female,2024-11-21_15h53.04.722,jersey_experiment_5_v3,2023.2.2,Win32,84.74576271,,,,,,,,,,,,,,,,931.0732,932.3669,932.3669,933.5083,return,0.1549,,69.53125,,,,,,FBP-RB-71.png,0.4,1.2,48,0.5,,,,,,,,,,,,,,,,,,0,36,36,47,1,,,,,,,,,,,,,,,,,,,,,,,
,,,,,V3_083,24,Female,2024-11-21_15h53.04.722,jersey_experiment_5_v3,2023.2.2,Win32,84.74576271,,,,,,,,,,,,,,,,933.5086,934.8023,934.8024,935.5317,return,0.1205,,67.83854167,,,,,,FBP-PT-71.png,0.4,1.2,18,0.5,,,,,,,,,,,,,,,,,,0,37,37,17,1,,,,,,,,,,,,,,,,,,,,,,,
,,,,,V3_083,24,Female,2024-11-21_15h53.04.722,jersey_experiment_5_v3,2023.2.2,Win32,84.74576271,,,,,,,,,,,,,,,,935.532,936.8261,936.8261,937.4378,return,0.1205,,75.390625,,,,,,FBP-PT-81.png,0.45,1.2,25,0.5,,,,,,,,,,,,,,,,,,0,38,38,24,1,,,,,,,,,,,,,,,,,,,,,,,
,,,,,V3_083,24,Female,2024-11-21_15h53.04.722,jersey_experiment_5_v3,2023.2.2,Win32,84.74576271,,,,,,,,,,,,,,,,937.438,938.7321,938.7321,939.2024,return,0.0601,,76.30208333,,,,,,FBP-YG-19.png,0.43,1.2,14,0.5,,,,,,,,,,,,,,,,,,0,39,39,13,1,,,,,,,,,,,,,,,,,,,,,,,
,,,,,V3_083,24,Female,2024-11-21_15h53.04.722,jersey_experiment_5_v3,2023.2.2,Win32,84.74576271,,,,,,,,,,,,,,,,939.2027,940.4969,940.4969,941.073,return,0.0315,,76.82291667,,,,,,FBP-RB-91.png,0.45,1.2,60,0.5,,,,,,,,,,,,,,,,,,0,40,40,59,1,,,,,,,,,,,,,,,,,,,,,,,
,,,,,V3_083,24,Female,2024-11-21_15h53.04.722,jersey_experiment_5_v3,2023.2.2,Win32,84.74576271,,,,,,,,,,,,,,,,941.0732,942.3673,942.3673,943.6498,return,1.0743,,79.6875,,,,,,FBP-RB-81.png,0.43,1.2,54,0.5,,,,,,,,,,,,,,,,,,0,41,41,53,1,,,,,,,,,,,,,,,,,,,,,,,
,,,,,V3_083,24,Female,2024-11-21_15h53.04.722,jersey_experiment_5_v3,2023.2.2,Win32,84.74576271,,,,,,,,,,,,,,,,943.65,944.944,944.9441,946.0028,return,0.1306,,53.90625,,,,,,FBP-RB-91.png,0.37,1.2,57,0.5,,,,,,,,,,,,,,,,,,0,42,42,56,1,,,,,,,,,,,,,,,,,,,,,,,
,,,,,V3_083,24,Female,2024-11-21_15h53.04.722,jersey_experiment_5_v3,2023.2.2,Win32,84.74576271,,,,,,,,,,,,,,,,946.0031,947.5559,947.5559,948.7089,return,0.1889,,48.95833333,,,,,,FBP-OG-71.png,0.35,1.2,31,0.75,,,,,,,,,,,,,,,,,,0,43,43,30,1,,,,,,,,,,,,,,,,,,,,,,,
,,,,,V3_083,24,Female,2024-11-21_15h53.04.722,jersey_experiment_5_v3,2023.2.2,Win32,84.74576271,,,,,,,,,,,,,,,,948.7092,950.0031,950.0031,950.8972,return,0.154,,47.52604167,,,,,,FBP-RB-81.png,0.35,1.2,51,0.5,,,,,,,,,,,,,,,,,,0,44,44,50,1,,,,,,,,,,,,,,,,,,,,,,,
,,,,,V3_083,24,Female,2024-11-21_15h53.04.722,jersey_experiment_5_v3,2023.2.2,Win32,84.74576271,,,,,,,,,,,,,,,,950.8974,952.1914,952.1914,953.8031,return,0.125,,73.046875,,,,,,FBP-PT-91.png,0.45,1.2,30,0.5,,,,,,,,,,,,,,,,,,0,45,45,29,1,,,,,,,,,,,,,,,,,,,,,,,
,,,,,V3_083,24,Female,2024-11-21_15h53.04.722,jersey_experiment_5_v3,2023.2.2,Win32,84.74576271,,,,,,,,,,,,,,,,953.8033,955.0973,955.0973,956.1797,return,0.2455,,54.16666667,,,,,,FBP-RB-81.png,0.37,1.2,52,0.5,,,,,,,,,,,,,,,,,,0,46,46,51,1,,,,,,,,,,,,,,,,,,,,,,,
,,,,,V3_083,24,Female,2024-11-21_15h53.04.722,jersey_experiment_5_v3,2023.2.2,Win32,84.74576271,,,,,,,,,,,,,,,,956.1799,957.4738,957.4739,958.2385,return,0.1193,,55.859375,,,,,,FBP-YG-18.png,0.37,1.2,7,0.5,,,,,,,,,,,,,,,,,,0,47,47,6,1,,,,,,,,,,,,,,,,,,,,,,,
,,,,,V3_083,24,Female,2024-11-21_15h53.04.722,jersey_experiment_5_v3,2023.2.2,Win32,84.74576271,,,,,,,,,,,,,,,,958.2388,959.7917,959.7917,960.6387,return,0.1653,,54.94791667,,,,,,FBP-OG-71.png,0.37,1.2,32,0.75,,,,,,,,,,,,,,,,,,0,48,48,31,1,,,,,,,,,,,,,,,,,,,,,,,
,,,,,V3_083,24,Female,2024-11-21_15h53.04.722,jersey_experiment_5_v3,2023.2.2,Win32,84.74576271,,,,,,,,,,,,,,,,960.6389,962.1916,962.1916,963.0858,return,0.0477,,75.13020833,,,,,,FBP-OG-81.png,0.43,1.2,39,0.75,,,,,,,,,,,,,,,,,,0,49,49,38,1,,,,,,,,,,,,,,,,,,,,,,,
,,,,,V3_083,24,Female,2024-11-21_15h53.04.722,jersey_experiment_5_v3,2023.2.2,Win32,84.74576271,,,,,,,,,,,,,,,,963.0861,964.38,964.3801,965.8975,return,0.1591,,82.55208333,,,,,,FBP-RB-81.png,0.45,1.2,55,0.5,,,,,,,,,,,,,,,,,,0,50,50,54,1,,,,,,,,,,,,,,,,,,,,,,,
,,,,,V3_083,24,Female,2024-11-21_15h53.04.722,jersey_experiment_5_v3,2023.2.2,Win32,84.74576271,,,,,,,,,,,,,,,,965.8978,967.192,967.192,969.8742,return,1.5623,,52.86458333,,,,,,FBP-PT-91.png,0.37,1.2,27,0.5,,,,,,,,,,,,,,,,,,0,51,51,26,1,,,,,,,,,,,,,,,,,,,,,,,
,,,,,V3_083,24,Female,2024-11-21_15h53.04.722,jersey_experiment_5_v3,2023.2.2,Win32,84.74576271,,,,,,,,,,,,,,,,969.8744,971.1686,971.1686,972.1568,return,0.1315,,81.38020833,,,,,,FBP-RB-71.png,0.45,1.2,50,0.5,,,,,,,,,,,,,,,,,,0,52,52,49,1,,,,,,,,,,,,,,,,,,,,,,,
,,,,,V3_083,24,Female,2024-11-21_15h53.04.722,jersey_experiment_5_v3,2023.2.2,Win32,84.74576271,,,,,,,,,,,,,,,,972.157,973.7097,973.7098,974.7215,return,0.1891,,48.828125,,,,,,FBP-OG-91.png,0.35,1.2,41,0.75,,,,,,,,,,,,,,,,,,0,53,53,40,1,,,,,,,,,,,,,,,,,,,,,,,
,,,,,V3_083,24,Female,2024-11-21_15h53.04.722,jersey_experiment_5_v3,2023.2.2,Win32,84.74576271,,,,,,,,,,,,,,,,974.7216,976.0159,976.0159,977.7099,return,0.169,,78.38541667,,,,,,FBP-RB-91.png,0.43,1.2,59,0.5,,,,,,,,,,,,,,,,,,0,54,54,58,1,,,,,,,,,,,,,,,,,,,,,,,
,,,,,V3_083,24,Female,2024-11-21_15h53.04.722,jersey_experiment_5_v3,2023.2.2,Win32,84.74576271,,,,,,,,,,,,,,,,977.7101,979.0041,979.0042,980.4629,return,0.0973,,55.078125,,,,,,FBP-PT-91.png,0.35,1.2,26,0.5,,,,,,,,,,,,,,,,,,0,55,55,25,1,,,,,,,,,,,,,,,,,,,,,,,
,,,,,V3_083,24,Female,2024-11-21_15h53.04.722,jersey_experiment_5_v3,2023.2.2,Win32,84.74576271,,,,,,,,,,,,,,,,980.4631,982.0159,982.0159,983.4985,return,0.1577,,48.95833333,,,,,,FBP-OG-91.png,0.37,1.2,42,0.75,,,,,,,,,,,,,,,,,,0,56,56,41,1,,,,,,,,,,,,,,,,,,,,,,,
,,,,,V3_083,24,Female,2024-11-21_15h53.04.722,jersey_experiment_5_v3,2023.2.2,Win32,84.74576271,,,,,,,,,,,,,,,,983.4987,984.7924,984.7925,985.5808,return,0.1348,,62.23958333,,,,,,FBP-PT-91.png,0.4,1.2,28,0.5,,,,,,,,,,,,,,,,,,0,57,57,27,1,,,,,,,,,,,,,,,,,,,,,,,
,,,,,V3_083,24,Female,2024-11-21_15h53.04.722,jersey_experiment_5_v3,2023.2.2,Win32,84.74576271,,,,,,,,,,,,,,,,985.581,986.8752,986.8752,987.9221,return,0.1265,,71.61458333,,,,,,FBP-YG-18.png,0.45,1.2,10,0.5,,,,,,,,,,,,,,,,,,0,58,58,9,1,,,,,,,,,,,,,,,,,,,,,,,
,,,,,V3_083,24,Female,2024-11-21_15h53.04.722,jersey_experiment_5_v3,2023.2.2,Win32,84.74576271,,,,,,,,,,,,,,,,987.9223,989.2163,989.2163,989.8869,return,0.2116,,77.86458333,,,,,,FBP-YG-17.png,0.45,1.2,5,0.5,,,,,,,,,,,,,,,,,,0,59,59,4,1,,,,,,,,,,,,,,,,,,,,,,,
,,,,,V3_083,24,Female,2024-11-21_15h53.04.722,jersey_experiment_5_v3,2023.2.2,Win32,84.74576271,,,,,,,,,,,,,,,,,,,,,,,,,,,,,,,,,,,,,,,,,,,,,,,,,,,,,,,,989.8869,997.8872,return,7.9918,,,,,,,,,,,,,,,,,,,
,,,,,V3_083,24,Female,2024-11-21_15h53.04.722,jersey_experiment_5_v3,2023.2.2,Win32,84.74576271,,,,,,,,,,,,,,,,,,,,,,,,,,,,,,,,,,,,,,,,,,,,,,,,,,,,,,,,,,,,,997.8873,1003.5462,1,4.4818,return,1.1701,,,,,,,,,,,,
,,,,,V3_083,24,Female,2024-11-21_15h53.04.722,jersey_experiment_5_v3,2023.2.2,Win32,84.74576271,,,,,,,,,,,,,,,,,,,,,,,,,,,,,,,,,,,,,,,,,,,,,,,,,,,,,,,,,,,,,,,,,,,,1003.5462,1101.8129,Comparing how black and white players appear to see if one looks bigger or not. Maybe it could be related to jersey's making men look overall bigger as well.,right,90.1418,,,,,,
,,,,,V3_083,24,Female,2024-11-21_15h53.04.722,jersey_experiment_5_v3,2023.2.2,Win32,84.74576271,,,,,,,,,,,,,,,,,,,,,,,,,,,,,,,,,,,,,,,,,,,,,,,,,,,,,,,,,,,,,,,,,,,,,,,,,,1101.8129,1111.8211,return,9.994,