requirements.started,requirements.stopped,key_resp_3.keys,key_resp_3.rt,key_resp_3.duration,Subject ID,Age,Gender,date,expName,psychopyVersion,OS,frameRate,instructions1.started,instructions1.stopped,key_resp.keys,key_resp.rt,key_resp.duration,example.started,example.stopped,enter_2.keys,enter_2.rt,enter_2.duration,instructions2.started,instructions2.stopped,enter_3.keys,enter_3.rt,enter_3.duration,image.started,image.stopped,slider_2.started,slider_2.stopped,next.keys,next.rt,next.duration,slider.response,trial_block_1.thisRepN,trial_block_1.thisTrialN,trial_block_1.thisN,trial_block_1.thisIndex,trial_block_1.ran,Path,Width,Height,Index,Duration,trial_block_2.thisRepN,trial_block_2.thisTrialN,trial_block_2.thisN,trial_block_2.thisIndex,trial_block_2.ran,rest_break.started,rest_break.stopped,end_break.started,end_break.stopped,key_resp_5.keys,key_resp_5.rt,key_resp_5.duration,trial_block_3.thisRepN,trial_block_3.thisTrialN,trial_block_3.thisN,trial_block_3.thisIndex,trial_block_3.ran,trial_block_4.thisRepN,trial_block_4.thisTrialN,trial_block_4.thisN,trial_block_4.thisIndex,trial_block_4.ran,questions_intro.started,questions_intro.stopped,enter_12.keys,enter_12.rt,enter_12.duration,question2.started,question2.stopped,question_doingbest.response,question_doingbest.rt,enter_15.keys,enter_15.rt,enter_15.duration,pattern.started,pattern.stopped,pattern_2.text,enter_17.keys,enter_17.rt,enter_17.duration,thankyou.started,thankyou.stopped,enter_14.keys,enter_14.rt,enter_14.duration
1E-04,21.2544,return,21.2492,,V3_082,21,Male,2024-11-21_15h34.09.613,jersey_experiment_5_v3,2023.2.2,Win32,84.74576271,,,,,,,,,,,,,,,,,,,,,,,,,,,,,,,,,,,,,,,,,,,,,,,,,,,,,,,,,,,,,,,,,,,,,,,,,,,,,,
,,,,,V3_082,21,Male,2024-11-21_15h34.09.613,jersey_experiment_5_v3,2023.2.2,Win32,84.74576271,21.2545,30.8431,return,9.5778,,,,,,,,,,,,,,,,,,,,,,,,,,,,,,,,,,,,,,,,,,,,,,,,,,,,,,,,,,,,,,,,,,,,,,,,,,
,,,,,V3_082,21,Male,2024-11-21_15h34.09.613,jersey_experiment_5_v3,2023.2.2,Win32,84.74576271,,,,,,30.8432,40.8043,return,9.9159,,,,,,,,,,,,,,,,,,,,,,,,,,,,,,,,,,,,,,,,,,,,,,,,,,,,,,,,,,,,,,,,,,,,,
,,,,,V3_082,21,Male,2024-11-21_15h34.09.613,jersey_experiment_5_v3,2023.2.2,Win32,84.74576271,,,,,,,,,,,40.8044,61.2756,return,20.4642,,,,,,,,,,,,,,,,,,,,,,,,,,,,,,,,,,,,,,,,,,,,,,,,,,,,,,,,,,,,,,,,
,,,,,V3_082,21,Male,2024-11-21_15h34.09.613,jersey_experiment_5_v3,2023.2.2,Win32,84.74576271,,,,,,,,,,,,,,,,61.279,62.5813,62.5815,77.1231,return,5.2699,,53.77604167,0,0,0,31,1,FBP-OG-17.png,0.37,1.2,32,0.5,,,,,,,,,,,,,,,,,,,,,,,,,,,,,,,,,,,,,,,,,,,,,
,,,,,V3_082,21,Male,2024-11-21_15h34.09.613,jersey_experiment_5_v3,2023.2.2,Win32,84.74576271,,,,,,,,,,,,,,,,77.1234,78.4172,78.4173,81.8055,return,1.3822,,49.609375,0,1,1,32,1,FBP-OG-17.png,0.4,1.2,33,0.5,,,,,,,,,,,,,,,,,,,,,,,,,,,,,,,,,,,,,,,,,,,,,
,,,,,V3_082,21,Male,2024-11-21_15h34.09.613,jersey_experiment_5_v3,2023.2.2,Win32,84.74576271,,,,,,,,,,,,,,,,81.8058,83.3587,83.3588,88.0176,return,2.2833,,50,0,2,2,26,1,FBP-PT-19.png,0.37,1.2,27,0.75,,,,,,,,,,,,,,,,,,,,,,,,,,,,,,,,,,,,,,,,,,,,,
,,,,,V3_082,21,Male,2024-11-21_15h34.09.613,jersey_experiment_5_v3,2023.2.2,Win32,84.74576271,,,,,,,,,,,,,,,,88.0178,89.5705,89.5706,95.4532,return,1.7907,,47.91666667,0,3,3,21,1,FBP-PT-18.png,0.37,1.2,22,0.75,,,,,,,,,,,,,,,,,,,,,,,,,,,,,,,,,,,,,,,,,,,,,
,,,,,V3_082,21,Male,2024-11-21_15h34.09.613,jersey_experiment_5_v3,2023.2.2,Win32,84.74576271,,,,,,,,,,,,,,,,95.4534,97.006,97.006,109.8537,return,1.1788,,48.56770833,0,4,4,52,1,FBP-RB-18.png,0.4,1.2,53,0.75,,,,,,,,,,,,,,,,,,,,,,,,,,,,,,,,,,,,,,,,,,,,,
,,,,,V3_082,21,Male,2024-11-21_15h34.09.613,jersey_experiment_5_v3,2023.2.2,Win32,84.74576271,,,,,,,,,,,,,,,,109.8539,111.4066,111.4067,116.4539,return,3.4822,,72.52604167,0,5,5,18,1,FBP-PT-17.png,0.43,1.2,19,0.75,,,,,,,,,,,,,,,,,,,,,,,,,,,,,,,,,,,,,,,,,,,,,
,,,,,V3_082,21,Male,2024-11-21_15h34.09.613,jersey_experiment_5_v3,2023.2.2,Win32,84.74576271,,,,,,,,,,,,,,,,116.4542,118.0069,118.0069,119.8186,return,0.9356,,74.47916667,0,6,6,24,1,FBP-PT-18.png,0.45,1.2,25,0.75,,,,,,,,,,,,,,,,,,,,,,,,,,,,,,,,,,,,,,,,,,,,,
,,,,,V3_082,21,Male,2024-11-21_15h34.09.613,jersey_experiment_5_v3,2023.2.2,Win32,84.74576271,,,,,,,,,,,,,,,,119.8188,121.3715,121.3716,125.1012,return,2.2614,,52.734375,0,7,7,2,1,FBP-YG-71.png,0.4,1.2,3,0.75,,,,,,,,,,,,,,,,,,,,,,,,,,,,,,,,,,,,,,,,,,,,,
,,,,,V3_082,21,Male,2024-11-21_15h34.09.613,jersey_experiment_5_v3,2023.2.2,Win32,84.74576271,,,,,,,,,,,,,,,,125.1015,126.6542,126.6542,128.9014,return,1.0439,,67.05729167,0,8,8,49,1,FBP-RB-17.png,0.45,1.2,50,0.75,,,,,,,,,,,,,,,,,,,,,,,,,,,,,,,,,,,,,,,,,,,,,
,,,,,V3_082,21,Male,2024-11-21_15h34.09.613,jersey_experiment_5_v3,2023.2.2,Win32,84.74576271,,,,,,,,,,,,,,,,128.9016,130.4543,130.4543,134.9134,return,1.0506,,60.15625,0,9,9,8,1,FBP-YG-81.png,0.43,1.2,9,0.75,,,,,,,,,,,,,,,,,,,,,,,,,,,,,,,,,,,,,,,,,,,,,
,,,,,V3_082,21,Male,2024-11-21_15h34.09.613,jersey_experiment_5_v3,2023.2.2,Win32,84.74576271,,,,,,,,,,,,,,,,134.9136,136.4664,136.4664,138.8664,return,0.9564,,67.05729167,0,10,10,29,1,FBP-PT-19.png,0.45,1.2,30,0.75,,,,,,,,,,,,,,,,,,,,,,,,,,,,,,,,,,,,,,,,,,,,,
,,,,,V3_082,21,Male,2024-11-21_15h34.09.613,jersey_experiment_5_v3,2023.2.2,Win32,84.74576271,,,,,,,,,,,,,,,,138.8666,140.4194,140.4194,143.5372,return,0.7401,,56.90104167,0,11,11,14,1,FBP-YG-91.png,0.45,1.2,15,0.75,,,,,,,,,,,,,,,,,,,,,,,,,,,,,,,,,,,,,,,,,,,,,
,,,,,V3_082,21,Male,2024-11-21_15h34.09.613,jersey_experiment_5_v3,2023.2.2,Win32,84.74576271,,,,,,,,,,,,,,,,143.5375,145.0901,145.0902,147.3256,return,1.135,,33.85416667,0,12,12,6,1,FBP-YG-81.png,0.37,1.2,7,0.75,,,,,,,,,,,,,,,,,,,,,,,,,,,,,,,,,,,,,,,,,,,,,
,,,,,V3_082,21,Male,2024-11-21_15h34.09.613,jersey_experiment_5_v3,2023.2.2,Win32,84.74576271,,,,,,,,,,,,,,,,147.3258,148.8786,148.8786,150.7375,return,0.8252,,45.703125,0,13,13,12,1,FBP-YG-91.png,0.4,1.2,13,0.75,,,,,,,,,,,,,,,,,,,,,,,,,,,,,,,,,,,,,,,,,,,,,
,,,,,V3_082,21,Male,2024-11-21_15h34.09.613,jersey_experiment_5_v3,2023.2.2,Win32,84.74576271,,,,,,,,,,,,,,,,150.7376,152.2904,152.2904,154.667,return,1.1846,,52.21354167,0,14,14,1,1,FBP-YG-71.png,0.37,1.2,2,0.75,,,,,,,,,,,,,,,,,,,,,,,,,,,,,,,,,,,,,,,,,,,,,
,,,,,V3_082,21,Male,2024-11-21_15h34.09.613,jersey_experiment_5_v3,2023.2.2,Win32,84.74576271,,,,,,,,,,,,,,,,154.6672,156.22,156.22,157.5966,return,0.6155,,50.390625,0,15,15,56,1,FBP-RB-19.png,0.37,1.2,57,0.75,,,,,,,,,,,,,,,,,,,,,,,,,,,,,,,,,,,,,,,,,,,,,
,,,,,V3_082,21,Male,2024-11-21_15h34.09.613,jersey_experiment_5_v3,2023.2.2,Win32,84.74576271,,,,,,,,,,,,,,,,157.5968,158.8908,158.8909,161.0554,return,1.0507,,72.39583333,0,16,16,43,1,FBP-OG-19.png,0.43,1.2,44,0.5,,,,,,,,,,,,,,,,,,,,,,,,,,,,,,,,,,,,,,,,,,,,,
,,,,,V3_082,21,Male,2024-11-21_15h34.09.613,jersey_experiment_5_v3,2023.2.2,Win32,84.74576271,,,,,,,,,,,,,,,,161.0557,162.3498,162.3499,164.338,return,0.613,,54.42708333,0,17,17,41,1,FBP-OG-19.png,0.37,1.2,42,0.5,,,,,,,,,,,,,,,,,,,,,,,,,,,,,,,,,,,,,,,,,,,,,
,,,,,V3_082,21,Male,2024-11-21_15h34.09.613,jersey_experiment_5_v3,2023.2.2,Win32,84.74576271,,,,,,,,,,,,,,,,164.3382,165.8909,165.891,167.8087,return,0.8954,,61.06770833,0,18,18,46,1,FBP-RB-17.png,0.37,1.2,47,0.75,,,,,,,,,,,,,,,,,,,,,,,,,,,,,,,,,,,,,,,,,,,,,
,,,,,V3_082,21,Male,2024-11-21_15h34.09.613,jersey_experiment_5_v3,2023.2.2,Win32,84.74576271,,,,,,,,,,,,,,,,167.8089,169.1027,169.1027,171.1382,return,0.7772,,42.1875,0,19,19,30,1,FBP-OG-17.png,0.35,1.2,31,0.5,,,,,,,,,,,,,,,,,,,,,,,,,,,,,,,,,,,,,,,,,,,,,
,,,,,V3_082,21,Male,2024-11-21_15h34.09.613,jersey_experiment_5_v3,2023.2.2,Win32,84.74576271,,,,,,,,,,,,,,,,171.1384,172.6797,172.6797,174.6677,return,0.8777,,68.359375,0,20,20,27,1,FBP-PT-19.png,0.4,1.2,28,0.75,,,,,,,,,,,,,,,,,,,,,,,,,,,,,,,,,,,,,,,,,,,,,
,,,,,V3_082,21,Male,2024-11-21_15h34.09.613,jersey_experiment_5_v3,2023.2.2,Win32,84.74576271,,,,,,,,,,,,,,,,174.6679,176.2091,176.2091,179.9149,return,2.5964,,38.41145833,0,21,21,15,1,FBP-PT-17.png,0.35,1.2,16,0.75,,,,,,,,,,,,,,,,,,,,,,,,,,,,,,,,,,,,,,,,,,,,,
,,,,,V3_082,21,Male,2024-11-21_15h34.09.613,jersey_experiment_5_v3,2023.2.2,Win32,84.74576271,,,,,,,,,,,,,,,,179.9152,181.4681,181.4681,183.0445,return,0.6917,,66.40625,0,22,22,7,1,FBP-YG-81.png,0.4,1.2,8,0.75,,,,,,,,,,,,,,,,,,,,,,,,,,,,,,,,,,,,,,,,,,,,,
,,,,,V3_082,21,Male,2024-11-21_15h34.09.613,jersey_experiment_5_v3,2023.2.2,Win32,84.74576271,,,,,,,,,,,,,,,,183.0447,184.5974,184.5975,185.8446,return,0.1734,,33.72395833,0,23,23,0,1,FBP-YG-71.png,0.35,1.2,1,0.75,,,,,,,,,,,,,,,,,,,,,,,,,,,,,,,,,,,,,,,,,,,,,
,,,,,V3_082,21,Male,2024-11-21_15h34.09.613,jersey_experiment_5_v3,2023.2.2,Win32,84.74576271,,,,,,,,,,,,,,,,185.8448,187.386,187.386,188.927,return,0.3571,,74.47916667,0,24,24,17,1,FBP-PT-17.png,0.4,1.2,18,0.75,,,,,,,,,,,,,,,,,,,,,,,,,,,,,,,,,,,,,,,,,,,,,
,,,,,V3_082,21,Male,2024-11-21_15h34.09.613,jersey_experiment_5_v3,2023.2.2,Win32,84.74576271,,,,,,,,,,,,,,,,188.9272,190.2211,190.2212,191.4684,return,0.3599,,88.54166667,0,25,25,34,1,FBP-OG-17.png,0.45,1.2,35,0.5,,,,,,,,,,,,,,,,,,,,,,,,,,,,,,,,,,,,,,,,,,,,,
,,,,,V3_082,21,Male,2024-11-21_15h34.09.613,jersey_experiment_5_v3,2023.2.2,Win32,84.74576271,,,,,,,,,,,,,,,,191.4686,193.0213,193.0214,194.0448,return,0.0887,,87.63020833,0,26,26,59,1,FBP-RB-19.png,0.45,1.2,60,0.75,,,,,,,,,,,,,,,,,,,,,,,,,,,,,,,,,,,,,,,,,,,,,
,,,,,V3_082,21,Male,2024-11-21_15h34.09.613,jersey_experiment_5_v3,2023.2.2,Win32,84.74576271,,,,,,,,,,,,,,,,194.0451,195.598,195.598,196.8333,return,0.6843,,87.63020833,0,27,27,54,1,FBP-RB-18.png,0.45,1.2,55,0.75,,,,,,,,,,,,,,,,,,,,,,,,,,,,,,,,,,,,,,,,,,,,,
,,,,,V3_082,21,Male,2024-11-21_15h34.09.613,jersey_experiment_5_v3,2023.2.2,Win32,84.74576271,,,,,,,,,,,,,,,,196.8336,198.3861,198.3861,200.3627,return,1.2169,,41.66666667,0,28,28,11,1,FBP-YG-91.png,0.37,1.2,12,0.75,,,,,,,,,,,,,,,,,,,,,,,,,,,,,,,,,,,,,,,,,,,,,
,,,,,V3_082,21,Male,2024-11-21_15h34.09.613,jersey_experiment_5_v3,2023.2.2,Win32,84.74576271,,,,,,,,,,,,,,,,200.363,201.9157,201.9158,202.8924,return,0.3326,,31.90104167,0,29,29,5,1,FBP-YG-81.png,0.35,1.2,6,0.75,,,,,,,,,,,,,,,,,,,,,,,,,,,,,,,,,,,,,,,,,,,,,
,,,,,V3_082,21,Male,2024-11-21_15h34.09.613,jersey_experiment_5_v3,2023.2.2,Win32,84.74576271,,,,,,,,,,,,,,,,202.8925,204.4453,204.4454,206.316,return,0.8864,,47.13541667,0,30,30,16,1,FBP-PT-17.png,0.37,1.2,17,0.75,,,,,,,,,,,,,,,,,,,,,,,,,,,,,,,,,,,,,,,,,,,,,
,,,,,V3_082,21,Male,2024-11-21_15h34.09.613,jersey_experiment_5_v3,2023.2.2,Win32,84.74576271,,,,,,,,,,,,,,,,206.3162,207.6101,207.6102,210.0455,return,0.4178,,50.65104167,0,31,31,36,1,FBP-OG-18.png,0.37,1.2,37,0.5,,,,,,,,,,,,,,,,,,,,,,,,,,,,,,,,,,,,,,,,,,,,,
,,,,,V3_082,21,Male,2024-11-21_15h34.09.613,jersey_experiment_5_v3,2023.2.2,Win32,84.74576271,,,,,,,,,,,,,,,,210.0458,211.5985,211.5986,213.1397,return,0.55,,75.390625,0,32,32,53,1,FBP-RB-18.png,0.43,1.2,54,0.75,,,,,,,,,,,,,,,,,,,,,,,,,,,,,,,,,,,,,,,,,,,,,
,,,,,V3_082,21,Male,2024-11-21_15h34.09.613,jersey_experiment_5_v3,2023.2.2,Win32,84.74576271,,,,,,,,,,,,,,,,213.14,214.6928,214.6928,215.6107,return,0.3471,,80.98958333,0,33,33,3,1,FBP-YG-71.png,0.43,1.2,4,0.75,,,,,,,,,,,,,,,,,,,,,,,,,,,,,,,,,,,,,,,,,,,,,
,,,,,V3_082,21,Male,2024-11-21_15h34.09.613,jersey_experiment_5_v3,2023.2.2,Win32,84.74576271,,,,,,,,,,,,,,,,215.6109,217.1634,217.1635,218.4693,return,0.2334,,50.91145833,0,34,34,45,1,FBP-RB-17.png,0.35,1.2,46,0.75,,,,,,,,,,,,,,,,,,,,,,,,,,,,,,,,,,,,,,,,,,,,,
,,,,,V3_082,21,Male,2024-11-21_15h34.09.613,jersey_experiment_5_v3,2023.2.2,Win32,84.74576271,,,,,,,,,,,,,,,,218.4696,219.7635,219.7636,221.1519,return,0.2975,,66.66666667,0,35,35,42,1,FBP-OG-19.png,0.4,1.2,43,0.5,,,,,,,,,,,,,,,,,,,,,,,,,,,,,,,,,,,,,,,,,,,,,
,,,,,V3_082,21,Male,2024-11-21_15h34.09.613,jersey_experiment_5_v3,2023.2.2,Win32,84.74576271,,,,,,,,,,,,,,,,221.1521,222.7049,222.7049,223.5638,return,0.1574,,72.65625,0,36,36,57,1,FBP-RB-19.png,0.4,1.2,58,0.75,,,,,,,,,,,,,,,,,,,,,,,,,,,,,,,,,,,,,,,,,,,,,
,,,,,V3_082,21,Male,2024-11-21_15h34.09.613,jersey_experiment_5_v3,2023.2.2,Win32,84.74576271,,,,,,,,,,,,,,,,223.5639,224.8578,224.8578,226.3167,return,0.4769,,52.734375,0,37,37,40,1,FBP-OG-19.png,0.35,1.2,41,0.5,,,,,,,,,,,,,,,,,,,,,,,,,,,,,,,,,,,,,,,,,,,,,
,,,,,V3_082,21,Male,2024-11-21_15h34.09.613,jersey_experiment_5_v3,2023.2.2,Win32,84.74576271,,,,,,,,,,,,,,,,226.3169,227.8696,227.8697,228.8462,return,0.1344,,52.47395833,0,38,38,51,1,FBP-RB-18.png,0.37,1.2,52,0.75,,,,,,,,,,,,,,,,,,,,,,,,,,,,,,,,,,,,,,,,,,,,,
,,,,,V3_082,21,Male,2024-11-21_15h34.09.613,jersey_experiment_5_v3,2023.2.2,Win32,84.74576271,,,,,,,,,,,,,,,,228.8464,230.3991,230.3991,231.4581,return,0.3998,,52.47395833,0,39,39,50,1,FBP-RB-18.png,0.35,1.2,51,0.75,,,,,,,,,,,,,,,,,,,,,,,,,,,,,,,,,,,,,,,,,,,,,
,,,,,V3_082,21,Male,2024-11-21_15h34.09.613,jersey_experiment_5_v3,2023.2.2,Win32,84.74576271,,,,,,,,,,,,,,,,231.4584,233.011,233.011,234.2582,return,0.3682,,60.15625,0,40,40,47,1,FBP-RB-17.png,0.4,1.2,48,0.75,,,,,,,,,,,,,,,,,,,,,,,,,,,,,,,,,,,,,,,,,,,,,
,,,,,V3_082,21,Male,2024-11-21_15h34.09.613,jersey_experiment_5_v3,2023.2.2,Win32,84.74576271,,,,,,,,,,,,,,,,234.2585,235.8112,235.8112,236.7994,return,0.2115,,67.31770833,0,41,41,22,1,FBP-PT-18.png,0.4,1.2,23,0.75,,,,,,,,,,,,,,,,,,,,,,,,,,,,,,,,,,,,,,,,,,,,,
,,,,,V3_082,21,Male,2024-11-21_15h34.09.613,jersey_experiment_5_v3,2023.2.2,Win32,84.74576271,,,,,,,,,,,,,,,,236.7996,238.3523,238.3523,239.4937,return,0.2446,,77.60416667,0,42,42,9,1,FBP-YG-81.png,0.45,1.2,10,0.75,,,,,,,,,,,,,,,,,,,,,,,,,,,,,,,,,,,,,,,,,,,,,
,,,,,V3_082,21,Male,2024-11-21_15h34.09.613,jersey_experiment_5_v3,2023.2.2,Win32,84.74576271,,,,,,,,,,,,,,,,239.4939,240.7878,240.7879,241.8231,return,0.2496,,67.44791667,0,43,43,37,1,FBP-OG-18.png,0.4,1.2,38,0.5,,,,,,,,,,,,,,,,,,,,,,,,,,,,,,,,,,,,,,,,,,,,,
,,,,,V3_082,21,Male,2024-11-21_15h34.09.613,jersey_experiment_5_v3,2023.2.2,Win32,84.74576271,,,,,,,,,,,,,,,,241.8233,243.3762,243.3762,244.1292,return,0.1436,,45.18229167,0,44,44,55,1,FBP-RB-19.png,0.35,1.2,56,0.75,,,,,,,,,,,,,,,,,,,,,,,,,,,,,,,,,,,,,,,,,,,,,
,,,,,V3_082,21,Male,2024-11-21_15h34.09.613,jersey_experiment_5_v3,2023.2.2,Win32,84.74576271,,,,,,,,,,,,,,,,244.1294,245.4234,245.4235,246.8351,return,0.1295,,70.96354167,0,45,45,38,1,FBP-OG-18.png,0.43,1.2,39,0.5,,,,,,,,,,,,,,,,,,,,,,,,,,,,,,,,,,,,,,,,,,,,,
,,,,,V3_082,21,Male,2024-11-21_15h34.09.613,jersey_experiment_5_v3,2023.2.2,Win32,84.74576271,,,,,,,,,,,,,,,,246.8353,248.3881,248.3881,249.8234,return,0.686,,60.15625,0,46,46,13,1,FBP-YG-91.png,0.43,1.2,14,0.75,,,,,,,,,,,,,,,,,,,,,,,,,,,,,,,,,,,,,,,,,,,,,
,,,,,V3_082,21,Male,2024-11-21_15h34.09.613,jersey_experiment_5_v3,2023.2.2,Win32,84.74576271,,,,,,,,,,,,,,,,249.8237,251.1176,251.1177,252.6353,return,0.522,,75,0,47,47,39,1,FBP-OG-18.png,0.45,1.2,40,0.5,,,,,,,,,,,,,,,,,,,,,,,,,,,,,,,,,,,,,,,,,,,,,
,,,,,V3_082,21,Male,2024-11-21_15h34.09.613,jersey_experiment_5_v3,2023.2.2,Win32,84.74576271,,,,,,,,,,,,,,,,252.6356,253.9294,253.9295,255.2355,return,0.1023,,75.65104167,0,48,48,33,1,FBP-OG-17.png,0.43,1.2,34,0.5,,,,,,,,,,,,,,,,,,,,,,,,,,,,,,,,,,,,,,,,,,,,,
,,,,,V3_082,21,Male,2024-11-21_15h34.09.613,jersey_experiment_5_v3,2023.2.2,Win32,84.74576271,,,,,,,,,,,,,,,,255.2358,256.7883,256.7884,257.5648,return,0.0618,,75,0,49,49,23,1,FBP-PT-18.png,0.43,1.2,24,0.75,,,,,,,,,,,,,,,,,,,,,,,,,,,,,,,,,,,,,,,,,,,,,
,,,,,V3_082,21,Male,2024-11-21_15h34.09.613,jersey_experiment_5_v3,2023.2.2,Win32,84.74576271,,,,,,,,,,,,,,,,257.5651,259.1177,259.1178,260.4945,return,0.0493,,75.52083333,0,50,50,28,1,FBP-PT-19.png,0.43,1.2,29,0.75,,,,,,,,,,,,,,,,,,,,,,,,,,,,,,,,,,,,,,,,,,,,,
,,,,,V3_082,21,Male,2024-11-21_15h34.09.613,jersey_experiment_5_v3,2023.2.2,Win32,84.74576271,,,,,,,,,,,,,,,,260.4947,262.0476,262.0476,264.2359,return,0.6868,,26.82291667,0,51,51,20,1,FBP-PT-18.png,0.35,1.2,21,0.75,,,,,,,,,,,,,,,,,,,,,,,,,,,,,,,,,,,,,,,,,,,,,
,,,,,V3_082,21,Male,2024-11-21_15h34.09.613,jersey_experiment_5_v3,2023.2.2,Win32,84.74576271,,,,,,,,,,,,,,,,264.2361,265.7888,265.7889,266.6827,return,0.373,,24.21875,0,52,52,25,1,FBP-PT-19.png,0.35,1.2,26,0.75,,,,,,,,,,,,,,,,,,,,,,,,,,,,,,,,,,,,,,,,,,,,,
,,,,,V3_082,21,Male,2024-11-21_15h34.09.613,jersey_experiment_5_v3,2023.2.2,Win32,84.74576271,,,,,,,,,,,,,,,,266.6831,268.2361,268.2362,269.7418,return,0.6135,,71.35416667,0,53,53,19,1,FBP-PT-17.png,0.45,1.2,20,0.75,,,,,,,,,,,,,,,,,,,,,,,,,,,,,,,,,,,,,,,,,,,,,
,,,,,V3_082,21,Male,2024-11-21_15h34.09.613,jersey_experiment_5_v3,2023.2.2,Win32,84.74576271,,,,,,,,,,,,,,,,269.7421,271.036,271.036,273.1421,return,0.5501,,41.66666667,0,54,54,35,1,FBP-OG-18.png,0.35,1.2,36,0.5,,,,,,,,,,,,,,,,,,,,,,,,,,,,,,,,,,,,,,,,,,,,,
,,,,,V3_082,21,Male,2024-11-21_15h34.09.613,jersey_experiment_5_v3,2023.2.2,Win32,84.74576271,,,,,,,,,,,,,,,,273.1423,274.4361,274.4362,275.9538,return,0.0865,,70.96354167,0,55,55,44,1,FBP-OG-19.png,0.45,1.2,45,0.5,,,,,,,,,,,,,,,,,,,,,,,,,,,,,,,,,,,,,,,,,,,,,
,,,,,V3_082,21,Male,2024-11-21_15h34.09.613,jersey_experiment_5_v3,2023.2.2,Win32,84.74576271,,,,,,,,,,,,,,,,275.954,277.5068,277.5069,278.6244,return,0.4736,,70.57291667,0,56,56,48,1,FBP-RB-17.png,0.43,1.2,49,0.75,,,,,,,,,,,,,,,,,,,,,,,,,,,,,,,,,,,,,,,,,,,,,
,,,,,V3_082,21,Male,2024-11-21_15h34.09.613,jersey_experiment_5_v3,2023.2.2,Win32,84.74576271,,,,,,,,,,,,,,,,278.6246,280.1774,280.1776,280.7893,return,0.1418,,72.65625,0,57,57,58,1,FBP-RB-19.png,0.43,1.2,59,0.75,,,,,,,,,,,,,,,,,,,,,,,,,,,,,,,,,,,,,,,,,,,,,
,,,,,V3_082,21,Male,2024-11-21_15h34.09.613,jersey_experiment_5_v3,2023.2.2,Win32,84.74576271,,,,,,,,,,,,,,,,280.7896,282.3422,282.3423,283.107,return,0.1641,,78.25520833,0,58,58,4,1,FBP-YG-71.png,0.45,1.2,5,0.75,,,,,,,,,,,,,,,,,,,,,,,,,,,,,,,,,,,,,,,,,,,,,
,,,,,V3_082,21,Male,2024-11-21_15h34.09.613,jersey_experiment_5_v3,2023.2.2,Win32,84.74576271,,,,,,,,,,,,,,,,283.1072,284.6601,284.6601,285.6484,return,0.2503,,35.67708333,0,59,59,10,1,FBP-YG-91.png,0.35,1.2,11,0.75,,,,,,,,,,,,,,,,,,,,,,,,,,,,,,,,,,,,,,,,,,,,,
,,,,,V3_082,21,Male,2024-11-21_15h34.09.613,jersey_experiment_5_v3,2023.2.2,Win32,84.74576271,,,,,,,,,,,,,,,,285.6498,287.2013,287.2013,288.4601,return,0.4884,,74.86979167,,,,,,FBP-YG-18.png,0.45,1.2,10,0.75,0,0,0,9,1,,,,,,,,,,,,,,,,,,,,,,,,,,,,,,,,,,,,,,,,
,,,,,V3_082,21,Male,2024-11-21_15h34.09.613,jersey_experiment_5_v3,2023.2.2,Win32,84.74576271,,,,,,,,,,,,,,,,288.4605,290.0131,290.0132,290.625,return,0.0963,,77.21354167,,,,,,FBP-PT-91.png,0.45,1.2,30,0.75,0,1,1,29,1,,,,,,,,,,,,,,,,,,,,,,,,,,,,,,,,,,,,,,,,
,,,,,V3_082,21,Male,2024-11-21_15h34.09.613,jersey_experiment_5_v3,2023.2.2,Win32,84.74576271,,,,,,,,,,,,,,,,290.6253,292.1779,292.1779,294.1544,return,0.1028,,61.328125,,,,,,FBP-YG-17.png,0.43,1.2,4,0.75,0,2,2,3,1,,,,,,,,,,,,,,,,,,,,,,,,,,,,,,,,,,,,,,,,
,,,,,V3_082,21,Male,2024-11-21_15h34.09.613,jersey_experiment_5_v3,2023.2.2,Win32,84.74576271,,,,,,,,,,,,,,,,294.1547,295.7074,295.7075,296.4841,return,0.0555,,38.28125,,,,,,FBP-PT-71.png,0.4,1.2,18,0.75,0,3,3,17,1,,,,,,,,,,,,,,,,,,,,,,,,,,,,,,,,,,,,,,,,
,,,,,V3_082,21,Male,2024-11-21_15h34.09.613,jersey_experiment_5_v3,2023.2.2,Win32,84.74576271,,,,,,,,,,,,,,,,296.4843,298.0372,298.0372,299.1194,return,0.4038,,28.77604167,,,,,,FBP-RB-91.png,0.35,1.2,56,0.75,0,4,4,55,1,,,,,,,,,,,,,,,,,,,,,,,,,,,,,,,,,,,,,,,,
,,,,,V3_082,21,Male,2024-11-21_15h34.09.613,jersey_experiment_5_v3,2023.2.2,Win32,84.74576271,,,,,,,,,,,,,,,,299.1197,300.4136,300.4136,301.3312,return,0.1285,,23.046875,,,,,,FBP-OG-71.png,0.35,1.2,31,0.5,0,5,5,30,1,,,,,,,,,,,,,,,,,,,,,,,,,,,,,,,,,,,,,,,,
,,,,,V3_082,21,Male,2024-11-21_15h34.09.613,jersey_experiment_5_v3,2023.2.2,Win32,84.74576271,,,,,,,,,,,,,,,,301.3315,302.8843,302.8843,304.802,return,0.3541,,53.515625,,,,,,FBP-RB-81.png,0.4,1.2,53,0.75,0,6,6,52,1,,,,,,,,,,,,,,,,,,,,,,,,,,,,,,,,,,,,,,,,
,,,,,V3_082,21,Male,2024-11-21_15h34.09.613,jersey_experiment_5_v3,2023.2.2,Win32,84.74576271,,,,,,,,,,,,,,,,304.8022,306.3548,306.3549,307.555,return,0.2833,,42.96875,,,,,,FBP-YG-19.png,0.35,1.2,11,0.75,0,7,7,10,1,,,,,,,,,,,,,,,,,,,,,,,,,,,,,,,,,,,,,,,,
,,,,,V3_082,21,Male,2024-11-21_15h34.09.613,jersey_experiment_5_v3,2023.2.2,Win32,84.74576271,,,,,,,,,,,,,,,,307.5552,309.1081,309.1081,310.1552,return,0.1337,,77.86458333,,,,,,FBP-RB-71.png,0.45,1.2,50,0.75,0,8,8,49,1,,,,,,,,,,,,,,,,,,,,,,,,,,,,,,,,,,,,,,,,
,,,,,V3_082,21,Male,2024-11-21_15h34.09.613,jersey_experiment_5_v3,2023.2.2,Win32,84.74576271,,,,,,,,,,,,,,,,310.1553,311.7082,311.7082,313.1553,return,0.0629,,50.13020833,,,,,,FBP-RB-71.png,0.37,1.2,47,0.75,0,9,9,46,1,,,,,,,,,,,,,,,,,,,,,,,,,,,,,,,,,,,,,,,,
,,,,,V3_082,21,Male,2024-11-21_15h34.09.613,jersey_experiment_5_v3,2023.2.2,Win32,84.74576271,,,,,,,,,,,,,,,,313.1555,314.7082,314.7082,315.7082,return,0.0541,,77.08333333,,,,,,FBP-YG-19.png,0.45,1.2,15,0.75,0,10,10,14,1,,,,,,,,,,,,,,,,,,,,,,,,,,,,,,,,,,,,,,,,
,,,,,V3_082,21,Male,2024-11-21_15h34.09.613,jersey_experiment_5_v3,2023.2.2,Win32,84.74576271,,,,,,,,,,,,,,,,315.7085,317.2611,317.2612,318.3789,return,0.0437,,75.13020833,,,,,,FBP-PT-91.png,0.43,1.2,29,0.75,0,11,11,28,1,,,,,,,,,,,,,,,,,,,,,,,,,,,,,,,,,,,,,,,,
,,,,,V3_082,21,Male,2024-11-21_15h34.09.613,jersey_experiment_5_v3,2023.2.2,Win32,84.74576271,,,,,,,,,,,,,,,,318.3792,319.932,319.9321,320.7789,return,0.1259,,38.28125,,,,,,FBP-RB-81.png,0.37,1.2,52,0.75,0,12,12,51,1,,,,,,,,,,,,,,,,,,,,,,,,,,,,,,,,,,,,,,,,
,,,,,V3_082,21,Male,2024-11-21_15h34.09.613,jersey_experiment_5_v3,2023.2.2,Win32,84.74576271,,,,,,,,,,,,,,,,320.7793,322.3322,322.3322,323.0614,return,0.1649,,26.171875,,,,,,FBP-RB-71.png,0.35,1.2,46,0.75,0,13,13,45,1,,,,,,,,,,,,,,,,,,,,,,,,,,,,,,,,,,,,,,,,
,,,,,V3_082,21,Male,2024-11-21_15h34.09.613,jersey_experiment_5_v3,2023.2.2,Win32,84.74576271,,,,,,,,,,,,,,,,323.0617,324.3556,324.3556,325.6381,return,0.211,,63.15104167,,,,,,FBP-OG-71.png,0.43,1.2,34,0.5,0,14,14,33,1,,,,,,,,,,,,,,,,,,,,,,,,,,,,,,,,,,,,,,,,
,,,,,V3_082,21,Male,2024-11-21_15h34.09.613,jersey_experiment_5_v3,2023.2.2,Win32,84.74576271,,,,,,,,,,,,,,,,325.6383,327.191,327.1911,327.8026,return,0.0909,,60.41666667,,,,,,FBP-YG-17.png,0.4,1.2,3,0.75,0,15,15,2,1,,,,,,,,,,,,,,,,,,,,,,,,,,,,,,,,,,,,,,,,
,,,,,V3_082,21,Male,2024-11-21_15h34.09.613,jersey_experiment_5_v3,2023.2.2,Win32,84.74576271,,,,,,,,,,,,,,,,327.8029,329.097,329.0971,329.9793,return,0.1573,,42.578125,,,,,,FBP-OG-81.png,0.35,1.2,36,0.5,0,16,16,35,1,,,,,,,,,,,,,,,,,,,,,,,,,,,,,,,,,,,,,,,,
,,,,,V3_082,21,Male,2024-11-21_15h34.09.613,jersey_experiment_5_v3,2023.2.2,Win32,84.74576271,,,,,,,,,,,,,,,,329.9795,331.5324,331.5324,332.0499,return,0.0483,,40.88541667,,,,,,FBP-YG-18.png,0.37,1.2,7,0.75,0,17,17,6,1,,,,,,,,,,,,,,,,,,,,,,,,,,,,,,,,,,,,,,,,
,,,,,V3_082,21,Male,2024-11-21_15h34.09.613,jersey_experiment_5_v3,2023.2.2,Win32,84.74576271,,,,,,,,,,,,,,,,332.0503,333.6031,333.6032,334.4853,return,0.0455,,52.60416667,,,,,,FBP-YG-19.png,0.43,1.2,14,0.75,0,18,18,13,1,,,,,,,,,,,,,,,,,,,,,,,,,,,,,,,,,,,,,,,,
,,,,,V3_082,21,Male,2024-11-21_15h34.09.613,jersey_experiment_5_v3,2023.2.2,Win32,84.74576271,,,,,,,,,,,,,,,,334.4856,336.0383,336.0383,336.6031,return,0.0668,,52.86458333,,,,,,FBP-YG-19.png,0.4,1.2,13,0.75,0,19,19,12,1,,,,,,,,,,,,,,,,,,,,,,,,,,,,,,,,,,,,,,,,
,,,,,V3_082,21,Male,2024-11-21_15h34.09.613,jersey_experiment_5_v3,2023.2.2,Win32,84.74576271,,,,,,,,,,,,,,,,336.6034,337.8973,337.8973,338.9445,return,0.1519,,48.828125,,,,,,FBP-OG-81.png,0.37,1.2,37,0.5,0,20,20,36,1,,,,,,,,,,,,,,,,,,,,,,,,,,,,,,,,,,,,,,,,
,,,,,V3_082,21,Male,2024-11-21_15h34.09.613,jersey_experiment_5_v3,2023.2.2,Win32,84.74576271,,,,,,,,,,,,,,,,338.9447,340.4973,340.4973,341.8033,return,0.1138,,39.58333333,,,,,,FBP-PT-81.png,0.35,1.2,21,0.75,0,21,21,20,1,,,,,,,,,,,,,,,,,,,,,,,,,,,,,,,,,,,,,,,,
,,,,,V3_082,21,Male,2024-11-21_15h34.09.613,jersey_experiment_5_v3,2023.2.2,Win32,84.74576271,,,,,,,,,,,,,,,,341.8036,343.0975,343.0975,343.8035,return,0.1372,,37.5,,,,,,FBP-OG-91.png,0.35,1.2,41,0.5,0,22,22,40,1,,,,,,,,,,,,,,,,,,,,,,,,,,,,,,,,,,,,,,,,
,,,,,V3_082,21,Male,2024-11-21_15h34.09.613,jersey_experiment_5_v3,2023.2.2,Win32,84.74576271,,,,,,,,,,,,,,,,343.8037,345.3565,345.3565,345.9683,return,0.0231,,56.640625,,,,,,FBP-RB-71.png,0.4,1.2,48,0.75,0,23,23,47,1,,,,,,,,,,,,,,,,,,,,,,,,,,,,,,,,,,,,,,,,
,,,,,V3_082,21,Male,2024-11-21_15h34.09.613,jersey_experiment_5_v3,2023.2.2,Win32,84.74576271,,,,,,,,,,,,,,,,345.9685,347.5212,347.5213,348.7565,return,0.706,,52.99479167,,,,,,FBP-RB-91.png,0.37,1.2,57,0.75,0,24,24,56,1,,,,,,,,,,,,,,,,,,,,,,,,,,,,,,,,,,,,,,,,
,,,,,V3_082,21,Male,2024-11-21_15h34.09.613,jersey_experiment_5_v3,2023.2.2,Win32,84.74576271,,,,,,,,,,,,,,,,348.7567,350.3095,350.3095,351.5567,return,0.1262,,33.85416667,,,,,,FBP-PT-91.png,0.35,1.2,26,0.75,0,25,25,25,1,,,,,,,,,,,,,,,,,,,,,,,,,,,,,,,,,,,,,,,,
,,,,,V3_082,21,Male,2024-11-21_15h34.09.613,jersey_experiment_5_v3,2023.2.2,Win32,84.74576271,,,,,,,,,,,,,,,,351.5569,352.8508,352.8508,353.6156,return,0.0005,,39.84375,,,,,,FBP-OG-71.png,0.4,1.2,33,0.5,0,26,26,32,1,,,,,,,,,,,,,,,,,,,,,,,,,,,,,,,,,,,,,,,,
,,,,,V3_082,21,Male,2024-11-21_15h34.09.613,jersey_experiment_5_v3,2023.2.2,Win32,84.74576271,,,,,,,,,,,,,,,,353.6158,355.1685,355.1687,356.2392,return,0.1067,,70.05208333,,,,,,FBP-RB-71.png,0.43,1.2,49,0.75,0,27,27,48,1,,,,,,,,,,,,,,,,,,,,,,,,,,,,,,,,,,,,,,,,
,,,,,V3_082,21,Male,2024-11-21_15h34.09.613,jersey_experiment_5_v3,2023.2.2,Win32,84.74576271,,,,,,,,,,,,,,,,356.2395,357.7922,357.7923,358.8158,return,0.0234,,49.73958333,,,,,,FBP-YG-18.png,0.35,1.2,6,0.75,0,28,28,5,1,,,,,,,,,,,,,,,,,,,,,,,,,,,,,,,,,,,,,,,,
,,,,,V3_082,21,Male,2024-11-21_15h34.09.613,jersey_experiment_5_v3,2023.2.2,Win32,84.74576271,,,,,,,,,,,,,,,,358.816,360.1098,360.1098,361.051,return,0.0436,,45.83333333,,,,,,FBP-OG-91.png,0.37,1.2,42,0.5,0,29,29,41,1,,,,,,,,,,,,,,,,,,,,,,,,,,,,,,,,,,,,,,,,
,,,,,V3_082,21,Male,2024-11-21_15h34.09.613,jersey_experiment_5_v3,2023.2.2,Win32,84.74576271,,,,,,,,,,,,,,,,361.0513,362.3453,362.3453,364.5453,return,1.5549,,68.09895833,,,,,,FBP-OG-91.png,0.43,1.2,44,0.5,0,30,30,43,1,,,,,,,,,,,,,,,,,,,,,,,,,,,,,,,,,,,,,,,,
,,,,,V3_082,21,Male,2024-11-21_15h34.09.613,jersey_experiment_5_v3,2023.2.2,Win32,84.74576271,,,,,,,,,,,,,,,,364.5455,366.0867,366.0868,367.1572,return,0.0345,,42.70833333,,,,,,FBP-PT-91.png,0.37,1.2,27,0.75,0,31,31,26,1,,,,,,,,,,,,,,,,,,,,,,,,,,,,,,,,,,,,,,,,
,,,,,V3_082,21,Male,2024-11-21_15h34.09.613,jersey_experiment_5_v3,2023.2.2,Win32,84.74576271,,,,,,,,,,,,,,,,367.1575,368.7104,368.7104,369.569,return,0.0626,,76.5625,,,,,,FBP-RB-81.png,0.43,1.2,54,0.75,0,32,32,53,1,,,,,,,,,,,,,,,,,,,,,,,,,,,,,,,,,,,,,,,,
,,,,,V3_082,21,Male,2024-11-21_15h34.09.613,jersey_experiment_5_v3,2023.2.2,Win32,84.74576271,,,,,,,,,,,,,,,,369.5692,371.1223,371.1223,372.0045,return,0.1496,,72.13541667,,,,,,FBP-PT-91.png,0.4,1.2,28,0.75,0,33,33,27,1,,,,,,,,,,,,,,,,,,,,,,,,,,,,,,,,,,,,,,,,
,,,,,V3_082,21,Male,2024-11-21_15h34.09.613,jersey_experiment_5_v3,2023.2.2,Win32,84.74576271,,,,,,,,,,,,,,,,372.0047,373.5575,373.5575,375.1576,return,0.0096,,52.08333333,,,,,,FBP-YG-17.png,0.35,1.2,1,0.75,0,34,34,0,1,,,,,,,,,,,,,,,,,,,,,,,,,,,,,,,,,,,,,,,,
,,,,,V3_082,21,Male,2024-11-21_15h34.09.613,jersey_experiment_5_v3,2023.2.2,Win32,84.74576271,,,,,,,,,,,,,,,,375.1579,376.7106,376.7106,377.8281,return,0.118,,69.921875,,,,,,FBP-PT-71.png,0.45,1.2,20,0.75,0,35,35,19,1,,,,,,,,,,,,,,,,,,,,,,,,,,,,,,,,,,,,,,,,
,,,,,V3_082,21,Male,2024-11-21_15h34.09.613,jersey_experiment_5_v3,2023.2.2,Win32,84.74576271,,,,,,,,,,,,,,,,377.8284,379.1224,379.1224,380.0989,return,0.0477,,70.83333333,,,,,,FBP-OG-81.png,0.45,1.2,40,0.5,0,36,36,39,1,,,,,,,,,,,,,,,,,,,,,,,,,,,,,,,,,,,,,,,,
,,,,,V3_082,21,Male,2024-11-21_15h34.09.613,jersey_experiment_5_v3,2023.2.2,Win32,84.74576271,,,,,,,,,,,,,,,,380.0991,381.3932,381.3932,383.4872,return,0.624,,69.921875,,,,,,FBP-OG-71.png,0.37,1.2,32,0.5,0,37,37,31,1,,,,,,,,,,,,,,,,,,,,,,,,,,,,,,,,,,,,,,,,
,,,,,V3_082,21,Male,2024-11-21_15h34.09.613,jersey_experiment_5_v3,2023.2.2,Win32,84.74576271,,,,,,,,,,,,,,,,383.4874,385.04,385.0401,386.0638,return,0.0473,,78.90625,,,,,,FBP-YG-17.png,0.45,1.2,5,0.75,0,38,38,4,1,,,,,,,,,,,,,,,,,,,,,,,,,,,,,,,,,,,,,,,,
,,,,,V3_082,21,Male,2024-11-21_15h34.09.613,jersey_experiment_5_v3,2023.2.2,Win32,84.74576271,,,,,,,,,,,,,,,,386.0641,387.358,387.3581,387.958,return,0.0344,,81.25,,,,,,FBP-OG-71.png,0.45,1.2,35,0.5,0,39,39,34,1,,,,,,,,,,,,,,,,,,,,,,,,,,,,,,,,,,,,,,,,
,,,,,V3_082,21,Male,2024-11-21_15h34.09.613,jersey_experiment_5_v3,2023.2.2,Win32,84.74576271,,,,,,,,,,,,,,,,387.9582,389.5111,389.5111,390.6992,return,0.3729,,54.03645833,,,,,,FBP-PT-81.png,0.37,1.2,22,0.75,0,40,40,21,1,,,,,,,,,,,,,,,,,,,,,,,,,,,,,,,,,,,,,,,,
,,,,,V3_082,21,Male,2024-11-21_15h34.09.613,jersey_experiment_5_v3,2023.2.2,Win32,84.74576271,,,,,,,,,,,,,,,,390.6994,392.2522,392.2522,393.7935,return,0.1747,,49.73958333,,,,,,FBP-PT-71.png,0.35,1.2,16,0.75,0,41,41,15,1,,,,,,,,,,,,,,,,,,,,,,,,,,,,,,,,,,,,,,,,
,,,,,V3_082,21,Male,2024-11-21_15h34.09.613,jersey_experiment_5_v3,2023.2.2,Win32,84.74576271,,,,,,,,,,,,,,,,393.7937,395.3465,395.3465,398.2055,return,1.2177,,55.20833333,,,,,,FBP-PT-81.png,0.4,1.2,23,0.75,0,42,42,22,1,,,,,,,,,,,,,,,,,,,,,,,,,,,,,,,,,,,,,,,,
,,,,,V3_082,21,Male,2024-11-21_15h34.09.613,jersey_experiment_5_v3,2023.2.2,Win32,84.74576271,,,,,,,,,,,,,,,,398.2057,399.7585,399.7585,401.9232,return,1.483,,68.09895833,,,,,,FBP-RB-91.png,0.45,1.2,60,0.75,0,43,43,59,1,,,,,,,,,,,,,,,,,,,,,,,,,,,,,,,,,,,,,,,,
,,,,,V3_082,21,Male,2024-11-21_15h34.09.613,jersey_experiment_5_v3,2023.2.2,Win32,84.74576271,,,,,,,,,,,,,,,,401.9234,403.2174,403.2175,404.0646,return,0.023,,63.28125,,,,,,FBP-OG-81.png,0.43,1.2,39,0.5,0,44,44,38,1,,,,,,,,,,,,,,,,,,,,,,,,,,,,,,,,,,,,,,,,
,,,,,V3_082,21,Male,2024-11-21_15h34.09.613,jersey_experiment_5_v3,2023.2.2,Win32,84.74576271,,,,,,,,,,,,,,,,404.0647,405.6173,405.6173,406.4646,return,0.0938,,45.18229167,,,,,,FBP-YG-18.png,0.4,1.2,8,0.75,0,45,45,7,1,,,,,,,,,,,,,,,,,,,,,,,,,,,,,,,,,,,,,,,,
,,,,,V3_082,21,Male,2024-11-21_15h34.09.613,jersey_experiment_5_v3,2023.2.2,Win32,84.74576271,,,,,,,,,,,,,,,,406.4649,408.0174,408.0174,415.5002,return,0.442,,50,,,,,,FBP-PT-71.png,0.43,1.2,19,0.75,0,46,46,18,1,,,,,,,,,,,,,,,,,,,,,,,,,,,,,,,,,,,,,,,,
,,,,,V3_082,21,Male,2024-11-21_15h34.09.613,jersey_experiment_5_v3,2023.2.2,Win32,84.74576271,,,,,,,,,,,,,,,,415.5005,417.0531,417.0533,419.3003,return,1.0675,,40.36458333,,,,,,FBP-YG-17.png,0.37,1.2,2,0.75,0,47,47,1,1,,,,,,,,,,,,,,,,,,,,,,,,,,,,,,,,,,,,,,,,
,,,,,V3_082,21,Male,2024-11-21_15h34.09.613,jersey_experiment_5_v3,2023.2.2,Win32,84.74576271,,,,,,,,,,,,,,,,419.3006,420.8535,420.8535,422.2417,return,0.3868,,73.828125,,,,,,FBP-YG-18.png,0.43,1.2,9,0.75,0,48,48,8,1,,,,,,,,,,,,,,,,,,,,,,,,,,,,,,,,,,,,,,,,
,,,,,V3_082,21,Male,2024-11-21_15h34.09.613,jersey_experiment_5_v3,2023.2.2,Win32,84.74576271,,,,,,,,,,,,,,,,422.2419,423.7946,423.7947,424.6771,return,0.0966,,76.04166667,,,,,,FBP-PT-81.png,0.43,1.2,24,0.75,0,49,49,23,1,,,,,,,,,,,,,,,,,,,,,,,,,,,,,,,,,,,,,,,,
,,,,,V3_082,21,Male,2024-11-21_15h34.09.613,jersey_experiment_5_v3,2023.2.2,Win32,84.74576271,,,,,,,,,,,,,,,,424.6773,426.2301,426.2302,427.0889,return,0.1993,,30.859375,,,,,,FBP-RB-81.png,0.35,1.2,51,0.75,0,50,50,50,1,,,,,,,,,,,,,,,,,,,,,,,,,,,,,,,,,,,,,,,,
,,,,,V3_082,21,Male,2024-11-21_15h34.09.613,jersey_experiment_5_v3,2023.2.2,Win32,84.74576271,,,,,,,,,,,,,,,,427.089,428.642,428.6421,429.5478,return,0.0428,,63.93229167,,,,,,FBP-RB-91.png,0.43,1.2,59,0.75,0,51,51,58,1,,,,,,,,,,,,,,,,,,,,,,,,,,,,,,,,,,,,,,,,
,,,,,V3_082,21,Male,2024-11-21_15h34.09.613,jersey_experiment_5_v3,2023.2.2,Win32,84.74576271,,,,,,,,,,,,,,,,429.5481,431.1009,431.1009,431.8772,return,0.0367,,88.41145833,,,,,,FBP-PT-81.png,0.45,1.2,25,0.75,0,52,52,24,1,,,,,,,,,,,,,,,,,,,,,,,,,,,,,,,,,,,,,,,,
,,,,,V3_082,21,Male,2024-11-21_15h34.09.613,jersey_experiment_5_v3,2023.2.2,Win32,84.74576271,,,,,,,,,,,,,,,,431.8775,433.1714,433.1714,433.748,return,0.0319,,82.94270833,,,,,,FBP-OG-91.png,0.45,1.2,45,0.5,0,53,53,44,1,,,,,,,,,,,,,,,,,,,,,,,,,,,,,,,,,,,,,,,,
,,,,,V3_082,21,Male,2024-11-21_15h34.09.613,jersey_experiment_5_v3,2023.2.2,Win32,84.74576271,,,,,,,,,,,,,,,,433.7482,435.301,435.3011,436.1481,return,0.0793,,50.65104167,,,,,,FBP-PT-71.png,0.37,1.2,17,0.75,0,54,54,16,1,,,,,,,,,,,,,,,,,,,,,,,,,,,,,,,,,,,,,,,,
,,,,,V3_082,21,Male,2024-11-21_15h34.09.613,jersey_experiment_5_v3,2023.2.2,Win32,84.74576271,,,,,,,,,,,,,,,,436.1483,437.7012,437.7012,438.2777,return,0.1791,,45.703125,,,,,,FBP-YG-19.png,0.37,1.2,12,0.75,0,55,55,11,1,,,,,,,,,,,,,,,,,,,,,,,,,,,,,,,,,,,,,,,,
,,,,,V3_082,21,Male,2024-11-21_15h34.09.613,jersey_experiment_5_v3,2023.2.2,Win32,84.74576271,,,,,,,,,,,,,,,,438.2778,439.8306,439.8307,442.0659,return,0.0627,,72.91666667,,,,,,FBP-RB-81.png,0.45,1.2,55,0.75,0,56,56,54,1,,,,,,,,,,,,,,,,,,,,,,,,,,,,,,,,,,,,,,,,
,,,,,V3_082,21,Male,2024-11-21_15h34.09.613,jersey_experiment_5_v3,2023.2.2,Win32,84.74576271,,,,,,,,,,,,,,,,442.0661,443.3601,443.3601,445.9956,return,0.8669,,63.54166667,,,,,,FBP-OG-91.png,0.4,1.2,43,0.5,0,57,57,42,1,,,,,,,,,,,,,,,,,,,,,,,,,,,,,,,,,,,,,,,,
,,,,,V3_082,21,Male,2024-11-21_15h34.09.613,jersey_experiment_5_v3,2023.2.2,Win32,84.74576271,,,,,,,,,,,,,,,,445.9957,447.2897,447.2897,448.972,return,0.062,,56.90104167,,,,,,FBP-OG-81.png,0.4,1.2,38,0.5,0,58,58,37,1,,,,,,,,,,,,,,,,,,,,,,,,,,,,,,,,,,,,,,,,
,,,,,V3_082,21,Male,2024-11-21_15h34.09.613,jersey_experiment_5_v3,2023.2.2,Win32,84.74576271,,,,,,,,,,,,,,,,448.9723,450.525,450.5251,450.9721,return,0.0157,,58.85416667,,,,,,FBP-RB-91.png,0.4,1.2,58,0.75,0,59,59,57,1,,,,,,,,,,,,,,,,,,,,,,,,,,,,,,,,,,,,,,,,
,,,,,V3_082,21,Male,2024-11-21_15h34.09.613,jersey_experiment_5_v3,2023.2.2,Win32,84.74576271,,,,,,,,,,,,,,,,,,,,,,,,,,,,,,,,,,,,,,,450.9723,570.9651,,,,,,,,,,,,,,,,,,,,,,,,,,,,,,,,,,,,,,
,,,,,V3_082,21,Male,2024-11-21_15h34.09.613,jersey_experiment_5_v3,2023.2.2,Win32,84.74576271,,,,,,,,,,,,,,,,,,,,,,,,,,,,,,,,,,,,,,,,,570.9653,573.4238,return,2.4497,,,,,,,,,,,,,,,,,,,,,,,,,,,,,,,,,,
,,,,,V3_082,21,Male,2024-11-21_15h34.09.613,jersey_experiment_5_v3,2023.2.2,Win32,84.74576271,,,,,,,,,,,,,,,,573.4254,574.7179,574.718,576.5299,return,0.8017,,54.03645833,,,,,,FBP-RB-17.png,0.43,1.2,49,0.5,,,,,,,,,,,,,0,0,0,48,1,,,,,,,,,,,,,,,,,,,,,,,,,,,,
,,,,,V3_082,21,Male,2024-11-21_15h34.09.613,jersey_experiment_5_v3,2023.2.2,Win32,84.74576271,,,,,,,,,,,,,,,,576.5302,577.824,577.8241,579.7416,return,1.0853,,39.0625,,,,,,FBP-PT-19.png,0.37,1.2,27,0.5,,,,,,,,,,,,,0,1,1,26,1,,,,,,,,,,,,,,,,,,,,,,,,,,,,
,,,,,V3_082,21,Male,2024-11-21_15h34.09.613,jersey_experiment_5_v3,2023.2.2,Win32,84.74576271,,,,,,,,,,,,,,,,579.7418,581.036,581.036,582.2594,return,0.1326,,72.39583333,,,,,,FBP-RB-19.png,0.45,1.2,60,0.5,,,,,,,,,,,,,0,2,2,59,1,,,,,,,,,,,,,,,,,,,,,,,,,,,,
,,,,,V3_082,21,Male,2024-11-21_15h34.09.613,jersey_experiment_5_v3,2023.2.2,Win32,84.74576271,,,,,,,,,,,,,,,,582.2596,583.5537,583.5537,584.3536,return,0.0621,,48.30729167,,,,,,FBP-PT-17.png,0.35,1.2,16,0.5,,,,,,,,,,,,,0,3,3,15,1,,,,,,,,,,,,,,,,,,,,,,,,,,,,
,,,,,V3_082,21,Male,2024-11-21_15h34.09.613,jersey_experiment_5_v3,2023.2.2,Win32,84.74576271,,,,,,,,,,,,,,,,584.3539,585.6476,585.6476,586.4478,return,0.086,,57.421875,,,,,,FBP-PT-18.png,0.37,1.2,22,0.5,,,,,,,,,,,,,0,4,4,21,1,,,,,,,,,,,,,,,,,,,,,,,,,,,,
,,,,,V3_082,21,Male,2024-11-21_15h34.09.613,jersey_experiment_5_v3,2023.2.2,Win32,84.74576271,,,,,,,,,,,,,,,,586.448,587.7422,587.7422,588.5419,return,0.0514,,76.5625,,,,,,FBP-YG-71.png,0.43,1.2,4,0.5,,,,,,,,,,,,,0,5,5,3,1,,,,,,,,,,,,,,,,,,,,,,,,,,,,
,,,,,V3_082,21,Male,2024-11-21_15h34.09.613,jersey_experiment_5_v3,2023.2.2,Win32,84.74576271,,,,,,,,,,,,,,,,588.5422,590.095,590.0951,590.4832,return,0.0099,,76.171875,,,,,,FBP-OG-19.png,0.45,1.2,45,0.75,,,,,,,,,,,,,0,6,6,44,1,,,,,,,,,,,,,,,,,,,,,,,,,,,,
,,,,,V3_082,21,Male,2024-11-21_15h34.09.613,jersey_experiment_5_v3,2023.2.2,Win32,84.74576271,,,,,,,,,,,,,,,,590.4835,592.0364,592.0366,592.8481,return,0.0388,,62.63020833,,,,,,FBP-OG-17.png,0.4,1.2,33,0.75,,,,,,,,,,,,,0,7,7,32,1,,,,,,,,,,,,,,,,,,,,,,,,,,,,
,,,,,V3_082,21,Male,2024-11-21_15h34.09.613,jersey_experiment_5_v3,2023.2.2,Win32,84.74576271,,,,,,,,,,,,,,,,592.8484,594.1423,594.1423,594.8483,return,0.0862,,37.76041667,,,,,,FBP-PT-19.png,0.35,1.2,26,0.5,,,,,,,,,,,,,0,8,8,25,1,,,,,,,,,,,,,,,,,,,,,,,,,,,,
,,,,,V3_082,21,Male,2024-11-21_15h34.09.613,jersey_experiment_5_v3,2023.2.2,Win32,84.74576271,,,,,,,,,,,,,,,,594.8485,596.1423,596.1423,597.3659,return,0.1414,,73.4375,,,,,,FBP-PT-19.png,0.43,1.2,29,0.5,,,,,,,,,,,,,0,9,9,28,1,,,,,,,,,,,,,,,,,,,,,,,,,,,,
,,,,,V3_082,21,Male,2024-11-21_15h34.09.613,jersey_experiment_5_v3,2023.2.2,Win32,84.74576271,,,,,,,,,,,,,,,,597.3661,598.6601,598.6601,599.2484,return,0.0486,,80.078125,,,,,,FBP-PT-18.png,0.45,1.2,25,0.5,,,,,,,,,,,,,0,10,10,24,1,,,,,,,,,,,,,,,,,,,,,,,,,,,,
,,,,,V3_082,21,Male,2024-11-21_15h34.09.613,jersey_experiment_5_v3,2023.2.2,Win32,84.74576271,,,,,,,,,,,,,,,,599.2486,600.5424,600.5426,601.366,return,0.037,,47.78645833,,,,,,FBP-YG-81.png,0.35,1.2,6,0.5,,,,,,,,,,,,,0,11,11,5,1,,,,,,,,,,,,,,,,,,,,,,,,,,,,
,,,,,V3_082,21,Male,2024-11-21_15h34.09.613,jersey_experiment_5_v3,2023.2.2,Win32,84.74576271,,,,,,,,,,,,,,,,601.3662,602.6602,602.6603,603.3426,return,0.0959,,53.125,,,,,,FBP-YG-71.png,0.4,1.2,3,0.5,,,,,,,,,,,,,0,12,12,2,1,,,,,,,,,,,,,,,,,,,,,,,,,,,,
,,,,,V3_082,21,Male,2024-11-21_15h34.09.613,jersey_experiment_5_v3,2023.2.2,Win32,84.74576271,,,,,,,,,,,,,,,,603.3428,604.6368,604.6368,605.3425,return,0.145,,60.15625,,,,,,FBP-PT-18.png,0.43,1.2,24,0.5,,,,,,,,,,,,,0,13,13,23,1,,,,,,,,,,,,,,,,,,,,,,,,,,,,
,,,,,V3_082,21,Male,2024-11-21_15h34.09.613,jersey_experiment_5_v3,2023.2.2,Win32,84.74576271,,,,,,,,,,,,,,,,605.3428,606.6368,606.6369,608.0603,return,0.0867,,75.390625,,,,,,FBP-YG-91.png,0.43,1.2,14,0.5,,,,,,,,,,,,,0,14,14,13,1,,,,,,,,,,,,,,,,,,,,,,,,,,,,
,,,,,V3_082,21,Male,2024-11-21_15h34.09.613,jersey_experiment_5_v3,2023.2.2,Win32,84.74576271,,,,,,,,,,,,,,,,608.0606,609.3546,609.3546,610.8017,return,0.7748,,64.97395833,,,,,,FBP-YG-81.png,0.37,1.2,7,0.5,,,,,,,,,,,,,0,15,15,6,1,,,,,,,,,,,,,,,,,,,,,,,,,,,,
,,,,,V3_082,21,Male,2024-11-21_15h34.09.613,jersey_experiment_5_v3,2023.2.2,Win32,84.74576271,,,,,,,,,,,,,,,,610.802,612.0959,612.0959,613.5899,return,0.0087,,58.85416667,,,,,,FBP-YG-91.png,0.37,1.2,12,0.5,,,,,,,,,,,,,0,16,16,11,1,,,,,,,,,,,,,,,,,,,,,,,,,,,,
,,,,,V3_082,21,Male,2024-11-21_15h34.09.613,jersey_experiment_5_v3,2023.2.2,Win32,84.74576271,,,,,,,,,,,,,,,,613.5903,614.8841,614.8842,616.2373,return,0.5591,,50.13020833,,,,,,FBP-RB-18.png,0.35,1.2,51,0.5,,,,,,,,,,,,,0,17,17,50,1,,,,,,,,,,,,,,,,,,,,,,,,,,,,
,,,,,V3_082,21,Male,2024-11-21_15h34.09.613,jersey_experiment_5_v3,2023.2.2,Win32,84.74576271,,,,,,,,,,,,,,,,616.2374,617.5315,617.5315,618.0843,return,0.0101,,60.02604167,,,,,,FBP-PT-18.png,0.4,1.2,23,0.5,,,,,,,,,,,,,0,18,18,22,1,,,,,,,,,,,,,,,,,,,,,,,,,,,,
,,,,,V3_082,21,Male,2024-11-21_15h34.09.613,jersey_experiment_5_v3,2023.2.2,Win32,84.74576271,,,,,,,,,,,,,,,,618.0846,619.6375,619.6375,620.5315,return,0.0553,,45.96354167,,,,,,FBP-OG-18.png,0.37,1.2,37,0.75,,,,,,,,,,,,,0,19,19,36,1,,,,,,,,,,,,,,,,,,,,,,,,,,,,
,,,,,V3_082,21,Male,2024-11-21_15h34.09.613,jersey_experiment_5_v3,2023.2.2,Win32,84.74576271,,,,,,,,,,,,,,,,620.5317,621.8257,621.8257,622.7081,return,0.2033,,67.70833333,,,,,,FBP-YG-71.png,0.45,1.2,5,0.5,,,,,,,,,,,,,0,20,20,4,1,,,,,,,,,,,,,,,,,,,,,,,,,,,,
,,,,,V3_082,21,Male,2024-11-21_15h34.09.613,jersey_experiment_5_v3,2023.2.2,Win32,84.74576271,,,,,,,,,,,,,,,,622.7083,624.0023,624.0023,626.0493,return,0.1876,,49.609375,,,,,,FBP-PT-17.png,0.4,1.2,18,0.5,,,,,,,,,,,,,0,21,21,17,1,,,,,,,,,,,,,,,,,,,,,,,,,,,,
,,,,,V3_082,21,Male,2024-11-21_15h34.09.613,jersey_experiment_5_v3,2023.2.2,Win32,84.74576271,,,,,,,,,,,,,,,,626.0496,627.3435,627.3435,628.0611,return,0.038,,47.265625,,,,,,FBP-RB-19.png,0.35,1.2,56,0.5,,,,,,,,,,,,,0,22,22,55,1,,,,,,,,,,,,,,,,,,,,,,,,,,,,
,,,,,V3_082,21,Male,2024-11-21_15h34.09.613,jersey_experiment_5_v3,2023.2.2,Win32,84.74576271,,,,,,,,,,,,,,,,628.0614,629.3552,629.3553,631.1555,return,0.5657,,64.453125,,,,,,FBP-RB-19.png,0.43,1.2,59,0.5,,,,,,,,,,,,,0,23,23,58,1,,,,,,,,,,,,,,,,,,,,,,,,,,,,
,,,,,V3_082,21,Male,2024-11-21_15h34.09.613,jersey_experiment_5_v3,2023.2.2,Win32,84.74576271,,,,,,,,,,,,,,,,631.1558,632.4495,632.4497,633.6496,return,0.0135,,64.19270833,,,,,,FBP-PT-19.png,0.45,1.2,30,0.5,,,,,,,,,,,,,0,24,24,29,1,,,,,,,,,,,,,,,,,,,,,,,,,,,,
,,,,,V3_082,21,Male,2024-11-21_15h34.09.613,jersey_experiment_5_v3,2023.2.2,Win32,84.74576271,,,,,,,,,,,,,,,,633.6499,634.9439,634.9439,635.6614,return,0.0854,,66.40625,,,,,,FBP-YG-91.png,0.4,1.2,13,0.5,,,,,,,,,,,,,0,25,25,12,1,,,,,,,,,,,,,,,,,,,,,,,,,,,,
,,,,,V3_082,21,Male,2024-11-21_15h34.09.613,jersey_experiment_5_v3,2023.2.2,Win32,84.74576271,,,,,,,,,,,,,,,,635.6616,636.9557,636.9559,639.2851,return,0.3532,,59.765625,,,,,,FBP-PT-18.png,0.35,1.2,21,0.5,,,,,,,,,,,,,0,26,26,20,1,,,,,,,,,,,,,,,,,,,,,,,,,,,,
,,,,,V3_082,21,Male,2024-11-21_15h34.09.613,jersey_experiment_5_v3,2023.2.2,Win32,84.74576271,,,,,,,,,,,,,,,,639.2853,640.8382,640.8383,641.7558,return,0.0153,,57.421875,,,,,,FBP-OG-19.png,0.37,1.2,42,0.75,,,,,,,,,,,,,0,27,27,41,1,,,,,,,,,,,,,,,,,,,,,,,,,,,,
,,,,,V3_082,21,Male,2024-11-21_15h34.09.613,jersey_experiment_5_v3,2023.2.2,Win32,84.74576271,,,,,,,,,,,,,,,,641.7561,643.3089,643.309,644.3795,return,0.4523,,74.73958333,,,,,,FBP-OG-17.png,0.45,1.2,35,0.75,,,,,,,,,,,,,0,28,28,34,1,,,,,,,,,,,,,,,,,,,,,,,,,,,,
,,,,,V3_082,21,Male,2024-11-21_15h34.09.613,jersey_experiment_5_v3,2023.2.2,Win32,84.74576271,,,,,,,,,,,,,,,,644.3798,645.6736,645.6736,646.9914,return,0.2748,,72.91666667,,,,,,FBP-RB-19.png,0.4,1.2,58,0.5,,,,,,,,,,,,,0,29,29,57,1,,,,,,,,,,,,,,,,,,,,,,,,,,,,
,,,,,V3_082,21,Male,2024-11-21_15h34.09.613,jersey_experiment_5_v3,2023.2.2,Win32,84.74576271,,,,,,,,,,,,,,,,646.9916,648.5443,648.5444,649.9797,return,0.0774,,75.26041667,,,,,,FBP-OG-18.png,0.45,1.2,40,0.75,,,,,,,,,,,,,0,30,30,39,1,,,,,,,,,,,,,,,,,,,,,,,,,,,,
,,,,,V3_082,21,Male,2024-11-21_15h34.09.613,jersey_experiment_5_v3,2023.2.2,Win32,84.74576271,,,,,,,,,,,,,,,,649.9799,651.2739,651.2739,652.5091,return,0.1093,,71.22395833,,,,,,FBP-RB-18.png,0.37,1.2,52,0.5,,,,,,,,,,,,,0,31,31,51,1,,,,,,,,,,,,,,,,,,,,,,,,,,,,
,,,,,V3_082,21,Male,2024-11-21_15h34.09.613,jersey_experiment_5_v3,2023.2.2,Win32,84.74576271,,,,,,,,,,,,,,,,652.5094,653.8031,653.8032,654.9446,return,0.1328,,46.74479167,,,,,,FBP-YG-71.png,0.35,1.2,1,0.5,,,,,,,,,,,,,0,32,32,0,1,,,,,,,,,,,,,,,,,,,,,,,,,,,,
,,,,,V3_082,21,Male,2024-11-21_15h34.09.613,jersey_experiment_5_v3,2023.2.2,Win32,84.74576271,,,,,,,,,,,,,,,,654.9448,656.2389,656.2389,661.6154,return,0.2502,,47.65625,,,,,,FBP-RB-18.png,0.43,1.2,54,0.5,,,,,,,,,,,,,0,33,33,53,1,,,,,,,,,,,,,,,,,,,,,,,,,,,,
,,,,,V3_082,21,Male,2024-11-21_15h34.09.613,jersey_experiment_5_v3,2023.2.2,Win32,84.74576271,,,,,,,,,,,,,,,,661.6156,662.9097,662.9098,664.1094,return,0.1814,,78.64583333,,,,,,FBP-YG-81.png,0.45,1.2,10,0.5,,,,,,,,,,,,,0,34,34,9,1,,,,,,,,,,,,,,,,,,,,,,,,,,,,
,,,,,V3_082,21,Male,2024-11-21_15h34.09.613,jersey_experiment_5_v3,2023.2.2,Win32,84.74576271,,,,,,,,,,,,,,,,664.1097,665.6625,665.6626,666.4155,return,0.0274,,72.00520833,,,,,,FBP-OG-18.png,0.43,1.2,39,0.75,,,,,,,,,,,,,0,35,35,38,1,,,,,,,,,,,,,,,,,,,,,,,,,,,,
,,,,,V3_082,21,Male,2024-11-21_15h34.09.613,jersey_experiment_5_v3,2023.2.2,Win32,84.74576271,,,,,,,,,,,,,,,,666.4159,667.9684,667.9685,669.4039,return,0.0395,,75.52083333,,,,,,FBP-OG-19.png,0.43,1.2,44,0.75,,,,,,,,,,,,,0,36,36,43,1,,,,,,,,,,,,,,,,,,,,,,,,,,,,
,,,,,V3_082,21,Male,2024-11-21_15h34.09.613,jersey_experiment_5_v3,2023.2.2,Win32,84.74576271,,,,,,,,,,,,,,,,669.4042,670.9571,670.9571,673.5569,return,1.6013,,34.375,,,,,,FBP-OG-18.png,0.35,1.2,36,0.75,,,,,,,,,,,,,0,37,37,35,1,,,,,,,,,,,,,,,,,,,,,,,,,,,,
,,,,,V3_082,21,Male,2024-11-21_15h34.09.613,jersey_experiment_5_v3,2023.2.2,Win32,84.74576271,,,,,,,,,,,,,,,,673.5572,675.11,675.11,675.6042,return,0.0005,,32.8125,,,,,,FBP-OG-19.png,0.35,1.2,41,0.75,,,,,,,,,,,,,0,38,38,40,1,,,,,,,,,,,,,,,,,,,,,,,,,,,,
,,,,,V3_082,21,Male,2024-11-21_15h34.09.613,jersey_experiment_5_v3,2023.2.2,Win32,84.74576271,,,,,,,,,,,,,,,,675.6044,676.8983,676.8984,677.7572,return,0.2268,,33.984375,,,,,,FBP-PT-17.png,0.37,1.2,17,0.5,,,,,,,,,,,,,0,39,39,16,1,,,,,,,,,,,,,,,,,,,,,,,,,,,,
,,,,,V3_082,21,Male,2024-11-21_15h34.09.613,jersey_experiment_5_v3,2023.2.2,Win32,84.74576271,,,,,,,,,,,,,,,,677.7575,679.0513,679.0514,681.0043,return,0.9253,,59.24479167,,,,,,FBP-RB-17.png,0.4,1.2,48,0.5,,,,,,,,,,,,,0,40,40,47,1,,,,,,,,,,,,,,,,,,,,,,,,,,,,
,,,,,V3_082,21,Male,2024-11-21_15h34.09.613,jersey_experiment_5_v3,2023.2.2,Win32,84.74576271,,,,,,,,,,,,,,,,681.0046,682.2984,682.2984,686.3692,return,2.5671,,48.17708333,,,,,,FBP-YG-71.png,0.37,1.2,2,0.5,,,,,,,,,,,,,0,41,41,1,1,,,,,,,,,,,,,,,,,,,,,,,,,,,,
,,,,,V3_082,21,Male,2024-11-21_15h34.09.613,jersey_experiment_5_v3,2023.2.2,Win32,84.74576271,,,,,,,,,,,,,,,,686.3695,687.6634,687.6634,688.6753,return,0.1175,,82.16145833,,,,,,FBP-RB-17.png,0.45,1.2,50,0.5,,,,,,,,,,,,,0,42,42,49,1,,,,,,,,,,,,,,,,,,,,,,,,,,,,
,,,,,V3_082,21,Male,2024-11-21_15h34.09.613,jersey_experiment_5_v3,2023.2.2,Win32,84.74576271,,,,,,,,,,,,,,,,688.6755,689.9694,689.9694,691.4283,return,0.0561,,49.609375,,,,,,FBP-YG-91.png,0.35,1.2,11,0.5,,,,,,,,,,,,,0,43,43,10,1,,,,,,,,,,,,,,,,,,,,,,,,,,,,
,,,,,V3_082,21,Male,2024-11-21_15h34.09.613,jersey_experiment_5_v3,2023.2.2,Win32,84.74576271,,,,,,,,,,,,,,,,691.4286,692.7225,692.7226,693.6519,return,0.0211,,79.94791667,,,,,,FBP-YG-81.png,0.43,1.2,9,0.5,,,,,,,,,,,,,0,44,44,8,1,,,,,,,,,,,,,,,,,,,,,,,,,,,,
,,,,,V3_082,21,Male,2024-11-21_15h34.09.613,jersey_experiment_5_v3,2023.2.2,Win32,84.74576271,,,,,,,,,,,,,,,,693.6521,694.946,694.946,696.1813,return,0.4083,,86.97916667,,,,,,FBP-YG-91.png,0.45,1.2,15,0.5,,,,,,,,,,,,,0,45,45,14,1,,,,,,,,,,,,,,,,,,,,,,,,,,,,
,,,,,V3_082,21,Male,2024-11-21_15h34.09.613,jersey_experiment_5_v3,2023.2.2,Win32,84.74576271,,,,,,,,,,,,,,,,696.1816,697.4755,697.4756,698.3697,return,0.0255,,83.33333333,,,,,,FBP-RB-18.png,0.45,1.2,55,0.5,,,,,,,,,,,,,0,46,46,54,1,,,,,,,,,,,,,,,,,,,,,,,,,,,,
,,,,,V3_082,21,Male,2024-11-21_15h34.09.613,jersey_experiment_5_v3,2023.2.2,Win32,84.74576271,,,,,,,,,,,,,,,,698.37,699.664,699.6641,701.3934,return,0.0943,,48.828125,,,,,,FBP-PT-17.png,0.43,1.2,19,0.5,,,,,,,,,,,,,0,47,47,18,1,,,,,,,,,,,,,,,,,,,,,,,,,,,,
,,,,,V3_082,21,Male,2024-11-21_15h34.09.613,jersey_experiment_5_v3,2023.2.2,Win32,84.74576271,,,,,,,,,,,,,,,,701.3936,702.6875,702.6875,703.7582,return,0.0054,,58.203125,,,,,,FBP-RB-18.png,0.4,1.2,53,0.5,,,,,,,,,,,,,0,48,48,52,1,,,,,,,,,,,,,,,,,,,,,,,,,,,,
,,,,,V3_082,21,Male,2024-11-21_15h34.09.613,jersey_experiment_5_v3,2023.2.2,Win32,84.74576271,,,,,,,,,,,,,,,,703.7584,705.3112,705.3113,705.8289,return,0.1895,,58.203125,,,,,,FBP-OG-19.png,0.4,1.2,43,0.75,,,,,,,,,,,,,0,49,49,42,1,,,,,,,,,,,,,,,,,,,,,,,,,,,,
,,,,,V3_082,21,Male,2024-11-21_15h34.09.613,jersey_experiment_5_v3,2023.2.2,Win32,84.74576271,,,,,,,,,,,,,,,,705.8291,707.3819,707.382,707.9584,return,0.0247,,42.83854167,,,,,,FBP-OG-17.png,0.37,1.2,32,0.75,,,,,,,,,,,,,0,50,50,31,1,,,,,,,,,,,,,,,,,,,,,,,,,,,,
,,,,,V3_082,21,Male,2024-11-21_15h34.09.613,jersey_experiment_5_v3,2023.2.2,Win32,84.74576271,,,,,,,,,,,,,,,,707.9587,709.2524,709.2524,710.6054,return,0.5005,,58.46354167,,,,,,FBP-PT-19.png,0.4,1.2,28,0.5,,,,,,,,,,,,,0,51,51,27,1,,,,,,,,,,,,,,,,,,,,,,,,,,,,
,,,,,V3_082,21,Male,2024-11-21_15h34.09.613,jersey_experiment_5_v3,2023.2.2,Win32,84.74576271,,,,,,,,,,,,,,,,710.6057,711.8996,711.8996,713.6762,return,0.1691,,73.56770833,,,,,,FBP-PT-17.png,0.45,1.2,20,0.5,,,,,,,,,,,,,0,52,52,19,1,,,,,,,,,,,,,,,,,,,,,,,,,,,,
,,,,,V3_082,21,Male,2024-11-21_15h34.09.613,jersey_experiment_5_v3,2023.2.2,Win32,84.74576271,,,,,,,,,,,,,,,,713.6765,715.2294,715.2294,716.6527,return,0.148,,36.84895833,,,,,,FBP-OG-18.png,0.4,1.2,38,0.75,,,,,,,,,,,,,0,53,53,37,1,,,,,,,,,,,,,,,,,,,,,,,,,,,,
,,,,,V3_082,21,Male,2024-11-21_15h34.09.613,jersey_experiment_5_v3,2023.2.2,Win32,84.74576271,,,,,,,,,,,,,,,,716.653,717.9469,717.947,720.1588,return,0.0755,,51.171875,,,,,,FBP-RB-19.png,0.37,1.2,57,0.5,,,,,,,,,,,,,0,54,54,56,1,,,,,,,,,,,,,,,,,,,,,,,,,,,,
,,,,,V3_082,21,Male,2024-11-21_15h34.09.613,jersey_experiment_5_v3,2023.2.2,Win32,84.74576271,,,,,,,,,,,,,,,,720.1589,721.4528,721.4529,722.253,return,0.1328,,58.33333333,,,,,,FBP-YG-81.png,0.4,1.2,8,0.5,,,,,,,,,,,,,0,55,55,7,1,,,,,,,,,,,,,,,,,,,,,,,,,,,,
,,,,,V3_082,21,Male,2024-11-21_15h34.09.613,jersey_experiment_5_v3,2023.2.2,Win32,84.74576271,,,,,,,,,,,,,,,,722.2532,723.8061,723.8061,724.5589,return,0.0754,,37.23958333,,,,,,FBP-OG-17.png,0.35,1.2,31,0.75,,,,,,,,,,,,,0,56,56,30,1,,,,,,,,,,,,,,,,,,,,,,,,,,,,
,,,,,V3_082,21,Male,2024-11-21_15h34.09.613,jersey_experiment_5_v3,2023.2.2,Win32,84.74576271,,,,,,,,,,,,,,,,724.5592,725.8531,725.8532,727.5003,return,0.0547,,46.09375,,,,,,FBP-RB-17.png,0.37,1.2,47,0.5,,,,,,,,,,,,,0,57,57,46,1,,,,,,,,,,,,,,,,,,,,,,,,,,,,
,,,,,V3_082,21,Male,2024-11-21_15h34.09.613,jersey_experiment_5_v3,2023.2.2,Win32,84.74576271,,,,,,,,,,,,,,,,727.5005,728.7943,728.7944,729.4416,return,0.0623,,46.09375,,,,,,FBP-RB-17.png,0.35,1.2,46,0.5,,,,,,,,,,,,,0,58,58,45,1,,,,,,,,,,,,,,,,,,,,,,,,,,,,
,,,,,V3_082,21,Male,2024-11-21_15h34.09.613,jersey_experiment_5_v3,2023.2.2,Win32,84.74576271,,,,,,,,,,,,,,,,729.4418,730.9946,730.9946,732.1593,return,0.2007,,60.67708333,,,,,,FBP-OG-17.png,0.43,1.2,34,0.75,,,,,,,,,,,,,0,59,59,33,1,,,,,,,,,,,,,,,,,,,,,,,,,,,,
,,,,,V3_082,21,Male,2024-11-21_15h34.09.613,jersey_experiment_5_v3,2023.2.2,Win32,84.74576271,,,,,,,,,,,,,,,,732.1607,733.7123,733.7123,734.5594,return,0.0043,,51.5625,,,,,,FBP-OG-91.png,0.35,1.2,41,0.75,,,,,,,,,,,,,,,,,,0,0,0,40,1,,,,,,,,,,,,,,,,,,,,,,,
,,,,,V3_082,21,Male,2024-11-21_15h34.09.613,jersey_experiment_5_v3,2023.2.2,Win32,84.74576271,,,,,,,,,,,,,,,,734.5598,735.8535,735.8535,737.7946,return,0.3528,,61.71875,,,,,,FBP-PT-91.png,0.43,1.2,29,0.5,,,,,,,,,,,,,,,,,,0,1,1,28,1,,,,,,,,,,,,,,,,,,,,,,,
,,,,,V3_082,21,Male,2024-11-21_15h34.09.613,jersey_experiment_5_v3,2023.2.2,Win32,84.74576271,,,,,,,,,,,,,,,,737.7948,739.0889,739.0889,743.9244,return,3.1773,,46.61458333,,,,,,FBP-PT-81.png,0.35,1.2,21,0.5,,,,,,,,,,,,,,,,,,0,2,2,20,1,,,,,,,,,,,,,,,,,,,,,,,
,,,,,V3_082,21,Male,2024-11-21_15h34.09.613,jersey_experiment_5_v3,2023.2.2,Win32,84.74576271,,,,,,,,,,,,,,,,743.9247,745.4774,745.4774,746.2892,return,0.049,,53.77604167,,,,,,FBP-OG-91.png,0.37,1.2,42,0.75,,,,,,,,,,,,,,,,,,0,3,3,41,1,,,,,,,,,,,,,,,,,,,,,,,
,,,,,V3_082,21,Male,2024-11-21_15h34.09.613,jersey_experiment_5_v3,2023.2.2,Win32,84.74576271,,,,,,,,,,,,,,,,746.2893,747.5832,747.5833,748.3833,return,0.1197,,70.96354167,,,,,,FBP-PT-71.png,0.43,1.2,19,0.5,,,,,,,,,,,,,,,,,,0,4,4,18,1,,,,,,,,,,,,,,,,,,,,,,,
,,,,,V3_082,21,Male,2024-11-21_15h34.09.613,jersey_experiment_5_v3,2023.2.2,Win32,84.74576271,,,,,,,,,,,,,,,,748.3836,749.9365,749.9366,750.5129,return,0.0137,,74.609375,,,,,,FBP-OG-81.png,0.45,1.2,40,0.75,,,,,,,,,,,,,,,,,,0,5,5,39,1,,,,,,,,,,,,,,,,,,,,,,,
,,,,,V3_082,21,Male,2024-11-21_15h34.09.613,jersey_experiment_5_v3,2023.2.2,Win32,84.74576271,,,,,,,,,,,,,,,,750.5131,751.807,751.807,752.4188,return,0.0325,,77.60416667,,,,,,FBP-RB-71.png,0.45,1.2,50,0.5,,,,,,,,,,,,,,,,,,0,6,6,49,1,,,,,,,,,,,,,,,,,,,,,,,
,,,,,V3_082,21,Male,2024-11-21_15h34.09.613,jersey_experiment_5_v3,2023.2.2,Win32,84.74576271,,,,,,,,,,,,,,,,752.4191,753.9719,753.9719,755.0778,return,0.5183,,62.890625,,,,,,FBP-OG-91.png,0.43,1.2,44,0.75,,,,,,,,,,,,,,,,,,0,7,7,43,1,,,,,,,,,,,,,,,,,,,,,,,
,,,,,V3_082,21,Male,2024-11-21_15h34.09.613,jersey_experiment_5_v3,2023.2.2,Win32,84.74576271,,,,,,,,,,,,,,,,755.078,756.3719,756.3719,757.4424,return,0.1328,,75.91145833,,,,,,FBP-YG-19.png,0.45,1.2,15,0.5,,,,,,,,,,,,,,,,,,0,8,8,14,1,,,,,,,,,,,,,,,,,,,,,,,
,,,,,V3_082,21,Male,2024-11-21_15h34.09.613,jersey_experiment_5_v3,2023.2.2,Win32,84.74576271,,,,,,,,,,,,,,,,757.4427,758.7367,758.7367,759.7486,return,0.1421,,76.953125,,,,,,FBP-RB-81.png,0.45,1.2,55,0.5,,,,,,,,,,,,,,,,,,0,9,9,54,1,,,,,,,,,,,,,,,,,,,,,,,
,,,,,V3_082,21,Male,2024-11-21_15h34.09.613,jersey_experiment_5_v3,2023.2.2,Win32,84.74576271,,,,,,,,,,,,,,,,759.7488,761.0426,761.0426,761.8074,return,0.075,,63.02083333,,,,,,FBP-RB-81.png,0.4,1.2,53,0.5,,,,,,,,,,,,,,,,,,0,10,10,52,1,,,,,,,,,,,,,,,,,,,,,,,
,,,,,V3_082,21,Male,2024-11-21_15h34.09.613,jersey_experiment_5_v3,2023.2.2,Win32,84.74576271,,,,,,,,,,,,,,,,761.8077,763.3604,763.3605,764.478,return,0.1113,,51.171875,,,,,,FBP-OG-81.png,0.37,1.2,37,0.75,,,,,,,,,,,,,,,,,,0,11,11,36,1,,,,,,,,,,,,,,,,,,,,,,,
,,,,,V3_082,21,Male,2024-11-21_15h34.09.613,jersey_experiment_5_v3,2023.2.2,Win32,84.74576271,,,,,,,,,,,,,,,,764.4783,765.7723,765.7724,766.4664,return,0.0486,,48.56770833,,,,,,FBP-PT-91.png,0.37,1.2,27,0.5,,,,,,,,,,,,,,,,,,0,12,12,26,1,,,,,,,,,,,,,,,,,,,,,,,
,,,,,V3_082,21,Male,2024-11-21_15h34.09.613,jersey_experiment_5_v3,2023.2.2,Win32,84.74576271,,,,,,,,,,,,,,,,766.4666,767.7606,767.7606,769.3136,return,0.1278,,55.72916667,,,,,,FBP-YG-17.png,0.4,1.2,3,0.5,,,,,,,,,,,,,,,,,,0,13,13,2,1,,,,,,,,,,,,,,,,,,,,,,,
,,,,,V3_082,21,Male,2024-11-21_15h34.09.613,jersey_experiment_5_v3,2023.2.2,Win32,84.74576271,,,,,,,,,,,,,,,,769.3138,770.6077,770.6077,771.5372,return,0.0626,,73.30729167,,,,,,FBP-YG-17.png,0.43,1.2,4,0.5,,,,,,,,,,,,,,,,,,0,14,14,3,1,,,,,,,,,,,,,,,,,,,,,,,
,,,,,V3_082,21,Male,2024-11-21_15h34.09.613,jersey_experiment_5_v3,2023.2.2,Win32,84.74576271,,,,,,,,,,,,,,,,771.5374,772.8314,772.8315,774.5726,return,0.0188,,52.734375,,,,,,FBP-YG-17.png,0.37,1.2,2,0.5,,,,,,,,,,,,,,,,,,0,15,15,1,1,,,,,,,,,,,,,,,,,,,,,,,
,,,,,V3_082,21,Male,2024-11-21_15h34.09.613,jersey_experiment_5_v3,2023.2.2,Win32,84.74576271,,,,,,,,,,,,,,,,774.5729,775.8667,775.8668,776.5138,return,0.0021,,58.46354167,,,,,,FBP-YG-18.png,0.4,1.2,8,0.5,,,,,,,,,,,,,,,,,,0,16,16,7,1,,,,,,,,,,,,,,,,,,,,,,,
,,,,,V3_082,21,Male,2024-11-21_15h34.09.613,jersey_experiment_5_v3,2023.2.2,Win32,84.74576271,,,,,,,,,,,,,,,,776.514,777.808,777.808,778.8669,return,0.2831,,42.96875,,,,,,FBP-PT-91.png,0.35,1.2,26,0.5,,,,,,,,,,,,,,,,,,0,17,17,25,1,,,,,,,,,,,,,,,,,,,,,,,
,,,,,V3_082,21,Male,2024-11-21_15h34.09.613,jersey_experiment_5_v3,2023.2.2,Win32,84.74576271,,,,,,,,,,,,,,,,778.8671,780.1611,780.1611,781.5847,return,0.0147,,48.56770833,,,,,,FBP-RB-71.png,0.43,1.2,49,0.5,,,,,,,,,,,,,,,,,,0,18,18,48,1,,,,,,,,,,,,,,,,,,,,,,,
,,,,,V3_082,21,Male,2024-11-21_15h34.09.613,jersey_experiment_5_v3,2023.2.2,Win32,84.74576271,,,,,,,,,,,,,,,,781.5849,783.1378,783.1378,785.02,return,1.2899,,61.71875,,,,,,FBP-OG-81.png,0.4,1.2,38,0.75,,,,,,,,,,,,,,,,,,0,19,19,37,1,,,,,,,,,,,,,,,,,,,,,,,
,,,,,V3_082,21,Male,2024-11-21_15h34.09.613,jersey_experiment_5_v3,2023.2.2,Win32,84.74576271,,,,,,,,,,,,,,,,785.0202,786.3143,786.3143,787.1966,return,0.0393,,79.296875,,,,,,FBP-RB-91.png,0.45,1.2,60,0.5,,,,,,,,,,,,,,,,,,0,20,20,59,1,,,,,,,,,,,,,,,,,,,,,,,
,,,,,V3_082,21,Male,2024-11-21_15h34.09.613,jersey_experiment_5_v3,2023.2.2,Win32,84.74576271,,,,,,,,,,,,,,,,787.1968,788.7495,788.7496,789.6792,return,0.1662,,73.69791667,,,,,,FBP-OG-91.png,0.45,1.2,45,0.75,,,,,,,,,,,,,,,,,,0,21,21,44,1,,,,,,,,,,,,,,,,,,,,,,,
,,,,,V3_082,21,Male,2024-11-21_15h34.09.613,jersey_experiment_5_v3,2023.2.2,Win32,84.74576271,,,,,,,,,,,,,,,,789.6793,790.9732,790.9733,792.7497,return,0.039,,52.21354167,,,,,,FBP-RB-91.png,0.37,1.2,57,0.5,,,,,,,,,,,,,,,,,,0,22,22,56,1,,,,,,,,,,,,,,,,,,,,,,,
,,,,,V3_082,21,Male,2024-11-21_15h34.09.613,jersey_experiment_5_v3,2023.2.2,Win32,84.74576271,,,,,,,,,,,,,,,,792.7499,794.044,794.0441,794.7028,return,0.0049,,41.015625,,,,,,FBP-YG-19.png,0.35,1.2,11,0.5,,,,,,,,,,,,,,,,,,0,23,23,10,1,,,,,,,,,,,,,,,,,,,,,,,
,,,,,V3_082,21,Male,2024-11-21_15h34.09.613,jersey_experiment_5_v3,2023.2.2,Win32,84.74576271,,,,,,,,,,,,,,,,794.703,795.9969,795.997,797.9854,return,0.1644,,62.109375,,,,,,FBP-PT-91.png,0.4,1.2,28,0.5,,,,,,,,,,,,,,,,,,0,24,24,27,1,,,,,,,,,,,,,,,,,,,,,,,
,,,,,V3_082,21,Male,2024-11-21_15h34.09.613,jersey_experiment_5_v3,2023.2.2,Win32,84.74576271,,,,,,,,,,,,,,,,797.9856,799.2795,799.2796,805.4915,return,0.5095,,51.5625,,,,,,FBP-PT-71.png,0.45,1.2,20,0.5,,,,,,,,,,,,,,,,,,0,25,25,19,1,,,,,,,,,,,,,,,,,,,,,,,
,,,,,V3_082,21,Male,2024-11-21_15h34.09.613,jersey_experiment_5_v3,2023.2.2,Win32,84.74576271,,,,,,,,,,,,,,,,805.4918,807.0446,807.0446,807.7269,return,0.0008,,40.75520833,,,,,,FBP-OG-71.png,0.35,1.2,31,0.75,,,,,,,,,,,,,,,,,,0,26,26,30,1,,,,,,,,,,,,,,,,,,,,,,,
,,,,,V3_082,21,Male,2024-11-21_15h34.09.613,jersey_experiment_5_v3,2023.2.2,Win32,84.74576271,,,,,,,,,,,,,,,,807.7272,809.28,809.28,810.1269,return,0.002,,64.71354167,,,,,,FBP-OG-91.png,0.4,1.2,43,0.75,,,,,,,,,,,,,,,,,,0,27,27,42,1,,,,,,,,,,,,,,,,,,,,,,,
,,,,,V3_082,21,Male,2024-11-21_15h34.09.613,jersey_experiment_5_v3,2023.2.2,Win32,84.74576271,,,,,,,,,,,,,,,,810.1272,811.4212,811.4212,815.28,return,2.2594,,49.34895833,,,,,,FBP-PT-81.png,0.37,1.2,22,0.5,,,,,,,,,,,,,,,,,,0,28,28,21,1,,,,,,,,,,,,,,,,,,,,,,,
,,,,,V3_082,21,Male,2024-11-21_15h34.09.613,jersey_experiment_5_v3,2023.2.2,Win32,84.74576271,,,,,,,,,,,,,,,,815.2803,816.5741,816.5742,818.0332,return,0.4863,,48.828125,,,,,,FBP-RB-91.png,0.35,1.2,56,0.5,,,,,,,,,,,,,,,,,,0,29,29,55,1,,,,,,,,,,,,,,,,,,,,,,,
,,,,,V3_082,21,Male,2024-11-21_15h34.09.613,jersey_experiment_5_v3,2023.2.2,Win32,84.74576271,,,,,,,,,,,,,,,,818.0334,819.3273,819.3273,826.6452,return,0.7301,,48.30729167,,,,,,FBP-YG-18.png,0.43,1.2,9,0.5,,,,,,,,,,,,,,,,,,0,30,30,8,1,,,,,,,,,,,,,,,,,,,,,,,
,,,,,V3_082,21,Male,2024-11-21_15h34.09.613,jersey_experiment_5_v3,2023.2.2,Win32,84.74576271,,,,,,,,,,,,,,,,826.6455,827.9394,827.9394,828.657,return,0.0583,,62.23958333,,,,,,FBP-YG-19.png,0.4,1.2,13,0.5,,,,,,,,,,,,,,,,,,0,31,31,12,1,,,,,,,,,,,,,,,,,,,,,,,
,,,,,V3_082,21,Male,2024-11-21_15h34.09.613,jersey_experiment_5_v3,2023.2.2,Win32,84.74576271,,,,,,,,,,,,,,,,828.6572,829.9512,829.9512,831.0453,return,0.0235,,53.64583333,,,,,,FBP-RB-81.png,0.35,1.2,51,0.5,,,,,,,,,,,,,,,,,,0,32,32,50,1,,,,,,,,,,,,,,,,,,,,,,,
,,,,,V3_082,21,Male,2024-11-21_15h34.09.613,jersey_experiment_5_v3,2023.2.2,Win32,84.74576271,,,,,,,,,,,,,,,,831.0455,832.3394,832.3395,832.9984,return,0.0936,,56.51041667,,,,,,FBP-YG-18.png,0.35,1.2,6,0.5,,,,,,,,,,,,,,,,,,0,33,33,5,1,,,,,,,,,,,,,,,,,,,,,,,
,,,,,V3_082,21,Male,2024-11-21_15h34.09.613,jersey_experiment_5_v3,2023.2.2,Win32,84.74576271,,,,,,,,,,,,,,,,832.9987,834.2926,834.2926,835.4925,return,0.413,,91.92708333,,,,,,FBP-PT-81.png,0.45,1.2,25,0.5,,,,,,,,,,,,,,,,,,0,34,34,24,1,,,,,,,,,,,,,,,,,,,,,,,
,,,,,V3_082,21,Male,2024-11-21_15h34.09.613,jersey_experiment_5_v3,2023.2.2,Win32,84.74576271,,,,,,,,,,,,,,,,835.4927,836.7867,836.7867,837.9869,return,0.1798,,75.65104167,,,,,,FBP-PT-81.png,0.4,1.2,23,0.5,,,,,,,,,,,,,,,,,,0,35,35,22,1,,,,,,,,,,,,,,,,,,,,,,,
,,,,,V3_082,21,Male,2024-11-21_15h34.09.613,jersey_experiment_5_v3,2023.2.2,Win32,84.74576271,,,,,,,,,,,,,,,,837.9871,839.2809,839.281,840.6693,return,0.0506,,66.53645833,,,,,,FBP-RB-81.png,0.43,1.2,54,0.5,,,,,,,,,,,,,,,,,,0,36,36,53,1,,,,,,,,,,,,,,,,,,,,,,,
,,,,,V3_082,21,Male,2024-11-21_15h34.09.613,jersey_experiment_5_v3,2023.2.2,Win32,84.74576271,,,,,,,,,,,,,,,,840.6695,841.9634,841.9634,842.7871,return,0.0622,,47.13541667,,,,,,FBP-RB-71.png,0.35,1.2,46,0.5,,,,,,,,,,,,,,,,,,0,37,37,45,1,,,,,,,,,,,,,,,,,,,,,,,
,,,,,V3_082,21,Male,2024-11-21_15h34.09.613,jersey_experiment_5_v3,2023.2.2,Win32,84.74576271,,,,,,,,,,,,,,,,842.7872,844.0812,844.0813,847.3285,return,1.7093,,48.828125,,,,,,FBP-YG-18.png,0.37,1.2,7,0.5,,,,,,,,,,,,,,,,,,0,38,38,6,1,,,,,,,,,,,,,,,,,,,,,,,
,,,,,V3_082,21,Male,2024-11-21_15h34.09.613,jersey_experiment_5_v3,2023.2.2,Win32,84.74576271,,,,,,,,,,,,,,,,847.3287,848.6225,848.6225,852.0461,return,2.3663,,73.56770833,,,,,,FBP-PT-81.png,0.43,1.2,24,0.5,,,,,,,,,,,,,,,,,,0,39,39,23,1,,,,,,,,,,,,,,,,,,,,,,,
,,,,,V3_082,21,Male,2024-11-21_15h34.09.613,jersey_experiment_5_v3,2023.2.2,Win32,84.74576271,,,,,,,,,,,,,,,,852.0464,853.5992,853.5992,861.3407,return,1.4426,,69.66145833,,,,,,FBP-OG-71.png,0.4,1.2,33,0.75,,,,,,,,,,,,,,,,,,0,40,40,32,1,,,,,,,,,,,,,,,,,,,,,,,
,,,,,V3_082,21,Male,2024-11-21_15h34.09.613,jersey_experiment_5_v3,2023.2.2,Win32,84.74576271,,,,,,,,,,,,,,,,861.341,862.8937,862.8938,863.4702,return,0.0646,,73.17708333,,,,,,FBP-OG-81.png,0.43,1.2,39,0.75,,,,,,,,,,,,,,,,,,0,41,41,38,1,,,,,,,,,,,,,,,,,,,,,,,
,,,,,V3_082,21,Male,2024-11-21_15h34.09.613,jersey_experiment_5_v3,2023.2.2,Win32,84.74576271,,,,,,,,,,,,,,,,863.4704,865.0233,865.0234,865.6466,return,0.201,,80.72916667,,,,,,FBP-OG-71.png,0.45,1.2,35,0.75,,,,,,,,,,,,,,,,,,0,42,42,34,1,,,,,,,,,,,,,,,,,,,,,,,
,,,,,V3_082,21,Male,2024-11-21_15h34.09.613,jersey_experiment_5_v3,2023.2.2,Win32,84.74576271,,,,,,,,,,,,,,,,865.6468,867.1881,867.1881,867.8937,return,0.0397,,60.02604167,,,,,,FBP-OG-81.png,0.35,1.2,36,0.75,,,,,,,,,,,,,,,,,,0,43,43,35,1,,,,,,,,,,,,,,,,,,,,,,,
,,,,,V3_082,21,Male,2024-11-21_15h34.09.613,jersey_experiment_5_v3,2023.2.2,Win32,84.74576271,,,,,,,,,,,,,,,,867.8939,869.1882,869.1882,869.9878,return,0.039,,86.45833333,,,,,,FBP-PT-91.png,0.45,1.2,30,0.5,,,,,,,,,,,,,,,,,,0,44,44,29,1,,,,,,,,,,,,,,,,,,,,,,,
,,,,,V3_082,21,Male,2024-11-21_15h34.09.613,jersey_experiment_5_v3,2023.2.2,Win32,84.74576271,,,,,,,,,,,,,,,,869.9881,871.2822,871.2822,874.047,return,1.4011,,60.9375,,,,,,FBP-YG-19.png,0.37,1.2,12,0.5,,,,,,,,,,,,,,,,,,0,45,45,11,1,,,,,,,,,,,,,,,,,,,,,,,
,,,,,V3_082,21,Male,2024-11-21_15h34.09.613,jersey_experiment_5_v3,2023.2.2,Win32,84.74576271,,,,,,,,,,,,,,,,874.0473,875.6002,875.6002,876.4118,return,0.0064,,71.09375,,,,,,FBP-OG-71.png,0.43,1.2,34,0.75,,,,,,,,,,,,,,,,,,0,46,46,33,1,,,,,,,,,,,,,,,,,,,,,,,
,,,,,V3_082,21,Male,2024-11-21_15h34.09.613,jersey_experiment_5_v3,2023.2.2,Win32,84.74576271,,,,,,,,,,,,,,,,876.4121,877.7059,877.706,879.1414,return,0.3918,,71.35416667,,,,,,FBP-RB-91.png,0.43,1.2,59,0.5,,,,,,,,,,,,,,,,,,0,47,47,58,1,,,,,,,,,,,,,,,,,,,,,,,
,,,,,V3_082,21,Male,2024-11-21_15h34.09.613,jersey_experiment_5_v3,2023.2.2,Win32,84.74576271,,,,,,,,,,,,,,,,879.1416,880.4356,880.4356,889.6592,return,0.7111,,70.05208333,,,,,,FBP-YG-19.png,0.43,1.2,14,0.5,,,,,,,,,,,,,,,,,,0,48,48,13,1,,,,,,,,,,,,,,,,,,,,,,,
,,,,,V3_082,21,Male,2024-11-21_15h34.09.613,jersey_experiment_5_v3,2023.2.2,Win32,84.74576271,,,,,,,,,,,,,,,,889.6595,890.9536,890.9536,892.0006,return,0.1286,,64.32291667,,,,,,FBP-RB-71.png,0.37,1.2,47,0.5,,,,,,,,,,,,,,,,,,0,49,49,46,1,,,,,,,,,,,,,,,,,,,,,,,
,,,,,V3_082,21,Male,2024-11-21_15h34.09.613,jersey_experiment_5_v3,2023.2.2,Win32,84.74576271,,,,,,,,,,,,,,,,892.0009,893.2948,893.2948,894.9184,return,0.6913,,59.375,,,,,,FBP-YG-17.png,0.35,1.2,1,0.5,,,,,,,,,,,,,,,,,,0,50,50,0,1,,,,,,,,,,,,,,,,,,,,,,,
,,,,,V3_082,21,Male,2024-11-21_15h34.09.613,jersey_experiment_5_v3,2023.2.2,Win32,84.74576271,,,,,,,,,,,,,,,,894.9187,896.2125,896.2125,896.836,return,0.0392,,67.44791667,,,,,,FBP-RB-71.png,0.4,1.2,48,0.5,,,,,,,,,,,,,,,,,,0,51,51,47,1,,,,,,,,,,,,,,,,,,,,,,,
,,,,,V3_082,21,Male,2024-11-21_15h34.09.613,jersey_experiment_5_v3,2023.2.2,Win32,84.74576271,,,,,,,,,,,,,,,,896.8362,898.1303,898.1303,899.2363,return,0.0364,,60.28645833,,,,,,FBP-PT-71.png,0.37,1.2,17,0.5,,,,,,,,,,,,,,,,,,0,52,52,16,1,,,,,,,,,,,,,,,,,,,,,,,
,,,,,V3_082,21,Male,2024-11-21_15h34.09.613,jersey_experiment_5_v3,2023.2.2,Win32,84.74576271,,,,,,,,,,,,,,,,899.2366,900.5304,900.5304,901.3892,return,0.1092,,81.51041667,,,,,,FBP-YG-17.png,0.45,1.2,5,0.5,,,,,,,,,,,,,,,,,,0,53,53,4,1,,,,,,,,,,,,,,,,,,,,,,,
,,,,,V3_082,21,Male,2024-11-21_15h34.09.613,jersey_experiment_5_v3,2023.2.2,Win32,84.74576271,,,,,,,,,,,,,,,,901.3896,902.6834,902.6834,903.6482,return,0.0594,,52.34375,,,,,,FBP-PT-71.png,0.35,1.2,16,0.5,,,,,,,,,,,,,,,,,,0,54,54,15,1,,,,,,,,,,,,,,,,,,,,,,,
,,,,,V3_082,21,Male,2024-11-21_15h34.09.613,jersey_experiment_5_v3,2023.2.2,Win32,84.74576271,,,,,,,,,,,,,,,,903.6484,904.9423,904.9424,906.7071,return,0.9976,,74.21875,,,,,,FBP-PT-71.png,0.4,1.2,18,0.5,,,,,,,,,,,,,,,,,,0,55,55,17,1,,,,,,,,,,,,,,,,,,,,,,,
,,,,,V3_082,21,Male,2024-11-21_15h34.09.613,jersey_experiment_5_v3,2023.2.2,Win32,84.74576271,,,,,,,,,,,,,,,,906.7073,908.2601,908.2601,909.872,return,0.6979,,56.25,,,,,,FBP-OG-71.png,0.37,1.2,32,0.75,,,,,,,,,,,,,,,,,,0,56,56,31,1,,,,,,,,,,,,,,,,,,,,,,,
,,,,,V3_082,21,Male,2024-11-21_15h34.09.613,jersey_experiment_5_v3,2023.2.2,Win32,84.74576271,,,,,,,,,,,,,,,,909.8722,911.166,911.166,912.3663,return,0.1661,,69.27083333,,,,,,FBP-YG-18.png,0.45,1.2,10,0.5,,,,,,,,,,,,,,,,,,0,57,57,9,1,,,,,,,,,,,,,,,,,,,,,,,
,,,,,V3_082,21,Male,2024-11-21_15h34.09.613,jersey_experiment_5_v3,2023.2.2,Win32,84.74576271,,,,,,,,,,,,,,,,912.3665,913.6602,913.6602,914.4368,return,0.0703,,64.71354167,,,,,,FBP-RB-91.png,0.4,1.2,58,0.5,,,,,,,,,,,,,,,,,,0,58,58,57,1,,,,,,,,,,,,,,,,,,,,,,,
,,,,,V3_082,21,Male,2024-11-21_15h34.09.613,jersey_experiment_5_v3,2023.2.2,Win32,84.74576271,,,,,,,,,,,,,,,,914.4371,915.7309,915.731,917.0722,return,0.447,,63.93229167,,,,,,FBP-RB-81.png,0.37,1.2,52,0.5,,,,,,,,,,,,,,,,,,0,59,59,51,1,,,,,,,,,,,,,,,,,,,,,,,
,,,,,V3_082,21,Male,2024-11-21_15h34.09.613,jersey_experiment_5_v3,2023.2.2,Win32,84.74576271,,,,,,,,,,,,,,,,,,,,,,,,,,,,,,,,,,,,,,,,,,,,,,,,,,,,,,,,917.0724,922.9314,return,5.8499,,,,,,,,,,,,,,,,,,,
,,,,,V3_082,21,Male,2024-11-21_15h34.09.613,jersey_experiment_5_v3,2023.2.2,Win32,84.74576271,,,,,,,,,,,,,,,,,,,,,,,,,,,,,,,,,,,,,,,,,,,,,,,,,,,,,,,,,,,,,922.9316,930.5552,1,6.3469,return,1.2673,,,,,,,,,,,,
,,,,,V3_082,21,Male,2024-11-21_15h34.09.613,jersey_experiment_5_v3,2023.2.2,Win32,84.74576271,,,,,,,,,,,,,,,,,,,,,,,,,,,,,,,,,,,,,,,,,,,,,,,,,,,,,,,,,,,,,,,,,,,,930.5554,980.3341,Race and stereotypes? Same size but with different skin tone,right,35.8426,,,,,,
,,,,,V3_082,21,Male,2024-11-21_15h34.09.613,jersey_experiment_5_v3,2023.2.2,Win32,84.74576271,,,,,,,,,,,,,,,,,,,,,,,,,,,,,,,,,,,,,,,,,,,,,,,,,,,,,,,,,,,,,,,,,,,,,,,,,,980.3341,992.4282,return,12.0872,