requirements.started,requirements.stopped,key_resp_3.keys,key_resp_3.rt,key_resp_3.duration,Subject ID,Age,Gender,date,expName,psychopyVersion,OS,frameRate,instructions1.started,instructions1.stopped,key_resp.keys,key_resp.rt,key_resp.duration,example.started,example.stopped,enter_2.keys,enter_2.rt,enter_2.duration,instructions2.started,instructions2.stopped,enter_3.keys,enter_3.rt,enter_3.duration,image.started,image.stopped,slider_2.started,slider_2.stopped,next.keys,next.rt,next.duration,slider.response,trial_block_1.thisRepN,trial_block_1.thisTrialN,trial_block_1.thisN,trial_block_1.thisIndex,trial_block_1.ran,Path,Width,Height,Index,Duration,trial_block_2.thisRepN,trial_block_2.thisTrialN,trial_block_2.thisN,trial_block_2.thisIndex,trial_block_2.ran,rest_break.started,rest_break.stopped,end_break.started,end_break.stopped,key_resp_5.keys,key_resp_5.rt,key_resp_5.duration,trial_block_3.thisRepN,trial_block_3.thisTrialN,trial_block_3.thisN,trial_block_3.thisIndex,trial_block_3.ran,trial_block_4.thisRepN,trial_block_4.thisTrialN,trial_block_4.thisN,trial_block_4.thisIndex,trial_block_4.ran,questions_intro.started,questions_intro.stopped,enter_12.keys,enter_12.rt,enter_12.duration,question2.started,question2.stopped,question_doingbest.response,question_doingbest.rt,enter_15.keys,enter_15.rt,enter_15.duration,pattern.started,pattern.stopped,pattern_2.text,enter_17.keys,enter_17.rt,enter_17.duration,thankyou.started,thankyou.stopped,enter_14.keys,enter_14.rt,enter_14.duration
0,11.1354,return,11.1299,,V3_070,18,Female,2024-11-16_17h34.16.484,jersey_experiment_5_v3,2023.2.2,Win32,84.03361345,,,,,,,,,,,,,,,,,,,,,,,,,,,,,,,,,,,,,,,,,,,,,,,,,,,,,,,,,,,,,,,,,,,,,,,,,,,,,,
,,,,,V3_070,18,Female,2024-11-16_17h34.16.484,jersey_experiment_5_v3,2023.2.2,Win32,84.03361345,11.1354,21.3911,return,10.2387,,,,,,,,,,,,,,,,,,,,,,,,,,,,,,,,,,,,,,,,,,,,,,,,,,,,,,,,,,,,,,,,,,,,,,,,,,
,,,,,V3_070,18,Female,2024-11-16_17h34.16.484,jersey_experiment_5_v3,2023.2.2,Win32,84.03361345,,,,,,21.3911,32.1445,return,10.7089,,,,,,,,,,,,,,,,,,,,,,,,,,,,,,,,,,,,,,,,,,,,,,,,,,,,,,,,,,,,,,,,,,,,,
,,,,,V3_070,18,Female,2024-11-16_17h34.16.484,jersey_experiment_5_v3,2023.2.2,Win32,84.03361345,,,,,,,,,,,32.1446,80.7814,return,48.6323,,,,,,,,,,,,,,,,,,,,,,,,,,,,,,,,,,,,,,,,,,,,,,,,,,,,,,,,,,,,,,,,
,,,,,V3_070,18,Female,2024-11-16_17h34.16.484,jersey_experiment_5_v3,2023.2.2,Win32,84.03361345,,,,,,,,,,,,,,,,80.783,82.3346,82.3347,89.2995,return,3.7907,,74.73958333,0,0,0,8,1,FBP-YG-81.png,0.43,1.2,9,0.75,,,,,,,,,,,,,,,,,,,,,,,,,,,,,,,,,,,,,,,,,,,,,
,,,,,V3_070,18,Female,2024-11-16_17h34.16.484,jersey_experiment_5_v3,2023.2.2,Win32,84.03361345,,,,,,,,,,,,,,,,89.2998,90.8524,90.8525,94.9114,return,0.8164,,74.21875,0,1,1,23,1,FBP-PT-18.png,0.43,1.2,24,0.75,,,,,,,,,,,,,,,,,,,,,,,,,,,,,,,,,,,,,,,,,,,,,
,,,,,V3_070,18,Female,2024-11-16_17h34.16.484,jersey_experiment_5_v3,2023.2.2,Win32,84.03361345,,,,,,,,,,,,,,,,94.9117,96.2056,96.2057,98.9115,return,0.8767,,27.08333333,0,2,2,41,1,FBP-OG-19.png,0.37,1.2,42,0.5,,,,,,,,,,,,,,,,,,,,,,,,,,,,,,,,,,,,,,,,,,,,,
,,,,,V3_070,18,Female,2024-11-16_17h34.16.484,jersey_experiment_5_v3,2023.2.2,Win32,84.03361345,,,,,,,,,,,,,,,,98.9118,100.2058,100.2059,102.4176,return,0.6968,,12.76041667,0,3,3,30,1,FBP-OG-17.png,0.35,1.2,31,0.5,,,,,,,,,,,,,,,,,,,,,,,,,,,,,,,,,,,,,,,,,,,,,
,,,,,V3_070,18,Female,2024-11-16_17h34.16.484,jersey_experiment_5_v3,2023.2.2,Win32,84.03361345,,,,,,,,,,,,,,,,102.4178,103.7117,103.7118,106.1354,return,0.576,,83.46354167,0,4,4,33,1,FBP-OG-17.png,0.43,1.2,34,0.5,,,,,,,,,,,,,,,,,,,,,,,,,,,,,,,,,,,,,,,,,,,,,
,,,,,V3_070,18,Female,2024-11-16_17h34.16.484,jersey_experiment_5_v3,2023.2.2,Win32,84.03361345,,,,,,,,,,,,,,,,106.1356,107.6883,107.6883,110.5827,return,0.7061,,20.3125,0,5,5,55,1,FBP-RB-19.png,0.35,1.2,56,0.75,,,,,,,,,,,,,,,,,,,,,,,,,,,,,,,,,,,,,,,,,,,,,
,,,,,V3_070,18,Female,2024-11-16_17h34.16.484,jersey_experiment_5_v3,2023.2.2,Win32,84.03361345,,,,,,,,,,,,,,,,110.5831,112.1356,112.1356,116.0298,return,2.3592,,81.25,0,6,6,28,1,FBP-PT-19.png,0.43,1.2,29,0.75,,,,,,,,,,,,,,,,,,,,,,,,,,,,,,,,,,,,,,,,,,,,,
,,,,,V3_070,18,Female,2024-11-16_17h34.16.484,jersey_experiment_5_v3,2023.2.2,Win32,84.03361345,,,,,,,,,,,,,,,,116.0302,117.5829,117.5829,119.5712,return,0.7555,,74.86979167,0,7,7,27,1,FBP-PT-19.png,0.4,1.2,28,0.75,,,,,,,,,,,,,,,,,,,,,,,,,,,,,,,,,,,,,,,,,,,,,
,,,,,V3_070,18,Female,2024-11-16_17h34.16.484,jersey_experiment_5_v3,2023.2.2,Win32,84.03361345,,,,,,,,,,,,,,,,119.5716,121.1241,121.1242,123.536,return,0.6627,,25.13020833,0,8,8,20,1,FBP-PT-18.png,0.35,1.2,21,0.75,,,,,,,,,,,,,,,,,,,,,,,,,,,,,,,,,,,,,,,,,,,,,
,,,,,V3_070,18,Female,2024-11-16_17h34.16.484,jersey_experiment_5_v3,2023.2.2,Win32,84.03361345,,,,,,,,,,,,,,,,123.5363,125.0889,125.089,127.7361,return,1.3651,,24.47916667,0,9,9,56,1,FBP-RB-19.png,0.37,1.2,57,0.75,,,,,,,,,,,,,,,,,,,,,,,,,,,,,,,,,,,,,,,,,,,,,
,,,,,V3_070,18,Female,2024-11-16_17h34.16.484,jersey_experiment_5_v3,2023.2.2,Win32,84.03361345,,,,,,,,,,,,,,,,127.7365,129.0302,129.0303,131.4775,return,0.565,,49.34895833,0,10,10,36,1,FBP-OG-18.png,0.37,1.2,37,0.5,,,,,,,,,,,,,,,,,,,,,,,,,,,,,,,,,,,,,,,,,,,,,
,,,,,V3_070,18,Female,2024-11-16_17h34.16.484,jersey_experiment_5_v3,2023.2.2,Win32,84.03361345,,,,,,,,,,,,,,,,131.4777,133.0305,133.0306,135.0305,return,0.6118,,76.82291667,0,11,11,17,1,FBP-PT-17.png,0.4,1.2,18,0.75,,,,,,,,,,,,,,,,,,,,,,,,,,,,,,,,,,,,,,,,,,,,,
,,,,,V3_070,18,Female,2024-11-16_17h34.16.484,jersey_experiment_5_v3,2023.2.2,Win32,84.03361345,,,,,,,,,,,,,,,,135.0307,136.3247,136.3247,138.0305,return,0.5702,,76.5625,0,12,12,37,1,FBP-OG-18.png,0.4,1.2,38,0.5,,,,,,,,,,,,,,,,,,,,,,,,,,,,,,,,,,,,,,,,,,,,,
,,,,,V3_070,18,Female,2024-11-16_17h34.16.484,jersey_experiment_5_v3,2023.2.2,Win32,84.03361345,,,,,,,,,,,,,,,,138.0308,139.3248,139.3249,142.2426,return,1.1906,,91.015625,0,13,13,38,1,FBP-OG-18.png,0.43,1.2,39,0.5,,,,,,,,,,,,,,,,,,,,,,,,,,,,,,,,,,,,,,,,,,,,,
,,,,,V3_070,18,Female,2024-11-16_17h34.16.484,jersey_experiment_5_v3,2023.2.2,Win32,84.03361345,,,,,,,,,,,,,,,,142.2428,143.7956,143.7956,146.0781,return,1.1723,,16.66666667,0,14,14,11,1,FBP-YG-91.png,0.37,1.2,12,0.75,,,,,,,,,,,,,,,,,,,,,,,,,,,,,,,,,,,,,,,,,,,,,
,,,,,V3_070,18,Female,2024-11-16_17h34.16.484,jersey_experiment_5_v3,2023.2.2,Win32,84.03361345,,,,,,,,,,,,,,,,146.0783,147.3721,147.3722,149.7134,return,0.6945,,17.83854167,0,15,15,31,1,FBP-OG-17.png,0.37,1.2,32,0.5,,,,,,,,,,,,,,,,,,,,,,,,,,,,,,,,,,,,,,,,,,,,,
,,,,,V3_070,18,Female,2024-11-16_17h34.16.484,jersey_experiment_5_v3,2023.2.2,Win32,84.03361345,,,,,,,,,,,,,,,,149.7137,151.2665,151.2665,152.9841,return,0.5884,,4.817708333,0,16,16,45,1,FBP-RB-17.png,0.35,1.2,46,0.75,,,,,,,,,,,,,,,,,,,,,,,,,,,,,,,,,,,,,,,,,,,,,
,,,,,V3_070,18,Female,2024-11-16_17h34.16.484,jersey_experiment_5_v3,2023.2.2,Win32,84.03361345,,,,,,,,,,,,,,,,152.9843,154.5372,154.5373,156.3843,return,0.5192,,57.421875,0,17,17,47,1,FBP-RB-17.png,0.4,1.2,48,0.75,,,,,,,,,,,,,,,,,,,,,,,,,,,,,,,,,,,,,,,,,,,,,
,,,,,V3_070,18,Female,2024-11-16_17h34.16.484,jersey_experiment_5_v3,2023.2.2,Win32,84.03361345,,,,,,,,,,,,,,,,156.3845,157.6784,157.6784,159.9373,return,0.5808,,50.26041667,0,18,18,40,1,FBP-OG-19.png,0.35,1.2,41,0.5,,,,,,,,,,,,,,,,,,,,,,,,,,,,,,,,,,,,,,,,,,,,,
,,,,,V3_070,18,Female,2024-11-16_17h34.16.484,jersey_experiment_5_v3,2023.2.2,Win32,84.03361345,,,,,,,,,,,,,,,,159.9375,161.4904,161.4905,165.4436,return,2.8846,,93.61979167,0,19,19,14,1,FBP-YG-91.png,0.45,1.2,15,0.75,,,,,,,,,,,,,,,,,,,,,,,,,,,,,,,,,,,,,,,,,,,,,
,,,,,V3_070,18,Female,2024-11-16_17h34.16.484,jersey_experiment_5_v3,2023.2.2,Win32,84.03361345,,,,,,,,,,,,,,,,165.4438,166.9965,166.9965,168.7025,return,0.5719,,95.44270833,0,20,20,9,1,FBP-YG-81.png,0.45,1.2,10,0.75,,,,,,,,,,,,,,,,,,,,,,,,,,,,,,,,,,,,,,,,,,,,,
,,,,,V3_070,18,Female,2024-11-16_17h34.16.484,jersey_experiment_5_v3,2023.2.2,Win32,84.03361345,,,,,,,,,,,,,,,,168.7027,170.2554,170.2554,171.5378,return,0.5566,,94.27083333,0,21,21,24,1,FBP-PT-18.png,0.45,1.2,25,0.75,,,,,,,,,,,,,,,,,,,,,,,,,,,,,,,,,,,,,,,,,,,,,
,,,,,V3_070,18,Female,2024-11-16_17h34.16.484,jersey_experiment_5_v3,2023.2.2,Win32,84.03361345,,,,,,,,,,,,,,,,171.5381,173.0907,173.0908,175.938,return,0.533,,74.86979167,0,22,22,13,1,FBP-YG-91.png,0.43,1.2,14,0.75,,,,,,,,,,,,,,,,,,,,,,,,,,,,,,,,,,,,,,,,,,,,,
,,,,,V3_070,18,Female,2024-11-16_17h34.16.484,jersey_experiment_5_v3,2023.2.2,Win32,84.03361345,,,,,,,,,,,,,,,,175.9382,177.491,177.491,179.5029,return,0.6186,,24.34895833,0,23,23,25,1,FBP-PT-19.png,0.35,1.2,26,0.75,,,,,,,,,,,,,,,,,,,,,,,,,,,,,,,,,,,,,,,,,,,,,
,,,,,V3_070,18,Female,2024-11-16_17h34.16.484,jersey_experiment_5_v3,2023.2.2,Win32,84.03361345,,,,,,,,,,,,,,,,179.5032,181.0557,181.0557,183.8324,return,1.3175,,70.3125,0,24,24,22,1,FBP-PT-18.png,0.4,1.2,23,0.75,,,,,,,,,,,,,,,,,,,,,,,,,,,,,,,,,,,,,,,,,,,,,
,,,,,V3_070,18,Female,2024-11-16_17h34.16.484,jersey_experiment_5_v3,2023.2.2,Win32,84.03361345,,,,,,,,,,,,,,,,183.8327,185.1266,185.1266,186.9502,return,0.484,,66.92708333,0,25,25,42,1,FBP-OG-19.png,0.4,1.2,43,0.5,,,,,,,,,,,,,,,,,,,,,,,,,,,,,,,,,,,,,,,,,,,,,
,,,,,V3_070,18,Female,2024-11-16_17h34.16.484,jersey_experiment_5_v3,2023.2.2,Win32,84.03361345,,,,,,,,,,,,,,,,186.9505,188.5032,188.5032,190.3267,return,0.6351,,25.390625,0,26,26,50,1,FBP-RB-18.png,0.35,1.2,51,0.75,,,,,,,,,,,,,,,,,,,,,,,,,,,,,,,,,,,,,,,,,,,,,
,,,,,V3_070,18,Female,2024-11-16_17h34.16.484,jersey_experiment_5_v3,2023.2.2,Win32,84.03361345,,,,,,,,,,,,,,,,190.327,191.8797,191.8797,194.9622,return,2.2234,,44.66145833,0,27,27,15,1,FBP-PT-17.png,0.35,1.2,16,0.75,,,,,,,,,,,,,,,,,,,,,,,,,,,,,,,,,,,,,,,,,,,,,
,,,,,V3_070,18,Female,2024-11-16_17h34.16.484,jersey_experiment_5_v3,2023.2.2,Win32,84.03361345,,,,,,,,,,,,,,,,194.9624,196.5151,196.5152,198.3034,return,0.8051,,74.73958333,0,28,28,58,1,FBP-RB-19.png,0.43,1.2,59,0.75,,,,,,,,,,,,,,,,,,,,,,,,,,,,,,,,,,,,,,,,,,,,,
,,,,,V3_070,18,Female,2024-11-16_17h34.16.484,jersey_experiment_5_v3,2023.2.2,Win32,84.03361345,,,,,,,,,,,,,,,,198.3037,199.5975,199.5976,201.1272,return,0.541,,74.609375,0,29,29,44,1,FBP-OG-19.png,0.45,1.2,45,0.5,,,,,,,,,,,,,,,,,,,,,,,,,,,,,,,,,,,,,,,,,,,,,
,,,,,V3_070,18,Female,2024-11-16_17h34.16.484,jersey_experiment_5_v3,2023.2.2,Win32,84.03361345,,,,,,,,,,,,,,,,201.1275,202.6802,202.6802,204.5038,return,0.6131,,67.70833333,0,30,30,12,1,FBP-YG-91.png,0.4,1.2,13,0.75,,,,,,,,,,,,,,,,,,,,,,,,,,,,,,,,,,,,,,,,,,,,,
,,,,,V3_070,18,Female,2024-11-16_17h34.16.484,jersey_experiment_5_v3,2023.2.2,Win32,84.03361345,,,,,,,,,,,,,,,,204.504,205.7978,205.7978,207.3274,return,0.4886,,89.453125,0,31,31,39,1,FBP-OG-18.png,0.45,1.2,40,0.5,,,,,,,,,,,,,,,,,,,,,,,,,,,,,,,,,,,,,,,,,,,,,
,,,,,V3_070,18,Female,2024-11-16_17h34.16.484,jersey_experiment_5_v3,2023.2.2,Win32,84.03361345,,,,,,,,,,,,,,,,207.3276,208.8803,208.8804,211.3157,return,0.5514,,36.19791667,0,32,32,1,1,FBP-YG-71.png,0.37,1.2,2,0.75,,,,,,,,,,,,,,,,,,,,,,,,,,,,,,,,,,,,,,,,,,,,,
,,,,,V3_070,18,Female,2024-11-16_17h34.16.484,jersey_experiment_5_v3,2023.2.2,Win32,84.03361345,,,,,,,,,,,,,,,,211.316,212.8688,212.8688,214.4335,return,0.533,,75,0,33,33,57,1,FBP-RB-19.png,0.4,1.2,58,0.75,,,,,,,,,,,,,,,,,,,,,,,,,,,,,,,,,,,,,,,,,,,,,
,,,,,V3_070,18,Female,2024-11-16_17h34.16.484,jersey_experiment_5_v3,2023.2.2,Win32,84.03361345,,,,,,,,,,,,,,,,214.4338,215.9865,215.9866,217.4218,return,0.5012,,75.13020833,0,34,34,18,1,FBP-PT-17.png,0.43,1.2,19,0.75,,,,,,,,,,,,,,,,,,,,,,,,,,,,,,,,,,,,,,,,,,,,,
,,,,,V3_070,18,Female,2024-11-16_17h34.16.484,jersey_experiment_5_v3,2023.2.2,Win32,84.03361345,,,,,,,,,,,,,,,,217.4221,218.9747,218.9748,220.4688,return,0.5263,,75.13020833,0,35,35,2,1,FBP-YG-71.png,0.4,1.2,3,0.75,,,,,,,,,,,,,,,,,,,,,,,,,,,,,,,,,,,,,,,,,,,,,
,,,,,V3_070,18,Female,2024-11-16_17h34.16.484,jersey_experiment_5_v3,2023.2.2,Win32,84.03361345,,,,,,,,,,,,,,,,220.4692,222.0221,222.0222,224.0691,return,0.5499,,61.97916667,0,36,36,6,1,FBP-YG-81.png,0.37,1.2,7,0.75,,,,,,,,,,,,,,,,,,,,,,,,,,,,,,,,,,,,,,,,,,,,,
,,,,,V3_070,18,Female,2024-11-16_17h34.16.484,jersey_experiment_5_v3,2023.2.2,Win32,84.03361345,,,,,,,,,,,,,,,,224.0694,225.6223,225.6223,227.8575,return,0.9219,,76.04166667,0,37,37,7,1,FBP-YG-81.png,0.4,1.2,8,0.75,,,,,,,,,,,,,,,,,,,,,,,,,,,,,,,,,,,,,,,,,,,,,
,,,,,V3_070,18,Female,2024-11-16_17h34.16.484,jersey_experiment_5_v3,2023.2.2,Win32,84.03361345,,,,,,,,,,,,,,,,227.8577,229.4106,229.4106,231.3518,return,0.5336,,49.73958333,0,38,38,51,1,FBP-RB-18.png,0.37,1.2,52,0.75,,,,,,,,,,,,,,,,,,,,,,,,,,,,,,,,,,,,,,,,,,,,,
,,,,,V3_070,18,Female,2024-11-16_17h34.16.484,jersey_experiment_5_v3,2023.2.2,Win32,84.03361345,,,,,,,,,,,,,,,,231.352,232.9048,232.9048,234.8813,return,1.0279,,80.72916667,0,39,39,53,1,FBP-RB-18.png,0.43,1.2,54,0.75,,,,,,,,,,,,,,,,,,,,,,,,,,,,,,,,,,,,,,,,,,,,,
,,,,,V3_070,18,Female,2024-11-16_17h34.16.484,jersey_experiment_5_v3,2023.2.2,Win32,84.03361345,,,,,,,,,,,,,,,,234.8815,236.4343,236.4344,238.0697,return,0.5281,,25.26041667,0,40,40,26,1,FBP-PT-19.png,0.37,1.2,27,0.75,,,,,,,,,,,,,,,,,,,,,,,,,,,,,,,,,,,,,,,,,,,,,
,,,,,V3_070,18,Female,2024-11-16_17h34.16.484,jersey_experiment_5_v3,2023.2.2,Win32,84.03361345,,,,,,,,,,,,,,,,238.0699,239.6226,239.6227,240.9992,return,0.6102,,27.60416667,0,41,41,21,1,FBP-PT-18.png,0.37,1.2,22,0.75,,,,,,,,,,,,,,,,,,,,,,,,,,,,,,,,,,,,,,,,,,,,,
,,,,,V3_070,18,Female,2024-11-16_17h34.16.484,jersey_experiment_5_v3,2023.2.2,Win32,84.03361345,,,,,,,,,,,,,,,,240.9995,242.5522,242.5522,245.317,return,0.597,,50.26041667,0,42,42,46,1,FBP-RB-17.png,0.37,1.2,47,0.75,,,,,,,,,,,,,,,,,,,,,,,,,,,,,,,,,,,,,,,,,,,,,
,,,,,V3_070,18,Female,2024-11-16_17h34.16.484,jersey_experiment_5_v3,2023.2.2,Win32,84.03361345,,,,,,,,,,,,,,,,245.3173,246.87,246.8701,248.5288,return,0.6054,,91.40625,0,43,43,54,1,FBP-RB-18.png,0.45,1.2,55,0.75,,,,,,,,,,,,,,,,,,,,,,,,,,,,,,,,,,,,,,,,,,,,,
,,,,,V3_070,18,Female,2024-11-16_17h34.16.484,jersey_experiment_5_v3,2023.2.2,Win32,84.03361345,,,,,,,,,,,,,,,,248.5291,250.0818,250.0818,251.7643,return,0.9768,,93.48958333,0,44,44,29,1,FBP-PT-19.png,0.45,1.2,30,0.75,,,,,,,,,,,,,,,,,,,,,,,,,,,,,,,,,,,,,,,,,,,,,
,,,,,V3_070,18,Female,2024-11-16_17h34.16.484,jersey_experiment_5_v3,2023.2.2,Win32,84.03361345,,,,,,,,,,,,,,,,251.7646,253.3173,253.3174,254.7409,return,0.6142,,83.07291667,0,45,45,49,1,FBP-RB-17.png,0.45,1.2,50,0.75,,,,,,,,,,,,,,,,,,,,,,,,,,,,,,,,,,,,,,,,,,,,,
,,,,,V3_070,18,Female,2024-11-16_17h34.16.484,jersey_experiment_5_v3,2023.2.2,Win32,84.03361345,,,,,,,,,,,,,,,,254.741,256.035,256.0351,257.0703,return,0.4425,,82.94270833,0,46,46,32,1,FBP-OG-17.png,0.4,1.2,33,0.5,,,,,,,,,,,,,,,,,,,,,,,,,,,,,,,,,,,,,,,,,,,,,
,,,,,V3_070,18,Female,2024-11-16_17h34.16.484,jersey_experiment_5_v3,2023.2.2,Win32,84.03361345,,,,,,,,,,,,,,,,257.0705,258.6234,258.6235,259.9412,return,0.4859,,83.85416667,0,47,47,3,1,FBP-YG-71.png,0.43,1.2,4,0.75,,,,,,,,,,,,,,,,,,,,,,,,,,,,,,,,,,,,,,,,,,,,,
,,,,,V3_070,18,Female,2024-11-16_17h34.16.484,jersey_experiment_5_v3,2023.2.2,Win32,84.03361345,,,,,,,,,,,,,,,,259.9414,261.2352,261.2352,262.4941,return,0.5726,,81.51041667,0,48,48,43,1,FBP-OG-19.png,0.43,1.2,44,0.5,,,,,,,,,,,,,,,,,,,,,,,,,,,,,,,,,,,,,,,,,,,,,
,,,,,V3_070,18,Female,2024-11-16_17h34.16.484,jersey_experiment_5_v3,2023.2.2,Win32,84.03361345,,,,,,,,,,,,,,,,262.4943,264.0472,264.0472,266.0707,return,0.6356,,6.640625,0,49,49,10,1,FBP-YG-91.png,0.35,1.2,11,0.75,,,,,,,,,,,,,,,,,,,,,,,,,,,,,,,,,,,,,,,,,,,,,
,,,,,V3_070,18,Female,2024-11-16_17h34.16.484,jersey_experiment_5_v3,2023.2.2,Win32,84.03361345,,,,,,,,,,,,,,,,266.0709,267.3648,267.365,268.6708,return,0.523,,5.598958333,0,50,50,35,1,FBP-OG-18.png,0.35,1.2,36,0.5,,,,,,,,,,,,,,,,,,,,,,,,,,,,,,,,,,,,,,,,,,,,,
,,,,,V3_070,18,Female,2024-11-16_17h34.16.484,jersey_experiment_5_v3,2023.2.2,Win32,84.03361345,,,,,,,,,,,,,,,,268.671,270.2239,270.2239,271.5062,return,0.5058,,9.375,0,51,51,0,1,FBP-YG-71.png,0.35,1.2,1,0.75,,,,,,,,,,,,,,,,,,,,,,,,,,,,,,,,,,,,,,,,,,,,,
,,,,,V3_070,18,Female,2024-11-16_17h34.16.484,jersey_experiment_5_v3,2023.2.2,Win32,84.03361345,,,,,,,,,,,,,,,,271.5064,273.0592,273.0592,275.8123,return,1.7999,,92.44791667,0,52,52,59,1,FBP-RB-19.png,0.45,1.2,60,0.75,,,,,,,,,,,,,,,,,,,,,,,,,,,,,,,,,,,,,,,,,,,,,
,,,,,V3_070,18,Female,2024-11-16_17h34.16.484,jersey_experiment_5_v3,2023.2.2,Win32,84.03361345,,,,,,,,,,,,,,,,275.8125,277.3652,277.3653,278.3888,return,0.4957,,94.27083333,0,53,53,19,1,FBP-PT-17.png,0.45,1.2,20,0.75,,,,,,,,,,,,,,,,,,,,,,,,,,,,,,,,,,,,,,,,,,,,,
,,,,,V3_070,18,Female,2024-11-16_17h34.16.484,jersey_experiment_5_v3,2023.2.2,Win32,84.03361345,,,,,,,,,,,,,,,,278.389,279.6829,279.6829,281.0007,return,0.5395,,94.40104167,0,54,54,34,1,FBP-OG-17.png,0.45,1.2,35,0.5,,,,,,,,,,,,,,,,,,,,,,,,,,,,,,,,,,,,,,,,,,,,,
,,,,,V3_070,18,Female,2024-11-16_17h34.16.484,jersey_experiment_5_v3,2023.2.2,Win32,84.03361345,,,,,,,,,,,,,,,,281.001,282.5537,282.5537,283.5654,return,0.5711,,94.40104167,0,55,55,4,1,FBP-YG-71.png,0.45,1.2,5,0.75,,,,,,,,,,,,,,,,,,,,,,,,,,,,,,,,,,,,,,,,,,,,,
,,,,,V3_070,18,Female,2024-11-16_17h34.16.484,jersey_experiment_5_v3,2023.2.2,Win32,84.03361345,,,,,,,,,,,,,,,,283.5657,285.1185,285.1185,286.3891,return,0.5307,,84.24479167,0,56,56,48,1,FBP-RB-17.png,0.43,1.2,49,0.75,,,,,,,,,,,,,,,,,,,,,,,,,,,,,,,,,,,,,,,,,,,,,
,,,,,V3_070,18,Female,2024-11-16_17h34.16.484,jersey_experiment_5_v3,2023.2.2,Win32,84.03361345,,,,,,,,,,,,,,,,286.3893,287.9422,287.9422,291.1894,return,1.9997,,41.27604167,0,57,57,52,1,FBP-RB-18.png,0.4,1.2,53,0.75,,,,,,,,,,,,,,,,,,,,,,,,,,,,,,,,,,,,,,,,,,,,,
,,,,,V3_070,18,Female,2024-11-16_17h34.16.484,jersey_experiment_5_v3,2023.2.2,Win32,84.03361345,,,,,,,,,,,,,,,,291.1897,292.7422,292.7422,294.3188,return,0.6654,,25.13020833,0,58,58,5,1,FBP-YG-81.png,0.35,1.2,6,0.75,,,,,,,,,,,,,,,,,,,,,,,,,,,,,,,,,,,,,,,,,,,,,
,,,,,V3_070,18,Female,2024-11-16_17h34.16.484,jersey_experiment_5_v3,2023.2.2,Win32,84.03361345,,,,,,,,,,,,,,,,294.319,295.8718,295.8719,297.6954,return,0.5574,,24.34895833,0,59,59,16,1,FBP-PT-17.png,0.37,1.2,17,0.75,,,,,,,,,,,,,,,,,,,,,,,,,,,,,,,,,,,,,,,,,,,,,
,,,,,V3_070,18,Female,2024-11-16_17h34.16.484,jersey_experiment_5_v3,2023.2.2,Win32,84.03361345,,,,,,,,,,,,,,,,297.697,299.2484,299.2485,301.5662,return,1.0396,,49.21875,,,,,,FBP-YG-19.png,0.4,1.2,13,0.75,0,0,0,12,1,,,,,,,,,,,,,,,,,,,,,,,,,,,,,,,,,,,,,,,,
,,,,,V3_070,18,Female,2024-11-16_17h34.16.484,jersey_experiment_5_v3,2023.2.2,Win32,84.03361345,,,,,,,,,,,,,,,,301.5665,303.1192,303.1193,305.1663,return,1.1821,,94.40104167,,,,,,FBP-PT-81.png,0.45,1.2,25,0.75,0,1,1,24,1,,,,,,,,,,,,,,,,,,,,,,,,,,,,,,,,,,,,,,,,
,,,,,V3_070,18,Female,2024-11-16_17h34.16.484,jersey_experiment_5_v3,2023.2.2,Win32,84.03361345,,,,,,,,,,,,,,,,305.1665,306.7192,306.7193,307.9428,return,0.6372,,93.09895833,,,,,,FBP-RB-71.png,0.43,1.2,49,0.75,0,2,2,48,1,,,,,,,,,,,,,,,,,,,,,,,,,,,,,,,,,,,,,,,,
,,,,,V3_070,18,Female,2024-11-16_17h34.16.484,jersey_experiment_5_v3,2023.2.2,Win32,84.03361345,,,,,,,,,,,,,,,,307.9431,309.237,309.2371,313.437,return,1.0437,,93.359375,,,,,,FBP-OG-71.png,0.45,1.2,35,0.5,0,3,3,34,1,,,,,,,,,,,,,,,,,,,,,,,,,,,,,,,,,,,,,,,,
,,,,,V3_070,18,Female,2024-11-16_17h34.16.484,jersey_experiment_5_v3,2023.2.2,Win32,84.03361345,,,,,,,,,,,,,,,,313.4373,314.9902,314.9904,316.7431,return,0.7688,,92.96875,,,,,,FBP-YG-19.png,0.45,1.2,15,0.75,0,4,4,14,1,,,,,,,,,,,,,,,,,,,,,,,,,,,,,,,,,,,,,,,,
,,,,,V3_070,18,Female,2024-11-16_17h34.16.484,jersey_experiment_5_v3,2023.2.2,Win32,84.03361345,,,,,,,,,,,,,,,,316.7433,318.2962,318.2962,320.7198,return,1.8521,,85.02604167,,,,,,FBP-RB-71.png,0.45,1.2,50,0.75,0,5,5,49,1,,,,,,,,,,,,,,,,,,,,,,,,,,,,,,,,,,,,,,,,
,,,,,V3_070,18,Female,2024-11-16_17h34.16.484,jersey_experiment_5_v3,2023.2.2,Win32,84.03361345,,,,,,,,,,,,,,,,320.7201,322.014,322.0141,323.1199,return,0.1671,,87.36979167,,,,,,FBP-OG-81.png,0.45,1.2,40,0.5,0,6,6,39,1,,,,,,,,,,,,,,,,,,,,,,,,,,,,,,,,,,,,,,,,
,,,,,V3_070,18,Female,2024-11-16_17h34.16.484,jersey_experiment_5_v3,2023.2.2,Win32,84.03361345,,,,,,,,,,,,,,,,323.1202,324.6731,324.6731,326.1788,return,0.754,,28.515625,,,,,,FBP-RB-81.png,0.37,1.2,52,0.75,0,7,7,51,1,,,,,,,,,,,,,,,,,,,,,,,,,,,,,,,,,,,,,,,,
,,,,,V3_070,18,Female,2024-11-16_17h34.16.484,jersey_experiment_5_v3,2023.2.2,Win32,84.03361345,,,,,,,,,,,,,,,,326.1791,327.732,327.732,328.7672,return,0.3711,,89.97395833,,,,,,FBP-RB-81.png,0.45,1.2,55,0.75,0,8,8,54,1,,,,,,,,,,,,,,,,,,,,,,,,,,,,,,,,,,,,,,,,
,,,,,V3_070,18,Female,2024-11-16_17h34.16.484,jersey_experiment_5_v3,2023.2.2,Win32,84.03361345,,,,,,,,,,,,,,,,328.7675,330.3202,330.3202,331.3907,return,0.1479,,32.16145833,,,,,,FBP-RB-71.png,0.4,1.2,48,0.75,0,9,9,47,1,,,,,,,,,,,,,,,,,,,,,,,,,,,,,,,,,,,,,,,,
,,,,,V3_070,18,Female,2024-11-16_17h34.16.484,jersey_experiment_5_v3,2023.2.2,Win32,84.03361345,,,,,,,,,,,,,,,,331.391,332.9437,332.9438,333.944,return,0.1421,,34.11458333,,,,,,FBP-YG-19.png,0.43,1.2,14,0.75,0,10,10,13,1,,,,,,,,,,,,,,,,,,,,,,,,,,,,,,,,,,,,,,,,
,,,,,V3_070,18,Female,2024-11-16_17h34.16.484,jersey_experiment_5_v3,2023.2.2,Win32,84.03361345,,,,,,,,,,,,,,,,333.9443,335.4967,335.4967,337.9087,return,0.6835,,39.0625,,,,,,FBP-RB-81.png,0.43,1.2,54,0.75,0,11,11,53,1,,,,,,,,,,,,,,,,,,,,,,,,,,,,,,,,,,,,,,,,
,,,,,V3_070,18,Female,2024-11-16_17h34.16.484,jersey_experiment_5_v3,2023.2.2,Win32,84.03361345,,,,,,,,,,,,,,,,337.909,339.4617,339.4617,340.6264,return,0.556,,29.16666667,,,,,,FBP-RB-81.png,0.35,1.2,51,0.75,0,12,12,50,1,,,,,,,,,,,,,,,,,,,,,,,,,,,,,,,,,,,,,,,,
,,,,,V3_070,18,Female,2024-11-16_17h34.16.484,jersey_experiment_5_v3,2023.2.2,Win32,84.03361345,,,,,,,,,,,,,,,,340.6266,342.1794,342.1794,343.0853,return,0.4553,,31.77083333,,,,,,FBP-PT-91.png,0.4,1.2,28,0.75,0,13,13,27,1,,,,,,,,,,,,,,,,,,,,,,,,,,,,,,,,,,,,,,,,
,,,,,V3_070,18,Female,2024-11-16_17h34.16.484,jersey_experiment_5_v3,2023.2.2,Win32,84.03361345,,,,,,,,,,,,,,,,343.0856,344.6384,344.6384,345.7796,return,0.5553,,44.921875,,,,,,FBP-YG-18.png,0.4,1.2,8,0.75,0,14,14,7,1,,,,,,,,,,,,,,,,,,,,,,,,,,,,,,,,,,,,,,,,
,,,,,V3_070,18,Female,2024-11-16_17h34.16.484,jersey_experiment_5_v3,2023.2.2,Win32,84.03361345,,,,,,,,,,,,,,,,345.7798,347.0737,347.0737,348.3678,return,0.6057,,40.625,,,,,,FBP-OG-91.png,0.37,1.2,42,0.5,0,15,15,41,1,,,,,,,,,,,,,,,,,,,,,,,,,,,,,,,,,,,,,,,,
,,,,,V3_070,18,Female,2024-11-16_17h34.16.484,jersey_experiment_5_v3,2023.2.2,Win32,84.03361345,,,,,,,,,,,,,,,,348.368,349.9092,349.9092,351.5092,return,0.6358,,82.8125,,,,,,FBP-PT-91.png,0.45,1.2,30,0.75,0,16,16,29,1,,,,,,,,,,,,,,,,,,,,,,,,,,,,,,,,,,,,,,,,
,,,,,V3_070,18,Female,2024-11-16_17h34.16.484,jersey_experiment_5_v3,2023.2.2,Win32,84.03361345,,,,,,,,,,,,,,,,351.5094,353.0506,353.0507,354.6153,return,0.1966,,21.35416667,,,,,,FBP-PT-91.png,0.35,1.2,26,0.75,0,17,17,25,1,,,,,,,,,,,,,,,,,,,,,,,,,,,,,,,,,,,,,,,,
,,,,,V3_070,18,Female,2024-11-16_17h34.16.484,jersey_experiment_5_v3,2023.2.2,Win32,84.03361345,,,,,,,,,,,,,,,,354.6155,355.9094,355.9095,357.0389,return,0.3129,,34.24479167,,,,,,FBP-OG-91.png,0.43,1.2,44,0.5,0,18,18,43,1,,,,,,,,,,,,,,,,,,,,,,,,,,,,,,,,,,,,,,,,
,,,,,V3_070,18,Female,2024-11-16_17h34.16.484,jersey_experiment_5_v3,2023.2.2,Win32,84.03361345,,,,,,,,,,,,,,,,357.0391,358.5917,358.5918,359.439,return,0.205,,22.265625,,,,,,FBP-PT-91.png,0.37,1.2,27,0.75,0,19,19,26,1,,,,,,,,,,,,,,,,,,,,,,,,,,,,,,,,,,,,,,,,
,,,,,V3_070,18,Female,2024-11-16_17h34.16.484,jersey_experiment_5_v3,2023.2.2,Win32,84.03361345,,,,,,,,,,,,,,,,359.4392,360.9805,360.9805,361.5684,return,0.1817,,20.3125,,,,,,FBP-YG-19.png,0.35,1.2,11,0.75,0,20,20,10,1,,,,,,,,,,,,,,,,,,,,,,,,,,,,,,,,,,,,,,,,
,,,,,V3_070,18,Female,2024-11-16_17h34.16.484,jersey_experiment_5_v3,2023.2.2,Win32,84.03361345,,,,,,,,,,,,,,,,361.5687,362.8625,362.8625,364.1097,return,0.1611,,88.15104167,,,,,,FBP-OG-91.png,0.45,1.2,45,0.5,0,21,21,44,1,,,,,,,,,,,,,,,,,,,,,,,,,,,,,,,,,,,,,,,,
,,,,,V3_070,18,Female,2024-11-16_17h34.16.484,jersey_experiment_5_v3,2023.2.2,Win32,84.03361345,,,,,,,,,,,,,,,,364.1099,365.6628,365.6628,367.345,return,0.8751,,15.36458333,,,,,,FBP-RB-71.png,0.37,1.2,47,0.75,0,22,22,46,1,,,,,,,,,,,,,,,,,,,,,,,,,,,,,,,,,,,,,,,,
,,,,,V3_070,18,Female,2024-11-16_17h34.16.484,jersey_experiment_5_v3,2023.2.2,Win32,84.03361345,,,,,,,,,,,,,,,,367.3452,368.6392,368.6393,369.4863,return,0.1569,,15.49479167,,,,,,FBP-OG-91.png,0.4,1.2,43,0.5,0,23,23,42,1,,,,,,,,,,,,,,,,,,,,,,,,,,,,,,,,,,,,,,,,
,,,,,V3_070,18,Female,2024-11-16_17h34.16.484,jersey_experiment_5_v3,2023.2.2,Win32,84.03361345,,,,,,,,,,,,,,,,369.4865,370.7805,370.7805,371.5217,return,0.1198,,15.49479167,,,,,,FBP-OG-71.png,0.35,1.2,31,0.5,0,24,24,30,1,,,,,,,,,,,,,,,,,,,,,,,,,,,,,,,,,,,,,,,,
,,,,,V3_070,18,Female,2024-11-16_17h34.16.484,jersey_experiment_5_v3,2023.2.2,Win32,84.03361345,,,,,,,,,,,,,,,,371.5219,373.0749,373.0749,374.3689,return,0.534,,85.67708333,,,,,,FBP-YG-17.png,0.45,1.2,5,0.75,0,25,25,4,1,,,,,,,,,,,,,,,,,,,,,,,,,,,,,,,,,,,,,,,,
,,,,,V3_070,18,Female,2024-11-16_17h34.16.484,jersey_experiment_5_v3,2023.2.2,Win32,84.03361345,,,,,,,,,,,,,,,,374.3691,375.663,375.663,376.9571,return,0.689,,29.94791667,,,,,,FBP-OG-81.png,0.4,1.2,38,0.5,0,26,26,37,1,,,,,,,,,,,,,,,,,,,,,,,,,,,,,,,,,,,,,,,,
,,,,,V3_070,18,Female,2024-11-16_17h34.16.484,jersey_experiment_5_v3,2023.2.2,Win32,84.03361345,,,,,,,,,,,,,,,,376.9573,378.4986,378.4986,379.7808,return,0.5185,,87.890625,,,,,,FBP-RB-91.png,0.45,1.2,60,0.75,0,27,27,59,1,,,,,,,,,,,,,,,,,,,,,,,,,,,,,,,,,,,,,,,,
,,,,,V3_070,18,Female,2024-11-16_17h34.16.484,jersey_experiment_5_v3,2023.2.2,Win32,84.03361345,,,,,,,,,,,,,,,,379.781,381.3222,381.3222,382.534,return,0.1887,,29.6875,,,,,,FBP-YG-19.png,0.37,1.2,12,0.75,0,28,28,11,1,,,,,,,,,,,,,,,,,,,,,,,,,,,,,,,,,,,,,,,,
,,,,,V3_070,18,Female,2024-11-16_17h34.16.484,jersey_experiment_5_v3,2023.2.2,Win32,84.03361345,,,,,,,,,,,,,,,,382.5342,384.0871,384.0871,384.7809,return,0.1261,,11.06770833,,,,,,FBP-RB-71.png,0.35,1.2,46,0.75,0,29,29,45,1,,,,,,,,,,,,,,,,,,,,,,,,,,,,,,,,,,,,,,,,
,,,,,V3_070,18,Female,2024-11-16_17h34.16.484,jersey_experiment_5_v3,2023.2.2,Win32,84.03361345,,,,,,,,,,,,,,,,384.7812,386.3341,386.3341,387.4163,return,0.1178,,70.83333333,,,,,,FBP-YG-18.png,0.43,1.2,9,0.75,0,30,30,8,1,,,,,,,,,,,,,,,,,,,,,,,,,,,,,,,,,,,,,,,,
,,,,,V3_070,18,Female,2024-11-16_17h34.16.484,jersey_experiment_5_v3,2023.2.2,Win32,84.03361345,,,,,,,,,,,,,,,,387.4166,388.7106,388.7106,389.7461,return,0.1064,,29.81770833,,,,,,FBP-OG-71.png,0.4,1.2,33,0.5,0,31,31,32,1,,,,,,,,,,,,,,,,,,,,,,,,,,,,,,,,,,,,,,,,
,,,,,V3_070,18,Female,2024-11-16_17h34.16.484,jersey_experiment_5_v3,2023.2.2,Win32,84.03361345,,,,,,,,,,,,,,,,389.7463,391.299,391.299,392.0519,return,0.0252,,64.84375,,,,,,FBP-YG-17.png,0.43,1.2,4,0.75,0,32,32,3,1,,,,,,,,,,,,,,,,,,,,,,,,,,,,,,,,,,,,,,,,
,,,,,V3_070,18,Female,2024-11-16_17h34.16.484,jersey_experiment_5_v3,2023.2.2,Win32,84.03361345,,,,,,,,,,,,,,,,392.0523,393.6049,393.6049,394.1579,return,0.1456,,63.671875,,,,,,FBP-PT-71.png,0.43,1.2,19,0.75,0,33,33,18,1,,,,,,,,,,,,,,,,,,,,,,,,,,,,,,,,,,,,,,,,
,,,,,V3_070,18,Female,2024-11-16_17h34.16.484,jersey_experiment_5_v3,2023.2.2,Win32,84.03361345,,,,,,,,,,,,,,,,394.1581,395.711,395.711,396.5109,return,0.1231,,18.22916667,,,,,,FBP-YG-17.png,0.35,1.2,1,0.75,0,34,34,0,1,,,,,,,,,,,,,,,,,,,,,,,,,,,,,,,,,,,,,,,,
,,,,,V3_070,18,Female,2024-11-16_17h34.16.484,jersey_experiment_5_v3,2023.2.2,Win32,84.03361345,,,,,,,,,,,,,,,,396.5112,398.064,398.064,399.0756,return,0.1546,,60.9375,,,,,,FBP-PT-81.png,0.43,1.2,24,0.75,0,35,35,23,1,,,,,,,,,,,,,,,,,,,,,,,,,,,,,,,,,,,,,,,,
,,,,,V3_070,18,Female,2024-11-16_17h34.16.484,jersey_experiment_5_v3,2023.2.2,Win32,84.03361345,,,,,,,,,,,,,,,,399.0759,400.6287,400.6287,402.1464,return,0.9209,,92.05729167,,,,,,FBP-PT-71.png,0.45,1.2,20,0.75,0,36,36,19,1,,,,,,,,,,,,,,,,,,,,,,,,,,,,,,,,,,,,,,,,
,,,,,V3_070,18,Female,2024-11-16_17h34.16.484,jersey_experiment_5_v3,2023.2.2,Win32,84.03361345,,,,,,,,,,,,,,,,402.1467,403.6994,403.6994,404.5112,return,0.1697,,69.921875,,,,,,FBP-YG-17.png,0.4,1.2,3,0.75,0,37,37,2,1,,,,,,,,,,,,,,,,,,,,,,,,,,,,,,,,,,,,,,,,
,,,,,V3_070,18,Female,2024-11-16_17h34.16.484,jersey_experiment_5_v3,2023.2.2,Win32,84.03361345,,,,,,,,,,,,,,,,404.5115,406.0643,406.0643,406.8997,return,0.2007,,33.33333333,,,,,,FBP-RB-91.png,0.37,1.2,57,0.75,0,38,38,56,1,,,,,,,,,,,,,,,,,,,,,,,,,,,,,,,,,,,,,,,,
,,,,,V3_070,18,Female,2024-11-16_17h34.16.484,jersey_experiment_5_v3,2023.2.2,Win32,84.03361345,,,,,,,,,,,,,,,,406.8999,408.1936,408.1937,409.9583,return,0.9885,,36.84895833,,,,,,FBP-OG-71.png,0.43,1.2,34,0.5,0,39,39,33,1,,,,,,,,,,,,,,,,,,,,,,,,,,,,,,,,,,,,,,,,
,,,,,V3_070,18,Female,2024-11-16_17h34.16.484,jersey_experiment_5_v3,2023.2.2,Win32,84.03361345,,,,,,,,,,,,,,,,409.9585,411.5114,411.5114,413.2292,return,0.6774,,19.01041667,,,,,,FBP-YG-18.png,0.37,1.2,7,0.75,0,40,40,6,1,,,,,,,,,,,,,,,,,,,,,,,,,,,,,,,,,,,,,,,,
,,,,,V3_070,18,Female,2024-11-16_17h34.16.484,jersey_experiment_5_v3,2023.2.2,Win32,84.03361345,,,,,,,,,,,,,,,,413.2295,414.5232,414.5233,415.8762,return,0.5201,,18.22916667,,,,,,FBP-OG-81.png,0.37,1.2,37,0.5,0,41,41,36,1,,,,,,,,,,,,,,,,,,,,,,,,,,,,,,,,,,,,,,,,
,,,,,V3_070,18,Female,2024-11-16_17h34.16.484,jersey_experiment_5_v3,2023.2.2,Win32,84.03361345,,,,,,,,,,,,,,,,415.8764,417.4293,417.4293,419.2881,return,0.8153,,44.27083333,,,,,,FBP-PT-71.png,0.4,1.2,18,0.75,0,42,42,17,1,,,,,,,,,,,,,,,,,,,,,,,,,,,,,,,,,,,,,,,,
,,,,,V3_070,18,Female,2024-11-16_17h34.16.484,jersey_experiment_5_v3,2023.2.2,Win32,84.03361345,,,,,,,,,,,,,,,,419.2884,420.5825,420.5825,422.7824,return,0.5948,,65.625,,,,,,FBP-OG-81.png,0.43,1.2,39,0.5,0,43,43,38,1,,,,,,,,,,,,,,,,,,,,,,,,,,,,,,,,,,,,,,,,
,,,,,V3_070,18,Female,2024-11-16_17h34.16.484,jersey_experiment_5_v3,2023.2.2,Win32,84.03361345,,,,,,,,,,,,,,,,422.7828,424.3355,424.3356,426.2531,return,1.0403,,27.21354167,,,,,,FBP-RB-91.png,0.35,1.2,56,0.75,0,44,44,55,1,,,,,,,,,,,,,,,,,,,,,,,,,,,,,,,,,,,,,,,,
,,,,,V3_070,18,Female,2024-11-16_17h34.16.484,jersey_experiment_5_v3,2023.2.2,Win32,84.03361345,,,,,,,,,,,,,,,,426.2533,427.8061,427.8062,429.0297,return,0.5676,,15.49479167,,,,,,FBP-YG-18.png,0.35,1.2,6,0.75,0,45,45,5,1,,,,,,,,,,,,,,,,,,,,,,,,,,,,,,,,,,,,,,,,
,,,,,V3_070,18,Female,2024-11-16_17h34.16.484,jersey_experiment_5_v3,2023.2.2,Win32,84.03361345,,,,,,,,,,,,,,,,429.03,430.5826,430.5827,432.2886,return,0.6015,,67.578125,,,,,,FBP-PT-91.png,0.43,1.2,29,0.75,0,46,46,28,1,,,,,,,,,,,,,,,,,,,,,,,,,,,,,,,,,,,,,,,,
,,,,,V3_070,18,Female,2024-11-16_17h34.16.484,jersey_experiment_5_v3,2023.2.2,Win32,84.03361345,,,,,,,,,,,,,,,,432.2889,433.8417,433.8418,435.2535,return,0.518,,81.77083333,,,,,,FBP-YG-18.png,0.45,1.2,10,0.75,0,47,47,9,1,,,,,,,,,,,,,,,,,,,,,,,,,,,,,,,,,,,,,,,,
,,,,,V3_070,18,Female,2024-11-16_17h34.16.484,jersey_experiment_5_v3,2023.2.2,Win32,84.03361345,,,,,,,,,,,,,,,,435.2537,436.8064,436.8066,438.8066,return,0.9968,,30.98958333,,,,,,FBP-PT-71.png,0.37,1.2,17,0.75,0,48,48,16,1,,,,,,,,,,,,,,,,,,,,,,,,,,,,,,,,,,,,,,,,
,,,,,V3_070,18,Female,2024-11-16_17h34.16.484,jersey_experiment_5_v3,2023.2.2,Win32,84.03361345,,,,,,,,,,,,,,,,438.8068,440.3596,440.3596,441.5009,return,0.4913,,32.68229167,,,,,,FBP-PT-71.png,0.35,1.2,16,0.75,0,49,49,15,1,,,,,,,,,,,,,,,,,,,,,,,,,,,,,,,,,,,,,,,,
,,,,,V3_070,18,Female,2024-11-16_17h34.16.484,jersey_experiment_5_v3,2023.2.2,Win32,84.03361345,,,,,,,,,,,,,,,,441.5012,443.0539,443.0539,444.7597,return,0.6126,,72.00520833,,,,,,FBP-RB-81.png,0.4,1.2,53,0.75,0,50,50,52,1,,,,,,,,,,,,,,,,,,,,,,,,,,,,,,,,,,,,,,,,
,,,,,V3_070,18,Female,2024-11-16_17h34.16.484,jersey_experiment_5_v3,2023.2.2,Win32,84.03361345,,,,,,,,,,,,,,,,444.76,446.3127,446.3128,447.4069,return,0.5594,,69.140625,,,,,,FBP-RB-91.png,0.4,1.2,58,0.75,0,51,51,57,1,,,,,,,,,,,,,,,,,,,,,,,,,,,,,,,,,,,,,,,,
,,,,,V3_070,18,Female,2024-11-16_17h34.16.484,jersey_experiment_5_v3,2023.2.2,Win32,84.03361345,,,,,,,,,,,,,,,,447.4071,448.9599,448.9599,450.1952,return,0.5528,,71.09375,,,,,,FBP-RB-91.png,0.43,1.2,59,0.75,0,52,52,58,1,,,,,,,,,,,,,,,,,,,,,,,,,,,,,,,,,,,,,,,,
,,,,,V3_070,18,Female,2024-11-16_17h34.16.484,jersey_experiment_5_v3,2023.2.2,Win32,84.03361345,,,,,,,,,,,,,,,,450.1954,451.4894,451.4895,454.9601,return,1.9467,,5.338541667,,,,,,FBP-OG-81.png,0.35,1.2,36,0.5,0,53,53,35,1,,,,,,,,,,,,,,,,,,,,,,,,,,,,,,,,,,,,,,,,
,,,,,V3_070,18,Female,2024-11-16_17h34.16.484,jersey_experiment_5_v3,2023.2.2,Win32,84.03361345,,,,,,,,,,,,,,,,454.9603,456.5131,456.5132,457.7602,return,0.629,,10.80729167,,,,,,FBP-YG-17.png,0.37,1.2,2,0.75,0,54,54,1,1,,,,,,,,,,,,,,,,,,,,,,,,,,,,,,,,,,,,,,,,
,,,,,V3_070,18,Female,2024-11-16_17h34.16.484,jersey_experiment_5_v3,2023.2.2,Win32,84.03361345,,,,,,,,,,,,,,,,457.7605,459.0544,459.0544,460.3722,return,0.542,,11.06770833,,,,,,FBP-OG-71.png,0.37,1.2,32,0.5,0,55,55,31,1,,,,,,,,,,,,,,,,,,,,,,,,,,,,,,,,,,,,,,,,
,,,,,V3_070,18,Female,2024-11-16_17h34.16.484,jersey_experiment_5_v3,2023.2.2,Win32,84.03361345,,,,,,,,,,,,,,,,460.3724,461.6661,461.6661,462.984,return,0.7059,,11.19791667,,,,,,FBP-OG-91.png,0.35,1.2,41,0.5,0,56,56,40,1,,,,,,,,,,,,,,,,,,,,,,,,,,,,,,,,,,,,,,,,
,,,,,V3_070,18,Female,2024-11-16_17h34.16.484,jersey_experiment_5_v3,2023.2.2,Win32,84.03361345,,,,,,,,,,,,,,,,462.9843,464.537,464.5371,467.0783,return,0.5332,,15.10416667,,,,,,FBP-PT-81.png,0.35,1.2,21,0.75,0,57,57,20,1,,,,,,,,,,,,,,,,,,,,,,,,,,,,,,,,,,,,,,,,
,,,,,V3_070,18,Female,2024-11-16_17h34.16.484,jersey_experiment_5_v3,2023.2.2,Win32,84.03361345,,,,,,,,,,,,,,,,467.0784,468.6311,468.6311,470.5959,return,1.1883,,45.703125,,,,,,FBP-PT-81.png,0.37,1.2,22,0.75,0,58,58,21,1,,,,,,,,,,,,,,,,,,,,,,,,,,,,,,,,,,,,,,,,
,,,,,V3_070,18,Female,2024-11-16_17h34.16.484,jersey_experiment_5_v3,2023.2.2,Win32,84.03361345,,,,,,,,,,,,,,,,470.5963,472.149,472.149,473.6079,return,0.7766,,63.02083333,,,,,,FBP-PT-81.png,0.4,1.2,23,0.75,0,59,59,22,1,,,,,,,,,,,,,,,,,,,,,,,,,,,,,,,,,,,,,,,,
,,,,,V3_070,18,Female,2024-11-16_17h34.16.484,jersey_experiment_5_v3,2023.2.2,Win32,84.03361345,,,,,,,,,,,,,,,,,,,,,,,,,,,,,,,,,,,,,,,473.608,593.6007,,,,,,,,,,,,,,,,,,,,,,,,,,,,,,,,,,,,,,
,,,,,V3_070,18,Female,2024-11-16_17h34.16.484,jersey_experiment_5_v3,2023.2.2,Win32,84.03361345,,,,,,,,,,,,,,,,,,,,,,,,,,,,,,,,,,,,,,,,,593.6007,602.1656,return,8.553,,,,,,,,,,,,,,,,,,,,,,,,,,,,,,,,,,
,,,,,V3_070,18,Female,2024-11-16_17h34.16.484,jersey_experiment_5_v3,2023.2.2,Win32,84.03361345,,,,,,,,,,,,,,,,602.1668,603.7187,603.7187,605.2833,return,0.5905,,80.59895833,,,,,,FBP-OG-18.png,0.45,1.2,40,0.75,,,,,,,,,,,,,0,0,0,39,1,,,,,,,,,,,,,,,,,,,,,,,,,,,,
,,,,,V3_070,18,Female,2024-11-16_17h34.16.484,jersey_experiment_5_v3,2023.2.2,Win32,84.03361345,,,,,,,,,,,,,,,,605.2835,606.5776,606.5777,608.1422,return,0.6309,,30.98958333,,,,,,FBP-PT-18.png,0.37,1.2,22,0.5,,,,,,,,,,,,,0,1,1,21,1,,,,,,,,,,,,,,,,,,,,,,,,,,,,
,,,,,V3_070,18,Female,2024-11-16_17h34.16.484,jersey_experiment_5_v3,2023.2.2,Win32,84.03361345,,,,,,,,,,,,,,,,608.1425,609.4364,609.4364,610.5188,return,0.5178,,27.86458333,,,,,,FBP-PT-18.png,0.35,1.2,21,0.5,,,,,,,,,,,,,0,2,2,20,1,,,,,,,,,,,,,,,,,,,,,,,,,,,,
,,,,,V3_070,18,Female,2024-11-16_17h34.16.484,jersey_experiment_5_v3,2023.2.2,Win32,84.03361345,,,,,,,,,,,,,,,,610.5191,611.813,611.813,614.0132,return,0.513,,71.875,,,,,,FBP-YG-71.png,0.4,1.2,3,0.5,,,,,,,,,,,,,0,3,3,2,1,,,,,,,,,,,,,,,,,,,,,,,,,,,,
,,,,,V3_070,18,Female,2024-11-16_17h34.16.484,jersey_experiment_5_v3,2023.2.2,Win32,84.03361345,,,,,,,,,,,,,,,,614.0135,615.5664,615.5664,617.0132,return,0.5333,,21.09375,,,,,,FBP-OG-17.png,0.37,1.2,32,0.75,,,,,,,,,,,,,0,4,4,31,1,,,,,,,,,,,,,,,,,,,,,,,,,,,,
,,,,,V3_070,18,Female,2024-11-16_17h34.16.484,jersey_experiment_5_v3,2023.2.2,Win32,84.03361345,,,,,,,,,,,,,,,,617.0134,618.3074,618.3075,619.9662,return,0.5253,,21.484375,,,,,,FBP-YG-91.png,0.37,1.2,12,0.5,,,,,,,,,,,,,0,5,5,11,1,,,,,,,,,,,,,,,,,,,,,,,,,,,,
,,,,,V3_070,18,Female,2024-11-16_17h34.16.484,jersey_experiment_5_v3,2023.2.2,Win32,84.03361345,,,,,,,,,,,,,,,,619.9665,621.2605,621.2607,622.6606,return,0.5095,,94.66145833,,,,,,FBP-RB-19.png,0.45,1.2,60,0.5,,,,,,,,,,,,,0,6,6,59,1,,,,,,,,,,,,,,,,,,,,,,,,,,,,
,,,,,V3_070,18,Female,2024-11-16_17h34.16.484,jersey_experiment_5_v3,2023.2.2,Win32,84.03361345,,,,,,,,,,,,,,,,622.6608,623.9545,623.9545,625.0134,return,0.5083,,93.359375,,,,,,FBP-RB-18.png,0.43,1.2,54,0.5,,,,,,,,,,,,,0,7,7,53,1,,,,,,,,,,,,,,,,,,,,,,,,,,,,
,,,,,V3_070,18,Female,2024-11-16_17h34.16.484,jersey_experiment_5_v3,2023.2.2,Win32,84.03361345,,,,,,,,,,,,,,,,625.0135,626.3077,626.3077,627.3195,return,0.5198,,93.359375,,,,,,FBP-PT-18.png,0.45,1.2,25,0.5,,,,,,,,,,,,,0,8,8,24,1,,,,,,,,,,,,,,,,,,,,,,,,,,,,
,,,,,V3_070,18,Female,2024-11-16_17h34.16.484,jersey_experiment_5_v3,2023.2.2,Win32,84.03361345,,,,,,,,,,,,,,,,627.3197,628.6138,628.6139,630.5668,return,0.1308,,28.38541667,,,,,,FBP-RB-17.png,0.35,1.2,46,0.5,,,,,,,,,,,,,0,9,9,45,1,,,,,,,,,,,,,,,,,,,,,,,,,,,,
,,,,,V3_070,18,Female,2024-11-16_17h34.16.484,jersey_experiment_5_v3,2023.2.2,Win32,84.03361345,,,,,,,,,,,,,,,,630.5671,631.8607,631.8608,632.7549,return,0.1085,,79.296875,,,,,,FBP-RB-18.png,0.45,1.2,55,0.5,,,,,,,,,,,,,0,10,10,54,1,,,,,,,,,,,,,,,,,,,,,,,,,,,,
,,,,,V3_070,18,Female,2024-11-16_17h34.16.484,jersey_experiment_5_v3,2023.2.2,Win32,84.03361345,,,,,,,,,,,,,,,,632.7551,634.308,634.308,634.8609,return,0.1108,,29.03645833,,,,,,FBP-OG-17.png,0.35,1.2,31,0.75,,,,,,,,,,,,,0,11,11,30,1,,,,,,,,,,,,,,,,,,,,,,,,,,,,
,,,,,V3_070,18,Female,2024-11-16_17h34.16.484,jersey_experiment_5_v3,2023.2.2,Win32,84.03361345,,,,,,,,,,,,,,,,634.861,636.1551,636.1551,636.9316,return,0.1286,,73.30729167,,,,,,FBP-RB-19.png,0.43,1.2,59,0.5,,,,,,,,,,,,,0,12,12,58,1,,,,,,,,,,,,,,,,,,,,,,,,,,,,
,,,,,V3_070,18,Female,2024-11-16_17h34.16.484,jersey_experiment_5_v3,2023.2.2,Win32,84.03361345,,,,,,,,,,,,,,,,636.9319,638.2257,638.2258,638.9788,return,0.1909,,75,,,,,,FBP-YG-81.png,0.45,1.2,10,0.5,,,,,,,,,,,,,0,13,13,9,1,,,,,,,,,,,,,,,,,,,,,,,,,,,,
,,,,,V3_070,18,Female,2024-11-16_17h34.16.484,jersey_experiment_5_v3,2023.2.2,Win32,84.03361345,,,,,,,,,,,,,,,,638.979,640.2727,640.2728,642.7201,return,1.9349,,17.96875,,,,,,FBP-RB-18.png,0.35,1.2,51,0.5,,,,,,,,,,,,,0,14,14,50,1,,,,,,,,,,,,,,,,,,,,,,,,,,,,
,,,,,V3_070,18,Female,2024-11-16_17h34.16.484,jersey_experiment_5_v3,2023.2.2,Win32,84.03361345,,,,,,,,,,,,,,,,642.7203,644.0142,644.0142,644.579,return,0.1673,,21.35416667,,,,,,FBP-RB-19.png,0.37,1.2,57,0.5,,,,,,,,,,,,,0,15,15,56,1,,,,,,,,,,,,,,,,,,,,,,,,,,,,
,,,,,V3_070,18,Female,2024-11-16_17h34.16.484,jersey_experiment_5_v3,2023.2.2,Win32,84.03361345,,,,,,,,,,,,,,,,644.5793,645.873,645.8731,646.9908,return,0.2067,,70.05208333,,,,,,FBP-YG-71.png,0.43,1.2,4,0.5,,,,,,,,,,,,,0,16,16,3,1,,,,,,,,,,,,,,,,,,,,,,,,,,,,
,,,,,V3_070,18,Female,2024-11-16_17h34.16.484,jersey_experiment_5_v3,2023.2.2,Win32,84.03361345,,,,,,,,,,,,,,,,646.991,648.2849,648.285,650.2145,return,0.2605,,18.75,,,,,,FBP-PT-17.png,0.35,1.2,16,0.5,,,,,,,,,,,,,0,17,17,15,1,,,,,,,,,,,,,,,,,,,,,,,,,,,,
,,,,,V3_070,18,Female,2024-11-16_17h34.16.484,jersey_experiment_5_v3,2023.2.2,Win32,84.03361345,,,,,,,,,,,,,,,,650.2147,651.5086,651.5086,652.3557,return,0.2256,,86.45833333,,,,,,FBP-PT-18.png,0.43,1.2,24,0.5,,,,,,,,,,,,,0,18,18,23,1,,,,,,,,,,,,,,,,,,,,,,,,,,,,
,,,,,V3_070,18,Female,2024-11-16_17h34.16.484,jersey_experiment_5_v3,2023.2.2,Win32,84.03361345,,,,,,,,,,,,,,,,652.3559,653.6499,653.65,654.4029,return,0.3057,,65.234375,,,,,,FBP-PT-19.png,0.4,1.2,28,0.5,,,,,,,,,,,,,0,19,19,27,1,,,,,,,,,,,,,,,,,,,,,,,,,,,,
,,,,,V3_070,18,Female,2024-11-16_17h34.16.484,jersey_experiment_5_v3,2023.2.2,Win32,84.03361345,,,,,,,,,,,,,,,,654.4032,655.956,655.956,656.6618,return,0.1562,,60.80729167,,,,,,FBP-OG-19.png,0.4,1.2,43,0.75,,,,,,,,,,,,,0,20,20,42,1,,,,,,,,,,,,,,,,,,,,,,,,,,,,
,,,,,V3_070,18,Female,2024-11-16_17h34.16.484,jersey_experiment_5_v3,2023.2.2,Win32,84.03361345,,,,,,,,,,,,,,,,656.662,657.956,657.956,659.2855,return,0.1886,,87.76041667,,,,,,FBP-RB-17.png,0.45,1.2,50,0.5,,,,,,,,,,,,,0,21,21,49,1,,,,,,,,,,,,,,,,,,,,,,,,,,,,
,,,,,V3_070,18,Female,2024-11-16_17h34.16.484,jersey_experiment_5_v3,2023.2.2,Win32,84.03361345,,,,,,,,,,,,,,,,659.2857,660.5795,660.5796,662.1091,return,0.1599,,19.79166667,,,,,,FBP-YG-81.png,0.35,1.2,6,0.5,,,,,,,,,,,,,0,22,22,5,1,,,,,,,,,,,,,,,,,,,,,,,,,,,,
,,,,,V3_070,18,Female,2024-11-16_17h34.16.484,jersey_experiment_5_v3,2023.2.2,Win32,84.03361345,,,,,,,,,,,,,,,,662.1094,663.6622,663.6622,664.5327,return,0.1286,,73.17708333,,,,,,FBP-OG-17.png,0.45,1.2,35,0.75,,,,,,,,,,,,,0,23,23,34,1,,,,,,,,,,,,,,,,,,,,,,,,,,,,
,,,,,V3_070,18,Female,2024-11-16_17h34.16.484,jersey_experiment_5_v3,2023.2.2,Win32,84.03361345,,,,,,,,,,,,,,,,664.5329,665.8268,665.8268,666.6738,return,0.2237,,28.38541667,,,,,,FBP-RB-17.png,0.37,1.2,47,0.5,,,,,,,,,,,,,0,24,24,46,1,,,,,,,,,,,,,,,,,,,,,,,,,,,,
,,,,,V3_070,18,Female,2024-11-16_17h34.16.484,jersey_experiment_5_v3,2023.2.2,Win32,84.03361345,,,,,,,,,,,,,,,,666.6741,667.9681,667.9681,669.2858,return,0.7064,,28.90625,,,,,,FBP-YG-81.png,0.37,1.2,7,0.5,,,,,,,,,,,,,0,25,25,6,1,,,,,,,,,,,,,,,,,,,,,,,,,,,,
,,,,,V3_070,18,Female,2024-11-16_17h34.16.484,jersey_experiment_5_v3,2023.2.2,Win32,84.03361345,,,,,,,,,,,,,,,,669.2862,670.5799,670.5799,671.7093,return,0.1493,,69.40104167,,,,,,FBP-RB-17.png,0.4,1.2,48,0.5,,,,,,,,,,,,,0,26,26,47,1,,,,,,,,,,,,,,,,,,,,,,,,,,,,
,,,,,V3_070,18,Female,2024-11-16_17h34.16.484,jersey_experiment_5_v3,2023.2.2,Win32,84.03361345,,,,,,,,,,,,,,,,671.7096,673.0035,673.0035,673.8388,return,0.2537,,72.52604167,,,,,,FBP-YG-91.png,0.45,1.2,15,0.5,,,,,,,,,,,,,0,27,27,14,1,,,,,,,,,,,,,,,,,,,,,,,,,,,,
,,,,,V3_070,18,Female,2024-11-16_17h34.16.484,jersey_experiment_5_v3,2023.2.2,Win32,84.03361345,,,,,,,,,,,,,,,,673.8391,675.1331,675.1331,676.1096,return,0.1964,,22.00520833,,,,,,FBP-YG-71.png,0.35,1.2,1,0.5,,,,,,,,,,,,,0,28,28,0,1,,,,,,,,,,,,,,,,,,,,,,,,,,,,
,,,,,V3_070,18,Female,2024-11-16_17h34.16.484,jersey_experiment_5_v3,2023.2.2,Win32,84.03361345,,,,,,,,,,,,,,,,676.1098,677.6624,677.6625,679.2036,return,0.1798,,76.5625,,,,,,FBP-OG-19.png,0.45,1.2,45,0.75,,,,,,,,,,,,,0,29,29,44,1,,,,,,,,,,,,,,,,,,,,,,,,,,,,
,,,,,V3_070,18,Female,2024-11-16_17h34.16.484,jersey_experiment_5_v3,2023.2.2,Win32,84.03361345,,,,,,,,,,,,,,,,679.2039,680.4979,680.4979,680.9331,return,0.081,,76.5625,,,,,,FBP-PT-17.png,0.43,1.2,19,0.5,,,,,,,,,,,,,0,30,30,18,1,,,,,,,,,,,,,,,,,,,,,,,,,,,,
,,,,,V3_070,18,Female,2024-11-16_17h34.16.484,jersey_experiment_5_v3,2023.2.2,Win32,84.03361345,,,,,,,,,,,,,,,,680.9334,682.2273,682.2274,683.2394,return,0.5416,,28.38541667,,,,,,FBP-RB-18.png,0.37,1.2,52,0.5,,,,,,,,,,,,,0,31,31,51,1,,,,,,,,,,,,,,,,,,,,,,,,,,,,
,,,,,V3_070,18,Female,2024-11-16_17h34.16.484,jersey_experiment_5_v3,2023.2.2,Win32,84.03361345,,,,,,,,,,,,,,,,683.2396,684.7922,684.7923,685.7805,return,0.2936,,25.91145833,,,,,,FBP-OG-18.png,0.37,1.2,37,0.75,,,,,,,,,,,,,0,32,32,36,1,,,,,,,,,,,,,,,,,,,,,,,,,,,,
,,,,,V3_070,18,Female,2024-11-16_17h34.16.484,jersey_experiment_5_v3,2023.2.2,Win32,84.03361345,,,,,,,,,,,,,,,,685.7807,687.0746,687.0746,688.0511,return,0.1563,,75.91145833,,,,,,FBP-PT-19.png,0.45,1.2,30,0.5,,,,,,,,,,,,,0,33,33,29,1,,,,,,,,,,,,,,,,,,,,,,,,,,,,
,,,,,V3_070,18,Female,2024-11-16_17h34.16.484,jersey_experiment_5_v3,2023.2.2,Win32,84.03361345,,,,,,,,,,,,,,,,688.0514,689.3454,689.3454,690.9571,return,1.0301,,20.44270833,,,,,,FBP-PT-17.png,0.37,1.2,17,0.5,,,,,,,,,,,,,0,34,34,16,1,,,,,,,,,,,,,,,,,,,,,,,,,,,,
,,,,,V3_070,18,Female,2024-11-16_17h34.16.484,jersey_experiment_5_v3,2023.2.2,Win32,84.03361345,,,,,,,,,,,,,,,,690.9574,692.5101,692.5102,693.663,return,0.4625,,22.65625,,,,,,FBP-OG-19.png,0.37,1.2,42,0.75,,,,,,,,,,,,,0,35,35,41,1,,,,,,,,,,,,,,,,,,,,,,,,,,,,
,,,,,V3_070,18,Female,2024-11-16_17h34.16.484,jersey_experiment_5_v3,2023.2.2,Win32,84.03361345,,,,,,,,,,,,,,,,693.6633,695.2161,695.2161,696.2868,return,0.0976,,73.95833333,,,,,,FBP-OG-18.png,0.43,1.2,39,0.75,,,,,,,,,,,,,0,36,36,38,1,,,,,,,,,,,,,,,,,,,,,,,,,,,,
,,,,,V3_070,18,Female,2024-11-16_17h34.16.484,jersey_experiment_5_v3,2023.2.2,Win32,84.03361345,,,,,,,,,,,,,,,,696.287,697.8398,697.8398,698.2869,return,0.1914,,73.95833333,,,,,,FBP-OG-19.png,0.43,1.2,44,0.75,,,,,,,,,,,,,0,37,37,43,1,,,,,,,,,,,,,,,,,,,,,,,,,,,,
,,,,,V3_070,18,Female,2024-11-16_17h34.16.484,jersey_experiment_5_v3,2023.2.2,Win32,84.03361345,,,,,,,,,,,,,,,,698.2871,699.581,699.581,700.1104,return,0.1567,,73.828125,,,,,,FBP-YG-81.png,0.43,1.2,9,0.5,,,,,,,,,,,,,0,38,38,8,1,,,,,,,,,,,,,,,,,,,,,,,,,,,,
,,,,,V3_070,18,Female,2024-11-16_17h34.16.484,jersey_experiment_5_v3,2023.2.2,Win32,84.03361345,,,,,,,,,,,,,,,,700.1107,701.4046,701.4047,701.9222,return,0.0738,,75.390625,,,,,,FBP-PT-17.png,0.45,1.2,20,0.5,,,,,,,,,,,,,0,39,39,19,1,,,,,,,,,,,,,,,,,,,,,,,,,,,,
,,,,,V3_070,18,Female,2024-11-16_17h34.16.484,jersey_experiment_5_v3,2023.2.2,Win32,84.03361345,,,,,,,,,,,,,,,,701.9225,703.2163,703.2164,704.24,return,0.5907,,74.86979167,,,,,,FBP-RB-17.png,0.43,1.2,49,0.5,,,,,,,,,,,,,0,40,40,48,1,,,,,,,,,,,,,,,,,,,,,,,,,,,,
,,,,,V3_070,18,Female,2024-11-16_17h34.16.484,jersey_experiment_5_v3,2023.2.2,Win32,84.03361345,,,,,,,,,,,,,,,,704.2402,705.7932,705.7932,706.8401,return,0.0707,,59.765625,,,,,,FBP-OG-17.png,0.4,1.2,33,0.75,,,,,,,,,,,,,0,41,41,32,1,,,,,,,,,,,,,,,,,,,,,,,,,,,,
,,,,,V3_070,18,Female,2024-11-16_17h34.16.484,jersey_experiment_5_v3,2023.2.2,Win32,84.03361345,,,,,,,,,,,,,,,,706.8403,708.1345,708.1345,708.8874,return,0.2354,,22.91666667,,,,,,FBP-PT-19.png,0.35,1.2,26,0.5,,,,,,,,,,,,,0,42,42,25,1,,,,,,,,,,,,,,,,,,,,,,,,,,,,
,,,,,V3_070,18,Female,2024-11-16_17h34.16.484,jersey_experiment_5_v3,2023.2.2,Win32,84.03361345,,,,,,,,,,,,,,,,708.8876,710.1814,710.1814,711.6638,return,0.8615,,22.78645833,,,,,,FBP-YG-91.png,0.4,1.2,13,0.5,,,,,,,,,,,,,0,43,43,12,1,,,,,,,,,,,,,,,,,,,,,,,,,,,,
,,,,,V3_070,18,Female,2024-11-16_17h34.16.484,jersey_experiment_5_v3,2023.2.2,Win32,84.03361345,,,,,,,,,,,,,,,,711.664,712.9579,712.958,714.1346,return,0.4708,,37.36979167,,,,,,FBP-RB-18.png,0.4,1.2,53,0.5,,,,,,,,,,,,,0,44,44,52,1,,,,,,,,,,,,,,,,,,,,,,,,,,,,
,,,,,V3_070,18,Female,2024-11-16_17h34.16.484,jersey_experiment_5_v3,2023.2.2,Win32,84.03361345,,,,,,,,,,,,,,,,714.1349,715.4286,715.4287,716.1464,return,0.1177,,18.359375,,,,,,FBP-RB-19.png,0.35,1.2,56,0.5,,,,,,,,,,,,,0,45,45,55,1,,,,,,,,,,,,,,,,,,,,,,,,,,,,
,,,,,V3_070,18,Female,2024-11-16_17h34.16.484,jersey_experiment_5_v3,2023.2.2,Win32,84.03361345,,,,,,,,,,,,,,,,716.1466,717.4405,717.4406,718.3111,return,0.2949,,34.89583333,,,,,,FBP-PT-18.png,0.4,1.2,23,0.5,,,,,,,,,,,,,0,46,46,22,1,,,,,,,,,,,,,,,,,,,,,,,,,,,,
,,,,,V3_070,18,Female,2024-11-16_17h34.16.484,jersey_experiment_5_v3,2023.2.2,Win32,84.03361345,,,,,,,,,,,,,,,,718.3113,719.8642,719.8643,720.4641,return,0.039,,65.234375,,,,,,FBP-OG-17.png,0.43,1.2,34,0.75,,,,,,,,,,,,,0,47,47,33,1,,,,,,,,,,,,,,,,,,,,,,,,,,,,
,,,,,V3_070,18,Female,2024-11-16_17h34.16.484,jersey_experiment_5_v3,2023.2.2,Win32,84.03361345,,,,,,,,,,,,,,,,720.4644,721.7582,721.7583,722.3819,return,0.1372,,65.625,,,,,,FBP-YG-91.png,0.43,1.2,14,0.5,,,,,,,,,,,,,0,48,48,13,1,,,,,,,,,,,,,,,,,,,,,,,,,,,,
,,,,,V3_070,18,Female,2024-11-16_17h34.16.484,jersey_experiment_5_v3,2023.2.2,Win32,84.03361345,,,,,,,,,,,,,,,,722.3821,723.676,723.6761,724.5937,return,0.3922,,71.09375,,,,,,FBP-YG-71.png,0.45,1.2,5,0.5,,,,,,,,,,,,,0,49,49,4,1,,,,,,,,,,,,,,,,,,,,,,,,,,,,
,,,,,V3_070,18,Female,2024-11-16_17h34.16.484,jersey_experiment_5_v3,2023.2.2,Win32,84.03361345,,,,,,,,,,,,,,,,724.594,725.8879,725.888,727.1234,return,0.5436,,23.4375,,,,,,FBP-YG-91.png,0.35,1.2,11,0.5,,,,,,,,,,,,,0,50,50,10,1,,,,,,,,,,,,,,,,,,,,,,,,,,,,
,,,,,V3_070,18,Female,2024-11-16_17h34.16.484,jersey_experiment_5_v3,2023.2.2,Win32,84.03361345,,,,,,,,,,,,,,,,727.1237,728.4174,728.4174,729.1587,return,0.1644,,17.83854167,,,,,,FBP-YG-71.png,0.37,1.2,2,0.5,,,,,,,,,,,,,0,51,51,1,1,,,,,,,,,,,,,,,,,,,,,,,,,,,,
,,,,,V3_070,18,Female,2024-11-16_17h34.16.484,jersey_experiment_5_v3,2023.2.2,Win32,84.03361345,,,,,,,,,,,,,,,,729.1589,730.4528,730.4528,731.9823,return,0.9471,,40.234375,,,,,,FBP-PT-17.png,0.4,1.2,18,0.5,,,,,,,,,,,,,0,52,52,17,1,,,,,,,,,,,,,,,,,,,,,,,,,,,,
,,,,,V3_070,18,Female,2024-11-16_17h34.16.484,jersey_experiment_5_v3,2023.2.2,Win32,84.03361345,,,,,,,,,,,,,,,,731.9825,733.5354,733.5355,734.6881,return,0.5348,,38.80208333,,,,,,FBP-OG-18.png,0.4,1.2,38,0.75,,,,,,,,,,,,,0,53,53,37,1,,,,,,,,,,,,,,,,,,,,,,,,,,,,
,,,,,V3_070,18,Female,2024-11-16_17h34.16.484,jersey_experiment_5_v3,2023.2.2,Win32,84.03361345,,,,,,,,,,,,,,,,734.6884,735.9823,735.9824,738.1354,return,0.0707,,20.44270833,,,,,,FBP-RB-19.png,0.4,1.2,58,0.5,,,,,,,,,,,,,0,54,54,57,1,,,,,,,,,,,,,,,,,,,,,,,,,,,,
,,,,,V3_070,18,Female,2024-11-16_17h34.16.484,jersey_experiment_5_v3,2023.2.2,Win32,84.03361345,,,,,,,,,,,,,,,,738.1356,739.6885,739.6885,740.4059,return,0.189,,15.75520833,,,,,,FBP-OG-18.png,0.35,1.2,36,0.75,,,,,,,,,,,,,0,55,55,35,1,,,,,,,,,,,,,,,,,,,,,,,,,,,,
,,,,,V3_070,18,Female,2024-11-16_17h34.16.484,jersey_experiment_5_v3,2023.2.2,Win32,84.03361345,,,,,,,,,,,,,,,,740.4062,741.959,741.9591,742.5121,return,0.2049,,6.640625,,,,,,FBP-OG-19.png,0.35,1.2,41,0.75,,,,,,,,,,,,,0,56,56,40,1,,,,,,,,,,,,,,,,,,,,,,,,,,,,
,,,,,V3_070,18,Female,2024-11-16_17h34.16.484,jersey_experiment_5_v3,2023.2.2,Win32,84.03361345,,,,,,,,,,,,,,,,742.5123,743.8062,743.8063,745.7003,return,1.0819,,60.41666667,,,,,,FBP-YG-81.png,0.4,1.2,8,0.5,,,,,,,,,,,,,0,57,57,7,1,,,,,,,,,,,,,,,,,,,,,,,,,,,,
,,,,,V3_070,18,Female,2024-11-16_17h34.16.484,jersey_experiment_5_v3,2023.2.2,Win32,84.03361345,,,,,,,,,,,,,,,,745.7006,746.9945,746.9945,747.9592,return,0.0624,,74.21875,,,,,,FBP-PT-19.png,0.43,1.2,29,0.5,,,,,,,,,,,,,0,58,58,28,1,,,,,,,,,,,,,,,,,,,,,,,,,,,,
,,,,,V3_070,18,Female,2024-11-16_17h34.16.484,jersey_experiment_5_v3,2023.2.2,Win32,84.03361345,,,,,,,,,,,,,,,,747.9595,749.2534,749.2534,750.9006,return,0.801,,28.77604167,,,,,,FBP-PT-19.png,0.37,1.2,27,0.5,,,,,,,,,,,,,0,59,59,26,1,,,,,,,,,,,,,,,,,,,,,,,,,,,,
,,,,,V3_070,18,Female,2024-11-16_17h34.16.484,jersey_experiment_5_v3,2023.2.2,Win32,84.03361345,,,,,,,,,,,,,,,,750.902,752.4538,752.4539,754.2772,return,0.62,,73.4375,,,,,,FBP-OG-71.png,0.43,1.2,34,0.75,,,,,,,,,,,,,,,,,,0,0,0,33,1,,,,,,,,,,,,,,,,,,,,,,,
,,,,,V3_070,18,Female,2024-11-16_17h34.16.484,jersey_experiment_5_v3,2023.2.2,Win32,84.03361345,,,,,,,,,,,,,,,,754.2774,755.5714,755.5714,756.2771,return,0.1991,,86.71875,,,,,,FBP-PT-81.png,0.43,1.2,24,0.5,,,,,,,,,,,,,,,,,,0,1,1,23,1,,,,,,,,,,,,,,,,,,,,,,,
,,,,,V3_070,18,Female,2024-11-16_17h34.16.484,jersey_experiment_5_v3,2023.2.2,Win32,84.03361345,,,,,,,,,,,,,,,,756.2774,757.5714,757.5715,758.0539,return,0.0943,,86.328125,,,,,,FBP-YG-18.png,0.45,1.2,10,0.5,,,,,,,,,,,,,,,,,,0,2,2,9,1,,,,,,,,,,,,,,,,,,,,,,,
,,,,,V3_070,18,Female,2024-11-16_17h34.16.484,jersey_experiment_5_v3,2023.2.2,Win32,84.03361345,,,,,,,,,,,,,,,,758.0542,759.3479,759.3479,760.5833,return,0.1885,,36.19791667,,,,,,FBP-PT-81.png,0.37,1.2,22,0.5,,,,,,,,,,,,,,,,,,0,3,3,21,1,,,,,,,,,,,,,,,,,,,,,,,
,,,,,V3_070,18,Female,2024-11-16_17h34.16.484,jersey_experiment_5_v3,2023.2.2,Win32,84.03361345,,,,,,,,,,,,,,,,760.5836,762.1363,762.1363,762.5833,return,0.1264,,36.58854167,,,,,,FBP-OG-91.png,0.4,1.2,43,0.75,,,,,,,,,,,,,,,,,,0,4,4,42,1,,,,,,,,,,,,,,,,,,,,,,,
,,,,,V3_070,18,Female,2024-11-16_17h34.16.484,jersey_experiment_5_v3,2023.2.2,Win32,84.03361345,,,,,,,,,,,,,,,,762.5836,763.8775,763.8775,765.1717,return,0.6926,,74.34895833,,,,,,FBP-YG-19.png,0.45,1.2,15,0.5,,,,,,,,,,,,,,,,,,0,5,5,14,1,,,,,,,,,,,,,,,,,,,,,,,
,,,,,V3_070,18,Female,2024-11-16_17h34.16.484,jersey_experiment_5_v3,2023.2.2,Win32,84.03361345,,,,,,,,,,,,,,,,765.1719,766.466,766.466,767.1246,return,0.0947,,35.80729167,,,,,,FBP-PT-91.png,0.37,1.2,27,0.5,,,,,,,,,,,,,,,,,,0,6,6,26,1,,,,,,,,,,,,,,,,,,,,,,,
,,,,,V3_070,18,Female,2024-11-16_17h34.16.484,jersey_experiment_5_v3,2023.2.2,Win32,84.03361345,,,,,,,,,,,,,,,,767.1249,768.4188,768.4188,769.1366,return,0.0639,,20.05208333,,,,,,FBP-RB-91.png,0.35,1.2,56,0.5,,,,,,,,,,,,,,,,,,0,7,7,55,1,,,,,,,,,,,,,,,,,,,,,,,
,,,,,V3_070,18,Female,2024-11-16_17h34.16.484,jersey_experiment_5_v3,2023.2.2,Win32,84.03361345,,,,,,,,,,,,,,,,769.1369,770.4308,770.4308,771.1603,return,0.0369,,15.49479167,,,,,,FBP-YG-19.png,0.35,1.2,11,0.5,,,,,,,,,,,,,,,,,,0,8,8,10,1,,,,,,,,,,,,,,,,,,,,,,,
,,,,,V3_070,18,Female,2024-11-16_17h34.16.484,jersey_experiment_5_v3,2023.2.2,Win32,84.03361345,,,,,,,,,,,,,,,,771.1605,772.4542,772.4542,773.2192,return,0.2224,,11.84895833,,,,,,FBP-RB-91.png,0.37,1.2,57,0.5,,,,,,,,,,,,,,,,,,0,9,9,56,1,,,,,,,,,,,,,,,,,,,,,,,
,,,,,V3_070,18,Female,2024-11-16_17h34.16.484,jersey_experiment_5_v3,2023.2.2,Win32,84.03361345,,,,,,,,,,,,,,,,773.2193,774.7722,774.7722,775.4427,return,0.109,,13.54166667,,,,,,FBP-OG-81.png,0.35,1.2,36,0.75,,,,,,,,,,,,,,,,,,0,10,10,35,1,,,,,,,,,,,,,,,,,,,,,,,
,,,,,V3_070,18,Female,2024-11-16_17h34.16.484,jersey_experiment_5_v3,2023.2.2,Win32,84.03361345,,,,,,,,,,,,,,,,775.4429,776.7369,776.737,777.2664,return,0.0838,,11.19791667,,,,,,FBP-YG-18.png,0.37,1.2,7,0.5,,,,,,,,,,,,,,,,,,0,11,11,6,1,,,,,,,,,,,,,,,,,,,,,,,
,,,,,V3_070,18,Female,2024-11-16_17h34.16.484,jersey_experiment_5_v3,2023.2.2,Win32,84.03361345,,,,,,,,,,,,,,,,777.2665,778.8193,778.8193,779.7487,return,0.18,,79.94791667,,,,,,FBP-OG-71.png,0.45,1.2,35,0.75,,,,,,,,,,,,,,,,,,0,12,12,34,1,,,,,,,,,,,,,,,,,,,,,,,
,,,,,V3_070,18,Female,2024-11-16_17h34.16.484,jersey_experiment_5_v3,2023.2.2,Win32,84.03361345,,,,,,,,,,,,,,,,779.749,781.0428,781.043,782.2429,return,0.2037,,18.359375,,,,,,FBP-YG-17.png,0.37,1.2,2,0.5,,,,,,,,,,,,,,,,,,0,13,13,1,1,,,,,,,,,,,,,,,,,,,,,,,
,,,,,V3_070,18,Female,2024-11-16_17h34.16.484,jersey_experiment_5_v3,2023.2.2,Win32,84.03361345,,,,,,,,,,,,,,,,782.2432,783.796,783.7961,784.3725,return,0.1188,,13.80208333,,,,,,FBP-OG-91.png,0.35,1.2,41,0.75,,,,,,,,,,,,,,,,,,0,14,14,40,1,,,,,,,,,,,,,,,,,,,,,,,
,,,,,V3_070,18,Female,2024-11-16_17h34.16.484,jersey_experiment_5_v3,2023.2.2,Win32,84.03361345,,,,,,,,,,,,,,,,784.3728,785.6665,785.6665,787.0314,return,0.4708,,93.09895833,,,,,,FBP-PT-91.png,0.45,1.2,30,0.5,,,,,,,,,,,,,,,,,,0,15,15,29,1,,,,,,,,,,,,,,,,,,,,,,,
,,,,,V3_070,18,Female,2024-11-16_17h34.16.484,jersey_experiment_5_v3,2023.2.2,Win32,84.03361345,,,,,,,,,,,,,,,,787.0316,788.3254,788.3254,789.949,return,0.1579,,58.72395833,,,,,,FBP-PT-81.png,0.4,1.2,23,0.5,,,,,,,,,,,,,,,,,,0,16,16,22,1,,,,,,,,,,,,,,,,,,,,,,,
,,,,,V3_070,18,Female,2024-11-16_17h34.16.484,jersey_experiment_5_v3,2023.2.2,Win32,84.03361345,,,,,,,,,,,,,,,,789.9493,791.2433,791.2433,792.0786,return,0.0995,,70.18229167,,,,,,FBP-PT-91.png,0.43,1.2,29,0.5,,,,,,,,,,,,,,,,,,0,17,17,28,1,,,,,,,,,,,,,,,,,,,,,,,
,,,,,V3_070,18,Female,2024-11-16_17h34.16.484,jersey_experiment_5_v3,2023.2.2,Win32,84.03361345,,,,,,,,,,,,,,,,792.0788,793.3728,793.3728,793.8315,return,0.118,,69.921875,,,,,,FBP-YG-17.png,0.45,1.2,5,0.5,,,,,,,,,,,,,,,,,,0,18,18,4,1,,,,,,,,,,,,,,,,,,,,,,,
,,,,,V3_070,18,Female,2024-11-16_17h34.16.484,jersey_experiment_5_v3,2023.2.2,Win32,84.03361345,,,,,,,,,,,,,,,,793.8317,795.3845,795.3845,796.3375,return,0.3537,,69.921875,,,,,,FBP-OG-91.png,0.45,1.2,45,0.75,,,,,,,,,,,,,,,,,,0,19,19,44,1,,,,,,,,,,,,,,,,,,,,,,,
,,,,,V3_070,18,Female,2024-11-16_17h34.16.484,jersey_experiment_5_v3,2023.2.2,Win32,84.03361345,,,,,,,,,,,,,,,,796.3377,797.6317,797.6318,798.2435,return,0.0148,,69.921875,,,,,,FBP-RB-81.png,0.45,1.2,55,0.5,,,,,,,,,,,,,,,,,,0,20,20,54,1,,,,,,,,,,,,,,,,,,,,,,,
,,,,,V3_070,18,Female,2024-11-16_17h34.16.484,jersey_experiment_5_v3,2023.2.2,Win32,84.03361345,,,,,,,,,,,,,,,,798.2436,799.7966,799.7966,800.2436,return,0.0622,,72.00520833,,,,,,FBP-OG-81.png,0.45,1.2,40,0.75,,,,,,,,,,,,,,,,,,0,21,21,39,1,,,,,,,,,,,,,,,,,,,,,,,
,,,,,V3_070,18,Female,2024-11-16_17h34.16.484,jersey_experiment_5_v3,2023.2.2,Win32,84.03361345,,,,,,,,,,,,,,,,800.2439,801.5378,801.5378,803.2672,return,0.2846,,14.84375,,,,,,FBP-YG-18.png,0.35,1.2,6,0.5,,,,,,,,,,,,,,,,,,0,22,22,5,1,,,,,,,,,,,,,,,,,,,,,,,
,,,,,V3_070,18,Female,2024-11-16_17h34.16.484,jersey_experiment_5_v3,2023.2.2,Win32,84.03361345,,,,,,,,,,,,,,,,803.2674,804.5613,804.5614,806.0555,return,0.4732,,67.70833333,,,,,,FBP-PT-71.png,0.43,1.2,19,0.5,,,,,,,,,,,,,,,,,,0,23,23,18,1,,,,,,,,,,,,,,,,,,,,,,,
,,,,,V3_070,18,Female,2024-11-16_17h34.16.484,jersey_experiment_5_v3,2023.2.2,Win32,84.03361345,,,,,,,,,,,,,,,,806.0558,807.6086,807.6087,808.3263,return,0.1498,,16.27604167,,,,,,FBP-OG-71.png,0.37,1.2,32,0.75,,,,,,,,,,,,,,,,,,0,24,24,31,1,,,,,,,,,,,,,,,,,,,,,,,
,,,,,V3_070,18,Female,2024-11-16_17h34.16.484,jersey_experiment_5_v3,2023.2.2,Win32,84.03361345,,,,,,,,,,,,,,,,808.3265,809.6205,809.6205,810.5617,return,0.0856,,65.234375,,,,,,FBP-YG-18.png,0.43,1.2,9,0.5,,,,,,,,,,,,,,,,,,0,25,25,8,1,,,,,,,,,,,,,,,,,,,,,,,
,,,,,V3_070,18,Female,2024-11-16_17h34.16.484,jersey_experiment_5_v3,2023.2.2,Win32,84.03361345,,,,,,,,,,,,,,,,810.562,811.8557,811.8557,812.3735,return,0.0555,,64.84375,,,,,,FBP-PT-71.png,0.4,1.2,18,0.5,,,,,,,,,,,,,,,,,,0,26,26,17,1,,,,,,,,,,,,,,,,,,,,,,,
,,,,,V3_070,18,Female,2024-11-16_17h34.16.484,jersey_experiment_5_v3,2023.2.2,Win32,84.03361345,,,,,,,,,,,,,,,,812.3738,813.6676,813.6676,814.0206,return,0.0007,,64.84375,,,,,,FBP-RB-81.png,0.43,1.2,54,0.5,,,,,,,,,,,,,,,,,,0,27,27,53,1,,,,,,,,,,,,,,,,,,,,,,,
,,,,,V3_070,18,Female,2024-11-16_17h34.16.484,jersey_experiment_5_v3,2023.2.2,Win32,84.03361345,,,,,,,,,,,,,,,,814.0208,815.5735,815.5736,816.2442,return,0.1648,,64.84375,,,,,,FBP-OG-81.png,0.43,1.2,39,0.75,,,,,,,,,,,,,,,,,,0,28,28,38,1,,,,,,,,,,,,,,,,,,,,,,,
,,,,,V3_070,18,Female,2024-11-16_17h34.16.484,jersey_experiment_5_v3,2023.2.2,Win32,84.03361345,,,,,,,,,,,,,,,,816.2445,817.5384,817.5384,818.5736,return,0.608,,64.84375,,,,,,FBP-RB-91.png,0.43,1.2,59,0.5,,,,,,,,,,,,,,,,,,0,29,29,58,1,,,,,,,,,,,,,,,,,,,,,,,
,,,,,V3_070,18,Female,2024-11-16_17h34.16.484,jersey_experiment_5_v3,2023.2.2,Win32,84.03361345,,,,,,,,,,,,,,,,818.5738,820.115,820.115,821.0914,return,0.3078,,11.58854167,,,,,,FBP-OG-91.png,0.37,1.2,42,0.75,,,,,,,,,,,,,,,,,,0,30,30,41,1,,,,,,,,,,,,,,,,,,,,,,,
,,,,,V3_070,18,Female,2024-11-16_17h34.16.484,jersey_experiment_5_v3,2023.2.2,Win32,84.03361345,,,,,,,,,,,,,,,,821.0916,822.3855,822.3856,823.1739,return,0.1176,,21.74479167,,,,,,FBP-RB-81.png,0.4,1.2,53,0.5,,,,,,,,,,,,,,,,,,0,31,31,52,1,,,,,,,,,,,,,,,,,,,,,,,
,,,,,V3_070,18,Female,2024-11-16_17h34.16.484,jersey_experiment_5_v3,2023.2.2,Win32,84.03361345,,,,,,,,,,,,,,,,823.1742,824.468,824.4681,825.1269,return,0.0947,,33.85416667,,,,,,FBP-YG-19.png,0.37,1.2,12,0.5,,,,,,,,,,,,,,,,,,0,32,32,11,1,,,,,,,,,,,,,,,,,,,,,,,
,,,,,V3_070,18,Female,2024-11-16_17h34.16.484,jersey_experiment_5_v3,2023.2.2,Win32,84.03361345,,,,,,,,,,,,,,,,825.1273,826.4212,826.4212,827.1271,return,0.0575,,20.703125,,,,,,FBP-PT-71.png,0.37,1.2,17,0.5,,,,,,,,,,,,,,,,,,0,33,33,16,1,,,,,,,,,,,,,,,,,,,,,,,
,,,,,V3_070,18,Female,2024-11-16_17h34.16.484,jersey_experiment_5_v3,2023.2.2,Win32,84.03361345,,,,,,,,,,,,,,,,827.1272,828.4212,828.4213,829.6449,return,0.5821,,69.27083333,,,,,,FBP-PT-71.png,0.45,1.2,20,0.5,,,,,,,,,,,,,,,,,,0,34,34,19,1,,,,,,,,,,,,,,,,,,,,,,,
,,,,,V3_070,18,Female,2024-11-16_17h34.16.484,jersey_experiment_5_v3,2023.2.2,Win32,84.03361345,,,,,,,,,,,,,,,,829.6452,830.9389,830.9389,832.433,return,0.8747,,35.67708333,,,,,,FBP-PT-91.png,0.4,1.2,28,0.5,,,,,,,,,,,,,,,,,,0,35,35,27,1,,,,,,,,,,,,,,,,,,,,,,,
,,,,,V3_070,18,Female,2024-11-16_17h34.16.484,jersey_experiment_5_v3,2023.2.2,Win32,84.03361345,,,,,,,,,,,,,,,,832.4333,833.9862,833.9863,834.5979,return,0.0004,,11.97916667,,,,,,FBP-OG-81.png,0.37,1.2,37,0.75,,,,,,,,,,,,,,,,,,0,36,36,36,1,,,,,,,,,,,,,,,,,,,,,,,
,,,,,V3_070,18,Female,2024-11-16_17h34.16.484,jersey_experiment_5_v3,2023.2.2,Win32,84.03361345,,,,,,,,,,,,,,,,834.5981,835.892,835.8921,836.5979,return,0.0154,,17.1875,,,,,,FBP-YG-19.png,0.4,1.2,13,0.5,,,,,,,,,,,,,,,,,,0,37,37,12,1,,,,,,,,,,,,,,,,,,,,,,,
,,,,,V3_070,18,Female,2024-11-16_17h34.16.484,jersey_experiment_5_v3,2023.2.2,Win32,84.03361345,,,,,,,,,,,,,,,,836.5982,837.892,837.8921,838.4334,return,0.024,,13.671875,,,,,,FBP-PT-71.png,0.35,1.2,16,0.5,,,,,,,,,,,,,,,,,,0,38,38,15,1,,,,,,,,,,,,,,,,,,,,,,,
,,,,,V3_070,18,Female,2024-11-16_17h34.16.484,jersey_experiment_5_v3,2023.2.2,Win32,84.03361345,,,,,,,,,,,,,,,,838.4336,839.9864,839.9865,840.5627,return,0.0027,,38.80208333,,,,,,FBP-OG-81.png,0.4,1.2,38,0.75,,,,,,,,,,,,,,,,,,0,39,39,37,1,,,,,,,,,,,,,,,,,,,,,,,
,,,,,V3_070,18,Female,2024-11-16_17h34.16.484,jersey_experiment_5_v3,2023.2.2,Win32,84.03361345,,,,,,,,,,,,,,,,840.5629,841.857,841.857,842.4805,return,0.0724,,18.48958333,,,,,,FBP-RB-71.png,0.37,1.2,47,0.5,,,,,,,,,,,,,,,,,,0,40,40,46,1,,,,,,,,,,,,,,,,,,,,,,,
,,,,,V3_070,18,Female,2024-11-16_17h34.16.484,jersey_experiment_5_v3,2023.2.2,Win32,84.03361345,,,,,,,,,,,,,,,,842.4806,843.7746,843.7747,844.7746,return,0.1033,,32.55208333,,,,,,FBP-YG-18.png,0.4,1.2,8,0.5,,,,,,,,,,,,,,,,,,0,41,41,7,1,,,,,,,,,,,,,,,,,,,,,,,
,,,,,V3_070,18,Female,2024-11-16_17h34.16.484,jersey_experiment_5_v3,2023.2.2,Win32,84.03361345,,,,,,,,,,,,,,,,844.775,846.0688,846.0688,846.7866,return,0.0627,,65.10416667,,,,,,FBP-YG-17.png,0.43,1.2,4,0.5,,,,,,,,,,,,,,,,,,0,42,42,3,1,,,,,,,,,,,,,,,,,,,,,,,
,,,,,V3_070,18,Female,2024-11-16_17h34.16.484,jersey_experiment_5_v3,2023.2.2,Win32,84.03361345,,,,,,,,,,,,,,,,846.7867,848.0807,848.0808,848.5748,return,0.0422,,37.76041667,,,,,,FBP-YG-17.png,0.35,1.2,1,0.5,,,,,,,,,,,,,,,,,,0,43,43,0,1,,,,,,,,,,,,,,,,,,,,,,,
,,,,,V3_070,18,Female,2024-11-16_17h34.16.484,jersey_experiment_5_v3,2023.2.2,Win32,84.03361345,,,,,,,,,,,,,,,,848.5751,849.869,849.869,850.4807,return,0.0279,,18.88020833,,,,,,FBP-RB-81.png,0.37,1.2,52,0.5,,,,,,,,,,,,,,,,,,0,44,44,51,1,,,,,,,,,,,,,,,,,,,,,,,
,,,,,V3_070,18,Female,2024-11-16_17h34.16.484,jersey_experiment_5_v3,2023.2.2,Win32,84.03361345,,,,,,,,,,,,,,,,850.481,852.0337,852.0337,854.0457,return,0.1492,,32.94270833,,,,,,FBP-OG-71.png,0.4,1.2,33,0.75,,,,,,,,,,,,,,,,,,0,45,45,32,1,,,,,,,,,,,,,,,,,,,,,,,
,,,,,V3_070,18,Female,2024-11-16_17h34.16.484,jersey_experiment_5_v3,2023.2.2,Win32,84.03361345,,,,,,,,,,,,,,,,854.046,855.3398,855.3398,856.2691,return,0.02,,12.23958333,,,,,,FBP-RB-71.png,0.35,1.2,46,0.5,,,,,,,,,,,,,,,,,,0,46,46,45,1,,,,,,,,,,,,,,,,,,,,,,,
,,,,,V3_070,18,Female,2024-11-16_17h34.16.484,jersey_experiment_5_v3,2023.2.2,Win32,84.03361345,,,,,,,,,,,,,,,,856.2694,857.8222,857.8222,859.8575,return,0.0826,,33.07291667,,,,,,FBP-OG-71.png,0.35,1.2,31,0.75,,,,,,,,,,,,,,,,,,0,47,47,30,1,,,,,,,,,,,,,,,,,,,,,,,
,,,,,V3_070,18,Female,2024-11-16_17h34.16.484,jersey_experiment_5_v3,2023.2.2,Win32,84.03361345,,,,,,,,,,,,,,,,859.8577,861.1517,861.1517,862.5989,return,0.4391,,17.96875,,,,,,FBP-PT-91.png,0.35,1.2,26,0.5,,,,,,,,,,,,,,,,,,0,48,48,25,1,,,,,,,,,,,,,,,,,,,,,,,
,,,,,V3_070,18,Female,2024-11-16_17h34.16.484,jersey_experiment_5_v3,2023.2.2,Win32,84.03361345,,,,,,,,,,,,,,,,862.5991,863.893,863.8931,865.0931,return,0.039,,92.83854167,,,,,,FBP-RB-71.png,0.45,1.2,50,0.5,,,,,,,,,,,,,,,,,,0,49,49,49,1,,,,,,,,,,,,,,,,,,,,,,,
,,,,,V3_070,18,Female,2024-11-16_17h34.16.484,jersey_experiment_5_v3,2023.2.2,Win32,84.03361345,,,,,,,,,,,,,,,,865.0934,866.3872,866.3872,867.1166,return,0.0078,,90.10416667,,,,,,FBP-PT-81.png,0.45,1.2,25,0.5,,,,,,,,,,,,,,,,,,0,50,50,24,1,,,,,,,,,,,,,,,,,,,,,,,
,,,,,V3_070,18,Female,2024-11-16_17h34.16.484,jersey_experiment_5_v3,2023.2.2,Win32,84.03361345,,,,,,,,,,,,,,,,867.1169,868.4108,868.4109,869.7757,return,0.0261,,36.58854167,,,,,,FBP-PT-81.png,0.35,1.2,21,0.5,,,,,,,,,,,,,,,,,,0,51,51,20,1,,,,,,,,,,,,,,,,,,,,,,,
,,,,,V3_070,18,Female,2024-11-16_17h34.16.484,jersey_experiment_5_v3,2023.2.2,Win32,84.03361345,,,,,,,,,,,,,,,,869.776,871.3285,871.3285,872.4698,return,0.1024,,68.88020833,,,,,,FBP-OG-91.png,0.43,1.2,44,0.75,,,,,,,,,,,,,,,,,,0,52,52,43,1,,,,,,,,,,,,,,,,,,,,,,,
,,,,,V3_070,18,Female,2024-11-16_17h34.16.484,jersey_experiment_5_v3,2023.2.2,Win32,84.03361345,,,,,,,,,,,,,,,,872.4701,873.7639,873.764,877.0112,return,2.1753,,19.140625,,,,,,FBP-RB-91.png,0.4,1.2,58,0.5,,,,,,,,,,,,,,,,,,0,53,53,57,1,,,,,,,,,,,,,,,,,,,,,,,
,,,,,V3_070,18,Female,2024-11-16_17h34.16.484,jersey_experiment_5_v3,2023.2.2,Win32,84.03361345,,,,,,,,,,,,,,,,877.0116,878.3052,878.3052,879.3171,return,0.0474,,15.625,,,,,,FBP-RB-81.png,0.35,1.2,51,0.5,,,,,,,,,,,,,,,,,,0,54,54,50,1,,,,,,,,,,,,,,,,,,,,,,,
,,,,,V3_070,18,Female,2024-11-16_17h34.16.484,jersey_experiment_5_v3,2023.2.2,Win32,84.03361345,,,,,,,,,,,,,,,,879.3174,880.6113,880.6114,882.6231,return,0.5672,,88.02083333,,,,,,FBP-RB-91.png,0.45,1.2,60,0.5,,,,,,,,,,,,,,,,,,0,55,55,59,1,,,,,,,,,,,,,,,,,,,,,,,
,,,,,V3_070,18,Female,2024-11-16_17h34.16.484,jersey_experiment_5_v3,2023.2.2,Win32,84.03361345,,,,,,,,,,,,,,,,882.6234,883.9173,883.9173,884.5997,return,0.0705,,87.23958333,,,,,,FBP-YG-19.png,0.43,1.2,14,0.5,,,,,,,,,,,,,,,,,,0,56,56,13,1,,,,,,,,,,,,,,,,,,,,,,,
,,,,,V3_070,18,Female,2024-11-16_17h34.16.484,jersey_experiment_5_v3,2023.2.2,Win32,84.03361345,,,,,,,,,,,,,,,,884.6,885.8938,885.8938,886.6704,return,0.0188,,68.75,,,,,,FBP-RB-71.png,0.43,1.2,49,0.5,,,,,,,,,,,,,,,,,,0,57,57,48,1,,,,,,,,,,,,,,,,,,,,,,,
,,,,,V3_070,18,Female,2024-11-16_17h34.16.484,jersey_experiment_5_v3,2023.2.2,Win32,84.03361345,,,,,,,,,,,,,,,,886.6706,887.9645,887.9646,889.0704,return,0.1365,,61.328125,,,,,,FBP-YG-17.png,0.4,1.2,3,0.5,,,,,,,,,,,,,,,,,,0,58,58,2,1,,,,,,,,,,,,,,,,,,,,,,,
,,,,,V3_070,18,Female,2024-11-16_17h34.16.484,jersey_experiment_5_v3,2023.2.2,Win32,84.03361345,,,,,,,,,,,,,,,,889.0707,890.3647,890.3647,891,return,0.0934,,61.45833333,,,,,,FBP-RB-71.png,0.4,1.2,48,0.5,,,,,,,,,,,,,,,,,,0,59,59,47,1,,,,,,,,,,,,,,,,,,,,,,,
,,,,,V3_070,18,Female,2024-11-16_17h34.16.484,jersey_experiment_5_v3,2023.2.2,Win32,84.03361345,,,,,,,,,,,,,,,,,,,,,,,,,,,,,,,,,,,,,,,,,,,,,,,,,,,,,,,,891.0001,897.1531,return,6.1456,,,,,,,,,,,,,,,,,,,
,,,,,V3_070,18,Female,2024-11-16_17h34.16.484,jersey_experiment_5_v3,2023.2.2,Win32,84.03361345,,,,,,,,,,,,,,,,,,,,,,,,,,,,,,,,,,,,,,,,,,,,,,,,,,,,,,,,,,,,,897.1532,901.9062,1,4.3393,return,0.4031,,,,,,,,,,,,
,,,,,V3_070,18,Female,2024-11-16_17h34.16.484,jersey_experiment_5_v3,2023.2.2,Win32,84.03361345,,,,,,,,,,,,,,,,,,,,,,,,,,,,,,,,,,,,,,,,,,,,,,,,,,,,,,,,,,,,,,,,,,,,901.9063,971.2506,"I saw a change in color between the jerseys and skin color. I wondered whether the study was measuring how our perceptions change based on color, as many of the football player body sizes remained the same at times and the colors had just changed.",right,65.3782,,,,,,
,,,,,V3_070,18,Female,2024-11-16_17h34.16.484,jersey_experiment_5_v3,2023.2.2,Win32,84.03361345,,,,,,,,,,,,,,,,,,,,,,,,,,,,,,,,,,,,,,,,,,,,,,,,,,,,,,,,,,,,,,,,,,,,,,,,,,971.2506,975.5208,return,4.2598,