requirements.started,requirements.stopped,key_resp_3.keys,key_resp_3.rt,key_resp_3.duration,Subject ID,Age,Gender,date,expName,psychopyVersion,OS,frameRate,instructions1.started,instructions1.stopped,key_resp.keys,key_resp.rt,key_resp.duration,example.started,example.stopped,enter_2.keys,enter_2.rt,enter_2.duration,instructions2.started,instructions2.stopped,enter_3.keys,enter_3.rt,enter_3.duration,image.started,image.stopped,slider_2.started,slider_2.stopped,next.keys,next.rt,next.duration,slider.response,trial_block_1.thisRepN,trial_block_1.thisTrialN,trial_block_1.thisN,trial_block_1.thisIndex,trial_block_1.ran,Path,Width,Height,Index,Duration,trial_block_2.thisRepN,trial_block_2.thisTrialN,trial_block_2.thisN,trial_block_2.thisIndex,trial_block_2.ran,rest_break.started,rest_break.stopped,end_break.started,end_break.stopped,key_resp_5.keys,key_resp_5.rt,key_resp_5.duration,trial_block_3.thisRepN,trial_block_3.thisTrialN,trial_block_3.thisN,trial_block_3.thisIndex,trial_block_3.ran,trial_block_4.thisRepN,trial_block_4.thisTrialN,trial_block_4.thisN,trial_block_4.thisIndex,trial_block_4.ran,questions_intro.started,questions_intro.stopped,enter_12.keys,enter_12.rt,enter_12.duration,question2.started,question2.stopped,question_doingbest.response,question_doingbest.rt,enter_15.keys,enter_15.rt,enter_15.duration,pattern.started,pattern.stopped,pattern_2.text,enter_17.keys,enter_17.rt,enter_17.duration,thankyou.started,thankyou.stopped,enter_14.keys,enter_14.rt,enter_14.duration
0.0002,15.231,return,15.2252,,V3_024,21,Female,2024-10-17_18h51.39.449,jersey_experiment_5_v3,2023.2.2,Win32,84.74576271,,,,,,,,,,,,,,,,,,,,,,,,,,,,,,,,,,,,,,,,,,,,,,,,,,,,,,,,,,,,,,,,,,,,,,,,,,,,,,
,,,,,V3_024,21,Female,2024-10-17_18h51.39.449,jersey_experiment_5_v3,2023.2.2,Win32,84.74576271,15.2311,26.3658,return,11.1262,,,,,,,,,,,,,,,,,,,,,,,,,,,,,,,,,,,,,,,,,,,,,,,,,,,,,,,,,,,,,,,,,,,,,,,,,,
,,,,,V3_024,21,Female,2024-10-17_18h51.39.449,jersey_experiment_5_v3,2023.2.2,Win32,84.74576271,,,,,,26.366,31.2486,return,4.8444,,,,,,,,,,,,,,,,,,,,,,,,,,,,,,,,,,,,,,,,,,,,,,,,,,,,,,,,,,,,,,,,,,,,,
,,,,,V3_024,21,Female,2024-10-17_18h51.39.449,jersey_experiment_5_v3,2023.2.2,Win32,84.74576271,,,,,,,,,,,31.2487,46.7549,return,15.4944,,,,,,,,,,,,,,,,,,,,,,,,,,,,,,,,,,,,,,,,,,,,,,,,,,,,,,,,,,,,,,,,
,,,,,V3_024,21,Female,2024-10-17_18h51.39.449,jersey_experiment_5_v3,2023.2.2,Win32,84.74576271,,,,,,,,,,,,,,,,46.757,48.3078,48.3079,68.4145,return,1.7934,,50,0,0,0,3,1,FBP-YG-71.png,0.43,1.2,4,0.75,,,,,,,,,,,,,,,,,,,,,,,,,,,,,,,,,,,,,,,,,,,,,
,,,,,V3_024,21,Female,2024-10-17_18h51.39.449,jersey_experiment_5_v3,2023.2.2,Win32,84.74576271,,,,,,,,,,,,,,,,68.4149,69.9675,69.9675,72.0851,return,0.47,,75,0,1,1,14,1,FBP-YG-91.png,0.45,1.2,15,0.75,,,,,,,,,,,,,,,,,,,,,,,,,,,,,,,,,,,,,,,,,,,,,
,,,,,V3_024,21,Female,2024-10-17_18h51.39.449,jersey_experiment_5_v3,2023.2.2,Win32,84.74576271,,,,,,,,,,,,,,,,72.0854,73.6382,73.6382,75.2148,return,0.2314,,50.65104167,0,2,2,1,1,FBP-YG-71.png,0.37,1.2,2,0.75,,,,,,,,,,,,,,,,,,,,,,,,,,,,,,,,,,,,,,,,,,,,,
,,,,,V3_024,21,Female,2024-10-17_18h51.39.449,jersey_experiment_5_v3,2023.2.2,Win32,84.74576271,,,,,,,,,,,,,,,,75.2149,76.7677,76.7677,77.5206,return,0.1354,,50.65104167,0,3,3,47,1,FBP-RB-17.png,0.4,1.2,48,0.75,,,,,,,,,,,,,,,,,,,,,,,,,,,,,,,,,,,,,,,,,,,,,
,,,,,V3_024,21,Female,2024-10-17_18h51.39.449,jersey_experiment_5_v3,2023.2.2,Win32,84.74576271,,,,,,,,,,,,,,,,77.5208,79.0736,79.0736,80.8149,return,0.1845,,75.13020833,0,4,4,58,1,FBP-RB-19.png,0.43,1.2,59,0.75,,,,,,,,,,,,,,,,,,,,,,,,,,,,,,,,,,,,,,,,,,,,,
,,,,,V3_024,21,Female,2024-10-17_18h51.39.449,jersey_experiment_5_v3,2023.2.2,Win32,84.74576271,,,,,,,,,,,,,,,,80.8151,82.3678,82.3678,84.6152,return,1.0588,,27.734375,0,5,5,21,1,FBP-PT-18.png,0.37,1.2,22,0.75,,,,,,,,,,,,,,,,,,,,,,,,,,,,,,,,,,,,,,,,,,,,,
,,,,,V3_024,21,Female,2024-10-17_18h51.39.449,jersey_experiment_5_v3,2023.2.2,Win32,84.74576271,,,,,,,,,,,,,,,,84.6154,86.168,86.1681,87.0622,return,0.1262,,34.765625,0,6,6,46,1,FBP-RB-17.png,0.37,1.2,47,0.75,,,,,,,,,,,,,,,,,,,,,,,,,,,,,,,,,,,,,,,,,,,,,
,,,,,V3_024,21,Female,2024-10-17_18h51.39.449,jersey_experiment_5_v3,2023.2.2,Win32,84.74576271,,,,,,,,,,,,,,,,87.0624,88.3563,88.3564,88.9682,return,0.2119,,34.765625,0,7,7,36,1,FBP-OG-18.png,0.37,1.2,37,0.5,,,,,,,,,,,,,,,,,,,,,,,,,,,,,,,,,,,,,,,,,,,,,
,,,,,V3_024,21,Female,2024-10-17_18h51.39.449,jersey_experiment_5_v3,2023.2.2,Win32,84.74576271,,,,,,,,,,,,,,,,88.9686,90.5212,90.5212,91.5213,return,0.1453,,89.19270833,0,8,8,24,1,FBP-PT-18.png,0.45,1.2,25,0.75,,,,,,,,,,,,,,,,,,,,,,,,,,,,,,,,,,,,,,,,,,,,,
,,,,,V3_024,21,Female,2024-10-17_18h51.39.449,jersey_experiment_5_v3,2023.2.2,Win32,84.74576271,,,,,,,,,,,,,,,,91.5214,92.8153,92.8154,93.7801,return,0.1339,,52.21354167,0,9,9,31,1,FBP-OG-17.png,0.37,1.2,32,0.5,,,,,,,,,,,,,,,,,,,,,,,,,,,,,,,,,,,,,,,,,,,,,
,,,,,V3_024,21,Female,2024-10-17_18h51.39.449,jersey_experiment_5_v3,2023.2.2,Win32,84.74576271,,,,,,,,,,,,,,,,93.7803,95.0744,95.0745,96.2154,return,0.1648,,94.27083333,0,10,10,34,1,FBP-OG-17.png,0.45,1.2,35,0.5,,,,,,,,,,,,,,,,,,,,,,,,,,,,,,,,,,,,,,,,,,,,,
,,,,,V3_024,21,Female,2024-10-17_18h51.39.449,jersey_experiment_5_v3,2023.2.2,Win32,84.74576271,,,,,,,,,,,,,,,,96.2157,97.5097,97.5097,98.1332,return,0.2035,,94.27083333,0,11,11,44,1,FBP-OG-19.png,0.45,1.2,45,0.5,,,,,,,,,,,,,,,,,,,,,,,,,,,,,,,,,,,,,,,,,,,,,
,,,,,V3_024,21,Female,2024-10-17_18h51.39.449,jersey_experiment_5_v3,2023.2.2,Win32,84.74576271,,,,,,,,,,,,,,,,98.1334,99.6864,99.6864,101.5569,return,0.292,,69.921875,0,12,12,52,1,FBP-RB-18.png,0.4,1.2,53,0.75,,,,,,,,,,,,,,,,,,,,,,,,,,,,,,,,,,,,,,,,,,,,,
,,,,,V3_024,21,Female,2024-10-17_18h51.39.449,jersey_experiment_5_v3,2023.2.2,Win32,84.74576271,,,,,,,,,,,,,,,,101.557,102.8509,102.851,104.3922,return,0.1866,,79.03645833,0,13,13,38,1,FBP-OG-18.png,0.43,1.2,39,0.5,,,,,,,,,,,,,,,,,,,,,,,,,,,,,,,,,,,,,,,,,,,,,
,,,,,V3_024,21,Female,2024-10-17_18h51.39.449,jersey_experiment_5_v3,2023.2.2,Win32,84.74576271,,,,,,,,,,,,,,,,104.3924,105.9452,105.9453,106.7338,return,0.1506,,79.03645833,0,14,14,19,1,FBP-PT-17.png,0.45,1.2,20,0.75,,,,,,,,,,,,,,,,,,,,,,,,,,,,,,,,,,,,,,,,,,,,,
,,,,,V3_024,21,Female,2024-10-17_18h51.39.449,jersey_experiment_5_v3,2023.2.2,Win32,84.74576271,,,,,,,,,,,,,,,,106.734,108.2865,108.2866,110.6161,return,0.1651,,60.02604167,0,15,15,17,1,FBP-PT-17.png,0.4,1.2,18,0.75,,,,,,,,,,,,,,,,,,,,,,,,,,,,,,,,,,,,,,,,,,,,,
,,,,,V3_024,21,Female,2024-10-17_18h51.39.449,jersey_experiment_5_v3,2023.2.2,Win32,84.74576271,,,,,,,,,,,,,,,,110.6163,111.9102,111.9103,113.169,return,0.2291,,46.35416667,0,16,16,40,1,FBP-OG-19.png,0.35,1.2,41,0.5,,,,,,,,,,,,,,,,,,,,,,,,,,,,,,,,,,,,,,,,,,,,,
,,,,,V3_024,21,Female,2024-10-17_18h51.39.449,jersey_experiment_5_v3,2023.2.2,Win32,84.74576271,,,,,,,,,,,,,,,,113.1693,114.722,114.7221,115.6397,return,0.2356,,48.95833333,0,17,17,27,1,FBP-PT-19.png,0.4,1.2,28,0.75,,,,,,,,,,,,,,,,,,,,,,,,,,,,,,,,,,,,,,,,,,,,,
,,,,,V3_024,21,Female,2024-10-17_18h51.39.449,jersey_experiment_5_v3,2023.2.2,Win32,84.74576271,,,,,,,,,,,,,,,,115.6398,116.9339,116.9339,118.3339,return,1.0914,,26.5625,0,18,18,30,1,FBP-OG-17.png,0.35,1.2,31,0.5,,,,,,,,,,,,,,,,,,,,,,,,,,,,,,,,,,,,,,,,,,,,,
,,,,,V3_024,21,Female,2024-10-17_18h51.39.449,jersey_experiment_5_v3,2023.2.2,Win32,84.74576271,,,,,,,,,,,,,,,,118.3342,119.8869,119.8869,120.6164,return,0.1748,,35.15625,0,19,19,56,1,FBP-RB-19.png,0.37,1.2,57,0.75,,,,,,,,,,,,,,,,,,,,,,,,,,,,,,,,,,,,,,,,,,,,,
,,,,,V3_024,21,Female,2024-10-17_18h51.39.449,jersey_experiment_5_v3,2023.2.2,Win32,84.74576271,,,,,,,,,,,,,,,,120.6166,122.1694,122.1694,123.7812,return,0.1785,,79.81770833,0,20,20,28,1,FBP-PT-19.png,0.43,1.2,29,0.75,,,,,,,,,,,,,,,,,,,,,,,,,,,,,,,,,,,,,,,,,,,,,
,,,,,V3_024,21,Female,2024-10-17_18h51.39.449,jersey_experiment_5_v3,2023.2.2,Win32,84.74576271,,,,,,,,,,,,,,,,123.7815,125.3344,125.3344,125.9931,return,0.1575,,94.140625,0,21,21,23,1,FBP-PT-18.png,0.43,1.2,24,0.75,,,,,,,,,,,,,,,,,,,,,,,,,,,,,,,,,,,,,,,,,,,,,
,,,,,V3_024,21,Female,2024-10-17_18h51.39.449,jersey_experiment_5_v3,2023.2.2,Win32,84.74576271,,,,,,,,,,,,,,,,125.9933,127.5462,127.5462,128.7226,return,0.1655,,96.61458333,0,22,22,53,1,FBP-RB-18.png,0.43,1.2,54,0.75,,,,,,,,,,,,,,,,,,,,,,,,,,,,,,,,,,,,,,,,,,,,,
,,,,,V3_024,21,Female,2024-10-17_18h51.39.449,jersey_experiment_5_v3,2023.2.2,Win32,84.74576271,,,,,,,,,,,,,,,,128.7227,130.2754,130.2754,131.3462,return,0.1694,,76.171875,0,23,23,6,1,FBP-YG-81.png,0.37,1.2,7,0.75,,,,,,,,,,,,,,,,,,,,,,,,,,,,,,,,,,,,,,,,,,,,,
,,,,,V3_024,21,Female,2024-10-17_18h51.39.449,jersey_experiment_5_v3,2023.2.2,Win32,84.74576271,,,,,,,,,,,,,,,,131.3464,132.6403,132.6403,133.6639,return,0.1911,,71.35416667,0,24,24,41,1,FBP-OG-19.png,0.37,1.2,42,0.5,,,,,,,,,,,,,,,,,,,,,,,,,,,,,,,,,,,,,,,,,,,,,
,,,,,V3_024,21,Female,2024-10-17_18h51.39.449,jersey_experiment_5_v3,2023.2.2,Win32,84.74576271,,,,,,,,,,,,,,,,133.6641,135.2168,135.2169,136.264,return,0.1728,,47.65625,0,25,25,5,1,FBP-YG-81.png,0.35,1.2,6,0.75,,,,,,,,,,,,,,,,,,,,,,,,,,,,,,,,,,,,,,,,,,,,,
,,,,,V3_024,21,Female,2024-10-17_18h51.39.449,jersey_experiment_5_v3,2023.2.2,Win32,84.74576271,,,,,,,,,,,,,,,,136.2643,137.817,137.817,138.5347,return,0.1884,,96.484375,0,26,26,49,1,FBP-RB-17.png,0.45,1.2,50,0.75,,,,,,,,,,,,,,,,,,,,,,,,,,,,,,,,,,,,,,,,,,,,,
,,,,,V3_024,21,Female,2024-10-17_18h51.39.449,jersey_experiment_5_v3,2023.2.2,Win32,84.74576271,,,,,,,,,,,,,,,,138.5348,139.8291,139.8291,140.9464,return,0.1925,,94.53125,0,27,27,37,1,FBP-OG-18.png,0.4,1.2,38,0.5,,,,,,,,,,,,,,,,,,,,,,,,,,,,,,,,,,,,,,,,,,,,,
,,,,,V3_024,21,Female,2024-10-17_18h51.39.449,jersey_experiment_5_v3,2023.2.2,Win32,84.74576271,,,,,,,,,,,,,,,,140.9467,142.4995,142.4995,143.1348,return,0.2197,,95.05208333,0,28,28,29,1,FBP-PT-19.png,0.45,1.2,30,0.75,,,,,,,,,,,,,,,,,,,,,,,,,,,,,,,,,,,,,,,,,,,,,
,,,,,V3_024,21,Female,2024-10-17_18h51.39.449,jersey_experiment_5_v3,2023.2.2,Win32,84.74576271,,,,,,,,,,,,,,,,143.1351,144.6878,144.6879,145.5703,return,0.4027,,95.05208333,0,29,29,59,1,FBP-RB-19.png,0.45,1.2,60,0.75,,,,,,,,,,,,,,,,,,,,,,,,,,,,,,,,,,,,,,,,,,,,,
,,,,,V3_024,21,Female,2024-10-17_18h51.39.449,jersey_experiment_5_v3,2023.2.2,Win32,84.74576271,,,,,,,,,,,,,,,,145.5705,146.8643,146.8643,147.4762,return,0.4144,,95.05208333,0,30,30,43,1,FBP-OG-19.png,0.43,1.2,44,0.5,,,,,,,,,,,,,,,,,,,,,,,,,,,,,,,,,,,,,,,,,,,,,
,,,,,V3_024,21,Female,2024-10-17_18h51.39.449,jersey_experiment_5_v3,2023.2.2,Win32,84.74576271,,,,,,,,,,,,,,,,147.4766,149.0291,149.0291,150.1822,return,0.2272,,73.17708333,0,31,31,45,1,FBP-RB-17.png,0.35,1.2,46,0.75,,,,,,,,,,,,,,,,,,,,,,,,,,,,,,,,,,,,,,,,,,,,,
,,,,,V3_024,21,Female,2024-10-17_18h51.39.449,jersey_experiment_5_v3,2023.2.2,Win32,84.74576271,,,,,,,,,,,,,,,,150.1825,151.4763,151.4764,153.7116,return,0.7328,,91.40625,0,32,32,42,1,FBP-OG-19.png,0.4,1.2,43,0.5,,,,,,,,,,,,,,,,,,,,,,,,,,,,,,,,,,,,,,,,,,,,,
,,,,,V3_024,21,Female,2024-10-17_18h51.39.449,jersey_experiment_5_v3,2023.2.2,Win32,84.74576271,,,,,,,,,,,,,,,,153.7119,155.2647,155.2648,156.2883,return,0.2045,,67.31770833,0,33,33,15,1,FBP-PT-17.png,0.35,1.2,16,0.75,,,,,,,,,,,,,,,,,,,,,,,,,,,,,,,,,,,,,,,,,,,,,
,,,,,V3_024,21,Female,2024-10-17_18h51.39.449,jersey_experiment_5_v3,2023.2.2,Win32,84.74576271,,,,,,,,,,,,,,,,156.2884,157.8412,157.8412,158.5001,return,0.2243,,67.31770833,0,34,34,11,1,FBP-YG-91.png,0.37,1.2,12,0.75,,,,,,,,,,,,,,,,,,,,,,,,,,,,,,,,,,,,,,,,,,,,,
,,,,,V3_024,21,Female,2024-10-17_18h51.39.449,jersey_experiment_5_v3,2023.2.2,Win32,84.74576271,,,,,,,,,,,,,,,,158.5005,159.7943,159.7943,160.8179,return,0.2284,,96.35416667,0,35,35,39,1,FBP-OG-18.png,0.45,1.2,40,0.5,,,,,,,,,,,,,,,,,,,,,,,,,,,,,,,,,,,,,,,,,,,,,
,,,,,V3_024,21,Female,2024-10-17_18h51.39.449,jersey_experiment_5_v3,2023.2.2,Win32,84.74576271,,,,,,,,,,,,,,,,160.8181,162.3708,162.3708,163.1356,return,0.3838,,96.35416667,0,36,36,54,1,FBP-RB-18.png,0.45,1.2,55,0.75,,,,,,,,,,,,,,,,,,,,,,,,,,,,,,,,,,,,,,,,,,,,,
,,,,,V3_024,21,Female,2024-10-17_18h51.39.449,jersey_experiment_5_v3,2023.2.2,Win32,84.74576271,,,,,,,,,,,,,,,,163.136,164.6885,164.6885,165.2886,return,0.2279,,96.35416667,0,37,37,4,1,FBP-YG-71.png,0.45,1.2,5,0.75,,,,,,,,,,,,,,,,,,,,,,,,,,,,,,,,,,,,,,,,,,,,,
,,,,,V3_024,21,Female,2024-10-17_18h51.39.449,jersey_experiment_5_v3,2023.2.2,Win32,84.74576271,,,,,,,,,,,,,,,,165.2888,166.8415,166.8415,167.4768,return,0.2358,,96.35416667,0,38,38,48,1,FBP-RB-17.png,0.43,1.2,49,0.75,,,,,,,,,,,,,,,,,,,,,,,,,,,,,,,,,,,,,,,,,,,,,
,,,,,V3_024,21,Female,2024-10-17_18h51.39.449,jersey_experiment_5_v3,2023.2.2,Win32,84.74576271,,,,,,,,,,,,,,,,167.477,169.0298,169.0298,169.6297,return,0.1578,,96.35416667,0,39,39,8,1,FBP-YG-81.png,0.43,1.2,9,0.75,,,,,,,,,,,,,,,,,,,,,,,,,,,,,,,,,,,,,,,,,,,,,
,,,,,V3_024,21,Female,2024-10-17_18h51.39.449,jersey_experiment_5_v3,2023.2.2,Win32,84.74576271,,,,,,,,,,,,,,,,169.6299,171.1712,171.1712,172.0888,return,0.2276,,69.27083333,0,40,40,25,1,FBP-PT-19.png,0.35,1.2,26,0.75,,,,,,,,,,,,,,,,,,,,,,,,,,,,,,,,,,,,,,,,,,,,,
,,,,,V3_024,21,Female,2024-10-17_18h51.39.449,jersey_experiment_5_v3,2023.2.2,Win32,84.74576271,,,,,,,,,,,,,,,,172.0889,173.6418,173.6418,174.689,return,0.2177,,65.88541667,0,41,41,16,1,FBP-PT-17.png,0.37,1.2,17,0.75,,,,,,,,,,,,,,,,,,,,,,,,,,,,,,,,,,,,,,,,,,,,,
,,,,,V3_024,21,Female,2024-10-17_18h51.39.449,jersey_experiment_5_v3,2023.2.2,Win32,84.74576271,,,,,,,,,,,,,,,,174.6893,176.2419,176.2419,177.5831,return,0.1959,,56.38020833,0,42,42,51,1,FBP-RB-18.png,0.37,1.2,52,0.75,,,,,,,,,,,,,,,,,,,,,,,,,,,,,,,,,,,,,,,,,,,,,
,,,,,V3_024,21,Female,2024-10-17_18h51.39.449,jersey_experiment_5_v3,2023.2.2,Win32,84.74576271,,,,,,,,,,,,,,,,177.5833,178.8773,178.8773,180.2303,return,0.1903,,92.31770833,0,43,43,33,1,FBP-OG-17.png,0.43,1.2,34,0.5,,,,,,,,,,,,,,,,,,,,,,,,,,,,,,,,,,,,,,,,,,,,,
,,,,,V3_024,21,Female,2024-10-17_18h51.39.449,jersey_experiment_5_v3,2023.2.2,Win32,84.74576271,,,,,,,,,,,,,,,,180.2305,181.7832,181.7832,182.7245,return,0.2277,,42.1875,0,44,44,26,1,FBP-PT-19.png,0.37,1.2,27,0.75,,,,,,,,,,,,,,,,,,,,,,,,,,,,,,,,,,,,,,,,,,,,,
,,,,,V3_024,21,Female,2024-10-17_18h51.39.449,jersey_experiment_5_v3,2023.2.2,Win32,84.74576271,,,,,,,,,,,,,,,,182.7247,184.2776,184.2776,185.5363,return,0.2178,,29.03645833,0,45,45,10,1,FBP-YG-91.png,0.35,1.2,11,0.75,,,,,,,,,,,,,,,,,,,,,,,,,,,,,,,,,,,,,,,,,,,,,
,,,,,V3_024,21,Female,2024-10-17_18h51.39.449,jersey_experiment_5_v3,2023.2.2,Win32,84.74576271,,,,,,,,,,,,,,,,185.5366,187.0895,187.0896,187.9835,return,0.1485,,91.796875,0,46,46,12,1,FBP-YG-91.png,0.4,1.2,13,0.75,,,,,,,,,,,,,,,,,,,,,,,,,,,,,,,,,,,,,,,,,,,,,
,,,,,V3_024,21,Female,2024-10-17_18h51.39.449,jersey_experiment_5_v3,2023.2.2,Win32,84.74576271,,,,,,,,,,,,,,,,187.9837,189.5365,189.5366,190.5836,return,0.1881,,84.24479167,0,47,47,57,1,FBP-RB-19.png,0.4,1.2,58,0.75,,,,,,,,,,,,,,,,,,,,,,,,,,,,,,,,,,,,,,,,,,,,,
,,,,,V3_024,21,Female,2024-10-17_18h51.39.449,jersey_experiment_5_v3,2023.2.2,Win32,84.74576271,,,,,,,,,,,,,,,,190.5838,192.1252,192.1253,192.866,return,0.1671,,91.796875,0,48,48,7,1,FBP-YG-81.png,0.4,1.2,8,0.75,,,,,,,,,,,,,,,,,,,,,,,,,,,,,,,,,,,,,,,,,,,,,
,,,,,V3_024,21,Female,2024-10-17_18h51.39.449,jersey_experiment_5_v3,2023.2.2,Win32,84.74576271,,,,,,,,,,,,,,,,192.8662,194.419,194.419,195.3956,return,0.201,,69.921875,0,49,49,20,1,FBP-PT-18.png,0.35,1.2,21,0.75,,,,,,,,,,,,,,,,,,,,,,,,,,,,,,,,,,,,,,,,,,,,,
,,,,,V3_024,21,Female,2024-10-17_18h51.39.449,jersey_experiment_5_v3,2023.2.2,Win32,84.74576271,,,,,,,,,,,,,,,,195.3958,196.9485,196.9486,197.9016,return,0.1703,,69.921875,0,50,50,0,1,FBP-YG-71.png,0.35,1.2,1,0.75,,,,,,,,,,,,,,,,,,,,,,,,,,,,,,,,,,,,,,,,,,,,,
,,,,,V3_024,21,Female,2024-10-17_18h51.39.449,jersey_experiment_5_v3,2023.2.2,Win32,84.74576271,,,,,,,,,,,,,,,,197.9018,199.4546,199.4546,200.6311,return,0.1643,,93.22916667,0,51,51,9,1,FBP-YG-81.png,0.45,1.2,10,0.75,,,,,,,,,,,,,,,,,,,,,,,,,,,,,,,,,,,,,,,,,,,,,
,,,,,V3_024,21,Female,2024-10-17_18h51.39.449,jersey_experiment_5_v3,2023.2.2,Win32,84.74576271,,,,,,,,,,,,,,,,200.6313,201.9252,201.9252,203.0312,return,0.1669,,71.09375,0,52,52,32,1,FBP-OG-17.png,0.4,1.2,33,0.5,,,,,,,,,,,,,,,,,,,,,,,,,,,,,,,,,,,,,,,,,,,,,
,,,,,V3_024,21,Female,2024-10-17_18h51.39.449,jersey_experiment_5_v3,2023.2.2,Win32,84.74576271,,,,,,,,,,,,,,,,203.0315,204.5842,204.5842,205.2665,return,0.2119,,71.09375,0,53,53,22,1,FBP-PT-18.png,0.4,1.2,23,0.75,,,,,,,,,,,,,,,,,,,,,,,,,,,,,,,,,,,,,,,,,,,,,
,,,,,V3_024,21,Female,2024-10-17_18h51.39.449,jersey_experiment_5_v3,2023.2.2,Win32,84.74576271,,,,,,,,,,,,,,,,205.2668,206.8197,206.8197,207.6313,return,0.1487,,92.1875,0,54,54,18,1,FBP-PT-17.png,0.43,1.2,19,0.75,,,,,,,,,,,,,,,,,,,,,,,,,,,,,,,,,,,,,,,,,,,,,
,,,,,V3_024,21,Female,2024-10-17_18h51.39.449,jersey_experiment_5_v3,2023.2.2,Win32,84.74576271,,,,,,,,,,,,,,,,207.6315,209.1845,209.1845,210.4668,return,0.1805,,29.6875,0,55,55,55,1,FBP-RB-19.png,0.35,1.2,56,0.75,,,,,,,,,,,,,,,,,,,,,,,,,,,,,,,,,,,,,,,,,,,,,
,,,,,V3_024,21,Female,2024-10-17_18h51.39.449,jersey_experiment_5_v3,2023.2.2,Win32,84.74576271,,,,,,,,,,,,,,,,210.4669,211.7609,211.7609,212.4785,return,0.1966,,39.84375,0,56,56,35,1,FBP-OG-18.png,0.35,1.2,36,0.5,,,,,,,,,,,,,,,,,,,,,,,,,,,,,,,,,,,,,,,,,,,,,
,,,,,V3_024,21,Female,2024-10-17_18h51.39.449,jersey_experiment_5_v3,2023.2.2,Win32,84.74576271,,,,,,,,,,,,,,,,212.4787,214.0316,214.0316,214.7728,return,0.1328,,81.51041667,0,57,57,2,1,FBP-YG-71.png,0.4,1.2,3,0.75,,,,,,,,,,,,,,,,,,,,,,,,,,,,,,,,,,,,,,,,,,,,,
,,,,,V3_024,21,Female,2024-10-17_18h51.39.449,jersey_experiment_5_v3,2023.2.2,Win32,84.74576271,,,,,,,,,,,,,,,,214.7729,216.3257,216.3258,217.3964,return,0.1292,,63.41145833,0,58,58,50,1,FBP-RB-18.png,0.35,1.2,51,0.75,,,,,,,,,,,,,,,,,,,,,,,,,,,,,,,,,,,,,,,,,,,,,
,,,,,V3_024,21,Female,2024-10-17_18h51.39.449,jersey_experiment_5_v3,2023.2.2,Win32,84.74576271,,,,,,,,,,,,,,,,217.3965,218.9377,218.9378,219.7495,return,0.2134,,93.22916667,0,59,59,13,1,FBP-YG-91.png,0.43,1.2,14,0.75,,,,,,,,,,,,,,,,,,,,,,,,,,,,,,,,,,,,,,,,,,,,,
,,,,,V3_024,21,Female,2024-10-17_18h51.39.449,jersey_experiment_5_v3,2023.2.2,Win32,84.74576271,,,,,,,,,,,,,,,,219.751,221.3023,221.3024,222.3376,return,0.1775,,73.69791667,,,,,,FBP-RB-91.png,0.35,1.2,56,0.75,0,0,0,55,1,,,,,,,,,,,,,,,,,,,,,,,,,,,,,,,,,,,,,,,,
,,,,,V3_024,21,Female,2024-10-17_18h51.39.449,jersey_experiment_5_v3,2023.2.2,Win32,84.74576271,,,,,,,,,,,,,,,,222.3379,223.8906,223.8907,224.7378,return,0.1933,,73.69791667,,,,,,FBP-RB-81.png,0.37,1.2,52,0.75,0,1,1,51,1,,,,,,,,,,,,,,,,,,,,,,,,,,,,,,,,,,,,,,,,
,,,,,V3_024,21,Female,2024-10-17_18h51.39.449,jersey_experiment_5_v3,2023.2.2,Win32,84.74576271,,,,,,,,,,,,,,,,224.738,226.0319,226.032,226.7731,return,0.1883,,73.69791667,,,,,,FBP-OG-81.png,0.4,1.2,38,0.5,0,2,2,37,1,,,,,,,,,,,,,,,,,,,,,,,,,,,,,,,,,,,,,,,,
,,,,,V3_024,21,Female,2024-10-17_18h51.39.449,jersey_experiment_5_v3,2023.2.2,Win32,84.74576271,,,,,,,,,,,,,,,,226.7735,228.0673,228.0673,228.6909,return,0.1532,,73.69791667,,,,,,FBP-OG-71.png,0.37,1.2,32,0.5,0,3,3,31,1,,,,,,,,,,,,,,,,,,,,,,,,,,,,,,,,,,,,,,,,
,,,,,V3_024,21,Female,2024-10-17_18h51.39.449,jersey_experiment_5_v3,2023.2.2,Win32,84.74576271,,,,,,,,,,,,,,,,228.6911,229.985,229.9851,231.0438,return,0.1761,,92.70833333,,,,,,FBP-OG-91.png,0.45,1.2,45,0.5,0,4,4,44,1,,,,,,,,,,,,,,,,,,,,,,,,,,,,,,,,,,,,,,,,
,,,,,V3_024,21,Female,2024-10-17_18h51.39.449,jersey_experiment_5_v3,2023.2.2,Win32,84.74576271,,,,,,,,,,,,,,,,231.0441,232.5968,232.5969,233.2675,return,0.2032,,92.70833333,,,,,,FBP-PT-71.png,0.4,1.2,18,0.75,0,5,5,17,1,,,,,,,,,,,,,,,,,,,,,,,,,,,,,,,,,,,,,,,,
,,,,,V3_024,21,Female,2024-10-17_18h51.39.449,jersey_experiment_5_v3,2023.2.2,Win32,84.74576271,,,,,,,,,,,,,,,,233.2676,234.8206,234.8206,235.4559,return,0.191,,92.70833333,,,,,,FBP-PT-81.png,0.4,1.2,23,0.75,0,6,6,22,1,,,,,,,,,,,,,,,,,,,,,,,,,,,,,,,,,,,,,,,,
,,,,,V3_024,21,Female,2024-10-17_18h51.39.449,jersey_experiment_5_v3,2023.2.2,Win32,84.74576271,,,,,,,,,,,,,,,,235.456,237.0089,237.009,237.7265,return,0.2046,,59.11458333,,,,,,FBP-PT-81.png,0.35,1.2,21,0.75,0,7,7,20,1,,,,,,,,,,,,,,,,,,,,,,,,,,,,,,,,,,,,,,,,
,,,,,V3_024,21,Female,2024-10-17_18h51.39.449,jersey_experiment_5_v3,2023.2.2,Win32,84.74576271,,,,,,,,,,,,,,,,237.7266,239.0206,239.0206,239.7972,return,0.3782,,59.11458333,,,,,,FBP-OG-91.png,0.37,1.2,42,0.5,0,8,8,41,1,,,,,,,,,,,,,,,,,,,,,,,,,,,,,,,,,,,,,,,,
,,,,,V3_024,21,Female,2024-10-17_18h51.39.449,jersey_experiment_5_v3,2023.2.2,Win32,84.74576271,,,,,,,,,,,,,,,,239.7974,241.3504,241.3505,242.4091,return,0.1649,,93.22916667,,,,,,FBP-PT-81.png,0.45,1.2,25,0.75,0,9,9,24,1,,,,,,,,,,,,,,,,,,,,,,,,,,,,,,,,,,,,,,,,
,,,,,V3_024,21,Female,2024-10-17_18h51.39.449,jersey_experiment_5_v3,2023.2.2,Win32,84.74576271,,,,,,,,,,,,,,,,242.4092,243.962,243.962,244.5737,return,0.1974,,93.22916667,,,,,,FBP-YG-19.png,0.43,1.2,14,0.75,0,10,10,13,1,,,,,,,,,,,,,,,,,,,,,,,,,,,,,,,,,,,,,,,,
,,,,,V3_024,21,Female,2024-10-17_18h51.39.449,jersey_experiment_5_v3,2023.2.2,Win32,84.74576271,,,,,,,,,,,,,,,,244.5738,246.1268,246.1268,246.8211,return,0.2277,,93.22916667,,,,,,FBP-YG-19.png,0.45,1.2,15,0.75,0,11,11,14,1,,,,,,,,,,,,,,,,,,,,,,,,,,,,,,,,,,,,,,,,
,,,,,V3_024,21,Female,2024-10-17_18h51.39.449,jersey_experiment_5_v3,2023.2.2,Win32,84.74576271,,,,,,,,,,,,,,,,246.8214,248.115,248.1151,248.7387,return,0.2026,,93.22916667,,,,,,FBP-OG-91.png,0.4,1.2,43,0.5,0,12,12,42,1,,,,,,,,,,,,,,,,,,,,,,,,,,,,,,,,,,,,,,,,
,,,,,V3_024,21,Female,2024-10-17_18h51.39.449,jersey_experiment_5_v3,2023.2.2,Win32,84.74576271,,,,,,,,,,,,,,,,248.7389,250.2918,250.2918,251.327,return,0.2664,,82.8125,,,,,,FBP-RB-91.png,0.4,1.2,58,0.75,0,13,13,57,1,,,,,,,,,,,,,,,,,,,,,,,,,,,,,,,,,,,,,,,,
,,,,,V3_024,21,Female,2024-10-17_18h51.39.449,jersey_experiment_5_v3,2023.2.2,Win32,84.74576271,,,,,,,,,,,,,,,,251.3273,252.8801,252.8802,253.8331,return,0.1642,,94.53125,,,,,,FBP-RB-71.png,0.43,1.2,49,0.75,0,14,14,48,1,,,,,,,,,,,,,,,,,,,,,,,,,,,,,,,,,,,,,,,,
,,,,,V3_024,21,Female,2024-10-17_18h51.39.449,jersey_experiment_5_v3,2023.2.2,Win32,84.74576271,,,,,,,,,,,,,,,,253.8333,255.3859,255.386,255.9861,return,0.2165,,94.53125,,,,,,FBP-YG-17.png,0.43,1.2,4,0.75,0,15,15,3,1,,,,,,,,,,,,,,,,,,,,,,,,,,,,,,,,,,,,,,,,
,,,,,V3_024,21,Female,2024-10-17_18h51.39.449,jersey_experiment_5_v3,2023.2.2,Win32,84.74576271,,,,,,,,,,,,,,,,255.9864,257.539,257.539,258.245,return,0.2369,,94.53125,,,,,,FBP-PT-71.png,0.43,1.2,19,0.75,0,16,16,18,1,,,,,,,,,,,,,,,,,,,,,,,,,,,,,,,,,,,,,,,,
,,,,,V3_024,21,Female,2024-10-17_18h51.39.449,jersey_experiment_5_v3,2023.2.2,Win32,84.74576271,,,,,,,,,,,,,,,,258.2454,259.7978,259.7979,261.9862,return,0.1457,,52.21354167,,,,,,FBP-YG-18.png,0.37,1.2,7,0.75,0,17,17,6,1,,,,,,,,,,,,,,,,,,,,,,,,,,,,,,,,,,,,,,,,
,,,,,V3_024,21,Female,2024-10-17_18h51.39.449,jersey_experiment_5_v3,2023.2.2,Win32,84.74576271,,,,,,,,,,,,,,,,261.9866,263.5393,263.5394,264.7746,return,0.1652,,50,,,,,,FBP-PT-91.png,0.35,1.2,26,0.75,0,18,18,25,1,,,,,,,,,,,,,,,,,,,,,,,,,,,,,,,,,,,,,,,,
,,,,,V3_024,21,Female,2024-10-17_18h51.39.449,jersey_experiment_5_v3,2023.2.2,Win32,84.74576271,,,,,,,,,,,,,,,,264.7748,266.0689,266.0689,267.2688,return,0.2039,,95.44270833,,,,,,FBP-OG-71.png,0.43,1.2,34,0.5,0,19,19,33,1,,,,,,,,,,,,,,,,,,,,,,,,,,,,,,,,,,,,,,,,
,,,,,V3_024,21,Female,2024-10-17_18h51.39.449,jersey_experiment_5_v3,2023.2.2,Win32,84.74576271,,,,,,,,,,,,,,,,267.269,268.563,268.563,269.1746,return,0.1805,,95.44270833,,,,,,FBP-OG-81.png,0.45,1.2,40,0.5,0,20,20,39,1,,,,,,,,,,,,,,,,,,,,,,,,,,,,,,,,,,,,,,,,
,,,,,V3_024,21,Female,2024-10-17_18h51.39.449,jersey_experiment_5_v3,2023.2.2,Win32,84.74576271,,,,,,,,,,,,,,,,269.1749,270.4688,270.4689,271.3277,return,0.1469,,70.96354167,,,,,,FBP-OG-81.png,0.35,1.2,36,0.5,0,21,21,35,1,,,,,,,,,,,,,,,,,,,,,,,,,,,,,,,,,,,,,,,,
,,,,,V3_024,21,Female,2024-10-17_18h51.39.449,jersey_experiment_5_v3,2023.2.2,Win32,84.74576271,,,,,,,,,,,,,,,,271.3281,272.8806,272.8806,273.622,return,0.181,,71.35416667,,,,,,FBP-RB-71.png,0.4,1.2,48,0.75,0,22,22,47,1,,,,,,,,,,,,,,,,,,,,,,,,,,,,,,,,,,,,,,,,
,,,,,V3_024,21,Female,2024-10-17_18h51.39.449,jersey_experiment_5_v3,2023.2.2,Win32,84.74576271,,,,,,,,,,,,,,,,273.6221,275.1749,275.1749,276.1751,return,0.1725,,86.97916667,,,,,,FBP-YG-17.png,0.45,1.2,5,0.75,0,23,23,4,1,,,,,,,,,,,,,,,,,,,,,,,,,,,,,,,,,,,,,,,,
,,,,,V3_024,21,Female,2024-10-17_18h51.39.449,jersey_experiment_5_v3,2023.2.2,Win32,84.74576271,,,,,,,,,,,,,,,,276.1754,277.4691,277.4692,278.4221,return,0.1669,,45.44270833,,,,,,FBP-OG-71.png,0.35,1.2,31,0.5,0,24,24,30,1,,,,,,,,,,,,,,,,,,,,,,,,,,,,,,,,,,,,,,,,
,,,,,V3_024,21,Female,2024-10-17_18h51.39.449,jersey_experiment_5_v3,2023.2.2,Win32,84.74576271,,,,,,,,,,,,,,,,278.4224,279.975,279.9751,280.7987,return,0.3963,,45.44270833,,,,,,FBP-PT-71.png,0.37,1.2,17,0.75,0,25,25,16,1,,,,,,,,,,,,,,,,,,,,,,,,,,,,,,,,,,,,,,,,
,,,,,V3_024,21,Female,2024-10-17_18h51.39.449,jersey_experiment_5_v3,2023.2.2,Win32,84.74576271,,,,,,,,,,,,,,,,280.7989,282.3519,282.3519,283.7281,return,0.2754,,93.75,,,,,,FBP-RB-81.png,0.45,1.2,55,0.75,0,26,26,54,1,,,,,,,,,,,,,,,,,,,,,,,,,,,,,,,,,,,,,,,,
,,,,,V3_024,21,Female,2024-10-17_18h51.39.449,jersey_experiment_5_v3,2023.2.2,Win32,84.74576271,,,,,,,,,,,,,,,,283.7284,285.2812,285.2813,286.9283,return,0.673,,31.11979167,,,,,,FBP-PT-71.png,0.35,1.2,16,0.75,0,27,27,15,1,,,,,,,,,,,,,,,,,,,,,,,,,,,,,,,,,,,,,,,,
,,,,,V3_024,21,Female,2024-10-17_18h51.39.449,jersey_experiment_5_v3,2023.2.2,Win32,84.74576271,,,,,,,,,,,,,,,,286.9284,288.4813,288.4814,289.3755,return,0.1582,,91.796875,,,,,,FBP-RB-91.png,0.45,1.2,60,0.75,0,28,28,59,1,,,,,,,,,,,,,,,,,,,,,,,,,,,,,,,,,,,,,,,,
,,,,,V3_024,21,Female,2024-10-17_18h51.39.449,jersey_experiment_5_v3,2023.2.2,Win32,84.74576271,,,,,,,,,,,,,,,,289.3756,290.6696,290.6697,291.5402,return,0.1749,,83.07291667,,,,,,FBP-OG-81.png,0.43,1.2,39,0.5,0,29,29,38,1,,,,,,,,,,,,,,,,,,,,,,,,,,,,,,,,,,,,,,,,
,,,,,V3_024,21,Female,2024-10-17_18h51.39.449,jersey_experiment_5_v3,2023.2.2,Win32,84.74576271,,,,,,,,,,,,,,,,291.5404,293.0933,293.0933,293.7639,return,0.1886,,98.17708333,,,,,,FBP-YG-18.png,0.45,1.2,10,0.75,0,30,30,9,1,,,,,,,,,,,,,,,,,,,,,,,,,,,,,,,,,,,,,,,,
,,,,,V3_024,21,Female,2024-10-17_18h51.39.449,jersey_experiment_5_v3,2023.2.2,Win32,84.74576271,,,,,,,,,,,,,,,,293.7641,295.058,295.0581,295.9992,return,0.1217,,75,,,,,,FBP-OG-81.png,0.37,1.2,37,0.5,0,31,31,36,1,,,,,,,,,,,,,,,,,,,,,,,,,,,,,,,,,,,,,,,,
,,,,,V3_024,21,Female,2024-10-17_18h51.39.449,jersey_experiment_5_v3,2023.2.2,Win32,84.74576271,,,,,,,,,,,,,,,,295.9994,297.2934,297.2934,298.0816,return,0.1461,,75,,,,,,FBP-OG-71.png,0.4,1.2,33,0.5,0,32,32,32,1,,,,,,,,,,,,,,,,,,,,,,,,,,,,,,,,,,,,,,,,
,,,,,V3_024,21,Female,2024-10-17_18h51.39.449,jersey_experiment_5_v3,2023.2.2,Win32,84.74576271,,,,,,,,,,,,,,,,298.082,299.6348,299.6348,300.9523,return,0.2233,,62.5,,,,,,FBP-RB-91.png,0.37,1.2,57,0.75,0,33,33,56,1,,,,,,,,,,,,,,,,,,,,,,,,,,,,,,,,,,,,,,,,
,,,,,V3_024,21,Female,2024-10-17_18h51.39.449,jersey_experiment_5_v3,2023.2.2,Win32,84.74576271,,,,,,,,,,,,,,,,300.9526,302.5054,302.5054,303.3525,return,0.149,,76.5625,,,,,,FBP-PT-81.png,0.43,1.2,24,0.75,0,34,34,23,1,,,,,,,,,,,,,,,,,,,,,,,,,,,,,,,,,,,,,,,,
,,,,,V3_024,21,Female,2024-10-17_18h51.39.449,jersey_experiment_5_v3,2023.2.2,Win32,84.74576271,,,,,,,,,,,,,,,,303.3527,304.9054,304.9055,305.7289,return,0.1469,,73.69791667,,,,,,FBP-RB-71.png,0.37,1.2,47,0.75,0,35,35,46,1,,,,,,,,,,,,,,,,,,,,,,,,,,,,,,,,,,,,,,,,
,,,,,V3_024,21,Female,2024-10-17_18h51.39.449,jersey_experiment_5_v3,2023.2.2,Win32,84.74576271,,,,,,,,,,,,,,,,305.7292,307.282,307.282,308.0232,return,0.1678,,93.88020833,,,,,,FBP-YG-18.png,0.43,1.2,9,0.75,0,36,36,8,1,,,,,,,,,,,,,,,,,,,,,,,,,,,,,,,,,,,,,,,,
,,,,,V3_024,21,Female,2024-10-17_18h51.39.449,jersey_experiment_5_v3,2023.2.2,Win32,84.74576271,,,,,,,,,,,,,,,,308.0233,309.3175,309.3175,310.3056,return,0.166,,58.33333333,,,,,,FBP-OG-91.png,0.35,1.2,41,0.5,0,37,37,40,1,,,,,,,,,,,,,,,,,,,,,,,,,,,,,,,,,,,,,,,,
,,,,,V3_024,21,Female,2024-10-17_18h51.39.449,jersey_experiment_5_v3,2023.2.2,Win32,84.74576271,,,,,,,,,,,,,,,,310.3057,311.8586,311.8586,312.4706,return,0.2129,,58.33333333,,,,,,FBP-PT-91.png,0.37,1.2,27,0.75,0,38,38,26,1,,,,,,,,,,,,,,,,,,,,,,,,,,,,,,,,,,,,,,,,
,,,,,V3_024,21,Female,2024-10-17_18h51.39.449,jersey_experiment_5_v3,2023.2.2,Win32,84.74576271,,,,,,,,,,,,,,,,312.4708,314.0235,314.0235,314.6588,return,0.2274,,58.33333333,,,,,,FBP-RB-81.png,0.35,1.2,51,0.75,0,39,39,50,1,,,,,,,,,,,,,,,,,,,,,,,,,,,,,,,,,,,,,,,,
,,,,,V3_024,21,Female,2024-10-17_18h51.39.449,jersey_experiment_5_v3,2023.2.2,Win32,84.74576271,,,,,,,,,,,,,,,,314.659,316.212,316.212,316.8471,return,0.1605,,70.44270833,,,,,,FBP-YG-17.png,0.37,1.2,2,0.75,0,40,40,1,1,,,,,,,,,,,,,,,,,,,,,,,,,,,,,,,,,,,,,,,,
,,,,,V3_024,21,Female,2024-10-17_18h51.39.449,jersey_experiment_5_v3,2023.2.2,Win32,84.74576271,,,,,,,,,,,,,,,,316.8472,318.4001,318.4001,319.0235,return,0.2186,,70.44270833,,,,,,FBP-PT-81.png,0.37,1.2,22,0.75,0,41,41,21,1,,,,,,,,,,,,,,,,,,,,,,,,,,,,,,,,,,,,,,,,
,,,,,V3_024,21,Female,2024-10-17_18h51.39.449,jersey_experiment_5_v3,2023.2.2,Win32,84.74576271,,,,,,,,,,,,,,,,319.0238,320.5766,320.5766,321.3295,return,0.3425,,70.44270833,,,,,,FBP-YG-17.png,0.4,1.2,3,0.75,0,42,42,2,1,,,,,,,,,,,,,,,,,,,,,,,,,,,,,,,,,,,,,,,,
,,,,,V3_024,21,Female,2024-10-17_18h51.39.449,jersey_experiment_5_v3,2023.2.2,Win32,84.74576271,,,,,,,,,,,,,,,,321.3297,322.8827,322.8827,323.5767,return,0.2611,,70.44270833,,,,,,FBP-RB-81.png,0.4,1.2,53,0.75,0,43,43,52,1,,,,,,,,,,,,,,,,,,,,,,,,,,,,,,,,,,,,,,,,
,,,,,V3_024,21,Female,2024-10-17_18h51.39.449,jersey_experiment_5_v3,2023.2.2,Win32,84.74576271,,,,,,,,,,,,,,,,323.5769,325.1297,325.1297,325.9061,return,0.2042,,70.44270833,,,,,,FBP-YG-18.png,0.4,1.2,8,0.75,0,44,44,7,1,,,,,,,,,,,,,,,,,,,,,,,,,,,,,,,,,,,,,,,,
,,,,,V3_024,21,Female,2024-10-17_18h51.39.449,jersey_experiment_5_v3,2023.2.2,Win32,84.74576271,,,,,,,,,,,,,,,,325.9063,327.4591,327.4592,328.0239,return,0.1791,,70.44270833,,,,,,FBP-YG-19.png,0.4,1.2,13,0.75,0,45,45,12,1,,,,,,,,,,,,,,,,,,,,,,,,,,,,,,,,,,,,,,,,
,,,,,V3_024,21,Female,2024-10-17_18h51.39.449,jersey_experiment_5_v3,2023.2.2,Win32,84.74576271,,,,,,,,,,,,,,,,328.0241,329.5769,329.5769,330.6946,return,0.1884,,88.41145833,,,,,,FBP-PT-71.png,0.45,1.2,20,0.75,0,46,46,19,1,,,,,,,,,,,,,,,,,,,,,,,,,,,,,,,,,,,,,,,,
,,,,,V3_024,21,Female,2024-10-17_18h51.39.449,jersey_experiment_5_v3,2023.2.2,Win32,84.74576271,,,,,,,,,,,,,,,,330.6948,332.2475,332.2476,332.9654,return,0.2113,,88.41145833,,,,,,FBP-PT-91.png,0.43,1.2,29,0.75,0,47,47,28,1,,,,,,,,,,,,,,,,,,,,,,,,,,,,,,,,,,,,,,,,
,,,,,V3_024,21,Female,2024-10-17_18h51.39.449,jersey_experiment_5_v3,2023.2.2,Win32,84.74576271,,,,,,,,,,,,,,,,332.9656,334.5182,334.5182,335.1419,return,0.2125,,88.41145833,,,,,,FBP-RB-91.png,0.43,1.2,59,0.75,0,48,48,58,1,,,,,,,,,,,,,,,,,,,,,,,,,,,,,,,,,,,,,,,,
,,,,,V3_024,21,Female,2024-10-17_18h51.39.449,jersey_experiment_5_v3,2023.2.2,Win32,84.74576271,,,,,,,,,,,,,,,,335.1422,336.6948,336.6948,338.2597,return,0.3988,,48.95833333,,,,,,FBP-YG-18.png,0.35,1.2,6,0.75,0,49,49,5,1,,,,,,,,,,,,,,,,,,,,,,,,,,,,,,,,,,,,,,,,
,,,,,V3_024,21,Female,2024-10-17_18h51.39.449,jersey_experiment_5_v3,2023.2.2,Win32,84.74576271,,,,,,,,,,,,,,,,338.2598,339.8125,339.8126,340.8951,return,0.137,,49.21875,,,,,,FBP-PT-91.png,0.4,1.2,28,0.75,0,50,50,27,1,,,,,,,,,,,,,,,,,,,,,,,,,,,,,,,,,,,,,,,,
,,,,,V3_024,21,Female,2024-10-17_18h51.39.449,jersey_experiment_5_v3,2023.2.2,Win32,84.74576271,,,,,,,,,,,,,,,,340.8954,342.448,342.4481,343.3774,return,0.1228,,65.625,,,,,,FBP-RB-71.png,0.35,1.2,46,0.75,0,51,51,45,1,,,,,,,,,,,,,,,,,,,,,,,,,,,,,,,,,,,,,,,,
,,,,,V3_024,21,Female,2024-10-17_18h51.39.449,jersey_experiment_5_v3,2023.2.2,Win32,84.74576271,,,,,,,,,,,,,,,,343.3778,344.9305,344.9305,345.554,return,0.2148,,65.625,,,,,,FBP-YG-19.png,0.37,1.2,12,0.75,0,52,52,11,1,,,,,,,,,,,,,,,,,,,,,,,,,,,,,,,,,,,,,,,,
,,,,,V3_024,21,Female,2024-10-17_18h51.39.449,jersey_experiment_5_v3,2023.2.2,Win32,84.74576271,,,,,,,,,,,,,,,,345.5544,347.1071,347.1071,347.8599,return,0.1414,,92.70833333,,,,,,FBP-PT-91.png,0.45,1.2,30,0.75,0,53,53,29,1,,,,,,,,,,,,,,,,,,,,,,,,,,,,,,,,,,,,,,,,
,,,,,V3_024,21,Female,2024-10-17_18h51.39.449,jersey_experiment_5_v3,2023.2.2,Win32,84.74576271,,,,,,,,,,,,,,,,347.8602,349.413,349.413,350.2481,return,0.0938,,51.43229167,,,,,,FBP-YG-19.png,0.35,1.2,11,0.75,0,54,54,10,1,,,,,,,,,,,,,,,,,,,,,,,,,,,,,,,,,,,,,,,,
,,,,,V3_024,21,Female,2024-10-17_18h51.39.449,jersey_experiment_5_v3,2023.2.2,Win32,84.74576271,,,,,,,,,,,,,,,,350.2483,351.5426,351.5426,352.3895,return,0.1525,,92.05729167,,,,,,FBP-OG-71.png,0.45,1.2,35,0.5,0,55,55,34,1,,,,,,,,,,,,,,,,,,,,,,,,,,,,,,,,,,,,,,,,
,,,,,V3_024,21,Female,2024-10-17_18h51.39.449,jersey_experiment_5_v3,2023.2.2,Win32,84.74576271,,,,,,,,,,,,,,,,352.3897,353.9426,353.9426,354.472,return,0.1536,,92.05729167,,,,,,FBP-RB-71.png,0.45,1.2,50,0.75,0,56,56,49,1,,,,,,,,,,,,,,,,,,,,,,,,,,,,,,,,,,,,,,,,
,,,,,V3_024,21,Female,2024-10-17_18h51.39.449,jersey_experiment_5_v3,2023.2.2,Win32,84.74576271,,,,,,,,,,,,,,,,354.4723,355.7662,355.7662,356.2955,return,0.1409,,92.05729167,,,,,,FBP-OG-91.png,0.43,1.2,44,0.5,0,57,57,43,1,,,,,,,,,,,,,,,,,,,,,,,,,,,,,,,,,,,,,,,,
,,,,,V3_024,21,Female,2024-10-17_18h51.39.449,jersey_experiment_5_v3,2023.2.2,Win32,84.74576271,,,,,,,,,,,,,,,,356.2958,357.8485,357.8486,358.3661,return,0.2203,,92.05729167,,,,,,FBP-RB-81.png,0.43,1.2,54,0.75,0,58,58,53,1,,,,,,,,,,,,,,,,,,,,,,,,,,,,,,,,,,,,,,,,
,,,,,V3_024,21,Female,2024-10-17_18h51.39.449,jersey_experiment_5_v3,2023.2.2,Win32,84.74576271,,,,,,,,,,,,,,,,358.3663,359.9192,359.9192,360.5309,return,0.0584,,71.875,,,,,,FBP-YG-17.png,0.35,1.2,1,0.75,0,59,59,0,1,,,,,,,,,,,,,,,,,,,,,,,,,,,,,,,,,,,,,,,,
,,,,,V3_024,21,Female,2024-10-17_18h51.39.449,jersey_experiment_5_v3,2023.2.2,Win32,84.74576271,,,,,,,,,,,,,,,,,,,,,,,,,,,,,,,,,,,,,,,360.5311,480.5238,,,,,,,,,,,,,,,,,,,,,,,,,,,,,,,,,,,,,,
,,,,,V3_024,21,Female,2024-10-17_18h51.39.449,jersey_experiment_5_v3,2023.2.2,Win32,84.74576271,,,,,,,,,,,,,,,,,,,,,,,,,,,,,,,,,,,,,,,,,480.5239,482.2063,return,1.6786,,,,,,,,,,,,,,,,,,,,,,,,,,,,,,,,,,
,,,,,V3_024,21,Female,2024-10-17_18h51.39.449,jersey_experiment_5_v3,2023.2.2,Win32,84.74576271,,,,,,,,,,,,,,,,482.2082,483.5003,483.5004,488.9122,return,1.3948,,59.11458333,,,,,,FBP-PT-18.png,0.37,1.2,22,0.5,,,,,,,,,,,,,0,0,0,21,1,,,,,,,,,,,,,,,,,,,,,,,,,,,,
,,,,,V3_024,21,Female,2024-10-17_18h51.39.449,jersey_experiment_5_v3,2023.2.2,Win32,84.74576271,,,,,,,,,,,,,,,,488.9125,490.2064,490.2064,490.8298,return,0.1462,,59.11458333,,,,,,FBP-RB-19.png,0.35,1.2,56,0.5,,,,,,,,,,,,,0,1,1,55,1,,,,,,,,,,,,,,,,,,,,,,,,,,,,
,,,,,V3_024,21,Female,2024-10-17_18h51.39.449,jersey_experiment_5_v3,2023.2.2,Win32,84.74576271,,,,,,,,,,,,,,,,490.8301,492.124,492.124,492.689,return,0.1824,,59.11458333,,,,,,FBP-PT-17.png,0.4,1.2,18,0.5,,,,,,,,,,,,,0,2,2,17,1,,,,,,,,,,,,,,,,,,,,,,,,,,,,
,,,,,V3_024,21,Female,2024-10-17_18h51.39.449,jersey_experiment_5_v3,2023.2.2,Win32,84.74576271,,,,,,,,,,,,,,,,492.6892,493.9829,493.983,494.5594,return,0.1721,,59.11458333,,,,,,FBP-YG-91.png,0.4,1.2,13,0.5,,,,,,,,,,,,,0,3,3,12,1,,,,,,,,,,,,,,,,,,,,,,,,,,,,
,,,,,V3_024,21,Female,2024-10-17_18h51.39.449,jersey_experiment_5_v3,2023.2.2,Win32,84.74576271,,,,,,,,,,,,,,,,494.5598,495.8539,495.8539,496.8536,return,0.211,,78.77604167,,,,,,FBP-PT-17.png,0.43,1.2,19,0.5,,,,,,,,,,,,,0,4,4,18,1,,,,,,,,,,,,,,,,,,,,,,,,,,,,
,,,,,V3_024,21,Female,2024-10-17_18h51.39.449,jersey_experiment_5_v3,2023.2.2,Win32,84.74576271,,,,,,,,,,,,,,,,496.8538,498.4067,498.4068,499.4302,return,0.4472,,55.59895833,,,,,,FBP-OG-17.png,0.35,1.2,31,0.75,,,,,,,,,,,,,0,5,5,30,1,,,,,,,,,,,,,,,,,,,,,,,,,,,,
,,,,,V3_024,21,Female,2024-10-17_18h51.39.449,jersey_experiment_5_v3,2023.2.2,Win32,84.74576271,,,,,,,,,,,,,,,,499.4304,500.7244,500.7245,501.4892,return,0.1192,,75.78125,,,,,,FBP-RB-17.png,0.43,1.2,49,0.5,,,,,,,,,,,,,0,6,6,48,1,,,,,,,,,,,,,,,,,,,,,,,,,,,,
,,,,,V3_024,21,Female,2024-10-17_18h51.39.449,jersey_experiment_5_v3,2023.2.2,Win32,84.74576271,,,,,,,,,,,,,,,,501.4894,503.0422,503.0423,503.7128,return,0.1706,,83.07291667,,,,,,FBP-OG-17.png,0.43,1.2,34,0.75,,,,,,,,,,,,,0,7,7,33,1,,,,,,,,,,,,,,,,,,,,,,,,,,,,
,,,,,V3_024,21,Female,2024-10-17_18h51.39.449,jersey_experiment_5_v3,2023.2.2,Win32,84.74576271,,,,,,,,,,,,,,,,503.7131,505.0068,505.0069,505.7482,return,0.0849,,83.984375,,,,,,FBP-PT-18.png,0.45,1.2,25,0.5,,,,,,,,,,,,,0,8,8,24,1,,,,,,,,,,,,,,,,,,,,,,,,,,,,
,,,,,V3_024,21,Female,2024-10-17_18h51.39.449,jersey_experiment_5_v3,2023.2.2,Win32,84.74576271,,,,,,,,,,,,,,,,505.7485,507.301,507.3011,508.0539,return,0.1572,,63.02083333,,,,,,FBP-OG-19.png,0.37,1.2,42,0.75,,,,,,,,,,,,,0,9,9,41,1,,,,,,,,,,,,,,,,,,,,,,,,,,,,
,,,,,V3_024,21,Female,2024-10-17_18h51.39.449,jersey_experiment_5_v3,2023.2.2,Win32,84.74576271,,,,,,,,,,,,,,,,508.0542,509.3482,509.3483,510.16,return,0.1477,,83.07291667,,,,,,FBP-PT-19.png,0.45,1.2,30,0.5,,,,,,,,,,,,,0,10,10,29,1,,,,,,,,,,,,,,,,,,,,,,,,,,,,
,,,,,V3_024,21,Female,2024-10-17_18h51.39.449,jersey_experiment_5_v3,2023.2.2,Win32,84.74576271,,,,,,,,,,,,,,,,510.1603,511.4542,511.4543,512.1365,return,0.1259,,83.07291667,,,,,,FBP-RB-17.png,0.4,1.2,48,0.5,,,,,,,,,,,,,0,11,11,47,1,,,,,,,,,,,,,,,,,,,,,,,,,,,,
,,,,,V3_024,21,Female,2024-10-17_18h51.39.449,jersey_experiment_5_v3,2023.2.2,Win32,84.74576271,,,,,,,,,,,,,,,,512.1369,513.4307,513.4308,514.2896,return,0.0975,,34.11458333,,,,,,FBP-PT-19.png,0.35,1.2,26,0.5,,,,,,,,,,,,,0,12,12,25,1,,,,,,,,,,,,,,,,,,,,,,,,,,,,
,,,,,V3_024,21,Female,2024-10-17_18h51.39.449,jersey_experiment_5_v3,2023.2.2,Win32,84.74576271,,,,,,,,,,,,,,,,514.2898,515.584,515.5841,516.2779,return,0.0787,,78.77604167,,,,,,FBP-RB-17.png,0.45,1.2,50,0.5,,,,,,,,,,,,,0,13,13,49,1,,,,,,,,,,,,,,,,,,,,,,,,,,,,
,,,,,V3_024,21,Female,2024-10-17_18h51.39.449,jersey_experiment_5_v3,2023.2.2,Win32,84.74576271,,,,,,,,,,,,,,,,516.2781,517.5721,517.5721,518.1367,return,0.1413,,78.77604167,,,,,,FBP-RB-18.png,0.43,1.2,54,0.5,,,,,,,,,,,,,0,14,14,53,1,,,,,,,,,,,,,,,,,,,,,,,,,,,,
,,,,,V3_024,21,Female,2024-10-17_18h51.39.449,jersey_experiment_5_v3,2023.2.2,Win32,84.74576271,,,,,,,,,,,,,,,,518.1369,519.4309,519.4309,520.4075,return,0.1412,,33.72395833,,,,,,FBP-YG-71.png,0.37,1.2,2,0.5,,,,,,,,,,,,,0,15,15,1,1,,,,,,,,,,,,,,,,,,,,,,,,,,,,
,,,,,V3_024,21,Female,2024-10-17_18h51.39.449,jersey_experiment_5_v3,2023.2.2,Win32,84.74576271,,,,,,,,,,,,,,,,520.4078,521.7017,521.7018,522.4546,return,0.1544,,80.859375,,,,,,FBP-YG-71.png,0.45,1.2,5,0.5,,,,,,,,,,,,,0,16,16,4,1,,,,,,,,,,,,,,,,,,,,,,,,,,,,
,,,,,V3_024,21,Female,2024-10-17_18h51.39.449,jersey_experiment_5_v3,2023.2.2,Win32,84.74576271,,,,,,,,,,,,,,,,522.4549,524.0076,524.0077,524.5487,return,0.1807,,80.859375,,,,,,FBP-OG-19.png,0.45,1.2,45,0.75,,,,,,,,,,,,,0,17,17,44,1,,,,,,,,,,,,,,,,,,,,,,,,,,,,
,,,,,V3_024,21,Female,2024-10-17_18h51.39.449,jersey_experiment_5_v3,2023.2.2,Win32,84.74576271,,,,,,,,,,,,,,,,524.5489,526.1019,526.1019,526.6077,return,0.1484,,80.859375,,,,,,FBP-OG-18.png,0.4,1.2,38,0.75,,,,,,,,,,,,,0,18,18,37,1,,,,,,,,,,,,,,,,,,,,,,,,,,,,
,,,,,V3_024,21,Female,2024-10-17_18h51.39.449,jersey_experiment_5_v3,2023.2.2,Win32,84.74576271,,,,,,,,,,,,,,,,526.6081,527.9018,527.9019,528.5136,return,0.1697,,80.859375,,,,,,FBP-RB-18.png,0.35,1.2,51,0.5,,,,,,,,,,,,,0,19,19,50,1,,,,,,,,,,,,,,,,,,,,,,,,,,,,
,,,,,V3_024,21,Female,2024-10-17_18h51.39.449,jersey_experiment_5_v3,2023.2.2,Win32,84.74576271,,,,,,,,,,,,,,,,528.5137,530.0549,530.0549,530.6549,return,0.1726,,80.859375,,,,,,FBP-OG-17.png,0.37,1.2,32,0.75,,,,,,,,,,,,,0,20,20,31,1,,,,,,,,,,,,,,,,,,,,,,,,,,,,
,,,,,V3_024,21,Female,2024-10-17_18h51.39.449,jersey_experiment_5_v3,2023.2.2,Win32,84.74576271,,,,,,,,,,,,,,,,530.6551,532.2079,532.2079,532.7726,return,0.2007,,80.859375,,,,,,FBP-OG-18.png,0.37,1.2,37,0.75,,,,,,,,,,,,,0,21,21,36,1,,,,,,,,,,,,,,,,,,,,,,,,,,,,
,,,,,V3_024,21,Female,2024-10-17_18h51.39.449,jersey_experiment_5_v3,2023.2.2,Win32,84.74576271,,,,,,,,,,,,,,,,532.7728,534.3255,534.3256,534.9492,return,0.2116,,80.859375,,,,,,FBP-OG-17.png,0.45,1.2,35,0.75,,,,,,,,,,,,,0,22,22,34,1,,,,,,,,,,,,,,,,,,,,,,,,,,,,
,,,,,V3_024,21,Female,2024-10-17_18h51.39.449,jersey_experiment_5_v3,2023.2.2,Win32,84.74576271,,,,,,,,,,,,,,,,534.9495,536.2434,536.2435,536.8081,return,0.1634,,80.859375,,,,,,FBP-YG-81.png,0.45,1.2,10,0.5,,,,,,,,,,,,,0,23,23,9,1,,,,,,,,,,,,,,,,,,,,,,,,,,,,
,,,,,V3_024,21,Female,2024-10-17_18h51.39.449,jersey_experiment_5_v3,2023.2.2,Win32,84.74576271,,,,,,,,,,,,,,,,536.8084,538.1022,538.1023,538.6788,return,0.1961,,80.859375,,,,,,FBP-PT-19.png,0.4,1.2,28,0.5,,,,,,,,,,,,,0,24,24,27,1,,,,,,,,,,,,,,,,,,,,,,,,,,,,
,,,,,V3_024,21,Female,2024-10-17_18h51.39.449,jersey_experiment_5_v3,2023.2.2,Win32,84.74576271,,,,,,,,,,,,,,,,538.6791,539.9729,539.9729,540.6788,return,0.1512,,91.27604167,,,,,,FBP-YG-91.png,0.45,1.2,15,0.5,,,,,,,,,,,,,0,25,25,14,1,,,,,,,,,,,,,,,,,,,,,,,,,,,,
,,,,,V3_024,21,Female,2024-10-17_18h51.39.449,jersey_experiment_5_v3,2023.2.2,Win32,84.74576271,,,,,,,,,,,,,,,,540.679,542.2317,542.2318,542.7494,return,0.1379,,91.27604167,,,,,,FBP-OG-18.png,0.43,1.2,39,0.75,,,,,,,,,,,,,0,26,26,38,1,,,,,,,,,,,,,,,,,,,,,,,,,,,,
,,,,,V3_024,21,Female,2024-10-17_18h51.39.449,jersey_experiment_5_v3,2023.2.2,Win32,84.74576271,,,,,,,,,,,,,,,,542.7496,544.0435,544.0436,544.5966,return,0.1573,,91.27604167,,,,,,FBP-PT-17.png,0.45,1.2,20,0.5,,,,,,,,,,,,,0,27,27,19,1,,,,,,,,,,,,,,,,,,,,,,,,,,,,
,,,,,V3_024,21,Female,2024-10-17_18h51.39.449,jersey_experiment_5_v3,2023.2.2,Win32,84.74576271,,,,,,,,,,,,,,,,544.5967,545.8908,545.8908,546.8791,return,0.1134,,39.97395833,,,,,,FBP-RB-17.png,0.35,1.2,46,0.5,,,,,,,,,,,,,0,28,28,45,1,,,,,,,,,,,,,,,,,,,,,,,,,,,,
,,,,,V3_024,21,Female,2024-10-17_18h51.39.449,jersey_experiment_5_v3,2023.2.2,Win32,84.74576271,,,,,,,,,,,,,,,,546.8793,548.4319,548.432,548.8673,return,0.0975,,39.97395833,,,,,,FBP-OG-18.png,0.35,1.2,36,0.75,,,,,,,,,,,,,0,29,29,35,1,,,,,,,,,,,,,,,,,,,,,,,,,,,,
,,,,,V3_024,21,Female,2024-10-17_18h51.39.449,jersey_experiment_5_v3,2023.2.2,Win32,84.74576271,,,,,,,,,,,,,,,,548.8676,550.1615,550.1616,552.4557,return,0.1306,,39.97395833,,,,,,FBP-PT-17.png,0.37,1.2,17,0.5,,,,,,,,,,,,,0,30,30,16,1,,,,,,,,,,,,,,,,,,,,,,,,,,,,
,,,,,V3_024,21,Female,2024-10-17_18h51.39.449,jersey_experiment_5_v3,2023.2.2,Win32,84.74576271,,,,,,,,,,,,,,,,552.456,554.0087,554.0087,554.5264,return,0.114,,39.97395833,,,,,,FBP-OG-19.png,0.35,1.2,41,0.75,,,,,,,,,,,,,0,31,31,40,1,,,,,,,,,,,,,,,,,,,,,,,,,,,,
,,,,,V3_024,21,Female,2024-10-17_18h51.39.449,jersey_experiment_5_v3,2023.2.2,Win32,84.74576271,,,,,,,,,,,,,,,,554.5266,556.0794,556.0795,556.6324,return,0.149,,39.97395833,,,,,,FBP-OG-19.png,0.4,1.2,43,0.75,,,,,,,,,,,,,0,32,32,42,1,,,,,,,,,,,,,,,,,,,,,,,,,,,,
,,,,,V3_024,21,Female,2024-10-17_18h51.39.449,jersey_experiment_5_v3,2023.2.2,Win32,84.74576271,,,,,,,,,,,,,,,,556.6324,557.9265,557.9266,559.1501,return,0.1262,,78.64583333,,,,,,FBP-YG-71.png,0.43,1.2,4,0.5,,,,,,,,,,,,,0,33,33,3,1,,,,,,,,,,,,,,,,,,,,,,,,,,,,
,,,,,V3_024,21,Female,2024-10-17_18h51.39.449,jersey_experiment_5_v3,2023.2.2,Win32,84.74576271,,,,,,,,,,,,,,,,559.1503,560.4442,560.4443,561.456,return,0.1244,,33.72395833,,,,,,FBP-YG-71.png,0.35,1.2,1,0.5,,,,,,,,,,,,,0,34,34,0,1,,,,,,,,,,,,,,,,,,,,,,,,,,,,
,,,,,V3_024,21,Female,2024-10-17_18h51.39.449,jersey_experiment_5_v3,2023.2.2,Win32,84.74576271,,,,,,,,,,,,,,,,561.4561,562.7503,562.7504,563.4796,return,0.1412,,79.55729167,,,,,,FBP-RB-19.png,0.43,1.2,59,0.5,,,,,,,,,,,,,0,35,35,58,1,,,,,,,,,,,,,,,,,,,,,,,,,,,,
,,,,,V3_024,21,Female,2024-10-17_18h51.39.449,jersey_experiment_5_v3,2023.2.2,Win32,84.74576271,,,,,,,,,,,,,,,,563.4798,564.7738,564.7739,565.3737,return,0.1382,,79.55729167,,,,,,FBP-YG-91.png,0.37,1.2,12,0.5,,,,,,,,,,,,,0,36,36,11,1,,,,,,,,,,,,,,,,,,,,,,,,,,,,
,,,,,V3_024,21,Female,2024-10-17_18h51.39.449,jersey_experiment_5_v3,2023.2.2,Win32,84.74576271,,,,,,,,,,,,,,,,565.374,566.6679,566.6679,567.4091,return,0.0996,,57.16145833,,,,,,FBP-RB-18.png,0.37,1.2,52,0.5,,,,,,,,,,,,,0,37,37,51,1,,,,,,,,,,,,,,,,,,,,,,,,,,,,
,,,,,V3_024,21,Female,2024-10-17_18h51.39.449,jersey_experiment_5_v3,2023.2.2,Win32,84.74576271,,,,,,,,,,,,,,,,567.4094,568.7035,568.7035,569.3034,return,0.1405,,82.94270833,,,,,,FBP-PT-19.png,0.43,1.2,29,0.5,,,,,,,,,,,,,0,38,38,28,1,,,,,,,,,,,,,,,,,,,,,,,,,,,,
,,,,,V3_024,21,Female,2024-10-17_18h51.39.449,jersey_experiment_5_v3,2023.2.2,Win32,84.74576271,,,,,,,,,,,,,,,,569.3036,570.5976,570.5976,571.1033,return,0.1483,,82.94270833,,,,,,FBP-RB-19.png,0.37,1.2,57,0.5,,,,,,,,,,,,,0,39,39,56,1,,,,,,,,,,,,,,,,,,,,,,,,,,,,
,,,,,V3_024,21,Female,2024-10-17_18h51.39.449,jersey_experiment_5_v3,2023.2.2,Win32,84.74576271,,,,,,,,,,,,,,,,571.1037,572.3976,572.3976,573.08,return,0.1411,,42.31770833,,,,,,FBP-YG-81.png,0.35,1.2,6,0.5,,,,,,,,,,,,,0,40,40,5,1,,,,,,,,,,,,,,,,,,,,,,,,,,,,
,,,,,V3_024,21,Female,2024-10-17_18h51.39.449,jersey_experiment_5_v3,2023.2.2,Win32,84.74576271,,,,,,,,,,,,,,,,573.0804,574.3741,574.3742,575.1506,return,0.1256,,79.6875,,,,,,FBP-YG-71.png,0.4,1.2,3,0.5,,,,,,,,,,,,,0,41,41,2,1,,,,,,,,,,,,,,,,,,,,,,,,,,,,
,,,,,V3_024,21,Female,2024-10-17_18h51.39.449,jersey_experiment_5_v3,2023.2.2,Win32,84.74576271,,,,,,,,,,,,,,,,575.1508,576.7036,576.7037,577.1976,return,0.1593,,79.6875,,,,,,FBP-OG-17.png,0.4,1.2,33,0.75,,,,,,,,,,,,,0,42,42,32,1,,,,,,,,,,,,,,,,,,,,,,,,,,,,
,,,,,V3_024,21,Female,2024-10-17_18h51.39.449,jersey_experiment_5_v3,2023.2.2,Win32,84.74576271,,,,,,,,,,,,,,,,577.1978,578.4919,578.4919,579.0331,return,0.1647,,79.6875,,,,,,FBP-YG-81.png,0.37,1.2,7,0.5,,,,,,,,,,,,,0,43,43,6,1,,,,,,,,,,,,,,,,,,,,,,,,,,,,
,,,,,V3_024,21,Female,2024-10-17_18h51.39.449,jersey_experiment_5_v3,2023.2.2,Win32,84.74576271,,,,,,,,,,,,,,,,579.0336,580.3273,580.3273,581.0097,return,0.1694,,79.6875,,,,,,FBP-PT-19.png,0.37,1.2,27,0.5,,,,,,,,,,,,,0,44,44,26,1,,,,,,,,,,,,,,,,,,,,,,,,,,,,
,,,,,V3_024,21,Female,2024-10-17_18h51.39.449,jersey_experiment_5_v3,2023.2.2,Win32,84.74576271,,,,,,,,,,,,,,,,581.0101,582.5628,582.5628,583.1274,return,0.1725,,89.32291667,,,,,,FBP-OG-19.png,0.43,1.2,44,0.75,,,,,,,,,,,,,0,45,45,43,1,,,,,,,,,,,,,,,,,,,,,,,,,,,,
,,,,,V3_024,21,Female,2024-10-17_18h51.39.449,jersey_experiment_5_v3,2023.2.2,Win32,84.74576271,,,,,,,,,,,,,,,,583.1276,584.4217,584.4217,584.9274,return,0.1446,,89.32291667,,,,,,FBP-RB-19.png,0.45,1.2,60,0.5,,,,,,,,,,,,,0,46,46,59,1,,,,,,,,,,,,,,,,,,,,,,,,,,,,
,,,,,V3_024,21,Female,2024-10-17_18h51.39.449,jersey_experiment_5_v3,2023.2.2,Win32,84.74576271,,,,,,,,,,,,,,,,584.9277,586.2217,586.2218,586.6922,return,0.1893,,89.32291667,,,,,,FBP-RB-19.png,0.4,1.2,58,0.5,,,,,,,,,,,,,0,47,47,57,1,,,,,,,,,,,,,,,,,,,,,,,,,,,,
,,,,,V3_024,21,Female,2024-10-17_18h51.39.449,jersey_experiment_5_v3,2023.2.2,Win32,84.74576271,,,,,,,,,,,,,,,,586.6924,587.9865,587.9865,588.4806,return,0.3237,,89.32291667,,,,,,FBP-YG-91.png,0.43,1.2,14,0.5,,,,,,,,,,,,,0,48,48,13,1,,,,,,,,,,,,,,,,,,,,,,,,,,,,
,,,,,V3_024,21,Female,2024-10-17_18h51.39.449,jersey_experiment_5_v3,2023.2.2,Win32,84.74576271,,,,,,,,,,,,,,,,588.4809,589.7748,589.7748,590.2807,return,0.1255,,89.32291667,,,,,,FBP-YG-81.png,0.43,1.2,9,0.5,,,,,,,,,,,,,0,49,49,8,1,,,,,,,,,,,,,,,,,,,,,,,,,,,,
,,,,,V3_024,21,Female,2024-10-17_18h51.39.449,jersey_experiment_5_v3,2023.2.2,Win32,84.74576271,,,,,,,,,,,,,,,,590.2809,591.5748,591.5749,592.1513,return,0.1397,,89.32291667,,,,,,FBP-YG-91.png,0.35,1.2,11,0.5,,,,,,,,,,,,,0,50,50,10,1,,,,,,,,,,,,,,,,,,,,,,,,,,,,
,,,,,V3_024,21,Female,2024-10-17_18h51.39.449,jersey_experiment_5_v3,2023.2.2,Win32,84.74576271,,,,,,,,,,,,,,,,592.1516,593.4453,593.4454,593.9983,return,0.4084,,89.32291667,,,,,,FBP-YG-81.png,0.4,1.2,8,0.5,,,,,,,,,,,,,0,51,51,7,1,,,,,,,,,,,,,,,,,,,,,,,,,,,,
,,,,,V3_024,21,Female,2024-10-17_18h51.39.449,jersey_experiment_5_v3,2023.2.2,Win32,84.74576271,,,,,,,,,,,,,,,,593.9985,595.2925,595.2926,596.022,return,0.1264,,74.86979167,,,,,,FBP-PT-18.png,0.35,1.2,21,0.5,,,,,,,,,,,,,0,52,52,20,1,,,,,,,,,,,,,,,,,,,,,,,,,,,,
,,,,,V3_024,21,Female,2024-10-17_18h51.39.449,jersey_experiment_5_v3,2023.2.2,Win32,84.74576271,,,,,,,,,,,,,,,,596.0223,597.3162,597.3162,597.8456,return,0.1555,,74.86979167,,,,,,FBP-PT-17.png,0.35,1.2,16,0.5,,,,,,,,,,,,,0,53,53,15,1,,,,,,,,,,,,,,,,,,,,,,,,,,,,
,,,,,V3_024,21,Female,2024-10-17_18h51.39.449,jersey_experiment_5_v3,2023.2.2,Win32,84.74576271,,,,,,,,,,,,,,,,597.8459,599.1398,599.1398,599.6223,return,0.212,,74.86979167,,,,,,FBP-PT-18.png,0.4,1.2,23,0.5,,,,,,,,,,,,,0,54,54,22,1,,,,,,,,,,,,,,,,,,,,,,,,,,,,
,,,,,V3_024,21,Female,2024-10-17_18h51.39.449,jersey_experiment_5_v3,2023.2.2,Win32,84.74576271,,,,,,,,,,,,,,,,599.6225,600.9163,600.9163,601.2339,return,0.1887,,74.86979167,,,,,,FBP-PT-18.png,0.43,1.2,24,0.5,,,,,,,,,,,,,0,55,55,23,1,,,,,,,,,,,,,,,,,,,,,,,,,,,,
,,,,,V3_024,21,Female,2024-10-17_18h51.39.449,jersey_experiment_5_v3,2023.2.2,Win32,84.74576271,,,,,,,,,,,,,,,,601.2341,602.5281,602.5282,602.9752,return,0.1914,,74.86979167,,,,,,FBP-RB-18.png,0.45,1.2,55,0.5,,,,,,,,,,,,,0,56,56,54,1,,,,,,,,,,,,,,,,,,,,,,,,,,,,
,,,,,V3_024,21,Female,2024-10-17_18h51.39.449,jersey_experiment_5_v3,2023.2.2,Win32,84.74576271,,,,,,,,,,,,,,,,602.9754,604.2694,604.2695,604.8694,return,0.1764,,82.03125,,,,,,FBP-RB-18.png,0.4,1.2,53,0.5,,,,,,,,,,,,,0,57,57,52,1,,,,,,,,,,,,,,,,,,,,,,,,,,,,
,,,,,V3_024,21,Female,2024-10-17_18h51.39.449,jersey_experiment_5_v3,2023.2.2,Win32,84.74576271,,,,,,,,,,,,,,,,604.8696,606.4224,606.4224,607.14,return,0.141,,86.328125,,,,,,FBP-OG-18.png,0.45,1.2,40,0.75,,,,,,,,,,,,,0,58,58,39,1,,,,,,,,,,,,,,,,,,,,,,,,,,,,
,,,,,V3_024,21,Female,2024-10-17_18h51.39.449,jersey_experiment_5_v3,2023.2.2,Win32,84.74576271,,,,,,,,,,,,,,,,607.1401,608.4343,608.4343,609.1755,return,0.1649,,80.33854167,,,,,,FBP-RB-17.png,0.37,1.2,47,0.5,,,,,,,,,,,,,0,59,59,46,1,,,,,,,,,,,,,,,,,,,,,,,,,,,,
,,,,,V3_024,21,Female,2024-10-17_18h51.39.449,jersey_experiment_5_v3,2023.2.2,Win32,84.74576271,,,,,,,,,,,,,,,,609.1771,610.4697,610.4697,611.093,return,0.1573,,91.796875,,,,,,FBP-YG-19.png,0.45,1.2,15,0.5,,,,,,,,,,,,,,,,,,0,0,0,14,1,,,,,,,,,,,,,,,,,,,,,,,
,,,,,V3_024,21,Female,2024-10-17_18h51.39.449,jersey_experiment_5_v3,2023.2.2,Win32,84.74576271,,,,,,,,,,,,,,,,611.0932,612.3875,612.3875,612.9285,return,0.0883,,79.16666667,,,,,,FBP-YG-17.png,0.35,1.2,1,0.5,,,,,,,,,,,,,,,,,,0,1,1,0,1,,,,,,,,,,,,,,,,,,,,,,,
,,,,,V3_024,21,Female,2024-10-17_18h51.39.449,jersey_experiment_5_v3,2023.2.2,Win32,84.74576271,,,,,,,,,,,,,,,,612.9288,614.2227,614.2228,614.7757,return,0.1411,,87.36979167,,,,,,FBP-YG-19.png,0.37,1.2,12,0.5,,,,,,,,,,,,,,,,,,0,2,2,11,1,,,,,,,,,,,,,,,,,,,,,,,
,,,,,V3_024,21,Female,2024-10-17_18h51.39.449,jersey_experiment_5_v3,2023.2.2,Win32,84.74576271,,,,,,,,,,,,,,,,614.7758,616.0698,616.0698,616.4816,return,0.1577,,87.36979167,,,,,,FBP-PT-81.png,0.35,1.2,21,0.5,,,,,,,,,,,,,,,,,,0,3,3,20,1,,,,,,,,,,,,,,,,,,,,,,,
,,,,,V3_024,21,Female,2024-10-17_18h51.39.449,jersey_experiment_5_v3,2023.2.2,Win32,84.74576271,,,,,,,,,,,,,,,,616.4818,618.0347,618.0347,618.7875,return,0.0855,,47.265625,,,,,,FBP-OG-71.png,0.35,1.2,31,0.75,,,,,,,,,,,,,,,,,,0,4,4,30,1,,,,,,,,,,,,,,,,,,,,,,,
,,,,,V3_024,21,Female,2024-10-17_18h51.39.449,jersey_experiment_5_v3,2023.2.2,Win32,84.74576271,,,,,,,,,,,,,,,,618.7877,620.3289,620.329,620.9759,return,0.1597,,85.02604167,,,,,,FBP-OG-91.png,0.45,1.2,45,0.75,,,,,,,,,,,,,,,,,,0,5,5,44,1,,,,,,,,,,,,,,,,,,,,,,,
,,,,,V3_024,21,Female,2024-10-17_18h51.39.449,jersey_experiment_5_v3,2023.2.2,Win32,84.74576271,,,,,,,,,,,,,,,,620.976,622.2701,622.2702,622.8935,return,0.1588,,88.80208333,,,,,,FBP-PT-91.png,0.43,1.2,29,0.5,,,,,,,,,,,,,,,,,,0,6,6,28,1,,,,,,,,,,,,,,,,,,,,,,,
,,,,,V3_024,21,Female,2024-10-17_18h51.39.449,jersey_experiment_5_v3,2023.2.2,Win32,84.74576271,,,,,,,,,,,,,,,,622.8937,624.4466,624.4466,624.9525,return,0.1101,,82.8125,,,,,,FBP-OG-91.png,0.35,1.2,41,0.75,,,,,,,,,,,,,,,,,,0,7,7,40,1,,,,,,,,,,,,,,,,,,,,,,,
,,,,,V3_024,21,Female,2024-10-17_18h51.39.449,jersey_experiment_5_v3,2023.2.2,Win32,84.74576271,,,,,,,,,,,,,,,,624.9528,626.2466,626.2467,626.8349,return,0.1173,,82.8125,,,,,,FBP-PT-81.png,0.37,1.2,22,0.5,,,,,,,,,,,,,,,,,,0,8,8,21,1,,,,,,,,,,,,,,,,,,,,,,,
,,,,,V3_024,21,Female,2024-10-17_18h51.39.449,jersey_experiment_5_v3,2023.2.2,Win32,84.74576271,,,,,,,,,,,,,,,,626.8353,628.129,628.1291,628.7527,return,0.1238,,89.84375,,,,,,FBP-RB-91.png,0.43,1.2,59,0.5,,,,,,,,,,,,,,,,,,0,9,9,58,1,,,,,,,,,,,,,,,,,,,,,,,
,,,,,V3_024,21,Female,2024-10-17_18h51.39.449,jersey_experiment_5_v3,2023.2.2,Win32,84.74576271,,,,,,,,,,,,,,,,628.7529,630.047,630.047,630.5174,return,0.1266,,97.39583333,,,,,,FBP-RB-91.png,0.45,1.2,60,0.5,,,,,,,,,,,,,,,,,,0,10,10,59,1,,,,,,,,,,,,,,,,,,,,,,,
,,,,,V3_024,21,Female,2024-10-17_18h51.39.449,jersey_experiment_5_v3,2023.2.2,Win32,84.74576271,,,,,,,,,,,,,,,,630.5175,632.0588,632.0588,632.7057,return,0.1068,,67.578125,,,,,,FBP-OG-81.png,0.35,1.2,36,0.75,,,,,,,,,,,,,,,,,,0,11,11,35,1,,,,,,,,,,,,,,,,,,,,,,,
,,,,,V3_024,21,Female,2024-10-17_18h51.39.449,jersey_experiment_5_v3,2023.2.2,Win32,84.74576271,,,,,,,,,,,,,,,,632.706,634,634,634.6588,return,0.1083,,89.84375,,,,,,FBP-PT-91.png,0.45,1.2,30,0.5,,,,,,,,,,,,,,,,,,0,12,12,29,1,,,,,,,,,,,,,,,,,,,,,,,
,,,,,V3_024,21,Female,2024-10-17_18h51.39.449,jersey_experiment_5_v3,2023.2.2,Win32,84.74576271,,,,,,,,,,,,,,,,634.659,635.9529,635.9529,636.8941,return,0.0869,,89.97395833,,,,,,FBP-RB-71.png,0.45,1.2,50,0.5,,,,,,,,,,,,,,,,,,0,13,13,49,1,,,,,,,,,,,,,,,,,,,,,,,
,,,,,V3_024,21,Female,2024-10-17_18h51.39.449,jersey_experiment_5_v3,2023.2.2,Win32,84.74576271,,,,,,,,,,,,,,,,636.8943,638.1883,638.1884,638.9766,return,0.1355,,69.40104167,,,,,,FBP-RB-91.png,0.37,1.2,57,0.5,,,,,,,,,,,,,,,,,,0,14,14,56,1,,,,,,,,,,,,,,,,,,,,,,,
,,,,,V3_024,21,Female,2024-10-17_18h51.39.449,jersey_experiment_5_v3,2023.2.2,Win32,84.74576271,,,,,,,,,,,,,,,,638.9769,640.5295,640.5296,641.1766,return,0.1412,,82.16145833,,,,,,FBP-OG-71.png,0.43,1.2,34,0.75,,,,,,,,,,,,,,,,,,0,15,15,33,1,,,,,,,,,,,,,,,,,,,,,,,
,,,,,V3_024,21,Female,2024-10-17_18h51.39.449,jersey_experiment_5_v3,2023.2.2,Win32,84.74576271,,,,,,,,,,,,,,,,641.1768,642.4707,642.4708,642.9179,return,0.103,,82.16145833,,,,,,FBP-YG-17.png,0.37,1.2,2,0.5,,,,,,,,,,,,,,,,,,0,16,16,1,1,,,,,,,,,,,,,,,,,,,,,,,
,,,,,V3_024,21,Female,2024-10-17_18h51.39.449,jersey_experiment_5_v3,2023.2.2,Win32,84.74576271,,,,,,,,,,,,,,,,642.9181,644.212,644.212,644.5768,return,0.2169,,82.16145833,,,,,,FBP-PT-71.png,0.4,1.2,18,0.5,,,,,,,,,,,,,,,,,,0,17,17,17,1,,,,,,,,,,,,,,,,,,,,,,,
,,,,,V3_024,21,Female,2024-10-17_18h51.39.449,jersey_experiment_5_v3,2023.2.2,Win32,84.74576271,,,,,,,,,,,,,,,,644.5771,646.1297,646.1298,646.6473,return,0.3195,,82.16145833,,,,,,FBP-OG-91.png,0.43,1.2,44,0.75,,,,,,,,,,,,,,,,,,0,18,18,43,1,,,,,,,,,,,,,,,,,,,,,,,
,,,,,V3_024,21,Female,2024-10-17_18h51.39.449,jersey_experiment_5_v3,2023.2.2,Win32,84.74576271,,,,,,,,,,,,,,,,646.6476,648.2004,648.2005,652.1653,return,0.0248,,82.16145833,,,,,,FBP-OG-91.png,0.37,1.2,42,0.75,,,,,,,,,,,,,,,,,,0,19,19,41,1,,,,,,,,,,,,,,,,,,,,,,,
,,,,,V3_024,21,Female,2024-10-17_18h51.39.449,jersey_experiment_5_v3,2023.2.2,Win32,84.74576271,,,,,,,,,,,,,,,,652.1655,653.4594,653.4595,654.2124,return,0.1199,,58.07291667,,,,,,FBP-YG-18.png,0.35,1.2,6,0.5,,,,,,,,,,,,,,,,,,0,20,20,5,1,,,,,,,,,,,,,,,,,,,,,,,
,,,,,V3_024,21,Female,2024-10-17_18h51.39.449,jersey_experiment_5_v3,2023.2.2,Win32,84.74576271,,,,,,,,,,,,,,,,654.2126,655.5068,655.5068,656.3656,return,0.17,,93.09895833,,,,,,FBP-PT-81.png,0.45,1.2,25,0.5,,,,,,,,,,,,,,,,,,0,21,21,24,1,,,,,,,,,,,,,,,,,,,,,,,
,,,,,V3_024,21,Female,2024-10-17_18h51.39.449,jersey_experiment_5_v3,2023.2.2,Win32,84.74576271,,,,,,,,,,,,,,,,656.3658,657.6597,657.6597,658.2008,return,0.1424,,93.09895833,,,,,,FBP-RB-81.png,0.45,1.2,55,0.5,,,,,,,,,,,,,,,,,,0,22,22,54,1,,,,,,,,,,,,,,,,,,,,,,,
,,,,,V3_024,21,Female,2024-10-17_18h51.39.449,jersey_experiment_5_v3,2023.2.2,Win32,84.74576271,,,,,,,,,,,,,,,,658.2011,659.495,659.495,660.0008,return,0.1236,,93.09895833,,,,,,FBP-YG-17.png,0.45,1.2,5,0.5,,,,,,,,,,,,,,,,,,0,23,23,4,1,,,,,,,,,,,,,,,,,,,,,,,
,,,,,V3_024,21,Female,2024-10-17_18h51.39.449,jersey_experiment_5_v3,2023.2.2,Win32,84.74576271,,,,,,,,,,,,,,,,660.001,661.2951,661.2952,662.4715,return,0.1278,,34.89583333,,,,,,FBP-PT-71.png,0.35,1.2,16,0.5,,,,,,,,,,,,,,,,,,0,24,24,15,1,,,,,,,,,,,,,,,,,,,,,,,
,,,,,V3_024,21,Female,2024-10-17_18h51.39.449,jersey_experiment_5_v3,2023.2.2,Win32,84.74576271,,,,,,,,,,,,,,,,662.4719,663.7658,663.7658,664.6011,return,0.1328,,79.55729167,,,,,,FBP-PT-71.png,0.45,1.2,20,0.5,,,,,,,,,,,,,,,,,,0,25,25,19,1,,,,,,,,,,,,,,,,,,,,,,,
,,,,,V3_024,21,Female,2024-10-17_18h51.39.449,jersey_experiment_5_v3,2023.2.2,Win32,84.74576271,,,,,,,,,,,,,,,,664.6013,665.8952,665.8952,666.7657,return,0.1147,,71.35416667,,,,,,FBP-YG-19.png,0.35,1.2,11,0.5,,,,,,,,,,,,,,,,,,0,26,26,10,1,,,,,,,,,,,,,,,,,,,,,,,
,,,,,V3_024,21,Female,2024-10-17_18h51.39.449,jersey_experiment_5_v3,2023.2.2,Win32,84.74576271,,,,,,,,,,,,,,,,666.7659,668.0599,668.06,668.6129,return,0.106,,71.35416667,,,,,,FBP-RB-81.png,0.4,1.2,53,0.5,,,,,,,,,,,,,,,,,,0,27,27,52,1,,,,,,,,,,,,,,,,,,,,,,,
,,,,,V3_024,21,Female,2024-10-17_18h51.39.449,jersey_experiment_5_v3,2023.2.2,Win32,84.74576271,,,,,,,,,,,,,,,,668.6131,669.9071,669.9072,670.3189,return,0.1684,,71.35416667,,,,,,FBP-RB-91.png,0.35,1.2,56,0.5,,,,,,,,,,,,,,,,,,0,28,28,55,1,,,,,,,,,,,,,,,,,,,,,,,
,,,,,V3_024,21,Female,2024-10-17_18h51.39.449,jersey_experiment_5_v3,2023.2.2,Win32,84.74576271,,,,,,,,,,,,,,,,670.319,671.6132,671.6132,672.3189,return,0.0979,,92.1875,,,,,,FBP-PT-81.png,0.43,1.2,24,0.5,,,,,,,,,,,,,,,,,,0,29,29,23,1,,,,,,,,,,,,,,,,,,,,,,,
,,,,,V3_024,21,Female,2024-10-17_18h51.39.449,jersey_experiment_5_v3,2023.2.2,Win32,84.74576271,,,,,,,,,,,,,,,,672.3192,673.6131,673.6132,674.1308,return,0.1413,,88.80208333,,,,,,FBP-RB-91.png,0.4,1.2,58,0.5,,,,,,,,,,,,,,,,,,0,30,30,57,1,,,,,,,,,,,,,,,,,,,,,,,
,,,,,V3_024,21,Female,2024-10-17_18h51.39.449,jersey_experiment_5_v3,2023.2.2,Win32,84.74576271,,,,,,,,,,,,,,,,674.131,675.4249,675.4249,676.072,return,0.1411,,85.15625,,,,,,FBP-PT-91.png,0.37,1.2,27,0.5,,,,,,,,,,,,,,,,,,0,31,31,26,1,,,,,,,,,,,,,,,,,,,,,,,
,,,,,V3_024,21,Female,2024-10-17_18h51.39.449,jersey_experiment_5_v3,2023.2.2,Win32,84.74576271,,,,,,,,,,,,,,,,676.0722,677.3662,677.3662,677.7426,return,0.2435,,85.15625,,,,,,FBP-PT-71.png,0.37,1.2,17,0.5,,,,,,,,,,,,,,,,,,0,32,32,16,1,,,,,,,,,,,,,,,,,,,,,,,
,,,,,V3_024,21,Female,2024-10-17_18h51.39.449,jersey_experiment_5_v3,2023.2.2,Win32,84.74576271,,,,,,,,,,,,,,,,677.7429,679.0369,679.0369,679.6722,return,0.1415,,93.61979167,,,,,,FBP-RB-71.png,0.43,1.2,49,0.5,,,,,,,,,,,,,,,,,,0,33,33,48,1,,,,,,,,,,,,,,,,,,,,,,,
,,,,,V3_024,21,Female,2024-10-17_18h51.39.449,jersey_experiment_5_v3,2023.2.2,Win32,84.74576271,,,,,,,,,,,,,,,,679.6723,681.2252,681.2253,681.6016,return,0.1932,,93.61979167,,,,,,FBP-OG-91.png,0.4,1.2,43,0.75,,,,,,,,,,,,,,,,,,0,34,34,42,1,,,,,,,,,,,,,,,,,,,,,,,
,,,,,V3_024,21,Female,2024-10-17_18h51.39.449,jersey_experiment_5_v3,2023.2.2,Win32,84.74576271,,,,,,,,,,,,,,,,681.6019,682.8959,682.8959,683.79,return,0.1348,,93.61979167,,,,,,FBP-YG-18.png,0.4,1.2,8,0.5,,,,,,,,,,,,,,,,,,0,35,35,7,1,,,,,,,,,,,,,,,,,,,,,,,
,,,,,V3_024,21,Female,2024-10-17_18h51.39.449,jersey_experiment_5_v3,2023.2.2,Win32,84.74576271,,,,,,,,,,,,,,,,683.7902,685.0841,685.0842,685.543,return,0.3299,,93.75,,,,,,FBP-PT-81.png,0.4,1.2,23,0.5,,,,,,,,,,,,,,,,,,0,36,36,22,1,,,,,,,,,,,,,,,,,,,,,,,
,,,,,V3_024,21,Female,2024-10-17_18h51.39.449,jersey_experiment_5_v3,2023.2.2,Win32,84.74576271,,,,,,,,,,,,,,,,685.5433,686.8374,686.8374,687.4254,return,0.1188,,65.234375,,,,,,FBP-RB-81.png,0.35,1.2,51,0.5,,,,,,,,,,,,,,,,,,0,37,37,50,1,,,,,,,,,,,,,,,,,,,,,,,
,,,,,V3_024,21,Female,2024-10-17_18h51.39.449,jersey_experiment_5_v3,2023.2.2,Win32,84.74576271,,,,,,,,,,,,,,,,687.4257,688.7197,688.7197,689.249,return,0.131,,94.140625,,,,,,FBP-YG-17.png,0.4,1.2,3,0.5,,,,,,,,,,,,,,,,,,0,38,38,2,1,,,,,,,,,,,,,,,,,,,,,,,
,,,,,V3_024,21,Female,2024-10-17_18h51.39.449,jersey_experiment_5_v3,2023.2.2,Win32,84.74576271,,,,,,,,,,,,,,,,689.2492,690.5432,690.5432,691.0256,return,0.168,,90.88541667,,,,,,FBP-RB-71.png,0.4,1.2,48,0.5,,,,,,,,,,,,,,,,,,0,39,39,47,1,,,,,,,,,,,,,,,,,,,,,,,
,,,,,V3_024,21,Female,2024-10-17_18h51.39.449,jersey_experiment_5_v3,2023.2.2,Win32,84.74576271,,,,,,,,,,,,,,,,691.0257,692.3197,692.3197,692.8021,return,0.1457,,92.578125,,,,,,FBP-YG-18.png,0.45,1.2,10,0.5,,,,,,,,,,,,,,,,,,0,40,40,9,1,,,,,,,,,,,,,,,,,,,,,,,
,,,,,V3_024,21,Female,2024-10-17_18h51.39.449,jersey_experiment_5_v3,2023.2.2,Win32,84.74576271,,,,,,,,,,,,,,,,692.8023,694.3551,694.3552,694.9197,return,0.3845,,92.578125,,,,,,FBP-OG-81.png,0.43,1.2,39,0.75,,,,,,,,,,,,,,,,,,0,41,41,38,1,,,,,,,,,,,,,,,,,,,,,,,
,,,,,V3_024,21,Female,2024-10-17_18h51.39.449,jersey_experiment_5_v3,2023.2.2,Win32,84.74576271,,,,,,,,,,,,,,,,694.92,696.2141,696.2141,696.7199,return,0.1207,,69.921875,,,,,,FBP-RB-71.png,0.35,1.2,46,0.5,,,,,,,,,,,,,,,,,,0,42,42,45,1,,,,,,,,,,,,,,,,,,,,,,,
,,,,,V3_024,21,Female,2024-10-17_18h51.39.449,jersey_experiment_5_v3,2023.2.2,Win32,84.74576271,,,,,,,,,,,,,,,,696.7201,698.2728,698.2729,698.9787,return,0.0626,,73.30729167,,,,,,FBP-OG-71.png,0.37,1.2,32,0.75,,,,,,,,,,,,,,,,,,0,43,43,31,1,,,,,,,,,,,,,,,,,,,,,,,
,,,,,V3_024,21,Female,2024-10-17_18h51.39.449,jersey_experiment_5_v3,2023.2.2,Win32,84.74576271,,,,,,,,,,,,,,,,698.979,700.5318,700.5318,701.1552,return,0.129,,73.30729167,,,,,,FBP-OG-81.png,0.4,1.2,38,0.75,,,,,,,,,,,,,,,,,,0,44,44,37,1,,,,,,,,,,,,,,,,,,,,,,,
,,,,,V3_024,21,Female,2024-10-17_18h51.39.449,jersey_experiment_5_v3,2023.2.2,Win32,84.74576271,,,,,,,,,,,,,,,,701.1554,702.4495,702.4495,703.0613,return,0.0823,,81.90104167,,,,,,FBP-PT-71.png,0.43,1.2,19,0.5,,,,,,,,,,,,,,,,,,0,45,45,18,1,,,,,,,,,,,,,,,,,,,,,,,
,,,,,V3_024,21,Female,2024-10-17_18h51.39.449,jersey_experiment_5_v3,2023.2.2,Win32,84.74576271,,,,,,,,,,,,,,,,703.0615,704.6143,704.6143,705.1554,return,0.1913,,85.9375,,,,,,FBP-OG-71.png,0.45,1.2,35,0.75,,,,,,,,,,,,,,,,,,0,46,46,34,1,,,,,,,,,,,,,,,,,,,,,,,
,,,,,V3_024,21,Female,2024-10-17_18h51.39.449,jersey_experiment_5_v3,2023.2.2,Win32,84.74576271,,,,,,,,,,,,,,,,705.1557,706.4496,706.4496,707.0261,return,0.1888,,90.49479167,,,,,,FBP-YG-19.png,0.43,1.2,14,0.5,,,,,,,,,,,,,,,,,,0,47,47,13,1,,,,,,,,,,,,,,,,,,,,,,,
,,,,,V3_024,21,Female,2024-10-17_18h51.39.449,jersey_experiment_5_v3,2023.2.2,Win32,84.74576271,,,,,,,,,,,,,,,,707.0263,708.3202,708.3203,709.4144,return,0.1411,,72.78645833,,,,,,FBP-PT-91.png,0.4,1.2,28,0.5,,,,,,,,,,,,,,,,,,0,48,48,27,1,,,,,,,,,,,,,,,,,,,,,,,
,,,,,V3_024,21,Female,2024-10-17_18h51.39.449,jersey_experiment_5_v3,2023.2.2,Win32,84.74576271,,,,,,,,,,,,,,,,709.4145,710.9675,710.9676,711.6615,return,0.1621,,95.3125,,,,,,FBP-OG-81.png,0.45,1.2,40,0.75,,,,,,,,,,,,,,,,,,0,49,49,39,1,,,,,,,,,,,,,,,,,,,,,,,
,,,,,V3_024,21,Female,2024-10-17_18h51.39.449,jersey_experiment_5_v3,2023.2.2,Win32,84.74576271,,,,,,,,,,,,,,,,711.6617,712.9558,712.9558,713.6146,return,0.1453,,80.078125,,,,,,FBP-YG-18.png,0.37,1.2,7,0.5,,,,,,,,,,,,,,,,,,0,50,50,6,1,,,,,,,,,,,,,,,,,,,,,,,
,,,,,V3_024,21,Female,2024-10-17_18h51.39.449,jersey_experiment_5_v3,2023.2.2,Win32,84.74576271,,,,,,,,,,,,,,,,713.615,714.9088,714.9088,715.6852,return,0.1078,,80.078125,,,,,,FBP-RB-71.png,0.37,1.2,47,0.5,,,,,,,,,,,,,,,,,,0,51,51,46,1,,,,,,,,,,,,,,,,,,,,,,,
,,,,,V3_024,21,Female,2024-10-17_18h51.39.449,jersey_experiment_5_v3,2023.2.2,Win32,84.74576271,,,,,,,,,,,,,,,,715.6854,716.9794,716.9795,717.4381,return,0.137,,80.078125,,,,,,FBP-RB-81.png,0.37,1.2,52,0.5,,,,,,,,,,,,,,,,,,0,52,52,51,1,,,,,,,,,,,,,,,,,,,,,,,
,,,,,V3_024,21,Female,2024-10-17_18h51.39.449,jersey_experiment_5_v3,2023.2.2,Win32,84.74576271,,,,,,,,,,,,,,,,717.4384,718.9913,718.9914,719.4972,return,0.1417,,80.078125,,,,,,FBP-OG-71.png,0.4,1.2,33,0.75,,,,,,,,,,,,,,,,,,0,53,53,32,1,,,,,,,,,,,,,,,,,,,,,,,
,,,,,V3_024,21,Female,2024-10-17_18h51.39.449,jersey_experiment_5_v3,2023.2.2,Win32,84.74576271,,,,,,,,,,,,,,,,719.4975,721.0502,721.0502,721.509,return,0.1274,,80.078125,,,,,,FBP-OG-81.png,0.37,1.2,37,0.75,,,,,,,,,,,,,,,,,,0,54,54,36,1,,,,,,,,,,,,,,,,,,,,,,,
,,,,,V3_024,21,Female,2024-10-17_18h51.39.449,jersey_experiment_5_v3,2023.2.2,Win32,84.74576271,,,,,,,,,,,,,,,,721.5092,722.8033,722.8033,723.3797,return,0.1567,,60.67708333,,,,,,FBP-PT-91.png,0.35,1.2,26,0.5,,,,,,,,,,,,,,,,,,0,55,55,25,1,,,,,,,,,,,,,,,,,,,,,,,
,,,,,V3_024,21,Female,2024-10-17_18h51.39.449,jersey_experiment_5_v3,2023.2.2,Win32,84.74576271,,,,,,,,,,,,,,,,723.3798,724.6738,724.6738,725.3914,return,0.1329,,95.18229167,,,,,,FBP-YG-17.png,0.43,1.2,4,0.5,,,,,,,,,,,,,,,,,,0,56,56,3,1,,,,,,,,,,,,,,,,,,,,,,,
,,,,,V3_024,21,Female,2024-10-17_18h51.39.449,jersey_experiment_5_v3,2023.2.2,Win32,84.74576271,,,,,,,,,,,,,,,,725.3916,726.6856,726.6857,727.4622,return,0.1262,,88.41145833,,,,,,FBP-YG-19.png,0.4,1.2,13,0.5,,,,,,,,,,,,,,,,,,0,57,57,12,1,,,,,,,,,,,,,,,,,,,,,,,
,,,,,V3_024,21,Female,2024-10-17_18h51.39.449,jersey_experiment_5_v3,2023.2.2,Win32,84.74576271,,,,,,,,,,,,,,,,727.4623,728.7563,728.7564,729.2975,return,0.1803,,91.796875,,,,,,FBP-YG-18.png,0.43,1.2,9,0.5,,,,,,,,,,,,,,,,,,0,58,58,8,1,,,,,,,,,,,,,,,,,,,,,,,
,,,,,V3_024,21,Female,2024-10-17_18h51.39.449,jersey_experiment_5_v3,2023.2.2,Win32,84.74576271,,,,,,,,,,,,,,,,729.2977,730.5916,730.5917,731.0153,return,0.0939,,91.796875,,,,,,FBP-RB-81.png,0.43,1.2,54,0.5,,,,,,,,,,,,,,,,,,0,59,59,53,1,,,,,,,,,,,,,,,,,,,,,,,
,,,,,V3_024,21,Female,2024-10-17_18h51.39.449,jersey_experiment_5_v3,2023.2.2,Win32,84.74576271,,,,,,,,,,,,,,,,,,,,,,,,,,,,,,,,,,,,,,,,,,,,,,,,,,,,,,,,731.0155,737.7803,return,6.755,,,,,,,,,,,,,,,,,,,
,,,,,V3_024,21,Female,2024-10-17_18h51.39.449,jersey_experiment_5_v3,2023.2.2,Win32,84.74576271,,,,,,,,,,,,,,,,,,,,,,,,,,,,,,,,,,,,,,,,,,,,,,,,,,,,,,,,,,,,,737.7804,740.4039,1,2.1928,return,0.4123,,,,,,,,,,,,
,,,,,V3_024,21,Female,2024-10-17_18h51.39.449,jersey_experiment_5_v3,2023.2.2,Win32,84.74576271,,,,,,,,,,,,,,,,,,,,,,,,,,,,,,,,,,,,,,,,,,,,,,,,,,,,,,,,,,,,,,,,,,,,740.404,794.8064,The study is about how different people perceive appearance and rate others based on physical looks. I did not see any patterns but there seemed to be way less slender football players.,right,47.5777,,,,,,
,,,,,V3_024,21,Female,2024-10-17_18h51.39.449,jersey_experiment_5_v3,2023.2.2,Win32,84.74576271,,,,,,,,,,,,,,,,,,,,,,,,,,,,,,,,,,,,,,,,,,,,,,,,,,,,,,,,,,,,,,,,,,,,,,,,,,794.8065,797.206,return,2.3854,