requirements.started,requirements.stopped,key_resp_3.keys,key_resp_3.rt,key_resp_3.duration,Subject ID,Age,Gender,date,expName,psychopyVersion,OS,frameRate,instructions1.started,instructions1.stopped,key_resp.keys,key_resp.rt,key_resp.duration,example.started,example.stopped,enter_2.keys,enter_2.rt,enter_2.duration,instructions2.started,instructions2.stopped,enter_3.keys,enter_3.rt,enter_3.duration,image.started,image.stopped,slider_2.started,slider_2.stopped,next.keys,next.rt,next.duration,slider.response,trial_block_1.thisRepN,trial_block_1.thisTrialN,trial_block_1.thisN,trial_block_1.thisIndex,trial_block_1.ran,Path,Width,Height,Index,Duration,trial_block_2.thisRepN,trial_block_2.thisTrialN,trial_block_2.thisN,trial_block_2.thisIndex,trial_block_2.ran,rest_break.started,rest_break.stopped,end_break.started,end_break.stopped,key_resp_5.keys,key_resp_5.rt,key_resp_5.duration,trial_block_3.thisRepN,trial_block_3.thisTrialN,trial_block_3.thisN,trial_block_3.thisIndex,trial_block_3.ran,trial_block_4.thisRepN,trial_block_4.thisTrialN,trial_block_4.thisN,trial_block_4.thisIndex,trial_block_4.ran,questions_intro.started,questions_intro.stopped,enter_12.keys,enter_12.rt,enter_12.duration,question2.started,question2.stopped,question_doingbest.response,question_doingbest.rt,enter_15.keys,enter_15.rt,enter_15.duration,pattern.started,pattern.stopped,pattern_2.text,enter_17.keys,enter_17.rt,enter_17.duration,thankyou.started,thankyou.stopped,enter_14.keys,enter_14.rt,enter_14.duration
0.0001,11.7022,return,11.6953,,V3_052,20,Female,2024-11-06_16h18.16.954,jersey_experiment_5_v3,2023.2.2,Win32,85.47008547,,,,,,,,,,,,,,,,,,,,,,,,,,,,,,,,,,,,,,,,,,,,,,,,,,,,,,,,,,,,,,,,,,,,,,,,,,,,,,
,,,,,V3_052,20,Female,2024-11-06_16h18.16.954,jersey_experiment_5_v3,2023.2.2,Win32,85.47008547,11.7022,20.7931,return,9.0761,,,,,,,,,,,,,,,,,,,,,,,,,,,,,,,,,,,,,,,,,,,,,,,,,,,,,,,,,,,,,,,,,,,,,,,,,,
,,,,,V3_052,20,Female,2024-11-06_16h18.16.954,jersey_experiment_5_v3,2023.2.2,Win32,85.47008547,,,,,,20.7932,26.123,return,5.2947,,,,,,,,,,,,,,,,,,,,,,,,,,,,,,,,,,,,,,,,,,,,,,,,,,,,,,,,,,,,,,,,,,,,,
,,,,,V3_052,20,Female,2024-11-06_16h18.16.954,jersey_experiment_5_v3,2023.2.2,Win32,85.47008547,,,,,,,,,,,26.1231,51.7474,return,25.6116,,,,,,,,,,,,,,,,,,,,,,,,,,,,,,,,,,,,,,,,,,,,,,,,,,,,,,,,,,,,,,,,
,,,,,V3_052,20,Female,2024-11-06_16h18.16.954,jersey_experiment_5_v3,2023.2.2,Win32,85.47008547,,,,,,,,,,,,,,,,51.7502,53.3003,53.3005,69.6774,return,2.0947,,57.421875,0,0,0,13,1,FBP-YG-91.png,0.43,1.2,14,0.75,,,,,,,,,,,,,,,,,,,,,,,,,,,,,,,,,,,,,,,,,,,,,
,,,,,V3_052,20,Female,2024-11-06_16h18.16.954,jersey_experiment_5_v3,2023.2.2,Win32,85.47008547,,,,,,,,,,,,,,,,69.6778,71.2301,71.2302,76.4776,return,1.4146,,34.24479167,0,1,1,20,1,FBP-PT-18.png,0.35,1.2,21,0.75,,,,,,,,,,,,,,,,,,,,,,,,,,,,,,,,,,,,,,,,,,,,,
,,,,,V3_052,20,Female,2024-11-06_16h18.16.954,jersey_experiment_5_v3,2023.2.2,Win32,85.47008547,,,,,,,,,,,,,,,,76.4778,77.7715,77.7716,81.2306,return,0.8941,,75.390625,0,2,2,30,1,FBP-OG-17.png,0.35,1.2,31,0.5,,,,,,,,,,,,,,,,,,,,,,,,,,,,,,,,,,,,,,,,,,,,,
,,,,,V3_052,20,Female,2024-11-06_16h18.16.954,jersey_experiment_5_v3,2023.2.2,Win32,85.47008547,,,,,,,,,,,,,,,,81.2308,82.7836,82.7837,86.5485,return,0.9201,,74.609375,0,3,3,45,1,FBP-RB-17.png,0.35,1.2,46,0.75,,,,,,,,,,,,,,,,,,,,,,,,,,,,,,,,,,,,,,,,,,,,,
,,,,,V3_052,20,Female,2024-11-06_16h18.16.954,jersey_experiment_5_v3,2023.2.2,Win32,85.47008547,,,,,,,,,,,,,,,,86.5488,87.8427,87.8427,91.5956,return,2.0375,,89.58333333,0,4,4,39,1,FBP-OG-18.png,0.45,1.2,40,0.5,,,,,,,,,,,,,,,,,,,,,,,,,,,,,,,,,,,,,,,,,,,,,
,,,,,V3_052,20,Female,2024-11-06_16h18.16.954,jersey_experiment_5_v3,2023.2.2,Win32,85.47008547,,,,,,,,,,,,,,,,91.5959,92.8898,92.8898,94.7841,return,0.8155,,90.75520833,0,5,5,42,1,FBP-OG-19.png,0.4,1.2,43,0.5,,,,,,,,,,,,,,,,,,,,,,,,,,,,,,,,,,,,,,,,,,,,,
,,,,,V3_052,20,Female,2024-11-06_16h18.16.954,jersey_experiment_5_v3,2023.2.2,Win32,85.47008547,,,,,,,,,,,,,,,,94.7843,96.0782,96.0783,97.337,return,0.5584,,92.578125,0,6,6,43,1,FBP-OG-19.png,0.43,1.2,44,0.5,,,,,,,,,,,,,,,,,,,,,,,,,,,,,,,,,,,,,,,,,,,,,
,,,,,V3_052,20,Female,2024-11-06_16h18.16.954,jersey_experiment_5_v3,2023.2.2,Win32,85.47008547,,,,,,,,,,,,,,,,97.3373,98.8901,98.8901,101.6314,return,1.0831,,91.015625,0,7,7,1,1,FBP-YG-71.png,0.37,1.2,2,0.75,,,,,,,,,,,,,,,,,,,,,,,,,,,,,,,,,,,,,,,,,,,,,
,,,,,V3_052,20,Female,2024-11-06_16h18.16.954,jersey_experiment_5_v3,2023.2.2,Win32,85.47008547,,,,,,,,,,,,,,,,101.6316,102.9255,102.9255,104.9962,return,0.54,,91.015625,0,8,8,36,1,FBP-OG-18.png,0.37,1.2,37,0.5,,,,,,,,,,,,,,,,,,,,,,,,,,,,,,,,,,,,,,,,,,,,,
,,,,,V3_052,20,Female,2024-11-06_16h18.16.954,jersey_experiment_5_v3,2023.2.2,Win32,85.47008547,,,,,,,,,,,,,,,,104.9964,106.549,106.5492,109.408,return,0.4569,,30.33854167,0,9,9,5,1,FBP-YG-81.png,0.35,1.2,6,0.75,,,,,,,,,,,,,,,,,,,,,,,,,,,,,,,,,,,,,,,,,,,,,
,,,,,V3_052,20,Female,2024-11-06_16h18.16.954,jersey_experiment_5_v3,2023.2.2,Win32,85.47008547,,,,,,,,,,,,,,,,109.4082,110.9611,110.9611,112.7964,return,0.5465,,84.24479167,0,10,10,23,1,FBP-PT-18.png,0.43,1.2,24,0.75,,,,,,,,,,,,,,,,,,,,,,,,,,,,,,,,,,,,,,,,,,,,,
,,,,,V3_052,20,Female,2024-11-06_16h18.16.954,jersey_experiment_5_v3,2023.2.2,Win32,85.47008547,,,,,,,,,,,,,,,,112.7968,114.0906,114.0906,115.8437,return,0.4868,,90.36458333,0,11,11,38,1,FBP-OG-18.png,0.43,1.2,39,0.5,,,,,,,,,,,,,,,,,,,,,,,,,,,,,,,,,,,,,,,,,,,,,
,,,,,V3_052,20,Female,2024-11-06_16h18.16.954,jersey_experiment_5_v3,2023.2.2,Win32,85.47008547,,,,,,,,,,,,,,,,115.8439,117.3967,117.3967,118.879,return,0.4706,,91.40625,0,12,12,28,1,FBP-PT-19.png,0.43,1.2,29,0.75,,,,,,,,,,,,,,,,,,,,,,,,,,,,,,,,,,,,,,,,,,,,,
,,,,,V3_052,20,Female,2024-11-06_16h18.16.954,jersey_experiment_5_v3,2023.2.2,Win32,85.47008547,,,,,,,,,,,,,,,,118.8793,120.432,120.4321,121.8203,return,0.5191,,97.78645833,0,13,13,49,1,FBP-RB-17.png,0.45,1.2,50,0.75,,,,,,,,,,,,,,,,,,,,,,,,,,,,,,,,,,,,,,,,,,,,,
,,,,,V3_052,20,Female,2024-11-06_16h18.16.954,jersey_experiment_5_v3,2023.2.2,Win32,85.47008547,,,,,,,,,,,,,,,,121.8204,123.1145,123.1145,124.9262,return,0.4489,,36.97916667,0,14,14,41,1,FBP-OG-19.png,0.37,1.2,42,0.5,,,,,,,,,,,,,,,,,,,,,,,,,,,,,,,,,,,,,,,,,,,,,
,,,,,V3_052,20,Female,2024-11-06_16h18.16.954,jersey_experiment_5_v3,2023.2.2,Win32,85.47008547,,,,,,,,,,,,,,,,124.9266,126.4792,126.4792,128.244,return,0.4844,,24.73958333,0,15,15,50,1,FBP-RB-18.png,0.35,1.2,51,0.75,,,,,,,,,,,,,,,,,,,,,,,,,,,,,,,,,,,,,,,,,,,,,
,,,,,V3_052,20,Female,2024-11-06_16h18.16.954,jersey_experiment_5_v3,2023.2.2,Win32,85.47008547,,,,,,,,,,,,,,,,128.2443,129.7971,129.7972,131.4206,return,0.4875,,69.01041667,0,16,16,22,1,FBP-PT-18.png,0.4,1.2,23,0.75,,,,,,,,,,,,,,,,,,,,,,,,,,,,,,,,,,,,,,,,,,,,,
,,,,,V3_052,20,Female,2024-11-06_16h18.16.954,jersey_experiment_5_v3,2023.2.2,Win32,85.47008547,,,,,,,,,,,,,,,,131.4208,132.9737,132.9737,134.1149,return,0.4574,,69.140625,0,17,17,47,1,FBP-RB-17.png,0.4,1.2,48,0.75,,,,,,,,,,,,,,,,,,,,,,,,,,,,,,,,,,,,,,,,,,,,,
,,,,,V3_052,20,Female,2024-11-06_16h18.16.954,jersey_experiment_5_v3,2023.2.2,Win32,85.47008547,,,,,,,,,,,,,,,,134.1151,135.6679,135.6679,137.9032,return,0.8733,,70.83333333,0,18,18,58,1,FBP-RB-19.png,0.43,1.2,59,0.75,,,,,,,,,,,,,,,,,,,,,,,,,,,,,,,,,,,,,,,,,,,,,
,,,,,V3_052,20,Female,2024-11-06_16h18.16.954,jersey_experiment_5_v3,2023.2.2,Win32,85.47008547,,,,,,,,,,,,,,,,137.9035,139.1973,139.1973,141.5504,return,1.3447,,41.27604167,0,19,19,40,1,FBP-OG-19.png,0.35,1.2,41,0.5,,,,,,,,,,,,,,,,,,,,,,,,,,,,,,,,,,,,,,,,,,,,,
,,,,,V3_052,20,Female,2024-11-06_16h18.16.954,jersey_experiment_5_v3,2023.2.2,Win32,85.47008547,,,,,,,,,,,,,,,,141.5508,143.1034,143.1034,144.7859,return,0.473,,78.25520833,0,20,20,7,1,FBP-YG-81.png,0.4,1.2,8,0.75,,,,,,,,,,,,,,,,,,,,,,,,,,,,,,,,,,,,,,,,,,,,,
,,,,,V3_052,20,Female,2024-11-06_16h18.16.954,jersey_experiment_5_v3,2023.2.2,Win32,85.47008547,,,,,,,,,,,,,,,,144.7861,146.339,146.3391,147.3153,return,0.408,,89.84375,0,21,21,48,1,FBP-RB-17.png,0.43,1.2,49,0.75,,,,,,,,,,,,,,,,,,,,,,,,,,,,,,,,,,,,,,,,,,,,,
,,,,,V3_052,20,Female,2024-11-06_16h18.16.954,jersey_experiment_5_v3,2023.2.2,Win32,85.47008547,,,,,,,,,,,,,,,,147.3156,148.6095,148.6096,149.539,return,0.304,,89.84375,0,22,22,37,1,FBP-OG-18.png,0.4,1.2,38,0.5,,,,,,,,,,,,,,,,,,,,,,,,,,,,,,,,,,,,,,,,,,,,,
,,,,,V3_052,20,Female,2024-11-06_16h18.16.954,jersey_experiment_5_v3,2023.2.2,Win32,85.47008547,,,,,,,,,,,,,,,,149.5393,151.0919,151.0919,152.4685,return,0.2936,,81.51041667,0,23,23,17,1,FBP-PT-17.png,0.4,1.2,18,0.75,,,,,,,,,,,,,,,,,,,,,,,,,,,,,,,,,,,,,,,,,,,,,
,,,,,V3_052,20,Female,2024-11-06_16h18.16.954,jersey_experiment_5_v3,2023.2.2,Win32,85.47008547,,,,,,,,,,,,,,,,152.4688,154.0215,154.0215,155.0686,return,0.2524,,74.86979167,0,24,24,16,1,FBP-PT-17.png,0.37,1.2,17,0.75,,,,,,,,,,,,,,,,,,,,,,,,,,,,,,,,,,,,,,,,,,,,,
,,,,,V3_052,20,Female,2024-11-06_16h18.16.954,jersey_experiment_5_v3,2023.2.2,Win32,85.47008547,,,,,,,,,,,,,,,,155.0688,156.6217,156.6217,157.6451,return,0.3689,,90.75520833,0,25,25,3,1,FBP-YG-71.png,0.43,1.2,4,0.75,,,,,,,,,,,,,,,,,,,,,,,,,,,,,,,,,,,,,,,,,,,,,
,,,,,V3_052,20,Female,2024-11-06_16h18.16.954,jersey_experiment_5_v3,2023.2.2,Win32,85.47008547,,,,,,,,,,,,,,,,157.6453,158.9393,158.9393,159.8099,return,0.2824,,91.53645833,0,26,26,32,1,FBP-OG-17.png,0.4,1.2,33,0.5,,,,,,,,,,,,,,,,,,,,,,,,,,,,,,,,,,,,,,,,,,,,,
,,,,,V3_052,20,Female,2024-11-06_16h18.16.954,jersey_experiment_5_v3,2023.2.2,Win32,85.47008547,,,,,,,,,,,,,,,,159.8102,161.363,161.3631,162.4806,return,0.5312,,97.65625,0,27,27,59,1,FBP-RB-19.png,0.45,1.2,60,0.75,,,,,,,,,,,,,,,,,,,,,,,,,,,,,,,,,,,,,,,,,,,,,
,,,,,V3_052,20,Female,2024-11-06_16h18.16.954,jersey_experiment_5_v3,2023.2.2,Win32,85.47008547,,,,,,,,,,,,,,,,162.4809,164.0335,164.0336,165.0101,return,0.1979,,90.36458333,0,28,28,12,1,FBP-YG-91.png,0.4,1.2,13,0.75,,,,,,,,,,,,,,,,,,,,,,,,,,,,,,,,,,,,,,,,,,,,,
,,,,,V3_052,20,Female,2024-11-06_16h18.16.954,jersey_experiment_5_v3,2023.2.2,Win32,85.47008547,,,,,,,,,,,,,,,,165.0103,166.5632,166.5633,167.2572,return,0.1843,,98.69791667,0,29,29,29,1,FBP-PT-19.png,0.45,1.2,30,0.75,,,,,,,,,,,,,,,,,,,,,,,,,,,,,,,,,,,,,,,,,,,,,
,,,,,V3_052,20,Female,2024-11-06_16h18.16.954,jersey_experiment_5_v3,2023.2.2,Win32,85.47008547,,,,,,,,,,,,,,,,167.2575,168.8104,168.8104,169.8573,return,0.1886,,82.16145833,0,30,30,2,1,FBP-YG-71.png,0.4,1.2,3,0.75,,,,,,,,,,,,,,,,,,,,,,,,,,,,,,,,,,,,,,,,,,,,,
,,,,,V3_052,20,Female,2024-11-06_16h18.16.954,jersey_experiment_5_v3,2023.2.2,Win32,85.47008547,,,,,,,,,,,,,,,,169.8575,171.4103,171.4104,172.2103,return,0.22,,98.4375,0,31,31,18,1,FBP-PT-17.png,0.43,1.2,19,0.75,,,,,,,,,,,,,,,,,,,,,,,,,,,,,,,,,,,,,,,,,,,,,
,,,,,V3_052,20,Female,2024-11-06_16h18.16.954,jersey_experiment_5_v3,2023.2.2,Win32,85.47008547,,,,,,,,,,,,,,,,172.2105,173.7634,173.7634,174.4927,return,0.2249,,97.91666667,0,32,32,14,1,FBP-YG-91.png,0.45,1.2,15,0.75,,,,,,,,,,,,,,,,,,,,,,,,,,,,,,,,,,,,,,,,,,,,,
,,,,,V3_052,20,Female,2024-11-06_16h18.16.954,jersey_experiment_5_v3,2023.2.2,Win32,85.47008547,,,,,,,,,,,,,,,,174.493,176.046,176.046,177.2576,return,0.148,,13.54166667,0,33,33,56,1,FBP-RB-19.png,0.37,1.2,57,0.75,,,,,,,,,,,,,,,,,,,,,,,,,,,,,,,,,,,,,,,,,,,,,
,,,,,V3_052,20,Female,2024-11-06_16h18.16.954,jersey_experiment_5_v3,2023.2.2,Win32,85.47008547,,,,,,,,,,,,,,,,177.2578,178.8109,178.8109,180.3401,return,0.1669,,94.40104167,0,34,34,24,1,FBP-PT-18.png,0.45,1.2,25,0.75,,,,,,,,,,,,,,,,,,,,,,,,,,,,,,,,,,,,,,,,,,,,,
,,,,,V3_052,20,Female,2024-11-06_16h18.16.954,jersey_experiment_5_v3,2023.2.2,Win32,85.47008547,,,,,,,,,,,,,,,,180.3403,181.8815,181.8815,183.4814,return,0.2303,,24.34895833,0,35,35,25,1,FBP-PT-19.png,0.35,1.2,26,0.75,,,,,,,,,,,,,,,,,,,,,,,,,,,,,,,,,,,,,,,,,,,,,
,,,,,V3_052,20,Female,2024-11-06_16h18.16.954,jersey_experiment_5_v3,2023.2.2,Win32,85.47008547,,,,,,,,,,,,,,,,183.4817,185.0343,185.0344,186.3874,return,0.1547,,90.49479167,0,36,36,53,1,FBP-RB-18.png,0.43,1.2,54,0.75,,,,,,,,,,,,,,,,,,,,,,,,,,,,,,,,,,,,,,,,,,,,,
,,,,,V3_052,20,Female,2024-11-06_16h18.16.954,jersey_experiment_5_v3,2023.2.2,Win32,85.47008547,,,,,,,,,,,,,,,,186.3876,187.9404,187.9404,189.1405,return,0.1648,,28.77604167,0,37,37,0,1,FBP-YG-71.png,0.35,1.2,1,0.75,,,,,,,,,,,,,,,,,,,,,,,,,,,,,,,,,,,,,,,,,,,,,
,,,,,V3_052,20,Female,2024-11-06_16h18.16.954,jersey_experiment_5_v3,2023.2.2,Win32,85.47008547,,,,,,,,,,,,,,,,189.1407,190.6936,190.6937,191.5641,return,0.1192,,92.1875,0,38,38,8,1,FBP-YG-81.png,0.43,1.2,9,0.75,,,,,,,,,,,,,,,,,,,,,,,,,,,,,,,,,,,,,,,,,,,,,
,,,,,V3_052,20,Female,2024-11-06_16h18.16.954,jersey_experiment_5_v3,2023.2.2,Win32,85.47008547,,,,,,,,,,,,,,,,191.5643,193.117,193.117,193.8347,return,0.1954,,92.05729167,0,39,39,57,1,FBP-RB-19.png,0.4,1.2,58,0.75,,,,,,,,,,,,,,,,,,,,,,,,,,,,,,,,,,,,,,,,,,,,,
,,,,,V3_052,20,Female,2024-11-06_16h18.16.954,jersey_experiment_5_v3,2023.2.2,Win32,85.47008547,,,,,,,,,,,,,,,,193.8349,195.3877,195.3878,195.9524,return,0.2131,,92.05729167,0,40,40,54,1,FBP-RB-18.png,0.45,1.2,55,0.75,,,,,,,,,,,,,,,,,,,,,,,,,,,,,,,,,,,,,,,,,,,,,
,,,,,V3_052,20,Female,2024-11-06_16h18.16.954,jersey_experiment_5_v3,2023.2.2,Win32,85.47008547,,,,,,,,,,,,,,,,195.9528,197.5055,197.5055,198.1054,return,0.2167,,92.05729167,0,41,41,9,1,FBP-YG-81.png,0.45,1.2,10,0.75,,,,,,,,,,,,,,,,,,,,,,,,,,,,,,,,,,,,,,,,,,,,,
,,,,,V3_052,20,Female,2024-11-06_16h18.16.954,jersey_experiment_5_v3,2023.2.2,Win32,85.47008547,,,,,,,,,,,,,,,,198.1056,199.6587,199.6587,200.7175,return,0.1676,,30.859375,0,42,42,10,1,FBP-YG-91.png,0.35,1.2,11,0.75,,,,,,,,,,,,,,,,,,,,,,,,,,,,,,,,,,,,,,,,,,,,,
,,,,,V3_052,20,Female,2024-11-06_16h18.16.954,jersey_experiment_5_v3,2023.2.2,Win32,85.47008547,,,,,,,,,,,,,,,,200.7176,202.2703,202.2703,203.4351,return,0.18,,32.03125,0,43,43,15,1,FBP-PT-17.png,0.35,1.2,16,0.75,,,,,,,,,,,,,,,,,,,,,,,,,,,,,,,,,,,,,,,,,,,,,
,,,,,V3_052,20,Female,2024-11-06_16h18.16.954,jersey_experiment_5_v3,2023.2.2,Win32,85.47008547,,,,,,,,,,,,,,,,203.4354,204.9881,204.9881,205.9647,return,0.2052,,27.60416667,0,44,44,46,1,FBP-RB-17.png,0.37,1.2,47,0.75,,,,,,,,,,,,,,,,,,,,,,,,,,,,,,,,,,,,,,,,,,,,,
,,,,,V3_052,20,Female,2024-11-06_16h18.16.954,jersey_experiment_5_v3,2023.2.2,Win32,85.47008547,,,,,,,,,,,,,,,,205.9649,207.5176,207.5177,208.353,return,0.1522,,75,0,45,45,52,1,FBP-RB-18.png,0.4,1.2,53,0.75,,,,,,,,,,,,,,,,,,,,,,,,,,,,,,,,,,,,,,,,,,,,,
,,,,,V3_052,20,Female,2024-11-06_16h18.16.954,jersey_experiment_5_v3,2023.2.2,Win32,85.47008547,,,,,,,,,,,,,,,,208.3533,209.9059,209.9059,211.4708,return,0.1333,,41.66666667,0,46,46,26,1,FBP-PT-19.png,0.37,1.2,27,0.75,,,,,,,,,,,,,,,,,,,,,,,,,,,,,,,,,,,,,,,,,,,,,
,,,,,V3_052,20,Female,2024-11-06_16h18.16.954,jersey_experiment_5_v3,2023.2.2,Win32,85.47008547,,,,,,,,,,,,,,,,211.471,212.7649,212.7649,213.6824,return,0.1439,,42.83854167,0,47,47,35,1,FBP-OG-18.png,0.35,1.2,36,0.5,,,,,,,,,,,,,,,,,,,,,,,,,,,,,,,,,,,,,,,,,,,,,
,,,,,V3_052,20,Female,2024-11-06_16h18.16.954,jersey_experiment_5_v3,2023.2.2,Win32,85.47008547,,,,,,,,,,,,,,,,213.6826,215.2355,215.2356,215.8355,return,0.1553,,43.61979167,0,48,48,55,1,FBP-RB-19.png,0.35,1.2,56,0.75,,,,,,,,,,,,,,,,,,,,,,,,,,,,,,,,,,,,,,,,,,,,,
,,,,,V3_052,20,Female,2024-11-06_16h18.16.954,jersey_experiment_5_v3,2023.2.2,Win32,85.47008547,,,,,,,,,,,,,,,,215.8359,217.3886,217.3886,217.9768,return,0.1373,,43.61979167,0,49,49,21,1,FBP-PT-18.png,0.37,1.2,22,0.75,,,,,,,,,,,,,,,,,,,,,,,,,,,,,,,,,,,,,,,,,,,,,
,,,,,V3_052,20,Female,2024-11-06_16h18.16.954,jersey_experiment_5_v3,2023.2.2,Win32,85.47008547,,,,,,,,,,,,,,,,217.9771,219.5296,219.5297,221.024,return,0.9322,,58.85416667,0,50,50,51,1,FBP-RB-18.png,0.37,1.2,52,0.75,,,,,,,,,,,,,,,,,,,,,,,,,,,,,,,,,,,,,,,,,,,,,
,,,,,V3_052,20,Female,2024-11-06_16h18.16.954,jersey_experiment_5_v3,2023.2.2,Win32,85.47008547,,,,,,,,,,,,,,,,221.0242,222.5657,222.5657,223.2005,return,0.2207,,66.27604167,0,51,51,11,1,FBP-YG-91.png,0.37,1.2,12,0.75,,,,,,,,,,,,,,,,,,,,,,,,,,,,,,,,,,,,,,,,,,,,,
,,,,,V3_052,20,Female,2024-11-06_16h18.16.954,jersey_experiment_5_v3,2023.2.2,Win32,85.47008547,,,,,,,,,,,,,,,,223.2008,224.7536,224.7536,225.4123,return,0.1883,,73.69791667,0,52,52,6,1,FBP-YG-81.png,0.37,1.2,7,0.75,,,,,,,,,,,,,,,,,,,,,,,,,,,,,,,,,,,,,,,,,,,,,
,,,,,V3_052,20,Female,2024-11-06_16h18.16.954,jersey_experiment_5_v3,2023.2.2,Win32,85.47008547,,,,,,,,,,,,,,,,225.4126,226.9654,226.9655,227.883,return,0.148,,92.31770833,0,53,53,4,1,FBP-YG-71.png,0.45,1.2,5,0.75,,,,,,,,,,,,,,,,,,,,,,,,,,,,,,,,,,,,,,,,,,,,,
,,,,,V3_052,20,Female,2024-11-06_16h18.16.954,jersey_experiment_5_v3,2023.2.2,Win32,85.47008547,,,,,,,,,,,,,,,,227.8834,229.1772,229.1772,229.7537,return,0.1375,,92.31770833,0,54,54,34,1,FBP-OG-17.png,0.45,1.2,35,0.5,,,,,,,,,,,,,,,,,,,,,,,,,,,,,,,,,,,,,,,,,,,,,
,,,,,V3_052,20,Female,2024-11-06_16h18.16.954,jersey_experiment_5_v3,2023.2.2,Win32,85.47008547,,,,,,,,,,,,,,,,229.754,231.0479,231.0479,231.9538,return,0.1886,,92.31770833,0,55,55,33,1,FBP-OG-17.png,0.43,1.2,34,0.5,,,,,,,,,,,,,,,,,,,,,,,,,,,,,,,,,,,,,,,,,,,,,
,,,,,V3_052,20,Female,2024-11-06_16h18.16.954,jersey_experiment_5_v3,2023.2.2,Win32,85.47008547,,,,,,,,,,,,,,,,231.9542,233.5068,233.5068,234.2362,return,0.3664,,92.44791667,0,56,56,27,1,FBP-PT-19.png,0.4,1.2,28,0.75,,,,,,,,,,,,,,,,,,,,,,,,,,,,,,,,,,,,,,,,,,,,,
,,,,,V3_052,20,Female,2024-11-06_16h18.16.954,jersey_experiment_5_v3,2023.2.2,Win32,85.47008547,,,,,,,,,,,,,,,,234.2364,235.7892,235.7892,236.4363,return,0.1544,,94.79166667,0,57,57,19,1,FBP-PT-17.png,0.45,1.2,20,0.75,,,,,,,,,,,,,,,,,,,,,,,,,,,,,,,,,,,,,,,,,,,,,
,,,,,V3_052,20,Female,2024-11-06_16h18.16.954,jersey_experiment_5_v3,2023.2.2,Win32,85.47008547,,,,,,,,,,,,,,,,236.4366,237.7305,237.7305,238.7774,return,0.1487,,35.02604167,0,58,58,31,1,FBP-OG-17.png,0.37,1.2,32,0.5,,,,,,,,,,,,,,,,,,,,,,,,,,,,,,,,,,,,,,,,,,,,,
,,,,,V3_052,20,Female,2024-11-06_16h18.16.954,jersey_experiment_5_v3,2023.2.2,Win32,85.47008547,,,,,,,,,,,,,,,,238.7777,240.0718,240.0718,241.3776,return,0.3198,,94.27083333,0,59,59,44,1,FBP-OG-19.png,0.45,1.2,45,0.5,,,,,,,,,,,,,,,,,,,,,,,,,,,,,,,,,,,,,,,,,,,,,
,,,,,V3_052,20,Female,2024-11-06_16h18.16.954,jersey_experiment_5_v3,2023.2.2,Win32,85.47008547,,,,,,,,,,,,,,,,241.3793,242.9305,242.9306,243.6365,return,0.1156,,92.578125,,,,,,FBP-YG-17.png,0.4,1.2,3,0.75,0,0,0,2,1,,,,,,,,,,,,,,,,,,,,,,,,,,,,,,,,,,,,,,,,
,,,,,V3_052,20,Female,2024-11-06_16h18.16.954,jersey_experiment_5_v3,2023.2.2,Win32,85.47008547,,,,,,,,,,,,,,,,243.6369,245.1896,245.1896,245.6955,return,0.1281,,92.31770833,,,,,,FBP-PT-81.png,0.4,1.2,23,0.75,0,1,1,22,1,,,,,,,,,,,,,,,,,,,,,,,,,,,,,,,,,,,,,,,,
,,,,,V3_052,20,Female,2024-11-06_16h18.16.954,jersey_experiment_5_v3,2023.2.2,Win32,85.47008547,,,,,,,,,,,,,,,,245.6958,247.2485,247.2485,247.7896,return,0.1925,,92.31770833,,,,,,FBP-YG-17.png,0.37,1.2,2,0.75,0,2,2,1,1,,,,,,,,,,,,,,,,,,,,,,,,,,,,,,,,,,,,,,,,
,,,,,V3_052,20,Female,2024-11-06_16h18.16.954,jersey_experiment_5_v3,2023.2.2,Win32,85.47008547,,,,,,,,,,,,,,,,247.7898,249.3426,249.3426,250.272,return,0.1666,,39.58333333,,,,,,FBP-RB-91.png,0.35,1.2,56,0.75,0,3,3,55,1,,,,,,,,,,,,,,,,,,,,,,,,,,,,,,,,,,,,,,,,
,,,,,V3_052,20,Female,2024-11-06_16h18.16.954,jersey_experiment_5_v3,2023.2.2,Win32,85.47008547,,,,,,,,,,,,,,,,250.2722,251.5662,251.5662,252.1309,return,0.1195,,39.58333333,,,,,,FBP-OG-81.png,0.37,1.2,37,0.5,0,4,4,36,1,,,,,,,,,,,,,,,,,,,,,,,,,,,,,,,,,,,,,,,,
,,,,,V3_052,20,Female,2024-11-06_16h18.16.954,jersey_experiment_5_v3,2023.2.2,Win32,85.47008547,,,,,,,,,,,,,,,,252.1311,253.684,253.6841,254.8017,return,0.2828,,87.23958333,,,,,,FBP-RB-81.png,0.45,1.2,55,0.75,0,5,5,54,1,,,,,,,,,,,,,,,,,,,,,,,,,,,,,,,,,,,,,,,,
,,,,,V3_052,20,Female,2024-11-06_16h18.16.954,jersey_experiment_5_v3,2023.2.2,Win32,85.47008547,,,,,,,,,,,,,,,,254.8019,256.0958,256.0959,257.0487,return,0.1618,,85.02604167,,,,,,FBP-OG-81.png,0.43,1.2,39,0.5,0,6,6,38,1,,,,,,,,,,,,,,,,,,,,,,,,,,,,,,,,,,,,,,,,
,,,,,V3_052,20,Female,2024-11-06_16h18.16.954,jersey_experiment_5_v3,2023.2.2,Win32,85.47008547,,,,,,,,,,,,,,,,257.0489,258.6017,258.6018,259.2607,return,0.2053,,85.02604167,,,,,,FBP-YG-18.png,0.37,1.2,7,0.75,0,7,7,6,1,,,,,,,,,,,,,,,,,,,,,,,,,,,,,,,,,,,,,,,,
,,,,,V3_052,20,Female,2024-11-06_16h18.16.954,jersey_experiment_5_v3,2023.2.2,Win32,85.47008547,,,,,,,,,,,,,,,,259.261,260.8137,260.8137,261.5549,return,0.0707,,36.45833333,,,,,,FBP-PT-71.png,0.37,1.2,17,0.75,0,8,8,16,1,,,,,,,,,,,,,,,,,,,,,,,,,,,,,,,,,,,,,,,,
,,,,,V3_052,20,Female,2024-11-06_16h18.16.954,jersey_experiment_5_v3,2023.2.2,Win32,85.47008547,,,,,,,,,,,,,,,,261.5552,262.849,262.849,263.6491,return,0.1028,,83.46354167,,,,,,FBP-OG-81.png,0.4,1.2,38,0.5,0,9,9,37,1,,,,,,,,,,,,,,,,,,,,,,,,,,,,,,,,,,,,,,,,
,,,,,V3_052,20,Female,2024-11-06_16h18.16.954,jersey_experiment_5_v3,2023.2.2,Win32,85.47008547,,,,,,,,,,,,,,,,263.6493,265.202,265.202,266.2024,return,0.0667,,34.89583333,,,,,,FBP-PT-71.png,0.35,1.2,16,0.75,0,10,10,15,1,,,,,,,,,,,,,,,,,,,,,,,,,,,,,,,,,,,,,,,,
,,,,,V3_052,20,Female,2024-11-06_16h18.16.954,jersey_experiment_5_v3,2023.2.2,Win32,85.47008547,,,,,,,,,,,,,,,,266.2026,267.7554,267.7554,268.626,return,0.0594,,86.71875,,,,,,FBP-PT-91.png,0.4,1.2,28,0.75,0,11,11,27,1,,,,,,,,,,,,,,,,,,,,,,,,,,,,,,,,,,,,,,,,
,,,,,V3_052,20,Female,2024-11-06_16h18.16.954,jersey_experiment_5_v3,2023.2.2,Win32,85.47008547,,,,,,,,,,,,,,,,268.6262,270.1787,270.1787,270.8964,return,0.1762,,75.52083333,,,,,,FBP-YG-19.png,0.37,1.2,12,0.75,0,12,12,11,1,,,,,,,,,,,,,,,,,,,,,,,,,,,,,,,,,,,,,,,,
,,,,,V3_052,20,Female,2024-11-06_16h18.16.954,jersey_experiment_5_v3,2023.2.2,Win32,85.47008547,,,,,,,,,,,,,,,,270.8966,272.1906,272.1906,272.9434,return,0.1529,,88.54166667,,,,,,FBP-OG-91.png,0.45,1.2,45,0.5,0,13,13,44,1,,,,,,,,,,,,,,,,,,,,,,,,,,,,,,,,,,,,,,,,
,,,,,V3_052,20,Female,2024-11-06_16h18.16.954,jersey_experiment_5_v3,2023.2.2,Win32,85.47008547,,,,,,,,,,,,,,,,272.9436,274.2378,274.2378,275.1319,return,0.1471,,31.77083333,,,,,,FBP-OG-91.png,0.37,1.2,42,0.5,0,14,14,41,1,,,,,,,,,,,,,,,,,,,,,,,,,,,,,,,,,,,,,,,,
,,,,,V3_052,20,Female,2024-11-06_16h18.16.954,jersey_experiment_5_v3,2023.2.2,Win32,85.47008547,,,,,,,,,,,,,,,,275.1321,276.685,276.685,277.3908,return,0.1679,,94.66145833,,,,,,FBP-YG-19.png,0.45,1.2,15,0.75,0,15,15,14,1,,,,,,,,,,,,,,,,,,,,,,,,,,,,,,,,,,,,,,,,
,,,,,V3_052,20,Female,2024-11-06_16h18.16.954,jersey_experiment_5_v3,2023.2.2,Win32,85.47008547,,,,,,,,,,,,,,,,277.3911,278.944,278.944,279.6497,return,0.1041,,86.58854167,,,,,,FBP-YG-19.png,0.4,1.2,13,0.75,0,16,16,12,1,,,,,,,,,,,,,,,,,,,,,,,,,,,,,,,,,,,,,,,,
,,,,,V3_052,20,Female,2024-11-06_16h18.16.954,jersey_experiment_5_v3,2023.2.2,Win32,85.47008547,,,,,,,,,,,,,,,,279.6499,280.9438,280.9438,281.7909,return,0.1307,,81.25,,,,,,FBP-OG-91.png,0.4,1.2,43,0.5,0,17,17,42,1,,,,,,,,,,,,,,,,,,,,,,,,,,,,,,,,,,,,,,,,
,,,,,V3_052,20,Female,2024-11-06_16h18.16.954,jersey_experiment_5_v3,2023.2.2,Win32,85.47008547,,,,,,,,,,,,,,,,281.7912,283.085,283.0851,284.2381,return,0.2391,,30.078125,,,,,,FBP-OG-71.png,0.37,1.2,32,0.5,0,18,18,31,1,,,,,,,,,,,,,,,,,,,,,,,,,,,,,,,,,,,,,,,,
,,,,,V3_052,20,Female,2024-11-06_16h18.16.954,jersey_experiment_5_v3,2023.2.2,Win32,85.47008547,,,,,,,,,,,,,,,,284.2384,285.5322,285.5323,286.497,return,0.0552,,88.02083333,,,,,,FBP-OG-91.png,0.43,1.2,44,0.5,0,19,19,43,1,,,,,,,,,,,,,,,,,,,,,,,,,,,,,,,,,,,,,,,,
,,,,,V3_052,20,Female,2024-11-06_16h18.16.954,jersey_experiment_5_v3,2023.2.2,Win32,85.47008547,,,,,,,,,,,,,,,,286.4973,287.7913,287.7913,289.05,return,0.1231,,88.02083333,,,,,,FBP-OG-81.png,0.45,1.2,40,0.5,0,20,20,39,1,,,,,,,,,,,,,,,,,,,,,,,,,,,,,,,,,,,,,,,,
,,,,,V3_052,20,Female,2024-11-06_16h18.16.954,jersey_experiment_5_v3,2023.2.2,Win32,85.47008547,,,,,,,,,,,,,,,,289.0503,290.603,290.6031,291.6029,return,0.1516,,88.02083333,,,,,,FBP-RB-81.png,0.4,1.2,53,0.75,0,21,21,52,1,,,,,,,,,,,,,,,,,,,,,,,,,,,,,,,,,,,,,,,,
,,,,,V3_052,20,Female,2024-11-06_16h18.16.954,jersey_experiment_5_v3,2023.2.2,Win32,85.47008547,,,,,,,,,,,,,,,,291.6032,293.1561,293.1562,294.1091,return,0.0974,,37.76041667,,,,,,FBP-RB-81.png,0.35,1.2,51,0.75,0,22,22,50,1,,,,,,,,,,,,,,,,,,,,,,,,,,,,,,,,,,,,,,,,
,,,,,V3_052,20,Female,2024-11-06_16h18.16.954,jersey_experiment_5_v3,2023.2.2,Win32,85.47008547,,,,,,,,,,,,,,,,294.1093,295.662,295.6621,296.8503,return,0.2825,,37.63020833,,,,,,FBP-YG-19.png,0.35,1.2,11,0.75,0,23,23,10,1,,,,,,,,,,,,,,,,,,,,,,,,,,,,,,,,,,,,,,,,
,,,,,V3_052,20,Female,2024-11-06_16h18.16.954,jersey_experiment_5_v3,2023.2.2,Win32,85.47008547,,,,,,,,,,,,,,,,296.8505,298.4032,298.4032,299.3444,return,0.0957,,39.0625,,,,,,FBP-PT-81.png,0.35,1.2,21,0.75,0,24,24,20,1,,,,,,,,,,,,,,,,,,,,,,,,,,,,,,,,,,,,,,,,
,,,,,V3_052,20,Female,2024-11-06_16h18.16.954,jersey_experiment_5_v3,2023.2.2,Win32,85.47008547,,,,,,,,,,,,,,,,299.3448,300.8976,300.8976,302.5447,return,0.4013,,64.84375,,,,,,FBP-RB-81.png,0.37,1.2,52,0.75,0,25,25,51,1,,,,,,,,,,,,,,,,,,,,,,,,,,,,,,,,,,,,,,,,
,,,,,V3_052,20,Female,2024-11-06_16h18.16.954,jersey_experiment_5_v3,2023.2.2,Win32,85.47008547,,,,,,,,,,,,,,,,302.545,304.0978,304.0978,304.7682,return,0.1192,,86.71875,,,,,,FBP-YG-18.png,0.45,1.2,10,0.75,0,26,26,9,1,,,,,,,,,,,,,,,,,,,,,,,,,,,,,,,,,,,,,,,,
,,,,,V3_052,20,Female,2024-11-06_16h18.16.954,jersey_experiment_5_v3,2023.2.2,Win32,85.47008547,,,,,,,,,,,,,,,,304.7686,306.3212,306.3212,306.9566,return,0.075,,86.71875,,,,,,FBP-YG-18.png,0.4,1.2,8,0.75,0,27,27,7,1,,,,,,,,,,,,,,,,,,,,,,,,,,,,,,,,,,,,,,,,
,,,,,V3_052,20,Female,2024-11-06_16h18.16.954,jersey_experiment_5_v3,2023.2.2,Win32,85.47008547,,,,,,,,,,,,,,,,306.9569,308.5097,308.5097,309.2037,return,0.238,,89.32291667,,,,,,FBP-YG-17.png,0.45,1.2,5,0.75,0,28,28,4,1,,,,,,,,,,,,,,,,,,,,,,,,,,,,,,,,,,,,,,,,
,,,,,V3_052,20,Female,2024-11-06_16h18.16.954,jersey_experiment_5_v3,2023.2.2,Win32,85.47008547,,,,,,,,,,,,,,,,309.2039,310.7566,310.7567,311.5684,return,0.057,,40.36458333,,,,,,FBP-YG-18.png,0.35,1.2,6,0.75,0,29,29,5,1,,,,,,,,,,,,,,,,,,,,,,,,,,,,,,,,,,,,,,,,
,,,,,V3_052,20,Female,2024-11-06_16h18.16.954,jersey_experiment_5_v3,2023.2.2,Win32,85.47008547,,,,,,,,,,,,,,,,311.5687,313.1215,313.1215,314.098,return,0.0833,,86.19791667,,,,,,FBP-PT-71.png,0.43,1.2,19,0.75,0,30,30,18,1,,,,,,,,,,,,,,,,,,,,,,,,,,,,,,,,,,,,,,,,
,,,,,V3_052,20,Female,2024-11-06_16h18.16.954,jersey_experiment_5_v3,2023.2.2,Win32,85.47008547,,,,,,,,,,,,,,,,314.0982,315.6512,315.6512,316.698,return,0.0885,,88.54166667,,,,,,FBP-RB-71.png,0.45,1.2,50,0.75,0,31,31,49,1,,,,,,,,,,,,,,,,,,,,,,,,,,,,,,,,,,,,,,,,
,,,,,V3_052,20,Female,2024-11-06_16h18.16.954,jersey_experiment_5_v3,2023.2.2,Win32,85.47008547,,,,,,,,,,,,,,,,316.6983,318.2513,318.2513,319.0864,return,0.1332,,89.0625,,,,,,FBP-RB-91.png,0.43,1.2,59,0.75,0,32,32,58,1,,,,,,,,,,,,,,,,,,,,,,,,,,,,,,,,,,,,,,,,
,,,,,V3_052,20,Female,2024-11-06_16h18.16.954,jersey_experiment_5_v3,2023.2.2,Win32,85.47008547,,,,,,,,,,,,,,,,319.0867,320.6396,320.6397,321.4277,return,0.2129,,32.68229167,,,,,,FBP-PT-91.png,0.37,1.2,27,0.75,0,33,33,26,1,,,,,,,,,,,,,,,,,,,,,,,,,,,,,,,,,,,,,,,,
,,,,,V3_052,20,Female,2024-11-06_16h18.16.954,jersey_experiment_5_v3,2023.2.2,Win32,85.47008547,,,,,,,,,,,,,,,,321.428,322.9807,322.9807,323.6513,return,0.1649,,33.46354167,,,,,,FBP-RB-91.png,0.37,1.2,57,0.75,0,34,34,56,1,,,,,,,,,,,,,,,,,,,,,,,,,,,,,,,,,,,,,,,,
,,,,,V3_052,20,Female,2024-11-06_16h18.16.954,jersey_experiment_5_v3,2023.2.2,Win32,85.47008547,,,,,,,,,,,,,,,,323.6515,325.2044,325.2045,325.8867,return,0.0702,,90.36458333,,,,,,FBP-PT-91.png,0.43,1.2,29,0.75,0,35,35,28,1,,,,,,,,,,,,,,,,,,,,,,,,,,,,,,,,,,,,,,,,
,,,,,V3_052,20,Female,2024-11-06_16h18.16.954,jersey_experiment_5_v3,2023.2.2,Win32,85.47008547,,,,,,,,,,,,,,,,325.8869,327.1809,327.1809,327.6985,return,0.1654,,88.93229167,,,,,,FBP-OG-71.png,0.45,1.2,35,0.5,0,36,36,34,1,,,,,,,,,,,,,,,,,,,,,,,,,,,,,,,,,,,,,,,,
,,,,,V3_052,20,Female,2024-11-06_16h18.16.954,jersey_experiment_5_v3,2023.2.2,Win32,85.47008547,,,,,,,,,,,,,,,,327.6987,328.9927,328.9927,330.2752,return,0.165,,39.19270833,,,,,,FBP-OG-91.png,0.35,1.2,41,0.5,0,37,37,40,1,,,,,,,,,,,,,,,,,,,,,,,,,,,,,,,,,,,,,,,,
,,,,,V3_052,20,Female,2024-11-06_16h18.16.954,jersey_experiment_5_v3,2023.2.2,Win32,85.47008547,,,,,,,,,,,,,,,,330.2755,331.8282,331.8282,332.687,return,0.2274,,19.40104167,,,,,,FBP-RB-71.png,0.35,1.2,46,0.75,0,38,38,45,1,,,,,,,,,,,,,,,,,,,,,,,,,,,,,,,,,,,,,,,,
,,,,,V3_052,20,Female,2024-11-06_16h18.16.954,jersey_experiment_5_v3,2023.2.2,Win32,85.47008547,,,,,,,,,,,,,,,,332.6872,334.2399,334.24,334.9929,return,0.1675,,91.66666667,,,,,,FBP-YG-19.png,0.43,1.2,14,0.75,0,39,39,13,1,,,,,,,,,,,,,,,,,,,,,,,,,,,,,,,,,,,,,,,,
,,,,,V3_052,20,Female,2024-11-06_16h18.16.954,jersey_experiment_5_v3,2023.2.2,Win32,85.47008547,,,,,,,,,,,,,,,,334.9931,336.5459,336.546,337.3106,return,0.0504,,87.63020833,,,,,,FBP-PT-81.png,0.43,1.2,24,0.75,0,40,40,23,1,,,,,,,,,,,,,,,,,,,,,,,,,,,,,,,,,,,,,,,,
,,,,,V3_052,20,Female,2024-11-06_16h18.16.954,jersey_experiment_5_v3,2023.2.2,Win32,85.47008547,,,,,,,,,,,,,,,,337.3108,338.8637,338.8638,339.699,return,0.1877,,35.02604167,,,,,,FBP-PT-91.png,0.35,1.2,26,0.75,0,41,41,25,1,,,,,,,,,,,,,,,,,,,,,,,,,,,,,,,,,,,,,,,,
,,,,,V3_052,20,Female,2024-11-06_16h18.16.954,jersey_experiment_5_v3,2023.2.2,Win32,85.47008547,,,,,,,,,,,,,,,,339.6992,341.2519,341.252,342.0756,return,0.2062,,36.45833333,,,,,,FBP-YG-17.png,0.35,1.2,1,0.75,0,42,42,0,1,,,,,,,,,,,,,,,,,,,,,,,,,,,,,,,,,,,,,,,,
,,,,,V3_052,20,Female,2024-11-06_16h18.16.954,jersey_experiment_5_v3,2023.2.2,Win32,85.47008547,,,,,,,,,,,,,,,,342.0758,343.3697,343.3697,344.2874,return,0.1193,,78.64583333,,,,,,FBP-OG-71.png,0.4,1.2,33,0.5,0,43,43,32,1,,,,,,,,,,,,,,,,,,,,,,,,,,,,,,,,,,,,,,,,
,,,,,V3_052,20,Female,2024-11-06_16h18.16.954,jersey_experiment_5_v3,2023.2.2,Win32,85.47008547,,,,,,,,,,,,,,,,344.2876,345.8404,345.8404,346.2992,return,0.226,,78.64583333,,,,,,FBP-YG-17.png,0.43,1.2,4,0.75,0,44,44,3,1,,,,,,,,,,,,,,,,,,,,,,,,,,,,,,,,,,,,,,,,
,,,,,V3_052,20,Female,2024-11-06_16h18.16.954,jersey_experiment_5_v3,2023.2.2,Win32,85.47008547,,,,,,,,,,,,,,,,346.2995,347.8521,347.8521,349.1464,return,0.7837,,79.296875,,,,,,FBP-RB-81.png,0.43,1.2,54,0.75,0,45,45,53,1,,,,,,,,,,,,,,,,,,,,,,,,,,,,,,,,,,,,,,,,
,,,,,V3_052,20,Female,2024-11-06_16h18.16.954,jersey_experiment_5_v3,2023.2.2,Win32,85.47008547,,,,,,,,,,,,,,,,349.1467,350.4405,350.4406,351.3464,return,0.1169,,35.15625,,,,,,FBP-OG-81.png,0.35,1.2,36,0.5,0,46,46,35,1,,,,,,,,,,,,,,,,,,,,,,,,,,,,,,,,,,,,,,,,
,,,,,V3_052,20,Female,2024-11-06_16h18.16.954,jersey_experiment_5_v3,2023.2.2,Win32,85.47008547,,,,,,,,,,,,,,,,351.3466,352.8996,352.8997,353.723,return,0.1597,,87.76041667,,,,,,FBP-RB-91.png,0.45,1.2,60,0.75,0,47,47,59,1,,,,,,,,,,,,,,,,,,,,,,,,,,,,,,,,,,,,,,,,
,,,,,V3_052,20,Female,2024-11-06_16h18.16.954,jersey_experiment_5_v3,2023.2.2,Win32,85.47008547,,,,,,,,,,,,,,,,353.7233,355.2759,355.276,355.7937,return,0.1095,,87.76041667,,,,,,FBP-RB-91.png,0.4,1.2,58,0.75,0,48,48,57,1,,,,,,,,,,,,,,,,,,,,,,,,,,,,,,,,,,,,,,,,
,,,,,V3_052,20,Female,2024-11-06_16h18.16.954,jersey_experiment_5_v3,2023.2.2,Win32,85.47008547,,,,,,,,,,,,,,,,355.7939,357.3467,357.3467,358.2879,return,0.2268,,87.5,,,,,,FBP-RB-71.png,0.43,1.2,49,0.75,0,49,49,48,1,,,,,,,,,,,,,,,,,,,,,,,,,,,,,,,,,,,,,,,,
,,,,,V3_052,20,Female,2024-11-06_16h18.16.954,jersey_experiment_5_v3,2023.2.2,Win32,85.47008547,,,,,,,,,,,,,,,,358.2881,359.5821,359.5822,360.3467,return,0.064,,39.0625,,,,,,FBP-OG-71.png,0.35,1.2,31,0.5,0,50,50,30,1,,,,,,,,,,,,,,,,,,,,,,,,,,,,,,,,,,,,,,,,
,,,,,V3_052,20,Female,2024-11-06_16h18.16.954,jersey_experiment_5_v3,2023.2.2,Win32,85.47008547,,,,,,,,,,,,,,,,360.3471,361.641,361.641,362.4645,return,0.1661,,84.50520833,,,,,,FBP-OG-71.png,0.43,1.2,34,0.5,0,51,51,33,1,,,,,,,,,,,,,,,,,,,,,,,,,,,,,,,,,,,,,,,,
,,,,,V3_052,20,Female,2024-11-06_16h18.16.954,jersey_experiment_5_v3,2023.2.2,Win32,85.47008547,,,,,,,,,,,,,,,,362.4647,364.0174,364.0174,364.5586,return,0.1677,,84.375,,,,,,FBP-PT-81.png,0.37,1.2,22,0.75,0,52,52,21,1,,,,,,,,,,,,,,,,,,,,,,,,,,,,,,,,,,,,,,,,
,,,,,V3_052,20,Female,2024-11-06_16h18.16.954,jersey_experiment_5_v3,2023.2.2,Win32,85.47008547,,,,,,,,,,,,,,,,364.5588,366.1117,366.1117,366.6764,return,0.1646,,84.375,,,,,,FBP-PT-71.png,0.4,1.2,18,0.75,0,53,53,17,1,,,,,,,,,,,,,,,,,,,,,,,,,,,,,,,,,,,,,,,,
,,,,,V3_052,20,Female,2024-11-06_16h18.16.954,jersey_experiment_5_v3,2023.2.2,Win32,85.47008547,,,,,,,,,,,,,,,,366.6767,368.2295,368.2295,368.7825,return,0.1645,,84.375,,,,,,FBP-PT-71.png,0.45,1.2,20,0.75,0,54,54,19,1,,,,,,,,,,,,,,,,,,,,,,,,,,,,,,,,,,,,,,,,
,,,,,V3_052,20,Female,2024-11-06_16h18.16.954,jersey_experiment_5_v3,2023.2.2,Win32,85.47008547,,,,,,,,,,,,,,,,368.7827,370.3353,370.3353,370.8648,return,0.1739,,84.375,,,,,,FBP-YG-18.png,0.43,1.2,9,0.75,0,55,55,8,1,,,,,,,,,,,,,,,,,,,,,,,,,,,,,,,,,,,,,,,,
,,,,,V3_052,20,Female,2024-11-06_16h18.16.954,jersey_experiment_5_v3,2023.2.2,Win32,85.47008547,,,,,,,,,,,,,,,,370.8651,372.4178,372.4178,372.9471,return,0.1907,,84.375,,,,,,FBP-RB-71.png,0.4,1.2,48,0.75,0,56,56,47,1,,,,,,,,,,,,,,,,,,,,,,,,,,,,,,,,,,,,,,,,
,,,,,V3_052,20,Female,2024-11-06_16h18.16.954,jersey_experiment_5_v3,2023.2.2,Win32,85.47008547,,,,,,,,,,,,,,,,372.9475,374.5003,374.5003,375.0415,return,0.2109,,84.375,,,,,,FBP-PT-81.png,0.45,1.2,25,0.75,0,57,57,24,1,,,,,,,,,,,,,,,,,,,,,,,,,,,,,,,,,,,,,,,,
,,,,,V3_052,20,Female,2024-11-06_16h18.16.954,jersey_experiment_5_v3,2023.2.2,Win32,85.47008547,,,,,,,,,,,,,,,,375.0417,376.5943,376.5944,377.2298,return,0.2509,,84.375,,,,,,FBP-PT-91.png,0.45,1.2,30,0.75,0,58,58,29,1,,,,,,,,,,,,,,,,,,,,,,,,,,,,,,,,,,,,,,,,
,,,,,V3_052,20,Female,2024-11-06_16h18.16.954,jersey_experiment_5_v3,2023.2.2,Win32,85.47008547,,,,,,,,,,,,,,,,377.23,378.7829,378.7829,379.7239,return,0.2157,,28.64583333,,,,,,FBP-RB-71.png,0.37,1.2,47,0.75,0,59,59,46,1,,,,,,,,,,,,,,,,,,,,,,,,,,,,,,,,,,,,,,,,
,,,,,V3_052,20,Female,2024-11-06_16h18.16.954,jersey_experiment_5_v3,2023.2.2,Win32,85.47008547,,,,,,,,,,,,,,,,,,,,,,,,,,,,,,,,,,,,,,,379.7241,499.7168,,,,,,,,,,,,,,,,,,,,,,,,,,,,,,,,,,,,,,
,,,,,V3_052,20,Female,2024-11-06_16h18.16.954,jersey_experiment_5_v3,2023.2.2,Win32,85.47008547,,,,,,,,,,,,,,,,,,,,,,,,,,,,,,,,,,,,,,,,,499.7169,515.3408,return,15.6129,,,,,,,,,,,,,,,,,,,,,,,,,,,,,,,,,,
,,,,,V3_052,20,Female,2024-11-06_16h18.16.954,jersey_experiment_5_v3,2023.2.2,Win32,85.47008547,,,,,,,,,,,,,,,,515.3427,516.6349,516.635,518.882,return,0.8157,,89.453125,,,,,,FBP-YG-91.png,0.4,1.2,13,0.5,,,,,,,,,,,,,0,0,0,12,1,,,,,,,,,,,,,,,,,,,,,,,,,,,,
,,,,,V3_052,20,Female,2024-11-06_16h18.16.954,jersey_experiment_5_v3,2023.2.2,Win32,85.47008547,,,,,,,,,,,,,,,,518.8824,520.435,520.435,521.4114,return,0.1656,,82.421875,,,,,,FBP-OG-19.png,0.4,1.2,43,0.75,,,,,,,,,,,,,0,1,1,42,1,,,,,,,,,,,,,,,,,,,,,,,,,,,,
,,,,,V3_052,20,Female,2024-11-06_16h18.16.954,jersey_experiment_5_v3,2023.2.2,Win32,85.47008547,,,,,,,,,,,,,,,,521.4117,522.7057,522.7058,523.2115,return,0.1666,,82.421875,,,,,,FBP-PT-17.png,0.43,1.2,19,0.5,,,,,,,,,,,,,0,2,2,18,1,,,,,,,,,,,,,,,,,,,,,,,,,,,,
,,,,,V3_052,20,Female,2024-11-06_16h18.16.954,jersey_experiment_5_v3,2023.2.2,Win32,85.47008547,,,,,,,,,,,,,,,,523.2118,524.5057,524.5058,525.0822,return,0.2191,,82.421875,,,,,,FBP-PT-18.png,0.45,1.2,25,0.5,,,,,,,,,,,,,0,3,3,24,1,,,,,,,,,,,,,,,,,,,,,,,,,,,,
,,,,,V3_052,20,Female,2024-11-06_16h18.16.954,jersey_experiment_5_v3,2023.2.2,Win32,85.47008547,,,,,,,,,,,,,,,,525.0825,526.3763,526.3763,526.8941,return,0.1213,,82.421875,,,,,,FBP-RB-19.png,0.4,1.2,58,0.5,,,,,,,,,,,,,0,4,4,57,1,,,,,,,,,,,,,,,,,,,,,,,,,,,,
,,,,,V3_052,20,Female,2024-11-06_16h18.16.954,jersey_experiment_5_v3,2023.2.2,Win32,85.47008547,,,,,,,,,,,,,,,,526.8945,528.4471,528.4471,528.9883,return,0.1463,,82.421875,,,,,,FBP-OG-18.png,0.43,1.2,39,0.75,,,,,,,,,,,,,0,5,5,38,1,,,,,,,,,,,,,,,,,,,,,,,,,,,,
,,,,,V3_052,20,Female,2024-11-06_16h18.16.954,jersey_experiment_5_v3,2023.2.2,Win32,85.47008547,,,,,,,,,,,,,,,,528.9886,530.2824,530.2824,530.9412,return,0.1293,,82.421875,,,,,,FBP-YG-81.png,0.43,1.2,9,0.5,,,,,,,,,,,,,0,6,6,8,1,,,,,,,,,,,,,,,,,,,,,,,,,,,,
,,,,,V3_052,20,Female,2024-11-06_16h18.16.954,jersey_experiment_5_v3,2023.2.2,Win32,85.47008547,,,,,,,,,,,,,,,,530.9416,532.2355,532.2355,532.7648,return,0.3462,,82.421875,,,,,,FBP-RB-18.png,0.4,1.2,53,0.5,,,,,,,,,,,,,0,7,7,52,1,,,,,,,,,,,,,,,,,,,,,,,,,,,,
,,,,,V3_052,20,Female,2024-11-06_16h18.16.954,jersey_experiment_5_v3,2023.2.2,Win32,85.47008547,,,,,,,,,,,,,,,,532.7651,534.059,534.059,534.8473,return,0.1199,,95.57291667,,,,,,FBP-RB-19.png,0.43,1.2,59,0.5,,,,,,,,,,,,,0,8,8,58,1,,,,,,,,,,,,,,,,,,,,,,,,,,,,
,,,,,V3_052,20,Female,2024-11-06_16h18.16.954,jersey_experiment_5_v3,2023.2.2,Win32,85.47008547,,,,,,,,,,,,,,,,534.8475,536.1415,536.1415,537.2944,return,0.108,,27.86458333,,,,,,FBP-PT-19.png,0.4,1.2,28,0.5,,,,,,,,,,,,,0,9,9,27,1,,,,,,,,,,,,,,,,,,,,,,,,,,,,
,,,,,V3_052,20,Female,2024-11-06_16h18.16.954,jersey_experiment_5_v3,2023.2.2,Win32,85.47008547,,,,,,,,,,,,,,,,537.2946,538.5887,538.5888,539.2593,return,0.051,,82.29166667,,,,,,FBP-PT-17.png,0.45,1.2,20,0.5,,,,,,,,,,,,,0,10,10,19,1,,,,,,,,,,,,,,,,,,,,,,,,,,,,
,,,,,V3_052,20,Female,2024-11-06_16h18.16.954,jersey_experiment_5_v3,2023.2.2,Win32,85.47008547,,,,,,,,,,,,,,,,539.2595,540.5535,540.5535,541.4594,return,0.1748,,25.65104167,,,,,,FBP-RB-18.png,0.35,1.2,51,0.5,,,,,,,,,,,,,0,11,11,50,1,,,,,,,,,,,,,,,,,,,,,,,,,,,,
,,,,,V3_052,20,Female,2024-11-06_16h18.16.954,jersey_experiment_5_v3,2023.2.2,Win32,85.47008547,,,,,,,,,,,,,,,,541.4596,542.7536,542.7536,543.4595,return,0.1179,,95.3125,,,,,,FBP-PT-17.png,0.4,1.2,18,0.5,,,,,,,,,,,,,0,12,12,17,1,,,,,,,,,,,,,,,,,,,,,,,,,,,,
,,,,,V3_052,20,Female,2024-11-06_16h18.16.954,jersey_experiment_5_v3,2023.2.2,Win32,85.47008547,,,,,,,,,,,,,,,,543.4596,544.7537,544.7537,545.5537,return,0.1263,,27.08333333,,,,,,FBP-PT-17.png,0.35,1.2,16,0.5,,,,,,,,,,,,,0,13,13,15,1,,,,,,,,,,,,,,,,,,,,,,,,,,,,
,,,,,V3_052,20,Female,2024-11-06_16h18.16.954,jersey_experiment_5_v3,2023.2.2,Win32,85.47008547,,,,,,,,,,,,,,,,545.554,546.8478,546.8478,547.7301,return,0.1094,,93.09895833,,,,,,FBP-YG-81.png,0.4,1.2,8,0.5,,,,,,,,,,,,,0,14,14,7,1,,,,,,,,,,,,,,,,,,,,,,,,,,,,
,,,,,V3_052,20,Female,2024-11-06_16h18.16.954,jersey_experiment_5_v3,2023.2.2,Win32,85.47008547,,,,,,,,,,,,,,,,547.7304,549.2832,549.2833,550.0832,return,0.1414,,93.88020833,,,,,,FBP-OG-17.png,0.4,1.2,33,0.75,,,,,,,,,,,,,0,15,15,32,1,,,,,,,,,,,,,,,,,,,,,,,,,,,,
,,,,,V3_052,20,Female,2024-11-06_16h18.16.954,jersey_experiment_5_v3,2023.2.2,Win32,85.47008547,,,,,,,,,,,,,,,,550.0834,551.3775,551.3775,552.2008,return,0.0777,,28.125,,,,,,FBP-YG-91.png,0.37,1.2,12,0.5,,,,,,,,,,,,,0,16,16,11,1,,,,,,,,,,,,,,,,,,,,,,,,,,,,
,,,,,V3_052,20,Female,2024-11-06_16h18.16.954,jersey_experiment_5_v3,2023.2.2,Win32,85.47008547,,,,,,,,,,,,,,,,552.201,553.7422,553.7423,554.8834,return,0.0934,,90.10416667,,,,,,FBP-OG-19.png,0.43,1.2,44,0.75,,,,,,,,,,,,,0,17,17,43,1,,,,,,,,,,,,,,,,,,,,,,,,,,,,
,,,,,V3_052,20,Female,2024-11-06_16h18.16.954,jersey_experiment_5_v3,2023.2.2,Win32,85.47008547,,,,,,,,,,,,,,,,554.8836,556.1775,556.1775,556.8012,return,0.235,,89.32291667,,,,,,FBP-RB-18.png,0.45,1.2,55,0.5,,,,,,,,,,,,,0,18,18,54,1,,,,,,,,,,,,,,,,,,,,,,,,,,,,
,,,,,V3_052,20,Female,2024-11-06_16h18.16.954,jersey_experiment_5_v3,2023.2.2,Win32,85.47008547,,,,,,,,,,,,,,,,556.8014,558.3542,558.3542,559.0365,return,0.133,,27.21354167,,,,,,FBP-OG-17.png,0.37,1.2,32,0.75,,,,,,,,,,,,,0,19,19,31,1,,,,,,,,,,,,,,,,,,,,,,,,,,,,
,,,,,V3_052,20,Female,2024-11-06_16h18.16.954,jersey_experiment_5_v3,2023.2.2,Win32,85.47008547,,,,,,,,,,,,,,,,559.0366,560.3306,560.3306,560.9894,return,0.2023,,32.94270833,,,,,,FBP-YG-91.png,0.35,1.2,11,0.5,,,,,,,,,,,,,0,20,20,10,1,,,,,,,,,,,,,,,,,,,,,,,,,,,,
,,,,,V3_052,20,Female,2024-11-06_16h18.16.954,jersey_experiment_5_v3,2023.2.2,Win32,85.47008547,,,,,,,,,,,,,,,,560.9898,562.2836,562.2836,563.3778,return,0.0842,,92.44791667,,,,,,FBP-RB-19.png,0.37,1.2,57,0.5,,,,,,,,,,,,,0,21,21,56,1,,,,,,,,,,,,,,,,,,,,,,,,,,,,
,,,,,V3_052,20,Female,2024-11-06_16h18.16.954,jersey_experiment_5_v3,2023.2.2,Win32,85.47008547,,,,,,,,,,,,,,,,563.378,564.9309,564.9309,565.8838,return,0.2175,,26.5625,,,,,,FBP-OG-19.png,0.35,1.2,41,0.75,,,,,,,,,,,,,0,22,22,40,1,,,,,,,,,,,,,,,,,,,,,,,,,,,,
,,,,,V3_052,20,Female,2024-11-06_16h18.16.954,jersey_experiment_5_v3,2023.2.2,Win32,85.47008547,,,,,,,,,,,,,,,,565.884,567.1781,567.1781,567.9191,return,0.1317,,91.40625,,,,,,FBP-YG-71.png,0.45,1.2,5,0.5,,,,,,,,,,,,,0,23,23,4,1,,,,,,,,,,,,,,,,,,,,,,,,,,,,
,,,,,V3_052,20,Female,2024-11-06_16h18.16.954,jersey_experiment_5_v3,2023.2.2,Win32,85.47008547,,,,,,,,,,,,,,,,567.9193,569.2134,569.2134,569.9193,return,0.2498,,91.40625,,,,,,FBP-RB-17.png,0.43,1.2,49,0.5,,,,,,,,,,,,,0,24,24,48,1,,,,,,,,,,,,,,,,,,,,,,,,,,,,
,,,,,V3_052,20,Female,2024-11-06_16h18.16.954,jersey_experiment_5_v3,2023.2.2,Win32,85.47008547,,,,,,,,,,,,,,,,569.9196,571.2134,571.2134,571.9075,return,0.1733,,91.27604167,,,,,,FBP-RB-17.png,0.4,1.2,48,0.5,,,,,,,,,,,,,0,25,25,47,1,,,,,,,,,,,,,,,,,,,,,,,,,,,,
,,,,,V3_052,20,Female,2024-11-06_16h18.16.954,jersey_experiment_5_v3,2023.2.2,Win32,85.47008547,,,,,,,,,,,,,,,,571.9078,573.2016,573.2017,573.9194,return,0.2591,,91.27604167,,,,,,FBP-YG-71.png,0.37,1.2,2,0.5,,,,,,,,,,,,,0,26,26,1,1,,,,,,,,,,,,,,,,,,,,,,,,,,,,
,,,,,V3_052,20,Female,2024-11-06_16h18.16.954,jersey_experiment_5_v3,2023.2.2,Win32,85.47008547,,,,,,,,,,,,,,,,573.9195,575.4608,575.4608,581.2844,return,5.1043,,25.78125,,,,,,FBP-OG-17.png,0.35,1.2,31,0.75,,,,,,,,,,,,,0,27,27,30,1,,,,,,,,,,,,,,,,,,,,,,,,,,,,
,,,,,V3_052,20,Female,2024-11-06_16h18.16.954,jersey_experiment_5_v3,2023.2.2,Win32,85.47008547,,,,,,,,,,,,,,,,581.2846,582.8374,582.8374,585.0844,return,0.4835,,26.82291667,,,,,,FBP-OG-18.png,0.35,1.2,36,0.75,,,,,,,,,,,,,0,28,28,35,1,,,,,,,,,,,,,,,,,,,,,,,,,,,,
,,,,,V3_052,20,Female,2024-11-06_16h18.16.954,jersey_experiment_5_v3,2023.2.2,Win32,85.47008547,,,,,,,,,,,,,,,,585.0847,586.3786,586.3787,587.214,return,0.0632,,86.19791667,,,,,,FBP-RB-19.png,0.45,1.2,60,0.5,,,,,,,,,,,,,0,29,29,59,1,,,,,,,,,,,,,,,,,,,,,,,,,,,,
,,,,,V3_052,20,Female,2024-11-06_16h18.16.954,jersey_experiment_5_v3,2023.2.2,Win32,85.47008547,,,,,,,,,,,,,,,,587.2142,588.5083,588.5083,589.0374,return,0.2028,,92.96875,,,,,,FBP-YG-71.png,0.43,1.2,4,0.5,,,,,,,,,,,,,0,30,30,3,1,,,,,,,,,,,,,,,,,,,,,,,,,,,,
,,,,,V3_052,20,Female,2024-11-06_16h18.16.954,jersey_experiment_5_v3,2023.2.2,Win32,85.47008547,,,,,,,,,,,,,,,,589.0377,590.5905,590.5906,591.1082,return,0.2193,,92.96875,,,,,,FBP-OG-17.png,0.45,1.2,35,0.75,,,,,,,,,,,,,0,31,31,34,1,,,,,,,,,,,,,,,,,,,,,,,,,,,,
,,,,,V3_052,20,Female,2024-11-06_16h18.16.954,jersey_experiment_5_v3,2023.2.2,Win32,85.47008547,,,,,,,,,,,,,,,,591.1085,592.6612,592.6613,593.1318,return,0.0998,,89.58333333,,,,,,FBP-OG-19.png,0.37,1.2,42,0.75,,,,,,,,,,,,,0,32,32,41,1,,,,,,,,,,,,,,,,,,,,,,,,,,,,
,,,,,V3_052,20,Female,2024-11-06_16h18.16.954,jersey_experiment_5_v3,2023.2.2,Win32,85.47008547,,,,,,,,,,,,,,,,593.1321,594.6849,594.6849,595.3436,return,0.1768,,89.58333333,,,,,,FBP-OG-18.png,0.37,1.2,37,0.75,,,,,,,,,,,,,0,33,33,36,1,,,,,,,,,,,,,,,,,,,,,,,,,,,,
,,,,,V3_052,20,Female,2024-11-06_16h18.16.954,jersey_experiment_5_v3,2023.2.2,Win32,85.47008547,,,,,,,,,,,,,,,,595.3439,596.8966,596.8966,597.4731,return,0.2124,,89.58333333,,,,,,FBP-OG-19.png,0.45,1.2,45,0.75,,,,,,,,,,,,,0,34,34,44,1,,,,,,,,,,,,,,,,,,,,,,,,,,,,
,,,,,V3_052,20,Female,2024-11-06_16h18.16.954,jersey_experiment_5_v3,2023.2.2,Win32,85.47008547,,,,,,,,,,,,,,,,597.4734,599.0262,599.0262,599.6968,return,0.1416,,89.58333333,,,,,,FBP-OG-17.png,0.43,1.2,34,0.75,,,,,,,,,,,,,0,35,35,33,1,,,,,,,,,,,,,,,,,,,,,,,,,,,,
,,,,,V3_052,20,Female,2024-11-06_16h18.16.954,jersey_experiment_5_v3,2023.2.2,Win32,85.47008547,,,,,,,,,,,,,,,,599.697,600.991,600.991,601.3909,return,0.2482,,89.58333333,,,,,,FBP-PT-18.png,0.4,1.2,23,0.5,,,,,,,,,,,,,0,36,36,22,1,,,,,,,,,,,,,,,,,,,,,,,,,,,,
,,,,,V3_052,20,Female,2024-11-06_16h18.16.954,jersey_experiment_5_v3,2023.2.2,Win32,85.47008547,,,,,,,,,,,,,,,,601.3911,602.6851,602.6851,603.2145,return,0.212,,89.58333333,,,,,,FBP-YG-71.png,0.4,1.2,3,0.5,,,,,,,,,,,,,0,37,37,2,1,,,,,,,,,,,,,,,,,,,,,,,,,,,,
,,,,,V3_052,20,Female,2024-11-06_16h18.16.954,jersey_experiment_5_v3,2023.2.2,Win32,85.47008547,,,,,,,,,,,,,,,,603.2147,604.5088,604.5088,605.8852,return,0.0512,,29.16666667,,,,,,FBP-YG-71.png,0.35,1.2,1,0.5,,,,,,,,,,,,,0,38,38,0,1,,,,,,,,,,,,,,,,,,,,,,,,,,,,
,,,,,V3_052,20,Female,2024-11-06_16h18.16.954,jersey_experiment_5_v3,2023.2.2,Win32,85.47008547,,,,,,,,,,,,,,,,605.8854,607.1795,607.1796,607.9559,return,0.0312,,28.38541667,,,,,,FBP-YG-81.png,0.35,1.2,6,0.5,,,,,,,,,,,,,0,39,39,5,1,,,,,,,,,,,,,,,,,,,,,,,,,,,,
,,,,,V3_052,20,Female,2024-11-06_16h18.16.954,jersey_experiment_5_v3,2023.2.2,Win32,85.47008547,,,,,,,,,,,,,,,,607.9562,609.2502,609.2502,610.1795,return,0.1183,,92.578125,,,,,,FBP-YG-81.png,0.45,1.2,10,0.5,,,,,,,,,,,,,0,40,40,9,1,,,,,,,,,,,,,,,,,,,,,,,,,,,,
,,,,,V3_052,20,Female,2024-11-06_16h18.16.954,jersey_experiment_5_v3,2023.2.2,Win32,85.47008547,,,,,,,,,,,,,,,,610.1797,611.4737,611.4738,612.2974,return,0.0674,,28.64583333,,,,,,FBP-PT-18.png,0.37,1.2,22,0.5,,,,,,,,,,,,,0,41,41,21,1,,,,,,,,,,,,,,,,,,,,,,,,,,,,
,,,,,V3_052,20,Female,2024-11-06_16h18.16.954,jersey_experiment_5_v3,2023.2.2,Win32,85.47008547,,,,,,,,,,,,,,,,612.2976,613.5916,613.5916,614.3209,return,0.1545,,91.27604167,,,,,,FBP-YG-81.png,0.37,1.2,7,0.5,,,,,,,,,,,,,0,42,42,6,1,,,,,,,,,,,,,,,,,,,,,,,,,,,,
,,,,,V3_052,20,Female,2024-11-06_16h18.16.954,jersey_experiment_5_v3,2023.2.2,Win32,85.47008547,,,,,,,,,,,,,,,,614.3211,615.6152,615.6153,616.321,return,0.1094,,29.81770833,,,,,,FBP-PT-18.png,0.35,1.2,21,0.5,,,,,,,,,,,,,0,43,43,20,1,,,,,,,,,,,,,,,,,,,,,,,,,,,,
,,,,,V3_052,20,Female,2024-11-06_16h18.16.954,jersey_experiment_5_v3,2023.2.2,Win32,85.47008547,,,,,,,,,,,,,,,,616.3212,617.6151,617.6151,618.2034,return,0.0874,,30.72916667,,,,,,FBP-RB-17.png,0.35,1.2,46,0.5,,,,,,,,,,,,,0,44,44,45,1,,,,,,,,,,,,,,,,,,,,,,,,,,,,
,,,,,V3_052,20,Female,2024-11-06_16h18.16.954,jersey_experiment_5_v3,2023.2.2,Win32,85.47008547,,,,,,,,,,,,,,,,618.2037,619.4975,619.4975,620.1209,return,0.1578,,30.859375,,,,,,FBP-RB-18.png,0.37,1.2,52,0.5,,,,,,,,,,,,,0,45,45,51,1,,,,,,,,,,,,,,,,,,,,,,,,,,,,
,,,,,V3_052,20,Female,2024-11-06_16h18.16.954,jersey_experiment_5_v3,2023.2.2,Win32,85.47008547,,,,,,,,,,,,,,,,620.1213,621.4153,621.4153,622.4034,return,0.1287,,92.05729167,,,,,,FBP-YG-91.png,0.43,1.2,14,0.5,,,,,,,,,,,,,0,46,46,13,1,,,,,,,,,,,,,,,,,,,,,,,,,,,,
,,,,,V3_052,20,Female,2024-11-06_16h18.16.954,jersey_experiment_5_v3,2023.2.2,Win32,85.47008547,,,,,,,,,,,,,,,,622.4037,623.9567,623.9567,624.8742,return,0.1007,,91.27604167,,,,,,FBP-OG-18.png,0.4,1.2,38,0.75,,,,,,,,,,,,,0,47,47,37,1,,,,,,,,,,,,,,,,,,,,,,,,,,,,
,,,,,V3_052,20,Female,2024-11-06_16h18.16.954,jersey_experiment_5_v3,2023.2.2,Win32,85.47008547,,,,,,,,,,,,,,,,624.8743,626.1684,626.1684,627.8038,return,0.096,,30.859375,,,,,,FBP-RB-17.png,0.37,1.2,47,0.5,,,,,,,,,,,,,0,48,48,46,1,,,,,,,,,,,,,,,,,,,,,,,,,,,,
,,,,,V3_052,20,Female,2024-11-06_16h18.16.954,jersey_experiment_5_v3,2023.2.2,Win32,85.47008547,,,,,,,,,,,,,,,,627.8041,629.0978,629.0978,629.7919,return,0.1982,,31.25,,,,,,FBP-PT-19.png,0.37,1.2,27,0.5,,,,,,,,,,,,,0,49,49,26,1,,,,,,,,,,,,,,,,,,,,,,,,,,,,
,,,,,V3_052,20,Female,2024-11-06_16h18.16.954,jersey_experiment_5_v3,2023.2.2,Win32,85.47008547,,,,,,,,,,,,,,,,629.7922,631.0864,631.0864,631.9332,return,0.0984,,93.88020833,,,,,,FBP-RB-17.png,0.45,1.2,50,0.5,,,,,,,,,,,,,0,50,50,49,1,,,,,,,,,,,,,,,,,,,,,,,,,,,,
,,,,,V3_052,20,Female,2024-11-06_16h18.16.954,jersey_experiment_5_v3,2023.2.2,Win32,85.47008547,,,,,,,,,,,,,,,,631.9335,633.2276,633.2277,634.0745,return,0.0884,,94.01041667,,,,,,FBP-PT-19.png,0.43,1.2,29,0.5,,,,,,,,,,,,,0,51,51,28,1,,,,,,,,,,,,,,,,,,,,,,,,,,,,
,,,,,V3_052,20,Female,2024-11-06_16h18.16.954,jersey_experiment_5_v3,2023.2.2,Win32,85.47008547,,,,,,,,,,,,,,,,634.0747,635.6275,635.6275,636.2276,return,0.188,,93.61979167,,,,,,FBP-OG-18.png,0.45,1.2,40,0.75,,,,,,,,,,,,,0,52,52,39,1,,,,,,,,,,,,,,,,,,,,,,,,,,,,
,,,,,V3_052,20,Female,2024-11-06_16h18.16.954,jersey_experiment_5_v3,2023.2.2,Win32,85.47008547,,,,,,,,,,,,,,,,636.2279,637.5217,637.5218,638.5216,return,0.0784,,35.41666667,,,,,,FBP-PT-17.png,0.37,1.2,17,0.5,,,,,,,,,,,,,0,53,53,16,1,,,,,,,,,,,,,,,,,,,,,,,,,,,,
,,,,,V3_052,20,Female,2024-11-06_16h18.16.954,jersey_experiment_5_v3,2023.2.2,Win32,85.47008547,,,,,,,,,,,,,,,,638.5219,639.816,639.816,640.6512,return,0.1592,,87.63020833,,,,,,FBP-PT-18.png,0.43,1.2,24,0.5,,,,,,,,,,,,,0,54,54,23,1,,,,,,,,,,,,,,,,,,,,,,,,,,,,
,,,,,V3_052,20,Female,2024-11-06_16h18.16.954,jersey_experiment_5_v3,2023.2.2,Win32,85.47008547,,,,,,,,,,,,,,,,640.6514,641.9454,641.9454,642.5454,return,0.2121,,86.97916667,,,,,,FBP-PT-19.png,0.45,1.2,30,0.5,,,,,,,,,,,,,0,55,55,29,1,,,,,,,,,,,,,,,,,,,,,,,,,,,,
,,,,,V3_052,20,Female,2024-11-06_16h18.16.954,jersey_experiment_5_v3,2023.2.2,Win32,85.47008547,,,,,,,,,,,,,,,,642.5457,643.8396,643.8396,644.7455,return,0.1692,,29.42708333,,,,,,FBP-RB-19.png,0.35,1.2,56,0.5,,,,,,,,,,,,,0,56,56,55,1,,,,,,,,,,,,,,,,,,,,,,,,,,,,
,,,,,V3_052,20,Female,2024-11-06_16h18.16.954,jersey_experiment_5_v3,2023.2.2,Win32,85.47008547,,,,,,,,,,,,,,,,644.7457,646.0398,646.0399,646.9574,return,0.0948,,92.44791667,,,,,,FBP-YG-91.png,0.45,1.2,15,0.5,,,,,,,,,,,,,0,57,57,14,1,,,,,,,,,,,,,,,,,,,,,,,,,,,,
,,,,,V3_052,20,Female,2024-11-06_16h18.16.954,jersey_experiment_5_v3,2023.2.2,Win32,85.47008547,,,,,,,,,,,,,,,,646.9577,648.2517,648.2518,649.1927,return,0.1491,,93.359375,,,,,,FBP-RB-18.png,0.43,1.2,54,0.5,,,,,,,,,,,,,0,58,58,53,1,,,,,,,,,,,,,,,,,,,,,,,,,,,,
,,,,,V3_052,20,Female,2024-11-06_16h18.16.954,jersey_experiment_5_v3,2023.2.2,Win32,85.47008547,,,,,,,,,,,,,,,,649.1929,650.4869,650.487,651.2517,return,0.1184,,29.6875,,,,,,FBP-PT-19.png,0.35,1.2,26,0.5,,,,,,,,,,,,,0,59,59,25,1,,,,,,,,,,,,,,,,,,,,,,,,,,,,
,,,,,V3_052,20,Female,2024-11-06_16h18.16.954,jersey_experiment_5_v3,2023.2.2,Win32,85.47008547,,,,,,,,,,,,,,,,651.2528,652.8048,652.8048,653.5695,return,0.2586,,94.40104167,,,,,,FBP-OG-81.png,0.37,1.2,37,0.75,,,,,,,,,,,,,,,,,,0,0,0,36,1,,,,,,,,,,,,,,,,,,,,,,,
,,,,,V3_052,20,Female,2024-11-06_16h18.16.954,jersey_experiment_5_v3,2023.2.2,Win32,85.47008547,,,,,,,,,,,,,,,,653.5698,654.8637,654.8638,655.5929,return,0.0672,,31.90104167,,,,,,FBP-PT-71.png,0.35,1.2,16,0.5,,,,,,,,,,,,,,,,,,0,1,1,15,1,,,,,,,,,,,,,,,,,,,,,,,
,,,,,V3_052,20,Female,2024-11-06_16h18.16.954,jersey_experiment_5_v3,2023.2.2,Win32,85.47008547,,,,,,,,,,,,,,,,655.5931,656.8871,656.8872,657.44,return,0.1747,,37.36979167,,,,,,FBP-PT-91.png,0.37,1.2,27,0.5,,,,,,,,,,,,,,,,,,0,2,2,26,1,,,,,,,,,,,,,,,,,,,,,,,
,,,,,V3_052,20,Female,2024-11-06_16h18.16.954,jersey_experiment_5_v3,2023.2.2,Win32,85.47008547,,,,,,,,,,,,,,,,657.4402,658.9815,658.9815,659.5813,return,0.1552,,90.36458333,,,,,,FBP-OG-91.png,0.45,1.2,45,0.75,,,,,,,,,,,,,,,,,,0,3,3,44,1,,,,,,,,,,,,,,,,,,,,,,,
,,,,,V3_052,20,Female,2024-11-06_16h18.16.954,jersey_experiment_5_v3,2023.2.2,Win32,85.47008547,,,,,,,,,,,,,,,,659.5816,660.8756,660.8757,661.6755,return,0.1236,,88.671875,,,,,,FBP-RB-81.png,0.45,1.2,55,0.5,,,,,,,,,,,,,,,,,,0,4,4,54,1,,,,,,,,,,,,,,,,,,,,,,,
,,,,,V3_052,20,Female,2024-11-06_16h18.16.954,jersey_experiment_5_v3,2023.2.2,Win32,85.47008547,,,,,,,,,,,,,,,,661.6758,662.9697,662.9698,663.5814,return,0.1922,,85.02604167,,,,,,FBP-RB-81.png,0.43,1.2,54,0.5,,,,,,,,,,,,,,,,,,0,5,5,53,1,,,,,,,,,,,,,,,,,,,,,,,
,,,,,V3_052,20,Female,2024-11-06_16h18.16.954,jersey_experiment_5_v3,2023.2.2,Win32,85.47008547,,,,,,,,,,,,,,,,663.5817,664.8757,664.8757,665.7934,return,0.1027,,35.546875,,,,,,FBP-PT-81.png,0.35,1.2,21,0.5,,,,,,,,,,,,,,,,,,0,6,6,20,1,,,,,,,,,,,,,,,,,,,,,,,
,,,,,V3_052,20,Female,2024-11-06_16h18.16.954,jersey_experiment_5_v3,2023.2.2,Win32,85.47008547,,,,,,,,,,,,,,,,665.7936,667.0875,667.0876,668.1933,return,0.2353,,89.0625,,,,,,FBP-PT-81.png,0.45,1.2,25,0.5,,,,,,,,,,,,,,,,,,0,7,7,24,1,,,,,,,,,,,,,,,,,,,,,,,
,,,,,V3_052,20,Female,2024-11-06_16h18.16.954,jersey_experiment_5_v3,2023.2.2,Win32,85.47008547,,,,,,,,,,,,,,,,668.1936,669.4875,669.4876,669.923,return,0.0923,,89.0625,,,,,,FBP-RB-71.png,0.45,1.2,50,0.5,,,,,,,,,,,,,,,,,,0,8,8,49,1,,,,,,,,,,,,,,,,,,,,,,,
,,,,,V3_052,20,Female,2024-11-06_16h18.16.954,jersey_experiment_5_v3,2023.2.2,Win32,85.47008547,,,,,,,,,,,,,,,,669.9233,671.2172,671.2173,671.9819,return,0.1217,,36.06770833,,,,,,FBP-YG-19.png,0.37,1.2,12,0.5,,,,,,,,,,,,,,,,,,0,9,9,11,1,,,,,,,,,,,,,,,,,,,,,,,
,,,,,V3_052,20,Female,2024-11-06_16h18.16.954,jersey_experiment_5_v3,2023.2.2,Win32,85.47008547,,,,,,,,,,,,,,,,671.9821,673.276,673.276,673.8996,return,0.0647,,77.86458333,,,,,,FBP-RB-91.png,0.45,1.2,60,0.5,,,,,,,,,,,,,,,,,,0,10,10,59,1,,,,,,,,,,,,,,,,,,,,,,,
,,,,,V3_052,20,Female,2024-11-06_16h18.16.954,jersey_experiment_5_v3,2023.2.2,Win32,85.47008547,,,,,,,,,,,,,,,,673.8998,675.1936,675.1936,675.9349,return,0.0733,,50.65104167,,,,,,FBP-YG-17.png,0.35,1.2,1,0.5,,,,,,,,,,,,,,,,,,0,11,11,0,1,,,,,,,,,,,,,,,,,,,,,,,
,,,,,V3_052,20,Female,2024-11-06_16h18.16.954,jersey_experiment_5_v3,2023.2.2,Win32,85.47008547,,,,,,,,,,,,,,,,675.9352,677.2291,677.2291,678.1702,return,0.2057,,74.34895833,,,,,,FBP-YG-18.png,0.4,1.2,8,0.5,,,,,,,,,,,,,,,,,,0,12,12,7,1,,,,,,,,,,,,,,,,,,,,,,,
,,,,,V3_052,20,Female,2024-11-06_16h18.16.954,jersey_experiment_5_v3,2023.2.2,Win32,85.47008547,,,,,,,,,,,,,,,,678.1705,679.4646,679.4646,680.1115,return,0.116,,80.078125,,,,,,FBP-RB-91.png,0.4,1.2,58,0.5,,,,,,,,,,,,,,,,,,0,13,13,57,1,,,,,,,,,,,,,,,,,,,,,,,
,,,,,V3_052,20,Female,2024-11-06_16h18.16.954,jersey_experiment_5_v3,2023.2.2,Win32,85.47008547,,,,,,,,,,,,,,,,680.1118,681.4056,681.4056,682.4646,return,0.0626,,46.09375,,,,,,FBP-RB-91.png,0.35,1.2,56,0.5,,,,,,,,,,,,,,,,,,0,14,14,55,1,,,,,,,,,,,,,,,,,,,,,,,
,,,,,V3_052,20,Female,2024-11-06_16h18.16.954,jersey_experiment_5_v3,2023.2.2,Win32,85.47008547,,,,,,,,,,,,,,,,682.4649,683.7588,683.7588,684.3706,return,0.0712,,77.60416667,,,,,,FBP-PT-81.png,0.43,1.2,24,0.5,,,,,,,,,,,,,,,,,,0,15,15,23,1,,,,,,,,,,,,,,,,,,,,,,,
,,,,,V3_052,20,Female,2024-11-06_16h18.16.954,jersey_experiment_5_v3,2023.2.2,Win32,85.47008547,,,,,,,,,,,,,,,,684.3708,685.9235,685.9236,686.7,return,0.1197,,42.83854167,,,,,,FBP-OG-71.png,0.37,1.2,32,0.75,,,,,,,,,,,,,,,,,,0,16,16,31,1,,,,,,,,,,,,,,,,,,,,,,,
,,,,,V3_052,20,Female,2024-11-06_16h18.16.954,jersey_experiment_5_v3,2023.2.2,Win32,85.47008547,,,,,,,,,,,,,,,,686.7003,687.9944,687.9944,688.7001,return,0.1584,,78.77604167,,,,,,FBP-YG-17.png,0.43,1.2,4,0.5,,,,,,,,,,,,,,,,,,0,17,17,3,1,,,,,,,,,,,,,,,,,,,,,,,
,,,,,V3_052,20,Female,2024-11-06_16h18.16.954,jersey_experiment_5_v3,2023.2.2,Win32,85.47008547,,,,,,,,,,,,,,,,688.7004,690.2532,690.2532,690.8768,return,0.1694,,49.21875,,,,,,FBP-OG-91.png,0.37,1.2,42,0.75,,,,,,,,,,,,,,,,,,0,18,18,41,1,,,,,,,,,,,,,,,,,,,,,,,
,,,,,V3_052,20,Female,2024-11-06_16h18.16.954,jersey_experiment_5_v3,2023.2.2,Win32,85.47008547,,,,,,,,,,,,,,,,690.877,692.4298,692.4298,693.1237,return,0.0946,,89.84375,,,,,,FBP-OG-81.png,0.45,1.2,40,0.75,,,,,,,,,,,,,,,,,,0,19,19,39,1,,,,,,,,,,,,,,,,,,,,,,,
,,,,,V3_052,20,Female,2024-11-06_16h18.16.954,jersey_experiment_5_v3,2023.2.2,Win32,85.47008547,,,,,,,,,,,,,,,,693.1239,694.6651,694.6651,695.4532,return,0.1203,,90.75520833,,,,,,FBP-OG-71.png,0.45,1.2,35,0.75,,,,,,,,,,,,,,,,,,0,20,20,34,1,,,,,,,,,,,,,,,,,,,,,,,
,,,,,V3_052,20,Female,2024-11-06_16h18.16.954,jersey_experiment_5_v3,2023.2.2,Win32,85.47008547,,,,,,,,,,,,,,,,695.4535,696.7474,696.7475,697.1003,return,0.0875,,90.625,,,,,,FBP-RB-91.png,0.43,1.2,59,0.5,,,,,,,,,,,,,,,,,,0,21,21,58,1,,,,,,,,,,,,,,,,,,,,,,,
,,,,,V3_052,20,Female,2024-11-06_16h18.16.954,jersey_experiment_5_v3,2023.2.2,Win32,85.47008547,,,,,,,,,,,,,,,,697.1006,698.3946,698.3946,698.971,return,0.2731,,90.234375,,,,,,FBP-YG-19.png,0.45,1.2,15,0.5,,,,,,,,,,,,,,,,,,0,22,22,14,1,,,,,,,,,,,,,,,,,,,,,,,
,,,,,V3_052,20,Female,2024-11-06_16h18.16.954,jersey_experiment_5_v3,2023.2.2,Win32,85.47008547,,,,,,,,,,,,,,,,698.9714,700.2652,700.2652,700.7477,return,0.1118,,90.234375,,,,,,FBP-RB-81.png,0.4,1.2,53,0.5,,,,,,,,,,,,,,,,,,0,23,23,52,1,,,,,,,,,,,,,,,,,,,,,,,
,,,,,V3_052,20,Female,2024-11-06_16h18.16.954,jersey_experiment_5_v3,2023.2.2,Win32,85.47008547,,,,,,,,,,,,,,,,700.7479,702.0419,702.042,702.7005,return,0.0716,,65.10416667,,,,,,FBP-YG-19.png,0.35,1.2,11,0.5,,,,,,,,,,,,,,,,,,0,24,24,10,1,,,,,,,,,,,,,,,,,,,,,,,
,,,,,V3_052,20,Female,2024-11-06_16h18.16.954,jersey_experiment_5_v3,2023.2.2,Win32,85.47008547,,,,,,,,,,,,,,,,702.7008,704.2537,704.2538,704.8418,return,0.1131,,75.65104167,,,,,,FBP-OG-91.png,0.4,1.2,43,0.75,,,,,,,,,,,,,,,,,,0,25,25,42,1,,,,,,,,,,,,,,,,,,,,,,,
,,,,,V3_052,20,Female,2024-11-06_16h18.16.954,jersey_experiment_5_v3,2023.2.2,Win32,85.47008547,,,,,,,,,,,,,,,,704.8421,706.1361,706.1361,706.642,return,0.1256,,82.29166667,,,,,,FBP-YG-17.png,0.4,1.2,3,0.5,,,,,,,,,,,,,,,,,,0,26,26,2,1,,,,,,,,,,,,,,,,,,,,,,,
,,,,,V3_052,20,Female,2024-11-06_16h18.16.954,jersey_experiment_5_v3,2023.2.2,Win32,85.47008547,,,,,,,,,,,,,,,,706.6422,707.9361,707.9361,708.1479,return,0.094,,82.29166667,,,,,,FBP-RB-81.png,0.37,1.2,52,0.5,,,,,,,,,,,,,,,,,,0,27,27,51,1,,,,,,,,,,,,,,,,,,,,,,,
,,,,,V3_052,20,Female,2024-11-06_16h18.16.954,jersey_experiment_5_v3,2023.2.2,Win32,85.47008547,,,,,,,,,,,,,,,,708.1482,709.442,709.442,709.7598,return,0.1552,,82.29166667,,,,,,FBP-PT-91.png,0.35,1.2,26,0.5,,,,,,,,,,,,,,,,,,0,28,28,25,1,,,,,,,,,,,,,,,,,,,,,,,
,,,,,V3_052,20,Female,2024-11-06_16h18.16.954,jersey_experiment_5_v3,2023.2.2,Win32,85.47008547,,,,,,,,,,,,,,,,709.76,711.0539,711.0539,711.7715,return,0.1237,,84.24479167,,,,,,FBP-YG-19.png,0.43,1.2,14,0.5,,,,,,,,,,,,,,,,,,0,29,29,13,1,,,,,,,,,,,,,,,,,,,,,,,
,,,,,V3_052,20,Female,2024-11-06_16h18.16.954,jersey_experiment_5_v3,2023.2.2,Win32,85.47008547,,,,,,,,,,,,,,,,711.7718,713.0657,713.0657,713.8539,return,0.0852,,88.28125,,,,,,FBP-RB-71.png,0.37,1.2,47,0.5,,,,,,,,,,,,,,,,,,0,30,30,46,1,,,,,,,,,,,,,,,,,,,,,,,
,,,,,V3_052,20,Female,2024-11-06_16h18.16.954,jersey_experiment_5_v3,2023.2.2,Win32,85.47008547,,,,,,,,,,,,,,,,713.8542,715.1482,715.1482,716.0892,return,0.3023,,74.21875,,,,,,FBP-PT-71.png,0.4,1.2,18,0.5,,,,,,,,,,,,,,,,,,0,31,31,17,1,,,,,,,,,,,,,,,,,,,,,,,
,,,,,V3_052,20,Female,2024-11-06_16h18.16.954,jersey_experiment_5_v3,2023.2.2,Win32,85.47008547,,,,,,,,,,,,,,,,716.0895,717.3837,717.3837,717.9839,return,0.1766,,83.59375,,,,,,FBP-YG-18.png,0.37,1.2,7,0.5,,,,,,,,,,,,,,,,,,0,32,32,6,1,,,,,,,,,,,,,,,,,,,,,,,
,,,,,V3_052,20,Female,2024-11-06_16h18.16.954,jersey_experiment_5_v3,2023.2.2,Win32,85.47008547,,,,,,,,,,,,,,,,717.9842,719.2777,719.2778,720.6071,return,0.8396,,88.41145833,,,,,,FBP-YG-17.png,0.45,1.2,5,0.5,,,,,,,,,,,,,,,,,,0,33,33,4,1,,,,,,,,,,,,,,,,,,,,,,,
,,,,,V3_052,20,Female,2024-11-06_16h18.16.954,jersey_experiment_5_v3,2023.2.2,Win32,85.47008547,,,,,,,,,,,,,,,,720.6073,721.9013,721.9013,722.9955,return,0.212,,88.54166667,,,,,,FBP-PT-91.png,0.43,1.2,29,0.5,,,,,,,,,,,,,,,,,,0,34,34,28,1,,,,,,,,,,,,,,,,,,,,,,,
,,,,,V3_052,20,Female,2024-11-06_16h18.16.954,jersey_experiment_5_v3,2023.2.2,Win32,85.47008547,,,,,,,,,,,,,,,,722.9956,724.2898,724.2898,725.0191,return,0.2265,,85.546875,,,,,,FBP-RB-81.png,0.35,1.2,51,0.5,,,,,,,,,,,,,,,,,,0,35,35,50,1,,,,,,,,,,,,,,,,,,,,,,,
,,,,,V3_052,20,Female,2024-11-06_16h18.16.954,jersey_experiment_5_v3,2023.2.2,Win32,85.47008547,,,,,,,,,,,,,,,,725.0194,726.5722,726.5722,727.2898,return,0.0774,,45.703125,,,,,,FBP-OG-91.png,0.35,1.2,41,0.75,,,,,,,,,,,,,,,,,,0,36,36,40,1,,,,,,,,,,,,,,,,,,,,,,,
,,,,,V3_052,20,Female,2024-11-06_16h18.16.954,jersey_experiment_5_v3,2023.2.2,Win32,85.47008547,,,,,,,,,,,,,,,,727.29,728.843,728.843,729.5017,return,0.0962,,83.984375,,,,,,FBP-OG-71.png,0.43,1.2,34,0.75,,,,,,,,,,,,,,,,,,0,37,37,33,1,,,,,,,,,,,,,,,,,,,,,,,
,,,,,V3_052,20,Female,2024-11-06_16h18.16.954,jersey_experiment_5_v3,2023.2.2,Win32,85.47008547,,,,,,,,,,,,,,,,729.5019,731.0545,731.0546,731.584,return,0.1426,,83.984375,,,,,,FBP-OG-81.png,0.43,1.2,39,0.75,,,,,,,,,,,,,,,,,,0,38,38,38,1,,,,,,,,,,,,,,,,,,,,,,,
,,,,,V3_052,20,Female,2024-11-06_16h18.16.954,jersey_experiment_5_v3,2023.2.2,Win32,85.47008547,,,,,,,,,,,,,,,,731.5843,732.8783,732.8784,733.4429,return,0.1654,,86.97916667,,,,,,FBP-PT-91.png,0.45,1.2,30,0.5,,,,,,,,,,,,,,,,,,0,39,39,29,1,,,,,,,,,,,,,,,,,,,,,,,
,,,,,V3_052,20,Female,2024-11-06_16h18.16.954,jersey_experiment_5_v3,2023.2.2,Win32,85.47008547,,,,,,,,,,,,,,,,733.4432,734.7371,734.7372,735.2431,return,0.099,,91.92708333,,,,,,FBP-YG-18.png,0.35,1.2,6,0.5,,,,,,,,,,,,,,,,,,0,40,40,5,1,,,,,,,,,,,,,,,,,,,,,,,
,,,,,V3_052,20,Female,2024-11-06_16h18.16.954,jersey_experiment_5_v3,2023.2.2,Win32,85.47008547,,,,,,,,,,,,,,,,735.2433,736.7959,736.796,737.3256,return,0.1213,,91.14583333,,,,,,FBP-OG-91.png,0.43,1.2,44,0.75,,,,,,,,,,,,,,,,,,0,41,41,43,1,,,,,,,,,,,,,,,,,,,,,,,
,,,,,V3_052,20,Female,2024-11-06_16h18.16.954,jersey_experiment_5_v3,2023.2.2,Win32,85.47008547,,,,,,,,,,,,,,,,737.3259,738.6196,738.6196,739.1961,return,0.0724,,91.015625,,,,,,FBP-RB-91.png,0.37,1.2,57,0.5,,,,,,,,,,,,,,,,,,0,42,42,56,1,,,,,,,,,,,,,,,,,,,,,,,
,,,,,V3_052,20,Female,2024-11-06_16h18.16.954,jersey_experiment_5_v3,2023.2.2,Win32,85.47008547,,,,,,,,,,,,,,,,739.1963,740.4902,740.4903,740.9254,return,0.0982,,91.015625,,,,,,FBP-PT-81.png,0.4,1.2,23,0.5,,,,,,,,,,,,,,,,,,0,43,43,22,1,,,,,,,,,,,,,,,,,,,,,,,
,,,,,V3_052,20,Female,2024-11-06_16h18.16.954,jersey_experiment_5_v3,2023.2.2,Win32,85.47008547,,,,,,,,,,,,,,,,740.9257,742.4786,742.4786,742.8433,return,0.073,,91.015625,,,,,,FBP-OG-71.png,0.35,1.2,31,0.75,,,,,,,,,,,,,,,,,,0,44,44,30,1,,,,,,,,,,,,,,,,,,,,,,,
,,,,,V3_052,20,Female,2024-11-06_16h18.16.954,jersey_experiment_5_v3,2023.2.2,Win32,85.47008547,,,,,,,,,,,,,,,,742.8435,744.1374,744.1375,744.6667,return,0.0404,,92.70833333,,,,,,FBP-PT-71.png,0.43,1.2,19,0.5,,,,,,,,,,,,,,,,,,0,45,45,18,1,,,,,,,,,,,,,,,,,,,,,,,
,,,,,V3_052,20,Female,2024-11-06_16h18.16.954,jersey_experiment_5_v3,2023.2.2,Win32,85.47008547,,,,,,,,,,,,,,,,744.667,745.961,745.961,746.4434,return,0.1591,,92.70833333,,,,,,FBP-RB-71.png,0.4,1.2,48,0.5,,,,,,,,,,,,,,,,,,0,46,46,47,1,,,,,,,,,,,,,,,,,,,,,,,
,,,,,V3_052,20,Female,2024-11-06_16h18.16.954,jersey_experiment_5_v3,2023.2.2,Win32,85.47008547,,,,,,,,,,,,,,,,746.4436,747.9962,747.9963,748.7023,return,0.2025,,66.015625,,,,,,FBP-OG-81.png,0.35,1.2,36,0.75,,,,,,,,,,,,,,,,,,0,47,47,35,1,,,,,,,,,,,,,,,,,,,,,,,
,,,,,V3_052,20,Female,2024-11-06_16h18.16.954,jersey_experiment_5_v3,2023.2.2,Win32,85.47008547,,,,,,,,,,,,,,,,748.7026,749.9965,749.9966,750.6081,return,0.1169,,82.68229167,,,,,,FBP-PT-91.png,0.4,1.2,28,0.5,,,,,,,,,,,,,,,,,,0,48,48,27,1,,,,,,,,,,,,,,,,,,,,,,,
,,,,,V3_052,20,Female,2024-11-06_16h18.16.954,jersey_experiment_5_v3,2023.2.2,Win32,85.47008547,,,,,,,,,,,,,,,,750.6085,752.1613,752.1613,752.8436,return,0.2376,,84.375,,,,,,FBP-OG-71.png,0.4,1.2,33,0.75,,,,,,,,,,,,,,,,,,0,49,49,32,1,,,,,,,,,,,,,,,,,,,,,,,
,,,,,V3_052,20,Female,2024-11-06_16h18.16.954,jersey_experiment_5_v3,2023.2.2,Win32,85.47008547,,,,,,,,,,,,,,,,752.8438,754.138,754.138,754.7967,return,0.2046,,90.234375,,,,,,FBP-YG-18.png,0.43,1.2,9,0.5,,,,,,,,,,,,,,,,,,0,50,50,8,1,,,,,,,,,,,,,,,,,,,,,,,
,,,,,V3_052,20,Female,2024-11-06_16h18.16.954,jersey_experiment_5_v3,2023.2.2,Win32,85.47008547,,,,,,,,,,,,,,,,754.7969,756.0909,756.0909,756.5848,return,0.2655,,90.10416667,,,,,,FBP-PT-71.png,0.45,1.2,20,0.5,,,,,,,,,,,,,,,,,,0,51,51,19,1,,,,,,,,,,,,,,,,,,,,,,,
,,,,,V3_052,20,Female,2024-11-06_16h18.16.954,jersey_experiment_5_v3,2023.2.2,Win32,85.47008547,,,,,,,,,,,,,,,,756.585,757.879,757.8791,758.6202,return,0.1456,,90.10416667,,,,,,FBP-YG-19.png,0.4,1.2,13,0.5,,,,,,,,,,,,,,,,,,0,52,52,12,1,,,,,,,,,,,,,,,,,,,,,,,
,,,,,V3_052,20,Female,2024-11-06_16h18.16.954,jersey_experiment_5_v3,2023.2.2,Win32,85.47008547,,,,,,,,,,,,,,,,758.6204,759.9144,759.9145,760.5146,return,0.1571,,90.10416667,,,,,,FBP-RB-71.png,0.43,1.2,49,0.5,,,,,,,,,,,,,,,,,,0,53,53,48,1,,,,,,,,,,,,,,,,,,,,,,,
,,,,,V3_052,20,Female,2024-11-06_16h18.16.954,jersey_experiment_5_v3,2023.2.2,Win32,85.47008547,,,,,,,,,,,,,,,,760.5149,761.8087,761.8087,762.3851,return,0.1264,,89.97395833,,,,,,FBP-PT-71.png,0.37,1.2,17,0.5,,,,,,,,,,,,,,,,,,0,54,54,16,1,,,,,,,,,,,,,,,,,,,,,,,
,,,,,V3_052,20,Female,2024-11-06_16h18.16.954,jersey_experiment_5_v3,2023.2.2,Win32,85.47008547,,,,,,,,,,,,,,,,762.3854,763.9382,763.9382,764.5264,return,0.1526,,89.84375,,,,,,FBP-OG-81.png,0.4,1.2,38,0.75,,,,,,,,,,,,,,,,,,0,55,55,37,1,,,,,,,,,,,,,,,,,,,,,,,
,,,,,V3_052,20,Female,2024-11-06_16h18.16.954,jersey_experiment_5_v3,2023.2.2,Win32,85.47008547,,,,,,,,,,,,,,,,764.5267,765.8206,765.8207,766.3852,return,0.2195,,89.71354167,,,,,,FBP-RB-71.png,0.35,1.2,46,0.5,,,,,,,,,,,,,,,,,,0,56,56,45,1,,,,,,,,,,,,,,,,,,,,,,,
,,,,,V3_052,20,Female,2024-11-06_16h18.16.954,jersey_experiment_5_v3,2023.2.2,Win32,85.47008547,,,,,,,,,,,,,,,,766.3855,767.6795,767.6795,768.5265,return,0.1911,,89.453125,,,,,,FBP-YG-17.png,0.37,1.2,2,0.5,,,,,,,,,,,,,,,,,,0,57,57,1,1,,,,,,,,,,,,,,,,,,,,,,,
,,,,,V3_052,20,Female,2024-11-06_16h18.16.954,jersey_experiment_5_v3,2023.2.2,Win32,85.47008547,,,,,,,,,,,,,,,,768.5268,769.8207,769.8207,770.9384,return,0.1365,,83.85416667,,,,,,FBP-PT-81.png,0.37,1.2,22,0.5,,,,,,,,,,,,,,,,,,0,58,58,21,1,,,,,,,,,,,,,,,,,,,,,,,
,,,,,V3_052,20,Female,2024-11-06_16h18.16.954,jersey_experiment_5_v3,2023.2.2,Win32,85.47008547,,,,,,,,,,,,,,,,770.9386,772.2327,772.2327,774.8679,return,0.2492,,99.86979167,,,,,,FBP-YG-18.png,0.45,1.2,10,0.5,,,,,,,,,,,,,,,,,,0,59,59,9,1,,,,,,,,,,,,,,,,,,,,,,,
,,,,,V3_052,20,Female,2024-11-06_16h18.16.954,jersey_experiment_5_v3,2023.2.2,Win32,85.47008547,,,,,,,,,,,,,,,,,,,,,,,,,,,,,,,,,,,,,,,,,,,,,,,,,,,,,,,,774.8681,779.5506,return,4.6723,,,,,,,,,,,,,,,,,,,
,,,,,V3_052,20,Female,2024-11-06_16h18.16.954,jersey_experiment_5_v3,2023.2.2,Win32,85.47008547,,,,,,,,,,,,,,,,,,,,,,,,,,,,,,,,,,,,,,,,,,,,,,,,,,,,,,,,,,,,,779.5508,784.1863,1,4.2096,return,0.419,,,,,,,,,,,,
,,,,,V3_052,20,Female,2024-11-06_16h18.16.954,jersey_experiment_5_v3,2023.2.2,Win32,85.47008547,,,,,,,,,,,,,,,,,,,,,,,,,,,,,,,,,,,,,,,,,,,,,,,,,,,,,,,,,,,,,,,,,,,,784.1864,793.4342,no,right,4.0425,,,,,,
,,,,,V3_052,20,Female,2024-11-06_16h18.16.954,jersey_experiment_5_v3,2023.2.2,Win32,85.47008547,,,,,,,,,,,,,,,,,,,,,,,,,,,,,,,,,,,,,,,,,,,,,,,,,,,,,,,,,,,,,,,,,,,,,,,,,,793.4343,798.2572,return,4.8134,