requirements.started,requirements.stopped,key_resp_3.keys,key_resp_3.rt,key_resp_3.duration,Subject ID,Age,Gender,date,expName,psychopyVersion,OS,frameRate,instructions1.started,instructions1.stopped,key_resp.keys,key_resp.rt,key_resp.duration,example.started,example.stopped,enter_2.keys,enter_2.rt,enter_2.duration,instructions2.started,instructions2.stopped,enter_3.keys,enter_3.rt,enter_3.duration,image.started,image.stopped,slider_2.started,slider_2.stopped,next.keys,next.rt,next.duration,slider.response,trial_block_1.thisRepN,trial_block_1.thisTrialN,trial_block_1.thisN,trial_block_1.thisIndex,trial_block_1.ran,Path,Width,Height,Index,Duration,trial_block_2.thisRepN,trial_block_2.thisTrialN,trial_block_2.thisN,trial_block_2.thisIndex,trial_block_2.ran,rest_break.started,rest_break.stopped,end_break.started,end_break.stopped,key_resp_5.keys,key_resp_5.rt,key_resp_5.duration,trial_block_3.thisRepN,trial_block_3.thisTrialN,trial_block_3.thisN,trial_block_3.thisIndex,trial_block_3.ran,trial_block_4.thisRepN,trial_block_4.thisTrialN,trial_block_4.thisN,trial_block_4.thisIndex,trial_block_4.ran,questions_intro.started,questions_intro.stopped,enter_12.keys,enter_12.rt,enter_12.duration,question2.started,question2.stopped,question_doingbest.response,question_doingbest.rt,enter_15.keys,enter_15.rt,enter_15.duration,pattern.started,pattern.stopped,pattern_2.text,enter_17.keys,enter_17.rt,enter_17.duration,thankyou.started,thankyou.stopped,enter_14.keys,enter_14.rt,enter_14.duration
0,7.3187,return,7.3047,,V3_077,18,female,2024-11-18_17h43.20.993,jersey_experiment_5_v3,2023.2.2,Win32,85.47008547,,,,,,,,,,,,,,,,,,,,,,,,,,,,,,,,,,,,,,,,,,,,,,,,,,,,,,,,,,,,,,,,,,,,,,,,,,,,,,
,,,,,V3_077,18,female,2024-11-18_17h43.20.993,jersey_experiment_5_v3,2023.2.2,Win32,85.47008547,7.3187,21.2492,return,13.9196,,,,,,,,,,,,,,,,,,,,,,,,,,,,,,,,,,,,,,,,,,,,,,,,,,,,,,,,,,,,,,,,,,,,,,,,,,
,,,,,V3_077,18,female,2024-11-18_17h43.20.993,jersey_experiment_5_v3,2023.2.2,Win32,85.47008547,,,,,,21.2493,26.4685,return,5.1904,,,,,,,,,,,,,,,,,,,,,,,,,,,,,,,,,,,,,,,,,,,,,,,,,,,,,,,,,,,,,,,,,,,,,
,,,,,V3_077,18,female,2024-11-18_17h43.20.993,jersey_experiment_5_v3,2023.2.2,Win32,85.47008547,,,,,,,,,,,26.4686,41.822,return,15.3387,,,,,,,,,,,,,,,,,,,,,,,,,,,,,,,,,,,,,,,,,,,,,,,,,,,,,,,,,,,,,,,,
,,,,,V3_077,18,female,2024-11-18_17h43.20.993,jersey_experiment_5_v3,2023.2.2,Win32,85.47008547,,,,,,,,,,,,,,,,41.8237,43.3751,43.3751,52.1049,return,6.2499,,50,0,0,0,4,1,FBP-YG-71.png,0.45,1.2,5,0.75,,,,,,,,,,,,,,,,,,,,,,,,,,,,,,,,,,,,,,,,,,,,,
,,,,,V3_077,18,female,2024-11-18_17h43.20.993,jersey_experiment_5_v3,2023.2.2,Win32,85.47008547,,,,,,,,,,,,,,,,52.1053,53.6578,53.6578,62.5876,return,6.9049,,75.52083333,0,1,1,59,1,FBP-RB-19.png,0.45,1.2,60,0.75,,,,,,,,,,,,,,,,,,,,,,,,,,,,,,,,,,,,,,,,,,,,,
,,,,,V3_077,18,female,2024-11-18_17h43.20.993,jersey_experiment_5_v3,2023.2.2,Win32,85.47008547,,,,,,,,,,,,,,,,62.5879,64.1405,64.1406,73.7998,return,4.9096,,62.23958333,0,2,2,12,1,FBP-YG-91.png,0.4,1.2,13,0.75,,,,,,,,,,,,,,,,,,,,,,,,,,,,,,,,,,,,,,,,,,,,,
,,,,,V3_077,18,female,2024-11-18_17h43.20.993,jersey_experiment_5_v3,2023.2.2,Win32,85.47008547,,,,,,,,,,,,,,,,73.8001,75.3528,75.3529,84.0825,return,1.7857,,86.58854167,0,3,3,7,1,FBP-YG-81.png,0.4,1.2,8,0.75,,,,,,,,,,,,,,,,,,,,,,,,,,,,,,,,,,,,,,,,,,,,,
,,,,,V3_077,18,female,2024-11-18_17h43.20.993,jersey_experiment_5_v3,2023.2.2,Win32,85.47008547,,,,,,,,,,,,,,,,84.0828,85.3766,85.3766,92.3769,return,2.4025,,36.71875,0,4,4,40,1,FBP-OG-19.png,0.35,1.2,41,0.5,,,,,,,,,,,,,,,,,,,,,,,,,,,,,,,,,,,,,,,,,,,,,
,,,,,V3_077,18,female,2024-11-18_17h43.20.993,jersey_experiment_5_v3,2023.2.2,Win32,85.47008547,,,,,,,,,,,,,,,,92.3772,93.6709,93.6711,106.5538,return,7.3682,,46.22395833,0,5,5,42,1,FBP-OG-19.png,0.4,1.2,43,0.5,,,,,,,,,,,,,,,,,,,,,,,,,,,,,,,,,,,,,,,,,,,,,
,,,,,V3_077,18,female,2024-11-18_17h43.20.993,jersey_experiment_5_v3,2023.2.2,Win32,85.47008547,,,,,,,,,,,,,,,,106.5541,108.1068,108.1069,114.4365,return,1.559,,62.23958333,0,6,6,16,1,FBP-PT-17.png,0.37,1.2,17,0.75,,,,,,,,,,,,,,,,,,,,,,,,,,,,,,,,,,,,,,,,,,,,,
,,,,,V3_077,18,female,2024-11-18_17h43.20.993,jersey_experiment_5_v3,2023.2.2,Win32,85.47008547,,,,,,,,,,,,,,,,114.4367,115.7306,115.7307,120.5191,return,1.1915,,79.94791667,0,7,7,31,1,FBP-OG-17.png,0.37,1.2,32,0.5,,,,,,,,,,,,,,,,,,,,,,,,,,,,,,,,,,,,,,,,,,,,,
,,,,,V3_077,18,female,2024-11-18_17h43.20.993,jersey_experiment_5_v3,2023.2.2,Win32,85.47008547,,,,,,,,,,,,,,,,120.5196,122.0722,122.0723,126.5546,return,2.6831,,99.86979167,0,8,8,29,1,FBP-PT-19.png,0.45,1.2,30,0.75,,,,,,,,,,,,,,,,,,,,,,,,,,,,,,,,,,,,,,,,,,,,,
,,,,,V3_077,18,female,2024-11-18_17h43.20.993,jersey_experiment_5_v3,2023.2.2,Win32,85.47008547,,,,,,,,,,,,,,,,126.5548,128.1076,128.1077,136.2491,return,5.6613,,99.609375,0,9,9,9,1,FBP-YG-81.png,0.45,1.2,10,0.75,,,,,,,,,,,,,,,,,,,,,,,,,,,,,,,,,,,,,,,,,,,,,
,,,,,V3_077,18,female,2024-11-18_17h43.20.993,jersey_experiment_5_v3,2023.2.2,Win32,85.47008547,,,,,,,,,,,,,,,,136.2494,137.802,137.8021,144.6493,return,0.7529,,49.47916667,0,10,10,46,1,FBP-RB-17.png,0.37,1.2,47,0.75,,,,,,,,,,,,,,,,,,,,,,,,,,,,,,,,,,,,,,,,,,,,,
,,,,,V3_077,18,female,2024-11-18_17h43.20.993,jersey_experiment_5_v3,2023.2.2,Win32,85.47008547,,,,,,,,,,,,,,,,144.6496,146.2024,146.2024,157.2851,return,9.5245,,70.96354167,0,11,11,2,1,FBP-YG-71.png,0.4,1.2,3,0.75,,,,,,,,,,,,,,,,,,,,,,,,,,,,,,,,,,,,,,,,,,,,,
,,,,,V3_077,18,female,2024-11-18_17h43.20.993,jersey_experiment_5_v3,2023.2.2,Win32,85.47008547,,,,,,,,,,,,,,,,157.2855,158.838,158.8381,161.9912,return,1.1771,,61.19791667,0,12,12,6,1,FBP-YG-81.png,0.37,1.2,7,0.75,,,,,,,,,,,,,,,,,,,,,,,,,,,,,,,,,,,,,,,,,,,,,
,,,,,V3_077,18,female,2024-11-18_17h43.20.993,jersey_experiment_5_v3,2023.2.2,Win32,85.47008547,,,,,,,,,,,,,,,,161.9914,163.2853,163.2854,171.4267,return,1.2911,,48.4375,0,13,13,35,1,FBP-OG-18.png,0.35,1.2,36,0.5,,,,,,,,,,,,,,,,,,,,,,,,,,,,,,,,,,,,,,,,,,,,,
,,,,,V3_077,18,female,2024-11-18_17h43.20.993,jersey_experiment_5_v3,2023.2.2,Win32,85.47008547,,,,,,,,,,,,,,,,171.427,172.9799,172.9799,177.1564,return,1.2781,,36.58854167,0,14,14,5,1,FBP-YG-81.png,0.35,1.2,6,0.75,,,,,,,,,,,,,,,,,,,,,,,,,,,,,,,,,,,,,,,,,,,,,
,,,,,V3_077,18,female,2024-11-18_17h43.20.993,jersey_experiment_5_v3,2023.2.2,Win32,85.47008547,,,,,,,,,,,,,,,,177.1568,178.6981,178.6982,182.0273,return,1.3886,,94.921875,0,15,15,27,1,FBP-PT-19.png,0.4,1.2,28,0.75,,,,,,,,,,,,,,,,,,,,,,,,,,,,,,,,,,,,,,,,,,,,,
,,,,,V3_077,18,female,2024-11-18_17h43.20.993,jersey_experiment_5_v3,2023.2.2,Win32,85.47008547,,,,,,,,,,,,,,,,182.0276,183.3214,183.3215,189.2394,return,1.0515,,82.03125,0,16,16,41,1,FBP-OG-19.png,0.37,1.2,42,0.5,,,,,,,,,,,,,,,,,,,,,,,,,,,,,,,,,,,,,,,,,,,,,
,,,,,V3_077,18,female,2024-11-18_17h43.20.993,jersey_experiment_5_v3,2023.2.2,Win32,85.47008547,,,,,,,,,,,,,,,,189.2397,190.7922,190.7922,193.0747,return,0.9934,,99.21875,0,17,17,53,1,FBP-RB-18.png,0.43,1.2,54,0.75,,,,,,,,,,,,,,,,,,,,,,,,,,,,,,,,,,,,,,,,,,,,,
,,,,,V3_077,18,female,2024-11-18_17h43.20.993,jersey_experiment_5_v3,2023.2.2,Win32,85.47008547,,,,,,,,,,,,,,,,193.075,194.6277,194.6278,197.4161,return,0.7329,,99.47916667,0,18,18,14,1,FBP-YG-91.png,0.45,1.2,15,0.75,,,,,,,,,,,,,,,,,,,,,,,,,,,,,,,,,,,,,,,,,,,,,
,,,,,V3_077,18,female,2024-11-18_17h43.20.993,jersey_experiment_5_v3,2023.2.2,Win32,85.47008547,,,,,,,,,,,,,,,,197.4164,198.9691,198.9691,200.5574,return,0.8861,,99.08854167,0,19,19,28,1,FBP-PT-19.png,0.43,1.2,29,0.75,,,,,,,,,,,,,,,,,,,,,,,,,,,,,,,,,,,,,,,,,,,,,
,,,,,V3_077,18,female,2024-11-18_17h43.20.993,jersey_experiment_5_v3,2023.2.2,Win32,85.47008547,,,,,,,,,,,,,,,,200.5576,202.1104,202.1104,204.6164,return,1.0701,,40.36458333,0,20,20,15,1,FBP-PT-17.png,0.35,1.2,16,0.75,,,,,,,,,,,,,,,,,,,,,,,,,,,,,,,,,,,,,,,,,,,,,
,,,,,V3_077,18,female,2024-11-18_17h43.20.993,jersey_experiment_5_v3,2023.2.2,Win32,85.47008547,,,,,,,,,,,,,,,,204.6166,206.1694,206.1695,208.487,return,1.0516,,32.03125,0,21,21,0,1,FBP-YG-71.png,0.35,1.2,1,0.75,,,,,,,,,,,,,,,,,,,,,,,,,,,,,,,,,,,,,,,,,,,,,
,,,,,V3_077,18,female,2024-11-18_17h43.20.993,jersey_experiment_5_v3,2023.2.2,Win32,85.47008547,,,,,,,,,,,,,,,,208.4874,210.04,210.0401,212.393,return,0.7915,,74.73958333,0,22,22,10,1,FBP-YG-91.png,0.35,1.2,11,0.75,,,,,,,,,,,,,,,,,,,,,,,,,,,,,,,,,,,,,,,,,,,,,
,,,,,V3_077,18,female,2024-11-18_17h43.20.993,jersey_experiment_5_v3,2023.2.2,Win32,85.47008547,,,,,,,,,,,,,,,,212.3932,213.9461,213.9461,216.0874,return,1.0982,,99.86979167,0,23,23,54,1,FBP-RB-18.png,0.45,1.2,55,0.75,,,,,,,,,,,,,,,,,,,,,,,,,,,,,,,,,,,,,,,,,,,,,
,,,,,V3_077,18,female,2024-11-18_17h43.20.993,jersey_experiment_5_v3,2023.2.2,Win32,85.47008547,,,,,,,,,,,,,,,,216.0877,217.6403,217.6404,219.7346,return,1.052,,99.47916667,0,24,24,24,1,FBP-PT-18.png,0.45,1.2,25,0.75,,,,,,,,,,,,,,,,,,,,,,,,,,,,,,,,,,,,,,,,,,,,,
,,,,,V3_077,18,female,2024-11-18_17h43.20.993,jersey_experiment_5_v3,2023.2.2,Win32,85.47008547,,,,,,,,,,,,,,,,219.7348,221.2876,221.2876,225.0759,return,0.6885,,49.47916667,0,25,25,26,1,FBP-PT-19.png,0.37,1.2,27,0.75,,,,,,,,,,,,,,,,,,,,,,,,,,,,,,,,,,,,,,,,,,,,,
,,,,,V3_077,18,female,2024-11-18_17h43.20.993,jersey_experiment_5_v3,2023.2.2,Win32,85.47008547,,,,,,,,,,,,,,,,225.0761,226.3701,226.3701,229.735,return,0.9456,,98.56770833,0,26,26,32,1,FBP-OG-17.png,0.4,1.2,33,0.5,,,,,,,,,,,,,,,,,,,,,,,,,,,,,,,,,,,,,,,,,,,,,
,,,,,V3_077,18,female,2024-11-18_17h43.20.993,jersey_experiment_5_v3,2023.2.2,Win32,85.47008547,,,,,,,,,,,,,,,,229.7353,231.2879,231.2879,234.3234,return,1.0893,,71.22395833,0,27,27,20,1,FBP-PT-18.png,0.35,1.2,21,0.75,,,,,,,,,,,,,,,,,,,,,,,,,,,,,,,,,,,,,,,,,,,,,
,,,,,V3_077,18,female,2024-11-18_17h43.20.993,jersey_experiment_5_v3,2023.2.2,Win32,85.47008547,,,,,,,,,,,,,,,,234.3236,235.6175,235.6175,238.441,return,0.814,,98.95833333,0,28,28,39,1,FBP-OG-18.png,0.45,1.2,40,0.5,,,,,,,,,,,,,,,,,,,,,,,,,,,,,,,,,,,,,,,,,,,,,
,,,,,V3_077,18,female,2024-11-18_17h43.20.993,jersey_experiment_5_v3,2023.2.2,Win32,85.47008547,,,,,,,,,,,,,,,,238.4413,239.7354,239.7354,241.4531,return,0.7061,,99.609375,0,29,29,34,1,FBP-OG-17.png,0.45,1.2,35,0.5,,,,,,,,,,,,,,,,,,,,,,,,,,,,,,,,,,,,,,,,,,,,,
,,,,,V3_077,18,female,2024-11-18_17h43.20.993,jersey_experiment_5_v3,2023.2.2,Win32,85.47008547,,,,,,,,,,,,,,,,241.4533,242.7472,242.7472,244.8531,return,0.6763,,99.609375,0,30,30,44,1,FBP-OG-19.png,0.45,1.2,45,0.5,,,,,,,,,,,,,,,,,,,,,,,,,,,,,,,,,,,,,,,,,,,,,
,,,,,V3_077,18,female,2024-11-18_17h43.20.993,jersey_experiment_5_v3,2023.2.2,Win32,85.47008547,,,,,,,,,,,,,,,,244.8535,246.4061,246.4061,249.4061,return,0.768,,99.21875,0,31,31,23,1,FBP-PT-18.png,0.43,1.2,24,0.75,,,,,,,,,,,,,,,,,,,,,,,,,,,,,,,,,,,,,,,,,,,,,
,,,,,V3_077,18,female,2024-11-18_17h43.20.993,jersey_experiment_5_v3,2023.2.2,Win32,85.47008547,,,,,,,,,,,,,,,,249.4065,250.7004,250.7005,253.0769,return,1.4877,,99.21875,0,32,32,38,1,FBP-OG-18.png,0.43,1.2,39,0.5,,,,,,,,,,,,,,,,,,,,,,,,,,,,,,,,,,,,,,,,,,,,,
,,,,,V3_077,18,female,2024-11-18_17h43.20.993,jersey_experiment_5_v3,2023.2.2,Win32,85.47008547,,,,,,,,,,,,,,,,253.0772,254.63,254.63,263.3833,return,4.4267,,44.27083333,0,33,33,55,1,FBP-RB-19.png,0.35,1.2,56,0.75,,,,,,,,,,,,,,,,,,,,,,,,,,,,,,,,,,,,,,,,,,,,,
,,,,,V3_077,18,female,2024-11-18_17h43.20.993,jersey_experiment_5_v3,2023.2.2,Win32,85.47008547,,,,,,,,,,,,,,,,263.3835,264.6774,264.6775,269.56,return,1.5332,,30.33854167,0,34,34,30,1,FBP-OG-17.png,0.35,1.2,31,0.5,,,,,,,,,,,,,,,,,,,,,,,,,,,,,,,,,,,,,,,,,,,,,
,,,,,V3_077,18,female,2024-11-18_17h43.20.993,jersey_experiment_5_v3,2023.2.2,Win32,85.47008547,,,,,,,,,,,,,,,,269.5602,271.113,271.113,275.4307,return,2.0034,,75.26041667,0,35,35,51,1,FBP-RB-18.png,0.37,1.2,52,0.75,,,,,,,,,,,,,,,,,,,,,,,,,,,,,,,,,,,,,,,,,,,,,
,,,,,V3_077,18,female,2024-11-18_17h43.20.993,jersey_experiment_5_v3,2023.2.2,Win32,85.47008547,,,,,,,,,,,,,,,,275.4309,276.9837,276.9837,279.6191,return,1.1366,,71.74479167,0,36,36,17,1,FBP-PT-17.png,0.4,1.2,18,0.75,,,,,,,,,,,,,,,,,,,,,,,,,,,,,,,,,,,,,,,,,,,,,
,,,,,V3_077,18,female,2024-11-18_17h43.20.993,jersey_experiment_5_v3,2023.2.2,Win32,85.47008547,,,,,,,,,,,,,,,,279.6194,281.1721,281.1721,284.2311,return,1.2028,,99.73958333,0,37,37,49,1,FBP-RB-17.png,0.45,1.2,50,0.75,,,,,,,,,,,,,,,,,,,,,,,,,,,,,,,,,,,,,,,,,,,,,
,,,,,V3_077,18,female,2024-11-18_17h43.20.993,jersey_experiment_5_v3,2023.2.2,Win32,85.47008547,,,,,,,,,,,,,,,,284.2313,285.7839,285.784,287.8665,return,0.8247,,87.23958333,0,38,38,56,1,FBP-RB-19.png,0.37,1.2,57,0.75,,,,,,,,,,,,,,,,,,,,,,,,,,,,,,,,,,,,,,,,,,,,,
,,,,,V3_077,18,female,2024-11-18_17h43.20.993,jersey_experiment_5_v3,2023.2.2,Win32,85.47008547,,,,,,,,,,,,,,,,287.8668,289.4195,289.4195,292.2195,return,0.8707,,99.73958333,0,39,39,19,1,FBP-PT-17.png,0.45,1.2,20,0.75,,,,,,,,,,,,,,,,,,,,,,,,,,,,,,,,,,,,,,,,,,,,,
,,,,,V3_077,18,female,2024-11-18_17h43.20.993,jersey_experiment_5_v3,2023.2.2,Win32,85.47008547,,,,,,,,,,,,,,,,292.2198,293.7726,293.7726,296.408,return,0.8741,,79.296875,0,40,40,1,1,FBP-YG-71.png,0.37,1.2,2,0.75,,,,,,,,,,,,,,,,,,,,,,,,,,,,,,,,,,,,,,,,,,,,,
,,,,,V3_077,18,female,2024-11-18_17h43.20.993,jersey_experiment_5_v3,2023.2.2,Win32,85.47008547,,,,,,,,,,,,,,,,296.4081,297.9609,297.961,300.0199,return,0.8989,,34.50520833,0,41,41,50,1,FBP-RB-18.png,0.35,1.2,51,0.75,,,,,,,,,,,,,,,,,,,,,,,,,,,,,,,,,,,,,,,,,,,,,
,,,,,V3_077,18,female,2024-11-18_17h43.20.993,jersey_experiment_5_v3,2023.2.2,Win32,85.47008547,,,,,,,,,,,,,,,,300.0202,301.5731,301.5732,303.4906,return,0.7484,,99.34895833,0,42,42,8,1,FBP-YG-81.png,0.43,1.2,9,0.75,,,,,,,,,,,,,,,,,,,,,,,,,,,,,,,,,,,,,,,,,,,,,
,,,,,V3_077,18,female,2024-11-18_17h43.20.993,jersey_experiment_5_v3,2023.2.2,Win32,85.47008547,,,,,,,,,,,,,,,,303.4908,305.0437,305.0437,308.1849,return,1.7318,,100,0,43,43,3,1,FBP-YG-71.png,0.43,1.2,4,0.75,,,,,,,,,,,,,,,,,,,,,,,,,,,,,,,,,,,,,,,,,,,,,
,,,,,V3_077,18,female,2024-11-18_17h43.20.993,jersey_experiment_5_v3,2023.2.2,Win32,85.47008547,,,,,,,,,,,,,,,,308.1851,309.479,309.4791,313.0203,return,0.9179,,96.35416667,0,44,44,33,1,FBP-OG-17.png,0.43,1.2,34,0.5,,,,,,,,,,,,,,,,,,,,,,,,,,,,,,,,,,,,,,,,,,,,,
,,,,,V3_077,18,female,2024-11-18_17h43.20.993,jersey_experiment_5_v3,2023.2.2,Win32,85.47008547,,,,,,,,,,,,,,,,313.0205,314.5734,314.5735,316.7736,return,0.7943,,99.08854167,0,45,45,22,1,FBP-PT-18.png,0.4,1.2,23,0.75,,,,,,,,,,,,,,,,,,,,,,,,,,,,,,,,,,,,,,,,,,,,,
,,,,,V3_077,18,female,2024-11-18_17h43.20.993,jersey_experiment_5_v3,2023.2.2,Win32,85.47008547,,,,,,,,,,,,,,,,316.7739,318.0676,318.0676,321.9972,return,0.7997,,75,0,46,46,37,1,FBP-OG-18.png,0.4,1.2,38,0.5,,,,,,,,,,,,,,,,,,,,,,,,,,,,,,,,,,,,,,,,,,,,,
,,,,,V3_077,18,female,2024-11-18_17h43.20.993,jersey_experiment_5_v3,2023.2.2,Win32,85.47008547,,,,,,,,,,,,,,,,321.9975,323.5502,323.5502,326.3387,return,1.1738,,41.015625,0,47,47,45,1,FBP-RB-17.png,0.35,1.2,46,0.75,,,,,,,,,,,,,,,,,,,,,,,,,,,,,,,,,,,,,,,,,,,,,
,,,,,V3_077,18,female,2024-11-18_17h43.20.993,jersey_experiment_5_v3,2023.2.2,Win32,85.47008547,,,,,,,,,,,,,,,,326.339,327.8916,327.8916,330.2681,return,0.764,,99.73958333,0,48,48,13,1,FBP-YG-91.png,0.43,1.2,14,0.75,,,,,,,,,,,,,,,,,,,,,,,,,,,,,,,,,,,,,,,,,,,,,
,,,,,V3_077,18,female,2024-11-18_17h43.20.993,jersey_experiment_5_v3,2023.2.2,Win32,85.47008547,,,,,,,,,,,,,,,,330.2684,331.821,331.821,334.0212,return,1.5947,,99.21875,0,49,49,18,1,FBP-PT-17.png,0.43,1.2,19,0.75,,,,,,,,,,,,,,,,,,,,,,,,,,,,,,,,,,,,,,,,,,,,,
,,,,,V3_077,18,female,2024-11-18_17h43.20.993,jersey_experiment_5_v3,2023.2.2,Win32,85.47008547,,,,,,,,,,,,,,,,334.0214,335.5742,335.5743,337.7391,return,0.6814,,29.296875,0,50,50,25,1,FBP-PT-19.png,0.35,1.2,26,0.75,,,,,,,,,,,,,,,,,,,,,,,,,,,,,,,,,,,,,,,,,,,,,
,,,,,V3_077,18,female,2024-11-18_17h43.20.993,jersey_experiment_5_v3,2023.2.2,Win32,85.47008547,,,,,,,,,,,,,,,,337.7393,339.2919,339.2919,341.8331,return,0.6728,,74.21875,0,51,51,57,1,FBP-RB-19.png,0.4,1.2,58,0.75,,,,,,,,,,,,,,,,,,,,,,,,,,,,,,,,,,,,,,,,,,,,,
,,,,,V3_077,18,female,2024-11-18_17h43.20.993,jersey_experiment_5_v3,2023.2.2,Win32,85.47008547,,,,,,,,,,,,,,,,341.8334,343.3862,343.3863,345.5628,return,0.6592,,97.13541667,0,52,52,52,1,FBP-RB-18.png,0.4,1.2,53,0.75,,,,,,,,,,,,,,,,,,,,,,,,,,,,,,,,,,,,,,,,,,,,,
,,,,,V3_077,18,female,2024-11-18_17h43.20.993,jersey_experiment_5_v3,2023.2.2,Win32,85.47008547,,,,,,,,,,,,,,,,345.5631,347.1157,347.1157,348.6334,return,0.636,,99.34895833,0,53,53,58,1,FBP-RB-19.png,0.43,1.2,59,0.75,,,,,,,,,,,,,,,,,,,,,,,,,,,,,,,,,,,,,,,,,,,,,
,,,,,V3_077,18,female,2024-11-18_17h43.20.993,jersey_experiment_5_v3,2023.2.2,Win32,85.47008547,,,,,,,,,,,,,,,,348.6336,350.1865,350.1866,351.7511,return,0.6034,,92.05729167,0,54,54,47,1,FBP-RB-17.png,0.4,1.2,48,0.75,,,,,,,,,,,,,,,,,,,,,,,,,,,,,,,,,,,,,,,,,,,,,
,,,,,V3_077,18,female,2024-11-18_17h43.20.993,jersey_experiment_5_v3,2023.2.2,Win32,85.47008547,,,,,,,,,,,,,,,,351.7513,353.3042,353.3043,355.1162,return,0.717,,78.25520833,0,55,55,21,1,FBP-PT-18.png,0.37,1.2,22,0.75,,,,,,,,,,,,,,,,,,,,,,,,,,,,,,,,,,,,,,,,,,,,,
,,,,,V3_077,18,female,2024-11-18_17h43.20.993,jersey_experiment_5_v3,2023.2.2,Win32,85.47008547,,,,,,,,,,,,,,,,355.1165,356.6691,356.6691,359.2103,return,0.5749,,64.84375,0,56,56,11,1,FBP-YG-91.png,0.37,1.2,12,0.75,,,,,,,,,,,,,,,,,,,,,,,,,,,,,,,,,,,,,,,,,,,,,
,,,,,V3_077,18,female,2024-11-18_17h43.20.993,jersey_experiment_5_v3,2023.2.2,Win32,85.47008547,,,,,,,,,,,,,,,,359.2105,360.5045,360.5045,362.5869,return,0.7976,,42.70833333,0,57,57,36,1,FBP-OG-18.png,0.37,1.2,37,0.5,,,,,,,,,,,,,,,,,,,,,,,,,,,,,,,,,,,,,,,,,,,,,
,,,,,V3_077,18,female,2024-11-18_17h43.20.993,jersey_experiment_5_v3,2023.2.2,Win32,85.47008547,,,,,,,,,,,,,,,,362.5872,364.1402,364.1402,366.4224,return,0.6759,,99.73958333,0,58,58,48,1,FBP-RB-17.png,0.43,1.2,49,0.75,,,,,,,,,,,,,,,,,,,,,,,,,,,,,,,,,,,,,,,,,,,,,
,,,,,V3_077,18,female,2024-11-18_17h43.20.993,jersey_experiment_5_v3,2023.2.2,Win32,85.47008547,,,,,,,,,,,,,,,,366.4226,367.7165,367.7165,371.8343,return,1.9428,,98.046875,0,59,59,43,1,FBP-OG-19.png,0.43,1.2,44,0.5,,,,,,,,,,,,,,,,,,,,,,,,,,,,,,,,,,,,,,,,,,,,,
,,,,,V3_077,18,female,2024-11-18_17h43.20.993,jersey_experiment_5_v3,2023.2.2,Win32,85.47008547,,,,,,,,,,,,,,,,371.8357,373.3874,373.3874,375.6699,return,0.8176,,74.47916667,,,,,,FBP-PT-81.png,0.37,1.2,22,0.75,0,0,0,21,1,,,,,,,,,,,,,,,,,,,,,,,,,,,,,,,,,,,,,,,,
,,,,,V3_077,18,female,2024-11-18_17h43.20.993,jersey_experiment_5_v3,2023.2.2,Win32,85.47008547,,,,,,,,,,,,,,,,375.6702,377.2229,377.2229,380.2816,return,0.6039,,92.70833333,,,,,,FBP-YG-19.png,0.4,1.2,13,0.75,0,1,1,12,1,,,,,,,,,,,,,,,,,,,,,,,,,,,,,,,,,,,,,,,,
,,,,,V3_077,18,female,2024-11-18_17h43.20.993,jersey_experiment_5_v3,2023.2.2,Win32,85.47008547,,,,,,,,,,,,,,,,380.2819,381.8347,381.8348,384.2935,return,0.8373,,75.78125,,,,,,FBP-PT-91.png,0.4,1.2,28,0.75,0,2,2,27,1,,,,,,,,,,,,,,,,,,,,,,,,,,,,,,,,,,,,,,,,
,,,,,V3_077,18,female,2024-11-18_17h43.20.993,jersey_experiment_5_v3,2023.2.2,Win32,85.47008547,,,,,,,,,,,,,,,,384.2937,385.8349,385.835,388.2938,return,0.7463,,99.609375,,,,,,FBP-PT-91.png,0.45,1.2,30,0.75,0,3,3,29,1,,,,,,,,,,,,,,,,,,,,,,,,,,,,,,,,,,,,,,,,
,,,,,V3_077,18,female,2024-11-18_17h43.20.993,jersey_experiment_5_v3,2023.2.2,Win32,85.47008547,,,,,,,,,,,,,,,,388.2941,389.8467,389.8467,391.9174,return,0.8708,,90.49479167,,,,,,FBP-PT-71.png,0.4,1.2,18,0.75,0,4,4,17,1,,,,,,,,,,,,,,,,,,,,,,,,,,,,,,,,,,,,,,,,
,,,,,V3_077,18,female,2024-11-18_17h43.20.993,jersey_experiment_5_v3,2023.2.2,Win32,85.47008547,,,,,,,,,,,,,,,,391.9176,393.2117,393.2118,395.9882,return,0.8659,,79.81770833,,,,,,FBP-OG-71.png,0.35,1.2,31,0.5,0,5,5,30,1,,,,,,,,,,,,,,,,,,,,,,,,,,,,,,,,,,,,,,,,
,,,,,V3_077,18,female,2024-11-18_17h43.20.993,jersey_experiment_5_v3,2023.2.2,Win32,85.47008547,,,,,,,,,,,,,,,,395.9886,397.2825,397.2825,400.2589,return,0.7138,,99.609375,,,,,,FBP-OG-91.png,0.45,1.2,45,0.5,0,6,6,44,1,,,,,,,,,,,,,,,,,,,,,,,,,,,,,,,,,,,,,,,,
,,,,,V3_077,18,female,2024-11-18_17h43.20.993,jersey_experiment_5_v3,2023.2.2,Win32,85.47008547,,,,,,,,,,,,,,,,400.2591,401.8119,401.8119,404.4708,return,0.5813,,100,,,,,,FBP-PT-91.png,0.43,1.2,29,0.75,0,7,7,28,1,,,,,,,,,,,,,,,,,,,,,,,,,,,,,,,,,,,,,,,,
,,,,,V3_077,18,female,2024-11-18_17h43.20.993,jersey_experiment_5_v3,2023.2.2,Win32,85.47008547,,,,,,,,,,,,,,,,404.4712,406.0124,406.0125,408.071,return,0.5913,,74.609375,,,,,,FBP-PT-81.png,0.4,1.2,23,0.75,0,8,8,22,1,,,,,,,,,,,,,,,,,,,,,,,,,,,,,,,,,,,,,,,,
,,,,,V3_077,18,female,2024-11-18_17h43.20.993,jersey_experiment_5_v3,2023.2.2,Win32,85.47008547,,,,,,,,,,,,,,,,408.0714,409.6242,409.6242,411.671,return,0.968,,99.21875,,,,,,FBP-YG-19.png,0.45,1.2,15,0.75,0,9,9,14,1,,,,,,,,,,,,,,,,,,,,,,,,,,,,,,,,,,,,,,,,
,,,,,V3_077,18,female,2024-11-18_17h43.20.993,jersey_experiment_5_v3,2023.2.2,Win32,85.47008547,,,,,,,,,,,,,,,,411.6714,412.9652,412.9653,416.6477,return,1.0862,,38.28125,,,,,,FBP-OG-71.png,0.37,1.2,32,0.5,0,10,10,31,1,,,,,,,,,,,,,,,,,,,,,,,,,,,,,,,,,,,,,,,,
,,,,,V3_077,18,female,2024-11-18_17h43.20.993,jersey_experiment_5_v3,2023.2.2,Win32,85.47008547,,,,,,,,,,,,,,,,416.648,418.2007,418.2008,421.354,return,0.8586,,43.61979167,,,,,,FBP-RB-81.png,0.35,1.2,51,0.75,0,11,11,50,1,,,,,,,,,,,,,,,,,,,,,,,,,,,,,,,,,,,,,,,,
,,,,,V3_077,18,female,2024-11-18_17h43.20.993,jersey_experiment_5_v3,2023.2.2,Win32,85.47008547,,,,,,,,,,,,,,,,421.3542,422.907,422.907,425.4011,return,0.7555,,65.234375,,,,,,FBP-YG-19.png,0.43,1.2,14,0.75,0,12,12,13,1,,,,,,,,,,,,,,,,,,,,,,,,,,,,,,,,,,,,,,,,
,,,,,V3_077,18,female,2024-11-18_17h43.20.993,jersey_experiment_5_v3,2023.2.2,Win32,85.47008547,,,,,,,,,,,,,,,,425.4013,426.9542,426.9543,429.26,return,0.6356,,49.08854167,,,,,,FBP-YG-17.png,0.4,1.2,3,0.75,0,13,13,2,1,,,,,,,,,,,,,,,,,,,,,,,,,,,,,,,,,,,,,,,,
,,,,,V3_077,18,female,2024-11-18_17h43.20.993,jersey_experiment_5_v3,2023.2.2,Win32,85.47008547,,,,,,,,,,,,,,,,429.2603,430.5543,430.5543,432.872,return,1.1299,,62.76041667,,,,,,FBP-OG-91.png,0.35,1.2,41,0.5,0,14,14,40,1,,,,,,,,,,,,,,,,,,,,,,,,,,,,,,,,,,,,,,,,
,,,,,V3_077,18,female,2024-11-18_17h43.20.993,jersey_experiment_5_v3,2023.2.2,Win32,85.47008547,,,,,,,,,,,,,,,,432.8722,434.4248,434.4248,436.072,return,0.7555,,57.94270833,,,,,,FBP-RB-91.png,0.37,1.2,57,0.75,0,15,15,56,1,,,,,,,,,,,,,,,,,,,,,,,,,,,,,,,,,,,,,,,,
,,,,,V3_077,18,female,2024-11-18_17h43.20.993,jersey_experiment_5_v3,2023.2.2,Win32,85.47008547,,,,,,,,,,,,,,,,436.0724,437.3663,437.3663,439.3661,return,0.7815,,68.61979167,,,,,,FBP-OG-81.png,0.4,1.2,38,0.5,0,16,16,37,1,,,,,,,,,,,,,,,,,,,,,,,,,,,,,,,,,,,,,,,,
,,,,,V3_077,18,female,2024-11-18_17h43.20.993,jersey_experiment_5_v3,2023.2.2,Win32,85.47008547,,,,,,,,,,,,,,,,439.3664,440.9195,440.9196,444.9077,return,2.388,,100,,,,,,FBP-RB-71.png,0.43,1.2,49,0.75,0,17,17,48,1,,,,,,,,,,,,,,,,,,,,,,,,,,,,,,,,,,,,,,,,
,,,,,V3_077,18,female,2024-11-18_17h43.20.993,jersey_experiment_5_v3,2023.2.2,Win32,85.47008547,,,,,,,,,,,,,,,,444.908,446.4609,446.461,455.2139,return,3.2943,,37.76041667,,,,,,FBP-YG-17.png,0.35,1.2,1,0.75,0,18,18,0,1,,,,,,,,,,,,,,,,,,,,,,,,,,,,,,,,,,,,,,,,
,,,,,V3_077,18,female,2024-11-18_17h43.20.993,jersey_experiment_5_v3,2023.2.2,Win32,85.47008547,,,,,,,,,,,,,,,,455.2142,456.5081,456.5081,460.0613,return,1.0593,,74.34895833,,,,,,FBP-OG-91.png,0.43,1.2,44,0.5,0,19,19,43,1,,,,,,,,,,,,,,,,,,,,,,,,,,,,,,,,,,,,,,,,
,,,,,V3_077,18,female,2024-11-18_17h43.20.993,jersey_experiment_5_v3,2023.2.2,Win32,85.47008547,,,,,,,,,,,,,,,,460.0615,461.6142,461.6142,464.4026,return,0.6651,,69.40104167,,,,,,FBP-PT-71.png,0.37,1.2,17,0.75,0,20,20,16,1,,,,,,,,,,,,,,,,,,,,,,,,,,,,,,,,,,,,,,,,
,,,,,V3_077,18,female,2024-11-18_17h43.20.993,jersey_experiment_5_v3,2023.2.2,Win32,85.47008547,,,,,,,,,,,,,,,,464.4029,465.9555,465.9556,469.0497,return,2.0252,,79.03645833,,,,,,FBP-PT-91.png,0.37,1.2,27,0.75,0,21,21,26,1,,,,,,,,,,,,,,,,,,,,,,,,,,,,,,,,,,,,,,,,
,,,,,V3_077,18,female,2024-11-18_17h43.20.993,jersey_experiment_5_v3,2023.2.2,Win32,85.47008547,,,,,,,,,,,,,,,,469.05,470.6027,470.6028,474.1559,return,0.9649,,75.65104167,,,,,,FBP-RB-91.png,0.4,1.2,58,0.75,0,22,22,57,1,,,,,,,,,,,,,,,,,,,,,,,,,,,,,,,,,,,,,,,,
,,,,,V3_077,18,female,2024-11-18_17h43.20.993,jersey_experiment_5_v3,2023.2.2,Win32,85.47008547,,,,,,,,,,,,,,,,474.1562,475.7088,475.7088,478.5207,return,1.3873,,91.40625,,,,,,FBP-PT-81.png,0.45,1.2,25,0.75,0,23,23,24,1,,,,,,,,,,,,,,,,,,,,,,,,,,,,,,,,,,,,,,,,
,,,,,V3_077,18,female,2024-11-18_17h43.20.993,jersey_experiment_5_v3,2023.2.2,Win32,85.47008547,,,,,,,,,,,,,,,,478.521,479.8149,479.815,485.7091,return,0.8707,,80.20833333,,,,,,FBP-OG-91.png,0.4,1.2,43,0.5,0,24,24,42,1,,,,,,,,,,,,,,,,,,,,,,,,,,,,,,,,,,,,,,,,
,,,,,V3_077,18,female,2024-11-18_17h43.20.993,jersey_experiment_5_v3,2023.2.2,Win32,85.47008547,,,,,,,,,,,,,,,,485.7094,487.2622,487.2623,490.0388,return,1.1577,,75.78125,,,,,,FBP-RB-81.png,0.37,1.2,52,0.75,0,25,25,51,1,,,,,,,,,,,,,,,,,,,,,,,,,,,,,,,,,,,,,,,,
,,,,,V3_077,18,female,2024-11-18_17h43.20.993,jersey_experiment_5_v3,2023.2.2,Win32,85.47008547,,,,,,,,,,,,,,,,490.0391,491.5803,491.5804,494.039,return,1.4872,,39.97395833,,,,,,FBP-PT-91.png,0.35,1.2,26,0.75,0,26,26,25,1,,,,,,,,,,,,,,,,,,,,,,,,,,,,,,,,,,,,,,,,
,,,,,V3_077,18,female,2024-11-18_17h43.20.993,jersey_experiment_5_v3,2023.2.2,Win32,85.47008547,,,,,,,,,,,,,,,,494.0395,495.3333,495.3334,497.5451,return,0.7555,,46.09375,,,,,,FBP-OG-91.png,0.37,1.2,42,0.5,0,27,27,41,1,,,,,,,,,,,,,,,,,,,,,,,,,,,,,,,,,,,,,,,,
,,,,,V3_077,18,female,2024-11-18_17h43.20.993,jersey_experiment_5_v3,2023.2.2,Win32,85.47008547,,,,,,,,,,,,,,,,497.5453,499.0979,499.0979,502.1569,return,0.8709,,99.73958333,,,,,,FBP-PT-71.png,0.45,1.2,20,0.75,0,28,28,19,1,,,,,,,,,,,,,,,,,,,,,,,,,,,,,,,,,,,,,,,,
,,,,,V3_077,18,female,2024-11-18_17h43.20.993,jersey_experiment_5_v3,2023.2.2,Win32,85.47008547,,,,,,,,,,,,,,,,502.1572,503.7098,503.7099,506.0277,return,0.871,,98.828125,,,,,,FBP-RB-81.png,0.4,1.2,53,0.75,0,29,29,52,1,,,,,,,,,,,,,,,,,,,,,,,,,,,,,,,,,,,,,,,,
,,,,,V3_077,18,female,2024-11-18_17h43.20.993,jersey_experiment_5_v3,2023.2.2,Win32,85.47008547,,,,,,,,,,,,,,,,506.028,507.5806,507.5806,509.769,return,0.7061,,24.73958333,,,,,,FBP-YG-19.png,0.35,1.2,11,0.75,0,30,30,10,1,,,,,,,,,,,,,,,,,,,,,,,,,,,,,,,,,,,,,,,,
,,,,,V3_077,18,female,2024-11-18_17h43.20.993,jersey_experiment_5_v3,2023.2.2,Win32,85.47008547,,,,,,,,,,,,,,,,509.7694,511.0632,511.0633,514.6633,return,2.074,,40.88541667,,,,,,FBP-OG-81.png,0.35,1.2,36,0.5,0,31,31,35,1,,,,,,,,,,,,,,,,,,,,,,,,,,,,,,,,,,,,,,,,
,,,,,V3_077,18,female,2024-11-18_17h43.20.993,jersey_experiment_5_v3,2023.2.2,Win32,85.47008547,,,,,,,,,,,,,,,,514.6637,516.2163,516.2163,518.2046,return,0.8081,,36.328125,,,,,,FBP-YG-18.png,0.37,1.2,7,0.75,0,32,32,6,1,,,,,,,,,,,,,,,,,,,,,,,,,,,,,,,,,,,,,,,,
,,,,,V3_077,18,female,2024-11-18_17h43.20.993,jersey_experiment_5_v3,2023.2.2,Win32,85.47008547,,,,,,,,,,,,,,,,518.2049,519.7463,519.7463,521.3693,return,0.6581,,99.86979167,,,,,,FBP-YG-17.png,0.45,1.2,5,0.75,0,33,33,4,1,,,,,,,,,,,,,,,,,,,,,,,,,,,,,,,,,,,,,,,,
,,,,,V3_077,18,female,2024-11-18_17h43.20.993,jersey_experiment_5_v3,2023.2.2,Win32,85.47008547,,,,,,,,,,,,,,,,521.3696,522.9224,522.9224,524.9225,return,0.8619,,19.53125,,,,,,FBP-RB-71.png,0.37,1.2,47,0.75,0,34,34,46,1,,,,,,,,,,,,,,,,,,,,,,,,,,,,,,,,,,,,,,,,
,,,,,V3_077,18,female,2024-11-18_17h43.20.993,jersey_experiment_5_v3,2023.2.2,Win32,85.47008547,,,,,,,,,,,,,,,,524.9227,526.2167,526.2167,528.2638,return,0.9803,,66.40625,,,,,,FBP-OG-71.png,0.43,1.2,34,0.5,0,35,35,33,1,,,,,,,,,,,,,,,,,,,,,,,,,,,,,,,,,,,,,,,,
,,,,,V3_077,18,female,2024-11-18_17h43.20.993,jersey_experiment_5_v3,2023.2.2,Win32,85.47008547,,,,,,,,,,,,,,,,528.264,529.5579,529.558,533.5581,return,2.5214,,39.0625,,,,,,FBP-OG-81.png,0.37,1.2,37,0.5,0,36,36,36,1,,,,,,,,,,,,,,,,,,,,,,,,,,,,,,,,,,,,,,,,
,,,,,V3_077,18,female,2024-11-18_17h43.20.993,jersey_experiment_5_v3,2023.2.2,Win32,85.47008547,,,,,,,,,,,,,,,,533.5583,535.1112,535.1112,537.5818,return,1.0824,,99.34895833,,,,,,FBP-YG-18.png,0.43,1.2,9,0.75,0,37,37,8,1,,,,,,,,,,,,,,,,,,,,,,,,,,,,,,,,,,,,,,,,
,,,,,V3_077,18,female,2024-11-18_17h43.20.993,jersey_experiment_5_v3,2023.2.2,Win32,85.47008547,,,,,,,,,,,,,,,,537.5821,539.1348,539.1349,543.3702,return,2.4688,,19.921875,,,,,,FBP-YG-19.png,0.37,1.2,12,0.75,0,38,38,11,1,,,,,,,,,,,,,,,,,,,,,,,,,,,,,,,,,,,,,,,,
,,,,,V3_077,18,female,2024-11-18_17h43.20.993,jersey_experiment_5_v3,2023.2.2,Win32,85.47008547,,,,,,,,,,,,,,,,543.3705,544.9232,544.9233,552.8294,return,1.2,,49.21875,,,,,,FBP-YG-18.png,0.4,1.2,8,0.75,0,39,39,7,1,,,,,,,,,,,,,,,,,,,,,,,,,,,,,,,,,,,,,,,,
,,,,,V3_077,18,female,2024-11-18_17h43.20.993,jersey_experiment_5_v3,2023.2.2,Win32,85.47008547,,,,,,,,,,,,,,,,552.8297,554.3824,554.3825,556.8884,return,1.1196,,44.53125,,,,,,FBP-YG-18.png,0.35,1.2,6,0.75,0,40,40,5,1,,,,,,,,,,,,,,,,,,,,,,,,,,,,,,,,,,,,,,,,
,,,,,V3_077,18,female,2024-11-18_17h43.20.993,jersey_experiment_5_v3,2023.2.2,Win32,85.47008547,,,,,,,,,,,,,,,,556.8887,558.1827,558.1827,560.5239,return,0.9909,,99.86979167,,,,,,FBP-OG-71.png,0.45,1.2,35,0.5,0,41,41,34,1,,,,,,,,,,,,,,,,,,,,,,,,,,,,,,,,,,,,,,,,
,,,,,V3_077,18,female,2024-11-18_17h43.20.993,jersey_experiment_5_v3,2023.2.2,Win32,85.47008547,,,,,,,,,,,,,,,,560.5242,561.818,561.818,564.8888,return,0.9061,,99.86979167,,,,,,FBP-OG-81.png,0.43,1.2,39,0.5,0,42,42,38,1,,,,,,,,,,,,,,,,,,,,,,,,,,,,,,,,,,,,,,,,
,,,,,V3_077,18,female,2024-11-18_17h43.20.993,jersey_experiment_5_v3,2023.2.2,Win32,85.47008547,,,,,,,,,,,,,,,,564.8892,566.4417,566.4418,568.5358,return,0.9451,,98.56770833,,,,,,FBP-YG-18.png,0.45,1.2,10,0.75,0,43,43,9,1,,,,,,,,,,,,,,,,,,,,,,,,,,,,,,,,,,,,,,,,
,,,,,V3_077,18,female,2024-11-18_17h43.20.993,jersey_experiment_5_v3,2023.2.2,Win32,85.47008547,,,,,,,,,,,,,,,,568.5361,570.0773,570.0773,573.1597,return,1.2506,,100,,,,,,FBP-RB-91.png,0.45,1.2,60,0.75,0,44,44,59,1,,,,,,,,,,,,,,,,,,,,,,,,,,,,,,,,,,,,,,,,
,,,,,V3_077,18,female,2024-11-18_17h43.20.993,jersey_experiment_5_v3,2023.2.2,Win32,85.47008547,,,,,,,,,,,,,,,,573.1601,574.7125,574.7126,577.1597,return,0.9332,,23.828125,,,,,,FBP-RB-71.png,0.35,1.2,46,0.75,0,45,45,45,1,,,,,,,,,,,,,,,,,,,,,,,,,,,,,,,,,,,,,,,,
,,,,,V3_077,18,female,2024-11-18_17h43.20.993,jersey_experiment_5_v3,2023.2.2,Win32,85.47008547,,,,,,,,,,,,,,,,577.1599,578.701,578.7011,580.7951,return,0.8343,,99.86979167,,,,,,FBP-PT-81.png,0.43,1.2,24,0.75,0,46,46,23,1,,,,,,,,,,,,,,,,,,,,,,,,,,,,,,,,,,,,,,,,
,,,,,V3_077,18,female,2024-11-18_17h43.20.993,jersey_experiment_5_v3,2023.2.2,Win32,85.47008547,,,,,,,,,,,,,,,,580.7955,582.3483,582.3483,584.1836,return,0.6713,,94.79166667,,,,,,FBP-RB-71.png,0.4,1.2,48,0.75,0,47,47,47,1,,,,,,,,,,,,,,,,,,,,,,,,,,,,,,,,,,,,,,,,
,,,,,V3_077,18,female,2024-11-18_17h43.20.993,jersey_experiment_5_v3,2023.2.2,Win32,85.47008547,,,,,,,,,,,,,,,,584.1839,585.7368,585.7369,587.2073,return,0.8264,,98.56770833,,,,,,FBP-RB-81.png,0.43,1.2,54,0.75,0,48,48,53,1,,,,,,,,,,,,,,,,,,,,,,,,,,,,,,,,,,,,,,,,
,,,,,V3_077,18,female,2024-11-18_17h43.20.993,jersey_experiment_5_v3,2023.2.2,Win32,85.47008547,,,,,,,,,,,,,,,,587.2076,588.7603,588.7603,590.4425,return,0.7864,,99.73958333,,,,,,FBP-RB-91.png,0.43,1.2,59,0.75,0,49,49,58,1,,,,,,,,,,,,,,,,,,,,,,,,,,,,,,,,,,,,,,,,
,,,,,V3_077,18,female,2024-11-18_17h43.20.993,jersey_experiment_5_v3,2023.2.2,Win32,85.47008547,,,,,,,,,,,,,,,,590.4428,591.7368,591.7369,593.5132,return,0.675,,100,,,,,,FBP-OG-81.png,0.45,1.2,40,0.5,0,50,50,39,1,,,,,,,,,,,,,,,,,,,,,,,,,,,,,,,,,,,,,,,,
,,,,,V3_077,18,female,2024-11-18_17h43.20.993,jersey_experiment_5_v3,2023.2.2,Win32,85.47008547,,,,,,,,,,,,,,,,593.5135,595.0548,595.0548,597.2192,return,0.6436,,75.26041667,,,,,,FBP-YG-17.png,0.43,1.2,4,0.75,0,51,51,3,1,,,,,,,,,,,,,,,,,,,,,,,,,,,,,,,,,,,,,,,,
,,,,,V3_077,18,female,2024-11-18_17h43.20.993,jersey_experiment_5_v3,2023.2.2,Win32,85.47008547,,,,,,,,,,,,,,,,597.2194,598.7725,598.7725,601.0665,return,0.5637,,64.19270833,,,,,,FBP-PT-71.png,0.35,1.2,16,0.75,0,52,52,15,1,,,,,,,,,,,,,,,,,,,,,,,,,,,,,,,,,,,,,,,,
,,,,,V3_077,18,female,2024-11-18_17h43.20.993,jersey_experiment_5_v3,2023.2.2,Win32,85.47008547,,,,,,,,,,,,,,,,601.0668,602.6196,602.6196,605.3019,return,1.0633,,100,,,,,,FBP-RB-81.png,0.45,1.2,55,0.75,0,53,53,54,1,,,,,,,,,,,,,,,,,,,,,,,,,,,,,,,,,,,,,,,,
,,,,,V3_077,18,female,2024-11-18_17h43.20.993,jersey_experiment_5_v3,2023.2.2,Win32,85.47008547,,,,,,,,,,,,,,,,605.3022,606.8435,606.8435,608.9726,return,0.775,,100,,,,,,FBP-RB-71.png,0.45,1.2,50,0.75,0,54,54,49,1,,,,,,,,,,,,,,,,,,,,,,,,,,,,,,,,,,,,,,,,
,,,,,V3_077,18,female,2024-11-18_17h43.20.993,jersey_experiment_5_v3,2023.2.2,Win32,85.47008547,,,,,,,,,,,,,,,,608.9728,610.5257,610.5257,612.9375,return,0.6613,,62.76041667,,,,,,FBP-YG-17.png,0.37,1.2,2,0.75,0,55,55,1,1,,,,,,,,,,,,,,,,,,,,,,,,,,,,,,,,,,,,,,,,
,,,,,V3_077,18,female,2024-11-18_17h43.20.993,jersey_experiment_5_v3,2023.2.2,Win32,85.47008547,,,,,,,,,,,,,,,,612.9379,614.4906,614.4906,616.5376,return,0.8022,,50.13020833,,,,,,FBP-RB-91.png,0.35,1.2,56,0.75,0,56,56,55,1,,,,,,,,,,,,,,,,,,,,,,,,,,,,,,,,,,,,,,,,
,,,,,V3_077,18,female,2024-11-18_17h43.20.993,jersey_experiment_5_v3,2023.2.2,Win32,85.47008547,,,,,,,,,,,,,,,,616.5378,617.832,617.832,619.9966,return,0.9179,,74.08854167,,,,,,FBP-OG-71.png,0.4,1.2,33,0.5,0,57,57,32,1,,,,,,,,,,,,,,,,,,,,,,,,,,,,,,,,,,,,,,,,
,,,,,V3_077,18,female,2024-11-18_17h43.20.993,jersey_experiment_5_v3,2023.2.2,Win32,85.47008547,,,,,,,,,,,,,,,,619.9968,621.538,621.538,623.5733,return,0.8065,,99.08854167,,,,,,FBP-PT-71.png,0.43,1.2,19,0.75,0,58,58,18,1,,,,,,,,,,,,,,,,,,,,,,,,,,,,,,,,,,,,,,,,
,,,,,V3_077,18,female,2024-11-18_17h43.20.993,jersey_experiment_5_v3,2023.2.2,Win32,85.47008547,,,,,,,,,,,,,,,,623.5735,625.1263,625.1263,627.2204,return,1.1949,,37.109375,,,,,,FBP-PT-81.png,0.35,1.2,21,0.75,0,59,59,20,1,,,,,,,,,,,,,,,,,,,,,,,,,,,,,,,,,,,,,,,,
,,,,,V3_077,18,female,2024-11-18_17h43.20.993,jersey_experiment_5_v3,2023.2.2,Win32,85.47008547,,,,,,,,,,,,,,,,,,,,,,,,,,,,,,,,,,,,,,,627.2205,747.2133,,,,,,,,,,,,,,,,,,,,,,,,,,,,,,,,,,,,,,
,,,,,V3_077,18,female,2024-11-18_17h43.20.993,jersey_experiment_5_v3,2023.2.2,Win32,85.47008547,,,,,,,,,,,,,,,,,,,,,,,,,,,,,,,,,,,,,,,,,747.2133,752.2016,return,4.9778,,,,,,,,,,,,,,,,,,,,,,,,,,,,,,,,,,
,,,,,V3_077,18,female,2024-11-18_17h43.20.993,jersey_experiment_5_v3,2023.2.2,Win32,85.47008547,,,,,,,,,,,,,,,,752.203,753.4959,753.4959,755.7666,return,0.923,,94.40104167,,,,,,FBP-YG-81.png,0.43,1.2,9,0.5,,,,,,,,,,,,,0,0,0,8,1,,,,,,,,,,,,,,,,,,,,,,,,,,,,
,,,,,V3_077,18,female,2024-11-18_17h43.20.993,jersey_experiment_5_v3,2023.2.2,Win32,85.47008547,,,,,,,,,,,,,,,,755.7668,757.0607,757.0607,759.0019,return,0.696,,53.64583333,,,,,,FBP-YG-81.png,0.35,1.2,6,0.5,,,,,,,,,,,,,0,1,1,5,1,,,,,,,,,,,,,,,,,,,,,,,,,,,,
,,,,,V3_077,18,female,2024-11-18_17h43.20.993,jersey_experiment_5_v3,2023.2.2,Win32,85.47008547,,,,,,,,,,,,,,,,759.0021,760.2961,760.2962,762.3432,return,0.733,,99.47916667,,,,,,FBP-PT-17.png,0.45,1.2,20,0.5,,,,,,,,,,,,,0,2,2,19,1,,,,,,,,,,,,,,,,,,,,,,,,,,,,
,,,,,V3_077,18,female,2024-11-18_17h43.20.993,jersey_experiment_5_v3,2023.2.2,Win32,85.47008547,,,,,,,,,,,,,,,,762.3435,763.8962,763.8963,765.6141,return,0.8147,,95.18229167,,,,,,FBP-OG-19.png,0.4,1.2,43,0.75,,,,,,,,,,,,,0,3,3,42,1,,,,,,,,,,,,,,,,,,,,,,,,,,,,
,,,,,V3_077,18,female,2024-11-18_17h43.20.993,jersey_experiment_5_v3,2023.2.2,Win32,85.47008547,,,,,,,,,,,,,,,,765.6144,766.9084,766.9085,769.0964,return,0.6124,,99.34895833,,,,,,FBP-RB-18.png,0.45,1.2,55,0.5,,,,,,,,,,,,,0,4,4,54,1,,,,,,,,,,,,,,,,,,,,,,,,,,,,
,,,,,V3_077,18,female,2024-11-18_17h43.20.993,jersey_experiment_5_v3,2023.2.2,Win32,85.47008547,,,,,,,,,,,,,,,,769.0967,770.3906,770.3907,771.9436,return,0.6131,,100,,,,,,FBP-YG-91.png,0.4,1.2,13,0.5,,,,,,,,,,,,,0,5,5,12,1,,,,,,,,,,,,,,,,,,,,,,,,,,,,
,,,,,V3_077,18,female,2024-11-18_17h43.20.993,jersey_experiment_5_v3,2023.2.2,Win32,85.47008547,,,,,,,,,,,,,,,,771.9438,773.2378,773.2378,775.3673,return,0.8751,,99.609375,,,,,,FBP-PT-17.png,0.43,1.2,19,0.5,,,,,,,,,,,,,0,6,6,18,1,,,,,,,,,,,,,,,,,,,,,,,,,,,,
,,,,,V3_077,18,female,2024-11-18_17h43.20.993,jersey_experiment_5_v3,2023.2.2,Win32,85.47008547,,,,,,,,,,,,,,,,775.3675,776.6614,776.6614,778.2144,return,0.7893,,93.61979167,,,,,,FBP-YG-71.png,0.43,1.2,4,0.5,,,,,,,,,,,,,0,7,7,3,1,,,,,,,,,,,,,,,,,,,,,,,,,,,,
,,,,,V3_077,18,female,2024-11-18_17h43.20.993,jersey_experiment_5_v3,2023.2.2,Win32,85.47008547,,,,,,,,,,,,,,,,778.2148,779.5085,779.5085,781.0029,return,0.6572,,93.22916667,,,,,,FBP-RB-18.png,0.43,1.2,54,0.5,,,,,,,,,,,,,0,8,8,53,1,,,,,,,,,,,,,,,,,,,,,,,,,,,,
,,,,,V3_077,18,female,2024-11-18_17h43.20.993,jersey_experiment_5_v3,2023.2.2,Win32,85.47008547,,,,,,,,,,,,,,,,781.0031,782.2972,782.2973,784.6852,return,0.8473,,80.859375,,,,,,FBP-RB-18.png,0.37,1.2,52,0.5,,,,,,,,,,,,,0,9,9,51,1,,,,,,,,,,,,,,,,,,,,,,,,,,,,
,,,,,V3_077,18,female,2024-11-18_17h43.20.993,jersey_experiment_5_v3,2023.2.2,Win32,85.47008547,,,,,,,,,,,,,,,,784.6855,785.9794,785.9794,788.2501,return,1.0019,,100,,,,,,FBP-RB-19.png,0.43,1.2,59,0.5,,,,,,,,,,,,,0,10,10,58,1,,,,,,,,,,,,,,,,,,,,,,,,,,,,
,,,,,V3_077,18,female,2024-11-18_17h43.20.993,jersey_experiment_5_v3,2023.2.2,Win32,85.47008547,,,,,,,,,,,,,,,,788.2504,789.8031,789.8032,792.3562,return,0.8785,,12.63020833,,,,,,FBP-OG-18.png,0.35,1.2,36,0.75,,,,,,,,,,,,,0,11,11,35,1,,,,,,,,,,,,,,,,,,,,,,,,,,,,
,,,,,V3_077,18,female,2024-11-18_17h43.20.993,jersey_experiment_5_v3,2023.2.2,Win32,85.47008547,,,,,,,,,,,,,,,,792.3564,793.6504,793.6505,796.1209,return,0.8584,,42.83854167,,,,,,FBP-RB-17.png,0.37,1.2,47,0.5,,,,,,,,,,,,,0,12,12,46,1,,,,,,,,,,,,,,,,,,,,,,,,,,,,
,,,,,V3_077,18,female,2024-11-18_17h43.20.993,jersey_experiment_5_v3,2023.2.2,Win32,85.47008547,,,,,,,,,,,,,,,,796.1212,797.4153,797.4153,800.0387,return,0.7567,,93.75,,,,,,FBP-YG-71.png,0.4,1.2,3,0.5,,,,,,,,,,,,,0,13,13,2,1,,,,,,,,,,,,,,,,,,,,,,,,,,,,
,,,,,V3_077,18,female,2024-11-18_17h43.20.993,jersey_experiment_5_v3,2023.2.2,Win32,85.47008547,,,,,,,,,,,,,,,,800.039,801.3329,801.3329,803.8154,return,0.8516,,49.34895833,,,,,,FBP-RB-19.png,0.35,1.2,56,0.5,,,,,,,,,,,,,0,14,14,55,1,,,,,,,,,,,,,,,,,,,,,,,,,,,,
,,,,,V3_077,18,female,2024-11-18_17h43.20.993,jersey_experiment_5_v3,2023.2.2,Win32,85.47008547,,,,,,,,,,,,,,,,803.8157,805.1095,805.1096,808.0861,return,1.0638,,98.95833333,,,,,,FBP-PT-19.png,0.43,1.2,29,0.5,,,,,,,,,,,,,0,15,15,28,1,,,,,,,,,,,,,,,,,,,,,,,,,,,,
,,,,,V3_077,18,female,2024-11-18_17h43.20.993,jersey_experiment_5_v3,2023.2.2,Win32,85.47008547,,,,,,,,,,,,,,,,808.0864,809.6391,809.6391,811.4039,return,1.2133,,100,,,,,,FBP-OG-17.png,0.45,1.2,35,0.75,,,,,,,,,,,,,0,16,16,34,1,,,,,,,,,,,,,,,,,,,,,,,,,,,,
,,,,,V3_077,18,female,2024-11-18_17h43.20.993,jersey_experiment_5_v3,2023.2.2,Win32,85.47008547,,,,,,,,,,,,,,,,811.4041,812.6987,812.6987,814.8393,return,0.7564,,28.90625,,,,,,FBP-RB-18.png,0.35,1.2,51,0.5,,,,,,,,,,,,,0,17,17,50,1,,,,,,,,,,,,,,,,,,,,,,,,,,,,
,,,,,V3_077,18,female,2024-11-18_17h43.20.993,jersey_experiment_5_v3,2023.2.2,Win32,85.47008547,,,,,,,,,,,,,,,,814.8395,816.3807,816.3808,822.9574,return,5.0959,,50.26041667,,,,,,FBP-OG-18.png,0.37,1.2,37,0.75,,,,,,,,,,,,,0,18,18,36,1,,,,,,,,,,,,,,,,,,,,,,,,,,,,
,,,,,V3_077,18,female,2024-11-18_17h43.20.993,jersey_experiment_5_v3,2023.2.2,Win32,85.47008547,,,,,,,,,,,,,,,,822.9578,824.5106,824.5106,826.1575,return,0.7281,,99.47916667,,,,,,FBP-OG-19.png,0.45,1.2,45,0.75,,,,,,,,,,,,,0,19,19,44,1,,,,,,,,,,,,,,,,,,,,,,,,,,,,
,,,,,V3_077,18,female,2024-11-18_17h43.20.993,jersey_experiment_5_v3,2023.2.2,Win32,85.47008547,,,,,,,,,,,,,,,,826.158,827.4515,827.4516,829.5339,return,0.7395,,74.47916667,,,,,,FBP-RB-18.png,0.4,1.2,53,0.5,,,,,,,,,,,,,0,20,20,52,1,,,,,,,,,,,,,,,,,,,,,,,,,,,,
,,,,,V3_077,18,female,2024-11-18_17h43.20.993,jersey_experiment_5_v3,2023.2.2,Win32,85.47008547,,,,,,,,,,,,,,,,829.5342,831.0872,831.0873,833.2752,return,0.8475,,25.52083333,,,,,,FBP-OG-17.png,0.35,1.2,31,0.75,,,,,,,,,,,,,0,21,21,30,1,,,,,,,,,,,,,,,,,,,,,,,,,,,,
,,,,,V3_077,18,female,2024-11-18_17h43.20.993,jersey_experiment_5_v3,2023.2.2,Win32,85.47008547,,,,,,,,,,,,,,,,833.2756,834.5695,834.5695,838.0049,return,0.7007,,74.47916667,,,,,,FBP-PT-17.png,0.4,1.2,18,0.5,,,,,,,,,,,,,0,22,22,17,1,,,,,,,,,,,,,,,,,,,,,,,,,,,,
,,,,,V3_077,18,female,2024-11-18_17h43.20.993,jersey_experiment_5_v3,2023.2.2,Win32,85.47008547,,,,,,,,,,,,,,,,838.0051,839.558,839.558,841.7345,return,0.9115,,92.44791667,,,,,,FBP-OG-17.png,0.43,1.2,34,0.75,,,,,,,,,,,,,0,23,23,33,1,,,,,,,,,,,,,,,,,,,,,,,,,,,,
,,,,,V3_077,18,female,2024-11-18_17h43.20.993,jersey_experiment_5_v3,2023.2.2,Win32,85.47008547,,,,,,,,,,,,,,,,841.7348,843.2874,843.2875,846.1583,return,0.4964,,39.453125,,,,,,FBP-OG-19.png,0.37,1.2,42,0.75,,,,,,,,,,,,,0,24,24,41,1,,,,,,,,,,,,,,,,,,,,,,,,,,,,
,,,,,V3_077,18,female,2024-11-18_17h43.20.993,jersey_experiment_5_v3,2023.2.2,Win32,85.47008547,,,,,,,,,,,,,,,,846.1587,847.711,847.7111,849.1112,return,0.2264,,31.77083333,,,,,,FBP-OG-17.png,0.37,1.2,32,0.75,,,,,,,,,,,,,0,25,25,31,1,,,,,,,,,,,,,,,,,,,,,,,,,,,,
,,,,,V3_077,18,female,2024-11-18_17h43.20.993,jersey_experiment_5_v3,2023.2.2,Win32,85.47008547,,,,,,,,,,,,,,,,849.1116,850.4055,850.4055,858.5234,return,0.2461,,3.645833333,,,,,,FBP-PT-19.png,0.35,1.2,26,0.5,,,,,,,,,,,,,0,26,26,25,1,,,,,,,,,,,,,,,,,,,,,,,,,,,,
,,,,,V3_077,18,female,2024-11-18_17h43.20.993,jersey_experiment_5_v3,2023.2.2,Win32,85.47008547,,,,,,,,,,,,,,,,858.5236,860.0763,860.0763,862.7001,return,0.3192,,62.109375,,,,,,FBP-OG-18.png,0.4,1.2,38,0.75,,,,,,,,,,,,,0,27,27,37,1,,,,,,,,,,,,,,,,,,,,,,,,,,,,
,,,,,V3_077,18,female,2024-11-18_17h43.20.993,jersey_experiment_5_v3,2023.2.2,Win32,85.47008547,,,,,,,,,,,,,,,,862.7004,863.9943,863.9945,865.606,return,0.4059,,25,,,,,,FBP-YG-91.png,0.35,1.2,11,0.5,,,,,,,,,,,,,0,28,28,10,1,,,,,,,,,,,,,,,,,,,,,,,,,,,,
,,,,,V3_077,18,female,2024-11-18_17h43.20.993,jersey_experiment_5_v3,2023.2.2,Win32,85.47008547,,,,,,,,,,,,,,,,865.6062,866.9001,866.9001,868.0767,return,0.2825,,24.21875,,,,,,FBP-YG-71.png,0.35,1.2,1,0.5,,,,,,,,,,,,,0,29,29,0,1,,,,,,,,,,,,,,,,,,,,,,,,,,,,
,,,,,V3_077,18,female,2024-11-18_17h43.20.993,jersey_experiment_5_v3,2023.2.2,Win32,85.47008547,,,,,,,,,,,,,,,,868.077,869.6297,869.6297,871.1592,return,0.3341,,71.35416667,,,,,,FBP-OG-19.png,0.43,1.2,44,0.75,,,,,,,,,,,,,0,30,30,43,1,,,,,,,,,,,,,,,,,,,,,,,,,,,,
,,,,,V3_077,18,female,2024-11-18_17h43.20.993,jersey_experiment_5_v3,2023.2.2,Win32,85.47008547,,,,,,,,,,,,,,,,871.1595,872.4535,872.4535,874.0538,return,0.2185,,99.609375,,,,,,FBP-YG-91.png,0.45,1.2,15,0.5,,,,,,,,,,,,,0,31,31,14,1,,,,,,,,,,,,,,,,,,,,,,,,,,,,
,,,,,V3_077,18,female,2024-11-18_17h43.20.993,jersey_experiment_5_v3,2023.2.2,Win32,85.47008547,,,,,,,,,,,,,,,,874.054,875.3475,875.3476,876.7946,return,0.142,,74.34895833,,,,,,FBP-YG-91.png,0.37,1.2,12,0.5,,,,,,,,,,,,,0,32,32,11,1,,,,,,,,,,,,,,,,,,,,,,,,,,,,
,,,,,V3_077,18,female,2024-11-18_17h43.20.993,jersey_experiment_5_v3,2023.2.2,Win32,85.47008547,,,,,,,,,,,,,,,,876.7948,878.0888,878.0888,879.4182,return,0.1534,,93.88020833,,,,,,FBP-PT-18.png,0.43,1.2,24,0.5,,,,,,,,,,,,,0,33,33,23,1,,,,,,,,,,,,,,,,,,,,,,,,,,,,
,,,,,V3_077,18,female,2024-11-18_17h43.20.993,jersey_experiment_5_v3,2023.2.2,Win32,85.47008547,,,,,,,,,,,,,,,,879.4185,880.7124,880.7125,881.6421,return,0.1078,,100,,,,,,FBP-YG-81.png,0.45,1.2,10,0.5,,,,,,,,,,,,,0,34,34,9,1,,,,,,,,,,,,,,,,,,,,,,,,,,,,
,,,,,V3_077,18,female,2024-11-18_17h43.20.993,jersey_experiment_5_v3,2023.2.2,Win32,85.47008547,,,,,,,,,,,,,,,,881.6423,882.9362,882.9362,884.3713,return,0.2904,,75.13020833,,,,,,FBP-RB-19.png,0.4,1.2,58,0.5,,,,,,,,,,,,,0,35,35,57,1,,,,,,,,,,,,,,,,,,,,,,,,,,,,
,,,,,V3_077,18,female,2024-11-18_17h43.20.993,jersey_experiment_5_v3,2023.2.2,Win32,85.47008547,,,,,,,,,,,,,,,,884.3716,885.6656,885.6656,887.2421,return,0.3565,,92.96875,,,,,,FBP-PT-18.png,0.37,1.2,22,0.5,,,,,,,,,,,,,0,36,36,21,1,,,,,,,,,,,,,,,,,,,,,,,,,,,,
,,,,,V3_077,18,female,2024-11-18_17h43.20.993,jersey_experiment_5_v3,2023.2.2,Win32,85.47008547,,,,,,,,,,,,,,,,887.2424,888.5363,888.5364,889.795,return,0.1344,,74.21875,,,,,,FBP-PT-18.png,0.4,1.2,23,0.5,,,,,,,,,,,,,0,37,37,22,1,,,,,,,,,,,,,,,,,,,,,,,,,,,,
,,,,,V3_077,18,female,2024-11-18_17h43.20.993,jersey_experiment_5_v3,2023.2.2,Win32,85.47008547,,,,,,,,,,,,,,,,889.7952,891.0892,891.0893,892.3012,return,0.2125,,36.58854167,,,,,,FBP-RB-19.png,0.37,1.2,57,0.5,,,,,,,,,,,,,0,38,38,56,1,,,,,,,,,,,,,,,,,,,,,,,,,,,,
,,,,,V3_077,18,female,2024-11-18_17h43.20.993,jersey_experiment_5_v3,2023.2.2,Win32,85.47008547,,,,,,,,,,,,,,,,892.3015,893.8543,893.8543,894.7012,return,0.12,,55.078125,,,,,,FBP-OG-17.png,0.4,1.2,33,0.75,,,,,,,,,,,,,0,39,39,32,1,,,,,,,,,,,,,,,,,,,,,,,,,,,,
,,,,,V3_077,18,female,2024-11-18_17h43.20.993,jersey_experiment_5_v3,2023.2.2,Win32,85.47008547,,,,,,,,,,,,,,,,894.7014,895.9952,895.9953,896.9955,return,0.1028,,100,,,,,,FBP-RB-17.png,0.45,1.2,50,0.5,,,,,,,,,,,,,0,40,40,49,1,,,,,,,,,,,,,,,,,,,,,,,,,,,,
,,,,,V3_077,18,female,2024-11-18_17h43.20.993,jersey_experiment_5_v3,2023.2.2,Win32,85.47008547,,,,,,,,,,,,,,,,896.9957,898.2896,898.2896,899.4189,return,0.1999,,33.984375,,,,,,FBP-YG-81.png,0.4,1.2,8,0.5,,,,,,,,,,,,,0,41,41,7,1,,,,,,,,,,,,,,,,,,,,,,,,,,,,
,,,,,V3_077,18,female,2024-11-18_17h43.20.993,jersey_experiment_5_v3,2023.2.2,Win32,85.47008547,,,,,,,,,,,,,,,,899.4191,900.713,900.7131,901.7485,return,0.109,,100,,,,,,FBP-YG-91.png,0.43,1.2,14,0.5,,,,,,,,,,,,,0,42,42,13,1,,,,,,,,,,,,,,,,,,,,,,,,,,,,
,,,,,V3_077,18,female,2024-11-18_17h43.20.993,jersey_experiment_5_v3,2023.2.2,Win32,85.47008547,,,,,,,,,,,,,,,,901.7489,903.3015,903.3015,904.184,return,0.2037,,100,,,,,,FBP-OG-18.png,0.43,1.2,39,0.75,,,,,,,,,,,,,0,43,43,38,1,,,,,,,,,,,,,,,,,,,,,,,,,,,,
,,,,,V3_077,18,female,2024-11-18_17h43.20.993,jersey_experiment_5_v3,2023.2.2,Win32,85.47008547,,,,,,,,,,,,,,,,904.1842,905.737,905.7371,910.5018,return,1.3712,,2.083333333,,,,,,FBP-OG-19.png,0.35,1.2,41,0.75,,,,,,,,,,,,,0,44,44,40,1,,,,,,,,,,,,,,,,,,,,,,,,,,,,
,,,,,V3_077,18,female,2024-11-18_17h43.20.993,jersey_experiment_5_v3,2023.2.2,Win32,85.47008547,,,,,,,,,,,,,,,,910.5021,911.7959,911.796,915.2197,return,0.2321,,1.692708333,,,,,,FBP-PT-18.png,0.35,1.2,21,0.5,,,,,,,,,,,,,0,45,45,20,1,,,,,,,,,,,,,,,,,,,,,,,,,,,,
,,,,,V3_077,18,female,2024-11-18_17h43.20.993,jersey_experiment_5_v3,2023.2.2,Win32,85.47008547,,,,,,,,,,,,,,,,915.2199,916.773,916.773,920.9844,return,0.8153,,93.75,,,,,,FBP-OG-18.png,0.45,1.2,40,0.75,,,,,,,,,,,,,0,46,46,39,1,,,,,,,,,,,,,,,,,,,,,,,,,,,,
,,,,,V3_077,18,female,2024-11-18_17h43.20.993,jersey_experiment_5_v3,2023.2.2,Win32,85.47008547,,,,,,,,,,,,,,,,920.9848,922.2786,922.2786,925.2201,return,0.255,,48.95833333,,,,,,FBP-RB-19.png,0.45,1.2,60,0.5,,,,,,,,,,,,,0,47,47,59,1,,,,,,,,,,,,,,,,,,,,,,,,,,,,
,,,,,V3_077,18,female,2024-11-18_17h43.20.993,jersey_experiment_5_v3,2023.2.2,Win32,85.47008547,,,,,,,,,,,,,,,,925.2203,926.5141,926.5142,928.0555,return,0.2968,,65.36458333,,,,,,FBP-PT-19.png,0.4,1.2,28,0.5,,,,,,,,,,,,,0,48,48,27,1,,,,,,,,,,,,,,,,,,,,,,,,,,,,
,,,,,V3_077,18,female,2024-11-18_17h43.20.993,jersey_experiment_5_v3,2023.2.2,Win32,85.47008547,,,,,,,,,,,,,,,,928.0558,929.3494,929.3494,930.5731,return,0.2592,,38.41145833,,,,,,FBP-RB-17.png,0.35,1.2,46,0.5,,,,,,,,,,,,,0,49,49,45,1,,,,,,,,,,,,,,,,,,,,,,,,,,,,
,,,,,V3_077,18,female,2024-11-18_17h43.20.993,jersey_experiment_5_v3,2023.2.2,Win32,85.47008547,,,,,,,,,,,,,,,,930.5734,931.8673,931.8673,933.3262,return,0.2827,,99.73958333,,,,,,FBP-YG-71.png,0.45,1.2,5,0.5,,,,,,,,,,,,,0,50,50,4,1,,,,,,,,,,,,,,,,,,,,,,,,,,,,
,,,,,V3_077,18,female,2024-11-18_17h43.20.993,jersey_experiment_5_v3,2023.2.2,Win32,85.47008547,,,,,,,,,,,,,,,,933.3264,934.6203,934.6204,936.5264,return,0.2591,,99.08854167,,,,,,FBP-PT-18.png,0.45,1.2,25,0.5,,,,,,,,,,,,,0,51,51,24,1,,,,,,,,,,,,,,,,,,,,,,,,,,,,
,,,,,V3_077,18,female,2024-11-18_17h43.20.993,jersey_experiment_5_v3,2023.2.2,Win32,85.47008547,,,,,,,,,,,,,,,,936.5267,937.8205,937.8206,939.7029,return,0.2978,,37.36979167,,,,,,FBP-PT-17.png,0.35,1.2,16,0.5,,,,,,,,,,,,,0,52,52,15,1,,,,,,,,,,,,,,,,,,,,,,,,,,,,
,,,,,V3_077,18,female,2024-11-18_17h43.20.993,jersey_experiment_5_v3,2023.2.2,Win32,85.47008547,,,,,,,,,,,,,,,,939.7031,940.997,940.997,942.7503,return,0.2364,,97.65625,,,,,,FBP-RB-17.png,0.43,1.2,49,0.5,,,,,,,,,,,,,0,53,53,48,1,,,,,,,,,,,,,,,,,,,,,,,,,,,,
,,,,,V3_077,18,female,2024-11-18_17h43.20.993,jersey_experiment_5_v3,2023.2.2,Win32,85.47008547,,,,,,,,,,,,,,,,942.7506,944.0443,944.0443,946.9973,return,0.4157,,63.15104167,,,,,,FBP-YG-81.png,0.37,1.2,7,0.5,,,,,,,,,,,,,0,54,54,6,1,,,,,,,,,,,,,,,,,,,,,,,,,,,,
,,,,,V3_077,18,female,2024-11-18_17h43.20.993,jersey_experiment_5_v3,2023.2.2,Win32,85.47008547,,,,,,,,,,,,,,,,946.9976,948.2913,948.2914,949.9977,return,0.1885,,92.96875,,,,,,FBP-RB-17.png,0.4,1.2,48,0.5,,,,,,,,,,,,,0,55,55,47,1,,,,,,,,,,,,,,,,,,,,,,,,,,,,
,,,,,V3_077,18,female,2024-11-18_17h43.20.993,jersey_experiment_5_v3,2023.2.2,Win32,85.47008547,,,,,,,,,,,,,,,,949.998,951.2915,951.2916,952.8209,return,0.191,,34.50520833,,,,,,FBP-PT-17.png,0.37,1.2,17,0.5,,,,,,,,,,,,,0,56,56,16,1,,,,,,,,,,,,,,,,,,,,,,,,,,,,
,,,,,V3_077,18,female,2024-11-18_17h43.20.993,jersey_experiment_5_v3,2023.2.2,Win32,85.47008547,,,,,,,,,,,,,,,,952.8212,954.1152,954.1152,956.4567,return,0.2256,,97.13541667,,,,,,FBP-PT-19.png,0.37,1.2,27,0.5,,,,,,,,,,,,,0,57,57,26,1,,,,,,,,,,,,,,,,,,,,,,,,,,,,
,,,,,V3_077,18,female,2024-11-18_17h43.20.993,jersey_experiment_5_v3,2023.2.2,Win32,85.47008547,,,,,,,,,,,,,,,,956.457,957.7505,957.7505,959.6095,return,0.426,,50.65104167,,,,,,FBP-YG-71.png,0.37,1.2,2,0.5,,,,,,,,,,,,,0,58,58,1,1,,,,,,,,,,,,,,,,,,,,,,,,,,,,
,,,,,V3_077,18,female,2024-11-18_17h43.20.993,jersey_experiment_5_v3,2023.2.2,Win32,85.47008547,,,,,,,,,,,,,,,,959.6098,960.9037,960.9037,964.7157,return,2.2226,,75.26041667,,,,,,FBP-PT-19.png,0.45,1.2,30,0.5,,,,,,,,,,,,,0,59,59,29,1,,,,,,,,,,,,,,,,,,,,,,,,,,,,
,,,,,V3_077,18,female,2024-11-18_17h43.20.993,jersey_experiment_5_v3,2023.2.2,Win32,85.47008547,,,,,,,,,,,,,,,,964.7171,966.2686,966.2687,968.5039,return,0.3808,,99.21875,,,,,,FBP-OG-91.png,0.4,1.2,43,0.75,,,,,,,,,,,,,,,,,,0,0,0,42,1,,,,,,,,,,,,,,,,,,,,,,,
,,,,,V3_077,18,female,2024-11-18_17h43.20.993,jersey_experiment_5_v3,2023.2.2,Win32,85.47008547,,,,,,,,,,,,,,,,968.5042,969.7983,969.7983,971.563,return,0.2696,,70.3125,,,,,,FBP-YG-19.png,0.37,1.2,12,0.5,,,,,,,,,,,,,,,,,,0,1,1,11,1,,,,,,,,,,,,,,,,,,,,,,,
,,,,,V3_077,18,female,2024-11-18_17h43.20.993,jersey_experiment_5_v3,2023.2.2,Win32,85.47008547,,,,,,,,,,,,,,,,971.5633,972.8571,972.8571,973.7513,return,0.1568,,100,,,,,,FBP-RB-81.png,0.45,1.2,55,0.5,,,,,,,,,,,,,,,,,,0,2,2,54,1,,,,,,,,,,,,,,,,,,,,,,,
,,,,,V3_077,18,female,2024-11-18_17h43.20.993,jersey_experiment_5_v3,2023.2.2,Win32,85.47008547,,,,,,,,,,,,,,,,973.7516,975.3042,975.3042,976.0689,return,0.1234,,100,,,,,,FBP-OG-71.png,0.45,1.2,35,0.75,,,,,,,,,,,,,,,,,,0,3,3,34,1,,,,,,,,,,,,,,,,,,,,,,,
,,,,,V3_077,18,female,2024-11-18_17h43.20.993,jersey_experiment_5_v3,2023.2.2,Win32,85.47008547,,,,,,,,,,,,,,,,976.0691,977.3633,977.3633,980.4693,return,1.229,,90.75520833,,,,,,FBP-RB-81.png,0.43,1.2,54,0.5,,,,,,,,,,,,,,,,,,0,4,4,53,1,,,,,,,,,,,,,,,,,,,,,,,
,,,,,V3_077,18,female,2024-11-18_17h43.20.993,jersey_experiment_5_v3,2023.2.2,Win32,85.47008547,,,,,,,,,,,,,,,,980.4697,981.7634,981.7635,983.2104,return,0.2948,,84.50520833,,,,,,FBP-PT-81.png,0.43,1.2,24,0.5,,,,,,,,,,,,,,,,,,0,5,5,23,1,,,,,,,,,,,,,,,,,,,,,,,
,,,,,V3_077,18,female,2024-11-18_17h43.20.993,jersey_experiment_5_v3,2023.2.2,Win32,85.47008547,,,,,,,,,,,,,,,,983.2106,984.7633,984.7634,986.6812,return,0.1087,,24.609375,,,,,,FBP-OG-91.png,0.35,1.2,41,0.75,,,,,,,,,,,,,,,,,,0,6,6,40,1,,,,,,,,,,,,,,,,,,,,,,,
,,,,,V3_077,18,female,2024-11-18_17h43.20.993,jersey_experiment_5_v3,2023.2.2,Win32,85.47008547,,,,,,,,,,,,,,,,986.6815,987.9756,987.9757,989.799,return,0.2282,,81.77083333,,,,,,FBP-RB-81.png,0.4,1.2,53,0.5,,,,,,,,,,,,,,,,,,0,7,7,52,1,,,,,,,,,,,,,,,,,,,,,,,
,,,,,V3_077,18,female,2024-11-18_17h43.20.993,jersey_experiment_5_v3,2023.2.2,Win32,85.47008547,,,,,,,,,,,,,,,,989.7992,991.0932,991.0933,992.4579,return,0.1904,,24.609375,,,,,,FBP-PT-91.png,0.35,1.2,26,0.5,,,,,,,,,,,,,,,,,,0,8,8,25,1,,,,,,,,,,,,,,,,,,,,,,,
,,,,,V3_077,18,female,2024-11-18_17h43.20.993,jersey_experiment_5_v3,2023.2.2,Win32,85.47008547,,,,,,,,,,,,,,,,992.4581,993.752,993.752,995.1285,return,0.1563,,99.47916667,,,,,,FBP-YG-19.png,0.45,1.2,15,0.5,,,,,,,,,,,,,,,,,,0,9,9,14,1,,,,,,,,,,,,,,,,,,,,,,,
,,,,,V3_077,18,female,2024-11-18_17h43.20.993,jersey_experiment_5_v3,2023.2.2,Win32,85.47008547,,,,,,,,,,,,,,,,995.1288,996.4226,996.4226,997.5287,return,0.1797,,100,,,,,,FBP-PT-91.png,0.4,1.2,28,0.5,,,,,,,,,,,,,,,,,,0,10,10,27,1,,,,,,,,,,,,,,,,,,,,,,,
,,,,,V3_077,18,female,2024-11-18_17h43.20.993,jersey_experiment_5_v3,2023.2.2,Win32,85.47008547,,,,,,,,,,,,,,,,997.5289,999.0816,999.0817,1000.1641,return,0.2551,,86.97916667,,,,,,FBP-OG-71.png,0.37,1.2,32,0.75,,,,,,,,,,,,,,,,,,0,11,11,31,1,,,,,,,,,,,,,,,,,,,,,,,
,,,,,V3_077,18,female,2024-11-18_17h43.20.993,jersey_experiment_5_v3,2023.2.2,Win32,85.47008547,,,,,,,,,,,,,,,,1000.1644,1001.4582,1001.4583,1002.4465,return,0.1568,,100,,,,,,FBP-YG-17.png,0.43,1.2,4,0.5,,,,,,,,,,,,,,,,,,0,12,12,3,1,,,,,,,,,,,,,,,,,,,,,,,
,,,,,V3_077,18,female,2024-11-18_17h43.20.993,jersey_experiment_5_v3,2023.2.2,Win32,85.47008547,,,,,,,,,,,,,,,,1002.4468,1003.7407,1003.7407,1004.9525,return,0.273,,99.86979167,,,,,,FBP-RB-71.png,0.45,1.2,50,0.5,,,,,,,,,,,,,,,,,,0,13,13,49,1,,,,,,,,,,,,,,,,,,,,,,,
,,,,,V3_077,18,female,2024-11-18_17h43.20.993,jersey_experiment_5_v3,2023.2.2,Win32,85.47008547,,,,,,,,,,,,,,,,1004.9528,1006.2465,1006.2466,1007.4111,return,0.4537,,99.86979167,,,,,,FBP-YG-17.png,0.45,1.2,5,0.5,,,,,,,,,,,,,,,,,,0,14,14,4,1,,,,,,,,,,,,,,,,,,,,,,,
,,,,,V3_077,18,female,2024-11-18_17h43.20.993,jersey_experiment_5_v3,2023.2.2,Win32,85.47008547,,,,,,,,,,,,,,,,1007.4114,1008.7054,1008.7055,1009.5879,return,0.22,,99.86979167,,,,,,FBP-PT-91.png,0.43,1.2,29,0.5,,,,,,,,,,,,,,,,,,0,15,15,28,1,,,,,,,,,,,,,,,,,,,,,,,
,,,,,V3_077,18,female,2024-11-18_17h43.20.993,jersey_experiment_5_v3,2023.2.2,Win32,85.47008547,,,,,,,,,,,,,,,,1009.5882,1010.882,1010.8821,1012.294,return,0.2516,,34.24479167,,,,,,FBP-RB-91.png,0.37,1.2,57,0.5,,,,,,,,,,,,,,,,,,0,16,16,56,1,,,,,,,,,,,,,,,,,,,,,,,
,,,,,V3_077,18,female,2024-11-18_17h43.20.993,jersey_experiment_5_v3,2023.2.2,Win32,85.47008547,,,,,,,,,,,,,,,,1012.2942,1013.593,1013.593,1014.7469,return,0.2032,,99.21875,,,,,,FBP-RB-91.png,0.43,1.2,59,0.5,,,,,,,,,,,,,,,,,,0,17,17,58,1,,,,,,,,,,,,,,,,,,,,,,,
,,,,,V3_077,18,female,2024-11-18_17h43.20.993,jersey_experiment_5_v3,2023.2.2,Win32,85.47008547,,,,,,,,,,,,,,,,1014.747,1016.2939,1016.2939,1017.0765,return,0.2611,,98.95833333,,,,,,FBP-OG-91.png,0.45,1.2,45,0.75,,,,,,,,,,,,,,,,,,0,18,18,44,1,,,,,,,,,,,,,,,,,,,,,,,
,,,,,V3_077,18,female,2024-11-18_17h43.20.993,jersey_experiment_5_v3,2023.2.2,Win32,85.47008547,,,,,,,,,,,,,,,,1017.0767,1018.3705,1018.3706,1020.1648,return,0.1451,,70.44270833,,,,,,FBP-YG-19.png,0.4,1.2,13,0.5,,,,,,,,,,,,,,,,,,0,19,19,12,1,,,,,,,,,,,,,,,,,,,,,,,
,,,,,V3_077,18,female,2024-11-18_17h43.20.993,jersey_experiment_5_v3,2023.2.2,Win32,85.47008547,,,,,,,,,,,,,,,,1020.165,1021.4589,1021.459,1022.6388,return,0.1653,,91.14583333,,,,,,FBP-RB-71.png,0.43,1.2,49,0.5,,,,,,,,,,,,,,,,,,0,20,20,48,1,,,,,,,,,,,,,,,,,,,,,,,
,,,,,V3_077,18,female,2024-11-18_17h43.20.993,jersey_experiment_5_v3,2023.2.2,Win32,85.47008547,,,,,,,,,,,,,,,,1022.6389,1024.1829,1024.1829,1025.1091,return,0.2936,,87.23958333,,,,,,FBP-OG-71.png,0.43,1.2,34,0.75,,,,,,,,,,,,,,,,,,0,21,21,33,1,,,,,,,,,,,,,,,,,,,,,,,
,,,,,V3_077,18,female,2024-11-18_17h43.20.993,jersey_experiment_5_v3,2023.2.2,Win32,85.47008547,,,,,,,,,,,,,,,,1025.1092,1026.418,1026.4181,1028.2859,return,0.5034,,42.05729167,,,,,,FBP-RB-91.png,0.35,1.2,56,0.5,,,,,,,,,,,,,,,,,,0,22,22,55,1,,,,,,,,,,,,,,,,,,,,,,,
,,,,,V3_077,18,female,2024-11-18_17h43.20.993,jersey_experiment_5_v3,2023.2.2,Win32,85.47008547,,,,,,,,,,,,,,,,1028.2861,1029.5803,1029.5803,1030.7804,return,0.2469,,60.9375,,,,,,FBP-PT-71.png,0.4,1.2,18,0.5,,,,,,,,,,,,,,,,,,0,23,23,17,1,,,,,,,,,,,,,,,,,,,,,,,
,,,,,V3_077,18,female,2024-11-18_17h43.20.993,jersey_experiment_5_v3,2023.2.2,Win32,85.47008547,,,,,,,,,,,,,,,,1030.7806,1032.0742,1032.0743,1033.3685,return,0.2591,,24.21875,,,,,,FBP-YG-18.png,0.37,1.2,7,0.5,,,,,,,,,,,,,,,,,,0,24,24,6,1,,,,,,,,,,,,,,,,,,,,,,,
,,,,,V3_077,18,female,2024-11-18_17h43.20.993,jersey_experiment_5_v3,2023.2.2,Win32,85.47008547,,,,,,,,,,,,,,,,1033.3686,1034.9108,1034.9108,1036.5807,return,0.2592,,49.73958333,,,,,,FBP-OG-81.png,0.4,1.2,38,0.75,,,,,,,,,,,,,,,,,,0,25,25,37,1,,,,,,,,,,,,,,,,,,,,,,,
,,,,,V3_077,18,female,2024-11-18_17h43.20.993,jersey_experiment_5_v3,2023.2.2,Win32,85.47008547,,,,,,,,,,,,,,,,1036.5809,1037.886,1037.886,1039.0992,return,0.4,,82.68229167,,,,,,FBP-PT-71.png,0.43,1.2,19,0.5,,,,,,,,,,,,,,,,,,0,26,26,18,1,,,,,,,,,,,,,,,,,,,,,,,
,,,,,V3_077,18,female,2024-11-18_17h43.20.993,jersey_experiment_5_v3,2023.2.2,Win32,85.47008547,,,,,,,,,,,,,,,,1039.0994,1040.3926,1040.3926,1042.4277,return,0.056,,90.75520833,,,,,,FBP-YG-17.png,0.4,1.2,3,0.5,,,,,,,,,,,,,,,,,,0,27,27,2,1,,,,,,,,,,,,,,,,,,,,,,,
,,,,,V3_077,18,female,2024-11-18_17h43.20.993,jersey_experiment_5_v3,2023.2.2,Win32,85.47008547,,,,,,,,,,,,,,,,1042.4279,1043.9692,1043.9693,1045.807,return,0.4148,,25.26041667,,,,,,FBP-OG-81.png,0.37,1.2,37,0.75,,,,,,,,,,,,,,,,,,0,28,28,36,1,,,,,,,,,,,,,,,,,,,,,,,
,,,,,V3_077,18,female,2024-11-18_17h43.20.993,jersey_experiment_5_v3,2023.2.2,Win32,85.47008547,,,,,,,,,,,,,,,,1045.8071,1047.3599,1047.3599,1048.7249,return,0.321,,100,,,,,,FBP-OG-81.png,0.45,1.2,40,0.75,,,,,,,,,,,,,,,,,,0,29,29,39,1,,,,,,,,,,,,,,,,,,,,,,,
,,,,,V3_077,18,female,2024-11-18_17h43.20.993,jersey_experiment_5_v3,2023.2.2,Win32,85.47008547,,,,,,,,,,,,,,,,1048.725,1050.0191,1050.0191,1051.307,return,0.1986,,74.73958333,,,,,,FBP-YG-19.png,0.43,1.2,14,0.5,,,,,,,,,,,,,,,,,,0,30,30,13,1,,,,,,,,,,,,,,,,,,,,,,,
,,,,,V3_077,18,female,2024-11-18_17h43.20.993,jersey_experiment_5_v3,2023.2.2,Win32,85.47008547,,,,,,,,,,,,,,,,1051.3072,1052.8516,1052.8517,1053.6836,return,0.2076,,74.73958333,,,,,,FBP-OG-71.png,0.4,1.2,33,0.75,,,,,,,,,,,,,,,,,,0,31,31,32,1,,,,,,,,,,,,,,,,,,,,,,,
,,,,,V3_077,18,female,2024-11-18_17h43.20.993,jersey_experiment_5_v3,2023.2.2,Win32,85.47008547,,,,,,,,,,,,,,,,1053.6838,1055.2283,1055.2283,1056.0899,return,0.1562,,92.96875,,,,,,FBP-OG-91.png,0.43,1.2,44,0.75,,,,,,,,,,,,,,,,,,0,32,32,43,1,,,,,,,,,,,,,,,,,,,,,,,
,,,,,V3_077,18,female,2024-11-18_17h43.20.993,jersey_experiment_5_v3,2023.2.2,Win32,85.47008547,,,,,,,,,,,,,,,,1056.0901,1057.3925,1057.3926,1058.8195,return,0.2505,,37.23958333,,,,,,FBP-YG-18.png,0.35,1.2,6,0.5,,,,,,,,,,,,,,,,,,0,33,33,5,1,,,,,,,,,,,,,,,,,,,,,,,
,,,,,V3_077,18,female,2024-11-18_17h43.20.993,jersey_experiment_5_v3,2023.2.2,Win32,85.47008547,,,,,,,,,,,,,,,,1058.8197,1060.1222,1060.1222,1061.6991,return,0.1292,,99.86979167,,,,,,FBP-YG-18.png,0.45,1.2,10,0.5,,,,,,,,,,,,,,,,,,0,34,34,9,1,,,,,,,,,,,,,,,,,,,,,,,
,,,,,V3_077,18,female,2024-11-18_17h43.20.993,jersey_experiment_5_v3,2023.2.2,Win32,85.47008547,,,,,,,,,,,,,,,,1061.6993,1062.993,1062.993,1065.6421,return,0.2493,,31.640625,,,,,,FBP-PT-81.png,0.35,1.2,21,0.5,,,,,,,,,,,,,,,,,,0,35,35,20,1,,,,,,,,,,,,,,,,,,,,,,,
,,,,,V3_077,18,female,2024-11-18_17h43.20.993,jersey_experiment_5_v3,2023.2.2,Win32,85.47008547,,,,,,,,,,,,,,,,1065.6423,1067.1943,1067.1943,1068.5666,return,0.2994,,23.828125,,,,,,FBP-OG-81.png,0.35,1.2,36,0.75,,,,,,,,,,,,,,,,,,0,36,36,35,1,,,,,,,,,,,,,,,,,,,,,,,
,,,,,V3_077,18,female,2024-11-18_17h43.20.993,jersey_experiment_5_v3,2023.2.2,Win32,85.47008547,,,,,,,,,,,,,,,,1068.5669,1069.8608,1069.8608,1071.5079,return,0.2313,,74.73958333,,,,,,FBP-RB-91.png,0.4,1.2,58,0.5,,,,,,,,,,,,,,,,,,0,37,37,57,1,,,,,,,,,,,,,,,,,,,,,,,
,,,,,V3_077,18,female,2024-11-18_17h43.20.993,jersey_experiment_5_v3,2023.2.2,Win32,85.47008547,,,,,,,,,,,,,,,,1071.5081,1072.802,1072.802,1074.0669,return,0.2142,,32.03125,,,,,,FBP-PT-71.png,0.35,1.2,16,0.5,,,,,,,,,,,,,,,,,,0,38,38,15,1,,,,,,,,,,,,,,,,,,,,,,,
,,,,,V3_077,18,female,2024-11-18_17h43.20.993,jersey_experiment_5_v3,2023.2.2,Win32,85.47008547,,,,,,,,,,,,,,,,1074.0671,1075.3584,1075.3585,1076.8523,return,0.2119,,7.552083333,,,,,,FBP-YG-17.png,0.37,1.2,2,0.5,,,,,,,,,,,,,,,,,,0,39,39,1,1,,,,,,,,,,,,,,,,,,,,,,,
,,,,,V3_077,18,female,2024-11-18_17h43.20.993,jersey_experiment_5_v3,2023.2.2,Win32,85.47008547,,,,,,,,,,,,,,,,1076.8524,1078.1611,1078.1611,1080.4525,return,0.5649,,99.609375,,,,,,FBP-YG-18.png,0.43,1.2,9,0.5,,,,,,,,,,,,,,,,,,0,40,40,8,1,,,,,,,,,,,,,,,,,,,,,,,
,,,,,V3_077,18,female,2024-11-18_17h43.20.993,jersey_experiment_5_v3,2023.2.2,Win32,85.47008547,,,,,,,,,,,,,,,,1080.4526,1081.7613,1081.7613,1085.7555,return,2.8488,,37.36979167,,,,,,FBP-RB-81.png,0.35,1.2,51,0.5,,,,,,,,,,,,,,,,,,0,41,41,50,1,,,,,,,,,,,,,,,,,,,,,,,
,,,,,V3_077,18,female,2024-11-18_17h43.20.993,jersey_experiment_5_v3,2023.2.2,Win32,85.47008547,,,,,,,,,,,,,,,,1085.7557,1087.0558,1087.0559,1088.9228,return,0.2585,,25.13020833,,,,,,FBP-YG-19.png,0.35,1.2,11,0.5,,,,,,,,,,,,,,,,,,0,42,42,10,1,,,,,,,,,,,,,,,,,,,,,,,
,,,,,V3_077,18,female,2024-11-18_17h43.20.993,jersey_experiment_5_v3,2023.2.2,Win32,85.47008547,,,,,,,,,,,,,,,,1088.923,1090.2144,1090.2144,1091.6263,return,0.5907,,25.390625,,,,,,FBP-YG-17.png,0.35,1.2,1,0.5,,,,,,,,,,,,,,,,,,0,43,43,0,1,,,,,,,,,,,,,,,,,,,,,,,
,,,,,V3_077,18,female,2024-11-18_17h43.20.993,jersey_experiment_5_v3,2023.2.2,Win32,85.47008547,,,,,,,,,,,,,,,,1091.6266,1092.9204,1092.9204,1094.6562,return,0.2616,,50,,,,,,FBP-PT-81.png,0.37,1.2,22,0.5,,,,,,,,,,,,,,,,,,0,44,44,21,1,,,,,,,,,,,,,,,,,,,,,,,
,,,,,V3_077,18,female,2024-11-18_17h43.20.993,jersey_experiment_5_v3,2023.2.2,Win32,85.47008547,,,,,,,,,,,,,,,,1094.6563,1095.9476,1095.9477,1098.3719,return,0.3066,,99.47916667,,,,,,FBP-PT-81.png,0.45,1.2,25,0.5,,,,,,,,,,,,,,,,,,0,45,45,24,1,,,,,,,,,,,,,,,,,,,,,,,
,,,,,V3_077,18,female,2024-11-18_17h43.20.993,jersey_experiment_5_v3,2023.2.2,Win32,85.47008547,,,,,,,,,,,,,,,,1098.372,1099.6681,1099.6681,1101.0302,return,0.1885,,23.69791667,,,,,,FBP-RB-71.png,0.37,1.2,47,0.5,,,,,,,,,,,,,,,,,,0,46,46,46,1,,,,,,,,,,,,,,,,,,,,,,,
,,,,,V3_077,18,female,2024-11-18_17h43.20.993,jersey_experiment_5_v3,2023.2.2,Win32,85.47008547,,,,,,,,,,,,,,,,1101.0304,1102.5798,1102.5798,1105.69,return,0.225,,64.58333333,,,,,,FBP-OG-81.png,0.43,1.2,39,0.75,,,,,,,,,,,,,,,,,,0,47,47,38,1,,,,,,,,,,,,,,,,,,,,,,,
,,,,,V3_077,18,female,2024-11-18_17h43.20.993,jersey_experiment_5_v3,2023.2.2,Win32,85.47008547,,,,,,,,,,,,,,,,1105.6902,1106.9861,1106.9861,1108.1799,return,0.1492,,93.61979167,,,,,,FBP-PT-91.png,0.45,1.2,30,0.5,,,,,,,,,,,,,,,,,,0,48,48,29,1,,,,,,,,,,,,,,,,,,,,,,,
,,,,,V3_077,18,female,2024-11-18_17h43.20.993,jersey_experiment_5_v3,2023.2.2,Win32,85.47008547,,,,,,,,,,,,,,,,1108.18,1109.474,1109.474,1111.1951,return,0.4828,,87.109375,,,,,,FBP-PT-71.png,0.45,1.2,20,0.5,,,,,,,,,,,,,,,,,,0,49,49,19,1,,,,,,,,,,,,,,,,,,,,,,,
,,,,,V3_077,18,female,2024-11-18_17h43.20.993,jersey_experiment_5_v3,2023.2.2,Win32,85.47008547,,,,,,,,,,,,,,,,1111.1952,1112.7506,1112.7506,1114.5393,return,0.1564,,24.08854167,,,,,,FBP-OG-71.png,0.35,1.2,31,0.75,,,,,,,,,,,,,,,,,,0,50,50,30,1,,,,,,,,,,,,,,,,,,,,,,,
,,,,,V3_077,18,female,2024-11-18_17h43.20.993,jersey_experiment_5_v3,2023.2.2,Win32,85.47008547,,,,,,,,,,,,,,,,1114.5394,1115.833,1115.833,1117.3717,return,0.5755,,51.04166667,,,,,,FBP-RB-71.png,0.4,1.2,48,0.5,,,,,,,,,,,,,,,,,,0,51,51,47,1,,,,,,,,,,,,,,,,,,,,,,,
,,,,,V3_077,18,female,2024-11-18_17h43.20.993,jersey_experiment_5_v3,2023.2.2,Win32,85.47008547,,,,,,,,,,,,,,,,1117.3718,1118.6777,1118.6778,1120.7255,return,1.0718,,73.30729167,,,,,,FBP-PT-81.png,0.4,1.2,23,0.5,,,,,,,,,,,,,,,,,,0,52,52,22,1,,,,,,,,,,,,,,,,,,,,,,,
,,,,,V3_077,18,female,2024-11-18_17h43.20.993,jersey_experiment_5_v3,2023.2.2,Win32,85.47008547,,,,,,,,,,,,,,,,1120.7256,1122.0219,1122.0219,1127.1754,return,0.2612,,55.98958333,,,,,,FBP-PT-71.png,0.37,1.2,17,0.5,,,,,,,,,,,,,,,,,,0,53,53,16,1,,,,,,,,,,,,,,,,,,,,,,,
,,,,,V3_077,18,female,2024-11-18_17h43.20.993,jersey_experiment_5_v3,2023.2.2,Win32,85.47008547,,,,,,,,,,,,,,,,1127.1756,1128.4779,1128.4779,1130.6898,return,0.5055,,79.6875,,,,,,FBP-YG-18.png,0.4,1.2,8,0.5,,,,,,,,,,,,,,,,,,0,54,54,7,1,,,,,,,,,,,,,,,,,,,,,,,
,,,,,V3_077,18,female,2024-11-18_17h43.20.993,jersey_experiment_5_v3,2023.2.2,Win32,85.47008547,,,,,,,,,,,,,,,,1130.69,1131.9985,1131.9986,1134.7022,return,0.6244,,68.88020833,,,,,,FBP-PT-91.png,0.37,1.2,27,0.5,,,,,,,,,,,,,,,,,,0,55,55,26,1,,,,,,,,,,,,,,,,,,,,,,,
,,,,,V3_077,18,female,2024-11-18_17h43.20.993,jersey_experiment_5_v3,2023.2.2,Win32,85.47008547,,,,,,,,,,,,,,,,1134.7024,1135.9977,1135.9977,1137.1134,return,0.1886,,90.49479167,,,,,,FBP-RB-91.png,0.45,1.2,60,0.5,,,,,,,,,,,,,,,,,,0,56,56,59,1,,,,,,,,,,,,,,,,,,,,,,,
,,,,,V3_077,18,female,2024-11-18_17h43.20.993,jersey_experiment_5_v3,2023.2.2,Win32,85.47008547,,,,,,,,,,,,,,,,1137.1136,1138.4077,1138.4077,1139.6075,return,0.2825,,81.38020833,,,,,,FBP-RB-81.png,0.37,1.2,52,0.5,,,,,,,,,,,,,,,,,,0,57,57,51,1,,,,,,,,,,,,,,,,,,,,,,,
,,,,,V3_077,18,female,2024-11-18_17h43.20.993,jersey_experiment_5_v3,2023.2.2,Win32,85.47008547,,,,,,,,,,,,,,,,1139.6077,1140.9017,1140.9017,1142.1386,return,0.3428,,71.74479167,,,,,,FBP-RB-71.png,0.35,1.2,46,0.5,,,,,,,,,,,,,,,,,,0,58,58,45,1,,,,,,,,,,,,,,,,,,,,,,,
,,,,,V3_077,18,female,2024-11-18_17h43.20.993,jersey_experiment_5_v3,2023.2.2,Win32,85.47008547,,,,,,,,,,,,,,,,1142.1388,1143.687,1143.6871,1145.0355,return,0.2625,,62.36979167,,,,,,FBP-OG-91.png,0.37,1.2,42,0.75,,,,,,,,,,,,,,,,,,0,59,59,41,1,,,,,,,,,,,,,,,,,,,,,,,
,,,,,V3_077,18,female,2024-11-18_17h43.20.993,jersey_experiment_5_v3,2023.2.2,Win32,85.47008547,,,,,,,,,,,,,,,,,,,,,,,,,,,,,,,,,,,,,,,,,,,,,,,,,,,,,,,,1145.0355,1149.7261,return,4.6829,,,,,,,,,,,,,,,,,,,
,,,,,V3_077,18,female,2024-11-18_17h43.20.993,jersey_experiment_5_v3,2023.2.2,Win32,85.47008547,,,,,,,,,,,,,,,,,,,,,,,,,,,,,,,,,,,,,,,,,,,,,,,,,,,,,,,,,,,,,1149.7262,1153.7171,1,2.5535,return,1.4266,,,,,,,,,,,,
,,,,,V3_077,18,female,2024-11-18_17h43.20.993,jersey_experiment_5_v3,2023.2.2,Win32,85.47008547,,,,,,,,,,,,,,,,,,,,,,,,,,,,,,,,,,,,,,,,,,,,,,,,,,,,,,,,,,,,,,,,,,,,1153.7171,1221.1406,visual stimuli is what I understood the study to be about (perception). I did not recognize any patterns while doing this experiment.,right,62.1783,,,,,,
,,,,,V3_077,18,female,2024-11-18_17h43.20.993,jersey_experiment_5_v3,2023.2.2,Win32,85.47008547,,,,,,,,,,,,,,,,,,,,,,,,,,,,,,,,,,,,,,,,,,,,,,,,,,,,,,,,,,,,,,,,,,,,,,,,,,1221.1406,1223.7993,return,2.644,