requirements.started,requirements.stopped,key_resp_3.keys,key_resp_3.rt,key_resp_3.duration,Subject ID,Age,Gender,date,expName,psychopyVersion,OS,frameRate,instructions1.started,instructions1.stopped,key_resp.keys,key_resp.rt,key_resp.duration,example.started,example.stopped,enter_2.keys,enter_2.rt,enter_2.duration,instructions2.started,instructions2.stopped,enter_3.keys,enter_3.rt,enter_3.duration,image.started,image.stopped,slider_2.started,slider_2.stopped,next.keys,next.rt,next.duration,slider.response,trial_block_1.thisRepN,trial_block_1.thisTrialN,trial_block_1.thisN,trial_block_1.thisIndex,trial_block_1.ran,Path,Width,Height,Index,Duration,trial_block_2.thisRepN,trial_block_2.thisTrialN,trial_block_2.thisN,trial_block_2.thisIndex,trial_block_2.ran,rest_break.started,rest_break.stopped,end_break.started,end_break.stopped,key_resp_5.keys,key_resp_5.rt,key_resp_5.duration,trial_block_3.thisRepN,trial_block_3.thisTrialN,trial_block_3.thisN,trial_block_3.thisIndex,trial_block_3.ran,trial_block_4.thisRepN,trial_block_4.thisTrialN,trial_block_4.thisN,trial_block_4.thisIndex,trial_block_4.ran,questions_intro.started,questions_intro.stopped,enter_12.keys,enter_12.rt,enter_12.duration,question2.started,question2.stopped,question_doingbest.response,question_doingbest.rt,enter_15.keys,enter_15.rt,enter_15.duration,pattern.started,pattern.stopped,pattern_2.text,enter_17.keys,enter_17.rt,enter_17.duration,thankyou.started,thankyou.stopped,enter_14.keys,enter_14.rt,enter_14.duration
0.0004,24.9267,return,24.9152,,V3_004,18,MALE,2024-10-13_15h46.10.110,jersey_experiment_5_v3,2023.2.2,Win32,60.24096386,,,,,,,,,,,,,,,,,,,,,,,,,,,,,,,,,,,,,,,,,,,,,,,,,,,,,,,,,,,,,,,,,,,,,,,,,,,,,,
,,,,,V3_004,18,MALE,2024-10-13_15h46.10.110,jersey_experiment_5_v3,2023.2.2,Win32,60.24096386,24.927,35.1425,return,10.197,,,,,,,,,,,,,,,,,,,,,,,,,,,,,,,,,,,,,,,,,,,,,,,,,,,,,,,,,,,,,,,,,,,,,,,,,,
,,,,,V3_004,18,MALE,2024-10-13_15h46.10.110,jersey_experiment_5_v3,2023.2.2,Win32,60.24096386,,,,,,35.1426,40.8929,return,5.6922,,,,,,,,,,,,,,,,,,,,,,,,,,,,,,,,,,,,,,,,,,,,,,,,,,,,,,,,,,,,,,,,,,,,,
,,,,,V3_004,18,MALE,2024-10-13_15h46.10.110,jersey_experiment_5_v3,2023.2.2,Win32,60.24096386,,,,,,,,,,,40.893,68.043,return,27.1321,,,,,,,,,,,,,,,,,,,,,,,,,,,,,,,,,,,,,,,,,,,,,,,,,,,,,,,,,,,,,,,,
,,,,,V3_004,18,MALE,2024-10-13_15h46.10.110,jersey_experiment_5_v3,2023.2.2,Win32,60.24096386,,,,,,,,,,,,,,,,68.0579,69.609,69.6092,91.3929,return,9.1242,,75.27777778,0,0,0,24,1,FBP-PT-18.png,0.45,1.2,25,0.75,,,,,,,,,,,,,,,,,,,,,,,,,,,,,,,,,,,,,,,,,,,,,
,,,,,V3_004,18,MALE,2024-10-13_15h46.10.110,jersey_experiment_5_v3,2023.2.2,Win32,60.24096386,,,,,,,,,,,,,,,,91.4033,92.943,92.9432,103.8593,return,1.2563,,88.33333333,0,1,1,19,1,FBP-PT-17.png,0.45,1.2,20,0.75,,,,,,,,,,,,,,,,,,,,,,,,,,,,,,,,,,,,,,,,,,,,,
,,,,,V3_004,18,MALE,2024-10-13_15h46.10.110,jersey_experiment_5_v3,2023.2.2,Win32,60.24096386,,,,,,,,,,,,,,,,103.8597,105.4096,105.4097,113.3429,return,4.0425,,0,0,2,2,5,1,FBP-YG-81.png,0.35,1.2,6,0.75,,,,,,,,,,,,,,,,,,,,,,,,,,,,,,,,,,,,,,,,,,,,,
,,,,,V3_004,18,MALE,2024-10-13_15h46.10.110,jersey_experiment_5_v3,2023.2.2,Win32,60.24096386,,,,,,,,,,,,,,,,113.3434,114.8926,114.8927,120.4597,return,1.9667,,86.73611111,0,3,3,27,1,FBP-PT-19.png,0.4,1.2,28,0.75,,,,,,,,,,,,,,,,,,,,,,,,,,,,,,,,,,,,,,,,,,,,,
,,,,,V3_004,18,MALE,2024-10-13_15h46.10.110,jersey_experiment_5_v3,2023.2.2,Win32,60.24096386,,,,,,,,,,,,,,,,120.46,122.0096,122.0097,126.1428,return,2.2408,,74.72222222,0,4,4,16,1,FBP-PT-17.png,0.37,1.2,17,0.75,,,,,,,,,,,,,,,,,,,,,,,,,,,,,,,,,,,,,,,,,,,,,
,,,,,V3_004,18,MALE,2024-10-13_15h46.10.110,jersey_experiment_5_v3,2023.2.2,Win32,60.24096386,,,,,,,,,,,,,,,,126.1431,127.6928,127.6929,130.0598,return,0.8453,,99.79166667,0,5,5,18,1,FBP-PT-17.png,0.43,1.2,19,0.75,,,,,,,,,,,,,,,,,,,,,,,,,,,,,,,,,,,,,,,,,,,,,
,,,,,V3_004,18,MALE,2024-10-13_15h46.10.110,jersey_experiment_5_v3,2023.2.2,Win32,60.24096386,,,,,,,,,,,,,,,,130.0602,131.3598,131.3598,134.1933,return,0.8905,,75.06944444,0,6,6,36,1,FBP-OG-18.png,0.37,1.2,37,0.5,,,,,,,,,,,,,,,,,,,,,,,,,,,,,,,,,,,,,,,,,,,,,
,,,,,V3_004,18,MALE,2024-10-13_15h46.10.110,jersey_experiment_5_v3,2023.2.2,Win32,60.24096386,,,,,,,,,,,,,,,,134.1936,135.743,135.7432,138.8931,return,1.2437,,74.65277778,0,7,7,1,1,FBP-YG-71.png,0.37,1.2,2,0.75,,,,,,,,,,,,,,,,,,,,,,,,,,,,,,,,,,,,,,,,,,,,,
,,,,,V3_004,18,MALE,2024-10-13_15h46.10.110,jersey_experiment_5_v3,2023.2.2,Win32,60.24096386,,,,,,,,,,,,,,,,138.8936,140.4429,140.443,146.66,return,3.4701,,87.63888889,0,8,8,56,1,FBP-RB-19.png,0.37,1.2,57,0.75,,,,,,,,,,,,,,,,,,,,,,,,,,,,,,,,,,,,,,,,,,,,,
,,,,,V3_004,18,MALE,2024-10-13_15h46.10.110,jersey_experiment_5_v3,2023.2.2,Win32,60.24096386,,,,,,,,,,,,,,,,146.6694,148.2098,148.2099,154.9764,return,3.2906,,74.79166667,0,9,9,2,1,FBP-YG-71.png,0.4,1.2,3,0.75,,,,,,,,,,,,,,,,,,,,,,,,,,,,,,,,,,,,,,,,,,,,,
,,,,,V3_004,18,MALE,2024-10-13_15h46.10.110,jersey_experiment_5_v3,2023.2.2,Win32,60.24096386,,,,,,,,,,,,,,,,154.9916,156.5431,156.5432,161.8432,return,1.9705,,74.65277778,0,10,10,6,1,FBP-YG-81.png,0.37,1.2,7,0.75,,,,,,,,,,,,,,,,,,,,,,,,,,,,,,,,,,,,,,,,,,,,,
,,,,,V3_004,18,MALE,2024-10-13_15h46.10.110,jersey_experiment_5_v3,2023.2.2,Win32,60.24096386,,,,,,,,,,,,,,,,161.8435,163.3928,163.393,165.8098,return,0.7555,,99.93055556,0,11,11,58,1,FBP-RB-19.png,0.43,1.2,59,0.75,,,,,,,,,,,,,,,,,,,,,,,,,,,,,,,,,,,,,,,,,,,,,
,,,,,V3_004,18,MALE,2024-10-13_15h46.10.110,jersey_experiment_5_v3,2023.2.2,Win32,60.24096386,,,,,,,,,,,,,,,,165.8101,167.3598,167.3599,170.3103,return,1.6183,,99.93055556,0,12,12,9,1,FBP-YG-81.png,0.45,1.2,10,0.75,,,,,,,,,,,,,,,,,,,,,,,,,,,,,,,,,,,,,,,,,,,,,
,,,,,V3_004,18,MALE,2024-10-13_15h46.10.110,jersey_experiment_5_v3,2023.2.2,Win32,60.24096386,,,,,,,,,,,,,,,,170.3107,171.6098,171.6099,194.5099,return,2.7559,,0.138888889,0,13,13,40,1,FBP-OG-19.png,0.35,1.2,41,0.5,,,,,,,,,,,,,,,,,,,,,,,,,,,,,,,,,,,,,,,,,,,,,
,,,,,V3_004,18,MALE,2024-10-13_15h46.10.110,jersey_experiment_5_v3,2023.2.2,Win32,60.24096386,,,,,,,,,,,,,,,,194.5102,196.06,196.0601,199.1099,return,0.7184,,0.069444444,0,14,14,20,1,FBP-PT-18.png,0.35,1.2,21,0.75,,,,,,,,,,,,,,,,,,,,,,,,,,,,,,,,,,,,,,,,,,,,,
,,,,,V3_004,18,MALE,2024-10-13_15h46.10.110,jersey_experiment_5_v3,2023.2.2,Win32,60.24096386,,,,,,,,,,,,,,,,199.1104,200.4098,200.4099,204.4102,return,1.8819,,99.79166667,0,15,15,39,1,FBP-OG-18.png,0.45,1.2,40,0.5,,,,,,,,,,,,,,,,,,,,,,,,,,,,,,,,,,,,,,,,,,,,,
,,,,,V3_004,18,MALE,2024-10-13_15h46.10.110,jersey_experiment_5_v3,2023.2.2,Win32,60.24096386,,,,,,,,,,,,,,,,204.4106,205.96,205.9601,208.7768,return,0.7831,,25,0,16,16,11,1,FBP-YG-91.png,0.37,1.2,12,0.75,,,,,,,,,,,,,,,,,,,,,,,,,,,,,,,,,,,,,,,,,,,,,
,,,,,V3_004,18,MALE,2024-10-13_15h46.10.110,jersey_experiment_5_v3,2023.2.2,Win32,60.24096386,,,,,,,,,,,,,,,,208.7771,210.3268,210.3269,215.0267,return,2.6879,,99.72222222,0,17,17,3,1,FBP-YG-71.png,0.43,1.2,4,0.75,,,,,,,,,,,,,,,,,,,,,,,,,,,,,,,,,,,,,,,,,,,,,
,,,,,V3_004,18,MALE,2024-10-13_15h46.10.110,jersey_experiment_5_v3,2023.2.2,Win32,60.24096386,,,,,,,,,,,,,,,,215.0271,216.3266,216.3268,218.3768,return,0.6832,,99.58333333,0,18,18,34,1,FBP-OG-17.png,0.45,1.2,35,0.5,,,,,,,,,,,,,,,,,,,,,,,,,,,,,,,,,,,,,,,,,,,,,
,,,,,V3_004,18,MALE,2024-10-13_15h46.10.110,jersey_experiment_5_v3,2023.2.2,Win32,60.24096386,,,,,,,,,,,,,,,,218.3772,219.9269,219.927,221.2438,return,0.6277,,99.58333333,0,19,19,59,1,FBP-RB-19.png,0.45,1.2,60,0.75,,,,,,,,,,,,,,,,,,,,,,,,,,,,,,,,,,,,,,,,,,,,,
,,,,,V3_004,18,MALE,2024-10-13_15h46.10.110,jersey_experiment_5_v3,2023.2.2,Win32,60.24096386,,,,,,,,,,,,,,,,221.2442,222.7937,222.7938,223.9435,return,0.6505,,99.58333333,0,20,20,23,1,FBP-PT-18.png,0.43,1.2,24,0.75,,,,,,,,,,,,,,,,,,,,,,,,,,,,,,,,,,,,,,,,,,,,,
,,,,,V3_004,18,MALE,2024-10-13_15h46.10.110,jersey_experiment_5_v3,2023.2.2,Win32,60.24096386,,,,,,,,,,,,,,,,223.9438,225.2433,225.2433,228.6271,return,1.8049,,74.72222222,0,21,21,32,1,FBP-OG-17.png,0.4,1.2,33,0.5,,,,,,,,,,,,,,,,,,,,,,,,,,,,,,,,,,,,,,,,,,,,,
,,,,,V3_004,18,MALE,2024-10-13_15h46.10.110,jersey_experiment_5_v3,2023.2.2,Win32,60.24096386,,,,,,,,,,,,,,,,228.6277,230.1771,230.1773,238.7769,return,2.7484,,0,0,22,22,0,1,FBP-YG-71.png,0.35,1.2,1,0.75,,,,,,,,,,,,,,,,,,,,,,,,,,,,,,,,,,,,,,,,,,,,,
,,,,,V3_004,18,MALE,2024-10-13_15h46.10.110,jersey_experiment_5_v3,2023.2.2,Win32,60.24096386,,,,,,,,,,,,,,,,238.7773,240.077,240.077,246.8435,return,1.3616,,0,0,23,23,30,1,FBP-OG-17.png,0.35,1.2,31,0.5,,,,,,,,,,,,,,,,,,,,,,,,,,,,,,,,,,,,,,,,,,,,,
,,,,,V3_004,18,MALE,2024-10-13_15h46.10.110,jersey_experiment_5_v3,2023.2.2,Win32,60.24096386,,,,,,,,,,,,,,,,246.8438,248.1438,248.1439,252.2106,return,1.4253,,24.93055556,0,24,24,41,1,FBP-OG-19.png,0.37,1.2,42,0.5,,,,,,,,,,,,,,,,,,,,,,,,,,,,,,,,,,,,,,,,,,,,,
,,,,,V3_004,18,MALE,2024-10-13_15h46.10.110,jersey_experiment_5_v3,2023.2.2,Win32,60.24096386,,,,,,,,,,,,,,,,252.2111,253.7608,253.7609,257.5943,return,1.6351,,100,0,25,25,48,1,FBP-RB-17.png,0.43,1.2,49,0.75,,,,,,,,,,,,,,,,,,,,,,,,,,,,,,,,,,,,,,,,,,,,,
,,,,,V3_004,18,MALE,2024-10-13_15h46.10.110,jersey_experiment_5_v3,2023.2.2,Win32,60.24096386,,,,,,,,,,,,,,,,257.5946,259.1443,259.1444,262.9438,return,2.2898,,100,0,26,26,54,1,FBP-RB-18.png,0.45,1.2,55,0.75,,,,,,,,,,,,,,,,,,,,,,,,,,,,,,,,,,,,,,,,,,,,,
,,,,,V3_004,18,MALE,2024-10-13_15h46.10.110,jersey_experiment_5_v3,2023.2.2,Win32,60.24096386,,,,,,,,,,,,,,,,262.9443,264.244,264.2441,267.0771,return,1.2691,,74.86111111,0,27,27,31,1,FBP-OG-17.png,0.37,1.2,32,0.5,,,,,,,,,,,,,,,,,,,,,,,,,,,,,,,,,,,,,,,,,,,,,
,,,,,V3_004,18,MALE,2024-10-13_15h46.10.110,jersey_experiment_5_v3,2023.2.2,Win32,60.24096386,,,,,,,,,,,,,,,,267.0777,268.627,268.627,271.4438,return,0.7355,,24.93055556,0,28,28,45,1,FBP-RB-17.png,0.35,1.2,46,0.75,,,,,,,,,,,,,,,,,,,,,,,,,,,,,,,,,,,,,,,,,,,,,
,,,,,V3_004,18,MALE,2024-10-13_15h46.10.110,jersey_experiment_5_v3,2023.2.2,Win32,60.24096386,,,,,,,,,,,,,,,,271.4442,272.994,272.994,285.4776,return,2.351,,0,0,29,29,25,1,FBP-PT-19.png,0.35,1.2,26,0.75,,,,,,,,,,,,,,,,,,,,,,,,,,,,,,,,,,,,,,,,,,,,,
,,,,,V3_004,18,MALE,2024-10-13_15h46.10.110,jersey_experiment_5_v3,2023.2.2,Win32,60.24096386,,,,,,,,,,,,,,,,285.478,287.0276,287.0278,290.9437,return,1.4903,,99.93055556,0,30,30,22,1,FBP-PT-18.png,0.4,1.2,23,0.75,,,,,,,,,,,,,,,,,,,,,,,,,,,,,,,,,,,,,,,,,,,,,
,,,,,V3_004,18,MALE,2024-10-13_15h46.10.110,jersey_experiment_5_v3,2023.2.2,Win32,60.24096386,,,,,,,,,,,,,,,,290.9442,292.494,292.494,296.0105,return,1.5329,,99.93055556,0,31,31,8,1,FBP-YG-81.png,0.43,1.2,9,0.75,,,,,,,,,,,,,,,,,,,,,,,,,,,,,,,,,,,,,,,,,,,,,
,,,,,V3_004,18,MALE,2024-10-13_15h46.10.110,jersey_experiment_5_v3,2023.2.2,Win32,60.24096386,,,,,,,,,,,,,,,,296.0108,297.3109,297.311,322.9608,return,2.7904,,0.069444444,0,32,32,35,1,FBP-OG-18.png,0.35,1.2,36,0.5,,,,,,,,,,,,,,,,,,,,,,,,,,,,,,,,,,,,,,,,,,,,,
,,,,,V3_004,18,MALE,2024-10-13_15h46.10.110,jersey_experiment_5_v3,2023.2.2,Win32,60.24096386,,,,,,,,,,,,,,,,322.9612,324.2609,324.2611,326.7943,return,0.3505,,99.58333333,0,33,33,43,1,FBP-OG-19.png,0.43,1.2,44,0.5,,,,,,,,,,,,,,,,,,,,,,,,,,,,,,,,,,,,,,,,,,,,,
,,,,,V3_004,18,MALE,2024-10-13_15h46.10.110,jersey_experiment_5_v3,2023.2.2,Win32,60.24096386,,,,,,,,,,,,,,,,326.7947,328.3446,328.3447,330.5941,return,0.8383,,25,0,34,34,10,1,FBP-YG-91.png,0.35,1.2,11,0.75,,,,,,,,,,,,,,,,,,,,,,,,,,,,,,,,,,,,,,,,,,,,,
,,,,,V3_004,18,MALE,2024-10-13_15h46.10.110,jersey_experiment_5_v3,2023.2.2,Win32,60.24096386,,,,,,,,,,,,,,,,330.5948,331.8945,331.8946,335.0279,return,0.4875,,75,0,35,35,42,1,FBP-OG-19.png,0.4,1.2,43,0.5,,,,,,,,,,,,,,,,,,,,,,,,,,,,,,,,,,,,,,,,,,,,,
,,,,,V3_004,18,MALE,2024-10-13_15h46.10.110,jersey_experiment_5_v3,2023.2.2,Win32,60.24096386,,,,,,,,,,,,,,,,335.0286,336.5778,336.5779,338.7283,return,0.3345,,24.58333333,0,36,36,21,1,FBP-PT-18.png,0.37,1.2,22,0.75,,,,,,,,,,,,,,,,,,,,,,,,,,,,,,,,,,,,,,,,,,,,,
,,,,,V3_004,18,MALE,2024-10-13_15h46.10.110,jersey_experiment_5_v3,2023.2.2,Win32,60.24096386,,,,,,,,,,,,,,,,338.7288,340.2778,340.2779,342.2107,return,0.3726,,24.93055556,0,37,37,51,1,FBP-RB-18.png,0.37,1.2,52,0.75,,,,,,,,,,,,,,,,,,,,,,,,,,,,,,,,,,,,,,,,,,,,,
,,,,,V3_004,18,MALE,2024-10-13_15h46.10.110,jersey_experiment_5_v3,2023.2.2,Win32,60.24096386,,,,,,,,,,,,,,,,342.2112,343.7608,343.7608,346.6282,return,0.2697,,25.06944444,0,38,38,50,1,FBP-RB-18.png,0.35,1.2,51,0.75,,,,,,,,,,,,,,,,,,,,,,,,,,,,,,,,,,,,,,,,,,,,,
,,,,,V3_004,18,MALE,2024-10-13_15h46.10.110,jersey_experiment_5_v3,2023.2.2,Win32,60.24096386,,,,,,,,,,,,,,,,346.6287,348.1776,348.1778,349.6443,return,0.5097,,74.79166667,0,39,39,46,1,FBP-RB-17.png,0.37,1.2,47,0.75,,,,,,,,,,,,,,,,,,,,,,,,,,,,,,,,,,,,,,,,,,,,,
,,,,,V3_004,18,MALE,2024-10-13_15h46.10.110,jersey_experiment_5_v3,2023.2.2,Win32,60.24096386,,,,,,,,,,,,,,,,349.6448,351.1947,351.1948,352.9111,return,0.3414,,99.79166667,0,40,40,29,1,FBP-PT-19.png,0.45,1.2,30,0.75,,,,,,,,,,,,,,,,,,,,,,,,,,,,,,,,,,,,,,,,,,,,,
,,,,,V3_004,18,MALE,2024-10-13_15h46.10.110,jersey_experiment_5_v3,2023.2.2,Win32,60.24096386,,,,,,,,,,,,,,,,352.9115,354.4612,354.4612,356.4108,return,0.8783,,24.72222222,0,41,41,26,1,FBP-PT-19.png,0.37,1.2,27,0.75,,,,,,,,,,,,,,,,,,,,,,,,,,,,,,,,,,,,,,,,,,,,,
,,,,,V3_004,18,MALE,2024-10-13_15h46.10.110,jersey_experiment_5_v3,2023.2.2,Win32,60.24096386,,,,,,,,,,,,,,,,356.4112,357.9612,357.9613,361.0615,return,0.7047,,99.79166667,0,42,42,28,1,FBP-PT-19.png,0.43,1.2,29,0.75,,,,,,,,,,,,,,,,,,,,,,,,,,,,,,,,,,,,,,,,,,,,,
,,,,,V3_004,18,MALE,2024-10-13_15h46.10.110,jersey_experiment_5_v3,2023.2.2,Win32,60.24096386,,,,,,,,,,,,,,,,361.0619,362.6114,362.6115,364.1278,return,0.3412,,24.72222222,0,43,43,15,1,FBP-PT-17.png,0.35,1.2,16,0.75,,,,,,,,,,,,,,,,,,,,,,,,,,,,,,,,,,,,,,,,,,,,,
,,,,,V3_004,18,MALE,2024-10-13_15h46.10.110,jersey_experiment_5_v3,2023.2.2,Win32,60.24096386,,,,,,,,,,,,,,,,364.128,365.4282,365.4284,366.9451,return,0.407,,99.86111111,0,44,44,44,1,FBP-OG-19.png,0.45,1.2,45,0.5,,,,,,,,,,,,,,,,,,,,,,,,,,,,,,,,,,,,,,,,,,,,,
,,,,,V3_004,18,MALE,2024-10-13_15h46.10.110,jersey_experiment_5_v3,2023.2.2,Win32,60.24096386,,,,,,,,,,,,,,,,366.9456,368.4945,368.4945,370.3449,return,0.2502,,99.93055556,0,45,45,53,1,FBP-RB-18.png,0.43,1.2,54,0.75,,,,,,,,,,,,,,,,,,,,,,,,,,,,,,,,,,,,,,,,,,,,,
,,,,,V3_004,18,MALE,2024-10-13_15h46.10.110,jersey_experiment_5_v3,2023.2.2,Win32,60.24096386,,,,,,,,,,,,,,,,370.3456,371.8944,371.8944,373.1613,return,0.2189,,99.86111111,0,46,46,12,1,FBP-YG-91.png,0.4,1.2,13,0.75,,,,,,,,,,,,,,,,,,,,,,,,,,,,,,,,,,,,,,,,,,,,,
,,,,,V3_004,18,MALE,2024-10-13_15h46.10.110,jersey_experiment_5_v3,2023.2.2,Win32,60.24096386,,,,,,,,,,,,,,,,373.1617,374.7114,374.7115,376.4108,return,0.2134,,99.72222222,0,47,47,14,1,FBP-YG-91.png,0.45,1.2,15,0.75,,,,,,,,,,,,,,,,,,,,,,,,,,,,,,,,,,,,,,,,,,,,,
,,,,,V3_004,18,MALE,2024-10-13_15h46.10.110,jersey_experiment_5_v3,2023.2.2,Win32,60.24096386,,,,,,,,,,,,,,,,376.4111,377.9616,377.9617,379.6613,return,0.2604,,99.79166667,0,48,48,52,1,FBP-RB-18.png,0.4,1.2,53,0.75,,,,,,,,,,,,,,,,,,,,,,,,,,,,,,,,,,,,,,,,,,,,,
,,,,,V3_004,18,MALE,2024-10-13_15h46.10.110,jersey_experiment_5_v3,2023.2.2,Win32,60.24096386,,,,,,,,,,,,,,,,379.6617,381.2114,381.2116,381.8615,return,0.2187,,99.79166667,0,49,49,4,1,FBP-YG-71.png,0.45,1.2,5,0.75,,,,,,,,,,,,,,,,,,,,,,,,,,,,,,,,,,,,,,,,,,,,,
,,,,,V3_004,18,MALE,2024-10-13_15h46.10.110,jersey_experiment_5_v3,2023.2.2,Win32,60.24096386,,,,,,,,,,,,,,,,381.8618,383.1612,383.1613,383.5947,return,0.044,,99.79166667,0,50,50,38,1,FBP-OG-18.png,0.43,1.2,39,0.5,,,,,,,,,,,,,,,,,,,,,,,,,,,,,,,,,,,,,,,,,,,,,
,,,,,V3_004,18,MALE,2024-10-13_15h46.10.110,jersey_experiment_5_v3,2023.2.2,Win32,60.24096386,,,,,,,,,,,,,,,,383.5951,385.1449,385.145,385.578,return,0.0488,,99.79166667,0,51,51,13,1,FBP-YG-91.png,0.43,1.2,14,0.75,,,,,,,,,,,,,,,,,,,,,,,,,,,,,,,,,,,,,,,,,,,,,
,,,,,V3_004,18,MALE,2024-10-13_15h46.10.110,jersey_experiment_5_v3,2023.2.2,Win32,60.24096386,,,,,,,,,,,,,,,,385.5785,387.1279,387.1279,387.6611,return,0.1264,,99.79166667,0,52,52,57,1,FBP-RB-19.png,0.4,1.2,58,0.75,,,,,,,,,,,,,,,,,,,,,,,,,,,,,,,,,,,,,,,,,,,,,
,,,,,V3_004,18,MALE,2024-10-13_15h46.10.110,jersey_experiment_5_v3,2023.2.2,Win32,60.24096386,,,,,,,,,,,,,,,,387.6615,388.9612,388.9612,389.4443,return,0.0706,,99.79166667,0,53,53,33,1,FBP-OG-17.png,0.43,1.2,34,0.5,,,,,,,,,,,,,,,,,,,,,,,,,,,,,,,,,,,,,,,,,,,,,
,,,,,V3_004,18,MALE,2024-10-13_15h46.10.110,jersey_experiment_5_v3,2023.2.2,Win32,60.24096386,,,,,,,,,,,,,,,,389.4445,390.9945,390.9945,391.4116,return,0.0374,,99.79166667,0,54,54,49,1,FBP-RB-17.png,0.45,1.2,50,0.75,,,,,,,,,,,,,,,,,,,,,,,,,,,,,,,,,,,,,,,,,,,,,
,,,,,V3_004,18,MALE,2024-10-13_15h46.10.110,jersey_experiment_5_v3,2023.2.2,Win32,60.24096386,,,,,,,,,,,,,,,,391.4121,392.9613,392.9613,399.6281,return,3.0441,,0,0,55,55,55,1,FBP-RB-19.png,0.35,1.2,56,0.75,,,,,,,,,,,,,,,,,,,,,,,,,,,,,,,,,,,,,,,,,,,,,
,,,,,V3_004,18,MALE,2024-10-13_15h46.10.110,jersey_experiment_5_v3,2023.2.2,Win32,60.24096386,,,,,,,,,,,,,,,,399.6286,401.1781,401.1782,403.8616,return,0.2202,,25.13888889,0,56,56,17,1,FBP-PT-17.png,0.4,1.2,18,0.75,,,,,,,,,,,,,,,,,,,,,,,,,,,,,,,,,,,,,,,,,,,,,
,,,,,V3_004,18,MALE,2024-10-13_15h46.10.110,jersey_experiment_5_v3,2023.2.2,Win32,60.24096386,,,,,,,,,,,,,,,,403.8618,405.4113,405.4114,408.1779,return,1.1207,,100,0,57,57,7,1,FBP-YG-81.png,0.4,1.2,8,0.75,,,,,,,,,,,,,,,,,,,,,,,,,,,,,,,,,,,,,,,,,,,,,
,,,,,V3_004,18,MALE,2024-10-13_15h46.10.110,jersey_experiment_5_v3,2023.2.2,Win32,60.24096386,,,,,,,,,,,,,,,,408.1781,409.7281,409.7281,412.7944,return,0.4445,,75.06944444,0,58,58,47,1,FBP-RB-17.png,0.4,1.2,48,0.75,,,,,,,,,,,,,,,,,,,,,,,,,,,,,,,,,,,,,,,,,,,,,
,,,,,V3_004,18,MALE,2024-10-13_15h46.10.110,jersey_experiment_5_v3,2023.2.2,Win32,60.24096386,,,,,,,,,,,,,,,,412.7947,414.0949,414.0949,415.6614,return,0.1764,,75.13888889,0,59,59,37,1,FBP-OG-18.png,0.4,1.2,38,0.5,,,,,,,,,,,,,,,,,,,,,,,,,,,,,,,,,,,,,,,,,,,,,
,,,,,V3_004,18,MALE,2024-10-13_15h46.10.110,jersey_experiment_5_v3,2023.2.2,Win32,60.24096386,,,,,,,,,,,,,,,,415.6658,417.2114,417.2116,418.629,return,0.1389,,74.79166667,,,,,,FBP-YG-18.png,0.4,1.2,8,0.75,0,0,0,7,1,,,,,,,,,,,,,,,,,,,,,,,,,,,,,,,,,,,,,,,,
,,,,,V3_004,18,MALE,2024-10-13_15h46.10.110,jersey_experiment_5_v3,2023.2.2,Win32,60.24096386,,,,,,,,,,,,,,,,418.6294,420.1781,420.1781,421.2947,return,0.2739,,99.65277778,,,,,,FBP-PT-91.png,0.45,1.2,30,0.75,0,1,1,29,1,,,,,,,,,,,,,,,,,,,,,,,,,,,,,,,,,,,,,,,,
,,,,,V3_004,18,MALE,2024-10-13_15h46.10.110,jersey_experiment_5_v3,2023.2.2,Win32,60.24096386,,,,,,,,,,,,,,,,421.2951,422.845,422.8451,425.2614,return,0.2763,,25,,,,,,FBP-RB-71.png,0.35,1.2,46,0.75,0,2,2,45,1,,,,,,,,,,,,,,,,,,,,,,,,,,,,,,,,,,,,,,,,
,,,,,V3_004,18,MALE,2024-10-13_15h46.10.110,jersey_experiment_5_v3,2023.2.2,Win32,60.24096386,,,,,,,,,,,,,,,,425.2616,426.8122,426.8122,428.8116,return,0.5114,,99.93055556,,,,,,FBP-PT-71.png,0.4,1.2,18,0.75,0,3,3,17,1,,,,,,,,,,,,,,,,,,,,,,,,,,,,,,,,,,,,,,,,
,,,,,V3_004,18,MALE,2024-10-13_15h46.10.110,jersey_experiment_5_v3,2023.2.2,Win32,60.24096386,,,,,,,,,,,,,,,,428.812,430.3618,430.3618,432.2449,return,0.1519,,99.72222222,,,,,,FBP-PT-71.png,0.45,1.2,20,0.75,0,4,4,19,1,,,,,,,,,,,,,,,,,,,,,,,,,,,,,,,,,,,,,,,,
,,,,,V3_004,18,MALE,2024-10-13_15h46.10.110,jersey_experiment_5_v3,2023.2.2,Win32,60.24096386,,,,,,,,,,,,,,,,432.2453,433.7948,433.7948,435.595,return,0.4515,,99.79166667,,,,,,FBP-PT-81.png,0.45,1.2,25,0.75,0,5,5,24,1,,,,,,,,,,,,,,,,,,,,,,,,,,,,,,,,,,,,,,,,
,,,,,V3_004,18,MALE,2024-10-13_15h46.10.110,jersey_experiment_5_v3,2023.2.2,Win32,60.24096386,,,,,,,,,,,,,,,,435.5955,437.1455,437.1456,437.9115,return,0.1337,,99.65277778,,,,,,FBP-PT-81.png,0.4,1.2,23,0.75,0,6,6,22,1,,,,,,,,,,,,,,,,,,,,,,,,,,,,,,,,,,,,,,,,
,,,,,V3_004,18,MALE,2024-10-13_15h46.10.110,jersey_experiment_5_v3,2023.2.2,Win32,60.24096386,,,,,,,,,,,,,,,,437.912,439.4621,439.4622,441.162,return,0.2529,,25,,,,,,FBP-YG-19.png,0.35,1.2,11,0.75,0,7,7,10,1,,,,,,,,,,,,,,,,,,,,,,,,,,,,,,,,,,,,,,,,
,,,,,V3_004,18,MALE,2024-10-13_15h46.10.110,jersey_experiment_5_v3,2023.2.2,Win32,60.24096386,,,,,,,,,,,,,,,,441.1624,442.7116,442.7117,445.6449,return,1.3122,,99.93055556,,,,,,FBP-RB-71.png,0.4,1.2,48,0.75,0,8,8,47,1,,,,,,,,,,,,,,,,,,,,,,,,,,,,,,,,,,,,,,,,
,,,,,V3_004,18,MALE,2024-10-13_15h46.10.110,jersey_experiment_5_v3,2023.2.2,Win32,60.24096386,,,,,,,,,,,,,,,,445.6455,447.1952,447.1953,448.8784,return,0.3085,,99.79166667,,,,,,FBP-YG-18.png,0.43,1.2,9,0.75,0,9,9,8,1,,,,,,,,,,,,,,,,,,,,,,,,,,,,,,,,,,,,,,,,
,,,,,V3_004,18,MALE,2024-10-13_15h46.10.110,jersey_experiment_5_v3,2023.2.2,Win32,60.24096386,,,,,,,,,,,,,,,,448.8789,450.4286,450.4286,451.8618,return,0.2691,,74.72222222,,,,,,FBP-YG-17.png,0.37,1.2,2,0.75,0,10,10,1,1,,,,,,,,,,,,,,,,,,,,,,,,,,,,,,,,,,,,,,,,
,,,,,V3_004,18,MALE,2024-10-13_15h46.10.110,jersey_experiment_5_v3,2023.2.2,Win32,60.24096386,,,,,,,,,,,,,,,,451.8621,453.4116,453.4117,455.1455,return,1.3679,,24.58333333,,,,,,FBP-YG-18.png,0.35,1.2,6,0.75,0,11,11,5,1,,,,,,,,,,,,,,,,,,,,,,,,,,,,,,,,,,,,,,,,
,,,,,V3_004,18,MALE,2024-10-13_15h46.10.110,jersey_experiment_5_v3,2023.2.2,Win32,60.24096386,,,,,,,,,,,,,,,,455.146,456.6954,456.6955,457.9617,return,0.3027,,99.79166667,,,,,,FBP-PT-81.png,0.43,1.2,24,0.75,0,12,12,23,1,,,,,,,,,,,,,,,,,,,,,,,,,,,,,,,,,,,,,,,,
,,,,,V3_004,18,MALE,2024-10-13_15h46.10.110,jersey_experiment_5_v3,2023.2.2,Win32,60.24096386,,,,,,,,,,,,,,,,457.962,459.262,459.2621,461.7116,return,0.8247,,99.79166667,,,,,,FBP-OG-81.png,0.43,1.2,39,0.5,0,13,13,38,1,,,,,,,,,,,,,,,,,,,,,,,,,,,,,,,,,,,,,,,,
,,,,,V3_004,18,MALE,2024-10-13_15h46.10.110,jersey_experiment_5_v3,2023.2.2,Win32,60.24096386,,,,,,,,,,,,,,,,461.7121,463.2618,463.2619,467.3116,return,1.0424,,0,,,,,,FBP-PT-91.png,0.35,1.2,26,0.75,0,14,14,25,1,,,,,,,,,,,,,,,,,,,,,,,,,,,,,,,,,,,,,,,,
,,,,,V3_004,18,MALE,2024-10-13_15h46.10.110,jersey_experiment_5_v3,2023.2.2,Win32,60.24096386,,,,,,,,,,,,,,,,467.3118,468.8619,468.8619,470.1285,return,0.1714,,99.86111111,,,,,,FBP-YG-17.png,0.45,1.2,5,0.75,0,15,15,4,1,,,,,,,,,,,,,,,,,,,,,,,,,,,,,,,,,,,,,,,,
,,,,,V3_004,18,MALE,2024-10-13_15h46.10.110,jersey_experiment_5_v3,2023.2.2,Win32,60.24096386,,,,,,,,,,,,,,,,470.1287,471.4292,471.4294,480.4618,return,0.4588,,0.416666667,,,,,,FBP-OG-81.png,0.35,1.2,36,0.5,0,16,16,35,1,,,,,,,,,,,,,,,,,,,,,,,,,,,,,,,,,,,,,,,,
,,,,,V3_004,18,MALE,2024-10-13_15h46.10.110,jersey_experiment_5_v3,2023.2.2,Win32,60.24096386,,,,,,,,,,,,,,,,480.4623,482.0118,482.0119,483.2453,return,0.2081,,99.79166667,,,,,,FBP-RB-91.png,0.4,1.2,58,0.75,0,17,17,57,1,,,,,,,,,,,,,,,,,,,,,,,,,,,,,,,,,,,,,,,,
,,,,,V3_004,18,MALE,2024-10-13_15h46.10.110,jersey_experiment_5_v3,2023.2.2,Win32,60.24096386,,,,,,,,,,,,,,,,483.2459,484.7959,484.796,486.0953,return,0.2915,,99.79166667,,,,,,FBP-RB-81.png,0.43,1.2,54,0.75,0,18,18,53,1,,,,,,,,,,,,,,,,,,,,,,,,,,,,,,,,,,,,,,,,
,,,,,V3_004,18,MALE,2024-10-13_15h46.10.110,jersey_experiment_5_v3,2023.2.2,Win32,60.24096386,,,,,,,,,,,,,,,,486.0958,487.6458,487.6459,489.6118,return,0.228,,74.93055556,,,,,,FBP-PT-91.png,0.37,1.2,27,0.75,0,19,19,26,1,,,,,,,,,,,,,,,,,,,,,,,,,,,,,,,,,,,,,,,,
,,,,,V3_004,18,MALE,2024-10-13_15h46.10.110,jersey_experiment_5_v3,2023.2.2,Win32,60.24096386,,,,,,,,,,,,,,,,489.6122,491.1622,491.1623,492.5618,return,0.2555,,99.65277778,,,,,,FBP-RB-81.png,0.4,1.2,53,0.75,0,20,20,52,1,,,,,,,,,,,,,,,,,,,,,,,,,,,,,,,,,,,,,,,,
,,,,,V3_004,18,MALE,2024-10-13_15h46.10.110,jersey_experiment_5_v3,2023.2.2,Win32,60.24096386,,,,,,,,,,,,,,,,492.5623,494.1125,494.1127,495.5786,return,0.2141,,100,,,,,,FBP-YG-17.png,0.43,1.2,4,0.75,0,21,21,3,1,,,,,,,,,,,,,,,,,,,,,,,,,,,,,,,,,,,,,,,,
,,,,,V3_004,18,MALE,2024-10-13_15h46.10.110,jersey_experiment_5_v3,2023.2.2,Win32,60.24096386,,,,,,,,,,,,,,,,495.579,496.8788,496.8789,498.412,return,0.2594,,99.93055556,,,,,,FBP-OG-71.png,0.45,1.2,35,0.5,0,22,22,34,1,,,,,,,,,,,,,,,,,,,,,,,,,,,,,,,,,,,,,,,,
,,,,,V3_004,18,MALE,2024-10-13_15h46.10.110,jersey_experiment_5_v3,2023.2.2,Win32,60.24096386,,,,,,,,,,,,,,,,498.4125,499.7123,499.7124,501.0789,return,0.2676,,75.13888889,,,,,,FBP-OG-81.png,0.37,1.2,37,0.5,0,23,23,36,1,,,,,,,,,,,,,,,,,,,,,,,,,,,,,,,,,,,,,,,,
,,,,,V3_004,18,MALE,2024-10-13_15h46.10.110,jersey_experiment_5_v3,2023.2.2,Win32,60.24096386,,,,,,,,,,,,,,,,501.0792,502.3788,502.3788,503.8456,return,0.1365,,74.93055556,,,,,,FBP-OG-91.png,0.37,1.2,42,0.5,0,24,24,41,1,,,,,,,,,,,,,,,,,,,,,,,,,,,,,,,,,,,,,,,,
,,,,,V3_004,18,MALE,2024-10-13_15h46.10.110,jersey_experiment_5_v3,2023.2.2,Win32,60.24096386,,,,,,,,,,,,,,,,503.8459,505.1459,505.146,507.3287,return,1.1069,,99.72222222,,,,,,FBP-OG-91.png,0.43,1.2,44,0.5,0,25,25,43,1,,,,,,,,,,,,,,,,,,,,,,,,,,,,,,,,,,,,,,,,
,,,,,V3_004,18,MALE,2024-10-13_15h46.10.110,jersey_experiment_5_v3,2023.2.2,Win32,60.24096386,,,,,,,,,,,,,,,,507.3289,508.8794,508.8795,510.5293,return,0.2733,,25,,,,,,FBP-YG-17.png,0.35,1.2,1,0.75,0,26,26,0,1,,,,,,,,,,,,,,,,,,,,,,,,,,,,,,,,,,,,,,,,
,,,,,V3_004,18,MALE,2024-10-13_15h46.10.110,jersey_experiment_5_v3,2023.2.2,Win32,60.24096386,,,,,,,,,,,,,,,,510.5297,511.8296,511.8297,513.0958,return,0.2019,,25.13888889,,,,,,FBP-OG-71.png,0.37,1.2,32,0.5,0,27,27,31,1,,,,,,,,,,,,,,,,,,,,,,,,,,,,,,,,,,,,,,,,
,,,,,V3_004,18,MALE,2024-10-13_15h46.10.110,jersey_experiment_5_v3,2023.2.2,Win32,60.24096386,,,,,,,,,,,,,,,,513.0961,514.6459,514.646,516.2788,return,0.5012,,99.93055556,,,,,,FBP-PT-71.png,0.43,1.2,19,0.75,0,28,28,18,1,,,,,,,,,,,,,,,,,,,,,,,,,,,,,,,,,,,,,,,,
,,,,,V3_004,18,MALE,2024-10-13_15h46.10.110,jersey_experiment_5_v3,2023.2.2,Win32,60.24096386,,,,,,,,,,,,,,,,516.2794,517.8291,517.8292,519.0794,return,0.1161,,24.86111111,,,,,,FBP-PT-71.png,0.37,1.2,17,0.75,0,29,29,16,1,,,,,,,,,,,,,,,,,,,,,,,,,,,,,,,,,,,,,,,,
,,,,,V3_004,18,MALE,2024-10-13_15h46.10.110,jersey_experiment_5_v3,2023.2.2,Win32,60.24096386,,,,,,,,,,,,,,,,519.0799,520.6297,520.6298,522.0451,return,0.2262,,99.72222222,,,,,,FBP-YG-19.png,0.43,1.2,14,0.75,0,30,30,13,1,,,,,,,,,,,,,,,,,,,,,,,,,,,,,,,,,,,,,,,,
,,,,,V3_004,18,MALE,2024-10-13_15h46.10.110,jersey_experiment_5_v3,2023.2.2,Win32,60.24096386,,,,,,,,,,,,,,,,522.0454,523.5959,523.5959,525.6119,return,0.2443,,99.72222222,,,,,,FBP-RB-81.png,0.45,1.2,55,0.75,0,31,31,54,1,,,,,,,,,,,,,,,,,,,,,,,,,,,,,,,,,,,,,,,,
,,,,,V3_004,18,MALE,2024-10-13_15h46.10.110,jersey_experiment_5_v3,2023.2.2,Win32,60.24096386,,,,,,,,,,,,,,,,525.6122,527.1621,527.1621,529.1294,return,0.3512,,99.86111111,,,,,,FBP-RB-71.png,0.43,1.2,49,0.75,0,32,32,48,1,,,,,,,,,,,,,,,,,,,,,,,,,,,,,,,,,,,,,,,,
,,,,,V3_004,18,MALE,2024-10-13_15h46.10.110,jersey_experiment_5_v3,2023.2.2,Win32,60.24096386,,,,,,,,,,,,,,,,529.1299,530.679,530.679,538.7124,return,0.4503,,0.486111111,,,,,,FBP-RB-91.png,0.35,1.2,56,0.75,0,33,33,55,1,,,,,,,,,,,,,,,,,,,,,,,,,,,,,,,,,,,,,,,,
,,,,,V3_004,18,MALE,2024-10-13_15h46.10.110,jersey_experiment_5_v3,2023.2.2,Win32,60.24096386,,,,,,,,,,,,,,,,538.7128,540.2621,540.2622,542.1291,return,0.3062,,24.72222222,,,,,,FBP-YG-19.png,0.37,1.2,12,0.75,0,34,34,11,1,,,,,,,,,,,,,,,,,,,,,,,,,,,,,,,,,,,,,,,,
,,,,,V3_004,18,MALE,2024-10-13_15h46.10.110,jersey_experiment_5_v3,2023.2.2,Win32,60.24096386,,,,,,,,,,,,,,,,542.1295,543.6791,543.6792,545.1459,return,0.4332,,99.65277778,,,,,,FBP-PT-91.png,0.43,1.2,29,0.75,0,35,35,28,1,,,,,,,,,,,,,,,,,,,,,,,,,,,,,,,,,,,,,,,,
,,,,,V3_004,18,MALE,2024-10-13_15h46.10.110,jersey_experiment_5_v3,2023.2.2,Win32,60.24096386,,,,,,,,,,,,,,,,545.1465,546.4455,546.4456,549.0621,return,0.3676,,24.93055556,,,,,,FBP-OG-71.png,0.35,1.2,31,0.5,0,36,36,30,1,,,,,,,,,,,,,,,,,,,,,,,,,,,,,,,,,,,,,,,,
,,,,,V3_004,18,MALE,2024-10-13_15h46.10.110,jersey_experiment_5_v3,2023.2.2,Win32,60.24096386,,,,,,,,,,,,,,,,549.0625,550.3624,550.3624,551.6122,return,0.1609,,99.86111111,,,,,,FBP-OG-91.png,0.45,1.2,45,0.5,0,37,37,44,1,,,,,,,,,,,,,,,,,,,,,,,,,,,,,,,,,,,,,,,,
,,,,,V3_004,18,MALE,2024-10-13_15h46.10.110,jersey_experiment_5_v3,2023.2.2,Win32,60.24096386,,,,,,,,,,,,,,,,551.6127,552.9126,552.9126,554.4622,return,0.2083,,99.72222222,,,,,,FBP-OG-81.png,0.45,1.2,40,0.5,0,38,38,39,1,,,,,,,,,,,,,,,,,,,,,,,,,,,,,,,,,,,,,,,,
,,,,,V3_004,18,MALE,2024-10-13_15h46.10.110,jersey_experiment_5_v3,2023.2.2,Win32,60.24096386,,,,,,,,,,,,,,,,554.4627,556.0125,556.0125,557.5628,return,0.1965,,75,,,,,,FBP-YG-17.png,0.4,1.2,3,0.75,0,39,39,2,1,,,,,,,,,,,,,,,,,,,,,,,,,,,,,,,,,,,,,,,,
,,,,,V3_004,18,MALE,2024-10-13_15h46.10.110,jersey_experiment_5_v3,2023.2.2,Win32,60.24096386,,,,,,,,,,,,,,,,557.5631,559.1121,559.1122,560.8623,return,0.2759,,0.069444444,,,,,,FBP-PT-81.png,0.35,1.2,21,0.75,0,40,40,20,1,,,,,,,,,,,,,,,,,,,,,,,,,,,,,,,,,,,,,,,,
,,,,,V3_004,18,MALE,2024-10-13_15h46.10.110,jersey_experiment_5_v3,2023.2.2,Win32,60.24096386,,,,,,,,,,,,,,,,560.8626,562.4126,562.4126,564.6956,return,0.1007,,24.86111111,,,,,,FBP-RB-81.png,0.35,1.2,51,0.75,0,41,41,50,1,,,,,,,,,,,,,,,,,,,,,,,,,,,,,,,,,,,,,,,,
,,,,,V3_004,18,MALE,2024-10-13_15h46.10.110,jersey_experiment_5_v3,2023.2.2,Win32,60.24096386,,,,,,,,,,,,,,,,564.6958,566.2456,566.2457,567.9123,return,0.0346,,24.65277778,,,,,,FBP-RB-81.png,0.37,1.2,52,0.75,0,42,42,51,1,,,,,,,,,,,,,,,,,,,,,,,,,,,,,,,,,,,,,,,,
,,,,,V3_004,18,MALE,2024-10-13_15h46.10.110,jersey_experiment_5_v3,2023.2.2,Win32,60.24096386,,,,,,,,,,,,,,,,567.9129,569.213,569.2131,571.1625,return,0.1294,,74.79166667,,,,,,FBP-OG-81.png,0.4,1.2,38,0.5,0,43,43,37,1,,,,,,,,,,,,,,,,,,,,,,,,,,,,,,,,,,,,,,,,
,,,,,V3_004,18,MALE,2024-10-13_15h46.10.110,jersey_experiment_5_v3,2023.2.2,Win32,60.24096386,,,,,,,,,,,,,,,,571.1629,572.7127,572.7128,574.4627,return,0.2255,,99.72222222,,,,,,FBP-RB-91.png,0.43,1.2,59,0.75,0,44,44,58,1,,,,,,,,,,,,,,,,,,,,,,,,,,,,,,,,,,,,,,,,
,,,,,V3_004,18,MALE,2024-10-13_15h46.10.110,jersey_experiment_5_v3,2023.2.2,Win32,60.24096386,,,,,,,,,,,,,,,,574.4632,576.0125,576.0125,577.2623,return,0.2745,,99.65277778,,,,,,FBP-RB-71.png,0.37,1.2,47,0.75,0,45,45,46,1,,,,,,,,,,,,,,,,,,,,,,,,,,,,,,,,,,,,,,,,
,,,,,V3_004,18,MALE,2024-10-13_15h46.10.110,jersey_experiment_5_v3,2023.2.2,Win32,60.24096386,,,,,,,,,,,,,,,,577.2626,578.8129,578.813,579.6457,return,0.1109,,99.79166667,,,,,,FBP-RB-71.png,0.45,1.2,50,0.75,0,46,46,49,1,,,,,,,,,,,,,,,,,,,,,,,,,,,,,,,,,,,,,,,,
,,,,,V3_004,18,MALE,2024-10-13_15h46.10.110,jersey_experiment_5_v3,2023.2.2,Win32,60.24096386,,,,,,,,,,,,,,,,579.646,580.9461,580.9461,583.0797,return,0.2333,,74.93055556,,,,,,FBP-OG-91.png,0.4,1.2,43,0.5,0,47,47,42,1,,,,,,,,,,,,,,,,,,,,,,,,,,,,,,,,,,,,,,,,
,,,,,V3_004,18,MALE,2024-10-13_15h46.10.110,jersey_experiment_5_v3,2023.2.2,Win32,60.24096386,,,,,,,,,,,,,,,,583.0801,584.6292,584.6293,585.846,return,0.2342,,99.58333333,,,,,,FBP-RB-91.png,0.45,1.2,60,0.75,0,48,48,59,1,,,,,,,,,,,,,,,,,,,,,,,,,,,,,,,,,,,,,,,,
,,,,,V3_004,18,MALE,2024-10-13_15h46.10.110,jersey_experiment_5_v3,2023.2.2,Win32,60.24096386,,,,,,,,,,,,,,,,585.8466,587.1462,587.1464,588.5126,return,0.1547,,99.86111111,,,,,,FBP-OG-71.png,0.43,1.2,34,0.5,0,49,49,33,1,,,,,,,,,,,,,,,,,,,,,,,,,,,,,,,,,,,,,,,,
,,,,,V3_004,18,MALE,2024-10-13_15h46.10.110,jersey_experiment_5_v3,2023.2.2,Win32,60.24096386,,,,,,,,,,,,,,,,588.513,590.0627,590.0628,591.0797,return,0.1348,,75.06944444,,,,,,FBP-YG-18.png,0.37,1.2,7,0.75,0,50,50,6,1,,,,,,,,,,,,,,,,,,,,,,,,,,,,,,,,,,,,,,,,
,,,,,V3_004,18,MALE,2024-10-13_15h46.10.110,jersey_experiment_5_v3,2023.2.2,Win32,60.24096386,,,,,,,,,,,,,,,,591.08,592.6292,592.6293,594.0125,return,0.1437,,75.20833333,,,,,,FBP-PT-81.png,0.37,1.2,22,0.75,0,51,51,21,1,,,,,,,,,,,,,,,,,,,,,,,,,,,,,,,,,,,,,,,,
,,,,,V3_004,18,MALE,2024-10-13_15h46.10.110,jersey_experiment_5_v3,2023.2.2,Win32,60.24096386,,,,,,,,,,,,,,,,594.0127,595.5628,595.5629,597.0459,return,0.1684,,99.79166667,,,,,,FBP-PT-91.png,0.4,1.2,28,0.75,0,52,52,27,1,,,,,,,,,,,,,,,,,,,,,,,,,,,,,,,,,,,,,,,,
,,,,,V3_004,18,MALE,2024-10-13_15h46.10.110,jersey_experiment_5_v3,2023.2.2,Win32,60.24096386,,,,,,,,,,,,,,,,597.0463,598.5965,598.5966,601.3126,return,0.1044,,99.72222222,,,,,,FBP-YG-19.png,0.4,1.2,13,0.75,0,53,53,12,1,,,,,,,,,,,,,,,,,,,,,,,,,,,,,,,,,,,,,,,,
,,,,,V3_004,18,MALE,2024-10-13_15h46.10.110,jersey_experiment_5_v3,2023.2.2,Win32,60.24096386,,,,,,,,,,,,,,,,601.3132,602.8626,602.8626,604.7464,return,0.1505,,99.51388889,,,,,,FBP-YG-18.png,0.45,1.2,10,0.75,0,54,54,9,1,,,,,,,,,,,,,,,,,,,,,,,,,,,,,,,,,,,,,,,,
,,,,,V3_004,18,MALE,2024-10-13_15h46.10.110,jersey_experiment_5_v3,2023.2.2,Win32,60.24096386,,,,,,,,,,,,,,,,604.7467,606.2959,606.2959,608.396,return,0.3122,,74.58333333,,,,,,FBP-RB-91.png,0.37,1.2,57,0.75,0,55,55,56,1,,,,,,,,,,,,,,,,,,,,,,,,,,,,,,,,,,,,,,,,
,,,,,V3_004,18,MALE,2024-10-13_15h46.10.110,jersey_experiment_5_v3,2023.2.2,Win32,60.24096386,,,,,,,,,,,,,,,,608.3965,609.9461,609.9461,611.3795,return,0.1526,,24.79166667,,,,,,FBP-PT-71.png,0.35,1.2,16,0.75,0,56,56,15,1,,,,,,,,,,,,,,,,,,,,,,,,,,,,,,,,,,,,,,,,
,,,,,V3_004,18,MALE,2024-10-13_15h46.10.110,jersey_experiment_5_v3,2023.2.2,Win32,60.24096386,,,,,,,,,,,,,,,,611.3798,612.9301,612.9303,614.5127,return,0.274,,99.72222222,,,,,,FBP-YG-19.png,0.45,1.2,15,0.75,0,57,57,14,1,,,,,,,,,,,,,,,,,,,,,,,,,,,,,,,,,,,,,,,,
,,,,,V3_004,18,MALE,2024-10-13_15h46.10.110,jersey_experiment_5_v3,2023.2.2,Win32,60.24096386,,,,,,,,,,,,,,,,614.513,615.8127,615.8128,619.8128,return,1.8854,,24.65277778,,,,,,FBP-OG-91.png,0.35,1.2,41,0.5,0,58,58,40,1,,,,,,,,,,,,,,,,,,,,,,,,,,,,,,,,,,,,,,,,
,,,,,V3_004,18,MALE,2024-10-13_15h46.10.110,jersey_experiment_5_v3,2023.2.2,Win32,60.24096386,,,,,,,,,,,,,,,,619.8132,621.113,621.113,623.1628,return,0.3693,,99.58333333,,,,,,FBP-OG-71.png,0.4,1.2,33,0.5,0,59,59,32,1,,,,,,,,,,,,,,,,,,,,,,,,,,,,,,,,,,,,,,,,
,,,,,V3_004,18,MALE,2024-10-13_15h46.10.110,jersey_experiment_5_v3,2023.2.2,Win32,60.24096386,,,,,,,,,,,,,,,,,,,,,,,,,,,,,,,,,,,,,,,623.1634,743.1642,,,,,,,,,,,,,,,,,,,,,,,,,,,,,,,,,,,,,,
,,,,,V3_004,18,MALE,2024-10-13_15h46.10.110,jersey_experiment_5_v3,2023.2.2,Win32,60.24096386,,,,,,,,,,,,,,,,,,,,,,,,,,,,,,,,,,,,,,,,,743.1643,746.2638,return,3.0815,,,,,,,,,,,,,,,,,,,,,,,,,,,,,,,,,,
,,,,,V3_004,18,MALE,2024-10-13_15h46.10.110,jersey_experiment_5_v3,2023.2.2,Win32,60.24096386,,,,,,,,,,,,,,,,746.2776,747.8305,747.8306,751.4638,return,1.8339,,99.72222222,,,,,,FBP-OG-18.png,0.4,1.2,38,0.75,,,,,,,,,,,,,0,0,0,37,1,,,,,,,,,,,,,,,,,,,,,,,,,,,,
,,,,,V3_004,18,MALE,2024-10-13_15h46.10.110,jersey_experiment_5_v3,2023.2.2,Win32,60.24096386,,,,,,,,,,,,,,,,751.4645,752.7638,752.7639,753.9971,return,0.1267,,74.58333333,,,,,,FBP-YG-91.png,0.37,1.2,12,0.5,,,,,,,,,,,,,0,1,1,11,1,,,,,,,,,,,,,,,,,,,,,,,,,,,,
,,,,,V3_004,18,MALE,2024-10-13_15h46.10.110,jersey_experiment_5_v3,2023.2.2,Win32,60.24096386,,,,,,,,,,,,,,,,753.9974,755.2967,755.2968,755.7633,return,0.0539,,74.58333333,,,,,,FBP-PT-18.png,0.37,1.2,22,0.5,,,,,,,,,,,,,0,2,2,21,1,,,,,,,,,,,,,,,,,,,,,,,,,,,,
,,,,,V3_004,18,MALE,2024-10-13_15h46.10.110,jersey_experiment_5_v3,2023.2.2,Win32,60.24096386,,,,,,,,,,,,,,,,755.7636,757.3136,757.3138,757.6969,return,0.0391,,74.58333333,,,,,,FBP-OG-18.png,0.37,1.2,37,0.75,,,,,,,,,,,,,0,3,3,36,1,,,,,,,,,,,,,,,,,,,,,,,,,,,,
,,,,,V3_004,18,MALE,2024-10-13_15h46.10.110,jersey_experiment_5_v3,2023.2.2,Win32,60.24096386,,,,,,,,,,,,,,,,757.6971,759.2469,759.2469,760.1803,return,0.055,,99.86111111,,,,,,FBP-OG-19.png,0.43,1.2,44,0.75,,,,,,,,,,,,,0,4,4,43,1,,,,,,,,,,,,,,,,,,,,,,,,,,,,
,,,,,V3_004,18,MALE,2024-10-13_15h46.10.110,jersey_experiment_5_v3,2023.2.2,Win32,60.24096386,,,,,,,,,,,,,,,,760.1808,761.4802,761.4802,763.064,return,0.7172,,100,,,,,,FBP-YG-91.png,0.4,1.2,13,0.5,,,,,,,,,,,,,0,5,5,12,1,,,,,,,,,,,,,,,,,,,,,,,,,,,,
,,,,,V3_004,18,MALE,2024-10-13_15h46.10.110,jersey_experiment_5_v3,2023.2.2,Win32,60.24096386,,,,,,,,,,,,,,,,763.0645,764.364,764.3642,765.6306,return,0.0604,,99.79166667,,,,,,FBP-RB-18.png,0.4,1.2,53,0.5,,,,,,,,,,,,,0,6,6,52,1,,,,,,,,,,,,,,,,,,,,,,,,,,,,
,,,,,V3_004,18,MALE,2024-10-13_15h46.10.110,jersey_experiment_5_v3,2023.2.2,Win32,60.24096386,,,,,,,,,,,,,,,,765.6312,766.9302,766.9303,767.2969,return,0.0222,,99.44444444,,,,,,FBP-PT-17.png,0.4,1.2,18,0.5,,,,,,,,,,,,,0,7,7,17,1,,,,,,,,,,,,,,,,,,,,,,,,,,,,
,,,,,V3_004,18,MALE,2024-10-13_15h46.10.110,jersey_experiment_5_v3,2023.2.2,Win32,60.24096386,,,,,,,,,,,,,,,,767.2972,768.847,768.847,772.6302,return,0.5532,,0.833333333,,,,,,FBP-OG-19.png,0.35,1.2,41,0.75,,,,,,,,,,,,,0,8,8,40,1,,,,,,,,,,,,,,,,,,,,,,,,,,,,
,,,,,V3_004,18,MALE,2024-10-13_15h46.10.110,jersey_experiment_5_v3,2023.2.2,Win32,60.24096386,,,,,,,,,,,,,,,,772.6305,773.9304,773.9305,776.2973,return,0.1508,,24.79166667,,,,,,FBP-RB-18.png,0.37,1.2,52,0.5,,,,,,,,,,,,,0,9,9,51,1,,,,,,,,,,,,,,,,,,,,,,,,,,,,
,,,,,V3_004,18,MALE,2024-10-13_15h46.10.110,jersey_experiment_5_v3,2023.2.2,Win32,60.24096386,,,,,,,,,,,,,,,,776.2977,777.5972,777.5972,778.7306,return,0.2184,,99.79166667,,,,,,FBP-PT-19.png,0.45,1.2,30,0.5,,,,,,,,,,,,,0,10,10,29,1,,,,,,,,,,,,,,,,,,,,,,,,,,,,
,,,,,V3_004,18,MALE,2024-10-13_15h46.10.110,jersey_experiment_5_v3,2023.2.2,Win32,60.24096386,,,,,,,,,,,,,,,,778.731,780.0304,780.0305,780.8971,return,0.0049,,99.79166667,,,,,,FBP-PT-18.png,0.45,1.2,25,0.5,,,,,,,,,,,,,0,11,11,24,1,,,,,,,,,,,,,,,,,,,,,,,,,,,,
,,,,,V3_004,18,MALE,2024-10-13_15h46.10.110,jersey_experiment_5_v3,2023.2.2,Win32,60.24096386,,,,,,,,,,,,,,,,780.8978,782.4471,782.4472,782.8136,return,0.009,,98.75,,,,,,FBP-OG-18.png,0.45,1.2,40,0.75,,,,,,,,,,,,,0,12,12,39,1,,,,,,,,,,,,,,,,,,,,,,,,,,,,
,,,,,V3_004,18,MALE,2024-10-13_15h46.10.110,jersey_experiment_5_v3,2023.2.2,Win32,60.24096386,,,,,,,,,,,,,,,,782.814,784.3638,784.3638,785.147,return,0.1446,,99.65277778,,,,,,FBP-OG-17.png,0.43,1.2,34,0.75,,,,,,,,,,,,,0,13,13,33,1,,,,,,,,,,,,,,,,,,,,,,,,,,,,
,,,,,V3_004,18,MALE,2024-10-13_15h46.10.110,jersey_experiment_5_v3,2023.2.2,Win32,60.24096386,,,,,,,,,,,,,,,,785.1475,786.4475,786.4476,787.7473,return,0.0697,,74.65277778,,,,,,FBP-YG-71.png,0.37,1.2,2,0.5,,,,,,,,,,,,,0,14,14,1,1,,,,,,,,,,,,,,,,,,,,,,,,,,,,
,,,,,V3_004,18,MALE,2024-10-13_15h46.10.110,jersey_experiment_5_v3,2023.2.2,Win32,60.24096386,,,,,,,,,,,,,,,,787.7478,789.2973,789.2974,790.5807,return,0.0523,,74.72222222,,,,,,FBP-OG-17.png,0.4,1.2,33,0.75,,,,,,,,,,,,,0,15,15,32,1,,,,,,,,,,,,,,,,,,,,,,,,,,,,
,,,,,V3_004,18,MALE,2024-10-13_15h46.10.110,jersey_experiment_5_v3,2023.2.2,Win32,60.24096386,,,,,,,,,,,,,,,,790.5812,791.8811,791.8811,793.2304,return,0.0071,,24.86111111,,,,,,FBP-YG-81.png,0.35,1.2,6,0.5,,,,,,,,,,,,,0,16,16,5,1,,,,,,,,,,,,,,,,,,,,,,,,,,,,
,,,,,V3_004,18,MALE,2024-10-13_15h46.10.110,jersey_experiment_5_v3,2023.2.2,Win32,60.24096386,,,,,,,,,,,,,,,,793.2308,794.5306,794.5306,795.397,return,0.0018,,24.86111111,,,,,,FBP-PT-19.png,0.37,1.2,27,0.5,,,,,,,,,,,,,0,17,17,26,1,,,,,,,,,,,,,,,,,,,,,,,,,,,,
,,,,,V3_004,18,MALE,2024-10-13_15h46.10.110,jersey_experiment_5_v3,2023.2.2,Win32,60.24096386,,,,,,,,,,,,,,,,795.3972,796.9475,796.9476,799.5805,return,0.0937,,24.79166667,,,,,,FBP-OG-19.png,0.4,1.2,43,0.75,,,,,,,,,,,,,0,18,18,42,1,,,,,,,,,,,,,,,,,,,,,,,,,,,,
,,,,,V3_004,18,MALE,2024-10-13_15h46.10.110,jersey_experiment_5_v3,2023.2.2,Win32,60.24096386,,,,,,,,,,,,,,,,799.5809,800.8806,800.8807,802.6806,return,0.368,,0.694444444,,,,,,FBP-PT-19.png,0.35,1.2,26,0.5,,,,,,,,,,,,,0,19,19,25,1,,,,,,,,,,,,,,,,,,,,,,,,,,,,
,,,,,V3_004,18,MALE,2024-10-13_15h46.10.110,jersey_experiment_5_v3,2023.2.2,Win32,60.24096386,,,,,,,,,,,,,,,,802.6811,804.2307,804.2308,806.264,return,1.0671,,25,,,,,,FBP-OG-17.png,0.35,1.2,31,0.75,,,,,,,,,,,,,0,20,20,30,1,,,,,,,,,,,,,,,,,,,,,,,,,,,,
,,,,,V3_004,18,MALE,2024-10-13_15h46.10.110,jersey_experiment_5_v3,2023.2.2,Win32,60.24096386,,,,,,,,,,,,,,,,806.2644,807.5639,807.5639,809.0473,return,0.3694,,99.65277778,,,,,,FBP-YG-91.png,0.45,1.2,15,0.5,,,,,,,,,,,,,0,21,21,14,1,,,,,,,,,,,,,,,,,,,,,,,,,,,,
,,,,,V3_004,18,MALE,2024-10-13_15h46.10.110,jersey_experiment_5_v3,2023.2.2,Win32,60.24096386,,,,,,,,,,,,,,,,809.0476,810.3478,810.3479,811.8477,return,0.149,,99.72222222,,,,,,FBP-RB-19.png,0.45,1.2,60,0.5,,,,,,,,,,,,,0,22,22,59,1,,,,,,,,,,,,,,,,,,,,,,,,,,,,
,,,,,V3_004,18,MALE,2024-10-13_15h46.10.110,jersey_experiment_5_v3,2023.2.2,Win32,60.24096386,,,,,,,,,,,,,,,,811.8483,813.1474,813.1475,814.2475,return,0.1512,,99.79166667,,,,,,FBP-YG-81.png,0.45,1.2,10,0.5,,,,,,,,,,,,,0,23,23,9,1,,,,,,,,,,,,,,,,,,,,,,,,,,,,
,,,,,V3_004,18,MALE,2024-10-13_15h46.10.110,jersey_experiment_5_v3,2023.2.2,Win32,60.24096386,,,,,,,,,,,,,,,,814.2479,815.5475,815.5476,816.7307,return,0.0336,,74.86111111,,,,,,FBP-RB-17.png,0.37,1.2,47,0.5,,,,,,,,,,,,,0,24,24,46,1,,,,,,,,,,,,,,,,,,,,,,,,,,,,
,,,,,V3_004,18,MALE,2024-10-13_15h46.10.110,jersey_experiment_5_v3,2023.2.2,Win32,60.24096386,,,,,,,,,,,,,,,,816.7311,818.0307,818.0308,818.3973,return,0.0095,,74.86111111,,,,,,FBP-YG-81.png,0.37,1.2,7,0.5,,,,,,,,,,,,,0,25,25,6,1,,,,,,,,,,,,,,,,,,,,,,,,,,,,
,,,,,V3_004,18,MALE,2024-10-13_15h46.10.110,jersey_experiment_5_v3,2023.2.2,Win32,60.24096386,,,,,,,,,,,,,,,,818.3975,819.9476,819.9476,820.9139,return,0.6555,,74.86111111,,,,,,FBP-OG-17.png,0.37,1.2,32,0.75,,,,,,,,,,,,,0,26,26,31,1,,,,,,,,,,,,,,,,,,,,,,,,,,,,
,,,,,V3_004,18,MALE,2024-10-13_15h46.10.110,jersey_experiment_5_v3,2023.2.2,Win32,60.24096386,,,,,,,,,,,,,,,,820.9143,822.2139,822.2139,823.614,return,0.2601,,99.86111111,,,,,,FBP-PT-17.png,0.45,1.2,20,0.5,,,,,,,,,,,,,0,27,27,19,1,,,,,,,,,,,,,,,,,,,,,,,,,,,,
,,,,,V3_004,18,MALE,2024-10-13_15h46.10.110,jersey_experiment_5_v3,2023.2.2,Win32,60.24096386,,,,,,,,,,,,,,,,823.6142,824.9139,824.9139,826.631,return,0.0827,,99.58333333,,,,,,FBP-PT-19.png,0.43,1.2,29,0.5,,,,,,,,,,,,,0,28,28,28,1,,,,,,,,,,,,,,,,,,,,,,,,,,,,
,,,,,V3_004,18,MALE,2024-10-13_15h46.10.110,jersey_experiment_5_v3,2023.2.2,Win32,60.24096386,,,,,,,,,,,,,,,,826.6314,827.9309,827.9309,831.9305,return,2.0449,,24.93055556,,,,,,FBP-YG-91.png,0.35,1.2,11,0.5,,,,,,,,,,,,,0,29,29,10,1,,,,,,,,,,,,,,,,,,,,,,,,,,,,
,,,,,V3_004,18,MALE,2024-10-13_15h46.10.110,jersey_experiment_5_v3,2023.2.2,Win32,60.24096386,,,,,,,,,,,,,,,,831.9309,833.4815,833.4815,836.3476,return,1.4771,,74.93055556,,,,,,FBP-OG-19.png,0.37,1.2,42,0.75,,,,,,,,,,,,,0,30,30,41,1,,,,,,,,,,,,,,,,,,,,,,,,,,,,
,,,,,V3_004,18,MALE,2024-10-13_15h46.10.110,jersey_experiment_5_v3,2023.2.2,Win32,60.24096386,,,,,,,,,,,,,,,,836.3481,837.6474,837.6474,838.9477,return,0.1201,,75,,,,,,FBP-YG-71.png,0.4,1.2,3,0.5,,,,,,,,,,,,,0,31,31,2,1,,,,,,,,,,,,,,,,,,,,,,,,,,,,
,,,,,V3_004,18,MALE,2024-10-13_15h46.10.110,jersey_experiment_5_v3,2023.2.2,Win32,60.24096386,,,,,,,,,,,,,,,,838.9483,840.4979,840.4981,841.4979,return,0.0345,,75,,,,,,FBP-OG-18.png,0.43,1.2,39,0.75,,,,,,,,,,,,,0,32,32,38,1,,,,,,,,,,,,,,,,,,,,,,,,,,,,
,,,,,V3_004,18,MALE,2024-10-13_15h46.10.110,jersey_experiment_5_v3,2023.2.2,Win32,60.24096386,,,,,,,,,,,,,,,,841.4983,842.7975,842.7975,845.1306,return,0.6619,,100,,,,,,FBP-RB-18.png,0.43,1.2,54,0.5,,,,,,,,,,,,,0,33,33,53,1,,,,,,,,,,,,,,,,,,,,,,,,,,,,
,,,,,V3_004,18,MALE,2024-10-13_15h46.10.110,jersey_experiment_5_v3,2023.2.2,Win32,60.24096386,,,,,,,,,,,,,,,,845.1309,846.4313,846.4314,847.8644,return,0.2167,,24.72222222,,,,,,FBP-RB-18.png,0.35,1.2,51,0.5,,,,,,,,,,,,,0,34,34,50,1,,,,,,,,,,,,,,,,,,,,,,,,,,,,
,,,,,V3_004,18,MALE,2024-10-13_15h46.10.110,jersey_experiment_5_v3,2023.2.2,Win32,60.24096386,,,,,,,,,,,,,,,,847.8648,849.1643,849.1643,850.8809,return,0.1904,,99.93055556,,,,,,FBP-PT-18.png,0.43,1.2,24,0.5,,,,,,,,,,,,,0,35,35,23,1,,,,,,,,,,,,,,,,,,,,,,,,,,,,
,,,,,V3_004,18,MALE,2024-10-13_15h46.10.110,jersey_experiment_5_v3,2023.2.2,Win32,60.24096386,,,,,,,,,,,,,,,,850.8814,852.181,852.1811,853.9809,return,0.6261,,99.93055556,,,,,,FBP-YG-71.png,0.45,1.2,5,0.5,,,,,,,,,,,,,0,36,36,4,1,,,,,,,,,,,,,,,,,,,,,,,,,,,,
,,,,,V3_004,18,MALE,2024-10-13_15h46.10.110,jersey_experiment_5_v3,2023.2.2,Win32,60.24096386,,,,,,,,,,,,,,,,853.9815,855.2809,855.2811,858.7642,return,2.2269,,100,,,,,,FBP-YG-71.png,0.43,1.2,4,0.5,,,,,,,,,,,,,0,37,37,3,1,,,,,,,,,,,,,,,,,,,,,,,,,,,,
,,,,,V3_004,18,MALE,2024-10-13_15h46.10.110,jersey_experiment_5_v3,2023.2.2,Win32,60.24096386,,,,,,,,,,,,,,,,858.7647,860.3144,860.3146,862.2644,return,0.3821,,0.208333333,,,,,,FBP-OG-18.png,0.35,1.2,36,0.75,,,,,,,,,,,,,0,38,38,35,1,,,,,,,,,,,,,,,,,,,,,,,,,,,,
,,,,,V3_004,18,MALE,2024-10-13_15h46.10.110,jersey_experiment_5_v3,2023.2.2,Win32,60.24096386,,,,,,,,,,,,,,,,862.2648,863.5647,863.5648,865.5643,return,0.81,,24.65277778,,,,,,FBP-YG-71.png,0.35,1.2,1,0.5,,,,,,,,,,,,,0,39,39,0,1,,,,,,,,,,,,,,,,,,,,,,,,,,,,
,,,,,V3_004,18,MALE,2024-10-13_15h46.10.110,jersey_experiment_5_v3,2023.2.2,Win32,60.24096386,,,,,,,,,,,,,,,,865.5648,867.1146,867.1147,870.4478,return,1.5735,,99.79166667,,,,,,FBP-OG-19.png,0.45,1.2,45,0.75,,,,,,,,,,,,,0,40,40,44,1,,,,,,,,,,,,,,,,,,,,,,,,,,,,
,,,,,V3_004,18,MALE,2024-10-13_15h46.10.110,jersey_experiment_5_v3,2023.2.2,Win32,60.24096386,,,,,,,,,,,,,,,,870.4481,871.7482,871.7482,873.4478,return,0.4342,,24.86111111,,,,,,FBP-PT-17.png,0.35,1.2,16,0.5,,,,,,,,,,,,,0,41,41,15,1,,,,,,,,,,,,,,,,,,,,,,,,,,,,
,,,,,V3_004,18,MALE,2024-10-13_15h46.10.110,jersey_experiment_5_v3,2023.2.2,Win32,60.24096386,,,,,,,,,,,,,,,,873.4485,874.7478,874.7479,875.8145,return,0.2169,,25,,,,,,FBP-RB-17.png,0.35,1.2,46,0.5,,,,,,,,,,,,,0,42,42,45,1,,,,,,,,,,,,,,,,,,,,,,,,,,,,
,,,,,V3_004,18,MALE,2024-10-13_15h46.10.110,jersey_experiment_5_v3,2023.2.2,Win32,60.24096386,,,,,,,,,,,,,,,,875.815,877.1147,877.1148,879.0143,return,0.2167,,99.72222222,,,,,,FBP-RB-17.png,0.43,1.2,49,0.5,,,,,,,,,,,,,0,43,43,48,1,,,,,,,,,,,,,,,,,,,,,,,,,,,,
,,,,,V3_004,18,MALE,2024-10-13_15h46.10.110,jersey_experiment_5_v3,2023.2.2,Win32,60.24096386,,,,,,,,,,,,,,,,879.0149,880.3146,880.3147,880.9313,return,0.2209,,99.44444444,,,,,,FBP-RB-17.png,0.4,1.2,48,0.5,,,,,,,,,,,,,0,44,44,47,1,,,,,,,,,,,,,,,,,,,,,,,,,,,,
,,,,,V3_004,18,MALE,2024-10-13_15h46.10.110,jersey_experiment_5_v3,2023.2.2,Win32,60.24096386,,,,,,,,,,,,,,,,880.9317,882.231,882.2311,883.3977,return,0.1848,,99.93055556,,,,,,FBP-PT-18.png,0.4,1.2,23,0.5,,,,,,,,,,,,,0,45,45,22,1,,,,,,,,,,,,,,,,,,,,,,,,,,,,
,,,,,V3_004,18,MALE,2024-10-13_15h46.10.110,jersey_experiment_5_v3,2023.2.2,Win32,60.24096386,,,,,,,,,,,,,,,,883.3982,884.6977,884.6978,886.3147,return,0.384,,25.13888889,,,,,,FBP-RB-19.png,0.35,1.2,56,0.5,,,,,,,,,,,,,0,46,46,55,1,,,,,,,,,,,,,,,,,,,,,,,,,,,,
,,,,,V3_004,18,MALE,2024-10-13_15h46.10.110,jersey_experiment_5_v3,2023.2.2,Win32,60.24096386,,,,,,,,,,,,,,,,886.315,887.6144,887.6145,888.7644,return,0.1604,,25,,,,,,FBP-PT-17.png,0.37,1.2,17,0.5,,,,,,,,,,,,,0,47,47,16,1,,,,,,,,,,,,,,,,,,,,,,,,,,,,
,,,,,V3_004,18,MALE,2024-10-13_15h46.10.110,jersey_experiment_5_v3,2023.2.2,Win32,60.24096386,,,,,,,,,,,,,,,,888.7649,890.0651,890.0652,892.7646,return,0.3265,,99.93055556,,,,,,FBP-RB-17.png,0.45,1.2,50,0.5,,,,,,,,,,,,,0,48,48,49,1,,,,,,,,,,,,,,,,,,,,,,,,,,,,
,,,,,V3_004,18,MALE,2024-10-13_15h46.10.110,jersey_experiment_5_v3,2023.2.2,Win32,60.24096386,,,,,,,,,,,,,,,,892.7649,894.0646,894.0647,894.9814,return,0.5524,,99.86111111,,,,,,FBP-YG-91.png,0.43,1.2,14,0.5,,,,,,,,,,,,,0,49,49,13,1,,,,,,,,,,,,,,,,,,,,,,,,,,,,
,,,,,V3_004,18,MALE,2024-10-13_15h46.10.110,jersey_experiment_5_v3,2023.2.2,Win32,60.24096386,,,,,,,,,,,,,,,,894.9818,896.2811,896.2812,896.7143,return,0.0513,,99.86111111,,,,,,FBP-RB-18.png,0.45,1.2,55,0.5,,,,,,,,,,,,,0,50,50,54,1,,,,,,,,,,,,,,,,,,,,,,,,,,,,
,,,,,V3_004,18,MALE,2024-10-13_15h46.10.110,jersey_experiment_5_v3,2023.2.2,Win32,60.24096386,,,,,,,,,,,,,,,,896.7147,898.0146,898.0147,898.5148,return,0.1216,,99.86111111,,,,,,FBP-PT-17.png,0.43,1.2,19,0.5,,,,,,,,,,,,,0,51,51,18,1,,,,,,,,,,,,,,,,,,,,,,,,,,,,
,,,,,V3_004,18,MALE,2024-10-13_15h46.10.110,jersey_experiment_5_v3,2023.2.2,Win32,60.24096386,,,,,,,,,,,,,,,,898.5153,899.8148,899.8148,900.2314,return,0.0672,,99.86111111,,,,,,FBP-RB-19.png,0.43,1.2,59,0.5,,,,,,,,,,,,,0,52,52,58,1,,,,,,,,,,,,,,,,,,,,,,,,,,,,
,,,,,V3_004,18,MALE,2024-10-13_15h46.10.110,jersey_experiment_5_v3,2023.2.2,Win32,60.24096386,,,,,,,,,,,,,,,,900.2319,901.7811,901.7813,902.4311,return,0.191,,99.86111111,,,,,,FBP-OG-17.png,0.45,1.2,35,0.75,,,,,,,,,,,,,0,53,53,34,1,,,,,,,,,,,,,,,,,,,,,,,,,,,,
,,,,,V3_004,18,MALE,2024-10-13_15h46.10.110,jersey_experiment_5_v3,2023.2.2,Win32,60.24096386,,,,,,,,,,,,,,,,902.4316,903.7312,903.7314,904.2478,return,0.1341,,99.86111111,,,,,,FBP-YG-81.png,0.43,1.2,9,0.5,,,,,,,,,,,,,0,54,54,8,1,,,,,,,,,,,,,,,,,,,,,,,,,,,,
,,,,,V3_004,18,MALE,2024-10-13_15h46.10.110,jersey_experiment_5_v3,2023.2.2,Win32,60.24096386,,,,,,,,,,,,,,,,904.2482,905.5482,905.5482,908.448,return,0.2572,,24.79166667,,,,,,FBP-RB-19.png,0.37,1.2,57,0.5,,,,,,,,,,,,,0,55,55,56,1,,,,,,,,,,,,,,,,,,,,,,,,,,,,
,,,,,V3_004,18,MALE,2024-10-13_15h46.10.110,jersey_experiment_5_v3,2023.2.2,Win32,60.24096386,,,,,,,,,,,,,,,,908.4483,909.7487,909.7488,911.1811,return,0.2756,,75,,,,,,FBP-RB-19.png,0.4,1.2,58,0.5,,,,,,,,,,,,,0,56,56,57,1,,,,,,,,,,,,,,,,,,,,,,,,,,,,
,,,,,V3_004,18,MALE,2024-10-13_15h46.10.110,jersey_experiment_5_v3,2023.2.2,Win32,60.24096386,,,,,,,,,,,,,,,,911.1814,912.4814,912.4815,914.2978,return,0.501,,0.069444444,,,,,,FBP-PT-18.png,0.35,1.2,21,0.5,,,,,,,,,,,,,0,57,57,20,1,,,,,,,,,,,,,,,,,,,,,,,,,,,,
,,,,,V3_004,18,MALE,2024-10-13_15h46.10.110,jersey_experiment_5_v3,2023.2.2,Win32,60.24096386,,,,,,,,,,,,,,,,914.2982,915.5986,915.5987,917.2479,return,0.1244,,74.93055556,,,,,,FBP-PT-19.png,0.4,1.2,28,0.5,,,,,,,,,,,,,0,58,58,27,1,,,,,,,,,,,,,,,,,,,,,,,,,,,,
,,,,,V3_004,18,MALE,2024-10-13_15h46.10.110,jersey_experiment_5_v3,2023.2.2,Win32,60.24096386,,,,,,,,,,,,,,,,917.2485,918.548,918.5481,919.9311,return,0.1765,,75.06944444,,,,,,FBP-YG-81.png,0.4,1.2,8,0.5,,,,,,,,,,,,,0,59,59,7,1,,,,,,,,,,,,,,,,,,,,,,,,,,,,
,,,,,V3_004,18,MALE,2024-10-13_15h46.10.110,jersey_experiment_5_v3,2023.2.2,Win32,60.24096386,,,,,,,,,,,,,,,,919.9357,921.4819,921.4819,922.8148,return,0.358,,25,,,,,,FBP-OG-71.png,0.35,1.2,31,0.75,,,,,,,,,,,,,,,,,,0,0,0,30,1,,,,,,,,,,,,,,,,,,,,,,,
,,,,,V3_004,18,MALE,2024-10-13_15h46.10.110,jersey_experiment_5_v3,2023.2.2,Win32,60.24096386,,,,,,,,,,,,,,,,922.8151,924.1152,924.1153,925.8313,return,0.0836,,74.79166667,,,,,,FBP-RB-71.png,0.43,1.2,49,0.5,,,,,,,,,,,,,,,,,,0,1,1,48,1,,,,,,,,,,,,,,,,,,,,,,,
,,,,,V3_004,18,MALE,2024-10-13_15h46.10.110,jersey_experiment_5_v3,2023.2.2,Win32,60.24096386,,,,,,,,,,,,,,,,925.8316,927.1312,927.1312,929.7484,return,0.086,,24.79166667,,,,,,FBP-YG-19.png,0.35,1.2,11,0.5,,,,,,,,,,,,,,,,,,0,2,2,10,1,,,,,,,,,,,,,,,,,,,,,,,
,,,,,V3_004,18,MALE,2024-10-13_15h46.10.110,jersey_experiment_5_v3,2023.2.2,Win32,60.24096386,,,,,,,,,,,,,,,,929.749,931.0481,931.0483,932.9146,return,0.105,,75,,,,,,FBP-PT-91.png,0.4,1.2,28,0.5,,,,,,,,,,,,,,,,,,0,3,3,27,1,,,,,,,,,,,,,,,,,,,,,,,
,,,,,V3_004,18,MALE,2024-10-13_15h46.10.110,jersey_experiment_5_v3,2023.2.2,Win32,60.24096386,,,,,,,,,,,,,,,,932.9149,934.4655,934.4656,936.0653,return,0.2566,,99.86111111,,,,,,FBP-OG-81.png,0.43,1.2,39,0.75,,,,,,,,,,,,,,,,,,0,4,4,38,1,,,,,,,,,,,,,,,,,,,,,,,
,,,,,V3_004,18,MALE,2024-10-13_15h46.10.110,jersey_experiment_5_v3,2023.2.2,Win32,60.24096386,,,,,,,,,,,,,,,,936.0662,937.3648,937.3649,938.7483,return,0.0774,,74.93055556,,,,,,FBP-PT-81.png,0.37,1.2,22,0.5,,,,,,,,,,,,,,,,,,0,5,5,21,1,,,,,,,,,,,,,,,,,,,,,,,
,,,,,V3_004,18,MALE,2024-10-13_15h46.10.110,jersey_experiment_5_v3,2023.2.2,Win32,60.24096386,,,,,,,,,,,,,,,,938.7489,940.048,940.0481,941.5645,return,0.2775,,99.65277778,,,,,,FBP-PT-81.png,0.43,1.2,24,0.5,,,,,,,,,,,,,,,,,,0,6,6,23,1,,,,,,,,,,,,,,,,,,,,,,,
,,,,,V3_004,18,MALE,2024-10-13_15h46.10.110,jersey_experiment_5_v3,2023.2.2,Win32,60.24096386,,,,,,,,,,,,,,,,941.5648,942.8652,942.8652,944.1153,return,0.1036,,99.58333333,,,,,,FBP-PT-71.png,0.43,1.2,19,0.5,,,,,,,,,,,,,,,,,,0,7,7,18,1,,,,,,,,,,,,,,,,,,,,,,,
,,,,,V3_004,18,MALE,2024-10-13_15h46.10.110,jersey_experiment_5_v3,2023.2.2,Win32,60.24096386,,,,,,,,,,,,,,,,944.1158,945.4147,945.4148,946.9148,return,0.2209,,24.65277778,,,,,,FBP-RB-81.png,0.37,1.2,52,0.5,,,,,,,,,,,,,,,,,,0,8,8,51,1,,,,,,,,,,,,,,,,,,,,,,,
,,,,,V3_004,18,MALE,2024-10-13_15h46.10.110,jersey_experiment_5_v3,2023.2.2,Win32,60.24096386,,,,,,,,,,,,,,,,946.9153,948.4654,948.4654,950.6315,return,0.3678,,99.375,,,,,,FBP-OG-91.png,0.43,1.2,44,0.75,,,,,,,,,,,,,,,,,,0,9,9,43,1,,,,,,,,,,,,,,,,,,,,,,,
,,,,,V3_004,18,MALE,2024-10-13_15h46.10.110,jersey_experiment_5_v3,2023.2.2,Win32,60.24096386,,,,,,,,,,,,,,,,950.6317,952.1815,952.1815,954.2316,return,0.2338,,99.93055556,,,,,,FBP-OG-81.png,0.45,1.2,40,0.75,,,,,,,,,,,,,,,,,,0,10,10,39,1,,,,,,,,,,,,,,,,,,,,,,,
,,,,,V3_004,18,MALE,2024-10-13_15h46.10.110,jersey_experiment_5_v3,2023.2.2,Win32,60.24096386,,,,,,,,,,,,,,,,954.232,955.5319,955.532,957.465,return,1.388,,100,,,,,,FBP-PT-81.png,0.45,1.2,25,0.5,,,,,,,,,,,,,,,,,,0,11,11,24,1,,,,,,,,,,,,,,,,,,,,,,,
,,,,,V3_004,18,MALE,2024-10-13_15h46.10.110,jersey_experiment_5_v3,2023.2.2,Win32,60.24096386,,,,,,,,,,,,,,,,957.4655,958.7649,958.765,960.3981,return,0.2917,,25.06944444,,,,,,FBP-YG-19.png,0.37,1.2,12,0.5,,,,,,,,,,,,,,,,,,0,12,12,11,1,,,,,,,,,,,,,,,,,,,,,,,
,,,,,V3_004,18,MALE,2024-10-13_15h46.10.110,jersey_experiment_5_v3,2023.2.2,Win32,60.24096386,,,,,,,,,,,,,,,,960.3983,961.6981,961.6982,964.0651,return,0.2392,,99.79166667,,,,,,FBP-YG-19.png,0.45,1.2,15,0.5,,,,,,,,,,,,,,,,,,0,13,13,14,1,,,,,,,,,,,,,,,,,,,,,,,
,,,,,V3_004,18,MALE,2024-10-13_15h46.10.110,jersey_experiment_5_v3,2023.2.2,Win32,60.24096386,,,,,,,,,,,,,,,,964.0656,965.3651,965.3651,968.465,return,0.2241,,99.72222222,,,,,,FBP-PT-91.png,0.43,1.2,29,0.5,,,,,,,,,,,,,,,,,,0,14,14,28,1,,,,,,,,,,,,,,,,,,,,,,,
,,,,,V3_004,18,MALE,2024-10-13_15h46.10.110,jersey_experiment_5_v3,2023.2.2,Win32,60.24096386,,,,,,,,,,,,,,,,968.4655,969.7652,969.7653,971.5648,return,0.0921,,75,,,,,,FBP-YG-18.png,0.4,1.2,8,0.5,,,,,,,,,,,,,,,,,,0,15,15,7,1,,,,,,,,,,,,,,,,,,,,,,,
,,,,,V3_004,18,MALE,2024-10-13_15h46.10.110,jersey_experiment_5_v3,2023.2.2,Win32,60.24096386,,,,,,,,,,,,,,,,971.5654,972.8652,972.8653,974.8981,return,0.0874,,74.93055556,,,,,,FBP-RB-91.png,0.37,1.2,57,0.5,,,,,,,,,,,,,,,,,,0,16,16,56,1,,,,,,,,,,,,,,,,,,,,,,,
,,,,,V3_004,18,MALE,2024-10-13_15h46.10.110,jersey_experiment_5_v3,2023.2.2,Win32,60.24096386,,,,,,,,,,,,,,,,974.8983,976.1983,976.1984,977.3817,return,0.0348,,99.72222222,,,,,,FBP-PT-71.png,0.4,1.2,18,0.5,,,,,,,,,,,,,,,,,,0,17,17,17,1,,,,,,,,,,,,,,,,,,,,,,,
,,,,,V3_004,18,MALE,2024-10-13_15h46.10.110,jersey_experiment_5_v3,2023.2.2,Win32,60.24096386,,,,,,,,,,,,,,,,977.3821,978.6815,978.6815,979.0983,return,0.0346,,98.88888889,,,,,,FBP-YG-17.png,0.45,1.2,5,0.5,,,,,,,,,,,,,,,,,,0,18,18,4,1,,,,,,,,,,,,,,,,,,,,,,,
,,,,,V3_004,18,MALE,2024-10-13_15h46.10.110,jersey_experiment_5_v3,2023.2.2,Win32,60.24096386,,,,,,,,,,,,,,,,979.0988,980.6487,980.6487,981.4484,return,0.1833,,99.79166667,,,,,,FBP-OG-71.png,0.45,1.2,35,0.75,,,,,,,,,,,,,,,,,,0,19,19,34,1,,,,,,,,,,,,,,,,,,,,,,,
,,,,,V3_004,18,MALE,2024-10-13_15h46.10.110,jersey_experiment_5_v3,2023.2.2,Win32,60.24096386,,,,,,,,,,,,,,,,981.4489,982.7483,982.7483,983.1818,return,0.0753,,99.58333333,,,,,,FBP-YG-18.png,0.45,1.2,10,0.5,,,,,,,,,,,,,,,,,,0,20,20,9,1,,,,,,,,,,,,,,,,,,,,,,,
,,,,,V3_004,18,MALE,2024-10-13_15h46.10.110,jersey_experiment_5_v3,2023.2.2,Win32,60.24096386,,,,,,,,,,,,,,,,983.1822,984.4818,984.4818,986.1491,return,0.1863,,24.93055556,,,,,,FBP-PT-71.png,0.35,1.2,16,0.5,,,,,,,,,,,,,,,,,,0,21,21,15,1,,,,,,,,,,,,,,,,,,,,,,,
,,,,,V3_004,18,MALE,2024-10-13_15h46.10.110,jersey_experiment_5_v3,2023.2.2,Win32,60.24096386,,,,,,,,,,,,,,,,986.1495,987.4486,987.4487,988.9489,return,0.0856,,24.72222222,,,,,,FBP-PT-71.png,0.37,1.2,17,0.5,,,,,,,,,,,,,,,,,,0,22,22,16,1,,,,,,,,,,,,,,,,,,,,,,,
,,,,,V3_004,18,MALE,2024-10-13_15h46.10.110,jersey_experiment_5_v3,2023.2.2,Win32,60.24096386,,,,,,,,,,,,,,,,988.9493,990.2491,990.2492,992.6985,return,0.2827,,25.20833333,,,,,,FBP-RB-91.png,0.35,1.2,56,0.5,,,,,,,,,,,,,,,,,,0,23,23,55,1,,,,,,,,,,,,,,,,,,,,,,,
,,,,,V3_004,18,MALE,2024-10-13_15h46.10.110,jersey_experiment_5_v3,2023.2.2,Win32,60.24096386,,,,,,,,,,,,,,,,992.6989,993.999,993.9991,995.3154,return,0.2225,,99.93055556,,,,,,FBP-RB-71.png,0.4,1.2,48,0.5,,,,,,,,,,,,,,,,,,0,24,24,47,1,,,,,,,,,,,,,,,,,,,,,,,
,,,,,V3_004,18,MALE,2024-10-13_15h46.10.110,jersey_experiment_5_v3,2023.2.2,Win32,60.24096386,,,,,,,,,,,,,,,,995.3161,996.8654,996.8655,998.3153,return,0.2282,,99.79166667,,,,,,FBP-OG-91.png,0.45,1.2,45,0.75,,,,,,,,,,,,,,,,,,0,25,25,44,1,,,,,,,,,,,,,,,,,,,,,,,
,,,,,V3_004,18,MALE,2024-10-13_15h46.10.110,jersey_experiment_5_v3,2023.2.2,Win32,60.24096386,,,,,,,,,,,,,,,,998.3155,999.8662,999.8663,1001.1156,return,0.2507,,24.72222222,,,,,,FBP-OG-81.png,0.37,1.2,37,0.75,,,,,,,,,,,,,,,,,,0,26,26,36,1,,,,,,,,,,,,,,,,,,,,,,,
,,,,,V3_004,18,MALE,2024-10-13_15h46.10.110,jersey_experiment_5_v3,2023.2.2,Win32,60.24096386,,,,,,,,,,,,,,,,1001.116,1002.4156,1002.4157,1006.582,return,0.0999,,74.93055556,,,,,,FBP-YG-19.png,0.4,1.2,13,0.5,,,,,,,,,,,,,,,,,,0,27,27,12,1,,,,,,,,,,,,,,,,,,,,,,,
,,,,,V3_004,18,MALE,2024-10-13_15h46.10.110,jersey_experiment_5_v3,2023.2.2,Win32,60.24096386,,,,,,,,,,,,,,,,1006.5825,1007.882,1007.8822,1009.3151,return,0.2707,,99.93055556,,,,,,FBP-RB-91.png,0.43,1.2,59,0.5,,,,,,,,,,,,,,,,,,0,28,28,58,1,,,,,,,,,,,,,,,,,,,,,,,
,,,,,V3_004,18,MALE,2024-10-13_15h46.10.110,jersey_experiment_5_v3,2023.2.2,Win32,60.24096386,,,,,,,,,,,,,,,,1009.3154,1010.6152,1010.6152,1011.2986,return,0.2711,,99.93055556,,,,,,FBP-PT-91.png,0.45,1.2,30,0.5,,,,,,,,,,,,,,,,,,0,29,29,29,1,,,,,,,,,,,,,,,,,,,,,,,
,,,,,V3_004,18,MALE,2024-10-13_15h46.10.110,jersey_experiment_5_v3,2023.2.2,Win32,60.24096386,,,,,,,,,,,,,,,,1011.299,1012.5988,1012.599,1014.3652,return,0.1587,,74.86111111,,,,,,FBP-RB-71.png,0.35,1.2,46,0.5,,,,,,,,,,,,,,,,,,0,30,30,45,1,,,,,,,,,,,,,,,,,,,,,,,
,,,,,V3_004,18,MALE,2024-10-13_15h46.10.110,jersey_experiment_5_v3,2023.2.2,Win32,60.24096386,,,,,,,,,,,,,,,,1014.3655,1015.6657,1015.6658,1016.3654,return,0.0599,,75,,,,,,FBP-RB-91.png,0.4,1.2,58,0.5,,,,,,,,,,,,,,,,,,0,31,31,57,1,,,,,,,,,,,,,,,,,,,,,,,
,,,,,V3_004,18,MALE,2024-10-13_15h46.10.110,jersey_experiment_5_v3,2023.2.2,Win32,60.24096386,,,,,,,,,,,,,,,,1016.3659,1017.6661,1017.6662,1018.8818,return,0.2028,,99.58333333,,,,,,FBP-YG-17.png,0.43,1.2,4,0.5,,,,,,,,,,,,,,,,,,0,32,32,3,1,,,,,,,,,,,,,,,,,,,,,,,
,,,,,V3_004,18,MALE,2024-10-13_15h46.10.110,jersey_experiment_5_v3,2023.2.2,Win32,60.24096386,,,,,,,,,,,,,,,,1018.8822,1020.1819,1020.182,1020.6489,return,0.0826,,99.16666667,,,,,,FBP-YG-17.png,0.4,1.2,3,0.5,,,,,,,,,,,,,,,,,,0,33,33,2,1,,,,,,,,,,,,,,,,,,,,,,,
,,,,,V3_004,18,MALE,2024-10-13_15h46.10.110,jersey_experiment_5_v3,2023.2.2,Win32,60.24096386,,,,,,,,,,,,,,,,1020.6494,1021.9493,1021.9494,1022.5155,return,0.2527,,99.44444444,,,,,,FBP-RB-81.png,0.43,1.2,54,0.5,,,,,,,,,,,,,,,,,,0,34,34,53,1,,,,,,,,,,,,,,,,,,,,,,,
,,,,,V3_004,18,MALE,2024-10-13_15h46.10.110,jersey_experiment_5_v3,2023.2.2,Win32,60.24096386,,,,,,,,,,,,,,,,1022.5158,1023.8154,1023.8156,1026.2821,return,0.2674,,75.13888889,,,,,,FBP-YG-17.png,0.37,1.2,2,0.5,,,,,,,,,,,,,,,,,,0,35,35,1,1,,,,,,,,,,,,,,,,,,,,,,,
,,,,,V3_004,18,MALE,2024-10-13_15h46.10.110,jersey_experiment_5_v3,2023.2.2,Win32,60.24096386,,,,,,,,,,,,,,,,1026.2824,1027.5825,1027.5826,1029.1824,return,0.2588,,99.72222222,,,,,,FBP-RB-81.png,0.45,1.2,55,0.5,,,,,,,,,,,,,,,,,,0,36,36,54,1,,,,,,,,,,,,,,,,,,,,,,,
,,,,,V3_004,18,MALE,2024-10-13_15h46.10.110,jersey_experiment_5_v3,2023.2.2,Win32,60.24096386,,,,,,,,,,,,,,,,1029.1828,1030.4822,1030.4824,1031.6486,return,0.7398,,99.72222222,,,,,,FBP-RB-71.png,0.45,1.2,50,0.5,,,,,,,,,,,,,,,,,,0,37,37,49,1,,,,,,,,,,,,,,,,,,,,,,,
,,,,,V3_004,18,MALE,2024-10-13_15h46.10.110,jersey_experiment_5_v3,2023.2.2,Win32,60.24096386,,,,,,,,,,,,,,,,1031.6489,1032.949,1032.9492,1034.1822,return,0.8171,,99.51388889,,,,,,FBP-YG-18.png,0.43,1.2,9,0.5,,,,,,,,,,,,,,,,,,0,38,38,8,1,,,,,,,,,,,,,,,,,,,,,,,
,,,,,V3_004,18,MALE,2024-10-13_15h46.10.110,jersey_experiment_5_v3,2023.2.2,Win32,60.24096386,,,,,,,,,,,,,,,,1034.1825,1035.4828,1035.4828,1036.1655,return,0.2697,,99.93055556,,,,,,FBP-RB-91.png,0.45,1.2,60,0.5,,,,,,,,,,,,,,,,,,0,39,39,59,1,,,,,,,,,,,,,,,,,,,,,,,
,,,,,V3_004,18,MALE,2024-10-13_15h46.10.110,jersey_experiment_5_v3,2023.2.2,Win32,60.24096386,,,,,,,,,,,,,,,,1036.1659,1037.4657,1037.4657,1038.5993,return,0.2187,,25.06944444,,,,,,FBP-YG-17.png,0.35,1.2,1,0.5,,,,,,,,,,,,,,,,,,0,40,40,0,1,,,,,,,,,,,,,,,,,,,,,,,
,,,,,V3_004,18,MALE,2024-10-13_15h46.10.110,jersey_experiment_5_v3,2023.2.2,Win32,60.24096386,,,,,,,,,,,,,,,,1038.5997,1039.8987,1039.8989,1042.0156,return,0.274,,0.416666667,,,,,,FBP-PT-91.png,0.35,1.2,26,0.5,,,,,,,,,,,,,,,,,,0,41,41,25,1,,,,,,,,,,,,,,,,,,,,,,,
,,,,,V3_004,18,MALE,2024-10-13_15h46.10.110,jersey_experiment_5_v3,2023.2.2,Win32,60.24096386,,,,,,,,,,,,,,,,1042.0159,1043.3158,1043.3158,1044.6822,return,0.1852,,24.58333333,,,,,,FBP-RB-81.png,0.35,1.2,51,0.5,,,,,,,,,,,,,,,,,,0,42,42,50,1,,,,,,,,,,,,,,,,,,,,,,,
,,,,,V3_004,18,MALE,2024-10-13_15h46.10.110,jersey_experiment_5_v3,2023.2.2,Win32,60.24096386,,,,,,,,,,,,,,,,1044.6826,1046.2319,1046.2321,1047.1821,return,0.6243,,24.65277778,,,,,,FBP-OG-91.png,0.37,1.2,42,0.75,,,,,,,,,,,,,,,,,,0,43,43,41,1,,,,,,,,,,,,,,,,,,,,,,,
,,,,,V3_004,18,MALE,2024-10-13_15h46.10.110,jersey_experiment_5_v3,2023.2.2,Win32,60.24096386,,,,,,,,,,,,,,,,1047.1826,1048.4821,1048.4822,1050.9323,return,0.1383,,99.72222222,,,,,,FBP-RB-81.png,0.4,1.2,53,0.5,,,,,,,,,,,,,,,,,,0,44,44,52,1,,,,,,,,,,,,,,,,,,,,,,,
,,,,,V3_004,18,MALE,2024-10-13_15h46.10.110,jersey_experiment_5_v3,2023.2.2,Win32,60.24096386,,,,,,,,,,,,,,,,1050.9327,1052.4827,1052.4828,1053.6328,return,0.3082,,25.41666667,,,,,,FBP-OG-91.png,0.35,1.2,41,0.75,,,,,,,,,,,,,,,,,,0,45,45,40,1,,,,,,,,,,,,,,,,,,,,,,,
,,,,,V3_004,18,MALE,2024-10-13_15h46.10.110,jersey_experiment_5_v3,2023.2.2,Win32,60.24096386,,,,,,,,,,,,,,,,1053.6331,1055.1824,1055.1825,1056.6986,return,0.3113,,99.58333333,,,,,,FBP-OG-81.png,0.4,1.2,38,0.75,,,,,,,,,,,,,,,,,,0,46,46,37,1,,,,,,,,,,,,,,,,,,,,,,,
,,,,,V3_004,18,MALE,2024-10-13_15h46.10.110,jersey_experiment_5_v3,2023.2.2,Win32,60.24096386,,,,,,,,,,,,,,,,1056.6987,1057.999,1057.999,1059.2488,return,0.2716,,99.65277778,,,,,,FBP-PT-91.png,0.37,1.2,27,0.5,,,,,,,,,,,,,,,,,,0,47,47,26,1,,,,,,,,,,,,,,,,,,,,,,,
,,,,,V3_004,18,MALE,2024-10-13_15h46.10.110,jersey_experiment_5_v3,2023.2.2,Win32,60.24096386,,,,,,,,,,,,,,,,1059.2491,1060.7989,1060.7989,1061.7155,return,0.7366,,99.86111111,,,,,,FBP-OG-91.png,0.4,1.2,43,0.75,,,,,,,,,,,,,,,,,,0,48,48,42,1,,,,,,,,,,,,,,,,,,,,,,,
,,,,,V3_004,18,MALE,2024-10-13_15h46.10.110,jersey_experiment_5_v3,2023.2.2,Win32,60.24096386,,,,,,,,,,,,,,,,1061.7157,1063.0156,1063.0158,1063.6155,return,0.2904,,99.30555556,,,,,,FBP-PT-71.png,0.45,1.2,20,0.5,,,,,,,,,,,,,,,,,,0,49,49,19,1,,,,,,,,,,,,,,,,,,,,,,,
,,,,,V3_004,18,MALE,2024-10-13_15h46.10.110,jersey_experiment_5_v3,2023.2.2,Win32,60.24096386,,,,,,,,,,,,,,,,1063.6159,1065.1657,1065.1657,1066.7493,return,0.3433,,99.79166667,,,,,,FBP-OG-71.png,0.4,1.2,33,0.75,,,,,,,,,,,,,,,,,,0,50,50,32,1,,,,,,,,,,,,,,,,,,,,,,,
,,,,,V3_004,18,MALE,2024-10-13_15h46.10.110,jersey_experiment_5_v3,2023.2.2,Win32,60.24096386,,,,,,,,,,,,,,,,1066.7498,1068.049,1068.0491,1070.1159,return,0.3201,,0.208333333,,,,,,FBP-YG-18.png,0.35,1.2,6,0.5,,,,,,,,,,,,,,,,,,0,51,51,5,1,,,,,,,,,,,,,,,,,,,,,,,
,,,,,V3_004,18,MALE,2024-10-13_15h46.10.110,jersey_experiment_5_v3,2023.2.2,Win32,60.24096386,,,,,,,,,,,,,,,,1070.1162,1071.4158,1071.4158,1073.6663,return,0.222,,0.347222222,,,,,,FBP-PT-81.png,0.35,1.2,21,0.5,,,,,,,,,,,,,,,,,,0,52,52,20,1,,,,,,,,,,,,,,,,,,,,,,,
,,,,,V3_004,18,MALE,2024-10-13_15h46.10.110,jersey_experiment_5_v3,2023.2.2,Win32,60.24096386,,,,,,,,,,,,,,,,1073.6667,1075.2161,1075.2161,1077.0823,return,0.2348,,75,,,,,,FBP-OG-71.png,0.37,1.2,32,0.75,,,,,,,,,,,,,,,,,,0,53,53,31,1,,,,,,,,,,,,,,,,,,,,,,,
,,,,,V3_004,18,MALE,2024-10-13_15h46.10.110,jersey_experiment_5_v3,2023.2.2,Win32,60.24096386,,,,,,,,,,,,,,,,1077.0827,1078.6323,1078.6324,1080.0491,return,0.2563,,99.86111111,,,,,,FBP-OG-71.png,0.43,1.2,34,0.75,,,,,,,,,,,,,,,,,,0,54,54,33,1,,,,,,,,,,,,,,,,,,,,,,,
,,,,,V3_004,18,MALE,2024-10-13_15h46.10.110,jersey_experiment_5_v3,2023.2.2,Win32,60.24096386,,,,,,,,,,,,,,,,1080.0496,1081.3492,1081.3492,1082.6156,return,0.6493,,100,,,,,,FBP-YG-19.png,0.43,1.2,14,0.5,,,,,,,,,,,,,,,,,,0,55,55,13,1,,,,,,,,,,,,,,,,,,,,,,,
,,,,,V3_004,18,MALE,2024-10-13_15h46.10.110,jersey_experiment_5_v3,2023.2.2,Win32,60.24096386,,,,,,,,,,,,,,,,1082.6161,1083.9157,1083.9158,1085.699,return,0.8876,,100,,,,,,FBP-PT-81.png,0.4,1.2,23,0.5,,,,,,,,,,,,,,,,,,0,56,56,22,1,,,,,,,,,,,,,,,,,,,,,,,
,,,,,V3_004,18,MALE,2024-10-13_15h46.10.110,jersey_experiment_5_v3,2023.2.2,Win32,60.24096386,,,,,,,,,,,,,,,,1085.6996,1086.9991,1086.9992,1088.3654,return,0.1428,,75,,,,,,FBP-YG-18.png,0.37,1.2,7,0.5,,,,,,,,,,,,,,,,,,0,57,57,6,1,,,,,,,,,,,,,,,,,,,,,,,
,,,,,V3_004,18,MALE,2024-10-13_15h46.10.110,jersey_experiment_5_v3,2023.2.2,Win32,60.24096386,,,,,,,,,,,,,,,,1088.3658,1089.9159,1089.916,1091.1823,return,0.1909,,24.58333333,,,,,,FBP-OG-81.png,0.35,1.2,36,0.75,,,,,,,,,,,,,,,,,,0,58,58,35,1,,,,,,,,,,,,,,,,,,,,,,,
,,,,,V3_004,18,MALE,2024-10-13_15h46.10.110,jersey_experiment_5_v3,2023.2.2,Win32,60.24096386,,,,,,,,,,,,,,,,1091.1826,1092.4824,1092.4824,1094.8325,return,0.2584,,74.65277778,,,,,,FBP-RB-71.png,0.37,1.2,47,0.5,,,,,,,,,,,,,,,,,,0,59,59,46,1,,,,,,,,,,,,,,,,,,,,,,,
,,,,,V3_004,18,MALE,2024-10-13_15h46.10.110,jersey_experiment_5_v3,2023.2.2,Win32,60.24096386,,,,,,,,,,,,,,,,,,,,,,,,,,,,,,,,,,,,,,,,,,,,,,,,,,,,,,,,1094.8331,1102.7995,return,7.9554,,,,,,,,,,,,,,,,,,,
,,,,,V3_004,18,MALE,2024-10-13_15h46.10.110,jersey_experiment_5_v3,2023.2.2,Win32,60.24096386,,,,,,,,,,,,,,,,,,,,,,,,,,,,,,,,,,,,,,,,,,,,,,,,,,,,,,,,,,,,,1102.7996,1107.4161,1,3.7232,return,0.8754,,,,,,,,,,,,
,,,,,V3_004,18,MALE,2024-10-13_15h46.10.110,jersey_experiment_5_v3,2023.2.2,Win32,60.24096386,,,,,,,,,,,,,,,,,,,,,,,,,,,,,,,,,,,,,,,,,,,,,,,,,,,,,,,,,,,,,,,,,,,,1107.4162,1222.6596,"In my opinion I feel like this test is based on perception partnered up with repetition. For example, I saw the same husky football player, then after a while a new football player that was not husky and through perception I believed the football player was skinny.",right,109.7502,,,,,,
,,,,,V3_004,18,MALE,2024-10-13_15h46.10.110,jersey_experiment_5_v3,2023.2.2,Win32,60.24096386,,,,,,,,,,,,,,,,,,,,,,,,,,,,,,,,,,,,,,,,,,,,,,,,,,,,,,,,,,,,,,,,,,,,,,,,,,1222.6599,1230.4006,return,7.7286,