requirements.started,requirements.stopped,key_resp_3.keys,key_resp_3.rt,key_resp_3.duration,Subject ID,Age,Gender,date,expName,psychopyVersion,OS,frameRate,instructions1.started,instructions1.stopped,key_resp.keys,key_resp.rt,key_resp.duration,example.started,example.stopped,enter_2.keys,enter_2.rt,enter_2.duration,instructions2.started,instructions2.stopped,enter_3.keys,enter_3.rt,enter_3.duration,image.started,image.stopped,slider_2.started,slider_2.stopped,next.keys,next.rt,next.duration,slider.response,trial_block_1.thisRepN,trial_block_1.thisTrialN,trial_block_1.thisN,trial_block_1.thisIndex,trial_block_1.ran,Path,Width,Height,Index,Duration,trial_block_2.thisRepN,trial_block_2.thisTrialN,trial_block_2.thisN,trial_block_2.thisIndex,trial_block_2.ran,rest_break.started,rest_break.stopped,end_break.started,end_break.stopped,key_resp_5.keys,key_resp_5.rt,key_resp_5.duration,trial_block_3.thisRepN,trial_block_3.thisTrialN,trial_block_3.thisN,trial_block_3.thisIndex,trial_block_3.ran,trial_block_4.thisRepN,trial_block_4.thisTrialN,trial_block_4.thisN,trial_block_4.thisIndex,trial_block_4.ran,questions_intro.started,questions_intro.stopped,enter_12.keys,enter_12.rt,enter_12.duration,question2.started,question2.stopped,question_doingbest.response,question_doingbest.rt,enter_15.keys,enter_15.rt,enter_15.duration,pattern.started,pattern.stopped,pattern_2.text,enter_17.keys,enter_17.rt,enter_17.duration,thankyou.started,thankyou.stopped,enter_14.keys,enter_14.rt,enter_14.duration
0,15.6735,return,15.6635,,V3_045,19,F,2024-11-04_15h48.14.340,jersey_experiment_5_v3,2023.2.2,Win32,85.47008547,,,,,,,,,,,,,,,,,,,,,,,,,,,,,,,,,,,,,,,,,,,,,,,,,,,,,,,,,,,,,,,,,,,,,,,,,,,,,,
,,,,,V3_045,19,F,2024-11-04_15h48.14.340,jersey_experiment_5_v3,2023.2.2,Win32,85.47008547,15.6736,27.8805,return,12.1889,,,,,,,,,,,,,,,,,,,,,,,,,,,,,,,,,,,,,,,,,,,,,,,,,,,,,,,,,,,,,,,,,,,,,,,,,,
,,,,,V3_045,19,F,2024-11-04_15h48.14.340,jersey_experiment_5_v3,2023.2.2,Win32,85.47008547,,,,,,27.8806,31.0388,return,3.1311,,,,,,,,,,,,,,,,,,,,,,,,,,,,,,,,,,,,,,,,,,,,,,,,,,,,,,,,,,,,,,,,,,,,,
,,,,,V3_045,19,F,2024-11-04_15h48.14.340,jersey_experiment_5_v3,2023.2.2,Win32,85.47008547,,,,,,,,,,,31.039,44.1803,return,13.1296,,,,,,,,,,,,,,,,,,,,,,,,,,,,,,,,,,,,,,,,,,,,,,,,,,,,,,,,,,,,,,,,
,,,,,V3_045,19,F,2024-11-04_15h48.14.340,jersey_experiment_5_v3,2023.2.2,Win32,85.47008547,,,,,,,,,,,,,,,,44.1832,45.7334,45.7335,61.0869,return,2.0903,,35.28645833,0,0,0,49,1,FBP-RB-17.png,0.45,1.2,50,0.75,,,,,,,,,,,,,,,,,,,,,,,,,,,,,,,,,,,,,,,,,,,,,
,,,,,V3_045,19,F,2024-11-04_15h48.14.340,jersey_experiment_5_v3,2023.2.2,Win32,85.47008547,,,,,,,,,,,,,,,,61.0873,62.6397,62.6398,67.5339,return,2.4987,,74.609375,0,1,1,19,1,FBP-PT-17.png,0.45,1.2,20,0.75,,,,,,,,,,,,,,,,,,,,,,,,,,,,,,,,,,,,,,,,,,,,,
,,,,,V3_045,19,F,2024-11-04_15h48.14.340,jersey_experiment_5_v3,2023.2.2,Win32,85.47008547,,,,,,,,,,,,,,,,67.5342,69.0868,69.0869,73.593,return,1.6002,,57.16145833,0,2,2,8,1,FBP-YG-81.png,0.43,1.2,9,0.75,,,,,,,,,,,,,,,,,,,,,,,,,,,,,,,,,,,,,,,,,,,,,
,,,,,V3_045,19,F,2024-11-04_15h48.14.340,jersey_experiment_5_v3,2023.2.2,Win32,85.47008547,,,,,,,,,,,,,,,,73.5933,75.1461,75.1461,79.8285,return,2.7784,,75,0,3,3,29,1,FBP-PT-19.png,0.45,1.2,30,0.75,,,,,,,,,,,,,,,,,,,,,,,,,,,,,,,,,,,,,,,,,,,,,
,,,,,V3_045,19,F,2024-11-04_15h48.14.340,jersey_experiment_5_v3,2023.2.2,Win32,85.47008547,,,,,,,,,,,,,,,,79.8288,81.3814,81.3814,84.6169,return,1.4015,,25.13020833,0,4,4,15,1,FBP-PT-17.png,0.35,1.2,16,0.75,,,,,,,,,,,,,,,,,,,,,,,,,,,,,,,,,,,,,,,,,,,,,
,,,,,V3_045,19,F,2024-11-04_15h48.14.340,jersey_experiment_5_v3,2023.2.2,Win32,85.47008547,,,,,,,,,,,,,,,,84.617,86.1699,86.17,91.2172,return,3.1213,,81.90104167,0,5,5,23,1,FBP-PT-18.png,0.43,1.2,24,0.75,,,,,,,,,,,,,,,,,,,,,,,,,,,,,,,,,,,,,,,,,,,,,
,,,,,V3_045,19,F,2024-11-04_15h48.14.340,jersey_experiment_5_v3,2023.2.2,Win32,85.47008547,,,,,,,,,,,,,,,,91.2176,92.7702,92.7703,95.3938,return,1.0753,,25.390625,0,6,6,21,1,FBP-PT-18.png,0.37,1.2,22,0.75,,,,,,,,,,,,,,,,,,,,,,,,,,,,,,,,,,,,,,,,,,,,,
,,,,,V3_045,19,F,2024-11-04_15h48.14.340,jersey_experiment_5_v3,2023.2.2,Win32,85.47008547,,,,,,,,,,,,,,,,95.394,96.9468,96.9468,101.8293,return,2.8113,,87.109375,0,7,7,59,1,FBP-RB-19.png,0.45,1.2,60,0.75,,,,,,,,,,,,,,,,,,,,,,,,,,,,,,,,,,,,,,,,,,,,,
,,,,,V3_045,19,F,2024-11-04_15h48.14.340,jersey_experiment_5_v3,2023.2.2,Win32,85.47008547,,,,,,,,,,,,,,,,101.8296,103.1235,103.1235,110.0884,return,4.691,,38.15104167,0,8,8,31,1,FBP-OG-17.png,0.37,1.2,32,0.5,,,,,,,,,,,,,,,,,,,,,,,,,,,,,,,,,,,,,,,,,,,,,
,,,,,V3_045,19,F,2024-11-04_15h48.14.340,jersey_experiment_5_v3,2023.2.2,Win32,85.47008547,,,,,,,,,,,,,,,,110.0887,111.6415,111.6415,115.7356,return,2.4085,,78.38541667,0,9,9,53,1,FBP-RB-18.png,0.43,1.2,54,0.75,,,,,,,,,,,,,,,,,,,,,,,,,,,,,,,,,,,,,,,,,,,,,
,,,,,V3_045,19,F,2024-11-04_15h48.14.340,jersey_experiment_5_v3,2023.2.2,Win32,85.47008547,,,,,,,,,,,,,,,,115.7361,117.2887,117.2887,123.5829,return,4.4663,,29.81770833,0,10,10,0,1,FBP-YG-71.png,0.35,1.2,1,0.75,,,,,,,,,,,,,,,,,,,,,,,,,,,,,,,,,,,,,,,,,,,,,
,,,,,V3_045,19,F,2024-11-04_15h48.14.340,jersey_experiment_5_v3,2023.2.2,Win32,85.47008547,,,,,,,,,,,,,,,,123.5832,125.136,125.1361,128.9949,return,2.6608,,30.20833333,0,11,11,20,1,FBP-PT-18.png,0.35,1.2,21,0.75,,,,,,,,,,,,,,,,,,,,,,,,,,,,,,,,,,,,,,,,,,,,,
,,,,,V3_045,19,F,2024-11-04_15h48.14.340,jersey_experiment_5_v3,2023.2.2,Win32,85.47008547,,,,,,,,,,,,,,,,128.9953,130.548,130.548,138.0071,return,5.0748,,45.18229167,0,12,12,50,1,FBP-RB-18.png,0.35,1.2,51,0.75,,,,,,,,,,,,,,,,,,,,,,,,,,,,,,,,,,,,,,,,,,,,,
,,,,,V3_045,19,F,2024-11-04_15h48.14.340,jersey_experiment_5_v3,2023.2.2,Win32,85.47008547,,,,,,,,,,,,,,,,138.0073,139.3012,139.3012,143.7601,return,2.8395,,86.58854167,0,13,13,42,1,FBP-OG-19.png,0.4,1.2,43,0.5,,,,,,,,,,,,,,,,,,,,,,,,,,,,,,,,,,,,,,,,,,,,,
,,,,,V3_045,19,F,2024-11-04_15h48.14.340,jersey_experiment_5_v3,2023.2.2,Win32,85.47008547,,,,,,,,,,,,,,,,143.7605,145.3132,145.3133,147.8309,return,1.2003,,89.32291667,0,14,14,18,1,FBP-PT-17.png,0.43,1.2,19,0.75,,,,,,,,,,,,,,,,,,,,,,,,,,,,,,,,,,,,,,,,,,,,,
,,,,,V3_045,19,F,2024-11-04_15h48.14.340,jersey_experiment_5_v3,2023.2.2,Win32,85.47008547,,,,,,,,,,,,,,,,147.8311,149.3839,149.384,152.1839,return,1.3883,,86.58854167,0,15,15,13,1,FBP-YG-91.png,0.43,1.2,14,0.75,,,,,,,,,,,,,,,,,,,,,,,,,,,,,,,,,,,,,,,,,,,,,
,,,,,V3_045,19,F,2024-11-04_15h48.14.340,jersey_experiment_5_v3,2023.2.2,Win32,85.47008547,,,,,,,,,,,,,,,,152.1842,153.737,153.7371,155.9018,return,0.6441,,27.08333333,0,16,16,10,1,FBP-YG-91.png,0.35,1.2,11,0.75,,,,,,,,,,,,,,,,,,,,,,,,,,,,,,,,,,,,,,,,,,,,,
,,,,,V3_045,19,F,2024-11-04_15h48.14.340,jersey_experiment_5_v3,2023.2.2,Win32,85.47008547,,,,,,,,,,,,,,,,155.9022,157.4549,157.4549,160.0313,return,1.3247,,92.96875,0,17,17,54,1,FBP-RB-18.png,0.45,1.2,55,0.75,,,,,,,,,,,,,,,,,,,,,,,,,,,,,,,,,,,,,,,,,,,,,
,,,,,V3_045,19,F,2024-11-04_15h48.14.340,jersey_experiment_5_v3,2023.2.2,Win32,85.47008547,,,,,,,,,,,,,,,,160.0316,161.5843,161.5843,163.6668,return,0.7772,,90.625,0,18,18,22,1,FBP-PT-18.png,0.4,1.2,23,0.75,,,,,,,,,,,,,,,,,,,,,,,,,,,,,,,,,,,,,,,,,,,,,
,,,,,V3_045,19,F,2024-11-04_15h48.14.340,jersey_experiment_5_v3,2023.2.2,Win32,85.47008547,,,,,,,,,,,,,,,,163.667,165.2199,165.22,166.5256,return,0.7142,,88.41145833,0,19,19,28,1,FBP-PT-19.png,0.43,1.2,29,0.75,,,,,,,,,,,,,,,,,,,,,,,,,,,,,,,,,,,,,,,,,,,,,
,,,,,V3_045,19,F,2024-11-04_15h48.14.340,jersey_experiment_5_v3,2023.2.2,Win32,85.47008547,,,,,,,,,,,,,,,,166.5259,168.0786,168.0787,173.326,return,3.797,,61.45833333,0,20,20,3,1,FBP-YG-71.png,0.43,1.2,4,0.75,,,,,,,,,,,,,,,,,,,,,,,,,,,,,,,,,,,,,,,,,,,,,
,,,,,V3_045,19,F,2024-11-04_15h48.14.340,jersey_experiment_5_v3,2023.2.2,Win32,85.47008547,,,,,,,,,,,,,,,,173.3263,174.8789,174.879,180.9144,return,4.2982,,53.515625,0,21,21,52,1,FBP-RB-18.png,0.4,1.2,53,0.75,,,,,,,,,,,,,,,,,,,,,,,,,,,,,,,,,,,,,,,,,,,,,
,,,,,V3_045,19,F,2024-11-04_15h48.14.340,jersey_experiment_5_v3,2023.2.2,Win32,85.47008547,,,,,,,,,,,,,,,,180.9146,182.2086,182.2087,185.3147,return,2.2981,,25.26041667,0,22,22,36,1,FBP-OG-18.png,0.37,1.2,37,0.5,,,,,,,,,,,,,,,,,,,,,,,,,,,,,,,,,,,,,,,,,,,,,
,,,,,V3_045,19,F,2024-11-04_15h48.14.340,jersey_experiment_5_v3,2023.2.2,Win32,85.47008547,,,,,,,,,,,,,,,,185.3149,186.8678,186.8678,192.056,return,2.3162,,42.1875,0,23,23,2,1,FBP-YG-71.png,0.4,1.2,3,0.75,,,,,,,,,,,,,,,,,,,,,,,,,,,,,,,,,,,,,,,,,,,,,
,,,,,V3_045,19,F,2024-11-04_15h48.14.340,jersey_experiment_5_v3,2023.2.2,Win32,85.47008547,,,,,,,,,,,,,,,,192.0562,193.3502,193.3502,196.6798,return,1.2241,,36.71875,0,24,24,41,1,FBP-OG-19.png,0.37,1.2,42,0.5,,,,,,,,,,,,,,,,,,,,,,,,,,,,,,,,,,,,,,,,,,,,,
,,,,,V3_045,19,F,2024-11-04_15h48.14.340,jersey_experiment_5_v3,2023.2.2,Win32,85.47008547,,,,,,,,,,,,,,,,196.68,198.2328,198.2329,204.2329,return,3.0015,,52.60416667,0,25,25,57,1,FBP-RB-19.png,0.4,1.2,58,0.75,,,,,,,,,,,,,,,,,,,,,,,,,,,,,,,,,,,,,,,,,,,,,
,,,,,V3_045,19,F,2024-11-04_15h48.14.340,jersey_experiment_5_v3,2023.2.2,Win32,85.47008547,,,,,,,,,,,,,,,,204.2332,205.5271,205.5272,207.7626,return,0.8156,,30.20833333,0,26,26,30,1,FBP-OG-17.png,0.35,1.2,31,0.5,,,,,,,,,,,,,,,,,,,,,,,,,,,,,,,,,,,,,,,,,,,,,
,,,,,V3_045,19,F,2024-11-04_15h48.14.340,jersey_experiment_5_v3,2023.2.2,Win32,85.47008547,,,,,,,,,,,,,,,,207.7628,209.3156,209.3158,211.445,return,0.6599,,76.43229167,0,27,27,24,1,FBP-PT-18.png,0.45,1.2,25,0.75,,,,,,,,,,,,,,,,,,,,,,,,,,,,,,,,,,,,,,,,,,,,,
,,,,,V3_045,19,F,2024-11-04_15h48.14.340,jersey_experiment_5_v3,2023.2.2,Win32,85.47008547,,,,,,,,,,,,,,,,211.4451,212.9863,212.9863,215.7157,return,1.0496,,28.125,0,28,28,46,1,FBP-RB-17.png,0.37,1.2,47,0.75,,,,,,,,,,,,,,,,,,,,,,,,,,,,,,,,,,,,,,,,,,,,,
,,,,,V3_045,19,F,2024-11-04_15h48.14.340,jersey_experiment_5_v3,2023.2.2,Win32,85.47008547,,,,,,,,,,,,,,,,215.7159,217.01,217.01,218.7982,return,0.7732,,91.14583333,0,29,29,38,1,FBP-OG-18.png,0.43,1.2,39,0.5,,,,,,,,,,,,,,,,,,,,,,,,,,,,,,,,,,,,,,,,,,,,,
,,,,,V3_045,19,F,2024-11-04_15h48.14.340,jersey_experiment_5_v3,2023.2.2,Win32,85.47008547,,,,,,,,,,,,,,,,218.7985,220.3511,220.3512,225.1866,return,3.6979,,25.78125,0,30,30,5,1,FBP-YG-81.png,0.35,1.2,6,0.75,,,,,,,,,,,,,,,,,,,,,,,,,,,,,,,,,,,,,,,,,,,,,
,,,,,V3_045,19,F,2024-11-04_15h48.14.340,jersey_experiment_5_v3,2023.2.2,Win32,85.47008547,,,,,,,,,,,,,,,,225.1868,226.4808,226.4809,228.9749,return,1.2419,,92.96875,0,31,31,39,1,FBP-OG-18.png,0.45,1.2,40,0.5,,,,,,,,,,,,,,,,,,,,,,,,,,,,,,,,,,,,,,,,,,,,,
,,,,,V3_045,19,F,2024-11-04_15h48.14.340,jersey_experiment_5_v3,2023.2.2,Win32,85.47008547,,,,,,,,,,,,,,,,228.9752,230.2691,230.2692,232.1517,return,0.9729,,88.02083333,0,32,32,34,1,FBP-OG-17.png,0.45,1.2,35,0.5,,,,,,,,,,,,,,,,,,,,,,,,,,,,,,,,,,,,,,,,,,,,,
,,,,,V3_045,19,F,2024-11-04_15h48.14.340,jersey_experiment_5_v3,2023.2.2,Win32,85.47008547,,,,,,,,,,,,,,,,232.1519,233.7049,233.7049,236.7753,return,2.0958,,73.30729167,0,33,33,7,1,FBP-YG-81.png,0.4,1.2,8,0.75,,,,,,,,,,,,,,,,,,,,,,,,,,,,,,,,,,,,,,,,,,,,,
,,,,,V3_045,19,F,2024-11-04_15h48.14.340,jersey_experiment_5_v3,2023.2.2,Win32,85.47008547,,,,,,,,,,,,,,,,236.7756,238.0695,238.0695,240.3754,return,1.3426,,25,0,34,34,40,1,FBP-OG-19.png,0.35,1.2,41,0.5,,,,,,,,,,,,,,,,,,,,,,,,,,,,,,,,,,,,,,,,,,,,,
,,,,,V3_045,19,F,2024-11-04_15h48.14.340,jersey_experiment_5_v3,2023.2.2,Win32,85.47008547,,,,,,,,,,,,,,,,240.3756,241.6696,241.6696,244.1755,return,1.0972,,62.63020833,0,35,35,37,1,FBP-OG-18.png,0.4,1.2,38,0.5,,,,,,,,,,,,,,,,,,,,,,,,,,,,,,,,,,,,,,,,,,,,,
,,,,,V3_045,19,F,2024-11-04_15h48.14.340,jersey_experiment_5_v3,2023.2.2,Win32,85.47008547,,,,,,,,,,,,,,,,244.1757,245.7286,245.7287,248.1993,return,0.975,,36.97916667,0,36,36,51,1,FBP-RB-18.png,0.37,1.2,52,0.75,,,,,,,,,,,,,,,,,,,,,,,,,,,,,,,,,,,,,,,,,,,,,
,,,,,V3_045,19,F,2024-11-04_15h48.14.340,jersey_experiment_5_v3,2023.2.2,Win32,85.47008547,,,,,,,,,,,,,,,,248.1995,249.7521,249.7521,253.2817,return,2.225,,45.18229167,0,37,37,26,1,FBP-PT-19.png,0.37,1.2,27,0.75,,,,,,,,,,,,,,,,,,,,,,,,,,,,,,,,,,,,,,,,,,,,,
,,,,,V3_045,19,F,2024-11-04_15h48.14.340,jersey_experiment_5_v3,2023.2.2,Win32,85.47008547,,,,,,,,,,,,,,,,253.2819,254.8346,254.8347,258.8936,return,0.6793,,43.48958333,0,38,38,45,1,FBP-RB-17.png,0.35,1.2,46,0.75,,,,,,,,,,,,,,,,,,,,,,,,,,,,,,,,,,,,,,,,,,,,,
,,,,,V3_045,19,F,2024-11-04_15h48.14.340,jersey_experiment_5_v3,2023.2.2,Win32,85.47008547,,,,,,,,,,,,,,,,258.8938,260.435,260.435,261.929,return,0.586,,60.28645833,0,39,39,11,1,FBP-YG-91.png,0.37,1.2,12,0.75,,,,,,,,,,,,,,,,,,,,,,,,,,,,,,,,,,,,,,,,,,,,,
,,,,,V3_045,19,F,2024-11-04_15h48.14.340,jersey_experiment_5_v3,2023.2.2,Win32,85.47008547,,,,,,,,,,,,,,,,261.9293,263.482,263.482,265.6704,return,1.2231,,64.0625,0,40,40,47,1,FBP-RB-17.png,0.4,1.2,48,0.75,,,,,,,,,,,,,,,,,,,,,,,,,,,,,,,,,,,,,,,,,,,,,
,,,,,V3_045,19,F,2024-11-04_15h48.14.340,jersey_experiment_5_v3,2023.2.2,Win32,85.47008547,,,,,,,,,,,,,,,,265.6707,267.2236,267.2237,269.0471,return,0.9168,,60.67708333,0,41,41,6,1,FBP-YG-81.png,0.37,1.2,7,0.75,,,,,,,,,,,,,,,,,,,,,,,,,,,,,,,,,,,,,,,,,,,,,
,,,,,V3_045,19,F,2024-11-04_15h48.14.340,jersey_experiment_5_v3,2023.2.2,Win32,85.47008547,,,,,,,,,,,,,,,,269.0474,270.6,270.6001,273.9767,return,0.6847,,59.11458333,0,42,42,56,1,FBP-RB-19.png,0.37,1.2,57,0.75,,,,,,,,,,,,,,,,,,,,,,,,,,,,,,,,,,,,,,,,,,,,,
,,,,,V3_045,19,F,2024-11-04_15h48.14.340,jersey_experiment_5_v3,2023.2.2,Win32,85.47008547,,,,,,,,,,,,,,,,273.9769,275.5298,275.5298,276.7767,return,0.6358,,82.16145833,0,43,43,58,1,FBP-RB-19.png,0.43,1.2,59,0.75,,,,,,,,,,,,,,,,,,,,,,,,,,,,,,,,,,,,,,,,,,,,,
,,,,,V3_045,19,F,2024-11-04_15h48.14.340,jersey_experiment_5_v3,2023.2.2,Win32,85.47008547,,,,,,,,,,,,,,,,276.7769,278.071,278.071,281.2828,return,0.6625,,41.796875,0,44,44,35,1,FBP-OG-18.png,0.35,1.2,36,0.5,,,,,,,,,,,,,,,,,,,,,,,,,,,,,,,,,,,,,,,,,,,,,
,,,,,V3_045,19,F,2024-11-04_15h48.14.340,jersey_experiment_5_v3,2023.2.2,Win32,85.47008547,,,,,,,,,,,,,,,,281.2831,282.5768,282.5769,286.6947,return,2.3388,,49.21875,0,45,45,32,1,FBP-OG-17.png,0.4,1.2,33,0.5,,,,,,,,,,,,,,,,,,,,,,,,,,,,,,,,,,,,,,,,,,,,,
,,,,,V3_045,19,F,2024-11-04_15h48.14.340,jersey_experiment_5_v3,2023.2.2,Win32,85.47008547,,,,,,,,,,,,,,,,286.695,288.2479,288.2479,289.6947,return,0.8039,,89.19270833,0,46,46,14,1,FBP-YG-91.png,0.45,1.2,15,0.75,,,,,,,,,,,,,,,,,,,,,,,,,,,,,,,,,,,,,,,,,,,,,
,,,,,V3_045,19,F,2024-11-04_15h48.14.340,jersey_experiment_5_v3,2023.2.2,Win32,85.47008547,,,,,,,,,,,,,,,,289.6949,290.989,290.989,292.9301,return,0.6479,,89.32291667,0,47,47,44,1,FBP-OG-19.png,0.45,1.2,45,0.5,,,,,,,,,,,,,,,,,,,,,,,,,,,,,,,,,,,,,,,,,,,,,
,,,,,V3_045,19,F,2024-11-04_15h48.14.340,jersey_experiment_5_v3,2023.2.2,Win32,85.47008547,,,,,,,,,,,,,,,,292.9304,294.4831,294.4833,296.1656,return,0.9881,,82.03125,0,48,48,48,1,FBP-RB-17.png,0.43,1.2,49,0.75,,,,,,,,,,,,,,,,,,,,,,,,,,,,,,,,,,,,,,,,,,,,,
,,,,,V3_045,19,F,2024-11-04_15h48.14.340,jersey_experiment_5_v3,2023.2.2,Win32,85.47008547,,,,,,,,,,,,,,,,296.1659,297.7188,297.7189,299.0245,return,0.6175,,32.29166667,0,49,49,12,1,FBP-YG-91.png,0.4,1.2,13,0.75,,,,,,,,,,,,,,,,,,,,,,,,,,,,,,,,,,,,,,,,,,,,,
,,,,,V3_045,19,F,2024-11-04_15h48.14.340,jersey_experiment_5_v3,2023.2.2,Win32,85.47008547,,,,,,,,,,,,,,,,299.0247,300.5775,300.5775,301.8011,return,0.5961,,28.77604167,0,50,50,55,1,FBP-RB-19.png,0.35,1.2,56,0.75,,,,,,,,,,,,,,,,,,,,,,,,,,,,,,,,,,,,,,,,,,,,,
,,,,,V3_045,19,F,2024-11-04_15h48.14.340,jersey_experiment_5_v3,2023.2.2,Win32,85.47008547,,,,,,,,,,,,,,,,301.8014,303.3541,303.3542,304.8953,return,0.6407,,26.69270833,0,51,51,1,1,FBP-YG-71.png,0.37,1.2,2,0.75,,,,,,,,,,,,,,,,,,,,,,,,,,,,,,,,,,,,,,,,,,,,,
,,,,,V3_045,19,F,2024-11-04_15h48.14.340,jersey_experiment_5_v3,2023.2.2,Win32,85.47008547,,,,,,,,,,,,,,,,304.8956,306.4484,306.4484,308.0953,return,0.5833,,38.15104167,0,52,52,27,1,FBP-PT-19.png,0.4,1.2,28,0.75,,,,,,,,,,,,,,,,,,,,,,,,,,,,,,,,,,,,,,,,,,,,,
,,,,,V3_045,19,F,2024-11-04_15h48.14.340,jersey_experiment_5_v3,2023.2.2,Win32,85.47008547,,,,,,,,,,,,,,,,308.0956,309.3896,309.3896,310.8838,return,0.6222,,75.13020833,0,53,53,43,1,FBP-OG-19.png,0.43,1.2,44,0.5,,,,,,,,,,,,,,,,,,,,,,,,,,,,,,,,,,,,,,,,,,,,,
,,,,,V3_045,19,F,2024-11-04_15h48.14.340,jersey_experiment_5_v3,2023.2.2,Win32,85.47008547,,,,,,,,,,,,,,,,310.8841,312.437,312.4371,314.084,return,0.7083,,25.91145833,0,54,54,16,1,FBP-PT-17.png,0.37,1.2,17,0.75,,,,,,,,,,,,,,,,,,,,,,,,,,,,,,,,,,,,,,,,,,,,,
,,,,,V3_045,19,F,2024-11-04_15h48.14.340,jersey_experiment_5_v3,2023.2.2,Win32,85.47008547,,,,,,,,,,,,,,,,314.0842,315.6253,315.6253,317.9428,return,1.1767,,80.33854167,0,55,55,4,1,FBP-YG-71.png,0.45,1.2,5,0.75,,,,,,,,,,,,,,,,,,,,,,,,,,,,,,,,,,,,,,,,,,,,,
,,,,,V3_045,19,F,2024-11-04_15h48.14.340,jersey_experiment_5_v3,2023.2.2,Win32,85.47008547,,,,,,,,,,,,,,,,317.9432,319.4959,319.4959,324.0842,return,0.9667,,70.96354167,0,56,56,9,1,FBP-YG-81.png,0.45,1.2,10,0.75,,,,,,,,,,,,,,,,,,,,,,,,,,,,,,,,,,,,,,,,,,,,,
,,,,,V3_045,19,F,2024-11-04_15h48.14.340,jersey_experiment_5_v3,2023.2.2,Win32,85.47008547,,,,,,,,,,,,,,,,324.0845,325.6373,325.6374,328.0962,return,1.265,,34.375,0,57,57,25,1,FBP-PT-19.png,0.35,1.2,26,0.75,,,,,,,,,,,,,,,,,,,,,,,,,,,,,,,,,,,,,,,,,,,,,
,,,,,V3_045,19,F,2024-11-04_15h48.14.340,jersey_experiment_5_v3,2023.2.2,Win32,85.47008547,,,,,,,,,,,,,,,,328.0964,329.3902,329.3903,332.7199,return,1.9934,,81.640625,0,58,58,33,1,FBP-OG-17.png,0.43,1.2,34,0.5,,,,,,,,,,,,,,,,,,,,,,,,,,,,,,,,,,,,,,,,,,,,,
,,,,,V3_045,19,F,2024-11-04_15h48.14.340,jersey_experiment_5_v3,2023.2.2,Win32,85.47008547,,,,,,,,,,,,,,,,332.7201,334.2728,334.2728,336.9788,return,1.2271,,26.30208333,0,59,59,17,1,FBP-PT-17.png,0.4,1.2,18,0.75,,,,,,,,,,,,,,,,,,,,,,,,,,,,,,,,,,,,,,,,,,,,,
,,,,,V3_045,19,F,2024-11-04_15h48.14.340,jersey_experiment_5_v3,2023.2.2,Win32,85.47008547,,,,,,,,,,,,,,,,336.9808,338.5317,338.5318,342.5672,return,2.3747,,71.74479167,,,,,,FBP-PT-71.png,0.4,1.2,18,0.75,0,0,0,17,1,,,,,,,,,,,,,,,,,,,,,,,,,,,,,,,,,,,,,,,,
,,,,,V3_045,19,F,2024-11-04_15h48.14.340,jersey_experiment_5_v3,2023.2.2,Win32,85.47008547,,,,,,,,,,,,,,,,342.5675,343.8615,343.8615,345.9908,return,0.6692,,20.44270833,,,,,,FBP-OG-71.png,0.35,1.2,31,0.5,0,1,1,30,1,,,,,,,,,,,,,,,,,,,,,,,,,,,,,,,,,,,,,,,,
,,,,,V3_045,19,F,2024-11-04_15h48.14.340,jersey_experiment_5_v3,2023.2.2,Win32,85.47008547,,,,,,,,,,,,,,,,345.9911,347.544,347.5441,348.991,return,0.7249,,15.234375,,,,,,FBP-YG-19.png,0.37,1.2,12,0.75,0,2,2,11,1,,,,,,,,,,,,,,,,,,,,,,,,,,,,,,,,,,,,,,,,
,,,,,V3_045,19,F,2024-11-04_15h48.14.340,jersey_experiment_5_v3,2023.2.2,Win32,85.47008547,,,,,,,,,,,,,,,,348.9912,350.5442,350.5442,352.1323,return,0.9532,,83.07291667,,,,,,FBP-PT-91.png,0.43,1.2,29,0.75,0,3,3,28,1,,,,,,,,,,,,,,,,,,,,,,,,,,,,,,,,,,,,,,,,
,,,,,V3_045,19,F,2024-11-04_15h48.14.340,jersey_experiment_5_v3,2023.2.2,Win32,85.47008547,,,,,,,,,,,,,,,,352.1327,353.6854,353.6854,356.0501,return,1.7807,,56.90104167,,,,,,FBP-RB-71.png,0.4,1.2,48,0.75,0,4,4,47,1,,,,,,,,,,,,,,,,,,,,,,,,,,,,,,,,,,,,,,,,
,,,,,V3_045,19,F,2024-11-04_15h48.14.340,jersey_experiment_5_v3,2023.2.2,Win32,85.47008547,,,,,,,,,,,,,,,,356.0504,357.6031,357.6031,359.6385,return,0.645,,75.13020833,,,,,,FBP-RB-81.png,0.4,1.2,53,0.75,0,5,5,52,1,,,,,,,,,,,,,,,,,,,,,,,,,,,,,,,,,,,,,,,,
,,,,,V3_045,19,F,2024-11-04_15h48.14.340,jersey_experiment_5_v3,2023.2.2,Win32,85.47008547,,,,,,,,,,,,,,,,359.6387,361.1914,361.1915,363.3799,return,1.1193,,80.859375,,,,,,FBP-PT-81.png,0.4,1.2,23,0.75,0,6,6,22,1,,,,,,,,,,,,,,,,,,,,,,,,,,,,,,,,,,,,,,,,
,,,,,V3_045,19,F,2024-11-04_15h48.14.340,jersey_experiment_5_v3,2023.2.2,Win32,85.47008547,,,,,,,,,,,,,,,,363.3801,364.933,364.933,366.2151,return,0.7434,,90.75520833,,,,,,FBP-YG-18.png,0.45,1.2,10,0.75,0,7,7,9,1,,,,,,,,,,,,,,,,,,,,,,,,,,,,,,,,,,,,,,,,
,,,,,V3_045,19,F,2024-11-04_15h48.14.340,jersey_experiment_5_v3,2023.2.2,Win32,85.47008547,,,,,,,,,,,,,,,,366.2153,367.5094,367.5094,369.6622,return,0.557,,69.53125,,,,,,FBP-OG-71.png,0.37,1.2,32,0.5,0,8,8,31,1,,,,,,,,,,,,,,,,,,,,,,,,,,,,,,,,,,,,,,,,
,,,,,V3_045,19,F,2024-11-04_15h48.14.340,jersey_experiment_5_v3,2023.2.2,Win32,85.47008547,,,,,,,,,,,,,,,,369.6625,370.9565,370.9566,373.3801,return,1.5317,,42.96875,,,,,,FBP-OG-91.png,0.35,1.2,41,0.5,0,9,9,40,1,,,,,,,,,,,,,,,,,,,,,,,,,,,,,,,,,,,,,,,,
,,,,,V3_045,19,F,2024-11-04_15h48.14.340,jersey_experiment_5_v3,2023.2.2,Win32,85.47008547,,,,,,,,,,,,,,,,373.3803,374.9331,374.9332,377.239,return,1.5763,,68.48958333,,,,,,FBP-YG-17.png,0.43,1.2,4,0.75,0,10,10,3,1,,,,,,,,,,,,,,,,,,,,,,,,,,,,,,,,,,,,,,,,
,,,,,V3_045,19,F,2024-11-04_15h48.14.340,jersey_experiment_5_v3,2023.2.2,Win32,85.47008547,,,,,,,,,,,,,,,,377.2392,378.7804,378.7804,381.5334,return,0.6417,,61.84895833,,,,,,FBP-PT-91.png,0.37,1.2,27,0.75,0,11,11,26,1,,,,,,,,,,,,,,,,,,,,,,,,,,,,,,,,,,,,,,,,
,,,,,V3_045,19,F,2024-11-04_15h48.14.340,jersey_experiment_5_v3,2023.2.2,Win32,85.47008547,,,,,,,,,,,,,,,,381.5337,383.0864,383.0865,385.6512,return,0.6737,,46.09375,,,,,,FBP-RB-91.png,0.37,1.2,57,0.75,0,12,12,56,1,,,,,,,,,,,,,,,,,,,,,,,,,,,,,,,,,,,,,,,,
,,,,,V3_045,19,F,2024-11-04_15h48.14.340,jersey_experiment_5_v3,2023.2.2,Win32,85.47008547,,,,,,,,,,,,,,,,385.6514,386.9455,386.9455,388.3924,return,0.7632,,86.71875,,,,,,FBP-OG-81.png,0.43,1.2,39,0.5,0,13,13,38,1,,,,,,,,,,,,,,,,,,,,,,,,,,,,,,,,,,,,,,,,
,,,,,V3_045,19,F,2024-11-04_15h48.14.340,jersey_experiment_5_v3,2023.2.2,Win32,85.47008547,,,,,,,,,,,,,,,,388.3927,389.9454,389.9455,393.216,return,1.8282,,36.97916667,,,,,,FBP-RB-81.png,0.35,1.2,51,0.75,0,14,14,50,1,,,,,,,,,,,,,,,,,,,,,,,,,,,,,,,,,,,,,,,,
,,,,,V3_045,19,F,2024-11-04_15h48.14.340,jersey_experiment_5_v3,2023.2.2,Win32,85.47008547,,,,,,,,,,,,,,,,393.2163,394.7692,394.7693,396.7339,return,1.3478,,39.97395833,,,,,,FBP-YG-18.png,0.37,1.2,7,0.75,0,15,15,6,1,,,,,,,,,,,,,,,,,,,,,,,,,,,,,,,,,,,,,,,,
,,,,,V3_045,19,F,2024-11-04_15h48.14.340,jersey_experiment_5_v3,2023.2.2,Win32,85.47008547,,,,,,,,,,,,,,,,396.7341,398.2871,398.2872,399.7105,return,0.6978,,88.02083333,,,,,,FBP-YG-19.png,0.45,1.2,15,0.75,0,16,16,14,1,,,,,,,,,,,,,,,,,,,,,,,,,,,,,,,,,,,,,,,,
,,,,,V3_045,19,F,2024-11-04_15h48.14.340,jersey_experiment_5_v3,2023.2.2,Win32,85.47008547,,,,,,,,,,,,,,,,399.7107,401.0048,401.0049,402.5341,return,0.7061,,82.68229167,,,,,,FBP-OG-91.png,0.43,1.2,44,0.5,0,17,17,43,1,,,,,,,,,,,,,,,,,,,,,,,,,,,,,,,,,,,,,,,,
,,,,,V3_045,19,F,2024-11-04_15h48.14.340,jersey_experiment_5_v3,2023.2.2,Win32,85.47008547,,,,,,,,,,,,,,,,402.5343,404.0872,404.0872,406.0636,return,1.4284,,87.5,,,,,,FBP-YG-19.png,0.43,1.2,14,0.75,0,18,18,13,1,,,,,,,,,,,,,,,,,,,,,,,,,,,,,,,,,,,,,,,,
,,,,,V3_045,19,F,2024-11-04_15h48.14.340,jersey_experiment_5_v3,2023.2.2,Win32,85.47008547,,,,,,,,,,,,,,,,406.0638,407.6051,407.6052,410.005,return,1.2378,,41.92708333,,,,,,FBP-PT-81.png,0.35,1.2,21,0.75,0,19,19,20,1,,,,,,,,,,,,,,,,,,,,,,,,,,,,,,,,,,,,,,,,
,,,,,V3_045,19,F,2024-11-04_15h48.14.340,jersey_experiment_5_v3,2023.2.2,Win32,85.47008547,,,,,,,,,,,,,,,,410.0053,411.5579,411.558,413.358,return,0.62,,34.50520833,,,,,,FBP-RB-71.png,0.37,1.2,47,0.75,0,20,20,46,1,,,,,,,,,,,,,,,,,,,,,,,,,,,,,,,,,,,,,,,,
,,,,,V3_045,19,F,2024-11-04_15h48.14.340,jersey_experiment_5_v3,2023.2.2,Win32,85.47008547,,,,,,,,,,,,,,,,413.3582,414.8995,414.8995,416.5464,return,0.6745,,75.13020833,,,,,,FBP-RB-91.png,0.4,1.2,58,0.75,0,21,21,57,1,,,,,,,,,,,,,,,,,,,,,,,,,,,,,,,,,,,,,,,,
,,,,,V3_045,19,F,2024-11-04_15h48.14.340,jersey_experiment_5_v3,2023.2.2,Win32,85.47008547,,,,,,,,,,,,,,,,416.5467,418.0995,418.0996,419.5231,return,0.8035,,88.93229167,,,,,,FBP-PT-81.png,0.45,1.2,25,0.75,0,22,22,24,1,,,,,,,,,,,,,,,,,,,,,,,,,,,,,,,,,,,,,,,,
,,,,,V3_045,19,F,2024-11-04_15h48.14.340,jersey_experiment_5_v3,2023.2.2,Win32,85.47008547,,,,,,,,,,,,,,,,419.5233,420.8172,420.8172,422.5348,return,0.8336,,57.16145833,,,,,,FBP-OG-91.png,0.4,1.2,43,0.5,0,23,23,42,1,,,,,,,,,,,,,,,,,,,,,,,,,,,,,,,,,,,,,,,,
,,,,,V3_045,19,F,2024-11-04_15h48.14.340,jersey_experiment_5_v3,2023.2.2,Win32,85.47008547,,,,,,,,,,,,,,,,422.5351,424.0881,424.0881,425.2996,return,0.6511,,77.47395833,,,,,,FBP-PT-81.png,0.43,1.2,24,0.75,0,24,24,23,1,,,,,,,,,,,,,,,,,,,,,,,,,,,,,,,,,,,,,,,,
,,,,,V3_045,19,F,2024-11-04_15h48.14.340,jersey_experiment_5_v3,2023.2.2,Win32,85.47008547,,,,,,,,,,,,,,,,425.2999,426.8529,426.853,428.2408,return,0.8172,,84.63541667,,,,,,FBP-YG-17.png,0.45,1.2,5,0.75,0,25,25,4,1,,,,,,,,,,,,,,,,,,,,,,,,,,,,,,,,,,,,,,,,
,,,,,V3_045,19,F,2024-11-04_15h48.14.340,jersey_experiment_5_v3,2023.2.2,Win32,85.47008547,,,,,,,,,,,,,,,,428.241,429.7942,429.7942,431.3822,return,0.9269,,16.66666667,,,,,,FBP-PT-71.png,0.35,1.2,16,0.75,0,26,26,15,1,,,,,,,,,,,,,,,,,,,,,,,,,,,,,,,,,,,,,,,,
,,,,,V3_045,19,F,2024-11-04_15h48.14.340,jersey_experiment_5_v3,2023.2.2,Win32,85.47008547,,,,,,,,,,,,,,,,431.3825,432.6763,432.6764,434.5941,return,0.918,,21.61458333,,,,,,FBP-OG-91.png,0.37,1.2,42,0.5,0,27,27,41,1,,,,,,,,,,,,,,,,,,,,,,,,,,,,,,,,,,,,,,,,
,,,,,V3_045,19,F,2024-11-04_15h48.14.340,jersey_experiment_5_v3,2023.2.2,Win32,85.47008547,,,,,,,,,,,,,,,,434.5944,436.1472,436.1473,437.9825,return,1.0543,,48.17708333,,,,,,FBP-YG-18.png,0.43,1.2,9,0.75,0,28,28,8,1,,,,,,,,,,,,,,,,,,,,,,,,,,,,,,,,,,,,,,,,
,,,,,V3_045,19,F,2024-11-04_15h48.14.340,jersey_experiment_5_v3,2023.2.2,Win32,85.47008547,,,,,,,,,,,,,,,,437.9826,439.5356,439.5356,441.8061,return,0.7487,,32.29166667,,,,,,FBP-PT-81.png,0.37,1.2,22,0.75,0,29,29,21,1,,,,,,,,,,,,,,,,,,,,,,,,,,,,,,,,,,,,,,,,
,,,,,V3_045,19,F,2024-11-04_15h48.14.340,jersey_experiment_5_v3,2023.2.2,Win32,85.47008547,,,,,,,,,,,,,,,,441.8063,443.1002,443.1003,445.0416,return,0.9443,,40.36458333,,,,,,FBP-OG-81.png,0.35,1.2,36,0.5,0,30,30,35,1,,,,,,,,,,,,,,,,,,,,,,,,,,,,,,,,,,,,,,,,
,,,,,V3_045,19,F,2024-11-04_15h48.14.340,jersey_experiment_5_v3,2023.2.2,Win32,85.47008547,,,,,,,,,,,,,,,,445.0418,446.3356,446.3358,451.5712,return,4.3324,,68.61979167,,,,,,FBP-OG-81.png,0.4,1.2,38,0.5,0,31,31,37,1,,,,,,,,,,,,,,,,,,,,,,,,,,,,,,,,,,,,,,,,
,,,,,V3_045,19,F,2024-11-04_15h48.14.340,jersey_experiment_5_v3,2023.2.2,Win32,85.47008547,,,,,,,,,,,,,,,,451.5715,453.1242,453.1242,455.3831,return,1.5171,,64.0625,,,,,,FBP-YG-19.png,0.4,1.2,13,0.75,0,32,32,12,1,,,,,,,,,,,,,,,,,,,,,,,,,,,,,,,,,,,,,,,,
,,,,,V3_045,19,F,2024-11-04_15h48.14.340,jersey_experiment_5_v3,2023.2.2,Win32,85.47008547,,,,,,,,,,,,,,,,455.3834,456.9362,456.9362,458.5127,return,0.9703,,85.67708333,,,,,,FBP-RB-71.png,0.45,1.2,50,0.75,0,33,33,49,1,,,,,,,,,,,,,,,,,,,,,,,,,,,,,,,,,,,,,,,,
,,,,,V3_045,19,F,2024-11-04_15h48.14.340,jersey_experiment_5_v3,2023.2.2,Win32,85.47008547,,,,,,,,,,,,,,,,458.5129,459.8068,459.8068,461.6068,return,1.2609,,86.84895833,,,,,,FBP-OG-81.png,0.45,1.2,40,0.5,0,34,34,39,1,,,,,,,,,,,,,,,,,,,,,,,,,,,,,,,,,,,,,,,,
,,,,,V3_045,19,F,2024-11-04_15h48.14.340,jersey_experiment_5_v3,2023.2.2,Win32,85.47008547,,,,,,,,,,,,,,,,461.6071,462.901,462.901,465.8306,return,2.2118,,87.109375,,,,,,FBP-OG-71.png,0.45,1.2,35,0.5,0,35,35,34,1,,,,,,,,,,,,,,,,,,,,,,,,,,,,,,,,,,,,,,,,
,,,,,V3_045,19,F,2024-11-04_15h48.14.340,jersey_experiment_5_v3,2023.2.2,Win32,85.47008547,,,,,,,,,,,,,,,,465.8308,467.3835,467.3836,468.7836,return,0.8185,,88.15104167,,,,,,FBP-RB-81.png,0.45,1.2,55,0.75,0,36,36,54,1,,,,,,,,,,,,,,,,,,,,,,,,,,,,,,,,,,,,,,,,
,,,,,V3_045,19,F,2024-11-04_15h48.14.340,jersey_experiment_5_v3,2023.2.2,Win32,85.47008547,,,,,,,,,,,,,,,,468.7838,470.3368,470.3368,472.4778,return,0.8536,,18.09895833,,,,,,FBP-RB-71.png,0.35,1.2,46,0.75,0,37,37,45,1,,,,,,,,,,,,,,,,,,,,,,,,,,,,,,,,,,,,,,,,
,,,,,V3_045,19,F,2024-11-04_15h48.14.340,jersey_experiment_5_v3,2023.2.2,Win32,85.47008547,,,,,,,,,,,,,,,,472.478,474.0308,474.0309,478.6781,return,0.8583,,31.51041667,,,,,,FBP-PT-71.png,0.37,1.2,17,0.75,0,38,38,16,1,,,,,,,,,,,,,,,,,,,,,,,,,,,,,,,,,,,,,,,,
,,,,,V3_045,19,F,2024-11-04_15h48.14.340,jersey_experiment_5_v3,2023.2.2,Win32,85.47008547,,,,,,,,,,,,,,,,478.6783,480.231,480.2311,491.302,return,0.9551,,34.89583333,,,,,,FBP-YG-17.png,0.4,1.2,3,0.75,0,39,39,2,1,,,,,,,,,,,,,,,,,,,,,,,,,,,,,,,,,,,,,,,,
,,,,,V3_045,19,F,2024-11-04_15h48.14.340,jersey_experiment_5_v3,2023.2.2,Win32,85.47008547,,,,,,,,,,,,,,,,491.3023,492.5963,492.5964,494.1022,return,0.7056,,43.88020833,,,,,,FBP-OG-81.png,0.37,1.2,37,0.5,0,40,40,36,1,,,,,,,,,,,,,,,,,,,,,,,,,,,,,,,,,,,,,,,,
,,,,,V3_045,19,F,2024-11-04_15h48.14.340,jersey_experiment_5_v3,2023.2.2,Win32,85.47008547,,,,,,,,,,,,,,,,494.1024,495.6552,495.6552,497.2199,return,0.6722,,85.28645833,,,,,,FBP-PT-71.png,0.45,1.2,20,0.75,0,41,41,19,1,,,,,,,,,,,,,,,,,,,,,,,,,,,,,,,,,,,,,,,,
,,,,,V3_045,19,F,2024-11-04_15h48.14.340,jersey_experiment_5_v3,2023.2.2,Win32,85.47008547,,,,,,,,,,,,,,,,497.2201,498.7728,498.7729,500.3024,return,0.6301,,75.52083333,,,,,,FBP-RB-81.png,0.43,1.2,54,0.75,0,42,42,53,1,,,,,,,,,,,,,,,,,,,,,,,,,,,,,,,,,,,,,,,,
,,,,,V3_045,19,F,2024-11-04_15h48.14.340,jersey_experiment_5_v3,2023.2.2,Win32,85.47008547,,,,,,,,,,,,,,,,500.3028,501.8554,501.8554,510.6909,return,8.0626,,46.09375,,,,,,FBP-YG-18.png,0.4,1.2,8,0.75,0,43,43,7,1,,,,,,,,,,,,,,,,,,,,,,,,,,,,,,,,,,,,,,,,
,,,,,V3_045,19,F,2024-11-04_15h48.14.340,jersey_experiment_5_v3,2023.2.2,Win32,85.47008547,,,,,,,,,,,,,,,,510.6912,512.2439,512.244,514.5028,return,0.8365,,30.859375,,,,,,FBP-RB-91.png,0.35,1.2,56,0.75,0,44,44,55,1,,,,,,,,,,,,,,,,,,,,,,,,,,,,,,,,,,,,,,,,
,,,,,V3_045,19,F,2024-11-04_15h48.14.340,jersey_experiment_5_v3,2023.2.2,Win32,85.47008547,,,,,,,,,,,,,,,,514.5031,516.056,516.056,517.7619,return,0.7809,,81.640625,,,,,,FBP-PT-71.png,0.43,1.2,19,0.75,0,45,45,18,1,,,,,,,,,,,,,,,,,,,,,,,,,,,,,,,,,,,,,,,,
,,,,,V3_045,19,F,2024-11-04_15h48.14.340,jersey_experiment_5_v3,2023.2.2,Win32,85.47008547,,,,,,,,,,,,,,,,517.7621,519.0561,519.0561,520.256,return,0.57,,87.5,,,,,,FBP-OG-91.png,0.45,1.2,45,0.5,0,46,46,44,1,,,,,,,,,,,,,,,,,,,,,,,,,,,,,,,,,,,,,,,,
,,,,,V3_045,19,F,2024-11-04_15h48.14.340,jersey_experiment_5_v3,2023.2.2,Win32,85.47008547,,,,,,,,,,,,,,,,520.2562,521.809,521.809,523.762,return,0.6951,,90.10416667,,,,,,FBP-PT-91.png,0.45,1.2,30,0.75,0,47,47,29,1,,,,,,,,,,,,,,,,,,,,,,,,,,,,,,,,,,,,,,,,
,,,,,V3_045,19,F,2024-11-04_15h48.14.340,jersey_experiment_5_v3,2023.2.2,Win32,85.47008547,,,,,,,,,,,,,,,,523.7622,525.3152,525.3152,526.574,return,0.5711,,88.54166667,,,,,,FBP-RB-91.png,0.43,1.2,59,0.75,0,48,48,58,1,,,,,,,,,,,,,,,,,,,,,,,,,,,,,,,,,,,,,,,,
,,,,,V3_045,19,F,2024-11-04_15h48.14.340,jersey_experiment_5_v3,2023.2.2,Win32,85.47008547,,,,,,,,,,,,,,,,526.5742,528.1269,528.127,529.9034,return,0.6291,,52.60416667,,,,,,FBP-YG-17.png,0.37,1.2,2,0.75,0,49,49,1,1,,,,,,,,,,,,,,,,,,,,,,,,,,,,,,,,,,,,,,,,
,,,,,V3_045,19,F,2024-11-04_15h48.14.340,jersey_experiment_5_v3,2023.2.2,Win32,85.47008547,,,,,,,,,,,,,,,,529.9036,531.1976,531.1977,532.6565,return,0.5942,,60.28645833,,,,,,FBP-OG-71.png,0.4,1.2,33,0.5,0,50,50,32,1,,,,,,,,,,,,,,,,,,,,,,,,,,,,,,,,,,,,,,,,
,,,,,V3_045,19,F,2024-11-04_15h48.14.340,jersey_experiment_5_v3,2023.2.2,Win32,85.47008547,,,,,,,,,,,,,,,,532.6568,534.2096,534.2096,535.5036,return,0.5476,,83.33333333,,,,,,FBP-RB-91.png,0.45,1.2,60,0.75,0,51,51,59,1,,,,,,,,,,,,,,,,,,,,,,,,,,,,,,,,,,,,,,,,
,,,,,V3_045,19,F,2024-11-04_15h48.14.340,jersey_experiment_5_v3,2023.2.2,Win32,85.47008547,,,,,,,,,,,,,,,,535.5039,537.0451,537.0451,538.6096,return,0.7893,,41.92708333,,,,,,FBP-YG-17.png,0.35,1.2,1,0.75,0,52,52,0,1,,,,,,,,,,,,,,,,,,,,,,,,,,,,,,,,,,,,,,,,
,,,,,V3_045,19,F,2024-11-04_15h48.14.340,jersey_experiment_5_v3,2023.2.2,Win32,85.47008547,,,,,,,,,,,,,,,,538.61,540.1626,540.1626,542.6922,return,0.9077,,35.15625,,,,,,FBP-YG-18.png,0.35,1.2,6,0.75,0,53,53,5,1,,,,,,,,,,,,,,,,,,,,,,,,,,,,,,,,,,,,,,,,
,,,,,V3_045,19,F,2024-11-04_15h48.14.340,jersey_experiment_5_v3,2023.2.2,Win32,85.47008547,,,,,,,,,,,,,,,,542.6924,544.2451,544.2451,547.5746,return,0.7995,,44.921875,,,,,,FBP-PT-91.png,0.35,1.2,26,0.75,0,54,54,25,1,,,,,,,,,,,,,,,,,,,,,,,,,,,,,,,,,,,,,,,,
,,,,,V3_045,19,F,2024-11-04_15h48.14.340,jersey_experiment_5_v3,2023.2.2,Win32,85.47008547,,,,,,,,,,,,,,,,547.5749,548.8688,548.8689,555.3986,return,0.5884,,57.8125,,,,,,FBP-OG-71.png,0.43,1.2,34,0.5,0,55,55,33,1,,,,,,,,,,,,,,,,,,,,,,,,,,,,,,,,,,,,,,,,
,,,,,V3_045,19,F,2024-11-04_15h48.14.340,jersey_experiment_5_v3,2023.2.2,Win32,85.47008547,,,,,,,,,,,,,,,,555.3989,556.9517,556.9517,558.5045,return,0.8489,,22.13541667,,,,,,FBP-YG-19.png,0.35,1.2,11,0.75,0,56,56,10,1,,,,,,,,,,,,,,,,,,,,,,,,,,,,,,,,,,,,,,,,
,,,,,V3_045,19,F,2024-11-04_15h48.14.340,jersey_experiment_5_v3,2023.2.2,Win32,85.47008547,,,,,,,,,,,,,,,,558.5048,560.0576,560.0577,561.4928,return,0.7293,,80.46875,,,,,,FBP-RB-71.png,0.43,1.2,49,0.75,0,57,57,48,1,,,,,,,,,,,,,,,,,,,,,,,,,,,,,,,,,,,,,,,,
,,,,,V3_045,19,F,2024-11-04_15h48.14.340,jersey_experiment_5_v3,2023.2.2,Win32,85.47008547,,,,,,,,,,,,,,,,561.4929,563.0459,563.0459,565.8577,return,1.0004,,46.875,,,,,,FBP-PT-91.png,0.4,1.2,28,0.75,0,58,58,27,1,,,,,,,,,,,,,,,,,,,,,,,,,,,,,,,,,,,,,,,,
,,,,,V3_045,19,F,2024-11-04_15h48.14.340,jersey_experiment_5_v3,2023.2.2,Win32,85.47008547,,,,,,,,,,,,,,,,565.858,567.4107,567.4107,569.9049,return,1.6759,,29.94791667,,,,,,FBP-RB-81.png,0.37,1.2,52,0.75,0,59,59,51,1,,,,,,,,,,,,,,,,,,,,,,,,,,,,,,,,,,,,,,,,
,,,,,V3_045,19,F,2024-11-04_15h48.14.340,jersey_experiment_5_v3,2023.2.2,Win32,85.47008547,,,,,,,,,,,,,,,,,,,,,,,,,,,,,,,,,,,,,,,569.9051,689.8976,,,,,,,,,,,,,,,,,,,,,,,,,,,,,,,,,,,,,,
,,,,,V3_045,19,F,2024-11-04_15h48.14.340,jersey_experiment_5_v3,2023.2.2,Win32,85.47008547,,,,,,,,,,,,,,,,,,,,,,,,,,,,,,,,,,,,,,,,,689.8977,700.6392,return,10.7356,,,,,,,,,,,,,,,,,,,,,,,,,,,,,,,,,,
,,,,,V3_045,19,F,2024-11-04_15h48.14.340,jersey_experiment_5_v3,2023.2.2,Win32,85.47008547,,,,,,,,,,,,,,,,700.6411,701.9333,701.9333,704.1098,return,1.0422,,28.90625,,,,,,FBP-YG-91.png,0.35,1.2,11,0.5,,,,,,,,,,,,,0,0,0,10,1,,,,,,,,,,,,,,,,,,,,,,,,,,,,
,,,,,V3_045,19,F,2024-11-04_15h48.14.340,jersey_experiment_5_v3,2023.2.2,Win32,85.47008547,,,,,,,,,,,,,,,,704.1101,705.404,705.404,707.2865,return,0.6803,,77.734375,,,,,,FBP-PT-17.png,0.45,1.2,20,0.5,,,,,,,,,,,,,0,1,1,19,1,,,,,,,,,,,,,,,,,,,,,,,,,,,,
,,,,,V3_045,19,F,2024-11-04_15h48.14.340,jersey_experiment_5_v3,2023.2.2,Win32,85.47008547,,,,,,,,,,,,,,,,707.2868,708.5806,708.5806,710.9806,return,0.2356,,58.203125,,,,,,FBP-PT-17.png,0.35,1.2,16,0.5,,,,,,,,,,,,,0,2,2,15,1,,,,,,,,,,,,,,,,,,,,,,,,,,,,
,,,,,V3_045,19,F,2024-11-04_15h48.14.340,jersey_experiment_5_v3,2023.2.2,Win32,85.47008547,,,,,,,,,,,,,,,,710.9809,712.5338,712.5338,714.7926,return,1.6728,,92.96875,,,,,,FBP-OG-17.png,0.43,1.2,34,0.75,,,,,,,,,,,,,0,3,3,33,1,,,,,,,,,,,,,,,,,,,,,,,,,,,,
,,,,,V3_045,19,F,2024-11-04_15h48.14.340,jersey_experiment_5_v3,2023.2.2,Win32,85.47008547,,,,,,,,,,,,,,,,714.7929,716.0867,716.0868,717.3572,return,0.1954,,78.38541667,,,,,,FBP-YG-81.png,0.43,1.2,9,0.5,,,,,,,,,,,,,0,4,4,8,1,,,,,,,,,,,,,,,,,,,,,,,,,,,,
,,,,,V3_045,19,F,2024-11-04_15h48.14.340,jersey_experiment_5_v3,2023.2.2,Win32,85.47008547,,,,,,,,,,,,,,,,717.3575,718.6515,718.6516,719.6044,return,0.1056,,76.953125,,,,,,FBP-YG-71.png,0.4,1.2,3,0.5,,,,,,,,,,,,,0,5,5,2,1,,,,,,,,,,,,,,,,,,,,,,,,,,,,
,,,,,V3_045,19,F,2024-11-04_15h48.14.340,jersey_experiment_5_v3,2023.2.2,Win32,85.47008547,,,,,,,,,,,,,,,,719.6048,721.1576,721.1577,722.2163,return,0.245,,26.43229167,,,,,,FBP-OG-18.png,0.35,1.2,36,0.75,,,,,,,,,,,,,0,6,6,35,1,,,,,,,,,,,,,,,,,,,,,,,,,,,,
,,,,,V3_045,19,F,2024-11-04_15h48.14.340,jersey_experiment_5_v3,2023.2.2,Win32,85.47008547,,,,,,,,,,,,,,,,722.2167,723.7694,723.7695,724.5107,return,0.1705,,26.04166667,,,,,,FBP-OG-17.png,0.37,1.2,32,0.75,,,,,,,,,,,,,0,7,7,31,1,,,,,,,,,,,,,,,,,,,,,,,,,,,,
,,,,,V3_045,19,F,2024-11-04_15h48.14.340,jersey_experiment_5_v3,2023.2.2,Win32,85.47008547,,,,,,,,,,,,,,,,724.5109,725.8047,725.8047,727.0165,return,0.1282,,90.10416667,,,,,,FBP-YG-91.png,0.43,1.2,14,0.5,,,,,,,,,,,,,0,8,8,13,1,,,,,,,,,,,,,,,,,,,,,,,,,,,,
,,,,,V3_045,19,F,2024-11-04_15h48.14.340,jersey_experiment_5_v3,2023.2.2,Win32,85.47008547,,,,,,,,,,,,,,,,727.017,728.5696,728.5697,729.4166,return,0.1727,,92.70833333,,,,,,FBP-OG-19.png,0.43,1.2,44,0.75,,,,,,,,,,,,,0,9,9,43,1,,,,,,,,,,,,,,,,,,,,,,,,,,,,
,,,,,V3_045,19,F,2024-11-04_15h48.14.340,jersey_experiment_5_v3,2023.2.2,Win32,85.47008547,,,,,,,,,,,,,,,,729.417,730.7109,730.7109,734.2757,return,2.133,,55.46875,,,,,,FBP-RB-18.png,0.37,1.2,52,0.5,,,,,,,,,,,,,0,10,10,51,1,,,,,,,,,,,,,,,,,,,,,,,,,,,,
,,,,,V3_045,19,F,2024-11-04_15h48.14.340,jersey_experiment_5_v3,2023.2.2,Win32,85.47008547,,,,,,,,,,,,,,,,734.2759,735.8287,735.8287,737.9229,return,1.1285,,53.38541667,,,,,,FBP-OG-18.png,0.37,1.2,37,0.75,,,,,,,,,,,,,0,11,11,36,1,,,,,,,,,,,,,,,,,,,,,,,,,,,,
,,,,,V3_045,19,F,2024-11-04_15h48.14.340,jersey_experiment_5_v3,2023.2.2,Win32,85.47008547,,,,,,,,,,,,,,,,737.9231,739.2169,739.217,740.6052,return,0.1615,,68.22916667,,,,,,FBP-RB-18.png,0.43,1.2,54,0.5,,,,,,,,,,,,,0,12,12,53,1,,,,,,,,,,,,,,,,,,,,,,,,,,,,
,,,,,V3_045,19,F,2024-11-04_15h48.14.340,jersey_experiment_5_v3,2023.2.2,Win32,85.47008547,,,,,,,,,,,,,,,,740.6054,741.8993,741.8994,744.2642,return,1.1767,,60.67708333,,,,,,FBP-YG-91.png,0.4,1.2,13,0.5,,,,,,,,,,,,,0,13,13,12,1,,,,,,,,,,,,,,,,,,,,,,,,,,,,
,,,,,V3_045,19,F,2024-11-04_15h48.14.340,jersey_experiment_5_v3,2023.2.2,Win32,85.47008547,,,,,,,,,,,,,,,,744.2645,745.5584,745.5585,746.723,return,0.2499,,75.26041667,,,,,,FBP-PT-19.png,0.4,1.2,28,0.5,,,,,,,,,,,,,0,14,14,27,1,,,,,,,,,,,,,,,,,,,,,,,,,,,,
,,,,,V3_045,19,F,2024-11-04_15h48.14.340,jersey_experiment_5_v3,2023.2.2,Win32,85.47008547,,,,,,,,,,,,,,,,746.7233,748.0172,748.0173,749.5821,return,0.0785,,75,,,,,,FBP-RB-19.png,0.37,1.2,57,0.5,,,,,,,,,,,,,0,15,15,56,1,,,,,,,,,,,,,,,,,,,,,,,,,,,,
,,,,,V3_045,19,F,2024-11-04_15h48.14.340,jersey_experiment_5_v3,2023.2.2,Win32,85.47008547,,,,,,,,,,,,,,,,749.5823,750.8763,750.8763,751.6997,return,0.1668,,82.421875,,,,,,FBP-PT-17.png,0.43,1.2,19,0.5,,,,,,,,,,,,,0,16,16,18,1,,,,,,,,,,,,,,,,,,,,,,,,,,,,
,,,,,V3_045,19,F,2024-11-04_15h48.14.340,jersey_experiment_5_v3,2023.2.2,Win32,85.47008547,,,,,,,,,,,,,,,,751.7001,752.9941,752.9942,754.1587,return,0.1132,,86.45833333,,,,,,FBP-PT-18.png,0.43,1.2,24,0.5,,,,,,,,,,,,,0,17,17,23,1,,,,,,,,,,,,,,,,,,,,,,,,,,,,
,,,,,V3_045,19,F,2024-11-04_15h48.14.340,jersey_experiment_5_v3,2023.2.2,Win32,85.47008547,,,,,,,,,,,,,,,,754.159,755.453,755.4531,756.2411,return,0.1461,,31.51041667,,,,,,FBP-PT-18.png,0.35,1.2,21,0.5,,,,,,,,,,,,,0,18,18,20,1,,,,,,,,,,,,,,,,,,,,,,,,,,,,
,,,,,V3_045,19,F,2024-11-04_15h48.14.340,jersey_experiment_5_v3,2023.2.2,Win32,85.47008547,,,,,,,,,,,,,,,,756.2414,757.5352,757.5353,759.1353,return,0.2185,,38.28125,,,,,,FBP-YG-91.png,0.37,1.2,12,0.5,,,,,,,,,,,,,0,19,19,11,1,,,,,,,,,,,,,,,,,,,,,,,,,,,,
,,,,,V3_045,19,F,2024-11-04_15h48.14.340,jersey_experiment_5_v3,2023.2.2,Win32,85.47008547,,,,,,,,,,,,,,,,759.1356,760.4295,760.4295,761.4884,return,0.2177,,88.02083333,,,,,,FBP-RB-17.png,0.45,1.2,50,0.5,,,,,,,,,,,,,0,20,20,49,1,,,,,,,,,,,,,,,,,,,,,,,,,,,,
,,,,,V3_045,19,F,2024-11-04_15h48.14.340,jersey_experiment_5_v3,2023.2.2,Win32,85.47008547,,,,,,,,,,,,,,,,761.4886,762.7824,762.7825,763.9708,return,0.1565,,84.89583333,,,,,,FBP-PT-17.png,0.4,1.2,18,0.5,,,,,,,,,,,,,0,21,21,17,1,,,,,,,,,,,,,,,,,,,,,,,,,,,,
,,,,,V3_045,19,F,2024-11-04_15h48.14.340,jersey_experiment_5_v3,2023.2.2,Win32,85.47008547,,,,,,,,,,,,,,,,763.971,765.2651,765.2652,766.1944,return,0.1312,,81.51041667,,,,,,FBP-PT-18.png,0.4,1.2,23,0.5,,,,,,,,,,,,,0,22,22,22,1,,,,,,,,,,,,,,,,,,,,,,,,,,,,
,,,,,V3_045,19,F,2024-11-04_15h48.14.340,jersey_experiment_5_v3,2023.2.2,Win32,85.47008547,,,,,,,,,,,,,,,,766.1947,767.4886,767.4887,768.4297,return,0.11,,91.015625,,,,,,FBP-RB-17.png,0.43,1.2,49,0.5,,,,,,,,,,,,,0,23,23,48,1,,,,,,,,,,,,,,,,,,,,,,,,,,,,
,,,,,V3_045,19,F,2024-11-04_15h48.14.340,jersey_experiment_5_v3,2023.2.2,Win32,85.47008547,,,,,,,,,,,,,,,,768.43,769.9829,769.9829,771.2535,return,0.4786,,58.33333333,,,,,,FBP-OG-18.png,0.4,1.2,38,0.75,,,,,,,,,,,,,0,24,24,37,1,,,,,,,,,,,,,,,,,,,,,,,,,,,,
,,,,,V3_045,19,F,2024-11-04_15h48.14.340,jersey_experiment_5_v3,2023.2.2,Win32,85.47008547,,,,,,,,,,,,,,,,771.2539,772.8066,772.8067,774.0065,return,0.5037,,24.34895833,,,,,,FBP-OG-17.png,0.35,1.2,31,0.75,,,,,,,,,,,,,0,25,25,30,1,,,,,,,,,,,,,,,,,,,,,,,,,,,,
,,,,,V3_045,19,F,2024-11-04_15h48.14.340,jersey_experiment_5_v3,2023.2.2,Win32,85.47008547,,,,,,,,,,,,,,,,774.0068,775.3006,775.3006,776.43,return,0.2199,,28.515625,,,,,,FBP-PT-18.png,0.37,1.2,22,0.5,,,,,,,,,,,,,0,26,26,21,1,,,,,,,,,,,,,,,,,,,,,,,,,,,,
,,,,,V3_045,19,F,2024-11-04_15h48.14.340,jersey_experiment_5_v3,2023.2.2,Win32,85.47008547,,,,,,,,,,,,,,,,776.4302,777.7243,777.7243,778.8775,return,0.2913,,80.33854167,,,,,,FBP-PT-19.png,0.45,1.2,30,0.5,,,,,,,,,,,,,0,27,27,29,1,,,,,,,,,,,,,,,,,,,,,,,,,,,,
,,,,,V3_045,19,F,2024-11-04_15h48.14.340,jersey_experiment_5_v3,2023.2.2,Win32,85.47008547,,,,,,,,,,,,,,,,778.8779,780.1715,780.1716,781.3007,return,0.174,,28.25520833,,,,,,FBP-PT-19.png,0.35,1.2,26,0.5,,,,,,,,,,,,,0,28,28,25,1,,,,,,,,,,,,,,,,,,,,,,,,,,,,
,,,,,V3_045,19,F,2024-11-04_15h48.14.340,jersey_experiment_5_v3,2023.2.2,Win32,85.47008547,,,,,,,,,,,,,,,,781.3011,782.5951,782.5951,783.8422,return,0.1316,,25.65104167,,,,,,FBP-YG-71.png,0.35,1.2,1,0.5,,,,,,,,,,,,,0,29,29,0,1,,,,,,,,,,,,,,,,,,,,,,,,,,,,
,,,,,V3_045,19,F,2024-11-04_15h48.14.340,jersey_experiment_5_v3,2023.2.2,Win32,85.47008547,,,,,,,,,,,,,,,,783.8425,785.1365,785.1365,786.1833,return,0.2355,,84.63541667,,,,,,FBP-YG-81.png,0.45,1.2,10,0.5,,,,,,,,,,,,,0,30,30,9,1,,,,,,,,,,,,,,,,,,,,,,,,,,,,
,,,,,V3_045,19,F,2024-11-04_15h48.14.340,jersey_experiment_5_v3,2023.2.2,Win32,85.47008547,,,,,,,,,,,,,,,,786.1836,787.4777,787.4777,788.6542,return,0.2397,,84.24479167,,,,,,FBP-YG-71.png,0.43,1.2,4,0.5,,,,,,,,,,,,,0,31,31,3,1,,,,,,,,,,,,,,,,,,,,,,,,,,,,
,,,,,V3_045,19,F,2024-11-04_15h48.14.340,jersey_experiment_5_v3,2023.2.2,Win32,85.47008547,,,,,,,,,,,,,,,,788.6544,790.2073,790.2073,791.4895,return,0.4138,,83.203125,,,,,,FBP-OG-18.png,0.43,1.2,39,0.75,,,,,,,,,,,,,0,32,32,38,1,,,,,,,,,,,,,,,,,,,,,,,,,,,,
,,,,,V3_045,19,F,2024-11-04_15h48.14.340,jersey_experiment_5_v3,2023.2.2,Win32,85.47008547,,,,,,,,,,,,,,,,791.4897,792.7836,792.7836,793.8073,return,0.1598,,93.09895833,,,,,,FBP-RB-19.png,0.45,1.2,60,0.5,,,,,,,,,,,,,0,33,33,59,1,,,,,,,,,,,,,,,,,,,,,,,,,,,,
,,,,,V3_045,19,F,2024-11-04_15h48.14.340,jersey_experiment_5_v3,2023.2.2,Win32,85.47008547,,,,,,,,,,,,,,,,793.8075,795.1014,795.1014,796.1838,return,0.1805,,10.67708333,,,,,,FBP-RB-18.png,0.35,1.2,51,0.5,,,,,,,,,,,,,0,34,34,50,1,,,,,,,,,,,,,,,,,,,,,,,,,,,,
,,,,,V3_045,19,F,2024-11-04_15h48.14.340,jersey_experiment_5_v3,2023.2.2,Win32,85.47008547,,,,,,,,,,,,,,,,796.1841,797.7367,797.7368,799.678,return,0.3844,,38.671875,,,,,,FBP-OG-17.png,0.4,1.2,33,0.75,,,,,,,,,,,,,0,35,35,32,1,,,,,,,,,,,,,,,,,,,,,,,,,,,,
,,,,,V3_045,19,F,2024-11-04_15h48.14.340,jersey_experiment_5_v3,2023.2.2,Win32,85.47008547,,,,,,,,,,,,,,,,799.6782,800.9722,800.9723,802.2548,return,0.2863,,75.390625,,,,,,FBP-RB-19.png,0.43,1.2,59,0.5,,,,,,,,,,,,,0,36,36,58,1,,,,,,,,,,,,,,,,,,,,,,,,,,,,
,,,,,V3_045,19,F,2024-11-04_15h48.14.340,jersey_experiment_5_v3,2023.2.2,Win32,85.47008547,,,,,,,,,,,,,,,,802.255,803.5489,803.549,804.4194,return,0.1564,,89.32291667,,,,,,FBP-YG-71.png,0.45,1.2,5,0.5,,,,,,,,,,,,,0,37,37,4,1,,,,,,,,,,,,,,,,,,,,,,,,,,,,
,,,,,V3_045,19,F,2024-11-04_15h48.14.340,jersey_experiment_5_v3,2023.2.2,Win32,85.47008547,,,,,,,,,,,,,,,,804.4197,805.7135,805.7136,807.2547,return,0.2825,,59.765625,,,,,,FBP-YG-71.png,0.37,1.2,2,0.5,,,,,,,,,,,,,0,38,38,1,1,,,,,,,,,,,,,,,,,,,,,,,,,,,,
,,,,,V3_045,19,F,2024-11-04_15h48.14.340,jersey_experiment_5_v3,2023.2.2,Win32,85.47008547,,,,,,,,,,,,,,,,807.2549,808.8077,808.8079,810.7611,return,1.0353,,55.59895833,,,,,,FBP-OG-19.png,0.35,1.2,41,0.75,,,,,,,,,,,,,0,39,39,40,1,,,,,,,,,,,,,,,,,,,,,,,,,,,,
,,,,,V3_045,19,F,2024-11-04_15h48.14.340,jersey_experiment_5_v3,2023.2.2,Win32,85.47008547,,,,,,,,,,,,,,,,810.7613,812.055,812.055,813.349,return,0.4112,,50.390625,,,,,,FBP-YG-81.png,0.37,1.2,7,0.5,,,,,,,,,,,,,0,40,40,6,1,,,,,,,,,,,,,,,,,,,,,,,,,,,,
,,,,,V3_045,19,F,2024-11-04_15h48.14.340,jersey_experiment_5_v3,2023.2.2,Win32,85.47008547,,,,,,,,,,,,,,,,813.3494,814.6435,814.6435,815.4314,return,0.0709,,56.25,,,,,,FBP-PT-19.png,0.37,1.2,27,0.5,,,,,,,,,,,,,0,41,41,26,1,,,,,,,,,,,,,,,,,,,,,,,,,,,,
,,,,,V3_045,19,F,2024-11-04_15h48.14.340,jersey_experiment_5_v3,2023.2.2,Win32,85.47008547,,,,,,,,,,,,,,,,815.4316,816.7257,816.7258,818.1963,return,0.1429,,40.625,,,,,,FBP-RB-17.png,0.35,1.2,46,0.5,,,,,,,,,,,,,0,42,42,45,1,,,,,,,,,,,,,,,,,,,,,,,,,,,,
,,,,,V3_045,19,F,2024-11-04_15h48.14.340,jersey_experiment_5_v3,2023.2.2,Win32,85.47008547,,,,,,,,,,,,,,,,818.1965,819.4907,819.4907,820.5846,return,0.3299,,91.796875,,,,,,FBP-YG-91.png,0.45,1.2,15,0.5,,,,,,,,,,,,,0,43,43,14,1,,,,,,,,,,,,,,,,,,,,,,,,,,,,
,,,,,V3_045,19,F,2024-11-04_15h48.14.340,jersey_experiment_5_v3,2023.2.2,Win32,85.47008547,,,,,,,,,,,,,,,,820.5848,821.879,821.879,823.9377,return,0.2395,,62.76041667,,,,,,FBP-RB-19.png,0.4,1.2,58,0.5,,,,,,,,,,,,,0,44,44,57,1,,,,,,,,,,,,,,,,,,,,,,,,,,,,
,,,,,V3_045,19,F,2024-11-04_15h48.14.340,jersey_experiment_5_v3,2023.2.2,Win32,85.47008547,,,,,,,,,,,,,,,,823.9381,825.2318,825.2319,827.2202,return,0.1669,,45.96354167,,,,,,FBP-RB-19.png,0.35,1.2,56,0.5,,,,,,,,,,,,,0,45,45,55,1,,,,,,,,,,,,,,,,,,,,,,,,,,,,
,,,,,V3_045,19,F,2024-11-04_15h48.14.340,jersey_experiment_5_v3,2023.2.2,Win32,85.47008547,,,,,,,,,,,,,,,,827.2204,828.5143,828.5143,829.3027,return,0.165,,70.18229167,,,,,,FBP-YG-81.png,0.4,1.2,8,0.5,,,,,,,,,,,,,0,46,46,7,1,,,,,,,,,,,,,,,,,,,,,,,,,,,,
,,,,,V3_045,19,F,2024-11-04_15h48.14.340,jersey_experiment_5_v3,2023.2.2,Win32,85.47008547,,,,,,,,,,,,,,,,829.303,830.8557,830.8557,831.7732,return,0.3616,,68.09895833,,,,,,FBP-OG-19.png,0.4,1.2,43,0.75,,,,,,,,,,,,,0,47,47,42,1,,,,,,,,,,,,,,,,,,,,,,,,,,,,
,,,,,V3_045,19,F,2024-11-04_15h48.14.340,jersey_experiment_5_v3,2023.2.2,Win32,85.47008547,,,,,,,,,,,,,,,,831.7734,833.3148,833.3148,834.5617,return,0.2379,,41.015625,,,,,,FBP-OG-19.png,0.37,1.2,42,0.75,,,,,,,,,,,,,0,48,48,41,1,,,,,,,,,,,,,,,,,,,,,,,,,,,,
,,,,,V3_045,19,F,2024-11-04_15h48.14.340,jersey_experiment_5_v3,2023.2.2,Win32,85.47008547,,,,,,,,,,,,,,,,834.562,835.8557,835.8558,838.1499,return,1.0935,,59.50520833,,,,,,FBP-RB-17.png,0.4,1.2,48,0.5,,,,,,,,,,,,,0,49,49,47,1,,,,,,,,,,,,,,,,,,,,,,,,,,,,
,,,,,V3_045,19,F,2024-11-04_15h48.14.340,jersey_experiment_5_v3,2023.2.2,Win32,85.47008547,,,,,,,,,,,,,,,,838.1502,839.4442,839.4442,840.5971,return,0.1889,,65.10416667,,,,,,FBP-RB-18.png,0.4,1.2,53,0.5,,,,,,,,,,,,,0,50,50,52,1,,,,,,,,,,,,,,,,,,,,,,,,,,,,
,,,,,V3_045,19,F,2024-11-04_15h48.14.340,jersey_experiment_5_v3,2023.2.2,Win32,85.47008547,,,,,,,,,,,,,,,,840.5973,842.1386,842.1386,843.3502,return,0.6925,,89.0625,,,,,,FBP-OG-18.png,0.45,1.2,40,0.75,,,,,,,,,,,,,0,51,51,39,1,,,,,,,,,,,,,,,,,,,,,,,,,,,,
,,,,,V3_045,19,F,2024-11-04_15h48.14.340,jersey_experiment_5_v3,2023.2.2,Win32,85.47008547,,,,,,,,,,,,,,,,843.3504,844.6444,844.6444,845.5031,return,0.2405,,88.15104167,,,,,,FBP-PT-18.png,0.45,1.2,25,0.5,,,,,,,,,,,,,0,52,52,24,1,,,,,,,,,,,,,,,,,,,,,,,,,,,,
,,,,,V3_045,19,F,2024-11-04_15h48.14.340,jersey_experiment_5_v3,2023.2.2,Win32,85.47008547,,,,,,,,,,,,,,,,845.5034,847.0562,847.0563,848.1151,return,0.3675,,88.54166667,,,,,,FBP-OG-19.png,0.45,1.2,45,0.75,,,,,,,,,,,,,0,53,53,44,1,,,,,,,,,,,,,,,,,,,,,,,,,,,,
,,,,,V3_045,19,F,2024-11-04_15h48.14.340,jersey_experiment_5_v3,2023.2.2,Win32,85.47008547,,,,,,,,,,,,,,,,848.1154,849.6566,849.6566,850.3504,return,0.1943,,90.75520833,,,,,,FBP-OG-17.png,0.45,1.2,35,0.75,,,,,,,,,,,,,0,54,54,34,1,,,,,,,,,,,,,,,,,,,,,,,,,,,,
,,,,,V3_045,19,F,2024-11-04_15h48.14.340,jersey_experiment_5_v3,2023.2.2,Win32,85.47008547,,,,,,,,,,,,,,,,850.3507,851.6448,851.6449,853.8801,return,1.1551,,9.635416667,,,,,,FBP-PT-17.png,0.37,1.2,17,0.5,,,,,,,,,,,,,0,55,55,16,1,,,,,,,,,,,,,,,,,,,,,,,,,,,,
,,,,,V3_045,19,F,2024-11-04_15h48.14.340,jersey_experiment_5_v3,2023.2.2,Win32,85.47008547,,,,,,,,,,,,,,,,853.8803,855.1741,855.1741,856.4684,return,0.1782,,89.32291667,,,,,,FBP-PT-19.png,0.43,1.2,29,0.5,,,,,,,,,,,,,0,56,56,28,1,,,,,,,,,,,,,,,,,,,,,,,,,,,,
,,,,,V3_045,19,F,2024-11-04_15h48.14.340,jersey_experiment_5_v3,2023.2.2,Win32,85.47008547,,,,,,,,,,,,,,,,856.4686,857.7627,857.7627,859.3036,return,0.6355,,59.63541667,,,,,,FBP-RB-17.png,0.37,1.2,47,0.5,,,,,,,,,,,,,0,57,57,46,1,,,,,,,,,,,,,,,,,,,,,,,,,,,,
,,,,,V3_045,19,F,2024-11-04_15h48.14.340,jersey_experiment_5_v3,2023.2.2,Win32,85.47008547,,,,,,,,,,,,,,,,859.3038,860.5981,860.5982,861.4097,return,0.0964,,77.47395833,,,,,,FBP-RB-18.png,0.45,1.2,55,0.5,,,,,,,,,,,,,0,58,58,54,1,,,,,,,,,,,,,,,,,,,,,,,,,,,,
,,,,,V3_045,19,F,2024-11-04_15h48.14.340,jersey_experiment_5_v3,2023.2.2,Win32,85.47008547,,,,,,,,,,,,,,,,861.4101,862.7038,862.7038,864.4451,return,0.7264,,39.0625,,,,,,FBP-YG-81.png,0.35,1.2,6,0.5,,,,,,,,,,,,,0,59,59,5,1,,,,,,,,,,,,,,,,,,,,,,,,,,,,
,,,,,V3_045,19,F,2024-11-04_15h48.14.340,jersey_experiment_5_v3,2023.2.2,Win32,85.47008547,,,,,,,,,,,,,,,,864.4464,865.7393,865.7393,867.6216,return,0.4134,,30.98958333,,,,,,FBP-YG-17.png,0.37,1.2,2,0.5,,,,,,,,,,,,,,,,,,0,0,0,1,1,,,,,,,,,,,,,,,,,,,,,,,
,,,,,V3_045,19,F,2024-11-04_15h48.14.340,jersey_experiment_5_v3,2023.2.2,Win32,85.47008547,,,,,,,,,,,,,,,,867.6219,868.916,868.9161,869.9866,return,0.2017,,83.72395833,,,,,,FBP-PT-71.png,0.43,1.2,19,0.5,,,,,,,,,,,,,,,,,,0,1,1,18,1,,,,,,,,,,,,,,,,,,,,,,,
,,,,,V3_045,19,F,2024-11-04_15h48.14.340,jersey_experiment_5_v3,2023.2.2,Win32,85.47008547,,,,,,,,,,,,,,,,869.9869,871.2809,871.2809,872.2218,return,0.1357,,30.859375,,,,,,FBP-PT-81.png,0.35,1.2,21,0.5,,,,,,,,,,,,,,,,,,0,2,2,20,1,,,,,,,,,,,,,,,,,,,,,,,
,,,,,V3_045,19,F,2024-11-04_15h48.14.340,jersey_experiment_5_v3,2023.2.2,Win32,85.47008547,,,,,,,,,,,,,,,,872.2221,873.516,873.5161,877.7279,return,1.2996,,49.34895833,,,,,,FBP-RB-91.png,0.35,1.2,56,0.5,,,,,,,,,,,,,,,,,,0,3,3,55,1,,,,,,,,,,,,,,,,,,,,,,,
,,,,,V3_045,19,F,2024-11-04_15h48.14.340,jersey_experiment_5_v3,2023.2.2,Win32,85.47008547,,,,,,,,,,,,,,,,877.7281,879.0223,879.0224,879.9516,return,0.2402,,60.28645833,,,,,,FBP-YG-19.png,0.4,1.2,13,0.5,,,,,,,,,,,,,,,,,,0,4,4,12,1,,,,,,,,,,,,,,,,,,,,,,,
,,,,,V3_045,19,F,2024-11-04_15h48.14.340,jersey_experiment_5_v3,2023.2.2,Win32,85.47008547,,,,,,,,,,,,,,,,879.9518,881.5047,881.5047,882.3868,return,0.27,,87.109375,,,,,,FBP-OG-71.png,0.43,1.2,34,0.75,,,,,,,,,,,,,,,,,,0,5,5,33,1,,,,,,,,,,,,,,,,,,,,,,,
,,,,,V3_045,19,F,2024-11-04_15h48.14.340,jersey_experiment_5_v3,2023.2.2,Win32,85.47008547,,,,,,,,,,,,,,,,882.3871,883.6811,883.6811,886.5753,return,1.8185,,86.71875,,,,,,FBP-YG-19.png,0.45,1.2,15,0.5,,,,,,,,,,,,,,,,,,0,6,6,14,1,,,,,,,,,,,,,,,,,,,,,,,
,,,,,V3_045,19,F,2024-11-04_15h48.14.340,jersey_experiment_5_v3,2023.2.2,Win32,85.47008547,,,,,,,,,,,,,,,,886.5757,887.8695,887.8695,888.7285,return,0.2488,,59.50520833,,,,,,FBP-PT-71.png,0.4,1.2,18,0.5,,,,,,,,,,,,,,,,,,0,7,7,17,1,,,,,,,,,,,,,,,,,,,,,,,
,,,,,V3_045,19,F,2024-11-04_15h48.14.340,jersey_experiment_5_v3,2023.2.2,Win32,85.47008547,,,,,,,,,,,,,,,,888.7286,890.0225,890.0225,891.3167,return,0.3524,,41.27604167,,,,,,FBP-RB-71.png,0.35,1.2,46,0.5,,,,,,,,,,,,,,,,,,0,8,8,45,1,,,,,,,,,,,,,,,,,,,,,,,
,,,,,V3_045,19,F,2024-11-04_15h48.14.340,jersey_experiment_5_v3,2023.2.2,Win32,85.47008547,,,,,,,,,,,,,,,,891.3169,892.6109,892.6109,894.3755,return,0.4968,,75.65104167,,,,,,FBP-RB-91.png,0.4,1.2,58,0.5,,,,,,,,,,,,,,,,,,0,9,9,57,1,,,,,,,,,,,,,,,,,,,,,,,
,,,,,V3_045,19,F,2024-11-04_15h48.14.340,jersey_experiment_5_v3,2023.2.2,Win32,85.47008547,,,,,,,,,,,,,,,,894.3758,895.6699,895.6699,896.7286,return,0.2145,,90.75520833,,,,,,FBP-YG-18.png,0.45,1.2,10,0.5,,,,,,,,,,,,,,,,,,0,10,10,9,1,,,,,,,,,,,,,,,,,,,,,,,
,,,,,V3_045,19,F,2024-11-04_15h48.14.340,jersey_experiment_5_v3,2023.2.2,Win32,85.47008547,,,,,,,,,,,,,,,,896.7289,898.023,898.0231,899.2228,return,0.3322,,86.97916667,,,,,,FBP-RB-81.png,0.43,1.2,54,0.5,,,,,,,,,,,,,,,,,,0,11,11,53,1,,,,,,,,,,,,,,,,,,,,,,,
,,,,,V3_045,19,F,2024-11-04_15h48.14.340,jersey_experiment_5_v3,2023.2.2,Win32,85.47008547,,,,,,,,,,,,,,,,899.223,900.517,900.5171,902.3053,return,1.0516,,90.625,,,,,,FBP-RB-71.png,0.4,1.2,48,0.5,,,,,,,,,,,,,,,,,,0,12,12,47,1,,,,,,,,,,,,,,,,,,,,,,,
,,,,,V3_045,19,F,2024-11-04_15h48.14.340,jersey_experiment_5_v3,2023.2.2,Win32,85.47008547,,,,,,,,,,,,,,,,902.3055,903.5996,903.5997,904.3995,return,0.1594,,88.54166667,,,,,,FBP-PT-81.png,0.43,1.2,24,0.5,,,,,,,,,,,,,,,,,,0,13,13,23,1,,,,,,,,,,,,,,,,,,,,,,,
,,,,,V3_045,19,F,2024-11-04_15h48.14.340,jersey_experiment_5_v3,2023.2.2,Win32,85.47008547,,,,,,,,,,,,,,,,904.3998,905.6938,905.6938,907.3526,return,0.2441,,41.66666667,,,,,,FBP-RB-81.png,0.37,1.2,52,0.5,,,,,,,,,,,,,,,,,,0,14,14,51,1,,,,,,,,,,,,,,,,,,,,,,,
,,,,,V3_045,19,F,2024-11-04_15h48.14.340,jersey_experiment_5_v3,2023.2.2,Win32,85.47008547,,,,,,,,,,,,,,,,907.3529,908.6469,908.6469,909.6232,return,0.1087,,64.453125,,,,,,FBP-RB-91.png,0.43,1.2,59,0.5,,,,,,,,,,,,,,,,,,0,15,15,58,1,,,,,,,,,,,,,,,,,,,,,,,
,,,,,V3_045,19,F,2024-11-04_15h48.14.340,jersey_experiment_5_v3,2023.2.2,Win32,85.47008547,,,,,,,,,,,,,,,,909.6235,910.9174,910.9175,912.3763,return,0.5307,,65.88541667,,,,,,FBP-YG-18.png,0.4,1.2,8,0.5,,,,,,,,,,,,,,,,,,0,16,16,7,1,,,,,,,,,,,,,,,,,,,,,,,
,,,,,V3_045,19,F,2024-11-04_15h48.14.340,jersey_experiment_5_v3,2023.2.2,Win32,85.47008547,,,,,,,,,,,,,,,,912.3765,913.6704,913.6704,914.9766,return,0.3213,,92.83854167,,,,,,FBP-RB-81.png,0.45,1.2,55,0.5,,,,,,,,,,,,,,,,,,0,17,17,54,1,,,,,,,,,,,,,,,,,,,,,,,
,,,,,V3_045,19,F,2024-11-04_15h48.14.340,jersey_experiment_5_v3,2023.2.2,Win32,85.47008547,,,,,,,,,,,,,,,,914.9768,916.2706,916.2706,920.3177,return,2.1372,,18.75,,,,,,FBP-YG-19.png,0.35,1.2,11,0.5,,,,,,,,,,,,,,,,,,0,18,18,10,1,,,,,,,,,,,,,,,,,,,,,,,
,,,,,V3_045,19,F,2024-11-04_15h48.14.340,jersey_experiment_5_v3,2023.2.2,Win32,85.47008547,,,,,,,,,,,,,,,,920.3179,921.8591,921.8592,922.6707,return,0.1484,,41.40625,,,,,,FBP-OG-71.png,0.4,1.2,33,0.75,,,,,,,,,,,,,,,,,,0,19,19,32,1,,,,,,,,,,,,,,,,,,,,,,,
,,,,,V3_045,19,F,2024-11-04_15h48.14.340,jersey_experiment_5_v3,2023.2.2,Win32,85.47008547,,,,,,,,,,,,,,,,922.6709,923.9649,923.9649,925.6355,return,1.0479,,74.21875,,,,,,FBP-PT-71.png,0.45,1.2,20,0.5,,,,,,,,,,,,,,,,,,0,20,20,19,1,,,,,,,,,,,,,,,,,,,,,,,
,,,,,V3_045,19,F,2024-11-04_15h48.14.340,jersey_experiment_5_v3,2023.2.2,Win32,85.47008547,,,,,,,,,,,,,,,,925.6358,926.9297,926.9297,927.9651,return,0.3382,,26.5625,,,,,,FBP-YG-17.png,0.35,1.2,1,0.5,,,,,,,,,,,,,,,,,,0,21,21,0,1,,,,,,,,,,,,,,,,,,,,,,,
,,,,,V3_045,19,F,2024-11-04_15h48.14.340,jersey_experiment_5_v3,2023.2.2,Win32,85.47008547,,,,,,,,,,,,,,,,927.9652,929.2592,929.2592,930.4828,return,0.1518,,36.97916667,,,,,,FBP-RB-71.png,0.37,1.2,47,0.5,,,,,,,,,,,,,,,,,,0,22,22,46,1,,,,,,,,,,,,,,,,,,,,,,,
,,,,,V3_045,19,F,2024-11-04_15h48.14.340,jersey_experiment_5_v3,2023.2.2,Win32,85.47008547,,,,,,,,,,,,,,,,930.4831,932.0359,932.036,933.4711,return,0.627,,69.53125,,,,,,FBP-OG-81.png,0.45,1.2,40,0.75,,,,,,,,,,,,,,,,,,0,23,23,39,1,,,,,,,,,,,,,,,,,,,,,,,
,,,,,V3_045,19,F,2024-11-04_15h48.14.340,jersey_experiment_5_v3,2023.2.2,Win32,85.47008547,,,,,,,,,,,,,,,,933.4714,934.7653,934.7653,936.4242,return,0.5884,,62.109375,,,,,,FBP-PT-81.png,0.4,1.2,23,0.5,,,,,,,,,,,,,,,,,,0,24,24,22,1,,,,,,,,,,,,,,,,,,,,,,,
,,,,,V3_045,19,F,2024-11-04_15h48.14.340,jersey_experiment_5_v3,2023.2.2,Win32,85.47008547,,,,,,,,,,,,,,,,936.4245,937.9774,937.9775,938.7419,return,0.2354,,86.328125,,,,,,FBP-OG-71.png,0.45,1.2,35,0.75,,,,,,,,,,,,,,,,,,0,25,25,34,1,,,,,,,,,,,,,,,,,,,,,,,
,,,,,V3_045,19,F,2024-11-04_15h48.14.340,jersey_experiment_5_v3,2023.2.2,Win32,85.47008547,,,,,,,,,,,,,,,,938.7421,940.0361,940.0361,941.6362,return,0.3312,,80.59895833,,,,,,FBP-RB-71.png,0.45,1.2,50,0.5,,,,,,,,,,,,,,,,,,0,26,26,49,1,,,,,,,,,,,,,,,,,,,,,,,
,,,,,V3_045,19,F,2024-11-04_15h48.14.340,jersey_experiment_5_v3,2023.2.2,Win32,85.47008547,,,,,,,,,,,,,,,,941.6364,943.1891,943.1892,944.8833,return,0.7085,,24.34895833,,,,,,FBP-OG-91.png,0.37,1.2,42,0.75,,,,,,,,,,,,,,,,,,0,27,27,41,1,,,,,,,,,,,,,,,,,,,,,,,
,,,,,V3_045,19,F,2024-11-04_15h48.14.340,jersey_experiment_5_v3,2023.2.2,Win32,85.47008547,,,,,,,,,,,,,,,,944.8837,946.1775,946.1776,947.3305,return,0.4506,,35.28645833,,,,,,FBP-PT-81.png,0.37,1.2,22,0.5,,,,,,,,,,,,,,,,,,0,28,28,21,1,,,,,,,,,,,,,,,,,,,,,,,
,,,,,V3_045,19,F,2024-11-04_15h48.14.340,jersey_experiment_5_v3,2023.2.2,Win32,85.47008547,,,,,,,,,,,,,,,,947.3309,948.8835,948.8836,950.2954,return,0.8091,,68.359375,,,,,,FBP-OG-91.png,0.43,1.2,44,0.75,,,,,,,,,,,,,,,,,,0,29,29,43,1,,,,,,,,,,,,,,,,,,,,,,,
,,,,,V3_045,19,F,2024-11-04_15h48.14.340,jersey_experiment_5_v3,2023.2.2,Win32,85.47008547,,,,,,,,,,,,,,,,950.2957,951.8483,951.8483,954.9895,return,1.1341,,52.99479167,,,,,,FBP-OG-81.png,0.37,1.2,37,0.75,,,,,,,,,,,,,,,,,,0,30,30,36,1,,,,,,,,,,,,,,,,,,,,,,,
,,,,,V3_045,19,F,2024-11-04_15h48.14.340,jersey_experiment_5_v3,2023.2.2,Win32,85.47008547,,,,,,,,,,,,,,,,954.9898,956.2838,956.2838,958.0368,return,0.8793,,55.72916667,,,,,,FBP-YG-17.png,0.4,1.2,3,0.5,,,,,,,,,,,,,,,,,,0,31,31,2,1,,,,,,,,,,,,,,,,,,,,,,,
,,,,,V3_045,19,F,2024-11-04_15h48.14.340,jersey_experiment_5_v3,2023.2.2,Win32,85.47008547,,,,,,,,,,,,,,,,958.0371,959.5898,959.5899,960.4723,return,0.2119,,27.734375,,,,,,FBP-OG-71.png,0.35,1.2,31,0.75,,,,,,,,,,,,,,,,,,0,32,32,30,1,,,,,,,,,,,,,,,,,,,,,,,
,,,,,V3_045,19,F,2024-11-04_15h48.14.340,jersey_experiment_5_v3,2023.2.2,Win32,85.47008547,,,,,,,,,,,,,,,,960.4725,961.7665,961.7665,962.8133,return,0.3145,,20.44270833,,,,,,FBP-RB-81.png,0.35,1.2,51,0.5,,,,,,,,,,,,,,,,,,0,33,33,50,1,,,,,,,,,,,,,,,,,,,,,,,
,,,,,V3_045,19,F,2024-11-04_15h48.14.340,jersey_experiment_5_v3,2023.2.2,Win32,85.47008547,,,,,,,,,,,,,,,,962.8137,964.1076,964.1077,965.6488,return,0.3462,,65.625,,,,,,FBP-PT-91.png,0.43,1.2,29,0.5,,,,,,,,,,,,,,,,,,0,34,34,28,1,,,,,,,,,,,,,,,,,,,,,,,
,,,,,V3_045,19,F,2024-11-04_15h48.14.340,jersey_experiment_5_v3,2023.2.2,Win32,85.47008547,,,,,,,,,,,,,,,,965.6491,967.2019,967.2019,968.1197,return,0.1807,,28.77604167,,,,,,FBP-OG-91.png,0.35,1.2,41,0.75,,,,,,,,,,,,,,,,,,0,35,35,40,1,,,,,,,,,,,,,,,,,,,,,,,
,,,,,V3_045,19,F,2024-11-04_15h48.14.340,jersey_experiment_5_v3,2023.2.2,Win32,85.47008547,,,,,,,,,,,,,,,,968.1199,969.4138,969.4138,970.6255,return,0.5456,,69.27083333,,,,,,FBP-RB-81.png,0.4,1.2,53,0.5,,,,,,,,,,,,,,,,,,0,36,36,52,1,,,,,,,,,,,,,,,,,,,,,,,
,,,,,V3_045,19,F,2024-11-04_15h48.14.340,jersey_experiment_5_v3,2023.2.2,Win32,85.47008547,,,,,,,,,,,,,,,,970.6257,971.9197,971.9198,973.1196,return,0.3669,,41.40625,,,,,,FBP-PT-71.png,0.35,1.2,16,0.5,,,,,,,,,,,,,,,,,,0,37,37,15,1,,,,,,,,,,,,,,,,,,,,,,,
,,,,,V3_045,19,F,2024-11-04_15h48.14.340,jersey_experiment_5_v3,2023.2.2,Win32,85.47008547,,,,,,,,,,,,,,,,973.1199,974.4139,974.4139,976.7903,return,1.3884,,76.04166667,,,,,,FBP-PT-81.png,0.45,1.2,25,0.5,,,,,,,,,,,,,,,,,,0,38,38,24,1,,,,,,,,,,,,,,,,,,,,,,,
,,,,,V3_045,19,F,2024-11-04_15h48.14.340,jersey_experiment_5_v3,2023.2.2,Win32,85.47008547,,,,,,,,,,,,,,,,976.7907,978.0845,978.0845,980.2375,return,0.4908,,25.13020833,,,,,,FBP-YG-18.png,0.35,1.2,6,0.5,,,,,,,,,,,,,,,,,,0,39,39,5,1,,,,,,,,,,,,,,,,,,,,,,,
,,,,,V3_045,19,F,2024-11-04_15h48.14.340,jersey_experiment_5_v3,2023.2.2,Win32,85.47008547,,,,,,,,,,,,,,,,980.2377,981.5316,981.5318,983.2611,return,0.2045,,43.359375,,,,,,FBP-RB-91.png,0.37,1.2,57,0.5,,,,,,,,,,,,,,,,,,0,40,40,56,1,,,,,,,,,,,,,,,,,,,,,,,
,,,,,V3_045,19,F,2024-11-04_15h48.14.340,jersey_experiment_5_v3,2023.2.2,Win32,85.47008547,,,,,,,,,,,,,,,,983.2613,984.5554,984.5554,986.9437,return,0.3239,,54.6875,,,,,,FBP-YG-18.png,0.37,1.2,7,0.5,,,,,,,,,,,,,,,,,,0,41,41,6,1,,,,,,,,,,,,,,,,,,,,,,,
,,,,,V3_045,19,F,2024-11-04_15h48.14.340,jersey_experiment_5_v3,2023.2.2,Win32,85.47008547,,,,,,,,,,,,,,,,986.944,988.4968,988.4969,989.6028,return,0.4857,,34.50520833,,,,,,FBP-OG-81.png,0.35,1.2,36,0.75,,,,,,,,,,,,,,,,,,0,42,42,35,1,,,,,,,,,,,,,,,,,,,,,,,
,,,,,V3_045,19,F,2024-11-04_15h48.14.340,jersey_experiment_5_v3,2023.2.2,Win32,85.47008547,,,,,,,,,,,,,,,,989.603,990.8968,990.8968,995.9557,return,0.6269,,42.1875,,,,,,FBP-RB-71.png,0.43,1.2,49,0.5,,,,,,,,,,,,,,,,,,0,43,43,48,1,,,,,,,,,,,,,,,,,,,,,,,
,,,,,V3_045,19,F,2024-11-04_15h48.14.340,jersey_experiment_5_v3,2023.2.2,Win32,85.47008547,,,,,,,,,,,,,,,,995.9559,997.25,997.25,998.9442,return,0.6142,,87.109375,,,,,,FBP-RB-91.png,0.45,1.2,60,0.5,,,,,,,,,,,,,,,,,,0,44,44,59,1,,,,,,,,,,,,,,,,,,,,,,,
,,,,,V3_045,19,F,2024-11-04_15h48.14.340,jersey_experiment_5_v3,2023.2.2,Win32,85.47008547,,,,,,,,,,,,,,,,998.9445,1000.4971,1000.4971,1001.2618,return,0.1122,,79.6875,,,,,,FBP-OG-91.png,0.4,1.2,43,0.75,,,,,,,,,,,,,,,,,,0,45,45,42,1,,,,,,,,,,,,,,,,,,,,,,,
,,,,,V3_045,19,F,2024-11-04_15h48.14.340,jersey_experiment_5_v3,2023.2.2,Win32,85.47008547,,,,,,,,,,,,,,,,1001.2621,1002.5561,1002.5561,1004.262,return,0.6506,,88.93229167,,,,,,FBP-PT-91.png,0.45,1.2,30,0.5,,,,,,,,,,,,,,,,,,0,46,46,29,1,,,,,,,,,,,,,,,,,,,,,,,
,,,,,V3_045,19,F,2024-11-04_15h48.14.340,jersey_experiment_5_v3,2023.2.2,Win32,85.47008547,,,,,,,,,,,,,,,,1004.2623,1005.8152,1005.8152,1007.2033,return,0.2126,,42.83854167,,,,,,FBP-OG-81.png,0.4,1.2,38,0.75,,,,,,,,,,,,,,,,,,0,47,47,37,1,,,,,,,,,,,,,,,,,,,,,,,
,,,,,V3_045,19,F,2024-11-04_15h48.14.340,jersey_experiment_5_v3,2023.2.2,Win32,85.47008547,,,,,,,,,,,,,,,,1007.2035,1008.4976,1008.4976,1010.5681,return,0.5547,,48.828125,,,,,,FBP-PT-91.png,0.4,1.2,28,0.5,,,,,,,,,,,,,,,,,,0,48,48,27,1,,,,,,,,,,,,,,,,,,,,,,,
,,,,,V3_045,19,F,2024-11-04_15h48.14.340,jersey_experiment_5_v3,2023.2.2,Win32,85.47008547,,,,,,,,,,,,,,,,1010.5684,1012.1212,1012.1213,1013.1565,return,0.3917,,76.69270833,,,,,,FBP-OG-91.png,0.45,1.2,45,0.75,,,,,,,,,,,,,,,,,,0,49,49,44,1,,,,,,,,,,,,,,,,,,,,,,,
,,,,,V3_045,19,F,2024-11-04_15h48.14.340,jersey_experiment_5_v3,2023.2.2,Win32,85.47008547,,,,,,,,,,,,,,,,1013.1567,1014.4508,1014.4508,1015.5685,return,0.2251,,26.5625,,,,,,FBP-PT-91.png,0.35,1.2,26,0.5,,,,,,,,,,,,,,,,,,0,50,50,25,1,,,,,,,,,,,,,,,,,,,,,,,
,,,,,V3_045,19,F,2024-11-04_15h48.14.340,jersey_experiment_5_v3,2023.2.2,Win32,85.47008547,,,,,,,,,,,,,,,,1015.5687,1016.8624,1016.8625,1018.0625,return,0.2296,,26.30208333,,,,,,FBP-PT-91.png,0.37,1.2,27,0.5,,,,,,,,,,,,,,,,,,0,51,51,26,1,,,,,,,,,,,,,,,,,,,,,,,
,,,,,V3_045,19,F,2024-11-04_15h48.14.340,jersey_experiment_5_v3,2023.2.2,Win32,85.47008547,,,,,,,,,,,,,,,,1018.0628,1019.6154,1019.6155,1020.6155,return,0.5179,,26.43229167,,,,,,FBP-OG-71.png,0.37,1.2,32,0.75,,,,,,,,,,,,,,,,,,0,52,52,31,1,,,,,,,,,,,,,,,,,,,,,,,
,,,,,V3_045,19,F,2024-11-04_15h48.14.340,jersey_experiment_5_v3,2023.2.2,Win32,85.47008547,,,,,,,,,,,,,,,,1020.6158,1022.1687,1022.1687,1022.851,return,0.156,,70.703125,,,,,,FBP-OG-81.png,0.43,1.2,39,0.75,,,,,,,,,,,,,,,,,,0,53,53,38,1,,,,,,,,,,,,,,,,,,,,,,,
,,,,,V3_045,19,F,2024-11-04_15h48.14.340,jersey_experiment_5_v3,2023.2.2,Win32,85.47008547,,,,,,,,,,,,,,,,1022.8512,1024.145,1024.1451,1024.9098,return,0.196,,80.078125,,,,,,FBP-YG-17.png,0.45,1.2,5,0.5,,,,,,,,,,,,,,,,,,0,54,54,4,1,,,,,,,,,,,,,,,,,,,,,,,
,,,,,V3_045,19,F,2024-11-04_15h48.14.340,jersey_experiment_5_v3,2023.2.2,Win32,85.47008547,,,,,,,,,,,,,,,,1024.91,1026.204,1026.2041,1027.2041,return,0.3071,,39.453125,,,,,,FBP-YG-19.png,0.37,1.2,12,0.5,,,,,,,,,,,,,,,,,,0,55,55,11,1,,,,,,,,,,,,,,,,,,,,,,,
,,,,,V3_045,19,F,2024-11-04_15h48.14.340,jersey_experiment_5_v3,2023.2.2,Win32,85.47008547,,,,,,,,,,,,,,,,1027.2044,1028.4982,1028.4982,1030.0629,return,0.4619,,65.88541667,,,,,,FBP-YG-19.png,0.43,1.2,14,0.5,,,,,,,,,,,,,,,,,,0,56,56,13,1,,,,,,,,,,,,,,,,,,,,,,,
,,,,,V3_045,19,F,2024-11-04_15h48.14.340,jersey_experiment_5_v3,2023.2.2,Win32,85.47008547,,,,,,,,,,,,,,,,1030.0632,1031.3572,1031.3572,1032.0159,return,0.11,,72.39583333,,,,,,FBP-YG-17.png,0.43,1.2,4,0.5,,,,,,,,,,,,,,,,,,0,57,57,3,1,,,,,,,,,,,,,,,,,,,,,,,
,,,,,V3_045,19,F,2024-11-04_15h48.14.340,jersey_experiment_5_v3,2023.2.2,Win32,85.47008547,,,,,,,,,,,,,,,,1032.0161,1033.31,1033.3102,1034.2396,return,0.371,,72.39583333,,,,,,FBP-YG-18.png,0.43,1.2,9,0.5,,,,,,,,,,,,,,,,,,0,58,58,8,1,,,,,,,,,,,,,,,,,,,,,,,
,,,,,V3_045,19,F,2024-11-04_15h48.14.340,jersey_experiment_5_v3,2023.2.2,Win32,85.47008547,,,,,,,,,,,,,,,,1034.2398,1035.5337,1035.5337,1036.9455,return,0.3218,,37.63020833,,,,,,FBP-PT-71.png,0.37,1.2,17,0.5,,,,,,,,,,,,,,,,,,0,59,59,16,1,,,,,,,,,,,,,,,,,,,,,,,
,,,,,V3_045,19,F,2024-11-04_15h48.14.340,jersey_experiment_5_v3,2023.2.2,Win32,85.47008547,,,,,,,,,,,,,,,,,,,,,,,,,,,,,,,,,,,,,,,,,,,,,,,,,,,,,,,,1036.9457,1040.5928,return,3.6397,,,,,,,,,,,,,,,,,,,
,,,,,V3_045,19,F,2024-11-04_15h48.14.340,jersey_experiment_5_v3,2023.2.2,Win32,85.47008547,,,,,,,,,,,,,,,,,,,,,,,,,,,,,,,,,,,,,,,,,,,,,,,,,,,,,,,,,,,,,1040.5929,1043.6517,1,1.9157,return,1.1294,,,,,,,,,,,,
,,,,,V3_045,19,F,2024-11-04_15h48.14.340,jersey_experiment_5_v3,2023.2.2,Win32,85.47008547,,,,,,,,,,,,,,,,,,,,,,,,,,,,,,,,,,,,,,,,,,,,,,,,,,,,,,,,,,,,,,,,,,,,1043.6518,1124.5208,"Perception of color and shape? or repetition? I sometimes got 4-5 ""husky"" and then I felt like the ""slender"" was more slender than if I got 2 ""slender"" in a row, I would think the slenderness is average and less pronounced, or also maybe the color pattern of the helmets and shirt combination",right,73.7905,,,,,,
,,,,,V3_045,19,F,2024-11-04_15h48.14.340,jersey_experiment_5_v3,2023.2.2,Win32,85.47008547,,,,,,,,,,,,,,,,,,,,,,,,,,,,,,,,,,,,,,,,,,,,,,,,,,,,,,,,,,,,,,,,,,,,,,,,,,1124.5209,1127.4078,return,2.8762,