requirements.started,requirements.stopped,key_resp_3.keys,key_resp_3.rt,key_resp_3.duration,Subject ID,Age,Gender,date,expName,psychopyVersion,OS,frameRate,instructions1.started,instructions1.stopped,key_resp.keys,key_resp.rt,key_resp.duration,example.started,example.stopped,enter_2.keys,enter_2.rt,enter_2.duration,instructions2.started,instructions2.stopped,enter_3.keys,enter_3.rt,enter_3.duration,image.started,image.stopped,slider_2.started,slider_2.stopped,next.keys,next.rt,next.duration,slider.response,trial_block_1.thisRepN,trial_block_1.thisTrialN,trial_block_1.thisN,trial_block_1.thisIndex,trial_block_1.ran,Path,Width,Height,Index,Duration,trial_block_2.thisRepN,trial_block_2.thisTrialN,trial_block_2.thisN,trial_block_2.thisIndex,trial_block_2.ran,rest_break.started,rest_break.stopped,end_break.started,end_break.stopped,key_resp_5.keys,key_resp_5.rt,key_resp_5.duration,trial_block_3.thisRepN,trial_block_3.thisTrialN,trial_block_3.thisN,trial_block_3.thisIndex,trial_block_3.ran,trial_block_4.thisRepN,trial_block_4.thisTrialN,trial_block_4.thisN,trial_block_4.thisIndex,trial_block_4.ran,questions_intro.started,questions_intro.stopped,enter_12.keys,enter_12.rt,enter_12.duration,question2.started,question2.stopped,question_doingbest.response,question_doingbest.rt,enter_15.keys,enter_15.rt,enter_15.duration,pattern.started,pattern.stopped,pattern_2.text,enter_17.keys,enter_17.rt,enter_17.duration,thankyou.started,thankyou.stopped,enter_14.keys,enter_14.rt,enter_14.duration
0.0001,8.0095,return,7.9977,,V3_012,20,Female,2024-10-15_17h19.28.247,jersey_experiment_5_v3,2023.2.2,Win32,85.47008547,,,,,,,,,,,,,,,,,,,,,,,,,,,,,,,,,,,,,,,,,,,,,,,,,,,,,,,,,,,,,,,,,,,,,,,,,,,,,,
,,,,,V3_012,20,Female,2024-10-15_17h19.28.247,jersey_experiment_5_v3,2023.2.2,Win32,85.47008547,8.0097,20.2336,return,12.2018,,,,,,,,,,,,,,,,,,,,,,,,,,,,,,,,,,,,,,,,,,,,,,,,,,,,,,,,,,,,,,,,,,,,,,,,,,
,,,,,V3_012,20,Female,2024-10-15_17h19.28.247,jersey_experiment_5_v3,2023.2.2,Win32,85.47008547,,,,,,20.2337,25.3043,return,5.0294,,,,,,,,,,,,,,,,,,,,,,,,,,,,,,,,,,,,,,,,,,,,,,,,,,,,,,,,,,,,,,,,,,,,,
,,,,,V3_012,20,Female,2024-10-15_17h19.28.247,jersey_experiment_5_v3,2023.2.2,Win32,85.47008547,,,,,,,,,,,25.3044,41.9402,return,16.6258,,,,,,,,,,,,,,,,,,,,,,,,,,,,,,,,,,,,,,,,,,,,,,,,,,,,,,,,,,,,,,,,
,,,,,V3_012,20,Female,2024-10-15_17h19.28.247,jersey_experiment_5_v3,2023.2.2,Win32,85.47008547,,,,,,,,,,,,,,,,41.9427,43.4931,43.4932,61.9408,return,7.3099,,62.109375,0,0,0,46,1,FBP-RB-17.png,0.37,1.2,47,0.75,,,,,,,,,,,,,,,,,,,,,,,,,,,,,,,,,,,,,,,,,,,,,
,,,,,V3_012,20,Female,2024-10-15_17h19.28.247,jersey_experiment_5_v3,2023.2.2,Win32,85.47008547,,,,,,,,,,,,,,,,61.9412,63.494,63.494,68.3059,return,1.207,,62.109375,0,1,1,45,1,FBP-RB-17.png,0.35,1.2,46,0.75,,,,,,,,,,,,,,,,,,,,,,,,,,,,,,,,,,,,,,,,,,,,,
,,,,,V3_012,20,Female,2024-10-15_17h19.28.247,jersey_experiment_5_v3,2023.2.2,Win32,85.47008547,,,,,,,,,,,,,,,,68.3061,69.8586,69.8586,75.6354,return,2.4174,,71.22395833,0,2,2,54,1,FBP-RB-18.png,0.45,1.2,55,0.75,,,,,,,,,,,,,,,,,,,,,,,,,,,,,,,,,,,,,,,,,,,,,
,,,,,V3_012,20,Female,2024-10-15_17h19.28.247,jersey_experiment_5_v3,2023.2.2,Win32,85.47008547,,,,,,,,,,,,,,,,75.6356,77.1886,77.1887,82.1299,return,1.227,,84.63541667,0,3,3,9,1,FBP-YG-81.png,0.45,1.2,10,0.75,,,,,,,,,,,,,,,,,,,,,,,,,,,,,,,,,,,,,,,,,,,,,
,,,,,V3_012,20,Female,2024-10-15_17h19.28.247,jersey_experiment_5_v3,2023.2.2,Win32,85.47008547,,,,,,,,,,,,,,,,82.1301,83.6828,83.6828,92.6007,return,4.2749,,30.20833333,0,4,4,11,1,FBP-YG-91.png,0.37,1.2,12,0.75,,,,,,,,,,,,,,,,,,,,,,,,,,,,,,,,,,,,,,,,,,,,,
,,,,,V3_012,20,Female,2024-10-15_17h19.28.247,jersey_experiment_5_v3,2023.2.2,Win32,85.47008547,,,,,,,,,,,,,,,,92.601,94.1538,94.1538,96.2243,return,0.7105,,33.33333333,0,5,5,0,1,FBP-YG-71.png,0.35,1.2,1,0.75,,,,,,,,,,,,,,,,,,,,,,,,,,,,,,,,,,,,,,,,,,,,,
,,,,,V3_012,20,Female,2024-10-15_17h19.28.247,jersey_experiment_5_v3,2023.2.2,Win32,85.47008547,,,,,,,,,,,,,,,,96.2247,97.7773,97.7774,100.4716,return,0.8791,,82.421875,0,6,6,14,1,FBP-YG-91.png,0.45,1.2,15,0.75,,,,,,,,,,,,,,,,,,,,,,,,,,,,,,,,,,,,,,,,,,,,,
,,,,,V3_012,20,Female,2024-10-15_17h19.28.247,jersey_experiment_5_v3,2023.2.2,Win32,85.47008547,,,,,,,,,,,,,,,,100.4719,101.7657,101.7657,107.8718,return,2.4913,,52.86458333,0,7,7,35,1,FBP-OG-18.png,0.35,1.2,36,0.5,,,,,,,,,,,,,,,,,,,,,,,,,,,,,,,,,,,,,,,,,,,,,
,,,,,V3_012,20,Female,2024-10-15_17h19.28.247,jersey_experiment_5_v3,2023.2.2,Win32,85.47008547,,,,,,,,,,,,,,,,107.8721,109.1659,109.1659,114.2722,return,0.3032,,52.21354167,0,8,8,37,1,FBP-OG-18.png,0.4,1.2,38,0.5,,,,,,,,,,,,,,,,,,,,,,,,,,,,,,,,,,,,,,,,,,,,,
,,,,,V3_012,20,Female,2024-10-15_17h19.28.247,jersey_experiment_5_v3,2023.2.2,Win32,85.47008547,,,,,,,,,,,,,,,,114.2724,115.5663,115.5663,119.637,return,1.616,,82.29166667,0,9,9,43,1,FBP-OG-19.png,0.43,1.2,44,0.5,,,,,,,,,,,,,,,,,,,,,,,,,,,,,,,,,,,,,,,,,,,,,
,,,,,V3_012,20,Female,2024-10-15_17h19.28.247,jersey_experiment_5_v3,2023.2.2,Win32,85.47008547,,,,,,,,,,,,,,,,119.6373,121.19,121.19,125.2019,return,2.2736,,81.77083333,0,10,10,8,1,FBP-YG-81.png,0.43,1.2,9,0.75,,,,,,,,,,,,,,,,,,,,,,,,,,,,,,,,,,,,,,,,,,,,,
,,,,,V3_012,20,Female,2024-10-15_17h19.28.247,jersey_experiment_5_v3,2023.2.2,Win32,85.47008547,,,,,,,,,,,,,,,,125.2022,126.496,126.4961,130.261,return,0.3412,,69.27083333,0,11,11,42,1,FBP-OG-19.png,0.4,1.2,43,0.5,,,,,,,,,,,,,,,,,,,,,,,,,,,,,,,,,,,,,,,,,,,,,
,,,,,V3_012,20,Female,2024-10-15_17h19.28.247,jersey_experiment_5_v3,2023.2.2,Win32,85.47008547,,,,,,,,,,,,,,,,130.2613,131.814,131.8141,133.6845,return,0.6983,,69.66145833,0,12,12,52,1,FBP-RB-18.png,0.4,1.2,53,0.75,,,,,,,,,,,,,,,,,,,,,,,,,,,,,,,,,,,,,,,,,,,,,
,,,,,V3_012,20,Female,2024-10-15_17h19.28.247,jersey_experiment_5_v3,2023.2.2,Win32,85.47008547,,,,,,,,,,,,,,,,133.6848,135.2376,135.2376,141.4731,return,1.6432,,69.66145833,0,13,13,27,1,FBP-PT-19.png,0.4,1.2,28,0.75,,,,,,,,,,,,,,,,,,,,,,,,,,,,,,,,,,,,,,,,,,,,,
,,,,,V3_012,20,Female,2024-10-15_17h19.28.247,jersey_experiment_5_v3,2023.2.2,Win32,85.47008547,,,,,,,,,,,,,,,,141.4733,142.7674,142.7674,145.7323,return,1.5459,,80.33854167,0,14,14,38,1,FBP-OG-18.png,0.43,1.2,39,0.5,,,,,,,,,,,,,,,,,,,,,,,,,,,,,,,,,,,,,,,,,,,,,
,,,,,V3_012,20,Female,2024-10-15_17h19.28.247,jersey_experiment_5_v3,2023.2.2,Win32,85.47008547,,,,,,,,,,,,,,,,145.7326,147.2853,147.2853,151.2264,return,0.6671,,37.36979167,0,15,15,16,1,FBP-PT-17.png,0.37,1.2,17,0.75,,,,,,,,,,,,,,,,,,,,,,,,,,,,,,,,,,,,,,,,,,,,,
,,,,,V3_012,20,Female,2024-10-15_17h19.28.247,jersey_experiment_5_v3,2023.2.2,Win32,85.47008547,,,,,,,,,,,,,,,,151.2267,152.7794,152.7795,159.4503,return,1.8139,,67.70833333,0,16,16,3,1,FBP-YG-71.png,0.43,1.2,4,0.75,,,,,,,,,,,,,,,,,,,,,,,,,,,,,,,,,,,,,,,,,,,,,
,,,,,V3_012,20,Female,2024-10-15_17h19.28.247,jersey_experiment_5_v3,2023.2.2,Win32,85.47008547,,,,,,,,,,,,,,,,159.4505,161.0032,161.0033,164.2154,return,1.2564,,50.65104167,0,17,17,51,1,FBP-RB-18.png,0.37,1.2,52,0.75,,,,,,,,,,,,,,,,,,,,,,,,,,,,,,,,,,,,,,,,,,,,,
,,,,,V3_012,20,Female,2024-10-15_17h19.28.247,jersey_experiment_5_v3,2023.2.2,Win32,85.47008547,,,,,,,,,,,,,,,,164.2156,165.7682,165.7682,167.7328,return,0.675,,75.390625,0,18,18,48,1,FBP-RB-17.png,0.43,1.2,49,0.75,,,,,,,,,,,,,,,,,,,,,,,,,,,,,,,,,,,,,,,,,,,,,
,,,,,V3_012,20,Female,2024-10-15_17h19.28.247,jersey_experiment_5_v3,2023.2.2,Win32,85.47008547,,,,,,,,,,,,,,,,167.733,169.2858,169.2858,176.1805,return,3.9461,,34.765625,0,19,19,5,1,FBP-YG-81.png,0.35,1.2,6,0.75,,,,,,,,,,,,,,,,,,,,,,,,,,,,,,,,,,,,,,,,,,,,,
,,,,,V3_012,20,Female,2024-10-15_17h19.28.247,jersey_experiment_5_v3,2023.2.2,Win32,85.47008547,,,,,,,,,,,,,,,,176.1807,177.7333,177.7333,187.4748,return,5.4376,,87.63020833,0,20,20,18,1,FBP-PT-17.png,0.43,1.2,19,0.75,,,,,,,,,,,,,,,,,,,,,,,,,,,,,,,,,,,,,,,,,,,,,
,,,,,V3_012,20,Female,2024-10-15_17h19.28.247,jersey_experiment_5_v3,2023.2.2,Win32,85.47008547,,,,,,,,,,,,,,,,187.4751,188.769,188.769,190.9926,return,0.4403,,88.671875,0,21,21,39,1,FBP-OG-18.png,0.45,1.2,40,0.5,,,,,,,,,,,,,,,,,,,,,,,,,,,,,,,,,,,,,,,,,,,,,
,,,,,V3_012,20,Female,2024-10-15_17h19.28.247,jersey_experiment_5_v3,2023.2.2,Win32,85.47008547,,,,,,,,,,,,,,,,190.9929,192.2868,192.2868,198.7694,return,1.5723,,35.02604167,0,22,22,31,1,FBP-OG-17.png,0.37,1.2,32,0.5,,,,,,,,,,,,,,,,,,,,,,,,,,,,,,,,,,,,,,,,,,,,,
,,,,,V3_012,20,Female,2024-10-15_17h19.28.247,jersey_experiment_5_v3,2023.2.2,Win32,85.47008547,,,,,,,,,,,,,,,,198.7695,200.3225,200.3226,202.3694,return,0.3956,,29.16666667,0,23,23,56,1,FBP-RB-19.png,0.37,1.2,57,0.75,,,,,,,,,,,,,,,,,,,,,,,,,,,,,,,,,,,,,,,,,,,,,
,,,,,V3_012,20,Female,2024-10-15_17h19.28.247,jersey_experiment_5_v3,2023.2.2,Win32,85.47008547,,,,,,,,,,,,,,,,202.3696,203.9224,203.9225,205.6522,return,0.4051,,30.20833333,0,24,24,21,1,FBP-PT-18.png,0.37,1.2,22,0.75,,,,,,,,,,,,,,,,,,,,,,,,,,,,,,,,,,,,,,,,,,,,,
,,,,,V3_012,20,Female,2024-10-15_17h19.28.247,jersey_experiment_5_v3,2023.2.2,Win32,85.47008547,,,,,,,,,,,,,,,,205.6524,206.9461,206.9461,212.4052,return,4.0589,,74.73958333,0,25,25,34,1,FBP-OG-17.png,0.45,1.2,35,0.5,,,,,,,,,,,,,,,,,,,,,,,,,,,,,,,,,,,,,,,,,,,,,
,,,,,V3_012,20,Female,2024-10-15_17h19.28.247,jersey_experiment_5_v3,2023.2.2,Win32,85.47008547,,,,,,,,,,,,,,,,212.4053,213.9581,213.9581,216.7465,return,1.3077,,39.32291667,0,26,26,15,1,FBP-PT-17.png,0.35,1.2,16,0.75,,,,,,,,,,,,,,,,,,,,,,,,,,,,,,,,,,,,,,,,,,,,,
,,,,,V3_012,20,Female,2024-10-15_17h19.28.247,jersey_experiment_5_v3,2023.2.2,Win32,85.47008547,,,,,,,,,,,,,,,,216.7469,218.2995,218.2995,225.9704,return,6.733,,81.90104167,0,27,27,49,1,FBP-RB-17.png,0.45,1.2,50,0.75,,,,,,,,,,,,,,,,,,,,,,,,,,,,,,,,,,,,,,,,,,,,,
,,,,,V3_012,20,Female,2024-10-15_17h19.28.247,jersey_experiment_5_v3,2023.2.2,Win32,85.47008547,,,,,,,,,,,,,,,,225.9706,227.2646,227.2647,236.8062,return,1.7752,,34.50520833,0,28,28,30,1,FBP-OG-17.png,0.35,1.2,31,0.5,,,,,,,,,,,,,,,,,,,,,,,,,,,,,,,,,,,,,,,,,,,,,
,,,,,V3_012,20,Female,2024-10-15_17h19.28.247,jersey_experiment_5_v3,2023.2.2,Win32,85.47008547,,,,,,,,,,,,,,,,236.8064,238.3593,238.3593,243.6416,return,4.2278,,80.59895833,0,29,29,53,1,FBP-RB-18.png,0.43,1.2,54,0.75,,,,,,,,,,,,,,,,,,,,,,,,,,,,,,,,,,,,,,,,,,,,,
,,,,,V3_012,20,Female,2024-10-15_17h19.28.247,jersey_experiment_5_v3,2023.2.2,Win32,85.47008547,,,,,,,,,,,,,,,,243.6419,244.9358,244.9359,246.0416,return,0.1883,,81.25,0,30,30,44,1,FBP-OG-19.png,0.45,1.2,45,0.5,,,,,,,,,,,,,,,,,,,,,,,,,,,,,,,,,,,,,,,,,,,,,
,,,,,V3_012,20,Female,2024-10-15_17h19.28.247,jersey_experiment_5_v3,2023.2.2,Win32,85.47008547,,,,,,,,,,,,,,,,246.0419,247.5947,247.5947,248.9831,return,0.2827,,80.859375,0,31,31,19,1,FBP-PT-17.png,0.45,1.2,20,0.75,,,,,,,,,,,,,,,,,,,,,,,,,,,,,,,,,,,,,,,,,,,,,
,,,,,V3_012,20,Female,2024-10-15_17h19.28.247,jersey_experiment_5_v3,2023.2.2,Win32,85.47008547,,,,,,,,,,,,,,,,248.9833,250.536,250.5361,253.536,return,0.8874,,33.203125,0,32,32,25,1,FBP-PT-19.png,0.35,1.2,26,0.75,,,,,,,,,,,,,,,,,,,,,,,,,,,,,,,,,,,,,,,,,,,,,
,,,,,V3_012,20,Female,2024-10-15_17h19.28.247,jersey_experiment_5_v3,2023.2.2,Win32,85.47008547,,,,,,,,,,,,,,,,253.5362,254.8302,254.8303,256.5836,return,0.2376,,31.25,0,33,33,41,1,FBP-OG-19.png,0.37,1.2,42,0.5,,,,,,,,,,,,,,,,,,,,,,,,,,,,,,,,,,,,,,,,,,,,,
,,,,,V3_012,20,Female,2024-10-15_17h19.28.247,jersey_experiment_5_v3,2023.2.2,Win32,85.47008547,,,,,,,,,,,,,,,,256.5839,258.1364,258.1364,260.1482,return,0.3674,,32.29166667,0,34,34,6,1,FBP-YG-81.png,0.37,1.2,7,0.75,,,,,,,,,,,,,,,,,,,,,,,,,,,,,,,,,,,,,,,,,,,,,
,,,,,V3_012,20,Female,2024-10-15_17h19.28.247,jersey_experiment_5_v3,2023.2.2,Win32,85.47008547,,,,,,,,,,,,,,,,260.1487,261.4422,261.4422,266.2189,return,0.9044,,52.86458333,0,35,35,33,1,FBP-OG-17.png,0.43,1.2,34,0.5,,,,,,,,,,,,,,,,,,,,,,,,,,,,,,,,,,,,,,,,,,,,,
,,,,,V3_012,20,Female,2024-10-15_17h19.28.247,jersey_experiment_5_v3,2023.2.2,Win32,85.47008547,,,,,,,,,,,,,,,,266.2192,267.7719,267.7719,274.3133,return,4.6118,,76.30208333,0,36,36,29,1,FBP-PT-19.png,0.45,1.2,30,0.75,,,,,,,,,,,,,,,,,,,,,,,,,,,,,,,,,,,,,,,,,,,,,
,,,,,V3_012,20,Female,2024-10-15_17h19.28.247,jersey_experiment_5_v3,2023.2.2,Win32,85.47008547,,,,,,,,,,,,,,,,274.3136,275.6075,275.6076,283.6078,return,5.4233,,43.359375,0,37,37,36,1,FBP-OG-18.png,0.37,1.2,37,0.5,,,,,,,,,,,,,,,,,,,,,,,,,,,,,,,,,,,,,,,,,,,,,
,,,,,V3_012,20,Female,2024-10-15_17h19.28.247,jersey_experiment_5_v3,2023.2.2,Win32,85.47008547,,,,,,,,,,,,,,,,283.6081,285.1606,285.1606,289.1256,return,2.0472,,74.73958333,0,38,38,23,1,FBP-PT-18.png,0.43,1.2,24,0.75,,,,,,,,,,,,,,,,,,,,,,,,,,,,,,,,,,,,,,,,,,,,,
,,,,,V3_012,20,Female,2024-10-15_17h19.28.247,jersey_experiment_5_v3,2023.2.2,Win32,85.47008547,,,,,,,,,,,,,,,,289.1258,290.6786,290.6786,292.9963,return,1.2518,,75.26041667,0,39,39,58,1,FBP-RB-19.png,0.43,1.2,59,0.75,,,,,,,,,,,,,,,,,,,,,,,,,,,,,,,,,,,,,,,,,,,,,
,,,,,V3_012,20,Female,2024-10-15_17h19.28.247,jersey_experiment_5_v3,2023.2.2,Win32,85.47008547,,,,,,,,,,,,,,,,292.9965,294.5494,294.5494,296.1964,return,0.3338,,75.13020833,0,40,40,24,1,FBP-PT-18.png,0.45,1.2,25,0.75,,,,,,,,,,,,,,,,,,,,,,,,,,,,,,,,,,,,,,,,,,,,,
,,,,,V3_012,20,Female,2024-10-15_17h19.28.247,jersey_experiment_5_v3,2023.2.2,Win32,85.47008547,,,,,,,,,,,,,,,,296.1967,297.7495,297.7495,298.8204,return,0.2603,,70.57291667,0,41,41,17,1,FBP-PT-17.png,0.4,1.2,18,0.75,,,,,,,,,,,,,,,,,,,,,,,,,,,,,,,,,,,,,,,,,,,,,
,,,,,V3_012,20,Female,2024-10-15_17h19.28.247,jersey_experiment_5_v3,2023.2.2,Win32,85.47008547,,,,,,,,,,,,,,,,298.8206,300.3731,300.3731,301.4789,return,0.3455,,77.99479167,0,42,42,4,1,FBP-YG-71.png,0.45,1.2,5,0.75,,,,,,,,,,,,,,,,,,,,,,,,,,,,,,,,,,,,,,,,,,,,,
,,,,,V3_012,20,Female,2024-10-15_17h19.28.247,jersey_experiment_5_v3,2023.2.2,Win32,85.47008547,,,,,,,,,,,,,,,,301.4791,303.0321,303.0321,305.4086,return,1.0421,,40.234375,0,43,43,1,1,FBP-YG-71.png,0.37,1.2,2,0.75,,,,,,,,,,,,,,,,,,,,,,,,,,,,,,,,,,,,,,,,,,,,,
,,,,,V3_012,20,Female,2024-10-15_17h19.28.247,jersey_experiment_5_v3,2023.2.2,Win32,85.47008547,,,,,,,,,,,,,,,,305.4088,306.9616,306.9617,308.4676,return,0.4172,,38.93229167,0,44,44,57,1,FBP-RB-19.png,0.4,1.2,58,0.75,,,,,,,,,,,,,,,,,,,,,,,,,,,,,,,,,,,,,,,,,,,,,
,,,,,V3_012,20,Female,2024-10-15_17h19.28.247,jersey_experiment_5_v3,2023.2.2,Win32,85.47008547,,,,,,,,,,,,,,,,308.4678,310.0205,310.0206,311.3617,return,0.3483,,39.71354167,0,45,45,47,1,FBP-RB-17.png,0.4,1.2,48,0.75,,,,,,,,,,,,,,,,,,,,,,,,,,,,,,,,,,,,,,,,,,,,,
,,,,,V3_012,20,Female,2024-10-15_17h19.28.247,jersey_experiment_5_v3,2023.2.2,Win32,85.47008547,,,,,,,,,,,,,,,,311.3619,312.9147,312.9147,316.4678,return,2.0405,,39.84375,0,46,46,7,1,FBP-YG-81.png,0.4,1.2,8,0.75,,,,,,,,,,,,,,,,,,,,,,,,,,,,,,,,,,,,,,,,,,,,,
,,,,,V3_012,20,Female,2024-10-15_17h19.28.247,jersey_experiment_5_v3,2023.2.2,Win32,85.47008547,,,,,,,,,,,,,,,,316.468,318.0092,318.0092,319.3856,return,0.4967,,24.86979167,0,47,47,55,1,FBP-RB-19.png,0.35,1.2,56,0.75,,,,,,,,,,,,,,,,,,,,,,,,,,,,,,,,,,,,,,,,,,,,,
,,,,,V3_012,20,Female,2024-10-15_17h19.28.247,jersey_experiment_5_v3,2023.2.2,Win32,85.47008547,,,,,,,,,,,,,,,,319.3859,320.9388,320.9388,322.1622,return,0.3245,,25.13020833,0,48,48,50,1,FBP-RB-18.png,0.35,1.2,51,0.75,,,,,,,,,,,,,,,,,,,,,,,,,,,,,,,,,,,,,,,,,,,,,
,,,,,V3_012,20,Female,2024-10-15_17h19.28.247,jersey_experiment_5_v3,2023.2.2,Win32,85.47008547,,,,,,,,,,,,,,,,322.1625,323.7152,323.7152,325.8329,return,0.8631,,50,0,49,49,2,1,FBP-YG-71.png,0.4,1.2,3,0.75,,,,,,,,,,,,,,,,,,,,,,,,,,,,,,,,,,,,,,,,,,,,,
,,,,,V3_012,20,Female,2024-10-15_17h19.28.247,jersey_experiment_5_v3,2023.2.2,Win32,85.47008547,,,,,,,,,,,,,,,,325.8332,327.3859,327.386,328.7859,return,0.3363,,55.20833333,0,50,50,12,1,FBP-YG-91.png,0.4,1.2,13,0.75,,,,,,,,,,,,,,,,,,,,,,,,,,,,,,,,,,,,,,,,,,,,,
,,,,,V3_012,20,Female,2024-10-15_17h19.28.247,jersey_experiment_5_v3,2023.2.2,Win32,85.47008547,,,,,,,,,,,,,,,,328.786,330.3389,330.3391,331.2567,return,0.1885,,55.72916667,0,51,51,26,1,FBP-PT-19.png,0.37,1.2,27,0.75,,,,,,,,,,,,,,,,,,,,,,,,,,,,,,,,,,,,,,,,,,,,,
,,,,,V3_012,20,Female,2024-10-15_17h19.28.247,jersey_experiment_5_v3,2023.2.2,Win32,85.47008547,,,,,,,,,,,,,,,,331.2568,332.8097,332.8097,334.9508,return,1.1789,,74.34895833,0,52,52,13,1,FBP-YG-91.png,0.43,1.2,14,0.75,,,,,,,,,,,,,,,,,,,,,,,,,,,,,,,,,,,,,,,,,,,,,
,,,,,V3_012,20,Female,2024-10-15_17h19.28.247,jersey_experiment_5_v3,2023.2.2,Win32,85.47008547,,,,,,,,,,,,,,,,334.951,336.245,336.245,337.1745,return,0.2573,,74.86979167,0,53,53,32,1,FBP-OG-17.png,0.4,1.2,33,0.5,,,,,,,,,,,,,,,,,,,,,,,,,,,,,,,,,,,,,,,,,,,,,
,,,,,V3_012,20,Female,2024-10-15_17h19.28.247,jersey_experiment_5_v3,2023.2.2,Win32,85.47008547,,,,,,,,,,,,,,,,337.1747,338.7274,338.7274,341.8453,return,0.8273,,35.546875,0,54,54,20,1,FBP-PT-18.png,0.35,1.2,21,0.75,,,,,,,,,,,,,,,,,,,,,,,,,,,,,,,,,,,,,,,,,,,,,
,,,,,V3_012,20,Female,2024-10-15_17h19.28.247,jersey_experiment_5_v3,2023.2.2,Win32,85.47008547,,,,,,,,,,,,,,,,341.8456,343.3981,343.3982,351.8103,return,2.1438,,37.109375,0,55,55,28,1,FBP-PT-19.png,0.43,1.2,29,0.75,,,,,,,,,,,,,,,,,,,,,,,,,,,,,,,,,,,,,,,,,,,,,
,,,,,V3_012,20,Female,2024-10-15_17h19.28.247,jersey_experiment_5_v3,2023.2.2,Win32,85.47008547,,,,,,,,,,,,,,,,351.8105,353.3633,353.3633,354.9045,return,0.2675,,74.73958333,0,56,56,59,1,FBP-RB-19.png,0.45,1.2,60,0.75,,,,,,,,,,,,,,,,,,,,,,,,,,,,,,,,,,,,,,,,,,,,,
,,,,,V3_012,20,Female,2024-10-15_17h19.28.247,jersey_experiment_5_v3,2023.2.2,Win32,85.47008547,,,,,,,,,,,,,,,,354.9048,356.4575,356.4575,360.2108,return,2.4999,,49.34895833,0,57,57,22,1,FBP-PT-18.png,0.4,1.2,23,0.75,,,,,,,,,,,,,,,,,,,,,,,,,,,,,,,,,,,,,,,,,,,,,
,,,,,V3_012,20,Female,2024-10-15_17h19.28.247,jersey_experiment_5_v3,2023.2.2,Win32,85.47008547,,,,,,,,,,,,,,,,360.211,361.7637,361.7637,362.9637,return,0.2525,,28.25520833,0,58,58,10,1,FBP-YG-91.png,0.35,1.2,11,0.75,,,,,,,,,,,,,,,,,,,,,,,,,,,,,,,,,,,,,,,,,,,,,
,,,,,V3_012,20,Female,2024-10-15_17h19.28.247,jersey_experiment_5_v3,2023.2.2,Win32,85.47008547,,,,,,,,,,,,,,,,362.9638,364.2577,364.2578,365.2697,return,0.2035,,28.90625,0,59,59,40,1,FBP-OG-19.png,0.35,1.2,41,0.5,,,,,,,,,,,,,,,,,,,,,,,,,,,,,,,,,,,,,,,,,,,,,
,,,,,V3_012,20,Female,2024-10-15_17h19.28.247,jersey_experiment_5_v3,2023.2.2,Win32,85.47008547,,,,,,,,,,,,,,,,365.2718,366.5638,366.5639,367.7169,return,0.2513,,28.125,,,,,,FBP-OG-91.png,0.35,1.2,41,0.5,0,0,0,40,1,,,,,,,,,,,,,,,,,,,,,,,,,,,,,,,,,,,,,,,,
,,,,,V3_012,20,Female,2024-10-15_17h19.28.247,jersey_experiment_5_v3,2023.2.2,Win32,85.47008547,,,,,,,,,,,,,,,,367.7172,369.2697,369.2698,370.3287,return,0.2812,,28.90625,,,,,,FBP-RB-91.png,0.37,1.2,57,0.75,0,1,1,56,1,,,,,,,,,,,,,,,,,,,,,,,,,,,,,,,,,,,,,,,,
,,,,,V3_012,20,Female,2024-10-15_17h19.28.247,jersey_experiment_5_v3,2023.2.2,Win32,85.47008547,,,,,,,,,,,,,,,,370.329,371.6228,371.6228,373.4817,return,0.5182,,28.64583333,,,,,,FBP-OG-71.png,0.37,1.2,32,0.5,0,2,2,31,1,,,,,,,,,,,,,,,,,,,,,,,,,,,,,,,,,,,,,,,,
,,,,,V3_012,20,Female,2024-10-15_17h19.28.247,jersey_experiment_5_v3,2023.2.2,Win32,85.47008547,,,,,,,,,,,,,,,,373.4819,374.7759,374.7759,376.0231,return,0.2254,,74.34895833,,,,,,FBP-OG-71.png,0.45,1.2,35,0.5,0,3,3,34,1,,,,,,,,,,,,,,,,,,,,,,,,,,,,,,,,,,,,,,,,
,,,,,V3_012,20,Female,2024-10-15_17h19.28.247,jersey_experiment_5_v3,2023.2.2,Win32,85.47008547,,,,,,,,,,,,,,,,376.0235,377.5761,377.5761,378.576,return,0.3935,,74.73958333,,,,,,FBP-YG-17.png,0.4,1.2,3,0.75,0,4,4,2,1,,,,,,,,,,,,,,,,,,,,,,,,,,,,,,,,,,,,,,,,
,,,,,V3_012,20,Female,2024-10-15_17h19.28.247,jersey_experiment_5_v3,2023.2.2,Win32,85.47008547,,,,,,,,,,,,,,,,378.5763,380.129,380.129,382.5174,return,0.2621,,59.63541667,,,,,,FBP-PT-71.png,0.4,1.2,18,0.75,0,5,5,17,1,,,,,,,,,,,,,,,,,,,,,,,,,,,,,,,,,,,,,,,,
,,,,,V3_012,20,Female,2024-10-15_17h19.28.247,jersey_experiment_5_v3,2023.2.2,Win32,85.47008547,,,,,,,,,,,,,,,,382.5176,384.0702,384.0703,386.1294,return,0.1962,,45.44270833,,,,,,FBP-PT-91.png,0.37,1.2,27,0.75,0,6,6,26,1,,,,,,,,,,,,,,,,,,,,,,,,,,,,,,,,,,,,,,,,
,,,,,V3_012,20,Female,2024-10-15_17h19.28.247,jersey_experiment_5_v3,2023.2.2,Win32,85.47008547,,,,,,,,,,,,,,,,386.1296,387.4234,387.4234,388.7881,return,0.1932,,75.390625,,,,,,FBP-OG-91.png,0.43,1.2,44,0.5,0,7,7,43,1,,,,,,,,,,,,,,,,,,,,,,,,,,,,,,,,,,,,,,,,
,,,,,V3_012,20,Female,2024-10-15_17h19.28.247,jersey_experiment_5_v3,2023.2.2,Win32,85.47008547,,,,,,,,,,,,,,,,388.7884,390.3412,390.3412,398.2591,return,5.9238,,34.50520833,,,,,,FBP-RB-71.png,0.35,1.2,46,0.75,0,8,8,45,1,,,,,,,,,,,,,,,,,,,,,,,,,,,,,,,,,,,,,,,,
,,,,,V3_012,20,Female,2024-10-15_17h19.28.247,jersey_experiment_5_v3,2023.2.2,Win32,85.47008547,,,,,,,,,,,,,,,,398.2593,399.8122,399.8122,400.8827,return,0.2651,,34.89583333,,,,,,FBP-PT-91.png,0.35,1.2,26,0.75,0,9,9,25,1,,,,,,,,,,,,,,,,,,,,,,,,,,,,,,,,,,,,,,,,
,,,,,V3_012,20,Female,2024-10-15_17h19.28.247,jersey_experiment_5_v3,2023.2.2,Win32,85.47008547,,,,,,,,,,,,,,,,400.883,402.4358,402.4358,404.6005,return,0.7878,,34.375,,,,,,FBP-YG-19.png,0.37,1.2,12,0.75,0,10,10,11,1,,,,,,,,,,,,,,,,,,,,,,,,,,,,,,,,,,,,,,,,
,,,,,V3_012,20,Female,2024-10-15_17h19.28.247,jersey_experiment_5_v3,2023.2.2,Win32,85.47008547,,,,,,,,,,,,,,,,404.6008,405.8947,405.8948,407.4594,return,0.4882,,25,,,,,,FBP-OG-81.png,0.35,1.2,36,0.5,0,11,11,35,1,,,,,,,,,,,,,,,,,,,,,,,,,,,,,,,,,,,,,,,,
,,,,,V3_012,20,Female,2024-10-15_17h19.28.247,jersey_experiment_5_v3,2023.2.2,Win32,85.47008547,,,,,,,,,,,,,,,,407.4597,408.7538,408.7538,410.6125,return,1.0514,,74.86979167,,,,,,FBP-OG-91.png,0.45,1.2,45,0.5,0,12,12,44,1,,,,,,,,,,,,,,,,,,,,,,,,,,,,,,,,,,,,,,,,
,,,,,V3_012,20,Female,2024-10-15_17h19.28.247,jersey_experiment_5_v3,2023.2.2,Win32,85.47008547,,,,,,,,,,,,,,,,410.6127,412.1656,412.1656,414.2243,return,1.075,,75.78125,,,,,,FBP-PT-91.png,0.43,1.2,29,0.75,0,13,13,28,1,,,,,,,,,,,,,,,,,,,,,,,,,,,,,,,,,,,,,,,,
,,,,,V3_012,20,Female,2024-10-15_17h19.28.247,jersey_experiment_5_v3,2023.2.2,Win32,85.47008547,,,,,,,,,,,,,,,,414.2245,415.7773,415.7773,417.5421,return,0.6241,,74.73958333,,,,,,FBP-YG-17.png,0.45,1.2,5,0.75,0,14,14,4,1,,,,,,,,,,,,,,,,,,,,,,,,,,,,,,,,,,,,,,,,
,,,,,V3_012,20,Female,2024-10-15_17h19.28.247,jersey_experiment_5_v3,2023.2.2,Win32,85.47008547,,,,,,,,,,,,,,,,417.5424,419.0952,419.0952,423.1543,return,3.1249,,45.18229167,,,,,,FBP-PT-71.png,0.37,1.2,17,0.75,0,15,15,16,1,,,,,,,,,,,,,,,,,,,,,,,,,,,,,,,,,,,,,,,,
,,,,,V3_012,20,Female,2024-10-15_17h19.28.247,jersey_experiment_5_v3,2023.2.2,Win32,85.47008547,,,,,,,,,,,,,,,,423.1545,424.7073,424.7074,425.8602,return,0.2128,,46.484375,,,,,,FBP-PT-81.png,0.37,1.2,22,0.75,0,16,16,21,1,,,,,,,,,,,,,,,,,,,,,,,,,,,,,,,,,,,,,,,,
,,,,,V3_012,20,Female,2024-10-15_17h19.28.247,jersey_experiment_5_v3,2023.2.2,Win32,85.47008547,,,,,,,,,,,,,,,,425.8605,427.413,427.4131,430.1778,return,1.3014,,69.140625,,,,,,FBP-YG-19.png,0.43,1.2,14,0.75,0,17,17,13,1,,,,,,,,,,,,,,,,,,,,,,,,,,,,,,,,,,,,,,,,
,,,,,V3_012,20,Female,2024-10-15_17h19.28.247,jersey_experiment_5_v3,2023.2.2,Win32,85.47008547,,,,,,,,,,,,,,,,430.1781,431.731,431.7311,433.6839,return,0.8285,,77.86458333,,,,,,FBP-PT-91.png,0.45,1.2,30,0.75,0,18,18,29,1,,,,,,,,,,,,,,,,,,,,,,,,,,,,,,,,,,,,,,,,
,,,,,V3_012,20,Female,2024-10-15_17h19.28.247,jersey_experiment_5_v3,2023.2.2,Win32,85.47008547,,,,,,,,,,,,,,,,433.6841,435.2254,435.2254,441.2254,return,3.993,,33.59375,,,,,,FBP-PT-71.png,0.35,1.2,16,0.75,0,19,19,15,1,,,,,,,,,,,,,,,,,,,,,,,,,,,,,,,,,,,,,,,,
,,,,,V3_012,20,Female,2024-10-15_17h19.28.247,jersey_experiment_5_v3,2023.2.2,Win32,85.47008547,,,,,,,,,,,,,,,,441.2257,442.5196,442.5196,445.8138,return,0.8235,,43.22916667,,,,,,FBP-OG-81.png,0.4,1.2,38,0.5,0,20,20,37,1,,,,,,,,,,,,,,,,,,,,,,,,,,,,,,,,,,,,,,,,
,,,,,V3_012,20,Female,2024-10-15_17h19.28.247,jersey_experiment_5_v3,2023.2.2,Win32,85.47008547,,,,,,,,,,,,,,,,445.8139,447.3551,447.3552,449.1786,return,0.8237,,61.58854167,,,,,,FBP-PT-71.png,0.43,1.2,19,0.75,0,21,21,18,1,,,,,,,,,,,,,,,,,,,,,,,,,,,,,,,,,,,,,,,,
,,,,,V3_012,20,Female,2024-10-15_17h19.28.247,jersey_experiment_5_v3,2023.2.2,Win32,85.47008547,,,,,,,,,,,,,,,,449.1789,450.7316,450.7316,455.2729,return,0.7684,,56.90104167,,,,,,FBP-RB-91.png,0.4,1.2,58,0.75,0,22,22,57,1,,,,,,,,,,,,,,,,,,,,,,,,,,,,,,,,,,,,,,,,
,,,,,V3_012,20,Female,2024-10-15_17h19.28.247,jersey_experiment_5_v3,2023.2.2,Win32,85.47008547,,,,,,,,,,,,,,,,455.2732,456.567,456.5671,458.2966,return,0.5491,,55.98958333,,,,,,FBP-OG-71.png,0.4,1.2,33,0.5,0,23,23,32,1,,,,,,,,,,,,,,,,,,,,,,,,,,,,,,,,,,,,,,,,
,,,,,V3_012,20,Female,2024-10-15_17h19.28.247,jersey_experiment_5_v3,2023.2.2,Win32,85.47008547,,,,,,,,,,,,,,,,458.2969,459.8495,459.8495,462.2616,return,1.4355,,41.14583333,,,,,,FBP-YG-18.png,0.35,1.2,6,0.75,0,24,24,5,1,,,,,,,,,,,,,,,,,,,,,,,,,,,,,,,,,,,,,,,,
,,,,,V3_012,20,Female,2024-10-15_17h19.28.247,jersey_experiment_5_v3,2023.2.2,Win32,85.47008547,,,,,,,,,,,,,,,,462.2618,463.5556,463.5557,464.8969,return,0.5376,,38.54166667,,,,,,FBP-OG-71.png,0.35,1.2,31,0.5,0,25,25,30,1,,,,,,,,,,,,,,,,,,,,,,,,,,,,,,,,,,,,,,,,
,,,,,V3_012,20,Female,2024-10-15_17h19.28.247,jersey_experiment_5_v3,2023.2.2,Win32,85.47008547,,,,,,,,,,,,,,,,464.8971,466.4499,466.4499,469.1205,return,0.6531,,71.484375,,,,,,FBP-RB-81.png,0.45,1.2,55,0.75,0,26,26,54,1,,,,,,,,,,,,,,,,,,,,,,,,,,,,,,,,,,,,,,,,
,,,,,V3_012,20,Female,2024-10-15_17h19.28.247,jersey_experiment_5_v3,2023.2.2,Win32,85.47008547,,,,,,,,,,,,,,,,469.1208,470.6737,470.6737,473.603,return,1.6963,,37.5,,,,,,FBP-RB-81.png,0.35,1.2,51,0.75,0,27,27,50,1,,,,,,,,,,,,,,,,,,,,,,,,,,,,,,,,,,,,,,,,
,,,,,V3_012,20,Female,2024-10-15_17h19.28.247,jersey_experiment_5_v3,2023.2.2,Win32,85.47008547,,,,,,,,,,,,,,,,473.6033,474.8974,474.8974,478.2973,return,2.0943,,36.19791667,,,,,,FBP-OG-81.png,0.37,1.2,37,0.5,0,28,28,36,1,,,,,,,,,,,,,,,,,,,,,,,,,,,,,,,,,,,,,,,,
,,,,,V3_012,20,Female,2024-10-15_17h19.28.247,jersey_experiment_5_v3,2023.2.2,Win32,85.47008547,,,,,,,,,,,,,,,,478.2976,479.8503,479.8504,485.8506,return,4.6911,,79.42708333,,,,,,FBP-PT-71.png,0.45,1.2,20,0.75,0,29,29,19,1,,,,,,,,,,,,,,,,,,,,,,,,,,,,,,,,,,,,,,,,
,,,,,V3_012,20,Female,2024-10-15_17h19.28.247,jersey_experiment_5_v3,2023.2.2,Win32,85.47008547,,,,,,,,,,,,,,,,485.8507,487.4037,487.4037,497.9687,return,1.7103,,49.86979167,,,,,,FBP-YG-18.png,0.4,1.2,8,0.75,0,30,30,7,1,,,,,,,,,,,,,,,,,,,,,,,,,,,,,,,,,,,,,,,,
,,,,,V3_012,20,Female,2024-10-15_17h19.28.247,jersey_experiment_5_v3,2023.2.2,Win32,85.47008547,,,,,,,,,,,,,,,,497.969,499.2629,499.2629,501.1688,return,0.6513,,74.73958333,,,,,,FBP-OG-81.png,0.43,1.2,39,0.5,0,31,31,38,1,,,,,,,,,,,,,,,,,,,,,,,,,,,,,,,,,,,,,,,,
,,,,,V3_012,20,Female,2024-10-15_17h19.28.247,jersey_experiment_5_v3,2023.2.2,Win32,85.47008547,,,,,,,,,,,,,,,,501.169,502.7218,502.7218,504.4747,return,0.5105,,49.73958333,,,,,,FBP-YG-18.png,0.37,1.2,7,0.75,0,32,32,6,1,,,,,,,,,,,,,,,,,,,,,,,,,,,,,,,,,,,,,,,,
,,,,,V3_012,20,Female,2024-10-15_17h19.28.247,jersey_experiment_5_v3,2023.2.2,Win32,85.47008547,,,,,,,,,,,,,,,,504.4749,506.0279,506.0279,507.4984,return,0.612,,74.47916667,,,,,,FBP-PT-81.png,0.45,1.2,25,0.75,0,33,33,24,1,,,,,,,,,,,,,,,,,,,,,,,,,,,,,,,,,,,,,,,,
,,,,,V3_012,20,Female,2024-10-15_17h19.28.247,jersey_experiment_5_v3,2023.2.2,Win32,85.47008547,,,,,,,,,,,,,,,,507.4986,509.0514,509.0515,510.8751,return,0.6279,,55.46875,,,,,,FBP-PT-81.png,0.4,1.2,23,0.75,0,34,34,22,1,,,,,,,,,,,,,,,,,,,,,,,,,,,,,,,,,,,,,,,,
,,,,,V3_012,20,Female,2024-10-15_17h19.28.247,jersey_experiment_5_v3,2023.2.2,Win32,85.47008547,,,,,,,,,,,,,,,,510.8753,512.4282,512.4282,514.0751,return,0.6982,,74.86979167,,,,,,FBP-YG-18.png,0.45,1.2,10,0.75,0,35,35,9,1,,,,,,,,,,,,,,,,,,,,,,,,,,,,,,,,,,,,,,,,
,,,,,V3_012,20,Female,2024-10-15_17h19.28.247,jersey_experiment_5_v3,2023.2.2,Win32,85.47008547,,,,,,,,,,,,,,,,514.0753,515.6282,515.6282,517.1458,return,0.6354,,74.609375,,,,,,FBP-RB-91.png,0.45,1.2,60,0.75,0,36,36,59,1,,,,,,,,,,,,,,,,,,,,,,,,,,,,,,,,,,,,,,,,
,,,,,V3_012,20,Female,2024-10-15_17h19.28.247,jersey_experiment_5_v3,2023.2.2,Win32,85.47008547,,,,,,,,,,,,,,,,517.1461,518.6988,518.6989,521.7461,return,0.6384,,75,,,,,,FBP-YG-19.png,0.45,1.2,15,0.75,0,37,37,14,1,,,,,,,,,,,,,,,,,,,,,,,,,,,,,,,,,,,,,,,,
,,,,,V3_012,20,Female,2024-10-15_17h19.28.247,jersey_experiment_5_v3,2023.2.2,Win32,85.47008547,,,,,,,,,,,,,,,,521.7463,523.2992,523.2993,526.1697,return,1.192,,43.61979167,,,,,,FBP-RB-71.png,0.37,1.2,47,0.75,0,38,38,46,1,,,,,,,,,,,,,,,,,,,,,,,,,,,,,,,,,,,,,,,,
,,,,,V3_012,20,Female,2024-10-15_17h19.28.247,jersey_experiment_5_v3,2023.2.2,Win32,85.47008547,,,,,,,,,,,,,,,,526.17,527.4639,527.464,530.2286,return,0.7653,,75,,,,,,FBP-OG-81.png,0.45,1.2,40,0.5,0,39,39,39,1,,,,,,,,,,,,,,,,,,,,,,,,,,,,,,,,,,,,,,,,
,,,,,V3_012,20,Female,2024-10-15_17h19.28.247,jersey_experiment_5_v3,2023.2.2,Win32,85.47008547,,,,,,,,,,,,,,,,530.2288,531.7817,531.7817,535.4407,return,0.9932,,36.71875,,,,,,FBP-YG-19.png,0.35,1.2,11,0.75,0,40,40,10,1,,,,,,,,,,,,,,,,,,,,,,,,,,,,,,,,,,,,,,,,
,,,,,V3_012,20,Female,2024-10-15_17h19.28.247,jersey_experiment_5_v3,2023.2.2,Win32,85.47008547,,,,,,,,,,,,,,,,535.4409,536.9936,536.9936,538.1819,return,0.6246,,37.23958333,,,,,,FBP-YG-17.png,0.37,1.2,2,0.75,0,41,41,1,1,,,,,,,,,,,,,,,,,,,,,,,,,,,,,,,,,,,,,,,,
,,,,,V3_012,20,Female,2024-10-15_17h19.28.247,jersey_experiment_5_v3,2023.2.2,Win32,85.47008547,,,,,,,,,,,,,,,,538.1821,539.735,539.735,544.6763,return,1.9421,,62.890625,,,,,,FBP-RB-71.png,0.43,1.2,49,0.75,0,42,42,48,1,,,,,,,,,,,,,,,,,,,,,,,,,,,,,,,,,,,,,,,,
,,,,,V3_012,20,Female,2024-10-15_17h19.28.247,jersey_experiment_5_v3,2023.2.2,Win32,85.47008547,,,,,,,,,,,,,,,,544.6765,545.9704,545.9705,547.3234,return,0.6747,,62.63020833,,,,,,FBP-OG-91.png,0.4,1.2,43,0.5,0,43,43,42,1,,,,,,,,,,,,,,,,,,,,,,,,,,,,,,,,,,,,,,,,
,,,,,V3_012,20,Female,2024-10-15_17h19.28.247,jersey_experiment_5_v3,2023.2.2,Win32,85.47008547,,,,,,,,,,,,,,,,547.3237,548.8764,548.8764,551.2648,return,0.8394,,62.63020833,,,,,,FBP-RB-71.png,0.4,1.2,48,0.75,0,44,44,47,1,,,,,,,,,,,,,,,,,,,,,,,,,,,,,,,,,,,,,,,,
,,,,,V3_012,20,Female,2024-10-15_17h19.28.247,jersey_experiment_5_v3,2023.2.2,Win32,85.47008547,,,,,,,,,,,,,,,,551.265,552.8178,552.8178,553.8295,return,0.5054,,62.63020833,,,,,,FBP-PT-91.png,0.4,1.2,28,0.75,0,45,45,27,1,,,,,,,,,,,,,,,,,,,,,,,,,,,,,,,,,,,,,,,,
,,,,,V3_012,20,Female,2024-10-15_17h19.28.247,jersey_experiment_5_v3,2023.2.2,Win32,85.47008547,,,,,,,,,,,,,,,,553.8297,555.3824,555.3825,559.9474,return,3.4455,,38.671875,,,,,,FBP-YG-17.png,0.35,1.2,1,0.75,0,46,46,0,1,,,,,,,,,,,,,,,,,,,,,,,,,,,,,,,,,,,,,,,,
,,,,,V3_012,20,Female,2024-10-15_17h19.28.247,jersey_experiment_5_v3,2023.2.2,Win32,85.47008547,,,,,,,,,,,,,,,,559.9478,561.2415,561.2415,562.9945,return,0.7242,,37.109375,,,,,,FBP-OG-91.png,0.37,1.2,42,0.5,0,47,47,41,1,,,,,,,,,,,,,,,,,,,,,,,,,,,,,,,,,,,,,,,,
,,,,,V3_012,20,Female,2024-10-15_17h19.28.247,jersey_experiment_5_v3,2023.2.2,Win32,85.47008547,,,,,,,,,,,,,,,,562.9948,564.5477,564.5477,566.3358,return,0.7582,,32.55208333,,,,,,FBP-RB-91.png,0.35,1.2,56,0.75,0,48,48,55,1,,,,,,,,,,,,,,,,,,,,,,,,,,,,,,,,,,,,,,,,
,,,,,V3_012,20,Female,2024-10-15_17h19.28.247,jersey_experiment_5_v3,2023.2.2,Win32,85.47008547,,,,,,,,,,,,,,,,566.336,567.889,567.8891,569.5359,return,0.5462,,32.94270833,,,,,,FBP-RB-81.png,0.37,1.2,52,0.75,0,49,49,51,1,,,,,,,,,,,,,,,,,,,,,,,,,,,,,,,,,,,,,,,,
,,,,,V3_012,20,Female,2024-10-15_17h19.28.247,jersey_experiment_5_v3,2023.2.2,Win32,85.47008547,,,,,,,,,,,,,,,,569.5363,571.0892,571.0892,572.842,return,0.6115,,58.46354167,,,,,,FBP-RB-81.png,0.43,1.2,54,0.75,0,50,50,53,1,,,,,,,,,,,,,,,,,,,,,,,,,,,,,,,,,,,,,,,,
,,,,,V3_012,20,Female,2024-10-15_17h19.28.247,jersey_experiment_5_v3,2023.2.2,Win32,85.47008547,,,,,,,,,,,,,,,,572.8423,574.3949,574.395,576.56,return,0.6765,,59.50520833,,,,,,FBP-YG-18.png,0.43,1.2,9,0.75,0,51,51,8,1,,,,,,,,,,,,,,,,,,,,,,,,,,,,,,,,,,,,,,,,
,,,,,V3_012,20,Female,2024-10-15_17h19.28.247,jersey_experiment_5_v3,2023.2.2,Win32,85.47008547,,,,,,,,,,,,,,,,576.5603,578.1128,578.1129,582.0071,return,2.5435,,35.41666667,,,,,,FBP-PT-81.png,0.35,1.2,21,0.75,0,52,52,20,1,,,,,,,,,,,,,,,,,,,,,,,,,,,,,,,,,,,,,,,,
,,,,,V3_012,20,Female,2024-10-15_17h19.28.247,jersey_experiment_5_v3,2023.2.2,Win32,85.47008547,,,,,,,,,,,,,,,,582.0073,583.5602,583.5603,585.2071,return,0.6039,,66.015625,,,,,,FBP-YG-17.png,0.43,1.2,4,0.75,0,53,53,3,1,,,,,,,,,,,,,,,,,,,,,,,,,,,,,,,,,,,,,,,,
,,,,,V3_012,20,Female,2024-10-15_17h19.28.247,jersey_experiment_5_v3,2023.2.2,Win32,85.47008547,,,,,,,,,,,,,,,,585.2074,586.7601,586.7601,588.1839,return,0.527,,67.1875,,,,,,FBP-RB-91.png,0.43,1.2,59,0.75,0,54,54,58,1,,,,,,,,,,,,,,,,,,,,,,,,,,,,,,,,,,,,,,,,
,,,,,V3_012,20,Female,2024-10-15_17h19.28.247,jersey_experiment_5_v3,2023.2.2,Win32,85.47008547,,,,,,,,,,,,,,,,588.184,589.4778,589.4779,592.8662,return,2.4068,,67.1875,,,,,,FBP-OG-71.png,0.43,1.2,34,0.5,0,55,55,33,1,,,,,,,,,,,,,,,,,,,,,,,,,,,,,,,,,,,,,,,,
,,,,,V3_012,20,Female,2024-10-15_17h19.28.247,jersey_experiment_5_v3,2023.2.2,Win32,85.47008547,,,,,,,,,,,,,,,,592.8664,594.4193,594.4194,596.2428,return,0.6149,,66.53645833,,,,,,FBP-RB-81.png,0.4,1.2,53,0.75,0,56,56,52,1,,,,,,,,,,,,,,,,,,,,,,,,,,,,,,,,,,,,,,,,
,,,,,V3_012,20,Female,2024-10-15_17h19.28.247,jersey_experiment_5_v3,2023.2.2,Win32,85.47008547,,,,,,,,,,,,,,,,596.2431,597.796,597.796,600.6077,return,1.0531,,69.140625,,,,,,FBP-PT-81.png,0.43,1.2,24,0.75,0,57,57,23,1,,,,,,,,,,,,,,,,,,,,,,,,,,,,,,,,,,,,,,,,
,,,,,V3_012,20,Female,2024-10-15_17h19.28.247,jersey_experiment_5_v3,2023.2.2,Win32,85.47008547,,,,,,,,,,,,,,,,600.6081,602.1608,602.1608,603.7019,return,0.5568,,69.40104167,,,,,,FBP-YG-19.png,0.4,1.2,13,0.75,0,58,58,12,1,,,,,,,,,,,,,,,,,,,,,,,,,,,,,,,,,,,,,,,,
,,,,,V3_012,20,Female,2024-10-15_17h19.28.247,jersey_experiment_5_v3,2023.2.2,Win32,85.47008547,,,,,,,,,,,,,,,,603.7022,605.255,605.2551,606.9609,return,0.6434,,80.98958333,,,,,,FBP-RB-71.png,0.45,1.2,50,0.75,0,59,59,49,1,,,,,,,,,,,,,,,,,,,,,,,,,,,,,,,,,,,,,,,,
,,,,,V3_012,20,Female,2024-10-15_17h19.28.247,jersey_experiment_5_v3,2023.2.2,Win32,85.47008547,,,,,,,,,,,,,,,,,,,,,,,,,,,,,,,,,,,,,,,606.9611,726.9539,,,,,,,,,,,,,,,,,,,,,,,,,,,,,,,,,,,,,,
,,,,,V3_012,20,Female,2024-10-15_17h19.28.247,jersey_experiment_5_v3,2023.2.2,Win32,85.47008547,,,,,,,,,,,,,,,,,,,,,,,,,,,,,,,,,,,,,,,,,726.954,731.9423,return,4.9759,,,,,,,,,,,,,,,,,,,,,,,,,,,,,,,,,,
,,,,,V3_012,20,Female,2024-10-15_17h19.28.247,jersey_experiment_5_v3,2023.2.2,Win32,85.47008547,,,,,,,,,,,,,,,,731.9442,733.2363,733.2363,744.1191,return,0.7198,,62.109375,,,,,,FBP-YG-91.png,0.4,1.2,13,0.5,,,,,,,,,,,,,0,0,0,12,1,,,,,,,,,,,,,,,,,,,,,,,,,,,,
,,,,,V3_012,20,Female,2024-10-15_17h19.28.247,jersey_experiment_5_v3,2023.2.2,Win32,85.47008547,,,,,,,,,,,,,,,,744.1193,745.4131,745.4132,746.6015,return,0.5413,,62.36979167,,,,,,FBP-YG-91.png,0.37,1.2,12,0.5,,,,,,,,,,,,,0,1,1,11,1,,,,,,,,,,,,,,,,,,,,,,,,,,,,
,,,,,V3_012,20,Female,2024-10-15_17h19.28.247,jersey_experiment_5_v3,2023.2.2,Win32,85.47008547,,,,,,,,,,,,,,,,746.6017,747.8956,747.8956,748.8368,return,0.5221,,62.5,,,,,,FBP-RB-19.png,0.37,1.2,57,0.5,,,,,,,,,,,,,0,2,2,56,1,,,,,,,,,,,,,,,,,,,,,,,,,,,,
,,,,,V3_012,20,Female,2024-10-15_17h19.28.247,jersey_experiment_5_v3,2023.2.2,Win32,85.47008547,,,,,,,,,,,,,,,,748.837,750.3898,750.39,751.3664,return,0.4855,,62.5,,,,,,FBP-OG-19.png,0.37,1.2,42,0.75,,,,,,,,,,,,,0,3,3,41,1,,,,,,,,,,,,,,,,,,,,,,,,,,,,
,,,,,V3_012,20,Female,2024-10-15_17h19.28.247,jersey_experiment_5_v3,2023.2.2,Win32,85.47008547,,,,,,,,,,,,,,,,751.3667,752.6605,752.6606,754.4489,return,0.6653,,75.26041667,,,,,,FBP-PT-18.png,0.45,1.2,25,0.5,,,,,,,,,,,,,0,4,4,24,1,,,,,,,,,,,,,,,,,,,,,,,,,,,,
,,,,,V3_012,20,Female,2024-10-15_17h19.28.247,jersey_experiment_5_v3,2023.2.2,Win32,85.47008547,,,,,,,,,,,,,,,,754.449,756.002,756.002,757.2018,return,0.5444,,62.109375,,,,,,FBP-OG-18.png,0.37,1.2,37,0.75,,,,,,,,,,,,,0,5,5,36,1,,,,,,,,,,,,,,,,,,,,,,,,,,,,
,,,,,V3_012,20,Female,2024-10-15_17h19.28.247,jersey_experiment_5_v3,2023.2.2,Win32,85.47008547,,,,,,,,,,,,,,,,757.202,758.4959,758.496,759.8961,return,0.5027,,75.13020833,,,,,,FBP-RB-17.png,0.45,1.2,50,0.5,,,,,,,,,,,,,0,6,6,49,1,,,,,,,,,,,,,,,,,,,,,,,,,,,,
,,,,,V3_012,20,Female,2024-10-15_17h19.28.247,jersey_experiment_5_v3,2023.2.2,Win32,85.47008547,,,,,,,,,,,,,,,,759.8962,761.1903,761.1903,762.1785,return,0.4774,,75.13020833,,,,,,FBP-PT-18.png,0.43,1.2,24,0.5,,,,,,,,,,,,,0,7,7,23,1,,,,,,,,,,,,,,,,,,,,,,,,,,,,
,,,,,V3_012,20,Female,2024-10-15_17h19.28.247,jersey_experiment_5_v3,2023.2.2,Win32,85.47008547,,,,,,,,,,,,,,,,762.1787,763.4726,763.4727,764.355,return,0.5121,,75.13020833,,,,,,FBP-PT-17.png,0.45,1.2,20,0.5,,,,,,,,,,,,,0,8,8,19,1,,,,,,,,,,,,,,,,,,,,,,,,,,,,
,,,,,V3_012,20,Female,2024-10-15_17h19.28.247,jersey_experiment_5_v3,2023.2.2,Win32,85.47008547,,,,,,,,,,,,,,,,764.3553,765.6495,765.6495,767.0258,return,0.572,,61.06770833,,,,,,FBP-PT-18.png,0.37,1.2,22,0.5,,,,,,,,,,,,,0,9,9,21,1,,,,,,,,,,,,,,,,,,,,,,,,,,,,
,,,,,V3_012,20,Female,2024-10-15_17h19.28.247,jersey_experiment_5_v3,2023.2.2,Win32,85.47008547,,,,,,,,,,,,,,,,767.0261,768.3199,768.3199,770.2258,return,0.6034,,37.109375,,,,,,FBP-RB-19.png,0.35,1.2,56,0.5,,,,,,,,,,,,,0,10,10,55,1,,,,,,,,,,,,,,,,,,,,,,,,,,,,
,,,,,V3_012,20,Female,2024-10-15_17h19.28.247,jersey_experiment_5_v3,2023.2.2,Win32,85.47008547,,,,,,,,,,,,,,,,770.2261,771.5201,771.5201,773.5907,return,0.5435,,62.36979167,,,,,,FBP-PT-18.png,0.4,1.2,23,0.5,,,,,,,,,,,,,0,11,11,22,1,,,,,,,,,,,,,,,,,,,,,,,,,,,,
,,,,,V3_012,20,Female,2024-10-15_17h19.28.247,jersey_experiment_5_v3,2023.2.2,Win32,85.47008547,,,,,,,,,,,,,,,,773.591,774.8848,774.8848,776.5555,return,0.9886,,61.45833333,,,,,,FBP-RB-18.png,0.37,1.2,52,0.5,,,,,,,,,,,,,0,12,12,51,1,,,,,,,,,,,,,,,,,,,,,,,,,,,,
,,,,,V3_012,20,Female,2024-10-15_17h19.28.247,jersey_experiment_5_v3,2023.2.2,Win32,85.47008547,,,,,,,,,,,,,,,,776.5556,777.8497,777.8497,780.5321,return,1.4714,,43.48958333,,,,,,FBP-YG-71.png,0.35,1.2,1,0.5,,,,,,,,,,,,,0,13,13,0,1,,,,,,,,,,,,,,,,,,,,,,,,,,,,
,,,,,V3_012,20,Female,2024-10-15_17h19.28.247,jersey_experiment_5_v3,2023.2.2,Win32,85.47008547,,,,,,,,,,,,,,,,780.5324,781.8262,781.8264,783.1911,return,0.5038,,37.76041667,,,,,,FBP-PT-18.png,0.35,1.2,21,0.5,,,,,,,,,,,,,0,14,14,20,1,,,,,,,,,,,,,,,,,,,,,,,,,,,,
,,,,,V3_012,20,Female,2024-10-15_17h19.28.247,jersey_experiment_5_v3,2023.2.2,Win32,85.47008547,,,,,,,,,,,,,,,,783.1913,784.4852,784.4853,787.5559,return,2.1817,,63.671875,,,,,,FBP-PT-19.png,0.4,1.2,28,0.5,,,,,,,,,,,,,0,15,15,27,1,,,,,,,,,,,,,,,,,,,,,,,,,,,,
,,,,,V3_012,20,Female,2024-10-15_17h19.28.247,jersey_experiment_5_v3,2023.2.2,Win32,85.47008547,,,,,,,,,,,,,,,,787.556,789.109,789.109,790.4501,return,0.6071,,74.47916667,,,,,,FBP-OG-19.png,0.45,1.2,45,0.75,,,,,,,,,,,,,0,16,16,44,1,,,,,,,,,,,,,,,,,,,,,,,,,,,,
,,,,,V3_012,20,Female,2024-10-15_17h19.28.247,jersey_experiment_5_v3,2023.2.2,Win32,85.47008547,,,,,,,,,,,,,,,,790.4504,792.0033,792.0034,795.0621,return,0.6042,,46.875,,,,,,FBP-OG-18.png,0.35,1.2,36,0.75,,,,,,,,,,,,,0,17,17,35,1,,,,,,,,,,,,,,,,,,,,,,,,,,,,
,,,,,V3_012,20,Female,2024-10-15_17h19.28.247,jersey_experiment_5_v3,2023.2.2,Win32,85.47008547,,,,,,,,,,,,,,,,795.0624,796.3564,796.3564,797.7446,return,0.4676,,75,,,,,,FBP-YG-91.png,0.43,1.2,14,0.5,,,,,,,,,,,,,0,18,18,13,1,,,,,,,,,,,,,,,,,,,,,,,,,,,,
,,,,,V3_012,20,Female,2024-10-15_17h19.28.247,jersey_experiment_5_v3,2023.2.2,Win32,85.47008547,,,,,,,,,,,,,,,,797.7447,799.2975,799.2975,807.7214,return,7.2933,,59.765625,,,,,,FBP-OG-19.png,0.4,1.2,43,0.75,,,,,,,,,,,,,0,19,19,42,1,,,,,,,,,,,,,,,,,,,,,,,,,,,,
,,,,,V3_012,20,Female,2024-10-15_17h19.28.247,jersey_experiment_5_v3,2023.2.2,Win32,85.47008547,,,,,,,,,,,,,,,,807.7217,809.0155,809.0155,810.9332,return,0.5315,,40.75520833,,,,,,FBP-PT-19.png,0.37,1.2,27,0.5,,,,,,,,,,,,,0,20,20,26,1,,,,,,,,,,,,,,,,,,,,,,,,,,,,
,,,,,V3_012,20,Female,2024-10-15_17h19.28.247,jersey_experiment_5_v3,2023.2.2,Win32,85.47008547,,,,,,,,,,,,,,,,810.9334,812.2275,812.2275,813.745,return,0.6181,,74.609375,,,,,,FBP-YG-71.png,0.45,1.2,5,0.5,,,,,,,,,,,,,0,21,21,4,1,,,,,,,,,,,,,,,,,,,,,,,,,,,,
,,,,,V3_012,20,Female,2024-10-15_17h19.28.247,jersey_experiment_5_v3,2023.2.2,Win32,85.47008547,,,,,,,,,,,,,,,,813.7453,815.0393,815.0394,818.0395,return,1.4371,,61.84895833,,,,,,FBP-RB-19.png,0.4,1.2,58,0.5,,,,,,,,,,,,,0,22,22,57,1,,,,,,,,,,,,,,,,,,,,,,,,,,,,
,,,,,V3_012,20,Female,2024-10-15_17h19.28.247,jersey_experiment_5_v3,2023.2.2,Win32,85.47008547,,,,,,,,,,,,,,,,818.0397,819.3335,819.3336,820.7689,return,0.6669,,61.58854167,,,,,,FBP-PT-17.png,0.4,1.2,18,0.5,,,,,,,,,,,,,0,23,23,17,1,,,,,,,,,,,,,,,,,,,,,,,,,,,,
,,,,,V3_012,20,Female,2024-10-15_17h19.28.247,jersey_experiment_5_v3,2023.2.2,Win32,85.47008547,,,,,,,,,,,,,,,,820.7691,822.0631,822.0631,824.475,return,1.3318,,40.10416667,,,,,,FBP-YG-81.png,0.37,1.2,7,0.5,,,,,,,,,,,,,0,24,24,6,1,,,,,,,,,,,,,,,,,,,,,,,,,,,,
,,,,,V3_012,20,Female,2024-10-15_17h19.28.247,jersey_experiment_5_v3,2023.2.2,Win32,85.47008547,,,,,,,,,,,,,,,,824.4751,825.7692,825.7692,827.428,return,0.6485,,33.984375,,,,,,FBP-RB-17.png,0.35,1.2,46,0.5,,,,,,,,,,,,,0,25,25,45,1,,,,,,,,,,,,,,,,,,,,,,,,,,,,
,,,,,V3_012,20,Female,2024-10-15_17h19.28.247,jersey_experiment_5_v3,2023.2.2,Win32,85.47008547,,,,,,,,,,,,,,,,827.4282,828.7223,828.7224,830.3458,return,0.5887,,74.86979167,,,,,,FBP-YG-71.png,0.43,1.2,4,0.5,,,,,,,,,,,,,0,26,26,3,1,,,,,,,,,,,,,,,,,,,,,,,,,,,,
,,,,,V3_012,20,Female,2024-10-15_17h19.28.247,jersey_experiment_5_v3,2023.2.2,Win32,85.47008547,,,,,,,,,,,,,,,,830.3461,831.64,831.64,832.5457,return,0.5467,,74.86979167,,,,,,FBP-RB-19.png,0.45,1.2,60,0.5,,,,,,,,,,,,,0,27,27,59,1,,,,,,,,,,,,,,,,,,,,,,,,,,,,
,,,,,V3_012,20,Female,2024-10-15_17h19.28.247,jersey_experiment_5_v3,2023.2.2,Win32,85.47008547,,,,,,,,,,,,,,,,832.546,833.84,833.8401,840.1343,return,4.5912,,37.63020833,,,,,,FBP-RB-18.png,0.35,1.2,51,0.5,,,,,,,,,,,,,0,28,28,50,1,,,,,,,,,,,,,,,,,,,,,,,,,,,,
,,,,,V3_012,20,Female,2024-10-15_17h19.28.247,jersey_experiment_5_v3,2023.2.2,Win32,85.47008547,,,,,,,,,,,,,,,,840.1346,841.4284,841.4284,843.8756,return,1.2055,,75,,,,,,FBP-YG-81.png,0.45,1.2,10,0.5,,,,,,,,,,,,,0,29,29,9,1,,,,,,,,,,,,,,,,,,,,,,,,,,,,
,,,,,V3_012,20,Female,2024-10-15_17h19.28.247,jersey_experiment_5_v3,2023.2.2,Win32,85.47008547,,,,,,,,,,,,,,,,843.8758,845.1699,845.1699,850.5465,return,2.2177,,37.63020833,,,,,,FBP-RB-17.png,0.37,1.2,47,0.5,,,,,,,,,,,,,0,30,30,46,1,,,,,,,,,,,,,,,,,,,,,,,,,,,,
,,,,,V3_012,20,Female,2024-10-15_17h19.28.247,jersey_experiment_5_v3,2023.2.2,Win32,85.47008547,,,,,,,,,,,,,,,,850.5467,851.8407,851.8408,853.4408,return,0.4908,,74.73958333,,,,,,FBP-RB-18.png,0.45,1.2,55,0.5,,,,,,,,,,,,,0,31,31,54,1,,,,,,,,,,,,,,,,,,,,,,,,,,,,
,,,,,V3_012,20,Female,2024-10-15_17h19.28.247,jersey_experiment_5_v3,2023.2.2,Win32,85.47008547,,,,,,,,,,,,,,,,853.441,854.7349,854.7349,856.8526,return,0.5338,,24.609375,,,,,,FBP-PT-17.png,0.35,1.2,16,0.5,,,,,,,,,,,,,0,32,32,15,1,,,,,,,,,,,,,,,,,,,,,,,,,,,,
,,,,,V3_012,20,Female,2024-10-15_17h19.28.247,jersey_experiment_5_v3,2023.2.2,Win32,85.47008547,,,,,,,,,,,,,,,,856.8529,858.1469,858.1469,860.2175,return,0.5647,,35.80729167,,,,,,FBP-YG-91.png,0.35,1.2,11,0.5,,,,,,,,,,,,,0,33,33,10,1,,,,,,,,,,,,,,,,,,,,,,,,,,,,
,,,,,V3_012,20,Female,2024-10-15_17h19.28.247,jersey_experiment_5_v3,2023.2.2,Win32,85.47008547,,,,,,,,,,,,,,,,860.2178,861.5118,861.5118,862.994,return,0.594,,74.86979167,,,,,,FBP-YG-91.png,0.45,1.2,15,0.5,,,,,,,,,,,,,0,34,34,14,1,,,,,,,,,,,,,,,,,,,,,,,,,,,,
,,,,,V3_012,20,Female,2024-10-15_17h19.28.247,jersey_experiment_5_v3,2023.2.2,Win32,85.47008547,,,,,,,,,,,,,,,,862.9943,864.2881,864.2881,867.6178,return,0.5566,,65.88541667,,,,,,FBP-PT-19.png,0.43,1.2,29,0.5,,,,,,,,,,,,,0,35,35,28,1,,,,,,,,,,,,,,,,,,,,,,,,,,,,
,,,,,V3_012,20,Female,2024-10-15_17h19.28.247,jersey_experiment_5_v3,2023.2.2,Win32,85.47008547,,,,,,,,,,,,,,,,867.618,868.9119,868.912,872.9355,return,1.0604,,64.71354167,,,,,,FBP-RB-18.png,0.43,1.2,54,0.5,,,,,,,,,,,,,0,36,36,53,1,,,,,,,,,,,,,,,,,,,,,,,,,,,,
,,,,,V3_012,20,Female,2024-10-15_17h19.28.247,jersey_experiment_5_v3,2023.2.2,Win32,85.47008547,,,,,,,,,,,,,,,,872.9358,874.4886,874.4887,875.5239,return,0.4994,,74.609375,,,,,,FBP-OG-18.png,0.45,1.2,40,0.75,,,,,,,,,,,,,0,37,37,39,1,,,,,,,,,,,,,,,,,,,,,,,,,,,,
,,,,,V3_012,20,Female,2024-10-15_17h19.28.247,jersey_experiment_5_v3,2023.2.2,Win32,85.47008547,,,,,,,,,,,,,,,,875.5241,876.818,876.8181,887.7125,return,8.9603,,48.95833333,,,,,,FBP-RB-17.png,0.4,1.2,48,0.5,,,,,,,,,,,,,0,38,38,47,1,,,,,,,,,,,,,,,,,,,,,,,,,,,,
,,,,,V3_012,20,Female,2024-10-15_17h19.28.247,jersey_experiment_5_v3,2023.2.2,Win32,85.47008547,,,,,,,,,,,,,,,,887.7127,889.0069,889.0069,890.7715,return,0.6512,,40.234375,,,,,,FBP-PT-17.png,0.37,1.2,17,0.5,,,,,,,,,,,,,0,39,39,16,1,,,,,,,,,,,,,,,,,,,,,,,,,,,,
,,,,,V3_012,20,Female,2024-10-15_17h19.28.247,jersey_experiment_5_v3,2023.2.2,Win32,85.47008547,,,,,,,,,,,,,,,,890.7718,892.0656,892.0657,894.2775,return,0.8742,,57.29166667,,,,,,FBP-RB-17.png,0.43,1.2,49,0.5,,,,,,,,,,,,,0,40,40,48,1,,,,,,,,,,,,,,,,,,,,,,,,,,,,
,,,,,V3_012,20,Female,2024-10-15_17h19.28.247,jersey_experiment_5_v3,2023.2.2,Win32,85.47008547,,,,,,,,,,,,,,,,894.2777,895.8306,895.8306,897.1717,return,0.6878,,60.28645833,,,,,,FBP-OG-18.png,0.43,1.2,39,0.75,,,,,,,,,,,,,0,41,41,38,1,,,,,,,,,,,,,,,,,,,,,,,,,,,,
,,,,,V3_012,20,Female,2024-10-15_17h19.28.247,jersey_experiment_5_v3,2023.2.2,Win32,85.47008547,,,,,,,,,,,,,,,,897.172,898.4659,898.4659,901.0896,return,1.7473,,74.73958333,,,,,,FBP-YG-81.png,0.43,1.2,9,0.5,,,,,,,,,,,,,0,42,42,8,1,,,,,,,,,,,,,,,,,,,,,,,,,,,,
,,,,,V3_012,20,Female,2024-10-15_17h19.28.247,jersey_experiment_5_v3,2023.2.2,Win32,85.47008547,,,,,,,,,,,,,,,,901.0898,902.6427,902.6427,908.9958,return,4.4981,,32.68229167,,,,,,FBP-OG-19.png,0.35,1.2,41,0.75,,,,,,,,,,,,,0,43,43,40,1,,,,,,,,,,,,,,,,,,,,,,,,,,,,
,,,,,V3_012,20,Female,2024-10-15_17h19.28.247,jersey_experiment_5_v3,2023.2.2,Win32,85.47008547,,,,,,,,,,,,,,,,908.9961,910.29,910.29,911.6195,return,0.4762,,29.296875,,,,,,FBP-YG-81.png,0.35,1.2,6,0.5,,,,,,,,,,,,,0,44,44,5,1,,,,,,,,,,,,,,,,,,,,,,,,,,,,
,,,,,V3_012,20,Female,2024-10-15_17h19.28.247,jersey_experiment_5_v3,2023.2.2,Win32,85.47008547,,,,,,,,,,,,,,,,911.6196,912.9136,912.9136,913.9136,return,0.5856,,29.296875,,,,,,FBP-YG-71.png,0.37,1.2,2,0.5,,,,,,,,,,,,,0,45,45,1,1,,,,,,,,,,,,,,,,,,,,,,,,,,,,
,,,,,V3_012,20,Female,2024-10-15_17h19.28.247,jersey_experiment_5_v3,2023.2.2,Win32,85.47008547,,,,,,,,,,,,,,,,913.9138,915.4667,915.4668,917.3373,return,0.4942,,29.296875,,,,,,FBP-OG-17.png,0.37,1.2,32,0.75,,,,,,,,,,,,,0,46,46,31,1,,,,,,,,,,,,,,,,,,,,,,,,,,,,
,,,,,V3_012,20,Female,2024-10-15_17h19.28.247,jersey_experiment_5_v3,2023.2.2,Win32,85.47008547,,,,,,,,,,,,,,,,917.3375,918.6314,918.6315,920.7138,return,1.0826,,68.22916667,,,,,,FBP-PT-17.png,0.43,1.2,19,0.5,,,,,,,,,,,,,0,47,47,18,1,,,,,,,,,,,,,,,,,,,,,,,,,,,,
,,,,,V3_012,20,Female,2024-10-15_17h19.28.247,jersey_experiment_5_v3,2023.2.2,Win32,85.47008547,,,,,,,,,,,,,,,,920.714,922.267,922.267,924.4433,return,0.9524,,73.828125,,,,,,FBP-OG-17.png,0.43,1.2,34,0.75,,,,,,,,,,,,,0,48,48,33,1,,,,,,,,,,,,,,,,,,,,,,,,,,,,
,,,,,V3_012,20,Female,2024-10-15_17h19.28.247,jersey_experiment_5_v3,2023.2.2,Win32,85.47008547,,,,,,,,,,,,,,,,924.4436,925.9963,925.9964,927.2082,return,0.5085,,75.390625,,,,,,FBP-OG-19.png,0.43,1.2,44,0.75,,,,,,,,,,,,,0,49,49,43,1,,,,,,,,,,,,,,,,,,,,,,,,,,,,
,,,,,V3_012,20,Female,2024-10-15_17h19.28.247,jersey_experiment_5_v3,2023.2.2,Win32,85.47008547,,,,,,,,,,,,,,,,927.2084,928.7612,928.7613,930.1376,return,0.5496,,61.19791667,,,,,,FBP-OG-17.png,0.4,1.2,33,0.75,,,,,,,,,,,,,0,50,50,32,1,,,,,,,,,,,,,,,,,,,,,,,,,,,,
,,,,,V3_012,20,Female,2024-10-15_17h19.28.247,jersey_experiment_5_v3,2023.2.2,Win32,85.47008547,,,,,,,,,,,,,,,,930.1378,931.4321,931.4321,932.9613,return,0.4864,,74.86979167,,,,,,FBP-PT-19.png,0.45,1.2,30,0.5,,,,,,,,,,,,,0,51,51,29,1,,,,,,,,,,,,,,,,,,,,,,,,,,,,
,,,,,V3_012,20,Female,2024-10-15_17h19.28.247,jersey_experiment_5_v3,2023.2.2,Win32,85.47008547,,,,,,,,,,,,,,,,932.9615,934.2555,934.2555,936.3145,return,0.5645,,63.671875,,,,,,FBP-RB-18.png,0.4,1.2,53,0.5,,,,,,,,,,,,,0,52,52,52,1,,,,,,,,,,,,,,,,,,,,,,,,,,,,
,,,,,V3_012,20,Female,2024-10-15_17h19.28.247,jersey_experiment_5_v3,2023.2.2,Win32,85.47008547,,,,,,,,,,,,,,,,936.3147,937.6085,937.6086,938.9146,return,0.5243,,62.109375,,,,,,FBP-YG-81.png,0.4,1.2,8,0.5,,,,,,,,,,,,,0,53,53,7,1,,,,,,,,,,,,,,,,,,,,,,,,,,,,
,,,,,V3_012,20,Female,2024-10-15_17h19.28.247,jersey_experiment_5_v3,2023.2.2,Win32,85.47008547,,,,,,,,,,,,,,,,938.9148,940.4676,940.4677,943.3853,return,1.9061,,43.48958333,,,,,,FBP-OG-17.png,0.35,1.2,31,0.75,,,,,,,,,,,,,0,54,54,30,1,,,,,,,,,,,,,,,,,,,,,,,,,,,,
,,,,,V3_012,20,Female,2024-10-15_17h19.28.247,jersey_experiment_5_v3,2023.2.2,Win32,85.47008547,,,,,,,,,,,,,,,,943.3855,944.6794,944.6794,946.1148,return,0.5005,,74.08854167,,,,,,FBP-RB-19.png,0.43,1.2,59,0.5,,,,,,,,,,,,,0,55,55,58,1,,,,,,,,,,,,,,,,,,,,,,,,,,,,
,,,,,V3_012,20,Female,2024-10-15_17h19.28.247,jersey_experiment_5_v3,2023.2.2,Win32,85.47008547,,,,,,,,,,,,,,,,946.1151,947.6678,947.6678,949.5621,return,0.5858,,50.390625,,,,,,FBP-OG-18.png,0.4,1.2,38,0.75,,,,,,,,,,,,,0,56,56,37,1,,,,,,,,,,,,,,,,,,,,,,,,,,,,
,,,,,V3_012,20,Female,2024-10-15_17h19.28.247,jersey_experiment_5_v3,2023.2.2,Win32,85.47008547,,,,,,,,,,,,,,,,949.5624,950.8562,950.8562,952.2091,return,0.502,,49.34895833,,,,,,FBP-YG-71.png,0.4,1.2,3,0.5,,,,,,,,,,,,,0,57,57,2,1,,,,,,,,,,,,,,,,,,,,,,,,,,,,
,,,,,V3_012,20,Female,2024-10-15_17h19.28.247,jersey_experiment_5_v3,2023.2.2,Win32,85.47008547,,,,,,,,,,,,,,,,952.2094,953.7622,953.7622,955.2799,return,0.4915,,74.86979167,,,,,,FBP-OG-17.png,0.45,1.2,35,0.75,,,,,,,,,,,,,0,58,58,34,1,,,,,,,,,,,,,,,,,,,,,,,,,,,,
,,,,,V3_012,20,Female,2024-10-15_17h19.28.247,jersey_experiment_5_v3,2023.2.2,Win32,85.47008547,,,,,,,,,,,,,,,,955.2802,956.574,956.5741,958.9859,return,1.1062,,26.04166667,,,,,,FBP-PT-19.png,0.35,1.2,26,0.5,,,,,,,,,,,,,0,59,59,25,1,,,,,,,,,,,,,,,,,,,,,,,,,,,,
,,,,,V3_012,20,Female,2024-10-15_17h19.28.247,jersey_experiment_5_v3,2023.2.2,Win32,85.47008547,,,,,,,,,,,,,,,,958.9879,960.28,960.2801,961.28,return,0.5951,,26.04166667,,,,,,FBP-YG-19.png,0.37,1.2,12,0.5,,,,,,,,,,,,,,,,,,0,0,0,11,1,,,,,,,,,,,,,,,,,,,,,,,
,,,,,V3_012,20,Female,2024-10-15_17h19.28.247,jersey_experiment_5_v3,2023.2.2,Win32,85.47008547,,,,,,,,,,,,,,,,961.2802,962.8333,962.8333,964.1626,return,0.6185,,50.390625,,,,,,FBP-OG-81.png,0.43,1.2,39,0.75,,,,,,,,,,,,,,,,,,0,1,1,38,1,,,,,,,,,,,,,,,,,,,,,,,
,,,,,V3_012,20,Female,2024-10-15_17h19.28.247,jersey_experiment_5_v3,2023.2.2,Win32,85.47008547,,,,,,,,,,,,,,,,964.1629,965.4566,965.4566,966.7743,return,0.7085,,50.390625,,,,,,FBP-YG-18.png,0.43,1.2,9,0.5,,,,,,,,,,,,,,,,,,0,2,2,8,1,,,,,,,,,,,,,,,,,,,,,,,
,,,,,V3_012,20,Female,2024-10-15_17h19.28.247,jersey_experiment_5_v3,2023.2.2,Win32,85.47008547,,,,,,,,,,,,,,,,966.7746,968.0687,968.0688,969.1392,return,0.4884,,74.47916667,,,,,,FBP-YG-19.png,0.45,1.2,15,0.5,,,,,,,,,,,,,,,,,,0,3,3,14,1,,,,,,,,,,,,,,,,,,,,,,,
,,,,,V3_012,20,Female,2024-10-15_17h19.28.247,jersey_experiment_5_v3,2023.2.2,Win32,85.47008547,,,,,,,,,,,,,,,,969.1395,970.4333,970.4334,971.8335,return,0.4707,,49.73958333,,,,,,FBP-RB-91.png,0.37,1.2,57,0.5,,,,,,,,,,,,,,,,,,0,4,4,56,1,,,,,,,,,,,,,,,,,,,,,,,
,,,,,V3_012,20,Female,2024-10-15_17h19.28.247,jersey_experiment_5_v3,2023.2.2,Win32,85.47008547,,,,,,,,,,,,,,,,971.8338,973.1276,973.1276,974.5042,return,0.4234,,35.41666667,,,,,,FBP-PT-91.png,0.35,1.2,26,0.5,,,,,,,,,,,,,,,,,,0,5,5,25,1,,,,,,,,,,,,,,,,,,,,,,,
,,,,,V3_012,20,Female,2024-10-15_17h19.28.247,jersey_experiment_5_v3,2023.2.2,Win32,85.47008547,,,,,,,,,,,,,,,,974.5044,975.7982,975.7982,977.0336,return,0.4084,,36.06770833,,,,,,FBP-RB-81.png,0.37,1.2,52,0.5,,,,,,,,,,,,,,,,,,0,6,6,51,1,,,,,,,,,,,,,,,,,,,,,,,
,,,,,V3_012,20,Female,2024-10-15_17h19.28.247,jersey_experiment_5_v3,2023.2.2,Win32,85.47008547,,,,,,,,,,,,,,,,977.0339,978.3278,978.3278,979.7984,return,0.5566,,76.43229167,,,,,,FBP-YG-19.png,0.43,1.2,14,0.5,,,,,,,,,,,,,,,,,,0,7,7,13,1,,,,,,,,,,,,,,,,,,,,,,,
,,,,,V3_012,20,Female,2024-10-15_17h19.28.247,jersey_experiment_5_v3,2023.2.2,Win32,85.47008547,,,,,,,,,,,,,,,,979.7986,981.0926,981.0926,983.9044,return,0.7616,,30.72916667,,,,,,FBP-YG-18.png,0.35,1.2,6,0.5,,,,,,,,,,,,,,,,,,0,8,8,5,1,,,,,,,,,,,,,,,,,,,,,,,
,,,,,V3_012,20,Female,2024-10-15_17h19.28.247,jersey_experiment_5_v3,2023.2.2,Win32,85.47008547,,,,,,,,,,,,,,,,983.9047,985.1986,985.1987,996.2579,return,0.5722,,41.27604167,,,,,,FBP-RB-71.png,0.43,1.2,49,0.5,,,,,,,,,,,,,,,,,,0,9,9,48,1,,,,,,,,,,,,,,,,,,,,,,,
,,,,,V3_012,20,Female,2024-10-15_17h19.28.247,jersey_experiment_5_v3,2023.2.2,Win32,85.47008547,,,,,,,,,,,,,,,,996.2581,997.5519,997.5519,999.2226,return,0.6612,,50.13020833,,,,,,FBP-YG-18.png,0.4,1.2,8,0.5,,,,,,,,,,,,,,,,,,0,10,10,7,1,,,,,,,,,,,,,,,,,,,,,,,
,,,,,V3_012,20,Female,2024-10-15_17h19.28.247,jersey_experiment_5_v3,2023.2.2,Win32,85.47008547,,,,,,,,,,,,,,,,999.2229,1000.5169,1000.5169,1002.1992,return,0.5903,,74.609375,,,,,,FBP-PT-81.png,0.45,1.2,25,0.5,,,,,,,,,,,,,,,,,,0,11,11,24,1,,,,,,,,,,,,,,,,,,,,,,,
,,,,,V3_012,20,Female,2024-10-15_17h19.28.247,jersey_experiment_5_v3,2023.2.2,Win32,85.47008547,,,,,,,,,,,,,,,,1002.1994,1003.7521,1003.7522,1007.2113,return,1.7388,,50,,,,,,FBP-OG-91.png,0.37,1.2,42,0.75,,,,,,,,,,,,,,,,,,0,12,12,41,1,,,,,,,,,,,,,,,,,,,,,,,
,,,,,V3_012,20,Female,2024-10-15_17h19.28.247,jersey_experiment_5_v3,2023.2.2,Win32,85.47008547,,,,,,,,,,,,,,,,1007.2114,1008.7643,1008.7643,1010.3524,return,0.573,,75.52083333,,,,,,FBP-OG-71.png,0.43,1.2,34,0.75,,,,,,,,,,,,,,,,,,0,13,13,33,1,,,,,,,,,,,,,,,,,,,,,,,
,,,,,V3_012,20,Female,2024-10-15_17h19.28.247,jersey_experiment_5_v3,2023.2.2,Win32,85.47008547,,,,,,,,,,,,,,,,1010.3527,1011.6468,1011.6468,1013.5056,return,0.5824,,50,,,,,,FBP-RB-71.png,0.35,1.2,46,0.5,,,,,,,,,,,,,,,,,,0,14,14,45,1,,,,,,,,,,,,,,,,,,,,,,,
,,,,,V3_012,20,Female,2024-10-15_17h19.28.247,jersey_experiment_5_v3,2023.2.2,Win32,85.47008547,,,,,,,,,,,,,,,,1013.5058,1014.7998,1014.7998,1016.0704,return,0.5755,,74.609375,,,,,,FBP-PT-91.png,0.45,1.2,30,0.5,,,,,,,,,,,,,,,,,,0,15,15,29,1,,,,,,,,,,,,,,,,,,,,,,,
,,,,,V3_012,20,Female,2024-10-15_17h19.28.247,jersey_experiment_5_v3,2023.2.2,Win32,85.47008547,,,,,,,,,,,,,,,,1016.0706,1017.3646,1017.3646,1019.2001,return,0.5346,,57.29166667,,,,,,FBP-RB-81.png,0.4,1.2,53,0.5,,,,,,,,,,,,,,,,,,0,16,16,52,1,,,,,,,,,,,,,,,,,,,,,,,
,,,,,V3_012,20,Female,2024-10-15_17h19.28.247,jersey_experiment_5_v3,2023.2.2,Win32,85.47008547,,,,,,,,,,,,,,,,1019.2004,1020.7529,1020.7529,1021.9883,return,0.5893,,74.86979167,,,,,,FBP-OG-81.png,0.45,1.2,40,0.75,,,,,,,,,,,,,,,,,,0,17,17,39,1,,,,,,,,,,,,,,,,,,,,,,,
,,,,,V3_012,20,Female,2024-10-15_17h19.28.247,jersey_experiment_5_v3,2023.2.2,Win32,85.47008547,,,,,,,,,,,,,,,,1021.9884,1023.2824,1023.2824,1024.706,return,0.5818,,75.65104167,,,,,,FBP-PT-71.png,0.43,1.2,19,0.5,,,,,,,,,,,,,,,,,,0,18,18,18,1,,,,,,,,,,,,,,,,,,,,,,,
,,,,,V3_012,20,Female,2024-10-15_17h19.28.247,jersey_experiment_5_v3,2023.2.2,Win32,85.47008547,,,,,,,,,,,,,,,,1024.7062,1026.0001,1026.0002,1027.6355,return,0.6763,,75.26041667,,,,,,FBP-YG-17.png,0.45,1.2,5,0.5,,,,,,,,,,,,,,,,,,0,19,19,4,1,,,,,,,,,,,,,,,,,,,,,,,
,,,,,V3_012,20,Female,2024-10-15_17h19.28.247,jersey_experiment_5_v3,2023.2.2,Win32,85.47008547,,,,,,,,,,,,,,,,1027.6358,1028.9297,1028.9298,1031.0945,return,1.7085,,75,,,,,,FBP-RB-91.png,0.45,1.2,60,0.5,,,,,,,,,,,,,,,,,,0,20,20,59,1,,,,,,,,,,,,,,,,,,,,,,,
,,,,,V3_012,20,Female,2024-10-15_17h19.28.247,jersey_experiment_5_v3,2023.2.2,Win32,85.47008547,,,,,,,,,,,,,,,,1031.0946,1032.3886,1032.3886,1034.0003,return,0.5847,,51.5625,,,,,,FBP-PT-91.png,0.4,1.2,28,0.5,,,,,,,,,,,,,,,,,,0,21,21,27,1,,,,,,,,,,,,,,,,,,,,,,,
,,,,,V3_012,20,Female,2024-10-15_17h19.28.247,jersey_experiment_5_v3,2023.2.2,Win32,85.47008547,,,,,,,,,,,,,,,,1034.0005,1035.2945,1035.2947,1037.2594,return,0.6128,,74.08854167,,,,,,FBP-PT-71.png,0.45,1.2,20,0.5,,,,,,,,,,,,,,,,,,0,22,22,19,1,,,,,,,,,,,,,,,,,,,,,,,
,,,,,V3_012,20,Female,2024-10-15_17h19.28.247,jersey_experiment_5_v3,2023.2.2,Win32,85.47008547,,,,,,,,,,,,,,,,1037.2598,1038.8125,1038.8125,1040.5654,return,0.6862,,49.08854167,,,,,,FBP-OG-71.png,0.37,1.2,32,0.75,,,,,,,,,,,,,,,,,,0,23,23,31,1,,,,,,,,,,,,,,,,,,,,,,,
,,,,,V3_012,20,Female,2024-10-15_17h19.28.247,jersey_experiment_5_v3,2023.2.2,Win32,85.47008547,,,,,,,,,,,,,,,,1040.5657,1041.8596,1041.8597,1043.2008,return,0.4627,,34.89583333,,,,,,FBP-RB-81.png,0.35,1.2,51,0.5,,,,,,,,,,,,,,,,,,0,24,24,50,1,,,,,,,,,,,,,,,,,,,,,,,
,,,,,V3_012,20,Female,2024-10-15_17h19.28.247,jersey_experiment_5_v3,2023.2.2,Win32,85.47008547,,,,,,,,,,,,,,,,1043.201,1044.495,1044.4951,1045.9068,return,0.5339,,74.47916667,,,,,,FBP-RB-81.png,0.45,1.2,55,0.5,,,,,,,,,,,,,,,,,,0,25,25,54,1,,,,,,,,,,,,,,,,,,,,,,,
,,,,,V3_012,20,Female,2024-10-15_17h19.28.247,jersey_experiment_5_v3,2023.2.2,Win32,85.47008547,,,,,,,,,,,,,,,,1045.9071,1047.201,1047.201,1048.5774,return,0.5219,,49.47916667,,,,,,FBP-PT-71.png,0.37,1.2,17,0.5,,,,,,,,,,,,,,,,,,0,26,26,16,1,,,,,,,,,,,,,,,,,,,,,,,
,,,,,V3_012,20,Female,2024-10-15_17h19.28.247,jersey_experiment_5_v3,2023.2.2,Win32,85.47008547,,,,,,,,,,,,,,,,1048.5777,1049.8717,1049.8718,1051.2363,return,0.5813,,74.08854167,,,,,,FBP-YG-18.png,0.45,1.2,10,0.5,,,,,,,,,,,,,,,,,,0,27,27,9,1,,,,,,,,,,,,,,,,,,,,,,,
,,,,,V3_012,20,Female,2024-10-15_17h19.28.247,jersey_experiment_5_v3,2023.2.2,Win32,85.47008547,,,,,,,,,,,,,,,,1051.2365,1052.7895,1052.7895,1053.8247,return,0.5141,,74.08854167,,,,,,FBP-OG-71.png,0.45,1.2,35,0.75,,,,,,,,,,,,,,,,,,0,28,28,34,1,,,,,,,,,,,,,,,,,,,,,,,
,,,,,V3_012,20,Female,2024-10-15_17h19.28.247,jersey_experiment_5_v3,2023.2.2,Win32,85.47008547,,,,,,,,,,,,,,,,1053.825,1055.1188,1055.1188,1056.166,return,0.4975,,75.390625,,,,,,FBP-RB-71.png,0.45,1.2,50,0.5,,,,,,,,,,,,,,,,,,0,29,29,49,1,,,,,,,,,,,,,,,,,,,,,,,
,,,,,V3_012,20,Female,2024-10-15_17h19.28.247,jersey_experiment_5_v3,2023.2.2,Win32,85.47008547,,,,,,,,,,,,,,,,1056.1662,1057.4601,1057.4602,1058.4484,return,0.5114,,74.47916667,,,,,,FBP-PT-81.png,0.43,1.2,24,0.5,,,,,,,,,,,,,,,,,,0,30,30,23,1,,,,,,,,,,,,,,,,,,,,,,,
,,,,,V3_012,20,Female,2024-10-15_17h19.28.247,jersey_experiment_5_v3,2023.2.2,Win32,85.47008547,,,,,,,,,,,,,,,,1058.4486,1059.7426,1059.7426,1061.0956,return,0.4603,,50.390625,,,,,,FBP-YG-18.png,0.37,1.2,7,0.5,,,,,,,,,,,,,,,,,,0,31,31,6,1,,,,,,,,,,,,,,,,,,,,,,,
,,,,,V3_012,20,Female,2024-10-15_17h19.28.247,jersey_experiment_5_v3,2023.2.2,Win32,85.47008547,,,,,,,,,,,,,,,,1061.0958,1062.3897,1062.3897,1063.3663,return,0.5441,,50.13020833,,,,,,FBP-YG-17.png,0.37,1.2,2,0.5,,,,,,,,,,,,,,,,,,0,32,32,1,1,,,,,,,,,,,,,,,,,,,,,,,
,,,,,V3_012,20,Female,2024-10-15_17h19.28.247,jersey_experiment_5_v3,2023.2.2,Win32,85.47008547,,,,,,,,,,,,,,,,1063.3665,1064.6604,1064.6604,1066.2722,return,0.4912,,34.375,,,,,,FBP-YG-19.png,0.35,1.2,11,0.5,,,,,,,,,,,,,,,,,,0,33,33,10,1,,,,,,,,,,,,,,,,,,,,,,,
,,,,,V3_012,20,Female,2024-10-15_17h19.28.247,jersey_experiment_5_v3,2023.2.2,Win32,85.47008547,,,,,,,,,,,,,,,,1066.2724,1067.8254,1067.8254,1069.237,return,0.5178,,33.203125,,,,,,FBP-OG-91.png,0.35,1.2,41,0.75,,,,,,,,,,,,,,,,,,0,34,34,40,1,,,,,,,,,,,,,,,,,,,,,,,
,,,,,V3_012,20,Female,2024-10-15_17h19.28.247,jersey_experiment_5_v3,2023.2.2,Win32,85.47008547,,,,,,,,,,,,,,,,1069.2372,1070.5313,1070.5313,1071.7313,return,0.4493,,31.51041667,,,,,,FBP-PT-81.png,0.35,1.2,21,0.5,,,,,,,,,,,,,,,,,,0,35,35,20,1,,,,,,,,,,,,,,,,,,,,,,,
,,,,,V3_012,20,Female,2024-10-15_17h19.28.247,jersey_experiment_5_v3,2023.2.2,Win32,85.47008547,,,,,,,,,,,,,,,,1071.7316,1073.0255,1073.0255,1075.2254,return,1.1143,,44.66145833,,,,,,FBP-PT-71.png,0.4,1.2,18,0.5,,,,,,,,,,,,,,,,,,0,36,36,17,1,,,,,,,,,,,,,,,,,,,,,,,
,,,,,V3_012,20,Female,2024-10-15_17h19.28.247,jersey_experiment_5_v3,2023.2.2,Win32,85.47008547,,,,,,,,,,,,,,,,1075.2257,1076.7785,1076.7785,1079.7199,return,0.6368,,25,,,,,,FBP-OG-81.png,0.35,1.2,36,0.75,,,,,,,,,,,,,,,,,,0,37,37,35,1,,,,,,,,,,,,,,,,,,,,,,,
,,,,,V3_012,20,Female,2024-10-15_17h19.28.247,jersey_experiment_5_v3,2023.2.2,Win32,85.47008547,,,,,,,,,,,,,,,,1079.7201,1081.2728,1081.2729,1082.7081,return,0.4991,,49.609375,,,,,,FBP-OG-81.png,0.4,1.2,38,0.75,,,,,,,,,,,,,,,,,,0,38,38,37,1,,,,,,,,,,,,,,,,,,,,,,,
,,,,,V3_012,20,Female,2024-10-15_17h19.28.247,jersey_experiment_5_v3,2023.2.2,Win32,85.47008547,,,,,,,,,,,,,,,,1082.7082,1084.2496,1084.2496,1085.273,return,0.5884,,51.04166667,,,,,,FBP-OG-71.png,0.4,1.2,33,0.75,,,,,,,,,,,,,,,,,,0,39,39,32,1,,,,,,,,,,,,,,,,,,,,,,,
,,,,,V3_012,20,Female,2024-10-15_17h19.28.247,jersey_experiment_5_v3,2023.2.2,Win32,85.47008547,,,,,,,,,,,,,,,,1085.2732,1086.5669,1086.567,1087.3789,return,0.4259,,50.78125,,,,,,FBP-RB-71.png,0.4,1.2,48,0.5,,,,,,,,,,,,,,,,,,0,40,40,47,1,,,,,,,,,,,,,,,,,,,,,,,
,,,,,V3_012,20,Female,2024-10-15_17h19.28.247,jersey_experiment_5_v3,2023.2.2,Win32,85.47008547,,,,,,,,,,,,,,,,1087.3792,1088.6729,1088.673,1090.132,return,0.4953,,58.85416667,,,,,,FBP-PT-91.png,0.43,1.2,29,0.5,,,,,,,,,,,,,,,,,,0,41,41,28,1,,,,,,,,,,,,,,,,,,,,,,,
,,,,,V3_012,20,Female,2024-10-15_17h19.28.247,jersey_experiment_5_v3,2023.2.2,Win32,85.47008547,,,,,,,,,,,,,,,,1090.1323,1091.4261,1091.4262,1092.9557,return,0.5569,,36.328125,,,,,,FBP-RB-91.png,0.35,1.2,56,0.5,,,,,,,,,,,,,,,,,,0,42,42,55,1,,,,,,,,,,,,,,,,,,,,,,,
,,,,,V3_012,20,Female,2024-10-15_17h19.28.247,jersey_experiment_5_v3,2023.2.2,Win32,85.47008547,,,,,,,,,,,,,,,,1092.956,1094.25,1094.25,1095.8499,return,0.7216,,50.65104167,,,,,,FBP-PT-81.png,0.4,1.2,23,0.5,,,,,,,,,,,,,,,,,,0,43,43,22,1,,,,,,,,,,,,,,,,,,,,,,,
,,,,,V3_012,20,Female,2024-10-15_17h19.28.247,jersey_experiment_5_v3,2023.2.2,Win32,85.47008547,,,,,,,,,,,,,,,,1095.8501,1097.144,1097.1441,1098.2735,return,0.4194,,35.41666667,,,,,,FBP-YG-17.png,0.35,1.2,1,0.5,,,,,,,,,,,,,,,,,,0,44,44,0,1,,,,,,,,,,,,,,,,,,,,,,,
,,,,,V3_012,20,Female,2024-10-15_17h19.28.247,jersey_experiment_5_v3,2023.2.2,Win32,85.47008547,,,,,,,,,,,,,,,,1098.2737,1099.8266,1099.8266,1101.1795,return,0.5179,,36.19791667,,,,,,FBP-OG-81.png,0.37,1.2,37,0.75,,,,,,,,,,,,,,,,,,0,45,45,36,1,,,,,,,,,,,,,,,,,,,,,,,
,,,,,V3_012,20,Female,2024-10-15_17h19.28.247,jersey_experiment_5_v3,2023.2.2,Win32,85.47008547,,,,,,,,,,,,,,,,1101.1797,1102.4737,1102.4737,1104.0266,return,0.7373,,50.26041667,,,,,,FBP-RB-91.png,0.4,1.2,58,0.5,,,,,,,,,,,,,,,,,,0,46,46,57,1,,,,,,,,,,,,,,,,,,,,,,,
,,,,,V3_012,20,Female,2024-10-15_17h19.28.247,jersey_experiment_5_v3,2023.2.2,Win32,85.47008547,,,,,,,,,,,,,,,,1104.0269,1105.3207,1105.3207,1106.7562,return,0.523,,75,,,,,,FBP-YG-17.png,0.43,1.2,4,0.5,,,,,,,,,,,,,,,,,,0,47,47,3,1,,,,,,,,,,,,,,,,,,,,,,,
,,,,,V3_012,20,Female,2024-10-15_17h19.28.247,jersey_experiment_5_v3,2023.2.2,Win32,85.47008547,,,,,,,,,,,,,,,,1106.7564,1108.0503,1108.0503,1112.9211,return,0.4944,,50.26041667,,,,,,FBP-PT-81.png,0.37,1.2,22,0.5,,,,,,,,,,,,,,,,,,0,48,48,21,1,,,,,,,,,,,,,,,,,,,,,,,
,,,,,V3_012,20,Female,2024-10-15_17h19.28.247,jersey_experiment_5_v3,2023.2.2,Win32,85.47008547,,,,,,,,,,,,,,,,1112.9213,1114.4742,1114.4743,1115.3799,return,0.4251,,37.109375,,,,,,FBP-OG-71.png,0.35,1.2,31,0.75,,,,,,,,,,,,,,,,,,0,49,49,30,1,,,,,,,,,,,,,,,,,,,,,,,
,,,,,V3_012,20,Female,2024-10-15_17h19.28.247,jersey_experiment_5_v3,2023.2.2,Win32,85.47008547,,,,,,,,,,,,,,,,1115.3803,1116.6742,1116.6742,1118.2624,return,0.4498,,37.109375,,,,,,FBP-PT-91.png,0.37,1.2,27,0.5,,,,,,,,,,,,,,,,,,0,50,50,26,1,,,,,,,,,,,,,,,,,,,,,,,
,,,,,V3_012,20,Female,2024-10-15_17h19.28.247,jersey_experiment_5_v3,2023.2.2,Win32,85.47008547,,,,,,,,,,,,,,,,1118.2627,1119.8155,1119.8155,1121.8037,return,0.5175,,74.34895833,,,,,,FBP-OG-91.png,0.43,1.2,44,0.75,,,,,,,,,,,,,,,,,,0,51,51,43,1,,,,,,,,,,,,,,,,,,,,,,,
,,,,,V3_012,20,Female,2024-10-15_17h19.28.247,jersey_experiment_5_v3,2023.2.2,Win32,85.47008547,,,,,,,,,,,,,,,,1121.804,1123.0978,1123.0979,1126.5685,return,2.424,,35.67708333,,,,,,FBP-PT-71.png,0.35,1.2,16,0.5,,,,,,,,,,,,,,,,,,0,52,52,15,1,,,,,,,,,,,,,,,,,,,,,,,
,,,,,V3_012,20,Female,2024-10-15_17h19.28.247,jersey_experiment_5_v3,2023.2.2,Win32,85.47008547,,,,,,,,,,,,,,,,1126.5687,1128.11,1128.11,1129.7688,return,0.9967,,74.86979167,,,,,,FBP-OG-91.png,0.45,1.2,45,0.75,,,,,,,,,,,,,,,,,,0,53,53,44,1,,,,,,,,,,,,,,,,,,,,,,,
,,,,,V3_012,20,Female,2024-10-15_17h19.28.247,jersey_experiment_5_v3,2023.2.2,Win32,85.47008547,,,,,,,,,,,,,,,,1129.7691,1131.063,1131.063,1132.71,return,0.6854,,75.78125,,,,,,FBP-RB-91.png,0.43,1.2,59,0.5,,,,,,,,,,,,,,,,,,0,54,54,58,1,,,,,,,,,,,,,,,,,,,,,,,
,,,,,V3_012,20,Female,2024-10-15_17h19.28.247,jersey_experiment_5_v3,2023.2.2,Win32,85.47008547,,,,,,,,,,,,,,,,1132.7103,1134.0043,1134.0043,1135.5572,return,0.482,,47.65625,,,,,,FBP-RB-71.png,0.37,1.2,47,0.5,,,,,,,,,,,,,,,,,,0,55,55,46,1,,,,,,,,,,,,,,,,,,,,,,,
,,,,,V3_012,20,Female,2024-10-15_17h19.28.247,jersey_experiment_5_v3,2023.2.2,Win32,85.47008547,,,,,,,,,,,,,,,,1135.5576,1136.8515,1136.8516,1138.1456,return,0.5334,,75.13020833,,,,,,FBP-RB-81.png,0.43,1.2,54,0.5,,,,,,,,,,,,,,,,,,0,56,56,53,1,,,,,,,,,,,,,,,,,,,,,,,
,,,,,V3_012,20,Female,2024-10-15_17h19.28.247,jersey_experiment_5_v3,2023.2.2,Win32,85.47008547,,,,,,,,,,,,,,,,1138.1458,1139.4397,1139.4397,1141.1692,return,0.5846,,65.49479167,,,,,,FBP-YG-19.png,0.4,1.2,13,0.5,,,,,,,,,,,,,,,,,,0,57,57,12,1,,,,,,,,,,,,,,,,,,,,,,,
,,,,,V3_012,20,Female,2024-10-15_17h19.28.247,jersey_experiment_5_v3,2023.2.2,Win32,85.47008547,,,,,,,,,,,,,,,,1141.1695,1142.7223,1142.7223,1145.6047,return,1.7461,,62.63020833,,,,,,FBP-OG-91.png,0.4,1.2,43,0.75,,,,,,,,,,,,,,,,,,0,58,58,42,1,,,,,,,,,,,,,,,,,,,,,,,
,,,,,V3_012,20,Female,2024-10-15_17h19.28.247,jersey_experiment_5_v3,2023.2.2,Win32,85.47008547,,,,,,,,,,,,,,,,1145.6048,1146.899,1146.899,1148.4163,return,0.7572,,50.91145833,,,,,,FBP-YG-17.png,0.4,1.2,3,0.5,,,,,,,,,,,,,,,,,,0,59,59,2,1,,,,,,,,,,,,,,,,,,,,,,,
,,,,,V3_012,20,Female,2024-10-15_17h19.28.247,jersey_experiment_5_v3,2023.2.2,Win32,85.47008547,,,,,,,,,,,,,,,,,,,,,,,,,,,,,,,,,,,,,,,,,,,,,,,,,,,,,,,,1148.4165,1155.4404,return,7.0197,,,,,,,,,,,,,,,,,,,
,,,,,V3_012,20,Female,2024-10-15_17h19.28.247,jersey_experiment_5_v3,2023.2.2,Win32,85.47008547,,,,,,,,,,,,,,,,,,,,,,,,,,,,,,,,,,,,,,,,,,,,,,,,,,,,,,,,,,,,,1155.4404,1160.6641,1,3.9673,return,1.232,,,,,,,,,,,,
,,,,,V3_012,20,Female,2024-10-15_17h19.28.247,jersey_experiment_5_v3,2023.2.2,Win32,85.47008547,,,,,,,,,,,,,,,,,,,,,,,,,,,,,,,,,,,,,,,,,,,,,,,,,,,,,,,,,,,,,,,,,,,,1160.6643,1374.8491,"I noticed that the football players were either white or black, and they had a couple of differently colored uniform combos. From what I saw, there was a yellow/orange, red, and green colored one. I saw that there were different sizes of football players, but I assume that there were three discrete body types (slender, neutral, husky). I think that the order of the body types may have altered my rankings, depending on the football player size that had come right before the current stimulus. I'm not exactly sure what the study is about, but I feel that it has something to do with my perception of relative size.",right,204.474,,,,,,
,,,,,V3_012,20,Female,2024-10-15_17h19.28.247,jersey_experiment_5_v3,2023.2.2,Win32,85.47008547,,,,,,,,,,,,,,,,,,,,,,,,,,,,,,,,,,,,,,,,,,,,,,,,,,,,,,,,,,,,,,,,,,,,,,,,,,1374.8493,1379.3667,return,4.5067,