requirements.started,requirements.stopped,key_resp_3.keys,key_resp_3.rt,key_resp_3.duration,Subject ID,Age,Gender,date,expName,psychopyVersion,OS,frameRate,instructions1.started,instructions1.stopped,key_resp.keys,key_resp.rt,key_resp.duration,example.started,example.stopped,enter_2.keys,enter_2.rt,enter_2.duration,instructions2.started,instructions2.stopped,enter_3.keys,enter_3.rt,enter_3.duration,image.started,image.stopped,slider_2.started,slider_2.stopped,next.keys,next.rt,next.duration,slider.response,trial_block_1.thisRepN,trial_block_1.thisTrialN,trial_block_1.thisN,trial_block_1.thisIndex,trial_block_1.ran,Path,Width,Height,Index,Duration,trial_block_2.thisRepN,trial_block_2.thisTrialN,trial_block_2.thisN,trial_block_2.thisIndex,trial_block_2.ran,rest_break.started,rest_break.stopped,end_break.started,end_break.stopped,key_resp_5.keys,key_resp_5.rt,key_resp_5.duration,trial_block_3.thisRepN,trial_block_3.thisTrialN,trial_block_3.thisN,trial_block_3.thisIndex,trial_block_3.ran,trial_block_4.thisRepN,trial_block_4.thisTrialN,trial_block_4.thisN,trial_block_4.thisIndex,trial_block_4.ran,questions_intro.started,questions_intro.stopped,enter_12.keys,enter_12.rt,enter_12.duration,question2.started,question2.stopped,question_doingbest.response,question_doingbest.rt,enter_15.keys,enter_15.rt,enter_15.duration,pattern.started,pattern.stopped,pattern_2.text,enter_17.keys,enter_17.rt,enter_17.duration,thankyou.started,thankyou.stopped,enter_14.keys,enter_14.rt,enter_14.duration
0,27.3512,return,27.3478,,V3_056,21,Male,2024-11-07_17h19.18.912,jersey_experiment_5_v3,2023.2.2,Win32,84.74576271,,,,,,,,,,,,,,,,,,,,,,,,,,,,,,,,,,,,,,,,,,,,,,,,,,,,,,,,,,,,,,,,,,,,,,,,,,,,,,
,,,,,V3_056,21,Male,2024-11-07_17h19.18.912,jersey_experiment_5_v3,2023.2.2,Win32,84.74576271,27.3513,57.6112,return,30.2404,,,,,,,,,,,,,,,,,,,,,,,,,,,,,,,,,,,,,,,,,,,,,,,,,,,,,,,,,,,,,,,,,,,,,,,,,,
,,,,,V3_056,21,Male,2024-11-07_17h19.18.912,jersey_experiment_5_v3,2023.2.2,Win32,84.74576271,,,,,,57.6112,65.9528,return,8.3041,,,,,,,,,,,,,,,,,,,,,,,,,,,,,,,,,,,,,,,,,,,,,,,,,,,,,,,,,,,,,,,,,,,,,
,,,,,V3_056,21,Male,2024-11-07_17h19.18.912,jersey_experiment_5_v3,2023.2.2,Win32,84.74576271,,,,,,,,,,,65.9529,98.8126,return,32.8499,,,,,,,,,,,,,,,,,,,,,,,,,,,,,,,,,,,,,,,,,,,,,,,,,,,,,,,,,,,,,,,,
,,,,,V3_056,21,Male,2024-11-07_17h19.18.912,jersey_experiment_5_v3,2023.2.2,Win32,84.74576271,,,,,,,,,,,,,,,,98.8142,100.3657,100.3658,121.2489,return,4.5165,,66.015625,0,0,0,0,1,FBP-YG-71.png,0.35,1.2,1,0.75,,,,,,,,,,,,,,,,,,,,,,,,,,,,,,,,,,,,,,,,,,,,,
,,,,,V3_056,21,Male,2024-11-07_17h19.18.912,jersey_experiment_5_v3,2023.2.2,Win32,84.74576271,,,,,,,,,,,,,,,,121.2492,122.8018,122.8018,129.0373,return,2.212,,54.81770833,0,1,1,46,1,FBP-RB-17.png,0.37,1.2,47,0.75,,,,,,,,,,,,,,,,,,,,,,,,,,,,,,,,,,,,,,,,,,,,,
,,,,,V3_056,21,Male,2024-11-07_17h19.18.912,jersey_experiment_5_v3,2023.2.2,Win32,84.74576271,,,,,,,,,,,,,,,,129.0377,130.5904,130.5904,149.097,return,16.0628,,56.90104167,0,2,2,1,1,FBP-YG-71.png,0.37,1.2,2,0.75,,,,,,,,,,,,,,,,,,,,,,,,,,,,,,,,,,,,,,,,,,,,,
,,,,,V3_056,21,Male,2024-11-07_17h19.18.912,jersey_experiment_5_v3,2023.2.2,Win32,84.74576271,,,,,,,,,,,,,,,,149.0974,150.65,150.65,154.2736,return,1.1161,,29.42708333,0,3,3,5,1,FBP-YG-81.png,0.35,1.2,6,0.75,,,,,,,,,,,,,,,,,,,,,,,,,,,,,,,,,,,,,,,,,,,,,
,,,,,V3_056,21,Male,2024-11-07_17h19.18.912,jersey_experiment_5_v3,2023.2.2,Win32,84.74576271,,,,,,,,,,,,,,,,154.2738,155.8265,155.8265,161.0739,return,2.2703,,47.39583333,0,4,4,21,1,FBP-PT-18.png,0.37,1.2,22,0.75,,,,,,,,,,,,,,,,,,,,,,,,,,,,,,,,,,,,,,,,,,,,,
,,,,,V3_056,21,Male,2024-11-07_17h19.18.912,jersey_experiment_5_v3,2023.2.2,Win32,84.74576271,,,,,,,,,,,,,,,,161.0741,162.6268,162.6269,165.7682,return,1.0879,,75.26041667,0,5,5,58,1,FBP-RB-19.png,0.43,1.2,59,0.75,,,,,,,,,,,,,,,,,,,,,,,,,,,,,,,,,,,,,,,,,,,,,
,,,,,V3_056,21,Male,2024-11-07_17h19.18.912,jersey_experiment_5_v3,2023.2.2,Win32,84.74576271,,,,,,,,,,,,,,,,165.7685,167.0623,167.0624,169.8507,return,1.0723,,75.13020833,0,6,6,42,1,FBP-OG-19.png,0.4,1.2,43,0.5,,,,,,,,,,,,,,,,,,,,,,,,,,,,,,,,,,,,,,,,,,,,,
,,,,,V3_056,21,Male,2024-11-07_17h19.18.912,jersey_experiment_5_v3,2023.2.2,Win32,84.74576271,,,,,,,,,,,,,,,,169.851,171.1449,171.1449,174.2038,return,1.1569,,24.86979167,0,7,7,30,1,FBP-OG-17.png,0.35,1.2,31,0.5,,,,,,,,,,,,,,,,,,,,,,,,,,,,,,,,,,,,,,,,,,,,,
,,,,,V3_056,21,Male,2024-11-07_17h19.18.912,jersey_experiment_5_v3,2023.2.2,Win32,84.74576271,,,,,,,,,,,,,,,,174.2041,175.7568,175.7569,180.2981,return,1.5689,,49.47916667,0,8,8,56,1,FBP-RB-19.png,0.37,1.2,57,0.75,,,,,,,,,,,,,,,,,,,,,,,,,,,,,,,,,,,,,,,,,,,,,
,,,,,V3_056,21,Male,2024-11-07_17h19.18.912,jersey_experiment_5_v3,2023.2.2,Win32,84.74576271,,,,,,,,,,,,,,,,180.2984,181.8511,181.8512,186.663,return,3.3709,,94.40104167,0,9,9,4,1,FBP-YG-71.png,0.45,1.2,5,0.75,,,,,,,,,,,,,,,,,,,,,,,,,,,,,,,,,,,,,,,,,,,,,
,,,,,V3_056,21,Male,2024-11-07_17h19.18.912,jersey_experiment_5_v3,2023.2.2,Win32,84.74576271,,,,,,,,,,,,,,,,186.6633,188.2161,188.2161,190.7926,return,1.0064,,89.32291667,0,10,10,53,1,FBP-RB-18.png,0.43,1.2,54,0.75,,,,,,,,,,,,,,,,,,,,,,,,,,,,,,,,,,,,,,,,,,,,,
,,,,,V3_056,21,Male,2024-11-07_17h19.18.912,jersey_experiment_5_v3,2023.2.2,Win32,84.74576271,,,,,,,,,,,,,,,,190.7928,192.0868,192.0868,195.181,return,0.7068,,83.203125,0,11,11,33,1,FBP-OG-17.png,0.43,1.2,34,0.5,,,,,,,,,,,,,,,,,,,,,,,,,,,,,,,,,,,,,,,,,,,,,
,,,,,V3_056,21,Male,2024-11-07_17h19.18.912,jersey_experiment_5_v3,2023.2.2,Win32,84.74576271,,,,,,,,,,,,,,,,195.1812,196.7339,196.7339,200.9578,return,2.402,,70.83333333,0,12,12,17,1,FBP-PT-17.png,0.4,1.2,18,0.75,,,,,,,,,,,,,,,,,,,,,,,,,,,,,,,,,,,,,,,,,,,,,
,,,,,V3_056,21,Male,2024-11-07_17h19.18.912,jersey_experiment_5_v3,2023.2.2,Win32,84.74576271,,,,,,,,,,,,,,,,200.9581,202.2518,202.2519,207.6169,return,3.4826,,25.13020833,0,13,13,35,1,FBP-OG-18.png,0.35,1.2,36,0.5,,,,,,,,,,,,,,,,,,,,,,,,,,,,,,,,,,,,,,,,,,,,,
,,,,,V3_056,21,Male,2024-11-07_17h19.18.912,jersey_experiment_5_v3,2023.2.2,Win32,84.74576271,,,,,,,,,,,,,,,,207.6172,209.1699,209.1699,212.5582,return,1.7039,,51.171875,0,14,14,22,1,FBP-PT-18.png,0.4,1.2,23,0.75,,,,,,,,,,,,,,,,,,,,,,,,,,,,,,,,,,,,,,,,,,,,,
,,,,,V3_056,21,Male,2024-11-07_17h19.18.912,jersey_experiment_5_v3,2023.2.2,Win32,84.74576271,,,,,,,,,,,,,,,,212.5584,214.1111,214.1111,217.1348,return,1.481,,96.22395833,0,15,15,19,1,FBP-PT-17.png,0.45,1.2,20,0.75,,,,,,,,,,,,,,,,,,,,,,,,,,,,,,,,,,,,,,,,,,,,,
,,,,,V3_056,21,Male,2024-11-07_17h19.18.912,jersey_experiment_5_v3,2023.2.2,Win32,84.74576271,,,,,,,,,,,,,,,,217.135,218.6879,218.6879,223.2643,return,2.5884,,25.13020833,0,16,16,51,1,FBP-RB-18.png,0.37,1.2,52,0.75,,,,,,,,,,,,,,,,,,,,,,,,,,,,,,,,,,,,,,,,,,,,,
,,,,,V3_056,21,Male,2024-11-07_17h19.18.912,jersey_experiment_5_v3,2023.2.2,Win32,84.74576271,,,,,,,,,,,,,,,,223.2647,224.5585,224.5585,227.2764,return,0.9093,,62.36979167,0,17,17,43,1,FBP-OG-19.png,0.43,1.2,44,0.5,,,,,,,,,,,,,,,,,,,,,,,,,,,,,,,,,,,,,,,,,,,,,
,,,,,V3_056,21,Male,2024-11-07_17h19.18.912,jersey_experiment_5_v3,2023.2.2,Win32,84.74576271,,,,,,,,,,,,,,,,227.2765,228.5705,228.5706,231.8411,return,1.9082,,25.390625,0,18,18,36,1,FBP-OG-18.png,0.37,1.2,37,0.5,,,,,,,,,,,,,,,,,,,,,,,,,,,,,,,,,,,,,,,,,,,,,
,,,,,V3_056,21,Male,2024-11-07_17h19.18.912,jersey_experiment_5_v3,2023.2.2,Win32,84.74576271,,,,,,,,,,,,,,,,231.8414,233.3944,233.3945,235.6649,return,1.0589,,75.13020833,0,19,19,18,1,FBP-PT-17.png,0.43,1.2,19,0.75,,,,,,,,,,,,,,,,,,,,,,,,,,,,,,,,,,,,,,,,,,,,,
,,,,,V3_056,21,Male,2024-11-07_17h19.18.912,jersey_experiment_5_v3,2023.2.2,Win32,84.74576271,,,,,,,,,,,,,,,,235.6651,237.2178,237.2179,240.5591,return,1.9167,,57.29166667,0,20,20,7,1,FBP-YG-81.png,0.4,1.2,8,0.75,,,,,,,,,,,,,,,,,,,,,,,,,,,,,,,,,,,,,,,,,,,,,
,,,,,V3_056,21,Male,2024-11-07_17h19.18.912,jersey_experiment_5_v3,2023.2.2,Win32,84.74576271,,,,,,,,,,,,,,,,240.5595,242.1124,242.1124,244.1711,return,0.9911,,89.32291667,0,21,21,29,1,FBP-PT-19.png,0.45,1.2,30,0.75,,,,,,,,,,,,,,,,,,,,,,,,,,,,,,,,,,,,,,,,,,,,,
,,,,,V3_056,21,Male,2024-11-07_17h19.18.912,jersey_experiment_5_v3,2023.2.2,Win32,84.74576271,,,,,,,,,,,,,,,,244.1714,245.4652,245.4652,247.7124,return,1.0197,,92.31770833,0,22,22,34,1,FBP-OG-17.png,0.45,1.2,35,0.5,,,,,,,,,,,,,,,,,,,,,,,,,,,,,,,,,,,,,,,,,,,,,
,,,,,V3_056,21,Male,2024-11-07_17h19.18.912,jersey_experiment_5_v3,2023.2.2,Win32,84.74576271,,,,,,,,,,,,,,,,247.7126,249.2656,249.2657,250.736,return,0.5076,,93.48958333,0,23,23,14,1,FBP-YG-91.png,0.45,1.2,15,0.75,,,,,,,,,,,,,,,,,,,,,,,,,,,,,,,,,,,,,,,,,,,,,
,,,,,V3_056,21,Male,2024-11-07_17h19.18.912,jersey_experiment_5_v3,2023.2.2,Win32,84.74576271,,,,,,,,,,,,,,,,250.7363,252.2892,252.2892,255.2655,return,1.9767,,19.40104167,0,24,24,6,1,FBP-YG-81.png,0.37,1.2,7,0.75,,,,,,,,,,,,,,,,,,,,,,,,,,,,,,,,,,,,,,,,,,,,,
,,,,,V3_056,21,Male,2024-11-07_17h19.18.912,jersey_experiment_5_v3,2023.2.2,Win32,84.74576271,,,,,,,,,,,,,,,,255.2658,256.5598,256.5598,258.9128,return,0.7641,,25.52083333,0,25,25,37,1,FBP-OG-18.png,0.4,1.2,38,0.5,,,,,,,,,,,,,,,,,,,,,,,,,,,,,,,,,,,,,,,,,,,,,
,,,,,V3_056,21,Male,2024-11-07_17h19.18.912,jersey_experiment_5_v3,2023.2.2,Win32,84.74576271,,,,,,,,,,,,,,,,258.913,260.466,260.466,262.6189,return,1.1465,,5.46875,0,26,26,50,1,FBP-RB-18.png,0.35,1.2,51,0.75,,,,,,,,,,,,,,,,,,,,,,,,,,,,,,,,,,,,,,,,,,,,,
,,,,,V3_056,21,Male,2024-11-07_17h19.18.912,jersey_experiment_5_v3,2023.2.2,Win32,84.74576271,,,,,,,,,,,,,,,,262.6191,264.1718,264.1718,266.2189,return,1.0124,,11.58854167,0,27,27,20,1,FBP-PT-18.png,0.35,1.2,21,0.75,,,,,,,,,,,,,,,,,,,,,,,,,,,,,,,,,,,,,,,,,,,,,
,,,,,V3_056,21,Male,2024-11-07_17h19.18.912,jersey_experiment_5_v3,2023.2.2,Win32,84.74576271,,,,,,,,,,,,,,,,266.2192,267.7719,267.772,269.7838,return,1.0196,,4.817708333,0,28,28,15,1,FBP-PT-17.png,0.35,1.2,16,0.75,,,,,,,,,,,,,,,,,,,,,,,,,,,,,,,,,,,,,,,,,,,,,
,,,,,V3_056,21,Male,2024-11-07_17h19.18.912,jersey_experiment_5_v3,2023.2.2,Win32,84.74576271,,,,,,,,,,,,,,,,269.784,271.3369,271.3369,273.5015,return,0.4604,,87.890625,0,29,29,23,1,FBP-PT-18.png,0.43,1.2,24,0.75,,,,,,,,,,,,,,,,,,,,,,,,,,,,,,,,,,,,,,,,,,,,,
,,,,,V3_056,21,Male,2024-11-07_17h19.18.912,jersey_experiment_5_v3,2023.2.2,Win32,84.74576271,,,,,,,,,,,,,,,,273.5018,274.7959,274.7959,277.7723,return,1.0033,,29.55729167,0,30,30,31,1,FBP-OG-17.png,0.37,1.2,32,0.5,,,,,,,,,,,,,,,,,,,,,,,,,,,,,,,,,,,,,,,,,,,,,
,,,,,V3_056,21,Male,2024-11-07_17h19.18.912,jersey_experiment_5_v3,2023.2.2,Win32,84.74576271,,,,,,,,,,,,,,,,277.7726,279.0667,279.0667,280.9254,return,0.5102,,91.92708333,0,31,31,38,1,FBP-OG-18.png,0.43,1.2,39,0.5,,,,,,,,,,,,,,,,,,,,,,,,,,,,,,,,,,,,,,,,,,,,,
,,,,,V3_056,21,Male,2024-11-07_17h19.18.912,jersey_experiment_5_v3,2023.2.2,Win32,84.74576271,,,,,,,,,,,,,,,,280.9257,282.4785,282.4786,283.7843,return,0.3931,,93.61979167,0,32,32,3,1,FBP-YG-71.png,0.43,1.2,4,0.75,,,,,,,,,,,,,,,,,,,,,,,,,,,,,,,,,,,,,,,,,,,,,
,,,,,V3_056,21,Male,2024-11-07_17h19.18.912,jersey_experiment_5_v3,2023.2.2,Win32,84.74576271,,,,,,,,,,,,,,,,283.7846,285.3372,285.3372,286.6903,return,0.4736,,73.828125,0,33,33,57,1,FBP-RB-19.png,0.4,1.2,58,0.75,,,,,,,,,,,,,,,,,,,,,,,,,,,,,,,,,,,,,,,,,,,,,
,,,,,V3_056,21,Male,2024-11-07_17h19.18.912,jersey_experiment_5_v3,2023.2.2,Win32,84.74576271,,,,,,,,,,,,,,,,286.6906,288.2432,288.2432,291.02,return,1.7184,,74.47916667,0,34,34,47,1,FBP-RB-17.png,0.4,1.2,48,0.75,,,,,,,,,,,,,,,,,,,,,,,,,,,,,,,,,,,,,,,,,,,,,
,,,,,V3_056,21,Male,2024-11-07_17h19.18.912,jersey_experiment_5_v3,2023.2.2,Win32,84.74576271,,,,,,,,,,,,,,,,291.0202,292.573,292.5731,293.879,return,0.503,,80.98958333,0,35,35,13,1,FBP-YG-91.png,0.43,1.2,14,0.75,,,,,,,,,,,,,,,,,,,,,,,,,,,,,,,,,,,,,,,,,,,,,
,,,,,V3_056,21,Male,2024-11-07_17h19.18.912,jersey_experiment_5_v3,2023.2.2,Win32,84.74576271,,,,,,,,,,,,,,,,293.8793,295.4321,295.4321,297.6554,return,0.9463,,72.00520833,0,36,36,27,1,FBP-PT-19.png,0.4,1.2,28,0.75,,,,,,,,,,,,,,,,,,,,,,,,,,,,,,,,,,,,,,,,,,,,,
,,,,,V3_056,21,Male,2024-11-07_17h19.18.912,jersey_experiment_5_v3,2023.2.2,Win32,84.74576271,,,,,,,,,,,,,,,,297.6557,299.2084,299.2085,301.2554,return,0.9847,,28.64583333,0,37,37,26,1,FBP-PT-19.png,0.37,1.2,27,0.75,,,,,,,,,,,,,,,,,,,,,,,,,,,,,,,,,,,,,,,,,,,,,
,,,,,V3_056,21,Male,2024-11-07_17h19.18.912,jersey_experiment_5_v3,2023.2.2,Win32,84.74576271,,,,,,,,,,,,,,,,301.2557,302.8085,302.8086,304.2556,return,0.5284,,30.98958333,0,38,38,2,1,FBP-YG-71.png,0.4,1.2,3,0.75,,,,,,,,,,,,,,,,,,,,,,,,,,,,,,,,,,,,,,,,,,,,,
,,,,,V3_056,21,Male,2024-11-07_17h19.18.912,jersey_experiment_5_v3,2023.2.2,Win32,84.74576271,,,,,,,,,,,,,,,,304.2558,305.5498,305.5499,307.5852,return,0.2722,,72.00520833,0,39,39,32,1,FBP-OG-17.png,0.4,1.2,33,0.5,,,,,,,,,,,,,,,,,,,,,,,,,,,,,,,,,,,,,,,,,,,,,
,,,,,V3_056,21,Male,2024-11-07_17h19.18.912,jersey_experiment_5_v3,2023.2.2,Win32,84.74576271,,,,,,,,,,,,,,,,307.5855,308.8794,308.8795,310.4794,return,0.4698,,90.49479167,0,40,40,39,1,FBP-OG-18.png,0.45,1.2,40,0.5,,,,,,,,,,,,,,,,,,,,,,,,,,,,,,,,,,,,,,,,,,,,,
,,,,,V3_056,21,Male,2024-11-07_17h19.18.912,jersey_experiment_5_v3,2023.2.2,Win32,84.74576271,,,,,,,,,,,,,,,,310.4796,312.0325,312.0325,313.809,return,0.5414,,5.598958333,0,41,41,45,1,FBP-RB-17.png,0.35,1.2,46,0.75,,,,,,,,,,,,,,,,,,,,,,,,,,,,,,,,,,,,,,,,,,,,,
,,,,,V3_056,21,Male,2024-11-07_17h19.18.912,jersey_experiment_5_v3,2023.2.2,Win32,84.74576271,,,,,,,,,,,,,,,,313.8093,315.3621,315.3621,317.7268,return,1.2844,,96.484375,0,42,42,49,1,FBP-RB-17.png,0.45,1.2,50,0.75,,,,,,,,,,,,,,,,,,,,,,,,,,,,,,,,,,,,,,,,,,,,,
,,,,,V3_056,21,Male,2024-11-07_17h19.18.912,jersey_experiment_5_v3,2023.2.2,Win32,84.74576271,,,,,,,,,,,,,,,,317.7271,319.2799,319.28,320.7151,return,0.3926,,96.61458333,0,43,43,59,1,FBP-RB-19.png,0.45,1.2,60,0.75,,,,,,,,,,,,,,,,,,,,,,,,,,,,,,,,,,,,,,,,,,,,,
,,,,,V3_056,21,Male,2024-11-07_17h19.18.912,jersey_experiment_5_v3,2023.2.2,Win32,84.74576271,,,,,,,,,,,,,,,,320.7152,322.0095,322.0095,324.1742,return,0.9781,,4.817708333,0,44,44,40,1,FBP-OG-19.png,0.35,1.2,41,0.5,,,,,,,,,,,,,,,,,,,,,,,,,,,,,,,,,,,,,,,,,,,,,
,,,,,V3_056,21,Male,2024-11-07_17h19.18.912,jersey_experiment_5_v3,2023.2.2,Win32,84.74576271,,,,,,,,,,,,,,,,324.1744,325.727,325.7271,327.2331,return,0.4015,,4.036458333,0,45,45,25,1,FBP-PT-19.png,0.35,1.2,26,0.75,,,,,,,,,,,,,,,,,,,,,,,,,,,,,,,,,,,,,,,,,,,,,
,,,,,V3_056,21,Male,2024-11-07_17h19.18.912,jersey_experiment_5_v3,2023.2.2,Win32,84.74576271,,,,,,,,,,,,,,,,327.2333,328.7861,328.7862,331.339,return,1.6618,,84.24479167,0,46,46,8,1,FBP-YG-81.png,0.43,1.2,9,0.75,,,,,,,,,,,,,,,,,,,,,,,,,,,,,,,,,,,,,,,,,,,,,
,,,,,V3_056,21,Male,2024-11-07_17h19.18.912,jersey_experiment_5_v3,2023.2.2,Win32,84.74576271,,,,,,,,,,,,,,,,331.3392,332.8805,332.8805,334.1862,return,0.4761,,96.35416667,0,47,47,54,1,FBP-RB-18.png,0.45,1.2,55,0.75,,,,,,,,,,,,,,,,,,,,,,,,,,,,,,,,,,,,,,,,,,,,,
,,,,,V3_056,21,Male,2024-11-07_17h19.18.912,jersey_experiment_5_v3,2023.2.2,Win32,84.74576271,,,,,,,,,,,,,,,,334.1864,335.7393,335.7393,337.151,return,0.33,,95.703125,0,48,48,24,1,FBP-PT-18.png,0.45,1.2,25,0.75,,,,,,,,,,,,,,,,,,,,,,,,,,,,,,,,,,,,,,,,,,,,,
,,,,,V3_056,21,Male,2024-11-07_17h19.18.912,jersey_experiment_5_v3,2023.2.2,Win32,84.74576271,,,,,,,,,,,,,,,,337.1513,338.704,338.7041,340.01,return,0.3703,,74.08854167,0,49,49,52,1,FBP-RB-18.png,0.4,1.2,53,0.75,,,,,,,,,,,,,,,,,,,,,,,,,,,,,,,,,,,,,,,,,,,,,
,,,,,V3_056,21,Male,2024-11-07_17h19.18.912,jersey_experiment_5_v3,2023.2.2,Win32,84.74576271,,,,,,,,,,,,,,,,340.0102,341.5632,341.5632,344.0101,return,1.6018,,21.09375,0,50,50,10,1,FBP-YG-91.png,0.35,1.2,11,0.75,,,,,,,,,,,,,,,,,,,,,,,,,,,,,,,,,,,,,,,,,,,,,
,,,,,V3_056,21,Male,2024-11-07_17h19.18.912,jersey_experiment_5_v3,2023.2.2,Win32,84.74576271,,,,,,,,,,,,,,,,344.0104,345.5632,345.5633,346.7983,return,0.2834,,16.53645833,0,51,51,11,1,FBP-YG-91.png,0.37,1.2,12,0.75,,,,,,,,,,,,,,,,,,,,,,,,,,,,,,,,,,,,,,,,,,,,,
,,,,,V3_056,21,Male,2024-11-07_17h19.18.912,jersey_experiment_5_v3,2023.2.2,Win32,84.74576271,,,,,,,,,,,,,,,,346.7986,348.0926,348.0926,349.8575,return,0.2589,,92.44791667,0,52,52,44,1,FBP-OG-19.png,0.45,1.2,45,0.5,,,,,,,,,,,,,,,,,,,,,,,,,,,,,,,,,,,,,,,,,,,,,
,,,,,V3_056,21,Male,2024-11-07_17h19.18.912,jersey_experiment_5_v3,2023.2.2,Win32,84.74576271,,,,,,,,,,,,,,,,349.8577,351.4104,351.4105,352.9046,return,0.3483,,92.578125,0,53,53,48,1,FBP-RB-17.png,0.43,1.2,49,0.75,,,,,,,,,,,,,,,,,,,,,,,,,,,,,,,,,,,,,,,,,,,,,
,,,,,V3_056,21,Male,2024-11-07_17h19.18.912,jersey_experiment_5_v3,2023.2.2,Win32,84.74576271,,,,,,,,,,,,,,,,352.9048,354.1988,354.1988,356.1987,return,0.4675,,5.729166667,0,54,54,41,1,FBP-OG-19.png,0.37,1.2,42,0.5,,,,,,,,,,,,,,,,,,,,,,,,,,,,,,,,,,,,,,,,,,,,,
,,,,,V3_056,21,Male,2024-11-07_17h19.18.912,jersey_experiment_5_v3,2023.2.2,Win32,84.74576271,,,,,,,,,,,,,,,,356.1989,357.7519,357.7519,359.2813,return,0.2723,,78.38541667,0,55,55,9,1,FBP-YG-81.png,0.45,1.2,10,0.75,,,,,,,,,,,,,,,,,,,,,,,,,,,,,,,,,,,,,,,,,,,,,
,,,,,V3_056,21,Male,2024-11-07_17h19.18.912,jersey_experiment_5_v3,2023.2.2,Win32,84.74576271,,,,,,,,,,,,,,,,359.2815,360.8345,360.8345,362.0461,return,0.3309,,9.375,0,56,56,16,1,FBP-PT-17.png,0.37,1.2,17,0.75,,,,,,,,,,,,,,,,,,,,,,,,,,,,,,,,,,,,,,,,,,,,,
,,,,,V3_056,21,Male,2024-11-07_17h19.18.912,jersey_experiment_5_v3,2023.2.2,Win32,84.74576271,,,,,,,,,,,,,,,,362.0462,363.5991,363.5991,365.2816,return,0.214,,87.36979167,0,57,57,28,1,FBP-PT-19.png,0.43,1.2,29,0.75,,,,,,,,,,,,,,,,,,,,,,,,,,,,,,,,,,,,,,,,,,,,,
,,,,,V3_056,21,Male,2024-11-07_17h19.18.912,jersey_experiment_5_v3,2023.2.2,Win32,84.74576271,,,,,,,,,,,,,,,,365.2817,366.8345,366.8346,368.9051,return,0.8417,,11.84895833,0,58,58,55,1,FBP-RB-19.png,0.35,1.2,56,0.75,,,,,,,,,,,,,,,,,,,,,,,,,,,,,,,,,,,,,,,,,,,,,
,,,,,V3_056,21,Male,2024-11-07_17h19.18.912,jersey_experiment_5_v3,2023.2.2,Win32,84.74576271,,,,,,,,,,,,,,,,368.9053,370.4583,370.4583,371.9641,return,0.3549,,74.47916667,0,59,59,12,1,FBP-YG-91.png,0.4,1.2,13,0.75,,,,,,,,,,,,,,,,,,,,,,,,,,,,,,,,,,,,,,,,,,,,,
,,,,,V3_056,21,Male,2024-11-07_17h19.18.912,jersey_experiment_5_v3,2023.2.2,Win32,84.74576271,,,,,,,,,,,,,,,,371.9654,373.517,373.517,377.1761,return,1.7961,,44.27083333,,,,,,FBP-PT-71.png,0.37,1.2,17,0.75,0,0,0,16,1,,,,,,,,,,,,,,,,,,,,,,,,,,,,,,,,,,,,,,,,
,,,,,V3_056,21,Male,2024-11-07_17h19.18.912,jersey_experiment_5_v3,2023.2.2,Win32,84.74576271,,,,,,,,,,,,,,,,377.1764,378.4701,378.4701,380.3291,return,0.4771,,85.02604167,,,,,,FBP-OG-91.png,0.43,1.2,44,0.5,0,1,1,43,1,,,,,,,,,,,,,,,,,,,,,,,,,,,,,,,,,,,,,,,,
,,,,,V3_056,21,Male,2024-11-07_17h19.18.912,jersey_experiment_5_v3,2023.2.2,Win32,84.74576271,,,,,,,,,,,,,,,,380.3293,381.8822,381.8823,383.4233,return,0.2142,,3.515625,,,,,,FBP-PT-91.png,0.35,1.2,26,0.75,0,2,2,25,1,,,,,,,,,,,,,,,,,,,,,,,,,,,,,,,,,,,,,,,,
,,,,,V3_056,21,Male,2024-11-07_17h19.18.912,jersey_experiment_5_v3,2023.2.2,Win32,84.74576271,,,,,,,,,,,,,,,,383.4235,384.9765,384.9765,387.1293,return,0.2178,,49.86979167,,,,,,FBP-RB-81.png,0.4,1.2,53,0.75,0,3,3,52,1,,,,,,,,,,,,,,,,,,,,,,,,,,,,,,,,,,,,,,,,
,,,,,V3_056,21,Male,2024-11-07_17h19.18.912,jersey_experiment_5_v3,2023.2.2,Win32,84.74576271,,,,,,,,,,,,,,,,387.1296,388.6823,388.6823,389.9649,return,0.2021,,61.19791667,,,,,,FBP-YG-18.png,0.43,1.2,9,0.75,0,4,4,8,1,,,,,,,,,,,,,,,,,,,,,,,,,,,,,,,,,,,,,,,,
,,,,,V3_056,21,Male,2024-11-07_17h19.18.912,jersey_experiment_5_v3,2023.2.2,Win32,84.74576271,,,,,,,,,,,,,,,,389.9651,391.5178,391.5179,393.1295,return,0.1708,,39.84375,,,,,,FBP-PT-91.png,0.37,1.2,27,0.75,0,5,5,26,1,,,,,,,,,,,,,,,,,,,,,,,,,,,,,,,,,,,,,,,,
,,,,,V3_056,21,Male,2024-11-07_17h19.18.912,jersey_experiment_5_v3,2023.2.2,Win32,84.74576271,,,,,,,,,,,,,,,,393.1298,394.6825,394.6826,395.918,return,0.1895,,49.609375,,,,,,FBP-PT-81.png,0.37,1.2,22,0.75,0,6,6,21,1,,,,,,,,,,,,,,,,,,,,,,,,,,,,,,,,,,,,,,,,
,,,,,V3_056,21,Male,2024-11-07_17h19.18.912,jersey_experiment_5_v3,2023.2.2,Win32,84.74576271,,,,,,,,,,,,,,,,395.9182,397.471,397.471,398.5062,return,0.1896,,92.83854167,,,,,,FBP-YG-18.png,0.45,1.2,10,0.75,0,7,7,9,1,,,,,,,,,,,,,,,,,,,,,,,,,,,,,,,,,,,,,,,,
,,,,,V3_056,21,Male,2024-11-07_17h19.18.912,jersey_experiment_5_v3,2023.2.2,Win32,84.74576271,,,,,,,,,,,,,,,,398.5065,400.0593,400.0593,402.4005,return,0.1885,,60.9375,,,,,,FBP-RB-91.png,0.37,1.2,57,0.75,0,8,8,56,1,,,,,,,,,,,,,,,,,,,,,,,,,,,,,,,,,,,,,,,,
,,,,,V3_056,21,Male,2024-11-07_17h19.18.912,jersey_experiment_5_v3,2023.2.2,Win32,84.74576271,,,,,,,,,,,,,,,,402.4008,403.6947,403.6947,405.33,return,0.2721,,16.66666667,,,,,,FBP-OG-91.png,0.35,1.2,41,0.5,0,9,9,40,1,,,,,,,,,,,,,,,,,,,,,,,,,,,,,,,,,,,,,,,,
,,,,,V3_056,21,Male,2024-11-07_17h19.18.912,jersey_experiment_5_v3,2023.2.2,Win32,84.74576271,,,,,,,,,,,,,,,,405.3303,406.6243,406.6243,409.5183,return,1.5534,,49.86979167,,,,,,FBP-OG-81.png,0.4,1.2,38,0.5,0,10,10,37,1,,,,,,,,,,,,,,,,,,,,,,,,,,,,,,,,,,,,,,,,
,,,,,V3_056,21,Male,2024-11-07_17h19.18.912,jersey_experiment_5_v3,2023.2.2,Win32,84.74576271,,,,,,,,,,,,,,,,409.5186,411.0716,411.0716,412.1303,return,0.2721,,36.58854167,,,,,,FBP-YG-17.png,0.35,1.2,1,0.75,0,11,11,0,1,,,,,,,,,,,,,,,,,,,,,,,,,,,,,,,,,,,,,,,,
,,,,,V3_056,21,Male,2024-11-07_17h19.18.912,jersey_experiment_5_v3,2023.2.2,Win32,84.74576271,,,,,,,,,,,,,,,,412.1306,413.6835,413.6835,415.095,return,0.1614,,86.45833333,,,,,,FBP-PT-91.png,0.45,1.2,30,0.75,0,12,12,29,1,,,,,,,,,,,,,,,,,,,,,,,,,,,,,,,,,,,,,,,,
,,,,,V3_056,21,Male,2024-11-07_17h19.18.912,jersey_experiment_5_v3,2023.2.2,Win32,84.74576271,,,,,,,,,,,,,,,,415.0952,416.648,416.6481,418.3658,return,0.2744,,73.4375,,,,,,FBP-YG-18.png,0.4,1.2,8,0.75,0,13,13,7,1,,,,,,,,,,,,,,,,,,,,,,,,,,,,,,,,,,,,,,,,
,,,,,V3_056,21,Male,2024-11-07_17h19.18.912,jersey_experiment_5_v3,2023.2.2,Win32,84.74576271,,,,,,,,,,,,,,,,418.3661,419.9189,419.9189,421.3893,return,0.1986,,82.55208333,,,,,,FBP-RB-71.png,0.4,1.2,48,0.75,0,14,14,47,1,,,,,,,,,,,,,,,,,,,,,,,,,,,,,,,,,,,,,,,,
,,,,,V3_056,21,Male,2024-11-07_17h19.18.912,jersey_experiment_5_v3,2023.2.2,Win32,84.74576271,,,,,,,,,,,,,,,,421.3896,422.9425,422.9425,425.3424,return,1.1775,,23.95833333,,,,,,FBP-PT-81.png,0.35,1.2,21,0.75,0,15,15,20,1,,,,,,,,,,,,,,,,,,,,,,,,,,,,,,,,,,,,,,,,
,,,,,V3_056,21,Male,2024-11-07_17h19.18.912,jersey_experiment_5_v3,2023.2.2,Win32,84.74576271,,,,,,,,,,,,,,,,425.3427,426.6367,426.6367,428.3428,return,0.2198,,76.171875,,,,,,FBP-OG-71.png,0.4,1.2,33,0.5,0,16,16,32,1,,,,,,,,,,,,,,,,,,,,,,,,,,,,,,,,,,,,,,,,
,,,,,V3_056,21,Male,2024-11-07_17h19.18.912,jersey_experiment_5_v3,2023.2.2,Win32,84.74576271,,,,,,,,,,,,,,,,428.3431,429.8959,429.8959,431.3545,return,0.2286,,63.80208333,,,,,,FBP-PT-91.png,0.4,1.2,28,0.75,0,17,17,27,1,,,,,,,,,,,,,,,,,,,,,,,,,,,,,,,,,,,,,,,,
,,,,,V3_056,21,Male,2024-11-07_17h19.18.912,jersey_experiment_5_v3,2023.2.2,Win32,84.74576271,,,,,,,,,,,,,,,,431.3547,432.8959,432.896,434.0487,return,0.3161,,86.06770833,,,,,,FBP-PT-91.png,0.43,1.2,29,0.75,0,18,18,28,1,,,,,,,,,,,,,,,,,,,,,,,,,,,,,,,,,,,,,,,,
,,,,,V3_056,21,Male,2024-11-07_17h19.18.912,jersey_experiment_5_v3,2023.2.2,Win32,84.74576271,,,,,,,,,,,,,,,,434.0491,435.6017,435.6018,436.8489,return,0.2437,,75.91145833,,,,,,FBP-PT-71.png,0.4,1.2,18,0.75,0,19,19,17,1,,,,,,,,,,,,,,,,,,,,,,,,,,,,,,,,,,,,,,,,
,,,,,V3_056,21,Male,2024-11-07_17h19.18.912,jersey_experiment_5_v3,2023.2.2,Win32,84.74576271,,,,,,,,,,,,,,,,436.8491,438.4021,438.4021,440.1784,return,0.2479,,32.16145833,,,,,,FBP-RB-91.png,0.35,1.2,56,0.75,0,20,20,55,1,,,,,,,,,,,,,,,,,,,,,,,,,,,,,,,,,,,,,,,,
,,,,,V3_056,21,Male,2024-11-07_17h19.18.912,jersey_experiment_5_v3,2023.2.2,Win32,84.74576271,,,,,,,,,,,,,,,,440.1787,441.7315,441.7316,442.5432,return,0.2119,,27.99479167,,,,,,FBP-PT-71.png,0.35,1.2,16,0.75,0,21,21,15,1,,,,,,,,,,,,,,,,,,,,,,,,,,,,,,,,,,,,,,,,
,,,,,V3_056,21,Male,2024-11-07_17h19.18.912,jersey_experiment_5_v3,2023.2.2,Win32,84.74576271,,,,,,,,,,,,,,,,442.5435,443.8374,443.8374,445.7197,return,0.1493,,43.48958333,,,,,,FBP-OG-71.png,0.37,1.2,32,0.5,0,22,22,31,1,,,,,,,,,,,,,,,,,,,,,,,,,,,,,,,,,,,,,,,,
,,,,,V3_056,21,Male,2024-11-07_17h19.18.912,jersey_experiment_5_v3,2023.2.2,Win32,84.74576271,,,,,,,,,,,,,,,,445.72,447.273,447.273,448.8023,return,0.6204,,80.98958333,,,,,,FBP-YG-19.png,0.43,1.2,14,0.75,0,23,23,13,1,,,,,,,,,,,,,,,,,,,,,,,,,,,,,,,,,,,,,,,,
,,,,,V3_056,21,Male,2024-11-07_17h19.18.912,jersey_experiment_5_v3,2023.2.2,Win32,84.74576271,,,,,,,,,,,,,,,,448.8025,450.3553,450.3554,452.6025,return,1.2641,,74.86979167,,,,,,FBP-YG-17.png,0.4,1.2,3,0.75,0,24,24,2,1,,,,,,,,,,,,,,,,,,,,,,,,,,,,,,,,,,,,,,,,
,,,,,V3_056,21,Male,2024-11-07_17h19.18.912,jersey_experiment_5_v3,2023.2.2,Win32,84.74576271,,,,,,,,,,,,,,,,452.6027,454.1555,454.1556,455.4024,return,0.2522,,40.625,,,,,,FBP-YG-18.png,0.35,1.2,6,0.75,0,25,25,5,1,,,,,,,,,,,,,,,,,,,,,,,,,,,,,,,,,,,,,,,,
,,,,,V3_056,21,Male,2024-11-07_17h19.18.912,jersey_experiment_5_v3,2023.2.2,Win32,84.74576271,,,,,,,,,,,,,,,,455.4026,456.6968,456.6969,457.8497,return,0.2292,,75.13020833,,,,,,FBP-OG-71.png,0.45,1.2,35,0.5,0,26,26,34,1,,,,,,,,,,,,,,,,,,,,,,,,,,,,,,,,,,,,,,,,
,,,,,V3_056,21,Male,2024-11-07_17h19.18.912,jersey_experiment_5_v3,2023.2.2,Win32,84.74576271,,,,,,,,,,,,,,,,457.8499,459.4028,459.4028,460.8968,return,0.2452,,40.234375,,,,,,FBP-YG-17.png,0.37,1.2,2,0.75,0,27,27,1,1,,,,,,,,,,,,,,,,,,,,,,,,,,,,,,,,,,,,,,,,
,,,,,V3_056,21,Male,2024-11-07_17h19.18.912,jersey_experiment_5_v3,2023.2.2,Win32,84.74576271,,,,,,,,,,,,,,,,460.8971,462.4384,462.4384,463.6149,return,0.2826,,85.67708333,,,,,,FBP-RB-71.png,0.45,1.2,50,0.75,0,28,28,49,1,,,,,,,,,,,,,,,,,,,,,,,,,,,,,,,,,,,,,,,,
,,,,,V3_056,21,Male,2024-11-07_17h19.18.912,jersey_experiment_5_v3,2023.2.2,Win32,84.74576271,,,,,,,,,,,,,,,,463.6151,464.9087,464.9088,466.3676,return,0.2095,,15.234375,,,,,,FBP-OG-71.png,0.35,1.2,31,0.5,0,29,29,30,1,,,,,,,,,,,,,,,,,,,,,,,,,,,,,,,,,,,,,,,,
,,,,,V3_056,21,Male,2024-11-07_17h19.18.912,jersey_experiment_5_v3,2023.2.2,Win32,84.74576271,,,,,,,,,,,,,,,,466.3679,467.9206,467.9206,469.6972,return,0.2197,,46.484375,,,,,,FBP-YG-18.png,0.37,1.2,7,0.75,0,30,30,6,1,,,,,,,,,,,,,,,,,,,,,,,,,,,,,,,,,,,,,,,,
,,,,,V3_056,21,Male,2024-11-07_17h19.18.912,jersey_experiment_5_v3,2023.2.2,Win32,84.74576271,,,,,,,,,,,,,,,,469.6974,470.9912,470.9913,473.1796,return,0.898,,75.65104167,,,,,,FBP-OG-71.png,0.43,1.2,34,0.5,0,31,31,33,1,,,,,,,,,,,,,,,,,,,,,,,,,,,,,,,,,,,,,,,,
,,,,,V3_056,21,Male,2024-11-07_17h19.18.912,jersey_experiment_5_v3,2023.2.2,Win32,84.74576271,,,,,,,,,,,,,,,,473.1799,474.7327,474.7328,476.1915,return,0.2112,,49.609375,,,,,,FBP-YG-19.png,0.37,1.2,12,0.75,0,32,32,11,1,,,,,,,,,,,,,,,,,,,,,,,,,,,,,,,,,,,,,,,,
,,,,,V3_056,21,Male,2024-11-07_17h19.18.912,jersey_experiment_5_v3,2023.2.2,Win32,84.74576271,,,,,,,,,,,,,,,,476.1918,477.7445,477.7445,478.7681,return,0.2586,,91.40625,,,,,,FBP-YG-17.png,0.45,1.2,5,0.75,0,33,33,4,1,,,,,,,,,,,,,,,,,,,,,,,,,,,,,,,,,,,,,,,,
,,,,,V3_056,21,Male,2024-11-07_17h19.18.912,jersey_experiment_5_v3,2023.2.2,Win32,84.74576271,,,,,,,,,,,,,,,,478.7683,480.3212,480.3213,481.4034,return,0.251,,78.77604167,,,,,,FBP-RB-71.png,0.43,1.2,49,0.75,0,34,34,48,1,,,,,,,,,,,,,,,,,,,,,,,,,,,,,,,,,,,,,,,,
,,,,,V3_056,21,Male,2024-11-07_17h19.18.912,jersey_experiment_5_v3,2023.2.2,Win32,84.74576271,,,,,,,,,,,,,,,,481.4037,482.9566,482.9567,484.2741,return,0.2024,,84.50520833,,,,,,FBP-PT-71.png,0.43,1.2,19,0.75,0,35,35,18,1,,,,,,,,,,,,,,,,,,,,,,,,,,,,,,,,,,,,,,,,
,,,,,V3_056,21,Male,2024-11-07_17h19.18.912,jersey_experiment_5_v3,2023.2.2,Win32,84.74576271,,,,,,,,,,,,,,,,484.2744,485.8274,485.8274,488.392,return,1.7704,,80.46875,,,,,,FBP-PT-81.png,0.4,1.2,23,0.75,0,36,36,22,1,,,,,,,,,,,,,,,,,,,,,,,,,,,,,,,,,,,,,,,,
,,,,,V3_056,21,Male,2024-11-07_17h19.18.912,jersey_experiment_5_v3,2023.2.2,Win32,84.74576271,,,,,,,,,,,,,,,,488.3923,489.9452,489.9452,491.2391,return,0.4059,,34.765625,,,,,,FBP-RB-71.png,0.37,1.2,47,0.75,0,37,37,46,1,,,,,,,,,,,,,,,,,,,,,,,,,,,,,,,,,,,,,,,,
,,,,,V3_056,21,Male,2024-11-07_17h19.18.912,jersey_experiment_5_v3,2023.2.2,Win32,84.74576271,,,,,,,,,,,,,,,,491.2393,492.7921,492.7922,496.9101,return,2.9188,,32.29166667,,,,,,FBP-RB-81.png,0.35,1.2,51,0.75,0,38,38,50,1,,,,,,,,,,,,,,,,,,,,,,,,,,,,,,,,,,,,,,,,
,,,,,V3_056,21,Male,2024-11-07_17h19.18.912,jersey_experiment_5_v3,2023.2.2,Win32,84.74576271,,,,,,,,,,,,,,,,496.9103,498.463,498.463,499.6747,return,0.24,,50.13020833,,,,,,FBP-RB-91.png,0.4,1.2,58,0.75,0,39,39,57,1,,,,,,,,,,,,,,,,,,,,,,,,,,,,,,,,,,,,,,,,
,,,,,V3_056,21,Male,2024-11-07_17h19.18.912,jersey_experiment_5_v3,2023.2.2,Win32,84.74576271,,,,,,,,,,,,,,,,499.6748,500.9689,500.969,502.1689,return,0.2046,,81.51041667,,,,,,FBP-OG-81.png,0.45,1.2,40,0.5,0,40,40,39,1,,,,,,,,,,,,,,,,,,,,,,,,,,,,,,,,,,,,,,,,
,,,,,V3_056,21,Male,2024-11-07_17h19.18.912,jersey_experiment_5_v3,2023.2.2,Win32,84.74576271,,,,,,,,,,,,,,,,502.169,503.7222,503.7222,506.075,return,0.2012,,68.75,,,,,,FBP-YG-19.png,0.4,1.2,13,0.75,0,41,41,12,1,,,,,,,,,,,,,,,,,,,,,,,,,,,,,,,,,,,,,,,,
,,,,,V3_056,21,Male,2024-11-07_17h19.18.912,jersey_experiment_5_v3,2023.2.2,Win32,84.74576271,,,,,,,,,,,,,,,,506.0753,507.628,507.628,509.2163,return,0.2352,,39.71354167,,,,,,FBP-RB-81.png,0.37,1.2,52,0.75,0,42,42,51,1,,,,,,,,,,,,,,,,,,,,,,,,,,,,,,,,,,,,,,,,
,,,,,V3_056,21,Male,2024-11-07_17h19.18.912,jersey_experiment_5_v3,2023.2.2,Win32,84.74576271,,,,,,,,,,,,,,,,509.2166,510.7694,510.7695,512.0281,return,0.2016,,82.94270833,,,,,,FBP-PT-71.png,0.45,1.2,20,0.75,0,43,43,19,1,,,,,,,,,,,,,,,,,,,,,,,,,,,,,,,,,,,,,,,,
,,,,,V3_056,21,Male,2024-11-07_17h19.18.912,jersey_experiment_5_v3,2023.2.2,Win32,84.74576271,,,,,,,,,,,,,,,,512.0284,513.5812,513.5812,514.2988,return,0.1425,,82.8125,,,,,,FBP-YG-17.png,0.43,1.2,4,0.75,0,44,44,3,1,,,,,,,,,,,,,,,,,,,,,,,,,,,,,,,,,,,,,,,,
,,,,,V3_056,21,Male,2024-11-07_17h19.18.912,jersey_experiment_5_v3,2023.2.2,Win32,84.74576271,,,,,,,,,,,,,,,,514.2991,515.8518,515.8519,516.6166,return,0.1356,,84.50520833,,,,,,FBP-YG-19.png,0.45,1.2,15,0.75,0,45,45,14,1,,,,,,,,,,,,,,,,,,,,,,,,,,,,,,,,,,,,,,,,
,,,,,V3_056,21,Male,2024-11-07_17h19.18.912,jersey_experiment_5_v3,2023.2.2,Win32,84.74576271,,,,,,,,,,,,,,,,516.6168,518.1695,518.1695,519.499,return,0.1808,,80.59895833,,,,,,FBP-RB-91.png,0.43,1.2,59,0.75,0,46,46,58,1,,,,,,,,,,,,,,,,,,,,,,,,,,,,,,,,,,,,,,,,
,,,,,V3_056,21,Male,2024-11-07_17h19.18.912,jersey_experiment_5_v3,2023.2.2,Win32,84.74576271,,,,,,,,,,,,,,,,519.4992,520.7932,520.7933,522.9226,return,0.863,,64.97395833,,,,,,FBP-OG-81.png,0.43,1.2,39,0.5,0,47,47,38,1,,,,,,,,,,,,,,,,,,,,,,,,,,,,,,,,,,,,,,,,
,,,,,V3_056,21,Male,2024-11-07_17h19.18.912,jersey_experiment_5_v3,2023.2.2,Win32,84.74576271,,,,,,,,,,,,,,,,522.9229,524.4756,524.4756,525.711,return,0.1879,,74.47916667,,,,,,FBP-PT-81.png,0.43,1.2,24,0.75,0,48,48,23,1,,,,,,,,,,,,,,,,,,,,,,,,,,,,,,,,,,,,,,,,
,,,,,V3_056,21,Male,2024-11-07_17h19.18.912,jersey_experiment_5_v3,2023.2.2,Win32,84.74576271,,,,,,,,,,,,,,,,525.7112,527.0051,527.0051,528.6522,return,0.2118,,50.390625,,,,,,FBP-OG-91.png,0.4,1.2,43,0.5,0,49,49,42,1,,,,,,,,,,,,,,,,,,,,,,,,,,,,,,,,,,,,,,,,
,,,,,V3_056,21,Male,2024-11-07_17h19.18.912,jersey_experiment_5_v3,2023.2.2,Win32,84.74576271,,,,,,,,,,,,,,,,528.6524,530.2052,530.2053,532.4289,return,0.8496,,24.86979167,,,,,,FBP-RB-71.png,0.35,1.2,46,0.75,0,50,50,45,1,,,,,,,,,,,,,,,,,,,,,,,,,,,,,,,,,,,,,,,,
,,,,,V3_056,21,Male,2024-11-07_17h19.18.912,jersey_experiment_5_v3,2023.2.2,Win32,84.74576271,,,,,,,,,,,,,,,,532.4291,533.9818,533.9819,535.5349,return,0.1997,,82.8125,,,,,,FBP-RB-91.png,0.45,1.2,60,0.75,0,51,51,59,1,,,,,,,,,,,,,,,,,,,,,,,,,,,,,,,,,,,,,,,,
,,,,,V3_056,21,Male,2024-11-07_17h19.18.912,jersey_experiment_5_v3,2023.2.2,Win32,84.74576271,,,,,,,,,,,,,,,,535.5351,537.0878,537.0879,537.9468,return,0.1433,,82.55208333,,,,,,FBP-PT-81.png,0.45,1.2,25,0.75,0,52,52,24,1,,,,,,,,,,,,,,,,,,,,,,,,,,,,,,,,,,,,,,,,
,,,,,V3_056,21,Male,2024-11-07_17h19.18.912,jersey_experiment_5_v3,2023.2.2,Win32,84.74576271,,,,,,,,,,,,,,,,537.9471,539.4998,539.4999,540.5939,return,0.2825,,34.50520833,,,,,,FBP-YG-19.png,0.35,1.2,11,0.75,0,53,53,10,1,,,,,,,,,,,,,,,,,,,,,,,,,,,,,,,,,,,,,,,,
,,,,,V3_056,21,Male,2024-11-07_17h19.18.912,jersey_experiment_5_v3,2023.2.2,Win32,84.74576271,,,,,,,,,,,,,,,,540.5943,542.1471,542.1471,543.0528,return,0.1789,,84.63541667,,,,,,FBP-RB-81.png,0.45,1.2,55,0.75,0,54,54,54,1,,,,,,,,,,,,,,,,,,,,,,,,,,,,,,,,,,,,,,,,
,,,,,V3_056,21,Male,2024-11-07_17h19.18.912,jersey_experiment_5_v3,2023.2.2,Win32,84.74576271,,,,,,,,,,,,,,,,543.0531,544.347,544.3471,546.4295,return,0.1901,,24.34895833,,,,,,FBP-OG-81.png,0.35,1.2,36,0.5,0,55,55,35,1,,,,,,,,,,,,,,,,,,,,,,,,,,,,,,,,,,,,,,,,
,,,,,V3_056,21,Male,2024-11-07_17h19.18.912,jersey_experiment_5_v3,2023.2.2,Win32,84.74576271,,,,,,,,,,,,,,,,546.4298,547.9825,547.9825,549.7237,return,0.5684,,87.890625,,,,,,FBP-RB-81.png,0.43,1.2,54,0.75,0,56,56,53,1,,,,,,,,,,,,,,,,,,,,,,,,,,,,,,,,,,,,,,,,
,,,,,V3_056,21,Male,2024-11-07_17h19.18.912,jersey_experiment_5_v3,2023.2.2,Win32,84.74576271,,,,,,,,,,,,,,,,549.7239,551.0179,551.018,552.2649,return,0.2291,,14.97395833,,,,,,FBP-OG-91.png,0.37,1.2,42,0.5,0,57,57,41,1,,,,,,,,,,,,,,,,,,,,,,,,,,,,,,,,,,,,,,,,
,,,,,V3_056,21,Male,2024-11-07_17h19.18.912,jersey_experiment_5_v3,2023.2.2,Win32,84.74576271,,,,,,,,,,,,,,,,552.2651,553.5593,553.5593,554.8768,return,0.0734,,82.16145833,,,,,,FBP-OG-91.png,0.45,1.2,45,0.5,0,58,58,44,1,,,,,,,,,,,,,,,,,,,,,,,,,,,,,,,,,,,,,,,,
,,,,,V3_056,21,Male,2024-11-07_17h19.18.912,jersey_experiment_5_v3,2023.2.2,Win32,84.74576271,,,,,,,,,,,,,,,,554.8771,556.1712,556.1712,557.6416,return,0.2529,,21.875,,,,,,FBP-OG-81.png,0.37,1.2,37,0.5,0,59,59,36,1,,,,,,,,,,,,,,,,,,,,,,,,,,,,,,,,,,,,,,,,
,,,,,V3_056,21,Male,2024-11-07_17h19.18.912,jersey_experiment_5_v3,2023.2.2,Win32,84.74576271,,,,,,,,,,,,,,,,,,,,,,,,,,,,,,,,,,,,,,,557.6418,677.6344,,,,,,,,,,,,,,,,,,,,,,,,,,,,,,,,,,,,,,
,,,,,V3_056,21,Male,2024-11-07_17h19.18.912,jersey_experiment_5_v3,2023.2.2,Win32,84.74576271,,,,,,,,,,,,,,,,,,,,,,,,,,,,,,,,,,,,,,,,,677.6345,688.8936,return,11.2478,,,,,,,,,,,,,,,,,,,,,,,,,,,,,,,,,,
,,,,,V3_056,21,Male,2024-11-07_17h19.18.912,jersey_experiment_5_v3,2023.2.2,Win32,84.74576271,,,,,,,,,,,,,,,,688.8949,690.4466,690.4466,697.1998,return,3.0492,,50.26041667,,,,,,FBP-OG-17.png,0.45,1.2,35,0.75,,,,,,,,,,,,,0,0,0,34,1,,,,,,,,,,,,,,,,,,,,,,,,,,,,
,,,,,V3_056,21,Male,2024-11-07_17h19.18.912,jersey_experiment_5_v3,2023.2.2,Win32,84.74576271,,,,,,,,,,,,,,,,697.2002,698.4939,698.494,700.1881,return,0.3544,,51.43229167,,,,,,FBP-PT-17.png,0.4,1.2,18,0.5,,,,,,,,,,,,,0,1,1,17,1,,,,,,,,,,,,,,,,,,,,,,,,,,,,
,,,,,V3_056,21,Male,2024-11-07_17h19.18.912,jersey_experiment_5_v3,2023.2.2,Win32,84.74576271,,,,,,,,,,,,,,,,700.1885,701.4823,701.4824,702.2469,return,0.2989,,50.91145833,,,,,,FBP-PT-18.png,0.37,1.2,22,0.5,,,,,,,,,,,,,0,2,2,21,1,,,,,,,,,,,,,,,,,,,,,,,,,,,,
,,,,,V3_056,21,Male,2024-11-07_17h19.18.912,jersey_experiment_5_v3,2023.2.2,Win32,84.74576271,,,,,,,,,,,,,,,,702.2471,703.5412,703.5412,705,return,0.2292,,74.08854167,,,,,,FBP-RB-18.png,0.43,1.2,54,0.5,,,,,,,,,,,,,0,3,3,53,1,,,,,,,,,,,,,,,,,,,,,,,,,,,,
,,,,,V3_056,21,Male,2024-11-07_17h19.18.912,jersey_experiment_5_v3,2023.2.2,Win32,84.74576271,,,,,,,,,,,,,,,,705.0003,706.553,706.553,707.106,return,0.2027,,74.08854167,,,,,,FBP-OG-18.png,0.43,1.2,39,0.75,,,,,,,,,,,,,0,4,4,38,1,,,,,,,,,,,,,,,,,,,,,,,,,,,,
,,,,,V3_056,21,Male,2024-11-07_17h19.18.912,jersey_experiment_5_v3,2023.2.2,Win32,84.74576271,,,,,,,,,,,,,,,,707.1063,708.6591,708.6591,711.6002,return,1.6373,,57.55208333,,,,,,FBP-OG-19.png,0.4,1.2,43,0.75,,,,,,,,,,,,,0,5,5,42,1,,,,,,,,,,,,,,,,,,,,,,,,,,,,
,,,,,V3_056,21,Male,2024-11-07_17h19.18.912,jersey_experiment_5_v3,2023.2.2,Win32,84.74576271,,,,,,,,,,,,,,,,711.6004,712.8943,712.8944,714.1768,return,0.1885,,82.55208333,,,,,,FBP-YG-91.png,0.43,1.2,14,0.5,,,,,,,,,,,,,0,6,6,13,1,,,,,,,,,,,,,,,,,,,,,,,,,,,,
,,,,,V3_056,21,Male,2024-11-07_17h19.18.912,jersey_experiment_5_v3,2023.2.2,Win32,84.74576271,,,,,,,,,,,,,,,,714.1771,715.4711,715.4712,717.1651,return,0.2457,,31.38020833,,,,,,FBP-RB-17.png,0.37,1.2,47,0.5,,,,,,,,,,,,,0,7,7,46,1,,,,,,,,,,,,,,,,,,,,,,,,,,,,
,,,,,V3_056,21,Male,2024-11-07_17h19.18.912,jersey_experiment_5_v3,2023.2.2,Win32,84.74576271,,,,,,,,,,,,,,,,717.1653,718.4594,718.4595,721.0831,return,0.1905,,50,,,,,,FBP-RB-19.png,0.4,1.2,58,0.5,,,,,,,,,,,,,0,8,8,57,1,,,,,,,,,,,,,,,,,,,,,,,,,,,,
,,,,,V3_056,21,Male,2024-11-07_17h19.18.912,jersey_experiment_5_v3,2023.2.2,Win32,84.74576271,,,,,,,,,,,,,,,,721.0833,722.3771,722.3772,723.6008,return,0.2121,,84.24479167,,,,,,FBP-PT-18.png,0.45,1.2,25,0.5,,,,,,,,,,,,,0,9,9,24,1,,,,,,,,,,,,,,,,,,,,,,,,,,,,
,,,,,V3_056,21,Male,2024-11-07_17h19.18.912,jersey_experiment_5_v3,2023.2.2,Win32,84.74576271,,,,,,,,,,,,,,,,723.601,724.895,724.895,727.4243,return,1.1765,,65.75520833,,,,,,FBP-YG-71.png,0.4,1.2,3,0.5,,,,,,,,,,,,,0,10,10,2,1,,,,,,,,,,,,,,,,,,,,,,,,,,,,
,,,,,V3_056,21,Male,2024-11-07_17h19.18.912,jersey_experiment_5_v3,2023.2.2,Win32,84.74576271,,,,,,,,,,,,,,,,727.4246,728.7185,728.7186,730.5893,return,0.7781,,21.61458333,,,,,,FBP-RB-17.png,0.35,1.2,46,0.5,,,,,,,,,,,,,0,11,11,45,1,,,,,,,,,,,,,,,,,,,,,,,,,,,,
,,,,,V3_056,21,Male,2024-11-07_17h19.18.912,jersey_experiment_5_v3,2023.2.2,Win32,84.74576271,,,,,,,,,,,,,,,,730.5895,731.8834,731.8834,733.4953,return,0.3611,,83.85416667,,,,,,FBP-RB-19.png,0.43,1.2,59,0.5,,,,,,,,,,,,,0,12,12,58,1,,,,,,,,,,,,,,,,,,,,,,,,,,,,
,,,,,V3_056,21,Male,2024-11-07_17h19.18.912,jersey_experiment_5_v3,2023.2.2,Win32,84.74576271,,,,,,,,,,,,,,,,733.4955,734.7894,734.7894,736.8483,return,0.6348,,37.36979167,,,,,,FBP-YG-71.png,0.37,1.2,2,0.5,,,,,,,,,,,,,0,13,13,1,1,,,,,,,,,,,,,,,,,,,,,,,,,,,,
,,,,,V3_056,21,Male,2024-11-07_17h19.18.912,jersey_experiment_5_v3,2023.2.2,Win32,84.74576271,,,,,,,,,,,,,,,,736.8485,738.1425,738.1425,739.966,return,0.9763,,68.22916667,,,,,,FBP-YG-71.png,0.43,1.2,4,0.5,,,,,,,,,,,,,0,14,14,3,1,,,,,,,,,,,,,,,,,,,,,,,,,,,,
,,,,,V3_056,21,Male,2024-11-07_17h19.18.912,jersey_experiment_5_v3,2023.2.2,Win32,84.74576271,,,,,,,,,,,,,,,,739.9662,741.2603,741.2603,742.5426,return,0.202,,11.06770833,,,,,,FBP-RB-19.png,0.35,1.2,56,0.5,,,,,,,,,,,,,0,15,15,55,1,,,,,,,,,,,,,,,,,,,,,,,,,,,,
,,,,,V3_056,21,Male,2024-11-07_17h19.18.912,jersey_experiment_5_v3,2023.2.2,Win32,84.74576271,,,,,,,,,,,,,,,,742.5428,743.8368,743.8369,745.4368,return,0.5567,,11.58854167,,,,,,FBP-YG-91.png,0.35,1.2,11,0.5,,,,,,,,,,,,,0,16,16,10,1,,,,,,,,,,,,,,,,,,,,,,,,,,,,
,,,,,V3_056,21,Male,2024-11-07_17h19.18.912,jersey_experiment_5_v3,2023.2.2,Win32,84.74576271,,,,,,,,,,,,,,,,745.4371,746.7309,746.731,753.2137,return,4.8576,,64.19270833,,,,,,FBP-PT-17.png,0.43,1.2,19,0.5,,,,,,,,,,,,,0,17,17,18,1,,,,,,,,,,,,,,,,,,,,,,,,,,,,
,,,,,V3_056,21,Male,2024-11-07_17h19.18.912,jersey_experiment_5_v3,2023.2.2,Win32,84.74576271,,,,,,,,,,,,,,,,753.2139,754.5079,754.5079,756.8138,return,0.2368,,37.76041667,,,,,,FBP-YG-91.png,0.37,1.2,12,0.5,,,,,,,,,,,,,0,18,18,11,1,,,,,,,,,,,,,,,,,,,,,,,,,,,,
,,,,,V3_056,21,Male,2024-11-07_17h19.18.912,jersey_experiment_5_v3,2023.2.2,Win32,84.74576271,,,,,,,,,,,,,,,,756.814,758.1079,758.1079,759.2961,return,0.248,,75.13020833,,,,,,FBP-RB-17.png,0.4,1.2,48,0.5,,,,,,,,,,,,,0,19,19,47,1,,,,,,,,,,,,,,,,,,,,,,,,,,,,
,,,,,V3_056,21,Male,2024-11-07_17h19.18.912,jersey_experiment_5_v3,2023.2.2,Win32,84.74576271,,,,,,,,,,,,,,,,759.2964,760.8492,760.8493,762.2021,return,0.3681,,75.65104167,,,,,,FBP-OG-17.png,0.4,1.2,33,0.75,,,,,,,,,,,,,0,20,20,32,1,,,,,,,,,,,,,,,,,,,,,,,,,,,,
,,,,,V3_056,21,Male,2024-11-07_17h19.18.912,jersey_experiment_5_v3,2023.2.2,Win32,84.74576271,,,,,,,,,,,,,,,,762.2024,763.7436,763.7436,764.9081,return,0.2384,,37.36979167,,,,,,FBP-OG-18.png,0.37,1.2,37,0.75,,,,,,,,,,,,,0,21,21,36,1,,,,,,,,,,,,,,,,,,,,,,,,,,,,
,,,,,V3_056,21,Male,2024-11-07_17h19.18.912,jersey_experiment_5_v3,2023.2.2,Win32,84.74576271,,,,,,,,,,,,,,,,764.9084,766.4613,766.4613,767.2259,return,0.1817,,84.89583333,,,,,,FBP-OG-19.png,0.45,1.2,45,0.75,,,,,,,,,,,,,0,22,22,44,1,,,,,,,,,,,,,,,,,,,,,,,,,,,,
,,,,,V3_056,21,Male,2024-11-07_17h19.18.912,jersey_experiment_5_v3,2023.2.2,Win32,84.74576271,,,,,,,,,,,,,,,,767.2261,768.5201,768.5202,770.626,return,0.8795,,25.52083333,,,,,,FBP-RB-18.png,0.37,1.2,52,0.5,,,,,,,,,,,,,0,23,23,51,1,,,,,,,,,,,,,,,,,,,,,,,,,,,,
,,,,,V3_056,21,Male,2024-11-07_17h19.18.912,jersey_experiment_5_v3,2023.2.2,Win32,84.74576271,,,,,,,,,,,,,,,,770.6264,772.1791,772.1792,773.0967,return,0.2048,,22.65625,,,,,,FBP-OG-18.png,0.35,1.2,36,0.75,,,,,,,,,,,,,0,24,24,35,1,,,,,,,,,,,,,,,,,,,,,,,,,,,,
,,,,,V3_056,21,Male,2024-11-07_17h19.18.912,jersey_experiment_5_v3,2023.2.2,Win32,84.74576271,,,,,,,,,,,,,,,,773.097,774.6496,774.6497,776.2733,return,0.1883,,49.73958333,,,,,,FBP-OG-19.png,0.37,1.2,42,0.75,,,,,,,,,,,,,0,25,25,41,1,,,,,,,,,,,,,,,,,,,,,,,,,,,,
,,,,,V3_056,21,Male,2024-11-07_17h19.18.912,jersey_experiment_5_v3,2023.2.2,Win32,84.74576271,,,,,,,,,,,,,,,,776.2737,777.5675,777.5675,779.4969,return,0.9342,,87.36979167,,,,,,FBP-RB-17.png,0.45,1.2,50,0.5,,,,,,,,,,,,,0,26,26,49,1,,,,,,,,,,,,,,,,,,,,,,,,,,,,
,,,,,V3_056,21,Male,2024-11-07_17h19.18.912,jersey_experiment_5_v3,2023.2.2,Win32,84.74576271,,,,,,,,,,,,,,,,779.497,780.7914,780.7914,782.2384,return,0.1784,,49.47916667,,,,,,FBP-RB-19.png,0.37,1.2,57,0.5,,,,,,,,,,,,,0,27,27,56,1,,,,,,,,,,,,,,,,,,,,,,,,,,,,
,,,,,V3_056,21,Male,2024-11-07_17h19.18.912,jersey_experiment_5_v3,2023.2.2,Win32,84.74576271,,,,,,,,,,,,,,,,782.2387,783.5324,783.5324,784.5207,return,0.2303,,83.33333333,,,,,,FBP-PT-17.png,0.45,1.2,20,0.5,,,,,,,,,,,,,0,28,28,19,1,,,,,,,,,,,,,,,,,,,,,,,,,,,,
,,,,,V3_056,21,Male,2024-11-07_17h19.18.912,jersey_experiment_5_v3,2023.2.2,Win32,84.74576271,,,,,,,,,,,,,,,,784.5208,785.8149,785.815,787.2148,return,0.2121,,14.19270833,,,,,,FBP-PT-17.png,0.35,1.2,16,0.5,,,,,,,,,,,,,0,29,29,15,1,,,,,,,,,,,,,,,,,,,,,,,,,,,,
,,,,,V3_056,21,Male,2024-11-07_17h19.18.912,jersey_experiment_5_v3,2023.2.2,Win32,84.74576271,,,,,,,,,,,,,,,,787.2151,788.509,788.509,789.9914,return,0.1721,,40.36458333,,,,,,FBP-PT-19.png,0.37,1.2,27,0.5,,,,,,,,,,,,,0,30,30,26,1,,,,,,,,,,,,,,,,,,,,,,,,,,,,
,,,,,V3_056,21,Male,2024-11-07_17h19.18.912,jersey_experiment_5_v3,2023.2.2,Win32,84.74576271,,,,,,,,,,,,,,,,789.9918,791.2857,791.2857,792.3445,return,0.1476,,61.06770833,,,,,,FBP-YG-91.png,0.4,1.2,13,0.5,,,,,,,,,,,,,0,31,31,12,1,,,,,,,,,,,,,,,,,,,,,,,,,,,,
,,,,,V3_056,21,Male,2024-11-07_17h19.18.912,jersey_experiment_5_v3,2023.2.2,Win32,84.74576271,,,,,,,,,,,,,,,,792.3447,793.8975,793.8975,794.7799,return,0.0959,,61.06770833,,,,,,FBP-OG-18.png,0.4,1.2,38,0.75,,,,,,,,,,,,,0,32,32,37,1,,,,,,,,,,,,,,,,,,,,,,,,,,,,
,,,,,V3_056,21,Male,2024-11-07_17h19.18.912,jersey_experiment_5_v3,2023.2.2,Win32,84.74576271,,,,,,,,,,,,,,,,794.7803,796.3329,796.3329,796.9564,return,0.1072,,61.58854167,,,,,,FBP-OG-19.png,0.43,1.2,44,0.75,,,,,,,,,,,,,0,33,33,43,1,,,,,,,,,,,,,,,,,,,,,,,,,,,,
,,,,,V3_056,21,Male,2024-11-07_17h19.18.912,jersey_experiment_5_v3,2023.2.2,Win32,84.74576271,,,,,,,,,,,,,,,,796.9567,798.5096,798.5096,799.4389,return,0.1789,,25.390625,,,,,,FBP-OG-17.png,0.35,1.2,31,0.75,,,,,,,,,,,,,0,34,34,30,1,,,,,,,,,,,,,,,,,,,,,,,,,,,,
,,,,,V3_056,21,Male,2024-11-07_17h19.18.912,jersey_experiment_5_v3,2023.2.2,Win32,84.74576271,,,,,,,,,,,,,,,,799.4392,800.7331,800.7331,801.8861,return,0.1791,,83.203125,,,,,,FBP-YG-81.png,0.45,1.2,10,0.5,,,,,,,,,,,,,0,35,35,9,1,,,,,,,,,,,,,,,,,,,,,,,,,,,,
,,,,,V3_056,21,Male,2024-11-07_17h19.18.912,jersey_experiment_5_v3,2023.2.2,Win32,84.74576271,,,,,,,,,,,,,,,,801.8863,803.1802,803.1803,804.6508,return,0.1793,,49.73958333,,,,,,FBP-PT-18.png,0.4,1.2,23,0.5,,,,,,,,,,,,,0,36,36,22,1,,,,,,,,,,,,,,,,,,,,,,,,,,,,
,,,,,V3_056,21,Male,2024-11-07_17h19.18.912,jersey_experiment_5_v3,2023.2.2,Win32,84.74576271,,,,,,,,,,,,,,,,804.6512,805.945,805.945,807.2743,return,0.1427,,84.63541667,,,,,,FBP-RB-18.png,0.4,1.2,53,0.5,,,,,,,,,,,,,0,37,37,52,1,,,,,,,,,,,,,,,,,,,,,,,,,,,,
,,,,,V3_056,21,Male,2024-11-07_17h19.18.912,jersey_experiment_5_v3,2023.2.2,Win32,84.74576271,,,,,,,,,,,,,,,,807.2746,808.5686,808.5687,809.9451,return,0.2046,,23.17708333,,,,,,FBP-RB-18.png,0.35,1.2,51,0.5,,,,,,,,,,,,,0,38,38,50,1,,,,,,,,,,,,,,,,,,,,,,,,,,,,
,,,,,V3_056,21,Male,2024-11-07_17h19.18.912,jersey_experiment_5_v3,2023.2.2,Win32,84.74576271,,,,,,,,,,,,,,,,809.9453,811.2393,811.2393,812.3335,return,0.1885,,84.375,,,,,,FBP-PT-19.png,0.43,1.2,29,0.5,,,,,,,,,,,,,0,39,39,28,1,,,,,,,,,,,,,,,,,,,,,,,,,,,,
,,,,,V3_056,21,Male,2024-11-07_17h19.18.912,jersey_experiment_5_v3,2023.2.2,Win32,84.74576271,,,,,,,,,,,,,,,,812.3338,813.6278,813.6278,814.7453,return,0.2044,,28.515625,,,,,,FBP-YG-81.png,0.37,1.2,7,0.5,,,,,,,,,,,,,0,40,40,6,1,,,,,,,,,,,,,,,,,,,,,,,,,,,,
,,,,,V3_056,21,Male,2024-11-07_17h19.18.912,jersey_experiment_5_v3,2023.2.2,Win32,84.74576271,,,,,,,,,,,,,,,,814.7456,816.0397,816.0397,821.4162,return,3.9349,,60.02604167,,,,,,FBP-PT-19.png,0.4,1.2,28,0.5,,,,,,,,,,,,,0,41,41,27,1,,,,,,,,,,,,,,,,,,,,,,,,,,,,
,,,,,V3_056,21,Male,2024-11-07_17h19.18.912,jersey_experiment_5_v3,2023.2.2,Win32,84.74576271,,,,,,,,,,,,,,,,821.4164,822.7103,822.7103,823.8986,return,0.193,,75.26041667,,,,,,FBP-YG-81.png,0.43,1.2,9,0.5,,,,,,,,,,,,,0,42,42,8,1,,,,,,,,,,,,,,,,,,,,,,,,,,,,
,,,,,V3_056,21,Male,2024-11-07_17h19.18.912,jersey_experiment_5_v3,2023.2.2,Win32,84.74576271,,,,,,,,,,,,,,,,823.8987,825.1929,825.1929,826.4869,return,0.1966,,25,,,,,,FBP-PT-19.png,0.35,1.2,26,0.5,,,,,,,,,,,,,0,43,43,25,1,,,,,,,,,,,,,,,,,,,,,,,,,,,,
,,,,,V3_056,21,Male,2024-11-07_17h19.18.912,jersey_experiment_5_v3,2023.2.2,Win32,84.74576271,,,,,,,,,,,,,,,,826.4871,828.0282,828.0283,829.4164,return,0.2169,,75.13020833,,,,,,FBP-OG-17.png,0.43,1.2,34,0.75,,,,,,,,,,,,,0,44,44,33,1,,,,,,,,,,,,,,,,,,,,,,,,,,,,
,,,,,V3_056,21,Male,2024-11-07_17h19.18.912,jersey_experiment_5_v3,2023.2.2,Win32,84.74576271,,,,,,,,,,,,,,,,829.4167,830.7106,830.7107,831.6753,return,0.2124,,83.984375,,,,,,FBP-YG-91.png,0.45,1.2,15,0.5,,,,,,,,,,,,,0,45,45,14,1,,,,,,,,,,,,,,,,,,,,,,,,,,,,
,,,,,V3_056,21,Male,2024-11-07_17h19.18.912,jersey_experiment_5_v3,2023.2.2,Win32,84.74576271,,,,,,,,,,,,,,,,831.6755,832.9695,832.9696,833.5931,return,0.1338,,87.109375,,,,,,FBP-YG-71.png,0.45,1.2,5,0.5,,,,,,,,,,,,,0,46,46,4,1,,,,,,,,,,,,,,,,,,,,,,,,,,,,
,,,,,V3_056,21,Male,2024-11-07_17h19.18.912,jersey_experiment_5_v3,2023.2.2,Win32,84.74576271,,,,,,,,,,,,,,,,833.5934,835.1461,835.1462,836.1698,return,0.1819,,17.44791667,,,,,,FBP-OG-19.png,0.35,1.2,41,0.75,,,,,,,,,,,,,0,47,47,40,1,,,,,,,,,,,,,,,,,,,,,,,,,,,,
,,,,,V3_056,21,Male,2024-11-07_17h19.18.912,jersey_experiment_5_v3,2023.2.2,Win32,84.74576271,,,,,,,,,,,,,,,,836.17,837.4638,837.4638,838.5697,return,0.1664,,50,,,,,,FBP-YG-81.png,0.4,1.2,8,0.5,,,,,,,,,,,,,0,48,48,7,1,,,,,,,,,,,,,,,,,,,,,,,,,,,,
,,,,,V3_056,21,Male,2024-11-07_17h19.18.912,jersey_experiment_5_v3,2023.2.2,Win32,84.74576271,,,,,,,,,,,,,,,,838.57,839.8639,839.864,841.8406,return,1.0503,,81.11979167,,,,,,FBP-RB-18.png,0.45,1.2,55,0.5,,,,,,,,,,,,,0,49,49,54,1,,,,,,,,,,,,,,,,,,,,,,,,,,,,
,,,,,V3_056,21,Male,2024-11-07_17h19.18.912,jersey_experiment_5_v3,2023.2.2,Win32,84.74576271,,,,,,,,,,,,,,,,841.8409,843.1347,843.1347,844.2052,return,0.1297,,79.55729167,,,,,,FBP-RB-19.png,0.45,1.2,60,0.5,,,,,,,,,,,,,0,50,50,59,1,,,,,,,,,,,,,,,,,,,,,,,,,,,,
,,,,,V3_056,21,Male,2024-11-07_17h19.18.912,jersey_experiment_5_v3,2023.2.2,Win32,84.74576271,,,,,,,,,,,,,,,,844.2055,845.4994,845.4994,846.1347,return,0.1261,,80.59895833,,,,,,FBP-PT-19.png,0.45,1.2,30,0.5,,,,,,,,,,,,,0,51,51,29,1,,,,,,,,,,,,,,,,,,,,,,,,,,,,
,,,,,V3_056,21,Male,2024-11-07_17h19.18.912,jersey_experiment_5_v3,2023.2.2,Win32,84.74576271,,,,,,,,,,,,,,,,846.135,847.4289,847.429,848.0641,return,0.1496,,80.72916667,,,,,,FBP-PT-18.png,0.43,1.2,24,0.5,,,,,,,,,,,,,0,52,52,23,1,,,,,,,,,,,,,,,,,,,,,,,,,,,,
,,,,,V3_056,21,Male,2024-11-07_17h19.18.912,jersey_experiment_5_v3,2023.2.2,Win32,84.74576271,,,,,,,,,,,,,,,,848.0643,849.3584,849.3584,850.6642,return,0.207,,61.19791667,,,,,,FBP-RB-17.png,0.43,1.2,49,0.5,,,,,,,,,,,,,0,53,53,48,1,,,,,,,,,,,,,,,,,,,,,,,,,,,,
,,,,,V3_056,21,Male,2024-11-07_17h19.18.912,jersey_experiment_5_v3,2023.2.2,Win32,84.74576271,,,,,,,,,,,,,,,,850.6645,852.2172,852.2172,854.335,return,0.1785,,50.26041667,,,,,,FBP-OG-17.png,0.37,1.2,32,0.75,,,,,,,,,,,,,0,54,54,31,1,,,,,,,,,,,,,,,,,,,,,,,,,,,,
,,,,,V3_056,21,Male,2024-11-07_17h19.18.912,jersey_experiment_5_v3,2023.2.2,Win32,84.74576271,,,,,,,,,,,,,,,,854.3351,855.6292,855.6292,856.5117,return,0.1885,,36.06770833,,,,,,FBP-PT-18.png,0.35,1.2,21,0.5,,,,,,,,,,,,,0,55,55,20,1,,,,,,,,,,,,,,,,,,,,,,,,,,,,
,,,,,V3_056,21,Male,2024-11-07_17h19.18.912,jersey_experiment_5_v3,2023.2.2,Win32,84.74576271,,,,,,,,,,,,,,,,856.5119,858.0647,858.0648,859.3117,return,0.1416,,58.46354167,,,,,,FBP-OG-18.png,0.45,1.2,40,0.75,,,,,,,,,,,,,0,56,56,39,1,,,,,,,,,,,,,,,,,,,,,,,,,,,,
,,,,,V3_056,21,Male,2024-11-07_17h19.18.912,jersey_experiment_5_v3,2023.2.2,Win32,84.74576271,,,,,,,,,,,,,,,,859.312,860.6057,860.6057,861.9942,return,0.1461,,25.52083333,,,,,,FBP-YG-81.png,0.35,1.2,6,0.5,,,,,,,,,,,,,0,57,57,5,1,,,,,,,,,,,,,,,,,,,,,,,,,,,,
,,,,,V3_056,21,Male,2024-11-07_17h19.18.912,jersey_experiment_5_v3,2023.2.2,Win32,84.74576271,,,,,,,,,,,,,,,,861.9944,863.2882,863.2883,864.7472,return,0.2009,,36.328125,,,,,,FBP-YG-71.png,0.35,1.2,1,0.5,,,,,,,,,,,,,0,58,58,0,1,,,,,,,,,,,,,,,,,,,,,,,,,,,,
,,,,,V3_056,21,Male,2024-11-07_17h19.18.912,jersey_experiment_5_v3,2023.2.2,Win32,84.74576271,,,,,,,,,,,,,,,,864.7475,866.0414,866.0414,867.7591,return,0.1649,,51.69270833,,,,,,FBP-PT-17.png,0.37,1.2,17,0.5,,,,,,,,,,,,,0,59,59,16,1,,,,,,,,,,,,,,,,,,,,,,,,,,,,
,,,,,V3_056,21,Male,2024-11-07_17h19.18.912,jersey_experiment_5_v3,2023.2.2,Win32,84.74576271,,,,,,,,,,,,,,,,867.7606,869.0532,869.0532,870.2179,return,0.0977,,81.11979167,,,,,,FBP-RB-91.png,0.45,1.2,60,0.5,,,,,,,,,,,,,,,,,,0,0,0,59,1,,,,,,,,,,,,,,,,,,,,,,,
,,,,,V3_056,21,Male,2024-11-07_17h19.18.912,jersey_experiment_5_v3,2023.2.2,Win32,84.74576271,,,,,,,,,,,,,,,,870.2182,871.771,871.771,873.6652,return,1.0355,,63.02083333,,,,,,FBP-OG-71.png,0.4,1.2,33,0.75,,,,,,,,,,,,,,,,,,0,1,1,32,1,,,,,,,,,,,,,,,,,,,,,,,
,,,,,V3_056,21,Male,2024-11-07_17h19.18.912,jersey_experiment_5_v3,2023.2.2,Win32,84.74576271,,,,,,,,,,,,,,,,873.6655,874.9594,874.9594,876.0418,return,0.2176,,78.77604167,,,,,,FBP-PT-81.png,0.45,1.2,25,0.5,,,,,,,,,,,,,,,,,,0,2,2,24,1,,,,,,,,,,,,,,,,,,,,,,,
,,,,,V3_056,21,Male,2024-11-07_17h19.18.912,jersey_experiment_5_v3,2023.2.2,Win32,84.74576271,,,,,,,,,,,,,,,,876.042,877.5948,877.5948,878.4771,return,0.1551,,85.9375,,,,,,FBP-OG-81.png,0.45,1.2,40,0.75,,,,,,,,,,,,,,,,,,0,3,3,39,1,,,,,,,,,,,,,,,,,,,,,,,
,,,,,V3_056,21,Male,2024-11-07_17h19.18.912,jersey_experiment_5_v3,2023.2.2,Win32,84.74576271,,,,,,,,,,,,,,,,878.4775,879.7715,879.7715,881.842,return,0.2272,,47.91666667,,,,,,FBP-YG-17.png,0.35,1.2,1,0.5,,,,,,,,,,,,,,,,,,0,4,4,0,1,,,,,,,,,,,,,,,,,,,,,,,
,,,,,V3_056,21,Male,2024-11-07_17h19.18.912,jersey_experiment_5_v3,2023.2.2,Win32,84.74576271,,,,,,,,,,,,,,,,881.8422,883.1363,883.1363,885.5009,return,1.5318,,45.44270833,,,,,,FBP-RB-91.png,0.35,1.2,56,0.5,,,,,,,,,,,,,,,,,,0,5,5,55,1,,,,,,,,,,,,,,,,,,,,,,,
,,,,,V3_056,21,Male,2024-11-07_17h19.18.912,jersey_experiment_5_v3,2023.2.2,Win32,84.74576271,,,,,,,,,,,,,,,,885.5011,886.7952,886.7953,888.0656,return,0.2199,,78.38541667,,,,,,FBP-YG-19.png,0.45,1.2,15,0.5,,,,,,,,,,,,,,,,,,0,6,6,14,1,,,,,,,,,,,,,,,,,,,,,,,
,,,,,V3_056,21,Male,2024-11-07_17h19.18.912,jersey_experiment_5_v3,2023.2.2,Win32,84.74576271,,,,,,,,,,,,,,,,888.066,889.3602,889.3602,890.6894,return,0.8732,,49.73958333,,,,,,FBP-PT-91.png,0.37,1.2,27,0.5,,,,,,,,,,,,,,,,,,0,7,7,26,1,,,,,,,,,,,,,,,,,,,,,,,
,,,,,V3_056,21,Male,2024-11-07_17h19.18.912,jersey_experiment_5_v3,2023.2.2,Win32,84.74576271,,,,,,,,,,,,,,,,890.6897,891.9837,891.9837,893.1131,return,0.2297,,51.30208333,,,,,,FBP-PT-81.png,0.37,1.2,22,0.5,,,,,,,,,,,,,,,,,,0,8,8,21,1,,,,,,,,,,,,,,,,,,,,,,,
,,,,,V3_056,21,Male,2024-11-07_17h19.18.912,jersey_experiment_5_v3,2023.2.2,Win32,84.74576271,,,,,,,,,,,,,,,,893.1133,894.4071,894.4072,896.0073,return,0.5947,,82.16145833,,,,,,FBP-PT-91.png,0.45,1.2,30,0.5,,,,,,,,,,,,,,,,,,0,9,9,29,1,,,,,,,,,,,,,,,,,,,,,,,
,,,,,V3_056,21,Male,2024-11-07_17h19.18.912,jersey_experiment_5_v3,2023.2.2,Win32,84.74576271,,,,,,,,,,,,,,,,896.0075,897.3013,897.3014,898.6191,return,0.2042,,85.02604167,,,,,,FBP-RB-81.png,0.45,1.2,55,0.5,,,,,,,,,,,,,,,,,,0,10,10,54,1,,,,,,,,,,,,,,,,,,,,,,,
,,,,,V3_056,21,Male,2024-11-07_17h19.18.912,jersey_experiment_5_v3,2023.2.2,Win32,84.74576271,,,,,,,,,,,,,,,,898.6193,899.9132,899.9133,900.9839,return,0.1721,,80.98958333,,,,,,FBP-PT-71.png,0.43,1.2,19,0.5,,,,,,,,,,,,,,,,,,0,11,11,18,1,,,,,,,,,,,,,,,,,,,,,,,
,,,,,V3_056,21,Male,2024-11-07_17h19.18.912,jersey_experiment_5_v3,2023.2.2,Win32,84.74576271,,,,,,,,,,,,,,,,900.9842,902.278,902.2781,903.4074,return,0.1888,,83.33333333,,,,,,FBP-PT-91.png,0.4,1.2,28,0.5,,,,,,,,,,,,,,,,,,0,12,12,27,1,,,,,,,,,,,,,,,,,,,,,,,
,,,,,V3_056,21,Male,2024-11-07_17h19.18.912,jersey_experiment_5_v3,2023.2.2,Win32,84.74576271,,,,,,,,,,,,,,,,903.4078,904.7016,904.7017,906.9723,return,0.2497,,63.93229167,,,,,,FBP-RB-81.png,0.4,1.2,53,0.5,,,,,,,,,,,,,,,,,,0,13,13,52,1,,,,,,,,,,,,,,,,,,,,,,,
,,,,,V3_056,21,Male,2024-11-07_17h19.18.912,jersey_experiment_5_v3,2023.2.2,Win32,84.74576271,,,,,,,,,,,,,,,,906.9726,908.2664,908.2665,909.243,return,0.2003,,87.23958333,,,,,,FBP-YG-17.png,0.45,1.2,5,0.5,,,,,,,,,,,,,,,,,,0,14,14,4,1,,,,,,,,,,,,,,,,,,,,,,,
,,,,,V3_056,21,Male,2024-11-07_17h19.18.912,jersey_experiment_5_v3,2023.2.2,Win32,84.74576271,,,,,,,,,,,,,,,,909.2432,910.5371,910.5371,911.7841,return,0.2657,,50.13020833,,,,,,FBP-YG-19.png,0.37,1.2,12,0.5,,,,,,,,,,,,,,,,,,0,15,15,11,1,,,,,,,,,,,,,,,,,,,,,,,
,,,,,V3_056,21,Male,2024-11-07_17h19.18.912,jersey_experiment_5_v3,2023.2.2,Win32,84.74576271,,,,,,,,,,,,,,,,911.7845,913.3372,913.3372,913.8903,return,0.1886,,50,,,,,,FBP-OG-91.png,0.4,1.2,43,0.75,,,,,,,,,,,,,,,,,,0,16,16,42,1,,,,,,,,,,,,,,,,,,,,,,,
,,,,,V3_056,21,Male,2024-11-07_17h19.18.912,jersey_experiment_5_v3,2023.2.2,Win32,84.74576271,,,,,,,,,,,,,,,,913.8905,915.1845,915.1845,916.2668,return,0.1569,,50,,,,,,FBP-PT-71.png,0.4,1.2,18,0.5,,,,,,,,,,,,,,,,,,0,17,17,17,1,,,,,,,,,,,,,,,,,,,,,,,
,,,,,V3_056,21,Male,2024-11-07_17h19.18.912,jersey_experiment_5_v3,2023.2.2,Win32,84.74576271,,,,,,,,,,,,,,,,916.2671,917.561,917.561,918.2551,return,0.1523,,50,,,,,,FBP-YG-18.png,0.37,1.2,7,0.5,,,,,,,,,,,,,,,,,,0,18,18,6,1,,,,,,,,,,,,,,,,,,,,,,,
,,,,,V3_056,21,Male,2024-11-07_17h19.18.912,jersey_experiment_5_v3,2023.2.2,Win32,84.74576271,,,,,,,,,,,,,,,,918.2553,919.8082,919.8082,922.6081,return,2.118,,75.390625,,,,,,FBP-OG-81.png,0.43,1.2,39,0.75,,,,,,,,,,,,,,,,,,0,19,19,38,1,,,,,,,,,,,,,,,,,,,,,,,
,,,,,V3_056,21,Male,2024-11-07_17h19.18.912,jersey_experiment_5_v3,2023.2.2,Win32,84.74576271,,,,,,,,,,,,,,,,922.6083,923.9022,923.9023,924.973,return,0.202,,83.984375,,,,,,FBP-YG-18.png,0.45,1.2,10,0.5,,,,,,,,,,,,,,,,,,0,20,20,9,1,,,,,,,,,,,,,,,,,,,,,,,
,,,,,V3_056,21,Male,2024-11-07_17h19.18.912,jersey_experiment_5_v3,2023.2.2,Win32,84.74576271,,,,,,,,,,,,,,,,924.9733,926.2671,926.2672,927.5613,return,0.253,,50.26041667,,,,,,FBP-RB-81.png,0.37,1.2,52,0.5,,,,,,,,,,,,,,,,,,0,21,21,51,1,,,,,,,,,,,,,,,,,,,,,,,
,,,,,V3_056,21,Male,2024-11-07_17h19.18.912,jersey_experiment_5_v3,2023.2.2,Win32,84.74576271,,,,,,,,,,,,,,,,927.5615,928.8553,928.8554,930.0437,return,0.296,,61.97916667,,,,,,FBP-RB-81.png,0.43,1.2,54,0.5,,,,,,,,,,,,,,,,,,0,22,22,53,1,,,,,,,,,,,,,,,,,,,,,,,
,,,,,V3_056,21,Male,2024-11-07_17h19.18.912,jersey_experiment_5_v3,2023.2.2,Win32,84.74576271,,,,,,,,,,,,,,,,930.044,931.5966,931.5967,932.5379,return,0.2404,,50.52083333,,,,,,FBP-OG-81.png,0.37,1.2,37,0.75,,,,,,,,,,,,,,,,,,0,23,23,36,1,,,,,,,,,,,,,,,,,,,,,,,
,,,,,V3_056,21,Male,2024-11-07_17h19.18.912,jersey_experiment_5_v3,2023.2.2,Win32,84.74576271,,,,,,,,,,,,,,,,932.5381,934.0911,934.0912,934.9616,return,0.1881,,64.0625,,,,,,FBP-OG-81.png,0.4,1.2,38,0.75,,,,,,,,,,,,,,,,,,0,24,24,37,1,,,,,,,,,,,,,,,,,,,,,,,
,,,,,V3_056,21,Male,2024-11-07_17h19.18.912,jersey_experiment_5_v3,2023.2.2,Win32,84.74576271,,,,,,,,,,,,,,,,934.9618,936.2557,936.2557,937.8086,return,0.165,,35.28645833,,,,,,FBP-PT-71.png,0.35,1.2,16,0.5,,,,,,,,,,,,,,,,,,0,25,25,15,1,,,,,,,,,,,,,,,,,,,,,,,
,,,,,V3_056,21,Male,2024-11-07_17h19.18.912,jersey_experiment_5_v3,2023.2.2,Win32,84.74576271,,,,,,,,,,,,,,,,937.8088,939.103,939.103,941.5264,return,1.3485,,66.66666667,,,,,,FBP-RB-71.png,0.43,1.2,49,0.5,,,,,,,,,,,,,,,,,,0,26,26,48,1,,,,,,,,,,,,,,,,,,,,,,,
,,,,,V3_056,21,Male,2024-11-07_17h19.18.912,jersey_experiment_5_v3,2023.2.2,Win32,84.74576271,,,,,,,,,,,,,,,,941.5269,943.0797,943.0798,944.2325,return,0.6286,,70.703125,,,,,,FBP-OG-91.png,0.45,1.2,45,0.75,,,,,,,,,,,,,,,,,,0,27,27,44,1,,,,,,,,,,,,,,,,,,,,,,,
,,,,,V3_056,21,Male,2024-11-07_17h19.18.912,jersey_experiment_5_v3,2023.2.2,Win32,84.74576271,,,,,,,,,,,,,,,,944.2328,945.5266,945.5267,946.8327,return,0.1874,,39.0625,,,,,,FBP-PT-81.png,0.35,1.2,21,0.5,,,,,,,,,,,,,,,,,,0,28,28,20,1,,,,,,,,,,,,,,,,,,,,,,,
,,,,,V3_056,21,Male,2024-11-07_17h19.18.912,jersey_experiment_5_v3,2023.2.2,Win32,84.74576271,,,,,,,,,,,,,,,,946.8329,948.1268,948.1269,949.1856,return,0.2105,,49.73958333,,,,,,FBP-YG-18.png,0.4,1.2,8,0.5,,,,,,,,,,,,,,,,,,0,29,29,7,1,,,,,,,,,,,,,,,,,,,,,,,
,,,,,V3_056,21,Male,2024-11-07_17h19.18.912,jersey_experiment_5_v3,2023.2.2,Win32,84.74576271,,,,,,,,,,,,,,,,949.1857,950.4798,950.4798,951.5975,return,0.143,,63.93229167,,,,,,FBP-YG-17.png,0.4,1.2,3,0.5,,,,,,,,,,,,,,,,,,0,30,30,2,1,,,,,,,,,,,,,,,,,,,,,,,
,,,,,V3_056,21,Male,2024-11-07_17h19.18.912,jersey_experiment_5_v3,2023.2.2,Win32,84.74576271,,,,,,,,,,,,,,,,951.5978,952.8916,952.8916,954.7623,return,0.1432,,61.71875,,,,,,FBP-YG-19.png,0.43,1.2,14,0.5,,,,,,,,,,,,,,,,,,0,31,31,13,1,,,,,,,,,,,,,,,,,,,,,,,
,,,,,V3_056,21,Male,2024-11-07_17h19.18.912,jersey_experiment_5_v3,2023.2.2,Win32,84.74576271,,,,,,,,,,,,,,,,954.7626,956.3153,956.3155,957.3506,return,0.1725,,63.28125,,,,,,FBP-OG-71.png,0.43,1.2,34,0.75,,,,,,,,,,,,,,,,,,0,32,32,33,1,,,,,,,,,,,,,,,,,,,,,,,
,,,,,V3_056,21,Male,2024-11-07_17h19.18.912,jersey_experiment_5_v3,2023.2.2,Win32,84.74576271,,,,,,,,,,,,,,,,957.3508,958.9038,958.9039,960.0567,return,0.583,,37.36979167,,,,,,FBP-OG-71.png,0.35,1.2,31,0.75,,,,,,,,,,,,,,,,,,0,33,33,30,1,,,,,,,,,,,,,,,,,,,,,,,
,,,,,V3_056,21,Male,2024-11-07_17h19.18.912,jersey_experiment_5_v3,2023.2.2,Win32,84.74576271,,,,,,,,,,,,,,,,960.057,961.351,961.351,962.9038,return,0.6623,,41.14583333,,,,,,FBP-RB-71.png,0.37,1.2,47,0.5,,,,,,,,,,,,,,,,,,0,34,34,46,1,,,,,,,,,,,,,,,,,,,,,,,
,,,,,V3_056,21,Male,2024-11-07_17h19.18.912,jersey_experiment_5_v3,2023.2.2,Win32,84.74576271,,,,,,,,,,,,,,,,962.904,964.1982,964.1982,965.2921,return,0.1913,,49.47916667,,,,,,FBP-YG-19.png,0.4,1.2,13,0.5,,,,,,,,,,,,,,,,,,0,35,35,12,1,,,,,,,,,,,,,,,,,,,,,,,
,,,,,V3_056,21,Male,2024-11-07_17h19.18.912,jersey_experiment_5_v3,2023.2.2,Win32,84.74576271,,,,,,,,,,,,,,,,965.2924,966.5862,966.5863,968.0098,return,0.166,,61.97916667,,,,,,FBP-PT-81.png,0.4,1.2,23,0.5,,,,,,,,,,,,,,,,,,0,36,36,22,1,,,,,,,,,,,,,,,,,,,,,,,
,,,,,V3_056,21,Male,2024-11-07_17h19.18.912,jersey_experiment_5_v3,2023.2.2,Win32,84.74576271,,,,,,,,,,,,,,,,968.0101,969.5629,969.5629,980.4103,return,6.6131,,50.13020833,,,,,,FBP-OG-91.png,0.35,1.2,41,0.75,,,,,,,,,,,,,,,,,,0,37,37,40,1,,,,,,,,,,,,,,,,,,,,,,,
,,,,,V3_056,21,Male,2024-11-07_17h19.18.912,jersey_experiment_5_v3,2023.2.2,Win32,84.74576271,,,,,,,,,,,,,,,,980.4106,981.7044,981.7044,983.7399,return,0.7321,,74.47916667,,,,,,FBP-YG-17.png,0.43,1.2,4,0.5,,,,,,,,,,,,,,,,,,0,38,38,3,1,,,,,,,,,,,,,,,,,,,,,,,
,,,,,V3_056,21,Male,2024-11-07_17h19.18.912,jersey_experiment_5_v3,2023.2.2,Win32,84.74576271,,,,,,,,,,,,,,,,983.7401,985.034,985.0341,987.0576,return,1.1146,,49.86979167,,,,,,FBP-PT-71.png,0.37,1.2,17,0.5,,,,,,,,,,,,,,,,,,0,39,39,16,1,,,,,,,,,,,,,,,,,,,,,,,
,,,,,V3_056,21,Male,2024-11-07_17h19.18.912,jersey_experiment_5_v3,2023.2.2,Win32,84.74576271,,,,,,,,,,,,,,,,987.0581,988.3518,988.3518,989.7049,return,0.1826,,74.609375,,,,,,FBP-RB-91.png,0.43,1.2,59,0.5,,,,,,,,,,,,,,,,,,0,40,40,58,1,,,,,,,,,,,,,,,,,,,,,,,
,,,,,V3_056,21,Male,2024-11-07_17h19.18.912,jersey_experiment_5_v3,2023.2.2,Win32,84.74576271,,,,,,,,,,,,,,,,989.705,990.9991,990.9991,992.5049,return,0.2636,,25,,,,,,FBP-YG-19.png,0.35,1.2,11,0.5,,,,,,,,,,,,,,,,,,0,41,41,10,1,,,,,,,,,,,,,,,,,,,,,,,
,,,,,V3_056,21,Male,2024-11-07_17h19.18.912,jersey_experiment_5_v3,2023.2.2,Win32,84.74576271,,,,,,,,,,,,,,,,992.5052,993.7993,993.7994,995.4579,return,0.6119,,35.28645833,,,,,,FBP-PT-91.png,0.35,1.2,26,0.5,,,,,,,,,,,,,,,,,,0,42,42,25,1,,,,,,,,,,,,,,,,,,,,,,,
,,,,,V3_056,21,Male,2024-11-07_17h19.18.912,jersey_experiment_5_v3,2023.2.2,Win32,84.74576271,,,,,,,,,,,,,,,,995.4582,996.7522,996.7523,998.4933,return,0.1544,,68.48958333,,,,,,FBP-YG-18.png,0.43,1.2,9,0.5,,,,,,,,,,,,,,,,,,0,43,43,8,1,,,,,,,,,,,,,,,,,,,,,,,
,,,,,V3_056,21,Male,2024-11-07_17h19.18.912,jersey_experiment_5_v3,2023.2.2,Win32,84.74576271,,,,,,,,,,,,,,,,998.4936,1000.0465,1000.0465,1001.1994,return,0.235,,38.41145833,,,,,,FBP-OG-71.png,0.37,1.2,32,0.75,,,,,,,,,,,,,,,,,,0,44,44,31,1,,,,,,,,,,,,,,,,,,,,,,,
,,,,,V3_056,21,Male,2024-11-07_17h19.18.912,jersey_experiment_5_v3,2023.2.2,Win32,84.74576271,,,,,,,,,,,,,,,,1001.1996,1002.4935,1002.4935,1004.0582,return,0.2519,,75.78125,,,,,,FBP-PT-81.png,0.43,1.2,24,0.5,,,,,,,,,,,,,,,,,,0,45,45,23,1,,,,,,,,,,,,,,,,,,,,,,,
,,,,,V3_056,21,Male,2024-11-07_17h19.18.912,jersey_experiment_5_v3,2023.2.2,Win32,84.74576271,,,,,,,,,,,,,,,,1004.0584,1005.3525,1005.3525,1006.3759,return,0.1948,,76.953125,,,,,,FBP-PT-71.png,0.45,1.2,20,0.5,,,,,,,,,,,,,,,,,,0,46,46,19,1,,,,,,,,,,,,,,,,,,,,,,,
,,,,,V3_056,21,Male,2024-11-07_17h19.18.912,jersey_experiment_5_v3,2023.2.2,Win32,84.74576271,,,,,,,,,,,,,,,,1006.3762,1007.6702,1007.6702,1008.329,return,0.1707,,80.72916667,,,,,,FBP-RB-71.png,0.45,1.2,50,0.5,,,,,,,,,,,,,,,,,,0,47,47,49,1,,,,,,,,,,,,,,,,,,,,,,,
,,,,,V3_056,21,Male,2024-11-07_17h19.18.912,jersey_experiment_5_v3,2023.2.2,Win32,84.74576271,,,,,,,,,,,,,,,,1008.3292,1009.6231,1009.6232,1010.3997,return,0.3767,,80.20833333,,,,,,FBP-PT-91.png,0.43,1.2,29,0.5,,,,,,,,,,,,,,,,,,0,48,48,28,1,,,,,,,,,,,,,,,,,,,,,,,
,,,,,V3_056,21,Male,2024-11-07_17h19.18.912,jersey_experiment_5_v3,2023.2.2,Win32,84.74576271,,,,,,,,,,,,,,,,1010.4,1011.6939,1011.694,1013.1174,return,0.2023,,36.97916667,,,,,,FBP-RB-71.png,0.35,1.2,46,0.5,,,,,,,,,,,,,,,,,,0,49,49,45,1,,,,,,,,,,,,,,,,,,,,,,,
,,,,,V3_056,21,Male,2024-11-07_17h19.18.912,jersey_experiment_5_v3,2023.2.2,Win32,84.74576271,,,,,,,,,,,,,,,,1013.1176,1014.4115,1014.4115,1015.6705,return,0.2911,,51.30208333,,,,,,FBP-RB-91.png,0.4,1.2,58,0.5,,,,,,,,,,,,,,,,,,0,50,50,57,1,,,,,,,,,,,,,,,,,,,,,,,
,,,,,V3_056,21,Male,2024-11-07_17h19.18.912,jersey_experiment_5_v3,2023.2.2,Win32,84.74576271,,,,,,,,,,,,,,,,1015.6708,1016.9647,1016.9647,1017.953,return,0.2119,,44.01041667,,,,,,FBP-RB-81.png,0.35,1.2,51,0.5,,,,,,,,,,,,,,,,,,0,51,51,50,1,,,,,,,,,,,,,,,,,,,,,,,
,,,,,V3_056,21,Male,2024-11-07_17h19.18.912,jersey_experiment_5_v3,2023.2.2,Win32,84.74576271,,,,,,,,,,,,,,,,1017.9532,1019.2469,1019.2469,1020.1883,return,0.3557,,39.32291667,,,,,,FBP-YG-18.png,0.35,1.2,6,0.5,,,,,,,,,,,,,,,,,,0,52,52,5,1,,,,,,,,,,,,,,,,,,,,,,,
,,,,,V3_056,21,Male,2024-11-07_17h19.18.912,jersey_experiment_5_v3,2023.2.2,Win32,84.74576271,,,,,,,,,,,,,,,,1020.1885,1021.7413,1021.7414,1023.0354,return,0.25,,76.82291667,,,,,,FBP-OG-91.png,0.43,1.2,44,0.75,,,,,,,,,,,,,,,,,,0,53,53,43,1,,,,,,,,,,,,,,,,,,,,,,,
,,,,,V3_056,21,Male,2024-11-07_17h19.18.912,jersey_experiment_5_v3,2023.2.2,Win32,84.74576271,,,,,,,,,,,,,,,,1023.0357,1024.5884,1024.5885,1026.765,return,1.2372,,50,,,,,,FBP-OG-91.png,0.37,1.2,42,0.75,,,,,,,,,,,,,,,,,,0,54,54,41,1,,,,,,,,,,,,,,,,,,,,,,,
,,,,,V3_056,21,Male,2024-11-07_17h19.18.912,jersey_experiment_5_v3,2023.2.2,Win32,84.74576271,,,,,,,,,,,,,,,,1026.7653,1028.0594,1028.0594,1029.2004,return,0.2354,,50.390625,,,,,,FBP-YG-17.png,0.37,1.2,2,0.5,,,,,,,,,,,,,,,,,,0,55,55,1,1,,,,,,,,,,,,,,,,,,,,,,,
,,,,,V3_056,21,Male,2024-11-07_17h19.18.912,jersey_experiment_5_v3,2023.2.2,Win32,84.74576271,,,,,,,,,,,,,,,,1029.2007,1030.4944,1030.4945,1031.4005,return,0.2301,,50.390625,,,,,,FBP-RB-91.png,0.37,1.2,57,0.5,,,,,,,,,,,,,,,,,,0,56,56,56,1,,,,,,,,,,,,,,,,,,,,,,,
,,,,,V3_056,21,Male,2024-11-07_17h19.18.912,jersey_experiment_5_v3,2023.2.2,Win32,84.74576271,,,,,,,,,,,,,,,,1031.4007,1032.9537,1032.9537,1033.6712,return,0.2669,,50.390625,,,,,,FBP-OG-81.png,0.35,1.2,36,0.75,,,,,,,,,,,,,,,,,,0,57,57,35,1,,,,,,,,,,,,,,,,,,,,,,,
,,,,,V3_056,21,Male,2024-11-07_17h19.18.912,jersey_experiment_5_v3,2023.2.2,Win32,84.74576271,,,,,,,,,,,,,,,,1033.6715,1034.9653,1034.9653,1036.0006,return,0.1734,,67.83854167,,,,,,FBP-RB-71.png,0.4,1.2,48,0.5,,,,,,,,,,,,,,,,,,0,58,58,47,1,,,,,,,,,,,,,,,,,,,,,,,
,,,,,V3_056,21,Male,2024-11-07_17h19.18.912,jersey_experiment_5_v3,2023.2.2,Win32,84.74576271,,,,,,,,,,,,,,,,1036.0009,1037.5538,1037.5538,1038.2831,return,0.1454,,86.328125,,,,,,FBP-OG-71.png,0.45,1.2,35,0.75,,,,,,,,,,,,,,,,,,0,59,59,34,1,,,,,,,,,,,,,,,,,,,,,,,
,,,,,V3_056,21,Male,2024-11-07_17h19.18.912,jersey_experiment_5_v3,2023.2.2,Win32,84.74576271,,,,,,,,,,,,,,,,,,,,,,,,,,,,,,,,,,,,,,,,,,,,,,,,,,,,,,,,1038.2831,1049.2129,return,10.92,,,,,,,,,,,,,,,,,,,
,,,,,V3_056,21,Male,2024-11-07_17h19.18.912,jersey_experiment_5_v3,2023.2.2,Win32,84.74576271,,,,,,,,,,,,,,,,,,,,,,,,,,,,,,,,,,,,,,,,,,,,,,,,,,,,,,,,,,,,,1049.2129,1068.0137,1,10.865,return,7.9215,,,,,,,,,,,,
,,,,,V3_056,21,Male,2024-11-07_17h19.18.912,jersey_experiment_5_v3,2023.2.2,Win32,84.74576271,,,,,,,,,,,,,,,,,,,,,,,,,,,,,,,,,,,,,,,,,,,,,,,,,,,,,,,,,,,,,,,,,,,,1068.0137,1143.9111,Maybe is about potential bias toward people in different race?,right,59.384,,,,,,
,,,,,V3_056,21,Male,2024-11-07_17h19.18.912,jersey_experiment_5_v3,2023.2.2,Win32,84.74576271,,,,,,,,,,,,,,,,,,,,,,,,,,,,,,,,,,,,,,,,,,,,,,,,,,,,,,,,,,,,,,,,,,,,,,,,,,1143.9111,1159.2759,return,15.3526,