requirements.started,requirements.stopped,key_resp_3.keys,key_resp_3.rt,key_resp_3.duration,Subject ID,Age,Gender,date,expName,psychopyVersion,OS,frameRate,instructions1.started,instructions1.stopped,key_resp.keys,key_resp.rt,key_resp.duration,example.started,example.stopped,enter_2.keys,enter_2.rt,enter_2.duration,instructions2.started,instructions2.stopped,enter_3.keys,enter_3.rt,enter_3.duration,image.started,image.stopped,slider_2.started,slider_2.stopped,next.keys,next.rt,next.duration,slider.response,trial_block_1.thisRepN,trial_block_1.thisTrialN,trial_block_1.thisN,trial_block_1.thisIndex,trial_block_1.ran,Path,Width,Height,Index,Duration,trial_block_2.thisRepN,trial_block_2.thisTrialN,trial_block_2.thisN,trial_block_2.thisIndex,trial_block_2.ran,rest_break.started,rest_break.stopped,end_break.started,end_break.stopped,key_resp_5.keys,key_resp_5.rt,key_resp_5.duration,trial_block_3.thisRepN,trial_block_3.thisTrialN,trial_block_3.thisN,trial_block_3.thisIndex,trial_block_3.ran,trial_block_4.thisRepN,trial_block_4.thisTrialN,trial_block_4.thisN,trial_block_4.thisIndex,trial_block_4.ran,questions_intro.started,questions_intro.stopped,enter_12.keys,enter_12.rt,enter_12.duration,question2.started,question2.stopped,question_doingbest.response,question_doingbest.rt,enter_15.keys,enter_15.rt,enter_15.duration,pattern.started,pattern.stopped,pattern_2.text,enter_17.keys,enter_17.rt,enter_17.duration,thankyou.started,thankyou.stopped,enter_14.keys,enter_14.rt,enter_14.duration
1E-04,8.7686,return,8.7646,,V3_040,21,Female,2024-10-28_17h01.19.351,jersey_experiment_5_v3,2023.2.2,Win32,85.47008547,,,,,,,,,,,,,,,,,,,,,,,,,,,,,,,,,,,,,,,,,,,,,,,,,,,,,,,,,,,,,,,,,,,,,,,,,,,,,,
,,,,,V3_040,21,Female,2024-10-28_17h01.19.351,jersey_experiment_5_v3,2023.2.2,Win32,85.47008547,8.7688,24.5311,return,15.7541,,,,,,,,,,,,,,,,,,,,,,,,,,,,,,,,,,,,,,,,,,,,,,,,,,,,,,,,,,,,,,,,,,,,,,,,,,
,,,,,V3_040,21,Female,2024-10-28_17h01.19.351,jersey_experiment_5_v3,2023.2.2,Win32,85.47008547,,,,,,24.5312,30.1159,return,5.5386,,,,,,,,,,,,,,,,,,,,,,,,,,,,,,,,,,,,,,,,,,,,,,,,,,,,,,,,,,,,,,,,,,,,,
,,,,,V3_040,21,Female,2024-10-28_17h01.19.351,jersey_experiment_5_v3,2023.2.2,Win32,85.47008547,,,,,,,,,,,30.116,51.6461,return,21.5189,,,,,,,,,,,,,,,,,,,,,,,,,,,,,,,,,,,,,,,,,,,,,,,,,,,,,,,,,,,,,,,,
,,,,,V3_040,21,Female,2024-10-28_17h01.19.351,jersey_experiment_5_v3,2023.2.2,Win32,85.47008547,,,,,,,,,,,,,,,,51.6488,52.9402,52.9402,64.0582,return,2.114,,63.54166667,0,0,0,37,1,FBP-OG-18.png,0.4,1.2,38,0.5,,,,,,,,,,,,,,,,,,,,,,,,,,,,,,,,,,,,,,,,,,,,,
,,,,,V3_040,21,Female,2024-10-28_17h01.19.351,jersey_experiment_5_v3,2023.2.2,Win32,85.47008547,,,,,,,,,,,,,,,,64.0585,65.6113,65.6113,70.635,return,2.1721,,50,0,1,1,17,1,FBP-PT-17.png,0.4,1.2,18,0.75,,,,,,,,,,,,,,,,,,,,,,,,,,,,,,,,,,,,,,,,,,,,,
,,,,,V3_040,21,Female,2024-10-28_17h01.19.351,jersey_experiment_5_v3,2023.2.2,Win32,85.47008547,,,,,,,,,,,,,,,,70.6353,72.1879,72.188,75.0234,return,1.7164,,49.86979167,0,2,2,50,1,FBP-RB-18.png,0.35,1.2,51,0.75,,,,,,,,,,,,,,,,,,,,,,,,,,,,,,,,,,,,,,,,,,,,,
,,,,,V3_040,21,Female,2024-10-28_17h01.19.351,jersey_experiment_5_v3,2023.2.2,Win32,85.47008547,,,,,,,,,,,,,,,,75.0236,76.3175,76.3176,80.1058,return,0.9945,,49.86979167,0,3,3,40,1,FBP-OG-19.png,0.35,1.2,41,0.5,,,,,,,,,,,,,,,,,,,,,,,,,,,,,,,,,,,,,,,,,,,,,
,,,,,V3_040,21,Female,2024-10-28_17h01.19.351,jersey_experiment_5_v3,2023.2.2,Win32,85.47008547,,,,,,,,,,,,,,,,80.106,81.4,81.4001,84.1647,return,0.9883,,75,0,4,4,38,1,FBP-OG-18.png,0.43,1.2,39,0.5,,,,,,,,,,,,,,,,,,,,,,,,,,,,,,,,,,,,,,,,,,,,,
,,,,,V3_040,21,Female,2024-10-28_17h01.19.351,jersey_experiment_5_v3,2023.2.2,Win32,85.47008547,,,,,,,,,,,,,,,,84.165,85.7178,85.7178,89.2356,return,0.6573,,74.609375,0,5,5,57,1,FBP-RB-19.png,0.4,1.2,58,0.75,,,,,,,,,,,,,,,,,,,,,,,,,,,,,,,,,,,,,,,,,,,,,
,,,,,V3_040,21,Female,2024-10-28_17h01.19.351,jersey_experiment_5_v3,2023.2.2,Win32,85.47008547,,,,,,,,,,,,,,,,89.2359,90.7884,90.7885,93.8829,return,1.2864,,62.890625,0,6,6,21,1,FBP-PT-18.png,0.37,1.2,22,0.75,,,,,,,,,,,,,,,,,,,,,,,,,,,,,,,,,,,,,,,,,,,,,
,,,,,V3_040,21,Female,2024-10-28_17h01.19.351,jersey_experiment_5_v3,2023.2.2,Win32,85.47008547,,,,,,,,,,,,,,,,93.8831,95.4358,95.4359,97.7065,return,1.3606,,61.58854167,0,7,7,56,1,FBP-RB-19.png,0.37,1.2,57,0.75,,,,,,,,,,,,,,,,,,,,,,,,,,,,,,,,,,,,,,,,,,,,,
,,,,,V3_040,21,Female,2024-10-28_17h01.19.351,jersey_experiment_5_v3,2023.2.2,Win32,85.47008547,,,,,,,,,,,,,,,,97.7068,99.0008,99.0008,103.0361,return,2.0768,,70.05208333,0,8,8,42,1,FBP-OG-19.png,0.4,1.2,43,0.5,,,,,,,,,,,,,,,,,,,,,,,,,,,,,,,,,,,,,,,,,,,,,
,,,,,V3_040,21,Female,2024-10-28_17h01.19.351,jersey_experiment_5_v3,2023.2.2,Win32,85.47008547,,,,,,,,,,,,,,,,103.0364,104.3303,104.3303,106.3776,return,0.6758,,86.58854167,0,9,9,39,1,FBP-OG-18.png,0.45,1.2,40,0.5,,,,,,,,,,,,,,,,,,,,,,,,,,,,,,,,,,,,,,,,,,,,,
,,,,,V3_040,21,Female,2024-10-28_17h01.19.351,jersey_experiment_5_v3,2023.2.2,Win32,85.47008547,,,,,,,,,,,,,,,,106.3778,107.9304,107.9304,109.5188,return,0.8252,,87.63020833,0,10,10,19,1,FBP-PT-17.png,0.45,1.2,20,0.75,,,,,,,,,,,,,,,,,,,,,,,,,,,,,,,,,,,,,,,,,,,,,
,,,,,V3_040,21,Female,2024-10-28_17h01.19.351,jersey_experiment_5_v3,2023.2.2,Win32,85.47008547,,,,,,,,,,,,,,,,109.519,111.0717,111.0718,112.707,return,0.6354,,86.45833333,0,11,11,49,1,FBP-RB-17.png,0.45,1.2,50,0.75,,,,,,,,,,,,,,,,,,,,,,,,,,,,,,,,,,,,,,,,,,,,,
,,,,,V3_040,21,Female,2024-10-28_17h01.19.351,jersey_experiment_5_v3,2023.2.2,Win32,85.47008547,,,,,,,,,,,,,,,,112.7073,114.26,114.2601,116.9544,return,1.7248,,82.16145833,0,12,12,23,1,FBP-PT-18.png,0.43,1.2,24,0.75,,,,,,,,,,,,,,,,,,,,,,,,,,,,,,,,,,,,,,,,,,,,,
,,,,,V3_040,21,Female,2024-10-28_17h01.19.351,jersey_experiment_5_v3,2023.2.2,Win32,85.47008547,,,,,,,,,,,,,,,,116.9545,118.5073,118.5073,120.4839,return,0.6978,,86.58854167,0,13,13,14,1,FBP-YG-91.png,0.45,1.2,15,0.75,,,,,,,,,,,,,,,,,,,,,,,,,,,,,,,,,,,,,,,,,,,,,
,,,,,V3_040,21,Female,2024-10-28_17h01.19.351,jersey_experiment_5_v3,2023.2.2,Win32,85.47008547,,,,,,,,,,,,,,,,120.484,122.0368,122.0369,124.3075,return,0.8944,,63.54166667,0,14,14,12,1,FBP-YG-91.png,0.4,1.2,13,0.75,,,,,,,,,,,,,,,,,,,,,,,,,,,,,,,,,,,,,,,,,,,,,
,,,,,V3_040,21,Female,2024-10-28_17h01.19.351,jersey_experiment_5_v3,2023.2.2,Win32,85.47008547,,,,,,,,,,,,,,,,124.3078,125.8605,125.8605,127.2959,return,0.7634,,63.54166667,0,15,15,7,1,FBP-YG-81.png,0.4,1.2,8,0.75,,,,,,,,,,,,,,,,,,,,,,,,,,,,,,,,,,,,,,,,,,,,,
,,,,,V3_040,21,Female,2024-10-28_17h01.19.351,jersey_experiment_5_v3,2023.2.2,Win32,85.47008547,,,,,,,,,,,,,,,,127.2961,128.59,128.59,131.1195,return,0.3995,,49.86979167,0,16,16,31,1,FBP-OG-17.png,0.37,1.2,32,0.5,,,,,,,,,,,,,,,,,,,,,,,,,,,,,,,,,,,,,,,,,,,,,
,,,,,V3_040,21,Female,2024-10-28_17h01.19.351,jersey_experiment_5_v3,2023.2.2,Win32,85.47008547,,,,,,,,,,,,,,,,131.1197,132.6724,132.6725,139.1551,return,4.009,,67.83854167,0,17,17,58,1,FBP-RB-19.png,0.43,1.2,59,0.75,,,,,,,,,,,,,,,,,,,,,,,,,,,,,,,,,,,,,,,,,,,,,
,,,,,V3_040,21,Female,2024-10-28_17h01.19.351,jersey_experiment_5_v3,2023.2.2,Win32,85.47008547,,,,,,,,,,,,,,,,139.1553,140.708,140.7082,142.1318,return,0.5154,,65.625,0,18,18,47,1,FBP-RB-17.png,0.4,1.2,48,0.75,,,,,,,,,,,,,,,,,,,,,,,,,,,,,,,,,,,,,,,,,,,,,
,,,,,V3_040,21,Female,2024-10-28_17h01.19.351,jersey_experiment_5_v3,2023.2.2,Win32,85.47008547,,,,,,,,,,,,,,,,142.1321,143.685,143.6851,144.8965,return,0.4333,,76.43229167,0,19,19,9,1,FBP-YG-81.png,0.45,1.2,10,0.75,,,,,,,,,,,,,,,,,,,,,,,,,,,,,,,,,,,,,,,,,,,,,
,,,,,V3_040,21,Female,2024-10-28_17h01.19.351,jersey_experiment_5_v3,2023.2.2,Win32,85.47008547,,,,,,,,,,,,,,,,144.8967,146.4496,146.4497,149.2497,return,1.0832,,35.28645833,0,20,20,25,1,FBP-PT-19.png,0.35,1.2,26,0.75,,,,,,,,,,,,,,,,,,,,,,,,,,,,,,,,,,,,,,,,,,,,,
,,,,,V3_040,21,Female,2024-10-28_17h01.19.351,jersey_experiment_5_v3,2023.2.2,Win32,85.47008547,,,,,,,,,,,,,,,,149.2499,150.8025,150.8025,152.9439,return,0.5282,,38.80208333,0,21,21,1,1,FBP-YG-71.png,0.37,1.2,2,0.75,,,,,,,,,,,,,,,,,,,,,,,,,,,,,,,,,,,,,,,,,,,,,
,,,,,V3_040,21,Female,2024-10-28_17h01.19.351,jersey_experiment_5_v3,2023.2.2,Win32,85.47008547,,,,,,,,,,,,,,,,152.9441,154.4968,154.4969,157.2264,return,0.4315,,29.03645833,0,22,22,0,1,FBP-YG-71.png,0.35,1.2,1,0.75,,,,,,,,,,,,,,,,,,,,,,,,,,,,,,,,,,,,,,,,,,,,,
,,,,,V3_040,21,Female,2024-10-28_17h01.19.351,jersey_experiment_5_v3,2023.2.2,Win32,85.47008547,,,,,,,,,,,,,,,,157.2265,158.5205,158.5205,160.7088,return,0.4241,,75.91145833,0,23,23,33,1,FBP-OG-17.png,0.43,1.2,34,0.5,,,,,,,,,,,,,,,,,,,,,,,,,,,,,,,,,,,,,,,,,,,,,
,,,,,V3_040,21,Female,2024-10-28_17h01.19.351,jersey_experiment_5_v3,2023.2.2,Win32,85.47008547,,,,,,,,,,,,,,,,160.7091,162.2618,162.2619,164.0736,return,0.8171,,86.97916667,0,24,24,24,1,FBP-PT-18.png,0.45,1.2,25,0.75,,,,,,,,,,,,,,,,,,,,,,,,,,,,,,,,,,,,,,,,,,,,,
,,,,,V3_040,21,Female,2024-10-28_17h01.19.351,jersey_experiment_5_v3,2023.2.2,Win32,85.47008547,,,,,,,,,,,,,,,,164.0739,165.6268,165.6268,167.4385,return,0.2253,,49.86979167,0,25,25,16,1,FBP-PT-17.png,0.37,1.2,17,0.75,,,,,,,,,,,,,,,,,,,,,,,,,,,,,,,,,,,,,,,,,,,,,
,,,,,V3_040,21,Female,2024-10-28_17h01.19.351,jersey_experiment_5_v3,2023.2.2,Win32,85.47008547,,,,,,,,,,,,,,,,167.4387,168.9914,168.9915,170.7563,return,0.3402,,43.22916667,0,26,26,11,1,FBP-YG-91.png,0.37,1.2,12,0.75,,,,,,,,,,,,,,,,,,,,,,,,,,,,,,,,,,,,,,,,,,,,,
,,,,,V3_040,21,Female,2024-10-28_17h01.19.351,jersey_experiment_5_v3,2023.2.2,Win32,85.47008547,,,,,,,,,,,,,,,,170.7566,172.3093,172.3093,174.4976,return,0.4476,,70.83333333,0,27,27,22,1,FBP-PT-18.png,0.4,1.2,23,0.75,,,,,,,,,,,,,,,,,,,,,,,,,,,,,,,,,,,,,,,,,,,,,
,,,,,V3_040,21,Female,2024-10-28_17h01.19.351,jersey_experiment_5_v3,2023.2.2,Win32,85.47008547,,,,,,,,,,,,,,,,174.4978,176.0388,176.0388,178.2507,return,0.406,,89.0625,0,28,28,18,1,FBP-PT-17.png,0.43,1.2,19,0.75,,,,,,,,,,,,,,,,,,,,,,,,,,,,,,,,,,,,,,,,,,,,,
,,,,,V3_040,21,Female,2024-10-28_17h01.19.351,jersey_experiment_5_v3,2023.2.2,Win32,85.47008547,,,,,,,,,,,,,,,,178.2511,179.8037,179.8037,182.5449,return,0.2131,,50.65104167,0,29,29,27,1,FBP-PT-19.png,0.4,1.2,28,0.75,,,,,,,,,,,,,,,,,,,,,,,,,,,,,,,,,,,,,,,,,,,,,
,,,,,V3_040,21,Female,2024-10-28_17h01.19.351,jersey_experiment_5_v3,2023.2.2,Win32,85.47008547,,,,,,,,,,,,,,,,182.5452,184.0979,184.0979,185.7803,return,0.2959,,28.38541667,0,30,30,55,1,FBP-RB-19.png,0.35,1.2,56,0.75,,,,,,,,,,,,,,,,,,,,,,,,,,,,,,,,,,,,,,,,,,,,,
,,,,,V3_040,21,Female,2024-10-28_17h01.19.351,jersey_experiment_5_v3,2023.2.2,Win32,85.47008547,,,,,,,,,,,,,,,,185.7806,187.3334,187.3334,191.0982,return,2.5138,,68.22916667,0,31,31,8,1,FBP-YG-81.png,0.43,1.2,9,0.75,,,,,,,,,,,,,,,,,,,,,,,,,,,,,,,,,,,,,,,,,,,,,
,,,,,V3_040,21,Female,2024-10-28_17h01.19.351,jersey_experiment_5_v3,2023.2.2,Win32,85.47008547,,,,,,,,,,,,,,,,191.0984,192.6514,192.6514,194.11,return,0.4023,,25,0,32,32,20,1,FBP-PT-18.png,0.35,1.2,21,0.75,,,,,,,,,,,,,,,,,,,,,,,,,,,,,,,,,,,,,,,,,,,,,
,,,,,V3_040,21,Female,2024-10-28_17h01.19.351,jersey_experiment_5_v3,2023.2.2,Win32,85.47008547,,,,,,,,,,,,,,,,194.1103,195.6633,195.6633,197.1455,return,0.3974,,63.54166667,0,33,33,53,1,FBP-RB-18.png,0.43,1.2,54,0.75,,,,,,,,,,,,,,,,,,,,,,,,,,,,,,,,,,,,,,,,,,,,,
,,,,,V3_040,21,Female,2024-10-28_17h01.19.351,jersey_experiment_5_v3,2023.2.2,Win32,85.47008547,,,,,,,,,,,,,,,,197.1458,198.6984,198.6985,200.2869,return,0.3665,,72.00520833,0,34,34,13,1,FBP-YG-91.png,0.43,1.2,14,0.75,,,,,,,,,,,,,,,,,,,,,,,,,,,,,,,,,,,,,,,,,,,,,
,,,,,V3_040,21,Female,2024-10-28_17h01.19.351,jersey_experiment_5_v3,2023.2.2,Win32,85.47008547,,,,,,,,,,,,,,,,200.2871,201.5809,201.581,203.0045,return,0.3706,,83.85416667,0,35,35,44,1,FBP-OG-19.png,0.45,1.2,45,0.5,,,,,,,,,,,,,,,,,,,,,,,,,,,,,,,,,,,,,,,,,,,,,
,,,,,V3_040,21,Female,2024-10-28_17h01.19.351,jersey_experiment_5_v3,2023.2.2,Win32,85.47008547,,,,,,,,,,,,,,,,203.0048,204.2987,204.2988,206.1223,return,0.3376,,14.58333333,0,36,36,30,1,FBP-OG-17.png,0.35,1.2,31,0.5,,,,,,,,,,,,,,,,,,,,,,,,,,,,,,,,,,,,,,,,,,,,,
,,,,,V3_040,21,Female,2024-10-28_17h01.19.351,jersey_experiment_5_v3,2023.2.2,Win32,85.47008547,,,,,,,,,,,,,,,,206.1225,207.4164,207.4164,209.3576,return,0.6045,,77.08333333,0,37,37,34,1,FBP-OG-17.png,0.45,1.2,35,0.5,,,,,,,,,,,,,,,,,,,,,,,,,,,,,,,,,,,,,,,,,,,,,
,,,,,V3_040,21,Female,2024-10-28_17h01.19.351,jersey_experiment_5_v3,2023.2.2,Win32,85.47008547,,,,,,,,,,,,,,,,209.3579,210.9107,210.9107,213.0284,return,0.2981,,38.41145833,0,38,38,10,1,FBP-YG-91.png,0.35,1.2,11,0.75,,,,,,,,,,,,,,,,,,,,,,,,,,,,,,,,,,,,,,,,,,,,,
,,,,,V3_040,21,Female,2024-10-28_17h01.19.351,jersey_experiment_5_v3,2023.2.2,Win32,85.47008547,,,,,,,,,,,,,,,,213.0287,214.3226,214.3226,215.452,return,0.2768,,38.41145833,0,39,39,41,1,FBP-OG-19.png,0.37,1.2,42,0.5,,,,,,,,,,,,,,,,,,,,,,,,,,,,,,,,,,,,,,,,,,,,,
,,,,,V3_040,21,Female,2024-10-28_17h01.19.351,jersey_experiment_5_v3,2023.2.2,Win32,85.47008547,,,,,,,,,,,,,,,,215.4522,217.0049,217.005,218.6287,return,0.2493,,60.28645833,0,40,40,52,1,FBP-RB-18.png,0.4,1.2,53,0.75,,,,,,,,,,,,,,,,,,,,,,,,,,,,,,,,,,,,,,,,,,,,,
,,,,,V3_040,21,Female,2024-10-28_17h01.19.351,jersey_experiment_5_v3,2023.2.2,Win32,85.47008547,,,,,,,,,,,,,,,,218.6289,220.1818,220.1819,221.5699,return,0.3689,,75.390625,0,41,41,28,1,FBP-PT-19.png,0.43,1.2,29,0.75,,,,,,,,,,,,,,,,,,,,,,,,,,,,,,,,,,,,,,,,,,,,,
,,,,,V3_040,21,Female,2024-10-28_17h01.19.351,jersey_experiment_5_v3,2023.2.2,Win32,85.47008547,,,,,,,,,,,,,,,,221.5702,223.1228,223.1229,225.6997,return,1.7414,,50,0,42,42,46,1,FBP-RB-17.png,0.37,1.2,47,0.75,,,,,,,,,,,,,,,,,,,,,,,,,,,,,,,,,,,,,,,,,,,,,
,,,,,V3_040,21,Female,2024-10-28_17h01.19.351,jersey_experiment_5_v3,2023.2.2,Win32,85.47008547,,,,,,,,,,,,,,,,225.7,227.2524,227.2524,229.3231,return,0.7835,,32.8125,0,43,43,45,1,FBP-RB-17.png,0.35,1.2,46,0.75,,,,,,,,,,,,,,,,,,,,,,,,,,,,,,,,,,,,,,,,,,,,,
,,,,,V3_040,21,Female,2024-10-28_17h01.19.351,jersey_experiment_5_v3,2023.2.2,Win32,85.47008547,,,,,,,,,,,,,,,,229.3234,230.876,230.876,232.3938,return,0.2555,,78.90625,0,44,44,54,1,FBP-RB-18.png,0.45,1.2,55,0.75,,,,,,,,,,,,,,,,,,,,,,,,,,,,,,,,,,,,,,,,,,,,,
,,,,,V3_040,21,Female,2024-10-28_17h01.19.351,jersey_experiment_5_v3,2023.2.2,Win32,85.47008547,,,,,,,,,,,,,,,,232.3941,233.688,233.688,236.1704,return,0.7136,,47.00520833,0,45,45,32,1,FBP-OG-17.png,0.4,1.2,33,0.5,,,,,,,,,,,,,,,,,,,,,,,,,,,,,,,,,,,,,,,,,,,,,
,,,,,V3_040,21,Female,2024-10-28_17h01.19.351,jersey_experiment_5_v3,2023.2.2,Win32,85.47008547,,,,,,,,,,,,,,,,236.1708,237.7233,237.7234,239.1353,return,0.3325,,35.02604167,0,46,46,15,1,FBP-PT-17.png,0.35,1.2,16,0.75,,,,,,,,,,,,,,,,,,,,,,,,,,,,,,,,,,,,,,,,,,,,,
,,,,,V3_040,21,Female,2024-10-28_17h01.19.351,jersey_experiment_5_v3,2023.2.2,Win32,85.47008547,,,,,,,,,,,,,,,,239.1356,240.6883,240.6883,242.559,return,0.2115,,84.765625,0,47,47,4,1,FBP-YG-71.png,0.45,1.2,5,0.75,,,,,,,,,,,,,,,,,,,,,,,,,,,,,,,,,,,,,,,,,,,,,
,,,,,V3_040,21,Female,2024-10-28_17h01.19.351,jersey_experiment_5_v3,2023.2.2,Win32,85.47008547,,,,,,,,,,,,,,,,242.5592,244.1119,244.1119,245.6296,return,0.734,,88.671875,0,48,48,59,1,FBP-RB-19.png,0.45,1.2,60,0.75,,,,,,,,,,,,,,,,,,,,,,,,,,,,,,,,,,,,,,,,,,,,,
,,,,,V3_040,21,Female,2024-10-28_17h01.19.351,jersey_experiment_5_v3,2023.2.2,Win32,85.47008547,,,,,,,,,,,,,,,,245.63,246.9237,246.9237,248.771,return,0.3296,,34.89583333,0,49,49,36,1,FBP-OG-18.png,0.37,1.2,37,0.5,,,,,,,,,,,,,,,,,,,,,,,,,,,,,,,,,,,,,,,,,,,,,
,,,,,V3_040,21,Female,2024-10-28_17h01.19.351,jersey_experiment_5_v3,2023.2.2,Win32,85.47008547,,,,,,,,,,,,,,,,248.7712,250.065,250.0651,251.9357,return,0.1906,,67.96875,0,50,50,43,1,FBP-OG-19.png,0.43,1.2,44,0.5,,,,,,,,,,,,,,,,,,,,,,,,,,,,,,,,,,,,,,,,,,,,,
,,,,,V3_040,21,Female,2024-10-28_17h01.19.351,jersey_experiment_5_v3,2023.2.2,Win32,85.47008547,,,,,,,,,,,,,,,,251.9361,253.4887,253.4888,254.4299,return,0.4146,,68.09895833,0,51,51,3,1,FBP-YG-71.png,0.43,1.2,4,0.75,,,,,,,,,,,,,,,,,,,,,,,,,,,,,,,,,,,,,,,,,,,,,
,,,,,V3_040,21,Female,2024-10-28_17h01.19.351,jersey_experiment_5_v3,2023.2.2,Win32,85.47008547,,,,,,,,,,,,,,,,254.4301,255.9829,255.9829,258.1008,return,0.3532,,41.14583333,0,52,52,26,1,FBP-PT-19.png,0.37,1.2,27,0.75,,,,,,,,,,,,,,,,,,,,,,,,,,,,,,,,,,,,,,,,,,,,,
,,,,,V3_040,21,Female,2024-10-28_17h01.19.351,jersey_experiment_5_v3,2023.2.2,Win32,85.47008547,,,,,,,,,,,,,,,,258.101,259.6536,259.6537,260.4419,return,0.4047,,41.14583333,0,53,53,6,1,FBP-YG-81.png,0.37,1.2,7,0.75,,,,,,,,,,,,,,,,,,,,,,,,,,,,,,,,,,,,,,,,,,,,,
,,,,,V3_040,21,Female,2024-10-28_17h01.19.351,jersey_experiment_5_v3,2023.2.2,Win32,85.47008547,,,,,,,,,,,,,,,,260.4423,261.995,261.995,263.2772,return,0.2873,,34.765625,0,54,54,5,1,FBP-YG-81.png,0.35,1.2,6,0.75,,,,,,,,,,,,,,,,,,,,,,,,,,,,,,,,,,,,,,,,,,,,,
,,,,,V3_040,21,Female,2024-10-28_17h01.19.351,jersey_experiment_5_v3,2023.2.2,Win32,85.47008547,,,,,,,,,,,,,,,,263.2776,264.8302,264.8302,268.0305,return,0.1922,,78.515625,0,55,55,29,1,FBP-PT-19.png,0.45,1.2,30,0.75,,,,,,,,,,,,,,,,,,,,,,,,,,,,,,,,,,,,,,,,,,,,,
,,,,,V3_040,21,Female,2024-10-28_17h01.19.351,jersey_experiment_5_v3,2023.2.2,Win32,85.47008547,,,,,,,,,,,,,,,,268.0308,269.5836,269.5836,271.7953,return,0.15,,50.13020833,0,56,56,2,1,FBP-YG-71.png,0.4,1.2,3,0.75,,,,,,,,,,,,,,,,,,,,,,,,,,,,,,,,,,,,,,,,,,,,,
,,,,,V3_040,21,Female,2024-10-28_17h01.19.351,jersey_experiment_5_v3,2023.2.2,Win32,85.47008547,,,,,,,,,,,,,,,,271.7957,273.3483,273.3483,274.207,return,0.3447,,50.13020833,0,57,57,51,1,FBP-RB-18.png,0.37,1.2,52,0.75,,,,,,,,,,,,,,,,,,,,,,,,,,,,,,,,,,,,,,,,,,,,,
,,,,,V3_040,21,Female,2024-10-28_17h01.19.351,jersey_experiment_5_v3,2023.2.2,Win32,85.47008547,,,,,,,,,,,,,,,,274.2072,275.7602,275.7603,277.2191,return,0.1644,,74.08854167,0,58,58,48,1,FBP-RB-17.png,0.43,1.2,49,0.75,,,,,,,,,,,,,,,,,,,,,,,,,,,,,,,,,,,,,,,,,,,,,
,,,,,V3_040,21,Female,2024-10-28_17h01.19.351,jersey_experiment_5_v3,2023.2.2,Win32,85.47008547,,,,,,,,,,,,,,,,277.2193,278.5132,278.5133,280.2662,return,0.3375,,37.76041667,0,59,59,35,1,FBP-OG-18.png,0.35,1.2,36,0.5,,,,,,,,,,,,,,,,,,,,,,,,,,,,,,,,,,,,,,,,,,,,,
,,,,,V3_040,21,Female,2024-10-28_17h01.19.351,jersey_experiment_5_v3,2023.2.2,Win32,85.47008547,,,,,,,,,,,,,,,,280.2683,281.8191,281.8192,282.7486,return,0.441,,38.02083333,,,,,,FBP-RB-91.png,0.35,1.2,56,0.75,0,0,0,55,1,,,,,,,,,,,,,,,,,,,,,,,,,,,,,,,,,,,,,,,,
,,,,,V3_040,21,Female,2024-10-28_17h01.19.351,jersey_experiment_5_v3,2023.2.2,Win32,85.47008547,,,,,,,,,,,,,,,,282.7489,284.3017,284.3018,288.4195,return,2.8389,,76.30208333,,,,,,FBP-YG-18.png,0.45,1.2,10,0.75,0,1,1,9,1,,,,,,,,,,,,,,,,,,,,,,,,,,,,,,,,,,,,,,,,
,,,,,V3_040,21,Female,2024-10-28_17h01.19.351,jersey_experiment_5_v3,2023.2.2,Win32,85.47008547,,,,,,,,,,,,,,,,288.4198,289.9725,289.9725,293.6314,return,2.45,,40.10416667,,,,,,FBP-PT-71.png,0.37,1.2,17,0.75,0,2,2,16,1,,,,,,,,,,,,,,,,,,,,,,,,,,,,,,,,,,,,,,,,
,,,,,V3_040,21,Female,2024-10-28_17h01.19.351,jersey_experiment_5_v3,2023.2.2,Win32,85.47008547,,,,,,,,,,,,,,,,293.6317,295.1843,295.1843,296.6198,return,0.2182,,29.55729167,,,,,,FBP-PT-71.png,0.35,1.2,16,0.75,0,3,3,15,1,,,,,,,,,,,,,,,,,,,,,,,,,,,,,,,,,,,,,,,,
,,,,,V3_040,21,Female,2024-10-28_17h01.19.351,jersey_experiment_5_v3,2023.2.2,Win32,85.47008547,,,,,,,,,,,,,,,,296.6202,297.9139,297.914,299.6433,return,0.146,,55.33854167,,,,,,FBP-OG-81.png,0.4,1.2,38,0.5,0,4,4,37,1,,,,,,,,,,,,,,,,,,,,,,,,,,,,,,,,,,,,,,,,
,,,,,V3_040,21,Female,2024-10-28_17h01.19.351,jersey_experiment_5_v3,2023.2.2,Win32,85.47008547,,,,,,,,,,,,,,,,299.6436,301.1848,301.1848,302.267,return,0.2745,,71.09375,,,,,,FBP-PT-91.png,0.4,1.2,28,0.75,0,5,5,27,1,,,,,,,,,,,,,,,,,,,,,,,,,,,,,,,,,,,,,,,,
,,,,,V3_040,21,Female,2024-10-28_17h01.19.351,jersey_experiment_5_v3,2023.2.2,Win32,85.47008547,,,,,,,,,,,,,,,,302.2673,303.82,303.8201,304.6083,return,0.2583,,76.5625,,,,,,FBP-PT-91.png,0.43,1.2,29,0.75,0,6,6,28,1,,,,,,,,,,,,,,,,,,,,,,,,,,,,,,,,,,,,,,,,
,,,,,V3_040,21,Female,2024-10-28_17h01.19.351,jersey_experiment_5_v3,2023.2.2,Win32,85.47008547,,,,,,,,,,,,,,,,304.6085,306.1611,306.1612,306.926,return,0.1923,,76.5625,,,,,,FBP-RB-71.png,0.43,1.2,49,0.75,0,7,7,48,1,,,,,,,,,,,,,,,,,,,,,,,,,,,,,,,,,,,,,,,,
,,,,,V3_040,21,Female,2024-10-28_17h01.19.351,jersey_experiment_5_v3,2023.2.2,Win32,85.47008547,,,,,,,,,,,,,,,,306.9263,308.2201,308.2202,309.0909,return,0.165,,76.5625,,,,,,FBP-OG-81.png,0.43,1.2,39,0.5,0,8,8,38,1,,,,,,,,,,,,,,,,,,,,,,,,,,,,,,,,,,,,,,,,
,,,,,V3_040,21,Female,2024-10-28_17h01.19.351,jersey_experiment_5_v3,2023.2.2,Win32,85.47008547,,,,,,,,,,,,,,,,309.0913,310.6438,310.6438,312.5144,return,0.1675,,48.95833333,,,,,,FBP-RB-81.png,0.35,1.2,51,0.75,0,9,9,50,1,,,,,,,,,,,,,,,,,,,,,,,,,,,,,,,,,,,,,,,,
,,,,,V3_040,21,Female,2024-10-28_17h01.19.351,jersey_experiment_5_v3,2023.2.2,Win32,85.47008547,,,,,,,,,,,,,,,,312.5146,314.0675,314.0676,314.7851,return,0.1657,,61.84895833,,,,,,FBP-RB-91.png,0.4,1.2,58,0.75,0,10,10,57,1,,,,,,,,,,,,,,,,,,,,,,,,,,,,,,,,,,,,,,,,
,,,,,V3_040,21,Female,2024-10-28_17h01.19.351,jersey_experiment_5_v3,2023.2.2,Win32,85.47008547,,,,,,,,,,,,,,,,314.7853,316.338,316.338,317.397,return,0.2229,,70.57291667,,,,,,FBP-PT-81.png,0.43,1.2,24,0.75,0,11,11,23,1,,,,,,,,,,,,,,,,,,,,,,,,,,,,,,,,,,,,,,,,
,,,,,V3_040,21,Female,2024-10-28_17h01.19.351,jersey_experiment_5_v3,2023.2.2,Win32,85.47008547,,,,,,,,,,,,,,,,317.3974,318.6911,318.6912,320.1736,return,0.1795,,35.28645833,,,,,,FBP-OG-91.png,0.35,1.2,41,0.5,0,12,12,40,1,,,,,,,,,,,,,,,,,,,,,,,,,,,,,,,,,,,,,,,,
,,,,,V3_040,21,Female,2024-10-28_17h01.19.351,jersey_experiment_5_v3,2023.2.2,Win32,85.47008547,,,,,,,,,,,,,,,,320.1739,321.7266,321.7267,323.1032,return,0.2278,,65.75520833,,,,,,FBP-YG-18.png,0.4,1.2,8,0.75,0,13,13,7,1,,,,,,,,,,,,,,,,,,,,,,,,,,,,,,,,,,,,,,,,
,,,,,V3_040,21,Female,2024-10-28_17h01.19.351,jersey_experiment_5_v3,2023.2.2,Win32,85.47008547,,,,,,,,,,,,,,,,323.1033,324.6563,324.6563,325.9856,return,0.2464,,50.390625,,,,,,FBP-RB-71.png,0.35,1.2,46,0.75,0,14,14,45,1,,,,,,,,,,,,,,,,,,,,,,,,,,,,,,,,,,,,,,,,
,,,,,V3_040,21,Female,2024-10-28_17h01.19.351,jersey_experiment_5_v3,2023.2.2,Win32,85.47008547,,,,,,,,,,,,,,,,325.9857,327.5385,327.5386,328.6209,return,0.1468,,44.79166667,,,,,,FBP-YG-17.png,0.35,1.2,1,0.75,0,15,15,0,1,,,,,,,,,,,,,,,,,,,,,,,,,,,,,,,,,,,,,,,,
,,,,,V3_040,21,Female,2024-10-28_17h01.19.351,jersey_experiment_5_v3,2023.2.2,Win32,85.47008547,,,,,,,,,,,,,,,,328.6212,330.1739,330.1739,331.5976,return,0.142,,74.609375,,,,,,FBP-RB-71.png,0.45,1.2,50,0.75,0,16,16,49,1,,,,,,,,,,,,,,,,,,,,,,,,,,,,,,,,,,,,,,,,
,,,,,V3_040,21,Female,2024-10-28_17h01.19.351,jersey_experiment_5_v3,2023.2.2,Win32,85.47008547,,,,,,,,,,,,,,,,331.5978,333.1505,333.1505,335.1507,return,0.094,,50.91145833,,,,,,FBP-PT-81.png,0.37,1.2,22,0.75,0,17,17,21,1,,,,,,,,,,,,,,,,,,,,,,,,,,,,,,,,,,,,,,,,
,,,,,V3_040,21,Female,2024-10-28_17h01.19.351,jersey_experiment_5_v3,2023.2.2,Win32,85.47008547,,,,,,,,,,,,,,,,335.1509,336.7035,336.7036,338.2683,return,0.2505,,65.88541667,,,,,,FBP-PT-71.png,0.43,1.2,19,0.75,0,18,18,18,1,,,,,,,,,,,,,,,,,,,,,,,,,,,,,,,,,,,,,,,,
,,,,,V3_040,21,Female,2024-10-28_17h01.19.351,jersey_experiment_5_v3,2023.2.2,Win32,85.47008547,,,,,,,,,,,,,,,,338.2686,339.8214,339.8215,340.786,return,0.1884,,78.25520833,,,,,,FBP-YG-17.png,0.45,1.2,5,0.75,0,19,19,4,1,,,,,,,,,,,,,,,,,,,,,,,,,,,,,,,,,,,,,,,,
,,,,,V3_040,21,Female,2024-10-28_17h01.19.351,jersey_experiment_5_v3,2023.2.2,Win32,85.47008547,,,,,,,,,,,,,,,,340.7863,342.3392,342.3392,343.6802,return,0.1669,,80.33854167,,,,,,FBP-PT-71.png,0.45,1.2,20,0.75,0,20,20,19,1,,,,,,,,,,,,,,,,,,,,,,,,,,,,,,,,,,,,,,,,
,,,,,V3_040,21,Female,2024-10-28_17h01.19.351,jersey_experiment_5_v3,2023.2.2,Win32,85.47008547,,,,,,,,,,,,,,,,343.6804,344.9745,344.9745,347.8334,return,1.3929,,73.17708333,,,,,,FBP-OG-71.png,0.37,1.2,32,0.5,0,21,21,31,1,,,,,,,,,,,,,,,,,,,,,,,,,,,,,,,,,,,,,,,,
,,,,,V3_040,21,Female,2024-10-28_17h01.19.351,jersey_experiment_5_v3,2023.2.2,Win32,85.47008547,,,,,,,,,,,,,,,,347.8335,349.1276,349.1276,350.4453,return,0.205,,60.67708333,,,,,,FBP-OG-71.png,0.4,1.2,33,0.5,0,22,22,32,1,,,,,,,,,,,,,,,,,,,,,,,,,,,,,,,,,,,,,,,,
,,,,,V3_040,21,Female,2024-10-28_17h01.19.351,jersey_experiment_5_v3,2023.2.2,Win32,85.47008547,,,,,,,,,,,,,,,,350.4455,351.9983,351.9984,353.6454,return,0.276,,65.88541667,,,,,,FBP-YG-18.png,0.43,1.2,9,0.75,0,23,23,8,1,,,,,,,,,,,,,,,,,,,,,,,,,,,,,,,,,,,,,,,,
,,,,,V3_040,21,Female,2024-10-28_17h01.19.351,jersey_experiment_5_v3,2023.2.2,Win32,85.47008547,,,,,,,,,,,,,,,,353.6456,354.9396,354.9397,356.9632,return,0.2274,,33.72395833,,,,,,FBP-OG-81.png,0.37,1.2,37,0.5,0,24,24,36,1,,,,,,,,,,,,,,,,,,,,,,,,,,,,,,,,,,,,,,,,
,,,,,V3_040,21,Female,2024-10-28_17h01.19.351,jersey_experiment_5_v3,2023.2.2,Win32,85.47008547,,,,,,,,,,,,,,,,356.9634,358.5162,358.5162,360.9279,return,0.2251,,88.41145833,,,,,,FBP-PT-81.png,0.45,1.2,25,0.75,0,25,25,24,1,,,,,,,,,,,,,,,,,,,,,,,,,,,,,,,,,,,,,,,,
,,,,,V3_040,21,Female,2024-10-28_17h01.19.351,jersey_experiment_5_v3,2023.2.2,Win32,85.47008547,,,,,,,,,,,,,,,,360.9281,362.4694,362.4694,363.434,return,0.2642,,38.02083333,,,,,,FBP-YG-19.png,0.35,1.2,11,0.75,0,26,26,10,1,,,,,,,,,,,,,,,,,,,,,,,,,,,,,,,,,,,,,,,,
,,,,,V3_040,21,Female,2024-10-28_17h01.19.351,jersey_experiment_5_v3,2023.2.2,Win32,85.47008547,,,,,,,,,,,,,,,,363.4343,364.9872,364.9872,366.6108,return,0.9086,,48.30729167,,,,,,FBP-YG-18.png,0.37,1.2,7,0.75,0,27,27,6,1,,,,,,,,,,,,,,,,,,,,,,,,,,,,,,,,,,,,,,,,
,,,,,V3_040,21,Female,2024-10-28_17h01.19.351,jersey_experiment_5_v3,2023.2.2,Win32,85.47008547,,,,,,,,,,,,,,,,366.611,367.9048,367.9048,369.1402,return,0.1749,,35.28645833,,,,,,FBP-OG-71.png,0.35,1.2,31,0.5,0,28,28,30,1,,,,,,,,,,,,,,,,,,,,,,,,,,,,,,,,,,,,,,,,
,,,,,V3_040,21,Female,2024-10-28_17h01.19.351,jersey_experiment_5_v3,2023.2.2,Win32,85.47008547,,,,,,,,,,,,,,,,369.1404,370.6931,370.6932,371.7755,return,0.1991,,55.59895833,,,,,,FBP-YG-19.png,0.4,1.2,13,0.75,0,29,29,12,1,,,,,,,,,,,,,,,,,,,,,,,,,,,,,,,,,,,,,,,,
,,,,,V3_040,21,Female,2024-10-28_17h01.19.351,jersey_experiment_5_v3,2023.2.2,Win32,85.47008547,,,,,,,,,,,,,,,,371.7757,373.3285,373.3286,374.3521,return,0.1192,,66.796875,,,,,,FBP-RB-71.png,0.4,1.2,48,0.75,0,30,30,47,1,,,,,,,,,,,,,,,,,,,,,,,,,,,,,,,,,,,,,,,,
,,,,,V3_040,21,Female,2024-10-28_17h01.19.351,jersey_experiment_5_v3,2023.2.2,Win32,85.47008547,,,,,,,,,,,,,,,,374.3523,375.9051,375.9051,376.8815,return,0.1417,,56.38020833,,,,,,FBP-YG-18.png,0.35,1.2,6,0.75,0,31,31,5,1,,,,,,,,,,,,,,,,,,,,,,,,,,,,,,,,,,,,,,,,
,,,,,V3_040,21,Female,2024-10-28_17h01.19.351,jersey_experiment_5_v3,2023.2.2,Win32,85.47008547,,,,,,,,,,,,,,,,376.8818,378.4345,378.4346,379.3404,return,0.1202,,76.171875,,,,,,FBP-YG-19.png,0.43,1.2,14,0.75,0,32,32,13,1,,,,,,,,,,,,,,,,,,,,,,,,,,,,,,,,,,,,,,,,
,,,,,V3_040,21,Female,2024-10-28_17h01.19.351,jersey_experiment_5_v3,2023.2.2,Win32,85.47008547,,,,,,,,,,,,,,,,379.3407,380.6347,380.6347,381.7406,return,0.1906,,89.97395833,,,,,,FBP-OG-71.png,0.45,1.2,35,0.5,0,33,33,34,1,,,,,,,,,,,,,,,,,,,,,,,,,,,,,,,,,,,,,,,,
,,,,,V3_040,21,Female,2024-10-28_17h01.19.351,jersey_experiment_5_v3,2023.2.2,Win32,85.47008547,,,,,,,,,,,,,,,,381.7408,383.2936,383.2936,384.0936,return,0.1888,,90.234375,,,,,,FBP-YG-17.png,0.43,1.2,4,0.75,0,34,34,3,1,,,,,,,,,,,,,,,,,,,,,,,,,,,,,,,,,,,,,,,,
,,,,,V3_040,21,Female,2024-10-28_17h01.19.351,jersey_experiment_5_v3,2023.2.2,Win32,85.47008547,,,,,,,,,,,,,,,,384.0938,385.3878,385.3878,386.0585,return,0.1839,,90.234375,,,,,,FBP-OG-91.png,0.45,1.2,45,0.5,0,35,35,44,1,,,,,,,,,,,,,,,,,,,,,,,,,,,,,,,,,,,,,,,,
,,,,,V3_040,21,Female,2024-10-28_17h01.19.351,jersey_experiment_5_v3,2023.2.2,Win32,85.47008547,,,,,,,,,,,,,,,,386.0586,387.6113,387.6114,389.035,return,0.1707,,61.58854167,,,,,,FBP-YG-17.png,0.4,1.2,3,0.75,0,36,36,2,1,,,,,,,,,,,,,,,,,,,,,,,,,,,,,,,,,,,,,,,,
,,,,,V3_040,21,Female,2024-10-28_17h01.19.351,jersey_experiment_5_v3,2023.2.2,Win32,85.47008547,,,,,,,,,,,,,,,,389.0352,390.5881,390.5881,391.9528,return,0.4012,,86.84895833,,,,,,FBP-PT-91.png,0.45,1.2,30,0.75,0,37,37,29,1,,,,,,,,,,,,,,,,,,,,,,,,,,,,,,,,,,,,,,,,
,,,,,V3_040,21,Female,2024-10-28_17h01.19.351,jersey_experiment_5_v3,2023.2.2,Win32,85.47008547,,,,,,,,,,,,,,,,391.953,393.5057,393.5058,394.7998,return,0.2099,,41.796875,,,,,,FBP-RB-71.png,0.37,1.2,47,0.75,0,38,38,46,1,,,,,,,,,,,,,,,,,,,,,,,,,,,,,,,,,,,,,,,,
,,,,,V3_040,21,Female,2024-10-28_17h01.19.351,jersey_experiment_5_v3,2023.2.2,Win32,85.47008547,,,,,,,,,,,,,,,,394.8001,396.3531,396.3532,397.1176,return,0.1929,,67.70833333,,,,,,FBP-RB-81.png,0.43,1.2,54,0.75,0,39,39,53,1,,,,,,,,,,,,,,,,,,,,,,,,,,,,,,,,,,,,,,,,
,,,,,V3_040,21,Female,2024-10-28_17h01.19.351,jersey_experiment_5_v3,2023.2.2,Win32,85.47008547,,,,,,,,,,,,,,,,397.1179,398.6709,398.671,399.9058,return,0.6514,,87.36979167,,,,,,FBP-YG-19.png,0.45,1.2,15,0.75,0,40,40,14,1,,,,,,,,,,,,,,,,,,,,,,,,,,,,,,,,,,,,,,,,
,,,,,V3_040,21,Female,2024-10-28_17h01.19.351,jersey_experiment_5_v3,2023.2.2,Win32,85.47008547,,,,,,,,,,,,,,,,399.9061,401.4589,401.4589,402.8825,return,0.7848,,68.359375,,,,,,FBP-PT-81.png,0.4,1.2,23,0.75,0,41,41,22,1,,,,,,,,,,,,,,,,,,,,,,,,,,,,,,,,,,,,,,,,
,,,,,V3_040,21,Female,2024-10-28_17h01.19.351,jersey_experiment_5_v3,2023.2.2,Win32,85.47008547,,,,,,,,,,,,,,,,402.8827,404.4354,404.4356,405.2591,return,0.1953,,68.359375,,,,,,FBP-RB-91.png,0.37,1.2,57,0.75,0,42,42,56,1,,,,,,,,,,,,,,,,,,,,,,,,,,,,,,,,,,,,,,,,
,,,,,V3_040,21,Female,2024-10-28_17h01.19.351,jersey_experiment_5_v3,2023.2.2,Win32,85.47008547,,,,,,,,,,,,,,,,405.2593,406.8121,406.8122,407.5532,return,0.3076,,68.359375,,,,,,FBP-PT-91.png,0.37,1.2,27,0.75,0,43,43,26,1,,,,,,,,,,,,,,,,,,,,,,,,,,,,,,,,,,,,,,,,
,,,,,V3_040,21,Female,2024-10-28_17h01.19.351,jersey_experiment_5_v3,2023.2.2,Win32,85.47008547,,,,,,,,,,,,,,,,407.5535,409.1062,409.1062,410.0828,return,0.1416,,59.375,,,,,,FBP-RB-81.png,0.37,1.2,52,0.75,0,44,44,51,1,,,,,,,,,,,,,,,,,,,,,,,,,,,,,,,,,,,,,,,,
,,,,,V3_040,21,Female,2024-10-28_17h01.19.351,jersey_experiment_5_v3,2023.2.2,Win32,85.47008547,,,,,,,,,,,,,,,,410.0831,411.6358,411.6358,412.177,return,0.1897,,59.50520833,,,,,,FBP-RB-81.png,0.4,1.2,53,0.75,0,45,45,52,1,,,,,,,,,,,,,,,,,,,,,,,,,,,,,,,,,,,,,,,,
,,,,,V3_040,21,Female,2024-10-28_17h01.19.351,jersey_experiment_5_v3,2023.2.2,Win32,85.47008547,,,,,,,,,,,,,,,,412.1773,413.4711,413.4712,414.2122,return,0.1565,,59.50520833,,,,,,FBP-OG-81.png,0.35,1.2,36,0.5,0,46,46,35,1,,,,,,,,,,,,,,,,,,,,,,,,,,,,,,,,,,,,,,,,
,,,,,V3_040,21,Female,2024-10-28_17h01.19.351,jersey_experiment_5_v3,2023.2.2,Win32,85.47008547,,,,,,,,,,,,,,,,414.2125,415.7654,415.7654,416.9771,return,0.15,,87.76041667,,,,,,FBP-RB-91.png,0.45,1.2,60,0.75,0,47,47,59,1,,,,,,,,,,,,,,,,,,,,,,,,,,,,,,,,,,,,,,,,
,,,,,V3_040,21,Female,2024-10-28_17h01.19.351,jersey_experiment_5_v3,2023.2.2,Win32,85.47008547,,,,,,,,,,,,,,,,416.9774,418.2712,418.2714,418.8125,return,0.1234,,87.76041667,,,,,,FBP-OG-81.png,0.45,1.2,40,0.5,0,48,48,39,1,,,,,,,,,,,,,,,,,,,,,,,,,,,,,,,,,,,,,,,,
,,,,,V3_040,21,Female,2024-10-28_17h01.19.351,jersey_experiment_5_v3,2023.2.2,Win32,85.47008547,,,,,,,,,,,,,,,,418.8128,420.1066,420.1066,421.6125,return,0.1703,,37.23958333,,,,,,FBP-OG-91.png,0.37,1.2,42,0.5,0,49,49,41,1,,,,,,,,,,,,,,,,,,,,,,,,,,,,,,,,,,,,,,,,
,,,,,V3_040,21,Female,2024-10-28_17h01.19.351,jersey_experiment_5_v3,2023.2.2,Win32,85.47008547,,,,,,,,,,,,,,,,421.6127,423.1655,423.1656,423.8715,return,0.2702,,37.23958333,,,,,,FBP-PT-71.png,0.4,1.2,18,0.75,0,50,50,17,1,,,,,,,,,,,,,,,,,,,,,,,,,,,,,,,,,,,,,,,,
,,,,,V3_040,21,Female,2024-10-28_17h01.19.351,jersey_experiment_5_v3,2023.2.2,Win32,85.47008547,,,,,,,,,,,,,,,,423.8717,425.1657,425.1658,426.4011,return,0.1865,,77.99479167,,,,,,FBP-OG-91.png,0.43,1.2,44,0.5,0,51,51,43,1,,,,,,,,,,,,,,,,,,,,,,,,,,,,,,,,,,,,,,,,
,,,,,V3_040,21,Female,2024-10-28_17h01.19.351,jersey_experiment_5_v3,2023.2.2,Win32,85.47008547,,,,,,,,,,,,,,,,426.4013,427.9539,427.9539,428.86,return,0.5099,,77.99479167,,,,,,FBP-RB-91.png,0.43,1.2,59,0.75,0,52,52,58,1,,,,,,,,,,,,,,,,,,,,,,,,,,,,,,,,,,,,,,,,
,,,,,V3_040,21,Female,2024-10-28_17h01.19.351,jersey_experiment_5_v3,2023.2.2,Win32,85.47008547,,,,,,,,,,,,,,,,428.8602,430.413,430.413,431.6483,return,0.1195,,41.92708333,,,,,,FBP-YG-17.png,0.37,1.2,2,0.75,0,53,53,1,1,,,,,,,,,,,,,,,,,,,,,,,,,,,,,,,,,,,,,,,,
,,,,,V3_040,21,Female,2024-10-28_17h01.19.351,jersey_experiment_5_v3,2023.2.2,Win32,85.47008547,,,,,,,,,,,,,,,,431.6485,432.9425,432.9426,434.7543,return,0.1556,,76.953125,,,,,,FBP-OG-71.png,0.43,1.2,34,0.5,0,54,54,33,1,,,,,,,,,,,,,,,,,,,,,,,,,,,,,,,,,,,,,,,,
,,,,,V3_040,21,Female,2024-10-28_17h01.19.351,jersey_experiment_5_v3,2023.2.2,Win32,85.47008547,,,,,,,,,,,,,,,,434.7545,436.3073,436.3073,438.4015,return,1.1918,,62.63020833,,,,,,FBP-YG-19.png,0.37,1.2,12,0.75,0,55,55,11,1,,,,,,,,,,,,,,,,,,,,,,,,,,,,,,,,,,,,,,,,
,,,,,V3_040,21,Female,2024-10-28_17h01.19.351,jersey_experiment_5_v3,2023.2.2,Win32,85.47008547,,,,,,,,,,,,,,,,438.4017,439.9545,439.9545,440.778,return,0.3023,,81.38020833,,,,,,FBP-RB-81.png,0.45,1.2,55,0.75,0,56,56,54,1,,,,,,,,,,,,,,,,,,,,,,,,,,,,,,,,,,,,,,,,
,,,,,V3_040,21,Female,2024-10-28_17h01.19.351,jersey_experiment_5_v3,2023.2.2,Win32,85.47008547,,,,,,,,,,,,,,,,440.7783,442.3311,442.3312,445.084,return,0.0985,,57.8125,,,,,,FBP-PT-91.png,0.35,1.2,26,0.75,0,57,57,25,1,,,,,,,,,,,,,,,,,,,,,,,,,,,,,,,,,,,,,,,,
,,,,,V3_040,21,Female,2024-10-28_17h01.19.351,jersey_experiment_5_v3,2023.2.2,Win32,85.47008547,,,,,,,,,,,,,,,,445.0843,446.3781,446.3782,447.1665,return,0.0844,,67.83854167,,,,,,FBP-OG-91.png,0.4,1.2,43,0.5,0,58,58,42,1,,,,,,,,,,,,,,,,,,,,,,,,,,,,,,,,,,,,,,,,
,,,,,V3_040,21,Female,2024-10-28_17h01.19.351,jersey_experiment_5_v3,2023.2.2,Win32,85.47008547,,,,,,,,,,,,,,,,447.1668,448.7195,448.7196,449.2842,return,0.1655,,67.83854167,,,,,,FBP-PT-81.png,0.35,1.2,21,0.75,0,59,59,20,1,,,,,,,,,,,,,,,,,,,,,,,,,,,,,,,,,,,,,,,,
,,,,,V3_040,21,Female,2024-10-28_17h01.19.351,jersey_experiment_5_v3,2023.2.2,Win32,85.47008547,,,,,,,,,,,,,,,,,,,,,,,,,,,,,,,,,,,,,,,449.2843,569.277,,,,,,,,,,,,,,,,,,,,,,,,,,,,,,,,,,,,,,
,,,,,V3_040,21,Female,2024-10-28_17h01.19.351,jersey_experiment_5_v3,2023.2.2,Win32,85.47008547,,,,,,,,,,,,,,,,,,,,,,,,,,,,,,,,,,,,,,,,,569.2771,572.4654,return,3.1771,,,,,,,,,,,,,,,,,,,,,,,,,,,,,,,,,,
,,,,,V3_040,21,Female,2024-10-28_17h01.19.351,jersey_experiment_5_v3,2023.2.2,Win32,85.47008547,,,,,,,,,,,,,,,,572.4673,574.0185,574.0185,576.4772,return,1.0759,,38.80208333,,,,,,FBP-OG-18.png,0.35,1.2,36,0.75,,,,,,,,,,,,,0,0,0,35,1,,,,,,,,,,,,,,,,,,,,,,,,,,,,
,,,,,V3_040,21,Female,2024-10-28_17h01.19.351,jersey_experiment_5_v3,2023.2.2,Win32,85.47008547,,,,,,,,,,,,,,,,576.4775,578.0302,578.0302,579.5362,return,0.2962,,52.60416667,,,,,,FBP-OG-17.png,0.37,1.2,32,0.75,,,,,,,,,,,,,0,1,1,31,1,,,,,,,,,,,,,,,,,,,,,,,,,,,,
,,,,,V3_040,21,Female,2024-10-28_17h01.19.351,jersey_experiment_5_v3,2023.2.2,Win32,85.47008547,,,,,,,,,,,,,,,,579.5364,580.8304,580.8304,582.1479,return,0.4866,,52.60416667,,,,,,FBP-PT-19.png,0.35,1.2,26,0.5,,,,,,,,,,,,,0,2,2,25,1,,,,,,,,,,,,,,,,,,,,,,,,,,,,
,,,,,V3_040,21,Female,2024-10-28_17h01.19.351,jersey_experiment_5_v3,2023.2.2,Win32,85.47008547,,,,,,,,,,,,,,,,582.1483,583.4422,583.4422,584.5952,return,0.2821,,57.68229167,,,,,,FBP-PT-18.png,0.45,1.2,25,0.5,,,,,,,,,,,,,0,3,3,24,1,,,,,,,,,,,,,,,,,,,,,,,,,,,,
,,,,,V3_040,21,Female,2024-10-28_17h01.19.351,jersey_experiment_5_v3,2023.2.2,Win32,85.47008547,,,,,,,,,,,,,,,,584.5955,585.8894,585.8894,587.2187,return,0.4002,,56.51041667,,,,,,FBP-RB-17.png,0.37,1.2,47,0.5,,,,,,,,,,,,,0,4,4,46,1,,,,,,,,,,,,,,,,,,,,,,,,,,,,
,,,,,V3_040,21,Female,2024-10-28_17h01.19.351,jersey_experiment_5_v3,2023.2.2,Win32,85.47008547,,,,,,,,,,,,,,,,587.2189,588.513,588.513,589.3482,return,0.1411,,56.51041667,,,,,,FBP-PT-17.png,0.37,1.2,17,0.5,,,,,,,,,,,,,0,5,5,16,1,,,,,,,,,,,,,,,,,,,,,,,,,,,,
,,,,,V3_040,21,Female,2024-10-28_17h01.19.351,jersey_experiment_5_v3,2023.2.2,Win32,85.47008547,,,,,,,,,,,,,,,,589.3485,590.9014,590.9014,592.1249,return,0.3936,,72.265625,,,,,,FBP-OG-17.png,0.4,1.2,33,0.75,,,,,,,,,,,,,0,6,6,32,1,,,,,,,,,,,,,,,,,,,,,,,,,,,,
,,,,,V3_040,21,Female,2024-10-28_17h01.19.351,jersey_experiment_5_v3,2023.2.2,Win32,85.47008547,,,,,,,,,,,,,,,,592.1253,593.4191,593.4191,594.3955,return,0.5797,,72.265625,,,,,,FBP-PT-18.png,0.4,1.2,23,0.5,,,,,,,,,,,,,0,7,7,22,1,,,,,,,,,,,,,,,,,,,,,,,,,,,,
,,,,,V3_040,21,Female,2024-10-28_17h01.19.351,jersey_experiment_5_v3,2023.2.2,Win32,85.47008547,,,,,,,,,,,,,,,,594.3957,595.9485,595.9485,596.7367,return,0.2959,,78.515625,,,,,,FBP-OG-17.png,0.45,1.2,35,0.75,,,,,,,,,,,,,0,8,8,34,1,,,,,,,,,,,,,,,,,,,,,,,,,,,,
,,,,,V3_040,21,Female,2024-10-28_17h01.19.351,jersey_experiment_5_v3,2023.2.2,Win32,85.47008547,,,,,,,,,,,,,,,,596.737,598.2898,598.2899,599.7605,return,0.2134,,50.390625,,,,,,FBP-OG-19.png,0.35,1.2,41,0.75,,,,,,,,,,,,,0,9,9,40,1,,,,,,,,,,,,,,,,,,,,,,,,,,,,
,,,,,V3_040,21,Female,2024-10-28_17h01.19.351,jersey_experiment_5_v3,2023.2.2,Win32,85.47008547,,,,,,,,,,,,,,,,599.7606,601.3136,601.3136,602.8194,return,0.3056,,72.91666667,,,,,,FBP-OG-18.png,0.43,1.2,39,0.75,,,,,,,,,,,,,0,10,10,38,1,,,,,,,,,,,,,,,,,,,,,,,,,,,,
,,,,,V3_040,21,Female,2024-10-28_17h01.19.351,jersey_experiment_5_v3,2023.2.2,Win32,85.47008547,,,,,,,,,,,,,,,,602.8197,604.1135,604.1135,607.5136,return,0.6321,,61.06770833,,,,,,FBP-PT-19.png,0.37,1.2,27,0.5,,,,,,,,,,,,,0,11,11,26,1,,,,,,,,,,,,,,,,,,,,,,,,,,,,
,,,,,V3_040,21,Female,2024-10-28_17h01.19.351,jersey_experiment_5_v3,2023.2.2,Win32,85.47008547,,,,,,,,,,,,,,,,607.5139,609.0667,609.0667,610.4197,return,0.1408,,55.078125,,,,,,FBP-OG-17.png,0.35,1.2,31,0.75,,,,,,,,,,,,,0,12,12,30,1,,,,,,,,,,,,,,,,,,,,,,,,,,,,
,,,,,V3_040,21,Female,2024-10-28_17h01.19.351,jersey_experiment_5_v3,2023.2.2,Win32,85.47008547,,,,,,,,,,,,,,,,610.42,611.7139,611.7139,613.1373,return,0.2025,,89.453125,,,,,,FBP-YG-71.png,0.45,1.2,5,0.5,,,,,,,,,,,,,0,13,13,4,1,,,,,,,,,,,,,,,,,,,,,,,,,,,,
,,,,,V3_040,21,Female,2024-10-28_17h01.19.351,jersey_experiment_5_v3,2023.2.2,Win32,85.47008547,,,,,,,,,,,,,,,,613.1375,614.4315,614.4316,615.5493,return,0.5464,,91.40625,,,,,,FBP-PT-17.png,0.45,1.2,20,0.5,,,,,,,,,,,,,0,14,14,19,1,,,,,,,,,,,,,,,,,,,,,,,,,,,,
,,,,,V3_040,21,Female,2024-10-28_17h01.19.351,jersey_experiment_5_v3,2023.2.2,Win32,85.47008547,,,,,,,,,,,,,,,,615.5495,616.8434,616.8435,617.467,return,0.1601,,91.14583333,,,,,,FBP-YG-91.png,0.45,1.2,15,0.5,,,,,,,,,,,,,0,15,15,14,1,,,,,,,,,,,,,,,,,,,,,,,,,,,,
,,,,,V3_040,21,Female,2024-10-28_17h01.19.351,jersey_experiment_5_v3,2023.2.2,Win32,85.47008547,,,,,,,,,,,,,,,,617.4672,618.7612,618.7612,619.267,return,0.1415,,91.015625,,,,,,FBP-YG-91.png,0.43,1.2,14,0.5,,,,,,,,,,,,,0,16,16,13,1,,,,,,,,,,,,,,,,,,,,,,,,,,,,
,,,,,V3_040,21,Female,2024-10-28_17h01.19.351,jersey_experiment_5_v3,2023.2.2,Win32,85.47008547,,,,,,,,,,,,,,,,619.2672,620.5612,620.5613,623.4909,return,1.884,,48.69791667,,,,,,FBP-YG-91.png,0.35,1.2,11,0.5,,,,,,,,,,,,,0,17,17,10,1,,,,,,,,,,,,,,,,,,,,,,,,,,,,
,,,,,V3_040,21,Female,2024-10-28_17h01.19.351,jersey_experiment_5_v3,2023.2.2,Win32,85.47008547,,,,,,,,,,,,,,,,623.4911,624.7852,624.7852,625.8672,return,0.1363,,87.890625,,,,,,FBP-PT-19.png,0.43,1.2,29,0.5,,,,,,,,,,,,,0,18,18,28,1,,,,,,,,,,,,,,,,,,,,,,,,,,,,
,,,,,V3_040,21,Female,2024-10-28_17h01.19.351,jersey_experiment_5_v3,2023.2.2,Win32,85.47008547,,,,,,,,,,,,,,,,625.8675,627.1614,627.1614,627.5614,return,0.209,,87.890625,,,,,,FBP-RB-19.png,0.45,1.2,60,0.5,,,,,,,,,,,,,0,19,19,59,1,,,,,,,,,,,,,,,,,,,,,,,,,,,,
,,,,,V3_040,21,Female,2024-10-28_17h01.19.351,jersey_experiment_5_v3,2023.2.2,Win32,85.47008547,,,,,,,,,,,,,,,,627.5615,628.8556,628.8556,630.4794,return,0.6741,,56.38020833,,,,,,FBP-PT-18.png,0.37,1.2,22,0.5,,,,,,,,,,,,,0,20,20,21,1,,,,,,,,,,,,,,,,,,,,,,,,,,,,
,,,,,V3_040,21,Female,2024-10-28_17h01.19.351,jersey_experiment_5_v3,2023.2.2,Win32,85.47008547,,,,,,,,,,,,,,,,630.4796,631.7735,631.7735,632.6675,return,0.1911,,57.16145833,,,,,,FBP-YG-91.png,0.37,1.2,12,0.5,,,,,,,,,,,,,0,21,21,11,1,,,,,,,,,,,,,,,,,,,,,,,,,,,,
,,,,,V3_040,21,Female,2024-10-28_17h01.19.351,jersey_experiment_5_v3,2023.2.2,Win32,85.47008547,,,,,,,,,,,,,,,,632.6678,633.9616,633.9617,635.0087,return,0.2703,,84.89583333,,,,,,FBP-YG-91.png,0.4,1.2,13,0.5,,,,,,,,,,,,,0,22,22,12,1,,,,,,,,,,,,,,,,,,,,,,,,,,,,
,,,,,V3_040,21,Female,2024-10-28_17h01.19.351,jersey_experiment_5_v3,2023.2.2,Win32,85.47008547,,,,,,,,,,,,,,,,635.0091,636.5619,636.562,637.9383,return,0.2111,,57.94270833,,,,,,FBP-OG-18.png,0.37,1.2,37,0.75,,,,,,,,,,,,,0,23,23,36,1,,,,,,,,,,,,,,,,,,,,,,,,,,,,
,,,,,V3_040,21,Female,2024-10-28_17h01.19.351,jersey_experiment_5_v3,2023.2.2,Win32,85.47008547,,,,,,,,,,,,,,,,637.9385,639.2325,639.2326,640.1854,return,0.149,,88.41145833,,,,,,FBP-YG-81.png,0.45,1.2,10,0.5,,,,,,,,,,,,,0,24,24,9,1,,,,,,,,,,,,,,,,,,,,,,,,,,,,
,,,,,V3_040,21,Female,2024-10-28_17h01.19.351,jersey_experiment_5_v3,2023.2.2,Win32,85.47008547,,,,,,,,,,,,,,,,640.1857,641.4796,641.4797,642.3148,return,0.1461,,54.94791667,,,,,,FBP-YG-81.png,0.37,1.2,7,0.5,,,,,,,,,,,,,0,25,25,6,1,,,,,,,,,,,,,,,,,,,,,,,,,,,,
,,,,,V3_040,21,Female,2024-10-28_17h01.19.351,jersey_experiment_5_v3,2023.2.2,Win32,85.47008547,,,,,,,,,,,,,,,,642.3151,643.6092,643.6092,644.3855,return,0.1335,,43.09895833,,,,,,FBP-YG-81.png,0.35,1.2,6,0.5,,,,,,,,,,,,,0,26,26,5,1,,,,,,,,,,,,,,,,,,,,,,,,,,,,
,,,,,V3_040,21,Female,2024-10-28_17h01.19.351,jersey_experiment_5_v3,2023.2.2,Win32,85.47008547,,,,,,,,,,,,,,,,644.3858,645.6798,645.6798,647.2798,return,0.6829,,64.84375,,,,,,FBP-RB-19.png,0.4,1.2,58,0.5,,,,,,,,,,,,,0,27,27,57,1,,,,,,,,,,,,,,,,,,,,,,,,,,,,
,,,,,V3_040,21,Female,2024-10-28_17h01.19.351,jersey_experiment_5_v3,2023.2.2,Win32,85.47008547,,,,,,,,,,,,,,,,647.2799,648.5739,648.5739,649.68,return,0.2256,,60.41666667,,,,,,FBP-RB-18.png,0.37,1.2,52,0.5,,,,,,,,,,,,,0,28,28,51,1,,,,,,,,,,,,,,,,,,,,,,,,,,,,
,,,,,V3_040,21,Female,2024-10-28_17h01.19.351,jersey_experiment_5_v3,2023.2.2,Win32,85.47008547,,,,,,,,,,,,,,,,649.6802,650.9741,650.9742,652.4683,return,0.9184,,80.078125,,,,,,FBP-YG-71.png,0.43,1.2,4,0.5,,,,,,,,,,,,,0,29,29,3,1,,,,,,,,,,,,,,,,,,,,,,,,,,,,
,,,,,V3_040,21,Female,2024-10-28_17h01.19.351,jersey_experiment_5_v3,2023.2.2,Win32,85.47008547,,,,,,,,,,,,,,,,652.4686,653.7625,653.7625,655.0095,return,0.2827,,82.03125,,,,,,FBP-RB-18.png,0.45,1.2,55,0.5,,,,,,,,,,,,,0,30,30,54,1,,,,,,,,,,,,,,,,,,,,,,,,,,,,
,,,,,V3_040,21,Female,2024-10-28_17h01.19.351,jersey_experiment_5_v3,2023.2.2,Win32,85.47008547,,,,,,,,,,,,,,,,655.0098,656.3038,656.3038,657.3626,return,0.1725,,82.94270833,,,,,,FBP-PT-18.png,0.43,1.2,24,0.5,,,,,,,,,,,,,0,31,31,23,1,,,,,,,,,,,,,,,,,,,,,,,,,,,,
,,,,,V3_040,21,Female,2024-10-28_17h01.19.351,jersey_experiment_5_v3,2023.2.2,Win32,85.47008547,,,,,,,,,,,,,,,,657.3629,658.6568,658.6569,659.445,return,0.0948,,86.45833333,,,,,,FBP-RB-19.png,0.43,1.2,59,0.5,,,,,,,,,,,,,0,32,32,58,1,,,,,,,,,,,,,,,,,,,,,,,,,,,,
,,,,,V3_040,21,Female,2024-10-28_17h01.19.351,jersey_experiment_5_v3,2023.2.2,Win32,85.47008547,,,,,,,,,,,,,,,,659.4454,660.7392,660.7392,661.8687,return,0.1434,,56.51041667,,,,,,FBP-RB-18.png,0.35,1.2,51,0.5,,,,,,,,,,,,,0,33,33,50,1,,,,,,,,,,,,,,,,,,,,,,,,,,,,
,,,,,V3_040,21,Female,2024-10-28_17h01.19.351,jersey_experiment_5_v3,2023.2.2,Win32,85.47008547,,,,,,,,,,,,,,,,661.8689,663.1628,663.1628,663.9629,return,0.1929,,76.43229167,,,,,,FBP-PT-19.png,0.4,1.2,28,0.5,,,,,,,,,,,,,0,34,34,27,1,,,,,,,,,,,,,,,,,,,,,,,,,,,,
,,,,,V3_040,21,Female,2024-10-28_17h01.19.351,jersey_experiment_5_v3,2023.2.2,Win32,85.47008547,,,,,,,,,,,,,,,,663.9631,665.257,665.2571,666.3865,return,0.0608,,67.1875,,,,,,FBP-YG-81.png,0.4,1.2,8,0.5,,,,,,,,,,,,,0,35,35,7,1,,,,,,,,,,,,,,,,,,,,,,,,,,,,
,,,,,V3_040,21,Female,2024-10-28_17h01.19.351,jersey_experiment_5_v3,2023.2.2,Win32,85.47008547,,,,,,,,,,,,,,,,666.3867,667.9396,667.9396,668.5747,return,0.0724,,88.15104167,,,,,,FBP-OG-19.png,0.45,1.2,45,0.75,,,,,,,,,,,,,0,36,36,44,1,,,,,,,,,,,,,,,,,,,,,,,,,,,,
,,,,,V3_040,21,Female,2024-10-28_17h01.19.351,jersey_experiment_5_v3,2023.2.2,Win32,85.47008547,,,,,,,,,,,,,,,,668.5749,669.8689,669.869,671.2455,return,0.1694,,52.86458333,,,,,,FBP-PT-18.png,0.35,1.2,21,0.5,,,,,,,,,,,,,0,37,37,20,1,,,,,,,,,,,,,,,,,,,,,,,,,,,,
,,,,,V3_040,21,Female,2024-10-28_17h01.19.351,jersey_experiment_5_v3,2023.2.2,Win32,85.47008547,,,,,,,,,,,,,,,,671.2459,672.5396,672.5397,673.3161,return,0.0941,,76.43229167,,,,,,FBP-RB-18.png,0.43,1.2,54,0.5,,,,,,,,,,,,,0,38,38,53,1,,,,,,,,,,,,,,,,,,,,,,,,,,,,
,,,,,V3_040,21,Female,2024-10-28_17h01.19.351,jersey_experiment_5_v3,2023.2.2,Win32,85.47008547,,,,,,,,,,,,,,,,673.3164,674.6103,674.6103,676.3514,return,0.6465,,38.41145833,,,,,,FBP-PT-17.png,0.35,1.2,16,0.5,,,,,,,,,,,,,0,39,39,15,1,,,,,,,,,,,,,,,,,,,,,,,,,,,,
,,,,,V3_040,21,Female,2024-10-28_17h01.19.351,jersey_experiment_5_v3,2023.2.2,Win32,85.47008547,,,,,,,,,,,,,,,,676.3516,677.6457,677.6458,679.5872,return,1.1056,,74.609375,,,,,,FBP-RB-17.png,0.43,1.2,49,0.5,,,,,,,,,,,,,0,40,40,48,1,,,,,,,,,,,,,,,,,,,,,,,,,,,,
,,,,,V3_040,21,Female,2024-10-28_17h01.19.351,jersey_experiment_5_v3,2023.2.2,Win32,85.47008547,,,,,,,,,,,,,,,,679.5874,681.1402,681.1402,681.8576,return,0.1497,,66.53645833,,,,,,FBP-OG-18.png,0.4,1.2,38,0.75,,,,,,,,,,,,,0,41,41,37,1,,,,,,,,,,,,,,,,,,,,,,,,,,,,
,,,,,V3_040,21,Female,2024-10-28_17h01.19.351,jersey_experiment_5_v3,2023.2.2,Win32,85.47008547,,,,,,,,,,,,,,,,681.8579,683.1517,683.1518,683.9989,return,0.0974,,78.125,,,,,,FBP-RB-18.png,0.4,1.2,53,0.5,,,,,,,,,,,,,0,42,42,52,1,,,,,,,,,,,,,,,,,,,,,,,,,,,,
,,,,,V3_040,21,Female,2024-10-28_17h01.19.351,jersey_experiment_5_v3,2023.2.2,Win32,85.47008547,,,,,,,,,,,,,,,,683.9991,685.2929,685.293,685.9402,return,0.2357,,77.734375,,,,,,FBP-RB-17.png,0.4,1.2,48,0.5,,,,,,,,,,,,,0,43,43,47,1,,,,,,,,,,,,,,,,,,,,,,,,,,,,
,,,,,V3_040,21,Female,2024-10-28_17h01.19.351,jersey_experiment_5_v3,2023.2.2,Win32,85.47008547,,,,,,,,,,,,,,,,685.9405,687.2343,687.2343,688.1283,return,0.1439,,84.63541667,,,,,,FBP-RB-17.png,0.45,1.2,50,0.5,,,,,,,,,,,,,0,44,44,49,1,,,,,,,,,,,,,,,,,,,,,,,,,,,,
,,,,,V3_040,21,Female,2024-10-28_17h01.19.351,jersey_experiment_5_v3,2023.2.2,Win32,85.47008547,,,,,,,,,,,,,,,,688.1286,689.4227,689.4227,690.2109,return,0.0945,,88.41145833,,,,,,FBP-YG-81.png,0.43,1.2,9,0.5,,,,,,,,,,,,,0,45,45,8,1,,,,,,,,,,,,,,,,,,,,,,,,,,,,
,,,,,V3_040,21,Female,2024-10-28_17h01.19.351,jersey_experiment_5_v3,2023.2.2,Win32,85.47008547,,,,,,,,,,,,,,,,690.2112,691.5051,691.5051,692.658,return,0.1415,,81.77083333,,,,,,FBP-PT-17.png,0.4,1.2,18,0.5,,,,,,,,,,,,,0,46,46,17,1,,,,,,,,,,,,,,,,,,,,,,,,,,,,
,,,,,V3_040,21,Female,2024-10-28_17h01.19.351,jersey_experiment_5_v3,2023.2.2,Win32,85.47008547,,,,,,,,,,,,,,,,692.6583,693.9522,693.9522,695.6817,return,0.1393,,56.25,,,,,,FBP-YG-71.png,0.35,1.2,1,0.5,,,,,,,,,,,,,0,47,47,0,1,,,,,,,,,,,,,,,,,,,,,,,,,,,,
,,,,,V3_040,21,Female,2024-10-28_17h01.19.351,jersey_experiment_5_v3,2023.2.2,Win32,85.47008547,,,,,,,,,,,,,,,,695.6819,696.9758,696.9758,699.1641,return,1.5946,,53.77604167,,,,,,FBP-RB-19.png,0.37,1.2,57,0.5,,,,,,,,,,,,,0,48,48,56,1,,,,,,,,,,,,,,,,,,,,,,,,,,,,
,,,,,V3_040,21,Female,2024-10-28_17h01.19.351,jersey_experiment_5_v3,2023.2.2,Win32,85.47008547,,,,,,,,,,,,,,,,699.1643,700.7171,700.7172,701.8113,return,0.0552,,54.42708333,,,,,,FBP-OG-19.png,0.4,1.2,43,0.75,,,,,,,,,,,,,0,49,49,42,1,,,,,,,,,,,,,,,,,,,,,,,,,,,,
,,,,,V3_040,21,Female,2024-10-28_17h01.19.351,jersey_experiment_5_v3,2023.2.2,Win32,85.47008547,,,,,,,,,,,,,,,,701.8116,703.1054,703.1054,704.623,return,0.0947,,64.0625,,,,,,FBP-RB-17.png,0.35,1.2,46,0.5,,,,,,,,,,,,,0,50,50,45,1,,,,,,,,,,,,,,,,,,,,,,,,,,,,
,,,,,V3_040,21,Female,2024-10-28_17h01.19.351,jersey_experiment_5_v3,2023.2.2,Win32,85.47008547,,,,,,,,,,,,,,,,704.6234,706.1763,706.1763,707.0115,return,0.2594,,48.56770833,,,,,,FBP-OG-19.png,0.37,1.2,42,0.75,,,,,,,,,,,,,0,51,51,41,1,,,,,,,,,,,,,,,,,,,,,,,,,,,,
,,,,,V3_040,21,Female,2024-10-28_17h01.19.351,jersey_experiment_5_v3,2023.2.2,Win32,85.47008547,,,,,,,,,,,,,,,,707.0119,708.3056,708.3056,709.0116,return,0.0944,,68.09895833,,,,,,FBP-PT-17.png,0.43,1.2,19,0.5,,,,,,,,,,,,,0,52,52,18,1,,,,,,,,,,,,,,,,,,,,,,,,,,,,
,,,,,V3_040,21,Female,2024-10-28_17h01.19.351,jersey_experiment_5_v3,2023.2.2,Win32,85.47008547,,,,,,,,,,,,,,,,709.0118,710.3057,710.3057,711.294,return,0.0977,,51.82291667,,,,,,FBP-YG-71.png,0.37,1.2,2,0.5,,,,,,,,,,,,,0,53,53,1,1,,,,,,,,,,,,,,,,,,,,,,,,,,,,
,,,,,V3_040,21,Female,2024-10-28_17h01.19.351,jersey_experiment_5_v3,2023.2.2,Win32,85.47008547,,,,,,,,,,,,,,,,711.2943,712.5881,712.5882,713.4117,return,0.0946,,69.66145833,,,,,,FBP-YG-71.png,0.4,1.2,3,0.5,,,,,,,,,,,,,0,54,54,2,1,,,,,,,,,,,,,,,,,,,,,,,,,,,,
,,,,,V3_040,21,Female,2024-10-28_17h01.19.351,jersey_experiment_5_v3,2023.2.2,Win32,85.47008547,,,,,,,,,,,,,,,,713.412,714.9533,714.9535,715.953,return,0.1036,,82.68229167,,,,,,FBP-OG-19.png,0.43,1.2,44,0.75,,,,,,,,,,,,,0,55,55,43,1,,,,,,,,,,,,,,,,,,,,,,,,,,,,
,,,,,V3_040,21,Female,2024-10-28_17h01.19.351,jersey_experiment_5_v3,2023.2.2,Win32,85.47008547,,,,,,,,,,,,,,,,715.9532,717.506,717.5061,718.0355,return,0.0736,,89.58333333,,,,,,FBP-OG-17.png,0.43,1.2,34,0.75,,,,,,,,,,,,,0,56,56,33,1,,,,,,,,,,,,,,,,,,,,,,,,,,,,
,,,,,V3_040,21,Female,2024-10-28_17h01.19.351,jersey_experiment_5_v3,2023.2.2,Win32,85.47008547,,,,,,,,,,,,,,,,718.0358,719.3296,719.3296,720.4356,return,0.0962,,36.328125,,,,,,FBP-RB-19.png,0.35,1.2,56,0.5,,,,,,,,,,,,,0,57,57,55,1,,,,,,,,,,,,,,,,,,,,,,,,,,,,
,,,,,V3_040,21,Female,2024-10-28_17h01.19.351,jersey_experiment_5_v3,2023.2.2,Win32,85.47008547,,,,,,,,,,,,,,,,720.4359,721.7298,721.7298,723.9533,return,0.1263,,82.29166667,,,,,,FBP-PT-19.png,0.45,1.2,30,0.5,,,,,,,,,,,,,0,58,58,29,1,,,,,,,,,,,,,,,,,,,,,,,,,,,,
,,,,,V3_040,21,Female,2024-10-28_17h01.19.351,jersey_experiment_5_v3,2023.2.2,Win32,85.47008547,,,,,,,,,,,,,,,,723.9535,725.5063,725.5063,726.0358,return,0.1149,,83.85416667,,,,,,FBP-OG-18.png,0.45,1.2,40,0.75,,,,,,,,,,,,,0,59,59,39,1,,,,,,,,,,,,,,,,,,,,,,,,,,,,
,,,,,V3_040,21,Female,2024-10-28_17h01.19.351,jersey_experiment_5_v3,2023.2.2,Win32,85.47008547,,,,,,,,,,,,,,,,726.0372,727.3299,727.3301,727.8124,return,0.1026,,83.85416667,,,,,,FBP-RB-81.png,0.43,1.2,54,0.5,,,,,,,,,,,,,,,,,,0,0,0,53,1,,,,,,,,,,,,,,,,,,,,,,,
,,,,,V3_040,21,Female,2024-10-28_17h01.19.351,jersey_experiment_5_v3,2023.2.2,Win32,85.47008547,,,,,,,,,,,,,,,,727.8127,729.1064,729.1065,730.2359,return,0.0299,,56.51041667,,,,,,FBP-PT-71.png,0.4,1.2,18,0.5,,,,,,,,,,,,,,,,,,0,1,1,17,1,,,,,,,,,,,,,,,,,,,,,,,
,,,,,V3_040,21,Female,2024-10-28_17h01.19.351,jersey_experiment_5_v3,2023.2.2,Win32,85.47008547,,,,,,,,,,,,,,,,730.2362,731.789,731.789,732.8831,return,0.1427,,34.89583333,,,,,,FBP-OG-81.png,0.37,1.2,37,0.75,,,,,,,,,,,,,,,,,,0,2,2,36,1,,,,,,,,,,,,,,,,,,,,,,,
,,,,,V3_040,21,Female,2024-10-28_17h01.19.351,jersey_experiment_5_v3,2023.2.2,Win32,85.47008547,,,,,,,,,,,,,,,,732.8834,734.4361,734.4361,734.9774,return,0.1329,,34.89583333,,,,,,FBP-OG-91.png,0.37,1.2,42,0.75,,,,,,,,,,,,,,,,,,0,3,3,41,1,,,,,,,,,,,,,,,,,,,,,,,
,,,,,V3_040,21,Female,2024-10-28_17h01.19.351,jersey_experiment_5_v3,2023.2.2,Win32,85.47008547,,,,,,,,,,,,,,,,734.9775,736.5305,736.5305,737.2834,return,0.1098,,64.84375,,,,,,FBP-OG-91.png,0.43,1.2,44,0.75,,,,,,,,,,,,,,,,,,0,4,4,43,1,,,,,,,,,,,,,,,,,,,,,,,
,,,,,V3_040,21,Female,2024-10-28_17h01.19.351,jersey_experiment_5_v3,2023.2.2,Win32,85.47008547,,,,,,,,,,,,,,,,737.2836,738.5773,738.5774,739.648,return,0.0965,,50.13020833,,,,,,FBP-RB-91.png,0.37,1.2,57,0.5,,,,,,,,,,,,,,,,,,0,5,5,56,1,,,,,,,,,,,,,,,,,,,,,,,
,,,,,V3_040,21,Female,2024-10-28_17h01.19.351,jersey_experiment_5_v3,2023.2.2,Win32,85.47008547,,,,,,,,,,,,,,,,739.6482,740.9422,740.9423,741.4128,return,0.0942,,50.13020833,,,,,,FBP-PT-91.png,0.37,1.2,27,0.5,,,,,,,,,,,,,,,,,,0,6,6,26,1,,,,,,,,,,,,,,,,,,,,,,,
,,,,,V3_040,21,Female,2024-10-28_17h01.19.351,jersey_experiment_5_v3,2023.2.2,Win32,85.47008547,,,,,,,,,,,,,,,,741.4131,742.7069,742.7069,743.6953,return,0.1442,,71.484375,,,,,,FBP-RB-71.png,0.45,1.2,50,0.5,,,,,,,,,,,,,,,,,,0,7,7,49,1,,,,,,,,,,,,,,,,,,,,,,,
,,,,,V3_040,21,Female,2024-10-28_17h01.19.351,jersey_experiment_5_v3,2023.2.2,Win32,85.47008547,,,,,,,,,,,,,,,,743.6955,744.9894,744.9894,747.3425,return,0.145,,50.390625,,,,,,FBP-RB-71.png,0.4,1.2,48,0.5,,,,,,,,,,,,,,,,,,0,8,8,47,1,,,,,,,,,,,,,,,,,,,,,,,
,,,,,V3_040,21,Female,2024-10-28_17h01.19.351,jersey_experiment_5_v3,2023.2.2,Win32,85.47008547,,,,,,,,,,,,,,,,747.3427,748.6366,748.6366,749.2836,return,0.1173,,69.40104167,,,,,,FBP-PT-81.png,0.43,1.2,24,0.5,,,,,,,,,,,,,,,,,,0,9,9,23,1,,,,,,,,,,,,,,,,,,,,,,,
,,,,,V3_040,21,Female,2024-10-28_17h01.19.351,jersey_experiment_5_v3,2023.2.2,Win32,85.47008547,,,,,,,,,,,,,,,,749.2839,750.5778,750.5779,751.378,return,0.0915,,60.28645833,,,,,,FBP-PT-91.png,0.4,1.2,28,0.5,,,,,,,,,,,,,,,,,,0,10,10,27,1,,,,,,,,,,,,,,,,,,,,,,,
,,,,,V3_040,21,Female,2024-10-28_17h01.19.351,jersey_experiment_5_v3,2023.2.2,Win32,85.47008547,,,,,,,,,,,,,,,,751.3782,752.6721,752.6721,753.4839,return,0.1555,,50,,,,,,FBP-PT-91.png,0.35,1.2,26,0.5,,,,,,,,,,,,,,,,,,0,11,11,25,1,,,,,,,,,,,,,,,,,,,,,,,
,,,,,V3_040,21,Female,2024-10-28_17h01.19.351,jersey_experiment_5_v3,2023.2.2,Win32,85.47008547,,,,,,,,,,,,,,,,753.4841,754.778,754.778,755.5545,return,0.0942,,74.86979167,,,,,,FBP-RB-91.png,0.43,1.2,59,0.5,,,,,,,,,,,,,,,,,,0,12,12,58,1,,,,,,,,,,,,,,,,,,,,,,,
,,,,,V3_040,21,Female,2024-10-28_17h01.19.351,jersey_experiment_5_v3,2023.2.2,Win32,85.47008547,,,,,,,,,,,,,,,,755.5548,757.1076,757.1077,758.3664,return,0.1201,,45.44270833,,,,,,FBP-OG-81.png,0.35,1.2,36,0.75,,,,,,,,,,,,,,,,,,0,13,13,35,1,,,,,,,,,,,,,,,,,,,,,,,
,,,,,V3_040,21,Female,2024-10-28_17h01.19.351,jersey_experiment_5_v3,2023.2.2,Win32,85.47008547,,,,,,,,,,,,,,,,758.3666,759.6606,759.6607,760.5547,return,0.1128,,78.77604167,,,,,,FBP-RB-71.png,0.43,1.2,49,0.5,,,,,,,,,,,,,,,,,,0,14,14,48,1,,,,,,,,,,,,,,,,,,,,,,,
,,,,,V3_040,21,Female,2024-10-28_17h01.19.351,jersey_experiment_5_v3,2023.2.2,Win32,85.47008547,,,,,,,,,,,,,,,,760.5549,762.1077,762.1077,762.7783,return,0.2434,,85.15625,,,,,,FBP-OG-71.png,0.45,1.2,35,0.75,,,,,,,,,,,,,,,,,,0,15,15,34,1,,,,,,,,,,,,,,,,,,,,,,,
,,,,,V3_040,21,Female,2024-10-28_17h01.19.351,jersey_experiment_5_v3,2023.2.2,Win32,85.47008547,,,,,,,,,,,,,,,,762.7786,764.0724,764.0724,766.1078,return,0.1695,,53.125,,,,,,FBP-YG-19.png,0.37,1.2,12,0.5,,,,,,,,,,,,,,,,,,0,16,16,11,1,,,,,,,,,,,,,,,,,,,,,,,
,,,,,V3_040,21,Female,2024-10-28_17h01.19.351,jersey_experiment_5_v3,2023.2.2,Win32,85.47008547,,,,,,,,,,,,,,,,766.108,767.4021,767.4022,768.9786,return,0.6984,,47.00520833,,,,,,FBP-RB-81.png,0.37,1.2,52,0.5,,,,,,,,,,,,,,,,,,0,17,17,51,1,,,,,,,,,,,,,,,,,,,,,,,
,,,,,V3_040,21,Female,2024-10-28_17h01.19.351,jersey_experiment_5_v3,2023.2.2,Win32,85.47008547,,,,,,,,,,,,,,,,768.9789,770.2729,770.2729,771.7434,return,0.9315,,71.875,,,,,,FBP-YG-18.png,0.43,1.2,9,0.5,,,,,,,,,,,,,,,,,,0,18,18,8,1,,,,,,,,,,,,,,,,,,,,,,,
,,,,,V3_040,21,Female,2024-10-28_17h01.19.351,jersey_experiment_5_v3,2023.2.2,Win32,85.47008547,,,,,,,,,,,,,,,,771.7436,773.0375,773.0375,773.9551,return,0.0782,,74.609375,,,,,,FBP-PT-71.png,0.43,1.2,19,0.5,,,,,,,,,,,,,,,,,,0,19,19,18,1,,,,,,,,,,,,,,,,,,,,,,,
,,,,,V3_040,21,Female,2024-10-28_17h01.19.351,jersey_experiment_5_v3,2023.2.2,Win32,85.47008547,,,,,,,,,,,,,,,,773.9554,775.2494,775.2494,776.1318,return,0.0943,,49.86979167,,,,,,FBP-RB-81.png,0.35,1.2,51,0.5,,,,,,,,,,,,,,,,,,0,20,20,50,1,,,,,,,,,,,,,,,,,,,,,,,
,,,,,V3_040,21,Female,2024-10-28_17h01.19.351,jersey_experiment_5_v3,2023.2.2,Win32,85.47008547,,,,,,,,,,,,,,,,776.1321,777.4259,777.4259,777.8493,return,0.1148,,49.86979167,,,,,,FBP-PT-71.png,0.35,1.2,16,0.5,,,,,,,,,,,,,,,,,,0,21,21,15,1,,,,,,,,,,,,,,,,,,,,,,,
,,,,,V3_040,21,Female,2024-10-28_17h01.19.351,jersey_experiment_5_v3,2023.2.2,Win32,85.47008547,,,,,,,,,,,,,,,,777.8496,779.1437,779.1437,779.6143,return,0.0943,,49.86979167,,,,,,FBP-YG-19.png,0.35,1.2,11,0.5,,,,,,,,,,,,,,,,,,0,22,22,10,1,,,,,,,,,,,,,,,,,,,,,,,
,,,,,V3_040,21,Female,2024-10-28_17h01.19.351,jersey_experiment_5_v3,2023.2.2,Win32,85.47008547,,,,,,,,,,,,,,,,779.6145,780.9083,780.9084,782.0967,return,0.1508,,72.265625,,,,,,FBP-YG-19.png,0.43,1.2,14,0.5,,,,,,,,,,,,,,,,,,0,23,23,13,1,,,,,,,,,,,,,,,,,,,,,,,
,,,,,V3_040,21,Female,2024-10-28_17h01.19.351,jersey_experiment_5_v3,2023.2.2,Win32,85.47008547,,,,,,,,,,,,,,,,782.0969,783.3909,783.391,785.1556,return,0.0706,,50.26041667,,,,,,FBP-YG-18.png,0.35,1.2,6,0.5,,,,,,,,,,,,,,,,,,0,24,24,5,1,,,,,,,,,,,,,,,,,,,,,,,
,,,,,V3_040,21,Female,2024-10-28_17h01.19.351,jersey_experiment_5_v3,2023.2.2,Win32,85.47008547,,,,,,,,,,,,,,,,785.1558,786.7087,786.7087,787.3087,return,0.1115,,60.80729167,,,,,,FBP-OG-71.png,0.4,1.2,33,0.75,,,,,,,,,,,,,,,,,,0,25,25,32,1,,,,,,,,,,,,,,,,,,,,,,,
,,,,,V3_040,21,Female,2024-10-28_17h01.19.351,jersey_experiment_5_v3,2023.2.2,Win32,85.47008547,,,,,,,,,,,,,,,,787.3089,788.603,788.603,789.744,return,0.1511,,50.52083333,,,,,,FBP-YG-17.png,0.35,1.2,1,0.5,,,,,,,,,,,,,,,,,,0,26,26,0,1,,,,,,,,,,,,,,,,,,,,,,,
,,,,,V3_040,21,Female,2024-10-28_17h01.19.351,jersey_experiment_5_v3,2023.2.2,Win32,85.47008547,,,,,,,,,,,,,,,,789.7442,791.2972,791.2972,792.0147,return,0.0937,,74.34895833,,,,,,FBP-OG-71.png,0.43,1.2,34,0.75,,,,,,,,,,,,,,,,,,0,27,27,33,1,,,,,,,,,,,,,,,,,,,,,,,
,,,,,V3_040,21,Female,2024-10-28_17h01.19.351,jersey_experiment_5_v3,2023.2.2,Win32,85.47008547,,,,,,,,,,,,,,,,792.0149,793.3089,793.309,794.3559,return,0.0708,,41.14583333,,,,,,FBP-RB-71.png,0.37,1.2,47,0.5,,,,,,,,,,,,,,,,,,0,28,28,46,1,,,,,,,,,,,,,,,,,,,,,,,
,,,,,V3_040,21,Female,2024-10-28_17h01.19.351,jersey_experiment_5_v3,2023.2.2,Win32,85.47008547,,,,,,,,,,,,,,,,794.3563,795.6501,795.6502,796.5913,return,0.0736,,81.90104167,,,,,,FBP-RB-81.png,0.45,1.2,55,0.5,,,,,,,,,,,,,,,,,,0,29,29,54,1,,,,,,,,,,,,,,,,,,,,,,,
,,,,,V3_040,21,Female,2024-10-28_17h01.19.351,jersey_experiment_5_v3,2023.2.2,Win32,85.47008547,,,,,,,,,,,,,,,,796.5916,797.8855,797.8856,799.0267,return,0.133,,87.109375,,,,,,FBP-YG-17.png,0.45,1.2,5,0.5,,,,,,,,,,,,,,,,,,0,30,30,4,1,,,,,,,,,,,,,,,,,,,,,,,
,,,,,V3_040,21,Female,2024-10-28_17h01.19.351,jersey_experiment_5_v3,2023.2.2,Win32,85.47008547,,,,,,,,,,,,,,,,799.027,800.3209,800.3209,800.8974,return,0.1054,,86.71875,,,,,,FBP-YG-19.png,0.45,1.2,15,0.5,,,,,,,,,,,,,,,,,,0,31,31,14,1,,,,,,,,,,,,,,,,,,,,,,,
,,,,,V3_040,21,Female,2024-10-28_17h01.19.351,jersey_experiment_5_v3,2023.2.2,Win32,85.47008547,,,,,,,,,,,,,,,,800.8976,802.1915,802.1916,802.5916,return,0.0497,,86.71875,,,,,,FBP-YG-18.png,0.45,1.2,10,0.5,,,,,,,,,,,,,,,,,,0,32,32,9,1,,,,,,,,,,,,,,,,,,,,,,,
,,,,,V3_040,21,Female,2024-10-28_17h01.19.351,jersey_experiment_5_v3,2023.2.2,Win32,85.47008547,,,,,,,,,,,,,,,,802.5918,803.8856,803.8857,804.9446,return,0.0569,,57.29166667,,,,,,FBP-YG-18.png,0.37,1.2,7,0.5,,,,,,,,,,,,,,,,,,0,33,33,6,1,,,,,,,,,,,,,,,,,,,,,,,
,,,,,V3_040,21,Female,2024-10-28_17h01.19.351,jersey_experiment_5_v3,2023.2.2,Win32,85.47008547,,,,,,,,,,,,,,,,804.9448,806.2387,806.2387,807.0974,return,0.0436,,50.13020833,,,,,,FBP-PT-81.png,0.37,1.2,22,0.5,,,,,,,,,,,,,,,,,,0,34,34,21,1,,,,,,,,,,,,,,,,,,,,,,,
,,,,,V3_040,21,Female,2024-10-28_17h01.19.351,jersey_experiment_5_v3,2023.2.2,Win32,85.47008547,,,,,,,,,,,,,,,,807.0978,808.3917,808.3917,809.7564,return,0.0744,,80.33854167,,,,,,FBP-PT-91.png,0.45,1.2,30,0.5,,,,,,,,,,,,,,,,,,0,35,35,29,1,,,,,,,,,,,,,,,,,,,,,,,
,,,,,V3_040,21,Female,2024-10-28_17h01.19.351,jersey_experiment_5_v3,2023.2.2,Win32,85.47008547,,,,,,,,,,,,,,,,809.7566,811.3096,811.3097,812.0036,return,0.118,,62.63020833,,,,,,FBP-OG-81.png,0.4,1.2,38,0.75,,,,,,,,,,,,,,,,,,0,36,36,37,1,,,,,,,,,,,,,,,,,,,,,,,
,,,,,V3_040,21,Female,2024-10-28_17h01.19.351,jersey_experiment_5_v3,2023.2.2,Win32,85.47008547,,,,,,,,,,,,,,,,812.004,813.2978,813.2979,813.9685,return,0.063,,58.85416667,,,,,,FBP-YG-17.png,0.37,1.2,2,0.5,,,,,,,,,,,,,,,,,,0,37,37,1,1,,,,,,,,,,,,,,,,,,,,,,,
,,,,,V3_040,21,Female,2024-10-28_17h01.19.351,jersey_experiment_5_v3,2023.2.2,Win32,85.47008547,,,,,,,,,,,,,,,,813.9688,815.2625,815.2625,816.0743,return,0.0628,,82.8125,,,,,,FBP-PT-71.png,0.45,1.2,20,0.5,,,,,,,,,,,,,,,,,,0,38,38,19,1,,,,,,,,,,,,,,,,,,,,,,,
,,,,,V3_040,21,Female,2024-10-28_17h01.19.351,jersey_experiment_5_v3,2023.2.2,Win32,85.47008547,,,,,,,,,,,,,,,,816.0745,817.3687,817.3688,818.6745,return,0.1156,,39.71354167,,,,,,FBP-RB-71.png,0.35,1.2,46,0.5,,,,,,,,,,,,,,,,,,0,39,39,45,1,,,,,,,,,,,,,,,,,,,,,,,
,,,,,V3_040,21,Female,2024-10-28_17h01.19.351,jersey_experiment_5_v3,2023.2.2,Win32,85.47008547,,,,,,,,,,,,,,,,818.6748,820.2275,820.2275,820.957,return,0.1197,,51.171875,,,,,,FBP-OG-71.png,0.37,1.2,32,0.75,,,,,,,,,,,,,,,,,,0,40,40,31,1,,,,,,,,,,,,,,,,,,,,,,,
,,,,,V3_040,21,Female,2024-10-28_17h01.19.351,jersey_experiment_5_v3,2023.2.2,Win32,85.47008547,,,,,,,,,,,,,,,,820.9572,822.2511,822.2512,823.1571,return,0.1492,,69.01041667,,,,,,FBP-YG-19.png,0.4,1.2,13,0.5,,,,,,,,,,,,,,,,,,0,41,41,12,1,,,,,,,,,,,,,,,,,,,,,,,
,,,,,V3_040,21,Female,2024-10-28_17h01.19.351,jersey_experiment_5_v3,2023.2.2,Win32,85.47008547,,,,,,,,,,,,,,,,823.1573,824.4511,824.4512,825.4983,return,0.1009,,83.07291667,,,,,,FBP-PT-81.png,0.45,1.2,25,0.5,,,,,,,,,,,,,,,,,,0,42,42,24,1,,,,,,,,,,,,,,,,,,,,,,,
,,,,,V3_040,21,Female,2024-10-28_17h01.19.351,jersey_experiment_5_v3,2023.2.2,Win32,85.47008547,,,,,,,,,,,,,,,,825.4985,826.7925,826.7925,827.8984,return,0.1138,,82.94270833,,,,,,FBP-YG-17.png,0.43,1.2,4,0.5,,,,,,,,,,,,,,,,,,0,43,43,3,1,,,,,,,,,,,,,,,,,,,,,,,
,,,,,V3_040,21,Female,2024-10-28_17h01.19.351,jersey_experiment_5_v3,2023.2.2,Win32,85.47008547,,,,,,,,,,,,,,,,827.8986,829.4514,829.4514,830.4514,return,0.0573,,64.19270833,,,,,,FBP-OG-91.png,0.4,1.2,43,0.75,,,,,,,,,,,,,,,,,,0,44,44,42,1,,,,,,,,,,,,,,,,,,,,,,,
,,,,,V3_040,21,Female,2024-10-28_17h01.19.351,jersey_experiment_5_v3,2023.2.2,Win32,85.47008547,,,,,,,,,,,,,,,,830.4516,832.0045,832.0046,833.2631,return,0.1802,,41.40625,,,,,,FBP-OG-71.png,0.35,1.2,31,0.75,,,,,,,,,,,,,,,,,,0,45,45,30,1,,,,,,,,,,,,,,,,,,,,,,,
,,,,,V3_040,21,Female,2024-10-28_17h01.19.351,jersey_experiment_5_v3,2023.2.2,Win32,85.47008547,,,,,,,,,,,,,,,,833.2635,834.5574,834.5575,835.3223,return,0.0426,,64.32291667,,,,,,FBP-PT-91.png,0.43,1.2,29,0.5,,,,,,,,,,,,,,,,,,0,46,46,28,1,,,,,,,,,,,,,,,,,,,,,,,
,,,,,V3_040,21,Female,2024-10-28_17h01.19.351,jersey_experiment_5_v3,2023.2.2,Win32,85.47008547,,,,,,,,,,,,,,,,835.3225,836.8753,836.8753,837.5341,return,0.1085,,75.26041667,,,,,,FBP-OG-91.png,0.45,1.2,45,0.75,,,,,,,,,,,,,,,,,,0,47,47,44,1,,,,,,,,,,,,,,,,,,,,,,,
,,,,,V3_040,21,Female,2024-10-28_17h01.19.351,jersey_experiment_5_v3,2023.2.2,Win32,85.47008547,,,,,,,,,,,,,,,,837.5344,839.087,839.087,839.6636,return,0.0244,,80.20833333,,,,,,FBP-OG-81.png,0.43,1.2,39,0.75,,,,,,,,,,,,,,,,,,0,48,48,38,1,,,,,,,,,,,,,,,,,,,,,,,
,,,,,V3_040,21,Female,2024-10-28_17h01.19.351,jersey_experiment_5_v3,2023.2.2,Win32,85.47008547,,,,,,,,,,,,,,,,839.6638,840.9579,840.9579,841.8282,return,0.0732,,55.72916667,,,,,,FBP-YG-17.png,0.4,1.2,3,0.5,,,,,,,,,,,,,,,,,,0,49,49,2,1,,,,,,,,,,,,,,,,,,,,,,,
,,,,,V3_040,21,Female,2024-10-28_17h01.19.351,jersey_experiment_5_v3,2023.2.2,Win32,85.47008547,,,,,,,,,,,,,,,,841.8284,843.1225,843.1226,843.8283,return,0.1206,,42.70833333,,,,,,FBP-RB-91.png,0.35,1.2,56,0.5,,,,,,,,,,,,,,,,,,0,50,50,55,1,,,,,,,,,,,,,,,,,,,,,,,
,,,,,V3_040,21,Female,2024-10-28_17h01.19.351,jersey_experiment_5_v3,2023.2.2,Win32,85.47008547,,,,,,,,,,,,,,,,843.8285,845.3816,845.3817,846.1579,return,0.0731,,78.64583333,,,,,,FBP-OG-81.png,0.45,1.2,40,0.75,,,,,,,,,,,,,,,,,,0,51,51,39,1,,,,,,,,,,,,,,,,,,,,,,,
,,,,,V3_040,21,Female,2024-10-28_17h01.19.351,jersey_experiment_5_v3,2023.2.2,Win32,85.47008547,,,,,,,,,,,,,,,,846.1581,847.452,847.4521,848.2873,return,0.1541,,69.53125,,,,,,FBP-RB-81.png,0.4,1.2,53,0.5,,,,,,,,,,,,,,,,,,0,52,52,52,1,,,,,,,,,,,,,,,,,,,,,,,
,,,,,V3_040,21,Female,2024-10-28_17h01.19.351,jersey_experiment_5_v3,2023.2.2,Win32,85.47008547,,,,,,,,,,,,,,,,848.2876,849.5815,849.5816,851.6522,return,1.0121,,50,,,,,,FBP-PT-81.png,0.35,1.2,21,0.5,,,,,,,,,,,,,,,,,,0,53,53,20,1,,,,,,,,,,,,,,,,,,,,,,,
,,,,,V3_040,21,Female,2024-10-28_17h01.19.351,jersey_experiment_5_v3,2023.2.2,Win32,85.47008547,,,,,,,,,,,,,,,,851.6525,852.9462,852.9464,854.1582,return,0.1333,,59.765625,,,,,,FBP-RB-91.png,0.4,1.2,58,0.5,,,,,,,,,,,,,,,,,,0,54,54,57,1,,,,,,,,,,,,,,,,,,,,,,,
,,,,,V3_040,21,Female,2024-10-28_17h01.19.351,jersey_experiment_5_v3,2023.2.2,Win32,85.47008547,,,,,,,,,,,,,,,,854.1585,855.4522,855.4523,856.2288,return,0.1869,,77.34375,,,,,,FBP-RB-91.png,0.45,1.2,60,0.5,,,,,,,,,,,,,,,,,,0,55,55,59,1,,,,,,,,,,,,,,,,,,,,,,,
,,,,,V3_040,21,Female,2024-10-28_17h01.19.351,jersey_experiment_5_v3,2023.2.2,Win32,85.47008547,,,,,,,,,,,,,,,,856.229,857.523,857.523,858.4995,return,0.1414,,75.26041667,,,,,,FBP-YG-18.png,0.4,1.2,8,0.5,,,,,,,,,,,,,,,,,,0,56,56,7,1,,,,,,,,,,,,,,,,,,,,,,,
,,,,,V3_040,21,Female,2024-10-28_17h01.19.351,jersey_experiment_5_v3,2023.2.2,Win32,85.47008547,,,,,,,,,,,,,,,,858.4999,860.0527,860.0528,861.2761,return,0.0848,,52.34375,,,,,,FBP-OG-91.png,0.35,1.2,41,0.75,,,,,,,,,,,,,,,,,,0,57,57,40,1,,,,,,,,,,,,,,,,,,,,,,,
,,,,,V3_040,21,Female,2024-10-28_17h01.19.351,jersey_experiment_5_v3,2023.2.2,Win32,85.47008547,,,,,,,,,,,,,,,,861.2763,862.5703,862.5703,863.3704,return,0.0652,,71.22395833,,,,,,FBP-PT-81.png,0.4,1.2,23,0.5,,,,,,,,,,,,,,,,,,0,58,58,22,1,,,,,,,,,,,,,,,,,,,,,,,
,,,,,V3_040,21,Female,2024-10-28_17h01.19.351,jersey_experiment_5_v3,2023.2.2,Win32,85.47008547,,,,,,,,,,,,,,,,863.3706,864.6644,864.6645,865.7233,return,0.1482,,53.125,,,,,,FBP-PT-71.png,0.37,1.2,17,0.5,,,,,,,,,,,,,,,,,,0,59,59,16,1,,,,,,,,,,,,,,,,,,,,,,,
,,,,,V3_040,21,Female,2024-10-28_17h01.19.351,jersey_experiment_5_v3,2023.2.2,Win32,85.47008547,,,,,,,,,,,,,,,,,,,,,,,,,,,,,,,,,,,,,,,,,,,,,,,,,,,,,,,,865.7235,870.1236,return,4.3915,,,,,,,,,,,,,,,,,,,
,,,,,V3_040,21,Female,2024-10-28_17h01.19.351,jersey_experiment_5_v3,2023.2.2,Win32,85.47008547,,,,,,,,,,,,,,,,,,,,,,,,,,,,,,,,,,,,,,,,,,,,,,,,,,,,,,,,,,,,,870.1238,875.1356,1,3.6773,return,1.3202,,,,,,,,,,,,
,,,,,V3_040,21,Female,2024-10-28_17h01.19.351,jersey_experiment_5_v3,2023.2.2,Win32,85.47008547,,,,,,,,,,,,,,,,,,,,,,,,,,,,,,,,,,,,,,,,,,,,,,,,,,,,,,,,,,,,,,,,,,,,875.1358,901.0548,there would be a lot of huskier ones in a row followed by one slimmer one,right,15.5061,,,,,,
,,,,,V3_040,21,Female,2024-10-28_17h01.19.351,jersey_experiment_5_v3,2023.2.2,Win32,85.47008547,,,,,,,,,,,,,,,,,,,,,,,,,,,,,,,,,,,,,,,,,,,,,,,,,,,,,,,,,,,,,,,,,,,,,,,,,,901.0549,903.9837,return,2.9193,