requirements.started,requirements.stopped,key_resp_3.keys,key_resp_3.rt,key_resp_3.duration,Subject ID,Age,Gender,date,expName,psychopyVersion,OS,frameRate,instructions1.started,instructions1.stopped,key_resp.keys,key_resp.rt,key_resp.duration,example.started,example.stopped,enter_2.keys,enter_2.rt,enter_2.duration,instructions2.started,instructions2.stopped,enter_3.keys,enter_3.rt,enter_3.duration,image.started,image.stopped,slider_2.started,slider_2.stopped,next.keys,next.rt,next.duration,slider.response,trial_block_1.thisRepN,trial_block_1.thisTrialN,trial_block_1.thisN,trial_block_1.thisIndex,trial_block_1.ran,Path,Width,Height,Index,Duration,trial_block_2.thisRepN,trial_block_2.thisTrialN,trial_block_2.thisN,trial_block_2.thisIndex,trial_block_2.ran,rest_break.started,rest_break.stopped,end_break.started,end_break.stopped,key_resp_5.keys,key_resp_5.rt,key_resp_5.duration,trial_block_3.thisRepN,trial_block_3.thisTrialN,trial_block_3.thisN,trial_block_3.thisIndex,trial_block_3.ran,trial_block_4.thisRepN,trial_block_4.thisTrialN,trial_block_4.thisN,trial_block_4.thisIndex,trial_block_4.ran,questions_intro.started,questions_intro.stopped,enter_12.keys,enter_12.rt,enter_12.duration,question2.started,question2.stopped,question_doingbest.response,question_doingbest.rt,enter_15.keys,enter_15.rt,enter_15.duration,pattern.started,pattern.stopped,pattern_2.text,enter_17.keys,enter_17.rt,enter_17.duration,thankyou.started,thankyou.stopped,enter_14.keys,enter_14.rt,enter_14.duration
0,29.3069,return,29.2987,,V3_015,18,Male,2024-10-15_21h02.33.962,jersey_experiment_5_v3,2023.2.2,Win32,84.74576271,,,,,,,,,,,,,,,,,,,,,,,,,,,,,,,,,,,,,,,,,,,,,,,,,,,,,,,,,,,,,,,,,,,,,,,,,,,,,,
,,,,,V3_015,18,Male,2024-10-15_21h02.33.962,jersey_experiment_5_v3,2023.2.2,Win32,84.74576271,29.307,43.5943,return,14.2724,,,,,,,,,,,,,,,,,,,,,,,,,,,,,,,,,,,,,,,,,,,,,,,,,,,,,,,,,,,,,,,,,,,,,,,,,,
,,,,,V3_015,18,Male,2024-10-15_21h02.33.962,jersey_experiment_5_v3,2023.2.2,Win32,84.74576271,,,,,,43.5944,53.1781,return,9.5564,,,,,,,,,,,,,,,,,,,,,,,,,,,,,,,,,,,,,,,,,,,,,,,,,,,,,,,,,,,,,,,,,,,,,
,,,,,V3_015,18,Male,2024-10-15_21h02.33.962,jersey_experiment_5_v3,2023.2.2,Win32,84.74576271,,,,,,,,,,,53.1783,87.6032,return,34.4126,,,,,,,,,,,,,,,,,,,,,,,,,,,,,,,,,,,,,,,,,,,,,,,,,,,,,,,,,,,,,,,,
,,,,,V3_015,18,Male,2024-10-15_21h02.33.962,jersey_experiment_5_v3,2023.2.2,Win32,84.74576271,,,,,,,,,,,,,,,,87.6056,89.156,89.156,106.5448,return,3.2631,,74.609375,0,0,0,21,1,FBP-PT-18.png,0.37,1.2,22,0.75,,,,,,,,,,,,,,,,,,,,,,,,,,,,,,,,,,,,,,,,,,,,,
,,,,,V3_015,18,Male,2024-10-15_21h02.33.962,jersey_experiment_5_v3,2023.2.2,Win32,84.74576271,,,,,,,,,,,,,,,,106.5451,108.0978,108.0978,110.6862,return,1.2402,,99.21875,0,1,1,58,1,FBP-RB-19.png,0.43,1.2,59,0.75,,,,,,,,,,,,,,,,,,,,,,,,,,,,,,,,,,,,,,,,,,,,,
,,,,,V3_015,18,Male,2024-10-15_21h02.33.962,jersey_experiment_5_v3,2023.2.2,Win32,84.74576271,,,,,,,,,,,,,,,,110.6866,111.9804,111.9804,115.2981,return,0.9806,,73.95833333,0,2,2,36,1,FBP-OG-18.png,0.37,1.2,37,0.5,,,,,,,,,,,,,,,,,,,,,,,,,,,,,,,,,,,,,,,,,,,,,
,,,,,V3_015,18,Male,2024-10-15_21h02.33.962,jersey_experiment_5_v3,2023.2.2,Win32,84.74576271,,,,,,,,,,,,,,,,115.2984,116.5923,116.5923,122.1925,return,3.7427,,50.26041667,0,3,3,35,1,FBP-OG-18.png,0.35,1.2,36,0.5,,,,,,,,,,,,,,,,,,,,,,,,,,,,,,,,,,,,,,,,,,,,,
,,,,,V3_015,18,Male,2024-10-15_21h02.33.962,jersey_experiment_5_v3,2023.2.2,Win32,84.74576271,,,,,,,,,,,,,,,,122.1927,123.7339,123.7339,126.1808,return,0.9256,,100,0,4,4,48,1,FBP-RB-17.png,0.43,1.2,49,0.75,,,,,,,,,,,,,,,,,,,,,,,,,,,,,,,,,,,,,,,,,,,,,
,,,,,V3_015,18,Male,2024-10-15_21h02.33.962,jersey_experiment_5_v3,2023.2.2,Win32,84.74576271,,,,,,,,,,,,,,,,126.1811,127.7341,127.7341,130.0281,return,0.591,,86.71875,0,5,5,52,1,FBP-RB-18.png,0.4,1.2,53,0.75,,,,,,,,,,,,,,,,,,,,,,,,,,,,,,,,,,,,,,,,,,,,,
,,,,,V3_015,18,Male,2024-10-15_21h02.33.962,jersey_experiment_5_v3,2023.2.2,Win32,84.74576271,,,,,,,,,,,,,,,,130.0283,131.3223,131.3223,133.3458,return,0.4138,,44.40104167,0,6,6,30,1,FBP-OG-17.png,0.35,1.2,31,0.5,,,,,,,,,,,,,,,,,,,,,,,,,,,,,,,,,,,,,,,,,,,,,
,,,,,V3_015,18,Male,2024-10-15_21h02.33.962,jersey_experiment_5_v3,2023.2.2,Win32,84.74576271,,,,,,,,,,,,,,,,133.346,134.8991,134.8992,140.2755,return,1.7282,,100,0,7,7,19,1,FBP-PT-17.png,0.45,1.2,20,0.75,,,,,,,,,,,,,,,,,,,,,,,,,,,,,,,,,,,,,,,,,,,,,
,,,,,V3_015,18,Male,2024-10-15_21h02.33.962,jersey_experiment_5_v3,2023.2.2,Win32,84.74576271,,,,,,,,,,,,,,,,140.2758,141.8285,141.8286,144.158,return,0.5461,,99.47916667,0,8,8,17,1,FBP-PT-17.png,0.4,1.2,18,0.75,,,,,,,,,,,,,,,,,,,,,,,,,,,,,,,,,,,,,,,,,,,,,
,,,,,V3_015,18,Male,2024-10-15_21h02.33.962,jersey_experiment_5_v3,2023.2.2,Win32,84.74576271,,,,,,,,,,,,,,,,144.1583,145.7109,145.711,150.5112,return,0.4588,,65.88541667,0,9,9,55,1,FBP-RB-19.png,0.35,1.2,56,0.75,,,,,,,,,,,,,,,,,,,,,,,,,,,,,,,,,,,,,,,,,,,,,
,,,,,V3_015,18,Male,2024-10-15_21h02.33.962,jersey_experiment_5_v3,2023.2.2,Win32,84.74576271,,,,,,,,,,,,,,,,150.5115,151.8054,151.8054,155.7701,return,1.4164,,99.609375,0,10,10,39,1,FBP-OG-18.png,0.45,1.2,40,0.5,,,,,,,,,,,,,,,,,,,,,,,,,,,,,,,,,,,,,,,,,,,,,
,,,,,V3_015,18,Male,2024-10-15_21h02.33.962,jersey_experiment_5_v3,2023.2.2,Win32,84.74576271,,,,,,,,,,,,,,,,155.7703,157.3114,157.3115,158.5232,return,0.2645,,99.86979167,0,11,11,14,1,FBP-YG-91.png,0.45,1.2,15,0.75,,,,,,,,,,,,,,,,,,,,,,,,,,,,,,,,,,,,,,,,,,,,,
,,,,,V3_015,18,Male,2024-10-15_21h02.33.962,jersey_experiment_5_v3,2023.2.2,Win32,84.74576271,,,,,,,,,,,,,,,,158.5236,159.8173,159.8174,161.4763,return,0.4314,,92.05729167,0,12,12,32,1,FBP-OG-17.png,0.4,1.2,33,0.5,,,,,,,,,,,,,,,,,,,,,,,,,,,,,,,,,,,,,,,,,,,,,
,,,,,V3_015,18,Male,2024-10-15_21h02.33.962,jersey_experiment_5_v3,2023.2.2,Win32,84.74576271,,,,,,,,,,,,,,,,161.4765,163.0294,163.0295,164.0529,return,0.2132,,96.09375,0,13,13,27,1,FBP-PT-19.png,0.4,1.2,28,0.75,,,,,,,,,,,,,,,,,,,,,,,,,,,,,,,,,,,,,,,,,,,,,
,,,,,V3_015,18,Male,2024-10-15_21h02.33.962,jersey_experiment_5_v3,2023.2.2,Win32,84.74576271,,,,,,,,,,,,,,,,164.0532,165.3471,165.3471,168.453,return,0.1655,,70.703125,0,14,14,37,1,FBP-OG-18.png,0.4,1.2,38,0.5,,,,,,,,,,,,,,,,,,,,,,,,,,,,,,,,,,,,,,,,,,,,,
,,,,,V3_015,18,Male,2024-10-15_21h02.33.962,jersey_experiment_5_v3,2023.2.2,Win32,84.74576271,,,,,,,,,,,,,,,,168.4533,170.0061,170.0061,171.8885,return,0.5794,,99.34895833,0,15,15,29,1,FBP-PT-19.png,0.45,1.2,30,0.75,,,,,,,,,,,,,,,,,,,,,,,,,,,,,,,,,,,,,,,,,,,,,
,,,,,V3_015,18,Male,2024-10-15_21h02.33.962,jersey_experiment_5_v3,2023.2.2,Win32,84.74576271,,,,,,,,,,,,,,,,171.8887,173.4415,173.4416,175.0063,return,0.2266,,92.31770833,0,16,16,15,1,FBP-PT-17.png,0.35,1.2,16,0.75,,,,,,,,,,,,,,,,,,,,,,,,,,,,,,,,,,,,,,,,,,,,,
,,,,,V3_015,18,Male,2024-10-15_21h02.33.962,jersey_experiment_5_v3,2023.2.2,Win32,84.74576271,,,,,,,,,,,,,,,,175.0065,176.5593,176.5594,178.9004,return,0.2281,,99.73958333,0,17,17,8,1,FBP-YG-81.png,0.43,1.2,9,0.75,,,,,,,,,,,,,,,,,,,,,,,,,,,,,,,,,,,,,,,,,,,,,
,,,,,V3_015,18,Male,2024-10-15_21h02.33.962,jersey_experiment_5_v3,2023.2.2,Win32,84.74576271,,,,,,,,,,,,,,,,178.9006,180.4417,180.4418,181.1947,return,0.2197,,99.73958333,0,18,18,49,1,FBP-RB-17.png,0.45,1.2,50,0.75,,,,,,,,,,,,,,,,,,,,,,,,,,,,,,,,,,,,,,,,,,,,,
,,,,,V3_015,18,Male,2024-10-15_21h02.33.962,jersey_experiment_5_v3,2023.2.2,Win32,84.74576271,,,,,,,,,,,,,,,,181.1949,182.489,182.489,186.3832,return,0.3291,,80.46875,0,19,19,41,1,FBP-OG-19.png,0.37,1.2,42,0.5,,,,,,,,,,,,,,,,,,,,,,,,,,,,,,,,,,,,,,,,,,,,,
,,,,,V3_015,18,Male,2024-10-15_21h02.33.962,jersey_experiment_5_v3,2023.2.2,Win32,84.74576271,,,,,,,,,,,,,,,,186.3834,187.9363,187.9363,189.395,return,0.2112,,99.86979167,0,20,20,59,1,FBP-RB-19.png,0.45,1.2,60,0.75,,,,,,,,,,,,,,,,,,,,,,,,,,,,,,,,,,,,,,,,,,,,,
,,,,,V3_015,18,Male,2024-10-15_21h02.33.962,jersey_experiment_5_v3,2023.2.2,Win32,84.74576271,,,,,,,,,,,,,,,,189.3952,190.948,190.948,196.4658,return,1.4459,,26.30208333,0,21,21,16,1,FBP-PT-17.png,0.37,1.2,17,0.75,,,,,,,,,,,,,,,,,,,,,,,,,,,,,,,,,,,,,,,,,,,,,
,,,,,V3_015,18,Male,2024-10-15_21h02.33.962,jersey_experiment_5_v3,2023.2.2,Win32,84.74576271,,,,,,,,,,,,,,,,196.4661,198.0189,198.019,199.76,return,0.2012,,27.86458333,0,22,22,51,1,FBP-RB-18.png,0.37,1.2,52,0.75,,,,,,,,,,,,,,,,,,,,,,,,,,,,,,,,,,,,,,,,,,,,,
,,,,,V3_015,18,Male,2024-10-15_21h02.33.962,jersey_experiment_5_v3,2023.2.2,Win32,84.74576271,,,,,,,,,,,,,,,,199.7604,201.3132,201.3133,202.6542,return,0.1795,,99.609375,0,23,23,4,1,FBP-YG-71.png,0.45,1.2,5,0.75,,,,,,,,,,,,,,,,,,,,,,,,,,,,,,,,,,,,,,,,,,,,,
,,,,,V3_015,18,Male,2024-10-15_21h02.33.962,jersey_experiment_5_v3,2023.2.2,Win32,84.74576271,,,,,,,,,,,,,,,,202.6545,204.2073,204.2074,205.9955,return,0.2742,,29.81770833,0,24,24,46,1,FBP-RB-17.png,0.37,1.2,47,0.75,,,,,,,,,,,,,,,,,,,,,,,,,,,,,,,,,,,,,,,,,,,,,
,,,,,V3_015,18,Male,2024-10-15_21h02.33.962,jersey_experiment_5_v3,2023.2.2,Win32,84.74576271,,,,,,,,,,,,,,,,205.9958,207.5487,207.5488,208.7489,return,0.2031,,26.5625,0,25,25,45,1,FBP-RB-17.png,0.35,1.2,46,0.75,,,,,,,,,,,,,,,,,,,,,,,,,,,,,,,,,,,,,,,,,,,,,
,,,,,V3_015,18,Male,2024-10-15_21h02.33.962,jersey_experiment_5_v3,2023.2.2,Win32,84.74576271,,,,,,,,,,,,,,,,208.7492,210.3018,210.3018,211.8429,return,0.0703,,30.078125,0,26,26,5,1,FBP-YG-81.png,0.35,1.2,6,0.75,,,,,,,,,,,,,,,,,,,,,,,,,,,,,,,,,,,,,,,,,,,,,
,,,,,V3_015,18,Male,2024-10-15_21h02.33.962,jersey_experiment_5_v3,2023.2.2,Win32,84.74576271,,,,,,,,,,,,,,,,211.8431,213.396,213.396,215.1724,return,0.3164,,99.86979167,0,27,27,13,1,FBP-YG-91.png,0.43,1.2,14,0.75,,,,,,,,,,,,,,,,,,,,,,,,,,,,,,,,,,,,,,,,,,,,,
,,,,,V3_015,18,Male,2024-10-15_21h02.33.962,jersey_experiment_5_v3,2023.2.2,Win32,84.74576271,,,,,,,,,,,,,,,,215.1728,216.4666,216.4666,217.1255,return,0.1968,,98.828125,0,28,28,33,1,FBP-OG-17.png,0.43,1.2,34,0.5,,,,,,,,,,,,,,,,,,,,,,,,,,,,,,,,,,,,,,,,,,,,,
,,,,,V3_015,18,Male,2024-10-15_21h02.33.962,jersey_experiment_5_v3,2023.2.2,Win32,84.74576271,,,,,,,,,,,,,,,,217.1257,218.6787,218.6787,219.9021,return,0.1933,,80.078125,0,29,29,1,1,FBP-YG-71.png,0.37,1.2,2,0.75,,,,,,,,,,,,,,,,,,,,,,,,,,,,,,,,,,,,,,,,,,,,,
,,,,,V3_015,18,Male,2024-10-15_21h02.33.962,jersey_experiment_5_v3,2023.2.2,Win32,84.74576271,,,,,,,,,,,,,,,,219.9023,221.4551,221.4551,222.7021,return,0.1089,,71.61458333,0,30,30,6,1,FBP-YG-81.png,0.37,1.2,7,0.75,,,,,,,,,,,,,,,,,,,,,,,,,,,,,,,,,,,,,,,,,,,,,
,,,,,V3_015,18,Male,2024-10-15_21h02.33.962,jersey_experiment_5_v3,2023.2.2,Win32,84.74576271,,,,,,,,,,,,,,,,222.7024,224.2551,224.2551,225.514,return,0.0677,,75.13020833,0,31,31,11,1,FBP-YG-91.png,0.37,1.2,12,0.75,,,,,,,,,,,,,,,,,,,,,,,,,,,,,,,,,,,,,,,,,,,,,
,,,,,V3_015,18,Male,2024-10-15_21h02.33.962,jersey_experiment_5_v3,2023.2.2,Win32,84.74576271,,,,,,,,,,,,,,,,225.5142,227.0673,227.0673,228.5729,return,0.1689,,92.05729167,0,32,32,2,1,FBP-YG-71.png,0.4,1.2,3,0.75,,,,,,,,,,,,,,,,,,,,,,,,,,,,,,,,,,,,,,,,,,,,,
,,,,,V3_015,18,Male,2024-10-15_21h02.33.962,jersey_experiment_5_v3,2023.2.2,Win32,84.74576271,,,,,,,,,,,,,,,,228.5731,230.1262,230.1262,231.4906,return,0.3902,,98.95833333,0,33,33,53,1,FBP-RB-18.png,0.43,1.2,54,0.75,,,,,,,,,,,,,,,,,,,,,,,,,,,,,,,,,,,,,,,,,,,,,
,,,,,V3_015,18,Male,2024-10-15_21h02.33.962,jersey_experiment_5_v3,2023.2.2,Win32,84.74576271,,,,,,,,,,,,,,,,231.491,232.7848,232.7848,234.2084,return,0.2142,,74.34895833,0,34,34,40,1,FBP-OG-19.png,0.35,1.2,41,0.5,,,,,,,,,,,,,,,,,,,,,,,,,,,,,,,,,,,,,,,,,,,,,
,,,,,V3_015,18,Male,2024-10-15_21h02.33.962,jersey_experiment_5_v3,2023.2.2,Win32,84.74576271,,,,,,,,,,,,,,,,234.2087,235.7614,235.7614,238.1733,return,0.3078,,93.22916667,0,35,35,3,1,FBP-YG-71.png,0.43,1.2,4,0.75,,,,,,,,,,,,,,,,,,,,,,,,,,,,,,,,,,,,,,,,,,,,,
,,,,,V3_015,18,Male,2024-10-15_21h02.33.962,jersey_experiment_5_v3,2023.2.2,Win32,84.74576271,,,,,,,,,,,,,,,,238.1736,239.7265,239.7265,241.6323,return,0.6264,,99.34895833,0,36,36,18,1,FBP-PT-17.png,0.43,1.2,19,0.75,,,,,,,,,,,,,,,,,,,,,,,,,,,,,,,,,,,,,,,,,,,,,
,,,,,V3_015,18,Male,2024-10-15_21h02.33.962,jersey_experiment_5_v3,2023.2.2,Win32,84.74576271,,,,,,,,,,,,,,,,241.6325,242.9265,242.9266,243.503,return,0.1768,,99.34895833,0,37,37,43,1,FBP-OG-19.png,0.43,1.2,44,0.5,,,,,,,,,,,,,,,,,,,,,,,,,,,,,,,,,,,,,,,,,,,,,
,,,,,V3_015,18,Male,2024-10-15_21h02.33.962,jersey_experiment_5_v3,2023.2.2,Win32,84.74576271,,,,,,,,,,,,,,,,243.5032,244.7971,244.7972,245.3383,return,0.1028,,99.21875,0,38,38,34,1,FBP-OG-17.png,0.45,1.2,35,0.5,,,,,,,,,,,,,,,,,,,,,,,,,,,,,,,,,,,,,,,,,,,,,
,,,,,V3_015,18,Male,2024-10-15_21h02.33.962,jersey_experiment_5_v3,2023.2.2,Win32,84.74576271,,,,,,,,,,,,,,,,245.3386,246.6325,246.6325,248.703,return,0.0979,,23.95833333,0,39,39,31,1,FBP-OG-17.png,0.37,1.2,32,0.5,,,,,,,,,,,,,,,,,,,,,,,,,,,,,,,,,,,,,,,,,,,,,
,,,,,V3_015,18,Male,2024-10-15_21h02.33.962,jersey_experiment_5_v3,2023.2.2,Win32,84.74576271,,,,,,,,,,,,,,,,248.7032,250.2561,250.2561,250.7972,return,0.1939,,25.13020833,0,40,40,10,1,FBP-YG-91.png,0.35,1.2,11,0.75,,,,,,,,,,,,,,,,,,,,,,,,,,,,,,,,,,,,,,,,,,,,,
,,,,,V3_015,18,Male,2024-10-15_21h02.33.962,jersey_experiment_5_v3,2023.2.2,Win32,84.74576271,,,,,,,,,,,,,,,,250.7976,252.0914,252.0914,255.0916,return,0.014,,25.26041667,0,41,41,42,1,FBP-OG-19.png,0.4,1.2,43,0.5,,,,,,,,,,,,,,,,,,,,,,,,,,,,,,,,,,,,,,,,,,,,,
,,,,,V3_015,18,Male,2024-10-15_21h02.33.962,jersey_experiment_5_v3,2023.2.2,Win32,84.74576271,,,,,,,,,,,,,,,,255.0919,256.6446,256.6447,259.3388,return,0.1963,,99.08854167,0,42,42,9,1,FBP-YG-81.png,0.45,1.2,10,0.75,,,,,,,,,,,,,,,,,,,,,,,,,,,,,,,,,,,,,,,,,,,,,
,,,,,V3_015,18,Male,2024-10-15_21h02.33.962,jersey_experiment_5_v3,2023.2.2,Win32,84.74576271,,,,,,,,,,,,,,,,259.3391,260.8921,260.8921,263.6803,return,1.1688,,22.65625,0,43,43,22,1,FBP-PT-18.png,0.4,1.2,23,0.75,,,,,,,,,,,,,,,,,,,,,,,,,,,,,,,,,,,,,,,,,,,,,
,,,,,V3_015,18,Male,2024-10-15_21h02.33.962,jersey_experiment_5_v3,2023.2.2,Win32,84.74576271,,,,,,,,,,,,,,,,263.6805,265.2332,265.2332,267.7273,return,0.1436,,75,0,44,44,23,1,FBP-PT-18.png,0.43,1.2,24,0.75,,,,,,,,,,,,,,,,,,,,,,,,,,,,,,,,,,,,,,,,,,,,,
,,,,,V3_015,18,Male,2024-10-15_21h02.33.962,jersey_experiment_5_v3,2023.2.2,Win32,84.74576271,,,,,,,,,,,,,,,,267.7275,269.0216,269.0216,270.9276,return,0.2038,,99.21875,0,45,45,38,1,FBP-OG-18.png,0.43,1.2,39,0.5,,,,,,,,,,,,,,,,,,,,,,,,,,,,,,,,,,,,,,,,,,,,,
,,,,,V3_015,18,Male,2024-10-15_21h02.33.962,jersey_experiment_5_v3,2023.2.2,Win32,84.74576271,,,,,,,,,,,,,,,,270.9278,272.4807,272.4807,273.8688,return,0.0961,,24.73958333,0,46,46,0,1,FBP-YG-71.png,0.35,1.2,1,0.75,,,,,,,,,,,,,,,,,,,,,,,,,,,,,,,,,,,,,,,,,,,,,
,,,,,V3_015,18,Male,2024-10-15_21h02.33.962,jersey_experiment_5_v3,2023.2.2,Win32,84.74576271,,,,,,,,,,,,,,,,273.869,275.4219,275.4219,276.3159,return,0.0659,,24.609375,0,47,47,50,1,FBP-RB-18.png,0.35,1.2,51,0.75,,,,,,,,,,,,,,,,,,,,,,,,,,,,,,,,,,,,,,,,,,,,,
,,,,,V3_015,18,Male,2024-10-15_21h02.33.962,jersey_experiment_5_v3,2023.2.2,Win32,84.74576271,,,,,,,,,,,,,,,,276.3163,277.869,277.8691,279.1159,return,0.1937,,52.21354167,0,48,48,57,1,FBP-RB-19.png,0.4,1.2,58,0.75,,,,,,,,,,,,,,,,,,,,,,,,,,,,,,,,,,,,,,,,,,,,,
,,,,,V3_015,18,Male,2024-10-15_21h02.33.962,jersey_experiment_5_v3,2023.2.2,Win32,84.74576271,,,,,,,,,,,,,,,,279.1162,280.669,280.669,281.6809,return,0.1333,,42.83854167,0,49,49,26,1,FBP-PT-19.png,0.37,1.2,27,0.75,,,,,,,,,,,,,,,,,,,,,,,,,,,,,,,,,,,,,,,,,,,,,
,,,,,V3_015,18,Male,2024-10-15_21h02.33.962,jersey_experiment_5_v3,2023.2.2,Win32,84.74576271,,,,,,,,,,,,,,,,281.6812,283.2338,283.2339,284.4103,return,0.1136,,76.04166667,0,50,50,28,1,FBP-PT-19.png,0.43,1.2,29,0.75,,,,,,,,,,,,,,,,,,,,,,,,,,,,,,,,,,,,,,,,,,,,,
,,,,,V3_015,18,Male,2024-10-15_21h02.33.962,jersey_experiment_5_v3,2023.2.2,Win32,84.74576271,,,,,,,,,,,,,,,,284.4106,285.9635,285.9636,286.9634,return,0.1412,,80.20833333,0,51,51,7,1,FBP-YG-81.png,0.4,1.2,8,0.75,,,,,,,,,,,,,,,,,,,,,,,,,,,,,,,,,,,,,,,,,,,,,
,,,,,V3_015,18,Male,2024-10-15_21h02.33.962,jersey_experiment_5_v3,2023.2.2,Win32,84.74576271,,,,,,,,,,,,,,,,286.9636,288.5164,288.5165,290.187,return,0.4401,,99.73958333,0,52,52,54,1,FBP-RB-18.png,0.45,1.2,55,0.75,,,,,,,,,,,,,,,,,,,,,,,,,,,,,,,,,,,,,,,,,,,,,
,,,,,V3_015,18,Male,2024-10-15_21h02.33.962,jersey_experiment_5_v3,2023.2.2,Win32,84.74576271,,,,,,,,,,,,,,,,290.1874,291.74,291.7401,292.9636,return,0.0942,,24.21875,0,53,53,20,1,FBP-PT-18.png,0.35,1.2,21,0.75,,,,,,,,,,,,,,,,,,,,,,,,,,,,,,,,,,,,,,,,,,,,,
,,,,,V3_015,18,Male,2024-10-15_21h02.33.962,jersey_experiment_5_v3,2023.2.2,Win32,84.74576271,,,,,,,,,,,,,,,,292.9637,294.505,294.505,296.0578,return,0.1702,,99.609375,0,54,54,24,1,FBP-PT-18.png,0.45,1.2,25,0.75,,,,,,,,,,,,,,,,,,,,,,,,,,,,,,,,,,,,,,,,,,,,,
,,,,,V3_015,18,Male,2024-10-15_21h02.33.962,jersey_experiment_5_v3,2023.2.2,Win32,84.74576271,,,,,,,,,,,,,,,,296.0581,297.6108,297.6108,299.0579,return,0.0478,,24.86979167,0,55,55,56,1,FBP-RB-19.png,0.37,1.2,57,0.75,,,,,,,,,,,,,,,,,,,,,,,,,,,,,,,,,,,,,,,,,,,,,
,,,,,V3_015,18,Male,2024-10-15_21h02.33.962,jersey_experiment_5_v3,2023.2.2,Win32,84.74576271,,,,,,,,,,,,,,,,299.0582,300.6111,300.6112,302.0934,return,0.0997,,75.13020833,0,56,56,12,1,FBP-YG-91.png,0.4,1.2,13,0.75,,,,,,,,,,,,,,,,,,,,,,,,,,,,,,,,,,,,,,,,,,,,,
,,,,,V3_015,18,Male,2024-10-15_21h02.33.962,jersey_experiment_5_v3,2023.2.2,Win32,84.74576271,,,,,,,,,,,,,,,,302.0937,303.6464,303.6464,305.517,return,0.0888,,75,0,57,57,25,1,FBP-PT-19.png,0.35,1.2,26,0.75,,,,,,,,,,,,,,,,,,,,,,,,,,,,,,,,,,,,,,,,,,,,,
,,,,,V3_015,18,Male,2024-10-15_21h02.33.962,jersey_experiment_5_v3,2023.2.2,Win32,84.74576271,,,,,,,,,,,,,,,,305.5173,306.8111,306.8112,309.6348,return,0.1636,,99.86979167,0,58,58,44,1,FBP-OG-19.png,0.45,1.2,45,0.5,,,,,,,,,,,,,,,,,,,,,,,,,,,,,,,,,,,,,,,,,,,,,
,,,,,V3_015,18,Male,2024-10-15_21h02.33.962,jersey_experiment_5_v3,2023.2.2,Win32,84.74576271,,,,,,,,,,,,,,,,309.6351,311.1878,311.1878,313.3409,return,0.1232,,75,0,59,59,47,1,FBP-RB-17.png,0.4,1.2,48,0.75,,,,,,,,,,,,,,,,,,,,,,,,,,,,,,,,,,,,,,,,,,,,,
,,,,,V3_015,18,Male,2024-10-15_21h02.33.962,jersey_experiment_5_v3,2023.2.2,Win32,84.74576271,,,,,,,,,,,,,,,,313.3428,314.8938,314.8939,316.9409,return,0.2019,,98.95833333,,,,,,FBP-RB-71.png,0.45,1.2,50,0.75,0,0,0,49,1,,,,,,,,,,,,,,,,,,,,,,,,,,,,,,,,,,,,,,,,
,,,,,V3_015,18,Male,2024-10-15_21h02.33.962,jersey_experiment_5_v3,2023.2.2,Win32,84.74576271,,,,,,,,,,,,,,,,316.9412,318.2352,318.2352,320.6705,return,0.1808,,74.86979167,,,,,,FBP-OG-81.png,0.37,1.2,37,0.5,0,1,1,36,1,,,,,,,,,,,,,,,,,,,,,,,,,,,,,,,,,,,,,,,,
,,,,,V3_015,18,Male,2024-10-15_21h02.33.962,jersey_experiment_5_v3,2023.2.2,Win32,84.74576271,,,,,,,,,,,,,,,,320.6708,322.2234,322.2234,323.0118,return,0.1513,,74.73958333,,,,,,FBP-RB-71.png,0.4,1.2,48,0.75,0,2,2,47,1,,,,,,,,,,,,,,,,,,,,,,,,,,,,,,,,,,,,,,,,
,,,,,V3_015,18,Male,2024-10-15_21h02.33.962,jersey_experiment_5_v3,2023.2.2,Win32,84.74576271,,,,,,,,,,,,,,,,323.0121,324.5648,324.5649,326.2708,return,0.4864,,99.73958333,,,,,,FBP-RB-81.png,0.45,1.2,55,0.75,0,3,3,54,1,,,,,,,,,,,,,,,,,,,,,,,,,,,,,,,,,,,,,,,,
,,,,,V3_015,18,Male,2024-10-15_21h02.33.962,jersey_experiment_5_v3,2023.2.2,Win32,84.74576271,,,,,,,,,,,,,,,,326.2711,327.8237,327.8238,329.2003,return,0.1287,,25,,,,,,FBP-RB-81.png,0.35,1.2,51,0.75,0,4,4,50,1,,,,,,,,,,,,,,,,,,,,,,,,,,,,,,,,,,,,,,,,
,,,,,V3_015,18,Male,2024-10-15_21h02.33.962,jersey_experiment_5_v3,2023.2.2,Win32,84.74576271,,,,,,,,,,,,,,,,329.2005,330.7535,330.7535,332.4944,return,0.1776,,99.73958333,,,,,,FBP-RB-71.png,0.43,1.2,49,0.75,0,5,5,48,1,,,,,,,,,,,,,,,,,,,,,,,,,,,,,,,,,,,,,,,,
,,,,,V3_015,18,Male,2024-10-15_21h02.33.962,jersey_experiment_5_v3,2023.2.2,Win32,84.74576271,,,,,,,,,,,,,,,,332.4946,333.7887,333.7887,334.4122,return,0.1129,,99.73958333,,,,,,FBP-OG-91.png,0.45,1.2,45,0.5,0,6,6,44,1,,,,,,,,,,,,,,,,,,,,,,,,,,,,,,,,,,,,,,,,
,,,,,V3_015,18,Male,2024-10-15_21h02.33.962,jersey_experiment_5_v3,2023.2.2,Win32,84.74576271,,,,,,,,,,,,,,,,334.4125,335.9652,335.9653,337.3769,return,0.1103,,74.73958333,,,,,,FBP-YG-17.png,0.43,1.2,4,0.75,0,7,7,3,1,,,,,,,,,,,,,,,,,,,,,,,,,,,,,,,,,,,,,,,,
,,,,,V3_015,18,Male,2024-10-15_21h02.33.962,jersey_experiment_5_v3,2023.2.2,Win32,84.74576271,,,,,,,,,,,,,,,,337.3772,338.6712,338.6712,339.1889,return,0.0963,,74.73958333,,,,,,FBP-OG-81.png,0.4,1.2,38,0.5,0,8,8,37,1,,,,,,,,,,,,,,,,,,,,,,,,,,,,,,,,,,,,,,,,
,,,,,V3_015,18,Male,2024-10-15_21h02.33.962,jersey_experiment_5_v3,2023.2.2,Win32,84.74576271,,,,,,,,,,,,,,,,339.1891,340.742,340.7421,341.789,return,0.1085,,24.86979167,,,,,,FBP-YG-19.png,0.35,1.2,11,0.75,0,9,9,10,1,,,,,,,,,,,,,,,,,,,,,,,,,,,,,,,,,,,,,,,,
,,,,,V3_015,18,Male,2024-10-15_21h02.33.962,jersey_experiment_5_v3,2023.2.2,Win32,84.74576271,,,,,,,,,,,,,,,,341.7891,343.342,343.342,343.8713,return,0.0943,,24.86979167,,,,,,FBP-RB-91.png,0.37,1.2,57,0.75,0,10,10,56,1,,,,,,,,,,,,,,,,,,,,,,,,,,,,,,,,,,,,,,,,
,,,,,V3_015,18,Male,2024-10-15_21h02.33.962,jersey_experiment_5_v3,2023.2.2,Win32,84.74576271,,,,,,,,,,,,,,,,343.8716,345.4245,345.4245,345.9538,return,0.0719,,24.86979167,,,,,,FBP-PT-91.png,0.37,1.2,27,0.75,0,11,11,26,1,,,,,,,,,,,,,,,,,,,,,,,,,,,,,,,,,,,,,,,,
,,,,,V3_015,18,Male,2024-10-15_21h02.33.962,jersey_experiment_5_v3,2023.2.2,Win32,84.74576271,,,,,,,,,,,,,,,,345.954,347.507,347.507,349.201,return,0.1432,,99.34895833,,,,,,FBP-PT-91.png,0.45,1.2,30,0.75,0,12,12,29,1,,,,,,,,,,,,,,,,,,,,,,,,,,,,,,,,,,,,,,,,
,,,,,V3_015,18,Male,2024-10-15_21h02.33.962,jersey_experiment_5_v3,2023.2.2,Win32,84.74576271,,,,,,,,,,,,,,,,349.2012,350.7539,350.754,352.0833,return,0.086,,24.34895833,,,,,,FBP-YG-17.png,0.35,1.2,1,0.75,0,13,13,0,1,,,,,,,,,,,,,,,,,,,,,,,,,,,,,,,,,,,,,,,,
,,,,,V3_015,18,Male,2024-10-15_21h02.33.962,jersey_experiment_5_v3,2023.2.2,Win32,84.74576271,,,,,,,,,,,,,,,,352.0835,353.6366,353.6367,355.1306,return,0.1027,,99.609375,,,,,,FBP-PT-81.png,0.45,1.2,25,0.75,0,14,14,24,1,,,,,,,,,,,,,,,,,,,,,,,,,,,,,,,,,,,,,,,,
,,,,,V3_015,18,Male,2024-10-15_21h02.33.962,jersey_experiment_5_v3,2023.2.2,Win32,84.74576271,,,,,,,,,,,,,,,,355.1309,356.6836,356.6836,358.9542,return,0.0677,,24.73958333,,,,,,FBP-PT-91.png,0.35,1.2,26,0.75,0,15,15,25,1,,,,,,,,,,,,,,,,,,,,,,,,,,,,,,,,,,,,,,,,
,,,,,V3_015,18,Male,2024-10-15_21h02.33.962,jersey_experiment_5_v3,2023.2.2,Win32,84.74576271,,,,,,,,,,,,,,,,358.9545,360.5075,360.5076,362.0131,return,0.1218,,74.609375,,,,,,FBP-YG-18.png,0.4,1.2,8,0.75,0,16,16,7,1,,,,,,,,,,,,,,,,,,,,,,,,,,,,,,,,,,,,,,,,
,,,,,V3_015,18,Male,2024-10-15_21h02.33.962,jersey_experiment_5_v3,2023.2.2,Win32,84.74576271,,,,,,,,,,,,,,,,362.0133,363.5662,363.5662,365.0839,return,0.219,,99.609375,,,,,,FBP-PT-71.png,0.45,1.2,20,0.75,0,17,17,19,1,,,,,,,,,,,,,,,,,,,,,,,,,,,,,,,,,,,,,,,,
,,,,,V3_015,18,Male,2024-10-15_21h02.33.962,jersey_experiment_5_v3,2023.2.2,Win32,84.74576271,,,,,,,,,,,,,,,,365.0842,366.637,366.637,369.79,return,0.1227,,74.34895833,,,,,,FBP-PT-81.png,0.35,1.2,21,0.75,0,18,18,20,1,,,,,,,,,,,,,,,,,,,,,,,,,,,,,,,,,,,,,,,,
,,,,,V3_015,18,Male,2024-10-15_21h02.33.962,jersey_experiment_5_v3,2023.2.2,Win32,84.74576271,,,,,,,,,,,,,,,,369.7903,371.343,371.343,371.7783,return,0.0974,,74.21875,,,,,,FBP-YG-18.png,0.37,1.2,7,0.75,0,19,19,6,1,,,,,,,,,,,,,,,,,,,,,,,,,,,,,,,,,,,,,,,,
,,,,,V3_015,18,Male,2024-10-15_21h02.33.962,jersey_experiment_5_v3,2023.2.2,Win32,84.74576271,,,,,,,,,,,,,,,,371.7785,373.0725,373.0725,375.6373,return,0.2513,,99.86979167,,,,,,FBP-OG-91.png,0.43,1.2,44,0.5,0,20,20,43,1,,,,,,,,,,,,,,,,,,,,,,,,,,,,,,,,,,,,,,,,
,,,,,V3_015,18,Male,2024-10-15_21h02.33.962,jersey_experiment_5_v3,2023.2.2,Win32,84.74576271,,,,,,,,,,,,,,,,375.6375,377.1902,377.1903,377.6962,return,0.1051,,99.86979167,,,,,,FBP-RB-81.png,0.43,1.2,54,0.75,0,21,21,53,1,,,,,,,,,,,,,,,,,,,,,,,,,,,,,,,,,,,,,,,,
,,,,,V3_015,18,Male,2024-10-15_21h02.33.962,jersey_experiment_5_v3,2023.2.2,Win32,84.74576271,,,,,,,,,,,,,,,,377.6965,379.2492,379.2493,379.7551,return,0.1218,,99.86979167,,,,,,FBP-RB-91.png,0.43,1.2,59,0.75,0,22,22,58,1,,,,,,,,,,,,,,,,,,,,,,,,,,,,,,,,,,,,,,,,
,,,,,V3_015,18,Male,2024-10-15_21h02.33.962,jersey_experiment_5_v3,2023.2.2,Win32,84.74576271,,,,,,,,,,,,,,,,379.7554,381.308,381.308,381.8374,return,0.1232,,99.86979167,,,,,,FBP-PT-91.png,0.43,1.2,29,0.75,0,23,23,28,1,,,,,,,,,,,,,,,,,,,,,,,,,,,,,,,,,,,,,,,,
,,,,,V3_015,18,Male,2024-10-15_21h02.33.962,jersey_experiment_5_v3,2023.2.2,Win32,84.74576271,,,,,,,,,,,,,,,,381.8377,383.1317,383.1317,383.6141,return,0.0748,,99.86979167,,,,,,FBP-OG-71.png,0.45,1.2,35,0.5,0,24,24,34,1,,,,,,,,,,,,,,,,,,,,,,,,,,,,,,,,,,,,,,,,
,,,,,V3_015,18,Male,2024-10-15_21h02.33.962,jersey_experiment_5_v3,2023.2.2,Win32,84.74576271,,,,,,,,,,,,,,,,383.6144,384.9083,384.9083,385.3552,return,0.0759,,99.86979167,,,,,,FBP-OG-81.png,0.45,1.2,40,0.5,0,25,25,39,1,,,,,,,,,,,,,,,,,,,,,,,,,,,,,,,,,,,,,,,,
,,,,,V3_015,18,Male,2024-10-15_21h02.33.962,jersey_experiment_5_v3,2023.2.2,Win32,84.74576271,,,,,,,,,,,,,,,,385.3555,386.9082,386.9082,387.3084,return,0.0756,,99.86979167,,,,,,FBP-PT-71.png,0.43,1.2,19,0.75,0,26,26,18,1,,,,,,,,,,,,,,,,,,,,,,,,,,,,,,,,,,,,,,,,
,,,,,V3_015,18,Male,2024-10-15_21h02.33.962,jersey_experiment_5_v3,2023.2.2,Win32,84.74576271,,,,,,,,,,,,,,,,387.3086,388.8613,388.8613,389.3554,return,0.1606,,99.86979167,,,,,,FBP-RB-91.png,0.45,1.2,60,0.75,0,27,27,59,1,,,,,,,,,,,,,,,,,,,,,,,,,,,,,,,,,,,,,,,,
,,,,,V3_015,18,Male,2024-10-15_21h02.33.962,jersey_experiment_5_v3,2023.2.2,Win32,84.74576271,,,,,,,,,,,,,,,,389.3557,390.9085,390.9085,391.8614,return,0.047,,25,,,,,,FBP-RB-71.png,0.37,1.2,47,0.75,0,28,28,46,1,,,,,,,,,,,,,,,,,,,,,,,,,,,,,,,,,,,,,,,,
,,,,,V3_015,18,Male,2024-10-15_21h02.33.962,jersey_experiment_5_v3,2023.2.2,Win32,84.74576271,,,,,,,,,,,,,,,,391.8616,393.4146,393.4146,394.2732,return,0.0144,,24.73958333,,,,,,FBP-PT-71.png,0.37,1.2,17,0.75,0,29,29,16,1,,,,,,,,,,,,,,,,,,,,,,,,,,,,,,,,,,,,,,,,
,,,,,V3_015,18,Male,2024-10-15_21h02.33.962,jersey_experiment_5_v3,2023.2.2,Win32,84.74576271,,,,,,,,,,,,,,,,394.2733,395.5674,395.5674,397.7087,return,0.0647,,50,,,,,,FBP-OG-91.png,0.37,1.2,42,0.5,0,30,30,41,1,,,,,,,,,,,,,,,,,,,,,,,,,,,,,,,,,,,,,,,,
,,,,,V3_015,18,Male,2024-10-15_21h02.33.962,jersey_experiment_5_v3,2023.2.2,Win32,84.74576271,,,,,,,,,,,,,,,,397.7089,399.2618,399.2619,400.9325,return,0.628,,74.73958333,,,,,,FBP-YG-17.png,0.4,1.2,3,0.75,0,31,31,2,1,,,,,,,,,,,,,,,,,,,,,,,,,,,,,,,,,,,,,,,,
,,,,,V3_015,18,Male,2024-10-15_21h02.33.962,jersey_experiment_5_v3,2023.2.2,Win32,84.74576271,,,,,,,,,,,,,,,,400.9329,402.4854,402.4854,403.1678,return,0.05,,74.73958333,,,,,,FBP-YG-19.png,0.43,1.2,14,0.75,0,32,32,13,1,,,,,,,,,,,,,,,,,,,,,,,,,,,,,,,,,,,,,,,,
,,,,,V3_015,18,Male,2024-10-15_21h02.33.962,jersey_experiment_5_v3,2023.2.2,Win32,84.74576271,,,,,,,,,,,,,,,,403.168,404.7207,404.7208,405.1679,return,0.0464,,74.73958333,,,,,,FBP-YG-19.png,0.45,1.2,15,0.75,0,33,33,14,1,,,,,,,,,,,,,,,,,,,,,,,,,,,,,,,,,,,,,,,,
,,,,,V3_015,18,Male,2024-10-15_21h02.33.962,jersey_experiment_5_v3,2023.2.2,Win32,84.74576271,,,,,,,,,,,,,,,,405.1681,406.7208,406.7208,407.1561,return,0.0946,,74.73958333,,,,,,FBP-RB-91.png,0.4,1.2,58,0.75,0,34,34,57,1,,,,,,,,,,,,,,,,,,,,,,,,,,,,,,,,,,,,,,,,
,,,,,V3_015,18,Male,2024-10-15_21h02.33.962,jersey_experiment_5_v3,2023.2.2,Win32,84.74576271,,,,,,,,,,,,,,,,407.1563,408.4503,408.4504,408.9445,return,0.0811,,74.73958333,,,,,,FBP-OG-71.png,0.4,1.2,33,0.5,0,35,35,32,1,,,,,,,,,,,,,,,,,,,,,,,,,,,,,,,,,,,,,,,,
,,,,,V3_015,18,Male,2024-10-15_21h02.33.962,jersey_experiment_5_v3,2023.2.2,Win32,84.74576271,,,,,,,,,,,,,,,,408.9447,410.2387,410.2387,410.815,return,0.2351,,74.73958333,,,,,,FBP-OG-71.png,0.35,1.2,31,0.5,0,36,36,30,1,,,,,,,,,,,,,,,,,,,,,,,,,,,,,,,,,,,,,,,,
,,,,,V3_015,18,Male,2024-10-15_21h02.33.962,jersey_experiment_5_v3,2023.2.2,Win32,84.74576271,,,,,,,,,,,,,,,,410.8152,412.3566,412.3566,413.7799,return,0.1678,,99.73958333,,,,,,FBP-YG-18.png,0.45,1.2,10,0.75,0,37,37,9,1,,,,,,,,,,,,,,,,,,,,,,,,,,,,,,,,,,,,,,,,
,,,,,V3_015,18,Male,2024-10-15_21h02.33.962,jersey_experiment_5_v3,2023.2.2,Win32,84.74576271,,,,,,,,,,,,,,,,413.7802,415.333,415.333,417.9684,return,0.3296,,49.73958333,,,,,,FBP-RB-81.png,0.37,1.2,52,0.75,0,38,38,51,1,,,,,,,,,,,,,,,,,,,,,,,,,,,,,,,,,,,,,,,,
,,,,,V3_015,18,Male,2024-10-15_21h02.33.962,jersey_experiment_5_v3,2023.2.2,Win32,84.74576271,,,,,,,,,,,,,,,,417.9687,419.2625,419.2625,421.3331,return,0.1178,,74.47916667,,,,,,FBP-OG-71.png,0.43,1.2,34,0.5,0,39,39,33,1,,,,,,,,,,,,,,,,,,,,,,,,,,,,,,,,,,,,,,,,
,,,,,V3_015,18,Male,2024-10-15_21h02.33.962,jersey_experiment_5_v3,2023.2.2,Win32,84.74576271,,,,,,,,,,,,,,,,421.3333,422.8862,422.8863,424.7685,return,0.392,,49.609375,,,,,,FBP-PT-81.png,0.4,1.2,23,0.75,0,40,40,22,1,,,,,,,,,,,,,,,,,,,,,,,,,,,,,,,,,,,,,,,,
,,,,,V3_015,18,Male,2024-10-15_21h02.33.962,jersey_experiment_5_v3,2023.2.2,Win32,84.74576271,,,,,,,,,,,,,,,,424.7688,426.3215,426.3216,427.851,return,0.144,,75.13020833,,,,,,FBP-YG-19.png,0.4,1.2,13,0.75,0,41,41,12,1,,,,,,,,,,,,,,,,,,,,,,,,,,,,,,,,,,,,,,,,
,,,,,V3_015,18,Male,2024-10-15_21h02.33.962,jersey_experiment_5_v3,2023.2.2,Win32,84.74576271,,,,,,,,,,,,,,,,427.8513,429.1451,429.1452,432.6982,return,0.1383,,74.21875,,,,,,FBP-OG-71.png,0.37,1.2,32,0.5,0,42,42,31,1,,,,,,,,,,,,,,,,,,,,,,,,,,,,,,,,,,,,,,,,
,,,,,V3_015,18,Male,2024-10-15_21h02.33.962,jersey_experiment_5_v3,2023.2.2,Win32,84.74576271,,,,,,,,,,,,,,,,432.6984,434.2512,434.2513,435.2159,return,0.0943,,49.86979167,,,,,,FBP-YG-19.png,0.37,1.2,12,0.75,0,43,43,11,1,,,,,,,,,,,,,,,,,,,,,,,,,,,,,,,,,,,,,,,,
,,,,,V3_015,18,Male,2024-10-15_21h02.33.962,jersey_experiment_5_v3,2023.2.2,Win32,84.74576271,,,,,,,,,,,,,,,,435.2161,436.769,436.7691,437.9573,return,0.0707,,25.13020833,,,,,,FBP-RB-91.png,0.35,1.2,56,0.75,0,44,44,55,1,,,,,,,,,,,,,,,,,,,,,,,,,,,,,,,,,,,,,,,,
,,,,,V3_015,18,Male,2024-10-15_21h02.33.962,jersey_experiment_5_v3,2023.2.2,Win32,84.74576271,,,,,,,,,,,,,,,,437.9576,439.5102,439.5103,440.5574,return,0.049,,25.390625,,,,,,FBP-PT-71.png,0.35,1.2,16,0.75,0,45,45,15,1,,,,,,,,,,,,,,,,,,,,,,,,,,,,,,,,,,,,,,,,
,,,,,V3_015,18,Male,2024-10-15_21h02.33.962,jersey_experiment_5_v3,2023.2.2,Win32,84.74576271,,,,,,,,,,,,,,,,440.5577,441.8516,441.8516,443.2516,return,0.079,,74.47916667,,,,,,FBP-OG-81.png,0.43,1.2,39,0.5,0,46,46,38,1,,,,,,,,,,,,,,,,,,,,,,,,,,,,,,,,,,,,,,,,
,,,,,V3_015,18,Male,2024-10-15_21h02.33.962,jersey_experiment_5_v3,2023.2.2,Win32,84.74576271,,,,,,,,,,,,,,,,443.2519,444.5457,444.5458,445.8047,return,0.12,,26.30208333,,,,,,FBP-OG-91.png,0.35,1.2,41,0.5,0,47,47,40,1,,,,,,,,,,,,,,,,,,,,,,,,,,,,,,,,,,,,,,,,
,,,,,V3_015,18,Male,2024-10-15_21h02.33.962,jersey_experiment_5_v3,2023.2.2,Win32,84.74576271,,,,,,,,,,,,,,,,445.8049,447.3577,447.3577,448.6047,return,0.05,,24.609375,,,,,,FBP-RB-71.png,0.35,1.2,46,0.75,0,48,48,45,1,,,,,,,,,,,,,,,,,,,,,,,,,,,,,,,,,,,,,,,,
,,,,,V3_015,18,Male,2024-10-15_21h02.33.962,jersey_experiment_5_v3,2023.2.2,Win32,84.74576271,,,,,,,,,,,,,,,,448.605,449.8988,449.8988,451.4989,return,0.0904,,1.041666667,,,,,,FBP-OG-81.png,0.35,1.2,36,0.5,0,49,49,35,1,,,,,,,,,,,,,,,,,,,,,,,,,,,,,,,,,,,,,,,,
,,,,,V3_015,18,Male,2024-10-15_21h02.33.962,jersey_experiment_5_v3,2023.2.2,Win32,84.74576271,,,,,,,,,,,,,,,,451.4991,453.0519,453.0519,454.0755,return,0.0629,,25.91145833,,,,,,FBP-YG-17.png,0.37,1.2,2,0.75,0,50,50,1,1,,,,,,,,,,,,,,,,,,,,,,,,,,,,,,,,,,,,,,,,
,,,,,V3_015,18,Male,2024-10-15_21h02.33.962,jersey_experiment_5_v3,2023.2.2,Win32,84.74576271,,,,,,,,,,,,,,,,454.0757,455.6287,455.6287,456.9109,return,0.3924,,74.609375,,,,,,FBP-YG-17.png,0.45,1.2,5,0.75,0,51,51,4,1,,,,,,,,,,,,,,,,,,,,,,,,,,,,,,,,,,,,,,,,
,,,,,V3_015,18,Male,2024-10-15_21h02.33.962,jersey_experiment_5_v3,2023.2.2,Win32,84.74576271,,,,,,,,,,,,,,,,456.9111,458.4522,458.4522,458.9701,return,0.1582,,75.65104167,,,,,,FBP-PT-81.png,0.43,1.2,24,0.75,0,52,52,23,1,,,,,,,,,,,,,,,,,,,,,,,,,,,,,,,,,,,,,,,,
,,,,,V3_015,18,Male,2024-10-15_21h02.33.962,jersey_experiment_5_v3,2023.2.2,Win32,84.74576271,,,,,,,,,,,,,,,,458.9704,460.5228,460.5229,460.8992,return,0.0234,,75.65104167,,,,,,FBP-RB-81.png,0.4,1.2,53,0.75,0,53,53,52,1,,,,,,,,,,,,,,,,,,,,,,,,,,,,,,,,,,,,,,,,
,,,,,V3_015,18,Male,2024-10-15_21h02.33.962,jersey_experiment_5_v3,2023.2.2,Win32,84.74576271,,,,,,,,,,,,,,,,460.8995,462.4523,462.4524,462.923,return,0.1023,,75.65104167,,,,,,FBP-PT-91.png,0.4,1.2,28,0.75,0,54,54,27,1,,,,,,,,,,,,,,,,,,,,,,,,,,,,,,,,,,,,,,,,
,,,,,V3_015,18,Male,2024-10-15_21h02.33.962,jersey_experiment_5_v3,2023.2.2,Win32,84.74576271,,,,,,,,,,,,,,,,462.9232,464.4758,464.4759,466.2878,return,1.321,,56.11979167,,,,,,FBP-PT-81.png,0.37,1.2,22,0.75,0,55,55,21,1,,,,,,,,,,,,,,,,,,,,,,,,,,,,,,,,,,,,,,,,
,,,,,V3_015,18,Male,2024-10-15_21h02.33.962,jersey_experiment_5_v3,2023.2.2,Win32,84.74576271,,,,,,,,,,,,,,,,466.2881,467.8407,467.8407,468.6407,return,0.057,,61.06770833,,,,,,FBP-PT-71.png,0.4,1.2,18,0.75,0,56,56,17,1,,,,,,,,,,,,,,,,,,,,,,,,,,,,,,,,,,,,,,,,
,,,,,V3_015,18,Male,2024-10-15_21h02.33.962,jersey_experiment_5_v3,2023.2.2,Win32,84.74576271,,,,,,,,,,,,,,,,468.641,470.1822,470.1822,471.4409,return,0.0727,,74.34895833,,,,,,FBP-YG-18.png,0.43,1.2,9,0.75,0,57,57,8,1,,,,,,,,,,,,,,,,,,,,,,,,,,,,,,,,,,,,,,,,
,,,,,V3_015,18,Male,2024-10-15_21h02.33.962,jersey_experiment_5_v3,2023.2.2,Win32,84.74576271,,,,,,,,,,,,,,,,471.4411,472.7349,472.7349,473.3587,return,0.0942,,75.78125,,,,,,FBP-OG-91.png,0.4,1.2,43,0.5,0,58,58,42,1,,,,,,,,,,,,,,,,,,,,,,,,,,,,,,,,,,,,,,,,
,,,,,V3_015,18,Male,2024-10-15_21h02.33.962,jersey_experiment_5_v3,2023.2.2,Win32,84.74576271,,,,,,,,,,,,,,,,473.3589,474.9118,474.9118,476.641,return,0.2374,,23.95833333,,,,,,FBP-YG-18.png,0.35,1.2,6,0.75,0,59,59,5,1,,,,,,,,,,,,,,,,,,,,,,,,,,,,,,,,,,,,,,,,
,,,,,V3_015,18,Male,2024-10-15_21h02.33.962,jersey_experiment_5_v3,2023.2.2,Win32,84.74576271,,,,,,,,,,,,,,,,,,,,,,,,,,,,,,,,,,,,,,,476.6413,596.634,,,,,,,,,,,,,,,,,,,,,,,,,,,,,,,,,,,,,,
,,,,,V3_015,18,Male,2024-10-15_21h02.33.962,jersey_experiment_5_v3,2023.2.2,Win32,84.74576271,,,,,,,,,,,,,,,,,,,,,,,,,,,,,,,,,,,,,,,,,596.6342,605.2107,return,8.5726,,,,,,,,,,,,,,,,,,,,,,,,,,,,,,,,,,
,,,,,V3_015,18,Male,2024-10-15_21h02.33.962,jersey_experiment_5_v3,2023.2.2,Win32,84.74576271,,,,,,,,,,,,,,,,605.2126,606.5049,606.5049,608.6931,return,0.1653,,74.08854167,,,,,,FBP-YG-91.png,0.45,1.2,15,0.5,,,,,,,,,,,,,0,0,0,14,1,,,,,,,,,,,,,,,,,,,,,,,,,,,,
,,,,,V3_015,18,Male,2024-10-15_21h02.33.962,jersey_experiment_5_v3,2023.2.2,Win32,84.74576271,,,,,,,,,,,,,,,,608.6934,609.9874,609.9874,611.7404,return,0.1362,,99.21875,,,,,,FBP-PT-17.png,0.43,1.2,19,0.5,,,,,,,,,,,,,0,1,1,18,1,,,,,,,,,,,,,,,,,,,,,,,,,,,,
,,,,,V3_015,18,Male,2024-10-15_21h02.33.962,jersey_experiment_5_v3,2023.2.2,Win32,84.74576271,,,,,,,,,,,,,,,,611.7405,613.2935,613.2935,614.9169,return,0.2747,,47.91666667,,,,,,FBP-OG-19.png,0.37,1.2,42,0.75,,,,,,,,,,,,,0,2,2,41,1,,,,,,,,,,,,,,,,,,,,,,,,,,,,
,,,,,V3_015,18,Male,2024-10-15_21h02.33.962,jersey_experiment_5_v3,2023.2.2,Win32,84.74576271,,,,,,,,,,,,,,,,614.9172,616.211,616.211,617.517,return,0.2413,,73.56770833,,,,,,FBP-RB-18.png,0.43,1.2,54,0.5,,,,,,,,,,,,,0,3,3,53,1,,,,,,,,,,,,,,,,,,,,,,,,,,,,
,,,,,V3_015,18,Male,2024-10-15_21h02.33.962,jersey_experiment_5_v3,2023.2.2,Win32,84.74576271,,,,,,,,,,,,,,,,617.5173,619.0698,619.0699,620.3171,return,0.0866,,27.734375,,,,,,FBP-OG-18.png,0.35,1.2,36,0.75,,,,,,,,,,,,,0,4,4,35,1,,,,,,,,,,,,,,,,,,,,,,,,,,,,
,,,,,V3_015,18,Male,2024-10-15_21h02.33.962,jersey_experiment_5_v3,2023.2.2,Win32,84.74576271,,,,,,,,,,,,,,,,620.3174,621.6113,621.6113,623.776,return,0.1207,,99.47916667,,,,,,FBP-YG-81.png,0.45,1.2,10,0.5,,,,,,,,,,,,,0,5,5,9,1,,,,,,,,,,,,,,,,,,,,,,,,,,,,
,,,,,V3_015,18,Male,2024-10-15_21h02.33.962,jersey_experiment_5_v3,2023.2.2,Win32,84.74576271,,,,,,,,,,,,,,,,623.7763,625.0702,625.0702,625.7645,return,0.1652,,97.13541667,,,,,,FBP-RB-19.png,0.45,1.2,60,0.5,,,,,,,,,,,,,0,6,6,59,1,,,,,,,,,,,,,,,,,,,,,,,,,,,,
,,,,,V3_015,18,Male,2024-10-15_21h02.33.962,jersey_experiment_5_v3,2023.2.2,Win32,84.74576271,,,,,,,,,,,,,,,,625.7647,627.0584,627.0584,629.082,return,0.115,,38.54166667,,,,,,FBP-PT-17.png,0.35,1.2,16,0.5,,,,,,,,,,,,,0,7,7,15,1,,,,,,,,,,,,,,,,,,,,,,,,,,,,
,,,,,V3_015,18,Male,2024-10-15_21h02.33.962,jersey_experiment_5_v3,2023.2.2,Win32,84.74576271,,,,,,,,,,,,,,,,629.0823,630.6353,630.6353,631.3646,return,0.0702,,40.234375,,,,,,FBP-OG-18.png,0.37,1.2,37,0.75,,,,,,,,,,,,,0,8,8,36,1,,,,,,,,,,,,,,,,,,,,,,,,,,,,
,,,,,V3_015,18,Male,2024-10-15_21h02.33.962,jersey_experiment_5_v3,2023.2.2,Win32,84.74576271,,,,,,,,,,,,,,,,631.3648,632.9177,632.9177,634.6706,return,0.3811,,99.73958333,,,,,,FBP-OG-19.png,0.43,1.2,44,0.75,,,,,,,,,,,,,0,9,9,43,1,,,,,,,,,,,,,,,,,,,,,,,,,,,,
,,,,,V3_015,18,Male,2024-10-15_21h02.33.962,jersey_experiment_5_v3,2023.2.2,Win32,84.74576271,,,,,,,,,,,,,,,,634.6708,635.9647,635.9648,637.8706,return,0.6713,,74.86979167,,,,,,FBP-RB-19.png,0.35,1.2,56,0.5,,,,,,,,,,,,,0,10,10,55,1,,,,,,,,,,,,,,,,,,,,,,,,,,,,
,,,,,V3_015,18,Male,2024-10-15_21h02.33.962,jersey_experiment_5_v3,2023.2.2,Win32,84.74576271,,,,,,,,,,,,,,,,637.8709,639.1648,639.1648,640.7649,return,0.0767,,50.26041667,,,,,,FBP-PT-18.png,0.37,1.2,22,0.5,,,,,,,,,,,,,0,11,11,21,1,,,,,,,,,,,,,,,,,,,,,,,,,,,,
,,,,,V3_015,18,Male,2024-10-15_21h02.33.962,jersey_experiment_5_v3,2023.2.2,Win32,84.74576271,,,,,,,,,,,,,,,,640.7652,642.0591,642.0592,643.259,return,0.1729,,49.47916667,,,,,,FBP-YG-91.png,0.35,1.2,11,0.5,,,,,,,,,,,,,0,12,12,10,1,,,,,,,,,,,,,,,,,,,,,,,,,,,,
,,,,,V3_015,18,Male,2024-10-15_21h02.33.962,jersey_experiment_5_v3,2023.2.2,Win32,84.74576271,,,,,,,,,,,,,,,,643.2592,644.5532,644.5533,645.2827,return,0.1415,,49.47916667,,,,,,FBP-PT-18.png,0.35,1.2,21,0.5,,,,,,,,,,,,,0,13,13,20,1,,,,,,,,,,,,,,,,,,,,,,,,,,,,
,,,,,V3_015,18,Male,2024-10-15_21h02.33.962,jersey_experiment_5_v3,2023.2.2,Win32,84.74576271,,,,,,,,,,,,,,,,645.283,646.577,646.577,648.5418,return,0.143,,75.13020833,,,,,,FBP-RB-17.png,0.4,1.2,48,0.5,,,,,,,,,,,,,0,14,14,47,1,,,,,,,,,,,,,,,,,,,,,,,,,,,,
,,,,,V3_015,18,Male,2024-10-15_21h02.33.962,jersey_experiment_5_v3,2023.2.2,Win32,84.74576271,,,,,,,,,,,,,,,,648.542,649.8358,649.8358,650.4006,return,0.1099,,75.13020833,,,,,,FBP-RB-19.png,0.4,1.2,58,0.5,,,,,,,,,,,,,0,15,15,57,1,,,,,,,,,,,,,,,,,,,,,,,,,,,,
,,,,,V3_015,18,Male,2024-10-15_21h02.33.962,jersey_experiment_5_v3,2023.2.2,Win32,84.74576271,,,,,,,,,,,,,,,,650.4009,651.9535,651.9535,653.036,return,0.1935,,74.86979167,,,,,,FBP-OG-18.png,0.4,1.2,38,0.75,,,,,,,,,,,,,0,16,16,37,1,,,,,,,,,,,,,,,,,,,,,,,,,,,,
,,,,,V3_015,18,Male,2024-10-15_21h02.33.962,jersey_experiment_5_v3,2023.2.2,Win32,84.74576271,,,,,,,,,,,,,,,,653.0362,654.5774,654.5775,655.8126,return,0.3688,,50.13020833,,,,,,FBP-OG-17.png,0.37,1.2,32,0.75,,,,,,,,,,,,,0,17,17,31,1,,,,,,,,,,,,,,,,,,,,,,,,,,,,
,,,,,V3_015,18,Male,2024-10-15_21h02.33.962,jersey_experiment_5_v3,2023.2.2,Win32,84.74576271,,,,,,,,,,,,,,,,655.8128,657.1067,657.1068,659.3304,return,0.1497,,99.47916667,,,,,,FBP-PT-19.png,0.45,1.2,30,0.5,,,,,,,,,,,,,0,18,18,29,1,,,,,,,,,,,,,,,,,,,,,,,,,,,,
,,,,,V3_015,18,Male,2024-10-15_21h02.33.962,jersey_experiment_5_v3,2023.2.2,Win32,84.74576271,,,,,,,,,,,,,,,,659.3307,660.6244,660.6245,661.7068,return,0.1257,,99.47916667,,,,,,FBP-PT-17.png,0.45,1.2,20,0.5,,,,,,,,,,,,,0,19,19,19,1,,,,,,,,,,,,,,,,,,,,,,,,,,,,
,,,,,V3_015,18,Male,2024-10-15_21h02.33.962,jersey_experiment_5_v3,2023.2.2,Win32,84.74576271,,,,,,,,,,,,,,,,661.707,663.2598,663.2599,664.7305,return,0.0759,,75.52083333,,,,,,FBP-OG-19.png,0.4,1.2,43,0.75,,,,,,,,,,,,,0,20,20,42,1,,,,,,,,,,,,,,,,,,,,,,,,,,,,
,,,,,V3_015,18,Male,2024-10-15_21h02.33.962,jersey_experiment_5_v3,2023.2.2,Win32,84.74576271,,,,,,,,,,,,,,,,664.7307,666.0247,666.0247,666.86,return,0.203,,75.390625,,,,,,FBP-PT-18.png,0.4,1.2,23,0.5,,,,,,,,,,,,,0,21,21,22,1,,,,,,,,,,,,,,,,,,,,,,,,,,,,
,,,,,V3_015,18,Male,2024-10-15_21h02.33.962,jersey_experiment_5_v3,2023.2.2,Win32,84.74576271,,,,,,,,,,,,,,,,666.8603,668.1542,668.1543,669.1188,return,0.1092,,74.609375,,,,,,FBP-RB-19.png,0.37,1.2,57,0.5,,,,,,,,,,,,,0,22,22,56,1,,,,,,,,,,,,,,,,,,,,,,,,,,,,
,,,,,V3_015,18,Male,2024-10-15_21h02.33.962,jersey_experiment_5_v3,2023.2.2,Win32,84.74576271,,,,,,,,,,,,,,,,669.1191,670.4131,670.4132,671.072,return,0.1991,,74.609375,,,,,,FBP-YG-91.png,0.4,1.2,13,0.5,,,,,,,,,,,,,0,23,23,12,1,,,,,,,,,,,,,,,,,,,,,,,,,,,,
,,,,,V3_015,18,Male,2024-10-15_21h02.33.962,jersey_experiment_5_v3,2023.2.2,Win32,84.74576271,,,,,,,,,,,,,,,,671.0722,672.6249,672.625,674.0015,return,0.1573,,99.47916667,,,,,,FBP-OG-18.png,0.43,1.2,39,0.75,,,,,,,,,,,,,0,24,24,38,1,,,,,,,,,,,,,,,,,,,,,,,,,,,,
,,,,,V3_015,18,Male,2024-10-15_21h02.33.962,jersey_experiment_5_v3,2023.2.2,Win32,84.74576271,,,,,,,,,,,,,,,,674.0018,675.2957,675.2957,676.4838,return,0.0706,,74.47916667,,,,,,FBP-YG-71.png,0.37,1.2,2,0.5,,,,,,,,,,,,,0,25,25,1,1,,,,,,,,,,,,,,,,,,,,,,,,,,,,
,,,,,V3_015,18,Male,2024-10-15_21h02.33.962,jersey_experiment_5_v3,2023.2.2,Win32,84.74576271,,,,,,,,,,,,,,,,676.4841,678.0369,678.0371,679.2605,return,0.1243,,99.86979167,,,,,,FBP-OG-19.png,0.45,1.2,45,0.75,,,,,,,,,,,,,0,26,26,44,1,,,,,,,,,,,,,,,,,,,,,,,,,,,,
,,,,,V3_015,18,Male,2024-10-15_21h02.33.962,jersey_experiment_5_v3,2023.2.2,Win32,84.74576271,,,,,,,,,,,,,,,,679.2607,680.5547,680.5547,681.6018,return,0.1311,,98.828125,,,,,,FBP-YG-91.png,0.43,1.2,14,0.5,,,,,,,,,,,,,0,27,27,13,1,,,,,,,,,,,,,,,,,,,,,,,,,,,,
,,,,,V3_015,18,Male,2024-10-15_21h02.33.962,jersey_experiment_5_v3,2023.2.2,Win32,84.74576271,,,,,,,,,,,,,,,,681.602,682.8959,682.8959,685.649,return,1.7799,,99.34895833,,,,,,FBP-YG-81.png,0.4,1.2,8,0.5,,,,,,,,,,,,,0,28,28,7,1,,,,,,,,,,,,,,,,,,,,,,,,,,,,
,,,,,V3_015,18,Male,2024-10-15_21h02.33.962,jersey_experiment_5_v3,2023.2.2,Win32,84.74576271,,,,,,,,,,,,,,,,685.6492,687.202,687.2021,689.2963,return,0.7063,,74.21875,,,,,,FBP-OG-17.png,0.4,1.2,33,0.75,,,,,,,,,,,,,0,29,29,32,1,,,,,,,,,,,,,,,,,,,,,,,,,,,,
,,,,,V3_015,18,Male,2024-10-15_21h02.33.962,jersey_experiment_5_v3,2023.2.2,Win32,84.74576271,,,,,,,,,,,,,,,,689.2965,690.5903,690.5904,692.2845,return,0.6299,,75,,,,,,FBP-PT-17.png,0.37,1.2,17,0.5,,,,,,,,,,,,,0,30,30,16,1,,,,,,,,,,,,,,,,,,,,,,,,,,,,
,,,,,V3_015,18,Male,2024-10-15_21h02.33.962,jersey_experiment_5_v3,2023.2.2,Win32,84.74576271,,,,,,,,,,,,,,,,692.2848,693.5785,693.5786,696.414,return,0.6169,,77.60416667,,,,,,FBP-RB-18.png,0.4,1.2,53,0.5,,,,,,,,,,,,,0,31,31,52,1,,,,,,,,,,,,,,,,,,,,,,,,,,,,
,,,,,V3_015,18,Male,2024-10-15_21h02.33.962,jersey_experiment_5_v3,2023.2.2,Win32,84.74576271,,,,,,,,,,,,,,,,696.4142,697.7083,697.7084,700.0849,return,0.8553,,99.34895833,,,,,,FBP-PT-18.png,0.45,1.2,25,0.5,,,,,,,,,,,,,0,32,32,24,1,,,,,,,,,,,,,,,,,,,,,,,,,,,,
,,,,,V3_015,18,Male,2024-10-15_21h02.33.962,jersey_experiment_5_v3,2023.2.2,Win32,84.74576271,,,,,,,,,,,,,,,,700.0851,701.379,701.3791,703.8261,return,0.8008,,75.390625,,,,,,FBP-RB-17.png,0.43,1.2,49,0.5,,,,,,,,,,,,,0,33,33,48,1,,,,,,,,,,,,,,,,,,,,,,,,,,,,
,,,,,V3_015,18,Male,2024-10-15_21h02.33.962,jersey_experiment_5_v3,2023.2.2,Win32,84.74576271,,,,,,,,,,,,,,,,703.8263,705.3676,705.3676,706.3556,return,0.1567,,99.609375,,,,,,FBP-OG-17.png,0.45,1.2,35,0.75,,,,,,,,,,,,,0,34,34,34,1,,,,,,,,,,,,,,,,,,,,,,,,,,,,
,,,,,V3_015,18,Male,2024-10-15_21h02.33.962,jersey_experiment_5_v3,2023.2.2,Win32,84.74576271,,,,,,,,,,,,,,,,706.3559,707.6499,707.65,709.1085,return,0.1341,,75,,,,,,FBP-YG-81.png,0.35,1.2,6,0.5,,,,,,,,,,,,,0,35,35,5,1,,,,,,,,,,,,,,,,,,,,,,,,,,,,
,,,,,V3_015,18,Male,2024-10-15_21h02.33.962,jersey_experiment_5_v3,2023.2.2,Win32,84.74576271,,,,,,,,,,,,,,,,709.1088,710.4028,710.4029,711.1676,return,0.2383,,75.78125,,,,,,FBP-PT-18.png,0.43,1.2,24,0.5,,,,,,,,,,,,,0,36,36,23,1,,,,,,,,,,,,,,,,,,,,,,,,,,,,
,,,,,V3_015,18,Male,2024-10-15_21h02.33.962,jersey_experiment_5_v3,2023.2.2,Win32,84.74576271,,,,,,,,,,,,,,,,711.1679,712.4617,712.4618,715.3442,return,0.1323,,49.609375,,,,,,FBP-PT-19.png,0.35,1.2,26,0.5,,,,,,,,,,,,,0,37,37,25,1,,,,,,,,,,,,,,,,,,,,,,,,,,,,
,,,,,V3_015,18,Male,2024-10-15_21h02.33.962,jersey_experiment_5_v3,2023.2.2,Win32,84.74576271,,,,,,,,,,,,,,,,715.3445,716.8972,716.8973,718.109,return,0.1472,,24.73958333,,,,,,FBP-OG-17.png,0.35,1.2,31,0.75,,,,,,,,,,,,,0,38,38,30,1,,,,,,,,,,,,,,,,,,,,,,,,,,,,
,,,,,V3_015,18,Male,2024-10-15_21h02.33.962,jersey_experiment_5_v3,2023.2.2,Win32,84.74576271,,,,,,,,,,,,,,,,718.1093,719.4032,719.4032,721.2503,return,0.0933,,74.609375,,,,,,FBP-YG-81.png,0.43,1.2,9,0.5,,,,,,,,,,,,,0,39,39,8,1,,,,,,,,,,,,,,,,,,,,,,,,,,,,
,,,,,V3_015,18,Male,2024-10-15_21h02.33.962,jersey_experiment_5_v3,2023.2.2,Win32,84.74576271,,,,,,,,,,,,,,,,721.2506,722.5444,722.5444,723.8503,return,0.1365,,50.13020833,,,,,,FBP-RB-18.png,0.35,1.2,51,0.5,,,,,,,,,,,,,0,40,40,50,1,,,,,,,,,,,,,,,,,,,,,,,,,,,,
,,,,,V3_015,18,Male,2024-10-15_21h02.33.962,jersey_experiment_5_v3,2023.2.2,Win32,84.74576271,,,,,,,,,,,,,,,,723.8506,725.1447,725.1447,727.1565,return,0.9093,,92.578125,,,,,,FBP-RB-18.png,0.45,1.2,55,0.5,,,,,,,,,,,,,0,41,41,54,1,,,,,,,,,,,,,,,,,,,,,,,,,,,,
,,,,,V3_015,18,Male,2024-10-15_21h02.33.962,jersey_experiment_5_v3,2023.2.2,Win32,84.74576271,,,,,,,,,,,,,,,,727.1568,728.4506,728.4506,729.5095,return,0.1176,,96.875,,,,,,FBP-PT-19.png,0.43,1.2,29,0.5,,,,,,,,,,,,,0,42,42,28,1,,,,,,,,,,,,,,,,,,,,,,,,,,,,
,,,,,V3_015,18,Male,2024-10-15_21h02.33.962,jersey_experiment_5_v3,2023.2.2,Win32,84.74576271,,,,,,,,,,,,,,,,729.5097,730.8038,730.8039,731.6625,return,0.1454,,98.56770833,,,,,,FBP-RB-19.png,0.43,1.2,59,0.5,,,,,,,,,,,,,0,43,43,58,1,,,,,,,,,,,,,,,,,,,,,,,,,,,,
,,,,,V3_015,18,Male,2024-10-15_21h02.33.962,jersey_experiment_5_v3,2023.2.2,Win32,84.74576271,,,,,,,,,,,,,,,,731.6627,732.9567,732.9567,734.4038,return,0.0612,,27.734375,,,,,,FBP-RB-17.png,0.37,1.2,47,0.5,,,,,,,,,,,,,0,44,44,46,1,,,,,,,,,,,,,,,,,,,,,,,,,,,,
,,,,,V3_015,18,Male,2024-10-15_21h02.33.962,jersey_experiment_5_v3,2023.2.2,Win32,84.74576271,,,,,,,,,,,,,,,,734.4039,735.6978,735.6979,736.6274,return,0.1882,,33.203125,,,,,,FBP-YG-91.png,0.37,1.2,12,0.5,,,,,,,,,,,,,0,45,45,11,1,,,,,,,,,,,,,,,,,,,,,,,,,,,,
,,,,,V3_015,18,Male,2024-10-15_21h02.33.962,jersey_experiment_5_v3,2023.2.2,Win32,84.74576271,,,,,,,,,,,,,,,,736.6275,737.9216,737.9216,738.7333,return,0.1116,,34.89583333,,,,,,FBP-PT-19.png,0.37,1.2,27,0.5,,,,,,,,,,,,,0,46,46,26,1,,,,,,,,,,,,,,,,,,,,,,,,,,,,
,,,,,V3_015,18,Male,2024-10-15_21h02.33.962,jersey_experiment_5_v3,2023.2.2,Win32,84.74576271,,,,,,,,,,,,,,,,738.7335,740.0274,740.0275,741.1805,return,0.0184,,61.84895833,,,,,,FBP-YG-71.png,0.43,1.2,4,0.5,,,,,,,,,,,,,0,47,47,3,1,,,,,,,,,,,,,,,,,,,,,,,,,,,,
,,,,,V3_015,18,Male,2024-10-15_21h02.33.962,jersey_experiment_5_v3,2023.2.2,Win32,84.74576271,,,,,,,,,,,,,,,,741.1808,742.4748,742.4749,743.5807,return,0.1675,,95.44270833,,,,,,FBP-YG-71.png,0.45,1.2,5,0.5,,,,,,,,,,,,,0,48,48,4,1,,,,,,,,,,,,,,,,,,,,,,,,,,,,
,,,,,V3_015,18,Male,2024-10-15_21h02.33.962,jersey_experiment_5_v3,2023.2.2,Win32,84.74576271,,,,,,,,,,,,,,,,743.5809,744.8748,744.8749,746.2982,return,0.0795,,74.47916667,,,,,,FBP-PT-19.png,0.4,1.2,28,0.5,,,,,,,,,,,,,0,49,49,27,1,,,,,,,,,,,,,,,,,,,,,,,,,,,,
,,,,,V3_015,18,Male,2024-10-15_21h02.33.962,jersey_experiment_5_v3,2023.2.2,Win32,84.74576271,,,,,,,,,,,,,,,,746.2985,747.5924,747.5925,748.016,return,0.1313,,74.34895833,,,,,,FBP-PT-17.png,0.4,1.2,18,0.5,,,,,,,,,,,,,0,50,50,17,1,,,,,,,,,,,,,,,,,,,,,,,,,,,,
,,,,,V3_015,18,Male,2024-10-15_21h02.33.962,jersey_experiment_5_v3,2023.2.2,Win32,84.74576271,,,,,,,,,,,,,,,,748.0163,749.3101,749.3101,749.7808,return,0.1422,,74.08854167,,,,,,FBP-RB-18.png,0.37,1.2,52,0.5,,,,,,,,,,,,,0,51,51,51,1,,,,,,,,,,,,,,,,,,,,,,,,,,,,
,,,,,V3_015,18,Male,2024-10-15_21h02.33.962,jersey_experiment_5_v3,2023.2.2,Win32,84.74576271,,,,,,,,,,,,,,,,749.781,751.3339,751.3339,752.5455,return,0.0863,,24.47916667,,,,,,FBP-OG-19.png,0.35,1.2,41,0.75,,,,,,,,,,,,,0,52,52,40,1,,,,,,,,,,,,,,,,,,,,,,,,,,,,
,,,,,V3_015,18,Male,2024-10-15_21h02.33.962,jersey_experiment_5_v3,2023.2.2,Win32,84.74576271,,,,,,,,,,,,,,,,752.5459,753.8398,753.8399,755.028,return,0.0941,,24.08854167,,,,,,FBP-RB-17.png,0.35,1.2,46,0.5,,,,,,,,,,,,,0,53,53,45,1,,,,,,,,,,,,,,,,,,,,,,,,,,,,
,,,,,V3_015,18,Male,2024-10-15_21h02.33.962,jersey_experiment_5_v3,2023.2.2,Win32,84.74576271,,,,,,,,,,,,,,,,755.0282,756.3221,756.3221,757.4399,return,0.0231,,42.83854167,,,,,,FBP-YG-81.png,0.37,1.2,7,0.5,,,,,,,,,,,,,0,54,54,6,1,,,,,,,,,,,,,,,,,,,,,,,,,,,,
,,,,,V3_015,18,Male,2024-10-15_21h02.33.962,jersey_experiment_5_v3,2023.2.2,Win32,84.74576271,,,,,,,,,,,,,,,,757.4401,758.9813,758.9813,760.0047,return,0.0395,,75.26041667,,,,,,FBP-OG-18.png,0.45,1.2,40,0.75,,,,,,,,,,,,,0,55,55,39,1,,,,,,,,,,,,,,,,,,,,,,,,,,,,
,,,,,V3_015,18,Male,2024-10-15_21h02.33.962,jersey_experiment_5_v3,2023.2.2,Win32,84.74576271,,,,,,,,,,,,,,,,760.005,761.2989,761.2989,762.1812,return,0.0946,,66.27604167,,,,,,FBP-YG-71.png,0.4,1.2,3,0.5,,,,,,,,,,,,,0,56,56,2,1,,,,,,,,,,,,,,,,,,,,,,,,,,,,
,,,,,V3_015,18,Male,2024-10-15_21h02.33.962,jersey_experiment_5_v3,2023.2.2,Win32,84.74576271,,,,,,,,,,,,,,,,762.1814,763.7342,763.7342,764.7459,return,0.056,,75.26041667,,,,,,FBP-OG-17.png,0.43,1.2,34,0.75,,,,,,,,,,,,,0,57,57,33,1,,,,,,,,,,,,,,,,,,,,,,,,,,,,
,,,,,V3_015,18,Male,2024-10-15_21h02.33.962,jersey_experiment_5_v3,2023.2.2,Win32,84.74576271,,,,,,,,,,,,,,,,764.7461,766.0402,766.0402,767.0285,return,0.0708,,88.80208333,,,,,,FBP-RB-17.png,0.45,1.2,50,0.5,,,,,,,,,,,,,0,58,58,49,1,,,,,,,,,,,,,,,,,,,,,,,,,,,,
,,,,,V3_015,18,Male,2024-10-15_21h02.33.962,jersey_experiment_5_v3,2023.2.2,Win32,84.74576271,,,,,,,,,,,,,,,,767.0287,768.3228,768.3228,770.2757,return,0.7532,,46.484375,,,,,,FBP-YG-71.png,0.35,1.2,1,0.5,,,,,,,,,,,,,0,59,59,0,1,,,,,,,,,,,,,,,,,,,,,,,,,,,,
,,,,,V3_015,18,Male,2024-10-15_21h02.33.962,jersey_experiment_5_v3,2023.2.2,Win32,84.74576271,,,,,,,,,,,,,,,,770.277,771.5699,771.57,772.1699,return,0.0915,,45.703125,,,,,,FBP-PT-91.png,0.35,1.2,26,0.5,,,,,,,,,,,,,,,,,,0,0,0,25,1,,,,,,,,,,,,,,,,,,,,,,,
,,,,,V3_015,18,Male,2024-10-15_21h02.33.962,jersey_experiment_5_v3,2023.2.2,Win32,84.74576271,,,,,,,,,,,,,,,,772.1703,773.464,773.4641,775.0758,return,0.2117,,70.57291667,,,,,,FBP-PT-71.png,0.43,1.2,19,0.5,,,,,,,,,,,,,,,,,,0,1,1,18,1,,,,,,,,,,,,,,,,,,,,,,,
,,,,,V3_015,18,Male,2024-10-15_21h02.33.962,jersey_experiment_5_v3,2023.2.2,Win32,84.74576271,,,,,,,,,,,,,,,,775.0761,776.37,776.3701,777.1818,return,0.0479,,60.546875,,,,,,FBP-YG-17.png,0.37,1.2,2,0.5,,,,,,,,,,,,,,,,,,0,2,2,1,1,,,,,,,,,,,,,,,,,,,,,,,
,,,,,V3_015,18,Male,2024-10-15_21h02.33.962,jersey_experiment_5_v3,2023.2.2,Win32,84.74576271,,,,,,,,,,,,,,,,777.182,778.4759,778.4759,779.2995,return,0.0474,,66.796875,,,,,,FBP-YG-17.png,0.4,1.2,3,0.5,,,,,,,,,,,,,,,,,,0,3,3,2,1,,,,,,,,,,,,,,,,,,,,,,,
,,,,,V3_015,18,Male,2024-10-15_21h02.33.962,jersey_experiment_5_v3,2023.2.2,Win32,84.74576271,,,,,,,,,,,,,,,,779.2998,780.5937,780.5937,781.8055,return,0.1336,,98.046875,,,,,,FBP-RB-81.png,0.45,1.2,55,0.5,,,,,,,,,,,,,,,,,,0,4,4,54,1,,,,,,,,,,,,,,,,,,,,,,,
,,,,,V3_015,18,Male,2024-10-15_21h02.33.962,jersey_experiment_5_v3,2023.2.2,Win32,84.74576271,,,,,,,,,,,,,,,,781.8058,783.0998,783.0999,783.888,return,0.0712,,92.83854167,,,,,,FBP-RB-81.png,0.43,1.2,54,0.5,,,,,,,,,,,,,,,,,,0,5,5,53,1,,,,,,,,,,,,,,,,,,,,,,,
,,,,,V3_015,18,Male,2024-10-15_21h02.33.962,jersey_experiment_5_v3,2023.2.2,Win32,84.74576271,,,,,,,,,,,,,,,,783.8883,785.1822,785.1823,786.6762,return,0.0552,,91.92708333,,,,,,FBP-YG-19.png,0.4,1.2,13,0.5,,,,,,,,,,,,,,,,,,0,6,6,12,1,,,,,,,,,,,,,,,,,,,,,,,
,,,,,V3_015,18,Male,2024-10-15_21h02.33.962,jersey_experiment_5_v3,2023.2.2,Win32,84.74576271,,,,,,,,,,,,,,,,786.6765,787.9705,787.9706,788.7234,return,0.0473,,74.34895833,,,,,,FBP-RB-91.png,0.4,1.2,58,0.5,,,,,,,,,,,,,,,,,,0,7,7,57,1,,,,,,,,,,,,,,,,,,,,,,,
,,,,,V3_015,18,Male,2024-10-15_21h02.33.962,jersey_experiment_5_v3,2023.2.2,Win32,84.74576271,,,,,,,,,,,,,,,,788.7238,790.0176,790.0177,791.0058,return,0.0372,,95.57291667,,,,,,FBP-YG-18.png,0.45,1.2,10,0.5,,,,,,,,,,,,,,,,,,0,8,8,9,1,,,,,,,,,,,,,,,,,,,,,,,
,,,,,V3_015,18,Male,2024-10-15_21h02.33.962,jersey_experiment_5_v3,2023.2.2,Win32,84.74576271,,,,,,,,,,,,,,,,791.0062,792.5588,792.5589,793.3707,return,0.0907,,94.01041667,,,,,,FBP-OG-81.png,0.43,1.2,39,0.75,,,,,,,,,,,,,,,,,,0,9,9,38,1,,,,,,,,,,,,,,,,,,,,,,,
,,,,,V3_015,18,Male,2024-10-15_21h02.33.962,jersey_experiment_5_v3,2023.2.2,Win32,84.74576271,,,,,,,,,,,,,,,,793.3709,794.6648,794.6648,795.5707,return,0.0556,,92.70833333,,,,,,FBP-RB-71.png,0.43,1.2,49,0.5,,,,,,,,,,,,,,,,,,0,10,10,48,1,,,,,,,,,,,,,,,,,,,,,,,
,,,,,V3_015,18,Male,2024-10-15_21h02.33.962,jersey_experiment_5_v3,2023.2.2,Win32,84.74576271,,,,,,,,,,,,,,,,795.571,796.8649,796.865,798.3355,return,0.1909,,24.609375,,,,,,FBP-PT-71.png,0.35,1.2,16,0.5,,,,,,,,,,,,,,,,,,0,11,11,15,1,,,,,,,,,,,,,,,,,,,,,,,
,,,,,V3_015,18,Male,2024-10-15_21h02.33.962,jersey_experiment_5_v3,2023.2.2,Win32,84.74576271,,,,,,,,,,,,,,,,798.3357,799.6297,799.6297,800.524,return,0.0502,,35.28645833,,,,,,FBP-YG-18.png,0.4,1.2,8,0.5,,,,,,,,,,,,,,,,,,0,12,12,7,1,,,,,,,,,,,,,,,,,,,,,,,
,,,,,V3_015,18,Male,2024-10-15_21h02.33.962,jersey_experiment_5_v3,2023.2.2,Win32,84.74576271,,,,,,,,,,,,,,,,800.5242,802.077,802.077,804.677,return,0.0784,,33.46354167,,,,,,FBP-OG-71.png,0.4,1.2,33,0.75,,,,,,,,,,,,,,,,,,0,13,13,32,1,,,,,,,,,,,,,,,,,,,,,,,
,,,,,V3_015,18,Male,2024-10-15_21h02.33.962,jersey_experiment_5_v3,2023.2.2,Win32,84.74576271,,,,,,,,,,,,,,,,804.6773,805.9713,805.9713,807.0182,return,0.0989,,34.375,,,,,,FBP-RB-71.png,0.37,1.2,47,0.5,,,,,,,,,,,,,,,,,,0,14,14,46,1,,,,,,,,,,,,,,,,,,,,,,,
,,,,,V3_015,18,Male,2024-10-15_21h02.33.962,jersey_experiment_5_v3,2023.2.2,Win32,84.74576271,,,,,,,,,,,,,,,,807.0184,808.5715,808.5715,813.195,return,0.16,,49.609375,,,,,,FBP-OG-81.png,0.4,1.2,38,0.75,,,,,,,,,,,,,,,,,,0,15,15,37,1,,,,,,,,,,,,,,,,,,,,,,,
,,,,,V3_015,18,Male,2024-10-15_21h02.33.962,jersey_experiment_5_v3,2023.2.2,Win32,84.74576271,,,,,,,,,,,,,,,,813.1951,814.4892,814.4892,817.0421,return,0.2127,,50,,,,,,FBP-YG-17.png,0.45,1.2,5,0.5,,,,,,,,,,,,,,,,,,0,16,16,4,1,,,,,,,,,,,,,,,,,,,,,,,
,,,,,V3_015,18,Male,2024-10-15_21h02.33.962,jersey_experiment_5_v3,2023.2.2,Win32,84.74576271,,,,,,,,,,,,,,,,817.0424,818.3364,818.3364,819.4775,return,0.01,,26.953125,,,,,,FBP-YG-19.png,0.35,1.2,11,0.5,,,,,,,,,,,,,,,,,,0,17,17,10,1,,,,,,,,,,,,,,,,,,,,,,,
,,,,,V3_015,18,Male,2024-10-15_21h02.33.962,jersey_experiment_5_v3,2023.2.2,Win32,84.74576271,,,,,,,,,,,,,,,,819.4778,820.7717,820.7718,822.1953,return,0.0477,,66.14583333,,,,,,FBP-YG-19.png,0.43,1.2,14,0.5,,,,,,,,,,,,,,,,,,0,18,18,13,1,,,,,,,,,,,,,,,,,,,,,,,
,,,,,V3_015,18,Male,2024-10-15_21h02.33.962,jersey_experiment_5_v3,2023.2.2,Win32,84.74576271,,,,,,,,,,,,,,,,822.1956,823.7483,823.7483,824.7837,return,0.0243,,64.71354167,,,,,,FBP-OG-81.png,0.35,1.2,36,0.75,,,,,,,,,,,,,,,,,,0,19,19,35,1,,,,,,,,,,,,,,,,,,,,,,,
,,,,,V3_015,18,Male,2024-10-15_21h02.33.962,jersey_experiment_5_v3,2023.2.2,Win32,84.74576271,,,,,,,,,,,,,,,,824.784,826.0776,826.0777,826.7955,return,0.0861,,64.19270833,,,,,,FBP-PT-81.png,0.37,1.2,22,0.5,,,,,,,,,,,,,,,,,,0,20,20,21,1,,,,,,,,,,,,,,,,,,,,,,,
,,,,,V3_015,18,Male,2024-10-15_21h02.33.962,jersey_experiment_5_v3,2023.2.2,Win32,84.74576271,,,,,,,,,,,,,,,,826.7959,828.0898,828.0899,828.925,return,0.0649,,62.109375,,,,,,FBP-RB-81.png,0.37,1.2,52,0.5,,,,,,,,,,,,,,,,,,0,21,21,51,1,,,,,,,,,,,,,,,,,,,,,,,
,,,,,V3_015,18,Male,2024-10-15_21h02.33.962,jersey_experiment_5_v3,2023.2.2,Win32,84.74576271,,,,,,,,,,,,,,,,828.9252,830.2192,830.2192,830.7368,return,0.1331,,61.84895833,,,,,,FBP-YG-17.png,0.35,1.2,1,0.5,,,,,,,,,,,,,,,,,,0,22,22,0,1,,,,,,,,,,,,,,,,,,,,,,,
,,,,,V3_015,18,Male,2024-10-15_21h02.33.962,jersey_experiment_5_v3,2023.2.2,Win32,84.74576271,,,,,,,,,,,,,,,,830.7371,832.2899,832.2899,833.3487,return,0.0164,,75.52083333,,,,,,FBP-OG-81.png,0.45,1.2,40,0.75,,,,,,,,,,,,,,,,,,0,23,23,39,1,,,,,,,,,,,,,,,,,,,,,,,
,,,,,V3_015,18,Male,2024-10-15_21h02.33.962,jersey_experiment_5_v3,2023.2.2,Win32,84.74576271,,,,,,,,,,,,,,,,833.3489,834.6429,834.6429,835.5958,return,0.1247,,73.30729167,,,,,,FBP-RB-71.png,0.45,1.2,50,0.5,,,,,,,,,,,,,,,,,,0,24,24,49,1,,,,,,,,,,,,,,,,,,,,,,,
,,,,,V3_015,18,Male,2024-10-15_21h02.33.962,jersey_experiment_5_v3,2023.2.2,Win32,84.74576271,,,,,,,,,,,,,,,,835.5959,836.89,836.89,837.8194,return,0.1371,,75.52083333,,,,,,FBP-RB-91.png,0.45,1.2,60,0.5,,,,,,,,,,,,,,,,,,0,25,25,59,1,,,,,,,,,,,,,,,,,,,,,,,
,,,,,V3_015,18,Male,2024-10-15_21h02.33.962,jersey_experiment_5_v3,2023.2.2,Win32,84.74576271,,,,,,,,,,,,,,,,837.8197,839.1135,839.1136,840.1137,return,0.0955,,60.41666667,,,,,,FBP-RB-81.png,0.35,1.2,51,0.5,,,,,,,,,,,,,,,,,,0,26,26,50,1,,,,,,,,,,,,,,,,,,,,,,,
,,,,,V3_015,18,Male,2024-10-15_21h02.33.962,jersey_experiment_5_v3,2023.2.2,Win32,84.74576271,,,,,,,,,,,,,,,,840.1138,841.4079,841.4079,841.9843,return,0.2044,,60.41666667,,,,,,FBP-PT-91.png,0.37,1.2,27,0.5,,,,,,,,,,,,,,,,,,0,27,27,26,1,,,,,,,,,,,,,,,,,,,,,,,
,,,,,V3_015,18,Male,2024-10-15_21h02.33.962,jersey_experiment_5_v3,2023.2.2,Win32,84.74576271,,,,,,,,,,,,,,,,841.9846,843.2785,843.2785,844.0785,return,0.0735,,78.25520833,,,,,,FBP-PT-81.png,0.45,1.2,25,0.5,,,,,,,,,,,,,,,,,,0,28,28,24,1,,,,,,,,,,,,,,,,,,,,,,,
,,,,,V3_015,18,Male,2024-10-15_21h02.33.962,jersey_experiment_5_v3,2023.2.2,Win32,84.74576271,,,,,,,,,,,,,,,,844.0787,845.3726,845.3726,845.8668,return,0.1474,,75.26041667,,,,,,FBP-RB-91.png,0.43,1.2,59,0.5,,,,,,,,,,,,,,,,,,0,29,29,58,1,,,,,,,,,,,,,,,,,,,,,,,
,,,,,V3_015,18,Male,2024-10-15_21h02.33.962,jersey_experiment_5_v3,2023.2.2,Win32,84.74576271,,,,,,,,,,,,,,,,845.867,847.4197,847.4198,849.3963,return,1.4129,,50.65104167,,,,,,FBP-OG-91.png,0.35,1.2,41,0.75,,,,,,,,,,,,,,,,,,0,30,30,40,1,,,,,,,,,,,,,,,,,,,,,,,
,,,,,V3_015,18,Male,2024-10-15_21h02.33.962,jersey_experiment_5_v3,2023.2.2,Win32,84.74576271,,,,,,,,,,,,,,,,849.3966,850.6905,850.6905,851.9845,return,0.0847,,73.69791667,,,,,,FBP-PT-71.png,0.4,1.2,18,0.5,,,,,,,,,,,,,,,,,,0,31,31,17,1,,,,,,,,,,,,,,,,,,,,,,,
,,,,,V3_015,18,Male,2024-10-15_21h02.33.962,jersey_experiment_5_v3,2023.2.2,Win32,84.74576271,,,,,,,,,,,,,,,,851.9848,853.2789,853.2789,853.8435,return,0.2096,,70.83333333,,,,,,FBP-YG-19.png,0.37,1.2,12,0.5,,,,,,,,,,,,,,,,,,0,32,32,11,1,,,,,,,,,,,,,,,,,,,,,,,
,,,,,V3_015,18,Male,2024-10-15_21h02.33.962,jersey_experiment_5_v3,2023.2.2,Win32,84.74576271,,,,,,,,,,,,,,,,853.8439,855.3965,855.3966,856.3965,return,0.038,,50.13020833,,,,,,FBP-OG-91.png,0.37,1.2,42,0.75,,,,,,,,,,,,,,,,,,0,33,33,41,1,,,,,,,,,,,,,,,,,,,,,,,
,,,,,V3_015,18,Male,2024-10-15_21h02.33.962,jersey_experiment_5_v3,2023.2.2,Win32,84.74576271,,,,,,,,,,,,,,,,856.3967,857.9495,857.9495,858.3849,return,0.1314,,50.13020833,,,,,,FBP-OG-71.png,0.37,1.2,32,0.75,,,,,,,,,,,,,,,,,,0,34,34,31,1,,,,,,,,,,,,,,,,,,,,,,,
,,,,,V3_015,18,Male,2024-10-15_21h02.33.962,jersey_experiment_5_v3,2023.2.2,Win32,84.74576271,,,,,,,,,,,,,,,,858.3852,859.9379,859.938,860.8203,return,0.0946,,68.22916667,,,,,,FBP-OG-91.png,0.45,1.2,45,0.75,,,,,,,,,,,,,,,,,,0,35,35,44,1,,,,,,,,,,,,,,,,,,,,,,,
,,,,,V3_015,18,Male,2024-10-15_21h02.33.962,jersey_experiment_5_v3,2023.2.2,Win32,84.74576271,,,,,,,,,,,,,,,,860.8206,862.3734,862.3736,863.3262,return,0.0637,,74.21875,,,,,,FBP-OG-71.png,0.43,1.2,34,0.75,,,,,,,,,,,,,,,,,,0,36,36,33,1,,,,,,,,,,,,,,,,,,,,,,,
,,,,,V3_015,18,Male,2024-10-15_21h02.33.962,jersey_experiment_5_v3,2023.2.2,Win32,84.74576271,,,,,,,,,,,,,,,,863.3265,864.6204,864.6204,866.0793,return,0.471,,75,,,,,,FBP-PT-91.png,0.43,1.2,29,0.5,,,,,,,,,,,,,,,,,,0,37,37,28,1,,,,,,,,,,,,,,,,,,,,,,,
,,,,,V3_015,18,Male,2024-10-15_21h02.33.962,jersey_experiment_5_v3,2023.2.2,Win32,84.74576271,,,,,,,,,,,,,,,,866.0796,867.3735,867.3736,868.3146,return,0.0755,,75.13020833,,,,,,FBP-PT-71.png,0.45,1.2,20,0.5,,,,,,,,,,,,,,,,,,0,38,38,19,1,,,,,,,,,,,,,,,,,,,,,,,
,,,,,V3_015,18,Male,2024-10-15_21h02.33.962,jersey_experiment_5_v3,2023.2.2,Win32,84.74576271,,,,,,,,,,,,,,,,868.3148,869.8677,869.8677,870.2677,return,0.1679,,75.13020833,,,,,,FBP-OG-71.png,0.45,1.2,35,0.75,,,,,,,,,,,,,,,,,,0,39,39,34,1,,,,,,,,,,,,,,,,,,,,,,,
,,,,,V3_015,18,Male,2024-10-15_21h02.33.962,jersey_experiment_5_v3,2023.2.2,Win32,84.74576271,,,,,,,,,,,,,,,,870.2679,871.5618,871.5619,872.209,return,0.2608,,75.13020833,,,,,,FBP-PT-81.png,0.4,1.2,23,0.5,,,,,,,,,,,,,,,,,,0,40,40,22,1,,,,,,,,,,,,,,,,,,,,,,,
,,,,,V3_015,18,Male,2024-10-15_21h02.33.962,jersey_experiment_5_v3,2023.2.2,Win32,84.74576271,,,,,,,,,,,,,,,,872.2093,873.5031,873.5032,875.1619,return,0.0208,,24.609375,,,,,,FBP-YG-18.png,0.35,1.2,6,0.5,,,,,,,,,,,,,,,,,,0,41,41,5,1,,,,,,,,,,,,,,,,,,,,,,,
,,,,,V3_015,18,Male,2024-10-15_21h02.33.962,jersey_experiment_5_v3,2023.2.2,Win32,84.74576271,,,,,,,,,,,,,,,,875.1621,876.4561,876.4561,876.915,return,0.1028,,25.52083333,,,,,,FBP-RB-71.png,0.35,1.2,46,0.5,,,,,,,,,,,,,,,,,,0,42,42,45,1,,,,,,,,,,,,,,,,,,,,,,,
,,,,,V3_015,18,Male,2024-10-15_21h02.33.962,jersey_experiment_5_v3,2023.2.2,Win32,84.74576271,,,,,,,,,,,,,,,,876.9152,878.2091,878.2092,878.7504,return,0.1456,,25.52083333,,,,,,FBP-YG-18.png,0.37,1.2,7,0.5,,,,,,,,,,,,,,,,,,0,43,43,6,1,,,,,,,,,,,,,,,,,,,,,,,
,,,,,V3_015,18,Male,2024-10-15_21h02.33.962,jersey_experiment_5_v3,2023.2.2,Win32,84.74576271,,,,,,,,,,,,,,,,878.7506,880.3038,880.3039,881.5504,return,0.061,,54.55729167,,,,,,FBP-OG-91.png,0.43,1.2,44,0.75,,,,,,,,,,,,,,,,,,0,44,44,43,1,,,,,,,,,,,,,,,,,,,,,,,
,,,,,V3_015,18,Male,2024-10-15_21h02.33.962,jersey_experiment_5_v3,2023.2.2,Win32,84.74576271,,,,,,,,,,,,,,,,881.5507,882.8446,882.8446,883.8212,return,0.3102,,53.515625,,,,,,FBP-RB-91.png,0.37,1.2,57,0.5,,,,,,,,,,,,,,,,,,0,45,45,56,1,,,,,,,,,,,,,,,,,,,,,,,
,,,,,V3_015,18,Male,2024-10-15_21h02.33.962,jersey_experiment_5_v3,2023.2.2,Win32,84.74576271,,,,,,,,,,,,,,,,883.8215,885.1153,885.1154,886.386,return,0.04,,73.828125,,,,,,FBP-YG-17.png,0.43,1.2,4,0.5,,,,,,,,,,,,,,,,,,0,46,46,3,1,,,,,,,,,,,,,,,,,,,,,,,
,,,,,V3_015,18,Male,2024-10-15_21h02.33.962,jersey_experiment_5_v3,2023.2.2,Win32,84.74576271,,,,,,,,,,,,,,,,886.3862,887.6801,887.6801,888.9859,return,0.056,,96.09375,,,,,,FBP-YG-18.png,0.43,1.2,9,0.5,,,,,,,,,,,,,,,,,,0,47,47,8,1,,,,,,,,,,,,,,,,,,,,,,,
,,,,,V3_015,18,Male,2024-10-15_21h02.33.962,jersey_experiment_5_v3,2023.2.2,Win32,84.74576271,,,,,,,,,,,,,,,,888.9861,890.5275,890.5275,891.7744,return,0.0263,,39.84375,,,,,,FBP-OG-71.png,0.35,1.2,31,0.75,,,,,,,,,,,,,,,,,,0,48,48,30,1,,,,,,,,,,,,,,,,,,,,,,,
,,,,,V3_015,18,Male,2024-10-15_21h02.33.962,jersey_experiment_5_v3,2023.2.2,Win32,84.74576271,,,,,,,,,,,,,,,,891.7747,893.3276,893.3276,894.3157,return,0.0426,,74.609375,,,,,,FBP-OG-91.png,0.4,1.2,43,0.75,,,,,,,,,,,,,,,,,,0,49,49,42,1,,,,,,,,,,,,,,,,,,,,,,,
,,,,,V3_015,18,Male,2024-10-15_21h02.33.962,jersey_experiment_5_v3,2023.2.2,Win32,84.74576271,,,,,,,,,,,,,,,,894.3159,895.6099,895.6099,897.2805,return,0.6594,,25.26041667,,,,,,FBP-PT-81.png,0.35,1.2,21,0.5,,,,,,,,,,,,,,,,,,0,50,50,20,1,,,,,,,,,,,,,,,,,,,,,,,
,,,,,V3_015,18,Male,2024-10-15_21h02.33.962,jersey_experiment_5_v3,2023.2.2,Win32,84.74576271,,,,,,,,,,,,,,,,897.2807,898.5746,898.5746,900.9748,return,0.6044,,74.609375,,,,,,FBP-PT-91.png,0.45,1.2,30,0.5,,,,,,,,,,,,,,,,,,0,51,51,29,1,,,,,,,,,,,,,,,,,,,,,,,
,,,,,V3_015,18,Male,2024-10-15_21h02.33.962,jersey_experiment_5_v3,2023.2.2,Win32,84.74576271,,,,,,,,,,,,,,,,900.9751,902.2689,902.2689,904.5631,return,0.879,,30.078125,,,,,,FBP-RB-91.png,0.35,1.2,56,0.5,,,,,,,,,,,,,,,,,,0,52,52,55,1,,,,,,,,,,,,,,,,,,,,,,,
,,,,,V3_015,18,Male,2024-10-15_21h02.33.962,jersey_experiment_5_v3,2023.2.2,Win32,84.74576271,,,,,,,,,,,,,,,,904.5633,905.8573,905.8574,907.7867,return,0.6538,,48.95833333,,,,,,FBP-PT-91.png,0.4,1.2,28,0.5,,,,,,,,,,,,,,,,,,0,53,53,27,1,,,,,,,,,,,,,,,,,,,,,,,
,,,,,V3_015,18,Male,2024-10-15_21h02.33.962,jersey_experiment_5_v3,2023.2.2,Win32,84.74576271,,,,,,,,,,,,,,,,907.787,909.0809,909.081,911.7869,return,0.6905,,62.36979167,,,,,,FBP-RB-71.png,0.4,1.2,48,0.5,,,,,,,,,,,,,,,,,,0,54,54,47,1,,,,,,,,,,,,,,,,,,,,,,,
,,,,,V3_015,18,Male,2024-10-15_21h02.33.962,jersey_experiment_5_v3,2023.2.2,Win32,84.74576271,,,,,,,,,,,,,,,,911.7871,913.3399,913.34,914.9165,return,0.6907,,62.36979167,,,,,,FBP-OG-81.png,0.37,1.2,37,0.75,,,,,,,,,,,,,,,,,,0,55,55,36,1,,,,,,,,,,,,,,,,,,,,,,,
,,,,,V3_015,18,Male,2024-10-15_21h02.33.962,jersey_experiment_5_v3,2023.2.2,Win32,84.74576271,,,,,,,,,,,,,,,,914.9168,916.2106,916.2106,918.6577,return,0.668,,93.88020833,,,,,,FBP-YG-19.png,0.45,1.2,15,0.5,,,,,,,,,,,,,,,,,,0,56,56,14,1,,,,,,,,,,,,,,,,,,,,,,,
,,,,,V3_015,18,Male,2024-10-15_21h02.33.962,jersey_experiment_5_v3,2023.2.2,Win32,84.74576271,,,,,,,,,,,,,,,,918.658,919.9519,919.9519,922.5638,return,0.7609,,74.73958333,,,,,,FBP-RB-81.png,0.4,1.2,53,0.5,,,,,,,,,,,,,,,,,,0,57,57,52,1,,,,,,,,,,,,,,,,,,,,,,,
,,,,,V3_015,18,Male,2024-10-15_21h02.33.962,jersey_experiment_5_v3,2023.2.2,Win32,84.74576271,,,,,,,,,,,,,,,,922.564,923.8579,923.858,925.5521,return,0.6698,,49.73958333,,,,,,FBP-PT-71.png,0.37,1.2,17,0.5,,,,,,,,,,,,,,,,,,0,58,58,16,1,,,,,,,,,,,,,,,,,,,,,,,
,,,,,V3_015,18,Male,2024-10-15_21h02.33.962,jersey_experiment_5_v3,2023.2.2,Win32,84.74576271,,,,,,,,,,,,,,,,925.5524,926.8463,926.8463,928.7993,return,0.6963,,75,,,,,,FBP-PT-81.png,0.43,1.2,24,0.5,,,,,,,,,,,,,,,,,,0,59,59,23,1,,,,,,,,,,,,,,,,,,,,,,,
,,,,,V3_015,18,Male,2024-10-15_21h02.33.962,jersey_experiment_5_v3,2023.2.2,Win32,84.74576271,,,,,,,,,,,,,,,,,,,,,,,,,,,,,,,,,,,,,,,,,,,,,,,,,,,,,,,,928.7995,938.5763,return,9.766,,,,,,,,,,,,,,,,,,,
,,,,,V3_015,18,Male,2024-10-15_21h02.33.962,jersey_experiment_5_v3,2023.2.2,Win32,84.74576271,,,,,,,,,,,,,,,,,,,,,,,,,,,,,,,,,,,,,,,,,,,,,,,,,,,,,,,,,,,,,938.5765,949.1179,1,7.0172,return,3.5072,,,,,,,,,,,,
,,,,,V3_015,18,Male,2024-10-15_21h02.33.962,jersey_experiment_5_v3,2023.2.2,Win32,84.74576271,,,,,,,,,,,,,,,,,,,,,,,,,,,,,,,,,,,,,,,,,,,,,,,,,,,,,,,,,,,,,,,,,,,,949.118,962.9423,,right,2.7438,,,,,,
,,,,,V3_015,18,Male,2024-10-15_21h02.33.962,jersey_experiment_5_v3,2023.2.2,Win32,84.74576271,,,,,,,,,,,,,,,,,,,,,,,,,,,,,,,,,,,,,,,,,,,,,,,,,,,,,,,,,,,,,,,,,,,,,,,,,,962.9425,968.354,return,5.3982,