requirements.started,requirements.stopped,key_resp_3.keys,key_resp_3.rt,key_resp_3.duration,Subject ID,Age,Gender,date,expName,psychopyVersion,OS,frameRate,instructions1.started,instructions1.stopped,key_resp.keys,key_resp.rt,key_resp.duration,example.started,example.stopped,enter_2.keys,enter_2.rt,enter_2.duration,instructions2.started,instructions2.stopped,enter_3.keys,enter_3.rt,enter_3.duration,image.started,image.stopped,slider_2.started,slider_2.stopped,next.keys,next.rt,next.duration,slider.response,trial_block_1.thisRepN,trial_block_1.thisTrialN,trial_block_1.thisN,trial_block_1.thisIndex,trial_block_1.ran,Path,Width,Height,Index,Duration,trial_block_2.thisRepN,trial_block_2.thisTrialN,trial_block_2.thisN,trial_block_2.thisIndex,trial_block_2.ran,rest_break.started,rest_break.stopped,end_break.started,end_break.stopped,key_resp_5.keys,key_resp_5.rt,key_resp_5.duration,trial_block_3.thisRepN,trial_block_3.thisTrialN,trial_block_3.thisN,trial_block_3.thisIndex,trial_block_3.ran,trial_block_4.thisRepN,trial_block_4.thisTrialN,trial_block_4.thisN,trial_block_4.thisIndex,trial_block_4.ran,questions_intro.started,questions_intro.stopped,enter_12.keys,enter_12.rt,enter_12.duration,question2.started,question2.stopped,question_doingbest.response,question_doingbest.rt,enter_15.keys,enter_15.rt,enter_15.duration,pattern.started,pattern.stopped,pattern_2.text,enter_17.keys,enter_17.rt,enter_17.duration,thankyou.started,thankyou.stopped,enter_14.keys,enter_14.rt,enter_14.duration
1E-04,14.2003,return,14.1953,,V3_035,21,Female,2024-10-25_13h21.01.132,jersey_experiment_5_v3,2023.2.2,Win32,84.74576271,,,,,,,,,,,,,,,,,,,,,,,,,,,,,,,,,,,,,,,,,,,,,,,,,,,,,,,,,,,,,,,,,,,,,,,,,,,,,,
,,,,,V3_035,21,Female,2024-10-25_13h21.01.132,jersey_experiment_5_v3,2023.2.2,Win32,84.74576271,14.2004,27.0239,return,12.8084,,,,,,,,,,,,,,,,,,,,,,,,,,,,,,,,,,,,,,,,,,,,,,,,,,,,,,,,,,,,,,,,,,,,,,,,,,
,,,,,V3_035,21,Female,2024-10-25_13h21.01.132,jersey_experiment_5_v3,2023.2.2,Win32,84.74576271,,,,,,27.0241,33.9621,return,6.8951,,,,,,,,,,,,,,,,,,,,,,,,,,,,,,,,,,,,,,,,,,,,,,,,,,,,,,,,,,,,,,,,,,,,,
,,,,,V3_035,21,Female,2024-10-25_13h21.01.132,jersey_experiment_5_v3,2023.2.2,Win32,84.74576271,,,,,,,,,,,33.9623,59.3158,return,25.3443,,,,,,,,,,,,,,,,,,,,,,,,,,,,,,,,,,,,,,,,,,,,,,,,,,,,,,,,,,,,,,,,
,,,,,V3_035,21,Female,2024-10-25_13h21.01.132,jersey_experiment_5_v3,2023.2.2,Win32,84.74576271,,,,,,,,,,,,,,,,59.3189,60.8687,60.8689,68.787,return,2.7229,,25.13020833,0,0,0,16,1,FBP-PT-17.png,0.37,1.2,17,0.75,,,,,,,,,,,,,,,,,,,,,,,,,,,,,,,,,,,,,,,,,,,,,
,,,,,V3_035,21,Female,2024-10-25_13h21.01.132,jersey_experiment_5_v3,2023.2.2,Win32,84.74576271,,,,,,,,,,,,,,,,68.7873,70.3397,70.3397,80.1752,return,2.9384,,27.47395833,0,1,1,8,1,FBP-YG-81.png,0.43,1.2,9,0.75,,,,,,,,,,,,,,,,,,,,,,,,,,,,,,,,,,,,,,,,,,,,,
,,,,,V3_035,21,Female,2024-10-25_13h21.01.132,jersey_experiment_5_v3,2023.2.2,Win32,84.74576271,,,,,,,,,,,,,,,,80.1754,81.4694,81.4695,85.0461,return,1.5513,,1.432291667,0,2,2,36,1,FBP-OG-18.png,0.37,1.2,37,0.5,,,,,,,,,,,,,,,,,,,,,,,,,,,,,,,,,,,,,,,,,,,,,
,,,,,V3_035,21,Female,2024-10-25_13h21.01.132,jersey_experiment_5_v3,2023.2.2,Win32,84.74576271,,,,,,,,,,,,,,,,85.0464,86.5991,86.5991,91.1285,return,2.222,,0.390625,0,3,3,26,1,FBP-PT-19.png,0.37,1.2,27,0.75,,,,,,,,,,,,,,,,,,,,,,,,,,,,,,,,,,,,,,,,,,,,,
,,,,,V3_035,21,Female,2024-10-25_13h21.01.132,jersey_experiment_5_v3,2023.2.2,Win32,84.74576271,,,,,,,,,,,,,,,,91.1288,92.6816,92.6816,95.4818,return,1.0832,,74.86979167,0,4,4,4,1,FBP-YG-71.png,0.45,1.2,5,0.75,,,,,,,,,,,,,,,,,,,,,,,,,,,,,,,,,,,,,,,,,,,,,
,,,,,V3_035,21,Female,2024-10-25_13h21.01.132,jersey_experiment_5_v3,2023.2.2,Win32,84.74576271,,,,,,,,,,,,,,,,95.4821,97.0348,97.0348,104.8232,return,4.683,,36.19791667,0,5,5,45,1,FBP-RB-17.png,0.35,1.2,46,0.75,,,,,,,,,,,,,,,,,,,,,,,,,,,,,,,,,,,,,,,,,,,,,
,,,,,V3_035,21,Female,2024-10-25_13h21.01.132,jersey_experiment_5_v3,2023.2.2,Win32,84.74576271,,,,,,,,,,,,,,,,104.8235,106.1174,106.1174,109.6352,return,1.0045,,36.58854167,0,6,6,42,1,FBP-OG-19.png,0.4,1.2,43,0.5,,,,,,,,,,,,,,,,,,,,,,,,,,,,,,,,,,,,,,,,,,,,,
,,,,,V3_035,21,Female,2024-10-25_13h21.01.132,jersey_experiment_5_v3,2023.2.2,Win32,84.74576271,,,,,,,,,,,,,,,,109.6355,111.1882,111.1882,114.5766,return,0.9444,,37.23958333,0,7,7,56,1,FBP-RB-19.png,0.37,1.2,57,0.75,,,,,,,,,,,,,,,,,,,,,,,,,,,,,,,,,,,,,,,,,,,,,
,,,,,V3_035,21,Female,2024-10-25_13h21.01.132,jersey_experiment_5_v3,2023.2.2,Win32,84.74576271,,,,,,,,,,,,,,,,114.5768,115.8706,115.8707,118.6002,return,0.8397,,62.23958333,0,8,8,38,1,FBP-OG-18.png,0.43,1.2,39,0.5,,,,,,,,,,,,,,,,,,,,,,,,,,,,,,,,,,,,,,,,,,,,,
,,,,,V3_035,21,Female,2024-10-25_13h21.01.132,jersey_experiment_5_v3,2023.2.2,Win32,84.74576271,,,,,,,,,,,,,,,,118.6004,120.1532,120.1532,122.8826,return,0.8874,,86.71875,0,9,9,54,1,FBP-RB-18.png,0.45,1.2,55,0.75,,,,,,,,,,,,,,,,,,,,,,,,,,,,,,,,,,,,,,,,,,,,,
,,,,,V3_035,21,Female,2024-10-25_13h21.01.132,jersey_experiment_5_v3,2023.2.2,Win32,84.74576271,,,,,,,,,,,,,,,,122.8829,124.1768,124.1768,128.6241,return,0.9138,,10.67708333,0,10,10,40,1,FBP-OG-19.png,0.35,1.2,41,0.5,,,,,,,,,,,,,,,,,,,,,,,,,,,,,,,,,,,,,,,,,,,,,
,,,,,V3_035,21,Female,2024-10-25_13h21.01.132,jersey_experiment_5_v3,2023.2.2,Win32,84.74576271,,,,,,,,,,,,,,,,128.6244,130.177,130.1771,133.2477,return,0.722,,79.42708333,0,11,11,53,1,FBP-RB-18.png,0.43,1.2,54,0.75,,,,,,,,,,,,,,,,,,,,,,,,,,,,,,,,,,,,,,,,,,,,,
,,,,,V3_035,21,Female,2024-10-25_13h21.01.132,jersey_experiment_5_v3,2023.2.2,Win32,84.74576271,,,,,,,,,,,,,,,,133.248,134.8007,134.8008,142.848,return,5.4063,,30.20833333,0,12,12,27,1,FBP-PT-19.png,0.4,1.2,28,0.75,,,,,,,,,,,,,,,,,,,,,,,,,,,,,,,,,,,,,,,,,,,,,
,,,,,V3_035,21,Female,2024-10-25_13h21.01.132,jersey_experiment_5_v3,2023.2.2,Win32,84.74576271,,,,,,,,,,,,,,,,142.8485,144.4009,144.401,149.6483,return,1.5133,,74.21875,0,13,13,3,1,FBP-YG-71.png,0.43,1.2,4,0.75,,,,,,,,,,,,,,,,,,,,,,,,,,,,,,,,,,,,,,,,,,,,,
,,,,,V3_035,21,Female,2024-10-25_13h21.01.132,jersey_experiment_5_v3,2023.2.2,Win32,84.74576271,,,,,,,,,,,,,,,,149.6484,151.2013,151.2013,153.8484,return,1.339,,17.05729167,0,14,14,55,1,FBP-RB-19.png,0.35,1.2,56,0.75,,,,,,,,,,,,,,,,,,,,,,,,,,,,,,,,,,,,,,,,,,,,,
,,,,,V3_035,21,Female,2024-10-25_13h21.01.132,jersey_experiment_5_v3,2023.2.2,Win32,84.74576271,,,,,,,,,,,,,,,,153.8487,155.4013,155.4014,159.7663,return,1.8922,,92.578125,0,15,15,29,1,FBP-PT-19.png,0.45,1.2,30,0.75,,,,,,,,,,,,,,,,,,,,,,,,,,,,,,,,,,,,,,,,,,,,,
,,,,,V3_035,21,Female,2024-10-25_13h21.01.132,jersey_experiment_5_v3,2023.2.2,Win32,84.74576271,,,,,,,,,,,,,,,,159.7665,161.3192,161.3193,165.0958,return,1.3321,,72.91666667,0,16,16,46,1,FBP-RB-17.png,0.37,1.2,47,0.75,,,,,,,,,,,,,,,,,,,,,,,,,,,,,,,,,,,,,,,,,,,,,
,,,,,V3_035,21,Female,2024-10-25_13h21.01.132,jersey_experiment_5_v3,2023.2.2,Win32,84.74576271,,,,,,,,,,,,,,,,165.0961,166.6487,166.6488,169.249,return,0.9792,,80.72916667,0,17,17,7,1,FBP-YG-81.png,0.4,1.2,8,0.75,,,,,,,,,,,,,,,,,,,,,,,,,,,,,,,,,,,,,,,,,,,,,
,,,,,V3_035,21,Female,2024-10-25_13h21.01.132,jersey_experiment_5_v3,2023.2.2,Win32,84.74576271,,,,,,,,,,,,,,,,169.2493,170.8019,170.8019,173.4609,return,1.1559,,94.66145833,0,18,18,14,1,FBP-YG-91.png,0.45,1.2,15,0.75,,,,,,,,,,,,,,,,,,,,,,,,,,,,,,,,,,,,,,,,,,,,,
,,,,,V3_035,21,Female,2024-10-25_13h21.01.132,jersey_experiment_5_v3,2023.2.2,Win32,84.74576271,,,,,,,,,,,,,,,,173.4611,175.0139,175.0139,179.0729,return,1.9952,,11.71875,0,19,19,15,1,FBP-PT-17.png,0.35,1.2,16,0.75,,,,,,,,,,,,,,,,,,,,,,,,,,,,,,,,,,,,,,,,,,,,,
,,,,,V3_035,21,Female,2024-10-25_13h21.01.132,jersey_experiment_5_v3,2023.2.2,Win32,84.74576271,,,,,,,,,,,,,,,,179.0731,180.6257,180.6257,184.8965,return,0.8862,,76.5625,0,20,20,52,1,FBP-RB-18.png,0.4,1.2,53,0.75,,,,,,,,,,,,,,,,,,,,,,,,,,,,,,,,,,,,,,,,,,,,,
,,,,,V3_035,21,Female,2024-10-25_13h21.01.132,jersey_experiment_5_v3,2023.2.2,Win32,84.74576271,,,,,,,,,,,,,,,,184.8968,186.4379,186.4379,190.8263,return,1.632,,85.15625,0,21,21,2,1,FBP-YG-71.png,0.4,1.2,3,0.75,,,,,,,,,,,,,,,,,,,,,,,,,,,,,,,,,,,,,,,,,,,,,
,,,,,V3_035,21,Female,2024-10-25_13h21.01.132,jersey_experiment_5_v3,2023.2.2,Win32,84.74576271,,,,,,,,,,,,,,,,190.8265,192.3792,192.3792,197.4499,return,3.3395,,82.8125,0,22,22,47,1,FBP-RB-17.png,0.4,1.2,48,0.75,,,,,,,,,,,,,,,,,,,,,,,,,,,,,,,,,,,,,,,,,,,,,
,,,,,V3_035,21,Female,2024-10-25_13h21.01.132,jersey_experiment_5_v3,2023.2.2,Win32,84.74576271,,,,,,,,,,,,,,,,197.4502,198.744,198.744,201.7208,return,1.1532,,8.072916667,0,23,23,41,1,FBP-OG-19.png,0.37,1.2,42,0.5,,,,,,,,,,,,,,,,,,,,,,,,,,,,,,,,,,,,,,,,,,,,,
,,,,,V3_035,21,Female,2024-10-25_13h21.01.132,jersey_experiment_5_v3,2023.2.2,Win32,84.74576271,,,,,,,,,,,,,,,,201.7211,203.2737,203.2737,206.4385,return,1.1529,,10.15625,0,24,24,0,1,FBP-YG-71.png,0.35,1.2,1,0.75,,,,,,,,,,,,,,,,,,,,,,,,,,,,,,,,,,,,,,,,,,,,,
,,,,,V3_035,21,Female,2024-10-25_13h21.01.132,jersey_experiment_5_v3,2023.2.2,Win32,84.74576271,,,,,,,,,,,,,,,,206.4386,207.7326,207.7326,210.3092,return,0.7315,,2.213541667,0,25,25,35,1,FBP-OG-18.png,0.35,1.2,36,0.5,,,,,,,,,,,,,,,,,,,,,,,,,,,,,,,,,,,,,,,,,,,,,
,,,,,V3_035,21,Female,2024-10-25_13h21.01.132,jersey_experiment_5_v3,2023.2.2,Win32,84.74576271,,,,,,,,,,,,,,,,210.3094,211.8622,211.8622,214.8505,return,1.287,,2.213541667,0,26,26,5,1,FBP-YG-81.png,0.35,1.2,6,0.75,,,,,,,,,,,,,,,,,,,,,,,,,,,,,,,,,,,,,,,,,,,,,
,,,,,V3_035,21,Female,2024-10-25_13h21.01.132,jersey_experiment_5_v3,2023.2.2,Win32,84.74576271,,,,,,,,,,,,,,,,214.8507,216.4035,216.4036,218.7918,return,0.8732,,98.828125,0,27,27,59,1,FBP-RB-19.png,0.45,1.2,60,0.75,,,,,,,,,,,,,,,,,,,,,,,,,,,,,,,,,,,,,,,,,,,,,
,,,,,V3_035,21,Female,2024-10-25_13h21.01.132,jersey_experiment_5_v3,2023.2.2,Win32,84.74576271,,,,,,,,,,,,,,,,218.7921,220.3448,220.3449,223.0978,return,0.7682,,98.95833333,0,28,28,58,1,FBP-RB-19.png,0.43,1.2,59,0.75,,,,,,,,,,,,,,,,,,,,,,,,,,,,,,,,,,,,,,,,,,,,,
,,,,,V3_035,21,Female,2024-10-25_13h21.01.132,jersey_experiment_5_v3,2023.2.2,Win32,84.74576271,,,,,,,,,,,,,,,,223.0981,224.3921,224.3921,227.0158,return,1.0588,,98.95833333,0,29,29,37,1,FBP-OG-18.png,0.4,1.2,38,0.5,,,,,,,,,,,,,,,,,,,,,,,,,,,,,,,,,,,,,,,,,,,,,
,,,,,V3_035,21,Female,2024-10-25_13h21.01.132,jersey_experiment_5_v3,2023.2.2,Win32,84.74576271,,,,,,,,,,,,,,,,227.016,228.5687,228.5687,231.3335,return,1.049,,98.95833333,0,30,30,23,1,FBP-PT-18.png,0.43,1.2,24,0.75,,,,,,,,,,,,,,,,,,,,,,,,,,,,,,,,,,,,,,,,,,,,,
,,,,,V3_035,21,Female,2024-10-25_13h21.01.132,jersey_experiment_5_v3,2023.2.2,Win32,84.74576271,,,,,,,,,,,,,,,,231.3337,232.6277,232.6277,235.063,return,0.871,,92.70833333,0,31,31,33,1,FBP-OG-17.png,0.43,1.2,34,0.5,,,,,,,,,,,,,,,,,,,,,,,,,,,,,,,,,,,,,,,,,,,,,
,,,,,V3_035,21,Female,2024-10-25_13h21.01.132,jersey_experiment_5_v3,2023.2.2,Win32,84.74576271,,,,,,,,,,,,,,,,235.0633,236.6159,236.6159,238.6632,return,0.6828,,97.13541667,0,32,32,24,1,FBP-PT-18.png,0.45,1.2,25,0.75,,,,,,,,,,,,,,,,,,,,,,,,,,,,,,,,,,,,,,,,,,,,,
,,,,,V3_035,21,Female,2024-10-25_13h21.01.132,jersey_experiment_5_v3,2023.2.2,Win32,84.74576271,,,,,,,,,,,,,,,,238.6634,239.9572,239.9574,243.8633,return,2.2358,,6.119791667,0,33,33,31,1,FBP-OG-17.png,0.37,1.2,32,0.5,,,,,,,,,,,,,,,,,,,,,,,,,,,,,,,,,,,,,,,,,,,,,
,,,,,V3_035,21,Female,2024-10-25_13h21.01.132,jersey_experiment_5_v3,2023.2.2,Win32,84.74576271,,,,,,,,,,,,,,,,243.8635,245.4163,245.4164,247.9106,return,0.6937,,6.119791667,0,34,34,57,1,FBP-RB-19.png,0.4,1.2,58,0.75,,,,,,,,,,,,,,,,,,,,,,,,,,,,,,,,,,,,,,,,,,,,,
,,,,,V3_035,21,Female,2024-10-25_13h21.01.132,jersey_experiment_5_v3,2023.2.2,Win32,84.74576271,,,,,,,,,,,,,,,,247.9108,249.4635,249.4636,253.3931,return,1.3477,,72.39583333,0,35,35,28,1,FBP-PT-19.png,0.43,1.2,29,0.75,,,,,,,,,,,,,,,,,,,,,,,,,,,,,,,,,,,,,,,,,,,,,
,,,,,V3_035,21,Female,2024-10-25_13h21.01.132,jersey_experiment_5_v3,2023.2.2,Win32,84.74576271,,,,,,,,,,,,,,,,253.3934,254.6873,254.6874,257.4168,return,0.8,,78.64583333,0,36,36,43,1,FBP-OG-19.png,0.43,1.2,44,0.5,,,,,,,,,,,,,,,,,,,,,,,,,,,,,,,,,,,,,,,,,,,,,
,,,,,V3_035,21,Female,2024-10-25_13h21.01.132,jersey_experiment_5_v3,2023.2.2,Win32,84.74576271,,,,,,,,,,,,,,,,257.417,258.9697,258.9698,261.9698,return,1.1941,,78.515625,0,37,37,22,1,FBP-PT-18.png,0.4,1.2,23,0.75,,,,,,,,,,,,,,,,,,,,,,,,,,,,,,,,,,,,,,,,,,,,,
,,,,,V3_035,21,Female,2024-10-25_13h21.01.132,jersey_experiment_5_v3,2023.2.2,Win32,84.74576271,,,,,,,,,,,,,,,,261.9701,263.2639,263.264,265.0405,return,0.6032,,94.27083333,0,38,38,39,1,FBP-OG-18.png,0.45,1.2,40,0.5,,,,,,,,,,,,,,,,,,,,,,,,,,,,,,,,,,,,,,,,,,,,,
,,,,,V3_035,21,Female,2024-10-25_13h21.01.132,jersey_experiment_5_v3,2023.2.2,Win32,84.74576271,,,,,,,,,,,,,,,,265.0408,266.5936,266.5936,269.4408,return,1.1469,,2.34375,0,39,39,20,1,FBP-PT-18.png,0.35,1.2,21,0.75,,,,,,,,,,,,,,,,,,,,,,,,,,,,,,,,,,,,,,,,,,,,,
,,,,,V3_035,21,Female,2024-10-25_13h21.01.132,jersey_experiment_5_v3,2023.2.2,Win32,84.74576271,,,,,,,,,,,,,,,,269.441,270.7348,270.7349,273.1114,return,0.6693,,5.46875,0,40,40,30,1,FBP-OG-17.png,0.35,1.2,31,0.5,,,,,,,,,,,,,,,,,,,,,,,,,,,,,,,,,,,,,,,,,,,,,
,,,,,V3_035,21,Female,2024-10-25_13h21.01.132,jersey_experiment_5_v3,2023.2.2,Win32,84.74576271,,,,,,,,,,,,,,,,273.1116,274.6644,274.6644,277.3469,return,0.6266,,78.25520833,0,41,41,18,1,FBP-PT-17.png,0.43,1.2,19,0.75,,,,,,,,,,,,,,,,,,,,,,,,,,,,,,,,,,,,,,,,,,,,,
,,,,,V3_035,21,Female,2024-10-25_13h21.01.132,jersey_experiment_5_v3,2023.2.2,Win32,84.74576271,,,,,,,,,,,,,,,,277.3471,278.8998,278.8998,280.9352,return,0.8844,,96.875,0,42,42,49,1,FBP-RB-17.png,0.45,1.2,50,0.75,,,,,,,,,,,,,,,,,,,,,,,,,,,,,,,,,,,,,,,,,,,,,
,,,,,V3_035,21,Female,2024-10-25_13h21.01.132,jersey_experiment_5_v3,2023.2.2,Win32,84.74576271,,,,,,,,,,,,,,,,280.9355,282.4882,282.4883,285.9353,return,1.6636,,30.46875,0,43,43,51,1,FBP-RB-18.png,0.37,1.2,52,0.75,,,,,,,,,,,,,,,,,,,,,,,,,,,,,,,,,,,,,,,,,,,,,
,,,,,V3_035,21,Female,2024-10-25_13h21.01.132,jersey_experiment_5_v3,2023.2.2,Win32,84.74576271,,,,,,,,,,,,,,,,285.9356,287.4884,287.4885,291.018,return,0.6591,,57.8125,0,44,44,6,1,FBP-YG-81.png,0.37,1.2,7,0.75,,,,,,,,,,,,,,,,,,,,,,,,,,,,,,,,,,,,,,,,,,,,,
,,,,,V3_035,21,Female,2024-10-25_13h21.01.132,jersey_experiment_5_v3,2023.2.2,Win32,84.74576271,,,,,,,,,,,,,,,,291.0183,292.5709,292.5709,296.3592,return,1.2342,,19.66145833,0,45,45,10,1,FBP-YG-91.png,0.35,1.2,11,0.75,,,,,,,,,,,,,,,,,,,,,,,,,,,,,,,,,,,,,,,,,,,,,
,,,,,V3_035,21,Female,2024-10-25_13h21.01.132,jersey_experiment_5_v3,2023.2.2,Win32,84.74576271,,,,,,,,,,,,,,,,296.3596,297.9122,297.9123,300.2301,return,0.9095,,99.21875,0,46,46,9,1,FBP-YG-81.png,0.45,1.2,10,0.75,,,,,,,,,,,,,,,,,,,,,,,,,,,,,,,,,,,,,,,,,,,,,
,,,,,V3_035,21,Female,2024-10-25_13h21.01.132,jersey_experiment_5_v3,2023.2.2,Win32,84.74576271,,,,,,,,,,,,,,,,300.2304,301.7831,301.7831,304.889,return,0.868,,21.35416667,0,47,47,25,1,FBP-PT-19.png,0.35,1.2,26,0.75,,,,,,,,,,,,,,,,,,,,,,,,,,,,,,,,,,,,,,,,,,,,,
,,,,,V3_035,21,Female,2024-10-25_13h21.01.132,jersey_experiment_5_v3,2023.2.2,Win32,84.74576271,,,,,,,,,,,,,,,,304.8893,306.442,306.442,310.3597,return,0.8945,,21.484375,0,48,48,1,1,FBP-YG-71.png,0.37,1.2,2,0.75,,,,,,,,,,,,,,,,,,,,,,,,,,,,,,,,,,,,,,,,,,,,,
,,,,,V3_035,21,Female,2024-10-25_13h21.01.132,jersey_experiment_5_v3,2023.2.2,Win32,84.74576271,,,,,,,,,,,,,,,,310.3602,311.6539,311.654,314.1011,return,0.6479,,87.109375,0,49,49,34,1,FBP-OG-17.png,0.45,1.2,35,0.5,,,,,,,,,,,,,,,,,,,,,,,,,,,,,,,,,,,,,,,,,,,,,
,,,,,V3_035,21,Female,2024-10-25_13h21.01.132,jersey_experiment_5_v3,2023.2.2,Win32,84.74576271,,,,,,,,,,,,,,,,314.1014,315.654,315.6541,318.9366,return,0.8126,,21.22395833,0,50,50,50,1,FBP-RB-18.png,0.35,1.2,51,0.75,,,,,,,,,,,,,,,,,,,,,,,,,,,,,,,,,,,,,,,,,,,,,
,,,,,V3_035,21,Female,2024-10-25_13h21.01.132,jersey_experiment_5_v3,2023.2.2,Win32,84.74576271,,,,,,,,,,,,,,,,318.9368,320.4896,320.4896,323.0661,return,0.8473,,80.72916667,0,51,51,12,1,FBP-YG-91.png,0.4,1.2,13,0.75,,,,,,,,,,,,,,,,,,,,,,,,,,,,,,,,,,,,,,,,,,,,,
,,,,,V3_035,21,Female,2024-10-25_13h21.01.132,jersey_experiment_5_v3,2023.2.2,Win32,84.74576271,,,,,,,,,,,,,,,,323.0663,324.6191,324.6191,330.3134,return,2.7163,,62.23958333,0,52,52,21,1,FBP-PT-18.png,0.37,1.2,22,0.75,,,,,,,,,,,,,,,,,,,,,,,,,,,,,,,,,,,,,,,,,,,,,
,,,,,V3_035,21,Female,2024-10-25_13h21.01.132,jersey_experiment_5_v3,2023.2.2,Win32,84.74576271,,,,,,,,,,,,,,,,330.3136,331.6077,331.6078,335.4076,return,2.1844,,97.265625,0,53,53,44,1,FBP-OG-19.png,0.45,1.2,45,0.5,,,,,,,,,,,,,,,,,,,,,,,,,,,,,,,,,,,,,,,,,,,,,
,,,,,V3_035,21,Female,2024-10-25_13h21.01.132,jersey_experiment_5_v3,2023.2.2,Win32,84.74576271,,,,,,,,,,,,,,,,335.4079,336.9607,336.9608,345.5259,return,5.6496,,69.79166667,0,54,54,17,1,FBP-PT-17.png,0.4,1.2,18,0.75,,,,,,,,,,,,,,,,,,,,,,,,,,,,,,,,,,,,,,,,,,,,,
,,,,,V3_035,21,Female,2024-10-25_13h21.01.132,jersey_experiment_5_v3,2023.2.2,Win32,84.74576271,,,,,,,,,,,,,,,,345.5261,347.0788,347.0789,349.3494,return,0.7636,,86.06770833,0,55,55,48,1,FBP-RB-17.png,0.43,1.2,49,0.75,,,,,,,,,,,,,,,,,,,,,,,,,,,,,,,,,,,,,,,,,,,,,
,,,,,V3_035,21,Female,2024-10-25_13h21.01.132,jersey_experiment_5_v3,2023.2.2,Win32,84.74576271,,,,,,,,,,,,,,,,349.3497,350.6436,350.6436,353.4791,return,0.7668,,16.66666667,0,56,56,32,1,FBP-OG-17.png,0.4,1.2,33,0.5,,,,,,,,,,,,,,,,,,,,,,,,,,,,,,,,,,,,,,,,,,,,,
,,,,,V3_035,21,Female,2024-10-25_13h21.01.132,jersey_experiment_5_v3,2023.2.2,Win32,84.74576271,,,,,,,,,,,,,,,,353.4792,355.032,355.032,356.8321,return,0.5956,,94.27083333,0,57,57,13,1,FBP-YG-91.png,0.43,1.2,14,0.75,,,,,,,,,,,,,,,,,,,,,,,,,,,,,,,,,,,,,,,,,,,,,
,,,,,V3_035,21,Female,2024-10-25_13h21.01.132,jersey_experiment_5_v3,2023.2.2,Win32,84.74576271,,,,,,,,,,,,,,,,356.8323,358.385,358.385,361.2086,return,1.765,,18.22916667,0,58,58,11,1,FBP-YG-91.png,0.37,1.2,12,0.75,,,,,,,,,,,,,,,,,,,,,,,,,,,,,,,,,,,,,,,,,,,,,
,,,,,V3_035,21,Female,2024-10-25_13h21.01.132,jersey_experiment_5_v3,2023.2.2,Win32,84.74576271,,,,,,,,,,,,,,,,361.2089,362.7616,362.7617,364.8322,return,0.556,,77.34375,0,59,59,19,1,FBP-PT-17.png,0.45,1.2,20,0.75,,,,,,,,,,,,,,,,,,,,,,,,,,,,,,,,,,,,,,,,,,,,,
,,,,,V3_035,21,Female,2024-10-25_13h21.01.132,jersey_experiment_5_v3,2023.2.2,Win32,84.74576271,,,,,,,,,,,,,,,,364.8345,366.1264,366.1265,368.3266,return,0.8623,,70.57291667,,,,,,FBP-OG-71.png,0.4,1.2,33,0.5,0,0,0,32,1,,,,,,,,,,,,,,,,,,,,,,,,,,,,,,,,,,,,,,,,
,,,,,V3_035,21,Female,2024-10-25_13h21.01.132,jersey_experiment_5_v3,2023.2.2,Win32,84.74576271,,,,,,,,,,,,,,,,368.3269,369.8795,369.8795,372.0796,return,0.5826,,87.5,,,,,,FBP-PT-71.png,0.43,1.2,19,0.75,0,1,1,18,1,,,,,,,,,,,,,,,,,,,,,,,,,,,,,,,,,,,,,,,,
,,,,,V3_035,21,Female,2024-10-25_13h21.01.132,jersey_experiment_5_v3,2023.2.2,Win32,84.74576271,,,,,,,,,,,,,,,,372.08,373.6326,373.6327,375.3033,return,0.6357,,87.5,,,,,,FBP-PT-91.png,0.43,1.2,29,0.75,0,2,2,28,1,,,,,,,,,,,,,,,,,,,,,,,,,,,,,,,,,,,,,,,,
,,,,,V3_035,21,Female,2024-10-25_13h21.01.132,jersey_experiment_5_v3,2023.2.2,Win32,84.74576271,,,,,,,,,,,,,,,,375.3035,376.8562,376.8562,380.0329,return,1.7715,,35.80729167,,,,,,FBP-YG-17.png,0.37,1.2,2,0.75,0,3,3,1,1,,,,,,,,,,,,,,,,,,,,,,,,,,,,,,,,,,,,,,,,
,,,,,V3_035,21,Female,2024-10-25_13h21.01.132,jersey_experiment_5_v3,2023.2.2,Win32,84.74576271,,,,,,,,,,,,,,,,380.0332,381.327,381.3271,383.4329,return,0.6102,,97.91666667,,,,,,FBP-OG-71.png,0.45,1.2,35,0.5,0,4,4,34,1,,,,,,,,,,,,,,,,,,,,,,,,,,,,,,,,,,,,,,,,
,,,,,V3_035,21,Female,2024-10-25_13h21.01.132,jersey_experiment_5_v3,2023.2.2,Win32,84.74576271,,,,,,,,,,,,,,,,383.4332,384.986,384.9861,386.4566,return,0.6673,,98.17708333,,,,,,FBP-RB-81.png,0.45,1.2,55,0.75,0,5,5,54,1,,,,,,,,,,,,,,,,,,,,,,,,,,,,,,,,,,,,,,,,
,,,,,V3_035,21,Female,2024-10-25_13h21.01.132,jersey_experiment_5_v3,2023.2.2,Win32,84.74576271,,,,,,,,,,,,,,,,386.4569,388.0097,388.0097,389.3626,return,0.5676,,98.4375,,,,,,FBP-RB-71.png,0.45,1.2,50,0.75,0,6,6,49,1,,,,,,,,,,,,,,,,,,,,,,,,,,,,,,,,,,,,,,,,
,,,,,V3_035,21,Female,2024-10-25_13h21.01.132,jersey_experiment_5_v3,2023.2.2,Win32,84.74576271,,,,,,,,,,,,,,,,389.3628,390.904,390.904,392.7863,return,0.9801,,7.682291667,,,,,,FBP-PT-71.png,0.37,1.2,17,0.75,0,7,7,16,1,,,,,,,,,,,,,,,,,,,,,,,,,,,,,,,,,,,,,,,,
,,,,,V3_035,21,Female,2024-10-25_13h21.01.132,jersey_experiment_5_v3,2023.2.2,Win32,84.74576271,,,,,,,,,,,,,,,,392.7865,394.0804,394.0805,396.2923,return,0.5756,,7.682291667,,,,,,FBP-OG-71.png,0.35,1.2,31,0.5,0,8,8,30,1,,,,,,,,,,,,,,,,,,,,,,,,,,,,,,,,,,,,,,,,
,,,,,V3_035,21,Female,2024-10-25_13h21.01.132,jersey_experiment_5_v3,2023.2.2,Win32,84.74576271,,,,,,,,,,,,,,,,396.2926,397.8452,397.8453,400.8689,return,0.5319,,85.9375,,,,,,FBP-YG-17.png,0.45,1.2,5,0.75,0,9,9,4,1,,,,,,,,,,,,,,,,,,,,,,,,,,,,,,,,,,,,,,,,
,,,,,V3_035,21,Female,2024-10-25_13h21.01.132,jersey_experiment_5_v3,2023.2.2,Win32,84.74576271,,,,,,,,,,,,,,,,400.8691,402.422,402.422,405.6691,return,0.6374,,28.64583333,,,,,,FBP-PT-91.png,0.37,1.2,27,0.75,0,10,10,26,1,,,,,,,,,,,,,,,,,,,,,,,,,,,,,,,,,,,,,,,,
,,,,,V3_035,21,Female,2024-10-25_13h21.01.132,jersey_experiment_5_v3,2023.2.2,Win32,84.74576271,,,,,,,,,,,,,,,,405.6693,407.2221,407.2222,410.6576,return,0.9122,,70.96354167,,,,,,FBP-YG-17.png,0.43,1.2,4,0.75,0,11,11,3,1,,,,,,,,,,,,,,,,,,,,,,,,,,,,,,,,,,,,,,,,
,,,,,V3_035,21,Female,2024-10-25_13h21.01.132,jersey_experiment_5_v3,2023.2.2,Win32,84.74576271,,,,,,,,,,,,,,,,410.6578,412.2105,412.2105,415.587,return,0.6867,,8.072916667,,,,,,FBP-RB-91.png,0.35,1.2,56,0.75,0,12,12,55,1,,,,,,,,,,,,,,,,,,,,,,,,,,,,,,,,,,,,,,,,
,,,,,V3_035,21,Female,2024-10-25_13h21.01.132,jersey_experiment_5_v3,2023.2.2,Win32,84.74576271,,,,,,,,,,,,,,,,415.5874,417.14,417.1401,419.6342,return,0.664,,2.864583333,,,,,,FBP-PT-71.png,0.35,1.2,16,0.75,0,13,13,15,1,,,,,,,,,,,,,,,,,,,,,,,,,,,,,,,,,,,,,,,,
,,,,,V3_035,21,Female,2024-10-25_13h21.01.132,jersey_experiment_5_v3,2023.2.2,Win32,84.74576271,,,,,,,,,,,,,,,,419.6345,421.1873,421.1873,423.6815,return,0.6491,,96.484375,,,,,,FBP-PT-81.png,0.43,1.2,24,0.75,0,14,14,23,1,,,,,,,,,,,,,,,,,,,,,,,,,,,,,,,,,,,,,,,,
,,,,,V3_035,21,Female,2024-10-25_13h21.01.132,jersey_experiment_5_v3,2023.2.2,Win32,84.74576271,,,,,,,,,,,,,,,,423.6819,424.9755,424.9755,427.7051,return,0.8708,,2.083333333,,,,,,FBP-OG-81.png,0.37,1.2,37,0.5,0,15,15,36,1,,,,,,,,,,,,,,,,,,,,,,,,,,,,,,,,,,,,,,,,
,,,,,V3_035,21,Female,2024-10-25_13h21.01.132,jersey_experiment_5_v3,2023.2.2,Win32,84.74576271,,,,,,,,,,,,,,,,427.7054,429.2581,429.2581,431.7523,return,0.6596,,95.05208333,,,,,,FBP-PT-91.png,0.45,1.2,30,0.75,0,16,16,29,1,,,,,,,,,,,,,,,,,,,,,,,,,,,,,,,,,,,,,,,,
,,,,,V3_035,21,Female,2024-10-25_13h21.01.132,jersey_experiment_5_v3,2023.2.2,Win32,84.74576271,,,,,,,,,,,,,,,,431.7527,433.3054,433.3054,435.4466,return,0.6688,,95.3125,,,,,,FBP-YG-19.png,0.4,1.2,13,0.75,0,17,17,12,1,,,,,,,,,,,,,,,,,,,,,,,,,,,,,,,,,,,,,,,,
,,,,,V3_035,21,Female,2024-10-25_13h21.01.132,jersey_experiment_5_v3,2023.2.2,Win32,84.74576271,,,,,,,,,,,,,,,,435.4468,436.9996,436.9996,438.7056,return,0.5683,,85.02604167,,,,,,FBP-RB-81.png,0.4,1.2,53,0.75,0,18,18,52,1,,,,,,,,,,,,,,,,,,,,,,,,,,,,,,,,,,,,,,,,
,,,,,V3_035,21,Female,2024-10-25_13h21.01.132,jersey_experiment_5_v3,2023.2.2,Win32,84.74576271,,,,,,,,,,,,,,,,438.7058,440.2586,440.2586,441.9761,return,0.5564,,97.13541667,,,,,,FBP-YG-18.png,0.45,1.2,10,0.75,0,19,19,9,1,,,,,,,,,,,,,,,,,,,,,,,,,,,,,,,,,,,,,,,,
,,,,,V3_035,21,Female,2024-10-25_13h21.01.132,jersey_experiment_5_v3,2023.2.2,Win32,84.74576271,,,,,,,,,,,,,,,,441.9764,443.2704,443.2705,444.8705,return,0.6355,,97.00520833,,,,,,FBP-OG-81.png,0.45,1.2,40,0.5,0,20,20,39,1,,,,,,,,,,,,,,,,,,,,,,,,,,,,,,,,,,,,,,,,
,,,,,V3_035,21,Female,2024-10-25_13h21.01.132,jersey_experiment_5_v3,2023.2.2,Win32,84.74576271,,,,,,,,,,,,,,,,444.8707,446.4235,446.4236,449.6,return,1.1719,,82.94270833,,,,,,FBP-YG-18.png,0.4,1.2,8,0.75,0,21,21,7,1,,,,,,,,,,,,,,,,,,,,,,,,,,,,,,,,,,,,,,,,
,,,,,V3_035,21,Female,2024-10-25_13h21.01.132,jersey_experiment_5_v3,2023.2.2,Win32,84.74576271,,,,,,,,,,,,,,,,449.6002,450.8942,450.8942,454.7296,return,0.5805,,79.55729167,,,,,,FBP-OG-81.png,0.4,1.2,38,0.5,0,22,22,37,1,,,,,,,,,,,,,,,,,,,,,,,,,,,,,,,,,,,,,,,,
,,,,,V3_035,21,Female,2024-10-25_13h21.01.132,jersey_experiment_5_v3,2023.2.2,Win32,84.74576271,,,,,,,,,,,,,,,,454.7298,456.2825,456.2825,458.3886,return,0.5987,,99.21875,,,,,,FBP-PT-81.png,0.45,1.2,25,0.75,0,23,23,24,1,,,,,,,,,,,,,,,,,,,,,,,,,,,,,,,,,,,,,,,,
,,,,,V3_035,21,Female,2024-10-25_13h21.01.132,jersey_experiment_5_v3,2023.2.2,Win32,84.74576271,,,,,,,,,,,,,,,,458.3889,459.9416,459.9417,462.5535,return,0.6466,,77.734375,,,,,,FBP-RB-81.png,0.37,1.2,52,0.75,0,24,24,51,1,,,,,,,,,,,,,,,,,,,,,,,,,,,,,,,,,,,,,,,,
,,,,,V3_035,21,Female,2024-10-25_13h21.01.132,jersey_experiment_5_v3,2023.2.2,Win32,84.74576271,,,,,,,,,,,,,,,,462.5537,463.8475,463.8475,468.0713,return,2.0922,,20.3125,,,,,,FBP-OG-91.png,0.37,1.2,42,0.5,0,25,25,41,1,,,,,,,,,,,,,,,,,,,,,,,,,,,,,,,,,,,,,,,,
,,,,,V3_035,21,Female,2024-10-25_13h21.01.132,jersey_experiment_5_v3,2023.2.2,Win32,84.74576271,,,,,,,,,,,,,,,,468.0717,469.6242,469.6243,471.1067,return,0.6048,,19.921875,,,,,,FBP-YG-19.png,0.37,1.2,12,0.75,0,26,26,11,1,,,,,,,,,,,,,,,,,,,,,,,,,,,,,,,,,,,,,,,,
,,,,,V3_035,21,Female,2024-10-25_13h21.01.132,jersey_experiment_5_v3,2023.2.2,Win32,84.74576271,,,,,,,,,,,,,,,,471.107,472.6597,472.6598,474.6128,return,0.6828,,77.86458333,,,,,,FBP-YG-18.png,0.43,1.2,9,0.75,0,27,27,8,1,,,,,,,,,,,,,,,,,,,,,,,,,,,,,,,,,,,,,,,,
,,,,,V3_035,21,Female,2024-10-25_13h21.01.132,jersey_experiment_5_v3,2023.2.2,Win32,84.74576271,,,,,,,,,,,,,,,,474.613,476.1656,476.1656,479.7306,return,1.8503,,31.640625,,,,,,FBP-RB-81.png,0.35,1.2,51,0.75,0,28,28,50,1,,,,,,,,,,,,,,,,,,,,,,,,,,,,,,,,,,,,,,,,
,,,,,V3_035,21,Female,2024-10-25_13h21.01.132,jersey_experiment_5_v3,2023.2.2,Win32,84.74576271,,,,,,,,,,,,,,,,479.7307,481.0247,481.0247,483.0954,return,0.6591,,3.125,,,,,,FBP-OG-91.png,0.35,1.2,41,0.5,0,29,29,40,1,,,,,,,,,,,,,,,,,,,,,,,,,,,,,,,,,,,,,,,,
,,,,,V3_035,21,Female,2024-10-25_13h21.01.132,jersey_experiment_5_v3,2023.2.2,Win32,84.74576271,,,,,,,,,,,,,,,,483.0957,484.6483,484.6483,486.0483,return,0.7011,,3.125,,,,,,FBP-PT-81.png,0.35,1.2,21,0.75,0,30,30,20,1,,,,,,,,,,,,,,,,,,,,,,,,,,,,,,,,,,,,,,,,
,,,,,V3_035,21,Female,2024-10-25_13h21.01.132,jersey_experiment_5_v3,2023.2.2,Win32,84.74576271,,,,,,,,,,,,,,,,486.0485,487.6014,487.6014,488.9426,return,0.6894,,3.125,,,,,,FBP-PT-91.png,0.35,1.2,26,0.75,0,31,31,25,1,,,,,,,,,,,,,,,,,,,,,,,,,,,,,,,,,,,,,,,,
,,,,,V3_035,21,Female,2024-10-25_13h21.01.132,jersey_experiment_5_v3,2023.2.2,Win32,84.74576271,,,,,,,,,,,,,,,,488.9428,490.4956,490.4956,492.4369,return,0.7555,,98.69791667,,,,,,FBP-RB-91.png,0.45,1.2,60,0.75,0,32,32,59,1,,,,,,,,,,,,,,,,,,,,,,,,,,,,,,,,,,,,,,,,
,,,,,V3_035,21,Female,2024-10-25_13h21.01.132,jersey_experiment_5_v3,2023.2.2,Win32,84.74576271,,,,,,,,,,,,,,,,492.4371,493.9898,493.9899,496.3664,return,0.5972,,77.21354167,,,,,,FBP-RB-91.png,0.37,1.2,57,0.75,0,33,33,56,1,,,,,,,,,,,,,,,,,,,,,,,,,,,,,,,,,,,,,,,,
,,,,,V3_035,21,Female,2024-10-25_13h21.01.132,jersey_experiment_5_v3,2023.2.2,Win32,84.74576271,,,,,,,,,,,,,,,,496.3666,497.9193,497.9194,500.0253,return,0.625,,47.65625,,,,,,FBP-YG-18.png,0.35,1.2,6,0.75,0,34,34,5,1,,,,,,,,,,,,,,,,,,,,,,,,,,,,,,,,,,,,,,,,
,,,,,V3_035,21,Female,2024-10-25_13h21.01.132,jersey_experiment_5_v3,2023.2.2,Win32,84.74576271,,,,,,,,,,,,,,,,500.0255,501.5784,501.5785,503.4961,return,0.6825,,96.484375,,,,,,FBP-YG-19.png,0.43,1.2,14,0.75,0,35,35,13,1,,,,,,,,,,,,,,,,,,,,,,,,,,,,,,,,,,,,,,,,
,,,,,V3_035,21,Female,2024-10-25_13h21.01.132,jersey_experiment_5_v3,2023.2.2,Win32,84.74576271,,,,,,,,,,,,,,,,503.4963,505.0491,505.0491,507.0609,return,0.6811,,97.00520833,,,,,,FBP-RB-71.png,0.43,1.2,49,0.75,0,36,36,48,1,,,,,,,,,,,,,,,,,,,,,,,,,,,,,,,,,,,,,,,,
,,,,,V3_035,21,Female,2024-10-25_13h21.01.132,jersey_experiment_5_v3,2023.2.2,Win32,84.74576271,,,,,,,,,,,,,,,,507.0613,508.6139,508.614,511.4728,return,1.2068,,25.26041667,,,,,,FBP-RB-71.png,0.37,1.2,47,0.75,0,37,37,46,1,,,,,,,,,,,,,,,,,,,,,,,,,,,,,,,,,,,,,,,,
,,,,,V3_035,21,Female,2024-10-25_13h21.01.132,jersey_experiment_5_v3,2023.2.2,Win32,84.74576271,,,,,,,,,,,,,,,,511.473,513.0259,513.0259,516.2142,return,0.814,,70.83333333,,,,,,FBP-YG-17.png,0.4,1.2,3,0.75,0,38,38,2,1,,,,,,,,,,,,,,,,,,,,,,,,,,,,,,,,,,,,,,,,
,,,,,V3_035,21,Female,2024-10-25_13h21.01.132,jersey_experiment_5_v3,2023.2.2,Win32,84.74576271,,,,,,,,,,,,,,,,516.2145,517.7671,517.7671,519.8731,return,0.6281,,16.27604167,,,,,,FBP-YG-19.png,0.35,1.2,11,0.75,0,39,39,10,1,,,,,,,,,,,,,,,,,,,,,,,,,,,,,,,,,,,,,,,,
,,,,,V3_035,21,Female,2024-10-25_13h21.01.132,jersey_experiment_5_v3,2023.2.2,Win32,84.74576271,,,,,,,,,,,,,,,,519.8733,521.1673,521.1673,523.1909,return,0.6232,,13.28125,,,,,,FBP-OG-91.png,0.4,1.2,43,0.5,0,40,40,42,1,,,,,,,,,,,,,,,,,,,,,,,,,,,,,,,,,,,,,,,,
,,,,,V3_035,21,Female,2024-10-25_13h21.01.132,jersey_experiment_5_v3,2023.2.2,Win32,84.74576271,,,,,,,,,,,,,,,,523.1911,524.485,524.485,526.391,return,0.6829,,79.6875,,,,,,FBP-OG-71.png,0.43,1.2,34,0.5,0,41,41,33,1,,,,,,,,,,,,,,,,,,,,,,,,,,,,,,,,,,,,,,,,
,,,,,V3_035,21,Female,2024-10-25_13h21.01.132,jersey_experiment_5_v3,2023.2.2,Win32,84.74576271,,,,,,,,,,,,,,,,526.3913,527.9439,527.944,529.6147,return,0.5608,,91.015625,,,,,,FBP-RB-81.png,0.43,1.2,54,0.75,0,42,42,53,1,,,,,,,,,,,,,,,,,,,,,,,,,,,,,,,,,,,,,,,,
,,,,,V3_035,21,Female,2024-10-25_13h21.01.132,jersey_experiment_5_v3,2023.2.2,Win32,84.74576271,,,,,,,,,,,,,,,,529.6149,531.1675,531.1676,535.9561,return,2.2978,,65.75520833,,,,,,FBP-YG-18.png,0.37,1.2,7,0.75,0,43,43,6,1,,,,,,,,,,,,,,,,,,,,,,,,,,,,,,,,,,,,,,,,
,,,,,V3_035,21,Female,2024-10-25_13h21.01.132,jersey_experiment_5_v3,2023.2.2,Win32,84.74576271,,,,,,,,,,,,,,,,535.9563,537.2502,537.2503,539.415,return,0.7053,,98.17708333,,,,,,FBP-OG-91.png,0.45,1.2,45,0.5,0,44,44,44,1,,,,,,,,,,,,,,,,,,,,,,,,,,,,,,,,,,,,,,,,
,,,,,V3_035,21,Female,2024-10-25_13h21.01.132,jersey_experiment_5_v3,2023.2.2,Win32,84.74576271,,,,,,,,,,,,,,,,539.4152,540.968,540.9681,543.415,return,1.0355,,98.17708333,,,,,,FBP-PT-91.png,0.4,1.2,28,0.75,0,45,45,27,1,,,,,,,,,,,,,,,,,,,,,,,,,,,,,,,,,,,,,,,,
,,,,,V3_035,21,Female,2024-10-25_13h21.01.132,jersey_experiment_5_v3,2023.2.2,Win32,84.74576271,,,,,,,,,,,,,,,,543.4153,544.9682,544.9682,548.1449,return,1.3462,,91.92708333,,,,,,FBP-PT-81.png,0.4,1.2,23,0.75,0,46,46,22,1,,,,,,,,,,,,,,,,,,,,,,,,,,,,,,,,,,,,,,,,
,,,,,V3_035,21,Female,2024-10-25_13h21.01.132,jersey_experiment_5_v3,2023.2.2,Win32,84.74576271,,,,,,,,,,,,,,,,548.1451,549.4388,549.4388,551.4978,return,0.6593,,28.90625,,,,,,FBP-OG-71.png,0.37,1.2,32,0.5,0,47,47,31,1,,,,,,,,,,,,,,,,,,,,,,,,,,,,,,,,,,,,,,,,
,,,,,V3_035,21,Female,2024-10-25_13h21.01.132,jersey_experiment_5_v3,2023.2.2,Win32,84.74576271,,,,,,,,,,,,,,,,551.4982,552.792,552.792,555.7685,return,0.7999,,22.91666667,,,,,,FBP-OG-81.png,0.35,1.2,36,0.5,0,48,48,35,1,,,,,,,,,,,,,,,,,,,,,,,,,,,,,,,,,,,,,,,,
,,,,,V3_035,21,Female,2024-10-25_13h21.01.132,jersey_experiment_5_v3,2023.2.2,Win32,84.74576271,,,,,,,,,,,,,,,,555.7688,557.0627,557.0627,559.9099,return,0.7645,,81.90104167,,,,,,FBP-OG-81.png,0.43,1.2,39,0.5,0,49,49,38,1,,,,,,,,,,,,,,,,,,,,,,,,,,,,,,,,,,,,,,,,
,,,,,V3_035,21,Female,2024-10-25_13h21.01.132,jersey_experiment_5_v3,2023.2.2,Win32,84.74576271,,,,,,,,,,,,,,,,559.9102,561.4628,561.4628,564.0982,return,0.7579,,85.80729167,,,,,,FBP-RB-91.png,0.4,1.2,58,0.75,0,50,50,57,1,,,,,,,,,,,,,,,,,,,,,,,,,,,,,,,,,,,,,,,,
,,,,,V3_035,21,Female,2024-10-25_13h21.01.132,jersey_experiment_5_v3,2023.2.2,Win32,84.74576271,,,,,,,,,,,,,,,,564.0985,565.6512,565.6512,567.8749,return,0.685,,19.53125,,,,,,FBP-RB-71.png,0.35,1.2,46,0.75,0,51,51,45,1,,,,,,,,,,,,,,,,,,,,,,,,,,,,,,,,,,,,,,,,
,,,,,V3_035,21,Female,2024-10-25_13h21.01.132,jersey_experiment_5_v3,2023.2.2,Win32,84.74576271,,,,,,,,,,,,,,,,567.8751,569.4279,569.428,571.8633,return,0.6825,,19.40104167,,,,,,FBP-YG-17.png,0.35,1.2,1,0.75,0,52,52,0,1,,,,,,,,,,,,,,,,,,,,,,,,,,,,,,,,,,,,,,,,
,,,,,V3_035,21,Female,2024-10-25_13h21.01.132,jersey_experiment_5_v3,2023.2.2,Win32,84.74576271,,,,,,,,,,,,,,,,571.8635,573.4162,573.4162,580.4518,return,1.274,,86.45833333,,,,,,FBP-PT-81.png,0.37,1.2,22,0.75,0,53,53,21,1,,,,,,,,,,,,,,,,,,,,,,,,,,,,,,,,,,,,,,,,
,,,,,V3_035,21,Female,2024-10-25_13h21.01.132,jersey_experiment_5_v3,2023.2.2,Win32,84.74576271,,,,,,,,,,,,,,,,580.4521,582.0047,582.0048,584.3225,return,0.7224,,97.65625,,,,,,FBP-YG-19.png,0.45,1.2,15,0.75,0,54,54,14,1,,,,,,,,,,,,,,,,,,,,,,,,,,,,,,,,,,,,,,,,
,,,,,V3_035,21,Female,2024-10-25_13h21.01.132,jersey_experiment_5_v3,2023.2.2,Win32,84.74576271,,,,,,,,,,,,,,,,584.3227,585.8755,585.8755,587.8755,return,0.6511,,97.52604167,,,,,,FBP-RB-91.png,0.43,1.2,59,0.75,0,55,55,58,1,,,,,,,,,,,,,,,,,,,,,,,,,,,,,,,,,,,,,,,,
,,,,,V3_035,21,Female,2024-10-25_13h21.01.132,jersey_experiment_5_v3,2023.2.2,Win32,84.74576271,,,,,,,,,,,,,,,,587.8759,589.1696,589.1697,591.5581,return,0.7413,,97.52604167,,,,,,FBP-OG-91.png,0.43,1.2,44,0.5,0,56,56,43,1,,,,,,,,,,,,,,,,,,,,,,,,,,,,,,,,,,,,,,,,
,,,,,V3_035,21,Female,2024-10-25_13h21.01.132,jersey_experiment_5_v3,2023.2.2,Win32,84.74576271,,,,,,,,,,,,,,,,591.5582,593.111,593.1111,594.8875,return,0.6506,,97.52604167,,,,,,FBP-RB-71.png,0.4,1.2,48,0.75,0,57,57,47,1,,,,,,,,,,,,,,,,,,,,,,,,,,,,,,,,,,,,,,,,
,,,,,V3_035,21,Female,2024-10-25_13h21.01.132,jersey_experiment_5_v3,2023.2.2,Win32,84.74576271,,,,,,,,,,,,,,,,594.8878,596.4406,596.4406,598.1113,return,0.5481,,97.52604167,,,,,,FBP-PT-71.png,0.4,1.2,18,0.75,0,58,58,17,1,,,,,,,,,,,,,,,,,,,,,,,,,,,,,,,,,,,,,,,,
,,,,,V3_035,21,Female,2024-10-25_13h21.01.132,jersey_experiment_5_v3,2023.2.2,Win32,84.74576271,,,,,,,,,,,,,,,,598.1115,599.6643,599.6644,601.523,return,0.7924,,98.95833333,,,,,,FBP-PT-71.png,0.45,1.2,20,0.75,0,59,59,19,1,,,,,,,,,,,,,,,,,,,,,,,,,,,,,,,,,,,,,,,,
,,,,,V3_035,21,Female,2024-10-25_13h21.01.132,jersey_experiment_5_v3,2023.2.2,Win32,84.74576271,,,,,,,,,,,,,,,,,,,,,,,,,,,,,,,,,,,,,,,601.5233,721.5159,,,,,,,,,,,,,,,,,,,,,,,,,,,,,,,,,,,,,,
,,,,,V3_035,21,Female,2024-10-25_13h21.01.132,jersey_experiment_5_v3,2023.2.2,Win32,84.74576271,,,,,,,,,,,,,,,,,,,,,,,,,,,,,,,,,,,,,,,,,721.516,741.3049,return,19.7733,,,,,,,,,,,,,,,,,,,,,,,,,,,,,,,,,,
,,,,,V3_035,21,Female,2024-10-25_13h21.01.132,jersey_experiment_5_v3,2023.2.2,Win32,84.74576271,,,,,,,,,,,,,,,,741.3069,742.5988,742.5988,747.1401,return,1.0227,,68.88020833,,,,,,FBP-RB-18.png,0.35,1.2,51,0.5,,,,,,,,,,,,,0,0,0,50,1,,,,,,,,,,,,,,,,,,,,,,,,,,,,
,,,,,V3_035,21,Female,2024-10-25_13h21.01.132,jersey_experiment_5_v3,2023.2.2,Win32,84.74576271,,,,,,,,,,,,,,,,747.1405,748.4343,748.4344,750.4343,return,0.6636,,92.31770833,,,,,,FBP-PT-18.png,0.45,1.2,25,0.5,,,,,,,,,,,,,0,1,1,24,1,,,,,,,,,,,,,,,,,,,,,,,,,,,,
,,,,,V3_035,21,Female,2024-10-25_13h21.01.132,jersey_experiment_5_v3,2023.2.2,Win32,84.74576271,,,,,,,,,,,,,,,,750.4346,751.7284,751.7284,753.4108,return,0.604,,92.31770833,,,,,,FBP-YG-81.png,0.43,1.2,9,0.5,,,,,,,,,,,,,0,2,2,8,1,,,,,,,,,,,,,,,,,,,,,,,,,,,,
,,,,,V3_035,21,Female,2024-10-25_13h21.01.132,jersey_experiment_5_v3,2023.2.2,Win32,84.74576271,,,,,,,,,,,,,,,,753.411,754.7051,754.7052,757.9287,return,1.8981,,87.76041667,,,,,,FBP-RB-19.png,0.4,1.2,58,0.5,,,,,,,,,,,,,0,3,3,57,1,,,,,,,,,,,,,,,,,,,,,,,,,,,,
,,,,,V3_035,21,Female,2024-10-25_13h21.01.132,jersey_experiment_5_v3,2023.2.2,Win32,84.74576271,,,,,,,,,,,,,,,,757.929,759.2229,759.2229,761.423,return,0.6668,,98.046875,,,,,,FBP-RB-19.png,0.45,1.2,60,0.5,,,,,,,,,,,,,0,4,4,59,1,,,,,,,,,,,,,,,,,,,,,,,,,,,,
,,,,,V3_035,21,Female,2024-10-25_13h21.01.132,jersey_experiment_5_v3,2023.2.2,Win32,84.74576271,,,,,,,,,,,,,,,,761.4232,762.7172,762.7172,765.1409,return,0.7318,,20.83333333,,,,,,FBP-RB-19.png,0.35,1.2,56,0.5,,,,,,,,,,,,,0,5,5,55,1,,,,,,,,,,,,,,,,,,,,,,,,,,,,
,,,,,V3_035,21,Female,2024-10-25_13h21.01.132,jersey_experiment_5_v3,2023.2.2,Win32,84.74576271,,,,,,,,,,,,,,,,765.1412,766.6937,766.6938,769.0469,return,0.6593,,79.81770833,,,,,,FBP-OG-17.png,0.43,1.2,34,0.75,,,,,,,,,,,,,0,6,6,33,1,,,,,,,,,,,,,,,,,,,,,,,,,,,,
,,,,,V3_035,21,Female,2024-10-25_13h21.01.132,jersey_experiment_5_v3,2023.2.2,Win32,84.74576271,,,,,,,,,,,,,,,,769.0473,770.3411,770.3411,774.6234,return,2.7687,,59.50520833,,,,,,FBP-PT-18.png,0.37,1.2,22,0.5,,,,,,,,,,,,,0,7,7,21,1,,,,,,,,,,,,,,,,,,,,,,,,,,,,
,,,,,V3_035,21,Female,2024-10-25_13h21.01.132,jersey_experiment_5_v3,2023.2.2,Win32,84.74576271,,,,,,,,,,,,,,,,774.6235,775.9176,775.9177,779.2472,return,1.7373,,72.265625,,,,,,FBP-PT-19.png,0.43,1.2,29,0.5,,,,,,,,,,,,,0,8,8,28,1,,,,,,,,,,,,,,,,,,,,,,,,,,,,
,,,,,V3_035,21,Female,2024-10-25_13h21.01.132,jersey_experiment_5_v3,2023.2.2,Win32,84.74576271,,,,,,,,,,,,,,,,779.2474,780.5412,780.5413,785.4238,return,3.4057,,16.66666667,,,,,,FBP-PT-17.png,0.35,1.2,16,0.5,,,,,,,,,,,,,0,9,9,15,1,,,,,,,,,,,,,,,,,,,,,,,,,,,,
,,,,,V3_035,21,Female,2024-10-25_13h21.01.132,jersey_experiment_5_v3,2023.2.2,Win32,84.74576271,,,,,,,,,,,,,,,,785.4242,786.718,786.718,788.5299,return,0.8054,,19.921875,,,,,,FBP-YG-91.png,0.35,1.2,11,0.5,,,,,,,,,,,,,0,10,10,10,1,,,,,,,,,,,,,,,,,,,,,,,,,,,,
,,,,,V3_035,21,Female,2024-10-25_13h21.01.132,jersey_experiment_5_v3,2023.2.2,Win32,84.74576271,,,,,,,,,,,,,,,,788.5301,789.824,789.824,792.483,return,0.8271,,25.390625,,,,,,FBP-RB-19.png,0.37,1.2,57,0.5,,,,,,,,,,,,,0,11,11,56,1,,,,,,,,,,,,,,,,,,,,,,,,,,,,
,,,,,V3_035,21,Female,2024-10-25_13h21.01.132,jersey_experiment_5_v3,2023.2.2,Win32,84.74576271,,,,,,,,,,,,,,,,792.4833,793.7771,793.7771,795.0713,return,0.5819,,25.390625,,,,,,FBP-RB-18.png,0.37,1.2,52,0.5,,,,,,,,,,,,,0,12,12,51,1,,,,,,,,,,,,,,,,,,,,,,,,,,,,
,,,,,V3_035,21,Female,2024-10-25_13h21.01.132,jersey_experiment_5_v3,2023.2.2,Win32,84.74576271,,,,,,,,,,,,,,,,795.0715,796.6244,796.6245,798.342,return,0.5503,,78.77604167,,,,,,FBP-OG-18.png,0.45,1.2,40,0.75,,,,,,,,,,,,,0,13,13,39,1,,,,,,,,,,,,,,,,,,,,,,,,,,,,
,,,,,V3_035,21,Female,2024-10-25_13h21.01.132,jersey_experiment_5_v3,2023.2.2,Win32,84.74576271,,,,,,,,,,,,,,,,798.3423,799.6361,799.6362,801.2245,return,0.5888,,78.77604167,,,,,,FBP-YG-91.png,0.4,1.2,13,0.5,,,,,,,,,,,,,0,14,14,12,1,,,,,,,,,,,,,,,,,,,,,,,,,,,,
,,,,,V3_035,21,Female,2024-10-25_13h21.01.132,jersey_experiment_5_v3,2023.2.2,Win32,84.74576271,,,,,,,,,,,,,,,,801.2247,802.5186,802.5187,804.6481,return,0.5888,,40.10416667,,,,,,FBP-YG-71.png,0.37,1.2,2,0.5,,,,,,,,,,,,,0,15,15,1,1,,,,,,,,,,,,,,,,,,,,,,,,,,,,
,,,,,V3_035,21,Female,2024-10-25_13h21.01.132,jersey_experiment_5_v3,2023.2.2,Win32,84.74576271,,,,,,,,,,,,,,,,804.6483,805.9422,805.9422,807.9423,return,0.504,,64.32291667,,,,,,FBP-RB-18.png,0.4,1.2,53,0.5,,,,,,,,,,,,,0,16,16,52,1,,,,,,,,,,,,,,,,,,,,,,,,,,,,
,,,,,V3_035,21,Female,2024-10-25_13h21.01.132,jersey_experiment_5_v3,2023.2.2,Win32,84.74576271,,,,,,,,,,,,,,,,807.9426,809.2365,809.2366,811.0718,return,0.604,,93.61979167,,,,,,FBP-YG-81.png,0.45,1.2,10,0.5,,,,,,,,,,,,,0,17,17,9,1,,,,,,,,,,,,,,,,,,,,,,,,,,,,
,,,,,V3_035,21,Female,2024-10-25_13h21.01.132,jersey_experiment_5_v3,2023.2.2,Win32,84.74576271,,,,,,,,,,,,,,,,811.072,812.6249,812.6249,815.6014,return,1.6271,,19.01041667,,,,,,FBP-OG-19.png,0.35,1.2,41,0.75,,,,,,,,,,,,,0,18,18,40,1,,,,,,,,,,,,,,,,,,,,,,,,,,,,
,,,,,V3_035,21,Female,2024-10-25_13h21.01.132,jersey_experiment_5_v3,2023.2.2,Win32,84.74576271,,,,,,,,,,,,,,,,815.6016,817.1544,817.1544,822.7429,return,1.0588,,77.08333333,,,,,,FBP-OG-17.png,0.4,1.2,33,0.75,,,,,,,,,,,,,0,19,19,32,1,,,,,,,,,,,,,,,,,,,,,,,,,,,,
,,,,,V3_035,21,Female,2024-10-25_13h21.01.132,jersey_experiment_5_v3,2023.2.2,Win32,84.74576271,,,,,,,,,,,,,,,,822.7432,824.037,824.0371,826.39,return,0.8815,,77.08333333,,,,,,FBP-YG-71.png,0.35,1.2,1,0.5,,,,,,,,,,,,,0,20,20,0,1,,,,,,,,,,,,,,,,,,,,,,,,,,,,
,,,,,V3_035,21,Female,2024-10-25_13h21.01.132,jersey_experiment_5_v3,2023.2.2,Win32,84.74576271,,,,,,,,,,,,,,,,826.3903,827.6842,827.6842,831.2255,return,0.894,,80.859375,,,,,,FBP-PT-18.png,0.43,1.2,24,0.5,,,,,,,,,,,,,0,21,21,23,1,,,,,,,,,,,,,,,,,,,,,,,,,,,,
,,,,,V3_035,21,Female,2024-10-25_13h21.01.132,jersey_experiment_5_v3,2023.2.2,Win32,84.74576271,,,,,,,,,,,,,,,,831.2257,832.5197,832.5198,835.8493,return,0.6248,,80.72916667,,,,,,FBP-PT-17.png,0.45,1.2,20,0.5,,,,,,,,,,,,,0,22,22,19,1,,,,,,,,,,,,,,,,,,,,,,,,,,,,
,,,,,V3_035,21,Female,2024-10-25_13h21.01.132,jersey_experiment_5_v3,2023.2.2,Win32,84.74576271,,,,,,,,,,,,,,,,835.8494,837.4022,837.4023,838.7669,return,0.5713,,88.15104167,,,,,,FBP-OG-19.png,0.43,1.2,44,0.75,,,,,,,,,,,,,0,23,23,43,1,,,,,,,,,,,,,,,,,,,,,,,,,,,,
,,,,,V3_035,21,Female,2024-10-25_13h21.01.132,jersey_experiment_5_v3,2023.2.2,Win32,84.74576271,,,,,,,,,,,,,,,,838.7672,840.0612,840.0612,842.9437,return,0.8176,,31.38020833,,,,,,FBP-YG-81.png,0.35,1.2,6,0.5,,,,,,,,,,,,,0,24,24,5,1,,,,,,,,,,,,,,,,,,,,,,,,,,,,
,,,,,V3_035,21,Female,2024-10-25_13h21.01.132,jersey_experiment_5_v3,2023.2.2,Win32,84.74576271,,,,,,,,,,,,,,,,842.944,844.2377,844.2377,846.3673,return,0.7828,,80.59895833,,,,,,FBP-RB-19.png,0.43,1.2,59,0.5,,,,,,,,,,,,,0,25,25,58,1,,,,,,,,,,,,,,,,,,,,,,,,,,,,
,,,,,V3_035,21,Female,2024-10-25_13h21.01.132,jersey_experiment_5_v3,2023.2.2,Win32,84.74576271,,,,,,,,,,,,,,,,846.3675,847.6613,847.6614,851.1557,return,2.2151,,85.67708333,,,,,,FBP-YG-81.png,0.4,1.2,8,0.5,,,,,,,,,,,,,0,26,26,7,1,,,,,,,,,,,,,,,,,,,,,,,,,,,,
,,,,,V3_035,21,Female,2024-10-25_13h21.01.132,jersey_experiment_5_v3,2023.2.2,Win32,84.74576271,,,,,,,,,,,,,,,,851.1559,852.4498,852.4499,854.3205,return,0.6168,,88.28125,,,,,,FBP-YG-81.png,0.37,1.2,7,0.5,,,,,,,,,,,,,0,27,27,6,1,,,,,,,,,,,,,,,,,,,,,,,,,,,,
,,,,,V3_035,21,Female,2024-10-25_13h21.01.132,jersey_experiment_5_v3,2023.2.2,Win32,84.74576271,,,,,,,,,,,,,,,,854.3207,855.6147,855.6147,857.7324,return,0.6967,,96.22395833,,,,,,FBP-YG-91.png,0.43,1.2,14,0.5,,,,,,,,,,,,,0,28,28,13,1,,,,,,,,,,,,,,,,,,,,,,,,,,,,
,,,,,V3_035,21,Female,2024-10-25_13h21.01.132,jersey_experiment_5_v3,2023.2.2,Win32,84.74576271,,,,,,,,,,,,,,,,857.7328,859.2854,859.2854,861.509,return,0.6466,,98.69791667,,,,,,FBP-OG-19.png,0.45,1.2,45,0.75,,,,,,,,,,,,,0,29,29,44,1,,,,,,,,,,,,,,,,,,,,,,,,,,,,
,,,,,V3_035,21,Female,2024-10-25_13h21.01.132,jersey_experiment_5_v3,2023.2.2,Win32,84.74576271,,,,,,,,,,,,,,,,861.5092,862.8031,862.8031,864.1914,return,0.6992,,98.69791667,,,,,,FBP-RB-17.png,0.45,1.2,50,0.5,,,,,,,,,,,,,0,30,30,49,1,,,,,,,,,,,,,,,,,,,,,,,,,,,,
,,,,,V3_035,21,Female,2024-10-25_13h21.01.132,jersey_experiment_5_v3,2023.2.2,Win32,84.74576271,,,,,,,,,,,,,,,,864.1917,865.7443,865.7444,867.6857,return,0.557,,26.82291667,,,,,,FBP-OG-17.png,0.37,1.2,32,0.75,,,,,,,,,,,,,0,31,31,31,1,,,,,,,,,,,,,,,,,,,,,,,,,,,,
,,,,,V3_035,21,Female,2024-10-25_13h21.01.132,jersey_experiment_5_v3,2023.2.2,Win32,84.74576271,,,,,,,,,,,,,,,,867.686,868.9799,868.9799,870.7211,return,0.5195,,77.34375,,,,,,FBP-YG-71.png,0.43,1.2,4,0.5,,,,,,,,,,,,,0,32,32,3,1,,,,,,,,,,,,,,,,,,,,,,,,,,,,
,,,,,V3_035,21,Female,2024-10-25_13h21.01.132,jersey_experiment_5_v3,2023.2.2,Win32,84.74576271,,,,,,,,,,,,,,,,870.7214,872.0152,872.0152,875.9096,return,2.1513,,69.79166667,,,,,,FBP-PT-17.png,0.4,1.2,18,0.5,,,,,,,,,,,,,0,33,33,17,1,,,,,,,,,,,,,,,,,,,,,,,,,,,,
,,,,,V3_035,21,Female,2024-10-25_13h21.01.132,jersey_experiment_5_v3,2023.2.2,Win32,84.74576271,,,,,,,,,,,,,,,,875.9098,877.2036,877.2037,879.2978,return,0.6406,,31.90104167,,,,,,FBP-PT-18.png,0.4,1.2,23,0.5,,,,,,,,,,,,,0,34,34,22,1,,,,,,,,,,,,,,,,,,,,,,,,,,,,
,,,,,V3_035,21,Female,2024-10-25_13h21.01.132,jersey_experiment_5_v3,2023.2.2,Win32,84.74576271,,,,,,,,,,,,,,,,879.2981,880.592,880.592,884.1686,return,2.0548,,44.66145833,,,,,,FBP-PT-19.png,0.4,1.2,28,0.5,,,,,,,,,,,,,0,35,35,27,1,,,,,,,,,,,,,,,,,,,,,,,,,,,,
,,,,,V3_035,21,Female,2024-10-25_13h21.01.132,jersey_experiment_5_v3,2023.2.2,Win32,84.74576271,,,,,,,,,,,,,,,,884.1689,885.4629,885.4629,888.2863,return,0.7485,,54.6875,,,,,,FBP-RB-17.png,0.43,1.2,49,0.5,,,,,,,,,,,,,0,36,36,48,1,,,,,,,,,,,,,,,,,,,,,,,,,,,,
,,,,,V3_035,21,Female,2024-10-25_13h21.01.132,jersey_experiment_5_v3,2023.2.2,Win32,84.74576271,,,,,,,,,,,,,,,,888.2865,889.5805,889.5806,892.11,return,0.6403,,9.244791667,,,,,,FBP-RB-17.png,0.35,1.2,46,0.5,,,,,,,,,,,,,0,37,37,45,1,,,,,,,,,,,,,,,,,,,,,,,,,,,,
,,,,,V3_035,21,Female,2024-10-25_13h21.01.132,jersey_experiment_5_v3,2023.2.2,Win32,84.74576271,,,,,,,,,,,,,,,,892.1101,893.663,893.6631,896.6279,return,0.6746,,76.953125,,,,,,FBP-OG-19.png,0.4,1.2,43,0.75,,,,,,,,,,,,,0,38,38,42,1,,,,,,,,,,,,,,,,,,,,,,,,,,,,
,,,,,V3_035,21,Female,2024-10-25_13h21.01.132,jersey_experiment_5_v3,2023.2.2,Win32,84.74576271,,,,,,,,,,,,,,,,896.6282,897.922,897.922,900.3222,return,0.7224,,96.74479167,,,,,,FBP-YG-71.png,0.45,1.2,5,0.5,,,,,,,,,,,,,0,39,39,4,1,,,,,,,,,,,,,,,,,,,,,,,,,,,,
,,,,,V3_035,21,Female,2024-10-25_13h21.01.132,jersey_experiment_5_v3,2023.2.2,Win32,84.74576271,,,,,,,,,,,,,,,,900.3224,901.6163,901.6163,903.1458,return,0.7307,,97.00520833,,,,,,FBP-PT-19.png,0.45,1.2,30,0.5,,,,,,,,,,,,,0,40,40,29,1,,,,,,,,,,,,,,,,,,,,,,,,,,,,
,,,,,V3_035,21,Female,2024-10-25_13h21.01.132,jersey_experiment_5_v3,2023.2.2,Win32,84.74576271,,,,,,,,,,,,,,,,903.146,904.6987,904.6988,907.393,return,0.6967,,20.44270833,,,,,,FBP-OG-18.png,0.37,1.2,37,0.75,,,,,,,,,,,,,0,41,41,36,1,,,,,,,,,,,,,,,,,,,,,,,,,,,,
,,,,,V3_035,21,Female,2024-10-25_13h21.01.132,jersey_experiment_5_v3,2023.2.2,Win32,84.74576271,,,,,,,,,,,,,,,,907.3934,908.6872,908.6873,911.6519,return,0.5677,,14.84375,,,,,,FBP-PT-17.png,0.37,1.2,17,0.5,,,,,,,,,,,,,0,42,42,16,1,,,,,,,,,,,,,,,,,,,,,,,,,,,,
,,,,,V3_035,21,Female,2024-10-25_13h21.01.132,jersey_experiment_5_v3,2023.2.2,Win32,84.74576271,,,,,,,,,,,,,,,,911.6521,912.9461,912.9462,916.0874,return,0.5549,,80.59895833,,,,,,FBP-RB-18.png,0.43,1.2,54,0.5,,,,,,,,,,,,,0,43,43,53,1,,,,,,,,,,,,,,,,,,,,,,,,,,,,
,,,,,V3_035,21,Female,2024-10-25_13h21.01.132,jersey_experiment_5_v3,2023.2.2,Win32,84.74576271,,,,,,,,,,,,,,,,916.0876,917.3816,917.3817,919.0758,return,0.5898,,83.59375,,,,,,FBP-YG-91.png,0.45,1.2,15,0.5,,,,,,,,,,,,,0,44,44,14,1,,,,,,,,,,,,,,,,,,,,,,,,,,,,
,,,,,V3_035,21,Female,2024-10-25_13h21.01.132,jersey_experiment_5_v3,2023.2.2,Win32,84.74576271,,,,,,,,,,,,,,,,919.076,920.6288,920.6288,922.6758,return,0.5559,,20.3125,,,,,,FBP-OG-18.png,0.35,1.2,36,0.75,,,,,,,,,,,,,0,45,45,35,1,,,,,,,,,,,,,,,,,,,,,,,,,,,,
,,,,,V3_035,21,Female,2024-10-25_13h21.01.132,jersey_experiment_5_v3,2023.2.2,Win32,84.74576271,,,,,,,,,,,,,,,,922.676,923.9699,923.9699,927.0173,return,0.6672,,77.734375,,,,,,FBP-RB-17.png,0.37,1.2,47,0.5,,,,,,,,,,,,,0,46,46,46,1,,,,,,,,,,,,,,,,,,,,,,,,,,,,
,,,,,V3_035,21,Female,2024-10-25_13h21.01.132,jersey_experiment_5_v3,2023.2.2,Win32,84.74576271,,,,,,,,,,,,,,,,927.0179,928.5703,928.5704,931.3351,return,0.9304,,84.24479167,,,,,,FBP-OG-18.png,0.4,1.2,38,0.75,,,,,,,,,,,,,0,47,47,37,1,,,,,,,,,,,,,,,,,,,,,,,,,,,,
,,,,,V3_035,21,Female,2024-10-25_13h21.01.132,jersey_experiment_5_v3,2023.2.2,Win32,84.74576271,,,,,,,,,,,,,,,,931.3353,932.6291,932.6292,935.2528,return,0.6375,,23.17708333,,,,,,FBP-PT-18.png,0.35,1.2,21,0.5,,,,,,,,,,,,,0,48,48,20,1,,,,,,,,,,,,,,,,,,,,,,,,,,,,
,,,,,V3_035,21,Female,2024-10-25_13h21.01.132,jersey_experiment_5_v3,2023.2.2,Win32,84.74576271,,,,,,,,,,,,,,,,935.253,936.5469,936.5469,939.1119,return,0.8549,,96.22395833,,,,,,FBP-RB-18.png,0.45,1.2,55,0.5,,,,,,,,,,,,,0,49,49,54,1,,,,,,,,,,,,,,,,,,,,,,,,,,,,
,,,,,V3_035,21,Female,2024-10-25_13h21.01.132,jersey_experiment_5_v3,2023.2.2,Win32,84.74576271,,,,,,,,,,,,,,,,939.1122,940.4058,940.4059,943.4295,return,1.7319,,32.55208333,,,,,,FBP-PT-19.png,0.35,1.2,26,0.5,,,,,,,,,,,,,0,50,50,25,1,,,,,,,,,,,,,,,,,,,,,,,,,,,,
,,,,,V3_035,21,Female,2024-10-25_13h21.01.132,jersey_experiment_5_v3,2023.2.2,Win32,84.74576271,,,,,,,,,,,,,,,,943.4298,944.7238,944.7238,946.1356,return,0.5632,,32.421875,,,,,,FBP-YG-91.png,0.37,1.2,12,0.5,,,,,,,,,,,,,0,51,51,11,1,,,,,,,,,,,,,,,,,,,,,,,,,,,,
,,,,,V3_035,21,Female,2024-10-25_13h21.01.132,jersey_experiment_5_v3,2023.2.2,Win32,84.74576271,,,,,,,,,,,,,,,,946.1357,947.4296,947.4297,949.3592,return,0.5842,,97.52604167,,,,,,FBP-PT-17.png,0.43,1.2,19,0.5,,,,,,,,,,,,,0,52,52,18,1,,,,,,,,,,,,,,,,,,,,,,,,,,,,
,,,,,V3_035,21,Female,2024-10-25_13h21.01.132,jersey_experiment_5_v3,2023.2.2,Win32,84.74576271,,,,,,,,,,,,,,,,949.3595,950.6534,950.6534,952.2063,return,0.5612,,97.52604167,,,,,,FBP-RB-17.png,0.4,1.2,48,0.5,,,,,,,,,,,,,0,53,53,47,1,,,,,,,,,,,,,,,,,,,,,,,,,,,,
,,,,,V3_035,21,Female,2024-10-25_13h21.01.132,jersey_experiment_5_v3,2023.2.2,Win32,84.74576271,,,,,,,,,,,,,,,,952.2065,953.7593,953.7593,956.2653,return,0.6591,,27.47395833,,,,,,FBP-OG-17.png,0.35,1.2,31,0.75,,,,,,,,,,,,,0,54,54,30,1,,,,,,,,,,,,,,,,,,,,,,,,,,,,
,,,,,V3_035,21,Female,2024-10-25_13h21.01.132,jersey_experiment_5_v3,2023.2.2,Win32,84.74576271,,,,,,,,,,,,,,,,956.2656,957.5595,957.5595,959.3831,return,0.5416,,27.47395833,,,,,,FBP-PT-19.png,0.37,1.2,27,0.5,,,,,,,,,,,,,0,55,55,26,1,,,,,,,,,,,,,,,,,,,,,,,,,,,,
,,,,,V3_035,21,Female,2024-10-25_13h21.01.132,jersey_experiment_5_v3,2023.2.2,Win32,84.74576271,,,,,,,,,,,,,,,,959.3833,960.9361,960.9361,964.0656,return,0.8722,,83.984375,,,,,,FBP-OG-18.png,0.43,1.2,39,0.75,,,,,,,,,,,,,0,56,56,38,1,,,,,,,,,,,,,,,,,,,,,,,,,,,,
,,,,,V3_035,21,Female,2024-10-25_13h21.01.132,jersey_experiment_5_v3,2023.2.2,Win32,84.74576271,,,,,,,,,,,,,,,,964.0661,965.6187,965.6187,971.4306,return,3.2244,,33.72395833,,,,,,FBP-OG-19.png,0.37,1.2,42,0.75,,,,,,,,,,,,,0,57,57,41,1,,,,,,,,,,,,,,,,,,,,,,,,,,,,
,,,,,V3_035,21,Female,2024-10-25_13h21.01.132,jersey_experiment_5_v3,2023.2.2,Win32,84.74576271,,,,,,,,,,,,,,,,971.431,972.9837,972.9837,976.0896,return,1.9449,,100,,,,,,FBP-OG-17.png,0.45,1.2,35,0.75,,,,,,,,,,,,,0,58,58,34,1,,,,,,,,,,,,,,,,,,,,,,,,,,,,
,,,,,V3_035,21,Female,2024-10-25_13h21.01.132,jersey_experiment_5_v3,2023.2.2,Win32,84.74576271,,,,,,,,,,,,,,,,976.0898,977.3837,977.3837,982.0193,return,2.18,,78.125,,,,,,FBP-YG-71.png,0.4,1.2,3,0.5,,,,,,,,,,,,,0,59,59,2,1,,,,,,,,,,,,,,,,,,,,,,,,,,,,
,,,,,V3_035,21,Female,2024-10-25_13h21.01.132,jersey_experiment_5_v3,2023.2.2,Win32,84.74576271,,,,,,,,,,,,,,,,982.0211,983.3134,983.3134,986.031,return,0.4863,,59.24479167,,,,,,FBP-RB-91.png,0.37,1.2,57,0.5,,,,,,,,,,,,,,,,,,0,0,0,56,1,,,,,,,,,,,,,,,,,,,,,,,
,,,,,V3_035,21,Female,2024-10-25_13h21.01.132,jersey_experiment_5_v3,2023.2.2,Win32,84.74576271,,,,,,,,,,,,,,,,986.0313,987.3252,987.3252,989.8312,return,0.6129,,99.86979167,,,,,,FBP-RB-81.png,0.45,1.2,55,0.5,,,,,,,,,,,,,,,,,,0,1,1,54,1,,,,,,,,,,,,,,,,,,,,,,,
,,,,,V3_035,21,Female,2024-10-25_13h21.01.132,jersey_experiment_5_v3,2023.2.2,Win32,84.74576271,,,,,,,,,,,,,,,,989.8314,991.3842,991.3842,994.1491,return,0.576,,61.84895833,,,,,,FBP-OG-81.png,0.4,1.2,38,0.75,,,,,,,,,,,,,,,,,,0,2,2,37,1,,,,,,,,,,,,,,,,,,,,,,,
,,,,,V3_035,21,Female,2024-10-25_13h21.01.132,jersey_experiment_5_v3,2023.2.2,Win32,84.74576271,,,,,,,,,,,,,,,,994.1493,995.4432,995.4433,997.2551,return,0.4564,,65.75520833,,,,,,FBP-RB-91.png,0.4,1.2,58,0.5,,,,,,,,,,,,,,,,,,0,3,3,57,1,,,,,,,,,,,,,,,,,,,,,,,
,,,,,V3_035,21,Female,2024-10-25_13h21.01.132,jersey_experiment_5_v3,2023.2.2,Win32,84.74576271,,,,,,,,,,,,,,,,997.2553,998.808,998.8081,1001.3376,return,0.5418,,20.96354167,,,,,,FBP-OG-71.png,0.35,1.2,31,0.75,,,,,,,,,,,,,,,,,,0,4,4,30,1,,,,,,,,,,,,,,,,,,,,,,,
,,,,,V3_035,21,Female,2024-10-25_13h21.01.132,jersey_experiment_5_v3,2023.2.2,Win32,84.74576271,,,,,,,,,,,,,,,,1001.3377,1002.8906,1002.8906,1004.5024,return,0.6123,,20.96354167,,,,,,FBP-OG-91.png,0.37,1.2,42,0.75,,,,,,,,,,,,,,,,,,0,5,5,41,1,,,,,,,,,,,,,,,,,,,,,,,
,,,,,V3_035,21,Female,2024-10-25_13h21.01.132,jersey_experiment_5_v3,2023.2.2,Win32,84.74576271,,,,,,,,,,,,,,,,1004.5027,1005.7966,1005.7966,1008.3614,return,0.5413,,75.65104167,,,,,,FBP-YG-17.png,0.43,1.2,4,0.5,,,,,,,,,,,,,,,,,,0,6,6,3,1,,,,,,,,,,,,,,,,,,,,,,,
,,,,,V3_035,21,Female,2024-10-25_13h21.01.132,jersey_experiment_5_v3,2023.2.2,Win32,84.74576271,,,,,,,,,,,,,,,,1008.3618,1009.9144,1009.9144,1013.1615,return,1.2077,,19.921875,,,,,,FBP-OG-81.png,0.37,1.2,37,0.75,,,,,,,,,,,,,,,,,,0,7,7,36,1,,,,,,,,,,,,,,,,,,,,,,,
,,,,,V3_035,21,Female,2024-10-25_13h21.01.132,jersey_experiment_5_v3,2023.2.2,Win32,84.74576271,,,,,,,,,,,,,,,,1013.1618,1014.4557,1014.4557,1017.044,return,0.5672,,91.14583333,,,,,,FBP-PT-71.png,0.45,1.2,20,0.5,,,,,,,,,,,,,,,,,,0,8,8,19,1,,,,,,,,,,,,,,,,,,,,,,,
,,,,,V3_035,21,Female,2024-10-25_13h21.01.132,jersey_experiment_5_v3,2023.2.2,Win32,84.74576271,,,,,,,,,,,,,,,,1017.0442,1018.3381,1018.3381,1020.35,return,0.6089,,97.00520833,,,,,,FBP-RB-71.png,0.43,1.2,49,0.5,,,,,,,,,,,,,,,,,,0,9,9,48,1,,,,,,,,,,,,,,,,,,,,,,,
,,,,,V3_035,21,Female,2024-10-25_13h21.01.132,jersey_experiment_5_v3,2023.2.2,Win32,84.74576271,,,,,,,,,,,,,,,,1020.3502,1021.6442,1021.6442,1023.1032,return,0.6391,,97.00520833,,,,,,FBP-RB-71.png,0.4,1.2,48,0.5,,,,,,,,,,,,,,,,,,0,10,10,47,1,,,,,,,,,,,,,,,,,,,,,,,
,,,,,V3_035,21,Female,2024-10-25_13h21.01.132,jersey_experiment_5_v3,2023.2.2,Win32,84.74576271,,,,,,,,,,,,,,,,1023.1035,1024.3972,1024.3973,1027.0562,return,0.6383,,23.30729167,,,,,,FBP-PT-91.png,0.37,1.2,27,0.5,,,,,,,,,,,,,,,,,,0,11,11,26,1,,,,,,,,,,,,,,,,,,,,,,,
,,,,,V3_035,21,Female,2024-10-25_13h21.01.132,jersey_experiment_5_v3,2023.2.2,Win32,84.74576271,,,,,,,,,,,,,,,,1027.0564,1028.3503,1028.3504,1029.9386,return,0.5924,,23.30729167,,,,,,FBP-PT-81.png,0.4,1.2,23,0.5,,,,,,,,,,,,,,,,,,0,12,12,22,1,,,,,,,,,,,,,,,,,,,,,,,
,,,,,V3_035,21,Female,2024-10-25_13h21.01.132,jersey_experiment_5_v3,2023.2.2,Win32,84.74576271,,,,,,,,,,,,,,,,1029.9389,1031.2327,1031.2328,1034.0683,return,0.7523,,23.30729167,,,,,,FBP-YG-18.png,0.35,1.2,6,0.5,,,,,,,,,,,,,,,,,,0,13,13,5,1,,,,,,,,,,,,,,,,,,,,,,,
,,,,,V3_035,21,Female,2024-10-25_13h21.01.132,jersey_experiment_5_v3,2023.2.2,Win32,84.74576271,,,,,,,,,,,,,,,,1034.0685,1035.3623,1035.3623,1037.6095,return,0.5648,,92.1875,,,,,,FBP-YG-18.png,0.43,1.2,9,0.5,,,,,,,,,,,,,,,,,,0,14,14,8,1,,,,,,,,,,,,,,,,,,,,,,,
,,,,,V3_035,21,Female,2024-10-25_13h21.01.132,jersey_experiment_5_v3,2023.2.2,Win32,84.74576271,,,,,,,,,,,,,,,,1037.6097,1038.9036,1038.9037,1040.6567,return,0.5439,,92.05729167,,,,,,FBP-PT-81.png,0.43,1.2,24,0.5,,,,,,,,,,,,,,,,,,0,15,15,23,1,,,,,,,,,,,,,,,,,,,,,,,
,,,,,V3_035,21,Female,2024-10-25_13h21.01.132,jersey_experiment_5_v3,2023.2.2,Win32,84.74576271,,,,,,,,,,,,,,,,1040.6569,1041.9508,1041.9508,1043.5744,return,0.6715,,92.05729167,,,,,,FBP-YG-17.png,0.4,1.2,3,0.5,,,,,,,,,,,,,,,,,,0,16,16,2,1,,,,,,,,,,,,,,,,,,,,,,,
,,,,,V3_035,21,Female,2024-10-25_13h21.01.132,jersey_experiment_5_v3,2023.2.2,Win32,84.74576271,,,,,,,,,,,,,,,,1043.5747,1044.8685,1044.8686,1046.551,return,0.5418,,92.578125,,,,,,FBP-RB-81.png,0.4,1.2,53,0.5,,,,,,,,,,,,,,,,,,0,17,17,52,1,,,,,,,,,,,,,,,,,,,,,,,
,,,,,V3_035,21,Female,2024-10-25_13h21.01.132,jersey_experiment_5_v3,2023.2.2,Win32,84.74576271,,,,,,,,,,,,,,,,1046.5513,1048.104,1048.104,1050.7865,return,0.6634,,99.47916667,,,,,,FBP-OG-71.png,0.45,1.2,35,0.75,,,,,,,,,,,,,,,,,,0,18,18,34,1,,,,,,,,,,,,,,,,,,,,,,,
,,,,,V3_035,21,Female,2024-10-25_13h21.01.132,jersey_experiment_5_v3,2023.2.2,Win32,84.74576271,,,,,,,,,,,,,,,,1050.7869,1052.0806,1052.0807,1053.4924,return,0.6143,,99.86979167,,,,,,FBP-RB-91.png,0.43,1.2,59,0.5,,,,,,,,,,,,,,,,,,0,19,19,58,1,,,,,,,,,,,,,,,,,,,,,,,
,,,,,V3_035,21,Female,2024-10-25_13h21.01.132,jersey_experiment_5_v3,2023.2.2,Win32,84.74576271,,,,,,,,,,,,,,,,1053.4927,1054.7865,1054.7865,1055.8807,return,0.5327,,99.86979167,,,,,,FBP-PT-81.png,0.45,1.2,25,0.5,,,,,,,,,,,,,,,,,,0,20,20,24,1,,,,,,,,,,,,,,,,,,,,,,,
,,,,,V3_035,21,Female,2024-10-25_13h21.01.132,jersey_experiment_5_v3,2023.2.2,Win32,84.74576271,,,,,,,,,,,,,,,,1055.8809,1057.175,1057.175,1059.4574,return,0.6057,,5.078125,,,,,,FBP-PT-91.png,0.35,1.2,26,0.5,,,,,,,,,,,,,,,,,,0,21,21,25,1,,,,,,,,,,,,,,,,,,,,,,,
,,,,,V3_035,21,Female,2024-10-25_13h21.01.132,jersey_experiment_5_v3,2023.2.2,Win32,84.74576271,,,,,,,,,,,,,,,,1059.4576,1060.7514,1060.7515,1063.5282,return,0.5806,,8.463541667,,,,,,FBP-YG-17.png,0.35,1.2,1,0.5,,,,,,,,,,,,,,,,,,0,22,22,0,1,,,,,,,,,,,,,,,,,,,,,,,
,,,,,V3_035,21,Female,2024-10-25_13h21.01.132,jersey_experiment_5_v3,2023.2.2,Win32,84.74576271,,,,,,,,,,,,,,,,1063.5284,1065.0811,1065.0811,1066.4695,return,0.6033,,8.463541667,,,,,,FBP-OG-71.png,0.4,1.2,33,0.75,,,,,,,,,,,,,,,,,,0,23,23,32,1,,,,,,,,,,,,,,,,,,,,,,,
,,,,,V3_035,21,Female,2024-10-25_13h21.01.132,jersey_experiment_5_v3,2023.2.2,Win32,84.74576271,,,,,,,,,,,,,,,,1066.4696,1067.7635,1067.7635,1069.9873,return,0.5786,,76.82291667,,,,,,FBP-PT-91.png,0.43,1.2,29,0.5,,,,,,,,,,,,,,,,,,0,24,24,28,1,,,,,,,,,,,,,,,,,,,,,,,
,,,,,V3_035,21,Female,2024-10-25_13h21.01.132,jersey_experiment_5_v3,2023.2.2,Win32,84.74576271,,,,,,,,,,,,,,,,1069.9875,1071.2812,1071.2812,1073.046,return,0.5978,,77.86458333,,,,,,FBP-RB-91.png,0.35,1.2,56,0.5,,,,,,,,,,,,,,,,,,0,25,25,55,1,,,,,,,,,,,,,,,,,,,,,,,
,,,,,V3_035,21,Female,2024-10-25_13h21.01.132,jersey_experiment_5_v3,2023.2.2,Win32,84.74576271,,,,,,,,,,,,,,,,1073.0462,1074.599,1074.5991,1077.1874,return,0.568,,97.65625,,,,,,FBP-OG-91.png,0.45,1.2,45,0.75,,,,,,,,,,,,,,,,,,0,26,26,44,1,,,,,,,,,,,,,,,,,,,,,,,
,,,,,V3_035,21,Female,2024-10-25_13h21.01.132,jersey_experiment_5_v3,2023.2.2,Win32,84.74576271,,,,,,,,,,,,,,,,1077.1877,1078.4816,1078.4816,1080.4816,return,0.6875,,95.96354167,,,,,,FBP-RB-71.png,0.37,1.2,47,0.5,,,,,,,,,,,,,,,,,,0,27,27,46,1,,,,,,,,,,,,,,,,,,,,,,,
,,,,,V3_035,21,Female,2024-10-25_13h21.01.132,jersey_experiment_5_v3,2023.2.2,Win32,84.74576271,,,,,,,,,,,,,,,,1080.4819,1082.0345,1082.0346,1084.5758,return,0.6659,,99.609375,,,,,,FBP-OG-91.png,0.43,1.2,44,0.75,,,,,,,,,,,,,,,,,,0,28,28,43,1,,,,,,,,,,,,,,,,,,,,,,,
,,,,,V3_035,21,Female,2024-10-25_13h21.01.132,jersey_experiment_5_v3,2023.2.2,Win32,84.74576271,,,,,,,,,,,,,,,,1084.5762,1085.8701,1085.8701,1087.7054,return,0.6454,,82.03125,,,,,,FBP-PT-91.png,0.4,1.2,28,0.5,,,,,,,,,,,,,,,,,,0,29,29,27,1,,,,,,,,,,,,,,,,,,,,,,,
,,,,,V3_035,21,Female,2024-10-25_13h21.01.132,jersey_experiment_5_v3,2023.2.2,Win32,84.74576271,,,,,,,,,,,,,,,,1087.7056,1089.2583,1089.2584,1090.8467,return,0.6084,,82.03125,,,,,,FBP-OG-81.png,0.43,1.2,39,0.75,,,,,,,,,,,,,,,,,,0,30,30,38,1,,,,,,,,,,,,,,,,,,,,,,,
,,,,,V3_035,21,Female,2024-10-25_13h21.01.132,jersey_experiment_5_v3,2023.2.2,Win32,84.74576271,,,,,,,,,,,,,,,,1090.8469,1092.1409,1092.141,1094.2938,return,0.8343,,99.609375,,,,,,FBP-YG-19.png,0.45,1.2,15,0.5,,,,,,,,,,,,,,,,,,0,31,31,14,1,,,,,,,,,,,,,,,,,,,,,,,
,,,,,V3_035,21,Female,2024-10-25_13h21.01.132,jersey_experiment_5_v3,2023.2.2,Win32,84.74576271,,,,,,,,,,,,,,,,1094.294,1095.8469,1095.8469,1099.2236,return,0.7058,,1.953125,,,,,,FBP-OG-81.png,0.35,1.2,36,0.75,,,,,,,,,,,,,,,,,,0,32,32,35,1,,,,,,,,,,,,,,,,,,,,,,,
,,,,,V3_035,21,Female,2024-10-25_13h21.01.132,jersey_experiment_5_v3,2023.2.2,Win32,84.74576271,,,,,,,,,,,,,,,,1099.2238,1100.5177,1100.5177,1104.4003,return,0.7009,,2.083333333,,,,,,FBP-PT-71.png,0.35,1.2,16,0.5,,,,,,,,,,,,,,,,,,0,33,33,15,1,,,,,,,,,,,,,,,,,,,,,,,
,,,,,V3_035,21,Female,2024-10-25_13h21.01.132,jersey_experiment_5_v3,2023.2.2,Win32,84.74576271,,,,,,,,,,,,,,,,1104.4005,1105.9532,1105.9533,1108.0826,return,0.5456,,97.78645833,,,,,,FBP-OG-71.png,0.43,1.2,34,0.75,,,,,,,,,,,,,,,,,,0,34,34,33,1,,,,,,,,,,,,,,,,,,,,,,,
,,,,,V3_035,21,Female,2024-10-25_13h21.01.132,jersey_experiment_5_v3,2023.2.2,Win32,84.74576271,,,,,,,,,,,,,,,,1108.0828,1109.3768,1109.3768,1113.824,return,1.8736,,2.473958333,,,,,,FBP-PT-71.png,0.37,1.2,17,0.5,,,,,,,,,,,,,,,,,,0,35,35,16,1,,,,,,,,,,,,,,,,,,,,,,,
,,,,,V3_035,21,Female,2024-10-25_13h21.01.132,jersey_experiment_5_v3,2023.2.2,Win32,84.74576271,,,,,,,,,,,,,,,,1113.8242,1115.1181,1115.1182,1118.2712,return,0.9015,,98.30729167,,,,,,FBP-RB-71.png,0.45,1.2,50,0.5,,,,,,,,,,,,,,,,,,0,36,36,49,1,,,,,,,,,,,,,,,,,,,,,,,
,,,,,V3_035,21,Female,2024-10-25_13h21.01.132,jersey_experiment_5_v3,2023.2.2,Win32,84.74576271,,,,,,,,,,,,,,,,1118.2715,1119.5652,1119.5653,1121.5537,return,0.7466,,98.30729167,,,,,,FBP-PT-71.png,0.43,1.2,19,0.5,,,,,,,,,,,,,,,,,,0,37,37,18,1,,,,,,,,,,,,,,,,,,,,,,,
,,,,,V3_035,21,Female,2024-10-25_13h21.01.132,jersey_experiment_5_v3,2023.2.2,Win32,84.74576271,,,,,,,,,,,,,,,,1121.554,1123.1067,1123.1068,1124.3773,return,0.5556,,98.4375,,,,,,FBP-OG-81.png,0.45,1.2,40,0.75,,,,,,,,,,,,,,,,,,0,38,38,39,1,,,,,,,,,,,,,,,,,,,,,,,
,,,,,V3_035,21,Female,2024-10-25_13h21.01.132,jersey_experiment_5_v3,2023.2.2,Win32,84.74576271,,,,,,,,,,,,,,,,1124.3776,1125.6715,1125.6716,1129.0482,return,0.7298,,22.91666667,,,,,,FBP-YG-18.png,0.37,1.2,7,0.5,,,,,,,,,,,,,,,,,,0,39,39,6,1,,,,,,,,,,,,,,,,,,,,,,,
,,,,,V3_035,21,Female,2024-10-25_13h21.01.132,jersey_experiment_5_v3,2023.2.2,Win32,84.74576271,,,,,,,,,,,,,,,,1129.0486,1130.3423,1130.3424,1132.4481,return,0.6301,,23.30729167,,,,,,FBP-YG-19.png,0.35,1.2,11,0.5,,,,,,,,,,,,,,,,,,0,40,40,10,1,,,,,,,,,,,,,,,,,,,,,,,
,,,,,V3_035,21,Female,2024-10-25_13h21.01.132,jersey_experiment_5_v3,2023.2.2,Win32,84.74576271,,,,,,,,,,,,,,,,1132.4484,1133.7424,1133.7425,1137.1659,return,2.2203,,98.95833333,,,,,,FBP-YG-18.png,0.45,1.2,10,0.5,,,,,,,,,,,,,,,,,,0,41,41,9,1,,,,,,,,,,,,,,,,,,,,,,,
,,,,,V3_035,21,Female,2024-10-25_13h21.01.132,jersey_experiment_5_v3,2023.2.2,Win32,84.74576271,,,,,,,,,,,,,,,,1137.1663,1138.719,1138.7191,1142.4368,return,0.7548,,1.171875,,,,,,FBP-OG-91.png,0.35,1.2,41,0.75,,,,,,,,,,,,,,,,,,0,42,42,40,1,,,,,,,,,,,,,,,,,,,,,,,
,,,,,V3_035,21,Female,2024-10-25_13h21.01.132,jersey_experiment_5_v3,2023.2.2,Win32,84.74576271,,,,,,,,,,,,,,,,1142.437,1143.9898,1143.9899,1146.6252,return,0.649,,0.651041667,,,,,,FBP-OG-71.png,0.37,1.2,32,0.75,,,,,,,,,,,,,,,,,,0,43,43,31,1,,,,,,,,,,,,,,,,,,,,,,,
,,,,,V3_035,21,Female,2024-10-25_13h21.01.132,jersey_experiment_5_v3,2023.2.2,Win32,84.74576271,,,,,,,,,,,,,,,,1146.6255,1147.9194,1147.9194,1149.4254,return,0.6018,,1.041666667,,,,,,FBP-PT-81.png,0.35,1.2,21,0.5,,,,,,,,,,,,,,,,,,0,44,44,20,1,,,,,,,,,,,,,,,,,,,,,,,
,,,,,V3_035,21,Female,2024-10-25_13h21.01.132,jersey_experiment_5_v3,2023.2.2,Win32,84.74576271,,,,,,,,,,,,,,,,1149.4256,1150.7194,1150.7195,1152.1431,return,0.5372,,1.041666667,,,,,,FBP-RB-71.png,0.35,1.2,46,0.5,,,,,,,,,,,,,,,,,,0,45,45,45,1,,,,,,,,,,,,,,,,,,,,,,,
,,,,,V3_035,21,Female,2024-10-25_13h21.01.132,jersey_experiment_5_v3,2023.2.2,Win32,84.74576271,,,,,,,,,,,,,,,,1152.1433,1153.4372,1153.4372,1155.6961,return,0.5454,,98.69791667,,,,,,FBP-PT-91.png,0.45,1.2,30,0.5,,,,,,,,,,,,,,,,,,0,46,46,29,1,,,,,,,,,,,,,,,,,,,,,,,
,,,,,V3_035,21,Female,2024-10-25_13h21.01.132,jersey_experiment_5_v3,2023.2.2,Win32,84.74576271,,,,,,,,,,,,,,,,1155.6964,1156.9904,1156.9904,1158.3197,return,0.652,,98.95833333,,,,,,FBP-YG-19.png,0.4,1.2,13,0.5,,,,,,,,,,,,,,,,,,0,47,47,12,1,,,,,,,,,,,,,,,,,,,,,,,
,,,,,V3_035,21,Female,2024-10-25_13h21.01.132,jersey_experiment_5_v3,2023.2.2,Win32,84.74576271,,,,,,,,,,,,,,,,1158.3199,1159.6139,1159.6139,1160.8491,return,0.6132,,100,,,,,,FBP-RB-91.png,0.45,1.2,60,0.5,,,,,,,,,,,,,,,,,,0,48,48,59,1,,,,,,,,,,,,,,,,,,,,,,,
,,,,,V3_035,21,Female,2024-10-25_13h21.01.132,jersey_experiment_5_v3,2023.2.2,Win32,84.74576271,,,,,,,,,,,,,,,,1160.8494,1162.1434,1162.1434,1164.567,return,0.5537,,88.15104167,,,,,,FBP-PT-71.png,0.4,1.2,18,0.5,,,,,,,,,,,,,,,,,,0,49,49,17,1,,,,,,,,,,,,,,,,,,,,,,,
,,,,,V3_035,21,Female,2024-10-25_13h21.01.132,jersey_experiment_5_v3,2023.2.2,Win32,84.74576271,,,,,,,,,,,,,,,,1164.5673,1165.8613,1165.8613,1167.5671,return,0.6067,,86.71875,,,,,,FBP-YG-19.png,0.37,1.2,12,0.5,,,,,,,,,,,,,,,,,,0,50,50,11,1,,,,,,,,,,,,,,,,,,,,,,,
,,,,,V3_035,21,Female,2024-10-25_13h21.01.132,jersey_experiment_5_v3,2023.2.2,Win32,84.74576271,,,,,,,,,,,,,,,,1167.5674,1168.8613,1168.8614,1170.3554,return,0.6268,,88.15104167,,,,,,FBP-YG-18.png,0.4,1.2,8,0.5,,,,,,,,,,,,,,,,,,0,51,51,7,1,,,,,,,,,,,,,,,,,,,,,,,
,,,,,V3_035,21,Female,2024-10-25_13h21.01.132,jersey_experiment_5_v3,2023.2.2,Win32,84.74576271,,,,,,,,,,,,,,,,1170.3556,1171.6496,1171.6496,1172.8734,return,0.5879,,87.76041667,,,,,,FBP-RB-81.png,0.35,1.2,51,0.5,,,,,,,,,,,,,,,,,,0,52,52,50,1,,,,,,,,,,,,,,,,,,,,,,,
,,,,,V3_035,21,Female,2024-10-25_13h21.01.132,jersey_experiment_5_v3,2023.2.2,Win32,84.74576271,,,,,,,,,,,,,,,,1172.8736,1174.4262,1174.4262,1176.2145,return,0.6138,,96.74479167,,,,,,FBP-OG-91.png,0.4,1.2,43,0.75,,,,,,,,,,,,,,,,,,0,53,53,42,1,,,,,,,,,,,,,,,,,,,,,,,
,,,,,V3_035,21,Female,2024-10-25_13h21.01.132,jersey_experiment_5_v3,2023.2.2,Win32,84.74576271,,,,,,,,,,,,,,,,1176.2148,1177.5087,1177.5087,1179.5087,return,0.6961,,89.84375,,,,,,FBP-YG-17.png,0.37,1.2,2,0.5,,,,,,,,,,,,,,,,,,0,54,54,1,1,,,,,,,,,,,,,,,,,,,,,,,
,,,,,V3_035,21,Female,2024-10-25_13h21.01.132,jersey_experiment_5_v3,2023.2.2,Win32,84.74576271,,,,,,,,,,,,,,,,1179.509,1180.803,1180.803,1183.6852,return,1.3266,,88.54166667,,,,,,FBP-RB-81.png,0.43,1.2,54,0.5,,,,,,,,,,,,,,,,,,0,55,55,53,1,,,,,,,,,,,,,,,,,,,,,,,
,,,,,V3_035,21,Female,2024-10-25_13h21.01.132,jersey_experiment_5_v3,2023.2.2,Win32,84.74576271,,,,,,,,,,,,,,,,1183.6855,1184.9795,1184.9796,1187.5561,return,0.8503,,98.30729167,,,,,,FBP-YG-17.png,0.45,1.2,5,0.5,,,,,,,,,,,,,,,,,,0,56,56,4,1,,,,,,,,,,,,,,,,,,,,,,,
,,,,,V3_035,21,Female,2024-10-25_13h21.01.132,jersey_experiment_5_v3,2023.2.2,Win32,84.74576271,,,,,,,,,,,,,,,,1187.5563,1188.8502,1188.8502,1190.7209,return,0.557,,87.23958333,,,,,,FBP-RB-81.png,0.37,1.2,52,0.5,,,,,,,,,,,,,,,,,,0,57,57,51,1,,,,,,,,,,,,,,,,,,,,,,,
,,,,,V3_035,21,Female,2024-10-25_13h21.01.132,jersey_experiment_5_v3,2023.2.2,Win32,84.74576271,,,,,,,,,,,,,,,,1190.7211,1192.015,1192.0151,1193.3681,return,0.58,,87.23958333,,,,,,FBP-PT-81.png,0.37,1.2,22,0.5,,,,,,,,,,,,,,,,,,0,58,58,21,1,,,,,,,,,,,,,,,,,,,,,,,
,,,,,V3_035,21,Female,2024-10-25_13h21.01.132,jersey_experiment_5_v3,2023.2.2,Win32,84.74576271,,,,,,,,,,,,,,,,1193.3684,1194.6621,1194.6622,1197.3917,return,0.7717,,99.21875,,,,,,FBP-YG-19.png,0.43,1.2,14,0.5,,,,,,,,,,,,,,,,,,0,59,59,13,1,,,,,,,,,,,,,,,,,,,,,,,
,,,,,V3_035,21,Female,2024-10-25_13h21.01.132,jersey_experiment_5_v3,2023.2.2,Win32,84.74576271,,,,,,,,,,,,,,,,,,,,,,,,,,,,,,,,,,,,,,,,,,,,,,,,,,,,,,,,1197.3919,1204.2393,return,6.8421,,,,,,,,,,,,,,,,,,,
,,,,,V3_035,21,Female,2024-10-25_13h21.01.132,jersey_experiment_5_v3,2023.2.2,Win32,84.74576271,,,,,,,,,,,,,,,,,,,,,,,,,,,,,,,,,,,,,,,,,,,,,,,,,,,,,,,,,,,,,1204.2394,1213.5455,1,7.9342,return,1.3486,,,,,,,,,,,,
,,,,,V3_035,21,Female,2024-10-25_13h21.01.132,jersey_experiment_5_v3,2023.2.2,Win32,84.74576271,,,,,,,,,,,,,,,,,,,,,,,,,,,,,,,,,,,,,,,,,,,,,,,,,,,,,,,,,,,,,,,,,,,,1213.5457,1305.1261,I have no idea if I am being honest. at first i thought it was about seeing how I respond to color maybe thinking the football player looked bigger based on the color but towards the end I had no idea.,right,85.6382,,,,,,
,,,,,V3_035,21,Female,2024-10-25_13h21.01.132,jersey_experiment_5_v3,2023.2.2,Win32,84.74576271,,,,,,,,,,,,,,,,,,,,,,,,,,,,,,,,,,,,,,,,,,,,,,,,,,,,,,,,,,,,,,,,,,,,,,,,,,1305.1262,1309.5019,return,4.3694,