requirements.started,requirements.stopped,key_resp_3.keys,key_resp_3.rt,key_resp_3.duration,Subject ID,Age,Gender,date,expName,psychopyVersion,OS,frameRate,instructions1.started,instructions1.stopped,key_resp.keys,key_resp.rt,key_resp.duration,example.started,example.stopped,enter_2.keys,enter_2.rt,enter_2.duration,instructions2.started,instructions2.stopped,enter_3.keys,enter_3.rt,enter_3.duration,image.started,image.stopped,slider_2.started,slider_2.stopped,next.keys,next.rt,next.duration,slider.response,trial_block_1.thisRepN,trial_block_1.thisTrialN,trial_block_1.thisN,trial_block_1.thisIndex,trial_block_1.ran,Path,Width,Height,Index,Duration,trial_block_2.thisRepN,trial_block_2.thisTrialN,trial_block_2.thisN,trial_block_2.thisIndex,trial_block_2.ran,rest_break.started,rest_break.stopped,end_break.started,end_break.stopped,key_resp_5.keys,key_resp_5.rt,key_resp_5.duration,trial_block_3.thisRepN,trial_block_3.thisTrialN,trial_block_3.thisN,trial_block_3.thisIndex,trial_block_3.ran,trial_block_4.thisRepN,trial_block_4.thisTrialN,trial_block_4.thisN,trial_block_4.thisIndex,trial_block_4.ran,questions_intro.started,questions_intro.stopped,enter_12.keys,enter_12.rt,enter_12.duration,question2.started,question2.stopped,question_doingbest.response,question_doingbest.rt,enter_15.keys,enter_15.rt,enter_15.duration,pattern.started,pattern.stopped,pattern_2.text,enter_17.keys,enter_17.rt,enter_17.duration,thankyou.started,thankyou.stopped,enter_14.keys,enter_14.rt,enter_14.duration
0.0002,7.1247,return,7.1132,,V3_040,21,Female,2024-10-30_15h39.51.864,jersey_experiment_5_v3,2023.2.2,Win32,85.47008547,,,,,,,,,,,,,,,,,,,,,,,,,,,,,,,,,,,,,,,,,,,,,,,,,,,,,,,,,,,,,,,,,,,,,,,,,,,,,,
,,,,,V3_040,21,Female,2024-10-30_15h39.51.864,jersey_experiment_5_v3,2023.2.2,Win32,85.47008547,7.1249,15.6307,return,8.4926,,,,,,,,,,,,,,,,,,,,,,,,,,,,,,,,,,,,,,,,,,,,,,,,,,,,,,,,,,,,,,,,,,,,,,,,,,
,,,,,V3_040,21,Female,2024-10-30_15h39.51.864,jersey_experiment_5_v3,2023.2.2,Win32,85.47008547,,,,,,15.6307,20.1133,return,4.4464,,,,,,,,,,,,,,,,,,,,,,,,,,,,,,,,,,,,,,,,,,,,,,,,,,,,,,,,,,,,,,,,,,,,,
,,,,,V3_040,21,Female,2024-10-30_15h39.51.864,jersey_experiment_5_v3,2023.2.2,Win32,85.47008547,,,,,,,,,,,20.1134,38.7372,return,18.6151,,,,,,,,,,,,,,,,,,,,,,,,,,,,,,,,,,,,,,,,,,,,,,,,,,,,,,,,,,,,,,,,
,,,,,V3_040,21,Female,2024-10-30_15h39.51.864,jersey_experiment_5_v3,2023.2.2,Win32,85.47008547,,,,,,,,,,,,,,,,38.7402,40.0432,40.0432,48.6788,return,5.5455,,49.86979167,0,0,0,37,1,FBP-OG-18.png,0.4,1.2,38,0.5,,,,,,,,,,,,,,,,,,,,,,,,,,,,,,,,,,,,,,,,,,,,,
,,,,,V3_040,21,Female,2024-10-30_15h39.51.864,jersey_experiment_5_v3,2023.2.2,Win32,85.47008547,,,,,,,,,,,,,,,,48.6791,49.9728,49.9729,52.9612,return,0.2752,,24.73958333,0,1,1,41,1,FBP-OG-19.png,0.37,1.2,42,0.5,,,,,,,,,,,,,,,,,,,,,,,,,,,,,,,,,,,,,,,,,,,,,
,,,,,V3_040,21,Female,2024-10-30_15h39.51.864,jersey_experiment_5_v3,2023.2.2,Win32,85.47008547,,,,,,,,,,,,,,,,52.9614,54.5143,54.5144,56.9145,return,0.3684,,74.86979167,0,2,2,54,1,FBP-RB-18.png,0.45,1.2,55,0.75,,,,,,,,,,,,,,,,,,,,,,,,,,,,,,,,,,,,,,,,,,,,,
,,,,,V3_040,21,Female,2024-10-30_15h39.51.864,jersey_experiment_5_v3,2023.2.2,Win32,85.47008547,,,,,,,,,,,,,,,,56.9147,58.4675,58.4676,60.2439,return,0.308,,87.23958333,0,3,3,9,1,FBP-YG-81.png,0.45,1.2,10,0.75,,,,,,,,,,,,,,,,,,,,,,,,,,,,,,,,,,,,,,,,,,,,,
,,,,,V3_040,21,Female,2024-10-30_15h39.51.864,jersey_experiment_5_v3,2023.2.2,Win32,85.47008547,,,,,,,,,,,,,,,,60.244,61.7968,61.7968,65.7264,return,1.9841,,44.27083333,0,4,4,56,1,FBP-RB-19.png,0.37,1.2,57,0.75,,,,,,,,,,,,,,,,,,,,,,,,,,,,,,,,,,,,,,,,,,,,,
,,,,,V3_040,21,Female,2024-10-30_15h39.51.864,jersey_experiment_5_v3,2023.2.2,Win32,85.47008547,,,,,,,,,,,,,,,,65.7265,67.2794,67.2795,70.4561,return,0.4474,,69.66145833,0,5,5,3,1,FBP-YG-71.png,0.43,1.2,4,0.75,,,,,,,,,,,,,,,,,,,,,,,,,,,,,,,,,,,,,,,,,,,,,
,,,,,V3_040,21,Female,2024-10-30_15h39.51.864,jersey_experiment_5_v3,2023.2.2,Win32,85.47008547,,,,,,,,,,,,,,,,70.4564,72.009,72.009,74.3972,return,0.337,,25,0,6,6,5,1,FBP-YG-81.png,0.35,1.2,6,0.75,,,,,,,,,,,,,,,,,,,,,,,,,,,,,,,,,,,,,,,,,,,,,
,,,,,V3_040,21,Female,2024-10-30_15h39.51.864,jersey_experiment_5_v3,2023.2.2,Win32,85.47008547,,,,,,,,,,,,,,,,74.3974,75.9502,75.9503,77.5386,return,0.2239,,50.13020833,0,7,7,27,1,FBP-PT-19.png,0.4,1.2,28,0.75,,,,,,,,,,,,,,,,,,,,,,,,,,,,,,,,,,,,,,,,,,,,,
,,,,,V3_040,21,Female,2024-10-30_15h39.51.864,jersey_experiment_5_v3,2023.2.2,Win32,85.47008547,,,,,,,,,,,,,,,,77.5388,79.0915,79.0916,80.821,return,0.1542,,24.86979167,0,8,8,1,1,FBP-YG-71.png,0.37,1.2,2,0.75,,,,,,,,,,,,,,,,,,,,,,,,,,,,,,,,,,,,,,,,,,,,,
,,,,,V3_040,21,Female,2024-10-30_15h39.51.864,jersey_experiment_5_v3,2023.2.2,Win32,85.47008547,,,,,,,,,,,,,,,,80.8212,82.3742,82.3742,84.3035,return,0.1447,,49.86979167,0,9,9,52,1,FBP-RB-18.png,0.4,1.2,53,0.75,,,,,,,,,,,,,,,,,,,,,,,,,,,,,,,,,,,,,,,,,,,,,
,,,,,V3_040,21,Female,2024-10-30_15h39.51.864,jersey_experiment_5_v3,2023.2.2,Win32,85.47008547,,,,,,,,,,,,,,,,84.3038,85.5977,85.5977,87.3155,return,0.2112,,70.83333333,0,10,10,39,1,FBP-OG-18.png,0.45,1.2,40,0.5,,,,,,,,,,,,,,,,,,,,,,,,,,,,,,,,,,,,,,,,,,,,,
,,,,,V3_040,21,Female,2024-10-30_15h39.51.864,jersey_experiment_5_v3,2023.2.2,Win32,85.47008547,,,,,,,,,,,,,,,,87.3158,88.8684,88.8684,90.3745,return,0.4681,,93.09895833,0,11,11,19,1,FBP-PT-17.png,0.45,1.2,20,0.75,,,,,,,,,,,,,,,,,,,,,,,,,,,,,,,,,,,,,,,,,,,,,
,,,,,V3_040,21,Female,2024-10-30_15h39.51.864,jersey_experiment_5_v3,2023.2.2,Win32,85.47008547,,,,,,,,,,,,,,,,90.3747,91.9274,91.9274,93.4214,return,0.3464,,28.90625,0,12,12,0,1,FBP-YG-71.png,0.35,1.2,1,0.75,,,,,,,,,,,,,,,,,,,,,,,,,,,,,,,,,,,,,,,,,,,,,
,,,,,V3_040,21,Female,2024-10-30_15h39.51.864,jersey_experiment_5_v3,2023.2.2,Win32,85.47008547,,,,,,,,,,,,,,,,93.4215,94.7157,94.7158,95.9275,return,0.3219,,14.0625,0,13,13,36,1,FBP-OG-18.png,0.37,1.2,37,0.5,,,,,,,,,,,,,,,,,,,,,,,,,,,,,,,,,,,,,,,,,,,,,
,,,,,V3_040,21,Female,2024-10-30_15h39.51.864,jersey_experiment_5_v3,2023.2.2,Win32,85.47008547,,,,,,,,,,,,,,,,95.9277,97.2215,97.2216,98.6808,return,0.1542,,74.73958333,0,14,14,34,1,FBP-OG-17.png,0.45,1.2,35,0.5,,,,,,,,,,,,,,,,,,,,,,,,,,,,,,,,,,,,,,,,,,,,,
,,,,,V3_040,21,Female,2024-10-30_15h39.51.864,jersey_experiment_5_v3,2023.2.2,Win32,85.47008547,,,,,,,,,,,,,,,,98.681,100.2335,100.2335,101.7042,return,0.149,,52.99479167,0,15,15,2,1,FBP-YG-71.png,0.4,1.2,3,0.75,,,,,,,,,,,,,,,,,,,,,,,,,,,,,,,,,,,,,,,,,,,,,
,,,,,V3_040,21,Female,2024-10-30_15h39.51.864,jersey_experiment_5_v3,2023.2.2,Win32,85.47008547,,,,,,,,,,,,,,,,101.7044,103.2573,103.2574,104.9514,return,0.3531,,99.86979167,0,16,16,29,1,FBP-PT-19.png,0.45,1.2,30,0.75,,,,,,,,,,,,,,,,,,,,,,,,,,,,,,,,,,,,,,,,,,,,,
,,,,,V3_040,21,Female,2024-10-30_15h39.51.864,jersey_experiment_5_v3,2023.2.2,Win32,85.47008547,,,,,,,,,,,,,,,,104.9518,106.2455,106.2455,108.8224,return,0.1553,,26.5625,0,17,17,30,1,FBP-OG-17.png,0.35,1.2,31,0.5,,,,,,,,,,,,,,,,,,,,,,,,,,,,,,,,,,,,,,,,,,,,,
,,,,,V3_040,21,Female,2024-10-30_15h39.51.864,jersey_experiment_5_v3,2023.2.2,Win32,85.47008547,,,,,,,,,,,,,,,,108.8226,110.3752,110.3752,112.0812,return,0.8523,,1.302083333,0,18,18,50,1,FBP-RB-18.png,0.35,1.2,51,0.75,,,,,,,,,,,,,,,,,,,,,,,,,,,,,,,,,,,,,,,,,,,,,
,,,,,V3_040,21,Female,2024-10-30_15h39.51.864,jersey_experiment_5_v3,2023.2.2,Win32,85.47008547,,,,,,,,,,,,,,,,112.0815,113.6342,113.6342,115.0107,return,0.1331,,75,0,19,19,18,1,FBP-PT-17.png,0.43,1.2,19,0.75,,,,,,,,,,,,,,,,,,,,,,,,,,,,,,,,,,,,,,,,,,,,,
,,,,,V3_040,21,Female,2024-10-30_15h39.51.864,jersey_experiment_5_v3,2023.2.2,Win32,85.47008547,,,,,,,,,,,,,,,,115.0109,116.5634,116.5635,118.3519,return,0.5706,,79.6875,0,20,20,48,1,FBP-RB-17.png,0.43,1.2,49,0.75,,,,,,,,,,,,,,,,,,,,,,,,,,,,,,,,,,,,,,,,,,,,,
,,,,,V3_040,21,Female,2024-10-30_15h39.51.864,jersey_experiment_5_v3,2023.2.2,Win32,85.47008547,,,,,,,,,,,,,,,,118.3521,119.9049,119.9049,121.5755,return,0.5211,,57.55208333,0,21,21,57,1,FBP-RB-19.png,0.4,1.2,58,0.75,,,,,,,,,,,,,,,,,,,,,,,,,,,,,,,,,,,,,,,,,,,,,
,,,,,V3_040,21,Female,2024-10-30_15h39.51.864,jersey_experiment_5_v3,2023.2.2,Win32,85.47008547,,,,,,,,,,,,,,,,121.5757,123.1284,123.1286,124.7286,return,0.1655,,50.13020833,0,22,22,22,1,FBP-PT-18.png,0.4,1.2,23,0.75,,,,,,,,,,,,,,,,,,,,,,,,,,,,,,,,,,,,,,,,,,,,,
,,,,,V3_040,21,Female,2024-10-30_15h39.51.864,jersey_experiment_5_v3,2023.2.2,Win32,85.47008547,,,,,,,,,,,,,,,,124.7288,126.2817,126.2818,127.6228,return,0.2506,,25.26041667,0,23,23,45,1,FBP-RB-17.png,0.35,1.2,46,0.75,,,,,,,,,,,,,,,,,,,,,,,,,,,,,,,,,,,,,,,,,,,,,
,,,,,V3_040,21,Female,2024-10-30_15h39.51.864,jersey_experiment_5_v3,2023.2.2,Win32,85.47008547,,,,,,,,,,,,,,,,127.623,128.9167,128.9168,130.376,return,0.1882,,71.35416667,0,24,24,44,1,FBP-OG-19.png,0.45,1.2,45,0.5,,,,,,,,,,,,,,,,,,,,,,,,,,,,,,,,,,,,,,,,,,,,,
,,,,,V3_040,21,Female,2024-10-30_15h39.51.864,jersey_experiment_5_v3,2023.2.2,Win32,85.47008547,,,,,,,,,,,,,,,,130.3763,131.9288,131.9289,133.6702,return,0.1333,,28.90625,0,25,25,16,1,FBP-PT-17.png,0.37,1.2,17,0.75,,,,,,,,,,,,,,,,,,,,,,,,,,,,,,,,,,,,,,,,,,,,,
,,,,,V3_040,21,Female,2024-10-30_15h39.51.864,jersey_experiment_5_v3,2023.2.2,Win32,85.47008547,,,,,,,,,,,,,,,,133.6705,135.223,135.2231,136.3171,return,0.1269,,48.4375,0,26,26,17,1,FBP-PT-17.png,0.4,1.2,18,0.75,,,,,,,,,,,,,,,,,,,,,,,,,,,,,,,,,,,,,,,,,,,,,
,,,,,V3_040,21,Female,2024-10-30_15h39.51.864,jersey_experiment_5_v3,2023.2.2,Win32,85.47008547,,,,,,,,,,,,,,,,136.3173,137.8702,137.8703,138.9293,return,0.1316,,25.52083333,0,27,27,10,1,FBP-YG-91.png,0.35,1.2,11,0.75,,,,,,,,,,,,,,,,,,,,,,,,,,,,,,,,,,,,,,,,,,,,,
,,,,,V3_040,21,Female,2024-10-30_15h39.51.864,jersey_experiment_5_v3,2023.2.2,Win32,85.47008547,,,,,,,,,,,,,,,,138.9295,140.482,140.4821,141.3997,return,0.15,,9.244791667,0,28,28,20,1,FBP-PT-18.png,0.35,1.2,21,0.75,,,,,,,,,,,,,,,,,,,,,,,,,,,,,,,,,,,,,,,,,,,,,
,,,,,V3_040,21,Female,2024-10-30_15h39.51.864,jersey_experiment_5_v3,2023.2.2,Win32,85.47008547,,,,,,,,,,,,,,,,141.3999,142.9526,142.9526,144.1293,return,0.1226,,12.5,0,29,29,25,1,FBP-PT-19.png,0.35,1.2,26,0.75,,,,,,,,,,,,,,,,,,,,,,,,,,,,,,,,,,,,,,,,,,,,,
,,,,,V3_040,21,Female,2024-10-30_15h39.51.864,jersey_experiment_5_v3,2023.2.2,Win32,85.47008547,,,,,,,,,,,,,,,,144.1297,145.6823,145.6823,146.941,return,0.3266,,95.44270833,0,30,30,4,1,FBP-YG-71.png,0.45,1.2,5,0.75,,,,,,,,,,,,,,,,,,,,,,,,,,,,,,,,,,,,,,,,,,,,,
,,,,,V3_040,21,Female,2024-10-30_15h39.51.864,jersey_experiment_5_v3,2023.2.2,Win32,85.47008547,,,,,,,,,,,,,,,,146.9412,148.494,148.494,149.8121,return,0.2338,,76.43229167,0,31,31,47,1,FBP-RB-17.png,0.4,1.2,48,0.75,,,,,,,,,,,,,,,,,,,,,,,,,,,,,,,,,,,,,,,,,,,,,
,,,,,V3_040,21,Female,2024-10-30_15h39.51.864,jersey_experiment_5_v3,2023.2.2,Win32,85.47008547,,,,,,,,,,,,,,,,149.8124,151.3645,151.3647,152.7179,return,0.2436,,74.21875,0,32,32,28,1,FBP-PT-19.png,0.43,1.2,29,0.75,,,,,,,,,,,,,,,,,,,,,,,,,,,,,,,,,,,,,,,,,,,,,
,,,,,V3_040,21,Female,2024-10-30_15h39.51.864,jersey_experiment_5_v3,2023.2.2,Win32,85.47008547,,,,,,,,,,,,,,,,152.7181,154.2708,154.2709,155.812,return,0.2741,,98.828125,0,33,33,14,1,FBP-YG-91.png,0.45,1.2,15,0.75,,,,,,,,,,,,,,,,,,,,,,,,,,,,,,,,,,,,,,,,,,,,,
,,,,,V3_040,21,Female,2024-10-30_15h39.51.864,jersey_experiment_5_v3,2023.2.2,Win32,85.47008547,,,,,,,,,,,,,,,,155.8124,157.3649,157.3649,158.7063,return,0.0972,,71.35416667,0,34,34,7,1,FBP-YG-81.png,0.4,1.2,8,0.75,,,,,,,,,,,,,,,,,,,,,,,,,,,,,,,,,,,,,,,,,,,,,
,,,,,V3_040,21,Female,2024-10-30_15h39.51.864,jersey_experiment_5_v3,2023.2.2,Win32,85.47008547,,,,,,,,,,,,,,,,158.7064,160.0006,160.0006,160.9768,return,0.0761,,74.73958333,0,35,35,38,1,FBP-OG-18.png,0.43,1.2,39,0.5,,,,,,,,,,,,,,,,,,,,,,,,,,,,,,,,,,,,,,,,,,,,,
,,,,,V3_040,21,Female,2024-10-30_15h39.51.864,jersey_experiment_5_v3,2023.2.2,Win32,85.47008547,,,,,,,,,,,,,,,,160.9771,162.2711,162.2711,165.0595,return,1.4832,,33.33333333,0,36,36,31,1,FBP-OG-17.png,0.37,1.2,32,0.5,,,,,,,,,,,,,,,,,,,,,,,,,,,,,,,,,,,,,,,,,,,,,
,,,,,V3_040,21,Female,2024-10-30_15h39.51.864,jersey_experiment_5_v3,2023.2.2,Win32,85.47008547,,,,,,,,,,,,,,,,165.0597,166.6127,166.6128,168.4241,return,1.0738,,85.9375,0,37,37,24,1,FBP-PT-18.png,0.45,1.2,25,0.75,,,,,,,,,,,,,,,,,,,,,,,,,,,,,,,,,,,,,,,,,,,,,
,,,,,V3_040,21,Female,2024-10-30_15h39.51.864,jersey_experiment_5_v3,2023.2.2,Win32,85.47008547,,,,,,,,,,,,,,,,168.4245,169.9774,169.9774,171.2363,return,0.1308,,43.75,0,38,38,26,1,FBP-PT-19.png,0.37,1.2,27,0.75,,,,,,,,,,,,,,,,,,,,,,,,,,,,,,,,,,,,,,,,,,,,,
,,,,,V3_040,21,Female,2024-10-30_15h39.51.864,jersey_experiment_5_v3,2023.2.2,Win32,85.47008547,,,,,,,,,,,,,,,,171.2366,172.7889,172.789,174.0949,return,0.1366,,24.47916667,0,39,39,11,1,FBP-YG-91.png,0.37,1.2,12,0.75,,,,,,,,,,,,,,,,,,,,,,,,,,,,,,,,,,,,,,,,,,,,,
,,,,,V3_040,21,Female,2024-10-30_15h39.51.864,jersey_experiment_5_v3,2023.2.2,Win32,85.47008547,,,,,,,,,,,,,,,,174.0951,175.6364,175.6364,176.8832,return,0.1912,,70.3125,0,40,40,8,1,FBP-YG-81.png,0.43,1.2,9,0.75,,,,,,,,,,,,,,,,,,,,,,,,,,,,,,,,,,,,,,,,,,,,,
,,,,,V3_040,21,Female,2024-10-30_15h39.51.864,jersey_experiment_5_v3,2023.2.2,Win32,85.47008547,,,,,,,,,,,,,,,,176.8836,178.4364,178.4365,179.9541,return,0.7788,,56.51041667,0,41,41,12,1,FBP-YG-91.png,0.4,1.2,13,0.75,,,,,,,,,,,,,,,,,,,,,,,,,,,,,,,,,,,,,,,,,,,,,
,,,,,V3_040,21,Female,2024-10-30_15h39.51.864,jersey_experiment_5_v3,2023.2.2,Win32,85.47008547,,,,,,,,,,,,,,,,179.9543,181.2481,181.2482,184.5778,return,0.9322,,4.817708333,0,42,42,35,1,FBP-OG-18.png,0.35,1.2,36,0.5,,,,,,,,,,,,,,,,,,,,,,,,,,,,,,,,,,,,,,,,,,,,,
,,,,,V3_040,21,Female,2024-10-30_15h39.51.864,jersey_experiment_5_v3,2023.2.2,Win32,85.47008547,,,,,,,,,,,,,,,,184.5781,186.1305,186.1305,187.719,return,0.4479,,75.13020833,0,43,43,58,1,FBP-RB-19.png,0.43,1.2,59,0.75,,,,,,,,,,,,,,,,,,,,,,,,,,,,,,,,,,,,,,,,,,,,,
,,,,,V3_040,21,Female,2024-10-30_15h39.51.864,jersey_experiment_5_v3,2023.2.2,Win32,85.47008547,,,,,,,,,,,,,,,,187.7193,189.2719,189.272,190.5306,return,0.1049,,73.30729167,0,44,44,13,1,FBP-YG-91.png,0.43,1.2,14,0.75,,,,,,,,,,,,,,,,,,,,,,,,,,,,,,,,,,,,,,,,,,,,,
,,,,,V3_040,21,Female,2024-10-30_15h39.51.864,jersey_experiment_5_v3,2023.2.2,Win32,85.47008547,,,,,,,,,,,,,,,,190.5307,192.084,192.084,193.0132,return,0.1169,,81.51041667,0,45,45,49,1,FBP-RB-17.png,0.45,1.2,50,0.75,,,,,,,,,,,,,,,,,,,,,,,,,,,,,,,,,,,,,,,,,,,,,
,,,,,V3_040,21,Female,2024-10-30_15h39.51.864,jersey_experiment_5_v3,2023.2.2,Win32,85.47008547,,,,,,,,,,,,,,,,193.0135,194.5663,194.5663,195.4722,return,0.1708,,41.92708333,0,46,46,51,1,FBP-RB-18.png,0.37,1.2,52,0.75,,,,,,,,,,,,,,,,,,,,,,,,,,,,,,,,,,,,,,,,,,,,,
,,,,,V3_040,21,Female,2024-10-30_15h39.51.864,jersey_experiment_5_v3,2023.2.2,Win32,85.47008547,,,,,,,,,,,,,,,,195.4724,197.025,197.0251,198.6721,return,1.2309,,45.96354167,0,47,47,46,1,FBP-RB-17.png,0.37,1.2,47,0.75,,,,,,,,,,,,,,,,,,,,,,,,,,,,,,,,,,,,,,,,,,,,,
,,,,,V3_040,21,Female,2024-10-30_15h39.51.864,jersey_experiment_5_v3,2023.2.2,Win32,85.47008547,,,,,,,,,,,,,,,,198.6724,200.2252,200.2253,201.6489,return,0.8995,,25,0,48,48,55,1,FBP-RB-19.png,0.35,1.2,56,0.75,,,,,,,,,,,,,,,,,,,,,,,,,,,,,,,,,,,,,,,,,,,,,
,,,,,V3_040,21,Female,2024-10-30_15h39.51.864,jersey_experiment_5_v3,2023.2.2,Win32,85.47008547,,,,,,,,,,,,,,,,201.6491,203.2017,203.2017,204.0841,return,0.2276,,94.53125,0,49,49,59,1,FBP-RB-19.png,0.45,1.2,60,0.75,,,,,,,,,,,,,,,,,,,,,,,,,,,,,,,,,,,,,,,,,,,,,
,,,,,V3_040,21,Female,2024-10-30_15h39.51.864,jersey_experiment_5_v3,2023.2.2,Win32,85.47008547,,,,,,,,,,,,,,,,204.0843,205.3782,205.3784,207.5549,return,1.2504,,25.26041667,0,50,50,40,1,FBP-OG-19.png,0.35,1.2,41,0.5,,,,,,,,,,,,,,,,,,,,,,,,,,,,,,,,,,,,,,,,,,,,,
,,,,,V3_040,21,Female,2024-10-30_15h39.51.864,jersey_experiment_5_v3,2023.2.2,Win32,85.47008547,,,,,,,,,,,,,,,,207.5551,208.849,208.849,209.7433,return,0.1328,,73.046875,0,51,51,43,1,FBP-OG-19.png,0.43,1.2,44,0.5,,,,,,,,,,,,,,,,,,,,,,,,,,,,,,,,,,,,,,,,,,,,,
,,,,,V3_040,21,Female,2024-10-30_15h39.51.864,jersey_experiment_5_v3,2023.2.2,Win32,85.47008547,,,,,,,,,,,,,,,,209.7434,211.0375,211.0375,211.9081,return,0.1286,,59.89583333,0,52,52,42,1,FBP-OG-19.png,0.4,1.2,43,0.5,,,,,,,,,,,,,,,,,,,,,,,,,,,,,,,,,,,,,,,,,,,,,
,,,,,V3_040,21,Female,2024-10-30_15h39.51.864,jersey_experiment_5_v3,2023.2.2,Win32,85.47008547,,,,,,,,,,,,,,,,211.9081,213.4611,213.4611,214.3199,return,0.0757,,14.0625,0,53,53,15,1,FBP-PT-17.png,0.35,1.2,16,0.75,,,,,,,,,,,,,,,,,,,,,,,,,,,,,,,,,,,,,,,,,,,,,
,,,,,V3_040,21,Female,2024-10-30_15h39.51.864,jersey_experiment_5_v3,2023.2.2,Win32,85.47008547,,,,,,,,,,,,,,,,214.32,215.8728,215.8729,217.3317,return,0.533,,74.86979167,0,54,54,23,1,FBP-PT-18.png,0.43,1.2,24,0.75,,,,,,,,,,,,,,,,,,,,,,,,,,,,,,,,,,,,,,,,,,,,,
,,,,,V3_040,21,Female,2024-10-30_15h39.51.864,jersey_experiment_5_v3,2023.2.2,Win32,85.47008547,,,,,,,,,,,,,,,,217.3318,218.8848,218.8848,219.6965,return,0.1233,,54.296875,0,55,55,6,1,FBP-YG-81.png,0.37,1.2,7,0.75,,,,,,,,,,,,,,,,,,,,,,,,,,,,,,,,,,,,,,,,,,,,,
,,,,,V3_040,21,Female,2024-10-30_15h39.51.864,jersey_experiment_5_v3,2023.2.2,Win32,85.47008547,,,,,,,,,,,,,,,,219.6966,221.2495,221.2495,222.0494,return,0.0987,,49.73958333,0,56,56,21,1,FBP-PT-18.png,0.37,1.2,22,0.75,,,,,,,,,,,,,,,,,,,,,,,,,,,,,,,,,,,,,,,,,,,,,
,,,,,V3_040,21,Female,2024-10-30_15h39.51.864,jersey_experiment_5_v3,2023.2.2,Win32,85.47008547,,,,,,,,,,,,,,,,222.0496,223.6025,223.6025,224.8142,return,0.0282,,77.34375,0,57,57,53,1,FBP-RB-18.png,0.43,1.2,54,0.75,,,,,,,,,,,,,,,,,,,,,,,,,,,,,,,,,,,,,,,,,,,,,
,,,,,V3_040,21,Female,2024-10-30_15h39.51.864,jersey_experiment_5_v3,2023.2.2,Win32,85.47008547,,,,,,,,,,,,,,,,224.8144,226.1085,226.1085,227.8379,return,0.063,,67.578125,0,58,58,33,1,FBP-OG-17.png,0.43,1.2,34,0.5,,,,,,,,,,,,,,,,,,,,,,,,,,,,,,,,,,,,,,,,,,,,,
,,,,,V3_040,21,Female,2024-10-30_15h39.51.864,jersey_experiment_5_v3,2023.2.2,Win32,85.47008547,,,,,,,,,,,,,,,,227.838,229.1321,229.1321,230.7909,return,0.5336,,63.15104167,0,59,59,32,1,FBP-OG-17.png,0.4,1.2,33,0.5,,,,,,,,,,,,,,,,,,,,,,,,,,,,,,,,,,,,,,,,,,,,,
,,,,,V3_040,21,Female,2024-10-30_15h39.51.864,jersey_experiment_5_v3,2023.2.2,Win32,85.47008547,,,,,,,,,,,,,,,,230.793,232.344,232.3441,233.25,return,0.169,,30.98958333,,,,,,FBP-YG-18.png,0.35,1.2,6,0.75,0,0,0,5,1,,,,,,,,,,,,,,,,,,,,,,,,,,,,,,,,,,,,,,,,
,,,,,V3_040,21,Female,2024-10-30_15h39.51.864,jersey_experiment_5_v3,2023.2.2,Win32,85.47008547,,,,,,,,,,,,,,,,233.2502,234.803,234.803,235.6853,return,0.072,,74.73958333,,,,,,FBP-PT-71.png,0.43,1.2,19,0.75,0,1,1,18,1,,,,,,,,,,,,,,,,,,,,,,,,,,,,,,,,,,,,,,,,
,,,,,V3_040,21,Female,2024-10-30_15h39.51.864,jersey_experiment_5_v3,2023.2.2,Win32,85.47008547,,,,,,,,,,,,,,,,235.6855,237.2384,237.2384,238.2268,return,0.1334,,90.36458333,,,,,,FBP-RB-71.png,0.43,1.2,49,0.75,0,2,2,48,1,,,,,,,,,,,,,,,,,,,,,,,,,,,,,,,,,,,,,,,,
,,,,,V3_040,21,Female,2024-10-30_15h39.51.864,jersey_experiment_5_v3,2023.2.2,Win32,85.47008547,,,,,,,,,,,,,,,,238.2271,239.7796,239.7796,240.6149,return,0.126,,12.23958333,,,,,,FBP-RB-91.png,0.35,1.2,56,0.75,0,3,3,55,1,,,,,,,,,,,,,,,,,,,,,,,,,,,,,,,,,,,,,,,,
,,,,,V3_040,21,Female,2024-10-30_15h39.51.864,jersey_experiment_5_v3,2023.2.2,Win32,85.47008547,,,,,,,,,,,,,,,,240.6151,242.1679,242.168,243.1678,return,0.0651,,45.05208333,,,,,,FBP-RB-71.png,0.37,1.2,47,0.75,0,4,4,46,1,,,,,,,,,,,,,,,,,,,,,,,,,,,,,,,,,,,,,,,,
,,,,,V3_040,21,Female,2024-10-30_15h39.51.864,jersey_experiment_5_v3,2023.2.2,Win32,85.47008547,,,,,,,,,,,,,,,,243.168,244.7209,244.721,245.2974,return,0.1095,,67.70833333,,,,,,FBP-YG-18.png,0.4,1.2,8,0.75,0,5,5,7,1,,,,,,,,,,,,,,,,,,,,,,,,,,,,,,,,,,,,,,,,
,,,,,V3_040,21,Female,2024-10-30_15h39.51.864,jersey_experiment_5_v3,2023.2.2,Win32,85.47008547,,,,,,,,,,,,,,,,245.2975,246.5915,246.5916,247.6621,return,0.0435,,94.921875,,,,,,FBP-OG-71.png,0.45,1.2,35,0.5,0,6,6,34,1,,,,,,,,,,,,,,,,,,,,,,,,,,,,,,,,,,,,,,,,
,,,,,V3_040,21,Female,2024-10-30_15h39.51.864,jersey_experiment_5_v3,2023.2.2,Win32,85.47008547,,,,,,,,,,,,,,,,247.6622,249.2153,249.2154,251.3682,return,0.4712,,27.734375,,,,,,FBP-RB-81.png,0.35,1.2,51,0.75,0,7,7,50,1,,,,,,,,,,,,,,,,,,,,,,,,,,,,,,,,,,,,,,,,
,,,,,V3_040,21,Female,2024-10-30_15h39.51.864,jersey_experiment_5_v3,2023.2.2,Win32,85.47008547,,,,,,,,,,,,,,,,251.3683,252.9212,252.9212,254.0506,return,0.4503,,34.765625,,,,,,FBP-RB-81.png,0.37,1.2,52,0.75,0,8,8,51,1,,,,,,,,,,,,,,,,,,,,,,,,,,,,,,,,,,,,,,,,
,,,,,V3_040,21,Female,2024-10-30_15h39.51.864,jersey_experiment_5_v3,2023.2.2,Win32,85.47008547,,,,,,,,,,,,,,,,254.0508,255.6036,255.6037,256.2742,return,0.086,,89.84375,,,,,,FBP-RB-81.png,0.45,1.2,55,0.75,0,9,9,54,1,,,,,,,,,,,,,,,,,,,,,,,,,,,,,,,,,,,,,,,,
,,,,,V3_040,21,Female,2024-10-30_15h39.51.864,jersey_experiment_5_v3,2023.2.2,Win32,85.47008547,,,,,,,,,,,,,,,,256.2744,257.8273,257.8274,258.7096,return,0.1049,,52.734375,,,,,,FBP-PT-71.png,0.4,1.2,18,0.75,0,10,10,17,1,,,,,,,,,,,,,,,,,,,,,,,,,,,,,,,,,,,,,,,,
,,,,,V3_040,21,Female,2024-10-30_15h39.51.864,jersey_experiment_5_v3,2023.2.2,Win32,85.47008547,,,,,,,,,,,,,,,,258.7097,260.0037,260.0037,261.2038,return,0.1294,,50,,,,,,FBP-OG-71.png,0.35,1.2,31,0.5,0,11,11,30,1,,,,,,,,,,,,,,,,,,,,,,,,,,,,,,,,,,,,,,,,
,,,,,V3_040,21,Female,2024-10-30_15h39.51.864,jersey_experiment_5_v3,2023.2.2,Win32,85.47008547,,,,,,,,,,,,,,,,261.2041,262.7568,262.7569,264.804,return,1.118,,90.625,,,,,,FBP-YG-17.png,0.45,1.2,5,0.75,0,12,12,4,1,,,,,,,,,,,,,,,,,,,,,,,,,,,,,,,,,,,,,,,,
,,,,,V3_040,21,Female,2024-10-30_15h39.51.864,jersey_experiment_5_v3,2023.2.2,Win32,85.47008547,,,,,,,,,,,,,,,,264.8042,266.0983,266.0983,267.157,return,0.1267,,81.11979167,,,,,,FBP-OG-91.png,0.43,1.2,44,0.5,0,13,13,43,1,,,,,,,,,,,,,,,,,,,,,,,,,,,,,,,,,,,,,,,,
,,,,,V3_040,21,Female,2024-10-30_15h39.51.864,jersey_experiment_5_v3,2023.2.2,Win32,85.47008547,,,,,,,,,,,,,,,,267.1572,268.7102,268.7102,270.5926,return,1.1114,,25,,,,,,FBP-YG-17.png,0.35,1.2,1,0.75,0,14,14,0,1,,,,,,,,,,,,,,,,,,,,,,,,,,,,,,,,,,,,,,,,
,,,,,V3_040,21,Female,2024-10-30_15h39.51.864,jersey_experiment_5_v3,2023.2.2,Win32,85.47008547,,,,,,,,,,,,,,,,270.5928,271.8865,271.8866,272.8632,return,0.1208,,11.19791667,,,,,,FBP-OG-91.png,0.35,1.2,41,0.5,0,15,15,40,1,,,,,,,,,,,,,,,,,,,,,,,,,,,,,,,,,,,,,,,,
,,,,,V3_040,21,Female,2024-10-30_15h39.51.864,jersey_experiment_5_v3,2023.2.2,Win32,85.47008547,,,,,,,,,,,,,,,,272.8635,274.1573,274.1573,275.4633,return,0.0552,,67.96875,,,,,,FBP-OG-81.png,0.43,1.2,39,0.5,0,16,16,38,1,,,,,,,,,,,,,,,,,,,,,,,,,,,,,,,,,,,,,,,,
,,,,,V3_040,21,Female,2024-10-30_15h39.51.864,jersey_experiment_5_v3,2023.2.2,Win32,85.47008547,,,,,,,,,,,,,,,,275.4634,277.0048,277.0048,278.6282,return,1.096,,90.234375,,,,,,FBP-PT-81.png,0.45,1.2,25,0.75,0,17,17,24,1,,,,,,,,,,,,,,,,,,,,,,,,,,,,,,,,,,,,,,,,
,,,,,V3_040,21,Female,2024-10-30_15h39.51.864,jersey_experiment_5_v3,2023.2.2,Win32,85.47008547,,,,,,,,,,,,,,,,278.6285,280.181,280.181,281.2517,return,0.1201,,49.73958333,,,,,,FBP-RB-91.png,0.37,1.2,57,0.75,0,18,18,56,1,,,,,,,,,,,,,,,,,,,,,,,,,,,,,,,,,,,,,,,,
,,,,,V3_040,21,Female,2024-10-30_15h39.51.864,jersey_experiment_5_v3,2023.2.2,Win32,85.47008547,,,,,,,,,,,,,,,,281.2519,282.8046,282.8048,283.6164,return,0.2376,,50.65104167,,,,,,FBP-YG-18.png,0.37,1.2,7,0.75,0,19,19,6,1,,,,,,,,,,,,,,,,,,,,,,,,,,,,,,,,,,,,,,,,
,,,,,V3_040,21,Female,2024-10-30_15h39.51.864,jersey_experiment_5_v3,2023.2.2,Win32,85.47008547,,,,,,,,,,,,,,,,283.6168,284.9108,284.9108,285.6518,return,0.083,,39.71354167,,,,,,FBP-OG-71.png,0.37,1.2,32,0.5,0,20,20,31,1,,,,,,,,,,,,,,,,,,,,,,,,,,,,,,,,,,,,,,,,
,,,,,V3_040,21,Female,2024-10-30_15h39.51.864,jersey_experiment_5_v3,2023.2.2,Win32,85.47008547,,,,,,,,,,,,,,,,285.652,287.2047,287.2047,289.0401,return,1.1355,,51.43229167,,,,,,FBP-PT-81.png,0.4,1.2,23,0.75,0,21,21,22,1,,,,,,,,,,,,,,,,,,,,,,,,,,,,,,,,,,,,,,,,
,,,,,V3_040,21,Female,2024-10-30_15h39.51.864,jersey_experiment_5_v3,2023.2.2,Win32,85.47008547,,,,,,,,,,,,,,,,289.0404,290.5932,290.5932,291.1226,return,0.0727,,50,,,,,,FBP-RB-81.png,0.4,1.2,53,0.75,0,22,22,52,1,,,,,,,,,,,,,,,,,,,,,,,,,,,,,,,,,,,,,,,,
,,,,,V3_040,21,Female,2024-10-30_15h39.51.864,jersey_experiment_5_v3,2023.2.2,Win32,85.47008547,,,,,,,,,,,,,,,,291.1228,292.6756,292.6758,293.4638,return,0.0938,,28.90625,,,,,,FBP-RB-71.png,0.35,1.2,46,0.75,0,23,23,45,1,,,,,,,,,,,,,,,,,,,,,,,,,,,,,,,,,,,,,,,,
,,,,,V3_040,21,Female,2024-10-30_15h39.51.864,jersey_experiment_5_v3,2023.2.2,Win32,85.47008547,,,,,,,,,,,,,,,,293.4641,295.0168,295.0169,297.005,return,0.4993,,79.03645833,,,,,,FBP-YG-18.png,0.45,1.2,10,0.75,0,24,24,9,1,,,,,,,,,,,,,,,,,,,,,,,,,,,,,,,,,,,,,,,,
,,,,,V3_040,21,Female,2024-10-30_15h39.51.864,jersey_experiment_5_v3,2023.2.2,Win32,85.47008547,,,,,,,,,,,,,,,,297.0053,298.5581,298.5581,299.3817,return,0.0965,,72.13541667,,,,,,FBP-PT-81.png,0.43,1.2,24,0.75,0,25,25,23,1,,,,,,,,,,,,,,,,,,,,,,,,,,,,,,,,,,,,,,,,
,,,,,V3_040,21,Female,2024-10-30_15h39.51.864,jersey_experiment_5_v3,2023.2.2,Win32,85.47008547,,,,,,,,,,,,,,,,299.3819,300.9345,300.9345,302.1347,return,0.0931,,66.27604167,,,,,,FBP-PT-91.png,0.4,1.2,28,0.75,0,26,26,27,1,,,,,,,,,,,,,,,,,,,,,,,,,,,,,,,,,,,,,,,,
,,,,,V3_040,21,Female,2024-10-30_15h39.51.864,jersey_experiment_5_v3,2023.2.2,Win32,85.47008547,,,,,,,,,,,,,,,,302.135,303.6879,303.688,304.4292,return,0.1586,,81.25,,,,,,FBP-RB-81.png,0.43,1.2,54,0.75,0,27,27,53,1,,,,,,,,,,,,,,,,,,,,,,,,,,,,,,,,,,,,,,,,
,,,,,V3_040,21,Female,2024-10-30_15h39.51.864,jersey_experiment_5_v3,2023.2.2,Win32,85.47008547,,,,,,,,,,,,,,,,304.4296,305.7231,305.7231,306.7349,return,0.0541,,49.609375,,,,,,FBP-OG-91.png,0.37,1.2,42,0.5,0,28,28,41,1,,,,,,,,,,,,,,,,,,,,,,,,,,,,,,,,,,,,,,,,
,,,,,V3_040,21,Female,2024-10-30_15h39.51.864,jersey_experiment_5_v3,2023.2.2,Win32,85.47008547,,,,,,,,,,,,,,,,306.7351,308.2879,308.288,309.9349,return,0.8643,,24.34895833,,,,,,FBP-YG-19.png,0.35,1.2,11,0.75,0,29,29,10,1,,,,,,,,,,,,,,,,,,,,,,,,,,,,,,,,,,,,,,,,
,,,,,V3_040,21,Female,2024-10-30_15h39.51.864,jersey_experiment_5_v3,2023.2.2,Win32,85.47008547,,,,,,,,,,,,,,,,309.935,311.4763,311.4763,312.1938,return,0.0749,,15.234375,,,,,,FBP-PT-91.png,0.35,1.2,26,0.75,0,30,30,25,1,,,,,,,,,,,,,,,,,,,,,,,,,,,,,,,,,,,,,,,,
,,,,,V3_040,21,Female,2024-10-30_15h39.51.864,jersey_experiment_5_v3,2023.2.2,Win32,85.47008547,,,,,,,,,,,,,,,,312.194,313.488,313.4881,314.4295,return,0.2051,,31.11979167,,,,,,FBP-OG-81.png,0.4,1.2,38,0.5,0,31,31,37,1,,,,,,,,,,,,,,,,,,,,,,,,,,,,,,,,,,,,,,,,
,,,,,V3_040,21,Female,2024-10-30_15h39.51.864,jersey_experiment_5_v3,2023.2.2,Win32,85.47008547,,,,,,,,,,,,,,,,314.4297,315.9822,315.9822,318.0293,return,0.0401,,65.234375,,,,,,FBP-YG-17.png,0.43,1.2,4,0.75,0,32,32,3,1,,,,,,,,,,,,,,,,,,,,,,,,,,,,,,,,,,,,,,,,
,,,,,V3_040,21,Female,2024-10-30_15h39.51.864,jersey_experiment_5_v3,2023.2.2,Win32,85.47008547,,,,,,,,,,,,,,,,318.0296,319.5709,319.5709,320.3826,return,0.0545,,24.34895833,,,,,,FBP-PT-81.png,0.37,1.2,22,0.75,0,33,33,21,1,,,,,,,,,,,,,,,,,,,,,,,,,,,,,,,,,,,,,,,,
,,,,,V3_040,21,Female,2024-10-30_15h39.51.864,jersey_experiment_5_v3,2023.2.2,Win32,85.47008547,,,,,,,,,,,,,,,,320.3829,321.6766,321.6767,322.8296,return,0.0668,,13.41145833,,,,,,FBP-OG-81.png,0.37,1.2,37,0.5,0,34,34,36,1,,,,,,,,,,,,,,,,,,,,,,,,,,,,,,,,,,,,,,,,
,,,,,V3_040,21,Female,2024-10-30_15h39.51.864,jersey_experiment_5_v3,2023.2.2,Win32,85.47008547,,,,,,,,,,,,,,,,322.8299,324.3826,324.3827,325.1712,return,0.1095,,4.427083333,,,,,,FBP-PT-71.png,0.35,1.2,16,0.75,0,35,35,15,1,,,,,,,,,,,,,,,,,,,,,,,,,,,,,,,,,,,,,,,,
,,,,,V3_040,21,Female,2024-10-30_15h39.51.864,jersey_experiment_5_v3,2023.2.2,Win32,85.47008547,,,,,,,,,,,,,,,,325.1716,326.7239,326.724,327.7122,return,0.1118,,74.73958333,,,,,,FBP-YG-18.png,0.43,1.2,9,0.75,0,36,36,8,1,,,,,,,,,,,,,,,,,,,,,,,,,,,,,,,,,,,,,,,,
,,,,,V3_040,21,Female,2024-10-30_15h39.51.864,jersey_experiment_5_v3,2023.2.2,Win32,85.47008547,,,,,,,,,,,,,,,,327.7124,329.2654,329.2655,329.9121,return,0.0712,,82.16145833,,,,,,FBP-YG-19.png,0.43,1.2,14,0.75,0,37,37,13,1,,,,,,,,,,,,,,,,,,,,,,,,,,,,,,,,,,,,,,,,
,,,,,V3_040,21,Female,2024-10-30_15h39.51.864,jersey_experiment_5_v3,2023.2.2,Win32,85.47008547,,,,,,,,,,,,,,,,329.9124,331.4656,331.4657,332.3242,return,0.2493,,99.08854167,,,,,,FBP-RB-71.png,0.45,1.2,50,0.75,0,38,38,49,1,,,,,,,,,,,,,,,,,,,,,,,,,,,,,,,,,,,,,,,,
,,,,,V3_040,21,Female,2024-10-30_15h39.51.864,jersey_experiment_5_v3,2023.2.2,Win32,85.47008547,,,,,,,,,,,,,,,,332.3246,333.6182,333.6183,334.7829,return,0.0641,,74.73958333,,,,,,FBP-OG-71.png,0.43,1.2,34,0.5,0,39,39,33,1,,,,,,,,,,,,,,,,,,,,,,,,,,,,,,,,,,,,,,,,
,,,,,V3_040,21,Female,2024-10-30_15h39.51.864,jersey_experiment_5_v3,2023.2.2,Win32,85.47008547,,,,,,,,,,,,,,,,334.7832,336.3244,336.3245,336.9125,return,0.0982,,93.61979167,,,,,,FBP-PT-71.png,0.45,1.2,20,0.75,0,40,40,19,1,,,,,,,,,,,,,,,,,,,,,,,,,,,,,,,,,,,,,,,,
,,,,,V3_040,21,Female,2024-10-30_15h39.51.864,jersey_experiment_5_v3,2023.2.2,Win32,85.47008547,,,,,,,,,,,,,,,,336.9128,338.4656,338.4656,339.2184,return,0.0625,,62.23958333,,,,,,FBP-RB-91.png,0.4,1.2,58,0.75,0,41,41,57,1,,,,,,,,,,,,,,,,,,,,,,,,,,,,,,,,,,,,,,,,
,,,,,V3_040,21,Female,2024-10-30_15h39.51.864,jersey_experiment_5_v3,2023.2.2,Win32,85.47008547,,,,,,,,,,,,,,,,339.2187,340.7713,340.7714,342.7834,return,1.2145,,44.40104167,,,,,,FBP-YG-17.png,0.37,1.2,2,0.75,0,42,42,1,1,,,,,,,,,,,,,,,,,,,,,,,,,,,,,,,,,,,,,,,,
,,,,,V3_040,21,Female,2024-10-30_15h39.51.864,jersey_experiment_5_v3,2023.2.2,Win32,85.47008547,,,,,,,,,,,,,,,,342.7836,344.3363,344.3363,345.5011,return,0.3593,,45.18229167,,,,,,FBP-YG-19.png,0.4,1.2,13,0.75,0,43,43,12,1,,,,,,,,,,,,,,,,,,,,,,,,,,,,,,,,,,,,,,,,
,,,,,V3_040,21,Female,2024-10-30_15h39.51.864,jersey_experiment_5_v3,2023.2.2,Win32,85.47008547,,,,,,,,,,,,,,,,345.5013,346.7954,346.7954,347.6187,return,0.0235,,44.27083333,,,,,,FBP-OG-91.png,0.4,1.2,43,0.5,0,44,44,42,1,,,,,,,,,,,,,,,,,,,,,,,,,,,,,,,,,,,,,,,,
,,,,,V3_040,21,Female,2024-10-30_15h39.51.864,jersey_experiment_5_v3,2023.2.2,Win32,85.47008547,,,,,,,,,,,,,,,,347.619,349.1717,349.1717,349.9365,return,0.0998,,67.83854167,,,,,,FBP-PT-91.png,0.45,1.2,30,0.75,0,45,45,29,1,,,,,,,,,,,,,,,,,,,,,,,,,,,,,,,,,,,,,,,,
,,,,,V3_040,21,Female,2024-10-30_15h39.51.864,jersey_experiment_5_v3,2023.2.2,Win32,85.47008547,,,,,,,,,,,,,,,,349.9368,351.4895,351.4895,353.3364,return,0.0686,,72.13541667,,,,,,FBP-PT-91.png,0.43,1.2,29,0.75,0,46,46,28,1,,,,,,,,,,,,,,,,,,,,,,,,,,,,,,,,,,,,,,,,
,,,,,V3_040,21,Female,2024-10-30_15h39.51.864,jersey_experiment_5_v3,2023.2.2,Win32,85.47008547,,,,,,,,,,,,,,,,353.3367,354.8895,354.8896,356.5132,return,0.605,,35.15625,,,,,,FBP-YG-19.png,0.37,1.2,12,0.75,0,47,47,11,1,,,,,,,,,,,,,,,,,,,,,,,,,,,,,,,,,,,,,,,,
,,,,,V3_040,21,Female,2024-10-30_15h39.51.864,jersey_experiment_5_v3,2023.2.2,Win32,85.47008547,,,,,,,,,,,,,,,,356.5135,358.0661,358.0661,359.1014,return,0.1381,,50.13020833,,,,,,FBP-YG-17.png,0.4,1.2,3,0.75,0,48,48,2,1,,,,,,,,,,,,,,,,,,,,,,,,,,,,,,,,,,,,,,,,
,,,,,V3_040,21,Female,2024-10-30_15h39.51.864,jersey_experiment_5_v3,2023.2.2,Win32,85.47008547,,,,,,,,,,,,,,,,359.1017,360.3957,360.3957,361.5251,return,0.1808,,7.291666667,,,,,,FBP-OG-81.png,0.35,1.2,36,0.5,0,49,49,35,1,,,,,,,,,,,,,,,,,,,,,,,,,,,,,,,,,,,,,,,,
,,,,,V3_040,21,Female,2024-10-30_15h39.51.864,jersey_experiment_5_v3,2023.2.2,Win32,85.47008547,,,,,,,,,,,,,,,,361.5254,363.0783,363.0783,364.0193,return,0.179,,50.52083333,,,,,,FBP-RB-71.png,0.4,1.2,48,0.75,0,50,50,47,1,,,,,,,,,,,,,,,,,,,,,,,,,,,,,,,,,,,,,,,,
,,,,,V3_040,21,Female,2024-10-30_15h39.51.864,jersey_experiment_5_v3,2023.2.2,Win32,85.47008547,,,,,,,,,,,,,,,,364.0196,365.5724,365.5725,367.2785,return,0.9961,,87.36979167,,,,,,FBP-RB-91.png,0.45,1.2,60,0.75,0,51,51,59,1,,,,,,,,,,,,,,,,,,,,,,,,,,,,,,,,,,,,,,,,
,,,,,V3_040,21,Female,2024-10-30_15h39.51.864,jersey_experiment_5_v3,2023.2.2,Win32,85.47008547,,,,,,,,,,,,,,,,367.2788,368.5724,368.5724,370.8077,return,0.2357,,60.28645833,,,,,,FBP-OG-71.png,0.4,1.2,33,0.5,0,52,52,32,1,,,,,,,,,,,,,,,,,,,,,,,,,,,,,,,,,,,,,,,,
,,,,,V3_040,21,Female,2024-10-30_15h39.51.864,jersey_experiment_5_v3,2023.2.2,Win32,85.47008547,,,,,,,,,,,,,,,,370.808,372.3608,372.3609,373.1842,return,0.0998,,15.625,,,,,,FBP-PT-81.png,0.35,1.2,21,0.75,0,53,53,20,1,,,,,,,,,,,,,,,,,,,,,,,,,,,,,,,,,,,,,,,,
,,,,,V3_040,21,Female,2024-10-30_15h39.51.864,jersey_experiment_5_v3,2023.2.2,Win32,85.47008547,,,,,,,,,,,,,,,,373.1844,374.7257,374.7258,376.1609,return,0.511,,80.46875,,,,,,FBP-RB-91.png,0.43,1.2,59,0.75,0,54,54,58,1,,,,,,,,,,,,,,,,,,,,,,,,,,,,,,,,,,,,,,,,
,,,,,V3_040,21,Female,2024-10-30_15h39.51.864,jersey_experiment_5_v3,2023.2.2,Win32,85.47008547,,,,,,,,,,,,,,,,376.1611,377.4551,377.4551,378.561,return,0.1897,,81.90104167,,,,,,FBP-OG-91.png,0.45,1.2,45,0.5,0,55,55,44,1,,,,,,,,,,,,,,,,,,,,,,,,,,,,,,,,,,,,,,,,
,,,,,V3_040,21,Female,2024-10-30_15h39.51.864,jersey_experiment_5_v3,2023.2.2,Win32,85.47008547,,,,,,,,,,,,,,,,378.5613,380.114,380.114,382.1143,return,0.5335,,49.34895833,,,,,,FBP-PT-91.png,0.37,1.2,27,0.75,0,56,56,26,1,,,,,,,,,,,,,,,,,,,,,,,,,,,,,,,,,,,,,,,,
,,,,,V3_040,21,Female,2024-10-30_15h39.51.864,jersey_experiment_5_v3,2023.2.2,Win32,85.47008547,,,,,,,,,,,,,,,,382.1146,383.4082,383.4082,385.7142,return,1.2023,,74.86979167,,,,,,FBP-OG-81.png,0.45,1.2,40,0.5,0,57,57,39,1,,,,,,,,,,,,,,,,,,,,,,,,,,,,,,,,,,,,,,,,
,,,,,V3_040,21,Female,2024-10-30_15h39.51.864,jersey_experiment_5_v3,2023.2.2,Win32,85.47008547,,,,,,,,,,,,,,,,385.7144,387.2673,387.2675,388.1261,return,0.0393,,49.47916667,,,,,,FBP-PT-71.png,0.37,1.2,17,0.75,0,58,58,16,1,,,,,,,,,,,,,,,,,,,,,,,,,,,,,,,,,,,,,,,,
,,,,,V3_040,21,Female,2024-10-30_15h39.51.864,jersey_experiment_5_v3,2023.2.2,Win32,85.47008547,,,,,,,,,,,,,,,,388.1263,389.6791,389.6791,392.032,return,0.1472,,74.21875,,,,,,FBP-YG-19.png,0.45,1.2,15,0.75,0,59,59,14,1,,,,,,,,,,,,,,,,,,,,,,,,,,,,,,,,,,,,,,,,
,,,,,V3_040,21,Female,2024-10-30_15h39.51.864,jersey_experiment_5_v3,2023.2.2,Win32,85.47008547,,,,,,,,,,,,,,,,,,,,,,,,,,,,,,,,,,,,,,,392.0323,512.0248,,,,,,,,,,,,,,,,,,,,,,,,,,,,,,,,,,,,,,
,,,,,V3_040,21,Female,2024-10-30_15h39.51.864,jersey_experiment_5_v3,2023.2.2,Win32,85.47008547,,,,,,,,,,,,,,,,,,,,,,,,,,,,,,,,,,,,,,,,,512.0249,557.0263,return,44.9913,,,,,,,,,,,,,,,,,,,,,,,,,,,,,,,,,,
,,,,,V3_040,21,Female,2024-10-30_15h39.51.864,jersey_experiment_5_v3,2023.2.2,Win32,85.47008547,,,,,,,,,,,,,,,,557.0283,558.3202,558.3203,561.6144,return,0.972,,38.671875,,,,,,FBP-PT-19.png,0.35,1.2,26,0.5,,,,,,,,,,,,,0,0,0,25,1,,,,,,,,,,,,,,,,,,,,,,,,,,,,
,,,,,V3_040,21,Female,2024-10-30_15h39.51.864,jersey_experiment_5_v3,2023.2.2,Win32,85.47008547,,,,,,,,,,,,,,,,561.6148,562.9088,562.9088,564.3911,return,0.1728,,74.86979167,,,,,,FBP-YG-71.png,0.43,1.2,4,0.5,,,,,,,,,,,,,0,1,1,3,1,,,,,,,,,,,,,,,,,,,,,,,,,,,,
,,,,,V3_040,21,Female,2024-10-30_15h39.51.864,jersey_experiment_5_v3,2023.2.2,Win32,85.47008547,,,,,,,,,,,,,,,,564.3914,565.944,565.944,569.2149,return,0.7444,,36.58854167,,,,,,FBP-OG-17.png,0.35,1.2,31,0.75,,,,,,,,,,,,,0,2,2,30,1,,,,,,,,,,,,,,,,,,,,,,,,,,,,
,,,,,V3_040,21,Female,2024-10-30_15h39.51.864,jersey_experiment_5_v3,2023.2.2,Win32,85.47008547,,,,,,,,,,,,,,,,569.2151,570.5089,570.509,572.0622,return,0.157,,69.40104167,,,,,,FBP-RB-17.png,0.4,1.2,48,0.5,,,,,,,,,,,,,0,3,3,47,1,,,,,,,,,,,,,,,,,,,,,,,,,,,,
,,,,,V3_040,21,Female,2024-10-30_15h39.51.864,jersey_experiment_5_v3,2023.2.2,Win32,85.47008547,,,,,,,,,,,,,,,,572.0623,573.3561,573.3562,574.4622,return,0.1017,,46.875,,,,,,FBP-YG-91.png,0.35,1.2,11,0.5,,,,,,,,,,,,,0,4,4,10,1,,,,,,,,,,,,,,,,,,,,,,,,,,,,
,,,,,V3_040,21,Female,2024-10-30_15h39.51.864,jersey_experiment_5_v3,2023.2.2,Win32,85.47008547,,,,,,,,,,,,,,,,574.4624,575.7564,575.7564,576.8505,return,0.0628,,39.58333333,,,,,,FBP-YG-81.png,0.35,1.2,6,0.5,,,,,,,,,,,,,0,5,5,5,1,,,,,,,,,,,,,,,,,,,,,,,,,,,,
,,,,,V3_040,21,Female,2024-10-30_15h39.51.864,jersey_experiment_5_v3,2023.2.2,Win32,85.47008547,,,,,,,,,,,,,,,,576.8507,578.1445,578.1445,579.074,return,0.0746,,50,,,,,,FBP-YG-71.png,0.37,1.2,2,0.5,,,,,,,,,,,,,0,6,6,1,1,,,,,,,,,,,,,,,,,,,,,,,,,,,,
,,,,,V3_040,21,Female,2024-10-30_15h39.51.864,jersey_experiment_5_v3,2023.2.2,Win32,85.47008547,,,,,,,,,,,,,,,,579.0742,580.368,580.3681,581.6976,return,0.0947,,94.40104167,,,,,,FBP-RB-18.png,0.43,1.2,54,0.5,,,,,,,,,,,,,0,7,7,53,1,,,,,,,,,,,,,,,,,,,,,,,,,,,,
,,,,,V3_040,21,Female,2024-10-30_15h39.51.864,jersey_experiment_5_v3,2023.2.2,Win32,85.47008547,,,,,,,,,,,,,,,,581.6977,583.2507,583.2507,584.5329,return,0.073,,53.64583333,,,,,,FBP-OG-17.png,0.37,1.2,32,0.75,,,,,,,,,,,,,0,8,8,31,1,,,,,,,,,,,,,,,,,,,,,,,,,,,,
,,,,,V3_040,21,Female,2024-10-30_15h39.51.864,jersey_experiment_5_v3,2023.2.2,Win32,85.47008547,,,,,,,,,,,,,,,,584.5332,585.8272,585.8272,586.8859,return,0.0324,,40.75520833,,,,,,FBP-RB-18.png,0.35,1.2,51,0.5,,,,,,,,,,,,,0,9,9,50,1,,,,,,,,,,,,,,,,,,,,,,,,,,,,
,,,,,V3_040,21,Female,2024-10-30_15h39.51.864,jersey_experiment_5_v3,2023.2.2,Win32,85.47008547,,,,,,,,,,,,,,,,586.8861,588.4275,588.4275,589.7449,return,0.4974,,82.421875,,,,,,FBP-OG-17.png,0.43,1.2,34,0.75,,,,,,,,,,,,,0,10,10,33,1,,,,,,,,,,,,,,,,,,,,,,,,,,,,
,,,,,V3_040,21,Female,2024-10-30_15h39.51.864,jersey_experiment_5_v3,2023.2.2,Win32,85.47008547,,,,,,,,,,,,,,,,589.7453,591.0391,591.0392,592.4038,return,0.612,,98.69791667,,,,,,FBP-PT-19.png,0.45,1.2,30,0.5,,,,,,,,,,,,,0,11,11,29,1,,,,,,,,,,,,,,,,,,,,,,,,,,,,
,,,,,V3_040,21,Female,2024-10-30_15h39.51.864,jersey_experiment_5_v3,2023.2.2,Win32,85.47008547,,,,,,,,,,,,,,,,592.404,593.698,593.698,595.1216,return,0.4513,,72.265625,,,,,,FBP-PT-18.png,0.4,1.2,23,0.5,,,,,,,,,,,,,0,12,12,22,1,,,,,,,,,,,,,,,,,,,,,,,,,,,,
,,,,,V3_040,21,Female,2024-10-30_15h39.51.864,jersey_experiment_5_v3,2023.2.2,Win32,85.47008547,,,,,,,,,,,,,,,,595.1219,596.4158,596.4158,597.6864,return,0.1284,,89.58333333,,,,,,FBP-RB-17.png,0.43,1.2,49,0.5,,,,,,,,,,,,,0,13,13,48,1,,,,,,,,,,,,,,,,,,,,,,,,,,,,
,,,,,V3_040,21,Female,2024-10-30_15h39.51.864,jersey_experiment_5_v3,2023.2.2,Win32,85.47008547,,,,,,,,,,,,,,,,597.6866,598.9807,598.9808,600.6396,return,0.677,,87.5,,,,,,FBP-YG-91.png,0.43,1.2,14,0.5,,,,,,,,,,,,,0,14,14,13,1,,,,,,,,,,,,,,,,,,,,,,,,,,,,
,,,,,V3_040,21,Female,2024-10-30_15h39.51.864,jersey_experiment_5_v3,2023.2.2,Win32,85.47008547,,,,,,,,,,,,,,,,600.6398,601.9337,601.9337,603.3455,return,0.1203,,24.21875,,,,,,FBP-PT-17.png,0.35,1.2,16,0.5,,,,,,,,,,,,,0,15,15,15,1,,,,,,,,,,,,,,,,,,,,,,,,,,,,
,,,,,V3_040,21,Female,2024-10-30_15h39.51.864,jersey_experiment_5_v3,2023.2.2,Win32,85.47008547,,,,,,,,,,,,,,,,603.3458,604.6395,604.6396,605.8162,return,0.2746,,17.1875,,,,,,FBP-YG-71.png,0.35,1.2,1,0.5,,,,,,,,,,,,,0,16,16,0,1,,,,,,,,,,,,,,,,,,,,,,,,,,,,
,,,,,V3_040,21,Female,2024-10-30_15h39.51.864,jersey_experiment_5_v3,2023.2.2,Win32,85.47008547,,,,,,,,,,,,,,,,605.8164,607.1103,607.1104,608.2632,return,0.1172,,25.26041667,,,,,,FBP-PT-18.png,0.35,1.2,21,0.5,,,,,,,,,,,,,0,17,17,20,1,,,,,,,,,,,,,,,,,,,,,,,,,,,,
,,,,,V3_040,21,Female,2024-10-30_15h39.51.864,jersey_experiment_5_v3,2023.2.2,Win32,85.47008547,,,,,,,,,,,,,,,,608.2635,609.5575,609.5575,610.5929,return,0.1196,,49.47916667,,,,,,FBP-RB-19.png,0.4,1.2,58,0.5,,,,,,,,,,,,,0,18,18,57,1,,,,,,,,,,,,,,,,,,,,,,,,,,,,
,,,,,V3_040,21,Female,2024-10-30_15h39.51.864,jersey_experiment_5_v3,2023.2.2,Win32,85.47008547,,,,,,,,,,,,,,,,610.5932,611.8868,611.8868,614.0989,return,0.1091,,87.23958333,,,,,,FBP-PT-18.png,0.45,1.2,25,0.5,,,,,,,,,,,,,0,19,19,24,1,,,,,,,,,,,,,,,,,,,,,,,,,,,,
,,,,,V3_040,21,Female,2024-10-30_15h39.51.864,jersey_experiment_5_v3,2023.2.2,Win32,85.47008547,,,,,,,,,,,,,,,,614.0991,615.393,615.393,616.5106,return,0.0174,,67.70833333,,,,,,FBP-PT-19.png,0.4,1.2,28,0.5,,,,,,,,,,,,,0,20,20,27,1,,,,,,,,,,,,,,,,,,,,,,,,,,,,
,,,,,V3_040,21,Female,2024-10-30_15h39.51.864,jersey_experiment_5_v3,2023.2.2,Win32,85.47008547,,,,,,,,,,,,,,,,616.5108,617.8048,617.8048,618.8637,return,0.0383,,96.22395833,,,,,,FBP-RB-19.png,0.45,1.2,60,0.5,,,,,,,,,,,,,0,21,21,59,1,,,,,,,,,,,,,,,,,,,,,,,,,,,,
,,,,,V3_040,21,Female,2024-10-30_15h39.51.864,jersey_experiment_5_v3,2023.2.2,Win32,85.47008547,,,,,,,,,,,,,,,,618.8639,620.1578,620.1578,621.6638,return,0.053,,50.52083333,,,,,,FBP-YG-81.png,0.37,1.2,7,0.5,,,,,,,,,,,,,0,22,22,6,1,,,,,,,,,,,,,,,,,,,,,,,,,,,,
,,,,,V3_040,21,Female,2024-10-30_15h39.51.864,jersey_experiment_5_v3,2023.2.2,Win32,85.47008547,,,,,,,,,,,,,,,,621.6641,622.9579,622.958,624.6403,return,0.0964,,74.34895833,,,,,,FBP-PT-17.png,0.43,1.2,19,0.5,,,,,,,,,,,,,0,23,23,18,1,,,,,,,,,,,,,,,,,,,,,,,,,,,,
,,,,,V3_040,21,Female,2024-10-30_15h39.51.864,jersey_experiment_5_v3,2023.2.2,Win32,85.47008547,,,,,,,,,,,,,,,,624.6406,626.1933,626.1934,627.2639,return,0.0764,,66.015625,,,,,,FBP-OG-19.png,0.43,1.2,44,0.75,,,,,,,,,,,,,0,24,24,43,1,,,,,,,,,,,,,,,,,,,,,,,,,,,,
,,,,,V3_040,21,Female,2024-10-30_15h39.51.864,jersey_experiment_5_v3,2023.2.2,Win32,85.47008547,,,,,,,,,,,,,,,,627.2642,628.5581,628.5581,631.0407,return,0.864,,44.27083333,,,,,,FBP-RB-19.png,0.37,1.2,57,0.5,,,,,,,,,,,,,0,25,25,56,1,,,,,,,,,,,,,,,,,,,,,,,,,,,,
,,,,,V3_040,21,Female,2024-10-30_15h39.51.864,jersey_experiment_5_v3,2023.2.2,Win32,85.47008547,,,,,,,,,,,,,,,,631.041,632.3348,632.3348,634.1936,return,0.2277,,49.86979167,,,,,,FBP-RB-18.png,0.37,1.2,52,0.5,,,,,,,,,,,,,0,26,26,51,1,,,,,,,,,,,,,,,,,,,,,,,,,,,,
,,,,,V3_040,21,Female,2024-10-30_15h39.51.864,jersey_experiment_5_v3,2023.2.2,Win32,85.47008547,,,,,,,,,,,,,,,,634.1938,635.4879,635.4879,636.7113,return,0.1174,,32.68229167,,,,,,FBP-PT-19.png,0.37,1.2,27,0.5,,,,,,,,,,,,,0,27,27,26,1,,,,,,,,,,,,,,,,,,,,,,,,,,,,
,,,,,V3_040,21,Female,2024-10-30_15h39.51.864,jersey_experiment_5_v3,2023.2.2,Win32,85.47008547,,,,,,,,,,,,,,,,636.7115,638.2643,638.2644,639.3586,return,0.1718,,57.421875,,,,,,FBP-OG-18.png,0.4,1.2,38,0.75,,,,,,,,,,,,,0,28,28,37,1,,,,,,,,,,,,,,,,,,,,,,,,,,,,
,,,,,V3_040,21,Female,2024-10-30_15h39.51.864,jersey_experiment_5_v3,2023.2.2,Win32,85.47008547,,,,,,,,,,,,,,,,639.3588,640.9118,640.9118,641.888,return,0.1589,,66.53645833,,,,,,FBP-OG-18.png,0.43,1.2,39,0.75,,,,,,,,,,,,,0,29,29,38,1,,,,,,,,,,,,,,,,,,,,,,,,,,,,
,,,,,V3_040,21,Female,2024-10-30_15h39.51.864,jersey_experiment_5_v3,2023.2.2,Win32,85.47008547,,,,,,,,,,,,,,,,641.8883,643.1824,643.1824,644.3586,return,0.1342,,31.25,,,,,,FBP-PT-17.png,0.37,1.2,17,0.5,,,,,,,,,,,,,0,30,30,16,1,,,,,,,,,,,,,,,,,,,,,,,,,,,,
,,,,,V3_040,21,Female,2024-10-30_15h39.51.864,jersey_experiment_5_v3,2023.2.2,Win32,85.47008547,,,,,,,,,,,,,,,,644.3589,645.6528,645.6529,646.7353,return,0.0418,,17.31770833,,,,,,FBP-RB-17.png,0.35,1.2,46,0.5,,,,,,,,,,,,,0,31,31,45,1,,,,,,,,,,,,,,,,,,,,,,,,,,,,
,,,,,V3_040,21,Female,2024-10-30_15h39.51.864,jersey_experiment_5_v3,2023.2.2,Win32,85.47008547,,,,,,,,,,,,,,,,646.7356,648.0295,648.0295,649.3001,return,0.0377,,91.796875,,,,,,FBP-YG-91.png,0.45,1.2,15,0.5,,,,,,,,,,,,,0,32,32,14,1,,,,,,,,,,,,,,,,,,,,,,,,,,,,
,,,,,V3_040,21,Female,2024-10-30_15h39.51.864,jersey_experiment_5_v3,2023.2.2,Win32,85.47008547,,,,,,,,,,,,,,,,649.3002,650.5943,650.5943,653.1358,return,1.1556,,41.27604167,,,,,,FBP-RB-17.png,0.37,1.2,47,0.5,,,,,,,,,,,,,0,33,33,46,1,,,,,,,,,,,,,,,,,,,,,,,,,,,,
,,,,,V3_040,21,Female,2024-10-30_15h39.51.864,jersey_experiment_5_v3,2023.2.2,Win32,85.47008547,,,,,,,,,,,,,,,,653.136,654.4299,654.4299,655.6179,return,0.0819,,51.171875,,,,,,FBP-YG-81.png,0.4,1.2,8,0.5,,,,,,,,,,,,,0,34,34,7,1,,,,,,,,,,,,,,,,,,,,,,,,,,,,
,,,,,V3_040,21,Female,2024-10-30_15h39.51.864,jersey_experiment_5_v3,2023.2.2,Win32,85.47008547,,,,,,,,,,,,,,,,655.6182,657.1709,657.1709,658.3121,return,0.1156,,58.59375,,,,,,FBP-OG-17.png,0.4,1.2,33,0.75,,,,,,,,,,,,,0,35,35,32,1,,,,,,,,,,,,,,,,,,,,,,,,,,,,
,,,,,V3_040,21,Female,2024-10-30_15h39.51.864,jersey_experiment_5_v3,2023.2.2,Win32,85.47008547,,,,,,,,,,,,,,,,658.3124,659.8653,659.8654,660.8299,return,0.052,,77.08333333,,,,,,FBP-OG-19.png,0.45,1.2,45,0.75,,,,,,,,,,,,,0,36,36,44,1,,,,,,,,,,,,,,,,,,,,,,,,,,,,
,,,,,V3_040,21,Female,2024-10-30_15h39.51.864,jersey_experiment_5_v3,2023.2.2,Win32,85.47008547,,,,,,,,,,,,,,,,660.8302,662.124,662.1241,662.9476,return,0.1335,,90.10416667,,,,,,FBP-RB-18.png,0.45,1.2,55,0.5,,,,,,,,,,,,,0,37,37,54,1,,,,,,,,,,,,,,,,,,,,,,,,,,,,
,,,,,V3_040,21,Female,2024-10-30_15h39.51.864,jersey_experiment_5_v3,2023.2.2,Win32,85.47008547,,,,,,,,,,,,,,,,662.9479,664.501,664.5011,666.7361,return,0.7314,,25.26041667,,,,,,FBP-OG-19.png,0.35,1.2,41,0.75,,,,,,,,,,,,,0,38,38,40,1,,,,,,,,,,,,,,,,,,,,,,,,,,,,
,,,,,V3_040,21,Female,2024-10-30_15h39.51.864,jersey_experiment_5_v3,2023.2.2,Win32,85.47008547,,,,,,,,,,,,,,,,666.7363,668.0302,668.0302,670.1009,return,0.1076,,86.45833333,,,,,,FBP-YG-81.png,0.45,1.2,10,0.5,,,,,,,,,,,,,0,39,39,9,1,,,,,,,,,,,,,,,,,,,,,,,,,,,,
,,,,,V3_040,21,Female,2024-10-30_15h39.51.864,jersey_experiment_5_v3,2023.2.2,Win32,85.47008547,,,,,,,,,,,,,,,,670.1011,671.6539,671.654,675.2186,return,0.1079,,25.78125,,,,,,FBP-OG-18.png,0.35,1.2,36,0.75,,,,,,,,,,,,,0,40,40,35,1,,,,,,,,,,,,,,,,,,,,,,,,,,,,
,,,,,V3_040,21,Female,2024-10-30_15h39.51.864,jersey_experiment_5_v3,2023.2.2,Win32,85.47008547,,,,,,,,,,,,,,,,675.2189,676.7718,676.7718,677.8423,return,0.1178,,50,,,,,,FBP-OG-19.png,0.4,1.2,43,0.75,,,,,,,,,,,,,0,41,41,42,1,,,,,,,,,,,,,,,,,,,,,,,,,,,,
,,,,,V3_040,21,Female,2024-10-30_15h39.51.864,jersey_experiment_5_v3,2023.2.2,Win32,85.47008547,,,,,,,,,,,,,,,,677.8426,679.1365,679.1365,680.8306,return,0.2178,,50,,,,,,FBP-PT-18.png,0.37,1.2,22,0.5,,,,,,,,,,,,,0,42,42,21,1,,,,,,,,,,,,,,,,,,,,,,,,,,,,
,,,,,V3_040,21,Female,2024-10-30_15h39.51.864,jersey_experiment_5_v3,2023.2.2,Win32,85.47008547,,,,,,,,,,,,,,,,680.8308,682.1248,682.1249,683.4425,return,0.039,,25.26041667,,,,,,FBP-RB-19.png,0.35,1.2,56,0.5,,,,,,,,,,,,,0,43,43,55,1,,,,,,,,,,,,,,,,,,,,,,,,,,,,
,,,,,V3_040,21,Female,2024-10-30_15h39.51.864,jersey_experiment_5_v3,2023.2.2,Win32,85.47008547,,,,,,,,,,,,,,,,683.4428,684.7366,684.7367,686.0191,return,0.0844,,60.02604167,,,,,,FBP-RB-18.png,0.4,1.2,53,0.5,,,,,,,,,,,,,0,44,44,52,1,,,,,,,,,,,,,,,,,,,,,,,,,,,,
,,,,,V3_040,21,Female,2024-10-30_15h39.51.864,jersey_experiment_5_v3,2023.2.2,Win32,85.47008547,,,,,,,,,,,,,,,,686.0194,687.3131,687.3132,689.0897,return,0.0945,,85.80729167,,,,,,FBP-YG-71.png,0.45,1.2,5,0.5,,,,,,,,,,,,,0,45,45,4,1,,,,,,,,,,,,,,,,,,,,,,,,,,,,
,,,,,V3_040,21,Female,2024-10-30_15h39.51.864,jersey_experiment_5_v3,2023.2.2,Win32,85.47008547,,,,,,,,,,,,,,,,689.09,690.6429,690.6429,691.8312,return,0.3767,,49.73958333,,,,,,FBP-OG-18.png,0.37,1.2,37,0.75,,,,,,,,,,,,,0,46,46,36,1,,,,,,,,,,,,,,,,,,,,,,,,,,,,
,,,,,V3_040,21,Female,2024-10-30_15h39.51.864,jersey_experiment_5_v3,2023.2.2,Win32,85.47008547,,,,,,,,,,,,,,,,691.8316,693.1253,693.1253,694.3372,return,0.0717,,65.75520833,,,,,,FBP-PT-18.png,0.43,1.2,24,0.5,,,,,,,,,,,,,0,47,47,23,1,,,,,,,,,,,,,,,,,,,,,,,,,,,,
,,,,,V3_040,21,Female,2024-10-30_15h39.51.864,jersey_experiment_5_v3,2023.2.2,Win32,85.47008547,,,,,,,,,,,,,,,,694.3374,695.6312,695.6312,698.0078,return,0.6345,,84.50520833,,,,,,FBP-PT-17.png,0.45,1.2,20,0.5,,,,,,,,,,,,,0,48,48,19,1,,,,,,,,,,,,,,,,,,,,,,,,,,,,
,,,,,V3_040,21,Female,2024-10-30_15h39.51.864,jersey_experiment_5_v3,2023.2.2,Win32,85.47008547,,,,,,,,,,,,,,,,698.008,699.3021,699.3021,700.7254,return,0.5885,,49.86979167,,,,,,FBP-YG-91.png,0.37,1.2,12,0.5,,,,,,,,,,,,,0,49,49,11,1,,,,,,,,,,,,,,,,,,,,,,,,,,,,
,,,,,V3_040,21,Female,2024-10-30_15h39.51.864,jersey_experiment_5_v3,2023.2.2,Win32,85.47008547,,,,,,,,,,,,,,,,700.7256,702.0196,702.0197,703.9845,return,0.0281,,73.828125,,,,,,FBP-RB-19.png,0.43,1.2,59,0.5,,,,,,,,,,,,,0,50,50,58,1,,,,,,,,,,,,,,,,,,,,,,,,,,,,
,,,,,V3_040,21,Female,2024-10-30_15h39.51.864,jersey_experiment_5_v3,2023.2.2,Win32,85.47008547,,,,,,,,,,,,,,,,703.9847,705.5375,705.5375,706.8315,return,0.0179,,95.83333333,,,,,,FBP-OG-18.png,0.45,1.2,40,0.75,,,,,,,,,,,,,0,51,51,39,1,,,,,,,,,,,,,,,,,,,,,,,,,,,,
,,,,,V3_040,21,Female,2024-10-30_15h39.51.864,jersey_experiment_5_v3,2023.2.2,Win32,85.47008547,,,,,,,,,,,,,,,,706.8318,708.1258,708.1258,709.5257,return,0.5648,,57.94270833,,,,,,FBP-PT-17.png,0.4,1.2,18,0.5,,,,,,,,,,,,,0,52,52,17,1,,,,,,,,,,,,,,,,,,,,,,,,,,,,
,,,,,V3_040,21,Female,2024-10-30_15h39.51.864,jersey_experiment_5_v3,2023.2.2,Win32,85.47008547,,,,,,,,,,,,,,,,709.5261,710.8199,710.82,711.9493,return,0.5261,,73.95833333,,,,,,FBP-YG-81.png,0.43,1.2,9,0.5,,,,,,,,,,,,,0,53,53,8,1,,,,,,,,,,,,,,,,,,,,,,,,,,,,
,,,,,V3_040,21,Female,2024-10-30_15h39.51.864,jersey_experiment_5_v3,2023.2.2,Win32,85.47008547,,,,,,,,,,,,,,,,711.9497,713.2438,713.2438,715.9732,return,1.9862,,64.453125,,,,,,FBP-YG-71.png,0.4,1.2,3,0.5,,,,,,,,,,,,,0,54,54,2,1,,,,,,,,,,,,,,,,,,,,,,,,,,,,
,,,,,V3_040,21,Female,2024-10-30_15h39.51.864,jersey_experiment_5_v3,2023.2.2,Win32,85.47008547,,,,,,,,,,,,,,,,715.9733,717.2673,717.2673,717.9965,return,0.1144,,50.26041667,,,,,,FBP-YG-91.png,0.4,1.2,13,0.5,,,,,,,,,,,,,0,55,55,12,1,,,,,,,,,,,,,,,,,,,,,,,,,,,,
,,,,,V3_040,21,Female,2024-10-30_15h39.51.864,jersey_experiment_5_v3,2023.2.2,Win32,85.47008547,,,,,,,,,,,,,,,,717.9968,719.2908,719.2908,721.232,return,0.5924,,83.59375,,,,,,FBP-RB-17.png,0.45,1.2,50,0.5,,,,,,,,,,,,,0,56,56,49,1,,,,,,,,,,,,,,,,,,,,,,,,,,,,
,,,,,V3_040,21,Female,2024-10-30_15h39.51.864,jersey_experiment_5_v3,2023.2.2,Win32,85.47008547,,,,,,,,,,,,,,,,721.2322,722.7853,722.7854,724.1499,return,0.1099,,37.63020833,,,,,,FBP-OG-19.png,0.37,1.2,42,0.75,,,,,,,,,,,,,0,57,57,41,1,,,,,,,,,,,,,,,,,,,,,,,,,,,,
,,,,,V3_040,21,Female,2024-10-30_15h39.51.864,jersey_experiment_5_v3,2023.2.2,Win32,85.47008547,,,,,,,,,,,,,,,,724.1501,725.4439,725.444,726.8322,return,0.6136,,60.28645833,,,,,,FBP-PT-19.png,0.43,1.2,29,0.5,,,,,,,,,,,,,0,58,58,28,1,,,,,,,,,,,,,,,,,,,,,,,,,,,,
,,,,,V3_040,21,Female,2024-10-30_15h39.51.864,jersey_experiment_5_v3,2023.2.2,Win32,85.47008547,,,,,,,,,,,,,,,,726.8324,728.3736,728.3736,729.2676,return,0.1042,,75.390625,,,,,,FBP-OG-17.png,0.45,1.2,35,0.75,,,,,,,,,,,,,0,59,59,34,1,,,,,,,,,,,,,,,,,,,,,,,,,,,,
,,,,,V3_040,21,Female,2024-10-30_15h39.51.864,jersey_experiment_5_v3,2023.2.2,Win32,85.47008547,,,,,,,,,,,,,,,,729.2696,730.8208,730.8209,732.056,return,0.0703,,53.125,,,,,,FBP-OG-71.png,0.4,1.2,33,0.75,,,,,,,,,,,,,,,,,,0,0,0,32,1,,,,,,,,,,,,,,,,,,,,,,,
,,,,,V3_040,21,Female,2024-10-30_15h39.51.864,jersey_experiment_5_v3,2023.2.2,Win32,85.47008547,,,,,,,,,,,,,,,,732.0563,733.3501,733.3501,734.1031,return,0.1164,,50.390625,,,,,,FBP-YG-18.png,0.4,1.2,8,0.5,,,,,,,,,,,,,,,,,,0,1,1,7,1,,,,,,,,,,,,,,,,,,,,,,,
,,,,,V3_040,21,Female,2024-10-30_15h39.51.864,jersey_experiment_5_v3,2023.2.2,Win32,85.47008547,,,,,,,,,,,,,,,,734.1035,735.3971,735.3972,735.8797,return,0.0945,,50.26041667,,,,,,FBP-PT-71.png,0.4,1.2,18,0.5,,,,,,,,,,,,,,,,,,0,2,2,17,1,,,,,,,,,,,,,,,,,,,,,,,
,,,,,V3_040,21,Female,2024-10-30_15h39.51.864,jersey_experiment_5_v3,2023.2.2,Win32,85.47008547,,,,,,,,,,,,,,,,735.8799,737.1737,737.1738,738.2915,return,0.0866,,63.671875,,,,,,FBP-YG-18.png,0.45,1.2,10,0.5,,,,,,,,,,,,,,,,,,0,3,3,9,1,,,,,,,,,,,,,,,,,,,,,,,
,,,,,V3_040,21,Female,2024-10-30_15h39.51.864,jersey_experiment_5_v3,2023.2.2,Win32,85.47008547,,,,,,,,,,,,,,,,738.2918,739.5857,739.5857,740.6917,return,0.0607,,38.93229167,,,,,,FBP-PT-81.png,0.37,1.2,22,0.5,,,,,,,,,,,,,,,,,,0,4,4,21,1,,,,,,,,,,,,,,,,,,,,,,,
,,,,,V3_040,21,Female,2024-10-30_15h39.51.864,jersey_experiment_5_v3,2023.2.2,Win32,85.47008547,,,,,,,,,,,,,,,,740.6919,741.9858,741.9858,742.8681,return,0.1039,,27.734375,,,,,,FBP-RB-91.png,0.37,1.2,57,0.5,,,,,,,,,,,,,,,,,,0,5,5,56,1,,,,,,,,,,,,,,,,,,,,,,,
,,,,,V3_040,21,Female,2024-10-30_15h39.51.864,jersey_experiment_5_v3,2023.2.2,Win32,85.47008547,,,,,,,,,,,,,,,,742.8686,744.1623,744.1623,745.174,return,0.0576,,81.38020833,,,,,,FBP-YG-19.png,0.45,1.2,15,0.5,,,,,,,,,,,,,,,,,,0,6,6,14,1,,,,,,,,,,,,,,,,,,,,,,,
,,,,,V3_040,21,Female,2024-10-30_15h39.51.864,jersey_experiment_5_v3,2023.2.2,Win32,85.47008547,,,,,,,,,,,,,,,,745.1743,746.4684,746.4684,747.7978,return,0.4132,,65.625,,,,,,FBP-RB-81.png,0.4,1.2,53,0.5,,,,,,,,,,,,,,,,,,0,7,7,52,1,,,,,,,,,,,,,,,,,,,,,,,
,,,,,V3_040,21,Female,2024-10-30_15h39.51.864,jersey_experiment_5_v3,2023.2.2,Win32,85.47008547,,,,,,,,,,,,,,,,747.7982,749.0919,749.092,750.1979,return,0.4386,,60.9375,,,,,,FBP-YG-19.png,0.4,1.2,13,0.5,,,,,,,,,,,,,,,,,,0,8,8,12,1,,,,,,,,,,,,,,,,,,,,,,,
,,,,,V3_040,21,Female,2024-10-30_15h39.51.864,jersey_experiment_5_v3,2023.2.2,Win32,85.47008547,,,,,,,,,,,,,,,,750.1982,751.4921,751.4921,753.551,return,0.9483,,25.78125,,,,,,FBP-RB-71.png,0.35,1.2,46,0.5,,,,,,,,,,,,,,,,,,0,9,9,45,1,,,,,,,,,,,,,,,,,,,,,,,
,,,,,V3_040,21,Female,2024-10-30_15h39.51.864,jersey_experiment_5_v3,2023.2.2,Win32,85.47008547,,,,,,,,,,,,,,,,753.5515,755.104,755.104,755.7275,return,0.0886,,12.23958333,,,,,,FBP-OG-71.png,0.35,1.2,31,0.75,,,,,,,,,,,,,,,,,,0,10,10,30,1,,,,,,,,,,,,,,,,,,,,,,,
,,,,,V3_040,21,Female,2024-10-30_15h39.51.864,jersey_experiment_5_v3,2023.2.2,Win32,85.47008547,,,,,,,,,,,,,,,,755.7277,757.0217,757.0218,758.6924,return,0.084,,74.34895833,,,,,,FBP-PT-81.png,0.43,1.2,24,0.5,,,,,,,,,,,,,,,,,,0,11,11,23,1,,,,,,,,,,,,,,,,,,,,,,,
,,,,,V3_040,21,Female,2024-10-30_15h39.51.864,jersey_experiment_5_v3,2023.2.2,Win32,85.47008547,,,,,,,,,,,,,,,,758.6926,759.9864,759.9864,760.9512,return,0.0628,,91.015625,,,,,,FBP-YG-19.png,0.43,1.2,14,0.5,,,,,,,,,,,,,,,,,,0,12,12,13,1,,,,,,,,,,,,,,,,,,,,,,,
,,,,,V3_040,21,Female,2024-10-30_15h39.51.864,jersey_experiment_5_v3,2023.2.2,Win32,85.47008547,,,,,,,,,,,,,,,,760.9514,762.2455,762.2455,763.3042,return,0.1332,,99.73958333,,,,,,FBP-RB-81.png,0.45,1.2,55,0.5,,,,,,,,,,,,,,,,,,0,13,13,54,1,,,,,,,,,,,,,,,,,,,,,,,
,,,,,V3_040,21,Female,2024-10-30_15h39.51.864,jersey_experiment_5_v3,2023.2.2,Win32,85.47008547,,,,,,,,,,,,,,,,763.3045,764.5984,764.5985,765.9985,return,0.063,,42.1875,,,,,,FBP-PT-71.png,0.37,1.2,17,0.5,,,,,,,,,,,,,,,,,,0,14,14,16,1,,,,,,,,,,,,,,,,,,,,,,,
,,,,,V3_040,21,Female,2024-10-30_15h39.51.864,jersey_experiment_5_v3,2023.2.2,Win32,85.47008547,,,,,,,,,,,,,,,,765.9988,767.2924,767.2925,769.3514,return,0.7899,,60.9375,,,,,,FBP-RB-91.png,0.4,1.2,58,0.5,,,,,,,,,,,,,,,,,,0,15,15,57,1,,,,,,,,,,,,,,,,,,,,,,,
,,,,,V3_040,21,Female,2024-10-30_15h39.51.864,jersey_experiment_5_v3,2023.2.2,Win32,85.47008547,,,,,,,,,,,,,,,,769.3518,770.6457,770.6458,771.8574,return,0.5455,,81.38020833,,,,,,FBP-PT-71.png,0.45,1.2,20,0.5,,,,,,,,,,,,,,,,,,0,16,16,19,1,,,,,,,,,,,,,,,,,,,,,,,
,,,,,V3_040,21,Female,2024-10-30_15h39.51.864,jersey_experiment_5_v3,2023.2.2,Win32,85.47008547,,,,,,,,,,,,,,,,771.8577,773.1515,773.1516,774.0927,return,0.0646,,74.86979167,,,,,,FBP-RB-81.png,0.43,1.2,54,0.5,,,,,,,,,,,,,,,,,,0,17,17,53,1,,,,,,,,,,,,,,,,,,,,,,,
,,,,,V3_040,21,Female,2024-10-30_15h39.51.864,jersey_experiment_5_v3,2023.2.2,Win32,85.47008547,,,,,,,,,,,,,,,,774.0929,775.3873,775.3873,776.5753,return,0.0733,,95.3125,,,,,,FBP-RB-91.png,0.45,1.2,60,0.5,,,,,,,,,,,,,,,,,,0,18,18,59,1,,,,,,,,,,,,,,,,,,,,,,,
,,,,,V3_040,21,Female,2024-10-30_15h39.51.864,jersey_experiment_5_v3,2023.2.2,Win32,85.47008547,,,,,,,,,,,,,,,,776.5756,777.8694,777.8694,779.3755,return,0.4419,,78.77604167,,,,,,FBP-PT-91.png,0.43,1.2,29,0.5,,,,,,,,,,,,,,,,,,0,19,19,28,1,,,,,,,,,,,,,,,,,,,,,,,
,,,,,V3_040,21,Female,2024-10-30_15h39.51.864,jersey_experiment_5_v3,2023.2.2,Win32,85.47008547,,,,,,,,,,,,,,,,779.3758,780.6695,780.6697,782.1284,return,0.5582,,92.83854167,,,,,,FBP-RB-71.png,0.45,1.2,50,0.5,,,,,,,,,,,,,,,,,,0,20,20,49,1,,,,,,,,,,,,,,,,,,,,,,,
,,,,,V3_040,21,Female,2024-10-30_15h39.51.864,jersey_experiment_5_v3,2023.2.2,Win32,85.47008547,,,,,,,,,,,,,,,,782.1286,783.4226,783.4226,784.9992,return,0.0945,,54.94791667,,,,,,FBP-RB-71.png,0.4,1.2,48,0.5,,,,,,,,,,,,,,,,,,0,21,21,47,1,,,,,,,,,,,,,,,,,,,,,,,
,,,,,V3_040,21,Female,2024-10-30_15h39.51.864,jersey_experiment_5_v3,2023.2.2,Win32,85.47008547,,,,,,,,,,,,,,,,784.9994,786.2933,786.2934,788.3992,return,1.1123,,3.515625,,,,,,FBP-RB-81.png,0.37,1.2,52,0.5,,,,,,,,,,,,,,,,,,0,22,22,51,1,,,,,,,,,,,,,,,,,,,,,,,
,,,,,V3_040,21,Female,2024-10-30_15h39.51.864,jersey_experiment_5_v3,2023.2.2,Win32,85.47008547,,,,,,,,,,,,,,,,788.3994,789.9407,789.9407,791.3642,return,0.237,,0.260416667,,,,,,FBP-OG-81.png,0.35,1.2,36,0.75,,,,,,,,,,,,,,,,,,0,23,23,35,1,,,,,,,,,,,,,,,,,,,,,,,
,,,,,V3_040,21,Female,2024-10-30_15h39.51.864,jersey_experiment_5_v3,2023.2.2,Win32,85.47008547,,,,,,,,,,,,,,,,791.3645,792.6582,792.6583,793.5877,return,0.1091,,8.723958333,,,,,,FBP-PT-91.png,0.35,1.2,26,0.5,,,,,,,,,,,,,,,,,,0,24,24,25,1,,,,,,,,,,,,,,,,,,,,,,,
,,,,,V3_040,21,Female,2024-10-30_15h39.51.864,jersey_experiment_5_v3,2023.2.2,Win32,85.47008547,,,,,,,,,,,,,,,,793.5879,795.1408,795.1408,796.4229,return,0.4341,,3.385416667,,,,,,FBP-OG-81.png,0.37,1.2,37,0.75,,,,,,,,,,,,,,,,,,0,25,25,36,1,,,,,,,,,,,,,,,,,,,,,,,
,,,,,V3_040,21,Female,2024-10-30_15h39.51.864,jersey_experiment_5_v3,2023.2.2,Win32,85.47008547,,,,,,,,,,,,,,,,796.4232,797.7172,797.7172,798.9997,return,0.0943,,49.609375,,,,,,FBP-YG-17.png,0.4,1.2,3,0.5,,,,,,,,,,,,,,,,,,0,26,26,2,1,,,,,,,,,,,,,,,,,,,,,,,
,,,,,V3_040,21,Female,2024-10-30_15h39.51.864,jersey_experiment_5_v3,2023.2.2,Win32,85.47008547,,,,,,,,,,,,,,,,798.9999,800.2938,800.2939,801.2468,return,0.1014,,23.828125,,,,,,FBP-YG-19.png,0.35,1.2,11,0.5,,,,,,,,,,,,,,,,,,0,27,27,10,1,,,,,,,,,,,,,,,,,,,,,,,
,,,,,V3_040,21,Female,2024-10-30_15h39.51.864,jersey_experiment_5_v3,2023.2.2,Win32,85.47008547,,,,,,,,,,,,,,,,801.247,802.7997,802.7998,803.3997,return,0.0491,,23.828125,,,,,,FBP-OG-71.png,0.37,1.2,32,0.75,,,,,,,,,,,,,,,,,,0,28,28,31,1,,,,,,,,,,,,,,,,,,,,,,,
,,,,,V3_040,21,Female,2024-10-30_15h39.51.864,jersey_experiment_5_v3,2023.2.2,Win32,85.47008547,,,,,,,,,,,,,,,,803.4,804.6938,804.6938,805.5057,return,0.0597,,31.51041667,,,,,,FBP-YG-19.png,0.37,1.2,12,0.5,,,,,,,,,,,,,,,,,,0,29,29,11,1,,,,,,,,,,,,,,,,,,,,,,,
,,,,,V3_040,21,Female,2024-10-30_15h39.51.864,jersey_experiment_5_v3,2023.2.2,Win32,85.47008547,,,,,,,,,,,,,,,,805.506,806.7998,806.7999,807.8117,return,0.0338,,62.63020833,,,,,,FBP-YG-17.png,0.43,1.2,4,0.5,,,,,,,,,,,,,,,,,,0,30,30,3,1,,,,,,,,,,,,,,,,,,,,,,,
,,,,,V3_040,21,Female,2024-10-30_15h39.51.864,jersey_experiment_5_v3,2023.2.2,Win32,85.47008547,,,,,,,,,,,,,,,,807.8119,809.3648,809.3648,810.2236,return,0.0745,,69.40104167,,,,,,FBP-OG-81.png,0.4,1.2,38,0.75,,,,,,,,,,,,,,,,,,0,31,31,37,1,,,,,,,,,,,,,,,,,,,,,,,
,,,,,V3_040,21,Female,2024-10-30_15h39.51.864,jersey_experiment_5_v3,2023.2.2,Win32,85.47008547,,,,,,,,,,,,,,,,810.2239,811.518,811.518,812.8825,return,0.4492,,25.78125,,,,,,FBP-PT-81.png,0.35,1.2,21,0.5,,,,,,,,,,,,,,,,,,0,32,32,20,1,,,,,,,,,,,,,,,,,,,,,,,
,,,,,V3_040,21,Female,2024-10-30_15h39.51.864,jersey_experiment_5_v3,2023.2.2,Win32,85.47008547,,,,,,,,,,,,,,,,812.8827,814.1765,814.1765,815.7177,return,0.0315,,60.02604167,,,,,,FBP-PT-81.png,0.4,1.2,23,0.5,,,,,,,,,,,,,,,,,,0,33,33,22,1,,,,,,,,,,,,,,,,,,,,,,,
,,,,,V3_040,21,Female,2024-10-30_15h39.51.864,jersey_experiment_5_v3,2023.2.2,Win32,85.47008547,,,,,,,,,,,,,,,,815.718,817.271,817.271,817.918,return,0.0667,,92.05729167,,,,,,FBP-OG-71.png,0.45,1.2,35,0.75,,,,,,,,,,,,,,,,,,0,34,34,34,1,,,,,,,,,,,,,,,,,,,,,,,
,,,,,V3_040,21,Female,2024-10-30_15h39.51.864,jersey_experiment_5_v3,2023.2.2,Win32,85.47008547,,,,,,,,,,,,,,,,817.9182,819.2124,819.2124,819.9532,return,0.0278,,50,,,,,,FBP-YG-17.png,0.37,1.2,2,0.5,,,,,,,,,,,,,,,,,,0,35,35,1,1,,,,,,,,,,,,,,,,,,,,,,,
,,,,,V3_040,21,Female,2024-10-30_15h39.51.864,jersey_experiment_5_v3,2023.2.2,Win32,85.47008547,,,,,,,,,,,,,,,,819.9535,821.2475,821.2476,821.9535,return,0.0279,,43.48958333,,,,,,FBP-YG-18.png,0.35,1.2,6,0.5,,,,,,,,,,,,,,,,,,0,36,36,5,1,,,,,,,,,,,,,,,,,,,,,,,
,,,,,V3_040,21,Female,2024-10-30_15h39.51.864,jersey_experiment_5_v3,2023.2.2,Win32,85.47008547,,,,,,,,,,,,,,,,821.9537,823.2475,823.2476,824.7888,return,0.5303,,65.49479167,,,,,,FBP-RB-91.png,0.43,1.2,59,0.5,,,,,,,,,,,,,,,,,,0,37,37,58,1,,,,,,,,,,,,,,,,,,,,,,,
,,,,,V3_040,21,Female,2024-10-30_15h39.51.864,jersey_experiment_5_v3,2023.2.2,Win32,85.47008547,,,,,,,,,,,,,,,,824.7891,826.083,826.083,827.1889,return,0.1094,,41.40625,,,,,,FBP-YG-17.png,0.35,1.2,1,0.5,,,,,,,,,,,,,,,,,,0,38,38,0,1,,,,,,,,,,,,,,,,,,,,,,,
,,,,,V3_040,21,Female,2024-10-30_15h39.51.864,jersey_experiment_5_v3,2023.2.2,Win32,85.47008547,,,,,,,,,,,,,,,,827.1892,828.4832,828.4832,829.4243,return,0.0409,,75.26041667,,,,,,FBP-PT-81.png,0.45,1.2,25,0.5,,,,,,,,,,,,,,,,,,0,39,39,24,1,,,,,,,,,,,,,,,,,,,,,,,
,,,,,V3_040,21,Female,2024-10-30_15h39.51.864,jersey_experiment_5_v3,2023.2.2,Win32,85.47008547,,,,,,,,,,,,,,,,829.4245,830.9772,830.9773,832.8834,return,0.7767,,73.30729167,,,,,,FBP-OG-71.png,0.43,1.2,34,0.75,,,,,,,,,,,,,,,,,,0,40,40,33,1,,,,,,,,,,,,,,,,,,,,,,,
,,,,,V3_040,21,Female,2024-10-30_15h39.51.864,jersey_experiment_5_v3,2023.2.2,Win32,85.47008547,,,,,,,,,,,,,,,,832.8835,834.1773,834.1773,835.2127,return,0.4208,,61.45833333,,,,,,FBP-PT-91.png,0.4,1.2,28,0.5,,,,,,,,,,,,,,,,,,0,41,41,27,1,,,,,,,,,,,,,,,,,,,,,,,
,,,,,V3_040,21,Female,2024-10-30_15h39.51.864,jersey_experiment_5_v3,2023.2.2,Win32,85.47008547,,,,,,,,,,,,,,,,835.2129,836.5069,836.5069,837.2362,return,0.1072,,85.67708333,,,,,,FBP-YG-17.png,0.45,1.2,5,0.5,,,,,,,,,,,,,,,,,,0,42,42,4,1,,,,,,,,,,,,,,,,,,,,,,,
,,,,,V3_040,21,Female,2024-10-30_15h39.51.864,jersey_experiment_5_v3,2023.2.2,Win32,85.47008547,,,,,,,,,,,,,,,,837.2365,838.7893,838.7894,839.3306,return,0.0261,,86.58854167,,,,,,FBP-OG-91.png,0.45,1.2,45,0.75,,,,,,,,,,,,,,,,,,0,43,43,44,1,,,,,,,,,,,,,,,,,,,,,,,
,,,,,V3_040,21,Female,2024-10-30_15h39.51.864,jersey_experiment_5_v3,2023.2.2,Win32,85.47008547,,,,,,,,,,,,,,,,839.3308,840.6245,840.6245,842.0952,return,0.1006,,24.86979167,,,,,,FBP-RB-81.png,0.35,1.2,51,0.5,,,,,,,,,,,,,,,,,,0,44,44,50,1,,,,,,,,,,,,,,,,,,,,,,,
,,,,,V3_040,21,Female,2024-10-30_15h39.51.864,jersey_experiment_5_v3,2023.2.2,Win32,85.47008547,,,,,,,,,,,,,,,,842.0954,843.6366,843.6367,844.6248,return,0.0254,,73.828125,,,,,,FBP-OG-81.png,0.45,1.2,40,0.75,,,,,,,,,,,,,,,,,,0,45,45,39,1,,,,,,,,,,,,,,,,,,,,,,,
,,,,,V3_040,21,Female,2024-10-30_15h39.51.864,jersey_experiment_5_v3,2023.2.2,Win32,85.47008547,,,,,,,,,,,,,,,,844.6251,845.9188,845.9189,846.4953,return,0.0639,,74.08854167,,,,,,FBP-YG-18.png,0.43,1.2,9,0.5,,,,,,,,,,,,,,,,,,0,46,46,8,1,,,,,,,,,,,,,,,,,,,,,,,
,,,,,V3_040,21,Female,2024-10-30_15h39.51.864,jersey_experiment_5_v3,2023.2.2,Win32,85.47008547,,,,,,,,,,,,,,,,846.4955,847.7898,847.7898,849.4602,return,0.857,,45.703125,,,,,,FBP-RB-91.png,0.35,1.2,56,0.5,,,,,,,,,,,,,,,,,,0,47,47,55,1,,,,,,,,,,,,,,,,,,,,,,,
,,,,,V3_040,21,Female,2024-10-30_15h39.51.864,jersey_experiment_5_v3,2023.2.2,Win32,85.47008547,,,,,,,,,,,,,,,,849.4604,850.7544,850.7544,852.1663,return,0.0341,,20.96354167,,,,,,FBP-PT-71.png,0.35,1.2,16,0.5,,,,,,,,,,,,,,,,,,0,48,48,15,1,,,,,,,,,,,,,,,,,,,,,,,
,,,,,V3_040,21,Female,2024-10-30_15h39.51.864,jersey_experiment_5_v3,2023.2.2,Win32,85.47008547,,,,,,,,,,,,,,,,852.1666,853.4602,853.4603,854.9193,return,0.0331,,63.54166667,,,,,,FBP-PT-71.png,0.43,1.2,19,0.5,,,,,,,,,,,,,,,,,,0,49,49,18,1,,,,,,,,,,,,,,,,,,,,,,,
,,,,,V3_040,21,Female,2024-10-30_15h39.51.864,jersey_experiment_5_v3,2023.2.2,Win32,85.47008547,,,,,,,,,,,,,,,,854.9196,856.2135,856.2135,857.0253,return,0.0019,,49.609375,,,,,,FBP-RB-71.png,0.37,1.2,47,0.5,,,,,,,,,,,,,,,,,,0,50,50,46,1,,,,,,,,,,,,,,,,,,,,,,,
,,,,,V3_040,21,Female,2024-10-30_15h39.51.864,jersey_experiment_5_v3,2023.2.2,Win32,85.47008547,,,,,,,,,,,,,,,,857.0257,858.5782,858.5784,859.8959,return,0.0713,,10.41666667,,,,,,FBP-OG-91.png,0.35,1.2,41,0.75,,,,,,,,,,,,,,,,,,0,51,51,40,1,,,,,,,,,,,,,,,,,,,,,,,
,,,,,V3_040,21,Female,2024-10-30_15h39.51.864,jersey_experiment_5_v3,2023.2.2,Win32,85.47008547,,,,,,,,,,,,,,,,859.8962,861.449,861.4491,862.9432,return,0.0141,,50.52083333,,,,,,FBP-OG-91.png,0.4,1.2,43,0.75,,,,,,,,,,,,,,,,,,0,52,52,42,1,,,,,,,,,,,,,,,,,,,,,,,
,,,,,V3_040,21,Female,2024-10-30_15h39.51.864,jersey_experiment_5_v3,2023.2.2,Win32,85.47008547,,,,,,,,,,,,,,,,862.9434,864.4962,864.4962,865.108,return,0.0569,,73.30729167,,,,,,FBP-OG-91.png,0.43,1.2,44,0.75,,,,,,,,,,,,,,,,,,0,53,53,43,1,,,,,,,,,,,,,,,,,,,,,,,
,,,,,V3_040,21,Female,2024-10-30_15h39.51.864,jersey_experiment_5_v3,2023.2.2,Win32,85.47008547,,,,,,,,,,,,,,,,865.1082,866.4021,866.4022,867.0138,return,0.0574,,87.5,,,,,,FBP-RB-71.png,0.43,1.2,49,0.5,,,,,,,,,,,,,,,,,,0,54,54,48,1,,,,,,,,,,,,,,,,,,,,,,,
,,,,,V3_040,21,Female,2024-10-30_15h39.51.864,jersey_experiment_5_v3,2023.2.2,Win32,85.47008547,,,,,,,,,,,,,,,,867.0141,868.5668,868.5668,869.5081,return,0.0487,,76.69270833,,,,,,FBP-OG-81.png,0.43,1.2,39,0.75,,,,,,,,,,,,,,,,,,0,55,55,38,1,,,,,,,,,,,,,,,,,,,,,,,
,,,,,V3_040,21,Female,2024-10-30_15h39.51.864,jersey_experiment_5_v3,2023.2.2,Win32,85.47008547,,,,,,,,,,,,,,,,869.5083,870.8023,870.8023,873.2846,return,1.6846,,81.90104167,,,,,,FBP-PT-91.png,0.45,1.2,30,0.5,,,,,,,,,,,,,,,,,,0,56,56,29,1,,,,,,,,,,,,,,,,,,,,,,,
,,,,,V3_040,21,Female,2024-10-30_15h39.51.864,jersey_experiment_5_v3,2023.2.2,Win32,85.47008547,,,,,,,,,,,,,,,,873.285,874.579,874.5791,875.7201,return,0.0708,,18.48958333,,,,,,FBP-PT-91.png,0.37,1.2,27,0.5,,,,,,,,,,,,,,,,,,0,57,57,26,1,,,,,,,,,,,,,,,,,,,,,,,
,,,,,V3_040,21,Female,2024-10-30_15h39.51.864,jersey_experiment_5_v3,2023.2.2,Win32,85.47008547,,,,,,,,,,,,,,,,875.7203,877.0142,877.0142,877.9202,return,0.0644,,24.08854167,,,,,,FBP-YG-18.png,0.37,1.2,7,0.5,,,,,,,,,,,,,,,,,,0,58,58,6,1,,,,,,,,,,,,,,,,,,,,,,,
,,,,,V3_040,21,Female,2024-10-30_15h39.51.864,jersey_experiment_5_v3,2023.2.2,Win32,85.47008547,,,,,,,,,,,,,,,,877.9204,879.4731,879.4731,880.0966,return,0.0989,,25.390625,,,,,,FBP-OG-91.png,0.37,1.2,42,0.75,,,,,,,,,,,,,,,,,,0,59,59,41,1,,,,,,,,,,,,,,,,,,,,,,,
,,,,,V3_040,21,Female,2024-10-30_15h39.51.864,jersey_experiment_5_v3,2023.2.2,Win32,85.47008547,,,,,,,,,,,,,,,,,,,,,,,,,,,,,,,,,,,,,,,,,,,,,,,,,,,,,,,,880.0968,884.8852,return,4.7775,,,,,,,,,,,,,,,,,,,
,,,,,V3_040,21,Female,2024-10-30_15h39.51.864,jersey_experiment_5_v3,2023.2.2,Win32,85.47008547,,,,,,,,,,,,,,,,,,,,,,,,,,,,,,,,,,,,,,,,,,,,,,,,,,,,,,,,,,,,,884.8854,889.0853,1,2.4493,return,1.7347,,,,,,,,,,,,
,,,,,V3_040,21,Female,2024-10-30_15h39.51.864,jersey_experiment_5_v3,2023.2.2,Win32,85.47008547,,,,,,,,,,,,,,,,,,,,,,,,,,,,,,,,,,,,,,,,,,,,,,,,,,,,,,,,,,,,,,,,,,,,889.0856,1004.7614,Maybe it's about how colors and/or previous stimuli affect size perception of current stimulus. I recognized that there the players had several different skin and jersey colors.,right,111.1089,,,,,,
,,,,,V3_040,21,Female,2024-10-30_15h39.51.864,jersey_experiment_5_v3,2023.2.2,Win32,85.47008547,,,,,,,,,,,,,,,,,,,,,,,,,,,,,,,,,,,,,,,,,,,,,,,,,,,,,,,,,,,,,,,,,,,,,,,,,,1004.7615,1008.2544,return,3.4847,