requirements.started,requirements.stopped,key_resp_3.keys,key_resp_3.rt,key_resp_3.duration,Subject ID,Age,Gender,date,expName,psychopyVersion,OS,frameRate,instructions1.started,instructions1.stopped,key_resp.keys,key_resp.rt,key_resp.duration,example.started,example.stopped,enter_2.keys,enter_2.rt,enter_2.duration,instructions2.started,instructions2.stopped,enter_3.keys,enter_3.rt,enter_3.duration,image.started,image.stopped,slider_2.started,slider_2.stopped,next.keys,next.rt,next.duration,slider.response,trial_block_1.thisRepN,trial_block_1.thisTrialN,trial_block_1.thisN,trial_block_1.thisIndex,trial_block_1.ran,Path,Width,Height,Index,Duration,trial_block_2.thisRepN,trial_block_2.thisTrialN,trial_block_2.thisN,trial_block_2.thisIndex,trial_block_2.ran,rest_break.started,rest_break.stopped,end_break.started,end_break.stopped,key_resp_5.keys,key_resp_5.rt,key_resp_5.duration,trial_block_3.thisRepN,trial_block_3.thisTrialN,trial_block_3.thisN,trial_block_3.thisIndex,trial_block_3.ran,trial_block_4.thisRepN,trial_block_4.thisTrialN,trial_block_4.thisN,trial_block_4.thisIndex,trial_block_4.ran,questions_intro.started,questions_intro.stopped,enter_12.keys,enter_12.rt,enter_12.duration,question2.started,question2.stopped,question_doingbest.response,question_doingbest.rt,enter_15.keys,enter_15.rt,enter_15.duration,pattern.started,pattern.stopped,pattern_2.text,enter_17.keys,enter_17.rt,enter_17.duration,thankyou.started,thankyou.stopped,enter_14.keys,enter_14.rt,enter_14.duration
0.0001,11.9973,return,11.9899,,V3_034,18,Female,2024-10-23_16h23.36.927,jersey_experiment_5_v3,2023.2.2,Win32,85.47008547,,,,,,,,,,,,,,,,,,,,,,,,,,,,,,,,,,,,,,,,,,,,,,,,,,,,,,,,,,,,,,,,,,,,,,,,,,,,,,
,,,,,V3_034,18,Female,2024-10-23_16h23.36.927,jersey_experiment_5_v3,2023.2.2,Win32,85.47008547,11.9976,25.8447,return,13.8269,,,,,,,,,,,,,,,,,,,,,,,,,,,,,,,,,,,,,,,,,,,,,,,,,,,,,,,,,,,,,,,,,,,,,,,,,,
,,,,,V3_034,18,Female,2024-10-23_16h23.36.927,jersey_experiment_5_v3,2023.2.2,Win32,85.47008547,,,,,,25.8448,31.0684,return,5.182,,,,,,,,,,,,,,,,,,,,,,,,,,,,,,,,,,,,,,,,,,,,,,,,,,,,,,,,,,,,,,,,,,,,,
,,,,,V3_034,18,Female,2024-10-23_16h23.36.927,jersey_experiment_5_v3,2023.2.2,Win32,85.47008547,,,,,,,,,,,31.0685,61.4227,return,30.3456,,,,,,,,,,,,,,,,,,,,,,,,,,,,,,,,,,,,,,,,,,,,,,,,,,,,,,,,,,,,,,,,
,,,,,V3_034,18,Female,2024-10-23_16h23.36.927,jersey_experiment_5_v3,2023.2.2,Win32,85.47008547,,,,,,,,,,,,,,,,61.4265,62.9754,62.9756,74.6937,return,4.0963,,50.52083333,0,0,0,20,1,FBP-PT-18.png,0.35,1.2,21,0.75,,,,,,,,,,,,,,,,,,,,,,,,,,,,,,,,,,,,,,,,,,,,,
,,,,,V3_034,18,Female,2024-10-23_16h23.36.927,jersey_experiment_5_v3,2023.2.2,Win32,85.47008547,,,,,,,,,,,,,,,,74.6942,76.2465,76.2466,80.1876,return,1.8666,,98.56770833,0,1,1,19,1,FBP-PT-17.png,0.45,1.2,20,0.75,,,,,,,,,,,,,,,,,,,,,,,,,,,,,,,,,,,,,,,,,,,,,
,,,,,V3_034,18,Female,2024-10-23_16h23.36.927,jersey_experiment_5_v3,2023.2.2,Win32,85.47008547,,,,,,,,,,,,,,,,80.188,81.7407,81.7408,87.388,return,1.0897,,64.84375,0,2,2,56,1,FBP-RB-19.png,0.37,1.2,57,0.75,,,,,,,,,,,,,,,,,,,,,,,,,,,,,,,,,,,,,,,,,,,,,
,,,,,V3_034,18,Female,2024-10-23_16h23.36.927,jersey_experiment_5_v3,2023.2.2,Win32,85.47008547,,,,,,,,,,,,,,,,87.3884,88.682,88.6822,92.3177,return,0.8491,,76.43229167,0,3,3,34,1,FBP-OG-17.png,0.45,1.2,35,0.5,,,,,,,,,,,,,,,,,,,,,,,,,,,,,,,,,,,,,,,,,,,,,
,,,,,V3_034,18,Female,2024-10-23_16h23.36.927,jersey_experiment_5_v3,2023.2.2,Win32,85.47008547,,,,,,,,,,,,,,,,92.3179,93.6116,93.6117,95.9413,return,1.048,,69.53125,0,4,4,43,1,FBP-OG-19.png,0.43,1.2,44,0.5,,,,,,,,,,,,,,,,,,,,,,,,,,,,,,,,,,,,,,,,,,,,,
,,,,,V3_034,18,Female,2024-10-23_16h23.36.927,jersey_experiment_5_v3,2023.2.2,Win32,85.47008547,,,,,,,,,,,,,,,,95.9416,97.2355,97.2356,100.4353,return,0.7033,,34.89583333,0,5,5,36,1,FBP-OG-18.png,0.37,1.2,37,0.5,,,,,,,,,,,,,,,,,,,,,,,,,,,,,,,,,,,,,,,,,,,,,
,,,,,V3_034,18,Female,2024-10-23_16h23.36.927,jersey_experiment_5_v3,2023.2.2,Win32,85.47008547,,,,,,,,,,,,,,,,100.4355,101.9883,101.9883,103.7297,return,0.4687,,33.33333333,0,6,6,57,1,FBP-RB-19.png,0.4,1.2,58,0.75,,,,,,,,,,,,,,,,,,,,,,,,,,,,,,,,,,,,,,,,,,,,,
,,,,,V3_034,18,Female,2024-10-23_16h23.36.927,jersey_experiment_5_v3,2023.2.2,Win32,85.47008547,,,,,,,,,,,,,,,,103.73,105.0237,105.0238,108.6593,return,0.2906,,43.61979167,0,7,7,31,1,FBP-OG-17.png,0.37,1.2,32,0.5,,,,,,,,,,,,,,,,,,,,,,,,,,,,,,,,,,,,,,,,,,,,,
,,,,,V3_034,18,Female,2024-10-23_16h23.36.927,jersey_experiment_5_v3,2023.2.2,Win32,85.47008547,,,,,,,,,,,,,,,,108.6596,110.2123,110.2123,111.8712,return,0.3775,,56.90104167,0,8,8,22,1,FBP-PT-18.png,0.4,1.2,23,0.75,,,,,,,,,,,,,,,,,,,,,,,,,,,,,,,,,,,,,,,,,,,,,
,,,,,V3_034,18,Female,2024-10-23_16h23.36.927,jersey_experiment_5_v3,2023.2.2,Win32,85.47008547,,,,,,,,,,,,,,,,111.8715,113.1653,113.1653,116.8364,return,2.3689,,74.86979167,0,9,9,38,1,FBP-OG-18.png,0.43,1.2,39,0.5,,,,,,,,,,,,,,,,,,,,,,,,,,,,,,,,,,,,,,,,,,,,,
,,,,,V3_034,18,Female,2024-10-23_16h23.36.927,jersey_experiment_5_v3,2023.2.2,Win32,85.47008547,,,,,,,,,,,,,,,,116.8364,118.3891,118.3891,122.2834,return,0.2904,,18.359375,0,10,10,10,1,FBP-YG-91.png,0.35,1.2,11,0.75,,,,,,,,,,,,,,,,,,,,,,,,,,,,,,,,,,,,,,,,,,,,,
,,,,,V3_034,18,Female,2024-10-23_16h23.36.927,jersey_experiment_5_v3,2023.2.2,Win32,85.47008547,,,,,,,,,,,,,,,,122.2836,123.8364,123.8364,128.0365,return,0.166,,33.33333333,0,11,11,1,1,FBP-YG-71.png,0.37,1.2,2,0.75,,,,,,,,,,,,,,,,,,,,,,,,,,,,,,,,,,,,,,,,,,,,,
,,,,,V3_034,18,Female,2024-10-23_16h23.36.927,jersey_experiment_5_v3,2023.2.2,Win32,85.47008547,,,,,,,,,,,,,,,,128.0367,129.5894,129.5894,131.4248,return,0.3536,,29.55729167,0,12,12,15,1,FBP-PT-17.png,0.35,1.2,16,0.75,,,,,,,,,,,,,,,,,,,,,,,,,,,,,,,,,,,,,,,,,,,,,
,,,,,V3_034,18,Female,2024-10-23_16h23.36.927,jersey_experiment_5_v3,2023.2.2,Win32,85.47008547,,,,,,,,,,,,,,,,131.4249,132.9663,132.9664,134.8015,return,0.3782,,67.44791667,0,13,13,7,1,FBP-YG-81.png,0.4,1.2,8,0.75,,,,,,,,,,,,,,,,,,,,,,,,,,,,,,,,,,,,,,,,,,,,,
,,,,,V3_034,18,Female,2024-10-23_16h23.36.927,jersey_experiment_5_v3,2023.2.2,Win32,85.47008547,,,,,,,,,,,,,,,,134.8018,136.3544,136.3545,138.0015,return,0.1996,,91.40625,0,14,14,14,1,FBP-YG-91.png,0.45,1.2,15,0.75,,,,,,,,,,,,,,,,,,,,,,,,,,,,,,,,,,,,,,,,,,,,,
,,,,,V3_034,18,Female,2024-10-23_16h23.36.927,jersey_experiment_5_v3,2023.2.2,Win32,85.47008547,,,,,,,,,,,,,,,,138.0018,139.296,139.296,142.59,return,0.4386,,25.13020833,0,15,15,40,1,FBP-OG-19.png,0.35,1.2,41,0.5,,,,,,,,,,,,,,,,,,,,,,,,,,,,,,,,,,,,,,,,,,,,,
,,,,,V3_034,18,Female,2024-10-23_16h23.36.927,jersey_experiment_5_v3,2023.2.2,Win32,85.47008547,,,,,,,,,,,,,,,,142.5903,144.1429,144.1429,145.9312,return,0.2297,,60.80729167,0,16,16,18,1,FBP-PT-17.png,0.43,1.2,19,0.75,,,,,,,,,,,,,,,,,,,,,,,,,,,,,,,,,,,,,,,,,,,,,
,,,,,V3_034,18,Female,2024-10-23_16h23.36.927,jersey_experiment_5_v3,2023.2.2,Win32,85.47008547,,,,,,,,,,,,,,,,145.9314,147.4727,147.4728,148.9429,return,0.2962,,29.55729167,0,17,17,50,1,FBP-RB-18.png,0.35,1.2,51,0.75,,,,,,,,,,,,,,,,,,,,,,,,,,,,,,,,,,,,,,,,,,,,,
,,,,,V3_034,18,Female,2024-10-23_16h23.36.927,jersey_experiment_5_v3,2023.2.2,Win32,85.47008547,,,,,,,,,,,,,,,,148.9431,150.2371,150.2372,152.1314,return,0.2585,,83.33333333,0,18,18,44,1,FBP-OG-19.png,0.45,1.2,45,0.5,,,,,,,,,,,,,,,,,,,,,,,,,,,,,,,,,,,,,,,,,,,,,
,,,,,V3_034,18,Female,2024-10-23_16h23.36.927,jersey_experiment_5_v3,2023.2.2,Win32,85.47008547,,,,,,,,,,,,,,,,152.1317,153.6847,153.6847,155.1081,return,0.1965,,24.609375,0,19,19,16,1,FBP-PT-17.png,0.37,1.2,17,0.75,,,,,,,,,,,,,,,,,,,,,,,,,,,,,,,,,,,,,,,,,,,,,
,,,,,V3_034,18,Female,2024-10-23_16h23.36.927,jersey_experiment_5_v3,2023.2.2,Win32,85.47008547,,,,,,,,,,,,,,,,155.1083,156.402,156.4021,159.8022,return,1.5737,,44.921875,0,20,20,32,1,FBP-OG-17.png,0.4,1.2,33,0.5,,,,,,,,,,,,,,,,,,,,,,,,,,,,,,,,,,,,,,,,,,,,,
,,,,,V3_034,18,Female,2024-10-23_16h23.36.927,jersey_experiment_5_v3,2023.2.2,Win32,85.47008547,,,,,,,,,,,,,,,,159.8024,161.0964,161.0964,164.5319,return,2.3663,,67.44791667,0,21,21,39,1,FBP-OG-18.png,0.45,1.2,40,0.5,,,,,,,,,,,,,,,,,,,,,,,,,,,,,,,,,,,,,,,,,,,,,
,,,,,V3_034,18,Female,2024-10-23_16h23.36.927,jersey_experiment_5_v3,2023.2.2,Win32,85.47008547,,,,,,,,,,,,,,,,164.5322,166.0852,166.0852,170.2732,return,1.2393,,60.546875,0,22,22,28,1,FBP-PT-19.png,0.43,1.2,29,0.75,,,,,,,,,,,,,,,,,,,,,,,,,,,,,,,,,,,,,,,,,,,,,
,,,,,V3_034,18,Female,2024-10-23_16h23.36.927,jersey_experiment_5_v3,2023.2.2,Win32,85.47008547,,,,,,,,,,,,,,,,170.2735,171.8263,171.8264,174.5439,return,1.4487,,16.66666667,0,23,23,55,1,FBP-RB-19.png,0.35,1.2,56,0.75,,,,,,,,,,,,,,,,,,,,,,,,,,,,,,,,,,,,,,,,,,,,,
,,,,,V3_034,18,Female,2024-10-23_16h23.36.927,jersey_experiment_5_v3,2023.2.2,Win32,85.47008547,,,,,,,,,,,,,,,,174.5441,176.097,176.097,178.2029,return,0.2082,,65.88541667,0,24,24,13,1,FBP-YG-91.png,0.43,1.2,14,0.75,,,,,,,,,,,,,,,,,,,,,,,,,,,,,,,,,,,,,,,,,,,,,
,,,,,V3_034,18,Female,2024-10-23_16h23.36.927,jersey_experiment_5_v3,2023.2.2,Win32,85.47008547,,,,,,,,,,,,,,,,178.2032,179.756,179.756,181.9325,return,0.4531,,74.86979167,0,25,25,49,1,FBP-RB-17.png,0.45,1.2,50,0.75,,,,,,,,,,,,,,,,,,,,,,,,,,,,,,,,,,,,,,,,,,,,,
,,,,,V3_034,18,Female,2024-10-23_16h23.36.927,jersey_experiment_5_v3,2023.2.2,Win32,85.47008547,,,,,,,,,,,,,,,,181.9327,183.4855,183.4855,184.9914,return,0.2259,,61.06770833,0,26,26,24,1,FBP-PT-18.png,0.45,1.2,25,0.75,,,,,,,,,,,,,,,,,,,,,,,,,,,,,,,,,,,,,,,,,,,,,
,,,,,V3_034,18,Female,2024-10-23_16h23.36.927,jersey_experiment_5_v3,2023.2.2,Win32,85.47008547,,,,,,,,,,,,,,,,184.9917,186.2856,186.2857,188.3562,return,0.3528,,29.42708333,0,27,27,41,1,FBP-OG-19.png,0.37,1.2,42,0.5,,,,,,,,,,,,,,,,,,,,,,,,,,,,,,,,,,,,,,,,,,,,,
,,,,,V3_034,18,Female,2024-10-23_16h23.36.927,jersey_experiment_5_v3,2023.2.2,Win32,85.47008547,,,,,,,,,,,,,,,,188.3566,189.9092,189.9093,191.0386,return,0.2012,,19.27083333,0,28,28,45,1,FBP-RB-17.png,0.35,1.2,46,0.75,,,,,,,,,,,,,,,,,,,,,,,,,,,,,,,,,,,,,,,,,,,,,
,,,,,V3_034,18,Female,2024-10-23_16h23.36.927,jersey_experiment_5_v3,2023.2.2,Win32,85.47008547,,,,,,,,,,,,,,,,191.0389,192.5919,192.5919,195.8743,return,1.7865,,76.953125,0,29,29,3,1,FBP-YG-71.png,0.43,1.2,4,0.75,,,,,,,,,,,,,,,,,,,,,,,,,,,,,,,,,,,,,,,,,,,,,
,,,,,V3_034,18,Female,2024-10-23_16h23.36.927,jersey_experiment_5_v3,2023.2.2,Win32,85.47008547,,,,,,,,,,,,,,,,195.8746,197.4274,197.4274,198.9096,return,0.2761,,27.60416667,0,30,30,11,1,FBP-YG-91.png,0.37,1.2,12,0.75,,,,,,,,,,,,,,,,,,,,,,,,,,,,,,,,,,,,,,,,,,,,,
,,,,,V3_034,18,Female,2024-10-23_16h23.36.927,jersey_experiment_5_v3,2023.2.2,Win32,85.47008547,,,,,,,,,,,,,,,,198.9099,200.4625,200.4626,201.8744,return,0.2341,,43.61979167,0,31,31,6,1,FBP-YG-81.png,0.37,1.2,7,0.75,,,,,,,,,,,,,,,,,,,,,,,,,,,,,,,,,,,,,,,,,,,,,
,,,,,V3_034,18,Female,2024-10-23_16h23.36.927,jersey_experiment_5_v3,2023.2.2,Win32,85.47008547,,,,,,,,,,,,,,,,201.8748,203.4275,203.4276,205.2979,return,0.1891,,85.15625,0,32,32,54,1,FBP-RB-18.png,0.45,1.2,55,0.75,,,,,,,,,,,,,,,,,,,,,,,,,,,,,,,,,,,,,,,,,,,,,
,,,,,V3_034,18,Female,2024-10-23_16h23.36.927,jersey_experiment_5_v3,2023.2.2,Win32,85.47008547,,,,,,,,,,,,,,,,205.2982,206.851,206.8511,209.4511,return,0.2656,,60.02604167,0,33,33,2,1,FBP-YG-71.png,0.4,1.2,3,0.75,,,,,,,,,,,,,,,,,,,,,,,,,,,,,,,,,,,,,,,,,,,,,
,,,,,V3_034,18,Female,2024-10-23_16h23.36.927,jersey_experiment_5_v3,2023.2.2,Win32,85.47008547,,,,,,,,,,,,,,,,209.4515,211.0045,211.0045,212.3218,return,0.2963,,78.125,0,34,34,59,1,FBP-RB-19.png,0.45,1.2,60,0.75,,,,,,,,,,,,,,,,,,,,,,,,,,,,,,,,,,,,,,,,,,,,,
,,,,,V3_034,18,Female,2024-10-23_16h23.36.927,jersey_experiment_5_v3,2023.2.2,Win32,85.47008547,,,,,,,,,,,,,,,,212.3221,213.8749,213.8749,215.6043,return,0.6352,,23.56770833,0,35,35,25,1,FBP-PT-19.png,0.35,1.2,26,0.75,,,,,,,,,,,,,,,,,,,,,,,,,,,,,,,,,,,,,,,,,,,,,
,,,,,V3_034,18,Female,2024-10-23_16h23.36.927,jersey_experiment_5_v3,2023.2.2,Win32,85.47008547,,,,,,,,,,,,,,,,215.6045,217.1458,217.1458,219.7103,return,1.697,,68.22916667,0,36,36,8,1,FBP-YG-81.png,0.43,1.2,9,0.75,,,,,,,,,,,,,,,,,,,,,,,,,,,,,,,,,,,,,,,,,,,,,
,,,,,V3_034,18,Female,2024-10-23_16h23.36.927,jersey_experiment_5_v3,2023.2.2,Win32,85.47008547,,,,,,,,,,,,,,,,219.7106,221.2635,221.2636,223.8986,return,0.5141,,22.78645833,0,37,37,5,1,FBP-YG-81.png,0.35,1.2,6,0.75,,,,,,,,,,,,,,,,,,,,,,,,,,,,,,,,,,,,,,,,,,,,,
,,,,,V3_034,18,Female,2024-10-23_16h23.36.927,jersey_experiment_5_v3,2023.2.2,Win32,85.47008547,,,,,,,,,,,,,,,,223.8987,225.4398,225.4399,227.3577,return,0.2304,,34.11458333,0,38,38,27,1,FBP-PT-19.png,0.4,1.2,28,0.75,,,,,,,,,,,,,,,,,,,,,,,,,,,,,,,,,,,,,,,,,,,,,
,,,,,V3_034,18,Female,2024-10-23_16h23.36.927,jersey_experiment_5_v3,2023.2.2,Win32,85.47008547,,,,,,,,,,,,,,,,227.358,228.9105,228.9106,230.4284,return,0.275,,10.9375,0,39,39,0,1,FBP-YG-71.png,0.35,1.2,1,0.75,,,,,,,,,,,,,,,,,,,,,,,,,,,,,,,,,,,,,,,,,,,,,
,,,,,V3_034,18,Female,2024-10-23_16h23.36.927,jersey_experiment_5_v3,2023.2.2,Win32,85.47008547,,,,,,,,,,,,,,,,230.4288,231.9816,231.9816,233.7225,return,0.1968,,50.13020833,0,40,40,48,1,FBP-RB-17.png,0.43,1.2,49,0.75,,,,,,,,,,,,,,,,,,,,,,,,,,,,,,,,,,,,,,,,,,,,,
,,,,,V3_034,18,Female,2024-10-23_16h23.36.927,jersey_experiment_5_v3,2023.2.2,Win32,85.47008547,,,,,,,,,,,,,,,,233.7228,235.0167,235.0169,237.0993,return,0.3124,,69.40104167,0,41,41,33,1,FBP-OG-17.png,0.43,1.2,34,0.5,,,,,,,,,,,,,,,,,,,,,,,,,,,,,,,,,,,,,,,,,,,,,
,,,,,V3_034,18,Female,2024-10-23_16h23.36.927,jersey_experiment_5_v3,2023.2.2,Win32,85.47008547,,,,,,,,,,,,,,,,237.0995,238.6523,238.6523,239.4874,return,0.2002,,50.26041667,0,42,42,51,1,FBP-RB-18.png,0.37,1.2,52,0.75,,,,,,,,,,,,,,,,,,,,,,,,,,,,,,,,,,,,,,,,,,,,,
,,,,,V3_034,18,Female,2024-10-23_16h23.36.927,jersey_experiment_5_v3,2023.2.2,Win32,85.47008547,,,,,,,,,,,,,,,,239.4877,241.0404,241.0404,244.1464,return,0.4554,,74.86979167,0,43,43,58,1,FBP-RB-19.png,0.43,1.2,59,0.75,,,,,,,,,,,,,,,,,,,,,,,,,,,,,,,,,,,,,,,,,,,,,
,,,,,V3_034,18,Female,2024-10-23_16h23.36.927,jersey_experiment_5_v3,2023.2.2,Win32,85.47008547,,,,,,,,,,,,,,,,244.1467,245.6995,245.6995,247.7701,return,0.9606,,95.703125,0,44,44,4,1,FBP-YG-71.png,0.45,1.2,5,0.75,,,,,,,,,,,,,,,,,,,,,,,,,,,,,,,,,,,,,,,,,,,,,
,,,,,V3_034,18,Female,2024-10-23_16h23.36.927,jersey_experiment_5_v3,2023.2.2,Win32,85.47008547,,,,,,,,,,,,,,,,247.7703,249.3232,249.3233,251.2291,return,0.2528,,39.453125,0,45,45,46,1,FBP-RB-17.png,0.37,1.2,47,0.75,,,,,,,,,,,,,,,,,,,,,,,,,,,,,,,,,,,,,,,,,,,,,
,,,,,V3_034,18,Female,2024-10-23_16h23.36.927,jersey_experiment_5_v3,2023.2.2,Win32,85.47008547,,,,,,,,,,,,,,,,251.2294,252.5231,252.5231,253.7232,return,0.3479,,24.47916667,0,46,46,35,1,FBP-OG-18.png,0.35,1.2,36,0.5,,,,,,,,,,,,,,,,,,,,,,,,,,,,,,,,,,,,,,,,,,,,,
,,,,,V3_034,18,Female,2024-10-23_16h23.36.927,jersey_experiment_5_v3,2023.2.2,Win32,85.47008547,,,,,,,,,,,,,,,,253.7234,255.2764,255.2766,257.5468,return,0.2427,,50.52083333,0,47,47,12,1,FBP-YG-91.png,0.4,1.2,13,0.75,,,,,,,,,,,,,,,,,,,,,,,,,,,,,,,,,,,,,,,,,,,,,
,,,,,V3_034,18,Female,2024-10-23_16h23.36.927,jersey_experiment_5_v3,2023.2.2,Win32,85.47008547,,,,,,,,,,,,,,,,257.5472,258.8413,258.8413,261.8412,return,1.0373,,63.02083333,0,48,48,42,1,FBP-OG-19.png,0.4,1.2,43,0.5,,,,,,,,,,,,,,,,,,,,,,,,,,,,,,,,,,,,,,,,,,,,,
,,,,,V3_034,18,Female,2024-10-23_16h23.36.927,jersey_experiment_5_v3,2023.2.2,Win32,85.47008547,,,,,,,,,,,,,,,,261.8416,263.3942,263.3943,265.1002,return,0.1916,,49.73958333,0,49,49,17,1,FBP-PT-17.png,0.4,1.2,18,0.75,,,,,,,,,,,,,,,,,,,,,,,,,,,,,,,,,,,,,,,,,,,,,
,,,,,V3_034,18,Female,2024-10-23_16h23.36.927,jersey_experiment_5_v3,2023.2.2,Win32,85.47008547,,,,,,,,,,,,,,,,265.1006,266.6532,266.6533,267.4061,return,0.1814,,49.73958333,0,50,50,21,1,FBP-PT-18.png,0.37,1.2,22,0.75,,,,,,,,,,,,,,,,,,,,,,,,,,,,,,,,,,,,,,,,,,,,,
,,,,,V3_034,18,Female,2024-10-23_16h23.36.927,jersey_experiment_5_v3,2023.2.2,Win32,85.47008547,,,,,,,,,,,,,,,,267.4064,268.9593,268.9593,270.2533,return,0.17,,92.1875,0,51,51,9,1,FBP-YG-81.png,0.45,1.2,10,0.75,,,,,,,,,,,,,,,,,,,,,,,,,,,,,,,,,,,,,,,,,,,,,
,,,,,V3_034,18,Female,2024-10-23_16h23.36.927,jersey_experiment_5_v3,2023.2.2,Win32,85.47008547,,,,,,,,,,,,,,,,270.2535,271.5473,271.5473,274.3239,return,0.964,,55.46875,0,52,52,30,1,FBP-OG-17.png,0.35,1.2,31,0.5,,,,,,,,,,,,,,,,,,,,,,,,,,,,,,,,,,,,,,,,,,,,,
,,,,,V3_034,18,Female,2024-10-23_16h23.36.927,jersey_experiment_5_v3,2023.2.2,Win32,85.47008547,,,,,,,,,,,,,,,,274.3242,275.618,275.6181,279.0889,return,1.2112,,56.51041667,0,53,53,37,1,FBP-OG-18.png,0.4,1.2,38,0.5,,,,,,,,,,,,,,,,,,,,,,,,,,,,,,,,,,,,,,,,,,,,,
,,,,,V3_034,18,Female,2024-10-23_16h23.36.927,jersey_experiment_5_v3,2023.2.2,Win32,85.47008547,,,,,,,,,,,,,,,,279.0892,280.6419,280.6419,281.6422,return,0.1965,,74.34895833,0,54,54,23,1,FBP-PT-18.png,0.43,1.2,24,0.75,,,,,,,,,,,,,,,,,,,,,,,,,,,,,,,,,,,,,,,,,,,,,
,,,,,V3_034,18,Female,2024-10-23_16h23.36.927,jersey_experiment_5_v3,2023.2.2,Win32,85.47008547,,,,,,,,,,,,,,,,281.6426,283.1951,283.1952,285.0067,return,0.1805,,75.26041667,0,55,55,47,1,FBP-RB-17.png,0.4,1.2,48,0.75,,,,,,,,,,,,,,,,,,,,,,,,,,,,,,,,,,,,,,,,,,,,,
,,,,,V3_034,18,Female,2024-10-23_16h23.36.927,jersey_experiment_5_v3,2023.2.2,Win32,85.47008547,,,,,,,,,,,,,,,,285.0069,286.5596,286.5597,289.3128,return,0.1318,,73.95833333,0,56,56,52,1,FBP-RB-18.png,0.4,1.2,53,0.75,,,,,,,,,,,,,,,,,,,,,,,,,,,,,,,,,,,,,,,,,,,,,
,,,,,V3_034,18,Female,2024-10-23_16h23.36.927,jersey_experiment_5_v3,2023.2.2,Win32,85.47008547,,,,,,,,,,,,,,,,289.3131,290.8658,290.8658,293.6423,return,0.2206,,69.01041667,0,57,57,26,1,FBP-PT-19.png,0.37,1.2,27,0.75,,,,,,,,,,,,,,,,,,,,,,,,,,,,,,,,,,,,,,,,,,,,,
,,,,,V3_034,18,Female,2024-10-23_16h23.36.927,jersey_experiment_5_v3,2023.2.2,Win32,85.47008547,,,,,,,,,,,,,,,,293.6425,295.1953,295.1953,296.7836,return,0.1527,,94.66145833,0,58,58,29,1,FBP-PT-19.png,0.45,1.2,30,0.75,,,,,,,,,,,,,,,,,,,,,,,,,,,,,,,,,,,,,,,,,,,,,
,,,,,V3_034,18,Female,2024-10-23_16h23.36.927,jersey_experiment_5_v3,2023.2.2,Win32,85.47008547,,,,,,,,,,,,,,,,296.7839,298.3366,298.3366,299.1013,return,0.425,,94.40104167,0,59,59,53,1,FBP-RB-18.png,0.43,1.2,54,0.75,,,,,,,,,,,,,,,,,,,,,,,,,,,,,,,,,,,,,,,,,,,,,
,,,,,V3_034,18,Female,2024-10-23_16h23.36.927,jersey_experiment_5_v3,2023.2.2,Win32,85.47008547,,,,,,,,,,,,,,,,299.1033,300.6543,300.6544,301.9838,return,0.5754,,94.40104167,,,,,,FBP-PT-71.png,0.4,1.2,18,0.75,0,0,0,17,1,,,,,,,,,,,,,,,,,,,,,,,,,,,,,,,,,,,,,,,,
,,,,,V3_034,18,Female,2024-10-23_16h23.36.927,jersey_experiment_5_v3,2023.2.2,Win32,85.47008547,,,,,,,,,,,,,,,,301.9843,303.5369,303.5369,304.5015,return,0.3532,,94.40104167,,,,,,FBP-PT-71.png,0.43,1.2,19,0.75,0,1,1,18,1,,,,,,,,,,,,,,,,,,,,,,,,,,,,,,,,,,,,,,,,
,,,,,V3_034,18,Female,2024-10-23_16h23.36.927,jersey_experiment_5_v3,2023.2.2,Win32,85.47008547,,,,,,,,,,,,,,,,304.5019,306.0545,306.0546,307.3958,return,0.2116,,97.52604167,,,,,,FBP-PT-91.png,0.45,1.2,30,0.75,0,2,2,29,1,,,,,,,,,,,,,,,,,,,,,,,,,,,,,,,,,,,,,,,,
,,,,,V3_034,18,Female,2024-10-23_16h23.36.927,jersey_experiment_5_v3,2023.2.2,Win32,85.47008547,,,,,,,,,,,,,,,,307.396,308.9487,308.9487,310.9134,return,0.1652,,95.18229167,,,,,,FBP-YG-19.png,0.43,1.2,14,0.75,0,3,3,13,1,,,,,,,,,,,,,,,,,,,,,,,,,,,,,,,,,,,,,,,,
,,,,,V3_034,18,Female,2024-10-23_16h23.36.927,jersey_experiment_5_v3,2023.2.2,Win32,85.47008547,,,,,,,,,,,,,,,,310.9137,312.4666,312.4666,313.0665,return,0.4086,,95.18229167,,,,,,FBP-PT-91.png,0.43,1.2,29,0.75,0,4,4,28,1,,,,,,,,,,,,,,,,,,,,,,,,,,,,,,,,,,,,,,,,
,,,,,V3_034,18,Female,2024-10-23_16h23.36.927,jersey_experiment_5_v3,2023.2.2,Win32,85.47008547,,,,,,,,,,,,,,,,313.0667,314.3607,314.3607,319.0433,return,2.4578,,55.33854167,,,,,,FBP-OG-91.png,0.37,1.2,42,0.5,0,5,5,41,1,,,,,,,,,,,,,,,,,,,,,,,,,,,,,,,,,,,,,,,,
,,,,,V3_034,18,Female,2024-10-23_16h23.36.927,jersey_experiment_5_v3,2023.2.2,Win32,85.47008547,,,,,,,,,,,,,,,,319.0436,320.5962,320.5963,321.361,return,0.284,,55.33854167,,,,,,FBP-RB-71.png,0.4,1.2,48,0.75,0,6,6,47,1,,,,,,,,,,,,,,,,,,,,,,,,,,,,,,,,,,,,,,,,
,,,,,V3_034,18,Female,2024-10-23_16h23.36.927,jersey_experiment_5_v3,2023.2.2,Win32,85.47008547,,,,,,,,,,,,,,,,321.3613,322.9139,322.914,323.9964,return,0.8994,,55.33854167,,,,,,FBP-RB-81.png,0.4,1.2,53,0.75,0,7,7,52,1,,,,,,,,,,,,,,,,,,,,,,,,,,,,,,,,,,,,,,,,
,,,,,V3_034,18,Female,2024-10-23_16h23.36.927,jersey_experiment_5_v3,2023.2.2,Win32,85.47008547,,,,,,,,,,,,,,,,323.9967,325.2905,325.2905,326.1963,return,0.3393,,55.33854167,,,,,,FBP-OG-91.png,0.43,1.2,44,0.5,0,8,8,43,1,,,,,,,,,,,,,,,,,,,,,,,,,,,,,,,,,,,,,,,,
,,,,,V3_034,18,Female,2024-10-23_16h23.36.927,jersey_experiment_5_v3,2023.2.2,Win32,85.47008547,,,,,,,,,,,,,,,,326.1967,327.7494,327.7495,328.8318,return,0.5209,,55.33854167,,,,,,FBP-YG-18.png,0.35,1.2,6,0.75,0,9,9,5,1,,,,,,,,,,,,,,,,,,,,,,,,,,,,,,,,,,,,,,,,
,,,,,V3_034,18,Female,2024-10-23_16h23.36.927,jersey_experiment_5_v3,2023.2.2,Win32,85.47008547,,,,,,,,,,,,,,,,328.8321,330.126,330.1261,331.6203,return,0.2499,,52.86458333,,,,,,FBP-OG-81.png,0.37,1.2,37,0.5,0,10,10,36,1,,,,,,,,,,,,,,,,,,,,,,,,,,,,,,,,,,,,,,,,
,,,,,V3_034,18,Female,2024-10-23_16h23.36.927,jersey_experiment_5_v3,2023.2.2,Win32,85.47008547,,,,,,,,,,,,,,,,331.6206,333.1732,333.1732,334.0202,return,0.3078,,53.64583333,,,,,,FBP-YG-17.png,0.35,1.2,1,0.75,0,11,11,0,1,,,,,,,,,,,,,,,,,,,,,,,,,,,,,,,,,,,,,,,,
,,,,,V3_034,18,Female,2024-10-23_16h23.36.927,jersey_experiment_5_v3,2023.2.2,Win32,85.47008547,,,,,,,,,,,,,,,,334.0206,335.3143,335.3144,336.5145,return,0.6574,,53.64583333,,,,,,FBP-OG-81.png,0.35,1.2,36,0.5,0,12,12,35,1,,,,,,,,,,,,,,,,,,,,,,,,,,,,,,,,,,,,,,,,
,,,,,V3_034,18,Female,2024-10-23_16h23.36.927,jersey_experiment_5_v3,2023.2.2,Win32,85.47008547,,,,,,,,,,,,,,,,336.5149,338.0674,338.0675,339.0206,return,0.3204,,51.04166667,,,,,,FBP-YG-17.png,0.37,1.2,2,0.75,0,13,13,1,1,,,,,,,,,,,,,,,,,,,,,,,,,,,,,,,,,,,,,,,,
,,,,,V3_034,18,Female,2024-10-23_16h23.36.927,jersey_experiment_5_v3,2023.2.2,Win32,85.47008547,,,,,,,,,,,,,,,,339.0208,340.5734,340.5734,341.397,return,0.2119,,57.94270833,,,,,,FBP-RB-71.png,0.37,1.2,47,0.75,0,14,14,46,1,,,,,,,,,,,,,,,,,,,,,,,,,,,,,,,,,,,,,,,,
,,,,,V3_034,18,Female,2024-10-23_16h23.36.927,jersey_experiment_5_v3,2023.2.2,Win32,85.47008547,,,,,,,,,,,,,,,,341.3972,342.95,342.9501,344.6088,return,0.4148,,82.16145833,,,,,,FBP-RB-91.png,0.45,1.2,60,0.75,0,15,15,59,1,,,,,,,,,,,,,,,,,,,,,,,,,,,,,,,,,,,,,,,,
,,,,,V3_034,18,Female,2024-10-23_16h23.36.927,jersey_experiment_5_v3,2023.2.2,Win32,85.47008547,,,,,,,,,,,,,,,,344.6091,346.1618,346.1618,347.2914,return,0.2866,,91.40625,,,,,,FBP-RB-91.png,0.43,1.2,59,0.75,0,16,16,58,1,,,,,,,,,,,,,,,,,,,,,,,,,,,,,,,,,,,,,,,,
,,,,,V3_034,18,Female,2024-10-23_16h23.36.927,jersey_experiment_5_v3,2023.2.2,Win32,85.47008547,,,,,,,,,,,,,,,,347.2917,348.8445,348.8446,349.7267,return,0.2482,,94.140625,,,,,,FBP-PT-81.png,0.4,1.2,23,0.75,0,17,17,22,1,,,,,,,,,,,,,,,,,,,,,,,,,,,,,,,,,,,,,,,,
,,,,,V3_034,18,Female,2024-10-23_16h23.36.927,jersey_experiment_5_v3,2023.2.2,Win32,85.47008547,,,,,,,,,,,,,,,,349.727,351.2796,351.2798,352.362,return,0.5371,,92.31770833,,,,,,FBP-RB-91.png,0.37,1.2,57,0.75,0,18,18,56,1,,,,,,,,,,,,,,,,,,,,,,,,,,,,,,,,,,,,,,,,
,,,,,V3_034,18,Female,2024-10-23_16h23.36.927,jersey_experiment_5_v3,2023.2.2,Win32,85.47008547,,,,,,,,,,,,,,,,352.3623,353.915,353.9151,355.0446,return,0.1751,,95.83333333,,,,,,FBP-RB-71.png,0.45,1.2,50,0.75,0,19,19,49,1,,,,,,,,,,,,,,,,,,,,,,,,,,,,,,,,,,,,,,,,
,,,,,V3_034,18,Female,2024-10-23_16h23.36.927,jersey_experiment_5_v3,2023.2.2,Win32,85.47008547,,,,,,,,,,,,,,,,355.045,356.3386,356.3387,357.5152,return,0.2512,,96.74479167,,,,,,FBP-OG-71.png,0.45,1.2,35,0.5,0,20,20,34,1,,,,,,,,,,,,,,,,,,,,,,,,,,,,,,,,,,,,,,,,
,,,,,V3_034,18,Female,2024-10-23_16h23.36.927,jersey_experiment_5_v3,2023.2.2,Win32,85.47008547,,,,,,,,,,,,,,,,357.5155,358.8093,358.8095,360.88,return,0.3326,,67.83854167,,,,,,FBP-OG-91.png,0.4,1.2,43,0.5,0,21,21,42,1,,,,,,,,,,,,,,,,,,,,,,,,,,,,,,,,,,,,,,,,
,,,,,V3_034,18,Female,2024-10-23_16h23.36.927,jersey_experiment_5_v3,2023.2.2,Win32,85.47008547,,,,,,,,,,,,,,,,360.8803,362.4332,362.4332,363.81,return,0.2826,,23.4375,,,,,,FBP-PT-81.png,0.35,1.2,21,0.75,0,22,22,20,1,,,,,,,,,,,,,,,,,,,,,,,,,,,,,,,,,,,,,,,,
,,,,,V3_034,18,Female,2024-10-23_16h23.36.927,jersey_experiment_5_v3,2023.2.2,Win32,85.47008547,,,,,,,,,,,,,,,,363.8102,365.1037,365.1037,366.2567,return,0.2255,,25.13020833,,,,,,FBP-OG-71.png,0.4,1.2,33,0.5,0,23,23,32,1,,,,,,,,,,,,,,,,,,,,,,,,,,,,,,,,,,,,,,,,
,,,,,V3_034,18,Female,2024-10-23_16h23.36.927,jersey_experiment_5_v3,2023.2.2,Win32,85.47008547,,,,,,,,,,,,,,,,366.257,367.5509,367.5509,369.3862,return,0.8678,,4.6875,,,,,,FBP-OG-71.png,0.35,1.2,31,0.5,0,24,24,30,1,,,,,,,,,,,,,,,,,,,,,,,,,,,,,,,,,,,,,,,,
,,,,,V3_034,18,Female,2024-10-23_16h23.36.927,jersey_experiment_5_v3,2023.2.2,Win32,85.47008547,,,,,,,,,,,,,,,,369.3864,370.9393,370.9395,374.4687,return,3.0353,,20.83333333,,,,,,FBP-RB-91.png,0.35,1.2,56,0.75,0,25,25,55,1,,,,,,,,,,,,,,,,,,,,,,,,,,,,,,,,,,,,,,,,
,,,,,V3_034,18,Female,2024-10-23_16h23.36.927,jersey_experiment_5_v3,2023.2.2,Win32,85.47008547,,,,,,,,,,,,,,,,374.4691,375.7629,375.763,378.2923,return,0.1648,,70.18229167,,,,,,FBP-OG-81.png,0.45,1.2,40,0.5,0,26,26,39,1,,,,,,,,,,,,,,,,,,,,,,,,,,,,,,,,,,,,,,,,
,,,,,V3_034,18,Female,2024-10-23_16h23.36.927,jersey_experiment_5_v3,2023.2.2,Win32,85.47008547,,,,,,,,,,,,,,,,378.2927,379.5866,379.5867,381.6808,return,0.5302,,49.08854167,,,,,,FBP-OG-91.png,0.35,1.2,41,0.5,0,27,27,40,1,,,,,,,,,,,,,,,,,,,,,,,,,,,,,,,,,,,,,,,,
,,,,,V3_034,18,Female,2024-10-23_16h23.36.927,jersey_experiment_5_v3,2023.2.2,Win32,85.47008547,,,,,,,,,,,,,,,,381.681,383.234,383.2341,385.9163,return,0.1006,,67.83854167,,,,,,FBP-YG-19.png,0.45,1.2,15,0.75,0,28,28,14,1,,,,,,,,,,,,,,,,,,,,,,,,,,,,,,,,,,,,,,,,
,,,,,V3_034,18,Female,2024-10-23_16h23.36.927,jersey_experiment_5_v3,2023.2.2,Win32,85.47008547,,,,,,,,,,,,,,,,385.9165,387.4692,387.4693,389.1635,return,0.7135,,49.73958333,,,,,,FBP-PT-91.png,0.37,1.2,27,0.75,0,29,29,26,1,,,,,,,,,,,,,,,,,,,,,,,,,,,,,,,,,,,,,,,,
,,,,,V3_034,18,Female,2024-10-23_16h23.36.927,jersey_experiment_5_v3,2023.2.2,Win32,85.47008547,,,,,,,,,,,,,,,,389.1637,390.7165,390.7165,392.14,return,0.1365,,62.63020833,,,,,,FBP-PT-71.png,0.45,1.2,20,0.75,0,30,30,19,1,,,,,,,,,,,,,,,,,,,,,,,,,,,,,,,,,,,,,,,,
,,,,,V3_034,18,Female,2024-10-23_16h23.36.927,jersey_experiment_5_v3,2023.2.2,Win32,85.47008547,,,,,,,,,,,,,,,,392.1402,393.6928,393.693,395.5872,return,0.1883,,81.38020833,,,,,,FBP-YG-17.png,0.4,1.2,3,0.75,0,31,31,2,1,,,,,,,,,,,,,,,,,,,,,,,,,,,,,,,,,,,,,,,,
,,,,,V3_034,18,Female,2024-10-23_16h23.36.927,jersey_experiment_5_v3,2023.2.2,Win32,85.47008547,,,,,,,,,,,,,,,,395.5874,397.1401,397.1402,398.7638,return,0.2192,,67.31770833,,,,,,FBP-RB-81.png,0.37,1.2,52,0.75,0,32,32,51,1,,,,,,,,,,,,,,,,,,,,,,,,,,,,,,,,,,,,,,,,
,,,,,V3_034,18,Female,2024-10-23_16h23.36.927,jersey_experiment_5_v3,2023.2.2,Win32,85.47008547,,,,,,,,,,,,,,,,398.7641,400.0578,400.0579,401.6814,return,0.4479,,80.59895833,,,,,,FBP-OG-91.png,0.45,1.2,45,0.5,0,33,33,44,1,,,,,,,,,,,,,,,,,,,,,,,,,,,,,,,,,,,,,,,,
,,,,,V3_034,18,Female,2024-10-23_16h23.36.927,jersey_experiment_5_v3,2023.2.2,Win32,85.47008547,,,,,,,,,,,,,,,,401.6815,402.9755,402.9755,404.3051,return,0.1627,,80.33854167,,,,,,FBP-OG-71.png,0.43,1.2,34,0.5,0,34,34,33,1,,,,,,,,,,,,,,,,,,,,,,,,,,,,,,,,,,,,,,,,
,,,,,V3_034,18,Female,2024-10-23_16h23.36.927,jersey_experiment_5_v3,2023.2.2,Win32,85.47008547,,,,,,,,,,,,,,,,404.3055,405.8581,405.8582,407.117,return,0.8059,,80.20833333,,,,,,FBP-YG-17.png,0.43,1.2,4,0.75,0,35,35,3,1,,,,,,,,,,,,,,,,,,,,,,,,,,,,,,,,,,,,,,,,
,,,,,V3_034,18,Female,2024-10-23_16h23.36.927,jersey_experiment_5_v3,2023.2.2,Win32,85.47008547,,,,,,,,,,,,,,,,407.1172,408.6701,408.6701,409.7877,return,0.1479,,80.72916667,,,,,,FBP-RB-81.png,0.43,1.2,54,0.75,0,36,36,53,1,,,,,,,,,,,,,,,,,,,,,,,,,,,,,,,,,,,,,,,,
,,,,,V3_034,18,Female,2024-10-23_16h23.36.927,jersey_experiment_5_v3,2023.2.2,Win32,85.47008547,,,,,,,,,,,,,,,,409.788,411.0818,411.0819,412.7877,return,0.3164,,77.21354167,,,,,,FBP-OG-81.png,0.43,1.2,39,0.5,0,37,37,38,1,,,,,,,,,,,,,,,,,,,,,,,,,,,,,,,,,,,,,,,,
,,,,,V3_034,18,Female,2024-10-23_16h23.36.927,jersey_experiment_5_v3,2023.2.2,Win32,85.47008547,,,,,,,,,,,,,,,,412.7881,414.3408,414.3409,415.4819,return,0.162,,48.828125,,,,,,FBP-YG-19.png,0.35,1.2,11,0.75,0,38,38,10,1,,,,,,,,,,,,,,,,,,,,,,,,,,,,,,,,,,,,,,,,
,,,,,V3_034,18,Female,2024-10-23_16h23.36.927,jersey_experiment_5_v3,2023.2.2,Win32,85.47008547,,,,,,,,,,,,,,,,415.4821,417.0234,417.0234,419.0821,return,0.2086,,43.22916667,,,,,,FBP-PT-71.png,0.35,1.2,16,0.75,0,39,39,15,1,,,,,,,,,,,,,,,,,,,,,,,,,,,,,,,,,,,,,,,,
,,,,,V3_034,18,Female,2024-10-23_16h23.36.927,jersey_experiment_5_v3,2023.2.2,Win32,85.47008547,,,,,,,,,,,,,,,,419.0824,420.6351,420.6352,421.7175,return,0.0826,,41.66666667,,,,,,FBP-YG-18.png,0.4,1.2,8,0.75,0,40,40,7,1,,,,,,,,,,,,,,,,,,,,,,,,,,,,,,,,,,,,,,,,
,,,,,V3_034,18,Female,2024-10-23_16h23.36.927,jersey_experiment_5_v3,2023.2.2,Win32,85.47008547,,,,,,,,,,,,,,,,421.7177,423.2707,423.2707,424.3179,return,0.2407,,19.66145833,,,,,,FBP-YG-19.png,0.37,1.2,12,0.75,0,41,41,11,1,,,,,,,,,,,,,,,,,,,,,,,,,,,,,,,,,,,,,,,,
,,,,,V3_034,18,Female,2024-10-23_16h23.36.927,jersey_experiment_5_v3,2023.2.2,Win32,85.47008547,,,,,,,,,,,,,,,,424.3182,425.8706,425.8707,426.5294,return,0.1522,,20.44270833,,,,,,FBP-PT-71.png,0.37,1.2,17,0.75,0,42,42,16,1,,,,,,,,,,,,,,,,,,,,,,,,,,,,,,,,,,,,,,,,
,,,,,V3_034,18,Female,2024-10-23_16h23.36.927,jersey_experiment_5_v3,2023.2.2,Win32,85.47008547,,,,,,,,,,,,,,,,426.5297,428.0825,428.0825,429.6354,return,0.857,,19.27083333,,,,,,FBP-PT-81.png,0.37,1.2,22,0.75,0,43,43,21,1,,,,,,,,,,,,,,,,,,,,,,,,,,,,,,,,,,,,,,,,
,,,,,V3_034,18,Female,2024-10-23_16h23.36.927,jersey_experiment_5_v3,2023.2.2,Win32,85.47008547,,,,,,,,,,,,,,,,429.6358,431.1886,431.1886,434.1297,return,1.4837,,65.234375,,,,,,FBP-PT-81.png,0.43,1.2,24,0.75,0,44,44,23,1,,,,,,,,,,,,,,,,,,,,,,,,,,,,,,,,,,,,,,,,
,,,,,V3_034,18,Female,2024-10-23_16h23.36.927,jersey_experiment_5_v3,2023.2.2,Win32,85.47008547,,,,,,,,,,,,,,,,434.1299,435.6826,435.6827,436.5064,return,0.1816,,63.28125,,,,,,FBP-RB-91.png,0.4,1.2,58,0.75,0,45,45,57,1,,,,,,,,,,,,,,,,,,,,,,,,,,,,,,,,,,,,,,,,
,,,,,V3_034,18,Female,2024-10-23_16h23.36.927,jersey_experiment_5_v3,2023.2.2,Win32,85.47008547,,,,,,,,,,,,,,,,436.5066,438.0594,438.0594,439.3887,return,1.0853,,71.09375,,,,,,FBP-YG-18.png,0.43,1.2,9,0.75,0,46,46,8,1,,,,,,,,,,,,,,,,,,,,,,,,,,,,,,,,,,,,,,,,
,,,,,V3_034,18,Female,2024-10-23_16h23.36.927,jersey_experiment_5_v3,2023.2.2,Win32,85.47008547,,,,,,,,,,,,,,,,439.389,440.9419,440.9419,442.3889,return,0.1415,,50.78125,,,,,,FBP-YG-18.png,0.37,1.2,7,0.75,0,47,47,6,1,,,,,,,,,,,,,,,,,,,,,,,,,,,,,,,,,,,,,,,,
,,,,,V3_034,18,Female,2024-10-23_16h23.36.927,jersey_experiment_5_v3,2023.2.2,Win32,85.47008547,,,,,,,,,,,,,,,,442.3892,443.9419,443.9419,445.8713,return,0.1093,,86.84895833,,,,,,FBP-YG-18.png,0.45,1.2,10,0.75,0,48,48,9,1,,,,,,,,,,,,,,,,,,,,,,,,,,,,,,,,,,,,,,,,
,,,,,V3_034,18,Female,2024-10-23_16h23.36.927,jersey_experiment_5_v3,2023.2.2,Win32,85.47008547,,,,,,,,,,,,,,,,445.8716,447.4245,447.4246,448.6126,return,0.1392,,87.63020833,,,,,,FBP-RB-71.png,0.43,1.2,49,0.75,0,49,49,48,1,,,,,,,,,,,,,,,,,,,,,,,,,,,,,,,,,,,,,,,,
,,,,,V3_034,18,Female,2024-10-23_16h23.36.927,jersey_experiment_5_v3,2023.2.2,Win32,85.47008547,,,,,,,,,,,,,,,,448.6128,450.1656,450.1657,451.0715,return,0.168,,86.84895833,,,,,,FBP-YG-17.png,0.45,1.2,5,0.75,0,50,50,4,1,,,,,,,,,,,,,,,,,,,,,,,,,,,,,,,,,,,,,,,,
,,,,,V3_034,18,Female,2024-10-23_16h23.36.927,jersey_experiment_5_v3,2023.2.2,Win32,85.47008547,,,,,,,,,,,,,,,,451.0718,452.6247,452.6247,453.5187,return,0.0855,,88.671875,,,,,,FBP-RB-81.png,0.45,1.2,55,0.75,0,51,51,54,1,,,,,,,,,,,,,,,,,,,,,,,,,,,,,,,,,,,,,,,,
,,,,,V3_034,18,Female,2024-10-23_16h23.36.927,jersey_experiment_5_v3,2023.2.2,Win32,85.47008547,,,,,,,,,,,,,,,,453.5189,455.0717,455.0718,456.9775,return,0.4482,,24.47916667,,,,,,FBP-RB-71.png,0.35,1.2,46,0.75,0,52,52,45,1,,,,,,,,,,,,,,,,,,,,,,,,,,,,,,,,,,,,,,,,
,,,,,V3_034,18,Female,2024-10-23_16h23.36.927,jersey_experiment_5_v3,2023.2.2,Win32,85.47008547,,,,,,,,,,,,,,,,456.9779,458.5308,458.5308,459.7307,return,0.2826,,22.65625,,,,,,FBP-YG-19.png,0.4,1.2,13,0.75,0,53,53,12,1,,,,,,,,,,,,,,,,,,,,,,,,,,,,,,,,,,,,,,,,
,,,,,V3_034,18,Female,2024-10-23_16h23.36.927,jersey_experiment_5_v3,2023.2.2,Win32,85.47008547,,,,,,,,,,,,,,,,459.7311,461.2837,461.2837,462.0484,return,0.1554,,22.78645833,,,,,,FBP-PT-91.png,0.35,1.2,26,0.75,0,54,54,25,1,,,,,,,,,,,,,,,,,,,,,,,,,,,,,,,,,,,,,,,,
,,,,,V3_034,18,Female,2024-10-23_16h23.36.927,jersey_experiment_5_v3,2023.2.2,Win32,85.47008547,,,,,,,,,,,,,,,,462.0486,463.3425,463.3426,464.7661,return,1.0034,,17.31770833,,,,,,FBP-OG-71.png,0.37,1.2,32,0.5,0,55,55,31,1,,,,,,,,,,,,,,,,,,,,,,,,,,,,,,,,,,,,,,,,
,,,,,V3_034,18,Female,2024-10-23_16h23.36.927,jersey_experiment_5_v3,2023.2.2,Win32,85.47008547,,,,,,,,,,,,,,,,464.7665,466.3191,466.3192,466.978,return,0.1994,,14.19270833,,,,,,FBP-PT-91.png,0.4,1.2,28,0.75,0,56,56,27,1,,,,,,,,,,,,,,,,,,,,,,,,,,,,,,,,,,,,,,,,
,,,,,V3_034,18,Female,2024-10-23_16h23.36.927,jersey_experiment_5_v3,2023.2.2,Win32,85.47008547,,,,,,,,,,,,,,,,466.9782,468.5309,468.5309,471.1664,return,1.3221,,63.54166667,,,,,,FBP-PT-81.png,0.45,1.2,25,0.75,0,57,57,24,1,,,,,,,,,,,,,,,,,,,,,,,,,,,,,,,,,,,,,,,,
,,,,,V3_034,18,Female,2024-10-23_16h23.36.927,jersey_experiment_5_v3,2023.2.2,Win32,85.47008547,,,,,,,,,,,,,,,,471.1666,472.4607,472.4607,473.684,return,0.1176,,49.73958333,,,,,,FBP-OG-81.png,0.4,1.2,38,0.5,0,58,58,37,1,,,,,,,,,,,,,,,,,,,,,,,,,,,,,,,,,,,,,,,,
,,,,,V3_034,18,Female,2024-10-23_16h23.36.927,jersey_experiment_5_v3,2023.2.2,Win32,85.47008547,,,,,,,,,,,,,,,,473.6843,475.237,475.2372,476.7782,return,1.0896,,44.79166667,,,,,,FBP-RB-81.png,0.35,1.2,51,0.75,0,59,59,50,1,,,,,,,,,,,,,,,,,,,,,,,,,,,,,,,,,,,,,,,,
,,,,,V3_034,18,Female,2024-10-23_16h23.36.927,jersey_experiment_5_v3,2023.2.2,Win32,85.47008547,,,,,,,,,,,,,,,,,,,,,,,,,,,,,,,,,,,,,,,476.7785,596.7712,,,,,,,,,,,,,,,,,,,,,,,,,,,,,,,,,,,,,,
,,,,,V3_034,18,Female,2024-10-23_16h23.36.927,jersey_experiment_5_v3,2023.2.2,Win32,85.47008547,,,,,,,,,,,,,,,,,,,,,,,,,,,,,,,,,,,,,,,,,596.7714,599.5947,return,2.8166,,,,,,,,,,,,,,,,,,,,,,,,,,,,,,,,,,
,,,,,V3_034,18,Female,2024-10-23_16h23.36.927,jersey_experiment_5_v3,2023.2.2,Win32,85.47008547,,,,,,,,,,,,,,,,599.5969,601.1474,601.1475,602.6888,return,0.2023,,65.10416667,,,,,,FBP-OG-17.png,0.45,1.2,35,0.75,,,,,,,,,,,,,0,0,0,34,1,,,,,,,,,,,,,,,,,,,,,,,,,,,,
,,,,,V3_034,18,Female,2024-10-23_16h23.36.927,jersey_experiment_5_v3,2023.2.2,Win32,85.47008547,,,,,,,,,,,,,,,,602.6892,604.2417,604.2418,605.0063,return,0.1455,,65.234375,,,,,,FBP-OG-17.png,0.43,1.2,34,0.75,,,,,,,,,,,,,0,1,1,33,1,,,,,,,,,,,,,,,,,,,,,,,,,,,,
,,,,,V3_034,18,Female,2024-10-23_16h23.36.927,jersey_experiment_5_v3,2023.2.2,Win32,85.47008547,,,,,,,,,,,,,,,,605.0066,606.5596,606.5596,609.583,return,1.6944,,70.703125,,,,,,FBP-OG-19.png,0.45,1.2,45,0.75,,,,,,,,,,,,,0,2,2,44,1,,,,,,,,,,,,,,,,,,,,,,,,,,,,
,,,,,V3_034,18,Female,2024-10-23_16h23.36.927,jersey_experiment_5_v3,2023.2.2,Win32,85.47008547,,,,,,,,,,,,,,,,609.5834,610.8774,610.8774,612.2185,return,0.1143,,70.05208333,,,,,,FBP-YG-71.png,0.4,1.2,3,0.5,,,,,,,,,,,,,0,3,3,2,1,,,,,,,,,,,,,,,,,,,,,,,,,,,,
,,,,,V3_034,18,Female,2024-10-23_16h23.36.927,jersey_experiment_5_v3,2023.2.2,Win32,85.47008547,,,,,,,,,,,,,,,,612.2188,613.5126,613.5127,614.8303,return,0.2749,,36.328125,,,,,,FBP-RB-19.png,0.35,1.2,56,0.5,,,,,,,,,,,,,0,4,4,55,1,,,,,,,,,,,,,,,,,,,,,,,,,,,,
,,,,,V3_034,18,Female,2024-10-23_16h23.36.927,jersey_experiment_5_v3,2023.2.2,Win32,85.47008547,,,,,,,,,,,,,,,,614.8305,616.1244,616.1246,617.5953,return,0.0782,,61.06770833,,,,,,FBP-PT-18.png,0.45,1.2,25,0.5,,,,,,,,,,,,,0,5,5,24,1,,,,,,,,,,,,,,,,,,,,,,,,,,,,
,,,,,V3_034,18,Female,2024-10-23_16h23.36.927,jersey_experiment_5_v3,2023.2.2,Win32,85.47008547,,,,,,,,,,,,,,,,617.5955,619.1484,619.1484,620.0776,return,0.1679,,29.81770833,,,,,,FBP-OG-18.png,0.35,1.2,36,0.75,,,,,,,,,,,,,0,6,6,35,1,,,,,,,,,,,,,,,,,,,,,,,,,,,,
,,,,,V3_034,18,Female,2024-10-23_16h23.36.927,jersey_experiment_5_v3,2023.2.2,Win32,85.47008547,,,,,,,,,,,,,,,,620.0779,621.3717,621.3717,622.7837,return,0.1559,,66.53645833,,,,,,FBP-YG-91.png,0.43,1.2,14,0.5,,,,,,,,,,,,,0,7,7,13,1,,,,,,,,,,,,,,,,,,,,,,,,,,,,
,,,,,V3_034,18,Female,2024-10-23_16h23.36.927,jersey_experiment_5_v3,2023.2.2,Win32,85.47008547,,,,,,,,,,,,,,,,622.7839,624.0777,624.0778,627.4073,return,1.9567,,33.203125,,,,,,FBP-PT-18.png,0.37,1.2,22,0.5,,,,,,,,,,,,,0,8,8,21,1,,,,,,,,,,,,,,,,,,,,,,,,,,,,
,,,,,V3_034,18,Female,2024-10-23_16h23.36.927,jersey_experiment_5_v3,2023.2.2,Win32,85.47008547,,,,,,,,,,,,,,,,627.4075,628.7014,628.7014,630.0426,return,0.0552,,32.94270833,,,,,,FBP-YG-81.png,0.37,1.2,7,0.5,,,,,,,,,,,,,0,9,9,6,1,,,,,,,,,,,,,,,,,,,,,,,,,,,,
,,,,,V3_034,18,Female,2024-10-23_16h23.36.927,jersey_experiment_5_v3,2023.2.2,Win32,85.47008547,,,,,,,,,,,,,,,,630.0428,631.3368,631.3368,632.3252,return,0.0552,,49.47916667,,,,,,FBP-PT-18.png,0.43,1.2,24,0.5,,,,,,,,,,,,,0,10,10,23,1,,,,,,,,,,,,,,,,,,,,,,,,,,,,
,,,,,V3_034,18,Female,2024-10-23_16h23.36.927,jersey_experiment_5_v3,2023.2.2,Win32,85.47008547,,,,,,,,,,,,,,,,632.3256,633.878,633.8781,635.1722,return,0.0941,,56.38020833,,,,,,FBP-OG-18.png,0.43,1.2,39,0.75,,,,,,,,,,,,,0,11,11,38,1,,,,,,,,,,,,,,,,,,,,,,,,,,,,
,,,,,V3_034,18,Female,2024-10-23_16h23.36.927,jersey_experiment_5_v3,2023.2.2,Win32,85.47008547,,,,,,,,,,,,,,,,635.1724,636.4664,636.4665,637.2782,return,0.2852,,55.98958333,,,,,,FBP-YG-81.png,0.43,1.2,9,0.5,,,,,,,,,,,,,0,12,12,8,1,,,,,,,,,,,,,,,,,,,,,,,,,,,,
,,,,,V3_034,18,Female,2024-10-23_16h23.36.927,jersey_experiment_5_v3,2023.2.2,Win32,85.47008547,,,,,,,,,,,,,,,,637.2785,638.5724,638.5724,640.0431,return,0.1725,,29.42708333,,,,,,FBP-RB-19.png,0.37,1.2,57,0.5,,,,,,,,,,,,,0,13,13,56,1,,,,,,,,,,,,,,,,,,,,,,,,,,,,
,,,,,V3_034,18,Female,2024-10-23_16h23.36.927,jersey_experiment_5_v3,2023.2.2,Win32,85.47008547,,,,,,,,,,,,,,,,640.0433,641.596,641.5961,642.3725,return,0.0944,,29.6875,,,,,,FBP-OG-17.png,0.37,1.2,32,0.75,,,,,,,,,,,,,0,14,14,31,1,,,,,,,,,,,,,,,,,,,,,,,,,,,,
,,,,,V3_034,18,Female,2024-10-23_16h23.36.927,jersey_experiment_5_v3,2023.2.2,Win32,85.47008547,,,,,,,,,,,,,,,,642.3729,643.6667,643.6668,647.0904,return,0.1868,,55.078125,,,,,,FBP-RB-19.png,0.43,1.2,59,0.5,,,,,,,,,,,,,0,15,15,58,1,,,,,,,,,,,,,,,,,,,,,,,,,,,,
,,,,,V3_034,18,Female,2024-10-23_16h23.36.927,jersey_experiment_5_v3,2023.2.2,Win32,85.47008547,,,,,,,,,,,,,,,,647.0907,648.3846,648.3847,650.667,return,0.0988,,42.31770833,,,,,,FBP-PT-19.png,0.35,1.2,26,0.5,,,,,,,,,,,,,0,16,16,25,1,,,,,,,,,,,,,,,,,,,,,,,,,,,,
,,,,,V3_034,18,Female,2024-10-23_16h23.36.927,jersey_experiment_5_v3,2023.2.2,Win32,85.47008547,,,,,,,,,,,,,,,,650.6672,651.9611,651.9612,654.6906,return,1.3671,,79.296875,,,,,,FBP-RB-17.png,0.45,1.2,50,0.5,,,,,,,,,,,,,0,17,17,49,1,,,,,,,,,,,,,,,,,,,,,,,,,,,,
,,,,,V3_034,18,Female,2024-10-23_16h23.36.927,jersey_experiment_5_v3,2023.2.2,Win32,85.47008547,,,,,,,,,,,,,,,,654.6908,656.2439,656.2439,658.6086,return,0.7082,,49.86979167,,,,,,FBP-OG-19.png,0.37,1.2,42,0.75,,,,,,,,,,,,,0,18,18,41,1,,,,,,,,,,,,,,,,,,,,,,,,,,,,
,,,,,V3_034,18,Female,2024-10-23_16h23.36.927,jersey_experiment_5_v3,2023.2.2,Win32,85.47008547,,,,,,,,,,,,,,,,658.609,659.9026,659.9027,661.0084,return,0.6452,,53.25520833,,,,,,FBP-RB-19.png,0.4,1.2,58,0.5,,,,,,,,,,,,,0,19,19,57,1,,,,,,,,,,,,,,,,,,,,,,,,,,,,
,,,,,V3_034,18,Female,2024-10-23_16h23.36.927,jersey_experiment_5_v3,2023.2.2,Win32,85.47008547,,,,,,,,,,,,,,,,661.0086,662.3026,662.3027,663.5967,return,0.1939,,65.234375,,,,,,FBP-PT-19.png,0.43,1.2,29,0.5,,,,,,,,,,,,,0,20,20,28,1,,,,,,,,,,,,,,,,,,,,,,,,,,,,
,,,,,V3_034,18,Female,2024-10-23_16h23.36.927,jersey_experiment_5_v3,2023.2.2,Win32,85.47008547,,,,,,,,,,,,,,,,663.5969,664.891,664.8911,665.8557,return,0.1292,,49.34895833,,,,,,FBP-RB-18.png,0.37,1.2,52,0.5,,,,,,,,,,,,,0,21,21,51,1,,,,,,,,,,,,,,,,,,,,,,,,,,,,
,,,,,V3_034,18,Female,2024-10-23_16h23.36.927,jersey_experiment_5_v3,2023.2.2,Win32,85.47008547,,,,,,,,,,,,,,,,665.856,667.15,667.15,668.3499,return,0.251,,50.13020833,,,,,,FBP-RB-17.png,0.4,1.2,48,0.5,,,,,,,,,,,,,0,22,22,47,1,,,,,,,,,,,,,,,,,,,,,,,,,,,,
,,,,,V3_034,18,Female,2024-10-23_16h23.36.927,jersey_experiment_5_v3,2023.2.2,Win32,85.47008547,,,,,,,,,,,,,,,,668.3502,669.6442,669.6442,671.0913,return,0.1213,,70.83333333,,,,,,FBP-YG-91.png,0.45,1.2,15,0.5,,,,,,,,,,,,,0,23,23,14,1,,,,,,,,,,,,,,,,,,,,,,,,,,,,
,,,,,V3_034,18,Female,2024-10-23_16h23.36.927,jersey_experiment_5_v3,2023.2.2,Win32,85.47008547,,,,,,,,,,,,,,,,671.0916,672.3856,672.3856,673.6325,return,0.071,,69.27083333,,,,,,FBP-PT-17.png,0.43,1.2,19,0.5,,,,,,,,,,,,,0,24,24,18,1,,,,,,,,,,,,,,,,,,,,,,,,,,,,
,,,,,V3_034,18,Female,2024-10-23_16h23.36.927,jersey_experiment_5_v3,2023.2.2,Win32,85.47008547,,,,,,,,,,,,,,,,673.6327,675.1855,675.1855,676.4679,return,0.2119,,63.93229167,,,,,,FBP-OG-19.png,0.4,1.2,43,0.75,,,,,,,,,,,,,0,25,25,42,1,,,,,,,,,,,,,,,,,,,,,,,,,,,,
,,,,,V3_034,18,Female,2024-10-23_16h23.36.927,jersey_experiment_5_v3,2023.2.2,Win32,85.47008547,,,,,,,,,,,,,,,,676.4682,677.7621,677.7622,681.562,return,0.1145,,55.46875,,,,,,FBP-PT-18.png,0.4,1.2,23,0.5,,,,,,,,,,,,,0,26,26,22,1,,,,,,,,,,,,,,,,,,,,,,,,,,,,
,,,,,V3_034,18,Female,2024-10-23_16h23.36.927,jersey_experiment_5_v3,2023.2.2,Win32,85.47008547,,,,,,,,,,,,,,,,681.5623,683.1151,683.1152,684.174,return,0.3221,,49.47916667,,,,,,FBP-OG-18.png,0.4,1.2,38,0.75,,,,,,,,,,,,,0,27,27,37,1,,,,,,,,,,,,,,,,,,,,,,,,,,,,
,,,,,V3_034,18,Female,2024-10-23_16h23.36.927,jersey_experiment_5_v3,2023.2.2,Win32,85.47008547,,,,,,,,,,,,,,,,684.1743,685.4681,685.4682,686.6212,return,0.145,,35.9375,,,,,,FBP-RB-18.png,0.35,1.2,51,0.5,,,,,,,,,,,,,0,28,28,50,1,,,,,,,,,,,,,,,,,,,,,,,,,,,,
,,,,,V3_034,18,Female,2024-10-23_16h23.36.927,jersey_experiment_5_v3,2023.2.2,Win32,85.47008547,,,,,,,,,,,,,,,,686.6215,687.9155,687.9156,690.1742,return,0.2045,,48.69791667,,,,,,FBP-PT-19.png,0.4,1.2,28,0.5,,,,,,,,,,,,,0,29,29,27,1,,,,,,,,,,,,,,,,,,,,,,,,,,,,
,,,,,V3_034,18,Female,2024-10-23_16h23.36.927,jersey_experiment_5_v3,2023.2.2,Win32,85.47008547,,,,,,,,,,,,,,,,690.1744,691.4683,691.4684,692.4684,return,0.29,,50.91145833,,,,,,FBP-YG-81.png,0.4,1.2,8,0.5,,,,,,,,,,,,,0,30,30,7,1,,,,,,,,,,,,,,,,,,,,,,,,,,,,
,,,,,V3_034,18,Female,2024-10-23_16h23.36.927,jersey_experiment_5_v3,2023.2.2,Win32,85.47008547,,,,,,,,,,,,,,,,692.4688,693.7626,693.7627,694.8921,return,0.1353,,36.71875,,,,,,FBP-RB-17.png,0.35,1.2,46,0.5,,,,,,,,,,,,,0,31,31,45,1,,,,,,,,,,,,,,,,,,,,,,,,,,,,
,,,,,V3_034,18,Female,2024-10-23_16h23.36.927,jersey_experiment_5_v3,2023.2.2,Win32,85.47008547,,,,,,,,,,,,,,,,694.8923,696.1862,696.1862,697.6334,return,0.1075,,70.3125,,,,,,FBP-RB-18.png,0.45,1.2,55,0.5,,,,,,,,,,,,,0,32,32,54,1,,,,,,,,,,,,,,,,,,,,,,,,,,,,
,,,,,V3_034,18,Female,2024-10-23_16h23.36.927,jersey_experiment_5_v3,2023.2.2,Win32,85.47008547,,,,,,,,,,,,,,,,697.6337,698.9276,698.9276,700.7157,return,0.0972,,67.31770833,,,,,,FBP-RB-18.png,0.4,1.2,53,0.5,,,,,,,,,,,,,0,33,33,52,1,,,,,,,,,,,,,,,,,,,,,,,,,,,,
,,,,,V3_034,18,Female,2024-10-23_16h23.36.927,jersey_experiment_5_v3,2023.2.2,Win32,85.47008547,,,,,,,,,,,,,,,,700.716,702.0099,702.01,703.8337,return,0.9976,,49.73958333,,,,,,FBP-YG-71.png,0.35,1.2,1,0.5,,,,,,,,,,,,,0,34,34,0,1,,,,,,,,,,,,,,,,,,,,,,,,,,,,
,,,,,V3_034,18,Female,2024-10-23_16h23.36.927,jersey_experiment_5_v3,2023.2.2,Win32,85.47008547,,,,,,,,,,,,,,,,703.8339,705.1277,705.1277,707.3749,return,1.2494,,62.63020833,,,,,,FBP-PT-17.png,0.45,1.2,20,0.5,,,,,,,,,,,,,0,35,35,19,1,,,,,,,,,,,,,,,,,,,,,,,,,,,,
,,,,,V3_034,18,Female,2024-10-23_16h23.36.927,jersey_experiment_5_v3,2023.2.2,Win32,85.47008547,,,,,,,,,,,,,,,,707.3752,708.669,708.6691,709.6339,return,0.2274,,50.390625,,,,,,FBP-RB-17.png,0.37,1.2,47,0.5,,,,,,,,,,,,,0,36,36,46,1,,,,,,,,,,,,,,,,,,,,,,,,,,,,
,,,,,V3_034,18,Female,2024-10-23_16h23.36.927,jersey_experiment_5_v3,2023.2.2,Win32,85.47008547,,,,,,,,,,,,,,,,709.634,710.9279,710.9279,712.3515,return,0.7561,,50.390625,,,,,,FBP-YG-91.png,0.35,1.2,11,0.5,,,,,,,,,,,,,0,37,37,10,1,,,,,,,,,,,,,,,,,,,,,,,,,,,,
,,,,,V3_034,18,Female,2024-10-23_16h23.36.927,jersey_experiment_5_v3,2023.2.2,Win32,85.47008547,,,,,,,,,,,,,,,,712.3518,713.6458,713.6459,715.0103,return,0.0558,,57.421875,,,,,,FBP-YG-91.png,0.4,1.2,13,0.5,,,,,,,,,,,,,0,38,38,12,1,,,,,,,,,,,,,,,,,,,,,,,,,,,,
,,,,,V3_034,18,Female,2024-10-23_16h23.36.927,jersey_experiment_5_v3,2023.2.2,Win32,85.47008547,,,,,,,,,,,,,,,,715.0105,716.3045,716.3046,717.3398,return,0.1008,,49.47916667,,,,,,FBP-YG-71.png,0.37,1.2,2,0.5,,,,,,,,,,,,,0,39,39,1,1,,,,,,,,,,,,,,,,,,,,,,,,,,,,
,,,,,V3_034,18,Female,2024-10-23_16h23.36.927,jersey_experiment_5_v3,2023.2.2,Win32,85.47008547,,,,,,,,,,,,,,,,717.3401,718.8928,718.8929,719.387,return,0.3011,,49.47916667,,,,,,FBP-OG-17.png,0.35,1.2,31,0.75,,,,,,,,,,,,,0,40,40,30,1,,,,,,,,,,,,,,,,,,,,,,,,,,,,
,,,,,V3_034,18,Female,2024-10-23_16h23.36.927,jersey_experiment_5_v3,2023.2.2,Win32,85.47008547,,,,,,,,,,,,,,,,719.3873,720.6812,720.6812,721.6459,return,0.0633,,62.63020833,,,,,,FBP-YG-71.png,0.43,1.2,4,0.5,,,,,,,,,,,,,0,41,41,3,1,,,,,,,,,,,,,,,,,,,,,,,,,,,,
,,,,,V3_034,18,Female,2024-10-23_16h23.36.927,jersey_experiment_5_v3,2023.2.2,Win32,85.47008547,,,,,,,,,,,,,,,,721.6462,722.9401,722.9401,724.0108,return,0.1008,,67.83854167,,,,,,FBP-RB-19.png,0.45,1.2,60,0.5,,,,,,,,,,,,,0,42,42,59,1,,,,,,,,,,,,,,,,,,,,,,,,,,,,
,,,,,V3_034,18,Female,2024-10-23_16h23.36.927,jersey_experiment_5_v3,2023.2.2,Win32,85.47008547,,,,,,,,,,,,,,,,724.011,725.3048,725.3049,726.2226,return,0.0495,,67.05729167,,,,,,FBP-YG-71.png,0.45,1.2,5,0.5,,,,,,,,,,,,,0,43,43,4,1,,,,,,,,,,,,,,,,,,,,,,,,,,,,
,,,,,V3_034,18,Female,2024-10-23_16h23.36.927,jersey_experiment_5_v3,2023.2.2,Win32,85.47008547,,,,,,,,,,,,,,,,726.2229,727.5168,727.5168,728.8345,return,0.1421,,64.453125,,,,,,FBP-PT-17.png,0.4,1.2,18,0.5,,,,,,,,,,,,,0,44,44,17,1,,,,,,,,,,,,,,,,,,,,,,,,,,,,
,,,,,V3_034,18,Female,2024-10-23_16h23.36.927,jersey_experiment_5_v3,2023.2.2,Win32,85.47008547,,,,,,,,,,,,,,,,728.8347,730.1287,730.1287,731.4229,return,0.2038,,50.390625,,,,,,FBP-YG-91.png,0.37,1.2,12,0.5,,,,,,,,,,,,,0,45,45,11,1,,,,,,,,,,,,,,,,,,,,,,,,,,,,
,,,,,V3_034,18,Female,2024-10-23_16h23.36.927,jersey_experiment_5_v3,2023.2.2,Win32,85.47008547,,,,,,,,,,,,,,,,731.4232,732.7169,732.7169,734.0935,return,0.1226,,66.40625,,,,,,FBP-RB-18.png,0.43,1.2,54,0.5,,,,,,,,,,,,,0,46,46,53,1,,,,,,,,,,,,,,,,,,,,,,,,,,,,
,,,,,V3_034,18,Female,2024-10-23_16h23.36.927,jersey_experiment_5_v3,2023.2.2,Win32,85.47008547,,,,,,,,,,,,,,,,734.0938,735.3876,735.3877,737.5172,return,0.7806,,45.96354167,,,,,,FBP-PT-18.png,0.35,1.2,21,0.5,,,,,,,,,,,,,0,47,47,20,1,,,,,,,,,,,,,,,,,,,,,,,,,,,,
,,,,,V3_034,18,Female,2024-10-23_16h23.36.927,jersey_experiment_5_v3,2023.2.2,Win32,85.47008547,,,,,,,,,,,,,,,,737.5174,739.0702,739.0703,739.87,return,0.1185,,35.41666667,,,,,,FBP-OG-19.png,0.35,1.2,41,0.75,,,,,,,,,,,,,0,48,48,40,1,,,,,,,,,,,,,,,,,,,,,,,,,,,,
,,,,,V3_034,18,Female,2024-10-23_16h23.36.927,jersey_experiment_5_v3,2023.2.2,Win32,85.47008547,,,,,,,,,,,,,,,,739.8703,741.1644,741.1644,742.6701,return,0.097,,54.55729167,,,,,,FBP-YG-81.png,0.45,1.2,10,0.5,,,,,,,,,,,,,0,49,49,9,1,,,,,,,,,,,,,,,,,,,,,,,,,,,,
,,,,,V3_034,18,Female,2024-10-23_16h23.36.927,jersey_experiment_5_v3,2023.2.2,Win32,85.47008547,,,,,,,,,,,,,,,,742.6704,744.2232,744.2232,745.4114,return,0.1649,,50.390625,,,,,,FBP-OG-18.png,0.37,1.2,37,0.75,,,,,,,,,,,,,0,50,50,36,1,,,,,,,,,,,,,,,,,,,,,,,,,,,,
,,,,,V3_034,18,Female,2024-10-23_16h23.36.927,jersey_experiment_5_v3,2023.2.2,Win32,85.47008547,,,,,,,,,,,,,,,,745.4117,746.7056,746.7056,747.6942,return,0.2502,,62.23958333,,,,,,FBP-RB-17.png,0.43,1.2,49,0.5,,,,,,,,,,,,,0,51,51,48,1,,,,,,,,,,,,,,,,,,,,,,,,,,,,
,,,,,V3_034,18,Female,2024-10-23_16h23.36.927,jersey_experiment_5_v3,2023.2.2,Win32,85.47008547,,,,,,,,,,,,,,,,747.6944,748.9881,748.9881,750.9294,return,0.1407,,48.95833333,,,,,,FBP-PT-19.png,0.37,1.2,27,0.5,,,,,,,,,,,,,0,52,52,26,1,,,,,,,,,,,,,,,,,,,,,,,,,,,,
,,,,,V3_034,18,Female,2024-10-23_16h23.36.927,jersey_experiment_5_v3,2023.2.2,Win32,85.47008547,,,,,,,,,,,,,,,,750.9296,752.4825,752.4825,753.3059,return,0.22,,59.765625,,,,,,FBP-OG-19.png,0.43,1.2,44,0.75,,,,,,,,,,,,,0,53,53,43,1,,,,,,,,,,,,,,,,,,,,,,,,,,,,
,,,,,V3_034,18,Female,2024-10-23_16h23.36.927,jersey_experiment_5_v3,2023.2.2,Win32,85.47008547,,,,,,,,,,,,,,,,753.3061,754.8474,754.8475,755.8589,return,0.1736,,62.5,,,,,,FBP-OG-17.png,0.4,1.2,33,0.75,,,,,,,,,,,,,0,54,54,32,1,,,,,,,,,,,,,,,,,,,,,,,,,,,,
,,,,,V3_034,18,Female,2024-10-23_16h23.36.927,jersey_experiment_5_v3,2023.2.2,Win32,85.47008547,,,,,,,,,,,,,,,,755.8592,757.1532,757.1532,758.6355,return,0.2659,,50.65104167,,,,,,FBP-PT-17.png,0.37,1.2,17,0.5,,,,,,,,,,,,,0,55,55,16,1,,,,,,,,,,,,,,,,,,,,,,,,,,,,
,,,,,V3_034,18,Female,2024-10-23_16h23.36.927,jersey_experiment_5_v3,2023.2.2,Win32,85.47008547,,,,,,,,,,,,,,,,758.6358,759.9297,759.9297,760.9766,return,0.1093,,69.40104167,,,,,,FBP-PT-19.png,0.45,1.2,30,0.5,,,,,,,,,,,,,0,56,56,29,1,,,,,,,,,,,,,,,,,,,,,,,,,,,,
,,,,,V3_034,18,Female,2024-10-23_16h23.36.927,jersey_experiment_5_v3,2023.2.2,Win32,85.47008547,,,,,,,,,,,,,,,,760.9769,762.5181,762.5182,763.6476,return,0.2238,,81.77083333,,,,,,FBP-OG-18.png,0.45,1.2,40,0.75,,,,,,,,,,,,,0,57,57,39,1,,,,,,,,,,,,,,,,,,,,,,,,,,,,
,,,,,V3_034,18,Female,2024-10-23_16h23.36.927,jersey_experiment_5_v3,2023.2.2,Win32,85.47008547,,,,,,,,,,,,,,,,763.6479,764.9418,764.9418,766.8476,return,0.1759,,29.81770833,,,,,,FBP-PT-17.png,0.35,1.2,16,0.5,,,,,,,,,,,,,0,58,58,15,1,,,,,,,,,,,,,,,,,,,,,,,,,,,,
,,,,,V3_034,18,Female,2024-10-23_16h23.36.927,jersey_experiment_5_v3,2023.2.2,Win32,85.47008547,,,,,,,,,,,,,,,,766.8479,768.1417,768.1418,769.3769,return,0.1313,,29.94791667,,,,,,FBP-YG-81.png,0.35,1.2,6,0.5,,,,,,,,,,,,,0,59,59,5,1,,,,,,,,,,,,,,,,,,,,,,,,,,,,
,,,,,V3_034,18,Female,2024-10-23_16h23.36.927,jersey_experiment_5_v3,2023.2.2,Win32,85.47008547,,,,,,,,,,,,,,,,769.3784,770.6713,770.6713,772.7183,return,0.0712,,49.86979167,,,,,,FBP-YG-19.png,0.37,1.2,12,0.5,,,,,,,,,,,,,,,,,,0,0,0,11,1,,,,,,,,,,,,,,,,,,,,,,,
,,,,,V3_034,18,Female,2024-10-23_16h23.36.927,jersey_experiment_5_v3,2023.2.2,Win32,85.47008547,,,,,,,,,,,,,,,,772.7188,774.0126,774.0126,775.9892,return,0.1632,,23.95833333,,,,,,FBP-RB-81.png,0.37,1.2,52,0.5,,,,,,,,,,,,,,,,,,0,1,1,51,1,,,,,,,,,,,,,,,,,,,,,,,
,,,,,V3_034,18,Female,2024-10-23_16h23.36.927,jersey_experiment_5_v3,2023.2.2,Win32,85.47008547,,,,,,,,,,,,,,,,775.9895,777.2832,777.2832,778.989,return,0.1311,,7.8125,,,,,,FBP-RB-81.png,0.35,1.2,51,0.5,,,,,,,,,,,,,,,,,,0,2,2,50,1,,,,,,,,,,,,,,,,,,,,,,,
,,,,,V3_034,18,Female,2024-10-23_16h23.36.927,jersey_experiment_5_v3,2023.2.2,Win32,85.47008547,,,,,,,,,,,,,,,,778.9893,780.5307,780.5307,781.8128,return,0.1183,,74.73958333,,,,,,FBP-OG-91.png,0.45,1.2,45,0.75,,,,,,,,,,,,,,,,,,0,3,3,44,1,,,,,,,,,,,,,,,,,,,,,,,
,,,,,V3_034,18,Female,2024-10-23_16h23.36.927,jersey_experiment_5_v3,2023.2.2,Win32,85.47008547,,,,,,,,,,,,,,,,781.813,783.3542,783.3542,784.1541,return,0.1145,,93.48958333,,,,,,FBP-OG-71.png,0.43,1.2,34,0.75,,,,,,,,,,,,,,,,,,0,4,4,33,1,,,,,,,,,,,,,,,,,,,,,,,
,,,,,V3_034,18,Female,2024-10-23_16h23.36.927,jersey_experiment_5_v3,2023.2.2,Win32,85.47008547,,,,,,,,,,,,,,,,784.1544,785.4482,785.4483,786.907,return,0.0512,,91.40625,,,,,,FBP-YG-18.png,0.37,1.2,7,0.5,,,,,,,,,,,,,,,,,,0,5,5,6,1,,,,,,,,,,,,,,,,,,,,,,,
,,,,,V3_034,18,Female,2024-10-23_16h23.36.927,jersey_experiment_5_v3,2023.2.2,Win32,85.47008547,,,,,,,,,,,,,,,,786.9073,788.4601,788.4602,789.1307,return,0.2434,,89.58333333,,,,,,FBP-OG-71.png,0.45,1.2,35,0.75,,,,,,,,,,,,,,,,,,0,6,6,34,1,,,,,,,,,,,,,,,,,,,,,,,
,,,,,V3_034,18,Female,2024-10-23_16h23.36.927,jersey_experiment_5_v3,2023.2.2,Win32,85.47008547,,,,,,,,,,,,,,,,789.1309,790.4249,790.425,792.4839,return,0.0385,,79.55729167,,,,,,FBP-PT-81.png,0.4,1.2,23,0.5,,,,,,,,,,,,,,,,,,0,7,7,22,1,,,,,,,,,,,,,,,,,,,,,,,
,,,,,V3_034,18,Female,2024-10-23_16h23.36.927,jersey_experiment_5_v3,2023.2.2,Win32,85.47008547,,,,,,,,,,,,,,,,792.4842,793.778,793.778,795.2487,return,1.1864,,83.46354167,,,,,,FBP-YG-19.png,0.43,1.2,14,0.5,,,,,,,,,,,,,,,,,,0,8,8,13,1,,,,,,,,,,,,,,,,,,,,,,,
,,,,,V3_034,18,Female,2024-10-23_16h23.36.927,jersey_experiment_5_v3,2023.2.2,Win32,85.47008547,,,,,,,,,,,,,,,,795.2488,796.5428,796.5428,797.8251,return,0.2103,,73.4375,,,,,,FBP-RB-91.png,0.37,1.2,57,0.5,,,,,,,,,,,,,,,,,,0,9,9,56,1,,,,,,,,,,,,,,,,,,,,,,,
,,,,,V3_034,18,Female,2024-10-23_16h23.36.927,jersey_experiment_5_v3,2023.2.2,Win32,85.47008547,,,,,,,,,,,,,,,,797.8256,799.1193,799.1193,799.6606,return,0.1466,,73.4375,,,,,,FBP-PT-71.png,0.43,1.2,19,0.5,,,,,,,,,,,,,,,,,,0,10,10,18,1,,,,,,,,,,,,,,,,,,,,,,,
,,,,,V3_034,18,Female,2024-10-23_16h23.36.927,jersey_experiment_5_v3,2023.2.2,Win32,85.47008547,,,,,,,,,,,,,,,,799.6608,800.9546,800.9547,802.4019,return,1.0358,,83.46354167,,,,,,FBP-YG-17.png,0.45,1.2,5,0.5,,,,,,,,,,,,,,,,,,0,11,11,4,1,,,,,,,,,,,,,,,,,,,,,,,
,,,,,V3_034,18,Female,2024-10-23_16h23.36.927,jersey_experiment_5_v3,2023.2.2,Win32,85.47008547,,,,,,,,,,,,,,,,802.4022,803.6959,803.6959,805.5077,return,0.1177,,81.640625,,,,,,FBP-YG-19.png,0.35,1.2,11,0.5,,,,,,,,,,,,,,,,,,0,12,12,10,1,,,,,,,,,,,,,,,,,,,,,,,
,,,,,V3_034,18,Female,2024-10-23_16h23.36.927,jersey_experiment_5_v3,2023.2.2,Win32,85.47008547,,,,,,,,,,,,,,,,805.5079,806.8019,806.802,807.9198,return,0.0854,,82.68229167,,,,,,FBP-YG-18.png,0.35,1.2,6,0.5,,,,,,,,,,,,,,,,,,0,13,13,5,1,,,,,,,,,,,,,,,,,,,,,,,
,,,,,V3_034,18,Female,2024-10-23_16h23.36.927,jersey_experiment_5_v3,2023.2.2,Win32,85.47008547,,,,,,,,,,,,,,,,807.92,809.2137,809.2137,810.861,return,0.1437,,96.09375,,,,,,FBP-YG-19.png,0.45,1.2,15,0.5,,,,,,,,,,,,,,,,,,0,14,14,14,1,,,,,,,,,,,,,,,,,,,,,,,
,,,,,V3_034,18,Female,2024-10-23_16h23.36.927,jersey_experiment_5_v3,2023.2.2,Win32,85.47008547,,,,,,,,,,,,,,,,810.8613,812.414,812.4141,813.5082,return,0.7845,,96.09375,,,,,,FBP-OG-81.png,0.45,1.2,40,0.75,,,,,,,,,,,,,,,,,,0,15,15,39,1,,,,,,,,,,,,,,,,,,,,,,,
,,,,,V3_034,18,Female,2024-10-23_16h23.36.927,jersey_experiment_5_v3,2023.2.2,Win32,85.47008547,,,,,,,,,,,,,,,,813.5084,815.0612,815.0612,815.9551,return,0.1881,,77.34375,,,,,,FBP-OG-81.png,0.43,1.2,39,0.75,,,,,,,,,,,,,,,,,,0,16,16,38,1,,,,,,,,,,,,,,,,,,,,,,,
,,,,,V3_034,18,Female,2024-10-23_16h23.36.927,jersey_experiment_5_v3,2023.2.2,Win32,85.47008547,,,,,,,,,,,,,,,,815.9553,817.5084,817.5084,818.1906,return,0.179,,76.43229167,,,,,,FBP-OG-81.png,0.4,1.2,38,0.75,,,,,,,,,,,,,,,,,,0,17,17,37,1,,,,,,,,,,,,,,,,,,,,,,,
,,,,,V3_034,18,Female,2024-10-23_16h23.36.927,jersey_experiment_5_v3,2023.2.2,Win32,85.47008547,,,,,,,,,,,,,,,,818.1908,819.7437,819.7437,820.7554,return,0.0944,,71.35416667,,,,,,FBP-OG-91.png,0.4,1.2,43,0.75,,,,,,,,,,,,,,,,,,0,18,18,42,1,,,,,,,,,,,,,,,,,,,,,,,
,,,,,V3_034,18,Female,2024-10-23_16h23.36.927,jersey_experiment_5_v3,2023.2.2,Win32,85.47008547,,,,,,,,,,,,,,,,820.7557,822.3084,822.3084,824.085,return,0.6956,,67.578125,,,,,,FBP-OG-91.png,0.37,1.2,42,0.75,,,,,,,,,,,,,,,,,,0,19,19,41,1,,,,,,,,,,,,,,,,,,,,,,,
,,,,,V3_034,18,Female,2024-10-23_16h23.36.927,jersey_experiment_5_v3,2023.2.2,Win32,85.47008547,,,,,,,,,,,,,,,,824.0852,825.6379,825.638,827.7321,return,1.1664,,65.75520833,,,,,,FBP-OG-81.png,0.37,1.2,37,0.75,,,,,,,,,,,,,,,,,,0,20,20,36,1,,,,,,,,,,,,,,,,,,,,,,,
,,,,,V3_034,18,Female,2024-10-23_16h23.36.927,jersey_experiment_5_v3,2023.2.2,Win32,85.47008547,,,,,,,,,,,,,,,,827.7324,829.0264,829.0265,832.0264,return,1.8044,,79.94791667,,,,,,FBP-PT-81.png,0.45,1.2,25,0.5,,,,,,,,,,,,,,,,,,0,21,21,24,1,,,,,,,,,,,,,,,,,,,,,,,
,,,,,V3_034,18,Female,2024-10-23_16h23.36.927,jersey_experiment_5_v3,2023.2.2,Win32,85.47008547,,,,,,,,,,,,,,,,832.0267,833.3205,833.3205,834.8031,return,0.1414,,78.77604167,,,,,,FBP-PT-91.png,0.4,1.2,28,0.5,,,,,,,,,,,,,,,,,,0,22,22,27,1,,,,,,,,,,,,,,,,,,,,,,,
,,,,,V3_034,18,Female,2024-10-23_16h23.36.927,jersey_experiment_5_v3,2023.2.2,Win32,85.47008547,,,,,,,,,,,,,,,,834.8034,836.0971,836.0971,839.0503,return,1.5261,,81.77083333,,,,,,FBP-YG-17.png,0.35,1.2,1,0.5,,,,,,,,,,,,,,,,,,0,23,23,0,1,,,,,,,,,,,,,,,,,,,,,,,
,,,,,V3_034,18,Female,2024-10-23_16h23.36.927,jersey_experiment_5_v3,2023.2.2,Win32,85.47008547,,,,,,,,,,,,,,,,839.0506,840.3444,840.3444,841.3091,return,0.1216,,93.359375,,,,,,FBP-RB-91.png,0.45,1.2,60,0.5,,,,,,,,,,,,,,,,,,0,24,24,59,1,,,,,,,,,,,,,,,,,,,,,,,
,,,,,V3_034,18,Female,2024-10-23_16h23.36.927,jersey_experiment_5_v3,2023.2.2,Win32,85.47008547,,,,,,,,,,,,,,,,841.3094,842.6033,842.6034,843.8503,return,0.0532,,74.34895833,,,,,,FBP-YG-17.png,0.37,1.2,2,0.5,,,,,,,,,,,,,,,,,,0,25,25,1,1,,,,,,,,,,,,,,,,,,,,,,,
,,,,,V3_034,18,Female,2024-10-23_16h23.36.927,jersey_experiment_5_v3,2023.2.2,Win32,85.47008547,,,,,,,,,,,,,,,,843.8505,845.1444,845.1445,845.7917,return,0.1547,,74.73958333,,,,,,FBP-PT-71.png,0.4,1.2,18,0.5,,,,,,,,,,,,,,,,,,0,26,26,17,1,,,,,,,,,,,,,,,,,,,,,,,
,,,,,V3_034,18,Female,2024-10-23_16h23.36.927,jersey_experiment_5_v3,2023.2.2,Win32,85.47008547,,,,,,,,,,,,,,,,845.7919,847.3447,847.3448,849.6153,return,0.509,,60.28645833,,,,,,FBP-OG-71.png,0.35,1.2,31,0.75,,,,,,,,,,,,,,,,,,0,27,27,30,1,,,,,,,,,,,,,,,,,,,,,,,
,,,,,V3_034,18,Female,2024-10-23_16h23.36.927,jersey_experiment_5_v3,2023.2.2,Win32,85.47008547,,,,,,,,,,,,,,,,849.6156,850.9094,850.9094,852.7565,return,0.1179,,76.69270833,,,,,,FBP-YG-18.png,0.43,1.2,9,0.5,,,,,,,,,,,,,,,,,,0,28,28,8,1,,,,,,,,,,,,,,,,,,,,,,,
,,,,,V3_034,18,Female,2024-10-23_16h23.36.927,jersey_experiment_5_v3,2023.2.2,Win32,85.47008547,,,,,,,,,,,,,,,,852.7568,854.0508,854.0509,856.3802,return,0.3124,,72.65625,,,,,,FBP-RB-91.png,0.4,1.2,58,0.5,,,,,,,,,,,,,,,,,,0,29,29,57,1,,,,,,,,,,,,,,,,,,,,,,,
,,,,,V3_034,18,Female,2024-10-23_16h23.36.927,jersey_experiment_5_v3,2023.2.2,Win32,85.47008547,,,,,,,,,,,,,,,,856.3807,857.6743,857.6744,859.1685,return,0.1314,,73.17708333,,,,,,FBP-PT-71.png,0.45,1.2,20,0.5,,,,,,,,,,,,,,,,,,0,30,30,19,1,,,,,,,,,,,,,,,,,,,,,,,
,,,,,V3_034,18,Female,2024-10-23_16h23.36.927,jersey_experiment_5_v3,2023.2.2,Win32,85.47008547,,,,,,,,,,,,,,,,859.1688,860.4628,860.4628,861.3569,return,0.1351,,85.41666667,,,,,,FBP-RB-71.png,0.45,1.2,50,0.5,,,,,,,,,,,,,,,,,,0,31,31,49,1,,,,,,,,,,,,,,,,,,,,,,,
,,,,,V3_034,18,Female,2024-10-23_16h23.36.927,jersey_experiment_5_v3,2023.2.2,Win32,85.47008547,,,,,,,,,,,,,,,,861.3571,862.651,862.6511,863.5335,return,0.2249,,84.765625,,,,,,FBP-YG-17.png,0.4,1.2,3,0.5,,,,,,,,,,,,,,,,,,0,32,32,2,1,,,,,,,,,,,,,,,,,,,,,,,
,,,,,V3_034,18,Female,2024-10-23_16h23.36.927,jersey_experiment_5_v3,2023.2.2,Win32,85.47008547,,,,,,,,,,,,,,,,863.5337,864.8277,864.8277,865.7571,return,0.1673,,86.19791667,,,,,,FBP-RB-81.png,0.43,1.2,54,0.5,,,,,,,,,,,,,,,,,,0,33,33,53,1,,,,,,,,,,,,,,,,,,,,,,,
,,,,,V3_034,18,Female,2024-10-23_16h23.36.927,jersey_experiment_5_v3,2023.2.2,Win32,85.47008547,,,,,,,,,,,,,,,,865.7574,867.0512,867.0512,868.9219,return,0.0644,,72.52604167,,,,,,FBP-PT-81.png,0.37,1.2,22,0.5,,,,,,,,,,,,,,,,,,0,34,34,21,1,,,,,,,,,,,,,,,,,,,,,,,
,,,,,V3_034,18,Female,2024-10-23_16h23.36.927,jersey_experiment_5_v3,2023.2.2,Win32,85.47008547,,,,,,,,,,,,,,,,868.9222,870.2161,870.2161,871.3455,return,0.1421,,86.71875,,,,,,FBP-PT-81.png,0.43,1.2,24,0.5,,,,,,,,,,,,,,,,,,0,35,35,23,1,,,,,,,,,,,,,,,,,,,,,,,
,,,,,V3_034,18,Female,2024-10-23_16h23.36.927,jersey_experiment_5_v3,2023.2.2,Win32,85.47008547,,,,,,,,,,,,,,,,871.3457,872.6397,872.6397,875.0985,return,0.2646,,80.46875,,,,,,FBP-PT-91.png,0.45,1.2,30,0.5,,,,,,,,,,,,,,,,,,0,36,36,29,1,,,,,,,,,,,,,,,,,,,,,,,
,,,,,V3_034,18,Female,2024-10-23_16h23.36.927,jersey_experiment_5_v3,2023.2.2,Win32,85.47008547,,,,,,,,,,,,,,,,875.0988,876.3926,876.3927,877.4283,return,0.1205,,90.234375,,,,,,FBP-YG-18.png,0.45,1.2,10,0.5,,,,,,,,,,,,,,,,,,0,37,37,9,1,,,,,,,,,,,,,,,,,,,,,,,
,,,,,V3_034,18,Female,2024-10-23_16h23.36.927,jersey_experiment_5_v3,2023.2.2,Win32,85.47008547,,,,,,,,,,,,,,,,877.4285,878.7222,878.7223,880.6753,return,0.7669,,82.16145833,,,,,,FBP-RB-71.png,0.37,1.2,47,0.5,,,,,,,,,,,,,,,,,,0,38,38,46,1,,,,,,,,,,,,,,,,,,,,,,,
,,,,,V3_034,18,Female,2024-10-23_16h23.36.927,jersey_experiment_5_v3,2023.2.2,Win32,85.47008547,,,,,,,,,,,,,,,,880.6756,881.9694,881.9694,882.6871,return,0.0973,,91.796875,,,,,,FBP-RB-71.png,0.43,1.2,49,0.5,,,,,,,,,,,,,,,,,,0,39,39,48,1,,,,,,,,,,,,,,,,,,,,,,,
,,,,,V3_034,18,Female,2024-10-23_16h23.36.927,jersey_experiment_5_v3,2023.2.2,Win32,85.47008547,,,,,,,,,,,,,,,,882.6875,883.9812,883.9813,885.4753,return,0.1309,,63.41145833,,,,,,FBP-PT-71.png,0.37,1.2,17,0.5,,,,,,,,,,,,,,,,,,0,40,40,16,1,,,,,,,,,,,,,,,,,,,,,,,
,,,,,V3_034,18,Female,2024-10-23_16h23.36.927,jersey_experiment_5_v3,2023.2.2,Win32,85.47008547,,,,,,,,,,,,,,,,885.4756,886.7696,886.7696,888.2284,return,0.4931,,77.86458333,,,,,,FBP-RB-81.png,0.45,1.2,55,0.5,,,,,,,,,,,,,,,,,,0,41,41,54,1,,,,,,,,,,,,,,,,,,,,,,,
,,,,,V3_034,18,Female,2024-10-23_16h23.36.927,jersey_experiment_5_v3,2023.2.2,Win32,85.47008547,,,,,,,,,,,,,,,,888.2287,889.5225,889.5225,890.2521,return,0.1126,,80.59895833,,,,,,FBP-YG-17.png,0.43,1.2,4,0.5,,,,,,,,,,,,,,,,,,0,42,42,3,1,,,,,,,,,,,,,,,,,,,,,,,
,,,,,V3_034,18,Female,2024-10-23_16h23.36.927,jersey_experiment_5_v3,2023.2.2,Win32,85.47008547,,,,,,,,,,,,,,,,890.2525,891.805,891.805,893.0403,return,0.0361,,71.875,,,,,,FBP-OG-91.png,0.43,1.2,44,0.75,,,,,,,,,,,,,,,,,,0,43,43,43,1,,,,,,,,,,,,,,,,,,,,,,,
,,,,,V3_034,18,Female,2024-10-23_16h23.36.927,jersey_experiment_5_v3,2023.2.2,Win32,85.47008547,,,,,,,,,,,,,,,,893.0405,894.5935,894.5935,895.5229,return,0.1179,,28.64583333,,,,,,FBP-OG-81.png,0.35,1.2,36,0.75,,,,,,,,,,,,,,,,,,0,44,44,35,1,,,,,,,,,,,,,,,,,,,,,,,
,,,,,V3_034,18,Female,2024-10-23_16h23.36.927,jersey_experiment_5_v3,2023.2.2,Win32,85.47008547,,,,,,,,,,,,,,,,895.5231,896.817,896.817,898.7348,return,0.0981,,67.44791667,,,,,,FBP-YG-18.png,0.4,1.2,8,0.5,,,,,,,,,,,,,,,,,,0,45,45,7,1,,,,,,,,,,,,,,,,,,,,,,,
,,,,,V3_034,18,Female,2024-10-23_16h23.36.927,jersey_experiment_5_v3,2023.2.2,Win32,85.47008547,,,,,,,,,,,,,,,,898.7349,900.0288,900.0289,901.0996,return,0.0973,,65.49479167,,,,,,FBP-PT-91.png,0.37,1.2,27,0.5,,,,,,,,,,,,,,,,,,0,46,46,26,1,,,,,,,,,,,,,,,,,,,,,,,
,,,,,V3_034,18,Female,2024-10-23_16h23.36.927,jersey_experiment_5_v3,2023.2.2,Win32,85.47008547,,,,,,,,,,,,,,,,901.0998,902.3935,902.3935,903.3467,return,0.2457,,80.078125,,,,,,FBP-RB-91.png,0.43,1.2,59,0.5,,,,,,,,,,,,,,,,,,0,47,47,58,1,,,,,,,,,,,,,,,,,,,,,,,
,,,,,V3_034,18,Female,2024-10-23_16h23.36.927,jersey_experiment_5_v3,2023.2.2,Win32,85.47008547,,,,,,,,,,,,,,,,903.3469,904.8997,904.8998,905.7701,return,0.1346,,50.13020833,,,,,,FBP-OG-91.png,0.35,1.2,41,0.75,,,,,,,,,,,,,,,,,,0,48,48,40,1,,,,,,,,,,,,,,,,,,,,,,,
,,,,,V3_034,18,Female,2024-10-23_16h23.36.927,jersey_experiment_5_v3,2023.2.2,Win32,85.47008547,,,,,,,,,,,,,,,,905.7704,907.0644,907.0644,908.2527,return,0.041,,30.98958333,,,,,,FBP-PT-71.png,0.35,1.2,16,0.5,,,,,,,,,,,,,,,,,,0,49,49,15,1,,,,,,,,,,,,,,,,,,,,,,,
,,,,,V3_034,18,Female,2024-10-23_16h23.36.927,jersey_experiment_5_v3,2023.2.2,Win32,85.47008547,,,,,,,,,,,,,,,,908.2529,909.5468,909.5468,910.2765,return,0.0965,,30.98958333,,,,,,FBP-RB-71.png,0.4,1.2,48,0.5,,,,,,,,,,,,,,,,,,0,50,50,47,1,,,,,,,,,,,,,,,,,,,,,,,
,,,,,V3_034,18,Female,2024-10-23_16h23.36.927,jersey_experiment_5_v3,2023.2.2,Win32,85.47008547,,,,,,,,,,,,,,,,910.2768,911.5704,911.5704,912.5235,return,0.0867,,20.44270833,,,,,,FBP-PT-81.png,0.35,1.2,21,0.5,,,,,,,,,,,,,,,,,,0,51,51,20,1,,,,,,,,,,,,,,,,,,,,,,,
,,,,,V3_034,18,Female,2024-10-23_16h23.36.927,jersey_experiment_5_v3,2023.2.2,Win32,85.47008547,,,,,,,,,,,,,,,,912.5237,913.8176,913.8176,914.6058,return,0.0738,,32.16145833,,,,,,FBP-PT-91.png,0.35,1.2,26,0.5,,,,,,,,,,,,,,,,,,0,52,52,25,1,,,,,,,,,,,,,,,,,,,,,,,
,,,,,V3_034,18,Female,2024-10-23_16h23.36.927,jersey_experiment_5_v3,2023.2.2,Win32,85.47008547,,,,,,,,,,,,,,,,914.606,916.1473,916.1473,916.7471,return,0.0982,,29.42708333,,,,,,FBP-OG-71.png,0.4,1.2,33,0.75,,,,,,,,,,,,,,,,,,0,53,53,32,1,,,,,,,,,,,,,,,,,,,,,,,
,,,,,V3_034,18,Female,2024-10-23_16h23.36.927,jersey_experiment_5_v3,2023.2.2,Win32,85.47008547,,,,,,,,,,,,,,,,916.7473,918.0413,918.0414,919.7706,return,0.0783,,62.36979167,,,,,,FBP-PT-91.png,0.43,1.2,29,0.5,,,,,,,,,,,,,,,,,,0,54,54,28,1,,,,,,,,,,,,,,,,,,,,,,,
,,,,,V3_034,18,Female,2024-10-23_16h23.36.927,jersey_experiment_5_v3,2023.2.2,Win32,85.47008547,,,,,,,,,,,,,,,,919.7709,921.0649,921.0649,922.3826,return,0.0613,,32.29166667,,,,,,FBP-RB-71.png,0.35,1.2,46,0.5,,,,,,,,,,,,,,,,,,0,55,55,45,1,,,,,,,,,,,,,,,,,,,,,,,
,,,,,V3_034,18,Female,2024-10-23_16h23.36.927,jersey_experiment_5_v3,2023.2.2,Win32,85.47008547,,,,,,,,,,,,,,,,922.3828,923.6768,923.6769,925.3945,return,0.8707,,43.359375,,,,,,FBP-YG-19.png,0.4,1.2,13,0.5,,,,,,,,,,,,,,,,,,0,56,56,12,1,,,,,,,,,,,,,,,,,,,,,,,
,,,,,V3_034,18,Female,2024-10-23_16h23.36.927,jersey_experiment_5_v3,2023.2.2,Win32,85.47008547,,,,,,,,,,,,,,,,925.3947,926.6887,926.6887,928.3356,return,0.6487,,17.44791667,,,,,,FBP-RB-91.png,0.35,1.2,56,0.5,,,,,,,,,,,,,,,,,,0,57,57,55,1,,,,,,,,,,,,,,,,,,,,,,,
,,,,,V3_034,18,Female,2024-10-23_16h23.36.927,jersey_experiment_5_v3,2023.2.2,Win32,85.47008547,,,,,,,,,,,,,,,,928.3359,929.8888,929.8888,931.9476,return,0.1207,,28.90625,,,,,,FBP-OG-71.png,0.37,1.2,32,0.75,,,,,,,,,,,,,,,,,,0,58,58,31,1,,,,,,,,,,,,,,,,,,,,,,,
,,,,,V3_034,18,Female,2024-10-23_16h23.36.927,jersey_experiment_5_v3,2023.2.2,Win32,85.47008547,,,,,,,,,,,,,,,,931.9479,933.2418,933.2418,934.7245,return,0.0949,,49.609375,,,,,,FBP-RB-81.png,0.4,1.2,53,0.5,,,,,,,,,,,,,,,,,,0,59,59,52,1,,,,,,,,,,,,,,,,,,,,,,,
,,,,,V3_034,18,Female,2024-10-23_16h23.36.927,jersey_experiment_5_v3,2023.2.2,Win32,85.47008547,,,,,,,,,,,,,,,,,,,,,,,,,,,,,,,,,,,,,,,,,,,,,,,,,,,,,,,,934.7248,942.7012,return,7.969,,,,,,,,,,,,,,,,,,,
,,,,,V3_034,18,Female,2024-10-23_16h23.36.927,jersey_experiment_5_v3,2023.2.2,Win32,85.47008547,,,,,,,,,,,,,,,,,,,,,,,,,,,,,,,,,,,,,,,,,,,,,,,,,,,,,,,,,,,,,942.7013,947.678,1,3.7399,return,1.2274,,,,,,,,,,,,
,,,,,V3_034,18,Female,2024-10-23_16h23.36.927,jersey_experiment_5_v3,2023.2.2,Win32,85.47008547,,,,,,,,,,,,,,,,,,,,,,,,,,,,,,,,,,,,,,,,,,,,,,,,,,,,,,,,,,,,,,,,,,,,947.6781,1033.4347,"it seemed like there were times where the players were consequently the same size but the race and color of the jersey changed. also, the size of the players just spatially on the screen were different (not body size but overall size of image). They tended to come in patterns and I thought there was more husky football players than slender.",right,83.0108,,,,,,
,,,,,V3_034,18,Female,2024-10-23_16h23.36.927,jersey_experiment_5_v3,2023.2.2,Win32,85.47008547,,,,,,,,,,,,,,,,,,,,,,,,,,,,,,,,,,,,,,,,,,,,,,,,,,,,,,,,,,,,,,,,,,,,,,,,,,1033.4348,1036.634,return,3.1948,