requirements.started,requirements.stopped,key_resp_3.keys,key_resp_3.rt,key_resp_3.duration,Subject ID,Age,Gender,date,expName,psychopyVersion,OS,frameRate,instructions1.started,instructions1.stopped,key_resp.keys,key_resp.rt,key_resp.duration,example.started,example.stopped,enter_2.keys,enter_2.rt,enter_2.duration,instructions2.started,instructions2.stopped,enter_3.keys,enter_3.rt,enter_3.duration,image.started,image.stopped,slider_2.started,slider_2.stopped,next.keys,next.rt,next.duration,slider.response,trial_block_1.thisRepN,trial_block_1.thisTrialN,trial_block_1.thisN,trial_block_1.thisIndex,trial_block_1.ran,Path,Width,Height,Index,Duration,trial_block_2.thisRepN,trial_block_2.thisTrialN,trial_block_2.thisN,trial_block_2.thisIndex,trial_block_2.ran,rest_break.started,rest_break.stopped,end_break.started,end_break.stopped,key_resp_5.keys,key_resp_5.rt,key_resp_5.duration,trial_block_3.thisRepN,trial_block_3.thisTrialN,trial_block_3.thisN,trial_block_3.thisIndex,trial_block_3.ran,trial_block_4.thisRepN,trial_block_4.thisTrialN,trial_block_4.thisN,trial_block_4.thisIndex,trial_block_4.ran,questions_intro.started,questions_intro.stopped,enter_12.keys,enter_12.rt,enter_12.duration,question2.started,question2.stopped,question_doingbest.response,question_doingbest.rt,enter_15.keys,enter_15.rt,enter_15.duration,pattern.started,pattern.stopped,pattern_2.text,enter_17.keys,enter_17.rt,enter_17.duration,thankyou.started,thankyou.stopped,enter_14.keys,enter_14.rt,enter_14.duration
0,10.4996,return,10.4936,,V3_060,21,female,2024-11-09_17h38.07.110,jersey_experiment_5_v3,2023.2.2,Win32,84.74576271,,,,,,,,,,,,,,,,,,,,,,,,,,,,,,,,,,,,,,,,,,,,,,,,,,,,,,,,,,,,,,,,,,,,,,,,,,,,,,
,,,,,V3_060,21,female,2024-11-09_17h38.07.110,jersey_experiment_5_v3,2023.2.2,Win32,84.74576271,10.4997,24.1643,return,13.6526,,,,,,,,,,,,,,,,,,,,,,,,,,,,,,,,,,,,,,,,,,,,,,,,,,,,,,,,,,,,,,,,,,,,,,,,,,
,,,,,V3_060,21,female,2024-11-09_17h38.07.110,jersey_experiment_5_v3,2023.2.2,Win32,84.74576271,,,,,,24.1643,28.235,return,4.0294,,,,,,,,,,,,,,,,,,,,,,,,,,,,,,,,,,,,,,,,,,,,,,,,,,,,,,,,,,,,,,,,,,,,,
,,,,,V3_060,21,female,2024-11-09_17h38.07.110,jersey_experiment_5_v3,2023.2.2,Win32,84.74576271,,,,,,,,,,,28.2351,48.8828,return,20.6405,,,,,,,,,,,,,,,,,,,,,,,,,,,,,,,,,,,,,,,,,,,,,,,,,,,,,,,,,,,,,,,,
,,,,,V3_060,21,female,2024-11-09_17h38.07.110,jersey_experiment_5_v3,2023.2.2,Win32,84.74576271,,,,,,,,,,,,,,,,48.8844,50.177,50.1771,65.0248,return,5.9116,,50.26041667,0,0,0,33,1,FBP-OG-17.png,0.43,1.2,34,0.5,,,,,,,,,,,,,,,,,,,,,,,,,,,,,,,,,,,,,,,,,,,,,
,,,,,V3_060,21,female,2024-11-09_17h38.07.110,jersey_experiment_5_v3,2023.2.2,Win32,84.74576271,,,,,,,,,,,,,,,,65.025,66.5775,66.5776,71.9425,return,1.2619,,58.203125,0,1,1,7,1,FBP-YG-81.png,0.4,1.2,8,0.75,,,,,,,,,,,,,,,,,,,,,,,,,,,,,,,,,,,,,,,,,,,,,
,,,,,V3_060,21,female,2024-11-09_17h38.07.110,jersey_experiment_5_v3,2023.2.2,Win32,84.74576271,,,,,,,,,,,,,,,,71.9428,73.4955,73.4955,77.8133,return,2.3895,,32.16145833,0,2,2,21,1,FBP-PT-18.png,0.37,1.2,22,0.75,,,,,,,,,,,,,,,,,,,,,,,,,,,,,,,,,,,,,,,,,,,,,
,,,,,V3_060,21,female,2024-11-09_17h38.07.110,jersey_experiment_5_v3,2023.2.2,Win32,84.74576271,,,,,,,,,,,,,,,,77.8136,79.3661,79.3662,81.6252,return,0.8711,,67.70833333,0,3,3,56,1,FBP-RB-19.png,0.37,1.2,57,0.75,,,,,,,,,,,,,,,,,,,,,,,,,,,,,,,,,,,,,,,,,,,,,
,,,,,V3_060,21,female,2024-11-09_17h38.07.110,jersey_experiment_5_v3,2023.2.2,Win32,84.74576271,,,,,,,,,,,,,,,,81.6254,83.1782,83.1783,85.9431,return,0.7783,,97.65625,0,4,4,24,1,FBP-PT-18.png,0.45,1.2,25,0.75,,,,,,,,,,,,,,,,,,,,,,,,,,,,,,,,,,,,,,,,,,,,,
,,,,,V3_060,21,female,2024-11-09_17h38.07.110,jersey_experiment_5_v3,2023.2.2,Win32,84.74576271,,,,,,,,,,,,,,,,85.9433,87.4959,87.496,89.3314,return,0.4757,,21.484375,0,5,5,55,1,FBP-RB-19.png,0.35,1.2,56,0.75,,,,,,,,,,,,,,,,,,,,,,,,,,,,,,,,,,,,,,,,,,,,,
,,,,,V3_060,21,female,2024-11-09_17h38.07.110,jersey_experiment_5_v3,2023.2.2,Win32,84.74576271,,,,,,,,,,,,,,,,89.3316,90.8842,90.8842,92.8256,return,0.8338,,28.125,0,6,6,1,1,FBP-YG-71.png,0.37,1.2,2,0.75,,,,,,,,,,,,,,,,,,,,,,,,,,,,,,,,,,,,,,,,,,,,,
,,,,,V3_060,21,female,2024-11-09_17h38.07.110,jersey_experiment_5_v3,2023.2.2,Win32,84.74576271,,,,,,,,,,,,,,,,92.8259,94.3786,94.3786,96.2728,return,0.8206,,35.9375,0,7,7,2,1,FBP-YG-71.png,0.4,1.2,3,0.75,,,,,,,,,,,,,,,,,,,,,,,,,,,,,,,,,,,,,,,,,,,,,
,,,,,V3_060,21,female,2024-11-09_17h38.07.110,jersey_experiment_5_v3,2023.2.2,Win32,84.74576271,,,,,,,,,,,,,,,,96.2731,97.8257,97.8257,100.2964,return,1.1454,,75.65104167,0,8,8,49,1,FBP-RB-17.png,0.45,1.2,50,0.75,,,,,,,,,,,,,,,,,,,,,,,,,,,,,,,,,,,,,,,,,,,,,
,,,,,V3_060,21,female,2024-11-09_17h38.07.110,jersey_experiment_5_v3,2023.2.2,Win32,84.74576271,,,,,,,,,,,,,,,,100.2966,101.5906,101.5907,104.3084,return,0.8289,,29.81770833,0,9,9,35,1,FBP-OG-18.png,0.35,1.2,36,0.5,,,,,,,,,,,,,,,,,,,,,,,,,,,,,,,,,,,,,,,,,,,,,
,,,,,V3_060,21,female,2024-11-09_17h38.07.110,jersey_experiment_5_v3,2023.2.2,Win32,84.74576271,,,,,,,,,,,,,,,,104.3087,105.8613,105.8614,108.5321,return,1.3929,,93.48958333,0,10,10,53,1,FBP-RB-18.png,0.43,1.2,54,0.75,,,,,,,,,,,,,,,,,,,,,,,,,,,,,,,,,,,,,,,,,,,,,
,,,,,V3_060,21,female,2024-11-09_17h38.07.110,jersey_experiment_5_v3,2023.2.2,Win32,84.74576271,,,,,,,,,,,,,,,,108.5323,110.085,110.0851,113.0733,return,0.5375,,42.1875,0,11,11,20,1,FBP-PT-18.png,0.35,1.2,21,0.75,,,,,,,,,,,,,,,,,,,,,,,,,,,,,,,,,,,,,,,,,,,,,
,,,,,V3_060,21,female,2024-11-09_17h38.07.110,jersey_experiment_5_v3,2023.2.2,Win32,84.74576271,,,,,,,,,,,,,,,,113.0736,114.6263,114.6263,116.0853,return,0.5196,,98.828125,0,12,12,19,1,FBP-PT-17.png,0.45,1.2,20,0.75,,,,,,,,,,,,,,,,,,,,,,,,,,,,,,,,,,,,,,,,,,,,,
,,,,,V3_060,21,female,2024-11-09_17h38.07.110,jersey_experiment_5_v3,2023.2.2,Win32,84.74576271,,,,,,,,,,,,,,,,116.0855,117.6382,117.6383,119.5795,return,0.5974,,40.625,0,13,13,10,1,FBP-YG-91.png,0.35,1.2,11,0.75,,,,,,,,,,,,,,,,,,,,,,,,,,,,,,,,,,,,,,,,,,,,,
,,,,,V3_060,21,female,2024-11-09_17h38.07.110,jersey_experiment_5_v3,2023.2.2,Win32,84.74576271,,,,,,,,,,,,,,,,119.5798,120.8737,120.8737,122.4502,return,0.5107,,42.31770833,0,14,14,36,1,FBP-OG-18.png,0.37,1.2,37,0.5,,,,,,,,,,,,,,,,,,,,,,,,,,,,,,,,,,,,,,,,,,,,,
,,,,,V3_060,21,female,2024-11-09_17h38.07.110,jersey_experiment_5_v3,2023.2.2,Win32,84.74576271,,,,,,,,,,,,,,,,122.4505,124.0032,124.0032,125.768,return,0.5664,,88.80208333,0,15,15,58,1,FBP-RB-19.png,0.43,1.2,59,0.75,,,,,,,,,,,,,,,,,,,,,,,,,,,,,,,,,,,,,,,,,,,,,
,,,,,V3_060,21,female,2024-11-09_17h38.07.110,jersey_experiment_5_v3,2023.2.2,Win32,84.74576271,,,,,,,,,,,,,,,,125.7682,127.321,127.3211,129.6034,return,0.1943,,52.47395833,0,16,16,25,1,FBP-PT-19.png,0.35,1.2,26,0.75,,,,,,,,,,,,,,,,,,,,,,,,,,,,,,,,,,,,,,,,,,,,,
,,,,,V3_060,21,female,2024-11-09_17h38.07.110,jersey_experiment_5_v3,2023.2.2,Win32,84.74576271,,,,,,,,,,,,,,,,129.6036,131.1565,131.1565,132.6624,return,0.2468,,94.921875,0,17,17,9,1,FBP-YG-81.png,0.45,1.2,10,0.75,,,,,,,,,,,,,,,,,,,,,,,,,,,,,,,,,,,,,,,,,,,,,
,,,,,V3_060,21,female,2024-11-09_17h38.07.110,jersey_experiment_5_v3,2023.2.2,Win32,84.74576271,,,,,,,,,,,,,,,,132.6625,134.2153,134.2154,135.9919,return,0.7666,,43.61979167,0,18,18,51,1,FBP-RB-18.png,0.37,1.2,52,0.75,,,,,,,,,,,,,,,,,,,,,,,,,,,,,,,,,,,,,,,,,,,,,
,,,,,V3_060,21,female,2024-11-09_17h38.07.110,jersey_experiment_5_v3,2023.2.2,Win32,84.74576271,,,,,,,,,,,,,,,,135.9922,137.5451,137.5451,138.7096,return,0.2946,,45.18229167,0,19,19,6,1,FBP-YG-81.png,0.37,1.2,7,0.75,,,,,,,,,,,,,,,,,,,,,,,,,,,,,,,,,,,,,,,,,,,,,
,,,,,V3_060,21,female,2024-11-09_17h38.07.110,jersey_experiment_5_v3,2023.2.2,Win32,84.74576271,,,,,,,,,,,,,,,,138.7098,140.2626,140.2627,143.5099,return,0.5551,,47.39583333,0,20,20,17,1,FBP-PT-17.png,0.4,1.2,18,0.75,,,,,,,,,,,,,,,,,,,,,,,,,,,,,,,,,,,,,,,,,,,,,
,,,,,V3_060,21,female,2024-11-09_17h38.07.110,jersey_experiment_5_v3,2023.2.2,Win32,84.74576271,,,,,,,,,,,,,,,,143.5101,144.804,144.804,146.0277,return,0.1648,,50.78125,0,21,21,37,1,FBP-OG-18.png,0.4,1.2,38,0.5,,,,,,,,,,,,,,,,,,,,,,,,,,,,,,,,,,,,,,,,,,,,,
,,,,,V3_060,21,female,2024-11-09_17h38.07.110,jersey_experiment_5_v3,2023.2.2,Win32,84.74576271,,,,,,,,,,,,,,,,146.028,147.5804,147.5804,149.4748,return,0.2881,,74.73958333,0,22,22,59,1,FBP-RB-19.png,0.45,1.2,60,0.75,,,,,,,,,,,,,,,,,,,,,,,,,,,,,,,,,,,,,,,,,,,,,
,,,,,V3_060,21,female,2024-11-09_17h38.07.110,jersey_experiment_5_v3,2023.2.2,Win32,84.74576271,,,,,,,,,,,,,,,,149.475,151.0278,151.0278,152.1807,return,0.0973,,46.61458333,0,23,23,15,1,FBP-PT-17.png,0.35,1.2,16,0.75,,,,,,,,,,,,,,,,,,,,,,,,,,,,,,,,,,,,,,,,,,,,,
,,,,,V3_060,21,female,2024-11-09_17h38.07.110,jersey_experiment_5_v3,2023.2.2,Win32,84.74576271,,,,,,,,,,,,,,,,152.1808,153.7336,153.7337,154.7927,return,0.1331,,39.71354167,0,24,24,11,1,FBP-YG-91.png,0.37,1.2,12,0.75,,,,,,,,,,,,,,,,,,,,,,,,,,,,,,,,,,,,,,,,,,,,,
,,,,,V3_060,21,female,2024-11-09_17h38.07.110,jersey_experiment_5_v3,2023.2.2,Win32,84.74576271,,,,,,,,,,,,,,,,154.793,156.0868,156.0868,157.0751,return,0.2386,,40.75520833,0,25,25,41,1,FBP-OG-19.png,0.37,1.2,42,0.5,,,,,,,,,,,,,,,,,,,,,,,,,,,,,,,,,,,,,,,,,,,,,
,,,,,V3_060,21,female,2024-11-09_17h38.07.110,jersey_experiment_5_v3,2023.2.2,Win32,84.74576271,,,,,,,,,,,,,,,,157.0753,158.3693,158.3693,159.734,return,0.2121,,95.44270833,0,26,26,34,1,FBP-OG-17.png,0.45,1.2,35,0.5,,,,,,,,,,,,,,,,,,,,,,,,,,,,,,,,,,,,,,,,,,,,,
,,,,,V3_060,21,female,2024-11-09_17h38.07.110,jersey_experiment_5_v3,2023.2.2,Win32,84.74576271,,,,,,,,,,,,,,,,159.7342,161.2872,161.2873,162.7458,return,0.2959,,84.50520833,0,27,27,47,1,FBP-RB-17.png,0.4,1.2,48,0.75,,,,,,,,,,,,,,,,,,,,,,,,,,,,,,,,,,,,,,,,,,,,,
,,,,,V3_060,21,female,2024-11-09_17h38.07.110,jersey_experiment_5_v3,2023.2.2,Win32,84.74576271,,,,,,,,,,,,,,,,162.7462,164.2988,164.2988,165.4754,return,0.217,,90.10416667,0,28,28,18,1,FBP-PT-17.png,0.43,1.2,19,0.75,,,,,,,,,,,,,,,,,,,,,,,,,,,,,,,,,,,,,,,,,,,,,
,,,,,V3_060,21,female,2024-11-09_17h38.07.110,jersey_experiment_5_v3,2023.2.2,Win32,84.74576271,,,,,,,,,,,,,,,,165.4756,166.7696,166.7696,169.4167,return,0.2691,,94.53125,0,29,29,39,1,FBP-OG-18.png,0.45,1.2,40,0.5,,,,,,,,,,,,,,,,,,,,,,,,,,,,,,,,,,,,,,,,,,,,,
,,,,,V3_060,21,female,2024-11-09_17h38.07.110,jersey_experiment_5_v3,2023.2.2,Win32,84.74576271,,,,,,,,,,,,,,,,169.4171,170.9696,170.9697,171.8639,return,0.2921,,94.79166667,0,30,30,14,1,FBP-YG-91.png,0.45,1.2,15,0.75,,,,,,,,,,,,,,,,,,,,,,,,,,,,,,,,,,,,,,,,,,,,,
,,,,,V3_060,21,female,2024-11-09_17h38.07.110,jersey_experiment_5_v3,2023.2.2,Win32,84.74576271,,,,,,,,,,,,,,,,171.8641,173.4168,173.4169,174.9816,return,0.2509,,46.74479167,0,31,31,45,1,FBP-RB-17.png,0.35,1.2,46,0.75,,,,,,,,,,,,,,,,,,,,,,,,,,,,,,,,,,,,,,,,,,,,,
,,,,,V3_060,21,female,2024-11-09_17h38.07.110,jersey_experiment_5_v3,2023.2.2,Win32,84.74576271,,,,,,,,,,,,,,,,174.9818,176.5346,176.5347,177.2758,return,0.0943,,41.53645833,0,32,32,0,1,FBP-YG-71.png,0.35,1.2,1,0.75,,,,,,,,,,,,,,,,,,,,,,,,,,,,,,,,,,,,,,,,,,,,,
,,,,,V3_060,21,female,2024-11-09_17h38.07.110,jersey_experiment_5_v3,2023.2.2,Win32,84.74576271,,,,,,,,,,,,,,,,177.276,178.8289,178.829,179.6523,return,0.1935,,62.23958333,0,33,33,27,1,FBP-PT-19.png,0.4,1.2,28,0.75,,,,,,,,,,,,,,,,,,,,,,,,,,,,,,,,,,,,,,,,,,,,,
,,,,,V3_060,21,female,2024-11-09_17h38.07.110,jersey_experiment_5_v3,2023.2.2,Win32,84.74576271,,,,,,,,,,,,,,,,179.6527,180.9465,180.9465,181.8289,return,0.1663,,60.15625,0,34,34,42,1,FBP-OG-19.png,0.4,1.2,43,0.5,,,,,,,,,,,,,,,,,,,,,,,,,,,,,,,,,,,,,,,,,,,,,
,,,,,V3_060,21,female,2024-11-09_17h38.07.110,jersey_experiment_5_v3,2023.2.2,Win32,84.74576271,,,,,,,,,,,,,,,,181.829,183.382,183.3821,186.9233,return,0.2699,,79.16666667,0,35,35,52,1,FBP-RB-18.png,0.4,1.2,53,0.75,,,,,,,,,,,,,,,,,,,,,,,,,,,,,,,,,,,,,,,,,,,,,
,,,,,V3_060,21,female,2024-11-09_17h38.07.110,jersey_experiment_5_v3,2023.2.2,Win32,84.74576271,,,,,,,,,,,,,,,,186.9235,188.4762,188.4762,189.5705,return,0.207,,89.97395833,0,36,36,28,1,FBP-PT-19.png,0.43,1.2,29,0.75,,,,,,,,,,,,,,,,,,,,,,,,,,,,,,,,,,,,,,,,,,,,,
,,,,,V3_060,21,female,2024-11-09_17h38.07.110,jersey_experiment_5_v3,2023.2.2,Win32,84.74576271,,,,,,,,,,,,,,,,189.5707,190.8646,190.8646,192.1705,return,0.128,,46.875,0,37,37,40,1,FBP-OG-19.png,0.35,1.2,41,0.5,,,,,,,,,,,,,,,,,,,,,,,,,,,,,,,,,,,,,,,,,,,,,
,,,,,V3_060,21,female,2024-11-09_17h38.07.110,jersey_experiment_5_v3,2023.2.2,Win32,84.74576271,,,,,,,,,,,,,,,,192.1707,193.4646,193.4647,194.6647,return,0.1753,,68.61979167,0,38,38,38,1,FBP-OG-18.png,0.43,1.2,39,0.5,,,,,,,,,,,,,,,,,,,,,,,,,,,,,,,,,,,,,,,,,,,,,
,,,,,V3_060,21,female,2024-11-09_17h38.07.110,jersey_experiment_5_v3,2023.2.2,Win32,84.74576271,,,,,,,,,,,,,,,,194.6649,196.2177,196.2177,197.8295,return,0.1178,,72.91666667,0,39,39,22,1,FBP-PT-18.png,0.4,1.2,23,0.75,,,,,,,,,,,,,,,,,,,,,,,,,,,,,,,,,,,,,,,,,,,,,
,,,,,V3_060,21,female,2024-11-09_17h38.07.110,jersey_experiment_5_v3,2023.2.2,Win32,84.74576271,,,,,,,,,,,,,,,,197.8298,199.1238,199.1238,201.2648,return,0.2421,,48.046875,0,40,40,30,1,FBP-OG-17.png,0.35,1.2,31,0.5,,,,,,,,,,,,,,,,,,,,,,,,,,,,,,,,,,,,,,,,,,,,,
,,,,,V3_060,21,female,2024-11-09_17h38.07.110,jersey_experiment_5_v3,2023.2.2,Win32,84.74576271,,,,,,,,,,,,,,,,201.2652,202.818,202.818,203.7944,return,0.148,,54.296875,0,41,41,57,1,FBP-RB-19.png,0.4,1.2,58,0.75,,,,,,,,,,,,,,,,,,,,,,,,,,,,,,,,,,,,,,,,,,,,,
,,,,,V3_060,21,female,2024-11-09_17h38.07.110,jersey_experiment_5_v3,2023.2.2,Win32,84.74576271,,,,,,,,,,,,,,,,203.7946,205.3475,205.3475,206.1474,return,0.1238,,48.17708333,0,42,42,26,1,FBP-PT-19.png,0.37,1.2,27,0.75,,,,,,,,,,,,,,,,,,,,,,,,,,,,,,,,,,,,,,,,,,,,,
,,,,,V3_060,21,female,2024-11-09_17h38.07.110,jersey_experiment_5_v3,2023.2.2,Win32,84.74576271,,,,,,,,,,,,,,,,206.1476,207.4419,207.442,208.4888,return,0.0967,,73.95833333,0,43,43,43,1,FBP-OG-19.png,0.43,1.2,44,0.5,,,,,,,,,,,,,,,,,,,,,,,,,,,,,,,,,,,,,,,,,,,,,
,,,,,V3_060,21,female,2024-11-09_17h38.07.110,jersey_experiment_5_v3,2023.2.2,Win32,84.74576271,,,,,,,,,,,,,,,,208.489,210.0418,210.0419,211.2889,return,0.1336,,50.91145833,0,44,44,5,1,FBP-YG-81.png,0.35,1.2,6,0.75,,,,,,,,,,,,,,,,,,,,,,,,,,,,,,,,,,,,,,,,,,,,,
,,,,,V3_060,21,female,2024-11-09_17h38.07.110,jersey_experiment_5_v3,2023.2.2,Win32,84.74576271,,,,,,,,,,,,,,,,211.2891,212.583,212.583,214.0539,return,0.1081,,99.47916667,0,45,45,44,1,FBP-OG-19.png,0.45,1.2,45,0.5,,,,,,,,,,,,,,,,,,,,,,,,,,,,,,,,,,,,,,,,,,,,,
,,,,,V3_060,21,female,2024-11-09_17h38.07.110,jersey_experiment_5_v3,2023.2.2,Win32,84.74576271,,,,,,,,,,,,,,,,214.0542,215.6067,215.6068,216.6654,return,0.2116,,97.265625,0,46,46,13,1,FBP-YG-91.png,0.43,1.2,14,0.75,,,,,,,,,,,,,,,,,,,,,,,,,,,,,,,,,,,,,,,,,,,,,
,,,,,V3_060,21,female,2024-11-09_17h38.07.110,jersey_experiment_5_v3,2023.2.2,Win32,84.74576271,,,,,,,,,,,,,,,,216.6657,218.2185,218.2185,219.2657,return,0.0903,,75.78125,0,47,47,16,1,FBP-PT-17.png,0.37,1.2,17,0.75,,,,,,,,,,,,,,,,,,,,,,,,,,,,,,,,,,,,,,,,,,,,,
,,,,,V3_060,21,female,2024-11-09_17h38.07.110,jersey_experiment_5_v3,2023.2.2,Win32,84.74576271,,,,,,,,,,,,,,,,219.2659,220.8075,220.8075,221.4305,return,0.1571,,75.78125,0,48,48,23,1,FBP-PT-18.png,0.43,1.2,24,0.75,,,,,,,,,,,,,,,,,,,,,,,,,,,,,,,,,,,,,,,,,,,,,
,,,,,V3_060,21,female,2024-11-09_17h38.07.110,jersey_experiment_5_v3,2023.2.2,Win32,84.74576271,,,,,,,,,,,,,,,,221.4307,222.7246,222.7246,224.1127,return,0.2321,,70.18229167,0,49,49,32,1,FBP-OG-17.png,0.4,1.2,33,0.5,,,,,,,,,,,,,,,,,,,,,,,,,,,,,,,,,,,,,,,,,,,,,
,,,,,V3_060,21,female,2024-11-09_17h38.07.110,jersey_experiment_5_v3,2023.2.2,Win32,84.74576271,,,,,,,,,,,,,,,,224.1131,225.4071,225.4071,226.8896,return,0.4158,,64.71354167,0,50,50,31,1,FBP-OG-17.png,0.37,1.2,32,0.5,,,,,,,,,,,,,,,,,,,,,,,,,,,,,,,,,,,,,,,,,,,,,
,,,,,V3_060,21,female,2024-11-09_17h38.07.110,jersey_experiment_5_v3,2023.2.2,Win32,84.74576271,,,,,,,,,,,,,,,,226.8898,228.4425,228.4425,229.4425,return,0.0773,,72.78645833,0,51,51,46,1,FBP-RB-17.png,0.37,1.2,47,0.75,,,,,,,,,,,,,,,,,,,,,,,,,,,,,,,,,,,,,,,,,,,,,
,,,,,V3_060,21,female,2024-11-09_17h38.07.110,jersey_experiment_5_v3,2023.2.2,Win32,84.74576271,,,,,,,,,,,,,,,,229.4427,230.9957,230.9958,232.8072,return,0.7551,,99.21875,0,52,52,4,1,FBP-YG-71.png,0.45,1.2,5,0.75,,,,,,,,,,,,,,,,,,,,,,,,,,,,,,,,,,,,,,,,,,,,,
,,,,,V3_060,21,female,2024-11-09_17h38.07.110,jersey_experiment_5_v3,2023.2.2,Win32,84.74576271,,,,,,,,,,,,,,,,232.8074,234.3603,234.3603,235.5604,return,0.1297,,91.66666667,0,53,53,8,1,FBP-YG-81.png,0.43,1.2,9,0.75,,,,,,,,,,,,,,,,,,,,,,,,,,,,,,,,,,,,,,,,,,,,,
,,,,,V3_060,21,female,2024-11-09_17h38.07.110,jersey_experiment_5_v3,2023.2.2,Win32,84.74576271,,,,,,,,,,,,,,,,235.5606,237.1134,237.1134,237.8898,return,0.1489,,97.00520833,0,54,54,54,1,FBP-RB-18.png,0.45,1.2,55,0.75,,,,,,,,,,,,,,,,,,,,,,,,,,,,,,,,,,,,,,,,,,,,,
,,,,,V3_060,21,female,2024-11-09_17h38.07.110,jersey_experiment_5_v3,2023.2.2,Win32,84.74576271,,,,,,,,,,,,,,,,237.8899,239.4313,239.4313,240.2663,return,0.2354,,93.22916667,0,55,55,29,1,FBP-PT-19.png,0.45,1.2,30,0.75,,,,,,,,,,,,,,,,,,,,,,,,,,,,,,,,,,,,,,,,,,,,,
,,,,,V3_060,21,female,2024-11-09_17h38.07.110,jersey_experiment_5_v3,2023.2.2,Win32,84.74576271,,,,,,,,,,,,,,,,240.2665,241.8193,241.8193,243.4312,return,0.1096,,76.171875,0,56,56,50,1,FBP-RB-18.png,0.35,1.2,51,0.75,,,,,,,,,,,,,,,,,,,,,,,,,,,,,,,,,,,,,,,,,,,,,
,,,,,V3_060,21,female,2024-11-09_17h38.07.110,jersey_experiment_5_v3,2023.2.2,Win32,84.74576271,,,,,,,,,,,,,,,,243.4315,244.9843,244.9843,245.8195,return,0.103,,87.23958333,0,57,57,3,1,FBP-YG-71.png,0.43,1.2,4,0.75,,,,,,,,,,,,,,,,,,,,,,,,,,,,,,,,,,,,,,,,,,,,,
,,,,,V3_060,21,female,2024-11-09_17h38.07.110,jersey_experiment_5_v3,2023.2.2,Win32,84.74576271,,,,,,,,,,,,,,,,245.8199,247.3724,247.3725,248.0431,return,0.1196,,78.64583333,0,58,58,12,1,FBP-YG-91.png,0.4,1.2,13,0.75,,,,,,,,,,,,,,,,,,,,,,,,,,,,,,,,,,,,,,,,,,,,,
,,,,,V3_060,21,female,2024-11-09_17h38.07.110,jersey_experiment_5_v3,2023.2.2,Win32,84.74576271,,,,,,,,,,,,,,,,248.0433,249.5962,249.5962,250.3257,return,0.0392,,90.88541667,0,59,59,48,1,FBP-RB-17.png,0.43,1.2,49,0.75,,,,,,,,,,,,,,,,,,,,,,,,,,,,,,,,,,,,,,,,,,,,,
,,,,,V3_060,21,female,2024-11-09_17h38.07.110,jersey_experiment_5_v3,2023.2.2,Win32,84.74576271,,,,,,,,,,,,,,,,250.3271,251.8785,251.8786,253.2199,return,0.088,,67.578125,,,,,,FBP-PT-81.png,0.37,1.2,22,0.75,0,0,0,21,1,,,,,,,,,,,,,,,,,,,,,,,,,,,,,,,,,,,,,,,,
,,,,,V3_060,21,female,2024-11-09_17h38.07.110,jersey_experiment_5_v3,2023.2.2,Win32,84.74576271,,,,,,,,,,,,,,,,253.2202,254.7728,254.7729,255.8434,return,0.1001,,65.625,,,,,,FBP-RB-71.png,0.37,1.2,47,0.75,0,1,1,46,1,,,,,,,,,,,,,,,,,,,,,,,,,,,,,,,,,,,,,,,,
,,,,,V3_060,21,female,2024-11-09_17h38.07.110,jersey_experiment_5_v3,2023.2.2,Win32,84.74576271,,,,,,,,,,,,,,,,255.8436,257.1376,257.1378,258.8553,return,0.2605,,93.09895833,,,,,,FBP-OG-91.png,0.45,1.2,45,0.5,0,2,2,44,1,,,,,,,,,,,,,,,,,,,,,,,,,,,,,,,,,,,,,,,,
,,,,,V3_060,21,female,2024-11-09_17h38.07.110,jersey_experiment_5_v3,2023.2.2,Win32,84.74576271,,,,,,,,,,,,,,,,258.8555,260.4084,260.4084,262.326,return,1.3405,,97.39583333,,,,,,FBP-RB-81.png,0.43,1.2,54,0.75,0,3,3,53,1,,,,,,,,,,,,,,,,,,,,,,,,,,,,,,,,,,,,,,,,
,,,,,V3_060,21,female,2024-11-09_17h38.07.110,jersey_experiment_5_v3,2023.2.2,Win32,84.74576271,,,,,,,,,,,,,,,,262.3263,263.6201,263.6202,264.8084,return,0.1984,,70.83333333,,,,,,FBP-OG-71.png,0.37,1.2,32,0.5,0,4,4,31,1,,,,,,,,,,,,,,,,,,,,,,,,,,,,,,,,,,,,,,,,
,,,,,V3_060,21,female,2024-11-09_17h38.07.110,jersey_experiment_5_v3,2023.2.2,Win32,84.74576271,,,,,,,,,,,,,,,,264.8087,266.3614,266.3615,268.6674,return,1.2244,,98.69791667,,,,,,FBP-PT-91.png,0.43,1.2,29,0.75,0,5,5,28,1,,,,,,,,,,,,,,,,,,,,,,,,,,,,,,,,,,,,,,,,
,,,,,V3_060,21,female,2024-11-09_17h38.07.110,jersey_experiment_5_v3,2023.2.2,Win32,84.74576271,,,,,,,,,,,,,,,,268.6677,270.2205,270.2205,270.8557,return,0.151,,93.75,,,,,,FBP-YG-19.png,0.45,1.2,15,0.75,0,6,6,14,1,,,,,,,,,,,,,,,,,,,,,,,,,,,,,,,,,,,,,,,,
,,,,,V3_060,21,female,2024-11-09_17h38.07.110,jersey_experiment_5_v3,2023.2.2,Win32,84.74576271,,,,,,,,,,,,,,,,270.856,272.1498,272.1498,272.9381,return,0.1421,,88.02083333,,,,,,FBP-OG-91.png,0.4,1.2,43,0.5,0,7,7,42,1,,,,,,,,,,,,,,,,,,,,,,,,,,,,,,,,,,,,,,,,
,,,,,V3_060,21,female,2024-11-09_17h38.07.110,jersey_experiment_5_v3,2023.2.2,Win32,84.74576271,,,,,,,,,,,,,,,,272.9383,274.4913,274.4914,275.2912,return,0.1652,,82.68229167,,,,,,FBP-PT-91.png,0.37,1.2,27,0.75,0,8,8,26,1,,,,,,,,,,,,,,,,,,,,,,,,,,,,,,,,,,,,,,,,
,,,,,V3_060,21,female,2024-11-09_17h38.07.110,jersey_experiment_5_v3,2023.2.2,Win32,84.74576271,,,,,,,,,,,,,,,,275.2915,276.8444,276.8444,277.5384,return,0.1252,,97.13541667,,,,,,FBP-YG-19.png,0.43,1.2,14,0.75,0,9,9,13,1,,,,,,,,,,,,,,,,,,,,,,,,,,,,,,,,,,,,,,,,
,,,,,V3_060,21,female,2024-11-09_17h38.07.110,jersey_experiment_5_v3,2023.2.2,Win32,84.74576271,,,,,,,,,,,,,,,,277.5386,278.8325,278.8325,279.5149,return,0.1525,,96.74479167,,,,,,FBP-OG-81.png,0.45,1.2,40,0.5,0,10,10,39,1,,,,,,,,,,,,,,,,,,,,,,,,,,,,,,,,,,,,,,,,
,,,,,V3_060,21,female,2024-11-09_17h38.07.110,jersey_experiment_5_v3,2023.2.2,Win32,84.74576271,,,,,,,,,,,,,,,,279.5152,281.068,281.0681,282.2798,return,0.1075,,72.78645833,,,,,,FBP-PT-71.png,0.37,1.2,17,0.75,0,11,11,16,1,,,,,,,,,,,,,,,,,,,,,,,,,,,,,,,,,,,,,,,,
,,,,,V3_060,21,female,2024-11-09_17h38.07.110,jersey_experiment_5_v3,2023.2.2,Win32,84.74576271,,,,,,,,,,,,,,,,282.2801,283.8328,283.8328,284.821,return,0.0262,,49.47916667,,,,,,FBP-PT-81.png,0.35,1.2,21,0.75,0,12,12,20,1,,,,,,,,,,,,,,,,,,,,,,,,,,,,,,,,,,,,,,,,
,,,,,V3_060,21,female,2024-11-09_17h38.07.110,jersey_experiment_5_v3,2023.2.2,Win32,84.74576271,,,,,,,,,,,,,,,,284.8214,286.3742,286.3742,287.0917,return,0.1704,,40.36458333,,,,,,FBP-RB-81.png,0.35,1.2,51,0.75,0,13,13,50,1,,,,,,,,,,,,,,,,,,,,,,,,,,,,,,,,,,,,,,,,
,,,,,V3_060,21,female,2024-11-09_17h38.07.110,jersey_experiment_5_v3,2023.2.2,Win32,84.74576271,,,,,,,,,,,,,,,,287.0919,288.6448,288.6449,289.7625,return,0.0187,,98.046875,,,,,,FBP-RB-71.png,0.43,1.2,49,0.75,0,14,14,48,1,,,,,,,,,,,,,,,,,,,,,,,,,,,,,,,,,,,,,,,,
,,,,,V3_060,21,female,2024-11-09_17h38.07.110,jersey_experiment_5_v3,2023.2.2,Win32,84.74576271,,,,,,,,,,,,,,,,289.7627,291.0566,291.0566,292.1506,return,0.0498,,47.78645833,,,,,,FBP-OG-91.png,0.37,1.2,42,0.5,0,15,15,41,1,,,,,,,,,,,,,,,,,,,,,,,,,,,,,,,,,,,,,,,,
,,,,,V3_060,21,female,2024-11-09_17h38.07.110,jersey_experiment_5_v3,2023.2.2,Win32,84.74576271,,,,,,,,,,,,,,,,292.1509,293.7039,293.7039,294.4685,return,0.0407,,49.86979167,,,,,,FBP-RB-91.png,0.35,1.2,56,0.75,0,16,16,55,1,,,,,,,,,,,,,,,,,,,,,,,,,,,,,,,,,,,,,,,,
,,,,,V3_060,21,female,2024-11-09_17h38.07.110,jersey_experiment_5_v3,2023.2.2,Win32,84.74576271,,,,,,,,,,,,,,,,294.4687,296.0214,296.0215,297.0802,return,0.4621,,83.85416667,,,,,,FBP-PT-91.png,0.4,1.2,28,0.75,0,17,17,27,1,,,,,,,,,,,,,,,,,,,,,,,,,,,,,,,,,,,,,,,,
,,,,,V3_060,21,female,2024-11-09_17h38.07.110,jersey_experiment_5_v3,2023.2.2,Win32,84.74576271,,,,,,,,,,,,,,,,297.0805,298.6335,298.6335,299.5627,return,0.0948,,91.14583333,,,,,,FBP-RB-81.png,0.45,1.2,55,0.75,0,18,18,54,1,,,,,,,,,,,,,,,,,,,,,,,,,,,,,,,,,,,,,,,,
,,,,,V3_060,21,female,2024-11-09_17h38.07.110,jersey_experiment_5_v3,2023.2.2,Win32,84.74576271,,,,,,,,,,,,,,,,299.5629,301.1041,301.1041,301.8452,return,0.122,,96.35416667,,,,,,FBP-YG-17.png,0.45,1.2,5,0.75,0,19,19,4,1,,,,,,,,,,,,,,,,,,,,,,,,,,,,,,,,,,,,,,,,
,,,,,V3_060,21,female,2024-11-09_17h38.07.110,jersey_experiment_5_v3,2023.2.2,Win32,84.74576271,,,,,,,,,,,,,,,,301.8454,303.3982,303.3982,304.057,return,0.105,,96.61458333,,,,,,FBP-YG-18.png,0.45,1.2,10,0.75,0,20,20,9,1,,,,,,,,,,,,,,,,,,,,,,,,,,,,,,,,,,,,,,,,
,,,,,V3_060,21,female,2024-11-09_17h38.07.110,jersey_experiment_5_v3,2023.2.2,Win32,84.74576271,,,,,,,,,,,,,,,,304.0572,305.61,305.61,306.7277,return,0.4944,,96.61458333,,,,,,FBP-RB-91.png,0.45,1.2,60,0.75,0,21,21,59,1,,,,,,,,,,,,,,,,,,,,,,,,,,,,,,,,,,,,,,,,
,,,,,V3_060,21,female,2024-11-09_17h38.07.110,jersey_experiment_5_v3,2023.2.2,Win32,84.74576271,,,,,,,,,,,,,,,,306.7279,308.0219,308.0219,308.6102,return,0.0896,,96.484375,,,,,,FBP-OG-71.png,0.45,1.2,35,0.5,0,22,22,34,1,,,,,,,,,,,,,,,,,,,,,,,,,,,,,,,,,,,,,,,,
,,,,,V3_060,21,female,2024-11-09_17h38.07.110,jersey_experiment_5_v3,2023.2.2,Win32,84.74576271,,,,,,,,,,,,,,,,308.6104,310.163,310.1631,312.1161,return,0.0405,,49.08854167,,,,,,FBP-YG-18.png,0.35,1.2,6,0.75,0,23,23,5,1,,,,,,,,,,,,,,,,,,,,,,,,,,,,,,,,,,,,,,,,
,,,,,V3_060,21,female,2024-11-09_17h38.07.110,jersey_experiment_5_v3,2023.2.2,Win32,84.74576271,,,,,,,,,,,,,,,,312.1164,313.6692,313.6692,314.5632,return,0.1205,,63.41145833,,,,,,FBP-RB-81.png,0.4,1.2,53,0.75,0,24,24,52,1,,,,,,,,,,,,,,,,,,,,,,,,,,,,,,,,,,,,,,,,
,,,,,V3_060,21,female,2024-11-09_17h38.07.110,jersey_experiment_5_v3,2023.2.2,Win32,84.74576271,,,,,,,,,,,,,,,,314.5635,316.1164,316.1165,317.2693,return,0.0945,,90.75520833,,,,,,FBP-PT-91.png,0.45,1.2,30,0.75,0,25,25,29,1,,,,,,,,,,,,,,,,,,,,,,,,,,,,,,,,,,,,,,,,
,,,,,V3_060,21,female,2024-11-09_17h38.07.110,jersey_experiment_5_v3,2023.2.2,Win32,84.74576271,,,,,,,,,,,,,,,,317.2695,318.8224,318.8224,319.6104,return,0.0948,,50.390625,,,,,,FBP-RB-91.png,0.37,1.2,57,0.75,0,26,26,56,1,,,,,,,,,,,,,,,,,,,,,,,,,,,,,,,,,,,,,,,,
,,,,,V3_060,21,female,2024-11-09_17h38.07.110,jersey_experiment_5_v3,2023.2.2,Win32,84.74576271,,,,,,,,,,,,,,,,319.6107,321.1636,321.1637,322.0577,return,0.1413,,88.54166667,,,,,,FBP-PT-71.png,0.45,1.2,20,0.75,0,27,27,19,1,,,,,,,,,,,,,,,,,,,,,,,,,,,,,,,,,,,,,,,,
,,,,,V3_060,21,female,2024-11-09_17h38.07.110,jersey_experiment_5_v3,2023.2.2,Win32,84.74576271,,,,,,,,,,,,,,,,322.0582,323.6106,323.6106,324.8815,return,0.2063,,37.63020833,,,,,,FBP-PT-71.png,0.35,1.2,16,0.75,0,28,28,15,1,,,,,,,,,,,,,,,,,,,,,,,,,,,,,,,,,,,,,,,,
,,,,,V3_060,21,female,2024-11-09_17h38.07.110,jersey_experiment_5_v3,2023.2.2,Win32,84.74576271,,,,,,,,,,,,,,,,324.8818,326.4342,326.4343,328.105,return,0.824,,51.171875,,,,,,FBP-PT-81.png,0.4,1.2,23,0.75,0,29,29,22,1,,,,,,,,,,,,,,,,,,,,,,,,,,,,,,,,,,,,,,,,
,,,,,V3_060,21,female,2024-11-09_17h38.07.110,jersey_experiment_5_v3,2023.2.2,Win32,84.74576271,,,,,,,,,,,,,,,,328.1053,329.3991,329.3992,330.1169,return,0.0738,,74.609375,,,,,,FBP-OG-81.png,0.43,1.2,39,0.5,0,30,30,38,1,,,,,,,,,,,,,,,,,,,,,,,,,,,,,,,,,,,,,,,,
,,,,,V3_060,21,female,2024-11-09_17h38.07.110,jersey_experiment_5_v3,2023.2.2,Win32,84.74576271,,,,,,,,,,,,,,,,330.117,331.67,331.67,332.5995,return,0.2848,,39.58333333,,,,,,FBP-YG-17.png,0.35,1.2,1,0.75,0,31,31,0,1,,,,,,,,,,,,,,,,,,,,,,,,,,,,,,,,,,,,,,,,
,,,,,V3_060,21,female,2024-11-09_17h38.07.110,jersey_experiment_5_v3,2023.2.2,Win32,84.74576271,,,,,,,,,,,,,,,,332.5996,334.1523,334.1523,334.9993,return,0.0342,,39.58333333,,,,,,FBP-YG-19.png,0.37,1.2,12,0.75,0,32,32,11,1,,,,,,,,,,,,,,,,,,,,,,,,,,,,,,,,,,,,,,,,
,,,,,V3_060,21,female,2024-11-09_17h38.07.110,jersey_experiment_5_v3,2023.2.2,Win32,84.74576271,,,,,,,,,,,,,,,,334.9995,336.2934,336.2935,337.7877,return,0.1545,,97.265625,,,,,,FBP-OG-71.png,0.43,1.2,34,0.5,0,33,33,33,1,,,,,,,,,,,,,,,,,,,,,,,,,,,,,,,,,,,,,,,,
,,,,,V3_060,21,female,2024-11-09_17h38.07.110,jersey_experiment_5_v3,2023.2.2,Win32,84.74576271,,,,,,,,,,,,,,,,337.7879,339.0818,339.0818,339.7878,return,0.1546,,97.00520833,,,,,,FBP-OG-71.png,0.35,1.2,31,0.5,0,34,34,30,1,,,,,,,,,,,,,,,,,,,,,,,,,,,,,,,,,,,,,,,,
,,,,,V3_060,21,female,2024-11-09_17h38.07.110,jersey_experiment_5_v3,2023.2.2,Win32,84.74576271,,,,,,,,,,,,,,,,339.788,341.0819,341.0819,341.8114,return,0.2766,,97.00520833,,,,,,FBP-OG-71.png,0.4,1.2,33,0.5,0,35,35,32,1,,,,,,,,,,,,,,,,,,,,,,,,,,,,,,,,,,,,,,,,
,,,,,V3_060,21,female,2024-11-09_17h38.07.110,jersey_experiment_5_v3,2023.2.2,Win32,84.74576271,,,,,,,,,,,,,,,,341.8116,343.3642,343.3643,346.5645,return,0.0501,,94.66145833,,,,,,FBP-YG-18.png,0.43,1.2,9,0.75,0,36,36,8,1,,,,,,,,,,,,,,,,,,,,,,,,,,,,,,,,,,,,,,,,
,,,,,V3_060,21,female,2024-11-09_17h38.07.110,jersey_experiment_5_v3,2023.2.2,Win32,84.74576271,,,,,,,,,,,,,,,,346.5647,348.1175,348.1176,349.3057,return,0.4943,,89.32291667,,,,,,FBP-YG-17.png,0.43,1.2,4,0.75,0,37,37,3,1,,,,,,,,,,,,,,,,,,,,,,,,,,,,,,,,,,,,,,,,
,,,,,V3_060,21,female,2024-11-09_17h38.07.110,jersey_experiment_5_v3,2023.2.2,Win32,84.74576271,,,,,,,,,,,,,,,,349.3058,350.8471,350.8471,351.9412,return,0.0747,,95.44270833,,,,,,FBP-RB-71.png,0.45,1.2,50,0.75,0,38,38,49,1,,,,,,,,,,,,,,,,,,,,,,,,,,,,,,,,,,,,,,,,
,,,,,V3_060,21,female,2024-11-09_17h38.07.110,jersey_experiment_5_v3,2023.2.2,Win32,84.74576271,,,,,,,,,,,,,,,,351.9413,353.4943,353.4943,354.3295,return,0.1649,,80.20833333,,,,,,FBP-PT-71.png,0.4,1.2,18,0.75,0,39,39,17,1,,,,,,,,,,,,,,,,,,,,,,,,,,,,,,,,,,,,,,,,
,,,,,V3_060,21,female,2024-11-09_17h38.07.110,jersey_experiment_5_v3,2023.2.2,Win32,84.74576271,,,,,,,,,,,,,,,,354.3298,355.8825,355.8826,357.506,return,0.2076,,88.28125,,,,,,FBP-PT-81.png,0.43,1.2,24,0.75,0,40,40,23,1,,,,,,,,,,,,,,,,,,,,,,,,,,,,,,,,,,,,,,,,
,,,,,V3_060,21,female,2024-11-09_17h38.07.110,jersey_experiment_5_v3,2023.2.2,Win32,84.74576271,,,,,,,,,,,,,,,,357.5062,359.059,359.0591,360.2003,return,0.3152,,89.453125,,,,,,FBP-RB-91.png,0.4,1.2,58,0.75,0,41,41,57,1,,,,,,,,,,,,,,,,,,,,,,,,,,,,,,,,,,,,,,,,
,,,,,V3_060,21,female,2024-11-09_17h38.07.110,jersey_experiment_5_v3,2023.2.2,Win32,84.74576271,,,,,,,,,,,,,,,,360.2005,361.4944,361.4944,362.5063,return,0.0564,,49.73958333,,,,,,FBP-OG-81.png,0.35,1.2,36,0.5,0,42,42,35,1,,,,,,,,,,,,,,,,,,,,,,,,,,,,,,,,,,,,,,,,
,,,,,V3_060,21,female,2024-11-09_17h38.07.110,jersey_experiment_5_v3,2023.2.2,Win32,84.74576271,,,,,,,,,,,,,,,,362.5065,364.0592,364.0593,364.7415,return,0.0602,,53.90625,,,,,,FBP-YG-18.png,0.37,1.2,7,0.75,0,43,43,6,1,,,,,,,,,,,,,,,,,,,,,,,,,,,,,,,,,,,,,,,,
,,,,,V3_060,21,female,2024-11-09_17h38.07.110,jersey_experiment_5_v3,2023.2.2,Win32,84.74576271,,,,,,,,,,,,,,,,364.7418,366.0358,366.0358,367.0593,return,0.1352,,56.38020833,,,,,,FBP-OG-81.png,0.37,1.2,37,0.5,0,44,44,36,1,,,,,,,,,,,,,,,,,,,,,,,,,,,,,,,,,,,,,,,,
,,,,,V3_060,21,female,2024-11-09_17h38.07.110,jersey_experiment_5_v3,2023.2.2,Win32,84.74576271,,,,,,,,,,,,,,,,367.0596,368.6126,368.6126,369.2594,return,0.0584,,66.40625,,,,,,FBP-YG-19.png,0.4,1.2,13,0.75,0,45,45,12,1,,,,,,,,,,,,,,,,,,,,,,,,,,,,,,,,,,,,,,,,
,,,,,V3_060,21,female,2024-11-09_17h38.07.110,jersey_experiment_5_v3,2023.2.2,Win32,84.74576271,,,,,,,,,,,,,,,,369.2597,370.8124,370.8125,371.6006,return,0.146,,66.40625,,,,,,FBP-PT-71.png,0.43,1.2,19,0.75,0,46,46,18,1,,,,,,,,,,,,,,,,,,,,,,,,,,,,,,,,,,,,,,,,
,,,,,V3_060,21,female,2024-11-09_17h38.07.110,jersey_experiment_5_v3,2023.2.2,Win32,84.74576271,,,,,,,,,,,,,,,,371.6008,373.1537,373.1538,373.9067,return,0.0999,,58.203125,,,,,,FBP-YG-19.png,0.35,1.2,11,0.75,0,47,47,10,1,,,,,,,,,,,,,,,,,,,,,,,,,,,,,,,,,,,,,,,,
,,,,,V3_060,21,female,2024-11-09_17h38.07.110,jersey_experiment_5_v3,2023.2.2,Win32,84.74576271,,,,,,,,,,,,,,,,373.9069,375.4597,375.4597,376.6833,return,0.2949,,62.76041667,,,,,,FBP-YG-17.png,0.37,1.2,2,0.75,0,48,48,1,1,,,,,,,,,,,,,,,,,,,,,,,,,,,,,,,,,,,,,,,,
,,,,,V3_060,21,female,2024-11-09_17h38.07.110,jersey_experiment_5_v3,2023.2.2,Win32,84.74576271,,,,,,,,,,,,,,,,376.6835,378.2363,378.2364,378.8833,return,0.0637,,65.36458333,,,,,,FBP-YG-18.png,0.4,1.2,8,0.75,0,49,49,7,1,,,,,,,,,,,,,,,,,,,,,,,,,,,,,,,,,,,,,,,,
,,,,,V3_060,21,female,2024-11-09_17h38.07.110,jersey_experiment_5_v3,2023.2.2,Win32,84.74576271,,,,,,,,,,,,,,,,378.8835,380.4364,380.4364,381.1774,return,0.0497,,78.90625,,,,,,FBP-RB-91.png,0.43,1.2,59,0.75,0,50,50,58,1,,,,,,,,,,,,,,,,,,,,,,,,,,,,,,,,,,,,,,,,
,,,,,V3_060,21,female,2024-11-09_17h38.07.110,jersey_experiment_5_v3,2023.2.2,Win32,84.74576271,,,,,,,,,,,,,,,,381.1777,382.7306,382.7306,383.4483,return,0.1041,,50.78125,,,,,,FBP-RB-71.png,0.35,1.2,46,0.75,0,51,51,45,1,,,,,,,,,,,,,,,,,,,,,,,,,,,,,,,,,,,,,,,,
,,,,,V3_060,21,female,2024-11-09_17h38.07.110,jersey_experiment_5_v3,2023.2.2,Win32,84.74576271,,,,,,,,,,,,,,,,383.4484,384.7424,384.7424,385.4011,return,0.0335,,51.171875,,,,,,FBP-OG-91.png,0.35,1.2,41,0.5,0,52,52,40,1,,,,,,,,,,,,,,,,,,,,,,,,,,,,,,,,,,,,,,,,
,,,,,V3_060,21,female,2024-11-09_17h38.07.110,jersey_experiment_5_v3,2023.2.2,Win32,84.74576271,,,,,,,,,,,,,,,,385.4014,386.9541,386.9543,388.4366,return,0.1459,,76.04166667,,,,,,FBP-YG-17.png,0.4,1.2,3,0.75,0,53,53,2,1,,,,,,,,,,,,,,,,,,,,,,,,,,,,,,,,,,,,,,,,
,,,,,V3_060,21,female,2024-11-09_17h38.07.110,jersey_experiment_5_v3,2023.2.2,Win32,84.74576271,,,,,,,,,,,,,,,,388.4369,389.7307,389.7308,390.613,return,0.0946,,93.22916667,,,,,,FBP-OG-91.png,0.43,1.2,44,0.5,0,54,54,43,1,,,,,,,,,,,,,,,,,,,,,,,,,,,,,,,,,,,,,,,,
,,,,,V3_060,21,female,2024-11-09_17h38.07.110,jersey_experiment_5_v3,2023.2.2,Win32,84.74576271,,,,,,,,,,,,,,,,390.6133,391.9073,391.9074,392.7074,return,0.1926,,85.546875,,,,,,FBP-OG-81.png,0.4,1.2,38,0.5,0,55,55,37,1,,,,,,,,,,,,,,,,,,,,,,,,,,,,,,,,,,,,,,,,
,,,,,V3_060,21,female,2024-11-09_17h38.07.110,jersey_experiment_5_v3,2023.2.2,Win32,84.74576271,,,,,,,,,,,,,,,,392.7076,394.2603,394.2603,395.1075,return,0.2159,,92.96875,,,,,,FBP-RB-71.png,0.4,1.2,48,0.75,0,56,56,47,1,,,,,,,,,,,,,,,,,,,,,,,,,,,,,,,,,,,,,,,,
,,,,,V3_060,21,female,2024-11-09_17h38.07.110,jersey_experiment_5_v3,2023.2.2,Win32,84.74576271,,,,,,,,,,,,,,,,395.1078,396.6605,396.6605,397.4016,return,0.128,,47.39583333,,,,,,FBP-PT-91.png,0.35,1.2,26,0.75,0,57,57,25,1,,,,,,,,,,,,,,,,,,,,,,,,,,,,,,,,,,,,,,,,
,,,,,V3_060,21,female,2024-11-09_17h38.07.110,jersey_experiment_5_v3,2023.2.2,Win32,84.74576271,,,,,,,,,,,,,,,,397.4018,398.9548,398.9548,399.7194,return,0.1548,,44.66145833,,,,,,FBP-RB-81.png,0.37,1.2,52,0.75,0,58,58,51,1,,,,,,,,,,,,,,,,,,,,,,,,,,,,,,,,,,,,,,,,
,,,,,V3_060,21,female,2024-11-09_17h38.07.110,jersey_experiment_5_v3,2023.2.2,Win32,84.74576271,,,,,,,,,,,,,,,,399.7197,401.2724,401.2724,402.5194,return,0.1094,,97.13541667,,,,,,FBP-PT-81.png,0.45,1.2,25,0.75,0,59,59,24,1,,,,,,,,,,,,,,,,,,,,,,,,,,,,,,,,,,,,,,,,
,,,,,V3_060,21,female,2024-11-09_17h38.07.110,jersey_experiment_5_v3,2023.2.2,Win32,84.74576271,,,,,,,,,,,,,,,,,,,,,,,,,,,,,,,,,,,,,,,402.5195,522.5124,,,,,,,,,,,,,,,,,,,,,,,,,,,,,,,,,,,,,,
,,,,,V3_060,21,female,2024-11-09_17h38.07.110,jersey_experiment_5_v3,2023.2.2,Win32,84.74576271,,,,,,,,,,,,,,,,,,,,,,,,,,,,,,,,,,,,,,,,,522.5124,525.6417,return,3.1136,,,,,,,,,,,,,,,,,,,,,,,,,,,,,,,,,,
,,,,,V3_060,21,female,2024-11-09_17h38.07.110,jersey_experiment_5_v3,2023.2.2,Win32,84.74576271,,,,,,,,,,,,,,,,525.6436,526.9359,526.936,532.1478,return,2.5665,,73.4375,,,,,,FBP-YG-81.png,0.43,1.2,9,0.5,,,,,,,,,,,,,0,0,0,8,1,,,,,,,,,,,,,,,,,,,,,,,,,,,,
,,,,,V3_060,21,female,2024-11-09_17h38.07.110,jersey_experiment_5_v3,2023.2.2,Win32,84.74576271,,,,,,,,,,,,,,,,532.148,533.4422,533.4423,534.4655,return,0.1488,,65.234375,,,,,,FBP-YG-81.png,0.35,1.2,6,0.5,,,,,,,,,,,,,0,1,1,5,1,,,,,,,,,,,,,,,,,,,,,,,,,,,,
,,,,,V3_060,21,female,2024-11-09_17h38.07.110,jersey_experiment_5_v3,2023.2.2,Win32,84.74576271,,,,,,,,,,,,,,,,534.4658,535.7599,535.7599,536.7128,return,0.2271,,68.75,,,,,,FBP-PT-19.png,0.37,1.2,27,0.5,,,,,,,,,,,,,0,2,2,26,1,,,,,,,,,,,,,,,,,,,,,,,,,,,,
,,,,,V3_060,21,female,2024-11-09_17h38.07.110,jersey_experiment_5_v3,2023.2.2,Win32,84.74576271,,,,,,,,,,,,,,,,536.7131,538.0069,538.007,539.0303,return,0.2488,,68.22916667,,,,,,FBP-PT-17.png,0.35,1.2,16,0.5,,,,,,,,,,,,,0,3,3,15,1,,,,,,,,,,,,,,,,,,,,,,,,,,,,
,,,,,V3_060,21,female,2024-11-09_17h38.07.110,jersey_experiment_5_v3,2023.2.2,Win32,84.74576271,,,,,,,,,,,,,,,,539.0306,540.3246,540.3247,542.6658,return,0.1566,,94.79166667,,,,,,FBP-RB-18.png,0.45,1.2,55,0.5,,,,,,,,,,,,,0,4,4,54,1,,,,,,,,,,,,,,,,,,,,,,,,,,,,
,,,,,V3_060,21,female,2024-11-09_17h38.07.110,jersey_experiment_5_v3,2023.2.2,Win32,84.74576271,,,,,,,,,,,,,,,,542.6661,543.9599,543.96,545.5249,return,0.2035,,75.390625,,,,,,FBP-RB-19.png,0.35,1.2,56,0.5,,,,,,,,,,,,,0,5,5,55,1,,,,,,,,,,,,,,,,,,,,,,,,,,,,
,,,,,V3_060,21,female,2024-11-09_17h38.07.110,jersey_experiment_5_v3,2023.2.2,Win32,84.74576271,,,,,,,,,,,,,,,,545.5252,546.819,546.819,547.5602,return,0.1561,,75.390625,,,,,,FBP-PT-18.png,0.37,1.2,22,0.5,,,,,,,,,,,,,0,6,6,21,1,,,,,,,,,,,,,,,,,,,,,,,,,,,,
,,,,,V3_060,21,female,2024-11-09_17h38.07.110,jersey_experiment_5_v3,2023.2.2,Win32,84.74576271,,,,,,,,,,,,,,,,547.5605,549.1133,549.1133,550.0661,return,0.1248,,94.40104167,,,,,,FBP-OG-17.png,0.43,1.2,34,0.75,,,,,,,,,,,,,0,7,7,33,1,,,,,,,,,,,,,,,,,,,,,,,,,,,,
,,,,,V3_060,21,female,2024-11-09_17h38.07.110,jersey_experiment_5_v3,2023.2.2,Win32,84.74576271,,,,,,,,,,,,,,,,550.0663,551.6192,551.6194,552.5369,return,0.0787,,81.51041667,,,,,,FBP-OG-19.png,0.4,1.2,43,0.75,,,,,,,,,,,,,0,8,8,42,1,,,,,,,,,,,,,,,,,,,,,,,,,,,,
,,,,,V3_060,21,female,2024-11-09_17h38.07.110,jersey_experiment_5_v3,2023.2.2,Win32,84.74576271,,,,,,,,,,,,,,,,552.5371,553.8311,553.8311,554.6781,return,0.0502,,77.99479167,,,,,,FBP-YG-91.png,0.4,1.2,13,0.5,,,,,,,,,,,,,0,9,9,12,1,,,,,,,,,,,,,,,,,,,,,,,,,,,,
,,,,,V3_060,21,female,2024-11-09_17h38.07.110,jersey_experiment_5_v3,2023.2.2,Win32,84.74576271,,,,,,,,,,,,,,,,554.6783,555.9722,555.9722,556.6428,return,0.0653,,83.203125,,,,,,FBP-PT-17.png,0.43,1.2,19,0.5,,,,,,,,,,,,,0,10,10,18,1,,,,,,,,,,,,,,,,,,,,,,,,,,,,
,,,,,V3_060,21,female,2024-11-09_17h38.07.110,jersey_experiment_5_v3,2023.2.2,Win32,84.74576271,,,,,,,,,,,,,,,,556.6432,557.9371,557.9371,559.1371,return,0.2087,,72.265625,,,,,,FBP-RB-18.png,0.35,1.2,51,0.5,,,,,,,,,,,,,0,11,11,50,1,,,,,,,,,,,,,,,,,,,,,,,,,,,,
,,,,,V3_060,21,female,2024-11-09_17h38.07.110,jersey_experiment_5_v3,2023.2.2,Win32,84.74576271,,,,,,,,,,,,,,,,559.1373,560.6901,560.6903,562.1372,return,0.1278,,96.875,,,,,,FBP-OG-18.png,0.45,1.2,40,0.75,,,,,,,,,,,,,0,12,12,39,1,,,,,,,,,,,,,,,,,,,,,,,,,,,,
,,,,,V3_060,21,female,2024-11-09_17h38.07.110,jersey_experiment_5_v3,2023.2.2,Win32,84.74576271,,,,,,,,,,,,,,,,562.1374,563.4314,563.4315,564.7139,return,0.1325,,83.59375,,,,,,FBP-PT-19.png,0.35,1.2,26,0.5,,,,,,,,,,,,,0,13,13,25,1,,,,,,,,,,,,,,,,,,,,,,,,,,,,
,,,,,V3_060,21,female,2024-11-09_17h38.07.110,jersey_experiment_5_v3,2023.2.2,Win32,84.74576271,,,,,,,,,,,,,,,,564.7141,566.008,566.008,567.0669,return,0.1646,,75.52083333,,,,,,FBP-YG-91.png,0.35,1.2,11,0.5,,,,,,,,,,,,,0,14,14,10,1,,,,,,,,,,,,,,,,,,,,,,,,,,,,
,,,,,V3_060,21,female,2024-11-09_17h38.07.110,jersey_experiment_5_v3,2023.2.2,Win32,84.74576271,,,,,,,,,,,,,,,,567.0671,568.361,568.3611,569.1728,return,0.0517,,83.85416667,,,,,,FBP-RB-17.png,0.4,1.2,48,0.5,,,,,,,,,,,,,0,15,15,47,1,,,,,,,,,,,,,,,,,,,,,,,,,,,,
,,,,,V3_060,21,female,2024-11-09_17h38.07.110,jersey_experiment_5_v3,2023.2.2,Win32,84.74576271,,,,,,,,,,,,,,,,569.173,570.4668,570.467,571.3492,return,0.157,,98.828125,,,,,,FBP-PT-17.png,0.45,1.2,20,0.5,,,,,,,,,,,,,0,16,16,19,1,,,,,,,,,,,,,,,,,,,,,,,,,,,,
,,,,,V3_060,21,female,2024-11-09_17h38.07.110,jersey_experiment_5_v3,2023.2.2,Win32,84.74576271,,,,,,,,,,,,,,,,571.3496,572.9023,572.9023,573.4435,return,0.0411,,94.140625,,,,,,FBP-OG-19.png,0.43,1.2,44,0.75,,,,,,,,,,,,,0,17,17,43,1,,,,,,,,,,,,,,,,,,,,,,,,,,,,
,,,,,V3_060,21,female,2024-11-09_17h38.07.110,jersey_experiment_5_v3,2023.2.2,Win32,84.74576271,,,,,,,,,,,,,,,,573.4436,574.9966,574.9966,575.6435,return,0.0944,,94.140625,,,,,,FBP-OG-18.png,0.43,1.2,39,0.75,,,,,,,,,,,,,0,18,18,38,1,,,,,,,,,,,,,,,,,,,,,,,,,,,,
,,,,,V3_060,21,female,2024-11-09_17h38.07.110,jersey_experiment_5_v3,2023.2.2,Win32,84.74576271,,,,,,,,,,,,,,,,575.6438,576.9377,576.9377,578.2438,return,0.1586,,58.85416667,,,,,,FBP-RB-19.png,0.37,1.2,57,0.5,,,,,,,,,,,,,0,19,19,56,1,,,,,,,,,,,,,,,,,,,,,,,,,,,,
,,,,,V3_060,21,female,2024-11-09_17h38.07.110,jersey_experiment_5_v3,2023.2.2,Win32,84.74576271,,,,,,,,,,,,,,,,578.2442,579.7967,579.7968,580.8673,return,0.0848,,68.359375,,,,,,FBP-OG-17.png,0.4,1.2,33,0.75,,,,,,,,,,,,,0,20,20,32,1,,,,,,,,,,,,,,,,,,,,,,,,,,,,
,,,,,V3_060,21,female,2024-11-09_17h38.07.110,jersey_experiment_5_v3,2023.2.2,Win32,84.74576271,,,,,,,,,,,,,,,,580.8676,582.1615,582.1615,583.0792,return,0.0828,,47.39583333,,,,,,FBP-PT-18.png,0.35,1.2,21,0.5,,,,,,,,,,,,,0,21,21,20,1,,,,,,,,,,,,,,,,,,,,,,,,,,,,
,,,,,V3_060,21,female,2024-11-09_17h38.07.110,jersey_experiment_5_v3,2023.2.2,Win32,84.74576271,,,,,,,,,,,,,,,,583.0795,584.3732,584.3733,586.0675,return,0.2041,,98.56770833,,,,,,FBP-RB-19.png,0.45,1.2,60,0.5,,,,,,,,,,,,,0,22,22,59,1,,,,,,,,,,,,,,,,,,,,,,,,,,,,
,,,,,V3_060,21,female,2024-11-09_17h38.07.110,jersey_experiment_5_v3,2023.2.2,Win32,84.74576271,,,,,,,,,,,,,,,,586.0677,587.3617,587.3617,589.3028,return,0.6728,,76.30208333,,,,,,FBP-RB-19.png,0.4,1.2,58,0.5,,,,,,,,,,,,,0,23,23,57,1,,,,,,,,,,,,,,,,,,,,,,,,,,,,
,,,,,V3_060,21,female,2024-11-09_17h38.07.110,jersey_experiment_5_v3,2023.2.2,Win32,84.74576271,,,,,,,,,,,,,,,,589.3031,590.5972,590.5972,591.4089,return,0.0553,,63.15104167,,,,,,FBP-PT-17.png,0.37,1.2,17,0.5,,,,,,,,,,,,,0,24,24,16,1,,,,,,,,,,,,,,,,,,,,,,,,,,,,
,,,,,V3_060,21,female,2024-11-09_17h38.07.110,jersey_experiment_5_v3,2023.2.2,Win32,84.74576271,,,,,,,,,,,,,,,,591.4091,592.703,592.703,594.0208,return,0.1457,,99.47916667,,,,,,FBP-YG-71.png,0.45,1.2,5,0.5,,,,,,,,,,,,,0,25,25,4,1,,,,,,,,,,,,,,,,,,,,,,,,,,,,
,,,,,V3_060,21,female,2024-11-09_17h38.07.110,jersey_experiment_5_v3,2023.2.2,Win32,84.74576271,,,,,,,,,,,,,,,,594.021,595.3149,595.3149,596.4093,return,0.2108,,69.40104167,,,,,,FBP-PT-19.png,0.4,1.2,28,0.5,,,,,,,,,,,,,0,26,26,27,1,,,,,,,,,,,,,,,,,,,,,,,,,,,,
,,,,,V3_060,21,female,2024-11-09_17h38.07.110,jersey_experiment_5_v3,2023.2.2,Win32,84.74576271,,,,,,,,,,,,,,,,596.4095,597.9622,597.9623,598.6444,return,0.1106,,97.13541667,,,,,,FBP-OG-17.png,0.45,1.2,35,0.75,,,,,,,,,,,,,0,27,27,34,1,,,,,,,,,,,,,,,,,,,,,,,,,,,,
,,,,,V3_060,21,female,2024-11-09_17h38.07.110,jersey_experiment_5_v3,2023.2.2,Win32,84.74576271,,,,,,,,,,,,,,,,598.6446,599.9388,599.9388,600.6328,return,0.0962,,88.54166667,,,,,,FBP-PT-17.png,0.4,1.2,18,0.5,,,,,,,,,,,,,0,28,28,17,1,,,,,,,,,,,,,,,,,,,,,,,,,,,,
,,,,,V3_060,21,female,2024-11-09_17h38.07.110,jersey_experiment_5_v3,2023.2.2,Win32,84.74576271,,,,,,,,,,,,,,,,600.633,601.927,601.927,604.1389,return,0.0345,,89.32291667,,,,,,FBP-YG-71.png,0.43,1.2,4,0.5,,,,,,,,,,,,,0,29,29,3,1,,,,,,,,,,,,,,,,,,,,,,,,,,,,
,,,,,V3_060,21,female,2024-11-09_17h38.07.110,jersey_experiment_5_v3,2023.2.2,Win32,84.74576271,,,,,,,,,,,,,,,,604.139,605.4329,605.4329,605.9741,return,0.0736,,96.484375,,,,,,FBP-YG-91.png,0.43,1.2,14,0.5,,,,,,,,,,,,,0,30,30,13,1,,,,,,,,,,,,,,,,,,,,,,,,,,,,
,,,,,V3_060,21,female,2024-11-09_17h38.07.110,jersey_experiment_5_v3,2023.2.2,Win32,84.74576271,,,,,,,,,,,,,,,,605.9743,607.2683,607.2684,608.1037,return,0.1332,,72.65625,,,,,,FBP-YG-81.png,0.4,1.2,8,0.5,,,,,,,,,,,,,0,31,31,7,1,,,,,,,,,,,,,,,,,,,,,,,,,,,,
,,,,,V3_060,21,female,2024-11-09_17h38.07.110,jersey_experiment_5_v3,2023.2.2,Win32,84.74576271,,,,,,,,,,,,,,,,608.1039,609.3978,609.3979,609.9626,return,0.0601,,92.83854167,,,,,,FBP-RB-17.png,0.45,1.2,50,0.5,,,,,,,,,,,,,0,32,32,49,1,,,,,,,,,,,,,,,,,,,,,,,,,,,,
,,,,,V3_060,21,female,2024-11-09_17h38.07.110,jersey_experiment_5_v3,2023.2.2,Win32,84.74576271,,,,,,,,,,,,,,,,609.9629,611.2567,611.2567,612.4331,return,0.1376,,92.83854167,,,,,,FBP-PT-19.png,0.43,1.2,29,0.5,,,,,,,,,,,,,0,33,33,28,1,,,,,,,,,,,,,,,,,,,,,,,,,,,,
,,,,,V3_060,21,female,2024-11-09_17h38.07.110,jersey_experiment_5_v3,2023.2.2,Win32,84.74576271,,,,,,,,,,,,,,,,612.4334,613.7274,613.7274,614.2567,return,0.0553,,85.80729167,,,,,,FBP-RB-18.png,0.4,1.2,53,0.5,,,,,,,,,,,,,0,34,34,52,1,,,,,,,,,,,,,,,,,,,,,,,,,,,,
,,,,,V3_060,21,female,2024-11-09_17h38.07.110,jersey_experiment_5_v3,2023.2.2,Win32,84.74576271,,,,,,,,,,,,,,,,614.2569,615.5509,615.551,616.9981,return,0.1561,,47.13541667,,,,,,FBP-YG-71.png,0.35,1.2,1,0.5,,,,,,,,,,,,,0,35,35,0,1,,,,,,,,,,,,,,,,,,,,,,,,,,,,
,,,,,V3_060,21,female,2024-11-09_17h38.07.110,jersey_experiment_5_v3,2023.2.2,Win32,84.74576271,,,,,,,,,,,,,,,,616.9984,618.2923,618.2923,619.6687,return,0.2397,,97.00520833,,,,,,FBP-RB-19.png,0.43,1.2,59,0.5,,,,,,,,,,,,,0,36,36,58,1,,,,,,,,,,,,,,,,,,,,,,,,,,,,
,,,,,V3_060,21,female,2024-11-09_17h38.07.110,jersey_experiment_5_v3,2023.2.2,Win32,84.74576271,,,,,,,,,,,,,,,,619.6691,621.2219,621.2219,623.3631,return,1.5933,,35.9375,,,,,,FBP-OG-18.png,0.37,1.2,37,0.75,,,,,,,,,,,,,0,37,37,36,1,,,,,,,,,,,,,,,,,,,,,,,,,,,,
,,,,,V3_060,21,female,2024-11-09_17h38.07.110,jersey_experiment_5_v3,2023.2.2,Win32,84.74576271,,,,,,,,,,,,,,,,623.3633,624.916,624.9161,625.6103,return,0.0946,,30.46875,,,,,,FBP-OG-18.png,0.35,1.2,36,0.75,,,,,,,,,,,,,0,38,38,35,1,,,,,,,,,,,,,,,,,,,,,,,,,,,,
,,,,,V3_060,21,female,2024-11-09_17h38.07.110,jersey_experiment_5_v3,2023.2.2,Win32,84.74576271,,,,,,,,,,,,,,,,625.6106,626.9044,626.9044,627.7985,return,0.109,,94.40104167,,,,,,FBP-RB-18.png,0.43,1.2,54,0.5,,,,,,,,,,,,,0,39,39,53,1,,,,,,,,,,,,,,,,,,,,,,,,,,,,
,,,,,V3_060,21,female,2024-11-09_17h38.07.110,jersey_experiment_5_v3,2023.2.2,Win32,84.74576271,,,,,,,,,,,,,,,,627.7987,629.3514,629.3515,629.975,return,0.1197,,81.38020833,,,,,,FBP-OG-18.png,0.4,1.2,38,0.75,,,,,,,,,,,,,0,40,40,37,1,,,,,,,,,,,,,,,,,,,,,,,,,,,,
,,,,,V3_060,21,female,2024-11-09_17h38.07.110,jersey_experiment_5_v3,2023.2.2,Win32,84.74576271,,,,,,,,,,,,,,,,629.9754,631.528,631.528,632.8338,return,0.38,,91.66666667,,,,,,FBP-OG-19.png,0.45,1.2,45,0.75,,,,,,,,,,,,,0,41,41,44,1,,,,,,,,,,,,,,,,,,,,,,,,,,,,
,,,,,V3_060,21,female,2024-11-09_17h38.07.110,jersey_experiment_5_v3,2023.2.2,Win32,84.74576271,,,,,,,,,,,,,,,,632.8341,634.3869,634.3871,637.7166,return,0.6737,,56.51041667,,,,,,FBP-OG-17.png,0.37,1.2,32,0.75,,,,,,,,,,,,,0,42,42,31,1,,,,,,,,,,,,,,,,,,,,,,,,,,,,
,,,,,V3_060,21,female,2024-11-09_17h38.07.110,jersey_experiment_5_v3,2023.2.2,Win32,84.74576271,,,,,,,,,,,,,,,,637.7168,639.2578,639.2578,639.8459,return,0.0624,,40.10416667,,,,,,FBP-OG-17.png,0.35,1.2,31,0.75,,,,,,,,,,,,,0,43,43,30,1,,,,,,,,,,,,,,,,,,,,,,,,,,,,
,,,,,V3_060,21,female,2024-11-09_17h38.07.110,jersey_experiment_5_v3,2023.2.2,Win32,84.74576271,,,,,,,,,,,,,,,,639.8462,641.399,641.3991,642.4697,return,0.0611,,56.25,,,,,,FBP-OG-19.png,0.37,1.2,42,0.75,,,,,,,,,,,,,0,44,44,41,1,,,,,,,,,,,,,,,,,,,,,,,,,,,,
,,,,,V3_060,21,female,2024-11-09_17h38.07.110,jersey_experiment_5_v3,2023.2.2,Win32,84.74576271,,,,,,,,,,,,,,,,642.47,643.7638,643.7638,645.0343,return,0.4808,,56.38020833,,,,,,FBP-RB-17.png,0.37,1.2,47,0.5,,,,,,,,,,,,,0,45,45,46,1,,,,,,,,,,,,,,,,,,,,,,,,,,,,
,,,,,V3_060,21,female,2024-11-09_17h38.07.110,jersey_experiment_5_v3,2023.2.2,Win32,84.74576271,,,,,,,,,,,,,,,,645.0345,646.5873,646.5874,647.2816,return,0.192,,50.78125,,,,,,FBP-OG-19.png,0.35,1.2,41,0.75,,,,,,,,,,,,,0,46,46,40,1,,,,,,,,,,,,,,,,,,,,,,,,,,,,
,,,,,V3_060,21,female,2024-11-09_17h38.07.110,jersey_experiment_5_v3,2023.2.2,Win32,84.74576271,,,,,,,,,,,,,,,,647.2819,648.5758,648.5758,650.1169,return,0.2477,,96.74479167,,,,,,FBP-PT-19.png,0.45,1.2,30,0.5,,,,,,,,,,,,,0,47,47,29,1,,,,,,,,,,,,,,,,,,,,,,,,,,,,
,,,,,V3_060,21,female,2024-11-09_17h38.07.110,jersey_experiment_5_v3,2023.2.2,Win32,84.74576271,,,,,,,,,,,,,,,,650.1171,651.4111,651.4112,652.164,return,0.146,,84.50520833,,,,,,FBP-PT-18.png,0.4,1.2,23,0.5,,,,,,,,,,,,,0,48,48,22,1,,,,,,,,,,,,,,,,,,,,,,,,,,,,
,,,,,V3_060,21,female,2024-11-09_17h38.07.110,jersey_experiment_5_v3,2023.2.2,Win32,84.74576271,,,,,,,,,,,,,,,,652.1642,653.4583,653.4583,654.4583,return,0.1432,,98.828125,,,,,,FBP-YG-81.png,0.45,1.2,10,0.5,,,,,,,,,,,,,0,49,49,9,1,,,,,,,,,,,,,,,,,,,,,,,,,,,,
,,,,,V3_060,21,female,2024-11-09_17h38.07.110,jersey_experiment_5_v3,2023.2.2,Win32,84.74576271,,,,,,,,,,,,,,,,654.4586,655.7523,655.7523,656.5643,return,0.3448,,98.4375,,,,,,FBP-RB-17.png,0.43,1.2,49,0.5,,,,,,,,,,,,,0,50,50,48,1,,,,,,,,,,,,,,,,,,,,,,,,,,,,
,,,,,V3_060,21,female,2024-11-09_17h38.07.110,jersey_experiment_5_v3,2023.2.2,Win32,84.74576271,,,,,,,,,,,,,,,,656.5645,657.8584,657.8584,658.4701,return,0.1765,,98.4375,,,,,,FBP-YG-91.png,0.45,1.2,15,0.5,,,,,,,,,,,,,0,51,51,14,1,,,,,,,,,,,,,,,,,,,,,,,,,,,,
,,,,,V3_060,21,female,2024-11-09_17h38.07.110,jersey_experiment_5_v3,2023.2.2,Win32,84.74576271,,,,,,,,,,,,,,,,658.4703,659.7646,659.7646,660.7291,return,0.1967,,86.45833333,,,,,,FBP-YG-71.png,0.4,1.2,3,0.5,,,,,,,,,,,,,0,52,52,2,1,,,,,,,,,,,,,,,,,,,,,,,,,,,,
,,,,,V3_060,21,female,2024-11-09_17h38.07.110,jersey_experiment_5_v3,2023.2.2,Win32,84.74576271,,,,,,,,,,,,,,,,660.7294,662.0234,662.0234,662.8233,return,0.096,,50.78125,,,,,,FBP-RB-18.png,0.37,1.2,52,0.5,,,,,,,,,,,,,0,53,53,51,1,,,,,,,,,,,,,,,,,,,,,,,,,,,,
,,,,,V3_060,21,female,2024-11-09_17h38.07.110,jersey_experiment_5_v3,2023.2.2,Win32,84.74576271,,,,,,,,,,,,,,,,662.8235,664.1175,664.1175,665.0469,return,0.1417,,78.25520833,,,,,,FBP-PT-18.png,0.43,1.2,24,0.5,,,,,,,,,,,,,0,54,54,23,1,,,,,,,,,,,,,,,,,,,,,,,,,,,,
,,,,,V3_060,21,female,2024-11-09_17h38.07.110,jersey_experiment_5_v3,2023.2.2,Win32,84.74576271,,,,,,,,,,,,,,,,665.0471,666.3409,666.3411,666.8353,return,0.1435,,78.25520833,,,,,,FBP-PT-18.png,0.45,1.2,25,0.5,,,,,,,,,,,,,0,55,55,24,1,,,,,,,,,,,,,,,,,,,,,,,,,,,,
,,,,,V3_060,21,female,2024-11-09_17h38.07.110,jersey_experiment_5_v3,2023.2.2,Win32,84.74576271,,,,,,,,,,,,,,,,666.8354,668.1295,668.1295,669.0588,return,0.1241,,68.61979167,,,,,,FBP-YG-71.png,0.37,1.2,2,0.5,,,,,,,,,,,,,0,56,56,1,1,,,,,,,,,,,,,,,,,,,,,,,,,,,,
,,,,,V3_060,21,female,2024-11-09_17h38.07.110,jersey_experiment_5_v3,2023.2.2,Win32,84.74576271,,,,,,,,,,,,,,,,669.0592,670.3529,670.353,672.0825,return,0.1227,,61.328125,,,,,,FBP-RB-17.png,0.35,1.2,46,0.5,,,,,,,,,,,,,0,57,57,45,1,,,,,,,,,,,,,,,,,,,,,,,,,,,,
,,,,,V3_060,21,female,2024-11-09_17h38.07.110,jersey_experiment_5_v3,2023.2.2,Win32,84.74576271,,,,,,,,,,,,,,,,672.0828,673.3767,673.3767,673.9298,return,0.0338,,59.375,,,,,,FBP-YG-81.png,0.37,1.2,7,0.5,,,,,,,,,,,,,0,58,58,6,1,,,,,,,,,,,,,,,,,,,,,,,,,,,,
,,,,,V3_060,21,female,2024-11-09_17h38.07.110,jersey_experiment_5_v3,2023.2.2,Win32,84.74576271,,,,,,,,,,,,,,,,673.9301,675.2237,675.2238,675.812,return,0.1108,,62.76041667,,,,,,FBP-YG-91.png,0.37,1.2,12,0.5,,,,,,,,,,,,,0,59,59,11,1,,,,,,,,,,,,,,,,,,,,,,,,,,,,
,,,,,V3_060,21,female,2024-11-09_17h38.07.110,jersey_experiment_5_v3,2023.2.2,Win32,84.74576271,,,,,,,,,,,,,,,,675.8134,677.1062,677.1062,677.8591,return,0.0765,,55.078125,,,,,,FBP-PT-81.png,0.35,1.2,21,0.5,,,,,,,,,,,,,,,,,,0,0,0,20,1,,,,,,,,,,,,,,,,,,,,,,,
,,,,,V3_060,21,female,2024-11-09_17h38.07.110,jersey_experiment_5_v3,2023.2.2,Win32,84.74576271,,,,,,,,,,,,,,,,677.8594,679.1535,679.1535,680.0593,return,0.1199,,89.58333333,,,,,,FBP-RB-91.png,0.43,1.2,59,0.5,,,,,,,,,,,,,,,,,,0,1,1,58,1,,,,,,,,,,,,,,,,,,,,,,,
,,,,,V3_060,21,female,2024-11-09_17h38.07.110,jersey_experiment_5_v3,2023.2.2,Win32,84.74576271,,,,,,,,,,,,,,,,680.0596,681.6122,681.6122,682.2594,return,0.0766,,98.4375,,,,,,FBP-OG-71.png,0.45,1.2,35,0.75,,,,,,,,,,,,,,,,,,0,2,2,34,1,,,,,,,,,,,,,,,,,,,,,,,
,,,,,V3_060,21,female,2024-11-09_17h38.07.110,jersey_experiment_5_v3,2023.2.2,Win32,84.74576271,,,,,,,,,,,,,,,,682.2596,683.5534,683.5534,684.7537,return,0.1725,,42.31770833,,,,,,FBP-YG-18.png,0.35,1.2,6,0.5,,,,,,,,,,,,,,,,,,0,3,3,5,1,,,,,,,,,,,,,,,,,,,,,,,
,,,,,V3_060,21,female,2024-11-09_17h38.07.110,jersey_experiment_5_v3,2023.2.2,Win32,84.74576271,,,,,,,,,,,,,,,,684.7538,686.3065,686.3066,686.9301,return,0.0659,,92.44791667,,,,,,FBP-OG-91.png,0.45,1.2,45,0.75,,,,,,,,,,,,,,,,,,0,4,4,44,1,,,,,,,,,,,,,,,,,,,,,,,
,,,,,V3_060,21,female,2024-11-09_17h38.07.110,jersey_experiment_5_v3,2023.2.2,Win32,84.74576271,,,,,,,,,,,,,,,,686.9304,688.2241,688.2243,689.589,return,0.8962,,84.50520833,,,,,,FBP-PT-71.png,0.43,1.2,19,0.5,,,,,,,,,,,,,,,,,,0,5,5,18,1,,,,,,,,,,,,,,,,,,,,,,,
,,,,,V3_060,21,female,2024-11-09_17h38.07.110,jersey_experiment_5_v3,2023.2.2,Win32,84.74576271,,,,,,,,,,,,,,,,689.5892,691.1422,691.1422,692.5656,return,0.8034,,97.78645833,,,,,,FBP-OG-91.png,0.43,1.2,44,0.75,,,,,,,,,,,,,,,,,,0,6,6,43,1,,,,,,,,,,,,,,,,,,,,,,,
,,,,,V3_060,21,female,2024-11-09_17h38.07.110,jersey_experiment_5_v3,2023.2.2,Win32,84.74576271,,,,,,,,,,,,,,,,692.5658,693.8597,693.8598,695.2832,return,0.6877,,97.52604167,,,,,,FBP-RB-71.png,0.4,1.2,48,0.5,,,,,,,,,,,,,,,,,,0,7,7,47,1,,,,,,,,,,,,,,,,,,,,,,,
,,,,,V3_060,21,female,2024-11-09_17h38.07.110,jersey_experiment_5_v3,2023.2.2,Win32,84.74576271,,,,,,,,,,,,,,,,695.2835,696.5776,696.5776,697.5893,return,0.0731,,53.25520833,,,,,,FBP-RB-91.png,0.35,1.2,56,0.5,,,,,,,,,,,,,,,,,,0,8,8,55,1,,,,,,,,,,,,,,,,,,,,,,,
,,,,,V3_060,21,female,2024-11-09_17h38.07.110,jersey_experiment_5_v3,2023.2.2,Win32,84.74576271,,,,,,,,,,,,,,,,697.5896,699.1423,699.1423,700.8719,return,0.4804,,53.38541667,,,,,,FBP-OG-71.png,0.37,1.2,32,0.75,,,,,,,,,,,,,,,,,,0,9,9,31,1,,,,,,,,,,,,,,,,,,,,,,,
,,,,,V3_060,21,female,2024-11-09_17h38.07.110,jersey_experiment_5_v3,2023.2.2,Win32,84.74576271,,,,,,,,,,,,,,,,700.8722,702.166,702.1661,704.3897,return,0.2269,,59.50520833,,,,,,FBP-YG-18.png,0.37,1.2,7,0.5,,,,,,,,,,,,,,,,,,0,10,10,6,1,,,,,,,,,,,,,,,,,,,,,,,
,,,,,V3_060,21,female,2024-11-09_17h38.07.110,jersey_experiment_5_v3,2023.2.2,Win32,84.74576271,,,,,,,,,,,,,,,,704.3899,705.9427,705.9428,706.4014,return,0.0783,,48.828125,,,,,,FBP-OG-71.png,0.35,1.2,31,0.75,,,,,,,,,,,,,,,,,,0,11,11,30,1,,,,,,,,,,,,,,,,,,,,,,,
,,,,,V3_060,21,female,2024-11-09_17h38.07.110,jersey_experiment_5_v3,2023.2.2,Win32,84.74576271,,,,,,,,,,,,,,,,706.4017,707.6956,707.6956,708.7309,return,0.0582,,92.31770833,,,,,,FBP-PT-91.png,0.4,1.2,28,0.5,,,,,,,,,,,,,,,,,,0,12,12,27,1,,,,,,,,,,,,,,,,,,,,,,,
,,,,,V3_060,21,female,2024-11-09_17h38.07.110,jersey_experiment_5_v3,2023.2.2,Win32,84.74576271,,,,,,,,,,,,,,,,708.7311,710.025,710.0251,711.3663,return,0.2615,,36.45833333,,,,,,FBP-PT-91.png,0.35,1.2,26,0.5,,,,,,,,,,,,,,,,,,0,13,13,25,1,,,,,,,,,,,,,,,,,,,,,,,
,,,,,V3_060,21,female,2024-11-09_17h38.07.110,jersey_experiment_5_v3,2023.2.2,Win32,84.74576271,,,,,,,,,,,,,,,,711.3666,712.9194,712.9196,713.6839,return,0.1816,,94.66145833,,,,,,FBP-OG-81.png,0.43,1.2,39,0.75,,,,,,,,,,,,,,,,,,0,14,14,38,1,,,,,,,,,,,,,,,,,,,,,,,
,,,,,V3_060,21,female,2024-11-09_17h38.07.110,jersey_experiment_5_v3,2023.2.2,Win32,84.74576271,,,,,,,,,,,,,,,,713.6842,714.9781,714.9781,715.5312,return,0.1284,,94.66145833,,,,,,FBP-PT-91.png,0.45,1.2,30,0.5,,,,,,,,,,,,,,,,,,0,15,15,29,1,,,,,,,,,,,,,,,,,,,,,,,
,,,,,V3_060,21,female,2024-11-09_17h38.07.110,jersey_experiment_5_v3,2023.2.2,Win32,84.74576271,,,,,,,,,,,,,,,,715.5314,716.8251,716.8252,717.6488,return,0.2671,,97.65625,,,,,,FBP-YG-19.png,0.45,1.2,15,0.5,,,,,,,,,,,,,,,,,,0,16,16,14,1,,,,,,,,,,,,,,,,,,,,,,,
,,,,,V3_060,21,female,2024-11-09_17h38.07.110,jersey_experiment_5_v3,2023.2.2,Win32,84.74576271,,,,,,,,,,,,,,,,717.6492,718.9431,718.9432,720.802,return,0.1485,,77.734375,,,,,,FBP-YG-17.png,0.4,1.2,3,0.5,,,,,,,,,,,,,,,,,,0,17,17,2,1,,,,,,,,,,,,,,,,,,,,,,,
,,,,,V3_060,21,female,2024-11-09_17h38.07.110,jersey_experiment_5_v3,2023.2.2,Win32,84.74576271,,,,,,,,,,,,,,,,720.8022,722.0961,722.0961,724.6491,return,0.0231,,74.73958333,,,,,,FBP-PT-81.png,0.45,1.2,25,0.5,,,,,,,,,,,,,,,,,,0,18,18,24,1,,,,,,,,,,,,,,,,,,,,,,,
,,,,,V3_060,21,female,2024-11-09_17h38.07.110,jersey_experiment_5_v3,2023.2.2,Win32,84.74576271,,,,,,,,,,,,,,,,724.6493,725.9432,725.9432,727.6258,return,0.7632,,67.578125,,,,,,FBP-PT-71.png,0.4,1.2,18,0.5,,,,,,,,,,,,,,,,,,0,19,19,17,1,,,,,,,,,,,,,,,,,,,,,,,
,,,,,V3_060,21,female,2024-11-09_17h38.07.110,jersey_experiment_5_v3,2023.2.2,Win32,84.74576271,,,,,,,,,,,,,,,,727.626,728.9199,728.9199,729.5081,return,0.0991,,79.55729167,,,,,,FBP-YG-17.png,0.43,1.2,4,0.5,,,,,,,,,,,,,,,,,,0,20,20,3,1,,,,,,,,,,,,,,,,,,,,,,,
,,,,,V3_060,21,female,2024-11-09_17h38.07.110,jersey_experiment_5_v3,2023.2.2,Win32,84.74576271,,,,,,,,,,,,,,,,729.5084,730.8023,730.8023,731.8964,return,0.0837,,45.3125,,,,,,FBP-PT-71.png,0.37,1.2,17,0.5,,,,,,,,,,,,,,,,,,0,21,21,16,1,,,,,,,,,,,,,,,,,,,,,,,
,,,,,V3_060,21,female,2024-11-09_17h38.07.110,jersey_experiment_5_v3,2023.2.2,Win32,84.74576271,,,,,,,,,,,,,,,,731.8967,733.1905,733.1905,733.9907,return,0.1553,,52.34375,,,,,,FBP-RB-81.png,0.4,1.2,53,0.5,,,,,,,,,,,,,,,,,,0,22,22,52,1,,,,,,,,,,,,,,,,,,,,,,,
,,,,,V3_060,21,female,2024-11-09_17h38.07.110,jersey_experiment_5_v3,2023.2.2,Win32,84.74576271,,,,,,,,,,,,,,,,733.991,735.2848,735.2849,735.9789,return,0.0787,,44.53125,,,,,,FBP-RB-71.png,0.37,1.2,47,0.5,,,,,,,,,,,,,,,,,,0,23,23,46,1,,,,,,,,,,,,,,,,,,,,,,,
,,,,,V3_060,21,female,2024-11-09_17h38.07.110,jersey_experiment_5_v3,2023.2.2,Win32,84.74576271,,,,,,,,,,,,,,,,735.9792,737.2731,737.2731,738.3086,return,0.1223,,35.80729167,,,,,,FBP-YG-19.png,0.35,1.2,11,0.5,,,,,,,,,,,,,,,,,,0,24,24,10,1,,,,,,,,,,,,,,,,,,,,,,,
,,,,,V3_060,21,female,2024-11-09_17h38.07.110,jersey_experiment_5_v3,2023.2.2,Win32,84.74576271,,,,,,,,,,,,,,,,738.3089,739.6027,739.6027,741.4261,return,0.3795,,30.72916667,,,,,,FBP-RB-71.png,0.35,1.2,46,0.5,,,,,,,,,,,,,,,,,,0,25,25,45,1,,,,,,,,,,,,,,,,,,,,,,,
,,,,,V3_060,21,female,2024-11-09_17h38.07.110,jersey_experiment_5_v3,2023.2.2,Win32,84.74576271,,,,,,,,,,,,,,,,741.4263,742.7205,742.7205,743.3675,return,0.0806,,27.60416667,,,,,,FBP-PT-71.png,0.35,1.2,16,0.5,,,,,,,,,,,,,,,,,,0,26,26,15,1,,,,,,,,,,,,,,,,,,,,,,,
,,,,,V3_060,21,female,2024-11-09_17h38.07.110,jersey_experiment_5_v3,2023.2.2,Win32,84.74576271,,,,,,,,,,,,,,,,743.3677,744.6618,744.6619,745.9204,return,0.1381,,91.40625,,,,,,FBP-YG-18.png,0.45,1.2,10,0.5,,,,,,,,,,,,,,,,,,0,27,27,9,1,,,,,,,,,,,,,,,,,,,,,,,
,,,,,V3_060,21,female,2024-11-09_17h38.07.110,jersey_experiment_5_v3,2023.2.2,Win32,84.74576271,,,,,,,,,,,,,,,,745.9207,747.2147,747.2147,747.9089,return,0.108,,93.22916667,,,,,,FBP-YG-17.png,0.45,1.2,5,0.5,,,,,,,,,,,,,,,,,,0,28,28,4,1,,,,,,,,,,,,,,,,,,,,,,,
,,,,,V3_060,21,female,2024-11-09_17h38.07.110,jersey_experiment_5_v3,2023.2.2,Win32,84.74576271,,,,,,,,,,,,,,,,747.9092,749.203,749.203,750.0853,return,0.1202,,83.46354167,,,,,,FBP-RB-71.png,0.43,1.2,49,0.5,,,,,,,,,,,,,,,,,,0,29,29,48,1,,,,,,,,,,,,,,,,,,,,,,,
,,,,,V3_060,21,female,2024-11-09_17h38.07.110,jersey_experiment_5_v3,2023.2.2,Win32,84.74576271,,,,,,,,,,,,,,,,750.0855,751.3794,751.3795,752.1207,return,0.1178,,91.66666667,,,,,,FBP-RB-71.png,0.45,1.2,50,0.5,,,,,,,,,,,,,,,,,,0,30,30,49,1,,,,,,,,,,,,,,,,,,,,,,,
,,,,,V3_060,21,female,2024-11-09_17h38.07.110,jersey_experiment_5_v3,2023.2.2,Win32,84.74576271,,,,,,,,,,,,,,,,752.1209,753.4149,753.4149,754.4386,return,0.1092,,41.66666667,,,,,,FBP-YG-17.png,0.37,1.2,2,0.5,,,,,,,,,,,,,,,,,,0,31,31,1,1,,,,,,,,,,,,,,,,,,,,,,,
,,,,,V3_060,21,female,2024-11-09_17h38.07.110,jersey_experiment_5_v3,2023.2.2,Win32,84.74576271,,,,,,,,,,,,,,,,754.4388,755.7326,755.7327,756.6269,return,0.146,,30.46875,,,,,,FBP-YG-17.png,0.35,1.2,1,0.5,,,,,,,,,,,,,,,,,,0,32,32,0,1,,,,,,,,,,,,,,,,,,,,,,,
,,,,,V3_060,21,female,2024-11-09_17h38.07.110,jersey_experiment_5_v3,2023.2.2,Win32,84.74576271,,,,,,,,,,,,,,,,756.627,758.18,758.18,758.8504,return,0.1244,,71.22395833,,,,,,FBP-OG-91.png,0.4,1.2,43,0.75,,,,,,,,,,,,,,,,,,0,33,33,42,1,,,,,,,,,,,,,,,,,,,,,,,
,,,,,V3_060,21,female,2024-11-09_17h38.07.110,jersey_experiment_5_v3,2023.2.2,Win32,84.74576271,,,,,,,,,,,,,,,,758.8506,760.1445,760.1445,761.6858,return,0.0862,,51.30208333,,,,,,FBP-RB-81.png,0.37,1.2,52,0.5,,,,,,,,,,,,,,,,,,0,34,34,51,1,,,,,,,,,,,,,,,,,,,,,,,
,,,,,V3_060,21,female,2024-11-09_17h38.07.110,jersey_experiment_5_v3,2023.2.2,Win32,84.74576271,,,,,,,,,,,,,,,,761.6861,762.98,762.98,764.3566,return,0.0753,,63.671875,,,,,,FBP-PT-81.png,0.37,1.2,22,0.5,,,,,,,,,,,,,,,,,,0,35,35,21,1,,,,,,,,,,,,,,,,,,,,,,,
,,,,,V3_060,21,female,2024-11-09_17h38.07.110,jersey_experiment_5_v3,2023.2.2,Win32,84.74576271,,,,,,,,,,,,,,,,764.3569,765.9095,765.9095,766.7095,return,0.2391,,81.51041667,,,,,,FBP-OG-71.png,0.43,1.2,34,0.75,,,,,,,,,,,,,,,,,,0,36,36,33,1,,,,,,,,,,,,,,,,,,,,,,,
,,,,,V3_060,21,female,2024-11-09_17h38.07.110,jersey_experiment_5_v3,2023.2.2,Win32,84.74576271,,,,,,,,,,,,,,,,766.7097,768.0037,768.0037,768.6979,return,0.1316,,86.71875,,,,,,FBP-PT-81.png,0.43,1.2,24,0.5,,,,,,,,,,,,,,,,,,0,37,37,23,1,,,,,,,,,,,,,,,,,,,,,,,
,,,,,V3_060,21,female,2024-11-09_17h38.07.110,jersey_experiment_5_v3,2023.2.2,Win32,84.74576271,,,,,,,,,,,,,,,,768.6982,770.251,770.2511,772.9215,return,0.8472,,53.125,,,,,,FBP-OG-91.png,0.35,1.2,41,0.75,,,,,,,,,,,,,,,,,,0,38,38,40,1,,,,,,,,,,,,,,,,,,,,,,,
,,,,,V3_060,21,female,2024-11-09_17h38.07.110,jersey_experiment_5_v3,2023.2.2,Win32,84.74576271,,,,,,,,,,,,,,,,772.9218,774.2155,774.2157,775.0981,return,0.2828,,63.80208333,,,,,,FBP-YG-18.png,0.4,1.2,8,0.5,,,,,,,,,,,,,,,,,,0,39,39,7,1,,,,,,,,,,,,,,,,,,,,,,,
,,,,,V3_060,21,female,2024-11-09_17h38.07.110,jersey_experiment_5_v3,2023.2.2,Win32,84.74576271,,,,,,,,,,,,,,,,775.0984,776.3922,776.3924,777.0041,return,0.0921,,69.27083333,,,,,,FBP-YG-19.png,0.4,1.2,13,0.5,,,,,,,,,,,,,,,,,,0,40,40,12,1,,,,,,,,,,,,,,,,,,,,,,,
,,,,,V3_060,21,female,2024-11-09_17h38.07.110,jersey_experiment_5_v3,2023.2.2,Win32,84.74576271,,,,,,,,,,,,,,,,777.0043,778.2983,778.2983,778.9806,return,0.0868,,48.69791667,,,,,,FBP-PT-91.png,0.37,1.2,27,0.5,,,,,,,,,,,,,,,,,,0,41,41,26,1,,,,,,,,,,,,,,,,,,,,,,,
,,,,,V3_060,21,female,2024-11-09_17h38.07.110,jersey_experiment_5_v3,2023.2.2,Win32,84.74576271,,,,,,,,,,,,,,,,778.9808,780.2749,780.2749,780.8747,return,0.0942,,83.59375,,,,,,FBP-RB-81.png,0.43,1.2,54,0.5,,,,,,,,,,,,,,,,,,0,42,42,53,1,,,,,,,,,,,,,,,,,,,,,,,
,,,,,V3_060,21,female,2024-11-09_17h38.07.110,jersey_experiment_5_v3,2023.2.2,Win32,84.74576271,,,,,,,,,,,,,,,,780.8749,782.1689,782.169,782.7101,return,0.0501,,86.19791667,,,,,,FBP-PT-71.png,0.45,1.2,20,0.5,,,,,,,,,,,,,,,,,,0,43,43,19,1,,,,,,,,,,,,,,,,,,,,,,,
,,,,,V3_060,21,female,2024-11-09_17h38.07.110,jersey_experiment_5_v3,2023.2.2,Win32,84.74576271,,,,,,,,,,,,,,,,782.7103,784.0044,784.0045,784.4984,return,0.0382,,71.875,,,,,,FBP-PT-81.png,0.4,1.2,23,0.5,,,,,,,,,,,,,,,,,,0,44,44,22,1,,,,,,,,,,,,,,,,,,,,,,,
,,,,,V3_060,21,female,2024-11-09_17h38.07.110,jersey_experiment_5_v3,2023.2.2,Win32,84.74576271,,,,,,,,,,,,,,,,784.4987,785.7927,785.7927,787.1457,return,0.1096,,23.828125,,,,,,FBP-RB-81.png,0.35,1.2,51,0.5,,,,,,,,,,,,,,,,,,0,45,45,50,1,,,,,,,,,,,,,,,,,,,,,,,
,,,,,V3_060,21,female,2024-11-09_17h38.07.110,jersey_experiment_5_v3,2023.2.2,Win32,84.74576271,,,,,,,,,,,,,,,,787.1459,788.4398,788.4399,789.2398,return,0.0727,,38.54166667,,,,,,FBP-RB-91.png,0.37,1.2,57,0.5,,,,,,,,,,,,,,,,,,0,46,46,56,1,,,,,,,,,,,,,,,,,,,,,,,
,,,,,V3_060,21,female,2024-11-09_17h38.07.110,jersey_experiment_5_v3,2023.2.2,Win32,84.74576271,,,,,,,,,,,,,,,,789.24,790.5342,790.5342,791.287,return,0.0629,,92.83854167,,,,,,FBP-YG-19.png,0.43,1.2,14,0.5,,,,,,,,,,,,,,,,,,0,47,47,13,1,,,,,,,,,,,,,,,,,,,,,,,
,,,,,V3_060,21,female,2024-11-09_17h38.07.110,jersey_experiment_5_v3,2023.2.2,Win32,84.74576271,,,,,,,,,,,,,,,,791.2873,792.5812,792.5812,793.9695,return,0.0669,,88.28125,,,,,,FBP-RB-91.png,0.4,1.2,58,0.5,,,,,,,,,,,,,,,,,,0,48,48,57,1,,,,,,,,,,,,,,,,,,,,,,,
,,,,,V3_060,21,female,2024-11-09_17h38.07.110,jersey_experiment_5_v3,2023.2.2,Win32,84.74576271,,,,,,,,,,,,,,,,793.9697,795.5226,795.5226,796.2754,return,0.0968,,43.22916667,,,,,,FBP-OG-81.png,0.35,1.2,36,0.75,,,,,,,,,,,,,,,,,,0,49,49,35,1,,,,,,,,,,,,,,,,,,,,,,,
,,,,,V3_060,21,female,2024-11-09_17h38.07.110,jersey_experiment_5_v3,2023.2.2,Win32,84.74576271,,,,,,,,,,,,,,,,796.2756,797.5695,797.5696,799.0283,return,0.4635,,57.421875,,,,,,FBP-YG-19.png,0.37,1.2,12,0.5,,,,,,,,,,,,,,,,,,0,50,50,11,1,,,,,,,,,,,,,,,,,,,,,,,
,,,,,V3_060,21,female,2024-11-09_17h38.07.110,jersey_experiment_5_v3,2023.2.2,Win32,84.74576271,,,,,,,,,,,,,,,,799.0286,800.5815,800.5816,801.7931,return,0.1725,,67.578125,,,,,,FBP-OG-71.png,0.4,1.2,33,0.75,,,,,,,,,,,,,,,,,,0,51,51,32,1,,,,,,,,,,,,,,,,,,,,,,,
,,,,,V3_060,21,female,2024-11-09_17h38.07.110,jersey_experiment_5_v3,2023.2.2,Win32,84.74576271,,,,,,,,,,,,,,,,801.7934,803.0873,803.0874,804.0755,return,0.1648,,94.921875,,,,,,FBP-RB-91.png,0.45,1.2,60,0.5,,,,,,,,,,,,,,,,,,0,52,52,59,1,,,,,,,,,,,,,,,,,,,,,,,
,,,,,V3_060,21,female,2024-11-09_17h38.07.110,jersey_experiment_5_v3,2023.2.2,Win32,84.74576271,,,,,,,,,,,,,,,,804.0757,805.3697,805.3698,806.3464,return,0.4946,,94.66145833,,,,,,FBP-YG-18.png,0.43,1.2,9,0.5,,,,,,,,,,,,,,,,,,0,53,53,8,1,,,,,,,,,,,,,,,,,,,,,,,
,,,,,V3_060,21,female,2024-11-09_17h38.07.110,jersey_experiment_5_v3,2023.2.2,Win32,84.74576271,,,,,,,,,,,,,,,,806.3465,807.8994,807.8994,808.5345,return,0.0005,,88.54166667,,,,,,FBP-OG-81.png,0.45,1.2,40,0.75,,,,,,,,,,,,,,,,,,0,54,54,39,1,,,,,,,,,,,,,,,,,,,,,,,
,,,,,V3_060,21,female,2024-11-09_17h38.07.110,jersey_experiment_5_v3,2023.2.2,Win32,84.74576271,,,,,,,,,,,,,,,,808.5348,809.8288,809.8289,810.4524,return,0.1305,,89.58333333,,,,,,FBP-RB-81.png,0.45,1.2,55,0.5,,,,,,,,,,,,,,,,,,0,55,55,54,1,,,,,,,,,,,,,,,,,,,,,,,
,,,,,V3_060,21,female,2024-11-09_17h38.07.110,jersey_experiment_5_v3,2023.2.2,Win32,84.74576271,,,,,,,,,,,,,,,,810.4527,812.0055,812.0055,813.4406,return,0.6285,,47.13541667,,,,,,FBP-OG-91.png,0.37,1.2,42,0.75,,,,,,,,,,,,,,,,,,0,56,56,41,1,,,,,,,,,,,,,,,,,,,,,,,
,,,,,V3_060,21,female,2024-11-09_17h38.07.110,jersey_experiment_5_v3,2023.2.2,Win32,84.74576271,,,,,,,,,,,,,,,,813.4409,814.7349,814.735,815.6878,return,0.2611,,67.578125,,,,,,FBP-PT-91.png,0.43,1.2,29,0.5,,,,,,,,,,,,,,,,,,0,57,57,28,1,,,,,,,,,,,,,,,,,,,,,,,
,,,,,V3_060,21,female,2024-11-09_17h38.07.110,jersey_experiment_5_v3,2023.2.2,Win32,84.74576271,,,,,,,,,,,,,,,,815.6881,817.2409,817.2409,817.9114,return,0.0253,,51.30208333,,,,,,FBP-OG-81.png,0.37,1.2,37,0.75,,,,,,,,,,,,,,,,,,0,58,58,36,1,,,,,,,,,,,,,,,,,,,,,,,
,,,,,V3_060,21,female,2024-11-09_17h38.07.110,jersey_experiment_5_v3,2023.2.2,Win32,84.74576271,,,,,,,,,,,,,,,,817.9116,819.4529,819.4529,820.1233,return,0.1279,,57.03125,,,,,,FBP-OG-81.png,0.4,1.2,38,0.75,,,,,,,,,,,,,,,,,,0,59,59,37,1,,,,,,,,,,,,,,,,,,,,,,,
,,,,,V3_060,21,female,2024-11-09_17h38.07.110,jersey_experiment_5_v3,2023.2.2,Win32,84.74576271,,,,,,,,,,,,,,,,,,,,,,,,,,,,,,,,,,,,,,,,,,,,,,,,,,,,,,,,820.1233,827.0648,return,6.9276,,,,,,,,,,,,,,,,,,,
,,,,,V3_060,21,female,2024-11-09_17h38.07.110,jersey_experiment_5_v3,2023.2.2,Win32,84.74576271,,,,,,,,,,,,,,,,,,,,,,,,,,,,,,,,,,,,,,,,,,,,,,,,,,,,,,,,,,,,,827.0648,833.018,1,4.0553,return,1.8822,,,,,,,,,,,,
,,,,,V3_060,21,female,2024-11-09_17h38.07.110,jersey_experiment_5_v3,2023.2.2,Win32,84.74576271,,,,,,,,,,,,,,,,,,,,,,,,,,,,,,,,,,,,,,,,,,,,,,,,,,,,,,,,,,,,,,,,,,,,833.018,916.5512,I am not sure. I think I answered questions on the number line off because I never clicked really slender as much. Maybe the player beforehand affects the choice of the next player.,right,71.746,,,,,,
,,,,,V3_060,21,female,2024-11-09_17h38.07.110,jersey_experiment_5_v3,2023.2.2,Win32,84.74576271,,,,,,,,,,,,,,,,,,,,,,,,,,,,,,,,,,,,,,,,,,,,,,,,,,,,,,,,,,,,,,,,,,,,,,,,,,916.5513,919.9859,return,3.4269,