requirements.started,requirements.stopped,key_resp_3.keys,key_resp_3.rt,key_resp_3.duration,Subject ID,Age,Gender,date,expName,psychopyVersion,OS,frameRate,instructions1.started,instructions1.stopped,key_resp.keys,key_resp.rt,key_resp.duration,example.started,example.stopped,enter_2.keys,enter_2.rt,enter_2.duration,instructions2.started,instructions2.stopped,enter_3.keys,enter_3.rt,enter_3.duration,image.started,image.stopped,slider_2.started,slider_2.stopped,next.keys,next.rt,next.duration,slider.response,trial_block_1.thisRepN,trial_block_1.thisTrialN,trial_block_1.thisN,trial_block_1.thisIndex,trial_block_1.ran,Path,Width,Height,Index,Duration,trial_block_2.thisRepN,trial_block_2.thisTrialN,trial_block_2.thisN,trial_block_2.thisIndex,trial_block_2.ran,rest_break.started,rest_break.stopped,end_break.started,end_break.stopped,key_resp_5.keys,key_resp_5.rt,key_resp_5.duration,trial_block_3.thisRepN,trial_block_3.thisTrialN,trial_block_3.thisN,trial_block_3.thisIndex,trial_block_3.ran,trial_block_4.thisRepN,trial_block_4.thisTrialN,trial_block_4.thisN,trial_block_4.thisIndex,trial_block_4.ran,questions_intro.started,questions_intro.stopped,enter_12.keys,enter_12.rt,enter_12.duration,question2.started,question2.stopped,question_doingbest.response,question_doingbest.rt,enter_15.keys,enter_15.rt,enter_15.duration,pattern.started,pattern.stopped,pattern_2.text,enter_17.keys,enter_17.rt,enter_17.duration,thankyou.started,thankyou.stopped,enter_14.keys,enter_14.rt,enter_14.duration
0.0001,5.9555,return,5.9462,,V3_011,20,female,2024-10-15_16h31.55.119,jersey_experiment_5_v3,2023.2.2,Win32,84.74576271,,,,,,,,,,,,,,,,,,,,,,,,,,,,,,,,,,,,,,,,,,,,,,,,,,,,,,,,,,,,,,,,,,,,,,,,,,,,,,
,,,,,V3_011,20,female,2024-10-15_16h31.55.119,jersey_experiment_5_v3,2023.2.2,Win32,84.74576271,5.9556,13.0263,return,7.0438,,,,,,,,,,,,,,,,,,,,,,,,,,,,,,,,,,,,,,,,,,,,,,,,,,,,,,,,,,,,,,,,,,,,,,,,,,
,,,,,V3_011,20,female,2024-10-15_16h31.55.119,jersey_experiment_5_v3,2023.2.2,Win32,84.74576271,,,,,,13.0264,17.6502,return,4.5876,,,,,,,,,,,,,,,,,,,,,,,,,,,,,,,,,,,,,,,,,,,,,,,,,,,,,,,,,,,,,,,,,,,,,
,,,,,V3_011,20,female,2024-10-15_16h31.55.119,jersey_experiment_5_v3,2023.2.2,Win32,84.74576271,,,,,,,,,,,17.6503,37.7566,return,20.0976,,,,,,,,,,,,,,,,,,,,,,,,,,,,,,,,,,,,,,,,,,,,,,,,,,,,,,,,,,,,,,,,
,,,,,V3_011,20,female,2024-10-15_16h31.55.119,jersey_experiment_5_v3,2023.2.2,Win32,84.74576271,,,,,,,,,,,,,,,,37.7587,39.0508,39.0508,48.9453,return,3.2598,,49.86979167,0,0,0,40,1,FBP-OG-19.png,0.35,1.2,41,0.5,,,,,,,,,,,,,,,,,,,,,,,,,,,,,,,,,,,,,,,,,,,,,
,,,,,V3_011,20,female,2024-10-15_16h31.55.119,jersey_experiment_5_v3,2023.2.2,Win32,84.74576271,,,,,,,,,,,,,,,,48.9456,50.4983,50.4983,53.2512,return,1.331,,24.34895833,0,1,1,5,1,FBP-YG-81.png,0.35,1.2,6,0.75,,,,,,,,,,,,,,,,,,,,,,,,,,,,,,,,,,,,,,,,,,,,,
,,,,,V3_011,20,female,2024-10-15_16h31.55.119,jersey_experiment_5_v3,2023.2.2,Win32,84.74576271,,,,,,,,,,,,,,,,53.2514,54.8042,54.8043,58.3926,return,0.6207,,50,0,2,2,58,1,FBP-RB-19.png,0.43,1.2,59,0.75,,,,,,,,,,,,,,,,,,,,,,,,,,,,,,,,,,,,,,,,,,,,,
,,,,,V3_011,20,female,2024-10-15_16h31.55.119,jersey_experiment_5_v3,2023.2.2,Win32,84.74576271,,,,,,,,,,,,,,,,58.3928,59.9456,59.9456,61.7104,return,0.6146,,25.78125,0,3,3,55,1,FBP-RB-19.png,0.35,1.2,56,0.75,,,,,,,,,,,,,,,,,,,,,,,,,,,,,,,,,,,,,,,,,,,,,
,,,,,V3_011,20,female,2024-10-15_16h31.55.119,jersey_experiment_5_v3,2023.2.2,Win32,84.74576271,,,,,,,,,,,,,,,,61.7105,63.0046,63.0046,64.4281,return,0.4408,,25.390625,0,4,4,36,1,FBP-OG-18.png,0.37,1.2,37,0.5,,,,,,,,,,,,,,,,,,,,,,,,,,,,,,,,,,,,,,,,,,,,,
,,,,,V3_011,20,female,2024-10-15_16h31.55.119,jersey_experiment_5_v3,2023.2.2,Win32,84.74576271,,,,,,,,,,,,,,,,64.4283,65.9811,65.9811,68.2048,return,0.4364,,49.609375,0,5,5,0,1,FBP-YG-71.png,0.35,1.2,1,0.75,,,,,,,,,,,,,,,,,,,,,,,,,,,,,,,,,,,,,,,,,,,,,
,,,,,V3_011,20,female,2024-10-15_16h31.55.119,jersey_experiment_5_v3,2023.2.2,Win32,84.74576271,,,,,,,,,,,,,,,,68.205,69.7578,69.7578,71.9225,return,1.3497,,75.52083333,0,6,6,53,1,FBP-RB-18.png,0.43,1.2,54,0.75,,,,,,,,,,,,,,,,,,,,,,,,,,,,,,,,,,,,,,,,,,,,,
,,,,,V3_011,20,female,2024-10-15_16h31.55.119,jersey_experiment_5_v3,2023.2.2,Win32,84.74576271,,,,,,,,,,,,,,,,71.9226,73.4637,73.4638,75.1814,return,0.5332,,67.05729167,0,7,7,8,1,FBP-YG-81.png,0.43,1.2,9,0.75,,,,,,,,,,,,,,,,,,,,,,,,,,,,,,,,,,,,,,,,,,,,,
,,,,,V3_011,20,female,2024-10-15_16h31.55.119,jersey_experiment_5_v3,2023.2.2,Win32,84.74576271,,,,,,,,,,,,,,,,75.1816,76.7232,76.7232,80.0405,return,1.5719,,25.52083333,0,8,8,45,1,FBP-RB-17.png,0.35,1.2,46,0.75,,,,,,,,,,,,,,,,,,,,,,,,,,,,,,,,,,,,,,,,,,,,,
,,,,,V3_011,20,female,2024-10-15_16h31.55.119,jersey_experiment_5_v3,2023.2.2,Win32,84.74576271,,,,,,,,,,,,,,,,80.0406,81.3346,81.3346,82.7818,return,0.486,,24.73958333,0,9,9,30,1,FBP-OG-17.png,0.35,1.2,31,0.5,,,,,,,,,,,,,,,,,,,,,,,,,,,,,,,,,,,,,,,,,,,,,
,,,,,V3_011,20,female,2024-10-15_16h31.55.119,jersey_experiment_5_v3,2023.2.2,Win32,84.74576271,,,,,,,,,,,,,,,,82.782,84.3348,84.3348,86.476,return,0.3103,,83.72395833,0,10,10,4,1,FBP-YG-71.png,0.45,1.2,5,0.75,,,,,,,,,,,,,,,,,,,,,,,,,,,,,,,,,,,,,,,,,,,,,
,,,,,V3_011,20,female,2024-10-15_16h31.55.119,jersey_experiment_5_v3,2023.2.2,Win32,84.74576271,,,,,,,,,,,,,,,,86.4761,87.7702,87.7702,89.0643,return,0.3117,,46.09375,0,11,11,41,1,FBP-OG-19.png,0.37,1.2,42,0.5,,,,,,,,,,,,,,,,,,,,,,,,,,,,,,,,,,,,,,,,,,,,,
,,,,,V3_011,20,female,2024-10-15_16h31.55.119,jersey_experiment_5_v3,2023.2.2,Win32,84.74576271,,,,,,,,,,,,,,,,89.0644,90.6056,90.6056,91.7585,return,0.2381,,80.20833333,0,12,12,49,1,FBP-RB-17.png,0.45,1.2,50,0.75,,,,,,,,,,,,,,,,,,,,,,,,,,,,,,,,,,,,,,,,,,,,,
,,,,,V3_011,20,female,2024-10-15_16h31.55.119,jersey_experiment_5_v3,2023.2.2,Win32,84.74576271,,,,,,,,,,,,,,,,91.7586,93.3116,93.3117,94.2997,return,0.2021,,66.14583333,0,13,13,57,1,FBP-RB-19.png,0.4,1.2,58,0.75,,,,,,,,,,,,,,,,,,,,,,,,,,,,,,,,,,,,,,,,,,,,,
,,,,,V3_011,20,female,2024-10-15_16h31.55.119,jersey_experiment_5_v3,2023.2.2,Win32,84.74576271,,,,,,,,,,,,,,,,94.2999,95.8528,95.8529,96.947,return,0.1653,,44.79166667,0,14,14,16,1,FBP-PT-17.png,0.37,1.2,17,0.75,,,,,,,,,,,,,,,,,,,,,,,,,,,,,,,,,,,,,,,,,,,,,
,,,,,V3_011,20,female,2024-10-15_16h31.55.119,jersey_experiment_5_v3,2023.2.2,Win32,84.74576271,,,,,,,,,,,,,,,,96.9472,98.5,98.5,99.9705,return,0.1266,,42.70833333,0,15,15,50,1,FBP-RB-18.png,0.35,1.2,51,0.75,,,,,,,,,,,,,,,,,,,,,,,,,,,,,,,,,,,,,,,,,,,,,
,,,,,V3_011,20,female,2024-10-15_16h31.55.119,jersey_experiment_5_v3,2023.2.2,Win32,84.74576271,,,,,,,,,,,,,,,,99.9707,101.5237,101.5237,103.4179,return,1.0549,,36.45833333,0,16,16,17,1,FBP-PT-17.png,0.4,1.2,18,0.75,,,,,,,,,,,,,,,,,,,,,,,,,,,,,,,,,,,,,,,,,,,,,
,,,,,V3_011,20,female,2024-10-15_16h31.55.119,jersey_experiment_5_v3,2023.2.2,Win32,84.74576271,,,,,,,,,,,,,,,,103.4181,104.9709,104.971,106.2531,return,0.3674,,67.70833333,0,17,17,23,1,FBP-PT-18.png,0.43,1.2,24,0.75,,,,,,,,,,,,,,,,,,,,,,,,,,,,,,,,,,,,,,,,,,,,,
,,,,,V3_011,20,female,2024-10-15_16h31.55.119,jersey_experiment_5_v3,2023.2.2,Win32,84.74576271,,,,,,,,,,,,,,,,106.2533,107.7946,107.7947,108.6651,return,0.2168,,86.97916667,0,18,18,14,1,FBP-YG-91.png,0.45,1.2,15,0.75,,,,,,,,,,,,,,,,,,,,,,,,,,,,,,,,,,,,,,,,,,,,,
,,,,,V3_011,20,female,2024-10-15_16h31.55.119,jersey_experiment_5_v3,2023.2.2,Win32,84.74576271,,,,,,,,,,,,,,,,108.6654,109.9592,109.9592,111.4063,return,0.3882,,70.703125,0,19,19,38,1,FBP-OG-18.png,0.43,1.2,39,0.5,,,,,,,,,,,,,,,,,,,,,,,,,,,,,,,,,,,,,,,,,,,,,
,,,,,V3_011,20,female,2024-10-15_16h31.55.119,jersey_experiment_5_v3,2023.2.2,Win32,84.74576271,,,,,,,,,,,,,,,,111.4065,112.9593,112.9593,114.4888,return,0.1366,,42.44791667,0,20,20,11,1,FBP-YG-91.png,0.37,1.2,12,0.75,,,,,,,,,,,,,,,,,,,,,,,,,,,,,,,,,,,,,,,,,,,,,
,,,,,V3_011,20,female,2024-10-15_16h31.55.119,jersey_experiment_5_v3,2023.2.2,Win32,84.74576271,,,,,,,,,,,,,,,,114.4889,116.0419,116.042,117.2888,return,0.2204,,58.203125,0,21,21,29,1,FBP-PT-19.png,0.45,1.2,30,0.75,,,,,,,,,,,,,,,,,,,,,,,,,,,,,,,,,,,,,,,,,,,,,
,,,,,V3_011,20,female,2024-10-15_16h31.55.119,jersey_experiment_5_v3,2023.2.2,Win32,84.74576271,,,,,,,,,,,,,,,,117.289,118.8421,118.8421,119.8184,return,0.1703,,39.19270833,0,22,22,20,1,FBP-PT-18.png,0.35,1.2,21,0.75,,,,,,,,,,,,,,,,,,,,,,,,,,,,,,,,,,,,,,,,,,,,,
,,,,,V3_011,20,female,2024-10-15_16h31.55.119,jersey_experiment_5_v3,2023.2.2,Win32,84.74576271,,,,,,,,,,,,,,,,119.8185,121.3714,121.3714,122.3008,return,0.1926,,39.58333333,0,23,23,22,1,FBP-PT-18.png,0.4,1.2,23,0.75,,,,,,,,,,,,,,,,,,,,,,,,,,,,,,,,,,,,,,,,,,,,,
,,,,,V3_011,20,female,2024-10-15_16h31.55.119,jersey_experiment_5_v3,2023.2.2,Win32,84.74576271,,,,,,,,,,,,,,,,122.3009,123.8539,123.8539,124.6186,return,0.1683,,53.38541667,0,24,24,24,1,FBP-PT-18.png,0.45,1.2,25,0.75,,,,,,,,,,,,,,,,,,,,,,,,,,,,,,,,,,,,,,,,,,,,,
,,,,,V3_011,20,female,2024-10-15_16h31.55.119,jersey_experiment_5_v3,2023.2.2,Win32,84.74576271,,,,,,,,,,,,,,,,124.6187,125.9126,125.9127,127.0069,return,0.2381,,48.56770833,0,25,25,42,1,FBP-OG-19.png,0.4,1.2,43,0.5,,,,,,,,,,,,,,,,,,,,,,,,,,,,,,,,,,,,,,,,,,,,,
,,,,,V3_011,20,female,2024-10-15_16h31.55.119,jersey_experiment_5_v3,2023.2.2,Win32,84.74576271,,,,,,,,,,,,,,,,127.007,128.56,128.56,129.7598,return,0.1664,,37.36979167,0,26,26,51,1,FBP-RB-18.png,0.37,1.2,52,0.75,,,,,,,,,,,,,,,,,,,,,,,,,,,,,,,,,,,,,,,,,,,,,
,,,,,V3_011,20,female,2024-10-15_16h31.55.119,jersey_experiment_5_v3,2023.2.2,Win32,84.74576271,,,,,,,,,,,,,,,,129.7599,131.3011,131.3011,132.2189,return,0.1469,,47.65625,0,27,27,27,1,FBP-PT-19.png,0.4,1.2,28,0.75,,,,,,,,,,,,,,,,,,,,,,,,,,,,,,,,,,,,,,,,,,,,,
,,,,,V3_011,20,female,2024-10-15_16h31.55.119,jersey_experiment_5_v3,2023.2.2,Win32,84.74576271,,,,,,,,,,,,,,,,132.219,133.7719,133.772,134.7367,return,0.1867,,48.17708333,0,28,28,12,1,FBP-YG-91.png,0.4,1.2,13,0.75,,,,,,,,,,,,,,,,,,,,,,,,,,,,,,,,,,,,,,,,,,,,,
,,,,,V3_011,20,female,2024-10-15_16h31.55.119,jersey_experiment_5_v3,2023.2.2,Win32,84.74576271,,,,,,,,,,,,,,,,134.7368,136.2895,136.2896,137.725,return,0.2751,,49.34895833,0,29,29,26,1,FBP-PT-19.png,0.37,1.2,27,0.75,,,,,,,,,,,,,,,,,,,,,,,,,,,,,,,,,,,,,,,,,,,,,
,,,,,V3_011,20,female,2024-10-15_16h31.55.119,jersey_experiment_5_v3,2023.2.2,Win32,84.74576271,,,,,,,,,,,,,,,,137.7252,139.0191,139.0191,139.772,return,0.1819,,49.73958333,0,30,30,32,1,FBP-OG-17.png,0.4,1.2,33,0.5,,,,,,,,,,,,,,,,,,,,,,,,,,,,,,,,,,,,,,,,,,,,,
,,,,,V3_011,20,female,2024-10-15_16h31.55.119,jersey_experiment_5_v3,2023.2.2,Win32,84.74576271,,,,,,,,,,,,,,,,139.7721,141.3133,141.3133,142.8781,return,0.1912,,60.546875,0,31,31,18,1,FBP-PT-17.png,0.43,1.2,19,0.75,,,,,,,,,,,,,,,,,,,,,,,,,,,,,,,,,,,,,,,,,,,,,
,,,,,V3_011,20,female,2024-10-15_16h31.55.119,jersey_experiment_5_v3,2023.2.2,Win32,84.74576271,,,,,,,,,,,,,,,,142.8782,144.431,144.4311,145.1369,return,0.1888,,60.80729167,0,32,32,2,1,FBP-YG-71.png,0.4,1.2,3,0.75,,,,,,,,,,,,,,,,,,,,,,,,,,,,,,,,,,,,,,,,,,,,,
,,,,,V3_011,20,female,2024-10-15_16h31.55.119,jersey_experiment_5_v3,2023.2.2,Win32,84.74576271,,,,,,,,,,,,,,,,145.1371,146.6899,146.6899,147.5959,return,0.1703,,55.33854167,0,33,33,46,1,FBP-RB-17.png,0.37,1.2,47,0.75,,,,,,,,,,,,,,,,,,,,,,,,,,,,,,,,,,,,,,,,,,,,,
,,,,,V3_011,20,female,2024-10-15_16h31.55.119,jersey_experiment_5_v3,2023.2.2,Win32,84.74576271,,,,,,,,,,,,,,,,147.5961,148.89,148.8901,150.7019,return,0.8977,,75.52083333,0,34,34,39,1,FBP-OG-18.png,0.45,1.2,40,0.5,,,,,,,,,,,,,,,,,,,,,,,,,,,,,,,,,,,,,,,,,,,,,
,,,,,V3_011,20,female,2024-10-15_16h31.55.119,jersey_experiment_5_v3,2023.2.2,Win32,84.74576271,,,,,,,,,,,,,,,,150.702,152.2548,152.2549,153.5137,return,0.7725,,71.61458333,0,35,35,7,1,FBP-YG-81.png,0.4,1.2,8,0.75,,,,,,,,,,,,,,,,,,,,,,,,,,,,,,,,,,,,,,,,,,,,,
,,,,,V3_011,20,female,2024-10-15_16h31.55.119,jersey_experiment_5_v3,2023.2.2,Win32,84.74576271,,,,,,,,,,,,,,,,153.5139,155.0669,155.067,155.9961,return,0.2508,,81.77083333,0,36,36,59,1,FBP-RB-19.png,0.45,1.2,60,0.75,,,,,,,,,,,,,,,,,,,,,,,,,,,,,,,,,,,,,,,,,,,,,
,,,,,V3_011,20,female,2024-10-15_16h31.55.119,jersey_experiment_5_v3,2023.2.2,Win32,84.74576271,,,,,,,,,,,,,,,,155.9963,157.5492,157.5493,159.1847,return,0.2011,,36.84895833,0,37,37,15,1,FBP-PT-17.png,0.35,1.2,16,0.75,,,,,,,,,,,,,,,,,,,,,,,,,,,,,,,,,,,,,,,,,,,,,
,,,,,V3_011,20,female,2024-10-15_16h31.55.119,jersey_experiment_5_v3,2023.2.2,Win32,84.74576271,,,,,,,,,,,,,,,,159.1848,160.7377,160.7377,162.1258,return,0.2827,,73.56770833,0,38,38,19,1,FBP-PT-17.png,0.45,1.2,20,0.75,,,,,,,,,,,,,,,,,,,,,,,,,,,,,,,,,,,,,,,,,,,,,
,,,,,V3_011,20,female,2024-10-15_16h31.55.119,jersey_experiment_5_v3,2023.2.2,Win32,84.74576271,,,,,,,,,,,,,,,,162.126,163.42,163.42,164.5848,return,0.2778,,57.8125,0,39,39,37,1,FBP-OG-18.png,0.4,1.2,38,0.5,,,,,,,,,,,,,,,,,,,,,,,,,,,,,,,,,,,,,,,,,,,,,
,,,,,V3_011,20,female,2024-10-15_16h31.55.119,jersey_experiment_5_v3,2023.2.2,Win32,84.74576271,,,,,,,,,,,,,,,,164.5851,166.1377,166.1378,167.0674,return,0.1678,,43.359375,0,40,40,56,1,FBP-RB-19.png,0.37,1.2,57,0.75,,,,,,,,,,,,,,,,,,,,,,,,,,,,,,,,,,,,,,,,,,,,,
,,,,,V3_011,20,female,2024-10-15_16h31.55.119,jersey_experiment_5_v3,2023.2.2,Win32,84.74576271,,,,,,,,,,,,,,,,167.0676,168.3615,168.3615,170.7614,return,1.3221,,33.203125,0,41,41,31,1,FBP-OG-17.png,0.37,1.2,32,0.5,,,,,,,,,,,,,,,,,,,,,,,,,,,,,,,,,,,,,,,,,,,,,
,,,,,V3_011,20,female,2024-10-15_16h31.55.119,jersey_experiment_5_v3,2023.2.2,Win32,84.74576271,,,,,,,,,,,,,,,,170.7616,172.3145,172.3145,173.3146,return,0.1494,,31.51041667,0,42,42,21,1,FBP-PT-18.png,0.37,1.2,22,0.75,,,,,,,,,,,,,,,,,,,,,,,,,,,,,,,,,,,,,,,,,,,,,
,,,,,V3_011,20,female,2024-10-15_16h31.55.119,jersey_experiment_5_v3,2023.2.2,Win32,84.74576271,,,,,,,,,,,,,,,,173.3149,174.8674,174.8674,176.5381,return,0.6426,,51.953125,0,43,43,3,1,FBP-YG-71.png,0.43,1.2,4,0.75,,,,,,,,,,,,,,,,,,,,,,,,,,,,,,,,,,,,,,,,,,,,,
,,,,,V3_011,20,female,2024-10-15_16h31.55.119,jersey_experiment_5_v3,2023.2.2,Win32,84.74576271,,,,,,,,,,,,,,,,176.5383,178.0911,178.0911,179.0088,return,0.1889,,49.73958333,0,44,44,52,1,FBP-RB-18.png,0.4,1.2,53,0.75,,,,,,,,,,,,,,,,,,,,,,,,,,,,,,,,,,,,,,,,,,,,,
,,,,,V3_011,20,female,2024-10-15_16h31.55.119,jersey_experiment_5_v3,2023.2.2,Win32,84.74576271,,,,,,,,,,,,,,,,179.009,180.5619,180.5619,182.3619,return,0.2414,,75.390625,0,45,45,48,1,FBP-RB-17.png,0.43,1.2,49,0.75,,,,,,,,,,,,,,,,,,,,,,,,,,,,,,,,,,,,,,,,,,,,,
,,,,,V3_011,20,female,2024-10-15_16h31.55.119,jersey_experiment_5_v3,2023.2.2,Win32,84.74576271,,,,,,,,,,,,,,,,182.3622,183.656,183.656,184.7619,return,0.1242,,75,0,46,46,43,1,FBP-OG-19.png,0.43,1.2,44,0.5,,,,,,,,,,,,,,,,,,,,,,,,,,,,,,,,,,,,,,,,,,,,,
,,,,,V3_011,20,female,2024-10-15_16h31.55.119,jersey_experiment_5_v3,2023.2.2,Win32,84.74576271,,,,,,,,,,,,,,,,184.7621,186.0561,186.0561,187.4915,return,0.204,,82.68229167,0,47,47,44,1,FBP-OG-19.png,0.45,1.2,45,0.5,,,,,,,,,,,,,,,,,,,,,,,,,,,,,,,,,,,,,,,,,,,,,
,,,,,V3_011,20,female,2024-10-15_16h31.55.119,jersey_experiment_5_v3,2023.2.2,Win32,84.74576271,,,,,,,,,,,,,,,,187.4917,189.0445,189.0445,190.6563,return,0.8719,,91.14583333,0,48,48,9,1,FBP-YG-81.png,0.45,1.2,10,0.75,,,,,,,,,,,,,,,,,,,,,,,,,,,,,,,,,,,,,,,,,,,,,
,,,,,V3_011,20,female,2024-10-15_16h31.55.119,jersey_experiment_5_v3,2023.2.2,Win32,84.74576271,,,,,,,,,,,,,,,,190.6564,192.2093,192.2093,194.0446,return,0.0988,,24.609375,0,49,49,10,1,FBP-YG-91.png,0.35,1.2,11,0.75,,,,,,,,,,,,,,,,,,,,,,,,,,,,,,,,,,,,,,,,,,,,,
,,,,,V3_011,20,female,2024-10-15_16h31.55.119,jersey_experiment_5_v3,2023.2.2,Win32,84.74576271,,,,,,,,,,,,,,,,194.0448,195.5977,195.5978,196.9388,return,0.1241,,74.47916667,0,50,50,54,1,FBP-RB-18.png,0.45,1.2,55,0.75,,,,,,,,,,,,,,,,,,,,,,,,,,,,,,,,,,,,,,,,,,,,,
,,,,,V3_011,20,female,2024-10-15_16h31.55.119,jersey_experiment_5_v3,2023.2.2,Win32,84.74576271,,,,,,,,,,,,,,,,196.9389,198.4918,198.4918,199.1154,return,0.1201,,74.86979167,0,51,51,13,1,FBP-YG-91.png,0.43,1.2,14,0.75,,,,,,,,,,,,,,,,,,,,,,,,,,,,,,,,,,,,,,,,,,,,,
,,,,,V3_011,20,female,2024-10-15_16h31.55.119,jersey_experiment_5_v3,2023.2.2,Win32,84.74576271,,,,,,,,,,,,,,,,199.1155,200.4095,200.4095,201.6919,return,0.1078,,69.40104167,0,52,52,33,1,FBP-OG-17.png,0.43,1.2,34,0.5,,,,,,,,,,,,,,,,,,,,,,,,,,,,,,,,,,,,,,,,,,,,,
,,,,,V3_011,20,female,2024-10-15_16h31.55.119,jersey_experiment_5_v3,2023.2.2,Win32,84.74576271,,,,,,,,,,,,,,,,201.6921,203.2449,203.245,204.8921,return,0.8392,,50.78125,0,53,53,6,1,FBP-YG-81.png,0.37,1.2,7,0.75,,,,,,,,,,,,,,,,,,,,,,,,,,,,,,,,,,,,,,,,,,,,,
,,,,,V3_011,20,female,2024-10-15_16h31.55.119,jersey_experiment_5_v3,2023.2.2,Win32,84.74576271,,,,,,,,,,,,,,,,204.8922,206.445,206.445,207.4333,return,0.136,,47.78645833,0,54,54,47,1,FBP-RB-17.png,0.4,1.2,48,0.75,,,,,,,,,,,,,,,,,,,,,,,,,,,,,,,,,,,,,,,,,,,,,
,,,,,V3_011,20,female,2024-10-15_16h31.55.119,jersey_experiment_5_v3,2023.2.2,Win32,84.74576271,,,,,,,,,,,,,,,,207.4334,208.9747,208.9747,209.8569,return,0.1654,,44.66145833,0,55,55,1,1,FBP-YG-71.png,0.37,1.2,2,0.75,,,,,,,,,,,,,,,,,,,,,,,,,,,,,,,,,,,,,,,,,,,,,
,,,,,V3_011,20,female,2024-10-15_16h31.55.119,jersey_experiment_5_v3,2023.2.2,Win32,84.74576271,,,,,,,,,,,,,,,,209.8571,211.4099,211.4099,212.8571,return,0.2085,,17.70833333,0,56,56,25,1,FBP-PT-19.png,0.35,1.2,26,0.75,,,,,,,,,,,,,,,,,,,,,,,,,,,,,,,,,,,,,,,,,,,,,
,,,,,V3_011,20,female,2024-10-15_16h31.55.119,jersey_experiment_5_v3,2023.2.2,Win32,84.74576271,,,,,,,,,,,,,,,,212.8573,214.1512,214.1512,215.81,return,0.2119,,68.61979167,0,57,57,34,1,FBP-OG-17.png,0.45,1.2,35,0.5,,,,,,,,,,,,,,,,,,,,,,,,,,,,,,,,,,,,,,,,,,,,,
,,,,,V3_011,20,female,2024-10-15_16h31.55.119,jersey_experiment_5_v3,2023.2.2,Win32,84.74576271,,,,,,,,,,,,,,,,215.8103,217.3631,217.3631,218.3631,return,0.2535,,67.70833333,0,58,58,28,1,FBP-PT-19.png,0.43,1.2,29,0.75,,,,,,,,,,,,,,,,,,,,,,,,,,,,,,,,,,,,,,,,,,,,,
,,,,,V3_011,20,female,2024-10-15_16h31.55.119,jersey_experiment_5_v3,2023.2.2,Win32,84.74576271,,,,,,,,,,,,,,,,218.3633,219.6573,219.6573,220.7514,return,0.1277,,44.27083333,0,59,59,35,1,FBP-OG-18.png,0.35,1.2,36,0.5,,,,,,,,,,,,,,,,,,,,,,,,,,,,,,,,,,,,,,,,,,,,,
,,,,,V3_011,20,female,2024-10-15_16h31.55.119,jersey_experiment_5_v3,2023.2.2,Win32,84.74576271,,,,,,,,,,,,,,,,220.7526,222.3045,222.3045,223.481,return,0.0416,,49.21875,,,,,,FBP-PT-91.png,0.37,1.2,27,0.75,0,0,0,26,1,,,,,,,,,,,,,,,,,,,,,,,,,,,,,,,,,,,,,,,,
,,,,,V3_011,20,female,2024-10-15_16h31.55.119,jersey_experiment_5_v3,2023.2.2,Win32,84.74576271,,,,,,,,,,,,,,,,223.4811,225.034,225.034,225.9164,return,0.0957,,61.58854167,,,,,,FBP-RB-91.png,0.45,1.2,60,0.75,0,1,1,59,1,,,,,,,,,,,,,,,,,,,,,,,,,,,,,,,,,,,,,,,,
,,,,,V3_011,20,female,2024-10-15_16h31.55.119,jersey_experiment_5_v3,2023.2.2,Win32,84.74576271,,,,,,,,,,,,,,,,225.9165,227.4693,227.4694,228.3282,return,0.0799,,74.21875,,,,,,FBP-YG-18.png,0.4,1.2,8,0.75,0,2,2,7,1,,,,,,,,,,,,,,,,,,,,,,,,,,,,,,,,,,,,,,,,
,,,,,V3_011,20,female,2024-10-15_16h31.55.119,jersey_experiment_5_v3,2023.2.2,Win32,84.74576271,,,,,,,,,,,,,,,,228.3283,229.8811,229.8812,231.2929,return,0.0986,,48.046875,,,,,,FBP-PT-71.png,0.35,1.2,16,0.75,0,3,3,15,1,,,,,,,,,,,,,,,,,,,,,,,,,,,,,,,,,,,,,,,,
,,,,,V3_011,20,female,2024-10-15_16h31.55.119,jersey_experiment_5_v3,2023.2.2,Win32,84.74576271,,,,,,,,,,,,,,,,231.293,232.846,232.846,233.4342,return,0.1013,,48.30729167,,,,,,FBP-RB-81.png,0.4,1.2,53,0.75,0,4,4,52,1,,,,,,,,,,,,,,,,,,,,,,,,,,,,,,,,,,,,,,,,
,,,,,V3_011,20,female,2024-10-15_16h31.55.119,jersey_experiment_5_v3,2023.2.2,Win32,84.74576271,,,,,,,,,,,,,,,,233.4343,234.9872,234.9872,235.5638,return,0.1351,,48.30729167,,,,,,FBP-PT-91.png,0.4,1.2,28,0.75,0,5,5,27,1,,,,,,,,,,,,,,,,,,,,,,,,,,,,,,,,,,,,,,,,
,,,,,V3_011,20,female,2024-10-15_16h31.55.119,jersey_experiment_5_v3,2023.2.2,Win32,84.74576271,,,,,,,,,,,,,,,,235.5639,237.1167,237.1167,238.5756,return,0.251,,74.73958333,,,,,,FBP-YG-19.png,0.45,1.2,15,0.75,0,6,6,14,1,,,,,,,,,,,,,,,,,,,,,,,,,,,,,,,,,,,,,,,,
,,,,,V3_011,20,female,2024-10-15_16h31.55.119,jersey_experiment_5_v3,2023.2.2,Win32,84.74576271,,,,,,,,,,,,,,,,238.5758,240.1288,240.1288,240.7287,return,0.111,,75,,,,,,FBP-RB-71.png,0.43,1.2,49,0.75,0,7,7,48,1,,,,,,,,,,,,,,,,,,,,,,,,,,,,,,,,,,,,,,,,
,,,,,V3_011,20,female,2024-10-15_16h31.55.119,jersey_experiment_5_v3,2023.2.2,Win32,84.74576271,,,,,,,,,,,,,,,,240.7288,242.2817,242.2817,243.5288,return,0.1028,,42.44791667,,,,,,FBP-RB-91.png,0.35,1.2,56,0.75,0,8,8,55,1,,,,,,,,,,,,,,,,,,,,,,,,,,,,,,,,,,,,,,,,
,,,,,V3_011,20,female,2024-10-15_16h31.55.119,jersey_experiment_5_v3,2023.2.2,Win32,84.74576271,,,,,,,,,,,,,,,,243.5289,245.0818,245.0818,245.6583,return,0.1234,,42.578125,,,,,,FBP-RB-81.png,0.35,1.2,51,0.75,0,9,9,50,1,,,,,,,,,,,,,,,,,,,,,,,,,,,,,,,,,,,,,,,,
,,,,,V3_011,20,female,2024-10-15_16h31.55.119,jersey_experiment_5_v3,2023.2.2,Win32,84.74576271,,,,,,,,,,,,,,,,245.6585,247.2112,247.2113,247.8818,return,0.1958,,42.578125,,,,,,FBP-YG-18.png,0.37,1.2,7,0.75,0,10,10,6,1,,,,,,,,,,,,,,,,,,,,,,,,,,,,,,,,,,,,,,,,
,,,,,V3_011,20,female,2024-10-15_16h31.55.119,jersey_experiment_5_v3,2023.2.2,Win32,84.74576271,,,,,,,,,,,,,,,,247.882,249.4348,249.4348,250.0819,return,0.1886,,42.578125,,,,,,FBP-YG-17.png,0.35,1.2,1,0.75,0,11,11,0,1,,,,,,,,,,,,,,,,,,,,,,,,,,,,,,,,,,,,,,,,
,,,,,V3_011,20,female,2024-10-15_16h31.55.119,jersey_experiment_5_v3,2023.2.2,Win32,84.74576271,,,,,,,,,,,,,,,,250.0821,251.376,251.3762,252.7055,return,0.1413,,77.08333333,,,,,,FBP-OG-71.png,0.45,1.2,35,0.5,0,12,12,34,1,,,,,,,,,,,,,,,,,,,,,,,,,,,,,,,,,,,,,,,,
,,,,,V3_011,20,female,2024-10-15_16h31.55.119,jersey_experiment_5_v3,2023.2.2,Win32,84.74576271,,,,,,,,,,,,,,,,252.7057,254.2469,254.2469,255.9175,return,0.1207,,53.25520833,,,,,,FBP-YG-17.png,0.37,1.2,2,0.75,0,13,13,1,1,,,,,,,,,,,,,,,,,,,,,,,,,,,,,,,,,,,,,,,,
,,,,,V3_011,20,female,2024-10-15_16h31.55.119,jersey_experiment_5_v3,2023.2.2,Win32,84.74576271,,,,,,,,,,,,,,,,255.9176,257.2116,257.2117,257.7293,return,0.0857,,56.25,,,,,,FBP-OG-71.png,0.37,1.2,32,0.5,0,14,14,31,1,,,,,,,,,,,,,,,,,,,,,,,,,,,,,,,,,,,,,,,,
,,,,,V3_011,20,female,2024-10-15_16h31.55.119,jersey_experiment_5_v3,2023.2.2,Win32,84.74576271,,,,,,,,,,,,,,,,257.7295,259.2823,259.2824,259.9529,return,0.1891,,56.25,,,,,,FBP-RB-71.png,0.37,1.2,47,0.75,0,15,15,46,1,,,,,,,,,,,,,,,,,,,,,,,,,,,,,,,,,,,,,,,,
,,,,,V3_011,20,female,2024-10-15_16h31.55.119,jersey_experiment_5_v3,2023.2.2,Win32,84.74576271,,,,,,,,,,,,,,,,259.9531,261.5058,261.5058,262.3529,return,0.0945,,83.46354167,,,,,,FBP-PT-71.png,0.45,1.2,20,0.75,0,16,16,19,1,,,,,,,,,,,,,,,,,,,,,,,,,,,,,,,,,,,,,,,,
,,,,,V3_011,20,female,2024-10-15_16h31.55.119,jersey_experiment_5_v3,2023.2.2,Win32,84.74576271,,,,,,,,,,,,,,,,262.3531,263.8943,263.8943,264.7648,return,0.1201,,48.69791667,,,,,,FBP-YG-18.png,0.35,1.2,6,0.75,0,17,17,5,1,,,,,,,,,,,,,,,,,,,,,,,,,,,,,,,,,,,,,,,,
,,,,,V3_011,20,female,2024-10-15_16h31.55.119,jersey_experiment_5_v3,2023.2.2,Win32,84.74576271,,,,,,,,,,,,,,,,264.7649,266.3061,266.3061,266.9061,return,0.122,,46.875,,,,,,FBP-RB-71.png,0.35,1.2,46,0.75,0,18,18,45,1,,,,,,,,,,,,,,,,,,,,,,,,,,,,,,,,,,,,,,,,
,,,,,V3_011,20,female,2024-10-15_16h31.55.119,jersey_experiment_5_v3,2023.2.2,Win32,84.74576271,,,,,,,,,,,,,,,,266.9062,268.4592,268.4592,270.5885,return,0.4134,,90.49479167,,,,,,FBP-PT-81.png,0.45,1.2,25,0.75,0,19,19,24,1,,,,,,,,,,,,,,,,,,,,,,,,,,,,,,,,,,,,,,,,
,,,,,V3_011,20,female,2024-10-15_16h31.55.119,jersey_experiment_5_v3,2023.2.2,Win32,84.74576271,,,,,,,,,,,,,,,,270.5887,272.1299,272.1299,272.8945,return,0.0838,,49.73958333,,,,,,FBP-YG-19.png,0.35,1.2,11,0.75,0,20,20,10,1,,,,,,,,,,,,,,,,,,,,,,,,,,,,,,,,,,,,,,,,
,,,,,V3_011,20,female,2024-10-15_16h31.55.119,jersey_experiment_5_v3,2023.2.2,Win32,84.74576271,,,,,,,,,,,,,,,,272.8946,274.4477,274.4477,275.0711,return,0.0621,,85.9375,,,,,,FBP-YG-17.png,0.45,1.2,5,0.75,0,21,21,4,1,,,,,,,,,,,,,,,,,,,,,,,,,,,,,,,,,,,,,,,,
,,,,,V3_011,20,female,2024-10-15_16h31.55.119,jersey_experiment_5_v3,2023.2.2,Win32,84.74576271,,,,,,,,,,,,,,,,275.0712,276.6241,276.6241,277.3888,return,0.0517,,92.05729167,,,,,,FBP-RB-81.png,0.43,1.2,54,0.75,0,22,22,53,1,,,,,,,,,,,,,,,,,,,,,,,,,,,,,,,,,,,,,,,,
,,,,,V3_011,20,female,2024-10-15_16h31.55.119,jersey_experiment_5_v3,2023.2.2,Win32,84.74576271,,,,,,,,,,,,,,,,277.3889,278.9418,278.9418,280.0595,return,0.05,,53.90625,,,,,,FBP-PT-91.png,0.43,1.2,29,0.75,0,23,23,28,1,,,,,,,,,,,,,,,,,,,,,,,,,,,,,,,,,,,,,,,,
,,,,,V3_011,20,female,2024-10-15_16h31.55.119,jersey_experiment_5_v3,2023.2.2,Win32,84.74576271,,,,,,,,,,,,,,,,280.0597,281.3537,281.3537,282.3537,return,0.1885,,55.72916667,,,,,,FBP-OG-81.png,0.43,1.2,39,0.5,0,24,24,38,1,,,,,,,,,,,,,,,,,,,,,,,,,,,,,,,,,,,,,,,,
,,,,,V3_011,20,female,2024-10-15_16h31.55.119,jersey_experiment_5_v3,2023.2.2,Win32,84.74576271,,,,,,,,,,,,,,,,282.3539,283.9068,283.9068,284.6009,return,0.0544,,43.88020833,,,,,,FBP-PT-71.png,0.37,1.2,17,0.75,0,25,25,16,1,,,,,,,,,,,,,,,,,,,,,,,,,,,,,,,,,,,,,,,,
,,,,,V3_011,20,female,2024-10-15_16h31.55.119,jersey_experiment_5_v3,2023.2.2,Win32,84.74576271,,,,,,,,,,,,,,,,284.601,286.1539,286.1539,287.001,return,0.1462,,51.69270833,,,,,,FBP-YG-17.png,0.43,1.2,4,0.75,0,26,26,3,1,,,,,,,,,,,,,,,,,,,,,,,,,,,,,,,,,,,,,,,,
,,,,,V3_011,20,female,2024-10-15_16h31.55.119,jersey_experiment_5_v3,2023.2.2,Win32,84.74576271,,,,,,,,,,,,,,,,287.0012,288.5542,288.5542,289.2481,return,0.033,,85.546875,,,,,,FBP-YG-18.png,0.45,1.2,10,0.75,0,27,27,9,1,,,,,,,,,,,,,,,,,,,,,,,,,,,,,,,,,,,,,,,,
,,,,,V3_011,20,female,2024-10-15_16h31.55.119,jersey_experiment_5_v3,2023.2.2,Win32,84.74576271,,,,,,,,,,,,,,,,289.2482,290.8011,290.8011,291.7893,return,0.0745,,42.05729167,,,,,,FBP-RB-91.png,0.37,1.2,57,0.75,0,28,28,56,1,,,,,,,,,,,,,,,,,,,,,,,,,,,,,,,,,,,,,,,,
,,,,,V3_011,20,female,2024-10-15_16h31.55.119,jersey_experiment_5_v3,2023.2.2,Win32,84.74576271,,,,,,,,,,,,,,,,291.7895,293.3424,293.3424,294.1308,return,0.0701,,24.73958333,,,,,,FBP-PT-91.png,0.35,1.2,26,0.75,0,29,29,25,1,,,,,,,,,,,,,,,,,,,,,,,,,,,,,,,,,,,,,,,,
,,,,,V3_011,20,female,2024-10-15_16h31.55.119,jersey_experiment_5_v3,2023.2.2,Win32,84.74576271,,,,,,,,,,,,,,,,294.131,295.6837,295.6837,297.4484,return,0.0548,,58.33333333,,,,,,FBP-RB-91.png,0.43,1.2,59,0.75,0,30,30,58,1,,,,,,,,,,,,,,,,,,,,,,,,,,,,,,,,,,,,,,,,
,,,,,V3_011,20,female,2024-10-15_16h31.55.119,jersey_experiment_5_v3,2023.2.2,Win32,84.74576271,,,,,,,,,,,,,,,,297.4486,299.0015,299.0015,299.6249,return,0.0899,,74.73958333,,,,,,FBP-PT-81.png,0.43,1.2,24,0.75,0,31,31,23,1,,,,,,,,,,,,,,,,,,,,,,,,,,,,,,,,,,,,,,,,
,,,,,V3_011,20,female,2024-10-15_16h31.55.119,jersey_experiment_5_v3,2023.2.2,Win32,84.74576271,,,,,,,,,,,,,,,,299.625,301.1662,301.1663,301.731,return,0.0479,,42.31770833,,,,,,FBP-PT-81.png,0.35,1.2,21,0.75,0,32,32,20,1,,,,,,,,,,,,,,,,,,,,,,,,,,,,,,,,,,,,,,,,
,,,,,V3_011,20,female,2024-10-15_16h31.55.119,jersey_experiment_5_v3,2023.2.2,Win32,84.74576271,,,,,,,,,,,,,,,,301.7311,303.284,303.2841,304.143,return,0.1285,,42.70833333,,,,,,FBP-RB-81.png,0.37,1.2,52,0.75,0,33,33,51,1,,,,,,,,,,,,,,,,,,,,,,,,,,,,,,,,,,,,,,,,
,,,,,V3_011,20,female,2024-10-15_16h31.55.119,jersey_experiment_5_v3,2023.2.2,Win32,84.74576271,,,,,,,,,,,,,,,,304.1431,305.6958,305.6958,307.1076,return,0.1293,,55.46875,,,,,,FBP-RB-71.png,0.4,1.2,48,0.75,0,34,34,47,1,,,,,,,,,,,,,,,,,,,,,,,,,,,,,,,,,,,,,,,,
,,,,,V3_011,20,female,2024-10-15_16h31.55.119,jersey_experiment_5_v3,2023.2.2,Win32,84.74576271,,,,,,,,,,,,,,,,307.1078,308.4018,308.4018,309.4724,return,0.1797,,75.52083333,,,,,,FBP-OG-71.png,0.43,1.2,34,0.5,0,35,35,33,1,,,,,,,,,,,,,,,,,,,,,,,,,,,,,,,,,,,,,,,,
,,,,,V3_011,20,female,2024-10-15_16h31.55.119,jersey_experiment_5_v3,2023.2.2,Win32,84.74576271,,,,,,,,,,,,,,,,309.4726,311.0256,311.0256,311.5783,return,0.1249,,75.390625,,,,,,FBP-RB-81.png,0.45,1.2,55,0.75,0,36,36,54,1,,,,,,,,,,,,,,,,,,,,,,,,,,,,,,,,,,,,,,,,
,,,,,V3_011,20,female,2024-10-15_16h31.55.119,jersey_experiment_5_v3,2023.2.2,Win32,84.74576271,,,,,,,,,,,,,,,,311.5784,313.1313,313.1314,314.1548,return,0.1126,,75.390625,,,,,,FBP-RB-91.png,0.4,1.2,58,0.75,0,37,37,57,1,,,,,,,,,,,,,,,,,,,,,,,,,,,,,,,,,,,,,,,,
,,,,,V3_011,20,female,2024-10-15_16h31.55.119,jersey_experiment_5_v3,2023.2.2,Win32,84.74576271,,,,,,,,,,,,,,,,314.155,315.449,315.4491,316.1785,return,0.0923,,77.60416667,,,,,,FBP-OG-91.png,0.45,1.2,45,0.5,0,38,38,44,1,,,,,,,,,,,,,,,,,,,,,,,,,,,,,,,,,,,,,,,,
,,,,,V3_011,20,female,2024-10-15_16h31.55.119,jersey_experiment_5_v3,2023.2.2,Win32,84.74576271,,,,,,,,,,,,,,,,316.1786,317.7315,317.7315,319.2139,return,0.0627,,56.25,,,,,,FBP-YG-19.png,0.4,1.2,13,0.75,0,39,39,12,1,,,,,,,,,,,,,,,,,,,,,,,,,,,,,,,,,,,,,,,,
,,,,,V3_011,20,female,2024-10-15_16h31.55.119,jersey_experiment_5_v3,2023.2.2,Win32,84.74576271,,,,,,,,,,,,,,,,319.214,320.5081,320.5081,321.6022,return,0.0942,,54.03645833,,,,,,FBP-OG-81.png,0.4,1.2,38,0.5,0,40,40,37,1,,,,,,,,,,,,,,,,,,,,,,,,,,,,,,,,,,,,,,,,
,,,,,V3_011,20,female,2024-10-15_16h31.55.119,jersey_experiment_5_v3,2023.2.2,Win32,84.74576271,,,,,,,,,,,,,,,,321.6024,323.1436,323.1437,323.6612,return,0.1183,,54.296875,,,,,,FBP-PT-81.png,0.4,1.2,23,0.75,0,41,41,22,1,,,,,,,,,,,,,,,,,,,,,,,,,,,,,,,,,,,,,,,,
,,,,,V3_011,20,female,2024-10-15_16h31.55.119,jersey_experiment_5_v3,2023.2.2,Win32,84.74576271,,,,,,,,,,,,,,,,323.6613,325.2144,325.2144,326.0024,return,0.0946,,75.13020833,,,,,,FBP-PT-91.png,0.45,1.2,30,0.75,0,42,42,29,1,,,,,,,,,,,,,,,,,,,,,,,,,,,,,,,,,,,,,,,,
,,,,,V3_011,20,female,2024-10-15_16h31.55.119,jersey_experiment_5_v3,2023.2.2,Win32,84.74576271,,,,,,,,,,,,,,,,326.0026,327.2966,327.2966,328.1084,return,0.0641,,45.96354167,,,,,,FBP-OG-71.png,0.35,1.2,31,0.5,0,43,43,30,1,,,,,,,,,,,,,,,,,,,,,,,,,,,,,,,,,,,,,,,,
,,,,,V3_011,20,female,2024-10-15_16h31.55.119,jersey_experiment_5_v3,2023.2.2,Win32,84.74576271,,,,,,,,,,,,,,,,328.1085,329.4026,329.4026,330.1084,return,0.0639,,50.13020833,,,,,,FBP-OG-71.png,0.4,1.2,33,0.5,0,44,44,32,1,,,,,,,,,,,,,,,,,,,,,,,,,,,,,,,,,,,,,,,,
,,,,,V3_011,20,female,2024-10-15_16h31.55.119,jersey_experiment_5_v3,2023.2.2,Win32,84.74576271,,,,,,,,,,,,,,,,330.1086,331.6615,331.6615,332.3203,return,0.0702,,73.95833333,,,,,,FBP-YG-18.png,0.43,1.2,9,0.75,0,45,45,8,1,,,,,,,,,,,,,,,,,,,,,,,,,,,,,,,,,,,,,,,,
,,,,,V3_011,20,female,2024-10-15_16h31.55.119,jersey_experiment_5_v3,2023.2.2,Win32,84.74576271,,,,,,,,,,,,,,,,332.3204,333.8733,333.8733,334.5087,return,0.0718,,85.80729167,,,,,,FBP-RB-71.png,0.45,1.2,50,0.75,0,46,46,49,1,,,,,,,,,,,,,,,,,,,,,,,,,,,,,,,,,,,,,,,,
,,,,,V3_011,20,female,2024-10-15_16h31.55.119,jersey_experiment_5_v3,2023.2.2,Win32,84.74576271,,,,,,,,,,,,,,,,334.5088,336.0499,336.05,336.6969,return,0.0519,,48.95833333,,,,,,FBP-YG-19.png,0.37,1.2,12,0.75,0,47,47,11,1,,,,,,,,,,,,,,,,,,,,,,,,,,,,,,,,,,,,,,,,
,,,,,V3_011,20,female,2024-10-15_16h31.55.119,jersey_experiment_5_v3,2023.2.2,Win32,84.74576271,,,,,,,,,,,,,,,,336.697,337.991,337.9911,339.1793,return,0.1003,,49.609375,,,,,,FBP-OG-91.png,0.4,1.2,43,0.5,0,48,48,42,1,,,,,,,,,,,,,,,,,,,,,,,,,,,,,,,,,,,,,,,,
,,,,,V3_011,20,female,2024-10-15_16h31.55.119,jersey_experiment_5_v3,2023.2.2,Win32,84.74576271,,,,,,,,,,,,,,,,339.1794,340.7324,340.7325,341.5324,return,0.0992,,42.31770833,,,,,,FBP-PT-81.png,0.37,1.2,22,0.75,0,49,49,21,1,,,,,,,,,,,,,,,,,,,,,,,,,,,,,,,,,,,,,,,,
,,,,,V3_011,20,female,2024-10-15_16h31.55.119,jersey_experiment_5_v3,2023.2.2,Win32,84.74576271,,,,,,,,,,,,,,,,341.5325,342.8265,342.8265,343.4266,return,0.1635,,42.31770833,,,,,,FBP-OG-81.png,0.35,1.2,36,0.5,0,50,50,35,1,,,,,,,,,,,,,,,,,,,,,,,,,,,,,,,,,,,,,,,,
,,,,,V3_011,20,female,2024-10-15_16h31.55.119,jersey_experiment_5_v3,2023.2.2,Win32,84.74576271,,,,,,,,,,,,,,,,343.4268,344.7207,344.7207,345.2266,return,0.2187,,42.31770833,,,,,,FBP-OG-91.png,0.35,1.2,41,0.5,0,51,51,40,1,,,,,,,,,,,,,,,,,,,,,,,,,,,,,,,,,,,,,,,,
,,,,,V3_011,20,female,2024-10-15_16h31.55.119,jersey_experiment_5_v3,2023.2.2,Win32,84.74576271,,,,,,,,,,,,,,,,345.2267,346.5207,346.5207,347.7797,return,0.1209,,64.0625,,,,,,FBP-OG-81.png,0.45,1.2,40,0.5,0,52,52,39,1,,,,,,,,,,,,,,,,,,,,,,,,,,,,,,,,,,,,,,,,
,,,,,V3_011,20,female,2024-10-15_16h31.55.119,jersey_experiment_5_v3,2023.2.2,Win32,84.74576271,,,,,,,,,,,,,,,,347.7799,349.3327,349.3327,350.2033,return,0.4497,,63.54166667,,,,,,FBP-YG-17.png,0.4,1.2,3,0.75,0,53,53,2,1,,,,,,,,,,,,,,,,,,,,,,,,,,,,,,,,,,,,,,,,
,,,,,V3_011,20,female,2024-10-15_16h31.55.119,jersey_experiment_5_v3,2023.2.2,Win32,84.74576271,,,,,,,,,,,,,,,,350.2035,351.4975,351.4975,352.6858,return,0.0509,,51.82291667,,,,,,FBP-OG-81.png,0.37,1.2,37,0.5,0,54,54,36,1,,,,,,,,,,,,,,,,,,,,,,,,,,,,,,,,,,,,,,,,
,,,,,V3_011,20,female,2024-10-15_16h31.55.119,jersey_experiment_5_v3,2023.2.2,Win32,84.74576271,,,,,,,,,,,,,,,,352.686,354.2388,354.2388,354.8153,return,0.1186,,51.82291667,,,,,,FBP-PT-71.png,0.4,1.2,18,0.75,0,55,55,17,1,,,,,,,,,,,,,,,,,,,,,,,,,,,,,,,,,,,,,,,,
,,,,,V3_011,20,female,2024-10-15_16h31.55.119,jersey_experiment_5_v3,2023.2.2,Win32,84.74576271,,,,,,,,,,,,,,,,354.8154,356.3683,356.3683,357.2507,return,0.1413,,80.078125,,,,,,FBP-PT-71.png,0.43,1.2,19,0.75,0,56,56,18,1,,,,,,,,,,,,,,,,,,,,,,,,,,,,,,,,,,,,,,,,
,,,,,V3_011,20,female,2024-10-15_16h31.55.119,jersey_experiment_5_v3,2023.2.2,Win32,84.74576271,,,,,,,,,,,,,,,,357.2509,358.8037,358.8037,359.3919,return,0.1294,,80.59895833,,,,,,FBP-YG-19.png,0.43,1.2,14,0.75,0,57,57,13,1,,,,,,,,,,,,,,,,,,,,,,,,,,,,,,,,,,,,,,,,
,,,,,V3_011,20,female,2024-10-15_16h31.55.119,jersey_experiment_5_v3,2023.2.2,Win32,84.74576271,,,,,,,,,,,,,,,,359.392,360.686,360.6861,361.4037,return,0.1433,,80.46875,,,,,,FBP-OG-91.png,0.43,1.2,44,0.5,0,58,58,43,1,,,,,,,,,,,,,,,,,,,,,,,,,,,,,,,,,,,,,,,,
,,,,,V3_011,20,female,2024-10-15_16h31.55.119,jersey_experiment_5_v3,2023.2.2,Win32,84.74576271,,,,,,,,,,,,,,,,361.4038,362.6978,362.6978,363.8979,return,0.0773,,49.86979167,,,,,,FBP-OG-91.png,0.37,1.2,42,0.5,0,59,59,41,1,,,,,,,,,,,,,,,,,,,,,,,,,,,,,,,,,,,,,,,,
,,,,,V3_011,20,female,2024-10-15_16h31.55.119,jersey_experiment_5_v3,2023.2.2,Win32,84.74576271,,,,,,,,,,,,,,,,,,,,,,,,,,,,,,,,,,,,,,,363.8981,483.8906,,,,,,,,,,,,,,,,,,,,,,,,,,,,,,,,,,,,,,
,,,,,V3_011,20,female,2024-10-15_16h31.55.119,jersey_experiment_5_v3,2023.2.2,Win32,84.74576271,,,,,,,,,,,,,,,,,,,,,,,,,,,,,,,,,,,,,,,,,483.8907,486.3613,return,2.4656,,,,,,,,,,,,,,,,,,,,,,,,,,,,,,,,,,
,,,,,V3_011,20,female,2024-10-15_16h31.55.119,jersey_experiment_5_v3,2023.2.2,Win32,84.74576271,,,,,,,,,,,,,,,,486.3625,487.9142,487.9142,491.0555,return,1.1555,,50.13020833,,,,,,FBP-OG-18.png,0.43,1.2,39,0.75,,,,,,,,,,,,,0,0,0,38,1,,,,,,,,,,,,,,,,,,,,,,,,,,,,
,,,,,V3_011,20,female,2024-10-15_16h31.55.119,jersey_experiment_5_v3,2023.2.2,Win32,84.74576271,,,,,,,,,,,,,,,,491.0557,492.3497,492.3497,493.6439,return,0.2058,,47.13541667,,,,,,FBP-PT-17.png,0.4,1.2,18,0.5,,,,,,,,,,,,,0,1,1,17,1,,,,,,,,,,,,,,,,,,,,,,,,,,,,
,,,,,V3_011,20,female,2024-10-15_16h31.55.119,jersey_experiment_5_v3,2023.2.2,Win32,84.74576271,,,,,,,,,,,,,,,,493.6441,494.9382,494.9382,497.1851,return,0.315,,65.36458333,,,,,,FBP-YG-71.png,0.43,1.2,4,0.5,,,,,,,,,,,,,0,2,2,3,1,,,,,,,,,,,,,,,,,,,,,,,,,,,,
,,,,,V3_011,20,female,2024-10-15_16h31.55.119,jersey_experiment_5_v3,2023.2.2,Win32,84.74576271,,,,,,,,,,,,,,,,497.1853,498.7265,498.7266,499.6795,return,0.1545,,49.86979167,,,,,,FBP-OG-18.png,0.37,1.2,37,0.75,,,,,,,,,,,,,0,3,3,36,1,,,,,,,,,,,,,,,,,,,,,,,,,,,,
,,,,,V3_011,20,female,2024-10-15_16h31.55.119,jersey_experiment_5_v3,2023.2.2,Win32,84.74576271,,,,,,,,,,,,,,,,499.6798,501.2323,501.2323,501.8323,return,0.1856,,49.47916667,,,,,,FBP-OG-19.png,0.35,1.2,41,0.75,,,,,,,,,,,,,0,4,4,40,1,,,,,,,,,,,,,,,,,,,,,,,,,,,,
,,,,,V3_011,20,female,2024-10-15_16h31.55.119,jersey_experiment_5_v3,2023.2.2,Win32,84.74576271,,,,,,,,,,,,,,,,501.8324,503.1266,503.1267,504.1737,return,0.192,,77.86458333,,,,,,FBP-YG-81.png,0.45,1.2,10,0.5,,,,,,,,,,,,,0,5,5,9,1,,,,,,,,,,,,,,,,,,,,,,,,,,,,
,,,,,V3_011,20,female,2024-10-15_16h31.55.119,jersey_experiment_5_v3,2023.2.2,Win32,84.74576271,,,,,,,,,,,,,,,,504.1739,505.7266,505.7267,506.7385,return,0.1649,,76.953125,,,,,,FBP-OG-18.png,0.45,1.2,40,0.75,,,,,,,,,,,,,0,6,6,39,1,,,,,,,,,,,,,,,,,,,,,,,,,,,,
,,,,,V3_011,20,female,2024-10-15_16h31.55.119,jersey_experiment_5_v3,2023.2.2,Win32,84.74576271,,,,,,,,,,,,,,,,506.7386,508.0326,508.0326,509.4092,return,0.2121,,73.95833333,,,,,,FBP-PT-19.png,0.43,1.2,29,0.5,,,,,,,,,,,,,0,7,7,28,1,,,,,,,,,,,,,,,,,,,,,,,,,,,,
,,,,,V3_011,20,female,2024-10-15_16h31.55.119,jersey_experiment_5_v3,2023.2.2,Win32,84.74576271,,,,,,,,,,,,,,,,509.4094,510.7034,510.7034,512.1387,return,0.1474,,40.75520833,,,,,,FBP-PT-19.png,0.35,1.2,26,0.5,,,,,,,,,,,,,0,8,8,25,1,,,,,,,,,,,,,,,,,,,,,,,,,,,,
,,,,,V3_011,20,female,2024-10-15_16h31.55.119,jersey_experiment_5_v3,2023.2.2,Win32,84.74576271,,,,,,,,,,,,,,,,512.1389,513.433,513.433,514.5388,return,0.1443,,86.19791667,,,,,,FBP-YG-91.png,0.43,1.2,14,0.5,,,,,,,,,,,,,0,9,9,13,1,,,,,,,,,,,,,,,,,,,,,,,,,,,,
,,,,,V3_011,20,female,2024-10-15_16h31.55.119,jersey_experiment_5_v3,2023.2.2,Win32,84.74576271,,,,,,,,,,,,,,,,514.539,516.0917,516.0918,517.6448,return,0.0953,,58.72395833,,,,,,FBP-OG-18.png,0.4,1.2,38,0.75,,,,,,,,,,,,,0,10,10,37,1,,,,,,,,,,,,,,,,,,,,,,,,,,,,
,,,,,V3_011,20,female,2024-10-15_16h31.55.119,jersey_experiment_5_v3,2023.2.2,Win32,84.74576271,,,,,,,,,,,,,,,,517.6449,518.9389,518.939,519.9863,return,0.165,,84.765625,,,,,,FBP-YG-71.png,0.45,1.2,5,0.5,,,,,,,,,,,,,0,11,11,4,1,,,,,,,,,,,,,,,,,,,,,,,,,,,,
,,,,,V3_011,20,female,2024-10-15_16h31.55.119,jersey_experiment_5_v3,2023.2.2,Win32,84.74576271,,,,,,,,,,,,,,,,519.9864,521.2803,521.2803,522.3041,return,0.1546,,73.69791667,,,,,,FBP-RB-19.png,0.4,1.2,58,0.5,,,,,,,,,,,,,0,12,12,57,1,,,,,,,,,,,,,,,,,,,,,,,,,,,,
,,,,,V3_011,20,female,2024-10-15_16h31.55.119,jersey_experiment_5_v3,2023.2.2,Win32,84.74576271,,,,,,,,,,,,,,,,522.3044,523.5979,523.598,524.5627,return,0.1094,,90.625,,,,,,FBP-RB-19.png,0.45,1.2,60,0.5,,,,,,,,,,,,,0,13,13,59,1,,,,,,,,,,,,,,,,,,,,,,,,,,,,
,,,,,V3_011,20,female,2024-10-15_16h31.55.119,jersey_experiment_5_v3,2023.2.2,Win32,84.74576271,,,,,,,,,,,,,,,,524.5629,525.857,525.857,526.8452,return,0.0972,,45.703125,,,,,,FBP-PT-17.png,0.35,1.2,16,0.5,,,,,,,,,,,,,0,14,14,15,1,,,,,,,,,,,,,,,,,,,,,,,,,,,,
,,,,,V3_011,20,female,2024-10-15_16h31.55.119,jersey_experiment_5_v3,2023.2.2,Win32,84.74576271,,,,,,,,,,,,,,,,526.8453,528.3981,528.3981,530.057,return,0.0871,,57.8125,,,,,,FBP-OG-19.png,0.4,1.2,43,0.75,,,,,,,,,,,,,0,15,15,42,1,,,,,,,,,,,,,,,,,,,,,,,,,,,,
,,,,,V3_011,20,female,2024-10-15_16h31.55.119,jersey_experiment_5_v3,2023.2.2,Win32,84.74576271,,,,,,,,,,,,,,,,530.0572,531.3512,531.3512,533.4336,return,1.0417,,33.46354167,,,,,,FBP-PT-17.png,0.37,1.2,17,0.5,,,,,,,,,,,,,0,16,16,16,1,,,,,,,,,,,,,,,,,,,,,,,,,,,,
,,,,,V3_011,20,female,2024-10-15_16h31.55.119,jersey_experiment_5_v3,2023.2.2,Win32,84.74576271,,,,,,,,,,,,,,,,533.4338,534.7277,534.7278,535.7042,return,0.1036,,25,,,,,,FBP-PT-18.png,0.35,1.2,21,0.5,,,,,,,,,,,,,0,17,17,20,1,,,,,,,,,,,,,,,,,,,,,,,,,,,,
,,,,,V3_011,20,female,2024-10-15_16h31.55.119,jersey_experiment_5_v3,2023.2.2,Win32,84.74576271,,,,,,,,,,,,,,,,535.7044,536.9985,536.9985,538.2219,return,0.3095,,46.484375,,,,,,FBP-YG-91.png,0.4,1.2,13,0.5,,,,,,,,,,,,,0,18,18,12,1,,,,,,,,,,,,,,,,,,,,,,,,,,,,
,,,,,V3_011,20,female,2024-10-15_16h31.55.119,jersey_experiment_5_v3,2023.2.2,Win32,84.74576271,,,,,,,,,,,,,,,,538.2221,539.7633,539.7634,540.928,return,0.1193,,78.64583333,,,,,,FBP-OG-17.png,0.4,1.2,33,0.75,,,,,,,,,,,,,0,19,19,32,1,,,,,,,,,,,,,,,,,,,,,,,,,,,,
,,,,,V3_011,20,female,2024-10-15_16h31.55.119,jersey_experiment_5_v3,2023.2.2,Win32,84.74576271,,,,,,,,,,,,,,,,540.9281,542.2221,542.2221,543.7281,return,0.1745,,35.80729167,,,,,,FBP-RB-17.png,0.35,1.2,46,0.5,,,,,,,,,,,,,0,20,20,45,1,,,,,,,,,,,,,,,,,,,,,,,,,,,,
,,,,,V3_011,20,female,2024-10-15_16h31.55.119,jersey_experiment_5_v3,2023.2.2,Win32,84.74576271,,,,,,,,,,,,,,,,543.7283,545.2811,545.2812,546.1753,return,0.1074,,44.27083333,,,,,,FBP-OG-19.png,0.37,1.2,42,0.75,,,,,,,,,,,,,0,21,21,41,1,,,,,,,,,,,,,,,,,,,,,,,,,,,,
,,,,,V3_011,20,female,2024-10-15_16h31.55.119,jersey_experiment_5_v3,2023.2.2,Win32,84.74576271,,,,,,,,,,,,,,,,546.1754,547.4693,547.4693,548.3518,return,0.0862,,44.53125,,,,,,FBP-RB-19.png,0.37,1.2,57,0.5,,,,,,,,,,,,,0,22,22,56,1,,,,,,,,,,,,,,,,,,,,,,,,,,,,
,,,,,V3_011,20,female,2024-10-15_16h31.55.119,jersey_experiment_5_v3,2023.2.2,Win32,84.74576271,,,,,,,,,,,,,,,,548.352,549.646,549.646,550.5754,return,0.13,,52.34375,,,,,,FBP-YG-71.png,0.37,1.2,2,0.5,,,,,,,,,,,,,0,23,23,1,1,,,,,,,,,,,,,,,,,,,,,,,,,,,,
,,,,,V3_011,20,female,2024-10-15_16h31.55.119,jersey_experiment_5_v3,2023.2.2,Win32,84.74576271,,,,,,,,,,,,,,,,550.5756,551.8695,551.8696,553.0225,return,0.1081,,88.671875,,,,,,FBP-PT-18.png,0.45,1.2,25,0.5,,,,,,,,,,,,,0,24,24,24,1,,,,,,,,,,,,,,,,,,,,,,,,,,,,
,,,,,V3_011,20,female,2024-10-15_16h31.55.119,jersey_experiment_5_v3,2023.2.2,Win32,84.74576271,,,,,,,,,,,,,,,,553.0228,554.3167,554.3167,555.4344,return,0.0764,,74.47916667,,,,,,FBP-RB-18.png,0.4,1.2,53,0.5,,,,,,,,,,,,,0,25,25,52,1,,,,,,,,,,,,,,,,,,,,,,,,,,,,
,,,,,V3_011,20,female,2024-10-15_16h31.55.119,jersey_experiment_5_v3,2023.2.2,Win32,84.74576271,,,,,,,,,,,,,,,,555.4346,556.7288,556.7288,557.7403,return,0.1662,,69.140625,,,,,,FBP-PT-19.png,0.4,1.2,28,0.5,,,,,,,,,,,,,0,26,26,27,1,,,,,,,,,,,,,,,,,,,,,,,,,,,,
,,,,,V3_011,20,female,2024-10-15_16h31.55.119,jersey_experiment_5_v3,2023.2.2,Win32,84.74576271,,,,,,,,,,,,,,,,557.7405,559.0346,559.0346,560.011,return,0.1243,,85.546875,,,,,,FBP-RB-19.png,0.43,1.2,59,0.5,,,,,,,,,,,,,0,27,27,58,1,,,,,,,,,,,,,,,,,,,,,,,,,,,,
,,,,,V3_011,20,female,2024-10-15_16h31.55.119,jersey_experiment_5_v3,2023.2.2,Win32,84.74576271,,,,,,,,,,,,,,,,560.0112,561.3051,561.3051,562.8582,return,0.5958,,41.015625,,,,,,FBP-RB-19.png,0.35,1.2,56,0.5,,,,,,,,,,,,,0,28,28,55,1,,,,,,,,,,,,,,,,,,,,,,,,,,,,
,,,,,V3_011,20,female,2024-10-15_16h31.55.119,jersey_experiment_5_v3,2023.2.2,Win32,84.74576271,,,,,,,,,,,,,,,,562.8583,564.1524,564.1525,565.435,return,0.077,,49.609375,,,,,,FBP-YG-71.png,0.35,1.2,1,0.5,,,,,,,,,,,,,0,29,29,0,1,,,,,,,,,,,,,,,,,,,,,,,,,,,,
,,,,,V3_011,20,female,2024-10-15_16h31.55.119,jersey_experiment_5_v3,2023.2.2,Win32,84.74576271,,,,,,,,,,,,,,,,565.4351,566.9878,566.9879,568.0584,return,0.5484,,32.55208333,,,,,,FBP-OG-17.png,0.35,1.2,31,0.75,,,,,,,,,,,,,0,30,30,30,1,,,,,,,,,,,,,,,,,,,,,,,,,,,,
,,,,,V3_011,20,female,2024-10-15_16h31.55.119,jersey_experiment_5_v3,2023.2.2,Win32,84.74576271,,,,,,,,,,,,,,,,568.0585,569.3525,569.3525,570.3526,return,0.1335,,47.91666667,,,,,,FBP-YG-91.png,0.37,1.2,12,0.5,,,,,,,,,,,,,0,31,31,11,1,,,,,,,,,,,,,,,,,,,,,,,,,,,,
,,,,,V3_011,20,female,2024-10-15_16h31.55.119,jersey_experiment_5_v3,2023.2.2,Win32,84.74576271,,,,,,,,,,,,,,,,570.3528,571.6468,571.6468,573.2585,return,0.1482,,44.79166667,,,,,,FBP-RB-18.png,0.35,1.2,51,0.5,,,,,,,,,,,,,0,32,32,50,1,,,,,,,,,,,,,,,,,,,,,,,,,,,,
,,,,,V3_011,20,female,2024-10-15_16h31.55.119,jersey_experiment_5_v3,2023.2.2,Win32,84.74576271,,,,,,,,,,,,,,,,573.2587,574.5528,574.5528,576.5058,return,0.1358,,65.10416667,,,,,,FBP-YG-71.png,0.4,1.2,3,0.5,,,,,,,,,,,,,0,33,33,2,1,,,,,,,,,,,,,,,,,,,,,,,,,,,,
,,,,,V3_011,20,female,2024-10-15_16h31.55.119,jersey_experiment_5_v3,2023.2.2,Win32,84.74576271,,,,,,,,,,,,,,,,576.5059,578.0587,578.0588,578.8117,return,0.0999,,65.36458333,,,,,,FBP-OG-17.png,0.37,1.2,32,0.75,,,,,,,,,,,,,0,34,34,31,1,,,,,,,,,,,,,,,,,,,,,,,,,,,,
,,,,,V3_011,20,female,2024-10-15_16h31.55.119,jersey_experiment_5_v3,2023.2.2,Win32,84.74576271,,,,,,,,,,,,,,,,578.8119,580.1058,580.1058,581.1059,return,0.2033,,43.48958333,,,,,,FBP-YG-81.png,0.35,1.2,6,0.5,,,,,,,,,,,,,0,35,35,5,1,,,,,,,,,,,,,,,,,,,,,,,,,,,,
,,,,,V3_011,20,female,2024-10-15_16h31.55.119,jersey_experiment_5_v3,2023.2.2,Win32,84.74576271,,,,,,,,,,,,,,,,581.1061,582.4002,582.4002,583.9061,return,0.0734,,66.92708333,,,,,,FBP-PT-17.png,0.45,1.2,20,0.5,,,,,,,,,,,,,0,36,36,19,1,,,,,,,,,,,,,,,,,,,,,,,,,,,,
,,,,,V3_011,20,female,2024-10-15_16h31.55.119,jersey_experiment_5_v3,2023.2.2,Win32,84.74576271,,,,,,,,,,,,,,,,583.9063,585.2003,585.2004,585.8354,return,0.1226,,66.92708333,,,,,,FBP-YG-81.png,0.37,1.2,7,0.5,,,,,,,,,,,,,0,37,37,6,1,,,,,,,,,,,,,,,,,,,,,,,,,,,,
,,,,,V3_011,20,female,2024-10-15_16h31.55.119,jersey_experiment_5_v3,2023.2.2,Win32,84.74576271,,,,,,,,,,,,,,,,585.8356,587.1297,587.1297,587.9063,return,0.1094,,60.9375,,,,,,FBP-RB-17.png,0.37,1.2,47,0.5,,,,,,,,,,,,,0,38,38,46,1,,,,,,,,,,,,,,,,,,,,,,,,,,,,
,,,,,V3_011,20,female,2024-10-15_16h31.55.119,jersey_experiment_5_v3,2023.2.2,Win32,84.74576271,,,,,,,,,,,,,,,,587.9065,589.2004,589.2005,590.0474,return,0.1411,,75,,,,,,FBP-PT-17.png,0.43,1.2,19,0.5,,,,,,,,,,,,,0,39,39,18,1,,,,,,,,,,,,,,,,,,,,,,,,,,,,
,,,,,V3_011,20,female,2024-10-15_16h31.55.119,jersey_experiment_5_v3,2023.2.2,Win32,84.74576271,,,,,,,,,,,,,,,,590.0476,591.6006,591.6007,592.2828,return,0.1125,,85.67708333,,,,,,FBP-OG-19.png,0.45,1.2,45,0.75,,,,,,,,,,,,,0,40,40,44,1,,,,,,,,,,,,,,,,,,,,,,,,,,,,
,,,,,V3_011,20,female,2024-10-15_16h31.55.119,jersey_experiment_5_v3,2023.2.2,Win32,84.74576271,,,,,,,,,,,,,,,,592.283,593.8358,593.8359,594.7652,return,0.0851,,86.19791667,,,,,,FBP-OG-17.png,0.43,1.2,34,0.75,,,,,,,,,,,,,0,41,41,33,1,,,,,,,,,,,,,,,,,,,,,,,,,,,,
,,,,,V3_011,20,female,2024-10-15_16h31.55.119,jersey_experiment_5_v3,2023.2.2,Win32,84.74576271,,,,,,,,,,,,,,,,594.7654,596.0594,596.0594,597.2594,return,0.1001,,78.515625,,,,,,FBP-PT-18.png,0.43,1.2,24,0.5,,,,,,,,,,,,,0,42,42,23,1,,,,,,,,,,,,,,,,,,,,,,,,,,,,
,,,,,V3_011,20,female,2024-10-15_16h31.55.119,jersey_experiment_5_v3,2023.2.2,Win32,84.74576271,,,,,,,,,,,,,,,,597.2596,598.5536,598.5537,599.4242,return,0.2447,,85.02604167,,,,,,FBP-PT-19.png,0.45,1.2,30,0.5,,,,,,,,,,,,,0,43,43,29,1,,,,,,,,,,,,,,,,,,,,,,,,,,,,
,,,,,V3_011,20,female,2024-10-15_16h31.55.119,jersey_experiment_5_v3,2023.2.2,Win32,84.74576271,,,,,,,,,,,,,,,,599.4245,600.7184,600.7185,602.1304,return,0.4082,,49.47916667,,,,,,FBP-PT-18.png,0.37,1.2,22,0.5,,,,,,,,,,,,,0,44,44,21,1,,,,,,,,,,,,,,,,,,,,,,,,,,,,
,,,,,V3_011,20,female,2024-10-15_16h31.55.119,jersey_experiment_5_v3,2023.2.2,Win32,84.74576271,,,,,,,,,,,,,,,,602.1307,603.4243,603.4243,604.0833,return,0.0949,,45.57291667,,,,,,FBP-RB-18.png,0.37,1.2,52,0.5,,,,,,,,,,,,,0,45,45,51,1,,,,,,,,,,,,,,,,,,,,,,,,,,,,
,,,,,V3_011,20,female,2024-10-15_16h31.55.119,jersey_experiment_5_v3,2023.2.2,Win32,84.74576271,,,,,,,,,,,,,,,,604.0834,605.3776,605.3776,606.4481,return,0.1806,,57.16145833,,,,,,FBP-RB-18.png,0.43,1.2,54,0.5,,,,,,,,,,,,,0,46,46,53,1,,,,,,,,,,,,,,,,,,,,,,,,,,,,
,,,,,V3_011,20,female,2024-10-15_16h31.55.119,jersey_experiment_5_v3,2023.2.2,Win32,84.74576271,,,,,,,,,,,,,,,,606.4482,607.7423,607.7424,608.6364,return,0.1213,,75.78125,,,,,,FBP-YG-91.png,0.45,1.2,15,0.5,,,,,,,,,,,,,0,47,47,14,1,,,,,,,,,,,,,,,,,,,,,,,,,,,,
,,,,,V3_011,20,female,2024-10-15_16h31.55.119,jersey_experiment_5_v3,2023.2.2,Win32,84.74576271,,,,,,,,,,,,,,,,608.6366,609.9307,609.9307,610.6012,return,0.0897,,83.07291667,,,,,,FBP-YG-81.png,0.43,1.2,9,0.5,,,,,,,,,,,,,0,48,48,8,1,,,,,,,,,,,,,,,,,,,,,,,,,,,,
,,,,,V3_011,20,female,2024-10-15_16h31.55.119,jersey_experiment_5_v3,2023.2.2,Win32,84.74576271,,,,,,,,,,,,,,,,610.6013,611.8954,611.8955,612.7071,return,0.1183,,76.43229167,,,,,,FBP-PT-18.png,0.4,1.2,23,0.5,,,,,,,,,,,,,0,49,49,22,1,,,,,,,,,,,,,,,,,,,,,,,,,,,,
,,,,,V3_011,20,female,2024-10-15_16h31.55.119,jersey_experiment_5_v3,2023.2.2,Win32,84.74576271,,,,,,,,,,,,,,,,612.7073,614.0013,614.0013,614.6837,return,0.0727,,86.58854167,,,,,,FBP-RB-17.png,0.45,1.2,50,0.5,,,,,,,,,,,,,0,50,50,49,1,,,,,,,,,,,,,,,,,,,,,,,,,,,,
,,,,,V3_011,20,female,2024-10-15_16h31.55.119,jersey_experiment_5_v3,2023.2.2,Win32,84.74576271,,,,,,,,,,,,,,,,614.6839,616.2368,616.2368,617.0249,return,0.0949,,49.47916667,,,,,,FBP-OG-18.png,0.35,1.2,36,0.75,,,,,,,,,,,,,0,51,51,35,1,,,,,,,,,,,,,,,,,,,,,,,,,,,,
,,,,,V3_011,20,female,2024-10-15_16h31.55.119,jersey_experiment_5_v3,2023.2.2,Win32,84.74576271,,,,,,,,,,,,,,,,617.025,618.5664,618.5665,619.5309,return,0.1357,,81.11979167,,,,,,FBP-OG-17.png,0.45,1.2,35,0.75,,,,,,,,,,,,,0,52,52,34,1,,,,,,,,,,,,,,,,,,,,,,,,,,,,
,,,,,V3_011,20,female,2024-10-15_16h31.55.119,jersey_experiment_5_v3,2023.2.2,Win32,84.74576271,,,,,,,,,,,,,,,,619.5312,620.825,620.825,622.0958,return,0.1173,,74.609375,,,,,,FBP-YG-81.png,0.4,1.2,8,0.5,,,,,,,,,,,,,0,53,53,7,1,,,,,,,,,,,,,,,,,,,,,,,,,,,,
,,,,,V3_011,20,female,2024-10-15_16h31.55.119,jersey_experiment_5_v3,2023.2.2,Win32,84.74576271,,,,,,,,,,,,,,,,622.0959,623.3899,623.3899,624.0723,return,0.0682,,88.41145833,,,,,,FBP-RB-17.png,0.43,1.2,49,0.5,,,,,,,,,,,,,0,54,54,48,1,,,,,,,,,,,,,,,,,,,,,,,,,,,,
,,,,,V3_011,20,female,2024-10-15_16h31.55.119,jersey_experiment_5_v3,2023.2.2,Win32,84.74576271,,,,,,,,,,,,,,,,624.0724,625.3666,625.3666,626.2723,return,0.0569,,45.57291667,,,,,,FBP-YG-91.png,0.35,1.2,11,0.5,,,,,,,,,,,,,0,55,55,10,1,,,,,,,,,,,,,,,,,,,,,,,,,,,,
,,,,,V3_011,20,female,2024-10-15_16h31.55.119,jersey_experiment_5_v3,2023.2.2,Win32,84.74576271,,,,,,,,,,,,,,,,626.2725,627.8253,627.8253,628.7312,return,0.0755,,82.55208333,,,,,,FBP-OG-19.png,0.43,1.2,44,0.75,,,,,,,,,,,,,0,56,56,43,1,,,,,,,,,,,,,,,,,,,,,,,,,,,,
,,,,,V3_011,20,female,2024-10-15_16h31.55.119,jersey_experiment_5_v3,2023.2.2,Win32,84.74576271,,,,,,,,,,,,,,,,628.7314,630.0254,630.0255,630.7196,return,0.1063,,84.375,,,,,,FBP-RB-18.png,0.45,1.2,55,0.5,,,,,,,,,,,,,0,57,57,54,1,,,,,,,,,,,,,,,,,,,,,,,,,,,,
,,,,,V3_011,20,female,2024-10-15_16h31.55.119,jersey_experiment_5_v3,2023.2.2,Win32,84.74576271,,,,,,,,,,,,,,,,630.7198,632.0137,632.0138,633.0726,return,0.0328,,51.171875,,,,,,FBP-RB-17.png,0.4,1.2,48,0.5,,,,,,,,,,,,,0,58,58,47,1,,,,,,,,,,,,,,,,,,,,,,,,,,,,
,,,,,V3_011,20,female,2024-10-15_16h31.55.119,jersey_experiment_5_v3,2023.2.2,Win32,84.74576271,,,,,,,,,,,,,,,,633.0728,634.3669,634.3669,635.0845,return,0.0877,,44.40104167,,,,,,FBP-PT-19.png,0.37,1.2,27,0.5,,,,,,,,,,,,,0,59,59,26,1,,,,,,,,,,,,,,,,,,,,,,,,,,,,
,,,,,V3_011,20,female,2024-10-15_16h31.55.119,jersey_experiment_5_v3,2023.2.2,Win32,84.74576271,,,,,,,,,,,,,,,,635.0856,636.3787,636.3787,637.3906,return,0.157,,82.03125,,,,,,FBP-RB-81.png,0.43,1.2,54,0.5,,,,,,,,,,,,,,,,,,0,0,0,53,1,,,,,,,,,,,,,,,,,,,,,,,
,,,,,V3_011,20,female,2024-10-15_16h31.55.119,jersey_experiment_5_v3,2023.2.2,Win32,84.74576271,,,,,,,,,,,,,,,,637.3907,638.9435,638.9436,639.8376,return,0.0967,,79.6875,,,,,,FBP-OG-91.png,0.43,1.2,44,0.75,,,,,,,,,,,,,,,,,,0,1,1,43,1,,,,,,,,,,,,,,,,,,,,,,,
,,,,,V3_011,20,female,2024-10-15_16h31.55.119,jersey_experiment_5_v3,2023.2.2,Win32,84.74576271,,,,,,,,,,,,,,,,639.8379,641.1318,641.1318,642.073,return,0.0676,,50,,,,,,FBP-RB-91.png,0.37,1.2,57,0.5,,,,,,,,,,,,,,,,,,0,2,2,56,1,,,,,,,,,,,,,,,,,,,,,,,
,,,,,V3_011,20,female,2024-10-15_16h31.55.119,jersey_experiment_5_v3,2023.2.2,Win32,84.74576271,,,,,,,,,,,,,,,,642.0732,643.367,643.3671,644.0612,return,0.0984,,44.921875,,,,,,FBP-PT-91.png,0.37,1.2,27,0.5,,,,,,,,,,,,,,,,,,0,3,3,26,1,,,,,,,,,,,,,,,,,,,,,,,
,,,,,V3_011,20,female,2024-10-15_16h31.55.119,jersey_experiment_5_v3,2023.2.2,Win32,84.74576271,,,,,,,,,,,,,,,,644.0614,645.3555,645.3555,646.1554,return,0.0769,,58.46354167,,,,,,FBP-RB-91.png,0.43,1.2,59,0.5,,,,,,,,,,,,,,,,,,0,4,4,58,1,,,,,,,,,,,,,,,,,,,,,,,
,,,,,V3_011,20,female,2024-10-15_16h31.55.119,jersey_experiment_5_v3,2023.2.2,Win32,84.74576271,,,,,,,,,,,,,,,,646.1556,647.7085,647.7085,648.4143,return,0.0738,,49.34895833,,,,,,FBP-OG-81.png,0.37,1.2,37,0.75,,,,,,,,,,,,,,,,,,0,5,5,36,1,,,,,,,,,,,,,,,,,,,,,,,
,,,,,V3_011,20,female,2024-10-15_16h31.55.119,jersey_experiment_5_v3,2023.2.2,Win32,84.74576271,,,,,,,,,,,,,,,,648.4145,649.7084,649.7085,650.4145,return,0.1556,,39.32291667,,,,,,FBP-PT-91.png,0.35,1.2,26,0.5,,,,,,,,,,,,,,,,,,0,6,6,25,1,,,,,,,,,,,,,,,,,,,,,,,
,,,,,V3_011,20,female,2024-10-15_16h31.55.119,jersey_experiment_5_v3,2023.2.2,Win32,84.74576271,,,,,,,,,,,,,,,,650.4145,651.7087,651.7087,653.0264,return,0.1261,,61.84895833,,,,,,FBP-PT-71.png,0.43,1.2,19,0.5,,,,,,,,,,,,,,,,,,0,7,7,18,1,,,,,,,,,,,,,,,,,,,,,,,
,,,,,V3_011,20,female,2024-10-15_16h31.55.119,jersey_experiment_5_v3,2023.2.2,Win32,84.74576271,,,,,,,,,,,,,,,,653.0266,654.3204,654.3205,655.3792,return,0.1182,,56.77083333,,,,,,FBP-PT-81.png,0.37,1.2,22,0.5,,,,,,,,,,,,,,,,,,0,8,8,21,1,,,,,,,,,,,,,,,,,,,,,,,
,,,,,V3_011,20,female,2024-10-15_16h31.55.119,jersey_experiment_5_v3,2023.2.2,Win32,84.74576271,,,,,,,,,,,,,,,,655.3794,656.6734,656.6734,657.3794,return,0.1494,,56.51041667,,,,,,FBP-YG-19.png,0.37,1.2,12,0.5,,,,,,,,,,,,,,,,,,0,9,9,11,1,,,,,,,,,,,,,,,,,,,,,,,
,,,,,V3_011,20,female,2024-10-15_16h31.55.119,jersey_experiment_5_v3,2023.2.2,Win32,84.74576271,,,,,,,,,,,,,,,,657.3795,658.6736,658.6736,659.7794,return,0.2356,,59.24479167,,,,,,FBP-PT-71.png,0.4,1.2,18,0.5,,,,,,,,,,,,,,,,,,0,10,10,17,1,,,,,,,,,,,,,,,,,,,,,,,
,,,,,V3_011,20,female,2024-10-15_16h31.55.119,jersey_experiment_5_v3,2023.2.2,Win32,84.74576271,,,,,,,,,,,,,,,,659.7796,661.0736,661.0736,662.7679,return,1.0843,,55.59895833,,,,,,FBP-RB-71.png,0.37,1.2,47,0.5,,,,,,,,,,,,,,,,,,0,11,11,46,1,,,,,,,,,,,,,,,,,,,,,,,
,,,,,V3_011,20,female,2024-10-15_16h31.55.119,jersey_experiment_5_v3,2023.2.2,Win32,84.74576271,,,,,,,,,,,,,,,,662.7679,664.062,664.062,664.768,return,0.0831,,45.703125,,,,,,FBP-RB-71.png,0.35,1.2,46,0.5,,,,,,,,,,,,,,,,,,0,12,12,45,1,,,,,,,,,,,,,,,,,,,,,,,
,,,,,V3_011,20,female,2024-10-15_16h31.55.119,jersey_experiment_5_v3,2023.2.2,Win32,84.74576271,,,,,,,,,,,,,,,,664.7683,666.0622,666.0622,667.568,return,0.2132,,63.28125,,,,,,FBP-PT-71.png,0.45,1.2,20,0.5,,,,,,,,,,,,,,,,,,0,13,13,19,1,,,,,,,,,,,,,,,,,,,,,,,
,,,,,V3_011,20,female,2024-10-15_16h31.55.119,jersey_experiment_5_v3,2023.2.2,Win32,84.74576271,,,,,,,,,,,,,,,,667.5681,668.8621,668.8622,669.7445,return,0.0728,,87.109375,,,,,,FBP-PT-81.png,0.45,1.2,25,0.5,,,,,,,,,,,,,,,,,,0,14,14,24,1,,,,,,,,,,,,,,,,,,,,,,,
,,,,,V3_011,20,female,2024-10-15_16h31.55.119,jersey_experiment_5_v3,2023.2.2,Win32,84.74576271,,,,,,,,,,,,,,,,669.7447,671.0388,671.0388,672.3446,return,0.0428,,54.81770833,,,,,,FBP-PT-71.png,0.37,1.2,17,0.5,,,,,,,,,,,,,,,,,,0,15,15,16,1,,,,,,,,,,,,,,,,,,,,,,,
,,,,,V3_011,20,female,2024-10-15_16h31.55.119,jersey_experiment_5_v3,2023.2.2,Win32,84.74576271,,,,,,,,,,,,,,,,672.3447,673.6388,673.6389,674.4976,return,0.0628,,69.27083333,,,,,,FBP-YG-17.png,0.4,1.2,3,0.5,,,,,,,,,,,,,,,,,,0,16,16,2,1,,,,,,,,,,,,,,,,,,,,,,,
,,,,,V3_011,20,female,2024-10-15_16h31.55.119,jersey_experiment_5_v3,2023.2.2,Win32,84.74576271,,,,,,,,,,,,,,,,674.4979,676.0506,676.0506,676.5919,return,0.1208,,69.66145833,,,,,,FBP-OG-91.png,0.4,1.2,43,0.75,,,,,,,,,,,,,,,,,,0,17,17,42,1,,,,,,,,,,,,,,,,,,,,,,,
,,,,,V3_011,20,female,2024-10-15_16h31.55.119,jersey_experiment_5_v3,2023.2.2,Win32,84.74576271,,,,,,,,,,,,,,,,676.592,677.8861,677.8861,678.6272,return,0.0787,,82.29166667,,,,,,FBP-YG-18.png,0.45,1.2,10,0.5,,,,,,,,,,,,,,,,,,0,18,18,9,1,,,,,,,,,,,,,,,,,,,,,,,
,,,,,V3_011,20,female,2024-10-15_16h31.55.119,jersey_experiment_5_v3,2023.2.2,Win32,84.74576271,,,,,,,,,,,,,,,,678.6274,679.9214,679.9215,680.6038,return,0.0865,,82.68229167,,,,,,FBP-PT-91.png,0.43,1.2,29,0.5,,,,,,,,,,,,,,,,,,0,19,19,28,1,,,,,,,,,,,,,,,,,,,,,,,
,,,,,V3_011,20,female,2024-10-15_16h31.55.119,jersey_experiment_5_v3,2023.2.2,Win32,84.74576271,,,,,,,,,,,,,,,,680.6039,681.898,681.898,682.5922,return,0.0702,,93.88020833,,,,,,FBP-PT-91.png,0.45,1.2,30,0.5,,,,,,,,,,,,,,,,,,0,20,20,29,1,,,,,,,,,,,,,,,,,,,,,,,
,,,,,V3_011,20,female,2024-10-15_16h31.55.119,jersey_experiment_5_v3,2023.2.2,Win32,84.74576271,,,,,,,,,,,,,,,,682.5923,683.8863,683.8864,684.851,return,0.0369,,57.03125,,,,,,FBP-YG-19.png,0.4,1.2,13,0.5,,,,,,,,,,,,,,,,,,0,21,21,12,1,,,,,,,,,,,,,,,,,,,,,,,
,,,,,V3_011,20,female,2024-10-15_16h31.55.119,jersey_experiment_5_v3,2023.2.2,Win32,84.74576271,,,,,,,,,,,,,,,,684.8512,686.1452,686.1453,686.8629,return,0.0502,,43.359375,,,,,,FBP-RB-91.png,0.35,1.2,56,0.5,,,,,,,,,,,,,,,,,,0,22,22,55,1,,,,,,,,,,,,,,,,,,,,,,,
,,,,,V3_011,20,female,2024-10-15_16h31.55.119,jersey_experiment_5_v3,2023.2.2,Win32,84.74576271,,,,,,,,,,,,,,,,686.863,688.4158,688.4158,688.957,return,0.0987,,39.71354167,,,,,,FBP-OG-81.png,0.35,1.2,36,0.75,,,,,,,,,,,,,,,,,,0,23,23,35,1,,,,,,,,,,,,,,,,,,,,,,,
,,,,,V3_011,20,female,2024-10-15_16h31.55.119,jersey_experiment_5_v3,2023.2.2,Win32,84.74576271,,,,,,,,,,,,,,,,688.9572,690.51,690.51,691.7689,return,0.3968,,39.71354167,,,,,,FBP-OG-71.png,0.37,1.2,32,0.75,,,,,,,,,,,,,,,,,,0,24,24,31,1,,,,,,,,,,,,,,,,,,,,,,,
,,,,,V3_011,20,female,2024-10-15_16h31.55.119,jersey_experiment_5_v3,2023.2.2,Win32,84.74576271,,,,,,,,,,,,,,,,691.769,693.0631,693.0631,695.1691,return,0.189,,54.16666667,,,,,,FBP-RB-81.png,0.4,1.2,53,0.5,,,,,,,,,,,,,,,,,,0,25,25,52,1,,,,,,,,,,,,,,,,,,,,,,,
,,,,,V3_011,20,female,2024-10-15_16h31.55.119,jersey_experiment_5_v3,2023.2.2,Win32,84.74576271,,,,,,,,,,,,,,,,695.1691,696.4631,696.4632,697.4162,return,0.0446,,87.109375,,,,,,FBP-RB-71.png,0.43,1.2,49,0.5,,,,,,,,,,,,,,,,,,0,26,26,48,1,,,,,,,,,,,,,,,,,,,,,,,
,,,,,V3_011,20,female,2024-10-15_16h31.55.119,jersey_experiment_5_v3,2023.2.2,Win32,84.74576271,,,,,,,,,,,,,,,,697.4163,698.7104,698.7105,699.7104,return,0.0034,,42.70833333,,,,,,FBP-PT-81.png,0.35,1.2,21,0.5,,,,,,,,,,,,,,,,,,0,27,27,20,1,,,,,,,,,,,,,,,,,,,,,,,
,,,,,V3_011,20,female,2024-10-15_16h31.55.119,jersey_experiment_5_v3,2023.2.2,Win32,84.74576271,,,,,,,,,,,,,,,,699.7105,701.2518,701.2518,701.9339,return,0.0474,,43.61979167,,,,,,FBP-OG-91.png,0.35,1.2,41,0.75,,,,,,,,,,,,,,,,,,0,28,28,40,1,,,,,,,,,,,,,,,,,,,,,,,
,,,,,V3_011,20,female,2024-10-15_16h31.55.119,jersey_experiment_5_v3,2023.2.2,Win32,84.74576271,,,,,,,,,,,,,,,,701.9341,703.4871,703.4872,704.4634,return,0.0489,,49.86979167,,,,,,FBP-OG-91.png,0.37,1.2,42,0.75,,,,,,,,,,,,,,,,,,0,29,29,41,1,,,,,,,,,,,,,,,,,,,,,,,
,,,,,V3_011,20,female,2024-10-15_16h31.55.119,jersey_experiment_5_v3,2023.2.2,Win32,84.74576271,,,,,,,,,,,,,,,,704.4636,706.0165,706.0165,706.5695,return,0.0518,,59.63541667,,,,,,FBP-OG-71.png,0.4,1.2,33,0.75,,,,,,,,,,,,,,,,,,0,30,30,32,1,,,,,,,,,,,,,,,,,,,,,,,
,,,,,V3_011,20,female,2024-10-15_16h31.55.119,jersey_experiment_5_v3,2023.2.2,Win32,84.74576271,,,,,,,,,,,,,,,,706.5698,707.8635,707.8635,708.3459,return,0.0633,,59.63541667,,,,,,FBP-PT-91.png,0.4,1.2,28,0.5,,,,,,,,,,,,,,,,,,0,31,31,27,1,,,,,,,,,,,,,,,,,,,,,,,
,,,,,V3_011,20,female,2024-10-15_16h31.55.119,jersey_experiment_5_v3,2023.2.2,Win32,84.74576271,,,,,,,,,,,,,,,,708.346,709.6402,709.6402,710.5108,return,0.0969,,54.55729167,,,,,,FBP-YG-17.png,0.37,1.2,2,0.5,,,,,,,,,,,,,,,,,,0,32,32,1,1,,,,,,,,,,,,,,,,,,,,,,,
,,,,,V3_011,20,female,2024-10-15_16h31.55.119,jersey_experiment_5_v3,2023.2.2,Win32,84.74576271,,,,,,,,,,,,,,,,710.5108,711.805,711.805,712.7696,return,0.0554,,46.35416667,,,,,,FBP-RB-81.png,0.35,1.2,51,0.5,,,,,,,,,,,,,,,,,,0,33,33,50,1,,,,,,,,,,,,,,,,,,,,,,,
,,,,,V3_011,20,female,2024-10-15_16h31.55.119,jersey_experiment_5_v3,2023.2.2,Win32,84.74576271,,,,,,,,,,,,,,,,712.7698,714.3111,714.3111,714.7463,return,0.1096,,49.08854167,,,,,,FBP-OG-81.png,0.4,1.2,38,0.75,,,,,,,,,,,,,,,,,,0,34,34,37,1,,,,,,,,,,,,,,,,,,,,,,,
,,,,,V3_011,20,female,2024-10-15_16h31.55.119,jersey_experiment_5_v3,2023.2.2,Win32,84.74576271,,,,,,,,,,,,,,,,714.7464,716.2992,716.2992,717.0875,return,0.0609,,91.53645833,,,,,,FBP-OG-91.png,0.45,1.2,45,0.75,,,,,,,,,,,,,,,,,,0,35,35,44,1,,,,,,,,,,,,,,,,,,,,,,,
,,,,,V3_011,20,female,2024-10-15_16h31.55.119,jersey_experiment_5_v3,2023.2.2,Win32,84.74576271,,,,,,,,,,,,,,,,717.0876,718.3817,718.3817,719.1934,return,0.0419,,49.86979167,,,,,,FBP-PT-71.png,0.35,1.2,16,0.5,,,,,,,,,,,,,,,,,,0,36,36,15,1,,,,,,,,,,,,,,,,,,,,,,,
,,,,,V3_011,20,female,2024-10-15_16h31.55.119,jersey_experiment_5_v3,2023.2.2,Win32,84.74576271,,,,,,,,,,,,,,,,719.1936,720.4876,720.4876,721.2288,return,0.0722,,81.90104167,,,,,,FBP-YG-19.png,0.43,1.2,14,0.5,,,,,,,,,,,,,,,,,,0,37,37,13,1,,,,,,,,,,,,,,,,,,,,,,,
,,,,,V3_011,20,female,2024-10-15_16h31.55.119,jersey_experiment_5_v3,2023.2.2,Win32,84.74576271,,,,,,,,,,,,,,,,721.2289,722.5231,722.5231,723.3113,return,0.0732,,73.828125,,,,,,FBP-RB-91.png,0.4,1.2,58,0.5,,,,,,,,,,,,,,,,,,0,38,38,57,1,,,,,,,,,,,,,,,,,,,,,,,
,,,,,V3_011,20,female,2024-10-15_16h31.55.119,jersey_experiment_5_v3,2023.2.2,Win32,84.74576271,,,,,,,,,,,,,,,,723.3113,724.6053,724.6054,725.1701,return,0.1024,,73.828125,,,,,,FBP-RB-71.png,0.4,1.2,48,0.5,,,,,,,,,,,,,,,,,,0,39,39,47,1,,,,,,,,,,,,,,,,,,,,,,,
,,,,,V3_011,20,female,2024-10-15_16h31.55.119,jersey_experiment_5_v3,2023.2.2,Win32,84.74576271,,,,,,,,,,,,,,,,725.1702,726.4642,726.4642,727.3232,return,0.0971,,66.66666667,,,,,,FBP-RB-81.png,0.37,1.2,52,0.5,,,,,,,,,,,,,,,,,,0,40,40,51,1,,,,,,,,,,,,,,,,,,,,,,,
,,,,,V3_011,20,female,2024-10-15_16h31.55.119,jersey_experiment_5_v3,2023.2.2,Win32,84.74576271,,,,,,,,,,,,,,,,727.3233,728.6174,728.6175,729.6292,return,0.0721,,56.640625,,,,,,FBP-YG-17.png,0.35,1.2,1,0.5,,,,,,,,,,,,,,,,,,0,41,41,0,1,,,,,,,,,,,,,,,,,,,,,,,
,,,,,V3_011,20,female,2024-10-15_16h31.55.119,jersey_experiment_5_v3,2023.2.2,Win32,84.74576271,,,,,,,,,,,,,,,,729.6294,731.1822,731.1823,731.7114,return,0.1198,,42.44791667,,,,,,FBP-OG-71.png,0.35,1.2,31,0.75,,,,,,,,,,,,,,,,,,0,42,42,30,1,,,,,,,,,,,,,,,,,,,,,,,
,,,,,V3_011,20,female,2024-10-15_16h31.55.119,jersey_experiment_5_v3,2023.2.2,Win32,84.74576271,,,,,,,,,,,,,,,,731.7116,733.0057,733.0058,733.6999,return,0.133,,47.65625,,,,,,FBP-YG-18.png,0.4,1.2,8,0.5,,,,,,,,,,,,,,,,,,0,43,43,7,1,,,,,,,,,,,,,,,,,,,,,,,
,,,,,V3_011,20,female,2024-10-15_16h31.55.119,jersey_experiment_5_v3,2023.2.2,Win32,84.74576271,,,,,,,,,,,,,,,,733.7002,734.9942,734.9943,735.7117,return,0.083,,82.8125,,,,,,FBP-RB-81.png,0.45,1.2,55,0.5,,,,,,,,,,,,,,,,,,0,44,44,54,1,,,,,,,,,,,,,,,,,,,,,,,
,,,,,V3_011,20,female,2024-10-15_16h31.55.119,jersey_experiment_5_v3,2023.2.2,Win32,84.74576271,,,,,,,,,,,,,,,,735.7119,737.0061,737.0061,737.6176,return,0.0707,,87.890625,,,,,,FBP-YG-17.png,0.43,1.2,4,0.5,,,,,,,,,,,,,,,,,,0,45,45,3,1,,,,,,,,,,,,,,,,,,,,,,,
,,,,,V3_011,20,female,2024-10-15_16h31.55.119,jersey_experiment_5_v3,2023.2.2,Win32,84.74576271,,,,,,,,,,,,,,,,737.6178,739.1709,739.1709,739.6883,return,0.1115,,86.84895833,,,,,,FBP-OG-71.png,0.43,1.2,34,0.75,,,,,,,,,,,,,,,,,,0,46,46,33,1,,,,,,,,,,,,,,,,,,,,,,,
,,,,,V3_011,20,female,2024-10-15_16h31.55.119,jersey_experiment_5_v3,2023.2.2,Win32,84.74576271,,,,,,,,,,,,,,,,739.6884,740.9824,740.9824,741.5824,return,0.0861,,87.890625,,,,,,FBP-YG-18.png,0.43,1.2,9,0.5,,,,,,,,,,,,,,,,,,0,47,47,8,1,,,,,,,,,,,,,,,,,,,,,,,
,,,,,V3_011,20,female,2024-10-15_16h31.55.119,jersey_experiment_5_v3,2023.2.2,Win32,84.74576271,,,,,,,,,,,,,,,,741.5825,743.1355,743.1355,743.5238,return,0.212,,91.14583333,,,,,,FBP-OG-81.png,0.43,1.2,39,0.75,,,,,,,,,,,,,,,,,,0,48,48,38,1,,,,,,,,,,,,,,,,,,,,,,,
,,,,,V3_011,20,female,2024-10-15_16h31.55.119,jersey_experiment_5_v3,2023.2.2,Win32,84.74576271,,,,,,,,,,,,,,,,743.524,744.818,744.818,745.8062,return,0.1296,,52.60416667,,,,,,FBP-YG-19.png,0.35,1.2,11,0.5,,,,,,,,,,,,,,,,,,0,49,49,10,1,,,,,,,,,,,,,,,,,,,,,,,
,,,,,V3_011,20,female,2024-10-15_16h31.55.119,jersey_experiment_5_v3,2023.2.2,Win32,84.74576271,,,,,,,,,,,,,,,,745.8065,747.1004,747.1005,747.7238,return,0.0727,,79.6875,,,,,,FBP-RB-91.png,0.45,1.2,60,0.5,,,,,,,,,,,,,,,,,,0,50,50,59,1,,,,,,,,,,,,,,,,,,,,,,,
,,,,,V3_011,20,female,2024-10-15_16h31.55.119,jersey_experiment_5_v3,2023.2.2,Win32,84.74576271,,,,,,,,,,,,,,,,747.7241,749.0181,749.0181,749.7711,return,0.0515,,63.02083333,,,,,,FBP-YG-18.png,0.37,1.2,7,0.5,,,,,,,,,,,,,,,,,,0,51,51,6,1,,,,,,,,,,,,,,,,,,,,,,,
,,,,,V3_011,20,female,2024-10-15_16h31.55.119,jersey_experiment_5_v3,2023.2.2,Win32,84.74576271,,,,,,,,,,,,,,,,749.7712,751.3243,751.3243,752.0417,return,0.1021,,92.44791667,,,,,,FBP-OG-71.png,0.45,1.2,35,0.75,,,,,,,,,,,,,,,,,,0,52,52,34,1,,,,,,,,,,,,,,,,,,,,,,,
,,,,,V3_011,20,female,2024-10-15_16h31.55.119,jersey_experiment_5_v3,2023.2.2,Win32,84.74576271,,,,,,,,,,,,,,,,752.0417,753.5948,753.5949,754.4419,return,0.0185,,93.359375,,,,,,FBP-OG-81.png,0.45,1.2,40,0.75,,,,,,,,,,,,,,,,,,0,53,53,39,1,,,,,,,,,,,,,,,,,,,,,,,
,,,,,V3_011,20,female,2024-10-15_16h31.55.119,jersey_experiment_5_v3,2023.2.2,Win32,84.74576271,,,,,,,,,,,,,,,,754.442,755.736,755.736,756.5713,return,0.1359,,92.83854167,,,,,,FBP-RB-71.png,0.45,1.2,50,0.5,,,,,,,,,,,,,,,,,,0,54,54,49,1,,,,,,,,,,,,,,,,,,,,,,,
,,,,,V3_011,20,female,2024-10-15_16h31.55.119,jersey_experiment_5_v3,2023.2.2,Win32,84.74576271,,,,,,,,,,,,,,,,756.5715,757.8655,757.8655,758.9714,return,0.0652,,52.86458333,,,,,,FBP-YG-18.png,0.35,1.2,6,0.5,,,,,,,,,,,,,,,,,,0,55,55,5,1,,,,,,,,,,,,,,,,,,,,,,,
,,,,,V3_011,20,female,2024-10-15_16h31.55.119,jersey_experiment_5_v3,2023.2.2,Win32,84.74576271,,,,,,,,,,,,,,,,758.9716,760.2655,760.2656,761.0186,return,0.0423,,86.84895833,,,,,,FBP-YG-17.png,0.45,1.2,5,0.5,,,,,,,,,,,,,,,,,,0,56,56,4,1,,,,,,,,,,,,,,,,,,,,,,,
,,,,,V3_011,20,female,2024-10-15_16h31.55.119,jersey_experiment_5_v3,2023.2.2,Win32,84.74576271,,,,,,,,,,,,,,,,761.0188,762.3126,762.3126,763.0893,return,0.0469,,73.046875,,,,,,FBP-PT-81.png,0.4,1.2,23,0.5,,,,,,,,,,,,,,,,,,0,57,57,22,1,,,,,,,,,,,,,,,,,,,,,,,
,,,,,V3_011,20,female,2024-10-15_16h31.55.119,jersey_experiment_5_v3,2023.2.2,Win32,84.74576271,,,,,,,,,,,,,,,,763.0894,764.3833,764.3833,765.1716,return,0.118,,92.1875,,,,,,FBP-YG-19.png,0.45,1.2,15,0.5,,,,,,,,,,,,,,,,,,0,58,58,14,1,,,,,,,,,,,,,,,,,,,,,,,
,,,,,V3_011,20,female,2024-10-15_16h31.55.119,jersey_experiment_5_v3,2023.2.2,Win32,84.74576271,,,,,,,,,,,,,,,,765.1717,766.4658,766.4658,767.3246,return,0.1189,,92.83854167,,,,,,FBP-PT-81.png,0.43,1.2,24,0.5,,,,,,,,,,,,,,,,,,0,59,59,23,1,,,,,,,,,,,,,,,,,,,,,,,
,,,,,V3_011,20,female,2024-10-15_16h31.55.119,jersey_experiment_5_v3,2023.2.2,Win32,84.74576271,,,,,,,,,,,,,,,,,,,,,,,,,,,,,,,,,,,,,,,,,,,,,,,,,,,,,,,,767.3247,775.4662,return,8.1363,,,,,,,,,,,,,,,,,,,
,,,,,V3_011,20,female,2024-10-15_16h31.55.119,jersey_experiment_5_v3,2023.2.2,Win32,84.74576271,,,,,,,,,,,,,,,,,,,,,,,,,,,,,,,,,,,,,,,,,,,,,,,,,,,,,,,,,,,,,775.4663,782.9959,1,6.4412,return,1.0704,,,,,,,,,,,,
,,,,,V3_011,20,female,2024-10-15_16h31.55.119,jersey_experiment_5_v3,2023.2.2,Win32,84.74576271,,,,,,,,,,,,,,,,,,,,,,,,,,,,,,,,,,,,,,,,,,,,,,,,,,,,,,,,,,,,,,,,,,,,782.996,811.1975,something about spacial reasoning or implicit bias related to race,right,23.37,,,,,,
,,,,,V3_011,20,female,2024-10-15_16h31.55.119,jersey_experiment_5_v3,2023.2.2,Win32,84.74576271,,,,,,,,,,,,,,,,,,,,,,,,,,,,,,,,,,,,,,,,,,,,,,,,,,,,,,,,,,,,,,,,,,,,,,,,,,811.1975,814.1265,return,2.9171,