requirements.started,requirements.stopped,key_resp_3.keys,key_resp_3.rt,key_resp_3.duration,Subject ID,Age,Gender,date,expName,psychopyVersion,OS,frameRate,instructions1.started,instructions1.stopped,key_resp.keys,key_resp.rt,key_resp.duration,example.started,example.stopped,enter_2.keys,enter_2.rt,enter_2.duration,instructions2.started,instructions2.stopped,enter_3.keys,enter_3.rt,enter_3.duration,image.started,image.stopped,slider_2.started,slider_2.stopped,next.keys,next.rt,next.duration,slider.response,trial_block_1.thisRepN,trial_block_1.thisTrialN,trial_block_1.thisN,trial_block_1.thisIndex,trial_block_1.ran,Path,Width,Height,Index,Duration,trial_block_2.thisRepN,trial_block_2.thisTrialN,trial_block_2.thisN,trial_block_2.thisIndex,trial_block_2.ran,rest_break.started,rest_break.stopped,end_break.started,end_break.stopped,key_resp_5.keys,key_resp_5.rt,key_resp_5.duration,trial_block_3.thisRepN,trial_block_3.thisTrialN,trial_block_3.thisN,trial_block_3.thisIndex,trial_block_3.ran,trial_block_4.thisRepN,trial_block_4.thisTrialN,trial_block_4.thisN,trial_block_4.thisIndex,trial_block_4.ran,questions_intro.started,questions_intro.stopped,enter_12.keys,enter_12.rt,enter_12.duration,question2.started,question2.stopped,question_doingbest.response,question_doingbest.rt,enter_15.keys,enter_15.rt,enter_15.duration,pattern.started,pattern.stopped,pattern_2.text,enter_17.keys,enter_17.rt,enter_17.duration,thankyou.started,thankyou.stopped,enter_14.keys,enter_14.rt,enter_14.duration
0.0001,12.343,return,12.3287,,V3_080,18,Female,2024-11-20_16h20.43.241,jersey_experiment_5_v3,2023.2.2,Win32,84.74576271,,,,,,,,,,,,,,,,,,,,,,,,,,,,,,,,,,,,,,,,,,,,,,,,,,,,,,,,,,,,,,,,,,,,,,,,,,,,,,
,,,,,V3_080,18,Female,2024-11-20_16h20.43.241,jersey_experiment_5_v3,2023.2.2,Win32,84.74576271,12.3431,24.8613,return,12.4971,,,,,,,,,,,,,,,,,,,,,,,,,,,,,,,,,,,,,,,,,,,,,,,,,,,,,,,,,,,,,,,,,,,,,,,,,,
,,,,,V3_080,18,Female,2024-11-20_16h20.43.241,jersey_experiment_5_v3,2023.2.2,Win32,84.74576271,,,,,,24.8614,32.9911,return,8.0885,,,,,,,,,,,,,,,,,,,,,,,,,,,,,,,,,,,,,,,,,,,,,,,,,,,,,,,,,,,,,,,,,,,,,
,,,,,V3_080,18,Female,2024-11-20_16h20.43.241,jersey_experiment_5_v3,2023.2.2,Win32,84.74576271,,,,,,,,,,,32.9912,59.533,return,26.5277,,,,,,,,,,,,,,,,,,,,,,,,,,,,,,,,,,,,,,,,,,,,,,,,,,,,,,,,,,,,,,,,
,,,,,V3_080,18,Female,2024-11-20_16h20.43.241,jersey_experiment_5_v3,2023.2.2,Win32,84.74576271,,,,,,,,,,,,,,,,59.5346,60.8274,60.8275,66.2512,return,1.662,,73.95833333,0,0,0,35,1,FBP-OG-18.png,0.35,1.2,36,0.5,,,,,,,,,,,,,,,,,,,,,,,,,,,,,,,,,,,,,,,,,,,,,
,,,,,V3_080,18,Female,2024-11-20_16h20.43.241,jersey_experiment_5_v3,2023.2.2,Win32,84.74576271,,,,,,,,,,,,,,,,66.2516,67.545,67.5451,70.4158,return,0.7192,,77.34375,0,1,1,42,1,FBP-OG-19.png,0.4,1.2,43,0.5,,,,,,,,,,,,,,,,,,,,,,,,,,,,,,,,,,,,,,,,,,,,,
,,,,,V3_080,18,Female,2024-11-20_16h20.43.241,jersey_experiment_5_v3,2023.2.2,Win32,84.74576271,,,,,,,,,,,,,,,,70.4161,71.9689,71.969,74.3455,return,0.6369,,91.53645833,0,2,2,28,1,FBP-PT-19.png,0.43,1.2,29,0.75,,,,,,,,,,,,,,,,,,,,,,,,,,,,,,,,,,,,,,,,,,,,,
,,,,,V3_080,18,Female,2024-11-20_16h20.43.241,jersey_experiment_5_v3,2023.2.2,Win32,84.74576271,,,,,,,,,,,,,,,,74.3457,75.8984,75.8985,78.5103,return,0.6037,,63.671875,0,3,3,6,1,FBP-YG-81.png,0.37,1.2,7,0.75,,,,,,,,,,,,,,,,,,,,,,,,,,,,,,,,,,,,,,,,,,,,,
,,,,,V3_080,18,Female,2024-11-20_16h20.43.241,jersey_experiment_5_v3,2023.2.2,Win32,84.74576271,,,,,,,,,,,,,,,,78.5105,80.0632,80.0632,82.7106,return,0.7374,,96.74479167,0,4,4,49,1,FBP-RB-17.png,0.45,1.2,50,0.75,,,,,,,,,,,,,,,,,,,,,,,,,,,,,,,,,,,,,,,,,,,,,
,,,,,V3_080,18,Female,2024-11-20_16h20.43.241,jersey_experiment_5_v3,2023.2.2,Win32,84.74576271,,,,,,,,,,,,,,,,82.7109,84.2637,84.2637,86.8636,return,0.6594,,49.34895833,0,5,5,55,1,FBP-RB-19.png,0.35,1.2,56,0.75,,,,,,,,,,,,,,,,,,,,,,,,,,,,,,,,,,,,,,,,,,,,,
,,,,,V3_080,18,Female,2024-11-20_16h20.43.241,jersey_experiment_5_v3,2023.2.2,Win32,84.74576271,,,,,,,,,,,,,,,,86.8638,88.4165,88.4165,91.052,return,0.6255,,52.08333333,0,6,6,1,1,FBP-YG-71.png,0.37,1.2,2,0.75,,,,,,,,,,,,,,,,,,,,,,,,,,,,,,,,,,,,,,,,,,,,,
,,,,,V3_080,18,Female,2024-11-20_16h20.43.241,jersey_experiment_5_v3,2023.2.2,Win32,84.74576271,,,,,,,,,,,,,,,,91.0522,92.605,92.605,96.4877,return,2.4422,,66.53645833,0,7,7,21,1,FBP-PT-18.png,0.37,1.2,22,0.75,,,,,,,,,,,,,,,,,,,,,,,,,,,,,,,,,,,,,,,,,,,,,
,,,,,V3_080,18,Female,2024-11-20_16h20.43.241,jersey_experiment_5_v3,2023.2.2,Win32,84.74576271,,,,,,,,,,,,,,,,96.4879,97.7816,97.7817,100.2995,return,0.6499,,69.66145833,0,8,8,40,1,FBP-OG-19.png,0.35,1.2,41,0.5,,,,,,,,,,,,,,,,,,,,,,,,,,,,,,,,,,,,,,,,,,,,,
,,,,,V3_080,18,Female,2024-11-20_16h20.43.241,jersey_experiment_5_v3,2023.2.2,Win32,84.74576271,,,,,,,,,,,,,,,,100.2997,101.8523,101.8525,105.0525,return,0.6594,,65.88541667,0,9,9,56,1,FBP-RB-19.png,0.37,1.2,57,0.75,,,,,,,,,,,,,,,,,,,,,,,,,,,,,,,,,,,,,,,,,,,,,
,,,,,V3_080,18,Female,2024-11-20_16h20.43.241,jersey_experiment_5_v3,2023.2.2,Win32,84.74576271,,,,,,,,,,,,,,,,105.0528,106.3468,106.3469,109.6644,return,0.706,,86.45833333,0,10,10,37,1,FBP-OG-18.png,0.4,1.2,38,0.5,,,,,,,,,,,,,,,,,,,,,,,,,,,,,,,,,,,,,,,,,,,,,
,,,,,V3_080,18,Female,2024-11-20_16h20.43.241,jersey_experiment_5_v3,2023.2.2,Win32,84.74576271,,,,,,,,,,,,,,,,109.6647,110.9585,110.9586,113.0057,return,0.7916,,88.41145833,0,11,11,38,1,FBP-OG-18.png,0.43,1.2,39,0.5,,,,,,,,,,,,,,,,,,,,,,,,,,,,,,,,,,,,,,,,,,,,,
,,,,,V3_080,18,Female,2024-11-20_16h20.43.241,jersey_experiment_5_v3,2023.2.2,Win32,84.74576271,,,,,,,,,,,,,,,,113.006,114.5586,114.5587,116.8648,return,0.8133,,75.13020833,0,12,12,27,1,FBP-PT-19.png,0.4,1.2,28,0.75,,,,,,,,,,,,,,,,,,,,,,,,,,,,,,,,,,,,,,,,,,,,,
,,,,,V3_080,18,Female,2024-11-20_16h20.43.241,jersey_experiment_5_v3,2023.2.2,Win32,84.74576271,,,,,,,,,,,,,,,,116.8651,118.4176,118.4177,119.9354,return,0.6588,,75,0,13,13,57,1,FBP-RB-19.png,0.4,1.2,58,0.75,,,,,,,,,,,,,,,,,,,,,,,,,,,,,,,,,,,,,,,,,,,,,
,,,,,V3_080,18,Female,2024-11-20_16h20.43.241,jersey_experiment_5_v3,2023.2.2,Win32,84.74576271,,,,,,,,,,,,,,,,119.9356,121.4884,121.4884,123.7827,return,0.7125,,98.56770833,0,14,14,8,1,FBP-YG-81.png,0.43,1.2,9,0.75,,,,,,,,,,,,,,,,,,,,,,,,,,,,,,,,,,,,,,,,,,,,,
,,,,,V3_080,18,Female,2024-11-20_16h20.43.241,jersey_experiment_5_v3,2023.2.2,Win32,84.74576271,,,,,,,,,,,,,,,,123.7829,125.3357,125.3357,127.4651,return,0.6974,,39.71354167,0,15,15,25,1,FBP-PT-19.png,0.35,1.2,26,0.75,,,,,,,,,,,,,,,,,,,,,,,,,,,,,,,,,,,,,,,,,,,,,
,,,,,V3_080,18,Female,2024-11-20_16h20.43.241,jersey_experiment_5_v3,2023.2.2,Win32,84.74576271,,,,,,,,,,,,,,,,127.4653,128.7593,128.7593,131.4653,return,0.8992,,38.671875,0,16,16,30,1,FBP-OG-17.png,0.35,1.2,31,0.5,,,,,,,,,,,,,,,,,,,,,,,,,,,,,,,,,,,,,,,,,,,,,
,,,,,V3_080,18,Female,2024-11-20_16h20.43.241,jersey_experiment_5_v3,2023.2.2,Win32,84.74576271,,,,,,,,,,,,,,,,131.4655,133.0186,133.0186,134.9712,return,0.756,,59.765625,0,17,17,52,1,FBP-RB-18.png,0.4,1.2,53,0.75,,,,,,,,,,,,,,,,,,,,,,,,,,,,,,,,,,,,,,,,,,,,,
,,,,,V3_080,18,Female,2024-11-20_16h20.43.241,jersey_experiment_5_v3,2023.2.2,Win32,84.74576271,,,,,,,,,,,,,,,,134.9714,136.2654,136.2655,139.5478,return,0.6501,,48.95833333,0,18,18,31,1,FBP-OG-17.png,0.37,1.2,32,0.5,,,,,,,,,,,,,,,,,,,,,,,,,,,,,,,,,,,,,,,,,,,,,
,,,,,V3_080,18,Female,2024-11-20_16h20.43.241,jersey_experiment_5_v3,2023.2.2,Win32,84.74576271,,,,,,,,,,,,,,,,139.548,141.0894,141.0894,143.7598,return,0.6587,,99.73958333,0,19,19,29,1,FBP-PT-19.png,0.45,1.2,30,0.75,,,,,,,,,,,,,,,,,,,,,,,,,,,,,,,,,,,,,,,,,,,,,
,,,,,V3_080,18,Female,2024-11-20_16h20.43.241,jersey_experiment_5_v3,2023.2.2,Win32,84.74576271,,,,,,,,,,,,,,,,143.7603,145.3128,145.3129,147.9483,return,0.6595,,38.93229167,0,20,20,50,1,FBP-RB-18.png,0.35,1.2,51,0.75,,,,,,,,,,,,,,,,,,,,,,,,,,,,,,,,,,,,,,,,,,,,,
,,,,,V3_080,18,Female,2024-11-20_16h20.43.241,jersey_experiment_5_v3,2023.2.2,Win32,84.74576271,,,,,,,,,,,,,,,,147.9486,149.2424,149.2424,151.4308,return,0.6418,,75,0,21,21,44,1,FBP-OG-19.png,0.45,1.2,45,0.5,,,,,,,,,,,,,,,,,,,,,,,,,,,,,,,,,,,,,,,,,,,,,
,,,,,V3_080,18,Female,2024-11-20_16h20.43.241,jersey_experiment_5_v3,2023.2.2,Win32,84.74576271,,,,,,,,,,,,,,,,151.4311,152.9837,152.9838,156.0427,return,1.4137,,24.86979167,0,22,22,0,1,FBP-YG-71.png,0.35,1.2,1,0.75,,,,,,,,,,,,,,,,,,,,,,,,,,,,,,,,,,,,,,,,,,,,,
,,,,,V3_080,18,Female,2024-11-20_16h20.43.241,jersey_experiment_5_v3,2023.2.2,Win32,84.74576271,,,,,,,,,,,,,,,,156.0429,157.5843,157.5843,159.7723,return,0.7394,,28.77604167,0,23,23,5,1,FBP-YG-81.png,0.35,1.2,6,0.75,,,,,,,,,,,,,,,,,,,,,,,,,,,,,,,,,,,,,,,,,,,,,
,,,,,V3_080,18,Female,2024-11-20_16h20.43.241,jersey_experiment_5_v3,2023.2.2,Win32,84.74576271,,,,,,,,,,,,,,,,159.7726,161.3252,161.3253,163.3724,return,0.6455,,42.96875,0,24,24,11,1,FBP-YG-91.png,0.37,1.2,12,0.75,,,,,,,,,,,,,,,,,,,,,,,,,,,,,,,,,,,,,,,,,,,,,
,,,,,V3_080,18,Female,2024-11-20_16h20.43.241,jersey_experiment_5_v3,2023.2.2,Win32,84.74576271,,,,,,,,,,,,,,,,163.3725,164.9253,164.9253,167.5843,return,0.6204,,74.34895833,0,25,25,48,1,FBP-RB-17.png,0.43,1.2,49,0.75,,,,,,,,,,,,,,,,,,,,,,,,,,,,,,,,,,,,,,,,,,,,,
,,,,,V3_080,18,Female,2024-11-20_16h20.43.241,jersey_experiment_5_v3,2023.2.2,Win32,84.74576271,,,,,,,,,,,,,,,,167.5846,169.1373,169.1374,170.5496,return,0.6056,,73.17708333,0,26,26,17,1,FBP-PT-17.png,0.4,1.2,18,0.75,,,,,,,,,,,,,,,,,,,,,,,,,,,,,,,,,,,,,,,,,,,,,
,,,,,V3_080,18,Female,2024-11-20_16h20.43.241,jersey_experiment_5_v3,2023.2.2,Win32,84.74576271,,,,,,,,,,,,,,,,170.5499,172.1021,172.1021,175.0789,return,0.6864,,34.24479167,0,27,27,10,1,FBP-YG-91.png,0.35,1.2,11,0.75,,,,,,,,,,,,,,,,,,,,,,,,,,,,,,,,,,,,,,,,,,,,,
,,,,,V3_080,18,Female,2024-11-20_16h20.43.241,jersey_experiment_5_v3,2023.2.2,Win32,84.74576271,,,,,,,,,,,,,,,,175.0791,176.6317,176.6317,178.6317,return,0.4519,,98.56770833,0,28,28,9,1,FBP-YG-81.png,0.45,1.2,10,0.75,,,,,,,,,,,,,,,,,,,,,,,,,,,,,,,,,,,,,,,,,,,,,
,,,,,V3_080,18,Female,2024-11-20_16h20.43.241,jersey_experiment_5_v3,2023.2.2,Win32,84.74576271,,,,,,,,,,,,,,,,178.632,180.1847,180.1848,182.6201,return,0.6376,,98.828125,0,29,29,54,1,FBP-RB-18.png,0.45,1.2,55,0.75,,,,,,,,,,,,,,,,,,,,,,,,,,,,,,,,,,,,,,,,,,,,,
,,,,,V3_080,18,Female,2024-11-20_16h20.43.241,jersey_experiment_5_v3,2023.2.2,Win32,84.74576271,,,,,,,,,,,,,,,,182.6205,184.1736,184.1736,185.9261,return,0.4524,,98.828125,0,30,30,24,1,FBP-PT-18.png,0.45,1.2,25,0.75,,,,,,,,,,,,,,,,,,,,,,,,,,,,,,,,,,,,,,,,,,,,,
,,,,,V3_080,18,Female,2024-11-20_16h20.43.241,jersey_experiment_5_v3,2023.2.2,Win32,84.74576271,,,,,,,,,,,,,,,,185.9263,187.4792,187.4792,190.7028,return,0.5635,,49.47916667,0,31,31,51,1,FBP-RB-18.png,0.37,1.2,52,0.75,,,,,,,,,,,,,,,,,,,,,,,,,,,,,,,,,,,,,,,,,,,,,
,,,,,V3_080,18,Female,2024-11-20_16h20.43.241,jersey_experiment_5_v3,2023.2.2,Win32,84.74576271,,,,,,,,,,,,,,,,190.703,192.2559,192.2559,194.1264,return,0.5884,,26.04166667,0,32,32,45,1,FBP-RB-17.png,0.35,1.2,46,0.75,,,,,,,,,,,,,,,,,,,,,,,,,,,,,,,,,,,,,,,,,,,,,
,,,,,V3_080,18,Female,2024-11-20_16h20.43.241,jersey_experiment_5_v3,2023.2.2,Win32,84.74576271,,,,,,,,,,,,,,,,194.1267,195.6795,195.6795,197.6914,return,0.6839,,99.86979167,0,33,33,19,1,FBP-PT-17.png,0.45,1.2,20,0.75,,,,,,,,,,,,,,,,,,,,,,,,,,,,,,,,,,,,,,,,,,,,,
,,,,,V3_080,18,Female,2024-11-20_16h20.43.241,jersey_experiment_5_v3,2023.2.2,Win32,84.74576271,,,,,,,,,,,,,,,,197.6917,199.2443,199.2443,201.4679,return,0.5986,,2.864583333,0,34,34,15,1,FBP-PT-17.png,0.35,1.2,16,0.75,,,,,,,,,,,,,,,,,,,,,,,,,,,,,,,,,,,,,,,,,,,,,
,,,,,V3_080,18,Female,2024-11-20_16h20.43.241,jersey_experiment_5_v3,2023.2.2,Win32,84.74576271,,,,,,,,,,,,,,,,201.4682,202.7622,202.7622,205.0798,return,0.5467,,86.45833333,0,35,35,43,1,FBP-OG-19.png,0.43,1.2,44,0.5,,,,,,,,,,,,,,,,,,,,,,,,,,,,,,,,,,,,,,,,,,,,,
,,,,,V3_080,18,Female,2024-11-20_16h20.43.241,jersey_experiment_5_v3,2023.2.2,Win32,84.74576271,,,,,,,,,,,,,,,,205.0801,206.374,206.374,207.6917,return,0.3281,,99.609375,0,36,36,39,1,FBP-OG-18.png,0.45,1.2,40,0.5,,,,,,,,,,,,,,,,,,,,,,,,,,,,,,,,,,,,,,,,,,,,,
,,,,,V3_080,18,Female,2024-11-20_16h20.43.241,jersey_experiment_5_v3,2023.2.2,Win32,84.74576271,,,,,,,,,,,,,,,,207.692,208.9859,208.9859,210.9507,return,0.486,,69.27083333,0,37,37,32,1,FBP-OG-17.png,0.4,1.2,33,0.5,,,,,,,,,,,,,,,,,,,,,,,,,,,,,,,,,,,,,,,,,,,,,
,,,,,V3_080,18,Female,2024-11-20_16h20.43.241,jersey_experiment_5_v3,2023.2.2,Win32,84.74576271,,,,,,,,,,,,,,,,210.9508,212.2448,212.2449,214.3507,return,0.4642,,27.86458333,0,38,38,36,1,FBP-OG-18.png,0.37,1.2,37,0.5,,,,,,,,,,,,,,,,,,,,,,,,,,,,,,,,,,,,,,,,,,,,,
,,,,,V3_080,18,Female,2024-11-20_16h20.43.241,jersey_experiment_5_v3,2023.2.2,Win32,84.74576271,,,,,,,,,,,,,,,,214.351,215.9037,215.9037,219.1627,return,2.1212,,51.69270833,0,39,39,47,1,FBP-RB-17.png,0.4,1.2,48,0.75,,,,,,,,,,,,,,,,,,,,,,,,,,,,,,,,,,,,,,,,,,,,,
,,,,,V3_080,18,Female,2024-11-20_16h20.43.241,jersey_experiment_5_v3,2023.2.2,Win32,84.74576271,,,,,,,,,,,,,,,,219.163,220.7156,220.7157,222.5394,return,0.2598,,76.69270833,0,40,40,59,1,FBP-RB-19.png,0.45,1.2,60,0.75,,,,,,,,,,,,,,,,,,,,,,,,,,,,,,,,,,,,,,,,,,,,,
,,,,,V3_080,18,Female,2024-11-20_16h20.43.241,jersey_experiment_5_v3,2023.2.2,Win32,84.74576271,,,,,,,,,,,,,,,,222.5397,224.0924,224.0924,225.1983,return,0.5167,,85.28645833,0,41,41,58,1,FBP-RB-19.png,0.43,1.2,59,0.75,,,,,,,,,,,,,,,,,,,,,,,,,,,,,,,,,,,,,,,,,,,,,
,,,,,V3_080,18,Female,2024-11-20_16h20.43.241,jersey_experiment_5_v3,2023.2.2,Win32,84.74576271,,,,,,,,,,,,,,,,225.1985,226.4923,226.4924,228.622,return,0.316,,43.09895833,0,42,42,41,1,FBP-OG-19.png,0.37,1.2,42,0.5,,,,,,,,,,,,,,,,,,,,,,,,,,,,,,,,,,,,,,,,,,,,,
,,,,,V3_080,18,Female,2024-11-20_16h20.43.241,jersey_experiment_5_v3,2023.2.2,Win32,84.74576271,,,,,,,,,,,,,,,,228.6224,230.1752,230.1753,231.6808,return,0.259,,24.86979167,0,43,43,20,1,FBP-PT-18.png,0.35,1.2,21,0.75,,,,,,,,,,,,,,,,,,,,,,,,,,,,,,,,,,,,,,,,,,,,,
,,,,,V3_080,18,Female,2024-11-20_16h20.43.241,jersey_experiment_5_v3,2023.2.2,Win32,84.74576271,,,,,,,,,,,,,,,,231.6811,233.2339,233.2339,234.4809,return,0.1881,,73.69791667,0,44,44,4,1,FBP-YG-71.png,0.45,1.2,5,0.75,,,,,,,,,,,,,,,,,,,,,,,,,,,,,,,,,,,,,,,,,,,,,
,,,,,V3_080,18,Female,2024-11-20_16h20.43.241,jersey_experiment_5_v3,2023.2.2,Win32,84.74576271,,,,,,,,,,,,,,,,234.4812,236.034,236.034,237.0339,return,0.0255,,82.421875,0,45,45,3,1,FBP-YG-71.png,0.43,1.2,4,0.75,,,,,,,,,,,,,,,,,,,,,,,,,,,,,,,,,,,,,,,,,,,,,
,,,,,V3_080,18,Female,2024-11-20_16h20.43.241,jersey_experiment_5_v3,2023.2.2,Win32,84.74576271,,,,,,,,,,,,,,,,237.0341,238.5871,238.5871,239.8693,return,0.1655,,98.95833333,0,46,46,14,1,FBP-YG-91.png,0.45,1.2,15,0.75,,,,,,,,,,,,,,,,,,,,,,,,,,,,,,,,,,,,,,,,,,,,,
,,,,,V3_080,18,Female,2024-11-20_16h20.43.241,jersey_experiment_5_v3,2023.2.2,Win32,84.74576271,,,,,,,,,,,,,,,,239.8695,241.4108,241.4108,243.199,return,0.1812,,74.86979167,0,47,47,2,1,FBP-YG-71.png,0.4,1.2,3,0.75,,,,,,,,,,,,,,,,,,,,,,,,,,,,,,,,,,,,,,,,,,,,,
,,,,,V3_080,18,Female,2024-11-20_16h20.43.241,jersey_experiment_5_v3,2023.2.2,Win32,84.74576271,,,,,,,,,,,,,,,,243.1993,244.4932,244.4932,246.0108,return,0.223,,99.21875,0,48,48,34,1,FBP-OG-17.png,0.45,1.2,35,0.5,,,,,,,,,,,,,,,,,,,,,,,,,,,,,,,,,,,,,,,,,,,,,
,,,,,V3_080,18,Female,2024-11-20_16h20.43.241,jersey_experiment_5_v3,2023.2.2,Win32,84.74576271,,,,,,,,,,,,,,,,246.011,247.5638,247.5639,249.4227,return,0.1756,,46.09375,0,49,49,22,1,FBP-PT-18.png,0.4,1.2,23,0.75,,,,,,,,,,,,,,,,,,,,,,,,,,,,,,,,,,,,,,,,,,,,,
,,,,,V3_080,18,Female,2024-11-20_16h20.43.241,jersey_experiment_5_v3,2023.2.2,Win32,84.74576271,,,,,,,,,,,,,,,,249.4229,250.9758,250.9758,252.2464,return,0.1727,,74.47916667,0,50,50,53,1,FBP-RB-18.png,0.43,1.2,54,0.75,,,,,,,,,,,,,,,,,,,,,,,,,,,,,,,,,,,,,,,,,,,,,
,,,,,V3_080,18,Female,2024-11-20_16h20.43.241,jersey_experiment_5_v3,2023.2.2,Win32,84.74576271,,,,,,,,,,,,,,,,252.2466,253.5406,253.5407,254.4465,return,0.167,,74.47916667,0,51,51,33,1,FBP-OG-17.png,0.43,1.2,34,0.5,,,,,,,,,,,,,,,,,,,,,,,,,,,,,,,,,,,,,,,,,,,,,
,,,,,V3_080,18,Female,2024-11-20_16h20.43.241,jersey_experiment_5_v3,2023.2.2,Win32,84.74576271,,,,,,,,,,,,,,,,254.4467,255.9993,255.9993,257.9994,return,0.1812,,28.25520833,0,52,52,46,1,FBP-RB-17.png,0.37,1.2,47,0.75,,,,,,,,,,,,,,,,,,,,,,,,,,,,,,,,,,,,,,,,,,,,,
,,,,,V3_080,18,Female,2024-11-20_16h20.43.241,jersey_experiment_5_v3,2023.2.2,Win32,84.74576271,,,,,,,,,,,,,,,,257.9996,259.5524,259.5524,260.729,return,0.1668,,64.19270833,0,53,53,23,1,FBP-PT-18.png,0.43,1.2,24,0.75,,,,,,,,,,,,,,,,,,,,,,,,,,,,,,,,,,,,,,,,,,,,,
,,,,,V3_080,18,Female,2024-11-20_16h20.43.241,jersey_experiment_5_v3,2023.2.2,Win32,84.74576271,,,,,,,,,,,,,,,,260.7293,262.282,262.282,263.6466,return,0.2612,,72.52604167,0,54,54,12,1,FBP-YG-91.png,0.4,1.2,13,0.75,,,,,,,,,,,,,,,,,,,,,,,,,,,,,,,,,,,,,,,,,,,,,
,,,,,V3_080,18,Female,2024-11-20_16h20.43.241,jersey_experiment_5_v3,2023.2.2,Win32,84.74576271,,,,,,,,,,,,,,,,263.6469,265.1997,265.1998,266.8115,return,0.2254,,24.86979167,0,55,55,26,1,FBP-PT-19.png,0.37,1.2,27,0.75,,,,,,,,,,,,,,,,,,,,,,,,,,,,,,,,,,,,,,,,,,,,,
,,,,,V3_080,18,Female,2024-11-20_16h20.43.241,jersey_experiment_5_v3,2023.2.2,Win32,84.74576271,,,,,,,,,,,,,,,,266.8117,268.3645,268.3645,269.8706,return,0.1514,,67.96875,0,56,56,7,1,FBP-YG-81.png,0.4,1.2,8,0.75,,,,,,,,,,,,,,,,,,,,,,,,,,,,,,,,,,,,,,,,,,,,,
,,,,,V3_080,18,Female,2024-11-20_16h20.43.241,jersey_experiment_5_v3,2023.2.2,Win32,84.74576271,,,,,,,,,,,,,,,,269.8708,271.4236,271.4236,272.6471,return,0.1955,,74.609375,0,57,57,18,1,FBP-PT-17.png,0.43,1.2,19,0.75,,,,,,,,,,,,,,,,,,,,,,,,,,,,,,,,,,,,,,,,,,,,,
,,,,,V3_080,18,Female,2024-11-20_16h20.43.241,jersey_experiment_5_v3,2023.2.2,Win32,84.74576271,,,,,,,,,,,,,,,,272.6473,274.2001,274.2001,276.0001,return,0.1417,,50.52083333,0,58,58,16,1,FBP-PT-17.png,0.37,1.2,17,0.75,,,,,,,,,,,,,,,,,,,,,,,,,,,,,,,,,,,,,,,,,,,,,
,,,,,V3_080,18,Female,2024-11-20_16h20.43.241,jersey_experiment_5_v3,2023.2.2,Win32,84.74576271,,,,,,,,,,,,,,,,276.0004,277.5531,277.5531,279.4944,return,0.1832,,73.95833333,0,59,59,13,1,FBP-YG-91.png,0.43,1.2,14,0.75,,,,,,,,,,,,,,,,,,,,,,,,,,,,,,,,,,,,,,,,,,,,,
,,,,,V3_080,18,Female,2024-11-20_16h20.43.241,jersey_experiment_5_v3,2023.2.2,Win32,84.74576271,,,,,,,,,,,,,,,,279.4959,281.0473,281.0474,282.5416,return,0.1878,,25.13020833,,,,,,FBP-RB-81.png,0.37,1.2,52,0.75,0,0,0,51,1,,,,,,,,,,,,,,,,,,,,,,,,,,,,,,,,,,,,,,,,
,,,,,V3_080,18,Female,2024-11-20_16h20.43.241,jersey_experiment_5_v3,2023.2.2,Win32,84.74576271,,,,,,,,,,,,,,,,282.542,283.8358,283.8358,285.3418,return,0.1866,,48.95833333,,,,,,FBP-OG-81.png,0.4,1.2,38,0.5,0,1,1,37,1,,,,,,,,,,,,,,,,,,,,,,,,,,,,,,,,,,,,,,,,
,,,,,V3_080,18,Female,2024-11-20_16h20.43.241,jersey_experiment_5_v3,2023.2.2,Win32,84.74576271,,,,,,,,,,,,,,,,285.3419,286.6359,286.6359,288.5066,return,0.1687,,98.828125,,,,,,FBP-OG-81.png,0.45,1.2,40,0.5,0,2,2,39,1,,,,,,,,,,,,,,,,,,,,,,,,,,,,,,,,,,,,,,,,
,,,,,V3_080,18,Female,2024-11-20_16h20.43.241,jersey_experiment_5_v3,2023.2.2,Win32,84.74576271,,,,,,,,,,,,,,,,288.5068,290.0595,290.0596,291.3537,return,0.1806,,94.53125,,,,,,FBP-PT-71.png,0.43,1.2,19,0.75,0,3,3,18,1,,,,,,,,,,,,,,,,,,,,,,,,,,,,,,,,,,,,,,,,
,,,,,V3_080,18,Female,2024-11-20_16h20.43.241,jersey_experiment_5_v3,2023.2.2,Win32,84.74576271,,,,,,,,,,,,,,,,291.3539,292.8951,292.8951,294.1654,return,0.193,,75.65104167,,,,,,FBP-YG-19.png,0.4,1.2,13,0.75,0,4,4,12,1,,,,,,,,,,,,,,,,,,,,,,,,,,,,,,,,,,,,,,,,
,,,,,V3_080,18,Female,2024-11-20_16h20.43.241,jersey_experiment_5_v3,2023.2.2,Win32,84.74576271,,,,,,,,,,,,,,,,294.1657,295.4597,295.4598,297.7187,return,0.4431,,75.390625,,,,,,FBP-OG-71.png,0.45,1.2,35,0.5,0,5,5,34,1,,,,,,,,,,,,,,,,,,,,,,,,,,,,,,,,,,,,,,,,
,,,,,V3_080,18,Female,2024-11-20_16h20.43.241,jersey_experiment_5_v3,2023.2.2,Win32,84.74576271,,,,,,,,,,,,,,,,297.7189,299.2717,299.2717,302.0129,return,0.1303,,74.21875,,,,,,FBP-YG-19.png,0.43,1.2,14,0.75,0,6,6,13,1,,,,,,,,,,,,,,,,,,,,,,,,,,,,,,,,,,,,,,,,
,,,,,V3_080,18,Female,2024-11-20_16h20.43.241,jersey_experiment_5_v3,2023.2.2,Win32,84.74576271,,,,,,,,,,,,,,,,302.0131,303.5658,303.5659,305.1424,return,0.1729,,92.96875,,,,,,FBP-RB-81.png,0.45,1.2,55,0.75,0,7,7,54,1,,,,,,,,,,,,,,,,,,,,,,,,,,,,,,,,,,,,,,,,
,,,,,V3_080,18,Female,2024-11-20_16h20.43.241,jersey_experiment_5_v3,2023.2.2,Win32,84.74576271,,,,,,,,,,,,,,,,305.1426,306.6958,306.6958,308.8132,return,0.2367,,97.78645833,,,,,,FBP-RB-81.png,0.43,1.2,54,0.75,0,8,8,53,1,,,,,,,,,,,,,,,,,,,,,,,,,,,,,,,,,,,,,,,,
,,,,,V3_080,18,Female,2024-11-20_16h20.43.241,jersey_experiment_5_v3,2023.2.2,Win32,84.74576271,,,,,,,,,,,,,,,,308.8135,310.3663,310.3663,311.6133,return,0.2598,,23.4375,,,,,,FBP-YG-18.png,0.35,1.2,6,0.75,0,9,9,5,1,,,,,,,,,,,,,,,,,,,,,,,,,,,,,,,,,,,,,,,,
,,,,,V3_080,18,Female,2024-11-20_16h20.43.241,jersey_experiment_5_v3,2023.2.2,Win32,84.74576271,,,,,,,,,,,,,,,,311.6135,313.1548,313.1548,315.2487,return,0.2125,,24.47916667,,,,,,FBP-RB-91.png,0.37,1.2,57,0.75,0,10,10,56,1,,,,,,,,,,,,,,,,,,,,,,,,,,,,,,,,,,,,,,,,
,,,,,V3_080,18,Female,2024-11-20_16h20.43.241,jersey_experiment_5_v3,2023.2.2,Win32,84.74576271,,,,,,,,,,,,,,,,315.249,316.8018,316.8018,318.284,return,0.2266,,63.671875,,,,,,FBP-YG-18.png,0.4,1.2,8,0.75,0,11,11,7,1,,,,,,,,,,,,,,,,,,,,,,,,,,,,,,,,,,,,,,,,
,,,,,V3_080,18,Female,2024-11-20_16h20.43.241,jersey_experiment_5_v3,2023.2.2,Win32,84.74576271,,,,,,,,,,,,,,,,318.2844,319.5784,319.5784,321.3666,return,0.2652,,57.68229167,,,,,,FBP-OG-71.png,0.43,1.2,34,0.5,0,12,12,33,1,,,,,,,,,,,,,,,,,,,,,,,,,,,,,,,,,,,,,,,,
,,,,,V3_080,18,Female,2024-11-20_16h20.43.241,jersey_experiment_5_v3,2023.2.2,Win32,84.74576271,,,,,,,,,,,,,,,,321.3669,322.9196,322.9196,323.9785,return,0.2509,,58.59375,,,,,,FBP-RB-71.png,0.4,1.2,48,0.75,0,13,13,47,1,,,,,,,,,,,,,,,,,,,,,,,,,,,,,,,,,,,,,,,,
,,,,,V3_080,18,Female,2024-11-20_16h20.43.241,jersey_experiment_5_v3,2023.2.2,Win32,84.74576271,,,,,,,,,,,,,,,,323.9788,325.5315,325.5315,326.9669,return,0.2076,,87.890625,,,,,,FBP-RB-71.png,0.45,1.2,50,0.75,0,14,14,49,1,,,,,,,,,,,,,,,,,,,,,,,,,,,,,,,,,,,,,,,,
,,,,,V3_080,18,Female,2024-11-20_16h20.43.241,jersey_experiment_5_v3,2023.2.2,Win32,84.74576271,,,,,,,,,,,,,,,,326.9671,328.5199,328.5199,330.2963,return,0.4529,,24.609375,,,,,,FBP-RB-71.png,0.35,1.2,46,0.75,0,15,15,45,1,,,,,,,,,,,,,,,,,,,,,,,,,,,,,,,,,,,,,,,,
,,,,,V3_080,18,Female,2024-11-20_16h20.43.241,jersey_experiment_5_v3,2023.2.2,Win32,84.74576271,,,,,,,,,,,,,,,,330.2966,331.5905,331.5906,333.4494,return,0.1328,,75,,,,,,FBP-OG-71.png,0.37,1.2,32,0.5,0,16,16,31,1,,,,,,,,,,,,,,,,,,,,,,,,,,,,,,,,,,,,,,,,
,,,,,V3_080,18,Female,2024-11-20_16h20.43.241,jersey_experiment_5_v3,2023.2.2,Win32,84.74576271,,,,,,,,,,,,,,,,333.4497,335.0025,335.0025,336.3789,return,0.2126,,98.828125,,,,,,FBP-PT-91.png,0.45,1.2,30,0.75,0,17,17,29,1,,,,,,,,,,,,,,,,,,,,,,,,,,,,,,,,,,,,,,,,
,,,,,V3_080,18,Female,2024-11-20_16h20.43.241,jersey_experiment_5_v3,2023.2.2,Win32,84.74576271,,,,,,,,,,,,,,,,336.3792,337.9322,337.9322,339.6378,return,0.4319,,73.17708333,,,,,,FBP-RB-71.png,0.37,1.2,47,0.75,0,18,18,46,1,,,,,,,,,,,,,,,,,,,,,,,,,,,,,,,,,,,,,,,,
,,,,,V3_080,18,Female,2024-11-20_16h20.43.241,jersey_experiment_5_v3,2023.2.2,Win32,84.74576271,,,,,,,,,,,,,,,,339.6381,340.932,340.9321,342.6379,return,0.3296,,25.78125,,,,,,FBP-OG-91.png,0.35,1.2,41,0.5,0,19,19,40,1,,,,,,,,,,,,,,,,,,,,,,,,,,,,,,,,,,,,,,,,
,,,,,V3_080,18,Female,2024-11-20_16h20.43.241,jersey_experiment_5_v3,2023.2.2,Win32,84.74576271,,,,,,,,,,,,,,,,342.6382,344.191,344.191,345.6381,return,0.2203,,65.36458333,,,,,,FBP-YG-19.png,0.37,1.2,12,0.75,0,20,20,11,1,,,,,,,,,,,,,,,,,,,,,,,,,,,,,,,,,,,,,,,,
,,,,,V3_080,18,Female,2024-11-20_16h20.43.241,jersey_experiment_5_v3,2023.2.2,Win32,84.74576271,,,,,,,,,,,,,,,,345.6384,347.1912,347.1914,349.1676,return,0.222,,99.47916667,,,,,,FBP-PT-71.png,0.45,1.2,20,0.75,0,21,21,19,1,,,,,,,,,,,,,,,,,,,,,,,,,,,,,,,,,,,,,,,,
,,,,,V3_080,18,Female,2024-11-20_16h20.43.241,jersey_experiment_5_v3,2023.2.2,Win32,84.74576271,,,,,,,,,,,,,,,,349.1678,350.4619,350.462,351.6148,return,0.2591,,99.21875,,,,,,FBP-OG-91.png,0.45,1.2,45,0.5,0,22,22,44,1,,,,,,,,,,,,,,,,,,,,,,,,,,,,,,,,,,,,,,,,
,,,,,V3_080,18,Female,2024-11-20_16h20.43.241,jersey_experiment_5_v3,2023.2.2,Win32,84.74576271,,,,,,,,,,,,,,,,351.6151,353.1677,353.1677,354.9915,return,0.2356,,24.08854167,,,,,,FBP-YG-19.png,0.35,1.2,11,0.75,0,23,23,10,1,,,,,,,,,,,,,,,,,,,,,,,,,,,,,,,,,,,,,,,,
,,,,,V3_080,18,Female,2024-11-20_16h20.43.241,jersey_experiment_5_v3,2023.2.2,Win32,84.74576271,,,,,,,,,,,,,,,,354.9917,356.5444,356.5444,358.2033,return,0.3325,,48.828125,,,,,,FBP-PT-71.png,0.35,1.2,16,0.75,0,24,24,15,1,,,,,,,,,,,,,,,,,,,,,,,,,,,,,,,,,,,,,,,,
,,,,,V3_080,18,Female,2024-11-20_16h20.43.241,jersey_experiment_5_v3,2023.2.2,Win32,84.74576271,,,,,,,,,,,,,,,,358.2036,359.4974,359.4975,361.2741,return,0.1209,,75,,,,,,FBP-OG-71.png,0.4,1.2,33,0.5,0,25,25,32,1,,,,,,,,,,,,,,,,,,,,,,,,,,,,,,,,,,,,,,,,
,,,,,V3_080,18,Female,2024-11-20_16h20.43.241,jersey_experiment_5_v3,2023.2.2,Win32,84.74576271,,,,,,,,,,,,,,,,361.2743,362.8272,362.8273,364.1919,return,0.1808,,73.046875,,,,,,FBP-RB-71.png,0.43,1.2,49,0.75,0,26,26,48,1,,,,,,,,,,,,,,,,,,,,,,,,,,,,,,,,,,,,,,,,
,,,,,V3_080,18,Female,2024-11-20_16h20.43.241,jersey_experiment_5_v3,2023.2.2,Win32,84.74576271,,,,,,,,,,,,,,,,364.1921,365.745,365.745,366.9448,return,0.1333,,99.47916667,,,,,,FBP-YG-18.png,0.45,1.2,10,0.75,0,27,27,9,1,,,,,,,,,,,,,,,,,,,,,,,,,,,,,,,,,,,,,,,,
,,,,,V3_080,18,Female,2024-11-20_16h20.43.241,jersey_experiment_5_v3,2023.2.2,Win32,84.74576271,,,,,,,,,,,,,,,,366.945,368.4979,368.498,369.8626,return,0.2637,,97.39583333,,,,,,FBP-YG-18.png,0.43,1.2,9,0.75,0,28,28,8,1,,,,,,,,,,,,,,,,,,,,,,,,,,,,,,,,,,,,,,,,
,,,,,V3_080,18,Female,2024-11-20_16h20.43.241,jersey_experiment_5_v3,2023.2.2,Win32,84.74576271,,,,,,,,,,,,,,,,369.8629,371.4156,371.4156,372.2862,return,0.2266,,97.39583333,,,,,,FBP-YG-17.png,0.43,1.2,4,0.75,0,29,29,3,1,,,,,,,,,,,,,,,,,,,,,,,,,,,,,,,,,,,,,,,,
,,,,,V3_080,18,Female,2024-11-20_16h20.43.241,jersey_experiment_5_v3,2023.2.2,Win32,84.74576271,,,,,,,,,,,,,,,,372.2865,373.8394,373.8394,375.1333,return,0.2011,,3.255208333,,,,,,FBP-PT-81.png,0.35,1.2,21,0.75,0,30,30,20,1,,,,,,,,,,,,,,,,,,,,,,,,,,,,,,,,,,,,,,,,
,,,,,V3_080,18,Female,2024-11-20_16h20.43.241,jersey_experiment_5_v3,2023.2.2,Win32,84.74576271,,,,,,,,,,,,,,,,375.1335,376.6747,376.6747,378.2628,return,0.1368,,29.6875,,,,,,FBP-YG-17.png,0.37,1.2,2,0.75,0,31,31,1,1,,,,,,,,,,,,,,,,,,,,,,,,,,,,,,,,,,,,,,,,
,,,,,V3_080,18,Female,2024-11-20_16h20.43.241,jersey_experiment_5_v3,2023.2.2,Win32,84.74576271,,,,,,,,,,,,,,,,378.2631,379.8159,379.816,380.8396,return,0.1718,,50.26041667,,,,,,FBP-PT-91.png,0.37,1.2,27,0.75,0,32,32,26,1,,,,,,,,,,,,,,,,,,,,,,,,,,,,,,,,,,,,,,,,
,,,,,V3_080,18,Female,2024-11-20_16h20.43.241,jersey_experiment_5_v3,2023.2.2,Win32,84.74576271,,,,,,,,,,,,,,,,380.8398,382.1337,382.1337,383.4396,return,0.1888,,64.97395833,,,,,,FBP-OG-91.png,0.43,1.2,44,0.5,0,33,33,43,1,,,,,,,,,,,,,,,,,,,,,,,,,,,,,,,,,,,,,,,,
,,,,,V3_080,18,Female,2024-11-20_16h20.43.241,jersey_experiment_5_v3,2023.2.2,Win32,84.74576271,,,,,,,,,,,,,,,,383.4398,384.9926,384.9927,385.9456,return,0.2167,,64.71354167,,,,,,FBP-PT-71.png,0.37,1.2,17,0.75,0,34,34,16,1,,,,,,,,,,,,,,,,,,,,,,,,,,,,,,,,,,,,,,,,
,,,,,V3_080,18,Female,2024-11-20_16h20.43.241,jersey_experiment_5_v3,2023.2.2,Win32,84.74576271,,,,,,,,,,,,,,,,385.9459,387.4985,387.4986,388.9574,return,0.1423,,23.56770833,,,,,,FBP-RB-81.png,0.35,1.2,51,0.75,0,35,35,50,1,,,,,,,,,,,,,,,,,,,,,,,,,,,,,,,,,,,,,,,,
,,,,,V3_080,18,Female,2024-11-20_16h20.43.241,jersey_experiment_5_v3,2023.2.2,Win32,84.74576271,,,,,,,,,,,,,,,,388.9576,390.5105,390.5106,392.4399,return,0.1713,,99.86979167,,,,,,FBP-PT-91.png,0.43,1.2,29,0.75,0,36,36,28,1,,,,,,,,,,,,,,,,,,,,,,,,,,,,,,,,,,,,,,,,
,,,,,V3_080,18,Female,2024-11-20_16h20.43.241,jersey_experiment_5_v3,2023.2.2,Win32,84.74576271,,,,,,,,,,,,,,,,392.44,393.9929,393.9929,394.7107,return,0.1844,,98.56770833,,,,,,FBP-YG-19.png,0.45,1.2,15,0.75,0,37,37,14,1,,,,,,,,,,,,,,,,,,,,,,,,,,,,,,,,,,,,,,,,
,,,,,V3_080,18,Female,2024-11-20_16h20.43.241,jersey_experiment_5_v3,2023.2.2,Win32,84.74576271,,,,,,,,,,,,,,,,394.7109,396.2637,396.2637,397.0401,return,0.1863,,98.56770833,,,,,,FBP-PT-81.png,0.43,1.2,24,0.75,0,38,38,23,1,,,,,,,,,,,,,,,,,,,,,,,,,,,,,,,,,,,,,,,,
,,,,,V3_080,18,Female,2024-11-20_16h20.43.241,jersey_experiment_5_v3,2023.2.2,Win32,84.74576271,,,,,,,,,,,,,,,,397.0404,398.5931,398.5932,399.7578,return,0.1418,,69.40104167,,,,,,FBP-YG-18.png,0.37,1.2,7,0.75,0,39,39,6,1,,,,,,,,,,,,,,,,,,,,,,,,,,,,,,,,,,,,,,,,
,,,,,V3_080,18,Female,2024-11-20_16h20.43.241,jersey_experiment_5_v3,2023.2.2,Win32,84.74576271,,,,,,,,,,,,,,,,399.758,401.3109,401.311,402.3814,return,0.1892,,83.07291667,,,,,,FBP-RB-91.png,0.43,1.2,59,0.75,0,40,40,58,1,,,,,,,,,,,,,,,,,,,,,,,,,,,,,,,,,,,,,,,,
,,,,,V3_080,18,Female,2024-11-20_16h20.43.241,jersey_experiment_5_v3,2023.2.2,Win32,84.74576271,,,,,,,,,,,,,,,,402.3817,403.9345,403.9345,404.8875,return,0.1484,,88.671875,,,,,,FBP-RB-91.png,0.4,1.2,58,0.75,0,41,41,57,1,,,,,,,,,,,,,,,,,,,,,,,,,,,,,,,,,,,,,,,,
,,,,,V3_080,18,Female,2024-11-20_16h20.43.241,jersey_experiment_5_v3,2023.2.2,Win32,84.74576271,,,,,,,,,,,,,,,,404.8877,406.4405,406.4405,408.2877,return,0.1396,,91.40625,,,,,,FBP-RB-91.png,0.45,1.2,60,0.75,0,42,42,59,1,,,,,,,,,,,,,,,,,,,,,,,,,,,,,,,,,,,,,,,,
,,,,,V3_080,18,Female,2024-11-20_16h20.43.241,jersey_experiment_5_v3,2023.2.2,Win32,84.74576271,,,,,,,,,,,,,,,,408.2879,409.8406,409.8407,411.2289,return,0.3544,,90.10416667,,,,,,FBP-RB-81.png,0.4,1.2,53,0.75,0,43,43,52,1,,,,,,,,,,,,,,,,,,,,,,,,,,,,,,,,,,,,,,,,
,,,,,V3_080,18,Female,2024-11-20_16h20.43.241,jersey_experiment_5_v3,2023.2.2,Win32,84.74576271,,,,,,,,,,,,,,,,411.2291,412.7819,412.7819,414.6645,return,0.1697,,62.109375,,,,,,FBP-PT-71.png,0.4,1.2,18,0.75,0,44,44,17,1,,,,,,,,,,,,,,,,,,,,,,,,,,,,,,,,,,,,,,,,
,,,,,V3_080,18,Female,2024-11-20_16h20.43.241,jersey_experiment_5_v3,2023.2.2,Win32,84.74576271,,,,,,,,,,,,,,,,414.6647,415.9584,415.9584,418.3587,return,0.1609,,46.875,,,,,,FBP-OG-91.png,0.37,1.2,42,0.5,0,45,45,41,1,,,,,,,,,,,,,,,,,,,,,,,,,,,,,,,,,,,,,,,,
,,,,,V3_080,18,Female,2024-11-20_16h20.43.241,jersey_experiment_5_v3,2023.2.2,Win32,84.74576271,,,,,,,,,,,,,,,,418.359,419.6527,419.6528,420.9351,return,0.172,,27.08333333,,,,,,FBP-OG-81.png,0.35,1.2,36,0.5,0,46,46,35,1,,,,,,,,,,,,,,,,,,,,,,,,,,,,,,,,,,,,,,,,
,,,,,V3_080,18,Female,2024-11-20_16h20.43.241,jersey_experiment_5_v3,2023.2.2,Win32,84.74576271,,,,,,,,,,,,,,,,420.9354,422.2293,422.2294,423.8175,return,0.1211,,33.46354167,,,,,,FBP-OG-81.png,0.37,1.2,37,0.5,0,47,47,36,1,,,,,,,,,,,,,,,,,,,,,,,,,,,,,,,,,,,,,,,,
,,,,,V3_080,18,Female,2024-11-20_16h20.43.241,jersey_experiment_5_v3,2023.2.2,Win32,84.74576271,,,,,,,,,,,,,,,,423.8178,425.3706,425.3706,426.8766,return,0.1332,,73.17708333,,,,,,FBP-YG-17.png,0.45,1.2,5,0.75,0,48,48,4,1,,,,,,,,,,,,,,,,,,,,,,,,,,,,,,,,,,,,,,,,
,,,,,V3_080,18,Female,2024-11-20_16h20.43.241,jersey_experiment_5_v3,2023.2.2,Win32,84.74576271,,,,,,,,,,,,,,,,426.8768,428.4297,428.4298,429.7238,return,0.2035,,31.51041667,,,,,,FBP-YG-17.png,0.35,1.2,1,0.75,0,49,49,0,1,,,,,,,,,,,,,,,,,,,,,,,,,,,,,,,,,,,,,,,,
,,,,,V3_080,18,Female,2024-11-20_16h20.43.241,jersey_experiment_5_v3,2023.2.2,Win32,84.74576271,,,,,,,,,,,,,,,,429.724,431.0179,431.018,432.6296,return,0.1266,,73.56770833,,,,,,FBP-OG-81.png,0.43,1.2,39,0.5,0,50,50,38,1,,,,,,,,,,,,,,,,,,,,,,,,,,,,,,,,,,,,,,,,
,,,,,V3_080,18,Female,2024-11-20_16h20.43.241,jersey_experiment_5_v3,2023.2.2,Win32,84.74576271,,,,,,,,,,,,,,,,432.6298,434.1712,434.1712,435.2062,return,0.1138,,50,,,,,,FBP-RB-91.png,0.35,1.2,56,0.75,0,51,51,55,1,,,,,,,,,,,,,,,,,,,,,,,,,,,,,,,,,,,,,,,,
,,,,,V3_080,18,Female,2024-11-20_16h20.43.241,jersey_experiment_5_v3,2023.2.2,Win32,84.74576271,,,,,,,,,,,,,,,,435.2065,436.7592,436.7593,438.583,return,0.2196,,70.3125,,,,,,FBP-PT-81.png,0.37,1.2,22,0.75,0,52,52,21,1,,,,,,,,,,,,,,,,,,,,,,,,,,,,,,,,,,,,,,,,
,,,,,V3_080,18,Female,2024-11-20_16h20.43.241,jersey_experiment_5_v3,2023.2.2,Win32,84.74576271,,,,,,,,,,,,,,,,438.5832,440.1358,440.1359,441.2065,return,0.2079,,73.17708333,,,,,,FBP-PT-91.png,0.35,1.2,26,0.75,0,53,53,25,1,,,,,,,,,,,,,,,,,,,,,,,,,,,,,,,,,,,,,,,,
,,,,,V3_080,18,Female,2024-11-20_16h20.43.241,jersey_experiment_5_v3,2023.2.2,Win32,84.74576271,,,,,,,,,,,,,,,,441.2068,442.7596,442.7596,443.583,return,0.2361,,73.17708333,,,,,,FBP-PT-81.png,0.4,1.2,23,0.75,0,54,54,22,1,,,,,,,,,,,,,,,,,,,,,,,,,,,,,,,,,,,,,,,,
,,,,,V3_080,18,Female,2024-11-20_16h20.43.241,jersey_experiment_5_v3,2023.2.2,Win32,84.74576271,,,,,,,,,,,,,,,,443.5833,445.136,445.1361,446.3126,return,0.1433,,82.421875,,,,,,FBP-PT-81.png,0.45,1.2,25,0.75,0,55,55,24,1,,,,,,,,,,,,,,,,,,,,,,,,,,,,,,,,,,,,,,,,
,,,,,V3_080,18,Female,2024-11-20_16h20.43.241,jersey_experiment_5_v3,2023.2.2,Win32,84.74576271,,,,,,,,,,,,,,,,446.3128,447.6067,447.6068,448.8538,return,0.2168,,84.11458333,,,,,,FBP-OG-91.png,0.4,1.2,43,0.5,0,56,56,42,1,,,,,,,,,,,,,,,,,,,,,,,,,,,,,,,,,,,,,,,,
,,,,,V3_080,18,Female,2024-11-20_16h20.43.241,jersey_experiment_5_v3,2023.2.2,Win32,84.74576271,,,,,,,,,,,,,,,,448.854,450.148,450.1481,452.301,return,0.3779,,38.41145833,,,,,,FBP-OG-71.png,0.35,1.2,31,0.5,0,57,57,30,1,,,,,,,,,,,,,,,,,,,,,,,,,,,,,,,,,,,,,,,,
,,,,,V3_080,18,Female,2024-11-20_16h20.43.241,jersey_experiment_5_v3,2023.2.2,Win32,84.74576271,,,,,,,,,,,,,,,,452.3012,453.8541,453.8541,454.6659,return,0.2282,,38.41145833,,,,,,FBP-PT-91.png,0.4,1.2,28,0.75,0,58,58,27,1,,,,,,,,,,,,,,,,,,,,,,,,,,,,,,,,,,,,,,,,
,,,,,V3_080,18,Female,2024-11-20_16h20.43.241,jersey_experiment_5_v3,2023.2.2,Win32,84.74576271,,,,,,,,,,,,,,,,454.6661,456.2188,456.2188,457.1484,return,0.1433,,38.41145833,,,,,,FBP-YG-17.png,0.4,1.2,3,0.75,0,59,59,2,1,,,,,,,,,,,,,,,,,,,,,,,,,,,,,,,,,,,,,,,,
,,,,,V3_080,18,Female,2024-11-20_16h20.43.241,jersey_experiment_5_v3,2023.2.2,Win32,84.74576271,,,,,,,,,,,,,,,,,,,,,,,,,,,,,,,,,,,,,,,457.1485,577.1412,,,,,,,,,,,,,,,,,,,,,,,,,,,,,,,,,,,,,,
,,,,,V3_080,18,Female,2024-11-20_16h20.43.241,jersey_experiment_5_v3,2023.2.2,Win32,84.74576271,,,,,,,,,,,,,,,,,,,,,,,,,,,,,,,,,,,,,,,,,577.1412,580.5295,return,3.3792,,,,,,,,,,,,,,,,,,,,,,,,,,,,,,,,,,
,,,,,V3_080,18,Female,2024-11-20_16h20.43.241,jersey_experiment_5_v3,2023.2.2,Win32,84.74576271,,,,,,,,,,,,,,,,580.531,581.8239,581.8239,584.9453,return,0.9391,,86.45833333,,,,,,FBP-PT-19.png,0.45,1.2,30,0.5,,,,,,,,,,,,,0,0,0,29,1,,,,,,,,,,,,,,,,,,,,,,,,,,,,
,,,,,V3_080,18,Female,2024-11-20_16h20.43.241,jersey_experiment_5_v3,2023.2.2,Win32,84.74576271,,,,,,,,,,,,,,,,584.9454,586.2417,586.2417,588.2035,return,0.2205,,83.07291667,,,,,,FBP-PT-19.png,0.4,1.2,28,0.5,,,,,,,,,,,,,0,1,1,27,1,,,,,,,,,,,,,,,,,,,,,,,,,,,,
,,,,,V3_080,18,Female,2024-11-20_16h20.43.241,jersey_experiment_5_v3,2023.2.2,Win32,84.74576271,,,,,,,,,,,,,,,,588.2035,589.4976,589.4976,590.6357,return,0.1911,,78.25520833,,,,,,FBP-RB-17.png,0.4,1.2,48,0.5,,,,,,,,,,,,,0,2,2,47,1,,,,,,,,,,,,,,,,,,,,,,,,,,,,
,,,,,V3_080,18,Female,2024-11-20_16h20.43.241,jersey_experiment_5_v3,2023.2.2,Win32,84.74576271,,,,,,,,,,,,,,,,590.636,591.9361,591.9361,593.2535,return,0.3678,,76.30208333,,,,,,FBP-RB-18.png,0.37,1.2,52,0.5,,,,,,,,,,,,,0,3,3,51,1,,,,,,,,,,,,,,,,,,,,,,,,,,,,
,,,,,V3_080,18,Female,2024-11-20_16h20.43.241,jersey_experiment_5_v3,2023.2.2,Win32,84.74576271,,,,,,,,,,,,,,,,593.2536,594.5536,594.5536,595.9772,return,0.1314,,95.83333333,,,,,,FBP-PT-18.png,0.45,1.2,25,0.5,,,,,,,,,,,,,0,4,4,24,1,,,,,,,,,,,,,,,,,,,,,,,,,,,,
,,,,,V3_080,18,Female,2024-11-20_16h20.43.241,jersey_experiment_5_v3,2023.2.2,Win32,84.74576271,,,,,,,,,,,,,,,,595.9774,597.5301,597.5302,598.9067,return,0.2747,,74.34895833,,,,,,FBP-OG-19.png,0.35,1.2,41,0.75,,,,,,,,,,,,,0,5,5,40,1,,,,,,,,,,,,,,,,,,,,,,,,,,,,
,,,,,V3_080,18,Female,2024-11-20_16h20.43.241,jersey_experiment_5_v3,2023.2.2,Win32,84.74576271,,,,,,,,,,,,,,,,598.9068,600.4598,600.4598,601.8009,return,0.1926,,63.41145833,,,,,,FBP-OG-17.png,0.37,1.2,32,0.75,,,,,,,,,,,,,0,6,6,31,1,,,,,,,,,,,,,,,,,,,,,,,,,,,,
,,,,,V3_080,18,Female,2024-11-20_16h20.43.241,jersey_experiment_5_v3,2023.2.2,Win32,84.74576271,,,,,,,,,,,,,,,,601.8012,603.095,603.0951,603.9774,return,0.1575,,63.54166667,,,,,,FBP-RB-19.png,0.37,1.2,57,0.5,,,,,,,,,,,,,0,7,7,56,1,,,,,,,,,,,,,,,,,,,,,,,,,,,,
,,,,,V3_080,18,Female,2024-11-20_16h20.43.241,jersey_experiment_5_v3,2023.2.2,Win32,84.74576271,,,,,,,,,,,,,,,,603.9776,605.2718,605.2718,606.5539,return,0.181,,81.51041667,,,,,,FBP-YG-91.png,0.4,1.2,13,0.5,,,,,,,,,,,,,0,8,8,12,1,,,,,,,,,,,,,,,,,,,,,,,,,,,,
,,,,,V3_080,18,Female,2024-11-20_16h20.43.241,jersey_experiment_5_v3,2023.2.2,Win32,84.74576271,,,,,,,,,,,,,,,,606.5542,607.8482,607.8482,608.9422,return,0.1651,,87.5,,,,,,FBP-RB-18.png,0.43,1.2,54,0.5,,,,,,,,,,,,,0,9,9,53,1,,,,,,,,,,,,,,,,,,,,,,,,,,,,
,,,,,V3_080,18,Female,2024-11-20_16h20.43.241,jersey_experiment_5_v3,2023.2.2,Win32,84.74576271,,,,,,,,,,,,,,,,608.9425,610.4956,610.4956,611.366,return,0.1815,,87.5,,,,,,FBP-OG-18.png,0.45,1.2,40,0.75,,,,,,,,,,,,,0,10,10,39,1,,,,,,,,,,,,,,,,,,,,,,,,,,,,
,,,,,V3_080,18,Female,2024-11-20_16h20.43.241,jersey_experiment_5_v3,2023.2.2,Win32,84.74576271,,,,,,,,,,,,,,,,611.3663,612.66,612.66,614.0954,return,0.2356,,66.92708333,,,,,,FBP-YG-81.png,0.37,1.2,7,0.5,,,,,,,,,,,,,0,11,11,6,1,,,,,,,,,,,,,,,,,,,,,,,,,,,,
,,,,,V3_080,18,Female,2024-11-20_16h20.43.241,jersey_experiment_5_v3,2023.2.2,Win32,84.74576271,,,,,,,,,,,,,,,,614.0957,615.3897,615.3897,616.8957,return,0.2111,,69.79166667,,,,,,FBP-YG-81.png,0.35,1.2,6,0.5,,,,,,,,,,,,,0,12,12,5,1,,,,,,,,,,,,,,,,,,,,,,,,,,,,
,,,,,V3_080,18,Female,2024-11-20_16h20.43.241,jersey_experiment_5_v3,2023.2.2,Win32,84.74576271,,,,,,,,,,,,,,,,616.8959,618.1898,618.1898,619.8016,return,0.252,,59.50520833,,,,,,FBP-PT-18.png,0.37,1.2,22,0.5,,,,,,,,,,,,,0,13,13,21,1,,,,,,,,,,,,,,,,,,,,,,,,,,,,
,,,,,V3_080,18,Female,2024-11-20_16h20.43.241,jersey_experiment_5_v3,2023.2.2,Win32,84.74576271,,,,,,,,,,,,,,,,619.8018,621.0959,621.0959,622.3664,return,0.1537,,62.36979167,,,,,,FBP-RB-17.png,0.37,1.2,47,0.5,,,,,,,,,,,,,0,14,14,46,1,,,,,,,,,,,,,,,,,,,,,,,,,,,,
,,,,,V3_080,18,Female,2024-11-20_16h20.43.241,jersey_experiment_5_v3,2023.2.2,Win32,84.74576271,,,,,,,,,,,,,,,,622.3666,623.6606,623.6606,625.0138,return,0.1848,,78.25520833,,,,,,FBP-YG-81.png,0.45,1.2,10,0.5,,,,,,,,,,,,,0,15,15,9,1,,,,,,,,,,,,,,,,,,,,,,,,,,,,
,,,,,V3_080,18,Female,2024-11-20_16h20.43.241,jersey_experiment_5_v3,2023.2.2,Win32,84.74576271,,,,,,,,,,,,,,,,625.0139,626.5666,626.5666,628.2371,return,0.1051,,54.81770833,,,,,,FBP-OG-19.png,0.37,1.2,42,0.75,,,,,,,,,,,,,0,16,16,41,1,,,,,,,,,,,,,,,,,,,,,,,,,,,,
,,,,,V3_080,18,Female,2024-11-20_16h20.43.241,jersey_experiment_5_v3,2023.2.2,Win32,84.74576271,,,,,,,,,,,,,,,,628.2373,629.5313,629.5314,630.7902,return,0.1614,,57.94270833,,,,,,FBP-RB-18.png,0.35,1.2,51,0.5,,,,,,,,,,,,,0,17,17,50,1,,,,,,,,,,,,,,,,,,,,,,,,,,,,
,,,,,V3_080,18,Female,2024-11-20_16h20.43.241,jersey_experiment_5_v3,2023.2.2,Win32,84.74576271,,,,,,,,,,,,,,,,630.7904,632.3432,632.3432,633.0491,return,0.1666,,57.94270833,,,,,,FBP-OG-18.png,0.35,1.2,36,0.75,,,,,,,,,,,,,0,18,18,35,1,,,,,,,,,,,,,,,,,,,,,,,,,,,,
,,,,,V3_080,18,Female,2024-11-20_16h20.43.241,jersey_experiment_5_v3,2023.2.2,Win32,84.74576271,,,,,,,,,,,,,,,,633.0493,634.6023,634.6024,635.8139,return,0.2676,,82.55208333,,,,,,FBP-OG-17.png,0.43,1.2,34,0.75,,,,,,,,,,,,,0,19,19,33,1,,,,,,,,,,,,,,,,,,,,,,,,,,,,
,,,,,V3_080,18,Female,2024-11-20_16h20.43.241,jersey_experiment_5_v3,2023.2.2,Win32,84.74576271,,,,,,,,,,,,,,,,635.8144,637.1081,637.1082,638.061,return,0.2353,,82.55208333,,,,,,FBP-RB-17.png,0.43,1.2,49,0.5,,,,,,,,,,,,,0,20,20,48,1,,,,,,,,,,,,,,,,,,,,,,,,,,,,
,,,,,V3_080,18,Female,2024-11-20_16h20.43.241,jersey_experiment_5_v3,2023.2.2,Win32,84.74576271,,,,,,,,,,,,,,,,638.0614,639.3554,639.3554,640.567,return,0.1019,,61.58854167,,,,,,FBP-YG-71.png,0.37,1.2,2,0.5,,,,,,,,,,,,,0,21,21,1,1,,,,,,,,,,,,,,,,,,,,,,,,,,,,
,,,,,V3_080,18,Female,2024-11-20_16h20.43.241,jersey_experiment_5_v3,2023.2.2,Win32,84.74576271,,,,,,,,,,,,,,,,640.5671,641.8613,641.8613,643.7084,return,0.3076,,84.11458333,,,,,,FBP-YG-81.png,0.4,1.2,8,0.5,,,,,,,,,,,,,0,22,22,7,1,,,,,,,,,,,,,,,,,,,,,,,,,,,,
,,,,,V3_080,18,Female,2024-11-20_16h20.43.241,jersey_experiment_5_v3,2023.2.2,Win32,84.74576271,,,,,,,,,,,,,,,,643.7086,645.2616,645.2616,648.3439,return,0.1215,,81.640625,,,,,,FBP-OG-19.png,0.45,1.2,45,0.75,,,,,,,,,,,,,0,23,23,44,1,,,,,,,,,,,,,,,,,,,,,,,,,,,,
,,,,,V3_080,18,Female,2024-11-20_16h20.43.241,jersey_experiment_5_v3,2023.2.2,Win32,84.74576271,,,,,,,,,,,,,,,,648.3442,649.6379,649.6379,650.791,return,0.148,,95.57291667,,,,,,FBP-YG-71.png,0.45,1.2,5,0.5,,,,,,,,,,,,,0,24,24,4,1,,,,,,,,,,,,,,,,,,,,,,,,,,,,
,,,,,V3_080,18,Female,2024-11-20_16h20.43.241,jersey_experiment_5_v3,2023.2.2,Win32,84.74576271,,,,,,,,,,,,,,,,650.7913,652.0852,652.0852,653.9793,return,0.1769,,66.14583333,,,,,,FBP-RB-18.png,0.4,1.2,53,0.5,,,,,,,,,,,,,0,25,25,52,1,,,,,,,,,,,,,,,,,,,,,,,,,,,,
,,,,,V3_080,18,Female,2024-11-20_16h20.43.241,jersey_experiment_5_v3,2023.2.2,Win32,84.74576271,,,,,,,,,,,,,,,,653.9795,655.2736,655.2736,656.2853,return,0.1743,,40.10416667,,,,,,FBP-RB-17.png,0.35,1.2,46,0.5,,,,,,,,,,,,,0,26,26,45,1,,,,,,,,,,,,,,,,,,,,,,,,,,,,
,,,,,V3_080,18,Female,2024-11-20_16h20.43.241,jersey_experiment_5_v3,2023.2.2,Win32,84.74576271,,,,,,,,,,,,,,,,656.2857,657.5794,657.5794,658.8619,return,0.0836,,71.09375,,,,,,FBP-YG-71.png,0.43,1.2,4,0.5,,,,,,,,,,,,,0,27,27,3,1,,,,,,,,,,,,,,,,,,,,,,,,,,,,
,,,,,V3_080,18,Female,2024-11-20_16h20.43.241,jersey_experiment_5_v3,2023.2.2,Win32,84.74576271,,,,,,,,,,,,,,,,658.8623,660.156,660.156,661.462,return,0.1736,,33.72395833,,,,,,FBP-YG-71.png,0.35,1.2,1,0.5,,,,,,,,,,,,,0,28,28,0,1,,,,,,,,,,,,,,,,,,,,,,,,,,,,
,,,,,V3_080,18,Female,2024-11-20_16h20.43.241,jersey_experiment_5_v3,2023.2.2,Win32,84.74576271,,,,,,,,,,,,,,,,661.4622,662.7563,662.7563,664.0857,return,0.209,,68.48958333,,,,,,FBP-PT-18.png,0.43,1.2,24,0.5,,,,,,,,,,,,,0,29,29,23,1,,,,,,,,,,,,,,,,,,,,,,,,,,,,
,,,,,V3_080,18,Female,2024-11-20_16h20.43.241,jersey_experiment_5_v3,2023.2.2,Win32,84.74576271,,,,,,,,,,,,,,,,664.0859,665.6386,665.6387,666.9681,return,0.1809,,75.78125,,,,,,FBP-OG-19.png,0.43,1.2,44,0.75,,,,,,,,,,,,,0,30,30,43,1,,,,,,,,,,,,,,,,,,,,,,,,,,,,
,,,,,V3_080,18,Female,2024-11-20_16h20.43.241,jersey_experiment_5_v3,2023.2.2,Win32,84.74576271,,,,,,,,,,,,,,,,666.9683,668.5211,668.5212,669.3563,return,0.0619,,75.78125,,,,,,FBP-OG-17.png,0.45,1.2,35,0.75,,,,,,,,,,,,,0,31,31,34,1,,,,,,,,,,,,,,,,,,,,,,,,,,,,
,,,,,V3_080,18,Female,2024-11-20_16h20.43.241,jersey_experiment_5_v3,2023.2.2,Win32,84.74576271,,,,,,,,,,,,,,,,669.3566,670.6506,670.6506,671.7095,return,0.163,,75.78125,,,,,,FBP-RB-19.png,0.45,1.2,60,0.5,,,,,,,,,,,,,0,32,32,59,1,,,,,,,,,,,,,,,,,,,,,,,,,,,,
,,,,,V3_080,18,Female,2024-11-20_16h20.43.241,jersey_experiment_5_v3,2023.2.2,Win32,84.74576271,,,,,,,,,,,,,,,,671.7099,673.0037,673.0037,673.8507,return,0.2277,,75.78125,,,,,,FBP-PT-17.png,0.4,1.2,18,0.5,,,,,,,,,,,,,0,33,33,17,1,,,,,,,,,,,,,,,,,,,,,,,,,,,,
,,,,,V3_080,18,Female,2024-11-20_16h20.43.241,jersey_experiment_5_v3,2023.2.2,Win32,84.74576271,,,,,,,,,,,,,,,,673.8509,675.4037,675.4037,676.8274,return,0.177,,44.53125,,,,,,FBP-OG-17.png,0.4,1.2,33,0.75,,,,,,,,,,,,,0,34,34,32,1,,,,,,,,,,,,,,,,,,,,,,,,,,,,
,,,,,V3_080,18,Female,2024-11-20_16h20.43.241,jersey_experiment_5_v3,2023.2.2,Win32,84.74576271,,,,,,,,,,,,,,,,676.8275,678.1215,678.1217,679.0626,return,0.0874,,74.609375,,,,,,FBP-PT-17.png,0.43,1.2,19,0.5,,,,,,,,,,,,,0,35,35,18,1,,,,,,,,,,,,,,,,,,,,,,,,,,,,
,,,,,V3_080,18,Female,2024-11-20_16h20.43.241,jersey_experiment_5_v3,2023.2.2,Win32,84.74576271,,,,,,,,,,,,,,,,679.0627,680.3568,680.3568,681.2628,return,0.0597,,74.47916667,,,,,,FBP-RB-17.png,0.45,1.2,50,0.5,,,,,,,,,,,,,0,36,36,49,1,,,,,,,,,,,,,,,,,,,,,,,,,,,,
,,,,,V3_080,18,Female,2024-11-20_16h20.43.241,jersey_experiment_5_v3,2023.2.2,Win32,84.74576271,,,,,,,,,,,,,,,,681.2632,682.5569,682.557,684.2393,return,0.2207,,33.984375,,,,,,FBP-PT-17.png,0.35,1.2,16,0.5,,,,,,,,,,,,,0,37,37,15,1,,,,,,,,,,,,,,,,,,,,,,,,,,,,
,,,,,V3_080,18,Female,2024-11-20_16h20.43.241,jersey_experiment_5_v3,2023.2.2,Win32,84.74576271,,,,,,,,,,,,,,,,684.2396,685.5335,685.5335,687.1807,return,0.0813,,29.03645833,,,,,,FBP-PT-17.png,0.37,1.2,17,0.5,,,,,,,,,,,,,0,38,38,16,1,,,,,,,,,,,,,,,,,,,,,,,,,,,,
,,,,,V3_080,18,Female,2024-11-20_16h20.43.241,jersey_experiment_5_v3,2023.2.2,Win32,84.74576271,,,,,,,,,,,,,,,,687.181,688.4748,688.475,689.8396,return,0.1642,,70.3125,,,,,,FBP-RB-19.png,0.4,1.2,58,0.5,,,,,,,,,,,,,0,39,39,57,1,,,,,,,,,,,,,,,,,,,,,,,,,,,,
,,,,,V3_080,18,Female,2024-11-20_16h20.43.241,jersey_experiment_5_v3,2023.2.2,Win32,84.74576271,,,,,,,,,,,,,,,,689.8401,691.3808,691.3808,693.1809,return,0.0833,,65.36458333,,,,,,FBP-OG-19.png,0.4,1.2,43,0.75,,,,,,,,,,,,,0,40,40,42,1,,,,,,,,,,,,,,,,,,,,,,,,,,,,
,,,,,V3_080,18,Female,2024-11-20_16h20.43.241,jersey_experiment_5_v3,2023.2.2,Win32,84.74576271,,,,,,,,,,,,,,,,693.1811,694.4751,694.4752,696.334,return,0.7539,,67.31770833,,,,,,FBP-PT-19.png,0.43,1.2,29,0.5,,,,,,,,,,,,,0,41,41,28,1,,,,,,,,,,,,,,,,,,,,,,,,,,,,
,,,,,V3_080,18,Female,2024-11-20_16h20.43.241,jersey_experiment_5_v3,2023.2.2,Win32,84.74576271,,,,,,,,,,,,,,,,696.3344,697.6281,697.6281,698.6398,return,0.1964,,67.31770833,,,,,,FBP-YG-91.png,0.45,1.2,15,0.5,,,,,,,,,,,,,0,42,42,14,1,,,,,,,,,,,,,,,,,,,,,,,,,,,,
,,,,,V3_080,18,Female,2024-11-20_16h20.43.241,jersey_experiment_5_v3,2023.2.2,Win32,84.74576271,,,,,,,,,,,,,,,,698.64,699.9341,699.9341,700.6871,return,0.1521,,67.31770833,,,,,,FBP-YG-71.png,0.4,1.2,3,0.5,,,,,,,,,,,,,0,43,43,2,1,,,,,,,,,,,,,,,,,,,,,,,,,,,,
,,,,,V3_080,18,Female,2024-11-20_16h20.43.241,jersey_experiment_5_v3,2023.2.2,Win32,84.74576271,,,,,,,,,,,,,,,,700.6875,702.2401,702.2402,702.9224,return,0.1567,,67.31770833,,,,,,FBP-OG-18.png,0.4,1.2,38,0.75,,,,,,,,,,,,,0,44,44,37,1,,,,,,,,,,,,,,,,,,,,,,,,,,,,
,,,,,V3_080,18,Female,2024-11-20_16h20.43.241,jersey_experiment_5_v3,2023.2.2,Win32,84.74576271,,,,,,,,,,,,,,,,702.9227,704.4639,704.464,705.5343,return,0.0807,,25.13020833,,,,,,FBP-OG-17.png,0.35,1.2,31,0.75,,,,,,,,,,,,,0,45,45,30,1,,,,,,,,,,,,,,,,,,,,,,,,,,,,
,,,,,V3_080,18,Female,2024-11-20_16h20.43.241,jersey_experiment_5_v3,2023.2.2,Win32,84.74576271,,,,,,,,,,,,,,,,705.5345,706.8283,706.8283,708.7461,return,0.1426,,41.92708333,,,,,,FBP-PT-19.png,0.37,1.2,27,0.5,,,,,,,,,,,,,0,46,46,26,1,,,,,,,,,,,,,,,,,,,,,,,,,,,,
,,,,,V3_080,18,Female,2024-11-20_16h20.43.241,jersey_experiment_5_v3,2023.2.2,Win32,84.74576271,,,,,,,,,,,,,,,,708.7463,710.0402,710.0404,712.264,return,1.1471,,43.359375,,,,,,FBP-RB-19.png,0.43,1.2,59,0.5,,,,,,,,,,,,,0,47,47,58,1,,,,,,,,,,,,,,,,,,,,,,,,,,,,
,,,,,V3_080,18,Female,2024-11-20_16h20.43.241,jersey_experiment_5_v3,2023.2.2,Win32,84.74576271,,,,,,,,,,,,,,,,712.2642,713.558,713.5581,715.4993,return,0.2121,,23.828125,,,,,,FBP-PT-19.png,0.35,1.2,26,0.5,,,,,,,,,,,,,0,48,48,25,1,,,,,,,,,,,,,,,,,,,,,,,,,,,,
,,,,,V3_080,18,Female,2024-11-20_16h20.43.241,jersey_experiment_5_v3,2023.2.2,Win32,84.74576271,,,,,,,,,,,,,,,,715.4995,716.7936,716.7937,718.5818,return,0.2641,,72.39583333,,,,,,FBP-RB-18.png,0.45,1.2,55,0.5,,,,,,,,,,,,,0,49,49,54,1,,,,,,,,,,,,,,,,,,,,,,,,,,,,
,,,,,V3_080,18,Female,2024-11-20_16h20.43.241,jersey_experiment_5_v3,2023.2.2,Win32,84.74576271,,,,,,,,,,,,,,,,718.582,719.8761,719.8761,724.0291,return,0.237,,71.875,,,,,,FBP-PT-17.png,0.45,1.2,20,0.5,,,,,,,,,,,,,0,50,50,19,1,,,,,,,,,,,,,,,,,,,,,,,,,,,,
,,,,,V3_080,18,Female,2024-11-20_16h20.43.241,jersey_experiment_5_v3,2023.2.2,Win32,84.74576271,,,,,,,,,,,,,,,,724.0293,725.3232,725.3233,726.4292,return,0.1043,,71.74479167,,,,,,FBP-YG-91.png,0.37,1.2,12,0.5,,,,,,,,,,,,,0,51,51,11,1,,,,,,,,,,,,,,,,,,,,,,,,,,,,
,,,,,V3_080,18,Female,2024-11-20_16h20.43.241,jersey_experiment_5_v3,2023.2.2,Win32,84.74576271,,,,,,,,,,,,,,,,726.4295,727.7233,727.7234,729.0881,return,0.142,,31.25,,,,,,FBP-PT-18.png,0.35,1.2,21,0.5,,,,,,,,,,,,,0,52,52,20,1,,,,,,,,,,,,,,,,,,,,,,,,,,,,
,,,,,V3_080,18,Female,2024-11-20_16h20.43.241,jersey_experiment_5_v3,2023.2.2,Win32,84.74576271,,,,,,,,,,,,,,,,729.0884,730.3823,730.3823,731.2059,return,0.1266,,31.25,,,,,,FBP-YG-91.png,0.35,1.2,11,0.5,,,,,,,,,,,,,0,53,53,10,1,,,,,,,,,,,,,,,,,,,,,,,,,,,,
,,,,,V3_080,18,Female,2024-11-20_16h20.43.241,jersey_experiment_5_v3,2023.2.2,Win32,84.74576271,,,,,,,,,,,,,,,,731.2061,732.7589,732.7589,734.4413,return,0.1222,,50.52083333,,,,,,FBP-OG-18.png,0.37,1.2,37,0.75,,,,,,,,,,,,,0,54,54,36,1,,,,,,,,,,,,,,,,,,,,,,,,,,,,
,,,,,V3_080,18,Female,2024-11-20_16h20.43.241,jersey_experiment_5_v3,2023.2.2,Win32,84.74576271,,,,,,,,,,,,,,,,734.4415,735.9942,735.9943,737.1472,return,0.0941,,74.47916667,,,,,,FBP-OG-18.png,0.43,1.2,39,0.75,,,,,,,,,,,,,0,55,55,38,1,,,,,,,,,,,,,,,,,,,,,,,,,,,,
,,,,,V3_080,18,Female,2024-11-20_16h20.43.241,jersey_experiment_5_v3,2023.2.2,Win32,84.74576271,,,,,,,,,,,,,,,,737.1475,738.4414,738.4415,739.7121,return,0.1418,,33.203125,,,,,,FBP-RB-19.png,0.35,1.2,56,0.5,,,,,,,,,,,,,0,56,56,55,1,,,,,,,,,,,,,,,,,,,,,,,,,,,,
,,,,,V3_080,18,Female,2024-11-20_16h20.43.241,jersey_experiment_5_v3,2023.2.2,Win32,84.74576271,,,,,,,,,,,,,,,,739.7122,741.0062,741.0063,742.7475,return,0.133,,79.296875,,,,,,FBP-YG-81.png,0.43,1.2,9,0.5,,,,,,,,,,,,,0,57,57,8,1,,,,,,,,,,,,,,,,,,,,,,,,,,,,
,,,,,V3_080,18,Female,2024-11-20_16h20.43.241,jersey_experiment_5_v3,2023.2.2,Win32,84.74576271,,,,,,,,,,,,,,,,742.7476,744.0416,744.0417,744.9123,return,0.2131,,79.296875,,,,,,FBP-PT-18.png,0.4,1.2,23,0.5,,,,,,,,,,,,,0,58,58,22,1,,,,,,,,,,,,,,,,,,,,,,,,,,,,
,,,,,V3_080,18,Female,2024-11-20_16h20.43.241,jersey_experiment_5_v3,2023.2.2,Win32,84.74576271,,,,,,,,,,,,,,,,744.9125,746.2064,746.2065,747.0298,return,0.1728,,79.296875,,,,,,FBP-YG-91.png,0.43,1.2,14,0.5,,,,,,,,,,,,,0,59,59,13,1,,,,,,,,,,,,,,,,,,,,,,,,,,,,
,,,,,V3_080,18,Female,2024-11-20_16h20.43.241,jersey_experiment_5_v3,2023.2.2,Win32,84.74576271,,,,,,,,,,,,,,,,747.0311,748.3241,748.3242,749.5124,return,0.1327,,35.28645833,,,,,,FBP-PT-71.png,0.37,1.2,17,0.5,,,,,,,,,,,,,,,,,,0,0,0,16,1,,,,,,,,,,,,,,,,,,,,,,,
,,,,,V3_080,18,Female,2024-11-20_16h20.43.241,jersey_experiment_5_v3,2023.2.2,Win32,84.74576271,,,,,,,,,,,,,,,,749.5127,750.8066,750.8067,753.195,return,0.1803,,30.72916667,,,,,,FBP-YG-18.png,0.37,1.2,7,0.5,,,,,,,,,,,,,,,,,,0,1,1,6,1,,,,,,,,,,,,,,,,,,,,,,,
,,,,,V3_080,18,Female,2024-11-20_16h20.43.241,jersey_experiment_5_v3,2023.2.2,Win32,84.74576271,,,,,,,,,,,,,,,,753.1952,754.748,754.748,756.2303,return,0.1373,,74.21875,,,,,,FBP-OG-71.png,0.37,1.2,32,0.75,,,,,,,,,,,,,,,,,,0,2,2,31,1,,,,,,,,,,,,,,,,,,,,,,,
,,,,,V3_080,18,Female,2024-11-20_16h20.43.241,jersey_experiment_5_v3,2023.2.2,Win32,84.74576271,,,,,,,,,,,,,,,,756.2305,757.5245,757.5246,758.3126,return,0.1466,,74.21875,,,,,,FBP-PT-71.png,0.35,1.2,16,0.5,,,,,,,,,,,,,,,,,,0,3,3,15,1,,,,,,,,,,,,,,,,,,,,,,,
,,,,,V3_080,18,Female,2024-11-20_16h20.43.241,jersey_experiment_5_v3,2023.2.2,Win32,84.74576271,,,,,,,,,,,,,,,,758.3128,759.8659,759.8659,760.4422,return,0.181,,74.21875,,,,,,FBP-OG-91.png,0.4,1.2,43,0.75,,,,,,,,,,,,,,,,,,0,4,4,42,1,,,,,,,,,,,,,,,,,,,,,,,
,,,,,V3_080,18,Female,2024-11-20_16h20.43.241,jersey_experiment_5_v3,2023.2.2,Win32,84.74576271,,,,,,,,,,,,,,,,760.4425,761.7364,761.7365,763.4072,return,0.8128,,74.21875,,,,,,FBP-YG-19.png,0.37,1.2,12,0.5,,,,,,,,,,,,,,,,,,0,5,5,11,1,,,,,,,,,,,,,,,,,,,,,,,
,,,,,V3_080,18,Female,2024-11-20_16h20.43.241,jersey_experiment_5_v3,2023.2.2,Win32,84.74576271,,,,,,,,,,,,,,,,763.4074,764.7013,764.7014,765.9601,return,0.1244,,99.08854167,,,,,,FBP-RB-81.png,0.45,1.2,55,0.5,,,,,,,,,,,,,,,,,,0,6,6,54,1,,,,,,,,,,,,,,,,,,,,,,,
,,,,,V3_080,18,Female,2024-11-20_16h20.43.241,jersey_experiment_5_v3,2023.2.2,Win32,84.74576271,,,,,,,,,,,,,,,,765.9604,767.2543,767.2543,768.6073,return,0.1414,,98.046875,,,,,,FBP-YG-17.png,0.35,1.2,1,0.5,,,,,,,,,,,,,,,,,,0,7,7,0,1,,,,,,,,,,,,,,,,,,,,,,,
,,,,,V3_080,18,Female,2024-11-20_16h20.43.241,jersey_experiment_5_v3,2023.2.2,Win32,84.74576271,,,,,,,,,,,,,,,,768.6075,769.9016,769.9016,770.6309,return,0.1612,,98.046875,,,,,,FBP-PT-81.png,0.43,1.2,24,0.5,,,,,,,,,,,,,,,,,,0,8,8,23,1,,,,,,,,,,,,,,,,,,,,,,,
,,,,,V3_080,18,Female,2024-11-20_16h20.43.241,jersey_experiment_5_v3,2023.2.2,Win32,84.74576271,,,,,,,,,,,,,,,,770.6311,771.925,771.925,772.7957,return,0.1562,,98.046875,,,,,,FBP-RB-81.png,0.4,1.2,53,0.5,,,,,,,,,,,,,,,,,,0,9,9,52,1,,,,,,,,,,,,,,,,,,,,,,,
,,,,,V3_080,18,Female,2024-11-20_16h20.43.241,jersey_experiment_5_v3,2023.2.2,Win32,84.74576271,,,,,,,,,,,,,,,,772.7959,774.0898,774.0899,774.8779,return,0.247,,98.046875,,,,,,FBP-PT-81.png,0.37,1.2,22,0.5,,,,,,,,,,,,,,,,,,0,10,10,21,1,,,,,,,,,,,,,,,,,,,,,,,
,,,,,V3_080,18,Female,2024-11-20_16h20.43.241,jersey_experiment_5_v3,2023.2.2,Win32,84.74576271,,,,,,,,,,,,,,,,774.8782,776.1722,776.1722,777.4312,return,0.0753,,87.890625,,,,,,FBP-YG-17.png,0.43,1.2,4,0.5,,,,,,,,,,,,,,,,,,0,11,11,3,1,,,,,,,,,,,,,,,,,,,,,,,
,,,,,V3_080,18,Female,2024-11-20_16h20.43.241,jersey_experiment_5_v3,2023.2.2,Win32,84.74576271,,,,,,,,,,,,,,,,777.4315,778.7254,778.7254,780.1843,return,0.121,,37.109375,,,,,,FBP-YG-19.png,0.35,1.2,11,0.5,,,,,,,,,,,,,,,,,,0,12,12,10,1,,,,,,,,,,,,,,,,,,,,,,,
,,,,,V3_080,18,Female,2024-11-20_16h20.43.241,jersey_experiment_5_v3,2023.2.2,Win32,84.74576271,,,,,,,,,,,,,,,,780.1845,781.4782,781.4782,782.4784,return,0.0946,,74.86979167,,,,,,FBP-RB-91.png,0.43,1.2,59,0.5,,,,,,,,,,,,,,,,,,0,13,13,58,1,,,,,,,,,,,,,,,,,,,,,,,
,,,,,V3_080,18,Female,2024-11-20_16h20.43.241,jersey_experiment_5_v3,2023.2.2,Win32,84.74576271,,,,,,,,,,,,,,,,782.4786,783.7726,783.7727,784.9609,return,0.1085,,29.81770833,,,,,,FBP-PT-91.png,0.35,1.2,26,0.5,,,,,,,,,,,,,,,,,,0,14,14,25,1,,,,,,,,,,,,,,,,,,,,,,,
,,,,,V3_080,18,Female,2024-11-20_16h20.43.241,jersey_experiment_5_v3,2023.2.2,Win32,84.74576271,,,,,,,,,,,,,,,,784.9612,786.255,786.255,787.255,return,0.2194,,30.46875,,,,,,FBP-RB-81.png,0.35,1.2,51,0.5,,,,,,,,,,,,,,,,,,0,15,15,50,1,,,,,,,,,,,,,,,,,,,,,,,
,,,,,V3_080,18,Female,2024-11-20_16h20.43.241,jersey_experiment_5_v3,2023.2.2,Win32,84.74576271,,,,,,,,,,,,,,,,787.2553,788.5492,788.5492,789.6787,return,0.0944,,69.79166667,,,,,,FBP-RB-91.png,0.4,1.2,58,0.5,,,,,,,,,,,,,,,,,,0,16,16,57,1,,,,,,,,,,,,,,,,,,,,,,,
,,,,,V3_080,18,Female,2024-11-20_16h20.43.241,jersey_experiment_5_v3,2023.2.2,Win32,84.74576271,,,,,,,,,,,,,,,,789.6789,790.9727,790.9727,791.6788,return,0.1408,,69.79166667,,,,,,FBP-RB-81.png,0.43,1.2,54,0.5,,,,,,,,,,,,,,,,,,0,17,17,53,1,,,,,,,,,,,,,,,,,,,,,,,
,,,,,V3_080,18,Female,2024-11-20_16h20.43.241,jersey_experiment_5_v3,2023.2.2,Win32,84.74576271,,,,,,,,,,,,,,,,791.6791,793.2317,793.2318,794.0788,return,0.0943,,69.79166667,,,,,,FBP-OG-71.png,0.43,1.2,34,0.75,,,,,,,,,,,,,,,,,,0,18,18,33,1,,,,,,,,,,,,,,,,,,,,,,,
,,,,,V3_080,18,Female,2024-11-20_16h20.43.241,jersey_experiment_5_v3,2023.2.2,Win32,84.74576271,,,,,,,,,,,,,,,,794.0791,795.373,795.373,796.4319,return,0.1178,,71.74479167,,,,,,FBP-PT-81.png,0.35,1.2,21,0.5,,,,,,,,,,,,,,,,,,0,19,19,20,1,,,,,,,,,,,,,,,,,,,,,,,
,,,,,V3_080,18,Female,2024-11-20_16h20.43.241,jersey_experiment_5_v3,2023.2.2,Win32,84.74576271,,,,,,,,,,,,,,,,796.4322,797.7261,797.7261,798.6555,return,0.0845,,79.296875,,,,,,FBP-YG-18.png,0.45,1.2,10,0.5,,,,,,,,,,,,,,,,,,0,20,20,9,1,,,,,,,,,,,,,,,,,,,,,,,
,,,,,V3_080,18,Female,2024-11-20_16h20.43.241,jersey_experiment_5_v3,2023.2.2,Win32,84.74576271,,,,,,,,,,,,,,,,798.6559,800.2087,800.2087,800.8555,return,0.1015,,83.984375,,,,,,FBP-OG-91.png,0.43,1.2,44,0.75,,,,,,,,,,,,,,,,,,0,21,21,43,1,,,,,,,,,,,,,,,,,,,,,,,
,,,,,V3_080,18,Female,2024-11-20_16h20.43.241,jersey_experiment_5_v3,2023.2.2,Win32,84.74576271,,,,,,,,,,,,,,,,800.8557,802.1498,802.1499,803.1498,return,0.2148,,87.109375,,,,,,FBP-YG-18.png,0.43,1.2,9,0.5,,,,,,,,,,,,,,,,,,0,22,22,8,1,,,,,,,,,,,,,,,,,,,,,,,
,,,,,V3_080,18,Female,2024-11-20_16h20.43.241,jersey_experiment_5_v3,2023.2.2,Win32,84.74576271,,,,,,,,,,,,,,,,803.1501,804.4439,804.4439,805.3027,return,0.314,,86.84895833,,,,,,FBP-YG-19.png,0.43,1.2,14,0.5,,,,,,,,,,,,,,,,,,0,23,23,13,1,,,,,,,,,,,,,,,,,,,,,,,
,,,,,V3_080,18,Female,2024-11-20_16h20.43.241,jersey_experiment_5_v3,2023.2.2,Win32,84.74576271,,,,,,,,,,,,,,,,805.3028,806.597,806.597,807.2441,return,0.1638,,86.84895833,,,,,,FBP-RB-71.png,0.4,1.2,48,0.5,,,,,,,,,,,,,,,,,,0,24,24,47,1,,,,,,,,,,,,,,,,,,,,,,,
,,,,,V3_080,18,Female,2024-11-20_16h20.43.241,jersey_experiment_5_v3,2023.2.2,Win32,84.74576271,,,,,,,,,,,,,,,,807.2444,808.5382,808.5383,809.4796,return,0.2156,,86.84895833,,,,,,FBP-PT-91.png,0.43,1.2,29,0.5,,,,,,,,,,,,,,,,,,0,25,25,28,1,,,,,,,,,,,,,,,,,,,,,,,
,,,,,V3_080,18,Female,2024-11-20_16h20.43.241,jersey_experiment_5_v3,2023.2.2,Win32,84.74576271,,,,,,,,,,,,,,,,809.4798,811.0325,811.0326,811.6442,return,0.0851,,96.875,,,,,,FBP-OG-91.png,0.45,1.2,45,0.75,,,,,,,,,,,,,,,,,,0,26,26,44,1,,,,,,,,,,,,,,,,,,,,,,,
,,,,,V3_080,18,Female,2024-11-20_16h20.43.241,jersey_experiment_5_v3,2023.2.2,Win32,84.74576271,,,,,,,,,,,,,,,,811.6444,813.1972,813.1973,814.0443,return,0.1632,,96.875,,,,,,FBP-OG-71.png,0.45,1.2,35,0.75,,,,,,,,,,,,,,,,,,0,27,27,34,1,,,,,,,,,,,,,,,,,,,,,,,
,,,,,V3_080,18,Female,2024-11-20_16h20.43.241,jersey_experiment_5_v3,2023.2.2,Win32,84.74576271,,,,,,,,,,,,,,,,814.0445,815.3384,815.3384,816.1384,return,0.0955,,96.875,,,,,,FBP-PT-81.png,0.45,1.2,25,0.5,,,,,,,,,,,,,,,,,,0,28,28,24,1,,,,,,,,,,,,,,,,,,,,,,,
,,,,,V3_080,18,Female,2024-11-20_16h20.43.241,jersey_experiment_5_v3,2023.2.2,Win32,84.74576271,,,,,,,,,,,,,,,,816.1387,817.4328,817.4329,818.2681,return,0.2148,,96.875,,,,,,FBP-YG-19.png,0.45,1.2,15,0.5,,,,,,,,,,,,,,,,,,0,29,29,14,1,,,,,,,,,,,,,,,,,,,,,,,
,,,,,V3_080,18,Female,2024-11-20_16h20.43.241,jersey_experiment_5_v3,2023.2.2,Win32,84.74576271,,,,,,,,,,,,,,,,818.2682,819.5621,819.5622,820.6564,return,0.4913,,96.875,,,,,,FBP-PT-71.png,0.43,1.2,19,0.5,,,,,,,,,,,,,,,,,,0,30,30,18,1,,,,,,,,,,,,,,,,,,,,,,,
,,,,,V3_080,18,Female,2024-11-20_16h20.43.241,jersey_experiment_5_v3,2023.2.2,Win32,84.74576271,,,,,,,,,,,,,,,,820.6568,822.2093,822.2093,823.6565,return,0.0618,,72.65625,,,,,,FBP-OG-81.png,0.37,1.2,37,0.75,,,,,,,,,,,,,,,,,,0,31,31,36,1,,,,,,,,,,,,,,,,,,,,,,,
,,,,,V3_080,18,Female,2024-11-20_16h20.43.241,jersey_experiment_5_v3,2023.2.2,Win32,84.74576271,,,,,,,,,,,,,,,,823.6568,824.9507,824.9507,825.7036,return,0.0182,,72.13541667,,,,,,FBP-RB-91.png,0.37,1.2,57,0.5,,,,,,,,,,,,,,,,,,0,32,32,56,1,,,,,,,,,,,,,,,,,,,,,,,
,,,,,V3_080,18,Female,2024-11-20_16h20.43.241,jersey_experiment_5_v3,2023.2.2,Win32,84.74576271,,,,,,,,,,,,,,,,825.7039,826.9976,826.9976,828.5271,return,0.0943,,84.765625,,,,,,FBP-YG-17.png,0.45,1.2,5,0.5,,,,,,,,,,,,,,,,,,0,33,33,4,1,,,,,,,,,,,,,,,,,,,,,,,
,,,,,V3_080,18,Female,2024-11-20_16h20.43.241,jersey_experiment_5_v3,2023.2.2,Win32,84.74576271,,,,,,,,,,,,,,,,828.5274,829.8214,829.8214,830.8333,return,0.0474,,90.49479167,,,,,,FBP-RB-71.png,0.45,1.2,50,0.5,,,,,,,,,,,,,,,,,,0,34,34,49,1,,,,,,,,,,,,,,,,,,,,,,,
,,,,,V3_080,18,Female,2024-11-20_16h20.43.241,jersey_experiment_5_v3,2023.2.2,Win32,84.74576271,,,,,,,,,,,,,,,,830.8335,832.1274,832.1275,834.598,return,0.1266,,25.390625,,,,,,FBP-YG-18.png,0.35,1.2,6,0.5,,,,,,,,,,,,,,,,,,0,35,35,5,1,,,,,,,,,,,,,,,,,,,,,,,
,,,,,V3_080,18,Female,2024-11-20_16h20.43.241,jersey_experiment_5_v3,2023.2.2,Win32,84.74576271,,,,,,,,,,,,,,,,834.5982,835.8923,835.8924,836.9511,return,0.1955,,22.78645833,,,,,,FBP-RB-71.png,0.37,1.2,47,0.5,,,,,,,,,,,,,,,,,,0,36,36,46,1,,,,,,,,,,,,,,,,,,,,,,,
,,,,,V3_080,18,Female,2024-11-20_16h20.43.241,jersey_experiment_5_v3,2023.2.2,Win32,84.74576271,,,,,,,,,,,,,,,,836.9514,838.2453,838.2453,839.2099,return,0.1224,,25.52083333,,,,,,FBP-RB-81.png,0.37,1.2,52,0.5,,,,,,,,,,,,,,,,,,0,37,37,51,1,,,,,,,,,,,,,,,,,,,,,,,
,,,,,V3_080,18,Female,2024-11-20_16h20.43.241,jersey_experiment_5_v3,2023.2.2,Win32,84.74576271,,,,,,,,,,,,,,,,839.2101,840.5041,840.5041,842.422,return,0.0446,,32.68229167,,,,,,FBP-PT-71.png,0.4,1.2,18,0.5,,,,,,,,,,,,,,,,,,0,38,38,17,1,,,,,,,,,,,,,,,,,,,,,,,
,,,,,V3_080,18,Female,2024-11-20_16h20.43.241,jersey_experiment_5_v3,2023.2.2,Win32,84.74576271,,,,,,,,,,,,,,,,842.4222,843.7161,843.7161,844.9866,return,0.0714,,74.08854167,,,,,,FBP-YG-18.png,0.4,1.2,8,0.5,,,,,,,,,,,,,,,,,,0,39,39,7,1,,,,,,,,,,,,,,,,,,,,,,,
,,,,,V3_080,18,Female,2024-11-20_16h20.43.241,jersey_experiment_5_v3,2023.2.2,Win32,84.74576271,,,,,,,,,,,,,,,,844.9868,846.5398,846.5398,847.4807,return,0.3238,,74.08854167,,,,,,FBP-OG-91.png,0.35,1.2,41,0.75,,,,,,,,,,,,,,,,,,0,40,40,40,1,,,,,,,,,,,,,,,,,,,,,,,
,,,,,V3_080,18,Female,2024-11-20_16h20.43.241,jersey_experiment_5_v3,2023.2.2,Win32,84.74576271,,,,,,,,,,,,,,,,847.481,848.7751,848.7751,849.5516,return,0.1388,,74.08854167,,,,,,FBP-YG-17.png,0.4,1.2,3,0.5,,,,,,,,,,,,,,,,,,0,41,41,2,1,,,,,,,,,,,,,,,,,,,,,,,
,,,,,V3_080,18,Female,2024-11-20_16h20.43.241,jersey_experiment_5_v3,2023.2.2,Win32,84.74576271,,,,,,,,,,,,,,,,849.5519,850.8457,850.8457,851.6575,return,0.1789,,74.08854167,,,,,,FBP-YG-19.png,0.4,1.2,13,0.5,,,,,,,,,,,,,,,,,,0,42,42,12,1,,,,,,,,,,,,,,,,,,,,,,,
,,,,,V3_080,18,Female,2024-11-20_16h20.43.241,jersey_experiment_5_v3,2023.2.2,Win32,84.74576271,,,,,,,,,,,,,,,,851.6578,853.2104,853.2105,854.3636,return,0.074,,81.90104167,,,,,,FBP-OG-81.png,0.4,1.2,38,0.75,,,,,,,,,,,,,,,,,,0,43,43,37,1,,,,,,,,,,,,,,,,,,,,,,,
,,,,,V3_080,18,Female,2024-11-20_16h20.43.241,jersey_experiment_5_v3,2023.2.2,Win32,84.74576271,,,,,,,,,,,,,,,,854.3638,855.6576,855.6576,857.4224,return,0.0474,,94.66145833,,,,,,FBP-PT-91.png,0.45,1.2,30,0.5,,,,,,,,,,,,,,,,,,0,44,44,29,1,,,,,,,,,,,,,,,,,,,,,,,
,,,,,V3_080,18,Female,2024-11-20_16h20.43.241,jersey_experiment_5_v3,2023.2.2,Win32,84.74576271,,,,,,,,,,,,,,,,857.4227,858.9755,858.9756,859.7755,return,0.1883,,94.66145833,,,,,,FBP-OG-81.png,0.45,1.2,40,0.75,,,,,,,,,,,,,,,,,,0,45,45,39,1,,,,,,,,,,,,,,,,,,,,,,,
,,,,,V3_080,18,Female,2024-11-20_16h20.43.241,jersey_experiment_5_v3,2023.2.2,Win32,84.74576271,,,,,,,,,,,,,,,,859.7757,861.3284,861.3284,862.2345,return,0.2046,,94.66145833,,,,,,FBP-OG-81.png,0.43,1.2,39,0.75,,,,,,,,,,,,,,,,,,0,46,46,38,1,,,,,,,,,,,,,,,,,,,,,,,
,,,,,V3_080,18,Female,2024-11-20_16h20.43.241,jersey_experiment_5_v3,2023.2.2,Win32,84.74576271,,,,,,,,,,,,,,,,862.2347,863.5285,863.5287,865.0227,return,0.1522,,72.265625,,,,,,FBP-PT-91.png,0.37,1.2,27,0.5,,,,,,,,,,,,,,,,,,0,47,47,26,1,,,,,,,,,,,,,,,,,,,,,,,
,,,,,V3_080,18,Female,2024-11-20_16h20.43.241,jersey_experiment_5_v3,2023.2.2,Win32,84.74576271,,,,,,,,,,,,,,,,865.023,866.5757,866.5758,867.4346,return,0.1574,,72.265625,,,,,,FBP-OG-81.png,0.35,1.2,36,0.75,,,,,,,,,,,,,,,,,,0,48,48,35,1,,,,,,,,,,,,,,,,,,,,,,,
,,,,,V3_080,18,Female,2024-11-20_16h20.43.241,jersey_experiment_5_v3,2023.2.2,Win32,84.74576271,,,,,,,,,,,,,,,,867.4348,868.9874,868.9874,869.6464,return,0.1097,,72.265625,,,,,,FBP-OG-91.png,0.37,1.2,42,0.75,,,,,,,,,,,,,,,,,,0,49,49,41,1,,,,,,,,,,,,,,,,,,,,,,,
,,,,,V3_080,18,Female,2024-11-20_16h20.43.241,jersey_experiment_5_v3,2023.2.2,Win32,84.74576271,,,,,,,,,,,,,,,,869.6467,870.9407,870.9407,871.6112,return,0.0979,,72.265625,,,,,,FBP-RB-91.png,0.35,1.2,56,0.5,,,,,,,,,,,,,,,,,,0,50,50,55,1,,,,,,,,,,,,,,,,,,,,,,,
,,,,,V3_080,18,Female,2024-11-20_16h20.43.241,jersey_experiment_5_v3,2023.2.2,Win32,84.74576271,,,,,,,,,,,,,,,,871.6114,873.1642,873.1643,875.1526,return,1.1034,,72.265625,,,,,,FBP-OG-71.png,0.35,1.2,31,0.75,,,,,,,,,,,,,,,,,,0,51,51,30,1,,,,,,,,,,,,,,,,,,,,,,,
,,,,,V3_080,18,Female,2024-11-20_16h20.43.241,jersey_experiment_5_v3,2023.2.2,Win32,84.74576271,,,,,,,,,,,,,,,,875.1528,876.4466,876.4466,877.7762,return,0.0947,,88.54166667,,,,,,FBP-PT-71.png,0.45,1.2,20,0.5,,,,,,,,,,,,,,,,,,0,52,52,19,1,,,,,,,,,,,,,,,,,,,,,,,
,,,,,V3_080,18,Female,2024-11-20_16h20.43.241,jersey_experiment_5_v3,2023.2.2,Win32,84.74576271,,,,,,,,,,,,,,,,877.7764,879.0703,879.0704,880.1881,return,0.048,,88.54166667,,,,,,FBP-RB-91.png,0.45,1.2,60,0.5,,,,,,,,,,,,,,,,,,0,53,53,59,1,,,,,,,,,,,,,,,,,,,,,,,
,,,,,V3_080,18,Female,2024-11-20_16h20.43.241,jersey_experiment_5_v3,2023.2.2,Win32,84.74576271,,,,,,,,,,,,,,,,880.1882,881.4822,881.4822,883.2236,return,0.0901,,50.26041667,,,,,,FBP-RB-71.png,0.35,1.2,46,0.5,,,,,,,,,,,,,,,,,,0,54,54,45,1,,,,,,,,,,,,,,,,,,,,,,,
,,,,,V3_080,18,Female,2024-11-20_16h20.43.241,jersey_experiment_5_v3,2023.2.2,Win32,84.74576271,,,,,,,,,,,,,,,,883.2238,884.5176,884.5177,885.9295,return,0.0643,,96.61458333,,,,,,FBP-RB-71.png,0.43,1.2,49,0.5,,,,,,,,,,,,,,,,,,0,55,55,48,1,,,,,,,,,,,,,,,,,,,,,,,
,,,,,V3_080,18,Female,2024-11-20_16h20.43.241,jersey_experiment_5_v3,2023.2.2,Win32,84.74576271,,,,,,,,,,,,,,,,885.9297,887.2235,887.2236,888.9413,return,0.2268,,69.921875,,,,,,FBP-PT-91.png,0.4,1.2,28,0.5,,,,,,,,,,,,,,,,,,0,56,56,27,1,,,,,,,,,,,,,,,,,,,,,,,
,,,,,V3_080,18,Female,2024-11-20_16h20.43.241,jersey_experiment_5_v3,2023.2.2,Win32,84.74576271,,,,,,,,,,,,,,,,888.9415,890.2355,890.2355,892.012,return,0.003,,72.00520833,,,,,,FBP-PT-81.png,0.4,1.2,23,0.5,,,,,,,,,,,,,,,,,,0,57,57,22,1,,,,,,,,,,,,,,,,,,,,,,,
,,,,,V3_080,18,Female,2024-11-20_16h20.43.241,jersey_experiment_5_v3,2023.2.2,Win32,84.74576271,,,,,,,,,,,,,,,,892.0122,893.3061,893.3061,895.6945,return,0.2376,,44.53125,,,,,,FBP-YG-17.png,0.37,1.2,2,0.5,,,,,,,,,,,,,,,,,,0,58,58,1,1,,,,,,,,,,,,,,,,,,,,,,,
,,,,,V3_080,18,Female,2024-11-20_16h20.43.241,jersey_experiment_5_v3,2023.2.2,Win32,84.74576271,,,,,,,,,,,,,,,,895.6947,897.2474,897.2474,898.6945,return,0.1343,,75.52083333,,,,,,FBP-OG-71.png,0.4,1.2,33,0.75,,,,,,,,,,,,,,,,,,0,59,59,32,1,,,,,,,,,,,,,,,,,,,,,,,
,,,,,V3_080,18,Female,2024-11-20_16h20.43.241,jersey_experiment_5_v3,2023.2.2,Win32,84.74576271,,,,,,,,,,,,,,,,,,,,,,,,,,,,,,,,,,,,,,,,,,,,,,,,,,,,,,,,898.6946,909.495,return,10.7928,,,,,,,,,,,,,,,,,,,
,,,,,V3_080,18,Female,2024-11-20_16h20.43.241,jersey_experiment_5_v3,2023.2.2,Win32,84.74576271,,,,,,,,,,,,,,,,,,,,,,,,,,,,,,,,,,,,,,,,,,,,,,,,,,,,,,,,,,,,,909.495,915.6246,1,5.9117,return,0.2062,,,,,,,,,,,,
,,,,,V3_080,18,Female,2024-11-20_16h20.43.241,jersey_experiment_5_v3,2023.2.2,Win32,84.74576271,,,,,,,,,,,,,,,,,,,,,,,,,,,,,,,,,,,,,,,,,,,,,,,,,,,,,,,,,,,,,,,,,,,,915.6248,993.5813,"I have no idea. But I will say sometimes it would throw me off guard when there was a very Huskey guy then all of sudden a slender one, I would have to think about what I click.",right,70.3921,,,,,,
,,,,,V3_080,18,Female,2024-11-20_16h20.43.241,jersey_experiment_5_v3,2023.2.2,Win32,84.74576271,,,,,,,,,,,,,,,,,,,,,,,,,,,,,,,,,,,,,,,,,,,,,,,,,,,,,,,,,,,,,,,,,,,,,,,,,,993.5813,999.3927,return,5.7999,