requirements.started,requirements.stopped,key_resp_3.keys,key_resp_3.rt,key_resp_3.duration,Subject ID,Age,Gender,date,expName,psychopyVersion,OS,frameRate,instructions1.started,instructions1.stopped,key_resp.keys,key_resp.rt,key_resp.duration,example.started,example.stopped,enter_2.keys,enter_2.rt,enter_2.duration,instructions2.started,instructions2.stopped,enter_3.keys,enter_3.rt,enter_3.duration,image.started,image.stopped,slider_2.started,slider_2.stopped,next.keys,next.rt,next.duration,slider.response,trial_block_1.thisRepN,trial_block_1.thisTrialN,trial_block_1.thisN,trial_block_1.thisIndex,trial_block_1.ran,Path,Width,Height,Index,Duration,trial_block_2.thisRepN,trial_block_2.thisTrialN,trial_block_2.thisN,trial_block_2.thisIndex,trial_block_2.ran,rest_break.started,rest_break.stopped,end_break.started,end_break.stopped,key_resp_5.keys,key_resp_5.rt,key_resp_5.duration,trial_block_3.thisRepN,trial_block_3.thisTrialN,trial_block_3.thisN,trial_block_3.thisIndex,trial_block_3.ran,trial_block_4.thisRepN,trial_block_4.thisTrialN,trial_block_4.thisN,trial_block_4.thisIndex,trial_block_4.ran,questions_intro.started,questions_intro.stopped,enter_12.keys,enter_12.rt,enter_12.duration,question2.started,question2.stopped,question_doingbest.response,question_doingbest.rt,enter_15.keys,enter_15.rt,enter_15.duration,pattern.started,pattern.stopped,pattern_2.text,enter_17.keys,enter_17.rt,enter_17.duration,thankyou.started,thankyou.stopped,enter_14.keys,enter_14.rt,enter_14.duration
0.0001,12.9513,return,12.9446,,V3_022,22,Female,2024-10-17_17h15.41.874,jersey_experiment_5_v3,2023.2.2,Win32,84.74576271,,,,,,,,,,,,,,,,,,,,,,,,,,,,,,,,,,,,,,,,,,,,,,,,,,,,,,,,,,,,,,,,,,,,,,,,,,,,,,
,,,,,V3_022,22,Female,2024-10-17_17h15.41.874,jersey_experiment_5_v3,2023.2.2,Win32,84.74576271,12.9513,18.6454,return,5.6742,,,,,,,,,,,,,,,,,,,,,,,,,,,,,,,,,,,,,,,,,,,,,,,,,,,,,,,,,,,,,,,,,,,,,,,,,,
,,,,,V3_022,22,Female,2024-10-17_17h15.41.874,jersey_experiment_5_v3,2023.2.2,Win32,84.74576271,,,,,,18.6455,21.7397,return,3.0514,,,,,,,,,,,,,,,,,,,,,,,,,,,,,,,,,,,,,,,,,,,,,,,,,,,,,,,,,,,,,,,,,,,,,
,,,,,V3_022,22,Female,2024-10-17_17h15.41.874,jersey_experiment_5_v3,2023.2.2,Win32,84.74576271,,,,,,,,,,,21.7398,38.1168,return,16.3695,,,,,,,,,,,,,,,,,,,,,,,,,,,,,,,,,,,,,,,,,,,,,,,,,,,,,,,,,,,,,,,,
,,,,,V3_022,22,Female,2024-10-17_17h15.41.874,jersey_experiment_5_v3,2023.2.2,Win32,84.74576271,,,,,,,,,,,,,,,,38.1189,39.6698,39.6698,48.7406,return,1.5262,,75.26041667,0,0,0,28,1,FBP-PT-19.png,0.43,1.2,29,0.75,,,,,,,,,,,,,,,,,,,,,,,,,,,,,,,,,,,,,,,,,,,,,
,,,,,V3_022,22,Female,2024-10-17_17h15.41.874,jersey_experiment_5_v3,2023.2.2,Win32,84.74576271,,,,,,,,,,,,,,,,48.741,50.2935,50.2936,54.282,return,1.2501,,61.58854167,0,1,1,49,1,FBP-RB-17.png,0.45,1.2,50,0.75,,,,,,,,,,,,,,,,,,,,,,,,,,,,,,,,,,,,,,,,,,,,,
,,,,,V3_022,22,Female,2024-10-17_17h15.41.874,jersey_experiment_5_v3,2023.2.2,Win32,84.74576271,,,,,,,,,,,,,,,,54.2821,55.8349,55.835,61.247,return,3.7257,,75,0,2,2,4,1,FBP-YG-71.png,0.45,1.2,5,0.75,,,,,,,,,,,,,,,,,,,,,,,,,,,,,,,,,,,,,,,,,,,,,
,,,,,V3_022,22,Female,2024-10-17_17h15.41.874,jersey_experiment_5_v3,2023.2.2,Win32,84.74576271,,,,,,,,,,,,,,,,61.2472,62.8,62.8,65.3882,return,1.1301,,50.26041667,0,3,3,52,1,FBP-RB-18.png,0.4,1.2,53,0.75,,,,,,,,,,,,,,,,,,,,,,,,,,,,,,,,,,,,,,,,,,,,,
,,,,,V3_022,22,Female,2024-10-17_17h15.41.874,jersey_experiment_5_v3,2023.2.2,Win32,84.74576271,,,,,,,,,,,,,,,,65.3886,66.9411,66.9412,70.3413,return,1.2668,,64.453125,0,4,4,17,1,FBP-PT-17.png,0.4,1.2,18,0.75,,,,,,,,,,,,,,,,,,,,,,,,,,,,,,,,,,,,,,,,,,,,,
,,,,,V3_022,22,Female,2024-10-17_17h15.41.874,jersey_experiment_5_v3,2023.2.2,Win32,84.74576271,,,,,,,,,,,,,,,,70.3416,71.8944,71.8945,74.2357,return,1.0703,,41.14583333,0,5,5,2,1,FBP-YG-71.png,0.4,1.2,3,0.75,,,,,,,,,,,,,,,,,,,,,,,,,,,,,,,,,,,,,,,,,,,,,
,,,,,V3_022,22,Female,2024-10-17_17h15.41.874,jersey_experiment_5_v3,2023.2.2,Win32,84.74576271,,,,,,,,,,,,,,,,74.2359,75.7886,75.7886,78.0475,return,0.8473,,31.77083333,0,6,6,25,1,FBP-PT-19.png,0.35,1.2,26,0.75,,,,,,,,,,,,,,,,,,,,,,,,,,,,,,,,,,,,,,,,,,,,,
,,,,,V3_022,22,Female,2024-10-17_17h15.41.874,jersey_experiment_5_v3,2023.2.2,Win32,84.74576271,,,,,,,,,,,,,,,,78.0477,79.3416,79.3417,81.3888,return,0.7062,,40.10416667,0,7,7,32,1,FBP-OG-17.png,0.4,1.2,33,0.5,,,,,,,,,,,,,,,,,,,,,,,,,,,,,,,,,,,,,,,,,,,,,
,,,,,V3_022,22,Female,2024-10-17_17h15.41.874,jersey_experiment_5_v3,2023.2.2,Win32,84.74576271,,,,,,,,,,,,,,,,81.3894,82.942,82.942,84.2124,return,0.6676,,40.36458333,0,8,8,16,1,FBP-PT-17.png,0.37,1.2,17,0.75,,,,,,,,,,,,,,,,,,,,,,,,,,,,,,,,,,,,,,,,,,,,,
,,,,,V3_022,22,Female,2024-10-17_17h15.41.874,jersey_experiment_5_v3,2023.2.2,Win32,84.74576271,,,,,,,,,,,,,,,,84.2126,85.5066,85.5067,87.5184,return,0.8158,,30.59895833,0,9,9,30,1,FBP-OG-17.png,0.35,1.2,31,0.5,,,,,,,,,,,,,,,,,,,,,,,,,,,,,,,,,,,,,,,,,,,,,
,,,,,V3_022,22,Female,2024-10-17_17h15.41.874,jersey_experiment_5_v3,2023.2.2,Win32,84.74576271,,,,,,,,,,,,,,,,87.5187,88.8127,88.8127,92.5068,return,0.6378,,61.45833333,0,10,10,31,1,FBP-OG-17.png,0.37,1.2,32,0.5,,,,,,,,,,,,,,,,,,,,,,,,,,,,,,,,,,,,,,,,,,,,,
,,,,,V3_022,22,Female,2024-10-17_17h15.41.874,jersey_experiment_5_v3,2023.2.2,Win32,84.74576271,,,,,,,,,,,,,,,,92.507,94.0599,94.0599,97.8836,return,1.4037,,79.03645833,0,11,11,18,1,FBP-PT-17.png,0.43,1.2,19,0.75,,,,,,,,,,,,,,,,,,,,,,,,,,,,,,,,,,,,,,,,,,,,,
,,,,,V3_022,22,Female,2024-10-17_17h15.41.874,jersey_experiment_5_v3,2023.2.2,Win32,84.74576271,,,,,,,,,,,,,,,,97.8839,99.1777,99.1777,100.6482,return,0.6262,,82.29166667,0,12,12,34,1,FBP-OG-17.png,0.45,1.2,35,0.5,,,,,,,,,,,,,,,,,,,,,,,,,,,,,,,,,,,,,,,,,,,,,
,,,,,V3_022,22,Female,2024-10-17_17h15.41.874,jersey_experiment_5_v3,2023.2.2,Win32,84.74576271,,,,,,,,,,,,,,,,100.6485,102.2013,102.2014,104.2955,return,0.547,,57.55208333,0,13,13,20,1,FBP-PT-18.png,0.35,1.2,21,0.75,,,,,,,,,,,,,,,,,,,,,,,,,,,,,,,,,,,,,,,,,,,,,
,,,,,V3_022,22,Female,2024-10-17_17h15.41.874,jersey_experiment_5_v3,2023.2.2,Win32,84.74576271,,,,,,,,,,,,,,,,104.2959,105.5896,105.5896,107.0016,return,0.8038,,56.51041667,0,14,14,40,1,FBP-OG-19.png,0.35,1.2,41,0.5,,,,,,,,,,,,,,,,,,,,,,,,,,,,,,,,,,,,,,,,,,,,,
,,,,,V3_022,22,Female,2024-10-17_17h15.41.874,jersey_experiment_5_v3,2023.2.2,Win32,84.74576271,,,,,,,,,,,,,,,,107.0018,108.5544,108.5545,112.837,return,3.4436,,60.80729167,0,15,15,53,1,FBP-RB-18.png,0.43,1.2,54,0.75,,,,,,,,,,,,,,,,,,,,,,,,,,,,,,,,,,,,,,,,,,,,,
,,,,,V3_022,22,Female,2024-10-17_17h15.41.874,jersey_experiment_5_v3,2023.2.2,Win32,84.74576271,,,,,,,,,,,,,,,,112.8373,114.39,114.3901,116.6606,return,0.8051,,45.3125,0,16,16,0,1,FBP-YG-71.png,0.35,1.2,1,0.75,,,,,,,,,,,,,,,,,,,,,,,,,,,,,,,,,,,,,,,,,,,,,
,,,,,V3_022,22,Female,2024-10-17_17h15.41.874,jersey_experiment_5_v3,2023.2.2,Win32,84.74576271,,,,,,,,,,,,,,,,116.6609,118.2137,118.2138,120.1079,return,0.5502,,74.73958333,0,17,17,14,1,FBP-YG-91.png,0.45,1.2,15,0.75,,,,,,,,,,,,,,,,,,,,,,,,,,,,,,,,,,,,,,,,,,,,,
,,,,,V3_022,22,Female,2024-10-17_17h15.41.874,jersey_experiment_5_v3,2023.2.2,Win32,84.74576271,,,,,,,,,,,,,,,,120.108,121.4021,121.4021,124.4373,return,2.1331,,64.97395833,0,18,18,37,1,FBP-OG-18.png,0.4,1.2,38,0.5,,,,,,,,,,,,,,,,,,,,,,,,,,,,,,,,,,,,,,,,,,,,,
,,,,,V3_022,22,Female,2024-10-17_17h15.41.874,jersey_experiment_5_v3,2023.2.2,Win32,84.74576271,,,,,,,,,,,,,,,,124.4376,125.7316,125.7317,127.908,return,0.8526,,64.453125,0,19,19,43,1,FBP-OG-19.png,0.43,1.2,44,0.5,,,,,,,,,,,,,,,,,,,,,,,,,,,,,,,,,,,,,,,,,,,,,
,,,,,V3_022,22,Female,2024-10-17_17h15.41.874,jersey_experiment_5_v3,2023.2.2,Win32,84.74576271,,,,,,,,,,,,,,,,127.9082,129.4611,129.4611,131.3082,return,0.4321,,62.890625,0,20,20,22,1,FBP-PT-18.png,0.4,1.2,23,0.75,,,,,,,,,,,,,,,,,,,,,,,,,,,,,,,,,,,,,,,,,,,,,
,,,,,V3_022,22,Female,2024-10-17_17h15.41.874,jersey_experiment_5_v3,2023.2.2,Win32,84.74576271,,,,,,,,,,,,,,,,131.3085,132.8613,132.8613,135.132,return,0.8701,,40.88541667,0,21,21,55,1,FBP-RB-19.png,0.35,1.2,56,0.75,,,,,,,,,,,,,,,,,,,,,,,,,,,,,,,,,,,,,,,,,,,,,
,,,,,V3_022,22,Female,2024-10-17_17h15.41.874,jersey_experiment_5_v3,2023.2.2,Win32,84.74576271,,,,,,,,,,,,,,,,135.1322,136.4262,136.4262,139.9321,return,2.1157,,75.65104167,0,22,22,38,1,FBP-OG-18.png,0.43,1.2,39,0.5,,,,,,,,,,,,,,,,,,,,,,,,,,,,,,,,,,,,,,,,,,,,,
,,,,,V3_022,22,Female,2024-10-17_17h15.41.874,jersey_experiment_5_v3,2023.2.2,Win32,84.74576271,,,,,,,,,,,,,,,,139.9323,141.4851,141.4852,143.1322,return,0.5103,,74.86979167,0,23,23,5,1,FBP-YG-81.png,0.35,1.2,6,0.75,,,,,,,,,,,,,,,,,,,,,,,,,,,,,,,,,,,,,,,,,,,,,
,,,,,V3_022,22,Female,2024-10-17_17h15.41.874,jersey_experiment_5_v3,2023.2.2,Win32,84.74576271,,,,,,,,,,,,,,,,143.1324,144.4264,144.4264,146.7912,return,0.486,,82.03125,0,24,24,39,1,FBP-OG-18.png,0.45,1.2,40,0.5,,,,,,,,,,,,,,,,,,,,,,,,,,,,,,,,,,,,,,,,,,,,,
,,,,,V3_022,22,Female,2024-10-17_17h15.41.874,jersey_experiment_5_v3,2023.2.2,Win32,84.74576271,,,,,,,,,,,,,,,,146.7915,148.3442,148.3443,152.0856,return,1.6867,,62.890625,0,25,25,56,1,FBP-RB-19.png,0.37,1.2,57,0.75,,,,,,,,,,,,,,,,,,,,,,,,,,,,,,,,,,,,,,,,,,,,,
,,,,,V3_022,22,Female,2024-10-17_17h15.41.874,jersey_experiment_5_v3,2023.2.2,Win32,84.74576271,,,,,,,,,,,,,,,,152.0858,153.6384,153.6385,155.2739,return,0.2046,,34.24479167,0,26,26,21,1,FBP-PT-18.png,0.37,1.2,22,0.75,,,,,,,,,,,,,,,,,,,,,,,,,,,,,,,,,,,,,,,,,,,,,
,,,,,V3_022,22,Female,2024-10-17_17h15.41.874,jersey_experiment_5_v3,2023.2.2,Win32,84.74576271,,,,,,,,,,,,,,,,155.2741,156.568,156.5681,157.8622,return,0.1126,,65.234375,0,27,27,42,1,FBP-OG-19.png,0.4,1.2,43,0.5,,,,,,,,,,,,,,,,,,,,,,,,,,,,,,,,,,,,,,,,,,,,,
,,,,,V3_022,22,Female,2024-10-17_17h15.41.874,jersey_experiment_5_v3,2023.2.2,Win32,84.74576271,,,,,,,,,,,,,,,,157.8624,159.4152,159.4152,160.3799,return,0.1895,,61.06770833,0,28,28,47,1,FBP-RB-17.png,0.4,1.2,48,0.75,,,,,,,,,,,,,,,,,,,,,,,,,,,,,,,,,,,,,,,,,,,,,
,,,,,V3_022,22,Female,2024-10-17_17h15.41.874,jersey_experiment_5_v3,2023.2.2,Win32,84.74576271,,,,,,,,,,,,,,,,160.3801,161.9331,161.9331,163.8506,return,0.826,,25.26041667,0,29,29,45,1,FBP-RB-17.png,0.35,1.2,46,0.75,,,,,,,,,,,,,,,,,,,,,,,,,,,,,,,,,,,,,,,,,,,,,
,,,,,V3_022,22,Female,2024-10-17_17h15.41.874,jersey_experiment_5_v3,2023.2.2,Win32,84.74576271,,,,,,,,,,,,,,,,163.8507,165.4037,165.4037,167.8978,return,1.6034,,70.57291667,0,30,30,3,1,FBP-YG-71.png,0.43,1.2,4,0.75,,,,,,,,,,,,,,,,,,,,,,,,,,,,,,,,,,,,,,,,,,,,,
,,,,,V3_022,22,Female,2024-10-17_17h15.41.874,jersey_experiment_5_v3,2023.2.2,Win32,84.74576271,,,,,,,,,,,,,,,,167.8979,169.4391,169.4391,170.5333,return,0.1812,,84.11458333,0,31,31,59,1,FBP-RB-19.png,0.45,1.2,60,0.75,,,,,,,,,,,,,,,,,,,,,,,,,,,,,,,,,,,,,,,,,,,,,
,,,,,V3_022,22,Female,2024-10-17_17h15.41.874,jersey_experiment_5_v3,2023.2.2,Win32,84.74576271,,,,,,,,,,,,,,,,170.5334,171.8275,171.8275,173.0156,return,0.1818,,57.421875,0,32,32,41,1,FBP-OG-19.png,0.37,1.2,42,0.5,,,,,,,,,,,,,,,,,,,,,,,,,,,,,,,,,,,,,,,,,,,,,
,,,,,V3_022,22,Female,2024-10-17_17h15.41.874,jersey_experiment_5_v3,2023.2.2,Win32,84.74576271,,,,,,,,,,,,,,,,173.0158,174.5571,174.5571,176.0275,return,0.5098,,84.765625,0,33,33,9,1,FBP-YG-81.png,0.45,1.2,10,0.75,,,,,,,,,,,,,,,,,,,,,,,,,,,,,,,,,,,,,,,,,,,,,
,,,,,V3_022,22,Female,2024-10-17_17h15.41.874,jersey_experiment_5_v3,2023.2.2,Win32,84.74576271,,,,,,,,,,,,,,,,176.0277,177.5807,177.5808,179.5455,return,0.2005,,33.85416667,0,34,34,11,1,FBP-YG-91.png,0.37,1.2,12,0.75,,,,,,,,,,,,,,,,,,,,,,,,,,,,,,,,,,,,,,,,,,,,,
,,,,,V3_022,22,Female,2024-10-17_17h15.41.874,jersey_experiment_5_v3,2023.2.2,Win32,84.74576271,,,,,,,,,,,,,,,,179.5457,181.0982,181.0983,183.5102,return,0.4657,,58.07291667,0,35,35,27,1,FBP-PT-19.png,0.4,1.2,28,0.75,,,,,,,,,,,,,,,,,,,,,,,,,,,,,,,,,,,,,,,,,,,,,
,,,,,V3_022,22,Female,2024-10-17_17h15.41.874,jersey_experiment_5_v3,2023.2.2,Win32,84.74576271,,,,,,,,,,,,,,,,183.5104,185.0632,185.0632,186.569,return,0.651,,39.0625,0,36,36,10,1,FBP-YG-91.png,0.35,1.2,11,0.75,,,,,,,,,,,,,,,,,,,,,,,,,,,,,,,,,,,,,,,,,,,,,
,,,,,V3_022,22,Female,2024-10-17_17h15.41.874,jersey_experiment_5_v3,2023.2.2,Win32,84.74576271,,,,,,,,,,,,,,,,186.5691,188.1104,188.1104,189.9103,return,0.8181,,61.328125,0,37,37,12,1,FBP-YG-91.png,0.4,1.2,13,0.75,,,,,,,,,,,,,,,,,,,,,,,,,,,,,,,,,,,,,,,,,,,,,
,,,,,V3_022,22,Female,2024-10-17_17h15.41.874,jersey_experiment_5_v3,2023.2.2,Win32,84.74576271,,,,,,,,,,,,,,,,189.9105,191.4634,191.4635,192.1576,return,0.2119,,67.1875,0,38,38,23,1,FBP-PT-18.png,0.43,1.2,24,0.75,,,,,,,,,,,,,,,,,,,,,,,,,,,,,,,,,,,,,,,,,,,,,
,,,,,V3_022,22,Female,2024-10-17_17h15.41.874,jersey_experiment_5_v3,2023.2.2,Win32,84.74576271,,,,,,,,,,,,,,,,192.1578,193.7107,193.7107,194.7811,return,0.0727,,81.25,0,39,39,29,1,FBP-PT-19.png,0.45,1.2,30,0.75,,,,,,,,,,,,,,,,,,,,,,,,,,,,,,,,,,,,,,,,,,,,,
,,,,,V3_022,22,Female,2024-10-17_17h15.41.874,jersey_experiment_5_v3,2023.2.2,Win32,84.74576271,,,,,,,,,,,,,,,,194.7814,196.3343,196.3343,197.4166,return,0.181,,44.140625,0,40,40,46,1,FBP-RB-17.png,0.37,1.2,47,0.75,,,,,,,,,,,,,,,,,,,,,,,,,,,,,,,,,,,,,,,,,,,,,
,,,,,V3_022,22,Female,2024-10-17_17h15.41.874,jersey_experiment_5_v3,2023.2.2,Win32,84.74576271,,,,,,,,,,,,,,,,197.4167,198.9697,198.9697,200.9226,return,1.0352,,63.02083333,0,41,41,7,1,FBP-YG-81.png,0.4,1.2,8,0.75,,,,,,,,,,,,,,,,,,,,,,,,,,,,,,,,,,,,,,,,,,,,,
,,,,,V3_022,22,Female,2024-10-17_17h15.41.874,jersey_experiment_5_v3,2023.2.2,Win32,84.74576271,,,,,,,,,,,,,,,,200.9229,202.4755,202.4756,203.4991,return,0.2609,,31.77083333,0,42,42,50,1,FBP-RB-18.png,0.35,1.2,51,0.75,,,,,,,,,,,,,,,,,,,,,,,,,,,,,,,,,,,,,,,,,,,,,
,,,,,V3_022,22,Female,2024-10-17_17h15.41.874,jersey_experiment_5_v3,2023.2.2,Win32,84.74576271,,,,,,,,,,,,,,,,203.4995,205.0521,205.0521,206.3463,return,0.2852,,77.86458333,0,43,43,19,1,FBP-PT-17.png,0.45,1.2,20,0.75,,,,,,,,,,,,,,,,,,,,,,,,,,,,,,,,,,,,,,,,,,,,,
,,,,,V3_022,22,Female,2024-10-17_17h15.41.874,jersey_experiment_5_v3,2023.2.2,Win32,84.74576271,,,,,,,,,,,,,,,,206.3465,207.8992,207.8992,208.4404,return,0.1454,,82.29166667,0,44,44,24,1,FBP-PT-18.png,0.45,1.2,25,0.75,,,,,,,,,,,,,,,,,,,,,,,,,,,,,,,,,,,,,,,,,,,,,
,,,,,V3_022,22,Female,2024-10-17_17h15.41.874,jersey_experiment_5_v3,2023.2.2,Win32,84.74576271,,,,,,,,,,,,,,,,208.4406,209.9935,209.9935,211.4289,return,0.2196,,35.15625,0,45,45,6,1,FBP-YG-81.png,0.37,1.2,7,0.75,,,,,,,,,,,,,,,,,,,,,,,,,,,,,,,,,,,,,,,,,,,,,
,,,,,V3_022,22,Female,2024-10-17_17h15.41.874,jersey_experiment_5_v3,2023.2.2,Win32,84.74576271,,,,,,,,,,,,,,,,211.4293,212.9816,212.9817,215.5114,return,1.604,,65.625,0,46,46,58,1,FBP-RB-19.png,0.43,1.2,59,0.75,,,,,,,,,,,,,,,,,,,,,,,,,,,,,,,,,,,,,,,,,,,,,
,,,,,V3_022,22,Female,2024-10-17_17h15.41.874,jersey_experiment_5_v3,2023.2.2,Win32,84.74576271,,,,,,,,,,,,,,,,215.5116,216.8055,216.8056,217.7232,return,0.2254,,65.625,0,47,47,33,1,FBP-OG-17.png,0.43,1.2,34,0.5,,,,,,,,,,,,,,,,,,,,,,,,,,,,,,,,,,,,,,,,,,,,,
,,,,,V3_022,22,Female,2024-10-17_17h15.41.874,jersey_experiment_5_v3,2023.2.2,Win32,84.74576271,,,,,,,,,,,,,,,,217.7235,219.276,219.276,219.9821,return,0.1651,,61.45833333,0,48,48,57,1,FBP-RB-19.png,0.4,1.2,58,0.75,,,,,,,,,,,,,,,,,,,,,,,,,,,,,,,,,,,,,,,,,,,,,
,,,,,V3_022,22,Female,2024-10-17_17h15.41.874,jersey_experiment_5_v3,2023.2.2,Win32,84.74576271,,,,,,,,,,,,,,,,219.9824,221.5352,221.5352,222.5234,return,0.1103,,82.8125,0,49,49,54,1,FBP-RB-18.png,0.45,1.2,55,0.75,,,,,,,,,,,,,,,,,,,,,,,,,,,,,,,,,,,,,,,,,,,,,
,,,,,V3_022,22,Female,2024-10-17_17h15.41.874,jersey_experiment_5_v3,2023.2.2,Win32,84.74576271,,,,,,,,,,,,,,,,222.5236,224.0763,224.0764,225.7706,return,0.2976,,76.30208333,0,50,50,8,1,FBP-YG-81.png,0.43,1.2,9,0.75,,,,,,,,,,,,,,,,,,,,,,,,,,,,,,,,,,,,,,,,,,,,,
,,,,,V3_022,22,Female,2024-10-17_17h15.41.874,jersey_experiment_5_v3,2023.2.2,Win32,84.74576271,,,,,,,,,,,,,,,,225.7709,227.3237,227.3238,229.1824,return,1.0108,,30.59895833,0,51,51,26,1,FBP-PT-19.png,0.37,1.2,27,0.75,,,,,,,,,,,,,,,,,,,,,,,,,,,,,,,,,,,,,,,,,,,,,
,,,,,V3_022,22,Female,2024-10-17_17h15.41.874,jersey_experiment_5_v3,2023.2.2,Win32,84.74576271,,,,,,,,,,,,,,,,229.1827,230.4767,230.4768,231.6295,return,0.1406,,12.63020833,0,52,52,35,1,FBP-OG-18.png,0.35,1.2,36,0.5,,,,,,,,,,,,,,,,,,,,,,,,,,,,,,,,,,,,,,,,,,,,,
,,,,,V3_022,22,Female,2024-10-17_17h15.41.874,jersey_experiment_5_v3,2023.2.2,Win32,84.74576271,,,,,,,,,,,,,,,,231.6298,233.1829,233.1829,234.1002,return,0.1383,,28.90625,0,53,53,1,1,FBP-YG-71.png,0.37,1.2,2,0.75,,,,,,,,,,,,,,,,,,,,,,,,,,,,,,,,,,,,,,,,,,,,,
,,,,,V3_022,22,Female,2024-10-17_17h15.41.874,jersey_experiment_5_v3,2023.2.2,Win32,84.74576271,,,,,,,,,,,,,,,,234.1005,235.6534,235.6535,236.4298,return,0.2278,,24.47916667,0,54,54,15,1,FBP-PT-17.png,0.35,1.2,16,0.75,,,,,,,,,,,,,,,,,,,,,,,,,,,,,,,,,,,,,,,,,,,,,
,,,,,V3_022,22,Female,2024-10-17_17h15.41.874,jersey_experiment_5_v3,2023.2.2,Win32,84.74576271,,,,,,,,,,,,,,,,236.43,237.7239,237.7239,238.9003,return,0.1461,,33.59375,0,55,55,36,1,FBP-OG-18.png,0.37,1.2,37,0.5,,,,,,,,,,,,,,,,,,,,,,,,,,,,,,,,,,,,,,,,,,,,,
,,,,,V3_022,22,Female,2024-10-17_17h15.41.874,jersey_experiment_5_v3,2023.2.2,Win32,84.74576271,,,,,,,,,,,,,,,,238.9006,240.1947,240.1947,241.8064,return,0.6693,,69.921875,0,56,56,44,1,FBP-OG-19.png,0.45,1.2,45,0.5,,,,,,,,,,,,,,,,,,,,,,,,,,,,,,,,,,,,,,,,,,,,,
,,,,,V3_022,22,Female,2024-10-17_17h15.41.874,jersey_experiment_5_v3,2023.2.2,Win32,84.74576271,,,,,,,,,,,,,,,,241.8066,243.3478,243.3478,244.4418,return,0.2855,,59.24479167,0,57,57,48,1,FBP-RB-17.png,0.43,1.2,49,0.75,,,,,,,,,,,,,,,,,,,,,,,,,,,,,,,,,,,,,,,,,,,,,
,,,,,V3_022,22,Female,2024-10-17_17h15.41.874,jersey_experiment_5_v3,2023.2.2,Win32,84.74576271,,,,,,,,,,,,,,,,244.4421,245.9949,245.995,246.8419,return,0.1521,,42.31770833,0,58,58,51,1,FBP-RB-18.png,0.37,1.2,52,0.75,,,,,,,,,,,,,,,,,,,,,,,,,,,,,,,,,,,,,,,,,,,,,
,,,,,V3_022,22,Female,2024-10-17_17h15.41.874,jersey_experiment_5_v3,2023.2.2,Win32,84.74576271,,,,,,,,,,,,,,,,246.8422,248.3948,248.3948,249.4655,return,0.2582,,60.28645833,0,59,59,13,1,FBP-YG-91.png,0.43,1.2,14,0.75,,,,,,,,,,,,,,,,,,,,,,,,,,,,,,,,,,,,,,,,,,,,,
,,,,,V3_022,22,Female,2024-10-17_17h15.41.874,jersey_experiment_5_v3,2023.2.2,Win32,84.74576271,,,,,,,,,,,,,,,,249.4669,251.0187,251.0187,252.4773,return,0.1201,,73.4375,,,,,,FBP-YG-18.png,0.45,1.2,10,0.75,0,0,0,9,1,,,,,,,,,,,,,,,,,,,,,,,,,,,,,,,,,,,,,,,,
,,,,,V3_022,22,Female,2024-10-17_17h15.41.874,jersey_experiment_5_v3,2023.2.2,Win32,84.74576271,,,,,,,,,,,,,,,,252.4775,253.7715,253.7716,255.0775,return,0.1484,,57.8125,,,,,,FBP-OG-81.png,0.43,1.2,39,0.5,0,1,1,38,1,,,,,,,,,,,,,,,,,,,,,,,,,,,,,,,,,,,,,,,,
,,,,,V3_022,22,Female,2024-10-17_17h15.41.874,jersey_experiment_5_v3,2023.2.2,Win32,84.74576271,,,,,,,,,,,,,,,,255.0776,256.3717,256.3717,258.207,return,1.3522,,37.36979167,,,,,,FBP-OG-91.png,0.4,1.2,43,0.5,0,2,2,42,1,,,,,,,,,,,,,,,,,,,,,,,,,,,,,,,,,,,,,,,,
,,,,,V3_022,22,Female,2024-10-17_17h15.41.874,jersey_experiment_5_v3,2023.2.2,Win32,84.74576271,,,,,,,,,,,,,,,,258.2073,259.5011,259.5012,260.7836,return,0.4728,,59.24479167,,,,,,FBP-OG-91.png,0.43,1.2,44,0.5,0,3,3,43,1,,,,,,,,,,,,,,,,,,,,,,,,,,,,,,,,,,,,,,,,
,,,,,V3_022,22,Female,2024-10-17_17h15.41.874,jersey_experiment_5_v3,2023.2.2,Win32,84.74576271,,,,,,,,,,,,,,,,260.7838,262.3366,262.3366,264.3484,return,0.1887,,56.640625,,,,,,FBP-YG-17.png,0.45,1.2,5,0.75,0,4,4,4,1,,,,,,,,,,,,,,,,,,,,,,,,,,,,,,,,,,,,,,,,
,,,,,V3_022,22,Female,2024-10-17_17h15.41.874,jersey_experiment_5_v3,2023.2.2,Win32,84.74576271,,,,,,,,,,,,,,,,264.3486,265.6425,265.6425,266.6308,return,0.2179,,39.0625,,,,,,FBP-OG-91.png,0.37,1.2,42,0.5,0,5,5,41,1,,,,,,,,,,,,,,,,,,,,,,,,,,,,,,,,,,,,,,,,
,,,,,V3_022,22,Female,2024-10-17_17h15.41.874,jersey_experiment_5_v3,2023.2.2,Win32,84.74576271,,,,,,,,,,,,,,,,266.631,268.1838,268.1839,269.1603,return,0.087,,75.26041667,,,,,,FBP-PT-91.png,0.45,1.2,30,0.75,0,6,6,29,1,,,,,,,,,,,,,,,,,,,,,,,,,,,,,,,,,,,,,,,,
,,,,,V3_022,22,Female,2024-10-17_17h15.41.874,jersey_experiment_5_v3,2023.2.2,Win32,84.74576271,,,,,,,,,,,,,,,,269.1605,270.7137,270.7137,273.6782,return,0.9863,,58.85416667,,,,,,FBP-RB-91.png,0.37,1.2,57,0.75,0,7,7,56,1,,,,,,,,,,,,,,,,,,,,,,,,,,,,,,,,,,,,,,,,
,,,,,V3_022,22,Female,2024-10-17_17h15.41.874,jersey_experiment_5_v3,2023.2.2,Win32,84.74576271,,,,,,,,,,,,,,,,273.6785,275.2312,275.2313,276.6195,return,0.1789,,31.90104167,,,,,,FBP-PT-81.png,0.35,1.2,21,0.75,0,8,8,20,1,,,,,,,,,,,,,,,,,,,,,,,,,,,,,,,,,,,,,,,,
,,,,,V3_022,22,Female,2024-10-17_17h15.41.874,jersey_experiment_5_v3,2023.2.2,Win32,84.74576271,,,,,,,,,,,,,,,,276.6197,278.1727,278.1727,280.8313,return,1.7439,,46.22395833,,,,,,FBP-YG-19.png,0.43,1.2,14,0.75,0,9,9,13,1,,,,,,,,,,,,,,,,,,,,,,,,,,,,,,,,,,,,,,,,
,,,,,V3_022,22,Female,2024-10-17_17h15.41.874,jersey_experiment_5_v3,2023.2.2,Win32,84.74576271,,,,,,,,,,,,,,,,280.8317,282.3843,282.3843,283.655,return,0.17,,44.53125,,,,,,FBP-YG-19.png,0.4,1.2,13,0.75,0,10,10,12,1,,,,,,,,,,,,,,,,,,,,,,,,,,,,,,,,,,,,,,,,
,,,,,V3_022,22,Female,2024-10-17_17h15.41.874,jersey_experiment_5_v3,2023.2.2,Win32,84.74576271,,,,,,,,,,,,,,,,283.6551,285.208,285.208,285.9022,return,0.1647,,40.88541667,,,,,,FBP-RB-71.png,0.35,1.2,46,0.75,0,11,11,45,1,,,,,,,,,,,,,,,,,,,,,,,,,,,,,,,,,,,,,,,,
,,,,,V3_022,22,Female,2024-10-17_17h15.41.874,jersey_experiment_5_v3,2023.2.2,Win32,84.74576271,,,,,,,,,,,,,,,,285.9024,287.455,287.4551,288.5375,return,0.7906,,41.27604167,,,,,,FBP-RB-91.png,0.35,1.2,56,0.75,0,12,12,55,1,,,,,,,,,,,,,,,,,,,,,,,,,,,,,,,,,,,,,,,,
,,,,,V3_022,22,Female,2024-10-17_17h15.41.874,jersey_experiment_5_v3,2023.2.2,Win32,84.74576271,,,,,,,,,,,,,,,,288.5379,290.0904,290.0905,291.6553,return,0.5118,,76.171875,,,,,,FBP-YG-17.png,0.43,1.2,4,0.75,0,13,13,3,1,,,,,,,,,,,,,,,,,,,,,,,,,,,,,,,,,,,,,,,,
,,,,,V3_022,22,Female,2024-10-17_17h15.41.874,jersey_experiment_5_v3,2023.2.2,Win32,84.74576271,,,,,,,,,,,,,,,,291.6555,293.2082,293.2083,296.5967,return,2.2632,,72.65625,,,,,,FBP-RB-91.png,0.43,1.2,59,0.75,0,14,14,58,1,,,,,,,,,,,,,,,,,,,,,,,,,,,,,,,,,,,,,,,,
,,,,,V3_022,22,Female,2024-10-17_17h15.41.874,jersey_experiment_5_v3,2023.2.2,Win32,84.74576271,,,,,,,,,,,,,,,,296.597,298.1497,298.1497,299.1966,return,0.1887,,42.44791667,,,,,,FBP-PT-71.png,0.37,1.2,17,0.75,0,15,15,16,1,,,,,,,,,,,,,,,,,,,,,,,,,,,,,,,,,,,,,,,,
,,,,,V3_022,22,Female,2024-10-17_17h15.41.874,jersey_experiment_5_v3,2023.2.2,Win32,84.74576271,,,,,,,,,,,,,,,,299.1969,300.7496,300.7496,304.0087,return,0.6512,,70.83333333,,,,,,FBP-RB-81.png,0.43,1.2,54,0.75,0,16,16,53,1,,,,,,,,,,,,,,,,,,,,,,,,,,,,,,,,,,,,,,,,
,,,,,V3_022,22,Female,2024-10-17_17h15.41.874,jersey_experiment_5_v3,2023.2.2,Win32,84.74576271,,,,,,,,,,,,,,,,304.009,305.3027,305.3027,308.5853,return,1.7762,,68.88020833,,,,,,FBP-OG-71.png,0.43,1.2,34,0.5,0,17,17,33,1,,,,,,,,,,,,,,,,,,,,,,,,,,,,,,,,,,,,,,,,
,,,,,V3_022,22,Female,2024-10-17_17h15.41.874,jersey_experiment_5_v3,2023.2.2,Win32,84.74576271,,,,,,,,,,,,,,,,308.5856,310.1383,310.1385,311.9502,return,1.2102,,38.93229167,,,,,,FBP-YG-17.png,0.37,1.2,2,0.75,0,18,18,1,1,,,,,,,,,,,,,,,,,,,,,,,,,,,,,,,,,,,,,,,,
,,,,,V3_022,22,Female,2024-10-17_17h15.41.874,jersey_experiment_5_v3,2023.2.2,Win32,84.74576271,,,,,,,,,,,,,,,,311.9505,313.5031,313.5032,317.115,return,0.6491,,59.63541667,,,,,,FBP-PT-81.png,0.45,1.2,25,0.75,0,19,19,24,1,,,,,,,,,,,,,,,,,,,,,,,,,,,,,,,,,,,,,,,,
,,,,,V3_022,22,Female,2024-10-17_17h15.41.874,jersey_experiment_5_v3,2023.2.2,Win32,84.74576271,,,,,,,,,,,,,,,,317.1153,318.6682,318.6682,321.5505,return,1.9155,,32.8125,,,,,,FBP-PT-81.png,0.37,1.2,22,0.75,0,20,20,21,1,,,,,,,,,,,,,,,,,,,,,,,,,,,,,,,,,,,,,,,,
,,,,,V3_022,22,Female,2024-10-17_17h15.41.874,jersey_experiment_5_v3,2023.2.2,Win32,84.74576271,,,,,,,,,,,,,,,,321.5508,323.1034,323.1036,325.9977,return,1.4355,,32.8125,,,,,,FBP-PT-91.png,0.4,1.2,28,0.75,0,21,21,27,1,,,,,,,,,,,,,,,,,,,,,,,,,,,,,,,,,,,,,,,,
,,,,,V3_022,22,Female,2024-10-17_17h15.41.874,jersey_experiment_5_v3,2023.2.2,Win32,84.74576271,,,,,,,,,,,,,,,,325.998,327.5391,327.5391,329.2567,return,0.9334,,73.56770833,,,,,,FBP-PT-71.png,0.43,1.2,19,0.75,0,22,22,18,1,,,,,,,,,,,,,,,,,,,,,,,,,,,,,,,,,,,,,,,,
,,,,,V3_022,22,Female,2024-10-17_17h15.41.874,jersey_experiment_5_v3,2023.2.2,Win32,84.74576271,,,,,,,,,,,,,,,,329.2568,330.7981,330.7982,332.0214,return,0.394,,36.19791667,,,,,,FBP-RB-81.png,0.35,1.2,51,0.75,0,23,23,50,1,,,,,,,,,,,,,,,,,,,,,,,,,,,,,,,,,,,,,,,,
,,,,,V3_022,22,Female,2024-10-17_17h15.41.874,jersey_experiment_5_v3,2023.2.2,Win32,84.74576271,,,,,,,,,,,,,,,,332.0217,333.5745,333.5745,334.7157,return,0.6376,,36.45833333,,,,,,FBP-YG-18.png,0.35,1.2,6,0.75,0,24,24,5,1,,,,,,,,,,,,,,,,,,,,,,,,,,,,,,,,,,,,,,,,
,,,,,V3_022,22,Female,2024-10-17_17h15.41.874,jersey_experiment_5_v3,2023.2.2,Win32,84.74576271,,,,,,,,,,,,,,,,334.716,336.2686,336.2687,337.8687,return,0.4838,,37.76041667,,,,,,FBP-RB-81.png,0.37,1.2,52,0.75,0,25,25,51,1,,,,,,,,,,,,,,,,,,,,,,,,,,,,,,,,,,,,,,,,
,,,,,V3_022,22,Female,2024-10-17_17h15.41.874,jersey_experiment_5_v3,2023.2.2,Win32,84.74576271,,,,,,,,,,,,,,,,337.869,339.4218,339.4219,341.5159,return,0.9877,,41.40625,,,,,,FBP-PT-71.png,0.35,1.2,16,0.75,0,26,26,15,1,,,,,,,,,,,,,,,,,,,,,,,,,,,,,,,,,,,,,,,,
,,,,,V3_022,22,Female,2024-10-17_17h15.41.874,jersey_experiment_5_v3,2023.2.2,Win32,84.74576271,,,,,,,,,,,,,,,,341.5161,342.81,342.8101,344.6219,return,0.4239,,75.52083333,,,,,,FBP-OG-91.png,0.45,1.2,45,0.5,0,27,27,44,1,,,,,,,,,,,,,,,,,,,,,,,,,,,,,,,,,,,,,,,,
,,,,,V3_022,22,Female,2024-10-17_17h15.41.874,jersey_experiment_5_v3,2023.2.2,Win32,84.74576271,,,,,,,,,,,,,,,,344.6222,346.1749,346.175,347.6926,return,0.4942,,39.32291667,,,,,,FBP-YG-18.png,0.37,1.2,7,0.75,0,28,28,6,1,,,,,,,,,,,,,,,,,,,,,,,,,,,,,,,,,,,,,,,,
,,,,,V3_022,22,Female,2024-10-17_17h15.41.874,jersey_experiment_5_v3,2023.2.2,Win32,84.74576271,,,,,,,,,,,,,,,,347.6929,348.9868,348.9869,350.9044,return,0.6514,,37.23958333,,,,,,FBP-OG-71.png,0.35,1.2,31,0.5,0,29,29,30,1,,,,,,,,,,,,,,,,,,,,,,,,,,,,,,,,,,,,,,,,
,,,,,V3_022,22,Female,2024-10-17_17h15.41.874,jersey_experiment_5_v3,2023.2.2,Win32,84.74576271,,,,,,,,,,,,,,,,350.9047,352.4574,352.4575,354.1752,return,0.6495,,33.59375,,,,,,FBP-YG-19.png,0.35,1.2,11,0.75,0,30,30,10,1,,,,,,,,,,,,,,,,,,,,,,,,,,,,,,,,,,,,,,,,
,,,,,V3_022,22,Female,2024-10-17_17h15.41.874,jersey_experiment_5_v3,2023.2.2,Win32,84.74576271,,,,,,,,,,,,,,,,354.1755,355.7281,355.7281,357.2577,return,0.448,,61.97916667,,,,,,FBP-YG-17.png,0.4,1.2,3,0.75,0,31,31,2,1,,,,,,,,,,,,,,,,,,,,,,,,,,,,,,,,,,,,,,,,
,,,,,V3_022,22,Female,2024-10-17_17h15.41.874,jersey_experiment_5_v3,2023.2.2,Win32,84.74576271,,,,,,,,,,,,,,,,357.2578,358.5519,358.5519,361.199,return,1.4457,,61.328125,,,,,,FBP-OG-71.png,0.4,1.2,33,0.5,0,32,32,32,1,,,,,,,,,,,,,,,,,,,,,,,,,,,,,,,,,,,,,,,,
,,,,,V3_022,22,Female,2024-10-17_17h15.41.874,jersey_experiment_5_v3,2023.2.2,Win32,84.74576271,,,,,,,,,,,,,,,,361.1992,362.7521,362.7521,365.305,return,1.4275,,36.84895833,,,,,,FBP-YG-17.png,0.35,1.2,1,0.75,0,33,33,0,1,,,,,,,,,,,,,,,,,,,,,,,,,,,,,,,,,,,,,,,,
,,,,,V3_022,22,Female,2024-10-17_17h15.41.874,jersey_experiment_5_v3,2023.2.2,Win32,84.74576271,,,,,,,,,,,,,,,,365.3052,366.5993,366.5993,368.9875,return,1.2016,,40.10416667,,,,,,FBP-OG-81.png,0.37,1.2,37,0.5,0,34,34,36,1,,,,,,,,,,,,,,,,,,,,,,,,,,,,,,,,,,,,,,,,
,,,,,V3_022,22,Female,2024-10-17_17h15.41.874,jersey_experiment_5_v3,2023.2.2,Win32,84.74576271,,,,,,,,,,,,,,,,368.9877,370.5405,370.5405,371.8228,return,0.4486,,59.11458333,,,,,,FBP-RB-71.png,0.37,1.2,47,0.75,0,35,35,46,1,,,,,,,,,,,,,,,,,,,,,,,,,,,,,,,,,,,,,,,,
,,,,,V3_022,22,Female,2024-10-17_17h15.41.874,jersey_experiment_5_v3,2023.2.2,Win32,84.74576271,,,,,,,,,,,,,,,,371.8232,373.3759,373.3759,374.9406,return,0.4557,,70.3125,,,,,,FBP-PT-81.png,0.43,1.2,24,0.75,0,36,36,23,1,,,,,,,,,,,,,,,,,,,,,,,,,,,,,,,,,,,,,,,,
,,,,,V3_022,22,Female,2024-10-17_17h15.41.874,jersey_experiment_5_v3,2023.2.2,Win32,84.74576271,,,,,,,,,,,,,,,,374.9408,376.4936,376.4937,379.0232,return,1.2001,,82.68229167,,,,,,FBP-RB-91.png,0.45,1.2,60,0.75,0,37,37,59,1,,,,,,,,,,,,,,,,,,,,,,,,,,,,,,,,,,,,,,,,
,,,,,V3_022,22,Female,2024-10-17_17h15.41.874,jersey_experiment_5_v3,2023.2.2,Win32,84.74576271,,,,,,,,,,,,,,,,379.0233,380.3174,380.3175,382.0116,return,0.6115,,82.68229167,,,,,,FBP-OG-81.png,0.45,1.2,40,0.5,0,38,38,39,1,,,,,,,,,,,,,,,,,,,,,,,,,,,,,,,,,,,,,,,,
,,,,,V3_022,22,Female,2024-10-17_17h15.41.874,jersey_experiment_5_v3,2023.2.2,Win32,84.74576271,,,,,,,,,,,,,,,,382.0118,383.3058,383.3058,385.7646,return,0.5261,,82.68229167,,,,,,FBP-OG-71.png,0.45,1.2,35,0.5,0,39,39,34,1,,,,,,,,,,,,,,,,,,,,,,,,,,,,,,,,,,,,,,,,
,,,,,V3_022,22,Female,2024-10-17_17h15.41.874,jersey_experiment_5_v3,2023.2.2,Win32,84.74576271,,,,,,,,,,,,,,,,385.7649,387.0588,387.0589,389.5765,return,0.6869,,71.35416667,,,,,,FBP-OG-71.png,0.37,1.2,32,0.5,0,40,40,31,1,,,,,,,,,,,,,,,,,,,,,,,,,,,,,,,,,,,,,,,,
,,,,,V3_022,22,Female,2024-10-17_17h15.41.874,jersey_experiment_5_v3,2023.2.2,Win32,84.74576271,,,,,,,,,,,,,,,,389.5768,391.1296,391.1296,393.0119,return,0.5346,,39.97395833,,,,,,FBP-PT-71.png,0.4,1.2,18,0.75,0,41,41,17,1,,,,,,,,,,,,,,,,,,,,,,,,,,,,,,,,,,,,,,,,
,,,,,V3_022,22,Female,2024-10-17_17h15.41.874,jersey_experiment_5_v3,2023.2.2,Win32,84.74576271,,,,,,,,,,,,,,,,393.0121,394.565,394.565,396.6004,return,0.5812,,75.26041667,,,,,,FBP-YG-18.png,0.4,1.2,8,0.75,0,42,42,7,1,,,,,,,,,,,,,,,,,,,,,,,,,,,,,,,,,,,,,,,,
,,,,,V3_022,22,Female,2024-10-17_17h15.41.874,jersey_experiment_5_v3,2023.2.2,Win32,84.74576271,,,,,,,,,,,,,,,,396.6007,398.1533,398.1534,400.7769,return,0.6159,,69.66145833,,,,,,FBP-YG-19.png,0.37,1.2,12,0.75,0,43,43,11,1,,,,,,,,,,,,,,,,,,,,,,,,,,,,,,,,,,,,,,,,
,,,,,V3_022,22,Female,2024-10-17_17h15.41.874,jersey_experiment_5_v3,2023.2.2,Win32,84.74576271,,,,,,,,,,,,,,,,400.7773,402.33,402.33,403.7182,return,0.5479,,64.58333333,,,,,,FBP-RB-81.png,0.4,1.2,53,0.75,0,44,44,52,1,,,,,,,,,,,,,,,,,,,,,,,,,,,,,,,,,,,,,,,,
,,,,,V3_022,22,Female,2024-10-17_17h15.41.874,jersey_experiment_5_v3,2023.2.2,Win32,84.74576271,,,,,,,,,,,,,,,,403.7187,405.2712,405.2713,406.1419,return,0.4707,,64.58333333,,,,,,FBP-PT-81.png,0.4,1.2,23,0.75,0,45,45,22,1,,,,,,,,,,,,,,,,,,,,,,,,,,,,,,,,,,,,,,,,
,,,,,V3_022,22,Female,2024-10-17_17h15.41.874,jersey_experiment_5_v3,2023.2.2,Win32,84.74576271,,,,,,,,,,,,,,,,406.1421,407.6948,407.6948,409.342,return,0.5176,,71.61458333,,,,,,FBP-RB-71.png,0.43,1.2,49,0.75,0,46,46,48,1,,,,,,,,,,,,,,,,,,,,,,,,,,,,,,,,,,,,,,,,
,,,,,V3_022,22,Female,2024-10-17_17h15.41.874,jersey_experiment_5_v3,2023.2.2,Win32,84.74576271,,,,,,,,,,,,,,,,409.3423,410.6362,410.6362,418.107,return,1.9303,,64.84375,,,,,,FBP-OG-81.png,0.4,1.2,38,0.5,0,47,47,37,1,,,,,,,,,,,,,,,,,,,,,,,,,,,,,,,,,,,,,,,,
,,,,,V3_022,22,Female,2024-10-17_17h15.41.874,jersey_experiment_5_v3,2023.2.2,Win32,84.74576271,,,,,,,,,,,,,,,,418.1073,419.6599,419.6599,421.7189,return,0.5472,,64.84375,,,,,,FBP-RB-91.png,0.4,1.2,58,0.75,0,48,48,57,1,,,,,,,,,,,,,,,,,,,,,,,,,,,,,,,,,,,,,,,,
,,,,,V3_022,22,Female,2024-10-17_17h15.41.874,jersey_experiment_5_v3,2023.2.2,Win32,84.74576271,,,,,,,,,,,,,,,,421.7192,423.2719,423.272,425.1307,return,0.7655,,37.109375,,,,,,FBP-PT-91.png,0.35,1.2,26,0.75,0,49,49,25,1,,,,,,,,,,,,,,,,,,,,,,,,,,,,,,,,,,,,,,,,
,,,,,V3_022,22,Female,2024-10-17_17h15.41.874,jersey_experiment_5_v3,2023.2.2,Win32,84.74576271,,,,,,,,,,,,,,,,425.131,426.6838,426.6838,441.4607,return,0.3692,,55.98958333,,,,,,FBP-RB-81.png,0.45,1.2,55,0.75,0,50,50,54,1,,,,,,,,,,,,,,,,,,,,,,,,,,,,,,,,,,,,,,,,
,,,,,V3_022,22,Female,2024-10-17_17h15.41.874,jersey_experiment_5_v3,2023.2.2,Win32,84.74576271,,,,,,,,,,,,,,,,441.461,443.0138,443.0139,448.2963,return,1.297,,85.9375,,,,,,FBP-YG-18.png,0.43,1.2,9,0.75,0,51,51,8,1,,,,,,,,,,,,,,,,,,,,,,,,,,,,,,,,,,,,,,,,
,,,,,V3_022,22,Female,2024-10-17_17h15.41.874,jersey_experiment_5_v3,2023.2.2,Win32,84.74576271,,,,,,,,,,,,,,,,448.2966,449.8493,449.8494,452.4259,return,1.9091,,82.8125,,,,,,FBP-YG-19.png,0.45,1.2,15,0.75,0,52,52,14,1,,,,,,,,,,,,,,,,,,,,,,,,,,,,,,,,,,,,,,,,
,,,,,V3_022,22,Female,2024-10-17_17h15.41.874,jersey_experiment_5_v3,2023.2.2,Win32,84.74576271,,,,,,,,,,,,,,,,452.426,453.9673,453.9673,454.9907,return,0.3636,,75.390625,,,,,,FBP-RB-71.png,0.4,1.2,48,0.75,0,53,53,47,1,,,,,,,,,,,,,,,,,,,,,,,,,,,,,,,,,,,,,,,,
,,,,,V3_022,22,Female,2024-10-17_17h15.41.874,jersey_experiment_5_v3,2023.2.2,Win32,84.74576271,,,,,,,,,,,,,,,,454.9908,456.532,456.532,458.3673,return,1.1196,,82.8125,,,,,,FBP-RB-71.png,0.45,1.2,50,0.75,0,54,54,49,1,,,,,,,,,,,,,,,,,,,,,,,,,,,,,,,,,,,,,,,,
,,,,,V3_022,22,Female,2024-10-17_17h15.41.874,jersey_experiment_5_v3,2023.2.2,Win32,84.74576271,,,,,,,,,,,,,,,,458.3675,459.6613,459.6614,462.791,return,0.5355,,36.45833333,,,,,,FBP-OG-81.png,0.35,1.2,36,0.5,0,55,55,35,1,,,,,,,,,,,,,,,,,,,,,,,,,,,,,,,,,,,,,,,,
,,,,,V3_022,22,Female,2024-10-17_17h15.41.874,jersey_experiment_5_v3,2023.2.2,Win32,84.74576271,,,,,,,,,,,,,,,,462.7912,464.3441,464.3442,465.991,return,0.6374,,83.33333333,,,,,,FBP-PT-71.png,0.45,1.2,20,0.75,0,56,56,19,1,,,,,,,,,,,,,,,,,,,,,,,,,,,,,,,,,,,,,,,,
,,,,,V3_022,22,Female,2024-10-17_17h15.41.874,jersey_experiment_5_v3,2023.2.2,Win32,84.74576271,,,,,,,,,,,,,,,,465.9913,467.2853,467.2853,468.6617,return,0.4778,,31.11979167,,,,,,FBP-OG-91.png,0.35,1.2,41,0.5,0,57,57,40,1,,,,,,,,,,,,,,,,,,,,,,,,,,,,,,,,,,,,,,,,
,,,,,V3_022,22,Female,2024-10-17_17h15.41.874,jersey_experiment_5_v3,2023.2.2,Win32,84.74576271,,,,,,,,,,,,,,,,468.662,470.2148,470.2148,471.5912,return,0.4174,,33.85416667,,,,,,FBP-PT-91.png,0.37,1.2,27,0.75,0,58,58,26,1,,,,,,,,,,,,,,,,,,,,,,,,,,,,,,,,,,,,,,,,
,,,,,V3_022,22,Female,2024-10-17_17h15.41.874,jersey_experiment_5_v3,2023.2.2,Win32,84.74576271,,,,,,,,,,,,,,,,471.5914,473.1442,473.1443,475.5796,return,0.9507,,83.59375,,,,,,FBP-PT-91.png,0.43,1.2,29,0.75,0,59,59,28,1,,,,,,,,,,,,,,,,,,,,,,,,,,,,,,,,,,,,,,,,
,,,,,V3_022,22,Female,2024-10-17_17h15.41.874,jersey_experiment_5_v3,2023.2.2,Win32,84.74576271,,,,,,,,,,,,,,,,,,,,,,,,,,,,,,,,,,,,,,,475.5798,595.5726,,,,,,,,,,,,,,,,,,,,,,,,,,,,,,,,,,,,,,
,,,,,V3_022,22,Female,2024-10-17_17h15.41.874,jersey_experiment_5_v3,2023.2.2,Win32,84.74576271,,,,,,,,,,,,,,,,,,,,,,,,,,,,,,,,,,,,,,,,,595.5727,628.2208,return,32.6358,,,,,,,,,,,,,,,,,,,,,,,,,,,,,,,,,,
,,,,,V3_022,22,Female,2024-10-17_17h15.41.874,jersey_experiment_5_v3,2023.2.2,Win32,84.74576271,,,,,,,,,,,,,,,,628.2236,629.7735,629.7736,632.9267,return,1.6943,,33.33333333,,,,,,FBP-OG-18.png,0.37,1.2,37,0.75,,,,,,,,,,,,,0,0,0,36,1,,,,,,,,,,,,,,,,,,,,,,,,,,,,
,,,,,V3_022,22,Female,2024-10-17_17h15.41.874,jersey_experiment_5_v3,2023.2.2,Win32,84.74576271,,,,,,,,,,,,,,,,632.9268,634.2208,634.2208,636.1503,return,0.7362,,72.65625,,,,,,FBP-PT-18.png,0.4,1.2,23,0.5,,,,,,,,,,,,,0,1,1,22,1,,,,,,,,,,,,,,,,,,,,,,,,,,,,
,,,,,V3_022,22,Female,2024-10-17_17h15.41.874,jersey_experiment_5_v3,2023.2.2,Win32,84.74576271,,,,,,,,,,,,,,,,636.1505,637.4445,637.4445,638.6797,return,0.6053,,81.90104167,,,,,,FBP-YG-71.png,0.43,1.2,4,0.5,,,,,,,,,,,,,0,2,2,3,1,,,,,,,,,,,,,,,,,,,,,,,,,,,,
,,,,,V3_022,22,Female,2024-10-17_17h15.41.874,jersey_experiment_5_v3,2023.2.2,Win32,84.74576271,,,,,,,,,,,,,,,,638.6798,640.2211,640.2211,642.0917,return,1.0801,,66.015625,,,,,,FBP-OG-19.png,0.4,1.2,43,0.75,,,,,,,,,,,,,0,3,3,42,1,,,,,,,,,,,,,,,,,,,,,,,,,,,,
,,,,,V3_022,22,Female,2024-10-17_17h15.41.874,jersey_experiment_5_v3,2023.2.2,Win32,84.74576271,,,,,,,,,,,,,,,,642.0919,643.3859,643.3859,644.9741,return,0.4944,,35.80729167,,,,,,FBP-PT-17.png,0.35,1.2,16,0.5,,,,,,,,,,,,,0,4,4,15,1,,,,,,,,,,,,,,,,,,,,,,,,,,,,
,,,,,V3_022,22,Female,2024-10-17_17h15.41.874,jersey_experiment_5_v3,2023.2.2,Win32,84.74576271,,,,,,,,,,,,,,,,644.9744,646.2683,646.2683,647.3742,return,0.3607,,35.80729167,,,,,,FBP-RB-19.png,0.37,1.2,57,0.5,,,,,,,,,,,,,0,5,5,56,1,,,,,,,,,,,,,,,,,,,,,,,,,,,,
,,,,,V3_022,22,Female,2024-10-17_17h15.41.874,jersey_experiment_5_v3,2023.2.2,Win32,84.74576271,,,,,,,,,,,,,,,,647.3744,648.6684,648.6684,650.1273,return,0.4473,,35.80729167,,,,,,FBP-RB-19.png,0.35,1.2,56,0.5,,,,,,,,,,,,,0,6,6,55,1,,,,,,,,,,,,,,,,,,,,,,,,,,,,
,,,,,V3_022,22,Female,2024-10-17_17h15.41.874,jersey_experiment_5_v3,2023.2.2,Win32,84.74576271,,,,,,,,,,,,,,,,650.1275,651.4214,651.4214,653.5744,return,0.8746,,58.72395833,,,,,,FBP-YG-71.png,0.37,1.2,2,0.5,,,,,,,,,,,,,0,7,7,1,1,,,,,,,,,,,,,,,,,,,,,,,,,,,,
,,,,,V3_022,22,Female,2024-10-17_17h15.41.874,jersey_experiment_5_v3,2023.2.2,Win32,84.74576271,,,,,,,,,,,,,,,,653.5748,655.1275,655.1276,656.8452,return,0.638,,61.45833333,,,,,,FBP-OG-17.png,0.37,1.2,32,0.75,,,,,,,,,,,,,0,8,8,31,1,,,,,,,,,,,,,,,,,,,,,,,,,,,,
,,,,,V3_022,22,Female,2024-10-17_17h15.41.874,jersey_experiment_5_v3,2023.2.2,Win32,84.74576271,,,,,,,,,,,,,,,,656.8456,658.3983,658.3983,659.8806,return,0.7082,,62.890625,,,,,,FBP-OG-18.png,0.35,1.2,36,0.75,,,,,,,,,,,,,0,9,9,35,1,,,,,,,,,,,,,,,,,,,,,,,,,,,,
,,,,,V3_022,22,Female,2024-10-17_17h15.41.874,jersey_experiment_5_v3,2023.2.2,Win32,84.74576271,,,,,,,,,,,,,,,,659.8808,661.1748,661.1749,662.2336,return,0.4264,,77.60416667,,,,,,FBP-YG-81.png,0.45,1.2,10,0.5,,,,,,,,,,,,,0,10,10,9,1,,,,,,,,,,,,,,,,,,,,,,,,,,,,
,,,,,V3_022,22,Female,2024-10-17_17h15.41.874,jersey_experiment_5_v3,2023.2.2,Win32,84.74576271,,,,,,,,,,,,,,,,662.2338,663.5277,663.5277,665.0924,return,0.5125,,67.31770833,,,,,,FBP-PT-19.png,0.4,1.2,28,0.5,,,,,,,,,,,,,0,11,11,27,1,,,,,,,,,,,,,,,,,,,,,,,,,,,,
,,,,,V3_022,22,Female,2024-10-17_17h15.41.874,jersey_experiment_5_v3,2023.2.2,Win32,84.74576271,,,,,,,,,,,,,,,,665.0927,666.3868,666.3868,667.9162,return,0.4714,,49.47916667,,,,,,FBP-YG-91.png,0.35,1.2,11,0.5,,,,,,,,,,,,,0,12,12,10,1,,,,,,,,,,,,,,,,,,,,,,,,,,,,
,,,,,V3_022,22,Female,2024-10-17_17h15.41.874,jersey_experiment_5_v3,2023.2.2,Win32,84.74576271,,,,,,,,,,,,,,,,667.9164,669.2103,669.2103,670.8222,return,0.5127,,49.609375,,,,,,FBP-YG-91.png,0.37,1.2,12,0.5,,,,,,,,,,,,,0,13,13,11,1,,,,,,,,,,,,,,,,,,,,,,,,,,,,
,,,,,V3_022,22,Female,2024-10-17_17h15.41.874,jersey_experiment_5_v3,2023.2.2,Win32,84.74576271,,,,,,,,,,,,,,,,670.8224,672.3753,672.3754,674.5988,return,1.6531,,81.25,,,,,,FBP-OG-18.png,0.43,1.2,39,0.75,,,,,,,,,,,,,0,14,14,38,1,,,,,,,,,,,,,,,,,,,,,,,,,,,,
,,,,,V3_022,22,Female,2024-10-17_17h15.41.874,jersey_experiment_5_v3,2023.2.2,Win32,84.74576271,,,,,,,,,,,,,,,,674.5991,675.8929,675.8929,678.799,return,0.4942,,50.91145833,,,,,,FBP-RB-18.png,0.37,1.2,52,0.5,,,,,,,,,,,,,0,15,15,51,1,,,,,,,,,,,,,,,,,,,,,,,,,,,,
,,,,,V3_022,22,Female,2024-10-17_17h15.41.874,jersey_experiment_5_v3,2023.2.2,Win32,84.74576271,,,,,,,,,,,,,,,,678.7992,680.3521,680.3522,681.7402,return,0.5547,,84.89583333,,,,,,FBP-OG-17.png,0.45,1.2,35,0.75,,,,,,,,,,,,,0,16,16,34,1,,,,,,,,,,,,,,,,,,,,,,,,,,,,
,,,,,V3_022,22,Female,2024-10-17_17h15.41.874,jersey_experiment_5_v3,2023.2.2,Win32,84.74576271,,,,,,,,,,,,,,,,681.7405,683.0345,683.0345,684.4461,return,0.4386,,84.63541667,,,,,,FBP-RB-18.png,0.45,1.2,55,0.5,,,,,,,,,,,,,0,17,17,54,1,,,,,,,,,,,,,,,,,,,,,,,,,,,,
,,,,,V3_022,22,Female,2024-10-17_17h15.41.874,jersey_experiment_5_v3,2023.2.2,Win32,84.74576271,,,,,,,,,,,,,,,,684.4463,685.7404,685.7404,688.9876,return,1.7159,,24.609375,,,,,,FBP-PT-19.png,0.35,1.2,26,0.5,,,,,,,,,,,,,0,18,18,25,1,,,,,,,,,,,,,,,,,,,,,,,,,,,,
,,,,,V3_022,22,Female,2024-10-17_17h15.41.874,jersey_experiment_5_v3,2023.2.2,Win32,84.74576271,,,,,,,,,,,,,,,,688.9879,690.5406,690.5406,694.4112,return,2.7544,,56.51041667,,,,,,FBP-OG-18.png,0.4,1.2,38,0.75,,,,,,,,,,,,,0,19,19,37,1,,,,,,,,,,,,,,,,,,,,,,,,,,,,
,,,,,V3_022,22,Female,2024-10-17_17h15.41.874,jersey_experiment_5_v3,2023.2.2,Win32,84.74576271,,,,,,,,,,,,,,,,694.4115,695.7054,695.7055,697.482,return,0.8252,,86.06770833,,,,,,FBP-PT-19.png,0.45,1.2,30,0.5,,,,,,,,,,,,,0,20,20,29,1,,,,,,,,,,,,,,,,,,,,,,,,,,,,
,,,,,V3_022,22,Female,2024-10-17_17h15.41.874,jersey_experiment_5_v3,2023.2.2,Win32,84.74576271,,,,,,,,,,,,,,,,697.4822,698.7762,698.7762,700.9055,return,1.0942,,82.8125,,,,,,FBP-RB-17.png,0.43,1.2,49,0.5,,,,,,,,,,,,,0,21,21,48,1,,,,,,,,,,,,,,,,,,,,,,,,,,,,
,,,,,V3_022,22,Female,2024-10-17_17h15.41.874,jersey_experiment_5_v3,2023.2.2,Win32,84.74576271,,,,,,,,,,,,,,,,700.9059,702.1998,702.1998,704.2352,return,0.9335,,76.30208333,,,,,,FBP-RB-19.png,0.4,1.2,58,0.5,,,,,,,,,,,,,0,22,22,57,1,,,,,,,,,,,,,,,,,,,,,,,,,,,,
,,,,,V3_022,22,Female,2024-10-17_17h15.41.874,jersey_experiment_5_v3,2023.2.2,Win32,84.74576271,,,,,,,,,,,,,,,,704.2355,705.7882,705.7882,709.5412,return,2.1959,,85.41666667,,,,,,FBP-OG-19.png,0.45,1.2,45,0.75,,,,,,,,,,,,,0,23,23,44,1,,,,,,,,,,,,,,,,,,,,,,,,,,,,
,,,,,V3_022,22,Female,2024-10-17_17h15.41.874,jersey_experiment_5_v3,2023.2.2,Win32,84.74576271,,,,,,,,,,,,,,,,709.5414,710.8354,710.8355,714.7766,return,0.7089,,50,,,,,,FBP-YG-91.png,0.4,1.2,13,0.5,,,,,,,,,,,,,0,24,24,12,1,,,,,,,,,,,,,,,,,,,,,,,,,,,,
,,,,,V3_022,22,Female,2024-10-17_17h15.41.874,jersey_experiment_5_v3,2023.2.2,Win32,84.74576271,,,,,,,,,,,,,,,,714.7768,716.0711,716.0711,719.2592,return,1.5078,,77.86458333,,,,,,FBP-RB-18.png,0.43,1.2,54,0.5,,,,,,,,,,,,,0,25,25,53,1,,,,,,,,,,,,,,,,,,,,,,,,,,,,
,,,,,V3_022,22,Female,2024-10-17_17h15.41.874,jersey_experiment_5_v3,2023.2.2,Win32,84.74576271,,,,,,,,,,,,,,,,719.2595,720.5535,720.5535,723.1771,return,1.5216,,49.08854167,,,,,,FBP-RB-17.png,0.4,1.2,48,0.5,,,,,,,,,,,,,0,26,26,47,1,,,,,,,,,,,,,,,,,,,,,,,,,,,,
,,,,,V3_022,22,Female,2024-10-17_17h15.41.874,jersey_experiment_5_v3,2023.2.2,Win32,84.74576271,,,,,,,,,,,,,,,,723.1773,724.7303,724.7303,728.2831,return,0.9562,,50.52083333,,,,,,FBP-OG-19.png,0.37,1.2,42,0.75,,,,,,,,,,,,,0,27,27,41,1,,,,,,,,,,,,,,,,,,,,,,,,,,,,
,,,,,V3_022,22,Female,2024-10-17_17h15.41.874,jersey_experiment_5_v3,2023.2.2,Win32,84.74576271,,,,,,,,,,,,,,,,728.2833,729.5773,729.5773,732.5186,return,2.1205,,62.890625,,,,,,FBP-RB-18.png,0.4,1.2,53,0.5,,,,,,,,,,,,,0,28,28,52,1,,,,,,,,,,,,,,,,,,,,,,,,,,,,
,,,,,V3_022,22,Female,2024-10-17_17h15.41.874,jersey_experiment_5_v3,2023.2.2,Win32,84.74576271,,,,,,,,,,,,,,,,732.5189,733.8126,733.8126,739.166,return,4.259,,83.203125,,,,,,FBP-PT-17.png,0.45,1.2,20,0.5,,,,,,,,,,,,,0,29,29,19,1,,,,,,,,,,,,,,,,,,,,,,,,,,,,
,,,,,V3_022,22,Female,2024-10-17_17h15.41.874,jersey_experiment_5_v3,2023.2.2,Win32,84.74576271,,,,,,,,,,,,,,,,739.1664,740.46,740.46,742.3425,return,0.6184,,50.390625,,,,,,FBP-PT-19.png,0.37,1.2,27,0.5,,,,,,,,,,,,,0,30,30,26,1,,,,,,,,,,,,,,,,,,,,,,,,,,,,
,,,,,V3_022,22,Female,2024-10-17_17h15.41.874,jersey_experiment_5_v3,2023.2.2,Win32,84.74576271,,,,,,,,,,,,,,,,742.3429,743.8954,743.8954,746.7778,return,1.5772,,40.49479167,,,,,,FBP-OG-17.png,0.35,1.2,31,0.75,,,,,,,,,,,,,0,31,31,30,1,,,,,,,,,,,,,,,,,,,,,,,,,,,,
,,,,,V3_022,22,Female,2024-10-17_17h15.41.874,jersey_experiment_5_v3,2023.2.2,Win32,84.74576271,,,,,,,,,,,,,,,,746.7781,748.072,748.072,750.5428,return,1.0806,,64.453125,,,,,,FBP-PT-19.png,0.43,1.2,29,0.5,,,,,,,,,,,,,0,32,32,28,1,,,,,,,,,,,,,,,,,,,,,,,,,,,,
,,,,,V3_022,22,Female,2024-10-17_17h15.41.874,jersey_experiment_5_v3,2023.2.2,Win32,84.74576271,,,,,,,,,,,,,,,,750.543,751.837,751.837,753.8487,return,0.8277,,78.38541667,,,,,,FBP-RB-17.png,0.45,1.2,50,0.5,,,,,,,,,,,,,0,33,33,49,1,,,,,,,,,,,,,,,,,,,,,,,,,,,,
,,,,,V3_022,22,Female,2024-10-17_17h15.41.874,jersey_experiment_5_v3,2023.2.2,Win32,84.74576271,,,,,,,,,,,,,,,,753.849,755.1432,755.1432,756.637,return,0.6151,,76.43229167,,,,,,FBP-PT-17.png,0.43,1.2,19,0.5,,,,,,,,,,,,,0,34,34,18,1,,,,,,,,,,,,,,,,,,,,,,,,,,,,
,,,,,V3_022,22,Female,2024-10-17_17h15.41.874,jersey_experiment_5_v3,2023.2.2,Win32,84.74576271,,,,,,,,,,,,,,,,756.6372,757.9313,757.9313,759.1901,return,0.5717,,68.09895833,,,,,,FBP-PT-17.png,0.4,1.2,18,0.5,,,,,,,,,,,,,0,35,35,17,1,,,,,,,,,,,,,,,,,,,,,,,,,,,,
,,,,,V3_022,22,Female,2024-10-17_17h15.41.874,jersey_experiment_5_v3,2023.2.2,Win32,84.74576271,,,,,,,,,,,,,,,,759.1902,760.4845,760.4845,763.5902,return,0.8773,,46.875,,,,,,FBP-RB-17.png,0.37,1.2,47,0.5,,,,,,,,,,,,,0,36,36,46,1,,,,,,,,,,,,,,,,,,,,,,,,,,,,
,,,,,V3_022,22,Female,2024-10-17_17h15.41.874,jersey_experiment_5_v3,2023.2.2,Win32,84.74576271,,,,,,,,,,,,,,,,763.5904,765.1433,765.1433,769.1434,return,0.743,,74.609375,,,,,,FBP-OG-18.png,0.45,1.2,40,0.75,,,,,,,,,,,,,0,37,37,39,1,,,,,,,,,,,,,,,,,,,,,,,,,,,,
,,,,,V3_022,22,Female,2024-10-17_17h15.41.874,jersey_experiment_5_v3,2023.2.2,Win32,84.74576271,,,,,,,,,,,,,,,,769.1435,770.4376,770.4376,772.167,return,0.7943,,74.609375,,,,,,FBP-RB-19.png,0.43,1.2,59,0.5,,,,,,,,,,,,,0,38,38,58,1,,,,,,,,,,,,,,,,,,,,,,,,,,,,
,,,,,V3_022,22,Female,2024-10-17_17h15.41.874,jersey_experiment_5_v3,2023.2.2,Win32,84.74576271,,,,,,,,,,,,,,,,772.1671,773.4613,773.4613,780.5204,return,2.5102,,59.24479167,,,,,,FBP-YG-81.png,0.35,1.2,6,0.5,,,,,,,,,,,,,0,39,39,5,1,,,,,,,,,,,,,,,,,,,,,,,,,,,,
,,,,,V3_022,22,Female,2024-10-17_17h15.41.874,jersey_experiment_5_v3,2023.2.2,Win32,84.74576271,,,,,,,,,,,,,,,,780.5206,781.8146,781.8146,783.3674,return,0.7563,,48.828125,,,,,,FBP-YG-71.png,0.35,1.2,1,0.5,,,,,,,,,,,,,0,40,40,0,1,,,,,,,,,,,,,,,,,,,,,,,,,,,,
,,,,,V3_022,22,Female,2024-10-17_17h15.41.874,jersey_experiment_5_v3,2023.2.2,Win32,84.74576271,,,,,,,,,,,,,,,,783.3675,784.6616,784.6617,786.8382,return,1.0736,,62.76041667,,,,,,FBP-YG-71.png,0.4,1.2,3,0.5,,,,,,,,,,,,,0,41,41,2,1,,,,,,,,,,,,,,,,,,,,,,,,,,,,
,,,,,V3_022,22,Female,2024-10-17_17h15.41.874,jersey_experiment_5_v3,2023.2.2,Win32,84.74576271,,,,,,,,,,,,,,,,786.8385,788.1325,788.1325,789.5324,return,0.721,,67.31770833,,,,,,FBP-YG-91.png,0.43,1.2,14,0.5,,,,,,,,,,,,,0,42,42,13,1,,,,,,,,,,,,,,,,,,,,,,,,,,,,
,,,,,V3_022,22,Female,2024-10-17_17h15.41.874,jersey_experiment_5_v3,2023.2.2,Win32,84.74576271,,,,,,,,,,,,,,,,789.5326,790.8264,790.8265,792.2502,return,0.648,,71.484375,,,,,,FBP-YG-81.png,0.43,1.2,9,0.5,,,,,,,,,,,,,0,43,43,8,1,,,,,,,,,,,,,,,,,,,,,,,,,,,,
,,,,,V3_022,22,Female,2024-10-17_17h15.41.874,jersey_experiment_5_v3,2023.2.2,Win32,84.74576271,,,,,,,,,,,,,,,,792.2505,793.5445,793.5446,795.8385,return,1.0357,,57.55208333,,,,,,FBP-YG-81.png,0.4,1.2,8,0.5,,,,,,,,,,,,,0,44,44,7,1,,,,,,,,,,,,,,,,,,,,,,,,,,,,
,,,,,V3_022,22,Female,2024-10-17_17h15.41.874,jersey_experiment_5_v3,2023.2.2,Win32,84.74576271,,,,,,,,,,,,,,,,795.8386,797.1328,797.1328,798.2975,return,0.4504,,40.625,,,,,,FBP-PT-17.png,0.37,1.2,17,0.5,,,,,,,,,,,,,0,45,45,16,1,,,,,,,,,,,,,,,,,,,,,,,,,,,,
,,,,,V3_022,22,Female,2024-10-17_17h15.41.874,jersey_experiment_5_v3,2023.2.2,Win32,84.74576271,,,,,,,,,,,,,,,,798.2977,799.8504,799.8504,801.0858,return,0.518,,30.59895833,,,,,,FBP-OG-19.png,0.35,1.2,41,0.75,,,,,,,,,,,,,0,46,46,40,1,,,,,,,,,,,,,,,,,,,,,,,,,,,,
,,,,,V3_022,22,Female,2024-10-17_17h15.41.874,jersey_experiment_5_v3,2023.2.2,Win32,84.74576271,,,,,,,,,,,,,,,,801.086,802.3799,802.3799,804.0154,return,0.6206,,83.33333333,,,,,,FBP-YG-91.png,0.45,1.2,15,0.5,,,,,,,,,,,,,0,47,47,14,1,,,,,,,,,,,,,,,,,,,,,,,,,,,,
,,,,,V3_022,22,Female,2024-10-17_17h15.41.874,jersey_experiment_5_v3,2023.2.2,Win32,84.74576271,,,,,,,,,,,,,,,,804.0154,805.5566,805.5566,807.5096,return,0.8273,,78.90625,,,,,,FBP-OG-17.png,0.43,1.2,34,0.75,,,,,,,,,,,,,0,48,48,33,1,,,,,,,,,,,,,,,,,,,,,,,,,,,,
,,,,,V3_022,22,Female,2024-10-17_17h15.41.874,jersey_experiment_5_v3,2023.2.2,Win32,84.74576271,,,,,,,,,,,,,,,,807.5099,808.8038,808.8038,810.1567,return,0.4556,,36.45833333,,,,,,FBP-RB-18.png,0.35,1.2,51,0.5,,,,,,,,,,,,,0,49,49,50,1,,,,,,,,,,,,,,,,,,,,,,,,,,,,
,,,,,V3_022,22,Female,2024-10-17_17h15.41.874,jersey_experiment_5_v3,2023.2.2,Win32,84.74576271,,,,,,,,,,,,,,,,810.157,811.4508,811.4509,813.5451,return,0.9535,,38.41145833,,,,,,FBP-PT-18.png,0.37,1.2,22,0.5,,,,,,,,,,,,,0,50,50,21,1,,,,,,,,,,,,,,,,,,,,,,,,,,,,
,,,,,V3_022,22,Female,2024-10-17_17h15.41.874,jersey_experiment_5_v3,2023.2.2,Win32,84.74576271,,,,,,,,,,,,,,,,813.5454,814.8393,814.8393,816.2981,return,0.4365,,83.203125,,,,,,FBP-YG-71.png,0.45,1.2,5,0.5,,,,,,,,,,,,,0,51,51,4,1,,,,,,,,,,,,,,,,,,,,,,,,,,,,
,,,,,V3_022,22,Female,2024-10-17_17h15.41.874,jersey_experiment_5_v3,2023.2.2,Win32,84.74576271,,,,,,,,,,,,,,,,816.2984,817.5923,817.5923,819.7688,return,0.7068,,24.86979167,,,,,,FBP-RB-17.png,0.35,1.2,46,0.5,,,,,,,,,,,,,0,52,52,45,1,,,,,,,,,,,,,,,,,,,,,,,,,,,,
,,,,,V3_022,22,Female,2024-10-17_17h15.41.874,jersey_experiment_5_v3,2023.2.2,Win32,84.74576271,,,,,,,,,,,,,,,,819.7691,821.0631,821.0631,824.3455,return,0.6152,,88.671875,,,,,,FBP-PT-18.png,0.45,1.2,25,0.5,,,,,,,,,,,,,0,53,53,24,1,,,,,,,,,,,,,,,,,,,,,,,,,,,,
,,,,,V3_022,22,Female,2024-10-17_17h15.41.874,jersey_experiment_5_v3,2023.2.2,Win32,84.74576271,,,,,,,,,,,,,,,,824.3458,825.6396,825.6398,828.8751,return,2.5676,,78.25520833,,,,,,FBP-PT-18.png,0.43,1.2,24,0.5,,,,,,,,,,,,,0,54,54,23,1,,,,,,,,,,,,,,,,,,,,,,,,,,,,
,,,,,V3_022,22,Female,2024-10-17_17h15.41.874,jersey_experiment_5_v3,2023.2.2,Win32,84.74576271,,,,,,,,,,,,,,,,828.8754,830.1692,830.1693,832.134,return,0.6656,,81.640625,,,,,,FBP-RB-19.png,0.45,1.2,60,0.5,,,,,,,,,,,,,0,55,55,59,1,,,,,,,,,,,,,,,,,,,,,,,,,,,,
,,,,,V3_022,22,Female,2024-10-17_17h15.41.874,jersey_experiment_5_v3,2023.2.2,Win32,84.74576271,,,,,,,,,,,,,,,,832.1342,833.428,833.4281,835.6282,return,1.0973,,50,,,,,,FBP-YG-81.png,0.37,1.2,7,0.5,,,,,,,,,,,,,0,56,56,6,1,,,,,,,,,,,,,,,,,,,,,,,,,,,,
,,,,,V3_022,22,Female,2024-10-17_17h15.41.874,jersey_experiment_5_v3,2023.2.2,Win32,84.74576271,,,,,,,,,,,,,,,,835.6285,837.1811,837.1812,839.0873,return,0.5809,,61.19791667,,,,,,FBP-OG-17.png,0.4,1.2,33,0.75,,,,,,,,,,,,,0,57,57,32,1,,,,,,,,,,,,,,,,,,,,,,,,,,,,
,,,,,V3_022,22,Female,2024-10-17_17h15.41.874,jersey_experiment_5_v3,2023.2.2,Win32,84.74576271,,,,,,,,,,,,,,,,839.0875,840.3815,840.3816,842.2873,return,0.696,,38.28125,,,,,,FBP-PT-18.png,0.35,1.2,21,0.5,,,,,,,,,,,,,0,58,58,20,1,,,,,,,,,,,,,,,,,,,,,,,,,,,,
,,,,,V3_022,22,Female,2024-10-17_17h15.41.874,jersey_experiment_5_v3,2023.2.2,Win32,84.74576271,,,,,,,,,,,,,,,,842.2875,843.8405,843.8405,845.2757,return,0.5852,,75.91145833,,,,,,FBP-OG-19.png,0.43,1.2,44,0.75,,,,,,,,,,,,,0,59,59,43,1,,,,,,,,,,,,,,,,,,,,,,,,,,,,
,,,,,V3_022,22,Female,2024-10-17_17h15.41.874,jersey_experiment_5_v3,2023.2.2,Win32,84.74576271,,,,,,,,,,,,,,,,845.2768,846.5697,846.5697,850.7111,return,2.653,,50.91145833,,,,,,FBP-RB-91.png,0.37,1.2,57,0.5,,,,,,,,,,,,,,,,,,0,0,0,56,1,,,,,,,,,,,,,,,,,,,,,,,
,,,,,V3_022,22,Female,2024-10-17_17h15.41.874,jersey_experiment_5_v3,2023.2.2,Win32,84.74576271,,,,,,,,,,,,,,,,850.7113,852.2643,852.2644,853.676,return,0.5539,,73.30729167,,,,,,FBP-OG-71.png,0.43,1.2,34,0.75,,,,,,,,,,,,,,,,,,0,1,1,33,1,,,,,,,,,,,,,,,,,,,,,,,
,,,,,V3_022,22,Female,2024-10-17_17h15.41.874,jersey_experiment_5_v3,2023.2.2,Win32,84.74576271,,,,,,,,,,,,,,,,853.6762,854.9702,854.9702,856.2643,return,0.7224,,61.58854167,,,,,,FBP-YG-17.png,0.4,1.2,3,0.5,,,,,,,,,,,,,,,,,,0,2,2,2,1,,,,,,,,,,,,,,,,,,,,,,,
,,,,,V3_022,22,Female,2024-10-17_17h15.41.874,jersey_experiment_5_v3,2023.2.2,Win32,84.74576271,,,,,,,,,,,,,,,,856.2646,857.5586,857.5586,858.7585,return,0.6153,,60.80729167,,,,,,FBP-PT-81.png,0.4,1.2,23,0.5,,,,,,,,,,,,,,,,,,0,3,3,22,1,,,,,,,,,,,,,,,,,,,,,,,
,,,,,V3_022,22,Female,2024-10-17_17h15.41.874,jersey_experiment_5_v3,2023.2.2,Win32,84.74576271,,,,,,,,,,,,,,,,858.7588,860.0529,860.053,861.9939,return,0.8578,,62.5,,,,,,FBP-YG-19.png,0.37,1.2,12,0.5,,,,,,,,,,,,,,,,,,0,4,4,11,1,,,,,,,,,,,,,,,,,,,,,,,
,,,,,V3_022,22,Female,2024-10-17_17h15.41.874,jersey_experiment_5_v3,2023.2.2,Win32,84.74576271,,,,,,,,,,,,,,,,861.994,863.5468,863.5468,865.0175,return,0.8389,,57.421875,,,,,,FBP-OG-91.png,0.37,1.2,42,0.75,,,,,,,,,,,,,,,,,,0,5,5,41,1,,,,,,,,,,,,,,,,,,,,,,,
,,,,,V3_022,22,Female,2024-10-17_17h15.41.874,jersey_experiment_5_v3,2023.2.2,Win32,84.74576271,,,,,,,,,,,,,,,,865.0179,866.3118,866.3118,869.406,return,1.7646,,79.296875,,,,,,FBP-PT-81.png,0.45,1.2,25,0.5,,,,,,,,,,,,,,,,,,0,6,6,24,1,,,,,,,,,,,,,,,,,,,,,,,
,,,,,V3_022,22,Female,2024-10-17_17h15.41.874,jersey_experiment_5_v3,2023.2.2,Win32,84.74576271,,,,,,,,,,,,,,,,869.4064,870.7001,870.7002,874.9002,return,2.9618,,74.47916667,,,,,,FBP-RB-81.png,0.45,1.2,55,0.5,,,,,,,,,,,,,,,,,,0,7,7,54,1,,,,,,,,,,,,,,,,,,,,,,,
,,,,,V3_022,22,Female,2024-10-17_17h15.41.874,jersey_experiment_5_v3,2023.2.2,Win32,84.74576271,,,,,,,,,,,,,,,,874.9004,876.1943,876.1944,877.3355,return,0.4521,,77.86458333,,,,,,FBP-PT-91.png,0.43,1.2,29,0.5,,,,,,,,,,,,,,,,,,0,8,8,28,1,,,,,,,,,,,,,,,,,,,,,,,
,,,,,V3_022,22,Female,2024-10-17_17h15.41.874,jersey_experiment_5_v3,2023.2.2,Win32,84.74576271,,,,,,,,,,,,,,,,877.3358,878.8888,878.8888,880.6064,return,0.4575,,39.0625,,,,,,FBP-OG-91.png,0.35,1.2,41,0.75,,,,,,,,,,,,,,,,,,0,9,9,40,1,,,,,,,,,,,,,,,,,,,,,,,
,,,,,V3_022,22,Female,2024-10-17_17h15.41.874,jersey_experiment_5_v3,2023.2.2,Win32,84.74576271,,,,,,,,,,,,,,,,880.6068,881.9006,881.9007,883.0065,return,0.4557,,36.06770833,,,,,,FBP-YG-17.png,0.35,1.2,1,0.5,,,,,,,,,,,,,,,,,,0,10,10,0,1,,,,,,,,,,,,,,,,,,,,,,,
,,,,,V3_022,22,Female,2024-10-17_17h15.41.874,jersey_experiment_5_v3,2023.2.2,Win32,84.74576271,,,,,,,,,,,,,,,,883.0066,884.5598,884.5598,885.7359,return,0.4757,,49.609375,,,,,,FBP-OG-71.png,0.37,1.2,32,0.75,,,,,,,,,,,,,,,,,,0,11,11,31,1,,,,,,,,,,,,,,,,,,,,,,,
,,,,,V3_022,22,Female,2024-10-17_17h15.41.874,jersey_experiment_5_v3,2023.2.2,Win32,84.74576271,,,,,,,,,,,,,,,,885.7363,887.0301,887.0301,888.1832,return,0.4766,,31.25,,,,,,FBP-PT-81.png,0.37,1.2,22,0.5,,,,,,,,,,,,,,,,,,0,12,12,21,1,,,,,,,,,,,,,,,,,,,,,,,
,,,,,V3_022,22,Female,2024-10-17_17h15.41.874,jersey_experiment_5_v3,2023.2.2,Win32,84.74576271,,,,,,,,,,,,,,,,888.1835,889.4773,889.4773,891.5949,return,1.0842,,75.390625,,,,,,FBP-PT-81.png,0.43,1.2,24,0.5,,,,,,,,,,,,,,,,,,0,13,13,23,1,,,,,,,,,,,,,,,,,,,,,,,
,,,,,V3_022,22,Female,2024-10-17_17h15.41.874,jersey_experiment_5_v3,2023.2.2,Win32,84.74576271,,,,,,,,,,,,,,,,891.5951,893.148,893.148,896.4893,return,1.4014,,73.56770833,,,,,,FBP-OG-91.png,0.4,1.2,43,0.75,,,,,,,,,,,,,,,,,,0,14,14,42,1,,,,,,,,,,,,,,,,,,,,,,,
,,,,,V3_022,22,Female,2024-10-17_17h15.41.874,jersey_experiment_5_v3,2023.2.2,Win32,84.74576271,,,,,,,,,,,,,,,,896.4896,898.0422,898.0423,900.4071,return,0.9352,,59.50520833,,,,,,FBP-OG-81.png,0.37,1.2,37,0.75,,,,,,,,,,,,,,,,,,0,15,15,36,1,,,,,,,,,,,,,,,,,,,,,,,
,,,,,V3_022,22,Female,2024-10-17_17h15.41.874,jersey_experiment_5_v3,2023.2.2,Win32,84.74576271,,,,,,,,,,,,,,,,900.4074,901.7013,901.7013,902.8426,return,0.3866,,65.75520833,,,,,,FBP-RB-81.png,0.43,1.2,54,0.5,,,,,,,,,,,,,,,,,,0,16,16,53,1,,,,,,,,,,,,,,,,,,,,,,,
,,,,,V3_022,22,Female,2024-10-17_17h15.41.874,jersey_experiment_5_v3,2023.2.2,Win32,84.74576271,,,,,,,,,,,,,,,,902.8429,904.3955,904.3956,905.772,return,0.7282,,76.43229167,,,,,,FBP-OG-71.png,0.45,1.2,35,0.75,,,,,,,,,,,,,,,,,,0,17,17,34,1,,,,,,,,,,,,,,,,,,,,,,,
,,,,,V3_022,22,Female,2024-10-17_17h15.41.874,jersey_experiment_5_v3,2023.2.2,Win32,84.74576271,,,,,,,,,,,,,,,,905.7722,907.325,907.325,908.8427,return,0.6691,,81.51041667,,,,,,FBP-OG-91.png,0.45,1.2,45,0.75,,,,,,,,,,,,,,,,,,0,18,18,44,1,,,,,,,,,,,,,,,,,,,,,,,
,,,,,V3_022,22,Female,2024-10-17_17h15.41.874,jersey_experiment_5_v3,2023.2.2,Win32,84.74576271,,,,,,,,,,,,,,,,908.843,910.137,910.137,911.4781,return,0.7834,,67.05729167,,,,,,FBP-RB-91.png,0.4,1.2,58,0.5,,,,,,,,,,,,,,,,,,0,19,19,57,1,,,,,,,,,,,,,,,,,,,,,,,
,,,,,V3_022,22,Female,2024-10-17_17h15.41.874,jersey_experiment_5_v3,2023.2.2,Win32,84.74576271,,,,,,,,,,,,,,,,911.4783,912.7722,912.7722,914.7607,return,0.8715,,78.38541667,,,,,,FBP-YG-17.png,0.45,1.2,5,0.5,,,,,,,,,,,,,,,,,,0,20,20,4,1,,,,,,,,,,,,,,,,,,,,,,,
,,,,,V3_022,22,Female,2024-10-17_17h15.41.874,jersey_experiment_5_v3,2023.2.2,Win32,84.74576271,,,,,,,,,,,,,,,,914.761,916.0548,916.0548,917.3724,return,0.4391,,79.55729167,,,,,,FBP-PT-71.png,0.45,1.2,20,0.5,,,,,,,,,,,,,,,,,,0,21,21,19,1,,,,,,,,,,,,,,,,,,,,,,,
,,,,,V3_022,22,Female,2024-10-17_17h15.41.874,jersey_experiment_5_v3,2023.2.2,Win32,84.74576271,,,,,,,,,,,,,,,,917.3727,918.6666,918.6667,920.7137,return,0.4163,,30.46875,,,,,,FBP-RB-71.png,0.35,1.2,46,0.5,,,,,,,,,,,,,,,,,,0,22,22,45,1,,,,,,,,,,,,,,,,,,,,,,,
,,,,,V3_022,22,Female,2024-10-17_17h15.41.874,jersey_experiment_5_v3,2023.2.2,Win32,84.74576271,,,,,,,,,,,,,,,,920.7139,922.0078,922.0079,924.2668,return,1.1982,,70.83333333,,,,,,FBP-RB-91.png,0.43,1.2,59,0.5,,,,,,,,,,,,,,,,,,0,23,23,58,1,,,,,,,,,,,,,,,,,,,,,,,
,,,,,V3_022,22,Female,2024-10-17_17h15.41.874,jersey_experiment_5_v3,2023.2.2,Win32,84.74576271,,,,,,,,,,,,,,,,924.267,925.561,925.561,927.5964,return,0.976,,51.171875,,,,,,FBP-PT-91.png,0.45,1.2,30,0.5,,,,,,,,,,,,,,,,,,0,24,24,29,1,,,,,,,,,,,,,,,,,,,,,,,
,,,,,V3_022,22,Female,2024-10-17_17h15.41.874,jersey_experiment_5_v3,2023.2.2,Win32,84.74576271,,,,,,,,,,,,,,,,927.5968,928.8906,928.8907,931.8788,return,0.9944,,44.53125,,,,,,FBP-PT-71.png,0.35,1.2,16,0.5,,,,,,,,,,,,,,,,,,0,25,25,15,1,,,,,,,,,,,,,,,,,,,,,,,
,,,,,V3_022,22,Female,2024-10-17_17h15.41.874,jersey_experiment_5_v3,2023.2.2,Win32,84.74576271,,,,,,,,,,,,,,,,931.879,933.173,933.1731,935.8319,return,0.8755,,50.91145833,,,,,,FBP-PT-91.png,0.37,1.2,27,0.5,,,,,,,,,,,,,,,,,,0,26,26,26,1,,,,,,,,,,,,,,,,,,,,,,,
,,,,,V3_022,22,Female,2024-10-17_17h15.41.874,jersey_experiment_5_v3,2023.2.2,Win32,84.74576271,,,,,,,,,,,,,,,,935.8321,937.1261,937.1262,939.5262,return,1.3009,,54.55729167,,,,,,FBP-PT-71.png,0.37,1.2,17,0.5,,,,,,,,,,,,,,,,,,0,27,27,16,1,,,,,,,,,,,,,,,,,,,,,,,
,,,,,V3_022,22,Female,2024-10-17_17h15.41.874,jersey_experiment_5_v3,2023.2.2,Win32,84.74576271,,,,,,,,,,,,,,,,939.5265,940.8203,940.8204,942.138,return,0.4969,,49.609375,,,,,,FBP-RB-91.png,0.35,1.2,56,0.5,,,,,,,,,,,,,,,,,,0,28,28,55,1,,,,,,,,,,,,,,,,,,,,,,,
,,,,,V3_022,22,Female,2024-10-17_17h15.41.874,jersey_experiment_5_v3,2023.2.2,Win32,84.74576271,,,,,,,,,,,,,,,,942.1382,943.4323,943.4323,945.8324,return,1.8502,,41.796875,,,,,,FBP-PT-81.png,0.35,1.2,21,0.5,,,,,,,,,,,,,,,,,,0,29,29,20,1,,,,,,,,,,,,,,,,,,,,,,,
,,,,,V3_022,22,Female,2024-10-17_17h15.41.874,jersey_experiment_5_v3,2023.2.2,Win32,84.74576271,,,,,,,,,,,,,,,,945.8329,947.3854,947.3855,949.0206,return,0.6357,,49.86979167,,,,,,FBP-OG-81.png,0.35,1.2,36,0.75,,,,,,,,,,,,,,,,,,0,30,30,35,1,,,,,,,,,,,,,,,,,,,,,,,
,,,,,V3_022,22,Female,2024-10-17_17h15.41.874,jersey_experiment_5_v3,2023.2.2,Win32,84.74576271,,,,,,,,,,,,,,,,949.0209,950.3149,950.315,951.5972,return,0.5415,,55.59895833,,,,,,FBP-RB-71.png,0.37,1.2,47,0.5,,,,,,,,,,,,,,,,,,0,31,31,46,1,,,,,,,,,,,,,,,,,,,,,,,
,,,,,V3_022,22,Female,2024-10-17_17h15.41.874,jersey_experiment_5_v3,2023.2.2,Win32,84.74576271,,,,,,,,,,,,,,,,951.5973,952.8913,952.8914,954.3033,return,0.7641,,60.9375,,,,,,FBP-YG-18.png,0.4,1.2,8,0.5,,,,,,,,,,,,,,,,,,0,32,32,7,1,,,,,,,,,,,,,,,,,,,,,,,
,,,,,V3_022,22,Female,2024-10-17_17h15.41.874,jersey_experiment_5_v3,2023.2.2,Win32,84.74576271,,,,,,,,,,,,,,,,954.3035,955.5974,955.5974,956.668,return,0.5628,,60.80729167,,,,,,FBP-RB-81.png,0.4,1.2,53,0.5,,,,,,,,,,,,,,,,,,0,33,33,52,1,,,,,,,,,,,,,,,,,,,,,,,
,,,,,V3_022,22,Female,2024-10-17_17h15.41.874,jersey_experiment_5_v3,2023.2.2,Win32,84.74576271,,,,,,,,,,,,,,,,956.6683,957.9621,957.9622,959.5152,return,0.5095,,74.609375,,,,,,FBP-YG-19.png,0.45,1.2,15,0.5,,,,,,,,,,,,,,,,,,0,34,34,14,1,,,,,,,,,,,,,,,,,,,,,,,
,,,,,V3_022,22,Female,2024-10-17_17h15.41.874,jersey_experiment_5_v3,2023.2.2,Win32,84.74576271,,,,,,,,,,,,,,,,959.5155,960.8094,960.8094,962.2801,return,0.758,,67.31770833,,,,,,FBP-PT-71.png,0.4,1.2,18,0.5,,,,,,,,,,,,,,,,,,0,35,35,17,1,,,,,,,,,,,,,,,,,,,,,,,
,,,,,V3_022,22,Female,2024-10-17_17h15.41.874,jersey_experiment_5_v3,2023.2.2,Win32,84.74576271,,,,,,,,,,,,,,,,962.2805,963.5741,963.5742,968.8684,return,4.4162,,67.31770833,,,,,,FBP-YG-18.png,0.43,1.2,9,0.5,,,,,,,,,,,,,,,,,,0,36,36,8,1,,,,,,,,,,,,,,,,,,,,,,,
,,,,,V3_022,22,Female,2024-10-17_17h15.41.874,jersey_experiment_5_v3,2023.2.2,Win32,84.74576271,,,,,,,,,,,,,,,,968.8685,970.1627,970.1627,971.5156,return,0.5331,,63.28125,,,,,,FBP-YG-19.png,0.43,1.2,14,0.5,,,,,,,,,,,,,,,,,,0,37,37,13,1,,,,,,,,,,,,,,,,,,,,,,,
,,,,,V3_022,22,Female,2024-10-17_17h15.41.874,jersey_experiment_5_v3,2023.2.2,Win32,84.74576271,,,,,,,,,,,,,,,,971.5158,973.0687,973.0687,974.2804,return,0.5926,,71.484375,,,,,,FBP-OG-81.png,0.43,1.2,39,0.75,,,,,,,,,,,,,,,,,,0,38,38,38,1,,,,,,,,,,,,,,,,,,,,,,,
,,,,,V3_022,22,Female,2024-10-17_17h15.41.874,jersey_experiment_5_v3,2023.2.2,Win32,84.74576271,,,,,,,,,,,,,,,,974.2806,975.8334,975.8334,977.4218,return,0.9675,,58.07291667,,,,,,FBP-OG-81.png,0.4,1.2,38,0.75,,,,,,,,,,,,,,,,,,0,39,39,37,1,,,,,,,,,,,,,,,,,,,,,,,
,,,,,V3_022,22,Female,2024-10-17_17h15.41.874,jersey_experiment_5_v3,2023.2.2,Win32,84.74576271,,,,,,,,,,,,,,,,977.4219,978.716,978.716,981.4219,return,0.5571,,60.80729167,,,,,,FBP-RB-71.png,0.4,1.2,48,0.5,,,,,,,,,,,,,,,,,,0,40,40,47,1,,,,,,,,,,,,,,,,,,,,,,,
,,,,,V3_022,22,Female,2024-10-17_17h15.41.874,jersey_experiment_5_v3,2023.2.2,Win32,84.74576271,,,,,,,,,,,,,,,,981.4222,982.7161,982.7162,984.0456,return,0.4318,,52.21354167,,,,,,FBP-YG-18.png,0.37,1.2,7,0.5,,,,,,,,,,,,,,,,,,0,41,41,6,1,,,,,,,,,,,,,,,,,,,,,,,
,,,,,V3_022,22,Female,2024-10-17_17h15.41.874,jersey_experiment_5_v3,2023.2.2,Win32,84.74576271,,,,,,,,,,,,,,,,984.0459,985.3396,985.3397,986.6692,return,0.4131,,58.33333333,,,,,,FBP-PT-91.png,0.4,1.2,28,0.5,,,,,,,,,,,,,,,,,,0,42,42,27,1,,,,,,,,,,,,,,,,,,,,,,,
,,,,,V3_022,22,Female,2024-10-17_17h15.41.874,jersey_experiment_5_v3,2023.2.2,Win32,84.74576271,,,,,,,,,,,,,,,,986.6694,987.9634,987.9634,990.7163,return,1.9278,,42.578125,,,,,,FBP-RB-81.png,0.35,1.2,51,0.5,,,,,,,,,,,,,,,,,,0,43,43,50,1,,,,,,,,,,,,,,,,,,,,,,,
,,,,,V3_022,22,Female,2024-10-17_17h15.41.874,jersey_experiment_5_v3,2023.2.2,Win32,84.74576271,,,,,,,,,,,,,,,,990.7165,992.0106,992.0107,994.1988,return,0.6532,,56.640625,,,,,,FBP-YG-19.png,0.4,1.2,13,0.5,,,,,,,,,,,,,,,,,,0,44,44,12,1,,,,,,,,,,,,,,,,,,,,,,,
,,,,,V3_022,22,Female,2024-10-17_17h15.41.874,jersey_experiment_5_v3,2023.2.2,Win32,84.74576271,,,,,,,,,,,,,,,,994.1991,995.7517,995.7518,997.4813,return,0.827,,57.55208333,,,,,,FBP-OG-91.png,0.43,1.2,44,0.75,,,,,,,,,,,,,,,,,,0,45,45,43,1,,,,,,,,,,,,,,,,,,,,,,,
,,,,,V3_022,22,Female,2024-10-17_17h15.41.874,jersey_experiment_5_v3,2023.2.2,Win32,84.74576271,,,,,,,,,,,,,,,,997.4817,998.7755,998.7756,1000.8108,return,0.6982,,58.203125,,,,,,FBP-YG-17.png,0.37,1.2,2,0.5,,,,,,,,,,,,,,,,,,0,46,46,1,1,,,,,,,,,,,,,,,,,,,,,,,
,,,,,V3_022,22,Female,2024-10-17_17h15.41.874,jersey_experiment_5_v3,2023.2.2,Win32,84.74576271,,,,,,,,,,,,,,,,1000.8112,1002.105,1002.1051,1003.7169,return,0.5101,,48.69791667,,,,,,FBP-RB-81.png,0.37,1.2,52,0.5,,,,,,,,,,,,,,,,,,0,47,47,51,1,,,,,,,,,,,,,,,,,,,,,,,
,,,,,V3_022,22,Female,2024-10-17_17h15.41.874,jersey_experiment_5_v3,2023.2.2,Win32,84.74576271,,,,,,,,,,,,,,,,1003.7172,1005.011,1005.0111,1006.5403,return,0.4087,,44.140625,,,,,,FBP-PT-91.png,0.35,1.2,26,0.5,,,,,,,,,,,,,,,,,,0,48,48,25,1,,,,,,,,,,,,,,,,,,,,,,,
,,,,,V3_022,22,Female,2024-10-17_17h15.41.874,jersey_experiment_5_v3,2023.2.2,Win32,84.74576271,,,,,,,,,,,,,,,,1006.5406,1008.0934,1008.0935,1009.3876,return,0.4568,,61.97916667,,,,,,FBP-OG-71.png,0.4,1.2,33,0.75,,,,,,,,,,,,,,,,,,0,49,49,32,1,,,,,,,,,,,,,,,,,,,,,,,
,,,,,V3_022,22,Female,2024-10-17_17h15.41.874,jersey_experiment_5_v3,2023.2.2,Win32,84.74576271,,,,,,,,,,,,,,,,1009.3879,1010.9406,1010.9406,1012.7642,return,1.1312,,71.35416667,,,,,,FBP-OG-81.png,0.45,1.2,40,0.75,,,,,,,,,,,,,,,,,,0,50,50,39,1,,,,,,,,,,,,,,,,,,,,,,,
,,,,,V3_022,22,Female,2024-10-17_17h15.41.874,jersey_experiment_5_v3,2023.2.2,Win32,84.74576271,,,,,,,,,,,,,,,,1012.7646,1014.0584,1014.0584,1015.9172,return,0.6257,,79.03645833,,,,,,FBP-YG-18.png,0.45,1.2,10,0.5,,,,,,,,,,,,,,,,,,0,51,51,9,1,,,,,,,,,,,,,,,,,,,,,,,
,,,,,V3_022,22,Female,2024-10-17_17h15.41.874,jersey_experiment_5_v3,2023.2.2,Win32,84.74576271,,,,,,,,,,,,,,,,1015.9175,1017.4702,1017.4703,1020.5999,return,1.6508,,49.73958333,,,,,,FBP-OG-71.png,0.35,1.2,31,0.75,,,,,,,,,,,,,,,,,,0,52,52,30,1,,,,,,,,,,,,,,,,,,,,,,,
,,,,,V3_022,22,Female,2024-10-17_17h15.41.874,jersey_experiment_5_v3,2023.2.2,Win32,84.74576271,,,,,,,,,,,,,,,,1020.6001,1021.894,1021.8941,1023.647,return,0.5416,,52.34375,,,,,,FBP-YG-18.png,0.35,1.2,6,0.5,,,,,,,,,,,,,,,,,,0,53,53,5,1,,,,,,,,,,,,,,,,,,,,,,,
,,,,,V3_022,22,Female,2024-10-17_17h15.41.874,jersey_experiment_5_v3,2023.2.2,Win32,84.74576271,,,,,,,,,,,,,,,,1023.6472,1024.9412,1024.9413,1027.4117,return,0.7934,,68.61979167,,,,,,FBP-PT-71.png,0.43,1.2,19,0.5,,,,,,,,,,,,,,,,,,0,54,54,18,1,,,,,,,,,,,,,,,,,,,,,,,
,,,,,V3_022,22,Female,2024-10-17_17h15.41.874,jersey_experiment_5_v3,2023.2.2,Win32,84.74576271,,,,,,,,,,,,,,,,1027.4118,1028.7062,1028.7063,1029.9413,return,0.4666,,83.984375,,,,,,FBP-RB-91.png,0.45,1.2,60,0.5,,,,,,,,,,,,,,,,,,0,55,55,59,1,,,,,,,,,,,,,,,,,,,,,,,
,,,,,V3_022,22,Female,2024-10-17_17h15.41.874,jersey_experiment_5_v3,2023.2.2,Win32,84.74576271,,,,,,,,,,,,,,,,1029.9414,1031.2355,1031.2355,1033.1179,return,0.5648,,75.52083333,,,,,,FBP-YG-19.png,0.35,1.2,11,0.5,,,,,,,,,,,,,,,,,,0,56,56,10,1,,,,,,,,,,,,,,,,,,,,,,,
,,,,,V3_022,22,Female,2024-10-17_17h15.41.874,jersey_experiment_5_v3,2023.2.2,Win32,84.74576271,,,,,,,,,,,,,,,,1033.1181,1034.4121,1034.4121,1035.7415,return,0.432,,81.90104167,,,,,,FBP-YG-17.png,0.43,1.2,4,0.5,,,,,,,,,,,,,,,,,,0,57,57,3,1,,,,,,,,,,,,,,,,,,,,,,,
,,,,,V3_022,22,Female,2024-10-17_17h15.41.874,jersey_experiment_5_v3,2023.2.2,Win32,84.74576271,,,,,,,,,,,,,,,,1035.7418,1037.0356,1037.0356,1038.6358,return,0.8091,,71.35416667,,,,,,FBP-RB-71.png,0.43,1.2,49,0.5,,,,,,,,,,,,,,,,,,0,58,58,48,1,,,,,,,,,,,,,,,,,,,,,,,
,,,,,V3_022,22,Female,2024-10-17_17h15.41.874,jersey_experiment_5_v3,2023.2.2,Win32,84.74576271,,,,,,,,,,,,,,,,1038.636,1039.9298,1039.9298,1040.8358,return,0.4442,,71.35416667,,,,,,FBP-RB-71.png,0.45,1.2,50,0.5,,,,,,,,,,,,,,,,,,0,59,59,49,1,,,,,,,,,,,,,,,,,,,,,,,
,,,,,V3_022,22,Female,2024-10-17_17h15.41.874,jersey_experiment_5_v3,2023.2.2,Win32,84.74576271,,,,,,,,,,,,,,,,,,,,,,,,,,,,,,,,,,,,,,,,,,,,,,,,,,,,,,,,1040.836,1045.1657,return,4.3191,,,,,,,,,,,,,,,,,,,
,,,,,V3_022,22,Female,2024-10-17_17h15.41.874,jersey_experiment_5_v3,2023.2.2,Win32,84.74576271,,,,,,,,,,,,,,,,,,,,,,,,,,,,,,,,,,,,,,,,,,,,,,,,,,,,,,,,,,,,,1045.1658,1048.8598,1,2.3256,return,1.3563,,,,,,,,,,,,
,,,,,V3_022,22,Female,2024-10-17_17h15.41.874,jersey_experiment_5_v3,2023.2.2,Win32,84.74576271,,,,,,,,,,,,,,,,,,,,,,,,,,,,,,,,,,,,,,,,,,,,,,,,,,,,,,,,,,,,,,,,,,,,1048.86,1112.4158,"My first guess was that the study is about body image and how our perceptions of a type of person, such as a football player, influence how we see their bodies in relativity to their identity. I also recognized that it rotated from someone with a lighter skin tone to someone with a darker skin tone.",right,59.8518,,,,,,
,,,,,V3_022,22,Female,2024-10-17_17h15.41.874,jersey_experiment_5_v3,2023.2.2,Win32,84.74576271,,,,,,,,,,,,,,,,,,,,,,,,,,,,,,,,,,,,,,,,,,,,,,,,,,,,,,,,,,,,,,,,,,,,,,,,,,1112.4159,1115.0857,return,2.6573,