requirements.started,requirements.stopped,key_resp_3.keys,key_resp_3.rt,key_resp_3.duration,Subject ID,Age,Gender,date,expName,psychopyVersion,OS,frameRate,instructions1.started,instructions1.stopped,key_resp.keys,key_resp.rt,key_resp.duration,example.started,example.stopped,enter_2.keys,enter_2.rt,enter_2.duration,instructions2.started,instructions2.stopped,enter_3.keys,enter_3.rt,enter_3.duration,image.started,image.stopped,slider_2.started,slider_2.stopped,next.keys,next.rt,next.duration,slider.response,trial_block_1.thisRepN,trial_block_1.thisTrialN,trial_block_1.thisN,trial_block_1.thisIndex,trial_block_1.ran,Path,Width,Height,Index,Duration,trial_block_2.thisRepN,trial_block_2.thisTrialN,trial_block_2.thisN,trial_block_2.thisIndex,trial_block_2.ran,rest_break.started,rest_break.stopped,end_break.started,end_break.stopped,key_resp_5.keys,key_resp_5.rt,key_resp_5.duration,trial_block_3.thisRepN,trial_block_3.thisTrialN,trial_block_3.thisN,trial_block_3.thisIndex,trial_block_3.ran,trial_block_4.thisRepN,trial_block_4.thisTrialN,trial_block_4.thisN,trial_block_4.thisIndex,trial_block_4.ran,questions_intro.started,questions_intro.stopped,enter_12.keys,enter_12.rt,enter_12.duration,question2.started,question2.stopped,question_doingbest.response,question_doingbest.rt,enter_15.keys,enter_15.rt,enter_15.duration,pattern.started,pattern.stopped,pattern_2.text,enter_17.keys,enter_17.rt,enter_17.duration,thankyou.started,thankyou.stopped,enter_14.keys,enter_14.rt,enter_14.duration
0.0005,10.9163,return,10.9098,,V3_064,20,Female,2024-11-14_17h16.57.286,jersey_experiment_5_v3,2023.2.2,Win32,85.47008547,,,,,,,,,,,,,,,,,,,,,,,,,,,,,,,,,,,,,,,,,,,,,,,,,,,,,,,,,,,,,,,,,,,,,,,,,,,,,,
,,,,,V3_064,20,Female,2024-11-14_17h16.57.286,jersey_experiment_5_v3,2023.2.2,Win32,85.47008547,10.9164,20.4035,return,9.4721,,,,,,,,,,,,,,,,,,,,,,,,,,,,,,,,,,,,,,,,,,,,,,,,,,,,,,,,,,,,,,,,,,,,,,,,,,
,,,,,V3_064,20,Female,2024-11-14_17h16.57.286,jersey_experiment_5_v3,2023.2.2,Win32,85.47008547,,,,,,20.4036,26.6464,return,6.2128,,,,,,,,,,,,,,,,,,,,,,,,,,,,,,,,,,,,,,,,,,,,,,,,,,,,,,,,,,,,,,,,,,,,,
,,,,,V3_064,20,Female,2024-11-14_17h16.57.286,jersey_experiment_5_v3,2023.2.2,Win32,85.47008547,,,,,,,,,,,26.6464,50.9531,return,24.2967,,,,,,,,,,,,,,,,,,,,,,,,,,,,,,,,,,,,,,,,,,,,,,,,,,,,,,,,,,,,,,,,
,,,,,V3_064,20,Female,2024-11-14_17h16.57.286,jersey_experiment_5_v3,2023.2.2,Win32,85.47008547,,,,,,,,,,,,,,,,50.9559,52.2591,52.2592,59.2595,return,2.1552,,75,0,0,0,33,1,FBP-OG-17.png,0.43,1.2,34,0.5,,,,,,,,,,,,,,,,,,,,,,,,,,,,,,,,,,,,,,,,,,,,,
,,,,,V3_064,20,Female,2024-11-14_17h16.57.286,jersey_experiment_5_v3,2023.2.2,Win32,85.47008547,,,,,,,,,,,,,,,,59.26,60.5534,60.5535,63.836,return,1.0463,,24.609375,0,1,1,31,1,FBP-OG-17.png,0.37,1.2,32,0.5,,,,,,,,,,,,,,,,,,,,,,,,,,,,,,,,,,,,,,,,,,,,,
,,,,,V3_064,20,Female,2024-11-14_17h16.57.286,jersey_experiment_5_v3,2023.2.2,Win32,85.47008547,,,,,,,,,,,,,,,,63.8364,65.3889,65.3889,69.1661,return,1.5693,,74.73958333,0,2,2,8,1,FBP-YG-81.png,0.43,1.2,9,0.75,,,,,,,,,,,,,,,,,,,,,,,,,,,,,,,,,,,,,,,,,,,,,
,,,,,V3_064,20,Female,2024-11-14_17h16.57.286,jersey_experiment_5_v3,2023.2.2,Win32,85.47008547,,,,,,,,,,,,,,,,69.1664,70.7186,70.7187,76.2129,return,2.4648,,24.86979167,0,3,3,0,1,FBP-YG-71.png,0.35,1.2,1,0.75,,,,,,,,,,,,,,,,,,,,,,,,,,,,,,,,,,,,,,,,,,,,,
,,,,,V3_064,20,Female,2024-11-14_17h16.57.286,jersey_experiment_5_v3,2023.2.2,Win32,85.47008547,,,,,,,,,,,,,,,,76.2131,77.5069,77.507,82.5897,return,1.9297,,24.86979167,0,4,4,41,1,FBP-OG-19.png,0.37,1.2,42,0.5,,,,,,,,,,,,,,,,,,,,,,,,,,,,,,,,,,,,,,,,,,,,,
,,,,,V3_064,20,Female,2024-11-14_17h16.57.286,jersey_experiment_5_v3,2023.2.2,Win32,85.47008547,,,,,,,,,,,,,,,,82.59,84.1425,84.1426,91.3076,return,1.696,,74.73958333,0,5,5,51,1,FBP-RB-18.png,0.37,1.2,52,0.75,,,,,,,,,,,,,,,,,,,,,,,,,,,,,,,,,,,,,,,,,,,,,
,,,,,V3_064,20,Female,2024-11-14_17h16.57.286,jersey_experiment_5_v3,2023.2.2,Win32,85.47008547,,,,,,,,,,,,,,,,91.3078,92.8605,92.8605,97.8608,return,2.3609,,24.86979167,0,6,6,5,1,FBP-YG-81.png,0.35,1.2,6,0.75,,,,,,,,,,,,,,,,,,,,,,,,,,,,,,,,,,,,,,,,,,,,,
,,,,,V3_064,20,Female,2024-11-14_17h16.57.286,jersey_experiment_5_v3,2023.2.2,Win32,85.47008547,,,,,,,,,,,,,,,,97.8611,99.4137,99.4138,103.2845,return,1.5728,,74.73958333,0,7,7,54,1,FBP-RB-18.png,0.45,1.2,55,0.75,,,,,,,,,,,,,,,,,,,,,,,,,,,,,,,,,,,,,,,,,,,,,
,,,,,V3_064,20,Female,2024-11-14_17h16.57.286,jersey_experiment_5_v3,2023.2.2,Win32,85.47008547,,,,,,,,,,,,,,,,103.2848,104.5786,104.5787,111.5319,return,1.0595,,74.73958333,0,8,8,37,1,FBP-OG-18.png,0.4,1.2,38,0.5,,,,,,,,,,,,,,,,,,,,,,,,,,,,,,,,,,,,,,,,,,,,,
,,,,,V3_064,20,Female,2024-11-14_17h16.57.286,jersey_experiment_5_v3,2023.2.2,Win32,85.47008547,,,,,,,,,,,,,,,,111.5323,112.826,112.826,116.6379,return,0.7146,,74.73958333,0,9,9,39,1,FBP-OG-18.png,0.45,1.2,40,0.5,,,,,,,,,,,,,,,,,,,,,,,,,,,,,,,,,,,,,,,,,,,,,
,,,,,V3_064,20,Female,2024-11-14_17h16.57.286,jersey_experiment_5_v3,2023.2.2,Win32,85.47008547,,,,,,,,,,,,,,,,116.6383,117.9322,117.9323,121.544,return,1.1219,,24.73958333,0,10,10,32,1,FBP-OG-17.png,0.4,1.2,33,0.5,,,,,,,,,,,,,,,,,,,,,,,,,,,,,,,,,,,,,,,,,,,,,
,,,,,V3_064,20,Female,2024-11-14_17h16.57.286,jersey_experiment_5_v3,2023.2.2,Win32,85.47008547,,,,,,,,,,,,,,,,121.5443,122.8382,122.8382,128.3794,return,1.1068,,74.86979167,0,11,11,43,1,FBP-OG-19.png,0.43,1.2,44,0.5,,,,,,,,,,,,,,,,,,,,,,,,,,,,,,,,,,,,,,,,,,,,,
,,,,,V3_064,20,Female,2024-11-14_17h16.57.286,jersey_experiment_5_v3,2023.2.2,Win32,85.47008547,,,,,,,,,,,,,,,,128.3797,129.9325,129.9325,132.7914,return,1.1698,,74.86979167,0,12,12,53,1,FBP-RB-18.png,0.43,1.2,54,0.75,,,,,,,,,,,,,,,,,,,,,,,,,,,,,,,,,,,,,,,,,,,,,
,,,,,V3_064,20,Female,2024-11-14_17h16.57.286,jersey_experiment_5_v3,2023.2.2,Win32,85.47008547,,,,,,,,,,,,,,,,132.7916,134.3444,134.3445,139.5447,return,1.0978,,49.47916667,0,13,13,2,1,FBP-YG-71.png,0.4,1.2,3,0.75,,,,,,,,,,,,,,,,,,,,,,,,,,,,,,,,,,,,,,,,,,,,,
,,,,,V3_064,20,Female,2024-11-14_17h16.57.286,jersey_experiment_5_v3,2023.2.2,Win32,85.47008547,,,,,,,,,,,,,,,,139.545,141.0976,141.0977,146.6155,return,1.0169,,74.73958333,0,14,14,12,1,FBP-YG-91.png,0.4,1.2,13,0.75,,,,,,,,,,,,,,,,,,,,,,,,,,,,,,,,,,,,,,,,,,,,,
,,,,,V3_064,20,Female,2024-11-14_17h16.57.286,jersey_experiment_5_v3,2023.2.2,Win32,85.47008547,,,,,,,,,,,,,,,,146.6157,148.1686,148.1687,153.2274,return,2.0349,,24.73958333,0,15,15,6,1,FBP-YG-81.png,0.37,1.2,7,0.75,,,,,,,,,,,,,,,,,,,,,,,,,,,,,,,,,,,,,,,,,,,,,
,,,,,V3_064,20,Female,2024-11-14_17h16.57.286,jersey_experiment_5_v3,2023.2.2,Win32,85.47008547,,,,,,,,,,,,,,,,153.2276,154.7804,154.7804,159.9805,return,1.1291,,74.47916667,0,16,16,19,1,FBP-PT-17.png,0.45,1.2,20,0.75,,,,,,,,,,,,,,,,,,,,,,,,,,,,,,,,,,,,,,,,,,,,,
,,,,,V3_064,20,Female,2024-11-14_17h16.57.286,jersey_experiment_5_v3,2023.2.2,Win32,85.47008547,,,,,,,,,,,,,,,,159.9808,161.5336,161.5337,165.2045,return,1.2895,,0.130208333,0,17,17,21,1,FBP-PT-18.png,0.37,1.2,22,0.75,,,,,,,,,,,,,,,,,,,,,,,,,,,,,,,,,,,,,,,,,,,,,
,,,,,V3_064,20,Female,2024-11-14_17h16.57.286,jersey_experiment_5_v3,2023.2.2,Win32,85.47008547,,,,,,,,,,,,,,,,165.2048,166.7573,166.7574,172.7342,return,2.197,,0.651041667,0,18,18,25,1,FBP-PT-19.png,0.35,1.2,26,0.75,,,,,,,,,,,,,,,,,,,,,,,,,,,,,,,,,,,,,,,,,,,,,
,,,,,V3_064,20,Female,2024-11-14_17h16.57.286,jersey_experiment_5_v3,2023.2.2,Win32,85.47008547,,,,,,,,,,,,,,,,172.7344,174.287,174.2871,178.4283,return,1.821,,24.47916667,0,19,19,16,1,FBP-PT-17.png,0.37,1.2,17,0.75,,,,,,,,,,,,,,,,,,,,,,,,,,,,,,,,,,,,,,,,,,,,,
,,,,,V3_064,20,Female,2024-11-14_17h16.57.286,jersey_experiment_5_v3,2023.2.2,Win32,85.47008547,,,,,,,,,,,,,,,,178.4286,179.9814,179.9814,185.9581,return,3.7004,,75.390625,0,20,20,3,1,FBP-YG-71.png,0.43,1.2,4,0.75,,,,,,,,,,,,,,,,,,,,,,,,,,,,,,,,,,,,,,,,,,,,,
,,,,,V3_064,20,Female,2024-11-14_17h16.57.286,jersey_experiment_5_v3,2023.2.2,Win32,85.47008547,,,,,,,,,,,,,,,,185.9584,187.5111,187.5112,195.1349,return,1.1769,,50,0,21,21,56,1,FBP-RB-19.png,0.37,1.2,57,0.75,,,,,,,,,,,,,,,,,,,,,,,,,,,,,,,,,,,,,,,,,,,,,
,,,,,V3_064,20,Female,2024-11-14_17h16.57.286,jersey_experiment_5_v3,2023.2.2,Win32,85.47008547,,,,,,,,,,,,,,,,195.1352,196.429,196.429,200.8058,return,1.3011,,20.57291667,0,22,22,40,1,FBP-OG-19.png,0.35,1.2,41,0.5,,,,,,,,,,,,,,,,,,,,,,,,,,,,,,,,,,,,,,,,,,,,,
,,,,,V3_064,20,Female,2024-11-14_17h16.57.286,jersey_experiment_5_v3,2023.2.2,Win32,85.47008547,,,,,,,,,,,,,,,,200.8061,202.0998,202.0999,206.3589,return,1.8749,,72.91666667,0,23,23,42,1,FBP-OG-19.png,0.4,1.2,43,0.5,,,,,,,,,,,,,,,,,,,,,,,,,,,,,,,,,,,,,,,,,,,,,
,,,,,V3_064,20,Female,2024-11-14_17h16.57.286,jersey_experiment_5_v3,2023.2.2,Win32,85.47008547,,,,,,,,,,,,,,,,206.3591,207.9118,207.9118,212.1238,return,1.4125,,24.86979167,0,24,24,26,1,FBP-PT-19.png,0.37,1.2,27,0.75,,,,,,,,,,,,,,,,,,,,,,,,,,,,,,,,,,,,,,,,,,,,,
,,,,,V3_064,20,Female,2024-11-14_17h16.57.286,jersey_experiment_5_v3,2023.2.2,Win32,85.47008547,,,,,,,,,,,,,,,,212.124,213.6768,213.6768,217.4652,return,1.2612,,18.75,0,25,25,45,1,FBP-RB-17.png,0.35,1.2,46,0.75,,,,,,,,,,,,,,,,,,,,,,,,,,,,,,,,,,,,,,,,,,,,,
,,,,,V3_064,20,Female,2024-11-14_17h16.57.286,jersey_experiment_5_v3,2023.2.2,Win32,85.47008547,,,,,,,,,,,,,,,,217.4654,218.7594,218.7594,223.6536,return,2.1716,,76.82291667,0,26,26,38,1,FBP-OG-18.png,0.43,1.2,39,0.5,,,,,,,,,,,,,,,,,,,,,,,,,,,,,,,,,,,,,,,,,,,,,
,,,,,V3_064,20,Female,2024-11-14_17h16.57.286,jersey_experiment_5_v3,2023.2.2,Win32,85.47008547,,,,,,,,,,,,,,,,223.6539,225.2066,225.2067,229.3479,return,1.9936,,77.734375,0,27,27,23,1,FBP-PT-18.png,0.43,1.2,24,0.75,,,,,,,,,,,,,,,,,,,,,,,,,,,,,,,,,,,,,,,,,,,,,
,,,,,V3_064,20,Female,2024-11-14_17h16.57.286,jersey_experiment_5_v3,2023.2.2,Win32,85.47008547,,,,,,,,,,,,,,,,229.3482,230.9009,230.9011,234.7483,return,1.616,,21.484375,0,28,28,50,1,FBP-RB-18.png,0.35,1.2,51,0.75,,,,,,,,,,,,,,,,,,,,,,,,,,,,,,,,,,,,,,,,,,,,,
,,,,,V3_064,20,Female,2024-11-14_17h16.57.286,jersey_experiment_5_v3,2023.2.2,Win32,85.47008547,,,,,,,,,,,,,,,,234.7484,236.3011,236.3012,240.925,return,2.5741,,83.07291667,0,29,29,14,1,FBP-YG-91.png,0.45,1.2,15,0.75,,,,,,,,,,,,,,,,,,,,,,,,,,,,,,,,,,,,,,,,,,,,,
,,,,,V3_064,20,Female,2024-11-14_17h16.57.286,jersey_experiment_5_v3,2023.2.2,Win32,85.47008547,,,,,,,,,,,,,,,,240.9252,242.4778,242.4779,247.0546,return,1.4727,,85.67708333,0,30,30,4,1,FBP-YG-71.png,0.45,1.2,5,0.75,,,,,,,,,,,,,,,,,,,,,,,,,,,,,,,,,,,,,,,,,,,,,
,,,,,V3_064,20,Female,2024-11-14_17h16.57.286,jersey_experiment_5_v3,2023.2.2,Win32,85.47008547,,,,,,,,,,,,,,,,247.0548,248.6075,248.6075,255.4667,return,2.4021,,29.03645833,0,31,31,46,1,FBP-RB-17.png,0.37,1.2,47,0.75,,,,,,,,,,,,,,,,,,,,,,,,,,,,,,,,,,,,,,,,,,,,,
,,,,,V3_064,20,Female,2024-11-14_17h16.57.286,jersey_experiment_5_v3,2023.2.2,Win32,85.47008547,,,,,,,,,,,,,,,,255.4669,257.0195,257.0195,260.7491,return,1.7192,,78.90625,0,32,32,49,1,FBP-RB-17.png,0.45,1.2,50,0.75,,,,,,,,,,,,,,,,,,,,,,,,,,,,,,,,,,,,,,,,,,,,,
,,,,,V3_064,20,Female,2024-11-14_17h16.57.286,jersey_experiment_5_v3,2023.2.2,Win32,85.47008547,,,,,,,,,,,,,,,,260.7493,262.3021,262.3022,266.4435,return,1.8954,,80.59895833,0,33,33,24,1,FBP-PT-18.png,0.45,1.2,25,0.75,,,,,,,,,,,,,,,,,,,,,,,,,,,,,,,,,,,,,,,,,,,,,
,,,,,V3_064,20,Female,2024-11-14_17h16.57.286,jersey_experiment_5_v3,2023.2.2,Win32,85.47008547,,,,,,,,,,,,,,,,266.4438,267.9965,267.9965,276.232,return,1.3811,,21.09375,0,34,34,11,1,FBP-YG-91.png,0.37,1.2,12,0.75,,,,,,,,,,,,,,,,,,,,,,,,,,,,,,,,,,,,,,,,,,,,,
,,,,,V3_064,20,Female,2024-11-14_17h16.57.286,jersey_experiment_5_v3,2023.2.2,Win32,85.47008547,,,,,,,,,,,,,,,,276.2323,277.785,277.7851,281.6089,return,1.8003,,3.90625,0,35,35,20,1,FBP-PT-18.png,0.35,1.2,21,0.75,,,,,,,,,,,,,,,,,,,,,,,,,,,,,,,,,,,,,,,,,,,,,
,,,,,V3_064,20,Female,2024-11-14_17h16.57.286,jersey_experiment_5_v3,2023.2.2,Win32,85.47008547,,,,,,,,,,,,,,,,281.6091,283.1616,283.1617,286.1735,return,1.5148,,3.90625,0,36,36,15,1,FBP-PT-17.png,0.35,1.2,16,0.75,,,,,,,,,,,,,,,,,,,,,,,,,,,,,,,,,,,,,,,,,,,,,
,,,,,V3_064,20,Female,2024-11-14_17h16.57.286,jersey_experiment_5_v3,2023.2.2,Win32,85.47008547,,,,,,,,,,,,,,,,286.1738,287.7267,287.7268,292.362,return,2.105,,74.86979167,0,37,37,7,1,FBP-YG-81.png,0.4,1.2,8,0.75,,,,,,,,,,,,,,,,,,,,,,,,,,,,,,,,,,,,,,,,,,,,,
,,,,,V3_064,20,Female,2024-11-14_17h16.57.286,jersey_experiment_5_v3,2023.2.2,Win32,85.47008547,,,,,,,,,,,,,,,,292.3622,293.9151,293.9151,299.0917,return,2.5974,,80.33854167,0,38,38,18,1,FBP-PT-17.png,0.43,1.2,19,0.75,,,,,,,,,,,,,,,,,,,,,,,,,,,,,,,,,,,,,,,,,,,,,
,,,,,V3_064,20,Female,2024-11-14_17h16.57.286,jersey_experiment_5_v3,2023.2.2,Win32,85.47008547,,,,,,,,,,,,,,,,299.0919,300.6447,300.6447,305.4802,return,2.2514,,74.73958333,0,39,39,1,1,FBP-YG-71.png,0.37,1.2,2,0.75,,,,,,,,,,,,,,,,,,,,,,,,,,,,,,,,,,,,,,,,,,,,,
,,,,,V3_064,20,Female,2024-11-14_17h16.57.286,jersey_experiment_5_v3,2023.2.2,Win32,85.47008547,,,,,,,,,,,,,,,,305.4806,307.033,307.0331,310.9156,return,2.0444,,81.90104167,0,40,40,13,1,FBP-YG-91.png,0.43,1.2,14,0.75,,,,,,,,,,,,,,,,,,,,,,,,,,,,,,,,,,,,,,,,,,,,,
,,,,,V3_064,20,Female,2024-11-14_17h16.57.286,jersey_experiment_5_v3,2023.2.2,Win32,85.47008547,,,,,,,,,,,,,,,,310.9158,312.4687,312.4687,317.5278,return,1.8286,,83.984375,0,41,41,9,1,FBP-YG-81.png,0.45,1.2,10,0.75,,,,,,,,,,,,,,,,,,,,,,,,,,,,,,,,,,,,,,,,,,,,,
,,,,,V3_064,20,Female,2024-11-14_17h16.57.286,jersey_experiment_5_v3,2023.2.2,Win32,85.47008547,,,,,,,,,,,,,,,,317.5282,319.0808,319.0808,323.1279,return,2.0984,,79.296875,0,42,42,57,1,FBP-RB-19.png,0.4,1.2,58,0.75,,,,,,,,,,,,,,,,,,,,,,,,,,,,,,,,,,,,,,,,,,,,,
,,,,,V3_064,20,Female,2024-11-14_17h16.57.286,jersey_experiment_5_v3,2023.2.2,Win32,85.47008547,,,,,,,,,,,,,,,,323.1282,324.6809,324.681,329.1164,return,1.7886,,79.296875,0,43,43,58,1,FBP-RB-19.png,0.43,1.2,59,0.75,,,,,,,,,,,,,,,,,,,,,,,,,,,,,,,,,,,,,,,,,,,,,
,,,,,V3_064,20,Female,2024-11-14_17h16.57.286,jersey_experiment_5_v3,2023.2.2,Win32,85.47008547,,,,,,,,,,,,,,,,329.1166,330.4106,330.4106,336.1991,return,2.8294,,5.208333333,0,44,44,36,1,FBP-OG-18.png,0.37,1.2,37,0.5,,,,,,,,,,,,,,,,,,,,,,,,,,,,,,,,,,,,,,,,,,,,,
,,,,,V3_064,20,Female,2024-11-14_17h16.57.286,jersey_experiment_5_v3,2023.2.2,Win32,85.47008547,,,,,,,,,,,,,,,,336.1995,337.4932,337.4933,342.105,return,2.1768,,4.6875,0,45,45,30,1,FBP-OG-17.png,0.35,1.2,31,0.5,,,,,,,,,,,,,,,,,,,,,,,,,,,,,,,,,,,,,,,,,,,,,
,,,,,V3_064,20,Female,2024-11-14_17h16.57.286,jersey_experiment_5_v3,2023.2.2,Win32,85.47008547,,,,,,,,,,,,,,,,342.1055,343.658,343.6581,347.9643,return,1.9628,,74.86979167,0,46,46,28,1,FBP-PT-19.png,0.43,1.2,29,0.75,,,,,,,,,,,,,,,,,,,,,,,,,,,,,,,,,,,,,,,,,,,,,
,,,,,V3_064,20,Female,2024-11-14_17h16.57.286,jersey_experiment_5_v3,2023.2.2,Win32,85.47008547,,,,,,,,,,,,,,,,347.9645,349.5171,349.5172,354.8703,return,2.9226,,74.86979167,0,47,47,47,1,FBP-RB-17.png,0.4,1.2,48,0.75,,,,,,,,,,,,,,,,,,,,,,,,,,,,,,,,,,,,,,,,,,,,,
,,,,,V3_064,20,Female,2024-11-14_17h16.57.286,jersey_experiment_5_v3,2023.2.2,Win32,85.47008547,,,,,,,,,,,,,,,,354.8706,356.4232,356.4232,360.5645,return,2.0749,,80.20833333,0,48,48,59,1,FBP-RB-19.png,0.45,1.2,60,0.75,,,,,,,,,,,,,,,,,,,,,,,,,,,,,,,,,,,,,,,,,,,,,
,,,,,V3_064,20,Female,2024-11-14_17h16.57.286,jersey_experiment_5_v3,2023.2.2,Win32,85.47008547,,,,,,,,,,,,,,,,360.5648,362.1176,362.1176,365.9177,return,1.6001,,80.20833333,0,49,49,29,1,FBP-PT-19.png,0.45,1.2,30,0.75,,,,,,,,,,,,,,,,,,,,,,,,,,,,,,,,,,,,,,,,,,,,,
,,,,,V3_064,20,Female,2024-11-14_17h16.57.286,jersey_experiment_5_v3,2023.2.2,Win32,85.47008547,,,,,,,,,,,,,,,,365.9181,367.2119,367.212,371.9297,return,2.6037,,80.20833333,0,50,50,34,1,FBP-OG-17.png,0.45,1.2,35,0.5,,,,,,,,,,,,,,,,,,,,,,,,,,,,,,,,,,,,,,,,,,,,,
,,,,,V3_064,20,Female,2024-11-14_17h16.57.286,jersey_experiment_5_v3,2023.2.2,Win32,85.47008547,,,,,,,,,,,,,,,,371.93,373.4828,373.4828,377.9653,return,2.2592,,80.33854167,0,51,51,48,1,FBP-RB-17.png,0.43,1.2,49,0.75,,,,,,,,,,,,,,,,,,,,,,,,,,,,,,,,,,,,,,,,,,,,,
,,,,,V3_064,20,Female,2024-11-14_17h16.57.286,jersey_experiment_5_v3,2023.2.2,Win32,85.47008547,,,,,,,,,,,,,,,,377.9657,379.5182,379.5183,385.2947,return,2.1653,,80.859375,0,52,52,52,1,FBP-RB-18.png,0.4,1.2,53,0.75,,,,,,,,,,,,,,,,,,,,,,,,,,,,,,,,,,,,,,,,,,,,,
,,,,,V3_064,20,Female,2024-11-14_17h16.57.286,jersey_experiment_5_v3,2023.2.2,Win32,85.47008547,,,,,,,,,,,,,,,,385.295,386.8479,386.8479,392.5069,return,3.0372,,74.609375,0,53,53,17,1,FBP-PT-17.png,0.4,1.2,18,0.75,,,,,,,,,,,,,,,,,,,,,,,,,,,,,,,,,,,,,,,,,,,,,
,,,,,V3_064,20,Female,2024-11-14_17h16.57.286,jersey_experiment_5_v3,2023.2.2,Win32,85.47008547,,,,,,,,,,,,,,,,392.5072,393.8013,393.8013,398.7189,return,2.0237,,80.20833333,0,54,54,44,1,FBP-OG-19.png,0.45,1.2,45,0.5,,,,,,,,,,,,,,,,,,,,,,,,,,,,,,,,,,,,,,,,,,,,,
,,,,,V3_064,20,Female,2024-11-14_17h16.57.286,jersey_experiment_5_v3,2023.2.2,Win32,85.47008547,,,,,,,,,,,,,,,,398.7192,400.2719,400.272,404.1547,return,1.5787,,18.09895833,0,55,55,10,1,FBP-YG-91.png,0.35,1.2,11,0.75,,,,,,,,,,,,,,,,,,,,,,,,,,,,,,,,,,,,,,,,,,,,,
,,,,,V3_064,20,Female,2024-11-14_17h16.57.286,jersey_experiment_5_v3,2023.2.2,Win32,85.47008547,,,,,,,,,,,,,,,,404.155,405.7074,405.7074,413.1312,return,1.6841,,28.90625,0,56,56,22,1,FBP-PT-18.png,0.4,1.2,23,0.75,,,,,,,,,,,,,,,,,,,,,,,,,,,,,,,,,,,,,,,,,,,,,
,,,,,V3_064,20,Female,2024-11-14_17h16.57.286,jersey_experiment_5_v3,2023.2.2,Win32,85.47008547,,,,,,,,,,,,,,,,413.1315,414.6842,414.6842,419.5078,return,1.0898,,29.6875,0,57,57,55,1,FBP-RB-19.png,0.35,1.2,56,0.75,,,,,,,,,,,,,,,,,,,,,,,,,,,,,,,,,,,,,,,,,,,,,
,,,,,V3_064,20,Female,2024-11-14_17h16.57.286,jersey_experiment_5_v3,2023.2.2,Win32,85.47008547,,,,,,,,,,,,,,,,419.5081,421.0609,421.0609,426.2493,return,2.2961,,70.57291667,0,58,58,27,1,FBP-PT-19.png,0.4,1.2,28,0.75,,,,,,,,,,,,,,,,,,,,,,,,,,,,,,,,,,,,,,,,,,,,,
,,,,,V3_064,20,Female,2024-11-14_17h16.57.286,jersey_experiment_5_v3,2023.2.2,Win32,85.47008547,,,,,,,,,,,,,,,,426.2495,427.5435,427.5435,435.591,return,5.6533,,24.73958333,0,59,59,35,1,FBP-OG-18.png,0.35,1.2,36,0.5,,,,,,,,,,,,,,,,,,,,,,,,,,,,,,,,,,,,,,,,,,,,,
,,,,,V3_064,20,Female,2024-11-14_17h16.57.286,jersey_experiment_5_v3,2023.2.2,Win32,85.47008547,,,,,,,,,,,,,,,,435.5928,437.1438,437.1438,441.6735,return,1.9298,,83.72395833,,,,,,FBP-YG-17.png,0.45,1.2,5,0.75,0,0,0,4,1,,,,,,,,,,,,,,,,,,,,,,,,,,,,,,,,,,,,,,,,
,,,,,V3_064,20,Female,2024-11-14_17h16.57.286,jersey_experiment_5_v3,2023.2.2,Win32,85.47008547,,,,,,,,,,,,,,,,441.6738,443.2264,443.2264,448.4385,return,1.0995,,71.61458333,,,,,,FBP-YG-18.png,0.37,1.2,7,0.75,0,1,1,6,1,,,,,,,,,,,,,,,,,,,,,,,,,,,,,,,,,,,,,,,,
,,,,,V3_064,20,Female,2024-11-14_17h16.57.286,jersey_experiment_5_v3,2023.2.2,Win32,85.47008547,,,,,,,,,,,,,,,,448.4387,449.7326,449.7327,456.8623,return,4.9652,,81.90104167,,,,,,FBP-OG-91.png,0.45,1.2,45,0.5,0,2,2,44,1,,,,,,,,,,,,,,,,,,,,,,,,,,,,,,,,,,,,,,,,
,,,,,V3_064,20,Female,2024-11-14_17h16.57.286,jersey_experiment_5_v3,2023.2.2,Win32,85.47008547,,,,,,,,,,,,,,,,456.8627,458.4153,458.4154,462.0389,return,1.2293,,19.921875,,,,,,FBP-YG-19.png,0.35,1.2,11,0.75,0,3,3,10,1,,,,,,,,,,,,,,,,,,,,,,,,,,,,,,,,,,,,,,,,
,,,,,V3_064,20,Female,2024-11-14_17h16.57.286,jersey_experiment_5_v3,2023.2.2,Win32,85.47008547,,,,,,,,,,,,,,,,462.0391,463.333,463.3331,469.3333,return,3.9477,,80.46875,,,,,,FBP-OG-71.png,0.45,1.2,35,0.5,0,4,4,34,1,,,,,,,,,,,,,,,,,,,,,,,,,,,,,,,,,,,,,,,,
,,,,,V3_064,20,Female,2024-11-14_17h16.57.286,jersey_experiment_5_v3,2023.2.2,Win32,85.47008547,,,,,,,,,,,,,,,,469.3336,470.8864,470.8864,473.9452,return,1.8478,,80.72916667,,,,,,FBP-YG-17.png,0.4,1.2,3,0.75,0,5,5,2,1,,,,,,,,,,,,,,,,,,,,,,,,,,,,,,,,,,,,,,,,
,,,,,V3_064,20,Female,2024-11-14_17h16.57.286,jersey_experiment_5_v3,2023.2.2,Win32,85.47008547,,,,,,,,,,,,,,,,473.9455,475.4983,475.4984,479.5573,return,1.7368,,69.79166667,,,,,,FBP-PT-81.png,0.37,1.2,22,0.75,0,6,6,21,1,,,,,,,,,,,,,,,,,,,,,,,,,,,,,,,,,,,,,,,,
,,,,,V3_064,20,Female,2024-11-14_17h16.57.286,jersey_experiment_5_v3,2023.2.2,Win32,85.47008547,,,,,,,,,,,,,,,,479.5576,481.1102,481.1103,486.0752,return,2.2743,,20.3125,,,,,,FBP-YG-18.png,0.35,1.2,6,0.75,0,7,7,5,1,,,,,,,,,,,,,,,,,,,,,,,,,,,,,,,,,,,,,,,,
,,,,,V3_064,20,Female,2024-11-14_17h16.57.286,jersey_experiment_5_v3,2023.2.2,Win32,85.47008547,,,,,,,,,,,,,,,,486.0754,487.6282,487.6283,491.9577,return,1.252,,74.86979167,,,,,,FBP-YG-18.png,0.4,1.2,8,0.75,0,8,8,7,1,,,,,,,,,,,,,,,,,,,,,,,,,,,,,,,,,,,,,,,,
,,,,,V3_064,20,Female,2024-11-14_17h16.57.286,jersey_experiment_5_v3,2023.2.2,Win32,85.47008547,,,,,,,,,,,,,,,,491.9581,493.5107,493.5108,496.8403,return,1.5441,,82.94270833,,,,,,FBP-YG-19.png,0.45,1.2,15,0.75,0,9,9,14,1,,,,,,,,,,,,,,,,,,,,,,,,,,,,,,,,,,,,,,,,
,,,,,V3_064,20,Female,2024-11-14_17h16.57.286,jersey_experiment_5_v3,2023.2.2,Win32,85.47008547,,,,,,,,,,,,,,,,496.8407,498.3932,498.3933,501.1815,return,2.1654,,84.50520833,,,,,,FBP-YG-17.png,0.43,1.2,4,0.75,0,10,10,3,1,,,,,,,,,,,,,,,,,,,,,,,,,,,,,,,,,,,,,,,,
,,,,,V3_064,20,Female,2024-11-14_17h16.57.286,jersey_experiment_5_v3,2023.2.2,Win32,85.47008547,,,,,,,,,,,,,,,,501.1818,502.7346,502.7346,508.2641,return,1.2031,,21.875,,,,,,FBP-RB-81.png,0.35,1.2,51,0.75,0,11,11,50,1,,,,,,,,,,,,,,,,,,,,,,,,,,,,,,,,,,,,,,,,
,,,,,V3_064,20,Female,2024-11-14_17h16.57.286,jersey_experiment_5_v3,2023.2.2,Win32,85.47008547,,,,,,,,,,,,,,,,508.2645,509.5584,509.5585,513.782,return,1.3714,,74.86979167,,,,,,FBP-OG-91.png,0.4,1.2,43,0.5,0,12,12,42,1,,,,,,,,,,,,,,,,,,,,,,,,,,,,,,,,,,,,,,,,
,,,,,V3_064,20,Female,2024-11-14_17h16.57.286,jersey_experiment_5_v3,2023.2.2,Win32,85.47008547,,,,,,,,,,,,,,,,513.7824,515.3351,515.3351,520.5236,return,2.495,,72.13541667,,,,,,FBP-YG-17.png,0.37,1.2,2,0.75,0,13,13,1,1,,,,,,,,,,,,,,,,,,,,,,,,,,,,,,,,,,,,,,,,
,,,,,V3_064,20,Female,2024-11-14_17h16.57.286,jersey_experiment_5_v3,2023.2.2,Win32,85.47008547,,,,,,,,,,,,,,,,520.5239,521.8176,521.8176,525.8294,return,1.7248,,71.61458333,,,,,,FBP-OG-71.png,0.4,1.2,33,0.5,0,14,14,32,1,,,,,,,,,,,,,,,,,,,,,,,,,,,,,,,,,,,,,,,,
,,,,,V3_064,20,Female,2024-11-14_17h16.57.286,jersey_experiment_5_v3,2023.2.2,Win32,85.47008547,,,,,,,,,,,,,,,,525.8297,527.3826,527.3827,531.1121,return,1.7103,,82.68229167,,,,,,FBP-PT-71.png,0.45,1.2,20,0.75,0,15,15,19,1,,,,,,,,,,,,,,,,,,,,,,,,,,,,,,,,,,,,,,,,
,,,,,V3_064,20,Female,2024-11-14_17h16.57.286,jersey_experiment_5_v3,2023.2.2,Win32,85.47008547,,,,,,,,,,,,,,,,531.1123,532.665,532.665,537.9241,return,1.9959,,77.99479167,,,,,,FBP-PT-71.png,0.4,1.2,18,0.75,0,16,16,17,1,,,,,,,,,,,,,,,,,,,,,,,,,,,,,,,,,,,,,,,,
,,,,,V3_064,20,Female,2024-11-14_17h16.57.286,jersey_experiment_5_v3,2023.2.2,Win32,85.47008547,,,,,,,,,,,,,,,,537.9244,539.4771,539.4771,542.9478,return,1.4423,,77.99479167,,,,,,FBP-PT-81.png,0.4,1.2,23,0.75,0,17,17,22,1,,,,,,,,,,,,,,,,,,,,,,,,,,,,,,,,,,,,,,,,
,,,,,V3_064,20,Female,2024-11-14_17h16.57.286,jersey_experiment_5_v3,2023.2.2,Win32,85.47008547,,,,,,,,,,,,,,,,542.9482,544.5008,544.5009,548.0773,return,1.5083,,19.66145833,,,,,,FBP-RB-91.png,0.35,1.2,56,0.75,0,18,18,55,1,,,,,,,,,,,,,,,,,,,,,,,,,,,,,,,,,,,,,,,,
,,,,,V3_064,20,Female,2024-11-14_17h16.57.286,jersey_experiment_5_v3,2023.2.2,Win32,85.47008547,,,,,,,,,,,,,,,,548.0776,549.6304,549.6305,553.6542,return,1.9569,,79.42708333,,,,,,FBP-RB-91.png,0.43,1.2,59,0.75,0,19,19,58,1,,,,,,,,,,,,,,,,,,,,,,,,,,,,,,,,,,,,,,,,
,,,,,V3_064,20,Female,2024-11-14_17h16.57.286,jersey_experiment_5_v3,2023.2.2,Win32,85.47008547,,,,,,,,,,,,,,,,553.6544,555.2072,555.2072,559.1955,return,2.3175,,84.11458333,,,,,,FBP-YG-18.png,0.45,1.2,10,0.75,0,20,20,9,1,,,,,,,,,,,,,,,,,,,,,,,,,,,,,,,,,,,,,,,,
,,,,,V3_064,20,Female,2024-11-14_17h16.57.286,jersey_experiment_5_v3,2023.2.2,Win32,85.47008547,,,,,,,,,,,,,,,,559.1958,560.7485,560.7485,563.7015,return,1.5483,,84.11458333,,,,,,FBP-YG-19.png,0.4,1.2,13,0.75,0,21,21,12,1,,,,,,,,,,,,,,,,,,,,,,,,,,,,,,,,,,,,,,,,
,,,,,V3_064,20,Female,2024-11-14_17h16.57.286,jersey_experiment_5_v3,2023.2.2,Win32,85.47008547,,,,,,,,,,,,,,,,563.7017,565.2546,565.2547,570.6548,return,1.3517,,80.59895833,,,,,,FBP-PT-91.png,0.4,1.2,28,0.75,0,22,22,27,1,,,,,,,,,,,,,,,,,,,,,,,,,,,,,,,,,,,,,,,,
,,,,,V3_064,20,Female,2024-11-14_17h16.57.286,jersey_experiment_5_v3,2023.2.2,Win32,85.47008547,,,,,,,,,,,,,,,,570.655,572.2078,572.2078,575.8783,return,1.1932,,70.3125,,,,,,FBP-PT-71.png,0.37,1.2,17,0.75,0,23,23,16,1,,,,,,,,,,,,,,,,,,,,,,,,,,,,,,,,,,,,,,,,
,,,,,V3_064,20,Female,2024-11-14_17h16.57.286,jersey_experiment_5_v3,2023.2.2,Win32,85.47008547,,,,,,,,,,,,,,,,575.8786,577.4315,577.4315,581.8317,return,2.9803,,70.3125,,,,,,FBP-YG-17.png,0.35,1.2,1,0.75,0,24,24,0,1,,,,,,,,,,,,,,,,,,,,,,,,,,,,,,,,,,,,,,,,
,,,,,V3_064,20,Female,2024-11-14_17h16.57.286,jersey_experiment_5_v3,2023.2.2,Win32,85.47008547,,,,,,,,,,,,,,,,581.8319,583.3846,583.3848,587.4201,return,1.5441,,82.29166667,,,,,,FBP-PT-91.png,0.43,1.2,29,0.75,0,25,25,28,1,,,,,,,,,,,,,,,,,,,,,,,,,,,,,,,,,,,,,,,,
,,,,,V3_064,20,Female,2024-11-14_17h16.57.286,jersey_experiment_5_v3,2023.2.2,Win32,85.47008547,,,,,,,,,,,,,,,,587.4203,588.7142,588.7143,592.2321,return,1.0955,,83.984375,,,,,,FBP-OG-91.png,0.43,1.2,44,0.5,0,26,26,43,1,,,,,,,,,,,,,,,,,,,,,,,,,,,,,,,,,,,,,,,,
,,,,,V3_064,20,Female,2024-11-14_17h16.57.286,jersey_experiment_5_v3,2023.2.2,Win32,85.47008547,,,,,,,,,,,,,,,,592.2326,593.785,593.7851,597.6794,return,1.9744,,80.078125,,,,,,FBP-RB-81.png,0.37,1.2,52,0.75,0,27,27,51,1,,,,,,,,,,,,,,,,,,,,,,,,,,,,,,,,,,,,,,,,
,,,,,V3_064,20,Female,2024-11-14_17h16.57.286,jersey_experiment_5_v3,2023.2.2,Win32,85.47008547,,,,,,,,,,,,,,,,597.6797,599.2324,599.2324,602.9268,return,2.2123,,80.078125,,,,,,FBP-RB-91.png,0.37,1.2,57,0.75,0,28,28,56,1,,,,,,,,,,,,,,,,,,,,,,,,,,,,,,,,,,,,,,,,
,,,,,V3_064,20,Female,2024-11-14_17h16.57.286,jersey_experiment_5_v3,2023.2.2,Win32,85.47008547,,,,,,,,,,,,,,,,602.9271,604.4797,604.4797,609.127,return,1.993,,85.546875,,,,,,FBP-RB-71.png,0.45,1.2,50,0.75,0,29,29,49,1,,,,,,,,,,,,,,,,,,,,,,,,,,,,,,,,,,,,,,,,
,,,,,V3_064,20,Female,2024-11-14_17h16.57.286,jersey_experiment_5_v3,2023.2.2,Win32,85.47008547,,,,,,,,,,,,,,,,609.1272,610.6798,610.6799,613.8447,return,1.2906,,86.328125,,,,,,FBP-YG-19.png,0.43,1.2,14,0.75,0,30,30,13,1,,,,,,,,,,,,,,,,,,,,,,,,,,,,,,,,,,,,,,,,
,,,,,V3_064,20,Female,2024-11-14_17h16.57.286,jersey_experiment_5_v3,2023.2.2,Win32,85.47008547,,,,,,,,,,,,,,,,613.8451,615.1388,615.1389,619.2213,return,1.2076,,82.29166667,,,,,,FBP-OG-81.png,0.4,1.2,38,0.5,0,31,31,37,1,,,,,,,,,,,,,,,,,,,,,,,,,,,,,,,,,,,,,,,,
,,,,,V3_064,20,Female,2024-11-14_17h16.57.286,jersey_experiment_5_v3,2023.2.2,Win32,85.47008547,,,,,,,,,,,,,,,,619.2215,620.7743,620.7744,623.5509,return,0.9759,,85.80729167,,,,,,FBP-RB-81.png,0.43,1.2,54,0.75,0,32,32,53,1,,,,,,,,,,,,,,,,,,,,,,,,,,,,,,,,,,,,,,,,
,,,,,V3_064,20,Female,2024-11-14_17h16.57.286,jersey_experiment_5_v3,2023.2.2,Win32,85.47008547,,,,,,,,,,,,,,,,623.5513,625.1039,625.104,627.398,return,1.2891,,85.80729167,,,,,,FBP-PT-81.png,0.43,1.2,24,0.75,0,33,33,23,1,,,,,,,,,,,,,,,,,,,,,,,,,,,,,,,,,,,,,,,,
,,,,,V3_064,20,Female,2024-11-14_17h16.57.286,jersey_experiment_5_v3,2023.2.2,Win32,85.47008547,,,,,,,,,,,,,,,,627.3983,628.951,628.9512,632.6219,return,0.9392,,67.44791667,,,,,,FBP-YG-19.png,0.37,1.2,12,0.75,0,34,34,11,1,,,,,,,,,,,,,,,,,,,,,,,,,,,,,,,,,,,,,,,,
,,,,,V3_064,20,Female,2024-11-14_17h16.57.286,jersey_experiment_5_v3,2023.2.2,Win32,85.47008547,,,,,,,,,,,,,,,,632.6221,634.1748,634.1748,639.5987,return,0.7765,,50.390625,,,,,,FBP-RB-71.png,0.37,1.2,47,0.75,0,35,35,46,1,,,,,,,,,,,,,,,,,,,,,,,,,,,,,,,,,,,,,,,,
,,,,,V3_064,20,Female,2024-11-14_17h16.57.286,jersey_experiment_5_v3,2023.2.2,Win32,85.47008547,,,,,,,,,,,,,,,,639.5989,641.1516,641.1517,648.2695,return,1.1204,,82.421875,,,,,,FBP-YG-18.png,0.43,1.2,9,0.75,0,36,36,8,1,,,,,,,,,,,,,,,,,,,,,,,,,,,,,,,,,,,,,,,,
,,,,,V3_064,20,Female,2024-11-14_17h16.57.286,jersey_experiment_5_v3,2023.2.2,Win32,85.47008547,,,,,,,,,,,,,,,,648.2698,649.5637,649.5637,653.2578,return,1.6391,,82.8125,,,,,,FBP-OG-81.png,0.43,1.2,39,0.5,0,37,37,38,1,,,,,,,,,,,,,,,,,,,,,,,,,,,,,,,,,,,,,,,,
,,,,,V3_064,20,Female,2024-11-14_17h16.57.286,jersey_experiment_5_v3,2023.2.2,Win32,85.47008547,,,,,,,,,,,,,,,,653.2581,654.8108,654.8109,658.2464,return,1.4771,,78.90625,,,,,,FBP-RB-71.png,0.4,1.2,48,0.75,0,38,38,47,1,,,,,,,,,,,,,,,,,,,,,,,,,,,,,,,,,,,,,,,,
,,,,,V3_064,20,Female,2024-11-14_17h16.57.286,jersey_experiment_5_v3,2023.2.2,Win32,85.47008547,,,,,,,,,,,,,,,,658.2468,659.5405,659.5405,665.223,return,2.7926,,86.328125,,,,,,FBP-OG-81.png,0.45,1.2,40,0.5,0,39,39,39,1,,,,,,,,,,,,,,,,,,,,,,,,,,,,,,,,,,,,,,,,
,,,,,V3_064,20,Female,2024-11-14_17h16.57.286,jersey_experiment_5_v3,2023.2.2,Win32,85.47008547,,,,,,,,,,,,,,,,665.2233,666.7761,666.7762,668.7761,return,0.946,,25.13020833,,,,,,FBP-RB-71.png,0.35,1.2,46,0.75,0,40,40,45,1,,,,,,,,,,,,,,,,,,,,,,,,,,,,,,,,,,,,,,,,
,,,,,V3_064,20,Female,2024-11-14_17h16.57.286,jersey_experiment_5_v3,2023.2.2,Win32,85.47008547,,,,,,,,,,,,,,,,668.7763,670.0703,670.0704,673.5646,return,1.7802,,24.34895833,,,,,,FBP-OG-81.png,0.35,1.2,36,0.5,0,41,41,35,1,,,,,,,,,,,,,,,,,,,,,,,,,,,,,,,,,,,,,,,,
,,,,,V3_064,20,Female,2024-11-14_17h16.57.286,jersey_experiment_5_v3,2023.2.2,Win32,85.47008547,,,,,,,,,,,,,,,,673.5649,675.1175,675.1176,679.1647,return,1.1061,,83.72395833,,,,,,FBP-RB-71.png,0.43,1.2,49,0.75,0,42,42,48,1,,,,,,,,,,,,,,,,,,,,,,,,,,,,,,,,,,,,,,,,
,,,,,V3_064,20,Female,2024-11-14_17h16.57.286,jersey_experiment_5_v3,2023.2.2,Win32,85.47008547,,,,,,,,,,,,,,,,679.165,680.7176,680.7176,690.1651,return,8.3479,,84.765625,,,,,,FBP-RB-91.png,0.4,1.2,58,0.75,0,43,43,57,1,,,,,,,,,,,,,,,,,,,,,,,,,,,,,,,,,,,,,,,,
,,,,,V3_064,20,Female,2024-11-14_17h16.57.286,jersey_experiment_5_v3,2023.2.2,Win32,85.47008547,,,,,,,,,,,,,,,,690.1655,691.7181,691.7181,694.2828,return,1.5785,,84.765625,,,,,,FBP-PT-91.png,0.45,1.2,30,0.75,0,44,44,29,1,,,,,,,,,,,,,,,,,,,,,,,,,,,,,,,,,,,,,,,,
,,,,,V3_064,20,Female,2024-11-14_17h16.57.286,jersey_experiment_5_v3,2023.2.2,Win32,85.47008547,,,,,,,,,,,,,,,,694.2832,695.836,695.8361,708.6365,return,0.7298,,49.73958333,,,,,,FBP-RB-91.png,0.45,1.2,60,0.75,0,45,45,59,1,,,,,,,,,,,,,,,,,,,,,,,,,,,,,,,,,,,,,,,,
,,,,,V3_064,20,Female,2024-11-14_17h16.57.286,jersey_experiment_5_v3,2023.2.2,Win32,85.47008547,,,,,,,,,,,,,,,,708.6369,709.9306,709.9306,711.9425,return,0.7005,,21.61458333,,,,,,FBP-OG-91.png,0.35,1.2,41,0.5,0,46,46,40,1,,,,,,,,,,,,,,,,,,,,,,,,,,,,,,,,,,,,,,,,
,,,,,V3_064,20,Female,2024-11-14_17h16.57.286,jersey_experiment_5_v3,2023.2.2,Win32,85.47008547,,,,,,,,,,,,,,,,711.9428,713.4953,713.4954,716.5661,return,0.7597,,25,,,,,,FBP-PT-91.png,0.35,1.2,26,0.75,0,47,47,25,1,,,,,,,,,,,,,,,,,,,,,,,,,,,,,,,,,,,,,,,,
,,,,,V3_064,20,Female,2024-11-14_17h16.57.286,jersey_experiment_5_v3,2023.2.2,Win32,85.47008547,,,,,,,,,,,,,,,,716.5664,718.1191,718.1192,720.778,return,1.7909,,24.86979167,,,,,,FBP-PT-71.png,0.35,1.2,16,0.75,0,48,48,15,1,,,,,,,,,,,,,,,,,,,,,,,,,,,,,,,,,,,,,,,,
,,,,,V3_064,20,Female,2024-11-14_17h16.57.286,jersey_experiment_5_v3,2023.2.2,Win32,85.47008547,,,,,,,,,,,,,,,,720.7784,722.3309,722.331,727.7194,return,1.7934,,83.46354167,,,,,,FBP-PT-81.png,0.45,1.2,25,0.75,0,49,49,24,1,,,,,,,,,,,,,,,,,,,,,,,,,,,,,,,,,,,,,,,,
,,,,,V3_064,20,Female,2024-11-14_17h16.57.286,jersey_experiment_5_v3,2023.2.2,Win32,85.47008547,,,,,,,,,,,,,,,,727.7197,729.0136,729.0137,732.202,return,1.5916,,83.46354167,,,,,,FBP-OG-71.png,0.43,1.2,34,0.5,0,50,50,33,1,,,,,,,,,,,,,,,,,,,,,,,,,,,,,,,,,,,,,,,,
,,,,,V3_064,20,Female,2024-11-14_17h16.57.286,jersey_experiment_5_v3,2023.2.2,Win32,85.47008547,,,,,,,,,,,,,,,,732.2023,733.7549,733.7549,737.7551,return,1.2499,,84.11458333,,,,,,FBP-RB-81.png,0.45,1.2,55,0.75,0,51,51,54,1,,,,,,,,,,,,,,,,,,,,,,,,,,,,,,,,,,,,,,,,
,,,,,V3_064,20,Female,2024-11-14_17h16.57.286,jersey_experiment_5_v3,2023.2.2,Win32,85.47008547,,,,,,,,,,,,,,,,737.7554,739.0494,739.0494,743.8495,return,2.1643,,19.01041667,,,,,,FBP-OG-71.png,0.35,1.2,31,0.5,0,52,52,30,1,,,,,,,,,,,,,,,,,,,,,,,,,,,,,,,,,,,,,,,,
,,,,,V3_064,20,Female,2024-11-14_17h16.57.286,jersey_experiment_5_v3,2023.2.2,Win32,85.47008547,,,,,,,,,,,,,,,,743.8498,745.4025,745.4026,748.8379,return,1.0882,,75.13020833,,,,,,FBP-RB-81.png,0.4,1.2,53,0.75,0,53,53,52,1,,,,,,,,,,,,,,,,,,,,,,,,,,,,,,,,,,,,,,,,
,,,,,V3_064,20,Female,2024-11-14_17h16.57.286,jersey_experiment_5_v3,2023.2.2,Win32,85.47008547,,,,,,,,,,,,,,,,748.8382,750.391,750.391,754.1086,return,1.2009,,79.42708333,,,,,,FBP-PT-71.png,0.43,1.2,19,0.75,0,54,54,18,1,,,,,,,,,,,,,,,,,,,,,,,,,,,,,,,,,,,,,,,,
,,,,,V3_064,20,Female,2024-11-14_17h16.57.286,jersey_experiment_5_v3,2023.2.2,Win32,85.47008547,,,,,,,,,,,,,,,,754.1091,755.4029,755.4029,759.5325,return,1.3284,,27.86458333,,,,,,FBP-OG-81.png,0.37,1.2,37,0.5,0,55,55,36,1,,,,,,,,,,,,,,,,,,,,,,,,,,,,,,,,,,,,,,,,
,,,,,V3_064,20,Female,2024-11-14_17h16.57.286,jersey_experiment_5_v3,2023.2.2,Win32,85.47008547,,,,,,,,,,,,,,,,759.5327,761.0854,761.0854,765.215,return,1.8958,,23.56770833,,,,,,FBP-PT-81.png,0.35,1.2,21,0.75,0,56,56,20,1,,,,,,,,,,,,,,,,,,,,,,,,,,,,,,,,,,,,,,,,
,,,,,V3_064,20,Female,2024-11-14_17h16.57.286,jersey_experiment_5_v3,2023.2.2,Win32,85.47008547,,,,,,,,,,,,,,,,765.2153,766.5091,766.5092,769.7212,return,1.5885,,23.56770833,,,,,,FBP-OG-71.png,0.37,1.2,32,0.5,0,57,57,31,1,,,,,,,,,,,,,,,,,,,,,,,,,,,,,,,,,,,,,,,,
,,,,,V3_064,20,Female,2024-11-14_17h16.57.286,jersey_experiment_5_v3,2023.2.2,Win32,85.47008547,,,,,,,,,,,,,,,,769.7215,771.2741,771.2742,775.7095,return,1.6002,,32.55208333,,,,,,FBP-PT-91.png,0.37,1.2,27,0.75,0,58,58,26,1,,,,,,,,,,,,,,,,,,,,,,,,,,,,,,,,,,,,,,,,
,,,,,V3_064,20,Female,2024-11-14_17h16.57.286,jersey_experiment_5_v3,2023.2.2,Win32,85.47008547,,,,,,,,,,,,,,,,775.7099,777.0037,777.0037,779.8039,return,1.2719,,32.55208333,,,,,,FBP-OG-91.png,0.37,1.2,42,0.5,0,59,59,41,1,,,,,,,,,,,,,,,,,,,,,,,,,,,,,,,,,,,,,,,,
,,,,,V3_064,20,Female,2024-11-14_17h16.57.286,jersey_experiment_5_v3,2023.2.2,Win32,85.47008547,,,,,,,,,,,,,,,,,,,,,,,,,,,,,,,,,,,,,,,779.804,899.7966,,,,,,,,,,,,,,,,,,,,,,,,,,,,,,,,,,,,,,
,,,,,V3_064,20,Female,2024-11-14_17h16.57.286,jersey_experiment_5_v3,2023.2.2,Win32,85.47008547,,,,,,,,,,,,,,,,,,,,,,,,,,,,,,,,,,,,,,,,,899.7967,907.8791,return,8.0728,,,,,,,,,,,,,,,,,,,,,,,,,,,,,,,,,,
,,,,,V3_064,20,Female,2024-11-14_17h16.57.286,jersey_experiment_5_v3,2023.2.2,Win32,85.47008547,,,,,,,,,,,,,,,,907.8804,909.1733,909.1734,913.8795,return,1.4641,,78.64583333,,,,,,FBP-YG-91.png,0.43,1.2,14,0.5,,,,,,,,,,,,,0,0,0,13,1,,,,,,,,,,,,,,,,,,,,,,,,,,,,
,,,,,V3_064,20,Female,2024-11-14_17h16.57.286,jersey_experiment_5_v3,2023.2.2,Win32,85.47008547,,,,,,,,,,,,,,,,913.8798,915.1734,915.1735,917.8442,return,1.3132,,81.25,,,,,,FBP-RB-17.png,0.43,1.2,49,0.5,,,,,,,,,,,,,0,1,1,48,1,,,,,,,,,,,,,,,,,,,,,,,,,,,,
,,,,,V3_064,20,Female,2024-11-14_17h16.57.286,jersey_experiment_5_v3,2023.2.2,Win32,85.47008547,,,,,,,,,,,,,,,,917.8444,919.3973,919.3974,922.3269,return,1.3358,,81.51041667,,,,,,FBP-OG-19.png,0.45,1.2,45,0.75,,,,,,,,,,,,,0,2,2,44,1,,,,,,,,,,,,,,,,,,,,,,,,,,,,
,,,,,V3_064,20,Female,2024-11-14_17h16.57.286,jersey_experiment_5_v3,2023.2.2,Win32,85.47008547,,,,,,,,,,,,,,,,922.3271,923.621,923.621,930.1976,return,4.3838,,25.13020833,,,,,,FBP-RB-18.png,0.37,1.2,52,0.5,,,,,,,,,,,,,0,3,3,51,1,,,,,,,,,,,,,,,,,,,,,,,,,,,,
,,,,,V3_064,20,Female,2024-11-14_17h16.57.286,jersey_experiment_5_v3,2023.2.2,Win32,85.47008547,,,,,,,,,,,,,,,,930.1978,931.4918,931.4919,934.6919,return,1.1489,,17.31770833,,,,,,FBP-PT-19.png,0.35,1.2,26,0.5,,,,,,,,,,,,,0,4,4,25,1,,,,,,,,,,,,,,,,,,,,,,,,,,,,
,,,,,V3_064,20,Female,2024-11-14_17h16.57.286,jersey_experiment_5_v3,2023.2.2,Win32,85.47008547,,,,,,,,,,,,,,,,934.6922,935.9862,935.9862,938.5744,return,1.012,,16.92708333,,,,,,FBP-RB-17.png,0.35,1.2,46,0.5,,,,,,,,,,,,,0,5,5,45,1,,,,,,,,,,,,,,,,,,,,,,,,,,,,
,,,,,V3_064,20,Female,2024-11-14_17h16.57.286,jersey_experiment_5_v3,2023.2.2,Win32,85.47008547,,,,,,,,,,,,,,,,938.5747,939.8687,939.8687,944.5864,return,2.0013,,80.72916667,,,,,,FBP-RB-17.png,0.45,1.2,50,0.5,,,,,,,,,,,,,0,6,6,49,1,,,,,,,,,,,,,,,,,,,,,,,,,,,,
,,,,,V3_064,20,Female,2024-11-14_17h16.57.286,jersey_experiment_5_v3,2023.2.2,Win32,85.47008547,,,,,,,,,,,,,,,,944.5866,945.8807,945.8807,948.9749,return,1.0597,,25.52083333,,,,,,FBP-YG-81.png,0.37,1.2,7,0.5,,,,,,,,,,,,,0,7,7,6,1,,,,,,,,,,,,,,,,,,,,,,,,,,,,
,,,,,V3_064,20,Female,2024-11-14_17h16.57.286,jersey_experiment_5_v3,2023.2.2,Win32,85.47008547,,,,,,,,,,,,,,,,948.9753,950.2691,950.2691,953.3515,return,1.4408,,24.34895833,,,,,,FBP-YG-91.png,0.35,1.2,11,0.5,,,,,,,,,,,,,0,8,8,10,1,,,,,,,,,,,,,,,,,,,,,,,,,,,,
,,,,,V3_064,20,Female,2024-11-14_17h16.57.286,jersey_experiment_5_v3,2023.2.2,Win32,85.47008547,,,,,,,,,,,,,,,,953.3519,954.9045,954.9045,958.0929,return,0.9664,,70.703125,,,,,,FBP-OG-17.png,0.4,1.2,33,0.75,,,,,,,,,,,,,0,9,9,32,1,,,,,,,,,,,,,,,,,,,,,,,,,,,,
,,,,,V3_064,20,Female,2024-11-14_17h16.57.286,jersey_experiment_5_v3,2023.2.2,Win32,85.47008547,,,,,,,,,,,,,,,,958.0932,959.6459,959.6459,961.8341,return,0.7775,,74.86979167,,,,,,FBP-OG-18.png,0.43,1.2,39,0.75,,,,,,,,,,,,,0,10,10,38,1,,,,,,,,,,,,,,,,,,,,,,,,,,,,
,,,,,V3_064,20,Female,2024-11-14_17h16.57.286,jersey_experiment_5_v3,2023.2.2,Win32,85.47008547,,,,,,,,,,,,,,,,961.8344,963.1286,963.1286,965.2224,return,0.8285,,77.34375,,,,,,FBP-RB-19.png,0.43,1.2,59,0.5,,,,,,,,,,,,,0,11,11,58,1,,,,,,,,,,,,,,,,,,,,,,,,,,,,
,,,,,V3_064,20,Female,2024-11-14_17h16.57.286,jersey_experiment_5_v3,2023.2.2,Win32,85.47008547,,,,,,,,,,,,,,,,965.2228,966.5168,966.5168,968.905,return,0.9314,,29.81770833,,,,,,FBP-PT-18.png,0.37,1.2,22,0.5,,,,,,,,,,,,,0,12,12,21,1,,,,,,,,,,,,,,,,,,,,,,,,,,,,
,,,,,V3_064,20,Female,2024-11-14_17h16.57.286,jersey_experiment_5_v3,2023.2.2,Win32,85.47008547,,,,,,,,,,,,,,,,968.9052,970.1993,970.1993,972.8935,return,0.9807,,81.51041667,,,,,,FBP-YG-81.png,0.43,1.2,9,0.5,,,,,,,,,,,,,0,13,13,8,1,,,,,,,,,,,,,,,,,,,,,,,,,,,,
,,,,,V3_064,20,Female,2024-11-14_17h16.57.286,jersey_experiment_5_v3,2023.2.2,Win32,85.47008547,,,,,,,,,,,,,,,,972.8938,974.1875,974.1875,977.3171,return,1.1961,,25,,,,,,FBP-YG-71.png,0.35,1.2,1,0.5,,,,,,,,,,,,,0,14,14,0,1,,,,,,,,,,,,,,,,,,,,,,,,,,,,
,,,,,V3_064,20,Female,2024-11-14_17h16.57.286,jersey_experiment_5_v3,2023.2.2,Win32,85.47008547,,,,,,,,,,,,,,,,977.3173,978.6112,978.6112,981.2114,return,1.0367,,74.609375,,,,,,FBP-YG-71.png,0.4,1.2,3,0.5,,,,,,,,,,,,,0,15,15,2,1,,,,,,,,,,,,,,,,,,,,,,,,,,,,
,,,,,V3_064,20,Female,2024-11-14_17h16.57.286,jersey_experiment_5_v3,2023.2.2,Win32,85.47008547,,,,,,,,,,,,,,,,981.2119,982.5056,982.5056,985.741,return,1.1067,,81.77083333,,,,,,FBP-YG-91.png,0.45,1.2,15,0.5,,,,,,,,,,,,,0,16,16,14,1,,,,,,,,,,,,,,,,,,,,,,,,,,,,
,,,,,V3_064,20,Female,2024-11-14_17h16.57.286,jersey_experiment_5_v3,2023.2.2,Win32,85.47008547,,,,,,,,,,,,,,,,985.7413,987.294,987.294,995.3885,return,6.5567,,24.73958333,,,,,,FBP-OG-18.png,0.35,1.2,36,0.75,,,,,,,,,,,,,0,17,17,35,1,,,,,,,,,,,,,,,,,,,,,,,,,,,,
,,,,,V3_064,20,Female,2024-11-14_17h16.57.286,jersey_experiment_5_v3,2023.2.2,Win32,85.47008547,,,,,,,,,,,,,,,,995.3888,996.9416,996.9416,999.5297,return,0.9429,,81.640625,,,,,,FBP-OG-17.png,0.45,1.2,35,0.75,,,,,,,,,,,,,0,18,18,34,1,,,,,,,,,,,,,,,,,,,,,,,,,,,,
,,,,,V3_064,20,Female,2024-11-14_17h16.57.286,jersey_experiment_5_v3,2023.2.2,Win32,85.47008547,,,,,,,,,,,,,,,,999.53,1000.8239,1000.8239,1004.2004,return,2.1454,,24.34895833,,,,,,FBP-YG-81.png,0.35,1.2,6,0.5,,,,,,,,,,,,,0,19,19,5,1,,,,,,,,,,,,,,,,,,,,,,,,,,,,
,,,,,V3_064,20,Female,2024-11-14_17h16.57.286,jersey_experiment_5_v3,2023.2.2,Win32,85.47008547,,,,,,,,,,,,,,,,1004.2007,1005.7536,1005.7536,1008.6006,return,0.875,,26.953125,,,,,,FBP-OG-17.png,0.37,1.2,32,0.75,,,,,,,,,,,,,0,20,20,31,1,,,,,,,,,,,,,,,,,,,,,,,,,,,,
,,,,,V3_064,20,Female,2024-11-14_17h16.57.286,jersey_experiment_5_v3,2023.2.2,Win32,85.47008547,,,,,,,,,,,,,,,,1008.6009,1009.8947,1009.8947,1013.2713,return,0.8983,,74.47916667,,,,,,FBP-PT-19.png,0.43,1.2,29,0.5,,,,,,,,,,,,,0,21,21,28,1,,,,,,,,,,,,,,,,,,,,,,,,,,,,
,,,,,V3_064,20,Female,2024-11-14_17h16.57.286,jersey_experiment_5_v3,2023.2.2,Win32,85.47008547,,,,,,,,,,,,,,,,1013.2716,1014.5654,1014.5655,1016.9067,return,0.8725,,72.39583333,,,,,,FBP-PT-19.png,0.37,1.2,27,0.5,,,,,,,,,,,,,0,22,22,26,1,,,,,,,,,,,,,,,,,,,,,,,,,,,,
,,,,,V3_064,20,Female,2024-11-14_17h16.57.286,jersey_experiment_5_v3,2023.2.2,Win32,85.47008547,,,,,,,,,,,,,,,,1016.907,1018.201,1018.201,1020.954,return,0.9676,,24.73958333,,,,,,FBP-RB-18.png,0.35,1.2,51,0.5,,,,,,,,,,,,,0,23,23,50,1,,,,,,,,,,,,,,,,,,,,,,,,,,,,
,,,,,V3_064,20,Female,2024-11-14_17h16.57.286,jersey_experiment_5_v3,2023.2.2,Win32,85.47008547,,,,,,,,,,,,,,,,1020.9543,1022.2483,1022.2483,1024.7189,return,0.8793,,82.16145833,,,,,,FBP-YG-71.png,0.45,1.2,5,0.5,,,,,,,,,,,,,0,24,24,4,1,,,,,,,,,,,,,,,,,,,,,,,,,,,,
,,,,,V3_064,20,Female,2024-11-14_17h16.57.286,jersey_experiment_5_v3,2023.2.2,Win32,85.47008547,,,,,,,,,,,,,,,,1024.7193,1026.0129,1026.013,1028.166,return,0.9363,,74.73958333,,,,,,FBP-RB-17.png,0.37,1.2,47,0.5,,,,,,,,,,,,,0,25,25,46,1,,,,,,,,,,,,,,,,,,,,,,,,,,,,
,,,,,V3_064,20,Female,2024-11-14_17h16.57.286,jersey_experiment_5_v3,2023.2.2,Win32,85.47008547,,,,,,,,,,,,,,,,1028.1662,1029.4602,1029.4603,1031.7544,return,0.8024,,81.11979167,,,,,,FBP-PT-17.png,0.45,1.2,20,0.5,,,,,,,,,,,,,0,26,26,19,1,,,,,,,,,,,,,,,,,,,,,,,,,,,,
,,,,,V3_064,20,Female,2024-11-14_17h16.57.286,jersey_experiment_5_v3,2023.2.2,Win32,85.47008547,,,,,,,,,,,,,,,,1031.7546,1033.0487,1033.0487,1034.8251,return,0.792,,81.77083333,,,,,,FBP-YG-71.png,0.43,1.2,4,0.5,,,,,,,,,,,,,0,27,27,3,1,,,,,,,,,,,,,,,,,,,,,,,,,,,,
,,,,,V3_064,20,Female,2024-11-14_17h16.57.286,jersey_experiment_5_v3,2023.2.2,Win32,85.47008547,,,,,,,,,,,,,,,,1034.8254,1036.1193,1036.1193,1039.1665,return,1.2819,,83.203125,,,,,,FBP-RB-18.png,0.43,1.2,54,0.5,,,,,,,,,,,,,0,28,28,53,1,,,,,,,,,,,,,,,,,,,,,,,,,,,,
,,,,,V3_064,20,Female,2024-11-14_17h16.57.286,jersey_experiment_5_v3,2023.2.2,Win32,85.47008547,,,,,,,,,,,,,,,,1039.1667,1040.4607,1040.4607,1043.5902,return,0.8637,,24.47916667,,,,,,FBP-PT-18.png,0.35,1.2,21,0.5,,,,,,,,,,,,,0,29,29,20,1,,,,,,,,,,,,,,,,,,,,,,,,,,,,
,,,,,V3_064,20,Female,2024-11-14_17h16.57.286,jersey_experiment_5_v3,2023.2.2,Win32,85.47008547,,,,,,,,,,,,,,,,1043.5904,1044.8844,1044.8844,1048.2964,return,0.7811,,28.64583333,,,,,,FBP-PT-17.png,0.43,1.2,19,0.5,,,,,,,,,,,,,0,30,30,18,1,,,,,,,,,,,,,,,,,,,,,,,,,,,,
,,,,,V3_064,20,Female,2024-11-14_17h16.57.286,jersey_experiment_5_v3,2023.2.2,Win32,85.47008547,,,,,,,,,,,,,,,,1048.2966,1049.5904,1049.5905,1052.4376,return,0.9954,,31.640625,,,,,,FBP-YG-71.png,0.37,1.2,2,0.5,,,,,,,,,,,,,0,31,31,1,1,,,,,,,,,,,,,,,,,,,,,,,,,,,,
,,,,,V3_064,20,Female,2024-11-14_17h16.57.286,jersey_experiment_5_v3,2023.2.2,Win32,85.47008547,,,,,,,,,,,,,,,,1052.4378,1053.7318,1053.7318,1057.3083,return,0.7168,,75.26041667,,,,,,FBP-YG-91.png,0.4,1.2,13,0.5,,,,,,,,,,,,,0,32,32,12,1,,,,,,,,,,,,,,,,,,,,,,,,,,,,
,,,,,V3_064,20,Female,2024-11-14_17h16.57.286,jersey_experiment_5_v3,2023.2.2,Win32,85.47008547,,,,,,,,,,,,,,,,1057.3085,1058.6025,1058.6026,1060.5085,return,0.9735,,74.86979167,,,,,,FBP-RB-19.png,0.4,1.2,58,0.5,,,,,,,,,,,,,0,33,33,57,1,,,,,,,,,,,,,,,,,,,,,,,,,,,,
,,,,,V3_064,20,Female,2024-11-14_17h16.57.286,jersey_experiment_5_v3,2023.2.2,Win32,85.47008547,,,,,,,,,,,,,,,,1060.5089,1062.0617,1062.0618,1065.144,return,1.7545,,24.86979167,,,,,,FBP-OG-19.png,0.35,1.2,41,0.75,,,,,,,,,,,,,0,34,34,40,1,,,,,,,,,,,,,,,,,,,,,,,,,,,,
,,,,,V3_064,20,Female,2024-11-14_17h16.57.286,jersey_experiment_5_v3,2023.2.2,Win32,85.47008547,,,,,,,,,,,,,,,,1065.1444,1066.4381,1066.4381,1068.8263,return,1.0579,,78.125,,,,,,FBP-PT-18.png,0.45,1.2,25,0.5,,,,,,,,,,,,,0,35,35,24,1,,,,,,,,,,,,,,,,,,,,,,,,,,,,
,,,,,V3_064,20,Female,2024-11-14_17h16.57.286,jersey_experiment_5_v3,2023.2.2,Win32,85.47008547,,,,,,,,,,,,,,,,1068.8265,1070.3793,1070.3793,1072.709,return,0.9699,,74.47916667,,,,,,FBP-OG-18.png,0.4,1.2,38,0.75,,,,,,,,,,,,,0,36,36,37,1,,,,,,,,,,,,,,,,,,,,,,,,,,,,
,,,,,V3_064,20,Female,2024-11-14_17h16.57.286,jersey_experiment_5_v3,2023.2.2,Win32,85.47008547,,,,,,,,,,,,,,,,1072.7093,1074.0031,1074.0032,1077.0033,return,1.0365,,78.38541667,,,,,,FBP-PT-18.png,0.43,1.2,24,0.5,,,,,,,,,,,,,0,37,37,23,1,,,,,,,,,,,,,,,,,,,,,,,,,,,,
,,,,,V3_064,20,Female,2024-11-14_17h16.57.286,jersey_experiment_5_v3,2023.2.2,Win32,85.47008547,,,,,,,,,,,,,,,,1077.0035,1078.5563,1078.5563,1080.7093,return,0.9696,,80.078125,,,,,,FBP-OG-18.png,0.45,1.2,40,0.75,,,,,,,,,,,,,0,38,38,39,1,,,,,,,,,,,,,,,,,,,,,,,,,,,,
,,,,,V3_064,20,Female,2024-11-14_17h16.57.286,jersey_experiment_5_v3,2023.2.2,Win32,85.47008547,,,,,,,,,,,,,,,,1080.7096,1082.2622,1082.2623,1084.3917,return,1.4281,,80.078125,,,,,,FBP-OG-17.png,0.43,1.2,34,0.75,,,,,,,,,,,,,0,39,39,33,1,,,,,,,,,,,,,,,,,,,,,,,,,,,,
,,,,,V3_064,20,Female,2024-11-14_17h16.57.286,jersey_experiment_5_v3,2023.2.2,Win32,85.47008547,,,,,,,,,,,,,,,,1084.392,1085.6859,1085.6859,1088.4389,return,1.1209,,75.52083333,,,,,,FBP-PT-18.png,0.4,1.2,23,0.5,,,,,,,,,,,,,0,40,40,22,1,,,,,,,,,,,,,,,,,,,,,,,,,,,,
,,,,,V3_064,20,Female,2024-11-14_17h16.57.286,jersey_experiment_5_v3,2023.2.2,Win32,85.47008547,,,,,,,,,,,,,,,,1088.4392,1089.7331,1089.7331,1093.6626,return,0.8471,,75,,,,,,FBP-PT-17.png,0.37,1.2,17,0.5,,,,,,,,,,,,,0,41,41,16,1,,,,,,,,,,,,,,,,,,,,,,,,,,,,
,,,,,V3_064,20,Female,2024-11-14_17h16.57.286,jersey_experiment_5_v3,2023.2.2,Win32,85.47008547,,,,,,,,,,,,,,,,1093.6629,1094.9568,1094.9568,1100.9335,return,0.7709,,74.86979167,,,,,,FBP-RB-17.png,0.4,1.2,48,0.5,,,,,,,,,,,,,0,42,42,47,1,,,,,,,,,,,,,,,,,,,,,,,,,,,,
,,,,,V3_064,20,Female,2024-11-14_17h16.57.286,jersey_experiment_5_v3,2023.2.2,Win32,85.47008547,,,,,,,,,,,,,,,,1100.9338,1102.4868,1102.4868,1105.5986,return,1.8854,,25.26041667,,,,,,FBP-OG-17.png,0.35,1.2,31,0.75,,,,,,,,,,,,,0,43,43,30,1,,,,,,,,,,,,,,,,,,,,,,,,,,,,
,,,,,V3_064,20,Female,2024-11-14_17h16.57.286,jersey_experiment_5_v3,2023.2.2,Win32,85.47008547,,,,,,,,,,,,,,,,1105.5988,1106.893,1106.893,1110.1399,return,1.0268,,81.640625,,,,,,FBP-RB-19.png,0.45,1.2,60,0.5,,,,,,,,,,,,,0,44,44,59,1,,,,,,,,,,,,,,,,,,,,,,,,,,,,
,,,,,V3_064,20,Female,2024-11-14_17h16.57.286,jersey_experiment_5_v3,2023.2.2,Win32,85.47008547,,,,,,,,,,,,,,,,1110.14,1111.4321,1111.4321,1113.4582,return,0.792,,75,,,,,,FBP-YG-81.png,0.4,1.2,8,0.5,,,,,,,,,,,,,0,45,45,7,1,,,,,,,,,,,,,,,,,,,,,,,,,,,,
,,,,,V3_064,20,Female,2024-11-14_17h16.57.286,jersey_experiment_5_v3,2023.2.2,Win32,85.47008547,,,,,,,,,,,,,,,,1113.4583,1114.7605,1114.7606,1116.855,return,0.8005,,75.26041667,,,,,,FBP-YG-91.png,0.37,1.2,12,0.5,,,,,,,,,,,,,0,46,46,11,1,,,,,,,,,,,,,,,,,,,,,,,,,,,,
,,,,,V3_064,20,Female,2024-11-14_17h16.57.286,jersey_experiment_5_v3,2023.2.2,Win32,85.47008547,,,,,,,,,,,,,,,,1116.8552,1118.3988,1118.3989,1120.855,return,1.106,,74.86979167,,,,,,FBP-OG-19.png,0.4,1.2,43,0.75,,,,,,,,,,,,,0,47,47,42,1,,,,,,,,,,,,,,,,,,,,,,,,,,,,
,,,,,V3_064,20,Female,2024-11-14_17h16.57.286,jersey_experiment_5_v3,2023.2.2,Win32,85.47008547,,,,,,,,,,,,,,,,1120.8552,1122.4079,1122.408,1129.0591,return,3.4983,,65.625,,,,,,FBP-OG-18.png,0.37,1.2,37,0.75,,,,,,,,,,,,,0,48,48,36,1,,,,,,,,,,,,,,,,,,,,,,,,,,,,
,,,,,V3_064,20,Female,2024-11-14_17h16.57.286,jersey_experiment_5_v3,2023.2.2,Win32,85.47008547,,,,,,,,,,,,,,,,1129.0593,1130.3526,1130.3527,1132.2818,return,0.862,,82.94270833,,,,,,FBP-RB-18.png,0.45,1.2,55,0.5,,,,,,,,,,,,,0,49,49,54,1,,,,,,,,,,,,,,,,,,,,,,,,,,,,
,,,,,V3_064,20,Female,2024-11-14_17h16.57.286,jersey_experiment_5_v3,2023.2.2,Win32,85.47008547,,,,,,,,,,,,,,,,1132.282,1133.8347,1133.8347,1136.0941,return,1.0035,,82.8125,,,,,,FBP-OG-19.png,0.43,1.2,44,0.75,,,,,,,,,,,,,0,50,50,43,1,,,,,,,,,,,,,,,,,,,,,,,,,,,,
,,,,,V3_064,20,Female,2024-11-14_17h16.57.286,jersey_experiment_5_v3,2023.2.2,Win32,85.47008547,,,,,,,,,,,,,,,,1136.0943,1137.3879,1137.3879,1140.2674,return,1.012,,78.25520833,,,,,,FBP-RB-18.png,0.4,1.2,53,0.5,,,,,,,,,,,,,0,51,51,52,1,,,,,,,,,,,,,,,,,,,,,,,,,,,,
,,,,,V3_064,20,Female,2024-11-14_17h16.57.286,jersey_experiment_5_v3,2023.2.2,Win32,85.47008547,,,,,,,,,,,,,,,,1140.2676,1141.5617,1141.5618,1144.7385,return,1.1299,,24.86979167,,,,,,FBP-RB-19.png,0.35,1.2,56,0.5,,,,,,,,,,,,,0,52,52,55,1,,,,,,,,,,,,,,,,,,,,,,,,,,,,
,,,,,V3_064,20,Female,2024-11-14_17h16.57.286,jersey_experiment_5_v3,2023.2.2,Win32,85.47008547,,,,,,,,,,,,,,,,1144.7387,1146.0324,1146.0324,1149.9859,return,0.9888,,30.33854167,,,,,,FBP-RB-19.png,0.37,1.2,57,0.5,,,,,,,,,,,,,0,53,53,56,1,,,,,,,,,,,,,,,,,,,,,,,,,,,,
,,,,,V3_064,20,Female,2024-11-14_17h16.57.286,jersey_experiment_5_v3,2023.2.2,Win32,85.47008547,,,,,,,,,,,,,,,,1149.986,1151.5292,1151.5292,1154.2213,return,0.9742,,27.21354167,,,,,,FBP-OG-19.png,0.37,1.2,42,0.75,,,,,,,,,,,,,0,54,54,41,1,,,,,,,,,,,,,,,,,,,,,,,,,,,,
,,,,,V3_064,20,Female,2024-11-14_17h16.57.286,jersey_experiment_5_v3,2023.2.2,Win32,85.47008547,,,,,,,,,,,,,,,,1154.2216,1155.5151,1155.5152,1158.8094,return,1.4354,,81.11979167,,,,,,FBP-YG-81.png,0.45,1.2,10,0.5,,,,,,,,,,,,,0,55,55,9,1,,,,,,,,,,,,,,,,,,,,,,,,,,,,
,,,,,V3_064,20,Female,2024-11-14_17h16.57.286,jersey_experiment_5_v3,2023.2.2,Win32,85.47008547,,,,,,,,,,,,,,,,1158.8095,1160.1034,1160.1034,1162.7124,return,0.9581,,19.40104167,,,,,,FBP-PT-17.png,0.35,1.2,16,0.5,,,,,,,,,,,,,0,56,56,15,1,,,,,,,,,,,,,,,,,,,,,,,,,,,,
,,,,,V3_064,20,Female,2024-11-14_17h16.57.286,jersey_experiment_5_v3,2023.2.2,Win32,85.47008547,,,,,,,,,,,,,,,,1162.7126,1164.0092,1164.0092,1166.8334,return,1.1616,,77.08333333,,,,,,FBP-PT-19.png,0.45,1.2,30,0.5,,,,,,,,,,,,,0,57,57,29,1,,,,,,,,,,,,,,,,,,,,,,,,,,,,
,,,,,V3_064,20,Female,2024-11-14_17h16.57.286,jersey_experiment_5_v3,2023.2.2,Win32,85.47008547,,,,,,,,,,,,,,,,1166.8336,1168.1421,1168.1421,1169.783,return,0.9101,,77.08333333,,,,,,FBP-PT-19.png,0.4,1.2,28,0.5,,,,,,,,,,,,,0,58,58,27,1,,,,,,,,,,,,,,,,,,,,,,,,,,,,
,,,,,V3_064,20,Female,2024-11-14_17h16.57.286,jersey_experiment_5_v3,2023.2.2,Win32,85.47008547,,,,,,,,,,,,,,,,1169.7833,1171.0773,1171.0774,1173.1073,return,1.13,,77.60416667,,,,,,FBP-PT-17.png,0.4,1.2,18,0.5,,,,,,,,,,,,,0,59,59,17,1,,,,,,,,,,,,,,,,,,,,,,,,,,,,
,,,,,V3_064,20,Female,2024-11-14_17h16.57.286,jersey_experiment_5_v3,2023.2.2,Win32,85.47008547,,,,,,,,,,,,,,,,1173.1084,1174.4097,1174.4097,1177.7896,return,1.356,,79.296875,,,,,,FBP-YG-17.png,0.4,1.2,3,0.5,,,,,,,,,,,,,,,,,,0,0,0,2,1,,,,,,,,,,,,,,,,,,,,,,,
,,,,,V3_064,20,Female,2024-11-14_17h16.57.286,jersey_experiment_5_v3,2023.2.2,Win32,85.47008547,,,,,,,,,,,,,,,,1177.7898,1179.084,1179.084,1183.069,return,2.3534,,84.63541667,,,,,,FBP-YG-17.png,0.45,1.2,5,0.5,,,,,,,,,,,,,,,,,,0,1,1,4,1,,,,,,,,,,,,,,,,,,,,,,,
,,,,,V3_064,20,Female,2024-11-14_17h16.57.286,jersey_experiment_5_v3,2023.2.2,Win32,85.47008547,,,,,,,,,,,,,,,,1183.0692,1184.3777,1184.3777,1186.5367,return,1.2278,,84.63541667,,,,,,FBP-PT-81.png,0.45,1.2,25,0.5,,,,,,,,,,,,,,,,,,0,2,2,24,1,,,,,,,,,,,,,,,,,,,,,,,
,,,,,V3_064,20,Female,2024-11-14_17h16.57.286,jersey_experiment_5_v3,2023.2.2,Win32,85.47008547,,,,,,,,,,,,,,,,1186.5369,1188.0811,1188.0811,1193.2577,return,2.5269,,27.86458333,,,,,,FBP-OG-81.png,0.37,1.2,37,0.75,,,,,,,,,,,,,,,,,,0,3,3,36,1,,,,,,,,,,,,,,,,,,,,,,,
,,,,,V3_064,20,Female,2024-11-14_17h16.57.286,jersey_experiment_5_v3,2023.2.2,Win32,85.47008547,,,,,,,,,,,,,,,,1193.2579,1194.5661,1194.5661,1197.046,return,1.1145,,76.953125,,,,,,FBP-PT-71.png,0.43,1.2,19,0.5,,,,,,,,,,,,,,,,,,0,4,4,18,1,,,,,,,,,,,,,,,,,,,,,,,
,,,,,V3_064,20,Female,2024-11-14_17h16.57.286,jersey_experiment_5_v3,2023.2.2,Win32,85.47008547,,,,,,,,,,,,,,,,1197.0461,1198.3403,1198.3403,1200.6931,return,1.3032,,79.03645833,,,,,,FBP-YG-19.png,0.45,1.2,15,0.5,,,,,,,,,,,,,,,,,,0,5,5,14,1,,,,,,,,,,,,,,,,,,,,,,,
,,,,,V3_064,20,Female,2024-11-14_17h16.57.286,jersey_experiment_5_v3,2023.2.2,Win32,85.47008547,,,,,,,,,,,,,,,,1200.6933,1202.0022,1202.0022,1205.0851,return,1.7097,,79.03645833,,,,,,FBP-PT-81.png,0.43,1.2,24,0.5,,,,,,,,,,,,,,,,,,0,6,6,23,1,,,,,,,,,,,,,,,,,,,,,,,
,,,,,V3_064,20,Female,2024-11-14_17h16.57.286,jersey_experiment_5_v3,2023.2.2,Win32,85.47008547,,,,,,,,,,,,,,,,1205.0853,1206.3768,1206.3768,1210.4823,return,1.1067,,74.73958333,,,,,,FBP-RB-71.png,0.4,1.2,48,0.5,,,,,,,,,,,,,,,,,,0,7,7,47,1,,,,,,,,,,,,,,,,,,,,,,,
,,,,,V3_064,20,Female,2024-11-14_17h16.57.286,jersey_experiment_5_v3,2023.2.2,Win32,85.47008547,,,,,,,,,,,,,,,,1210.4825,1212.0348,1212.0348,1213.9086,return,1.2386,,74.609375,,,,,,FBP-OG-91.png,0.43,1.2,44,0.75,,,,,,,,,,,,,,,,,,0,8,8,43,1,,,,,,,,,,,,,,,,,,,,,,,
,,,,,V3_064,20,Female,2024-11-14_17h16.57.286,jersey_experiment_5_v3,2023.2.2,Win32,85.47008547,,,,,,,,,,,,,,,,1213.9088,1215.2028,1215.2028,1217.9777,return,1.1516,,74.609375,,,,,,FBP-RB-81.png,0.4,1.2,53,0.5,,,,,,,,,,,,,,,,,,0,9,9,52,1,,,,,,,,,,,,,,,,,,,,,,,
,,,,,V3_064,20,Female,2024-11-14_17h16.57.286,jersey_experiment_5_v3,2023.2.2,Win32,85.47008547,,,,,,,,,,,,,,,,1217.9777,1219.5324,1219.5324,1221.7969,return,1.0428,,25.26041667,,,,,,FBP-OG-71.png,0.37,1.2,32,0.75,,,,,,,,,,,,,,,,,,0,10,10,31,1,,,,,,,,,,,,,,,,,,,,,,,
,,,,,V3_064,20,Female,2024-11-14_17h16.57.286,jersey_experiment_5_v3,2023.2.2,Win32,85.47008547,,,,,,,,,,,,,,,,1221.7972,1223.0942,1223.0942,1225.7528,return,0.9499,,74.86979167,,,,,,FBP-YG-18.png,0.43,1.2,9,0.5,,,,,,,,,,,,,,,,,,0,11,11,8,1,,,,,,,,,,,,,,,,,,,,,,,
,,,,,V3_064,20,Female,2024-11-14_17h16.57.286,jersey_experiment_5_v3,2023.2.2,Win32,85.47008547,,,,,,,,,,,,,,,,1225.753,1227.0469,1227.047,1230.106,return,1.1853,,78.38541667,,,,,,FBP-PT-71.png,0.45,1.2,20,0.5,,,,,,,,,,,,,,,,,,0,12,12,19,1,,,,,,,,,,,,,,,,,,,,,,,
,,,,,V3_064,20,Female,2024-11-14_17h16.57.286,jersey_experiment_5_v3,2023.2.2,Win32,85.47008547,,,,,,,,,,,,,,,,1230.1062,1231.4151,1231.4152,1235.4152,return,1.4032,,74.34895833,,,,,,FBP-RB-71.png,0.37,1.2,47,0.5,,,,,,,,,,,,,,,,,,0,13,13,46,1,,,,,,,,,,,,,,,,,,,,,,,
,,,,,V3_064,20,Female,2024-11-14_17h16.57.286,jersey_experiment_5_v3,2023.2.2,Win32,85.47008547,,,,,,,,,,,,,,,,1235.4153,1236.7182,1236.7182,1238.6328,return,0.6715,,80.98958333,,,,,,FBP-RB-81.png,0.45,1.2,55,0.5,,,,,,,,,,,,,,,,,,0,14,14,54,1,,,,,,,,,,,,,,,,,,,,,,,
,,,,,V3_064,20,Female,2024-11-14_17h16.57.286,jersey_experiment_5_v3,2023.2.2,Win32,85.47008547,,,,,,,,,,,,,,,,1238.6332,1239.9329,1239.9329,1241.0947,return,0.706,,80.98958333,,,,,,FBP-RB-71.png,0.43,1.2,49,0.5,,,,,,,,,,,,,,,,,,0,15,15,48,1,,,,,,,,,,,,,,,,,,,,,,,
,,,,,V3_064,20,Female,2024-11-14_17h16.57.286,jersey_experiment_5_v3,2023.2.2,Win32,85.47008547,,,,,,,,,,,,,,,,1241.0948,1242.3888,1242.3888,1243.7977,return,0.7569,,81.25,,,,,,FBP-PT-91.png,0.43,1.2,29,0.5,,,,,,,,,,,,,,,,,,0,16,16,28,1,,,,,,,,,,,,,,,,,,,,,,,
,,,,,V3_064,20,Female,2024-11-14_17h16.57.286,jersey_experiment_5_v3,2023.2.2,Win32,85.47008547,,,,,,,,,,,,,,,,1243.7981,1245.3536,1245.3537,1247.2361,return,0.5884,,74.47916667,,,,,,FBP-OG-91.png,0.4,1.2,43,0.75,,,,,,,,,,,,,,,,,,0,17,17,42,1,,,,,,,,,,,,,,,,,,,,,,,
,,,,,V3_064,20,Female,2024-11-14_17h16.57.286,jersey_experiment_5_v3,2023.2.2,Win32,85.47008547,,,,,,,,,,,,,,,,1247.2362,1248.5448,1248.5448,1249.9423,return,0.5883,,24.86979167,,,,,,FBP-YG-17.png,0.35,1.2,1,0.5,,,,,,,,,,,,,,,,,,0,18,18,0,1,,,,,,,,,,,,,,,,,,,,,,,
,,,,,V3_064,20,Female,2024-11-14_17h16.57.286,jersey_experiment_5_v3,2023.2.2,Win32,85.47008547,,,,,,,,,,,,,,,,1249.9425,1251.2451,1251.2451,1253.5804,return,0.5648,,28.38541667,,,,,,FBP-PT-91.png,0.4,1.2,28,0.5,,,,,,,,,,,,,,,,,,0,19,19,27,1,,,,,,,,,,,,,,,,,,,,,,,
,,,,,V3_064,20,Female,2024-11-14_17h16.57.286,jersey_experiment_5_v3,2023.2.2,Win32,85.47008547,,,,,,,,,,,,,,,,1253.5806,1254.8745,1254.8745,1256.0131,return,0.6443,,28.38541667,,,,,,FBP-RB-81.png,0.37,1.2,52,0.5,,,,,,,,,,,,,,,,,,0,20,20,51,1,,,,,,,,,,,,,,,,,,,,,,,
,,,,,V3_064,20,Female,2024-11-14_17h16.57.286,jersey_experiment_5_v3,2023.2.2,Win32,85.47008547,,,,,,,,,,,,,,,,1256.0133,1257.5571,1257.5571,1258.9219,return,0.7205,,25.13020833,,,,,,FBP-OG-71.png,0.35,1.2,31,0.75,,,,,,,,,,,,,,,,,,0,21,21,30,1,,,,,,,,,,,,,,,,,,,,,,,
,,,,,V3_064,20,Female,2024-11-14_17h16.57.286,jersey_experiment_5_v3,2023.2.2,Win32,85.47008547,,,,,,,,,,,,,,,,1258.922,1260.225,1260.225,1261.6132,return,0.7386,,25.390625,,,,,,FBP-RB-81.png,0.35,1.2,51,0.5,,,,,,,,,,,,,,,,,,0,22,22,50,1,,,,,,,,,,,,,,,,,,,,,,,
,,,,,V3_064,20,Female,2024-11-14_17h16.57.286,jersey_experiment_5_v3,2023.2.2,Win32,85.47008547,,,,,,,,,,,,,,,,1261.6134,1262.922,1262.922,1265.1899,return,1.412,,79.94791667,,,,,,FBP-YG-18.png,0.45,1.2,10,0.5,,,,,,,,,,,,,,,,,,0,23,23,9,1,,,,,,,,,,,,,,,,,,,,,,,
,,,,,V3_064,20,Female,2024-11-14_17h16.57.286,jersey_experiment_5_v3,2023.2.2,Win32,85.47008547,,,,,,,,,,,,,,,,1265.1902,1266.7346,1266.7346,1268.2486,return,0.6591,,25.13020833,,,,,,FBP-OG-91.png,0.35,1.2,41,0.75,,,,,,,,,,,,,,,,,,0,24,24,40,1,,,,,,,,,,,,,,,,,,,,,,,
,,,,,V3_064,20,Female,2024-11-14_17h16.57.286,jersey_experiment_5_v3,2023.2.2,Win32,85.47008547,,,,,,,,,,,,,,,,1268.2487,1269.5431,1269.5432,1271.9343,return,0.7445,,68.75,,,,,,FBP-PT-71.png,0.4,1.2,18,0.5,,,,,,,,,,,,,,,,,,0,25,25,17,1,,,,,,,,,,,,,,,,,,,,,,,
,,,,,V3_064,20,Female,2024-11-14_17h16.57.286,jersey_experiment_5_v3,2023.2.2,Win32,85.47008547,,,,,,,,,,,,,,,,1271.9345,1273.2282,1273.2283,1275.3229,return,1.333,,82.29166667,,,,,,FBP-YG-19.png,0.43,1.2,14,0.5,,,,,,,,,,,,,,,,,,0,26,26,13,1,,,,,,,,,,,,,,,,,,,,,,,
,,,,,V3_064,20,Female,2024-11-14_17h16.57.286,jersey_experiment_5_v3,2023.2.2,Win32,85.47008547,,,,,,,,,,,,,,,,1275.3231,1276.6256,1276.6257,1277.94,return,0.7261,,79.6875,,,,,,FBP-PT-81.png,0.4,1.2,23,0.5,,,,,,,,,,,,,,,,,,0,27,27,22,1,,,,,,,,,,,,,,,,,,,,,,,
,,,,,V3_064,20,Female,2024-11-14_17h16.57.286,jersey_experiment_5_v3,2023.2.2,Win32,85.47008547,,,,,,,,,,,,,,,,1277.9403,1279.4875,1279.4875,1280.9789,return,0.8561,,80.46875,,,,,,FBP-OG-71.png,0.43,1.2,34,0.75,,,,,,,,,,,,,,,,,,0,28,28,33,1,,,,,,,,,,,,,,,,,,,,,,,
,,,,,V3_064,20,Female,2024-11-14_17h16.57.286,jersey_experiment_5_v3,2023.2.2,Win32,85.47008547,,,,,,,,,,,,,,,,1280.9791,1282.2729,1282.2729,1284.9319,return,0.7384,,77.86458333,,,,,,FBP-PT-81.png,0.37,1.2,22,0.5,,,,,,,,,,,,,,,,,,0,29,29,21,1,,,,,,,,,,,,,,,,,,,,,,,
,,,,,V3_064,20,Female,2024-11-14_17h16.57.286,jersey_experiment_5_v3,2023.2.2,Win32,85.47008547,,,,,,,,,,,,,,,,1284.9321,1286.2406,1286.2407,1287.7053,return,0.7784,,77.86458333,,,,,,FBP-RB-91.png,0.37,1.2,57,0.5,,,,,,,,,,,,,,,,,,0,30,30,56,1,,,,,,,,,,,,,,,,,,,,,,,
,,,,,V3_064,20,Female,2024-11-14_17h16.57.286,jersey_experiment_5_v3,2023.2.2,Win32,85.47008547,,,,,,,,,,,,,,,,1287.7056,1289.0023,1289.0023,1291.0881,return,0.8624,,30.33854167,,,,,,FBP-PT-71.png,0.35,1.2,16,0.5,,,,,,,,,,,,,,,,,,0,31,31,15,1,,,,,,,,,,,,,,,,,,,,,,,
,,,,,V3_064,20,Female,2024-11-14_17h16.57.286,jersey_experiment_5_v3,2023.2.2,Win32,85.47008547,,,,,,,,,,,,,,,,1291.0882,1292.3818,1292.3818,1294.8765,return,0.777,,78.25520833,,,,,,FBP-RB-91.png,0.43,1.2,59,0.5,,,,,,,,,,,,,,,,,,0,32,32,58,1,,,,,,,,,,,,,,,,,,,,,,,
,,,,,V3_064,20,Female,2024-11-14_17h16.57.286,jersey_experiment_5_v3,2023.2.2,Win32,85.47008547,,,,,,,,,,,,,,,,1294.8767,1296.4292,1296.4292,1297.9119,return,0.8237,,78.38541667,,,,,,FBP-OG-81.png,0.43,1.2,39,0.75,,,,,,,,,,,,,,,,,,0,33,33,38,1,,,,,,,,,,,,,,,,,,,,,,,
,,,,,V3_064,20,Female,2024-11-14_17h16.57.286,jersey_experiment_5_v3,2023.2.2,Win32,85.47008547,,,,,,,,,,,,,,,,1297.912,1299.4645,1299.4645,1300.9091,return,0.8241,,80.078125,,,,,,FBP-OG-71.png,0.45,1.2,35,0.75,,,,,,,,,,,,,,,,,,0,34,34,34,1,,,,,,,,,,,,,,,,,,,,,,,
,,,,,V3_064,20,Female,2024-11-14_17h16.57.286,jersey_experiment_5_v3,2023.2.2,Win32,85.47008547,,,,,,,,,,,,,,,,1300.9092,1302.4617,1302.4617,1305.0974,return,0.8472,,75.13020833,,,,,,FBP-OG-91.png,0.37,1.2,42,0.75,,,,,,,,,,,,,,,,,,0,35,35,41,1,,,,,,,,,,,,,,,,,,,,,,,
,,,,,V3_064,20,Female,2024-11-14_17h16.57.286,jersey_experiment_5_v3,2023.2.2,Win32,85.47008547,,,,,,,,,,,,,,,,1305.0975,1306.3916,1306.3916,1309.0889,return,0.8858,,24.73958333,,,,,,FBP-YG-19.png,0.35,1.2,11,0.5,,,,,,,,,,,,,,,,,,0,36,36,10,1,,,,,,,,,,,,,,,,,,,,,,,
,,,,,V3_064,20,Female,2024-11-14_17h16.57.286,jersey_experiment_5_v3,2023.2.2,Win32,85.47008547,,,,,,,,,,,,,,,,1309.0891,1310.3825,1310.3825,1313.1356,return,0.9091,,80.46875,,,,,,FBP-RB-71.png,0.45,1.2,50,0.5,,,,,,,,,,,,,,,,,,0,37,37,49,1,,,,,,,,,,,,,,,,,,,,,,,
,,,,,V3_064,20,Female,2024-11-14_17h16.57.286,jersey_experiment_5_v3,2023.2.2,Win32,85.47008547,,,,,,,,,,,,,,,,1313.1357,1314.4389,1314.439,1316.6184,return,0.9564,,81.77083333,,,,,,FBP-YG-17.png,0.43,1.2,4,0.5,,,,,,,,,,,,,,,,,,0,38,38,3,1,,,,,,,,,,,,,,,,,,,,,,,
,,,,,V3_064,20,Female,2024-11-14_17h16.57.286,jersey_experiment_5_v3,2023.2.2,Win32,85.47008547,,,,,,,,,,,,,,,,1316.6186,1317.9213,1317.9214,1321.1443,return,0.973,,73.95833333,,,,,,FBP-RB-91.png,0.35,1.2,56,0.5,,,,,,,,,,,,,,,,,,0,39,39,55,1,,,,,,,,,,,,,,,,,,,,,,,
,,,,,V3_064,20,Female,2024-11-14_17h16.57.286,jersey_experiment_5_v3,2023.2.2,Win32,85.47008547,,,,,,,,,,,,,,,,1321.1444,1322.436,1322.436,1324.5247,return,0.7918,,67.96875,,,,,,FBP-YG-19.png,0.37,1.2,12,0.5,,,,,,,,,,,,,,,,,,0,40,40,11,1,,,,,,,,,,,,,,,,,,,,,,,
,,,,,V3_064,20,Female,2024-11-14_17h16.57.286,jersey_experiment_5_v3,2023.2.2,Win32,85.47008547,,,,,,,,,,,,,,,,1324.5249,1325.8276,1325.8276,1328.5716,return,0.7057,,70.83333333,,,,,,FBP-PT-71.png,0.37,1.2,17,0.5,,,,,,,,,,,,,,,,,,0,41,41,16,1,,,,,,,,,,,,,,,,,,,,,,,
,,,,,V3_064,20,Female,2024-11-14_17h16.57.286,jersey_experiment_5_v3,2023.2.2,Win32,85.47008547,,,,,,,,,,,,,,,,1328.5718,1329.8655,1329.8655,1333.1821,return,1.237,,80.078125,,,,,,FBP-RB-91.png,0.45,1.2,60,0.5,,,,,,,,,,,,,,,,,,0,42,42,59,1,,,,,,,,,,,,,,,,,,,,,,,
,,,,,V3_064,20,Female,2024-11-14_17h16.57.286,jersey_experiment_5_v3,2023.2.2,Win32,85.47008547,,,,,,,,,,,,,,,,1333.1823,1334.7362,1334.7363,1336.8161,return,0.8002,,80.59895833,,,,,,FBP-OG-81.png,0.45,1.2,40,0.75,,,,,,,,,,,,,,,,,,0,43,43,39,1,,,,,,,,,,,,,,,,,,,,,,,
,,,,,V3_064,20,Female,2024-11-14_17h16.57.286,jersey_experiment_5_v3,2023.2.2,Win32,85.47008547,,,,,,,,,,,,,,,,1336.8162,1338.1248,1338.1249,1341.0047,return,0.7387,,30.46875,,,,,,FBP-RB-71.png,0.35,1.2,46,0.5,,,,,,,,,,,,,,,,,,0,44,44,45,1,,,,,,,,,,,,,,,,,,,,,,,
,,,,,V3_064,20,Female,2024-11-14_17h16.57.286,jersey_experiment_5_v3,2023.2.2,Win32,85.47008547,,,,,,,,,,,,,,,,1341.0048,1342.3131,1342.3131,1344.7606,return,0.7767,,25.13020833,,,,,,FBP-YG-17.png,0.37,1.2,2,0.5,,,,,,,,,,,,,,,,,,0,45,45,1,1,,,,,,,,,,,,,,,,,,,,,,,
,,,,,V3_064,20,Female,2024-11-14_17h16.57.286,jersey_experiment_5_v3,2023.2.2,Win32,85.47008547,,,,,,,,,,,,,,,,1344.7607,1346.0629,1346.0629,1348.1664,return,0.7591,,74.47916667,,,,,,FBP-PT-91.png,0.45,1.2,30,0.5,,,,,,,,,,,,,,,,,,0,46,46,29,1,,,,,,,,,,,,,,,,,,,,,,,
,,,,,V3_064,20,Female,2024-11-14_17h16.57.286,jersey_experiment_5_v3,2023.2.2,Win32,85.47008547,,,,,,,,,,,,,,,,1348.1667,1349.4663,1349.4664,1352.2989,return,0.918,,31.77083333,,,,,,FBP-YG-18.png,0.35,1.2,6,0.5,,,,,,,,,,,,,,,,,,0,47,47,5,1,,,,,,,,,,,,,,,,,,,,,,,
,,,,,V3_064,20,Female,2024-11-14_17h16.57.286,jersey_experiment_5_v3,2023.2.2,Win32,85.47008547,,,,,,,,,,,,,,,,1352.2991,1353.8438,1353.8438,1356.1666,return,0.768,,68.359375,,,,,,FBP-OG-81.png,0.4,1.2,38,0.75,,,,,,,,,,,,,,,,,,0,48,48,37,1,,,,,,,,,,,,,,,,,,,,,,,
,,,,,V3_064,20,Female,2024-11-14_17h16.57.286,jersey_experiment_5_v3,2023.2.2,Win32,85.47008547,,,,,,,,,,,,,,,,1356.1669,1357.4662,1357.4662,1360.0256,return,0.7796,,74.34895833,,,,,,FBP-RB-91.png,0.4,1.2,58,0.5,,,,,,,,,,,,,,,,,,0,49,49,57,1,,,,,,,,,,,,,,,,,,,,,,,
,,,,,V3_064,20,Female,2024-11-14_17h16.57.286,jersey_experiment_5_v3,2023.2.2,Win32,85.47008547,,,,,,,,,,,,,,,,1360.0259,1361.3262,1361.3262,1363.6728,return,0.9069,,76.171875,,,,,,FBP-YG-18.png,0.37,1.2,7,0.5,,,,,,,,,,,,,,,,,,0,50,50,6,1,,,,,,,,,,,,,,,,,,,,,,,
,,,,,V3_064,20,Female,2024-11-14_17h16.57.286,jersey_experiment_5_v3,2023.2.2,Win32,85.47008547,,,,,,,,,,,,,,,,1363.673,1364.9731,1364.9731,1367.8058,return,0.7617,,32.55208333,,,,,,FBP-PT-91.png,0.37,1.2,27,0.5,,,,,,,,,,,,,,,,,,0,51,51,26,1,,,,,,,,,,,,,,,,,,,,,,,
,,,,,V3_064,20,Female,2024-11-14_17h16.57.286,jersey_experiment_5_v3,2023.2.2,Win32,85.47008547,,,,,,,,,,,,,,,,1367.8059,1369.0995,1369.0995,1371.2378,return,0.7013,,75.26041667,,,,,,FBP-YG-19.png,0.4,1.2,13,0.5,,,,,,,,,,,,,,,,,,0,52,52,12,1,,,,,,,,,,,,,,,,,,,,,,,
,,,,,V3_064,20,Female,2024-11-14_17h16.57.286,jersey_experiment_5_v3,2023.2.2,Win32,85.47008547,,,,,,,,,,,,,,,,1371.238,1372.7848,1372.7849,1374.7364,return,0.7428,,82.55208333,,,,,,FBP-OG-91.png,0.45,1.2,45,0.75,,,,,,,,,,,,,,,,,,0,53,53,44,1,,,,,,,,,,,,,,,,,,,,,,,
,,,,,V3_064,20,Female,2024-11-14_17h16.57.286,jersey_experiment_5_v3,2023.2.2,Win32,85.47008547,,,,,,,,,,,,,,,,1374.7366,1376.041,1376.041,1378.5264,return,0.9091,,29.81770833,,,,,,FBP-PT-81.png,0.35,1.2,21,0.5,,,,,,,,,,,,,,,,,,0,54,54,20,1,,,,,,,,,,,,,,,,,,,,,,,
,,,,,V3_064,20,Female,2024-11-14_17h16.57.286,jersey_experiment_5_v3,2023.2.2,Win32,85.47008547,,,,,,,,,,,,,,,,1378.5265,1380.0798,1380.0798,1382.5269,return,0.871,,24.47916667,,,,,,FBP-OG-81.png,0.35,1.2,36,0.75,,,,,,,,,,,,,,,,,,0,55,55,35,1,,,,,,,,,,,,,,,,,,,,,,,
,,,,,V3_064,20,Female,2024-11-14_17h16.57.286,jersey_experiment_5_v3,2023.2.2,Win32,85.47008547,,,,,,,,,,,,,,,,1382.5272,1383.8206,1383.8206,1386.2677,return,0.7999,,77.21354167,,,,,,FBP-RB-81.png,0.43,1.2,54,0.5,,,,,,,,,,,,,,,,,,0,56,56,53,1,,,,,,,,,,,,,,,,,,,,,,,
,,,,,V3_064,20,Female,2024-11-14_17h16.57.286,jersey_experiment_5_v3,2023.2.2,Win32,85.47008547,,,,,,,,,,,,,,,,1386.2678,1387.5709,1387.571,1389.924,return,0.7764,,78.90625,,,,,,FBP-YG-18.png,0.4,1.2,8,0.5,,,,,,,,,,,,,,,,,,0,57,57,7,1,,,,,,,,,,,,,,,,,,,,,,,
,,,,,V3_064,20,Female,2024-11-14_17h16.57.286,jersey_experiment_5_v3,2023.2.2,Win32,85.47008547,,,,,,,,,,,,,,,,1389.9241,1391.4768,1391.4768,1393.2798,return,0.7783,,78.90625,,,,,,FBP-OG-71.png,0.4,1.2,33,0.75,,,,,,,,,,,,,,,,,,0,58,58,32,1,,,,,,,,,,,,,,,,,,,,,,,
,,,,,V3_064,20,Female,2024-11-14_17h16.57.286,jersey_experiment_5_v3,2023.2.2,Win32,85.47008547,,,,,,,,,,,,,,,,1393.28,1394.5725,1394.5725,1397.7035,return,1.2381,,29.16666667,,,,,,FBP-PT-91.png,0.35,1.2,26,0.5,,,,,,,,,,,,,,,,,,0,59,59,25,1,,,,,,,,,,,,,,,,,,,,,,,
,,,,,V3_064,20,Female,2024-11-14_17h16.57.286,jersey_experiment_5_v3,2023.2.2,Win32,85.47008547,,,,,,,,,,,,,,,,,,,,,,,,,,,,,,,,,,,,,,,,,,,,,,,,,,,,,,,,1397.7036,1407.2424,return,9.53,,,,,,,,,,,,,,,,,,,
,,,,,V3_064,20,Female,2024-11-14_17h16.57.286,jersey_experiment_5_v3,2023.2.2,Win32,85.47008547,,,,,,,,,,,,,,,,,,,,,,,,,,,,,,,,,,,,,,,,,,,,,,,,,,,,,,,,,,,,,1407.2424,1413.9453,1,4.9881,return,1.6959,,,,,,,,,,,,
,,,,,V3_064,20,Female,2024-11-14_17h16.57.286,jersey_experiment_5_v3,2023.2.2,Win32,85.47008547,,,,,,,,,,,,,,,,,,,,,,,,,,,,,,,,,,,,,,,,,,,,,,,,,,,,,,,,,,,,,,,,,,,,1413.9454,1478.3985,"difference between jersey colors, perception",right,25.8921,,,,,,
,,,,,V3_064,20,Female,2024-11-14_17h16.57.286,jersey_experiment_5_v3,2023.2.2,Win32,85.47008547,,,,,,,,,,,,,,,,,,,,,,,,,,,,,,,,,,,,,,,,,,,,,,,,,,,,,,,,,,,,,,,,,,,,,,,,,,1478.3985,1483.7864,return,5.3734,