requirements.started,requirements.stopped,key_resp_3.keys,key_resp_3.rt,key_resp_3.duration,Subject ID,Age,Gender,date,expName,psychopyVersion,OS,frameRate,instructions1.started,instructions1.stopped,key_resp.keys,key_resp.rt,key_resp.duration,example.started,example.stopped,enter_2.keys,enter_2.rt,enter_2.duration,instructions2.started,instructions2.stopped,enter_3.keys,enter_3.rt,enter_3.duration,image.started,image.stopped,slider_2.started,slider_2.stopped,next.keys,next.rt,next.duration,slider.response,trial_block_1.thisRepN,trial_block_1.thisTrialN,trial_block_1.thisN,trial_block_1.thisIndex,trial_block_1.ran,Path,Width,Height,Index,Duration,trial_block_2.thisRepN,trial_block_2.thisTrialN,trial_block_2.thisN,trial_block_2.thisIndex,trial_block_2.ran,rest_break.started,rest_break.stopped,end_break.started,end_break.stopped,key_resp_5.keys,key_resp_5.rt,key_resp_5.duration,trial_block_3.thisRepN,trial_block_3.thisTrialN,trial_block_3.thisN,trial_block_3.thisIndex,trial_block_3.ran,trial_block_4.thisRepN,trial_block_4.thisTrialN,trial_block_4.thisN,trial_block_4.thisIndex,trial_block_4.ran,questions_intro.started,questions_intro.stopped,enter_12.keys,enter_12.rt,enter_12.duration,question2.started,question2.stopped,question_doingbest.response,question_doingbest.rt,enter_15.keys,enter_15.rt,enter_15.duration,pattern.started,pattern.stopped,pattern_2.text,enter_17.keys,enter_17.rt,enter_17.duration,thankyou.started,thankyou.stopped,enter_14.keys,enter_14.rt,enter_14.duration
0.0001,10.2315,return,10.2225,,V3_042,20,female,2024-10-30_16h36.32.729,jersey_experiment_5_v3,2023.2.2,Win32,84.03361345,,,,,,,,,,,,,,,,,,,,,,,,,,,,,,,,,,,,,,,,,,,,,,,,,,,,,,,,,,,,,,,,,,,,,,,,,,,,,,
,,,,,V3_042,20,female,2024-10-30_16h36.32.729,jersey_experiment_5_v3,2023.2.2,Win32,84.03361345,10.2317,19.497,return,9.2473,,,,,,,,,,,,,,,,,,,,,,,,,,,,,,,,,,,,,,,,,,,,,,,,,,,,,,,,,,,,,,,,,,,,,,,,,,
,,,,,V3_042,20,female,2024-10-30_16h36.32.729,jersey_experiment_5_v3,2023.2.2,Win32,84.03361345,,,,,,19.497,23.9027,return,4.3754,,,,,,,,,,,,,,,,,,,,,,,,,,,,,,,,,,,,,,,,,,,,,,,,,,,,,,,,,,,,,,,,,,,,,
,,,,,V3_042,20,female,2024-10-30_16h36.32.729,jersey_experiment_5_v3,2023.2.2,Win32,84.03361345,,,,,,,,,,,23.9028,50.5858,return,26.6717,,,,,,,,,,,,,,,,,,,,,,,,,,,,,,,,,,,,,,,,,,,,,,,,,,,,,,,,,,,,,,,,
,,,,,V3_042,20,female,2024-10-30_16h36.32.729,jersey_experiment_5_v3,2023.2.2,Win32,84.03361345,,,,,,,,,,,,,,,,50.5878,52.1387,52.1388,65.0216,return,7.6942,,26.5625,0,0,0,52,1,FBP-RB-18.png,0.4,1.2,53,0.75,,,,,,,,,,,,,,,,,,,,,,,,,,,,,,,,,,,,,,,,,,,,,
,,,,,V3_042,20,female,2024-10-30_16h36.32.729,jersey_experiment_5_v3,2023.2.2,Win32,84.03361345,,,,,,,,,,,,,,,,65.0217,66.5745,66.5745,69.3158,return,0.3263,,0.78125,0,1,1,10,1,FBP-YG-91.png,0.35,1.2,11,0.75,,,,,,,,,,,,,,,,,,,,,,,,,,,,,,,,,,,,,,,,,,,,,
,,,,,V3_042,20,female,2024-10-30_16h36.32.729,jersey_experiment_5_v3,2023.2.2,Win32,84.03361345,,,,,,,,,,,,,,,,69.3159,70.869,70.869,74.2338,return,0.5792,,0.260416667,0,2,2,4,1,FBP-YG-71.png,0.45,1.2,5,0.75,,,,,,,,,,,,,,,,,,,,,,,,,,,,,,,,,,,,,,,,,,,,,
,,,,,V3_042,20,female,2024-10-30_16h36.32.729,jersey_experiment_5_v3,2023.2.2,Win32,84.03361345,,,,,,,,,,,,,,,,74.2341,75.5277,75.5278,80.5398,return,0.2334,,75.26041667,0,3,3,30,1,FBP-OG-17.png,0.35,1.2,31,0.5,,,,,,,,,,,,,,,,,,,,,,,,,,,,,,,,,,,,,,,,,,,,,
,,,,,V3_042,20,female,2024-10-30_16h36.32.729,jersey_experiment_5_v3,2023.2.2,Win32,84.03361345,,,,,,,,,,,,,,,,80.5399,82.0928,82.0929,85.1636,return,0.1897,,82.8125,0,4,4,56,1,FBP-RB-19.png,0.37,1.2,57,0.75,,,,,,,,,,,,,,,,,,,,,,,,,,,,,,,,,,,,,,,,,,,,,
,,,,,V3_042,20,female,2024-10-30_16h36.32.729,jersey_experiment_5_v3,2023.2.2,Win32,84.03361345,,,,,,,,,,,,,,,,85.1638,86.4575,86.4576,88.3636,return,0.2128,,95.57291667,0,5,5,32,1,FBP-OG-17.png,0.4,1.2,33,0.5,,,,,,,,,,,,,,,,,,,,,,,,,,,,,,,,,,,,,,,,,,,,,
,,,,,V3_042,20,female,2024-10-30_16h36.32.729,jersey_experiment_5_v3,2023.2.2,Win32,84.03361345,,,,,,,,,,,,,,,,88.3637,89.9165,89.9165,91.4226,return,0.2212,,94.40104167,0,6,6,51,1,FBP-RB-18.png,0.37,1.2,52,0.75,,,,,,,,,,,,,,,,,,,,,,,,,,,,,,,,,,,,,,,,,,,,,
,,,,,V3_042,20,female,2024-10-30_16h36.32.729,jersey_experiment_5_v3,2023.2.2,Win32,84.03361345,,,,,,,,,,,,,,,,91.4229,92.7167,92.7167,95.9403,return,0.6752,,37.109375,0,7,7,41,1,FBP-OG-19.png,0.37,1.2,42,0.5,,,,,,,,,,,,,,,,,,,,,,,,,,,,,,,,,,,,,,,,,,,,,
,,,,,V3_042,20,female,2024-10-30_16h36.32.729,jersey_experiment_5_v3,2023.2.2,Win32,84.03361345,,,,,,,,,,,,,,,,95.9404,97.4932,97.4933,100.9876,return,0.4468,,99.73958333,0,8,8,14,1,FBP-YG-91.png,0.45,1.2,15,0.75,,,,,,,,,,,,,,,,,,,,,,,,,,,,,,,,,,,,,,,,,,,,,
,,,,,V3_042,20,female,2024-10-30_16h36.32.729,jersey_experiment_5_v3,2023.2.2,Win32,84.03361345,,,,,,,,,,,,,,,,100.9877,102.5405,102.5406,105.6465,return,0.1913,,75,0,9,9,27,1,FBP-PT-19.png,0.4,1.2,28,0.75,,,,,,,,,,,,,,,,,,,,,,,,,,,,,,,,,,,,,,,,,,,,,
,,,,,V3_042,20,female,2024-10-30_16h36.32.729,jersey_experiment_5_v3,2023.2.2,Win32,84.03361345,,,,,,,,,,,,,,,,105.6467,107.1995,107.1996,109.1407,return,0.0876,,74.86979167,0,10,10,58,1,FBP-RB-19.png,0.43,1.2,59,0.75,,,,,,,,,,,,,,,,,,,,,,,,,,,,,,,,,,,,,,,,,,,,,
,,,,,V3_042,20,female,2024-10-30_16h36.32.729,jersey_experiment_5_v3,2023.2.2,Win32,84.03361345,,,,,,,,,,,,,,,,109.1409,110.6938,110.6938,113.9763,return,0.1571,,7.682291667,0,11,11,25,1,FBP-PT-19.png,0.35,1.2,26,0.75,,,,,,,,,,,,,,,,,,,,,,,,,,,,,,,,,,,,,,,,,,,,,
,,,,,V3_042,20,female,2024-10-30_16h36.32.729,jersey_experiment_5_v3,2023.2.2,Win32,84.03361345,,,,,,,,,,,,,,,,113.9764,115.5293,115.5293,117.9411,return,0.58,,99.08854167,0,12,12,9,1,FBP-YG-81.png,0.45,1.2,10,0.75,,,,,,,,,,,,,,,,,,,,,,,,,,,,,,,,,,,,,,,,,,,,,
,,,,,V3_042,20,female,2024-10-30_16h36.32.729,jersey_experiment_5_v3,2023.2.2,Win32,84.03361345,,,,,,,,,,,,,,,,117.9412,119.4941,119.4941,121.7412,return,0.2568,,99.73958333,0,13,13,3,1,FBP-YG-71.png,0.43,1.2,4,0.75,,,,,,,,,,,,,,,,,,,,,,,,,,,,,,,,,,,,,,,,,,,,,
,,,,,V3_042,20,female,2024-10-30_16h36.32.729,jersey_experiment_5_v3,2023.2.2,Win32,84.03361345,,,,,,,,,,,,,,,,121.7414,123.0354,123.0354,125.812,return,0.0907,,24.34895833,0,14,14,42,1,FBP-OG-19.png,0.4,1.2,43,0.5,,,,,,,,,,,,,,,,,,,,,,,,,,,,,,,,,,,,,,,,,,,,,
,,,,,V3_042,20,female,2024-10-30_16h36.32.729,jersey_experiment_5_v3,2023.2.2,Win32,84.03361345,,,,,,,,,,,,,,,,125.812,127.3533,127.3534,128.9534,return,0.1055,,86.84895833,0,15,15,13,1,FBP-YG-91.png,0.43,1.2,14,0.75,,,,,,,,,,,,,,,,,,,,,,,,,,,,,,,,,,,,,,,,,,,,,
,,,,,V3_042,20,female,2024-10-30_16h36.32.729,jersey_experiment_5_v3,2023.2.2,Win32,84.03361345,,,,,,,,,,,,,,,,128.9535,130.5062,130.5062,132.471,return,0.7467,,99.34895833,0,16,16,24,1,FBP-PT-18.png,0.45,1.2,25,0.75,,,,,,,,,,,,,,,,,,,,,,,,,,,,,,,,,,,,,,,,,,,,,
,,,,,V3_042,20,female,2024-10-30_16h36.32.729,jersey_experiment_5_v3,2023.2.2,Win32,84.03361345,,,,,,,,,,,,,,,,132.4712,134.0241,134.0241,136.6005,return,0.3883,,0.130208333,0,17,17,55,1,FBP-RB-19.png,0.35,1.2,56,0.75,,,,,,,,,,,,,,,,,,,,,,,,,,,,,,,,,,,,,,,,,,,,,
,,,,,V3_042,20,female,2024-10-30_16h36.32.729,jersey_experiment_5_v3,2023.2.2,Win32,84.03361345,,,,,,,,,,,,,,,,136.6008,137.8947,137.8948,140.436,return,0.2907,,25.26041667,0,18,18,35,1,FBP-OG-18.png,0.35,1.2,36,0.5,,,,,,,,,,,,,,,,,,,,,,,,,,,,,,,,,,,,,,,,,,,,,
,,,,,V3_042,20,female,2024-10-30_16h36.32.729,jersey_experiment_5_v3,2023.2.2,Win32,84.03361345,,,,,,,,,,,,,,,,140.4362,141.9894,141.9894,143.142,return,0.2182,,49.609375,0,19,19,22,1,FBP-PT-18.png,0.4,1.2,23,0.75,,,,,,,,,,,,,,,,,,,,,,,,,,,,,,,,,,,,,,,,,,,,,
,,,,,V3_042,20,female,2024-10-30_16h36.32.729,jersey_experiment_5_v3,2023.2.2,Win32,84.03361345,,,,,,,,,,,,,,,,143.1421,144.6951,144.6951,145.7893,return,0.1068,,75,0,20,20,48,1,FBP-RB-17.png,0.43,1.2,49,0.75,,,,,,,,,,,,,,,,,,,,,,,,,,,,,,,,,,,,,,,,,,,,,
,,,,,V3_042,20,female,2024-10-30_16h36.32.729,jersey_experiment_5_v3,2023.2.2,Win32,84.03361345,,,,,,,,,,,,,,,,145.7894,147.0834,147.0834,148.5657,return,0.217,,89.97395833,0,21,21,34,1,FBP-OG-17.png,0.45,1.2,35,0.5,,,,,,,,,,,,,,,,,,,,,,,,,,,,,,,,,,,,,,,,,,,,,
,,,,,V3_042,20,female,2024-10-30_16h36.32.729,jersey_experiment_5_v3,2023.2.2,Win32,84.03361345,,,,,,,,,,,,,,,,148.5658,150.1072,150.1072,151.1071,return,0.2428,,99.86979167,0,22,22,59,1,FBP-RB-19.png,0.45,1.2,60,0.75,,,,,,,,,,,,,,,,,,,,,,,,,,,,,,,,,,,,,,,,,,,,,
,,,,,V3_042,20,female,2024-10-30_16h36.32.729,jersey_experiment_5_v3,2023.2.2,Win32,84.03361345,,,,,,,,,,,,,,,,151.1073,152.4011,152.4012,155.8837,return,1.5068,,36.45833333,0,23,23,37,1,FBP-OG-18.png,0.4,1.2,38,0.5,,,,,,,,,,,,,,,,,,,,,,,,,,,,,,,,,,,,,,,,,,,,,
,,,,,V3_042,20,female,2024-10-30_16h36.32.729,jersey_experiment_5_v3,2023.2.2,Win32,84.03361345,,,,,,,,,,,,,,,,155.8838,157.4367,157.4367,158.5897,return,0.3993,,24.73958333,0,24,24,46,1,FBP-RB-17.png,0.37,1.2,47,0.75,,,,,,,,,,,,,,,,,,,,,,,,,,,,,,,,,,,,,,,,,,,,,
,,,,,V3_042,20,female,2024-10-30_16h36.32.729,jersey_experiment_5_v3,2023.2.2,Win32,84.03361345,,,,,,,,,,,,,,,,158.5898,159.8838,159.8839,161.9074,return,0.1705,,0.130208333,0,25,25,36,1,FBP-OG-18.png,0.37,1.2,37,0.5,,,,,,,,,,,,,,,,,,,,,,,,,,,,,,,,,,,,,,,,,,,,,
,,,,,V3_042,20,female,2024-10-30_16h36.32.729,jersey_experiment_5_v3,2023.2.2,Win32,84.03361345,,,,,,,,,,,,,,,,161.9076,163.4605,163.4606,165.0015,return,0.2932,,74.73958333,0,26,26,8,1,FBP-YG-81.png,0.43,1.2,9,0.75,,,,,,,,,,,,,,,,,,,,,,,,,,,,,,,,,,,,,,,,,,,,,
,,,,,V3_042,20,female,2024-10-30_16h36.32.729,jersey_experiment_5_v3,2023.2.2,Win32,84.03361345,,,,,,,,,,,,,,,,165.0017,166.5431,166.5431,168.1312,return,0.5032,,99.34895833,0,27,27,49,1,FBP-RB-17.png,0.45,1.2,50,0.75,,,,,,,,,,,,,,,,,,,,,,,,,,,,,,,,,,,,,,,,,,,,,
,,,,,V3_042,20,female,2024-10-30_16h36.32.729,jersey_experiment_5_v3,2023.2.2,Win32,84.03361345,,,,,,,,,,,,,,,,168.1316,169.6727,169.6728,171.6608,return,0.3634,,66.14583333,0,28,28,47,1,FBP-RB-17.png,0.4,1.2,48,0.75,,,,,,,,,,,,,,,,,,,,,,,,,,,,,,,,,,,,,,,,,,,,,
,,,,,V3_042,20,female,2024-10-30_16h36.32.729,jersey_experiment_5_v3,2023.2.2,Win32,84.03361345,,,,,,,,,,,,,,,,171.6611,173.2139,173.214,175.0491,return,0.6382,,49.08854167,0,29,29,57,1,FBP-RB-19.png,0.4,1.2,58,0.75,,,,,,,,,,,,,,,,,,,,,,,,,,,,,,,,,,,,,,,,,,,,,
,,,,,V3_042,20,female,2024-10-30_16h36.32.729,jersey_experiment_5_v3,2023.2.2,Win32,84.03361345,,,,,,,,,,,,,,,,175.0494,176.6021,176.6022,177.8021,return,0.0829,,49.34895833,0,30,30,2,1,FBP-YG-71.png,0.4,1.2,3,0.75,,,,,,,,,,,,,,,,,,,,,,,,,,,,,,,,,,,,,,,,,,,,,
,,,,,V3_042,20,female,2024-10-30_16h36.32.729,jersey_experiment_5_v3,2023.2.2,Win32,84.03361345,,,,,,,,,,,,,,,,177.8023,179.3552,179.3553,180.3435,return,0.1458,,24.47916667,0,31,31,21,1,FBP-PT-18.png,0.37,1.2,22,0.75,,,,,,,,,,,,,,,,,,,,,,,,,,,,,,,,,,,,,,,,,,,,,
,,,,,V3_042,20,female,2024-10-30_16h36.32.729,jersey_experiment_5_v3,2023.2.2,Win32,84.03361345,,,,,,,,,,,,,,,,180.3437,181.8965,181.8966,184.8849,return,0.572,,68.88020833,0,32,32,18,1,FBP-PT-17.png,0.43,1.2,19,0.75,,,,,,,,,,,,,,,,,,,,,,,,,,,,,,,,,,,,,,,,,,,,,
,,,,,V3_042,20,female,2024-10-30_16h36.32.729,jersey_experiment_5_v3,2023.2.2,Win32,84.03361345,,,,,,,,,,,,,,,,184.8851,186.1789,186.179,188.4378,return,0.2763,,27.34375,0,33,33,31,1,FBP-OG-17.png,0.37,1.2,32,0.5,,,,,,,,,,,,,,,,,,,,,,,,,,,,,,,,,,,,,,,,,,,,,
,,,,,V3_042,20,female,2024-10-30_16h36.32.729,jersey_experiment_5_v3,2023.2.2,Win32,84.03361345,,,,,,,,,,,,,,,,188.4381,189.991,189.9911,193.332,return,0.4898,,77.21354167,0,34,34,29,1,FBP-PT-19.png,0.45,1.2,30,0.75,,,,,,,,,,,,,,,,,,,,,,,,,,,,,,,,,,,,,,,,,,,,,
,,,,,V3_042,20,female,2024-10-30_16h36.32.729,jersey_experiment_5_v3,2023.2.2,Win32,84.03361345,,,,,,,,,,,,,,,,193.3323,194.8736,194.8736,196.5678,return,0.4041,,92.44791667,0,35,35,54,1,FBP-RB-18.png,0.45,1.2,55,0.75,,,,,,,,,,,,,,,,,,,,,,,,,,,,,,,,,,,,,,,,,,,,,
,,,,,V3_042,20,female,2024-10-30_16h36.32.729,jersey_experiment_5_v3,2023.2.2,Win32,84.03361345,,,,,,,,,,,,,,,,196.568,198.1208,198.1209,199.7794,return,0.4881,,50.65104167,0,36,36,11,1,FBP-YG-91.png,0.37,1.2,12,0.75,,,,,,,,,,,,,,,,,,,,,,,,,,,,,,,,,,,,,,,,,,,,,
,,,,,V3_042,20,female,2024-10-30_16h36.32.729,jersey_experiment_5_v3,2023.2.2,Win32,84.03361345,,,,,,,,,,,,,,,,199.7797,201.0736,201.0738,203.262,return,0.3178,,66.92708333,0,37,37,38,1,FBP-OG-18.png,0.43,1.2,39,0.5,,,,,,,,,,,,,,,,,,,,,,,,,,,,,,,,,,,,,,,,,,,,,
,,,,,V3_042,20,female,2024-10-30_16h36.32.729,jersey_experiment_5_v3,2023.2.2,Win32,84.03361345,,,,,,,,,,,,,,,,203.2626,204.5562,204.5563,208.9092,return,2.126,,0.390625,0,38,38,40,1,FBP-OG-19.png,0.35,1.2,41,0.5,,,,,,,,,,,,,,,,,,,,,,,,,,,,,,,,,,,,,,,,,,,,,
,,,,,V3_042,20,female,2024-10-30_16h36.32.729,jersey_experiment_5_v3,2023.2.2,Win32,84.03361345,,,,,,,,,,,,,,,,208.9095,210.4508,210.4508,213.1448,return,1.0728,,92.96875,0,39,39,19,1,FBP-PT-17.png,0.45,1.2,20,0.75,,,,,,,,,,,,,,,,,,,,,,,,,,,,,,,,,,,,,,,,,,,,,
,,,,,V3_042,20,female,2024-10-30_16h36.32.729,jersey_experiment_5_v3,2023.2.2,Win32,84.03361345,,,,,,,,,,,,,,,,213.1451,214.6976,214.6977,216.5802,return,0.5496,,25.26041667,0,40,40,0,1,FBP-YG-71.png,0.35,1.2,1,0.75,,,,,,,,,,,,,,,,,,,,,,,,,,,,,,,,,,,,,,,,,,,,,
,,,,,V3_042,20,female,2024-10-30_16h36.32.729,jersey_experiment_5_v3,2023.2.2,Win32,84.03361345,,,,,,,,,,,,,,,,216.5805,218.1331,218.1331,220.1096,return,0.3529,,19.140625,0,41,41,5,1,FBP-YG-81.png,0.35,1.2,6,0.75,,,,,,,,,,,,,,,,,,,,,,,,,,,,,,,,,,,,,,,,,,,,,
,,,,,V3_042,20,female,2024-10-30_16h36.32.729,jersey_experiment_5_v3,2023.2.2,Win32,84.03361345,,,,,,,,,,,,,,,,220.1099,221.4038,221.4038,223.6041,return,0.5256,,75.52083333,0,42,42,33,1,FBP-OG-17.png,0.43,1.2,34,0.5,,,,,,,,,,,,,,,,,,,,,,,,,,,,,,,,,,,,,,,,,,,,,
,,,,,V3_042,20,female,2024-10-30_16h36.32.729,jersey_experiment_5_v3,2023.2.2,Win32,84.03361345,,,,,,,,,,,,,,,,223.6044,225.1568,225.1569,227.0627,return,0.2637,,69.53125,0,43,43,7,1,FBP-YG-81.png,0.4,1.2,8,0.75,,,,,,,,,,,,,,,,,,,,,,,,,,,,,,,,,,,,,,,,,,,,,
,,,,,V3_042,20,female,2024-10-30_16h36.32.729,jersey_experiment_5_v3,2023.2.2,Win32,84.03361345,,,,,,,,,,,,,,,,227.0631,228.357,228.357,232.6276,return,2.4639,,89.97395833,0,44,44,39,1,FBP-OG-18.png,0.45,1.2,40,0.5,,,,,,,,,,,,,,,,,,,,,,,,,,,,,,,,,,,,,,,,,,,,,
,,,,,V3_042,20,female,2024-10-30_16h36.32.729,jersey_experiment_5_v3,2023.2.2,Win32,84.03361345,,,,,,,,,,,,,,,,232.6279,234.1807,234.1808,238.7455,return,1.6496,,49.73958333,0,45,45,16,1,FBP-PT-17.png,0.37,1.2,17,0.75,,,,,,,,,,,,,,,,,,,,,,,,,,,,,,,,,,,,,,,,,,,,,
,,,,,V3_042,20,female,2024-10-30_16h36.32.729,jersey_experiment_5_v3,2023.2.2,Win32,84.03361345,,,,,,,,,,,,,,,,238.7458,240.2985,240.2986,246.1341,return,0.1708,,54.94791667,0,46,46,15,1,FBP-PT-17.png,0.35,1.2,16,0.75,,,,,,,,,,,,,,,,,,,,,,,,,,,,,,,,,,,,,,,,,,,,,
,,,,,V3_042,20,female,2024-10-30_16h36.32.729,jersey_experiment_5_v3,2023.2.2,Win32,84.03361345,,,,,,,,,,,,,,,,246.1344,247.687,247.6871,249.3579,return,0.3151,,75.26041667,0,47,47,28,1,FBP-PT-19.png,0.43,1.2,29,0.75,,,,,,,,,,,,,,,,,,,,,,,,,,,,,,,,,,,,,,,,,,,,,
,,,,,V3_042,20,female,2024-10-30_16h36.32.729,jersey_experiment_5_v3,2023.2.2,Win32,84.03361345,,,,,,,,,,,,,,,,249.3583,250.9108,250.9108,253.205,return,0.8425,,75.26041667,0,48,48,23,1,FBP-PT-18.png,0.43,1.2,24,0.75,,,,,,,,,,,,,,,,,,,,,,,,,,,,,,,,,,,,,,,,,,,,,
,,,,,V3_042,20,female,2024-10-30_16h36.32.729,jersey_experiment_5_v3,2023.2.2,Win32,84.03361345,,,,,,,,,,,,,,,,253.2052,254.758,254.7581,258.5345,return,0.3688,,47.91666667,0,49,49,26,1,FBP-PT-19.png,0.37,1.2,27,0.75,,,,,,,,,,,,,,,,,,,,,,,,,,,,,,,,,,,,,,,,,,,,,
,,,,,V3_042,20,female,2024-10-30_16h36.32.729,jersey_experiment_5_v3,2023.2.2,Win32,84.03361345,,,,,,,,,,,,,,,,258.5347,260.0876,260.0876,264.4054,return,1.101,,99.47916667,0,50,50,53,1,FBP-RB-18.png,0.43,1.2,54,0.75,,,,,,,,,,,,,,,,,,,,,,,,,,,,,,,,,,,,,,,,,,,,,
,,,,,V3_042,20,female,2024-10-30_16h36.32.729,jersey_experiment_5_v3,2023.2.2,Win32,84.03361345,,,,,,,,,,,,,,,,264.4057,265.9584,265.9584,267.9231,return,0.5817,,24.73958333,0,51,51,20,1,FBP-PT-18.png,0.35,1.2,21,0.75,,,,,,,,,,,,,,,,,,,,,,,,,,,,,,,,,,,,,,,,,,,,,
,,,,,V3_042,20,female,2024-10-30_16h36.32.729,jersey_experiment_5_v3,2023.2.2,Win32,84.03361345,,,,,,,,,,,,,,,,267.9234,269.4762,269.4763,272.5821,return,0.3233,,60.15625,0,52,52,12,1,FBP-YG-91.png,0.4,1.2,13,0.75,,,,,,,,,,,,,,,,,,,,,,,,,,,,,,,,,,,,,,,,,,,,,
,,,,,V3_042,20,female,2024-10-30_16h36.32.729,jersey_experiment_5_v3,2023.2.2,Win32,84.03361345,,,,,,,,,,,,,,,,272.5823,273.8762,273.8763,276.5823,return,0.947,,76.69270833,0,53,53,44,1,FBP-OG-19.png,0.45,1.2,45,0.5,,,,,,,,,,,,,,,,,,,,,,,,,,,,,,,,,,,,,,,,,,,,,
,,,,,V3_042,20,female,2024-10-30_16h36.32.729,jersey_experiment_5_v3,2023.2.2,Win32,84.03361345,,,,,,,,,,,,,,,,276.5825,278.1352,278.1352,281.4058,return,0.2824,,49.08854167,0,54,54,6,1,FBP-YG-81.png,0.37,1.2,7,0.75,,,,,,,,,,,,,,,,,,,,,,,,,,,,,,,,,,,,,,,,,,,,,
,,,,,V3_042,20,female,2024-10-30_16h36.32.729,jersey_experiment_5_v3,2023.2.2,Win32,84.03361345,,,,,,,,,,,,,,,,281.4061,282.9588,282.9589,284.5471,return,0.4206,,64.453125,0,55,55,17,1,FBP-PT-17.png,0.4,1.2,18,0.75,,,,,,,,,,,,,,,,,,,,,,,,,,,,,,,,,,,,,,,,,,,,,
,,,,,V3_042,20,female,2024-10-30_16h36.32.729,jersey_experiment_5_v3,2023.2.2,Win32,84.03361345,,,,,,,,,,,,,,,,284.5474,286.1002,286.1002,287.465,return,0.604,,64.58333333,0,56,56,1,1,FBP-YG-71.png,0.37,1.2,2,0.75,,,,,,,,,,,,,,,,,,,,,,,,,,,,,,,,,,,,,,,,,,,,,
,,,,,V3_042,20,female,2024-10-30_16h36.32.729,jersey_experiment_5_v3,2023.2.2,Win32,84.03361345,,,,,,,,,,,,,,,,287.4652,289.0181,289.0181,290.6533,return,0.5521,,39.71354167,0,57,57,45,1,FBP-RB-17.png,0.35,1.2,46,0.75,,,,,,,,,,,,,,,,,,,,,,,,,,,,,,,,,,,,,,,,,,,,,
,,,,,V3_042,20,female,2024-10-30_16h36.32.729,jersey_experiment_5_v3,2023.2.2,Win32,84.03361345,,,,,,,,,,,,,,,,290.6535,292.1949,292.1949,293.9711,return,0.2919,,32.94270833,0,58,58,50,1,FBP-RB-18.png,0.35,1.2,51,0.75,,,,,,,,,,,,,,,,,,,,,,,,,,,,,,,,,,,,,,,,,,,,,
,,,,,V3_042,20,female,2024-10-30_16h36.32.729,jersey_experiment_5_v3,2023.2.2,Win32,84.03361345,,,,,,,,,,,,,,,,293.9713,295.2653,295.2654,297.9712,return,0.4561,,88.28125,0,59,59,43,1,FBP-OG-19.png,0.43,1.2,44,0.5,,,,,,,,,,,,,,,,,,,,,,,,,,,,,,,,,,,,,,,,,,,,,
,,,,,V3_042,20,female,2024-10-30_16h36.32.729,jersey_experiment_5_v3,2023.2.2,Win32,84.03361345,,,,,,,,,,,,,,,,297.973,299.5243,299.5244,300.7477,return,0.3532,,99.609375,,,,,,FBP-YG-19.png,0.43,1.2,14,0.75,0,0,0,13,1,,,,,,,,,,,,,,,,,,,,,,,,,,,,,,,,,,,,,,,,
,,,,,V3_042,20,female,2024-10-30_16h36.32.729,jersey_experiment_5_v3,2023.2.2,Win32,84.03361345,,,,,,,,,,,,,,,,300.748,302.3008,302.3008,303.7244,return,0.2959,,99.21875,,,,,,FBP-YG-18.png,0.43,1.2,9,0.75,0,1,1,8,1,,,,,,,,,,,,,,,,,,,,,,,,,,,,,,,,,,,,,,,,
,,,,,V3_042,20,female,2024-10-30_16h36.32.729,jersey_experiment_5_v3,2023.2.2,Win32,84.03361345,,,,,,,,,,,,,,,,303.7246,305.2773,305.2774,306.9479,return,0.1472,,89.453125,,,,,,FBP-RB-71.png,0.43,1.2,49,0.75,0,2,2,48,1,,,,,,,,,,,,,,,,,,,,,,,,,,,,,,,,,,,,,,,,
,,,,,V3_042,20,female,2024-10-30_16h36.32.729,jersey_experiment_5_v3,2023.2.2,Win32,84.03361345,,,,,,,,,,,,,,,,306.9482,308.2425,308.2426,309.6069,return,0.2524,,49.609375,,,,,,FBP-OG-81.png,0.37,1.2,37,0.5,0,3,3,36,1,,,,,,,,,,,,,,,,,,,,,,,,,,,,,,,,,,,,,,,,
,,,,,V3_042,20,female,2024-10-30_16h36.32.729,jersey_experiment_5_v3,2023.2.2,Win32,84.03361345,,,,,,,,,,,,,,,,309.6072,311.1599,311.16,312.8424,return,0.4019,,37.23958333,,,,,,FBP-RB-81.png,0.37,1.2,52,0.75,0,4,4,51,1,,,,,,,,,,,,,,,,,,,,,,,,,,,,,,,,,,,,,,,,
,,,,,V3_042,20,female,2024-10-30_16h36.32.729,jersey_experiment_5_v3,2023.2.2,Win32,84.03361345,,,,,,,,,,,,,,,,312.8427,314.3956,314.3956,315.6307,return,0.2955,,61.84895833,,,,,,FBP-RB-81.png,0.4,1.2,53,0.75,0,5,5,52,1,,,,,,,,,,,,,,,,,,,,,,,,,,,,,,,,,,,,,,,,
,,,,,V3_042,20,female,2024-10-30_16h36.32.729,jersey_experiment_5_v3,2023.2.2,Win32,84.03361345,,,,,,,,,,,,,,,,315.631,317.1838,317.1839,319.9014,return,0.1962,,99.08854167,,,,,,FBP-PT-91.png,0.45,1.2,30,0.75,0,6,6,29,1,,,,,,,,,,,,,,,,,,,,,,,,,,,,,,,,,,,,,,,,
,,,,,V3_042,20,female,2024-10-30_16h36.32.729,jersey_experiment_5_v3,2023.2.2,Win32,84.03361345,,,,,,,,,,,,,,,,319.9016,321.4545,321.4545,325.7252,return,1.437,,75.390625,,,,,,FBP-PT-91.png,0.43,1.2,29,0.75,0,7,7,28,1,,,,,,,,,,,,,,,,,,,,,,,,,,,,,,,,,,,,,,,,
,,,,,V3_042,20,female,2024-10-30_16h36.32.729,jersey_experiment_5_v3,2023.2.2,Win32,84.03361345,,,,,,,,,,,,,,,,325.7255,327.2784,327.2784,331.0194,return,2.3213,,33.59375,,,,,,FBP-PT-91.png,0.35,1.2,26,0.75,0,8,8,25,1,,,,,,,,,,,,,,,,,,,,,,,,,,,,,,,,,,,,,,,,
,,,,,V3_042,20,female,2024-10-30_16h36.32.729,jersey_experiment_5_v3,2023.2.2,Win32,84.03361345,,,,,,,,,,,,,,,,331.0197,332.3137,332.3137,335.6081,return,1.2255,,13.80208333,,,,,,FBP-OG-91.png,0.35,1.2,41,0.5,0,9,9,40,1,,,,,,,,,,,,,,,,,,,,,,,,,,,,,,,,,,,,,,,,
,,,,,V3_042,20,female,2024-10-30_16h36.32.729,jersey_experiment_5_v3,2023.2.2,Win32,84.03361345,,,,,,,,,,,,,,,,335.6084,336.9022,336.9023,338.5257,return,0.2608,,74.609375,,,,,,FBP-OG-71.png,0.45,1.2,35,0.5,0,10,10,34,1,,,,,,,,,,,,,,,,,,,,,,,,,,,,,,,,,,,,,,,,
,,,,,V3_042,20,female,2024-10-30_16h36.32.729,jersey_experiment_5_v3,2023.2.2,Win32,84.03361345,,,,,,,,,,,,,,,,338.5259,339.8197,339.8198,341.4787,return,0.1936,,64.84375,,,,,,FBP-OG-81.png,0.4,1.2,38,0.5,0,11,11,37,1,,,,,,,,,,,,,,,,,,,,,,,,,,,,,,,,,,,,,,,,
,,,,,V3_042,20,female,2024-10-30_16h36.32.729,jersey_experiment_5_v3,2023.2.2,Win32,84.03361345,,,,,,,,,,,,,,,,341.479,343.0316,343.0316,345.1612,return,0.2499,,36.97916667,,,,,,FBP-RB-91.png,0.35,1.2,56,0.75,0,12,12,55,1,,,,,,,,,,,,,,,,,,,,,,,,,,,,,,,,,,,,,,,,
,,,,,V3_042,20,female,2024-10-30_16h36.32.729,jersey_experiment_5_v3,2023.2.2,Win32,84.03361345,,,,,,,,,,,,,,,,345.1615,346.7144,346.7144,348.1025,return,0.2763,,84.89583333,,,,,,FBP-PT-81.png,0.45,1.2,25,0.75,0,13,13,24,1,,,,,,,,,,,,,,,,,,,,,,,,,,,,,,,,,,,,,,,,
,,,,,V3_042,20,female,2024-10-30_16h36.32.729,jersey_experiment_5_v3,2023.2.2,Win32,84.03361345,,,,,,,,,,,,,,,,348.1028,349.6556,349.6557,351.3966,return,0.3958,,69.140625,,,,,,FBP-PT-71.png,0.4,1.2,18,0.75,0,14,14,17,1,,,,,,,,,,,,,,,,,,,,,,,,,,,,,,,,,,,,,,,,
,,,,,V3_042,20,female,2024-10-30_16h36.32.729,jersey_experiment_5_v3,2023.2.2,Win32,84.03361345,,,,,,,,,,,,,,,,351.3968,352.9498,352.9499,355.0791,return,1.1815,,67.83854167,,,,,,FBP-PT-91.png,0.4,1.2,28,0.75,0,15,15,27,1,,,,,,,,,,,,,,,,,,,,,,,,,,,,,,,,,,,,,,,,
,,,,,V3_042,20,female,2024-10-30_16h36.32.729,jersey_experiment_5_v3,2023.2.2,Win32,84.03361345,,,,,,,,,,,,,,,,355.0794,356.3734,356.3734,359.1266,return,0.275,,32.29166667,,,,,,FBP-OG-71.png,0.35,1.2,31,0.5,0,16,16,30,1,,,,,,,,,,,,,,,,,,,,,,,,,,,,,,,,,,,,,,,,
,,,,,V3_042,20,female,2024-10-30_16h36.32.729,jersey_experiment_5_v3,2023.2.2,Win32,84.03361345,,,,,,,,,,,,,,,,359.1269,360.6794,360.6795,362.1853,return,0.1082,,24.609375,,,,,,FBP-YG-18.png,0.37,1.2,7,0.75,0,17,17,6,1,,,,,,,,,,,,,,,,,,,,,,,,,,,,,,,,,,,,,,,,
,,,,,V3_042,20,female,2024-10-30_16h36.32.729,jersey_experiment_5_v3,2023.2.2,Win32,84.03361345,,,,,,,,,,,,,,,,362.1857,363.4795,363.4795,364.3973,return,0.362,,24.86979167,,,,,,FBP-OG-71.png,0.37,1.2,32,0.5,0,18,18,31,1,,,,,,,,,,,,,,,,,,,,,,,,,,,,,,,,,,,,,,,,
,,,,,V3_042,20,female,2024-10-30_16h36.32.729,jersey_experiment_5_v3,2023.2.2,Win32,84.03361345,,,,,,,,,,,,,,,,364.3974,365.9386,365.9388,367.609,return,0.4148,,73.17708333,,,,,,FBP-YG-18.png,0.45,1.2,10,0.75,0,19,19,9,1,,,,,,,,,,,,,,,,,,,,,,,,,,,,,,,,,,,,,,,,
,,,,,V3_042,20,female,2024-10-30_16h36.32.729,jersey_experiment_5_v3,2023.2.2,Win32,84.03361345,,,,,,,,,,,,,,,,367.6093,369.1622,369.1623,371.1504,return,0.4787,,16.53645833,,,,,,FBP-YG-17.png,0.35,1.2,1,0.75,0,20,20,0,1,,,,,,,,,,,,,,,,,,,,,,,,,,,,,,,,,,,,,,,,
,,,,,V3_042,20,female,2024-10-30_16h36.32.729,jersey_experiment_5_v3,2023.2.2,Win32,84.03361345,,,,,,,,,,,,,,,,371.1506,372.4447,372.4448,374.9975,return,0.4735,,75.65104167,,,,,,FBP-OG-71.png,0.43,1.2,34,0.5,0,21,21,33,1,,,,,,,,,,,,,,,,,,,,,,,,,,,,,,,,,,,,,,,,
,,,,,V3_042,20,female,2024-10-30_16h36.32.729,jersey_experiment_5_v3,2023.2.2,Win32,84.03361345,,,,,,,,,,,,,,,,374.9977,376.5389,376.539,378.6448,return,0.3719,,23.56770833,,,,,,FBP-PT-71.png,0.35,1.2,16,0.75,0,22,22,15,1,,,,,,,,,,,,,,,,,,,,,,,,,,,,,,,,,,,,,,,,
,,,,,V3_042,20,female,2024-10-30_16h36.32.729,jersey_experiment_5_v3,2023.2.2,Win32,84.03361345,,,,,,,,,,,,,,,,378.6451,380.1978,380.1978,382.1389,return,0.4481,,58.33333333,,,,,,FBP-RB-91.png,0.4,1.2,58,0.75,0,23,23,57,1,,,,,,,,,,,,,,,,,,,,,,,,,,,,,,,,,,,,,,,,
,,,,,V3_042,20,female,2024-10-30_16h36.32.729,jersey_experiment_5_v3,2023.2.2,Win32,84.03361345,,,,,,,,,,,,,,,,382.1392,383.4331,383.4332,384.7978,return,0.3532,,74.08854167,,,,,,FBP-OG-81.png,0.43,1.2,39,0.5,0,24,24,38,1,,,,,,,,,,,,,,,,,,,,,,,,,,,,,,,,,,,,,,,,
,,,,,V3_042,20,female,2024-10-30_16h36.32.729,jersey_experiment_5_v3,2023.2.2,Win32,84.03361345,,,,,,,,,,,,,,,,384.798,386.3511,386.3511,389.2921,return,1.3884,,25.52083333,,,,,,FBP-PT-81.png,0.35,1.2,21,0.75,0,25,25,20,1,,,,,,,,,,,,,,,,,,,,,,,,,,,,,,,,,,,,,,,,
,,,,,V3_042,20,female,2024-10-30_16h36.32.729,jersey_experiment_5_v3,2023.2.2,Win32,84.03361345,,,,,,,,,,,,,,,,389.2924,390.8452,390.8453,393.7983,return,0.334,,26.04166667,,,,,,FBP-RB-71.png,0.37,1.2,47,0.75,0,26,26,46,1,,,,,,,,,,,,,,,,,,,,,,,,,,,,,,,,,,,,,,,,
,,,,,V3_042,20,female,2024-10-30_16h36.32.729,jersey_experiment_5_v3,2023.2.2,Win32,84.03361345,,,,,,,,,,,,,,,,393.7986,395.3514,395.3514,398.163,return,0.1841,,87.76041667,,,,,,FBP-RB-71.png,0.45,1.2,50,0.75,0,27,27,49,1,,,,,,,,,,,,,,,,,,,,,,,,,,,,,,,,,,,,,,,,
,,,,,V3_042,20,female,2024-10-30_16h36.32.729,jersey_experiment_5_v3,2023.2.2,Win32,84.03361345,,,,,,,,,,,,,,,,398.1633,399.7163,399.7163,401.975,return,0.1936,,34.11458333,,,,,,FBP-RB-71.png,0.35,1.2,46,0.75,0,28,28,45,1,,,,,,,,,,,,,,,,,,,,,,,,,,,,,,,,,,,,,,,,
,,,,,V3_042,20,female,2024-10-30_16h36.32.729,jersey_experiment_5_v3,2023.2.2,Win32,84.03361345,,,,,,,,,,,,,,,,401.9752,403.5165,403.5165,404.8104,return,0.2359,,74.73958333,,,,,,FBP-RB-81.png,0.43,1.2,54,0.75,0,29,29,53,1,,,,,,,,,,,,,,,,,,,,,,,,,,,,,,,,,,,,,,,,
,,,,,V3_042,20,female,2024-10-30_16h36.32.729,jersey_experiment_5_v3,2023.2.2,Win32,84.03361345,,,,,,,,,,,,,,,,404.8107,406.3633,406.3634,408.0692,return,0.2658,,33.33333333,,,,,,FBP-PT-71.png,0.37,1.2,17,0.75,0,30,30,16,1,,,,,,,,,,,,,,,,,,,,,,,,,,,,,,,,,,,,,,,,
,,,,,V3_042,20,female,2024-10-30_16h36.32.729,jersey_experiment_5_v3,2023.2.2,Win32,84.03361345,,,,,,,,,,,,,,,,408.0695,409.3635,409.3635,410.4459,return,0.1734,,74.73958333,,,,,,FBP-OG-81.png,0.45,1.2,40,0.5,0,31,31,39,1,,,,,,,,,,,,,,,,,,,,,,,,,,,,,,,,,,,,,,,,
,,,,,V3_042,20,female,2024-10-30_16h36.32.729,jersey_experiment_5_v3,2023.2.2,Win32,84.03361345,,,,,,,,,,,,,,,,410.4462,411.999,411.999,412.9872,return,0.2128,,81.25,,,,,,FBP-RB-91.png,0.43,1.2,59,0.75,0,32,32,58,1,,,,,,,,,,,,,,,,,,,,,,,,,,,,,,,,,,,,,,,,
,,,,,V3_042,20,female,2024-10-30_16h36.32.729,jersey_experiment_5_v3,2023.2.2,Win32,84.03361345,,,,,,,,,,,,,,,,412.9874,414.5403,414.5403,415.9402,return,0.2167,,49.609375,,,,,,FBP-YG-17.png,0.37,1.2,2,0.75,0,33,33,1,1,,,,,,,,,,,,,,,,,,,,,,,,,,,,,,,,,,,,,,,,
,,,,,V3_042,20,female,2024-10-30_16h36.32.729,jersey_experiment_5_v3,2023.2.2,Win32,84.03361345,,,,,,,,,,,,,,,,415.9407,417.4934,417.4934,418.7403,return,0.2078,,75.91145833,,,,,,FBP-PT-71.png,0.45,1.2,20,0.75,0,34,34,19,1,,,,,,,,,,,,,,,,,,,,,,,,,,,,,,,,,,,,,,,,
,,,,,V3_042,20,female,2024-10-30_16h36.32.729,jersey_experiment_5_v3,2023.2.2,Win32,84.03361345,,,,,,,,,,,,,,,,418.7405,420.2935,420.2935,421.5405,return,0.1916,,39.32291667,,,,,,FBP-YG-19.png,0.37,1.2,12,0.75,0,35,35,11,1,,,,,,,,,,,,,,,,,,,,,,,,,,,,,,,,,,,,,,,,
,,,,,V3_042,20,female,2024-10-30_16h36.32.729,jersey_experiment_5_v3,2023.2.2,Win32,84.03361345,,,,,,,,,,,,,,,,421.5408,422.8347,422.8347,424.2816,return,0.2698,,44.40104167,,,,,,FBP-OG-91.png,0.4,1.2,43,0.5,0,36,36,42,1,,,,,,,,,,,,,,,,,,,,,,,,,,,,,,,,,,,,,,,,
,,,,,V3_042,20,female,2024-10-30_16h36.32.729,jersey_experiment_5_v3,2023.2.2,Win32,84.03361345,,,,,,,,,,,,,,,,424.2818,425.5758,425.5758,427.2582,return,0.3445,,26.43229167,,,,,,FBP-OG-81.png,0.35,1.2,36,0.5,0,37,37,35,1,,,,,,,,,,,,,,,,,,,,,,,,,,,,,,,,,,,,,,,,
,,,,,V3_042,20,female,2024-10-30_16h36.32.729,jersey_experiment_5_v3,2023.2.2,Win32,84.03361345,,,,,,,,,,,,,,,,427.2585,428.8113,428.8113,431.4819,return,0.1772,,83.72395833,,,,,,FBP-RB-91.png,0.45,1.2,60,0.75,0,38,38,59,1,,,,,,,,,,,,,,,,,,,,,,,,,,,,,,,,,,,,,,,,
,,,,,V3_042,20,female,2024-10-30_16h36.32.729,jersey_experiment_5_v3,2023.2.2,Win32,84.03361345,,,,,,,,,,,,,,,,431.4822,433.0349,433.035,436.0585,return,0.1882,,35.546875,,,,,,FBP-PT-81.png,0.37,1.2,22,0.75,0,39,39,21,1,,,,,,,,,,,,,,,,,,,,,,,,,,,,,,,,,,,,,,,,
,,,,,V3_042,20,female,2024-10-30_16h36.32.729,jersey_experiment_5_v3,2023.2.2,Win32,84.03361345,,,,,,,,,,,,,,,,436.0588,437.3528,437.3528,440.1998,return,0.3062,,70.96354167,,,,,,FBP-OG-91.png,0.43,1.2,44,0.5,0,40,40,43,1,,,,,,,,,,,,,,,,,,,,,,,,,,,,,,,,,,,,,,,,
,,,,,V3_042,20,female,2024-10-30_16h36.32.729,jersey_experiment_5_v3,2023.2.2,Win32,84.03361345,,,,,,,,,,,,,,,,440.2001,441.7529,441.753,443.6941,return,0.1649,,49.47916667,,,,,,FBP-YG-18.png,0.35,1.2,6,0.75,0,41,41,5,1,,,,,,,,,,,,,,,,,,,,,,,,,,,,,,,,,,,,,,,,
,,,,,V3_042,20,female,2024-10-30_16h36.32.729,jersey_experiment_5_v3,2023.2.2,Win32,84.03361345,,,,,,,,,,,,,,,,443.6944,445.2471,445.2472,446.8237,return,0.2032,,73.56770833,,,,,,FBP-RB-71.png,0.4,1.2,48,0.75,0,42,42,47,1,,,,,,,,,,,,,,,,,,,,,,,,,,,,,,,,,,,,,,,,
,,,,,V3_042,20,female,2024-10-30_16h36.32.729,jersey_experiment_5_v3,2023.2.2,Win32,84.03361345,,,,,,,,,,,,,,,,446.8239,448.3769,448.3769,449.6591,return,0.1093,,37.890625,,,,,,FBP-YG-19.png,0.35,1.2,11,0.75,0,43,43,10,1,,,,,,,,,,,,,,,,,,,,,,,,,,,,,,,,,,,,,,,,
,,,,,V3_042,20,female,2024-10-30_16h36.32.729,jersey_experiment_5_v3,2023.2.2,Win32,84.03361345,,,,,,,,,,,,,,,,449.6594,450.9533,450.9534,452.3414,return,0.0495,,38.671875,,,,,,FBP-OG-91.png,0.37,1.2,42,0.5,0,44,44,41,1,,,,,,,,,,,,,,,,,,,,,,,,,,,,,,,,,,,,,,,,
,,,,,V3_042,20,female,2024-10-30_16h36.32.729,jersey_experiment_5_v3,2023.2.2,Win32,84.03361345,,,,,,,,,,,,,,,,452.3415,453.8828,453.8828,456.6123,return,1.3355,,80.72916667,,,,,,FBP-YG-17.png,0.45,1.2,5,0.75,0,45,45,4,1,,,,,,,,,,,,,,,,,,,,,,,,,,,,,,,,,,,,,,,,
,,,,,V3_042,20,female,2024-10-30_16h36.32.729,jersey_experiment_5_v3,2023.2.2,Win32,84.03361345,,,,,,,,,,,,,,,,456.6125,457.9065,457.9065,458.8123,return,0.1188,,85.15625,,,,,,FBP-OG-71.png,0.4,1.2,33,0.5,0,46,46,32,1,,,,,,,,,,,,,,,,,,,,,,,,,,,,,,,,,,,,,,,,
,,,,,V3_042,20,female,2024-10-30_16h36.32.729,jersey_experiment_5_v3,2023.2.2,Win32,84.03361345,,,,,,,,,,,,,,,,458.8126,460.3655,460.3656,462.189,return,0.3531,,31.640625,,,,,,FBP-RB-81.png,0.35,1.2,51,0.75,0,47,47,50,1,,,,,,,,,,,,,,,,,,,,,,,,,,,,,,,,,,,,,,,,
,,,,,V3_042,20,female,2024-10-30_16h36.32.729,jersey_experiment_5_v3,2023.2.2,Win32,84.03361345,,,,,,,,,,,,,,,,462.1893,463.7419,463.7419,465.1656,return,0.4677,,94.01041667,,,,,,FBP-YG-17.png,0.43,1.2,4,0.75,0,48,48,3,1,,,,,,,,,,,,,,,,,,,,,,,,,,,,,,,,,,,,,,,,
,,,,,V3_042,20,female,2024-10-30_16h36.32.729,jersey_experiment_5_v3,2023.2.2,Win32,84.03361345,,,,,,,,,,,,,,,,465.166,466.7187,466.7187,467.3539,return,0.0845,,93.22916667,,,,,,FBP-PT-81.png,0.4,1.2,23,0.75,0,49,49,22,1,,,,,,,,,,,,,,,,,,,,,,,,,,,,,,,,,,,,,,,,
,,,,,V3_042,20,female,2024-10-30_16h36.32.729,jersey_experiment_5_v3,2023.2.2,Win32,84.03361345,,,,,,,,,,,,,,,,467.3542,468.9069,468.9069,471.9304,return,0.1069,,57.03125,,,,,,FBP-RB-91.png,0.37,1.2,57,0.75,0,50,50,56,1,,,,,,,,,,,,,,,,,,,,,,,,,,,,,,,,,,,,,,,,
,,,,,V3_042,20,female,2024-10-30_16h36.32.729,jersey_experiment_5_v3,2023.2.2,Win32,84.03361345,,,,,,,,,,,,,,,,471.9306,473.4835,473.4836,479.625,return,4.0822,,35.02604167,,,,,,FBP-PT-91.png,0.37,1.2,27,0.75,0,51,51,26,1,,,,,,,,,,,,,,,,,,,,,,,,,,,,,,,,,,,,,,,,
,,,,,V3_042,20,female,2024-10-30_16h36.32.729,jersey_experiment_5_v3,2023.2.2,Win32,84.03361345,,,,,,,,,,,,,,,,479.6252,481.178,481.1781,483.978,return,0.2722,,99.73958333,,,,,,FBP-RB-81.png,0.45,1.2,55,0.75,0,52,52,54,1,,,,,,,,,,,,,,,,,,,,,,,,,,,,,,,,,,,,,,,,
,,,,,V3_042,20,female,2024-10-30_16h36.32.729,jersey_experiment_5_v3,2023.2.2,Win32,84.03361345,,,,,,,,,,,,,,,,483.9782,485.5311,485.5311,490.9547,return,2.4133,,62.890625,,,,,,FBP-YG-19.png,0.4,1.2,13,0.75,0,53,53,12,1,,,,,,,,,,,,,,,,,,,,,,,,,,,,,,,,,,,,,,,,
,,,,,V3_042,20,female,2024-10-30_16h36.32.729,jersey_experiment_5_v3,2023.2.2,Win32,84.03361345,,,,,,,,,,,,,,,,490.9549,492.5077,492.5078,493.9902,return,0.4176,,75.78125,,,,,,FBP-PT-71.png,0.43,1.2,19,0.75,0,54,54,18,1,,,,,,,,,,,,,,,,,,,,,,,,,,,,,,,,,,,,,,,,
,,,,,V3_042,20,female,2024-10-30_16h36.32.729,jersey_experiment_5_v3,2023.2.2,Win32,84.03361345,,,,,,,,,,,,,,,,493.9904,495.5431,495.5432,499.8846,return,0.4337,,49.08854167,,,,,,FBP-PT-81.png,0.43,1.2,24,0.75,0,55,55,23,1,,,,,,,,,,,,,,,,,,,,,,,,,,,,,,,,,,,,,,,,
,,,,,V3_042,20,female,2024-10-30_16h36.32.729,jersey_experiment_5_v3,2023.2.2,Win32,84.03361345,,,,,,,,,,,,,,,,499.885,501.4374,501.4374,503.4491,return,0.5403,,90.625,,,,,,FBP-YG-19.png,0.45,1.2,15,0.75,0,56,56,14,1,,,,,,,,,,,,,,,,,,,,,,,,,,,,,,,,,,,,,,,,
,,,,,V3_042,20,female,2024-10-30_16h36.32.729,jersey_experiment_5_v3,2023.2.2,Win32,84.03361345,,,,,,,,,,,,,,,,503.4494,504.7436,504.7437,508.0259,return,0.8369,,86.84895833,,,,,,FBP-OG-91.png,0.45,1.2,45,0.5,0,57,57,44,1,,,,,,,,,,,,,,,,,,,,,,,,,,,,,,,,,,,,,,,,
,,,,,V3_042,20,female,2024-10-30_16h36.32.729,jersey_experiment_5_v3,2023.2.2,Win32,84.03361345,,,,,,,,,,,,,,,,508.0261,509.5788,509.5789,510.5318,return,0.3493,,74.47916667,,,,,,FBP-YG-18.png,0.4,1.2,8,0.75,0,58,58,7,1,,,,,,,,,,,,,,,,,,,,,,,,,,,,,,,,,,,,,,,,
,,,,,V3_042,20,female,2024-10-30_16h36.32.729,jersey_experiment_5_v3,2023.2.2,Win32,84.03361345,,,,,,,,,,,,,,,,510.5321,512.0849,512.085,513.9909,return,0.0719,,73.56770833,,,,,,FBP-YG-17.png,0.4,1.2,3,0.75,0,59,59,2,1,,,,,,,,,,,,,,,,,,,,,,,,,,,,,,,,,,,,,,,,
,,,,,V3_042,20,female,2024-10-30_16h36.32.729,jersey_experiment_5_v3,2023.2.2,Win32,84.03361345,,,,,,,,,,,,,,,,,,,,,,,,,,,,,,,,,,,,,,,513.9911,633.9836,,,,,,,,,,,,,,,,,,,,,,,,,,,,,,,,,,,,,,
,,,,,V3_042,20,female,2024-10-30_16h36.32.729,jersey_experiment_5_v3,2023.2.2,Win32,84.03361345,,,,,,,,,,,,,,,,,,,,,,,,,,,,,,,,,,,,,,,,,633.9838,639.2426,return,5.2449,,,,,,,,,,,,,,,,,,,,,,,,,,,,,,,,,,
,,,,,V3_042,20,female,2024-10-30_16h36.32.729,jersey_experiment_5_v3,2023.2.2,Win32,84.03361345,,,,,,,,,,,,,,,,639.2444,640.7955,640.7955,645.1132,return,1.4496,,74.86979167,,,,,,FBP-OG-18.png,0.43,1.2,39,0.75,,,,,,,,,,,,,0,0,0,38,1,,,,,,,,,,,,,,,,,,,,,,,,,,,,
,,,,,V3_042,20,female,2024-10-30_16h36.32.729,jersey_experiment_5_v3,2023.2.2,Win32,84.03361345,,,,,,,,,,,,,,,,645.1136,646.4073,646.4074,648.2781,return,0.1221,,41.53645833,,,,,,FBP-PT-18.png,0.37,1.2,22,0.5,,,,,,,,,,,,,0,1,1,21,1,,,,,,,,,,,,,,,,,,,,,,,,,,,,
,,,,,V3_042,20,female,2024-10-30_16h36.32.729,jersey_experiment_5_v3,2023.2.2,Win32,84.03361345,,,,,,,,,,,,,,,,648.2783,649.5725,649.5725,651.1604,return,0.2001,,98.30729167,,,,,,FBP-YG-81.png,0.45,1.2,10,0.5,,,,,,,,,,,,,0,2,2,9,1,,,,,,,,,,,,,,,,,,,,,,,,,,,,
,,,,,V3_042,20,female,2024-10-30_16h36.32.729,jersey_experiment_5_v3,2023.2.2,Win32,84.03361345,,,,,,,,,,,,,,,,651.1608,652.7136,652.7136,654.1489,return,0.2188,,75.52083333,,,,,,FBP-OG-19.png,0.43,1.2,44,0.75,,,,,,,,,,,,,0,3,3,43,1,,,,,,,,,,,,,,,,,,,,,,,,,,,,
,,,,,V3_042,20,female,2024-10-30_16h36.32.729,jersey_experiment_5_v3,2023.2.2,Win32,84.03361345,,,,,,,,,,,,,,,,654.149,655.443,655.443,656.9253,return,0.1177,,49.73958333,,,,,,FBP-PT-19.png,0.4,1.2,28,0.5,,,,,,,,,,,,,0,4,4,27,1,,,,,,,,,,,,,,,,,,,,,,,,,,,,
,,,,,V3_042,20,female,2024-10-30_16h36.32.729,jersey_experiment_5_v3,2023.2.2,Win32,84.03361345,,,,,,,,,,,,,,,,656.9256,658.2196,658.2196,660.6196,return,0.1649,,22.00520833,,,,,,FBP-RB-18.png,0.35,1.2,51,0.5,,,,,,,,,,,,,0,5,5,50,1,,,,,,,,,,,,,,,,,,,,,,,,,,,,
,,,,,V3_042,20,female,2024-10-30_16h36.32.729,jersey_experiment_5_v3,2023.2.2,Win32,84.03361345,,,,,,,,,,,,,,,,660.6199,661.9141,661.9141,663.8197,return,0.1717,,99.73958333,,,,,,FBP-RB-19.png,0.45,1.2,60,0.5,,,,,,,,,,,,,0,6,6,59,1,,,,,,,,,,,,,,,,,,,,,,,,,,,,
,,,,,V3_042,20,female,2024-10-30_16h36.32.729,jersey_experiment_5_v3,2023.2.2,Win32,84.03361345,,,,,,,,,,,,,,,,663.82,665.1139,665.114,666.0551,return,0.0988,,99.47916667,,,,,,FBP-PT-19.png,0.45,1.2,30,0.5,,,,,,,,,,,,,0,7,7,29,1,,,,,,,,,,,,,,,,,,,,,,,,,,,,
,,,,,V3_042,20,female,2024-10-30_16h36.32.729,jersey_experiment_5_v3,2023.2.2,Win32,84.03361345,,,,,,,,,,,,,,,,666.0554,667.3492,667.3493,670.726,return,0.8884,,80.078125,,,,,,FBP-RB-17.png,0.43,1.2,49,0.5,,,,,,,,,,,,,0,8,8,48,1,,,,,,,,,,,,,,,,,,,,,,,,,,,,
,,,,,V3_042,20,female,2024-10-30_16h36.32.729,jersey_experiment_5_v3,2023.2.2,Win32,84.03361345,,,,,,,,,,,,,,,,670.7262,672.0201,672.0201,673.5025,return,0.1559,,50.390625,,,,,,FBP-RB-18.png,0.4,1.2,53,0.5,,,,,,,,,,,,,0,9,9,52,1,,,,,,,,,,,,,,,,,,,,,,,,,,,,
,,,,,V3_042,20,female,2024-10-30_16h36.32.729,jersey_experiment_5_v3,2023.2.2,Win32,84.03361345,,,,,,,,,,,,,,,,673.5029,675.0554,675.0554,676.6907,return,0.6916,,73.95833333,,,,,,FBP-OG-18.png,0.4,1.2,38,0.75,,,,,,,,,,,,,0,10,10,37,1,,,,,,,,,,,,,,,,,,,,,,,,,,,,
,,,,,V3_042,20,female,2024-10-30_16h36.32.729,jersey_experiment_5_v3,2023.2.2,Win32,84.03361345,,,,,,,,,,,,,,,,676.691,677.985,677.985,679.1616,return,0.128,,87.890625,,,,,,FBP-RB-17.png,0.45,1.2,50,0.5,,,,,,,,,,,,,0,11,11,49,1,,,,,,,,,,,,,,,,,,,,,,,,,,,,
,,,,,V3_042,20,female,2024-10-30_16h36.32.729,jersey_experiment_5_v3,2023.2.2,Win32,84.03361345,,,,,,,,,,,,,,,,679.162,680.4558,680.4559,682.1263,return,0.1643,,0.260416667,,,,,,FBP-RB-17.png,0.35,1.2,46,0.5,,,,,,,,,,,,,0,12,12,45,1,,,,,,,,,,,,,,,,,,,,,,,,,,,,
,,,,,V3_042,20,female,2024-10-30_16h36.32.729,jersey_experiment_5_v3,2023.2.2,Win32,84.03361345,,,,,,,,,,,,,,,,682.1267,683.4207,683.4208,684.3617,return,0.0808,,24.34895833,,,,,,FBP-RB-18.png,0.37,1.2,52,0.5,,,,,,,,,,,,,0,13,13,51,1,,,,,,,,,,,,,,,,,,,,,,,,,,,,
,,,,,V3_042,20,female,2024-10-30_16h36.32.729,jersey_experiment_5_v3,2023.2.2,Win32,84.03361345,,,,,,,,,,,,,,,,684.362,685.6559,685.6559,686.8441,return,0.0923,,48.69791667,,,,,,FBP-YG-71.png,0.4,1.2,3,0.5,,,,,,,,,,,,,0,14,14,2,1,,,,,,,,,,,,,,,,,,,,,,,,,,,,
,,,,,V3_042,20,female,2024-10-30_16h36.32.729,jersey_experiment_5_v3,2023.2.2,Win32,84.03361345,,,,,,,,,,,,,,,,686.8444,688.3975,688.3975,689.1972,return,0.1884,,92.44791667,,,,,,FBP-OG-18.png,0.45,1.2,40,0.75,,,,,,,,,,,,,0,15,15,39,1,,,,,,,,,,,,,,,,,,,,,,,,,,,,
,,,,,V3_042,20,female,2024-10-30_16h36.32.729,jersey_experiment_5_v3,2023.2.2,Win32,84.03361345,,,,,,,,,,,,,,,,689.1975,690.4914,690.4914,694.7152,return,0.1889,,48.95833333,,,,,,FBP-YG-91.png,0.37,1.2,12,0.5,,,,,,,,,,,,,0,16,16,11,1,,,,,,,,,,,,,,,,,,,,,,,,,,,,
,,,,,V3_042,20,female,2024-10-30_16h36.32.729,jersey_experiment_5_v3,2023.2.2,Win32,84.03361345,,,,,,,,,,,,,,,,694.7154,696.0092,696.0093,698.2798,return,0.0941,,86.19791667,,,,,,FBP-PT-18.png,0.45,1.2,25,0.5,,,,,,,,,,,,,0,17,17,24,1,,,,,,,,,,,,,,,,,,,,,,,,,,,,
,,,,,V3_042,20,female,2024-10-30_16h36.32.729,jersey_experiment_5_v3,2023.2.2,Win32,84.03361345,,,,,,,,,,,,,,,,698.28,699.5741,699.5741,703.6919,return,1.7316,,22.52604167,,,,,,FBP-PT-18.png,0.35,1.2,21,0.5,,,,,,,,,,,,,0,18,18,20,1,,,,,,,,,,,,,,,,,,,,,,,,,,,,
,,,,,V3_042,20,female,2024-10-30_16h36.32.729,jersey_experiment_5_v3,2023.2.2,Win32,84.03361345,,,,,,,,,,,,,,,,703.6922,705.2449,705.245,706.6332,return,0.1562,,49.08854167,,,,,,FBP-OG-17.png,0.4,1.2,33,0.75,,,,,,,,,,,,,0,19,19,32,1,,,,,,,,,,,,,,,,,,,,,,,,,,,,
,,,,,V3_042,20,female,2024-10-30_16h36.32.729,jersey_experiment_5_v3,2023.2.2,Win32,84.03361345,,,,,,,,,,,,,,,,706.6334,707.9273,707.9273,708.6685,return,0.0818,,50.13020833,,,,,,FBP-RB-17.png,0.37,1.2,47,0.5,,,,,,,,,,,,,0,20,20,46,1,,,,,,,,,,,,,,,,,,,,,,,,,,,,
,,,,,V3_042,20,female,2024-10-30_16h36.32.729,jersey_experiment_5_v3,2023.2.2,Win32,84.03361345,,,,,,,,,,,,,,,,708.6687,709.9628,709.9628,711.0332,return,0.1436,,30.20833333,,,,,,FBP-RB-19.png,0.35,1.2,56,0.5,,,,,,,,,,,,,0,21,21,55,1,,,,,,,,,,,,,,,,,,,,,,,,,,,,
,,,,,V3_042,20,female,2024-10-30_16h36.32.729,jersey_experiment_5_v3,2023.2.2,Win32,84.03361345,,,,,,,,,,,,,,,,711.0336,712.3275,712.3275,713.5157,return,0.1029,,74.21875,,,,,,FBP-PT-18.png,0.43,1.2,24,0.5,,,,,,,,,,,,,0,22,22,23,1,,,,,,,,,,,,,,,,,,,,,,,,,,,,
,,,,,V3_042,20,female,2024-10-30_16h36.32.729,jersey_experiment_5_v3,2023.2.2,Win32,84.03361345,,,,,,,,,,,,,,,,713.516,714.8098,714.81,716.6452,return,0.1242,,93.88020833,,,,,,FBP-RB-18.png,0.43,1.2,54,0.5,,,,,,,,,,,,,0,23,23,53,1,,,,,,,,,,,,,,,,,,,,,,,,,,,,
,,,,,V3_042,20,female,2024-10-30_16h36.32.729,jersey_experiment_5_v3,2023.2.2,Win32,84.03361345,,,,,,,,,,,,,,,,716.6455,718.1866,718.1867,719.6454,return,0.1412,,95.96354167,,,,,,FBP-OG-17.png,0.43,1.2,34,0.75,,,,,,,,,,,,,0,24,24,33,1,,,,,,,,,,,,,,,,,,,,,,,,,,,,
,,,,,V3_042,20,female,2024-10-30_16h36.32.729,jersey_experiment_5_v3,2023.2.2,Win32,84.03361345,,,,,,,,,,,,,,,,719.6457,720.9395,720.9395,722.6219,return,0.082,,74.609375,,,,,,FBP-PT-18.png,0.4,1.2,23,0.5,,,,,,,,,,,,,0,25,25,22,1,,,,,,,,,,,,,,,,,,,,,,,,,,,,
,,,,,V3_042,20,female,2024-10-30_16h36.32.729,jersey_experiment_5_v3,2023.2.2,Win32,84.03361345,,,,,,,,,,,,,,,,722.6222,723.9161,723.9161,724.9633,return,0.1146,,86.328125,,,,,,FBP-PT-19.png,0.43,1.2,29,0.5,,,,,,,,,,,,,0,26,26,28,1,,,,,,,,,,,,,,,,,,,,,,,,,,,,
,,,,,V3_042,20,female,2024-10-30_16h36.32.729,jersey_experiment_5_v3,2023.2.2,Win32,84.03361345,,,,,,,,,,,,,,,,724.9635,726.5164,726.5165,728.3164,return,0.2451,,24.86979167,,,,,,FBP-OG-17.png,0.35,1.2,31,0.75,,,,,,,,,,,,,0,27,27,30,1,,,,,,,,,,,,,,,,,,,,,,,,,,,,
,,,,,V3_042,20,female,2024-10-30_16h36.32.729,jersey_experiment_5_v3,2023.2.2,Win32,84.03361345,,,,,,,,,,,,,,,,728.3167,729.6105,729.6105,730.5633,return,0.0438,,23.828125,,,,,,FBP-PT-19.png,0.35,1.2,26,0.5,,,,,,,,,,,,,0,28,28,25,1,,,,,,,,,,,,,,,,,,,,,,,,,,,,
,,,,,V3_042,20,female,2024-10-30_16h36.32.729,jersey_experiment_5_v3,2023.2.2,Win32,84.03361345,,,,,,,,,,,,,,,,730.5635,731.8576,731.8576,733.9283,return,0.0861,,82.94270833,,,,,,FBP-YG-91.png,0.45,1.2,15,0.5,,,,,,,,,,,,,0,29,29,14,1,,,,,,,,,,,,,,,,,,,,,,,,,,,,
,,,,,V3_042,20,female,2024-10-30_16h36.32.729,jersey_experiment_5_v3,2023.2.2,Win32,84.03361345,,,,,,,,,,,,,,,,733.9286,735.2224,735.2224,736.3755,return,0.0936,,50,,,,,,FBP-YG-71.png,0.37,1.2,2,0.5,,,,,,,,,,,,,0,30,30,1,1,,,,,,,,,,,,,,,,,,,,,,,,,,,,
,,,,,V3_042,20,female,2024-10-30_16h36.32.729,jersey_experiment_5_v3,2023.2.2,Win32,84.03361345,,,,,,,,,,,,,,,,736.3757,737.6695,737.6695,739.6108,return,0.9274,,75.13020833,,,,,,FBP-PT-17.png,0.43,1.2,19,0.5,,,,,,,,,,,,,0,31,31,18,1,,,,,,,,,,,,,,,,,,,,,,,,,,,,
,,,,,V3_042,20,female,2024-10-30_16h36.32.729,jersey_experiment_5_v3,2023.2.2,Win32,84.03361345,,,,,,,,,,,,,,,,739.611,740.905,740.905,741.9873,return,0.0167,,74.34895833,,,,,,FBP-PT-17.png,0.4,1.2,18,0.5,,,,,,,,,,,,,0,32,32,17,1,,,,,,,,,,,,,,,,,,,,,,,,,,,,
,,,,,V3_042,20,female,2024-10-30_16h36.32.729,jersey_experiment_5_v3,2023.2.2,Win32,84.03361345,,,,,,,,,,,,,,,,741.9875,743.2816,743.2817,744.6933,return,0.1243,,25.13020833,,,,,,FBP-YG-81.png,0.35,1.2,6,0.5,,,,,,,,,,,,,0,33,33,5,1,,,,,,,,,,,,,,,,,,,,,,,,,,,,
,,,,,V3_042,20,female,2024-10-30_16h36.32.729,jersey_experiment_5_v3,2023.2.2,Win32,84.03361345,,,,,,,,,,,,,,,,744.6935,745.9877,745.9877,746.7169,return,0.047,,24.86979167,,,,,,FBP-PT-17.png,0.35,1.2,16,0.5,,,,,,,,,,,,,0,34,34,15,1,,,,,,,,,,,,,,,,,,,,,,,,,,,,
,,,,,V3_042,20,female,2024-10-30_16h36.32.729,jersey_experiment_5_v3,2023.2.2,Win32,84.03361345,,,,,,,,,,,,,,,,746.7171,748.0111,748.0111,749.011,return,0.0677,,49.47916667,,,,,,FBP-RB-19.png,0.37,1.2,57,0.5,,,,,,,,,,,,,0,35,35,56,1,,,,,,,,,,,,,,,,,,,,,,,,,,,,
,,,,,V3_042,20,female,2024-10-30_16h36.32.729,jersey_experiment_5_v3,2023.2.2,Win32,84.03361345,,,,,,,,,,,,,,,,749.0113,750.3053,750.3053,750.9406,return,0.0687,,49.21875,,,,,,FBP-PT-17.png,0.37,1.2,17,0.5,,,,,,,,,,,,,0,36,36,16,1,,,,,,,,,,,,,,,,,,,,,,,,,,,,
,,,,,V3_042,20,female,2024-10-30_16h36.32.729,jersey_experiment_5_v3,2023.2.2,Win32,84.03361345,,,,,,,,,,,,,,,,750.9409,752.2347,752.2348,753.0819,return,0.1653,,67.05729167,,,,,,FBP-RB-17.png,0.4,1.2,48,0.5,,,,,,,,,,,,,0,37,37,47,1,,,,,,,,,,,,,,,,,,,,,,,,,,,,
,,,,,V3_042,20,female,2024-10-30_16h36.32.729,jersey_experiment_5_v3,2023.2.2,Win32,84.03361345,,,,,,,,,,,,,,,,753.0822,754.3761,754.3761,755.8466,return,0.1699,,74.86979167,,,,,,FBP-PT-17.png,0.45,1.2,20,0.5,,,,,,,,,,,,,0,38,38,19,1,,,,,,,,,,,,,,,,,,,,,,,,,,,,
,,,,,V3_042,20,female,2024-10-30_16h36.32.729,jersey_experiment_5_v3,2023.2.2,Win32,84.03361345,,,,,,,,,,,,,,,,755.8468,757.3998,757.3998,758.1996,return,0.1219,,75.65104167,,,,,,FBP-OG-19.png,0.45,1.2,45,0.75,,,,,,,,,,,,,0,39,39,44,1,,,,,,,,,,,,,,,,,,,,,,,,,,,,
,,,,,V3_042,20,female,2024-10-30_16h36.32.729,jersey_experiment_5_v3,2023.2.2,Win32,84.03361345,,,,,,,,,,,,,,,,758.1999,759.4939,759.494,760.6823,return,0.1102,,49.86979167,,,,,,FBP-YG-91.png,0.35,1.2,11,0.5,,,,,,,,,,,,,0,40,40,10,1,,,,,,,,,,,,,,,,,,,,,,,,,,,,
,,,,,V3_042,20,female,2024-10-30_16h36.32.729,jersey_experiment_5_v3,2023.2.2,Win32,84.03361345,,,,,,,,,,,,,,,,760.6825,761.9763,761.9763,762.5057,return,0.1511,,49.86979167,,,,,,FBP-YG-71.png,0.35,1.2,1,0.5,,,,,,,,,,,,,0,41,41,0,1,,,,,,,,,,,,,,,,,,,,,,,,,,,,
,,,,,V3_042,20,female,2024-10-30_16h36.32.729,jersey_experiment_5_v3,2023.2.2,Win32,84.03361345,,,,,,,,,,,,,,,,762.5059,763.8,763.8,765.5882,return,0.8392,,69.53125,,,,,,FBP-YG-81.png,0.4,1.2,8,0.5,,,,,,,,,,,,,0,42,42,7,1,,,,,,,,,,,,,,,,,,,,,,,,,,,,
,,,,,V3_042,20,female,2024-10-30_16h36.32.729,jersey_experiment_5_v3,2023.2.2,Win32,84.03361345,,,,,,,,,,,,,,,,765.5885,766.8823,766.8824,767.4825,return,0.1915,,69.53125,,,,,,FBP-YG-91.png,0.43,1.2,14,0.5,,,,,,,,,,,,,0,43,43,13,1,,,,,,,,,,,,,,,,,,,,,,,,,,,,
,,,,,V3_042,20,female,2024-10-30_16h36.32.729,jersey_experiment_5_v3,2023.2.2,Win32,84.03361345,,,,,,,,,,,,,,,,767.4827,768.7765,768.7766,769.3884,return,0.1417,,69.53125,,,,,,FBP-RB-19.png,0.4,1.2,58,0.5,,,,,,,,,,,,,0,44,44,57,1,,,,,,,,,,,,,,,,,,,,,,,,,,,,
,,,,,V3_042,20,female,2024-10-30_16h36.32.729,jersey_experiment_5_v3,2023.2.2,Win32,84.03361345,,,,,,,,,,,,,,,,769.3887,770.9416,770.9417,771.8356,return,0.1305,,86.45833333,,,,,,FBP-OG-17.png,0.45,1.2,35,0.75,,,,,,,,,,,,,0,45,45,34,1,,,,,,,,,,,,,,,,,,,,,,,,,,,,
,,,,,V3_042,20,female,2024-10-30_16h36.32.729,jersey_experiment_5_v3,2023.2.2,Win32,84.03361345,,,,,,,,,,,,,,,,771.8359,773.1295,773.1295,774.2473,return,0.1221,,49.86979167,,,,,,FBP-YG-81.png,0.37,1.2,7,0.5,,,,,,,,,,,,,0,46,46,6,1,,,,,,,,,,,,,,,,,,,,,,,,,,,,
,,,,,V3_042,20,female,2024-10-30_16h36.32.729,jersey_experiment_5_v3,2023.2.2,Win32,84.03361345,,,,,,,,,,,,,,,,774.2476,775.8004,775.8004,776.3417,return,0.132,,49.86979167,,,,,,FBP-OG-19.png,0.35,1.2,41,0.75,,,,,,,,,,,,,0,47,47,40,1,,,,,,,,,,,,,,,,,,,,,,,,,,,,
,,,,,V3_042,20,female,2024-10-30_16h36.32.729,jersey_experiment_5_v3,2023.2.2,Win32,84.03361345,,,,,,,,,,,,,,,,776.342,777.8946,777.8946,778.4709,return,0.1106,,49.86979167,,,,,,FBP-OG-19.png,0.37,1.2,42,0.75,,,,,,,,,,,,,0,48,48,41,1,,,,,,,,,,,,,,,,,,,,,,,,,,,,
,,,,,V3_042,20,female,2024-10-30_16h36.32.729,jersey_experiment_5_v3,2023.2.2,Win32,84.03361345,,,,,,,,,,,,,,,,778.4712,780.0241,780.0241,780.6008,return,0.1544,,49.86979167,,,,,,FBP-OG-18.png,0.37,1.2,37,0.75,,,,,,,,,,,,,0,49,49,36,1,,,,,,,,,,,,,,,,,,,,,,,,,,,,
,,,,,V3_042,20,female,2024-10-30_16h36.32.729,jersey_experiment_5_v3,2023.2.2,Win32,84.03361345,,,,,,,,,,,,,,,,780.601,781.8946,781.8947,783.1889,return,0.1956,,75.52083333,,,,,,FBP-YG-81.png,0.43,1.2,9,0.5,,,,,,,,,,,,,0,50,50,8,1,,,,,,,,,,,,,,,,,,,,,,,,,,,,
,,,,,V3_042,20,female,2024-10-30_16h36.32.729,jersey_experiment_5_v3,2023.2.2,Win32,84.03361345,,,,,,,,,,,,,,,,783.1891,784.7419,784.7419,785.3654,return,0.0497,,66.14583333,,,,,,FBP-OG-19.png,0.4,1.2,43,0.75,,,,,,,,,,,,,0,51,51,42,1,,,,,,,,,,,,,,,,,,,,,,,,,,,,
,,,,,V3_042,20,female,2024-10-30_16h36.32.729,jersey_experiment_5_v3,2023.2.2,Win32,84.03361345,,,,,,,,,,,,,,,,785.3657,786.6595,786.6595,787.2362,return,0.1489,,66.14583333,,,,,,FBP-YG-91.png,0.4,1.2,13,0.5,,,,,,,,,,,,,0,52,52,12,1,,,,,,,,,,,,,,,,,,,,,,,,,,,,
,,,,,V3_042,20,female,2024-10-30_16h36.32.729,jersey_experiment_5_v3,2023.2.2,Win32,84.03361345,,,,,,,,,,,,,,,,787.2364,788.5303,788.5304,789.5892,return,0.195,,79.6875,,,,,,FBP-YG-71.png,0.45,1.2,5,0.5,,,,,,,,,,,,,0,53,53,4,1,,,,,,,,,,,,,,,,,,,,,,,,,,,,
,,,,,V3_042,20,female,2024-10-30_16h36.32.729,jersey_experiment_5_v3,2023.2.2,Win32,84.03361345,,,,,,,,,,,,,,,,789.5895,791.1424,791.1425,792.1421,return,0.0953,,50.52083333,,,,,,FBP-OG-18.png,0.35,1.2,36,0.75,,,,,,,,,,,,,0,54,54,35,1,,,,,,,,,,,,,,,,,,,,,,,,,,,,
,,,,,V3_042,20,female,2024-10-30_16h36.32.729,jersey_experiment_5_v3,2023.2.2,Win32,84.03361345,,,,,,,,,,,,,,,,792.1424,793.4364,793.4365,795.2364,return,0.1722,,83.46354167,,,,,,FBP-RB-18.png,0.45,1.2,55,0.5,,,,,,,,,,,,,0,55,55,54,1,,,,,,,,,,,,,,,,,,,,,,,,,,,,
,,,,,V3_042,20,female,2024-10-30_16h36.32.729,jersey_experiment_5_v3,2023.2.2,Win32,84.03361345,,,,,,,,,,,,,,,,795.2367,796.5305,796.5306,797.3659,return,0.1939,,83.984375,,,,,,FBP-RB-19.png,0.43,1.2,59,0.5,,,,,,,,,,,,,0,56,56,58,1,,,,,,,,,,,,,,,,,,,,,,,,,,,,
,,,,,V3_042,20,female,2024-10-30_16h36.32.729,jersey_experiment_5_v3,2023.2.2,Win32,84.03361345,,,,,,,,,,,,,,,,797.3662,798.6603,798.6604,799.6364,return,0.1835,,86.45833333,,,,,,FBP-YG-71.png,0.43,1.2,4,0.5,,,,,,,,,,,,,0,57,57,3,1,,,,,,,,,,,,,,,,,,,,,,,,,,,,
,,,,,V3_042,20,female,2024-10-30_16h36.32.729,jersey_experiment_5_v3,2023.2.2,Win32,84.03361345,,,,,,,,,,,,,,,,799.6366,801.1779,801.1779,803.5071,return,0.2168,,60.80729167,,,,,,FBP-OG-17.png,0.37,1.2,32,0.75,,,,,,,,,,,,,0,58,58,31,1,,,,,,,,,,,,,,,,,,,,,,,,,,,,
,,,,,V3_042,20,female,2024-10-30_16h36.32.729,jersey_experiment_5_v3,2023.2.2,Win32,84.03361345,,,,,,,,,,,,,,,,803.5073,804.8014,804.8015,806.7895,return,0.359,,38.41145833,,,,,,FBP-PT-19.png,0.37,1.2,27,0.5,,,,,,,,,,,,,0,59,59,26,1,,,,,,,,,,,,,,,,,,,,,,,,,,,,
,,,,,V3_042,20,female,2024-10-30_16h36.32.729,jersey_experiment_5_v3,2023.2.2,Win32,84.03361345,,,,,,,,,,,,,,,,806.7917,808.0839,808.0841,811.2369,return,0.2997,,80.98958333,,,,,,FBP-RB-81.png,0.45,1.2,55,0.5,,,,,,,,,,,,,,,,,,0,0,0,54,1,,,,,,,,,,,,,,,,,,,,,,,
,,,,,V3_042,20,female,2024-10-30_16h36.32.729,jersey_experiment_5_v3,2023.2.2,Win32,84.03361345,,,,,,,,,,,,,,,,811.2372,812.5311,812.5311,813.6135,return,0.4707,,80.98958333,,,,,,FBP-PT-81.png,0.43,1.2,24,0.5,,,,,,,,,,,,,,,,,,0,1,1,23,1,,,,,,,,,,,,,,,,,,,,,,,
,,,,,V3_042,20,female,2024-10-30_16h36.32.729,jersey_experiment_5_v3,2023.2.2,Win32,84.03361345,,,,,,,,,,,,,,,,813.6138,814.9076,814.9078,816.9078,return,0.1649,,70.44270833,,,,,,FBP-PT-81.png,0.4,1.2,23,0.5,,,,,,,,,,,,,,,,,,0,2,2,22,1,,,,,,,,,,,,,,,,,,,,,,,
,,,,,V3_042,20,female,2024-10-30_16h36.32.729,jersey_experiment_5_v3,2023.2.2,Win32,84.03361345,,,,,,,,,,,,,,,,816.9079,818.2019,818.2019,819.0373,return,0.4389,,70.44270833,,,,,,FBP-PT-91.png,0.4,1.2,28,0.5,,,,,,,,,,,,,,,,,,0,3,3,27,1,,,,,,,,,,,,,,,,,,,,,,,
,,,,,V3_042,20,female,2024-10-30_16h36.32.729,jersey_experiment_5_v3,2023.2.2,Win32,84.03361345,,,,,,,,,,,,,,,,819.0375,820.3313,820.3314,821.6255,return,0.331,,75.78125,,,,,,FBP-RB-71.png,0.43,1.2,49,0.5,,,,,,,,,,,,,,,,,,0,4,4,48,1,,,,,,,,,,,,,,,,,,,,,,,
,,,,,V3_042,20,female,2024-10-30_16h36.32.729,jersey_experiment_5_v3,2023.2.2,Win32,84.03361345,,,,,,,,,,,,,,,,821.6258,823.1784,823.1785,826.4258,return,1.9043,,49.21875,,,,,,FBP-OG-81.png,0.4,1.2,38,0.75,,,,,,,,,,,,,,,,,,0,5,5,37,1,,,,,,,,,,,,,,,,,,,,,,,
,,,,,V3_042,20,female,2024-10-30_16h36.32.729,jersey_experiment_5_v3,2023.2.2,Win32,84.03361345,,,,,,,,,,,,,,,,826.4259,827.7199,827.7199,829.7317,return,0.3612,,74.34895833,,,,,,FBP-PT-71.png,0.43,1.2,19,0.5,,,,,,,,,,,,,,,,,,0,6,6,18,1,,,,,,,,,,,,,,,,,,,,,,,
,,,,,V3_042,20,female,2024-10-30_16h36.32.729,jersey_experiment_5_v3,2023.2.2,Win32,84.03361345,,,,,,,,,,,,,,,,829.732,831.0258,831.0259,832.2493,return,0.1782,,49.08854167,,,,,,FBP-PT-81.png,0.37,1.2,22,0.5,,,,,,,,,,,,,,,,,,0,7,7,21,1,,,,,,,,,,,,,,,,,,,,,,,
,,,,,V3_042,20,female,2024-10-30_16h36.32.729,jersey_experiment_5_v3,2023.2.2,Win32,84.03361345,,,,,,,,,,,,,,,,832.2497,833.8024,833.8025,836.1319,return,0.1491,,45.05208333,,,,,,FBP-OG-81.png,0.35,1.2,36,0.75,,,,,,,,,,,,,,,,,,0,8,8,35,1,,,,,,,,,,,,,,,,,,,,,,,
,,,,,V3_042,20,female,2024-10-30_16h36.32.729,jersey_experiment_5_v3,2023.2.2,Win32,84.03361345,,,,,,,,,,,,,,,,836.1322,837.4261,837.4261,839.0499,return,0.6612,,45.05208333,,,,,,FBP-YG-18.png,0.35,1.2,6,0.5,,,,,,,,,,,,,,,,,,0,9,9,5,1,,,,,,,,,,,,,,,,,,,,,,,
,,,,,V3_042,20,female,2024-10-30_16h36.32.729,jersey_experiment_5_v3,2023.2.2,Win32,84.03361345,,,,,,,,,,,,,,,,839.0503,840.3439,840.3439,841.2734,return,0.2267,,42.83854167,,,,,,FBP-YG-18.png,0.37,1.2,7,0.5,,,,,,,,,,,,,,,,,,0,10,10,6,1,,,,,,,,,,,,,,,,,,,,,,,
,,,,,V3_042,20,female,2024-10-30_16h36.32.729,jersey_experiment_5_v3,2023.2.2,Win32,84.03361345,,,,,,,,,,,,,,,,841.2737,842.8266,842.8266,844.0734,return,0.1551,,75.26041667,,,,,,FBP-OG-91.png,0.43,1.2,44,0.75,,,,,,,,,,,,,,,,,,0,11,11,43,1,,,,,,,,,,,,,,,,,,,,,,,
,,,,,V3_042,20,female,2024-10-30_16h36.32.729,jersey_experiment_5_v3,2023.2.2,Win32,84.03361345,,,,,,,,,,,,,,,,844.0737,845.3675,845.3675,846.4854,return,0.1009,,74.34895833,,,,,,FBP-YG-19.png,0.45,1.2,15,0.5,,,,,,,,,,,,,,,,,,0,12,12,14,1,,,,,,,,,,,,,,,,,,,,,,,
,,,,,V3_042,20,female,2024-10-30_16h36.32.729,jersey_experiment_5_v3,2023.2.2,Win32,84.03361345,,,,,,,,,,,,,,,,846.4856,847.7796,847.7796,848.3913,return,0.1553,,74.34895833,,,,,,FBP-YG-18.png,0.43,1.2,9,0.5,,,,,,,,,,,,,,,,,,0,13,13,8,1,,,,,,,,,,,,,,,,,,,,,,,
,,,,,V3_042,20,female,2024-10-30_16h36.32.729,jersey_experiment_5_v3,2023.2.2,Win32,84.03361345,,,,,,,,,,,,,,,,848.3916,849.6854,849.6854,850.6031,return,0.283,,74.34895833,,,,,,FBP-RB-71.png,0.4,1.2,48,0.5,,,,,,,,,,,,,,,,,,0,14,14,47,1,,,,,,,,,,,,,,,,,,,,,,,
,,,,,V3_042,20,female,2024-10-30_16h36.32.729,jersey_experiment_5_v3,2023.2.2,Win32,84.03361345,,,,,,,,,,,,,,,,850.6035,852.1563,852.1563,853.1091,return,0.1597,,76.5625,,,,,,FBP-OG-71.png,0.43,1.2,34,0.75,,,,,,,,,,,,,,,,,,0,15,15,33,1,,,,,,,,,,,,,,,,,,,,,,,
,,,,,V3_042,20,female,2024-10-30_16h36.32.729,jersey_experiment_5_v3,2023.2.2,Win32,84.03361345,,,,,,,,,,,,,,,,853.1093,854.4032,854.4032,855.3798,return,0.2751,,88.93229167,,,,,,FBP-YG-18.png,0.45,1.2,10,0.5,,,,,,,,,,,,,,,,,,0,16,16,9,1,,,,,,,,,,,,,,,,,,,,,,,
,,,,,V3_042,20,female,2024-10-30_16h36.32.729,jersey_experiment_5_v3,2023.2.2,Win32,84.03361345,,,,,,,,,,,,,,,,855.38,856.9328,856.9328,858.0034,return,0.1379,,50.26041667,,,,,,FBP-OG-71.png,0.35,1.2,31,0.75,,,,,,,,,,,,,,,,,,0,17,17,30,1,,,,,,,,,,,,,,,,,,,,,,,
,,,,,V3_042,20,female,2024-10-30_16h36.32.729,jersey_experiment_5_v3,2023.2.2,Win32,84.03361345,,,,,,,,,,,,,,,,858.0037,859.2976,859.2976,860.8857,return,0.1788,,25.65104167,,,,,,FBP-PT-81.png,0.35,1.2,21,0.5,,,,,,,,,,,,,,,,,,0,18,18,20,1,,,,,,,,,,,,,,,,,,,,,,,
,,,,,V3_042,20,female,2024-10-30_16h36.32.729,jersey_experiment_5_v3,2023.2.2,Win32,84.03361345,,,,,,,,,,,,,,,,860.886,862.1801,862.1801,863.0269,return,0.0637,,25.26041667,,,,,,FBP-PT-91.png,0.35,1.2,26,0.5,,,,,,,,,,,,,,,,,,0,19,19,25,1,,,,,,,,,,,,,,,,,,,,,,,
,,,,,V3_042,20,female,2024-10-30_16h36.32.729,jersey_experiment_5_v3,2023.2.2,Win32,84.03361345,,,,,,,,,,,,,,,,863.0272,864.3212,864.3213,865.8507,return,0.1516,,71.74479167,,,,,,FBP-RB-91.png,0.43,1.2,59,0.5,,,,,,,,,,,,,,,,,,0,20,20,58,1,,,,,,,,,,,,,,,,,,,,,,,
,,,,,V3_042,20,female,2024-10-30_16h36.32.729,jersey_experiment_5_v3,2023.2.2,Win32,84.03361345,,,,,,,,,,,,,,,,865.851,867.1448,867.1448,867.8036,return,0.1886,,71.74479167,,,,,,FBP-PT-81.png,0.45,1.2,25,0.5,,,,,,,,,,,,,,,,,,0,21,21,24,1,,,,,,,,,,,,,,,,,,,,,,,
,,,,,V3_042,20,female,2024-10-30_16h36.32.729,jersey_experiment_5_v3,2023.2.2,Win32,84.03361345,,,,,,,,,,,,,,,,867.8039,869.0978,869.0979,870.2037,return,0.0812,,63.02083333,,,,,,FBP-YG-19.png,0.4,1.2,13,0.5,,,,,,,,,,,,,,,,,,0,22,22,12,1,,,,,,,,,,,,,,,,,,,,,,,
,,,,,V3_042,20,female,2024-10-30_16h36.32.729,jersey_experiment_5_v3,2023.2.2,Win32,84.03361345,,,,,,,,,,,,,,,,870.204,871.7569,871.757,872.5214,return,0.1799,,71.22395833,,,,,,FBP-OG-71.png,0.45,1.2,35,0.75,,,,,,,,,,,,,,,,,,0,23,23,34,1,,,,,,,,,,,,,,,,,,,,,,,
,,,,,V3_042,20,female,2024-10-30_16h36.32.729,jersey_experiment_5_v3,2023.2.2,Win32,84.03361345,,,,,,,,,,,,,,,,872.5216,873.8157,873.8158,874.3921,return,0.1213,,71.22395833,,,,,,FBP-RB-91.png,0.45,1.2,60,0.5,,,,,,,,,,,,,,,,,,0,24,24,59,1,,,,,,,,,,,,,,,,,,,,,,,
,,,,,V3_042,20,female,2024-10-30_16h36.32.729,jersey_experiment_5_v3,2023.2.2,Win32,84.03361345,,,,,,,,,,,,,,,,874.3925,875.6863,875.6863,876.8865,return,0.1937,,49.609375,,,,,,FBP-RB-91.png,0.35,1.2,56,0.5,,,,,,,,,,,,,,,,,,0,25,25,55,1,,,,,,,,,,,,,,,,,,,,,,,
,,,,,V3_042,20,female,2024-10-30_16h36.32.729,jersey_experiment_5_v3,2023.2.2,Win32,84.03361345,,,,,,,,,,,,,,,,876.8867,878.1805,878.1806,878.9687,return,0.133,,49.609375,,,,,,FBP-PT-71.png,0.35,1.2,16,0.5,,,,,,,,,,,,,,,,,,0,26,26,15,1,,,,,,,,,,,,,,,,,,,,,,,
,,,,,V3_042,20,female,2024-10-30_16h36.32.729,jersey_experiment_5_v3,2023.2.2,Win32,84.03361345,,,,,,,,,,,,,,,,878.969,880.5217,880.5217,881.2277,return,0.2266,,50.13020833,,,,,,FBP-OG-91.png,0.37,1.2,42,0.75,,,,,,,,,,,,,,,,,,0,27,27,41,1,,,,,,,,,,,,,,,,,,,,,,,
,,,,,V3_042,20,female,2024-10-30_16h36.32.729,jersey_experiment_5_v3,2023.2.2,Win32,84.03361345,,,,,,,,,,,,,,,,881.228,882.7806,882.7806,883.4983,return,0.2919,,50.13020833,,,,,,FBP-OG-71.png,0.37,1.2,32,0.75,,,,,,,,,,,,,,,,,,0,28,28,31,1,,,,,,,,,,,,,,,,,,,,,,,
,,,,,V3_042,20,female,2024-10-30_16h36.32.729,jersey_experiment_5_v3,2023.2.2,Win32,84.03361345,,,,,,,,,,,,,,,,883.4986,884.7925,884.7926,885.5458,return,0.2611,,50.13020833,,,,,,FBP-YG-17.png,0.37,1.2,2,0.5,,,,,,,,,,,,,,,,,,0,29,29,1,1,,,,,,,,,,,,,,,,,,,,,,,
,,,,,V3_042,20,female,2024-10-30_16h36.32.729,jersey_experiment_5_v3,2023.2.2,Win32,84.03361345,,,,,,,,,,,,,,,,885.546,886.8395,886.8396,888.2632,return,0.4733,,61.45833333,,,,,,FBP-PT-71.png,0.4,1.2,18,0.5,,,,,,,,,,,,,,,,,,0,30,30,17,1,,,,,,,,,,,,,,,,,,,,,,,
,,,,,V3_042,20,female,2024-10-30_16h36.32.729,jersey_experiment_5_v3,2023.2.2,Win32,84.03361345,,,,,,,,,,,,,,,,888.2634,889.5573,889.5574,890.6044,return,0.1752,,63.93229167,,,,,,FBP-RB-81.png,0.37,1.2,52,0.5,,,,,,,,,,,,,,,,,,0,31,31,51,1,,,,,,,,,,,,,,,,,,,,,,,
,,,,,V3_042,20,female,2024-10-30_16h36.32.729,jersey_experiment_5_v3,2023.2.2,Win32,84.03361345,,,,,,,,,,,,,,,,890.6047,891.8987,891.8988,892.6516,return,0.2827,,63.93229167,,,,,,FBP-YG-19.png,0.37,1.2,12,0.5,,,,,,,,,,,,,,,,,,0,32,32,11,1,,,,,,,,,,,,,,,,,,,,,,,
,,,,,V3_042,20,female,2024-10-30_16h36.32.729,jersey_experiment_5_v3,2023.2.2,Win32,84.03361345,,,,,,,,,,,,,,,,892.6519,893.9459,893.9459,895.2988,return,0.3129,,74.86979167,,,,,,FBP-YG-19.png,0.43,1.2,14,0.5,,,,,,,,,,,,,,,,,,0,33,33,13,1,,,,,,,,,,,,,,,,,,,,,,,
,,,,,V3_042,20,female,2024-10-30_16h36.32.729,jersey_experiment_5_v3,2023.2.2,Win32,84.03361345,,,,,,,,,,,,,,,,895.2991,896.593,896.5931,897.3223,return,0.2596,,74.86979167,,,,,,FBP-RB-81.png,0.43,1.2,54,0.5,,,,,,,,,,,,,,,,,,0,34,34,53,1,,,,,,,,,,,,,,,,,,,,,,,
,,,,,V3_042,20,female,2024-10-30_16h36.32.729,jersey_experiment_5_v3,2023.2.2,Win32,84.03361345,,,,,,,,,,,,,,,,897.3227,898.8755,898.8756,900.3579,return,0.6617,,59.375,,,,,,FBP-OG-71.png,0.4,1.2,33,0.75,,,,,,,,,,,,,,,,,,0,35,35,32,1,,,,,,,,,,,,,,,,,,,,,,,
,,,,,V3_042,20,female,2024-10-30_16h36.32.729,jersey_experiment_5_v3,2023.2.2,Win32,84.03361345,,,,,,,,,,,,,,,,900.3582,901.6519,901.6519,903.0051,return,0.1886,,55.20833333,,,,,,FBP-PT-91.png,0.37,1.2,27,0.5,,,,,,,,,,,,,,,,,,0,36,36,26,1,,,,,,,,,,,,,,,,,,,,,,,
,,,,,V3_042,20,female,2024-10-30_16h36.32.729,jersey_experiment_5_v3,2023.2.2,Win32,84.03361345,,,,,,,,,,,,,,,,903.0053,904.2992,904.2992,905.6875,return,0.6472,,55.20833333,,,,,,FBP-RB-71.png,0.37,1.2,47,0.5,,,,,,,,,,,,,,,,,,0,37,37,46,1,,,,,,,,,,,,,,,,,,,,,,,
,,,,,V3_042,20,female,2024-10-30_16h36.32.729,jersey_experiment_5_v3,2023.2.2,Win32,84.03361345,,,,,,,,,,,,,,,,905.6877,907.2406,907.2407,908.6641,return,0.1564,,74.34895833,,,,,,FBP-OG-81.png,0.45,1.2,40,0.75,,,,,,,,,,,,,,,,,,0,38,38,39,1,,,,,,,,,,,,,,,,,,,,,,,
,,,,,V3_042,20,female,2024-10-30_16h36.32.729,jersey_experiment_5_v3,2023.2.2,Win32,84.03361345,,,,,,,,,,,,,,,,908.6644,909.9582,909.9582,910.8054,return,0.1916,,75,,,,,,FBP-RB-71.png,0.45,1.2,50,0.5,,,,,,,,,,,,,,,,,,0,39,39,49,1,,,,,,,,,,,,,,,,,,,,,,,
,,,,,V3_042,20,female,2024-10-30_16h36.32.729,jersey_experiment_5_v3,2023.2.2,Win32,84.03361345,,,,,,,,,,,,,,,,910.8058,912.0995,912.0995,913.982,return,0.2129,,47.13541667,,,,,,FBP-RB-81.png,0.35,1.2,51,0.5,,,,,,,,,,,,,,,,,,0,40,40,50,1,,,,,,,,,,,,,,,,,,,,,,,
,,,,,V3_042,20,female,2024-10-30_16h36.32.729,jersey_experiment_5_v3,2023.2.2,Win32,84.03361345,,,,,,,,,,,,,,,,913.9823,915.535,915.5351,916.6761,return,0.2429,,76.04166667,,,,,,FBP-OG-91.png,0.45,1.2,45,0.75,,,,,,,,,,,,,,,,,,0,41,41,44,1,,,,,,,,,,,,,,,,,,,,,,,
,,,,,V3_042,20,female,2024-10-30_16h36.32.729,jersey_experiment_5_v3,2023.2.2,Win32,84.03361345,,,,,,,,,,,,,,,,916.6763,918.2291,918.2292,920.2997,return,1.0912,,28.77604167,,,,,,FBP-OG-91.png,0.35,1.2,41,0.75,,,,,,,,,,,,,,,,,,0,42,42,40,1,,,,,,,,,,,,,,,,,,,,,,,
,,,,,V3_042,20,female,2024-10-30_16h36.32.729,jersey_experiment_5_v3,2023.2.2,Win32,84.03361345,,,,,,,,,,,,,,,,920.2999,921.5941,921.5942,922.9821,return,0.3114,,75.78125,,,,,,FBP-PT-91.png,0.45,1.2,30,0.5,,,,,,,,,,,,,,,,,,0,43,43,29,1,,,,,,,,,,,,,,,,,,,,,,,
,,,,,V3_042,20,female,2024-10-30_16h36.32.729,jersey_experiment_5_v3,2023.2.2,Win32,84.03361345,,,,,,,,,,,,,,,,922.9824,924.2764,924.2765,926.6057,return,0.1753,,64.0625,,,,,,FBP-RB-91.png,0.37,1.2,57,0.5,,,,,,,,,,,,,,,,,,0,44,44,56,1,,,,,,,,,,,,,,,,,,,,,,,
,,,,,V3_042,20,female,2024-10-30_16h36.32.729,jersey_experiment_5_v3,2023.2.2,Win32,84.03361345,,,,,,,,,,,,,,,,926.606,927.9,927.9001,930.0412,return,0.9053,,56.51041667,,,,,,FBP-PT-91.png,0.43,1.2,29,0.5,,,,,,,,,,,,,,,,,,0,45,45,28,1,,,,,,,,,,,,,,,,,,,,,,,
,,,,,V3_042,20,female,2024-10-30_16h36.32.729,jersey_experiment_5_v3,2023.2.2,Win32,84.03361345,,,,,,,,,,,,,,,,930.0415,931.3354,931.3354,932.8412,return,0.1277,,47.00520833,,,,,,FBP-RB-71.png,0.35,1.2,46,0.5,,,,,,,,,,,,,,,,,,0,46,46,45,1,,,,,,,,,,,,,,,,,,,,,,,
,,,,,V3_042,20,female,2024-10-30_16h36.32.729,jersey_experiment_5_v3,2023.2.2,Win32,84.03361345,,,,,,,,,,,,,,,,932.8414,934.1355,934.1355,934.9475,return,0.2166,,46.35416667,,,,,,FBP-PT-71.png,0.37,1.2,17,0.5,,,,,,,,,,,,,,,,,,0,47,47,16,1,,,,,,,,,,,,,,,,,,,,,,,
,,,,,V3_042,20,female,2024-10-30_16h36.32.729,jersey_experiment_5_v3,2023.2.2,Win32,84.03361345,,,,,,,,,,,,,,,,934.9477,936.5002,936.5003,937.1239,return,0.2432,,46.35416667,,,,,,FBP-OG-81.png,0.37,1.2,37,0.75,,,,,,,,,,,,,,,,,,0,48,48,36,1,,,,,,,,,,,,,,,,,,,,,,,
,,,,,V3_042,20,female,2024-10-30_16h36.32.729,jersey_experiment_5_v3,2023.2.2,Win32,84.03361345,,,,,,,,,,,,,,,,937.1242,938.6769,938.677,939.4181,return,0.2957,,46.35416667,,,,,,FBP-OG-91.png,0.4,1.2,43,0.75,,,,,,,,,,,,,,,,,,0,49,49,42,1,,,,,,,,,,,,,,,,,,,,,,,
,,,,,V3_042,20,female,2024-10-30_16h36.32.729,jersey_experiment_5_v3,2023.2.2,Win32,84.03361345,,,,,,,,,,,,,,,,939.4183,940.7122,940.7122,942.9949,return,0.5621,,29.6875,,,,,,FBP-YG-19.png,0.35,1.2,11,0.5,,,,,,,,,,,,,,,,,,0,50,50,10,1,,,,,,,,,,,,,,,,,,,,,,,
,,,,,V3_042,20,female,2024-10-30_16h36.32.729,jersey_experiment_5_v3,2023.2.2,Win32,84.03361345,,,,,,,,,,,,,,,,942.9952,944.2888,944.2889,945.7006,return,0.144,,73.17708333,,,,,,FBP-PT-71.png,0.45,1.2,20,0.5,,,,,,,,,,,,,,,,,,0,51,51,19,1,,,,,,,,,,,,,,,,,,,,,,,
,,,,,V3_042,20,female,2024-10-30_16h36.32.729,jersey_experiment_5_v3,2023.2.2,Win32,84.03361345,,,,,,,,,,,,,,,,945.7009,946.9948,946.9949,948.3594,return,0.165,,65.234375,,,,,,FBP-YG-17.png,0.4,1.2,3,0.5,,,,,,,,,,,,,,,,,,0,52,52,2,1,,,,,,,,,,,,,,,,,,,,,,,
,,,,,V3_042,20,female,2024-10-30_16h36.32.729,jersey_experiment_5_v3,2023.2.2,Win32,84.03361345,,,,,,,,,,,,,,,,948.3597,949.6537,949.6538,950.6303,return,0.0995,,77.21354167,,,,,,FBP-YG-17.png,0.45,1.2,5,0.5,,,,,,,,,,,,,,,,,,0,53,53,4,1,,,,,,,,,,,,,,,,,,,,,,,
,,,,,V3_042,20,female,2024-10-30_16h36.32.729,jersey_experiment_5_v3,2023.2.2,Win32,84.03361345,,,,,,,,,,,,,,,,950.6305,951.9245,951.9245,952.5714,return,0.037,,75.52083333,,,,,,FBP-RB-91.png,0.4,1.2,58,0.5,,,,,,,,,,,,,,,,,,0,54,54,57,1,,,,,,,,,,,,,,,,,,,,,,,
,,,,,V3_042,20,female,2024-10-30_16h36.32.729,jersey_experiment_5_v3,2023.2.2,Win32,84.03361345,,,,,,,,,,,,,,,,952.5717,953.8656,953.8656,954.8188,return,0.2681,,75.52083333,,,,,,FBP-RB-81.png,0.4,1.2,53,0.5,,,,,,,,,,,,,,,,,,0,55,55,52,1,,,,,,,,,,,,,,,,,,,,,,,
,,,,,V3_042,20,female,2024-10-30_16h36.32.729,jersey_experiment_5_v3,2023.2.2,Win32,84.03361345,,,,,,,,,,,,,,,,954.8191,956.3716,956.3716,957.1951,return,0.071,,78.125,,,,,,FBP-OG-81.png,0.43,1.2,39,0.75,,,,,,,,,,,,,,,,,,0,56,56,38,1,,,,,,,,,,,,,,,,,,,,,,,
,,,,,V3_042,20,female,2024-10-30_16h36.32.729,jersey_experiment_5_v3,2023.2.2,Win32,84.03361345,,,,,,,,,,,,,,,,957.1954,958.4891,958.4892,959.6543,return,0.1115,,72.00520833,,,,,,FBP-YG-18.png,0.4,1.2,8,0.5,,,,,,,,,,,,,,,,,,0,57,57,7,1,,,,,,,,,,,,,,,,,,,,,,,
,,,,,V3_042,20,female,2024-10-30_16h36.32.729,jersey_experiment_5_v3,2023.2.2,Win32,84.03361345,,,,,,,,,,,,,,,,959.6545,960.9483,960.9483,962.4779,return,0.1634,,78.38541667,,,,,,FBP-YG-17.png,0.43,1.2,4,0.5,,,,,,,,,,,,,,,,,,0,58,58,3,1,,,,,,,,,,,,,,,,,,,,,,,
,,,,,V3_042,20,female,2024-10-30_16h36.32.729,jersey_experiment_5_v3,2023.2.2,Win32,84.03361345,,,,,,,,,,,,,,,,962.4782,963.7719,963.7719,965.4661,return,0.1098,,34.11458333,,,,,,FBP-YG-17.png,0.35,1.2,1,0.5,,,,,,,,,,,,,,,,,,0,59,59,0,1,,,,,,,,,,,,,,,,,,,,,,,
,,,,,V3_042,20,female,2024-10-30_16h36.32.729,jersey_experiment_5_v3,2023.2.2,Win32,84.03361345,,,,,,,,,,,,,,,,,,,,,,,,,,,,,,,,,,,,,,,,,,,,,,,,,,,,,,,,965.4664,974.7019,return,9.2236,,,,,,,,,,,,,,,,,,,
,,,,,V3_042,20,female,2024-10-30_16h36.32.729,jersey_experiment_5_v3,2023.2.2,Win32,84.03361345,,,,,,,,,,,,,,,,,,,,,,,,,,,,,,,,,,,,,,,,,,,,,,,,,,,,,,,,,,,,,974.7021,980.1845,1,4.7354,return,0.7325,,,,,,,,,,,,
,,,,,V3_042,20,female,2024-10-30_16h36.32.729,jersey_experiment_5_v3,2023.2.2,Win32,84.03361345,,,,,,,,,,,,,,,,,,,,,,,,,,,,,,,,,,,,,,,,,,,,,,,,,,,,,,,,,,,,,,,,,,,,980.1846,1107.4014,"I think the study is about how we perceive things. Some of us may perceive some of the football players as more slender or more buff than others which can depend on our idea of ""thin"" or ""buff"". A pattern that I noticed which I am not sure if its true is that sometimes the same image would appear 1 to 2 or somtimes 3 times in a row ",right,119.5249,,,,,,
,,,,,V3_042,20,female,2024-10-30_16h36.32.729,jersey_experiment_5_v3,2023.2.2,Win32,84.03361345,,,,,,,,,,,,,,,,,,,,,,,,,,,,,,,,,,,,,,,,,,,,,,,,,,,,,,,,,,,,,,,,,,,,,,,,,,1107.4014,1111.5657,return,4.1534,