requirements.started,requirements.stopped,key_resp_3.keys,key_resp_3.rt,key_resp_3.duration,Subject ID,Age,Gender,date,expName,psychopyVersion,OS,frameRate,instructions1.started,instructions1.stopped,key_resp.keys,key_resp.rt,key_resp.duration,example.started,example.stopped,enter_2.keys,enter_2.rt,enter_2.duration,instructions2.started,instructions2.stopped,enter_3.keys,enter_3.rt,enter_3.duration,image.started,image.stopped,slider_2.started,slider_2.stopped,next.keys,next.rt,next.duration,slider.response,trial_block_1.thisRepN,trial_block_1.thisTrialN,trial_block_1.thisN,trial_block_1.thisIndex,trial_block_1.ran,Path,Width,Height,Index,Duration,trial_block_2.thisRepN,trial_block_2.thisTrialN,trial_block_2.thisN,trial_block_2.thisIndex,trial_block_2.ran,rest_break.started,rest_break.stopped,end_break.started,end_break.stopped,key_resp_5.keys,key_resp_5.rt,key_resp_5.duration,trial_block_3.thisRepN,trial_block_3.thisTrialN,trial_block_3.thisN,trial_block_3.thisIndex,trial_block_3.ran,trial_block_4.thisRepN,trial_block_4.thisTrialN,trial_block_4.thisN,trial_block_4.thisIndex,trial_block_4.ran,questions_intro.started,questions_intro.stopped,enter_12.keys,enter_12.rt,enter_12.duration,question2.started,question2.stopped,question_doingbest.response,question_doingbest.rt,enter_15.keys,enter_15.rt,enter_15.duration,pattern.started,pattern.stopped,pattern_2.text,enter_17.keys,enter_17.rt,enter_17.duration,thankyou.started,thankyou.stopped,enter_14.keys,enter_14.rt,enter_14.duration
0,9.079,return,9.0757,,V3_062,21,Female,2024-11-14_15h46.39.012,jersey_experiment_5_v3,2023.2.2,Win32,85.47008547,,,,,,,,,,,,,,,,,,,,,,,,,,,,,,,,,,,,,,,,,,,,,,,,,,,,,,,,,,,,,,,,,,,,,,,,,,,,,,
,,,,,V3_062,21,Female,2024-11-14_15h46.39.012,jersey_experiment_5_v3,2023.2.2,Win32,85.47008547,9.0791,13.8407,return,4.7395,,,,,,,,,,,,,,,,,,,,,,,,,,,,,,,,,,,,,,,,,,,,,,,,,,,,,,,,,,,,,,,,,,,,,,,,,,
,,,,,V3_062,21,Female,2024-11-14_15h46.39.012,jersey_experiment_5_v3,2023.2.2,Win32,85.47008547,,,,,,13.8408,16.2055,return,2.3298,,,,,,,,,,,,,,,,,,,,,,,,,,,,,,,,,,,,,,,,,,,,,,,,,,,,,,,,,,,,,,,,,,,,,
,,,,,V3_062,21,Female,2024-11-14_15h46.39.012,jersey_experiment_5_v3,2023.2.2,Win32,85.47008547,,,,,,,,,,,16.2055,22.0762,return,5.8633,,,,,,,,,,,,,,,,,,,,,,,,,,,,,,,,,,,,,,,,,,,,,,,,,,,,,,,,,,,,,,,,
,,,,,V3_062,21,Female,2024-11-14_15h46.39.012,jersey_experiment_5_v3,2023.2.2,Win32,85.47008547,,,,,,,,,,,,,,,,22.0783,23.6293,23.6294,27.5708,return,1.6613,,50.65104167,0,0,0,27,1,FBP-PT-19.png,0.4,1.2,28,0.75,,,,,,,,,,,,,,,,,,,,,,,,,,,,,,,,,,,,,,,,,,,,,
,,,,,V3_062,21,Female,2024-11-14_15h46.39.012,jersey_experiment_5_v3,2023.2.2,Win32,85.47008547,,,,,,,,,,,,,,,,27.5712,29.1236,29.1237,31.7003,return,0.8472,,40.10416667,0,1,1,17,1,FBP-PT-17.png,0.4,1.2,18,0.75,,,,,,,,,,,,,,,,,,,,,,,,,,,,,,,,,,,,,,,,,,,,,
,,,,,V3_062,21,Female,2024-11-14_15h46.39.012,jersey_experiment_5_v3,2023.2.2,Win32,85.47008547,,,,,,,,,,,,,,,,31.7005,33.2532,33.2532,34.9945,return,0.387,,68.75,0,2,2,23,1,FBP-PT-18.png,0.43,1.2,24,0.75,,,,,,,,,,,,,,,,,,,,,,,,,,,,,,,,,,,,,,,,,,,,,
,,,,,V3_062,21,Female,2024-11-14_15h46.39.012,jersey_experiment_5_v3,2023.2.2,Win32,85.47008547,,,,,,,,,,,,,,,,34.9948,36.2886,36.2886,37.7592,return,0.3071,,75.91145833,0,3,3,39,1,FBP-OG-18.png,0.45,1.2,40,0.5,,,,,,,,,,,,,,,,,,,,,,,,,,,,,,,,,,,,,,,,,,,,,
,,,,,V3_062,21,Female,2024-11-14_15h46.39.012,jersey_experiment_5_v3,2023.2.2,Win32,85.47008547,,,,,,,,,,,,,,,,37.7595,39.0537,39.0537,41.8064,return,0.2264,,48.828125,0,4,4,38,1,FBP-OG-18.png,0.43,1.2,39,0.5,,,,,,,,,,,,,,,,,,,,,,,,,,,,,,,,,,,,,,,,,,,,,
,,,,,V3_062,21,Female,2024-11-14_15h46.39.012,jersey_experiment_5_v3,2023.2.2,Win32,85.47008547,,,,,,,,,,,,,,,,41.8066,43.3595,43.3595,47.0654,return,2.1378,,24.34895833,0,5,5,56,1,FBP-RB-19.png,0.37,1.2,57,0.75,,,,,,,,,,,,,,,,,,,,,,,,,,,,,,,,,,,,,,,,,,,,,
,,,,,V3_062,21,Female,2024-11-14_15h46.39.012,jersey_experiment_5_v3,2023.2.2,Win32,85.47008547,,,,,,,,,,,,,,,,47.0657,48.3597,48.3598,50.4302,return,0.2478,,6.510416667,0,6,6,40,1,FBP-OG-19.png,0.35,1.2,41,0.5,,,,,,,,,,,,,,,,,,,,,,,,,,,,,,,,,,,,,,,,,,,,,
,,,,,V3_062,21,Female,2024-11-14_15h46.39.012,jersey_experiment_5_v3,2023.2.2,Win32,85.47008547,,,,,,,,,,,,,,,,50.4305,51.9832,51.9832,53.2892,return,0.1383,,60.02604167,0,7,7,13,1,FBP-YG-91.png,0.43,1.2,14,0.75,,,,,,,,,,,,,,,,,,,,,,,,,,,,,,,,,,,,,,,,,,,,,
,,,,,V3_062,21,Female,2024-11-14_15h46.39.012,jersey_experiment_5_v3,2023.2.2,Win32,85.47008547,,,,,,,,,,,,,,,,53.2894,54.8306,54.8306,56.3483,return,0.2531,,30.46875,0,8,8,6,1,FBP-YG-81.png,0.37,1.2,7,0.75,,,,,,,,,,,,,,,,,,,,,,,,,,,,,,,,,,,,,,,,,,,,,
,,,,,V3_062,21,Female,2024-11-14_15h46.39.012,jersey_experiment_5_v3,2023.2.2,Win32,85.47008547,,,,,,,,,,,,,,,,56.3485,57.8898,57.8899,58.7835,return,0.107,,66.92708333,0,9,9,28,1,FBP-PT-19.png,0.43,1.2,29,0.75,,,,,,,,,,,,,,,,,,,,,,,,,,,,,,,,,,,,,,,,,,,,,
,,,,,V3_062,21,Female,2024-11-14_15h46.39.012,jersey_experiment_5_v3,2023.2.2,Win32,85.47008547,,,,,,,,,,,,,,,,58.7838,60.3368,60.3369,61.5135,return,0.4662,,10.15625,0,10,10,0,1,FBP-YG-71.png,0.35,1.2,1,0.75,,,,,,,,,,,,,,,,,,,,,,,,,,,,,,,,,,,,,,,,,,,,,
,,,,,V3_062,21,Female,2024-11-14_15h46.39.012,jersey_experiment_5_v3,2023.2.2,Win32,85.47008547,,,,,,,,,,,,,,,,61.5137,63.0662,63.0662,64.1955,return,0.1179,,75.78125,0,11,11,4,1,FBP-YG-71.png,0.45,1.2,5,0.75,,,,,,,,,,,,,,,,,,,,,,,,,,,,,,,,,,,,,,,,,,,,,
,,,,,V3_062,21,Female,2024-11-14_15h46.39.012,jersey_experiment_5_v3,2023.2.2,Win32,85.47008547,,,,,,,,,,,,,,,,64.1959,65.7486,65.7487,66.4308,return,0.0606,,76.69270833,0,12,12,29,1,FBP-PT-19.png,0.45,1.2,30,0.75,,,,,,,,,,,,,,,,,,,,,,,,,,,,,,,,,,,,,,,,,,,,,
,,,,,V3_062,21,Female,2024-11-14_15h46.39.012,jersey_experiment_5_v3,2023.2.2,Win32,85.47008547,,,,,,,,,,,,,,,,66.4311,67.9841,67.9841,69.137,return,0.1892,,41.92708333,0,13,13,26,1,FBP-PT-19.png,0.37,1.2,27,0.75,,,,,,,,,,,,,,,,,,,,,,,,,,,,,,,,,,,,,,,,,,,,,
,,,,,V3_062,21,Female,2024-11-14_15h46.39.012,jersey_experiment_5_v3,2023.2.2,Win32,85.47008547,,,,,,,,,,,,,,,,69.1377,70.6899,70.69,71.3252,return,0.0517,,11.84895833,0,14,14,45,1,FBP-RB-17.png,0.35,1.2,46,0.75,,,,,,,,,,,,,,,,,,,,,,,,,,,,,,,,,,,,,,,,,,,,,
,,,,,V3_062,21,Female,2024-11-14_15h46.39.012,jersey_experiment_5_v3,2023.2.2,Win32,85.47008547,,,,,,,,,,,,,,,,71.3255,72.6195,72.6196,73.596,return,0.1119,,81.38020833,0,15,15,44,1,FBP-OG-19.png,0.45,1.2,45,0.5,,,,,,,,,,,,,,,,,,,,,,,,,,,,,,,,,,,,,,,,,,,,,
,,,,,V3_062,21,Female,2024-11-14_15h46.39.012,jersey_experiment_5_v3,2023.2.2,Win32,85.47008547,,,,,,,,,,,,,,,,73.5964,74.8902,74.8902,75.7255,return,0.0753,,75.26041667,0,16,16,33,1,FBP-OG-17.png,0.43,1.2,34,0.5,,,,,,,,,,,,,,,,,,,,,,,,,,,,,,,,,,,,,,,,,,,,,
,,,,,V3_062,21,Female,2024-11-14_15h46.39.012,jersey_experiment_5_v3,2023.2.2,Win32,85.47008547,,,,,,,,,,,,,,,,75.7258,77.2784,77.2785,79.1138,return,0.3142,,68.61979167,0,17,17,58,1,FBP-RB-19.png,0.43,1.2,59,0.75,,,,,,,,,,,,,,,,,,,,,,,,,,,,,,,,,,,,,,,,,,,,,
,,,,,V3_062,21,Female,2024-11-14_15h46.39.012,jersey_experiment_5_v3,2023.2.2,Win32,85.47008547,,,,,,,,,,,,,,,,79.114,80.6668,80.6669,81.9021,return,0.1203,,20.83333333,0,18,18,10,1,FBP-YG-91.png,0.35,1.2,11,0.75,,,,,,,,,,,,,,,,,,,,,,,,,,,,,,,,,,,,,,,,,,,,,
,,,,,V3_062,21,Female,2024-11-14_15h46.39.012,jersey_experiment_5_v3,2023.2.2,Win32,85.47008547,,,,,,,,,,,,,,,,81.9024,83.4445,83.4445,84.4673,return,0.3279,,8.854166667,0,19,19,15,1,FBP-PT-17.png,0.35,1.2,16,0.75,,,,,,,,,,,,,,,,,,,,,,,,,,,,,,,,,,,,,,,,,,,,,
,,,,,V3_062,21,Female,2024-11-14_15h46.39.012,jersey_experiment_5_v3,2023.2.2,Win32,85.47008547,,,,,,,,,,,,,,,,84.4675,86.0197,86.0197,88.2672,return,1.2644,,75.26041667,0,20,20,19,1,FBP-PT-17.png,0.45,1.2,20,0.75,,,,,,,,,,,,,,,,,,,,,,,,,,,,,,,,,,,,,,,,,,,,,
,,,,,V3_062,21,Female,2024-11-14_15h46.39.012,jersey_experiment_5_v3,2023.2.2,Win32,85.47008547,,,,,,,,,,,,,,,,88.2675,89.8201,89.8201,92.4203,return,0.1783,,29.55729167,0,21,21,12,1,FBP-YG-91.png,0.4,1.2,13,0.75,,,,,,,,,,,,,,,,,,,,,,,,,,,,,,,,,,,,,,,,,,,,,
,,,,,V3_062,21,Female,2024-11-14_15h46.39.012,jersey_experiment_5_v3,2023.2.2,Win32,85.47008547,,,,,,,,,,,,,,,,92.4205,93.9731,93.9731,96.0908,return,0.1472,,72.78645833,0,22,22,49,1,FBP-RB-17.png,0.45,1.2,50,0.75,,,,,,,,,,,,,,,,,,,,,,,,,,,,,,,,,,,,,,,,,,,,,
,,,,,V3_062,21,Female,2024-11-14_15h46.39.012,jersey_experiment_5_v3,2023.2.2,Win32,85.47008547,,,,,,,,,,,,,,,,96.0909,97.6322,97.6323,98.7145,return,0.4887,,18.09895833,0,23,23,25,1,FBP-PT-19.png,0.35,1.2,26,0.75,,,,,,,,,,,,,,,,,,,,,,,,,,,,,,,,,,,,,,,,,,,,,
,,,,,V3_062,21,Female,2024-11-14_15h46.39.012,jersey_experiment_5_v3,2023.2.2,Win32,85.47008547,,,,,,,,,,,,,,,,98.7148,100.2676,100.2676,102.044,return,0.1224,,72.00520833,0,24,24,48,1,FBP-RB-17.png,0.43,1.2,49,0.75,,,,,,,,,,,,,,,,,,,,,,,,,,,,,,,,,,,,,,,,,,,,,
,,,,,V3_062,21,Female,2024-11-14_15h46.39.012,jersey_experiment_5_v3,2023.2.2,Win32,85.47008547,,,,,,,,,,,,,,,,102.0444,103.5971,103.5972,104.644,return,0.4942,,71.09375,0,25,25,53,1,FBP-RB-18.png,0.43,1.2,54,0.75,,,,,,,,,,,,,,,,,,,,,,,,,,,,,,,,,,,,,,,,,,,,,
,,,,,V3_062,21,Female,2024-11-14_15h46.39.012,jersey_experiment_5_v3,2023.2.2,Win32,85.47008547,,,,,,,,,,,,,,,,104.6443,105.9382,105.9382,107.9384,return,1.0584,,49.86979167,0,26,26,37,1,FBP-OG-18.png,0.4,1.2,38,0.5,,,,,,,,,,,,,,,,,,,,,,,,,,,,,,,,,,,,,,,,,,,,,
,,,,,V3_062,21,Female,2024-11-14_15h46.39.012,jersey_experiment_5_v3,2023.2.2,Win32,85.47008547,,,,,,,,,,,,,,,,107.9386,109.2325,109.2326,110.0093,return,0.1124,,39.84375,0,27,27,42,1,FBP-OG-19.png,0.4,1.2,43,0.5,,,,,,,,,,,,,,,,,,,,,,,,,,,,,,,,,,,,,,,,,,,,,
,,,,,V3_062,21,Female,2024-11-14_15h46.39.012,jersey_experiment_5_v3,2023.2.2,Win32,85.47008547,,,,,,,,,,,,,,,,110.0095,111.5621,111.5622,113.0561,return,0.2357,,61.19791667,0,28,28,18,1,FBP-PT-17.png,0.43,1.2,19,0.75,,,,,,,,,,,,,,,,,,,,,,,,,,,,,,,,,,,,,,,,,,,,,
,,,,,V3_062,21,Female,2024-11-14_15h46.39.012,jersey_experiment_5_v3,2023.2.2,Win32,85.47008547,,,,,,,,,,,,,,,,113.0565,114.3503,114.3503,114.9739,return,0.0511,,64.84375,0,29,29,43,1,FBP-OG-19.png,0.43,1.2,44,0.5,,,,,,,,,,,,,,,,,,,,,,,,,,,,,,,,,,,,,,,,,,,,,
,,,,,V3_062,21,Female,2024-11-14_15h46.39.012,jersey_experiment_5_v3,2023.2.2,Win32,85.47008547,,,,,,,,,,,,,,,,114.9741,116.5271,116.5271,117.6682,return,0.1774,,20.05208333,0,30,30,20,1,FBP-PT-18.png,0.35,1.2,21,0.75,,,,,,,,,,,,,,,,,,,,,,,,,,,,,,,,,,,,,,,,,,,,,
,,,,,V3_062,21,Female,2024-11-14_15h46.39.012,jersey_experiment_5_v3,2023.2.2,Win32,85.47008547,,,,,,,,,,,,,,,,117.6684,118.9622,118.9623,120.9153,return,0.0719,,20.96354167,0,31,31,41,1,FBP-OG-19.png,0.37,1.2,42,0.5,,,,,,,,,,,,,,,,,,,,,,,,,,,,,,,,,,,,,,,,,,,,,
,,,,,V3_062,21,Female,2024-11-14_15h46.39.012,jersey_experiment_5_v3,2023.2.2,Win32,85.47008547,,,,,,,,,,,,,,,,120.9156,122.4683,122.4684,123.633,return,0.0951,,73.30729167,0,32,32,3,1,FBP-YG-71.png,0.43,1.2,4,0.75,,,,,,,,,,,,,,,,,,,,,,,,,,,,,,,,,,,,,,,,,,,,,
,,,,,V3_062,21,Female,2024-11-14_15h46.39.012,jersey_experiment_5_v3,2023.2.2,Win32,85.47008547,,,,,,,,,,,,,,,,123.6333,125.1859,125.186,125.645,return,0.0511,,72.52604167,0,33,33,8,1,FBP-YG-81.png,0.43,1.2,9,0.75,,,,,,,,,,,,,,,,,,,,,,,,,,,,,,,,,,,,,,,,,,,,,
,,,,,V3_062,21,Female,2024-11-14_15h46.39.012,jersey_experiment_5_v3,2023.2.2,Win32,85.47008547,,,,,,,,,,,,,,,,125.6453,126.939,126.9391,127.8331,return,0.0206,,16.53645833,0,34,34,35,1,FBP-OG-18.png,0.35,1.2,36,0.5,,,,,,,,,,,,,,,,,,,,,,,,,,,,,,,,,,,,,,,,,,,,,
,,,,,V3_062,21,Female,2024-11-14_15h46.39.012,jersey_experiment_5_v3,2023.2.2,Win32,85.47008547,,,,,,,,,,,,,,,,127.8334,129.1277,129.1277,132.398,return,2.1806,,0.520833333,0,35,35,30,1,FBP-OG-17.png,0.35,1.2,31,0.5,,,,,,,,,,,,,,,,,,,,,,,,,,,,,,,,,,,,,,,,,,,,,
,,,,,V3_062,21,Female,2024-11-14_15h46.39.012,jersey_experiment_5_v3,2023.2.2,Win32,85.47008547,,,,,,,,,,,,,,,,132.3982,133.9511,133.9511,141.2101,return,0.2196,,17.31770833,0,36,36,16,1,FBP-PT-17.png,0.37,1.2,17,0.75,,,,,,,,,,,,,,,,,,,,,,,,,,,,,,,,,,,,,,,,,,,,,
,,,,,V3_062,21,Female,2024-11-14_15h46.39.012,jersey_experiment_5_v3,2023.2.2,Win32,85.47008547,,,,,,,,,,,,,,,,141.2103,142.5045,142.5045,143.7162,return,0.1624,,4.557291667,0,37,37,36,1,FBP-OG-18.png,0.37,1.2,37,0.5,,,,,,,,,,,,,,,,,,,,,,,,,,,,,,,,,,,,,,,,,,,,,
,,,,,V3_062,21,Female,2024-11-14_15h46.39.012,jersey_experiment_5_v3,2023.2.2,Win32,85.47008547,,,,,,,,,,,,,,,,143.7164,145.2691,145.2691,146.9396,return,0.7945,,14.32291667,0,38,38,51,1,FBP-RB-18.png,0.37,1.2,52,0.75,,,,,,,,,,,,,,,,,,,,,,,,,,,,,,,,,,,,,,,,,,,,,
,,,,,V3_062,21,Female,2024-11-14_15h46.39.012,jersey_experiment_5_v3,2023.2.2,Win32,85.47008547,,,,,,,,,,,,,,,,146.9399,148.4811,148.4812,149.3871,return,0.123,,23.828125,0,39,39,11,1,FBP-YG-91.png,0.37,1.2,12,0.75,,,,,,,,,,,,,,,,,,,,,,,,,,,,,,,,,,,,,,,,,,,,,
,,,,,V3_062,21,Female,2024-11-14_15h46.39.012,jersey_experiment_5_v3,2023.2.2,Win32,85.47008547,,,,,,,,,,,,,,,,149.3874,150.94,150.9401,151.6931,return,0.0742,,72.78645833,0,40,40,24,1,FBP-PT-18.png,0.45,1.2,25,0.75,,,,,,,,,,,,,,,,,,,,,,,,,,,,,,,,,,,,,,,,,,,,,
,,,,,V3_062,21,Female,2024-11-14_15h46.39.012,jersey_experiment_5_v3,2023.2.2,Win32,85.47008547,,,,,,,,,,,,,,,,151.6933,153.246,153.2461,154.0578,return,0.0421,,26.5625,0,41,41,55,1,FBP-RB-19.png,0.35,1.2,56,0.75,,,,,,,,,,,,,,,,,,,,,,,,,,,,,,,,,,,,,,,,,,,,,
,,,,,V3_062,21,Female,2024-11-14_15h46.39.012,jersey_experiment_5_v3,2023.2.2,Win32,85.47008547,,,,,,,,,,,,,,,,154.0581,155.6109,155.611,156.6578,return,0.0365,,49.73958333,0,42,42,1,1,FBP-YG-71.png,0.37,1.2,2,0.75,,,,,,,,,,,,,,,,,,,,,,,,,,,,,,,,,,,,,,,,,,,,,
,,,,,V3_062,21,Female,2024-11-14_15h46.39.012,jersey_experiment_5_v3,2023.2.2,Win32,85.47008547,,,,,,,,,,,,,,,,156.6582,158.2111,158.2112,159.1991,return,0.0006,,17.31770833,0,43,43,5,1,FBP-YG-81.png,0.35,1.2,6,0.75,,,,,,,,,,,,,,,,,,,,,,,,,,,,,,,,,,,,,,,,,,,,,
,,,,,V3_062,21,Female,2024-11-14_15h46.39.012,jersey_experiment_5_v3,2023.2.2,Win32,85.47008547,,,,,,,,,,,,,,,,159.1995,160.4934,160.4935,161.7876,return,0.0655,,74.34895833,0,44,44,34,1,FBP-OG-17.png,0.45,1.2,35,0.5,,,,,,,,,,,,,,,,,,,,,,,,,,,,,,,,,,,,,,,,,,,,,
,,,,,V3_062,21,Female,2024-11-14_15h46.39.012,jersey_experiment_5_v3,2023.2.2,Win32,85.47008547,,,,,,,,,,,,,,,,161.7879,163.3405,163.3405,164.7875,return,0.0093,,41.015625,0,45,45,50,1,FBP-RB-18.png,0.35,1.2,51,0.75,,,,,,,,,,,,,,,,,,,,,,,,,,,,,,,,,,,,,,,,,,,,,
,,,,,V3_062,21,Female,2024-11-14_15h46.39.012,jersey_experiment_5_v3,2023.2.2,Win32,85.47008547,,,,,,,,,,,,,,,,164.7878,166.3407,166.3408,167.211,return,0.0067,,25.13020833,0,46,46,21,1,FBP-PT-18.png,0.37,1.2,22,0.75,,,,,,,,,,,,,,,,,,,,,,,,,,,,,,,,,,,,,,,,,,,,,
,,,,,V3_062,21,Female,2024-11-14_15h46.39.012,jersey_experiment_5_v3,2023.2.2,Win32,85.47008547,,,,,,,,,,,,,,,,167.2113,168.7527,168.7527,169.5877,return,0.2118,,26.30208333,0,47,47,46,1,FBP-RB-17.png,0.37,1.2,47,0.75,,,,,,,,,,,,,,,,,,,,,,,,,,,,,,,,,,,,,,,,,,,,,
,,,,,V3_062,21,Female,2024-11-14_15h46.39.012,jersey_experiment_5_v3,2023.2.2,Win32,85.47008547,,,,,,,,,,,,,,,,169.588,170.8818,170.8819,171.929,return,0.1027,,19.53125,0,48,48,31,1,FBP-OG-17.png,0.37,1.2,32,0.5,,,,,,,,,,,,,,,,,,,,,,,,,,,,,,,,,,,,,,,,,,,,,
,,,,,V3_062,21,Female,2024-11-14_15h46.39.012,jersey_experiment_5_v3,2023.2.2,Win32,85.47008547,,,,,,,,,,,,,,,,171.9292,173.482,173.482,175.0585,return,0.0469,,66.015625,0,49,49,52,1,FBP-RB-18.png,0.4,1.2,53,0.75,,,,,,,,,,,,,,,,,,,,,,,,,,,,,,,,,,,,,,,,,,,,,
,,,,,V3_062,21,Female,2024-11-14_15h46.39.012,jersey_experiment_5_v3,2023.2.2,Win32,85.47008547,,,,,,,,,,,,,,,,175.0587,176.6116,176.6117,177.9647,return,0.1701,,89.84375,0,50,50,9,1,FBP-YG-81.png,0.45,1.2,10,0.75,,,,,,,,,,,,,,,,,,,,,,,,,,,,,,,,,,,,,,,,,,,,,
,,,,,V3_062,21,Female,2024-11-14_15h46.39.012,jersey_experiment_5_v3,2023.2.2,Win32,85.47008547,,,,,,,,,,,,,,,,177.965,179.5175,179.5176,181.5292,return,0.3735,,61.19791667,0,51,51,47,1,FBP-RB-17.png,0.4,1.2,48,0.75,,,,,,,,,,,,,,,,,,,,,,,,,,,,,,,,,,,,,,,,,,,,,
,,,,,V3_062,21,Female,2024-11-14_15h46.39.012,jersey_experiment_5_v3,2023.2.2,Win32,85.47008547,,,,,,,,,,,,,,,,181.5295,183.0823,183.0824,183.8706,return,0.0271,,83.984375,0,52,52,59,1,FBP-RB-19.png,0.45,1.2,60,0.75,,,,,,,,,,,,,,,,,,,,,,,,,,,,,,,,,,,,,,,,,,,,,
,,,,,V3_062,21,Female,2024-11-14_15h46.39.012,jersey_experiment_5_v3,2023.2.2,Win32,85.47008547,,,,,,,,,,,,,,,,183.8708,185.4236,185.4237,186.353,return,0.0135,,58.984375,0,53,53,57,1,FBP-RB-19.png,0.4,1.2,58,0.75,,,,,,,,,,,,,,,,,,,,,,,,,,,,,,,,,,,,,,,,,,,,,
,,,,,V3_062,21,Female,2024-11-14_15h46.39.012,jersey_experiment_5_v3,2023.2.2,Win32,85.47008547,,,,,,,,,,,,,,,,186.3535,187.9059,187.906,189.7768,return,0.176,,49.73958333,0,54,54,7,1,FBP-YG-81.png,0.4,1.2,8,0.75,,,,,,,,,,,,,,,,,,,,,,,,,,,,,,,,,,,,,,,,,,,,,
,,,,,V3_062,21,Female,2024-11-14_15h46.39.012,jersey_experiment_5_v3,2023.2.2,Win32,85.47008547,,,,,,,,,,,,,,,,189.777,191.0708,191.0708,191.9888,return,0.1418,,61.58854167,0,55,55,32,1,FBP-OG-17.png,0.4,1.2,33,0.5,,,,,,,,,,,,,,,,,,,,,,,,,,,,,,,,,,,,,,,,,,,,,
,,,,,V3_062,21,Female,2024-11-14_15h46.39.012,jersey_experiment_5_v3,2023.2.2,Win32,85.47008547,,,,,,,,,,,,,,,,191.9891,193.5416,193.5417,195.73,return,0.212,,84.89583333,0,56,56,54,1,FBP-RB-18.png,0.45,1.2,55,0.75,,,,,,,,,,,,,,,,,,,,,,,,,,,,,,,,,,,,,,,,,,,,,
,,,,,V3_062,21,Female,2024-11-14_15h46.39.012,jersey_experiment_5_v3,2023.2.2,Win32,85.47008547,,,,,,,,,,,,,,,,195.7304,197.2829,197.2829,200.0124,return,0.1467,,58.59375,0,57,57,22,1,FBP-PT-18.png,0.4,1.2,23,0.75,,,,,,,,,,,,,,,,,,,,,,,,,,,,,,,,,,,,,,,,,,,,,
,,,,,V3_062,21,Female,2024-11-14_15h46.39.012,jersey_experiment_5_v3,2023.2.2,Win32,85.47008547,,,,,,,,,,,,,,,,200.0126,201.5653,201.5654,202.7067,return,0.4846,,60.67708333,0,58,58,2,1,FBP-YG-71.png,0.4,1.2,3,0.75,,,,,,,,,,,,,,,,,,,,,,,,,,,,,,,,,,,,,,,,,,,,,
,,,,,V3_062,21,Female,2024-11-14_15h46.39.012,jersey_experiment_5_v3,2023.2.2,Win32,85.47008547,,,,,,,,,,,,,,,,202.7072,204.2596,204.2597,205.1185,return,0.0374,,83.07291667,0,59,59,14,1,FBP-YG-91.png,0.45,1.2,15,0.75,,,,,,,,,,,,,,,,,,,,,,,,,,,,,,,,,,,,,,,,,,,,,
,,,,,V3_062,21,Female,2024-11-14_15h46.39.012,jersey_experiment_5_v3,2023.2.2,Win32,85.47008547,,,,,,,,,,,,,,,,205.1197,206.4126,206.4126,207.4715,return,0.0839,,84.24479167,,,,,,FBP-OG-81.png,0.45,1.2,40,0.5,0,0,0,39,1,,,,,,,,,,,,,,,,,,,,,,,,,,,,,,,,,,,,,,,,
,,,,,V3_062,21,Female,2024-11-14_15h46.39.012,jersey_experiment_5_v3,2023.2.2,Win32,85.47008547,,,,,,,,,,,,,,,,207.4718,208.7657,208.7657,210.4952,return,0.6839,,22.52604167,,,,,,FBP-OG-81.png,0.35,1.2,36,0.5,0,1,1,35,1,,,,,,,,,,,,,,,,,,,,,,,,,,,,,,,,,,,,,,,,
,,,,,V3_062,21,Female,2024-11-14_15h46.39.012,jersey_experiment_5_v3,2023.2.2,Win32,85.47008547,,,,,,,,,,,,,,,,210.4955,212.0482,212.0482,213.6365,return,0.07,,24.21875,,,,,,FBP-YG-19.png,0.37,1.2,12,0.75,0,2,2,11,1,,,,,,,,,,,,,,,,,,,,,,,,,,,,,,,,,,,,,,,,
,,,,,V3_062,21,Female,2024-11-14_15h46.39.012,jersey_experiment_5_v3,2023.2.2,Win32,85.47008547,,,,,,,,,,,,,,,,213.6368,214.9306,214.9306,216.8953,return,0.0614,,72.78645833,,,,,,FBP-OG-71.png,0.43,1.2,34,0.5,0,3,3,33,1,,,,,,,,,,,,,,,,,,,,,,,,,,,,,,,,,,,,,,,,
,,,,,V3_062,21,Female,2024-11-14_15h46.39.012,jersey_experiment_5_v3,2023.2.2,Win32,85.47008547,,,,,,,,,,,,,,,,216.8957,218.4488,218.4488,219.7426,return,0.2271,,29.03645833,,,,,,FBP-PT-81.png,0.4,1.2,23,0.75,0,4,4,22,1,,,,,,,,,,,,,,,,,,,,,,,,,,,,,,,,,,,,,,,,
,,,,,V3_062,21,Female,2024-11-14_15h46.39.012,jersey_experiment_5_v3,2023.2.2,Win32,85.47008547,,,,,,,,,,,,,,,,219.7428,221.2956,221.2956,222.5427,return,0.0707,,30.20833333,,,,,,FBP-RB-81.png,0.4,1.2,53,0.75,0,5,5,52,1,,,,,,,,,,,,,,,,,,,,,,,,,,,,,,,,,,,,,,,,
,,,,,V3_062,21,Female,2024-11-14_15h46.39.012,jersey_experiment_5_v3,2023.2.2,Win32,85.47008547,,,,,,,,,,,,,,,,222.543,224.0957,224.0957,225.2486,return,0.0635,,79.16666667,,,,,,FBP-RB-91.png,0.45,1.2,60,0.75,0,6,6,59,1,,,,,,,,,,,,,,,,,,,,,,,,,,,,,,,,,,,,,,,,
,,,,,V3_062,21,Female,2024-11-14_15h46.39.012,jersey_experiment_5_v3,2023.2.2,Win32,85.47008547,,,,,,,,,,,,,,,,225.2489,226.5428,226.5429,227.4017,return,0.0424,,38.28125,,,,,,FBP-OG-71.png,0.37,1.2,32,0.5,0,7,7,31,1,,,,,,,,,,,,,,,,,,,,,,,,,,,,,,,,,,,,,,,,
,,,,,V3_062,21,Female,2024-11-14_15h46.39.012,jersey_experiment_5_v3,2023.2.2,Win32,85.47008547,,,,,,,,,,,,,,,,227.402,228.9548,228.9549,229.6488,return,0.061,,13.28125,,,,,,FBP-PT-71.png,0.37,1.2,17,0.75,0,8,8,16,1,,,,,,,,,,,,,,,,,,,,,,,,,,,,,,,,,,,,,,,,
,,,,,V3_062,21,Female,2024-11-14_15h46.39.012,jersey_experiment_5_v3,2023.2.2,Win32,85.47008547,,,,,,,,,,,,,,,,229.6491,231.202,231.202,232.3077,return,0.4382,,63.671875,,,,,,FBP-PT-91.png,0.43,1.2,29,0.75,0,9,9,28,1,,,,,,,,,,,,,,,,,,,,,,,,,,,,,,,,,,,,,,,,
,,,,,V3_062,21,Female,2024-11-14_15h46.39.012,jersey_experiment_5_v3,2023.2.2,Win32,85.47008547,,,,,,,,,,,,,,,,232.308,233.6019,233.602,234.3784,return,0.0514,,10.15625,,,,,,FBP-OG-71.png,0.35,1.2,31,0.5,0,10,10,30,1,,,,,,,,,,,,,,,,,,,,,,,,,,,,,,,,,,,,,,,,
,,,,,V3_062,21,Female,2024-11-14_15h46.39.012,jersey_experiment_5_v3,2023.2.2,Win32,85.47008547,,,,,,,,,,,,,,,,234.3786,235.9314,235.9314,236.9902,return,0.0263,,85.546875,,,,,,FBP-YG-17.png,0.45,1.2,5,0.75,0,11,11,4,1,,,,,,,,,,,,,,,,,,,,,,,,,,,,,,,,,,,,,,,,
,,,,,V3_062,21,Female,2024-11-14_15h46.39.012,jersey_experiment_5_v3,2023.2.2,Win32,85.47008547,,,,,,,,,,,,,,,,236.9906,238.5432,238.5433,241.0377,return,0.6384,,20.57291667,,,,,,FBP-YG-17.png,0.35,1.2,1,0.75,0,12,12,0,1,,,,,,,,,,,,,,,,,,,,,,,,,,,,,,,,,,,,,,,,
,,,,,V3_062,21,Female,2024-11-14_15h46.39.012,jersey_experiment_5_v3,2023.2.2,Win32,85.47008547,,,,,,,,,,,,,,,,241.0379,242.5907,242.5907,243.4023,return,0.0418,,16.53645833,,,,,,FBP-RB-71.png,0.37,1.2,47,0.75,0,13,13,46,1,,,,,,,,,,,,,,,,,,,,,,,,,,,,,,,,,,,,,,,,
,,,,,V3_062,21,Female,2024-11-14_15h46.39.012,jersey_experiment_5_v3,2023.2.2,Win32,85.47008547,,,,,,,,,,,,,,,,243.4025,244.9555,244.9556,245.9202,return,0.0356,,60.28645833,,,,,,FBP-RB-71.png,0.43,1.2,49,0.75,0,14,14,48,1,,,,,,,,,,,,,,,,,,,,,,,,,,,,,,,,,,,,,,,,
,,,,,V3_062,21,Female,2024-11-14_15h46.39.012,jersey_experiment_5_v3,2023.2.2,Win32,85.47008547,,,,,,,,,,,,,,,,245.9204,247.473,247.4731,248.3554,return,0.0595,,16.27604167,,,,,,FBP-YG-19.png,0.35,1.2,11,0.75,0,15,15,10,1,,,,,,,,,,,,,,,,,,,,,,,,,,,,,,,,,,,,,,,,
,,,,,V3_062,21,Female,2024-11-14_15h46.39.012,jersey_experiment_5_v3,2023.2.2,Win32,85.47008547,,,,,,,,,,,,,,,,248.3556,249.8971,249.8972,251.4378,return,0.519,,35.546875,,,,,,FBP-RB-91.png,0.37,1.2,57,0.75,0,16,16,56,1,,,,,,,,,,,,,,,,,,,,,,,,,,,,,,,,,,,,,,,,
,,,,,V3_062,21,Female,2024-11-14_15h46.39.012,jersey_experiment_5_v3,2023.2.2,Win32,85.47008547,,,,,,,,,,,,,,,,251.438,252.7321,252.7321,253.9557,return,0.1642,,85.02604167,,,,,,FBP-OG-71.png,0.45,1.2,35,0.5,0,17,17,34,1,,,,,,,,,,,,,,,,,,,,,,,,,,,,,,,,,,,,,,,,
,,,,,V3_062,21,Female,2024-11-14_15h46.39.012,jersey_experiment_5_v3,2023.2.2,Win32,85.47008547,,,,,,,,,,,,,,,,253.956,255.5087,255.5088,256.6382,return,0.2039,,30.46875,,,,,,FBP-PT-81.png,0.35,1.2,21,0.75,0,18,18,20,1,,,,,,,,,,,,,,,,,,,,,,,,,,,,,,,,,,,,,,,,
,,,,,V3_062,21,Female,2024-11-14_15h46.39.012,jersey_experiment_5_v3,2023.2.2,Win32,85.47008547,,,,,,,,,,,,,,,,256.6384,258.191,258.191,259.7088,return,0.6509,,59.11458333,,,,,,FBP-PT-71.png,0.4,1.2,18,0.75,0,19,19,17,1,,,,,,,,,,,,,,,,,,,,,,,,,,,,,,,,,,,,,,,,
,,,,,V3_062,21,Female,2024-11-14_15h46.39.012,jersey_experiment_5_v3,2023.2.2,Win32,85.47008547,,,,,,,,,,,,,,,,259.7091,261.2618,261.2619,262.0735,return,0.0437,,88.02083333,,,,,,FBP-YG-18.png,0.45,1.2,10,0.75,0,20,20,9,1,,,,,,,,,,,,,,,,,,,,,,,,,,,,,,,,,,,,,,,,
,,,,,V3_062,21,Female,2024-11-14_15h46.39.012,jersey_experiment_5_v3,2023.2.2,Win32,85.47008547,,,,,,,,,,,,,,,,262.0738,263.6266,263.6266,264.8149,return,0.1322,,36.45833333,,,,,,FBP-RB-81.png,0.35,1.2,51,0.75,0,21,21,50,1,,,,,,,,,,,,,,,,,,,,,,,,,,,,,,,,,,,,,,,,
,,,,,V3_062,21,Female,2024-11-14_15h46.39.012,jersey_experiment_5_v3,2023.2.2,Win32,85.47008547,,,,,,,,,,,,,,,,264.8151,266.3678,266.3679,267.3797,return,0.0944,,61.71875,,,,,,FBP-RB-91.png,0.4,1.2,58,0.75,0,22,22,57,1,,,,,,,,,,,,,,,,,,,,,,,,,,,,,,,,,,,,,,,,
,,,,,V3_062,21,Female,2024-11-14_15h46.39.012,jersey_experiment_5_v3,2023.2.2,Win32,85.47008547,,,,,,,,,,,,,,,,267.3799,268.9327,268.9327,269.9563,return,0.1651,,82.8125,,,,,,FBP-PT-91.png,0.45,1.2,30,0.75,0,23,23,29,1,,,,,,,,,,,,,,,,,,,,,,,,,,,,,,,,,,,,,,,,
,,,,,V3_062,21,Female,2024-11-14_15h46.39.012,jersey_experiment_5_v3,2023.2.2,Win32,85.47008547,,,,,,,,,,,,,,,,269.9567,271.5092,271.5093,272.274,return,0.0342,,79.81770833,,,,,,FBP-PT-71.png,0.43,1.2,19,0.75,0,24,24,18,1,,,,,,,,,,,,,,,,,,,,,,,,,,,,,,,,,,,,,,,,
,,,,,V3_062,21,Female,2024-11-14_15h46.39.012,jersey_experiment_5_v3,2023.2.2,Win32,85.47008547,,,,,,,,,,,,,,,,272.2744,273.5681,273.5681,274.6269,return,0.0707,,64.71354167,,,,,,FBP-OG-91.png,0.4,1.2,43,0.5,0,25,25,42,1,,,,,,,,,,,,,,,,,,,,,,,,,,,,,,,,,,,,,,,,
,,,,,V3_062,21,Female,2024-11-14_15h46.39.012,jersey_experiment_5_v3,2023.2.2,Win32,85.47008547,,,,,,,,,,,,,,,,274.6272,276.1799,276.18,276.9919,return,0.0951,,84.375,,,,,,FBP-RB-91.png,0.43,1.2,59,0.75,0,26,26,58,1,,,,,,,,,,,,,,,,,,,,,,,,,,,,,,,,,,,,,,,,
,,,,,V3_062,21,Female,2024-11-14_15h46.39.012,jersey_experiment_5_v3,2023.2.2,Win32,85.47008547,,,,,,,,,,,,,,,,276.9922,278.2859,278.286,280.7213,return,0.9742,,75.65104167,,,,,,FBP-OG-81.png,0.4,1.2,38,0.5,0,27,27,37,1,,,,,,,,,,,,,,,,,,,,,,,,,,,,,,,,,,,,,,,,
,,,,,V3_062,21,Female,2024-11-14_15h46.39.012,jersey_experiment_5_v3,2023.2.2,Win32,85.47008547,,,,,,,,,,,,,,,,280.7215,282.2745,282.2745,283.6626,return,0.0742,,19.921875,,,,,,FBP-PT-91.png,0.35,1.2,26,0.75,0,28,28,25,1,,,,,,,,,,,,,,,,,,,,,,,,,,,,,,,,,,,,,,,,
,,,,,V3_062,21,Female,2024-11-14_15h46.39.012,jersey_experiment_5_v3,2023.2.2,Win32,85.47008547,,,,,,,,,,,,,,,,283.6628,285.2159,285.2159,286.4746,return,0.4901,,62.63020833,,,,,,FBP-YG-17.png,0.43,1.2,4,0.75,0,29,29,3,1,,,,,,,,,,,,,,,,,,,,,,,,,,,,,,,,,,,,,,,,
,,,,,V3_062,21,Female,2024-11-14_15h46.39.012,jersey_experiment_5_v3,2023.2.2,Win32,85.47008547,,,,,,,,,,,,,,,,286.4749,288.0274,288.0275,289.2628,return,0.0821,,30.72916667,,,,,,FBP-RB-71.png,0.35,1.2,46,0.75,0,30,30,45,1,,,,,,,,,,,,,,,,,,,,,,,,,,,,,,,,,,,,,,,,
,,,,,V3_062,21,Female,2024-11-14_15h46.39.012,jersey_experiment_5_v3,2023.2.2,Win32,85.47008547,,,,,,,,,,,,,,,,289.263,290.8162,290.8164,291.8984,return,0.2293,,15.10416667,,,,,,FBP-YG-18.png,0.35,1.2,6,0.75,0,31,31,5,1,,,,,,,,,,,,,,,,,,,,,,,,,,,,,,,,,,,,,,,,
,,,,,V3_062,21,Female,2024-11-14_15h46.39.012,jersey_experiment_5_v3,2023.2.2,Win32,85.47008547,,,,,,,,,,,,,,,,291.8986,293.1925,293.1925,294.1925,return,0.0605,,16.92708333,,,,,,FBP-OG-91.png,0.37,1.2,42,0.5,0,32,32,41,1,,,,,,,,,,,,,,,,,,,,,,,,,,,,,,,,,,,,,,,,
,,,,,V3_062,21,Female,2024-11-14_15h46.39.012,jersey_experiment_5_v3,2023.2.2,Win32,85.47008547,,,,,,,,,,,,,,,,294.1928,295.7454,295.7454,296.8278,return,0.065,,57.421875,,,,,,FBP-YG-18.png,0.4,1.2,8,0.75,0,33,33,7,1,,,,,,,,,,,,,,,,,,,,,,,,,,,,,,,,,,,,,,,,
,,,,,V3_062,21,Female,2024-11-14_15h46.39.012,jersey_experiment_5_v3,2023.2.2,Win32,85.47008547,,,,,,,,,,,,,,,,296.8281,298.3809,298.381,299.7694,return,0.7136,,90.234375,,,,,,FBP-RB-71.png,0.45,1.2,50,0.75,0,34,34,49,1,,,,,,,,,,,,,,,,,,,,,,,,,,,,,,,,,,,,,,,,
,,,,,V3_062,21,Female,2024-11-14_15h46.39.012,jersey_experiment_5_v3,2023.2.2,Win32,85.47008547,,,,,,,,,,,,,,,,299.7697,301.3221,301.3222,302.0989,return,0.2037,,96.74479167,,,,,,FBP-YG-19.png,0.45,1.2,15,0.75,0,35,35,14,1,,,,,,,,,,,,,,,,,,,,,,,,,,,,,,,,,,,,,,,,
,,,,,V3_062,21,Female,2024-11-14_15h46.39.012,jersey_experiment_5_v3,2023.2.2,Win32,85.47008547,,,,,,,,,,,,,,,,302.099,303.6518,303.6518,305.0281,return,0.0706,,77.34375,,,,,,FBP-YG-18.png,0.43,1.2,9,0.75,0,36,36,8,1,,,,,,,,,,,,,,,,,,,,,,,,,,,,,,,,,,,,,,,,
,,,,,V3_062,21,Female,2024-11-14_15h46.39.012,jersey_experiment_5_v3,2023.2.2,Win32,85.47008547,,,,,,,,,,,,,,,,305.0284,306.5813,306.5813,307.6754,return,0.5599,,86.84895833,,,,,,FBP-RB-81.png,0.45,1.2,55,0.75,0,37,37,54,1,,,,,,,,,,,,,,,,,,,,,,,,,,,,,,,,,,,,,,,,
,,,,,V3_062,21,Female,2024-11-14_15h46.39.012,jersey_experiment_5_v3,2023.2.2,Win32,85.47008547,,,,,,,,,,,,,,,,307.6757,308.9703,308.9704,310.2754,return,0.0555,,34.50520833,,,,,,FBP-OG-71.png,0.4,1.2,33,0.5,0,38,38,32,1,,,,,,,,,,,,,,,,,,,,,,,,,,,,,,,,,,,,,,,,
,,,,,V3_062,21,Female,2024-11-14_15h46.39.012,jersey_experiment_5_v3,2023.2.2,Win32,85.47008547,,,,,,,,,,,,,,,,310.2757,311.8286,311.8286,314.4168,return,1.2587,,51.69270833,,,,,,FBP-PT-81.png,0.43,1.2,24,0.75,0,39,39,23,1,,,,,,,,,,,,,,,,,,,,,,,,,,,,,,,,,,,,,,,,
,,,,,V3_062,21,Female,2024-11-14_15h46.39.012,jersey_experiment_5_v3,2023.2.2,Win32,85.47008547,,,,,,,,,,,,,,,,314.417,315.9696,315.9698,317.9345,return,1.0613,,45.44270833,,,,,,FBP-RB-81.png,0.37,1.2,52,0.75,0,40,40,51,1,,,,,,,,,,,,,,,,,,,,,,,,,,,,,,,,,,,,,,,,
,,,,,V3_062,21,Female,2024-11-14_15h46.39.012,jersey_experiment_5_v3,2023.2.2,Win32,85.47008547,,,,,,,,,,,,,,,,317.9349,319.4875,319.4876,321.3111,return,0.0971,,64.32291667,,,,,,FBP-YG-19.png,0.43,1.2,14,0.75,0,41,41,13,1,,,,,,,,,,,,,,,,,,,,,,,,,,,,,,,,,,,,,,,,
,,,,,V3_062,21,Female,2024-11-14_15h46.39.012,jersey_experiment_5_v3,2023.2.2,Win32,85.47008547,,,,,,,,,,,,,,,,321.3113,322.6052,322.6052,323.97,return,0.6826,,63.671875,,,,,,FBP-OG-91.png,0.43,1.2,44,0.5,0,42,42,43,1,,,,,,,,,,,,,,,,,,,,,,,,,,,,,,,,,,,,,,,,
,,,,,V3_062,21,Female,2024-11-14_15h46.39.012,jersey_experiment_5_v3,2023.2.2,Win32,85.47008547,,,,,,,,,,,,,,,,323.9702,325.523,325.523,326.7348,return,0.6138,,26.5625,,,,,,FBP-RB-91.png,0.35,1.2,56,0.75,0,43,43,55,1,,,,,,,,,,,,,,,,,,,,,,,,,,,,,,,,,,,,,,,,
,,,,,V3_062,21,Female,2024-11-14_15h46.39.012,jersey_experiment_5_v3,2023.2.2,Win32,85.47008547,,,,,,,,,,,,,,,,326.735,328.0292,328.0292,328.8174,return,0.0242,,71.22395833,,,,,,FBP-OG-91.png,0.45,1.2,45,0.5,0,44,44,44,1,,,,,,,,,,,,,,,,,,,,,,,,,,,,,,,,,,,,,,,,
,,,,,V3_062,21,Female,2024-11-14_15h46.39.012,jersey_experiment_5_v3,2023.2.2,Win32,85.47008547,,,,,,,,,,,,,,,,328.8176,330.3705,330.3705,331.0998,return,0.0167,,34.24479167,,,,,,FBP-PT-91.png,0.4,1.2,28,0.75,0,45,45,27,1,,,,,,,,,,,,,,,,,,,,,,,,,,,,,,,,,,,,,,,,
,,,,,V3_062,21,Female,2024-11-14_15h46.39.012,jersey_experiment_5_v3,2023.2.2,Win32,85.47008547,,,,,,,,,,,,,,,,331.1,332.6526,332.6527,333.4998,return,0.1241,,31.640625,,,,,,FBP-YG-19.png,0.4,1.2,13,0.75,0,46,46,12,1,,,,,,,,,,,,,,,,,,,,,,,,,,,,,,,,,,,,,,,,
,,,,,V3_062,21,Female,2024-11-14_15h46.39.012,jersey_experiment_5_v3,2023.2.2,Win32,85.47008547,,,,,,,,,,,,,,,,333.5002,335.0527,335.0527,335.8057,return,0.0514,,18.359375,,,,,,FBP-PT-91.png,0.37,1.2,27,0.75,0,47,47,26,1,,,,,,,,,,,,,,,,,,,,,,,,,,,,,,,,,,,,,,,,
,,,,,V3_062,21,Female,2024-11-14_15h46.39.012,jersey_experiment_5_v3,2023.2.2,Win32,85.47008547,,,,,,,,,,,,,,,,335.806,337.3588,337.3589,338.0765,return,0.0277,,57.421875,,,,,,FBP-RB-81.png,0.43,1.2,54,0.75,0,48,48,53,1,,,,,,,,,,,,,,,,,,,,,,,,,,,,,,,,,,,,,,,,
,,,,,V3_062,21,Female,2024-11-14_15h46.39.012,jersey_experiment_5_v3,2023.2.2,Win32,85.47008547,,,,,,,,,,,,,,,,338.0766,339.3706,339.3707,340.3,return,0.0532,,7.03125,,,,,,FBP-OG-91.png,0.35,1.2,41,0.5,0,49,49,40,1,,,,,,,,,,,,,,,,,,,,,,,,,,,,,,,,,,,,,,,,
,,,,,V3_062,21,Female,2024-11-14_15h46.39.012,jersey_experiment_5_v3,2023.2.2,Win32,85.47008547,,,,,,,,,,,,,,,,340.3002,341.8532,341.8532,342.9002,return,0.1155,,66.14583333,,,,,,FBP-PT-71.png,0.45,1.2,20,0.75,0,50,50,19,1,,,,,,,,,,,,,,,,,,,,,,,,,,,,,,,,,,,,,,,,
,,,,,V3_062,21,Female,2024-11-14_15h46.39.012,jersey_experiment_5_v3,2023.2.2,Win32,85.47008547,,,,,,,,,,,,,,,,342.9004,344.1944,344.1945,345.0766,return,0.2458,,65.625,,,,,,FBP-OG-81.png,0.43,1.2,39,0.5,0,51,51,38,1,,,,,,,,,,,,,,,,,,,,,,,,,,,,,,,,,,,,,,,,
,,,,,V3_062,21,Female,2024-11-14_15h46.39.012,jersey_experiment_5_v3,2023.2.2,Win32,85.47008547,,,,,,,,,,,,,,,,345.0769,346.371,346.3711,347.3239,return,0.0764,,43.88020833,,,,,,FBP-OG-81.png,0.37,1.2,37,0.5,0,52,52,36,1,,,,,,,,,,,,,,,,,,,,,,,,,,,,,,,,,,,,,,,,
,,,,,V3_062,21,Female,2024-11-14_15h46.39.012,jersey_experiment_5_v3,2023.2.2,Win32,85.47008547,,,,,,,,,,,,,,,,347.3242,348.8767,348.8768,349.4533,return,0.0283,,42.578125,,,,,,FBP-YG-17.png,0.4,1.2,3,0.75,0,53,53,2,1,,,,,,,,,,,,,,,,,,,,,,,,,,,,,,,,,,,,,,,,
,,,,,V3_062,21,Female,2024-11-14_15h46.39.012,jersey_experiment_5_v3,2023.2.2,Win32,85.47008547,,,,,,,,,,,,,,,,349.4536,351.0065,351.0065,351.9711,return,0.0313,,28.125,,,,,,FBP-PT-81.png,0.37,1.2,22,0.75,0,54,54,21,1,,,,,,,,,,,,,,,,,,,,,,,,,,,,,,,,,,,,,,,,
,,,,,V3_062,21,Female,2024-11-14_15h46.39.012,jersey_experiment_5_v3,2023.2.2,Win32,85.47008547,,,,,,,,,,,,,,,,351.9714,353.5243,353.5243,354.2418,return,0.0244,,58.46354167,,,,,,FBP-PT-81.png,0.45,1.2,25,0.75,0,55,55,24,1,,,,,,,,,,,,,,,,,,,,,,,,,,,,,,,,,,,,,,,,
,,,,,V3_062,21,Female,2024-11-14_15h46.39.012,jersey_experiment_5_v3,2023.2.2,Win32,85.47008547,,,,,,,,,,,,,,,,354.2421,355.7948,355.7948,357.6656,return,0.8582,,34.24479167,,,,,,FBP-YG-17.png,0.37,1.2,2,0.75,0,56,56,1,1,,,,,,,,,,,,,,,,,,,,,,,,,,,,,,,,,,,,,,,,
,,,,,V3_062,21,Female,2024-11-14_15h46.39.012,jersey_experiment_5_v3,2023.2.2,Win32,85.47008547,,,,,,,,,,,,,,,,357.6659,359.2184,359.2185,360.1597,return,0.0111,,20.44270833,,,,,,FBP-YG-18.png,0.37,1.2,7,0.75,0,57,57,6,1,,,,,,,,,,,,,,,,,,,,,,,,,,,,,,,,,,,,,,,,
,,,,,V3_062,21,Female,2024-11-14_15h46.39.012,jersey_experiment_5_v3,2023.2.2,Win32,85.47008547,,,,,,,,,,,,,,,,360.1599,361.7126,361.7126,363.0538,return,0.1217,,57.16145833,,,,,,FBP-RB-71.png,0.4,1.2,48,0.75,0,58,58,47,1,,,,,,,,,,,,,,,,,,,,,,,,,,,,,,,,,,,,,,,,
,,,,,V3_062,21,Female,2024-11-14_15h46.39.012,jersey_experiment_5_v3,2023.2.2,Win32,85.47008547,,,,,,,,,,,,,,,,363.0541,364.6068,364.6068,365.9833,return,0.6034,,29.6875,,,,,,FBP-PT-71.png,0.35,1.2,16,0.75,0,59,59,15,1,,,,,,,,,,,,,,,,,,,,,,,,,,,,,,,,,,,,,,,,
,,,,,V3_062,21,Female,2024-11-14_15h46.39.012,jersey_experiment_5_v3,2023.2.2,Win32,85.47008547,,,,,,,,,,,,,,,,,,,,,,,,,,,,,,,,,,,,,,,365.9833,485.9762,,,,,,,,,,,,,,,,,,,,,,,,,,,,,,,,,,,,,,
,,,,,V3_062,21,Female,2024-11-14_15h46.39.012,jersey_experiment_5_v3,2023.2.2,Win32,85.47008547,,,,,,,,,,,,,,,,,,,,,,,,,,,,,,,,,,,,,,,,,485.9763,491.1645,return,5.178,,,,,,,,,,,,,,,,,,,,,,,,,,,,,,,,,,
,,,,,V3_062,21,Female,2024-11-14_15h46.39.012,jersey_experiment_5_v3,2023.2.2,Win32,85.47008547,,,,,,,,,,,,,,,,491.1661,492.4587,492.4587,496.353,return,2.3176,,40.36458333,,,,,,FBP-PT-18.png,0.4,1.2,23,0.5,,,,,,,,,,,,,0,0,0,22,1,,,,,,,,,,,,,,,,,,,,,,,,,,,,
,,,,,V3_062,21,Female,2024-11-14_15h46.39.012,jersey_experiment_5_v3,2023.2.2,Win32,85.47008547,,,,,,,,,,,,,,,,496.3533,497.6474,497.6475,499.0708,return,0.4624,,16.796875,,,,,,FBP-YG-71.png,0.35,1.2,1,0.5,,,,,,,,,,,,,0,1,1,0,1,,,,,,,,,,,,,,,,,,,,,,,,,,,,
,,,,,V3_062,21,Female,2024-11-14_15h46.39.012,jersey_experiment_5_v3,2023.2.2,Win32,85.47008547,,,,,,,,,,,,,,,,499.0712,500.3649,500.3649,501.3533,return,0.0445,,86.97916667,,,,,,FBP-PT-18.png,0.45,1.2,25,0.5,,,,,,,,,,,,,0,2,2,24,1,,,,,,,,,,,,,,,,,,,,,,,,,,,,
,,,,,V3_062,21,Female,2024-11-14_15h46.39.012,jersey_experiment_5_v3,2023.2.2,Win32,85.47008547,,,,,,,,,,,,,,,,501.3536,502.6474,502.6474,503.5533,return,0.0347,,70.05208333,,,,,,FBP-RB-18.png,0.43,1.2,54,0.5,,,,,,,,,,,,,0,3,3,53,1,,,,,,,,,,,,,,,,,,,,,,,,,,,,
,,,,,V3_062,21,Female,2024-11-14_15h46.39.012,jersey_experiment_5_v3,2023.2.2,Win32,85.47008547,,,,,,,,,,,,,,,,503.5535,504.8475,504.8476,506.2711,return,0.0723,,73.56770833,,,,,,FBP-PT-18.png,0.43,1.2,24,0.5,,,,,,,,,,,,,0,4,4,23,1,,,,,,,,,,,,,,,,,,,,,,,,,,,,
,,,,,V3_062,21,Female,2024-11-14_15h46.39.012,jersey_experiment_5_v3,2023.2.2,Win32,85.47008547,,,,,,,,,,,,,,,,506.2713,507.8239,507.824,508.8592,return,0.0186,,29.296875,,,,,,FBP-OG-19.png,0.4,1.2,43,0.75,,,,,,,,,,,,,0,5,5,42,1,,,,,,,,,,,,,,,,,,,,,,,,,,,,
,,,,,V3_062,21,Female,2024-11-14_15h46.39.012,jersey_experiment_5_v3,2023.2.2,Win32,85.47008547,,,,,,,,,,,,,,,,508.8595,510.1535,510.1536,511.0595,return,0.1888,,16.92708333,,,,,,FBP-RB-18.png,0.35,1.2,51,0.5,,,,,,,,,,,,,0,6,6,50,1,,,,,,,,,,,,,,,,,,,,,,,,,,,,
,,,,,V3_062,21,Female,2024-11-14_15h46.39.012,jersey_experiment_5_v3,2023.2.2,Win32,85.47008547,,,,,,,,,,,,,,,,511.0598,512.3536,512.3538,513.9536,return,0.4478,,60.41666667,,,,,,FBP-PT-19.png,0.4,1.2,28,0.5,,,,,,,,,,,,,0,7,7,27,1,,,,,,,,,,,,,,,,,,,,,,,,,,,,
,,,,,V3_062,21,Female,2024-11-14_15h46.39.012,jersey_experiment_5_v3,2023.2.2,Win32,85.47008547,,,,,,,,,,,,,,,,513.9539,515.2478,515.2478,516.0126,return,0.0258,,63.02083333,,,,,,FBP-RB-19.png,0.4,1.2,58,0.5,,,,,,,,,,,,,0,8,8,57,1,,,,,,,,,,,,,,,,,,,,,,,,,,,,
,,,,,V3_062,21,Female,2024-11-14_15h46.39.012,jersey_experiment_5_v3,2023.2.2,Win32,85.47008547,,,,,,,,,,,,,,,,516.0128,517.3068,517.3068,517.9773,return,0.0408,,61.19791667,,,,,,FBP-RB-17.png,0.4,1.2,48,0.5,,,,,,,,,,,,,0,9,9,47,1,,,,,,,,,,,,,,,,,,,,,,,,,,,,
,,,,,V3_062,21,Female,2024-11-14_15h46.39.012,jersey_experiment_5_v3,2023.2.2,Win32,85.47008547,,,,,,,,,,,,,,,,517.9775,519.2715,519.2715,520.5304,return,0.0133,,17.578125,,,,,,FBP-RB-19.png,0.35,1.2,56,0.5,,,,,,,,,,,,,0,10,10,55,1,,,,,,,,,,,,,,,,,,,,,,,,,,,,
,,,,,V3_062,21,Female,2024-11-14_15h46.39.012,jersey_experiment_5_v3,2023.2.2,Win32,85.47008547,,,,,,,,,,,,,,,,520.5306,521.8245,521.8245,523.0364,return,0.1236,,57.94270833,,,,,,FBP-YG-81.png,0.4,1.2,8,0.5,,,,,,,,,,,,,0,11,11,7,1,,,,,,,,,,,,,,,,,,,,,,,,,,,,
,,,,,V3_062,21,Female,2024-11-14_15h46.39.012,jersey_experiment_5_v3,2023.2.2,Win32,85.47008547,,,,,,,,,,,,,,,,523.0366,524.3305,524.3306,525.1305,return,0.0655,,92.1875,,,,,,FBP-YG-81.png,0.45,1.2,10,0.5,,,,,,,,,,,,,0,12,12,9,1,,,,,,,,,,,,,,,,,,,,,,,,,,,,
,,,,,V3_062,21,Female,2024-11-14_15h46.39.012,jersey_experiment_5_v3,2023.2.2,Win32,85.47008547,,,,,,,,,,,,,,,,525.1307,526.4246,526.4247,528.3309,return,0.9019,,44.27083333,,,,,,FBP-PT-17.png,0.37,1.2,17,0.5,,,,,,,,,,,,,0,13,13,16,1,,,,,,,,,,,,,,,,,,,,,,,,,,,,
,,,,,V3_062,21,Female,2024-11-14_15h46.39.012,jersey_experiment_5_v3,2023.2.2,Win32,85.47008547,,,,,,,,,,,,,,,,528.3312,529.6248,529.6248,530.5547,return,0.2195,,80.20833333,,,,,,FBP-RB-19.png,0.45,1.2,60,0.5,,,,,,,,,,,,,0,14,14,59,1,,,,,,,,,,,,,,,,,,,,,,,,,,,,
,,,,,V3_062,21,Female,2024-11-14_15h46.39.012,jersey_experiment_5_v3,2023.2.2,Win32,85.47008547,,,,,,,,,,,,,,,,530.555,531.8488,531.8488,532.9543,return,0.0301,,19.79166667,,,,,,FBP-YG-91.png,0.35,1.2,11,0.5,,,,,,,,,,,,,0,15,15,10,1,,,,,,,,,,,,,,,,,,,,,,,,,,,,
,,,,,V3_062,21,Female,2024-11-14_15h46.39.012,jersey_experiment_5_v3,2023.2.2,Win32,85.47008547,,,,,,,,,,,,,,,,532.9546,534.5075,534.5075,535.5074,return,0.0237,,82.16145833,,,,,,FBP-OG-17.png,0.45,1.2,35,0.75,,,,,,,,,,,,,0,16,16,34,1,,,,,,,,,,,,,,,,,,,,,,,,,,,,
,,,,,V3_062,21,Female,2024-11-14_15h46.39.012,jersey_experiment_5_v3,2023.2.2,Win32,85.47008547,,,,,,,,,,,,,,,,535.5076,536.8015,536.8016,538.6252,return,0.2608,,67.31770833,,,,,,FBP-PT-17.png,0.4,1.2,18,0.5,,,,,,,,,,,,,0,17,17,17,1,,,,,,,,,,,,,,,,,,,,,,,,,,,,
,,,,,V3_062,21,Female,2024-11-14_15h46.39.012,jersey_experiment_5_v3,2023.2.2,Win32,85.47008547,,,,,,,,,,,,,,,,538.6254,539.9193,539.9194,540.8488,return,0.2134,,90.10416667,,,,,,FBP-YG-71.png,0.45,1.2,5,0.5,,,,,,,,,,,,,0,18,18,4,1,,,,,,,,,,,,,,,,,,,,,,,,,,,,
,,,,,V3_062,21,Female,2024-11-14_15h46.39.012,jersey_experiment_5_v3,2023.2.2,Win32,85.47008547,,,,,,,,,,,,,,,,540.8491,542.1429,542.1429,542.8018,return,0.0711,,91.27604167,,,,,,FBP-RB-17.png,0.45,1.2,50,0.5,,,,,,,,,,,,,0,19,19,49,1,,,,,,,,,,,,,,,,,,,,,,,,,,,,
,,,,,V3_062,21,Female,2024-11-14_15h46.39.012,jersey_experiment_5_v3,2023.2.2,Win32,85.47008547,,,,,,,,,,,,,,,,542.8019,544.0961,544.0961,545.2606,return,0.0497,,59.63541667,,,,,,FBP-RB-19.png,0.37,1.2,57,0.5,,,,,,,,,,,,,0,20,20,56,1,,,,,,,,,,,,,,,,,,,,,,,,,,,,
,,,,,V3_062,21,Female,2024-11-14_15h46.39.012,jersey_experiment_5_v3,2023.2.2,Win32,85.47008547,,,,,,,,,,,,,,,,545.261,546.5548,546.5549,547.4843,return,0.0768,,32.16145833,,,,,,FBP-PT-19.png,0.37,1.2,27,0.5,,,,,,,,,,,,,0,21,21,26,1,,,,,,,,,,,,,,,,,,,,,,,,,,,,
,,,,,V3_062,21,Female,2024-11-14_15h46.39.012,jersey_experiment_5_v3,2023.2.2,Win32,85.47008547,,,,,,,,,,,,,,,,547.4845,548.7785,548.7785,549.6847,return,0.061,,63.93229167,,,,,,FBP-YG-91.png,0.4,1.2,13,0.5,,,,,,,,,,,,,0,22,22,12,1,,,,,,,,,,,,,,,,,,,,,,,,,,,,
,,,,,V3_062,21,Female,2024-11-14_15h46.39.012,jersey_experiment_5_v3,2023.2.2,Win32,85.47008547,,,,,,,,,,,,,,,,549.685,550.9787,550.9787,551.9198,return,0.024,,72.00520833,,,,,,FBP-PT-19.png,0.45,1.2,30,0.5,,,,,,,,,,,,,0,23,23,29,1,,,,,,,,,,,,,,,,,,,,,,,,,,,,
,,,,,V3_062,21,Female,2024-11-14_15h46.39.012,jersey_experiment_5_v3,2023.2.2,Win32,85.47008547,,,,,,,,,,,,,,,,551.9201,553.2138,553.2139,553.6845,return,0.0004,,71.61458333,,,,,,FBP-PT-19.png,0.43,1.2,29,0.5,,,,,,,,,,,,,0,24,24,28,1,,,,,,,,,,,,,,,,,,,,,,,,,,,,
,,,,,V3_062,21,Female,2024-11-14_15h46.39.012,jersey_experiment_5_v3,2023.2.2,Win32,85.47008547,,,,,,,,,,,,,,,,553.6849,554.9787,554.9787,557.4497,return,1.4191,,63.93229167,,,,,,FBP-YG-71.png,0.4,1.2,3,0.5,,,,,,,,,,,,,0,25,25,2,1,,,,,,,,,,,,,,,,,,,,,,,,,,,,
,,,,,V3_062,21,Female,2024-11-14_15h46.39.012,jersey_experiment_5_v3,2023.2.2,Win32,85.47008547,,,,,,,,,,,,,,,,557.45,559.0025,559.0026,560.1437,return,0.0497,,75.91145833,,,,,,FBP-OG-18.png,0.45,1.2,40,0.75,,,,,,,,,,,,,0,26,26,39,1,,,,,,,,,,,,,,,,,,,,,,,,,,,,
,,,,,V3_062,21,Female,2024-11-14_15h46.39.012,jersey_experiment_5_v3,2023.2.2,Win32,85.47008547,,,,,,,,,,,,,,,,560.1439,561.4378,561.4378,562.5437,return,0.1083,,30.59895833,,,,,,FBP-YG-81.png,0.35,1.2,6,0.5,,,,,,,,,,,,,0,27,27,5,1,,,,,,,,,,,,,,,,,,,,,,,,,,,,
,,,,,V3_062,21,Female,2024-11-14_15h46.39.012,jersey_experiment_5_v3,2023.2.2,Win32,85.47008547,,,,,,,,,,,,,,,,562.544,563.8379,563.838,564.6026,return,0.043,,12.5,,,,,,FBP-PT-18.png,0.35,1.2,21,0.5,,,,,,,,,,,,,0,28,28,20,1,,,,,,,,,,,,,,,,,,,,,,,,,,,,
,,,,,V3_062,21,Female,2024-11-14_15h46.39.012,jersey_experiment_5_v3,2023.2.2,Win32,85.47008547,,,,,,,,,,,,,,,,564.6028,566.1558,566.1558,566.8497,return,0.0823,,19.66145833,,,,,,FBP-OG-19.png,0.37,1.2,42,0.75,,,,,,,,,,,,,0,29,29,41,1,,,,,,,,,,,,,,,,,,,,,,,,,,,,
,,,,,V3_062,21,Female,2024-11-14_15h46.39.012,jersey_experiment_5_v3,2023.2.2,Win32,85.47008547,,,,,,,,,,,,,,,,566.85,568.4027,568.4028,568.9911,return,0.1442,,8.854166667,,,,,,FBP-OG-17.png,0.35,1.2,31,0.75,,,,,,,,,,,,,0,30,30,30,1,,,,,,,,,,,,,,,,,,,,,,,,,,,,
,,,,,V3_062,21,Female,2024-11-14_15h46.39.012,jersey_experiment_5_v3,2023.2.2,Win32,85.47008547,,,,,,,,,,,,,,,,568.9913,570.544,570.544,572.3089,return,0.9413,,33.59375,,,,,,FBP-OG-17.png,0.37,1.2,32,0.75,,,,,,,,,,,,,0,31,31,31,1,,,,,,,,,,,,,,,,,,,,,,,,,,,,
,,,,,V3_062,21,Female,2024-11-14_15h46.39.012,jersey_experiment_5_v3,2023.2.2,Win32,85.47008547,,,,,,,,,,,,,,,,572.3092,573.6029,573.603,574.7207,return,0.0942,,60.28645833,,,,,,FBP-PT-17.png,0.43,1.2,19,0.5,,,,,,,,,,,,,0,32,32,18,1,,,,,,,,,,,,,,,,,,,,,,,,,,,,
,,,,,V3_062,21,Female,2024-11-14_15h46.39.012,jersey_experiment_5_v3,2023.2.2,Win32,85.47008547,,,,,,,,,,,,,,,,574.7209,576.2736,576.2737,577.5325,return,0.0528,,27.734375,,,,,,FBP-OG-19.png,0.35,1.2,41,0.75,,,,,,,,,,,,,0,33,33,40,1,,,,,,,,,,,,,,,,,,,,,,,,,,,,
,,,,,V3_062,21,Female,2024-11-14_15h46.39.012,jersey_experiment_5_v3,2023.2.2,Win32,85.47008547,,,,,,,,,,,,,,,,577.5327,579.0856,579.0857,580.2385,return,0.0621,,70.83333333,,,,,,FBP-OG-19.png,0.45,1.2,45,0.75,,,,,,,,,,,,,0,34,34,44,1,,,,,,,,,,,,,,,,,,,,,,,,,,,,
,,,,,V3_062,21,Female,2024-11-14_15h46.39.012,jersey_experiment_5_v3,2023.2.2,Win32,85.47008547,,,,,,,,,,,,,,,,580.2388,581.5326,581.5326,582.0739,return,0.0556,,68.359375,,,,,,FBP-YG-71.png,0.43,1.2,4,0.5,,,,,,,,,,,,,0,35,35,3,1,,,,,,,,,,,,,,,,,,,,,,,,,,,,
,,,,,V3_062,21,Female,2024-11-14_15h46.39.012,jersey_experiment_5_v3,2023.2.2,Win32,85.47008547,,,,,,,,,,,,,,,,582.0742,583.3681,583.3681,584.4739,return,0.1261,,81.640625,,,,,,FBP-YG-91.png,0.45,1.2,15,0.5,,,,,,,,,,,,,0,36,36,14,1,,,,,,,,,,,,,,,,,,,,,,,,,,,,
,,,,,V3_062,21,Female,2024-11-14_15h46.39.012,jersey_experiment_5_v3,2023.2.2,Win32,85.47008547,,,,,,,,,,,,,,,,584.4741,585.7682,585.7682,588.2741,return,0.2721,,29.42708333,,,,,,FBP-PT-18.png,0.37,1.2,22,0.5,,,,,,,,,,,,,0,37,37,21,1,,,,,,,,,,,,,,,,,,,,,,,,,,,,
,,,,,V3_062,21,Female,2024-11-14_15h46.39.012,jersey_experiment_5_v3,2023.2.2,Win32,85.47008547,,,,,,,,,,,,,,,,588.2745,589.8271,589.8272,590.9212,return,0.3856,,22.91666667,,,,,,FBP-OG-18.png,0.37,1.2,37,0.75,,,,,,,,,,,,,0,38,38,36,1,,,,,,,,,,,,,,,,,,,,,,,,,,,,
,,,,,V3_062,21,Female,2024-11-14_15h46.39.012,jersey_experiment_5_v3,2023.2.2,Win32,85.47008547,,,,,,,,,,,,,,,,590.9214,592.2154,592.2155,593.4979,return,0.5144,,64.19270833,,,,,,FBP-RB-19.png,0.43,1.2,59,0.5,,,,,,,,,,,,,0,39,39,58,1,,,,,,,,,,,,,,,,,,,,,,,,,,,,
,,,,,V3_062,21,Female,2024-11-14_15h46.39.012,jersey_experiment_5_v3,2023.2.2,Win32,85.47008547,,,,,,,,,,,,,,,,593.4981,595.0507,595.0509,595.5684,return,0.0369,,68.09895833,,,,,,FBP-OG-19.png,0.43,1.2,44,0.75,,,,,,,,,,,,,0,40,40,43,1,,,,,,,,,,,,,,,,,,,,,,,,,,,,
,,,,,V3_062,21,Female,2024-11-14_15h46.39.012,jersey_experiment_5_v3,2023.2.2,Win32,85.47008547,,,,,,,,,,,,,,,,595.5688,596.8626,596.8626,597.8274,return,0.1211,,51.171875,,,,,,FBP-YG-81.png,0.37,1.2,7,0.5,,,,,,,,,,,,,0,41,41,6,1,,,,,,,,,,,,,,,,,,,,,,,,,,,,
,,,,,V3_062,21,Female,2024-11-14_15h46.39.012,jersey_experiment_5_v3,2023.2.2,Win32,85.47008547,,,,,,,,,,,,,,,,597.8276,599.3688,599.3688,600.5805,return,0.4363,,31.640625,,,,,,FBP-OG-18.png,0.35,1.2,36,0.75,,,,,,,,,,,,,0,42,42,35,1,,,,,,,,,,,,,,,,,,,,,,,,,,,,
,,,,,V3_062,21,Female,2024-11-14_15h46.39.012,jersey_experiment_5_v3,2023.2.2,Win32,85.47008547,,,,,,,,,,,,,,,,600.5808,601.8746,601.8747,602.9922,return,0.0359,,49.609375,,,,,,FBP-RB-18.png,0.4,1.2,53,0.5,,,,,,,,,,,,,0,43,43,52,1,,,,,,,,,,,,,,,,,,,,,,,,,,,,
,,,,,V3_062,21,Female,2024-11-14_15h46.39.012,jersey_experiment_5_v3,2023.2.2,Win32,85.47008547,,,,,,,,,,,,,,,,602.9925,604.2864,604.2865,605.2747,return,0.0779,,37.109375,,,,,,FBP-RB-17.png,0.37,1.2,47,0.5,,,,,,,,,,,,,0,44,44,46,1,,,,,,,,,,,,,,,,,,,,,,,,,,,,
,,,,,V3_062,21,Female,2024-11-14_15h46.39.012,jersey_experiment_5_v3,2023.2.2,Win32,85.47008547,,,,,,,,,,,,,,,,605.275,606.5689,606.5689,608.3691,return,0.685,,28.77604167,,,,,,FBP-YG-71.png,0.37,1.2,2,0.5,,,,,,,,,,,,,0,45,45,1,1,,,,,,,,,,,,,,,,,,,,,,,,,,,,
,,,,,V3_062,21,Female,2024-11-14_15h46.39.012,jersey_experiment_5_v3,2023.2.2,Win32,85.47008547,,,,,,,,,,,,,,,,608.3693,609.6632,609.6632,610.6515,return,0.0186,,66.66666667,,,,,,FBP-RB-17.png,0.43,1.2,49,0.5,,,,,,,,,,,,,0,46,46,48,1,,,,,,,,,,,,,,,,,,,,,,,,,,,,
,,,,,V3_062,21,Female,2024-11-14_15h46.39.012,jersey_experiment_5_v3,2023.2.2,Win32,85.47008547,,,,,,,,,,,,,,,,610.6518,611.9456,611.9456,612.8749,return,0.0868,,36.58854167,,,,,,FBP-RB-18.png,0.37,1.2,52,0.5,,,,,,,,,,,,,0,47,47,51,1,,,,,,,,,,,,,,,,,,,,,,,,,,,,
,,,,,V3_062,21,Female,2024-11-14_15h46.39.012,jersey_experiment_5_v3,2023.2.2,Win32,85.47008547,,,,,,,,,,,,,,,,612.8751,614.1691,614.1691,614.9457,return,0.0578,,13.671875,,,,,,FBP-PT-19.png,0.35,1.2,26,0.5,,,,,,,,,,,,,0,48,48,25,1,,,,,,,,,,,,,,,,,,,,,,,,,,,,
,,,,,V3_062,21,Female,2024-11-14_15h46.39.012,jersey_experiment_5_v3,2023.2.2,Win32,85.47008547,,,,,,,,,,,,,,,,614.9461,616.2399,616.2399,617.2634,return,0.0853,,67.96875,,,,,,FBP-YG-81.png,0.43,1.2,9,0.5,,,,,,,,,,,,,0,49,49,8,1,,,,,,,,,,,,,,,,,,,,,,,,,,,,
,,,,,V3_062,21,Female,2024-11-14_15h46.39.012,jersey_experiment_5_v3,2023.2.2,Win32,85.47008547,,,,,,,,,,,,,,,,617.2637,618.5576,618.5576,619.6164,return,0.0611,,44.40104167,,,,,,FBP-YG-91.png,0.37,1.2,12,0.5,,,,,,,,,,,,,0,50,50,11,1,,,,,,,,,,,,,,,,,,,,,,,,,,,,
,,,,,V3_062,21,Female,2024-11-14_15h46.39.012,jersey_experiment_5_v3,2023.2.2,Win32,85.47008547,,,,,,,,,,,,,,,,619.6166,620.9106,620.9106,622.2401,return,0.1046,,75.78125,,,,,,FBP-RB-18.png,0.45,1.2,55,0.5,,,,,,,,,,,,,0,51,51,54,1,,,,,,,,,,,,,,,,,,,,,,,,,,,,
,,,,,V3_062,21,Female,2024-11-14_15h46.39.012,jersey_experiment_5_v3,2023.2.2,Win32,85.47008547,,,,,,,,,,,,,,,,622.2404,623.5342,623.5343,624.746,return,0.2626,,23.30729167,,,,,,FBP-PT-17.png,0.35,1.2,16,0.5,,,,,,,,,,,,,0,52,52,15,1,,,,,,,,,,,,,,,,,,,,,,,,,,,,
,,,,,V3_062,21,Female,2024-11-14_15h46.39.012,jersey_experiment_5_v3,2023.2.2,Win32,85.47008547,,,,,,,,,,,,,,,,624.7462,626.299,626.2991,627.0403,return,0.0488,,44.27083333,,,,,,FBP-OG-17.png,0.4,1.2,33,0.75,,,,,,,,,,,,,0,53,53,32,1,,,,,,,,,,,,,,,,,,,,,,,,,,,,
,,,,,V3_062,21,Female,2024-11-14_15h46.39.012,jersey_experiment_5_v3,2023.2.2,Win32,85.47008547,,,,,,,,,,,,,,,,627.0406,628.3343,628.3343,629.1698,return,0.0605,,58.59375,,,,,,FBP-YG-91.png,0.43,1.2,14,0.5,,,,,,,,,,,,,0,54,54,13,1,,,,,,,,,,,,,,,,,,,,,,,,,,,,
,,,,,V3_062,21,Female,2024-11-14_15h46.39.012,jersey_experiment_5_v3,2023.2.2,Win32,85.47008547,,,,,,,,,,,,,,,,629.1701,630.7228,630.7228,632.3228,return,0.3192,,59.765625,,,,,,FBP-OG-18.png,0.4,1.2,38,0.75,,,,,,,,,,,,,0,55,55,37,1,,,,,,,,,,,,,,,,,,,,,,,,,,,,
,,,,,V3_062,21,Female,2024-11-14_15h46.39.012,jersey_experiment_5_v3,2023.2.2,Win32,85.47008547,,,,,,,,,,,,,,,,632.323,633.6169,633.617,634.417,return,0.0707,,75.13020833,,,,,,FBP-PT-17.png,0.45,1.2,20,0.5,,,,,,,,,,,,,0,56,56,19,1,,,,,,,,,,,,,,,,,,,,,,,,,,,,
,,,,,V3_062,21,Female,2024-11-14_15h46.39.012,jersey_experiment_5_v3,2023.2.2,Win32,85.47008547,,,,,,,,,,,,,,,,634.4173,635.9699,635.9699,636.7346,return,0.1316,,64.453125,,,,,,FBP-OG-18.png,0.43,1.2,39,0.75,,,,,,,,,,,,,0,57,57,38,1,,,,,,,,,,,,,,,,,,,,,,,,,,,,
,,,,,V3_062,21,Female,2024-11-14_15h46.39.012,jersey_experiment_5_v3,2023.2.2,Win32,85.47008547,,,,,,,,,,,,,,,,636.7348,638.0289,638.0289,638.9467,return,0.0085,,31.77083333,,,,,,FBP-RB-17.png,0.35,1.2,46,0.5,,,,,,,,,,,,,0,58,58,45,1,,,,,,,,,,,,,,,,,,,,,,,,,,,,
,,,,,V3_062,21,Female,2024-11-14_15h46.39.012,jersey_experiment_5_v3,2023.2.2,Win32,85.47008547,,,,,,,,,,,,,,,,638.9469,640.4997,640.4997,642.076,return,0.8767,,60.80729167,,,,,,FBP-OG-17.png,0.43,1.2,34,0.75,,,,,,,,,,,,,0,59,59,33,1,,,,,,,,,,,,,,,,,,,,,,,,,,,,
,,,,,V3_062,21,Female,2024-11-14_15h46.39.012,jersey_experiment_5_v3,2023.2.2,Win32,85.47008547,,,,,,,,,,,,,,,,642.0774,643.3703,643.3704,644.5585,return,0.0859,,63.671875,,,,,,FBP-PT-71.png,0.4,1.2,18,0.5,,,,,,,,,,,,,,,,,,0,0,0,17,1,,,,,,,,,,,,,,,,,,,,,,,
,,,,,V3_062,21,Female,2024-11-14_15h46.39.012,jersey_experiment_5_v3,2023.2.2,Win32,85.47008547,,,,,,,,,,,,,,,,644.5589,645.8526,645.8527,647.6292,return,0.2272,,27.99479167,,,,,,FBP-PT-81.png,0.35,1.2,21,0.5,,,,,,,,,,,,,,,,,,0,1,1,20,1,,,,,,,,,,,,,,,,,,,,,,,
,,,,,V3_062,21,Female,2024-11-14_15h46.39.012,jersey_experiment_5_v3,2023.2.2,Win32,85.47008547,,,,,,,,,,,,,,,,647.6294,649.1822,649.1823,650.4765,return,0.1938,,48.828125,,,,,,FBP-OG-81.png,0.4,1.2,38,0.75,,,,,,,,,,,,,,,,,,0,2,2,37,1,,,,,,,,,,,,,,,,,,,,,,,
,,,,,V3_062,21,Female,2024-11-14_15h46.39.012,jersey_experiment_5_v3,2023.2.2,Win32,85.47008547,,,,,,,,,,,,,,,,650.4768,651.7706,651.7707,653.3235,return,0.5332,,70.96354167,,,,,,FBP-PT-71.png,0.45,1.2,20,0.5,,,,,,,,,,,,,,,,,,0,3,3,19,1,,,,,,,,,,,,,,,,,,,,,,,
,,,,,V3_062,21,Female,2024-11-14_15h46.39.012,jersey_experiment_5_v3,2023.2.2,Win32,85.47008547,,,,,,,,,,,,,,,,653.3238,654.6177,654.6177,655.6412,return,0.0678,,48.17708333,,,,,,FBP-YG-18.png,0.37,1.2,7,0.5,,,,,,,,,,,,,,,,,,0,4,4,6,1,,,,,,,,,,,,,,,,,,,,,,,
,,,,,V3_062,21,Female,2024-11-14_15h46.39.012,jersey_experiment_5_v3,2023.2.2,Win32,85.47008547,,,,,,,,,,,,,,,,655.6415,657.1945,657.1945,658.6178,return,0.5362,,74.73958333,,,,,,FBP-OG-81.png,0.45,1.2,40,0.75,,,,,,,,,,,,,,,,,,0,5,5,39,1,,,,,,,,,,,,,,,,,,,,,,,
,,,,,V3_062,21,Female,2024-11-14_15h46.39.012,jersey_experiment_5_v3,2023.2.2,Win32,85.47008547,,,,,,,,,,,,,,,,658.6181,659.912,659.9121,660.5707,return,0.0162,,74.21875,,,,,,FBP-PT-81.png,0.45,1.2,25,0.5,,,,,,,,,,,,,,,,,,0,6,6,24,1,,,,,,,,,,,,,,,,,,,,,,,
,,,,,V3_062,21,Female,2024-11-14_15h46.39.012,jersey_experiment_5_v3,2023.2.2,Win32,85.47008547,,,,,,,,,,,,,,,,660.571,661.8651,661.8651,663.5947,return,0.2886,,63.02083333,,,,,,FBP-YG-19.png,0.4,1.2,13,0.5,,,,,,,,,,,,,,,,,,0,7,7,12,1,,,,,,,,,,,,,,,,,,,,,,,
,,,,,V3_062,21,Female,2024-11-14_15h46.39.012,jersey_experiment_5_v3,2023.2.2,Win32,85.47008547,,,,,,,,,,,,,,,,663.5949,664.8887,664.8888,665.9242,return,0.1537,,71.74479167,,,,,,FBP-YG-18.png,0.43,1.2,9,0.5,,,,,,,,,,,,,,,,,,0,8,8,8,1,,,,,,,,,,,,,,,,,,,,,,,
,,,,,V3_062,21,Female,2024-11-14_15h46.39.012,jersey_experiment_5_v3,2023.2.2,Win32,85.47008547,,,,,,,,,,,,,,,,665.9244,667.2184,667.2185,668.7241,return,0.1652,,30.46875,,,,,,FBP-YG-17.png,0.35,1.2,1,0.5,,,,,,,,,,,,,,,,,,0,9,9,0,1,,,,,,,,,,,,,,,,,,,,,,,
,,,,,V3_062,21,Female,2024-11-14_15h46.39.012,jersey_experiment_5_v3,2023.2.2,Win32,85.47008547,,,,,,,,,,,,,,,,668.7243,670.0183,670.0184,671.3595,return,0.132,,72.65625,,,,,,FBP-RB-91.png,0.45,1.2,60,0.5,,,,,,,,,,,,,,,,,,0,10,10,59,1,,,,,,,,,,,,,,,,,,,,,,,
,,,,,V3_062,21,Female,2024-11-14_15h46.39.012,jersey_experiment_5_v3,2023.2.2,Win32,85.47008547,,,,,,,,,,,,,,,,671.3599,672.9125,672.9126,673.7713,return,0.0626,,56.11979167,,,,,,FBP-OG-91.png,0.37,1.2,42,0.75,,,,,,,,,,,,,,,,,,0,11,11,41,1,,,,,,,,,,,,,,,,,,,,,,,
,,,,,V3_062,21,Female,2024-11-14_15h46.39.012,jersey_experiment_5_v3,2023.2.2,Win32,85.47008547,,,,,,,,,,,,,,,,673.7716,675.0656,675.0657,677.0539,return,0.0867,,68.48958333,,,,,,FBP-YG-19.png,0.45,1.2,15,0.5,,,,,,,,,,,,,,,,,,0,12,12,14,1,,,,,,,,,,,,,,,,,,,,,,,
,,,,,V3_062,21,Female,2024-11-14_15h46.39.012,jersey_experiment_5_v3,2023.2.2,Win32,85.47008547,,,,,,,,,,,,,,,,677.0542,678.607,678.6071,679.2187,return,0.0605,,50.26041667,,,,,,FBP-OG-91.png,0.4,1.2,43,0.75,,,,,,,,,,,,,,,,,,0,13,13,42,1,,,,,,,,,,,,,,,,,,,,,,,
,,,,,V3_062,21,Female,2024-11-14_15h46.39.012,jersey_experiment_5_v3,2023.2.2,Win32,85.47008547,,,,,,,,,,,,,,,,679.2189,680.513,680.5131,681.6894,return,0.2206,,66.92708333,,,,,,FBP-YG-19.png,0.43,1.2,14,0.5,,,,,,,,,,,,,,,,,,0,14,14,13,1,,,,,,,,,,,,,,,,,,,,,,,
,,,,,V3_062,21,Female,2024-11-14_15h46.39.012,jersey_experiment_5_v3,2023.2.2,Win32,85.47008547,,,,,,,,,,,,,,,,681.6897,682.9836,682.9837,684.0777,return,0.062,,49.73958333,,,,,,FBP-RB-91.png,0.37,1.2,57,0.5,,,,,,,,,,,,,,,,,,0,15,15,56,1,,,,,,,,,,,,,,,,,,,,,,,
,,,,,V3_062,21,Female,2024-11-14_15h46.39.012,jersey_experiment_5_v3,2023.2.2,Win32,85.47008547,,,,,,,,,,,,,,,,684.0779,685.3718,685.3718,686.9719,return,0.5477,,44.140625,,,,,,FBP-YG-19.png,0.37,1.2,12,0.5,,,,,,,,,,,,,,,,,,0,16,16,11,1,,,,,,,,,,,,,,,,,,,,,,,
,,,,,V3_062,21,Female,2024-11-14_15h46.39.012,jersey_experiment_5_v3,2023.2.2,Win32,85.47008547,,,,,,,,,,,,,,,,686.9722,688.2659,688.2659,689.2189,return,0.0609,,81.38020833,,,,,,FBP-RB-71.png,0.45,1.2,50,0.5,,,,,,,,,,,,,,,,,,0,17,17,49,1,,,,,,,,,,,,,,,,,,,,,,,
,,,,,V3_062,21,Female,2024-11-14_15h46.39.012,jersey_experiment_5_v3,2023.2.2,Win32,85.47008547,,,,,,,,,,,,,,,,689.2192,690.5131,690.5132,692.8779,return,1.3804,,77.08333333,,,,,,FBP-PT-91.png,0.45,1.2,30,0.5,,,,,,,,,,,,,,,,,,0,18,18,29,1,,,,,,,,,,,,,,,,,,,,,,,
,,,,,V3_062,21,Female,2024-11-14_15h46.39.012,jersey_experiment_5_v3,2023.2.2,Win32,85.47008547,,,,,,,,,,,,,,,,692.8782,694.1722,694.1722,694.9487,return,0.0475,,74.47916667,,,,,,FBP-YG-18.png,0.45,1.2,10,0.5,,,,,,,,,,,,,,,,,,0,19,19,9,1,,,,,,,,,,,,,,,,,,,,,,,
,,,,,V3_062,21,Female,2024-11-14_15h46.39.012,jersey_experiment_5_v3,2023.2.2,Win32,85.47008547,,,,,,,,,,,,,,,,694.949,696.243,696.243,697.2429,return,0.0425,,16.14583333,,,,,,FBP-PT-71.png,0.35,1.2,16,0.5,,,,,,,,,,,,,,,,,,0,20,20,15,1,,,,,,,,,,,,,,,,,,,,,,,
,,,,,V3_062,21,Female,2024-11-14_15h46.39.012,jersey_experiment_5_v3,2023.2.2,Win32,85.47008547,,,,,,,,,,,,,,,,697.2432,698.537,698.537,699.29,return,0.0289,,20.703125,,,,,,FBP-RB-71.png,0.35,1.2,46,0.5,,,,,,,,,,,,,,,,,,0,21,21,45,1,,,,,,,,,,,,,,,,,,,,,,,
,,,,,V3_062,21,Female,2024-11-14_15h46.39.012,jersey_experiment_5_v3,2023.2.2,Win32,85.47008547,,,,,,,,,,,,,,,,699.2903,700.5844,700.5845,701.2666,return,0.0634,,82.94270833,,,,,,FBP-YG-17.png,0.45,1.2,5,0.5,,,,,,,,,,,,,,,,,,0,22,22,4,1,,,,,,,,,,,,,,,,,,,,,,,
,,,,,V3_062,21,Female,2024-11-14_15h46.39.012,jersey_experiment_5_v3,2023.2.2,Win32,85.47008547,,,,,,,,,,,,,,,,701.2669,702.5607,702.5607,703.396,return,0.0944,,36.97916667,,,,,,FBP-RB-91.png,0.35,1.2,56,0.5,,,,,,,,,,,,,,,,,,0,23,23,55,1,,,,,,,,,,,,,,,,,,,,,,,
,,,,,V3_062,21,Female,2024-11-14_15h46.39.012,jersey_experiment_5_v3,2023.2.2,Win32,85.47008547,,,,,,,,,,,,,,,,703.3963,704.6902,704.6903,705.9727,return,0.0958,,46.09375,,,,,,FBP-RB-81.png,0.4,1.2,53,0.5,,,,,,,,,,,,,,,,,,0,24,24,52,1,,,,,,,,,,,,,,,,,,,,,,,
,,,,,V3_062,21,Female,2024-11-14_15h46.39.012,jersey_experiment_5_v3,2023.2.2,Win32,85.47008547,,,,,,,,,,,,,,,,705.9729,707.2668,707.2668,708.3139,return,0.3952,,29.81770833,,,,,,FBP-RB-81.png,0.35,1.2,51,0.5,,,,,,,,,,,,,,,,,,0,25,25,50,1,,,,,,,,,,,,,,,,,,,,,,,
,,,,,V3_062,21,Female,2024-11-14_15h46.39.012,jersey_experiment_5_v3,2023.2.2,Win32,85.47008547,,,,,,,,,,,,,,,,708.3142,709.608,709.6081,710.7846,return,0.2137,,67.1875,,,,,,FBP-PT-91.png,0.43,1.2,29,0.5,,,,,,,,,,,,,,,,,,0,26,26,28,1,,,,,,,,,,,,,,,,,,,,,,,
,,,,,V3_062,21,Female,2024-11-14_15h46.39.012,jersey_experiment_5_v3,2023.2.2,Win32,85.47008547,,,,,,,,,,,,,,,,710.7848,712.3375,712.3376,713.0906,return,0.0945,,65.49479167,,,,,,FBP-OG-71.png,0.43,1.2,34,0.75,,,,,,,,,,,,,,,,,,0,27,27,33,1,,,,,,,,,,,,,,,,,,,,,,,
,,,,,V3_062,21,Female,2024-11-14_15h46.39.012,jersey_experiment_5_v3,2023.2.2,Win32,85.47008547,,,,,,,,,,,,,,,,713.0909,714.3847,714.3847,715.5966,return,0.1227,,76.171875,,,,,,FBP-PT-81.png,0.43,1.2,24,0.5,,,,,,,,,,,,,,,,,,0,28,28,23,1,,,,,,,,,,,,,,,,,,,,,,,
,,,,,V3_062,21,Female,2024-11-14_15h46.39.012,jersey_experiment_5_v3,2023.2.2,Win32,85.47008547,,,,,,,,,,,,,,,,715.5969,716.8908,716.8909,717.7965,return,0.0341,,67.83854167,,,,,,FBP-RB-91.png,0.4,1.2,58,0.5,,,,,,,,,,,,,,,,,,0,29,29,57,1,,,,,,,,,,,,,,,,,,,,,,,
,,,,,V3_062,21,Female,2024-11-14_15h46.39.012,jersey_experiment_5_v3,2023.2.2,Win32,85.47008547,,,,,,,,,,,,,,,,717.7968,719.0906,719.0907,720.385,return,0.072,,31.90104167,,,,,,FBP-PT-81.png,0.37,1.2,22,0.5,,,,,,,,,,,,,,,,,,0,30,30,21,1,,,,,,,,,,,,,,,,,,,,,,,
,,,,,V3_062,21,Female,2024-11-14_15h46.39.012,jersey_experiment_5_v3,2023.2.2,Win32,85.47008547,,,,,,,,,,,,,,,,720.3852,721.9379,721.938,722.9614,return,0.0942,,64.0625,,,,,,FBP-OG-71.png,0.4,1.2,33,0.75,,,,,,,,,,,,,,,,,,0,31,31,32,1,,,,,,,,,,,,,,,,,,,,,,,
,,,,,V3_062,21,Female,2024-11-14_15h46.39.012,jersey_experiment_5_v3,2023.2.2,Win32,85.47008547,,,,,,,,,,,,,,,,722.9616,724.2557,724.2557,725.0086,return,0.0369,,87.109375,,,,,,FBP-RB-81.png,0.45,1.2,55,0.5,,,,,,,,,,,,,,,,,,0,32,32,54,1,,,,,,,,,,,,,,,,,,,,,,,
,,,,,V3_062,21,Female,2024-11-14_15h46.39.012,jersey_experiment_5_v3,2023.2.2,Win32,85.47008547,,,,,,,,,,,,,,,,725.0089,726.5619,726.5619,727.1852,return,0.0331,,18.75,,,,,,FBP-OG-81.png,0.35,1.2,36,0.75,,,,,,,,,,,,,,,,,,0,33,33,35,1,,,,,,,,,,,,,,,,,,,,,,,
,,,,,V3_062,21,Female,2024-11-14_15h46.39.012,jersey_experiment_5_v3,2023.2.2,Win32,85.47008547,,,,,,,,,,,,,,,,727.1854,728.4794,728.4795,729.3617,return,0.0367,,57.03125,,,,,,FBP-PT-91.png,0.4,1.2,28,0.5,,,,,,,,,,,,,,,,,,0,34,34,27,1,,,,,,,,,,,,,,,,,,,,,,,
,,,,,V3_062,21,Female,2024-11-14_15h46.39.012,jersey_experiment_5_v3,2023.2.2,Win32,85.47008547,,,,,,,,,,,,,,,,729.362,730.656,730.656,731.2442,return,0.0178,,62.36979167,,,,,,FBP-PT-81.png,0.4,1.2,23,0.5,,,,,,,,,,,,,,,,,,0,35,35,22,1,,,,,,,,,,,,,,,,,,,,,,,
,,,,,V3_062,21,Female,2024-11-14_15h46.39.012,jersey_experiment_5_v3,2023.2.2,Win32,85.47008547,,,,,,,,,,,,,,,,731.2445,732.7972,732.7973,734.2208,return,0.5797,,33.46354167,,,,,,FBP-OG-71.png,0.37,1.2,32,0.75,,,,,,,,,,,,,,,,,,0,36,36,31,1,,,,,,,,,,,,,,,,,,,,,,,
,,,,,V3_062,21,Female,2024-11-14_15h46.39.012,jersey_experiment_5_v3,2023.2.2,Win32,85.47008547,,,,,,,,,,,,,,,,734.2212,735.5149,735.5149,736.3384,return,0.0325,,63.15104167,,,,,,FBP-RB-71.png,0.4,1.2,48,0.5,,,,,,,,,,,,,,,,,,0,37,37,47,1,,,,,,,,,,,,,,,,,,,,,,,
,,,,,V3_062,21,Female,2024-11-14_15h46.39.012,jersey_experiment_5_v3,2023.2.2,Win32,85.47008547,,,,,,,,,,,,,,,,736.3388,737.6326,737.6326,738.5622,return,0.0856,,50.13020833,,,,,,FBP-RB-71.png,0.37,1.2,47,0.5,,,,,,,,,,,,,,,,,,0,38,38,46,1,,,,,,,,,,,,,,,,,,,,,,,
,,,,,V3_062,21,Female,2024-11-14_15h46.39.012,jersey_experiment_5_v3,2023.2.2,Win32,85.47008547,,,,,,,,,,,,,,,,738.5625,739.8563,739.8563,740.5739,return,0.0986,,37.36979167,,,,,,FBP-YG-19.png,0.35,1.2,11,0.5,,,,,,,,,,,,,,,,,,0,39,39,10,1,,,,,,,,,,,,,,,,,,,,,,,
,,,,,V3_062,21,Female,2024-11-14_15h46.39.012,jersey_experiment_5_v3,2023.2.2,Win32,85.47008547,,,,,,,,,,,,,,,,740.5742,741.8682,741.8682,742.6446,return,0.0572,,84.11458333,,,,,,FBP-RB-91.png,0.43,1.2,59,0.5,,,,,,,,,,,,,,,,,,0,40,40,58,1,,,,,,,,,,,,,,,,,,,,,,,
,,,,,V3_062,21,Female,2024-11-14_15h46.39.012,jersey_experiment_5_v3,2023.2.2,Win32,85.47008547,,,,,,,,,,,,,,,,742.6448,744.1977,744.1977,744.9271,return,0.0741,,70.57291667,,,,,,FBP-OG-91.png,0.43,1.2,44,0.75,,,,,,,,,,,,,,,,,,0,41,41,43,1,,,,,,,,,,,,,,,,,,,,,,,
,,,,,V3_062,21,Female,2024-11-14_15h46.39.012,jersey_experiment_5_v3,2023.2.2,Win32,85.47008547,,,,,,,,,,,,,,,,744.9273,746.2211,746.2212,751.9978,return,1.4755,,53.64583333,,,,,,FBP-RB-81.png,0.37,1.2,52,0.5,,,,,,,,,,,,,,,,,,0,42,42,51,1,,,,,,,,,,,,,,,,,,,,,,,
,,,,,V3_062,21,Female,2024-11-14_15h46.39.012,jersey_experiment_5_v3,2023.2.2,Win32,85.47008547,,,,,,,,,,,,,,,,751.998,753.5507,753.5507,755.0099,return,0.6574,,31.11979167,,,,,,FBP-OG-81.png,0.37,1.2,37,0.75,,,,,,,,,,,,,,,,,,0,43,43,36,1,,,,,,,,,,,,,,,,,,,,,,,
,,,,,V3_062,21,Female,2024-11-14_15h46.39.012,jersey_experiment_5_v3,2023.2.2,Win32,85.47008547,,,,,,,,,,,,,,,,755.0101,756.3039,756.304,757.5038,return,0.0483,,78.515625,,,,,,FBP-RB-81.png,0.43,1.2,54,0.5,,,,,,,,,,,,,,,,,,0,44,44,53,1,,,,,,,,,,,,,,,,,,,,,,,
,,,,,V3_062,21,Female,2024-11-14_15h46.39.012,jersey_experiment_5_v3,2023.2.2,Win32,85.47008547,,,,,,,,,,,,,,,,757.504,758.798,758.798,760.2569,return,0.8863,,86.328125,,,,,,FBP-YG-17.png,0.43,1.2,4,0.5,,,,,,,,,,,,,,,,,,0,45,45,3,1,,,,,,,,,,,,,,,,,,,,,,,
,,,,,V3_062,21,Female,2024-11-14_15h46.39.012,jersey_experiment_5_v3,2023.2.2,Win32,85.47008547,,,,,,,,,,,,,,,,760.2571,761.5512,761.5512,762.5629,return,0.0613,,60.80729167,,,,,,FBP-PT-71.png,0.37,1.2,17,0.5,,,,,,,,,,,,,,,,,,0,46,46,16,1,,,,,,,,,,,,,,,,,,,,,,,
,,,,,V3_062,21,Female,2024-11-14_15h46.39.012,jersey_experiment_5_v3,2023.2.2,Win32,85.47008547,,,,,,,,,,,,,,,,762.5631,764.116,764.1161,764.8101,return,0.0409,,37.63020833,,,,,,FBP-OG-91.png,0.35,1.2,41,0.75,,,,,,,,,,,,,,,,,,0,47,47,40,1,,,,,,,,,,,,,,,,,,,,,,,
,,,,,V3_062,21,Female,2024-11-14_15h46.39.012,jersey_experiment_5_v3,2023.2.2,Win32,85.47008547,,,,,,,,,,,,,,,,764.8103,766.1041,766.1041,767.7868,return,0.8443,,55.59895833,,,,,,FBP-YG-17.png,0.4,1.2,3,0.5,,,,,,,,,,,,,,,,,,0,48,48,2,1,,,,,,,,,,,,,,,,,,,,,,,
,,,,,V3_062,21,Female,2024-11-14_15h46.39.012,jersey_experiment_5_v3,2023.2.2,Win32,85.47008547,,,,,,,,,,,,,,,,767.7871,769.0808,769.0808,770.4456,return,0.4964,,44.140625,,,,,,FBP-PT-91.png,0.37,1.2,27,0.5,,,,,,,,,,,,,,,,,,0,49,49,26,1,,,,,,,,,,,,,,,,,,,,,,,
,,,,,V3_062,21,Female,2024-11-14_15h46.39.012,jersey_experiment_5_v3,2023.2.2,Win32,85.47008547,,,,,,,,,,,,,,,,770.4457,771.9987,771.9987,772.6575,return,0.0472,,64.58333333,,,,,,FBP-OG-81.png,0.43,1.2,39,0.75,,,,,,,,,,,,,,,,,,0,50,50,38,1,,,,,,,,,,,,,,,,,,,,,,,
,,,,,V3_062,21,Female,2024-11-14_15h46.39.012,jersey_experiment_5_v3,2023.2.2,Win32,85.47008547,,,,,,,,,,,,,,,,772.6578,773.9515,773.9515,775.1988,return,0.3687,,73.828125,,,,,,FBP-PT-71.png,0.43,1.2,19,0.5,,,,,,,,,,,,,,,,,,0,51,51,18,1,,,,,,,,,,,,,,,,,,,,,,,
,,,,,V3_062,21,Female,2024-11-14_15h46.39.012,jersey_experiment_5_v3,2023.2.2,Win32,85.47008547,,,,,,,,,,,,,,,,775.1989,776.7518,776.7518,777.3752,return,0.1054,,83.203125,,,,,,FBP-OG-71.png,0.45,1.2,35,0.75,,,,,,,,,,,,,,,,,,0,52,52,34,1,,,,,,,,,,,,,,,,,,,,,,,
,,,,,V3_062,21,Female,2024-11-14_15h46.39.012,jersey_experiment_5_v3,2023.2.2,Win32,85.47008547,,,,,,,,,,,,,,,,777.3753,778.6695,778.6696,779.6105,return,0.0402,,32.29166667,,,,,,FBP-PT-91.png,0.35,1.2,26,0.5,,,,,,,,,,,,,,,,,,0,53,53,25,1,,,,,,,,,,,,,,,,,,,,,,,
,,,,,V3_062,21,Female,2024-11-14_15h46.39.012,jersey_experiment_5_v3,2023.2.2,Win32,85.47008547,,,,,,,,,,,,,,,,779.6106,781.152,781.152,782.1283,return,0.0597,,78.515625,,,,,,FBP-OG-91.png,0.45,1.2,45,0.75,,,,,,,,,,,,,,,,,,0,54,54,44,1,,,,,,,,,,,,,,,,,,,,,,,
,,,,,V3_062,21,Female,2024-11-14_15h46.39.012,jersey_experiment_5_v3,2023.2.2,Win32,85.47008547,,,,,,,,,,,,,,,,782.1285,783.4225,783.4225,784.2696,return,0.0518,,49.609375,,,,,,FBP-YG-17.png,0.37,1.2,2,0.5,,,,,,,,,,,,,,,,,,0,55,55,1,1,,,,,,,,,,,,,,,,,,,,,,,
,,,,,V3_062,21,Female,2024-11-14_15h46.39.012,jersey_experiment_5_v3,2023.2.2,Win32,85.47008547,,,,,,,,,,,,,,,,784.2697,785.5638,785.5638,786.8815,return,0.354,,66.015625,,,,,,FBP-YG-18.png,0.4,1.2,8,0.5,,,,,,,,,,,,,,,,,,0,56,56,7,1,,,,,,,,,,,,,,,,,,,,,,,
,,,,,V3_062,21,Female,2024-11-14_15h46.39.012,jersey_experiment_5_v3,2023.2.2,Win32,85.47008547,,,,,,,,,,,,,,,,786.8817,788.1757,788.1758,788.8933,return,0.0639,,33.46354167,,,,,,FBP-YG-18.png,0.35,1.2,6,0.5,,,,,,,,,,,,,,,,,,0,57,57,5,1,,,,,,,,,,,,,,,,,,,,,,,
,,,,,V3_062,21,Female,2024-11-14_15h46.39.012,jersey_experiment_5_v3,2023.2.2,Win32,85.47008547,,,,,,,,,,,,,,,,788.8934,790.4348,790.4348,791.1874,return,0.1528,,18.75,,,,,,FBP-OG-71.png,0.35,1.2,31,0.75,,,,,,,,,,,,,,,,,,0,58,58,30,1,,,,,,,,,,,,,,,,,,,,,,,
,,,,,V3_062,21,Female,2024-11-14_15h46.39.012,jersey_experiment_5_v3,2023.2.2,Win32,85.47008547,,,,,,,,,,,,,,,,791.1876,792.4817,792.4817,793.4582,return,0.1551,,61.84895833,,,,,,FBP-RB-71.png,0.43,1.2,49,0.5,,,,,,,,,,,,,,,,,,0,59,59,48,1,,,,,,,,,,,,,,,,,,,,,,,
,,,,,V3_062,21,Female,2024-11-14_15h46.39.012,jersey_experiment_5_v3,2023.2.2,Win32,85.47008547,,,,,,,,,,,,,,,,,,,,,,,,,,,,,,,,,,,,,,,,,,,,,,,,,,,,,,,,793.4583,796.9053,return,3.4438,,,,,,,,,,,,,,,,,,,
,,,,,V3_062,21,Female,2024-11-14_15h46.39.012,jersey_experiment_5_v3,2023.2.2,Win32,85.47008547,,,,,,,,,,,,,,,,,,,,,,,,,,,,,,,,,,,,,,,,,,,,,,,,,,,,,,,,,,,,,796.9053,800.8584,1,2.5277,return,1.4192,,,,,,,,,,,,
,,,,,V3_062,21,Female,2024-11-14_15h46.39.012,jersey_experiment_5_v3,2023.2.2,Win32,85.47008547,,,,,,,,,,,,,,,,,,,,,,,,,,,,,,,,,,,,,,,,,,,,,,,,,,,,,,,,,,,,,,,,,,,,800.8584,839.1309,Possibly to do with how colors affect how slender/husky someone looks?,right,26.3358,,,,,,
,,,,,V3_062,21,Female,2024-11-14_15h46.39.012,jersey_experiment_5_v3,2023.2.2,Win32,85.47008547,,,,,,,,,,,,,,,,,,,,,,,,,,,,,,,,,,,,,,,,,,,,,,,,,,,,,,,,,,,,,,,,,,,,,,,,,,839.131,840.8128,return,1.6744,