requirements.started,requirements.stopped,key_resp_3.keys,key_resp_3.rt,key_resp_3.duration,Subject ID,Age,Gender,date,expName,psychopyVersion,OS,frameRate,instructions1.started,instructions1.stopped,key_resp.keys,key_resp.rt,key_resp.duration,example.started,example.stopped,enter_2.keys,enter_2.rt,enter_2.duration,instructions2.started,instructions2.stopped,enter_3.keys,enter_3.rt,enter_3.duration,image.started,image.stopped,slider_2.started,slider_2.stopped,next.keys,next.rt,next.duration,slider.response,trial_block_1.thisRepN,trial_block_1.thisTrialN,trial_block_1.thisN,trial_block_1.thisIndex,trial_block_1.ran,Path,Width,Height,Index,Duration,trial_block_2.thisRepN,trial_block_2.thisTrialN,trial_block_2.thisN,trial_block_2.thisIndex,trial_block_2.ran,rest_break.started,rest_break.stopped,end_break.started,end_break.stopped,key_resp_5.keys,key_resp_5.rt,key_resp_5.duration,trial_block_3.thisRepN,trial_block_3.thisTrialN,trial_block_3.thisN,trial_block_3.thisIndex,trial_block_3.ran,trial_block_4.thisRepN,trial_block_4.thisTrialN,trial_block_4.thisN,trial_block_4.thisIndex,trial_block_4.ran,questions_intro.started,questions_intro.stopped,enter_12.keys,enter_12.rt,enter_12.duration,question2.started,question2.stopped,question_doingbest.response,question_doingbest.rt,enter_15.keys,enter_15.rt,enter_15.duration,pattern.started,pattern.stopped,pattern_2.text,enter_17.keys,enter_17.rt,enter_17.duration,thankyou.started,thankyou.stopped,enter_14.keys,enter_14.rt,enter_14.duration
0.0001,12.6555,return,12.6499,,V3_098,18,female,2025-02-04_13h58.04.739,jersey_experiment_5_v3,2023.2.2,Win32,84.03361345,,,,,,,,,,,,,,,,,,,,,,,,,,,,,,,,,,,,,,,,,,,,,,,,,,,,,,,,,,,,,,,,,,,,,,,,,,,,,,
,,,,,V3_098,18,female,2025-02-04_13h58.04.739,jersey_experiment_5_v3,2023.2.2,Win32,84.03361345,12.6557,14.1916,return,1.5205,,,,,,,,,,,,,,,,,,,,,,,,,,,,,,,,,,,,,,,,,,,,,,,,,,,,,,,,,,,,,,,,,,,,,,,,,,
,,,,,V3_098,18,female,2025-02-04_13h58.04.739,jersey_experiment_5_v3,2023.2.2,Win32,84.03361345,,,,,,14.1917,14.5762,return,0.3583,,,,,,,,,,,,,,,,,,,,,,,,,,,,,,,,,,,,,,,,,,,,,,,,,,,,,,,,,,,,,,,,,,,,,
,,,,,V3_098,18,female,2025-02-04_13h58.04.739,jersey_experiment_5_v3,2023.2.2,Win32,84.03361345,,,,,,,,,,,14.5763,55.1814,return,40.5922,,,,,,,,,,,,,,,,,,,,,,,,,,,,,,,,,,,,,,,,,,,,,,,,,,,,,,,,,,,,,,,,
,,,,,V3_098,18,female,2025-02-04_13h58.04.739,jersey_experiment_5_v3,2023.2.2,Win32,84.03361345,,,,,,,,,,,,,,,,55.1836,56.7278,56.7278,72.8225,return,4.5659,,24.86979167,0,0,0,55,1,FBP-RB-19.png,0.35,1.2,56,0.75,,,,,,,,,,,,,,,,,,,,,,,,,,,,,,,,,,,,,,,,,,,,,
,,,,,V3_098,18,female,2025-02-04_13h58.04.739,jersey_experiment_5_v3,2023.2.2,Win32,84.03361345,,,,,,,,,,,,,,,,72.8228,74.3753,74.3753,81.3168,return,2.4028,,50.13020833,0,1,1,52,1,FBP-RB-18.png,0.4,1.2,53,0.75,,,,,,,,,,,,,,,,,,,,,,,,,,,,,,,,,,,,,,,,,,,,,
,,,,,V3_098,18,female,2025-02-04_13h58.04.739,jersey_experiment_5_v3,2023.2.2,Win32,84.03361345,,,,,,,,,,,,,,,,81.317,82.8699,82.8699,90.6114,return,1.5572,,50.26041667,0,2,2,6,1,FBP-YG-81.png,0.37,1.2,7,0.75,,,,,,,,,,,,,,,,,,,,,,,,,,,,,,,,,,,,,,,,,,,,,
,,,,,V3_098,18,female,2025-02-04_13h58.04.739,jersey_experiment_5_v3,2023.2.2,Win32,84.03361345,,,,,,,,,,,,,,,,90.6115,92.1644,92.1645,97.2704,return,1.4445,,74.73958333,0,3,3,11,1,FBP-YG-91.png,0.37,1.2,12,0.75,,,,,,,,,,,,,,,,,,,,,,,,,,,,,,,,,,,,,,,,,,,,,
,,,,,V3_098,18,female,2025-02-04_13h58.04.739,jersey_experiment_5_v3,2023.2.2,Win32,84.03361345,,,,,,,,,,,,,,,,97.2708,98.5645,98.5646,113.6475,return,1.3573,,62.76041667,0,4,4,36,1,FBP-OG-18.png,0.37,1.2,37,0.5,,,,,,,,,,,,,,,,,,,,,,,,,,,,,,,,,,,,,,,,,,,,,
,,,,,V3_098,18,female,2025-02-04_13h58.04.739,jersey_experiment_5_v3,2023.2.2,Win32,84.03361345,,,,,,,,,,,,,,,,113.6478,114.9417,114.9418,120.4478,return,1.1491,,75,0,5,5,37,1,FBP-OG-18.png,0.4,1.2,38,0.5,,,,,,,,,,,,,,,,,,,,,,,,,,,,,,,,,,,,,,,,,,,,,
,,,,,V3_098,18,female,2025-02-04_13h58.04.739,jersey_experiment_5_v3,2023.2.2,Win32,84.03361345,,,,,,,,,,,,,,,,120.4481,122.0009,122.0009,126.6244,return,1.3801,,99.609375,0,6,6,24,1,FBP-PT-18.png,0.45,1.2,25,0.75,,,,,,,,,,,,,,,,,,,,,,,,,,,,,,,,,,,,,,,,,,,,,
,,,,,V3_098,18,female,2025-02-04_13h58.04.739,jersey_experiment_5_v3,2023.2.2,Win32,84.03361345,,,,,,,,,,,,,,,,126.6247,128.1775,128.1776,137.2837,return,4.412,,15.88541667,0,7,7,50,1,FBP-RB-18.png,0.35,1.2,51,0.75,,,,,,,,,,,,,,,,,,,,,,,,,,,,,,,,,,,,,,,,,,,,,
,,,,,V3_098,18,female,2025-02-04_13h58.04.739,jersey_experiment_5_v3,2023.2.2,Win32,84.03361345,,,,,,,,,,,,,,,,137.284,138.8367,138.8367,142.6486,return,1.1861,,75.13020833,0,8,8,22,1,FBP-PT-18.png,0.4,1.2,23,0.75,,,,,,,,,,,,,,,,,,,,,,,,,,,,,,,,,,,,,,,,,,,,,
,,,,,V3_098,18,female,2025-02-04_13h58.04.739,jersey_experiment_5_v3,2023.2.2,Win32,84.03361345,,,,,,,,,,,,,,,,142.6489,144.2016,144.2017,147.6959,return,1.1254,,63.54166667,0,9,9,25,1,FBP-PT-19.png,0.35,1.2,26,0.75,,,,,,,,,,,,,,,,,,,,,,,,,,,,,,,,,,,,,,,,,,,,,
,,,,,V3_098,18,female,2025-02-04_13h58.04.739,jersey_experiment_5_v3,2023.2.2,Win32,84.03361345,,,,,,,,,,,,,,,,147.6962,149.2488,149.2488,153.096,return,1.6321,,98.95833333,0,10,10,23,1,FBP-PT-18.png,0.43,1.2,24,0.75,,,,,,,,,,,,,,,,,,,,,,,,,,,,,,,,,,,,,,,,,,,,,
,,,,,V3_098,18,female,2025-02-04_13h58.04.739,jersey_experiment_5_v3,2023.2.2,Win32,84.03361345,,,,,,,,,,,,,,,,153.0964,154.6491,154.6491,162.2963,return,4.3375,,99.73958333,0,11,11,9,1,FBP-YG-81.png,0.45,1.2,10,0.75,,,,,,,,,,,,,,,,,,,,,,,,,,,,,,,,,,,,,,,,,,,,,
,,,,,V3_098,18,female,2025-02-04_13h58.04.739,jersey_experiment_5_v3,2023.2.2,Win32,84.03361345,,,,,,,,,,,,,,,,162.2966,163.8494,163.8495,167.8024,return,0.7873,,99.34895833,0,12,12,17,1,FBP-PT-17.png,0.4,1.2,18,0.75,,,,,,,,,,,,,,,,,,,,,,,,,,,,,,,,,,,,,,,,,,,,,
,,,,,V3_098,18,female,2025-02-04_13h58.04.739,jersey_experiment_5_v3,2023.2.2,Win32,84.03361345,,,,,,,,,,,,,,,,167.8026,169.0967,169.0967,172.2969,return,0.9722,,74.34895833,0,13,13,41,1,FBP-OG-19.png,0.37,1.2,42,0.5,,,,,,,,,,,,,,,,,,,,,,,,,,,,,,,,,,,,,,,,,,,,,
,,,,,V3_098,18,female,2025-02-04_13h58.04.739,jersey_experiment_5_v3,2023.2.2,Win32,84.03361345,,,,,,,,,,,,,,,,172.2971,173.591,173.591,177.2971,return,1.1114,,99.21875,0,14,14,34,1,FBP-OG-17.png,0.45,1.2,35,0.5,,,,,,,,,,,,,,,,,,,,,,,,,,,,,,,,,,,,,,,,,,,,,
,,,,,V3_098,18,female,2025-02-04_13h58.04.739,jersey_experiment_5_v3,2023.2.2,Win32,84.03361345,,,,,,,,,,,,,,,,177.2973,178.8499,178.85,183.7913,return,1.0557,,99.73958333,0,15,15,58,1,FBP-RB-19.png,0.43,1.2,59,0.75,,,,,,,,,,,,,,,,,,,,,,,,,,,,,,,,,,,,,,,,,,,,,
,,,,,V3_098,18,female,2025-02-04_13h58.04.739,jersey_experiment_5_v3,2023.2.2,Win32,84.03361345,,,,,,,,,,,,,,,,183.7915,185.3443,185.3443,190.0386,return,2.1893,,99.73958333,0,16,16,4,1,FBP-YG-71.png,0.45,1.2,5,0.75,,,,,,,,,,,,,,,,,,,,,,,,,,,,,,,,,,,,,,,,,,,,,
,,,,,V3_098,18,female,2025-02-04_13h58.04.739,jersey_experiment_5_v3,2023.2.2,Win32,84.03361345,,,,,,,,,,,,,,,,190.0389,191.5916,191.5916,197.0978,return,2.5268,,7.682291667,0,17,17,45,1,FBP-RB-17.png,0.35,1.2,46,0.75,,,,,,,,,,,,,,,,,,,,,,,,,,,,,,,,,,,,,,,,,,,,,
,,,,,V3_098,18,female,2025-02-04_13h58.04.739,jersey_experiment_5_v3,2023.2.2,Win32,84.03361345,,,,,,,,,,,,,,,,197.0979,198.6508,198.6508,202.7214,return,1.5666,,49.609375,0,18,18,57,1,FBP-RB-19.png,0.4,1.2,58,0.75,,,,,,,,,,,,,,,,,,,,,,,,,,,,,,,,,,,,,,,,,,,,,
,,,,,V3_098,18,female,2025-02-04_13h58.04.739,jersey_experiment_5_v3,2023.2.2,Win32,84.03361345,,,,,,,,,,,,,,,,202.7217,204.2744,204.2744,208.0628,return,1.2413,,49.609375,0,19,19,10,1,FBP-YG-91.png,0.35,1.2,11,0.75,,,,,,,,,,,,,,,,,,,,,,,,,,,,,,,,,,,,,,,,,,,,,
,,,,,V3_098,18,female,2025-02-04_13h58.04.739,jersey_experiment_5_v3,2023.2.2,Win32,84.03361345,,,,,,,,,,,,,,,,208.063,209.6158,209.6159,213.1219,return,1.4879,,72.52604167,0,20,20,2,1,FBP-YG-71.png,0.4,1.2,3,0.75,,,,,,,,,,,,,,,,,,,,,,,,,,,,,,,,,,,,,,,,,,,,,
,,,,,V3_098,18,female,2025-02-04_13h58.04.739,jersey_experiment_5_v3,2023.2.2,Win32,84.03361345,,,,,,,,,,,,,,,,213.122,214.4161,214.4161,218.228,return,1.0239,,99.34895833,0,21,21,38,1,FBP-OG-18.png,0.43,1.2,39,0.5,,,,,,,,,,,,,,,,,,,,,,,,,,,,,,,,,,,,,,,,,,,,,
,,,,,V3_098,18,female,2025-02-04_13h58.04.739,jersey_experiment_5_v3,2023.2.2,Win32,84.03361345,,,,,,,,,,,,,,,,218.2282,219.7809,219.7809,225.8754,return,4.3896,,99.47916667,0,22,22,48,1,FBP-RB-17.png,0.43,1.2,49,0.75,,,,,,,,,,,,,,,,,,,,,,,,,,,,,,,,,,,,,,,,,,,,,
,,,,,V3_098,18,female,2025-02-04_13h58.04.739,jersey_experiment_5_v3,2023.2.2,Win32,84.03361345,,,,,,,,,,,,,,,,225.8757,227.1695,227.1696,234.064,return,3.4048,,37.63020833,0,23,23,40,1,FBP-OG-19.png,0.35,1.2,41,0.5,,,,,,,,,,,,,,,,,,,,,,,,,,,,,,,,,,,,,,,,,,,,,
,,,,,V3_098,18,female,2025-02-04_13h58.04.739,jersey_experiment_5_v3,2023.2.2,Win32,84.03361345,,,,,,,,,,,,,,,,234.0643,235.358,235.3581,238.7699,return,0.9234,,70.57291667,0,24,24,42,1,FBP-OG-19.png,0.4,1.2,43,0.5,,,,,,,,,,,,,,,,,,,,,,,,,,,,,,,,,,,,,,,,,,,,,
,,,,,V3_098,18,female,2025-02-04_13h58.04.739,jersey_experiment_5_v3,2023.2.2,Win32,84.03361345,,,,,,,,,,,,,,,,238.7702,240.3229,240.3229,243.8173,return,1.2393,,98.4375,0,25,25,3,1,FBP-YG-71.png,0.43,1.2,4,0.75,,,,,,,,,,,,,,,,,,,,,,,,,,,,,,,,,,,,,,,,,,,,,
,,,,,V3_098,18,female,2025-02-04_13h58.04.739,jersey_experiment_5_v3,2023.2.2,Win32,84.03361345,,,,,,,,,,,,,,,,243.8175,245.1114,245.1114,248.5939,return,1.4764,,99.47916667,0,26,26,39,1,FBP-OG-18.png,0.45,1.2,40,0.5,,,,,,,,,,,,,,,,,,,,,,,,,,,,,,,,,,,,,,,,,,,,,
,,,,,V3_098,18,female,2025-02-04_13h58.04.739,jersey_experiment_5_v3,2023.2.2,Win32,84.03361345,,,,,,,,,,,,,,,,248.5942,250.1469,250.147,253.7352,return,1.1865,,74.86979167,0,27,27,12,1,FBP-YG-91.png,0.4,1.2,13,0.75,,,,,,,,,,,,,,,,,,,,,,,,,,,,,,,,,,,,,,,,,,,,,
,,,,,V3_098,18,female,2025-02-04_13h58.04.739,jersey_experiment_5_v3,2023.2.2,Win32,84.03361345,,,,,,,,,,,,,,,,253.7355,255.0294,255.0294,258.5119,return,1.0432,,73.4375,0,28,28,31,1,FBP-OG-17.png,0.37,1.2,32,0.5,,,,,,,,,,,,,,,,,,,,,,,,,,,,,,,,,,,,,,,,,,,,,
,,,,,V3_098,18,female,2025-02-04_13h58.04.739,jersey_experiment_5_v3,2023.2.2,Win32,84.03361345,,,,,,,,,,,,,,,,258.5122,260.0648,260.0649,263.7473,return,0.9889,,49.86979167,0,29,29,20,1,FBP-PT-18.png,0.35,1.2,21,0.75,,,,,,,,,,,,,,,,,,,,,,,,,,,,,,,,,,,,,,,,,,,,,
,,,,,V3_098,18,female,2025-02-04_13h58.04.739,jersey_experiment_5_v3,2023.2.2,Win32,84.03361345,,,,,,,,,,,,,,,,263.7475,265.3005,265.3005,269.7007,return,2.5794,,49.86979167,0,30,30,46,1,FBP-RB-17.png,0.37,1.2,47,0.75,,,,,,,,,,,,,,,,,,,,,,,,,,,,,,,,,,,,,,,,,,,,,
,,,,,V3_098,18,female,2025-02-04_13h58.04.739,jersey_experiment_5_v3,2023.2.2,Win32,84.03361345,,,,,,,,,,,,,,,,269.7009,271.2534,271.2534,277.2067,return,1.6858,,64.19270833,0,31,31,21,1,FBP-PT-18.png,0.37,1.2,22,0.75,,,,,,,,,,,,,,,,,,,,,,,,,,,,,,,,,,,,,,,,,,,,,
,,,,,V3_098,18,female,2025-02-04_13h58.04.739,jersey_experiment_5_v3,2023.2.2,Win32,84.03361345,,,,,,,,,,,,,,,,277.2071,278.5008,278.5009,284.407,return,2.8476,,49.86979167,0,32,32,30,1,FBP-OG-17.png,0.35,1.2,31,0.5,,,,,,,,,,,,,,,,,,,,,,,,,,,,,,,,,,,,,,,,,,,,,
,,,,,V3_098,18,female,2025-02-04_13h58.04.739,jersey_experiment_5_v3,2023.2.2,Win32,84.03361345,,,,,,,,,,,,,,,,284.4072,285.7012,285.7012,290.1601,return,2.1093,,92.44791667,0,33,33,43,1,FBP-OG-19.png,0.43,1.2,44,0.5,,,,,,,,,,,,,,,,,,,,,,,,,,,,,,,,,,,,,,,,,,,,,
,,,,,V3_098,18,female,2025-02-04_13h58.04.739,jersey_experiment_5_v3,2023.2.2,Win32,84.03361345,,,,,,,,,,,,,,,,290.1603,291.4542,291.4543,295.4074,return,1.8437,,99.86979167,0,34,34,44,1,FBP-OG-19.png,0.45,1.2,45,0.5,,,,,,,,,,,,,,,,,,,,,,,,,,,,,,,,,,,,,,,,,,,,,
,,,,,V3_098,18,female,2025-02-04_13h58.04.739,jersey_experiment_5_v3,2023.2.2,Win32,84.03361345,,,,,,,,,,,,,,,,295.4077,296.7015,296.7016,303.2899,return,1.0355,,86.19791667,0,35,35,33,1,FBP-OG-17.png,0.43,1.2,34,0.5,,,,,,,,,,,,,,,,,,,,,,,,,,,,,,,,,,,,,,,,,,,,,
,,,,,V3_098,18,female,2025-02-04_13h58.04.739,jersey_experiment_5_v3,2023.2.2,Win32,84.03361345,,,,,,,,,,,,,,,,303.2902,304.843,304.843,309.5255,return,2.214,,99.73958333,0,36,36,29,1,FBP-PT-19.png,0.45,1.2,30,0.75,,,,,,,,,,,,,,,,,,,,,,,,,,,,,,,,,,,,,,,,,,,,,
,,,,,V3_098,18,female,2025-02-04_13h58.04.739,jersey_experiment_5_v3,2023.2.2,Win32,84.03361345,,,,,,,,,,,,,,,,309.5257,311.0785,311.0785,315.3846,return,1.5146,,74.34895833,0,37,37,53,1,FBP-RB-18.png,0.43,1.2,54,0.75,,,,,,,,,,,,,,,,,,,,,,,,,,,,,,,,,,,,,,,,,,,,,
,,,,,V3_098,18,female,2025-02-04_13h58.04.739,jersey_experiment_5_v3,2023.2.2,Win32,84.03361345,,,,,,,,,,,,,,,,315.3849,316.6788,316.6788,324.9027,return,0.9188,,73.828125,0,38,38,32,1,FBP-OG-17.png,0.4,1.2,33,0.5,,,,,,,,,,,,,,,,,,,,,,,,,,,,,,,,,,,,,,,,,,,,,
,,,,,V3_098,18,female,2025-02-04_13h58.04.739,jersey_experiment_5_v3,2023.2.2,Win32,84.03361345,,,,,,,,,,,,,,,,324.903,326.4557,326.4557,330.5028,return,1.2028,,85.41666667,0,39,39,59,1,FBP-RB-19.png,0.45,1.2,60,0.75,,,,,,,,,,,,,,,,,,,,,,,,,,,,,,,,,,,,,,,,,,,,,
,,,,,V3_098,18,female,2025-02-04_13h58.04.739,jersey_experiment_5_v3,2023.2.2,Win32,84.03361345,,,,,,,,,,,,,,,,330.503,332.0559,332.0559,335.1028,return,0.866,,91.40625,0,40,40,13,1,FBP-YG-91.png,0.43,1.2,14,0.75,,,,,,,,,,,,,,,,,,,,,,,,,,,,,,,,,,,,,,,,,,,,,
,,,,,V3_098,18,female,2025-02-04_13h58.04.739,jersey_experiment_5_v3,2023.2.2,Win32,84.03361345,,,,,,,,,,,,,,,,335.1031,336.6559,336.6559,342.4796,return,3.5351,,74.86979167,0,41,41,28,1,FBP-PT-19.png,0.43,1.2,29,0.75,,,,,,,,,,,,,,,,,,,,,,,,,,,,,,,,,,,,,,,,,,,,,
,,,,,V3_098,18,female,2025-02-04_13h58.04.739,jersey_experiment_5_v3,2023.2.2,Win32,84.03361345,,,,,,,,,,,,,,,,342.4799,344.0328,344.0328,350.3035,return,3.1377,,74.86979167,0,42,42,1,1,FBP-YG-71.png,0.37,1.2,2,0.75,,,,,,,,,,,,,,,,,,,,,,,,,,,,,,,,,,,,,,,,,,,,,
,,,,,V3_098,18,female,2025-02-04_13h58.04.739,jersey_experiment_5_v3,2023.2.2,Win32,84.03361345,,,,,,,,,,,,,,,,350.3037,351.8565,351.8566,356.7274,return,2.0796,,91.796875,0,43,43,18,1,FBP-PT-17.png,0.43,1.2,19,0.75,,,,,,,,,,,,,,,,,,,,,,,,,,,,,,,,,,,,,,,,,,,,,
,,,,,V3_098,18,female,2025-02-04_13h58.04.739,jersey_experiment_5_v3,2023.2.2,Win32,84.03361345,,,,,,,,,,,,,,,,356.7277,358.0215,358.0216,362.304,return,1.6417,,64.0625,0,44,44,35,1,FBP-OG-18.png,0.35,1.2,36,0.5,,,,,,,,,,,,,,,,,,,,,,,,,,,,,,,,,,,,,,,,,,,,,
,,,,,V3_098,18,female,2025-02-04_13h58.04.739,jersey_experiment_5_v3,2023.2.2,Win32,84.03361345,,,,,,,,,,,,,,,,362.3043,363.857,363.8571,368.8337,return,2.9354,,64.0625,0,45,45,26,1,FBP-PT-19.png,0.37,1.2,27,0.75,,,,,,,,,,,,,,,,,,,,,,,,,,,,,,,,,,,,,,,,,,,,,
,,,,,V3_098,18,female,2025-02-04_13h58.04.739,jersey_experiment_5_v3,2023.2.2,Win32,84.03361345,,,,,,,,,,,,,,,,368.8339,370.3868,370.3868,375.5868,return,1.0282,,50.52083333,0,46,46,16,1,FBP-PT-17.png,0.37,1.2,17,0.75,,,,,,,,,,,,,,,,,,,,,,,,,,,,,,,,,,,,,,,,,,,,,
,,,,,V3_098,18,female,2025-02-04_13h58.04.739,jersey_experiment_5_v3,2023.2.2,Win32,84.03361345,,,,,,,,,,,,,,,,375.5871,377.1399,377.1399,381.493,return,1.2622,,36.97916667,0,47,47,0,1,FBP-YG-71.png,0.35,1.2,1,0.75,,,,,,,,,,,,,,,,,,,,,,,,,,,,,,,,,,,,,,,,,,,,,
,,,,,V3_098,18,female,2025-02-04_13h58.04.739,jersey_experiment_5_v3,2023.2.2,Win32,84.03361345,,,,,,,,,,,,,,,,381.4933,383.0461,383.0461,387.5404,return,2.165,,82.94270833,0,48,48,49,1,FBP-RB-17.png,0.45,1.2,50,0.75,,,,,,,,,,,,,,,,,,,,,,,,,,,,,,,,,,,,,,,,,,,,,
,,,,,V3_098,18,female,2025-02-04_13h58.04.739,jersey_experiment_5_v3,2023.2.2,Win32,84.03361345,,,,,,,,,,,,,,,,387.5406,389.0933,389.0933,393.0582,return,1.0641,,49.86979167,0,49,49,5,1,FBP-YG-81.png,0.35,1.2,6,0.75,,,,,,,,,,,,,,,,,,,,,,,,,,,,,,,,,,,,,,,,,,,,,
,,,,,V3_098,18,female,2025-02-04_13h58.04.739,jersey_experiment_5_v3,2023.2.2,Win32,84.03361345,,,,,,,,,,,,,,,,393.0584,394.6111,394.6112,399.9526,return,1.5218,,93.48958333,0,50,50,14,1,FBP-YG-91.png,0.45,1.2,15,0.75,,,,,,,,,,,,,,,,,,,,,,,,,,,,,,,,,,,,,,,,,,,,,
,,,,,V3_098,18,female,2025-02-04_13h58.04.739,jersey_experiment_5_v3,2023.2.2,Win32,84.03361345,,,,,,,,,,,,,,,,399.9528,401.5054,401.5055,405.4937,return,1.4261,,75,0,51,51,56,1,FBP-RB-19.png,0.37,1.2,57,0.75,,,,,,,,,,,,,,,,,,,,,,,,,,,,,,,,,,,,,,,,,,,,,
,,,,,V3_098,18,female,2025-02-04_13h58.04.739,jersey_experiment_5_v3,2023.2.2,Win32,84.03361345,,,,,,,,,,,,,,,,405.4939,407.0351,407.0351,412.2,return,1.7555,,75,0,52,52,47,1,FBP-RB-17.png,0.4,1.2,48,0.75,,,,,,,,,,,,,,,,,,,,,,,,,,,,,,,,,,,,,,,,,,,,,
,,,,,V3_098,18,female,2025-02-04_13h58.04.739,jersey_experiment_5_v3,2023.2.2,Win32,84.03361345,,,,,,,,,,,,,,,,412.2002,413.753,413.753,421.9534,return,1.8269,,75,0,53,53,15,1,FBP-PT-17.png,0.35,1.2,16,0.75,,,,,,,,,,,,,,,,,,,,,,,,,,,,,,,,,,,,,,,,,,,,,
,,,,,V3_098,18,female,2025-02-04_13h58.04.739,jersey_experiment_5_v3,2023.2.2,Win32,84.03361345,,,,,,,,,,,,,,,,421.9537,423.5063,423.5063,427.4712,return,1.4666,,95.83333333,0,54,54,7,1,FBP-YG-81.png,0.4,1.2,8,0.75,,,,,,,,,,,,,,,,,,,,,,,,,,,,,,,,,,,,,,,,,,,,,
,,,,,V3_098,18,female,2025-02-04_13h58.04.739,jersey_experiment_5_v3,2023.2.2,Win32,84.03361345,,,,,,,,,,,,,,,,427.4715,429.0242,429.0243,432.7302,return,1.138,,23.828125,0,55,55,51,1,FBP-RB-18.png,0.37,1.2,52,0.75,,,,,,,,,,,,,,,,,,,,,,,,,,,,,,,,,,,,,,,,,,,,,
,,,,,V3_098,18,female,2025-02-04_13h58.04.739,jersey_experiment_5_v3,2023.2.2,Win32,84.03361345,,,,,,,,,,,,,,,,432.7304,434.2832,434.2832,437.801,return,1.4368,,99.47916667,0,56,56,54,1,FBP-RB-18.png,0.45,1.2,55,0.75,,,,,,,,,,,,,,,,,,,,,,,,,,,,,,,,,,,,,,,,,,,,,
,,,,,V3_098,18,female,2025-02-04_13h58.04.739,jersey_experiment_5_v3,2023.2.2,Win32,84.03361345,,,,,,,,,,,,,,,,437.8012,439.3429,439.343,444.5542,return,2.4383,,91.796875,0,57,57,8,1,FBP-YG-81.png,0.43,1.2,9,0.75,,,,,,,,,,,,,,,,,,,,,,,,,,,,,,,,,,,,,,,,,,,,,
,,,,,V3_098,18,female,2025-02-04_13h58.04.739,jersey_experiment_5_v3,2023.2.2,Win32,84.03361345,,,,,,,,,,,,,,,,444.5544,446.1073,446.1073,450.2487,return,1.0579,,99.47916667,0,58,58,19,1,FBP-PT-17.png,0.45,1.2,20,0.75,,,,,,,,,,,,,,,,,,,,,,,,,,,,,,,,,,,,,,,,,,,,,
,,,,,V3_098,18,female,2025-02-04_13h58.04.739,jersey_experiment_5_v3,2023.2.2,Win32,84.03361345,,,,,,,,,,,,,,,,450.2489,451.8016,451.8016,455.6723,return,1.5855,,87.109375,0,59,59,27,1,FBP-PT-19.png,0.4,1.2,28,0.75,,,,,,,,,,,,,,,,,,,,,,,,,,,,,,,,,,,,,,,,,,,,,
,,,,,V3_098,18,female,2025-02-04_13h58.04.739,jersey_experiment_5_v3,2023.2.2,Win32,84.03361345,,,,,,,,,,,,,,,,455.6745,456.9666,456.9666,460.8019,return,0.9703,,98.046875,,,,,,FBP-OG-81.png,0.43,1.2,39,0.5,0,0,0,38,1,,,,,,,,,,,,,,,,,,,,,,,,,,,,,,,,,,,,,,,,
,,,,,V3_098,18,female,2025-02-04_13h58.04.739,jersey_experiment_5_v3,2023.2.2,Win32,84.03361345,,,,,,,,,,,,,,,,460.8022,462.3549,462.3549,465.7668,return,0.8797,,50.13020833,,,,,,FBP-YG-18.png,0.37,1.2,7,0.75,0,1,1,6,1,,,,,,,,,,,,,,,,,,,,,,,,,,,,,,,,,,,,,,,,
,,,,,V3_098,18,female,2025-02-04_13h58.04.739,jersey_experiment_5_v3,2023.2.2,Win32,84.03361345,,,,,,,,,,,,,,,,465.7671,467.3198,467.3198,471.9554,return,0.9457,,76.43229167,,,,,,FBP-YG-19.png,0.4,1.2,13,0.75,0,2,2,12,1,,,,,,,,,,,,,,,,,,,,,,,,,,,,,,,,,,,,,,,,
,,,,,V3_098,18,female,2025-02-04_13h58.04.739,jersey_experiment_5_v3,2023.2.2,Win32,84.03361345,,,,,,,,,,,,,,,,471.9557,473.5083,473.5084,476.5202,return,0.9646,,49.34895833,,,,,,FBP-PT-91.png,0.35,1.2,26,0.75,0,3,3,25,1,,,,,,,,,,,,,,,,,,,,,,,,,,,,,,,,,,,,,,,,
,,,,,V3_098,18,female,2025-02-04_13h58.04.739,jersey_experiment_5_v3,2023.2.2,Win32,84.03361345,,,,,,,,,,,,,,,,476.5204,478.0732,478.0733,482.0498,return,1.3355,,24.73958333,,,,,,FBP-YG-18.png,0.35,1.2,6,0.75,0,4,4,5,1,,,,,,,,,,,,,,,,,,,,,,,,,,,,,,,,,,,,,,,,
,,,,,V3_098,18,female,2025-02-04_13h58.04.739,jersey_experiment_5_v3,2023.2.2,Win32,84.03361345,,,,,,,,,,,,,,,,482.05,483.6029,483.603,488.7912,return,1.656,,11.328125,,,,,,FBP-YG-17.png,0.35,1.2,1,0.75,0,5,5,0,1,,,,,,,,,,,,,,,,,,,,,,,,,,,,,,,,,,,,,,,,
,,,,,V3_098,18,female,2025-02-04_13h58.04.739,jersey_experiment_5_v3,2023.2.2,Win32,84.03361345,,,,,,,,,,,,,,,,488.7915,490.0853,490.0854,495.6856,return,1.705,,75,,,,,,FBP-OG-71.png,0.43,1.2,34,0.5,0,6,6,33,1,,,,,,,,,,,,,,,,,,,,,,,,,,,,,,,,,,,,,,,,
,,,,,V3_098,18,female,2025-02-04_13h58.04.739,jersey_experiment_5_v3,2023.2.2,Win32,84.03361345,,,,,,,,,,,,,,,,495.6858,497.2386,497.2386,501.6741,return,1.1452,,83.07291667,,,,,,FBP-PT-71.png,0.43,1.2,19,0.75,0,7,7,18,1,,,,,,,,,,,,,,,,,,,,,,,,,,,,,,,,,,,,,,,,
,,,,,V3_098,18,female,2025-02-04_13h58.04.739,jersey_experiment_5_v3,2023.2.2,Win32,84.03361345,,,,,,,,,,,,,,,,501.6744,503.2271,503.2271,506.8861,return,1.1076,,61.328125,,,,,,FBP-PT-71.png,0.4,1.2,18,0.75,0,8,8,17,1,,,,,,,,,,,,,,,,,,,,,,,,,,,,,,,,,,,,,,,,
,,,,,V3_098,18,female,2025-02-04_13h58.04.739,jersey_experiment_5_v3,2023.2.2,Win32,84.03361345,,,,,,,,,,,,,,,,506.8863,508.4389,508.4391,512.451,return,1.0141,,25.26041667,,,,,,FBP-RB-91.png,0.35,1.2,56,0.75,0,9,9,55,1,,,,,,,,,,,,,,,,,,,,,,,,,,,,,,,,,,,,,,,,
,,,,,V3_098,18,female,2025-02-04_13h58.04.739,jersey_experiment_5_v3,2023.2.2,Win32,84.03361345,,,,,,,,,,,,,,,,512.4513,514.004,514.0041,517.5452,return,1.3884,,75,,,,,,FBP-RB-81.png,0.43,1.2,54,0.75,0,10,10,53,1,,,,,,,,,,,,,,,,,,,,,,,,,,,,,,,,,,,,,,,,
,,,,,V3_098,18,female,2025-02-04_13h58.04.739,jersey_experiment_5_v3,2023.2.2,Win32,84.03361345,,,,,,,,,,,,,,,,517.5455,519.0983,519.0984,523.4749,return,2.202,,75,,,,,,FBP-RB-91.png,0.4,1.2,58,0.75,0,11,11,57,1,,,,,,,,,,,,,,,,,,,,,,,,,,,,,,,,,,,,,,,,
,,,,,V3_098,18,female,2025-02-04_13h58.04.739,jersey_experiment_5_v3,2023.2.2,Win32,84.03361345,,,,,,,,,,,,,,,,523.4752,525.0279,525.028,529.8282,return,2.2243,,98.828125,,,,,,FBP-PT-91.png,0.45,1.2,30,0.75,0,12,12,29,1,,,,,,,,,,,,,,,,,,,,,,,,,,,,,,,,,,,,,,,,
,,,,,V3_098,18,female,2025-02-04_13h58.04.739,jersey_experiment_5_v3,2023.2.2,Win32,84.03361345,,,,,,,,,,,,,,,,529.8283,531.1223,531.1223,542.3933,return,1.0677,,0.78125,,,,,,FBP-OG-81.png,0.35,1.2,36,0.5,0,13,13,35,1,,,,,,,,,,,,,,,,,,,,,,,,,,,,,,,,,,,,,,,,
,,,,,V3_098,18,female,2025-02-04_13h58.04.739,jersey_experiment_5_v3,2023.2.2,Win32,84.03361345,,,,,,,,,,,,,,,,542.3935,543.9467,543.9467,546.9816,return,1.2353,,74.08854167,,,,,,FBP-RB-91.png,0.45,1.2,60,0.75,0,14,14,59,1,,,,,,,,,,,,,,,,,,,,,,,,,,,,,,,,,,,,,,,,
,,,,,V3_098,18,female,2025-02-04_13h58.04.739,jersey_experiment_5_v3,2023.2.2,Win32,84.03361345,,,,,,,,,,,,,,,,546.9819,548.2758,548.2758,551.8173,return,1.1215,,74.08854167,,,,,,FBP-OG-91.png,0.4,1.2,43,0.5,0,15,15,42,1,,,,,,,,,,,,,,,,,,,,,,,,,,,,,,,,,,,,,,,,
,,,,,V3_098,18,female,2025-02-04_13h58.04.739,jersey_experiment_5_v3,2023.2.2,Win32,84.03361345,,,,,,,,,,,,,,,,551.8175,553.3701,553.3702,556.7233,return,1.0249,,50,,,,,,FBP-YG-17.png,0.37,1.2,2,0.75,0,16,16,1,1,,,,,,,,,,,,,,,,,,,,,,,,,,,,,,,,,,,,,,,,
,,,,,V3_098,18,female,2025-02-04_13h58.04.739,jersey_experiment_5_v3,2023.2.2,Win32,84.03361345,,,,,,,,,,,,,,,,556.7236,558.2763,558.2763,562.1823,return,1.0603,,74.609375,,,,,,FBP-YG-17.png,0.4,1.2,3,0.75,0,17,17,2,1,,,,,,,,,,,,,,,,,,,,,,,,,,,,,,,,,,,,,,,,
,,,,,V3_098,18,female,2025-02-04_13h58.04.739,jersey_experiment_5_v3,2023.2.2,Win32,84.03361345,,,,,,,,,,,,,,,,562.1826,563.7352,563.7352,569.0179,return,2.9813,,98.95833333,,,,,,FBP-YG-17.png,0.43,1.2,4,0.75,0,18,18,3,1,,,,,,,,,,,,,,,,,,,,,,,,,,,,,,,,,,,,,,,,
,,,,,V3_098,18,female,2025-02-04_13h58.04.739,jersey_experiment_5_v3,2023.2.2,Win32,84.03361345,,,,,,,,,,,,,,,,569.0181,570.5708,570.5708,574.8887,return,1.7278,,99.34895833,,,,,,FBP-PT-91.png,0.43,1.2,29,0.75,0,19,19,28,1,,,,,,,,,,,,,,,,,,,,,,,,,,,,,,,,,,,,,,,,
,,,,,V3_098,18,female,2025-02-04_13h58.04.739,jersey_experiment_5_v3,2023.2.2,Win32,84.03361345,,,,,,,,,,,,,,,,574.8889,576.1828,576.1828,582.136,return,2.5891,,74.21875,,,,,,FBP-OG-71.png,0.35,1.2,31,0.5,0,20,20,30,1,,,,,,,,,,,,,,,,,,,,,,,,,,,,,,,,,,,,,,,,
,,,,,V3_098,18,female,2025-02-04_13h58.04.739,jersey_experiment_5_v3,2023.2.2,Win32,84.03361345,,,,,,,,,,,,,,,,582.1363,583.6889,583.6889,589.5127,return,1.057,,49.08854167,,,,,,FBP-RB-81.png,0.37,1.2,52,0.75,0,21,21,51,1,,,,,,,,,,,,,,,,,,,,,,,,,,,,,,,,,,,,,,,,
,,,,,V3_098,18,female,2025-02-04_13h58.04.739,jersey_experiment_5_v3,2023.2.2,Win32,84.03361345,,,,,,,,,,,,,,,,589.5129,591.0658,591.0658,594.7247,return,0.9082,,24.08854167,,,,,,FBP-PT-81.png,0.35,1.2,21,0.75,0,22,22,20,1,,,,,,,,,,,,,,,,,,,,,,,,,,,,,,,,,,,,,,,,
,,,,,V3_098,18,female,2025-02-04_13h58.04.739,jersey_experiment_5_v3,2023.2.2,Win32,84.03361345,,,,,,,,,,,,,,,,594.725,596.2777,596.2778,602.1603,return,1.2411,,99.86979167,,,,,,FBP-RB-71.png,0.45,1.2,50,0.75,0,23,23,49,1,,,,,,,,,,,,,,,,,,,,,,,,,,,,,,,,,,,,,,,,
,,,,,V3_098,18,female,2025-02-04_13h58.04.739,jersey_experiment_5_v3,2023.2.2,Win32,84.03361345,,,,,,,,,,,,,,,,602.1605,603.4543,603.4544,608.29,return,1.5471,,25.78125,,,,,,FBP-OG-71.png,0.37,1.2,32,0.5,0,24,24,31,1,,,,,,,,,,,,,,,,,,,,,,,,,,,,,,,,,,,,,,,,
,,,,,V3_098,18,female,2025-02-04_13h58.04.739,jersey_experiment_5_v3,2023.2.2,Win32,84.03361345,,,,,,,,,,,,,,,,608.2902,609.8428,609.8429,613.1724,return,1.0002,,50,,,,,,FBP-RB-81.png,0.4,1.2,53,0.75,0,25,25,52,1,,,,,,,,,,,,,,,,,,,,,,,,,,,,,,,,,,,,,,,,
,,,,,V3_098,18,female,2025-02-04_13h58.04.739,jersey_experiment_5_v3,2023.2.2,Win32,84.03361345,,,,,,,,,,,,,,,,613.1726,614.7254,614.7254,617.7608,return,1.0662,,50,,,,,,FBP-RB-71.png,0.4,1.2,48,0.75,0,26,26,47,1,,,,,,,,,,,,,,,,,,,,,,,,,,,,,,,,,,,,,,,,
,,,,,V3_098,18,female,2025-02-04_13h58.04.739,jersey_experiment_5_v3,2023.2.2,Win32,84.03361345,,,,,,,,,,,,,,,,617.761,619.3139,619.3139,622.8905,return,1.1378,,25.13020833,,,,,,FBP-YG-19.png,0.37,1.2,12,0.75,0,27,27,11,1,,,,,,,,,,,,,,,,,,,,,,,,,,,,,,,,,,,,,,,,
,,,,,V3_098,18,female,2025-02-04_13h58.04.739,jersey_experiment_5_v3,2023.2.2,Win32,84.03361345,,,,,,,,,,,,,,,,622.8906,624.1845,624.1846,628.2437,return,0.9812,,50.390625,,,,,,FBP-OG-91.png,0.43,1.2,44,0.5,0,28,28,43,1,,,,,,,,,,,,,,,,,,,,,,,,,,,,,,,,,,,,,,,,
,,,,,V3_098,18,female,2025-02-04_13h58.04.739,jersey_experiment_5_v3,2023.2.2,Win32,84.03361345,,,,,,,,,,,,,,,,628.2439,629.7965,629.7966,632.8321,return,1.149,,91.27604167,,,,,,FBP-YG-18.png,0.43,1.2,9,0.75,0,29,29,8,1,,,,,,,,,,,,,,,,,,,,,,,,,,,,,,,,,,,,,,,,
,,,,,V3_098,18,female,2025-02-04_13h58.04.739,jersey_experiment_5_v3,2023.2.2,Win32,84.03361345,,,,,,,,,,,,,,,,632.8323,634.3851,634.3851,637.5617,return,0.8864,,98.95833333,,,,,,FBP-RB-71.png,0.43,1.2,49,0.75,0,30,30,48,1,,,,,,,,,,,,,,,,,,,,,,,,,,,,,,,,,,,,,,,,
,,,,,V3_098,18,female,2025-02-04_13h58.04.739,jersey_experiment_5_v3,2023.2.2,Win32,84.03361345,,,,,,,,,,,,,,,,637.562,639.1147,639.1147,642.4794,return,0.9247,,48.4375,,,,,,FBP-RB-71.png,0.37,1.2,47,0.75,0,31,31,46,1,,,,,,,,,,,,,,,,,,,,,,,,,,,,,,,,,,,,,,,,
,,,,,V3_098,18,female,2025-02-04_13h58.04.739,jersey_experiment_5_v3,2023.2.2,Win32,84.03361345,,,,,,,,,,,,,,,,642.4796,644.0325,644.0325,646.9033,return,0.886,,98.56770833,,,,,,FBP-YG-17.png,0.45,1.2,5,0.75,0,32,32,4,1,,,,,,,,,,,,,,,,,,,,,,,,,,,,,,,,,,,,,,,,
,,,,,V3_098,18,female,2025-02-04_13h58.04.739,jersey_experiment_5_v3,2023.2.2,Win32,84.03361345,,,,,,,,,,,,,,,,646.9035,648.1974,648.1974,651.5033,return,0.7941,,24.86979167,,,,,,FBP-OG-81.png,0.4,1.2,38,0.5,0,33,33,37,1,,,,,,,,,,,,,,,,,,,,,,,,,,,,,,,,,,,,,,,,
,,,,,V3_098,18,female,2025-02-04_13h58.04.739,jersey_experiment_5_v3,2023.2.2,Win32,84.03361345,,,,,,,,,,,,,,,,651.5038,653.0562,653.0564,656.9506,return,1.5533,,94.01041667,,,,,,FBP-YG-19.png,0.45,1.2,15,0.75,0,34,34,14,1,,,,,,,,,,,,,,,,,,,,,,,,,,,,,,,,,,,,,,,,
,,,,,V3_098,18,female,2025-02-04_13h58.04.739,jersey_experiment_5_v3,2023.2.2,Win32,84.03361345,,,,,,,,,,,,,,,,656.9508,658.5036,658.5037,661.892,return,0.8625,,75.390625,,,,,,FBP-YG-19.png,0.43,1.2,14,0.75,0,35,35,13,1,,,,,,,,,,,,,,,,,,,,,,,,,,,,,,,,,,,,,,,,
,,,,,V3_098,18,female,2025-02-04_13h58.04.739,jersey_experiment_5_v3,2023.2.2,Win32,84.03361345,,,,,,,,,,,,,,,,661.8922,663.445,663.445,666.151,return,0.9802,,24.47916667,,,,,,FBP-RB-91.png,0.37,1.2,57,0.75,0,36,36,56,1,,,,,,,,,,,,,,,,,,,,,,,,,,,,,,,,,,,,,,,,
,,,,,V3_098,18,female,2025-02-04_13h58.04.739,jersey_experiment_5_v3,2023.2.2,Win32,84.03361345,,,,,,,,,,,,,,,,666.1512,667.704,667.704,670.3511,return,0.7955,,49.73958333,,,,,,FBP-YG-18.png,0.4,1.2,8,0.75,0,37,37,7,1,,,,,,,,,,,,,,,,,,,,,,,,,,,,,,,,,,,,,,,,
,,,,,V3_098,18,female,2025-02-04_13h58.04.739,jersey_experiment_5_v3,2023.2.2,Win32,84.03361345,,,,,,,,,,,,,,,,670.3513,671.9041,671.9041,674.8101,return,1.0125,,74.21875,,,,,,FBP-PT-81.png,0.43,1.2,24,0.75,0,38,38,23,1,,,,,,,,,,,,,,,,,,,,,,,,,,,,,,,,,,,,,,,,
,,,,,V3_098,18,female,2025-02-04_13h58.04.739,jersey_experiment_5_v3,2023.2.2,Win32,84.03361345,,,,,,,,,,,,,,,,674.8103,676.3631,676.3632,680.0221,return,1.4008,,1.171875,,,,,,FBP-RB-71.png,0.35,1.2,46,0.75,0,39,39,45,1,,,,,,,,,,,,,,,,,,,,,,,,,,,,,,,,,,,,,,,,
,,,,,V3_098,18,female,2025-02-04_13h58.04.739,jersey_experiment_5_v3,2023.2.2,Win32,84.03361345,,,,,,,,,,,,,,,,680.0224,681.575,681.575,686.8106,return,1.4277,,0.78125,,,,,,FBP-YG-19.png,0.35,1.2,11,0.75,0,40,40,10,1,,,,,,,,,,,,,,,,,,,,,,,,,,,,,,,,,,,,,,,,
,,,,,V3_098,18,female,2025-02-04_13h58.04.739,jersey_experiment_5_v3,2023.2.2,Win32,84.03361345,,,,,,,,,,,,,,,,686.8109,688.3635,688.3635,691.8579,return,0.9338,,74.73958333,,,,,,FBP-PT-71.png,0.45,1.2,20,0.75,0,41,41,19,1,,,,,,,,,,,,,,,,,,,,,,,,,,,,,,,,,,,,,,,,
,,,,,V3_098,18,female,2025-02-04_13h58.04.739,jersey_experiment_5_v3,2023.2.2,Win32,84.03361345,,,,,,,,,,,,,,,,691.8581,693.4108,693.4108,696.3522,return,0.8315,,50,,,,,,FBP-PT-71.png,0.35,1.2,16,0.75,0,42,42,15,1,,,,,,,,,,,,,,,,,,,,,,,,,,,,,,,,,,,,,,,,
,,,,,V3_098,18,female,2025-02-04_13h58.04.739,jersey_experiment_5_v3,2023.2.2,Win32,84.03361345,,,,,,,,,,,,,,,,696.3524,697.9051,697.9052,700.4816,return,0.7795,,75.26041667,,,,,,FBP-YG-18.png,0.45,1.2,10,0.75,0,43,43,9,1,,,,,,,,,,,,,,,,,,,,,,,,,,,,,,,,,,,,,,,,
,,,,,V3_098,18,female,2025-02-04_13h58.04.739,jersey_experiment_5_v3,2023.2.2,Win32,84.03361345,,,,,,,,,,,,,,,,700.4818,702.0347,702.0347,705.1288,return,1.0591,,99.21875,,,,,,FBP-RB-81.png,0.45,1.2,55,0.75,0,44,44,54,1,,,,,,,,,,,,,,,,,,,,,,,,,,,,,,,,,,,,,,,,
,,,,,V3_098,18,female,2025-02-04_13h58.04.739,jersey_experiment_5_v3,2023.2.2,Win32,84.03361345,,,,,,,,,,,,,,,,705.1291,706.6819,706.6819,709.7291,return,1.4157,,99.21875,,,,,,FBP-PT-81.png,0.45,1.2,25,0.75,0,45,45,24,1,,,,,,,,,,,,,,,,,,,,,,,,,,,,,,,,,,,,,,,,
,,,,,V3_098,18,female,2025-02-04_13h58.04.739,jersey_experiment_5_v3,2023.2.2,Win32,84.03361345,,,,,,,,,,,,,,,,709.7294,711.2821,711.2821,713.8115,return,1.0971,,49.609375,,,,,,FBP-PT-91.png,0.4,1.2,28,0.75,0,46,46,27,1,,,,,,,,,,,,,,,,,,,,,,,,,,,,,,,,,,,,,,,,
,,,,,V3_098,18,female,2025-02-04_13h58.04.739,jersey_experiment_5_v3,2023.2.2,Win32,84.03361345,,,,,,,,,,,,,,,,713.8118,715.3645,715.3645,719.9531,return,3.2622,,24.609375,,,,,,FBP-PT-71.png,0.37,1.2,17,0.75,0,47,47,16,1,,,,,,,,,,,,,,,,,,,,,,,,,,,,,,,,,,,,,,,,
,,,,,V3_098,18,female,2025-02-04_13h58.04.739,jersey_experiment_5_v3,2023.2.2,Win32,84.03361345,,,,,,,,,,,,,,,,719.9533,721.5059,721.506,724.1177,return,0.9275,,74.73958333,,,,,,FBP-RB-91.png,0.43,1.2,59,0.75,0,48,48,58,1,,,,,,,,,,,,,,,,,,,,,,,,,,,,,,,,,,,,,,,,
,,,,,V3_098,18,female,2025-02-04_13h58.04.739,jersey_experiment_5_v3,2023.2.2,Win32,84.03361345,,,,,,,,,,,,,,,,724.1179,725.412,725.4121,729.2238,return,0.8787,,50.13020833,,,,,,FBP-OG-71.png,0.4,1.2,33,0.5,0,49,49,32,1,,,,,,,,,,,,,,,,,,,,,,,,,,,,,,,,,,,,,,,,
,,,,,V3_098,18,female,2025-02-04_13h58.04.739,jersey_experiment_5_v3,2023.2.2,Win32,84.03361345,,,,,,,,,,,,,,,,729.2241,730.7769,730.7769,733.2475,return,0.6908,,50.13020833,,,,,,FBP-PT-81.png,0.4,1.2,23,0.75,0,50,50,22,1,,,,,,,,,,,,,,,,,,,,,,,,,,,,,,,,,,,,,,,,
,,,,,V3_098,18,female,2025-02-04_13h58.04.739,jersey_experiment_5_v3,2023.2.2,Win32,84.03361345,,,,,,,,,,,,,,,,733.2477,734.5416,734.5417,737.8008,return,0.9099,,25,,,,,,FBP-OG-91.png,0.35,1.2,41,0.5,0,51,51,40,1,,,,,,,,,,,,,,,,,,,,,,,,,,,,,,,,,,,,,,,,
,,,,,V3_098,18,female,2025-02-04_13h58.04.739,jersey_experiment_5_v3,2023.2.2,Win32,84.03361345,,,,,,,,,,,,,,,,737.801,739.0949,739.0949,741.495,return,1.1317,,24.08854167,,,,,,FBP-OG-81.png,0.37,1.2,37,0.5,0,52,52,36,1,,,,,,,,,,,,,,,,,,,,,,,,,,,,,,,,,,,,,,,,
,,,,,V3_098,18,female,2025-02-04_13h58.04.739,jersey_experiment_5_v3,2023.2.2,Win32,84.03361345,,,,,,,,,,,,,,,,741.4952,742.7892,742.7893,745.9775,return,0.8097,,99.609375,,,,,,FBP-OG-71.png,0.45,1.2,35,0.5,0,53,53,34,1,,,,,,,,,,,,,,,,,,,,,,,,,,,,,,,,,,,,,,,,
,,,,,V3_098,18,female,2025-02-04_13h58.04.739,jersey_experiment_5_v3,2023.2.2,Win32,84.03361345,,,,,,,,,,,,,,,,745.9778,747.2716,747.2716,750.7307,return,0.8472,,49.86979167,,,,,,FBP-OG-91.png,0.37,1.2,42,0.5,0,54,54,41,1,,,,,,,,,,,,,,,,,,,,,,,,,,,,,,,,,,,,,,,,
,,,,,V3_098,18,female,2025-02-04_13h58.04.739,jersey_experiment_5_v3,2023.2.2,Win32,84.03361345,,,,,,,,,,,,,,,,750.7309,752.2836,752.2837,755.0249,return,1.1247,,49.86979167,,,,,,FBP-PT-91.png,0.37,1.2,27,0.75,0,55,55,26,1,,,,,,,,,,,,,,,,,,,,,,,,,,,,,,,,,,,,,,,,
,,,,,V3_098,18,female,2025-02-04_13h58.04.739,jersey_experiment_5_v3,2023.2.2,Win32,84.03361345,,,,,,,,,,,,,,,,755.0251,756.3191,756.3191,759.0132,return,0.8262,,99.86979167,,,,,,FBP-OG-91.png,0.45,1.2,45,0.5,0,56,56,44,1,,,,,,,,,,,,,,,,,,,,,,,,,,,,,,,,,,,,,,,,
,,,,,V3_098,18,female,2025-02-04_13h58.04.739,jersey_experiment_5_v3,2023.2.2,Win32,84.03361345,,,,,,,,,,,,,,,,759.0135,760.3075,760.3075,762.743,return,1.1043,,99.86979167,,,,,,FBP-OG-81.png,0.45,1.2,40,0.5,0,57,57,39,1,,,,,,,,,,,,,,,,,,,,,,,,,,,,,,,,,,,,,,,,
,,,,,V3_098,18,female,2025-02-04_13h58.04.739,jersey_experiment_5_v3,2023.2.2,Win32,84.03361345,,,,,,,,,,,,,,,,762.7431,764.2959,764.296,767.0135,return,0.8493,,50.26041667,,,,,,FBP-RB-81.png,0.35,1.2,51,0.75,0,58,58,50,1,,,,,,,,,,,,,,,,,,,,,,,,,,,,,,,,,,,,,,,,
,,,,,V3_098,18,female,2025-02-04_13h58.04.739,jersey_experiment_5_v3,2023.2.2,Win32,84.03361345,,,,,,,,,,,,,,,,767.0137,768.5665,768.5666,771.3667,return,0.7872,,24.21875,,,,,,FBP-PT-81.png,0.37,1.2,22,0.75,0,59,59,21,1,,,,,,,,,,,,,,,,,,,,,,,,,,,,,,,,,,,,,,,,
,,,,,V3_098,18,female,2025-02-04_13h58.04.739,jersey_experiment_5_v3,2023.2.2,Win32,84.03361345,,,,,,,,,,,,,,,,,,,,,,,,,,,,,,,,,,,,,,,771.3669,891.3597,,,,,,,,,,,,,,,,,,,,,,,,,,,,,,,,,,,,,,
,,,,,V3_098,18,female,2025-02-04_13h58.04.739,jersey_experiment_5_v3,2023.2.2,Win32,84.03361345,,,,,,,,,,,,,,,,,,,,,,,,,,,,,,,,,,,,,,,,,891.3597,894.5596,return,3.1933,,,,,,,,,,,,,,,,,,,,,,,,,,,,,,,,,,
,,,,,V3_098,18,female,2025-02-04_13h58.04.739,jersey_experiment_5_v3,2023.2.2,Win32,84.03361345,,,,,,,,,,,,,,,,894.5614,895.8538,895.8539,899.8894,return,1.1245,,50,,,,,,FBP-PT-17.png,0.43,1.2,19,0.5,,,,,,,,,,,,,0,0,0,18,1,,,,,,,,,,,,,,,,,,,,,,,,,,,,
,,,,,V3_098,18,female,2025-02-04_13h58.04.739,jersey_experiment_5_v3,2023.2.2,Win32,84.03361345,,,,,,,,,,,,,,,,899.8897,901.1833,901.1834,904.2305,return,0.9031,,74.34895833,,,,,,FBP-PT-18.png,0.4,1.2,23,0.5,,,,,,,,,,,,,0,1,1,22,1,,,,,,,,,,,,,,,,,,,,,,,,,,,,
,,,,,V3_098,18,female,2025-02-04_13h58.04.739,jersey_experiment_5_v3,2023.2.2,Win32,84.03361345,,,,,,,,,,,,,,,,904.2308,905.5248,905.5248,908.8543,return,0.8212,,91.66666667,,,,,,FBP-YG-81.png,0.43,1.2,9,0.5,,,,,,,,,,,,,0,2,2,8,1,,,,,,,,,,,,,,,,,,,,,,,,,,,,
,,,,,V3_098,18,female,2025-02-04_13h58.04.739,jersey_experiment_5_v3,2023.2.2,Win32,84.03361345,,,,,,,,,,,,,,,,908.8546,910.4072,910.4073,913.4898,return,1.0768,,7.682291667,,,,,,FBP-OG-18.png,0.35,1.2,36,0.75,,,,,,,,,,,,,0,3,3,35,1,,,,,,,,,,,,,,,,,,,,,,,,,,,,
,,,,,V3_098,18,female,2025-02-04_13h58.04.739,jersey_experiment_5_v3,2023.2.2,Win32,84.03361345,,,,,,,,,,,,,,,,913.49,914.784,914.7841,918.2076,return,0.9262,,25,,,,,,FBP-PT-17.png,0.35,1.2,16,0.5,,,,,,,,,,,,,0,4,4,15,1,,,,,,,,,,,,,,,,,,,,,,,,,,,,
,,,,,V3_098,18,female,2025-02-04_13h58.04.739,jersey_experiment_5_v3,2023.2.2,Win32,84.03361345,,,,,,,,,,,,,,,,918.2078,919.5018,919.5019,921.7135,return,0.8065,,25,,,,,,FBP-RB-19.png,0.35,1.2,56,0.5,,,,,,,,,,,,,0,5,5,55,1,,,,,,,,,,,,,,,,,,,,,,,,,,,,
,,,,,V3_098,18,female,2025-02-04_13h58.04.739,jersey_experiment_5_v3,2023.2.2,Win32,84.03361345,,,,,,,,,,,,,,,,921.7138,923.0077,923.0078,926.6551,return,0.7385,,74.73958333,,,,,,FBP-YG-91.png,0.43,1.2,14,0.5,,,,,,,,,,,,,0,6,6,13,1,,,,,,,,,,,,,,,,,,,,,,,,,,,,
,,,,,V3_098,18,female,2025-02-04_13h58.04.739,jersey_experiment_5_v3,2023.2.2,Win32,84.03361345,,,,,,,,,,,,,,,,926.6554,927.9492,927.9493,931.0081,return,0.9598,,88.15104167,,,,,,FBP-YG-81.png,0.45,1.2,10,0.5,,,,,,,,,,,,,0,7,7,9,1,,,,,,,,,,,,,,,,,,,,,,,,,,,,
,,,,,V3_098,18,female,2025-02-04_13h58.04.739,jersey_experiment_5_v3,2023.2.2,Win32,84.03361345,,,,,,,,,,,,,,,,931.0083,932.5612,932.5612,935.3612,return,0.7458,,49.609375,,,,,,FBP-OG-18.png,0.37,1.2,37,0.75,,,,,,,,,,,,,0,8,8,36,1,,,,,,,,,,,,,,,,,,,,,,,,,,,,
,,,,,V3_098,18,female,2025-02-04_13h58.04.739,jersey_experiment_5_v3,2023.2.2,Win32,84.03361345,,,,,,,,,,,,,,,,935.3615,936.6554,936.6554,941.0439,return,1.0514,,33.85416667,,,,,,FBP-YG-91.png,0.37,1.2,12,0.5,,,,,,,,,,,,,0,9,9,11,1,,,,,,,,,,,,,,,,,,,,,,,,,,,,
,,,,,V3_098,18,female,2025-02-04_13h58.04.739,jersey_experiment_5_v3,2023.2.2,Win32,84.03361345,,,,,,,,,,,,,,,,941.0441,942.3379,942.3379,944.9028,return,0.7208,,50.390625,,,,,,FBP-YG-81.png,0.37,1.2,7,0.5,,,,,,,,,,,,,0,10,10,6,1,,,,,,,,,,,,,,,,,,,,,,,,,,,,
,,,,,V3_098,18,female,2025-02-04_13h58.04.739,jersey_experiment_5_v3,2023.2.2,Win32,84.03361345,,,,,,,,,,,,,,,,944.9031,946.1969,946.1969,948.4676,return,0.8043,,50.390625,,,,,,FBP-PT-17.png,0.37,1.2,17,0.5,,,,,,,,,,,,,0,11,11,16,1,,,,,,,,,,,,,,,,,,,,,,,,,,,,
,,,,,V3_098,18,female,2025-02-04_13h58.04.739,jersey_experiment_5_v3,2023.2.2,Win32,84.03361345,,,,,,,,,,,,,,,,948.4678,949.7618,949.7618,952.8206,return,0.968,,99.08854167,,,,,,FBP-RB-19.png,0.45,1.2,60,0.5,,,,,,,,,,,,,0,12,12,59,1,,,,,,,,,,,,,,,,,,,,,,,,,,,,
,,,,,V3_098,18,female,2025-02-04_13h58.04.739,jersey_experiment_5_v3,2023.2.2,Win32,84.03361345,,,,,,,,,,,,,,,,952.8209,954.1149,954.1149,957.8798,return,1.0828,,99.73958333,,,,,,FBP-PT-18.png,0.45,1.2,25,0.5,,,,,,,,,,,,,0,13,13,24,1,,,,,,,,,,,,,,,,,,,,,,,,,,,,
,,,,,V3_098,18,female,2025-02-04_13h58.04.739,jersey_experiment_5_v3,2023.2.2,Win32,84.03361345,,,,,,,,,,,,,,,,957.8801,959.4328,959.4328,962.2917,return,1.0359,,8.203125,,,,,,FBP-OG-17.png,0.35,1.2,31,0.75,,,,,,,,,,,,,0,14,14,30,1,,,,,,,,,,,,,,,,,,,,,,,,,,,,
,,,,,V3_098,18,female,2025-02-04_13h58.04.739,jersey_experiment_5_v3,2023.2.2,Win32,84.03361345,,,,,,,,,,,,,,,,962.2919,963.5859,963.586,966.739,return,1.5462,,25,,,,,,FBP-RB-17.png,0.37,1.2,47,0.5,,,,,,,,,,,,,0,15,15,46,1,,,,,,,,,,,,,,,,,,,,,,,,,,,,
,,,,,V3_098,18,female,2025-02-04_13h58.04.739,jersey_experiment_5_v3,2023.2.2,Win32,84.03361345,,,,,,,,,,,,,,,,966.7392,968.2919,968.2919,972.4803,return,1.2667,,88.15104167,,,,,,FBP-OG-19.png,0.45,1.2,45,0.75,,,,,,,,,,,,,0,16,16,44,1,,,,,,,,,,,,,,,,,,,,,,,,,,,,
,,,,,V3_098,18,female,2025-02-04_13h58.04.739,jersey_experiment_5_v3,2023.2.2,Win32,84.03361345,,,,,,,,,,,,,,,,972.4806,973.7744,973.7745,977.1745,return,1.1308,,23.95833333,,,,,,FBP-PT-18.png,0.37,1.2,22,0.5,,,,,,,,,,,,,0,17,17,21,1,,,,,,,,,,,,,,,,,,,,,,,,,,,,
,,,,,V3_098,18,female,2025-02-04_13h58.04.739,jersey_experiment_5_v3,2023.2.2,Win32,84.03361345,,,,,,,,,,,,,,,,977.1748,978.4687,978.4688,982.1983,return,1.0827,,48.828125,,,,,,FBP-YG-71.png,0.4,1.2,3,0.5,,,,,,,,,,,,,0,18,18,2,1,,,,,,,,,,,,,,,,,,,,,,,,,,,,
,,,,,V3_098,18,female,2025-02-04_13h58.04.739,jersey_experiment_5_v3,2023.2.2,Win32,84.03361345,,,,,,,,,,,,,,,,982.1985,983.7514,983.7514,986.6456,return,1.0823,,25.78125,,,,,,FBP-OG-19.png,0.35,1.2,41,0.75,,,,,,,,,,,,,0,19,19,40,1,,,,,,,,,,,,,,,,,,,,,,,,,,,,
,,,,,V3_098,18,female,2025-02-04_13h58.04.739,jersey_experiment_5_v3,2023.2.2,Win32,84.03361345,,,,,,,,,,,,,,,,986.646,987.9397,987.9398,990.4809,return,0.7482,,74.34895833,,,,,,FBP-RB-17.png,0.45,1.2,50,0.5,,,,,,,,,,,,,0,20,20,49,1,,,,,,,,,,,,,,,,,,,,,,,,,,,,
,,,,,V3_098,18,female,2025-02-04_13h58.04.739,jersey_experiment_5_v3,2023.2.2,Win32,84.03361345,,,,,,,,,,,,,,,,990.4811,991.7752,991.7752,994.5175,return,0.9684,,74.34895833,,,,,,FBP-RB-19.png,0.43,1.2,59,0.5,,,,,,,,,,,,,0,21,21,58,1,,,,,,,,,,,,,,,,,,,,,,,,,,,,
,,,,,V3_098,18,female,2025-02-04_13h58.04.739,jersey_experiment_5_v3,2023.2.2,Win32,84.03361345,,,,,,,,,,,,,,,,994.5178,996.0694,996.0695,998.9519,return,1.0848,,49.21875,,,,,,FBP-OG-18.png,0.4,1.2,38,0.75,,,,,,,,,,,,,0,22,22,37,1,,,,,,,,,,,,,,,,,,,,,,,,,,,,
,,,,,V3_098,18,female,2025-02-04_13h58.04.739,jersey_experiment_5_v3,2023.2.2,Win32,84.03361345,,,,,,,,,,,,,,,,998.9521,1000.2461,1000.2461,1004.2463,return,0.7997,,74.73958333,,,,,,FBP-YG-81.png,0.4,1.2,8,0.5,,,,,,,,,,,,,0,23,23,7,1,,,,,,,,,,,,,,,,,,,,,,,,,,,,
,,,,,V3_098,18,female,2025-02-04_13h58.04.739,jersey_experiment_5_v3,2023.2.2,Win32,84.03361345,,,,,,,,,,,,,,,,1004.2465,1005.5403,1005.5403,1008.2582,return,1.2058,,50.390625,,,,,,FBP-PT-17.png,0.4,1.2,18,0.5,,,,,,,,,,,,,0,24,24,17,1,,,,,,,,,,,,,,,,,,,,,,,,,,,,
,,,,,V3_098,18,female,2025-02-04_13h58.04.739,jersey_experiment_5_v3,2023.2.2,Win32,84.03361345,,,,,,,,,,,,,,,,1008.2584,1009.5524,1009.5524,1012.7877,return,1.1415,,75.13020833,,,,,,FBP-YG-71.png,0.45,1.2,5,0.5,,,,,,,,,,,,,0,25,25,4,1,,,,,,,,,,,,,,,,,,,,,,,,,,,,
,,,,,V3_098,18,female,2025-02-04_13h58.04.739,jersey_experiment_5_v3,2023.2.2,Win32,84.03361345,,,,,,,,,,,,,,,,1012.788,1014.3407,1014.3408,1018.2115,return,2.4491,,81.640625,,,,,,FBP-OG-19.png,0.43,1.2,44,0.75,,,,,,,,,,,,,0,26,26,43,1,,,,,,,,,,,,,,,,,,,,,,,,,,,,
,,,,,V3_098,18,female,2025-02-04_13h58.04.739,jersey_experiment_5_v3,2023.2.2,Win32,84.03361345,,,,,,,,,,,,,,,,1018.2117,1019.5057,1019.5057,1022.0352,return,0.6266,,88.93229167,,,,,,FBP-RB-18.png,0.43,1.2,54,0.5,,,,,,,,,,,,,0,27,27,53,1,,,,,,,,,,,,,,,,,,,,,,,,,,,,
,,,,,V3_098,18,female,2025-02-04_13h58.04.739,jersey_experiment_5_v3,2023.2.2,Win32,84.03361345,,,,,,,,,,,,,,,,1022.0354,1023.3292,1023.3292,1026.4352,return,0.7441,,83.85416667,,,,,,FBP-YG-71.png,0.43,1.2,4,0.5,,,,,,,,,,,,,0,28,28,3,1,,,,,,,,,,,,,,,,,,,,,,,,,,,,
,,,,,V3_098,18,female,2025-02-04_13h58.04.739,jersey_experiment_5_v3,2023.2.2,Win32,84.03361345,,,,,,,,,,,,,,,,1026.4354,1027.7294,1027.7295,1031.1883,return,1.3295,,50.390625,,,,,,FBP-YG-91.png,0.35,1.2,11,0.5,,,,,,,,,,,,,0,29,29,10,1,,,,,,,,,,,,,,,,,,,,,,,,,,,,
,,,,,V3_098,18,female,2025-02-04_13h58.04.739,jersey_experiment_5_v3,2023.2.2,Win32,84.03361345,,,,,,,,,,,,,,,,1031.1886,1032.4826,1032.4826,1034.8004,return,0.9487,,24.47916667,,,,,,FBP-PT-19.png,0.35,1.2,26,0.5,,,,,,,,,,,,,0,30,30,25,1,,,,,,,,,,,,,,,,,,,,,,,,,,,,
,,,,,V3_098,18,female,2025-02-04_13h58.04.739,jersey_experiment_5_v3,2023.2.2,Win32,84.03361345,,,,,,,,,,,,,,,,1034.8006,1036.0945,1036.0945,1044.2596,return,0.8739,,1.432291667,,,,,,FBP-YG-71.png,0.35,1.2,1,0.5,,,,,,,,,,,,,0,31,31,0,1,,,,,,,,,,,,,,,,,,,,,,,,,,,,
,,,,,V3_098,18,female,2025-02-04_13h58.04.739,jersey_experiment_5_v3,2023.2.2,Win32,84.03361345,,,,,,,,,,,,,,,,1044.2599,1045.5537,1045.5537,1048.5068,return,1.1366,,26.171875,,,,,,FBP-YG-91.png,0.4,1.2,13,0.5,,,,,,,,,,,,,0,32,32,12,1,,,,,,,,,,,,,,,,,,,,,,,,,,,,
,,,,,V3_098,18,female,2025-02-04_13h58.04.739,jersey_experiment_5_v3,2023.2.2,Win32,84.03361345,,,,,,,,,,,,,,,,1048.507,1050.0597,1050.0597,1052.3069,return,0.77,,26.04166667,,,,,,FBP-OG-19.png,0.37,1.2,42,0.75,,,,,,,,,,,,,0,33,33,41,1,,,,,,,,,,,,,,,,,,,,,,,,,,,,
,,,,,V3_098,18,female,2025-02-04_13h58.04.739,jersey_experiment_5_v3,2023.2.2,Win32,84.03361345,,,,,,,,,,,,,,,,1052.3072,1053.6011,1053.6011,1055.8247,return,0.7369,,26.04166667,,,,,,FBP-PT-18.png,0.35,1.2,21,0.5,,,,,,,,,,,,,0,34,34,20,1,,,,,,,,,,,,,,,,,,,,,,,,,,,,
,,,,,V3_098,18,female,2025-02-04_13h58.04.739,jersey_experiment_5_v3,2023.2.2,Win32,84.03361345,,,,,,,,,,,,,,,,1055.825,1057.1188,1057.1189,1060.6131,return,1.7566,,57.8125,,,,,,FBP-PT-18.png,0.43,1.2,24,0.5,,,,,,,,,,,,,0,35,35,23,1,,,,,,,,,,,,,,,,,,,,,,,,,,,,
,,,,,V3_098,18,female,2025-02-04_13h58.04.739,jersey_experiment_5_v3,2023.2.2,Win32,84.03361345,,,,,,,,,,,,,,,,1060.6134,1061.9071,1061.9072,1064.6014,return,0.6826,,49.47916667,,,,,,FBP-YG-71.png,0.37,1.2,2,0.5,,,,,,,,,,,,,0,36,36,1,1,,,,,,,,,,,,,,,,,,,,,,,,,,,,
,,,,,V3_098,18,female,2025-02-04_13h58.04.739,jersey_experiment_5_v3,2023.2.2,Win32,84.03361345,,,,,,,,,,,,,,,,1064.6016,1066.1545,1066.1546,1070.2487,return,0.6356,,67.70833333,,,,,,FBP-OG-17.png,0.4,1.2,33,0.75,,,,,,,,,,,,,0,37,37,32,1,,,,,,,,,,,,,,,,,,,,,,,,,,,,
,,,,,V3_098,18,female,2025-02-04_13h58.04.739,jersey_experiment_5_v3,2023.2.2,Win32,84.03361345,,,,,,,,,,,,,,,,1070.249,1071.5429,1071.543,1073.8253,return,0.6268,,48.69791667,,,,,,FBP-RB-18.png,0.35,1.2,51,0.5,,,,,,,,,,,,,0,38,38,50,1,,,,,,,,,,,,,,,,,,,,,,,,,,,,
,,,,,V3_098,18,female,2025-02-04_13h58.04.739,jersey_experiment_5_v3,2023.2.2,Win32,84.03361345,,,,,,,,,,,,,,,,1073.8257,1075.3783,1075.3785,1077.1903,return,0.7155,,49.47916667,,,,,,FBP-OG-19.png,0.4,1.2,43,0.75,,,,,,,,,,,,,0,39,39,42,1,,,,,,,,,,,,,,,,,,,,,,,,,,,,
,,,,,V3_098,18,female,2025-02-04_13h58.04.739,jersey_experiment_5_v3,2023.2.2,Win32,84.03361345,,,,,,,,,,,,,,,,1077.1905,1078.7431,1078.7432,1080.4727,return,0.7326,,49.47916667,,,,,,FBP-OG-17.png,0.37,1.2,32,0.75,,,,,,,,,,,,,0,40,40,31,1,,,,,,,,,,,,,,,,,,,,,,,,,,,,
,,,,,V3_098,18,female,2025-02-04_13h58.04.739,jersey_experiment_5_v3,2023.2.2,Win32,84.03361345,,,,,,,,,,,,,,,,1080.473,1081.7669,1081.767,1084.3786,return,0.6975,,74.86979167,,,,,,FBP-RB-19.png,0.4,1.2,58,0.5,,,,,,,,,,,,,0,41,41,57,1,,,,,,,,,,,,,,,,,,,,,,,,,,,,
,,,,,V3_098,18,female,2025-02-04_13h58.04.739,jersey_experiment_5_v3,2023.2.2,Win32,84.03361345,,,,,,,,,,,,,,,,1084.3788,1085.6728,1085.6729,1088.7553,return,0.7075,,97.91666667,,,,,,FBP-PT-19.png,0.43,1.2,29,0.5,,,,,,,,,,,,,0,42,42,28,1,,,,,,,,,,,,,,,,,,,,,,,,,,,,
,,,,,V3_098,18,female,2025-02-04_13h58.04.739,jersey_experiment_5_v3,2023.2.2,Win32,84.03361345,,,,,,,,,,,,,,,,1088.7556,1090.0496,1090.0496,1091.9907,return,0.81,,97.91666667,,,,,,FBP-RB-18.png,0.45,1.2,55,0.5,,,,,,,,,,,,,0,43,43,54,1,,,,,,,,,,,,,,,,,,,,,,,,,,,,
,,,,,V3_098,18,female,2025-02-04_13h58.04.739,jersey_experiment_5_v3,2023.2.2,Win32,84.03361345,,,,,,,,,,,,,,,,1091.991,1093.2849,1093.2849,1094.8263,return,0.5653,,97.91666667,,,,,,FBP-PT-19.png,0.45,1.2,30,0.5,,,,,,,,,,,,,0,44,44,29,1,,,,,,,,,,,,,,,,,,,,,,,,,,,,
,,,,,V3_098,18,female,2025-02-04_13h58.04.739,jersey_experiment_5_v3,2023.2.2,Win32,84.03361345,,,,,,,,,,,,,,,,1094.8264,1096.1203,1096.1203,1098.438,return,0.7784,,74.609375,,,,,,FBP-RB-19.png,0.37,1.2,57,0.5,,,,,,,,,,,,,0,45,45,56,1,,,,,,,,,,,,,,,,,,,,,,,,,,,,
,,,,,V3_098,18,female,2025-02-04_13h58.04.739,jersey_experiment_5_v3,2023.2.2,Win32,84.03361345,,,,,,,,,,,,,,,,1098.4383,1099.7323,1099.7323,1107.156,return,5.907,,49.47916667,,,,,,FBP-YG-81.png,0.35,1.2,6,0.5,,,,,,,,,,,,,0,46,46,5,1,,,,,,,,,,,,,,,,,,,,,,,,,,,,
,,,,,V3_098,18,female,2025-02-04_13h58.04.739,jersey_experiment_5_v3,2023.2.2,Win32,84.03361345,,,,,,,,,,,,,,,,1107.1563,1108.4503,1108.4503,1111.8738,return,0.7923,,74.34895833,,,,,,FBP-RB-18.png,0.4,1.2,53,0.5,,,,,,,,,,,,,0,47,47,52,1,,,,,,,,,,,,,,,,,,,,,,,,,,,,
,,,,,V3_098,18,female,2025-02-04_13h58.04.739,jersey_experiment_5_v3,2023.2.2,Win32,84.03361345,,,,,,,,,,,,,,,,1111.8739,1113.1681,1113.1681,1115.7447,return,0.773,,49.08854167,,,,,,FBP-RB-18.png,0.37,1.2,52,0.5,,,,,,,,,,,,,0,48,48,51,1,,,,,,,,,,,,,,,,,,,,,,,,,,,,
,,,,,V3_098,18,female,2025-02-04_13h58.04.739,jersey_experiment_5_v3,2023.2.2,Win32,84.03361345,,,,,,,,,,,,,,,,1115.7449,1117.2976,1117.2976,1122.5919,return,1.2544,,49.21875,,,,,,FBP-OG-18.png,0.43,1.2,39,0.75,,,,,,,,,,,,,0,49,49,38,1,,,,,,,,,,,,,,,,,,,,,,,,,,,,
,,,,,V3_098,18,female,2025-02-04_13h58.04.739,jersey_experiment_5_v3,2023.2.2,Win32,84.03361345,,,,,,,,,,,,,,,,1122.5921,1123.8861,1123.8862,1127.4979,return,1.906,,60.28645833,,,,,,FBP-PT-19.png,0.37,1.2,27,0.5,,,,,,,,,,,,,0,50,50,26,1,,,,,,,,,,,,,,,,,,,,,,,,,,,,
,,,,,V3_098,18,female,2025-02-04_13h58.04.739,jersey_experiment_5_v3,2023.2.2,Win32,84.03361345,,,,,,,,,,,,,,,,1127.4982,1128.7921,1128.7921,1131.8746,return,0.7661,,99.86979167,,,,,,FBP-PT-17.png,0.45,1.2,20,0.5,,,,,,,,,,,,,0,51,51,19,1,,,,,,,,,,,,,,,,,,,,,,,,,,,,
,,,,,V3_098,18,female,2025-02-04_13h58.04.739,jersey_experiment_5_v3,2023.2.2,Win32,84.03361345,,,,,,,,,,,,,,,,1131.8749,1133.1688,1133.1688,1135.2041,return,0.5804,,74.86979167,,,,,,FBP-PT-19.png,0.4,1.2,28,0.5,,,,,,,,,,,,,0,52,52,27,1,,,,,,,,,,,,,,,,,,,,,,,,,,,,
,,,,,V3_098,18,female,2025-02-04_13h58.04.739,jersey_experiment_5_v3,2023.2.2,Win32,84.03361345,,,,,,,,,,,,,,,,1135.2043,1136.7572,1136.7572,1138.5455,return,0.6854,,91.27604167,,,,,,FBP-OG-17.png,0.43,1.2,34,0.75,,,,,,,,,,,,,0,53,53,33,1,,,,,,,,,,,,,,,,,,,,,,,,,,,,
,,,,,V3_098,18,female,2025-02-04_13h58.04.739,jersey_experiment_5_v3,2023.2.2,Win32,84.03361345,,,,,,,,,,,,,,,,1138.5457,1139.8396,1139.8397,1142.4516,return,0.7222,,99.21875,,,,,,FBP-YG-91.png,0.45,1.2,15,0.5,,,,,,,,,,,,,0,54,54,14,1,,,,,,,,,,,,,,,,,,,,,,,,,,,,
,,,,,V3_098,18,female,2025-02-04_13h58.04.739,jersey_experiment_5_v3,2023.2.2,Win32,84.03361345,,,,,,,,,,,,,,,,1142.4518,1143.7456,1143.7456,1146.0399,return,0.6592,,73.95833333,,,,,,FBP-RB-17.png,0.4,1.2,48,0.5,,,,,,,,,,,,,0,55,55,47,1,,,,,,,,,,,,,,,,,,,,,,,,,,,,
,,,,,V3_098,18,female,2025-02-04_13h58.04.739,jersey_experiment_5_v3,2023.2.2,Win32,84.03361345,,,,,,,,,,,,,,,,1146.0402,1147.5927,1147.5928,1149.6871,return,0.6938,,90.234375,,,,,,FBP-OG-17.png,0.45,1.2,35,0.75,,,,,,,,,,,,,0,56,56,34,1,,,,,,,,,,,,,,,,,,,,,,,,,,,,
,,,,,V3_098,18,female,2025-02-04_13h58.04.739,jersey_experiment_5_v3,2023.2.2,Win32,84.03361345,,,,,,,,,,,,,,,,1149.6873,1150.9812,1150.9813,1154.1697,return,0.6138,,75.390625,,,,,,FBP-RB-17.png,0.43,1.2,49,0.5,,,,,,,,,,,,,0,57,57,48,1,,,,,,,,,,,,,,,,,,,,,,,,,,,,
,,,,,V3_098,18,female,2025-02-04_13h58.04.739,jersey_experiment_5_v3,2023.2.2,Win32,84.03361345,,,,,,,,,,,,,,,,1154.1699,1155.4637,1155.4637,1160.0875,return,0.8083,,0.78125,,,,,,FBP-RB-17.png,0.35,1.2,46,0.5,,,,,,,,,,,,,0,58,58,45,1,,,,,,,,,,,,,,,,,,,,,,,,,,,,
,,,,,V3_098,18,female,2025-02-04_13h58.04.739,jersey_experiment_5_v3,2023.2.2,Win32,84.03361345,,,,,,,,,,,,,,,,1160.0878,1161.6405,1161.6405,1166.2289,return,0.6935,,99.47916667,,,,,,FBP-OG-18.png,0.45,1.2,40,0.75,,,,,,,,,,,,,0,59,59,39,1,,,,,,,,,,,,,,,,,,,,,,,,,,,,
,,,,,V3_098,18,female,2025-02-04_13h58.04.739,jersey_experiment_5_v3,2023.2.2,Win32,84.03361345,,,,,,,,,,,,,,,,1166.2309,1167.7818,1167.7819,1170.0878,return,0.8559,,75.390625,,,,,,FBP-OG-71.png,0.4,1.2,33,0.75,,,,,,,,,,,,,,,,,,0,0,0,32,1,,,,,,,,,,,,,,,,,,,,,,,
,,,,,V3_098,18,female,2025-02-04_13h58.04.739,jersey_experiment_5_v3,2023.2.2,Win32,84.03361345,,,,,,,,,,,,,,,,1170.0881,1171.6407,1171.6408,1173.7114,return,0.5357,,49.73958333,,,,,,FBP-OG-91.png,0.35,1.2,41,0.75,,,,,,,,,,,,,,,,,,0,1,1,40,1,,,,,,,,,,,,,,,,,,,,,,,
,,,,,V3_098,18,female,2025-02-04_13h58.04.739,jersey_experiment_5_v3,2023.2.2,Win32,84.03361345,,,,,,,,,,,,,,,,1173.7116,1175.0057,1175.0057,1177.2058,return,0.6258,,99.73958333,,,,,,FBP-RB-91.png,0.45,1.2,60,0.5,,,,,,,,,,,,,,,,,,0,2,2,59,1,,,,,,,,,,,,,,,,,,,,,,,
,,,,,V3_098,18,female,2025-02-04_13h58.04.739,jersey_experiment_5_v3,2023.2.2,Win32,84.03361345,,,,,,,,,,,,,,,,1177.2061,1178.4999,1178.4999,1181.1354,return,0.6089,,87.63020833,,,,,,FBP-YG-18.png,0.4,1.2,8,0.5,,,,,,,,,,,,,,,,,,0,3,3,7,1,,,,,,,,,,,,,,,,,,,,,,,
,,,,,V3_098,18,female,2025-02-04_13h58.04.739,jersey_experiment_5_v3,2023.2.2,Win32,84.03361345,,,,,,,,,,,,,,,,1181.1356,1182.4294,1182.4295,1184.6883,return,0.796,,99.609375,,,,,,FBP-PT-81.png,0.45,1.2,25,0.5,,,,,,,,,,,,,,,,,,0,4,4,24,1,,,,,,,,,,,,,,,,,,,,,,,
,,,,,V3_098,18,female,2025-02-04_13h58.04.739,jersey_experiment_5_v3,2023.2.2,Win32,84.03361345,,,,,,,,,,,,,,,,1184.6885,1185.9827,1185.9827,1188.6769,return,0.8626,,48.95833333,,,,,,FBP-YG-17.png,0.37,1.2,2,0.5,,,,,,,,,,,,,,,,,,0,5,5,1,1,,,,,,,,,,,,,,,,,,,,,,,
,,,,,V3_098,18,female,2025-02-04_13h58.04.739,jersey_experiment_5_v3,2023.2.2,Win32,84.03361345,,,,,,,,,,,,,,,,1188.6771,1190.2298,1190.2299,1192.2181,return,0.6676,,99.609375,,,,,,FBP-OG-71.png,0.45,1.2,35,0.75,,,,,,,,,,,,,,,,,,0,6,6,34,1,,,,,,,,,,,,,,,,,,,,,,,
,,,,,V3_098,18,female,2025-02-04_13h58.04.739,jersey_experiment_5_v3,2023.2.2,Win32,84.03361345,,,,,,,,,,,,,,,,1192.2185,1193.7712,1193.7712,1196.3241,return,0.9098,,24.86979167,,,,,,FBP-OG-71.png,0.35,1.2,31,0.75,,,,,,,,,,,,,,,,,,0,7,7,30,1,,,,,,,,,,,,,,,,,,,,,,,
,,,,,V3_098,18,female,2025-02-04_13h58.04.739,jersey_experiment_5_v3,2023.2.2,Win32,84.03361345,,,,,,,,,,,,,,,,1196.3243,1197.8771,1197.8771,1200.2301,return,0.7768,,98.69791667,,,,,,FBP-OG-81.png,0.4,1.2,38,0.75,,,,,,,,,,,,,,,,,,0,8,8,37,1,,,,,,,,,,,,,,,,,,,,,,,
,,,,,V3_098,18,female,2025-02-04_13h58.04.739,jersey_experiment_5_v3,2023.2.2,Win32,84.03361345,,,,,,,,,,,,,,,,1200.2305,1201.5243,1201.5243,1204.1009,return,0.8266,,74.86979167,,,,,,FBP-PT-91.png,0.4,1.2,28,0.5,,,,,,,,,,,,,,,,,,0,9,9,27,1,,,,,,,,,,,,,,,,,,,,,,,
,,,,,V3_098,18,female,2025-02-04_13h58.04.739,jersey_experiment_5_v3,2023.2.2,Win32,84.03361345,,,,,,,,,,,,,,,,1204.1011,1205.395,1205.3951,1208.6659,return,0.9263,,97.265625,,,,,,FBP-YG-17.png,0.45,1.2,5,0.5,,,,,,,,,,,,,,,,,,0,10,10,4,1,,,,,,,,,,,,,,,,,,,,,,,
,,,,,V3_098,18,female,2025-02-04_13h58.04.739,jersey_experiment_5_v3,2023.2.2,Win32,84.03361345,,,,,,,,,,,,,,,,1208.6662,1209.9599,1209.9599,1212.36,return,0.5885,,12.76041667,,,,,,FBP-RB-71.png,0.35,1.2,46,0.5,,,,,,,,,,,,,,,,,,0,11,11,45,1,,,,,,,,,,,,,,,,,,,,,,,
,,,,,V3_098,18,female,2025-02-04_13h58.04.739,jersey_experiment_5_v3,2023.2.2,Win32,84.03361345,,,,,,,,,,,,,,,,1212.3602,1213.654,1213.6541,1215.6896,return,0.6501,,73.69791667,,,,,,FBP-PT-91.png,0.43,1.2,29,0.5,,,,,,,,,,,,,,,,,,0,12,12,28,1,,,,,,,,,,,,,,,,,,,,,,,
,,,,,V3_098,18,female,2025-02-04_13h58.04.739,jersey_experiment_5_v3,2023.2.2,Win32,84.03361345,,,,,,,,,,,,,,,,1215.6898,1217.2425,1217.2425,1220.6427,return,1.0501,,49.73958333,,,,,,FBP-OG-81.png,0.37,1.2,37,0.75,,,,,,,,,,,,,,,,,,0,13,13,36,1,,,,,,,,,,,,,,,,,,,,,,,
,,,,,V3_098,18,female,2025-02-04_13h58.04.739,jersey_experiment_5_v3,2023.2.2,Win32,84.03361345,,,,,,,,,,,,,,,,1220.643,1221.9368,1221.9369,1235.3138,return,10.6391,,74.34895833,,,,,,FBP-YG-18.png,0.45,1.2,10,0.5,,,,,,,,,,,,,,,,,,0,14,14,9,1,,,,,,,,,,,,,,,,,,,,,,,
,,,,,V3_098,18,female,2025-02-04_13h58.04.739,jersey_experiment_5_v3,2023.2.2,Win32,84.03361345,,,,,,,,,,,,,,,,1235.3141,1236.608,1236.608,1239.3493,return,0.5762,,48.95833333,,,,,,FBP-YG-18.png,0.35,1.2,6,0.5,,,,,,,,,,,,,,,,,,0,15,15,5,1,,,,,,,,,,,,,,,,,,,,,,,
,,,,,V3_098,18,female,2025-02-04_13h58.04.739,jersey_experiment_5_v3,2023.2.2,Win32,84.03361345,,,,,,,,,,,,,,,,1239.3496,1240.6435,1240.6435,1242.7612,return,1.059,,48.95833333,,,,,,FBP-YG-19.png,0.37,1.2,12,0.5,,,,,,,,,,,,,,,,,,0,16,16,11,1,,,,,,,,,,,,,,,,,,,,,,,
,,,,,V3_098,18,female,2025-02-04_13h58.04.739,jersey_experiment_5_v3,2023.2.2,Win32,84.03361345,,,,,,,,,,,,,,,,1242.7614,1244.0554,1244.0555,1246.7731,return,0.4949,,98.95833333,,,,,,FBP-RB-71.png,0.45,1.2,50,0.5,,,,,,,,,,,,,,,,,,0,17,17,49,1,,,,,,,,,,,,,,,,,,,,,,,
,,,,,V3_098,18,female,2025-02-04_13h58.04.739,jersey_experiment_5_v3,2023.2.2,Win32,84.03361345,,,,,,,,,,,,,,,,1246.7733,1248.0674,1248.0674,1250.7615,return,0.6591,,74.47916667,,,,,,FBP-YG-19.png,0.35,1.2,11,0.5,,,,,,,,,,,,,,,,,,0,18,18,10,1,,,,,,,,,,,,,,,,,,,,,,,
,,,,,V3_098,18,female,2025-02-04_13h58.04.739,jersey_experiment_5_v3,2023.2.2,Win32,84.03361345,,,,,,,,,,,,,,,,1250.7617,1252.0558,1252.0558,1254.8558,return,2.0816,,50,,,,,,FBP-PT-91.png,0.37,1.2,27,0.5,,,,,,,,,,,,,,,,,,0,19,19,26,1,,,,,,,,,,,,,,,,,,,,,,,
,,,,,V3_098,18,female,2025-02-04_13h58.04.739,jersey_experiment_5_v3,2023.2.2,Win32,84.03361345,,,,,,,,,,,,,,,,1254.856,1256.1506,1256.1506,1257.2324,return,0.4314,,49.86979167,,,,,,FBP-PT-71.png,0.35,1.2,16,0.5,,,,,,,,,,,,,,,,,,0,20,20,15,1,,,,,,,,,,,,,,,,,,,,,,,
,,,,,V3_098,18,female,2025-02-04_13h58.04.739,jersey_experiment_5_v3,2023.2.2,Win32,84.03361345,,,,,,,,,,,,,,,,1257.2326,1258.5265,1258.5266,1260.2443,return,0.4273,,49.86979167,,,,,,FBP-PT-71.png,0.37,1.2,17,0.5,,,,,,,,,,,,,,,,,,0,21,21,16,1,,,,,,,,,,,,,,,,,,,,,,,
,,,,,V3_098,18,female,2025-02-04_13h58.04.739,jersey_experiment_5_v3,2023.2.2,Win32,84.03361345,,,,,,,,,,,,,,,,1260.2445,1261.5384,1261.5384,1264.3385,return,0.4527,,58.984375,,,,,,FBP-RB-91.png,0.37,1.2,57,0.5,,,,,,,,,,,,,,,,,,0,22,22,56,1,,,,,,,,,,,,,,,,,,,,,,,
,,,,,V3_098,18,female,2025-02-04_13h58.04.739,jersey_experiment_5_v3,2023.2.2,Win32,84.03361345,,,,,,,,,,,,,,,,1264.3387,1265.6327,1265.6327,1269.6564,return,1.655,,73.56770833,,,,,,FBP-RB-71.png,0.4,1.2,48,0.5,,,,,,,,,,,,,,,,,,0,23,23,47,1,,,,,,,,,,,,,,,,,,,,,,,
,,,,,V3_098,18,female,2025-02-04_13h58.04.739,jersey_experiment_5_v3,2023.2.2,Win32,84.03361345,,,,,,,,,,,,,,,,1269.6566,1270.9506,1270.9506,1273.033,return,0.3924,,28.125,,,,,,FBP-RB-91.png,0.35,1.2,56,0.5,,,,,,,,,,,,,,,,,,0,24,24,55,1,,,,,,,,,,,,,,,,,,,,,,,
,,,,,V3_098,18,female,2025-02-04_13h58.04.739,jersey_experiment_5_v3,2023.2.2,Win32,84.03361345,,,,,,,,,,,,,,,,1273.0333,1274.586,1274.586,1277.2801,return,0.3845,,63.28125,,,,,,FBP-OG-91.png,0.4,1.2,43,0.75,,,,,,,,,,,,,,,,,,0,25,25,42,1,,,,,,,,,,,,,,,,,,,,,,,
,,,,,V3_098,18,female,2025-02-04_13h58.04.739,jersey_experiment_5_v3,2023.2.2,Win32,84.03361345,,,,,,,,,,,,,,,,1277.2803,1278.5743,1278.5744,1280.1157,return,0.542,,63.28125,,,,,,FBP-PT-81.png,0.37,1.2,22,0.5,,,,,,,,,,,,,,,,,,0,26,26,21,1,,,,,,,,,,,,,,,,,,,,,,,
,,,,,V3_098,18,female,2025-02-04_13h58.04.739,jersey_experiment_5_v3,2023.2.2,Win32,84.03361345,,,,,,,,,,,,,,,,1280.1158,1281.6687,1281.6687,1283.1275,return,0.3774,,84.89583333,,,,,,FBP-OG-71.png,0.43,1.2,34,0.75,,,,,,,,,,,,,,,,,,0,27,27,33,1,,,,,,,,,,,,,,,,,,,,,,,
,,,,,V3_098,18,female,2025-02-04_13h58.04.739,jersey_experiment_5_v3,2023.2.2,Win32,84.03361345,,,,,,,,,,,,,,,,1283.1278,1284.6806,1284.6806,1288.1041,return,0.5882,,95.703125,,,,,,FBP-OG-81.png,0.43,1.2,39,0.75,,,,,,,,,,,,,,,,,,0,28,28,38,1,,,,,,,,,,,,,,,,,,,,,,,
,,,,,V3_098,18,female,2025-02-04_13h58.04.739,jersey_experiment_5_v3,2023.2.2,Win32,84.03361345,,,,,,,,,,,,,,,,1288.1044,1289.3982,1289.3982,1290.8807,return,0.4384,,95.703125,,,,,,FBP-PT-81.png,0.43,1.2,24,0.5,,,,,,,,,,,,,,,,,,0,29,29,23,1,,,,,,,,,,,,,,,,,,,,,,,
,,,,,V3_098,18,female,2025-02-04_13h58.04.739,jersey_experiment_5_v3,2023.2.2,Win32,84.03361345,,,,,,,,,,,,,,,,1290.8809,1292.1749,1292.1749,1294.1278,return,0.3247,,59.375,,,,,,FBP-RB-81.png,0.37,1.2,52,0.5,,,,,,,,,,,,,,,,,,0,30,30,51,1,,,,,,,,,,,,,,,,,,,,,,,
,,,,,V3_098,18,female,2025-02-04_13h58.04.739,jersey_experiment_5_v3,2023.2.2,Win32,84.03361345,,,,,,,,,,,,,,,,1294.128,1295.422,1295.4221,1297.5398,return,0.522,,96.875,,,,,,FBP-YG-18.png,0.43,1.2,9,0.5,,,,,,,,,,,,,,,,,,0,31,31,8,1,,,,,,,,,,,,,,,,,,,,,,,
,,,,,V3_098,18,female,2025-02-04_13h58.04.739,jersey_experiment_5_v3,2023.2.2,Win32,84.03361345,,,,,,,,,,,,,,,,1297.54,1298.834,1298.834,1301.2341,return,0.5944,,99.47916667,,,,,,FBP-PT-91.png,0.45,1.2,30,0.5,,,,,,,,,,,,,,,,,,0,32,32,29,1,,,,,,,,,,,,,,,,,,,,,,,
,,,,,V3_098,18,female,2025-02-04_13h58.04.739,jersey_experiment_5_v3,2023.2.2,Win32,84.03361345,,,,,,,,,,,,,,,,1301.2344,1302.5281,1302.5281,1304.2578,return,0.2624,,49.34895833,,,,,,FBP-RB-91.png,0.4,1.2,58,0.5,,,,,,,,,,,,,,,,,,0,33,33,57,1,,,,,,,,,,,,,,,,,,,,,,,
,,,,,V3_098,18,female,2025-02-04_13h58.04.739,jersey_experiment_5_v3,2023.2.2,Win32,84.03361345,,,,,,,,,,,,,,,,1304.258,1305.5518,1305.5518,1307.3284,return,0.2753,,65.36458333,,,,,,FBP-PT-71.png,0.4,1.2,18,0.5,,,,,,,,,,,,,,,,,,0,34,34,17,1,,,,,,,,,,,,,,,,,,,,,,,
,,,,,V3_098,18,female,2025-02-04_13h58.04.739,jersey_experiment_5_v3,2023.2.2,Win32,84.03361345,,,,,,,,,,,,,,,,1307.3285,1308.6225,1308.6225,1310.9286,return,0.4879,,93.22916667,,,,,,FBP-YG-17.png,0.43,1.2,4,0.5,,,,,,,,,,,,,,,,,,0,35,35,3,1,,,,,,,,,,,,,,,,,,,,,,,
,,,,,V3_098,18,female,2025-02-04_13h58.04.739,jersey_experiment_5_v3,2023.2.2,Win32,84.03361345,,,,,,,,,,,,,,,,1310.9289,1312.2228,1312.2228,1314.3875,return,0.4829,,92.1875,,,,,,FBP-PT-71.png,0.43,1.2,19,0.5,,,,,,,,,,,,,,,,,,0,36,36,18,1,,,,,,,,,,,,,,,,,,,,,,,
,,,,,V3_098,18,female,2025-02-04_13h58.04.739,jersey_experiment_5_v3,2023.2.2,Win32,84.03361345,,,,,,,,,,,,,,,,1314.3878,1315.9406,1315.9407,1318.1523,return,0.3378,,75.26041667,,,,,,FBP-OG-91.png,0.37,1.2,42,0.75,,,,,,,,,,,,,,,,,,0,37,37,41,1,,,,,,,,,,,,,,,,,,,,,,,
,,,,,V3_098,18,female,2025-02-04_13h58.04.739,jersey_experiment_5_v3,2023.2.2,Win32,84.03361345,,,,,,,,,,,,,,,,1318.1526,1319.4465,1319.4465,1320.9289,return,0.2659,,50.390625,,,,,,FBP-RB-71.png,0.37,1.2,47,0.5,,,,,,,,,,,,,,,,,,0,38,38,46,1,,,,,,,,,,,,,,,,,,,,,,,
,,,,,V3_098,18,female,2025-02-04_13h58.04.739,jersey_experiment_5_v3,2023.2.2,Win32,84.03361345,,,,,,,,,,,,,,,,1320.9292,1322.2231,1322.2232,1324.7761,return,0.8151,,93.09895833,,,,,,FBP-PT-71.png,0.45,1.2,20,0.5,,,,,,,,,,,,,,,,,,0,39,39,19,1,,,,,,,,,,,,,,,,,,,,,,,
,,,,,V3_098,18,female,2025-02-04_13h58.04.739,jersey_experiment_5_v3,2023.2.2,Win32,84.03361345,,,,,,,,,,,,,,,,1324.7764,1326.0703,1326.0704,1328.1527,return,0.353,,72.91666667,,,,,,FBP-RB-91.png,0.43,1.2,59,0.5,,,,,,,,,,,,,,,,,,0,40,40,58,1,,,,,,,,,,,,,,,,,,,,,,,
,,,,,V3_098,18,female,2025-02-04_13h58.04.739,jersey_experiment_5_v3,2023.2.2,Win32,84.03361345,,,,,,,,,,,,,,,,1328.1531,1329.7057,1329.7058,1331.6704,return,0.6507,,51.04166667,,,,,,FBP-OG-81.png,0.35,1.2,36,0.75,,,,,,,,,,,,,,,,,,0,41,41,35,1,,,,,,,,,,,,,,,,,,,,,,,
,,,,,V3_098,18,female,2025-02-04_13h58.04.739,jersey_experiment_5_v3,2023.2.2,Win32,84.03361345,,,,,,,,,,,,,,,,1331.6707,1332.9647,1332.9648,1335.8471,return,0.2834,,97.52604167,,,,,,FBP-YG-19.png,0.45,1.2,15,0.5,,,,,,,,,,,,,,,,,,0,42,42,14,1,,,,,,,,,,,,,,,,,,,,,,,
,,,,,V3_098,18,female,2025-02-04_13h58.04.739,jersey_experiment_5_v3,2023.2.2,Win32,84.03361345,,,,,,,,,,,,,,,,1335.8474,1337.4002,1337.4002,1338.8239,return,0.3523,,73.4375,,,,,,FBP-OG-71.png,0.37,1.2,32,0.75,,,,,,,,,,,,,,,,,,0,43,43,31,1,,,,,,,,,,,,,,,,,,,,,,,
,,,,,V3_098,18,female,2025-02-04_13h58.04.739,jersey_experiment_5_v3,2023.2.2,Win32,84.03361345,,,,,,,,,,,,,,,,1338.8241,1340.118,1340.118,1341.5062,return,0.2532,,86.328125,,,,,,FBP-YG-17.png,0.4,1.2,3,0.5,,,,,,,,,,,,,,,,,,0,44,44,2,1,,,,,,,,,,,,,,,,,,,,,,,
,,,,,V3_098,18,female,2025-02-04_13h58.04.739,jersey_experiment_5_v3,2023.2.2,Win32,84.03361345,,,,,,,,,,,,,,,,1341.5064,1342.8004,1342.8005,1344.3534,return,0.2776,,50.26041667,,,,,,FBP-YG-17.png,0.35,1.2,1,0.5,,,,,,,,,,,,,,,,,,0,45,45,0,1,,,,,,,,,,,,,,,,,,,,,,,
,,,,,V3_098,18,female,2025-02-04_13h58.04.739,jersey_experiment_5_v3,2023.2.2,Win32,84.03361345,,,,,,,,,,,,,,,,1344.3536,1345.6475,1345.6476,1347.7182,return,0.2965,,51.04166667,,,,,,FBP-PT-91.png,0.35,1.2,26,0.5,,,,,,,,,,,,,,,,,,0,46,46,25,1,,,,,,,,,,,,,,,,,,,,,,,
,,,,,V3_098,18,female,2025-02-04_13h58.04.739,jersey_experiment_5_v3,2023.2.2,Win32,84.03361345,,,,,,,,,,,,,,,,1347.7184,1349.0124,1349.0125,1350.6948,return,0.2454,,36.71875,,,,,,FBP-RB-81.png,0.35,1.2,51,0.5,,,,,,,,,,,,,,,,,,0,47,47,50,1,,,,,,,,,,,,,,,,,,,,,,,
,,,,,V3_098,18,female,2025-02-04_13h58.04.739,jersey_experiment_5_v3,2023.2.2,Win32,84.03361345,,,,,,,,,,,,,,,,1350.6952,1352.2479,1352.248,1353.8949,return,0.2366,,86.71875,,,,,,FBP-OG-91.png,0.43,1.2,44,0.75,,,,,,,,,,,,,,,,,,0,48,48,43,1,,,,,,,,,,,,,,,,,,,,,,,
,,,,,V3_098,18,female,2025-02-04_13h58.04.739,jersey_experiment_5_v3,2023.2.2,Win32,84.03361345,,,,,,,,,,,,,,,,1353.8952,1355.1891,1355.1891,1358.801,return,0.3249,,35.80729167,,,,,,FBP-PT-81.png,0.35,1.2,21,0.5,,,,,,,,,,,,,,,,,,0,49,49,20,1,,,,,,,,,,,,,,,,,,,,,,,
,,,,,V3_098,18,female,2025-02-04_13h58.04.739,jersey_experiment_5_v3,2023.2.2,Win32,84.03361345,,,,,,,,,,,,,,,,1358.8013,1360.0952,1360.0952,1361.401,return,0.4002,,49.609375,,,,,,FBP-RB-81.png,0.4,1.2,53,0.5,,,,,,,,,,,,,,,,,,0,50,50,52,1,,,,,,,,,,,,,,,,,,,,,,,
,,,,,V3_098,18,female,2025-02-04_13h58.04.739,jersey_experiment_5_v3,2023.2.2,Win32,84.03361345,,,,,,,,,,,,,,,,1361.4013,1362.9541,1362.9541,1365.1306,return,0.4324,,93.61979167,,,,,,FBP-OG-81.png,0.45,1.2,40,0.75,,,,,,,,,,,,,,,,,,0,51,51,39,1,,,,,,,,,,,,,,,,,,,,,,,
,,,,,V3_098,18,female,2025-02-04_13h58.04.739,jersey_experiment_5_v3,2023.2.2,Win32,84.03361345,,,,,,,,,,,,,,,,1365.1308,1366.4248,1366.4249,1368.0954,return,0.3016,,72.265625,,,,,,FBP-YG-19.png,0.4,1.2,13,0.5,,,,,,,,,,,,,,,,,,0,52,52,12,1,,,,,,,,,,,,,,,,,,,,,,,
,,,,,V3_098,18,female,2025-02-04_13h58.04.739,jersey_experiment_5_v3,2023.2.2,Win32,84.03361345,,,,,,,,,,,,,,,,1368.0956,1369.6483,1369.6484,1370.8485,return,0.2664,,92.83854167,,,,,,FBP-OG-91.png,0.45,1.2,45,0.75,,,,,,,,,,,,,,,,,,0,53,53,44,1,,,,,,,,,,,,,,,,,,,,,,,
,,,,,V3_098,18,female,2025-02-04_13h58.04.739,jersey_experiment_5_v3,2023.2.2,Win32,84.03361345,,,,,,,,,,,,,,,,1370.8487,1372.1426,1372.1426,1374.1546,return,0.2988,,73.4375,,,,,,FBP-RB-71.png,0.43,1.2,49,0.5,,,,,,,,,,,,,,,,,,0,54,54,48,1,,,,,,,,,,,,,,,,,,,,,,,
,,,,,V3_098,18,female,2025-02-04_13h58.04.739,jersey_experiment_5_v3,2023.2.2,Win32,84.03361345,,,,,,,,,,,,,,,,1374.1548,1375.4487,1375.4488,1377.0958,return,1.119,,73.56770833,,,,,,FBP-PT-81.png,0.4,1.2,23,0.5,,,,,,,,,,,,,,,,,,0,55,55,22,1,,,,,,,,,,,,,,,,,,,,,,,
,,,,,V3_098,18,female,2025-02-04_13h58.04.739,jersey_experiment_5_v3,2023.2.2,Win32,84.03361345,,,,,,,,,,,,,,,,1377.0961,1378.39,1378.3901,1380.5783,return,0.3003,,91.14583333,,,,,,FBP-YG-19.png,0.43,1.2,14,0.5,,,,,,,,,,,,,,,,,,0,56,56,13,1,,,,,,,,,,,,,,,,,,,,,,,
,,,,,V3_098,18,female,2025-02-04_13h58.04.739,jersey_experiment_5_v3,2023.2.2,Win32,84.03361345,,,,,,,,,,,,,,,,1380.5785,1381.8726,1381.8726,1384.0373,return,0.5333,,98.95833333,,,,,,FBP-RB-81.png,0.45,1.2,55,0.5,,,,,,,,,,,,,,,,,,0,57,57,54,1,,,,,,,,,,,,,,,,,,,,,,,
,,,,,V3_098,18,female,2025-02-04_13h58.04.739,jersey_experiment_5_v3,2023.2.2,Win32,84.03361345,,,,,,,,,,,,,,,,1384.0376,1385.3314,1385.3314,1387.2491,return,0.6042,,36.19791667,,,,,,FBP-YG-18.png,0.37,1.2,7,0.5,,,,,,,,,,,,,,,,,,0,58,58,6,1,,,,,,,,,,,,,,,,,,,,,,,
,,,,,V3_098,18,female,2025-02-04_13h58.04.739,jersey_experiment_5_v3,2023.2.2,Win32,84.03361345,,,,,,,,,,,,,,,,1387.2494,1388.5433,1388.5433,1390.1787,return,0.2768,,50.91145833,,,,,,FBP-RB-81.png,0.43,1.2,54,0.5,,,,,,,,,,,,,,,,,,0,59,59,53,1,,,,,,,,,,,,,,,,,,,,,,,
,,,,,V3_098,18,female,2025-02-04_13h58.04.739,jersey_experiment_5_v3,2023.2.2,Win32,84.03361345,,,,,,,,,,,,,,,,,,,,,,,,,,,,,,,,,,,,,,,,,,,,,,,,,,,,,,,,1390.1789,1396.6262,return,6.4416,,,,,,,,,,,,,,,,,,,
,,,,,V3_098,18,female,2025-02-04_13h58.04.739,jersey_experiment_5_v3,2023.2.2,Win32,84.03361345,,,,,,,,,,,,,,,,,,,,,,,,,,,,,,,,,,,,,,,,,,,,,,,,,,,,,,,,,,,,,1396.6263,1403.3793,1,4.3969,return,2.3457,,,,,,,,,,,,
,,,,,V3_098,18,female,2025-02-04_13h58.04.739,jersey_experiment_5_v3,2023.2.2,Win32,84.03361345,,,,,,,,,,,,,,,,,,,,,,,,,,,,,,,,,,,,,,,,,,,,,,,,,,,,,,,,,,,,,,,,,,,,1403.3795,1445.2755,I think this is a study on how we percieve things ,right,32.2146,,,,,,
,,,,,V3_098,18,female,2025-02-04_13h58.04.739,jersey_experiment_5_v3,2023.2.2,Win32,84.03361345,,,,,,,,,,,,,,,,,,,,,,,,,,,,,,,,,,,,,,,,,,,,,,,,,,,,,,,,,,,,,,,,,,,,,,,,,,1445.2756,1453.8166,return,8.5295,