requirements.started,requirements.stopped,key_resp_3.keys,key_resp_3.rt,key_resp_3.duration,Subject ID,Age,Gender,date,expName,psychopyVersion,OS,frameRate,instructions1.started,instructions1.stopped,key_resp.keys,key_resp.rt,key_resp.duration,example.started,example.stopped,enter_2.keys,enter_2.rt,enter_2.duration,instructions2.started,instructions2.stopped,enter_3.keys,enter_3.rt,enter_3.duration,image.started,image.stopped,slider_2.started,slider_2.stopped,next.keys,next.rt,next.duration,slider.response,trial_block_1.thisRepN,trial_block_1.thisTrialN,trial_block_1.thisN,trial_block_1.thisIndex,trial_block_1.ran,Path,Width,Height,Index,Duration,trial_block_2.thisRepN,trial_block_2.thisTrialN,trial_block_2.thisN,trial_block_2.thisIndex,trial_block_2.ran,rest_break.started,rest_break.stopped,end_break.started,end_break.stopped,key_resp_5.keys,key_resp_5.rt,key_resp_5.duration,trial_block_3.thisRepN,trial_block_3.thisTrialN,trial_block_3.thisN,trial_block_3.thisIndex,trial_block_3.ran,trial_block_4.thisRepN,trial_block_4.thisTrialN,trial_block_4.thisN,trial_block_4.thisIndex,trial_block_4.ran,questions_intro.started,questions_intro.stopped,enter_12.keys,enter_12.rt,enter_12.duration,question2.started,question2.stopped,question_doingbest.response,question_doingbest.rt,enter_15.keys,enter_15.rt,enter_15.duration,pattern.started,pattern.stopped,pattern_2.text,enter_17.keys,enter_17.rt,enter_17.duration,thankyou.started,thankyou.stopped,enter_14.keys,enter_14.rt,enter_14.duration
0.0002,7.3402,return,7.3346,,V3_032,20,female,2024-10-21_17h42.56.213,jersey_experiment_5_v3,2023.2.2,Win32,85.47008547,,,,,,,,,,,,,,,,,,,,,,,,,,,,,,,,,,,,,,,,,,,,,,,,,,,,,,,,,,,,,,,,,,,,,,,,,,,,,,
,,,,,V3_032,20,female,2024-10-21_17h42.56.213,jersey_experiment_5_v3,2023.2.2,Win32,85.47008547,7.3403,13.3874,return,6.0305,,,,,,,,,,,,,,,,,,,,,,,,,,,,,,,,,,,,,,,,,,,,,,,,,,,,,,,,,,,,,,,,,,,,,,,,,,
,,,,,V3_032,20,female,2024-10-21_17h42.56.213,jersey_experiment_5_v3,2023.2.2,Win32,85.47008547,,,,,,13.3875,16.0347,return,2.6085,,,,,,,,,,,,,,,,,,,,,,,,,,,,,,,,,,,,,,,,,,,,,,,,,,,,,,,,,,,,,,,,,,,,,
,,,,,V3_032,20,female,2024-10-21_17h42.56.213,jersey_experiment_5_v3,2023.2.2,Win32,85.47008547,,,,,,,,,,,16.0348,32.4116,return,16.3707,,,,,,,,,,,,,,,,,,,,,,,,,,,,,,,,,,,,,,,,,,,,,,,,,,,,,,,,,,,,,,,,
,,,,,V3_032,20,female,2024-10-21_17h42.56.213,jersey_experiment_5_v3,2023.2.2,Win32,85.47008547,,,,,,,,,,,,,,,,32.4143,33.7058,33.7059,38.706,return,2.9419,,49.73958333,0,0,0,31,1,FBP-OG-17.png,0.37,1.2,32,0.5,,,,,,,,,,,,,,,,,,,,,,,,,,,,,,,,,,,,,,,,,,,,,
,,,,,V3_032,20,female,2024-10-21_17h42.56.213,jersey_experiment_5_v3,2023.2.2,Win32,85.47008547,,,,,,,,,,,,,,,,38.7063,40.2589,40.2589,41.9649,return,0.2165,,75,0,1,1,10,1,FBP-YG-91.png,0.35,1.2,11,0.75,,,,,,,,,,,,,,,,,,,,,,,,,,,,,,,,,,,,,,,,,,,,,
,,,,,V3_032,20,female,2024-10-21_17h42.56.213,jersey_experiment_5_v3,2023.2.2,Win32,85.47008547,,,,,,,,,,,,,,,,41.9652,43.259,43.2591,48.4593,return,2.5702,,74.86979167,0,2,2,36,1,FBP-OG-18.png,0.37,1.2,37,0.5,,,,,,,,,,,,,,,,,,,,,,,,,,,,,,,,,,,,,,,,,,,,,
,,,,,V3_032,20,female,2024-10-21_17h42.56.213,jersey_experiment_5_v3,2023.2.2,Win32,85.47008547,,,,,,,,,,,,,,,,48.4596,50.0125,50.0125,52.9419,return,0.9802,,98.56770833,0,3,3,29,1,FBP-PT-19.png,0.45,1.2,30,0.75,,,,,,,,,,,,,,,,,,,,,,,,,,,,,,,,,,,,,,,,,,,,,
,,,,,V3_032,20,female,2024-10-21_17h42.56.213,jersey_experiment_5_v3,2023.2.2,Win32,85.47008547,,,,,,,,,,,,,,,,52.9423,54.4948,54.4948,57.3302,return,1.637,,48.69791667,0,4,4,45,1,FBP-RB-17.png,0.35,1.2,46,0.75,,,,,,,,,,,,,,,,,,,,,,,,,,,,,,,,,,,,,,,,,,,,,
,,,,,V3_032,20,female,2024-10-21_17h42.56.213,jersey_experiment_5_v3,2023.2.2,Win32,85.47008547,,,,,,,,,,,,,,,,57.3304,58.8832,58.8833,60.7656,return,0.7796,,55.20833333,0,5,5,0,1,FBP-YG-71.png,0.35,1.2,1,0.75,,,,,,,,,,,,,,,,,,,,,,,,,,,,,,,,,,,,,,,,,,,,,
,,,,,V3_032,20,female,2024-10-21_17h42.56.213,jersey_experiment_5_v3,2023.2.2,Win32,85.47008547,,,,,,,,,,,,,,,,60.7659,62.3185,62.3186,65.8835,return,0.7923,,90.49479167,0,6,6,23,1,FBP-PT-18.png,0.43,1.2,24,0.75,,,,,,,,,,,,,,,,,,,,,,,,,,,,,,,,,,,,,,,,,,,,,
,,,,,V3_032,20,female,2024-10-21_17h42.56.213,jersey_experiment_5_v3,2023.2.2,Win32,85.47008547,,,,,,,,,,,,,,,,65.8838,67.4365,67.4365,69.4836,return,0.4778,,99.47916667,0,7,7,52,1,FBP-RB-18.png,0.4,1.2,53,0.75,,,,,,,,,,,,,,,,,,,,,,,,,,,,,,,,,,,,,,,,,,,,,
,,,,,V3_032,20,female,2024-10-21_17h42.56.213,jersey_experiment_5_v3,2023.2.2,Win32,85.47008547,,,,,,,,,,,,,,,,69.4839,71.0368,71.0368,72.3662,return,0.393,,99.609375,0,8,8,4,1,FBP-YG-71.png,0.45,1.2,5,0.75,,,,,,,,,,,,,,,,,,,,,,,,,,,,,,,,,,,,,,,,,,,,,
,,,,,V3_032,20,female,2024-10-21_17h42.56.213,jersey_experiment_5_v3,2023.2.2,Win32,85.47008547,,,,,,,,,,,,,,,,72.3664,73.9191,73.9191,75.5308,return,0.2431,,63.671875,0,9,9,55,1,FBP-RB-19.png,0.35,1.2,56,0.75,,,,,,,,,,,,,,,,,,,,,,,,,,,,,,,,,,,,,,,,,,,,,
,,,,,V3_032,20,female,2024-10-21_17h42.56.213,jersey_experiment_5_v3,2023.2.2,Win32,85.47008547,,,,,,,,,,,,,,,,75.5311,77.0839,77.084,79.5193,return,0.2507,,74.34895833,0,10,10,16,1,FBP-PT-17.png,0.37,1.2,17,0.75,,,,,,,,,,,,,,,,,,,,,,,,,,,,,,,,,,,,,,,,,,,,,
,,,,,V3_032,20,female,2024-10-21_17h42.56.213,jersey_experiment_5_v3,2023.2.2,Win32,85.47008547,,,,,,,,,,,,,,,,79.5195,80.8133,80.8133,83.79,return,0.4519,,99.08854167,0,11,11,33,1,FBP-OG-17.png,0.43,1.2,34,0.5,,,,,,,,,,,,,,,,,,,,,,,,,,,,,,,,,,,,,,,,,,,,,
,,,,,V3_032,20,female,2024-10-21_17h42.56.213,jersey_experiment_5_v3,2023.2.2,Win32,85.47008547,,,,,,,,,,,,,,,,83.7902,85.343,85.343,86.8959,return,0.3195,,99.34895833,0,12,12,28,1,FBP-PT-19.png,0.43,1.2,29,0.75,,,,,,,,,,,,,,,,,,,,,,,,,,,,,,,,,,,,,,,,,,,,,
,,,,,V3_032,20,female,2024-10-21_17h42.56.213,jersey_experiment_5_v3,2023.2.2,Win32,85.47008547,,,,,,,,,,,,,,,,86.8962,88.4491,88.4492,89.6137,return,0.1896,,98.95833333,0,13,13,24,1,FBP-PT-18.png,0.45,1.2,25,0.75,,,,,,,,,,,,,,,,,,,,,,,,,,,,,,,,,,,,,,,,,,,,,
,,,,,V3_032,20,female,2024-10-21_17h42.56.213,jersey_experiment_5_v3,2023.2.2,Win32,85.47008547,,,,,,,,,,,,,,,,89.614,91.1669,91.167,93.7904,return,0.2003,,70.96354167,0,14,14,15,1,FBP-PT-17.png,0.35,1.2,16,0.75,,,,,,,,,,,,,,,,,,,,,,,,,,,,,,,,,,,,,,,,,,,,,
,,,,,V3_032,20,female,2024-10-21_17h42.56.213,jersey_experiment_5_v3,2023.2.2,Win32,85.47008547,,,,,,,,,,,,,,,,93.7906,95.3433,95.3434,96.7551,return,0.1727,,50.390625,0,15,15,20,1,FBP-PT-18.png,0.35,1.2,21,0.75,,,,,,,,,,,,,,,,,,,,,,,,,,,,,,,,,,,,,,,,,,,,,
,,,,,V3_032,20,female,2024-10-21_17h42.56.213,jersey_experiment_5_v3,2023.2.2,Win32,85.47008547,,,,,,,,,,,,,,,,96.7553,98.0494,98.0495,99.167,return,0.2271,,65.36458333,0,16,16,32,1,FBP-OG-17.png,0.4,1.2,33,0.5,,,,,,,,,,,,,,,,,,,,,,,,,,,,,,,,,,,,,,,,,,,,,
,,,,,V3_032,20,female,2024-10-21_17h42.56.213,jersey_experiment_5_v3,2023.2.2,Win32,85.47008547,,,,,,,,,,,,,,,,99.1671,100.4611,100.4611,101.3906,return,0.1789,,75,0,17,17,42,1,FBP-OG-19.png,0.4,1.2,43,0.5,,,,,,,,,,,,,,,,,,,,,,,,,,,,,,,,,,,,,,,,,,,,,
,,,,,V3_032,20,female,2024-10-21_17h42.56.213,jersey_experiment_5_v3,2023.2.2,Win32,85.47008547,,,,,,,,,,,,,,,,101.3908,102.6847,102.6848,103.5318,return,0.1793,,75,0,18,18,41,1,FBP-OG-19.png,0.37,1.2,42,0.5,,,,,,,,,,,,,,,,,,,,,,,,,,,,,,,,,,,,,,,,,,,,,
,,,,,V3_032,20,female,2024-10-21_17h42.56.213,jersey_experiment_5_v3,2023.2.2,Win32,85.47008547,,,,,,,,,,,,,,,,103.5321,104.8261,104.8261,106.4144,return,0.2045,,88.93229167,0,19,19,37,1,FBP-OG-18.png,0.4,1.2,38,0.5,,,,,,,,,,,,,,,,,,,,,,,,,,,,,,,,,,,,,,,,,,,,,
,,,,,V3_032,20,female,2024-10-21_17h42.56.213,jersey_experiment_5_v3,2023.2.2,Win32,85.47008547,,,,,,,,,,,,,,,,106.4147,107.9673,107.9674,108.7086,return,0.1411,,66.14583333,0,20,20,21,1,FBP-PT-18.png,0.37,1.2,22,0.75,,,,,,,,,,,,,,,,,,,,,,,,,,,,,,,,,,,,,,,,,,,,,
,,,,,V3_032,20,female,2024-10-21_17h42.56.213,jersey_experiment_5_v3,2023.2.2,Win32,85.47008547,,,,,,,,,,,,,,,,108.7089,110.2616,110.2617,111.1793,return,0.1251,,99.73958333,0,21,21,14,1,FBP-YG-91.png,0.45,1.2,15,0.75,,,,,,,,,,,,,,,,,,,,,,,,,,,,,,,,,,,,,,,,,,,,,
,,,,,V3_032,20,female,2024-10-21_17h42.56.213,jersey_experiment_5_v3,2023.2.2,Win32,85.47008547,,,,,,,,,,,,,,,,111.1795,112.7324,112.7324,115.1793,return,0.0386,,49.609375,0,22,22,46,1,FBP-RB-17.png,0.37,1.2,47,0.75,,,,,,,,,,,,,,,,,,,,,,,,,,,,,,,,,,,,,,,,,,,,,
,,,,,V3_032,20,female,2024-10-21_17h42.56.213,jersey_experiment_5_v3,2023.2.2,Win32,85.47008547,,,,,,,,,,,,,,,,115.1796,116.7324,116.7324,117.8854,return,0.1232,,98.95833333,0,23,23,59,1,FBP-RB-19.png,0.45,1.2,60,0.75,,,,,,,,,,,,,,,,,,,,,,,,,,,,,,,,,,,,,,,,,,,,,
,,,,,V3_032,20,female,2024-10-21_17h42.56.213,jersey_experiment_5_v3,2023.2.2,Win32,85.47008547,,,,,,,,,,,,,,,,117.8857,119.4383,119.4383,120.5913,return,0.1682,,99.86979167,0,24,24,19,1,FBP-PT-17.png,0.45,1.2,20,0.75,,,,,,,,,,,,,,,,,,,,,,,,,,,,,,,,,,,,,,,,,,,,,
,,,,,V3_032,20,female,2024-10-21_17h42.56.213,jersey_experiment_5_v3,2023.2.2,Win32,85.47008547,,,,,,,,,,,,,,,,120.5915,121.8854,121.8855,123.4032,return,0.2075,,99.47916667,0,25,25,44,1,FBP-OG-19.png,0.45,1.2,45,0.5,,,,,,,,,,,,,,,,,,,,,,,,,,,,,,,,,,,,,,,,,,,,,
,,,,,V3_032,20,female,2024-10-21_17h42.56.213,jersey_experiment_5_v3,2023.2.2,Win32,85.47008547,,,,,,,,,,,,,,,,123.4034,124.9563,124.9564,126.0504,return,0.1887,,69.79166667,0,26,26,1,1,FBP-YG-71.png,0.37,1.2,2,0.75,,,,,,,,,,,,,,,,,,,,,,,,,,,,,,,,,,,,,,,,,,,,,
,,,,,V3_032,20,female,2024-10-21_17h42.56.213,jersey_experiment_5_v3,2023.2.2,Win32,85.47008547,,,,,,,,,,,,,,,,126.0508,127.6033,127.6033,128.5092,return,0.2997,,86.97916667,0,27,27,18,1,FBP-PT-17.png,0.43,1.2,19,0.75,,,,,,,,,,,,,,,,,,,,,,,,,,,,,,,,,,,,,,,,,,,,,
,,,,,V3_032,20,female,2024-10-21_17h42.56.213,jersey_experiment_5_v3,2023.2.2,Win32,85.47008547,,,,,,,,,,,,,,,,128.5095,130.0625,130.0625,130.7211,return,0.0918,,95.57291667,0,28,28,58,1,FBP-RB-19.png,0.43,1.2,59,0.75,,,,,,,,,,,,,,,,,,,,,,,,,,,,,,,,,,,,,,,,,,,,,
,,,,,V3_032,20,female,2024-10-21_17h42.56.213,jersey_experiment_5_v3,2023.2.2,Win32,85.47008547,,,,,,,,,,,,,,,,130.7215,132.0152,132.0152,132.9095,return,0.1186,,93.75,0,29,29,43,1,FBP-OG-19.png,0.43,1.2,44,0.5,,,,,,,,,,,,,,,,,,,,,,,,,,,,,,,,,,,,,,,,,,,,,
,,,,,V3_032,20,female,2024-10-21_17h42.56.213,jersey_experiment_5_v3,2023.2.2,Win32,85.47008547,,,,,,,,,,,,,,,,132.9097,134.2037,134.2037,135.5331,return,0.1809,,49.47916667,0,30,30,35,1,FBP-OG-18.png,0.35,1.2,36,0.5,,,,,,,,,,,,,,,,,,,,,,,,,,,,,,,,,,,,,,,,,,,,,
,,,,,V3_032,20,female,2024-10-21_17h42.56.213,jersey_experiment_5_v3,2023.2.2,Win32,85.47008547,,,,,,,,,,,,,,,,135.5334,137.0861,137.0862,137.7801,return,0.1315,,67.44791667,0,31,31,17,1,FBP-PT-17.png,0.4,1.2,18,0.75,,,,,,,,,,,,,,,,,,,,,,,,,,,,,,,,,,,,,,,,,,,,,
,,,,,V3_032,20,female,2024-10-21_17h42.56.213,jersey_experiment_5_v3,2023.2.2,Win32,85.47008547,,,,,,,,,,,,,,,,137.7804,139.0744,139.0744,140.0156,return,0.0482,,97.13541667,0,32,32,39,1,FBP-OG-18.png,0.45,1.2,40,0.5,,,,,,,,,,,,,,,,,,,,,,,,,,,,,,,,,,,,,,,,,,,,,
,,,,,V3_032,20,female,2024-10-21_17h42.56.213,jersey_experiment_5_v3,2023.2.2,Win32,85.47008547,,,,,,,,,,,,,,,,140.0158,141.5687,141.5687,142.2745,return,0.1089,,83.46354167,0,33,33,12,1,FBP-YG-91.png,0.4,1.2,13,0.75,,,,,,,,,,,,,,,,,,,,,,,,,,,,,,,,,,,,,,,,,,,,,
,,,,,V3_032,20,female,2024-10-21_17h42.56.213,jersey_experiment_5_v3,2023.2.2,Win32,85.47008547,,,,,,,,,,,,,,,,142.2749,143.8276,143.8276,144.6863,return,0.1301,,98.17708333,0,34,34,8,1,FBP-YG-81.png,0.43,1.2,9,0.75,,,,,,,,,,,,,,,,,,,,,,,,,,,,,,,,,,,,,,,,,,,,,
,,,,,V3_032,20,female,2024-10-21_17h42.56.213,jersey_experiment_5_v3,2023.2.2,Win32,85.47008547,,,,,,,,,,,,,,,,144.6866,146.2394,146.2395,147.0042,return,0.1124,,69.01041667,0,35,35,11,1,FBP-YG-91.png,0.37,1.2,12,0.75,,,,,,,,,,,,,,,,,,,,,,,,,,,,,,,,,,,,,,,,,,,,,
,,,,,V3_032,20,female,2024-10-21_17h42.56.213,jersey_experiment_5_v3,2023.2.2,Win32,85.47008547,,,,,,,,,,,,,,,,147.0044,148.5573,148.5573,149.5806,return,0.0868,,99.08854167,0,36,36,54,1,FBP-RB-18.png,0.45,1.2,55,0.75,,,,,,,,,,,,,,,,,,,,,,,,,,,,,,,,,,,,,,,,,,,,,
,,,,,V3_032,20,female,2024-10-21_17h42.56.213,jersey_experiment_5_v3,2023.2.2,Win32,85.47008547,,,,,,,,,,,,,,,,149.5808,151.122,151.1221,151.8513,return,0.0661,,74.86979167,0,37,37,26,1,FBP-PT-19.png,0.37,1.2,27,0.75,,,,,,,,,,,,,,,,,,,,,,,,,,,,,,,,,,,,,,,,,,,,,
,,,,,V3_032,20,female,2024-10-21_17h42.56.213,jersey_experiment_5_v3,2023.2.2,Win32,85.47008547,,,,,,,,,,,,,,,,151.8515,153.1455,153.1455,154.1807,return,0.1327,,51.69270833,0,38,38,40,1,FBP-OG-19.png,0.35,1.2,41,0.5,,,,,,,,,,,,,,,,,,,,,,,,,,,,,,,,,,,,,,,,,,,,,
,,,,,V3_032,20,female,2024-10-21_17h42.56.213,jersey_experiment_5_v3,2023.2.2,Win32,85.47008547,,,,,,,,,,,,,,,,154.181,155.7338,155.7338,157.5339,return,0.0754,,73.56770833,0,39,39,51,1,FBP-RB-18.png,0.37,1.2,52,0.75,,,,,,,,,,,,,,,,,,,,,,,,,,,,,,,,,,,,,,,,,,,,,
,,,,,V3_032,20,female,2024-10-21_17h42.56.213,jersey_experiment_5_v3,2023.2.2,Win32,85.47008547,,,,,,,,,,,,,,,,157.5342,158.828,158.828,160.0162,return,0.2728,,98.046875,0,40,40,38,1,FBP-OG-18.png,0.43,1.2,39,0.5,,,,,,,,,,,,,,,,,,,,,,,,,,,,,,,,,,,,,,,,,,,,,
,,,,,V3_032,20,female,2024-10-21_17h42.56.213,jersey_experiment_5_v3,2023.2.2,Win32,85.47008547,,,,,,,,,,,,,,,,160.0165,161.5693,161.5694,162.1222,return,0.0872,,98.17708333,0,41,41,48,1,FBP-RB-17.png,0.43,1.2,49,0.75,,,,,,,,,,,,,,,,,,,,,,,,,,,,,,,,,,,,,,,,,,,,,
,,,,,V3_032,20,female,2024-10-21_17h42.56.213,jersey_experiment_5_v3,2023.2.2,Win32,85.47008547,,,,,,,,,,,,,,,,162.1225,163.6755,163.6755,164.4282,return,0.1948,,99.86979167,0,42,42,7,1,FBP-YG-81.png,0.4,1.2,8,0.75,,,,,,,,,,,,,,,,,,,,,,,,,,,,,,,,,,,,,,,,,,,,,
,,,,,V3_032,20,female,2024-10-21_17h42.56.213,jersey_experiment_5_v3,2023.2.2,Win32,85.47008547,,,,,,,,,,,,,,,,164.4284,165.9813,165.9814,166.6283,return,0.0466,,79.81770833,0,43,43,27,1,FBP-PT-19.png,0.4,1.2,28,0.75,,,,,,,,,,,,,,,,,,,,,,,,,,,,,,,,,,,,,,,,,,,,,
,,,,,V3_032,20,female,2024-10-21_17h42.56.213,jersey_experiment_5_v3,2023.2.2,Win32,85.47008547,,,,,,,,,,,,,,,,166.6287,168.1814,168.1815,169.452,return,0.1674,,99.609375,0,44,44,49,1,FBP-RB-17.png,0.45,1.2,50,0.75,,,,,,,,,,,,,,,,,,,,,,,,,,,,,,,,,,,,,,,,,,,,,
,,,,,V3_032,20,female,2024-10-21_17h42.56.213,jersey_experiment_5_v3,2023.2.2,Win32,85.47008547,,,,,,,,,,,,,,,,169.4523,171.005,171.005,171.9461,return,0.0909,,74.609375,0,45,45,50,1,FBP-RB-18.png,0.35,1.2,51,0.75,,,,,,,,,,,,,,,,,,,,,,,,,,,,,,,,,,,,,,,,,,,,,
,,,,,V3_032,20,female,2024-10-21_17h42.56.213,jersey_experiment_5_v3,2023.2.2,Win32,85.47008547,,,,,,,,,,,,,,,,171.9464,173.4991,173.4992,175.2287,return,0.1345,,99.21875,0,46,46,57,1,FBP-RB-19.png,0.4,1.2,58,0.75,,,,,,,,,,,,,,,,,,,,,,,,,,,,,,,,,,,,,,,,,,,,,
,,,,,V3_032,20,female,2024-10-21_17h42.56.213,jersey_experiment_5_v3,2023.2.2,Win32,85.47008547,,,,,,,,,,,,,,,,175.2289,176.7816,176.7817,177.9228,return,0.0476,,77.47395833,0,47,47,22,1,FBP-PT-18.png,0.4,1.2,23,0.75,,,,,,,,,,,,,,,,,,,,,,,,,,,,,,,,,,,,,,,,,,,,,
,,,,,V3_032,20,female,2024-10-21_17h42.56.213,jersey_experiment_5_v3,2023.2.2,Win32,85.47008547,,,,,,,,,,,,,,,,177.9231,179.476,179.476,181.0993,return,0.7252,,98.828125,0,48,48,13,1,FBP-YG-91.png,0.43,1.2,14,0.75,,,,,,,,,,,,,,,,,,,,,,,,,,,,,,,,,,,,,,,,,,,,,
,,,,,V3_032,20,female,2024-10-21_17h42.56.213,jersey_experiment_5_v3,2023.2.2,Win32,85.47008547,,,,,,,,,,,,,,,,181.0996,182.6524,182.6525,183.5466,return,0.0198,,99.08854167,0,49,49,53,1,FBP-RB-18.png,0.43,1.2,54,0.75,,,,,,,,,,,,,,,,,,,,,,,,,,,,,,,,,,,,,,,,,,,,,
,,,,,V3_032,20,female,2024-10-21_17h42.56.213,jersey_experiment_5_v3,2023.2.2,Win32,85.47008547,,,,,,,,,,,,,,,,183.5468,185.088,185.088,185.9701,return,0.0601,,75.13020833,0,50,50,25,1,FBP-PT-19.png,0.35,1.2,26,0.75,,,,,,,,,,,,,,,,,,,,,,,,,,,,,,,,,,,,,,,,,,,,,
,,,,,V3_032,20,female,2024-10-21_17h42.56.213,jersey_experiment_5_v3,2023.2.2,Win32,85.47008547,,,,,,,,,,,,,,,,185.9705,187.5232,187.5232,188.6879,return,0.154,,99.21875,0,51,51,3,1,FBP-YG-71.png,0.43,1.2,4,0.75,,,,,,,,,,,,,,,,,,,,,,,,,,,,,,,,,,,,,,,,,,,,,
,,,,,V3_032,20,female,2024-10-21_17h42.56.213,jersey_experiment_5_v3,2023.2.2,Win32,85.47008547,,,,,,,,,,,,,,,,188.6881,190.2294,190.2294,191.7586,return,0.0731,,97.91666667,0,52,52,2,1,FBP-YG-71.png,0.4,1.2,3,0.75,,,,,,,,,,,,,,,,,,,,,,,,,,,,,,,,,,,,,,,,,,,,,
,,,,,V3_032,20,female,2024-10-21_17h42.56.213,jersey_experiment_5_v3,2023.2.2,Win32,85.47008547,,,,,,,,,,,,,,,,191.7587,193.3117,193.3117,194.3705,return,0.1078,,74.73958333,0,53,53,47,1,FBP-RB-17.png,0.4,1.2,48,0.75,,,,,,,,,,,,,,,,,,,,,,,,,,,,,,,,,,,,,,,,,,,,,
,,,,,V3_032,20,female,2024-10-21_17h42.56.213,jersey_experiment_5_v3,2023.2.2,Win32,85.47008547,,,,,,,,,,,,,,,,194.3706,195.6647,195.6647,196.8176,return,0.1078,,99.34895833,0,54,54,34,1,FBP-OG-17.png,0.45,1.2,35,0.5,,,,,,,,,,,,,,,,,,,,,,,,,,,,,,,,,,,,,,,,,,,,,
,,,,,V3_032,20,female,2024-10-21_17h42.56.213,jersey_experiment_5_v3,2023.2.2,Win32,85.47008547,,,,,,,,,,,,,,,,196.8179,198.3706,198.3707,199.8178,return,0.315,,98.56770833,0,55,55,9,1,FBP-YG-81.png,0.45,1.2,10,0.75,,,,,,,,,,,,,,,,,,,,,,,,,,,,,,,,,,,,,,,,,,,,,
,,,,,V3_032,20,female,2024-10-21_17h42.56.213,jersey_experiment_5_v3,2023.2.2,Win32,85.47008547,,,,,,,,,,,,,,,,199.8182,201.3708,201.3709,202.5237,return,0.0641,,72.00520833,0,56,56,5,1,FBP-YG-81.png,0.35,1.2,6,0.75,,,,,,,,,,,,,,,,,,,,,,,,,,,,,,,,,,,,,,,,,,,,,
,,,,,V3_032,20,female,2024-10-21_17h42.56.213,jersey_experiment_5_v3,2023.2.2,Win32,85.47008547,,,,,,,,,,,,,,,,202.524,203.8179,203.8179,204.7826,return,0.0379,,50,0,57,57,30,1,FBP-OG-17.png,0.35,1.2,31,0.5,,,,,,,,,,,,,,,,,,,,,,,,,,,,,,,,,,,,,,,,,,,,,
,,,,,V3_032,20,female,2024-10-21_17h42.56.213,jersey_experiment_5_v3,2023.2.2,Win32,85.47008547,,,,,,,,,,,,,,,,204.7828,206.3357,206.3358,206.9593,return,0.0957,,50,0,58,58,6,1,FBP-YG-81.png,0.37,1.2,7,0.75,,,,,,,,,,,,,,,,,,,,,,,,,,,,,,,,,,,,,,,,,,,,,
,,,,,V3_032,20,female,2024-10-21_17h42.56.213,jersey_experiment_5_v3,2023.2.2,Win32,85.47008547,,,,,,,,,,,,,,,,206.9595,208.5124,208.5125,209.524,return,0.1152,,74.73958333,0,59,59,56,1,FBP-RB-19.png,0.37,1.2,57,0.75,,,,,,,,,,,,,,,,,,,,,,,,,,,,,,,,,,,,,,,,,,,,,
,,,,,V3_032,20,female,2024-10-21_17h42.56.213,jersey_experiment_5_v3,2023.2.2,Win32,85.47008547,,,,,,,,,,,,,,,,209.5255,210.8181,210.8182,211.924,return,0.0951,,98.95833333,,,,,,FBP-OG-91.png,0.45,1.2,45,0.5,0,0,0,44,1,,,,,,,,,,,,,,,,,,,,,,,,,,,,,,,,,,,,,,,,
,,,,,V3_032,20,female,2024-10-21_17h42.56.213,jersey_experiment_5_v3,2023.2.2,Win32,85.47008547,,,,,,,,,,,,,,,,211.9243,213.4772,213.4772,214.3006,return,0.2058,,73.828125,,,,,,FBP-RB-81.png,0.35,1.2,51,0.75,0,1,1,50,1,,,,,,,,,,,,,,,,,,,,,,,,,,,,,,,,,,,,,,,,
,,,,,V3_032,20,female,2024-10-21_17h42.56.213,jersey_experiment_5_v3,2023.2.2,Win32,85.47008547,,,,,,,,,,,,,,,,214.301,215.8536,215.8536,216.4184,return,0.1159,,74.08854167,,,,,,FBP-PT-71.png,0.35,1.2,16,0.75,0,2,2,15,1,,,,,,,,,,,,,,,,,,,,,,,,,,,,,,,,,,,,,,,,
,,,,,V3_032,20,female,2024-10-21_17h42.56.213,jersey_experiment_5_v3,2023.2.2,Win32,85.47008547,,,,,,,,,,,,,,,,216.4186,217.9714,217.9714,218.8774,return,0.1468,,74.47916667,,,,,,FBP-PT-81.png,0.37,1.2,22,0.75,0,3,3,21,1,,,,,,,,,,,,,,,,,,,,,,,,,,,,,,,,,,,,,,,,
,,,,,V3_032,20,female,2024-10-21_17h42.56.213,jersey_experiment_5_v3,2023.2.2,Win32,85.47008547,,,,,,,,,,,,,,,,218.8778,220.1715,220.1715,221.2774,return,0.1462,,90.75520833,,,,,,FBP-OG-81.png,0.4,1.2,38,0.5,0,4,4,37,1,,,,,,,,,,,,,,,,,,,,,,,,,,,,,,,,,,,,,,,,
,,,,,V3_032,20,female,2024-10-21_17h42.56.213,jersey_experiment_5_v3,2023.2.2,Win32,85.47008547,,,,,,,,,,,,,,,,221.2777,222.5716,222.5716,223.4422,return,0.0243,,99.73958333,,,,,,FBP-OG-71.png,0.45,1.2,35,0.5,0,5,5,34,1,,,,,,,,,,,,,,,,,,,,,,,,,,,,,,,,,,,,,,,,
,,,,,V3_032,20,female,2024-10-21_17h42.56.213,jersey_experiment_5_v3,2023.2.2,Win32,85.47008547,,,,,,,,,,,,,,,,223.4425,224.9953,224.9953,225.6423,return,0.03,,76.171875,,,,,,FBP-RB-91.png,0.37,1.2,57,0.75,0,6,6,56,1,,,,,,,,,,,,,,,,,,,,,,,,,,,,,,,,,,,,,,,,
,,,,,V3_032,20,female,2024-10-21_17h42.56.213,jersey_experiment_5_v3,2023.2.2,Win32,85.47008547,,,,,,,,,,,,,,,,225.6425,227.1955,227.1955,227.8071,return,0.0475,,61.58854167,,,,,,FBP-RB-91.png,0.35,1.2,56,0.75,0,7,7,55,1,,,,,,,,,,,,,,,,,,,,,,,,,,,,,,,,,,,,,,,,
,,,,,V3_032,20,female,2024-10-21_17h42.56.213,jersey_experiment_5_v3,2023.2.2,Win32,85.47008547,,,,,,,,,,,,,,,,227.8073,229.3603,229.3603,230.4778,return,0.146,,99.86979167,,,,,,FBP-RB-71.png,0.43,1.2,49,0.75,0,8,8,48,1,,,,,,,,,,,,,,,,,,,,,,,,,,,,,,,,,,,,,,,,
,,,,,V3_032,20,female,2024-10-21_17h42.56.213,jersey_experiment_5_v3,2023.2.2,Win32,85.47008547,,,,,,,,,,,,,,,,230.4781,232.0309,232.031,232.7837,return,0.1207,,85.546875,,,,,,FBP-YG-19.png,0.4,1.2,13,0.75,0,9,9,12,1,,,,,,,,,,,,,,,,,,,,,,,,,,,,,,,,,,,,,,,,
,,,,,V3_032,20,female,2024-10-21_17h42.56.213,jersey_experiment_5_v3,2023.2.2,Win32,85.47008547,,,,,,,,,,,,,,,,232.784,234.078,234.078,234.7014,return,0.0511,,74.08854167,,,,,,FBP-OG-91.png,0.35,1.2,41,0.5,0,10,10,40,1,,,,,,,,,,,,,,,,,,,,,,,,,,,,,,,,,,,,,,,,
,,,,,V3_032,20,female,2024-10-21_17h42.56.213,jersey_experiment_5_v3,2023.2.2,Win32,85.47008547,,,,,,,,,,,,,,,,234.7016,236.2542,236.2543,237.1486,return,0.1197,,87.109375,,,,,,FBP-YG-18.png,0.35,1.2,6,0.75,0,11,11,5,1,,,,,,,,,,,,,,,,,,,,,,,,,,,,,,,,,,,,,,,,
,,,,,V3_032,20,female,2024-10-21_17h42.56.213,jersey_experiment_5_v3,2023.2.2,Win32,85.47008547,,,,,,,,,,,,,,,,237.1489,238.7015,238.7015,239.2897,return,0.1486,,83.59375,,,,,,FBP-PT-81.png,0.35,1.2,21,0.75,0,12,12,20,1,,,,,,,,,,,,,,,,,,,,,,,,,,,,,,,,,,,,,,,,
,,,,,V3_032,20,female,2024-10-21_17h42.56.213,jersey_experiment_5_v3,2023.2.2,Win32,85.47008547,,,,,,,,,,,,,,,,239.29,240.843,240.843,242.0898,return,0.1614,,99.47916667,,,,,,FBP-PT-81.png,0.43,1.2,24,0.75,0,13,13,23,1,,,,,,,,,,,,,,,,,,,,,,,,,,,,,,,,,,,,,,,,
,,,,,V3_032,20,female,2024-10-21_17h42.56.213,jersey_experiment_5_v3,2023.2.2,Win32,85.47008547,,,,,,,,,,,,,,,,242.0901,243.643,243.643,244.4311,return,0.1781,,98.69791667,,,,,,FBP-RB-81.png,0.43,1.2,54,0.75,0,14,14,53,1,,,,,,,,,,,,,,,,,,,,,,,,,,,,,,,,,,,,,,,,
,,,,,V3_032,20,female,2024-10-21_17h42.56.213,jersey_experiment_5_v3,2023.2.2,Win32,85.47008547,,,,,,,,,,,,,,,,244.4314,245.9841,245.9841,246.7137,return,0.1136,,99.47916667,,,,,,FBP-YG-18.png,0.4,1.2,8,0.75,0,15,15,7,1,,,,,,,,,,,,,,,,,,,,,,,,,,,,,,,,,,,,,,,,
,,,,,V3_032,20,female,2024-10-21_17h42.56.213,jersey_experiment_5_v3,2023.2.2,Win32,85.47008547,,,,,,,,,,,,,,,,246.7139,248.2668,248.2669,249.1141,return,0.0207,,75.91145833,,,,,,FBP-PT-91.png,0.37,1.2,27,0.75,0,16,16,26,1,,,,,,,,,,,,,,,,,,,,,,,,,,,,,,,,,,,,,,,,
,,,,,V3_032,20,female,2024-10-21_17h42.56.213,jersey_experiment_5_v3,2023.2.2,Win32,85.47008547,,,,,,,,,,,,,,,,249.1143,250.6669,250.6669,251.5844,return,0.1045,,98.95833333,,,,,,FBP-PT-91.png,0.43,1.2,29,0.75,0,17,17,28,1,,,,,,,,,,,,,,,,,,,,,,,,,,,,,,,,,,,,,,,,
,,,,,V3_032,20,female,2024-10-21_17h42.56.213,jersey_experiment_5_v3,2023.2.2,Win32,85.47008547,,,,,,,,,,,,,,,,251.5847,252.8785,252.8785,253.6314,return,0.1783,,98.828125,,,,,,FBP-OG-81.png,0.45,1.2,40,0.5,0,18,18,39,1,,,,,,,,,,,,,,,,,,,,,,,,,,,,,,,,,,,,,,,,
,,,,,V3_032,20,female,2024-10-21_17h42.56.213,jersey_experiment_5_v3,2023.2.2,Win32,85.47008547,,,,,,,,,,,,,,,,253.6316,255.1728,255.1729,255.7611,return,0.133,,98.828125,,,,,,FBP-RB-81.png,0.45,1.2,55,0.75,0,19,19,54,1,,,,,,,,,,,,,,,,,,,,,,,,,,,,,,,,,,,,,,,,
,,,,,V3_032,20,female,2024-10-21_17h42.56.213,jersey_experiment_5_v3,2023.2.2,Win32,85.47008547,,,,,,,,,,,,,,,,255.7613,257.314,257.3141,258.0669,return,0.1576,,99.08854167,,,,,,FBP-PT-71.png,0.45,1.2,20,0.75,0,20,20,19,1,,,,,,,,,,,,,,,,,,,,,,,,,,,,,,,,,,,,,,,,
,,,,,V3_032,20,female,2024-10-21_17h42.56.213,jersey_experiment_5_v3,2023.2.2,Win32,85.47008547,,,,,,,,,,,,,,,,258.0671,259.3614,259.3615,260.4435,return,0.0657,,50.52083333,,,,,,FBP-OG-81.png,0.35,1.2,36,0.5,0,21,21,35,1,,,,,,,,,,,,,,,,,,,,,,,,,,,,,,,,,,,,,,,,
,,,,,V3_032,20,female,2024-10-21_17h42.56.213,jersey_experiment_5_v3,2023.2.2,Win32,85.47008547,,,,,,,,,,,,,,,,260.4437,261.9967,261.9967,263.1143,return,0.2782,,80.20833333,,,,,,FBP-RB-91.png,0.45,1.2,60,0.75,0,22,22,59,1,,,,,,,,,,,,,,,,,,,,,,,,,,,,,,,,,,,,,,,,
,,,,,V3_032,20,female,2024-10-21_17h42.56.213,jersey_experiment_5_v3,2023.2.2,Win32,85.47008547,,,,,,,,,,,,,,,,263.1146,264.6672,264.6672,265.3378,return,0.0679,,74.73958333,,,,,,FBP-YG-17.png,0.4,1.2,3,0.75,0,23,23,2,1,,,,,,,,,,,,,,,,,,,,,,,,,,,,,,,,,,,,,,,,
,,,,,V3_032,20,female,2024-10-21_17h42.56.213,jersey_experiment_5_v3,2023.2.2,Win32,85.47008547,,,,,,,,,,,,,,,,265.338,266.891,266.891,267.6439,return,0.0659,,97.78645833,,,,,,FBP-YG-17.png,0.45,1.2,5,0.75,0,24,24,4,1,,,,,,,,,,,,,,,,,,,,,,,,,,,,,,,,,,,,,,,,
,,,,,V3_032,20,female,2024-10-21_17h42.56.213,jersey_experiment_5_v3,2023.2.2,Win32,85.47008547,,,,,,,,,,,,,,,,267.6441,269.1969,269.1969,270.0203,return,0.1889,,99.73958333,,,,,,FBP-YG-19.png,0.45,1.2,15,0.75,0,25,25,14,1,,,,,,,,,,,,,,,,,,,,,,,,,,,,,,,,,,,,,,,,
,,,,,V3_032,20,female,2024-10-21_17h42.56.213,jersey_experiment_5_v3,2023.2.2,Win32,85.47008547,,,,,,,,,,,,,,,,270.0205,271.3145,271.3145,272.1381,return,0.3027,,99.73958333,,,,,,FBP-OG-71.png,0.43,1.2,34,0.5,0,26,26,33,1,,,,,,,,,,,,,,,,,,,,,,,,,,,,,,,,,,,,,,,,
,,,,,V3_032,20,female,2024-10-21_17h42.56.213,jersey_experiment_5_v3,2023.2.2,Win32,85.47008547,,,,,,,,,,,,,,,,272.1383,273.6912,273.6912,274.3499,return,0.04,,86.97916667,,,,,,FBP-PT-71.png,0.37,1.2,17,0.75,0,27,27,16,1,,,,,,,,,,,,,,,,,,,,,,,,,,,,,,,,,,,,,,,,
,,,,,V3_032,20,female,2024-10-21_17h42.56.213,jersey_experiment_5_v3,2023.2.2,Win32,85.47008547,,,,,,,,,,,,,,,,274.3501,275.9031,275.9031,276.6676,return,0.0853,,99.21875,,,,,,FBP-PT-71.png,0.43,1.2,19,0.75,0,28,28,18,1,,,,,,,,,,,,,,,,,,,,,,,,,,,,,,,,,,,,,,,,
,,,,,V3_032,20,female,2024-10-21_17h42.56.213,jersey_experiment_5_v3,2023.2.2,Win32,85.47008547,,,,,,,,,,,,,,,,276.6679,278.2208,278.2208,280.0442,return,1.0848,,57.94270833,,,,,,FBP-RB-71.png,0.35,1.2,46,0.75,0,29,29,45,1,,,,,,,,,,,,,,,,,,,,,,,,,,,,,,,,,,,,,,,,
,,,,,V3_032,20,female,2024-10-21_17h42.56.213,jersey_experiment_5_v3,2023.2.2,Win32,85.47008547,,,,,,,,,,,,,,,,280.0443,281.5974,281.5974,282.7502,return,0.0159,,99.47916667,,,,,,FBP-PT-91.png,0.45,1.2,30,0.75,0,30,30,29,1,,,,,,,,,,,,,,,,,,,,,,,,,,,,,,,,,,,,,,,,
,,,,,V3_032,20,female,2024-10-21_17h42.56.213,jersey_experiment_5_v3,2023.2.2,Win32,85.47008547,,,,,,,,,,,,,,,,282.7503,284.0443,284.0444,284.7974,return,0.1193,,98.046875,,,,,,FBP-OG-91.png,0.4,1.2,43,0.5,0,31,31,42,1,,,,,,,,,,,,,,,,,,,,,,,,,,,,,,,,,,,,,,,,
,,,,,V3_032,20,female,2024-10-21_17h42.56.213,jersey_experiment_5_v3,2023.2.2,Win32,85.47008547,,,,,,,,,,,,,,,,284.7976,286.3504,286.3504,287.068,return,0.1009,,92.44791667,,,,,,FBP-YG-18.png,0.37,1.2,7,0.75,0,32,32,6,1,,,,,,,,,,,,,,,,,,,,,,,,,,,,,,,,,,,,,,,,
,,,,,V3_032,20,female,2024-10-21_17h42.56.213,jersey_experiment_5_v3,2023.2.2,Win32,85.47008547,,,,,,,,,,,,,,,,287.0683,288.6212,288.6212,289.5034,return,0.392,,98.95833333,,,,,,FBP-YG-18.png,0.43,1.2,9,0.75,0,33,33,8,1,,,,,,,,,,,,,,,,,,,,,,,,,,,,,,,,,,,,,,,,
,,,,,V3_032,20,female,2024-10-21_17h42.56.213,jersey_experiment_5_v3,2023.2.2,Win32,85.47008547,,,,,,,,,,,,,,,,289.5037,291.0565,291.0565,291.6211,return,0.0471,,98.56770833,,,,,,FBP-PT-81.png,0.45,1.2,25,0.75,0,34,34,24,1,,,,,,,,,,,,,,,,,,,,,,,,,,,,,,,,,,,,,,,,
,,,,,V3_032,20,female,2024-10-21_17h42.56.213,jersey_experiment_5_v3,2023.2.2,Win32,85.47008547,,,,,,,,,,,,,,,,291.6214,293.1743,293.1743,293.8448,return,0.0476,,77.08333333,,,,,,FBP-YG-17.png,0.37,1.2,2,0.75,0,35,35,1,1,,,,,,,,,,,,,,,,,,,,,,,,,,,,,,,,,,,,,,,,
,,,,,V3_032,20,female,2024-10-21_17h42.56.213,jersey_experiment_5_v3,2023.2.2,Win32,85.47008547,,,,,,,,,,,,,,,,293.8451,295.3978,295.3979,296.1626,return,0.0471,,65.625,,,,,,FBP-YG-17.png,0.35,1.2,1,0.75,0,36,36,0,1,,,,,,,,,,,,,,,,,,,,,,,,,,,,,,,,,,,,,,,,
,,,,,V3_032,20,female,2024-10-21_17h42.56.213,jersey_experiment_5_v3,2023.2.2,Win32,85.47008547,,,,,,,,,,,,,,,,296.1628,297.4569,297.4569,298.1744,return,0.0278,,76.43229167,,,,,,FBP-OG-91.png,0.37,1.2,42,0.5,0,37,37,41,1,,,,,,,,,,,,,,,,,,,,,,,,,,,,,,,,,,,,,,,,
,,,,,V3_032,20,female,2024-10-21_17h42.56.213,jersey_experiment_5_v3,2023.2.2,Win32,85.47008547,,,,,,,,,,,,,,,,298.1746,299.4684,299.4685,300.1627,return,0.0838,,75.390625,,,,,,FBP-OG-71.png,0.35,1.2,31,0.5,0,38,38,30,1,,,,,,,,,,,,,,,,,,,,,,,,,,,,,,,,,,,,,,,,
,,,,,V3_032,20,female,2024-10-21_17h42.56.213,jersey_experiment_5_v3,2023.2.2,Win32,85.47008547,,,,,,,,,,,,,,,,300.1628,301.7158,301.7158,302.1861,return,0.028,,93.359375,,,,,,FBP-YG-17.png,0.43,1.2,4,0.75,0,39,39,3,1,,,,,,,,,,,,,,,,,,,,,,,,,,,,,,,,,,,,,,,,
,,,,,V3_032,20,female,2024-10-21_17h42.56.213,jersey_experiment_5_v3,2023.2.2,Win32,85.47008547,,,,,,,,,,,,,,,,302.1864,303.7393,303.7393,304.4921,return,0.0519,,98.828125,,,,,,FBP-RB-71.png,0.45,1.2,50,0.75,0,40,40,49,1,,,,,,,,,,,,,,,,,,,,,,,,,,,,,,,,,,,,,,,,
,,,,,V3_032,20,female,2024-10-21_17h42.56.213,jersey_experiment_5_v3,2023.2.2,Win32,85.47008547,,,,,,,,,,,,,,,,304.4923,306.0336,306.0336,307.5394,return,0.1884,,98.69791667,,,,,,FBP-RB-91.png,0.4,1.2,58,0.75,0,41,41,57,1,,,,,,,,,,,,,,,,,,,,,,,,,,,,,,,,,,,,,,,,
,,,,,V3_032,20,female,2024-10-21_17h42.56.213,jersey_experiment_5_v3,2023.2.2,Win32,85.47008547,,,,,,,,,,,,,,,,307.5396,308.8338,308.8338,309.61,return,0.0195,,60.41666667,,,,,,FBP-OG-71.png,0.37,1.2,32,0.5,0,42,42,31,1,,,,,,,,,,,,,,,,,,,,,,,,,,,,,,,,,,,,,,,,
,,,,,V3_032,20,female,2024-10-21_17h42.56.213,jersey_experiment_5_v3,2023.2.2,Win32,85.47008547,,,,,,,,,,,,,,,,309.6103,310.9042,310.9042,311.5514,return,0.0492,,76.82291667,,,,,,FBP-OG-71.png,0.4,1.2,33,0.5,0,43,43,32,1,,,,,,,,,,,,,,,,,,,,,,,,,,,,,,,,,,,,,,,,
,,,,,V3_032,20,female,2024-10-21_17h42.56.213,jersey_experiment_5_v3,2023.2.2,Win32,85.47008547,,,,,,,,,,,,,,,,311.5516,313.1045,313.1045,314.3397,return,0.8097,,62.63020833,,,,,,FBP-YG-19.png,0.35,1.2,11,0.75,0,44,44,10,1,,,,,,,,,,,,,,,,,,,,,,,,,,,,,,,,,,,,,,,,
,,,,,V3_032,20,female,2024-10-21_17h42.56.213,jersey_experiment_5_v3,2023.2.2,Win32,85.47008547,,,,,,,,,,,,,,,,314.34,315.634,315.634,316.3632,return,0.0416,,87.36979167,,,,,,FBP-OG-91.png,0.43,1.2,44,0.5,0,45,45,43,1,,,,,,,,,,,,,,,,,,,,,,,,,,,,,,,,,,,,,,,,
,,,,,V3_032,20,female,2024-10-21_17h42.56.213,jersey_experiment_5_v3,2023.2.2,Win32,85.47008547,,,,,,,,,,,,,,,,316.3635,317.9162,317.9163,318.4692,return,0.047,,84.765625,,,,,,FBP-PT-91.png,0.4,1.2,28,0.75,0,46,46,27,1,,,,,,,,,,,,,,,,,,,,,,,,,,,,,,,,,,,,,,,,
,,,,,V3_032,20,female,2024-10-21_17h42.56.213,jersey_experiment_5_v3,2023.2.2,Win32,85.47008547,,,,,,,,,,,,,,,,318.4695,320.0222,320.0222,320.6576,return,0.1098,,92.83854167,,,,,,FBP-PT-81.png,0.4,1.2,23,0.75,0,47,47,22,1,,,,,,,,,,,,,,,,,,,,,,,,,,,,,,,,,,,,,,,,
,,,,,V3_032,20,female,2024-10-21_17h42.56.213,jersey_experiment_5_v3,2023.2.2,Win32,85.47008547,,,,,,,,,,,,,,,,320.6578,322.2106,322.2106,323.0222,return,0.0752,,57.421875,,,,,,FBP-PT-91.png,0.35,1.2,26,0.75,0,48,48,25,1,,,,,,,,,,,,,,,,,,,,,,,,,,,,,,,,,,,,,,,,
,,,,,V3_032,20,female,2024-10-21_17h42.56.213,jersey_experiment_5_v3,2023.2.2,Win32,85.47008547,,,,,,,,,,,,,,,,323.0223,324.5636,324.5636,325.4696,return,0.416,,70.18229167,,,,,,FBP-YG-19.png,0.37,1.2,12,0.75,0,49,49,11,1,,,,,,,,,,,,,,,,,,,,,,,,,,,,,,,,,,,,,,,,
,,,,,V3_032,20,female,2024-10-21_17h42.56.213,jersey_experiment_5_v3,2023.2.2,Win32,85.47008547,,,,,,,,,,,,,,,,325.4699,327.0226,327.0226,327.9518,return,0.1332,,99.609375,,,,,,FBP-YG-18.png,0.45,1.2,10,0.75,0,50,50,9,1,,,,,,,,,,,,,,,,,,,,,,,,,,,,,,,,,,,,,,,,
,,,,,V3_032,20,female,2024-10-21_17h42.56.213,jersey_experiment_5_v3,2023.2.2,Win32,85.47008547,,,,,,,,,,,,,,,,327.9521,329.5049,329.505,330.6344,return,0.1722,,98.17708333,,,,,,FBP-YG-19.png,0.43,1.2,14,0.75,0,51,51,13,1,,,,,,,,,,,,,,,,,,,,,,,,,,,,,,,,,,,,,,,,
,,,,,V3_032,20,female,2024-10-21_17h42.56.213,jersey_experiment_5_v3,2023.2.2,Win32,85.47008547,,,,,,,,,,,,,,,,330.6346,332.1874,332.1875,332.8108,return,0.0079,,74.609375,,,,,,FBP-RB-71.png,0.4,1.2,48,0.75,0,52,52,47,1,,,,,,,,,,,,,,,,,,,,,,,,,,,,,,,,,,,,,,,,
,,,,,V3_032,20,female,2024-10-21_17h42.56.213,jersey_experiment_5_v3,2023.2.2,Win32,85.47008547,,,,,,,,,,,,,,,,332.8111,334.364,334.3641,335.7168,return,0.0616,,99.73958333,,,,,,FBP-RB-91.png,0.43,1.2,59,0.75,0,53,53,58,1,,,,,,,,,,,,,,,,,,,,,,,,,,,,,,,,,,,,,,,,
,,,,,V3_032,20,female,2024-10-21_17h42.56.213,jersey_experiment_5_v3,2023.2.2,Win32,85.47008547,,,,,,,,,,,,,,,,335.7171,337.011,337.0111,338.0111,return,0.0653,,63.41145833,,,,,,FBP-OG-81.png,0.37,1.2,37,0.5,0,54,54,36,1,,,,,,,,,,,,,,,,,,,,,,,,,,,,,,,,,,,,,,,,
,,,,,V3_032,20,female,2024-10-21_17h42.56.213,jersey_experiment_5_v3,2023.2.2,Win32,85.47008547,,,,,,,,,,,,,,,,338.0113,339.5643,339.5643,340.5642,return,0.2492,,75.65104167,,,,,,FBP-RB-81.png,0.4,1.2,53,0.75,0,55,55,52,1,,,,,,,,,,,,,,,,,,,,,,,,,,,,,,,,,,,,,,,,
,,,,,V3_032,20,female,2024-10-21_17h42.56.213,jersey_experiment_5_v3,2023.2.2,Win32,85.47008547,,,,,,,,,,,,,,,,340.5645,342.1171,342.1171,342.623,return,0.0741,,74.47916667,,,,,,FBP-PT-71.png,0.4,1.2,18,0.75,0,56,56,17,1,,,,,,,,,,,,,,,,,,,,,,,,,,,,,,,,,,,,,,,,
,,,,,V3_032,20,female,2024-10-21_17h42.56.213,jersey_experiment_5_v3,2023.2.2,Win32,85.47008547,,,,,,,,,,,,,,,,342.6233,344.1762,344.1762,345.0231,return,0.1757,,65.36458333,,,,,,FBP-RB-81.png,0.37,1.2,52,0.75,0,57,57,51,1,,,,,,,,,,,,,,,,,,,,,,,,,,,,,,,,,,,,,,,,
,,,,,V3_032,20,female,2024-10-21_17h42.56.213,jersey_experiment_5_v3,2023.2.2,Win32,85.47008547,,,,,,,,,,,,,,,,345.0233,346.5761,346.5762,347.0585,return,0.0392,,65.36458333,,,,,,FBP-RB-71.png,0.37,1.2,47,0.75,0,58,58,46,1,,,,,,,,,,,,,,,,,,,,,,,,,,,,,,,,,,,,,,,,
,,,,,V3_032,20,female,2024-10-21_17h42.56.213,jersey_experiment_5_v3,2023.2.2,Win32,85.47008547,,,,,,,,,,,,,,,,347.0587,348.3529,348.3529,349.6351,return,0.7531,,81.25,,,,,,FBP-OG-81.png,0.43,1.2,39,0.5,0,59,59,38,1,,,,,,,,,,,,,,,,,,,,,,,,,,,,,,,,,,,,,,,,
,,,,,V3_032,20,female,2024-10-21_17h42.56.213,jersey_experiment_5_v3,2023.2.2,Win32,85.47008547,,,,,,,,,,,,,,,,,,,,,,,,,,,,,,,,,,,,,,,349.6354,469.6279,,,,,,,,,,,,,,,,,,,,,,,,,,,,,,,,,,,,,,
,,,,,V3_032,20,female,2024-10-21_17h42.56.213,jersey_experiment_5_v3,2023.2.2,Win32,85.47008547,,,,,,,,,,,,,,,,,,,,,,,,,,,,,,,,,,,,,,,,,469.6281,471.887,return,2.2503,,,,,,,,,,,,,,,,,,,,,,,,,,,,,,,,,,
,,,,,V3_032,20,female,2024-10-21_17h42.56.213,jersey_experiment_5_v3,2023.2.2,Win32,85.47008547,,,,,,,,,,,,,,,,471.8886,473.1808,473.1809,474.5103,return,0.1929,,74.86979167,,,,,,FBP-RB-19.png,0.37,1.2,57,0.5,,,,,,,,,,,,,0,0,0,56,1,,,,,,,,,,,,,,,,,,,,,,,,,,,,
,,,,,V3_032,20,female,2024-10-21_17h42.56.213,jersey_experiment_5_v3,2023.2.2,Win32,85.47008547,,,,,,,,,,,,,,,,474.5105,475.8044,475.8045,478.6518,return,0.1718,,94.140625,,,,,,FBP-YG-71.png,0.4,1.2,3,0.5,,,,,,,,,,,,,0,1,1,2,1,,,,,,,,,,,,,,,,,,,,,,,,,,,,
,,,,,V3_032,20,female,2024-10-21_17h42.56.213,jersey_experiment_5_v3,2023.2.2,Win32,85.47008547,,,,,,,,,,,,,,,,478.6521,479.9457,479.9458,481.087,return,0.0492,,69.40104167,,,,,,FBP-YG-91.png,0.35,1.2,11,0.5,,,,,,,,,,,,,0,2,2,10,1,,,,,,,,,,,,,,,,,,,,,,,,,,,,
,,,,,V3_032,20,female,2024-10-21_17h42.56.213,jersey_experiment_5_v3,2023.2.2,Win32,85.47008547,,,,,,,,,,,,,,,,481.0872,482.3813,482.3813,483.0753,return,0.011,,80.72916667,,,,,,FBP-YG-81.png,0.43,1.2,9,0.5,,,,,,,,,,,,,0,3,3,8,1,,,,,,,,,,,,,,,,,,,,,,,,,,,,
,,,,,V3_032,20,female,2024-10-21_17h42.56.213,jersey_experiment_5_v3,2023.2.2,Win32,85.47008547,,,,,,,,,,,,,,,,483.0755,484.3695,484.3696,485.0873,return,0.0251,,89.71354167,,,,,,FBP-PT-17.png,0.4,1.2,18,0.5,,,,,,,,,,,,,0,4,4,17,1,,,,,,,,,,,,,,,,,,,,,,,,,,,,
,,,,,V3_032,20,female,2024-10-21_17h42.56.213,jersey_experiment_5_v3,2023.2.2,Win32,85.47008547,,,,,,,,,,,,,,,,485.0875,486.6402,486.6402,487.5225,return,0.0109,,99.47916667,,,,,,FBP-OG-17.png,0.45,1.2,35,0.75,,,,,,,,,,,,,0,5,5,34,1,,,,,,,,,,,,,,,,,,,,,,,,,,,,
,,,,,V3_032,20,female,2024-10-21_17h42.56.213,jersey_experiment_5_v3,2023.2.2,Win32,85.47008547,,,,,,,,,,,,,,,,487.5228,488.8167,488.8167,489.3697,return,0.1148,,99.47916667,,,,,,FBP-RB-17.png,0.45,1.2,50,0.5,,,,,,,,,,,,,0,6,6,49,1,,,,,,,,,,,,,,,,,,,,,,,,,,,,
,,,,,V3_032,20,female,2024-10-21_17h42.56.213,jersey_experiment_5_v3,2023.2.2,Win32,85.47008547,,,,,,,,,,,,,,,,489.3699,490.6638,490.6639,491.805,return,0.0528,,75.390625,,,,,,FBP-RB-18.png,0.37,1.2,52,0.5,,,,,,,,,,,,,0,7,7,51,1,,,,,,,,,,,,,,,,,,,,,,,,,,,,
,,,,,V3_032,20,female,2024-10-21_17h42.56.213,jersey_experiment_5_v3,2023.2.2,Win32,85.47008547,,,,,,,,,,,,,,,,491.8052,493.0992,493.0992,493.9229,return,0.0004,,49.47916667,,,,,,FBP-PT-18.png,0.35,1.2,21,0.5,,,,,,,,,,,,,0,8,8,20,1,,,,,,,,,,,,,,,,,,,,,,,,,,,,
,,,,,V3_032,20,female,2024-10-21_17h42.56.213,jersey_experiment_5_v3,2023.2.2,Win32,85.47008547,,,,,,,,,,,,,,,,493.923,495.2168,495.2169,496.2524,return,0.0536,,75.26041667,,,,,,FBP-RB-19.png,0.43,1.2,59,0.5,,,,,,,,,,,,,0,9,9,58,1,,,,,,,,,,,,,,,,,,,,,,,,,,,,
,,,,,V3_032,20,female,2024-10-21_17h42.56.213,jersey_experiment_5_v3,2023.2.2,Win32,85.47008547,,,,,,,,,,,,,,,,496.2526,497.8053,497.8054,498.2994,return,0.0306,,75.26041667,,,,,,FBP-OG-18.png,0.37,1.2,37,0.75,,,,,,,,,,,,,0,10,10,36,1,,,,,,,,,,,,,,,,,,,,,,,,,,,,
,,,,,V3_032,20,female,2024-10-21_17h42.56.213,jersey_experiment_5_v3,2023.2.2,Win32,85.47008547,,,,,,,,,,,,,,,,498.2998,499.8526,499.8526,501.5701,return,1.1059,,39.58333333,,,,,,FBP-OG-17.png,0.35,1.2,31,0.75,,,,,,,,,,,,,0,11,11,30,1,,,,,,,,,,,,,,,,,,,,,,,,,,,,
,,,,,V3_032,20,female,2024-10-21_17h42.56.213,jersey_experiment_5_v3,2023.2.2,Win32,85.47008547,,,,,,,,,,,,,,,,501.5704,502.8644,502.8644,504.5231,return,0.7488,,94.40104167,,,,,,FBP-PT-17.png,0.45,1.2,20,0.5,,,,,,,,,,,,,0,12,12,19,1,,,,,,,,,,,,,,,,,,,,,,,,,,,,
,,,,,V3_032,20,female,2024-10-21_17h42.56.213,jersey_experiment_5_v3,2023.2.2,Win32,85.47008547,,,,,,,,,,,,,,,,504.5234,505.8173,505.8173,506.5585,return,0.051,,59.765625,,,,,,FBP-PT-17.png,0.35,1.2,16,0.5,,,,,,,,,,,,,0,13,13,15,1,,,,,,,,,,,,,,,,,,,,,,,,,,,,
,,,,,V3_032,20,female,2024-10-21_17h42.56.213,jersey_experiment_5_v3,2023.2.2,Win32,85.47008547,,,,,,,,,,,,,,,,506.5588,508.1116,508.1116,509.041,return,0.0234,,74.86979167,,,,,,FBP-OG-19.png,0.37,1.2,42,0.75,,,,,,,,,,,,,0,14,14,41,1,,,,,,,,,,,,,,,,,,,,,,,,,,,,
,,,,,V3_032,20,female,2024-10-21_17h42.56.213,jersey_experiment_5_v3,2023.2.2,Win32,85.47008547,,,,,,,,,,,,,,,,509.0413,510.3352,510.3353,510.8293,return,0.0644,,74.86979167,,,,,,FBP-PT-17.png,0.37,1.2,17,0.5,,,,,,,,,,,,,0,15,15,16,1,,,,,,,,,,,,,,,,,,,,,,,,,,,,
,,,,,V3_032,20,female,2024-10-21_17h42.56.213,jersey_experiment_5_v3,2023.2.2,Win32,85.47008547,,,,,,,,,,,,,,,,510.8296,512.1236,512.1236,512.6057,return,0.0283,,84.765625,,,,,,FBP-PT-19.png,0.37,1.2,27,0.5,,,,,,,,,,,,,0,16,16,26,1,,,,,,,,,,,,,,,,,,,,,,,,,,,,
,,,,,V3_032,20,female,2024-10-21_17h42.56.213,jersey_experiment_5_v3,2023.2.2,Win32,85.47008547,,,,,,,,,,,,,,,,512.6058,513.8999,513.8999,515.6177,return,0.7855,,99.08854167,,,,,,FBP-RB-18.png,0.43,1.2,54,0.5,,,,,,,,,,,,,0,17,17,53,1,,,,,,,,,,,,,,,,,,,,,,,,,,,,
,,,,,V3_032,20,female,2024-10-21_17h42.56.213,jersey_experiment_5_v3,2023.2.2,Win32,85.47008547,,,,,,,,,,,,,,,,515.618,516.9119,516.912,517.5,return,0.1243,,99.08854167,,,,,,FBP-YG-91.png,0.45,1.2,15,0.5,,,,,,,,,,,,,0,18,18,14,1,,,,,,,,,,,,,,,,,,,,,,,,,,,,
,,,,,V3_032,20,female,2024-10-21_17h42.56.213,jersey_experiment_5_v3,2023.2.2,Win32,85.47008547,,,,,,,,,,,,,,,,517.5003,518.7945,518.7946,519.8178,return,0.1488,,60.15625,,,,,,FBP-RB-19.png,0.35,1.2,56,0.5,,,,,,,,,,,,,0,19,19,55,1,,,,,,,,,,,,,,,,,,,,,,,,,,,,
,,,,,V3_032,20,female,2024-10-21_17h42.56.213,jersey_experiment_5_v3,2023.2.2,Win32,85.47008547,,,,,,,,,,,,,,,,519.818,521.1121,521.1122,521.6768,return,0.0178,,76.953125,,,,,,FBP-PT-19.png,0.4,1.2,28,0.5,,,,,,,,,,,,,0,20,20,27,1,,,,,,,,,,,,,,,,,,,,,,,,,,,,
,,,,,V3_032,20,female,2024-10-21_17h42.56.213,jersey_experiment_5_v3,2023.2.2,Win32,85.47008547,,,,,,,,,,,,,,,,521.6771,523.2298,523.2299,523.9356,return,0.0263,,99.21875,,,,,,FBP-OG-18.png,0.43,1.2,39,0.75,,,,,,,,,,,,,0,21,21,38,1,,,,,,,,,,,,,,,,,,,,,,,,,,,,
,,,,,V3_032,20,female,2024-10-21_17h42.56.213,jersey_experiment_5_v3,2023.2.2,Win32,85.47008547,,,,,,,,,,,,,,,,523.9358,525.2299,525.2299,525.7946,return,0.0843,,99.21875,,,,,,FBP-PT-19.png,0.43,1.2,29,0.5,,,,,,,,,,,,,0,22,22,28,1,,,,,,,,,,,,,,,,,,,,,,,,,,,,
,,,,,V3_032,20,female,2024-10-21_17h42.56.213,jersey_experiment_5_v3,2023.2.2,Win32,85.47008547,,,,,,,,,,,,,,,,525.795,527.089,527.0891,528.1475,return,0.2376,,55.859375,,,,,,FBP-YG-81.png,0.35,1.2,6,0.5,,,,,,,,,,,,,0,23,23,5,1,,,,,,,,,,,,,,,,,,,,,,,,,,,,
,,,,,V3_032,20,female,2024-10-21_17h42.56.213,jersey_experiment_5_v3,2023.2.2,Win32,85.47008547,,,,,,,,,,,,,,,,528.1478,529.442,529.442,530.3712,return,0.0006,,99.86979167,,,,,,FBP-PT-18.png,0.43,1.2,24,0.5,,,,,,,,,,,,,0,24,24,23,1,,,,,,,,,,,,,,,,,,,,,,,,,,,,
,,,,,V3_032,20,female,2024-10-21_17h42.56.213,jersey_experiment_5_v3,2023.2.2,Win32,85.47008547,,,,,,,,,,,,,,,,530.3715,531.6653,531.6653,532.6536,return,0.0758,,98.828125,,,,,,FBP-YG-71.png,0.45,1.2,5,0.5,,,,,,,,,,,,,0,25,25,4,1,,,,,,,,,,,,,,,,,,,,,,,,,,,,
,,,,,V3_032,20,female,2024-10-21_17h42.56.213,jersey_experiment_5_v3,2023.2.2,Win32,85.47008547,,,,,,,,,,,,,,,,532.654,533.9477,533.9478,535.5363,return,0.8718,,76.04166667,,,,,,FBP-PT-18.png,0.4,1.2,23,0.5,,,,,,,,,,,,,0,26,26,22,1,,,,,,,,,,,,,,,,,,,,,,,,,,,,
,,,,,V3_032,20,female,2024-10-21_17h42.56.213,jersey_experiment_5_v3,2023.2.2,Win32,85.47008547,,,,,,,,,,,,,,,,535.5365,536.8303,536.8304,537.4655,return,0.0206,,68.22916667,,,,,,FBP-YG-81.png,0.37,1.2,7,0.5,,,,,,,,,,,,,0,27,27,6,1,,,,,,,,,,,,,,,,,,,,,,,,,,,,
,,,,,V3_032,20,female,2024-10-21_17h42.56.213,jersey_experiment_5_v3,2023.2.2,Win32,85.47008547,,,,,,,,,,,,,,,,537.4657,538.76,538.76,539.9715,return,0.7054,,89.71354167,,,,,,FBP-YG-81.png,0.45,1.2,10,0.5,,,,,,,,,,,,,0,28,28,9,1,,,,,,,,,,,,,,,,,,,,,,,,,,,,
,,,,,V3_032,20,female,2024-10-21_17h42.56.213,jersey_experiment_5_v3,2023.2.2,Win32,85.47008547,,,,,,,,,,,,,,,,539.9719,541.2657,541.2658,542.7951,return,0.172,,99.73958333,,,,,,FBP-RB-19.png,0.45,1.2,60,0.5,,,,,,,,,,,,,0,29,29,59,1,,,,,,,,,,,,,,,,,,,,,,,,,,,,
,,,,,V3_032,20,female,2024-10-21_17h42.56.213,jersey_experiment_5_v3,2023.2.2,Win32,85.47008547,,,,,,,,,,,,,,,,542.7953,544.0894,544.0894,544.96,return,0.1072,,99.609375,,,,,,FBP-RB-17.png,0.43,1.2,49,0.5,,,,,,,,,,,,,0,30,30,48,1,,,,,,,,,,,,,,,,,,,,,,,,,,,,
,,,,,V3_032,20,female,2024-10-21_17h42.56.213,jersey_experiment_5_v3,2023.2.2,Win32,85.47008547,,,,,,,,,,,,,,,,544.9602,546.2543,546.2543,547.7483,return,0.8156,,79.6875,,,,,,FBP-YG-91.png,0.4,1.2,13,0.5,,,,,,,,,,,,,0,31,31,12,1,,,,,,,,,,,,,,,,,,,,,,,,,,,,
,,,,,V3_032,20,female,2024-10-21_17h42.56.213,jersey_experiment_5_v3,2023.2.2,Win32,85.47008547,,,,,,,,,,,,,,,,547.7485,549.0425,549.0425,549.7484,return,0.0713,,61.45833333,,,,,,FBP-YG-71.png,0.35,1.2,1,0.5,,,,,,,,,,,,,0,32,32,0,1,,,,,,,,,,,,,,,,,,,,,,,,,,,,
,,,,,V3_032,20,female,2024-10-21_17h42.56.213,jersey_experiment_5_v3,2023.2.2,Win32,85.47008547,,,,,,,,,,,,,,,,549.7487,551.3015,551.3016,552.3485,return,0.5561,,81.640625,,,,,,FBP-OG-19.png,0.4,1.2,43,0.75,,,,,,,,,,,,,0,33,33,42,1,,,,,,,,,,,,,,,,,,,,,,,,,,,,
,,,,,V3_032,20,female,2024-10-21_17h42.56.213,jersey_experiment_5_v3,2023.2.2,Win32,85.47008547,,,,,,,,,,,,,,,,552.3488,553.6426,553.6427,554.7015,return,0.157,,98.95833333,,,,,,FBP-PT-18.png,0.45,1.2,25,0.5,,,,,,,,,,,,,0,34,34,24,1,,,,,,,,,,,,,,,,,,,,,,,,,,,,
,,,,,V3_032,20,female,2024-10-21_17h42.56.213,jersey_experiment_5_v3,2023.2.2,Win32,85.47008547,,,,,,,,,,,,,,,,554.7017,556.2545,556.2545,556.8662,return,0.1057,,99.08854167,,,,,,FBP-OG-19.png,0.43,1.2,44,0.75,,,,,,,,,,,,,0,35,35,43,1,,,,,,,,,,,,,,,,,,,,,,,,,,,,
,,,,,V3_032,20,female,2024-10-21_17h42.56.213,jersey_experiment_5_v3,2023.2.2,Win32,85.47008547,,,,,,,,,,,,,,,,556.8664,558.4193,558.4193,559.2193,return,0.0706,,74.86979167,,,,,,FBP-OG-17.png,0.37,1.2,32,0.75,,,,,,,,,,,,,0,36,36,31,1,,,,,,,,,,,,,,,,,,,,,,,,,,,,
,,,,,V3_032,20,female,2024-10-21_17h42.56.213,jersey_experiment_5_v3,2023.2.2,Win32,85.47008547,,,,,,,,,,,,,,,,559.2196,560.5135,560.5136,561.8194,return,0.1122,,59.24479167,,,,,,FBP-PT-18.png,0.37,1.2,22,0.5,,,,,,,,,,,,,0,37,37,21,1,,,,,,,,,,,,,,,,,,,,,,,,,,,,
,,,,,V3_032,20,female,2024-10-21_17h42.56.213,jersey_experiment_5_v3,2023.2.2,Win32,85.47008547,,,,,,,,,,,,,,,,561.8197,563.1136,563.1136,563.796,return,0.0604,,81.51041667,,,,,,FBP-YG-91.png,0.43,1.2,14,0.5,,,,,,,,,,,,,0,38,38,13,1,,,,,,,,,,,,,,,,,,,,,,,,,,,,
,,,,,V3_032,20,female,2024-10-21_17h42.56.213,jersey_experiment_5_v3,2023.2.2,Win32,85.47008547,,,,,,,,,,,,,,,,563.7962,565.349,565.349,565.8196,return,0.0272,,85.546875,,,,,,FBP-OG-18.png,0.4,1.2,38,0.75,,,,,,,,,,,,,0,39,39,37,1,,,,,,,,,,,,,,,,,,,,,,,,,,,,
,,,,,V3_032,20,female,2024-10-21_17h42.56.213,jersey_experiment_5_v3,2023.2.2,Win32,85.47008547,,,,,,,,,,,,,,,,565.8199,567.1137,567.1137,568.0432,return,0.018,,50,,,,,,FBP-RB-18.png,0.35,1.2,51,0.5,,,,,,,,,,,,,0,40,40,50,1,,,,,,,,,,,,,,,,,,,,,,,,,,,,
,,,,,V3_032,20,female,2024-10-21_17h42.56.213,jersey_experiment_5_v3,2023.2.2,Win32,85.47008547,,,,,,,,,,,,,,,,568.0434,569.3374,569.3374,570.2079,return,0.0498,,75.26041667,,,,,,FBP-YG-71.png,0.37,1.2,2,0.5,,,,,,,,,,,,,0,41,41,1,1,,,,,,,,,,,,,,,,,,,,,,,,,,,,
,,,,,V3_032,20,female,2024-10-21_17h42.56.213,jersey_experiment_5_v3,2023.2.2,Win32,85.47008547,,,,,,,,,,,,,,,,570.2082,571.7611,571.7611,572.8905,return,0.16,,99.73958333,,,,,,FBP-OG-19.png,0.45,1.2,45,0.75,,,,,,,,,,,,,0,42,42,44,1,,,,,,,,,,,,,,,,,,,,,,,,,,,,
,,,,,V3_032,20,female,2024-10-21_17h42.56.213,jersey_experiment_5_v3,2023.2.2,Win32,85.47008547,,,,,,,,,,,,,,,,572.8906,574.4435,574.4435,575.067,return,0.1607,,99.08854167,,,,,,FBP-OG-18.png,0.45,1.2,40,0.75,,,,,,,,,,,,,0,43,43,39,1,,,,,,,,,,,,,,,,,,,,,,,,,,,,
,,,,,V3_032,20,female,2024-10-21_17h42.56.213,jersey_experiment_5_v3,2023.2.2,Win32,85.47008547,,,,,,,,,,,,,,,,575.0672,576.3612,576.3612,577.22,return,0.0236,,75.52083333,,,,,,FBP-RB-19.png,0.4,1.2,58,0.5,,,,,,,,,,,,,0,44,44,57,1,,,,,,,,,,,,,,,,,,,,,,,,,,,,
,,,,,V3_032,20,female,2024-10-21_17h42.56.213,jersey_experiment_5_v3,2023.2.2,Win32,85.47008547,,,,,,,,,,,,,,,,577.2203,578.5141,578.5141,579.42,return,0.0182,,50.13020833,,,,,,FBP-RB-17.png,0.37,1.2,47,0.5,,,,,,,,,,,,,0,45,45,46,1,,,,,,,,,,,,,,,,,,,,,,,,,,,,
,,,,,V3_032,20,female,2024-10-21_17h42.56.213,jersey_experiment_5_v3,2023.2.2,Win32,85.47008547,,,,,,,,,,,,,,,,579.4202,580.7144,580.7146,581.6673,return,0.0935,,78.64583333,,,,,,FBP-PT-17.png,0.43,1.2,19,0.5,,,,,,,,,,,,,0,46,46,18,1,,,,,,,,,,,,,,,,,,,,,,,,,,,,
,,,,,V3_032,20,female,2024-10-21_17h42.56.213,jersey_experiment_5_v3,2023.2.2,Win32,85.47008547,,,,,,,,,,,,,,,,581.6675,583.2203,583.2203,584.1967,return,0.1179,,82.29166667,,,,,,FBP-OG-17.png,0.4,1.2,33,0.75,,,,,,,,,,,,,0,47,47,32,1,,,,,,,,,,,,,,,,,,,,,,,,,,,,
,,,,,V3_032,20,female,2024-10-21_17h42.56.213,jersey_experiment_5_v3,2023.2.2,Win32,85.47008547,,,,,,,,,,,,,,,,584.1969,585.7499,585.7499,586.8203,return,0.0946,,58.59375,,,,,,FBP-OG-18.png,0.35,1.2,36,0.75,,,,,,,,,,,,,0,48,48,35,1,,,,,,,,,,,,,,,,,,,,,,,,,,,,
,,,,,V3_032,20,female,2024-10-21_17h42.56.213,jersey_experiment_5_v3,2023.2.2,Win32,85.47008547,,,,,,,,,,,,,,,,586.8206,588.1145,588.1146,589.1616,return,0.233,,77.21354167,,,,,,FBP-YG-81.png,0.4,1.2,8,0.5,,,,,,,,,,,,,0,49,49,7,1,,,,,,,,,,,,,,,,,,,,,,,,,,,,
,,,,,V3_032,20,female,2024-10-21_17h42.56.213,jersey_experiment_5_v3,2023.2.2,Win32,85.47008547,,,,,,,,,,,,,,,,589.1619,590.7148,590.7148,591.244,return,0.0535,,88.41145833,,,,,,FBP-OG-17.png,0.43,1.2,34,0.75,,,,,,,,,,,,,0,50,50,33,1,,,,,,,,,,,,,,,,,,,,,,,,,,,,
,,,,,V3_032,20,female,2024-10-21_17h42.56.213,jersey_experiment_5_v3,2023.2.2,Win32,85.47008547,,,,,,,,,,,,,,,,591.2444,592.5382,592.5383,593.1501,return,0.0622,,96.35416667,,,,,,FBP-RB-18.png,0.45,1.2,55,0.5,,,,,,,,,,,,,0,51,51,54,1,,,,,,,,,,,,,,,,,,,,,,,,,,,,
,,,,,V3_032,20,female,2024-10-21_17h42.56.213,jersey_experiment_5_v3,2023.2.2,Win32,85.47008547,,,,,,,,,,,,,,,,593.1503,594.4441,594.4442,595.4913,return,0.0867,,98.4375,,,,,,FBP-YG-71.png,0.43,1.2,4,0.5,,,,,,,,,,,,,0,52,52,3,1,,,,,,,,,,,,,,,,,,,,,,,,,,,,
,,,,,V3_032,20,female,2024-10-21_17h42.56.213,jersey_experiment_5_v3,2023.2.2,Win32,85.47008547,,,,,,,,,,,,,,,,595.4915,596.7854,596.7855,597.6678,return,0.0102,,73.95833333,,,,,,FBP-RB-17.png,0.35,1.2,46,0.5,,,,,,,,,,,,,0,53,53,45,1,,,,,,,,,,,,,,,,,,,,,,,,,,,,
,,,,,V3_032,20,female,2024-10-21_17h42.56.213,jersey_experiment_5_v3,2023.2.2,Win32,85.47008547,,,,,,,,,,,,,,,,597.6681,598.962,598.962,600.6562,return,0.8965,,49.73958333,,,,,,FBP-PT-19.png,0.35,1.2,26,0.5,,,,,,,,,,,,,0,54,54,25,1,,,,,,,,,,,,,,,,,,,,,,,,,,,,
,,,,,V3_032,20,female,2024-10-21_17h42.56.213,jersey_experiment_5_v3,2023.2.2,Win32,85.47008547,,,,,,,,,,,,,,,,600.6564,601.9504,601.9504,603.068,return,0.0522,,75.52083333,,,,,,FBP-RB-17.png,0.4,1.2,48,0.5,,,,,,,,,,,,,0,55,55,47,1,,,,,,,,,,,,,,,,,,,,,,,,,,,,
,,,,,V3_032,20,female,2024-10-21_17h42.56.213,jersey_experiment_5_v3,2023.2.2,Win32,85.47008547,,,,,,,,,,,,,,,,603.0683,604.3622,604.3622,605.374,return,0.0032,,99.73958333,,,,,,FBP-PT-19.png,0.45,1.2,30,0.5,,,,,,,,,,,,,0,56,56,29,1,,,,,,,,,,,,,,,,,,,,,,,,,,,,
,,,,,V3_032,20,female,2024-10-21_17h42.56.213,jersey_experiment_5_v3,2023.2.2,Win32,85.47008547,,,,,,,,,,,,,,,,605.3743,606.9272,606.9272,607.6682,return,0.0079,,50.52083333,,,,,,FBP-OG-19.png,0.35,1.2,41,0.75,,,,,,,,,,,,,0,57,57,40,1,,,,,,,,,,,,,,,,,,,,,,,,,,,,
,,,,,V3_032,20,female,2024-10-21_17h42.56.213,jersey_experiment_5_v3,2023.2.2,Win32,85.47008547,,,,,,,,,,,,,,,,607.6685,608.9624,608.9625,610.0448,return,0.2487,,76.171875,,,,,,FBP-YG-91.png,0.37,1.2,12,0.5,,,,,,,,,,,,,0,58,58,11,1,,,,,,,,,,,,,,,,,,,,,,,,,,,,
,,,,,V3_032,20,female,2024-10-21_17h42.56.213,jersey_experiment_5_v3,2023.2.2,Win32,85.47008547,,,,,,,,,,,,,,,,610.0451,611.3389,611.3389,611.9154,return,0.0894,,76.171875,,,,,,FBP-RB-18.png,0.4,1.2,53,0.5,,,,,,,,,,,,,0,59,59,52,1,,,,,,,,,,,,,,,,,,,,,,,,,,,,
,,,,,V3_032,20,female,2024-10-21_17h42.56.213,jersey_experiment_5_v3,2023.2.2,Win32,85.47008547,,,,,,,,,,,,,,,,611.9169,613.2097,613.2097,613.8684,return,0.0412,,94.40104167,,,,,,FBP-YG-19.png,0.43,1.2,14,0.5,,,,,,,,,,,,,,,,,,0,0,0,13,1,,,,,,,,,,,,,,,,,,,,,,,
,,,,,V3_032,20,female,2024-10-21_17h42.56.213,jersey_experiment_5_v3,2023.2.2,Win32,85.47008547,,,,,,,,,,,,,,,,613.8686,615.1628,615.1628,615.9861,return,0.0604,,49.21875,,,,,,FBP-PT-81.png,0.35,1.2,21,0.5,,,,,,,,,,,,,,,,,,0,1,1,20,1,,,,,,,,,,,,,,,,,,,,,,,
,,,,,V3_032,20,female,2024-10-21_17h42.56.213,jersey_experiment_5_v3,2023.2.2,Win32,85.47008547,,,,,,,,,,,,,,,,615.9864,617.5392,617.5393,618.6215,return,0.0737,,98.4375,,,,,,FBP-OG-71.png,0.43,1.2,34,0.75,,,,,,,,,,,,,,,,,,0,2,2,33,1,,,,,,,,,,,,,,,,,,,,,,,
,,,,,V3_032,20,female,2024-10-21_17h42.56.213,jersey_experiment_5_v3,2023.2.2,Win32,85.47008547,,,,,,,,,,,,,,,,618.6217,619.9157,619.9158,620.6099,return,0.0242,,78.38541667,,,,,,FBP-YG-18.png,0.4,1.2,8,0.5,,,,,,,,,,,,,,,,,,0,3,3,7,1,,,,,,,,,,,,,,,,,,,,,,,
,,,,,V3_032,20,female,2024-10-21_17h42.56.213,jersey_experiment_5_v3,2023.2.2,Win32,85.47008547,,,,,,,,,,,,,,,,620.6102,621.904,621.9041,623.0338,return,0.5346,,95.3125,,,,,,FBP-YG-18.png,0.43,1.2,9,0.5,,,,,,,,,,,,,,,,,,0,4,4,8,1,,,,,,,,,,,,,,,,,,,,,,,
,,,,,V3_032,20,female,2024-10-21_17h42.56.213,jersey_experiment_5_v3,2023.2.2,Win32,85.47008547,,,,,,,,,,,,,,,,623.0341,624.3275,624.3276,625.116,return,0.0994,,98.30729167,,,,,,FBP-RB-71.png,0.43,1.2,49,0.5,,,,,,,,,,,,,,,,,,0,5,5,48,1,,,,,,,,,,,,,,,,,,,,,,,
,,,,,V3_032,20,female,2024-10-21_17h42.56.213,jersey_experiment_5_v3,2023.2.2,Win32,85.47008547,,,,,,,,,,,,,,,,625.1163,626.4102,626.4102,627.0925,return,0.0478,,99.21875,,,,,,FBP-YG-17.png,0.45,1.2,5,0.5,,,,,,,,,,,,,,,,,,0,6,6,4,1,,,,,,,,,,,,,,,,,,,,,,,
,,,,,V3_032,20,female,2024-10-21_17h42.56.213,jersey_experiment_5_v3,2023.2.2,Win32,85.47008547,,,,,,,,,,,,,,,,627.0927,628.3866,628.3866,628.8925,return,0.1236,,99.21875,,,,,,FBP-PT-71.png,0.45,1.2,20,0.5,,,,,,,,,,,,,,,,,,0,7,7,19,1,,,,,,,,,,,,,,,,,,,,,,,
,,,,,V3_032,20,female,2024-10-21_17h42.56.213,jersey_experiment_5_v3,2023.2.2,Win32,85.47008547,,,,,,,,,,,,,,,,628.8929,630.4457,630.4457,630.975,return,0.0021,,94.140625,,,,,,FBP-OG-81.png,0.43,1.2,39,0.75,,,,,,,,,,,,,,,,,,0,8,8,38,1,,,,,,,,,,,,,,,,,,,,,,,
,,,,,V3_032,20,female,2024-10-21_17h42.56.213,jersey_experiment_5_v3,2023.2.2,Win32,85.47008547,,,,,,,,,,,,,,,,630.9753,632.2691,632.2691,633.2456,return,0.0623,,47.265625,,,,,,FBP-RB-71.png,0.35,1.2,46,0.5,,,,,,,,,,,,,,,,,,0,9,9,45,1,,,,,,,,,,,,,,,,,,,,,,,
,,,,,V3_032,20,female,2024-10-21_17h42.56.213,jersey_experiment_5_v3,2023.2.2,Win32,85.47008547,,,,,,,,,,,,,,,,633.2458,634.5397,634.5398,636.1635,return,0.8237,,79.6875,,,,,,FBP-YG-17.png,0.43,1.2,4,0.5,,,,,,,,,,,,,,,,,,0,10,10,3,1,,,,,,,,,,,,,,,,,,,,,,,
,,,,,V3_032,20,female,2024-10-21_17h42.56.213,jersey_experiment_5_v3,2023.2.2,Win32,85.47008547,,,,,,,,,,,,,,,,636.1638,637.7164,637.7164,638.7988,return,0.0116,,73.828125,,,,,,FBP-OG-71.png,0.37,1.2,32,0.75,,,,,,,,,,,,,,,,,,0,11,11,31,1,,,,,,,,,,,,,,,,,,,,,,,
,,,,,V3_032,20,female,2024-10-21_17h42.56.213,jersey_experiment_5_v3,2023.2.2,Win32,85.47008547,,,,,,,,,,,,,,,,638.7991,640.0929,640.093,640.6694,return,0.0403,,88.41145833,,,,,,FBP-PT-91.png,0.4,1.2,28,0.5,,,,,,,,,,,,,,,,,,0,12,12,27,1,,,,,,,,,,,,,,,,,,,,,,,
,,,,,V3_032,20,female,2024-10-21_17h42.56.213,jersey_experiment_5_v3,2023.2.2,Win32,85.47008547,,,,,,,,,,,,,,,,640.6697,641.9636,641.9636,642.5284,return,0.0475,,62.5,,,,,,FBP-RB-81.png,0.35,1.2,51,0.5,,,,,,,,,,,,,,,,,,0,13,13,50,1,,,,,,,,,,,,,,,,,,,,,,,
,,,,,V3_032,20,female,2024-10-21_17h42.56.213,jersey_experiment_5_v3,2023.2.2,Win32,85.47008547,,,,,,,,,,,,,,,,642.5287,643.8225,643.8225,644.3636,return,0.076,,67.83854167,,,,,,FBP-YG-17.png,0.35,1.2,1,0.5,,,,,,,,,,,,,,,,,,0,14,14,0,1,,,,,,,,,,,,,,,,,,,,,,,
,,,,,V3_032,20,female,2024-10-21_17h42.56.213,jersey_experiment_5_v3,2023.2.2,Win32,85.47008547,,,,,,,,,,,,,,,,644.3639,645.6578,645.6578,646.3167,return,0.0883,,76.82291667,,,,,,FBP-YG-19.png,0.37,1.2,12,0.5,,,,,,,,,,,,,,,,,,0,15,15,11,1,,,,,,,,,,,,,,,,,,,,,,,
,,,,,V3_032,20,female,2024-10-21_17h42.56.213,jersey_experiment_5_v3,2023.2.2,Win32,85.47008547,,,,,,,,,,,,,,,,646.3171,647.6108,647.6108,648.8462,return,0.6026,,94.921875,,,,,,FBP-RB-81.png,0.43,1.2,54,0.5,,,,,,,,,,,,,,,,,,0,16,16,53,1,,,,,,,,,,,,,,,,,,,,,,,
,,,,,V3_032,20,female,2024-10-21_17h42.56.213,jersey_experiment_5_v3,2023.2.2,Win32,85.47008547,,,,,,,,,,,,,,,,648.8465,650.1404,650.1405,650.8579,return,0.242,,84.89583333,,,,,,FBP-PT-81.png,0.37,1.2,22,0.5,,,,,,,,,,,,,,,,,,0,17,17,21,1,,,,,,,,,,,,,,,,,,,,,,,
,,,,,V3_032,20,female,2024-10-21_17h42.56.213,jersey_experiment_5_v3,2023.2.2,Win32,85.47008547,,,,,,,,,,,,,,,,650.8582,652.1522,652.1523,653.1053,return,0.1424,,98.4375,,,,,,FBP-PT-81.png,0.43,1.2,24,0.5,,,,,,,,,,,,,,,,,,0,18,18,23,1,,,,,,,,,,,,,,,,,,,,,,,
,,,,,V3_032,20,female,2024-10-21_17h42.56.213,jersey_experiment_5_v3,2023.2.2,Win32,85.47008547,,,,,,,,,,,,,,,,653.1056,654.3993,654.3993,655.07,return,0.1106,,98.4375,,,,,,FBP-PT-71.png,0.43,1.2,19,0.5,,,,,,,,,,,,,,,,,,0,19,19,18,1,,,,,,,,,,,,,,,,,,,,,,,
,,,,,V3_032,20,female,2024-10-21_17h42.56.213,jersey_experiment_5_v3,2023.2.2,Win32,85.47008547,,,,,,,,,,,,,,,,655.0703,656.6232,656.6232,658.1406,return,1.0887,,80.859375,,,,,,FBP-OG-81.png,0.4,1.2,38,0.75,,,,,,,,,,,,,,,,,,0,20,20,37,1,,,,,,,,,,,,,,,,,,,,,,,
,,,,,V3_032,20,female,2024-10-21_17h42.56.213,jersey_experiment_5_v3,2023.2.2,Win32,85.47008547,,,,,,,,,,,,,,,,658.1409,659.6937,659.6938,660.1643,return,0.0108,,64.71354167,,,,,,FBP-OG-81.png,0.35,1.2,36,0.75,,,,,,,,,,,,,,,,,,0,21,21,35,1,,,,,,,,,,,,,,,,,,,,,,,
,,,,,V3_032,20,female,2024-10-21_17h42.56.213,jersey_experiment_5_v3,2023.2.2,Win32,85.47008547,,,,,,,,,,,,,,,,660.1645,661.7173,661.7173,662.3173,return,0.0519,,78.25520833,,,,,,FBP-OG-81.png,0.45,1.2,40,0.75,,,,,,,,,,,,,,,,,,0,22,22,39,1,,,,,,,,,,,,,,,,,,,,,,,
,,,,,V3_032,20,female,2024-10-21_17h42.56.213,jersey_experiment_5_v3,2023.2.2,Win32,85.47008547,,,,,,,,,,,,,,,,662.3176,663.8702,663.8703,664.4938,return,0.0281,,90.75520833,,,,,,FBP-OG-91.png,0.45,1.2,45,0.75,,,,,,,,,,,,,,,,,,0,23,23,44,1,,,,,,,,,,,,,,,,,,,,,,,
,,,,,V3_032,20,female,2024-10-21_17h42.56.213,jersey_experiment_5_v3,2023.2.2,Win32,85.47008547,,,,,,,,,,,,,,,,664.494,665.7879,665.788,666.4586,return,0.0197,,61.19791667,,,,,,FBP-YG-18.png,0.37,1.2,7,0.5,,,,,,,,,,,,,,,,,,0,24,24,6,1,,,,,,,,,,,,,,,,,,,,,,,
,,,,,V3_032,20,female,2024-10-21_17h42.56.213,jersey_experiment_5_v3,2023.2.2,Win32,85.47008547,,,,,,,,,,,,,,,,666.459,668.0118,668.0119,668.4587,return,0.0432,,73.046875,,,,,,FBP-OG-91.png,0.4,1.2,43,0.75,,,,,,,,,,,,,,,,,,0,25,25,42,1,,,,,,,,,,,,,,,,,,,,,,,
,,,,,V3_032,20,female,2024-10-21_17h42.56.213,jersey_experiment_5_v3,2023.2.2,Win32,85.47008547,,,,,,,,,,,,,,,,668.4589,669.7529,669.753,670.4823,return,0.0603,,71.35416667,,,,,,FBP-YG-17.png,0.37,1.2,2,0.5,,,,,,,,,,,,,,,,,,0,26,26,1,1,,,,,,,,,,,,,,,,,,,,,,,
,,,,,V3_032,20,female,2024-10-21_17h42.56.213,jersey_experiment_5_v3,2023.2.2,Win32,85.47008547,,,,,,,,,,,,,,,,670.4826,671.7765,671.7765,672.4471,return,0.0033,,59.63541667,,,,,,FBP-RB-91.png,0.35,1.2,56,0.5,,,,,,,,,,,,,,,,,,0,27,27,55,1,,,,,,,,,,,,,,,,,,,,,,,
,,,,,V3_032,20,female,2024-10-21_17h42.56.213,jersey_experiment_5_v3,2023.2.2,Win32,85.47008547,,,,,,,,,,,,,,,,672.4474,674.0003,674.0003,674.6824,return,0.0184,,74.86979167,,,,,,FBP-OG-91.png,0.37,1.2,42,0.75,,,,,,,,,,,,,,,,,,0,28,28,41,1,,,,,,,,,,,,,,,,,,,,,,,
,,,,,V3_032,20,female,2024-10-21_17h42.56.213,jersey_experiment_5_v3,2023.2.2,Win32,85.47008547,,,,,,,,,,,,,,,,674.6826,676.2239,676.2239,676.7885,return,0.1096,,78.90625,,,,,,FBP-OG-71.png,0.4,1.2,33,0.75,,,,,,,,,,,,,,,,,,0,29,29,32,1,,,,,,,,,,,,,,,,,,,,,,,
,,,,,V3_032,20,female,2024-10-21_17h42.56.213,jersey_experiment_5_v3,2023.2.2,Win32,85.47008547,,,,,,,,,,,,,,,,676.7887,678.0825,678.0826,678.765,return,0.0176,,92.05729167,,,,,,FBP-YG-19.png,0.45,1.2,15,0.5,,,,,,,,,,,,,,,,,,0,30,30,14,1,,,,,,,,,,,,,,,,,,,,,,,
,,,,,V3_032,20,female,2024-10-21_17h42.56.213,jersey_experiment_5_v3,2023.2.2,Win32,85.47008547,,,,,,,,,,,,,,,,678.7651,680.0592,680.0593,681.1181,return,0.1444,,99.34895833,,,,,,FBP-RB-91.png,0.45,1.2,60,0.5,,,,,,,,,,,,,,,,,,0,31,31,59,1,,,,,,,,,,,,,,,,,,,,,,,
,,,,,V3_032,20,female,2024-10-21_17h42.56.213,jersey_experiment_5_v3,2023.2.2,Win32,85.47008547,,,,,,,,,,,,,,,,681.1183,682.6711,682.6711,683.5298,return,0.0087,,61.97916667,,,,,,FBP-OG-71.png,0.35,1.2,31,0.75,,,,,,,,,,,,,,,,,,0,32,32,30,1,,,,,,,,,,,,,,,,,,,,,,,
,,,,,V3_032,20,female,2024-10-21_17h42.56.213,jersey_experiment_5_v3,2023.2.2,Win32,85.47008547,,,,,,,,,,,,,,,,683.53,684.8239,684.8241,685.283,return,0.0161,,62.5,,,,,,FBP-PT-71.png,0.35,1.2,16,0.5,,,,,,,,,,,,,,,,,,0,33,33,15,1,,,,,,,,,,,,,,,,,,,,,,,
,,,,,V3_032,20,female,2024-10-21_17h42.56.213,jersey_experiment_5_v3,2023.2.2,Win32,85.47008547,,,,,,,,,,,,,,,,685.2832,686.5774,686.5774,687.7416,return,0.0047,,99.08854167,,,,,,FBP-YG-18.png,0.45,1.2,10,0.5,,,,,,,,,,,,,,,,,,0,34,34,9,1,,,,,,,,,,,,,,,,,,,,,,,
,,,,,V3_032,20,female,2024-10-21_17h42.56.213,jersey_experiment_5_v3,2023.2.2,Win32,85.47008547,,,,,,,,,,,,,,,,687.7419,689.036,689.0361,690.2124,return,0.4468,,90.234375,,,,,,FBP-RB-71.png,0.4,1.2,48,0.5,,,,,,,,,,,,,,,,,,0,35,35,47,1,,,,,,,,,,,,,,,,,,,,,,,
,,,,,V3_032,20,female,2024-10-21_17h42.56.213,jersey_experiment_5_v3,2023.2.2,Win32,85.47008547,,,,,,,,,,,,,,,,690.2126,691.5066,691.5066,692.236,return,0.0409,,82.29166667,,,,,,FBP-RB-81.png,0.37,1.2,52,0.5,,,,,,,,,,,,,,,,,,0,36,36,51,1,,,,,,,,,,,,,,,,,,,,,,,
,,,,,V3_032,20,female,2024-10-21_17h42.56.213,jersey_experiment_5_v3,2023.2.2,Win32,85.47008547,,,,,,,,,,,,,,,,692.2363,693.5302,693.5302,694.3538,return,0.0579,,98.95833333,,,,,,FBP-PT-91.png,0.45,1.2,30,0.5,,,,,,,,,,,,,,,,,,0,37,37,29,1,,,,,,,,,,,,,,,,,,,,,,,
,,,,,V3_032,20,female,2024-10-21_17h42.56.213,jersey_experiment_5_v3,2023.2.2,Win32,85.47008547,,,,,,,,,,,,,,,,694.3541,695.6481,695.6481,696.4126,return,0.0729,,75.26041667,,,,,,FBP-RB-81.png,0.4,1.2,53,0.5,,,,,,,,,,,,,,,,,,0,38,38,52,1,,,,,,,,,,,,,,,,,,,,,,,
,,,,,V3_032,20,female,2024-10-21_17h42.56.213,jersey_experiment_5_v3,2023.2.2,Win32,85.47008547,,,,,,,,,,,,,,,,696.4129,697.7069,697.7071,698.26,return,0.0547,,84.765625,,,,,,FBP-YG-19.png,0.4,1.2,13,0.5,,,,,,,,,,,,,,,,,,0,39,39,12,1,,,,,,,,,,,,,,,,,,,,,,,
,,,,,V3_032,20,female,2024-10-21_17h42.56.213,jersey_experiment_5_v3,2023.2.2,Win32,85.47008547,,,,,,,,,,,,,,,,698.2603,699.8129,699.8129,700.5069,return,0.1472,,57.16145833,,,,,,FBP-OG-91.png,0.35,1.2,41,0.75,,,,,,,,,,,,,,,,,,0,40,40,40,1,,,,,,,,,,,,,,,,,,,,,,,
,,,,,V3_032,20,female,2024-10-21_17h42.56.213,jersey_experiment_5_v3,2023.2.2,Win32,85.47008547,,,,,,,,,,,,,,,,700.5072,702.0601,702.0601,702.6129,return,0.0337,,93.75,,,,,,FBP-OG-91.png,0.43,1.2,44,0.75,,,,,,,,,,,,,,,,,,0,41,41,43,1,,,,,,,,,,,,,,,,,,,,,,,
,,,,,V3_032,20,female,2024-10-21_17h42.56.213,jersey_experiment_5_v3,2023.2.2,Win32,85.47008547,,,,,,,,,,,,,,,,702.6132,703.9071,703.9072,704.5306,return,0.0374,,87.76041667,,,,,,FBP-PT-81.png,0.4,1.2,23,0.5,,,,,,,,,,,,,,,,,,0,42,42,22,1,,,,,,,,,,,,,,,,,,,,,,,
,,,,,V3_032,20,female,2024-10-21_17h42.56.213,jersey_experiment_5_v3,2023.2.2,Win32,85.47008547,,,,,,,,,,,,,,,,704.5309,705.8248,705.8248,706.8602,return,0.0182,,99.609375,,,,,,FBP-PT-91.png,0.43,1.2,29,0.5,,,,,,,,,,,,,,,,,,0,43,43,28,1,,,,,,,,,,,,,,,,,,,,,,,
,,,,,V3_032,20,female,2024-10-21_17h42.56.213,jersey_experiment_5_v3,2023.2.2,Win32,85.47008547,,,,,,,,,,,,,,,,706.8605,708.4131,708.4131,708.8602,return,0.0752,,99.47916667,,,,,,FBP-OG-71.png,0.45,1.2,35,0.75,,,,,,,,,,,,,,,,,,0,44,44,34,1,,,,,,,,,,,,,,,,,,,,,,,
,,,,,V3_032,20,female,2024-10-21_17h42.56.213,jersey_experiment_5_v3,2023.2.2,Win32,85.47008547,,,,,,,,,,,,,,,,708.8604,710.1544,710.1545,710.9073,return,0.0191,,71.35416667,,,,,,FBP-YG-19.png,0.35,1.2,11,0.5,,,,,,,,,,,,,,,,,,0,45,45,10,1,,,,,,,,,,,,,,,,,,,,,,,
,,,,,V3_032,20,female,2024-10-21_17h42.56.213,jersey_experiment_5_v3,2023.2.2,Win32,85.47008547,,,,,,,,,,,,,,,,710.9075,712.2015,712.2016,712.8838,return,0.0678,,74.47916667,,,,,,FBP-PT-71.png,0.4,1.2,18,0.5,,,,,,,,,,,,,,,,,,0,46,46,17,1,,,,,,,,,,,,,,,,,,,,,,,
,,,,,V3_032,20,female,2024-10-21_17h42.56.213,jersey_experiment_5_v3,2023.2.2,Win32,85.47008547,,,,,,,,,,,,,,,,712.8841,714.1782,714.1782,715.7427,return,1.0628,,62.5,,,,,,FBP-PT-91.png,0.37,1.2,27,0.5,,,,,,,,,,,,,,,,,,0,47,47,26,1,,,,,,,,,,,,,,,,,,,,,,,
,,,,,V3_032,20,female,2024-10-21_17h42.56.213,jersey_experiment_5_v3,2023.2.2,Win32,85.47008547,,,,,,,,,,,,,,,,715.7429,717.037,717.0371,717.6957,return,0.0025,,93.09895833,,,,,,FBP-RB-71.png,0.45,1.2,50,0.5,,,,,,,,,,,,,,,,,,0,48,48,49,1,,,,,,,,,,,,,,,,,,,,,,,
,,,,,V3_032,20,female,2024-10-21_17h42.56.213,jersey_experiment_5_v3,2023.2.2,Win32,85.47008547,,,,,,,,,,,,,,,,717.696,718.9901,718.9901,719.7077,return,0.0742,,60.02604167,,,,,,FBP-PT-91.png,0.35,1.2,26,0.5,,,,,,,,,,,,,,,,,,0,49,49,25,1,,,,,,,,,,,,,,,,,,,,,,,
,,,,,V3_032,20,female,2024-10-21_17h42.56.213,jersey_experiment_5_v3,2023.2.2,Win32,85.47008547,,,,,,,,,,,,,,,,719.7078,721.0017,721.0018,721.7313,return,0.0139,,78.38541667,,,,,,FBP-RB-91.png,0.4,1.2,58,0.5,,,,,,,,,,,,,,,,,,0,50,50,57,1,,,,,,,,,,,,,,,,,,,,,,,
,,,,,V3_032,20,female,2024-10-21_17h42.56.213,jersey_experiment_5_v3,2023.2.2,Win32,85.47008547,,,,,,,,,,,,,,,,721.7315,723.0255,723.0255,724.4608,return,0.7941,,95.96354167,,,,,,FBP-RB-91.png,0.43,1.2,59,0.5,,,,,,,,,,,,,,,,,,0,51,51,58,1,,,,,,,,,,,,,,,,,,,,,,,
,,,,,V3_032,20,female,2024-10-21_17h42.56.213,jersey_experiment_5_v3,2023.2.2,Win32,85.47008547,,,,,,,,,,,,,,,,724.461,725.755,725.755,727.2021,return,0.6354,,75,,,,,,FBP-RB-71.png,0.37,1.2,47,0.5,,,,,,,,,,,,,,,,,,0,52,52,46,1,,,,,,,,,,,,,,,,,,,,,,,
,,,,,V3_032,20,female,2024-10-21_17h42.56.213,jersey_experiment_5_v3,2023.2.2,Win32,85.47008547,,,,,,,,,,,,,,,,727.2024,728.4963,728.4963,729.8257,return,0.7216,,87.23958333,,,,,,FBP-RB-81.png,0.45,1.2,55,0.5,,,,,,,,,,,,,,,,,,0,53,53,54,1,,,,,,,,,,,,,,,,,,,,,,,
,,,,,V3_032,20,female,2024-10-21_17h42.56.213,jersey_experiment_5_v3,2023.2.2,Win32,85.47008547,,,,,,,,,,,,,,,,729.826,731.1199,731.12,732.0964,return,0.1671,,99.08854167,,,,,,FBP-PT-81.png,0.45,1.2,25,0.5,,,,,,,,,,,,,,,,,,0,54,54,24,1,,,,,,,,,,,,,,,,,,,,,,,
,,,,,V3_032,20,female,2024-10-21_17h42.56.213,jersey_experiment_5_v3,2023.2.2,Win32,85.47008547,,,,,,,,,,,,,,,,732.0967,733.3906,733.3906,734.2023,return,0.0202,,72.13541667,,,,,,FBP-YG-18.png,0.35,1.2,6,0.5,,,,,,,,,,,,,,,,,,0,55,55,5,1,,,,,,,,,,,,,,,,,,,,,,,
,,,,,V3_032,20,female,2024-10-21_17h42.56.213,jersey_experiment_5_v3,2023.2.2,Win32,85.47008547,,,,,,,,,,,,,,,,734.2025,735.7554,735.7555,736.3553,return,0.1516,,82.55208333,,,,,,FBP-OG-81.png,0.37,1.2,37,0.75,,,,,,,,,,,,,,,,,,0,56,56,36,1,,,,,,,,,,,,,,,,,,,,,,,
,,,,,V3_032,20,female,2024-10-21_17h42.56.213,jersey_experiment_5_v3,2023.2.2,Win32,85.47008547,,,,,,,,,,,,,,,,736.3557,737.6495,737.6496,738.1908,return,0.083,,89.0625,,,,,,FBP-RB-91.png,0.37,1.2,57,0.5,,,,,,,,,,,,,,,,,,0,57,57,56,1,,,,,,,,,,,,,,,,,,,,,,,
,,,,,V3_032,20,female,2024-10-21_17h42.56.213,jersey_experiment_5_v3,2023.2.2,Win32,85.47008547,,,,,,,,,,,,,,,,738.1909,739.4849,739.4849,740.0966,return,0.0724,,93.09895833,,,,,,FBP-YG-17.png,0.4,1.2,3,0.5,,,,,,,,,,,,,,,,,,0,58,58,2,1,,,,,,,,,,,,,,,,,,,,,,,
,,,,,V3_032,20,female,2024-10-21_17h42.56.213,jersey_experiment_5_v3,2023.2.2,Win32,85.47008547,,,,,,,,,,,,,,,,740.097,741.3909,741.3909,742.2496,return,0.3116,,70.05208333,,,,,,FBP-PT-71.png,0.37,1.2,17,0.5,,,,,,,,,,,,,,,,,,0,59,59,16,1,,,,,,,,,,,,,,,,,,,,,,,
,,,,,V3_032,20,female,2024-10-21_17h42.56.213,jersey_experiment_5_v3,2023.2.2,Win32,85.47008547,,,,,,,,,,,,,,,,,,,,,,,,,,,,,,,,,,,,,,,,,,,,,,,,,,,,,,,,742.2498,746.1911,return,3.9327,,,,,,,,,,,,,,,,,,,
,,,,,V3_032,20,female,2024-10-21_17h42.56.213,jersey_experiment_5_v3,2023.2.2,Win32,85.47008547,,,,,,,,,,,,,,,,,,,,,,,,,,,,,,,,,,,,,,,,,,,,,,,,,,,,,,,,,,,,,746.1913,750.5089,1,3.8097,return,0.4952,,,,,,,,,,,,
,,,,,V3_032,20,female,2024-10-21_17h42.56.213,jersey_experiment_5_v3,2023.2.2,Win32,85.47008547,,,,,,,,,,,,,,,,,,,,,,,,,,,,,,,,,,,,,,,,,,,,,,,,,,,,,,,,,,,,,,,,,,,,750.5091,784.2052,maybe the difference between how we perecieve how strong the black vs white football players are. something with race?,right,29.147,,,,,,
,,,,,V3_032,20,female,2024-10-21_17h42.56.213,jersey_experiment_5_v3,2023.2.2,Win32,85.47008547,,,,,,,,,,,,,,,,,,,,,,,,,,,,,,,,,,,,,,,,,,,,,,,,,,,,,,,,,,,,,,,,,,,,,,,,,,784.2053,787.4045,return,3.1926,