requirements.started,requirements.stopped,key_resp_3.keys,key_resp_3.rt,key_resp_3.duration,Subject ID,Age,Gender,date,expName,psychopyVersion,OS,frameRate,instructions1.started,instructions1.stopped,key_resp.keys,key_resp.rt,key_resp.duration,example.started,example.stopped,enter_2.keys,enter_2.rt,enter_2.duration,instructions2.started,instructions2.stopped,enter_3.keys,enter_3.rt,enter_3.duration,image.started,image.stopped,slider_2.started,slider_2.stopped,next.keys,next.rt,next.duration,slider.response,trial_block_1.thisRepN,trial_block_1.thisTrialN,trial_block_1.thisN,trial_block_1.thisIndex,trial_block_1.ran,Path,Width,Height,Index,Duration,trial_block_2.thisRepN,trial_block_2.thisTrialN,trial_block_2.thisN,trial_block_2.thisIndex,trial_block_2.ran,rest_break.started,rest_break.stopped,end_break.started,end_break.stopped,key_resp_5.keys,key_resp_5.rt,key_resp_5.duration,trial_block_3.thisRepN,trial_block_3.thisTrialN,trial_block_3.thisN,trial_block_3.thisIndex,trial_block_3.ran,trial_block_4.thisRepN,trial_block_4.thisTrialN,trial_block_4.thisN,trial_block_4.thisIndex,trial_block_4.ran,questions_intro.started,questions_intro.stopped,enter_12.keys,enter_12.rt,enter_12.duration,question2.started,question2.stopped,question_doingbest.response,question_doingbest.rt,enter_15.keys,enter_15.rt,enter_15.duration,pattern.started,pattern.stopped,pattern_2.text,enter_17.keys,enter_17.rt,enter_17.duration,thankyou.started,thankyou.stopped,enter_14.keys,enter_14.rt,enter_14.duration
0,9.8549,return,9.848,,V3_019,17,Female,2024-10-17_15h46.03.240,jersey_experiment_5_v3,2023.2.2,Win32,85.47008547,,,,,,,,,,,,,,,,,,,,,,,,,,,,,,,,,,,,,,,,,,,,,,,,,,,,,,,,,,,,,,,,,,,,,,,,,,,,,,
,,,,,V3_019,17,Female,2024-10-17_15h46.03.240,jersey_experiment_5_v3,2023.2.2,Win32,85.47008547,9.855,18.42,return,8.5415,,,,,,,,,,,,,,,,,,,,,,,,,,,,,,,,,,,,,,,,,,,,,,,,,,,,,,,,,,,,,,,,,,,,,,,,,,
,,,,,V3_019,17,Female,2024-10-17_15h46.03.240,jersey_experiment_5_v3,2023.2.2,Win32,85.47008547,,,,,,18.4201,22.2554,return,3.7971,,,,,,,,,,,,,,,,,,,,,,,,,,,,,,,,,,,,,,,,,,,,,,,,,,,,,,,,,,,,,,,,,,,,,
,,,,,V3_019,17,Female,2024-10-17_15h46.03.240,jersey_experiment_5_v3,2023.2.2,Win32,85.47008547,,,,,,,,,,,22.2555,51.9858,return,29.706,,,,,,,,,,,,,,,,,,,,,,,,,,,,,,,,,,,,,,,,,,,,,,,,,,,,,,,,,,,,,,,,
,,,,,V3_019,17,Female,2024-10-17_15h46.03.240,jersey_experiment_5_v3,2023.2.2,Win32,85.47008547,,,,,,,,,,,,,,,,51.9882,53.5387,53.5387,60.892,return,0.9854,,69.66145833,0,0,0,16,1,FBP-PT-17.png,0.37,1.2,17,0.75,,,,,,,,,,,,,,,,,,,,,,,,,,,,,,,,,,,,,,,,,,,,,
,,,,,V3_019,17,Female,2024-10-17_15h46.03.240,jersey_experiment_5_v3,2023.2.2,Win32,85.47008547,,,,,,,,,,,,,,,,60.8925,62.445,62.4451,65.7627,return,1.6475,,78.38541667,0,1,1,54,1,FBP-RB-18.png,0.45,1.2,55,0.75,,,,,,,,,,,,,,,,,,,,,,,,,,,,,,,,,,,,,,,,,,,,,
,,,,,V3_019,17,Female,2024-10-17_15h46.03.240,jersey_experiment_5_v3,2023.2.2,Win32,85.47008547,,,,,,,,,,,,,,,,65.7631,67.0571,67.0571,71.3982,return,2.2219,,37.23958333,0,2,2,30,1,FBP-OG-17.png,0.35,1.2,31,0.5,,,,,,,,,,,,,,,,,,,,,,,,,,,,,,,,,,,,,,,,,,,,,
,,,,,V3_019,17,Female,2024-10-17_15h46.03.240,jersey_experiment_5_v3,2023.2.2,Win32,85.47008547,,,,,,,,,,,,,,,,71.3985,72.9512,72.9513,76.3748,return,0.8933,,63.93229167,0,3,3,57,1,FBP-RB-19.png,0.4,1.2,58,0.75,,,,,,,,,,,,,,,,,,,,,,,,,,,,,,,,,,,,,,,,,,,,,
,,,,,V3_019,17,Female,2024-10-17_15h46.03.240,jersey_experiment_5_v3,2023.2.2,Win32,85.47008547,,,,,,,,,,,,,,,,76.3751,77.9278,77.9279,81.3749,return,1.1118,,85.15625,0,4,4,29,1,FBP-PT-19.png,0.45,1.2,30,0.75,,,,,,,,,,,,,,,,,,,,,,,,,,,,,,,,,,,,,,,,,,,,,
,,,,,V3_019,17,Female,2024-10-17_15h46.03.240,jersey_experiment_5_v3,2023.2.2,Win32,85.47008547,,,,,,,,,,,,,,,,81.3753,82.6694,82.6694,87.187,return,1.3304,,42.578125,0,5,5,36,1,FBP-OG-18.png,0.37,1.2,37,0.5,,,,,,,,,,,,,,,,,,,,,,,,,,,,,,,,,,,,,,,,,,,,,
,,,,,V3_019,17,Female,2024-10-17_15h46.03.240,jersey_experiment_5_v3,2023.2.2,Win32,85.47008547,,,,,,,,,,,,,,,,87.1873,88.74,88.74,92.8459,return,1.4174,,23.30729167,0,6,6,45,1,FBP-RB-17.png,0.35,1.2,46,0.75,,,,,,,,,,,,,,,,,,,,,,,,,,,,,,,,,,,,,,,,,,,,,
,,,,,V3_019,17,Female,2024-10-17_15h46.03.240,jersey_experiment_5_v3,2023.2.2,Win32,85.47008547,,,,,,,,,,,,,,,,92.8463,94.3991,94.3991,98.1639,return,1.7546,,82.94270833,0,7,7,53,1,FBP-RB-18.png,0.43,1.2,54,0.75,,,,,,,,,,,,,,,,,,,,,,,,,,,,,,,,,,,,,,,,,,,,,
,,,,,V3_019,17,Female,2024-10-17_15h46.03.240,jersey_experiment_5_v3,2023.2.2,Win32,85.47008547,,,,,,,,,,,,,,,,98.1646,99.4579,99.458,105.2348,return,2.0361,,77.86458333,0,8,8,33,1,FBP-OG-17.png,0.43,1.2,34,0.5,,,,,,,,,,,,,,,,,,,,,,,,,,,,,,,,,,,,,,,,,,,,,
,,,,,V3_019,17,Female,2024-10-17_15h46.03.240,jersey_experiment_5_v3,2023.2.2,Win32,85.47008547,,,,,,,,,,,,,,,,105.2352,106.5289,106.529,112.7996,return,2.639,,20.05208333,0,9,9,35,1,FBP-OG-18.png,0.35,1.2,36,0.5,,,,,,,,,,,,,,,,,,,,,,,,,,,,,,,,,,,,,,,,,,,,,
,,,,,V3_019,17,Female,2024-10-17_15h46.03.240,jersey_experiment_5_v3,2023.2.2,Win32,85.47008547,,,,,,,,,,,,,,,,112.7999,114.3528,114.3528,120.5295,return,2.1086,,22.52604167,0,10,10,6,1,FBP-YG-81.png,0.37,1.2,7,0.75,,,,,,,,,,,,,,,,,,,,,,,,,,,,,,,,,,,,,,,,,,,,,
,,,,,V3_019,17,Female,2024-10-17_15h46.03.240,jersey_experiment_5_v3,2023.2.2,Win32,85.47008547,,,,,,,,,,,,,,,,120.5298,122.0825,122.0825,127.3768,return,3.0498,,89.71354167,0,11,11,3,1,FBP-YG-71.png,0.43,1.2,4,0.75,,,,,,,,,,,,,,,,,,,,,,,,,,,,,,,,,,,,,,,,,,,,,
,,,,,V3_019,17,Female,2024-10-17_15h46.03.240,jersey_experiment_5_v3,2023.2.2,Win32,85.47008547,,,,,,,,,,,,,,,,127.3772,128.9298,128.9299,134.7888,return,2.8807,,32.16145833,0,12,12,15,1,FBP-PT-17.png,0.35,1.2,16,0.75,,,,,,,,,,,,,,,,,,,,,,,,,,,,,,,,,,,,,,,,,,,,,
,,,,,V3_019,17,Female,2024-10-17_15h46.03.240,jersey_experiment_5_v3,2023.2.2,Win32,85.47008547,,,,,,,,,,,,,,,,134.7891,136.083,136.0831,143.436,return,0.8441,,15.625,0,13,13,40,1,FBP-OG-19.png,0.35,1.2,41,0.5,,,,,,,,,,,,,,,,,,,,,,,,,,,,,,,,,,,,,,,,,,,,,
,,,,,V3_019,17,Female,2024-10-17_15h46.03.240,jersey_experiment_5_v3,2023.2.2,Win32,85.47008547,,,,,,,,,,,,,,,,143.4363,144.7305,144.7305,148.801,return,1.5552,,74.47916667,0,14,14,42,1,FBP-OG-19.png,0.4,1.2,43,0.5,,,,,,,,,,,,,,,,,,,,,,,,,,,,,,,,,,,,,,,,,,,,,
,,,,,V3_019,17,Female,2024-10-17_15h46.03.240,jersey_experiment_5_v3,2023.2.2,Win32,85.47008547,,,,,,,,,,,,,,,,148.8013,150.0955,150.0955,153.5542,return,1.1676,,83.46354167,0,15,15,32,1,FBP-OG-17.png,0.4,1.2,33,0.5,,,,,,,,,,,,,,,,,,,,,,,,,,,,,,,,,,,,,,,,,,,,,
,,,,,V3_019,17,Female,2024-10-17_15h46.03.240,jersey_experiment_5_v3,2023.2.2,Win32,85.47008547,,,,,,,,,,,,,,,,153.5544,155.1075,155.1075,159.7309,return,2.3781,,32.55208333,0,16,16,5,1,FBP-YG-81.png,0.35,1.2,6,0.75,,,,,,,,,,,,,,,,,,,,,,,,,,,,,,,,,,,,,,,,,,,,,
,,,,,V3_019,17,Female,2024-10-17_15h46.03.240,jersey_experiment_5_v3,2023.2.2,Win32,85.47008547,,,,,,,,,,,,,,,,159.7313,161.2839,161.2839,166.0958,return,1.1232,,45.18229167,0,17,17,26,1,FBP-PT-19.png,0.37,1.2,27,0.75,,,,,,,,,,,,,,,,,,,,,,,,,,,,,,,,,,,,,,,,,,,,,
,,,,,V3_019,17,Female,2024-10-17_15h46.03.240,jersey_experiment_5_v3,2023.2.2,Win32,85.47008547,,,,,,,,,,,,,,,,166.0961,167.6488,167.6488,170.3078,return,1.284,,95.18229167,0,18,18,14,1,FBP-YG-91.png,0.45,1.2,15,0.75,,,,,,,,,,,,,,,,,,,,,,,,,,,,,,,,,,,,,,,,,,,,,
,,,,,V3_019,17,Female,2024-10-17_15h46.03.240,jersey_experiment_5_v3,2023.2.2,Win32,85.47008547,,,,,,,,,,,,,,,,170.3082,171.602,171.6021,174.9667,return,1.7792,,94.140625,0,19,19,34,1,FBP-OG-17.png,0.45,1.2,35,0.5,,,,,,,,,,,,,,,,,,,,,,,,,,,,,,,,,,,,,,,,,,,,,
,,,,,V3_019,17,Female,2024-10-17_15h46.03.240,jersey_experiment_5_v3,2023.2.2,Win32,85.47008547,,,,,,,,,,,,,,,,174.967,176.5196,176.5197,181.8729,return,2.1455,,95.18229167,0,20,20,23,1,FBP-PT-18.png,0.43,1.2,24,0.75,,,,,,,,,,,,,,,,,,,,,,,,,,,,,,,,,,,,,,,,,,,,,
,,,,,V3_019,17,Female,2024-10-17_15h46.03.240,jersey_experiment_5_v3,2023.2.2,Win32,85.47008547,,,,,,,,,,,,,,,,181.8732,183.4258,183.4258,187.473,return,1.7537,,76.30208333,0,21,21,12,1,FBP-YG-91.png,0.4,1.2,13,0.75,,,,,,,,,,,,,,,,,,,,,,,,,,,,,,,,,,,,,,,,,,,,,
,,,,,V3_019,17,Female,2024-10-17_15h46.03.240,jersey_experiment_5_v3,2023.2.2,Win32,85.47008547,,,,,,,,,,,,,,,,187.4733,189.0262,189.0262,192.8966,return,1.5792,,50,0,22,22,46,1,FBP-RB-17.png,0.37,1.2,47,0.75,,,,,,,,,,,,,,,,,,,,,,,,,,,,,,,,,,,,,,,,,,,,,
,,,,,V3_019,17,Female,2024-10-17_15h46.03.240,jersey_experiment_5_v3,2023.2.2,Win32,85.47008547,,,,,,,,,,,,,,,,192.8969,194.4499,194.4499,198.4498,return,0.9558,,46.22395833,0,23,23,20,1,FBP-PT-18.png,0.35,1.2,21,0.75,,,,,,,,,,,,,,,,,,,,,,,,,,,,,,,,,,,,,,,,,,,,,
,,,,,V3_019,17,Female,2024-10-17_15h46.03.240,jersey_experiment_5_v3,2023.2.2,Win32,85.47008547,,,,,,,,,,,,,,,,198.4501,200.0028,200.0028,211.1799,return,9.3266,,69.79166667,0,24,24,52,1,FBP-RB-18.png,0.4,1.2,53,0.75,,,,,,,,,,,,,,,,,,,,,,,,,,,,,,,,,,,,,,,,,,,,,
,,,,,V3_019,17,Female,2024-10-17_15h46.03.240,jersey_experiment_5_v3,2023.2.2,Win32,85.47008547,,,,,,,,,,,,,,,,211.1801,212.474,212.4741,216.4859,return,0.9283,,53.125,0,25,25,31,1,FBP-OG-17.png,0.37,1.2,32,0.5,,,,,,,,,,,,,,,,,,,,,,,,,,,,,,,,,,,,,,,,,,,,,
,,,,,V3_019,17,Female,2024-10-17_15h46.03.240,jersey_experiment_5_v3,2023.2.2,Win32,85.47008547,,,,,,,,,,,,,,,,216.4863,218.0388,218.0388,221.5331,return,1.7947,,43.75,0,26,26,55,1,FBP-RB-19.png,0.35,1.2,56,0.75,,,,,,,,,,,,,,,,,,,,,,,,,,,,,,,,,,,,,,,,,,,,,
,,,,,V3_019,17,Female,2024-10-17_15h46.03.240,jersey_experiment_5_v3,2023.2.2,Win32,85.47008547,,,,,,,,,,,,,,,,221.5333,223.0863,223.0863,226.0509,return,1.3414,,93.22916667,0,27,27,49,1,FBP-RB-17.png,0.45,1.2,50,0.75,,,,,,,,,,,,,,,,,,,,,,,,,,,,,,,,,,,,,,,,,,,,,
,,,,,V3_019,17,Female,2024-10-17_15h46.03.240,jersey_experiment_5_v3,2023.2.2,Win32,85.47008547,,,,,,,,,,,,,,,,226.0512,227.6039,227.604,230.8512,return,0.9786,,81.25,0,28,28,47,1,FBP-RB-17.png,0.4,1.2,48,0.75,,,,,,,,,,,,,,,,,,,,,,,,,,,,,,,,,,,,,,,,,,,,,
,,,,,V3_019,17,Female,2024-10-17_15h46.03.240,jersey_experiment_5_v3,2023.2.2,Win32,85.47008547,,,,,,,,,,,,,,,,230.8516,232.404,232.4041,234.5571,return,0.8426,,79.296875,0,29,29,22,1,FBP-PT-18.png,0.4,1.2,23,0.75,,,,,,,,,,,,,,,,,,,,,,,,,,,,,,,,,,,,,,,,,,,,,
,,,,,V3_019,17,Female,2024-10-17_15h46.03.240,jersey_experiment_5_v3,2023.2.2,Win32,85.47008547,,,,,,,,,,,,,,,,234.5574,236.1101,236.1101,241.6045,return,3.7307,,48.95833333,0,30,30,25,1,FBP-PT-19.png,0.35,1.2,26,0.75,,,,,,,,,,,,,,,,,,,,,,,,,,,,,,,,,,,,,,,,,,,,,
,,,,,V3_019,17,Female,2024-10-17_15h46.03.240,jersey_experiment_5_v3,2023.2.2,Win32,85.47008547,,,,,,,,,,,,,,,,241.6048,242.8987,242.8987,246.487,return,1.6104,,93.75,0,31,31,44,1,FBP-OG-19.png,0.45,1.2,45,0.5,,,,,,,,,,,,,,,,,,,,,,,,,,,,,,,,,,,,,,,,,,,,,
,,,,,V3_019,17,Female,2024-10-17_15h46.03.240,jersey_experiment_5_v3,2023.2.2,Win32,85.47008547,,,,,,,,,,,,,,,,246.4874,248.0403,248.0403,253.4048,return,2.3959,,51.43229167,0,32,32,51,1,FBP-RB-18.png,0.37,1.2,52,0.75,,,,,,,,,,,,,,,,,,,,,,,,,,,,,,,,,,,,,,,,,,,,,
,,,,,V3_019,17,Female,2024-10-17_15h46.03.240,jersey_experiment_5_v3,2023.2.2,Win32,85.47008547,,,,,,,,,,,,,,,,253.4052,254.699,254.699,257.8287,return,1.4464,,57.68229167,0,33,33,37,1,FBP-OG-18.png,0.4,1.2,38,0.5,,,,,,,,,,,,,,,,,,,,,,,,,,,,,,,,,,,,,,,,,,,,,
,,,,,V3_019,17,Female,2024-10-17_15h46.03.240,jersey_experiment_5_v3,2023.2.2,Win32,85.47008547,,,,,,,,,,,,,,,,257.8292,259.3815,259.3816,261.711,return,0.9943,,75,0,34,34,48,1,FBP-RB-17.png,0.43,1.2,49,0.75,,,,,,,,,,,,,,,,,,,,,,,,,,,,,,,,,,,,,,,,,,,,,
,,,,,V3_019,17,Female,2024-10-17_15h46.03.240,jersey_experiment_5_v3,2023.2.2,Win32,85.47008547,,,,,,,,,,,,,,,,261.7114,263.0052,263.0052,266.1818,return,1.7521,,83.85416667,0,35,35,39,1,FBP-OG-18.png,0.45,1.2,40,0.5,,,,,,,,,,,,,,,,,,,,,,,,,,,,,,,,,,,,,,,,,,,,,
,,,,,V3_019,17,Female,2024-10-17_15h46.03.240,jersey_experiment_5_v3,2023.2.2,Win32,85.47008547,,,,,,,,,,,,,,,,266.182,267.735,267.735,269.8407,return,0.779,,84.63541667,0,36,36,58,1,FBP-RB-19.png,0.43,1.2,59,0.75,,,,,,,,,,,,,,,,,,,,,,,,,,,,,,,,,,,,,,,,,,,,,
,,,,,V3_019,17,Female,2024-10-17_15h46.03.240,jersey_experiment_5_v3,2023.2.2,Win32,85.47008547,,,,,,,,,,,,,,,,269.841,271.3938,271.3939,274.594,return,1.0505,,87.23958333,0,37,37,19,1,FBP-PT-17.png,0.45,1.2,20,0.75,,,,,,,,,,,,,,,,,,,,,,,,,,,,,,,,,,,,,,,,,,,,,
,,,,,V3_019,17,Female,2024-10-17_15h46.03.240,jersey_experiment_5_v3,2023.2.2,Win32,85.47008547,,,,,,,,,,,,,,,,274.5943,276.1472,276.1472,280.9471,return,0.7324,,47.52604167,0,38,38,11,1,FBP-YG-91.png,0.37,1.2,12,0.75,,,,,,,,,,,,,,,,,,,,,,,,,,,,,,,,,,,,,,,,,,,,,
,,,,,V3_019,17,Female,2024-10-17_15h46.03.240,jersey_experiment_5_v3,2023.2.2,Win32,85.47008547,,,,,,,,,,,,,,,,280.9475,282.5,282.5001,284.9119,return,0.6977,,96.35416667,0,39,39,24,1,FBP-PT-18.png,0.45,1.2,25,0.75,,,,,,,,,,,,,,,,,,,,,,,,,,,,,,,,,,,,,,,,,,,,,
,,,,,V3_019,17,Female,2024-10-17_15h46.03.240,jersey_experiment_5_v3,2023.2.2,Win32,85.47008547,,,,,,,,,,,,,,,,284.9122,286.4649,286.4649,292.3592,return,0.6624,,72.13541667,0,40,40,27,1,FBP-PT-19.png,0.4,1.2,28,0.75,,,,,,,,,,,,,,,,,,,,,,,,,,,,,,,,,,,,,,,,,,,,,
,,,,,V3_019,17,Female,2024-10-17_15h46.03.240,jersey_experiment_5_v3,2023.2.2,Win32,85.47008547,,,,,,,,,,,,,,,,292.3596,293.9121,293.9122,299.3948,return,1.3786,,24.73958333,0,41,41,56,1,FBP-RB-19.png,0.37,1.2,57,0.75,,,,,,,,,,,,,,,,,,,,,,,,,,,,,,,,,,,,,,,,,,,,,
,,,,,V3_019,17,Female,2024-10-17_15h46.03.240,jersey_experiment_5_v3,2023.2.2,Win32,85.47008547,,,,,,,,,,,,,,,,299.3951,300.9478,300.9479,304.2538,return,1.1134,,77.47395833,0,42,42,8,1,FBP-YG-81.png,0.43,1.2,9,0.75,,,,,,,,,,,,,,,,,,,,,,,,,,,,,,,,,,,,,,,,,,,,,
,,,,,V3_019,17,Female,2024-10-17_15h46.03.240,jersey_experiment_5_v3,2023.2.2,Win32,85.47008547,,,,,,,,,,,,,,,,304.2541,305.8068,305.8068,309.101,return,0.6534,,55.078125,0,43,43,21,1,FBP-PT-18.png,0.37,1.2,22,0.75,,,,,,,,,,,,,,,,,,,,,,,,,,,,,,,,,,,,,,,,,,,,,
,,,,,V3_019,17,Female,2024-10-17_15h46.03.240,jersey_experiment_5_v3,2023.2.2,Win32,85.47008547,,,,,,,,,,,,,,,,309.1013,310.654,310.654,312.454,return,0.5452,,57.29166667,0,44,44,50,1,FBP-RB-18.png,0.35,1.2,51,0.75,,,,,,,,,,,,,,,,,,,,,,,,,,,,,,,,,,,,,,,,,,,,,
,,,,,V3_019,17,Female,2024-10-17_15h46.03.240,jersey_experiment_5_v3,2023.2.2,Win32,85.47008547,,,,,,,,,,,,,,,,312.4543,314.007,314.007,316.3248,return,0.5884,,78.38541667,0,45,45,18,1,FBP-PT-17.png,0.43,1.2,19,0.75,,,,,,,,,,,,,,,,,,,,,,,,,,,,,,,,,,,,,,,,,,,,,
,,,,,V3_019,17,Female,2024-10-17_15h46.03.240,jersey_experiment_5_v3,2023.2.2,Win32,85.47008547,,,,,,,,,,,,,,,,316.3252,317.619,317.619,320.2779,return,0.6352,,79.81770833,0,46,46,38,1,FBP-OG-18.png,0.43,1.2,39,0.5,,,,,,,,,,,,,,,,,,,,,,,,,,,,,,,,,,,,,,,,,,,,,
,,,,,V3_019,17,Female,2024-10-17_15h46.03.240,jersey_experiment_5_v3,2023.2.2,Win32,85.47008547,,,,,,,,,,,,,,,,320.2782,321.8308,321.8309,324.7016,return,0.5721,,68.75,0,47,47,17,1,FBP-PT-17.png,0.4,1.2,18,0.75,,,,,,,,,,,,,,,,,,,,,,,,,,,,,,,,,,,,,,,,,,,,,
,,,,,V3_019,17,Female,2024-10-17_15h46.03.240,jersey_experiment_5_v3,2023.2.2,Win32,85.47008547,,,,,,,,,,,,,,,,324.702,325.9958,325.9958,330.1136,return,0.6155,,56.11979167,0,48,48,41,1,FBP-OG-19.png,0.37,1.2,42,0.5,,,,,,,,,,,,,,,,,,,,,,,,,,,,,,,,,,,,,,,,,,,,,
,,,,,V3_019,17,Female,2024-10-17_15h46.03.240,jersey_experiment_5_v3,2023.2.2,Win32,85.47008547,,,,,,,,,,,,,,,,330.1141,331.6666,331.6667,335.0314,return,0.5416,,55.078125,0,49,49,1,1,FBP-YG-71.png,0.37,1.2,2,0.75,,,,,,,,,,,,,,,,,,,,,,,,,,,,,,,,,,,,,,,,,,,,,
,,,,,V3_019,17,Female,2024-10-17_15h46.03.240,jersey_experiment_5_v3,2023.2.2,Win32,85.47008547,,,,,,,,,,,,,,,,335.0317,336.5844,336.5844,339.0433,return,0.8837,,87.63020833,0,50,50,59,1,FBP-RB-19.png,0.45,1.2,60,0.75,,,,,,,,,,,,,,,,,,,,,,,,,,,,,,,,,,,,,,,,,,,,,
,,,,,V3_019,17,Female,2024-10-17_15h46.03.240,jersey_experiment_5_v3,2023.2.2,Win32,85.47008547,,,,,,,,,,,,,,,,339.0436,340.3374,340.3375,342.7375,return,0.6268,,87.63020833,0,51,51,43,1,FBP-OG-19.png,0.43,1.2,44,0.5,,,,,,,,,,,,,,,,,,,,,,,,,,,,,,,,,,,,,,,,,,,,,
,,,,,V3_019,17,Female,2024-10-17_15h46.03.240,jersey_experiment_5_v3,2023.2.2,Win32,85.47008547,,,,,,,,,,,,,,,,342.7378,344.2906,344.2906,346.6436,return,0.6273,,94.40104167,0,52,52,28,1,FBP-PT-19.png,0.43,1.2,29,0.75,,,,,,,,,,,,,,,,,,,,,,,,,,,,,,,,,,,,,,,,,,,,,
,,,,,V3_019,17,Female,2024-10-17_15h46.03.240,jersey_experiment_5_v3,2023.2.2,Win32,85.47008547,,,,,,,,,,,,,,,,346.6439,348.1968,348.1968,352.4437,return,0.4566,,79.55729167,0,53,53,13,1,FBP-YG-91.png,0.43,1.2,14,0.75,,,,,,,,,,,,,,,,,,,,,,,,,,,,,,,,,,,,,,,,,,,,,
,,,,,V3_019,17,Female,2024-10-17_15h46.03.240,jersey_experiment_5_v3,2023.2.2,Win32,85.47008547,,,,,,,,,,,,,,,,352.444,353.9968,353.9968,356.1615,return,0.6623,,87.5,0,54,54,9,1,FBP-YG-81.png,0.45,1.2,10,0.75,,,,,,,,,,,,,,,,,,,,,,,,,,,,,,,,,,,,,,,,,,,,,
,,,,,V3_019,17,Female,2024-10-17_15h46.03.240,jersey_experiment_5_v3,2023.2.2,Win32,85.47008547,,,,,,,,,,,,,,,,356.162,357.7147,357.7147,359.8792,return,0.5414,,72.39583333,0,55,55,2,1,FBP-YG-71.png,0.4,1.2,3,0.75,,,,,,,,,,,,,,,,,,,,,,,,,,,,,,,,,,,,,,,,,,,,,
,,,,,V3_019,17,Female,2024-10-17_15h46.03.240,jersey_experiment_5_v3,2023.2.2,Win32,85.47008547,,,,,,,,,,,,,,,,359.8796,361.4323,361.4324,363.9853,return,0.6848,,94.01041667,0,56,56,4,1,FBP-YG-71.png,0.45,1.2,5,0.75,,,,,,,,,,,,,,,,,,,,,,,,,,,,,,,,,,,,,,,,,,,,,
,,,,,V3_019,17,Female,2024-10-17_15h46.03.240,jersey_experiment_5_v3,2023.2.2,Win32,85.47008547,,,,,,,,,,,,,,,,363.9856,365.5384,365.5384,367.9738,return,0.5648,,30.20833333,0,57,57,0,1,FBP-YG-71.png,0.35,1.2,1,0.75,,,,,,,,,,,,,,,,,,,,,,,,,,,,,,,,,,,,,,,,,,,,,
,,,,,V3_019,17,Female,2024-10-17_15h46.03.240,jersey_experiment_5_v3,2023.2.2,Win32,85.47008547,,,,,,,,,,,,,,,,367.9742,369.5269,369.527,372.3973,return,0.7609,,54.55729167,0,58,58,7,1,FBP-YG-81.png,0.4,1.2,8,0.75,,,,,,,,,,,,,,,,,,,,,,,,,,,,,,,,,,,,,,,,,,,,,
,,,,,V3_019,17,Female,2024-10-17_15h46.03.240,jersey_experiment_5_v3,2023.2.2,Win32,85.47008547,,,,,,,,,,,,,,,,372.3977,373.9505,373.9505,376.7034,return,0.6271,,22.78645833,0,59,59,10,1,FBP-YG-91.png,0.35,1.2,11,0.75,,,,,,,,,,,,,,,,,,,,,,,,,,,,,,,,,,,,,,,,,,,,,
,,,,,V3_019,17,Female,2024-10-17_15h46.03.240,jersey_experiment_5_v3,2023.2.2,Win32,85.47008547,,,,,,,,,,,,,,,,376.7065,378.2564,378.2565,380.9506,return,0.5773,,39.58333333,,,,,,FBP-PT-71.png,0.37,1.2,17,0.75,0,0,0,16,1,,,,,,,,,,,,,,,,,,,,,,,,,,,,,,,,,,,,,,,,
,,,,,V3_019,17,Female,2024-10-17_15h46.03.240,jersey_experiment_5_v3,2023.2.2,Win32,85.47008547,,,,,,,,,,,,,,,,380.9509,382.2448,382.2449,386.0685,return,1.6572,,89.453125,,,,,,FBP-OG-71.png,0.45,1.2,35,0.5,0,1,1,34,1,,,,,,,,,,,,,,,,,,,,,,,,,,,,,,,,,,,,,,,,
,,,,,V3_019,17,Female,2024-10-17_15h46.03.240,jersey_experiment_5_v3,2023.2.2,Win32,85.47008547,,,,,,,,,,,,,,,,386.0691,387.6216,387.6217,390.9511,return,0.6494,,48.046875,,,,,,FBP-YG-19.png,0.37,1.2,12,0.75,0,2,2,11,1,,,,,,,,,,,,,,,,,,,,,,,,,,,,,,,,,,,,,,,,
,,,,,V3_019,17,Female,2024-10-17_15h46.03.240,jersey_experiment_5_v3,2023.2.2,Win32,85.47008547,,,,,,,,,,,,,,,,390.9514,392.5042,392.5042,395.3276,return,0.5444,,62.5,,,,,,FBP-PT-91.png,0.4,1.2,28,0.75,0,3,3,27,1,,,,,,,,,,,,,,,,,,,,,,,,,,,,,,,,,,,,,,,,
,,,,,V3_019,17,Female,2024-10-17_15h46.03.240,jersey_experiment_5_v3,2023.2.2,Win32,85.47008547,,,,,,,,,,,,,,,,395.3278,396.8808,396.8808,398.9748,return,0.6168,,73.17708333,,,,,,FBP-RB-81.png,0.4,1.2,53,0.75,0,4,4,52,1,,,,,,,,,,,,,,,,,,,,,,,,,,,,,,,,,,,,,,,,
,,,,,V3_019,17,Female,2024-10-17_15h46.03.240,jersey_experiment_5_v3,2023.2.2,Win32,85.47008547,,,,,,,,,,,,,,,,398.9752,400.528,400.5281,402.5279,return,0.7093,,85.28645833,,,,,,FBP-RB-71.png,0.43,1.2,49,0.75,0,5,5,48,1,,,,,,,,,,,,,,,,,,,,,,,,,,,,,,,,,,,,,,,,
,,,,,V3_019,17,Female,2024-10-17_15h46.03.240,jersey_experiment_5_v3,2023.2.2,Win32,85.47008547,,,,,,,,,,,,,,,,402.5282,403.8221,403.8221,409.0929,return,0.6357,,35.41666667,,,,,,FBP-OG-91.png,0.35,1.2,41,0.5,0,6,6,40,1,,,,,,,,,,,,,,,,,,,,,,,,,,,,,,,,,,,,,,,,
,,,,,V3_019,17,Female,2024-10-17_15h46.03.240,jersey_experiment_5_v3,2023.2.2,Win32,85.47008547,,,,,,,,,,,,,,,,409.0932,410.6461,410.6461,412.4458,return,0.5479,,23.56770833,,,,,,FBP-YG-17.png,0.35,1.2,1,0.75,0,7,7,0,1,,,,,,,,,,,,,,,,,,,,,,,,,,,,,,,,,,,,,,,,
,,,,,V3_019,17,Female,2024-10-17_15h46.03.240,jersey_experiment_5_v3,2023.2.2,Win32,85.47008547,,,,,,,,,,,,,,,,412.4461,413.9874,413.9876,417.1168,return,0.679,,60.9375,,,,,,FBP-RB-71.png,0.4,1.2,48,0.75,0,8,8,47,1,,,,,,,,,,,,,,,,,,,,,,,,,,,,,,,,,,,,,,,,
,,,,,V3_019,17,Female,2024-10-17_15h46.03.240,jersey_experiment_5_v3,2023.2.2,Win32,85.47008547,,,,,,,,,,,,,,,,417.1169,418.6699,418.6699,427.1172,return,0.8904,,55.98958333,,,,,,FBP-YG-18.png,0.37,1.2,7,0.75,0,9,9,6,1,,,,,,,,,,,,,,,,,,,,,,,,,,,,,,,,,,,,,,,,
,,,,,V3_019,17,Female,2024-10-17_15h46.03.240,jersey_experiment_5_v3,2023.2.2,Win32,85.47008547,,,,,,,,,,,,,,,,427.1176,428.6701,428.6701,437.8468,return,0.8481,,41.796875,,,,,,FBP-PT-91.png,0.37,1.2,27,0.75,0,10,10,26,1,,,,,,,,,,,,,,,,,,,,,,,,,,,,,,,,,,,,,,,,
,,,,,V3_019,17,Female,2024-10-17_15h46.03.240,jersey_experiment_5_v3,2023.2.2,Win32,85.47008547,,,,,,,,,,,,,,,,437.8471,439.141,439.141,441.7177,return,0.6354,,64.453125,,,,,,FBP-OG-81.png,0.4,1.2,38,0.5,0,11,11,37,1,,,,,,,,,,,,,,,,,,,,,,,,,,,,,,,,,,,,,,,,
,,,,,V3_019,17,Female,2024-10-17_15h46.03.240,jersey_experiment_5_v3,2023.2.2,Win32,85.47008547,,,,,,,,,,,,,,,,441.7182,443.2708,443.2708,445.2353,return,0.6827,,56.51041667,,,,,,FBP-PT-81.png,0.35,1.2,21,0.75,0,12,12,20,1,,,,,,,,,,,,,,,,,,,,,,,,,,,,,,,,,,,,,,,,
,,,,,V3_019,17,Female,2024-10-17_15h46.03.240,jersey_experiment_5_v3,2023.2.2,Win32,85.47008547,,,,,,,,,,,,,,,,445.2357,446.7885,446.7886,449.5414,return,0.6822,,94.27083333,,,,,,FBP-YG-19.png,0.45,1.2,15,0.75,0,13,13,14,1,,,,,,,,,,,,,,,,,,,,,,,,,,,,,,,,,,,,,,,,
,,,,,V3_019,17,Female,2024-10-17_15h46.03.240,jersey_experiment_5_v3,2023.2.2,Win32,85.47008547,,,,,,,,,,,,,,,,449.5417,451.0945,451.0945,454.1651,return,0.6823,,38.28125,,,,,,FBP-PT-81.png,0.37,1.2,22,0.75,0,14,14,21,1,,,,,,,,,,,,,,,,,,,,,,,,,,,,,,,,,,,,,,,,
,,,,,V3_019,17,Female,2024-10-17_15h46.03.240,jersey_experiment_5_v3,2023.2.2,Win32,85.47008547,,,,,,,,,,,,,,,,454.1655,455.7181,455.7181,461.6124,return,0.5143,,67.31770833,,,,,,FBP-YG-17.png,0.4,1.2,3,0.75,0,15,15,2,1,,,,,,,,,,,,,,,,,,,,,,,,,,,,,,,,,,,,,,,,
,,,,,V3_019,17,Female,2024-10-17_15h46.03.240,jersey_experiment_5_v3,2023.2.2,Win32,85.47008547,,,,,,,,,,,,,,,,461.6127,463.1654,463.1654,465.9185,return,0.9359,,68.48958333,,,,,,FBP-RB-81.png,0.37,1.2,52,0.75,0,16,16,51,1,,,,,,,,,,,,,,,,,,,,,,,,,,,,,,,,,,,,,,,,
,,,,,V3_019,17,Female,2024-10-17_15h46.03.240,jersey_experiment_5_v3,2023.2.2,Win32,85.47008547,,,,,,,,,,,,,,,,465.9187,467.2128,467.2129,471.5186,return,0.9121,,28.38541667,,,,,,FBP-OG-71.png,0.35,1.2,31,0.5,0,17,17,30,1,,,,,,,,,,,,,,,,,,,,,,,,,,,,,,,,,,,,,,,,
,,,,,V3_019,17,Female,2024-10-17_15h46.03.240,jersey_experiment_5_v3,2023.2.2,Win32,85.47008547,,,,,,,,,,,,,,,,471.519,473.0717,473.0717,476.0011,return,0.804,,27.34375,,,,,,FBP-YG-18.png,0.35,1.2,6,0.75,0,18,18,5,1,,,,,,,,,,,,,,,,,,,,,,,,,,,,,,,,,,,,,,,,
,,,,,V3_019,17,Female,2024-10-17_15h46.03.240,jersey_experiment_5_v3,2023.2.2,Win32,85.47008547,,,,,,,,,,,,,,,,476.0014,477.5544,477.5544,480.319,return,0.9354,,83.33333333,,,,,,FBP-YG-19.png,0.43,1.2,14,0.75,0,19,19,13,1,,,,,,,,,,,,,,,,,,,,,,,,,,,,,,,,,,,,,,,,
,,,,,V3_019,17,Female,2024-10-17_15h46.03.240,jersey_experiment_5_v3,2023.2.2,Win32,85.47008547,,,,,,,,,,,,,,,,480.3193,481.8723,481.8724,483.6603,return,0.5381,,92.96875,,,,,,FBP-RB-91.png,0.45,1.2,60,0.75,0,20,20,59,1,,,,,,,,,,,,,,,,,,,,,,,,,,,,,,,,,,,,,,,,
,,,,,V3_019,17,Female,2024-10-17_15h46.03.240,jersey_experiment_5_v3,2023.2.2,Win32,85.47008547,,,,,,,,,,,,,,,,483.6605,485.2133,485.2134,486.7194,return,0.5457,,86.84895833,,,,,,FBP-PT-71.png,0.45,1.2,20,0.75,0,21,21,19,1,,,,,,,,,,,,,,,,,,,,,,,,,,,,,,,,,,,,,,,,
,,,,,V3_019,17,Female,2024-10-17_15h46.03.240,jersey_experiment_5_v3,2023.2.2,Win32,85.47008547,,,,,,,,,,,,,,,,486.7196,488.0135,488.0136,490.59,return,0.5483,,79.81770833,,,,,,FBP-OG-81.png,0.43,1.2,39,0.5,0,22,22,38,1,,,,,,,,,,,,,,,,,,,,,,,,,,,,,,,,,,,,,,,,
,,,,,V3_019,17,Female,2024-10-17_15h46.03.240,jersey_experiment_5_v3,2023.2.2,Win32,85.47008547,,,,,,,,,,,,,,,,490.5904,492.1431,492.1432,495.8254,return,0.6514,,79.6875,,,,,,FBP-YG-18.png,0.45,1.2,10,0.75,0,23,23,9,1,,,,,,,,,,,,,,,,,,,,,,,,,,,,,,,,,,,,,,,,
,,,,,V3_019,17,Female,2024-10-17_15h46.03.240,jersey_experiment_5_v3,2023.2.2,Win32,85.47008547,,,,,,,,,,,,,,,,495.8258,497.3786,497.3787,499.508,return,0.5894,,18.75,,,,,,FBP-RB-91.png,0.35,1.2,56,0.75,0,24,24,55,1,,,,,,,,,,,,,,,,,,,,,,,,,,,,,,,,,,,,,,,,
,,,,,V3_019,17,Female,2024-10-17_15h46.03.240,jersey_experiment_5_v3,2023.2.2,Win32,85.47008547,,,,,,,,,,,,,,,,499.5083,500.8024,500.8024,502.8139,return,0.6778,,89.58333333,,,,,,FBP-OG-81.png,0.45,1.2,40,0.5,0,25,25,39,1,,,,,,,,,,,,,,,,,,,,,,,,,,,,,,,,,,,,,,,,
,,,,,V3_019,17,Female,2024-10-17_15h46.03.240,jersey_experiment_5_v3,2023.2.2,Win32,85.47008547,,,,,,,,,,,,,,,,502.8142,504.3555,504.3555,506.3907,return,0.5168,,33.46354167,,,,,,FBP-YG-17.png,0.37,1.2,2,0.75,0,26,26,1,1,,,,,,,,,,,,,,,,,,,,,,,,,,,,,,,,,,,,,,,,
,,,,,V3_019,17,Female,2024-10-17_15h46.03.240,jersey_experiment_5_v3,2023.2.2,Win32,85.47008547,,,,,,,,,,,,,,,,506.391,507.9438,507.9438,510.9437,return,0.6251,,13.54166667,,,,,,FBP-PT-71.png,0.35,1.2,16,0.75,0,27,27,15,1,,,,,,,,,,,,,,,,,,,,,,,,,,,,,,,,,,,,,,,,
,,,,,V3_019,17,Female,2024-10-17_15h46.03.240,jersey_experiment_5_v3,2023.2.2,Win32,85.47008547,,,,,,,,,,,,,,,,510.944,512.4966,512.4967,515.1556,return,0.7545,,85.15625,,,,,,FBP-RB-81.png,0.45,1.2,55,0.75,0,28,28,54,1,,,,,,,,,,,,,,,,,,,,,,,,,,,,,,,,,,,,,,,,
,,,,,V3_019,17,Female,2024-10-17_15h46.03.240,jersey_experiment_5_v3,2023.2.2,Win32,85.47008547,,,,,,,,,,,,,,,,515.156,516.7087,516.7087,523.3324,return,3.2609,,90.36458333,,,,,,FBP-YG-17.png,0.43,1.2,4,0.75,0,29,29,3,1,,,,,,,,,,,,,,,,,,,,,,,,,,,,,,,,,,,,,,,,
,,,,,V3_019,17,Female,2024-10-17_15h46.03.240,jersey_experiment_5_v3,2023.2.2,Win32,85.47008547,,,,,,,,,,,,,,,,523.3328,524.6265,524.6266,527.8739,return,0.5806,,65.88541667,,,,,,FBP-OG-71.png,0.4,1.2,33,0.5,0,30,30,32,1,,,,,,,,,,,,,,,,,,,,,,,,,,,,,,,,,,,,,,,,
,,,,,V3_019,17,Female,2024-10-17_15h46.03.240,jersey_experiment_5_v3,2023.2.2,Win32,85.47008547,,,,,,,,,,,,,,,,527.8742,529.1678,529.168,531.215,return,0.6532,,66.015625,,,,,,FBP-OG-91.png,0.4,1.2,43,0.5,0,31,31,42,1,,,,,,,,,,,,,,,,,,,,,,,,,,,,,,,,,,,,,,,,
,,,,,V3_019,17,Female,2024-10-17_15h46.03.240,jersey_experiment_5_v3,2023.2.2,Win32,85.47008547,,,,,,,,,,,,,,,,531.2153,532.768,532.7681,536.0857,return,0.6597,,74.08854167,,,,,,FBP-PT-71.png,0.4,1.2,18,0.75,0,32,32,17,1,,,,,,,,,,,,,,,,,,,,,,,,,,,,,,,,,,,,,,,,
,,,,,V3_019,17,Female,2024-10-17_15h46.03.240,jersey_experiment_5_v3,2023.2.2,Win32,85.47008547,,,,,,,,,,,,,,,,536.0861,537.6388,537.6388,540.1095,return,0.5597,,55.33854167,,,,,,FBP-RB-71.png,0.37,1.2,47,0.75,0,33,33,46,1,,,,,,,,,,,,,,,,,,,,,,,,,,,,,,,,,,,,,,,,
,,,,,V3_019,17,Female,2024-10-17_15h46.03.240,jersey_experiment_5_v3,2023.2.2,Win32,85.47008547,,,,,,,,,,,,,,,,540.1098,541.4036,541.4037,543.0742,return,0.4847,,57.55208333,,,,,,FBP-OG-81.png,0.35,1.2,36,0.5,0,34,34,35,1,,,,,,,,,,,,,,,,,,,,,,,,,,,,,,,,,,,,,,,,
,,,,,V3_019,17,Female,2024-10-17_15h46.03.240,jersey_experiment_5_v3,2023.2.2,Win32,85.47008547,,,,,,,,,,,,,,,,543.0745,544.6274,544.6274,546.7569,return,0.5649,,87.5,,,,,,FBP-PT-81.png,0.43,1.2,24,0.75,0,35,35,23,1,,,,,,,,,,,,,,,,,,,,,,,,,,,,,,,,,,,,,,,,
,,,,,V3_019,17,Female,2024-10-17_15h46.03.240,jersey_experiment_5_v3,2023.2.2,Win32,85.47008547,,,,,,,,,,,,,,,,546.7571,548.0508,548.0509,549.8392,return,0.5707,,89.453125,,,,,,FBP-OG-71.png,0.43,1.2,34,0.5,0,36,36,33,1,,,,,,,,,,,,,,,,,,,,,,,,,,,,,,,,,,,,,,,,
,,,,,V3_019,17,Female,2024-10-17_15h46.03.240,jersey_experiment_5_v3,2023.2.2,Win32,85.47008547,,,,,,,,,,,,,,,,549.8396,551.3921,551.3923,555.8275,return,0.6281,,70.57291667,,,,,,FBP-YG-18.png,0.4,1.2,8,0.75,0,37,37,7,1,,,,,,,,,,,,,,,,,,,,,,,,,,,,,,,,,,,,,,,,
,,,,,V3_019,17,Female,2024-10-17_15h46.03.240,jersey_experiment_5_v3,2023.2.2,Win32,85.47008547,,,,,,,,,,,,,,,,555.828,557.3806,557.3807,559.3455,return,0.4845,,76.04166667,,,,,,FBP-YG-17.png,0.45,1.2,5,0.75,0,38,38,4,1,,,,,,,,,,,,,,,,,,,,,,,,,,,,,,,,,,,,,,,,
,,,,,V3_019,17,Female,2024-10-17_15h46.03.240,jersey_experiment_5_v3,2023.2.2,Win32,85.47008547,,,,,,,,,,,,,,,,559.3459,560.8984,560.8985,562.6632,return,0.4809,,86.19791667,,,,,,FBP-PT-81.png,0.45,1.2,25,0.75,0,39,39,24,1,,,,,,,,,,,,,,,,,,,,,,,,,,,,,,,,,,,,,,,,
,,,,,V3_019,17,Female,2024-10-17_15h46.03.240,jersey_experiment_5_v3,2023.2.2,Win32,85.47008547,,,,,,,,,,,,,,,,562.6633,564.2162,564.2163,566.9106,return,0.5359,,86.06770833,,,,,,FBP-YG-18.png,0.43,1.2,9,0.75,0,40,40,8,1,,,,,,,,,,,,,,,,,,,,,,,,,,,,,,,,,,,,,,,,
,,,,,V3_019,17,Female,2024-10-17_15h46.03.240,jersey_experiment_5_v3,2023.2.2,Win32,85.47008547,,,,,,,,,,,,,,,,566.9109,568.2047,568.2047,571.2519,return,0.9659,,33.07291667,,,,,,FBP-OG-81.png,0.37,1.2,37,0.5,0,41,41,36,1,,,,,,,,,,,,,,,,,,,,,,,,,,,,,,,,,,,,,,,,
,,,,,V3_019,17,Female,2024-10-17_15h46.03.240,jersey_experiment_5_v3,2023.2.2,Win32,85.47008547,,,,,,,,,,,,,,,,571.2522,572.8048,572.8048,574.7696,return,0.5797,,29.94791667,,,,,,FBP-RB-71.png,0.35,1.2,46,0.75,0,42,42,45,1,,,,,,,,,,,,,,,,,,,,,,,,,,,,,,,,,,,,,,,,
,,,,,V3_019,17,Female,2024-10-17_15h46.03.240,jersey_experiment_5_v3,2023.2.2,Win32,85.47008547,,,,,,,,,,,,,,,,574.77,576.3225,576.3225,584.3228,return,3.7395,,91.015625,,,,,,FBP-RB-71.png,0.45,1.2,50,0.75,0,43,43,49,1,,,,,,,,,,,,,,,,,,,,,,,,,,,,,,,,,,,,,,,,
,,,,,V3_019,17,Female,2024-10-17_15h46.03.240,jersey_experiment_5_v3,2023.2.2,Win32,85.47008547,,,,,,,,,,,,,,,,584.3231,585.8759,585.876,595.8527,return,0.8905,,50.13020833,,,,,,FBP-PT-81.png,0.4,1.2,23,0.75,0,44,44,22,1,,,,,,,,,,,,,,,,,,,,,,,,,,,,,,,,,,,,,,,,
,,,,,V3_019,17,Female,2024-10-17_15h46.03.240,jersey_experiment_5_v3,2023.2.2,Win32,85.47008547,,,,,,,,,,,,,,,,595.853,597.4058,597.4058,601.5352,return,0.4996,,71.74479167,,,,,,FBP-YG-19.png,0.4,1.2,13,0.75,0,45,45,12,1,,,,,,,,,,,,,,,,,,,,,,,,,,,,,,,,,,,,,,,,
,,,,,V3_019,17,Female,2024-10-17_15h46.03.240,jersey_experiment_5_v3,2023.2.2,Win32,85.47008547,,,,,,,,,,,,,,,,601.5356,603.0883,603.0883,605.0413,return,0.5217,,27.86458333,,,,,,FBP-RB-81.png,0.35,1.2,51,0.75,0,46,46,50,1,,,,,,,,,,,,,,,,,,,,,,,,,,,,,,,,,,,,,,,,
,,,,,V3_019,17,Female,2024-10-17_15h46.03.240,jersey_experiment_5_v3,2023.2.2,Win32,85.47008547,,,,,,,,,,,,,,,,605.0416,606.5946,606.5946,608.5239,return,0.4901,,94.01041667,,,,,,FBP-PT-91.png,0.45,1.2,30,0.75,0,47,47,29,1,,,,,,,,,,,,,,,,,,,,,,,,,,,,,,,,,,,,,,,,
,,,,,V3_019,17,Female,2024-10-17_15h46.03.240,jersey_experiment_5_v3,2023.2.2,Win32,85.47008547,,,,,,,,,,,,,,,,608.5243,610.0768,610.0768,615.9595,return,3.9606,,36.58854167,,,,,,FBP-RB-91.png,0.37,1.2,57,0.75,0,48,48,56,1,,,,,,,,,,,,,,,,,,,,,,,,,,,,,,,,,,,,,,,,
,,,,,V3_019,17,Female,2024-10-17_15h46.03.240,jersey_experiment_5_v3,2023.2.2,Win32,85.47008547,,,,,,,,,,,,,,,,615.9598,617.5125,617.5125,620.2771,return,0.5434,,84.63541667,,,,,,FBP-PT-71.png,0.43,1.2,19,0.75,0,49,49,18,1,,,,,,,,,,,,,,,,,,,,,,,,,,,,,,,,,,,,,,,,
,,,,,V3_019,17,Female,2024-10-17_15h46.03.240,jersey_experiment_5_v3,2023.2.2,Win32,85.47008547,,,,,,,,,,,,,,,,620.2774,621.83,621.8301,630.9834,return,0.8844,,75,,,,,,FBP-RB-91.png,0.4,1.2,58,0.75,0,50,50,57,1,,,,,,,,,,,,,,,,,,,,,,,,,,,,,,,,,,,,,,,,
,,,,,V3_019,17,Female,2024-10-17_15h46.03.240,jersey_experiment_5_v3,2023.2.2,Win32,85.47008547,,,,,,,,,,,,,,,,630.9837,632.2776,632.2776,635.3484,return,0.636,,91.27604167,,,,,,FBP-OG-91.png,0.45,1.2,45,0.5,0,51,51,44,1,,,,,,,,,,,,,,,,,,,,,,,,,,,,,,,,,,,,,,,,
,,,,,V3_019,17,Female,2024-10-17_15h46.03.240,jersey_experiment_5_v3,2023.2.2,Win32,85.47008547,,,,,,,,,,,,,,,,635.3488,636.9015,636.9015,640.1602,return,0.5682,,76.30208333,,,,,,FBP-PT-91.png,0.43,1.2,29,0.75,0,52,52,28,1,,,,,,,,,,,,,,,,,,,,,,,,,,,,,,,,,,,,,,,,
,,,,,V3_019,17,Female,2024-10-17_15h46.03.240,jersey_experiment_5_v3,2023.2.2,Win32,85.47008547,,,,,,,,,,,,,,,,640.1606,641.4544,641.4544,643.4074,return,0.723,,82.94270833,,,,,,FBP-OG-91.png,0.43,1.2,44,0.5,0,53,53,43,1,,,,,,,,,,,,,,,,,,,,,,,,,,,,,,,,,,,,,,,,
,,,,,V3_019,17,Female,2024-10-17_15h46.03.240,jersey_experiment_5_v3,2023.2.2,Win32,85.47008547,,,,,,,,,,,,,,,,643.4078,644.7016,644.7016,647.3603,return,0.5672,,45.05208333,,,,,,FBP-OG-91.png,0.37,1.2,42,0.5,0,54,54,41,1,,,,,,,,,,,,,,,,,,,,,,,,,,,,,,,,,,,,,,,,
,,,,,V3_019,17,Female,2024-10-17_15h46.03.240,jersey_experiment_5_v3,2023.2.2,Win32,85.47008547,,,,,,,,,,,,,,,,647.3606,648.9019,648.9019,650.8782,return,0.5349,,38.93229167,,,,,,FBP-YG-19.png,0.35,1.2,11,0.75,0,55,55,10,1,,,,,,,,,,,,,,,,,,,,,,,,,,,,,,,,,,,,,,,,
,,,,,V3_019,17,Female,2024-10-17_15h46.03.240,jersey_experiment_5_v3,2023.2.2,Win32,85.47008547,,,,,,,,,,,,,,,,650.8786,652.1724,652.1724,654.549,return,0.5753,,60.9375,,,,,,FBP-OG-71.png,0.37,1.2,32,0.5,0,56,56,31,1,,,,,,,,,,,,,,,,,,,,,,,,,,,,,,,,,,,,,,,,
,,,,,V3_019,17,Female,2024-10-17_15h46.03.240,jersey_experiment_5_v3,2023.2.2,Win32,85.47008547,,,,,,,,,,,,,,,,654.5495,656.1019,656.1019,658.8668,return,0.6516,,34.24479167,,,,,,FBP-PT-91.png,0.35,1.2,26,0.75,0,57,57,25,1,,,,,,,,,,,,,,,,,,,,,,,,,,,,,,,,,,,,,,,,
,,,,,V3_019,17,Female,2024-10-17_15h46.03.240,jersey_experiment_5_v3,2023.2.2,Win32,85.47008547,,,,,,,,,,,,,,,,658.8671,660.4198,660.4198,662.9493,return,0.5416,,83.07291667,,,,,,FBP-RB-91.png,0.43,1.2,59,0.75,0,58,58,58,1,,,,,,,,,,,,,,,,,,,,,,,,,,,,,,,,,,,,,,,,
,,,,,V3_019,17,Female,2024-10-17_15h46.03.240,jersey_experiment_5_v3,2023.2.2,Win32,85.47008547,,,,,,,,,,,,,,,,662.9497,664.5023,664.5024,665.973,return,0.4944,,86.71875,,,,,,FBP-RB-81.png,0.43,1.2,54,0.75,0,59,59,53,1,,,,,,,,,,,,,,,,,,,,,,,,,,,,,,,,,,,,,,,,
,,,,,V3_019,17,Female,2024-10-17_15h46.03.240,jersey_experiment_5_v3,2023.2.2,Win32,85.47008547,,,,,,,,,,,,,,,,,,,,,,,,,,,,,,,,,,,,,,,665.9733,785.9658,,,,,,,,,,,,,,,,,,,,,,,,,,,,,,,,,,,,,,
,,,,,V3_019,17,Female,2024-10-17_15h46.03.240,jersey_experiment_5_v3,2023.2.2,Win32,85.47008547,,,,,,,,,,,,,,,,,,,,,,,,,,,,,,,,,,,,,,,,,785.966,791.9542,return,5.9751,,,,,,,,,,,,,,,,,,,,,,,,,,,,,,,,,,
,,,,,V3_019,17,Female,2024-10-17_15h46.03.240,jersey_experiment_5_v3,2023.2.2,Win32,85.47008547,,,,,,,,,,,,,,,,791.9566,793.2481,793.2482,802.4132,return,0.5723,,57.8125,,,,,,FBP-YG-91.png,0.4,1.2,13,0.5,,,,,,,,,,,,,0,0,0,12,1,,,,,,,,,,,,,,,,,,,,,,,,,,,,
,,,,,V3_019,17,Female,2024-10-17_15h46.03.240,jersey_experiment_5_v3,2023.2.2,Win32,85.47008547,,,,,,,,,,,,,,,,802.4136,803.9662,803.9663,807.7311,return,0.5512,,61.58854167,,,,,,FBP-OG-18.png,0.4,1.2,38,0.75,,,,,,,,,,,,,0,1,1,37,1,,,,,,,,,,,,,,,,,,,,,,,,,,,,
,,,,,V3_019,17,Female,2024-10-17_15h46.03.240,jersey_experiment_5_v3,2023.2.2,Win32,85.47008547,,,,,,,,,,,,,,,,807.7314,809.0252,809.0252,811.2608,return,0.5598,,71.61458333,,,,,,FBP-PT-19.png,0.4,1.2,28,0.5,,,,,,,,,,,,,0,2,2,27,1,,,,,,,,,,,,,,,,,,,,,,,,,,,,
,,,,,V3_019,17,Female,2024-10-17_15h46.03.240,jersey_experiment_5_v3,2023.2.2,Win32,85.47008547,,,,,,,,,,,,,,,,811.2611,812.5548,812.5548,815.7431,return,1.5707,,87.76041667,,,,,,FBP-PT-18.png,0.45,1.2,25,0.5,,,,,,,,,,,,,0,3,3,24,1,,,,,,,,,,,,,,,,,,,,,,,,,,,,
,,,,,V3_019,17,Female,2024-10-17_15h46.03.240,jersey_experiment_5_v3,2023.2.2,Win32,85.47008547,,,,,,,,,,,,,,,,815.7435,817.0373,817.0374,819.6492,return,0.802,,87.36979167,,,,,,FBP-PT-18.png,0.43,1.2,24,0.5,,,,,,,,,,,,,0,4,4,23,1,,,,,,,,,,,,,,,,,,,,,,,,,,,,
,,,,,V3_019,17,Female,2024-10-17_15h46.03.240,jersey_experiment_5_v3,2023.2.2,Win32,85.47008547,,,,,,,,,,,,,,,,819.6495,821.2024,821.2024,823.1553,return,0.7904,,93.09895833,,,,,,FBP-OG-17.png,0.45,1.2,35,0.75,,,,,,,,,,,,,0,5,5,34,1,,,,,,,,,,,,,,,,,,,,,,,,,,,,
,,,,,V3_019,17,Female,2024-10-17_15h46.03.240,jersey_experiment_5_v3,2023.2.2,Win32,85.47008547,,,,,,,,,,,,,,,,823.1557,824.4494,824.4494,826.9319,return,0.6706,,7.421875,,,,,,FBP-PT-17.png,0.35,1.2,16,0.5,,,,,,,,,,,,,0,6,6,15,1,,,,,,,,,,,,,,,,,,,,,,,,,,,,
,,,,,V3_019,17,Female,2024-10-17_15h46.03.240,jersey_experiment_5_v3,2023.2.2,Win32,85.47008547,,,,,,,,,,,,,,,,826.9325,828.2261,828.2261,831.3085,return,0.9598,,75.65104167,,,,,,FBP-RB-18.png,0.43,1.2,54,0.5,,,,,,,,,,,,,0,7,7,53,1,,,,,,,,,,,,,,,,,,,,,,,,,,,,
,,,,,V3_019,17,Female,2024-10-17_15h46.03.240,jersey_experiment_5_v3,2023.2.2,Win32,85.47008547,,,,,,,,,,,,,,,,831.3089,832.8616,832.8617,838.5794,return,3.6833,,71.61458333,,,,,,FBP-OG-18.png,0.43,1.2,39,0.75,,,,,,,,,,,,,0,8,8,38,1,,,,,,,,,,,,,,,,,,,,,,,,,,,,
,,,,,V3_019,17,Female,2024-10-17_15h46.03.240,jersey_experiment_5_v3,2023.2.2,Win32,85.47008547,,,,,,,,,,,,,,,,838.5798,840.1323,840.1323,842.9912,return,0.7709,,8.984375,,,,,,FBP-OG-18.png,0.35,1.2,36,0.75,,,,,,,,,,,,,0,9,9,35,1,,,,,,,,,,,,,,,,,,,,,,,,,,,,
,,,,,V3_019,17,Female,2024-10-17_15h46.03.240,jersey_experiment_5_v3,2023.2.2,Win32,85.47008547,,,,,,,,,,,,,,,,842.9915,844.2853,844.2853,847.9209,return,0.6732,,95.83333333,,,,,,FBP-YG-81.png,0.45,1.2,10,0.5,,,,,,,,,,,,,0,10,10,9,1,,,,,,,,,,,,,,,,,,,,,,,,,,,,
,,,,,V3_019,17,Female,2024-10-17_15h46.03.240,jersey_experiment_5_v3,2023.2.2,Win32,85.47008547,,,,,,,,,,,,,,,,847.9211,849.215,849.215,851.7091,return,0.8187,,95.83333333,,,,,,FBP-RB-17.png,0.45,1.2,50,0.5,,,,,,,,,,,,,0,11,11,49,1,,,,,,,,,,,,,,,,,,,,,,,,,,,,
,,,,,V3_019,17,Female,2024-10-17_15h46.03.240,jersey_experiment_5_v3,2023.2.2,Win32,85.47008547,,,,,,,,,,,,,,,,851.7094,853.2623,853.2623,855.474,return,0.5783,,40.75520833,,,,,,FBP-OG-19.png,0.4,1.2,43,0.75,,,,,,,,,,,,,0,12,12,42,1,,,,,,,,,,,,,,,,,,,,,,,,,,,,
,,,,,V3_019,17,Female,2024-10-17_15h46.03.240,jersey_experiment_5_v3,2023.2.2,Win32,85.47008547,,,,,,,,,,,,,,,,855.4742,856.7683,856.7684,868.8981,return,0.533,,36.71875,,,,,,FBP-PT-17.png,0.4,1.2,18,0.5,,,,,,,,,,,,,0,13,13,17,1,,,,,,,,,,,,,,,,,,,,,,,,,,,,
,,,,,V3_019,17,Female,2024-10-17_15h46.03.240,jersey_experiment_5_v3,2023.2.2,Win32,85.47008547,,,,,,,,,,,,,,,,868.8984,870.1925,870.1926,873.004,return,0.5972,,79.55729167,,,,,,FBP-PT-19.png,0.45,1.2,30,0.5,,,,,,,,,,,,,0,14,14,29,1,,,,,,,,,,,,,,,,,,,,,,,,,,,,
,,,,,V3_019,17,Female,2024-10-17_15h46.03.240,jersey_experiment_5_v3,2023.2.2,Win32,85.47008547,,,,,,,,,,,,,,,,873.0042,874.5571,874.5571,877.1572,return,0.6009,,21.35416667,,,,,,FBP-OG-17.png,0.37,1.2,32,0.75,,,,,,,,,,,,,0,15,15,31,1,,,,,,,,,,,,,,,,,,,,,,,,,,,,
,,,,,V3_019,17,Female,2024-10-17_15h46.03.240,jersey_experiment_5_v3,2023.2.2,Win32,85.47008547,,,,,,,,,,,,,,,,877.1575,878.4514,878.4515,882.4868,return,0.5521,,25.26041667,,,,,,FBP-YG-81.png,0.37,1.2,7,0.5,,,,,,,,,,,,,0,16,16,6,1,,,,,,,,,,,,,,,,,,,,,,,,,,,,
,,,,,V3_019,17,Female,2024-10-17_15h46.03.240,jersey_experiment_5_v3,2023.2.2,Win32,85.47008547,,,,,,,,,,,,,,,,882.4872,884.04,884.04,886.4869,return,0.5178,,24.47916667,,,,,,FBP-OG-18.png,0.37,1.2,37,0.75,,,,,,,,,,,,,0,17,17,36,1,,,,,,,,,,,,,,,,,,,,,,,,,,,,
,,,,,V3_019,17,Female,2024-10-17_15h46.03.240,jersey_experiment_5_v3,2023.2.2,Win32,85.47008547,,,,,,,,,,,,,,,,886.4873,887.7811,887.7812,889.3106,return,0.5237,,17.96875,,,,,,FBP-RB-17.png,0.35,1.2,46,0.5,,,,,,,,,,,,,0,18,18,45,1,,,,,,,,,,,,,,,,,,,,,,,,,,,,
,,,,,V3_019,17,Female,2024-10-17_15h46.03.240,jersey_experiment_5_v3,2023.2.2,Win32,85.47008547,,,,,,,,,,,,,,,,889.3109,890.6047,890.6048,894.4166,return,0.5457,,75.390625,,,,,,FBP-RB-19.png,0.45,1.2,60,0.5,,,,,,,,,,,,,0,19,19,59,1,,,,,,,,,,,,,,,,,,,,,,,,,,,,
,,,,,V3_019,17,Female,2024-10-17_15h46.03.240,jersey_experiment_5_v3,2023.2.2,Win32,85.47008547,,,,,,,,,,,,,,,,894.4169,895.7108,895.7108,897.6638,return,0.5221,,81.11979167,,,,,,FBP-YG-71.png,0.43,1.2,4,0.5,,,,,,,,,,,,,0,20,20,3,1,,,,,,,,,,,,,,,,,,,,,,,,,,,,
,,,,,V3_019,17,Female,2024-10-17_15h46.03.240,jersey_experiment_5_v3,2023.2.2,Win32,85.47008547,,,,,,,,,,,,,,,,897.6642,898.9581,898.9582,906.876,return,0.572,,31.25,,,,,,FBP-YG-91.png,0.35,1.2,11,0.5,,,,,,,,,,,,,0,21,21,10,1,,,,,,,,,,,,,,,,,,,,,,,,,,,,
,,,,,V3_019,17,Female,2024-10-17_15h46.03.240,jersey_experiment_5_v3,2023.2.2,Win32,85.47008547,,,,,,,,,,,,,,,,906.8763,908.1701,908.1702,910.4055,return,0.8505,,22.00520833,,,,,,FBP-RB-18.png,0.35,1.2,51,0.5,,,,,,,,,,,,,0,22,22,50,1,,,,,,,,,,,,,,,,,,,,,,,,,,,,
,,,,,V3_019,17,Female,2024-10-17_15h46.03.240,jersey_experiment_5_v3,2023.2.2,Win32,85.47008547,,,,,,,,,,,,,,,,910.4058,911.6997,911.6998,913.8527,return,0.5495,,17.83854167,,,,,,FBP-YG-81.png,0.35,1.2,6,0.5,,,,,,,,,,,,,0,23,23,5,1,,,,,,,,,,,,,,,,,,,,,,,,,,,,
,,,,,V3_019,17,Female,2024-10-17_15h46.03.240,jersey_experiment_5_v3,2023.2.2,Win32,85.47008547,,,,,,,,,,,,,,,,913.8531,915.406,915.406,917.7469,return,0.5784,,75.65104167,,,,,,FBP-OG-17.png,0.43,1.2,34,0.75,,,,,,,,,,,,,0,24,24,33,1,,,,,,,,,,,,,,,,,,,,,,,,,,,,
,,,,,V3_019,17,Female,2024-10-17_15h46.03.240,jersey_experiment_5_v3,2023.2.2,Win32,85.47008547,,,,,,,,,,,,,,,,917.7473,919.2999,919.3,921.1353,return,0.6058,,81.640625,,,,,,FBP-OG-19.png,0.45,1.2,45,0.75,,,,,,,,,,,,,0,25,25,44,1,,,,,,,,,,,,,,,,,,,,,,,,,,,,
,,,,,V3_019,17,Female,2024-10-17_15h46.03.240,jersey_experiment_5_v3,2023.2.2,Win32,85.47008547,,,,,,,,,,,,,,,,921.1356,922.4295,922.4295,925.0532,return,0.5725,,79.03645833,,,,,,FBP-RB-19.png,0.4,1.2,58,0.5,,,,,,,,,,,,,0,26,26,57,1,,,,,,,,,,,,,,,,,,,,,,,,,,,,
,,,,,V3_019,17,Female,2024-10-17_15h46.03.240,jersey_experiment_5_v3,2023.2.2,Win32,85.47008547,,,,,,,,,,,,,,,,925.0534,926.3473,926.3473,928.2414,return,0.6739,,88.54166667,,,,,,FBP-YG-91.png,0.45,1.2,15,0.5,,,,,,,,,,,,,0,27,27,14,1,,,,,,,,,,,,,,,,,,,,,,,,,,,,
,,,,,V3_019,17,Female,2024-10-17_15h46.03.240,jersey_experiment_5_v3,2023.2.2,Win32,85.47008547,,,,,,,,,,,,,,,,928.2418,929.5356,929.5356,931.7946,return,0.5337,,87.23958333,,,,,,FBP-PT-19.png,0.43,1.2,29,0.5,,,,,,,,,,,,,0,28,28,28,1,,,,,,,,,,,,,,,,,,,,,,,,,,,,
,,,,,V3_019,17,Female,2024-10-17_15h46.03.240,jersey_experiment_5_v3,2023.2.2,Win32,85.47008547,,,,,,,,,,,,,,,,931.7951,933.0885,933.0885,936.2417,return,1.0134,,65.75520833,,,,,,FBP-RB-17.png,0.4,1.2,48,0.5,,,,,,,,,,,,,0,29,29,47,1,,,,,,,,,,,,,,,,,,,,,,,,,,,,
,,,,,V3_019,17,Female,2024-10-17_15h46.03.240,jersey_experiment_5_v3,2023.2.2,Win32,85.47008547,,,,,,,,,,,,,,,,936.2422,937.5359,937.5359,940.1596,return,0.5232,,30.20833333,,,,,,FBP-YG-71.png,0.35,1.2,1,0.5,,,,,,,,,,,,,0,30,30,0,1,,,,,,,,,,,,,,,,,,,,,,,,,,,,
,,,,,V3_019,17,Female,2024-10-17_15h46.03.240,jersey_experiment_5_v3,2023.2.2,Win32,85.47008547,,,,,,,,,,,,,,,,940.16,941.454,941.4541,944.2421,return,1.0263,,29.03645833,,,,,,FBP-PT-18.png,0.35,1.2,21,0.5,,,,,,,,,,,,,0,31,31,20,1,,,,,,,,,,,,,,,,,,,,,,,,,,,,
,,,,,V3_019,17,Female,2024-10-17_15h46.03.240,jersey_experiment_5_v3,2023.2.2,Win32,85.47008547,,,,,,,,,,,,,,,,944.2425,945.5361,945.5362,948.348,return,0.5031,,84.765625,,,,,,FBP-RB-17.png,0.43,1.2,49,0.5,,,,,,,,,,,,,0,32,32,48,1,,,,,,,,,,,,,,,,,,,,,,,,,,,,
,,,,,V3_019,17,Female,2024-10-17_15h46.03.240,jersey_experiment_5_v3,2023.2.2,Win32,85.47008547,,,,,,,,,,,,,,,,948.3485,949.6423,949.6424,951.6775,return,0.5368,,31.11979167,,,,,,FBP-RB-19.png,0.35,1.2,56,0.5,,,,,,,,,,,,,0,33,33,55,1,,,,,,,,,,,,,,,,,,,,,,,,,,,,
,,,,,V3_019,17,Female,2024-10-17_15h46.03.240,jersey_experiment_5_v3,2023.2.2,Win32,85.47008547,,,,,,,,,,,,,,,,951.6777,952.9718,952.9718,955.2071,return,0.5174,,54.6875,,,,,,FBP-RB-18.png,0.37,1.2,52,0.5,,,,,,,,,,,,,0,34,34,51,1,,,,,,,,,,,,,,,,,,,,,,,,,,,,
,,,,,V3_019,17,Female,2024-10-17_15h46.03.240,jersey_experiment_5_v3,2023.2.2,Win32,85.47008547,,,,,,,,,,,,,,,,955.2073,956.7602,956.7602,959.0308,return,0.5415,,72.78645833,,,,,,FBP-OG-19.png,0.43,1.2,44,0.75,,,,,,,,,,,,,0,35,35,43,1,,,,,,,,,,,,,,,,,,,,,,,,,,,,
,,,,,V3_019,17,Female,2024-10-17_15h46.03.240,jersey_experiment_5_v3,2023.2.2,Win32,85.47008547,,,,,,,,,,,,,,,,959.0311,960.3249,960.325,963.1369,return,0.6355,,72.91666667,,,,,,FBP-RB-19.png,0.43,1.2,59,0.5,,,,,,,,,,,,,0,36,36,58,1,,,,,,,,,,,,,,,,,,,,,,,,,,,,
,,,,,V3_019,17,Female,2024-10-17_15h46.03.240,jersey_experiment_5_v3,2023.2.2,Win32,85.47008547,,,,,,,,,,,,,,,,963.1371,964.4312,964.4313,968.9959,return,0.7053,,72.65625,,,,,,FBP-PT-18.png,0.4,1.2,23,0.5,,,,,,,,,,,,,0,37,37,22,1,,,,,,,,,,,,,,,,,,,,,,,,,,,,
,,,,,V3_019,17,Female,2024-10-17_15h46.03.240,jersey_experiment_5_v3,2023.2.2,Win32,85.47008547,,,,,,,,,,,,,,,,968.9961,970.2901,970.2902,972.9253,return,0.819,,35.546875,,,,,,FBP-PT-19.png,0.37,1.2,27,0.5,,,,,,,,,,,,,0,38,38,26,1,,,,,,,,,,,,,,,,,,,,,,,,,,,,
,,,,,V3_019,17,Female,2024-10-17_15h46.03.240,jersey_experiment_5_v3,2023.2.2,Win32,85.47008547,,,,,,,,,,,,,,,,972.9255,974.2196,974.2196,977.4432,return,0.7082,,76.04166667,,,,,,FBP-YG-71.png,0.4,1.2,3,0.5,,,,,,,,,,,,,0,39,39,2,1,,,,,,,,,,,,,,,,,,,,,,,,,,,,
,,,,,V3_019,17,Female,2024-10-17_15h46.03.240,jersey_experiment_5_v3,2023.2.2,Win32,85.47008547,,,,,,,,,,,,,,,,977.4435,978.7374,978.7375,980.5728,return,0.5471,,83.59375,,,,,,FBP-YG-71.png,0.45,1.2,5,0.5,,,,,,,,,,,,,0,40,40,4,1,,,,,,,,,,,,,,,,,,,,,,,,,,,,
,,,,,V3_019,17,Female,2024-10-17_15h46.03.240,jersey_experiment_5_v3,2023.2.2,Win32,85.47008547,,,,,,,,,,,,,,,,980.5729,982.1259,982.1259,985.2434,return,0.6445,,27.08333333,,,,,,FBP-OG-17.png,0.35,1.2,31,0.75,,,,,,,,,,,,,0,41,41,30,1,,,,,,,,,,,,,,,,,,,,,,,,,,,,
,,,,,V3_019,17,Female,2024-10-17_15h46.03.240,jersey_experiment_5_v3,2023.2.2,Win32,85.47008547,,,,,,,,,,,,,,,,985.2436,986.7966,986.7966,990.0673,return,0.5661,,87.5,,,,,,FBP-OG-18.png,0.45,1.2,40,0.75,,,,,,,,,,,,,0,42,42,39,1,,,,,,,,,,,,,,,,,,,,,,,,,,,,
,,,,,V3_019,17,Female,2024-10-17_15h46.03.240,jersey_experiment_5_v3,2023.2.2,Win32,85.47008547,,,,,,,,,,,,,,,,990.0675,991.6202,991.6203,994.0322,return,0.4241,,52.08333333,,,,,,FBP-OG-19.png,0.37,1.2,42,0.75,,,,,,,,,,,,,0,43,43,41,1,,,,,,,,,,,,,,,,,,,,,,,,,,,,
,,,,,V3_019,17,Female,2024-10-17_15h46.03.240,jersey_experiment_5_v3,2023.2.2,Win32,85.47008547,,,,,,,,,,,,,,,,994.0324,995.3263,995.3263,997.7733,return,0.5131,,88.15104167,,,,,,FBP-RB-18.png,0.45,1.2,55,0.5,,,,,,,,,,,,,0,44,44,54,1,,,,,,,,,,,,,,,,,,,,,,,,,,,,
,,,,,V3_019,17,Female,2024-10-17_15h46.03.240,jersey_experiment_5_v3,2023.2.2,Win32,85.47008547,,,,,,,,,,,,,,,,997.7735,999.0679,999.0679,1005.2208,return,0.7146,,73.828125,,,,,,FBP-YG-81.png,0.4,1.2,8,0.5,,,,,,,,,,,,,0,45,45,7,1,,,,,,,,,,,,,,,,,,,,,,,,,,,,
,,,,,V3_019,17,Female,2024-10-17_15h46.03.240,jersey_experiment_5_v3,2023.2.2,Win32,85.47008547,,,,,,,,,,,,,,,,1005.2213,1006.5149,1006.5149,1008.8679,return,0.5491,,62.63020833,,,,,,FBP-RB-18.png,0.4,1.2,53,0.5,,,,,,,,,,,,,0,46,46,52,1,,,,,,,,,,,,,,,,,,,,,,,,,,,,
,,,,,V3_019,17,Female,2024-10-17_15h46.03.240,jersey_experiment_5_v3,2023.2.2,Win32,85.47008547,,,,,,,,,,,,,,,,1008.8682,1010.4209,1010.4209,1015.2446,return,0.6669,,54.55729167,,,,,,FBP-OG-17.png,0.4,1.2,33,0.75,,,,,,,,,,,,,0,47,47,32,1,,,,,,,,,,,,,,,,,,,,,,,,,,,,
,,,,,V3_019,17,Female,2024-10-17_15h46.03.240,jersey_experiment_5_v3,2023.2.2,Win32,85.47008547,,,,,,,,,,,,,,,,1015.2448,1016.5387,1016.5388,1019.8212,return,0.5133,,39.84375,,,,,,FBP-PT-18.png,0.37,1.2,22,0.5,,,,,,,,,,,,,0,48,48,21,1,,,,,,,,,,,,,,,,,,,,,,,,,,,,
,,,,,V3_019,17,Female,2024-10-17_15h46.03.240,jersey_experiment_5_v3,2023.2.2,Win32,85.47008547,,,,,,,,,,,,,,,,1019.8214,1021.1155,1021.1155,1031.1512,return,1.1196,,70.18229167,,,,,,FBP-YG-81.png,0.43,1.2,9,0.5,,,,,,,,,,,,,0,49,49,8,1,,,,,,,,,,,,,,,,,,,,,,,,,,,,
,,,,,V3_019,17,Female,2024-10-17_15h46.03.240,jersey_experiment_5_v3,2023.2.2,Win32,85.47008547,,,,,,,,,,,,,,,,1031.1513,1032.4453,1032.4453,1036.3395,return,0.5544,,70.44270833,,,,,,FBP-PT-17.png,0.43,1.2,19,0.5,,,,,,,,,,,,,0,50,50,18,1,,,,,,,,,,,,,,,,,,,,,,,,,,,,
,,,,,V3_019,17,Female,2024-10-17_15h46.03.240,jersey_experiment_5_v3,2023.2.2,Win32,85.47008547,,,,,,,,,,,,,,,,1036.3398,1037.6337,1037.6338,1051.8461,return,12.3305,,34.89583333,,,,,,FBP-PT-17.png,0.37,1.2,17,0.5,,,,,,,,,,,,,0,51,51,16,1,,,,,,,,,,,,,,,,,,,,,,,,,,,,
,,,,,V3_019,17,Female,2024-10-17_15h46.03.240,jersey_experiment_5_v3,2023.2.2,Win32,85.47008547,,,,,,,,,,,,,,,,1051.8465,1053.1402,1053.1402,1056.2227,return,1.2029,,66.92708333,,,,,,FBP-YG-71.png,0.37,1.2,2,0.5,,,,,,,,,,,,,0,52,52,1,1,,,,,,,,,,,,,,,,,,,,,,,,,,,,
,,,,,V3_019,17,Female,2024-10-17_15h46.03.240,jersey_experiment_5_v3,2023.2.2,Win32,85.47008547,,,,,,,,,,,,,,,,1056.2229,1057.5167,1057.5167,1060.1287,return,0.6512,,83.85416667,,,,,,FBP-PT-17.png,0.45,1.2,20,0.5,,,,,,,,,,,,,0,53,53,19,1,,,,,,,,,,,,,,,,,,,,,,,,,,,,
,,,,,V3_019,17,Female,2024-10-17_15h46.03.240,jersey_experiment_5_v3,2023.2.2,Win32,85.47008547,,,,,,,,,,,,,,,,1060.129,1061.4229,1061.4229,1063.564,return,0.5699,,81.90104167,,,,,,FBP-YG-91.png,0.43,1.2,14,0.5,,,,,,,,,,,,,0,54,54,13,1,,,,,,,,,,,,,,,,,,,,,,,,,,,,
,,,,,V3_019,17,Female,2024-10-17_15h46.03.240,jersey_experiment_5_v3,2023.2.2,Win32,85.47008547,,,,,,,,,,,,,,,,1063.5643,1064.8583,1064.8583,1067.5996,return,0.5461,,11.58854167,,,,,,FBP-PT-19.png,0.35,1.2,26,0.5,,,,,,,,,,,,,0,55,55,25,1,,,,,,,,,,,,,,,,,,,,,,,,,,,,
,,,,,V3_019,17,Female,2024-10-17_15h46.03.240,jersey_experiment_5_v3,2023.2.2,Win32,85.47008547,,,,,,,,,,,,,,,,1067.5998,1068.8936,1068.8936,1071.4114,return,0.4482,,42.96875,,,,,,FBP-RB-17.png,0.37,1.2,47,0.5,,,,,,,,,,,,,0,56,56,46,1,,,,,,,,,,,,,,,,,,,,,,,,,,,,
,,,,,V3_019,17,Female,2024-10-17_15h46.03.240,jersey_experiment_5_v3,2023.2.2,Win32,85.47008547,,,,,,,,,,,,,,,,1071.4117,1072.9644,1072.9644,1076.7646,return,2.3731,,21.61458333,,,,,,FBP-OG-19.png,0.35,1.2,41,0.75,,,,,,,,,,,,,0,57,57,40,1,,,,,,,,,,,,,,,,,,,,,,,,,,,,
,,,,,V3_019,17,Female,2024-10-17_15h46.03.240,jersey_experiment_5_v3,2023.2.2,Win32,85.47008547,,,,,,,,,,,,,,,,1076.7648,1078.0587,1078.0587,1080.4117,return,0.6326,,37.890625,,,,,,FBP-YG-91.png,0.37,1.2,12,0.5,,,,,,,,,,,,,0,58,58,11,1,,,,,,,,,,,,,,,,,,,,,,,,,,,,
,,,,,V3_019,17,Female,2024-10-17_15h46.03.240,jersey_experiment_5_v3,2023.2.2,Win32,85.47008547,,,,,,,,,,,,,,,,1080.412,1081.7059,1081.7059,1084.0118,return,0.5216,,63.41145833,,,,,,FBP-RB-19.png,0.37,1.2,57,0.5,,,,,,,,,,,,,0,59,59,56,1,,,,,,,,,,,,,,,,,,,,,,,,,,,,
,,,,,V3_019,17,Female,2024-10-17_15h46.03.240,jersey_experiment_5_v3,2023.2.2,Win32,85.47008547,,,,,,,,,,,,,,,,1084.0135,1085.565,1085.565,1088.0356,return,1.24,,82.55208333,,,,,,FBP-OG-81.png,0.43,1.2,39,0.75,,,,,,,,,,,,,,,,,,0,0,0,38,1,,,,,,,,,,,,,,,,,,,,,,,
,,,,,V3_019,17,Female,2024-10-17_15h46.03.240,jersey_experiment_5_v3,2023.2.2,Win32,85.47008547,,,,,,,,,,,,,,,,1088.036,1089.5886,1089.5886,1094.9888,return,0.6668,,84.11458333,,,,,,FBP-OG-91.png,0.43,1.2,44,0.75,,,,,,,,,,,,,,,,,,0,1,1,43,1,,,,,,,,,,,,,,,,,,,,,,,
,,,,,V3_019,17,Female,2024-10-17_15h46.03.240,jersey_experiment_5_v3,2023.2.2,Win32,85.47008547,,,,,,,,,,,,,,,,1094.9891,1096.2829,1096.283,1112.4011,return,0.5999,,83.59375,,,,,,FBP-RB-71.png,0.43,1.2,49,0.5,,,,,,,,,,,,,,,,,,0,2,2,48,1,,,,,,,,,,,,,,,,,,,,,,,
,,,,,V3_019,17,Female,2024-10-17_15h46.03.240,jersey_experiment_5_v3,2023.2.2,Win32,85.47008547,,,,,,,,,,,,,,,,1112.4014,1113.6953,1113.6953,1115.9189,return,0.6159,,70.44270833,,,,,,FBP-PT-81.png,0.4,1.2,23,0.5,,,,,,,,,,,,,,,,,,0,3,3,22,1,,,,,,,,,,,,,,,,,,,,,,,
,,,,,V3_019,17,Female,2024-10-17_15h46.03.240,jersey_experiment_5_v3,2023.2.2,Win32,85.47008547,,,,,,,,,,,,,,,,1115.9191,1117.472,1117.472,1120.7543,return,1.9186,,34.765625,,,,,,FBP-OG-81.png,0.35,1.2,36,0.75,,,,,,,,,,,,,,,,,,0,4,4,35,1,,,,,,,,,,,,,,,,,,,,,,,
,,,,,V3_019,17,Female,2024-10-17_15h46.03.240,jersey_experiment_5_v3,2023.2.2,Win32,85.47008547,,,,,,,,,,,,,,,,1120.7545,1122.0486,1122.0487,1124.79,return,0.4706,,82.03125,,,,,,FBP-PT-71.png,0.43,1.2,19,0.5,,,,,,,,,,,,,,,,,,0,5,5,18,1,,,,,,,,,,,,,,,,,,,,,,,
,,,,,V3_019,17,Female,2024-10-17_15h46.03.240,jersey_experiment_5_v3,2023.2.2,Win32,85.47008547,,,,,,,,,,,,,,,,1124.7901,1126.084,1126.084,1146.0613,return,0.6862,,90.234375,,,,,,FBP-RB-81.png,0.45,1.2,55,0.5,,,,,,,,,,,,,,,,,,0,6,6,54,1,,,,,,,,,,,,,,,,,,,,,,,
,,,,,V3_019,17,Female,2024-10-17_15h46.03.240,jersey_experiment_5_v3,2023.2.2,Win32,85.47008547,,,,,,,,,,,,,,,,1146.0615,1147.3555,1147.3556,1149.7438,return,0.8286,,30.59895833,,,,,,FBP-YG-17.png,0.35,1.2,1,0.5,,,,,,,,,,,,,,,,,,0,7,7,0,1,,,,,,,,,,,,,,,,,,,,,,,
,,,,,V3_019,17,Female,2024-10-17_15h46.03.240,jersey_experiment_5_v3,2023.2.2,Win32,85.47008547,,,,,,,,,,,,,,,,1149.744,1151.2967,1151.2967,1154.1556,return,0.6328,,23.69791667,,,,,,FBP-OG-71.png,0.35,1.2,31,0.75,,,,,,,,,,,,,,,,,,0,8,8,30,1,,,,,,,,,,,,,,,,,,,,,,,
,,,,,V3_019,17,Female,2024-10-17_15h46.03.240,jersey_experiment_5_v3,2023.2.2,Win32,85.47008547,,,,,,,,,,,,,,,,1154.1559,1155.4498,1155.4498,1162.5795,return,0.8864,,79.6875,,,,,,FBP-RB-81.png,0.4,1.2,53,0.5,,,,,,,,,,,,,,,,,,0,9,9,52,1,,,,,,,,,,,,,,,,,,,,,,,
,,,,,V3_019,17,Female,2024-10-17_15h46.03.240,jersey_experiment_5_v3,2023.2.2,Win32,85.47008547,,,,,,,,,,,,,,,,1162.5798,1163.8738,1163.8738,1166.7679,return,0.8009,,67.1875,,,,,,FBP-YG-17.png,0.37,1.2,2,0.5,,,,,,,,,,,,,,,,,,0,10,10,1,1,,,,,,,,,,,,,,,,,,,,,,,
,,,,,V3_019,17,Female,2024-10-17_15h46.03.240,jersey_experiment_5_v3,2023.2.2,Win32,85.47008547,,,,,,,,,,,,,,,,1166.7682,1168.0621,1168.0621,1170.0974,return,0.5071,,60.41666667,,,,,,FBP-PT-71.png,0.35,1.2,16,0.5,,,,,,,,,,,,,,,,,,0,11,11,15,1,,,,,,,,,,,,,,,,,,,,,,,
,,,,,V3_019,17,Female,2024-10-17_15h46.03.240,jersey_experiment_5_v3,2023.2.2,Win32,85.47008547,,,,,,,,,,,,,,,,1170.0977,1171.3916,1171.3916,1173.9798,return,1.2655,,70.05208333,,,,,,FBP-YG-19.png,0.37,1.2,12,0.5,,,,,,,,,,,,,,,,,,0,12,12,11,1,,,,,,,,,,,,,,,,,,,,,,,
,,,,,V3_019,17,Female,2024-10-17_15h46.03.240,jersey_experiment_5_v3,2023.2.2,Win32,85.47008547,,,,,,,,,,,,,,,,1173.98,1175.2741,1175.2742,1178.0976,return,0.709,,70.44270833,,,,,,FBP-PT-81.png,0.37,1.2,22,0.5,,,,,,,,,,,,,,,,,,0,13,13,21,1,,,,,,,,,,,,,,,,,,,,,,,
,,,,,V3_019,17,Female,2024-10-17_15h46.03.240,jersey_experiment_5_v3,2023.2.2,Win32,85.47008547,,,,,,,,,,,,,,,,1178.098,1179.6507,1179.6508,1190.51,return,0.5835,,70.44270833,,,,,,FBP-OG-91.png,0.37,1.2,42,0.75,,,,,,,,,,,,,,,,,,0,14,14,41,1,,,,,,,,,,,,,,,,,,,,,,,
,,,,,V3_019,17,Female,2024-10-17_15h46.03.240,jersey_experiment_5_v3,2023.2.2,Win32,85.47008547,,,,,,,,,,,,,,,,1190.5103,1191.8041,1191.8042,1193.6865,return,0.6273,,83.72395833,,,,,,FBP-YG-17.png,0.43,1.2,4,0.5,,,,,,,,,,,,,,,,,,0,15,15,3,1,,,,,,,,,,,,,,,,,,,,,,,
,,,,,V3_019,17,Female,2024-10-17_15h46.03.240,jersey_experiment_5_v3,2023.2.2,Win32,85.47008547,,,,,,,,,,,,,,,,1193.6867,1194.9806,1194.9807,1199.7927,return,1.7922,,88.671875,,,,,,FBP-PT-91.png,0.43,1.2,29,0.5,,,,,,,,,,,,,,,,,,0,16,16,28,1,,,,,,,,,,,,,,,,,,,,,,,
,,,,,V3_019,17,Female,2024-10-17_15h46.03.240,jersey_experiment_5_v3,2023.2.2,Win32,85.47008547,,,,,,,,,,,,,,,,1199.7929,1201.0868,1201.0869,1204.2399,return,1.0167,,88.02083333,,,,,,FBP-YG-19.png,0.45,1.2,15,0.5,,,,,,,,,,,,,,,,,,0,17,17,14,1,,,,,,,,,,,,,,,,,,,,,,,
,,,,,V3_019,17,Female,2024-10-17_15h46.03.240,jersey_experiment_5_v3,2023.2.2,Win32,85.47008547,,,,,,,,,,,,,,,,1204.2401,1205.534,1205.534,1210.4166,return,1.3808,,80.46875,,,,,,FBP-YG-19.png,0.4,1.2,13,0.5,,,,,,,,,,,,,,,,,,0,18,18,12,1,,,,,,,,,,,,,,,,,,,,,,,
,,,,,V3_019,17,Female,2024-10-17_15h46.03.240,jersey_experiment_5_v3,2023.2.2,Win32,85.47008547,,,,,,,,,,,,,,,,1210.4168,1211.9695,1211.9695,1214.7344,return,0.8407,,41.14583333,,,,,,FBP-OG-91.png,0.35,1.2,41,0.75,,,,,,,,,,,,,,,,,,0,19,19,40,1,,,,,,,,,,,,,,,,,,,,,,,
,,,,,V3_019,17,Female,2024-10-17_15h46.03.240,jersey_experiment_5_v3,2023.2.2,Win32,85.47008547,,,,,,,,,,,,,,,,1214.7345,1216.0285,1216.0285,1219.3934,return,1.5167,,92.44791667,,,,,,FBP-RB-91.png,0.45,1.2,60,0.5,,,,,,,,,,,,,,,,,,0,20,20,59,1,,,,,,,,,,,,,,,,,,,,,,,
,,,,,V3_019,17,Female,2024-10-17_15h46.03.240,jersey_experiment_5_v3,2023.2.2,Win32,85.47008547,,,,,,,,,,,,,,,,1219.3935,1220.9465,1220.9465,1223.5347,return,1.0414,,86.97916667,,,,,,FBP-OG-71.png,0.43,1.2,34,0.75,,,,,,,,,,,,,,,,,,0,21,21,33,1,,,,,,,,,,,,,,,,,,,,,,,
,,,,,V3_019,17,Female,2024-10-17_15h46.03.240,jersey_experiment_5_v3,2023.2.2,Win32,85.47008547,,,,,,,,,,,,,,,,1223.5349,1224.829,1224.829,1227.8878,return,0.617,,73.828125,,,,,,FBP-RB-71.png,0.4,1.2,48,0.5,,,,,,,,,,,,,,,,,,0,22,22,47,1,,,,,,,,,,,,,,,,,,,,,,,
,,,,,V3_019,17,Female,2024-10-17_15h46.03.240,jersey_experiment_5_v3,2023.2.2,Win32,85.47008547,,,,,,,,,,,,,,,,1227.888,1229.182,1229.182,1232.9821,return,1.8359,,75.26041667,,,,,,FBP-RB-91.png,0.4,1.2,58,0.5,,,,,,,,,,,,,,,,,,0,23,23,57,1,,,,,,,,,,,,,,,,,,,,,,,
,,,,,V3_019,17,Female,2024-10-17_15h46.03.240,jersey_experiment_5_v3,2023.2.2,Win32,85.47008547,,,,,,,,,,,,,,,,1232.9822,1234.5233,1234.5234,1237.7,return,0.6911,,76.43229167,,,,,,FBP-OG-91.png,0.45,1.2,45,0.75,,,,,,,,,,,,,,,,,,0,24,24,44,1,,,,,,,,,,,,,,,,,,,,,,,
,,,,,V3_019,17,Female,2024-10-17_15h46.03.240,jersey_experiment_5_v3,2023.2.2,Win32,85.47008547,,,,,,,,,,,,,,,,1237.7002,1239.253,1239.253,1242.0648,return,0.6123,,32.55208333,,,,,,FBP-OG-81.png,0.37,1.2,37,0.75,,,,,,,,,,,,,,,,,,0,25,25,36,1,,,,,,,,,,,,,,,,,,,,,,,
,,,,,V3_019,17,Female,2024-10-17_15h46.03.240,jersey_experiment_5_v3,2023.2.2,Win32,85.47008547,,,,,,,,,,,,,,,,1242.0649,1243.3589,1243.3589,1252.8063,return,1.2087,,57.8125,,,,,,FBP-YG-17.png,0.4,1.2,3,0.5,,,,,,,,,,,,,,,,,,0,26,26,2,1,,,,,,,,,,,,,,,,,,,,,,,
,,,,,V3_019,17,Female,2024-10-17_15h46.03.240,jersey_experiment_5_v3,2023.2.2,Win32,85.47008547,,,,,,,,,,,,,,,,1252.8067,1254.1006,1254.1006,1256.0536,return,0.4808,,88.41145833,,,,,,FBP-YG-19.png,0.43,1.2,14,0.5,,,,,,,,,,,,,,,,,,0,27,27,13,1,,,,,,,,,,,,,,,,,,,,,,,
,,,,,V3_019,17,Female,2024-10-17_15h46.03.240,jersey_experiment_5_v3,2023.2.2,Win32,85.47008547,,,,,,,,,,,,,,,,1256.0538,1257.3478,1257.3478,1259.4537,return,0.4969,,64.71354167,,,,,,FBP-RB-91.png,0.37,1.2,57,0.5,,,,,,,,,,,,,,,,,,0,28,28,56,1,,,,,,,,,,,,,,,,,,,,,,,
,,,,,V3_019,17,Female,2024-10-17_15h46.03.240,jersey_experiment_5_v3,2023.2.2,Win32,85.47008547,,,,,,,,,,,,,,,,1259.4539,1260.7478,1260.7478,1262.6774,return,0.5659,,71.35416667,,,,,,FBP-PT-91.png,0.4,1.2,28,0.5,,,,,,,,,,,,,,,,,,0,29,29,27,1,,,,,,,,,,,,,,,,,,,,,,,
,,,,,V3_019,17,Female,2024-10-17_15h46.03.240,jersey_experiment_5_v3,2023.2.2,Win32,85.47008547,,,,,,,,,,,,,,,,1262.6777,1263.9714,1263.9714,1267.4305,return,2.3447,,44.66145833,,,,,,FBP-RB-81.png,0.35,1.2,51,0.5,,,,,,,,,,,,,,,,,,0,30,30,50,1,,,,,,,,,,,,,,,,,,,,,,,
,,,,,V3_019,17,Female,2024-10-17_15h46.03.240,jersey_experiment_5_v3,2023.2.2,Win32,85.47008547,,,,,,,,,,,,,,,,1267.4307,1268.7246,1268.7246,1273.0071,return,0.6369,,87.36979167,,,,,,FBP-RB-91.png,0.43,1.2,59,0.5,,,,,,,,,,,,,,,,,,0,31,31,58,1,,,,,,,,,,,,,,,,,,,,,,,
,,,,,V3_019,17,Female,2024-10-17_15h46.03.240,jersey_experiment_5_v3,2023.2.2,Win32,85.47008547,,,,,,,,,,,,,,,,1273.0072,1274.3012,1274.3012,1277.5721,return,0.5398,,48.95833333,,,,,,FBP-PT-71.png,0.37,1.2,17,0.5,,,,,,,,,,,,,,,,,,0,32,32,16,1,,,,,,,,,,,,,,,,,,,,,,,
,,,,,V3_019,17,Female,2024-10-17_15h46.03.240,jersey_experiment_5_v3,2023.2.2,Win32,85.47008547,,,,,,,,,,,,,,,,1277.5722,1278.8662,1278.8662,1293.4902,return,12.858,,89.71354167,,,,,,FBP-YG-18.png,0.45,1.2,10,0.5,,,,,,,,,,,,,,,,,,0,33,33,9,1,,,,,,,,,,,,,,,,,,,,,,,
,,,,,V3_019,17,Female,2024-10-17_15h46.03.240,jersey_experiment_5_v3,2023.2.2,Win32,85.47008547,,,,,,,,,,,,,,,,1293.4905,1294.7845,1294.7845,1298.3022,return,1.7594,,54.42708333,,,,,,FBP-RB-81.png,0.37,1.2,52,0.5,,,,,,,,,,,,,,,,,,0,34,34,51,1,,,,,,,,,,,,,,,,,,,,,,,
,,,,,V3_019,17,Female,2024-10-17_15h46.03.240,jersey_experiment_5_v3,2023.2.2,Win32,85.47008547,,,,,,,,,,,,,,,,1298.3025,1299.8552,1299.8553,1303.0083,return,0.6837,,83.72395833,,,,,,FBP-OG-71.png,0.45,1.2,35,0.75,,,,,,,,,,,,,,,,,,0,35,35,34,1,,,,,,,,,,,,,,,,,,,,,,,
,,,,,V3_019,17,Female,2024-10-17_15h46.03.240,jersey_experiment_5_v3,2023.2.2,Win32,85.47008547,,,,,,,,,,,,,,,,1303.0086,1304.3023,1304.3024,1308.2554,return,1.1464,,22.13541667,,,,,,FBP-YG-19.png,0.35,1.2,11,0.5,,,,,,,,,,,,,,,,,,0,36,36,10,1,,,,,,,,,,,,,,,,,,,,,,,
,,,,,V3_019,17,Female,2024-10-17_15h46.03.240,jersey_experiment_5_v3,2023.2.2,Win32,85.47008547,,,,,,,,,,,,,,,,1308.2558,1309.5498,1309.5498,1312.0203,return,0.674,,85.546875,,,,,,FBP-PT-71.png,0.45,1.2,20,0.5,,,,,,,,,,,,,,,,,,0,37,37,19,1,,,,,,,,,,,,,,,,,,,,,,,
,,,,,V3_019,17,Female,2024-10-17_15h46.03.240,jersey_experiment_5_v3,2023.2.2,Win32,85.47008547,,,,,,,,,,,,,,,,1312.0205,1313.5734,1313.5734,1316.7264,return,0.52,,44.921875,,,,,,FBP-OG-71.png,0.37,1.2,32,0.75,,,,,,,,,,,,,,,,,,0,38,38,31,1,,,,,,,,,,,,,,,,,,,,,,,
,,,,,V3_019,17,Female,2024-10-17_15h46.03.240,jersey_experiment_5_v3,2023.2.2,Win32,85.47008547,,,,,,,,,,,,,,,,1316.7266,1318.0206,1318.0206,1320.2088,return,0.533,,28.25520833,,,,,,FBP-PT-91.png,0.35,1.2,26,0.5,,,,,,,,,,,,,,,,,,0,39,39,25,1,,,,,,,,,,,,,,,,,,,,,,,
,,,,,V3_019,17,Female,2024-10-17_15h46.03.240,jersey_experiment_5_v3,2023.2.2,Win32,85.47008547,,,,,,,,,,,,,,,,1320.2091,1321.5031,1321.5032,1323.8091,return,0.4945,,70.57291667,,,,,,FBP-YG-18.png,0.4,1.2,8,0.5,,,,,,,,,,,,,,,,,,0,40,40,7,1,,,,,,,,,,,,,,,,,,,,,,,
,,,,,V3_019,17,Female,2024-10-17_15h46.03.240,jersey_experiment_5_v3,2023.2.2,Win32,85.47008547,,,,,,,,,,,,,,,,1323.8094,1325.1032,1325.1033,1327.6798,return,0.6245,,85.15625,,,,,,FBP-PT-81.png,0.45,1.2,25,0.5,,,,,,,,,,,,,,,,,,0,41,41,24,1,,,,,,,,,,,,,,,,,,,,,,,
,,,,,V3_019,17,Female,2024-10-17_15h46.03.240,jersey_experiment_5_v3,2023.2.2,Win32,85.47008547,,,,,,,,,,,,,,,,1327.6799,1329.2328,1329.2328,1331.6328,return,0.592,,88.28125,,,,,,FBP-OG-81.png,0.45,1.2,40,0.75,,,,,,,,,,,,,,,,,,0,42,42,39,1,,,,,,,,,,,,,,,,,,,,,,,
,,,,,V3_019,17,Female,2024-10-17_15h46.03.240,jersey_experiment_5_v3,2023.2.2,Win32,85.47008547,,,,,,,,,,,,,,,,1331.6331,1332.927,1332.9271,1335.8683,return,0.6517,,76.5625,,,,,,FBP-PT-81.png,0.43,1.2,24,0.5,,,,,,,,,,,,,,,,,,0,43,43,23,1,,,,,,,,,,,,,,,,,,,,,,,
,,,,,V3_019,17,Female,2024-10-17_15h46.03.240,jersey_experiment_5_v3,2023.2.2,Win32,85.47008547,,,,,,,,,,,,,,,,1335.8686,1337.1624,1337.1625,1340.2449,return,0.6826,,22.91666667,,,,,,FBP-YG-18.png,0.35,1.2,6,0.5,,,,,,,,,,,,,,,,,,0,44,44,5,1,,,,,,,,,,,,,,,,,,,,,,,
,,,,,V3_019,17,Female,2024-10-17_15h46.03.240,jersey_experiment_5_v3,2023.2.2,Win32,85.47008547,,,,,,,,,,,,,,,,1340.2453,1341.5391,1341.5391,1344.1745,return,0.6886,,85.02604167,,,,,,FBP-YG-18.png,0.43,1.2,9,0.5,,,,,,,,,,,,,,,,,,0,45,45,8,1,,,,,,,,,,,,,,,,,,,,,,,
,,,,,V3_019,17,Female,2024-10-17_15h46.03.240,jersey_experiment_5_v3,2023.2.2,Win32,85.47008547,,,,,,,,,,,,,,,,1344.1748,1345.4685,1345.4685,1347.7982,return,0.4706,,80.20833333,,,,,,FBP-YG-17.png,0.45,1.2,5,0.5,,,,,,,,,,,,,,,,,,0,46,46,4,1,,,,,,,,,,,,,,,,,,,,,,,
,,,,,V3_019,17,Female,2024-10-17_15h46.03.240,jersey_experiment_5_v3,2023.2.2,Win32,85.47008547,,,,,,,,,,,,,,,,1347.7985,1349.0924,1349.0924,1352.7043,return,0.5891,,11.328125,,,,,,FBP-RB-71.png,0.35,1.2,46,0.5,,,,,,,,,,,,,,,,,,0,47,47,45,1,,,,,,,,,,,,,,,,,,,,,,,
,,,,,V3_019,17,Female,2024-10-17_15h46.03.240,jersey_experiment_5_v3,2023.2.2,Win32,85.47008547,,,,,,,,,,,,,,,,1352.7045,1353.9984,1353.9985,1357.1749,return,1.3182,,19.53125,,,,,,FBP-YG-18.png,0.37,1.2,7,0.5,,,,,,,,,,,,,,,,,,0,48,48,6,1,,,,,,,,,,,,,,,,,,,,,,,
,,,,,V3_019,17,Female,2024-10-17_15h46.03.240,jersey_experiment_5_v3,2023.2.2,Win32,85.47008547,,,,,,,,,,,,,,,,1357.1752,1358.4692,1358.4692,1360.9986,return,0.5885,,17.1875,,,,,,FBP-PT-81.png,0.35,1.2,21,0.5,,,,,,,,,,,,,,,,,,0,49,49,20,1,,,,,,,,,,,,,,,,,,,,,,,
,,,,,V3_019,17,Female,2024-10-17_15h46.03.240,jersey_experiment_5_v3,2023.2.2,Win32,85.47008547,,,,,,,,,,,,,,,,1360.9989,1362.2928,1362.2928,1365.9871,return,0.5744,,71.22395833,,,,,,FBP-RB-81.png,0.43,1.2,54,0.5,,,,,,,,,,,,,,,,,,0,50,50,53,1,,,,,,,,,,,,,,,,,,,,,,,
,,,,,V3_019,17,Female,2024-10-17_15h46.03.240,jersey_experiment_5_v3,2023.2.2,Win32,85.47008547,,,,,,,,,,,,,,,,1365.9875,1367.54,1367.5401,1369.6813,return,0.5523,,77.86458333,,,,,,FBP-OG-81.png,0.4,1.2,38,0.75,,,,,,,,,,,,,,,,,,0,51,51,37,1,,,,,,,,,,,,,,,,,,,,,,,
,,,,,V3_019,17,Female,2024-10-17_15h46.03.240,jersey_experiment_5_v3,2023.2.2,Win32,85.47008547,,,,,,,,,,,,,,,,1369.6816,1370.9754,1370.9754,1373.3286,return,0.6008,,65.625,,,,,,FBP-RB-71.png,0.37,1.2,47,0.5,,,,,,,,,,,,,,,,,,0,52,52,46,1,,,,,,,,,,,,,,,,,,,,,,,
,,,,,V3_019,17,Female,2024-10-17_15h46.03.240,jersey_experiment_5_v3,2023.2.2,Win32,85.47008547,,,,,,,,,,,,,,,,1373.3288,1374.6226,1374.6228,1376.7992,return,0.5192,,72.39583333,,,,,,FBP-PT-71.png,0.4,1.2,18,0.5,,,,,,,,,,,,,,,,,,0,53,53,17,1,,,,,,,,,,,,,,,,,,,,,,,
,,,,,V3_019,17,Female,2024-10-17_15h46.03.240,jersey_experiment_5_v3,2023.2.2,Win32,85.47008547,,,,,,,,,,,,,,,,1376.7996,1378.3521,1378.3522,1379.964,return,0.4794,,70.83333333,,,,,,FBP-OG-91.png,0.4,1.2,43,0.75,,,,,,,,,,,,,,,,,,0,54,54,42,1,,,,,,,,,,,,,,,,,,,,,,,
,,,,,V3_019,17,Female,2024-10-17_15h46.03.240,jersey_experiment_5_v3,2023.2.2,Win32,85.47008547,,,,,,,,,,,,,,,,1379.9641,1381.2582,1381.2582,1382.9407,return,0.5715,,66.53645833,,,,,,FBP-PT-91.png,0.37,1.2,27,0.5,,,,,,,,,,,,,,,,,,0,55,55,26,1,,,,,,,,,,,,,,,,,,,,,,,
,,,,,V3_019,17,Female,2024-10-17_15h46.03.240,jersey_experiment_5_v3,2023.2.2,Win32,85.47008547,,,,,,,,,,,,,,,,1382.941,1384.2349,1384.2349,1386.3643,return,0.6204,,85.41666667,,,,,,FBP-RB-71.png,0.45,1.2,50,0.5,,,,,,,,,,,,,,,,,,0,56,56,49,1,,,,,,,,,,,,,,,,,,,,,,,
,,,,,V3_019,17,Female,2024-10-17_15h46.03.240,jersey_experiment_5_v3,2023.2.2,Win32,85.47008547,,,,,,,,,,,,,,,,1386.3645,1387.9174,1387.9174,1389.776,return,0.5458,,77.47395833,,,,,,FBP-OG-71.png,0.4,1.2,33,0.75,,,,,,,,,,,,,,,,,,0,57,57,32,1,,,,,,,,,,,,,,,,,,,,,,,
,,,,,V3_019,17,Female,2024-10-17_15h46.03.240,jersey_experiment_5_v3,2023.2.2,Win32,85.47008547,,,,,,,,,,,,,,,,1389.7762,1391.0704,1391.0704,1393.2467,return,0.7935,,86.71875,,,,,,FBP-PT-91.png,0.45,1.2,30,0.5,,,,,,,,,,,,,,,,,,0,58,58,29,1,,,,,,,,,,,,,,,,,,,,,,,
,,,,,V3_019,17,Female,2024-10-17_15h46.03.240,jersey_experiment_5_v3,2023.2.2,Win32,85.47008547,,,,,,,,,,,,,,,,1393.247,1394.541,1394.541,1398.3412,return,1.2942,,35.80729167,,,,,,FBP-RB-91.png,0.35,1.2,56,0.5,,,,,,,,,,,,,,,,,,0,59,59,55,1,,,,,,,,,,,,,,,,,,,,,,,
,,,,,V3_019,17,Female,2024-10-17_15h46.03.240,jersey_experiment_5_v3,2023.2.2,Win32,85.47008547,,,,,,,,,,,,,,,,,,,,,,,,,,,,,,,,,,,,,,,,,,,,,,,,,,,,,,,,1398.3413,1406.9653,return,8.6115,,,,,,,,,,,,,,,,,,,
,,,,,V3_019,17,Female,2024-10-17_15h46.03.240,jersey_experiment_5_v3,2023.2.2,Win32,85.47008547,,,,,,,,,,,,,,,,,,,,,,,,,,,,,,,,,,,,,,,,,,,,,,,,,,,,,,,,,,,,,1406.9653,1411.6948,1,3.4698,return,1.2495,,,,,,,,,,,,
,,,,,V3_019,17,Female,2024-10-17_15h46.03.240,jersey_experiment_5_v3,2023.2.2,Win32,85.47008547,,,,,,,,,,,,,,,,,,,,,,,,,,,,,,,,,,,,,,,,,,,,,,,,,,,,,,,,,,,,,,,,,,,,1411.695,1477.0152,"I am not really sure what the study is about. I noticed that sometimes, similarly-sized football players were presented right after another but at other times, I also noticed that oppositely-sized players were presented sequentially. I also noticed that there were two races of players that were presented.",right,59.2866,,,,,,
,,,,,V3_019,17,Female,2024-10-17_15h46.03.240,jersey_experiment_5_v3,2023.2.2,Win32,85.47008547,,,,,,,,,,,,,,,,,,,,,,,,,,,,,,,,,,,,,,,,,,,,,,,,,,,,,,,,,,,,,,,,,,,,,,,,,,1477.0154,1480.0974,return,3.0721,