requirements.started,requirements.stopped,key_resp_3.keys,key_resp_3.rt,key_resp_3.duration,Subject ID,Age,Gender,date,expName,psychopyVersion,OS,frameRate,instructions1.started,instructions1.stopped,key_resp.keys,key_resp.rt,key_resp.duration,example.started,example.stopped,enter_2.keys,enter_2.rt,enter_2.duration,instructions2.started,instructions2.stopped,enter_3.keys,enter_3.rt,enter_3.duration,image.started,image.stopped,slider_2.started,slider_2.stopped,next.keys,next.rt,next.duration,slider.response,trial_block_1.thisRepN,trial_block_1.thisTrialN,trial_block_1.thisN,trial_block_1.thisIndex,trial_block_1.ran,Path,Width,Height,Index,Duration,trial_block_2.thisRepN,trial_block_2.thisTrialN,trial_block_2.thisN,trial_block_2.thisIndex,trial_block_2.ran,rest_break.started,rest_break.stopped,end_break.started,end_break.stopped,key_resp_5.keys,key_resp_5.rt,key_resp_5.duration,trial_block_3.thisRepN,trial_block_3.thisTrialN,trial_block_3.thisN,trial_block_3.thisIndex,trial_block_3.ran,trial_block_4.thisRepN,trial_block_4.thisTrialN,trial_block_4.thisN,trial_block_4.thisIndex,trial_block_4.ran,questions_intro.started,questions_intro.stopped,enter_12.keys,enter_12.rt,enter_12.duration,question2.started,question2.stopped,question_doingbest.response,question_doingbest.rt,enter_15.keys,enter_15.rt,enter_15.duration,pattern.started,pattern.stopped,pattern_2.text,enter_17.keys,enter_17.rt,enter_17.duration,thankyou.started,thankyou.stopped,enter_14.keys,enter_14.rt,enter_14.duration
0.0001,15.5942,return,15.5881,,V3_037,20,female,2024-10-26_11h39.49.190,jersey_experiment_5_v3,2023.2.2,Win32,85.47008547,,,,,,,,,,,,,,,,,,,,,,,,,,,,,,,,,,,,,,,,,,,,,,,,,,,,,,,,,,,,,,,,,,,,,,,,,,,,,,
,,,,,V3_037,20,female,2024-10-26_11h39.49.190,jersey_experiment_5_v3,2023.2.2,Win32,85.47008547,15.5943,29.697,return,14.0945,,,,,,,,,,,,,,,,,,,,,,,,,,,,,,,,,,,,,,,,,,,,,,,,,,,,,,,,,,,,,,,,,,,,,,,,,,
,,,,,V3_037,20,female,2024-10-26_11h39.49.190,jersey_experiment_5_v3,2023.2.2,Win32,85.47008547,,,,,,29.6971,35.1999,return,5.477,,,,,,,,,,,,,,,,,,,,,,,,,,,,,,,,,,,,,,,,,,,,,,,,,,,,,,,,,,,,,,,,,,,,,
,,,,,V3_037,20,female,2024-10-26_11h39.49.190,jersey_experiment_5_v3,2023.2.2,Win32,85.47008547,,,,,,,,,,,35.2001,62.036,return,26.823,,,,,,,,,,,,,,,,,,,,,,,,,,,,,,,,,,,,,,,,,,,,,,,,,,,,,,,,,,,,,,,,
,,,,,V3_037,20,female,2024-10-26_11h39.49.190,jersey_experiment_5_v3,2023.2.2,Win32,85.47008547,,,,,,,,,,,,,,,,62.0392,63.589,63.5891,69.6128,return,1.567,,49.34895833,0,0,0,16,1,FBP-PT-17.png,0.37,1.2,17,0.75,,,,,,,,,,,,,,,,,,,,,,,,,,,,,,,,,,,,,,,,,,,,,
,,,,,V3_037,20,female,2024-10-26_11h39.49.190,jersey_experiment_5_v3,2023.2.2,Win32,85.47008547,,,,,,,,,,,,,,,,69.6133,70.9068,70.9068,72.1305,return,0.2121,,72.13541667,0,1,1,44,1,FBP-OG-19.png,0.45,1.2,45,0.5,,,,,,,,,,,,,,,,,,,,,,,,,,,,,,,,,,,,,,,,,,,,,
,,,,,V3_037,20,female,2024-10-26_11h39.49.190,jersey_experiment_5_v3,2023.2.2,Win32,85.47008547,,,,,,,,,,,,,,,,72.1308,73.4247,73.4247,75.6482,return,0.2125,,49.609375,0,2,2,37,1,FBP-OG-18.png,0.4,1.2,38,0.5,,,,,,,,,,,,,,,,,,,,,,,,,,,,,,,,,,,,,,,,,,,,,
,,,,,V3_037,20,female,2024-10-26_11h39.49.190,jersey_experiment_5_v3,2023.2.2,Win32,85.47008547,,,,,,,,,,,,,,,,75.6484,77.2013,77.2013,80.4367,return,0.5648,,52.08333333,0,3,3,17,1,FBP-PT-17.png,0.4,1.2,18,0.75,,,,,,,,,,,,,,,,,,,,,,,,,,,,,,,,,,,,,,,,,,,,,
,,,,,V3_037,20,female,2024-10-26_11h39.49.190,jersey_experiment_5_v3,2023.2.2,Win32,85.47008547,,,,,,,,,,,,,,,,80.437,81.7308,81.7309,83.0721,return,0.2229,,40.88541667,0,4,4,35,1,FBP-OG-18.png,0.35,1.2,36,0.5,,,,,,,,,,,,,,,,,,,,,,,,,,,,,,,,,,,,,,,,,,,,,
,,,,,V3_037,20,female,2024-10-26_11h39.49.190,jersey_experiment_5_v3,2023.2.2,Win32,85.47008547,,,,,,,,,,,,,,,,83.0723,84.625,84.625,85.8722,return,0.2377,,38.15104167,0,5,5,56,1,FBP-RB-19.png,0.37,1.2,57,0.75,,,,,,,,,,,,,,,,,,,,,,,,,,,,,,,,,,,,,,,,,,,,,
,,,,,V3_037,20,female,2024-10-26_11h39.49.190,jersey_experiment_5_v3,2023.2.2,Win32,85.47008547,,,,,,,,,,,,,,,,85.8725,87.4252,87.4252,89.0251,return,0.2369,,70.05208333,0,6,6,59,1,FBP-RB-19.png,0.45,1.2,60,0.75,,,,,,,,,,,,,,,,,,,,,,,,,,,,,,,,,,,,,,,,,,,,,
,,,,,V3_037,20,female,2024-10-26_11h39.49.190,jersey_experiment_5_v3,2023.2.2,Win32,85.47008547,,,,,,,,,,,,,,,,89.0253,90.5782,90.5782,91.7782,return,0.149,,51.30208333,0,7,7,6,1,FBP-YG-81.png,0.37,1.2,7,0.75,,,,,,,,,,,,,,,,,,,,,,,,,,,,,,,,,,,,,,,,,,,,,
,,,,,V3_037,20,female,2024-10-26_11h39.49.190,jersey_experiment_5_v3,2023.2.2,Win32,85.47008547,,,,,,,,,,,,,,,,91.7784,93.3311,93.3312,94.543,return,0.2037,,39.19270833,0,8,8,10,1,FBP-YG-91.png,0.35,1.2,11,0.75,,,,,,,,,,,,,,,,,,,,,,,,,,,,,,,,,,,,,,,,,,,,,
,,,,,V3_037,20,female,2024-10-26_11h39.49.190,jersey_experiment_5_v3,2023.2.2,Win32,85.47008547,,,,,,,,,,,,,,,,94.5433,96.096,96.096,96.9078,return,0.1715,,38.671875,0,9,9,55,1,FBP-RB-19.png,0.35,1.2,56,0.75,,,,,,,,,,,,,,,,,,,,,,,,,,,,,,,,,,,,,,,,,,,,,
,,,,,V3_037,20,female,2024-10-26_11h39.49.190,jersey_experiment_5_v3,2023.2.2,Win32,85.47008547,,,,,,,,,,,,,,,,96.908,98.2019,98.202,99.5079,return,0.1648,,67.44791667,0,10,10,43,1,FBP-OG-19.png,0.43,1.2,44,0.5,,,,,,,,,,,,,,,,,,,,,,,,,,,,,,,,,,,,,,,,,,,,,
,,,,,V3_037,20,female,2024-10-26_11h39.49.190,jersey_experiment_5_v3,2023.2.2,Win32,85.47008547,,,,,,,,,,,,,,,,99.5082,101.061,101.061,101.8609,return,0.2129,,72.00520833,0,11,11,9,1,FBP-YG-81.png,0.45,1.2,10,0.75,,,,,,,,,,,,,,,,,,,,,,,,,,,,,,,,,,,,,,,,,,,,,
,,,,,V3_037,20,female,2024-10-26_11h39.49.190,jersey_experiment_5_v3,2023.2.2,Win32,85.47008547,,,,,,,,,,,,,,,,101.8613,103.1551,103.1551,104.367,return,0.2236,,71.22395833,0,12,12,39,1,FBP-OG-18.png,0.45,1.2,40,0.5,,,,,,,,,,,,,,,,,,,,,,,,,,,,,,,,,,,,,,,,,,,,,
,,,,,V3_037,20,female,2024-10-26_11h39.49.190,jersey_experiment_5_v3,2023.2.2,Win32,85.47008547,,,,,,,,,,,,,,,,104.3672,105.9199,105.9199,107.214,return,0.2164,,76.30208333,0,13,13,49,1,FBP-RB-17.png,0.45,1.2,50,0.75,,,,,,,,,,,,,,,,,,,,,,,,,,,,,,,,,,,,,,,,,,,,,
,,,,,V3_037,20,female,2024-10-26_11h39.49.190,jersey_experiment_5_v3,2023.2.2,Win32,85.47008547,,,,,,,,,,,,,,,,107.2143,108.5081,108.5082,109.6141,return,0.1456,,50.65104167,0,14,14,31,1,FBP-OG-17.png,0.37,1.2,32,0.5,,,,,,,,,,,,,,,,,,,,,,,,,,,,,,,,,,,,,,,,,,,,,
,,,,,V3_037,20,female,2024-10-26_11h39.49.190,jersey_experiment_5_v3,2023.2.2,Win32,85.47008547,,,,,,,,,,,,,,,,109.6143,111.1672,111.1672,112.7201,return,0.1775,,47.52604167,0,15,15,1,1,FBP-YG-71.png,0.37,1.2,2,0.75,,,,,,,,,,,,,,,,,,,,,,,,,,,,,,,,,,,,,,,,,,,,,
,,,,,V3_037,20,female,2024-10-26_11h39.49.190,jersey_experiment_5_v3,2023.2.2,Win32,85.47008547,,,,,,,,,,,,,,,,112.7203,114.2732,114.2732,114.8613,return,0.1099,,55.46875,0,16,16,2,1,FBP-YG-71.png,0.4,1.2,3,0.75,,,,,,,,,,,,,,,,,,,,,,,,,,,,,,,,,,,,,,,,,,,,,
,,,,,V3_037,20,female,2024-10-26_11h39.49.190,jersey_experiment_5_v3,2023.2.2,Win32,85.47008547,,,,,,,,,,,,,,,,114.8616,116.1554,116.1554,117.2027,return,0.0859,,67.96875,0,17,17,38,1,FBP-OG-18.png,0.43,1.2,39,0.5,,,,,,,,,,,,,,,,,,,,,,,,,,,,,,,,,,,,,,,,,,,,,
,,,,,V3_037,20,female,2024-10-26_11h39.49.190,jersey_experiment_5_v3,2023.2.2,Win32,85.47008547,,,,,,,,,,,,,,,,117.2029,118.7557,118.7557,119.4381,return,0.1676,,41.14583333,0,18,18,46,1,FBP-RB-17.png,0.37,1.2,47,0.75,,,,,,,,,,,,,,,,,,,,,,,,,,,,,,,,,,,,,,,,,,,,,
,,,,,V3_037,20,female,2024-10-26_11h39.49.190,jersey_experiment_5_v3,2023.2.2,Win32,85.47008547,,,,,,,,,,,,,,,,119.4383,120.9912,120.9913,121.7086,return,0.0766,,66.53645833,0,19,19,53,1,FBP-RB-18.png,0.43,1.2,54,0.75,,,,,,,,,,,,,,,,,,,,,,,,,,,,,,,,,,,,,,,,,,,,,
,,,,,V3_037,20,female,2024-10-26_11h39.49.190,jersey_experiment_5_v3,2023.2.2,Win32,85.47008547,,,,,,,,,,,,,,,,121.7088,123.0031,123.0031,124.05,return,0.1658,,36.19791667,0,20,20,40,1,FBP-OG-19.png,0.35,1.2,41,0.5,,,,,,,,,,,,,,,,,,,,,,,,,,,,,,,,,,,,,,,,,,,,,
,,,,,V3_037,20,female,2024-10-26_11h39.49.190,jersey_experiment_5_v3,2023.2.2,Win32,85.47008547,,,,,,,,,,,,,,,,124.0502,125.6032,125.6032,126.1325,return,0.0235,,63.28125,0,21,21,48,1,FBP-RB-17.png,0.43,1.2,49,0.75,,,,,,,,,,,,,,,,,,,,,,,,,,,,,,,,,,,,,,,,,,,,,
,,,,,V3_037,20,female,2024-10-26_11h39.49.190,jersey_experiment_5_v3,2023.2.2,Win32,85.47008547,,,,,,,,,,,,,,,,126.1328,127.6855,127.6855,128.5559,return,0.1244,,30.859375,0,22,22,50,1,FBP-RB-18.png,0.35,1.2,51,0.75,,,,,,,,,,,,,,,,,,,,,,,,,,,,,,,,,,,,,,,,,,,,,
,,,,,V3_037,20,female,2024-10-26_11h39.49.190,jersey_experiment_5_v3,2023.2.2,Win32,85.47008547,,,,,,,,,,,,,,,,128.5562,129.8502,129.8502,131.6266,return,0.0989,,37.36979167,0,23,23,36,1,FBP-OG-18.png,0.37,1.2,37,0.5,,,,,,,,,,,,,,,,,,,,,,,,,,,,,,,,,,,,,,,,,,,,,
,,,,,V3_037,20,female,2024-10-26_11h39.49.190,jersey_experiment_5_v3,2023.2.2,Win32,85.47008547,,,,,,,,,,,,,,,,131.6269,132.9208,132.9208,134.9445,return,1.0111,,85.02604167,0,24,24,34,1,FBP-OG-17.png,0.45,1.2,35,0.5,,,,,,,,,,,,,,,,,,,,,,,,,,,,,,,,,,,,,,,,,,,,,
,,,,,V3_037,20,female,2024-10-26_11h39.49.190,jersey_experiment_5_v3,2023.2.2,Win32,85.47008547,,,,,,,,,,,,,,,,134.9448,136.4977,136.4978,137.6974,return,0.1099,,26.171875,0,25,25,45,1,FBP-RB-17.png,0.35,1.2,46,0.75,,,,,,,,,,,,,,,,,,,,,,,,,,,,,,,,,,,,,,,,,,,,,
,,,,,V3_037,20,female,2024-10-26_11h39.49.190,jersey_experiment_5_v3,2023.2.2,Win32,85.47008547,,,,,,,,,,,,,,,,137.6976,138.9916,138.9917,140.9446,return,0.5654,,56.51041667,0,26,26,42,1,FBP-OG-19.png,0.4,1.2,43,0.5,,,,,,,,,,,,,,,,,,,,,,,,,,,,,,,,,,,,,,,,,,,,,
,,,,,V3_037,20,female,2024-10-26_11h39.49.190,jersey_experiment_5_v3,2023.2.2,Win32,85.47008547,,,,,,,,,,,,,,,,140.9448,142.4976,142.4976,143.5212,return,0.1038,,85.15625,0,27,27,23,1,FBP-PT-18.png,0.43,1.2,24,0.75,,,,,,,,,,,,,,,,,,,,,,,,,,,,,,,,,,,,,,,,,,,,,
,,,,,V3_037,20,female,2024-10-26_11h39.49.190,jersey_experiment_5_v3,2023.2.2,Win32,85.47008547,,,,,,,,,,,,,,,,143.5214,145.0742,145.0742,146.2509,return,0.4408,,76.04166667,0,28,28,28,1,FBP-PT-19.png,0.43,1.2,29,0.75,,,,,,,,,,,,,,,,,,,,,,,,,,,,,,,,,,,,,,,,,,,,,
,,,,,V3_037,20,female,2024-10-26_11h39.49.190,jersey_experiment_5_v3,2023.2.2,Win32,85.47008547,,,,,,,,,,,,,,,,146.251,147.8038,147.8039,148.9802,return,0.223,,17.83854167,0,29,29,20,1,FBP-PT-18.png,0.35,1.2,21,0.75,,,,,,,,,,,,,,,,,,,,,,,,,,,,,,,,,,,,,,,,,,,,,
,,,,,V3_037,20,female,2024-10-26_11h39.49.190,jersey_experiment_5_v3,2023.2.2,Win32,85.47008547,,,,,,,,,,,,,,,,148.9805,150.5334,150.5335,151.6626,return,0.1091,,73.4375,0,30,30,3,1,FBP-YG-71.png,0.43,1.2,4,0.75,,,,,,,,,,,,,,,,,,,,,,,,,,,,,,,,,,,,,,,,,,,,,
,,,,,V3_037,20,female,2024-10-26_11h39.49.190,jersey_experiment_5_v3,2023.2.2,Win32,85.47008547,,,,,,,,,,,,,,,,151.6629,153.216,153.216,154.5807,return,0.2674,,81.25,0,31,31,29,1,FBP-PT-19.png,0.45,1.2,30,0.75,,,,,,,,,,,,,,,,,,,,,,,,,,,,,,,,,,,,,,,,,,,,,
,,,,,V3_037,20,female,2024-10-26_11h39.49.190,jersey_experiment_5_v3,2023.2.2,Win32,85.47008547,,,,,,,,,,,,,,,,154.5809,156.1337,156.1338,157.3335,return,0.2119,,76.82291667,0,32,32,18,1,FBP-PT-17.png,0.43,1.2,19,0.75,,,,,,,,,,,,,,,,,,,,,,,,,,,,,,,,,,,,,,,,,,,,,
,,,,,V3_037,20,female,2024-10-26_11h39.49.190,jersey_experiment_5_v3,2023.2.2,Win32,85.47008547,,,,,,,,,,,,,,,,157.3338,158.8865,158.8866,159.6277,return,0.1129,,55.98958333,0,33,33,7,1,FBP-YG-81.png,0.4,1.2,8,0.75,,,,,,,,,,,,,,,,,,,,,,,,,,,,,,,,,,,,,,,,,,,,,
,,,,,V3_037,20,female,2024-10-26_11h39.49.190,jersey_experiment_5_v3,2023.2.2,Win32,85.47008547,,,,,,,,,,,,,,,,159.628,160.922,160.9221,161.4748,return,0.0707,,56.11979167,0,34,34,32,1,FBP-OG-17.png,0.4,1.2,33,0.5,,,,,,,,,,,,,,,,,,,,,,,,,,,,,,,,,,,,,,,,,,,,,
,,,,,V3_037,20,female,2024-10-26_11h39.49.190,jersey_experiment_5_v3,2023.2.2,Win32,85.47008547,,,,,,,,,,,,,,,,161.4751,163.0278,163.0278,163.6747,return,0.0906,,56.25,0,35,35,13,1,FBP-YG-91.png,0.43,1.2,14,0.75,,,,,,,,,,,,,,,,,,,,,,,,,,,,,,,,,,,,,,,,,,,,,
,,,,,V3_037,20,female,2024-10-26_11h39.49.190,jersey_experiment_5_v3,2023.2.2,Win32,85.47008547,,,,,,,,,,,,,,,,163.675,165.228,165.228,166.1928,return,0.1306,,50.65104167,0,36,36,22,1,FBP-PT-18.png,0.4,1.2,23,0.75,,,,,,,,,,,,,,,,,,,,,,,,,,,,,,,,,,,,,,,,,,,,,
,,,,,V3_037,20,female,2024-10-26_11h39.49.190,jersey_experiment_5_v3,2023.2.2,Win32,85.47008547,,,,,,,,,,,,,,,,166.1934,167.7459,167.7459,168.581,return,0.3542,,59.89583333,0,37,37,14,1,FBP-YG-91.png,0.45,1.2,15,0.75,,,,,,,,,,,,,,,,,,,,,,,,,,,,,,,,,,,,,,,,,,,,,
,,,,,V3_037,20,female,2024-10-26_11h39.49.190,jersey_experiment_5_v3,2023.2.2,Win32,85.47008547,,,,,,,,,,,,,,,,168.5813,169.8752,169.8753,170.5812,return,0.0707,,46.484375,0,38,38,41,1,FBP-OG-19.png,0.37,1.2,42,0.5,,,,,,,,,,,,,,,,,,,,,,,,,,,,,,,,,,,,,,,,,,,,,
,,,,,V3_037,20,female,2024-10-26_11h39.49.190,jersey_experiment_5_v3,2023.2.2,Win32,85.47008547,,,,,,,,,,,,,,,,170.5817,172.1342,172.1342,172.6282,return,0.1178,,39.0625,0,39,39,25,1,FBP-PT-19.png,0.35,1.2,26,0.75,,,,,,,,,,,,,,,,,,,,,,,,,,,,,,,,,,,,,,,,,,,,,
,,,,,V3_037,20,female,2024-10-26_11h39.49.190,jersey_experiment_5_v3,2023.2.2,Win32,85.47008547,,,,,,,,,,,,,,,,172.6285,174.1812,174.1812,175.0988,return,0.1728,,53.90625,0,40,40,57,1,FBP-RB-19.png,0.4,1.2,58,0.75,,,,,,,,,,,,,,,,,,,,,,,,,,,,,,,,,,,,,,,,,,,,,
,,,,,V3_037,20,female,2024-10-26_11h39.49.190,jersey_experiment_5_v3,2023.2.2,Win32,85.47008547,,,,,,,,,,,,,,,,175.0991,176.6522,176.6522,177.5343,return,0.1109,,73.30729167,0,41,41,4,1,FBP-YG-71.png,0.45,1.2,5,0.75,,,,,,,,,,,,,,,,,,,,,,,,,,,,,,,,,,,,,,,,,,,,,
,,,,,V3_037,20,female,2024-10-26_11h39.49.190,jersey_experiment_5_v3,2023.2.2,Win32,85.47008547,,,,,,,,,,,,,,,,177.5347,179.0875,179.0875,179.8991,return,0.0424,,34.11458333,0,42,42,21,1,FBP-PT-18.png,0.37,1.2,22,0.75,,,,,,,,,,,,,,,,,,,,,,,,,,,,,,,,,,,,,,,,,,,,,
,,,,,V3_037,20,female,2024-10-26_11h39.49.190,jersey_experiment_5_v3,2023.2.2,Win32,85.47008547,,,,,,,,,,,,,,,,179.8998,181.1937,181.1938,182.5815,return,0.2477,,57.8125,0,43,43,33,1,FBP-OG-17.png,0.43,1.2,34,0.5,,,,,,,,,,,,,,,,,,,,,,,,,,,,,,,,,,,,,,,,,,,,,
,,,,,V3_037,20,female,2024-10-26_11h39.49.190,jersey_experiment_5_v3,2023.2.2,Win32,85.47008547,,,,,,,,,,,,,,,,182.5817,184.1229,184.123,184.9933,return,0.1773,,28.77604167,0,44,44,0,1,FBP-YG-71.png,0.35,1.2,1,0.75,,,,,,,,,,,,,,,,,,,,,,,,,,,,,,,,,,,,,,,,,,,,,
,,,,,V3_037,20,female,2024-10-26_11h39.49.190,jersey_experiment_5_v3,2023.2.2,Win32,85.47008547,,,,,,,,,,,,,,,,184.9936,186.5349,186.535,187.4758,return,0.0351,,48.4375,0,45,45,52,1,FBP-RB-18.png,0.4,1.2,53,0.75,,,,,,,,,,,,,,,,,,,,,,,,,,,,,,,,,,,,,,,,,,,,,
,,,,,V3_037,20,female,2024-10-26_11h39.49.190,jersey_experiment_5_v3,2023.2.2,Win32,85.47008547,,,,,,,,,,,,,,,,187.4762,189.0288,189.0288,189.923,return,0.1066,,61.328125,0,46,46,47,1,FBP-RB-17.png,0.4,1.2,48,0.75,,,,,,,,,,,,,,,,,,,,,,,,,,,,,,,,,,,,,,,,,,,,,
,,,,,V3_037,20,female,2024-10-26_11h39.49.190,jersey_experiment_5_v3,2023.2.2,Win32,85.47008547,,,,,,,,,,,,,,,,189.9235,191.476,191.4762,192.2055,return,0.0754,,48.95833333,0,47,47,26,1,FBP-PT-19.png,0.37,1.2,27,0.75,,,,,,,,,,,,,,,,,,,,,,,,,,,,,,,,,,,,,,,,,,,,,
,,,,,V3_037,20,female,2024-10-26_11h39.49.190,jersey_experiment_5_v3,2023.2.2,Win32,85.47008547,,,,,,,,,,,,,,,,192.2059,193.7586,193.7586,194.382,return,0.1101,,51.171875,0,48,48,12,1,FBP-YG-91.png,0.4,1.2,13,0.75,,,,,,,,,,,,,,,,,,,,,,,,,,,,,,,,,,,,,,,,,,,,,
,,,,,V3_037,20,female,2024-10-26_11h39.49.190,jersey_experiment_5_v3,2023.2.2,Win32,85.47008547,,,,,,,,,,,,,,,,194.3828,195.9349,195.935,196.4996,return,0.0153,,57.421875,0,49,49,27,1,FBP-PT-19.png,0.4,1.2,28,0.75,,,,,,,,,,,,,,,,,,,,,,,,,,,,,,,,,,,,,,,,,,,,,
,,,,,V3_037,20,female,2024-10-26_11h39.49.190,jersey_experiment_5_v3,2023.2.2,Win32,85.47008547,,,,,,,,,,,,,,,,196.4999,198.0526,198.0526,198.8644,return,0.2258,,68.88020833,0,50,50,58,1,FBP-RB-19.png,0.43,1.2,59,0.75,,,,,,,,,,,,,,,,,,,,,,,,,,,,,,,,,,,,,,,,,,,,,
,,,,,V3_037,20,female,2024-10-26_11h39.49.190,jersey_experiment_5_v3,2023.2.2,Win32,85.47008547,,,,,,,,,,,,,,,,198.8647,200.1588,200.1588,200.9468,return,0.0608,,37.36979167,0,51,51,30,1,FBP-OG-17.png,0.35,1.2,31,0.5,,,,,,,,,,,,,,,,,,,,,,,,,,,,,,,,,,,,,,,,,,,,,
,,,,,V3_037,20,female,2024-10-26_11h39.49.190,jersey_experiment_5_v3,2023.2.2,Win32,85.47008547,,,,,,,,,,,,,,,,200.9472,202.5002,202.5003,203.5469,return,0.0758,,28.125,0,52,52,5,1,FBP-YG-81.png,0.35,1.2,6,0.75,,,,,,,,,,,,,,,,,,,,,,,,,,,,,,,,,,,,,,,,,,,,,
,,,,,V3_037,20,female,2024-10-26_11h39.49.190,jersey_experiment_5_v3,2023.2.2,Win32,85.47008547,,,,,,,,,,,,,,,,203.5472,205.1001,205.1001,205.7942,return,0.1533,,79.55729167,0,53,53,24,1,FBP-PT-18.png,0.45,1.2,25,0.75,,,,,,,,,,,,,,,,,,,,,,,,,,,,,,,,,,,,,,,,,,,,,
,,,,,V3_037,20,female,2024-10-26_11h39.49.190,jersey_experiment_5_v3,2023.2.2,Win32,85.47008547,,,,,,,,,,,,,,,,205.7945,207.3472,207.3473,207.9823,return,0.0399,,77.734375,0,54,54,54,1,FBP-RB-18.png,0.45,1.2,55,0.75,,,,,,,,,,,,,,,,,,,,,,,,,,,,,,,,,,,,,,,,,,,,,
,,,,,V3_037,20,female,2024-10-26_11h39.49.190,jersey_experiment_5_v3,2023.2.2,Win32,85.47008547,,,,,,,,,,,,,,,,207.9826,209.5354,209.5355,211.2648,return,1.0254,,36.19791667,0,55,55,15,1,FBP-PT-17.png,0.35,1.2,16,0.75,,,,,,,,,,,,,,,,,,,,,,,,,,,,,,,,,,,,,,,,,,,,,
,,,,,V3_037,20,female,2024-10-26_11h39.49.190,jersey_experiment_5_v3,2023.2.2,Win32,85.47008547,,,,,,,,,,,,,,,,211.2651,212.8179,212.8179,213.3238,return,0.1948,,36.84895833,0,56,56,11,1,FBP-YG-91.png,0.37,1.2,12,0.75,,,,,,,,,,,,,,,,,,,,,,,,,,,,,,,,,,,,,,,,,,,,,
,,,,,V3_037,20,female,2024-10-26_11h39.49.190,jersey_experiment_5_v3,2023.2.2,Win32,85.47008547,,,,,,,,,,,,,,,,213.3243,214.877,214.877,215.4885,return,0.1806,,65.49479167,0,57,57,8,1,FBP-YG-81.png,0.43,1.2,9,0.75,,,,,,,,,,,,,,,,,,,,,,,,,,,,,,,,,,,,,,,,,,,,,
,,,,,V3_037,20,female,2024-10-26_11h39.49.190,jersey_experiment_5_v3,2023.2.2,Win32,85.47008547,,,,,,,,,,,,,,,,215.4888,217.0416,217.0417,217.7004,return,0.2121,,75.52083333,0,58,58,19,1,FBP-PT-17.png,0.45,1.2,20,0.75,,,,,,,,,,,,,,,,,,,,,,,,,,,,,,,,,,,,,,,,,,,,,
,,,,,V3_037,20,female,2024-10-26_11h39.49.190,jersey_experiment_5_v3,2023.2.2,Win32,85.47008547,,,,,,,,,,,,,,,,217.7006,219.2536,219.2536,219.9475,return,0.0173,,50.13020833,0,59,59,51,1,FBP-RB-18.png,0.37,1.2,52,0.75,,,,,,,,,,,,,,,,,,,,,,,,,,,,,,,,,,,,,,,,,,,,,
,,,,,V3_037,20,female,2024-10-26_11h39.49.190,jersey_experiment_5_v3,2023.2.2,Win32,85.47008547,,,,,,,,,,,,,,,,219.9494,221.5007,221.5007,221.9359,return,0.0241,,61.19791667,,,,,,FBP-RB-81.png,0.43,1.2,54,0.75,0,0,0,53,1,,,,,,,,,,,,,,,,,,,,,,,,,,,,,,,,,,,,,,,,
,,,,,V3_037,20,female,2024-10-26_11h39.49.190,jersey_experiment_5_v3,2023.2.2,Win32,85.47008547,,,,,,,,,,,,,,,,221.9362,223.4888,223.4889,224.9595,return,1.0009,,69.140625,,,,,,FBP-RB-91.png,0.43,1.2,59,0.75,0,1,1,58,1,,,,,,,,,,,,,,,,,,,,,,,,,,,,,,,,,,,,,,,,
,,,,,V3_037,20,female,2024-10-26_11h39.49.190,jersey_experiment_5_v3,2023.2.2,Win32,85.47008547,,,,,,,,,,,,,,,,224.9597,226.5125,226.5125,227.4772,return,0.1262,,53.515625,,,,,,FBP-YG-18.png,0.4,1.2,8,0.75,0,2,2,7,1,,,,,,,,,,,,,,,,,,,,,,,,,,,,,,,,,,,,,,,,
,,,,,V3_037,20,female,2024-10-26_11h39.49.190,jersey_experiment_5_v3,2023.2.2,Win32,85.47008547,,,,,,,,,,,,,,,,227.4774,229.0303,229.0303,229.5007,return,0.0292,,70.05208333,,,,,,FBP-YG-19.png,0.43,1.2,14,0.75,0,3,3,13,1,,,,,,,,,,,,,,,,,,,,,,,,,,,,,,,,,,,,,,,,
,,,,,V3_037,20,female,2024-10-26_11h39.49.190,jersey_experiment_5_v3,2023.2.2,Win32,85.47008547,,,,,,,,,,,,,,,,229.501,231.0539,231.054,231.5362,return,0.1099,,80.33854167,,,,,,FBP-PT-71.png,0.45,1.2,20,0.75,0,4,4,19,1,,,,,,,,,,,,,,,,,,,,,,,,,,,,,,,,,,,,,,,,
,,,,,V3_037,20,female,2024-10-26_11h39.49.190,jersey_experiment_5_v3,2023.2.2,Win32,85.47008547,,,,,,,,,,,,,,,,231.5364,232.8304,232.8305,234.2773,return,0.2669,,49.08854167,,,,,,FBP-OG-71.png,0.4,1.2,33,0.5,0,5,5,32,1,,,,,,,,,,,,,,,,,,,,,,,,,,,,,,,,,,,,,,,,
,,,,,V3_037,20,female,2024-10-26_11h39.49.190,jersey_experiment_5_v3,2023.2.2,Win32,85.47008547,,,,,,,,,,,,,,,,234.2775,235.5716,235.5717,239.2188,return,1.4589,,39.19270833,,,,,,FBP-OG-91.png,0.37,1.2,42,0.5,0,6,6,41,1,,,,,,,,,,,,,,,,,,,,,,,,,,,,,,,,,,,,,,,,
,,,,,V3_037,20,female,2024-10-26_11h39.49.190,jersey_experiment_5_v3,2023.2.2,Win32,85.47008547,,,,,,,,,,,,,,,,239.219,240.7719,240.772,242.513,return,0.2608,,52.734375,,,,,,FBP-RB-71.png,0.43,1.2,49,0.75,0,7,7,48,1,,,,,,,,,,,,,,,,,,,,,,,,,,,,,,,,,,,,,,,,
,,,,,V3_037,20,female,2024-10-26_11h39.49.190,jersey_experiment_5_v3,2023.2.2,Win32,85.47008547,,,,,,,,,,,,,,,,242.5132,244.0661,244.0662,244.6543,return,0.0121,,12.63020833,,,,,,FBP-YG-18.png,0.35,1.2,6,0.75,0,8,8,5,1,,,,,,,,,,,,,,,,,,,,,,,,,,,,,,,,,,,,,,,,
,,,,,V3_037,20,female,2024-10-26_11h39.49.190,jersey_experiment_5_v3,2023.2.2,Win32,85.47008547,,,,,,,,,,,,,,,,244.6545,245.9485,245.9485,247.619,return,0.7374,,50.390625,,,,,,FBP-OG-91.png,0.43,1.2,44,0.5,0,9,9,43,1,,,,,,,,,,,,,,,,,,,,,,,,,,,,,,,,,,,,,,,,
,,,,,V3_037,20,female,2024-10-26_11h39.49.190,jersey_experiment_5_v3,2023.2.2,Win32,85.47008547,,,,,,,,,,,,,,,,247.6193,249.1722,249.1722,249.8428,return,0.0614,,29.42708333,,,,,,FBP-RB-81.png,0.35,1.2,51,0.75,0,10,10,50,1,,,,,,,,,,,,,,,,,,,,,,,,,,,,,,,,,,,,,,,,
,,,,,V3_037,20,female,2024-10-26_11h39.49.190,jersey_experiment_5_v3,2023.2.2,Win32,85.47008547,,,,,,,,,,,,,,,,249.843,251.1369,251.137,252.1251,return,0.3806,,64.0625,,,,,,FBP-OG-71.png,0.43,1.2,34,0.5,0,11,11,33,1,,,,,,,,,,,,,,,,,,,,,,,,,,,,,,,,,,,,,,,,
,,,,,V3_037,20,female,2024-10-26_11h39.49.190,jersey_experiment_5_v3,2023.2.2,Win32,85.47008547,,,,,,,,,,,,,,,,252.1254,253.6782,253.6782,254.5135,return,0.482,,62.109375,,,,,,FBP-PT-81.png,0.43,1.2,24,0.75,0,12,12,23,1,,,,,,,,,,,,,,,,,,,,,,,,,,,,,,,,,,,,,,,,
,,,,,V3_037,20,female,2024-10-26_11h39.49.190,jersey_experiment_5_v3,2023.2.2,Win32,85.47008547,,,,,,,,,,,,,,,,254.5137,256.0664,256.0664,257.2783,return,0.0497,,62.76041667,,,,,,FBP-RB-91.png,0.37,1.2,57,0.75,0,13,13,56,1,,,,,,,,,,,,,,,,,,,,,,,,,,,,,,,,,,,,,,,,
,,,,,V3_037,20,female,2024-10-26_11h39.49.190,jersey_experiment_5_v3,2023.2.2,Win32,85.47008547,,,,,,,,,,,,,,,,257.2785,258.8314,258.8315,259.4548,return,0.0739,,51.30208333,,,,,,FBP-RB-71.png,0.37,1.2,47,0.75,0,14,14,46,1,,,,,,,,,,,,,,,,,,,,,,,,,,,,,,,,,,,,,,,,
,,,,,V3_037,20,female,2024-10-26_11h39.49.190,jersey_experiment_5_v3,2023.2.2,Win32,85.47008547,,,,,,,,,,,,,,,,259.4551,260.749,260.749,261.5255,return,0.1652,,41.66666667,,,,,,FBP-OG-81.png,0.35,1.2,36,0.5,0,15,15,35,1,,,,,,,,,,,,,,,,,,,,,,,,,,,,,,,,,,,,,,,,
,,,,,V3_037,20,female,2024-10-26_11h39.49.190,jersey_experiment_5_v3,2023.2.2,Win32,85.47008547,,,,,,,,,,,,,,,,261.5257,263.0785,263.0785,263.7491,return,0.0481,,58.46354167,,,,,,FBP-RB-71.png,0.4,1.2,48,0.75,0,16,16,47,1,,,,,,,,,,,,,,,,,,,,,,,,,,,,,,,,,,,,,,,,
,,,,,V3_037,20,female,2024-10-26_11h39.49.190,jersey_experiment_5_v3,2023.2.2,Win32,85.47008547,,,,,,,,,,,,,,,,263.7493,265.3021,265.3021,265.9021,return,0.2402,,57.94270833,,,,,,FBP-YG-19.png,0.4,1.2,13,0.75,0,17,17,12,1,,,,,,,,,,,,,,,,,,,,,,,,,,,,,,,,,,,,,,,,
,,,,,V3_037,20,female,2024-10-26_11h39.49.190,jersey_experiment_5_v3,2023.2.2,Win32,85.47008547,,,,,,,,,,,,,,,,265.9024,267.4552,267.4552,268.1727,return,0.076,,71.22395833,,,,,,FBP-YG-19.png,0.45,1.2,15,0.75,0,18,18,14,1,,,,,,,,,,,,,,,,,,,,,,,,,,,,,,,,,,,,,,,,
,,,,,V3_037,20,female,2024-10-26_11h39.49.190,jersey_experiment_5_v3,2023.2.2,Win32,85.47008547,,,,,,,,,,,,,,,,268.1729,269.7257,269.7258,270.1493,return,0.0366,,71.22395833,,,,,,FBP-RB-91.png,0.45,1.2,60,0.75,0,19,19,59,1,,,,,,,,,,,,,,,,,,,,,,,,,,,,,,,,,,,,,,,,
,,,,,V3_037,20,female,2024-10-26_11h39.49.190,jersey_experiment_5_v3,2023.2.2,Win32,85.47008547,,,,,,,,,,,,,,,,270.1496,271.4435,271.4435,272.1141,return,0.1025,,41.015625,,,,,,FBP-OG-91.png,0.35,1.2,41,0.5,0,20,20,40,1,,,,,,,,,,,,,,,,,,,,,,,,,,,,,,,,,,,,,,,,
,,,,,V3_037,20,female,2024-10-26_11h39.49.190,jersey_experiment_5_v3,2023.2.2,Win32,85.47008547,,,,,,,,,,,,,,,,272.1143,273.6671,273.6671,274.8435,return,0.2425,,36.328125,,,,,,FBP-RB-71.png,0.35,1.2,46,0.75,0,21,21,45,1,,,,,,,,,,,,,,,,,,,,,,,,,,,,,,,,,,,,,,,,
,,,,,V3_037,20,female,2024-10-26_11h39.49.190,jersey_experiment_5_v3,2023.2.2,Win32,85.47008547,,,,,,,,,,,,,,,,274.8438,276.3967,276.3968,276.8789,return,0.049,,70.3125,,,,,,FBP-PT-81.png,0.45,1.2,25,0.75,0,22,22,24,1,,,,,,,,,,,,,,,,,,,,,,,,,,,,,,,,,,,,,,,,
,,,,,V3_037,20,female,2024-10-26_11h39.49.190,jersey_experiment_5_v3,2023.2.2,Win32,85.47008547,,,,,,,,,,,,,,,,276.8792,278.432,278.432,278.9262,return,0.0165,,70.18229167,,,,,,FBP-PT-91.png,0.4,1.2,28,0.75,0,23,23,27,1,,,,,,,,,,,,,,,,,,,,,,,,,,,,,,,,,,,,,,,,
,,,,,V3_037,20,female,2024-10-26_11h39.49.190,jersey_experiment_5_v3,2023.2.2,Win32,85.47008547,,,,,,,,,,,,,,,,278.9264,280.4792,280.4792,281.4084,return,0.0728,,80.46875,,,,,,FBP-RB-81.png,0.45,1.2,55,0.75,0,24,24,54,1,,,,,,,,,,,,,,,,,,,,,,,,,,,,,,,,,,,,,,,,
,,,,,V3_037,20,female,2024-10-26_11h39.49.190,jersey_experiment_5_v3,2023.2.2,Win32,85.47008547,,,,,,,,,,,,,,,,281.4088,282.9617,282.9617,284.291,return,0.0729,,85.15625,,,,,,FBP-PT-91.png,0.45,1.2,30,0.75,0,25,25,29,1,,,,,,,,,,,,,,,,,,,,,,,,,,,,,,,,,,,,,,,,
,,,,,V3_037,20,female,2024-10-26_11h39.49.190,jersey_experiment_5_v3,2023.2.2,Win32,85.47008547,,,,,,,,,,,,,,,,284.2912,285.844,285.8441,286.8205,return,0.0709,,31.77083333,,,,,,FBP-YG-17.png,0.35,1.2,1,0.75,0,26,26,0,1,,,,,,,,,,,,,,,,,,,,,,,,,,,,,,,,,,,,,,,,
,,,,,V3_037,20,female,2024-10-26_11h39.49.190,jersey_experiment_5_v3,2023.2.2,Win32,85.47008547,,,,,,,,,,,,,,,,286.8208,288.1147,288.1147,288.6088,return,0.057,,33.33333333,,,,,,FBP-OG-71.png,0.37,1.2,32,0.5,0,27,27,31,1,,,,,,,,,,,,,,,,,,,,,,,,,,,,,,,,,,,,,,,,
,,,,,V3_037,20,female,2024-10-26_11h39.49.190,jersey_experiment_5_v3,2023.2.2,Win32,85.47008547,,,,,,,,,,,,,,,,288.6091,290.1618,290.1618,290.7971,return,0.0053,,37.890625,,,,,,FBP-PT-81.png,0.37,1.2,22,0.75,0,28,28,21,1,,,,,,,,,,,,,,,,,,,,,,,,,,,,,,,,,,,,,,,,
,,,,,V3_037,20,female,2024-10-26_11h39.49.190,jersey_experiment_5_v3,2023.2.2,Win32,85.47008547,,,,,,,,,,,,,,,,290.7974,292.3503,292.3504,293.2677,return,0.0556,,37.76041667,,,,,,FBP-YG-19.png,0.35,1.2,11,0.75,0,29,29,10,1,,,,,,,,,,,,,,,,,,,,,,,,,,,,,,,,,,,,,,,,
,,,,,V3_037,20,female,2024-10-26_11h39.49.190,jersey_experiment_5_v3,2023.2.2,Win32,85.47008547,,,,,,,,,,,,,,,,293.268,294.5619,294.5619,295.456,return,0.4262,,37.76041667,,,,,,FBP-OG-81.png,0.37,1.2,37,0.5,0,30,30,36,1,,,,,,,,,,,,,,,,,,,,,,,,,,,,,,,,,,,,,,,,
,,,,,V3_037,20,female,2024-10-26_11h39.49.190,jersey_experiment_5_v3,2023.2.2,Win32,85.47008547,,,,,,,,,,,,,,,,295.4563,297.0091,297.0091,297.5502,return,0.1219,,37.76041667,,,,,,FBP-YG-19.png,0.37,1.2,12,0.75,0,31,31,11,1,,,,,,,,,,,,,,,,,,,,,,,,,,,,,,,,,,,,,,,,
,,,,,V3_037,20,female,2024-10-26_11h39.49.190,jersey_experiment_5_v3,2023.2.2,Win32,85.47008547,,,,,,,,,,,,,,,,297.5505,299.0916,299.0916,299.9386,return,0.0839,,74.47916667,,,,,,FBP-RB-71.png,0.45,1.2,50,0.75,0,32,32,49,1,,,,,,,,,,,,,,,,,,,,,,,,,,,,,,,,,,,,,,,,
,,,,,V3_037,20,female,2024-10-26_11h39.49.190,jersey_experiment_5_v3,2023.2.2,Win32,85.47008547,,,,,,,,,,,,,,,,299.9389,301.4916,301.4916,302.1152,return,0.1982,,57.29166667,,,,,,FBP-YG-18.png,0.37,1.2,7,0.75,0,33,33,6,1,,,,,,,,,,,,,,,,,,,,,,,,,,,,,,,,,,,,,,,,
,,,,,V3_037,20,female,2024-10-26_11h39.49.190,jersey_experiment_5_v3,2023.2.2,Win32,85.47008547,,,,,,,,,,,,,,,,302.1154,303.6682,303.6684,304.1976,return,0.0629,,72.78645833,,,,,,FBP-YG-18.png,0.43,1.2,9,0.75,0,34,34,8,1,,,,,,,,,,,,,,,,,,,,,,,,,,,,,,,,,,,,,,,,
,,,,,V3_037,20,female,2024-10-26_11h39.49.190,jersey_experiment_5_v3,2023.2.2,Win32,85.47008547,,,,,,,,,,,,,,,,304.1979,305.4918,305.4918,306.1389,return,0.0154,,72.65625,,,,,,FBP-OG-81.png,0.4,1.2,38,0.5,0,35,35,37,1,,,,,,,,,,,,,,,,,,,,,,,,,,,,,,,,,,,,,,,,
,,,,,V3_037,20,female,2024-10-26_11h39.49.190,jersey_experiment_5_v3,2023.2.2,Win32,85.47008547,,,,,,,,,,,,,,,,306.1392,307.6919,307.692,308.2449,return,0.0729,,87.23958333,,,,,,FBP-YG-18.png,0.45,1.2,10,0.75,0,36,36,9,1,,,,,,,,,,,,,,,,,,,,,,,,,,,,,,,,,,,,,,,,
,,,,,V3_037,20,female,2024-10-26_11h39.49.190,jersey_experiment_5_v3,2023.2.2,Win32,85.47008547,,,,,,,,,,,,,,,,308.245,309.7977,309.7978,310.2567,return,0.0492,,87.23958333,,,,,,FBP-PT-71.png,0.43,1.2,19,0.75,0,37,37,18,1,,,,,,,,,,,,,,,,,,,,,,,,,,,,,,,,,,,,,,,,
,,,,,V3_037,20,female,2024-10-26_11h39.49.190,jersey_experiment_5_v3,2023.2.2,Win32,85.47008547,,,,,,,,,,,,,,,,310.2571,311.8097,311.8098,313.045,return,0.4936,,45.96354167,,,,,,FBP-PT-71.png,0.35,1.2,16,0.75,0,38,38,15,1,,,,,,,,,,,,,,,,,,,,,,,,,,,,,,,,,,,,,,,,
,,,,,V3_037,20,female,2024-10-26_11h39.49.190,jersey_experiment_5_v3,2023.2.2,Win32,85.47008547,,,,,,,,,,,,,,,,313.0452,314.5981,314.5982,316.2687,return,1.1942,,67.31770833,,,,,,FBP-PT-91.png,0.43,1.2,29,0.75,0,39,39,28,1,,,,,,,,,,,,,,,,,,,,,,,,,,,,,,,,,,,,,,,,
,,,,,V3_037,20,female,2024-10-26_11h39.49.190,jersey_experiment_5_v3,2023.2.2,Win32,85.47008547,,,,,,,,,,,,,,,,316.2689,317.8218,317.8218,318.6454,return,0.1798,,27.34375,,,,,,FBP-RB-91.png,0.35,1.2,56,0.75,0,40,40,55,1,,,,,,,,,,,,,,,,,,,,,,,,,,,,,,,,,,,,,,,,
,,,,,V3_037,20,female,2024-10-26_11h39.49.190,jersey_experiment_5_v3,2023.2.2,Win32,85.47008547,,,,,,,,,,,,,,,,318.6457,319.9395,319.9395,320.5746,return,0.0008,,74.86979167,,,,,,FBP-OG-81.png,0.45,1.2,40,0.5,0,41,41,39,1,,,,,,,,,,,,,,,,,,,,,,,,,,,,,,,,,,,,,,,,
,,,,,V3_037,20,female,2024-10-26_11h39.49.190,jersey_experiment_5_v3,2023.2.2,Win32,85.47008547,,,,,,,,,,,,,,,,320.5748,322.1276,322.1277,323.9631,return,0.0901,,45.18229167,,,,,,FBP-PT-81.png,0.35,1.2,21,0.75,0,42,42,20,1,,,,,,,,,,,,,,,,,,,,,,,,,,,,,,,,,,,,,,,,
,,,,,V3_037,20,female,2024-10-26_11h39.49.190,jersey_experiment_5_v3,2023.2.2,Win32,85.47008547,,,,,,,,,,,,,,,,323.9633,325.5162,325.5162,326.3984,return,0.4984,,49.47916667,,,,,,FBP-YG-17.png,0.4,1.2,3,0.75,0,43,43,2,1,,,,,,,,,,,,,,,,,,,,,,,,,,,,,,,,,,,,,,,,
,,,,,V3_037,20,female,2024-10-26_11h39.49.190,jersey_experiment_5_v3,2023.2.2,Win32,85.47008547,,,,,,,,,,,,,,,,326.3987,327.9516,327.9516,328.7985,return,0.0515,,75.65104167,,,,,,FBP-YG-17.png,0.43,1.2,4,0.75,0,44,44,3,1,,,,,,,,,,,,,,,,,,,,,,,,,,,,,,,,,,,,,,,,
,,,,,V3_037,20,female,2024-10-26_11h39.49.190,jersey_experiment_5_v3,2023.2.2,Win32,85.47008547,,,,,,,,,,,,,,,,328.7987,330.34,330.34,331.5633,return,0.0662,,64.19270833,,,,,,FBP-RB-81.png,0.37,1.2,52,0.75,0,45,45,51,1,,,,,,,,,,,,,,,,,,,,,,,,,,,,,,,,,,,,,,,,
,,,,,V3_037,20,female,2024-10-26_11h39.49.190,jersey_experiment_5_v3,2023.2.2,Win32,85.47008547,,,,,,,,,,,,,,,,331.5636,333.1164,333.1165,333.6694,return,0.0313,,54.55729167,,,,,,FBP-PT-81.png,0.4,1.2,23,0.75,0,46,46,22,1,,,,,,,,,,,,,,,,,,,,,,,,,,,,,,,,,,,,,,,,
,,,,,V3_037,20,female,2024-10-26_11h39.49.190,jersey_experiment_5_v3,2023.2.2,Win32,85.47008547,,,,,,,,,,,,,,,,333.6696,334.9634,334.9635,336.1634,return,0.0004,,37.890625,,,,,,FBP-OG-71.png,0.35,1.2,31,0.5,0,47,47,30,1,,,,,,,,,,,,,,,,,,,,,,,,,,,,,,,,,,,,,,,,
,,,,,V3_037,20,female,2024-10-26_11h39.49.190,jersey_experiment_5_v3,2023.2.2,Win32,85.47008547,,,,,,,,,,,,,,,,336.1637,337.4577,337.4577,338.293,return,0.061,,75.91145833,,,,,,FBP-OG-91.png,0.45,1.2,45,0.5,0,48,48,44,1,,,,,,,,,,,,,,,,,,,,,,,,,,,,,,,,,,,,,,,,
,,,,,V3_037,20,female,2024-10-26_11h39.49.190,jersey_experiment_5_v3,2023.2.2,Win32,85.47008547,,,,,,,,,,,,,,,,338.2934,339.8461,339.8461,341.0931,return,0.5411,,74.47916667,,,,,,FBP-RB-91.png,0.4,1.2,58,0.75,0,49,49,57,1,,,,,,,,,,,,,,,,,,,,,,,,,,,,,,,,,,,,,,,,
,,,,,V3_037,20,female,2024-10-26_11h39.49.190,jersey_experiment_5_v3,2023.2.2,Win32,85.47008547,,,,,,,,,,,,,,,,341.0933,342.3871,342.3871,343.0107,return,0.2118,,75.390625,,,,,,FBP-OG-71.png,0.45,1.2,35,0.5,0,50,50,34,1,,,,,,,,,,,,,,,,,,,,,,,,,,,,,,,,,,,,,,,,
,,,,,V3_037,20,female,2024-10-26_11h39.49.190,jersey_experiment_5_v3,2023.2.2,Win32,85.47008547,,,,,,,,,,,,,,,,343.0109,344.3049,344.305,344.9284,return,0.0471,,80.98958333,,,,,,FBP-OG-81.png,0.43,1.2,39,0.5,0,51,51,38,1,,,,,,,,,,,,,,,,,,,,,,,,,,,,,,,,,,,,,,,,
,,,,,V3_037,20,female,2024-10-26_11h39.49.190,jersey_experiment_5_v3,2023.2.2,Win32,85.47008547,,,,,,,,,,,,,,,,344.9286,346.4815,346.4815,347.152,return,0.011,,70.3125,,,,,,FBP-PT-71.png,0.4,1.2,18,0.75,0,52,52,17,1,,,,,,,,,,,,,,,,,,,,,,,,,,,,,,,,,,,,,,,,
,,,,,V3_037,20,female,2024-10-26_11h39.49.190,jersey_experiment_5_v3,2023.2.2,Win32,85.47008547,,,,,,,,,,,,,,,,347.1522,348.6935,348.6936,349.1168,return,0.0498,,81.77083333,,,,,,FBP-YG-17.png,0.45,1.2,5,0.75,0,53,53,4,1,,,,,,,,,,,,,,,,,,,,,,,,,,,,,,,,,,,,,,,,
,,,,,V3_037,20,female,2024-10-26_11h39.49.190,jersey_experiment_5_v3,2023.2.2,Win32,85.47008547,,,,,,,,,,,,,,,,349.1171,350.6701,350.6701,351.2817,return,0.0153,,61.19791667,,,,,,FBP-PT-71.png,0.37,1.2,17,0.75,0,54,54,16,1,,,,,,,,,,,,,,,,,,,,,,,,,,,,,,,,,,,,,,,,
,,,,,V3_037,20,female,2024-10-26_11h39.49.190,jersey_experiment_5_v3,2023.2.2,Win32,85.47008547,,,,,,,,,,,,,,,,351.282,352.8347,352.8347,353.9993,return,0.108,,48.046875,,,,,,FBP-PT-91.png,0.35,1.2,26,0.75,0,55,55,25,1,,,,,,,,,,,,,,,,,,,,,,,,,,,,,,,,,,,,,,,,
,,,,,V3_037,20,female,2024-10-26_11h39.49.190,jersey_experiment_5_v3,2023.2.2,Win32,85.47008547,,,,,,,,,,,,,,,,353.9996,355.5526,355.5526,356.0582,return,0.0909,,64.71354167,,,,,,FBP-RB-81.png,0.4,1.2,53,0.75,0,56,56,52,1,,,,,,,,,,,,,,,,,,,,,,,,,,,,,,,,,,,,,,,,
,,,,,V3_037,20,female,2024-10-26_11h39.49.190,jersey_experiment_5_v3,2023.2.2,Win32,85.47008547,,,,,,,,,,,,,,,,356.0585,357.3525,357.3525,358.1172,return,0.0241,,66.14583333,,,,,,FBP-OG-91.png,0.4,1.2,43,0.5,0,57,57,42,1,,,,,,,,,,,,,,,,,,,,,,,,,,,,,,,,,,,,,,,,
,,,,,V3_037,20,female,2024-10-26_11h39.49.190,jersey_experiment_5_v3,2023.2.2,Win32,85.47008547,,,,,,,,,,,,,,,,358.1174,359.6702,359.6702,360.0819,return,0.0372,,66.14583333,,,,,,FBP-YG-17.png,0.37,1.2,2,0.75,0,58,58,1,1,,,,,,,,,,,,,,,,,,,,,,,,,,,,,,,,,,,,,,,,
,,,,,V3_037,20,female,2024-10-26_11h39.49.190,jersey_experiment_5_v3,2023.2.2,Win32,85.47008547,,,,,,,,,,,,,,,,360.0822,361.6349,361.6349,362.5643,return,0.3062,,66.14583333,,,,,,FBP-PT-91.png,0.37,1.2,27,0.75,0,59,59,26,1,,,,,,,,,,,,,,,,,,,,,,,,,,,,,,,,,,,,,,,,
,,,,,V3_037,20,female,2024-10-26_11h39.49.190,jersey_experiment_5_v3,2023.2.2,Win32,85.47008547,,,,,,,,,,,,,,,,,,,,,,,,,,,,,,,,,,,,,,,362.5645,482.5573,,,,,,,,,,,,,,,,,,,,,,,,,,,,,,,,,,,,,,
,,,,,V3_037,20,female,2024-10-26_11h39.49.190,jersey_experiment_5_v3,2023.2.2,Win32,85.47008547,,,,,,,,,,,,,,,,,,,,,,,,,,,,,,,,,,,,,,,,,482.5574,487.5221,return,4.9555,,,,,,,,,,,,,,,,,,,,,,,,,,,,,,,,,,
,,,,,V3_037,20,female,2024-10-26_11h39.49.190,jersey_experiment_5_v3,2023.2.2,Win32,85.47008547,,,,,,,,,,,,,,,,487.5232,488.816,488.8161,491.0397,return,0.6721,,39.97395833,,,,,,FBP-RB-17.png,0.35,1.2,46,0.5,,,,,,,,,,,,,0,0,0,45,1,,,,,,,,,,,,,,,,,,,,,,,,,,,,
,,,,,V3_037,20,female,2024-10-26_11h39.49.190,jersey_experiment_5_v3,2023.2.2,Win32,85.47008547,,,,,,,,,,,,,,,,491.04,492.3339,492.3339,493.1692,return,0.4612,,56.25,,,,,,FBP-RB-19.png,0.4,1.2,58,0.5,,,,,,,,,,,,,0,1,1,57,1,,,,,,,,,,,,,,,,,,,,,,,,,,,,
,,,,,V3_037,20,female,2024-10-26_11h39.49.190,jersey_experiment_5_v3,2023.2.2,Win32,85.47008547,,,,,,,,,,,,,,,,493.1695,494.4635,494.4636,494.981,return,0.1195,,49.47916667,,,,,,FBP-YG-71.png,0.35,1.2,1,0.5,,,,,,,,,,,,,0,2,2,0,1,,,,,,,,,,,,,,,,,,,,,,,,,,,,
,,,,,V3_037,20,female,2024-10-26_11h39.49.190,jersey_experiment_5_v3,2023.2.2,Win32,85.47008547,,,,,,,,,,,,,,,,494.9811,496.2754,496.2754,496.7811,return,0.0998,,65.75520833,,,,,,FBP-RB-17.png,0.43,1.2,49,0.5,,,,,,,,,,,,,0,3,3,48,1,,,,,,,,,,,,,,,,,,,,,,,,,,,,
,,,,,V3_037,20,female,2024-10-26_11h39.49.190,jersey_experiment_5_v3,2023.2.2,Win32,85.47008547,,,,,,,,,,,,,,,,496.7814,498.0754,498.0755,498.5811,return,0.0484,,45.3125,,,,,,FBP-RB-18.png,0.35,1.2,51,0.5,,,,,,,,,,,,,0,4,4,50,1,,,,,,,,,,,,,,,,,,,,,,,,,,,,
,,,,,V3_037,20,female,2024-10-26_11h39.49.190,jersey_experiment_5_v3,2023.2.2,Win32,85.47008547,,,,,,,,,,,,,,,,498.5813,500.1225,500.1226,500.6872,return,0.192,,88.80208333,,,,,,FBP-OG-17.png,0.45,1.2,35,0.75,,,,,,,,,,,,,0,5,5,34,1,,,,,,,,,,,,,,,,,,,,,,,,,,,,
,,,,,V3_037,20,female,2024-10-26_11h39.49.190,jersey_experiment_5_v3,2023.2.2,Win32,85.47008547,,,,,,,,,,,,,,,,500.6874,501.9813,501.9814,502.8754,return,0.416,,90.625,,,,,,FBP-RB-18.png,0.45,1.2,55,0.5,,,,,,,,,,,,,0,6,6,54,1,,,,,,,,,,,,,,,,,,,,,,,,,,,,
,,,,,V3_037,20,female,2024-10-26_11h39.49.190,jersey_experiment_5_v3,2023.2.2,Win32,85.47008547,,,,,,,,,,,,,,,,502.8756,504.1695,504.1696,504.9107,return,0.1098,,51.04166667,,,,,,FBP-YG-81.png,0.37,1.2,7,0.5,,,,,,,,,,,,,0,7,7,6,1,,,,,,,,,,,,,,,,,,,,,,,,,,,,
,,,,,V3_037,20,female,2024-10-26_11h39.49.190,jersey_experiment_5_v3,2023.2.2,Win32,85.47008547,,,,,,,,,,,,,,,,504.911,506.4639,506.4639,506.9815,return,0.1331,,60.546875,,,,,,FBP-OG-17.png,0.37,1.2,32,0.75,,,,,,,,,,,,,0,8,8,31,1,,,,,,,,,,,,,,,,,,,,,,,,,,,,
,,,,,V3_037,20,female,2024-10-26_11h39.49.190,jersey_experiment_5_v3,2023.2.2,Win32,85.47008547,,,,,,,,,,,,,,,,506.9817,508.2756,508.2756,508.7345,return,0.0833,,61.58854167,,,,,,FBP-PT-18.png,0.37,1.2,22,0.5,,,,,,,,,,,,,0,9,9,21,1,,,,,,,,,,,,,,,,,,,,,,,,,,,,
,,,,,V3_037,20,female,2024-10-26_11h39.49.190,jersey_experiment_5_v3,2023.2.2,Win32,85.47008547,,,,,,,,,,,,,,,,508.7348,510.0285,510.0285,510.5462,return,0.0708,,73.30729167,,,,,,FBP-YG-91.png,0.45,1.2,15,0.5,,,,,,,,,,,,,0,10,10,14,1,,,,,,,,,,,,,,,,,,,,,,,,,,,,
,,,,,V3_037,20,female,2024-10-26_11h39.49.190,jersey_experiment_5_v3,2023.2.2,Win32,85.47008547,,,,,,,,,,,,,,,,510.5465,511.8404,511.8405,512.4053,return,0.1971,,73.30729167,,,,,,FBP-PT-17.png,0.45,1.2,20,0.5,,,,,,,,,,,,,0,11,11,19,1,,,,,,,,,,,,,,,,,,,,,,,,,,,,
,,,,,V3_037,20,female,2024-10-26_11h39.49.190,jersey_experiment_5_v3,2023.2.2,Win32,85.47008547,,,,,,,,,,,,,,,,512.4054,513.6993,513.6993,514.2288,return,0.0703,,73.30729167,,,,,,FBP-PT-17.png,0.43,1.2,19,0.5,,,,,,,,,,,,,0,12,12,18,1,,,,,,,,,,,,,,,,,,,,,,,,,,,,
,,,,,V3_037,20,female,2024-10-26_11h39.49.190,jersey_experiment_5_v3,2023.2.2,Win32,85.47008547,,,,,,,,,,,,,,,,514.2291,515.5229,515.523,516.2995,return,0.1923,,61.19791667,,,,,,FBP-YG-91.png,0.37,1.2,12,0.5,,,,,,,,,,,,,0,13,13,11,1,,,,,,,,,,,,,,,,,,,,,,,,,,,,
,,,,,V3_037,20,female,2024-10-26_11h39.49.190,jersey_experiment_5_v3,2023.2.2,Win32,85.47008547,,,,,,,,,,,,,,,,516.2997,517.5936,517.5937,518.0172,return,0.0609,,60.80729167,,,,,,FBP-RB-18.png,0.37,1.2,52,0.5,,,,,,,,,,,,,0,14,14,51,1,,,,,,,,,,,,,,,,,,,,,,,,,,,,
,,,,,V3_037,20,female,2024-10-26_11h39.49.190,jersey_experiment_5_v3,2023.2.2,Win32,85.47008547,,,,,,,,,,,,,,,,518.0174,519.5702,519.5702,519.9937,return,0.0206,,72.52604167,,,,,,FBP-OG-17.png,0.43,1.2,34,0.75,,,,,,,,,,,,,0,15,15,33,1,,,,,,,,,,,,,,,,,,,,,,,,,,,,
,,,,,V3_037,20,female,2024-10-26_11h39.49.190,jersey_experiment_5_v3,2023.2.2,Win32,85.47008547,,,,,,,,,,,,,,,,519.9939,521.2879,521.2879,521.6761,return,0.0383,,72.52604167,,,,,,FBP-RB-18.png,0.4,1.2,53,0.5,,,,,,,,,,,,,0,16,16,52,1,,,,,,,,,,,,,,,,,,,,,,,,,,,,
,,,,,V3_037,20,female,2024-10-26_11h39.49.190,jersey_experiment_5_v3,2023.2.2,Win32,85.47008547,,,,,,,,,,,,,,,,521.6763,522.9703,522.9703,523.8996,return,0.453,,83.59375,,,,,,FBP-PT-18.png,0.45,1.2,25,0.5,,,,,,,,,,,,,0,17,17,24,1,,,,,,,,,,,,,,,,,,,,,,,,,,,,
,,,,,V3_037,20,female,2024-10-26_11h39.49.190,jersey_experiment_5_v3,2023.2.2,Win32,85.47008547,,,,,,,,,,,,,,,,523.8999,525.1939,525.194,526.0998,return,0.0232,,76.43229167,,,,,,FBP-RB-19.png,0.43,1.2,59,0.5,,,,,,,,,,,,,0,18,18,58,1,,,,,,,,,,,,,,,,,,,,,,,,,,,,
,,,,,V3_037,20,female,2024-10-26_11h39.49.190,jersey_experiment_5_v3,2023.2.2,Win32,85.47008547,,,,,,,,,,,,,,,,526.1002,527.394,527.3941,528.3822,return,0.4281,,68.22916667,,,,,,FBP-RB-19.png,0.37,1.2,57,0.5,,,,,,,,,,,,,0,19,19,56,1,,,,,,,,,,,,,,,,,,,,,,,,,,,,
,,,,,V3_037,20,female,2024-10-26_11h39.49.190,jersey_experiment_5_v3,2023.2.2,Win32,85.47008547,,,,,,,,,,,,,,,,528.3825,529.9353,529.9354,530.9588,return,0.1331,,46.09375,,,,,,FBP-OG-18.png,0.35,1.2,36,0.75,,,,,,,,,,,,,0,20,20,35,1,,,,,,,,,,,,,,,,,,,,,,,,,,,,
,,,,,V3_037,20,female,2024-10-26_11h39.49.190,jersey_experiment_5_v3,2023.2.2,Win32,85.47008547,,,,,,,,,,,,,,,,530.9591,532.253,532.253,533.3235,return,0.2178,,62.23958333,,,,,,FBP-RB-19.png,0.45,1.2,60,0.5,,,,,,,,,,,,,0,21,21,59,1,,,,,,,,,,,,,,,,,,,,,,,,,,,,
,,,,,V3_037,20,female,2024-10-26_11h39.49.190,jersey_experiment_5_v3,2023.2.2,Win32,85.47008547,,,,,,,,,,,,,,,,533.3237,534.6177,534.6177,535.1355,return,0.0738,,52.60416667,,,,,,FBP-PT-19.png,0.37,1.2,27,0.5,,,,,,,,,,,,,0,22,22,26,1,,,,,,,,,,,,,,,,,,,,,,,,,,,,
,,,,,V3_037,20,female,2024-10-26_11h39.49.190,jersey_experiment_5_v3,2023.2.2,Win32,85.47008547,,,,,,,,,,,,,,,,535.1356,536.4298,536.4298,536.8179,return,0.0389,,50,,,,,,FBP-PT-17.png,0.35,1.2,16,0.5,,,,,,,,,,,,,0,23,23,15,1,,,,,,,,,,,,,,,,,,,,,,,,,,,,
,,,,,V3_037,20,female,2024-10-26_11h39.49.190,jersey_experiment_5_v3,2023.2.2,Win32,85.47008547,,,,,,,,,,,,,,,,536.8182,538.112,538.1121,538.3827,return,0.0749,,50.390625,,,,,,FBP-PT-17.png,0.37,1.2,17,0.5,,,,,,,,,,,,,0,24,24,16,1,,,,,,,,,,,,,,,,,,,,,,,,,,,,
,,,,,V3_037,20,female,2024-10-26_11h39.49.190,jersey_experiment_5_v3,2023.2.2,Win32,85.47008547,,,,,,,,,,,,,,,,538.3828,539.6768,539.6768,540.418,return,0.5099,,43.22916667,,,,,,FBP-YG-81.png,0.35,1.2,6,0.5,,,,,,,,,,,,,0,25,25,5,1,,,,,,,,,,,,,,,,,,,,,,,,,,,,
,,,,,V3_037,20,female,2024-10-26_11h39.49.190,jersey_experiment_5_v3,2023.2.2,Win32,85.47008547,,,,,,,,,,,,,,,,540.4181,541.7122,541.7122,542.7475,return,0.5687,,57.421875,,,,,,FBP-YG-81.png,0.4,1.2,8,0.5,,,,,,,,,,,,,0,26,26,7,1,,,,,,,,,,,,,,,,,,,,,,,,,,,,
,,,,,V3_037,20,female,2024-10-26_11h39.49.190,jersey_experiment_5_v3,2023.2.2,Win32,85.47008547,,,,,,,,,,,,,,,,542.7478,544.0417,544.0417,544.6535,return,0.0407,,75.390625,,,,,,FBP-YG-81.png,0.45,1.2,10,0.5,,,,,,,,,,,,,0,27,27,9,1,,,,,,,,,,,,,,,,,,,,,,,,,,,,
,,,,,V3_037,20,female,2024-10-26_11h39.49.190,jersey_experiment_5_v3,2023.2.2,Win32,85.47008547,,,,,,,,,,,,,,,,544.6537,545.9476,545.9477,546.6182,return,0.4875,,68.359375,,,,,,FBP-YG-91.png,0.4,1.2,13,0.5,,,,,,,,,,,,,0,28,28,12,1,,,,,,,,,,,,,,,,,,,,,,,,,,,,
,,,,,V3_037,20,female,2024-10-26_11h39.49.190,jersey_experiment_5_v3,2023.2.2,Win32,85.47008547,,,,,,,,,,,,,,,,546.6184,547.9125,547.9125,548.4771,return,0.0137,,77.08333333,,,,,,FBP-RB-18.png,0.43,1.2,54,0.5,,,,,,,,,,,,,0,29,29,53,1,,,,,,,,,,,,,,,,,,,,,,,,,,,,
,,,,,V3_037,20,female,2024-10-26_11h39.49.190,jersey_experiment_5_v3,2023.2.2,Win32,85.47008547,,,,,,,,,,,,,,,,548.4774,549.7713,549.7713,550.4773,return,0.0762,,63.671875,,,,,,FBP-RB-17.png,0.37,1.2,47,0.5,,,,,,,,,,,,,0,30,30,46,1,,,,,,,,,,,,,,,,,,,,,,,,,,,,
,,,,,V3_037,20,female,2024-10-26_11h39.49.190,jersey_experiment_5_v3,2023.2.2,Win32,85.47008547,,,,,,,,,,,,,,,,550.4776,552.0301,552.0302,553.6303,return,0.2164,,71.875,,,,,,FBP-OG-19.png,0.43,1.2,44,0.75,,,,,,,,,,,,,0,31,31,43,1,,,,,,,,,,,,,,,,,,,,,,,,,,,,
,,,,,V3_037,20,female,2024-10-26_11h39.49.190,jersey_experiment_5_v3,2023.2.2,Win32,85.47008547,,,,,,,,,,,,,,,,553.6305,555.1832,555.1832,556.1715,return,0.5126,,64.0625,,,,,,FBP-OG-19.png,0.4,1.2,43,0.75,,,,,,,,,,,,,0,32,32,42,1,,,,,,,,,,,,,,,,,,,,,,,,,,,,
,,,,,V3_037,20,female,2024-10-26_11h39.49.190,jersey_experiment_5_v3,2023.2.2,Win32,85.47008547,,,,,,,,,,,,,,,,556.1717,557.4657,557.4658,557.9833,return,0.1546,,73.56770833,,,,,,FBP-PT-19.png,0.43,1.2,29,0.5,,,,,,,,,,,,,0,33,33,28,1,,,,,,,,,,,,,,,,,,,,,,,,,,,,
,,,,,V3_037,20,female,2024-10-26_11h39.49.190,jersey_experiment_5_v3,2023.2.2,Win32,85.47008547,,,,,,,,,,,,,,,,557.9836,559.5363,559.5364,559.9011,return,0.1921,,61.71875,,,,,,FBP-OG-19.png,0.37,1.2,42,0.75,,,,,,,,,,,,,0,34,34,41,1,,,,,,,,,,,,,,,,,,,,,,,,,,,,
,,,,,V3_037,20,female,2024-10-26_11h39.49.190,jersey_experiment_5_v3,2023.2.2,Win32,85.47008547,,,,,,,,,,,,,,,,559.9014,561.4541,561.4541,561.8658,return,0.0324,,57.55208333,,,,,,FBP-OG-17.png,0.35,1.2,31,0.75,,,,,,,,,,,,,0,35,35,30,1,,,,,,,,,,,,,,,,,,,,,,,,,,,,
,,,,,V3_037,20,female,2024-10-26_11h39.49.190,jersey_experiment_5_v3,2023.2.2,Win32,85.47008547,,,,,,,,,,,,,,,,561.8661,563.16,563.1601,563.9718,return,0.0135,,49.86979167,,,,,,FBP-YG-71.png,0.37,1.2,2,0.5,,,,,,,,,,,,,0,36,36,1,1,,,,,,,,,,,,,,,,,,,,,,,,,,,,
,,,,,V3_037,20,female,2024-10-26_11h39.49.190,jersey_experiment_5_v3,2023.2.2,Win32,85.47008547,,,,,,,,,,,,,,,,563.9721,565.266,565.2661,566.5012,return,0.0793,,61.84895833,,,,,,FBP-YG-91.png,0.43,1.2,14,0.5,,,,,,,,,,,,,0,37,37,13,1,,,,,,,,,,,,,,,,,,,,,,,,,,,,
,,,,,V3_037,20,female,2024-10-26_11h39.49.190,jersey_experiment_5_v3,2023.2.2,Win32,85.47008547,,,,,,,,,,,,,,,,566.5014,567.7955,567.7955,568.619,return,0.4412,,57.8125,,,,,,FBP-RB-17.png,0.4,1.2,48,0.5,,,,,,,,,,,,,0,38,38,47,1,,,,,,,,,,,,,,,,,,,,,,,,,,,,
,,,,,V3_037,20,female,2024-10-26_11h39.49.190,jersey_experiment_5_v3,2023.2.2,Win32,85.47008547,,,,,,,,,,,,,,,,568.6193,570.172,570.1721,571.1956,return,0.7956,,61.06770833,,,,,,FBP-OG-17.png,0.4,1.2,33,0.75,,,,,,,,,,,,,0,39,39,32,1,,,,,,,,,,,,,,,,,,,,,,,,,,,,
,,,,,V3_037,20,female,2024-10-26_11h39.49.190,jersey_experiment_5_v3,2023.2.2,Win32,85.47008547,,,,,,,,,,,,,,,,571.1958,572.4898,572.4898,573.231,return,0.2021,,56.640625,,,,,,FBP-PT-18.png,0.4,1.2,23,0.5,,,,,,,,,,,,,0,40,40,22,1,,,,,,,,,,,,,,,,,,,,,,,,,,,,
,,,,,V3_037,20,female,2024-10-26_11h39.49.190,jersey_experiment_5_v3,2023.2.2,Win32,85.47008547,,,,,,,,,,,,,,,,573.2313,574.7841,574.7842,575.4428,return,0.1648,,67.578125,,,,,,FBP-OG-18.png,0.45,1.2,40,0.75,,,,,,,,,,,,,0,41,41,39,1,,,,,,,,,,,,,,,,,,,,,,,,,,,,
,,,,,V3_037,20,female,2024-10-26_11h39.49.190,jersey_experiment_5_v3,2023.2.2,Win32,85.47008547,,,,,,,,,,,,,,,,575.4431,576.7369,576.7369,577.5841,return,0.05,,69.27083333,,,,,,FBP-PT-18.png,0.43,1.2,24,0.5,,,,,,,,,,,,,0,42,42,23,1,,,,,,,,,,,,,,,,,,,,,,,,,,,,
,,,,,V3_037,20,female,2024-10-26_11h39.49.190,jersey_experiment_5_v3,2023.2.2,Win32,85.47008547,,,,,,,,,,,,,,,,577.5844,578.8783,578.8783,579.3253,return,0.2516,,69.27083333,,,,,,FBP-PT-17.png,0.4,1.2,18,0.5,,,,,,,,,,,,,0,43,43,17,1,,,,,,,,,,,,,,,,,,,,,,,,,,,,
,,,,,V3_037,20,female,2024-10-26_11h39.49.190,jersey_experiment_5_v3,2023.2.2,Win32,85.47008547,,,,,,,,,,,,,,,,579.3255,580.6195,580.6195,581.8549,return,0.298,,70.57291667,,,,,,FBP-RB-17.png,0.45,1.2,50,0.5,,,,,,,,,,,,,0,44,44,49,1,,,,,,,,,,,,,,,,,,,,,,,,,,,,
,,,,,V3_037,20,female,2024-10-26_11h39.49.190,jersey_experiment_5_v3,2023.2.2,Win32,85.47008547,,,,,,,,,,,,,,,,581.8552,583.1489,583.149,583.5726,return,0.0152,,75.52083333,,,,,,FBP-YG-71.png,0.45,1.2,5,0.5,,,,,,,,,,,,,0,45,45,4,1,,,,,,,,,,,,,,,,,,,,,,,,,,,,
,,,,,V3_037,20,female,2024-10-26_11h39.49.190,jersey_experiment_5_v3,2023.2.2,Win32,85.47008547,,,,,,,,,,,,,,,,583.5728,585.1257,585.1258,586.0196,return,0.0845,,44.53125,,,,,,FBP-OG-18.png,0.37,1.2,37,0.75,,,,,,,,,,,,,0,46,46,36,1,,,,,,,,,,,,,,,,,,,,,,,,,,,,
,,,,,V3_037,20,female,2024-10-26_11h39.49.190,jersey_experiment_5_v3,2023.2.2,Win32,85.47008547,,,,,,,,,,,,,,,,586.0199,587.3139,587.3139,588.5139,return,0.3506,,51.04166667,,,,,,FBP-YG-71.png,0.4,1.2,3,0.5,,,,,,,,,,,,,0,47,47,2,1,,,,,,,,,,,,,,,,,,,,,,,,,,,,
,,,,,V3_037,20,female,2024-10-26_11h39.49.190,jersey_experiment_5_v3,2023.2.2,Win32,85.47008547,,,,,,,,,,,,,,,,588.5141,590.0669,590.067,590.4787,return,0.2002,,50.26041667,,,,,,FBP-OG-18.png,0.4,1.2,38,0.75,,,,,,,,,,,,,0,48,48,37,1,,,,,,,,,,,,,,,,,,,,,,,,,,,,
,,,,,V3_037,20,female,2024-10-26_11h39.49.190,jersey_experiment_5_v3,2023.2.2,Win32,85.47008547,,,,,,,,,,,,,,,,590.4789,591.7727,591.7728,592.3376,return,0.0117,,57.29166667,,,,,,FBP-YG-81.png,0.43,1.2,9,0.5,,,,,,,,,,,,,0,49,49,8,1,,,,,,,,,,,,,,,,,,,,,,,,,,,,
,,,,,V3_037,20,female,2024-10-26_11h39.49.190,jersey_experiment_5_v3,2023.2.2,Win32,85.47008547,,,,,,,,,,,,,,,,592.3378,593.6317,593.6318,595.0083,return,0.8025,,35.15625,,,,,,FBP-PT-18.png,0.35,1.2,21,0.5,,,,,,,,,,,,,0,50,50,20,1,,,,,,,,,,,,,,,,,,,,,,,,,,,,
,,,,,V3_037,20,female,2024-10-26_11h39.49.190,jersey_experiment_5_v3,2023.2.2,Win32,85.47008547,,,,,,,,,,,,,,,,595.0086,596.3024,596.3024,597.0553,return,0.356,,41.015625,,,,,,FBP-PT-19.png,0.35,1.2,26,0.5,,,,,,,,,,,,,0,51,51,25,1,,,,,,,,,,,,,,,,,,,,,,,,,,,,
,,,,,V3_037,20,female,2024-10-26_11h39.49.190,jersey_experiment_5_v3,2023.2.2,Win32,85.47008547,,,,,,,,,,,,,,,,597.0555,598.3497,598.3497,599.0907,return,0.1759,,39.0625,,,,,,FBP-PT-19.png,0.4,1.2,28,0.5,,,,,,,,,,,,,0,52,52,27,1,,,,,,,,,,,,,,,,,,,,,,,,,,,,
,,,,,V3_037,20,female,2024-10-26_11h39.49.190,jersey_experiment_5_v3,2023.2.2,Win32,85.47008547,,,,,,,,,,,,,,,,599.0909,600.3849,600.385,600.9967,return,0.0582,,31.640625,,,,,,FBP-YG-91.png,0.35,1.2,11,0.5,,,,,,,,,,,,,0,53,53,10,1,,,,,,,,,,,,,,,,,,,,,,,,,,,,
,,,,,V3_037,20,female,2024-10-26_11h39.49.190,jersey_experiment_5_v3,2023.2.2,Win32,85.47008547,,,,,,,,,,,,,,,,600.997,602.2909,602.2909,603.4203,return,0.0854,,57.68229167,,,,,,FBP-PT-19.png,0.45,1.2,30,0.5,,,,,,,,,,,,,0,54,54,29,1,,,,,,,,,,,,,,,,,,,,,,,,,,,,
,,,,,V3_037,20,female,2024-10-26_11h39.49.190,jersey_experiment_5_v3,2023.2.2,Win32,85.47008547,,,,,,,,,,,,,,,,603.4206,604.7146,604.7146,605.3968,return,0.0318,,36.45833333,,,,,,FBP-RB-19.png,0.35,1.2,56,0.5,,,,,,,,,,,,,0,55,55,55,1,,,,,,,,,,,,,,,,,,,,,,,,,,,,
,,,,,V3_037,20,female,2024-10-26_11h39.49.190,jersey_experiment_5_v3,2023.2.2,Win32,85.47008547,,,,,,,,,,,,,,,,605.3971,606.9498,606.9499,607.4205,return,0.086,,40.234375,,,,,,FBP-OG-19.png,0.35,1.2,41,0.75,,,,,,,,,,,,,0,56,56,40,1,,,,,,,,,,,,,,,,,,,,,,,,,,,,
,,,,,V3_037,20,female,2024-10-26_11h39.49.190,jersey_experiment_5_v3,2023.2.2,Win32,85.47008547,,,,,,,,,,,,,,,,607.4207,608.9735,608.9735,610.2911,return,0.1414,,73.17708333,,,,,,FBP-OG-18.png,0.43,1.2,39,0.75,,,,,,,,,,,,,0,57,57,38,1,,,,,,,,,,,,,,,,,,,,,,,,,,,,
,,,,,V3_037,20,female,2024-10-26_11h39.49.190,jersey_experiment_5_v3,2023.2.2,Win32,85.47008547,,,,,,,,,,,,,,,,610.2913,611.5853,611.5853,612.1382,return,0.0278,,71.74479167,,,,,,FBP-YG-71.png,0.43,1.2,4,0.5,,,,,,,,,,,,,0,58,58,3,1,,,,,,,,,,,,,,,,,,,,,,,,,,,,
,,,,,V3_037,20,female,2024-10-26_11h39.49.190,jersey_experiment_5_v3,2023.2.2,Win32,85.47008547,,,,,,,,,,,,,,,,612.1384,613.6913,613.6913,614.3618,return,0.1034,,71.74479167,,,,,,FBP-OG-19.png,0.45,1.2,45,0.75,,,,,,,,,,,,,0,59,59,44,1,,,,,,,,,,,,,,,,,,,,,,,,,,,,
,,,,,V3_037,20,female,2024-10-26_11h39.49.190,jersey_experiment_5_v3,2023.2.2,Win32,85.47008547,,,,,,,,,,,,,,,,614.3634,615.915,615.915,616.821,return,0.1398,,49.34895833,,,,,,FBP-OG-81.png,0.37,1.2,37,0.75,,,,,,,,,,,,,,,,,,0,0,0,36,1,,,,,,,,,,,,,,,,,,,,,,,
,,,,,V3_037,20,female,2024-10-26_11h39.49.190,jersey_experiment_5_v3,2023.2.2,Win32,85.47008547,,,,,,,,,,,,,,,,616.8212,618.3738,618.3738,618.9268,return,0.1547,,51.43229167,,,,,,FBP-OG-71.png,0.4,1.2,33,0.75,,,,,,,,,,,,,,,,,,0,1,1,32,1,,,,,,,,,,,,,,,,,,,,,,,
,,,,,V3_037,20,female,2024-10-26_11h39.49.190,jersey_experiment_5_v3,2023.2.2,Win32,85.47008547,,,,,,,,,,,,,,,,618.927,620.2209,620.2209,620.8799,return,0.0736,,37.23958333,,,,,,FBP-RB-71.png,0.35,1.2,46,0.5,,,,,,,,,,,,,,,,,,0,2,2,45,1,,,,,,,,,,,,,,,,,,,,,,,
,,,,,V3_037,20,female,2024-10-26_11h39.49.190,jersey_experiment_5_v3,2023.2.2,Win32,85.47008547,,,,,,,,,,,,,,,,620.88,622.1739,622.174,623.8446,return,0.0474,,62.63020833,,,,,,FBP-RB-91.png,0.43,1.2,59,0.5,,,,,,,,,,,,,,,,,,0,3,3,58,1,,,,,,,,,,,,,,,,,,,,,,,
,,,,,V3_037,20,female,2024-10-26_11h39.49.190,jersey_experiment_5_v3,2023.2.2,Win32,85.47008547,,,,,,,,,,,,,,,,623.8448,625.1386,625.1388,625.7156,return,0.1179,,53.125,,,,,,FBP-YG-17.png,0.35,1.2,1,0.5,,,,,,,,,,,,,,,,,,0,4,4,0,1,,,,,,,,,,,,,,,,,,,,,,,
,,,,,V3_037,20,female,2024-10-26_11h39.49.190,jersey_experiment_5_v3,2023.2.2,Win32,85.47008547,,,,,,,,,,,,,,,,625.7158,627.2685,627.2685,627.6918,return,0.0743,,51.30208333,,,,,,FBP-OG-71.png,0.37,1.2,32,0.75,,,,,,,,,,,,,,,,,,0,5,5,31,1,,,,,,,,,,,,,,,,,,,,,,,
,,,,,V3_037,20,female,2024-10-26_11h39.49.190,jersey_experiment_5_v3,2023.2.2,Win32,85.47008547,,,,,,,,,,,,,,,,627.6919,629.2331,629.2331,629.6214,return,0.068,,58.72395833,,,,,,FBP-OG-81.png,0.43,1.2,39,0.75,,,,,,,,,,,,,,,,,,0,6,6,38,1,,,,,,,,,,,,,,,,,,,,,,,
,,,,,V3_037,20,female,2024-10-26_11h39.49.190,jersey_experiment_5_v3,2023.2.2,Win32,85.47008547,,,,,,,,,,,,,,,,629.6217,630.9155,630.9155,631.5509,return,0.0713,,60.02604167,,,,,,FBP-PT-71.png,0.35,1.2,16,0.5,,,,,,,,,,,,,,,,,,0,7,7,15,1,,,,,,,,,,,,,,,,,,,,,,,
,,,,,V3_037,20,female,2024-10-26_11h39.49.190,jersey_experiment_5_v3,2023.2.2,Win32,85.47008547,,,,,,,,,,,,,,,,631.5511,633.1038,633.1039,634.7039,return,0.0932,,49.08854167,,,,,,FBP-OG-81.png,0.4,1.2,38,0.75,,,,,,,,,,,,,,,,,,0,8,8,37,1,,,,,,,,,,,,,,,,,,,,,,,
,,,,,V3_037,20,female,2024-10-26_11h39.49.190,jersey_experiment_5_v3,2023.2.2,Win32,85.47008547,,,,,,,,,,,,,,,,634.7039,635.998,635.9981,636.6686,return,0.0763,,54.16666667,,,,,,FBP-RB-81.png,0.4,1.2,53,0.5,,,,,,,,,,,,,,,,,,0,9,9,52,1,,,,,,,,,,,,,,,,,,,,,,,
,,,,,V3_037,20,female,2024-10-26_11h39.49.190,jersey_experiment_5_v3,2023.2.2,Win32,85.47008547,,,,,,,,,,,,,,,,636.6688,637.9627,637.9628,638.5628,return,0.037,,42.1875,,,,,,FBP-PT-71.png,0.37,1.2,17,0.5,,,,,,,,,,,,,,,,,,0,10,10,16,1,,,,,,,,,,,,,,,,,,,,,,,
,,,,,V3_037,20,female,2024-10-26_11h39.49.190,jersey_experiment_5_v3,2023.2.2,Win32,85.47008547,,,,,,,,,,,,,,,,638.5632,639.857,639.857,640.3511,return,0.073,,51.30208333,,,,,,FBP-RB-71.png,0.4,1.2,48,0.5,,,,,,,,,,,,,,,,,,0,11,11,47,1,,,,,,,,,,,,,,,,,,,,,,,
,,,,,V3_037,20,female,2024-10-26_11h39.49.190,jersey_experiment_5_v3,2023.2.2,Win32,85.47008547,,,,,,,,,,,,,,,,640.3514,641.6451,641.6452,641.9157,return,0.0398,,51.30208333,,,,,,FBP-RB-81.png,0.37,1.2,52,0.5,,,,,,,,,,,,,,,,,,0,12,12,51,1,,,,,,,,,,,,,,,,,,,,,,,
,,,,,V3_037,20,female,2024-10-26_11h39.49.190,jersey_experiment_5_v3,2023.2.2,Win32,85.47008547,,,,,,,,,,,,,,,,641.916,643.2103,643.2104,643.7746,return,0.0512,,70.18229167,,,,,,FBP-PT-91.png,0.45,1.2,30,0.5,,,,,,,,,,,,,,,,,,0,13,13,29,1,,,,,,,,,,,,,,,,,,,,,,,
,,,,,V3_037,20,female,2024-10-26_11h39.49.190,jersey_experiment_5_v3,2023.2.2,Win32,85.47008547,,,,,,,,,,,,,,,,643.7749,645.0691,645.0691,646.3985,return,0.9809,,67.31770833,,,,,,FBP-PT-71.png,0.43,1.2,19,0.5,,,,,,,,,,,,,,,,,,0,14,14,18,1,,,,,,,,,,,,,,,,,,,,,,,
,,,,,V3_037,20,female,2024-10-26_11h39.49.190,jersey_experiment_5_v3,2023.2.2,Win32,85.47008547,,,,,,,,,,,,,,,,646.3986,647.6925,647.6926,648.3044,return,0.023,,82.94270833,,,,,,FBP-RB-91.png,0.45,1.2,60,0.5,,,,,,,,,,,,,,,,,,0,15,15,59,1,,,,,,,,,,,,,,,,,,,,,,,
,,,,,V3_037,20,female,2024-10-26_11h39.49.190,jersey_experiment_5_v3,2023.2.2,Win32,85.47008547,,,,,,,,,,,,,,,,648.3046,649.5985,649.5986,650.0338,return,0.197,,82.68229167,,,,,,FBP-PT-71.png,0.45,1.2,20,0.5,,,,,,,,,,,,,,,,,,0,16,16,19,1,,,,,,,,,,,,,,,,,,,,,,,
,,,,,V3_037,20,female,2024-10-26_11h39.49.190,jersey_experiment_5_v3,2023.2.2,Win32,85.47008547,,,,,,,,,,,,,,,,650.0341,651.5869,651.587,652.4339,return,0.3767,,39.19270833,,,,,,FBP-OG-91.png,0.35,1.2,41,0.75,,,,,,,,,,,,,,,,,,0,17,17,40,1,,,,,,,,,,,,,,,,,,,,,,,
,,,,,V3_037,20,female,2024-10-26_11h39.49.190,jersey_experiment_5_v3,2023.2.2,Win32,85.47008547,,,,,,,,,,,,,,,,652.4341,653.9868,653.9868,654.6222,return,0.098,,42.70833333,,,,,,FBP-OG-71.png,0.35,1.2,31,0.75,,,,,,,,,,,,,,,,,,0,18,18,30,1,,,,,,,,,,,,,,,,,,,,,,,
,,,,,V3_037,20,female,2024-10-26_11h39.49.190,jersey_experiment_5_v3,2023.2.2,Win32,85.47008547,,,,,,,,,,,,,,,,654.6225,655.9163,655.9164,656.8105,return,0.0553,,48.95833333,,,,,,FBP-PT-81.png,0.4,1.2,23,0.5,,,,,,,,,,,,,,,,,,0,19,19,22,1,,,,,,,,,,,,,,,,,,,,,,,
,,,,,V3_037,20,female,2024-10-26_11h39.49.190,jersey_experiment_5_v3,2023.2.2,Win32,85.47008547,,,,,,,,,,,,,,,,656.8108,658.1047,658.1047,658.9752,return,0.0127,,80.33854167,,,,,,FBP-YG-19.png,0.45,1.2,15,0.5,,,,,,,,,,,,,,,,,,0,20,20,14,1,,,,,,,,,,,,,,,,,,,,,,,
,,,,,V3_037,20,female,2024-10-26_11h39.49.190,jersey_experiment_5_v3,2023.2.2,Win32,85.47008547,,,,,,,,,,,,,,,,658.9754,660.2696,660.2696,661.4697,return,0.0863,,38.80208333,,,,,,FBP-PT-81.png,0.35,1.2,21,0.5,,,,,,,,,,,,,,,,,,0,21,21,20,1,,,,,,,,,,,,,,,,,,,,,,,
,,,,,V3_037,20,female,2024-10-26_11h39.49.190,jersey_experiment_5_v3,2023.2.2,Win32,85.47008547,,,,,,,,,,,,,,,,661.4699,662.7638,662.7639,663.2814,return,0.0486,,63.54166667,,,,,,FBP-PT-81.png,0.45,1.2,25,0.5,,,,,,,,,,,,,,,,,,0,22,22,24,1,,,,,,,,,,,,,,,,,,,,,,,
,,,,,V3_037,20,female,2024-10-26_11h39.49.190,jersey_experiment_5_v3,2023.2.2,Win32,85.47008547,,,,,,,,,,,,,,,,663.2817,664.8344,664.8344,665.4579,return,0.157,,35.546875,,,,,,FBP-OG-81.png,0.35,1.2,36,0.75,,,,,,,,,,,,,,,,,,0,23,23,35,1,,,,,,,,,,,,,,,,,,,,,,,
,,,,,V3_037,20,female,2024-10-26_11h39.49.190,jersey_experiment_5_v3,2023.2.2,Win32,85.47008547,,,,,,,,,,,,,,,,665.4581,666.7521,666.7522,668.658,return,0.6011,,76.69270833,,,,,,FBP-RB-71.png,0.45,1.2,50,0.5,,,,,,,,,,,,,,,,,,0,24,24,49,1,,,,,,,,,,,,,,,,,,,,,,,
,,,,,V3_037,20,female,2024-10-26_11h39.49.190,jersey_experiment_5_v3,2023.2.2,Win32,85.47008547,,,,,,,,,,,,,,,,668.6582,669.9522,669.9523,672.8817,return,2.1023,,49.34895833,,,,,,FBP-RB-71.png,0.37,1.2,47,0.5,,,,,,,,,,,,,,,,,,0,25,25,46,1,,,,,,,,,,,,,,,,,,,,,,,
,,,,,V3_037,20,female,2024-10-26_11h39.49.190,jersey_experiment_5_v3,2023.2.2,Win32,85.47008547,,,,,,,,,,,,,,,,672.882,674.4348,674.4348,674.9289,return,0.1045,,65.88541667,,,,,,FBP-OG-91.png,0.43,1.2,44,0.75,,,,,,,,,,,,,,,,,,0,26,26,43,1,,,,,,,,,,,,,,,,,,,,,,,
,,,,,V3_037,20,female,2024-10-26_11h39.49.190,jersey_experiment_5_v3,2023.2.2,Win32,85.47008547,,,,,,,,,,,,,,,,674.9292,676.223,676.2231,677.6465,return,0.8944,,61.19791667,,,,,,FBP-PT-71.png,0.4,1.2,18,0.5,,,,,,,,,,,,,,,,,,0,27,27,17,1,,,,,,,,,,,,,,,,,,,,,,,
,,,,,V3_037,20,female,2024-10-26_11h39.49.190,jersey_experiment_5_v3,2023.2.2,Win32,85.47008547,,,,,,,,,,,,,,,,677.6468,678.9408,678.9408,679.6937,return,0.064,,71.22395833,,,,,,FBP-YG-18.png,0.43,1.2,9,0.5,,,,,,,,,,,,,,,,,,0,28,28,8,1,,,,,,,,,,,,,,,,,,,,,,,
,,,,,V3_037,20,female,2024-10-26_11h39.49.190,jersey_experiment_5_v3,2023.2.2,Win32,85.47008547,,,,,,,,,,,,,,,,679.6941,680.9879,680.9879,681.9057,return,0.73,,78.515625,,,,,,FBP-YG-18.png,0.45,1.2,10,0.5,,,,,,,,,,,,,,,,,,0,29,29,9,1,,,,,,,,,,,,,,,,,,,,,,,
,,,,,V3_037,20,female,2024-10-26_11h39.49.190,jersey_experiment_5_v3,2023.2.2,Win32,85.47008547,,,,,,,,,,,,,,,,681.9059,683.1997,683.1997,683.482,return,0.1024,,78.515625,,,,,,FBP-PT-91.png,0.43,1.2,29,0.5,,,,,,,,,,,,,,,,,,0,30,30,28,1,,,,,,,,,,,,,,,,,,,,,,,
,,,,,V3_037,20,female,2024-10-26_11h39.49.190,jersey_experiment_5_v3,2023.2.2,Win32,85.47008547,,,,,,,,,,,,,,,,683.4822,684.7762,684.7763,685.4234,return,0.0504,,63.93229167,,,,,,FBP-PT-91.png,0.4,1.2,28,0.5,,,,,,,,,,,,,,,,,,0,31,31,27,1,,,,,,,,,,,,,,,,,,,,,,,
,,,,,V3_037,20,female,2024-10-26_11h39.49.190,jersey_experiment_5_v3,2023.2.2,Win32,85.47008547,,,,,,,,,,,,,,,,685.4236,686.7175,686.7175,687.8117,return,0.68,,52.47395833,,,,,,FBP-PT-81.png,0.43,1.2,24,0.5,,,,,,,,,,,,,,,,,,0,32,32,23,1,,,,,,,,,,,,,,,,,,,,,,,
,,,,,V3_037,20,female,2024-10-26_11h39.49.190,jersey_experiment_5_v3,2023.2.2,Win32,85.47008547,,,,,,,,,,,,,,,,687.812,689.3646,689.3647,691.1411,return,0.1499,,42.83854167,,,,,,FBP-OG-91.png,0.37,1.2,42,0.75,,,,,,,,,,,,,,,,,,0,33,33,41,1,,,,,,,,,,,,,,,,,,,,,,,
,,,,,V3_037,20,female,2024-10-26_11h39.49.190,jersey_experiment_5_v3,2023.2.2,Win32,85.47008547,,,,,,,,,,,,,,,,691.1414,692.4355,692.4356,693.1413,return,0.2226,,35.28645833,,,,,,FBP-YG-17.png,0.37,1.2,2,0.5,,,,,,,,,,,,,,,,,,0,34,34,1,1,,,,,,,,,,,,,,,,,,,,,,,
,,,,,V3_037,20,female,2024-10-26_11h39.49.190,jersey_experiment_5_v3,2023.2.2,Win32,85.47008547,,,,,,,,,,,,,,,,693.1415,694.4353,694.4354,695.212,return,0.1561,,35.02604167,,,,,,FBP-YG-18.png,0.37,1.2,7,0.5,,,,,,,,,,,,,,,,,,0,35,35,6,1,,,,,,,,,,,,,,,,,,,,,,,
,,,,,V3_037,20,female,2024-10-26_11h39.49.190,jersey_experiment_5_v3,2023.2.2,Win32,85.47008547,,,,,,,,,,,,,,,,695.2122,696.5061,696.5062,697.5649,return,0.3352,,65.75520833,,,,,,FBP-YG-17.png,0.45,1.2,5,0.5,,,,,,,,,,,,,,,,,,0,36,36,4,1,,,,,,,,,,,,,,,,,,,,,,,
,,,,,V3_037,20,female,2024-10-26_11h39.49.190,jersey_experiment_5_v3,2023.2.2,Win32,85.47008547,,,,,,,,,,,,,,,,697.5652,698.8594,698.8594,700.5768,return,1.1314,,50.65104167,,,,,,FBP-YG-18.png,0.4,1.2,8,0.5,,,,,,,,,,,,,,,,,,0,37,37,7,1,,,,,,,,,,,,,,,,,,,,,,,
,,,,,V3_037,20,female,2024-10-26_11h39.49.190,jersey_experiment_5_v3,2023.2.2,Win32,85.47008547,,,,,,,,,,,,,,,,700.577,701.8711,701.8711,702.8357,return,0.0314,,43.61979167,,,,,,FBP-RB-81.png,0.35,1.2,51,0.5,,,,,,,,,,,,,,,,,,0,38,38,50,1,,,,,,,,,,,,,,,,,,,,,,,
,,,,,V3_037,20,female,2024-10-26_11h39.49.190,jersey_experiment_5_v3,2023.2.2,Win32,85.47008547,,,,,,,,,,,,,,,,702.836,704.1298,704.1298,705.1181,return,0.0383,,73.046875,,,,,,FBP-YG-17.png,0.43,1.2,4,0.5,,,,,,,,,,,,,,,,,,0,39,39,3,1,,,,,,,,,,,,,,,,,,,,,,,
,,,,,V3_037,20,female,2024-10-26_11h39.49.190,jersey_experiment_5_v3,2023.2.2,Win32,85.47008547,,,,,,,,,,,,,,,,705.1184,706.6714,706.6714,707.5065,return,0.4843,,81.25,,,,,,FBP-OG-91.png,0.45,1.2,45,0.75,,,,,,,,,,,,,,,,,,0,40,40,44,1,,,,,,,,,,,,,,,,,,,,,,,
,,,,,V3_037,20,female,2024-10-26_11h39.49.190,jersey_experiment_5_v3,2023.2.2,Win32,85.47008547,,,,,,,,,,,,,,,,707.5068,708.8009,708.801,710.142,return,0.3561,,47.78645833,,,,,,FBP-RB-91.png,0.35,1.2,56,0.5,,,,,,,,,,,,,,,,,,0,41,41,55,1,,,,,,,,,,,,,,,,,,,,,,,
,,,,,V3_037,20,female,2024-10-26_11h39.49.190,jersey_experiment_5_v3,2023.2.2,Win32,85.47008547,,,,,,,,,,,,,,,,710.1422,711.436,711.4361,712.2714,return,0.0739,,45.18229167,,,,,,FBP-YG-18.png,0.35,1.2,6,0.5,,,,,,,,,,,,,,,,,,0,42,42,5,1,,,,,,,,,,,,,,,,,,,,,,,
,,,,,V3_037,20,female,2024-10-26_11h39.49.190,jersey_experiment_5_v3,2023.2.2,Win32,85.47008547,,,,,,,,,,,,,,,,712.2717,713.5655,713.5655,714.1303,return,0.024,,48.95833333,,,,,,FBP-YG-19.png,0.37,1.2,12,0.5,,,,,,,,,,,,,,,,,,0,43,43,11,1,,,,,,,,,,,,,,,,,,,,,,,
,,,,,V3_037,20,female,2024-10-26_11h39.49.190,jersey_experiment_5_v3,2023.2.2,Win32,85.47008547,,,,,,,,,,,,,,,,714.1306,715.4244,715.4245,716.5069,return,0.1021,,68.88020833,,,,,,FBP-RB-81.png,0.43,1.2,54,0.5,,,,,,,,,,,,,,,,,,0,44,44,53,1,,,,,,,,,,,,,,,,,,,,,,,
,,,,,V3_037,20,female,2024-10-26_11h39.49.190,jersey_experiment_5_v3,2023.2.2,Win32,85.47008547,,,,,,,,,,,,,,,,716.5073,717.801,717.8011,719.4127,return,0.6144,,44.66145833,,,,,,FBP-YG-19.png,0.35,1.2,11,0.5,,,,,,,,,,,,,,,,,,0,45,45,10,1,,,,,,,,,,,,,,,,,,,,,,,
,,,,,V3_037,20,female,2024-10-26_11h39.49.190,jersey_experiment_5_v3,2023.2.2,Win32,85.47008547,,,,,,,,,,,,,,,,719.413,720.707,720.7071,722.3659,return,0.2637,,51.171875,,,,,,FBP-YG-19.png,0.4,1.2,13,0.5,,,,,,,,,,,,,,,,,,0,46,46,12,1,,,,,,,,,,,,,,,,,,,,,,,
,,,,,V3_037,20,female,2024-10-26_11h39.49.190,jersey_experiment_5_v3,2023.2.2,Win32,85.47008547,,,,,,,,,,,,,,,,722.3663,723.6601,723.6601,724.1776,return,0.0345,,49.08854167,,,,,,FBP-PT-81.png,0.37,1.2,22,0.5,,,,,,,,,,,,,,,,,,0,47,47,21,1,,,,,,,,,,,,,,,,,,,,,,,
,,,,,V3_037,20,female,2024-10-26_11h39.49.190,jersey_experiment_5_v3,2023.2.2,Win32,85.47008547,,,,,,,,,,,,,,,,724.178,725.472,725.4721,726.0484,return,0.0393,,58.85416667,,,,,,FBP-RB-91.png,0.4,1.2,58,0.5,,,,,,,,,,,,,,,,,,0,48,48,57,1,,,,,,,,,,,,,,,,,,,,,,,
,,,,,V3_037,20,female,2024-10-26_11h39.49.190,jersey_experiment_5_v3,2023.2.2,Win32,85.47008547,,,,,,,,,,,,,,,,726.0486,727.3425,727.3426,727.7426,return,0.0491,,58.85416667,,,,,,FBP-RB-91.png,0.37,1.2,57,0.5,,,,,,,,,,,,,,,,,,0,49,49,56,1,,,,,,,,,,,,,,,,,,,,,,,
,,,,,V3_037,20,female,2024-10-26_11h39.49.190,jersey_experiment_5_v3,2023.2.2,Win32,85.47008547,,,,,,,,,,,,,,,,727.7428,729.0368,729.0368,729.6015,return,0.0388,,73.828125,,,,,,FBP-RB-81.png,0.45,1.2,55,0.5,,,,,,,,,,,,,,,,,,0,50,50,54,1,,,,,,,,,,,,,,,,,,,,,,,
,,,,,V3_037,20,female,2024-10-26_11h39.49.190,jersey_experiment_5_v3,2023.2.2,Win32,85.47008547,,,,,,,,,,,,,,,,729.6018,730.8955,730.8955,731.1779,return,0.138,,73.69791667,,,,,,FBP-YG-19.png,0.43,1.2,14,0.5,,,,,,,,,,,,,,,,,,0,51,51,13,1,,,,,,,,,,,,,,,,,,,,,,,
,,,,,V3_037,20,female,2024-10-26_11h39.49.190,jersey_experiment_5_v3,2023.2.2,Win32,85.47008547,,,,,,,,,,,,,,,,731.1781,732.472,732.472,733.1546,return,0.1791,,68.48958333,,,,,,FBP-YG-17.png,0.4,1.2,3,0.5,,,,,,,,,,,,,,,,,,0,52,52,2,1,,,,,,,,,,,,,,,,,,,,,,,
,,,,,V3_037,20,female,2024-10-26_11h39.49.190,jersey_experiment_5_v3,2023.2.2,Win32,85.47008547,,,,,,,,,,,,,,,,733.1548,734.4487,734.4488,736.0135,return,0.0524,,49.73958333,,,,,,FBP-PT-91.png,0.37,1.2,27,0.5,,,,,,,,,,,,,,,,,,0,53,53,26,1,,,,,,,,,,,,,,,,,,,,,,,
,,,,,V3_037,20,female,2024-10-26_11h39.49.190,jersey_experiment_5_v3,2023.2.2,Win32,85.47008547,,,,,,,,,,,,,,,,736.0137,737.5664,737.5666,738.0842,return,0.0342,,64.58333333,,,,,,FBP-OG-71.png,0.43,1.2,34,0.75,,,,,,,,,,,,,,,,,,0,54,54,33,1,,,,,,,,,,,,,,,,,,,,,,,
,,,,,V3_037,20,female,2024-10-26_11h39.49.190,jersey_experiment_5_v3,2023.2.2,Win32,85.47008547,,,,,,,,,,,,,,,,738.0844,739.3782,739.3784,741.0842,return,0.701,,64.0625,,,,,,FBP-RB-71.png,0.43,1.2,49,0.5,,,,,,,,,,,,,,,,,,0,55,55,48,1,,,,,,,,,,,,,,,,,,,,,,,
,,,,,V3_037,20,female,2024-10-26_11h39.49.190,jersey_experiment_5_v3,2023.2.2,Win32,85.47008547,,,,,,,,,,,,,,,,741.0845,742.6372,742.6372,743.3784,return,0.0942,,51.30208333,,,,,,FBP-OG-91.png,0.4,1.2,43,0.75,,,,,,,,,,,,,,,,,,0,56,56,42,1,,,,,,,,,,,,,,,,,,,,,,,
,,,,,V3_037,20,female,2024-10-26_11h39.49.190,jersey_experiment_5_v3,2023.2.2,Win32,85.47008547,,,,,,,,,,,,,,,,743.3787,744.9314,744.9314,745.3314,return,0.0004,,64.97395833,,,,,,FBP-OG-71.png,0.45,1.2,35,0.75,,,,,,,,,,,,,,,,,,0,57,57,34,1,,,,,,,,,,,,,,,,,,,,,,,
,,,,,V3_037,20,female,2024-10-26_11h39.49.190,jersey_experiment_5_v3,2023.2.2,Win32,85.47008547,,,,,,,,,,,,,,,,745.3317,746.6256,746.6256,747.4257,return,0.0568,,30.33854167,,,,,,FBP-PT-91.png,0.35,1.2,26,0.5,,,,,,,,,,,,,,,,,,0,58,58,25,1,,,,,,,,,,,,,,,,,,,,,,,
,,,,,V3_037,20,female,2024-10-26_11h39.49.190,jersey_experiment_5_v3,2023.2.2,Win32,85.47008547,,,,,,,,,,,,,,,,747.4259,748.9786,748.9786,750.6611,return,0.0004,,49.86979167,,,,,,FBP-OG-81.png,0.45,1.2,40,0.75,,,,,,,,,,,,,,,,,,0,59,59,39,1,,,,,,,,,,,,,,,,,,,,,,,
,,,,,V3_037,20,female,2024-10-26_11h39.49.190,jersey_experiment_5_v3,2023.2.2,Win32,85.47008547,,,,,,,,,,,,,,,,,,,,,,,,,,,,,,,,,,,,,,,,,,,,,,,,,,,,,,,,750.6614,759.4027,return,8.7377,,,,,,,,,,,,,,,,,,,
,,,,,V3_037,20,female,2024-10-26_11h39.49.190,jersey_experiment_5_v3,2023.2.2,Win32,85.47008547,,,,,,,,,,,,,,,,,,,,,,,,,,,,,,,,,,,,,,,,,,,,,,,,,,,,,,,,,,,,,759.4028,765.7558,1,5.4789,return,0.8641,,,,,,,,,,,,
,,,,,V3_037,20,female,2024-10-26_11h39.49.190,jersey_experiment_5_v3,2023.2.2,Win32,85.47008547,,,,,,,,,,,,,,,,,,,,,,,,,,,,,,,,,,,,,,,,,,,,,,,,,,,,,,,,,,,,,,,,,,,,765.7559,855.4891,illusions of colors and how it can effect proportions,right,72.8502,,,,,,
,,,,,V3_037,20,female,2024-10-26_11h39.49.190,jersey_experiment_5_v3,2023.2.2,Win32,85.47008547,,,,,,,,,,,,,,,,,,,,,,,,,,,,,,,,,,,,,,,,,,,,,,,,,,,,,,,,,,,,,,,,,,,,,,,,,,855.4893,862.1007,return,6.6007,