requirements.started,requirements.stopped,key_resp_3.keys,key_resp_3.rt,key_resp_3.duration,Subject ID,Age,Gender,date,expName,psychopyVersion,OS,frameRate,instructions1.started,instructions1.stopped,key_resp.keys,key_resp.rt,key_resp.duration,example.started,example.stopped,enter_2.keys,enter_2.rt,enter_2.duration,instructions2.started,instructions2.stopped,enter_3.keys,enter_3.rt,enter_3.duration,image.started,image.stopped,slider_2.started,slider_2.stopped,next.keys,next.rt,next.duration,slider.response,trial_block_1.thisRepN,trial_block_1.thisTrialN,trial_block_1.thisN,trial_block_1.thisIndex,trial_block_1.ran,Path,Width,Height,Index,Duration,trial_block_2.thisRepN,trial_block_2.thisTrialN,trial_block_2.thisN,trial_block_2.thisIndex,trial_block_2.ran,rest_break.started,rest_break.stopped,end_break.started,end_break.stopped,key_resp_5.keys,key_resp_5.rt,key_resp_5.duration,trial_block_3.thisRepN,trial_block_3.thisTrialN,trial_block_3.thisN,trial_block_3.thisIndex,trial_block_3.ran,trial_block_4.thisRepN,trial_block_4.thisTrialN,trial_block_4.thisN,trial_block_4.thisIndex,trial_block_4.ran,questions_intro.started,questions_intro.stopped,enter_12.keys,enter_12.rt,enter_12.duration,question2.started,question2.stopped,question_doingbest.response,question_doingbest.rt,enter_15.keys,enter_15.rt,enter_15.duration,pattern.started,pattern.stopped,pattern_2.text,enter_17.keys,enter_17.rt,enter_17.duration,thankyou.started,thankyou.stopped,enter_14.keys,enter_14.rt,enter_14.duration
0,9.5429,return,9.5339,,V3_091,21,Female,2025-01-30_13h56.20.525,jersey_experiment_5_v3,2023.2.2,Win32,84.74576271,,,,,,,,,,,,,,,,,,,,,,,,,,,,,,,,,,,,,,,,,,,,,,,,,,,,,,,,,,,,,,,,,,,,,,,,,,,,,,
,,,,,V3_091,21,Female,2025-01-30_13h56.20.525,jersey_experiment_5_v3,2023.2.2,Win32,84.74576271,9.5429,15.3114,return,5.7507,,,,,,,,,,,,,,,,,,,,,,,,,,,,,,,,,,,,,,,,,,,,,,,,,,,,,,,,,,,,,,,,,,,,,,,,,,
,,,,,V3_091,21,Female,2025-01-30_13h56.20.525,jersey_experiment_5_v3,2023.2.2,Win32,84.74576271,,,,,,15.3114,19.4137,return,4.0632,,,,,,,,,,,,,,,,,,,,,,,,,,,,,,,,,,,,,,,,,,,,,,,,,,,,,,,,,,,,,,,,,,,,,
,,,,,V3_091,21,Female,2025-01-30_13h56.20.525,jersey_experiment_5_v3,2023.2.2,Win32,84.74576271,,,,,,,,,,,19.4138,33.9791,return,14.5519,,,,,,,,,,,,,,,,,,,,,,,,,,,,,,,,,,,,,,,,,,,,,,,,,,,,,,,,,,,,,,,,
,,,,,V3_091,21,Female,2025-01-30_13h56.20.525,jersey_experiment_5_v3,2023.2.2,Win32,84.74576271,,,,,,,,,,,,,,,,33.9807,35.2732,35.2732,43.5795,return,1.8839,,24.609375,0,0,0,42,1,FBP-OG-19.png,0.4,1.2,43,0.5,,,,,,,,,,,,,,,,,,,,,,,,,,,,,,,,,,,,,,,,,,,,,
,,,,,V3_091,21,Female,2025-01-30_13h56.20.525,jersey_experiment_5_v3,2023.2.2,Win32,84.74576271,,,,,,,,,,,,,,,,43.5796,45.1325,45.1325,47.6267,return,0.9995,,49.73958333,0,1,1,5,1,FBP-YG-81.png,0.35,1.2,6,0.75,,,,,,,,,,,,,,,,,,,,,,,,,,,,,,,,,,,,,,,,,,,,,
,,,,,V3_091,21,Female,2025-01-30_13h56.20.525,jersey_experiment_5_v3,2023.2.2,Win32,84.74576271,,,,,,,,,,,,,,,,47.6269,49.1795,49.1795,54.6034,return,3.5987,,74.86979167,0,2,2,53,1,FBP-RB-18.png,0.43,1.2,54,0.75,,,,,,,,,,,,,,,,,,,,,,,,,,,,,,,,,,,,,,,,,,,,,
,,,,,V3_091,21,Female,2025-01-30_13h56.20.525,jersey_experiment_5_v3,2023.2.2,Win32,84.74576271,,,,,,,,,,,,,,,,54.6037,55.8975,55.8975,62.6626,return,1.277,,49.34895833,0,3,3,41,1,FBP-OG-19.png,0.37,1.2,42,0.5,,,,,,,,,,,,,,,,,,,,,,,,,,,,,,,,,,,,,,,,,,,,,
,,,,,V3_091,21,Female,2025-01-30_13h56.20.525,jersey_experiment_5_v3,2023.2.2,Win32,84.74576271,,,,,,,,,,,,,,,,62.6628,64.2154,64.2155,67.5922,return,0.8638,,56.51041667,0,4,4,11,1,FBP-YG-91.png,0.37,1.2,12,0.75,,,,,,,,,,,,,,,,,,,,,,,,,,,,,,,,,,,,,,,,,,,,,
,,,,,V3_091,21,Female,2025-01-30_13h56.20.525,jersey_experiment_5_v3,2023.2.2,Win32,84.74576271,,,,,,,,,,,,,,,,67.5925,69.1453,69.1453,71.8864,return,0.8707,,74.609375,0,5,5,14,1,FBP-YG-91.png,0.45,1.2,15,0.75,,,,,,,,,,,,,,,,,,,,,,,,,,,,,,,,,,,,,,,,,,,,,
,,,,,V3_091,21,Female,2025-01-30_13h56.20.525,jersey_experiment_5_v3,2023.2.2,Win32,84.74576271,,,,,,,,,,,,,,,,71.8866,73.4394,73.4394,76.4277,return,0.8351,,57.94270833,0,6,6,7,1,FBP-YG-81.png,0.4,1.2,8,0.75,,,,,,,,,,,,,,,,,,,,,,,,,,,,,,,,,,,,,,,,,,,,,
,,,,,V3_091,21,Female,2025-01-30_13h56.20.525,jersey_experiment_5_v3,2023.2.2,Win32,84.74576271,,,,,,,,,,,,,,,,76.428,77.9812,77.9813,80.7456,return,0.8021,,55.859375,0,7,7,17,1,FBP-PT-17.png,0.4,1.2,18,0.75,,,,,,,,,,,,,,,,,,,,,,,,,,,,,,,,,,,,,,,,,,,,,
,,,,,V3_091,21,Female,2025-01-30_13h56.20.525,jersey_experiment_5_v3,2023.2.2,Win32,84.74576271,,,,,,,,,,,,,,,,80.7458,82.2984,82.2985,85.3222,return,0.7904,,74.609375,0,8,8,58,1,FBP-RB-19.png,0.43,1.2,59,0.75,,,,,,,,,,,,,,,,,,,,,,,,,,,,,,,,,,,,,,,,,,,,,
,,,,,V3_091,21,Female,2025-01-30_13h56.20.525,jersey_experiment_5_v3,2023.2.2,Win32,84.74576271,,,,,,,,,,,,,,,,85.3225,86.8751,86.8751,89.0164,return,0.8281,,75,0,9,9,24,1,FBP-PT-18.png,0.45,1.2,25,0.75,,,,,,,,,,,,,,,,,,,,,,,,,,,,,,,,,,,,,,,,,,,,,
,,,,,V3_091,21,Female,2025-01-30_13h56.20.525,jersey_experiment_5_v3,2023.2.2,Win32,84.74576271,,,,,,,,,,,,,,,,89.0167,90.5694,90.5694,94.9109,return,1.7876,,37.76041667,0,10,10,6,1,FBP-YG-81.png,0.37,1.2,7,0.75,,,,,,,,,,,,,,,,,,,,,,,,,,,,,,,,,,,,,,,,,,,,,
,,,,,V3_091,21,Female,2025-01-30_13h56.20.525,jersey_experiment_5_v3,2023.2.2,Win32,84.74576271,,,,,,,,,,,,,,,,94.9113,96.205,96.205,101.0169,return,1.6743,,74.73958333,0,11,11,39,1,FBP-OG-18.png,0.45,1.2,40,0.5,,,,,,,,,,,,,,,,,,,,,,,,,,,,,,,,,,,,,,,,,,,,,
,,,,,V3_091,21,Female,2025-01-30_13h56.20.525,jersey_experiment_5_v3,2023.2.2,Win32,84.74576271,,,,,,,,,,,,,,,,101.0172,102.5698,102.5698,106.2524,return,0.8854,,24.86979167,0,12,12,20,1,FBP-PT-18.png,0.35,1.2,21,0.75,,,,,,,,,,,,,,,,,,,,,,,,,,,,,,,,,,,,,,,,,,,,,
,,,,,V3_091,21,Female,2025-01-30_13h56.20.525,jersey_experiment_5_v3,2023.2.2,Win32,84.74576271,,,,,,,,,,,,,,,,106.2525,107.8052,107.8053,113.9822,return,0.965,,57.68229167,0,13,13,27,1,FBP-PT-19.png,0.4,1.2,28,0.75,,,,,,,,,,,,,,,,,,,,,,,,,,,,,,,,,,,,,,,,,,,,,
,,,,,V3_091,21,Female,2025-01-30_13h56.20.525,jersey_experiment_5_v3,2023.2.2,Win32,84.74576271,,,,,,,,,,,,,,,,113.9824,115.5352,115.5353,118.1703,return,0.8261,,74.86979167,0,14,14,19,1,FBP-PT-17.png,0.45,1.2,20,0.75,,,,,,,,,,,,,,,,,,,,,,,,,,,,,,,,,,,,,,,,,,,,,
,,,,,V3_091,21,Female,2025-01-30_13h56.20.525,jersey_experiment_5_v3,2023.2.2,Win32,84.74576271,,,,,,,,,,,,,,,,118.1706,119.712,119.7121,122.853,return,0.9119,,24.86979167,0,15,15,16,1,FBP-PT-17.png,0.37,1.2,17,0.75,,,,,,,,,,,,,,,,,,,,,,,,,,,,,,,,,,,,,,,,,,,,,
,,,,,V3_091,21,Female,2025-01-30_13h56.20.525,jersey_experiment_5_v3,2023.2.2,Win32,84.74576271,,,,,,,,,,,,,,,,122.8532,124.1472,124.1473,127.0768,return,0.7347,,74.86979167,0,16,16,34,1,FBP-OG-17.png,0.45,1.2,35,0.5,,,,,,,,,,,,,,,,,,,,,,,,,,,,,,,,,,,,,,,,,,,,,
,,,,,V3_091,21,Female,2025-01-30_13h56.20.525,jersey_experiment_5_v3,2023.2.2,Win32,84.74576271,,,,,,,,,,,,,,,,127.0771,128.6298,128.6298,130.3356,return,0.622,,74.86979167,0,17,17,49,1,FBP-RB-17.png,0.45,1.2,50,0.75,,,,,,,,,,,,,,,,,,,,,,,,,,,,,,,,,,,,,,,,,,,,,
,,,,,V3_091,21,Female,2025-01-30_13h56.20.525,jersey_experiment_5_v3,2023.2.2,Win32,84.74576271,,,,,,,,,,,,,,,,130.3359,131.8886,131.8887,135.7831,return,0.7708,,62.890625,0,18,18,23,1,FBP-PT-18.png,0.43,1.2,24,0.75,,,,,,,,,,,,,,,,,,,,,,,,,,,,,,,,,,,,,,,,,,,,,
,,,,,V3_091,21,Female,2025-01-30_13h56.20.525,jersey_experiment_5_v3,2023.2.2,Win32,84.74576271,,,,,,,,,,,,,,,,135.7834,137.3359,137.3359,140.0066,return,1.1,,74.73958333,0,19,19,4,1,FBP-YG-71.png,0.45,1.2,5,0.75,,,,,,,,,,,,,,,,,,,,,,,,,,,,,,,,,,,,,,,,,,,,,
,,,,,V3_091,21,Female,2025-01-30_13h56.20.525,jersey_experiment_5_v3,2023.2.2,Win32,84.74576271,,,,,,,,,,,,,,,,140.0071,141.5595,141.5595,144.5361,return,0.9212,,62.5,0,20,20,28,1,FBP-PT-19.png,0.43,1.2,29,0.75,,,,,,,,,,,,,,,,,,,,,,,,,,,,,,,,,,,,,,,,,,,,,
,,,,,V3_091,21,Female,2025-01-30_13h56.20.525,jersey_experiment_5_v3,2023.2.2,Win32,84.74576271,,,,,,,,,,,,,,,,144.5364,146.0892,146.0892,148.6541,return,0.6976,,61.19791667,0,21,21,12,1,FBP-YG-91.png,0.4,1.2,13,0.75,,,,,,,,,,,,,,,,,,,,,,,,,,,,,,,,,,,,,,,,,,,,,
,,,,,V3_091,21,Female,2025-01-30_13h56.20.525,jersey_experiment_5_v3,2023.2.2,Win32,84.74576271,,,,,,,,,,,,,,,,148.6543,150.207,150.207,152.3247,return,0.773,,62.890625,0,22,22,13,1,FBP-YG-91.png,0.43,1.2,14,0.75,,,,,,,,,,,,,,,,,,,,,,,,,,,,,,,,,,,,,,,,,,,,,
,,,,,V3_091,21,Female,2025-01-30_13h56.20.525,jersey_experiment_5_v3,2023.2.2,Win32,84.74576271,,,,,,,,,,,,,,,,152.3249,153.8778,153.8778,156.2777,return,0.7013,,74.86979167,0,23,23,54,1,FBP-RB-18.png,0.45,1.2,55,0.75,,,,,,,,,,,,,,,,,,,,,,,,,,,,,,,,,,,,,,,,,,,,,
,,,,,V3_091,21,Female,2025-01-30_13h56.20.525,jersey_experiment_5_v3,2023.2.2,Win32,84.74576271,,,,,,,,,,,,,,,,156.278,157.8308,157.8309,160.878,return,0.6904,,25,0,24,24,26,1,FBP-PT-19.png,0.37,1.2,27,0.75,,,,,,,,,,,,,,,,,,,,,,,,,,,,,,,,,,,,,,,,,,,,,
,,,,,V3_091,21,Female,2025-01-30_13h56.20.525,jersey_experiment_5_v3,2023.2.2,Win32,84.74576271,,,,,,,,,,,,,,,,160.8785,162.431,162.4311,165.5135,return,0.6972,,37.23958333,0,25,25,52,1,FBP-RB-18.png,0.4,1.2,53,0.75,,,,,,,,,,,,,,,,,,,,,,,,,,,,,,,,,,,,,,,,,,,,,
,,,,,V3_091,21,Female,2025-01-30_13h56.20.525,jersey_experiment_5_v3,2023.2.2,Win32,84.74576271,,,,,,,,,,,,,,,,165.5139,166.8076,166.8076,169.0313,return,0.6292,,24.86979167,0,26,26,36,1,FBP-OG-18.png,0.37,1.2,37,0.5,,,,,,,,,,,,,,,,,,,,,,,,,,,,,,,,,,,,,,,,,,,,,
,,,,,V3_091,21,Female,2025-01-30_13h56.20.525,jersey_experiment_5_v3,2023.2.2,Win32,84.74576271,,,,,,,,,,,,,,,,169.0315,170.3254,170.3254,172.8785,return,0.6702,,61.97916667,0,27,27,37,1,FBP-OG-18.png,0.4,1.2,38,0.5,,,,,,,,,,,,,,,,,,,,,,,,,,,,,,,,,,,,,,,,,,,,,
,,,,,V3_091,21,Female,2025-01-30_13h56.20.525,jersey_experiment_5_v3,2023.2.2,Win32,84.74576271,,,,,,,,,,,,,,,,172.8789,174.4314,174.4314,176.0079,return,0.8051,,61.97916667,0,28,28,46,1,FBP-RB-17.png,0.37,1.2,47,0.75,,,,,,,,,,,,,,,,,,,,,,,,,,,,,,,,,,,,,,,,,,,,,
,,,,,V3_091,21,Female,2025-01-30_13h56.20.525,jersey_experiment_5_v3,2023.2.2,Win32,84.74576271,,,,,,,,,,,,,,,,176.0082,177.561,177.5611,180.2551,return,0.8944,,74.609375,0,29,29,3,1,FBP-YG-71.png,0.43,1.2,4,0.75,,,,,,,,,,,,,,,,,,,,,,,,,,,,,,,,,,,,,,,,,,,,,
,,,,,V3_091,21,Female,2025-01-30_13h56.20.525,jersey_experiment_5_v3,2023.2.2,Win32,84.74576271,,,,,,,,,,,,,,,,180.2554,181.5493,181.5493,185.2789,return,1.412,,62.5,0,30,30,31,1,FBP-OG-17.png,0.37,1.2,32,0.5,,,,,,,,,,,,,,,,,,,,,,,,,,,,,,,,,,,,,,,,,,,,,
,,,,,V3_091,21,Female,2025-01-30_13h56.20.525,jersey_experiment_5_v3,2023.2.2,Win32,84.74576271,,,,,,,,,,,,,,,,185.2792,186.832,186.832,190.1262,return,1.1531,,25,0,31,31,50,1,FBP-RB-18.png,0.35,1.2,51,0.75,,,,,,,,,,,,,,,,,,,,,,,,,,,,,,,,,,,,,,,,,,,,,
,,,,,V3_091,21,Female,2025-01-30_13h56.20.525,jersey_experiment_5_v3,2023.2.2,Win32,84.74576271,,,,,,,,,,,,,,,,190.1264,191.679,191.6791,194.0086,return,1.0162,,25,0,32,32,45,1,FBP-RB-17.png,0.35,1.2,46,0.75,,,,,,,,,,,,,,,,,,,,,,,,,,,,,,,,,,,,,,,,,,,,,
,,,,,V3_091,21,Female,2025-01-30_13h56.20.525,jersey_experiment_5_v3,2023.2.2,Win32,84.74576271,,,,,,,,,,,,,,,,194.0088,195.5617,195.5617,199.4206,return,0.6591,,38.02083333,0,33,33,47,1,FBP-RB-17.png,0.4,1.2,48,0.75,,,,,,,,,,,,,,,,,,,,,,,,,,,,,,,,,,,,,,,,,,,,,
,,,,,V3_091,21,Female,2025-01-30_13h56.20.525,jersey_experiment_5_v3,2023.2.2,Win32,84.74576271,,,,,,,,,,,,,,,,199.4209,200.7146,200.7147,202.9737,return,0.5886,,74.47916667,0,34,34,44,1,FBP-OG-19.png,0.45,1.2,45,0.5,,,,,,,,,,,,,,,,,,,,,,,,,,,,,,,,,,,,,,,,,,,,,
,,,,,V3_091,21,Female,2025-01-30_13h56.20.525,jersey_experiment_5_v3,2023.2.2,Win32,84.74576271,,,,,,,,,,,,,,,,202.9741,204.2679,204.2679,206.8091,return,0.6504,,25,0,35,35,30,1,FBP-OG-17.png,0.35,1.2,31,0.5,,,,,,,,,,,,,,,,,,,,,,,,,,,,,,,,,,,,,,,,,,,,,
,,,,,V3_091,21,Female,2025-01-30_13h56.20.525,jersey_experiment_5_v3,2023.2.2,Win32,84.74576271,,,,,,,,,,,,,,,,206.8094,208.3622,208.3623,210.5387,return,0.8009,,61.58854167,0,36,36,2,1,FBP-YG-71.png,0.4,1.2,3,0.75,,,,,,,,,,,,,,,,,,,,,,,,,,,,,,,,,,,,,,,,,,,,,
,,,,,V3_091,21,Female,2025-01-30_13h56.20.525,jersey_experiment_5_v3,2023.2.2,Win32,84.74576271,,,,,,,,,,,,,,,,210.5391,212.0916,212.0916,215.0682,return,0.683,,75,0,37,37,18,1,FBP-PT-17.png,0.43,1.2,19,0.75,,,,,,,,,,,,,,,,,,,,,,,,,,,,,,,,,,,,,,,,,,,,,
,,,,,V3_091,21,Female,2025-01-30_13h56.20.525,jersey_experiment_5_v3,2023.2.2,Win32,84.74576271,,,,,,,,,,,,,,,,215.0686,216.6212,216.6212,219.2094,return,0.7798,,24.609375,0,38,38,55,1,FBP-RB-19.png,0.35,1.2,56,0.75,,,,,,,,,,,,,,,,,,,,,,,,,,,,,,,,,,,,,,,,,,,,,
,,,,,V3_091,21,Female,2025-01-30_13h56.20.525,jersey_experiment_5_v3,2023.2.2,Win32,84.74576271,,,,,,,,,,,,,,,,219.2097,220.7625,220.7626,222.2332,return,0.7081,,24.609375,0,39,39,1,1,FBP-YG-71.png,0.37,1.2,2,0.75,,,,,,,,,,,,,,,,,,,,,,,,,,,,,,,,,,,,,,,,,,,,,
,,,,,V3_091,21,Female,2025-01-30_13h56.20.525,jersey_experiment_5_v3,2023.2.2,Win32,84.74576271,,,,,,,,,,,,,,,,222.2335,223.7862,223.7862,225.1746,return,0.7243,,24.609375,0,40,40,10,1,FBP-YG-91.png,0.35,1.2,11,0.75,,,,,,,,,,,,,,,,,,,,,,,,,,,,,,,,,,,,,,,,,,,,,
,,,,,V3_091,21,Female,2025-01-30_13h56.20.525,jersey_experiment_5_v3,2023.2.2,Win32,84.74576271,,,,,,,,,,,,,,,,225.1748,226.7276,226.7276,228.5395,return,0.8134,,25.13020833,0,41,41,56,1,FBP-RB-19.png,0.37,1.2,57,0.75,,,,,,,,,,,,,,,,,,,,,,,,,,,,,,,,,,,,,,,,,,,,,
,,,,,V3_091,21,Female,2025-01-30_13h56.20.525,jersey_experiment_5_v3,2023.2.2,Win32,84.74576271,,,,,,,,,,,,,,,,228.5397,230.0923,230.0924,233.0337,return,0.7219,,49.609375,0,42,42,22,1,FBP-PT-18.png,0.4,1.2,23,0.75,,,,,,,,,,,,,,,,,,,,,,,,,,,,,,,,,,,,,,,,,,,,,
,,,,,V3_091,21,Female,2025-01-30_13h56.20.525,jersey_experiment_5_v3,2023.2.2,Win32,84.74576271,,,,,,,,,,,,,,,,233.034,234.5867,234.5868,237.4455,return,0.9016,,75,0,43,43,59,1,FBP-RB-19.png,0.45,1.2,60,0.75,,,,,,,,,,,,,,,,,,,,,,,,,,,,,,,,,,,,,,,,,,,,,
,,,,,V3_091,21,Female,2025-01-30_13h56.20.525,jersey_experiment_5_v3,2023.2.2,Win32,84.74576271,,,,,,,,,,,,,,,,237.4458,238.9986,238.9986,241.575,return,0.653,,74.73958333,0,44,44,57,1,FBP-RB-19.png,0.4,1.2,58,0.75,,,,,,,,,,,,,,,,,,,,,,,,,,,,,,,,,,,,,,,,,,,,,
,,,,,V3_091,21,Female,2025-01-30_13h56.20.525,jersey_experiment_5_v3,2023.2.2,Win32,84.74576271,,,,,,,,,,,,,,,,241.5753,243.1166,243.1166,245.2459,return,0.7662,,25.26041667,0,45,45,25,1,FBP-PT-19.png,0.35,1.2,26,0.75,,,,,,,,,,,,,,,,,,,,,,,,,,,,,,,,,,,,,,,,,,,,,
,,,,,V3_091,21,Female,2025-01-30_13h56.20.525,jersey_experiment_5_v3,2023.2.2,Win32,84.74576271,,,,,,,,,,,,,,,,245.2461,246.7989,246.799,249.5991,return,0.7427,,36.84895833,0,46,46,21,1,FBP-PT-18.png,0.37,1.2,22,0.75,,,,,,,,,,,,,,,,,,,,,,,,,,,,,,,,,,,,,,,,,,,,,
,,,,,V3_091,21,Female,2025-01-30_13h56.20.525,jersey_experiment_5_v3,2023.2.2,Win32,84.74576271,,,,,,,,,,,,,,,,249.5994,250.8931,250.8932,252.8461,return,0.7186,,24.47916667,0,47,47,35,1,FBP-OG-18.png,0.35,1.2,36,0.5,,,,,,,,,,,,,,,,,,,,,,,,,,,,,,,,,,,,,,,,,,,,,
,,,,,V3_091,21,Female,2025-01-30_13h56.20.525,jersey_experiment_5_v3,2023.2.2,Win32,84.74576271,,,,,,,,,,,,,,,,252.8465,254.3992,254.3993,257.8463,return,0.6186,,25,0,48,48,15,1,FBP-PT-17.png,0.35,1.2,16,0.75,,,,,,,,,,,,,,,,,,,,,,,,,,,,,,,,,,,,,,,,,,,,,
,,,,,V3_091,21,Female,2025-01-30_13h56.20.525,jersey_experiment_5_v3,2023.2.2,Win32,84.74576271,,,,,,,,,,,,,,,,257.8467,259.3996,259.3996,261.529,return,0.7923,,74.73958333,0,49,49,29,1,FBP-PT-19.png,0.45,1.2,30,0.75,,,,,,,,,,,,,,,,,,,,,,,,,,,,,,,,,,,,,,,,,,,,,
,,,,,V3_091,21,Female,2025-01-30_13h56.20.525,jersey_experiment_5_v3,2023.2.2,Win32,84.74576271,,,,,,,,,,,,,,,,261.5292,263.0818,263.0819,264.7995,return,0.931,,74.73958333,0,50,50,9,1,FBP-YG-81.png,0.45,1.2,10,0.75,,,,,,,,,,,,,,,,,,,,,,,,,,,,,,,,,,,,,,,,,,,,,
,,,,,V3_091,21,Female,2025-01-30_13h56.20.525,jersey_experiment_5_v3,2023.2.2,Win32,84.74576271,,,,,,,,,,,,,,,,264.7998,266.3526,266.3526,268.1173,return,1.0188,,74.73958333,0,51,51,48,1,FBP-RB-17.png,0.43,1.2,49,0.75,,,,,,,,,,,,,,,,,,,,,,,,,,,,,,,,,,,,,,,,,,,,,
,,,,,V3_091,21,Female,2025-01-30_13h56.20.525,jersey_experiment_5_v3,2023.2.2,Win32,84.74576271,,,,,,,,,,,,,,,,268.1176,269.6704,269.6704,271.2585,return,0.9073,,74.73958333,0,52,52,8,1,FBP-YG-81.png,0.43,1.2,9,0.75,,,,,,,,,,,,,,,,,,,,,,,,,,,,,,,,,,,,,,,,,,,,,
,,,,,V3_091,21,Female,2025-01-30_13h56.20.525,jersey_experiment_5_v3,2023.2.2,Win32,84.74576271,,,,,,,,,,,,,,,,271.2588,272.8115,272.8116,274.8116,return,0.8485,,61.97916667,0,53,53,51,1,FBP-RB-18.png,0.37,1.2,52,0.75,,,,,,,,,,,,,,,,,,,,,,,,,,,,,,,,,,,,,,,,,,,,,
,,,,,V3_091,21,Female,2025-01-30_13h56.20.525,jersey_experiment_5_v3,2023.2.2,Win32,84.74576271,,,,,,,,,,,,,,,,274.8118,276.1058,276.1058,278.0941,return,0.8475,,62.76041667,0,54,54,38,1,FBP-OG-18.png,0.43,1.2,39,0.5,,,,,,,,,,,,,,,,,,,,,,,,,,,,,,,,,,,,,,,,,,,,,
,,,,,V3_091,21,Female,2025-01-30_13h56.20.525,jersey_experiment_5_v3,2023.2.2,Win32,84.74576271,,,,,,,,,,,,,,,,278.0944,279.3884,279.3884,281.4002,return,0.8139,,62.76041667,0,55,55,32,1,FBP-OG-17.png,0.4,1.2,33,0.5,,,,,,,,,,,,,,,,,,,,,,,,,,,,,,,,,,,,,,,,,,,,,
,,,,,V3_091,21,Female,2025-01-30_13h56.20.525,jersey_experiment_5_v3,2023.2.2,Win32,84.74576271,,,,,,,,,,,,,,,,281.4005,282.9532,282.9532,285.0945,return,1.0184,,36.97916667,0,56,56,0,1,FBP-YG-71.png,0.35,1.2,1,0.75,,,,,,,,,,,,,,,,,,,,,,,,,,,,,,,,,,,,,,,,,,,,,
,,,,,V3_091,21,Female,2025-01-30_13h56.20.525,jersey_experiment_5_v3,2023.2.2,Win32,84.74576271,,,,,,,,,,,,,,,,285.0946,286.3886,286.3886,288.8592,return,0.9664,,49.73958333,0,57,57,43,1,FBP-OG-19.png,0.43,1.2,44,0.5,,,,,,,,,,,,,,,,,,,,,,,,,,,,,,,,,,,,,,,,,,,,,
,,,,,V3_091,21,Female,2025-01-30_13h56.20.525,jersey_experiment_5_v3,2023.2.2,Win32,84.74576271,,,,,,,,,,,,,,,,288.8594,290.1534,290.1535,292.3655,return,0.8707,,61.58854167,0,58,58,33,1,FBP-OG-17.png,0.43,1.2,34,0.5,,,,,,,,,,,,,,,,,,,,,,,,,,,,,,,,,,,,,,,,,,,,,
,,,,,V3_091,21,Female,2025-01-30_13h56.20.525,jersey_experiment_5_v3,2023.2.2,Win32,84.74576271,,,,,,,,,,,,,,,,292.3661,293.6595,293.6596,295.8124,return,0.7341,,24.73958333,0,59,59,40,1,FBP-OG-19.png,0.35,1.2,41,0.5,,,,,,,,,,,,,,,,,,,,,,,,,,,,,,,,,,,,,,,,,,,,,
,,,,,V3_091,21,Female,2025-01-30_13h56.20.525,jersey_experiment_5_v3,2023.2.2,Win32,84.74576271,,,,,,,,,,,,,,,,295.8139,297.3655,297.3655,298.6008,return,0.7205,,24.73958333,,,,,,FBP-PT-91.png,0.35,1.2,26,0.75,0,0,0,25,1,,,,,,,,,,,,,,,,,,,,,,,,,,,,,,,,,,,,,,,,
,,,,,V3_091,21,Female,2025-01-30_13h56.20.525,jersey_experiment_5_v3,2023.2.2,Win32,84.74576271,,,,,,,,,,,,,,,,298.6011,300.1539,300.154,302.5186,return,0.7794,,74.86979167,,,,,,FBP-PT-81.png,0.45,1.2,25,0.75,0,1,1,24,1,,,,,,,,,,,,,,,,,,,,,,,,,,,,,,,,,,,,,,,,
,,,,,V3_091,21,Female,2025-01-30_13h56.20.525,jersey_experiment_5_v3,2023.2.2,Win32,84.74576271,,,,,,,,,,,,,,,,302.5189,304.0717,304.0717,306.507,return,0.6715,,62.23958333,,,,,,FBP-PT-91.png,0.4,1.2,28,0.75,0,2,2,27,1,,,,,,,,,,,,,,,,,,,,,,,,,,,,,,,,,,,,,,,,
,,,,,V3_091,21,Female,2025-01-30_13h56.20.525,jersey_experiment_5_v3,2023.2.2,Win32,84.74576271,,,,,,,,,,,,,,,,306.5073,307.8012,307.8012,310.6836,return,0.6956,,25,,,,,,FBP-OG-91.png,0.35,1.2,41,0.5,0,3,3,40,1,,,,,,,,,,,,,,,,,,,,,,,,,,,,,,,,,,,,,,,,
,,,,,V3_091,21,Female,2025-01-30_13h56.20.525,jersey_experiment_5_v3,2023.2.2,Win32,84.74576271,,,,,,,,,,,,,,,,310.684,311.9777,311.9779,314.6484,return,0.7444,,36.97916667,,,,,,FBP-OG-91.png,0.4,1.2,43,0.5,0,4,4,42,1,,,,,,,,,,,,,,,,,,,,,,,,,,,,,,,,,,,,,,,,
,,,,,V3_091,21,Female,2025-01-30_13h56.20.525,jersey_experiment_5_v3,2023.2.2,Win32,84.74576271,,,,,,,,,,,,,,,,314.6486,316.2015,316.2016,318.2134,return,0.7124,,25.26041667,,,,,,FBP-RB-91.png,0.35,1.2,56,0.75,0,5,5,55,1,,,,,,,,,,,,,,,,,,,,,,,,,,,,,,,,,,,,,,,,
,,,,,V3_091,21,Female,2025-01-30_13h56.20.525,jersey_experiment_5_v3,2023.2.2,Win32,84.74576271,,,,,,,,,,,,,,,,318.2136,319.5075,319.5076,320.9077,return,0.7309,,25.26041667,,,,,,FBP-OG-81.png,0.35,1.2,36,0.5,0,6,6,35,1,,,,,,,,,,,,,,,,,,,,,,,,,,,,,,,,,,,,,,,,
,,,,,V3_091,21,Female,2025-01-30_13h56.20.525,jersey_experiment_5_v3,2023.2.2,Win32,84.74576271,,,,,,,,,,,,,,,,320.9079,322.4606,322.4606,325.7548,return,0.7081,,62.890625,,,,,,FBP-RB-91.png,0.43,1.2,59,0.75,0,7,7,58,1,,,,,,,,,,,,,,,,,,,,,,,,,,,,,,,,,,,,,,,,
,,,,,V3_091,21,Female,2025-01-30_13h56.20.525,jersey_experiment_5_v3,2023.2.2,Win32,84.74576271,,,,,,,,,,,,,,,,325.7552,327.3077,327.3078,329.9902,return,1.4759,,37.5,,,,,,FBP-RB-81.png,0.35,1.2,51,0.75,0,8,8,50,1,,,,,,,,,,,,,,,,,,,,,,,,,,,,,,,,,,,,,,,,
,,,,,V3_091,21,Female,2025-01-30_13h56.20.525,jersey_experiment_5_v3,2023.2.2,Win32,84.74576271,,,,,,,,,,,,,,,,329.9905,331.2845,331.2846,332.8256,return,0.6744,,36.84895833,,,,,,FBP-OG-91.png,0.37,1.2,42,0.5,0,9,9,41,1,,,,,,,,,,,,,,,,,,,,,,,,,,,,,,,,,,,,,,,,
,,,,,V3_091,21,Female,2025-01-30_13h56.20.525,jersey_experiment_5_v3,2023.2.2,Win32,84.74576271,,,,,,,,,,,,,,,,332.8259,334.1198,334.1199,336.2021,return,0.7793,,74.47916667,,,,,,FBP-OG-91.png,0.45,1.2,45,0.5,0,10,10,44,1,,,,,,,,,,,,,,,,,,,,,,,,,,,,,,,,,,,,,,,,
,,,,,V3_091,21,Female,2025-01-30_13h56.20.525,jersey_experiment_5_v3,2023.2.2,Win32,84.74576271,,,,,,,,,,,,,,,,336.2024,337.7555,337.7556,339.7436,return,0.5895,,49.73958333,,,,,,FBP-PT-81.png,0.37,1.2,22,0.75,0,11,11,21,1,,,,,,,,,,,,,,,,,,,,,,,,,,,,,,,,,,,,,,,,
,,,,,V3_091,21,Female,2025-01-30_13h56.20.525,jersey_experiment_5_v3,2023.2.2,Win32,84.74576271,,,,,,,,,,,,,,,,339.7439,341.0378,341.0378,343.1319,return,0.7312,,74.73958333,,,,,,FBP-OG-81.png,0.45,1.2,40,0.5,0,12,12,39,1,,,,,,,,,,,,,,,,,,,,,,,,,,,,,,,,,,,,,,,,
,,,,,V3_091,21,Female,2025-01-30_13h56.20.525,jersey_experiment_5_v3,2023.2.2,Win32,84.74576271,,,,,,,,,,,,,,,,343.1323,344.6851,344.6851,346.3791,return,0.6858,,50,,,,,,FBP-YG-17.png,0.37,1.2,2,0.75,0,13,13,1,1,,,,,,,,,,,,,,,,,,,,,,,,,,,,,,,,,,,,,,,,
,,,,,V3_091,21,Female,2025-01-30_13h56.20.525,jersey_experiment_5_v3,2023.2.2,Win32,84.74576271,,,,,,,,,,,,,,,,346.3794,347.9322,347.9323,349.5674,return,1.106,,50,,,,,,FBP-PT-71.png,0.35,1.2,16,0.75,0,14,14,15,1,,,,,,,,,,,,,,,,,,,,,,,,,,,,,,,,,,,,,,,,
,,,,,V3_091,21,Female,2025-01-30_13h56.20.525,jersey_experiment_5_v3,2023.2.2,Win32,84.74576271,,,,,,,,,,,,,,,,349.5677,351.1205,351.1206,353.1794,return,0.8476,,50,,,,,,FBP-YG-19.png,0.35,1.2,11,0.75,0,15,15,10,1,,,,,,,,,,,,,,,,,,,,,,,,,,,,,,,,,,,,,,,,
,,,,,V3_091,21,Female,2025-01-30_13h56.20.525,jersey_experiment_5_v3,2023.2.2,Win32,84.74576271,,,,,,,,,,,,,,,,353.1798,354.4735,354.4735,357.1091,return,0.9613,,75,,,,,,FBP-OG-71.png,0.43,1.2,34,0.5,0,16,16,33,1,,,,,,,,,,,,,,,,,,,,,,,,,,,,,,,,,,,,,,,,
,,,,,V3_091,21,Female,2025-01-30_13h56.20.525,jersey_experiment_5_v3,2023.2.2,Win32,84.74576271,,,,,,,,,,,,,,,,357.1093,358.6619,358.662,360.0856,return,0.9722,,75,,,,,,FBP-YG-17.png,0.43,1.2,4,0.75,0,17,17,3,1,,,,,,,,,,,,,,,,,,,,,,,,,,,,,,,,,,,,,,,,
,,,,,V3_091,21,Female,2025-01-30_13h56.20.525,jersey_experiment_5_v3,2023.2.2,Win32,84.74576271,,,,,,,,,,,,,,,,360.0858,361.6385,361.6386,362.9915,return,0.8603,,75,,,,,,FBP-PT-71.png,0.43,1.2,19,0.75,0,18,18,18,1,,,,,,,,,,,,,,,,,,,,,,,,,,,,,,,,,,,,,,,,
,,,,,V3_091,21,Female,2025-01-30_13h56.20.525,jersey_experiment_5_v3,2023.2.2,Win32,84.74576271,,,,,,,,,,,,,,,,362.9919,364.5445,364.5445,368.4741,return,1.4264,,50.13020833,,,,,,FBP-YG-18.png,0.35,1.2,6,0.75,0,19,19,5,1,,,,,,,,,,,,,,,,,,,,,,,,,,,,,,,,,,,,,,,,
,,,,,V3_091,21,Female,2025-01-30_13h56.20.525,jersey_experiment_5_v3,2023.2.2,Win32,84.74576271,,,,,,,,,,,,,,,,368.4744,370.0271,370.0272,372.2624,return,0.7355,,74.73958333,,,,,,FBP-RB-81.png,0.45,1.2,55,0.75,0,20,20,54,1,,,,,,,,,,,,,,,,,,,,,,,,,,,,,,,,,,,,,,,,
,,,,,V3_091,21,Female,2025-01-30_13h56.20.525,jersey_experiment_5_v3,2023.2.2,Win32,84.74576271,,,,,,,,,,,,,,,,372.2627,373.8154,373.8155,375.6273,return,0.9316,,74.73958333,,,,,,FBP-YG-18.png,0.45,1.2,10,0.75,0,21,21,9,1,,,,,,,,,,,,,,,,,,,,,,,,,,,,,,,,,,,,,,,,
,,,,,V3_091,21,Female,2025-01-30_13h56.20.525,jersey_experiment_5_v3,2023.2.2,Win32,84.74576271,,,,,,,,,,,,,,,,375.6276,377.1802,377.1802,379.851,return,0.8598,,50,,,,,,FBP-YG-17.png,0.35,1.2,1,0.75,0,22,22,0,1,,,,,,,,,,,,,,,,,,,,,,,,,,,,,,,,,,,,,,,,
,,,,,V3_091,21,Female,2025-01-30_13h56.20.525,jersey_experiment_5_v3,2023.2.2,Win32,84.74576271,,,,,,,,,,,,,,,,379.8513,381.1451,381.1452,383.4157,return,0.77,,55.98958333,,,,,,FBP-OG-71.png,0.4,1.2,33,0.5,0,23,23,32,1,,,,,,,,,,,,,,,,,,,,,,,,,,,,,,,,,,,,,,,,
,,,,,V3_091,21,Female,2025-01-30_13h56.20.525,jersey_experiment_5_v3,2023.2.2,Win32,84.74576271,,,,,,,,,,,,,,,,383.4159,384.9687,384.9688,386.757,return,0.7491,,59.63541667,,,,,,FBP-PT-91.png,0.43,1.2,29,0.75,0,24,24,28,1,,,,,,,,,,,,,,,,,,,,,,,,,,,,,,,,,,,,,,,,
,,,,,V3_091,21,Female,2025-01-30_13h56.20.525,jersey_experiment_5_v3,2023.2.2,Win32,84.74576271,,,,,,,,,,,,,,,,386.7574,388.3103,388.3103,390.4867,return,0.7594,,74.34895833,,,,,,FBP-RB-71.png,0.45,1.2,50,0.75,0,25,25,49,1,,,,,,,,,,,,,,,,,,,,,,,,,,,,,,,,,,,,,,,,
,,,,,V3_091,21,Female,2025-01-30_13h56.20.525,jersey_experiment_5_v3,2023.2.2,Win32,84.74576271,,,,,,,,,,,,,,,,390.487,392.0396,392.0397,394.334,return,0.7053,,66.796875,,,,,,FBP-YG-18.png,0.4,1.2,8,0.75,0,26,26,7,1,,,,,,,,,,,,,,,,,,,,,,,,,,,,,,,,,,,,,,,,
,,,,,V3_091,21,Female,2025-01-30_13h56.20.525,jersey_experiment_5_v3,2023.2.2,Win32,84.74576271,,,,,,,,,,,,,,,,394.3344,395.628,395.628,399.2751,return,0.707,,42.05729167,,,,,,FBP-OG-71.png,0.35,1.2,31,0.5,0,27,27,30,1,,,,,,,,,,,,,,,,,,,,,,,,,,,,,,,,,,,,,,,,
,,,,,V3_091,21,Female,2025-01-30_13h56.20.525,jersey_experiment_5_v3,2023.2.2,Win32,84.74576271,,,,,,,,,,,,,,,,399.2754,400.8283,400.8284,403.0636,return,0.7232,,71.35416667,,,,,,FBP-PT-91.png,0.45,1.2,30,0.75,0,28,28,29,1,,,,,,,,,,,,,,,,,,,,,,,,,,,,,,,,,,,,,,,,
,,,,,V3_091,21,Female,2025-01-30_13h56.20.525,jersey_experiment_5_v3,2023.2.2,Win32,84.74576271,,,,,,,,,,,,,,,,403.0639,404.3578,404.3578,406.3108,return,0.6165,,75,,,,,,FBP-OG-71.png,0.45,1.2,35,0.5,0,29,29,34,1,,,,,,,,,,,,,,,,,,,,,,,,,,,,,,,,,,,,,,,,
,,,,,V3_091,21,Female,2025-01-30_13h56.20.525,jersey_experiment_5_v3,2023.2.2,Win32,84.74576271,,,,,,,,,,,,,,,,406.3112,407.8639,407.8639,410.2521,return,0.6831,,71.09375,,,,,,FBP-YG-18.png,0.43,1.2,9,0.75,0,30,30,8,1,,,,,,,,,,,,,,,,,,,,,,,,,,,,,,,,,,,,,,,,
,,,,,V3_091,21,Female,2025-01-30_13h56.20.525,jersey_experiment_5_v3,2023.2.2,Win32,84.74576271,,,,,,,,,,,,,,,,410.2525,411.8051,411.8051,415.0877,return,0.5779,,68.88020833,,,,,,FBP-PT-71.png,0.45,1.2,20,0.75,0,31,31,19,1,,,,,,,,,,,,,,,,,,,,,,,,,,,,,,,,,,,,,,,,
,,,,,V3_091,21,Female,2025-01-30_13h56.20.525,jersey_experiment_5_v3,2023.2.2,Win32,84.74576271,,,,,,,,,,,,,,,,415.0879,416.6406,416.6407,418.3465,return,0.6251,,61.97916667,,,,,,FBP-RB-81.png,0.4,1.2,53,0.75,0,32,32,52,1,,,,,,,,,,,,,,,,,,,,,,,,,,,,,,,,,,,,,,,,
,,,,,V3_091,21,Female,2025-01-30_13h56.20.525,jersey_experiment_5_v3,2023.2.2,Win32,84.74576271,,,,,,,,,,,,,,,,418.3469,419.8995,419.8995,421.3348,return,0.6752,,61.97916667,,,,,,FBP-YG-19.png,0.43,1.2,14,0.75,0,33,33,13,1,,,,,,,,,,,,,,,,,,,,,,,,,,,,,,,,,,,,,,,,
,,,,,V3_091,21,Female,2025-01-30_13h56.20.525,jersey_experiment_5_v3,2023.2.2,Win32,84.74576271,,,,,,,,,,,,,,,,421.3352,422.888,422.8881,424.2292,return,0.6903,,61.97916667,,,,,,FBP-RB-91.png,0.4,1.2,58,0.75,0,34,34,57,1,,,,,,,,,,,,,,,,,,,,,,,,,,,,,,,,,,,,,,,,
,,,,,V3_091,21,Female,2025-01-30_13h56.20.525,jersey_experiment_5_v3,2023.2.2,Win32,84.74576271,,,,,,,,,,,,,,,,424.2295,425.5233,425.5233,427.7351,return,0.7825,,61.97916667,,,,,,FBP-OG-81.png,0.37,1.2,37,0.5,0,35,35,36,1,,,,,,,,,,,,,,,,,,,,,,,,,,,,,,,,,,,,,,,,
,,,,,V3_091,21,Female,2025-01-30_13h56.20.525,jersey_experiment_5_v3,2023.2.2,Win32,84.74576271,,,,,,,,,,,,,,,,427.7354,429.2883,429.2884,432.3119,return,0.827,,67.83854167,,,,,,FBP-PT-81.png,0.43,1.2,24,0.75,0,36,36,23,1,,,,,,,,,,,,,,,,,,,,,,,,,,,,,,,,,,,,,,,,
,,,,,V3_091,21,Female,2025-01-30_13h56.20.525,jersey_experiment_5_v3,2023.2.2,Win32,84.74576271,,,,,,,,,,,,,,,,432.3121,433.8648,433.8648,435.559,return,0.9438,,67.83854167,,,,,,FBP-YG-17.png,0.4,1.2,3,0.75,0,37,37,2,1,,,,,,,,,,,,,,,,,,,,,,,,,,,,,,,,,,,,,,,,
,,,,,V3_091,21,Female,2025-01-30_13h56.20.525,jersey_experiment_5_v3,2023.2.2,Win32,84.74576271,,,,,,,,,,,,,,,,435.5595,437.1121,437.1121,439.1592,return,0.8177,,67.83854167,,,,,,FBP-RB-81.png,0.37,1.2,52,0.75,0,38,38,51,1,,,,,,,,,,,,,,,,,,,,,,,,,,,,,,,,,,,,,,,,
,,,,,V3_091,21,Female,2025-01-30_13h56.20.525,jersey_experiment_5_v3,2023.2.2,Win32,84.74576271,,,,,,,,,,,,,,,,439.1595,440.7122,440.7122,442.8535,return,0.8754,,67.83854167,,,,,,FBP-RB-91.png,0.37,1.2,57,0.75,0,39,39,56,1,,,,,,,,,,,,,,,,,,,,,,,,,,,,,,,,,,,,,,,,
,,,,,V3_091,21,Female,2025-01-30_13h56.20.525,jersey_experiment_5_v3,2023.2.2,Win32,84.74576271,,,,,,,,,,,,,,,,442.8537,444.1475,444.1475,446.8771,return,0.73,,75.13020833,,,,,,FBP-OG-91.png,0.43,1.2,44,0.5,0,40,40,43,1,,,,,,,,,,,,,,,,,,,,,,,,,,,,,,,,,,,,,,,,
,,,,,V3_091,21,Female,2025-01-30_13h56.20.525,jersey_experiment_5_v3,2023.2.2,Win32,84.74576271,,,,,,,,,,,,,,,,446.8775,448.4301,448.4301,450.7596,return,0.7575,,75.13020833,,,,,,FBP-RB-71.png,0.43,1.2,49,0.75,0,41,41,48,1,,,,,,,,,,,,,,,,,,,,,,,,,,,,,,,,,,,,,,,,
,,,,,V3_091,21,Female,2025-01-30_13h56.20.525,jersey_experiment_5_v3,2023.2.2,Win32,84.74576271,,,,,,,,,,,,,,,,450.76,452.3124,452.3124,455.8067,return,1.1295,,75.13020833,,,,,,FBP-YG-17.png,0.45,1.2,5,0.75,0,42,42,4,1,,,,,,,,,,,,,,,,,,,,,,,,,,,,,,,,,,,,,,,,
,,,,,V3_091,21,Female,2025-01-30_13h56.20.525,jersey_experiment_5_v3,2023.2.2,Win32,84.74576271,,,,,,,,,,,,,,,,455.807,457.3598,457.3598,459.2776,return,0.6977,,62.36979167,,,,,,FBP-RB-71.png,0.4,1.2,48,0.75,0,43,43,47,1,,,,,,,,,,,,,,,,,,,,,,,,,,,,,,,,,,,,,,,,
,,,,,V3_091,21,Female,2025-01-30_13h56.20.525,jersey_experiment_5_v3,2023.2.2,Win32,84.74576271,,,,,,,,,,,,,,,,459.2778,460.8306,460.8306,462.6541,return,0.5998,,49.86979167,,,,,,FBP-YG-18.png,0.37,1.2,7,0.75,0,44,44,6,1,,,,,,,,,,,,,,,,,,,,,,,,,,,,,,,,,,,,,,,,
,,,,,V3_091,21,Female,2025-01-30_13h56.20.525,jersey_experiment_5_v3,2023.2.2,Win32,84.74576271,,,,,,,,,,,,,,,,462.6544,463.9483,463.9483,465.3248,return,0.8455,,50.78125,,,,,,FBP-OG-71.png,0.37,1.2,32,0.5,0,45,45,31,1,,,,,,,,,,,,,,,,,,,,,,,,,,,,,,,,,,,,,,,,
,,,,,V3_091,21,Female,2025-01-30_13h56.20.525,jersey_experiment_5_v3,2023.2.2,Win32,84.74576271,,,,,,,,,,,,,,,,465.3251,466.8778,466.8779,468.1366,return,0.6972,,50.13020833,,,,,,FBP-PT-91.png,0.37,1.2,27,0.75,0,46,46,26,1,,,,,,,,,,,,,,,,,,,,,,,,,,,,,,,,,,,,,,,,
,,,,,V3_091,21,Female,2025-01-30_13h56.20.525,jersey_experiment_5_v3,2023.2.2,Win32,84.74576271,,,,,,,,,,,,,,,,468.137,469.6898,469.6898,471.9016,return,0.6467,,75.26041667,,,,,,FBP-RB-91.png,0.45,1.2,60,0.75,0,47,47,59,1,,,,,,,,,,,,,,,,,,,,,,,,,,,,,,,,,,,,,,,,
,,,,,V3_091,21,Female,2025-01-30_13h56.20.525,jersey_experiment_5_v3,2023.2.2,Win32,84.74576271,,,,,,,,,,,,,,,,471.902,473.4546,473.4546,475.8076,return,0.8005,,61.97916667,,,,,,FBP-PT-71.png,0.37,1.2,17,0.75,0,48,48,16,1,,,,,,,,,,,,,,,,,,,,,,,,,,,,,,,,,,,,,,,,
,,,,,V3_091,21,Female,2025-01-30_13h56.20.525,jersey_experiment_5_v3,2023.2.2,Win32,84.74576271,,,,,,,,,,,,,,,,475.808,477.3605,477.3607,478.49,return,0.709,,61.97916667,,,,,,FBP-RB-71.png,0.35,1.2,46,0.75,0,49,49,45,1,,,,,,,,,,,,,,,,,,,,,,,,,,,,,,,,,,,,,,,,
,,,,,V3_091,21,Female,2025-01-30_13h56.20.525,jersey_experiment_5_v3,2023.2.2,Win32,84.74576271,,,,,,,,,,,,,,,,478.4903,480.0431,480.0431,481.35,return,0.7126,,61.97916667,,,,,,FBP-YG-19.png,0.37,1.2,12,0.75,0,50,50,11,1,,,,,,,,,,,,,,,,,,,,,,,,,,,,,,,,,,,,,,,,
,,,,,V3_091,21,Female,2025-01-30_13h56.20.525,jersey_experiment_5_v3,2023.2.2,Win32,84.74576271,,,,,,,,,,,,,,,,481.3501,482.643,482.6431,485.1609,return,0.6985,,49.47916667,,,,,,FBP-OG-81.png,0.4,1.2,38,0.5,0,51,51,37,1,,,,,,,,,,,,,,,,,,,,,,,,,,,,,,,,,,,,,,,,
,,,,,V3_091,21,Female,2025-01-30_13h56.20.525,jersey_experiment_5_v3,2023.2.2,Win32,84.74576271,,,,,,,,,,,,,,,,485.1611,486.455,486.455,487.8198,return,0.7083,,50,,,,,,FBP-OG-81.png,0.43,1.2,39,0.5,0,52,52,38,1,,,,,,,,,,,,,,,,,,,,,,,,,,,,,,,,,,,,,,,,
,,,,,V3_091,21,Female,2025-01-30_13h56.20.525,jersey_experiment_5_v3,2023.2.2,Win32,84.74576271,,,,,,,,,,,,,,,,487.82,489.3727,489.3727,491.2789,return,0.613,,41.796875,,,,,,FBP-PT-81.png,0.35,1.2,21,0.75,0,53,53,20,1,,,,,,,,,,,,,,,,,,,,,,,,,,,,,,,,,,,,,,,,
,,,,,V3_091,21,Female,2025-01-30_13h56.20.525,jersey_experiment_5_v3,2023.2.2,Win32,84.74576271,,,,,,,,,,,,,,,,491.2791,492.8319,492.832,494.7729,return,0.5812,,49.609375,,,,,,FBP-RB-71.png,0.37,1.2,47,0.75,0,54,54,46,1,,,,,,,,,,,,,,,,,,,,,,,,,,,,,,,,,,,,,,,,
,,,,,V3_091,21,Female,2025-01-30_13h56.20.525,jersey_experiment_5_v3,2023.2.2,Win32,84.74576271,,,,,,,,,,,,,,,,494.7732,496.326,496.326,498.4789,return,0.6975,,74.86979167,,,,,,FBP-YG-19.png,0.45,1.2,15,0.75,0,55,55,14,1,,,,,,,,,,,,,,,,,,,,,,,,,,,,,,,,,,,,,,,,
,,,,,V3_091,21,Female,2025-01-30_13h56.20.525,jersey_experiment_5_v3,2023.2.2,Win32,84.74576271,,,,,,,,,,,,,,,,498.4791,500.0203,500.0203,503.7734,return,0.7981,,62.23958333,,,,,,FBP-PT-71.png,0.4,1.2,18,0.75,0,56,56,17,1,,,,,,,,,,,,,,,,,,,,,,,,,,,,,,,,,,,,,,,,
,,,,,V3_091,21,Female,2025-01-30_13h56.20.525,jersey_experiment_5_v3,2023.2.2,Win32,84.74576271,,,,,,,,,,,,,,,,503.7735,505.3263,505.3265,507.9618,return,0.58,,75,,,,,,FBP-YG-19.png,0.4,1.2,13,0.75,0,57,57,12,1,,,,,,,,,,,,,,,,,,,,,,,,,,,,,,,,,,,,,,,,
,,,,,V3_091,21,Female,2025-01-30_13h56.20.525,jersey_experiment_5_v3,2023.2.2,Win32,84.74576271,,,,,,,,,,,,,,,,507.962,509.5146,509.5147,511.9502,return,0.659,,62.63020833,,,,,,FBP-PT-81.png,0.4,1.2,23,0.75,0,58,58,22,1,,,,,,,,,,,,,,,,,,,,,,,,,,,,,,,,,,,,,,,,
,,,,,V3_091,21,Female,2025-01-30_13h56.20.525,jersey_experiment_5_v3,2023.2.2,Win32,84.74576271,,,,,,,,,,,,,,,,511.9505,513.5033,513.5033,516.4091,return,0.5806,,74.47916667,,,,,,FBP-RB-81.png,0.43,1.2,54,0.75,0,59,59,53,1,,,,,,,,,,,,,,,,,,,,,,,,,,,,,,,,,,,,,,,,
,,,,,V3_091,21,Female,2025-01-30_13h56.20.525,jersey_experiment_5_v3,2023.2.2,Win32,84.74576271,,,,,,,,,,,,,,,,,,,,,,,,,,,,,,,,,,,,,,,516.4092,636.402,,,,,,,,,,,,,,,,,,,,,,,,,,,,,,,,,,,,,,
,,,,,V3_091,21,Female,2025-01-30_13h56.20.525,jersey_experiment_5_v3,2023.2.2,Win32,84.74576271,,,,,,,,,,,,,,,,,,,,,,,,,,,,,,,,,,,,,,,,,636.402,640.555,return,4.1422,,,,,,,,,,,,,,,,,,,,,,,,,,,,,,,,,,
,,,,,V3_091,21,Female,2025-01-30_13h56.20.525,jersey_experiment_5_v3,2023.2.2,Win32,84.74576271,,,,,,,,,,,,,,,,640.5563,641.8491,641.8491,645.8847,return,1.774,,63.41145833,,,,,,FBP-RB-19.png,0.37,1.2,57,0.5,,,,,,,,,,,,,0,0,0,56,1,,,,,,,,,,,,,,,,,,,,,,,,,,,,
,,,,,V3_091,21,Female,2025-01-30_13h56.20.525,jersey_experiment_5_v3,2023.2.2,Win32,84.74576271,,,,,,,,,,,,,,,,645.8849,647.1788,647.1789,649.7201,return,0.7817,,74.08854167,,,,,,FBP-PT-17.png,0.43,1.2,19,0.5,,,,,,,,,,,,,0,1,1,18,1,,,,,,,,,,,,,,,,,,,,,,,,,,,,
,,,,,V3_091,21,Female,2025-01-30_13h56.20.525,jersey_experiment_5_v3,2023.2.2,Win32,84.74576271,,,,,,,,,,,,,,,,649.7204,651.0142,651.0142,652.4849,return,0.585,,74.73958333,,,,,,FBP-RB-19.png,0.43,1.2,59,0.5,,,,,,,,,,,,,0,2,2,58,1,,,,,,,,,,,,,,,,,,,,,,,,,,,,
,,,,,V3_091,21,Female,2025-01-30_13h56.20.525,jersey_experiment_5_v3,2023.2.2,Win32,84.74576271,,,,,,,,,,,,,,,,652.4851,654.0379,654.0379,655.4616,return,0.6984,,75,,,,,,FBP-OG-18.png,0.45,1.2,40,0.75,,,,,,,,,,,,,0,3,3,39,1,,,,,,,,,,,,,,,,,,,,,,,,,,,,
,,,,,V3_091,21,Female,2025-01-30_13h56.20.525,jersey_experiment_5_v3,2023.2.2,Win32,84.74576271,,,,,,,,,,,,,,,,655.4617,657.0143,657.0143,658.4616,return,0.7449,,75,,,,,,FBP-OG-19.png,0.4,1.2,43,0.75,,,,,,,,,,,,,0,4,4,42,1,,,,,,,,,,,,,,,,,,,,,,,,,,,,
,,,,,V3_091,21,Female,2025-01-30_13h56.20.525,jersey_experiment_5_v3,2023.2.2,Win32,84.74576271,,,,,,,,,,,,,,,,658.4619,659.7559,659.7559,661.144,return,0.7697,,75,,,,,,FBP-PT-18.png,0.43,1.2,24,0.5,,,,,,,,,,,,,0,5,5,23,1,,,,,,,,,,,,,,,,,,,,,,,,,,,,
,,,,,V3_091,21,Female,2025-01-30_13h56.20.525,jersey_experiment_5_v3,2023.2.2,Win32,84.74576271,,,,,,,,,,,,,,,,661.1442,662.4382,662.4382,663.7911,return,0.7386,,75,,,,,,FBP-PT-18.png,0.4,1.2,23,0.5,,,,,,,,,,,,,0,6,6,22,1,,,,,,,,,,,,,,,,,,,,,,,,,,,,
,,,,,V3_091,21,Female,2025-01-30_13h56.20.525,jersey_experiment_5_v3,2023.2.2,Win32,84.74576271,,,,,,,,,,,,,,,,663.7914,665.3441,665.3441,667.5912,return,0.6061,,50.26041667,,,,,,FBP-OG-18.png,0.37,1.2,37,0.75,,,,,,,,,,,,,0,7,7,36,1,,,,,,,,,,,,,,,,,,,,,,,,,,,,
,,,,,V3_091,21,Female,2025-01-30_13h56.20.525,jersey_experiment_5_v3,2023.2.2,Win32,84.74576271,,,,,,,,,,,,,,,,667.5915,668.8855,668.8855,670.8857,return,0.843,,50.13020833,,,,,,FBP-YG-71.png,0.37,1.2,2,0.5,,,,,,,,,,,,,0,8,8,1,1,,,,,,,,,,,,,,,,,,,,,,,,,,,,
,,,,,V3_091,21,Female,2025-01-30_13h56.20.525,jersey_experiment_5_v3,2023.2.2,Win32,84.74576271,,,,,,,,,,,,,,,,670.8858,672.1795,672.1795,675.5917,return,0.7466,,50,,,,,,FBP-YG-71.png,0.4,1.2,3,0.5,,,,,,,,,,,,,0,9,9,2,1,,,,,,,,,,,,,,,,,,,,,,,,,,,,
,,,,,V3_091,21,Female,2025-01-30_13h56.20.525,jersey_experiment_5_v3,2023.2.2,Win32,84.74576271,,,,,,,,,,,,,,,,675.5919,676.8859,676.886,678.3094,return,0.7608,,50,,,,,,FBP-PT-18.png,0.37,1.2,22,0.5,,,,,,,,,,,,,0,10,10,21,1,,,,,,,,,,,,,,,,,,,,,,,,,,,,
,,,,,V3_091,21,Female,2025-01-30_13h56.20.525,jersey_experiment_5_v3,2023.2.2,Win32,84.74576271,,,,,,,,,,,,,,,,678.3097,679.6036,679.6037,681.133,return,0.6354,,50,,,,,,FBP-YG-81.png,0.37,1.2,7,0.5,,,,,,,,,,,,,0,11,11,6,1,,,,,,,,,,,,,,,,,,,,,,,,,,,,
,,,,,V3_091,21,Female,2025-01-30_13h56.20.525,jersey_experiment_5_v3,2023.2.2,Win32,84.74576271,,,,,,,,,,,,,,,,681.1332,682.4271,682.4271,684.1097,return,0.6613,,74.47916667,,,,,,FBP-YG-81.png,0.43,1.2,9,0.5,,,,,,,,,,,,,0,12,12,8,1,,,,,,,,,,,,,,,,,,,,,,,,,,,,
,,,,,V3_091,21,Female,2025-01-30_13h56.20.525,jersey_experiment_5_v3,2023.2.2,Win32,84.74576271,,,,,,,,,,,,,,,,684.11,685.6628,685.6629,687.2392,return,0.6144,,75.390625,,,,,,FBP-OG-18.png,0.43,1.2,39,0.75,,,,,,,,,,,,,0,13,13,38,1,,,,,,,,,,,,,,,,,,,,,,,,,,,,
,,,,,V3_091,21,Female,2025-01-30_13h56.20.525,jersey_experiment_5_v3,2023.2.2,Win32,84.74576271,,,,,,,,,,,,,,,,687.2395,688.5332,688.5333,690.1686,return,0.6012,,74.86979167,,,,,,FBP-RB-17.png,0.43,1.2,49,0.5,,,,,,,,,,,,,0,14,14,48,1,,,,,,,,,,,,,,,,,,,,,,,,,,,,
,,,,,V3_091,21,Female,2025-01-30_13h56.20.525,jersey_experiment_5_v3,2023.2.2,Win32,84.74576271,,,,,,,,,,,,,,,,690.1689,691.4628,691.4628,693.8158,return,0.6172,,38.28125,,,,,,FBP-RB-18.png,0.35,1.2,51,0.5,,,,,,,,,,,,,0,15,15,50,1,,,,,,,,,,,,,,,,,,,,,,,,,,,,
,,,,,V3_091,21,Female,2025-01-30_13h56.20.525,jersey_experiment_5_v3,2023.2.2,Win32,84.74576271,,,,,,,,,,,,,,,,693.8161,695.1099,695.1099,697.11,return,0.619,,75.13020833,,,,,,FBP-PT-18.png,0.45,1.2,25,0.5,,,,,,,,,,,,,0,16,16,24,1,,,,,,,,,,,,,,,,,,,,,,,,,,,,
,,,,,V3_091,21,Female,2025-01-30_13h56.20.525,jersey_experiment_5_v3,2023.2.2,Win32,84.74576271,,,,,,,,,,,,,,,,697.1103,698.4042,698.4042,700.3104,return,0.9482,,74.609375,,,,,,FBP-YG-91.png,0.43,1.2,14,0.5,,,,,,,,,,,,,0,17,17,13,1,,,,,,,,,,,,,,,,,,,,,,,,,,,,
,,,,,V3_091,21,Female,2025-01-30_13h56.20.525,jersey_experiment_5_v3,2023.2.2,Win32,84.74576271,,,,,,,,,,,,,,,,700.3107,701.6043,701.6043,705.7693,return,3.4024,,85.15625,,,,,,FBP-YG-91.png,0.45,1.2,15,0.5,,,,,,,,,,,,,0,18,18,14,1,,,,,,,,,,,,,,,,,,,,,,,,,,,,
,,,,,V3_091,21,Female,2025-01-30_13h56.20.525,jersey_experiment_5_v3,2023.2.2,Win32,84.74576271,,,,,,,,,,,,,,,,705.7697,707.3222,707.3222,709.6282,return,0.6597,,36.97916667,,,,,,FBP-OG-17.png,0.35,1.2,31,0.75,,,,,,,,,,,,,0,19,19,30,1,,,,,,,,,,,,,,,,,,,,,,,,,,,,
,,,,,V3_091,21,Female,2025-01-30_13h56.20.525,jersey_experiment_5_v3,2023.2.2,Win32,84.74576271,,,,,,,,,,,,,,,,709.6285,710.9224,710.9224,714.4755,return,1.9313,,61.328125,,,,,,FBP-PT-17.png,0.4,1.2,18,0.5,,,,,,,,,,,,,0,20,20,17,1,,,,,,,,,,,,,,,,,,,,,,,,,,,,
,,,,,V3_091,21,Female,2025-01-30_13h56.20.525,jersey_experiment_5_v3,2023.2.2,Win32,84.74576271,,,,,,,,,,,,,,,,714.4758,715.7698,715.7698,719.4169,return,0.6269,,74.73958333,,,,,,FBP-YG-71.png,0.43,1.2,4,0.5,,,,,,,,,,,,,0,21,21,3,1,,,,,,,,,,,,,,,,,,,,,,,,,,,,
,,,,,V3_091,21,Female,2025-01-30_13h56.20.525,jersey_experiment_5_v3,2023.2.2,Win32,84.74576271,,,,,,,,,,,,,,,,719.4171,720.9698,720.9698,722.6995,return,0.6738,,75.78125,,,,,,FBP-OG-19.png,0.45,1.2,45,0.75,,,,,,,,,,,,,0,22,22,44,1,,,,,,,,,,,,,,,,,,,,,,,,,,,,
,,,,,V3_091,21,Female,2025-01-30_13h56.20.525,jersey_experiment_5_v3,2023.2.2,Win32,84.74576271,,,,,,,,,,,,,,,,722.6996,723.9934,723.9934,726.4876,return,0.6995,,75.13020833,,,,,,FBP-PT-19.png,0.43,1.2,29,0.5,,,,,,,,,,,,,0,23,23,28,1,,,,,,,,,,,,,,,,,,,,,,,,,,,,
,,,,,V3_091,21,Female,2025-01-30_13h56.20.525,jersey_experiment_5_v3,2023.2.2,Win32,84.74576271,,,,,,,,,,,,,,,,726.4879,728.0407,728.0407,729.9936,return,0.6278,,24.609375,,,,,,FBP-OG-18.png,0.35,1.2,36,0.75,,,,,,,,,,,,,0,24,24,35,1,,,,,,,,,,,,,,,,,,,,,,,,,,,,
,,,,,V3_091,21,Female,2025-01-30_13h56.20.525,jersey_experiment_5_v3,2023.2.2,Win32,84.74576271,,,,,,,,,,,,,,,,729.9939,731.2878,731.2879,734.0292,return,0.6224,,49.47916667,,,,,,FBP-PT-19.png,0.37,1.2,27,0.5,,,,,,,,,,,,,0,25,25,26,1,,,,,,,,,,,,,,,,,,,,,,,,,,,,
,,,,,V3_091,21,Female,2025-01-30_13h56.20.525,jersey_experiment_5_v3,2023.2.2,Win32,84.74576271,,,,,,,,,,,,,,,,734.0295,735.3233,735.3233,738.2176,return,0.626,,37.5,,,,,,FBP-PT-18.png,0.35,1.2,21,0.5,,,,,,,,,,,,,0,26,26,20,1,,,,,,,,,,,,,,,,,,,,,,,,,,,,
,,,,,V3_091,21,Female,2025-01-30_13h56.20.525,jersey_experiment_5_v3,2023.2.2,Win32,84.74576271,,,,,,,,,,,,,,,,738.2178,739.7704,739.7705,741.4177,return,0.6258,,50.26041667,,,,,,FBP-OG-17.png,0.37,1.2,32,0.75,,,,,,,,,,,,,0,27,27,31,1,,,,,,,,,,,,,,,,,,,,,,,,,,,,
,,,,,V3_091,21,Female,2025-01-30_13h56.20.525,jersey_experiment_5_v3,2023.2.2,Win32,84.74576271,,,,,,,,,,,,,,,,741.4179,742.712,742.712,744.7943,return,0.6031,,88.54166667,,,,,,FBP-RB-18.png,0.45,1.2,55,0.5,,,,,,,,,,,,,0,28,28,54,1,,,,,,,,,,,,,,,,,,,,,,,,,,,,
,,,,,V3_091,21,Female,2025-01-30_13h56.20.525,jersey_experiment_5_v3,2023.2.2,Win32,84.74576271,,,,,,,,,,,,,,,,744.7946,746.0884,746.0885,747.9119,return,0.6249,,75.26041667,,,,,,FBP-RB-17.png,0.37,1.2,47,0.5,,,,,,,,,,,,,0,29,29,46,1,,,,,,,,,,,,,,,,,,,,,,,,,,,,
,,,,,V3_091,21,Female,2025-01-30_13h56.20.525,jersey_experiment_5_v3,2023.2.2,Win32,84.74576271,,,,,,,,,,,,,,,,747.9122,749.2062,749.2062,750.3601,return,0.6776,,75.26041667,,,,,,FBP-RB-17.png,0.4,1.2,48,0.5,,,,,,,,,,,,,0,30,30,47,1,,,,,,,,,,,,,,,,,,,,,,,,,,,,
,,,,,V3_091,21,Female,2025-01-30_13h56.20.525,jersey_experiment_5_v3,2023.2.2,Win32,84.74576271,,,,,,,,,,,,,,,,750.3603,751.6535,751.6535,753.3851,return,0.7435,,87.36979167,,,,,,FBP-RB-19.png,0.45,1.2,60,0.5,,,,,,,,,,,,,0,31,31,59,1,,,,,,,,,,,,,,,,,,,,,,,,,,,,
,,,,,V3_091,21,Female,2025-01-30_13h56.20.525,jersey_experiment_5_v3,2023.2.2,Win32,84.74576271,,,,,,,,,,,,,,,,753.3853,754.677,754.6771,757.9418,return,0.6269,,61.84895833,,,,,,FBP-YG-81.png,0.35,1.2,6,0.5,,,,,,,,,,,,,0,32,32,5,1,,,,,,,,,,,,,,,,,,,,,,,,,,,,
,,,,,V3_091,21,Female,2025-01-30_13h56.20.525,jersey_experiment_5_v3,2023.2.2,Win32,84.74576271,,,,,,,,,,,,,,,,757.942,759.2359,759.2359,761.4486,return,0.6506,,87.5,,,,,,FBP-YG-81.png,0.45,1.2,10,0.5,,,,,,,,,,,,,0,33,33,9,1,,,,,,,,,,,,,,,,,,,,,,,,,,,,
,,,,,V3_091,21,Female,2025-01-30_13h56.20.525,jersey_experiment_5_v3,2023.2.2,Win32,84.74576271,,,,,,,,,,,,,,,,761.4487,762.742,762.742,764.4836,return,0.6594,,74.73958333,,,,,,FBP-RB-18.png,0.4,1.2,53,0.5,,,,,,,,,,,,,0,34,34,52,1,,,,,,,,,,,,,,,,,,,,,,,,,,,,
,,,,,V3_091,21,Female,2025-01-30_13h56.20.525,jersey_experiment_5_v3,2023.2.2,Win32,84.74576271,,,,,,,,,,,,,,,,764.4838,765.7833,765.7833,767.7069,return,0.6969,,87.109375,,,,,,FBP-RB-17.png,0.45,1.2,50,0.5,,,,,,,,,,,,,0,35,35,49,1,,,,,,,,,,,,,,,,,,,,,,,,,,,,
,,,,,V3_091,21,Female,2025-01-30_13h56.20.525,jersey_experiment_5_v3,2023.2.2,Win32,84.74576271,,,,,,,,,,,,,,,,767.7069,769.01,769.0101,770.9779,return,0.6737,,74.34895833,,,,,,FBP-YG-91.png,0.37,1.2,12,0.5,,,,,,,,,,,,,0,36,36,11,1,,,,,,,,,,,,,,,,,,,,,,,,,,,,
,,,,,V3_091,21,Female,2025-01-30_13h56.20.525,jersey_experiment_5_v3,2023.2.2,Win32,84.74576271,,,,,,,,,,,,,,,,770.9781,772.2719,772.2719,774.5542,return,0.6266,,88.02083333,,,,,,FBP-PT-19.png,0.45,1.2,30,0.5,,,,,,,,,,,,,0,37,37,29,1,,,,,,,,,,,,,,,,,,,,,,,,,,,,
,,,,,V3_091,21,Female,2025-01-30_13h56.20.525,jersey_experiment_5_v3,2023.2.2,Win32,84.74576271,,,,,,,,,,,,,,,,774.5543,775.8572,775.8572,777.3838,return,0.652,,75.26041667,,,,,,FBP-YG-81.png,0.4,1.2,8,0.5,,,,,,,,,,,,,0,38,38,7,1,,,,,,,,,,,,,,,,,,,,,,,,,,,,
,,,,,V3_091,21,Female,2025-01-30_13h56.20.525,jersey_experiment_5_v3,2023.2.2,Win32,84.74576271,,,,,,,,,,,,,,,,777.384,778.6809,778.681,780.6255,return,0.6977,,86.97916667,,,,,,FBP-YG-71.png,0.45,1.2,5,0.5,,,,,,,,,,,,,0,39,39,4,1,,,,,,,,,,,,,,,,,,,,,,,,,,,,
,,,,,V3_091,21,Female,2025-01-30_13h56.20.525,jersey_experiment_5_v3,2023.2.2,Win32,84.74576271,,,,,,,,,,,,,,,,780.6256,781.9194,781.9194,785.167,return,0.6121,,49.47916667,,,,,,FBP-RB-17.png,0.35,1.2,46,0.5,,,,,,,,,,,,,0,40,40,45,1,,,,,,,,,,,,,,,,,,,,,,,,,,,,
,,,,,V3_091,21,Female,2025-01-30_13h56.20.525,jersey_experiment_5_v3,2023.2.2,Win32,84.74576271,,,,,,,,,,,,,,,,785.1671,786.4607,786.4608,789.0342,return,0.6207,,38.54166667,,,,,,FBP-PT-19.png,0.35,1.2,26,0.5,,,,,,,,,,,,,0,41,41,25,1,,,,,,,,,,,,,,,,,,,,,,,,,,,,
,,,,,V3_091,21,Female,2025-01-30_13h56.20.525,jersey_experiment_5_v3,2023.2.2,Win32,84.74576271,,,,,,,,,,,,,,,,789.0344,790.5785,790.5785,793.0028,return,0.6124,,61.97916667,,,,,,FBP-OG-17.png,0.4,1.2,33,0.75,,,,,,,,,,,,,0,42,42,32,1,,,,,,,,,,,,,,,,,,,,,,,,,,,,
,,,,,V3_091,21,Female,2025-01-30_13h56.20.525,jersey_experiment_5_v3,2023.2.2,Win32,84.74576271,,,,,,,,,,,,,,,,793.003,794.3049,794.3049,796.1082,return,0.6119,,50.390625,,,,,,FBP-PT-17.png,0.37,1.2,17,0.5,,,,,,,,,,,,,0,43,43,16,1,,,,,,,,,,,,,,,,,,,,,,,,,,,,
,,,,,V3_091,21,Female,2025-01-30_13h56.20.525,jersey_experiment_5_v3,2023.2.2,Win32,84.74576271,,,,,,,,,,,,,,,,796.1084,797.6607,797.6608,799.3175,return,0.6596,,49.609375,,,,,,FBP-OG-19.png,0.35,1.2,41,0.75,,,,,,,,,,,,,0,44,44,40,1,,,,,,,,,,,,,,,,,,,,,,,,,,,,
,,,,,V3_091,21,Female,2025-01-30_13h56.20.525,jersey_experiment_5_v3,2023.2.2,Win32,84.74576271,,,,,,,,,,,,,,,,799.3176,800.611,800.611,802.5877,return,0.668,,74.34895833,,,,,,FBP-RB-18.png,0.43,1.2,54,0.5,,,,,,,,,,,,,0,45,45,53,1,,,,,,,,,,,,,,,,,,,,,,,,,,,,
,,,,,V3_091,21,Female,2025-01-30_13h56.20.525,jersey_experiment_5_v3,2023.2.2,Win32,84.74576271,,,,,,,,,,,,,,,,802.5879,803.8965,803.8965,805.1057,return,0.6594,,74.34895833,,,,,,FBP-YG-91.png,0.4,1.2,13,0.5,,,,,,,,,,,,,0,46,46,12,1,,,,,,,,,,,,,,,,,,,,,,,,,,,,
,,,,,V3_091,21,Female,2025-01-30_13h56.20.525,jersey_experiment_5_v3,2023.2.2,Win32,84.74576271,,,,,,,,,,,,,,,,805.1058,806.6584,806.6585,808.0941,return,0.7616,,74.86979167,,,,,,FBP-OG-18.png,0.4,1.2,38,0.75,,,,,,,,,,,,,0,47,47,37,1,,,,,,,,,,,,,,,,,,,,,,,,,,,,
,,,,,V3_091,21,Female,2025-01-30_13h56.20.525,jersey_experiment_5_v3,2023.2.2,Win32,84.74576271,,,,,,,,,,,,,,,,808.0943,809.3881,809.3882,813.0321,return,1.546,,63.54166667,,,,,,FBP-YG-71.png,0.35,1.2,1,0.5,,,,,,,,,,,,,0,48,48,0,1,,,,,,,,,,,,,,,,,,,,,,,,,,,,
,,,,,V3_091,21,Female,2025-01-30_13h56.20.525,jersey_experiment_5_v3,2023.2.2,Win32,84.74576271,,,,,,,,,,,,,,,,813.0323,814.3262,814.3263,816.0204,return,0.6084,,75,,,,,,FBP-RB-19.png,0.4,1.2,58,0.5,,,,,,,,,,,,,0,49,49,57,1,,,,,,,,,,,,,,,,,,,,,,,,,,,,
,,,,,V3_091,21,Female,2025-01-30_13h56.20.525,jersey_experiment_5_v3,2023.2.2,Win32,84.74576271,,,,,,,,,,,,,,,,816.0206,817.3146,817.3147,819.5534,return,0.6356,,50.65104167,,,,,,FBP-YG-91.png,0.35,1.2,11,0.5,,,,,,,,,,,,,0,50,50,10,1,,,,,,,,,,,,,,,,,,,,,,,,,,,,
,,,,,V3_091,21,Female,2025-01-30_13h56.20.525,jersey_experiment_5_v3,2023.2.2,Win32,84.74576271,,,,,,,,,,,,,,,,819.5535,820.8473,820.8473,822.7212,return,0.5801,,49.609375,,,,,,FBP-RB-18.png,0.37,1.2,52,0.5,,,,,,,,,,,,,0,51,51,51,1,,,,,,,,,,,,,,,,,,,,,,,,,,,,
,,,,,V3_091,21,Female,2025-01-30_13h56.20.525,jersey_experiment_5_v3,2023.2.2,Win32,84.74576271,,,,,,,,,,,,,,,,822.7214,824.0206,824.0206,826.636,return,0.6117,,61.97916667,,,,,,FBP-PT-19.png,0.4,1.2,28,0.5,,,,,,,,,,,,,0,52,52,27,1,,,,,,,,,,,,,,,,,,,,,,,,,,,,
,,,,,V3_091,21,Female,2025-01-30_13h56.20.525,jersey_experiment_5_v3,2023.2.2,Win32,84.74576271,,,,,,,,,,,,,,,,826.6362,828.1805,828.1805,829.9423,return,0.6479,,87.5,,,,,,FBP-OG-17.png,0.45,1.2,35,0.75,,,,,,,,,,,,,0,53,53,34,1,,,,,,,,,,,,,,,,,,,,,,,,,,,,
,,,,,V3_091,21,Female,2025-01-30_13h56.20.525,jersey_experiment_5_v3,2023.2.2,Win32,84.74576271,,,,,,,,,,,,,,,,829.9424,831.4917,831.4917,834.4712,return,1.3179,,75.52083333,,,,,,FBP-OG-19.png,0.43,1.2,44,0.75,,,,,,,,,,,,,0,54,54,43,1,,,,,,,,,,,,,,,,,,,,,,,,,,,,
,,,,,V3_091,21,Female,2025-01-30_13h56.20.525,jersey_experiment_5_v3,2023.2.2,Win32,84.74576271,,,,,,,,,,,,,,,,834.4713,836.0154,836.0154,838.7155,return,0.6926,,62.76041667,,,,,,FBP-OG-19.png,0.37,1.2,42,0.75,,,,,,,,,,,,,0,55,55,41,1,,,,,,,,,,,,,,,,,,,,,,,,,,,,
,,,,,V3_091,21,Female,2025-01-30_13h56.20.525,jersey_experiment_5_v3,2023.2.2,Win32,84.74576271,,,,,,,,,,,,,,,,838.7157,840.0155,840.0156,842.1657,return,0.6826,,50.13020833,,,,,,FBP-RB-19.png,0.35,1.2,56,0.5,,,,,,,,,,,,,0,56,56,55,1,,,,,,,,,,,,,,,,,,,,,,,,,,,,
,,,,,V3_091,21,Female,2025-01-30_13h56.20.525,jersey_experiment_5_v3,2023.2.2,Win32,84.74576271,,,,,,,,,,,,,,,,842.1658,843.7189,843.7189,847.0513,return,0.7061,,49.73958333,,,,,,FBP-OG-17.png,0.43,1.2,34,0.75,,,,,,,,,,,,,0,57,57,33,1,,,,,,,,,,,,,,,,,,,,,,,,,,,,
,,,,,V3_091,21,Female,2025-01-30_13h56.20.525,jersey_experiment_5_v3,2023.2.2,Win32,84.74576271,,,,,,,,,,,,,,,,847.0515,848.354,848.3541,850.1574,return,0.7059,,88.02083333,,,,,,FBP-PT-17.png,0.45,1.2,20,0.5,,,,,,,,,,,,,0,58,58,19,1,,,,,,,,,,,,,,,,,,,,,,,,,,,,
,,,,,V3_091,21,Female,2025-01-30_13h56.20.525,jersey_experiment_5_v3,2023.2.2,Win32,84.74576271,,,,,,,,,,,,,,,,850.1575,851.46,851.4601,854.3632,return,0.6222,,62.5,,,,,,FBP-PT-17.png,0.35,1.2,16,0.5,,,,,,,,,,,,,0,59,59,15,1,,,,,,,,,,,,,,,,,,,,,,,,,,,,
,,,,,V3_091,21,Female,2025-01-30_13h56.20.525,jersey_experiment_5_v3,2023.2.2,Win32,84.74576271,,,,,,,,,,,,,,,,854.3659,855.6573,855.6573,857.6639,return,0.6122,,75.65104167,,,,,,FBP-YG-19.png,0.43,1.2,14,0.5,,,,,,,,,,,,,,,,,,0,0,0,13,1,,,,,,,,,,,,,,,,,,,,,,,
,,,,,V3_091,21,Female,2025-01-30_13h56.20.525,jersey_experiment_5_v3,2023.2.2,Win32,84.74576271,,,,,,,,,,,,,,,,857.6641,858.9633,858.9634,861.4282,return,0.791,,74.609375,,,,,,FBP-RB-81.png,0.43,1.2,54,0.5,,,,,,,,,,,,,,,,,,0,1,1,53,1,,,,,,,,,,,,,,,,,,,,,,,
,,,,,V3_091,21,Female,2025-01-30_13h56.20.525,jersey_experiment_5_v3,2023.2.2,Win32,84.74576271,,,,,,,,,,,,,,,,861.4283,862.9752,862.9753,865.4842,return,0.6203,,61.45833333,,,,,,FBP-OG-71.png,0.35,1.2,31,0.75,,,,,,,,,,,,,,,,,,0,2,2,30,1,,,,,,,,,,,,,,,,,,,,,,,
,,,,,V3_091,21,Female,2025-01-30_13h56.20.525,jersey_experiment_5_v3,2023.2.2,Win32,84.74576271,,,,,,,,,,,,,,,,865.4844,866.7928,866.7928,868.8172,return,0.7066,,86.84895833,,,,,,FBP-PT-81.png,0.45,1.2,25,0.5,,,,,,,,,,,,,,,,,,0,3,3,24,1,,,,,,,,,,,,,,,,,,,,,,,
,,,,,V3_091,21,Female,2025-01-30_13h56.20.525,jersey_experiment_5_v3,2023.2.2,Win32,84.74576271,,,,,,,,,,,,,,,,868.8173,870.1167,870.1168,872.1579,return,0.6972,,61.97916667,,,,,,FBP-PT-91.png,0.37,1.2,27,0.5,,,,,,,,,,,,,,,,,,0,4,4,26,1,,,,,,,,,,,,,,,,,,,,,,,
,,,,,V3_091,21,Female,2025-01-30_13h56.20.525,jersey_experiment_5_v3,2023.2.2,Win32,84.74576271,,,,,,,,,,,,,,,,872.158,873.452,873.4521,875.382,return,0.6827,,87.63020833,,,,,,FBP-RB-91.png,0.45,1.2,60,0.5,,,,,,,,,,,,,,,,,,0,5,5,59,1,,,,,,,,,,,,,,,,,,,,,,,
,,,,,V3_091,21,Female,2025-01-30_13h56.20.525,jersey_experiment_5_v3,2023.2.2,Win32,84.74576271,,,,,,,,,,,,,,,,875.3822,876.6758,876.6759,878.9671,return,0.5648,,74.47916667,,,,,,FBP-PT-81.png,0.37,1.2,22,0.5,,,,,,,,,,,,,,,,,,0,6,6,21,1,,,,,,,,,,,,,,,,,,,,,,,
,,,,,V3_091,21,Female,2025-01-30_13h56.20.525,jersey_experiment_5_v3,2023.2.2,Win32,84.74576271,,,,,,,,,,,,,,,,878.9673,880.2742,880.2742,881.7671,return,0.5883,,74.34895833,,,,,,FBP-RB-91.png,0.4,1.2,58,0.5,,,,,,,,,,,,,,,,,,0,7,7,57,1,,,,,,,,,,,,,,,,,,,,,,,
,,,,,V3_091,21,Female,2025-01-30_13h56.20.525,jersey_experiment_5_v3,2023.2.2,Win32,84.74576271,,,,,,,,,,,,,,,,881.7673,883.0769,883.0769,886.2147,return,0.5739,,49.34895833,,,,,,FBP-PT-91.png,0.35,1.2,26,0.5,,,,,,,,,,,,,,,,,,0,8,8,25,1,,,,,,,,,,,,,,,,,,,,,,,
,,,,,V3_091,21,Female,2025-01-30_13h56.20.525,jersey_experiment_5_v3,2023.2.2,Win32,84.74576271,,,,,,,,,,,,,,,,886.2148,887.5234,887.5234,889.5795,return,0.5889,,74.609375,,,,,,FBP-YG-17.png,0.43,1.2,4,0.5,,,,,,,,,,,,,,,,,,0,9,9,3,1,,,,,,,,,,,,,,,,,,,,,,,
,,,,,V3_091,21,Female,2025-01-30_13h56.20.525,jersey_experiment_5_v3,2023.2.2,Win32,84.74576271,,,,,,,,,,,,,,,,889.5796,890.8736,890.8736,892.2775,return,0.7067,,73.56770833,,,,,,FBP-PT-81.png,0.4,1.2,23,0.5,,,,,,,,,,,,,,,,,,0,10,10,22,1,,,,,,,,,,,,,,,,,,,,,,,
,,,,,V3_091,21,Female,2025-01-30_13h56.20.525,jersey_experiment_5_v3,2023.2.2,Win32,84.74576271,,,,,,,,,,,,,,,,892.2776,893.5706,893.5706,895.2706,return,0.7331,,88.671875,,,,,,FBP-PT-91.png,0.43,1.2,29,0.5,,,,,,,,,,,,,,,,,,0,11,11,28,1,,,,,,,,,,,,,,,,,,,,,,,
,,,,,V3_091,21,Female,2025-01-30_13h56.20.525,jersey_experiment_5_v3,2023.2.2,Win32,84.74576271,,,,,,,,,,,,,,,,895.2709,896.5679,896.568,899.0282,return,1.6606,,87.36979167,,,,,,FBP-RB-71.png,0.43,1.2,49,0.5,,,,,,,,,,,,,,,,,,0,12,12,48,1,,,,,,,,,,,,,,,,,,,,,,,
,,,,,V3_091,21,Female,2025-01-30_13h56.20.525,jersey_experiment_5_v3,2023.2.2,Win32,84.74576271,,,,,,,,,,,,,,,,899.0284,900.3326,900.3326,902.6002,return,0.7578,,88.02083333,,,,,,FBP-RB-91.png,0.43,1.2,59,0.5,,,,,,,,,,,,,,,,,,0,13,13,58,1,,,,,,,,,,,,,,,,,,,,,,,
,,,,,V3_091,21,Female,2025-01-30_13h56.20.525,jersey_experiment_5_v3,2023.2.2,Win32,84.74576271,,,,,,,,,,,,,,,,902.6005,904.1446,904.1446,906.4505,return,0.6826,,75.13020833,,,,,,FBP-OG-81.png,0.37,1.2,37,0.75,,,,,,,,,,,,,,,,,,0,14,14,36,1,,,,,,,,,,,,,,,,,,,,,,,
,,,,,V3_091,21,Female,2025-01-30_13h56.20.525,jersey_experiment_5_v3,2023.2.2,Win32,84.74576271,,,,,,,,,,,,,,,,906.4507,907.7595,907.7596,909.0004,return,0.7102,,75.13020833,,,,,,FBP-RB-81.png,0.35,1.2,51,0.5,,,,,,,,,,,,,,,,,,0,15,15,50,1,,,,,,,,,,,,,,,,,,,,,,,
,,,,,V3_091,21,Female,2025-01-30_13h56.20.525,jersey_experiment_5_v3,2023.2.2,Win32,84.74576271,,,,,,,,,,,,,,,,909.0007,910.5534,910.5535,912.3769,return,0.8257,,74.86979167,,,,,,FBP-OG-91.png,0.4,1.2,43,0.75,,,,,,,,,,,,,,,,,,0,16,16,42,1,,,,,,,,,,,,,,,,,,,,,,,
,,,,,V3_091,21,Female,2025-01-30_13h56.20.525,jersey_experiment_5_v3,2023.2.2,Win32,84.74576271,,,,,,,,,,,,,,,,912.3772,913.9245,913.9245,915.8776,return,0.674,,63.671875,,,,,,FBP-OG-91.png,0.37,1.2,42,0.75,,,,,,,,,,,,,,,,,,0,17,17,41,1,,,,,,,,,,,,,,,,,,,,,,,
,,,,,V3_091,21,Female,2025-01-30_13h56.20.525,jersey_experiment_5_v3,2023.2.2,Win32,84.74576271,,,,,,,,,,,,,,,,915.8777,917.1716,917.1716,919.5483,return,0.683,,99.609375,,,,,,FBP-RB-81.png,0.45,1.2,55,0.5,,,,,,,,,,,,,,,,,,0,18,18,54,1,,,,,,,,,,,,,,,,,,,,,,,
,,,,,V3_091,21,Female,2025-01-30_13h56.20.525,jersey_experiment_5_v3,2023.2.2,Win32,84.74576271,,,,,,,,,,,,,,,,919.5485,921.0987,921.0987,923.3603,return,0.627,,49.73958333,,,,,,FBP-OG-91.png,0.35,1.2,41,0.75,,,,,,,,,,,,,,,,,,0,19,19,40,1,,,,,,,,,,,,,,,,,,,,,,,
,,,,,V3_091,21,Female,2025-01-30_13h56.20.525,jersey_experiment_5_v3,2023.2.2,Win32,84.74576271,,,,,,,,,,,,,,,,923.3605,924.654,924.654,926.4428,return,0.6975,,50,,,,,,FBP-RB-71.png,0.35,1.2,46,0.5,,,,,,,,,,,,,,,,,,0,20,20,45,1,,,,,,,,,,,,,,,,,,,,,,,
,,,,,V3_091,21,Female,2025-01-30_13h56.20.525,jersey_experiment_5_v3,2023.2.2,Win32,84.74576271,,,,,,,,,,,,,,,,926.443,927.9938,927.9938,929.9103,return,0.6355,,99.609375,,,,,,FBP-OG-81.png,0.43,1.2,39,0.75,,,,,,,,,,,,,,,,,,0,21,21,38,1,,,,,,,,,,,,,,,,,,,,,,,
,,,,,V3_091,21,Female,2025-01-30_13h56.20.525,jersey_experiment_5_v3,2023.2.2,Win32,84.74576271,,,,,,,,,,,,,,,,929.9104,931.2191,931.2191,933.9898,return,0.6664,,49.86979167,,,,,,FBP-PT-71.png,0.35,1.2,16,0.5,,,,,,,,,,,,,,,,,,0,22,22,15,1,,,,,,,,,,,,,,,,,,,,,,,
,,,,,V3_091,21,Female,2025-01-30_13h56.20.525,jersey_experiment_5_v3,2023.2.2,Win32,84.74576271,,,,,,,,,,,,,,,,933.99,935.5339,935.5339,937.8309,return,0.6972,,86.97916667,,,,,,FBP-OG-71.png,0.45,1.2,35,0.75,,,,,,,,,,,,,,,,,,0,23,23,34,1,,,,,,,,,,,,,,,,,,,,,,,
,,,,,V3_091,21,Female,2025-01-30_13h56.20.525,jersey_experiment_5_v3,2023.2.2,Win32,84.74576271,,,,,,,,,,,,,,,,937.8311,939.3839,939.384,940.8758,return,0.6674,,86.97916667,,,,,,FBP-OG-91.png,0.45,1.2,45,0.75,,,,,,,,,,,,,,,,,,0,24,24,44,1,,,,,,,,,,,,,,,,,,,,,,,
,,,,,V3_091,21,Female,2025-01-30_13h56.20.525,jersey_experiment_5_v3,2023.2.2,Win32,84.74576271,,,,,,,,,,,,,,,,940.876,942.1693,942.1693,944.2787,return,0.6843,,75.52083333,,,,,,FBP-RB-71.png,0.4,1.2,48,0.5,,,,,,,,,,,,,,,,,,0,25,25,47,1,,,,,,,,,,,,,,,,,,,,,,,
,,,,,V3_091,21,Female,2025-01-30_13h56.20.525,jersey_experiment_5_v3,2023.2.2,Win32,84.74576271,,,,,,,,,,,,,,,,944.2788,945.5735,945.5735,946.8903,return,0.6736,,74.34895833,,,,,,FBP-RB-81.png,0.37,1.2,52,0.5,,,,,,,,,,,,,,,,,,0,26,26,51,1,,,,,,,,,,,,,,,,,,,,,,,
,,,,,V3_091,21,Female,2025-01-30_13h56.20.525,jersey_experiment_5_v3,2023.2.2,Win32,84.74576271,,,,,,,,,,,,,,,,946.8905,948.1845,948.1845,949.7079,return,0.637,,74.73958333,,,,,,FBP-YG-19.png,0.35,1.2,11,0.5,,,,,,,,,,,,,,,,,,0,27,27,10,1,,,,,,,,,,,,,,,,,,,,,,,
,,,,,V3_091,21,Female,2025-01-30_13h56.20.525,jersey_experiment_5_v3,2023.2.2,Win32,84.74576271,,,,,,,,,,,,,,,,949.7081,951.0082,951.0082,952.2138,return,0.6544,,74.73958333,,,,,,FBP-YG-17.png,0.37,1.2,2,0.5,,,,,,,,,,,,,,,,,,0,28,28,1,1,,,,,,,,,,,,,,,,,,,,,,,
,,,,,V3_091,21,Female,2025-01-30_13h56.20.525,jersey_experiment_5_v3,2023.2.2,Win32,84.74576271,,,,,,,,,,,,,,,,952.2141,953.5081,953.5081,957.3227,return,0.6117,,50.52083333,,,,,,FBP-RB-91.png,0.35,1.2,56,0.5,,,,,,,,,,,,,,,,,,0,29,29,55,1,,,,,,,,,,,,,,,,,,,,,,,
,,,,,V3_091,21,Female,2025-01-30_13h56.20.525,jersey_experiment_5_v3,2023.2.2,Win32,84.74576271,,,,,,,,,,,,,,,,957.3228,958.8731,958.8731,960.8529,return,0.9031,,49.609375,,,,,,FBP-OG-71.png,0.4,1.2,33,0.75,,,,,,,,,,,,,,,,,,0,30,30,32,1,,,,,,,,,,,,,,,,,,,,,,,
,,,,,V3_091,21,Female,2025-01-30_13h56.20.525,jersey_experiment_5_v3,2023.2.2,Win32,84.74576271,,,,,,,,,,,,,,,,960.8531,962.4055,962.4055,964.9471,return,0.8942,,74.34895833,,,,,,FBP-OG-81.png,0.4,1.2,38,0.75,,,,,,,,,,,,,,,,,,0,31,31,37,1,,,,,,,,,,,,,,,,,,,,,,,
,,,,,V3_091,21,Female,2025-01-30_13h56.20.525,jersey_experiment_5_v3,2023.2.2,Win32,84.74576271,,,,,,,,,,,,,,,,964.9474,966.2411,966.2412,969.1032,return,0.6502,,99.47916667,,,,,,FBP-YG-17.png,0.45,1.2,5,0.5,,,,,,,,,,,,,,,,,,0,32,32,4,1,,,,,,,,,,,,,,,,,,,,,,,
,,,,,V3_091,21,Female,2025-01-30_13h56.20.525,jersey_experiment_5_v3,2023.2.2,Win32,84.74576271,,,,,,,,,,,,,,,,969.1033,970.4058,970.4059,974.2324,return,0.556,,75.13020833,,,,,,FBP-YG-18.png,0.35,1.2,6,0.5,,,,,,,,,,,,,,,,,,0,33,33,5,1,,,,,,,,,,,,,,,,,,,,,,,
,,,,,V3_091,21,Female,2025-01-30_13h56.20.525,jersey_experiment_5_v3,2023.2.2,Win32,84.74576271,,,,,,,,,,,,,,,,974.2326,975.5265,975.5266,976.7034,return,0.6974,,75.13020833,,,,,,FBP-YG-17.png,0.4,1.2,3,0.5,,,,,,,,,,,,,,,,,,0,34,34,2,1,,,,,,,,,,,,,,,,,,,,,,,
,,,,,V3_091,21,Female,2025-01-30_13h56.20.525,jersey_experiment_5_v3,2023.2.2,Win32,84.74576271,,,,,,,,,,,,,,,,976.7036,978.0056,978.0056,979.1914,return,0.735,,75.13020833,,,,,,FBP-RB-71.png,0.37,1.2,47,0.5,,,,,,,,,,,,,,,,,,0,35,35,46,1,,,,,,,,,,,,,,,,,,,,,,,
,,,,,V3_091,21,Female,2025-01-30_13h56.20.525,jersey_experiment_5_v3,2023.2.2,Win32,84.74576271,,,,,,,,,,,,,,,,979.1916,980.4855,980.4857,982.2621,return,0.7247,,99.609375,,,,,,FBP-RB-71.png,0.45,1.2,50,0.5,,,,,,,,,,,,,,,,,,0,36,36,49,1,,,,,,,,,,,,,,,,,,,,,,,
,,,,,V3_091,21,Female,2025-01-30_13h56.20.525,jersey_experiment_5_v3,2023.2.2,Win32,84.74576271,,,,,,,,,,,,,,,,982.2623,983.5563,983.5563,984.6889,return,0.6356,,99.609375,,,,,,FBP-YG-19.png,0.45,1.2,15,0.5,,,,,,,,,,,,,,,,,,0,37,37,14,1,,,,,,,,,,,,,,,,,,,,,,,
,,,,,V3_091,21,Female,2025-01-30_13h56.20.525,jersey_experiment_5_v3,2023.2.2,Win32,84.74576271,,,,,,,,,,,,,,,,984.6891,986.2415,986.2415,987.9743,return,0.6106,,74.47916667,,,,,,FBP-OG-71.png,0.37,1.2,32,0.75,,,,,,,,,,,,,,,,,,0,38,38,31,1,,,,,,,,,,,,,,,,,,,,,,,
,,,,,V3_091,21,Female,2025-01-30_13h56.20.525,jersey_experiment_5_v3,2023.2.2,Win32,84.74576271,,,,,,,,,,,,,,,,987.9744,989.2666,989.2666,990.5859,return,0.6735,,75.13020833,,,,,,FBP-YG-19.png,0.37,1.2,12,0.5,,,,,,,,,,,,,,,,,,0,39,39,11,1,,,,,,,,,,,,,,,,,,,,,,,
,,,,,V3_091,21,Female,2025-01-30_13h56.20.525,jersey_experiment_5_v3,2023.2.2,Win32,84.74576271,,,,,,,,,,,,,,,,990.586,992.1389,992.1389,993.2689,return,0.6271,,75.13020833,,,,,,FBP-OG-91.png,0.43,1.2,44,0.75,,,,,,,,,,,,,,,,,,0,40,40,43,1,,,,,,,,,,,,,,,,,,,,,,,
,,,,,V3_091,21,Female,2025-01-30_13h56.20.525,jersey_experiment_5_v3,2023.2.2,Win32,84.74576271,,,,,,,,,,,,,,,,993.2691,994.5627,994.5628,995.6776,return,0.6592,,75.13020833,,,,,,FBP-PT-81.png,0.43,1.2,24,0.5,,,,,,,,,,,,,,,,,,0,41,41,23,1,,,,,,,,,,,,,,,,,,,,,,,
,,,,,V3_091,21,Female,2025-01-30_13h56.20.525,jersey_experiment_5_v3,2023.2.2,Win32,84.74576271,,,,,,,,,,,,,,,,995.6777,996.9864,996.9864,1000.3043,return,0.7772,,99.21875,,,,,,FBP-PT-71.png,0.45,1.2,20,0.5,,,,,,,,,,,,,,,,,,0,42,42,19,1,,,,,,,,,,,,,,,,,,,,,,,
,,,,,V3_091,21,Female,2025-01-30_13h56.20.525,jersey_experiment_5_v3,2023.2.2,Win32,84.74576271,,,,,,,,,,,,,,,,1000.3045,1001.5985,1001.5985,1005.8513,return,0.7164,,99.73958333,,,,,,FBP-YG-18.png,0.45,1.2,10,0.5,,,,,,,,,,,,,,,,,,0,43,43,9,1,,,,,,,,,,,,,,,,,,,,,,,
,,,,,V3_091,21,Female,2025-01-30_13h56.20.525,jersey_experiment_5_v3,2023.2.2,Win32,84.74576271,,,,,,,,,,,,,,,,1005.8515,1007.1519,1007.1519,1008.6194,return,0.7385,,99.609375,,,,,,FBP-YG-18.png,0.4,1.2,8,0.5,,,,,,,,,,,,,,,,,,0,44,44,7,1,,,,,,,,,,,,,,,,,,,,,,,
,,,,,V3_091,21,Female,2025-01-30_13h56.20.525,jersey_experiment_5_v3,2023.2.2,Win32,84.74576271,,,,,,,,,,,,,,,,1008.6196,1009.9275,1009.9275,1011.3486,return,0.715,,99.609375,,,,,,FBP-RB-91.png,0.37,1.2,57,0.5,,,,,,,,,,,,,,,,,,0,45,45,56,1,,,,,,,,,,,,,,,,,,,,,,,
,,,,,V3_091,21,Female,2025-01-30_13h56.20.525,jersey_experiment_5_v3,2023.2.2,Win32,84.74576271,,,,,,,,,,,,,,,,1011.3489,1012.6576,1012.6577,1014.6339,return,0.7204,,75,,,,,,FBP-YG-18.png,0.37,1.2,7,0.5,,,,,,,,,,,,,,,,,,0,46,46,6,1,,,,,,,,,,,,,,,,,,,,,,,
,,,,,V3_091,21,Female,2025-01-30_13h56.20.525,jersey_experiment_5_v3,2023.2.2,Win32,84.74576271,,,,,,,,,,,,,,,,1014.634,1015.928,1015.9281,1017.4045,return,0.8251,,75,,,,,,FBP-YG-19.png,0.4,1.2,13,0.5,,,,,,,,,,,,,,,,,,0,47,47,12,1,,,,,,,,,,,,,,,,,,,,,,,
,,,,,V3_091,21,Female,2025-01-30_13h56.20.525,jersey_experiment_5_v3,2023.2.2,Win32,84.74576271,,,,,,,,,,,,,,,,1017.4047,1018.9488,1018.9488,1020.7051,return,0.6505,,50.390625,,,,,,FBP-OG-81.png,0.35,1.2,36,0.75,,,,,,,,,,,,,,,,,,0,48,48,35,1,,,,,,,,,,,,,,,,,,,,,,,
,,,,,V3_091,21,Female,2025-01-30_13h56.20.525,jersey_experiment_5_v3,2023.2.2,Win32,84.74576271,,,,,,,,,,,,,,,,1020.7053,1022.0078,1022.0079,1023.7962,return,0.6122,,73.95833333,,,,,,FBP-RB-81.png,0.4,1.2,53,0.5,,,,,,,,,,,,,,,,,,0,49,49,52,1,,,,,,,,,,,,,,,,,,,,,,,
,,,,,V3_091,21,Female,2025-01-30_13h56.20.525,jersey_experiment_5_v3,2023.2.2,Win32,84.74576271,,,,,,,,,,,,,,,,1023.7963,1025.0903,1025.0903,1026.894,return,0.6834,,75,,,,,,FBP-PT-71.png,0.37,1.2,17,0.5,,,,,,,,,,,,,,,,,,0,50,50,16,1,,,,,,,,,,,,,,,,,,,,,,,
,,,,,V3_091,21,Female,2025-01-30_13h56.20.525,jersey_experiment_5_v3,2023.2.2,Win32,84.74576271,,,,,,,,,,,,,,,,1026.8942,1028.4465,1028.4465,1030.3463,return,0.6384,,99.86979167,,,,,,FBP-OG-81.png,0.45,1.2,40,0.75,,,,,,,,,,,,,,,,,,0,51,51,39,1,,,,,,,,,,,,,,,,,,,,,,,
,,,,,V3_091,21,Female,2025-01-30_13h56.20.525,jersey_experiment_5_v3,2023.2.2,Win32,84.74576271,,,,,,,,,,,,,,,,1030.3465,1031.6464,1031.6464,1033.9292,return,0.6359,,74.21875,,,,,,FBP-YG-17.png,0.35,1.2,1,0.5,,,,,,,,,,,,,,,,,,0,52,52,0,1,,,,,,,,,,,,,,,,,,,,,,,
,,,,,V3_091,21,Female,2025-01-30_13h56.20.525,jersey_experiment_5_v3,2023.2.2,Win32,84.74576271,,,,,,,,,,,,,,,,1033.9293,1035.2317,1035.2317,1038.3759,return,0.8,,75.26041667,,,,,,FBP-PT-71.png,0.4,1.2,18,0.5,,,,,,,,,,,,,,,,,,0,53,53,17,1,,,,,,,,,,,,,,,,,,,,,,,
,,,,,V3_091,21,Female,2025-01-30_13h56.20.525,jersey_experiment_5_v3,2023.2.2,Win32,84.74576271,,,,,,,,,,,,,,,,1038.376,1039.6792,1039.6792,1040.8408,return,0.6397,,75.26041667,,,,,,FBP-PT-91.png,0.4,1.2,28,0.5,,,,,,,,,,,,,,,,,,0,54,54,27,1,,,,,,,,,,,,,,,,,,,,,,,
,,,,,V3_091,21,Female,2025-01-30_13h56.20.525,jersey_experiment_5_v3,2023.2.2,Win32,84.74576271,,,,,,,,,,,,,,,,1040.8411,1042.385,1042.385,1043.7878,return,0.6501,,99.21875,,,,,,FBP-OG-71.png,0.43,1.2,34,0.75,,,,,,,,,,,,,,,,,,0,55,55,33,1,,,,,,,,,,,,,,,,,,,,,,,
,,,,,V3_091,21,Female,2025-01-30_13h56.20.525,jersey_experiment_5_v3,2023.2.2,Win32,84.74576271,,,,,,,,,,,,,,,,1043.788,1045.0806,1045.0807,1046.9266,return,0.6209,,75.52083333,,,,,,FBP-PT-81.png,0.35,1.2,21,0.5,,,,,,,,,,,,,,,,,,0,56,56,20,1,,,,,,,,,,,,,,,,,,,,,,,
,,,,,V3_091,21,Female,2025-01-30_13h56.20.525,jersey_experiment_5_v3,2023.2.2,Win32,84.74576271,,,,,,,,,,,,,,,,1046.9268,1048.2354,1048.2355,1049.8442,return,0.5651,,99.21875,,,,,,FBP-PT-71.png,0.43,1.2,19,0.5,,,,,,,,,,,,,,,,,,0,57,57,18,1,,,,,,,,,,,,,,,,,,,,,,,
,,,,,V3_091,21,Female,2025-01-30_13h56.20.525,jersey_experiment_5_v3,2023.2.2,Win32,84.74576271,,,,,,,,,,,,,,,,1049.8444,1051.1384,1051.1384,1052.5411,return,0.6968,,99.73958333,,,,,,FBP-PT-91.png,0.45,1.2,30,0.5,,,,,,,,,,,,,,,,,,0,58,58,29,1,,,,,,,,,,,,,,,,,,,,,,,
,,,,,V3_091,21,Female,2025-01-30_13h56.20.525,jersey_experiment_5_v3,2023.2.2,Win32,84.74576271,,,,,,,,,,,,,,,,1052.5413,1053.8355,1053.8355,1055.1063,return,0.6825,,99.73958333,,,,,,FBP-YG-18.png,0.43,1.2,9,0.5,,,,,,,,,,,,,,,,,,0,59,59,8,1,,,,,,,,,,,,,,,,,,,,,,,
,,,,,V3_091,21,Female,2025-01-30_13h56.20.525,jersey_experiment_5_v3,2023.2.2,Win32,84.74576271,,,,,,,,,,,,,,,,,,,,,,,,,,,,,,,,,,,,,,,,,,,,,,,,,,,,,,,,1055.1064,1059.4682,return,4.3528,,,,,,,,,,,,,,,,,,,
,,,,,V3_091,21,Female,2025-01-30_13h56.20.525,jersey_experiment_5_v3,2023.2.2,Win32,84.74576271,,,,,,,,,,,,,,,,,,,,,,,,,,,,,,,,,,,,,,,,,,,,,,,,,,,,,,,,,,,,,1059.4682,1063.6565,1,2.9873,return,1.1856,,,,,,,,,,,,
,,,,,V3_091,21,Female,2025-01-30_13h56.20.525,jersey_experiment_5_v3,2023.2.2,Win32,84.74576271,,,,,,,,,,,,,,,,,,,,,,,,,,,,,,,,,,,,,,,,,,,,,,,,,,,,,,,,,,,,,,,,,,,,1063.6565,1134.6625,I think the study might be about how different color contrasts may affect your perception of size. I noticed the same a pattern in terms of the color the football players were wearing.,right,67.4997,,,,,,
,,,,,V3_091,21,Female,2025-01-30_13h56.20.525,jersey_experiment_5_v3,2023.2.2,Win32,84.74576271,,,,,,,,,,,,,,,,,,,,,,,,,,,,,,,,,,,,,,,,,,,,,,,,,,,,,,,,,,,,,,,,,,,,,,,,,,1134.6625,1137.5567,return,2.8858,