requirements.started,requirements.stopped,key_resp_3.keys,key_resp_3.rt,key_resp_3.duration,Subject ID,Age,Gender,date,expName,psychopyVersion,OS,frameRate,instructions1.started,instructions1.stopped,key_resp.keys,key_resp.rt,key_resp.duration,example.started,example.stopped,enter_2.keys,enter_2.rt,enter_2.duration,instructions2.started,instructions2.stopped,enter_3.keys,enter_3.rt,enter_3.duration,image.started,image.stopped,slider_2.started,slider_2.stopped,next.keys,next.rt,next.duration,slider.response,trial_block_1.thisRepN,trial_block_1.thisTrialN,trial_block_1.thisN,trial_block_1.thisIndex,trial_block_1.ran,Path,Width,Height,Index,Duration,trial_block_2.thisRepN,trial_block_2.thisTrialN,trial_block_2.thisN,trial_block_2.thisIndex,trial_block_2.ran,rest_break.started,rest_break.stopped,end_break.started,end_break.stopped,key_resp_5.keys,key_resp_5.rt,key_resp_5.duration,trial_block_3.thisRepN,trial_block_3.thisTrialN,trial_block_3.thisN,trial_block_3.thisIndex,trial_block_3.ran,trial_block_4.thisRepN,trial_block_4.thisTrialN,trial_block_4.thisN,trial_block_4.thisIndex,trial_block_4.ran,questions_intro.started,questions_intro.stopped,enter_12.keys,enter_12.rt,enter_12.duration,question2.started,question2.stopped,question_doingbest.response,question_doingbest.rt,enter_15.keys,enter_15.rt,enter_15.duration,pattern.started,pattern.stopped,pattern_2.text,enter_17.keys,enter_17.rt,enter_17.duration,thankyou.started,thankyou.stopped,enter_14.keys,enter_14.rt,enter_14.duration
0.0002,13.5322,return,13.52,,V3_025,20,Female,2024-10-19_15h03.44.074,jersey_experiment_5_v3,2023.2.2,Win32,84.74576271,,,,,,,,,,,,,,,,,,,,,,,,,,,,,,,,,,,,,,,,,,,,,,,,,,,,,,,,,,,,,,,,,,,,,,,,,,,,,,
,,,,,V3_025,20,Female,2024-10-19_15h03.44.074,jersey_experiment_5_v3,2023.2.2,Win32,84.74576271,13.5323,24.3913,return,10.8438,,,,,,,,,,,,,,,,,,,,,,,,,,,,,,,,,,,,,,,,,,,,,,,,,,,,,,,,,,,,,,,,,,,,,,,,,,
,,,,,V3_025,20,Female,2024-10-19_15h03.44.074,jersey_experiment_5_v3,2023.2.2,Win32,84.74576271,,,,,,24.3913,30.4505,return,6.0144,,,,,,,,,,,,,,,,,,,,,,,,,,,,,,,,,,,,,,,,,,,,,,,,,,,,,,,,,,,,,,,,,,,,,
,,,,,V3_025,20,Female,2024-10-19_15h03.44.074,jersey_experiment_5_v3,2023.2.2,Win32,84.74576271,,,,,,,,,,,30.4506,46.3453,return,15.8865,,,,,,,,,,,,,,,,,,,,,,,,,,,,,,,,,,,,,,,,,,,,,,,,,,,,,,,,,,,,,,,,
,,,,,V3_025,20,Female,2024-10-19_15h03.44.074,jersey_experiment_5_v3,2023.2.2,Win32,84.74576271,,,,,,,,,,,,,,,,46.3474,47.898,47.8981,58.9456,return,4.9648,,86.97916667,0,0,0,54,1,FBP-RB-18.png,0.45,1.2,55,0.75,,,,,,,,,,,,,,,,,,,,,,,,,,,,,,,,,,,,,,,,,,,,,
,,,,,V3_025,20,Female,2024-10-19_15h03.44.074,jersey_experiment_5_v3,2023.2.2,Win32,84.74576271,,,,,,,,,,,,,,,,58.946,60.4986,60.4986,69.7577,return,7.2393,,66.92708333,0,1,1,58,1,FBP-RB-19.png,0.43,1.2,59,0.75,,,,,,,,,,,,,,,,,,,,,,,,,,,,,,,,,,,,,,,,,,,,,
,,,,,V3_025,20,Female,2024-10-19_15h03.44.074,jersey_experiment_5_v3,2023.2.2,Win32,84.74576271,,,,,,,,,,,,,,,,69.758,71.0517,71.0518,73.3226,return,0.7428,,68.359375,0,2,2,34,1,FBP-OG-17.png,0.45,1.2,35,0.5,,,,,,,,,,,,,,,,,,,,,,,,,,,,,,,,,,,,,,,,,,,,,
,,,,,V3_025,20,Female,2024-10-19_15h03.44.074,jersey_experiment_5_v3,2023.2.2,Win32,84.74576271,,,,,,,,,,,,,,,,73.3228,74.8755,74.8755,80.0404,return,2.8061,,35.546875,0,3,3,47,1,FBP-RB-17.png,0.4,1.2,48,0.75,,,,,,,,,,,,,,,,,,,,,,,,,,,,,,,,,,,,,,,,,,,,,
,,,,,V3_025,20,Female,2024-10-19_15h03.44.074,jersey_experiment_5_v3,2023.2.2,Win32,84.74576271,,,,,,,,,,,,,,,,80.0407,81.5933,81.5934,84.1934,return,0.9261,,23.95833333,0,4,4,10,1,FBP-YG-91.png,0.35,1.2,11,0.75,,,,,,,,,,,,,,,,,,,,,,,,,,,,,,,,,,,,,,,,,,,,,
,,,,,V3_025,20,Female,2024-10-19_15h03.44.074,jersey_experiment_5_v3,2023.2.2,Win32,84.74576271,,,,,,,,,,,,,,,,84.1936,85.7465,85.7466,88.6173,return,0.7919,,49.21875,0,5,5,17,1,FBP-PT-17.png,0.4,1.2,18,0.75,,,,,,,,,,,,,,,,,,,,,,,,,,,,,,,,,,,,,,,,,,,,,
,,,,,V3_025,20,Female,2024-10-19_15h03.44.074,jersey_experiment_5_v3,2023.2.2,Win32,84.74576271,,,,,,,,,,,,,,,,88.6177,90.1702,90.1702,93.1115,return,0.9733,,17.1875,0,6,6,46,1,FBP-RB-17.png,0.37,1.2,47,0.75,,,,,,,,,,,,,,,,,,,,,,,,,,,,,,,,,,,,,,,,,,,,,
,,,,,V3_025,20,Female,2024-10-19_15h03.44.074,jersey_experiment_5_v3,2023.2.2,Win32,84.74576271,,,,,,,,,,,,,,,,93.1119,94.4056,94.4056,97.4528,return,0.7289,,70.05208333,0,7,7,33,1,FBP-OG-17.png,0.43,1.2,34,0.5,,,,,,,,,,,,,,,,,,,,,,,,,,,,,,,,,,,,,,,,,,,,,
,,,,,V3_025,20,Female,2024-10-19_15h03.44.074,jersey_experiment_5_v3,2023.2.2,Win32,84.74576271,,,,,,,,,,,,,,,,97.4531,99.0058,99.0059,101.7236,return,0.9222,,36.06770833,0,8,8,26,1,FBP-PT-19.png,0.37,1.2,27,0.75,,,,,,,,,,,,,,,,,,,,,,,,,,,,,,,,,,,,,,,,,,,,,
,,,,,V3_025,20,Female,2024-10-19_15h03.44.074,jersey_experiment_5_v3,2023.2.2,Win32,84.74576271,,,,,,,,,,,,,,,,101.7238,103.2766,103.2766,105.7119,return,0.6376,,81.51041667,0,9,9,9,1,FBP-YG-81.png,0.45,1.2,10,0.75,,,,,,,,,,,,,,,,,,,,,,,,,,,,,,,,,,,,,,,,,,,,,
,,,,,V3_025,20,Female,2024-10-19_15h03.44.074,jersey_experiment_5_v3,2023.2.2,Win32,84.74576271,,,,,,,,,,,,,,,,105.7122,107.265,107.265,109.7592,return,0.7667,,45.83333333,0,10,10,16,1,FBP-PT-17.png,0.37,1.2,17,0.75,,,,,,,,,,,,,,,,,,,,,,,,,,,,,,,,,,,,,,,,,,,,,
,,,,,V3_025,20,Female,2024-10-19_15h03.44.074,jersey_experiment_5_v3,2023.2.2,Win32,84.74576271,,,,,,,,,,,,,,,,109.7595,111.3122,111.3122,113.9946,return,0.6994,,92.44791667,0,11,11,14,1,FBP-YG-91.png,0.45,1.2,15,0.75,,,,,,,,,,,,,,,,,,,,,,,,,,,,,,,,,,,,,,,,,,,,,
,,,,,V3_025,20,Female,2024-10-19_15h03.44.074,jersey_experiment_5_v3,2023.2.2,Win32,84.74576271,,,,,,,,,,,,,,,,113.9949,115.5476,115.5477,118.4654,return,0.8233,,49.47916667,0,12,12,12,1,FBP-YG-91.png,0.4,1.2,13,0.75,,,,,,,,,,,,,,,,,,,,,,,,,,,,,,,,,,,,,,,,,,,,,
,,,,,V3_025,20,Female,2024-10-19_15h03.44.074,jersey_experiment_5_v3,2023.2.2,Win32,84.74576271,,,,,,,,,,,,,,,,118.4655,120.0183,120.0185,122.4303,return,0.8103,,74.73958333,0,13,13,13,1,FBP-YG-91.png,0.43,1.2,14,0.75,,,,,,,,,,,,,,,,,,,,,,,,,,,,,,,,,,,,,,,,,,,,,
,,,,,V3_025,20,Female,2024-10-19_15h03.44.074,jersey_experiment_5_v3,2023.2.2,Win32,84.74576271,,,,,,,,,,,,,,,,122.4306,123.9832,123.9833,126.748,return,0.8009,,24.73958333,0,14,14,56,1,FBP-RB-19.png,0.37,1.2,57,0.75,,,,,,,,,,,,,,,,,,,,,,,,,,,,,,,,,,,,,,,,,,,,,
,,,,,V3_025,20,Female,2024-10-19_15h03.44.074,jersey_experiment_5_v3,2023.2.2,Win32,84.74576271,,,,,,,,,,,,,,,,126.7482,128.301,128.301,130.4894,return,0.781,,12.76041667,0,15,15,55,1,FBP-RB-19.png,0.35,1.2,56,0.75,,,,,,,,,,,,,,,,,,,,,,,,,,,,,,,,,,,,,,,,,,,,,
,,,,,V3_025,20,Female,2024-10-19_15h03.44.074,jersey_experiment_5_v3,2023.2.2,Win32,84.74576271,,,,,,,,,,,,,,,,130.4896,131.7835,131.7836,135.2307,return,0.778,,25.78125,0,16,16,30,1,FBP-OG-17.png,0.35,1.2,31,0.5,,,,,,,,,,,,,,,,,,,,,,,,,,,,,,,,,,,,,,,,,,,,,
,,,,,V3_025,20,Female,2024-10-19_15h03.44.074,jersey_experiment_5_v3,2023.2.2,Win32,84.74576271,,,,,,,,,,,,,,,,135.2308,136.5249,136.525,139.6897,return,0.9229,,92.70833333,0,17,17,38,1,FBP-OG-18.png,0.43,1.2,39,0.5,,,,,,,,,,,,,,,,,,,,,,,,,,,,,,,,,,,,,,,,,,,,,
,,,,,V3_025,20,Female,2024-10-19_15h03.44.074,jersey_experiment_5_v3,2023.2.2,Win32,84.74576271,,,,,,,,,,,,,,,,139.69,141.2426,141.2427,144.5723,return,0.9452,,65.625,0,18,18,7,1,FBP-YG-81.png,0.4,1.2,8,0.75,,,,,,,,,,,,,,,,,,,,,,,,,,,,,,,,,,,,,,,,,,,,,
,,,,,V3_025,20,Female,2024-10-19_15h03.44.074,jersey_experiment_5_v3,2023.2.2,Win32,84.74576271,,,,,,,,,,,,,,,,144.5725,146.1251,146.1252,150.8312,return,2.0093,,66.92708333,0,19,19,28,1,FBP-PT-19.png,0.43,1.2,29,0.75,,,,,,,,,,,,,,,,,,,,,,,,,,,,,,,,,,,,,,,,,,,,,
,,,,,V3_025,20,Female,2024-10-19_15h03.44.074,jersey_experiment_5_v3,2023.2.2,Win32,84.74576271,,,,,,,,,,,,,,,,150.8315,152.3842,152.3843,154.5726,return,0.6699,,27.34375,0,20,20,11,1,FBP-YG-91.png,0.37,1.2,12,0.75,,,,,,,,,,,,,,,,,,,,,,,,,,,,,,,,,,,,,,,,,,,,,
,,,,,V3_025,20,Female,2024-10-19_15h03.44.074,jersey_experiment_5_v3,2023.2.2,Win32,84.74576271,,,,,,,,,,,,,,,,154.5729,155.8668,155.8668,159.9139,return,1.6536,,56.640625,0,21,21,32,1,FBP-OG-17.png,0.4,1.2,33,0.5,,,,,,,,,,,,,,,,,,,,,,,,,,,,,,,,,,,,,,,,,,,,,
,,,,,V3_025,20,Female,2024-10-19_15h03.44.074,jersey_experiment_5_v3,2023.2.2,Win32,84.74576271,,,,,,,,,,,,,,,,159.9141,161.467,161.467,163.7612,return,0.9383,,48.17708333,0,22,22,25,1,FBP-PT-19.png,0.35,1.2,26,0.75,,,,,,,,,,,,,,,,,,,,,,,,,,,,,,,,,,,,,,,,,,,,,
,,,,,V3_025,20,Female,2024-10-19_15h03.44.074,jersey_experiment_5_v3,2023.2.2,Win32,84.74576271,,,,,,,,,,,,,,,,163.7615,165.0553,165.0553,169.3144,return,2.5885,,80.33854167,0,23,23,43,1,FBP-OG-19.png,0.43,1.2,44,0.5,,,,,,,,,,,,,,,,,,,,,,,,,,,,,,,,,,,,,,,,,,,,,
,,,,,V3_025,20,Female,2024-10-19_15h03.44.074,jersey_experiment_5_v3,2023.2.2,Win32,84.74576271,,,,,,,,,,,,,,,,169.3146,170.8672,170.8673,175.7381,return,2.3239,,51.171875,0,24,24,2,1,FBP-YG-71.png,0.4,1.2,3,0.75,,,,,,,,,,,,,,,,,,,,,,,,,,,,,,,,,,,,,,,,,,,,,
,,,,,V3_025,20,Female,2024-10-19_15h03.44.074,jersey_experiment_5_v3,2023.2.2,Win32,84.74576271,,,,,,,,,,,,,,,,175.7384,177.291,177.291,179.9382,return,1.3177,,45.703125,0,25,25,1,1,FBP-YG-71.png,0.37,1.2,2,0.75,,,,,,,,,,,,,,,,,,,,,,,,,,,,,,,,,,,,,,,,,,,,,
,,,,,V3_025,20,Female,2024-10-19_15h03.44.074,jersey_experiment_5_v3,2023.2.2,Win32,84.74576271,,,,,,,,,,,,,,,,179.9384,181.4913,181.4913,183.6324,return,0.9971,,82.16145833,0,26,26,4,1,FBP-YG-71.png,0.45,1.2,5,0.75,,,,,,,,,,,,,,,,,,,,,,,,,,,,,,,,,,,,,,,,,,,,,
,,,,,V3_025,20,Female,2024-10-19_15h03.44.074,jersey_experiment_5_v3,2023.2.2,Win32,84.74576271,,,,,,,,,,,,,,,,183.6326,185.1853,185.1854,191.4209,return,2.568,,46.484375,0,27,27,21,1,FBP-PT-18.png,0.37,1.2,22,0.75,,,,,,,,,,,,,,,,,,,,,,,,,,,,,,,,,,,,,,,,,,,,,
,,,,,V3_025,20,Female,2024-10-19_15h03.44.074,jersey_experiment_5_v3,2023.2.2,Win32,84.74576271,,,,,,,,,,,,,,,,191.4212,192.7151,192.7151,195.0093,return,0.7195,,88.54166667,0,28,28,39,1,FBP-OG-18.png,0.45,1.2,40,0.5,,,,,,,,,,,,,,,,,,,,,,,,,,,,,,,,,,,,,,,,,,,,,
,,,,,V3_025,20,Female,2024-10-19_15h03.44.074,jersey_experiment_5_v3,2023.2.2,Win32,84.74576271,,,,,,,,,,,,,,,,195.0096,196.3036,196.3036,199.386,return,0.9668,,24.08854167,0,29,29,35,1,FBP-OG-18.png,0.35,1.2,36,0.5,,,,,,,,,,,,,,,,,,,,,,,,,,,,,,,,,,,,,,,,,,,,,
,,,,,V3_025,20,Female,2024-10-19_15h03.44.074,jersey_experiment_5_v3,2023.2.2,Win32,84.74576271,,,,,,,,,,,,,,,,199.3864,200.9389,200.939,205.4685,return,1.2978,,54.6875,0,30,30,57,1,FBP-RB-19.png,0.4,1.2,58,0.75,,,,,,,,,,,,,,,,,,,,,,,,,,,,,,,,,,,,,,,,,,,,,
,,,,,V3_025,20,Female,2024-10-19_15h03.44.074,jersey_experiment_5_v3,2023.2.2,Win32,84.74576271,,,,,,,,,,,,,,,,205.4687,206.7626,206.7626,211.457,return,2.9677,,49.609375,0,31,31,41,1,FBP-OG-19.png,0.37,1.2,42,0.5,,,,,,,,,,,,,,,,,,,,,,,,,,,,,,,,,,,,,,,,,,,,,
,,,,,V3_025,20,Female,2024-10-19_15h03.44.074,jersey_experiment_5_v3,2023.2.2,Win32,84.74576271,,,,,,,,,,,,,,,,211.4572,213.01,213.0101,215.0573,return,0.8232,,25.52083333,0,32,32,50,1,FBP-RB-18.png,0.35,1.2,51,0.75,,,,,,,,,,,,,,,,,,,,,,,,,,,,,,,,,,,,,,,,,,,,,
,,,,,V3_025,20,Female,2024-10-19_15h03.44.074,jersey_experiment_5_v3,2023.2.2,Win32,84.74576271,,,,,,,,,,,,,,,,215.0575,216.6102,216.6103,219.1515,return,1.0122,,57.94270833,0,33,33,53,1,FBP-RB-18.png,0.43,1.2,54,0.75,,,,,,,,,,,,,,,,,,,,,,,,,,,,,,,,,,,,,,,,,,,,,
,,,,,V3_025,20,Female,2024-10-19_15h03.44.074,jersey_experiment_5_v3,2023.2.2,Win32,84.74576271,,,,,,,,,,,,,,,,219.1517,220.7044,220.7045,222.4459,return,0.8217,,67.578125,0,34,34,8,1,FBP-YG-81.png,0.43,1.2,9,0.75,,,,,,,,,,,,,,,,,,,,,,,,,,,,,,,,,,,,,,,,,,,,,
,,,,,V3_025,20,Female,2024-10-19_15h03.44.074,jersey_experiment_5_v3,2023.2.2,Win32,84.74576271,,,,,,,,,,,,,,,,222.4461,223.7399,223.7399,226.0576,return,0.7676,,82.03125,0,35,35,37,1,FBP-OG-18.png,0.4,1.2,38,0.5,,,,,,,,,,,,,,,,,,,,,,,,,,,,,,,,,,,,,,,,,,,,,
,,,,,V3_025,20,Female,2024-10-19_15h03.44.074,jersey_experiment_5_v3,2023.2.2,Win32,84.74576271,,,,,,,,,,,,,,,,226.0579,227.6106,227.6106,230.4812,return,2.2431,,83.59375,0,36,36,3,1,FBP-YG-71.png,0.43,1.2,4,0.75,,,,,,,,,,,,,,,,,,,,,,,,,,,,,,,,,,,,,,,,,,,,,
,,,,,V3_025,20,Female,2024-10-19_15h03.44.074,jersey_experiment_5_v3,2023.2.2,Win32,84.74576271,,,,,,,,,,,,,,,,230.4815,232.0342,232.0342,234.3167,return,1.4233,,94.40104167,0,37,37,48,1,FBP-RB-17.png,0.43,1.2,49,0.75,,,,,,,,,,,,,,,,,,,,,,,,,,,,,,,,,,,,,,,,,,,,,
,,,,,V3_025,20,Female,2024-10-19_15h03.44.074,jersey_experiment_5_v3,2023.2.2,Win32,84.74576271,,,,,,,,,,,,,,,,234.3169,235.8697,235.8697,239.3759,return,1.6945,,8.984375,0,38,38,5,1,FBP-YG-81.png,0.35,1.2,6,0.75,,,,,,,,,,,,,,,,,,,,,,,,,,,,,,,,,,,,,,,,,,,,,
,,,,,V3_025,20,Female,2024-10-19_15h03.44.074,jersey_experiment_5_v3,2023.2.2,Win32,84.74576271,,,,,,,,,,,,,,,,239.3762,240.9287,240.9287,243.6465,return,1.0042,,94.66145833,0,39,39,24,1,FBP-PT-18.png,0.45,1.2,25,0.75,,,,,,,,,,,,,,,,,,,,,,,,,,,,,,,,,,,,,,,,,,,,,
,,,,,V3_025,20,Female,2024-10-19_15h03.44.074,jersey_experiment_5_v3,2023.2.2,Win32,84.74576271,,,,,,,,,,,,,,,,243.6467,245.1995,245.1995,248.8585,return,1.3234,,67.96875,0,40,40,22,1,FBP-PT-18.png,0.4,1.2,23,0.75,,,,,,,,,,,,,,,,,,,,,,,,,,,,,,,,,,,,,,,,,,,,,
,,,,,V3_025,20,Female,2024-10-19_15h03.44.074,jersey_experiment_5_v3,2023.2.2,Win32,84.74576271,,,,,,,,,,,,,,,,248.8587,250.4113,250.4114,254.247,return,1.712,,39.32291667,0,41,41,15,1,FBP-PT-17.png,0.35,1.2,16,0.75,,,,,,,,,,,,,,,,,,,,,,,,,,,,,,,,,,,,,,,,,,,,,
,,,,,V3_025,20,Female,2024-10-19_15h03.44.074,jersey_experiment_5_v3,2023.2.2,Win32,84.74576271,,,,,,,,,,,,,,,,254.2471,255.7997,255.7998,259.8705,return,1.9547,,93.88020833,0,42,42,18,1,FBP-PT-17.png,0.43,1.2,19,0.75,,,,,,,,,,,,,,,,,,,,,,,,,,,,,,,,,,,,,,,,,,,,,
,,,,,V3_025,20,Female,2024-10-19_15h03.44.074,jersey_experiment_5_v3,2023.2.2,Win32,84.74576271,,,,,,,,,,,,,,,,259.8708,261.4236,261.4237,263.106,return,0.6963,,99.21875,0,43,43,19,1,FBP-PT-17.png,0.45,1.2,20,0.75,,,,,,,,,,,,,,,,,,,,,,,,,,,,,,,,,,,,,,,,,,,,,
,,,,,V3_025,20,Female,2024-10-19_15h03.44.074,jersey_experiment_5_v3,2023.2.2,Win32,84.74576271,,,,,,,,,,,,,,,,263.1063,264.6589,264.659,267.5179,return,1.367,,78.25520833,0,44,44,52,1,FBP-RB-18.png,0.4,1.2,53,0.75,,,,,,,,,,,,,,,,,,,,,,,,,,,,,,,,,,,,,,,,,,,,,
,,,,,V3_025,20,Female,2024-10-19_15h03.44.074,jersey_experiment_5_v3,2023.2.2,Win32,84.74576271,,,,,,,,,,,,,,,,267.5182,269.0708,269.0709,270.9533,return,0.6892,,85.80729167,0,45,45,49,1,FBP-RB-17.png,0.45,1.2,50,0.75,,,,,,,,,,,,,,,,,,,,,,,,,,,,,,,,,,,,,,,,,,,,,
,,,,,V3_025,20,Female,2024-10-19_15h03.44.074,jersey_experiment_5_v3,2023.2.2,Win32,84.74576271,,,,,,,,,,,,,,,,270.9536,272.2475,272.2475,275.7771,return,1.9295,,34.89583333,0,46,46,31,1,FBP-OG-17.png,0.37,1.2,32,0.5,,,,,,,,,,,,,,,,,,,,,,,,,,,,,,,,,,,,,,,,,,,,,
,,,,,V3_025,20,Female,2024-10-19_15h03.44.074,jersey_experiment_5_v3,2023.2.2,Win32,84.74576271,,,,,,,,,,,,,,,,275.7773,277.3301,277.3301,280.2006,return,1.3571,,74.609375,0,47,47,59,1,FBP-RB-19.png,0.45,1.2,60,0.75,,,,,,,,,,,,,,,,,,,,,,,,,,,,,,,,,,,,,,,,,,,,,
,,,,,V3_025,20,Female,2024-10-19_15h03.44.074,jersey_experiment_5_v3,2023.2.2,Win32,84.74576271,,,,,,,,,,,,,,,,280.2009,281.7423,281.7423,283.7538,return,0.7461,,27.60416667,0,48,48,45,1,FBP-RB-17.png,0.35,1.2,46,0.75,,,,,,,,,,,,,,,,,,,,,,,,,,,,,,,,,,,,,,,,,,,,,
,,,,,V3_025,20,Female,2024-10-19_15h03.44.074,jersey_experiment_5_v3,2023.2.2,Win32,84.74576271,,,,,,,,,,,,,,,,283.754,285.0479,285.048,286.8128,return,0.8145,,42.96875,0,49,49,42,1,FBP-OG-19.png,0.4,1.2,43,0.5,,,,,,,,,,,,,,,,,,,,,,,,,,,,,,,,,,,,,,,,,,,,,
,,,,,V3_025,20,Female,2024-10-19_15h03.44.074,jersey_experiment_5_v3,2023.2.2,Win32,84.74576271,,,,,,,,,,,,,,,,286.813,288.3657,288.3658,291.4836,return,2.2517,,27.47395833,0,50,50,6,1,FBP-YG-81.png,0.37,1.2,7,0.75,,,,,,,,,,,,,,,,,,,,,,,,,,,,,,,,,,,,,,,,,,,,,
,,,,,V3_025,20,Female,2024-10-19_15h03.44.074,jersey_experiment_5_v3,2023.2.2,Win32,84.74576271,,,,,,,,,,,,,,,,291.4839,293.0366,293.0367,294.813,return,0.615,,23.4375,0,51,51,20,1,FBP-PT-18.png,0.35,1.2,21,0.75,,,,,,,,,,,,,,,,,,,,,,,,,,,,,,,,,,,,,,,,,,,,,
,,,,,V3_025,20,Female,2024-10-19_15h03.44.074,jersey_experiment_5_v3,2023.2.2,Win32,84.74576271,,,,,,,,,,,,,,,,294.8133,296.3661,296.3661,298.5073,return,0.6488,,77.60416667,0,52,52,23,1,FBP-PT-18.png,0.43,1.2,24,0.75,,,,,,,,,,,,,,,,,,,,,,,,,,,,,,,,,,,,,,,,,,,,,
,,,,,V3_025,20,Female,2024-10-19_15h03.44.074,jersey_experiment_5_v3,2023.2.2,Win32,84.74576271,,,,,,,,,,,,,,,,298.5075,299.8014,299.8014,302.1545,return,0.7219,,50.26041667,0,53,53,36,1,FBP-OG-18.png,0.37,1.2,37,0.5,,,,,,,,,,,,,,,,,,,,,,,,,,,,,,,,,,,,,,,,,,,,,
,,,,,V3_025,20,Female,2024-10-19_15h03.44.074,jersey_experiment_5_v3,2023.2.2,Win32,84.74576271,,,,,,,,,,,,,,,,302.1547,303.7075,303.7075,305.1311,return,0.6841,,42.44791667,0,54,54,51,1,FBP-RB-18.png,0.37,1.2,52,0.75,,,,,,,,,,,,,,,,,,,,,,,,,,,,,,,,,,,,,,,,,,,,,
,,,,,V3_025,20,Female,2024-10-19_15h03.44.074,jersey_experiment_5_v3,2023.2.2,Win32,84.74576271,,,,,,,,,,,,,,,,305.1314,306.684,306.684,307.896,return,0.667,,42.44791667,0,55,55,0,1,FBP-YG-71.png,0.35,1.2,1,0.75,,,,,,,,,,,,,,,,,,,,,,,,,,,,,,,,,,,,,,,,,,,,,
,,,,,V3_025,20,Female,2024-10-19_15h03.44.074,jersey_experiment_5_v3,2023.2.2,Win32,84.74576271,,,,,,,,,,,,,,,,307.8963,309.449,309.449,311.2725,return,0.7018,,97.65625,0,56,56,29,1,FBP-PT-19.png,0.45,1.2,30,0.75,,,,,,,,,,,,,,,,,,,,,,,,,,,,,,,,,,,,,,,,,,,,,
,,,,,V3_025,20,Female,2024-10-19_15h03.44.074,jersey_experiment_5_v3,2023.2.2,Win32,84.74576271,,,,,,,,,,,,,,,,311.2727,312.5667,312.5667,315.7669,return,1.3151,,17.44791667,0,57,57,40,1,FBP-OG-19.png,0.35,1.2,41,0.5,,,,,,,,,,,,,,,,,,,,,,,,,,,,,,,,,,,,,,,,,,,,,
,,,,,V3_025,20,Female,2024-10-19_15h03.44.074,jersey_experiment_5_v3,2023.2.2,Win32,84.74576271,,,,,,,,,,,,,,,,315.7671,317.0611,317.0611,319.7904,return,1.0591,,99.34895833,0,58,58,44,1,FBP-OG-19.png,0.45,1.2,45,0.5,,,,,,,,,,,,,,,,,,,,,,,,,,,,,,,,,,,,,,,,,,,,,
,,,,,V3_025,20,Female,2024-10-19_15h03.44.074,jersey_experiment_5_v3,2023.2.2,Win32,84.74576271,,,,,,,,,,,,,,,,319.7907,321.3434,321.3434,322.9553,return,0.862,,80.33854167,0,59,59,27,1,FBP-PT-19.png,0.4,1.2,28,0.75,,,,,,,,,,,,,,,,,,,,,,,,,,,,,,,,,,,,,,,,,,,,,
,,,,,V3_025,20,Female,2024-10-19_15h03.44.074,jersey_experiment_5_v3,2023.2.2,Win32,84.74576271,,,,,,,,,,,,,,,,322.9573,324.5083,324.5083,325.8024,return,0.7662,,84.50520833,,,,,,FBP-RB-71.png,0.45,1.2,50,0.75,0,0,0,49,1,,,,,,,,,,,,,,,,,,,,,,,,,,,,,,,,,,,,,,,,
,,,,,V3_025,20,Female,2024-10-19_15h03.44.074,jersey_experiment_5_v3,2023.2.2,Win32,84.74576271,,,,,,,,,,,,,,,,325.8027,327.3554,327.3555,329.4966,return,1.4294,,98.828125,,,,,,FBP-RB-81.png,0.45,1.2,55,0.75,0,1,1,54,1,,,,,,,,,,,,,,,,,,,,,,,,,,,,,,,,,,,,,,,,
,,,,,V3_025,20,Female,2024-10-19_15h03.44.074,jersey_experiment_5_v3,2023.2.2,Win32,84.74576271,,,,,,,,,,,,,,,,329.4968,331.0497,331.0498,332.638,return,1.155,,100,,,,,,FBP-RB-91.png,0.45,1.2,60,0.75,0,2,2,59,1,,,,,,,,,,,,,,,,,,,,,,,,,,,,,,,,,,,,,,,,
,,,,,V3_025,20,Female,2024-10-19_15h03.44.074,jersey_experiment_5_v3,2023.2.2,Win32,84.74576271,,,,,,,,,,,,,,,,332.6381,334.1792,334.1793,336.2851,return,1.145,,95.83333333,,,,,,FBP-RB-81.png,0.43,1.2,54,0.75,0,3,3,53,1,,,,,,,,,,,,,,,,,,,,,,,,,,,,,,,,,,,,,,,,
,,,,,V3_025,20,Female,2024-10-19_15h03.44.074,jersey_experiment_5_v3,2023.2.2,Win32,84.74576271,,,,,,,,,,,,,,,,336.2854,337.5793,337.5794,340.1088,return,0.7795,,6.510416667,,,,,,FBP-OG-71.png,0.35,1.2,31,0.5,0,4,4,30,1,,,,,,,,,,,,,,,,,,,,,,,,,,,,,,,,,,,,,,,,
,,,,,V3_025,20,Female,2024-10-19_15h03.44.074,jersey_experiment_5_v3,2023.2.2,Win32,84.74576271,,,,,,,,,,,,,,,,340.1092,341.6619,341.6619,343.3207,return,0.7251,,0.78125,,,,,,FBP-RB-71.png,0.35,1.2,46,0.75,0,5,5,45,1,,,,,,,,,,,,,,,,,,,,,,,,,,,,,,,,,,,,,,,,
,,,,,V3_025,20,Female,2024-10-19_15h03.44.074,jersey_experiment_5_v3,2023.2.2,Win32,84.74576271,,,,,,,,,,,,,,,,343.321,344.8736,344.8737,346.9561,return,0.7098,,78.38541667,,,,,,FBP-YG-18.png,0.43,1.2,9,0.75,0,6,6,8,1,,,,,,,,,,,,,,,,,,,,,,,,,,,,,,,,,,,,,,,,
,,,,,V3_025,20,Female,2024-10-19_15h03.44.074,jersey_experiment_5_v3,2023.2.2,Win32,84.74576271,,,,,,,,,,,,,,,,346.9562,348.5091,348.5092,350.674,return,1.2106,,98.30729167,,,,,,FBP-RB-91.png,0.43,1.2,59,0.75,0,7,7,58,1,,,,,,,,,,,,,,,,,,,,,,,,,,,,,,,,,,,,,,,,
,,,,,V3_025,20,Female,2024-10-19_15h03.44.074,jersey_experiment_5_v3,2023.2.2,Win32,84.74576271,,,,,,,,,,,,,,,,350.6743,352.2268,352.227,354.0975,return,0.5882,,55.33854167,,,,,,FBP-YG-19.png,0.4,1.2,13,0.75,0,8,8,12,1,,,,,,,,,,,,,,,,,,,,,,,,,,,,,,,,,,,,,,,,
,,,,,V3_025,20,Female,2024-10-19_15h03.44.074,jersey_experiment_5_v3,2023.2.2,Win32,84.74576271,,,,,,,,,,,,,,,,354.0978,355.6507,355.6507,357.086,return,0.6848,,60.28645833,,,,,,FBP-YG-18.png,0.4,1.2,8,0.75,0,9,9,7,1,,,,,,,,,,,,,,,,,,,,,,,,,,,,,,,,,,,,,,,,
,,,,,V3_025,20,Female,2024-10-19_15h03.44.074,jersey_experiment_5_v3,2023.2.2,Win32,84.74576271,,,,,,,,,,,,,,,,357.0863,358.3802,358.3802,360.3332,return,0.6262,,36.06770833,,,,,,FBP-OG-91.png,0.35,1.2,41,0.5,0,10,10,40,1,,,,,,,,,,,,,,,,,,,,,,,,,,,,,,,,,,,,,,,,
,,,,,V3_025,20,Female,2024-10-19_15h03.44.074,jersey_experiment_5_v3,2023.2.2,Win32,84.74576271,,,,,,,,,,,,,,,,360.3334,361.8862,361.8863,363.8392,return,0.8628,,48.828125,,,,,,FBP-PT-71.png,0.4,1.2,18,0.75,0,11,11,17,1,,,,,,,,,,,,,,,,,,,,,,,,,,,,,,,,,,,,,,,,
,,,,,V3_025,20,Female,2024-10-19_15h03.44.074,jersey_experiment_5_v3,2023.2.2,Win32,84.74576271,,,,,,,,,,,,,,,,363.8395,365.1333,365.1333,367.4627,return,0.6871,,72.00520833,,,,,,FBP-OG-71.png,0.45,1.2,35,0.5,0,12,12,34,1,,,,,,,,,,,,,,,,,,,,,,,,,,,,,,,,,,,,,,,,
,,,,,V3_025,20,Female,2024-10-19_15h03.44.074,jersey_experiment_5_v3,2023.2.2,Win32,84.74576271,,,,,,,,,,,,,,,,367.4629,369.0158,369.0158,371.4041,return,0.9548,,35.28645833,,,,,,FBP-RB-81.png,0.4,1.2,53,0.75,0,13,13,52,1,,,,,,,,,,,,,,,,,,,,,,,,,,,,,,,,,,,,,,,,
,,,,,V3_025,20,Female,2024-10-19_15h03.44.074,jersey_experiment_5_v3,2023.2.2,Win32,84.74576271,,,,,,,,,,,,,,,,371.4043,372.957,372.9571,374.816,return,0.7296,,62.5,,,,,,FBP-PT-81.png,0.43,1.2,24,0.75,0,14,14,23,1,,,,,,,,,,,,,,,,,,,,,,,,,,,,,,,,,,,,,,,,
,,,,,V3_025,20,Female,2024-10-19_15h03.44.074,jersey_experiment_5_v3,2023.2.2,Win32,84.74576271,,,,,,,,,,,,,,,,374.8162,376.369,376.369,378.7808,return,1.2937,,92.70833333,,,,,,FBP-PT-71.png,0.43,1.2,19,0.75,0,15,15,18,1,,,,,,,,,,,,,,,,,,,,,,,,,,,,,,,,,,,,,,,,
,,,,,V3_025,20,Female,2024-10-19_15h03.44.074,jersey_experiment_5_v3,2023.2.2,Win32,84.74576271,,,,,,,,,,,,,,,,378.781,380.334,380.3341,381.7692,return,0.6163,,98.95833333,,,,,,FBP-PT-81.png,0.45,1.2,25,0.75,0,16,16,24,1,,,,,,,,,,,,,,,,,,,,,,,,,,,,,,,,,,,,,,,,
,,,,,V3_025,20,Female,2024-10-19_15h03.44.074,jersey_experiment_5_v3,2023.2.2,Win32,84.74576271,,,,,,,,,,,,,,,,381.7693,383.0634,383.0634,385.2281,return,0.9564,,80.72916667,,,,,,FBP-OG-81.png,0.43,1.2,39,0.5,0,17,17,38,1,,,,,,,,,,,,,,,,,,,,,,,,,,,,,,,,,,,,,,,,
,,,,,V3_025,20,Female,2024-10-19_15h03.44.074,jersey_experiment_5_v3,2023.2.2,Win32,84.74576271,,,,,,,,,,,,,,,,385.2282,386.7811,386.7812,391.6637,return,1.9867,,78.125,,,,,,FBP-RB-71.png,0.43,1.2,49,0.75,0,18,18,48,1,,,,,,,,,,,,,,,,,,,,,,,,,,,,,,,,,,,,,,,,
,,,,,V3_025,20,Female,2024-10-19_15h03.44.074,jersey_experiment_5_v3,2023.2.2,Win32,84.74576271,,,,,,,,,,,,,,,,391.664,393.2167,393.2168,396.4169,return,0.5979,,38.671875,,,,,,FBP-PT-81.png,0.4,1.2,23,0.75,0,19,19,22,1,,,,,,,,,,,,,,,,,,,,,,,,,,,,,,,,,,,,,,,,
,,,,,V3_025,20,Female,2024-10-19_15h03.44.074,jersey_experiment_5_v3,2023.2.2,Win32,84.74576271,,,,,,,,,,,,,,,,396.4172,397.9698,397.9698,400.2641,return,0.8904,,39.71354167,,,,,,FBP-YG-17.png,0.4,1.2,3,0.75,0,20,20,2,1,,,,,,,,,,,,,,,,,,,,,,,,,,,,,,,,,,,,,,,,
,,,,,V3_025,20,Female,2024-10-19_15h03.44.074,jersey_experiment_5_v3,2023.2.2,Win32,84.74576271,,,,,,,,,,,,,,,,400.2643,401.817,401.8171,405.0641,return,2.2425,,5.208333333,,,,,,FBP-YG-17.png,0.35,1.2,1,0.75,0,21,21,0,1,,,,,,,,,,,,,,,,,,,,,,,,,,,,,,,,,,,,,,,,
,,,,,V3_025,20,Female,2024-10-19_15h03.44.074,jersey_experiment_5_v3,2023.2.2,Win32,84.74576271,,,,,,,,,,,,,,,,405.0643,406.3584,406.3584,408.2173,return,0.865,,7.291666667,,,,,,FBP-OG-91.png,0.37,1.2,42,0.5,0,22,22,41,1,,,,,,,,,,,,,,,,,,,,,,,,,,,,,,,,,,,,,,,,
,,,,,V3_025,20,Female,2024-10-19_15h03.44.074,jersey_experiment_5_v3,2023.2.2,Win32,84.74576271,,,,,,,,,,,,,,,,408.2175,409.7704,409.7704,411.8527,return,0.6935,,74.08854167,,,,,,FBP-PT-91.png,0.43,1.2,29,0.75,0,23,23,28,1,,,,,,,,,,,,,,,,,,,,,,,,,,,,,,,,,,,,,,,,
,,,,,V3_025,20,Female,2024-10-19_15h03.44.074,jersey_experiment_5_v3,2023.2.2,Win32,84.74576271,,,,,,,,,,,,,,,,411.8528,413.4057,413.4058,415.6175,return,0.7379,,91.66666667,,,,,,FBP-YG-18.png,0.45,1.2,10,0.75,0,24,24,9,1,,,,,,,,,,,,,,,,,,,,,,,,,,,,,,,,,,,,,,,,
,,,,,V3_025,20,Female,2024-10-19_15h03.44.074,jersey_experiment_5_v3,2023.2.2,Win32,84.74576271,,,,,,,,,,,,,,,,415.6179,417.1706,417.1707,418.7941,return,0.7353,,99.34895833,,,,,,FBP-YG-19.png,0.45,1.2,15,0.75,0,25,25,14,1,,,,,,,,,,,,,,,,,,,,,,,,,,,,,,,,,,,,,,,,
,,,,,V3_025,20,Female,2024-10-19_15h03.44.074,jersey_experiment_5_v3,2023.2.2,Win32,84.74576271,,,,,,,,,,,,,,,,418.7944,420.3471,420.3472,421.3354,return,0.6678,,99.34895833,,,,,,FBP-PT-91.png,0.45,1.2,30,0.75,0,26,26,29,1,,,,,,,,,,,,,,,,,,,,,,,,,,,,,,,,,,,,,,,,
,,,,,V3_025,20,Female,2024-10-19_15h03.44.074,jersey_experiment_5_v3,2023.2.2,Win32,84.74576271,,,,,,,,,,,,,,,,421.3358,422.8884,422.8884,424.4884,return,0.6665,,88.80208333,,,,,,FBP-YG-17.png,0.45,1.2,5,0.75,0,27,27,4,1,,,,,,,,,,,,,,,,,,,,,,,,,,,,,,,,,,,,,,,,
,,,,,V3_025,20,Female,2024-10-19_15h03.44.074,jersey_experiment_5_v3,2023.2.2,Win32,84.74576271,,,,,,,,,,,,,,,,424.4887,425.7825,425.7826,427.5473,return,0.6736,,70.44270833,,,,,,FBP-OG-91.png,0.4,1.2,43,0.5,0,28,28,42,1,,,,,,,,,,,,,,,,,,,,,,,,,,,,,,,,,,,,,,,,
,,,,,V3_025,20,Female,2024-10-19_15h03.44.074,jersey_experiment_5_v3,2023.2.2,Win32,84.74576271,,,,,,,,,,,,,,,,427.5476,429.0889,429.089,432.0299,return,1.4615,,6.901041667,,,,,,FBP-YG-19.png,0.37,1.2,12,0.75,0,29,29,11,1,,,,,,,,,,,,,,,,,,,,,,,,,,,,,,,,,,,,,,,,
,,,,,V3_025,20,Female,2024-10-19_15h03.44.074,jersey_experiment_5_v3,2023.2.2,Win32,84.74576271,,,,,,,,,,,,,,,,432.0301,433.583,433.583,437.783,return,0.8661,,1.171875,,,,,,FBP-RB-71.png,0.37,1.2,47,0.75,0,30,30,46,1,,,,,,,,,,,,,,,,,,,,,,,,,,,,,,,,,,,,,,,,
,,,,,V3_025,20,Female,2024-10-19_15h03.44.074,jersey_experiment_5_v3,2023.2.2,Win32,84.74576271,,,,,,,,,,,,,,,,437.7832,439.3361,439.3362,447.5127,return,0.7108,,1.171875,,,,,,FBP-PT-81.png,0.35,1.2,21,0.75,0,31,31,20,1,,,,,,,,,,,,,,,,,,,,,,,,,,,,,,,,,,,,,,,,
,,,,,V3_025,20,Female,2024-10-19_15h03.44.074,jersey_experiment_5_v3,2023.2.2,Win32,84.74576271,,,,,,,,,,,,,,,,447.5129,448.807,448.8071,451.2305,return,0.7751,,44.140625,,,,,,FBP-OG-81.png,0.37,1.2,37,0.5,0,32,32,36,1,,,,,,,,,,,,,,,,,,,,,,,,,,,,,,,,,,,,,,,,
,,,,,V3_025,20,Female,2024-10-19_15h03.44.074,jersey_experiment_5_v3,2023.2.2,Win32,84.74576271,,,,,,,,,,,,,,,,451.2307,452.772,452.772,454.0778,return,0.6726,,79.42708333,,,,,,FBP-PT-71.png,0.45,1.2,20,0.75,0,33,33,19,1,,,,,,,,,,,,,,,,,,,,,,,,,,,,,,,,,,,,,,,,
,,,,,V3_025,20,Female,2024-10-19_15h03.44.074,jersey_experiment_5_v3,2023.2.2,Win32,84.74576271,,,,,,,,,,,,,,,,454.078,455.372,455.372,456.6661,return,0.6765,,86.19791667,,,,,,FBP-OG-81.png,0.45,1.2,40,0.5,0,34,34,39,1,,,,,,,,,,,,,,,,,,,,,,,,,,,,,,,,,,,,,,,,
,,,,,V3_025,20,Female,2024-10-19_15h03.44.074,jersey_experiment_5_v3,2023.2.2,Win32,84.74576271,,,,,,,,,,,,,,,,456.6664,458.2191,458.2192,460.6311,return,1.3113,,14.58333333,,,,,,FBP-YG-17.png,0.37,1.2,2,0.75,0,35,35,1,1,,,,,,,,,,,,,,,,,,,,,,,,,,,,,,,,,,,,,,,,
,,,,,V3_025,20,Female,2024-10-19_15h03.44.074,jersey_experiment_5_v3,2023.2.2,Win32,84.74576271,,,,,,,,,,,,,,,,460.6314,462.184,462.184,464.1135,return,0.6354,,33.984375,,,,,,FBP-RB-91.png,0.4,1.2,58,0.75,0,36,36,57,1,,,,,,,,,,,,,,,,,,,,,,,,,,,,,,,,,,,,,,,,
,,,,,V3_025,20,Female,2024-10-19_15h03.44.074,jersey_experiment_5_v3,2023.2.2,Win32,84.74576271,,,,,,,,,,,,,,,,464.1137,465.6665,465.6666,467.2312,return,0.7306,,2.994791667,,,,,,FBP-RB-81.png,0.35,1.2,51,0.75,0,37,37,50,1,,,,,,,,,,,,,,,,,,,,,,,,,,,,,,,,,,,,,,,,
,,,,,V3_025,20,Female,2024-10-19_15h03.44.074,jersey_experiment_5_v3,2023.2.2,Win32,84.74576271,,,,,,,,,,,,,,,,467.2314,468.5253,468.5253,470.443,return,0.7344,,30.859375,,,,,,FBP-OG-71.png,0.4,1.2,33,0.5,0,38,38,32,1,,,,,,,,,,,,,,,,,,,,,,,,,,,,,,,,,,,,,,,,
,,,,,V3_025,20,Female,2024-10-19_15h03.44.074,jersey_experiment_5_v3,2023.2.2,Win32,84.74576271,,,,,,,,,,,,,,,,470.4434,471.9962,471.9962,475.3257,return,2.8252,,33.72395833,,,,,,FBP-PT-81.png,0.37,1.2,22,0.75,0,39,39,21,1,,,,,,,,,,,,,,,,,,,,,,,,,,,,,,,,,,,,,,,,
,,,,,V3_025,20,Female,2024-10-19_15h03.44.074,jersey_experiment_5_v3,2023.2.2,Win32,84.74576271,,,,,,,,,,,,,,,,475.3259,476.8787,476.8787,478.2669,return,0.6757,,17.05729167,,,,,,FBP-RB-91.png,0.35,1.2,56,0.75,0,40,40,55,1,,,,,,,,,,,,,,,,,,,,,,,,,,,,,,,,,,,,,,,,
,,,,,V3_025,20,Female,2024-10-19_15h03.44.074,jersey_experiment_5_v3,2023.2.2,Win32,84.74576271,,,,,,,,,,,,,,,,478.2672,479.82,479.8201,482.1612,return,0.6912,,51.953125,,,,,,FBP-PT-91.png,0.4,1.2,28,0.75,0,41,41,27,1,,,,,,,,,,,,,,,,,,,,,,,,,,,,,,,,,,,,,,,,
,,,,,V3_025,20,Female,2024-10-19_15h03.44.074,jersey_experiment_5_v3,2023.2.2,Win32,84.74576271,,,,,,,,,,,,,,,,482.1614,483.7142,483.7142,486.2202,return,1.1087,,76.953125,,,,,,FBP-YG-19.png,0.43,1.2,14,0.75,0,42,42,13,1,,,,,,,,,,,,,,,,,,,,,,,,,,,,,,,,,,,,,,,,
,,,,,V3_025,20,Female,2024-10-19_15h03.44.074,jersey_experiment_5_v3,2023.2.2,Win32,84.74576271,,,,,,,,,,,,,,,,486.2204,487.5143,487.5143,488.6203,return,0.5565,,76.953125,,,,,,FBP-OG-71.png,0.43,1.2,34,0.5,0,43,43,33,1,,,,,,,,,,,,,,,,,,,,,,,,,,,,,,,,,,,,,,,,
,,,,,V3_025,20,Female,2024-10-19_15h03.44.074,jersey_experiment_5_v3,2023.2.2,Win32,84.74576271,,,,,,,,,,,,,,,,488.6206,489.9145,489.9145,491.8321,return,0.6194,,46.484375,,,,,,FBP-OG-71.png,0.37,1.2,32,0.5,0,44,44,31,1,,,,,,,,,,,,,,,,,,,,,,,,,,,,,,,,,,,,,,,,
,,,,,V3_025,20,Female,2024-10-19_15h03.44.074,jersey_experiment_5_v3,2023.2.2,Win32,84.74576271,,,,,,,,,,,,,,,,491.8323,493.3851,493.3852,495.0087,return,0.6591,,34.11458333,,,,,,FBP-PT-71.png,0.37,1.2,17,0.75,0,45,45,16,1,,,,,,,,,,,,,,,,,,,,,,,,,,,,,,,,,,,,,,,,
,,,,,V3_025,20,Female,2024-10-19_15h03.44.074,jersey_experiment_5_v3,2023.2.2,Win32,84.74576271,,,,,,,,,,,,,,,,495.0089,496.5618,496.5619,497.7266,return,0.5892,,23.046875,,,,,,FBP-PT-71.png,0.35,1.2,16,0.75,0,46,46,15,1,,,,,,,,,,,,,,,,,,,,,,,,,,,,,,,,,,,,,,,,
,,,,,V3_025,20,Female,2024-10-19_15h03.44.074,jersey_experiment_5_v3,2023.2.2,Win32,84.74576271,,,,,,,,,,,,,,,,497.7267,499.2794,499.2794,501.0208,return,0.6515,,73.56770833,,,,,,FBP-YG-17.png,0.43,1.2,4,0.75,0,47,47,3,1,,,,,,,,,,,,,,,,,,,,,,,,,,,,,,,,,,,,,,,,
,,,,,V3_025,20,Female,2024-10-19_15h03.44.074,jersey_experiment_5_v3,2023.2.2,Win32,84.74576271,,,,,,,,,,,,,,,,501.021,502.3148,502.3148,503.7855,return,0.5948,,95.96354167,,,,,,FBP-OG-91.png,0.45,1.2,45,0.5,0,48,48,44,1,,,,,,,,,,,,,,,,,,,,,,,,,,,,,,,,,,,,,,,,
,,,,,V3_025,20,Female,2024-10-19_15h03.44.074,jersey_experiment_5_v3,2023.2.2,Win32,84.74576271,,,,,,,,,,,,,,,,503.7857,505.3387,505.3387,507.1856,return,0.7997,,27.734375,,,,,,FBP-PT-91.png,0.37,1.2,27,0.75,0,49,49,26,1,,,,,,,,,,,,,,,,,,,,,,,,,,,,,,,,,,,,,,,,
,,,,,V3_025,20,Female,2024-10-19_15h03.44.074,jersey_experiment_5_v3,2023.2.2,Win32,84.74576271,,,,,,,,,,,,,,,,507.186,508.7386,508.7387,509.9976,return,0.5529,,27.734375,,,,,,FBP-YG-18.png,0.37,1.2,7,0.75,0,50,50,6,1,,,,,,,,,,,,,,,,,,,,,,,,,,,,,,,,,,,,,,,,
,,,,,V3_025,20,Female,2024-10-19_15h03.44.074,jersey_experiment_5_v3,2023.2.2,Win32,84.74576271,,,,,,,,,,,,,,,,509.9977,511.2916,511.2917,513.7859,return,1.1672,,87.63020833,,,,,,FBP-OG-91.png,0.43,1.2,44,0.5,0,51,51,43,1,,,,,,,,,,,,,,,,,,,,,,,,,,,,,,,,,,,,,,,,
,,,,,V3_025,20,Female,2024-10-19_15h03.44.074,jersey_experiment_5_v3,2023.2.2,Win32,84.74576271,,,,,,,,,,,,,,,,513.7861,515.3389,515.3389,517.0801,return,0.8315,,40.10416667,,,,,,FBP-PT-91.png,0.35,1.2,26,0.75,0,52,52,25,1,,,,,,,,,,,,,,,,,,,,,,,,,,,,,,,,,,,,,,,,
,,,,,V3_025,20,Female,2024-10-19_15h03.44.074,jersey_experiment_5_v3,2023.2.2,Win32,84.74576271,,,,,,,,,,,,,,,,517.0803,518.3742,518.3742,520.5744,return,1.3631,,38.93229167,,,,,,FBP-OG-81.png,0.35,1.2,36,0.5,0,53,53,35,1,,,,,,,,,,,,,,,,,,,,,,,,,,,,,,,,,,,,,,,,
,,,,,V3_025,20,Female,2024-10-19_15h03.44.074,jersey_experiment_5_v3,2023.2.2,Win32,84.74576271,,,,,,,,,,,,,,,,520.5748,522.1274,522.1274,524.8098,return,1.2653,,47.91666667,,,,,,FBP-RB-91.png,0.37,1.2,57,0.75,0,54,54,56,1,,,,,,,,,,,,,,,,,,,,,,,,,,,,,,,,,,,,,,,,
,,,,,V3_025,20,Female,2024-10-19_15h03.44.074,jersey_experiment_5_v3,2023.2.2,Win32,84.74576271,,,,,,,,,,,,,,,,524.8101,526.3628,526.3628,527.7276,return,0.6272,,48.828125,,,,,,FBP-RB-81.png,0.37,1.2,52,0.75,0,55,55,51,1,,,,,,,,,,,,,,,,,,,,,,,,,,,,,,,,,,,,,,,,
,,,,,V3_025,20,Female,2024-10-19_15h03.44.074,jersey_experiment_5_v3,2023.2.2,Win32,84.74576271,,,,,,,,,,,,,,,,527.7277,529.2806,529.2806,530.7512,return,0.6362,,32.16145833,,,,,,FBP-YG-19.png,0.35,1.2,11,0.75,0,56,56,10,1,,,,,,,,,,,,,,,,,,,,,,,,,,,,,,,,,,,,,,,,
,,,,,V3_025,20,Female,2024-10-19_15h03.44.074,jersey_experiment_5_v3,2023.2.2,Win32,84.74576271,,,,,,,,,,,,,,,,530.7513,532.3042,532.3042,533.5514,return,0.552,,27.21354167,,,,,,FBP-YG-18.png,0.35,1.2,6,0.75,0,57,57,5,1,,,,,,,,,,,,,,,,,,,,,,,,,,,,,,,,,,,,,,,,
,,,,,V3_025,20,Female,2024-10-19_15h03.44.074,jersey_experiment_5_v3,2023.2.2,Win32,84.74576271,,,,,,,,,,,,,,,,533.5516,534.8455,534.8455,537.7751,return,0.7215,,69.27083333,,,,,,FBP-OG-81.png,0.4,1.2,38,0.5,0,58,58,37,1,,,,,,,,,,,,,,,,,,,,,,,,,,,,,,,,,,,,,,,,
,,,,,V3_025,20,Female,2024-10-19_15h03.44.074,jersey_experiment_5_v3,2023.2.2,Win32,84.74576271,,,,,,,,,,,,,,,,537.7753,539.328,539.3281,541.9751,return,1.2426,,69.27083333,,,,,,FBP-RB-71.png,0.4,1.2,48,0.75,0,59,59,47,1,,,,,,,,,,,,,,,,,,,,,,,,,,,,,,,,,,,,,,,,
,,,,,V3_025,20,Female,2024-10-19_15h03.44.074,jersey_experiment_5_v3,2023.2.2,Win32,84.74576271,,,,,,,,,,,,,,,,,,,,,,,,,,,,,,,,,,,,,,,541.9753,661.9681,,,,,,,,,,,,,,,,,,,,,,,,,,,,,,,,,,,,,,
,,,,,V3_025,20,Female,2024-10-19_15h03.44.074,jersey_experiment_5_v3,2023.2.2,Win32,84.74576271,,,,,,,,,,,,,,,,,,,,,,,,,,,,,,,,,,,,,,,,,661.9682,708.1463,return,46.1661,,,,,,,,,,,,,,,,,,,,,,,,,,,,,,,,,,
,,,,,V3_025,20,Female,2024-10-19_15h03.44.074,jersey_experiment_5_v3,2023.2.2,Win32,84.74576271,,,,,,,,,,,,,,,,708.1484,709.4402,709.4403,717.8405,return,1.5061,,12.23958333,,,,,,FBP-YG-71.png,0.35,1.2,1,0.5,,,,,,,,,,,,,0,0,0,0,1,,,,,,,,,,,,,,,,,,,,,,,,,,,,
,,,,,V3_025,20,Female,2024-10-19_15h03.44.074,jersey_experiment_5_v3,2023.2.2,Win32,84.74576271,,,,,,,,,,,,,,,,717.8409,719.1348,719.1349,733.6647,return,1.0742,,68.48958333,,,,,,FBP-YG-71.png,0.4,1.2,3,0.5,,,,,,,,,,,,,0,1,1,2,1,,,,,,,,,,,,,,,,,,,,,,,,,,,,
,,,,,V3_025,20,Female,2024-10-19_15h03.44.074,jersey_experiment_5_v3,2023.2.2,Win32,84.74576271,,,,,,,,,,,,,,,,733.6649,735.2178,735.2178,750.6183,return,0.6259,,92.70833333,,,,,,FBP-OG-17.png,0.43,1.2,34,0.75,,,,,,,,,,,,,0,2,2,33,1,,,,,,,,,,,,,,,,,,,,,,,,,,,,
,,,,,V3_025,20,Female,2024-10-19_15h03.44.074,jersey_experiment_5_v3,2023.2.2,Win32,84.74576271,,,,,,,,,,,,,,,,750.6187,752.1713,752.1713,754.3479,return,0.9101,,42.1875,,,,,,FBP-OG-18.png,0.37,1.2,37,0.75,,,,,,,,,,,,,0,3,3,36,1,,,,,,,,,,,,,,,,,,,,,,,,,,,,
,,,,,V3_025,20,Female,2024-10-19_15h03.44.074,jersey_experiment_5_v3,2023.2.2,Win32,84.74576271,,,,,,,,,,,,,,,,754.3481,755.642,755.642,757.4539,return,0.6846,,66.40625,,,,,,FBP-PT-17.png,0.4,1.2,18,0.5,,,,,,,,,,,,,0,4,4,17,1,,,,,,,,,,,,,,,,,,,,,,,,,,,,
,,,,,V3_025,20,Female,2024-10-19_15h03.44.074,jersey_experiment_5_v3,2023.2.2,Win32,84.74576271,,,,,,,,,,,,,,,,757.4542,759.0068,759.0069,760.8893,return,0.7951,,91.40625,,,,,,FBP-OG-19.png,0.43,1.2,44,0.75,,,,,,,,,,,,,0,5,5,43,1,,,,,,,,,,,,,,,,,,,,,,,,,,,,
,,,,,V3_025,20,Female,2024-10-19_15h03.44.074,jersey_experiment_5_v3,2023.2.2,Win32,84.74576271,,,,,,,,,,,,,,,,760.8895,762.4422,762.4422,764.3364,return,1.0356,,75.26041667,,,,,,FBP-OG-17.png,0.4,1.2,33,0.75,,,,,,,,,,,,,0,6,6,32,1,,,,,,,,,,,,,,,,,,,,,,,,,,,,
,,,,,V3_025,20,Female,2024-10-19_15h03.44.074,jersey_experiment_5_v3,2023.2.2,Win32,84.74576271,,,,,,,,,,,,,,,,764.3368,765.6306,765.6306,767.7836,return,0.595,,75.26041667,,,,,,FBP-RB-19.png,0.4,1.2,58,0.5,,,,,,,,,,,,,0,7,7,57,1,,,,,,,,,,,,,,,,,,,,,,,,,,,,
,,,,,V3_025,20,Female,2024-10-19_15h03.44.074,jersey_experiment_5_v3,2023.2.2,Win32,84.74576271,,,,,,,,,,,,,,,,767.7838,769.0779,769.0779,770.3485,return,0.542,,85.28645833,,,,,,FBP-RB-19.png,0.43,1.2,59,0.5,,,,,,,,,,,,,0,8,8,58,1,,,,,,,,,,,,,,,,,,,,,,,,,,,,
,,,,,V3_025,20,Female,2024-10-19_15h03.44.074,jersey_experiment_5_v3,2023.2.2,Win32,84.74576271,,,,,,,,,,,,,,,,770.3487,771.6425,771.6426,773.725,return,0.9989,,73.046875,,,,,,FBP-YG-91.png,0.4,1.2,13,0.5,,,,,,,,,,,,,0,9,9,12,1,,,,,,,,,,,,,,,,,,,,,,,,,,,,
,,,,,V3_025,20,Female,2024-10-19_15h03.44.074,jersey_experiment_5_v3,2023.2.2,Win32,84.74576271,,,,,,,,,,,,,,,,773.7252,775.0193,775.0193,779.2075,return,0.5967,,38.54166667,,,,,,FBP-PT-19.png,0.37,1.2,27,0.5,,,,,,,,,,,,,0,10,10,26,1,,,,,,,,,,,,,,,,,,,,,,,,,,,,
,,,,,V3_025,20,Female,2024-10-19_15h03.44.074,jersey_experiment_5_v3,2023.2.2,Win32,84.74576271,,,,,,,,,,,,,,,,779.2077,780.5017,780.5018,785.3607,return,0.5776,,49.73958333,,,,,,FBP-YG-81.png,0.4,1.2,8,0.5,,,,,,,,,,,,,0,11,11,7,1,,,,,,,,,,,,,,,,,,,,,,,,,,,,
,,,,,V3_025,20,Female,2024-10-19_15h03.44.074,jersey_experiment_5_v3,2023.2.2,Win32,84.74576271,,,,,,,,,,,,,,,,785.361,786.6549,786.655,788.3608,return,0.572,,95.57291667,,,,,,FBP-RB-17.png,0.45,1.2,50,0.5,,,,,,,,,,,,,0,12,12,49,1,,,,,,,,,,,,,,,,,,,,,,,,,,,,
,,,,,V3_025,20,Female,2024-10-19_15h03.44.074,jersey_experiment_5_v3,2023.2.2,Win32,84.74576271,,,,,,,,,,,,,,,,788.3611,789.655,789.655,791.8904,return,0.6354,,77.08333333,,,,,,FBP-RB-17.png,0.4,1.2,48,0.5,,,,,,,,,,,,,0,13,13,47,1,,,,,,,,,,,,,,,,,,,,,,,,,,,,
,,,,,V3_025,20,Female,2024-10-19_15h03.44.074,jersey_experiment_5_v3,2023.2.2,Win32,84.74576271,,,,,,,,,,,,,,,,791.8908,793.1846,793.1846,795.0906,return,0.6905,,19.79166667,,,,,,FBP-YG-81.png,0.35,1.2,6,0.5,,,,,,,,,,,,,0,14,14,5,1,,,,,,,,,,,,,,,,,,,,,,,,,,,,
,,,,,V3_025,20,Female,2024-10-19_15h03.44.074,jersey_experiment_5_v3,2023.2.2,Win32,84.74576271,,,,,,,,,,,,,,,,795.0908,796.6435,796.6435,798.9377,return,0.6296,,97.13541667,,,,,,FBP-OG-19.png,0.45,1.2,45,0.75,,,,,,,,,,,,,0,15,15,44,1,,,,,,,,,,,,,,,,,,,,,,,,,,,,
,,,,,V3_025,20,Female,2024-10-19_15h03.44.074,jersey_experiment_5_v3,2023.2.2,Win32,84.74576271,,,,,,,,,,,,,,,,798.938,800.232,800.232,802.0908,return,0.7228,,99.34895833,,,,,,FBP-YG-71.png,0.45,1.2,5,0.5,,,,,,,,,,,,,0,16,16,4,1,,,,,,,,,,,,,,,,,,,,,,,,,,,,
,,,,,V3_025,20,Female,2024-10-19_15h03.44.074,jersey_experiment_5_v3,2023.2.2,Win32,84.74576271,,,,,,,,,,,,,,,,802.0911,803.3851,803.3851,805.8557,return,0.6593,,5.859375,,,,,,FBP-RB-18.png,0.35,1.2,51,0.5,,,,,,,,,,,,,0,17,17,50,1,,,,,,,,,,,,,,,,,,,,,,,,,,,,
,,,,,V3_025,20,Female,2024-10-19_15h03.44.074,jersey_experiment_5_v3,2023.2.2,Win32,84.74576271,,,,,,,,,,,,,,,,805.856,807.1496,807.1497,809.1852,return,0.5784,,84.765625,,,,,,FBP-YG-81.png,0.43,1.2,9,0.5,,,,,,,,,,,,,0,18,18,8,1,,,,,,,,,,,,,,,,,,,,,,,,,,,,
,,,,,V3_025,20,Female,2024-10-19_15h03.44.074,jersey_experiment_5_v3,2023.2.2,Win32,84.74576271,,,,,,,,,,,,,,,,809.1853,810.7265,810.7266,812.6206,return,0.8396,,4.6875,,,,,,FBP-OG-17.png,0.35,1.2,31,0.75,,,,,,,,,,,,,0,19,19,30,1,,,,,,,,,,,,,,,,,,,,,,,,,,,,
,,,,,V3_025,20,Female,2024-10-19_15h03.44.074,jersey_experiment_5_v3,2023.2.2,Win32,84.74576271,,,,,,,,,,,,,,,,812.6209,813.9148,813.9148,816.1383,return,0.6724,,93.48958333,,,,,,FBP-RB-18.png,0.43,1.2,54,0.5,,,,,,,,,,,,,0,20,20,53,1,,,,,,,,,,,,,,,,,,,,,,,,,,,,
,,,,,V3_025,20,Female,2024-10-19_15h03.44.074,jersey_experiment_5_v3,2023.2.2,Win32,84.74576271,,,,,,,,,,,,,,,,816.1385,817.4326,817.4326,819.1973,return,0.7622,,31.640625,,,,,,FBP-PT-18.png,0.37,1.2,22,0.5,,,,,,,,,,,,,0,21,21,21,1,,,,,,,,,,,,,,,,,,,,,,,,,,,,
,,,,,V3_025,20,Female,2024-10-19_15h03.44.074,jersey_experiment_5_v3,2023.2.2,Win32,84.74576271,,,,,,,,,,,,,,,,819.1975,820.4915,820.4916,822.362,return,0.7551,,64.32291667,,,,,,FBP-PT-19.png,0.4,1.2,28,0.5,,,,,,,,,,,,,0,22,22,27,1,,,,,,,,,,,,,,,,,,,,,,,,,,,,
,,,,,V3_025,20,Female,2024-10-19_15h03.44.074,jersey_experiment_5_v3,2023.2.2,Win32,84.74576271,,,,,,,,,,,,,,,,822.3623,823.6564,823.6564,825.7741,return,0.7305,,99.47916667,,,,,,FBP-PT-19.png,0.45,1.2,30,0.5,,,,,,,,,,,,,0,23,23,29,1,,,,,,,,,,,,,,,,,,,,,,,,,,,,
,,,,,V3_025,20,Female,2024-10-19_15h03.44.074,jersey_experiment_5_v3,2023.2.2,Win32,84.74576271,,,,,,,,,,,,,,,,825.7743,827.0682,827.0683,829.8801,return,1.6314,,10.02604167,,,,,,FBP-PT-19.png,0.35,1.2,26,0.5,,,,,,,,,,,,,0,24,24,25,1,,,,,,,,,,,,,,,,,,,,,,,,,,,,
,,,,,V3_025,20,Female,2024-10-19_15h03.44.074,jersey_experiment_5_v3,2023.2.2,Win32,84.74576271,,,,,,,,,,,,,,,,829.8803,831.1742,831.1743,833.1037,return,0.7609,,13.28125,,,,,,FBP-PT-17.png,0.35,1.2,16,0.5,,,,,,,,,,,,,0,25,25,15,1,,,,,,,,,,,,,,,,,,,,,,,,,,,,
,,,,,V3_025,20,Female,2024-10-19_15h03.44.074,jersey_experiment_5_v3,2023.2.2,Win32,84.74576271,,,,,,,,,,,,,,,,833.104,834.6567,834.6567,837.1979,return,0.6835,,62.109375,,,,,,FBP-OG-19.png,0.4,1.2,43,0.75,,,,,,,,,,,,,0,26,26,42,1,,,,,,,,,,,,,,,,,,,,,,,,,,,,
,,,,,V3_025,20,Female,2024-10-19_15h03.44.074,jersey_experiment_5_v3,2023.2.2,Win32,84.74576271,,,,,,,,,,,,,,,,837.1982,838.751,838.7511,840.3981,return,0.9751,,76.82291667,,,,,,FBP-OG-18.png,0.45,1.2,40,0.75,,,,,,,,,,,,,0,27,27,39,1,,,,,,,,,,,,,,,,,,,,,,,,,,,,
,,,,,V3_025,20,Female,2024-10-19_15h03.44.074,jersey_experiment_5_v3,2023.2.2,Win32,84.74576271,,,,,,,,,,,,,,,,840.3983,841.6923,841.6923,843.6334,return,0.6375,,42.83854167,,,,,,FBP-YG-81.png,0.37,1.2,7,0.5,,,,,,,,,,,,,0,28,28,6,1,,,,,,,,,,,,,,,,,,,,,,,,,,,,
,,,,,V3_025,20,Female,2024-10-19_15h03.44.074,jersey_experiment_5_v3,2023.2.2,Win32,84.74576271,,,,,,,,,,,,,,,,843.6336,845.1865,845.1865,847.0689,return,0.6748,,74.609375,,,,,,FBP-OG-18.png,0.43,1.2,39,0.75,,,,,,,,,,,,,0,29,29,38,1,,,,,,,,,,,,,,,,,,,,,,,,,,,,
,,,,,V3_025,20,Female,2024-10-19_15h03.44.074,jersey_experiment_5_v3,2023.2.2,Win32,84.74576271,,,,,,,,,,,,,,,,847.0692,848.3632,848.3632,850.1749,return,0.6276,,77.99479167,,,,,,FBP-RB-19.png,0.45,1.2,60,0.5,,,,,,,,,,,,,0,30,30,59,1,,,,,,,,,,,,,,,,,,,,,,,,,,,,
,,,,,V3_025,20,Female,2024-10-19_15h03.44.074,jersey_experiment_5_v3,2023.2.2,Win32,84.74576271,,,,,,,,,,,,,,,,850.1752,851.4691,851.4691,853.3515,return,0.7026,,50.78125,,,,,,FBP-PT-17.png,0.37,1.2,17,0.5,,,,,,,,,,,,,0,31,31,16,1,,,,,,,,,,,,,,,,,,,,,,,,,,,,
,,,,,V3_025,20,Female,2024-10-19_15h03.44.074,jersey_experiment_5_v3,2023.2.2,Win32,84.74576271,,,,,,,,,,,,,,,,853.3518,854.6457,854.6457,857.3046,return,1.5958,,74.47916667,,,,,,FBP-PT-17.png,0.43,1.2,19,0.5,,,,,,,,,,,,,0,32,32,18,1,,,,,,,,,,,,,,,,,,,,,,,,,,,,
,,,,,V3_025,20,Female,2024-10-19_15h03.44.074,jersey_experiment_5_v3,2023.2.2,Win32,84.74576271,,,,,,,,,,,,,,,,857.3048,858.5988,858.5988,860.4929,return,0.6855,,27.34375,,,,,,FBP-YG-71.png,0.37,1.2,2,0.5,,,,,,,,,,,,,0,33,33,1,1,,,,,,,,,,,,,,,,,,,,,,,,,,,,
,,,,,V3_025,20,Female,2024-10-19_15h03.44.074,jersey_experiment_5_v3,2023.2.2,Win32,84.74576271,,,,,,,,,,,,,,,,860.4931,861.7871,861.7872,863.6342,return,0.7417,,7.942708333,,,,,,FBP-PT-18.png,0.35,1.2,21,0.5,,,,,,,,,,,,,0,34,34,20,1,,,,,,,,,,,,,,,,,,,,,,,,,,,,
,,,,,V3_025,20,Female,2024-10-19_15h03.44.074,jersey_experiment_5_v3,2023.2.2,Win32,84.74576271,,,,,,,,,,,,,,,,863.6345,865.1872,865.1872,868.4579,return,1.3115,,31.11979167,,,,,,FBP-OG-17.png,0.37,1.2,32,0.75,,,,,,,,,,,,,0,35,35,31,1,,,,,,,,,,,,,,,,,,,,,,,,,,,,
,,,,,V3_025,20,Female,2024-10-19_15h03.44.074,jersey_experiment_5_v3,2023.2.2,Win32,84.74576271,,,,,,,,,,,,,,,,868.4581,869.7521,869.7522,872.2699,return,0.6619,,83.72395833,,,,,,FBP-PT-18.png,0.45,1.2,25,0.5,,,,,,,,,,,,,0,36,36,24,1,,,,,,,,,,,,,,,,,,,,,,,,,,,,
,,,,,V3_025,20,Female,2024-10-19_15h03.44.074,jersey_experiment_5_v3,2023.2.2,Win32,84.74576271,,,,,,,,,,,,,,,,872.27,873.8229,873.8229,875.2465,return,0.6368,,71.74479167,,,,,,FBP-OG-18.png,0.4,1.2,38,0.75,,,,,,,,,,,,,0,37,37,37,1,,,,,,,,,,,,,,,,,,,,,,,,,,,,
,,,,,V3_025,20,Female,2024-10-19_15h03.44.074,jersey_experiment_5_v3,2023.2.2,Win32,84.74576271,,,,,,,,,,,,,,,,875.2467,876.5405,876.5406,878.4582,return,0.6367,,31.38020833,,,,,,FBP-RB-19.png,0.35,1.2,56,0.5,,,,,,,,,,,,,0,38,38,55,1,,,,,,,,,,,,,,,,,,,,,,,,,,,,
,,,,,V3_025,20,Female,2024-10-19_15h03.44.074,jersey_experiment_5_v3,2023.2.2,Win32,84.74576271,,,,,,,,,,,,,,,,878.4584,879.7524,879.7524,881.8702,return,0.7289,,16.53645833,,,,,,FBP-RB-17.png,0.35,1.2,46,0.5,,,,,,,,,,,,,0,39,39,45,1,,,,,,,,,,,,,,,,,,,,,,,,,,,,
,,,,,V3_025,20,Female,2024-10-19_15h03.44.074,jersey_experiment_5_v3,2023.2.2,Win32,84.74576271,,,,,,,,,,,,,,,,881.8706,883.1645,883.1645,888.4117,return,3.5222,,36.84895833,,,,,,FBP-YG-91.png,0.37,1.2,12,0.5,,,,,,,,,,,,,0,40,40,11,1,,,,,,,,,,,,,,,,,,,,,,,,,,,,
,,,,,V3_025,20,Female,2024-10-19_15h03.44.074,jersey_experiment_5_v3,2023.2.2,Win32,84.74576271,,,,,,,,,,,,,,,,888.4118,889.7058,889.7058,892.1058,return,0.6865,,26.171875,,,,,,FBP-YG-91.png,0.35,1.2,11,0.5,,,,,,,,,,,,,0,41,41,10,1,,,,,,,,,,,,,,,,,,,,,,,,,,,,
,,,,,V3_025,20,Female,2024-10-19_15h03.44.074,jersey_experiment_5_v3,2023.2.2,Win32,84.74576271,,,,,,,,,,,,,,,,892.106,893.659,893.6591,895.259,return,0.5814,,95.703125,,,,,,FBP-OG-17.png,0.45,1.2,35,0.75,,,,,,,,,,,,,0,42,42,34,1,,,,,,,,,,,,,,,,,,,,,,,,,,,,
,,,,,V3_025,20,Female,2024-10-19_15h03.44.074,jersey_experiment_5_v3,2023.2.2,Win32,84.74576271,,,,,,,,,,,,,,,,895.2592,896.5531,896.5532,900.2473,return,1.6675,,38.02083333,,,,,,FBP-RB-18.png,0.37,1.2,52,0.5,,,,,,,,,,,,,0,43,43,51,1,,,,,,,,,,,,,,,,,,,,,,,,,,,,
,,,,,V3_025,20,Female,2024-10-19_15h03.44.074,jersey_experiment_5_v3,2023.2.2,Win32,84.74576271,,,,,,,,,,,,,,,,900.2476,901.5416,901.5416,903.671,return,0.6442,,90.10416667,,,,,,FBP-YG-91.png,0.43,1.2,14,0.5,,,,,,,,,,,,,0,44,44,13,1,,,,,,,,,,,,,,,,,,,,,,,,,,,,
,,,,,V3_025,20,Female,2024-10-19_15h03.44.074,jersey_experiment_5_v3,2023.2.2,Win32,84.74576271,,,,,,,,,,,,,,,,903.671,904.9652,904.9653,906.377,return,0.6743,,95.96354167,,,,,,FBP-PT-19.png,0.43,1.2,29,0.5,,,,,,,,,,,,,0,45,45,28,1,,,,,,,,,,,,,,,,,,,,,,,,,,,,
,,,,,V3_025,20,Female,2024-10-19_15h03.44.074,jersey_experiment_5_v3,2023.2.2,Win32,84.74576271,,,,,,,,,,,,,,,,906.3771,907.6711,907.6712,909.4241,return,0.6513,,77.86458333,,,,,,FBP-RB-18.png,0.4,1.2,53,0.5,,,,,,,,,,,,,0,46,46,52,1,,,,,,,,,,,,,,,,,,,,,,,,,,,,
,,,,,V3_025,20,Female,2024-10-19_15h03.44.074,jersey_experiment_5_v3,2023.2.2,Win32,84.74576271,,,,,,,,,,,,,,,,909.4243,910.7183,910.7183,912.5537,return,0.5929,,98.046875,,,,,,FBP-PT-17.png,0.45,1.2,20,0.5,,,,,,,,,,,,,0,47,47,19,1,,,,,,,,,,,,,,,,,,,,,,,,,,,,
,,,,,V3_025,20,Female,2024-10-19_15h03.44.074,jersey_experiment_5_v3,2023.2.2,Win32,84.74576271,,,,,,,,,,,,,,,,912.554,913.848,913.848,916.4244,return,0.69,,90.36458333,,,,,,FBP-YG-81.png,0.45,1.2,10,0.5,,,,,,,,,,,,,0,48,48,9,1,,,,,,,,,,,,,,,,,,,,,,,,,,,,
,,,,,V3_025,20,Female,2024-10-19_15h03.44.074,jersey_experiment_5_v3,2023.2.2,Win32,84.74576271,,,,,,,,,,,,,,,,916.4247,917.9774,917.9774,924.2012,return,3.9952,,40.36458333,,,,,,FBP-OG-18.png,0.35,1.2,36,0.75,,,,,,,,,,,,,0,49,49,35,1,,,,,,,,,,,,,,,,,,,,,,,,,,,,
,,,,,V3_025,20,Female,2024-10-19_15h03.44.074,jersey_experiment_5_v3,2023.2.2,Win32,84.74576271,,,,,,,,,,,,,,,,924.2014,925.4955,925.4955,928.472,return,0.6668,,64.58333333,,,,,,FBP-PT-18.png,0.4,1.2,23,0.5,,,,,,,,,,,,,0,50,50,22,1,,,,,,,,,,,,,,,,,,,,,,,,,,,,
,,,,,V3_025,20,Female,2024-10-19_15h03.44.074,jersey_experiment_5_v3,2023.2.2,Win32,84.74576271,,,,,,,,,,,,,,,,928.4723,929.7662,929.7662,931.5191,return,0.6275,,74.21875,,,,,,FBP-RB-17.png,0.43,1.2,49,0.5,,,,,,,,,,,,,0,51,51,48,1,,,,,,,,,,,,,,,,,,,,,,,,,,,,
,,,,,V3_025,20,Female,2024-10-19_15h03.44.074,jersey_experiment_5_v3,2023.2.2,Win32,84.74576271,,,,,,,,,,,,,,,,931.5193,932.8134,932.8134,934.2015,return,0.6535,,82.16145833,,,,,,FBP-YG-91.png,0.45,1.2,15,0.5,,,,,,,,,,,,,0,52,52,14,1,,,,,,,,,,,,,,,,,,,,,,,,,,,,
,,,,,V3_025,20,Female,2024-10-19_15h03.44.074,jersey_experiment_5_v3,2023.2.2,Win32,84.74576271,,,,,,,,,,,,,,,,934.2017,935.4957,935.4958,936.8605,return,0.5568,,75.52083333,,,,,,FBP-PT-18.png,0.43,1.2,24,0.5,,,,,,,,,,,,,0,53,53,23,1,,,,,,,,,,,,,,,,,,,,,,,,,,,,
,,,,,V3_025,20,Female,2024-10-19_15h03.44.074,jersey_experiment_5_v3,2023.2.2,Win32,84.74576271,,,,,,,,,,,,,,,,936.8607,938.4137,938.4138,939.9783,return,0.5939,,25.390625,,,,,,FBP-OG-19.png,0.35,1.2,41,0.75,,,,,,,,,,,,,0,54,54,40,1,,,,,,,,,,,,,,,,,,,,,,,,,,,,
,,,,,V3_025,20,Female,2024-10-19_15h03.44.074,jersey_experiment_5_v3,2023.2.2,Win32,84.74576271,,,,,,,,,,,,,,,,939.9784,941.5312,941.5313,943.3785,return,0.5643,,38.80208333,,,,,,FBP-OG-19.png,0.37,1.2,42,0.75,,,,,,,,,,,,,0,55,55,41,1,,,,,,,,,,,,,,,,,,,,,,,,,,,,
,,,,,V3_025,20,Female,2024-10-19_15h03.44.074,jersey_experiment_5_v3,2023.2.2,Win32,84.74576271,,,,,,,,,,,,,,,,943.3786,944.6726,944.6727,946.3668,return,0.5564,,36.84895833,,,,,,FBP-RB-17.png,0.37,1.2,47,0.5,,,,,,,,,,,,,0,56,56,46,1,,,,,,,,,,,,,,,,,,,,,,,,,,,,
,,,,,V3_025,20,Female,2024-10-19_15h03.44.074,jersey_experiment_5_v3,2023.2.2,Win32,84.74576271,,,,,,,,,,,,,,,,946.367,947.661,947.661,949.261,return,0.5806,,34.11458333,,,,,,FBP-RB-19.png,0.37,1.2,57,0.5,,,,,,,,,,,,,0,57,57,56,1,,,,,,,,,,,,,,,,,,,,,,,,,,,,
,,,,,V3_025,20,Female,2024-10-19_15h03.44.074,jersey_experiment_5_v3,2023.2.2,Win32,84.74576271,,,,,,,,,,,,,,,,949.2612,950.5553,950.5553,952.5669,return,0.5973,,64.0625,,,,,,FBP-YG-71.png,0.43,1.2,4,0.5,,,,,,,,,,,,,0,58,58,3,1,,,,,,,,,,,,,,,,,,,,,,,,,,,,
,,,,,V3_025,20,Female,2024-10-19_15h03.44.074,jersey_experiment_5_v3,2023.2.2,Win32,84.74576271,,,,,,,,,,,,,,,,952.5671,953.8612,953.8612,956.2378,return,0.614,,83.33333333,,,,,,FBP-RB-18.png,0.45,1.2,55,0.5,,,,,,,,,,,,,0,59,59,54,1,,,,,,,,,,,,,,,,,,,,,,,,,,,,
,,,,,V3_025,20,Female,2024-10-19_15h03.44.074,jersey_experiment_5_v3,2023.2.2,Win32,84.74576271,,,,,,,,,,,,,,,,956.2402,957.5319,957.5319,959.1202,return,0.5332,,83.33333333,,,,,,FBP-PT-71.png,0.43,1.2,19,0.5,,,,,,,,,,,,,,,,,,0,0,0,18,1,,,,,,,,,,,,,,,,,,,,,,,
,,,,,V3_025,20,Female,2024-10-19_15h03.44.074,jersey_experiment_5_v3,2023.2.2,Win32,84.74576271,,,,,,,,,,,,,,,,959.1205,960.4144,960.4144,962.3673,return,0.6737,,40.75520833,,,,,,FBP-PT-91.png,0.37,1.2,27,0.5,,,,,,,,,,,,,,,,,,0,1,1,26,1,,,,,,,,,,,,,,,,,,,,,,,
,,,,,V3_025,20,Female,2024-10-19_15h03.44.074,jersey_experiment_5_v3,2023.2.2,Win32,84.74576271,,,,,,,,,,,,,,,,962.3676,963.6616,963.6616,965.5909,return,0.6404,,63.41145833,,,,,,FBP-RB-81.png,0.4,1.2,53,0.5,,,,,,,,,,,,,,,,,,0,2,2,52,1,,,,,,,,,,,,,,,,,,,,,,,
,,,,,V3_025,20,Female,2024-10-19_15h03.44.074,jersey_experiment_5_v3,2023.2.2,Win32,84.74576271,,,,,,,,,,,,,,,,965.5912,966.8852,966.8852,968.297,return,0.6156,,82.68229167,,,,,,FBP-PT-81.png,0.43,1.2,24,0.5,,,,,,,,,,,,,,,,,,0,3,3,23,1,,,,,,,,,,,,,,,,,,,,,,,
,,,,,V3_025,20,Female,2024-10-19_15h03.44.074,jersey_experiment_5_v3,2023.2.2,Win32,84.74576271,,,,,,,,,,,,,,,,968.2973,969.5912,969.5912,973.5442,return,2.4667,,40.36458333,,,,,,FBP-PT-81.png,0.37,1.2,22,0.5,,,,,,,,,,,,,,,,,,0,4,4,21,1,,,,,,,,,,,,,,,,,,,,,,,
,,,,,V3_025,20,Female,2024-10-19_15h03.44.074,jersey_experiment_5_v3,2023.2.2,Win32,84.74576271,,,,,,,,,,,,,,,,973.5445,974.8384,974.8385,977.4504,return,1.6964,,13.80208333,,,,,,FBP-RB-71.png,0.35,1.2,46,0.5,,,,,,,,,,,,,,,,,,0,5,5,45,1,,,,,,,,,,,,,,,,,,,,,,,
,,,,,V3_025,20,Female,2024-10-19_15h03.44.074,jersey_experiment_5_v3,2023.2.2,Win32,84.74576271,,,,,,,,,,,,,,,,977.4506,978.7445,978.7445,981.9446,return,1.5252,,75.52083333,,,,,,FBP-PT-71.png,0.45,1.2,20,0.5,,,,,,,,,,,,,,,,,,0,6,6,19,1,,,,,,,,,,,,,,,,,,,,,,,
,,,,,V3_025,20,Female,2024-10-19_15h03.44.074,jersey_experiment_5_v3,2023.2.2,Win32,84.74576271,,,,,,,,,,,,,,,,981.9447,983.2388,983.2388,986.1447,return,0.7294,,50,,,,,,FBP-YG-19.png,0.4,1.2,13,0.5,,,,,,,,,,,,,,,,,,0,7,7,12,1,,,,,,,,,,,,,,,,,,,,,,,
,,,,,V3_025,20,Female,2024-10-19_15h03.44.074,jersey_experiment_5_v3,2023.2.2,Win32,84.74576271,,,,,,,,,,,,,,,,986.145,987.6978,987.6978,990.5919,return,1.0118,,19.53125,,,,,,FBP-OG-91.png,0.37,1.2,42,0.75,,,,,,,,,,,,,,,,,,0,8,8,41,1,,,,,,,,,,,,,,,,,,,,,,,
,,,,,V3_025,20,Female,2024-10-19_15h03.44.074,jersey_experiment_5_v3,2023.2.2,Win32,84.74576271,,,,,,,,,,,,,,,,990.5922,991.886,991.8861,995.0156,return,1.2895,,50,,,,,,FBP-RB-71.png,0.4,1.2,48,0.5,,,,,,,,,,,,,,,,,,0,9,9,47,1,,,,,,,,,,,,,,,,,,,,,,,
,,,,,V3_025,20,Female,2024-10-19_15h03.44.074,jersey_experiment_5_v3,2023.2.2,Win32,84.74576271,,,,,,,,,,,,,,,,995.0158,996.3099,996.3099,998.3923,return,0.6393,,94.01041667,,,,,,FBP-RB-81.png,0.45,1.2,55,0.5,,,,,,,,,,,,,,,,,,0,10,10,54,1,,,,,,,,,,,,,,,,,,,,,,,
,,,,,V3_025,20,Female,2024-10-19_15h03.44.074,jersey_experiment_5_v3,2023.2.2,Win32,84.74576271,,,,,,,,,,,,,,,,998.3924,999.6864,999.6864,1002.5924,return,1.9847,,75,,,,,,FBP-PT-81.png,0.4,1.2,23,0.5,,,,,,,,,,,,,,,,,,0,11,11,22,1,,,,,,,,,,,,,,,,,,,,,,,
,,,,,V3_025,20,Female,2024-10-19_15h03.44.074,jersey_experiment_5_v3,2023.2.2,Win32,84.74576271,,,,,,,,,,,,,,,,1002.5926,1003.8866,1003.8867,1005.922,return,0.861,,58.33333333,,,,,,FBP-RB-91.png,0.4,1.2,58,0.5,,,,,,,,,,,,,,,,,,0,12,12,57,1,,,,,,,,,,,,,,,,,,,,,,,
,,,,,V3_025,20,Female,2024-10-19_15h03.44.074,jersey_experiment_5_v3,2023.2.2,Win32,84.74576271,,,,,,,,,,,,,,,,1005.9222,1007.216,1007.2161,1009.3692,return,1.2305,,74.86979167,,,,,,FBP-RB-91.png,0.43,1.2,59,0.5,,,,,,,,,,,,,,,,,,0,13,13,58,1,,,,,,,,,,,,,,,,,,,,,,,
,,,,,V3_025,20,Female,2024-10-19_15h03.44.074,jersey_experiment_5_v3,2023.2.2,Win32,84.74576271,,,,,,,,,,,,,,,,1009.3694,1010.6633,1010.6633,1013.087,return,1.0834,,42.44791667,,,,,,FBP-RB-81.png,0.37,1.2,52,0.5,,,,,,,,,,,,,,,,,,0,14,14,51,1,,,,,,,,,,,,,,,,,,,,,,,
,,,,,V3_025,20,Female,2024-10-19_15h03.44.074,jersey_experiment_5_v3,2023.2.2,Win32,84.74576271,,,,,,,,,,,,,,,,1013.0872,1014.3811,1014.3812,1016.9223,return,1.37,,97.13541667,,,,,,FBP-PT-81.png,0.45,1.2,25,0.5,,,,,,,,,,,,,,,,,,0,15,15,24,1,,,,,,,,,,,,,,,,,,,,,,,
,,,,,V3_025,20,Female,2024-10-19_15h03.44.074,jersey_experiment_5_v3,2023.2.2,Win32,84.74576271,,,,,,,,,,,,,,,,1016.9226,1018.2164,1018.2165,1019.8048,return,0.7317,,99.47916667,,,,,,FBP-PT-91.png,0.43,1.2,29,0.5,,,,,,,,,,,,,,,,,,0,16,16,28,1,,,,,,,,,,,,,,,,,,,,,,,
,,,,,V3_025,20,Female,2024-10-19_15h03.44.074,jersey_experiment_5_v3,2023.2.2,Win32,84.74576271,,,,,,,,,,,,,,,,1019.805,1021.099,1021.099,1023.3697,return,0.9709,,75.390625,,,,,,FBP-PT-71.png,0.4,1.2,18,0.5,,,,,,,,,,,,,,,,,,0,17,17,17,1,,,,,,,,,,,,,,,,,,,,,,,
,,,,,V3_025,20,Female,2024-10-19_15h03.44.074,jersey_experiment_5_v3,2023.2.2,Win32,84.74576271,,,,,,,,,,,,,,,,1023.37,1024.9226,1024.9227,1026.6992,return,0.8713,,56.38020833,,,,,,FBP-OG-71.png,0.37,1.2,32,0.75,,,,,,,,,,,,,,,,,,0,18,18,31,1,,,,,,,,,,,,,,,,,,,,,,,
,,,,,V3_025,20,Female,2024-10-19_15h03.44.074,jersey_experiment_5_v3,2023.2.2,Win32,84.74576271,,,,,,,,,,,,,,,,1026.6993,1027.9934,1027.9934,1033.6172,return,2.0473,,48.69791667,,,,,,FBP-PT-81.png,0.35,1.2,21,0.5,,,,,,,,,,,,,,,,,,0,19,19,20,1,,,,,,,,,,,,,,,,,,,,,,,
,,,,,V3_025,20,Female,2024-10-19_15h03.44.074,jersey_experiment_5_v3,2023.2.2,Win32,84.74576271,,,,,,,,,,,,,,,,1033.6175,1034.9113,1034.9113,1039.182,return,2.4351,,75.91145833,,,,,,FBP-PT-91.png,0.4,1.2,28,0.5,,,,,,,,,,,,,,,,,,0,20,20,27,1,,,,,,,,,,,,,,,,,,,,,,,
,,,,,V3_025,20,Female,2024-10-19_15h03.44.074,jersey_experiment_5_v3,2023.2.2,Win32,84.74576271,,,,,,,,,,,,,,,,1039.1822,1040.4761,1040.4762,1042.0644,return,0.6595,,75.91145833,,,,,,FBP-YG-18.png,0.43,1.2,9,0.5,,,,,,,,,,,,,,,,,,0,21,21,8,1,,,,,,,,,,,,,,,,,,,,,,,
,,,,,V3_025,20,Female,2024-10-19_15h03.44.074,jersey_experiment_5_v3,2023.2.2,Win32,84.74576271,,,,,,,,,,,,,,,,1042.0646,1043.3586,1043.3587,1045.1939,return,0.7945,,76.30208333,,,,,,FBP-YG-18.png,0.4,1.2,8,0.5,,,,,,,,,,,,,,,,,,0,22,22,7,1,,,,,,,,,,,,,,,,,,,,,,,
,,,,,V3_025,20,Female,2024-10-19_15h03.44.074,jersey_experiment_5_v3,2023.2.2,Win32,84.74576271,,,,,,,,,,,,,,,,1045.1942,1046.4882,1046.4883,1048.3823,return,0.6447,,93.359375,,,,,,FBP-YG-17.png,0.43,1.2,4,0.5,,,,,,,,,,,,,,,,,,0,23,23,3,1,,,,,,,,,,,,,,,,,,,,,,,
,,,,,V3_025,20,Female,2024-10-19_15h03.44.074,jersey_experiment_5_v3,2023.2.2,Win32,84.74576271,,,,,,,,,,,,,,,,1048.3825,1049.6764,1049.6765,1052.206,return,0.8392,,41.015625,,,,,,FBP-RB-91.png,0.37,1.2,57,0.5,,,,,,,,,,,,,,,,,,0,24,24,56,1,,,,,,,,,,,,,,,,,,,,,,,
,,,,,V3_025,20,Female,2024-10-19_15h03.44.074,jersey_experiment_5_v3,2023.2.2,Win32,84.74576271,,,,,,,,,,,,,,,,1052.2061,1053.5002,1053.5002,1055.7237,return,0.8118,,92.83854167,,,,,,FBP-RB-91.png,0.45,1.2,60,0.5,,,,,,,,,,,,,,,,,,0,25,25,59,1,,,,,,,,,,,,,,,,,,,,,,,
,,,,,V3_025,20,Female,2024-10-19_15h03.44.074,jersey_experiment_5_v3,2023.2.2,Win32,84.74576271,,,,,,,,,,,,,,,,1055.7239,1057.018,1057.018,1060.3946,return,1.1548,,35.28645833,,,,,,FBP-YG-17.png,0.35,1.2,1,0.5,,,,,,,,,,,,,,,,,,0,26,26,0,1,,,,,,,,,,,,,,,,,,,,,,,
,,,,,V3_025,20,Female,2024-10-19_15h03.44.074,jersey_experiment_5_v3,2023.2.2,Win32,84.74576271,,,,,,,,,,,,,,,,1060.3947,1061.6887,1061.6888,1063.9124,return,0.6979,,12.5,,,,,,FBP-YG-18.png,0.35,1.2,6,0.5,,,,,,,,,,,,,,,,,,0,27,27,5,1,,,,,,,,,,,,,,,,,,,,,,,
,,,,,V3_025,20,Female,2024-10-19_15h03.44.074,jersey_experiment_5_v3,2023.2.2,Win32,84.74576271,,,,,,,,,,,,,,,,1063.9127,1065.4653,1065.4653,1069.9361,return,1.3727,,74.47916667,,,,,,FBP-OG-81.png,0.4,1.2,38,0.75,,,,,,,,,,,,,,,,,,0,28,28,37,1,,,,,,,,,,,,,,,,,,,,,,,
,,,,,V3_025,20,Female,2024-10-19_15h03.44.074,jersey_experiment_5_v3,2023.2.2,Win32,84.74576271,,,,,,,,,,,,,,,,1069.9363,1071.2302,1071.2303,1074.0068,return,0.8647,,26.30208333,,,,,,FBP-RB-71.png,0.37,1.2,47,0.5,,,,,,,,,,,,,,,,,,0,29,29,46,1,,,,,,,,,,,,,,,,,,,,,,,
,,,,,V3_025,20,Female,2024-10-19_15h03.44.074,jersey_experiment_5_v3,2023.2.2,Win32,84.74576271,,,,,,,,,,,,,,,,1074.0072,1075.301,1075.301,1078.1247,return,0.6937,,76.04166667,,,,,,FBP-YG-19.png,0.43,1.2,14,0.5,,,,,,,,,,,,,,,,,,0,30,30,13,1,,,,,,,,,,,,,,,,,,,,,,,
,,,,,V3_025,20,Female,2024-10-19_15h03.44.074,jersey_experiment_5_v3,2023.2.2,Win32,84.74576271,,,,,,,,,,,,,,,,1078.1251,1079.6776,1079.6777,1082.3953,return,1.5225,,85.80729167,,,,,,FBP-OG-71.png,0.43,1.2,34,0.75,,,,,,,,,,,,,,,,,,0,31,31,33,1,,,,,,,,,,,,,,,,,,,,,,,
,,,,,V3_025,20,Female,2024-10-19_15h03.44.074,jersey_experiment_5_v3,2023.2.2,Win32,84.74576271,,,,,,,,,,,,,,,,1082.3955,1083.6896,1083.6896,1085.9603,return,0.7708,,97.00520833,,,,,,FBP-YG-19.png,0.45,1.2,15,0.5,,,,,,,,,,,,,,,,,,0,32,32,14,1,,,,,,,,,,,,,,,,,,,,,,,
,,,,,V3_025,20,Female,2024-10-19_15h03.44.074,jersey_experiment_5_v3,2023.2.2,Win32,84.74576271,,,,,,,,,,,,,,,,1085.9606,1087.2544,1087.2544,1091.0309,return,0.9145,,99.86979167,,,,,,FBP-YG-17.png,0.45,1.2,5,0.5,,,,,,,,,,,,,,,,,,0,33,33,4,1,,,,,,,,,,,,,,,,,,,,,,,
,,,,,V3_025,20,Female,2024-10-19_15h03.44.074,jersey_experiment_5_v3,2023.2.2,Win32,84.74576271,,,,,,,,,,,,,,,,1091.0311,1092.3252,1092.3252,1094.9134,return,0.8136,,84.50520833,,,,,,FBP-RB-81.png,0.43,1.2,54,0.5,,,,,,,,,,,,,,,,,,0,34,34,53,1,,,,,,,,,,,,,,,,,,,,,,,
,,,,,V3_025,20,Female,2024-10-19_15h03.44.074,jersey_experiment_5_v3,2023.2.2,Win32,84.74576271,,,,,,,,,,,,,,,,1094.9137,1096.2076,1096.2077,1098.0901,return,0.6764,,92.70833333,,,,,,FBP-YG-18.png,0.45,1.2,10,0.5,,,,,,,,,,,,,,,,,,0,35,35,9,1,,,,,,,,,,,,,,,,,,,,,,,
,,,,,V3_025,20,Female,2024-10-19_15h03.44.074,jersey_experiment_5_v3,2023.2.2,Win32,84.74576271,,,,,,,,,,,,,,,,1098.0904,1099.643,1099.6432,1101.1961,return,0.7064,,98.4375,,,,,,FBP-OG-81.png,0.43,1.2,39,0.75,,,,,,,,,,,,,,,,,,0,36,36,38,1,,,,,,,,,,,,,,,,,,,,,,,
,,,,,V3_025,20,Female,2024-10-19_15h03.44.074,jersey_experiment_5_v3,2023.2.2,Win32,84.74576271,,,,,,,,,,,,,,,,1101.1963,1102.4902,1102.4903,1106.0081,return,1.8904,,38.80208333,,,,,,FBP-YG-19.png,0.37,1.2,12,0.5,,,,,,,,,,,,,,,,,,0,37,37,11,1,,,,,,,,,,,,,,,,,,,,,,,
,,,,,V3_025,20,Female,2024-10-19_15h03.44.074,jersey_experiment_5_v3,2023.2.2,Win32,84.74576271,,,,,,,,,,,,,,,,1106.0083,1107.3022,1107.3022,1112.7495,return,4.4145,,39.58333333,,,,,,FBP-PT-71.png,0.37,1.2,17,0.5,,,,,,,,,,,,,,,,,,0,38,38,16,1,,,,,,,,,,,,,,,,,,,,,,,
,,,,,V3_025,20,Female,2024-10-19_15h03.44.074,jersey_experiment_5_v3,2023.2.2,Win32,84.74576271,,,,,,,,,,,,,,,,1112.7497,1114.3026,1114.3028,1117.2085,return,1.7489,,18.09895833,,,,,,FBP-OG-81.png,0.35,1.2,36,0.75,,,,,,,,,,,,,,,,,,0,39,39,35,1,,,,,,,,,,,,,,,,,,,,,,,
,,,,,V3_025,20,Female,2024-10-19_15h03.44.074,jersey_experiment_5_v3,2023.2.2,Win32,84.74576271,,,,,,,,,,,,,,,,1117.2088,1118.7614,1118.7614,1121.9381,return,2.5649,,4.817708333,,,,,,FBP-OG-71.png,0.35,1.2,31,0.75,,,,,,,,,,,,,,,,,,0,40,40,30,1,,,,,,,,,,,,,,,,,,,,,,,
,,,,,V3_025,20,Female,2024-10-19_15h03.44.074,jersey_experiment_5_v3,2023.2.2,Win32,84.74576271,,,,,,,,,,,,,,,,1121.9384,1123.2321,1123.2322,1125.3618,return,0.8618,,13.671875,,,,,,FBP-RB-91.png,0.35,1.2,56,0.5,,,,,,,,,,,,,,,,,,0,41,41,55,1,,,,,,,,,,,,,,,,,,,,,,,
,,,,,V3_025,20,Female,2024-10-19_15h03.44.074,jersey_experiment_5_v3,2023.2.2,Win32,84.74576271,,,,,,,,,,,,,,,,1125.362,1126.6559,1126.6559,1128.5383,return,0.6758,,38.28125,,,,,,FBP-YG-17.png,0.37,1.2,2,0.5,,,,,,,,,,,,,,,,,,0,42,42,1,1,,,,,,,,,,,,,,,,,,,,,,,
,,,,,V3_025,20,Female,2024-10-19_15h03.44.074,jersey_experiment_5_v3,2023.2.2,Win32,84.74576271,,,,,,,,,,,,,,,,1128.5385,1130.0915,1130.0915,1131.4678,return,0.671,,67.83854167,,,,,,FBP-OG-71.png,0.4,1.2,33,0.75,,,,,,,,,,,,,,,,,,0,43,43,32,1,,,,,,,,,,,,,,,,,,,,,,,
,,,,,V3_025,20,Female,2024-10-19_15h03.44.074,jersey_experiment_5_v3,2023.2.2,Win32,84.74576271,,,,,,,,,,,,,,,,1131.4681,1132.762,1132.7621,1139.8328,return,1.5249,,65.49479167,,,,,,FBP-PT-91.png,0.35,1.2,26,0.5,,,,,,,,,,,,,,,,,,0,44,44,25,1,,,,,,,,,,,,,,,,,,,,,,,
,,,,,V3_025,20,Female,2024-10-19_15h03.44.074,jersey_experiment_5_v3,2023.2.2,Win32,84.74576271,,,,,,,,,,,,,,,,1139.8331,1141.1269,1141.127,1143.4094,return,0.79,,40.75520833,,,,,,FBP-YG-19.png,0.35,1.2,11,0.5,,,,,,,,,,,,,,,,,,0,45,45,10,1,,,,,,,,,,,,,,,,,,,,,,,
,,,,,V3_025,20,Female,2024-10-19_15h03.44.074,jersey_experiment_5_v3,2023.2.2,Win32,84.74576271,,,,,,,,,,,,,,,,1143.4097,1144.7036,1144.7037,1149.4097,return,2.745,,37.890625,,,,,,FBP-RB-81.png,0.35,1.2,51,0.5,,,,,,,,,,,,,,,,,,0,46,46,50,1,,,,,,,,,,,,,,,,,,,,,,,
,,,,,V3_025,20,Female,2024-10-19_15h03.44.074,jersey_experiment_5_v3,2023.2.2,Win32,84.74576271,,,,,,,,,,,,,,,,1149.41,1150.9628,1150.9628,1154.5746,return,2.3649,,78.64583333,,,,,,FBP-OG-91.png,0.4,1.2,43,0.75,,,,,,,,,,,,,,,,,,0,47,47,42,1,,,,,,,,,,,,,,,,,,,,,,,
,,,,,V3_025,20,Female,2024-10-19_15h03.44.074,jersey_experiment_5_v3,2023.2.2,Win32,84.74576271,,,,,,,,,,,,,,,,1154.5748,1155.8686,1155.8687,1157.9628,return,0.672,,97.265625,,,,,,FBP-PT-91.png,0.45,1.2,30,0.5,,,,,,,,,,,,,,,,,,0,48,48,29,1,,,,,,,,,,,,,,,,,,,,,,,
,,,,,V3_025,20,Female,2024-10-19_15h03.44.074,jersey_experiment_5_v3,2023.2.2,Win32,84.74576271,,,,,,,,,,,,,,,,1157.9631,1159.2572,1159.2573,1161.1983,return,0.7917,,97.52604167,,,,,,FBP-YG-17.png,0.4,1.2,3,0.5,,,,,,,,,,,,,,,,,,0,49,49,2,1,,,,,,,,,,,,,,,,,,,,,,,
,,,,,V3_025,20,Female,2024-10-19_15h03.44.074,jersey_experiment_5_v3,2023.2.2,Win32,84.74576271,,,,,,,,,,,,,,,,1161.1985,1162.7514,1162.7514,1164.5043,return,0.7215,,75.91145833,,,,,,FBP-OG-81.png,0.37,1.2,37,0.75,,,,,,,,,,,,,,,,,,0,50,50,36,1,,,,,,,,,,,,,,,,,,,,,,,
,,,,,V3_025,20,Female,2024-10-19_15h03.44.074,jersey_experiment_5_v3,2023.2.2,Win32,84.74576271,,,,,,,,,,,,,,,,1164.5045,1166.0575,1166.0575,1167.5162,return,0.6957,,90.49479167,,,,,,FBP-OG-91.png,0.45,1.2,45,0.75,,,,,,,,,,,,,,,,,,0,51,51,44,1,,,,,,,,,,,,,,,,,,,,,,,
,,,,,V3_025,20,Female,2024-10-19_15h03.44.074,jersey_experiment_5_v3,2023.2.2,Win32,84.74576271,,,,,,,,,,,,,,,,1167.5164,1168.8104,1168.8104,1171.1281,return,0.749,,22.13541667,,,,,,FBP-PT-71.png,0.35,1.2,16,0.5,,,,,,,,,,,,,,,,,,0,52,52,15,1,,,,,,,,,,,,,,,,,,,,,,,
,,,,,V3_025,20,Female,2024-10-19_15h03.44.074,jersey_experiment_5_v3,2023.2.2,Win32,84.74576271,,,,,,,,,,,,,,,,1171.1283,1172.6813,1172.6813,1174.587,return,0.7305,,97.52604167,,,,,,FBP-OG-71.png,0.45,1.2,35,0.75,,,,,,,,,,,,,,,,,,0,53,53,34,1,,,,,,,,,,,,,,,,,,,,,,,
,,,,,V3_025,20,Female,2024-10-19_15h03.44.074,jersey_experiment_5_v3,2023.2.2,Win32,84.74576271,,,,,,,,,,,,,,,,1174.5872,1176.1401,1176.1401,1177.3048,return,0.8622,,97.52604167,,,,,,FBP-OG-81.png,0.45,1.2,40,0.75,,,,,,,,,,,,,,,,,,0,54,54,39,1,,,,,,,,,,,,,,,,,,,,,,,
,,,,,V3_025,20,Female,2024-10-19_15h03.44.074,jersey_experiment_5_v3,2023.2.2,Win32,84.74576271,,,,,,,,,,,,,,,,1177.305,1178.8578,1178.8579,1179.9048,return,0.6596,,97.52604167,,,,,,FBP-OG-91.png,0.43,1.2,44,0.75,,,,,,,,,,,,,,,,,,0,55,55,43,1,,,,,,,,,,,,,,,,,,,,,,,
,,,,,V3_025,20,Female,2024-10-19_15h03.44.074,jersey_experiment_5_v3,2023.2.2,Win32,84.74576271,,,,,,,,,,,,,,,,1179.9052,1181.199,1181.199,1183.3991,return,0.7381,,99.08854167,,,,,,FBP-RB-71.png,0.45,1.2,50,0.5,,,,,,,,,,,,,,,,,,0,56,56,49,1,,,,,,,,,,,,,,,,,,,,,,,
,,,,,V3_025,20,Female,2024-10-19_15h03.44.074,jersey_experiment_5_v3,2023.2.2,Win32,84.74576271,,,,,,,,,,,,,,,,1183.3993,1184.6932,1184.6933,1189.1052,return,0.8389,,68.75,,,,,,FBP-YG-18.png,0.37,1.2,7,0.5,,,,,,,,,,,,,,,,,,0,57,57,6,1,,,,,,,,,,,,,,,,,,,,,,,
,,,,,V3_025,20,Female,2024-10-19_15h03.44.074,jersey_experiment_5_v3,2023.2.2,Win32,84.74576271,,,,,,,,,,,,,,,,1189.1053,1190.3995,1190.3995,1191.9758,return,0.6631,,76.171875,,,,,,FBP-RB-71.png,0.43,1.2,49,0.5,,,,,,,,,,,,,,,,,,0,58,58,48,1,,,,,,,,,,,,,,,,,,,,,,,
,,,,,V3_025,20,Female,2024-10-19_15h03.44.074,jersey_experiment_5_v3,2023.2.2,Win32,84.74576271,,,,,,,,,,,,,,,,1191.976,1193.5291,1193.5291,1195.0231,return,0.6829,,37.109375,,,,,,FBP-OG-91.png,0.35,1.2,41,0.75,,,,,,,,,,,,,,,,,,0,59,59,40,1,,,,,,,,,,,,,,,,,,,,,,,
,,,,,V3_025,20,Female,2024-10-19_15h03.44.074,jersey_experiment_5_v3,2023.2.2,Win32,84.74576271,,,,,,,,,,,,,,,,,,,,,,,,,,,,,,,,,,,,,,,,,,,,,,,,,,,,,,,,1195.0233,1200.3529,return,5.3176,,,,,,,,,,,,,,,,,,,
,,,,,V3_025,20,Female,2024-10-19_15h03.44.074,jersey_experiment_5_v3,2023.2.2,Win32,84.74576271,,,,,,,,,,,,,,,,,,,,,,,,,,,,,,,,,,,,,,,,,,,,,,,,,,,,,,,,,,,,,1200.353,1203.2941,1,1.7813,return,1.145,,,,,,,,,,,,
,,,,,V3_025,20,Female,2024-10-19_15h03.44.074,jersey_experiment_5_v3,2023.2.2,Win32,84.74576271,,,,,,,,,,,,,,,,,,,,,,,,,,,,,,,,,,,,,,,,,,,,,,,,,,,,,,,,,,,,,,,,,,,,1203.2943,1283.3566,i think it may be testing if our minds exaggerate what we see when two extremes are showed one after another. i noticed that they show two extremes back to back often,right,74.7899,,,,,,
,,,,,V3_025,20,Female,2024-10-19_15h03.44.074,jersey_experiment_5_v3,2023.2.2,Win32,84.74576271,,,,,,,,,,,,,,,,,,,,,,,,,,,,,,,,,,,,,,,,,,,,,,,,,,,,,,,,,,,,,,,,,,,,,,,,,,1283.3567,1287.7208,return,4.3562,