requirements.started,requirements.stopped,key_resp_3.keys,key_resp_3.rt,key_resp_3.duration,Subject ID,Age,Gender,date,expName,psychopyVersion,OS,frameRate,instructions1.started,instructions1.stopped,key_resp.keys,key_resp.rt,key_resp.duration,example.started,example.stopped,enter_2.keys,enter_2.rt,enter_2.duration,instructions2.started,instructions2.stopped,enter_3.keys,enter_3.rt,enter_3.duration,image.started,image.stopped,slider_2.started,slider_2.stopped,next.keys,next.rt,next.duration,slider.response,trial_block_1.thisRepN,trial_block_1.thisTrialN,trial_block_1.thisN,trial_block_1.thisIndex,trial_block_1.ran,Path,Width,Height,Index,Duration,trial_block_2.thisRepN,trial_block_2.thisTrialN,trial_block_2.thisN,trial_block_2.thisIndex,trial_block_2.ran,rest_break.started,rest_break.stopped,end_break.started,end_break.stopped,key_resp_5.keys,key_resp_5.rt,key_resp_5.duration,trial_block_3.thisRepN,trial_block_3.thisTrialN,trial_block_3.thisN,trial_block_3.thisIndex,trial_block_3.ran,trial_block_4.thisRepN,trial_block_4.thisTrialN,trial_block_4.thisN,trial_block_4.thisIndex,trial_block_4.ran,questions_intro.started,questions_intro.stopped,enter_12.keys,enter_12.rt,enter_12.duration,question2.started,question2.stopped,question_doingbest.response,question_doingbest.rt,enter_15.keys,enter_15.rt,enter_15.duration,pattern.started,pattern.stopped,pattern_2.text,enter_17.keys,enter_17.rt,enter_17.duration,thankyou.started,thankyou.stopped,enter_14.keys,enter_14.rt,enter_14.duration
0.0003,129.1236,return,129.1114,,V3_005,19,Female,2024-10-13_18h50.20.452,jersey_experiment_5_v3,2023.2.2,Win32,60.24096386,,,,,,,,,,,,,,,,,,,,,,,,,,,,,,,,,,,,,,,,,,,,,,,,,,,,,,,,,,,,,,,,,,,,,,,,,,,,,,
,,,,,V3_005,19,Female,2024-10-13_18h50.20.452,jersey_experiment_5_v3,2023.2.2,Win32,60.24096386,129.1238,136.9738,return,7.8319,,,,,,,,,,,,,,,,,,,,,,,,,,,,,,,,,,,,,,,,,,,,,,,,,,,,,,,,,,,,,,,,,,,,,,,,,,
,,,,,V3_005,19,Female,2024-10-13_18h50.20.452,jersey_experiment_5_v3,2023.2.2,Win32,60.24096386,,,,,,136.974,141.4073,return,4.3535,,,,,,,,,,,,,,,,,,,,,,,,,,,,,,,,,,,,,,,,,,,,,,,,,,,,,,,,,,,,,,,,,,,,,
,,,,,V3_005,19,Female,2024-10-13_18h50.20.452,jersey_experiment_5_v3,2023.2.2,Win32,60.24096386,,,,,,,,,,,141.4073,156.224,return,14.796,,,,,,,,,,,,,,,,,,,,,,,,,,,,,,,,,,,,,,,,,,,,,,,,,,,,,,,,,,,,,,,,
,,,,,V3_005,19,Female,2024-10-13_18h50.20.452,jersey_experiment_5_v3,2023.2.2,Win32,60.24096386,,,,,,,,,,,,,,,,156.2368,157.7903,157.7904,164.2068,return,1.5503,,99.72222222,0,0,0,29,1,FBP-PT-19.png,0.45,1.2,30,0.75,,,,,,,,,,,,,,,,,,,,,,,,,,,,,,,,,,,,,,,,,,,,,
,,,,,V3_005,19,Female,2024-10-13_18h50.20.452,jersey_experiment_5_v3,2023.2.2,Win32,60.24096386,,,,,,,,,,,,,,,,164.2072,165.7569,165.7571,169.4569,return,1.2096,,75.20833333,0,1,1,46,1,FBP-RB-17.png,0.37,1.2,47,0.75,,,,,,,,,,,,,,,,,,,,,,,,,,,,,,,,,,,,,,,,,,,,,
,,,,,V3_005,19,Female,2024-10-13_18h50.20.452,jersey_experiment_5_v3,2023.2.2,Win32,60.24096386,,,,,,,,,,,,,,,,169.4571,171.007,171.0071,174.1571,return,1.0679,,99.51388889,0,2,2,14,1,FBP-YG-91.png,0.45,1.2,15,0.75,,,,,,,,,,,,,,,,,,,,,,,,,,,,,,,,,,,,,,,,,,,,,
,,,,,V3_005,19,Female,2024-10-13_18h50.20.452,jersey_experiment_5_v3,2023.2.2,Win32,60.24096386,,,,,,,,,,,,,,,,174.1575,175.7073,175.7073,182.7569,return,5.6224,,49.93055556,0,3,3,20,1,FBP-PT-18.png,0.35,1.2,21,0.75,,,,,,,,,,,,,,,,,,,,,,,,,,,,,,,,,,,,,,,,,,,,,
,,,,,V3_005,19,Female,2024-10-13_18h50.20.452,jersey_experiment_5_v3,2023.2.2,Win32,60.24096386,,,,,,,,,,,,,,,,182.7649,184.3071,184.3072,187.5071,return,1.3414,,74.79166667,0,4,4,2,1,FBP-YG-71.png,0.4,1.2,3,0.75,,,,,,,,,,,,,,,,,,,,,,,,,,,,,,,,,,,,,,,,,,,,,
,,,,,V3_005,19,Female,2024-10-13_18h50.20.452,jersey_experiment_5_v3,2023.2.2,Win32,60.24096386,,,,,,,,,,,,,,,,187.5076,189.0569,189.0569,191.0738,return,0.8278,,74.79166667,0,5,5,22,1,FBP-PT-18.png,0.4,1.2,23,0.75,,,,,,,,,,,,,,,,,,,,,,,,,,,,,,,,,,,,,,,,,,,,,
,,,,,V3_005,19,Female,2024-10-13_18h50.20.452,jersey_experiment_5_v3,2023.2.2,Win32,60.24096386,,,,,,,,,,,,,,,,191.0743,192.3736,192.3736,195.5903,return,1.0052,,49.51388889,0,6,6,35,1,FBP-OG-18.png,0.35,1.2,36,0.5,,,,,,,,,,,,,,,,,,,,,,,,,,,,,,,,,,,,,,,,,,,,,
,,,,,V3_005,19,Female,2024-10-13_18h50.20.452,jersey_experiment_5_v3,2023.2.2,Win32,60.24096386,,,,,,,,,,,,,,,,195.5906,197.1403,197.1404,201.0073,return,2.0488,,98.54166667,0,7,7,48,1,FBP-RB-17.png,0.43,1.2,49,0.75,,,,,,,,,,,,,,,,,,,,,,,,,,,,,,,,,,,,,,,,,,,,,
,,,,,V3_005,19,Female,2024-10-13_18h50.20.452,jersey_experiment_5_v3,2023.2.2,Win32,60.24096386,,,,,,,,,,,,,,,,201.0078,202.5573,202.5574,205.3407,return,1.3667,,99.86111111,0,8,8,3,1,FBP-YG-71.png,0.43,1.2,4,0.75,,,,,,,,,,,,,,,,,,,,,,,,,,,,,,,,,,,,,,,,,,,,,
,,,,,V3_005,19,Female,2024-10-13_18h50.20.452,jersey_experiment_5_v3,2023.2.2,Win32,60.24096386,,,,,,,,,,,,,,,,205.3411,206.8906,206.8906,211.4073,return,2.9195,,87.01388889,0,9,9,7,1,FBP-YG-81.png,0.4,1.2,8,0.75,,,,,,,,,,,,,,,,,,,,,,,,,,,,,,,,,,,,,,,,,,,,,
,,,,,V3_005,19,Female,2024-10-13_18h50.20.452,jersey_experiment_5_v3,2023.2.2,Win32,60.24096386,,,,,,,,,,,,,,,,211.4076,212.9576,212.9577,215.7575,return,1.4495,,99.86111111,0,10,10,4,1,FBP-YG-71.png,0.45,1.2,5,0.75,,,,,,,,,,,,,,,,,,,,,,,,,,,,,,,,,,,,,,,,,,,,,
,,,,,V3_005,19,Female,2024-10-13_18h50.20.452,jersey_experiment_5_v3,2023.2.2,Win32,60.24096386,,,,,,,,,,,,,,,,215.7578,217.0574,217.0575,220.6569,return,1.0106,,22.5,0,11,11,40,1,FBP-OG-19.png,0.35,1.2,41,0.5,,,,,,,,,,,,,,,,,,,,,,,,,,,,,,,,,,,,,,,,,,,,,
,,,,,V3_005,19,Female,2024-10-13_18h50.20.452,jersey_experiment_5_v3,2023.2.2,Win32,60.24096386,,,,,,,,,,,,,,,,220.6572,222.2075,222.2075,226.724,return,0.9915,,27.77777778,0,12,12,45,1,FBP-RB-17.png,0.35,1.2,46,0.75,,,,,,,,,,,,,,,,,,,,,,,,,,,,,,,,,,,,,,,,,,,,,
,,,,,V3_005,19,Female,2024-10-13_18h50.20.452,jersey_experiment_5_v3,2023.2.2,Win32,60.24096386,,,,,,,,,,,,,,,,226.7244,228.2744,228.2745,232.7239,return,0.9919,,99.93055556,0,13,13,8,1,FBP-YG-81.png,0.43,1.2,9,0.75,,,,,,,,,,,,,,,,,,,,,,,,,,,,,,,,,,,,,,,,,,,,,
,,,,,V3_005,19,Female,2024-10-13_18h50.20.452,jersey_experiment_5_v3,2023.2.2,Win32,60.24096386,,,,,,,,,,,,,,,,232.7243,234.2742,234.2742,236.3579,return,0.9891,,98.33333333,0,14,14,53,1,FBP-RB-18.png,0.43,1.2,54,0.75,,,,,,,,,,,,,,,,,,,,,,,,,,,,,,,,,,,,,,,,,,,,,
,,,,,V3_005,19,Female,2024-10-13_18h50.20.452,jersey_experiment_5_v3,2023.2.2,Win32,60.24096386,,,,,,,,,,,,,,,,236.3584,237.9078,237.9079,242.8574,return,0.9176,,25.27777778,0,15,15,26,1,FBP-PT-19.png,0.37,1.2,27,0.75,,,,,,,,,,,,,,,,,,,,,,,,,,,,,,,,,,,,,,,,,,,,,
,,,,,V3_005,19,Female,2024-10-13_18h50.20.452,jersey_experiment_5_v3,2023.2.2,Win32,60.24096386,,,,,,,,,,,,,,,,242.8576,244.4073,244.4074,246.1241,return,1.0666,,25.27777778,0,16,16,21,1,FBP-PT-18.png,0.37,1.2,22,0.75,,,,,,,,,,,,,,,,,,,,,,,,,,,,,,,,,,,,,,,,,,,,,
,,,,,V3_005,19,Female,2024-10-13_18h50.20.452,jersey_experiment_5_v3,2023.2.2,Win32,60.24096386,,,,,,,,,,,,,,,,246.1246,247.4241,247.4241,249.974,return,1.0214,,25.27777778,0,17,17,36,1,FBP-OG-18.png,0.37,1.2,37,0.5,,,,,,,,,,,,,,,,,,,,,,,,,,,,,,,,,,,,,,,,,,,,,
,,,,,V3_005,19,Female,2024-10-13_18h50.20.452,jersey_experiment_5_v3,2023.2.2,Win32,60.24096386,,,,,,,,,,,,,,,,249.9743,251.2745,251.2747,254.5912,return,0.9487,,75.20833333,0,18,18,42,1,FBP-OG-19.png,0.4,1.2,43,0.5,,,,,,,,,,,,,,,,,,,,,,,,,,,,,,,,,,,,,,,,,,,,,
,,,,,V3_005,19,Female,2024-10-13_18h50.20.452,jersey_experiment_5_v3,2023.2.2,Win32,60.24096386,,,,,,,,,,,,,,,,254.5915,255.8909,255.891,258.6744,return,1.0766,,99.375,0,19,19,38,1,FBP-OG-18.png,0.43,1.2,39,0.5,,,,,,,,,,,,,,,,,,,,,,,,,,,,,,,,,,,,,,,,,,,,,
,,,,,V3_005,19,Female,2024-10-13_18h50.20.452,jersey_experiment_5_v3,2023.2.2,Win32,60.24096386,,,,,,,,,,,,,,,,258.6748,260.2242,260.2243,262.3076,return,0.9225,,49.86111111,0,20,20,50,1,FBP-RB-18.png,0.35,1.2,51,0.75,,,,,,,,,,,,,,,,,,,,,,,,,,,,,,,,,,,,,,,,,,,,,
,,,,,V3_005,19,Female,2024-10-13_18h50.20.452,jersey_experiment_5_v3,2023.2.2,Win32,60.24096386,,,,,,,,,,,,,,,,262.308,263.6077,263.6078,265.8579,return,1.008,,75.06944444,0,21,21,37,1,FBP-OG-18.png,0.4,1.2,38,0.5,,,,,,,,,,,,,,,,,,,,,,,,,,,,,,,,,,,,,,,,,,,,,
,,,,,V3_005,19,Female,2024-10-13_18h50.20.452,jersey_experiment_5_v3,2023.2.2,Win32,60.24096386,,,,,,,,,,,,,,,,265.8583,267.4076,267.4076,270.424,return,2.2865,,62.43055556,0,22,22,16,1,FBP-PT-17.png,0.37,1.2,17,0.75,,,,,,,,,,,,,,,,,,,,,,,,,,,,,,,,,,,,,,,,,,,,,
,,,,,V3_005,19,Female,2024-10-13_18h50.20.452,jersey_experiment_5_v3,2023.2.2,Win32,60.24096386,,,,,,,,,,,,,,,,270.4243,271.7241,271.7243,274.5743,return,1.184,,37.63888889,0,23,23,30,1,FBP-OG-17.png,0.35,1.2,31,0.5,,,,,,,,,,,,,,,,,,,,,,,,,,,,,,,,,,,,,,,,,,,,,
,,,,,V3_005,19,Female,2024-10-13_18h50.20.452,jersey_experiment_5_v3,2023.2.2,Win32,60.24096386,,,,,,,,,,,,,,,,274.5746,275.8744,275.8745,278.7076,return,0.8415,,61.80555556,0,24,24,31,1,FBP-OG-17.png,0.37,1.2,32,0.5,,,,,,,,,,,,,,,,,,,,,,,,,,,,,,,,,,,,,,,,,,,,,
,,,,,V3_005,19,Female,2024-10-13_18h50.20.452,jersey_experiment_5_v3,2023.2.2,Win32,60.24096386,,,,,,,,,,,,,,,,278.7081,280.2576,280.2577,283.0912,return,0.9406,,37.84722222,0,25,25,0,1,FBP-YG-71.png,0.35,1.2,1,0.75,,,,,,,,,,,,,,,,,,,,,,,,,,,,,,,,,,,,,,,,,,,,,
,,,,,V3_005,19,Female,2024-10-13_18h50.20.452,jersey_experiment_5_v3,2023.2.2,Win32,60.24096386,,,,,,,,,,,,,,,,283.0917,284.6411,284.6412,286.8913,return,1.1181,,37.84722222,0,26,26,5,1,FBP-YG-81.png,0.35,1.2,6,0.75,,,,,,,,,,,,,,,,,,,,,,,,,,,,,,,,,,,,,,,,,,,,,
,,,,,V3_005,19,Female,2024-10-13_18h50.20.452,jersey_experiment_5_v3,2023.2.2,Win32,60.24096386,,,,,,,,,,,,,,,,286.8917,288.4413,288.4413,291.9243,return,0.7726,,61.59722222,0,27,27,11,1,FBP-YG-91.png,0.37,1.2,12,0.75,,,,,,,,,,,,,,,,,,,,,,,,,,,,,,,,,,,,,,,,,,,,,
,,,,,V3_005,19,Female,2024-10-13_18h50.20.452,jersey_experiment_5_v3,2023.2.2,Win32,60.24096386,,,,,,,,,,,,,,,,291.9248,293.4744,293.4745,296.0749,return,1.0178,,99.79166667,0,28,28,28,1,FBP-PT-19.png,0.43,1.2,29,0.75,,,,,,,,,,,,,,,,,,,,,,,,,,,,,,,,,,,,,,,,,,,,,
,,,,,V3_005,19,Female,2024-10-13_18h50.20.452,jersey_experiment_5_v3,2023.2.2,Win32,60.24096386,,,,,,,,,,,,,,,,296.0753,297.6246,297.6246,300.8242,return,0.9015,,37.43055556,0,29,29,15,1,FBP-PT-17.png,0.35,1.2,16,0.75,,,,,,,,,,,,,,,,,,,,,,,,,,,,,,,,,,,,,,,,,,,,,
,,,,,V3_005,19,Female,2024-10-13_18h50.20.452,jersey_experiment_5_v3,2023.2.2,Win32,60.24096386,,,,,,,,,,,,,,,,300.8245,302.3745,302.3745,305.1412,return,1.106,,99.72222222,0,30,30,23,1,FBP-PT-18.png,0.43,1.2,24,0.75,,,,,,,,,,,,,,,,,,,,,,,,,,,,,,,,,,,,,,,,,,,,,
,,,,,V3_005,19,Female,2024-10-13_18h50.20.452,jersey_experiment_5_v3,2023.2.2,Win32,60.24096386,,,,,,,,,,,,,,,,305.1417,306.4413,306.4414,308.0078,return,0.8524,,99.51388889,0,31,31,44,1,FBP-OG-19.png,0.45,1.2,45,0.5,,,,,,,,,,,,,,,,,,,,,,,,,,,,,,,,,,,,,,,,,,,,,
,,,,,V3_005,19,Female,2024-10-13_18h50.20.452,jersey_experiment_5_v3,2023.2.2,Win32,60.24096386,,,,,,,,,,,,,,,,308.0082,309.558,309.558,311.141,return,0.9719,,99.51388889,0,32,32,24,1,FBP-PT-18.png,0.45,1.2,25,0.75,,,,,,,,,,,,,,,,,,,,,,,,,,,,,,,,,,,,,,,,,,,,,
,,,,,V3_005,19,Female,2024-10-13_18h50.20.452,jersey_experiment_5_v3,2023.2.2,Win32,60.24096386,,,,,,,,,,,,,,,,311.1414,312.6911,312.6912,318.158,return,2.2834,,35.97222222,0,33,33,10,1,FBP-YG-91.png,0.35,1.2,11,0.75,,,,,,,,,,,,,,,,,,,,,,,,,,,,,,,,,,,,,,,,,,,,,
,,,,,V3_005,19,Female,2024-10-13_18h50.20.452,jersey_experiment_5_v3,2023.2.2,Win32,60.24096386,,,,,,,,,,,,,,,,318.1584,319.4578,319.458,321.6914,return,0.7854,,99.93055556,0,34,34,34,1,FBP-OG-17.png,0.45,1.2,35,0.5,,,,,,,,,,,,,,,,,,,,,,,,,,,,,,,,,,,,,,,,,,,,,
,,,,,V3_005,19,Female,2024-10-13_18h50.20.452,jersey_experiment_5_v3,2023.2.2,Win32,60.24096386,,,,,,,,,,,,,,,,321.6919,323.2415,323.2415,324.5749,return,0.7676,,99.93055556,0,35,35,47,1,FBP-RB-17.png,0.4,1.2,48,0.75,,,,,,,,,,,,,,,,,,,,,,,,,,,,,,,,,,,,,,,,,,,,,
,,,,,V3_005,19,Female,2024-10-13_18h50.20.452,jersey_experiment_5_v3,2023.2.2,Win32,60.24096386,,,,,,,,,,,,,,,,324.5754,326.1247,326.1248,329.5583,return,1.1221,,74.86111111,0,36,36,27,1,FBP-PT-19.png,0.4,1.2,28,0.75,,,,,,,,,,,,,,,,,,,,,,,,,,,,,,,,,,,,,,,,,,,,,
,,,,,V3_005,19,Female,2024-10-13_18h50.20.452,jersey_experiment_5_v3,2023.2.2,Win32,60.24096386,,,,,,,,,,,,,,,,329.5588,330.8582,330.8584,333.2415,return,1.0338,,99.86111111,0,37,37,39,1,FBP-OG-18.png,0.45,1.2,40,0.5,,,,,,,,,,,,,,,,,,,,,,,,,,,,,,,,,,,,,,,,,,,,,
,,,,,V3_005,19,Female,2024-10-13_18h50.20.452,jersey_experiment_5_v3,2023.2.2,Win32,60.24096386,,,,,,,,,,,,,,,,333.242,334.7918,334.7919,337.7082,return,0.9673,,37.77777778,0,38,38,56,1,FBP-RB-19.png,0.37,1.2,57,0.75,,,,,,,,,,,,,,,,,,,,,,,,,,,,,,,,,,,,,,,,,,,,,
,,,,,V3_005,19,Female,2024-10-13_18h50.20.452,jersey_experiment_5_v3,2023.2.2,Win32,60.24096386,,,,,,,,,,,,,,,,337.7089,339.2583,339.2583,344.6246,return,1.4263,,42.56944444,0,39,39,51,1,FBP-RB-18.png,0.37,1.2,52,0.75,,,,,,,,,,,,,,,,,,,,,,,,,,,,,,,,,,,,,,,,,,,,,
,,,,,V3_005,19,Female,2024-10-13_18h50.20.452,jersey_experiment_5_v3,2023.2.2,Win32,60.24096386,,,,,,,,,,,,,,,,344.6249,345.9247,345.9249,348.7415,return,0.9713,,87.01388889,0,40,40,43,1,FBP-OG-19.png,0.43,1.2,44,0.5,,,,,,,,,,,,,,,,,,,,,,,,,,,,,,,,,,,,,,,,,,,,,
,,,,,V3_005,19,Female,2024-10-13_18h50.20.452,jersey_experiment_5_v3,2023.2.2,Win32,60.24096386,,,,,,,,,,,,,,,,348.742,350.2913,350.2913,352.1747,return,0.1158,,74.86111111,0,41,41,17,1,FBP-PT-17.png,0.4,1.2,18,0.75,,,,,,,,,,,,,,,,,,,,,,,,,,,,,,,,,,,,,,,,,,,,,
,,,,,V3_005,19,Female,2024-10-13_18h50.20.452,jersey_experiment_5_v3,2023.2.2,Win32,60.24096386,,,,,,,,,,,,,,,,352.1752,353.4747,353.4747,355.7579,return,0.1847,,61.94444444,0,42,42,41,1,FBP-OG-19.png,0.37,1.2,42,0.5,,,,,,,,,,,,,,,,,,,,,,,,,,,,,,,,,,,,,,,,,,,,,
,,,,,V3_005,19,Female,2024-10-13_18h50.20.452,jersey_experiment_5_v3,2023.2.2,Win32,60.24096386,,,,,,,,,,,,,,,,355.7582,357.3083,357.3084,359.275,return,0.1842,,88.125,0,43,43,12,1,FBP-YG-91.png,0.4,1.2,13,0.75,,,,,,,,,,,,,,,,,,,,,,,,,,,,,,,,,,,,,,,,,,,,,
,,,,,V3_005,19,Female,2024-10-13_18h50.20.452,jersey_experiment_5_v3,2023.2.2,Win32,60.24096386,,,,,,,,,,,,,,,,359.2754,360.8251,360.8253,362.6081,return,0.1756,,37.91666667,0,44,44,55,1,FBP-RB-19.png,0.35,1.2,56,0.75,,,,,,,,,,,,,,,,,,,,,,,,,,,,,,,,,,,,,,,,,,,,,
,,,,,V3_005,19,Female,2024-10-13_18h50.20.452,jersey_experiment_5_v3,2023.2.2,Win32,60.24096386,,,,,,,,,,,,,,,,362.6086,364.1588,364.1589,367.4418,return,0.3427,,99.93055556,0,45,45,49,1,FBP-RB-17.png,0.45,1.2,50,0.75,,,,,,,,,,,,,,,,,,,,,,,,,,,,,,,,,,,,,,,,,,,,,
,,,,,V3_005,19,Female,2024-10-13_18h50.20.452,jersey_experiment_5_v3,2023.2.2,Win32,60.24096386,,,,,,,,,,,,,,,,367.4422,368.9918,368.9919,369.9087,return,0.3397,,99.23611111,0,46,46,18,1,FBP-PT-17.png,0.43,1.2,19,0.75,,,,,,,,,,,,,,,,,,,,,,,,,,,,,,,,,,,,,,,,,,,,,
,,,,,V3_005,19,Female,2024-10-13_18h50.20.452,jersey_experiment_5_v3,2023.2.2,Win32,60.24096386,,,,,,,,,,,,,,,,369.9091,371.4583,371.4584,372.8917,return,0.1847,,74.86111111,0,47,47,1,1,FBP-YG-71.png,0.37,1.2,2,0.75,,,,,,,,,,,,,,,,,,,,,,,,,,,,,,,,,,,,,,,,,,,,,
,,,,,V3_005,19,Female,2024-10-13_18h50.20.452,jersey_experiment_5_v3,2023.2.2,Win32,60.24096386,,,,,,,,,,,,,,,,372.8921,374.442,374.442,376.2581,return,0.2253,,87.56944444,0,48,48,57,1,FBP-RB-19.png,0.4,1.2,58,0.75,,,,,,,,,,,,,,,,,,,,,,,,,,,,,,,,,,,,,,,,,,,,,
,,,,,V3_005,19,Female,2024-10-13_18h50.20.452,jersey_experiment_5_v3,2023.2.2,Win32,60.24096386,,,,,,,,,,,,,,,,376.2583,377.8088,377.8088,380.0749,return,0.2534,,99.79166667,0,49,49,58,1,FBP-RB-19.png,0.43,1.2,59,0.75,,,,,,,,,,,,,,,,,,,,,,,,,,,,,,,,,,,,,,,,,,,,,
,,,,,V3_005,19,Female,2024-10-13_18h50.20.452,jersey_experiment_5_v3,2023.2.2,Win32,60.24096386,,,,,,,,,,,,,,,,380.0751,381.6251,381.6252,382.775,return,0.4751,,99.16666667,0,50,50,13,1,FBP-YG-91.png,0.43,1.2,14,0.75,,,,,,,,,,,,,,,,,,,,,,,,,,,,,,,,,,,,,,,,,,,,,
,,,,,V3_005,19,Female,2024-10-13_18h50.20.452,jersey_experiment_5_v3,2023.2.2,Win32,60.24096386,,,,,,,,,,,,,,,,382.7754,384.3249,384.325,386.6749,return,0.3945,,99.51388889,0,51,51,9,1,FBP-YG-81.png,0.45,1.2,10,0.75,,,,,,,,,,,,,,,,,,,,,,,,,,,,,,,,,,,,,,,,,,,,,
,,,,,V3_005,19,Female,2024-10-13_18h50.20.452,jersey_experiment_5_v3,2023.2.2,Win32,60.24096386,,,,,,,,,,,,,,,,386.6754,388.2251,388.2253,390.1917,return,0.1678,,61.45833333,0,52,52,6,1,FBP-YG-81.png,0.37,1.2,7,0.75,,,,,,,,,,,,,,,,,,,,,,,,,,,,,,,,,,,,,,,,,,,,,
,,,,,V3_005,19,Female,2024-10-13_18h50.20.452,jersey_experiment_5_v3,2023.2.2,Win32,60.24096386,,,,,,,,,,,,,,,,390.1922,391.4916,391.4917,393.1416,return,0.1221,,86.66666667,0,53,53,33,1,FBP-OG-17.png,0.43,1.2,34,0.5,,,,,,,,,,,,,,,,,,,,,,,,,,,,,,,,,,,,,,,,,,,,,
,,,,,V3_005,19,Female,2024-10-13_18h50.20.452,jersey_experiment_5_v3,2023.2.2,Win32,60.24096386,,,,,,,,,,,,,,,,393.142,394.6919,394.6919,395.9587,return,0.1555,,99.93055556,0,54,54,19,1,FBP-PT-17.png,0.45,1.2,20,0.75,,,,,,,,,,,,,,,,,,,,,,,,,,,,,,,,,,,,,,,,,,,,,
,,,,,V3_005,19,Female,2024-10-13_18h50.20.452,jersey_experiment_5_v3,2023.2.2,Win32,60.24096386,,,,,,,,,,,,,,,,395.9592,397.5083,397.5084,399.992,return,0.2702,,49.86111111,0,55,55,25,1,FBP-PT-19.png,0.35,1.2,26,0.75,,,,,,,,,,,,,,,,,,,,,,,,,,,,,,,,,,,,,,,,,,,,,
,,,,,V3_005,19,Female,2024-10-13_18h50.20.452,jersey_experiment_5_v3,2023.2.2,Win32,60.24096386,,,,,,,,,,,,,,,,399.9925,401.5417,401.5417,409.4756,return,1.6405,,99.93055556,0,56,56,54,1,FBP-RB-18.png,0.45,1.2,55,0.75,,,,,,,,,,,,,,,,,,,,,,,,,,,,,,,,,,,,,,,,,,,,,
,,,,,V3_005,19,Female,2024-10-13_18h50.20.452,jersey_experiment_5_v3,2023.2.2,Win32,60.24096386,,,,,,,,,,,,,,,,409.4761,411.0251,411.0251,411.7417,return,0.1823,,99.65277778,0,57,57,59,1,FBP-RB-19.png,0.45,1.2,60,0.75,,,,,,,,,,,,,,,,,,,,,,,,,,,,,,,,,,,,,,,,,,,,,
,,,,,V3_005,19,Female,2024-10-13_18h50.20.452,jersey_experiment_5_v3,2023.2.2,Win32,60.24096386,,,,,,,,,,,,,,,,411.7419,413.2919,413.292,414.8753,return,0.1324,,74.93055556,0,58,58,52,1,FBP-RB-18.png,0.4,1.2,53,0.75,,,,,,,,,,,,,,,,,,,,,,,,,,,,,,,,,,,,,,,,,,,,,
,,,,,V3_005,19,Female,2024-10-13_18h50.20.452,jersey_experiment_5_v3,2023.2.2,Win32,60.24096386,,,,,,,,,,,,,,,,414.8757,416.1753,416.1754,416.8418,return,0.0991,,74.93055556,0,59,59,32,1,FBP-OG-17.png,0.4,1.2,33,0.5,,,,,,,,,,,,,,,,,,,,,,,,,,,,,,,,,,,,,,,,,,,,,
,,,,,V3_005,19,Female,2024-10-13_18h50.20.452,jersey_experiment_5_v3,2023.2.2,Win32,60.24096386,,,,,,,,,,,,,,,,416.846,418.1419,418.142,418.842,return,0.1211,,74.93055556,,,,,,FBP-OG-91.png,0.4,1.2,43,0.5,0,0,0,42,1,,,,,,,,,,,,,,,,,,,,,,,,,,,,,,,,,,,,,,,,
,,,,,V3_005,19,Female,2024-10-13_18h50.20.452,jersey_experiment_5_v3,2023.2.2,Win32,60.24096386,,,,,,,,,,,,,,,,418.8425,420.3924,420.3924,422.5252,return,0.2329,,49.44444444,,,,,,FBP-PT-91.png,0.35,1.2,26,0.75,0,1,1,25,1,,,,,,,,,,,,,,,,,,,,,,,,,,,,,,,,,,,,,,,,
,,,,,V3_005,19,Female,2024-10-13_18h50.20.452,jersey_experiment_5_v3,2023.2.2,Win32,60.24096386,,,,,,,,,,,,,,,,422.5254,424.0762,424.0762,425.5092,return,0.3067,,99.79166667,,,,,,FBP-YG-17.png,0.45,1.2,5,0.75,0,2,2,4,1,,,,,,,,,,,,,,,,,,,,,,,,,,,,,,,,,,,,,,,,
,,,,,V3_005,19,Female,2024-10-13_18h50.20.452,jersey_experiment_5_v3,2023.2.2,Win32,60.24096386,,,,,,,,,,,,,,,,425.5096,427.0586,427.0586,427.7422,return,0.1684,,98.26388889,,,,,,FBP-YG-19.png,0.45,1.2,15,0.75,0,3,3,14,1,,,,,,,,,,,,,,,,,,,,,,,,,,,,,,,,,,,,,,,,
,,,,,V3_005,19,Female,2024-10-13_18h50.20.452,jersey_experiment_5_v3,2023.2.2,Win32,60.24096386,,,,,,,,,,,,,,,,427.7427,429.2921,429.2921,432.1919,return,0.0782,,87.08333333,,,,,,FBP-RB-71.png,0.4,1.2,48,0.75,0,4,4,47,1,,,,,,,,,,,,,,,,,,,,,,,,,,,,,,,,,,,,,,,,
,,,,,V3_005,19,Female,2024-10-13_18h50.20.452,jersey_experiment_5_v3,2023.2.2,Win32,60.24096386,,,,,,,,,,,,,,,,432.1921,433.4919,433.4919,435.9424,return,0.2375,,45.34722222,,,,,,FBP-OG-91.png,0.37,1.2,42,0.5,0,5,5,41,1,,,,,,,,,,,,,,,,,,,,,,,,,,,,,,,,,,,,,,,,
,,,,,V3_005,19,Female,2024-10-13_18h50.20.452,jersey_experiment_5_v3,2023.2.2,Win32,60.24096386,,,,,,,,,,,,,,,,435.9427,437.4922,437.4923,439.3755,return,0.3023,,49.51388889,,,,,,FBP-PT-91.png,0.4,1.2,28,0.75,0,6,6,27,1,,,,,,,,,,,,,,,,,,,,,,,,,,,,,,,,,,,,,,,,
,,,,,V3_005,19,Female,2024-10-13_18h50.20.452,jersey_experiment_5_v3,2023.2.2,Win32,60.24096386,,,,,,,,,,,,,,,,439.3757,440.9256,440.9257,443.5921,return,0.2036,,95.625,,,,,,FBP-PT-71.png,0.45,1.2,20,0.75,0,7,7,19,1,,,,,,,,,,,,,,,,,,,,,,,,,,,,,,,,,,,,,,,,
,,,,,V3_005,19,Female,2024-10-13_18h50.20.452,jersey_experiment_5_v3,2023.2.2,Win32,60.24096386,,,,,,,,,,,,,,,,443.5927,445.1422,445.1424,445.9586,return,0.2023,,92.98611111,,,,,,FBP-RB-81.png,0.43,1.2,54,0.75,0,8,8,53,1,,,,,,,,,,,,,,,,,,,,,,,,,,,,,,,,,,,,,,,,
,,,,,V3_005,19,Female,2024-10-13_18h50.20.452,jersey_experiment_5_v3,2023.2.2,Win32,60.24096386,,,,,,,,,,,,,,,,445.9589,447.5092,447.5093,449.8589,return,0.1244,,61.80555556,,,,,,FBP-RB-71.png,0.37,1.2,47,0.75,0,9,9,46,1,,,,,,,,,,,,,,,,,,,,,,,,,,,,,,,,,,,,,,,,
,,,,,V3_005,19,Female,2024-10-13_18h50.20.452,jersey_experiment_5_v3,2023.2.2,Win32,60.24096386,,,,,,,,,,,,,,,,449.8592,451.4089,451.409,451.9756,return,0.0696,,61.875,,,,,,FBP-RB-81.png,0.37,1.2,52,0.75,0,10,10,51,1,,,,,,,,,,,,,,,,,,,,,,,,,,,,,,,,,,,,,,,,
,,,,,V3_005,19,Female,2024-10-13_18h50.20.452,jersey_experiment_5_v3,2023.2.2,Win32,60.24096386,,,,,,,,,,,,,,,,451.9761,453.2756,453.2756,454.8259,return,0.0858,,75,,,,,,FBP-OG-91.png,0.43,1.2,44,0.5,0,11,11,43,1,,,,,,,,,,,,,,,,,,,,,,,,,,,,,,,,,,,,,,,,
,,,,,V3_005,19,Female,2024-10-13_18h50.20.452,jersey_experiment_5_v3,2023.2.2,Win32,60.24096386,,,,,,,,,,,,,,,,454.8263,456.3756,456.3757,457.709,return,0.0845,,87.91666667,,,,,,FBP-PT-91.png,0.43,1.2,29,0.75,0,12,12,28,1,,,,,,,,,,,,,,,,,,,,,,,,,,,,,,,,,,,,,,,,
,,,,,V3_005,19,Female,2024-10-13_18h50.20.452,jersey_experiment_5_v3,2023.2.2,Win32,60.24096386,,,,,,,,,,,,,,,,457.7093,459.2589,459.2589,460.4424,return,0.0847,,60.20833333,,,,,,FBP-YG-18.png,0.35,1.2,6,0.75,0,13,13,5,1,,,,,,,,,,,,,,,,,,,,,,,,,,,,,,,,,,,,,,,,
,,,,,V3_005,19,Female,2024-10-13_18h50.20.452,jersey_experiment_5_v3,2023.2.2,Win32,60.24096386,,,,,,,,,,,,,,,,460.4426,461.9927,461.9928,463.2924,return,0.2005,,97.08333333,,,,,,FBP-RB-91.png,0.43,1.2,59,0.75,0,14,14,58,1,,,,,,,,,,,,,,,,,,,,,,,,,,,,,,,,,,,,,,,,
,,,,,V3_005,19,Female,2024-10-13_18h50.20.452,jersey_experiment_5_v3,2023.2.2,Win32,60.24096386,,,,,,,,,,,,,,,,463.2927,464.8427,464.8428,466.2258,return,0.308,,95.69444444,,,,,,FBP-YG-18.png,0.43,1.2,9,0.75,0,15,15,8,1,,,,,,,,,,,,,,,,,,,,,,,,,,,,,,,,,,,,,,,,
,,,,,V3_005,19,Female,2024-10-13_18h50.20.452,jersey_experiment_5_v3,2023.2.2,Win32,60.24096386,,,,,,,,,,,,,,,,466.2262,467.7758,467.7759,469.3923,return,0.227,,79.51388889,,,,,,FBP-YG-18.png,0.4,1.2,8,0.75,0,16,16,7,1,,,,,,,,,,,,,,,,,,,,,,,,,,,,,,,,,,,,,,,,
,,,,,V3_005,19,Female,2024-10-13_18h50.20.452,jersey_experiment_5_v3,2023.2.2,Win32,60.24096386,,,,,,,,,,,,,,,,469.3929,470.6925,470.6925,471.3091,return,0.1022,,79.65277778,,,,,,FBP-OG-81.png,0.37,1.2,37,0.5,0,17,17,36,1,,,,,,,,,,,,,,,,,,,,,,,,,,,,,,,,,,,,,,,,
,,,,,V3_005,19,Female,2024-10-13_18h50.20.452,jersey_experiment_5_v3,2023.2.2,Win32,60.24096386,,,,,,,,,,,,,,,,471.3096,472.8589,472.859,475.4589,return,0.1069,,71.11111111,,,,,,FBP-RB-81.png,0.35,1.2,51,0.75,0,18,18,50,1,,,,,,,,,,,,,,,,,,,,,,,,,,,,,,,,,,,,,,,,
,,,,,V3_005,19,Female,2024-10-13_18h50.20.452,jersey_experiment_5_v3,2023.2.2,Win32,60.24096386,,,,,,,,,,,,,,,,475.4593,477.0091,477.0093,478.2761,return,0.1075,,99.65277778,,,,,,FBP-RB-71.png,0.43,1.2,49,0.75,0,19,19,48,1,,,,,,,,,,,,,,,,,,,,,,,,,,,,,,,,,,,,,,,,
,,,,,V3_005,19,Female,2024-10-13_18h50.20.452,jersey_experiment_5_v3,2023.2.2,Win32,60.24096386,,,,,,,,,,,,,,,,478.2768,479.8257,479.8258,481.6756,return,0.2017,,74.30555556,,,,,,FBP-YG-18.png,0.37,1.2,7,0.75,0,20,20,6,1,,,,,,,,,,,,,,,,,,,,,,,,,,,,,,,,,,,,,,,,
,,,,,V3_005,19,Female,2024-10-13_18h50.20.452,jersey_experiment_5_v3,2023.2.2,Win32,60.24096386,,,,,,,,,,,,,,,,481.676,483.2255,483.2256,485.0256,return,0.1097,,49.93055556,,,,,,FBP-PT-71.png,0.35,1.2,16,0.75,0,21,21,15,1,,,,,,,,,,,,,,,,,,,,,,,,,,,,,,,,,,,,,,,,
,,,,,V3_005,19,Female,2024-10-13_18h50.20.452,jersey_experiment_5_v3,2023.2.2,Win32,60.24096386,,,,,,,,,,,,,,,,485.026,486.5762,486.5762,488.0924,return,0.2009,,50,,,,,,FBP-PT-81.png,0.35,1.2,21,0.75,0,22,22,20,1,,,,,,,,,,,,,,,,,,,,,,,,,,,,,,,,,,,,,,,,
,,,,,V3_005,19,Female,2024-10-13_18h50.20.452,jersey_experiment_5_v3,2023.2.2,Win32,60.24096386,,,,,,,,,,,,,,,,488.0928,489.3926,489.3926,491.9259,return,0.2044,,89.65277778,,,,,,FBP-OG-71.png,0.45,1.2,35,0.5,0,23,23,34,1,,,,,,,,,,,,,,,,,,,,,,,,,,,,,,,,,,,,,,,,
,,,,,V3_005,19,Female,2024-10-13_18h50.20.452,jersey_experiment_5_v3,2023.2.2,Win32,60.24096386,,,,,,,,,,,,,,,,491.9263,493.2269,493.227,494.6925,return,0.1727,,96.52777778,,,,,,FBP-OG-91.png,0.45,1.2,45,0.5,0,24,24,44,1,,,,,,,,,,,,,,,,,,,,,,,,,,,,,,,,,,,,,,,,
,,,,,V3_005,19,Female,2024-10-13_18h50.20.452,jersey_experiment_5_v3,2023.2.2,Win32,60.24096386,,,,,,,,,,,,,,,,494.6927,496.2426,496.2427,498.9596,return,2.2503,,99.23611111,,,,,,FBP-RB-91.png,0.45,1.2,60,0.75,0,25,25,59,1,,,,,,,,,,,,,,,,,,,,,,,,,,,,,,,,,,,,,,,,
,,,,,V3_005,19,Female,2024-10-13_18h50.20.452,jersey_experiment_5_v3,2023.2.2,Win32,60.24096386,,,,,,,,,,,,,,,,498.9601,500.2592,500.2593,501.6423,return,0.1346,,74.93055556,,,,,,FBP-OG-81.png,0.4,1.2,38,0.5,0,26,26,37,1,,,,,,,,,,,,,,,,,,,,,,,,,,,,,,,,,,,,,,,,
,,,,,V3_005,19,Female,2024-10-13_18h50.20.452,jersey_experiment_5_v3,2023.2.2,Win32,60.24096386,,,,,,,,,,,,,,,,501.6427,503.1926,503.1926,504.4264,return,0.2348,,93.33333333,,,,,,FBP-PT-81.png,0.45,1.2,25,0.75,0,27,27,24,1,,,,,,,,,,,,,,,,,,,,,,,,,,,,,,,,,,,,,,,,
,,,,,V3_005,19,Female,2024-10-13_18h50.20.452,jersey_experiment_5_v3,2023.2.2,Win32,60.24096386,,,,,,,,,,,,,,,,504.4268,505.9761,505.9761,507.4591,return,0.1403,,75,,,,,,FBP-RB-81.png,0.4,1.2,53,0.75,0,28,28,52,1,,,,,,,,,,,,,,,,,,,,,,,,,,,,,,,,,,,,,,,,
,,,,,V3_005,19,Female,2024-10-13_18h50.20.452,jersey_experiment_5_v3,2023.2.2,Win32,60.24096386,,,,,,,,,,,,,,,,507.4594,508.7595,508.7595,510.0425,return,0.1336,,94.65277778,,,,,,FBP-OG-81.png,0.45,1.2,40,0.5,0,29,29,39,1,,,,,,,,,,,,,,,,,,,,,,,,,,,,,,,,,,,,,,,,
,,,,,V3_005,19,Female,2024-10-13_18h50.20.452,jersey_experiment_5_v3,2023.2.2,Win32,60.24096386,,,,,,,,,,,,,,,,510.0428,511.5926,511.5926,512.4263,return,0.4011,,93.88888889,,,,,,FBP-YG-17.png,0.43,1.2,4,0.75,0,30,30,3,1,,,,,,,,,,,,,,,,,,,,,,,,,,,,,,,,,,,,,,,,
,,,,,V3_005,19,Female,2024-10-13_18h50.20.452,jersey_experiment_5_v3,2023.2.2,Win32,60.24096386,,,,,,,,,,,,,,,,512.4268,513.976,513.9761,514.526,return,0.0529,,93.88888889,,,,,,FBP-YG-17.png,0.4,1.2,3,0.75,0,31,31,2,1,,,,,,,,,,,,,,,,,,,,,,,,,,,,,,,,,,,,,,,,
,,,,,V3_005,19,Female,2024-10-13_18h50.20.452,jersey_experiment_5_v3,2023.2.2,Win32,60.24096386,,,,,,,,,,,,,,,,514.5264,516.0761,516.0762,516.8592,return,0.2011,,63.81944444,,,,,,FBP-YG-19.png,0.35,1.2,11,0.75,0,32,32,10,1,,,,,,,,,,,,,,,,,,,,,,,,,,,,,,,,,,,,,,,,
,,,,,V3_005,19,Female,2024-10-13_18h50.20.452,jersey_experiment_5_v3,2023.2.2,Win32,60.24096386,,,,,,,,,,,,,,,,516.8598,518.4094,518.4095,519.7098,return,0.1829,,71.04166667,,,,,,FBP-PT-81.png,0.37,1.2,22,0.75,0,33,33,21,1,,,,,,,,,,,,,,,,,,,,,,,,,,,,,,,,,,,,,,,,
,,,,,V3_005,19,Female,2024-10-13_18h50.20.452,jersey_experiment_5_v3,2023.2.2,Win32,60.24096386,,,,,,,,,,,,,,,,519.7104,521.2596,521.2597,521.7761,return,0.0771,,70.34722222,,,,,,FBP-YG-19.png,0.37,1.2,12,0.75,0,34,34,11,1,,,,,,,,,,,,,,,,,,,,,,,,,,,,,,,,,,,,,,,,
,,,,,V3_005,19,Female,2024-10-13_18h50.20.452,jersey_experiment_5_v3,2023.2.2,Win32,60.24096386,,,,,,,,,,,,,,,,521.7764,523.326,523.326,524.1098,return,0.0663,,70.34722222,,,,,,FBP-PT-81.png,0.4,1.2,23,0.75,0,35,35,22,1,,,,,,,,,,,,,,,,,,,,,,,,,,,,,,,,,,,,,,,,
,,,,,V3_005,19,Female,2024-10-13_18h50.20.452,jersey_experiment_5_v3,2023.2.2,Win32,60.24096386,,,,,,,,,,,,,,,,524.1102,525.6593,525.6593,527.3758,return,0.1771,,74.02777778,,,,,,FBP-YG-17.png,0.35,1.2,1,0.75,0,36,36,0,1,,,,,,,,,,,,,,,,,,,,,,,,,,,,,,,,,,,,,,,,
,,,,,V3_005,19,Female,2024-10-13_18h50.20.452,jersey_experiment_5_v3,2023.2.2,Win32,60.24096386,,,,,,,,,,,,,,,,527.3759,528.6762,528.6762,530.876,return,1.3169,,99.93055556,,,,,,FBP-OG-81.png,0.43,1.2,39,0.5,0,37,37,38,1,,,,,,,,,,,,,,,,,,,,,,,,,,,,,,,,,,,,,,,,
,,,,,V3_005,19,Female,2024-10-13_18h50.20.452,jersey_experiment_5_v3,2023.2.2,Win32,60.24096386,,,,,,,,,,,,,,,,530.8764,532.4266,532.4267,534.0926,return,0.0833,,62.84722222,,,,,,FBP-RB-71.png,0.35,1.2,46,0.75,0,38,38,45,1,,,,,,,,,,,,,,,,,,,,,,,,,,,,,,,,,,,,,,,,
,,,,,V3_005,19,Female,2024-10-13_18h50.20.452,jersey_experiment_5_v3,2023.2.2,Win32,60.24096386,,,,,,,,,,,,,,,,534.0929,535.6426,535.6426,536.326,return,0.2221,,62.84722222,,,,,,FBP-PT-91.png,0.37,1.2,27,0.75,0,39,39,26,1,,,,,,,,,,,,,,,,,,,,,,,,,,,,,,,,,,,,,,,,
,,,,,V3_005,19,Female,2024-10-13_18h50.20.452,jersey_experiment_5_v3,2023.2.2,Win32,60.24096386,,,,,,,,,,,,,,,,536.3264,537.8761,537.8761,539.1427,return,0.0871,,75,,,,,,FBP-YG-19.png,0.4,1.2,13,0.75,0,40,40,12,1,,,,,,,,,,,,,,,,,,,,,,,,,,,,,,,,,,,,,,,,
,,,,,V3_005,19,Female,2024-10-13_18h50.20.452,jersey_experiment_5_v3,2023.2.2,Win32,60.24096386,,,,,,,,,,,,,,,,539.143,540.4428,540.4429,541.7927,return,0.144,,63.26388889,,,,,,FBP-OG-71.png,0.35,1.2,31,0.5,0,41,41,30,1,,,,,,,,,,,,,,,,,,,,,,,,,,,,,,,,,,,,,,,,
,,,,,V3_005,19,Female,2024-10-13_18h50.20.452,jersey_experiment_5_v3,2023.2.2,Win32,60.24096386,,,,,,,,,,,,,,,,541.7929,543.3428,543.3429,544.0593,return,0.3329,,63.47222222,,,,,,FBP-PT-71.png,0.37,1.2,17,0.75,0,42,42,16,1,,,,,,,,,,,,,,,,,,,,,,,,,,,,,,,,,,,,,,,,
,,,,,V3_005,19,Female,2024-10-13_18h50.20.452,jersey_experiment_5_v3,2023.2.2,Win32,60.24096386,,,,,,,,,,,,,,,,544.0595,545.6095,545.6096,546.9263,return,0.1014,,75,,,,,,FBP-RB-91.png,0.37,1.2,57,0.75,0,43,43,56,1,,,,,,,,,,,,,,,,,,,,,,,,,,,,,,,,,,,,,,,,
,,,,,V3_005,19,Female,2024-10-13_18h50.20.452,jersey_experiment_5_v3,2023.2.2,Win32,60.24096386,,,,,,,,,,,,,,,,546.9268,548.2265,548.2267,548.8595,return,0.167,,74.16666667,,,,,,FBP-OG-71.png,0.37,1.2,32,0.5,0,44,44,31,1,,,,,,,,,,,,,,,,,,,,,,,,,,,,,,,,,,,,,,,,
,,,,,V3_005,19,Female,2024-10-13_18h50.20.452,jersey_experiment_5_v3,2023.2.2,Win32,60.24096386,,,,,,,,,,,,,,,,548.8598,550.4096,550.4096,552.0266,return,0.3347,,99.58333333,,,,,,FBP-RB-71.png,0.45,1.2,50,0.75,0,45,45,49,1,,,,,,,,,,,,,,,,,,,,,,,,,,,,,,,,,,,,,,,,
,,,,,V3_005,19,Female,2024-10-13_18h50.20.452,jersey_experiment_5_v3,2023.2.2,Win32,60.24096386,,,,,,,,,,,,,,,,552.0269,553.5762,553.5762,554.1428,return,0.1334,,98.75,,,,,,FBP-PT-71.png,0.43,1.2,19,0.75,0,46,46,18,1,,,,,,,,,,,,,,,,,,,,,,,,,,,,,,,,,,,,,,,,
,,,,,V3_005,19,Female,2024-10-13_18h50.20.452,jersey_experiment_5_v3,2023.2.2,Win32,60.24096386,,,,,,,,,,,,,,,,554.1432,555.6929,555.6931,557.0427,return,0.1422,,50.06944444,,,,,,FBP-RB-91.png,0.35,1.2,56,0.75,0,47,47,55,1,,,,,,,,,,,,,,,,,,,,,,,,,,,,,,,,,,,,,,,,
,,,,,V3_005,19,Female,2024-10-13_18h50.20.452,jersey_experiment_5_v3,2023.2.2,Win32,60.24096386,,,,,,,,,,,,,,,,557.0431,558.3427,558.3427,559.9102,return,0.1229,,85.55555556,,,,,,FBP-OG-71.png,0.43,1.2,34,0.5,0,48,48,33,1,,,,,,,,,,,,,,,,,,,,,,,,,,,,,,,,,,,,,,,,
,,,,,V3_005,19,Female,2024-10-13_18h50.20.452,jersey_experiment_5_v3,2023.2.2,Win32,60.24096386,,,,,,,,,,,,,,,,559.9108,561.4595,561.4597,563.3599,return,0.1681,,74.72222222,,,,,,FBP-YG-17.png,0.37,1.2,2,0.75,0,49,49,1,1,,,,,,,,,,,,,,,,,,,,,,,,,,,,,,,,,,,,,,,,
,,,,,V3_005,19,Female,2024-10-13_18h50.20.452,jersey_experiment_5_v3,2023.2.2,Win32,60.24096386,,,,,,,,,,,,,,,,563.3605,564.6596,564.6596,566.3765,return,0.1527,,50.13888889,,,,,,FBP-OG-81.png,0.35,1.2,36,0.5,0,50,50,35,1,,,,,,,,,,,,,,,,,,,,,,,,,,,,,,,,,,,,,,,,
,,,,,V3_005,19,Female,2024-10-13_18h50.20.452,jersey_experiment_5_v3,2023.2.2,Win32,60.24096386,,,,,,,,,,,,,,,,566.3769,567.9265,567.9266,569.7761,return,0.227,,99.86111111,,,,,,FBP-YG-18.png,0.45,1.2,10,0.75,0,51,51,9,1,,,,,,,,,,,,,,,,,,,,,,,,,,,,,,,,,,,,,,,,
,,,,,V3_005,19,Female,2024-10-13_18h50.20.452,jersey_experiment_5_v3,2023.2.2,Win32,60.24096386,,,,,,,,,,,,,,,,569.7763,571.3266,571.3266,574.2265,return,2.4581,,100,,,,,,FBP-RB-81.png,0.45,1.2,55,0.75,0,52,52,54,1,,,,,,,,,,,,,,,,,,,,,,,,,,,,,,,,,,,,,,,,
,,,,,V3_005,19,Female,2024-10-13_18h50.20.452,jersey_experiment_5_v3,2023.2.2,Win32,60.24096386,,,,,,,,,,,,,,,,574.227,575.5265,575.5265,578.0929,return,0.2339,,49.65277778,,,,,,FBP-OG-91.png,0.35,1.2,41,0.5,0,53,53,40,1,,,,,,,,,,,,,,,,,,,,,,,,,,,,,,,,,,,,,,,,
,,,,,V3_005,19,Female,2024-10-13_18h50.20.452,jersey_experiment_5_v3,2023.2.2,Win32,60.24096386,,,,,,,,,,,,,,,,578.0932,579.6433,579.6433,581.3763,return,0.194,,87.56944444,,,,,,FBP-RB-91.png,0.4,1.2,58,0.75,0,54,54,57,1,,,,,,,,,,,,,,,,,,,,,,,,,,,,,,,,,,,,,,,,
,,,,,V3_005,19,Female,2024-10-13_18h50.20.452,jersey_experiment_5_v3,2023.2.2,Win32,60.24096386,,,,,,,,,,,,,,,,581.3766,582.9264,582.9265,583.6764,return,0.2515,,86.66666667,,,,,,FBP-PT-71.png,0.4,1.2,18,0.75,0,55,55,17,1,,,,,,,,,,,,,,,,,,,,,,,,,,,,,,,,,,,,,,,,
,,,,,V3_005,19,Female,2024-10-13_18h50.20.452,jersey_experiment_5_v3,2023.2.2,Win32,60.24096386,,,,,,,,,,,,,,,,583.6767,585.2268,585.2268,588.0096,return,0.3336,,99.30555556,,,,,,FBP-PT-81.png,0.43,1.2,24,0.75,0,56,56,23,1,,,,,,,,,,,,,,,,,,,,,,,,,,,,,,,,,,,,,,,,
,,,,,V3_005,19,Female,2024-10-13_18h50.20.452,jersey_experiment_5_v3,2023.2.2,Win32,60.24096386,,,,,,,,,,,,,,,,588.0099,589.3103,589.3105,591.4933,return,0.2215,,88.75,,,,,,FBP-OG-71.png,0.4,1.2,33,0.5,0,57,57,32,1,,,,,,,,,,,,,,,,,,,,,,,,,,,,,,,,,,,,,,,,
,,,,,V3_005,19,Female,2024-10-13_18h50.20.452,jersey_experiment_5_v3,2023.2.2,Win32,60.24096386,,,,,,,,,,,,,,,,591.4936,593.0434,593.0434,594.2267,return,0.1586,,99.93055556,,,,,,FBP-PT-91.png,0.45,1.2,30,0.75,0,58,58,29,1,,,,,,,,,,,,,,,,,,,,,,,,,,,,,,,,,,,,,,,,
,,,,,V3_005,19,Female,2024-10-13_18h50.20.452,jersey_experiment_5_v3,2023.2.2,Win32,60.24096386,,,,,,,,,,,,,,,,594.2272,595.7767,595.7767,596.4267,return,0.1676,,99.93055556,,,,,,FBP-YG-19.png,0.43,1.2,14,0.75,0,59,59,13,1,,,,,,,,,,,,,,,,,,,,,,,,,,,,,,,,,,,,,,,,
,,,,,V3_005,19,Female,2024-10-13_18h50.20.452,jersey_experiment_5_v3,2023.2.2,Win32,60.24096386,,,,,,,,,,,,,,,,,,,,,,,,,,,,,,,,,,,,,,,596.4277,716.4278,,,,,,,,,,,,,,,,,,,,,,,,,,,,,,,,,,,,,,
,,,,,V3_005,19,Female,2024-10-13_18h50.20.452,jersey_experiment_5_v3,2023.2.2,Win32,60.24096386,,,,,,,,,,,,,,,,,,,,,,,,,,,,,,,,,,,,,,,,,716.4279,748.9278,return,32.4802,,,,,,,,,,,,,,,,,,,,,,,,,,,,,,,,,,
,,,,,V3_005,19,Female,2024-10-13_18h50.20.452,jersey_experiment_5_v3,2023.2.2,Win32,60.24096386,,,,,,,,,,,,,,,,748.9382,750.2275,750.2276,754.6776,return,1.0715,,86.31944444,,,,,,FBP-PT-17.png,0.43,1.2,19,0.5,,,,,,,,,,,,,0,0,0,18,1,,,,,,,,,,,,,,,,,,,,,,,,,,,,
,,,,,V3_005,19,Female,2024-10-13_18h50.20.452,jersey_experiment_5_v3,2023.2.2,Win32,60.24096386,,,,,,,,,,,,,,,,754.6779,755.9777,755.978,757.5775,return,0.1511,,75.34722222,,,,,,FBP-PT-19.png,0.4,1.2,28,0.5,,,,,,,,,,,,,0,1,1,27,1,,,,,,,,,,,,,,,,,,,,,,,,,,,,
,,,,,V3_005,19,Female,2024-10-13_18h50.20.452,jersey_experiment_5_v3,2023.2.2,Win32,60.24096386,,,,,,,,,,,,,,,,757.5779,758.8775,758.8775,760.7442,return,0.118,,89.58333333,,,,,,FBP-YG-91.png,0.45,1.2,15,0.5,,,,,,,,,,,,,0,2,2,14,1,,,,,,,,,,,,,,,,,,,,,,,,,,,,
,,,,,V3_005,19,Female,2024-10-13_18h50.20.452,jersey_experiment_5_v3,2023.2.2,Win32,60.24096386,,,,,,,,,,,,,,,,760.7445,762.2946,762.2947,763.3444,return,0.1612,,98.75,,,,,,FBP-OG-17.png,0.45,1.2,35,0.75,,,,,,,,,,,,,0,3,3,34,1,,,,,,,,,,,,,,,,,,,,,,,,,,,,
,,,,,V3_005,19,Female,2024-10-13_18h50.20.452,jersey_experiment_5_v3,2023.2.2,Win32,60.24096386,,,,,,,,,,,,,,,,763.3447,764.8944,764.8945,767.328,return,0.1657,,35,,,,,,FBP-OG-17.png,0.35,1.2,31,0.75,,,,,,,,,,,,,0,4,4,30,1,,,,,,,,,,,,,,,,,,,,,,,,,,,,
,,,,,V3_005,19,Female,2024-10-13_18h50.20.452,jersey_experiment_5_v3,2023.2.2,Win32,60.24096386,,,,,,,,,,,,,,,,767.3284,768.6276,768.6276,770.1276,return,0.1188,,74.58333333,,,,,,FBP-PT-18.png,0.43,1.2,24,0.5,,,,,,,,,,,,,0,5,5,23,1,,,,,,,,,,,,,,,,,,,,,,,,,,,,
,,,,,V3_005,19,Female,2024-10-13_18h50.20.452,jersey_experiment_5_v3,2023.2.2,Win32,60.24096386,,,,,,,,,,,,,,,,770.1281,771.4276,771.4277,772.1115,return,0.1493,,74.09722222,,,,,,FBP-PT-18.png,0.45,1.2,25,0.5,,,,,,,,,,,,,0,6,6,24,1,,,,,,,,,,,,,,,,,,,,,,,,,,,,
,,,,,V3_005,19,Female,2024-10-13_18h50.20.452,jersey_experiment_5_v3,2023.2.2,Win32,60.24096386,,,,,,,,,,,,,,,,772.1119,773.4109,773.4109,774.5277,return,0.1505,,94.79166667,,,,,,FBP-RB-18.png,0.45,1.2,55,0.5,,,,,,,,,,,,,0,7,7,54,1,,,,,,,,,,,,,,,,,,,,,,,,,,,,
,,,,,V3_005,19,Female,2024-10-13_18h50.20.452,jersey_experiment_5_v3,2023.2.2,Win32,60.24096386,,,,,,,,,,,,,,,,774.5281,776.078,776.0781,777.5775,return,0.1008,,24.44444444,,,,,,FBP-OG-18.png,0.35,1.2,36,0.75,,,,,,,,,,,,,0,8,8,35,1,,,,,,,,,,,,,,,,,,,,,,,,,,,,
,,,,,V3_005,19,Female,2024-10-13_18h50.20.452,jersey_experiment_5_v3,2023.2.2,Win32,60.24096386,,,,,,,,,,,,,,,,777.5779,778.8778,778.8779,780.178,return,0.2585,,35.34722222,,,,,,FBP-YG-71.png,0.37,1.2,2,0.5,,,,,,,,,,,,,0,9,9,1,1,,,,,,,,,,,,,,,,,,,,,,,,,,,,
,,,,,V3_005,19,Female,2024-10-13_18h50.20.452,jersey_experiment_5_v3,2023.2.2,Win32,60.24096386,,,,,,,,,,,,,,,,780.1782,781.7275,781.7276,783.6617,return,0.5003,,93.75,,,,,,FBP-OG-17.png,0.43,1.2,34,0.75,,,,,,,,,,,,,0,10,10,33,1,,,,,,,,,,,,,,,,,,,,,,,,,,,,
,,,,,V3_005,19,Female,2024-10-13_18h50.20.452,jersey_experiment_5_v3,2023.2.2,Win32,60.24096386,,,,,,,,,,,,,,,,783.662,784.9613,784.9614,787.0277,return,0.0727,,49.79166667,,,,,,FBP-YG-91.png,0.37,1.2,12,0.5,,,,,,,,,,,,,0,11,11,11,1,,,,,,,,,,,,,,,,,,,,,,,,,,,,
,,,,,V3_005,19,Female,2024-10-13_18h50.20.452,jersey_experiment_5_v3,2023.2.2,Win32,60.24096386,,,,,,,,,,,,,,,,787.0281,788.3277,788.3277,788.8779,return,0.1343,,49.86111111,,,,,,FBP-YG-81.png,0.35,1.2,6,0.5,,,,,,,,,,,,,0,12,12,5,1,,,,,,,,,,,,,,,,,,,,,,,,,,,,
,,,,,V3_005,19,Female,2024-10-13_18h50.20.452,jersey_experiment_5_v3,2023.2.2,Win32,60.24096386,,,,,,,,,,,,,,,,788.8782,790.428,790.428,791.2612,return,0.1795,,49.23611111,,,,,,FBP-OG-19.png,0.37,1.2,42,0.75,,,,,,,,,,,,,0,13,13,41,1,,,,,,,,,,,,,,,,,,,,,,,,,,,,
,,,,,V3_005,19,Female,2024-10-13_18h50.20.452,jersey_experiment_5_v3,2023.2.2,Win32,60.24096386,,,,,,,,,,,,,,,,791.2616,792.5616,792.5617,794.3776,return,0.2829,,44.65277778,,,,,,FBP-RB-19.png,0.35,1.2,56,0.5,,,,,,,,,,,,,0,14,14,55,1,,,,,,,,,,,,,,,,,,,,,,,,,,,,
,,,,,V3_005,19,Female,2024-10-13_18h50.20.452,jersey_experiment_5_v3,2023.2.2,Win32,60.24096386,,,,,,,,,,,,,,,,794.3779,795.6778,795.6779,797.1947,return,0.0552,,99.09722222,,,,,,FBP-PT-19.png,0.43,1.2,29,0.5,,,,,,,,,,,,,0,15,15,28,1,,,,,,,,,,,,,,,,,,,,,,,,,,,,
,,,,,V3_005,19,Female,2024-10-13_18h50.20.452,jersey_experiment_5_v3,2023.2.2,Win32,60.24096386,,,,,,,,,,,,,,,,797.1953,798.4944,798.4944,799.8111,return,0.0904,,99.79166667,,,,,,FBP-RB-19.png,0.45,1.2,60,0.5,,,,,,,,,,,,,0,16,16,59,1,,,,,,,,,,,,,,,,,,,,,,,,,,,,
,,,,,V3_005,19,Female,2024-10-13_18h50.20.452,jersey_experiment_5_v3,2023.2.2,Win32,60.24096386,,,,,,,,,,,,,,,,799.8114,801.3614,801.3616,801.9612,return,0.1516,,99.72222222,,,,,,FBP-OG-19.png,0.45,1.2,45,0.75,,,,,,,,,,,,,0,17,17,44,1,,,,,,,,,,,,,,,,,,,,,,,,,,,,
,,,,,V3_005,19,Female,2024-10-13_18h50.20.452,jersey_experiment_5_v3,2023.2.2,Win32,60.24096386,,,,,,,,,,,,,,,,801.9617,803.5117,803.5118,805.0444,return,0.1886,,62.77777778,,,,,,FBP-OG-17.png,0.37,1.2,32,0.75,,,,,,,,,,,,,0,18,18,31,1,,,,,,,,,,,,,,,,,,,,,,,,,,,,
,,,,,V3_005,19,Female,2024-10-13_18h50.20.452,jersey_experiment_5_v3,2023.2.2,Win32,60.24096386,,,,,,,,,,,,,,,,805.0447,806.3444,806.3445,807.712,return,0.0838,,99.79166667,,,,,,FBP-YG-81.png,0.45,1.2,10,0.5,,,,,,,,,,,,,0,19,19,9,1,,,,,,,,,,,,,,,,,,,,,,,,,,,,
,,,,,V3_005,19,Female,2024-10-13_18h50.20.452,jersey_experiment_5_v3,2023.2.2,Win32,60.24096386,,,,,,,,,,,,,,,,807.7125,809.2611,809.2612,810.362,return,0.1356,,75.06944444,,,,,,FBP-OG-19.png,0.43,1.2,44,0.75,,,,,,,,,,,,,0,20,20,43,1,,,,,,,,,,,,,,,,,,,,,,,,,,,,
,,,,,V3_005,19,Female,2024-10-13_18h50.20.452,jersey_experiment_5_v3,2023.2.2,Win32,60.24096386,,,,,,,,,,,,,,,,810.3625,811.9115,811.9116,812.4616,return,0.321,,75.06944444,,,,,,FBP-OG-19.png,0.4,1.2,43,0.75,,,,,,,,,,,,,0,21,21,42,1,,,,,,,,,,,,,,,,,,,,,,,,,,,,
,,,,,V3_005,19,Female,2024-10-13_18h50.20.452,jersey_experiment_5_v3,2023.2.2,Win32,60.24096386,,,,,,,,,,,,,,,,812.462,813.7615,813.7617,815.3279,return,0.0506,,24.86111111,,,,,,FBP-PT-17.png,0.35,1.2,16,0.5,,,,,,,,,,,,,0,22,22,15,1,,,,,,,,,,,,,,,,,,,,,,,,,,,,
,,,,,V3_005,19,Female,2024-10-13_18h50.20.452,jersey_experiment_5_v3,2023.2.2,Win32,60.24096386,,,,,,,,,,,,,,,,815.3282,816.628,816.6281,818.028,return,0.1328,,14.58333333,,,,,,FBP-PT-18.png,0.35,1.2,21,0.5,,,,,,,,,,,,,0,23,23,20,1,,,,,,,,,,,,,,,,,,,,,,,,,,,,
,,,,,V3_005,19,Female,2024-10-13_18h50.20.452,jersey_experiment_5_v3,2023.2.2,Win32,60.24096386,,,,,,,,,,,,,,,,818.0286,819.3281,819.3282,821.2617,return,0.1505,,65.83333333,,,,,,FBP-RB-19.png,0.43,1.2,59,0.5,,,,,,,,,,,,,0,24,24,58,1,,,,,,,,,,,,,,,,,,,,,,,,,,,,
,,,,,V3_005,19,Female,2024-10-13_18h50.20.452,jersey_experiment_5_v3,2023.2.2,Win32,60.24096386,,,,,,,,,,,,,,,,821.262,822.5613,822.5614,823.6447,return,0.1017,,99.58333333,,,,,,FBP-RB-17.png,0.45,1.2,50,0.5,,,,,,,,,,,,,0,25,25,49,1,,,,,,,,,,,,,,,,,,,,,,,,,,,,
,,,,,V3_005,19,Female,2024-10-13_18h50.20.452,jersey_experiment_5_v3,2023.2.2,Win32,60.24096386,,,,,,,,,,,,,,,,823.6452,824.9447,824.9447,825.6616,return,0.12,,98.61111111,,,,,,FBP-PT-19.png,0.45,1.2,30,0.5,,,,,,,,,,,,,0,26,26,29,1,,,,,,,,,,,,,,,,,,,,,,,,,,,,
,,,,,V3_005,19,Female,2024-10-13_18h50.20.452,jersey_experiment_5_v3,2023.2.2,Win32,60.24096386,,,,,,,,,,,,,,,,825.662,826.9617,826.9618,829.2116,return,0.1505,,34.93055556,,,,,,FBP-PT-17.png,0.37,1.2,17,0.5,,,,,,,,,,,,,0,27,27,16,1,,,,,,,,,,,,,,,,,,,,,,,,,,,,
,,,,,V3_005,19,Female,2024-10-13_18h50.20.452,jersey_experiment_5_v3,2023.2.2,Win32,60.24096386,,,,,,,,,,,,,,,,829.212,830.5117,830.5118,831.7948,return,0.124,,74.375,,,,,,FBP-YG-71.png,0.4,1.2,3,0.5,,,,,,,,,,,,,0,28,28,2,1,,,,,,,,,,,,,,,,,,,,,,,,,,,,
,,,,,V3_005,19,Female,2024-10-13_18h50.20.452,jersey_experiment_5_v3,2023.2.2,Win32,60.24096386,,,,,,,,,,,,,,,,831.7951,833.0949,833.095,834.3951,return,0.2496,,33.05555556,,,,,,FBP-RB-17.png,0.35,1.2,46,0.5,,,,,,,,,,,,,0,29,29,45,1,,,,,,,,,,,,,,,,,,,,,,,,,,,,
,,,,,V3_005,19,Female,2024-10-13_18h50.20.452,jersey_experiment_5_v3,2023.2.2,Win32,60.24096386,,,,,,,,,,,,,,,,834.3958,835.9446,835.9447,836.5447,return,0.1759,,33.125,,,,,,FBP-OG-18.png,0.37,1.2,37,0.75,,,,,,,,,,,,,0,30,30,36,1,,,,,,,,,,,,,,,,,,,,,,,,,,,,
,,,,,V3_005,19,Female,2024-10-13_18h50.20.452,jersey_experiment_5_v3,2023.2.2,Win32,60.24096386,,,,,,,,,,,,,,,,836.5451,837.8451,837.8451,838.4618,return,0.1181,,33.125,,,,,,FBP-YG-71.png,0.35,1.2,1,0.5,,,,,,,,,,,,,0,31,31,0,1,,,,,,,,,,,,,,,,,,,,,,,,,,,,
,,,,,V3_005,19,Female,2024-10-13_18h50.20.452,jersey_experiment_5_v3,2023.2.2,Win32,60.24096386,,,,,,,,,,,,,,,,838.4622,840.0115,840.0115,841.2951,return,0.153,,74.93055556,,,,,,FBP-OG-18.png,0.4,1.2,38,0.75,,,,,,,,,,,,,0,32,32,37,1,,,,,,,,,,,,,,,,,,,,,,,,,,,,
,,,,,V3_005,19,Female,2024-10-13_18h50.20.452,jersey_experiment_5_v3,2023.2.2,Win32,60.24096386,,,,,,,,,,,,,,,,841.2954,842.845,842.845,844.8947,return,1.2337,,50.48611111,,,,,,FBP-OG-19.png,0.35,1.2,41,0.75,,,,,,,,,,,,,0,33,33,40,1,,,,,,,,,,,,,,,,,,,,,,,,,,,,
,,,,,V3_005,19,Female,2024-10-13_18h50.20.452,jersey_experiment_5_v3,2023.2.2,Win32,60.24096386,,,,,,,,,,,,,,,,844.8952,846.1953,846.1955,846.7622,return,0.0688,,50.34722222,,,,,,FBP-PT-19.png,0.35,1.2,26,0.5,,,,,,,,,,,,,0,34,34,25,1,,,,,,,,,,,,,,,,,,,,,,,,,,,,
,,,,,V3_005,19,Female,2024-10-13_18h50.20.452,jersey_experiment_5_v3,2023.2.2,Win32,60.24096386,,,,,,,,,,,,,,,,846.7625,848.0615,848.0616,849.7781,return,0.1746,,68.68055556,,,,,,FBP-RB-18.png,0.43,1.2,54,0.5,,,,,,,,,,,,,0,35,35,53,1,,,,,,,,,,,,,,,,,,,,,,,,,,,,
,,,,,V3_005,19,Female,2024-10-13_18h50.20.452,jersey_experiment_5_v3,2023.2.2,Win32,60.24096386,,,,,,,,,,,,,,,,849.7784,851.0783,851.0784,852.7119,return,0.3037,,88.47222222,,,,,,FBP-PT-17.png,0.4,1.2,18,0.5,,,,,,,,,,,,,0,36,36,17,1,,,,,,,,,,,,,,,,,,,,,,,,,,,,
,,,,,V3_005,19,Female,2024-10-13_18h50.20.452,jersey_experiment_5_v3,2023.2.2,Win32,60.24096386,,,,,,,,,,,,,,,,852.7125,854.0117,854.0118,854.7283,return,0.1022,,87.63888889,,,,,,FBP-RB-17.png,0.37,1.2,47,0.5,,,,,,,,,,,,,0,37,37,46,1,,,,,,,,,,,,,,,,,,,,,,,,,,,,
,,,,,V3_005,19,Female,2024-10-13_18h50.20.452,jersey_experiment_5_v3,2023.2.2,Win32,60.24096386,,,,,,,,,,,,,,,,854.7287,856.0286,856.0287,856.5951,return,0.1086,,87.5,,,,,,FBP-YG-81.png,0.37,1.2,7,0.5,,,,,,,,,,,,,0,38,38,6,1,,,,,,,,,,,,,,,,,,,,,,,,,,,,
,,,,,V3_005,19,Female,2024-10-13_18h50.20.452,jersey_experiment_5_v3,2023.2.2,Win32,60.24096386,,,,,,,,,,,,,,,,856.5957,857.8951,857.8951,859.3115,return,0.2279,,80.625,,,,,,FBP-PT-18.png,0.37,1.2,22,0.5,,,,,,,,,,,,,0,39,39,21,1,,,,,,,,,,,,,,,,,,,,,,,,,,,,
,,,,,V3_005,19,Female,2024-10-13_18h50.20.452,jersey_experiment_5_v3,2023.2.2,Win32,60.24096386,,,,,,,,,,,,,,,,859.3119,860.8617,860.8617,862.0285,return,0.1675,,95.13888889,,,,,,FBP-OG-18.png,0.43,1.2,39,0.75,,,,,,,,,,,,,0,40,40,38,1,,,,,,,,,,,,,,,,,,,,,,,,,,,,
,,,,,V3_005,19,Female,2024-10-13_18h50.20.452,jersey_experiment_5_v3,2023.2.2,Win32,60.24096386,,,,,,,,,,,,,,,,862.029,863.3285,863.3286,865.1449,return,0.2859,,65.13888889,,,,,,FBP-YG-91.png,0.35,1.2,11,0.5,,,,,,,,,,,,,0,41,41,10,1,,,,,,,,,,,,,,,,,,,,,,,,,,,,
,,,,,V3_005,19,Female,2024-10-13_18h50.20.452,jersey_experiment_5_v3,2023.2.2,Win32,60.24096386,,,,,,,,,,,,,,,,865.1452,866.4452,866.4453,867.7953,return,0.8249,,65.13888889,,,,,,FBP-RB-17.png,0.4,1.2,48,0.5,,,,,,,,,,,,,0,42,42,47,1,,,,,,,,,,,,,,,,,,,,,,,,,,,,
,,,,,V3_005,19,Female,2024-10-13_18h50.20.452,jersey_experiment_5_v3,2023.2.2,Win32,60.24096386,,,,,,,,,,,,,,,,867.796,869.3449,869.3449,871.2615,return,0.2838,,65.13888889,,,,,,FBP-OG-17.png,0.4,1.2,33,0.75,,,,,,,,,,,,,0,43,43,32,1,,,,,,,,,,,,,,,,,,,,,,,,,,,,
,,,,,V3_005,19,Female,2024-10-13_18h50.20.452,jersey_experiment_5_v3,2023.2.2,Win32,60.24096386,,,,,,,,,,,,,,,,871.2619,872.5618,872.5618,873.8284,return,0.072,,74.58333333,,,,,,FBP-YG-81.png,0.4,1.2,8,0.5,,,,,,,,,,,,,0,44,44,7,1,,,,,,,,,,,,,,,,,,,,,,,,,,,,
,,,,,V3_005,19,Female,2024-10-13_18h50.20.452,jersey_experiment_5_v3,2023.2.2,Win32,60.24096386,,,,,,,,,,,,,,,,873.8289,875.1285,875.1286,875.7449,return,0.1253,,74.51388889,,,,,,FBP-RB-19.png,0.37,1.2,57,0.5,,,,,,,,,,,,,0,45,45,56,1,,,,,,,,,,,,,,,,,,,,,,,,,,,,
,,,,,V3_005,19,Female,2024-10-13_18h50.20.452,jersey_experiment_5_v3,2023.2.2,Win32,60.24096386,,,,,,,,,,,,,,,,875.7451,877.045,877.0451,878.9117,return,0.1329,,99.375,,,,,,FBP-YG-91.png,0.43,1.2,14,0.5,,,,,,,,,,,,,0,46,46,13,1,,,,,,,,,,,,,,,,,,,,,,,,,,,,
,,,,,V3_005,19,Female,2024-10-13_18h50.20.452,jersey_experiment_5_v3,2023.2.2,Win32,60.24096386,,,,,,,,,,,,,,,,878.912,880.2117,880.2118,881.6617,return,0.1332,,75.625,,,,,,FBP-RB-19.png,0.4,1.2,58,0.5,,,,,,,,,,,,,0,47,47,57,1,,,,,,,,,,,,,,,,,,,,,,,,,,,,
,,,,,V3_005,19,Female,2024-10-13_18h50.20.452,jersey_experiment_5_v3,2023.2.2,Win32,60.24096386,,,,,,,,,,,,,,,,881.662,882.9623,882.9624,884.7123,return,0.0864,,50.13888889,,,,,,FBP-RB-18.png,0.35,1.2,51,0.5,,,,,,,,,,,,,0,48,48,50,1,,,,,,,,,,,,,,,,,,,,,,,,,,,,
,,,,,V3_005,19,Female,2024-10-13_18h50.20.452,jersey_experiment_5_v3,2023.2.2,Win32,60.24096386,,,,,,,,,,,,,,,,884.7129,886.0116,886.0118,888.2117,return,0.1564,,79.79166667,,,,,,FBP-PT-18.png,0.4,1.2,23,0.5,,,,,,,,,,,,,0,49,49,22,1,,,,,,,,,,,,,,,,,,,,,,,,,,,,
,,,,,V3_005,19,Female,2024-10-13_18h50.20.452,jersey_experiment_5_v3,2023.2.2,Win32,60.24096386,,,,,,,,,,,,,,,,888.212,889.512,889.512,890.5283,return,0.1439,,92.77777778,,,,,,FBP-YG-71.png,0.43,1.2,4,0.5,,,,,,,,,,,,,0,50,50,3,1,,,,,,,,,,,,,,,,,,,,,,,,,,,,
,,,,,V3_005,19,Female,2024-10-13_18h50.20.452,jersey_experiment_5_v3,2023.2.2,Win32,60.24096386,,,,,,,,,,,,,,,,890.5286,891.8283,891.8284,892.9783,return,0.1407,,99.375,,,,,,FBP-YG-71.png,0.45,1.2,5,0.5,,,,,,,,,,,,,0,51,51,4,1,,,,,,,,,,,,,,,,,,,,,,,,,,,,
,,,,,V3_005,19,Female,2024-10-13_18h50.20.452,jersey_experiment_5_v3,2023.2.2,Win32,60.24096386,,,,,,,,,,,,,,,,892.9786,894.2784,894.2784,895.9626,return,0.0355,,49.86111111,,,,,,FBP-PT-19.png,0.37,1.2,27,0.5,,,,,,,,,,,,,0,52,52,26,1,,,,,,,,,,,,,,,,,,,,,,,,,,,,
,,,,,V3_005,19,Female,2024-10-13_18h50.20.452,jersey_experiment_5_v3,2023.2.2,Win32,60.24096386,,,,,,,,,,,,,,,,895.963,897.2618,897.2619,901.4786,return,0.1183,,93.61111111,,,,,,FBP-RB-18.png,0.4,1.2,53,0.5,,,,,,,,,,,,,0,53,53,52,1,,,,,,,,,,,,,,,,,,,,,,,,,,,,
,,,,,V3_005,19,Female,2024-10-13_18h50.20.452,jersey_experiment_5_v3,2023.2.2,Win32,60.24096386,,,,,,,,,,,,,,,,901.4789,902.7785,902.7786,903.8291,return,0.1392,,99.375,,,,,,FBP-RB-17.png,0.43,1.2,49,0.5,,,,,,,,,,,,,0,54,54,48,1,,,,,,,,,,,,,,,,,,,,,,,,,,,,
,,,,,V3_005,19,Female,2024-10-13_18h50.20.452,jersey_experiment_5_v3,2023.2.2,Win32,60.24096386,,,,,,,,,,,,,,,,903.8296,905.1285,905.1285,906.9785,return,0.1413,,75.13888889,,,,,,FBP-YG-91.png,0.4,1.2,13,0.5,,,,,,,,,,,,,0,55,55,12,1,,,,,,,,,,,,,,,,,,,,,,,,,,,,
,,,,,V3_005,19,Female,2024-10-13_18h50.20.452,jersey_experiment_5_v3,2023.2.2,Win32,60.24096386,,,,,,,,,,,,,,,,906.9788,908.2786,908.2787,909.6789,return,0.2681,,99.51388889,,,,,,FBP-PT-17.png,0.45,1.2,20,0.5,,,,,,,,,,,,,0,56,56,19,1,,,,,,,,,,,,,,,,,,,,,,,,,,,,
,,,,,V3_005,19,Female,2024-10-13_18h50.20.452,jersey_experiment_5_v3,2023.2.2,Win32,60.24096386,,,,,,,,,,,,,,,,909.6793,910.9786,910.9786,912.2952,return,0.1682,,36.38888889,,,,,,FBP-RB-18.png,0.37,1.2,52,0.5,,,,,,,,,,,,,0,57,57,51,1,,,,,,,,,,,,,,,,,,,,,,,,,,,,
,,,,,V3_005,19,Female,2024-10-13_18h50.20.452,jersey_experiment_5_v3,2023.2.2,Win32,60.24096386,,,,,,,,,,,,,,,,912.2957,913.5956,913.5957,915.5127,return,0.2186,,50.20833333,,,,,,FBP-YG-81.png,0.43,1.2,9,0.5,,,,,,,,,,,,,0,58,58,8,1,,,,,,,,,,,,,,,,,,,,,,,,,,,,
,,,,,V3_005,19,Female,2024-10-13_18h50.20.452,jersey_experiment_5_v3,2023.2.2,Win32,60.24096386,,,,,,,,,,,,,,,,915.5131,917.062,917.062,917.9453,return,0.1512,,75.20833333,,,,,,FBP-OG-18.png,0.45,1.2,40,0.75,,,,,,,,,,,,,0,59,59,39,1,,,,,,,,,,,,,,,,,,,,,,,,,,,,
,,,,,V3_005,19,Female,2024-10-13_18h50.20.452,jersey_experiment_5_v3,2023.2.2,Win32,60.24096386,,,,,,,,,,,,,,,,917.9497,919.2454,919.2454,920.9122,return,1.2276,,89.02777778,,,,,,FBP-YG-18.png,0.45,1.2,10,0.5,,,,,,,,,,,,,,,,,,0,0,0,9,1,,,,,,,,,,,,,,,,,,,,,,,
,,,,,V3_005,19,Female,2024-10-13_18h50.20.452,jersey_experiment_5_v3,2023.2.2,Win32,60.24096386,,,,,,,,,,,,,,,,920.9129,922.4619,922.462,922.9624,return,0.0749,,87.70833333,,,,,,FBP-OG-81.png,0.43,1.2,39,0.75,,,,,,,,,,,,,,,,,,0,1,1,38,1,,,,,,,,,,,,,,,,,,,,,,,
,,,,,V3_005,19,Female,2024-10-13_18h50.20.452,jersey_experiment_5_v3,2023.2.2,Win32,60.24096386,,,,,,,,,,,,,,,,922.9629,924.2621,924.2622,925.7288,return,0.1759,,99.16666667,,,,,,FBP-YG-19.png,0.45,1.2,15,0.5,,,,,,,,,,,,,,,,,,0,2,2,14,1,,,,,,,,,,,,,,,,,,,,,,,
,,,,,V3_005,19,Female,2024-10-13_18h50.20.452,jersey_experiment_5_v3,2023.2.2,Win32,60.24096386,,,,,,,,,,,,,,,,925.7292,927.0286,927.0287,929.6119,return,0.0172,,49.86111111,,,,,,FBP-RB-71.png,0.35,1.2,46,0.5,,,,,,,,,,,,,,,,,,0,3,3,45,1,,,,,,,,,,,,,,,,,,,,,,,
,,,,,V3_005,19,Female,2024-10-13_18h50.20.452,jersey_experiment_5_v3,2023.2.2,Win32,60.24096386,,,,,,,,,,,,,,,,929.6121,930.9122,930.9122,933.1126,return,0.1557,,87.91666667,,,,,,FBP-RB-71.png,0.43,1.2,49,0.5,,,,,,,,,,,,,,,,,,0,4,4,48,1,,,,,,,,,,,,,,,,,,,,,,,
,,,,,V3_005,19,Female,2024-10-13_18h50.20.452,jersey_experiment_5_v3,2023.2.2,Win32,60.24096386,,,,,,,,,,,,,,,,933.1131,934.412,934.4121,935.6623,return,0.1856,,13.33333333,,,,,,FBP-RB-91.png,0.37,1.2,57,0.5,,,,,,,,,,,,,,,,,,0,5,5,56,1,,,,,,,,,,,,,,,,,,,,,,,
,,,,,V3_005,19,Female,2024-10-13_18h50.20.452,jersey_experiment_5_v3,2023.2.2,Win32,60.24096386,,,,,,,,,,,,,,,,935.6625,937.2132,937.2132,938.0791,return,0.1521,,13.61111111,,,,,,FBP-OG-91.png,0.35,1.2,41,0.75,,,,,,,,,,,,,,,,,,0,6,6,40,1,,,,,,,,,,,,,,,,,,,,,,,
,,,,,V3_005,19,Female,2024-10-13_18h50.20.452,jersey_experiment_5_v3,2023.2.2,Win32,60.24096386,,,,,,,,,,,,,,,,938.0792,939.3788,939.3789,941.2959,return,0.6026,,50,,,,,,FBP-RB-81.png,0.4,1.2,53,0.5,,,,,,,,,,,,,,,,,,0,7,7,52,1,,,,,,,,,,,,,,,,,,,,,,,
,,,,,V3_005,19,Female,2024-10-13_18h50.20.452,jersey_experiment_5_v3,2023.2.2,Win32,60.24096386,,,,,,,,,,,,,,,,941.2964,942.8457,942.8457,944.0622,return,0.0997,,49.65277778,,,,,,FBP-OG-81.png,0.37,1.2,37,0.75,,,,,,,,,,,,,,,,,,0,8,8,36,1,,,,,,,,,,,,,,,,,,,,,,,
,,,,,V3_005,19,Female,2024-10-13_18h50.20.452,jersey_experiment_5_v3,2023.2.2,Win32,60.24096386,,,,,,,,,,,,,,,,944.0626,945.3625,945.3625,946.1788,return,0.3738,,49.51388889,,,,,,FBP-RB-81.png,0.35,1.2,51,0.5,,,,,,,,,,,,,,,,,,0,9,9,50,1,,,,,,,,,,,,,,,,,,,,,,,
,,,,,V3_005,19,Female,2024-10-13_18h50.20.452,jersey_experiment_5_v3,2023.2.2,Win32,60.24096386,,,,,,,,,,,,,,,,946.1791,947.7288,947.7289,949.1959,return,0.1682,,62.91666667,,,,,,FBP-OG-91.png,0.4,1.2,43,0.75,,,,,,,,,,,,,,,,,,0,10,10,42,1,,,,,,,,,,,,,,,,,,,,,,,
,,,,,V3_005,19,Female,2024-10-13_18h50.20.452,jersey_experiment_5_v3,2023.2.2,Win32,60.24096386,,,,,,,,,,,,,,,,949.1965,950.746,950.746,952.5788,return,0.0579,,86.04166667,,,,,,FBP-OG-71.png,0.43,1.2,34,0.75,,,,,,,,,,,,,,,,,,0,11,11,33,1,,,,,,,,,,,,,,,,,,,,,,,
,,,,,V3_005,19,Female,2024-10-13_18h50.20.452,jersey_experiment_5_v3,2023.2.2,Win32,60.24096386,,,,,,,,,,,,,,,,952.5791,954.1288,954.1288,956.3956,return,2.0324,,66.52777778,,,,,,FBP-OG-71.png,0.4,1.2,33,0.75,,,,,,,,,,,,,,,,,,0,12,12,32,1,,,,,,,,,,,,,,,,,,,,,,,
,,,,,V3_005,19,Female,2024-10-13_18h50.20.452,jersey_experiment_5_v3,2023.2.2,Win32,60.24096386,,,,,,,,,,,,,,,,956.3959,957.6955,957.6956,960.8791,return,0.3678,,99.09722222,,,,,,FBP-YG-17.png,0.45,1.2,5,0.5,,,,,,,,,,,,,,,,,,0,13,13,4,1,,,,,,,,,,,,,,,,,,,,,,,
,,,,,V3_005,19,Female,2024-10-13_18h50.20.452,jersey_experiment_5_v3,2023.2.2,Win32,60.24096386,,,,,,,,,,,,,,,,960.8795,962.1788,962.1789,964.0956,return,0.1662,,24.79166667,,,,,,FBP-RB-81.png,0.37,1.2,52,0.5,,,,,,,,,,,,,,,,,,0,14,14,51,1,,,,,,,,,,,,,,,,,,,,,,,
,,,,,V3_005,19,Female,2024-10-13_18h50.20.452,jersey_experiment_5_v3,2023.2.2,Win32,60.24096386,,,,,,,,,,,,,,,,964.0962,965.396,965.3961,966.3956,return,0.1009,,24.79166667,,,,,,FBP-RB-91.png,0.35,1.2,56,0.5,,,,,,,,,,,,,,,,,,0,15,15,55,1,,,,,,,,,,,,,,,,,,,,,,,
,,,,,V3_005,19,Female,2024-10-13_18h50.20.452,jersey_experiment_5_v3,2023.2.2,Win32,60.24096386,,,,,,,,,,,,,,,,966.3959,967.6958,967.6959,969.8957,return,0.2026,,74.93055556,,,,,,FBP-PT-91.png,0.43,1.2,29,0.5,,,,,,,,,,,,,,,,,,0,16,16,28,1,,,,,,,,,,,,,,,,,,,,,,,
,,,,,V3_005,19,Female,2024-10-13_18h50.20.452,jersey_experiment_5_v3,2023.2.2,Win32,60.24096386,,,,,,,,,,,,,,,,969.8962,971.1957,971.1957,975.3962,return,3.4752,,36.94444444,,,,,,FBP-PT-81.png,0.4,1.2,23,0.5,,,,,,,,,,,,,,,,,,0,17,17,22,1,,,,,,,,,,,,,,,,,,,,,,,
,,,,,V3_005,19,Female,2024-10-13_18h50.20.452,jersey_experiment_5_v3,2023.2.2,Win32,60.24096386,,,,,,,,,,,,,,,,975.3967,976.696,976.6961,978.7788,return,0.1309,,49.51388889,,,,,,FBP-PT-91.png,0.4,1.2,28,0.5,,,,,,,,,,,,,,,,,,0,18,18,27,1,,,,,,,,,,,,,,,,,,,,,,,
,,,,,V3_005,19,Female,2024-10-13_18h50.20.452,jersey_experiment_5_v3,2023.2.2,Win32,60.24096386,,,,,,,,,,,,,,,,978.7791,980.3291,980.3291,980.9957,return,0.2066,,48.88888889,,,,,,FBP-OG-91.png,0.37,1.2,42,0.75,,,,,,,,,,,,,,,,,,0,19,19,41,1,,,,,,,,,,,,,,,,,,,,,,,
,,,,,V3_005,19,Female,2024-10-13_18h50.20.452,jersey_experiment_5_v3,2023.2.2,Win32,60.24096386,,,,,,,,,,,,,,,,980.9961,982.2956,982.2957,984.3794,return,1.3356,,25,,,,,,FBP-PT-91.png,0.35,1.2,26,0.5,,,,,,,,,,,,,,,,,,0,20,20,25,1,,,,,,,,,,,,,,,,,,,,,,,
,,,,,V3_005,19,Female,2024-10-13_18h50.20.452,jersey_experiment_5_v3,2023.2.2,Win32,60.24096386,,,,,,,,,,,,,,,,984.3797,985.6791,985.6791,989.6297,return,0.2168,,34.02777778,,,,,,FBP-YG-18.png,0.35,1.2,6,0.5,,,,,,,,,,,,,,,,,,0,21,21,5,1,,,,,,,,,,,,,,,,,,,,,,,
,,,,,V3_005,19,Female,2024-10-13_18h50.20.452,jersey_experiment_5_v3,2023.2.2,Win32,60.24096386,,,,,,,,,,,,,,,,989.6302,990.9291,990.9293,991.7628,return,0.0905,,33.95833333,,,,,,FBP-YG-17.png,0.35,1.2,1,0.5,,,,,,,,,,,,,,,,,,0,22,22,0,1,,,,,,,,,,,,,,,,,,,,,,,
,,,,,V3_005,19,Female,2024-10-13_18h50.20.452,jersey_experiment_5_v3,2023.2.2,Win32,60.24096386,,,,,,,,,,,,,,,,991.7631,993.3128,993.3129,994.0956,return,0.3264,,33.81944444,,,,,,FBP-OG-71.png,0.37,1.2,32,0.75,,,,,,,,,,,,,,,,,,0,23,23,31,1,,,,,,,,,,,,,,,,,,,,,,,
,,,,,V3_005,19,Female,2024-10-13_18h50.20.452,jersey_experiment_5_v3,2023.2.2,Win32,60.24096386,,,,,,,,,,,,,,,,994.0959,995.646,995.6461,997.1125,return,0.1196,,74.86111111,,,,,,FBP-OG-91.png,0.43,1.2,44,0.75,,,,,,,,,,,,,,,,,,0,24,24,43,1,,,,,,,,,,,,,,,,,,,,,,,
,,,,,V3_005,19,Female,2024-10-13_18h50.20.452,jersey_experiment_5_v3,2023.2.2,Win32,60.24096386,,,,,,,,,,,,,,,,997.1128,998.4124,998.4125,999.9961,return,0.2819,,91.38888889,,,,,,FBP-PT-81.png,0.43,1.2,24,0.5,,,,,,,,,,,,,,,,,,0,25,25,23,1,,,,,,,,,,,,,,,,,,,,,,,
,,,,,V3_005,19,Female,2024-10-13_18h50.20.452,jersey_experiment_5_v3,2023.2.2,Win32,60.24096386,,,,,,,,,,,,,,,,999.9965,1001.2958,1001.2958,1005.2795,return,0.1675,,99.44444444,,,,,,FBP-RB-81.png,0.45,1.2,55,0.5,,,,,,,,,,,,,,,,,,0,26,26,54,1,,,,,,,,,,,,,,,,,,,,,,,
,,,,,V3_005,19,Female,2024-10-13_18h50.20.452,jersey_experiment_5_v3,2023.2.2,Win32,60.24096386,,,,,,,,,,,,,,,,1005.2799,1006.83,1006.8301,1008.0463,return,0.2694,,16.73611111,,,,,,FBP-OG-71.png,0.35,1.2,31,0.75,,,,,,,,,,,,,,,,,,0,27,27,30,1,,,,,,,,,,,,,,,,,,,,,,,
,,,,,V3_005,19,Female,2024-10-13_18h50.20.452,jersey_experiment_5_v3,2023.2.2,Win32,60.24096386,,,,,,,,,,,,,,,,1008.0467,1009.3461,1009.3462,1011.9295,return,0.1024,,35.97222222,,,,,,FBP-PT-71.png,0.37,1.2,17,0.5,,,,,,,,,,,,,,,,,,0,28,28,16,1,,,,,,,,,,,,,,,,,,,,,,,
,,,,,V3_005,19,Female,2024-10-13_18h50.20.452,jersey_experiment_5_v3,2023.2.2,Win32,60.24096386,,,,,,,,,,,,,,,,1011.9299,1013.2296,1013.2296,1020.4796,return,5.6945,,99.30555556,,,,,,FBP-RB-71.png,0.45,1.2,50,0.5,,,,,,,,,,,,,,,,,,0,29,29,49,1,,,,,,,,,,,,,,,,,,,,,,,
,,,,,V3_005,19,Female,2024-10-13_18h50.20.452,jersey_experiment_5_v3,2023.2.2,Win32,60.24096386,,,,,,,,,,,,,,,,1020.4878,1021.7792,1021.7793,1025.1294,return,0.6847,,63.33333333,,,,,,FBP-RB-71.png,0.37,1.2,47,0.5,,,,,,,,,,,,,,,,,,0,30,30,46,1,,,,,,,,,,,,,,,,,,,,,,,
,,,,,V3_005,19,Female,2024-10-13_18h50.20.452,jersey_experiment_5_v3,2023.2.2,Win32,60.24096386,,,,,,,,,,,,,,,,1025.1299,1026.4298,1026.4299,1027.646,return,0.1359,,94.16666667,,,,,,FBP-YG-17.png,0.43,1.2,4,0.5,,,,,,,,,,,,,,,,,,0,31,31,3,1,,,,,,,,,,,,,,,,,,,,,,,
,,,,,V3_005,19,Female,2024-10-13_18h50.20.452,jersey_experiment_5_v3,2023.2.2,Win32,60.24096386,,,,,,,,,,,,,,,,1027.6462,1028.9466,1028.9467,1030.9633,return,0.1414,,11.31944444,,,,,,FBP-PT-81.png,0.35,1.2,21,0.5,,,,,,,,,,,,,,,,,,0,32,32,20,1,,,,,,,,,,,,,,,,,,,,,,,
,,,,,V3_005,19,Female,2024-10-13_18h50.20.452,jersey_experiment_5_v3,2023.2.2,Win32,60.24096386,,,,,,,,,,,,,,,,1030.9638,1032.2626,1032.2626,1033.9133,return,0.1686,,75.13888889,,,,,,FBP-RB-91.png,0.45,1.2,60,0.5,,,,,,,,,,,,,,,,,,0,33,33,59,1,,,,,,,,,,,,,,,,,,,,,,,
,,,,,V3_005,19,Female,2024-10-13_18h50.20.452,jersey_experiment_5_v3,2023.2.2,Win32,60.24096386,,,,,,,,,,,,,,,,1033.9138,1035.2131,1035.2131,1036.5633,return,0.1729,,89.30555556,,,,,,FBP-RB-91.png,0.43,1.2,59,0.5,,,,,,,,,,,,,,,,,,0,34,34,58,1,,,,,,,,,,,,,,,,,,,,,,,
,,,,,V3_005,19,Female,2024-10-13_18h50.20.452,jersey_experiment_5_v3,2023.2.2,Win32,60.24096386,,,,,,,,,,,,,,,,1036.5636,1038.1136,1038.1137,1039.4627,return,0.2033,,50,,,,,,FBP-OG-81.png,0.4,1.2,38,0.75,,,,,,,,,,,,,,,,,,0,35,35,37,1,,,,,,,,,,,,,,,,,,,,,,,
,,,,,V3_005,19,Female,2024-10-13_18h50.20.452,jersey_experiment_5_v3,2023.2.2,Win32,60.24096386,,,,,,,,,,,,,,,,1039.4629,1040.7628,1040.7629,1042.2628,return,0.0858,,50,,,,,,FBP-RB-91.png,0.4,1.2,58,0.5,,,,,,,,,,,,,,,,,,0,36,36,57,1,,,,,,,,,,,,,,,,,,,,,,,
,,,,,V3_005,19,Female,2024-10-13_18h50.20.452,jersey_experiment_5_v3,2023.2.2,Win32,60.24096386,,,,,,,,,,,,,,,,1042.263,1043.5631,1043.5632,1045.0961,return,0.1857,,75,,,,,,FBP-RB-81.png,0.43,1.2,54,0.5,,,,,,,,,,,,,,,,,,0,37,37,53,1,,,,,,,,,,,,,,,,,,,,,,,
,,,,,V3_005,19,Female,2024-10-13_18h50.20.452,jersey_experiment_5_v3,2023.2.2,Win32,60.24096386,,,,,,,,,,,,,,,,1045.0964,1046.3961,1046.3961,1047.3463,return,0.3416,,75,,,,,,FBP-PT-71.png,0.43,1.2,19,0.5,,,,,,,,,,,,,,,,,,0,38,38,18,1,,,,,,,,,,,,,,,,,,,,,,,
,,,,,V3_005,19,Female,2024-10-13_18h50.20.452,jersey_experiment_5_v3,2023.2.2,Win32,60.24096386,,,,,,,,,,,,,,,,1047.3468,1048.646,1048.646,1049.763,return,0.1588,,85.41666667,,,,,,FBP-PT-91.png,0.45,1.2,30,0.5,,,,,,,,,,,,,,,,,,0,39,39,29,1,,,,,,,,,,,,,,,,,,,,,,,
,,,,,V3_005,19,Female,2024-10-13_18h50.20.452,jersey_experiment_5_v3,2023.2.2,Win32,60.24096386,,,,,,,,,,,,,,,,1049.7633,1051.313,1051.3131,1052.0961,return,0.1915,,84.51388889,,,,,,FBP-OG-81.png,0.45,1.2,40,0.75,,,,,,,,,,,,,,,,,,0,40,40,39,1,,,,,,,,,,,,,,,,,,,,,,,
,,,,,V3_005,19,Female,2024-10-13_18h50.20.452,jersey_experiment_5_v3,2023.2.2,Win32,60.24096386,,,,,,,,,,,,,,,,1052.0965,1053.396,1053.396,1055.4963,return,0.2029,,49.65277778,,,,,,FBP-RB-71.png,0.4,1.2,48,0.5,,,,,,,,,,,,,,,,,,0,41,41,47,1,,,,,,,,,,,,,,,,,,,,,,,
,,,,,V3_005,19,Female,2024-10-13_18h50.20.452,jersey_experiment_5_v3,2023.2.2,Win32,60.24096386,,,,,,,,,,,,,,,,1055.4966,1056.7962,1056.7962,1057.6799,return,0.0921,,49.72222222,,,,,,FBP-YG-17.png,0.37,1.2,2,0.5,,,,,,,,,,,,,,,,,,0,42,42,1,1,,,,,,,,,,,,,,,,,,,,,,,
,,,,,V3_005,19,Female,2024-10-13_18h50.20.452,jersey_experiment_5_v3,2023.2.2,Win32,60.24096386,,,,,,,,,,,,,,,,1057.6804,1059.2303,1059.2304,1060.8801,return,0.219,,74.93055556,,,,,,FBP-OG-91.png,0.45,1.2,45,0.75,,,,,,,,,,,,,,,,,,0,43,43,44,1,,,,,,,,,,,,,,,,,,,,,,,
,,,,,V3_005,19,Female,2024-10-13_18h50.20.452,jersey_experiment_5_v3,2023.2.2,Win32,60.24096386,,,,,,,,,,,,,,,,1060.8806,1062.1796,1062.1797,1062.7296,return,0.0986,,74.58333333,,,,,,FBP-YG-17.png,0.4,1.2,3,0.5,,,,,,,,,,,,,,,,,,0,44,44,2,1,,,,,,,,,,,,,,,,,,,,,,,
,,,,,V3_005,19,Female,2024-10-13_18h50.20.452,jersey_experiment_5_v3,2023.2.2,Win32,60.24096386,,,,,,,,,,,,,,,,1062.73,1064.03,1064.03,1064.6297,return,0.138,,74.58333333,,,,,,FBP-PT-81.png,0.45,1.2,25,0.5,,,,,,,,,,,,,,,,,,0,45,45,24,1,,,,,,,,,,,,,,,,,,,,,,,
,,,,,V3_005,19,Female,2024-10-13_18h50.20.452,jersey_experiment_5_v3,2023.2.2,Win32,60.24096386,,,,,,,,,,,,,,,,1064.6301,1065.9297,1065.9297,1067.2631,return,0.2849,,90.83333333,,,,,,FBP-PT-71.png,0.45,1.2,20,0.5,,,,,,,,,,,,,,,,,,0,46,46,19,1,,,,,,,,,,,,,,,,,,,,,,,
,,,,,V3_005,19,Female,2024-10-13_18h50.20.452,jersey_experiment_5_v3,2023.2.2,Win32,60.24096386,,,,,,,,,,,,,,,,1067.2637,1068.813,1068.8131,1069.7966,return,0.1074,,35.13888889,,,,,,FBP-OG-81.png,0.35,1.2,36,0.75,,,,,,,,,,,,,,,,,,0,47,47,35,1,,,,,,,,,,,,,,,,,,,,,,,
,,,,,V3_005,19,Female,2024-10-13_18h50.20.452,jersey_experiment_5_v3,2023.2.2,Win32,60.24096386,,,,,,,,,,,,,,,,1069.7972,1071.0963,1071.0963,1072.113,return,0.2437,,50.06944444,,,,,,FBP-YG-18.png,0.43,1.2,9,0.5,,,,,,,,,,,,,,,,,,0,48,48,8,1,,,,,,,,,,,,,,,,,,,,,,,
,,,,,V3_005,19,Female,2024-10-13_18h50.20.452,jersey_experiment_5_v3,2023.2.2,Win32,60.24096386,,,,,,,,,,,,,,,,1072.1135,1073.4128,1073.4128,1074.8469,return,0.2343,,32.08333333,,,,,,FBP-YG-19.png,0.35,1.2,11,0.5,,,,,,,,,,,,,,,,,,0,49,49,10,1,,,,,,,,,,,,,,,,,,,,,,,
,,,,,V3_005,19,Female,2024-10-13_18h50.20.452,jersey_experiment_5_v3,2023.2.2,Win32,60.24096386,,,,,,,,,,,,,,,,1074.8473,1076.3971,1076.3973,1077.5298,return,0.1506,,70.625,,,,,,FBP-OG-71.png,0.45,1.2,35,0.75,,,,,,,,,,,,,,,,,,0,50,50,34,1,,,,,,,,,,,,,,,,,,,,,,,
,,,,,V3_005,19,Female,2024-10-13_18h50.20.452,jersey_experiment_5_v3,2023.2.2,Win32,60.24096386,,,,,,,,,,,,,,,,1077.5301,1078.8301,1078.8302,1080.3299,return,0.1492,,50.48611111,,,,,,FBP-PT-71.png,0.4,1.2,18,0.5,,,,,,,,,,,,,,,,,,0,51,51,17,1,,,,,,,,,,,,,,,,,,,,,,,
,,,,,V3_005,19,Female,2024-10-13_18h50.20.452,jersey_experiment_5_v3,2023.2.2,Win32,60.24096386,,,,,,,,,,,,,,,,1080.3304,1081.6299,1081.63,1083.413,return,0.1558,,74.93055556,,,,,,FBP-YG-19.png,0.43,1.2,14,0.5,,,,,,,,,,,,,,,,,,0,52,52,13,1,,,,,,,,,,,,,,,,,,,,,,,
,,,,,V3_005,19,Female,2024-10-13_18h50.20.452,jersey_experiment_5_v3,2023.2.2,Win32,60.24096386,,,,,,,,,,,,,,,,1083.4133,1084.7134,1084.7135,1086.0465,return,0.1333,,49.86111111,,,,,,FBP-PT-91.png,0.37,1.2,27,0.5,,,,,,,,,,,,,,,,,,0,53,53,26,1,,,,,,,,,,,,,,,,,,,,,,,
,,,,,V3_005,19,Female,2024-10-13_18h50.20.452,jersey_experiment_5_v3,2023.2.2,Win32,60.24096386,,,,,,,,,,,,,,,,1086.0468,1087.3466,1087.3468,1089.18,return,0.2002,,26.94444444,,,,,,FBP-PT-71.png,0.35,1.2,16,0.5,,,,,,,,,,,,,,,,,,0,54,54,15,1,,,,,,,,,,,,,,,,,,,,,,,
,,,,,V3_005,19,Female,2024-10-13_18h50.20.452,jersey_experiment_5_v3,2023.2.2,Win32,60.24096386,,,,,,,,,,,,,,,,1089.1803,1090.48,1090.4801,1092.6299,return,0.1878,,75.83333333,,,,,,FBP-YG-18.png,0.4,1.2,8,0.5,,,,,,,,,,,,,,,,,,0,55,55,7,1,,,,,,,,,,,,,,,,,,,,,,,
,,,,,V3_005,19,Female,2024-10-13_18h50.20.452,jersey_experiment_5_v3,2023.2.2,Win32,60.24096386,,,,,,,,,,,,,,,,1092.6303,1093.9299,1093.9299,1095.3298,return,0.1405,,75.625,,,,,,FBP-YG-19.png,0.4,1.2,13,0.5,,,,,,,,,,,,,,,,,,0,56,56,12,1,,,,,,,,,,,,,,,,,,,,,,,
,,,,,V3_005,19,Female,2024-10-13_18h50.20.452,jersey_experiment_5_v3,2023.2.2,Win32,60.24096386,,,,,,,,,,,,,,,,1095.3301,1096.6299,1096.6299,1099.3134,return,1.0754,,64.16666667,,,,,,FBP-YG-18.png,0.37,1.2,7,0.5,,,,,,,,,,,,,,,,,,0,57,57,6,1,,,,,,,,,,,,,,,,,,,,,,,
,,,,,V3_005,19,Female,2024-10-13_18h50.20.452,jersey_experiment_5_v3,2023.2.2,Win32,60.24096386,,,,,,,,,,,,,,,,1099.3139,1100.6132,1100.6133,1102.4631,return,0.7821,,38.125,,,,,,FBP-PT-81.png,0.37,1.2,22,0.5,,,,,,,,,,,,,,,,,,0,58,58,21,1,,,,,,,,,,,,,,,,,,,,,,,
,,,,,V3_005,19,Female,2024-10-13_18h50.20.452,jersey_experiment_5_v3,2023.2.2,Win32,60.24096386,,,,,,,,,,,,,,,,1102.4636,1103.7632,1103.7632,1104.7799,return,0.1487,,41.59722222,,,,,,FBP-YG-19.png,0.37,1.2,12,0.5,,,,,,,,,,,,,,,,,,0,59,59,11,1,,,,,,,,,,,,,,,,,,,,,,,
,,,,,V3_005,19,Female,2024-10-13_18h50.20.452,jersey_experiment_5_v3,2023.2.2,Win32,60.24096386,,,,,,,,,,,,,,,,,,,,,,,,,,,,,,,,,,,,,,,,,,,,,,,,,,,,,,,,1104.7807,1110.0635,return,5.2648,,,,,,,,,,,,,,,,,,,
,,,,,V3_005,19,Female,2024-10-13_18h50.20.452,jersey_experiment_5_v3,2023.2.2,Win32,60.24096386,,,,,,,,,,,,,,,,,,,,,,,,,,,,,,,,,,,,,,,,,,,,,,,,,,,,,,,,,,,,,1110.0636,1115.4469,1,4.4636,return,0.8837,,,,,,,,,,,,
,,,,,V3_005,19,Female,2024-10-13_18h50.20.452,jersey_experiment_5_v3,2023.2.2,Win32,60.24096386,,,,,,,,,,,,,,,,,,,,,,,,,,,,,,,,,,,,,,,,,,,,,,,,,,,,,,,,,,,,,,,,,,,,1115.447,1155.173,"Seeing if the color of the player's jersey affected how ""husky"" I perceived them as.",right,31.5351,,,,,,
,,,,,V3_005,19,Female,2024-10-13_18h50.20.452,jersey_experiment_5_v3,2023.2.2,Win32,60.24096386,,,,,,,,,,,,,,,,,,,,,,,,,,,,,,,,,,,,,,,,,,,,,,,,,,,,,,,,,,,,,,,,,,,,,,,,,,1155.1731,1159.6969,return,4.5172,