requirements.started,requirements.stopped,key_resp_3.keys,key_resp_3.rt,key_resp_3.duration,Subject ID,Age,Gender,date,expName,psychopyVersion,OS,frameRate,instructions1.started,instructions1.stopped,key_resp.keys,key_resp.rt,key_resp.duration,example.started,example.stopped,enter_2.keys,enter_2.rt,enter_2.duration,instructions2.started,instructions2.stopped,enter_3.keys,enter_3.rt,enter_3.duration,image.started,image.stopped,slider_2.started,slider_2.stopped,next.keys,next.rt,next.duration,slider.response,trial_block_1.thisRepN,trial_block_1.thisTrialN,trial_block_1.thisN,trial_block_1.thisIndex,trial_block_1.ran,Path,Width,Height,Index,Duration,trial_block_2.thisRepN,trial_block_2.thisTrialN,trial_block_2.thisN,trial_block_2.thisIndex,trial_block_2.ran,rest_break.started,rest_break.stopped,end_break.started,end_break.stopped,key_resp_5.keys,key_resp_5.rt,key_resp_5.duration,trial_block_3.thisRepN,trial_block_3.thisTrialN,trial_block_3.thisN,trial_block_3.thisIndex,trial_block_3.ran,trial_block_4.thisRepN,trial_block_4.thisTrialN,trial_block_4.thisN,trial_block_4.thisIndex,trial_block_4.ran,questions_intro.started,questions_intro.stopped,enter_12.keys,enter_12.rt,enter_12.duration,question2.started,question2.stopped,question_doingbest.response,question_doingbest.rt,enter_15.keys,enter_15.rt,enter_15.duration,pattern.started,pattern.stopped,pattern_2.text,enter_17.keys,enter_17.rt,enter_17.duration,thankyou.started,thankyou.stopped,enter_14.keys,enter_14.rt,enter_14.duration
0.0002,11.9338,return,11.9281,,V3_097,19,Female,2025-02-04_13h34.37.580,jersey_experiment_5_v3,2023.2.2,Win32,85.47008547,,,,,,,,,,,,,,,,,,,,,,,,,,,,,,,,,,,,,,,,,,,,,,,,,,,,,,,,,,,,,,,,,,,,,,,,,,,,,,
,,,,,V3_097,19,Female,2025-02-04_13h34.37.580,jersey_experiment_5_v3,2023.2.2,Win32,85.47008547,11.9339,27.0042,return,15.0594,,,,,,,,,,,,,,,,,,,,,,,,,,,,,,,,,,,,,,,,,,,,,,,,,,,,,,,,,,,,,,,,,,,,,,,,,,
,,,,,V3_097,19,Female,2025-02-04_13h34.37.580,jersey_experiment_5_v3,2023.2.2,Win32,85.47008547,,,,,,27.0043,34.4364,return,7.392,,,,,,,,,,,,,,,,,,,,,,,,,,,,,,,,,,,,,,,,,,,,,,,,,,,,,,,,,,,,,,,,,,,,,
,,,,,V3_097,19,Female,2025-02-04_13h34.37.580,jersey_experiment_5_v3,2023.2.2,Win32,85.47008547,,,,,,,,,,,34.4365,52.1075,return,17.6603,,,,,,,,,,,,,,,,,,,,,,,,,,,,,,,,,,,,,,,,,,,,,,,,,,,,,,,,,,,,,,,,
,,,,,V3_097,19,Female,2025-02-04_13h34.37.580,jersey_experiment_5_v3,2023.2.2,Win32,85.47008547,,,,,,,,,,,,,,,,52.1103,53.4133,53.4136,61.755,return,3.6614,,99.47916667,0,0,0,43,1,FBP-OG-19.png,0.43,1.2,44,0.5,,,,,,,,,,,,,,,,,,,,,,,,,,,,,,,,,,,,,,,,,,,,,
,,,,,V3_097,19,Female,2025-02-04_13h34.37.580,jersey_experiment_5_v3,2023.2.2,Win32,85.47008547,,,,,,,,,,,,,,,,61.7554,63.3079,63.3079,68.1314,return,0.9691,,99.34895833,0,1,1,14,1,FBP-YG-91.png,0.45,1.2,15,0.75,,,,,,,,,,,,,,,,,,,,,,,,,,,,,,,,,,,,,,,,,,,,,
,,,,,V3_097,19,Female,2025-02-04_13h34.37.580,jersey_experiment_5_v3,2023.2.2,Win32,85.47008547,,,,,,,,,,,,,,,,68.1317,69.6846,69.6847,72.9317,return,1.2051,,74.73958333,0,2,2,58,1,FBP-RB-19.png,0.43,1.2,59,0.75,,,,,,,,,,,,,,,,,,,,,,,,,,,,,,,,,,,,,,,,,,,,,
,,,,,V3_097,19,Female,2025-02-04_13h34.37.580,jersey_experiment_5_v3,2023.2.2,Win32,85.47008547,,,,,,,,,,,,,,,,72.932,74.4847,74.4848,77.5318,return,0.9884,,25.52083333,0,3,3,5,1,FBP-YG-81.png,0.35,1.2,6,0.75,,,,,,,,,,,,,,,,,,,,,,,,,,,,,,,,,,,,,,,,,,,,,
,,,,,V3_097,19,Female,2025-02-04_13h34.37.580,jersey_experiment_5_v3,2023.2.2,Win32,85.47008547,,,,,,,,,,,,,,,,77.532,79.0849,79.0849,82.6027,return,1.0034,,99.73958333,0,4,4,18,1,FBP-PT-17.png,0.43,1.2,19,0.75,,,,,,,,,,,,,,,,,,,,,,,,,,,,,,,,,,,,,,,,,,,,,
,,,,,V3_097,19,Female,2025-02-04_13h34.37.580,jersey_experiment_5_v3,2023.2.2,Win32,85.47008547,,,,,,,,,,,,,,,,82.6029,83.8967,83.8968,87.6734,return,0.8552,,25.390625,0,5,5,36,1,FBP-OG-18.png,0.37,1.2,37,0.5,,,,,,,,,,,,,,,,,,,,,,,,,,,,,,,,,,,,,,,,,,,,,
,,,,,V3_097,19,Female,2025-02-04_13h34.37.580,jersey_experiment_5_v3,2023.2.2,Win32,85.47008547,,,,,,,,,,,,,,,,87.6735,89.2264,89.2264,91.7794,return,0.9359,,49.609375,0,6,6,17,1,FBP-PT-17.png,0.4,1.2,18,0.75,,,,,,,,,,,,,,,,,,,,,,,,,,,,,,,,,,,,,,,,,,,,,
,,,,,V3_097,19,Female,2025-02-04_13h34.37.580,jersey_experiment_5_v3,2023.2.2,Win32,85.47008547,,,,,,,,,,,,,,,,91.7796,93.3325,93.3325,100.4738,return,1.2579,,99.73958333,0,7,7,19,1,FBP-PT-17.png,0.45,1.2,20,0.75,,,,,,,,,,,,,,,,,,,,,,,,,,,,,,,,,,,,,,,,,,,,,
,,,,,V3_097,19,Female,2025-02-04_13h34.37.580,jersey_experiment_5_v3,2023.2.2,Win32,85.47008547,,,,,,,,,,,,,,,,100.474,102.0268,102.0269,106.8388,return,3.0268,,49.609375,0,8,8,16,1,FBP-PT-17.png,0.37,1.2,17,0.75,,,,,,,,,,,,,,,,,,,,,,,,,,,,,,,,,,,,,,,,,,,,,
,,,,,V3_097,19,Female,2025-02-04_13h34.37.580,jersey_experiment_5_v3,2023.2.2,Win32,85.47008547,,,,,,,,,,,,,,,,106.839,108.3918,108.3918,111.0625,return,1.5651,,49.86979167,0,9,9,26,1,FBP-PT-19.png,0.37,1.2,27,0.75,,,,,,,,,,,,,,,,,,,,,,,,,,,,,,,,,,,,,,,,,,,,,
,,,,,V3_097,19,Female,2025-02-04_13h34.37.580,jersey_experiment_5_v3,2023.2.2,Win32,85.47008547,,,,,,,,,,,,,,,,111.0628,112.6162,112.6162,114.9686,return,0.8355,,99.73958333,0,10,10,59,1,FBP-RB-19.png,0.45,1.2,60,0.75,,,,,,,,,,,,,,,,,,,,,,,,,,,,,,,,,,,,,,,,,,,,,
,,,,,V3_097,19,Female,2025-02-04_13h34.37.580,jersey_experiment_5_v3,2023.2.2,Win32,85.47008547,,,,,,,,,,,,,,,,114.9688,116.2626,116.2627,118.651,return,0.8708,,75,0,11,11,32,1,FBP-OG-17.png,0.4,1.2,33,0.5,,,,,,,,,,,,,,,,,,,,,,,,,,,,,,,,,,,,,,,,,,,,,
,,,,,V3_097,19,Female,2025-02-04_13h34.37.580,jersey_experiment_5_v3,2023.2.2,Win32,85.47008547,,,,,,,,,,,,,,,,118.6512,120.2041,120.2042,122.6041,return,0.7427,,24.86979167,0,12,12,10,1,FBP-YG-91.png,0.35,1.2,11,0.75,,,,,,,,,,,,,,,,,,,,,,,,,,,,,,,,,,,,,,,,,,,,,
,,,,,V3_097,19,Female,2025-02-04_13h34.37.580,jersey_experiment_5_v3,2023.2.2,Win32,85.47008547,,,,,,,,,,,,,,,,122.6043,124.1571,124.1571,128.6631,return,0.7794,,25,0,13,13,25,1,FBP-PT-19.png,0.35,1.2,26,0.75,,,,,,,,,,,,,,,,,,,,,,,,,,,,,,,,,,,,,,,,,,,,,
,,,,,V3_097,19,Female,2025-02-04_13h34.37.580,jersey_experiment_5_v3,2023.2.2,Win32,85.47008547,,,,,,,,,,,,,,,,128.6635,130.2161,130.2162,133.1575,return,1.0487,,74.34895833,0,14,14,12,1,FBP-YG-91.png,0.4,1.2,13,0.75,,,,,,,,,,,,,,,,,,,,,,,,,,,,,,,,,,,,,,,,,,,,,
,,,,,V3_097,19,Female,2025-02-04_13h34.37.580,jersey_experiment_5_v3,2023.2.2,Win32,85.47008547,,,,,,,,,,,,,,,,133.1578,134.7106,134.7106,136.181,return,0.464,,50.26041667,0,15,15,51,1,FBP-RB-18.png,0.37,1.2,52,0.75,,,,,,,,,,,,,,,,,,,,,,,,,,,,,,,,,,,,,,,,,,,,,
,,,,,V3_097,19,Female,2025-02-04_13h34.37.580,jersey_experiment_5_v3,2023.2.2,Win32,85.47008547,,,,,,,,,,,,,,,,136.1812,137.4752,137.4753,140.0402,return,0.1882,,25.52083333,0,16,16,35,1,FBP-OG-18.png,0.35,1.2,36,0.5,,,,,,,,,,,,,,,,,,,,,,,,,,,,,,,,,,,,,,,,,,,,,
,,,,,V3_097,19,Female,2025-02-04_13h34.37.580,jersey_experiment_5_v3,2023.2.2,Win32,85.47008547,,,,,,,,,,,,,,,,140.0404,141.593,141.593,143.052,return,0.3765,,24.34895833,0,17,17,55,1,FBP-RB-19.png,0.35,1.2,56,0.75,,,,,,,,,,,,,,,,,,,,,,,,,,,,,,,,,,,,,,,,,,,,,
,,,,,V3_097,19,Female,2025-02-04_13h34.37.580,jersey_experiment_5_v3,2023.2.2,Win32,85.47008547,,,,,,,,,,,,,,,,143.0522,144.3462,144.3463,145.5462,return,0.3292,,21.875,0,18,18,30,1,FBP-OG-17.png,0.35,1.2,31,0.5,,,,,,,,,,,,,,,,,,,,,,,,,,,,,,,,,,,,,,,,,,,,,
,,,,,V3_097,19,Female,2025-02-04_13h34.37.580,jersey_experiment_5_v3,2023.2.2,Win32,85.47008547,,,,,,,,,,,,,,,,145.5464,147.0992,147.0992,149.4758,return,0.3241,,99.609375,0,19,19,54,1,FBP-RB-18.png,0.45,1.2,55,0.75,,,,,,,,,,,,,,,,,,,,,,,,,,,,,,,,,,,,,,,,,,,,,
,,,,,V3_097,19,Female,2025-02-04_13h34.37.580,jersey_experiment_5_v3,2023.2.2,Win32,85.47008547,,,,,,,,,,,,,,,,149.476,151.0288,151.0288,152.4877,return,0.2344,,99.34895833,0,20,20,53,1,FBP-RB-18.png,0.43,1.2,54,0.75,,,,,,,,,,,,,,,,,,,,,,,,,,,,,,,,,,,,,,,,,,,,,
,,,,,V3_097,19,Female,2025-02-04_13h34.37.580,jersey_experiment_5_v3,2023.2.2,Win32,85.47008547,,,,,,,,,,,,,,,,152.4879,154.0405,154.0406,155.6408,return,0.1789,,24.08854167,0,21,21,45,1,FBP-RB-17.png,0.35,1.2,46,0.75,,,,,,,,,,,,,,,,,,,,,,,,,,,,,,,,,,,,,,,,,,,,,
,,,,,V3_097,19,Female,2025-02-04_13h34.37.580,jersey_experiment_5_v3,2023.2.2,Win32,85.47008547,,,,,,,,,,,,,,,,155.641,156.9349,156.9349,159.229,return,0.222,,50.390625,0,22,22,37,1,FBP-OG-18.png,0.4,1.2,38,0.5,,,,,,,,,,,,,,,,,,,,,,,,,,,,,,,,,,,,,,,,,,,,,
,,,,,V3_097,19,Female,2025-02-04_13h34.37.580,jersey_experiment_5_v3,2023.2.2,Win32,85.47008547,,,,,,,,,,,,,,,,159.2292,160.782,160.7821,162.135,return,0.2268,,99.86979167,0,23,23,29,1,FBP-PT-19.png,0.45,1.2,30,0.75,,,,,,,,,,,,,,,,,,,,,,,,,,,,,,,,,,,,,,,,,,,,,
,,,,,V3_097,19,Female,2025-02-04_13h34.37.580,jersey_experiment_5_v3,2023.2.2,Win32,85.47008547,,,,,,,,,,,,,,,,162.1353,163.6881,163.6881,165.4293,return,0.3462,,49.86979167,0,24,24,20,1,FBP-PT-18.png,0.35,1.2,21,0.75,,,,,,,,,,,,,,,,,,,,,,,,,,,,,,,,,,,,,,,,,,,,,
,,,,,V3_097,19,Female,2025-02-04_13h34.37.580,jersey_experiment_5_v3,2023.2.2,Win32,85.47008547,,,,,,,,,,,,,,,,165.4295,166.9822,166.9823,168.9353,return,0.1877,,38.54166667,0,25,25,56,1,FBP-RB-19.png,0.37,1.2,57,0.75,,,,,,,,,,,,,,,,,,,,,,,,,,,,,,,,,,,,,,,,,,,,,
,,,,,V3_097,19,Female,2025-02-04_13h34.37.580,jersey_experiment_5_v3,2023.2.2,Win32,85.47008547,,,,,,,,,,,,,,,,168.9355,170.2295,170.2295,172.1707,return,0.212,,88.671875,0,26,26,39,1,FBP-OG-18.png,0.45,1.2,40,0.5,,,,,,,,,,,,,,,,,,,,,,,,,,,,,,,,,,,,,,,,,,,,,
,,,,,V3_097,19,Female,2025-02-04_13h34.37.580,jersey_experiment_5_v3,2023.2.2,Win32,85.47008547,,,,,,,,,,,,,,,,172.1709,173.7237,173.7238,177.3239,return,2.3061,,75.91145833,0,27,27,3,1,FBP-YG-71.png,0.43,1.2,4,0.75,,,,,,,,,,,,,,,,,,,,,,,,,,,,,,,,,,,,,,,,,,,,,
,,,,,V3_097,19,Female,2025-02-04_13h34.37.580,jersey_experiment_5_v3,2023.2.2,Win32,85.47008547,,,,,,,,,,,,,,,,177.3241,178.8768,178.8768,181.3711,return,0.2121,,69.140625,0,28,28,47,1,FBP-RB-17.png,0.4,1.2,48,0.75,,,,,,,,,,,,,,,,,,,,,,,,,,,,,,,,,,,,,,,,,,,,,
,,,,,V3_097,19,Female,2025-02-04_13h34.37.580,jersey_experiment_5_v3,2023.2.2,Win32,85.47008547,,,,,,,,,,,,,,,,181.3713,182.9241,182.9242,184.9359,return,0.1645,,18.88020833,0,29,29,15,1,FBP-PT-17.png,0.35,1.2,16,0.75,,,,,,,,,,,,,,,,,,,,,,,,,,,,,,,,,,,,,,,,,,,,,
,,,,,V3_097,19,Female,2025-02-04_13h34.37.580,jersey_experiment_5_v3,2023.2.2,Win32,85.47008547,,,,,,,,,,,,,,,,184.936,186.2301,186.2301,187.9008,return,0.1416,,91.40625,0,30,30,38,1,FBP-OG-18.png,0.43,1.2,39,0.5,,,,,,,,,,,,,,,,,,,,,,,,,,,,,,,,,,,,,,,,,,,,,
,,,,,V3_097,19,Female,2025-02-04_13h34.37.580,jersey_experiment_5_v3,2023.2.2,Win32,85.47008547,,,,,,,,,,,,,,,,187.901,189.4538,189.4539,190.3008,return,0.0838,,97.52604167,0,31,31,8,1,FBP-YG-81.png,0.43,1.2,9,0.75,,,,,,,,,,,,,,,,,,,,,,,,,,,,,,,,,,,,,,,,,,,,,
,,,,,V3_097,19,Female,2025-02-04_13h34.37.580,jersey_experiment_5_v3,2023.2.2,Win32,85.47008547,,,,,,,,,,,,,,,,190.301,191.5951,191.5951,192.4422,return,0.0385,,98.56770833,0,32,32,33,1,FBP-OG-17.png,0.43,1.2,34,0.5,,,,,,,,,,,,,,,,,,,,,,,,,,,,,,,,,,,,,,,,,,,,,
,,,,,V3_097,19,Female,2025-02-04_13h34.37.580,jersey_experiment_5_v3,2023.2.2,Win32,85.47008547,,,,,,,,,,,,,,,,192.4423,193.995,193.995,195.5009,return,0.1393,,25,0,33,33,6,1,FBP-YG-81.png,0.37,1.2,7,0.75,,,,,,,,,,,,,,,,,,,,,,,,,,,,,,,,,,,,,,,,,,,,,
,,,,,V3_097,19,Female,2025-02-04_13h34.37.580,jersey_experiment_5_v3,2023.2.2,Win32,85.47008547,,,,,,,,,,,,,,,,195.5012,197.054,197.0541,198.3718,return,0.1594,,86.71875,0,34,34,28,1,FBP-PT-19.png,0.43,1.2,29,0.75,,,,,,,,,,,,,,,,,,,,,,,,,,,,,,,,,,,,,,,,,,,,,
,,,,,V3_097,19,Female,2025-02-04_13h34.37.580,jersey_experiment_5_v3,2023.2.2,Win32,85.47008547,,,,,,,,,,,,,,,,198.372,199.6658,199.6659,201.0188,return,0.1653,,24.86979167,0,35,35,40,1,FBP-OG-19.png,0.35,1.2,41,0.5,,,,,,,,,,,,,,,,,,,,,,,,,,,,,,,,,,,,,,,,,,,,,
,,,,,V3_097,19,Female,2025-02-04_13h34.37.580,jersey_experiment_5_v3,2023.2.2,Win32,85.47008547,,,,,,,,,,,,,,,,201.0191,202.5718,202.5718,203.6542,return,0.153,,36.97916667,0,36,36,11,1,FBP-YG-91.png,0.37,1.2,12,0.75,,,,,,,,,,,,,,,,,,,,,,,,,,,,,,,,,,,,,,,,,,,,,
,,,,,V3_097,19,Female,2025-02-04_13h34.37.580,jersey_experiment_5_v3,2023.2.2,Win32,85.47008547,,,,,,,,,,,,,,,,203.6544,204.9482,204.9483,206.0544,return,0.0981,,61.84895833,0,37,37,42,1,FBP-OG-19.png,0.4,1.2,43,0.5,,,,,,,,,,,,,,,,,,,,,,,,,,,,,,,,,,,,,,,,,,,,,
,,,,,V3_097,19,Female,2025-02-04_13h34.37.580,jersey_experiment_5_v3,2023.2.2,Win32,85.47008547,,,,,,,,,,,,,,,,206.0545,207.3485,207.3485,208.4662,return,0.2163,,50.78125,0,38,38,31,1,FBP-OG-17.png,0.37,1.2,32,0.5,,,,,,,,,,,,,,,,,,,,,,,,,,,,,,,,,,,,,,,,,,,,,
,,,,,V3_097,19,Female,2025-02-04_13h34.37.580,jersey_experiment_5_v3,2023.2.2,Win32,85.47008547,,,,,,,,,,,,,,,,208.4664,210.0193,210.0193,212.1487,return,0.3114,,99.73958333,0,39,39,9,1,FBP-YG-81.png,0.45,1.2,10,0.75,,,,,,,,,,,,,,,,,,,,,,,,,,,,,,,,,,,,,,,,,,,,,
,,,,,V3_097,19,Female,2025-02-04_13h34.37.580,jersey_experiment_5_v3,2023.2.2,Win32,85.47008547,,,,,,,,,,,,,,,,212.1489,213.7017,213.7018,216.4077,return,0.9437,,75.52083333,0,40,40,52,1,FBP-RB-18.png,0.4,1.2,53,0.75,,,,,,,,,,,,,,,,,,,,,,,,,,,,,,,,,,,,,,,,,,,,,
,,,,,V3_097,19,Female,2025-02-04_13h34.37.580,jersey_experiment_5_v3,2023.2.2,Win32,85.47008547,,,,,,,,,,,,,,,,216.408,217.7018,217.7019,219.4783,return,0.1095,,62.23958333,0,41,41,41,1,FBP-OG-19.png,0.37,1.2,42,0.5,,,,,,,,,,,,,,,,,,,,,,,,,,,,,,,,,,,,,,,,,,,,,
,,,,,V3_097,19,Female,2025-02-04_13h34.37.580,jersey_experiment_5_v3,2023.2.2,Win32,85.47008547,,,,,,,,,,,,,,,,219.4786,221.0316,221.0316,221.8432,return,0.1482,,74.86979167,0,42,42,22,1,FBP-PT-18.png,0.4,1.2,23,0.75,,,,,,,,,,,,,,,,,,,,,,,,,,,,,,,,,,,,,,,,,,,,,
,,,,,V3_097,19,Female,2025-02-04_13h34.37.580,jersey_experiment_5_v3,2023.2.2,Win32,85.47008547,,,,,,,,,,,,,,,,221.8435,223.3962,223.3962,224.2786,return,0.1907,,99.34895833,0,43,43,24,1,FBP-PT-18.png,0.45,1.2,25,0.75,,,,,,,,,,,,,,,,,,,,,,,,,,,,,,,,,,,,,,,,,,,,,
,,,,,V3_097,19,Female,2025-02-04_13h34.37.580,jersey_experiment_5_v3,2023.2.2,Win32,85.47008547,,,,,,,,,,,,,,,,224.279,225.8316,225.8317,228.0081,return,0.8258,,9.635416667,0,44,44,50,1,FBP-RB-18.png,0.35,1.2,51,0.75,,,,,,,,,,,,,,,,,,,,,,,,,,,,,,,,,,,,,,,,,,,,,
,,,,,V3_097,19,Female,2025-02-04_13h34.37.580,jersey_experiment_5_v3,2023.2.2,Win32,85.47008547,,,,,,,,,,,,,,,,228.0083,229.5612,229.5612,230.6317,return,0.1884,,99.86979167,0,45,45,4,1,FBP-YG-71.png,0.45,1.2,5,0.75,,,,,,,,,,,,,,,,,,,,,,,,,,,,,,,,,,,,,,,,,,,,,
,,,,,V3_097,19,Female,2025-02-04_13h34.37.580,jersey_experiment_5_v3,2023.2.2,Win32,85.47008547,,,,,,,,,,,,,,,,230.632,232.1847,232.1847,232.8553,return,0.1911,,99.86979167,0,46,46,13,1,FBP-YG-91.png,0.43,1.2,14,0.75,,,,,,,,,,,,,,,,,,,,,,,,,,,,,,,,,,,,,,,,,,,,,
,,,,,V3_097,19,Female,2025-02-04_13h34.37.580,jersey_experiment_5_v3,2023.2.2,Win32,85.47008547,,,,,,,,,,,,,,,,232.8555,234.4083,234.4084,234.9848,return,0.1577,,99.86979167,0,47,47,49,1,FBP-RB-17.png,0.45,1.2,50,0.75,,,,,,,,,,,,,,,,,,,,,,,,,,,,,,,,,,,,,,,,,,,,,
,,,,,V3_097,19,Female,2025-02-04_13h34.37.580,jersey_experiment_5_v3,2023.2.2,Win32,85.47008547,,,,,,,,,,,,,,,,234.985,236.5378,236.5378,237.1379,return,0.3141,,99.86979167,0,48,48,48,1,FBP-RB-17.png,0.43,1.2,49,0.75,,,,,,,,,,,,,,,,,,,,,,,,,,,,,,,,,,,,,,,,,,,,,
,,,,,V3_097,19,Female,2025-02-04_13h34.37.580,jersey_experiment_5_v3,2023.2.2,Win32,85.47008547,,,,,,,,,,,,,,,,237.1381,238.6908,238.6908,240.2438,return,0.1239,,33.33333333,0,49,49,1,1,FBP-YG-71.png,0.37,1.2,2,0.75,,,,,,,,,,,,,,,,,,,,,,,,,,,,,,,,,,,,,,,,,,,,,
,,,,,V3_097,19,Female,2025-02-04_13h34.37.580,jersey_experiment_5_v3,2023.2.2,Win32,85.47008547,,,,,,,,,,,,,,,,240.2441,241.7968,241.7969,243.3499,return,0.4134,,62.109375,0,50,50,57,1,FBP-RB-19.png,0.4,1.2,58,0.75,,,,,,,,,,,,,,,,,,,,,,,,,,,,,,,,,,,,,,,,,,,,,
,,,,,V3_097,19,Female,2025-02-04_13h34.37.580,jersey_experiment_5_v3,2023.2.2,Win32,85.47008547,,,,,,,,,,,,,,,,243.3501,244.9027,244.9027,246.7971,return,0.062,,74.73958333,0,51,51,2,1,FBP-YG-71.png,0.4,1.2,3,0.75,,,,,,,,,,,,,,,,,,,,,,,,,,,,,,,,,,,,,,,,,,,,,
,,,,,V3_097,19,Female,2025-02-04_13h34.37.580,jersey_experiment_5_v3,2023.2.2,Win32,85.47008547,,,,,,,,,,,,,,,,246.7973,248.3499,248.35,249.5147,return,0.118,,50.390625,0,52,52,21,1,FBP-PT-18.png,0.37,1.2,22,0.75,,,,,,,,,,,,,,,,,,,,,,,,,,,,,,,,,,,,,,,,,,,,,
,,,,,V3_097,19,Female,2025-02-04_13h34.37.580,jersey_experiment_5_v3,2023.2.2,Win32,85.47008547,,,,,,,,,,,,,,,,249.5149,251.0678,251.0678,252.1384,return,0.0838,,33.85416667,0,53,53,46,1,FBP-RB-17.png,0.37,1.2,47,0.75,,,,,,,,,,,,,,,,,,,,,,,,,,,,,,,,,,,,,,,,,,,,,
,,,,,V3_097,19,Female,2025-02-04_13h34.37.580,jersey_experiment_5_v3,2023.2.2,Win32,85.47008547,,,,,,,,,,,,,,,,252.1387,253.6914,253.6915,254.7267,return,0.0155,,24.86979167,0,54,54,0,1,FBP-YG-71.png,0.35,1.2,1,0.75,,,,,,,,,,,,,,,,,,,,,,,,,,,,,,,,,,,,,,,,,,,,,
,,,,,V3_097,19,Female,2025-02-04_13h34.37.580,jersey_experiment_5_v3,2023.2.2,Win32,85.47008547,,,,,,,,,,,,,,,,254.727,256.2797,256.2797,257.6917,return,0.1319,,49.34895833,0,55,55,7,1,FBP-YG-81.png,0.4,1.2,8,0.75,,,,,,,,,,,,,,,,,,,,,,,,,,,,,,,,,,,,,,,,,,,,,
,,,,,V3_097,19,Female,2025-02-04_13h34.37.580,jersey_experiment_5_v3,2023.2.2,Win32,85.47008547,,,,,,,,,,,,,,,,257.6918,258.9858,258.9859,261.3034,return,0.0339,,87.76041667,0,56,56,44,1,FBP-OG-19.png,0.45,1.2,45,0.5,,,,,,,,,,,,,,,,,,,,,,,,,,,,,,,,,,,,,,,,,,,,,
,,,,,V3_097,19,Female,2025-02-04_13h34.37.580,jersey_experiment_5_v3,2023.2.2,Win32,85.47008547,,,,,,,,,,,,,,,,261.3036,262.8564,262.8565,263.7506,return,0.1535,,74.08854167,0,57,57,27,1,FBP-PT-19.png,0.4,1.2,28,0.75,,,,,,,,,,,,,,,,,,,,,,,,,,,,,,,,,,,,,,,,,,,,,
,,,,,V3_097,19,Female,2025-02-04_13h34.37.580,jersey_experiment_5_v3,2023.2.2,Win32,85.47008547,,,,,,,,,,,,,,,,263.7509,265.3037,265.3037,266.2801,return,0.1332,,92.44791667,0,58,58,23,1,FBP-PT-18.png,0.43,1.2,24,0.75,,,,,,,,,,,,,,,,,,,,,,,,,,,,,,,,,,,,,,,,,,,,,
,,,,,V3_097,19,Female,2025-02-04_13h34.37.580,jersey_experiment_5_v3,2023.2.2,Win32,85.47008547,,,,,,,,,,,,,,,,266.2803,267.5743,267.5744,268.5627,return,0.1948,,99.73958333,0,59,59,34,1,FBP-OG-17.png,0.45,1.2,35,0.5,,,,,,,,,,,,,,,,,,,,,,,,,,,,,,,,,,,,,,,,,,,,,
,,,,,V3_097,19,Female,2025-02-04_13h34.37.580,jersey_experiment_5_v3,2023.2.2,Win32,85.47008547,,,,,,,,,,,,,,,,268.5647,270.1156,270.1156,271.3039,return,0.1521,,75.52083333,,,,,,FBP-PT-81.png,0.4,1.2,23,0.75,0,0,0,22,1,,,,,,,,,,,,,,,,,,,,,,,,,,,,,,,,,,,,,,,,
,,,,,V3_097,19,Female,2025-02-04_13h34.37.580,jersey_experiment_5_v3,2023.2.2,Win32,85.47008547,,,,,,,,,,,,,,,,271.3043,272.857,272.857,273.9275,return,0.2026,,98.30729167,,,,,,FBP-RB-71.png,0.45,1.2,50,0.75,0,1,1,49,1,,,,,,,,,,,,,,,,,,,,,,,,,,,,,,,,,,,,,,,,
,,,,,V3_097,19,Female,2025-02-04_13h34.37.580,jersey_experiment_5_v3,2023.2.2,Win32,85.47008547,,,,,,,,,,,,,,,,273.9279,275.4805,275.4806,276.6688,return,0.1992,,99.86979167,,,,,,FBP-YG-19.png,0.45,1.2,15,0.75,0,2,2,14,1,,,,,,,,,,,,,,,,,,,,,,,,,,,,,,,,,,,,,,,,
,,,,,V3_097,19,Female,2025-02-04_13h34.37.580,jersey_experiment_5_v3,2023.2.2,Win32,85.47008547,,,,,,,,,,,,,,,,276.6691,278.2217,278.2217,280.1396,return,0.2986,,1.302083333,,,,,,FBP-YG-17.png,0.35,1.2,1,0.75,0,3,3,0,1,,,,,,,,,,,,,,,,,,,,,,,,,,,,,,,,,,,,,,,,
,,,,,V3_097,19,Female,2025-02-04_13h34.37.580,jersey_experiment_5_v3,2023.2.2,Win32,85.47008547,,,,,,,,,,,,,,,,280.1399,281.6925,281.6926,282.9042,return,0.1518,,73.56770833,,,,,,FBP-RB-71.png,0.43,1.2,49,0.75,0,4,4,48,1,,,,,,,,,,,,,,,,,,,,,,,,,,,,,,,,,,,,,,,,
,,,,,V3_097,19,Female,2025-02-04_13h34.37.580,jersey_experiment_5_v3,2023.2.2,Win32,85.47008547,,,,,,,,,,,,,,,,282.9046,284.1984,284.1985,285.3514,return,0.1911,,98.56770833,,,,,,FBP-OG-91.png,0.45,1.2,45,0.5,0,5,5,44,1,,,,,,,,,,,,,,,,,,,,,,,,,,,,,,,,,,,,,,,,
,,,,,V3_097,19,Female,2025-02-04_13h34.37.580,jersey_experiment_5_v3,2023.2.2,Win32,85.47008547,,,,,,,,,,,,,,,,285.3516,286.9045,286.9046,287.8104,return,0.146,,49.86979167,,,,,,FBP-RB-81.png,0.4,1.2,53,0.75,0,6,6,52,1,,,,,,,,,,,,,,,,,,,,,,,,,,,,,,,,,,,,,,,,
,,,,,V3_097,19,Female,2025-02-04_13h34.37.580,jersey_experiment_5_v3,2023.2.2,Win32,85.47008547,,,,,,,,,,,,,,,,287.8106,289.3633,289.3633,290.2928,return,0.0995,,99.609375,,,,,,FBP-RB-91.png,0.45,1.2,60,0.75,0,7,7,59,1,,,,,,,,,,,,,,,,,,,,,,,,,,,,,,,,,,,,,,,,
,,,,,V3_097,19,Female,2025-02-04_13h34.37.580,jersey_experiment_5_v3,2023.2.2,Win32,85.47008547,,,,,,,,,,,,,,,,290.2931,291.8458,291.8459,292.3635,return,0.0943,,99.73958333,,,,,,FBP-PT-71.png,0.45,1.2,20,0.75,0,8,8,19,1,,,,,,,,,,,,,,,,,,,,,,,,,,,,,,,,,,,,,,,,
,,,,,V3_097,19,Female,2025-02-04_13h34.37.580,jersey_experiment_5_v3,2023.2.2,Win32,85.47008547,,,,,,,,,,,,,,,,292.3637,293.9165,293.9166,295.1871,return,0.0648,,23.56770833,,,,,,FBP-RB-71.png,0.35,1.2,46,0.75,0,9,9,45,1,,,,,,,,,,,,,,,,,,,,,,,,,,,,,,,,,,,,,,,,
,,,,,V3_097,19,Female,2025-02-04_13h34.37.580,jersey_experiment_5_v3,2023.2.2,Win32,85.47008547,,,,,,,,,,,,,,,,295.1873,296.7285,296.7285,297.799,return,0.0501,,66.53645833,,,,,,FBP-YG-18.png,0.43,1.2,9,0.75,0,10,10,8,1,,,,,,,,,,,,,,,,,,,,,,,,,,,,,,,,,,,,,,,,
,,,,,V3_097,19,Female,2025-02-04_13h34.37.580,jersey_experiment_5_v3,2023.2.2,Win32,85.47008547,,,,,,,,,,,,,,,,297.7992,299.3519,299.3519,300.0817,return,0.0562,,73.69791667,,,,,,FBP-YG-18.png,0.4,1.2,8,0.75,0,11,11,7,1,,,,,,,,,,,,,,,,,,,,,,,,,,,,,,,,,,,,,,,,
,,,,,V3_097,19,Female,2025-02-04_13h34.37.580,jersey_experiment_5_v3,2023.2.2,Win32,85.47008547,,,,,,,,,,,,,,,,300.0821,301.6344,301.6345,302.5639,return,0.0417,,64.0625,,,,,,FBP-YG-17.png,0.4,1.2,3,0.75,0,12,12,2,1,,,,,,,,,,,,,,,,,,,,,,,,,,,,,,,,,,,,,,,,
,,,,,V3_097,19,Female,2025-02-04_13h34.37.580,jersey_experiment_5_v3,2023.2.2,Win32,85.47008547,,,,,,,,,,,,,,,,302.5641,304.1169,304.1169,304.9876,return,0.0621,,63.15104167,,,,,,FBP-RB-91.png,0.4,1.2,58,0.75,0,13,13,57,1,,,,,,,,,,,,,,,,,,,,,,,,,,,,,,,,,,,,,,,,
,,,,,V3_097,19,Female,2025-02-04_13h34.37.580,jersey_experiment_5_v3,2023.2.2,Win32,85.47008547,,,,,,,,,,,,,,,,304.9878,306.5404,306.5404,307.8817,return,0.0395,,18.61979167,,,,,,FBP-PT-81.png,0.35,1.2,21,0.75,0,14,14,20,1,,,,,,,,,,,,,,,,,,,,,,,,,,,,,,,,,,,,,,,,
,,,,,V3_097,19,Female,2025-02-04_13h34.37.580,jersey_experiment_5_v3,2023.2.2,Win32,85.47008547,,,,,,,,,,,,,,,,307.8821,309.1759,309.1759,310.2584,return,0.051,,23.95833333,,,,,,FBP-OG-71.png,0.37,1.2,32,0.5,0,15,15,31,1,,,,,,,,,,,,,,,,,,,,,,,,,,,,,,,,,,,,,,,,
,,,,,V3_097,19,Female,2025-02-04_13h34.37.580,jersey_experiment_5_v3,2023.2.2,Win32,85.47008547,,,,,,,,,,,,,,,,310.2586,311.5524,311.5524,312.9406,return,0.095,,78.64583333,,,,,,FBP-OG-81.png,0.45,1.2,40,0.5,0,16,16,39,1,,,,,,,,,,,,,,,,,,,,,,,,,,,,,,,,,,,,,,,,
,,,,,V3_097,19,Female,2025-02-04_13h34.37.580,jersey_experiment_5_v3,2023.2.2,Win32,85.47008547,,,,,,,,,,,,,,,,312.9409,314.2349,314.2349,315.2349,return,0.0158,,42.96875,,,,,,FBP-OG-91.png,0.37,1.2,42,0.5,0,17,17,41,1,,,,,,,,,,,,,,,,,,,,,,,,,,,,,,,,,,,,,,,,
,,,,,V3_097,19,Female,2025-02-04_13h34.37.580,jersey_experiment_5_v3,2023.2.2,Win32,85.47008547,,,,,,,,,,,,,,,,315.2352,316.7879,316.788,318.9646,return,0.5203,,88.93229167,,,,,,FBP-YG-18.png,0.45,1.2,10,0.75,0,18,18,9,1,,,,,,,,,,,,,,,,,,,,,,,,,,,,,,,,,,,,,,,,
,,,,,V3_097,19,Female,2025-02-04_13h34.37.580,jersey_experiment_5_v3,2023.2.2,Win32,85.47008547,,,,,,,,,,,,,,,,318.9648,320.5175,320.5176,322.9056,return,0.0582,,14.0625,,,,,,FBP-YG-18.png,0.35,1.2,6,0.75,0,19,19,5,1,,,,,,,,,,,,,,,,,,,,,,,,,,,,,,,,,,,,,,,,
,,,,,V3_097,19,Female,2025-02-04_13h34.37.580,jersey_experiment_5_v3,2023.2.2,Win32,85.47008547,,,,,,,,,,,,,,,,322.9059,324.4471,324.4472,325.8354,return,0.1178,,62.76041667,,,,,,FBP-PT-71.png,0.43,1.2,19,0.75,0,20,20,18,1,,,,,,,,,,,,,,,,,,,,,,,,,,,,,,,,,,,,,,,,
,,,,,V3_097,19,Female,2025-02-04_13h34.37.580,jersey_experiment_5_v3,2023.2.2,Win32,85.47008547,,,,,,,,,,,,,,,,325.8356,327.3884,327.3884,328.2591,return,0.0663,,74.73958333,,,,,,FBP-PT-81.png,0.43,1.2,24,0.75,0,21,21,23,1,,,,,,,,,,,,,,,,,,,,,,,,,,,,,,,,,,,,,,,,
,,,,,V3_097,19,Female,2025-02-04_13h34.37.580,jersey_experiment_5_v3,2023.2.2,Win32,85.47008547,,,,,,,,,,,,,,,,328.2593,329.8119,329.8119,330.812,return,0.0473,,85.15625,,,,,,FBP-RB-91.png,0.43,1.2,59,0.75,0,22,22,58,1,,,,,,,,,,,,,,,,,,,,,,,,,,,,,,,,,,,,,,,,
,,,,,V3_097,19,Female,2025-02-04_13h34.37.580,jersey_experiment_5_v3,2023.2.2,Win32,85.47008547,,,,,,,,,,,,,,,,330.8122,332.1061,332.1062,334.2475,return,1.3441,,81.90104167,,,,,,FBP-OG-81.png,0.43,1.2,39,0.5,0,23,23,38,1,,,,,,,,,,,,,,,,,,,,,,,,,,,,,,,,,,,,,,,,
,,,,,V3_097,19,Female,2025-02-04_13h34.37.580,jersey_experiment_5_v3,2023.2.2,Win32,85.47008547,,,,,,,,,,,,,,,,334.2477,335.8004,335.8005,336.9064,return,0.1051,,36.71875,,,,,,FBP-YG-19.png,0.35,1.2,11,0.75,0,24,24,10,1,,,,,,,,,,,,,,,,,,,,,,,,,,,,,,,,,,,,,,,,
,,,,,V3_097,19,Female,2025-02-04_13h34.37.580,jersey_experiment_5_v3,2023.2.2,Win32,85.47008547,,,,,,,,,,,,,,,,336.9067,338.2005,338.2005,339.5064,return,0.4194,,44.53125,,,,,,FBP-OG-81.png,0.37,1.2,37,0.5,0,25,25,36,1,,,,,,,,,,,,,,,,,,,,,,,,,,,,,,,,,,,,,,,,
,,,,,V3_097,19,Female,2025-02-04_13h34.37.580,jersey_experiment_5_v3,2023.2.2,Win32,85.47008547,,,,,,,,,,,,,,,,339.5066,341.0595,341.0595,342.036,return,0.1579,,47.13541667,,,,,,FBP-RB-71.png,0.37,1.2,47,0.75,0,26,26,46,1,,,,,,,,,,,,,,,,,,,,,,,,,,,,,,,,,,,,,,,,
,,,,,V3_097,19,Female,2025-02-04_13h34.37.580,jersey_experiment_5_v3,2023.2.2,Win32,85.47008547,,,,,,,,,,,,,,,,342.0363,343.5889,343.5889,344.6361,return,0.1182,,34.63541667,,,,,,FBP-PT-71.png,0.35,1.2,16,0.75,0,27,27,15,1,,,,,,,,,,,,,,,,,,,,,,,,,,,,,,,,,,,,,,,,
,,,,,V3_097,19,Female,2025-02-04_13h34.37.580,jersey_experiment_5_v3,2023.2.2,Win32,85.47008547,,,,,,,,,,,,,,,,344.6363,345.9303,345.9304,347.0833,return,0.0734,,60.80729167,,,,,,FBP-OG-71.png,0.4,1.2,33,0.5,0,28,28,32,1,,,,,,,,,,,,,,,,,,,,,,,,,,,,,,,,,,,,,,,,
,,,,,V3_097,19,Female,2025-02-04_13h34.37.580,jersey_experiment_5_v3,2023.2.2,Win32,85.47008547,,,,,,,,,,,,,,,,347.0835,348.3774,348.3774,349.2597,return,0.0941,,75.91145833,,,,,,FBP-OG-71.png,0.45,1.2,35,0.5,0,29,29,34,1,,,,,,,,,,,,,,,,,,,,,,,,,,,,,,,,,,,,,,,,
,,,,,V3_097,19,Female,2025-02-04_13h34.37.580,jersey_experiment_5_v3,2023.2.2,Win32,85.47008547,,,,,,,,,,,,,,,,349.2599,350.5539,350.554,351.4832,return,0.0618,,64.97395833,,,,,,FBP-OG-81.png,0.4,1.2,38,0.5,0,30,30,37,1,,,,,,,,,,,,,,,,,,,,,,,,,,,,,,,,,,,,,,,,
,,,,,V3_097,19,Female,2025-02-04_13h34.37.580,jersey_experiment_5_v3,2023.2.2,Win32,85.47008547,,,,,,,,,,,,,,,,351.4834,352.7774,352.7775,354.5187,return,0.0621,,30.98958333,,,,,,FBP-OG-81.png,0.35,1.2,36,0.5,0,31,31,35,1,,,,,,,,,,,,,,,,,,,,,,,,,,,,,,,,,,,,,,,,
,,,,,V3_097,19,Female,2025-02-04_13h34.37.580,jersey_experiment_5_v3,2023.2.2,Win32,85.47008547,,,,,,,,,,,,,,,,354.519,356.0718,356.0718,357.0952,return,0.0736,,73.828125,,,,,,FBP-PT-91.png,0.43,1.2,29,0.75,0,32,32,28,1,,,,,,,,,,,,,,,,,,,,,,,,,,,,,,,,,,,,,,,,
,,,,,V3_097,19,Female,2025-02-04_13h34.37.580,jersey_experiment_5_v3,2023.2.2,Win32,85.47008547,,,,,,,,,,,,,,,,357.0955,358.3895,358.3895,359.4484,return,0.0571,,45.44270833,,,,,,FBP-OG-71.png,0.35,1.2,31,0.5,0,33,33,30,1,,,,,,,,,,,,,,,,,,,,,,,,,,,,,,,,,,,,,,,,
,,,,,V3_097,19,Female,2025-02-04_13h34.37.580,jersey_experiment_5_v3,2023.2.2,Win32,85.47008547,,,,,,,,,,,,,,,,359.4487,361.0015,361.0015,361.9072,return,0.0188,,29.81770833,,,,,,FBP-RB-91.png,0.35,1.2,56,0.75,0,34,34,55,1,,,,,,,,,,,,,,,,,,,,,,,,,,,,,,,,,,,,,,,,
,,,,,V3_097,19,Female,2025-02-04_13h34.37.580,jersey_experiment_5_v3,2023.2.2,Win32,85.47008547,,,,,,,,,,,,,,,,361.9074,363.4487,363.4487,365.2603,return,0.0478,,58.33333333,,,,,,FBP-PT-91.png,0.4,1.2,28,0.75,0,35,35,27,1,,,,,,,,,,,,,,,,,,,,,,,,,,,,,,,,,,,,,,,,
,,,,,V3_097,19,Female,2025-02-04_13h34.37.580,jersey_experiment_5_v3,2023.2.2,Win32,85.47008547,,,,,,,,,,,,,,,,365.2606,366.8134,366.8134,370.0723,return,0.5177,,50.52083333,,,,,,FBP-YG-17.png,0.37,1.2,2,0.75,0,36,36,1,1,,,,,,,,,,,,,,,,,,,,,,,,,,,,,,,,,,,,,,,,
,,,,,V3_097,19,Female,2025-02-04_13h34.37.580,jersey_experiment_5_v3,2023.2.2,Win32,85.47008547,,,,,,,,,,,,,,,,370.0724,371.6254,371.6254,374.7549,return,0.147,,39.71354167,,,,,,FBP-RB-91.png,0.37,1.2,57,0.75,0,37,37,56,1,,,,,,,,,,,,,,,,,,,,,,,,,,,,,,,,,,,,,,,,
,,,,,V3_097,19,Female,2025-02-04_13h34.37.580,jersey_experiment_5_v3,2023.2.2,Win32,85.47008547,,,,,,,,,,,,,,,,374.7551,376.0491,376.0491,377.2256,return,0.026,,64.97395833,,,,,,FBP-OG-91.png,0.43,1.2,44,0.5,0,38,38,43,1,,,,,,,,,,,,,,,,,,,,,,,,,,,,,,,,,,,,,,,,
,,,,,V3_097,19,Female,2025-02-04_13h34.37.580,jersey_experiment_5_v3,2023.2.2,Win32,85.47008547,,,,,,,,,,,,,,,,377.2259,378.7786,378.7786,379.7315,return,0.0066,,48.95833333,,,,,,FBP-PT-81.png,0.37,1.2,22,0.75,0,39,39,21,1,,,,,,,,,,,,,,,,,,,,,,,,,,,,,,,,,,,,,,,,
,,,,,V3_097,19,Female,2025-02-04_13h34.37.580,jersey_experiment_5_v3,2023.2.2,Win32,85.47008547,,,,,,,,,,,,,,,,379.7317,381.2845,381.2846,382.1551,return,0.0088,,77.34375,,,,,,FBP-RB-81.png,0.43,1.2,54,0.75,0,40,40,53,1,,,,,,,,,,,,,,,,,,,,,,,,,,,,,,,,,,,,,,,,
,,,,,V3_097,19,Female,2025-02-04_13h34.37.580,jersey_experiment_5_v3,2023.2.2,Win32,85.47008547,,,,,,,,,,,,,,,,382.1554,383.7081,383.7081,385.0258,return,0.0872,,72.00520833,,,,,,FBP-PT-71.png,0.4,1.2,18,0.75,0,41,41,17,1,,,,,,,,,,,,,,,,,,,,,,,,,,,,,,,,,,,,,,,,
,,,,,V3_097,19,Female,2025-02-04_13h34.37.580,jersey_experiment_5_v3,2023.2.2,Win32,85.47008547,,,,,,,,,,,,,,,,385.026,386.5788,386.5789,387.4964,return,0.0487,,84.375,,,,,,FBP-YG-19.png,0.43,1.2,14,0.75,0,42,42,13,1,,,,,,,,,,,,,,,,,,,,,,,,,,,,,,,,,,,,,,,,
,,,,,V3_097,19,Female,2025-02-04_13h34.37.580,jersey_experiment_5_v3,2023.2.2,Win32,85.47008547,,,,,,,,,,,,,,,,387.4967,389.038,389.038,390.2496,return,0.0316,,41.66666667,,,,,,FBP-RB-81.png,0.35,1.2,51,0.75,0,43,43,50,1,,,,,,,,,,,,,,,,,,,,,,,,,,,,,,,,,,,,,,,,
,,,,,V3_097,19,Female,2025-02-04_13h34.37.580,jersey_experiment_5_v3,2023.2.2,Win32,85.47008547,,,,,,,,,,,,,,,,390.2499,391.8026,391.8026,392.9791,return,0.0542,,37.36979167,,,,,,FBP-PT-91.png,0.35,1.2,26,0.75,0,44,44,25,1,,,,,,,,,,,,,,,,,,,,,,,,,,,,,,,,,,,,,,,,
,,,,,V3_097,19,Female,2025-02-04_13h34.37.580,jersey_experiment_5_v3,2023.2.2,Win32,85.47008547,,,,,,,,,,,,,,,,392.9793,394.532,394.532,395.7085,return,0.0791,,99.73958333,,,,,,FBP-YG-17.png,0.45,1.2,5,0.75,0,45,45,4,1,,,,,,,,,,,,,,,,,,,,,,,,,,,,,,,,,,,,,,,,
,,,,,V3_097,19,Female,2025-02-04_13h34.37.580,jersey_experiment_5_v3,2023.2.2,Win32,85.47008547,,,,,,,,,,,,,,,,395.7087,397.2615,397.2615,399.9559,return,0.0652,,54.6875,,,,,,FBP-RB-81.png,0.37,1.2,52,0.75,0,46,46,51,1,,,,,,,,,,,,,,,,,,,,,,,,,,,,,,,,,,,,,,,,
,,,,,V3_097,19,Female,2025-02-04_13h34.37.580,jersey_experiment_5_v3,2023.2.2,Win32,85.47008547,,,,,,,,,,,,,,,,399.9561,401.5087,401.5087,403.0972,return,0.0563,,55.46875,,,,,,FBP-PT-71.png,0.37,1.2,17,0.75,0,47,47,16,1,,,,,,,,,,,,,,,,,,,,,,,,,,,,,,,,,,,,,,,,
,,,,,V3_097,19,Female,2025-02-04_13h34.37.580,jersey_experiment_5_v3,2023.2.2,Win32,85.47008547,,,,,,,,,,,,,,,,403.0975,404.3912,404.3912,405.3207,return,0.0706,,69.921875,,,,,,FBP-OG-91.png,0.4,1.2,43,0.5,0,48,48,42,1,,,,,,,,,,,,,,,,,,,,,,,,,,,,,,,,,,,,,,,,
,,,,,V3_097,19,Female,2025-02-04_13h34.37.580,jersey_experiment_5_v3,2023.2.2,Win32,85.47008547,,,,,,,,,,,,,,,,405.3209,406.8736,406.8737,407.9326,return,0.0477,,49.47916667,,,,,,FBP-YG-18.png,0.37,1.2,7,0.75,0,49,49,6,1,,,,,,,,,,,,,,,,,,,,,,,,,,,,,,,,,,,,,,,,
,,,,,V3_097,19,Female,2025-02-04_13h34.37.580,jersey_experiment_5_v3,2023.2.2,Win32,85.47008547,,,,,,,,,,,,,,,,407.9329,409.4856,409.4856,410.5797,return,0.0536,,54.42708333,,,,,,FBP-PT-91.png,0.37,1.2,27,0.75,0,50,50,26,1,,,,,,,,,,,,,,,,,,,,,,,,,,,,,,,,,,,,,,,,
,,,,,V3_097,19,Female,2025-02-04_13h34.37.580,jersey_experiment_5_v3,2023.2.2,Win32,85.47008547,,,,,,,,,,,,,,,,410.5799,412.1327,412.1327,413.274,return,0.0386,,69.27083333,,,,,,FBP-RB-71.png,0.4,1.2,48,0.75,0,51,51,47,1,,,,,,,,,,,,,,,,,,,,,,,,,,,,,,,,,,,,,,,,
,,,,,V3_097,19,Female,2025-02-04_13h34.37.580,jersey_experiment_5_v3,2023.2.2,Win32,85.47008547,,,,,,,,,,,,,,,,413.2743,414.827,414.827,416.2271,return,0.1484,,99.73958333,,,,,,FBP-PT-81.png,0.45,1.2,25,0.75,0,52,52,24,1,,,,,,,,,,,,,,,,,,,,,,,,,,,,,,,,,,,,,,,,
,,,,,V3_097,19,Female,2025-02-04_13h34.37.580,jersey_experiment_5_v3,2023.2.2,Win32,85.47008547,,,,,,,,,,,,,,,,416.2273,417.7799,417.7799,418.4036,return,0.1676,,99.73958333,,,,,,FBP-RB-81.png,0.45,1.2,55,0.75,0,53,53,54,1,,,,,,,,,,,,,,,,,,,,,,,,,,,,,,,,,,,,,,,,
,,,,,V3_097,19,Female,2025-02-04_13h34.37.580,jersey_experiment_5_v3,2023.2.2,Win32,85.47008547,,,,,,,,,,,,,,,,418.4038,419.945,419.9451,420.8389,return,0.0741,,97.00520833,,,,,,FBP-YG-17.png,0.43,1.2,4,0.75,0,54,54,3,1,,,,,,,,,,,,,,,,,,,,,,,,,,,,,,,,,,,,,,,,
,,,,,V3_097,19,Female,2025-02-04_13h34.37.580,jersey_experiment_5_v3,2023.2.2,Win32,85.47008547,,,,,,,,,,,,,,,,420.8391,422.1331,422.1332,423.0744,return,0.102,,96.875,,,,,,FBP-OG-71.png,0.43,1.2,34,0.5,0,55,55,33,1,,,,,,,,,,,,,,,,,,,,,,,,,,,,,,,,,,,,,,,,
,,,,,V3_097,19,Female,2025-02-04_13h34.37.580,jersey_experiment_5_v3,2023.2.2,Win32,85.47008547,,,,,,,,,,,,,,,,423.0746,424.6275,424.6275,426.0509,return,0.0768,,78.125,,,,,,FBP-YG-19.png,0.4,1.2,13,0.75,0,56,56,12,1,,,,,,,,,,,,,,,,,,,,,,,,,,,,,,,,,,,,,,,,
,,,,,V3_097,19,Female,2025-02-04_13h34.37.580,jersey_experiment_5_v3,2023.2.2,Win32,85.47008547,,,,,,,,,,,,,,,,426.0512,427.604,427.604,428.3922,return,0.0599,,94.53125,,,,,,FBP-PT-91.png,0.45,1.2,30,0.75,0,57,57,29,1,,,,,,,,,,,,,,,,,,,,,,,,,,,,,,,,,,,,,,,,
,,,,,V3_097,19,Female,2025-02-04_13h34.37.580,jersey_experiment_5_v3,2023.2.2,Win32,85.47008547,,,,,,,,,,,,,,,,428.3924,429.9452,429.9452,431.1452,return,0.0717,,60.80729167,,,,,,FBP-YG-19.png,0.37,1.2,12,0.75,0,58,58,11,1,,,,,,,,,,,,,,,,,,,,,,,,,,,,,,,,,,,,,,,,
,,,,,V3_097,19,Female,2025-02-04_13h34.37.580,jersey_experiment_5_v3,2023.2.2,Win32,85.47008547,,,,,,,,,,,,,,,,431.1453,432.4394,432.4394,433.8512,return,0.0705,,34.765625,,,,,,FBP-OG-91.png,0.35,1.2,41,0.5,0,59,59,40,1,,,,,,,,,,,,,,,,,,,,,,,,,,,,,,,,,,,,,,,,
,,,,,V3_097,19,Female,2025-02-04_13h34.37.580,jersey_experiment_5_v3,2023.2.2,Win32,85.47008547,,,,,,,,,,,,,,,,,,,,,,,,,,,,,,,,,,,,,,,433.8515,553.8442,,,,,,,,,,,,,,,,,,,,,,,,,,,,,,,,,,,,,,
,,,,,V3_097,19,Female,2025-02-04_13h34.37.580,jersey_experiment_5_v3,2023.2.2,Win32,85.47008547,,,,,,,,,,,,,,,,,,,,,,,,,,,,,,,,,,,,,,,,,553.8444,561.3031,return,7.4464,,,,,,,,,,,,,,,,,,,,,,,,,,,,,,,,,,
,,,,,V3_097,19,Female,2025-02-04_13h34.37.580,jersey_experiment_5_v3,2023.2.2,Win32,85.47008547,,,,,,,,,,,,,,,,561.3049,562.5973,562.5973,563.9268,return,0.1329,,50.390625,,,,,,FBP-RB-18.png,0.37,1.2,52,0.5,,,,,,,,,,,,,0,0,0,51,1,,,,,,,,,,,,,,,,,,,,,,,,,,,,
,,,,,V3_097,19,Female,2025-02-04_13h34.37.580,jersey_experiment_5_v3,2023.2.2,Win32,85.47008547,,,,,,,,,,,,,,,,563.9271,565.2209,565.221,566.2445,return,0.11,,70.18229167,,,,,,FBP-RB-19.png,0.43,1.2,59,0.5,,,,,,,,,,,,,0,1,1,58,1,,,,,,,,,,,,,,,,,,,,,,,,,,,,
,,,,,V3_097,19,Female,2025-02-04_13h34.37.580,jersey_experiment_5_v3,2023.2.2,Win32,85.47008547,,,,,,,,,,,,,,,,566.2447,567.5386,567.5387,568.5504,return,0.0747,,61.328125,,,,,,FBP-RB-18.png,0.4,1.2,53,0.5,,,,,,,,,,,,,0,2,2,52,1,,,,,,,,,,,,,,,,,,,,,,,,,,,,
,,,,,V3_097,19,Female,2025-02-04_13h34.37.580,jersey_experiment_5_v3,2023.2.2,Win32,85.47008547,,,,,,,,,,,,,,,,568.5506,569.8446,569.8447,570.4212,return,0.0875,,62.109375,,,,,,FBP-YG-71.png,0.37,1.2,2,0.5,,,,,,,,,,,,,0,3,3,1,1,,,,,,,,,,,,,,,,,,,,,,,,,,,,
,,,,,V3_097,19,Female,2025-02-04_13h34.37.580,jersey_experiment_5_v3,2023.2.2,Win32,85.47008547,,,,,,,,,,,,,,,,570.4214,571.9742,571.9743,572.8683,return,0.0415,,86.328125,,,,,,FBP-OG-19.png,0.45,1.2,45,0.75,,,,,,,,,,,,,0,4,4,44,1,,,,,,,,,,,,,,,,,,,,,,,,,,,,
,,,,,V3_097,19,Female,2025-02-04_13h34.37.580,jersey_experiment_5_v3,2023.2.2,Win32,85.47008547,,,,,,,,,,,,,,,,572.8685,574.4213,574.4214,575.2449,return,0.1305,,62.76041667,,,,,,FBP-OG-19.png,0.35,1.2,41,0.75,,,,,,,,,,,,,0,5,5,40,1,,,,,,,,,,,,,,,,,,,,,,,,,,,,
,,,,,V3_097,19,Female,2025-02-04_13h34.37.580,jersey_experiment_5_v3,2023.2.2,Win32,85.47008547,,,,,,,,,,,,,,,,575.2452,576.7979,576.7979,577.3509,return,0.0509,,62.63020833,,,,,,FBP-OG-17.png,0.37,1.2,32,0.75,,,,,,,,,,,,,0,6,6,31,1,,,,,,,,,,,,,,,,,,,,,,,,,,,,
,,,,,V3_097,19,Female,2025-02-04_13h34.37.580,jersey_experiment_5_v3,2023.2.2,Win32,85.47008547,,,,,,,,,,,,,,,,577.3512,578.9038,578.9038,579.692,return,0.0676,,81.51041667,,,,,,FBP-OG-19.png,0.4,1.2,43,0.75,,,,,,,,,,,,,0,7,7,42,1,,,,,,,,,,,,,,,,,,,,,,,,,,,,
,,,,,V3_097,19,Female,2025-02-04_13h34.37.580,jersey_experiment_5_v3,2023.2.2,Win32,85.47008547,,,,,,,,,,,,,,,,579.6923,580.9862,580.9863,582.5979,return,0.0619,,50.13020833,,,,,,FBP-PT-17.png,0.35,1.2,16,0.5,,,,,,,,,,,,,0,8,8,15,1,,,,,,,,,,,,,,,,,,,,,,,,,,,,
,,,,,V3_097,19,Female,2025-02-04_13h34.37.580,jersey_experiment_5_v3,2023.2.2,Win32,85.47008547,,,,,,,,,,,,,,,,582.5983,583.8922,583.8923,585.1746,return,0.0711,,40.88541667,,,,,,FBP-YG-71.png,0.35,1.2,1,0.5,,,,,,,,,,,,,0,9,9,0,1,,,,,,,,,,,,,,,,,,,,,,,,,,,,
,,,,,V3_097,19,Female,2025-02-04_13h34.37.580,jersey_experiment_5_v3,2023.2.2,Win32,85.47008547,,,,,,,,,,,,,,,,585.175,586.4689,586.4689,587.5629,return,0.0331,,69.140625,,,,,,FBP-YG-71.png,0.43,1.2,4,0.5,,,,,,,,,,,,,0,10,10,3,1,,,,,,,,,,,,,,,,,,,,,,,,,,,,
,,,,,V3_097,19,Female,2025-02-04_13h34.37.580,jersey_experiment_5_v3,2023.2.2,Win32,85.47008547,,,,,,,,,,,,,,,,587.5633,588.8571,588.8571,589.9865,return,0.0164,,51.953125,,,,,,FBP-YG-81.png,0.35,1.2,6,0.5,,,,,,,,,,,,,0,11,11,5,1,,,,,,,,,,,,,,,,,,,,,,,,,,,,
,,,,,V3_097,19,Female,2025-02-04_13h34.37.580,jersey_experiment_5_v3,2023.2.2,Win32,85.47008547,,,,,,,,,,,,,,,,589.9867,591.2807,591.2807,592.5632,return,0.051,,75.91145833,,,,,,FBP-YG-91.png,0.43,1.2,14,0.5,,,,,,,,,,,,,0,12,12,13,1,,,,,,,,,,,,,,,,,,,,,,,,,,,,
,,,,,V3_097,19,Female,2025-02-04_13h34.37.580,jersey_experiment_5_v3,2023.2.2,Win32,85.47008547,,,,,,,,,,,,,,,,592.5634,594.1162,594.1162,594.9161,return,0.0497,,87.76041667,,,,,,FBP-OG-18.png,0.43,1.2,39,0.75,,,,,,,,,,,,,0,13,13,38,1,,,,,,,,,,,,,,,,,,,,,,,,,,,,
,,,,,V3_097,19,Female,2025-02-04_13h34.37.580,jersey_experiment_5_v3,2023.2.2,Win32,85.47008547,,,,,,,,,,,,,,,,594.9164,596.2104,596.2105,597.2693,return,0.0727,,75,,,,,,FBP-PT-17.png,0.37,1.2,17,0.5,,,,,,,,,,,,,0,14,14,16,1,,,,,,,,,,,,,,,,,,,,,,,,,,,,
,,,,,V3_097,19,Female,2025-02-04_13h34.37.580,jersey_experiment_5_v3,2023.2.2,Win32,85.47008547,,,,,,,,,,,,,,,,597.2695,598.5633,598.5634,600.4694,return,0.8015,,80.20833333,,,,,,FBP-YG-81.png,0.4,1.2,8,0.5,,,,,,,,,,,,,0,15,15,7,1,,,,,,,,,,,,,,,,,,,,,,,,,,,,
,,,,,V3_097,19,Female,2025-02-04_13h34.37.580,jersey_experiment_5_v3,2023.2.2,Win32,85.47008547,,,,,,,,,,,,,,,,600.4696,601.7635,601.7635,603.1635,return,0.0343,,49.21875,,,,,,FBP-YG-91.png,0.35,1.2,11,0.5,,,,,,,,,,,,,0,16,16,10,1,,,,,,,,,,,,,,,,,,,,,,,,,,,,
,,,,,V3_097,19,Female,2025-02-04_13h34.37.580,jersey_experiment_5_v3,2023.2.2,Win32,85.47008547,,,,,,,,,,,,,,,,603.1638,604.4578,604.4578,606.1519,return,0.1053,,82.68229167,,,,,,FBP-PT-19.png,0.43,1.2,29,0.5,,,,,,,,,,,,,0,17,17,28,1,,,,,,,,,,,,,,,,,,,,,,,,,,,,
,,,,,V3_097,19,Female,2025-02-04_13h34.37.580,jersey_experiment_5_v3,2023.2.2,Win32,85.47008547,,,,,,,,,,,,,,,,606.1522,607.7051,607.7051,609.6227,return,0.1174,,66.53645833,,,,,,FBP-OG-19.png,0.37,1.2,42,0.75,,,,,,,,,,,,,0,18,18,41,1,,,,,,,,,,,,,,,,,,,,,,,,,,,,
,,,,,V3_097,19,Female,2025-02-04_13h34.37.580,jersey_experiment_5_v3,2023.2.2,Win32,85.47008547,,,,,,,,,,,,,,,,609.6229,610.9168,610.9169,612.4227,return,0.2742,,73.828125,,,,,,FBP-PT-19.png,0.4,1.2,28,0.5,,,,,,,,,,,,,0,19,19,27,1,,,,,,,,,,,,,,,,,,,,,,,,,,,,
,,,,,V3_097,19,Female,2025-02-04_13h34.37.580,jersey_experiment_5_v3,2023.2.2,Win32,85.47008547,,,,,,,,,,,,,,,,612.423,613.7168,613.7168,615.3169,return,0.0407,,88.80208333,,,,,,FBP-PT-17.png,0.45,1.2,20,0.5,,,,,,,,,,,,,0,20,20,19,1,,,,,,,,,,,,,,,,,,,,,,,,,,,,
,,,,,V3_097,19,Female,2025-02-04_13h34.37.580,jersey_experiment_5_v3,2023.2.2,Win32,85.47008547,,,,,,,,,,,,,,,,615.3172,616.611,616.6111,617.8113,return,0.0426,,72.265625,,,,,,FBP-PT-19.png,0.35,1.2,26,0.5,,,,,,,,,,,,,0,21,21,25,1,,,,,,,,,,,,,,,,,,,,,,,,,,,,
,,,,,V3_097,19,Female,2025-02-04_13h34.37.580,jersey_experiment_5_v3,2023.2.2,Win32,85.47008547,,,,,,,,,,,,,,,,617.8115,619.1053,619.1053,620.5525,return,0.0566,,75.91145833,,,,,,FBP-YG-71.png,0.4,1.2,3,0.5,,,,,,,,,,,,,0,22,22,2,1,,,,,,,,,,,,,,,,,,,,,,,,,,,,
,,,,,V3_097,19,Female,2025-02-04_13h34.37.580,jersey_experiment_5_v3,2023.2.2,Win32,85.47008547,,,,,,,,,,,,,,,,620.5527,621.8465,621.8467,623.3525,return,0.4253,,94.40104167,,,,,,FBP-RB-18.png,0.43,1.2,54,0.5,,,,,,,,,,,,,0,23,23,53,1,,,,,,,,,,,,,,,,,,,,,,,,,,,,
,,,,,V3_097,19,Female,2025-02-04_13h34.37.580,jersey_experiment_5_v3,2023.2.2,Win32,85.47008547,,,,,,,,,,,,,,,,623.3528,624.9055,624.9055,625.8937,return,0.0031,,98.69791667,,,,,,FBP-OG-17.png,0.45,1.2,35,0.75,,,,,,,,,,,,,0,24,24,34,1,,,,,,,,,,,,,,,,,,,,,,,,,,,,
,,,,,V3_097,19,Female,2025-02-04_13h34.37.580,jersey_experiment_5_v3,2023.2.2,Win32,85.47008547,,,,,,,,,,,,,,,,625.894,627.188,627.1881,628.3645,return,0.2095,,99.73958333,,,,,,FBP-PT-19.png,0.45,1.2,30,0.5,,,,,,,,,,,,,0,25,25,29,1,,,,,,,,,,,,,,,,,,,,,,,,,,,,
,,,,,V3_097,19,Female,2025-02-04_13h34.37.580,jersey_experiment_5_v3,2023.2.2,Win32,85.47008547,,,,,,,,,,,,,,,,628.3648,629.6587,629.6587,631.6353,return,0.4426,,73.17708333,,,,,,FBP-RB-17.png,0.4,1.2,48,0.5,,,,,,,,,,,,,0,26,26,47,1,,,,,,,,,,,,,,,,,,,,,,,,,,,,
,,,,,V3_097,19,Female,2025-02-04_13h34.37.580,jersey_experiment_5_v3,2023.2.2,Win32,85.47008547,,,,,,,,,,,,,,,,631.6356,632.9294,632.9295,633.8353,return,0.197,,78.515625,,,,,,FBP-PT-18.png,0.43,1.2,24,0.5,,,,,,,,,,,,,0,27,27,23,1,,,,,,,,,,,,,,,,,,,,,,,,,,,,
,,,,,V3_097,19,Female,2025-02-04_13h34.37.580,jersey_experiment_5_v3,2023.2.2,Win32,85.47008547,,,,,,,,,,,,,,,,633.8356,635.1294,635.1294,636.5295,return,0.2557,,99.08854167,,,,,,FBP-RB-18.png,0.45,1.2,55,0.5,,,,,,,,,,,,,0,28,28,54,1,,,,,,,,,,,,,,,,,,,,,,,,,,,,
,,,,,V3_097,19,Female,2025-02-04_13h34.37.580,jersey_experiment_5_v3,2023.2.2,Win32,85.47008547,,,,,,,,,,,,,,,,636.5297,637.8238,637.8239,638.9531,return,0.0389,,43.88020833,,,,,,FBP-RB-19.png,0.37,1.2,57,0.5,,,,,,,,,,,,,0,29,29,56,1,,,,,,,,,,,,,,,,,,,,,,,,,,,,
,,,,,V3_097,19,Female,2025-02-04_13h34.37.580,jersey_experiment_5_v3,2023.2.2,Win32,85.47008547,,,,,,,,,,,,,,,,638.9534,640.5061,640.5062,641.5297,return,0.1495,,51.953125,,,,,,FBP-OG-18.png,0.4,1.2,38,0.75,,,,,,,,,,,,,0,30,30,37,1,,,,,,,,,,,,,,,,,,,,,,,,,,,,
,,,,,V3_097,19,Female,2025-02-04_13h34.37.580,jersey_experiment_5_v3,2023.2.2,Win32,85.47008547,,,,,,,,,,,,,,,,641.53,642.8238,642.8239,643.9063,return,0.1257,,58.984375,,,,,,FBP-PT-17.png,0.4,1.2,18,0.5,,,,,,,,,,,,,0,31,31,17,1,,,,,,,,,,,,,,,,,,,,,,,,,,,,
,,,,,V3_097,19,Female,2025-02-04_13h34.37.580,jersey_experiment_5_v3,2023.2.2,Win32,85.47008547,,,,,,,,,,,,,,,,643.9065,645.2004,645.2004,646.1064,return,0.0705,,42.578125,,,,,,FBP-RB-17.png,0.37,1.2,47,0.5,,,,,,,,,,,,,0,32,32,46,1,,,,,,,,,,,,,,,,,,,,,,,,,,,,
,,,,,V3_097,19,Female,2025-02-04_13h34.37.580,jersey_experiment_5_v3,2023.2.2,Win32,85.47008547,,,,,,,,,,,,,,,,646.1067,647.4006,647.4007,648.7417,return,0.0723,,85.546875,,,,,,FBP-YG-71.png,0.45,1.2,5,0.5,,,,,,,,,,,,,0,33,33,4,1,,,,,,,,,,,,,,,,,,,,,,,,,,,,
,,,,,V3_097,19,Female,2025-02-04_13h34.37.580,jersey_experiment_5_v3,2023.2.2,Win32,85.47008547,,,,,,,,,,,,,,,,648.7419,650.0359,650.036,652.2478,return,0.1807,,30.859375,,,,,,FBP-RB-19.png,0.35,1.2,56,0.5,,,,,,,,,,,,,0,34,34,55,1,,,,,,,,,,,,,,,,,,,,,,,,,,,,
,,,,,V3_097,19,Female,2025-02-04_13h34.37.580,jersey_experiment_5_v3,2023.2.2,Win32,85.47008547,,,,,,,,,,,,,,,,652.2481,653.542,653.542,654.3891,return,0.0877,,22.65625,,,,,,FBP-RB-17.png,0.35,1.2,46,0.5,,,,,,,,,,,,,0,35,35,45,1,,,,,,,,,,,,,,,,,,,,,,,,,,,,
,,,,,V3_097,19,Female,2025-02-04_13h34.37.580,jersey_experiment_5_v3,2023.2.2,Win32,85.47008547,,,,,,,,,,,,,,,,654.3894,655.9421,655.9421,656.8127,return,0.0631,,22.91666667,,,,,,FBP-OG-18.png,0.35,1.2,36,0.75,,,,,,,,,,,,,0,36,36,35,1,,,,,,,,,,,,,,,,,,,,,,,,,,,,
,,,,,V3_097,19,Female,2025-02-04_13h34.37.580,jersey_experiment_5_v3,2023.2.2,Win32,85.47008547,,,,,,,,,,,,,,,,656.8129,658.1068,658.1068,658.7421,return,0.0942,,22.91666667,,,,,,FBP-PT-19.png,0.37,1.2,27,0.5,,,,,,,,,,,,,0,37,37,26,1,,,,,,,,,,,,,,,,,,,,,,,,,,,,
,,,,,V3_097,19,Female,2025-02-04_13h34.37.580,jersey_experiment_5_v3,2023.2.2,Win32,85.47008547,,,,,,,,,,,,,,,,658.7423,660.0363,660.0365,662.06,return,0.0923,,81.90104167,,,,,,FBP-PT-18.png,0.45,1.2,25,0.5,,,,,,,,,,,,,0,38,38,24,1,,,,,,,,,,,,,,,,,,,,,,,,,,,,
,,,,,V3_097,19,Female,2025-02-04_13h34.37.580,jersey_experiment_5_v3,2023.2.2,Win32,85.47008547,,,,,,,,,,,,,,,,662.0603,663.613,663.613,664.3071,return,0.1486,,86.58854167,,,,,,FBP-OG-17.png,0.43,1.2,34,0.75,,,,,,,,,,,,,0,39,39,33,1,,,,,,,,,,,,,,,,,,,,,,,,,,,,
,,,,,V3_097,19,Female,2025-02-04_13h34.37.580,jersey_experiment_5_v3,2023.2.2,Win32,85.47008547,,,,,,,,,,,,,,,,664.3073,665.8602,665.8602,666.9308,return,0.0667,,69.01041667,,,,,,FBP-OG-17.png,0.4,1.2,33,0.75,,,,,,,,,,,,,0,40,40,32,1,,,,,,,,,,,,,,,,,,,,,,,,,,,,
,,,,,V3_097,19,Female,2025-02-04_13h34.37.580,jersey_experiment_5_v3,2023.2.2,Win32,85.47008547,,,,,,,,,,,,,,,,666.931,668.4838,668.4838,669.4602,return,0.1234,,94.79166667,,,,,,FBP-OG-18.png,0.45,1.2,40,0.75,,,,,,,,,,,,,0,41,41,39,1,,,,,,,,,,,,,,,,,,,,,,,,,,,,
,,,,,V3_097,19,Female,2025-02-04_13h34.37.580,jersey_experiment_5_v3,2023.2.2,Win32,85.47008547,,,,,,,,,,,,,,,,669.4604,670.7544,670.7544,671.7544,return,0.0624,,94.79166667,,,,,,FBP-RB-17.png,0.43,1.2,49,0.5,,,,,,,,,,,,,0,42,42,48,1,,,,,,,,,,,,,,,,,,,,,,,,,,,,
,,,,,V3_097,19,Female,2025-02-04_13h34.37.580,jersey_experiment_5_v3,2023.2.2,Win32,85.47008547,,,,,,,,,,,,,,,,671.7546,673.0486,673.0487,675.2015,return,0.0558,,68.61979167,,,,,,FBP-YG-91.png,0.37,1.2,12,0.5,,,,,,,,,,,,,0,43,43,11,1,,,,,,,,,,,,,,,,,,,,,,,,,,,,
,,,,,V3_097,19,Female,2025-02-04_13h34.37.580,jersey_experiment_5_v3,2023.2.2,Win32,85.47008547,,,,,,,,,,,,,,,,675.2018,676.4957,676.4957,677.59,return,0.0246,,86.06770833,,,,,,FBP-YG-81.png,0.43,1.2,9,0.5,,,,,,,,,,,,,0,44,44,8,1,,,,,,,,,,,,,,,,,,,,,,,,,,,,
,,,,,V3_097,19,Female,2025-02-04_13h34.37.580,jersey_experiment_5_v3,2023.2.2,Win32,85.47008547,,,,,,,,,,,,,,,,677.5902,679.1429,679.1429,680.3783,return,0.0558,,56.25,,,,,,FBP-OG-18.png,0.37,1.2,37,0.75,,,,,,,,,,,,,0,45,45,36,1,,,,,,,,,,,,,,,,,,,,,,,,,,,,
,,,,,V3_097,19,Female,2025-02-04_13h34.37.580,jersey_experiment_5_v3,2023.2.2,Win32,85.47008547,,,,,,,,,,,,,,,,680.3785,681.6724,681.6725,682.9549,return,0.0619,,91.40625,,,,,,FBP-RB-19.png,0.45,1.2,60,0.5,,,,,,,,,,,,,0,46,46,59,1,,,,,,,,,,,,,,,,,,,,,,,,,,,,
,,,,,V3_097,19,Female,2025-02-04_13h34.37.580,jersey_experiment_5_v3,2023.2.2,Win32,85.47008547,,,,,,,,,,,,,,,,682.9552,684.249,684.2491,685.5314,return,0.0553,,49.86979167,,,,,,FBP-RB-18.png,0.35,1.2,51,0.5,,,,,,,,,,,,,0,47,47,50,1,,,,,,,,,,,,,,,,,,,,,,,,,,,,
,,,,,V3_097,19,Female,2025-02-04_13h34.37.580,jersey_experiment_5_v3,2023.2.2,Win32,85.47008547,,,,,,,,,,,,,,,,685.5316,686.8255,686.8256,688.1314,return,0.1128,,85.41666667,,,,,,FBP-YG-81.png,0.45,1.2,10,0.5,,,,,,,,,,,,,0,48,48,9,1,,,,,,,,,,,,,,,,,,,,,,,,,,,,
,,,,,V3_097,19,Female,2025-02-04_13h34.37.580,jersey_experiment_5_v3,2023.2.2,Win32,85.47008547,,,,,,,,,,,,,,,,688.1317,689.4257,689.4258,690.4845,return,0.1351,,91.796875,,,,,,FBP-PT-17.png,0.43,1.2,19,0.5,,,,,,,,,,,,,0,49,49,18,1,,,,,,,,,,,,,,,,,,,,,,,,,,,,
,,,,,V3_097,19,Female,2025-02-04_13h34.37.580,jersey_experiment_5_v3,2023.2.2,Win32,85.47008547,,,,,,,,,,,,,,,,690.4848,691.7786,691.7787,692.7788,return,0.1649,,99.47916667,,,,,,FBP-RB-17.png,0.45,1.2,50,0.5,,,,,,,,,,,,,0,50,50,49,1,,,,,,,,,,,,,,,,,,,,,,,,,,,,
,,,,,V3_097,19,Female,2025-02-04_13h34.37.580,jersey_experiment_5_v3,2023.2.2,Win32,85.47008547,,,,,,,,,,,,,,,,692.779,694.0739,694.074,694.7316,return,0.2119,,99.47916667,,,,,,FBP-YG-91.png,0.45,1.2,15,0.5,,,,,,,,,,,,,0,51,51,14,1,,,,,,,,,,,,,,,,,,,,,,,,,,,,
,,,,,V3_097,19,Female,2025-02-04_13h34.37.580,jersey_experiment_5_v3,2023.2.2,Win32,85.47008547,,,,,,,,,,,,,,,,694.7319,696.0258,696.0258,698.5556,return,0.9414,,78.64583333,,,,,,FBP-YG-91.png,0.4,1.2,13,0.5,,,,,,,,,,,,,0,52,52,12,1,,,,,,,,,,,,,,,,,,,,,,,,,,,,
,,,,,V3_097,19,Female,2025-02-04_13h34.37.580,jersey_experiment_5_v3,2023.2.2,Win32,85.47008547,,,,,,,,,,,,,,,,698.5558,700.1085,700.1086,700.7438,return,0.1097,,87.76041667,,,,,,FBP-OG-19.png,0.43,1.2,44,0.75,,,,,,,,,,,,,0,53,53,43,1,,,,,,,,,,,,,,,,,,,,,,,,,,,,
,,,,,V3_097,19,Female,2025-02-04_13h34.37.580,jersey_experiment_5_v3,2023.2.2,Win32,85.47008547,,,,,,,,,,,,,,,,700.7441,702.0378,702.0378,703.485,return,0.1414,,74.34895833,,,,,,FBP-PT-18.png,0.4,1.2,23,0.5,,,,,,,,,,,,,0,54,54,22,1,,,,,,,,,,,,,,,,,,,,,,,,,,,,
,,,,,V3_097,19,Female,2025-02-04_13h34.37.580,jersey_experiment_5_v3,2023.2.2,Win32,85.47008547,,,,,,,,,,,,,,,,703.4853,704.7792,704.7792,705.8146,return,0.051,,64.19270833,,,,,,FBP-PT-18.png,0.37,1.2,22,0.5,,,,,,,,,,,,,0,55,55,21,1,,,,,,,,,,,,,,,,,,,,,,,,,,,,
,,,,,V3_097,19,Female,2025-02-04_13h34.37.580,jersey_experiment_5_v3,2023.2.2,Win32,85.47008547,,,,,,,,,,,,,,,,705.8148,707.1086,707.1087,708.0028,return,0.0862,,50.26041667,,,,,,FBP-PT-18.png,0.35,1.2,21,0.5,,,,,,,,,,,,,0,56,56,20,1,,,,,,,,,,,,,,,,,,,,,,,,,,,,
,,,,,V3_097,19,Female,2025-02-04_13h34.37.580,jersey_experiment_5_v3,2023.2.2,Win32,85.47008547,,,,,,,,,,,,,,,,708.003,709.5557,709.5557,710.4265,return,0.0558,,44.40104167,,,,,,FBP-OG-17.png,0.35,1.2,31,0.75,,,,,,,,,,,,,0,57,57,30,1,,,,,,,,,,,,,,,,,,,,,,,,,,,,
,,,,,V3_097,19,Female,2025-02-04_13h34.37.580,jersey_experiment_5_v3,2023.2.2,Win32,85.47008547,,,,,,,,,,,,,,,,710.4267,711.7206,711.7206,712.356,return,0.1475,,44.40104167,,,,,,FBP-YG-81.png,0.37,1.2,7,0.5,,,,,,,,,,,,,0,58,58,6,1,,,,,,,,,,,,,,,,,,,,,,,,,,,,
,,,,,V3_097,19,Female,2025-02-04_13h34.37.580,jersey_experiment_5_v3,2023.2.2,Win32,85.47008547,,,,,,,,,,,,,,,,712.3562,713.65,713.65,715.0267,return,0.1375,,56.640625,,,,,,FBP-RB-19.png,0.4,1.2,58,0.5,,,,,,,,,,,,,0,59,59,57,1,,,,,,,,,,,,,,,,,,,,,,,,,,,,
,,,,,V3_097,19,Female,2025-02-04_13h34.37.580,jersey_experiment_5_v3,2023.2.2,Win32,85.47008547,,,,,,,,,,,,,,,,715.028,716.5798,716.5798,717.3325,return,0.0743,,51.5625,,,,,,FBP-OG-81.png,0.37,1.2,37,0.75,,,,,,,,,,,,,,,,,,0,0,0,36,1,,,,,,,,,,,,,,,,,,,,,,,
,,,,,V3_097,19,Female,2025-02-04_13h34.37.580,jersey_experiment_5_v3,2023.2.2,Win32,85.47008547,,,,,,,,,,,,,,,,717.3328,718.8855,718.8855,720.0268,return,0.055,,86.06770833,,,,,,FBP-OG-91.png,0.45,1.2,45,0.75,,,,,,,,,,,,,,,,,,0,1,1,44,1,,,,,,,,,,,,,,,,,,,,,,,
,,,,,V3_097,19,Female,2025-02-04_13h34.37.580,jersey_experiment_5_v3,2023.2.2,Win32,85.47008547,,,,,,,,,,,,,,,,720.0271,721.5798,721.5798,722.662,return,0.0744,,74.73958333,,,,,,FBP-OG-71.png,0.45,1.2,35,0.75,,,,,,,,,,,,,,,,,,0,2,2,34,1,,,,,,,,,,,,,,,,,,,,,,,
,,,,,V3_097,19,Female,2025-02-04_13h34.37.580,jersey_experiment_5_v3,2023.2.2,Win32,85.47008547,,,,,,,,,,,,,,,,722.6623,723.9564,723.9564,725.0506,return,0.0358,,86.06770833,,,,,,FBP-YG-19.png,0.43,1.2,14,0.5,,,,,,,,,,,,,,,,,,0,3,3,13,1,,,,,,,,,,,,,,,,,,,,,,,
,,,,,V3_097,19,Female,2025-02-04_13h34.37.580,jersey_experiment_5_v3,2023.2.2,Win32,85.47008547,,,,,,,,,,,,,,,,725.0509,726.3447,726.3448,728.1213,return,0.0329,,62.36979167,,,,,,FBP-YG-18.png,0.35,1.2,6,0.5,,,,,,,,,,,,,,,,,,0,4,4,5,1,,,,,,,,,,,,,,,,,,,,,,,
,,,,,V3_097,19,Female,2025-02-04_13h34.37.580,jersey_experiment_5_v3,2023.2.2,Win32,85.47008547,,,,,,,,,,,,,,,,728.1215,729.4154,729.4154,730.6509,return,0.0864,,69.40104167,,,,,,FBP-RB-91.png,0.4,1.2,58,0.5,,,,,,,,,,,,,,,,,,0,5,5,57,1,,,,,,,,,,,,,,,,,,,,,,,
,,,,,V3_097,19,Female,2025-02-04_13h34.37.580,jersey_experiment_5_v3,2023.2.2,Win32,85.47008547,,,,,,,,,,,,,,,,730.651,731.9448,731.9448,733.2391,return,0.0474,,60.28645833,,,,,,FBP-PT-71.png,0.37,1.2,17,0.5,,,,,,,,,,,,,,,,,,0,6,6,16,1,,,,,,,,,,,,,,,,,,,,,,,
,,,,,V3_097,19,Female,2025-02-04_13h34.37.580,jersey_experiment_5_v3,2023.2.2,Win32,85.47008547,,,,,,,,,,,,,,,,733.2393,734.5335,734.5335,736.4746,return,0.4579,,40.10416667,,,,,,FBP-YG-17.png,0.35,1.2,1,0.5,,,,,,,,,,,,,,,,,,0,7,7,0,1,,,,,,,,,,,,,,,,,,,,,,,
,,,,,V3_097,19,Female,2025-02-04_13h34.37.580,jersey_experiment_5_v3,2023.2.2,Win32,85.47008547,,,,,,,,,,,,,,,,736.4749,737.7687,737.7687,739.11,return,0.0126,,90.10416667,,,,,,FBP-YG-18.png,0.45,1.2,10,0.5,,,,,,,,,,,,,,,,,,0,8,8,9,1,,,,,,,,,,,,,,,,,,,,,,,
,,,,,V3_097,19,Female,2025-02-04_13h34.37.580,jersey_experiment_5_v3,2023.2.2,Win32,85.47008547,,,,,,,,,,,,,,,,739.1102,740.404,740.404,741.1924,return,0.0222,,95.05208333,,,,,,FBP-YG-17.png,0.45,1.2,5,0.5,,,,,,,,,,,,,,,,,,0,9,9,4,1,,,,,,,,,,,,,,,,,,,,,,,
,,,,,V3_097,19,Female,2025-02-04_13h34.37.580,jersey_experiment_5_v3,2023.2.2,Win32,85.47008547,,,,,,,,,,,,,,,,741.1927,742.4864,742.4866,743.3689,return,0.0957,,80.59895833,,,,,,FBP-PT-71.png,0.4,1.2,18,0.5,,,,,,,,,,,,,,,,,,0,10,10,17,1,,,,,,,,,,,,,,,,,,,,,,,
,,,,,V3_097,19,Female,2025-02-04_13h34.37.580,jersey_experiment_5_v3,2023.2.2,Win32,85.47008547,,,,,,,,,,,,,,,,743.3692,744.6631,744.6631,745.475,return,0.0498,,88.41145833,,,,,,FBP-YG-18.png,0.43,1.2,9,0.5,,,,,,,,,,,,,,,,,,0,11,11,8,1,,,,,,,,,,,,,,,,,,,,,,,
,,,,,V3_097,19,Female,2025-02-04_13h34.37.580,jersey_experiment_5_v3,2023.2.2,Win32,85.47008547,,,,,,,,,,,,,,,,745.4752,746.7691,746.7692,747.6279,return,0.0581,,73.17708333,,,,,,FBP-YG-19.png,0.37,1.2,12,0.5,,,,,,,,,,,,,,,,,,0,12,12,11,1,,,,,,,,,,,,,,,,,,,,,,,
,,,,,V3_097,19,Female,2025-02-04_13h34.37.580,jersey_experiment_5_v3,2023.2.2,Win32,85.47008547,,,,,,,,,,,,,,,,747.6281,748.922,748.922,750.075,return,0.0087,,47.39583333,,,,,,FBP-PT-81.png,0.35,1.2,21,0.5,,,,,,,,,,,,,,,,,,0,13,13,20,1,,,,,,,,,,,,,,,,,,,,,,,
,,,,,V3_097,19,Female,2025-02-04_13h34.37.580,jersey_experiment_5_v3,2023.2.2,Win32,85.47008547,,,,,,,,,,,,,,,,750.0752,751.3692,751.3692,752.9339,return,0.0949,,84.24479167,,,,,,FBP-RB-71.png,0.45,1.2,50,0.5,,,,,,,,,,,,,,,,,,0,14,14,49,1,,,,,,,,,,,,,,,,,,,,,,,
,,,,,V3_097,19,Female,2025-02-04_13h34.37.580,jersey_experiment_5_v3,2023.2.2,Win32,85.47008547,,,,,,,,,,,,,,,,752.9341,754.2281,754.2281,755.3457,return,0.1366,,73.69791667,,,,,,FBP-RB-81.png,0.4,1.2,53,0.5,,,,,,,,,,,,,,,,,,0,15,15,52,1,,,,,,,,,,,,,,,,,,,,,,,
,,,,,V3_097,19,Female,2025-02-04_13h34.37.580,jersey_experiment_5_v3,2023.2.2,Win32,85.47008547,,,,,,,,,,,,,,,,755.346,756.64,756.6401,757.546,return,0.0937,,82.421875,,,,,,FBP-PT-81.png,0.45,1.2,25,0.5,,,,,,,,,,,,,,,,,,0,16,16,24,1,,,,,,,,,,,,,,,,,,,,,,,
,,,,,V3_097,19,Female,2025-02-04_13h34.37.580,jersey_experiment_5_v3,2023.2.2,Win32,85.47008547,,,,,,,,,,,,,,,,757.5462,758.8401,758.8401,759.7459,return,0.04,,63.15104167,,,,,,FBP-PT-91.png,0.37,1.2,27,0.5,,,,,,,,,,,,,,,,,,0,17,17,26,1,,,,,,,,,,,,,,,,,,,,,,,
,,,,,V3_097,19,Female,2025-02-04_13h34.37.580,jersey_experiment_5_v3,2023.2.2,Win32,85.47008547,,,,,,,,,,,,,,,,759.7461,761.04,761.04,762.746,return,0.3774,,75.26041667,,,,,,FBP-RB-71.png,0.4,1.2,48,0.5,,,,,,,,,,,,,,,,,,0,18,18,47,1,,,,,,,,,,,,,,,,,,,,,,,
,,,,,V3_097,19,Female,2025-02-04_13h34.37.580,jersey_experiment_5_v3,2023.2.2,Win32,85.47008547,,,,,,,,,,,,,,,,762.7462,764.0401,764.0402,765.7816,return,0.0008,,56.11979167,,,,,,FBP-RB-91.png,0.37,1.2,57,0.5,,,,,,,,,,,,,,,,,,0,19,19,56,1,,,,,,,,,,,,,,,,,,,,,,,
,,,,,V3_097,19,Female,2025-02-04_13h34.37.580,jersey_experiment_5_v3,2023.2.2,Win32,85.47008547,,,,,,,,,,,,,,,,765.7818,767.3346,767.3346,768.323,return,0.1372,,47.00520833,,,,,,FBP-OG-91.png,0.37,1.2,42,0.75,,,,,,,,,,,,,,,,,,0,20,20,41,1,,,,,,,,,,,,,,,,,,,,,,,
,,,,,V3_097,19,Female,2025-02-04_13h34.37.580,jersey_experiment_5_v3,2023.2.2,Win32,85.47008547,,,,,,,,,,,,,,,,768.3231,769.6169,769.617,771.2877,return,0.0852,,75,,,,,,FBP-RB-91.png,0.43,1.2,59,0.5,,,,,,,,,,,,,,,,,,0,21,21,58,1,,,,,,,,,,,,,,,,,,,,,,,
,,,,,V3_097,19,Female,2025-02-04_13h34.37.580,jersey_experiment_5_v3,2023.2.2,Win32,85.47008547,,,,,,,,,,,,,,,,771.2879,772.5818,772.5818,773.7348,return,0.0471,,88.15104167,,,,,,FBP-RB-91.png,0.45,1.2,60,0.5,,,,,,,,,,,,,,,,,,0,22,22,59,1,,,,,,,,,,,,,,,,,,,,,,,
,,,,,V3_097,19,Female,2025-02-04_13h34.37.580,jersey_experiment_5_v3,2023.2.2,Win32,85.47008547,,,,,,,,,,,,,,,,773.7351,775.2879,775.2879,775.9701,return,0.1696,,88.54166667,,,,,,FBP-OG-81.png,0.43,1.2,39,0.75,,,,,,,,,,,,,,,,,,0,23,23,38,1,,,,,,,,,,,,,,,,,,,,,,,
,,,,,V3_097,19,Female,2025-02-04_13h34.37.580,jersey_experiment_5_v3,2023.2.2,Win32,85.47008547,,,,,,,,,,,,,,,,775.9704,777.2643,777.2643,778.0526,return,0.1091,,94.53125,,,,,,FBP-RB-81.png,0.45,1.2,55,0.5,,,,,,,,,,,,,,,,,,0,24,24,54,1,,,,,,,,,,,,,,,,,,,,,,,
,,,,,V3_097,19,Female,2025-02-04_13h34.37.580,jersey_experiment_5_v3,2023.2.2,Win32,85.47008547,,,,,,,,,,,,,,,,778.0528,779.3467,779.3467,780.2762,return,0.1906,,96.74479167,,,,,,FBP-RB-71.png,0.43,1.2,49,0.5,,,,,,,,,,,,,,,,,,0,25,25,48,1,,,,,,,,,,,,,,,,,,,,,,,
,,,,,V3_097,19,Female,2025-02-04_13h34.37.580,jersey_experiment_5_v3,2023.2.2,Win32,85.47008547,,,,,,,,,,,,,,,,780.2765,781.5704,781.5704,783.4763,return,0.0968,,56.25,,,,,,FBP-PT-71.png,0.35,1.2,16,0.5,,,,,,,,,,,,,,,,,,0,26,26,15,1,,,,,,,,,,,,,,,,,,,,,,,
,,,,,V3_097,19,Female,2025-02-04_13h34.37.580,jersey_experiment_5_v3,2023.2.2,Win32,85.47008547,,,,,,,,,,,,,,,,783.4765,785.0294,785.0294,785.6882,return,0.0626,,43.22916667,,,,,,FBP-OG-81.png,0.35,1.2,36,0.75,,,,,,,,,,,,,,,,,,0,27,27,35,1,,,,,,,,,,,,,,,,,,,,,,,
,,,,,V3_097,19,Female,2025-02-04_13h34.37.580,jersey_experiment_5_v3,2023.2.2,Win32,85.47008547,,,,,,,,,,,,,,,,785.6885,786.9823,786.9824,788.0413,return,0.1179,,64.32291667,,,,,,FBP-PT-91.png,0.43,1.2,29,0.5,,,,,,,,,,,,,,,,,,0,28,28,28,1,,,,,,,,,,,,,,,,,,,,,,,
,,,,,V3_097,19,Female,2025-02-04_13h34.37.580,jersey_experiment_5_v3,2023.2.2,Win32,85.47008547,,,,,,,,,,,,,,,,788.0416,789.3354,789.3355,789.9589,return,0.0824,,64.32291667,,,,,,FBP-YG-18.png,0.4,1.2,8,0.5,,,,,,,,,,,,,,,,,,0,29,29,7,1,,,,,,,,,,,,,,,,,,,,,,,
,,,,,V3_097,19,Female,2025-02-04_13h34.37.580,jersey_experiment_5_v3,2023.2.2,Win32,85.47008547,,,,,,,,,,,,,,,,789.9592,791.253,791.2531,791.7943,return,0.111,,64.32291667,,,,,,FBP-YG-19.png,0.4,1.2,13,0.5,,,,,,,,,,,,,,,,,,0,30,30,12,1,,,,,,,,,,,,,,,,,,,,,,,
,,,,,V3_097,19,Female,2025-02-04_13h34.37.580,jersey_experiment_5_v3,2023.2.2,Win32,85.47008547,,,,,,,,,,,,,,,,791.7944,793.0885,793.0885,794.2649,return,0.0484,,57.55208333,,,,,,FBP-PT-91.png,0.35,1.2,26,0.5,,,,,,,,,,,,,,,,,,0,31,31,25,1,,,,,,,,,,,,,,,,,,,,,,,
,,,,,V3_097,19,Female,2025-02-04_13h34.37.580,jersey_experiment_5_v3,2023.2.2,Win32,85.47008547,,,,,,,,,,,,,,,,794.2653,795.818,795.818,796.3121,return,0.0963,,57.68229167,,,,,,FBP-OG-71.png,0.37,1.2,32,0.75,,,,,,,,,,,,,,,,,,0,32,32,31,1,,,,,,,,,,,,,,,,,,,,,,,
,,,,,V3_097,19,Female,2025-02-04_13h34.37.580,jersey_experiment_5_v3,2023.2.2,Win32,85.47008547,,,,,,,,,,,,,,,,796.3124,797.8651,797.8651,798.5473,return,0.0412,,65.49479167,,,,,,FBP-OG-91.png,0.4,1.2,43,0.75,,,,,,,,,,,,,,,,,,0,33,33,42,1,,,,,,,,,,,,,,,,,,,,,,,
,,,,,V3_097,19,Female,2025-02-04_13h34.37.580,jersey_experiment_5_v3,2023.2.2,Win32,85.47008547,,,,,,,,,,,,,,,,798.5476,799.8416,799.8417,800.7241,return,0.0183,,56.38020833,,,,,,FBP-RB-71.png,0.35,1.2,46,0.5,,,,,,,,,,,,,,,,,,0,34,34,45,1,,,,,,,,,,,,,,,,,,,,,,,
,,,,,V3_097,19,Female,2025-02-04_13h34.37.580,jersey_experiment_5_v3,2023.2.2,Win32,85.47008547,,,,,,,,,,,,,,,,800.7243,802.0181,802.0181,803.1241,return,0.0181,,71.09375,,,,,,FBP-YG-17.png,0.4,1.2,3,0.5,,,,,,,,,,,,,,,,,,0,35,35,2,1,,,,,,,,,,,,,,,,,,,,,,,
,,,,,V3_097,19,Female,2025-02-04_13h34.37.580,jersey_experiment_5_v3,2023.2.2,Win32,85.47008547,,,,,,,,,,,,,,,,803.1244,804.4184,804.4184,805.3006,return,0.0145,,50.13020833,,,,,,FBP-RB-91.png,0.35,1.2,56,0.5,,,,,,,,,,,,,,,,,,0,36,36,55,1,,,,,,,,,,,,,,,,,,,,,,,
,,,,,V3_097,19,Female,2025-02-04_13h34.37.580,jersey_experiment_5_v3,2023.2.2,Win32,85.47008547,,,,,,,,,,,,,,,,805.3008,806.5949,806.5949,807.3361,return,0.0471,,39.71354167,,,,,,FBP-RB-81.png,0.35,1.2,51,0.5,,,,,,,,,,,,,,,,,,0,37,37,50,1,,,,,,,,,,,,,,,,,,,,,,,
,,,,,V3_097,19,Female,2025-02-04_13h34.37.580,jersey_experiment_5_v3,2023.2.2,Win32,85.47008547,,,,,,,,,,,,,,,,807.3363,808.6301,808.6301,809.8185,return,0.1037,,70.44270833,,,,,,FBP-PT-81.png,0.43,1.2,24,0.5,,,,,,,,,,,,,,,,,,0,38,38,23,1,,,,,,,,,,,,,,,,,,,,,,,
,,,,,V3_097,19,Female,2025-02-04_13h34.37.580,jersey_experiment_5_v3,2023.2.2,Win32,85.47008547,,,,,,,,,,,,,,,,809.8188,811.3714,811.3716,812.0893,return,0.0947,,83.72395833,,,,,,FBP-OG-71.png,0.43,1.2,34,0.75,,,,,,,,,,,,,,,,,,0,39,39,33,1,,,,,,,,,,,,,,,,,,,,,,,
,,,,,V3_097,19,Female,2025-02-04_13h34.37.580,jersey_experiment_5_v3,2023.2.2,Win32,85.47008547,,,,,,,,,,,,,,,,812.0895,813.6423,813.6424,814.6657,return,0.189,,52.34375,,,,,,FBP-OG-91.png,0.35,1.2,41,0.75,,,,,,,,,,,,,,,,,,0,40,40,40,1,,,,,,,,,,,,,,,,,,,,,,,
,,,,,V3_097,19,Female,2025-02-04_13h34.37.580,jersey_experiment_5_v3,2023.2.2,Win32,85.47008547,,,,,,,,,,,,,,,,814.666,816.2188,816.2188,817.0305,return,0.1099,,63.15104167,,,,,,FBP-OG-71.png,0.4,1.2,33,0.75,,,,,,,,,,,,,,,,,,0,41,41,32,1,,,,,,,,,,,,,,,,,,,,,,,
,,,,,V3_097,19,Female,2025-02-04_13h34.37.580,jersey_experiment_5_v3,2023.2.2,Win32,85.47008547,,,,,,,,,,,,,,,,817.0308,818.3247,818.3247,819.6425,return,0.0951,,79.94791667,,,,,,FBP-YG-17.png,0.43,1.2,4,0.5,,,,,,,,,,,,,,,,,,0,42,42,3,1,,,,,,,,,,,,,,,,,,,,,,,
,,,,,V3_097,19,Female,2025-02-04_13h34.37.580,jersey_experiment_5_v3,2023.2.2,Win32,85.47008547,,,,,,,,,,,,,,,,819.6428,821.1955,821.1955,821.7837,return,0.0383,,89.32291667,,,,,,FBP-OG-91.png,0.43,1.2,44,0.75,,,,,,,,,,,,,,,,,,0,43,43,43,1,,,,,,,,,,,,,,,,,,,,,,,
,,,,,V3_097,19,Female,2025-02-04_13h34.37.580,jersey_experiment_5_v3,2023.2.2,Win32,85.47008547,,,,,,,,,,,,,,,,821.7839,823.3368,823.3369,825.0779,return,0.1581,,47.65625,,,,,,FBP-OG-71.png,0.35,1.2,31,0.75,,,,,,,,,,,,,,,,,,0,44,44,30,1,,,,,,,,,,,,,,,,,,,,,,,
,,,,,V3_097,19,Female,2025-02-04_13h34.37.580,jersey_experiment_5_v3,2023.2.2,Win32,85.47008547,,,,,,,,,,,,,,,,825.0781,826.3721,826.3721,827.5251,return,0.1434,,49.73958333,,,,,,FBP-YG-17.png,0.37,1.2,2,0.5,,,,,,,,,,,,,,,,,,0,45,45,1,1,,,,,,,,,,,,,,,,,,,,,,,
,,,,,V3_097,19,Female,2025-02-04_13h34.37.580,jersey_experiment_5_v3,2023.2.2,Win32,85.47008547,,,,,,,,,,,,,,,,827.5254,828.8191,828.8191,830.2663,return,0.1263,,77.21354167,,,,,,FBP-PT-91.png,0.45,1.2,30,0.5,,,,,,,,,,,,,,,,,,0,46,46,29,1,,,,,,,,,,,,,,,,,,,,,,,
,,,,,V3_097,19,Female,2025-02-04_13h34.37.580,jersey_experiment_5_v3,2023.2.2,Win32,85.47008547,,,,,,,,,,,,,,,,830.2666,831.5605,831.5605,832.937,return,0.1333,,60.28645833,,,,,,FBP-RB-81.png,0.37,1.2,52,0.5,,,,,,,,,,,,,,,,,,0,47,47,51,1,,,,,,,,,,,,,,,,,,,,,,,
,,,,,V3_097,19,Female,2025-02-04_13h34.37.580,jersey_experiment_5_v3,2023.2.2,Win32,85.47008547,,,,,,,,,,,,,,,,832.9373,834.2312,834.2312,835.549,return,0.045,,88.15104167,,,,,,FBP-PT-71.png,0.45,1.2,20,0.5,,,,,,,,,,,,,,,,,,0,48,48,19,1,,,,,,,,,,,,,,,,,,,,,,,
,,,,,V3_097,19,Female,2025-02-04_13h34.37.580,jersey_experiment_5_v3,2023.2.2,Win32,85.47008547,,,,,,,,,,,,,,,,835.5492,836.8431,836.8431,837.8195,return,0.0472,,74.86979167,,,,,,FBP-PT-81.png,0.4,1.2,23,0.5,,,,,,,,,,,,,,,,,,0,49,49,22,1,,,,,,,,,,,,,,,,,,,,,,,
,,,,,V3_097,19,Female,2025-02-04_13h34.37.580,jersey_experiment_5_v3,2023.2.2,Win32,85.47008547,,,,,,,,,,,,,,,,837.8198,839.1137,839.1137,839.9962,return,0.0723,,84.375,,,,,,FBP-PT-71.png,0.43,1.2,19,0.5,,,,,,,,,,,,,,,,,,0,50,50,18,1,,,,,,,,,,,,,,,,,,,,,,,
,,,,,V3_097,19,Female,2025-02-04_13h34.37.580,jersey_experiment_5_v3,2023.2.2,Win32,85.47008547,,,,,,,,,,,,,,,,839.9964,841.2903,841.2904,842.2433,return,0.0778,,63.93229167,,,,,,FBP-PT-81.png,0.37,1.2,22,0.5,,,,,,,,,,,,,,,,,,0,51,51,21,1,,,,,,,,,,,,,,,,,,,,,,,
,,,,,V3_097,19,Female,2025-02-04_13h34.37.580,jersey_experiment_5_v3,2023.2.2,Win32,85.47008547,,,,,,,,,,,,,,,,842.2436,843.5374,843.5375,844.5962,return,0.0772,,85.67708333,,,,,,FBP-YG-19.png,0.45,1.2,15,0.5,,,,,,,,,,,,,,,,,,0,52,52,14,1,,,,,,,,,,,,,,,,,,,,,,,
,,,,,V3_097,19,Female,2025-02-04_13h34.37.580,jersey_experiment_5_v3,2023.2.2,Win32,85.47008547,,,,,,,,,,,,,,,,844.5965,845.8904,845.8905,848.1024,return,0.0278,,74.609375,,,,,,FBP-YG-18.png,0.37,1.2,7,0.5,,,,,,,,,,,,,,,,,,0,53,53,6,1,,,,,,,,,,,,,,,,,,,,,,,
,,,,,V3_097,19,Female,2025-02-04_13h34.37.580,jersey_experiment_5_v3,2023.2.2,Win32,85.47008547,,,,,,,,,,,,,,,,848.1026,849.3965,849.3966,850.4906,return,0.0838,,55.98958333,,,,,,FBP-YG-19.png,0.35,1.2,11,0.5,,,,,,,,,,,,,,,,,,0,54,54,10,1,,,,,,,,,,,,,,,,,,,,,,,
,,,,,V3_097,19,Female,2025-02-04_13h34.37.580,jersey_experiment_5_v3,2023.2.2,Win32,85.47008547,,,,,,,,,,,,,,,,850.4908,851.7849,851.7849,852.9026,return,0.2007,,58.59375,,,,,,FBP-RB-71.png,0.37,1.2,47,0.5,,,,,,,,,,,,,,,,,,0,55,55,46,1,,,,,,,,,,,,,,,,,,,,,,,
,,,,,V3_097,19,Female,2025-02-04_13h34.37.580,jersey_experiment_5_v3,2023.2.2,Win32,85.47008547,,,,,,,,,,,,,,,,852.9027,854.1967,854.1967,855.3025,return,0.0038,,72.39583333,,,,,,FBP-RB-81.png,0.43,1.2,54,0.5,,,,,,,,,,,,,,,,,,0,56,56,53,1,,,,,,,,,,,,,,,,,,,,,,,
,,,,,V3_097,19,Female,2025-02-04_13h34.37.580,jersey_experiment_5_v3,2023.2.2,Win32,85.47008547,,,,,,,,,,,,,,,,855.3027,856.8556,856.8556,857.6202,return,0.1698,,77.08333333,,,,,,FBP-OG-81.png,0.45,1.2,40,0.75,,,,,,,,,,,,,,,,,,0,57,57,39,1,,,,,,,,,,,,,,,,,,,,,,,
,,,,,V3_097,19,Female,2025-02-04_13h34.37.580,jersey_experiment_5_v3,2023.2.2,Win32,85.47008547,,,,,,,,,,,,,,,,857.6205,859.1734,859.1735,860.6441,return,0.1243,,62.109375,,,,,,FBP-OG-81.png,0.4,1.2,38,0.75,,,,,,,,,,,,,,,,,,0,58,58,37,1,,,,,,,,,,,,,,,,,,,,,,,
,,,,,V3_097,19,Female,2025-02-04_13h34.37.580,jersey_experiment_5_v3,2023.2.2,Win32,85.47008547,,,,,,,,,,,,,,,,860.6443,861.9381,861.9381,862.7147,return,0.1885,,62.36979167,,,,,,FBP-PT-91.png,0.4,1.2,28,0.5,,,,,,,,,,,,,,,,,,0,59,59,27,1,,,,,,,,,,,,,,,,,,,,,,,
,,,,,V3_097,19,Female,2025-02-04_13h34.37.580,jersey_experiment_5_v3,2023.2.2,Win32,85.47008547,,,,,,,,,,,,,,,,,,,,,,,,,,,,,,,,,,,,,,,,,,,,,,,,,,,,,,,,862.7148,867.7974,return,5.0729,,,,,,,,,,,,,,,,,,,
,,,,,V3_097,19,Female,2025-02-04_13h34.37.580,jersey_experiment_5_v3,2023.2.2,Win32,85.47008547,,,,,,,,,,,,,,,,,,,,,,,,,,,,,,,,,,,,,,,,,,,,,,,,,,,,,,,,,,,,,867.7974,873.1741,1,3.5822,return,1.7802,,,,,,,,,,,,
,,,,,V3_097,19,Female,2025-02-04_13h34.37.580,jersey_experiment_5_v3,2023.2.2,Win32,85.47008547,,,,,,,,,,,,,,,,,,,,,,,,,,,,,,,,,,,,,,,,,,,,,,,,,,,,,,,,,,,,,,,,,,,,873.1743,921.1218,"Unintentional biases when perceiving others, or how priming someone with example photos influences their perceptions?",right,39.8716,,,,,,
,,,,,V3_097,19,Female,2025-02-04_13h34.37.580,jersey_experiment_5_v3,2023.2.2,Win32,85.47008547,,,,,,,,,,,,,,,,,,,,,,,,,,,,,,,,,,,,,,,,,,,,,,,,,,,,,,,,,,,,,,,,,,,,,,,,,,921.1218,925.218,return,4.0855,