requirements.started,requirements.stopped,key_resp_3.keys,key_resp_3.rt,key_resp_3.duration,Subject ID,Age,Gender,date,expName,psychopyVersion,OS,frameRate,instructions1.started,instructions1.stopped,key_resp.keys,key_resp.rt,key_resp.duration,example.started,example.stopped,enter_2.keys,enter_2.rt,enter_2.duration,instructions2.started,instructions2.stopped,enter_3.keys,enter_3.rt,enter_3.duration,image.started,image.stopped,slider_2.started,slider_2.stopped,next.keys,next.rt,next.duration,slider.response,trial_block_1.thisRepN,trial_block_1.thisTrialN,trial_block_1.thisN,trial_block_1.thisIndex,trial_block_1.ran,Path,Width,Height,Index,Duration,trial_block_2.thisRepN,trial_block_2.thisTrialN,trial_block_2.thisN,trial_block_2.thisIndex,trial_block_2.ran,rest_break.started,rest_break.stopped,end_break.started,end_break.stopped,key_resp_5.keys,key_resp_5.rt,key_resp_5.duration,trial_block_3.thisRepN,trial_block_3.thisTrialN,trial_block_3.thisN,trial_block_3.thisIndex,trial_block_3.ran,trial_block_4.thisRepN,trial_block_4.thisTrialN,trial_block_4.thisN,trial_block_4.thisIndex,trial_block_4.ran,questions_intro.started,questions_intro.stopped,enter_12.keys,enter_12.rt,enter_12.duration,question2.started,question2.stopped,question_doingbest.response,question_doingbest.rt,enter_15.keys,enter_15.rt,enter_15.duration,pattern.started,pattern.stopped,pattern_2.text,enter_17.keys,enter_17.rt,enter_17.duration,thankyou.started,thankyou.stopped,enter_14.keys,enter_14.rt,enter_14.duration
1E-04,156.5956,return,156.591,,V3_050,19,female,2024-11-05_16h27.05.626,jersey_experiment_5_v3,2023.2.2,Win32,85.47008547,,,,,,,,,,,,,,,,,,,,,,,,,,,,,,,,,,,,,,,,,,,,,,,,,,,,,,,,,,,,,,,,,,,,,,,,,,,,,,
,,,,,V3_050,19,female,2024-11-05_16h27.05.626,jersey_experiment_5_v3,2023.2.2,Win32,85.47008547,156.5958,163.2278,return,6.6146,,,,,,,,,,,,,,,,,,,,,,,,,,,,,,,,,,,,,,,,,,,,,,,,,,,,,,,,,,,,,,,,,,,,,,,,,,
,,,,,V3_050,19,female,2024-11-05_16h27.05.626,jersey_experiment_5_v3,2023.2.2,Win32,85.47008547,,,,,,163.228,167.0043,return,3.7534,,,,,,,,,,,,,,,,,,,,,,,,,,,,,,,,,,,,,,,,,,,,,,,,,,,,,,,,,,,,,,,,,,,,,
,,,,,V3_050,19,female,2024-11-05_16h27.05.626,jersey_experiment_5_v3,2023.2.2,Win32,85.47008547,,,,,,,,,,,167.0044,173.7105,return,6.6859,,,,,,,,,,,,,,,,,,,,,,,,,,,,,,,,,,,,,,,,,,,,,,,,,,,,,,,,,,,,,,,,
,,,,,V3_050,19,female,2024-11-05_16h27.05.626,jersey_experiment_5_v3,2023.2.2,Win32,85.47008547,,,,,,,,,,,,,,,,173.7128,175.2546,175.2548,180.7613,return,2.3535,,75.390625,0,0,0,9,1,FBP-YG-81.png,0.45,1.2,10,0.75,,,,,,,,,,,,,,,,,,,,,,,,,,,,,,,,,,,,,,,,,,,,,
,,,,,V3_050,19,female,2024-11-05_16h27.05.626,jersey_experiment_5_v3,2023.2.2,Win32,85.47008547,,,,,,,,,,,,,,,,180.7614,182.0702,182.0702,185.5845,return,1.0117,,24.08854167,0,1,1,40,1,FBP-OG-19.png,0.35,1.2,41,0.5,,,,,,,,,,,,,,,,,,,,,,,,,,,,,,,,,,,,,,,,,,,,,
,,,,,V3_050,19,female,2024-11-05_16h27.05.626,jersey_experiment_5_v3,2023.2.2,Win32,85.47008547,,,,,,,,,,,,,,,,185.5847,187.1291,187.1291,192.2119,return,1.0039,,99.609375,0,2,2,17,1,FBP-PT-17.png,0.4,1.2,18,0.75,,,,,,,,,,,,,,,,,,,,,,,,,,,,,,,,,,,,,,,,,,,,,
,,,,,V3_050,19,female,2024-11-05_16h27.05.626,jersey_experiment_5_v3,2023.2.2,Win32,85.47008547,,,,,,,,,,,,,,,,192.2121,193.7646,193.7646,197.676,return,1.1318,,0.130208333,0,3,3,25,1,FBP-PT-19.png,0.35,1.2,26,0.75,,,,,,,,,,,,,,,,,,,,,,,,,,,,,,,,,,,,,,,,,,,,,
,,,,,V3_050,19,female,2024-11-05_16h27.05.626,jersey_experiment_5_v3,2023.2.2,Win32,85.47008547,,,,,,,,,,,,,,,,197.6762,199.2238,199.2238,204.009,return,0.9732,,74.21875,0,4,4,27,1,FBP-PT-19.png,0.4,1.2,28,0.75,,,,,,,,,,,,,,,,,,,,,,,,,,,,,,,,,,,,,,,,,,,,,
,,,,,V3_050,19,female,2024-11-05_16h27.05.626,jersey_experiment_5_v3,2023.2.2,Win32,85.47008547,,,,,,,,,,,,,,,,204.0091,205.3181,205.3181,207.8209,return,0.6121,,49.47916667,0,5,5,37,1,FBP-OG-18.png,0.4,1.2,38,0.5,,,,,,,,,,,,,,,,,,,,,,,,,,,,,,,,,,,,,,,,,,,,,
,,,,,V3_050,19,female,2024-11-05_16h27.05.626,jersey_experiment_5_v3,2023.2.2,Win32,85.47008547,,,,,,,,,,,,,,,,207.821,209.3736,209.3737,213.883,return,1.1212,,73.828125,0,6,6,0,1,FBP-YG-71.png,0.35,1.2,1,0.75,,,,,,,,,,,,,,,,,,,,,,,,,,,,,,,,,,,,,,,,,,,,,
,,,,,V3_050,19,female,2024-11-05_16h27.05.626,jersey_experiment_5_v3,2023.2.2,Win32,85.47008547,,,,,,,,,,,,,,,,213.8833,215.4295,215.4295,217.5542,return,0.9331,,99.73958333,0,7,7,49,1,FBP-RB-17.png,0.45,1.2,50,0.75,,,,,,,,,,,,,,,,,,,,,,,,,,,,,,,,,,,,,,,,,,,,,
,,,,,V3_050,19,female,2024-11-05_16h27.05.626,jersey_experiment_5_v3,2023.2.2,Win32,85.47008547,,,,,,,,,,,,,,,,217.5543,219.1068,219.1068,221.5776,return,0.7997,,50,0,8,8,20,1,FBP-PT-18.png,0.35,1.2,21,0.75,,,,,,,,,,,,,,,,,,,,,,,,,,,,,,,,,,,,,,,,,,,,,
,,,,,V3_050,19,female,2024-11-05_16h27.05.626,jersey_experiment_5_v3,2023.2.2,Win32,85.47008547,,,,,,,,,,,,,,,,221.5777,223.1239,223.124,226.4416,return,0.7931,,99.609375,0,9,9,14,1,FBP-YG-91.png,0.45,1.2,15,0.75,,,,,,,,,,,,,,,,,,,,,,,,,,,,,,,,,,,,,,,,,,,,,
,,,,,V3_050,19,female,2024-11-05_16h27.05.626,jersey_experiment_5_v3,2023.2.2,Win32,85.47008547,,,,,,,,,,,,,,,,226.4419,227.986,227.986,231.5949,return,2.0777,,50,0,10,10,1,1,FBP-YG-71.png,0.37,1.2,2,0.75,,,,,,,,,,,,,,,,,,,,,,,,,,,,,,,,,,,,,,,,,,,,,
,,,,,V3_050,19,female,2024-11-05_16h27.05.626,jersey_experiment_5_v3,2023.2.2,Win32,85.47008547,,,,,,,,,,,,,,,,231.5951,232.8954,232.8954,234.9511,return,0.7146,,49.609375,0,11,11,41,1,FBP-OG-19.png,0.37,1.2,42,0.5,,,,,,,,,,,,,,,,,,,,,,,,,,,,,,,,,,,,,,,,,,,,,
,,,,,V3_050,19,female,2024-11-05_16h27.05.626,jersey_experiment_5_v3,2023.2.2,Win32,85.47008547,,,,,,,,,,,,,,,,234.9513,236.4955,236.4955,237.916,return,0.6442,,50.26041667,0,12,12,15,1,FBP-PT-17.png,0.35,1.2,16,0.75,,,,,,,,,,,,,,,,,,,,,,,,,,,,,,,,,,,,,,,,,,,,,
,,,,,V3_050,19,female,2024-11-05_16h27.05.626,jersey_experiment_5_v3,2023.2.2,Win32,85.47008547,,,,,,,,,,,,,,,,237.9162,239.2099,239.2099,241.1245,return,0.6118,,75,0,13,13,42,1,FBP-OG-19.png,0.4,1.2,43,0.5,,,,,,,,,,,,,,,,,,,,,,,,,,,,,,,,,,,,,,,,,,,,,
,,,,,V3_050,19,female,2024-11-05_16h27.05.626,jersey_experiment_5_v3,2023.2.2,Win32,85.47008547,,,,,,,,,,,,,,,,241.1247,242.669,242.669,244.6223,return,0.6118,,49.47916667,0,14,14,56,1,FBP-RB-19.png,0.37,1.2,57,0.75,,,,,,,,,,,,,,,,,,,,,,,,,,,,,,,,,,,,,,,,,,,,,
,,,,,V3_050,19,female,2024-11-05_16h27.05.626,jersey_experiment_5_v3,2023.2.2,Win32,85.47008547,,,,,,,,,,,,,,,,244.6224,245.9159,245.9159,248.2221,return,1.3263,,49.73958333,0,15,15,35,1,FBP-OG-18.png,0.35,1.2,36,0.5,,,,,,,,,,,,,,,,,,,,,,,,,,,,,,,,,,,,,,,,,,,,,
,,,,,V3_050,19,female,2024-11-05_16h27.05.626,jersey_experiment_5_v3,2023.2.2,Win32,85.47008547,,,,,,,,,,,,,,,,248.2222,249.5162,249.5162,251.955,return,0.9885,,49.609375,0,16,16,31,1,FBP-OG-17.png,0.37,1.2,32,0.5,,,,,,,,,,,,,,,,,,,,,,,,,,,,,,,,,,,,,,,,,,,,,
,,,,,V3_050,19,female,2024-11-05_16h27.05.626,jersey_experiment_5_v3,2023.2.2,Win32,85.47008547,,,,,,,,,,,,,,,,251.9552,253.508,253.508,257.6963,return,0.6505,,99.73958333,0,17,17,54,1,FBP-RB-18.png,0.45,1.2,55,0.75,,,,,,,,,,,,,,,,,,,,,,,,,,,,,,,,,,,,,,,,,,,,,
,,,,,V3_050,19,female,2024-11-05_16h27.05.626,jersey_experiment_5_v3,2023.2.2,Win32,85.47008547,,,,,,,,,,,,,,,,257.6964,259.2493,259.2494,261.0611,return,0.6035,,24.86979167,0,18,18,55,1,FBP-RB-19.png,0.35,1.2,56,0.75,,,,,,,,,,,,,,,,,,,,,,,,,,,,,,,,,,,,,,,,,,,,,
,,,,,V3_050,19,female,2024-11-05_16h27.05.626,jersey_experiment_5_v3,2023.2.2,Win32,85.47008547,,,,,,,,,,,,,,,,261.0613,262.6077,262.6077,264.3874,return,0.5886,,25,0,19,19,45,1,FBP-RB-17.png,0.35,1.2,46,0.75,,,,,,,,,,,,,,,,,,,,,,,,,,,,,,,,,,,,,,,,,,,,,
,,,,,V3_050,19,female,2024-11-05_16h27.05.626,jersey_experiment_5_v3,2023.2.2,Win32,85.47008547,,,,,,,,,,,,,,,,264.3875,265.9321,265.9321,272.0969,return,0.6586,,99.47916667,0,20,20,47,1,FBP-RB-17.png,0.4,1.2,48,0.75,,,,,,,,,,,,,,,,,,,,,,,,,,,,,,,,,,,,,,,,,,,,,
,,,,,V3_050,19,female,2024-11-05_16h27.05.626,jersey_experiment_5_v3,2023.2.2,Win32,85.47008547,,,,,,,,,,,,,,,,272.097,273.6434,273.6434,276.662,return,0.7062,,49.34895833,0,21,21,50,1,FBP-RB-18.png,0.35,1.2,51,0.75,,,,,,,,,,,,,,,,,,,,,,,,,,,,,,,,,,,,,,,,,,,,,
,,,,,V3_050,19,female,2024-11-05_16h27.05.626,jersey_experiment_5_v3,2023.2.2,Win32,85.47008547,,,,,,,,,,,,,,,,276.6621,278.2083,278.2083,280.7797,return,0.6507,,49.73958333,0,22,22,10,1,FBP-YG-91.png,0.35,1.2,11,0.75,,,,,,,,,,,,,,,,,,,,,,,,,,,,,,,,,,,,,,,,,,,,,
,,,,,V3_050,19,female,2024-11-05_16h27.05.626,jersey_experiment_5_v3,2023.2.2,Win32,85.47008547,,,,,,,,,,,,,,,,280.7798,282.3328,282.3328,284.3564,return,0.6035,,75.52083333,0,23,23,53,1,FBP-RB-18.png,0.43,1.2,54,0.75,,,,,,,,,,,,,,,,,,,,,,,,,,,,,,,,,,,,,,,,,,,,,
,,,,,V3_050,19,female,2024-11-05_16h27.05.626,jersey_experiment_5_v3,2023.2.2,Win32,85.47008547,,,,,,,,,,,,,,,,284.3565,285.9027,285.9027,287.9093,return,0.6507,,75.13020833,0,24,24,22,1,FBP-PT-18.png,0.4,1.2,23,0.75,,,,,,,,,,,,,,,,,,,,,,,,,,,,,,,,,,,,,,,,,,,,,
,,,,,V3_050,19,female,2024-11-05_16h27.05.626,jersey_experiment_5_v3,2023.2.2,Win32,85.47008547,,,,,,,,,,,,,,,,287.9095,289.462,289.462,291.9179,return,1.1851,,99.47916667,0,25,25,13,1,FBP-YG-91.png,0.43,1.2,14,0.75,,,,,,,,,,,,,,,,,,,,,,,,,,,,,,,,,,,,,,,,,,,,,
,,,,,V3_050,19,female,2024-11-05_16h27.05.626,jersey_experiment_5_v3,2023.2.2,Win32,85.47008547,,,,,,,,,,,,,,,,291.9181,293.4708,293.4708,297.9568,return,2.0947,,99.47916667,0,26,26,23,1,FBP-PT-18.png,0.43,1.2,24,0.75,,,,,,,,,,,,,,,,,,,,,,,,,,,,,,,,,,,,,,,,,,,,,
,,,,,V3_050,19,female,2024-11-05_16h27.05.626,jersey_experiment_5_v3,2023.2.2,Win32,85.47008547,,,,,,,,,,,,,,,,297.9569,299.2508,299.2508,302.8745,return,1.9447,,99.47916667,0,27,27,34,1,FBP-OG-17.png,0.45,1.2,35,0.5,,,,,,,,,,,,,,,,,,,,,,,,,,,,,,,,,,,,,,,,,,,,,
,,,,,V3_050,19,female,2024-11-05_16h27.05.626,jersey_experiment_5_v3,2023.2.2,Win32,85.47008547,,,,,,,,,,,,,,,,302.8746,304.4274,304.4274,306.6565,return,0.6839,,99.609375,0,28,28,48,1,FBP-RB-17.png,0.43,1.2,49,0.75,,,,,,,,,,,,,,,,,,,,,,,,,,,,,,,,,,,,,,,,,,,,,
,,,,,V3_050,19,female,2024-11-05_16h27.05.626,jersey_experiment_5_v3,2023.2.2,Win32,85.47008547,,,,,,,,,,,,,,,,306.6567,308.2007,308.2007,310.9859,return,1.0197,,24.86979167,0,29,29,51,1,FBP-RB-18.png,0.37,1.2,52,0.75,,,,,,,,,,,,,,,,,,,,,,,,,,,,,,,,,,,,,,,,,,,,,
,,,,,V3_050,19,female,2024-11-05_16h27.05.626,jersey_experiment_5_v3,2023.2.2,Win32,85.47008547,,,,,,,,,,,,,,,,310.9861,312.287,312.287,316.5226,return,1.8145,,74.73958333,0,30,30,39,1,FBP-OG-18.png,0.45,1.2,40,0.5,,,,,,,,,,,,,,,,,,,,,,,,,,,,,,,,,,,,,,,,,,,,,
,,,,,V3_050,19,female,2024-11-05_16h27.05.626,jersey_experiment_5_v3,2023.2.2,Win32,85.47008547,,,,,,,,,,,,,,,,316.5227,318.0748,318.0748,319.9189,return,0.6913,,75,0,31,31,29,1,FBP-PT-19.png,0.45,1.2,30,0.75,,,,,,,,,,,,,,,,,,,,,,,,,,,,,,,,,,,,,,,,,,,,,
,,,,,V3_050,19,female,2024-11-05_16h27.05.626,jersey_experiment_5_v3,2023.2.2,Win32,85.47008547,,,,,,,,,,,,,,,,319.9191,321.4718,321.4719,324.1929,return,0.6271,,99.34895833,0,32,32,24,1,FBP-PT-18.png,0.45,1.2,25,0.75,,,,,,,,,,,,,,,,,,,,,,,,,,,,,,,,,,,,,,,,,,,,,
,,,,,V3_050,19,female,2024-11-05_16h27.05.626,jersey_experiment_5_v3,2023.2.2,Win32,85.47008547,,,,,,,,,,,,,,,,324.1931,325.4871,325.4871,328.296,return,0.5654,,74.34895833,0,33,33,33,1,FBP-OG-17.png,0.43,1.2,34,0.5,,,,,,,,,,,,,,,,,,,,,,,,,,,,,,,,,,,,,,,,,,,,,
,,,,,V3_050,19,female,2024-11-05_16h27.05.626,jersey_experiment_5_v3,2023.2.2,Win32,85.47008547,,,,,,,,,,,,,,,,328.2962,329.841,329.8411,333.5902,return,0.6827,,24.86979167,0,34,34,21,1,FBP-PT-18.png,0.37,1.2,22,0.75,,,,,,,,,,,,,,,,,,,,,,,,,,,,,,,,,,,,,,,,,,,,,
,,,,,V3_050,19,female,2024-11-05_16h27.05.626,jersey_experiment_5_v3,2023.2.2,Win32,85.47008547,,,,,,,,,,,,,,,,333.5902,334.8992,334.8992,337.3463,return,0.6036,,75,0,35,35,38,1,FBP-OG-18.png,0.43,1.2,39,0.5,,,,,,,,,,,,,,,,,,,,,,,,,,,,,,,,,,,,,,,,,,,,,
,,,,,V3_050,19,female,2024-11-05_16h27.05.626,jersey_experiment_5_v3,2023.2.2,Win32,85.47008547,,,,,,,,,,,,,,,,337.3465,338.9,338.9,340.681,return,0.676,,49.21875,0,36,36,6,1,FBP-YG-81.png,0.37,1.2,7,0.75,,,,,,,,,,,,,,,,,,,,,,,,,,,,,,,,,,,,,,,,,,,,,
,,,,,V3_050,19,female,2024-11-05_16h27.05.626,jersey_experiment_5_v3,2023.2.2,Win32,85.47008547,,,,,,,,,,,,,,,,340.6812,342.2401,342.2401,344.2021,return,0.5649,,74.86979167,0,37,37,3,1,FBP-YG-71.png,0.43,1.2,4,0.75,,,,,,,,,,,,,,,,,,,,,,,,,,,,,,,,,,,,,,,,,,,,,
,,,,,V3_050,19,female,2024-11-05_16h27.05.626,jersey_experiment_5_v3,2023.2.2,Win32,85.47008547,,,,,,,,,,,,,,,,344.2022,345.7447,345.7448,348.8846,return,0.659,,49.73958333,0,38,38,28,1,FBP-PT-19.png,0.43,1.2,29,0.75,,,,,,,,,,,,,,,,,,,,,,,,,,,,,,,,,,,,,,,,,,,,,
,,,,,V3_050,19,female,2024-11-05_16h27.05.626,jersey_experiment_5_v3,2023.2.2,Win32,85.47008547,,,,,,,,,,,,,,,,348.8848,350.1937,350.1937,351.6611,return,0.6825,,49.34895833,0,39,39,32,1,FBP-OG-17.png,0.4,1.2,33,0.5,,,,,,,,,,,,,,,,,,,,,,,,,,,,,,,,,,,,,,,,,,,,,
,,,,,V3_050,19,female,2024-11-05_16h27.05.626,jersey_experiment_5_v3,2023.2.2,Win32,85.47008547,,,,,,,,,,,,,,,,351.6613,353.2057,353.2057,354.9321,return,0.5734,,75.13020833,0,40,40,4,1,FBP-YG-71.png,0.45,1.2,5,0.75,,,,,,,,,,,,,,,,,,,,,,,,,,,,,,,,,,,,,,,,,,,,,
,,,,,V3_050,19,female,2024-11-05_16h27.05.626,jersey_experiment_5_v3,2023.2.2,Win32,85.47008547,,,,,,,,,,,,,,,,354.9322,356.4764,356.4764,360.7525,return,0.6454,,49.73958333,0,41,41,11,1,FBP-YG-91.png,0.37,1.2,12,0.75,,,,,,,,,,,,,,,,,,,,,,,,,,,,,,,,,,,,,,,,,,,,,
,,,,,V3_050,19,female,2024-11-05_16h27.05.626,jersey_experiment_5_v3,2023.2.2,Win32,85.47008547,,,,,,,,,,,,,,,,360.7527,362.2967,362.2967,364.7677,return,0.5502,,74.609375,0,42,42,19,1,FBP-PT-17.png,0.45,1.2,20,0.75,,,,,,,,,,,,,,,,,,,,,,,,,,,,,,,,,,,,,,,,,,,,,
,,,,,V3_050,19,female,2024-11-05_16h27.05.626,jersey_experiment_5_v3,2023.2.2,Win32,85.47008547,,,,,,,,,,,,,,,,364.7678,366.0703,366.0703,368.1409,return,0.593,,25.13020833,0,43,43,30,1,FBP-OG-17.png,0.35,1.2,31,0.5,,,,,,,,,,,,,,,,,,,,,,,,,,,,,,,,,,,,,,,,,,,,,
,,,,,V3_050,19,female,2024-11-05_16h27.05.626,jersey_experiment_5_v3,2023.2.2,Win32,85.47008547,,,,,,,,,,,,,,,,368.1412,369.4416,369.4416,371.277,return,0.6507,,75.390625,0,44,44,44,1,FBP-OG-19.png,0.45,1.2,45,0.5,,,,,,,,,,,,,,,,,,,,,,,,,,,,,,,,,,,,,,,,,,,,,
,,,,,V3_050,19,female,2024-11-05_16h27.05.626,jersey_experiment_5_v3,2023.2.2,Win32,85.47008547,,,,,,,,,,,,,,,,371.2772,372.8235,372.8235,374.6353,return,0.6031,,74.86979167,0,45,45,2,1,FBP-YG-71.png,0.4,1.2,3,0.75,,,,,,,,,,,,,,,,,,,,,,,,,,,,,,,,,,,,,,,,,,,,,
,,,,,V3_050,19,female,2024-11-05_16h27.05.626,jersey_experiment_5_v3,2023.2.2,Win32,85.47008547,,,,,,,,,,,,,,,,374.6355,376.1796,376.1796,377.7413,return,0.6162,,75.13020833,0,46,46,52,1,FBP-RB-18.png,0.4,1.2,53,0.75,,,,,,,,,,,,,,,,,,,,,,,,,,,,,,,,,,,,,,,,,,,,,
,,,,,V3_050,19,female,2024-11-05_16h27.05.626,jersey_experiment_5_v3,2023.2.2,Win32,85.47008547,,,,,,,,,,,,,,,,377.7416,379.2944,379.2944,381.1598,return,0.6592,,74.34895833,0,47,47,7,1,FBP-YG-81.png,0.4,1.2,8,0.75,,,,,,,,,,,,,,,,,,,,,,,,,,,,,,,,,,,,,,,,,,,,,
,,,,,V3_050,19,female,2024-11-05_16h27.05.626,jersey_experiment_5_v3,2023.2.2,Win32,85.47008547,,,,,,,,,,,,,,,,381.16,382.7125,382.7126,385.6539,return,0.627,,49.21875,0,48,48,16,1,FBP-PT-17.png,0.37,1.2,17,0.75,,,,,,,,,,,,,,,,,,,,,,,,,,,,,,,,,,,,,,,,,,,,,
,,,,,V3_050,19,female,2024-11-05_16h27.05.626,jersey_experiment_5_v3,2023.2.2,Win32,85.47008547,,,,,,,,,,,,,,,,385.654,387.2005,387.2005,389.3416,return,0.663,,74.609375,0,49,49,59,1,FBP-RB-19.png,0.45,1.2,60,0.75,,,,,,,,,,,,,,,,,,,,,,,,,,,,,,,,,,,,,,,,,,,,,
,,,,,V3_050,19,female,2024-11-05_16h27.05.626,jersey_experiment_5_v3,2023.2.2,Win32,85.47008547,,,,,,,,,,,,,,,,389.3419,390.9011,390.9011,392.91,return,0.6443,,75.13020833,0,50,50,58,1,FBP-RB-19.png,0.43,1.2,59,0.75,,,,,,,,,,,,,,,,,,,,,,,,,,,,,,,,,,,,,,,,,,,,,
,,,,,V3_050,19,female,2024-11-05_16h27.05.626,jersey_experiment_5_v3,2023.2.2,Win32,85.47008547,,,,,,,,,,,,,,,,392.9102,394.4596,394.4597,398.6663,return,1.8037,,49.34895833,0,51,51,46,1,FBP-RB-17.png,0.37,1.2,47,0.75,,,,,,,,,,,,,,,,,,,,,,,,,,,,,,,,,,,,,,,,,,,,,
,,,,,V3_050,19,female,2024-11-05_16h27.05.626,jersey_experiment_5_v3,2023.2.2,Win32,85.47008547,,,,,,,,,,,,,,,,398.6664,400.2192,400.2192,404.5958,return,0.556,,75,0,52,52,12,1,FBP-YG-91.png,0.4,1.2,13,0.75,,,,,,,,,,,,,,,,,,,,,,,,,,,,,,,,,,,,,,,,,,,,,
,,,,,V3_050,19,female,2024-11-05_16h27.05.626,jersey_experiment_5_v3,2023.2.2,Win32,85.47008547,,,,,,,,,,,,,,,,404.5959,405.8898,405.8898,407.7725,return,0.6121,,49.86979167,0,53,53,36,1,FBP-OG-18.png,0.37,1.2,37,0.5,,,,,,,,,,,,,,,,,,,,,,,,,,,,,,,,,,,,,,,,,,,,,
,,,,,V3_050,19,female,2024-11-05_16h27.05.626,jersey_experiment_5_v3,2023.2.2,Win32,85.47008547,,,,,,,,,,,,,,,,407.7727,409.3253,409.3253,415.9617,return,5.4279,,50.26041667,0,54,54,26,1,FBP-PT-19.png,0.37,1.2,27,0.75,,,,,,,,,,,,,,,,,,,,,,,,,,,,,,,,,,,,,,,,,,,,,
,,,,,V3_050,19,female,2024-11-05_16h27.05.626,jersey_experiment_5_v3,2023.2.2,Win32,85.47008547,,,,,,,,,,,,,,,,415.9619,417.5074,417.5075,420.2199,return,0.5879,,74.86979167,0,55,55,8,1,FBP-YG-81.png,0.43,1.2,9,0.75,,,,,,,,,,,,,,,,,,,,,,,,,,,,,,,,,,,,,,,,,,,,,
,,,,,V3_050,19,female,2024-11-05_16h27.05.626,jersey_experiment_5_v3,2023.2.2,Win32,85.47008547,,,,,,,,,,,,,,,,420.2201,421.7728,421.7729,425.499,return,0.6668,,49.34895833,0,56,56,5,1,FBP-YG-81.png,0.35,1.2,6,0.75,,,,,,,,,,,,,,,,,,,,,,,,,,,,,,,,,,,,,,,,,,,,,
,,,,,V3_050,19,female,2024-11-05_16h27.05.626,jersey_experiment_5_v3,2023.2.2,Win32,85.47008547,,,,,,,,,,,,,,,,425.4991,427.0491,427.0492,429.002,return,0.616,,75.26041667,0,57,57,18,1,FBP-PT-17.png,0.43,1.2,19,0.75,,,,,,,,,,,,,,,,,,,,,,,,,,,,,,,,,,,,,,,,,,,,,
,,,,,V3_050,19,female,2024-11-05_16h27.05.626,jersey_experiment_5_v3,2023.2.2,Win32,85.47008547,,,,,,,,,,,,,,,,429.0022,430.5581,430.5582,432.0879,return,0.6204,,74.73958333,0,58,58,57,1,FBP-RB-19.png,0.4,1.2,58,0.75,,,,,,,,,,,,,,,,,,,,,,,,,,,,,,,,,,,,,,,,,,,,,
,,,,,V3_050,19,female,2024-11-05_16h27.05.626,jersey_experiment_5_v3,2023.2.2,Win32,85.47008547,,,,,,,,,,,,,,,,432.088,433.3904,433.3905,435.7819,return,0.612,,75.13020833,0,59,59,43,1,FBP-OG-19.png,0.43,1.2,44,0.5,,,,,,,,,,,,,,,,,,,,,,,,,,,,,,,,,,,,,,,,,,,,,
,,,,,V3_050,19,female,2024-11-05_16h27.05.626,jersey_experiment_5_v3,2023.2.2,Win32,85.47008547,,,,,,,,,,,,,,,,435.7836,437.3347,437.3347,438.8326,return,0.5801,,99.86979167,,,,,,FBP-RB-81.png,0.45,1.2,55,0.75,0,0,0,54,1,,,,,,,,,,,,,,,,,,,,,,,,,,,,,,,,,,,,,,,,
,,,,,V3_050,19,female,2024-11-05_16h27.05.626,jersey_experiment_5_v3,2023.2.2,Win32,85.47008547,,,,,,,,,,,,,,,,438.8327,440.3788,440.3789,441.9857,return,0.6121,,99.73958333,,,,,,FBP-RB-71.png,0.45,1.2,50,0.75,0,1,1,49,1,,,,,,,,,,,,,,,,,,,,,,,,,,,,,,,,,,,,,,,,
,,,,,V3_050,19,female,2024-11-05_16h27.05.626,jersey_experiment_5_v3,2023.2.2,Win32,85.47008547,,,,,,,,,,,,,,,,441.9858,443.5386,443.5386,445.9134,return,0.5396,,49.21875,,,,,,FBP-PT-81.png,0.37,1.2,22,0.75,0,2,2,21,1,,,,,,,,,,,,,,,,,,,,,,,,,,,,,,,,,,,,,,,,
,,,,,V3_050,19,female,2024-11-05_16h27.05.626,jersey_experiment_5_v3,2023.2.2,Win32,85.47008547,,,,,,,,,,,,,,,,445.9135,447.4615,447.4616,451.1793,return,2.7361,,49.47916667,,,,,,FBP-YG-18.png,0.4,1.2,8,0.75,0,3,3,7,1,,,,,,,,,,,,,,,,,,,,,,,,,,,,,,,,,,,,,,,,
,,,,,V3_050,19,female,2024-11-05_16h27.05.626,jersey_experiment_5_v3,2023.2.2,Win32,85.47008547,,,,,,,,,,,,,,,,451.1796,452.7237,452.7237,454.3242,return,0.597,,74.73958333,,,,,,FBP-PT-91.png,0.45,1.2,30,0.75,0,4,4,29,1,,,,,,,,,,,,,,,,,,,,,,,,,,,,,,,,,,,,,,,,
,,,,,V3_050,19,female,2024-11-05_16h27.05.626,jersey_experiment_5_v3,2023.2.2,Win32,85.47008547,,,,,,,,,,,,,,,,454.3244,455.6182,455.6182,460.2067,return,0.565,,49.34895833,,,,,,FBP-OG-71.png,0.37,1.2,32,0.5,0,5,5,31,1,,,,,,,,,,,,,,,,,,,,,,,,,,,,,,,,,,,,,,,,
,,,,,V3_050,19,female,2024-11-05_16h27.05.626,jersey_experiment_5_v3,2023.2.2,Win32,85.47008547,,,,,,,,,,,,,,,,460.2068,461.7511,461.7511,463.61,return,0.6356,,74.86979167,,,,,,FBP-YG-19.png,0.43,1.2,14,0.75,0,6,6,13,1,,,,,,,,,,,,,,,,,,,,,,,,,,,,,,,,,,,,,,,,
,,,,,V3_050,19,female,2024-11-05_16h27.05.626,jersey_experiment_5_v3,2023.2.2,Win32,85.47008547,,,,,,,,,,,,,,,,463.6102,465.1635,465.1636,470.5095,return,3.8757,,74.47916667,,,,,,FBP-PT-81.png,0.4,1.2,23,0.75,0,7,7,22,1,,,,,,,,,,,,,,,,,,,,,,,,,,,,,,,,,,,,,,,,
,,,,,V3_050,19,female,2024-11-05_16h27.05.626,jersey_experiment_5_v3,2023.2.2,Win32,85.47008547,,,,,,,,,,,,,,,,470.5097,472.0574,472.0574,473.4304,return,0.5733,,24.86979167,,,,,,FBP-PT-91.png,0.35,1.2,26,0.75,0,8,8,25,1,,,,,,,,,,,,,,,,,,,,,,,,,,,,,,,,,,,,,,,,
,,,,,V3_050,19,female,2024-11-05_16h27.05.626,jersey_experiment_5_v3,2023.2.2,Win32,85.47008547,,,,,,,,,,,,,,,,473.4304,474.9837,474.9837,478.5097,return,0.5814,,49.86979167,,,,,,FBP-RB-91.png,0.35,1.2,56,0.75,0,9,9,55,1,,,,,,,,,,,,,,,,,,,,,,,,,,,,,,,,,,,,,,,,
,,,,,V3_050,19,female,2024-11-05_16h27.05.626,jersey_experiment_5_v3,2023.2.2,Win32,85.47008547,,,,,,,,,,,,,,,,478.51,480.0572,480.0572,481.9016,return,0.5888,,24.86979167,,,,,,FBP-YG-17.png,0.35,1.2,1,0.75,0,10,10,0,1,,,,,,,,,,,,,,,,,,,,,,,,,,,,,,,,,,,,,,,,
,,,,,V3_050,19,female,2024-11-05_16h27.05.626,jersey_experiment_5_v3,2023.2.2,Win32,85.47008547,,,,,,,,,,,,,,,,481.9018,483.204,483.204,485.2343,return,0.8626,,24.47916667,,,,,,FBP-OG-81.png,0.4,1.2,38,0.5,0,11,11,37,1,,,,,,,,,,,,,,,,,,,,,,,,,,,,,,,,,,,,,,,,
,,,,,V3_050,19,female,2024-11-05_16h27.05.626,jersey_experiment_5_v3,2023.2.2,Win32,85.47008547,,,,,,,,,,,,,,,,485.2345,486.7806,486.7806,487.9401,return,0.6033,,24.47916667,,,,,,FBP-YG-17.png,0.37,1.2,2,0.75,0,12,12,1,1,,,,,,,,,,,,,,,,,,,,,,,,,,,,,,,,,,,,,,,,
,,,,,V3_050,19,female,2024-11-05_16h27.05.626,jersey_experiment_5_v3,2023.2.2,Win32,85.47008547,,,,,,,,,,,,,,,,487.9402,489.2395,489.2396,490.537,return,0.5886,,24.47916667,,,,,,FBP-OG-91.png,0.35,1.2,41,0.5,0,13,13,40,1,,,,,,,,,,,,,,,,,,,,,,,,,,,,,,,,,,,,,,,,
,,,,,V3_050,19,female,2024-11-05_16h27.05.626,jersey_experiment_5_v3,2023.2.2,Win32,85.47008547,,,,,,,,,,,,,,,,490.5373,492.0814,492.0814,493.7689,return,0.5733,,75.26041667,,,,,,FBP-PT-81.png,0.43,1.2,24,0.75,0,14,14,23,1,,,,,,,,,,,,,,,,,,,,,,,,,,,,,,,,,,,,,,,,
,,,,,V3_050,19,female,2024-11-05_16h27.05.626,jersey_experiment_5_v3,2023.2.2,Win32,85.47008547,,,,,,,,,,,,,,,,493.7692,495.0632,495.0632,498.9606,return,0.8239,,99.21875,,,,,,FBP-OG-71.png,0.45,1.2,35,0.5,0,15,15,34,1,,,,,,,,,,,,,,,,,,,,,,,,,,,,,,,,,,,,,,,,
,,,,,V3_050,19,female,2024-11-05_16h27.05.626,jersey_experiment_5_v3,2023.2.2,Win32,85.47008547,,,,,,,,,,,,,,,,498.9608,500.2634,500.2634,501.6112,return,0.6269,,99.34895833,,,,,,FBP-OG-81.png,0.45,1.2,40,0.5,0,16,16,39,1,,,,,,,,,,,,,,,,,,,,,,,,,,,,,,,,,,,,,,,,
,,,,,V3_050,19,female,2024-11-05_16h27.05.626,jersey_experiment_5_v3,2023.2.2,Win32,85.47008547,,,,,,,,,,,,,,,,501.6114,502.9136,502.9136,504.8437,return,0.6209,,74.08854167,,,,,,FBP-OG-91.png,0.4,1.2,43,0.5,0,17,17,42,1,,,,,,,,,,,,,,,,,,,,,,,,,,,,,,,,,,,,,,,,
,,,,,V3_050,19,female,2024-11-05_16h27.05.626,jersey_experiment_5_v3,2023.2.2,Win32,85.47008547,,,,,,,,,,,,,,,,504.8438,506.3878,506.3879,509.5496,return,1.6478,,24.86979167,,,,,,FBP-PT-71.png,0.37,1.2,17,0.75,0,18,18,16,1,,,,,,,,,,,,,,,,,,,,,,,,,,,,,,,,,,,,,,,,
,,,,,V3_050,19,female,2024-11-05_16h27.05.626,jersey_experiment_5_v3,2023.2.2,Win32,85.47008547,,,,,,,,,,,,,,,,509.5497,510.8585,510.8586,512.4673,return,0.55,,49.47916667,,,,,,FBP-OG-71.png,0.43,1.2,34,0.5,0,19,19,33,1,,,,,,,,,,,,,,,,,,,,,,,,,,,,,,,,,,,,,,,,
,,,,,V3_050,19,female,2024-11-05_16h27.05.626,jersey_experiment_5_v3,2023.2.2,Win32,85.47008547,,,,,,,,,,,,,,,,512.4675,514.0201,514.0202,516.7412,return,0.7533,,75.52083333,,,,,,FBP-RB-81.png,0.4,1.2,53,0.75,0,20,20,52,1,,,,,,,,,,,,,,,,,,,,,,,,,,,,,,,,,,,,,,,,
,,,,,V3_050,19,female,2024-11-05_16h27.05.626,jersey_experiment_5_v3,2023.2.2,Win32,85.47008547,,,,,,,,,,,,,,,,516.7414,518.2943,518.2943,520.0827,return,0.6509,,24.609375,,,,,,FBP-PT-71.png,0.35,1.2,16,0.75,0,21,21,15,1,,,,,,,,,,,,,,,,,,,,,,,,,,,,,,,,,,,,,,,,
,,,,,V3_050,19,female,2024-11-05_16h27.05.626,jersey_experiment_5_v3,2023.2.2,Win32,85.47008547,,,,,,,,,,,,,,,,520.0829,521.6352,521.6352,524.9617,return,1.8206,,74.73958333,,,,,,FBP-PT-71.png,0.45,1.2,20,0.75,0,22,22,19,1,,,,,,,,,,,,,,,,,,,,,,,,,,,,,,,,,,,,,,,,
,,,,,V3_050,19,female,2024-11-05_16h27.05.626,jersey_experiment_5_v3,2023.2.2,Win32,85.47008547,,,,,,,,,,,,,,,,524.9618,526.5063,526.5064,527.8526,return,0.6287,,74.86979167,,,,,,FBP-RB-91.png,0.43,1.2,59,0.75,0,23,23,58,1,,,,,,,,,,,,,,,,,,,,,,,,,,,,,,,,,,,,,,,,
,,,,,V3_050,19,female,2024-11-05_16h27.05.626,jersey_experiment_5_v3,2023.2.2,Win32,85.47008547,,,,,,,,,,,,,,,,527.8529,529.1501,529.1502,533.3854,return,1.0439,,48.828125,,,,,,FBP-OG-81.png,0.35,1.2,36,0.5,0,24,24,35,1,,,,,,,,,,,,,,,,,,,,,,,,,,,,,,,,,,,,,,,,
,,,,,V3_050,19,female,2024-11-05_16h27.05.626,jersey_experiment_5_v3,2023.2.2,Win32,85.47008547,,,,,,,,,,,,,,,,533.3856,534.9383,534.9383,542.586,return,0.856,,74.73958333,,,,,,FBP-RB-91.png,0.4,1.2,58,0.75,0,25,25,57,1,,,,,,,,,,,,,,,,,,,,,,,,,,,,,,,,,,,,,,,,
,,,,,V3_050,19,female,2024-11-05_16h27.05.626,jersey_experiment_5_v3,2023.2.2,Win32,85.47008547,,,,,,,,,,,,,,,,542.5862,544.1357,544.1357,552.4449,return,2.8708,,49.47916667,,,,,,FBP-PT-81.png,0.35,1.2,21,0.75,0,26,26,20,1,,,,,,,,,,,,,,,,,,,,,,,,,,,,,,,,,,,,,,,,
,,,,,V3_050,19,female,2024-11-05_16h27.05.626,jersey_experiment_5_v3,2023.2.2,Win32,85.47008547,,,,,,,,,,,,,,,,552.445,553.9892,553.9892,557.3306,return,1.1056,,99.609375,,,,,,FBP-YG-18.png,0.45,1.2,10,0.75,0,27,27,9,1,,,,,,,,,,,,,,,,,,,,,,,,,,,,,,,,,,,,,,,,
,,,,,V3_050,19,female,2024-11-05_16h27.05.626,jersey_experiment_5_v3,2023.2.2,Win32,85.47008547,,,,,,,,,,,,,,,,557.3307,558.8774,558.8774,560.3188,return,0.6739,,99.609375,,,,,,FBP-YG-19.png,0.4,1.2,13,0.75,0,28,28,12,1,,,,,,,,,,,,,,,,,,,,,,,,,,,,,,,,,,,,,,,,
,,,,,V3_050,19,female,2024-11-05_16h27.05.626,jersey_experiment_5_v3,2023.2.2,Win32,85.47008547,,,,,,,,,,,,,,,,560.319,561.872,561.872,565.4337,return,0.9884,,74.609375,,,,,,FBP-RB-71.png,0.37,1.2,47,0.75,0,29,29,46,1,,,,,,,,,,,,,,,,,,,,,,,,,,,,,,,,,,,,,,,,
,,,,,V3_050,19,female,2024-11-05_16h27.05.626,jersey_experiment_5_v3,2023.2.2,Win32,85.47008547,,,,,,,,,,,,,,,,565.4339,566.7276,566.7278,568.9248,return,0.8132,,74.609375,,,,,,FBP-OG-81.png,0.37,1.2,37,0.5,0,30,30,36,1,,,,,,,,,,,,,,,,,,,,,,,,,,,,,,,,,,,,,,,,
,,,,,V3_050,19,female,2024-11-05_16h27.05.626,jersey_experiment_5_v3,2023.2.2,Win32,85.47008547,,,,,,,,,,,,,,,,568.925,570.4842,570.4842,572.2726,return,0.6826,,50.26041667,,,,,,FBP-PT-91.png,0.37,1.2,27,0.75,0,31,31,26,1,,,,,,,,,,,,,,,,,,,,,,,,,,,,,,,,,,,,,,,,
,,,,,V3_050,19,female,2024-11-05_16h27.05.626,jersey_experiment_5_v3,2023.2.2,Win32,85.47008547,,,,,,,,,,,,,,,,572.2727,573.819,573.8191,575.6139,return,0.6271,,99.609375,,,,,,FBP-RB-91.png,0.45,1.2,60,0.75,0,32,32,59,1,,,,,,,,,,,,,,,,,,,,,,,,,,,,,,,,,,,,,,,,
,,,,,V3_050,19,female,2024-11-05_16h27.05.626,jersey_experiment_5_v3,2023.2.2,Win32,85.47008547,,,,,,,,,,,,,,,,575.614,577.1604,577.1604,581.9989,return,2.7851,,49.86979167,,,,,,FBP-RB-71.png,0.35,1.2,46,0.75,0,33,33,45,1,,,,,,,,,,,,,,,,,,,,,,,,,,,,,,,,,,,,,,,,
,,,,,V3_050,19,female,2024-11-05_16h27.05.626,jersey_experiment_5_v3,2023.2.2,Win32,85.47008547,,,,,,,,,,,,,,,,581.9991,583.5433,583.5433,586.297,return,0.6511,,75.13020833,,,,,,FBP-PT-91.png,0.43,1.2,29,0.75,0,34,34,28,1,,,,,,,,,,,,,,,,,,,,,,,,,,,,,,,,,,,,,,,,
,,,,,V3_050,19,female,2024-11-05_16h27.05.626,jersey_experiment_5_v3,2023.2.2,Win32,85.47008547,,,,,,,,,,,,,,,,586.2972,587.8495,587.8495,590.2732,return,0.6829,,24.34895833,,,,,,FBP-YG-18.png,0.35,1.2,6,0.75,0,35,35,5,1,,,,,,,,,,,,,,,,,,,,,,,,,,,,,,,,,,,,,,,,
,,,,,V3_050,19,female,2024-11-05_16h27.05.626,jersey_experiment_5_v3,2023.2.2,Win32,85.47008547,,,,,,,,,,,,,,,,590.2734,591.5761,591.5761,602.8702,return,10.0796,,49.47916667,,,,,,FBP-OG-71.png,0.4,1.2,33,0.5,0,36,36,32,1,,,,,,,,,,,,,,,,,,,,,,,,,,,,,,,,,,,,,,,,
,,,,,V3_050,19,female,2024-11-05_16h27.05.626,jersey_experiment_5_v3,2023.2.2,Win32,85.47008547,,,,,,,,,,,,,,,,602.8705,604.4149,604.4149,606.6974,return,1.1682,,49.47916667,,,,,,FBP-RB-81.png,0.37,1.2,52,0.75,0,37,37,51,1,,,,,,,,,,,,,,,,,,,,,,,,,,,,,,,,,,,,,,,,
,,,,,V3_050,19,female,2024-11-05_16h27.05.626,jersey_experiment_5_v3,2023.2.2,Win32,85.47008547,,,,,,,,,,,,,,,,606.6977,607.9914,607.9914,610.0622,return,1.0271,,25.13020833,,,,,,FBP-OG-71.png,0.35,1.2,31,0.5,0,38,38,30,1,,,,,,,,,,,,,,,,,,,,,,,,,,,,,,,,,,,,,,,,
,,,,,V3_050,19,female,2024-11-05_16h27.05.626,jersey_experiment_5_v3,2023.2.2,Win32,85.47008547,,,,,,,,,,,,,,,,610.0623,611.6086,611.6086,614.0911,return,0.9208,,74.609375,,,,,,FBP-YG-17.png,0.43,1.2,4,0.75,0,39,39,3,1,,,,,,,,,,,,,,,,,,,,,,,,,,,,,,,,,,,,,,,,
,,,,,V3_050,19,female,2024-11-05_16h27.05.626,jersey_experiment_5_v3,2023.2.2,Win32,85.47008547,,,,,,,,,,,,,,,,614.0914,615.6441,615.6442,617.5533,return,1.0356,,74.609375,,,,,,FBP-RB-71.png,0.4,1.2,48,0.75,0,40,40,47,1,,,,,,,,,,,,,,,,,,,,,,,,,,,,,,,,,,,,,,,,
,,,,,V3_050,19,female,2024-11-05_16h27.05.626,jersey_experiment_5_v3,2023.2.2,Win32,85.47008547,,,,,,,,,,,,,,,,617.5535,618.8559,618.8559,620.7449,return,0.6504,,99.86979167,,,,,,FBP-OG-91.png,0.45,1.2,45,0.5,0,41,41,44,1,,,,,,,,,,,,,,,,,,,,,,,,,,,,,,,,,,,,,,,,
,,,,,V3_050,19,female,2024-11-05_16h27.05.626,jersey_experiment_5_v3,2023.2.2,Win32,85.47008547,,,,,,,,,,,,,,,,620.745,622.2954,622.2954,623.7855,return,0.7023,,99.86979167,,,,,,FBP-YG-17.png,0.45,1.2,5,0.75,0,42,42,4,1,,,,,,,,,,,,,,,,,,,,,,,,,,,,,,,,,,,,,,,,
,,,,,V3_050,19,female,2024-11-05_16h27.05.626,jersey_experiment_5_v3,2023.2.2,Win32,85.47008547,,,,,,,,,,,,,,,,623.7858,625.3386,625.3387,627.8681,return,0.7115,,75.13020833,,,,,,FBP-RB-81.png,0.43,1.2,54,0.75,0,43,43,53,1,,,,,,,,,,,,,,,,,,,,,,,,,,,,,,,,,,,,,,,,
,,,,,V3_050,19,female,2024-11-05_16h27.05.626,jersey_experiment_5_v3,2023.2.2,Win32,85.47008547,,,,,,,,,,,,,,,,627.8683,629.4278,629.4278,632.174,return,2.0031,,75.13020833,,,,,,FBP-PT-71.png,0.4,1.2,18,0.75,0,44,44,17,1,,,,,,,,,,,,,,,,,,,,,,,,,,,,,,,,,,,,,,,,
,,,,,V3_050,19,female,2024-11-05_16h27.05.626,jersey_experiment_5_v3,2023.2.2,Win32,85.47008547,,,,,,,,,,,,,,,,632.1742,633.7154,633.7154,635.8515,return,0.871,,25.13020833,,,,,,FBP-YG-19.png,0.35,1.2,11,0.75,0,45,45,10,1,,,,,,,,,,,,,,,,,,,,,,,,,,,,,,,,,,,,,,,,
,,,,,V3_050,19,female,2024-11-05_16h27.05.626,jersey_experiment_5_v3,2023.2.2,Win32,85.47008547,,,,,,,,,,,,,,,,635.8518,637.4043,637.4044,639.0986,return,0.9566,,25.13020833,,,,,,FBP-RB-81.png,0.35,1.2,51,0.75,0,46,46,50,1,,,,,,,,,,,,,,,,,,,,,,,,,,,,,,,,,,,,,,,,
,,,,,V3_050,19,female,2024-11-05_16h27.05.626,jersey_experiment_5_v3,2023.2.2,Win32,85.47008547,,,,,,,,,,,,,,,,639.0988,640.645,640.6451,643.0751,return,1.1445,,49.47916667,,,,,,FBP-YG-17.png,0.4,1.2,3,0.75,0,47,47,2,1,,,,,,,,,,,,,,,,,,,,,,,,,,,,,,,,,,,,,,,,
,,,,,V3_050,19,female,2024-11-05_16h27.05.626,jersey_experiment_5_v3,2023.2.2,Win32,85.47008547,,,,,,,,,,,,,,,,643.0753,644.6281,644.6281,646.4805,return,0.9664,,50.26041667,,,,,,FBP-YG-18.png,0.37,1.2,7,0.75,0,48,48,6,1,,,,,,,,,,,,,,,,,,,,,,,,,,,,,,,,,,,,,,,,
,,,,,V3_050,19,female,2024-11-05_16h27.05.626,jersey_experiment_5_v3,2023.2.2,Win32,85.47008547,,,,,,,,,,,,,,,,646.4808,648.0248,648.0248,651.1696,return,0.7766,,99.609375,,,,,,FBP-YG-19.png,0.45,1.2,15,0.75,0,49,49,14,1,,,,,,,,,,,,,,,,,,,,,,,,,,,,,,,,,,,,,,,,
,,,,,V3_050,19,female,2024-11-05_16h27.05.626,jersey_experiment_5_v3,2023.2.2,Win32,85.47008547,,,,,,,,,,,,,,,,651.1697,652.7226,652.7226,660.417,return,4.8153,,99.73958333,,,,,,FBP-PT-81.png,0.45,1.2,25,0.75,0,50,50,24,1,,,,,,,,,,,,,,,,,,,,,,,,,,,,,,,,,,,,,,,,
,,,,,V3_050,19,female,2024-11-05_16h27.05.626,jersey_experiment_5_v3,2023.2.2,Win32,85.47008547,,,,,,,,,,,,,,,,660.4172,661.9634,661.9634,664.4929,return,1.0372,,75,,,,,,FBP-PT-91.png,0.4,1.2,28,0.75,0,51,51,27,1,,,,,,,,,,,,,,,,,,,,,,,,,,,,,,,,,,,,,,,,
,,,,,V3_050,19,female,2024-11-05_16h27.05.626,jersey_experiment_5_v3,2023.2.2,Win32,85.47008547,,,,,,,,,,,,,,,,664.4932,666.0495,666.0496,669.9472,return,2.2744,,49.47916667,,,,,,FBP-YG-19.png,0.37,1.2,12,0.75,0,52,52,11,1,,,,,,,,,,,,,,,,,,,,,,,,,,,,,,,,,,,,,,,,
,,,,,V3_050,19,female,2024-11-05_16h27.05.626,jersey_experiment_5_v3,2023.2.2,Win32,85.47008547,,,,,,,,,,,,,,,,669.9473,671.2493,671.2493,673.7823,return,1.0121,,75.26041667,,,,,,FBP-OG-91.png,0.43,1.2,44,0.5,0,53,53,43,1,,,,,,,,,,,,,,,,,,,,,,,,,,,,,,,,,,,,,,,,
,,,,,V3_050,19,female,2024-11-05_16h27.05.626,jersey_experiment_5_v3,2023.2.2,Win32,85.47008547,,,,,,,,,,,,,,,,673.7825,675.0815,675.0815,678.1406,return,1.8051,,74.47916667,,,,,,FBP-OG-81.png,0.43,1.2,39,0.5,0,54,54,38,1,,,,,,,,,,,,,,,,,,,,,,,,,,,,,,,,,,,,,,,,
,,,,,V3_050,19,female,2024-11-05_16h27.05.626,jersey_experiment_5_v3,2023.2.2,Win32,85.47008547,,,,,,,,,,,,,,,,678.1407,679.4379,679.4379,681.1322,return,0.5734,,49.47916667,,,,,,FBP-OG-91.png,0.37,1.2,42,0.5,0,55,55,41,1,,,,,,,,,,,,,,,,,,,,,,,,,,,,,,,,,,,,,,,,
,,,,,V3_050,19,female,2024-11-05_16h27.05.626,jersey_experiment_5_v3,2023.2.2,Win32,85.47008547,,,,,,,,,,,,,,,,681.1323,682.6766,682.6766,685.1004,return,0.7921,,75,,,,,,FBP-RB-71.png,0.43,1.2,49,0.75,0,56,56,48,1,,,,,,,,,,,,,,,,,,,,,,,,,,,,,,,,,,,,,,,,
,,,,,V3_050,19,female,2024-11-05_16h27.05.626,jersey_experiment_5_v3,2023.2.2,Win32,85.47008547,,,,,,,,,,,,,,,,685.1006,686.6535,686.6535,688.8885,return,1.0741,,99.73958333,,,,,,FBP-YG-18.png,0.43,1.2,9,0.75,0,57,57,8,1,,,,,,,,,,,,,,,,,,,,,,,,,,,,,,,,,,,,,,,,
,,,,,V3_050,19,female,2024-11-05_16h27.05.626,jersey_experiment_5_v3,2023.2.2,Win32,85.47008547,,,,,,,,,,,,,,,,688.8886,690.4351,690.4352,696.8119,return,0.8057,,49.73958333,,,,,,FBP-RB-91.png,0.37,1.2,57,0.75,0,58,58,56,1,,,,,,,,,,,,,,,,,,,,,,,,,,,,,,,,,,,,,,,,
,,,,,V3_050,19,female,2024-11-05_16h27.05.626,jersey_experiment_5_v3,2023.2.2,Win32,85.47008547,,,,,,,,,,,,,,,,696.812,698.3712,698.3712,701.0824,return,1.1483,,75.13020833,,,,,,FBP-PT-71.png,0.43,1.2,19,0.75,0,59,59,18,1,,,,,,,,,,,,,,,,,,,,,,,,,,,,,,,,,,,,,,,,
,,,,,V3_050,19,female,2024-11-05_16h27.05.626,jersey_experiment_5_v3,2023.2.2,Win32,85.47008547,,,,,,,,,,,,,,,,,,,,,,,,,,,,,,,,,,,,,,,701.0827,821.0752,,,,,,,,,,,,,,,,,,,,,,,,,,,,,,,,,,,,,,
,,,,,V3_050,19,female,2024-11-05_16h27.05.626,jersey_experiment_5_v3,2023.2.2,Win32,85.47008547,,,,,,,,,,,,,,,,,,,,,,,,,,,,,,,,,,,,,,,,,821.0752,832.2671,return,11.1768,,,,,,,,,,,,,,,,,,,,,,,,,,,,,,,,,,
,,,,,V3_050,19,female,2024-11-05_16h27.05.626,jersey_experiment_5_v3,2023.2.2,Win32,85.47008547,,,,,,,,,,,,,,,,832.2688,833.5609,833.561,836.0321,return,0.856,,75.390625,,,,,,FBP-YG-71.png,0.45,1.2,5,0.5,,,,,,,,,,,,,0,0,0,4,1,,,,,,,,,,,,,,,,,,,,,,,,,,,,
,,,,,V3_050,19,female,2024-11-05_16h27.05.626,jersey_experiment_5_v3,2023.2.2,Win32,85.47008547,,,,,,,,,,,,,,,,836.0323,837.5847,837.5847,839.5295,return,0.8153,,74.609375,,,,,,FBP-OG-19.png,0.45,1.2,45,0.75,,,,,,,,,,,,,0,1,1,44,1,,,,,,,,,,,,,,,,,,,,,,,,,,,,
,,,,,V3_050,19,female,2024-11-05_16h27.05.626,jersey_experiment_5_v3,2023.2.2,Win32,85.47008547,,,,,,,,,,,,,,,,839.5296,840.8235,840.8235,843.1299,return,1.0273,,74.73958333,,,,,,FBP-PT-17.png,0.43,1.2,19,0.5,,,,,,,,,,,,,0,2,2,18,1,,,,,,,,,,,,,,,,,,,,,,,,,,,,
,,,,,V3_050,19,female,2024-11-05_16h27.05.626,jersey_experiment_5_v3,2023.2.2,Win32,85.47008547,,,,,,,,,,,,,,,,843.1301,844.6824,844.6824,847.0675,return,0.7768,,75,,,,,,FBP-OG-18.png,0.45,1.2,40,0.75,,,,,,,,,,,,,0,3,3,39,1,,,,,,,,,,,,,,,,,,,,,,,,,,,,
,,,,,V3_050,19,female,2024-11-05_16h27.05.626,jersey_experiment_5_v3,2023.2.2,Win32,85.47008547,,,,,,,,,,,,,,,,847.0677,848.6206,848.6207,853.8058,return,3.6123,,86.84895833,,,,,,FBP-OG-19.png,0.4,1.2,43,0.75,,,,,,,,,,,,,0,4,4,42,1,,,,,,,,,,,,,,,,,,,,,,,,,,,,
,,,,,V3_050,19,female,2024-11-05_16h27.05.626,jersey_experiment_5_v3,2023.2.2,Win32,85.47008547,,,,,,,,,,,,,,,,853.806,855.1064,855.1064,860.7061,return,2.5793,,63.54166667,,,,,,FBP-RB-18.png,0.37,1.2,52,0.5,,,,,,,,,,,,,0,5,5,51,1,,,,,,,,,,,,,,,,,,,,,,,,,,,,
,,,,,V3_050,19,female,2024-11-05_16h27.05.626,jersey_experiment_5_v3,2023.2.2,Win32,85.47008547,,,,,,,,,,,,,,,,860.7063,862.001,862.001,868.2212,return,3.9617,,61.58854167,,,,,,FBP-YG-81.png,0.37,1.2,7,0.5,,,,,,,,,,,,,0,6,6,6,1,,,,,,,,,,,,,,,,,,,,,,,,,,,,
,,,,,V3_050,19,female,2024-11-05_16h27.05.626,jersey_experiment_5_v3,2023.2.2,Win32,85.47008547,,,,,,,,,,,,,,,,868.2213,869.5153,869.5153,871.7278,return,0.824,,62.36979167,,,,,,FBP-YG-91.png,0.37,1.2,12,0.5,,,,,,,,,,,,,0,7,7,11,1,,,,,,,,,,,,,,,,,,,,,,,,,,,,
,,,,,V3_050,19,female,2024-11-05_16h27.05.626,jersey_experiment_5_v3,2023.2.2,Win32,85.47008547,,,,,,,,,,,,,,,,871.7279,873.2771,873.2771,875.8921,return,0.7062,,75,,,,,,FBP-OG-18.png,0.4,1.2,38,0.75,,,,,,,,,,,,,0,8,8,37,1,,,,,,,,,,,,,,,,,,,,,,,,,,,,
,,,,,V3_050,19,female,2024-11-05_16h27.05.626,jersey_experiment_5_v3,2023.2.2,Win32,85.47008547,,,,,,,,,,,,,,,,875.8923,877.1861,877.1861,879.1544,return,0.6742,,75.13020833,,,,,,FBP-PT-17.png,0.4,1.2,18,0.5,,,,,,,,,,,,,0,9,9,17,1,,,,,,,,,,,,,,,,,,,,,,,,,,,,
,,,,,V3_050,19,female,2024-11-05_16h27.05.626,jersey_experiment_5_v3,2023.2.2,Win32,85.47008547,,,,,,,,,,,,,,,,879.1546,880.7073,880.7073,882.1192,return,0.6843,,74.47916667,,,,,,FBP-OG-17.png,0.43,1.2,34,0.75,,,,,,,,,,,,,0,10,10,33,1,,,,,,,,,,,,,,,,,,,,,,,,,,,,
,,,,,V3_050,19,female,2024-11-05_16h27.05.626,jersey_experiment_5_v3,2023.2.2,Win32,85.47008547,,,,,,,,,,,,,,,,882.1194,883.4219,883.4219,885.2724,return,0.6826,,50,,,,,,FBP-YG-81.png,0.35,1.2,6,0.5,,,,,,,,,,,,,0,11,11,5,1,,,,,,,,,,,,,,,,,,,,,,,,,,,,
,,,,,V3_050,19,female,2024-11-05_16h27.05.626,jersey_experiment_5_v3,2023.2.2,Win32,85.47008547,,,,,,,,,,,,,,,,885.2725,886.5752,886.5752,889.9129,return,0.7494,,63.41145833,,,,,,FBP-PT-19.png,0.4,1.2,28,0.5,,,,,,,,,,,,,0,12,12,27,1,,,,,,,,,,,,,,,,,,,,,,,,,,,,
,,,,,V3_050,19,female,2024-11-05_16h27.05.626,jersey_experiment_5_v3,2023.2.2,Win32,85.47008547,,,,,,,,,,,,,,,,889.9132,891.2106,891.2107,895.8191,return,2.3003,,88.02083333,,,,,,FBP-PT-17.png,0.45,1.2,20,0.5,,,,,,,,,,,,,0,13,13,19,1,,,,,,,,,,,,,,,,,,,,,,,,,,,,
,,,,,V3_050,19,female,2024-11-05_16h27.05.626,jersey_experiment_5_v3,2023.2.2,Win32,85.47008547,,,,,,,,,,,,,,,,895.8193,897.1133,897.1133,900.2222,return,1.0199,,74.73958333,,,,,,FBP-YG-71.png,0.37,1.2,2,0.5,,,,,,,,,,,,,0,14,14,1,1,,,,,,,,,,,,,,,,,,,,,,,,,,,,
,,,,,V3_050,19,female,2024-11-05_16h27.05.626,jersey_experiment_5_v3,2023.2.2,Win32,85.47008547,,,,,,,,,,,,,,,,900.2224,901.5317,901.5317,904.3958,return,1.5585,,74.47916667,,,,,,FBP-YG-91.png,0.35,1.2,11,0.5,,,,,,,,,,,,,0,15,15,10,1,,,,,,,,,,,,,,,,,,,,,,,,,,,,
,,,,,V3_050,19,female,2024-11-05_16h27.05.626,jersey_experiment_5_v3,2023.2.2,Win32,85.47008547,,,,,,,,,,,,,,,,904.3962,905.6899,905.69,907.1169,return,0.8085,,74.47916667,,,,,,FBP-YG-71.png,0.4,1.2,3,0.5,,,,,,,,,,,,,0,16,16,2,1,,,,,,,,,,,,,,,,,,,,,,,,,,,,
,,,,,V3_050,19,female,2024-11-05_16h27.05.626,jersey_experiment_5_v3,2023.2.2,Win32,85.47008547,,,,,,,,,,,,,,,,907.117,908.4196,908.4196,912.1726,return,2.1664,,61.84895833,,,,,,FBP-YG-71.png,0.35,1.2,1,0.5,,,,,,,,,,,,,0,17,17,0,1,,,,,,,,,,,,,,,,,,,,,,,,,,,,
,,,,,V3_050,19,female,2024-11-05_16h27.05.626,jersey_experiment_5_v3,2023.2.2,Win32,85.47008547,,,,,,,,,,,,,,,,912.1728,913.4698,913.4698,915.8224,return,1.435,,61.84895833,,,,,,FBP-PT-17.png,0.35,1.2,16,0.5,,,,,,,,,,,,,0,18,18,15,1,,,,,,,,,,,,,,,,,,,,,,,,,,,,
,,,,,V3_050,19,female,2024-11-05_16h27.05.626,jersey_experiment_5_v3,2023.2.2,Win32,85.47008547,,,,,,,,,,,,,,,,915.8226,917.3729,917.3729,920.0498,return,1.2154,,74.86979167,,,,,,FBP-OG-19.png,0.43,1.2,44,0.75,,,,,,,,,,,,,0,19,19,43,1,,,,,,,,,,,,,,,,,,,,,,,,,,,,
,,,,,V3_050,19,female,2024-11-05_16h27.05.626,jersey_experiment_5_v3,2023.2.2,Win32,85.47008547,,,,,,,,,,,,,,,,920.05,921.3423,921.3423,924.6672,return,0.8178,,91.66666667,,,,,,FBP-YG-91.png,0.45,1.2,15,0.5,,,,,,,,,,,,,0,20,20,14,1,,,,,,,,,,,,,,,,,,,,,,,,,,,,
,,,,,V3_050,19,female,2024-11-05_16h27.05.626,jersey_experiment_5_v3,2023.2.2,Win32,85.47008547,,,,,,,,,,,,,,,,924.6675,926.2147,926.2147,928.3175,return,1.13,,92.05729167,,,,,,FBP-OG-18.png,0.43,1.2,39,0.75,,,,,,,,,,,,,0,21,21,38,1,,,,,,,,,,,,,,,,,,,,,,,,,,,,
,,,,,V3_050,19,female,2024-11-05_16h27.05.626,jersey_experiment_5_v3,2023.2.2,Win32,85.47008547,,,,,,,,,,,,,,,,928.3176,929.6116,929.6117,932.9059,return,1.9533,,91.14583333,,,,,,FBP-YG-81.png,0.45,1.2,10,0.5,,,,,,,,,,,,,0,22,22,9,1,,,,,,,,,,,,,,,,,,,,,,,,,,,,
,,,,,V3_050,19,female,2024-11-05_16h27.05.626,jersey_experiment_5_v3,2023.2.2,Win32,85.47008547,,,,,,,,,,,,,,,,932.906,934.2152,934.2152,937.612,return,1.3028,,90.75520833,,,,,,FBP-RB-18.png,0.45,1.2,55,0.5,,,,,,,,,,,,,0,23,23,54,1,,,,,,,,,,,,,,,,,,,,,,,,,,,,
,,,,,V3_050,19,female,2024-11-05_16h27.05.626,jersey_experiment_5_v3,2023.2.2,Win32,85.47008547,,,,,,,,,,,,,,,,937.6121,938.906,938.906,941.6037,return,1.4742,,92.83854167,,,,,,FBP-YG-81.png,0.43,1.2,9,0.5,,,,,,,,,,,,,0,24,24,8,1,,,,,,,,,,,,,,,,,,,,,,,,,,,,
,,,,,V3_050,19,female,2024-11-05_16h27.05.626,jersey_experiment_5_v3,2023.2.2,Win32,85.47008547,,,,,,,,,,,,,,,,941.6039,942.8975,942.8975,946.0836,return,0.9655,,99.47916667,,,,,,FBP-PT-18.png,0.43,1.2,24,0.5,,,,,,,,,,,,,0,25,25,23,1,,,,,,,,,,,,,,,,,,,,,,,,,,,,
,,,,,V3_050,19,female,2024-11-05_16h27.05.626,jersey_experiment_5_v3,2023.2.2,Win32,85.47008547,,,,,,,,,,,,,,,,946.0837,947.3774,947.3774,950.0512,return,1.0743,,49.47916667,,,,,,FBP-RB-17.png,0.37,1.2,47,0.5,,,,,,,,,,,,,0,26,26,46,1,,,,,,,,,,,,,,,,,,,,,,,,,,,,
,,,,,V3_050,19,female,2024-11-05_16h27.05.626,jersey_experiment_5_v3,2023.2.2,Win32,85.47008547,,,,,,,,,,,,,,,,950.0513,951.3453,951.3453,956.2718,return,3.3501,,66.27604167,,,,,,FBP-YG-81.png,0.4,1.2,8,0.5,,,,,,,,,,,,,0,27,27,7,1,,,,,,,,,,,,,,,,,,,,,,,,,,,,
,,,,,V3_050,19,female,2024-11-05_16h27.05.626,jersey_experiment_5_v3,2023.2.2,Win32,85.47008547,,,,,,,,,,,,,,,,956.272,957.8161,957.8162,960.978,return,1.0592,,83.07291667,,,,,,FBP-OG-17.png,0.45,1.2,35,0.75,,,,,,,,,,,,,0,28,28,34,1,,,,,,,,,,,,,,,,,,,,,,,,,,,,
,,,,,V3_050,19,female,2024-11-05_16h27.05.626,jersey_experiment_5_v3,2023.2.2,Win32,85.47008547,,,,,,,,,,,,,,,,960.9782,962.5228,962.5229,965.4874,return,0.8861,,61.58854167,,,,,,FBP-OG-17.png,0.37,1.2,32,0.75,,,,,,,,,,,,,0,29,29,31,1,,,,,,,,,,,,,,,,,,,,,,,,,,,,
,,,,,V3_050,19,female,2024-11-05_16h27.05.626,jersey_experiment_5_v3,2023.2.2,Win32,85.47008547,,,,,,,,,,,,,,,,965.4875,966.7812,966.7812,969.1513,return,1.0138,,74.73958333,,,,,,FBP-RB-17.png,0.4,1.2,48,0.5,,,,,,,,,,,,,0,30,30,47,1,,,,,,,,,,,,,,,,,,,,,,,,,,,,
,,,,,V3_050,19,female,2024-11-05_16h27.05.626,jersey_experiment_5_v3,2023.2.2,Win32,85.47008547,,,,,,,,,,,,,,,,969.1515,970.4514,970.4514,972.3663,return,1.1382,,74.73958333,,,,,,FBP-YG-91.png,0.4,1.2,13,0.5,,,,,,,,,,,,,0,31,31,12,1,,,,,,,,,,,,,,,,,,,,,,,,,,,,
,,,,,V3_050,19,female,2024-11-05_16h27.05.626,jersey_experiment_5_v3,2023.2.2,Win32,85.47008547,,,,,,,,,,,,,,,,972.3665,973.6753,973.6753,976.5698,return,1.074,,74.73958333,,,,,,FBP-RB-19.png,0.4,1.2,58,0.5,,,,,,,,,,,,,0,32,32,57,1,,,,,,,,,,,,,,,,,,,,,,,,,,,,
,,,,,V3_050,19,female,2024-11-05_16h27.05.626,jersey_experiment_5_v3,2023.2.2,Win32,85.47008547,,,,,,,,,,,,,,,,976.57,977.8637,977.8637,980.602,return,1.4205,,61.84895833,,,,,,FBP-PT-18.png,0.35,1.2,21,0.5,,,,,,,,,,,,,0,33,33,20,1,,,,,,,,,,,,,,,,,,,,,,,,,,,,
,,,,,V3_050,19,female,2024-11-05_16h27.05.626,jersey_experiment_5_v3,2023.2.2,Win32,85.47008547,,,,,,,,,,,,,,,,980.6021,981.8961,981.8962,985.2056,return,0.9415,,74.86979167,,,,,,FBP-YG-91.png,0.43,1.2,14,0.5,,,,,,,,,,,,,0,34,34,13,1,,,,,,,,,,,,,,,,,,,,,,,,,,,,
,,,,,V3_050,19,female,2024-11-05_16h27.05.626,jersey_experiment_5_v3,2023.2.2,Win32,85.47008547,,,,,,,,,,,,,,,,985.2057,986.5078,986.5079,987.9825,return,0.9571,,74.86979167,,,,,,FBP-RB-18.png,0.4,1.2,53,0.5,,,,,,,,,,,,,0,35,35,52,1,,,,,,,,,,,,,,,,,,,,,,,,,,,,
,,,,,V3_050,19,female,2024-11-05_16h27.05.626,jersey_experiment_5_v3,2023.2.2,Win32,85.47008547,,,,,,,,,,,,,,,,987.9826,989.2758,989.2758,992.4294,return,1.6729,,61.71875,,,,,,FBP-RB-17.png,0.35,1.2,46,0.5,,,,,,,,,,,,,0,36,36,45,1,,,,,,,,,,,,,,,,,,,,,,,,,,,,
,,,,,V3_050,19,female,2024-11-05_16h27.05.626,jersey_experiment_5_v3,2023.2.2,Win32,85.47008547,,,,,,,,,,,,,,,,992.4297,993.9821,993.9822,996.7117,return,1.0036,,49.47916667,,,,,,FBP-OG-18.png,0.35,1.2,36,0.75,,,,,,,,,,,,,0,37,37,35,1,,,,,,,,,,,,,,,,,,,,,,,,,,,,
,,,,,V3_050,19,female,2024-11-05_16h27.05.626,jersey_experiment_5_v3,2023.2.2,Win32,85.47008547,,,,,,,,,,,,,,,,996.7118,998.0058,998.0059,1000.6883,return,0.9885,,67.96875,,,,,,FBP-RB-19.png,0.37,1.2,57,0.5,,,,,,,,,,,,,0,38,38,56,1,,,,,,,,,,,,,,,,,,,,,,,,,,,,
,,,,,V3_050,19,female,2024-11-05_16h27.05.626,jersey_experiment_5_v3,2023.2.2,Win32,85.47008547,,,,,,,,,,,,,,,,1000.6885,1001.9823,1001.9824,1004.2179,return,0.7767,,74.86979167,,,,,,FBP-PT-19.png,0.43,1.2,29,0.5,,,,,,,,,,,,,0,39,39,28,1,,,,,,,,,,,,,,,,,,,,,,,,,,,,
,,,,,V3_050,19,female,2024-11-05_16h27.05.626,jersey_experiment_5_v3,2023.2.2,Win32,85.47008547,,,,,,,,,,,,,,,,1004.218,1005.7644,1005.7645,1008.2416,return,0.9653,,66.796875,,,,,,FBP-OG-18.png,0.37,1.2,37,0.75,,,,,,,,,,,,,0,40,40,36,1,,,,,,,,,,,,,,,,,,,,,,,,,,,,
,,,,,V3_050,19,female,2024-11-05_16h27.05.626,jersey_experiment_5_v3,2023.2.2,Win32,85.47008547,,,,,,,,,,,,,,,,1008.2418,1009.5356,1009.5357,1011.5599,return,0.8864,,90.88541667,,,,,,FBP-YG-71.png,0.43,1.2,4,0.5,,,,,,,,,,,,,0,41,41,3,1,,,,,,,,,,,,,,,,,,,,,,,,,,,,
,,,,,V3_050,19,female,2024-11-05_16h27.05.626,jersey_experiment_5_v3,2023.2.2,Win32,85.47008547,,,,,,,,,,,,,,,,1011.56,1013.1058,1013.1058,1015.521,return,1.0202,,86.328125,,,,,,FBP-OG-17.png,0.4,1.2,33,0.75,,,,,,,,,,,,,0,42,42,32,1,,,,,,,,,,,,,,,,,,,,,,,,,,,,
,,,,,V3_050,19,female,2024-11-05_16h27.05.626,jersey_experiment_5_v3,2023.2.2,Win32,85.47008547,,,,,,,,,,,,,,,,1015.521,1016.8151,1016.8151,1019.1126,return,1.074,,99.73958333,,,,,,FBP-RB-17.png,0.45,1.2,50,0.5,,,,,,,,,,,,,0,43,43,49,1,,,,,,,,,,,,,,,,,,,,,,,,,,,,
,,,,,V3_050,19,female,2024-11-05_16h27.05.626,jersey_experiment_5_v3,2023.2.2,Win32,85.47008547,,,,,,,,,,,,,,,,1019.1127,1020.4118,1020.4119,1022.7127,return,0.7443,,74.73958333,,,,,,FBP-RB-18.png,0.35,1.2,51,0.5,,,,,,,,,,,,,0,44,44,50,1,,,,,,,,,,,,,,,,,,,,,,,,,,,,
,,,,,V3_050,19,female,2024-11-05_16h27.05.626,jersey_experiment_5_v3,2023.2.2,Win32,85.47008547,,,,,,,,,,,,,,,,1022.7129,1024.007,1024.007,1026.9011,return,0.8153,,99.34895833,,,,,,FBP-RB-17.png,0.43,1.2,49,0.5,,,,,,,,,,,,,0,45,45,48,1,,,,,,,,,,,,,,,,,,,,,,,,,,,,
,,,,,V3_050,19,female,2024-11-05_16h27.05.626,jersey_experiment_5_v3,2023.2.2,Win32,85.47008547,,,,,,,,,,,,,,,,1026.9013,1028.2035,1028.2035,1031.9836,return,3.0743,,99.609375,,,,,,FBP-RB-19.png,0.45,1.2,60,0.5,,,,,,,,,,,,,0,46,46,59,1,,,,,,,,,,,,,,,,,,,,,,,,,,,,
,,,,,V3_050,19,female,2024-11-05_16h27.05.626,jersey_experiment_5_v3,2023.2.2,Win32,85.47008547,,,,,,,,,,,,,,,,1031.9837,1033.5301,1033.5301,1036.1805,return,1.0826,,74.34895833,,,,,,FBP-OG-19.png,0.37,1.2,42,0.75,,,,,,,,,,,,,0,47,47,41,1,,,,,,,,,,,,,,,,,,,,,,,,,,,,
,,,,,V3_050,19,female,2024-11-05_16h27.05.626,jersey_experiment_5_v3,2023.2.2,Win32,85.47008547,,,,,,,,,,,,,,,,1036.1806,1037.4746,1037.4746,1041.5452,return,2.3297,,75,,,,,,FBP-RB-18.png,0.43,1.2,54,0.5,,,,,,,,,,,,,0,48,48,53,1,,,,,,,,,,,,,,,,,,,,,,,,,,,,
,,,,,V3_050,19,female,2024-11-05_16h27.05.626,jersey_experiment_5_v3,2023.2.2,Win32,85.47008547,,,,,,,,,,,,,,,,1041.5454,1043.0897,1043.0898,1048.6047,return,0.8319,,74.73958333,,,,,,FBP-OG-19.png,0.35,1.2,41,0.75,,,,,,,,,,,,,0,49,49,40,1,,,,,,,,,,,,,,,,,,,,,,,,,,,,
,,,,,V3_050,19,female,2024-11-05_16h27.05.626,jersey_experiment_5_v3,2023.2.2,Win32,85.47008547,,,,,,,,,,,,,,,,1048.6049,1049.8985,1049.8985,1052.008,return,0.8239,,99.609375,,,,,,FBP-RB-19.png,0.43,1.2,59,0.5,,,,,,,,,,,,,0,50,50,58,1,,,,,,,,,,,,,,,,,,,,,,,,,,,,
,,,,,V3_050,19,female,2024-11-05_16h27.05.626,jersey_experiment_5_v3,2023.2.2,Win32,85.47008547,,,,,,,,,,,,,,,,1052.0081,1053.3018,1053.3019,1056.3612,return,1.2157,,86.97916667,,,,,,FBP-PT-19.png,0.35,1.2,26,0.5,,,,,,,,,,,,,0,51,51,25,1,,,,,,,,,,,,,,,,,,,,,,,,,,,,
,,,,,V3_050,19,female,2024-11-05_16h27.05.626,jersey_experiment_5_v3,2023.2.2,Win32,85.47008547,,,,,,,,,,,,,,,,1056.3613,1057.9138,1057.9138,1066.8172,return,7.2945,,61.71875,,,,,,FBP-OG-17.png,0.35,1.2,31,0.75,,,,,,,,,,,,,0,52,52,30,1,,,,,,,,,,,,,,,,,,,,,,,,,,,,
,,,,,V3_050,19,female,2024-11-05_16h27.05.626,jersey_experiment_5_v3,2023.2.2,Win32,85.47008547,,,,,,,,,,,,,,,,1066.8174,1068.1109,1068.1109,1071.0915,return,1.0126,,99.34895833,,,,,,FBP-PT-19.png,0.45,1.2,30,0.5,,,,,,,,,,,,,0,53,53,29,1,,,,,,,,,,,,,,,,,,,,,,,,,,,,
,,,,,V3_050,19,female,2024-11-05_16h27.05.626,jersey_experiment_5_v3,2023.2.2,Win32,85.47008547,,,,,,,,,,,,,,,,1071.0918,1072.3851,1072.3851,1074.6675,return,0.9564,,75,,,,,,FBP-RB-19.png,0.35,1.2,56,0.5,,,,,,,,,,,,,0,54,54,55,1,,,,,,,,,,,,,,,,,,,,,,,,,,,,
,,,,,V3_050,19,female,2024-11-05_16h27.05.626,jersey_experiment_5_v3,2023.2.2,Win32,85.47008547,,,,,,,,,,,,,,,,1074.6677,1075.9671,1075.9671,1078.9266,return,1.0356,,74.86979167,,,,,,FBP-PT-17.png,0.37,1.2,17,0.5,,,,,,,,,,,,,0,55,55,16,1,,,,,,,,,,,,,,,,,,,,,,,,,,,,
,,,,,V3_050,19,female,2024-11-05_16h27.05.626,jersey_experiment_5_v3,2023.2.2,Win32,85.47008547,,,,,,,,,,,,,,,,1078.9268,1080.2205,1080.2206,1082.5737,return,0.8153,,64.0625,,,,,,FBP-PT-18.png,0.37,1.2,22,0.5,,,,,,,,,,,,,0,56,56,21,1,,,,,,,,,,,,,,,,,,,,,,,,,,,,
,,,,,V3_050,19,female,2024-11-05_16h27.05.626,jersey_experiment_5_v3,2023.2.2,Win32,85.47008547,,,,,,,,,,,,,,,,1082.5738,1083.868,1083.868,1090.159,return,2.8089,,89.453125,,,,,,FBP-PT-18.png,0.45,1.2,25,0.5,,,,,,,,,,,,,0,57,57,24,1,,,,,,,,,,,,,,,,,,,,,,,,,,,,
,,,,,V3_050,19,female,2024-11-05_16h27.05.626,jersey_experiment_5_v3,2023.2.2,Win32,85.47008547,,,,,,,,,,,,,,,,1090.1591,1091.4528,1091.4528,1093.4499,return,0.7956,,99.609375,,,,,,FBP-PT-18.png,0.4,1.2,23,0.5,,,,,,,,,,,,,0,58,58,22,1,,,,,,,,,,,,,,,,,,,,,,,,,,,,
,,,,,V3_050,19,female,2024-11-05_16h27.05.626,jersey_experiment_5_v3,2023.2.2,Win32,85.47008547,,,,,,,,,,,,,,,,1093.4501,1094.7472,1094.7472,1097.233,return,1.0355,,74.47916667,,,,,,FBP-PT-19.png,0.37,1.2,27,0.5,,,,,,,,,,,,,0,59,59,26,1,,,,,,,,,,,,,,,,,,,,,,,,,,,,
,,,,,V3_050,19,female,2024-11-05_16h27.05.626,jersey_experiment_5_v3,2023.2.2,Win32,85.47008547,,,,,,,,,,,,,,,,1097.2346,1098.527,1098.5271,1101.1626,return,1.1448,,74.21875,,,,,,FBP-RB-71.png,0.35,1.2,46,0.5,,,,,,,,,,,,,,,,,,0,0,0,45,1,,,,,,,,,,,,,,,,,,,,,,,
,,,,,V3_050,19,female,2024-11-05_16h27.05.626,jersey_experiment_5_v3,2023.2.2,Win32,85.47008547,,,,,,,,,,,,,,,,1101.1629,1102.4566,1102.4567,1105.351,return,1.1212,,75,,,,,,FBP-PT-71.png,0.35,1.2,16,0.5,,,,,,,,,,,,,,,,,,0,1,1,15,1,,,,,,,,,,,,,,,,,,,,,,,
,,,,,V3_050,19,female,2024-11-05_16h27.05.626,jersey_experiment_5_v3,2023.2.2,Win32,85.47008547,,,,,,,,,,,,,,,,1105.3512,1106.6447,1106.6447,1110.0656,return,0.9968,,88.41145833,,,,,,FBP-RB-71.png,0.45,1.2,50,0.5,,,,,,,,,,,,,,,,,,0,2,2,49,1,,,,,,,,,,,,,,,,,,,,,,,
,,,,,V3_050,19,female,2024-11-05_16h27.05.626,jersey_experiment_5_v3,2023.2.2,Win32,85.47008547,,,,,,,,,,,,,,,,1110.0658,1111.3601,1111.3601,1113.4928,return,0.871,,96.09375,,,,,,FBP-YG-19.png,0.45,1.2,15,0.5,,,,,,,,,,,,,,,,,,0,3,3,14,1,,,,,,,,,,,,,,,,,,,,,,,
,,,,,V3_050,19,female,2024-11-05_16h27.05.626,jersey_experiment_5_v3,2023.2.2,Win32,85.47008547,,,,,,,,,,,,,,,,1113.4928,1114.7927,1114.7927,1117.7825,return,0.908,,91.796875,,,,,,FBP-RB-81.png,0.4,1.2,53,0.5,,,,,,,,,,,,,,,,,,0,4,4,52,1,,,,,,,,,,,,,,,,,,,,,,,
,,,,,V3_050,19,female,2024-11-05_16h27.05.626,jersey_experiment_5_v3,2023.2.2,Win32,85.47008547,,,,,,,,,,,,,,,,1117.7828,1119.0778,1119.0778,1121.6745,return,0.7686,,66.53645833,,,,,,FBP-RB-71.png,0.37,1.2,47,0.5,,,,,,,,,,,,,,,,,,0,5,5,46,1,,,,,,,,,,,,,,,,,,,,,,,
,,,,,V3_050,19,female,2024-11-05_16h27.05.626,jersey_experiment_5_v3,2023.2.2,Win32,85.47008547,,,,,,,,,,,,,,,,1121.6748,1123.2188,1123.2189,1125.1633,return,0.612,,86.84895833,,,,,,FBP-OG-71.png,0.43,1.2,34,0.75,,,,,,,,,,,,,,,,,,0,6,6,33,1,,,,,,,,,,,,,,,,,,,,,,,
,,,,,V3_050,19,female,2024-11-05_16h27.05.626,jersey_experiment_5_v3,2023.2.2,Win32,85.47008547,,,,,,,,,,,,,,,,1125.1634,1126.458,1126.458,1128.1368,return,0.55,,74.609375,,,,,,FBP-RB-91.png,0.4,1.2,58,0.5,,,,,,,,,,,,,,,,,,0,7,7,57,1,,,,,,,,,,,,,,,,,,,,,,,
,,,,,V3_050,19,female,2024-11-05_16h27.05.626,jersey_experiment_5_v3,2023.2.2,Win32,85.47008547,,,,,,,,,,,,,,,,1128.1369,1129.4307,1129.4308,1131.1484,return,0.6824,,92.70833333,,,,,,FBP-YG-17.png,0.43,1.2,4,0.5,,,,,,,,,,,,,,,,,,0,8,8,3,1,,,,,,,,,,,,,,,,,,,,,,,
,,,,,V3_050,19,female,2024-11-05_16h27.05.626,jersey_experiment_5_v3,2023.2.2,Win32,85.47008547,,,,,,,,,,,,,,,,1131.1486,1132.4513,1132.4513,1134.6229,return,0.6828,,65.75520833,,,,,,FBP-YG-18.png,0.35,1.2,6,0.5,,,,,,,,,,,,,,,,,,0,9,9,5,1,,,,,,,,,,,,,,,,,,,,,,,
,,,,,V3_050,19,female,2024-11-05_16h27.05.626,jersey_experiment_5_v3,2023.2.2,Win32,85.47008547,,,,,,,,,,,,,,,,1134.6231,1135.9164,1135.9164,1137.7992,return,0.7449,,75.13020833,,,,,,FBP-RB-81.png,0.37,1.2,52,0.5,,,,,,,,,,,,,,,,,,0,10,10,51,1,,,,,,,,,,,,,,,,,,,,,,,
,,,,,V3_050,19,female,2024-11-05_16h27.05.626,jersey_experiment_5_v3,2023.2.2,Win32,85.47008547,,,,,,,,,,,,,,,,1137.7994,1139.102,1139.1021,1141.1963,return,0.9971,,87.109375,,,,,,FBP-PT-81.png,0.43,1.2,24,0.5,,,,,,,,,,,,,,,,,,0,11,11,23,1,,,,,,,,,,,,,,,,,,,,,,,
,,,,,V3_050,19,female,2024-11-05_16h27.05.626,jersey_experiment_5_v3,2023.2.2,Win32,85.47008547,,,,,,,,,,,,,,,,1141.1964,1142.4905,1142.4905,1145.2111,return,0.7294,,99.21875,,,,,,FBP-RB-91.png,0.43,1.2,59,0.5,,,,,,,,,,,,,,,,,,0,12,12,58,1,,,,,,,,,,,,,,,,,,,,,,,
,,,,,V3_050,19,female,2024-11-05_16h27.05.626,jersey_experiment_5_v3,2023.2.2,Win32,85.47008547,,,,,,,,,,,,,,,,1145.2112,1146.5053,1146.5053,1148.6467,return,0.9565,,74.21875,,,,,,FBP-RB-91.png,0.35,1.2,56,0.5,,,,,,,,,,,,,,,,,,0,13,13,55,1,,,,,,,,,,,,,,,,,,,,,,,
,,,,,V3_050,19,female,2024-11-05_16h27.05.626,jersey_experiment_5_v3,2023.2.2,Win32,85.47008547,,,,,,,,,,,,,,,,1148.6469,1149.9407,1149.9408,1153.3533,return,1.0747,,87.5,,,,,,FBP-YG-18.png,0.43,1.2,9,0.5,,,,,,,,,,,,,,,,,,0,14,14,8,1,,,,,,,,,,,,,,,,,,,,,,,
,,,,,V3_050,19,female,2024-11-05_16h27.05.626,jersey_experiment_5_v3,2023.2.2,Win32,85.47008547,,,,,,,,,,,,,,,,1153.3535,1154.6467,1154.6467,1157.7058,return,1.0977,,74.21875,,,,,,FBP-PT-81.png,0.35,1.2,21,0.5,,,,,,,,,,,,,,,,,,0,15,15,20,1,,,,,,,,,,,,,,,,,,,,,,,
,,,,,V3_050,19,female,2024-11-05_16h27.05.626,jersey_experiment_5_v3,2023.2.2,Win32,85.47008547,,,,,,,,,,,,,,,,1157.7059,1159.2562,1159.2563,1162.7501,return,1.4124,,87.76041667,,,,,,FBP-OG-81.png,0.4,1.2,38,0.75,,,,,,,,,,,,,,,,,,0,16,16,37,1,,,,,,,,,,,,,,,,,,,,,,,
,,,,,V3_050,19,female,2024-11-05_16h27.05.626,jersey_experiment_5_v3,2023.2.2,Win32,85.47008547,,,,,,,,,,,,,,,,1162.7502,1164.3029,1164.3029,1167.197,return,1.0203,,75,,,,,,FBP-OG-91.png,0.45,1.2,45,0.75,,,,,,,,,,,,,,,,,,0,17,17,44,1,,,,,,,,,,,,,,,,,,,,,,,
,,,,,V3_050,19,female,2024-11-05_16h27.05.626,jersey_experiment_5_v3,2023.2.2,Win32,85.47008547,,,,,,,,,,,,,,,,1167.1971,1168.4912,1168.4912,1170.7887,return,0.9799,,74.73958333,,,,,,FBP-YG-19.png,0.4,1.2,13,0.5,,,,,,,,,,,,,,,,,,0,18,18,12,1,,,,,,,,,,,,,,,,,,,,,,,
,,,,,V3_050,19,female,2024-11-05_16h27.05.626,jersey_experiment_5_v3,2023.2.2,Win32,85.47008547,,,,,,,,,,,,,,,,1170.7888,1172.0915,1172.0916,1177.2124,return,1.7094,,87.5,,,,,,FBP-RB-81.png,0.45,1.2,55,0.5,,,,,,,,,,,,,,,,,,0,19,19,54,1,,,,,,,,,,,,,,,,,,,,,,,
,,,,,V3_050,19,female,2024-11-05_16h27.05.626,jersey_experiment_5_v3,2023.2.2,Win32,85.47008547,,,,,,,,,,,,,,,,1177.2125,1178.7588,1178.7589,1180.8916,return,0.9969,,74.73958333,,,,,,FBP-OG-91.png,0.35,1.2,41,0.75,,,,,,,,,,,,,,,,,,0,20,20,40,1,,,,,,,,,,,,,,,,,,,,,,,
,,,,,V3_050,19,female,2024-11-05_16h27.05.626,jersey_experiment_5_v3,2023.2.2,Win32,85.47008547,,,,,,,,,,,,,,,,1180.8918,1182.2008,1182.2008,1184.4363,return,0.7766,,74.86979167,,,,,,FBP-RB-91.png,0.37,1.2,57,0.5,,,,,,,,,,,,,,,,,,0,21,21,56,1,,,,,,,,,,,,,,,,,,,,,,,
,,,,,V3_050,19,female,2024-11-05_16h27.05.626,jersey_experiment_5_v3,2023.2.2,Win32,85.47008547,,,,,,,,,,,,,,,,1184.4365,1185.7304,1185.7304,1188.5776,return,0.9093,,87.23958333,,,,,,FBP-YG-19.png,0.43,1.2,14,0.5,,,,,,,,,,,,,,,,,,0,22,22,13,1,,,,,,,,,,,,,,,,,,,,,,,
,,,,,V3_050,19,female,2024-11-05_16h27.05.626,jersey_experiment_5_v3,2023.2.2,Win32,85.47008547,,,,,,,,,,,,,,,,1188.5778,1189.8717,1189.8717,1192.3895,return,0.6826,,74.86979167,,,,,,FBP-PT-81.png,0.37,1.2,22,0.5,,,,,,,,,,,,,,,,,,0,23,23,21,1,,,,,,,,,,,,,,,,,,,,,,,
,,,,,V3_050,19,female,2024-11-05_16h27.05.626,jersey_experiment_5_v3,2023.2.2,Win32,85.47008547,,,,,,,,,,,,,,,,1192.3896,1193.6835,1193.6835,1195.6922,return,0.8944,,74.47916667,,,,,,FBP-PT-91.png,0.37,1.2,27,0.5,,,,,,,,,,,,,,,,,,0,24,24,26,1,,,,,,,,,,,,,,,,,,,,,,,
,,,,,V3_050,19,female,2024-11-05_16h27.05.626,jersey_experiment_5_v3,2023.2.2,Win32,85.47008547,,,,,,,,,,,,,,,,1195.6924,1196.9864,1196.9864,1198.348,return,0.7464,,74.47916667,,,,,,FBP-PT-71.png,0.37,1.2,17,0.5,,,,,,,,,,,,,,,,,,0,25,25,16,1,,,,,,,,,,,,,,,,,,,,,,,
,,,,,V3_050,19,female,2024-11-05_16h27.05.626,jersey_experiment_5_v3,2023.2.2,Win32,85.47008547,,,,,,,,,,,,,,,,1198.3481,1199.642,1199.6421,1201.4103,return,0.6206,,74.47916667,,,,,,FBP-YG-17.png,0.35,1.2,1,0.5,,,,,,,,,,,,,,,,,,0,26,26,0,1,,,,,,,,,,,,,,,,,,,,,,,
,,,,,V3_050,19,female,2024-11-05_16h27.05.626,jersey_experiment_5_v3,2023.2.2,Win32,85.47008547,,,,,,,,,,,,,,,,1201.4106,1202.7192,1202.7192,1204.7431,return,0.8389,,87.890625,,,,,,FBP-PT-91.png,0.43,1.2,29,0.5,,,,,,,,,,,,,,,,,,0,27,27,28,1,,,,,,,,,,,,,,,,,,,,,,,
,,,,,V3_050,19,female,2024-11-05_16h27.05.626,jersey_experiment_5_v3,2023.2.2,Win32,85.47008547,,,,,,,,,,,,,,,,1204.7433,1206.0368,1206.0368,1208.4843,return,0.9565,,87.63020833,,,,,,FBP-PT-71.png,0.43,1.2,19,0.5,,,,,,,,,,,,,,,,,,0,28,28,18,1,,,,,,,,,,,,,,,,,,,,,,,
,,,,,V3_050,19,female,2024-11-05_16h27.05.626,jersey_experiment_5_v3,2023.2.2,Win32,85.47008547,,,,,,,,,,,,,,,,1208.4845,1209.7865,1209.7866,1211.8726,return,0.9567,,87.36979167,,,,,,FBP-YG-17.png,0.37,1.2,2,0.5,,,,,,,,,,,,,,,,,,0,29,29,1,1,,,,,,,,,,,,,,,,,,,,,,,
,,,,,V3_050,19,female,2024-11-05_16h27.05.626,jersey_experiment_5_v3,2023.2.2,Win32,85.47008547,,,,,,,,,,,,,,,,1211.8727,1213.4254,1213.4254,1214.7517,return,0.7617,,87.36979167,,,,,,FBP-OG-71.png,0.37,1.2,32,0.75,,,,,,,,,,,,,,,,,,0,30,30,31,1,,,,,,,,,,,,,,,,,,,,,,,
,,,,,V3_050,19,female,2024-11-05_16h27.05.626,jersey_experiment_5_v3,2023.2.2,Win32,85.47008547,,,,,,,,,,,,,,,,1214.7518,1216.0609,1216.0609,1217.9132,return,0.7374,,74.609375,,,,,,FBP-RB-81.png,0.35,1.2,51,0.5,,,,,,,,,,,,,,,,,,0,31,31,50,1,,,,,,,,,,,,,,,,,,,,,,,
,,,,,V3_050,19,female,2024-11-05_16h27.05.626,jersey_experiment_5_v3,2023.2.2,Win32,85.47008547,,,,,,,,,,,,,,,,1217.9135,1219.2138,1219.2139,1222.7434,return,1.4738,,87.36979167,,,,,,FBP-YG-18.png,0.45,1.2,10,0.5,,,,,,,,,,,,,,,,,,0,32,32,9,1,,,,,,,,,,,,,,,,,,,,,,,
,,,,,V3_050,19,female,2024-11-05_16h27.05.626,jersey_experiment_5_v3,2023.2.2,Win32,85.47008547,,,,,,,,,,,,,,,,1222.7436,1224.046,1224.046,1226.2025,return,0.8625,,74.21875,,,,,,FBP-PT-91.png,0.35,1.2,26,0.5,,,,,,,,,,,,,,,,,,0,33,33,25,1,,,,,,,,,,,,,,,,,,,,,,,
,,,,,V3_050,19,female,2024-11-05_16h27.05.626,jersey_experiment_5_v3,2023.2.2,Win32,85.47008547,,,,,,,,,,,,,,,,1226.2027,1227.5053,1227.5053,1231.2935,return,2.6677,,75,,,,,,FBP-YG-17.png,0.4,1.2,3,0.5,,,,,,,,,,,,,,,,,,0,34,34,2,1,,,,,,,,,,,,,,,,,,,,,,,
,,,,,V3_050,19,female,2024-11-05_16h27.05.626,jersey_experiment_5_v3,2023.2.2,Win32,85.47008547,,,,,,,,,,,,,,,,1231.2937,1232.5877,1232.5877,1236.4148,return,1.8828,,87.76041667,,,,,,FBP-RB-71.png,0.43,1.2,49,0.5,,,,,,,,,,,,,,,,,,0,35,35,48,1,,,,,,,,,,,,,,,,,,,,,,,
,,,,,V3_050,19,female,2024-11-05_16h27.05.626,jersey_experiment_5_v3,2023.2.2,Win32,85.47008547,,,,,,,,,,,,,,,,1236.4149,1237.709,1237.709,1240.0467,return,0.9886,,99.609375,,,,,,FBP-RB-91.png,0.45,1.2,60,0.5,,,,,,,,,,,,,,,,,,0,36,36,59,1,,,,,,,,,,,,,,,,,,,,,,,
,,,,,V3_050,19,female,2024-11-05_16h27.05.626,jersey_experiment_5_v3,2023.2.2,Win32,85.47008547,,,,,,,,,,,,,,,,1240.0469,1241.5911,1241.5911,1243.8121,return,0.8476,,74.73958333,,,,,,FBP-OG-81.png,0.37,1.2,37,0.75,,,,,,,,,,,,,,,,,,0,37,37,36,1,,,,,,,,,,,,,,,,,,,,,,,
,,,,,V3_050,19,female,2024-11-05_16h27.05.626,jersey_experiment_5_v3,2023.2.2,Win32,85.47008547,,,,,,,,,,,,,,,,1243.8123,1245.356,1245.356,1248.9093,return,2.0389,,86.84895833,,,,,,FBP-OG-71.png,0.45,1.2,35,0.75,,,,,,,,,,,,,,,,,,0,38,38,34,1,,,,,,,,,,,,,,,,,,,,,,,
,,,,,V3_050,19,female,2024-11-05_16h27.05.626,jersey_experiment_5_v3,2023.2.2,Win32,85.47008547,,,,,,,,,,,,,,,,1248.9095,1250.212,1250.2121,1252.3296,return,0.8944,,87.36979167,,,,,,FBP-PT-91.png,0.4,1.2,28,0.5,,,,,,,,,,,,,,,,,,0,39,39,27,1,,,,,,,,,,,,,,,,,,,,,,,
,,,,,V3_050,19,female,2024-11-05_16h27.05.626,jersey_experiment_5_v3,2023.2.2,Win32,85.47008547,,,,,,,,,,,,,,,,1252.3297,1253.874,1253.874,1256.5566,return,0.8943,,94.140625,,,,,,FBP-OG-91.png,0.43,1.2,44,0.75,,,,,,,,,,,,,,,,,,0,40,40,43,1,,,,,,,,,,,,,,,,,,,,,,,
,,,,,V3_050,19,female,2024-11-05_16h27.05.626,jersey_experiment_5_v3,2023.2.2,Win32,85.47008547,,,,,,,,,,,,,,,,1256.5568,1257.8507,1257.8507,1260.3768,return,0.7851,,93.75,,,,,,FBP-RB-81.png,0.43,1.2,54,0.5,,,,,,,,,,,,,,,,,,0,41,41,53,1,,,,,,,,,,,,,,,,,,,,,,,
,,,,,V3_050,19,female,2024-11-05_16h27.05.626,jersey_experiment_5_v3,2023.2.2,Win32,85.47008547,,,,,,,,,,,,,,,,1260.377,1261.9212,1261.9212,1265.3806,return,2.086,,62.63020833,,,,,,FBP-OG-81.png,0.35,1.2,36,0.75,,,,,,,,,,,,,,,,,,0,42,42,35,1,,,,,,,,,,,,,,,,,,,,,,,
,,,,,V3_050,19,female,2024-11-05_16h27.05.626,jersey_experiment_5_v3,2023.2.2,Win32,85.47008547,,,,,,,,,,,,,,,,1265.3807,1266.9334,1266.9334,1269.4834,return,0.9501,,62.109375,,,,,,FBP-OG-91.png,0.37,1.2,42,0.75,,,,,,,,,,,,,,,,,,0,43,43,41,1,,,,,,,,,,,,,,,,,,,,,,,
,,,,,V3_050,19,female,2024-11-05_16h27.05.626,jersey_experiment_5_v3,2023.2.2,Win32,85.47008547,,,,,,,,,,,,,,,,1269.4835,1271.0275,1271.0275,1273.3656,return,0.9263,,88.02083333,,,,,,FBP-OG-81.png,0.45,1.2,40,0.75,,,,,,,,,,,,,,,,,,0,44,44,39,1,,,,,,,,,,,,,,,,,,,,,,,
,,,,,V3_050,19,female,2024-11-05_16h27.05.626,jersey_experiment_5_v3,2023.2.2,Win32,85.47008547,,,,,,,,,,,,,,,,1273.3658,1274.6598,1274.6599,1276.6362,return,0.8472,,74.86979167,,,,,,FBP-RB-71.png,0.4,1.2,48,0.5,,,,,,,,,,,,,,,,,,0,45,45,47,1,,,,,,,,,,,,,,,,,,,,,,,
,,,,,V3_050,19,female,2024-11-05_16h27.05.626,jersey_experiment_5_v3,2023.2.2,Win32,85.47008547,,,,,,,,,,,,,,,,1276.6364,1277.9305,1277.9305,1281.6166,return,2.2977,,87.76041667,,,,,,FBP-PT-71.png,0.45,1.2,20,0.5,,,,,,,,,,,,,,,,,,0,46,46,19,1,,,,,,,,,,,,,,,,,,,,,,,
,,,,,V3_050,19,female,2024-11-05_16h27.05.626,jersey_experiment_5_v3,2023.2.2,Win32,85.47008547,,,,,,,,,,,,,,,,1281.6167,1282.9104,1282.9104,1288.7077,return,0.6123,,74.86979167,,,,,,FBP-YG-18.png,0.37,1.2,7,0.5,,,,,,,,,,,,,,,,,,0,47,47,6,1,,,,,,,,,,,,,,,,,,,,,,,
,,,,,V3_050,19,female,2024-11-05_16h27.05.626,jersey_experiment_5_v3,2023.2.2,Win32,85.47008547,,,,,,,,,,,,,,,,1288.7079,1290.0164,1290.0165,1294.1815,return,2.9093,,62.23958333,,,,,,FBP-YG-19.png,0.35,1.2,11,0.5,,,,,,,,,,,,,,,,,,0,48,48,10,1,,,,,,,,,,,,,,,,,,,,,,,
,,,,,V3_050,19,female,2024-11-05_16h27.05.626,jersey_experiment_5_v3,2023.2.2,Win32,85.47008547,,,,,,,,,,,,,,,,1294.1817,1295.4757,1295.4757,1300.2758,return,3.0272,,62.109375,,,,,,FBP-YG-19.png,0.37,1.2,12,0.5,,,,,,,,,,,,,,,,,,0,49,49,11,1,,,,,,,,,,,,,,,,,,,,,,,
,,,,,V3_050,19,female,2024-11-05_16h27.05.626,jersey_experiment_5_v3,2023.2.2,Win32,85.47008547,,,,,,,,,,,,,,,,1300.2759,1301.8288,1301.8288,1303.8526,return,0.7922,,74.73958333,,,,,,FBP-OG-71.png,0.4,1.2,33,0.75,,,,,,,,,,,,,,,,,,0,50,50,32,1,,,,,,,,,,,,,,,,,,,,,,,
,,,,,V3_050,19,female,2024-11-05_16h27.05.626,jersey_experiment_5_v3,2023.2.2,Win32,85.47008547,,,,,,,,,,,,,,,,1303.8528,1305.1465,1305.1465,1307.7824,return,0.8949,,86.328125,,,,,,FBP-PT-81.png,0.45,1.2,25,0.5,,,,,,,,,,,,,,,,,,0,51,51,24,1,,,,,,,,,,,,,,,,,,,,,,,
,,,,,V3_050,19,female,2024-11-05_16h27.05.626,jersey_experiment_5_v3,2023.2.2,Win32,85.47008547,,,,,,,,,,,,,,,,1307.7825,1309.3284,1309.3285,1312.1755,return,0.9198,,74.21875,,,,,,FBP-OG-91.png,0.4,1.2,43,0.75,,,,,,,,,,,,,,,,,,0,52,52,42,1,,,,,,,,,,,,,,,,,,,,,,,
,,,,,V3_050,19,female,2024-11-05_16h27.05.626,jersey_experiment_5_v3,2023.2.2,Win32,85.47008547,,,,,,,,,,,,,,,,1312.1757,1313.7201,1313.7202,1316.794,return,1.4269,,86.84895833,,,,,,FBP-OG-81.png,0.43,1.2,39,0.75,,,,,,,,,,,,,,,,,,0,53,53,38,1,,,,,,,,,,,,,,,,,,,,,,,
,,,,,V3_050,19,female,2024-11-05_16h27.05.626,jersey_experiment_5_v3,2023.2.2,Win32,85.47008547,,,,,,,,,,,,,,,,1316.7941,1318.0885,1318.0885,1320.865,return,1.2861,,87.890625,,,,,,FBP-PT-81.png,0.4,1.2,23,0.5,,,,,,,,,,,,,,,,,,0,54,54,22,1,,,,,,,,,,,,,,,,,,,,,,,
,,,,,V3_050,19,female,2024-11-05_16h27.05.626,jersey_experiment_5_v3,2023.2.2,Win32,85.47008547,,,,,,,,,,,,,,,,1320.8652,1322.1673,1322.1674,1324.9357,return,0.9414,,75,,,,,,FBP-YG-17.png,0.45,1.2,5,0.5,,,,,,,,,,,,,,,,,,0,55,55,4,1,,,,,,,,,,,,,,,,,,,,,,,
,,,,,V3_050,19,female,2024-11-05_16h27.05.626,jersey_experiment_5_v3,2023.2.2,Win32,85.47008547,,,,,,,,,,,,,,,,1324.9359,1326.2299,1326.2299,1328.2821,return,0.6543,,61.71875,,,,,,FBP-PT-71.png,0.4,1.2,18,0.5,,,,,,,,,,,,,,,,,,0,56,56,17,1,,,,,,,,,,,,,,,,,,,,,,,
,,,,,V3_050,19,female,2024-11-05_16h27.05.626,jersey_experiment_5_v3,2023.2.2,Win32,85.47008547,,,,,,,,,,,,,,,,1328.2823,1329.5792,1329.5792,1331.6182,return,0.918,,74.609375,,,,,,FBP-PT-91.png,0.45,1.2,30,0.5,,,,,,,,,,,,,,,,,,0,57,57,29,1,,,,,,,,,,,,,,,,,,,,,,,
,,,,,V3_050,19,female,2024-11-05_16h27.05.626,jersey_experiment_5_v3,2023.2.2,Win32,85.47008547,,,,,,,,,,,,,,,,1331.6184,1333.171,1333.1711,1335.8822,return,0.8035,,61.84895833,,,,,,FBP-OG-71.png,0.35,1.2,31,0.75,,,,,,,,,,,,,,,,,,0,58,58,30,1,,,,,,,,,,,,,,,,,,,,,,,
,,,,,V3_050,19,female,2024-11-05_16h27.05.626,jersey_experiment_5_v3,2023.2.2,Win32,85.47008547,,,,,,,,,,,,,,,,1335.8825,1337.1766,1337.1766,1338.953,return,0.7224,,74.47916667,,,,,,FBP-YG-18.png,0.4,1.2,8,0.5,,,,,,,,,,,,,,,,,,0,59,59,7,1,,,,,,,,,,,,,,,,,,,,,,,
,,,,,V3_050,19,female,2024-11-05_16h27.05.626,jersey_experiment_5_v3,2023.2.2,Win32,85.47008547,,,,,,,,,,,,,,,,,,,,,,,,,,,,,,,,,,,,,,,,,,,,,,,,,,,,,,,,1338.9532,1344.2538,return,5.2856,,,,,,,,,,,,,,,,,,,
,,,,,V3_050,19,female,2024-11-05_16h27.05.626,jersey_experiment_5_v3,2023.2.2,Win32,85.47008547,,,,,,,,,,,,,,,,,,,,,,,,,,,,,,,,,,,,,,,,,,,,,,,,,,,,,,,,,,,,,1344.2538,1348.7802,1,3.8588,return,0.6588,,,,,,,,,,,,
,,,,,V3_050,19,female,2024-11-05_16h27.05.626,jersey_experiment_5_v3,2023.2.2,Win32,85.47008547,,,,,,,,,,,,,,,,,,,,,,,,,,,,,,,,,,,,,,,,,,,,,,,,,,,,,,,,,,,,,,,,,,,,1348.7803,1422.3215,"I noticed white and black men were shown in the experiment with different weights, so I am curious to see if this study wants to evaluate how our constructions about race can influence our visual perception. ",right,66.874,,,,,,
,,,,,V3_050,19,female,2024-11-05_16h27.05.626,jersey_experiment_5_v3,2023.2.2,Win32,85.47008547,,,,,,,,,,,,,,,,,,,,,,,,,,,,,,,,,,,,,,,,,,,,,,,,,,,,,,,,,,,,,,,,,,,,,,,,,,1422.3216,1425.0893,return,2.7532,