requirements.started,requirements.stopped,key_resp_3.keys,key_resp_3.rt,key_resp_3.duration,Subject ID,Age,Gender,date,expName,psychopyVersion,OS,frameRate,instructions1.started,instructions1.stopped,key_resp.keys,key_resp.rt,key_resp.duration,example.started,example.stopped,enter_2.keys,enter_2.rt,enter_2.duration,instructions2.started,instructions2.stopped,enter_3.keys,enter_3.rt,enter_3.duration,image.started,image.stopped,slider_2.started,slider_2.stopped,next.keys,next.rt,next.duration,slider.response,trial_block_1.thisRepN,trial_block_1.thisTrialN,trial_block_1.thisN,trial_block_1.thisIndex,trial_block_1.ran,Path,Width,Height,Index,Duration,trial_block_2.thisRepN,trial_block_2.thisTrialN,trial_block_2.thisN,trial_block_2.thisIndex,trial_block_2.ran,rest_break.started,rest_break.stopped,end_break.started,end_break.stopped,key_resp_5.keys,key_resp_5.rt,key_resp_5.duration,trial_block_3.thisRepN,trial_block_3.thisTrialN,trial_block_3.thisN,trial_block_3.thisIndex,trial_block_3.ran,trial_block_4.thisRepN,trial_block_4.thisTrialN,trial_block_4.thisN,trial_block_4.thisIndex,trial_block_4.ran,questions_intro.started,questions_intro.stopped,enter_12.keys,enter_12.rt,enter_12.duration,question2.started,question2.stopped,question_doingbest.response,question_doingbest.rt,enter_15.keys,enter_15.rt,enter_15.duration,pattern.started,pattern.stopped,pattern_2.text,enter_17.keys,enter_17.rt,enter_17.duration,thankyou.started,thankyou.stopped,enter_14.keys,enter_14.rt,enter_14.duration
0,11.4502,return,11.4441,,V3_096,35,M,2025-01-30_16h13.02.411,jersey_experiment_5_v3,2023.2.2,Win32,84.74576271,,,,,,,,,,,,,,,,,,,,,,,,,,,,,,,,,,,,,,,,,,,,,,,,,,,,,,,,,,,,,,,,,,,,,,,,,,,,,,
,,,,,V3_096,35,M,2025-01-30_16h13.02.411,jersey_experiment_5_v3,2023.2.2,Win32,84.74576271,11.4502,19.0503,return,7.5852,,,,,,,,,,,,,,,,,,,,,,,,,,,,,,,,,,,,,,,,,,,,,,,,,,,,,,,,,,,,,,,,,,,,,,,,,,
,,,,,V3_096,35,M,2025-01-30_16h13.02.411,jersey_experiment_5_v3,2023.2.2,Win32,84.74576271,,,,,,19.0503,23.8178,return,4.7361,,,,,,,,,,,,,,,,,,,,,,,,,,,,,,,,,,,,,,,,,,,,,,,,,,,,,,,,,,,,,,,,,,,,,
,,,,,V3_096,35,M,2025-01-30_16h13.02.411,jersey_experiment_5_v3,2023.2.2,Win32,84.74576271,,,,,,,,,,,23.8178,47.4191,return,23.5923,,,,,,,,,,,,,,,,,,,,,,,,,,,,,,,,,,,,,,,,,,,,,,,,,,,,,,,,,,,,,,,,
,,,,,V3_096,35,M,2025-01-30_16h13.02.411,jersey_experiment_5_v3,2023.2.2,Win32,84.74576271,,,,,,,,,,,,,,,,47.4207,48.9719,48.9719,56.5252,return,2.6977,,75,0,0,0,47,1,FBP-RB-17.png,0.4,1.2,48,0.75,,,,,,,,,,,,,,,,,,,,,,,,,,,,,,,,,,,,,,,,,,,,,
,,,,,V3_096,35,M,2025-01-30_16h13.02.411,jersey_experiment_5_v3,2023.2.2,Win32,84.74576271,,,,,,,,,,,,,,,,56.5254,58.078,58.0781,60.8133,return,1.1225,,75,0,1,1,13,1,FBP-YG-91.png,0.43,1.2,14,0.75,,,,,,,,,,,,,,,,,,,,,,,,,,,,,,,,,,,,,,,,,,,,,
,,,,,V3_096,35,M,2025-01-30_16h13.02.411,jersey_experiment_5_v3,2023.2.2,Win32,84.74576271,,,,,,,,,,,,,,,,60.8136,62.1105,62.1105,65.161,return,1.4975,,24.34895833,0,2,2,39,1,FBP-OG-18.png,0.45,1.2,40,0.5,,,,,,,,,,,,,,,,,,,,,,,,,,,,,,,,,,,,,,,,,,,,,
,,,,,V3_096,35,M,2025-01-30_16h13.02.411,jersey_experiment_5_v3,2023.2.2,Win32,84.74576271,,,,,,,,,,,,,,,,65.1611,66.4548,66.4548,68.393,return,1.2089,,25,0,3,3,33,1,FBP-OG-17.png,0.43,1.2,34,0.5,,,,,,,,,,,,,,,,,,,,,,,,,,,,,,,,,,,,,,,,,,,,,
,,,,,V3_096,35,M,2025-01-30_16h13.02.411,jersey_experiment_5_v3,2023.2.2,Win32,84.74576271,,,,,,,,,,,,,,,,68.3933,69.9373,69.9374,72.8137,return,1.8044,,0.390625,0,4,4,8,1,FBP-YG-81.png,0.43,1.2,9,0.75,,,,,,,,,,,,,,,,,,,,,,,,,,,,,,,,,,,,,,,,,,,,,
,,,,,V3_096,35,M,2025-01-30_16h13.02.411,jersey_experiment_5_v3,2023.2.2,Win32,84.74576271,,,,,,,,,,,,,,,,72.814,74.3697,74.3697,76.205,return,1.2326,,0.390625,0,5,5,52,1,FBP-RB-18.png,0.4,1.2,53,0.75,,,,,,,,,,,,,,,,,,,,,,,,,,,,,,,,,,,,,,,,,,,,,
,,,,,V3_096,35,M,2025-01-30_16h13.02.411,jersey_experiment_5_v3,2023.2.2,Win32,84.74576271,,,,,,,,,,,,,,,,76.2051,77.5142,77.5142,79.5375,return,1.0822,,0.390625,0,6,6,40,1,FBP-OG-19.png,0.35,1.2,41,0.5,,,,,,,,,,,,,,,,,,,,,,,,,,,,,,,,,,,,,,,,,,,,,
,,,,,V3_096,35,M,2025-01-30_16h13.02.411,jersey_experiment_5_v3,2023.2.2,Win32,84.74576271,,,,,,,,,,,,,,,,79.5376,81.0846,81.0847,83.1467,return,1.0915,,0.651041667,0,7,7,22,1,FBP-PT-18.png,0.4,1.2,23,0.75,,,,,,,,,,,,,,,,,,,,,,,,,,,,,,,,,,,,,,,,,,,,,
,,,,,V3_096,35,M,2025-01-30_16h13.02.411,jersey_experiment_5_v3,2023.2.2,Win32,84.74576271,,,,,,,,,,,,,,,,83.1468,84.6997,84.6997,86.3613,return,1.0738,,0.651041667,0,8,8,16,1,FBP-PT-17.png,0.37,1.2,17,0.75,,,,,,,,,,,,,,,,,,,,,,,,,,,,,,,,,,,,,,,,,,,,,
,,,,,V3_096,35,M,2025-01-30_16h13.02.411,jersey_experiment_5_v3,2023.2.2,Win32,84.74576271,,,,,,,,,,,,,,,,86.3614,87.9084,87.9085,90.0408,return,1.0119,,0.651041667,0,9,9,10,1,FBP-YG-91.png,0.35,1.2,11,0.75,,,,,,,,,,,,,,,,,,,,,,,,,,,,,,,,,,,,,,,,,,,,,
,,,,,V3_096,35,M,2025-01-30_16h13.02.411,jersey_experiment_5_v3,2023.2.2,Win32,84.74576271,,,,,,,,,,,,,,,,90.041,91.5938,91.5939,94.591,return,0.8961,,49.47916667,0,10,10,7,1,FBP-YG-81.png,0.4,1.2,8,0.75,,,,,,,,,,,,,,,,,,,,,,,,,,,,,,,,,,,,,,,,,,,,,
,,,,,V3_096,35,M,2025-01-30_16h13.02.411,jersey_experiment_5_v3,2023.2.2,Win32,84.74576271,,,,,,,,,,,,,,,,94.5913,96.1499,96.1499,98.7706,return,0.8237,,0.260416667,0,11,11,45,1,FBP-RB-17.png,0.35,1.2,46,0.75,,,,,,,,,,,,,,,,,,,,,,,,,,,,,,,,,,,,,,,,,,,,,
,,,,,V3_096,35,M,2025-01-30_16h13.02.411,jersey_experiment_5_v3,2023.2.2,Win32,84.74576271,,,,,,,,,,,,,,,,98.7708,100.3238,100.3238,104.4077,return,1.622,,74.73958333,0,12,12,27,1,FBP-PT-19.png,0.4,1.2,28,0.75,,,,,,,,,,,,,,,,,,,,,,,,,,,,,,,,,,,,,,,,,,,,,
,,,,,V3_096,35,M,2025-01-30_16h13.02.411,jersey_experiment_5_v3,2023.2.2,Win32,84.74576271,,,,,,,,,,,,,,,,104.4078,105.9623,105.9623,108.2447,return,0.5412,,99.86979167,0,13,13,14,1,FBP-YG-91.png,0.45,1.2,15,0.75,,,,,,,,,,,,,,,,,,,,,,,,,,,,,,,,,,,,,,,,,,,,,
,,,,,V3_096,35,M,2025-01-30_16h13.02.411,jersey_experiment_5_v3,2023.2.2,Win32,84.74576271,,,,,,,,,,,,,,,,108.2449,109.7916,109.7917,113.948,return,2.2595,,75,0,14,14,23,1,FBP-PT-18.png,0.43,1.2,24,0.75,,,,,,,,,,,,,,,,,,,,,,,,,,,,,,,,,,,,,,,,,,,,,
,,,,,V3_096,35,M,2025-01-30_16h13.02.411,jersey_experiment_5_v3,2023.2.2,Win32,84.74576271,,,,,,,,,,,,,,,,113.9482,115.4919,115.4919,119.3747,return,1.5207,,23.56770833,0,15,15,46,1,FBP-RB-17.png,0.37,1.2,47,0.75,,,,,,,,,,,,,,,,,,,,,,,,,,,,,,,,,,,,,,,,,,,,,
,,,,,V3_096,35,M,2025-01-30_16h13.02.411,jersey_experiment_5_v3,2023.2.2,Win32,84.74576271,,,,,,,,,,,,,,,,119.3749,120.6683,120.6684,122.6215,return,0.8854,,24.08854167,0,16,16,31,1,FBP-OG-17.png,0.37,1.2,32,0.5,,,,,,,,,,,,,,,,,,,,,,,,,,,,,,,,,,,,,,,,,,,,,
,,,,,V3_096,35,M,2025-01-30_16h13.02.411,jersey_experiment_5_v3,2023.2.2,Win32,84.74576271,,,,,,,,,,,,,,,,122.6216,124.1741,124.1741,143.2579,return,0.8941,,0.130208333,0,17,17,55,1,FBP-RB-19.png,0.35,1.2,56,0.75,,,,,,,,,,,,,,,,,,,,,,,,,,,,,,,,,,,,,,,,,,,,,
,,,,,V3_096,35,M,2025-01-30_16h13.02.411,jersey_experiment_5_v3,2023.2.2,Win32,84.74576271,,,,,,,,,,,,,,,,143.2581,144.8047,144.8047,147.705,return,0.9092,,100,0,18,18,29,1,FBP-PT-19.png,0.45,1.2,30,0.75,,,,,,,,,,,,,,,,,,,,,,,,,,,,,,,,,,,,,,,,,,,,,
,,,,,V3_096,35,M,2025-01-30_16h13.02.411,jersey_experiment_5_v3,2023.2.2,Win32,84.74576271,,,,,,,,,,,,,,,,147.7052,149.2562,149.2562,153.0932,return,0.8618,,50.390625,0,19,19,21,1,FBP-PT-18.png,0.37,1.2,22,0.75,,,,,,,,,,,,,,,,,,,,,,,,,,,,,,,,,,,,,,,,,,,,,
,,,,,V3_096,35,M,2025-01-30_16h13.02.411,jersey_experiment_5_v3,2023.2.2,Win32,84.74576271,,,,,,,,,,,,,,,,153.0933,154.6459,154.6459,156.5845,return,0.8705,,74.609375,0,20,20,11,1,FBP-YG-91.png,0.37,1.2,12,0.75,,,,,,,,,,,,,,,,,,,,,,,,,,,,,,,,,,,,,,,,,,,,,
,,,,,V3_096,35,M,2025-01-30_16h13.02.411,jersey_experiment_5_v3,2023.2.2,Win32,84.74576271,,,,,,,,,,,,,,,,156.5846,158.1374,158.1375,160.5763,return,0.8623,,98.95833333,0,21,21,57,1,FBP-RB-19.png,0.4,1.2,58,0.75,,,,,,,,,,,,,,,,,,,,,,,,,,,,,,,,,,,,,,,,,,,,,
,,,,,V3_096,35,M,2025-01-30_16h13.02.411,jersey_experiment_5_v3,2023.2.2,Win32,84.74576271,,,,,,,,,,,,,,,,160.5765,162.123,162.123,163.5028,return,0.8004,,98.95833333,0,22,22,24,1,FBP-PT-18.png,0.45,1.2,25,0.75,,,,,,,,,,,,,,,,,,,,,,,,,,,,,,,,,,,,,,,,,,,,,
,,,,,V3_096,35,M,2025-01-30_16h13.02.411,jersey_experiment_5_v3,2023.2.2,Win32,84.74576271,,,,,,,,,,,,,,,,163.5031,165.0556,165.0556,166.8354,return,0.8005,,75.13020833,0,23,23,48,1,FBP-RB-17.png,0.43,1.2,49,0.75,,,,,,,,,,,,,,,,,,,,,,,,,,,,,,,,,,,,,,,,,,,,,
,,,,,V3_096,35,M,2025-01-30_16h13.02.411,jersey_experiment_5_v3,2023.2.2,Win32,84.74576271,,,,,,,,,,,,,,,,166.8355,168.1285,168.1285,171.103,return,0.8941,,49.86979167,0,24,24,41,1,FBP-OG-19.png,0.37,1.2,42,0.5,,,,,,,,,,,,,,,,,,,,,,,,,,,,,,,,,,,,,,,,,,,,,
,,,,,V3_096,35,M,2025-01-30_16h13.02.411,jersey_experiment_5_v3,2023.2.2,Win32,84.74576271,,,,,,,,,,,,,,,,171.1032,172.647,172.647,174.6712,return,0.886,,100,0,25,25,54,1,FBP-RB-18.png,0.45,1.2,55,0.75,,,,,,,,,,,,,,,,,,,,,,,,,,,,,,,,,,,,,,,,,,,,,
,,,,,V3_096,35,M,2025-01-30_16h13.02.411,jersey_experiment_5_v3,2023.2.2,Win32,84.74576271,,,,,,,,,,,,,,,,174.6714,175.9651,175.9651,178.2244,return,0.7769,,74.86979167,0,26,26,37,1,FBP-OG-18.png,0.4,1.2,38,0.5,,,,,,,,,,,,,,,,,,,,,,,,,,,,,,,,,,,,,,,,,,,,,
,,,,,V3_096,35,M,2025-01-30_16h13.02.411,jersey_experiment_5_v3,2023.2.2,Win32,84.74576271,,,,,,,,,,,,,,,,178.2245,179.5183,179.5183,181.0532,return,0.7464,,74.86979167,0,27,27,32,1,FBP-OG-17.png,0.4,1.2,33,0.5,,,,,,,,,,,,,,,,,,,,,,,,,,,,,,,,,,,,,,,,,,,,,
,,,,,V3_096,35,M,2025-01-30_16h13.02.411,jersey_experiment_5_v3,2023.2.2,Win32,84.74576271,,,,,,,,,,,,,,,,181.0534,182.6091,182.6091,184.8598,return,0.9167,,100,0,28,28,4,1,FBP-YG-71.png,0.45,1.2,5,0.75,,,,,,,,,,,,,,,,,,,,,,,,,,,,,,,,,,,,,,,,,,,,,
,,,,,V3_096,35,M,2025-01-30_16h13.02.411,jersey_experiment_5_v3,2023.2.2,Win32,84.74576271,,,,,,,,,,,,,,,,184.86,186.1624,186.1624,187.598,return,0.7847,,100,0,29,29,38,1,FBP-OG-18.png,0.43,1.2,39,0.5,,,,,,,,,,,,,,,,,,,,,,,,,,,,,,,,,,,,,,,,,,,,,
,,,,,V3_096,35,M,2025-01-30_16h13.02.411,jersey_experiment_5_v3,2023.2.2,Win32,84.74576271,,,,,,,,,,,,,,,,187.5981,189.1422,189.1422,193.9515,return,3.5065,,49.73958333,0,30,30,0,1,FBP-YG-71.png,0.35,1.2,1,0.75,,,,,,,,,,,,,,,,,,,,,,,,,,,,,,,,,,,,,,,,,,,,,
,,,,,V3_096,35,M,2025-01-30_16h13.02.411,jersey_experiment_5_v3,2023.2.2,Win32,84.74576271,,,,,,,,,,,,,,,,193.9517,195.26,195.26,197.1832,return,0.8486,,99.609375,0,31,31,42,1,FBP-OG-19.png,0.4,1.2,43,0.5,,,,,,,,,,,,,,,,,,,,,,,,,,,,,,,,,,,,,,,,,,,,,
,,,,,V3_096,35,M,2025-01-30_16h13.02.411,jersey_experiment_5_v3,2023.2.2,Win32,84.74576271,,,,,,,,,,,,,,,,197.1834,198.7275,198.7275,201.4807,return,0.7853,,49.86979167,0,32,32,5,1,FBP-YG-81.png,0.35,1.2,6,0.75,,,,,,,,,,,,,,,,,,,,,,,,,,,,,,,,,,,,,,,,,,,,,
,,,,,V3_096,35,M,2025-01-30_16h13.02.411,jersey_experiment_5_v3,2023.2.2,Win32,84.74576271,,,,,,,,,,,,,,,,201.4809,203.0339,203.034,204.6658,return,0.7835,,100,0,33,33,19,1,FBP-PT-17.png,0.45,1.2,20,0.75,,,,,,,,,,,,,,,,,,,,,,,,,,,,,,,,,,,,,,,,,,,,,
,,,,,V3_096,35,M,2025-01-30_16h13.02.411,jersey_experiment_5_v3,2023.2.2,Win32,84.74576271,,,,,,,,,,,,,,,,204.666,206.2103,206.2104,208.8694,return,0.8239,,24.47916667,0,34,34,20,1,FBP-PT-18.png,0.35,1.2,21,0.75,,,,,,,,,,,,,,,,,,,,,,,,,,,,,,,,,,,,,,,,,,,,,
,,,,,V3_096,35,M,2025-01-30_16h13.02.411,jersey_experiment_5_v3,2023.2.2,Win32,84.74576271,,,,,,,,,,,,,,,,208.8696,210.1636,210.1636,211.6451,return,0.7372,,24.47916667,0,35,35,35,1,FBP-OG-18.png,0.35,1.2,36,0.5,,,,,,,,,,,,,,,,,,,,,,,,,,,,,,,,,,,,,,,,,,,,,
,,,,,V3_096,35,M,2025-01-30_16h13.02.411,jersey_experiment_5_v3,2023.2.2,Win32,84.74576271,,,,,,,,,,,,,,,,211.6453,213.1904,213.1905,215.1754,return,0.8325,,100,0,36,36,49,1,FBP-RB-17.png,0.45,1.2,50,0.75,,,,,,,,,,,,,,,,,,,,,,,,,,,,,,,,,,,,,,,,,,,,,
,,,,,V3_096,35,M,2025-01-30_16h13.02.411,jersey_experiment_5_v3,2023.2.2,Win32,84.74576271,,,,,,,,,,,,,,,,215.1756,216.7197,216.7197,219.2899,return,0.757,,74.47916667,0,37,37,56,1,FBP-RB-19.png,0.37,1.2,57,0.75,,,,,,,,,,,,,,,,,,,,,,,,,,,,,,,,,,,,,,,,,,,,,
,,,,,V3_096,35,M,2025-01-30_16h13.02.411,jersey_experiment_5_v3,2023.2.2,Win32,84.74576271,,,,,,,,,,,,,,,,219.2902,220.8377,220.8378,222.6025,return,0.8152,,99.08854167,0,38,38,53,1,FBP-RB-18.png,0.43,1.2,54,0.75,,,,,,,,,,,,,,,,,,,,,,,,,,,,,,,,,,,,,,,,,,,,,
,,,,,V3_096,35,M,2025-01-30_16h13.02.411,jersey_experiment_5_v3,2023.2.2,Win32,84.74576271,,,,,,,,,,,,,,,,222.6026,224.149,224.149,225.9137,return,0.769,,100,0,39,39,9,1,FBP-YG-81.png,0.45,1.2,10,0.75,,,,,,,,,,,,,,,,,,,,,,,,,,,,,,,,,,,,,,,,,,,,,
,,,,,V3_096,35,M,2025-01-30_16h13.02.411,jersey_experiment_5_v3,2023.2.2,Win32,84.74576271,,,,,,,,,,,,,,,,225.9139,227.4581,227.4581,230.932,return,0.7916,,49.609375,0,40,40,6,1,FBP-YG-81.png,0.37,1.2,7,0.75,,,,,,,,,,,,,,,,,,,,,,,,,,,,,,,,,,,,,,,,,,,,,
,,,,,V3_096,35,M,2025-01-30_16h13.02.411,jersey_experiment_5_v3,2023.2.2,Win32,84.74576271,,,,,,,,,,,,,,,,230.9323,232.2349,232.2349,234.1793,return,0.753,,100,0,41,41,44,1,FBP-OG-19.png,0.45,1.2,45,0.5,,,,,,,,,,,,,,,,,,,,,,,,,,,,,,,,,,,,,,,,,,,,,
,,,,,V3_096,35,M,2025-01-30_16h13.02.411,jersey_experiment_5_v3,2023.2.2,Win32,84.74576271,,,,,,,,,,,,,,,,234.1794,235.7322,235.7323,239.2906,return,1.6269,,24.34895833,0,42,42,17,1,FBP-PT-17.png,0.4,1.2,18,0.75,,,,,,,,,,,,,,,,,,,,,,,,,,,,,,,,,,,,,,,,,,,,,
,,,,,V3_096,35,M,2025-01-30_16h13.02.411,jersey_experiment_5_v3,2023.2.2,Win32,84.74576271,,,,,,,,,,,,,,,,239.291,240.8382,240.8382,243.8117,return,0.8003,,100,0,43,43,59,1,FBP-RB-19.png,0.45,1.2,60,0.75,,,,,,,,,,,,,,,,,,,,,,,,,,,,,,,,,,,,,,,,,,,,,
,,,,,V3_096,35,M,2025-01-30_16h13.02.411,jersey_experiment_5_v3,2023.2.2,Win32,84.74576271,,,,,,,,,,,,,,,,243.8119,245.3648,245.3648,247.2857,return,0.7551,,75,0,44,44,18,1,FBP-PT-17.png,0.43,1.2,19,0.75,,,,,,,,,,,,,,,,,,,,,,,,,,,,,,,,,,,,,,,,,,,,,
,,,,,V3_096,35,M,2025-01-30_16h13.02.411,jersey_experiment_5_v3,2023.2.2,Win32,84.74576271,,,,,,,,,,,,,,,,247.2859,248.8385,248.8386,250.259,return,0.7383,,75,0,45,45,12,1,FBP-YG-91.png,0.4,1.2,13,0.75,,,,,,,,,,,,,,,,,,,,,,,,,,,,,,,,,,,,,,,,,,,,,
,,,,,V3_096,35,M,2025-01-30_16h13.02.411,jersey_experiment_5_v3,2023.2.2,Win32,84.74576271,,,,,,,,,,,,,,,,250.2592,251.5531,251.5531,253.7181,return,0.7534,,24.73958333,0,46,46,36,1,FBP-OG-18.png,0.37,1.2,37,0.5,,,,,,,,,,,,,,,,,,,,,,,,,,,,,,,,,,,,,,,,,,,,,
,,,,,V3_096,35,M,2025-01-30_16h13.02.411,jersey_experiment_5_v3,2023.2.2,Win32,84.74576271,,,,,,,,,,,,,,,,253.7182,255.2632,255.2632,258.1855,return,1.9102,,74.609375,0,47,47,28,1,FBP-PT-19.png,0.43,1.2,29,0.75,,,,,,,,,,,,,,,,,,,,,,,,,,,,,,,,,,,,,,,,,,,,,
,,,,,V3_096,35,M,2025-01-30_16h13.02.411,jersey_experiment_5_v3,2023.2.2,Win32,84.74576271,,,,,,,,,,,,,,,,258.1858,259.7419,259.7419,261.8745,return,0.7205,,100,0,48,48,58,1,FBP-RB-19.png,0.43,1.2,59,0.75,,,,,,,,,,,,,,,,,,,,,,,,,,,,,,,,,,,,,,,,,,,,,
,,,,,V3_096,35,M,2025-01-30_16h13.02.411,jersey_experiment_5_v3,2023.2.2,Win32,84.74576271,,,,,,,,,,,,,,,,261.8747,263.421,263.421,265.9924,return,0.9095,,25,0,49,49,1,1,FBP-YG-71.png,0.37,1.2,2,0.75,,,,,,,,,,,,,,,,,,,,,,,,,,,,,,,,,,,,,,,,,,,,,
,,,,,V3_096,35,M,2025-01-30_16h13.02.411,jersey_experiment_5_v3,2023.2.2,Win32,84.74576271,,,,,,,,,,,,,,,,265.9926,267.2951,267.2951,269.2866,return,1.0036,,24.47916667,0,50,50,30,1,FBP-OG-17.png,0.35,1.2,31,0.5,,,,,,,,,,,,,,,,,,,,,,,,,,,,,,,,,,,,,,,,,,,,,
,,,,,V3_096,35,M,2025-01-30_16h13.02.411,jersey_experiment_5_v3,2023.2.2,Win32,84.74576271,,,,,,,,,,,,,,,,269.2867,270.8393,270.8394,273.0987,return,0.8151,,24.609375,0,51,51,26,1,FBP-PT-19.png,0.37,1.2,27,0.75,,,,,,,,,,,,,,,,,,,,,,,,,,,,,,,,,,,,,,,,,,,,,
,,,,,V3_096,35,M,2025-01-30_16h13.02.411,jersey_experiment_5_v3,2023.2.2,Win32,84.74576271,,,,,,,,,,,,,,,,273.0989,274.6449,274.645,276.3439,return,0.8691,,24.73958333,0,52,52,25,1,FBP-PT-19.png,0.35,1.2,26,0.75,,,,,,,,,,,,,,,,,,,,,,,,,,,,,,,,,,,,,,,,,,,,,
,,,,,V3_096,35,M,2025-01-30_16h13.02.411,jersey_experiment_5_v3,2023.2.2,Win32,84.74576271,,,,,,,,,,,,,,,,276.3441,277.8991,277.8991,287.2455,return,0.252,,1.692708333,0,53,53,50,1,FBP-RB-18.png,0.35,1.2,51,0.75,,,,,,,,,,,,,,,,,,,,,,,,,,,,,,,,,,,,,,,,,,,,,
,,,,,V3_096,35,M,2025-01-30_16h13.02.411,jersey_experiment_5_v3,2023.2.2,Win32,84.74576271,,,,,,,,,,,,,,,,287.2456,288.5427,288.5428,291.4692,return,0.427,,99.609375,0,54,54,43,1,FBP-OG-19.png,0.43,1.2,44,0.5,,,,,,,,,,,,,,,,,,,,,,,,,,,,,,,,,,,,,,,,,,,,,
,,,,,V3_096,35,M,2025-01-30_16h13.02.411,jersey_experiment_5_v3,2023.2.2,Win32,84.74576271,,,,,,,,,,,,,,,,291.4694,293.0138,293.0139,293.9549,return,0.1965,,99.86979167,0,55,55,3,1,FBP-YG-71.png,0.43,1.2,4,0.75,,,,,,,,,,,,,,,,,,,,,,,,,,,,,,,,,,,,,,,,,,,,,
,,,,,V3_096,35,M,2025-01-30_16h13.02.411,jersey_experiment_5_v3,2023.2.2,Win32,84.74576271,,,,,,,,,,,,,,,,293.9551,295.4997,295.4997,297.3281,return,0.2134,,26.171875,0,56,56,51,1,FBP-RB-18.png,0.37,1.2,52,0.75,,,,,,,,,,,,,,,,,,,,,,,,,,,,,,,,,,,,,,,,,,,,,
,,,,,V3_096,35,M,2025-01-30_16h13.02.411,jersey_experiment_5_v3,2023.2.2,Win32,84.74576271,,,,,,,,,,,,,,,,297.3284,298.8726,298.8726,300.0577,return,0.2428,,75.91145833,0,57,57,2,1,FBP-YG-71.png,0.4,1.2,3,0.75,,,,,,,,,,,,,,,,,,,,,,,,,,,,,,,,,,,,,,,,,,,,,
,,,,,V3_096,35,M,2025-01-30_16h13.02.411,jersey_experiment_5_v3,2023.2.2,Win32,84.74576271,,,,,,,,,,,,,,,,300.0579,301.358,301.358,302.8107,return,0.2267,,100,0,58,58,34,1,FBP-OG-17.png,0.45,1.2,35,0.5,,,,,,,,,,,,,,,,,,,,,,,,,,,,,,,,,,,,,,,,,,,,,
,,,,,V3_096,35,M,2025-01-30_16h13.02.411,jersey_experiment_5_v3,2023.2.2,Win32,84.74576271,,,,,,,,,,,,,,,,302.8109,304.3702,304.3703,305.6259,return,0.2357,,24.47916667,0,59,59,15,1,FBP-PT-17.png,0.35,1.2,16,0.75,,,,,,,,,,,,,,,,,,,,,,,,,,,,,,,,,,,,,,,,,,,,,
,,,,,V3_096,35,M,2025-01-30_16h13.02.411,jersey_experiment_5_v3,2023.2.2,Win32,84.74576271,,,,,,,,,,,,,,,,305.6271,307.1787,307.1787,308.0967,return,0.2351,,25.26041667,,,,,,FBP-PT-81.png,0.35,1.2,21,0.75,0,0,0,20,1,,,,,,,,,,,,,,,,,,,,,,,,,,,,,,,,,,,,,,,,
,,,,,V3_096,35,M,2025-01-30_16h13.02.411,jersey_experiment_5_v3,2023.2.2,Win32,84.74576271,,,,,,,,,,,,,,,,308.0969,309.6409,309.6409,310.9203,return,0.2357,,100,,,,,,FBP-RB-91.png,0.45,1.2,60,0.75,0,1,1,59,1,,,,,,,,,,,,,,,,,,,,,,,,,,,,,,,,,,,,,,,,
,,,,,V3_096,35,M,2025-01-30_16h13.02.411,jersey_experiment_5_v3,2023.2.2,Win32,84.74576271,,,,,,,,,,,,,,,,310.9204,312.47,312.47,313.9558,return,0.212,,74.47916667,,,,,,FBP-PT-81.png,0.4,1.2,23,0.75,0,2,2,22,1,,,,,,,,,,,,,,,,,,,,,,,,,,,,,,,,,,,,,,,,
,,,,,V3_096,35,M,2025-01-30_16h13.02.411,jersey_experiment_5_v3,2023.2.2,Win32,84.74576271,,,,,,,,,,,,,,,,313.956,315.2497,315.2497,316.5584,return,0.2266,,99.609375,,,,,,FBP-OG-71.png,0.43,1.2,34,0.5,0,3,3,33,1,,,,,,,,,,,,,,,,,,,,,,,,,,,,,,,,,,,,,,,,
,,,,,V3_096,35,M,2025-01-30_16h13.02.411,jersey_experiment_5_v3,2023.2.2,Win32,84.74576271,,,,,,,,,,,,,,,,316.5586,318.112,318.1121,319.5708,return,0.165,,24.86979167,,,,,,FBP-PT-91.png,0.37,1.2,27,0.75,0,4,4,26,1,,,,,,,,,,,,,,,,,,,,,,,,,,,,,,,,,,,,,,,,
,,,,,V3_096,35,M,2025-01-30_16h13.02.411,jersey_experiment_5_v3,2023.2.2,Win32,84.74576271,,,,,,,,,,,,,,,,319.571,320.8648,320.8649,322.2703,return,0.1905,,99.73958333,,,,,,FBP-OG-71.png,0.45,1.2,35,0.5,0,5,5,34,1,,,,,,,,,,,,,,,,,,,,,,,,,,,,,,,,,,,,,,,,
,,,,,V3_096,35,M,2025-01-30_16h13.02.411,jersey_experiment_5_v3,2023.2.2,Win32,84.74576271,,,,,,,,,,,,,,,,322.2706,323.5645,323.5645,325.1327,return,0.1887,,74.609375,,,,,,FBP-OG-91.png,0.4,1.2,43,0.5,0,6,6,42,1,,,,,,,,,,,,,,,,,,,,,,,,,,,,,,,,,,,,,,,,
,,,,,V3_096,35,M,2025-01-30_16h13.02.411,jersey_experiment_5_v3,2023.2.2,Win32,84.74576271,,,,,,,,,,,,,,,,325.1328,326.4391,326.4391,328.6384,return,0.2356,,99.34895833,,,,,,FBP-OG-81.png,0.43,1.2,39,0.5,0,7,7,38,1,,,,,,,,,,,,,,,,,,,,,,,,,,,,,,,,,,,,,,,,
,,,,,V3_096,35,M,2025-01-30_16h13.02.411,jersey_experiment_5_v3,2023.2.2,Win32,84.74576271,,,,,,,,,,,,,,,,328.6386,330.183,330.183,332.1918,return,0.2123,,75,,,,,,FBP-YG-18.png,0.43,1.2,9,0.75,0,8,8,8,1,,,,,,,,,,,,,,,,,,,,,,,,,,,,,,,,,,,,,,,,
,,,,,V3_096,35,M,2025-01-30_16h13.02.411,jersey_experiment_5_v3,2023.2.2,Win32,84.74576271,,,,,,,,,,,,,,,,332.192,333.5008,333.5008,334.9447,return,0.2206,,24.609375,,,,,,FBP-OG-71.png,0.35,1.2,31,0.5,0,9,9,30,1,,,,,,,,,,,,,,,,,,,,,,,,,,,,,,,,,,,,,,,,
,,,,,V3_096,35,M,2025-01-30_16h13.02.411,jersey_experiment_5_v3,2023.2.2,Win32,84.74576271,,,,,,,,,,,,,,,,334.945,336.489,336.489,338.1833,return,0.2266,,99.86979167,,,,,,FBP-PT-71.png,0.45,1.2,20,0.75,0,10,10,19,1,,,,,,,,,,,,,,,,,,,,,,,,,,,,,,,,,,,,,,,,
,,,,,V3_096,35,M,2025-01-30_16h13.02.411,jersey_experiment_5_v3,2023.2.2,Win32,84.74576271,,,,,,,,,,,,,,,,338.1834,339.4774,339.4774,341.9953,return,0.2272,,24.86979167,,,,,,FBP-OG-81.png,0.35,1.2,36,0.5,0,11,11,35,1,,,,,,,,,,,,,,,,,,,,,,,,,,,,,,,,,,,,,,,,
,,,,,V3_096,35,M,2025-01-30_16h13.02.411,jersey_experiment_5_v3,2023.2.2,Win32,84.74576271,,,,,,,,,,,,,,,,341.9954,343.5485,343.5485,344.7725,return,0.2276,,100,,,,,,FBP-YG-19.png,0.45,1.2,15,0.75,0,12,12,14,1,,,,,,,,,,,,,,,,,,,,,,,,,,,,,,,,,,,,,,,,
,,,,,V3_096,35,M,2025-01-30_16h13.02.411,jersey_experiment_5_v3,2023.2.2,Win32,84.74576271,,,,,,,,,,,,,,,,344.7726,346.3182,346.3182,348.8191,return,0.1797,,24.47916667,,,,,,FBP-YG-18.png,0.37,1.2,7,0.75,0,13,13,6,1,,,,,,,,,,,,,,,,,,,,,,,,,,,,,,,,,,,,,,,,
,,,,,V3_096,35,M,2025-01-30_16h13.02.411,jersey_experiment_5_v3,2023.2.2,Win32,84.74576271,,,,,,,,,,,,,,,,348.8192,350.3654,350.3654,351.3367,return,0.1885,,24.73958333,,,,,,FBP-PT-91.png,0.35,1.2,26,0.75,0,14,14,25,1,,,,,,,,,,,,,,,,,,,,,,,,,,,,,,,,,,,,,,,,
,,,,,V3_096,35,M,2025-01-30_16h13.02.411,jersey_experiment_5_v3,2023.2.2,Win32,84.74576271,,,,,,,,,,,,,,,,351.3368,352.8896,352.8896,354.7656,return,0.1916,,99.609375,,,,,,FBP-YG-17.png,0.45,1.2,5,0.75,0,15,15,4,1,,,,,,,,,,,,,,,,,,,,,,,,,,,,,,,,,,,,,,,,
,,,,,V3_096,35,M,2025-01-30_16h13.02.411,jersey_experiment_5_v3,2023.2.2,Win32,84.74576271,,,,,,,,,,,,,,,,354.7658,356.3101,356.3101,357.2898,return,0.2591,,99.609375,,,,,,FBP-PT-81.png,0.43,1.2,24,0.75,0,16,16,23,1,,,,,,,,,,,,,,,,,,,,,,,,,,,,,,,,,,,,,,,,
,,,,,V3_096,35,M,2025-01-30_16h13.02.411,jersey_experiment_5_v3,2023.2.2,Win32,84.74576271,,,,,,,,,,,,,,,,357.29,358.8366,358.8366,360.1366,return,0.203,,75.13020833,,,,,,FBP-YG-19.png,0.37,1.2,12,0.75,0,17,17,11,1,,,,,,,,,,,,,,,,,,,,,,,,,,,,,,,,,,,,,,,,
,,,,,V3_096,35,M,2025-01-30_16h13.02.411,jersey_experiment_5_v3,2023.2.2,Win32,84.74576271,,,,,,,,,,,,,,,,360.1367,361.4398,361.4398,363.1574,return,0.1875,,75.13020833,,,,,,FBP-OG-71.png,0.37,1.2,32,0.5,0,18,18,31,1,,,,,,,,,,,,,,,,,,,,,,,,,,,,,,,,,,,,,,,,
,,,,,V3_096,35,M,2025-01-30_16h13.02.411,jersey_experiment_5_v3,2023.2.2,Win32,84.74576271,,,,,,,,,,,,,,,,363.1576,364.7018,364.7019,368.7578,return,0.1179,,1.041666667,,,,,,FBP-RB-81.png,0.35,1.2,51,0.75,0,19,19,50,1,,,,,,,,,,,,,,,,,,,,,,,,,,,,,,,,,,,,,,,,
,,,,,V3_096,35,M,2025-01-30_16h13.02.411,jersey_experiment_5_v3,2023.2.2,Win32,84.74576271,,,,,,,,,,,,,,,,368.7579,370.0516,370.0516,371.7847,return,0.1802,,74.86979167,,,,,,FBP-OG-71.png,0.4,1.2,33,0.5,0,20,20,32,1,,,,,,,,,,,,,,,,,,,,,,,,,,,,,,,,,,,,,,,,
,,,,,V3_096,35,M,2025-01-30_16h13.02.411,jersey_experiment_5_v3,2023.2.2,Win32,84.74576271,,,,,,,,,,,,,,,,371.7848,373.3373,373.3373,374.2839,return,0.2048,,75,,,,,,FBP-PT-71.png,0.4,1.2,18,0.75,0,21,21,17,1,,,,,,,,,,,,,,,,,,,,,,,,,,,,,,,,,,,,,,,,
,,,,,V3_096,35,M,2025-01-30_16h13.02.411,jersey_experiment_5_v3,2023.2.2,Win32,84.74576271,,,,,,,,,,,,,,,,374.2841,375.8403,375.8403,377.1496,return,0.1799,,24.609375,,,,,,FBP-YG-19.png,0.35,1.2,11,0.75,0,22,22,10,1,,,,,,,,,,,,,,,,,,,,,,,,,,,,,,,,,,,,,,,,
,,,,,V3_096,35,M,2025-01-30_16h13.02.411,jersey_experiment_5_v3,2023.2.2,Win32,84.74576271,,,,,,,,,,,,,,,,377.1497,378.7024,378.7026,380.1144,return,0.1885,,100,,,,,,FBP-PT-81.png,0.45,1.2,25,0.75,0,23,23,24,1,,,,,,,,,,,,,,,,,,,,,,,,,,,,,,,,,,,,,,,,
,,,,,V3_096,35,M,2025-01-30_16h13.02.411,jersey_experiment_5_v3,2023.2.2,Win32,84.74576271,,,,,,,,,,,,,,,,380.1146,381.4083,381.4083,382.17,return,0.1737,,100,,,,,,FBP-OG-91.png,0.43,1.2,44,0.5,0,24,24,43,1,,,,,,,,,,,,,,,,,,,,,,,,,,,,,,,,,,,,,,,,
,,,,,V3_096,35,M,2025-01-30_16h13.02.411,jersey_experiment_5_v3,2023.2.2,Win32,84.74576271,,,,,,,,,,,,,,,,382.1701,383.7231,383.7231,384.649,return,0.1728,,74.609375,,,,,,FBP-YG-17.png,0.4,1.2,3,0.75,0,25,25,2,1,,,,,,,,,,,,,,,,,,,,,,,,,,,,,,,,,,,,,,,,
,,,,,V3_096,35,M,2025-01-30_16h13.02.411,jersey_experiment_5_v3,2023.2.2,Win32,84.74576271,,,,,,,,,,,,,,,,384.6493,386.1934,386.1934,386.8759,return,0.2207,,74.609375,,,,,,FBP-YG-18.png,0.4,1.2,8,0.75,0,26,26,7,1,,,,,,,,,,,,,,,,,,,,,,,,,,,,,,,,,,,,,,,,
,,,,,V3_096,35,M,2025-01-30_16h13.02.411,jersey_experiment_5_v3,2023.2.2,Win32,84.74576271,,,,,,,,,,,,,,,,386.876,388.429,388.429,389.4324,return,0.1565,,100,,,,,,FBP-YG-18.png,0.45,1.2,10,0.75,0,27,27,9,1,,,,,,,,,,,,,,,,,,,,,,,,,,,,,,,,,,,,,,,,
,,,,,V3_096,35,M,2025-01-30_16h13.02.411,jersey_experiment_5_v3,2023.2.2,Win32,84.74576271,,,,,,,,,,,,,,,,389.4325,390.985,390.985,391.8325,return,0.1885,,100,,,,,,FBP-RB-81.png,0.45,1.2,55,0.75,0,28,28,54,1,,,,,,,,,,,,,,,,,,,,,,,,,,,,,,,,,,,,,,,,
,,,,,V3_096,35,M,2025-01-30_16h13.02.411,jersey_experiment_5_v3,2023.2.2,Win32,84.74576271,,,,,,,,,,,,,,,,391.8326,393.3788,393.3789,394.2324,return,0.2029,,100,,,,,,FBP-PT-91.png,0.45,1.2,30,0.75,0,29,29,29,1,,,,,,,,,,,,,,,,,,,,,,,,,,,,,,,,,,,,,,,,
,,,,,V3_096,35,M,2025-01-30_16h13.02.411,jersey_experiment_5_v3,2023.2.2,Win32,84.74576271,,,,,,,,,,,,,,,,394.2326,395.7788,395.7789,396.4297,return,0.2123,,100,,,,,,FBP-RB-91.png,0.4,1.2,58,0.75,0,30,30,57,1,,,,,,,,,,,,,,,,,,,,,,,,,,,,,,,,,,,,,,,,
,,,,,V3_096,35,M,2025-01-30_16h13.02.411,jersey_experiment_5_v3,2023.2.2,Win32,84.74576271,,,,,,,,,,,,,,,,396.4297,397.9823,397.9823,400.0062,return,0.1974,,49.86979167,,,,,,FBP-YG-17.png,0.35,1.2,1,0.75,0,31,31,0,1,,,,,,,,,,,,,,,,,,,,,,,,,,,,,,,,,,,,,,,,
,,,,,V3_096,35,M,2025-01-30_16h13.02.411,jersey_experiment_5_v3,2023.2.2,Win32,84.74576271,,,,,,,,,,,,,,,,400.0063,401.5591,401.5591,402.7506,return,0.2036,,74.609375,,,,,,FBP-YG-19.png,0.43,1.2,14,0.75,0,32,32,13,1,,,,,,,,,,,,,,,,,,,,,,,,,,,,,,,,,,,,,,,,
,,,,,V3_096,35,M,2025-01-30_16h13.02.411,jersey_experiment_5_v3,2023.2.2,Win32,84.74576271,,,,,,,,,,,,,,,,402.7508,404.2969,404.2969,407.497,return,0.1962,,49.73958333,,,,,,FBP-RB-81.png,0.4,1.2,53,0.75,0,33,33,52,1,,,,,,,,,,,,,,,,,,,,,,,,,,,,,,,,,,,,,,,,
,,,,,V3_096,35,M,2025-01-30_16h13.02.411,jersey_experiment_5_v3,2023.2.2,Win32,84.74576271,,,,,,,,,,,,,,,,407.4973,409.0416,409.0417,409.833,return,0.2355,,49.73958333,,,,,,FBP-YG-19.png,0.4,1.2,13,0.75,0,34,34,12,1,,,,,,,,,,,,,,,,,,,,,,,,,,,,,,,,,,,,,,,,
,,,,,V3_096,35,M,2025-01-30_16h13.02.411,jersey_experiment_5_v3,2023.2.2,Win32,84.74576271,,,,,,,,,,,,,,,,409.8332,411.386,411.3861,413.2684,return,0.2121,,99.609375,,,,,,FBP-PT-91.png,0.43,1.2,29,0.75,0,35,35,28,1,,,,,,,,,,,,,,,,,,,,,,,,,,,,,,,,,,,,,,,,
,,,,,V3_096,35,M,2025-01-30_16h13.02.411,jersey_experiment_5_v3,2023.2.2,Win32,84.74576271,,,,,,,,,,,,,,,,413.2686,414.8213,414.8213,416.242,return,0.2442,,50.26041667,,,,,,FBP-RB-91.png,0.37,1.2,57,0.75,0,36,36,56,1,,,,,,,,,,,,,,,,,,,,,,,,,,,,,,,,,,,,,,,,
,,,,,V3_096,35,M,2025-01-30_16h13.02.411,jersey_experiment_5_v3,2023.2.2,Win32,84.74576271,,,,,,,,,,,,,,,,416.2422,417.7862,417.7862,419.0805,return,0.1651,,74.86979167,,,,,,FBP-YG-17.png,0.43,1.2,4,0.75,0,37,37,3,1,,,,,,,,,,,,,,,,,,,,,,,,,,,,,,,,,,,,,,,,
,,,,,V3_096,35,M,2025-01-30_16h13.02.411,jersey_experiment_5_v3,2023.2.2,Win32,84.74576271,,,,,,,,,,,,,,,,419.0806,420.6269,420.627,421.7717,return,0.1736,,99.73958333,,,,,,FBP-RB-71.png,0.45,1.2,50,0.75,0,38,38,49,1,,,,,,,,,,,,,,,,,,,,,,,,,,,,,,,,,,,,,,,,
,,,,,V3_096,35,M,2025-01-30_16h13.02.411,jersey_experiment_5_v3,2023.2.2,Win32,84.74576271,,,,,,,,,,,,,,,,421.7719,423.3158,423.3159,424.6335,return,0.2034,,99.609375,,,,,,FBP-RB-71.png,0.43,1.2,49,0.75,0,39,39,48,1,,,,,,,,,,,,,,,,,,,,,,,,,,,,,,,,,,,,,,,,
,,,,,V3_096,35,M,2025-01-30_16h13.02.411,jersey_experiment_5_v3,2023.2.2,Win32,84.74576271,,,,,,,,,,,,,,,,424.6337,426.1801,426.1801,428.6569,return,0.909,,75.26041667,,,,,,FBP-PT-91.png,0.4,1.2,28,0.75,0,40,40,27,1,,,,,,,,,,,,,,,,,,,,,,,,,,,,,,,,,,,,,,,,
,,,,,V3_096,35,M,2025-01-30_16h13.02.411,jersey_experiment_5_v3,2023.2.2,Win32,84.74576271,,,,,,,,,,,,,,,,428.6571,429.96,429.96,431.3098,return,0.2,,99.21875,,,,,,FBP-OG-91.png,0.45,1.2,45,0.5,0,41,41,44,1,,,,,,,,,,,,,,,,,,,,,,,,,,,,,,,,,,,,,,,,
,,,,,V3_096,35,M,2025-01-30_16h13.02.411,jersey_experiment_5_v3,2023.2.2,Win32,84.74576271,,,,,,,,,,,,,,,,431.3099,432.8543,432.8543,434.5249,return,0.1886,,24.86979167,,,,,,FBP-YG-17.png,0.37,1.2,2,0.75,0,42,42,1,1,,,,,,,,,,,,,,,,,,,,,,,,,,,,,,,,,,,,,,,,
,,,,,V3_096,35,M,2025-01-30_16h13.02.411,jersey_experiment_5_v3,2023.2.2,Win32,84.74576271,,,,,,,,,,,,,,,,434.5251,436.0746,436.0746,440.3606,return,0.2593,,75,,,,,,FBP-RB-91.png,0.43,1.2,59,0.75,0,43,43,58,1,,,,,,,,,,,,,,,,,,,,,,,,,,,,,,,,,,,,,,,,
,,,,,V3_096,35,M,2025-01-30_16h13.02.411,jersey_experiment_5_v3,2023.2.2,Win32,84.74576271,,,,,,,,,,,,,,,,440.3607,441.6546,441.6547,442.996,return,0.1654,,99.73958333,,,,,,FBP-OG-81.png,0.45,1.2,40,0.5,0,44,44,39,1,,,,,,,,,,,,,,,,,,,,,,,,,,,,,,,,,,,,,,,,
,,,,,V3_096,35,M,2025-01-30_16h13.02.411,jersey_experiment_5_v3,2023.2.2,Win32,84.74576271,,,,,,,,,,,,,,,,442.9962,444.5401,444.5401,447.2311,return,0.2119,,74.47916667,,,,,,FBP-PT-71.png,0.43,1.2,19,0.75,0,45,45,18,1,,,,,,,,,,,,,,,,,,,,,,,,,,,,,,,,,,,,,,,,
,,,,,V3_096,35,M,2025-01-30_16h13.02.411,jersey_experiment_5_v3,2023.2.2,Win32,84.74576271,,,,,,,,,,,,,,,,447.2313,448.7844,448.7844,449.8348,return,0.1564,,75,,,,,,FBP-RB-81.png,0.43,1.2,54,0.75,0,46,46,53,1,,,,,,,,,,,,,,,,,,,,,,,,,,,,,,,,,,,,,,,,
,,,,,V3_096,35,M,2025-01-30_16h13.02.411,jersey_experiment_5_v3,2023.2.2,Win32,84.74576271,,,,,,,,,,,,,,,,449.835,451.3875,451.3875,452.9404,return,0.1885,,25.13020833,,,,,,FBP-YG-18.png,0.35,1.2,6,0.75,0,47,47,5,1,,,,,,,,,,,,,,,,,,,,,,,,,,,,,,,,,,,,,,,,
,,,,,V3_096,35,M,2025-01-30_16h13.02.411,jersey_experiment_5_v3,2023.2.2,Win32,84.74576271,,,,,,,,,,,,,,,,452.9406,454.2431,454.2432,455.5053,return,0.165,,25,,,,,,FBP-OG-91.png,0.37,1.2,42,0.5,0,48,48,41,1,,,,,,,,,,,,,,,,,,,,,,,,,,,,,,,,,,,,,,,,
,,,,,V3_096,35,M,2025-01-30_16h13.02.411,jersey_experiment_5_v3,2023.2.2,Win32,84.74576271,,,,,,,,,,,,,,,,455.5054,457.0582,457.0582,457.8582,return,0.1884,,25,,,,,,FBP-PT-81.png,0.37,1.2,22,0.75,0,49,49,21,1,,,,,,,,,,,,,,,,,,,,,,,,,,,,,,,,,,,,,,,,
,,,,,V3_096,35,M,2025-01-30_16h13.02.411,jersey_experiment_5_v3,2023.2.2,Win32,84.74576271,,,,,,,,,,,,,,,,457.8584,459.4112,459.4113,460.1647,return,0.227,,25,,,,,,FBP-RB-71.png,0.35,1.2,46,0.75,0,50,50,45,1,,,,,,,,,,,,,,,,,,,,,,,,,,,,,,,,,,,,,,,,
,,,,,V3_096,35,M,2025-01-30_16h13.02.411,jersey_experiment_5_v3,2023.2.2,Win32,84.74576271,,,,,,,,,,,,,,,,460.1648,461.7109,461.7109,462.4085,return,0.165,,25,,,,,,FBP-PT-71.png,0.37,1.2,17,0.75,0,51,51,16,1,,,,,,,,,,,,,,,,,,,,,,,,,,,,,,,,,,,,,,,,
,,,,,V3_096,35,M,2025-01-30_16h13.02.411,jersey_experiment_5_v3,2023.2.2,Win32,84.74576271,,,,,,,,,,,,,,,,462.4087,463.9613,463.9613,465.0202,return,0.15,,25,,,,,,FBP-PT-71.png,0.35,1.2,16,0.75,0,52,52,15,1,,,,,,,,,,,,,,,,,,,,,,,,,,,,,,,,,,,,,,,,
,,,,,V3_096,35,M,2025-01-30_16h13.02.411,jersey_experiment_5_v3,2023.2.2,Win32,84.74576271,,,,,,,,,,,,,,,,465.0203,466.3141,466.3141,467.2234,return,0.2266,,25,,,,,,FBP-OG-91.png,0.35,1.2,41,0.5,0,53,53,40,1,,,,,,,,,,,,,,,,,,,,,,,,,,,,,,,,,,,,,,,,
,,,,,V3_096,35,M,2025-01-30_16h13.02.411,jersey_experiment_5_v3,2023.2.2,Win32,84.74576271,,,,,,,,,,,,,,,,467.2235,468.5263,468.5263,470.2524,return,0.2016,,75.52083333,,,,,,FBP-OG-81.png,0.4,1.2,38,0.5,0,54,54,37,1,,,,,,,,,,,,,,,,,,,,,,,,,,,,,,,,,,,,,,,,
,,,,,V3_096,35,M,2025-01-30_16h13.02.411,jersey_experiment_5_v3,2023.2.2,Win32,84.74576271,,,,,,,,,,,,,,,,470.2526,471.7938,471.7938,473.676,return,0.205,,100,,,,,,FBP-RB-71.png,0.4,1.2,48,0.75,0,55,55,47,1,,,,,,,,,,,,,,,,,,,,,,,,,,,,,,,,,,,,,,,,
,,,,,V3_096,35,M,2025-01-30_16h13.02.411,jersey_experiment_5_v3,2023.2.2,Win32,84.74576271,,,,,,,,,,,,,,,,473.6763,475.2237,475.2237,477.0055,return,0.1681,,24.86979167,,,,,,FBP-RB-91.png,0.35,1.2,56,0.75,0,56,56,55,1,,,,,,,,,,,,,,,,,,,,,,,,,,,,,,,,,,,,,,,,
,,,,,V3_096,35,M,2025-01-30_16h13.02.411,jersey_experiment_5_v3,2023.2.2,Win32,84.74576271,,,,,,,,,,,,,,,,477.0058,478.3055,478.3056,480.2593,return,0.1652,,49.73958333,,,,,,FBP-OG-81.png,0.37,1.2,37,0.5,0,57,57,36,1,,,,,,,,,,,,,,,,,,,,,,,,,,,,,,,,,,,,,,,,
,,,,,V3_096,35,M,2025-01-30_16h13.02.411,jersey_experiment_5_v3,2023.2.2,Win32,84.74576271,,,,,,,,,,,,,,,,480.2595,481.8059,481.806,483.177,return,0.2034,,74.73958333,,,,,,FBP-RB-71.png,0.37,1.2,47,0.75,0,58,58,46,1,,,,,,,,,,,,,,,,,,,,,,,,,,,,,,,,,,,,,,,,
,,,,,V3_096,35,M,2025-01-30_16h13.02.411,jersey_experiment_5_v3,2023.2.2,Win32,84.74576271,,,,,,,,,,,,,,,,483.1771,484.7234,484.7235,486.7941,return,0.1803,,49.609375,,,,,,FBP-RB-81.png,0.37,1.2,52,0.75,0,59,59,51,1,,,,,,,,,,,,,,,,,,,,,,,,,,,,,,,,,,,,,,,,
,,,,,V3_096,35,M,2025-01-30_16h13.02.411,jersey_experiment_5_v3,2023.2.2,Win32,84.74576271,,,,,,,,,,,,,,,,,,,,,,,,,,,,,,,,,,,,,,,486.7942,606.787,,,,,,,,,,,,,,,,,,,,,,,,,,,,,,,,,,,,,,
,,,,,V3_096,35,M,2025-01-30_16h13.02.411,jersey_experiment_5_v3,2023.2.2,Win32,84.74576271,,,,,,,,,,,,,,,,,,,,,,,,,,,,,,,,,,,,,,,,,606.787,773.9933,return,167.1881,,,,,,,,,,,,,,,,,,,,,,,,,,,,,,,,,,
,,,,,V3_096,35,M,2025-01-30_16h13.02.411,jersey_experiment_5_v3,2023.2.2,Win32,84.74576271,,,,,,,,,,,,,,,,773.9946,775.2907,775.2907,778.3176,return,0.3211,,50,,,,,,FBP-RB-17.png,0.35,1.2,46,0.5,,,,,,,,,,,,,0,0,0,45,1,,,,,,,,,,,,,,,,,,,,,,,,,,,,
,,,,,V3_096,35,M,2025-01-30_16h13.02.411,jersey_experiment_5_v3,2023.2.2,Win32,84.74576271,,,,,,,,,,,,,,,,778.3178,779.6116,779.6116,781.9031,return,0.8242,,74.73958333,,,,,,FBP-PT-19.png,0.4,1.2,28,0.5,,,,,,,,,,,,,0,1,1,27,1,,,,,,,,,,,,,,,,,,,,,,,,,,,,
,,,,,V3_096,35,M,2025-01-30_16h13.02.411,jersey_experiment_5_v3,2023.2.2,Win32,84.74576271,,,,,,,,,,,,,,,,781.9033,783.2116,783.2116,784.5296,return,0.3533,,75,,,,,,FBP-RB-18.png,0.4,1.2,53,0.5,,,,,,,,,,,,,0,2,2,52,1,,,,,,,,,,,,,,,,,,,,,,,,,,,,
,,,,,V3_096,35,M,2025-01-30_16h13.02.411,jersey_experiment_5_v3,2023.2.2,Win32,84.74576271,,,,,,,,,,,,,,,,784.5298,785.8235,785.8235,787.229,return,0.263,,99.86979167,,,,,,FBP-YG-81.png,0.45,1.2,10,0.5,,,,,,,,,,,,,0,3,3,9,1,,,,,,,,,,,,,,,,,,,,,,,,,,,,
,,,,,V3_096,35,M,2025-01-30_16h13.02.411,jersey_experiment_5_v3,2023.2.2,Win32,84.74576271,,,,,,,,,,,,,,,,787.2292,788.5232,788.5233,789.3773,return,0.2509,,99.86979167,,,,,,FBP-PT-17.png,0.45,1.2,20,0.5,,,,,,,,,,,,,0,4,4,19,1,,,,,,,,,,,,,,,,,,,,,,,,,,,,
,,,,,V3_096,35,M,2025-01-30_16h13.02.411,jersey_experiment_5_v3,2023.2.2,Win32,84.74576271,,,,,,,,,,,,,,,,789.3775,790.6709,790.671,791.4005,return,0.2505,,99.86979167,,,,,,FBP-YG-71.png,0.45,1.2,5,0.5,,,,,,,,,,,,,0,5,5,4,1,,,,,,,,,,,,,,,,,,,,,,,,,,,,
,,,,,V3_096,35,M,2025-01-30_16h13.02.411,jersey_experiment_5_v3,2023.2.2,Win32,84.74576271,,,,,,,,,,,,,,,,791.4006,792.7031,792.7031,795.0712,return,0.1884,,24.73958333,,,,,,FBP-PT-17.png,0.35,1.2,16,0.5,,,,,,,,,,,,,0,6,6,15,1,,,,,,,,,,,,,,,,,,,,,,,,,,,,
,,,,,V3_096,35,M,2025-01-30_16h13.02.411,jersey_experiment_5_v3,2023.2.2,Win32,84.74576271,,,,,,,,,,,,,,,,795.0714,796.3741,796.3741,797.2764,return,0.2016,,24.73958333,,,,,,FBP-YG-91.png,0.37,1.2,12,0.5,,,,,,,,,,,,,0,7,7,11,1,,,,,,,,,,,,,,,,,,,,,,,,,,,,
,,,,,V3_096,35,M,2025-01-30_16h13.02.411,jersey_experiment_5_v3,2023.2.2,Win32,84.74576271,,,,,,,,,,,,,,,,797.2767,798.5765,798.5765,799.9975,return,0.1886,,74.47916667,,,,,,FBP-PT-18.png,0.4,1.2,23,0.5,,,,,,,,,,,,,0,8,8,22,1,,,,,,,,,,,,,,,,,,,,,,,,,,,,
,,,,,V3_096,35,M,2025-01-30_16h13.02.411,jersey_experiment_5_v3,2023.2.2,Win32,84.74576271,,,,,,,,,,,,,,,,799.9977,801.5418,801.5419,803.3388,return,0.2119,,74.609375,,,,,,FBP-OG-19.png,0.43,1.2,44,0.75,,,,,,,,,,,,,0,9,9,43,1,,,,,,,,,,,,,,,,,,,,,,,,,,,,
,,,,,V3_096,35,M,2025-01-30_16h13.02.411,jersey_experiment_5_v3,2023.2.2,Win32,84.74576271,,,,,,,,,,,,,,,,803.339,804.6473,804.6473,806.6571,return,0.2444,,25,,,,,,FBP-YG-81.png,0.37,1.2,7,0.5,,,,,,,,,,,,,0,10,10,6,1,,,,,,,,,,,,,,,,,,,,,,,,,,,,
,,,,,V3_096,35,M,2025-01-30_16h13.02.411,jersey_experiment_5_v3,2023.2.2,Win32,84.74576271,,,,,,,,,,,,,,,,806.6573,807.9508,807.9508,811.8182,return,0.266,,2.34375,,,,,,FBP-PT-19.png,0.35,1.2,26,0.5,,,,,,,,,,,,,0,11,11,25,1,,,,,,,,,,,,,,,,,,,,,,,,,,,,
,,,,,V3_096,35,M,2025-01-30_16h13.02.411,jersey_experiment_5_v3,2023.2.2,Win32,84.74576271,,,,,,,,,,,,,,,,811.8184,813.3628,813.3628,814.9071,return,0.1562,,100,,,,,,FBP-OG-18.png,0.4,1.2,38,0.75,,,,,,,,,,,,,0,12,12,37,1,,,,,,,,,,,,,,,,,,,,,,,,,,,,
,,,,,V3_096,35,M,2025-01-30_16h13.02.411,jersey_experiment_5_v3,2023.2.2,Win32,84.74576271,,,,,,,,,,,,,,,,814.9073,816.2013,816.2014,818.5778,return,1.1678,,50.13020833,,,,,,FBP-RB-17.png,0.37,1.2,47,0.5,,,,,,,,,,,,,0,13,13,46,1,,,,,,,,,,,,,,,,,,,,,,,,,,,,
,,,,,V3_096,35,M,2025-01-30_16h13.02.411,jersey_experiment_5_v3,2023.2.2,Win32,84.74576271,,,,,,,,,,,,,,,,818.5779,820.1243,820.1243,821.2838,return,0.1797,,50.13020833,,,,,,FBP-OG-19.png,0.35,1.2,41,0.75,,,,,,,,,,,,,0,14,14,40,1,,,,,,,,,,,,,,,,,,,,,,,,,,,,
,,,,,V3_096,35,M,2025-01-30_16h13.02.411,jersey_experiment_5_v3,2023.2.2,Win32,84.74576271,,,,,,,,,,,,,,,,821.2839,822.578,822.578,823.8488,return,0.1798,,50.13020833,,,,,,FBP-YG-71.png,0.35,1.2,1,0.5,,,,,,,,,,,,,0,15,15,0,1,,,,,,,,,,,,,,,,,,,,,,,,,,,,
,,,,,V3_096,35,M,2025-01-30_16h13.02.411,jersey_experiment_5_v3,2023.2.2,Win32,84.74576271,,,,,,,,,,,,,,,,823.8489,825.402,825.4021,826.4137,return,0.1327,,99.609375,,,,,,FBP-OG-17.png,0.45,1.2,35,0.75,,,,,,,,,,,,,0,16,16,34,1,,,,,,,,,,,,,,,,,,,,,,,,,,,,
,,,,,V3_096,35,M,2025-01-30_16h13.02.411,jersey_experiment_5_v3,2023.2.2,Win32,84.74576271,,,,,,,,,,,,,,,,826.4139,827.7075,827.7075,829.0488,return,0.1564,,74.47916667,,,,,,FBP-PT-17.png,0.4,1.2,18,0.5,,,,,,,,,,,,,0,17,17,17,1,,,,,,,,,,,,,,,,,,,,,,,,,,,,
,,,,,V3_096,35,M,2025-01-30_16h13.02.411,jersey_experiment_5_v3,2023.2.2,Win32,84.74576271,,,,,,,,,,,,,,,,829.049,830.3426,830.3426,831.9663,return,0.1796,,24.86979167,,,,,,FBP-RB-18.png,0.35,1.2,51,0.5,,,,,,,,,,,,,0,18,18,50,1,,,,,,,,,,,,,,,,,,,,,,,,,,,,
,,,,,V3_096,35,M,2025-01-30_16h13.02.411,jersey_experiment_5_v3,2023.2.2,Win32,84.74576271,,,,,,,,,,,,,,,,831.9663,833.2608,833.2608,834.1394,return,0.173,,24.47916667,,,,,,FBP-RB-19.png,0.37,1.2,57,0.5,,,,,,,,,,,,,0,19,19,56,1,,,,,,,,,,,,,,,,,,,,,,,,,,,,
,,,,,V3_096,35,M,2025-01-30_16h13.02.411,jersey_experiment_5_v3,2023.2.2,Win32,84.74576271,,,,,,,,,,,,,,,,834.1396,835.4342,835.4344,836.7521,return,0.1499,,100,,,,,,FBP-PT-18.png,0.45,1.2,25,0.5,,,,,,,,,,,,,0,20,20,24,1,,,,,,,,,,,,,,,,,,,,,,,,,,,,
,,,,,V3_096,35,M,2025-01-30_16h13.02.411,jersey_experiment_5_v3,2023.2.2,Win32,84.74576271,,,,,,,,,,,,,,,,836.7522,838.059,838.0591,844.6259,return,0.965,,0.520833333,,,,,,FBP-YG-91.png,0.35,1.2,11,0.5,,,,,,,,,,,,,0,21,21,10,1,,,,,,,,,,,,,,,,,,,,,,,,,,,,
,,,,,V3_096,35,M,2025-01-30_16h13.02.411,jersey_experiment_5_v3,2023.2.2,Win32,84.74576271,,,,,,,,,,,,,,,,844.6261,846.1772,846.1772,847.9287,return,0.1884,,25,,,,,,FBP-OG-17.png,0.35,1.2,31,0.75,,,,,,,,,,,,,0,22,22,30,1,,,,,,,,,,,,,,,,,,,,,,,,,,,,
,,,,,V3_096,35,M,2025-01-30_16h13.02.411,jersey_experiment_5_v3,2023.2.2,Win32,84.74576271,,,,,,,,,,,,,,,,847.9289,849.2377,849.2377,850.3291,return,0.1738,,25.26041667,,,,,,FBP-RB-19.png,0.35,1.2,56,0.5,,,,,,,,,,,,,0,23,23,55,1,,,,,,,,,,,,,,,,,,,,,,,,,,,,
,,,,,V3_096,35,M,2025-01-30_16h13.02.411,jersey_experiment_5_v3,2023.2.2,Win32,84.74576271,,,,,,,,,,,,,,,,850.3293,851.6228,851.6228,852.8147,return,0.1414,,100,,,,,,FBP-RB-17.png,0.43,1.2,49,0.5,,,,,,,,,,,,,0,24,24,48,1,,,,,,,,,,,,,,,,,,,,,,,,,,,,
,,,,,V3_096,35,M,2025-01-30_16h13.02.411,jersey_experiment_5_v3,2023.2.2,Win32,84.74576271,,,,,,,,,,,,,,,,852.8148,854.1171,854.1171,854.894,return,0.1888,,100,,,,,,FBP-PT-18.png,0.43,1.2,24,0.5,,,,,,,,,,,,,0,25,25,23,1,,,,,,,,,,,,,,,,,,,,,,,,,,,,
,,,,,V3_096,35,M,2025-01-30_16h13.02.411,jersey_experiment_5_v3,2023.2.2,Win32,84.74576271,,,,,,,,,,,,,,,,854.8941,856.188,856.188,857.0115,return,0.1731,,100,,,,,,FBP-YG-81.png,0.4,1.2,8,0.5,,,,,,,,,,,,,0,26,26,7,1,,,,,,,,,,,,,,,,,,,,,,,,,,,,
,,,,,V3_096,35,M,2025-01-30_16h13.02.411,jersey_experiment_5_v3,2023.2.2,Win32,84.74576271,,,,,,,,,,,,,,,,857.0117,858.3203,858.3203,859.1997,return,0.1734,,100,,,,,,FBP-YG-71.png,0.4,1.2,3,0.5,,,,,,,,,,,,,0,27,27,2,1,,,,,,,,,,,,,,,,,,,,,,,,,,,,
,,,,,V3_096,35,M,2025-01-30_16h13.02.411,jersey_experiment_5_v3,2023.2.2,Win32,84.74576271,,,,,,,,,,,,,,,,859.1998,860.4938,860.4938,861.2384,return,0.2033,,100,,,,,,FBP-YG-91.png,0.43,1.2,14,0.5,,,,,,,,,,,,,0,28,28,13,1,,,,,,,,,,,,,,,,,,,,,,,,,,,,
,,,,,V3_096,35,M,2025-01-30_16h13.02.411,jersey_experiment_5_v3,2023.2.2,Win32,84.74576271,,,,,,,,,,,,,,,,861.2386,862.7849,862.785,863.403,return,0.2033,,100,,,,,,FBP-OG-18.png,0.43,1.2,39,0.75,,,,,,,,,,,,,0,29,29,38,1,,,,,,,,,,,,,,,,,,,,,,,,,,,,
,,,,,V3_096,35,M,2025-01-30_16h13.02.411,jersey_experiment_5_v3,2023.2.2,Win32,84.74576271,,,,,,,,,,,,,,,,863.4031,864.956,864.9561,866.9328,return,0.1885,,49.609375,,,,,,FBP-OG-17.png,0.37,1.2,32,0.75,,,,,,,,,,,,,0,30,30,31,1,,,,,,,,,,,,,,,,,,,,,,,,,,,,
,,,,,V3_096,35,M,2025-01-30_16h13.02.411,jersey_experiment_5_v3,2023.2.2,Win32,84.74576271,,,,,,,,,,,,,,,,866.9329,868.2268,868.2268,869.4356,return,0.1738,,99.34895833,,,,,,FBP-RB-19.png,0.4,1.2,58,0.5,,,,,,,,,,,,,0,31,31,57,1,,,,,,,,,,,,,,,,,,,,,,,,,,,,
,,,,,V3_096,35,M,2025-01-30_16h13.02.411,jersey_experiment_5_v3,2023.2.2,Win32,84.74576271,,,,,,,,,,,,,,,,869.4358,870.7381,870.7381,871.7795,return,0.2501,,98.95833333,,,,,,FBP-PT-19.png,0.45,1.2,30,0.5,,,,,,,,,,,,,0,32,32,29,1,,,,,,,,,,,,,,,,,,,,,,,,,,,,
,,,,,V3_096,35,M,2025-01-30_16h13.02.411,jersey_experiment_5_v3,2023.2.2,Win32,84.74576271,,,,,,,,,,,,,,,,871.7797,873.074,873.074,877.4832,return,0.1268,,50.390625,,,,,,FBP-RB-18.png,0.37,1.2,52,0.5,,,,,,,,,,,,,0,33,33,51,1,,,,,,,,,,,,,,,,,,,,,,,,,,,,
,,,,,V3_096,35,M,2025-01-30_16h13.02.411,jersey_experiment_5_v3,2023.2.2,Win32,84.74576271,,,,,,,,,,,,,,,,877.4833,878.7919,878.7919,880.1798,return,0.2263,,99.86979167,,,,,,FBP-RB-17.png,0.4,1.2,48,0.5,,,,,,,,,,,,,0,34,34,47,1,,,,,,,,,,,,,,,,,,,,,,,,,,,,
,,,,,V3_096,35,M,2025-01-30_16h13.02.411,jersey_experiment_5_v3,2023.2.2,Win32,84.74576271,,,,,,,,,,,,,,,,880.18,881.4743,881.4743,884.4006,return,0.1649,,49.73958333,,,,,,FBP-YG-81.png,0.35,1.2,6,0.5,,,,,,,,,,,,,0,35,35,5,1,,,,,,,,,,,,,,,,,,,,,,,,,,,,
,,,,,V3_096,35,M,2025-01-30_16h13.02.411,jersey_experiment_5_v3,2023.2.2,Win32,84.74576271,,,,,,,,,,,,,,,,884.4007,885.6947,885.6948,887.0507,return,0.2031,,100,,,,,,FBP-YG-91.png,0.4,1.2,13,0.5,,,,,,,,,,,,,0,36,36,12,1,,,,,,,,,,,,,,,,,,,,,,,,,,,,
,,,,,V3_096,35,M,2025-01-30_16h13.02.411,jersey_experiment_5_v3,2023.2.2,Win32,84.74576271,,,,,,,,,,,,,,,,887.0508,888.5977,888.5977,889.5924,return,0.1652,,98.828125,,,,,,FBP-OG-18.png,0.45,1.2,40,0.75,,,,,,,,,,,,,0,37,37,39,1,,,,,,,,,,,,,,,,,,,,,,,,,,,,
,,,,,V3_096,35,M,2025-01-30_16h13.02.411,jersey_experiment_5_v3,2023.2.2,Win32,84.74576271,,,,,,,,,,,,,,,,889.5926,890.8952,890.8952,891.8832,return,0.212,,99.34895833,,,,,,FBP-PT-17.png,0.43,1.2,19,0.5,,,,,,,,,,,,,0,38,38,18,1,,,,,,,,,,,,,,,,,,,,,,,,,,,,
,,,,,V3_096,35,M,2025-01-30_16h13.02.411,jersey_experiment_5_v3,2023.2.2,Win32,84.74576271,,,,,,,,,,,,,,,,891.8834,893.1924,893.1924,894.1341,return,0.1654,,99.34895833,,,,,,FBP-RB-18.png,0.43,1.2,54,0.5,,,,,,,,,,,,,0,39,39,53,1,,,,,,,,,,,,,,,,,,,,,,,,,,,,
,,,,,V3_096,35,M,2025-01-30_16h13.02.411,jersey_experiment_5_v3,2023.2.2,Win32,84.74576271,,,,,,,,,,,,,,,,894.1343,895.6803,895.6803,896.5274,return,0.167,,99.34895833,,,,,,FBP-OG-17.png,0.43,1.2,34,0.75,,,,,,,,,,,,,0,40,40,33,1,,,,,,,,,,,,,,,,,,,,,,,,,,,,
,,,,,V3_096,35,M,2025-01-30_16h13.02.411,jersey_experiment_5_v3,2023.2.2,Win32,84.74576271,,,,,,,,,,,,,,,,896.5277,897.8279,897.8279,898.6216,return,0.1448,,99.34895833,,,,,,FBP-RB-18.png,0.45,1.2,55,0.5,,,,,,,,,,,,,0,41,41,54,1,,,,,,,,,,,,,,,,,,,,,,,,,,,,
,,,,,V3_096,35,M,2025-01-30_16h13.02.411,jersey_experiment_5_v3,2023.2.2,Win32,84.74576271,,,,,,,,,,,,,,,,898.6218,899.9221,899.9221,903.1545,return,0.1502,,50,,,,,,FBP-YG-71.png,0.37,1.2,2,0.5,,,,,,,,,,,,,0,42,42,1,1,,,,,,,,,,,,,,,,,,,,,,,,,,,,
,,,,,V3_096,35,M,2025-01-30_16h13.02.411,jersey_experiment_5_v3,2023.2.2,Win32,84.74576271,,,,,,,,,,,,,,,,903.1547,904.4486,904.4486,905.6924,return,0.1577,,99.21875,,,,,,FBP-PT-19.png,0.43,1.2,29,0.5,,,,,,,,,,,,,0,43,43,28,1,,,,,,,,,,,,,,,,,,,,,,,,,,,,
,,,,,V3_096,35,M,2025-01-30_16h13.02.411,jersey_experiment_5_v3,2023.2.2,Win32,84.74576271,,,,,,,,,,,,,,,,905.6926,906.9866,906.9866,908.0959,return,0.1971,,99.47916667,,,,,,FBP-RB-19.png,0.45,1.2,60,0.5,,,,,,,,,,,,,0,44,44,59,1,,,,,,,,,,,,,,,,,,,,,,,,,,,,
,,,,,V3_096,35,M,2025-01-30_16h13.02.411,jersey_experiment_5_v3,2023.2.2,Win32,84.74576271,,,,,,,,,,,,,,,,908.096,909.6401,909.6401,910.3697,return,0.1886,,99.73958333,,,,,,FBP-OG-19.png,0.45,1.2,45,0.75,,,,,,,,,,,,,0,45,45,44,1,,,,,,,,,,,,,,,,,,,,,,,,,,,,
,,,,,V3_096,35,M,2025-01-30_16h13.02.411,jersey_experiment_5_v3,2023.2.2,Win32,84.74576271,,,,,,,,,,,,,,,,910.3698,911.6635,911.6635,912.5751,return,0.1906,,99.73958333,,,,,,FBP-RB-19.png,0.43,1.2,59,0.5,,,,,,,,,,,,,0,46,46,58,1,,,,,,,,,,,,,,,,,,,,,,,,,,,,
,,,,,V3_096,35,M,2025-01-30_16h13.02.411,jersey_experiment_5_v3,2023.2.2,Win32,84.74576271,,,,,,,,,,,,,,,,912.5752,913.8757,913.8757,914.6613,return,0.1891,,99.73958333,,,,,,FBP-RB-17.png,0.45,1.2,50,0.5,,,,,,,,,,,,,0,47,47,49,1,,,,,,,,,,,,,,,,,,,,,,,,,,,,
,,,,,V3_096,35,M,2025-01-30_16h13.02.411,jersey_experiment_5_v3,2023.2.2,Win32,84.74576271,,,,,,,,,,,,,,,,914.6614,915.9695,915.9695,920.6811,return,0.1377,,49.73958333,,,,,,FBP-PT-18.png,0.37,1.2,22,0.5,,,,,,,,,,,,,0,48,48,21,1,,,,,,,,,,,,,,,,,,,,,,,,,,,,
,,,,,V3_096,35,M,2025-01-30_16h13.02.411,jersey_experiment_5_v3,2023.2.2,Win32,84.74576271,,,,,,,,,,,,,,,,920.6814,922.2374,922.2374,923.8226,return,0.2141,,24.21875,,,,,,FBP-OG-18.png,0.37,1.2,37,0.75,,,,,,,,,,,,,0,49,49,36,1,,,,,,,,,,,,,,,,,,,,,,,,,,,,
,,,,,V3_096,35,M,2025-01-30_16h13.02.411,jersey_experiment_5_v3,2023.2.2,Win32,84.74576271,,,,,,,,,,,,,,,,923.8228,925.3668,925.3668,926.088,return,0.2268,,24.47916667,,,,,,FBP-OG-18.png,0.35,1.2,36,0.75,,,,,,,,,,,,,0,50,50,35,1,,,,,,,,,,,,,,,,,,,,,,,,,,,,
,,,,,V3_096,35,M,2025-01-30_16h13.02.411,jersey_experiment_5_v3,2023.2.2,Win32,84.74576271,,,,,,,,,,,,,,,,926.0881,927.6344,927.6344,928.3703,return,0.2119,,24.47916667,,,,,,FBP-OG-19.png,0.37,1.2,42,0.75,,,,,,,,,,,,,0,51,51,41,1,,,,,,,,,,,,,,,,,,,,,,,,,,,,
,,,,,V3_096,35,M,2025-01-30_16h13.02.411,jersey_experiment_5_v3,2023.2.2,Win32,84.74576271,,,,,,,,,,,,,,,,928.3704,929.6644,929.6644,931.5556,return,0.1737,,24.609375,,,,,,FBP-PT-17.png,0.37,1.2,17,0.5,,,,,,,,,,,,,0,52,52,16,1,,,,,,,,,,,,,,,,,,,,,,,,,,,,
,,,,,V3_096,35,M,2025-01-30_16h13.02.411,jersey_experiment_5_v3,2023.2.2,Win32,84.74576271,,,,,,,,,,,,,,,,931.5558,933.1082,933.1082,935.4532,return,0.9566,,50.26041667,,,,,,FBP-OG-19.png,0.4,1.2,43,0.75,,,,,,,,,,,,,0,53,53,42,1,,,,,,,,,,,,,,,,,,,,,,,,,,,,
,,,,,V3_096,35,M,2025-01-30_16h13.02.411,jersey_experiment_5_v3,2023.2.2,Win32,84.74576271,,,,,,,,,,,,,,,,935.4534,936.7558,936.7558,938.6348,return,0.2062,,99.21875,,,,,,FBP-YG-81.png,0.43,1.2,9,0.5,,,,,,,,,,,,,0,54,54,8,1,,,,,,,,,,,,,,,,,,,,,,,,,,,,
,,,,,V3_096,35,M,2025-01-30_16h13.02.411,jersey_experiment_5_v3,2023.2.2,Win32,84.74576271,,,,,,,,,,,,,,,,938.6351,939.929,939.929,940.6349,return,0.1828,,99.21875,,,,,,FBP-YG-91.png,0.45,1.2,15,0.5,,,,,,,,,,,,,0,55,55,14,1,,,,,,,,,,,,,,,,,,,,,,,,,,,,
,,,,,V3_096,35,M,2025-01-30_16h13.02.411,jersey_experiment_5_v3,2023.2.2,Win32,84.74576271,,,,,,,,,,,,,,,,940.6351,941.9324,941.9324,943.0351,return,0.1829,,99.21875,,,,,,FBP-YG-71.png,0.43,1.2,4,0.5,,,,,,,,,,,,,0,56,56,3,1,,,,,,,,,,,,,,,,,,,,,,,,,,,,
,,,,,V3_096,35,M,2025-01-30_16h13.02.411,jersey_experiment_5_v3,2023.2.2,Win32,84.74576271,,,,,,,,,,,,,,,,943.0352,944.5826,944.5827,945.5478,return,0.1888,,74.86979167,,,,,,FBP-OG-17.png,0.4,1.2,33,0.75,,,,,,,,,,,,,0,57,57,32,1,,,,,,,,,,,,,,,,,,,,,,,,,,,,
,,,,,V3_096,35,M,2025-01-30_16h13.02.411,jersey_experiment_5_v3,2023.2.2,Win32,84.74576271,,,,,,,,,,,,,,,,945.5479,946.8502,946.8502,947.5705,return,0.188,,74.86979167,,,,,,FBP-PT-19.png,0.37,1.2,27,0.5,,,,,,,,,,,,,0,58,58,26,1,,,,,,,,,,,,,,,,,,,,,,,,,,,,
,,,,,V3_096,35,M,2025-01-30_16h13.02.411,jersey_experiment_5_v3,2023.2.2,Win32,84.74576271,,,,,,,,,,,,,,,,947.5707,948.8629,948.8629,951.3211,return,0.1416,,49.21875,,,,,,FBP-PT-18.png,0.35,1.2,21,0.5,,,,,,,,,,,,,0,59,59,20,1,,,,,,,,,,,,,,,,,,,,,,,,,,,,
,,,,,V3_096,35,M,2025-01-30_16h13.02.411,jersey_experiment_5_v3,2023.2.2,Win32,84.74576271,,,,,,,,,,,,,,,,951.3222,952.6148,952.6149,954.1827,return,0.0941,,24.609375,,,,,,FBP-YG-18.png,0.35,1.2,6,0.5,,,,,,,,,,,,,,,,,,0,0,0,5,1,,,,,,,,,,,,,,,,,,,,,,,
,,,,,V3_096,35,M,2025-01-30_16h13.02.411,jersey_experiment_5_v3,2023.2.2,Win32,84.74576271,,,,,,,,,,,,,,,,954.1829,955.4858,955.4859,956.8891,return,0.1328,,100,,,,,,FBP-RB-81.png,0.43,1.2,54,0.5,,,,,,,,,,,,,,,,,,0,1,1,53,1,,,,,,,,,,,,,,,,,,,,,,,
,,,,,V3_096,35,M,2025-01-30_16h13.02.411,jersey_experiment_5_v3,2023.2.2,Win32,84.74576271,,,,,,,,,,,,,,,,956.8893,958.1918,958.1918,958.8655,return,0.1414,,100,,,,,,FBP-PT-71.png,0.43,1.2,19,0.5,,,,,,,,,,,,,,,,,,0,2,2,18,1,,,,,,,,,,,,,,,,,,,,,,,
,,,,,V3_096,35,M,2025-01-30_16h13.02.411,jersey_experiment_5_v3,2023.2.2,Win32,84.74576271,,,,,,,,,,,,,,,,958.8658,960.4185,960.4185,961.0392,return,0.197,,100,,,,,,FBP-OG-71.png,0.43,1.2,34,0.75,,,,,,,,,,,,,,,,,,0,3,3,33,1,,,,,,,,,,,,,,,,,,,,,,,
,,,,,V3_096,35,M,2025-01-30_16h13.02.411,jersey_experiment_5_v3,2023.2.2,Win32,84.74576271,,,,,,,,,,,,,,,,961.0394,962.3331,962.3333,963.054,return,0.18,,100,,,,,,FBP-RB-91.png,0.45,1.2,60,0.5,,,,,,,,,,,,,,,,,,0,4,4,59,1,,,,,,,,,,,,,,,,,,,,,,,
,,,,,V3_096,35,M,2025-01-30_16h13.02.411,jersey_experiment_5_v3,2023.2.2,Win32,84.74576271,,,,,,,,,,,,,,,,963.0541,964.348,964.348,966.8746,return,0.1416,,49.47916667,,,,,,FBP-PT-81.png,0.35,1.2,21,0.5,,,,,,,,,,,,,,,,,,0,5,5,20,1,,,,,,,,,,,,,,,,,,,,,,,
,,,,,V3_096,35,M,2025-01-30_16h13.02.411,jersey_experiment_5_v3,2023.2.2,Win32,84.74576271,,,,,,,,,,,,,,,,966.8748,968.1686,968.1686,969.8831,return,0.1208,,49.609375,,,,,,FBP-RB-71.png,0.37,1.2,47,0.5,,,,,,,,,,,,,,,,,,0,6,6,46,1,,,,,,,,,,,,,,,,,,,,,,,
,,,,,V3_096,35,M,2025-01-30_16h13.02.411,jersey_experiment_5_v3,2023.2.2,Win32,84.74576271,,,,,,,,,,,,,,,,969.8833,971.1806,971.1807,971.9771,return,0.208,,49.609375,,,,,,FBP-YG-17.png,0.37,1.2,2,0.5,,,,,,,,,,,,,,,,,,0,7,7,1,1,,,,,,,,,,,,,,,,,,,,,,,
,,,,,V3_096,35,M,2025-01-30_16h13.02.411,jersey_experiment_5_v3,2023.2.2,Win32,84.74576271,,,,,,,,,,,,,,,,971.9774,973.5251,973.5251,974.4278,return,0.1266,,100,,,,,,FBP-OG-81.png,0.43,1.2,39,0.75,,,,,,,,,,,,,,,,,,0,8,8,38,1,,,,,,,,,,,,,,,,,,,,,,,
,,,,,V3_096,35,M,2025-01-30_16h13.02.411,jersey_experiment_5_v3,2023.2.2,Win32,84.74576271,,,,,,,,,,,,,,,,974.428,975.9806,975.9806,976.6545,return,0.1563,,100,,,,,,FBP-OG-91.png,0.43,1.2,44,0.75,,,,,,,,,,,,,,,,,,0,9,9,43,1,,,,,,,,,,,,,,,,,,,,,,,
,,,,,V3_096,35,M,2025-01-30_16h13.02.411,jersey_experiment_5_v3,2023.2.2,Win32,84.74576271,,,,,,,,,,,,,,,,976.6546,977.957,977.957,978.6398,return,0.1503,,100,,,,,,FBP-RB-91.png,0.43,1.2,59,0.5,,,,,,,,,,,,,,,,,,0,10,10,58,1,,,,,,,,,,,,,,,,,,,,,,,
,,,,,V3_096,35,M,2025-01-30_16h13.02.411,jersey_experiment_5_v3,2023.2.2,Win32,84.74576271,,,,,,,,,,,,,,,,978.64,979.9487,979.9487,982.5894,return,0.1573,,50.390625,,,,,,FBP-YG-19.png,0.37,1.2,12,0.5,,,,,,,,,,,,,,,,,,0,11,11,11,1,,,,,,,,,,,,,,,,,,,,,,,
,,,,,V3_096,35,M,2025-01-30_16h13.02.411,jersey_experiment_5_v3,2023.2.2,Win32,84.74576271,,,,,,,,,,,,,,,,982.5897,983.8862,983.8862,985.7373,return,0.1415,,75,,,,,,FBP-YG-17.png,0.4,1.2,3,0.5,,,,,,,,,,,,,,,,,,0,12,12,2,1,,,,,,,,,,,,,,,,,,,,,,,
,,,,,V3_096,35,M,2025-01-30_16h13.02.411,jersey_experiment_5_v3,2023.2.2,Win32,84.74576271,,,,,,,,,,,,,,,,985.7375,987.04,987.04,988.0432,return,0.1801,,75,,,,,,FBP-PT-71.png,0.4,1.2,18,0.5,,,,,,,,,,,,,,,,,,0,13,13,17,1,,,,,,,,,,,,,,,,,,,,,,,
,,,,,V3_096,35,M,2025-01-30_16h13.02.411,jersey_experiment_5_v3,2023.2.2,Win32,84.74576271,,,,,,,,,,,,,,,,988.0433,989.3372,989.3372,990.7492,return,0.1416,,99.86979167,,,,,,FBP-PT-91.png,0.45,1.2,30,0.5,,,,,,,,,,,,,,,,,,0,14,14,29,1,,,,,,,,,,,,,,,,,,,,,,,
,,,,,V3_096,35,M,2025-01-30_16h13.02.411,jersey_experiment_5_v3,2023.2.2,Win32,84.74576271,,,,,,,,,,,,,,,,990.7494,992.0433,992.0433,992.7964,return,0.1649,,99.86979167,,,,,,FBP-RB-81.png,0.45,1.2,55,0.5,,,,,,,,,,,,,,,,,,0,15,15,54,1,,,,,,,,,,,,,,,,,,,,,,,
,,,,,V3_096,35,M,2025-01-30_16h13.02.411,jersey_experiment_5_v3,2023.2.2,Win32,84.74576271,,,,,,,,,,,,,,,,992.7966,994.0992,994.0993,995.2434,return,0.1413,,74.609375,,,,,,FBP-PT-71.png,0.37,1.2,17,0.5,,,,,,,,,,,,,,,,,,0,16,16,16,1,,,,,,,,,,,,,,,,,,,,,,,
,,,,,V3_096,35,M,2025-01-30_16h13.02.411,jersey_experiment_5_v3,2023.2.2,Win32,84.74576271,,,,,,,,,,,,,,,,995.2435,996.5462,996.5462,997.8488,return,0.1261,,74.609375,,,,,,FBP-PT-81.png,0.43,1.2,24,0.5,,,,,,,,,,,,,,,,,,0,17,17,23,1,,,,,,,,,,,,,,,,,,,,,,,
,,,,,V3_096,35,M,2025-01-30_16h13.02.411,jersey_experiment_5_v3,2023.2.2,Win32,84.74576271,,,,,,,,,,,,,,,,997.849,999.1494,999.1494,999.8372,return,0.1574,,74.609375,,,,,,FBP-YG-18.png,0.4,1.2,8,0.5,,,,,,,,,,,,,,,,,,0,18,18,7,1,,,,,,,,,,,,,,,,,,,,,,,
,,,,,V3_096,35,M,2025-01-30_16h13.02.411,jersey_experiment_5_v3,2023.2.2,Win32,84.74576271,,,,,,,,,,,,,,,,999.8374,1001.3935,1001.3935,1002.7025,return,0.1329,,50,,,,,,FBP-OG-91.png,0.37,1.2,42,0.75,,,,,,,,,,,,,,,,,,0,19,19,41,1,,,,,,,,,,,,,,,,,,,,,,,
,,,,,V3_096,35,M,2025-01-30_16h13.02.411,jersey_experiment_5_v3,2023.2.2,Win32,84.74576271,,,,,,,,,,,,,,,,1002.7027,1003.9966,1003.9966,1005.355,return,0.1797,,99.21875,,,,,,FBP-PT-71.png,0.45,1.2,20,0.5,,,,,,,,,,,,,,,,,,0,20,20,19,1,,,,,,,,,,,,,,,,,,,,,,,
,,,,,V3_096,35,M,2025-01-30_16h13.02.411,jersey_experiment_5_v3,2023.2.2,Win32,84.74576271,,,,,,,,,,,,,,,,1005.3553,1006.6492,1006.6492,1007.4322,return,0.2507,,99.21875,,,,,,FBP-YG-18.png,0.45,1.2,10,0.5,,,,,,,,,,,,,,,,,,0,21,21,9,1,,,,,,,,,,,,,,,,,,,,,,,
,,,,,V3_096,35,M,2025-01-30_16h13.02.411,jersey_experiment_5_v3,2023.2.2,Win32,84.74576271,,,,,,,,,,,,,,,,1007.4323,1008.9851,1008.9851,1011.4376,return,0.1816,,24.47916667,,,,,,FBP-OG-91.png,0.35,1.2,41,0.75,,,,,,,,,,,,,,,,,,0,22,22,40,1,,,,,,,,,,,,,,,,,,,,,,,
,,,,,V3_096,35,M,2025-01-30_16h13.02.411,jersey_experiment_5_v3,2023.2.2,Win32,84.74576271,,,,,,,,,,,,,,,,1011.4379,1012.9854,1012.9854,1014.0291,return,0.1175,,100,,,,,,FBP-OG-71.png,0.45,1.2,35,0.75,,,,,,,,,,,,,,,,,,0,23,23,34,1,,,,,,,,,,,,,,,,,,,,,,,
,,,,,V3_096,35,M,2025-01-30_16h13.02.411,jersey_experiment_5_v3,2023.2.2,Win32,84.74576271,,,,,,,,,,,,,,,,1014.0293,1015.3231,1015.3231,1016.1437,return,0.1802,,100,,,,,,FBP-RB-71.png,0.43,1.2,49,0.5,,,,,,,,,,,,,,,,,,0,24,24,48,1,,,,,,,,,,,,,,,,,,,,,,,
,,,,,V3_096,35,M,2025-01-30_16h13.02.411,jersey_experiment_5_v3,2023.2.2,Win32,84.74576271,,,,,,,,,,,,,,,,1016.1438,1017.4379,1017.4379,1020.6178,return,0.1262,,49.86979167,,,,,,FBP-PT-71.png,0.35,1.2,16,0.5,,,,,,,,,,,,,,,,,,0,25,25,15,1,,,,,,,,,,,,,,,,,,,,,,,
,,,,,V3_096,35,M,2025-01-30_16h13.02.411,jersey_experiment_5_v3,2023.2.2,Win32,84.74576271,,,,,,,,,,,,,,,,1020.6178,1022.1622,1022.1623,1023.5032,return,0.109,,100,,,,,,FBP-OG-81.png,0.45,1.2,40,0.75,,,,,,,,,,,,,,,,,,0,26,26,39,1,,,,,,,,,,,,,,,,,,,,,,,
,,,,,V3_096,35,M,2025-01-30_16h13.02.411,jersey_experiment_5_v3,2023.2.2,Win32,84.74576271,,,,,,,,,,,,,,,,1023.5034,1024.7975,1024.7975,1026.9708,return,0.1261,,50,,,,,,FBP-YG-17.png,0.35,1.2,1,0.5,,,,,,,,,,,,,,,,,,0,27,27,0,1,,,,,,,,,,,,,,,,,,,,,,,
,,,,,V3_096,35,M,2025-01-30_16h13.02.411,jersey_experiment_5_v3,2023.2.2,Win32,84.74576271,,,,,,,,,,,,,,,,1026.971,1028.5152,1028.5153,1029.6768,return,0.165,,100,,,,,,FBP-OG-91.png,0.45,1.2,45,0.75,,,,,,,,,,,,,,,,,,0,28,28,44,1,,,,,,,,,,,,,,,,,,,,,,,
,,,,,V3_096,35,M,2025-01-30_16h13.02.411,jersey_experiment_5_v3,2023.2.2,Win32,84.74576271,,,,,,,,,,,,,,,,1029.6769,1030.9859,1030.9859,1031.6149,return,0.1452,,100,,,,,,FBP-RB-71.png,0.45,1.2,50,0.5,,,,,,,,,,,,,,,,,,0,29,29,49,1,,,,,,,,,,,,,,,,,,,,,,,
,,,,,V3_096,35,M,2025-01-30_16h13.02.411,jersey_experiment_5_v3,2023.2.2,Win32,84.74576271,,,,,,,,,,,,,,,,1031.6151,1032.9153,1032.9153,1034.7359,return,0.5029,,75,,,,,,FBP-PT-81.png,0.4,1.2,23,0.5,,,,,,,,,,,,,,,,,,0,30,30,22,1,,,,,,,,,,,,,,,,,,,,,,,
,,,,,V3_096,35,M,2025-01-30_16h13.02.411,jersey_experiment_5_v3,2023.2.2,Win32,84.74576271,,,,,,,,,,,,,,,,1034.7361,1036.2802,1036.2802,1037.0974,return,0.1963,,75,,,,,,FBP-OG-81.png,0.4,1.2,38,0.75,,,,,,,,,,,,,,,,,,0,31,31,37,1,,,,,,,,,,,,,,,,,,,,,,,
,,,,,V3_096,35,M,2025-01-30_16h13.02.411,jersey_experiment_5_v3,2023.2.2,Win32,84.74576271,,,,,,,,,,,,,,,,1037.0976,1038.6421,1038.6421,1039.2771,return,0.188,,75,,,,,,FBP-OG-71.png,0.4,1.2,33,0.75,,,,,,,,,,,,,,,,,,0,32,32,32,1,,,,,,,,,,,,,,,,,,,,,,,
,,,,,V3_096,35,M,2025-01-30_16h13.02.411,jersey_experiment_5_v3,2023.2.2,Win32,84.74576271,,,,,,,,,,,,,,,,1039.2774,1040.5713,1040.5713,1042.422,return,0.1563,,99.34895833,,,,,,FBP-YG-17.png,0.43,1.2,4,0.5,,,,,,,,,,,,,,,,,,0,33,33,3,1,,,,,,,,,,,,,,,,,,,,,,,
,,,,,V3_096,35,M,2025-01-30_16h13.02.411,jersey_experiment_5_v3,2023.2.2,Win32,84.74576271,,,,,,,,,,,,,,,,1042.4222,1043.7243,1043.7243,1044.9392,return,0.1407,,75.390625,,,,,,FBP-PT-91.png,0.4,1.2,28,0.5,,,,,,,,,,,,,,,,,,0,34,34,27,1,,,,,,,,,,,,,,,,,,,,,,,
,,,,,V3_096,35,M,2025-01-30_16h13.02.411,jersey_experiment_5_v3,2023.2.2,Win32,84.74576271,,,,,,,,,,,,,,,,1044.9393,1046.2335,1046.2335,1047.1129,return,0.165,,74.86979167,,,,,,FBP-RB-91.png,0.37,1.2,57,0.5,,,,,,,,,,,,,,,,,,0,35,35,56,1,,,,,,,,,,,,,,,,,,,,,,,
,,,,,V3_096,35,M,2025-01-30_16h13.02.411,jersey_experiment_5_v3,2023.2.2,Win32,84.74576271,,,,,,,,,,,,,,,,1047.1131,1048.4062,1048.4062,1049.1127,return,0.2119,,74.86979167,,,,,,FBP-RB-71.png,0.35,1.2,46,0.5,,,,,,,,,,,,,,,,,,0,36,36,45,1,,,,,,,,,,,,,,,,,,,,,,,
,,,,,V3_096,35,M,2025-01-30_16h13.02.411,jersey_experiment_5_v3,2023.2.2,Win32,84.74576271,,,,,,,,,,,,,,,,1049.1129,1050.422,1050.422,1052.3515,return,0.1563,,49.34895833,,,,,,FBP-YG-18.png,0.37,1.2,7,0.5,,,,,,,,,,,,,,,,,,0,37,37,6,1,,,,,,,,,,,,,,,,,,,,,,,
,,,,,V3_096,35,M,2025-01-30_16h13.02.411,jersey_experiment_5_v3,2023.2.2,Win32,84.74576271,,,,,,,,,,,,,,,,1052.3516,1053.9044,1053.9045,1055.7956,return,0.1416,,75,,,,,,FBP-OG-71.png,0.37,1.2,32,0.75,,,,,,,,,,,,,,,,,,0,38,38,31,1,,,,,,,,,,,,,,,,,,,,,,,
,,,,,V3_096,35,M,2025-01-30_16h13.02.411,jersey_experiment_5_v3,2023.2.2,Win32,84.74576271,,,,,,,,,,,,,,,,1055.7957,1057.0895,1057.0896,1058.9686,return,0.2171,,100,,,,,,FBP-YG-18.png,0.43,1.2,9,0.5,,,,,,,,,,,,,,,,,,0,39,39,8,1,,,,,,,,,,,,,,,,,,,,,,,
,,,,,V3_096,35,M,2025-01-30_16h13.02.411,jersey_experiment_5_v3,2023.2.2,Win32,84.74576271,,,,,,,,,,,,,,,,1058.9689,1060.5252,1060.5252,1063.3873,return,0.1329,,50.13020833,,,,,,FBP-OG-81.png,0.37,1.2,37,0.75,,,,,,,,,,,,,,,,,,0,40,40,36,1,,,,,,,,,,,,,,,,,,,,,,,
,,,,,V3_096,35,M,2025-01-30_16h13.02.411,jersey_experiment_5_v3,2023.2.2,Win32,84.74576271,,,,,,,,,,,,,,,,1063.3874,1064.6812,1064.6813,1065.7874,return,0.1647,,99.34895833,,,,,,FBP-RB-91.png,0.4,1.2,58,0.5,,,,,,,,,,,,,,,,,,0,41,41,57,1,,,,,,,,,,,,,,,,,,,,,,,
,,,,,V3_096,35,M,2025-01-30_16h13.02.411,jersey_experiment_5_v3,2023.2.2,Win32,84.74576271,,,,,,,,,,,,,,,,1065.7875,1067.0901,1067.0901,1069.081,return,0.1792,,49.73958333,,,,,,FBP-RB-91.png,0.35,1.2,56,0.5,,,,,,,,,,,,,,,,,,0,42,42,55,1,,,,,,,,,,,,,,,,,,,,,,,
,,,,,V3_096,35,M,2025-01-30_16h13.02.411,jersey_experiment_5_v3,2023.2.2,Win32,84.74576271,,,,,,,,,,,,,,,,1069.0812,1070.6345,1070.6346,1072.7993,return,0.1326,,49.73958333,,,,,,FBP-OG-81.png,0.35,1.2,36,0.75,,,,,,,,,,,,,,,,,,0,43,43,35,1,,,,,,,,,,,,,,,,,,,,,,,
,,,,,V3_096,35,M,2025-01-30_16h13.02.411,jersey_experiment_5_v3,2023.2.2,Win32,84.74576271,,,,,,,,,,,,,,,,1072.7995,1074.1019,1074.1019,1075.2317,return,0.173,,49.73958333,,,,,,FBP-YG-19.png,0.35,1.2,11,0.5,,,,,,,,,,,,,,,,,,0,44,44,10,1,,,,,,,,,,,,,,,,,,,,,,,
,,,,,V3_096,35,M,2025-01-30_16h13.02.411,jersey_experiment_5_v3,2023.2.2,Win32,84.74576271,,,,,,,,,,,,,,,,1075.2318,1076.5253,1076.5253,1077.5848,return,0.1413,,49.73958333,,,,,,FBP-PT-91.png,0.35,1.2,26,0.5,,,,,,,,,,,,,,,,,,0,45,45,25,1,,,,,,,,,,,,,,,,,,,,,,,
,,,,,V3_096,35,M,2025-01-30_16h13.02.411,jersey_experiment_5_v3,2023.2.2,Win32,84.74576271,,,,,,,,,,,,,,,,1077.5849,1078.8936,1078.8936,1080.2584,return,0.0945,,74.86979167,,,,,,FBP-YG-19.png,0.4,1.2,13,0.5,,,,,,,,,,,,,,,,,,0,46,46,12,1,,,,,,,,,,,,,,,,,,,,,,,
,,,,,V3_096,35,M,2025-01-30_16h13.02.411,jersey_experiment_5_v3,2023.2.2,Win32,84.74576271,,,,,,,,,,,,,,,,1080.2586,1081.8115,1081.8115,1082.7292,return,0.1566,,49.34895833,,,,,,FBP-OG-71.png,0.35,1.2,31,0.75,,,,,,,,,,,,,,,,,,0,47,47,30,1,,,,,,,,,,,,,,,,,,,,,,,
,,,,,V3_096,35,M,2025-01-30_16h13.02.411,jersey_experiment_5_v3,2023.2.2,Win32,84.74576271,,,,,,,,,,,,,,,,1082.7293,1084.0229,1084.0229,1085.9293,return,0.1886,,100,,,,,,FBP-YG-17.png,0.45,1.2,5,0.5,,,,,,,,,,,,,,,,,,0,48,48,4,1,,,,,,,,,,,,,,,,,,,,,,,
,,,,,V3_096,35,M,2025-01-30_16h13.02.411,jersey_experiment_5_v3,2023.2.2,Win32,84.74576271,,,,,,,,,,,,,,,,1085.9295,1087.232,1087.232,1089.5464,return,0.1718,,49.73958333,,,,,,FBP-RB-81.png,0.35,1.2,51,0.5,,,,,,,,,,,,,,,,,,0,49,49,50,1,,,,,,,,,,,,,,,,,,,,,,,
,,,,,V3_096,35,M,2025-01-30_16h13.02.411,jersey_experiment_5_v3,2023.2.2,Win32,84.74576271,,,,,,,,,,,,,,,,1089.5466,1090.8467,1090.8467,1091.6471,return,0.186,,49.73958333,,,,,,FBP-RB-81.png,0.37,1.2,52,0.5,,,,,,,,,,,,,,,,,,0,50,50,51,1,,,,,,,,,,,,,,,,,,,,,,,
,,,,,V3_096,35,M,2025-01-30_16h13.02.411,jersey_experiment_5_v3,2023.2.2,Win32,84.74576271,,,,,,,,,,,,,,,,1091.6472,1093.1936,1093.1936,1094.3296,return,0.1181,,75,,,,,,FBP-OG-91.png,0.4,1.2,43,0.75,,,,,,,,,,,,,,,,,,0,51,51,42,1,,,,,,,,,,,,,,,,,,,,,,,
,,,,,V3_096,35,M,2025-01-30_16h13.02.411,jersey_experiment_5_v3,2023.2.2,Win32,84.74576271,,,,,,,,,,,,,,,,1094.3298,1095.6322,1095.6323,1096.362,return,0.1888,,75,,,,,,FBP-RB-71.png,0.4,1.2,48,0.5,,,,,,,,,,,,,,,,,,0,52,52,47,1,,,,,,,,,,,,,,,,,,,,,,,
,,,,,V3_096,35,M,2025-01-30_16h13.02.411,jersey_experiment_5_v3,2023.2.2,Win32,84.74576271,,,,,,,,,,,,,,,,1096.3621,1097.6558,1097.6559,1098.8322,return,0.1733,,99.21875,,,,,,FBP-YG-19.png,0.43,1.2,14,0.5,,,,,,,,,,,,,,,,,,0,53,53,13,1,,,,,,,,,,,,,,,,,,,,,,,
,,,,,V3_096,35,M,2025-01-30_16h13.02.411,jersey_experiment_5_v3,2023.2.2,Win32,84.74576271,,,,,,,,,,,,,,,,1098.8323,1100.1267,1100.1267,1100.871,return,0.1649,,99.21875,,,,,,FBP-PT-81.png,0.45,1.2,25,0.5,,,,,,,,,,,,,,,,,,0,54,54,24,1,,,,,,,,,,,,,,,,,,,,,,,
,,,,,V3_096,35,M,2025-01-30_16h13.02.411,jersey_experiment_5_v3,2023.2.2,Win32,84.74576271,,,,,,,,,,,,,,,,1100.8711,1102.1649,1102.1649,1102.8715,return,0.1565,,99.21875,,,,,,FBP-YG-19.png,0.45,1.2,15,0.5,,,,,,,,,,,,,,,,,,0,55,55,14,1,,,,,,,,,,,,,,,,,,,,,,,
,,,,,V3_096,35,M,2025-01-30_16h13.02.411,jersey_experiment_5_v3,2023.2.2,Win32,84.74576271,,,,,,,,,,,,,,,,1102.8717,1104.1738,1104.1739,1107.5537,return,0.1564,,50.13020833,,,,,,FBP-PT-81.png,0.37,1.2,22,0.5,,,,,,,,,,,,,,,,,,0,56,56,21,1,,,,,,,,,,,,,,,,,,,,,,,
,,,,,V3_096,35,M,2025-01-30_16h13.02.411,jersey_experiment_5_v3,2023.2.2,Win32,84.74576271,,,,,,,,,,,,,,,,1107.5538,1108.8564,1108.8564,1110.4798,return,0.1179,,49.609375,,,,,,FBP-PT-91.png,0.37,1.2,27,0.5,,,,,,,,,,,,,,,,,,0,57,57,26,1,,,,,,,,,,,,,,,,,,,,,,,
,,,,,V3_096,35,M,2025-01-30_16h13.02.411,jersey_experiment_5_v3,2023.2.2,Win32,84.74576271,,,,,,,,,,,,,,,,1110.48,1111.789,1111.789,1114.4009,return,0.1564,,99.47916667,,,,,,FBP-PT-91.png,0.43,1.2,29,0.5,,,,,,,,,,,,,,,,,,0,58,58,28,1,,,,,,,,,,,,,,,,,,,,,,,
,,,,,V3_096,35,M,2025-01-30_16h13.02.411,jersey_experiment_5_v3,2023.2.2,Win32,84.74576271,,,,,,,,,,,,,,,,1114.4011,1115.6949,1115.6949,1116.9741,return,0.1648,,75,,,,,,FBP-RB-81.png,0.4,1.2,53,0.5,,,,,,,,,,,,,,,,,,0,59,59,52,1,,,,,,,,,,,,,,,,,,,,,,,
,,,,,V3_096,35,M,2025-01-30_16h13.02.411,jersey_experiment_5_v3,2023.2.2,Win32,84.74576271,,,,,,,,,,,,,,,,,,,,,,,,,,,,,,,,,,,,,,,,,,,,,,,,,,,,,,,,1116.9742,1124.7307,return,7.7414,,,,,,,,,,,,,,,,,,,
,,,,,V3_096,35,M,2025-01-30_16h13.02.411,jersey_experiment_5_v3,2023.2.2,Win32,84.74576271,,,,,,,,,,,,,,,,,,,,,,,,,,,,,,,,,,,,,,,,,,,,,,,,,,,,,,,,,,,,,1124.7308,1129.0368,1,3.4588,return,0.8386,,,,,,,,,,,,
,,,,,V3_096,35,M,2025-01-30_16h13.02.411,jersey_experiment_5_v3,2023.2.2,Win32,84.74576271,,,,,,,,,,,,,,,,,,,,,,,,,,,,,,,,,,,,,,,,,,,,,,,,,,,,,,,,,,,,,,,,,,,,1129.0368,1187.3741,I noticed that I tended to rate the football players in Red with a Very Husky rating and the other football players in Green with a Slender or Very Slender rating,right,50.3949,,,,,,
,,,,,V3_096,35,M,2025-01-30_16h13.02.411,jersey_experiment_5_v3,2023.2.2,Win32,84.74576271,,,,,,,,,,,,,,,,,,,,,,,,,,,,,,,,,,,,,,,,,,,,,,,,,,,,,,,,,,,,,,,,,,,,,,,,,,1187.3741,1190.1773,return,2.7855,