requirements.started,requirements.stopped,key_resp_3.keys,key_resp_3.rt,key_resp_3.duration,Subject ID,Age,Gender,date,expName,psychopyVersion,OS,frameRate,instructions1.started,instructions1.stopped,key_resp.keys,key_resp.rt,key_resp.duration,example.started,example.stopped,enter_2.keys,enter_2.rt,enter_2.duration,instructions2.started,instructions2.stopped,enter_3.keys,enter_3.rt,enter_3.duration,image.started,image.stopped,slider_2.started,slider_2.stopped,next.keys,next.rt,next.duration,slider.response,trial_block_1.thisRepN,trial_block_1.thisTrialN,trial_block_1.thisN,trial_block_1.thisIndex,trial_block_1.ran,Path,Width,Height,Index,Duration,trial_block_2.thisRepN,trial_block_2.thisTrialN,trial_block_2.thisN,trial_block_2.thisIndex,trial_block_2.ran,rest_break.started,rest_break.stopped,end_break.started,end_break.stopped,key_resp_5.keys,key_resp_5.rt,key_resp_5.duration,trial_block_3.thisRepN,trial_block_3.thisTrialN,trial_block_3.thisN,trial_block_3.thisIndex,trial_block_3.ran,trial_block_4.thisRepN,trial_block_4.thisTrialN,trial_block_4.thisN,trial_block_4.thisIndex,trial_block_4.ran,questions_intro.started,questions_intro.stopped,enter_12.keys,enter_12.rt,enter_12.duration,question2.started,question2.stopped,question_doingbest.response,question_doingbest.rt,enter_15.keys,enter_15.rt,enter_15.duration,pattern.started,pattern.stopped,pattern_2.text,enter_17.keys,enter_17.rt,enter_17.duration,thankyou.started,thankyou.stopped,enter_14.keys,enter_14.rt,enter_14.duration
0,12.0852,return,12.0812,,V3_065,18,Male,2024-11-14_17h43.51.758,jersey_experiment_5_v3,2023.2.2,Win32,84.74576271,,,,,,,,,,,,,,,,,,,,,,,,,,,,,,,,,,,,,,,,,,,,,,,,,,,,,,,,,,,,,,,,,,,,,,,,,,,,,,
,,,,,V3_065,18,Male,2024-11-14_17h43.51.758,jersey_experiment_5_v3,2023.2.2,Win32,84.74576271,12.0853,18.1468,return,6.047,,,,,,,,,,,,,,,,,,,,,,,,,,,,,,,,,,,,,,,,,,,,,,,,,,,,,,,,,,,,,,,,,,,,,,,,,,
,,,,,V3_065,18,Male,2024-11-14_17h43.51.758,jersey_experiment_5_v3,2023.2.2,Win32,84.74576271,,,,,,18.1468,23.0234,return,4.8445,,,,,,,,,,,,,,,,,,,,,,,,,,,,,,,,,,,,,,,,,,,,,,,,,,,,,,,,,,,,,,,,,,,,,
,,,,,V3_065,18,Male,2024-11-14_17h43.51.758,jersey_experiment_5_v3,2023.2.2,Win32,84.74576271,,,,,,,,,,,23.0234,45.9655,return,22.9327,,,,,,,,,,,,,,,,,,,,,,,,,,,,,,,,,,,,,,,,,,,,,,,,,,,,,,,,,,,,,,,,
,,,,,V3_065,18,Male,2024-11-14_17h43.51.758,jersey_experiment_5_v3,2023.2.2,Win32,84.74576271,,,,,,,,,,,,,,,,45.9681,47.2596,47.2597,66.9429,return,7.3781,,81.640625,0,0,0,37,1,FBP-OG-18.png,0.4,1.2,38,0.5,,,,,,,,,,,,,,,,,,,,,,,,,,,,,,,,,,,,,,,,,,,,,
,,,,,V3_065,18,Male,2024-11-14_17h43.51.758,jersey_experiment_5_v3,2023.2.2,Win32,84.74576271,,,,,,,,,,,,,,,,66.9432,68.4957,68.4958,74.3076,return,1.6476,,68.61979167,0,1,1,20,1,FBP-PT-18.png,0.35,1.2,21,0.75,,,,,,,,,,,,,,,,,,,,,,,,,,,,,,,,,,,,,,,,,,,,,
,,,,,V3_065,18,Male,2024-11-14_17h43.51.758,jersey_experiment_5_v3,2023.2.2,Win32,84.74576271,,,,,,,,,,,,,,,,74.3078,75.8607,75.8607,79.3902,return,1.2035,,69.921875,0,2,2,25,1,FBP-PT-19.png,0.35,1.2,26,0.75,,,,,,,,,,,,,,,,,,,,,,,,,,,,,,,,,,,,,,,,,,,,,
,,,,,V3_065,18,Male,2024-11-14_17h43.51.758,jersey_experiment_5_v3,2023.2.2,Win32,84.74576271,,,,,,,,,,,,,,,,79.3904,80.6844,80.6845,85.7433,return,0.836,,82.55208333,0,3,3,42,1,FBP-OG-19.png,0.4,1.2,43,0.5,,,,,,,,,,,,,,,,,,,,,,,,,,,,,,,,,,,,,,,,,,,,,
,,,,,V3_065,18,Male,2024-11-14_17h43.51.758,jersey_experiment_5_v3,2023.2.2,Win32,84.74576271,,,,,,,,,,,,,,,,85.7436,87.2963,87.2964,90.1439,return,0.9065,,81.90104167,0,4,4,21,1,FBP-PT-18.png,0.37,1.2,22,0.75,,,,,,,,,,,,,,,,,,,,,,,,,,,,,,,,,,,,,,,,,,,,,
,,,,,V3_065,18,Male,2024-11-14_17h43.51.758,jersey_experiment_5_v3,2023.2.2,Win32,84.74576271,,,,,,,,,,,,,,,,90.1442,91.6965,91.6966,94.6849,return,0.6499,,85.80729167,0,5,5,13,1,FBP-YG-91.png,0.43,1.2,14,0.75,,,,,,,,,,,,,,,,,,,,,,,,,,,,,,,,,,,,,,,,,,,,,
,,,,,V3_065,18,Male,2024-11-14_17h43.51.758,jersey_experiment_5_v3,2023.2.2,Win32,84.74576271,,,,,,,,,,,,,,,,94.6851,95.9791,95.9792,98.6029,return,0.5464,,82.16145833,0,6,6,36,1,FBP-OG-18.png,0.37,1.2,37,0.5,,,,,,,,,,,,,,,,,,,,,,,,,,,,,,,,,,,,,,,,,,,,,
,,,,,V3_065,18,Male,2024-11-14_17h43.51.758,jersey_experiment_5_v3,2023.2.2,Win32,84.74576271,,,,,,,,,,,,,,,,98.6031,100.1556,100.1557,104.5088,return,1.0519,,70.44270833,0,7,7,52,1,FBP-RB-18.png,0.4,1.2,53,0.75,,,,,,,,,,,,,,,,,,,,,,,,,,,,,,,,,,,,,,,,,,,,,
,,,,,V3_065,18,Male,2024-11-14_17h43.51.758,jersey_experiment_5_v3,2023.2.2,Win32,84.74576271,,,,,,,,,,,,,,,,104.5092,106.0619,106.062,111.3442,return,0.7175,,75.52083333,0,8,8,6,1,FBP-YG-81.png,0.37,1.2,7,0.75,,,,,,,,,,,,,,,,,,,,,,,,,,,,,,,,,,,,,,,,,,,,,
,,,,,V3_065,18,Male,2024-11-14_17h43.51.758,jersey_experiment_5_v3,2023.2.2,Win32,84.74576271,,,,,,,,,,,,,,,,111.3445,112.8973,112.8974,114.6974,return,0.6193,,75,0,9,9,17,1,FBP-PT-17.png,0.4,1.2,18,0.75,,,,,,,,,,,,,,,,,,,,,,,,,,,,,,,,,,,,,,,,,,,,,
,,,,,V3_065,18,Male,2024-11-14_17h43.51.758,jersey_experiment_5_v3,2023.2.2,Win32,84.74576271,,,,,,,,,,,,,,,,114.6976,115.9916,115.9916,118.6741,return,0.6587,,77.60416667,0,10,10,31,1,FBP-OG-17.png,0.37,1.2,32,0.5,,,,,,,,,,,,,,,,,,,,,,,,,,,,,,,,,,,,,,,,,,,,,
,,,,,V3_065,18,Male,2024-11-14_17h43.51.758,jersey_experiment_5_v3,2023.2.2,Win32,84.74576271,,,,,,,,,,,,,,,,118.6745,119.9681,119.9682,122.6035,return,0.6764,,84.375,0,11,11,33,1,FBP-OG-17.png,0.43,1.2,34,0.5,,,,,,,,,,,,,,,,,,,,,,,,,,,,,,,,,,,,,,,,,,,,,
,,,,,V3_065,18,Male,2024-11-14_17h43.51.758,jersey_experiment_5_v3,2023.2.2,Win32,84.74576271,,,,,,,,,,,,,,,,122.6039,124.1564,124.1565,126.3684,return,0.6104,,83.59375,0,12,12,29,1,FBP-PT-19.png,0.45,1.2,30,0.75,,,,,,,,,,,,,,,,,,,,,,,,,,,,,,,,,,,,,,,,,,,,,
,,,,,V3_065,18,Male,2024-11-14_17h43.51.758,jersey_experiment_5_v3,2023.2.2,Win32,84.74576271,,,,,,,,,,,,,,,,126.3686,127.9214,127.9215,132.2274,return,0.5649,,84.89583333,0,13,13,58,1,FBP-RB-19.png,0.43,1.2,59,0.75,,,,,,,,,,,,,,,,,,,,,,,,,,,,,,,,,,,,,,,,,,,,,
,,,,,V3_065,18,Male,2024-11-14_17h43.51.758,jersey_experiment_5_v3,2023.2.2,Win32,84.74576271,,,,,,,,,,,,,,,,132.2277,133.5216,133.5216,138.3336,return,0.6024,,71.61458333,0,14,14,30,1,FBP-OG-17.png,0.35,1.2,31,0.5,,,,,,,,,,,,,,,,,,,,,,,,,,,,,,,,,,,,,,,,,,,,,
,,,,,V3_065,18,Male,2024-11-14_17h43.51.758,jersey_experiment_5_v3,2023.2.2,Win32,84.74576271,,,,,,,,,,,,,,,,138.3339,139.8865,139.8865,142.2749,return,0.6378,,81.11979167,0,15,15,47,1,FBP-RB-17.png,0.4,1.2,48,0.75,,,,,,,,,,,,,,,,,,,,,,,,,,,,,,,,,,,,,,,,,,,,,
,,,,,V3_065,18,Male,2024-11-14_17h43.51.758,jersey_experiment_5_v3,2023.2.2,Win32,84.74576271,,,,,,,,,,,,,,,,142.2751,143.569,143.5691,145.5691,return,0.753,,88.28125,0,16,16,34,1,FBP-OG-17.png,0.45,1.2,35,0.5,,,,,,,,,,,,,,,,,,,,,,,,,,,,,,,,,,,,,,,,,,,,,
,,,,,V3_065,18,Male,2024-11-14_17h43.51.758,jersey_experiment_5_v3,2023.2.2,Win32,84.74576271,,,,,,,,,,,,,,,,145.5696,147.1221,147.1222,148.8163,return,0.625,,91.53645833,0,17,17,24,1,FBP-PT-18.png,0.45,1.2,25,0.75,,,,,,,,,,,,,,,,,,,,,,,,,,,,,,,,,,,,,,,,,,,,,
,,,,,V3_065,18,Male,2024-11-14_17h43.51.758,jersey_experiment_5_v3,2023.2.2,Win32,84.74576271,,,,,,,,,,,,,,,,148.8166,150.3694,150.3694,152.5576,return,0.6508,,80.20833333,0,18,18,51,1,FBP-RB-18.png,0.37,1.2,52,0.75,,,,,,,,,,,,,,,,,,,,,,,,,,,,,,,,,,,,,,,,,,,,,
,,,,,V3_065,18,Male,2024-11-14_17h43.51.758,jersey_experiment_5_v3,2023.2.2,Win32,84.74576271,,,,,,,,,,,,,,,,152.5579,153.8518,153.8519,156.5695,return,0.63,,81.77083333,0,19,19,32,1,FBP-OG-17.png,0.4,1.2,33,0.5,,,,,,,,,,,,,,,,,,,,,,,,,,,,,,,,,,,,,,,,,,,,,
,,,,,V3_065,18,Male,2024-11-14_17h43.51.758,jersey_experiment_5_v3,2023.2.2,Win32,84.74576271,,,,,,,,,,,,,,,,156.5698,158.1227,158.1227,160.0168,return,0.6589,,82.94270833,0,20,20,12,1,FBP-YG-91.png,0.4,1.2,13,0.75,,,,,,,,,,,,,,,,,,,,,,,,,,,,,,,,,,,,,,,,,,,,,
,,,,,V3_065,18,Male,2024-11-14_17h43.51.758,jersey_experiment_5_v3,2023.2.2,Win32,84.74576271,,,,,,,,,,,,,,,,160.0171,161.3108,161.3108,163.1464,return,0.6074,,80.33854167,0,21,21,40,1,FBP-OG-19.png,0.35,1.2,41,0.5,,,,,,,,,,,,,,,,,,,,,,,,,,,,,,,,,,,,,,,,,,,,,
,,,,,V3_065,18,Male,2024-11-14_17h43.51.758,jersey_experiment_5_v3,2023.2.2,Win32,84.74576271,,,,,,,,,,,,,,,,163.1467,164.4405,164.4405,166.2053,return,0.6041,,83.984375,0,22,22,43,1,FBP-OG-19.png,0.43,1.2,44,0.5,,,,,,,,,,,,,,,,,,,,,,,,,,,,,,,,,,,,,,,,,,,,,
,,,,,V3_065,18,Male,2024-11-14_17h43.51.758,jersey_experiment_5_v3,2023.2.2,Win32,84.74576271,,,,,,,,,,,,,,,,166.2056,167.7583,167.7583,170.1112,return,0.5431,,72.00520833,0,23,23,15,1,FBP-PT-17.png,0.35,1.2,16,0.75,,,,,,,,,,,,,,,,,,,,,,,,,,,,,,,,,,,,,,,,,,,,,
,,,,,V3_065,18,Male,2024-11-14_17h43.51.758,jersey_experiment_5_v3,2023.2.2,Win32,84.74576271,,,,,,,,,,,,,,,,170.1114,171.6642,171.6643,174.0761,return,0.5701,,72.91666667,0,24,24,50,1,FBP-RB-18.png,0.35,1.2,51,0.75,,,,,,,,,,,,,,,,,,,,,,,,,,,,,,,,,,,,,,,,,,,,,
,,,,,V3_065,18,Male,2024-11-14_17h43.51.758,jersey_experiment_5_v3,2023.2.2,Win32,84.74576271,,,,,,,,,,,,,,,,174.0764,175.629,175.629,177.4408,return,0.6205,,79.81770833,0,25,25,26,1,FBP-PT-19.png,0.37,1.2,27,0.75,,,,,,,,,,,,,,,,,,,,,,,,,,,,,,,,,,,,,,,,,,,,,
,,,,,V3_065,18,Male,2024-11-14_17h43.51.758,jersey_experiment_5_v3,2023.2.2,Win32,84.74576271,,,,,,,,,,,,,,,,177.4412,178.9939,178.9939,181.0882,return,0.6367,,70.703125,0,26,26,56,1,FBP-RB-19.png,0.37,1.2,57,0.75,,,,,,,,,,,,,,,,,,,,,,,,,,,,,,,,,,,,,,,,,,,,,
,,,,,V3_065,18,Male,2024-11-14_17h43.51.758,jersey_experiment_5_v3,2023.2.2,Win32,84.74576271,,,,,,,,,,,,,,,,181.0886,182.641,182.6411,184.4647,return,0.5651,,86.45833333,0,27,27,23,1,FBP-PT-18.png,0.43,1.2,24,0.75,,,,,,,,,,,,,,,,,,,,,,,,,,,,,,,,,,,,,,,,,,,,,
,,,,,V3_065,18,Male,2024-11-14_17h43.51.758,jersey_experiment_5_v3,2023.2.2,Win32,84.74576271,,,,,,,,,,,,,,,,184.465,186.0178,186.0178,187.6181,return,0.5074,,93.61979167,0,28,28,49,1,FBP-RB-17.png,0.45,1.2,50,0.75,,,,,,,,,,,,,,,,,,,,,,,,,,,,,,,,,,,,,,,,,,,,,
,,,,,V3_065,18,Male,2024-11-14_17h43.51.758,jersey_experiment_5_v3,2023.2.2,Win32,84.74576271,,,,,,,,,,,,,,,,187.6184,188.9119,188.912,190.8298,return,0.5998,,79.81770833,0,29,29,41,1,FBP-OG-19.png,0.37,1.2,42,0.5,,,,,,,,,,,,,,,,,,,,,,,,,,,,,,,,,,,,,,,,,,,,,
,,,,,V3_065,18,Male,2024-11-14_17h43.51.758,jersey_experiment_5_v3,2023.2.2,Win32,84.74576271,,,,,,,,,,,,,,,,190.83,192.3827,192.3828,193.8063,return,0.5322,,79.94791667,0,30,30,7,1,FBP-YG-81.png,0.4,1.2,8,0.75,,,,,,,,,,,,,,,,,,,,,,,,,,,,,,,,,,,,,,,,,,,,,
,,,,,V3_065,18,Male,2024-11-14_17h43.51.758,jersey_experiment_5_v3,2023.2.2,Win32,84.74576271,,,,,,,,,,,,,,,,193.8066,195.3594,195.3594,196.9945,return,0.5286,,82.68229167,0,31,31,22,1,FBP-PT-18.png,0.4,1.2,23,0.75,,,,,,,,,,,,,,,,,,,,,,,,,,,,,,,,,,,,,,,,,,,,,
,,,,,V3_065,18,Male,2024-11-14_17h43.51.758,jersey_experiment_5_v3,2023.2.2,Win32,84.74576271,,,,,,,,,,,,,,,,196.9947,198.2887,198.2888,199.9006,return,0.5686,,86.84895833,0,32,32,38,1,FBP-OG-18.png,0.43,1.2,39,0.5,,,,,,,,,,,,,,,,,,,,,,,,,,,,,,,,,,,,,,,,,,,,,
,,,,,V3_065,18,Male,2024-11-14_17h43.51.758,jersey_experiment_5_v3,2023.2.2,Win32,84.74576271,,,,,,,,,,,,,,,,199.901,201.4535,201.4536,203.0654,return,0.5494,,88.671875,0,33,33,48,1,FBP-RB-17.png,0.43,1.2,49,0.75,,,,,,,,,,,,,,,,,,,,,,,,,,,,,,,,,,,,,,,,,,,,,
,,,,,V3_065,18,Male,2024-11-14_17h43.51.758,jersey_experiment_5_v3,2023.2.2,Win32,84.74576271,,,,,,,,,,,,,,,,203.0657,204.6184,204.6185,206.3126,return,0.6077,,79.296875,0,34,34,1,1,FBP-YG-71.png,0.37,1.2,2,0.75,,,,,,,,,,,,,,,,,,,,,,,,,,,,,,,,,,,,,,,,,,,,,
,,,,,V3_065,18,Male,2024-11-14_17h43.51.758,jersey_experiment_5_v3,2023.2.2,Win32,84.74576271,,,,,,,,,,,,,,,,206.3129,207.8658,207.8659,212.6423,return,0.4559,,65.88541667,0,35,35,0,1,FBP-YG-71.png,0.35,1.2,1,0.75,,,,,,,,,,,,,,,,,,,,,,,,,,,,,,,,,,,,,,,,,,,,,
,,,,,V3_065,18,Male,2024-11-14_17h43.51.758,jersey_experiment_5_v3,2023.2.2,Win32,84.74576271,,,,,,,,,,,,,,,,212.6427,214.1953,214.1953,216.4424,return,0.5235,,87.63020833,0,36,36,8,1,FBP-YG-81.png,0.43,1.2,9,0.75,,,,,,,,,,,,,,,,,,,,,,,,,,,,,,,,,,,,,,,,,,,,,
,,,,,V3_065,18,Male,2024-11-14_17h43.51.758,jersey_experiment_5_v3,2023.2.2,Win32,84.74576271,,,,,,,,,,,,,,,,216.4427,217.9955,217.9955,223.1838,return,0.5768,,77.08333333,0,37,37,57,1,FBP-RB-19.png,0.4,1.2,58,0.75,,,,,,,,,,,,,,,,,,,,,,,,,,,,,,,,,,,,,,,,,,,,,
,,,,,V3_065,18,Male,2024-11-14_17h43.51.758,jersey_experiment_5_v3,2023.2.2,Win32,84.74576271,,,,,,,,,,,,,,,,223.1841,224.737,224.737,226.3607,return,0.6444,,90.36458333,0,38,38,3,1,FBP-YG-71.png,0.43,1.2,4,0.75,,,,,,,,,,,,,,,,,,,,,,,,,,,,,,,,,,,,,,,,,,,,,
,,,,,V3_065,18,Male,2024-11-14_17h43.51.758,jersey_experiment_5_v3,2023.2.2,Win32,84.74576271,,,,,,,,,,,,,,,,226.3609,227.9134,227.9134,234.7373,return,0.8003,,88.15104167,0,39,39,53,1,FBP-RB-18.png,0.43,1.2,54,0.75,,,,,,,,,,,,,,,,,,,,,,,,,,,,,,,,,,,,,,,,,,,,,
,,,,,V3_065,18,Male,2024-11-14_17h43.51.758,jersey_experiment_5_v3,2023.2.2,Win32,84.74576271,,,,,,,,,,,,,,,,234.7377,236.2902,236.2903,237.9609,return,0.6676,,84.63541667,0,40,40,9,1,FBP-YG-81.png,0.45,1.2,10,0.75,,,,,,,,,,,,,,,,,,,,,,,,,,,,,,,,,,,,,,,,,,,,,
,,,,,V3_065,18,Male,2024-11-14_17h43.51.758,jersey_experiment_5_v3,2023.2.2,Win32,84.74576271,,,,,,,,,,,,,,,,237.961,239.5023,239.5024,241.408,return,0.6723,,82.16145833,0,41,41,16,1,FBP-PT-17.png,0.37,1.2,17,0.75,,,,,,,,,,,,,,,,,,,,,,,,,,,,,,,,,,,,,,,,,,,,,
,,,,,V3_065,18,Male,2024-11-14_17h43.51.758,jersey_experiment_5_v3,2023.2.2,Win32,84.74576271,,,,,,,,,,,,,,,,241.4084,242.7022,242.7022,244.8199,return,0.672,,91.14583333,0,42,42,39,1,FBP-OG-18.png,0.45,1.2,40,0.5,,,,,,,,,,,,,,,,,,,,,,,,,,,,,,,,,,,,,,,,,,,,,
,,,,,V3_065,18,Male,2024-11-14_17h43.51.758,jersey_experiment_5_v3,2023.2.2,Win32,84.74576271,,,,,,,,,,,,,,,,244.8202,246.3729,246.373,247.867,return,0.5948,,80.59895833,0,43,43,11,1,FBP-YG-91.png,0.37,1.2,12,0.75,,,,,,,,,,,,,,,,,,,,,,,,,,,,,,,,,,,,,,,,,,,,,
,,,,,V3_065,18,Male,2024-11-14_17h43.51.758,jersey_experiment_5_v3,2023.2.2,Win32,84.74576271,,,,,,,,,,,,,,,,247.8673,249.4202,249.4202,253.491,return,2.9415,,87.109375,0,44,44,28,1,FBP-PT-19.png,0.43,1.2,29,0.75,,,,,,,,,,,,,,,,,,,,,,,,,,,,,,,,,,,,,,,,,,,,,
,,,,,V3_065,18,Male,2024-11-14_17h43.51.758,jersey_experiment_5_v3,2023.2.2,Win32,84.74576271,,,,,,,,,,,,,,,,253.4914,255.0438,255.0439,259.8089,return,2.4454,,70.18229167,0,45,45,46,1,FBP-RB-17.png,0.37,1.2,47,0.75,,,,,,,,,,,,,,,,,,,,,,,,,,,,,,,,,,,,,,,,,,,,,
,,,,,V3_065,18,Male,2024-11-14_17h43.51.758,jersey_experiment_5_v3,2023.2.2,Win32,84.74576271,,,,,,,,,,,,,,,,259.8094,261.362,261.3621,263.5618,return,0.7237,,88.93229167,0,46,46,4,1,FBP-YG-71.png,0.45,1.2,5,0.75,,,,,,,,,,,,,,,,,,,,,,,,,,,,,,,,,,,,,,,,,,,,,
,,,,,V3_065,18,Male,2024-11-14_17h43.51.758,jersey_experiment_5_v3,2023.2.2,Win32,84.74576271,,,,,,,,,,,,,,,,263.5621,264.8562,264.8562,266.6914,return,0.5418,,86.84895833,0,47,47,44,1,FBP-OG-19.png,0.45,1.2,45,0.5,,,,,,,,,,,,,,,,,,,,,,,,,,,,,,,,,,,,,,,,,,,,,
,,,,,V3_065,18,Male,2024-11-14_17h43.51.758,jersey_experiment_5_v3,2023.2.2,Win32,84.74576271,,,,,,,,,,,,,,,,266.6918,268.2444,268.2444,269.8914,return,0.6355,,65.49479167,0,48,48,45,1,FBP-RB-17.png,0.35,1.2,46,0.75,,,,,,,,,,,,,,,,,,,,,,,,,,,,,,,,,,,,,,,,,,,,,
,,,,,V3_065,18,Male,2024-11-14_17h43.51.758,jersey_experiment_5_v3,2023.2.2,Win32,84.74576271,,,,,,,,,,,,,,,,269.8917,271.4445,271.4445,279.6801,return,6.0961,,86.06770833,0,49,49,18,1,FBP-PT-17.png,0.43,1.2,19,0.75,,,,,,,,,,,,,,,,,,,,,,,,,,,,,,,,,,,,,,,,,,,,,
,,,,,V3_065,18,Male,2024-11-14_17h43.51.758,jersey_experiment_5_v3,2023.2.2,Win32,84.74576271,,,,,,,,,,,,,,,,279.6804,281.2332,281.2333,282.9862,return,1.0885,,59.63541667,0,50,50,10,1,FBP-YG-91.png,0.35,1.2,11,0.75,,,,,,,,,,,,,,,,,,,,,,,,,,,,,,,,,,,,,,,,,,,,,
,,,,,V3_065,18,Male,2024-11-14_17h43.51.758,jersey_experiment_5_v3,2023.2.2,Win32,84.74576271,,,,,,,,,,,,,,,,282.9865,284.5393,284.5393,289.5157,return,0.6261,,90.49479167,0,51,51,59,1,FBP-RB-19.png,0.45,1.2,60,0.75,,,,,,,,,,,,,,,,,,,,,,,,,,,,,,,,,,,,,,,,,,,,,
,,,,,V3_065,18,Male,2024-11-14_17h43.51.758,jersey_experiment_5_v3,2023.2.2,Win32,84.74576271,,,,,,,,,,,,,,,,289.516,291.0688,291.0688,293.4336,return,1.4421,,93.75,0,52,52,19,1,FBP-PT-17.png,0.45,1.2,20,0.75,,,,,,,,,,,,,,,,,,,,,,,,,,,,,,,,,,,,,,,,,,,,,
,,,,,V3_065,18,Male,2024-11-14_17h43.51.758,jersey_experiment_5_v3,2023.2.2,Win32,84.74576271,,,,,,,,,,,,,,,,293.4339,294.9866,294.9867,308.4341,return,0.646,,29.03645833,0,53,53,5,1,FBP-YG-81.png,0.35,1.2,6,0.75,,,,,,,,,,,,,,,,,,,,,,,,,,,,,,,,,,,,,,,,,,,,,
,,,,,V3_065,18,Male,2024-11-14_17h43.51.758,jersey_experiment_5_v3,2023.2.2,Win32,84.74576271,,,,,,,,,,,,,,,,308.4346,309.9872,309.9873,312.7873,return,0.7399,,76.30208333,0,54,54,14,1,FBP-YG-91.png,0.45,1.2,15,0.75,,,,,,,,,,,,,,,,,,,,,,,,,,,,,,,,,,,,,,,,,,,,,
,,,,,V3_065,18,Male,2024-11-14_17h43.51.758,jersey_experiment_5_v3,2023.2.2,Win32,84.74576271,,,,,,,,,,,,,,,,312.7875,314.3403,314.3403,316.0109,return,0.5247,,34.50520833,0,55,55,55,1,FBP-RB-19.png,0.35,1.2,56,0.75,,,,,,,,,,,,,,,,,,,,,,,,,,,,,,,,,,,,,,,,,,,,,
,,,,,V3_065,18,Male,2024-11-14_17h43.51.758,jersey_experiment_5_v3,2023.2.2,Win32,84.74576271,,,,,,,,,,,,,,,,316.0112,317.5641,317.5641,319.4699,return,0.5213,,80.078125,0,56,56,54,1,FBP-RB-18.png,0.45,1.2,55,0.75,,,,,,,,,,,,,,,,,,,,,,,,,,,,,,,,,,,,,,,,,,,,,
,,,,,V3_065,18,Male,2024-11-14_17h43.51.758,jersey_experiment_5_v3,2023.2.2,Win32,84.74576271,,,,,,,,,,,,,,,,319.4701,321.0228,321.0229,323.1877,return,0.5891,,49.08854167,0,57,57,2,1,FBP-YG-71.png,0.4,1.2,3,0.75,,,,,,,,,,,,,,,,,,,,,,,,,,,,,,,,,,,,,,,,,,,,,
,,,,,V3_065,18,Male,2024-11-14_17h43.51.758,jersey_experiment_5_v3,2023.2.2,Win32,84.74576271,,,,,,,,,,,,,,,,323.188,324.7406,324.7407,326.6585,return,0.8603,,66.015625,0,58,58,27,1,FBP-PT-19.png,0.4,1.2,28,0.75,,,,,,,,,,,,,,,,,,,,,,,,,,,,,,,,,,,,,,,,,,,,,
,,,,,V3_065,18,Male,2024-11-14_17h43.51.758,jersey_experiment_5_v3,2023.2.2,Win32,84.74576271,,,,,,,,,,,,,,,,326.6588,327.9527,327.9527,330.0468,return,0.8849,,32.16145833,0,59,59,35,1,FBP-OG-18.png,0.35,1.2,36,0.5,,,,,,,,,,,,,,,,,,,,,,,,,,,,,,,,,,,,,,,,,,,,,
,,,,,V3_065,18,Male,2024-11-14_17h43.51.758,jersey_experiment_5_v3,2023.2.2,Win32,84.74576271,,,,,,,,,,,,,,,,330.0486,331.6,331.6001,334.3294,return,0.632,,76.30208333,,,,,,FBP-YG-19.png,0.45,1.2,15,0.75,0,0,0,14,1,,,,,,,,,,,,,,,,,,,,,,,,,,,,,,,,,,,,,,,,
,,,,,V3_065,18,Male,2024-11-14_17h43.51.758,jersey_experiment_5_v3,2023.2.2,Win32,84.74576271,,,,,,,,,,,,,,,,334.3296,335.8822,335.8823,337.3059,return,0.596,,83.72395833,,,,,,FBP-PT-71.png,0.45,1.2,20,0.75,0,1,1,19,1,,,,,,,,,,,,,,,,,,,,,,,,,,,,,,,,,,,,,,,,
,,,,,V3_065,18,Male,2024-11-14_17h43.51.758,jersey_experiment_5_v3,2023.2.2,Win32,84.74576271,,,,,,,,,,,,,,,,337.3062,338.8591,338.8591,341.4824,return,0.4764,,38.93229167,,,,,,FBP-PT-81.png,0.37,1.2,22,0.75,0,2,2,21,1,,,,,,,,,,,,,,,,,,,,,,,,,,,,,,,,,,,,,,,,
,,,,,V3_065,18,Male,2024-11-14_17h43.51.758,jersey_experiment_5_v3,2023.2.2,Win32,84.74576271,,,,,,,,,,,,,,,,341.4829,343.0356,343.0356,346.6592,return,0.6125,,68.75,,,,,,FBP-RB-71.png,0.45,1.2,50,0.75,0,3,3,49,1,,,,,,,,,,,,,,,,,,,,,,,,,,,,,,,,,,,,,,,,
,,,,,V3_065,18,Male,2024-11-14_17h43.51.758,jersey_experiment_5_v3,2023.2.2,Win32,84.74576271,,,,,,,,,,,,,,,,346.6596,348.2122,348.2122,349.5181,return,0.6258,,64.71354167,,,,,,FBP-PT-91.png,0.4,1.2,28,0.75,0,4,4,27,1,,,,,,,,,,,,,,,,,,,,,,,,,,,,,,,,,,,,,,,,
,,,,,V3_065,18,Male,2024-11-14_17h43.51.758,jersey_experiment_5_v3,2023.2.2,Win32,84.74576271,,,,,,,,,,,,,,,,349.5185,350.8122,350.8122,352.2358,return,0.4748,,78.125,,,,,,FBP-OG-81.png,0.45,1.2,40,0.5,0,5,5,39,1,,,,,,,,,,,,,,,,,,,,,,,,,,,,,,,,,,,,,,,,
,,,,,V3_065,18,Male,2024-11-14_17h43.51.758,jersey_experiment_5_v3,2023.2.2,Win32,84.74576271,,,,,,,,,,,,,,,,352.2362,353.789,353.7891,355.2593,return,0.5339,,61.328125,,,,,,FBP-YG-17.png,0.43,1.2,4,0.75,0,6,6,3,1,,,,,,,,,,,,,,,,,,,,,,,,,,,,,,,,,,,,,,,,
,,,,,V3_065,18,Male,2024-11-14_17h43.51.758,jersey_experiment_5_v3,2023.2.2,Win32,84.74576271,,,,,,,,,,,,,,,,355.2596,356.8124,356.8125,357.8713,return,0.4963,,62.109375,,,,,,FBP-YG-19.png,0.43,1.2,14,0.75,0,7,7,13,1,,,,,,,,,,,,,,,,,,,,,,,,,,,,,,,,,,,,,,,,
,,,,,V3_065,18,Male,2024-11-14_17h43.51.758,jersey_experiment_5_v3,2023.2.2,Win32,84.74576271,,,,,,,,,,,,,,,,357.8716,359.4245,359.4245,360.4008,return,0.4724,,62.36979167,,,,,,FBP-YG-19.png,0.4,1.2,13,0.75,0,8,8,12,1,,,,,,,,,,,,,,,,,,,,,,,,,,,,,,,,,,,,,,,,
,,,,,V3_065,18,Male,2024-11-14_17h43.51.758,jersey_experiment_5_v3,2023.2.2,Win32,84.74576271,,,,,,,,,,,,,,,,360.401,361.9539,361.9539,363.5067,return,0.4596,,39.453125,,,,,,FBP-RB-91.png,0.37,1.2,57,0.75,0,9,9,56,1,,,,,,,,,,,,,,,,,,,,,,,,,,,,,,,,,,,,,,,,
,,,,,V3_065,18,Male,2024-11-14_17h43.51.758,jersey_experiment_5_v3,2023.2.2,Win32,84.74576271,,,,,,,,,,,,,,,,363.507,365.0598,365.0599,369.8835,return,0.4519,,49.609375,,,,,,FBP-PT-71.png,0.4,1.2,18,0.75,0,10,10,17,1,,,,,,,,,,,,,,,,,,,,,,,,,,,,,,,,,,,,,,,,
,,,,,V3_065,18,Male,2024-11-14_17h43.51.758,jersey_experiment_5_v3,2023.2.2,Win32,84.74576271,,,,,,,,,,,,,,,,369.8839,371.4366,371.4366,375.3308,return,2.9887,,82.421875,,,,,,FBP-RB-91.png,0.45,1.2,60,0.75,0,11,11,59,1,,,,,,,,,,,,,,,,,,,,,,,,,,,,,,,,,,,,,,,,
,,,,,V3_065,18,Male,2024-11-14_17h43.51.758,jersey_experiment_5_v3,2023.2.2,Win32,84.74576271,,,,,,,,,,,,,,,,375.3311,376.8837,376.8838,378.484,return,0.599,,33.33333333,,,,,,FBP-PT-71.png,0.35,1.2,16,0.75,0,12,12,15,1,,,,,,,,,,,,,,,,,,,,,,,,,,,,,,,,,,,,,,,,
,,,,,V3_065,18,Male,2024-11-14_17h43.51.758,jersey_experiment_5_v3,2023.2.2,Win32,84.74576271,,,,,,,,,,,,,,,,378.4842,380.0369,380.0369,382.6722,return,0.5058,,77.47395833,,,,,,FBP-RB-81.png,0.45,1.2,55,0.75,0,13,13,54,1,,,,,,,,,,,,,,,,,,,,,,,,,,,,,,,,,,,,,,,,
,,,,,V3_065,18,Male,2024-11-14_17h43.51.758,jersey_experiment_5_v3,2023.2.2,Win32,84.74576271,,,,,,,,,,,,,,,,382.6725,384.2252,384.2252,385.3546,return,0.4879,,79.81770833,,,,,,FBP-RB-71.png,0.4,1.2,48,0.75,0,14,14,47,1,,,,,,,,,,,,,,,,,,,,,,,,,,,,,,,,,,,,,,,,
,,,,,V3_065,18,Male,2024-11-14_17h43.51.758,jersey_experiment_5_v3,2023.2.2,Win32,84.74576271,,,,,,,,,,,,,,,,385.355,386.8963,386.8963,387.9312,return,0.5122,,85.41666667,,,,,,FBP-PT-91.png,0.45,1.2,30,0.75,0,15,15,29,1,,,,,,,,,,,,,,,,,,,,,,,,,,,,,,,,,,,,,,,,
,,,,,V3_065,18,Male,2024-11-14_17h43.51.758,jersey_experiment_5_v3,2023.2.2,Win32,84.74576271,,,,,,,,,,,,,,,,387.9316,389.4843,389.4843,390.8255,return,0.501,,83.984375,,,,,,FBP-PT-81.png,0.45,1.2,25,0.75,0,16,16,24,1,,,,,,,,,,,,,,,,,,,,,,,,,,,,,,,,,,,,,,,,
,,,,,V3_065,18,Male,2024-11-14_17h43.51.758,jersey_experiment_5_v3,2023.2.2,Win32,84.74576271,,,,,,,,,,,,,,,,390.8258,392.1196,392.1197,393.2608,return,0.5073,,83.984375,,,,,,FBP-OG-81.png,0.43,1.2,39,0.5,0,17,17,38,1,,,,,,,,,,,,,,,,,,,,,,,,,,,,,,,,,,,,,,,,
,,,,,V3_065,18,Male,2024-11-14_17h43.51.758,jersey_experiment_5_v3,2023.2.2,Win32,84.74576271,,,,,,,,,,,,,,,,393.2611,394.8139,394.814,396.508,return,0.5703,,83.984375,,,,,,FBP-YG-17.png,0.4,1.2,3,0.75,0,18,18,2,1,,,,,,,,,,,,,,,,,,,,,,,,,,,,,,,,,,,,,,,,
,,,,,V3_065,18,Male,2024-11-14_17h43.51.758,jersey_experiment_5_v3,2023.2.2,Win32,84.74576271,,,,,,,,,,,,,,,,396.5083,398.0611,398.0611,401.0969,return,1.9021,,31.90104167,,,,,,FBP-PT-71.png,0.37,1.2,17,0.75,0,19,19,16,1,,,,,,,,,,,,,,,,,,,,,,,,,,,,,,,,,,,,,,,,
,,,,,V3_065,18,Male,2024-11-14_17h43.51.758,jersey_experiment_5_v3,2023.2.2,Win32,84.74576271,,,,,,,,,,,,,,,,401.0973,402.6494,402.6495,404.3554,return,0.4702,,34.375,,,,,,FBP-YG-19.png,0.37,1.2,12,0.75,0,20,20,11,1,,,,,,,,,,,,,,,,,,,,,,,,,,,,,,,,,,,,,,,,
,,,,,V3_065,18,Male,2024-11-14_17h43.51.758,jersey_experiment_5_v3,2023.2.2,Win32,84.74576271,,,,,,,,,,,,,,,,404.3556,405.9084,405.9085,407.9792,return,1.6757,,30.59895833,,,,,,FBP-PT-91.png,0.37,1.2,27,0.75,0,21,21,26,1,,,,,,,,,,,,,,,,,,,,,,,,,,,,,,,,,,,,,,,,
,,,,,V3_065,18,Male,2024-11-14_17h43.51.758,jersey_experiment_5_v3,2023.2.2,Win32,84.74576271,,,,,,,,,,,,,,,,407.9795,409.5321,409.5321,410.9086,return,1.0033,,27.734375,,,,,,FBP-RB-91.png,0.35,1.2,56,0.75,0,22,22,55,1,,,,,,,,,,,,,,,,,,,,,,,,,,,,,,,,,,,,,,,,
,,,,,V3_065,18,Male,2024-11-14_17h43.51.758,jersey_experiment_5_v3,2023.2.2,Win32,84.74576271,,,,,,,,,,,,,,,,410.9088,412.4616,412.4618,414.6382,return,0.4004,,64.84375,,,,,,FBP-YG-18.png,0.43,1.2,9,0.75,0,23,23,8,1,,,,,,,,,,,,,,,,,,,,,,,,,,,,,,,,,,,,,,,,
,,,,,V3_065,18,Male,2024-11-14_17h43.51.758,jersey_experiment_5_v3,2023.2.2,Win32,84.74576271,,,,,,,,,,,,,,,,414.6385,416.1912,416.1912,416.6502,return,0.1355,,64.84375,,,,,,FBP-YG-17.png,0.35,1.2,1,0.75,0,24,24,0,1,,,,,,,,,,,,,,,,,,,,,,,,,,,,,,,,,,,,,,,,
,,,,,V3_065,18,Male,2024-11-14_17h43.51.758,jersey_experiment_5_v3,2023.2.2,Win32,84.74576271,,,,,,,,,,,,,,,,416.6506,417.9441,417.9442,418.5912,return,0.1428,,64.84375,,,,,,FBP-OG-71.png,0.4,1.2,33,0.5,0,25,25,32,1,,,,,,,,,,,,,,,,,,,,,,,,,,,,,,,,,,,,,,,,
,,,,,V3_065,18,Male,2024-11-14_17h43.51.758,jersey_experiment_5_v3,2023.2.2,Win32,84.74576271,,,,,,,,,,,,,,,,418.5915,419.8853,419.8854,420.3326,return,0.1347,,64.84375,,,,,,FBP-OG-81.png,0.4,1.2,38,0.5,0,26,26,37,1,,,,,,,,,,,,,,,,,,,,,,,,,,,,,,,,,,,,,,,,
,,,,,V3_065,18,Male,2024-11-14_17h43.51.758,jersey_experiment_5_v3,2023.2.2,Win32,84.74576271,,,,,,,,,,,,,,,,420.3328,421.8854,421.8855,423.5796,return,0.2062,,41.14583333,,,,,,FBP-RB-81.png,0.35,1.2,51,0.75,0,27,27,50,1,,,,,,,,,,,,,,,,,,,,,,,,,,,,,,,,,,,,,,,,
,,,,,V3_065,18,Male,2024-11-14_17h43.51.758,jersey_experiment_5_v3,2023.2.2,Win32,84.74576271,,,,,,,,,,,,,,,,423.5799,425.1329,425.1329,427.3445,return,1.2599,,77.47395833,,,,,,FBP-PT-71.png,0.43,1.2,19,0.75,0,28,28,18,1,,,,,,,,,,,,,,,,,,,,,,,,,,,,,,,,,,,,,,,,
,,,,,V3_065,18,Male,2024-11-14_17h43.51.758,jersey_experiment_5_v3,2023.2.2,Win32,84.74576271,,,,,,,,,,,,,,,,427.3448,428.6387,428.6387,429.0974,return,0.1361,,77.47395833,,,,,,FBP-OG-91.png,0.4,1.2,43,0.5,0,29,29,42,1,,,,,,,,,,,,,,,,,,,,,,,,,,,,,,,,,,,,,,,,
,,,,,V3_065,18,Male,2024-11-14_17h43.51.758,jersey_experiment_5_v3,2023.2.2,Win32,84.74576271,,,,,,,,,,,,,,,,429.0977,430.6507,430.6507,432.2859,return,0.2036,,70.18229167,,,,,,FBP-RB-71.png,0.35,1.2,46,0.75,0,30,30,45,1,,,,,,,,,,,,,,,,,,,,,,,,,,,,,,,,,,,,,,,,
,,,,,V3_065,18,Male,2024-11-14_17h43.51.758,jersey_experiment_5_v3,2023.2.2,Win32,84.74576271,,,,,,,,,,,,,,,,432.2862,433.8389,433.8389,435.6626,return,0.1678,,35.15625,,,,,,FBP-YG-19.png,0.35,1.2,11,0.75,0,31,31,10,1,,,,,,,,,,,,,,,,,,,,,,,,,,,,,,,,,,,,,,,,
,,,,,V3_065,18,Male,2024-11-14_17h43.51.758,jersey_experiment_5_v3,2023.2.2,Win32,84.74576271,,,,,,,,,,,,,,,,435.6629,436.9566,436.9567,438.2861,return,0.1328,,68.22916667,,,,,,FBP-OG-71.png,0.43,1.2,34,0.5,0,32,32,33,1,,,,,,,,,,,,,,,,,,,,,,,,,,,,,,,,,,,,,,,,
,,,,,V3_065,18,Male,2024-11-14_17h43.51.758,jersey_experiment_5_v3,2023.2.2,Win32,84.74576271,,,,,,,,,,,,,,,,438.2862,439.8393,439.8393,440.851,return,0.1074,,77.08333333,,,,,,FBP-PT-91.png,0.43,1.2,29,0.75,0,33,33,28,1,,,,,,,,,,,,,,,,,,,,,,,,,,,,,,,,,,,,,,,,
,,,,,V3_065,18,Male,2024-11-14_17h43.51.758,jersey_experiment_5_v3,2023.2.2,Win32,84.74576271,,,,,,,,,,,,,,,,440.8513,442.4041,442.4042,443.1334,return,0.0737,,85.80729167,,,,,,FBP-RB-91.png,0.43,1.2,59,0.75,0,34,34,58,1,,,,,,,,,,,,,,,,,,,,,,,,,,,,,,,,,,,,,,,,
,,,,,V3_065,18,Male,2024-11-14_17h43.51.758,jersey_experiment_5_v3,2023.2.2,Win32,84.74576271,,,,,,,,,,,,,,,,443.1337,444.4275,444.4275,446.3336,return,0.0626,,86.58854167,,,,,,FBP-OG-71.png,0.45,1.2,35,0.5,0,35,35,34,1,,,,,,,,,,,,,,,,,,,,,,,,,,,,,,,,,,,,,,,,
,,,,,V3_065,18,Male,2024-11-14_17h43.51.758,jersey_experiment_5_v3,2023.2.2,Win32,84.74576271,,,,,,,,,,,,,,,,446.3339,447.8864,447.8865,449.5335,return,0.3798,,80.859375,,,,,,FBP-YG-17.png,0.37,1.2,2,0.75,0,36,36,1,1,,,,,,,,,,,,,,,,,,,,,,,,,,,,,,,,,,,,,,,,
,,,,,V3_065,18,Male,2024-11-14_17h43.51.758,jersey_experiment_5_v3,2023.2.2,Win32,84.74576271,,,,,,,,,,,,,,,,449.5338,451.0866,451.0866,451.5218,return,0.1409,,80.859375,,,,,,FBP-YG-17.png,0.45,1.2,5,0.75,0,37,37,4,1,,,,,,,,,,,,,,,,,,,,,,,,,,,,,,,,,,,,,,,,
,,,,,V3_065,18,Male,2024-11-14_17h43.51.758,jersey_experiment_5_v3,2023.2.2,Win32,84.74576271,,,,,,,,,,,,,,,,451.5219,452.8163,452.8164,453.7456,return,0.1656,,84.63541667,,,,,,FBP-OG-91.png,0.45,1.2,45,0.5,0,38,38,44,1,,,,,,,,,,,,,,,,,,,,,,,,,,,,,,,,,,,,,,,,
,,,,,V3_065,18,Male,2024-11-14_17h43.51.758,jersey_experiment_5_v3,2023.2.2,Win32,84.74576271,,,,,,,,,,,,,,,,453.7458,455.2985,455.2985,457.2634,return,0.1201,,19.40104167,,,,,,FBP-YG-18.png,0.37,1.2,7,0.75,0,39,39,6,1,,,,,,,,,,,,,,,,,,,,,,,,,,,,,,,,,,,,,,,,
,,,,,V3_065,18,Male,2024-11-14_17h43.51.758,jersey_experiment_5_v3,2023.2.2,Win32,84.74576271,,,,,,,,,,,,,,,,457.2637,458.5575,458.5575,459.1694,return,0.0581,,15.75520833,,,,,,FBP-OG-71.png,0.35,1.2,31,0.5,0,40,40,30,1,,,,,,,,,,,,,,,,,,,,,,,,,,,,,,,,,,,,,,,,
,,,,,V3_065,18,Male,2024-11-14_17h43.51.758,jersey_experiment_5_v3,2023.2.2,Win32,84.74576271,,,,,,,,,,,,,,,,459.1696,460.4635,460.4636,461.1224,return,0.1888,,12.23958333,,,,,,FBP-OG-91.png,0.35,1.2,41,0.5,0,41,41,40,1,,,,,,,,,,,,,,,,,,,,,,,,,,,,,,,,,,,,,,,,
,,,,,V3_065,18,Male,2024-11-14_17h43.51.758,jersey_experiment_5_v3,2023.2.2,Win32,84.74576271,,,,,,,,,,,,,,,,461.1226,462.4164,462.4165,465.1812,return,0.1102,,48.69791667,,,,,,FBP-OG-91.png,0.43,1.2,44,0.5,0,42,42,43,1,,,,,,,,,,,,,,,,,,,,,,,,,,,,,,,,,,,,,,,,
,,,,,V3_065,18,Male,2024-11-14_17h43.51.758,jersey_experiment_5_v3,2023.2.2,Win32,84.74576271,,,,,,,,,,,,,,,,465.1815,466.7343,466.7343,467.8049,return,0.0754,,67.83854167,,,,,,FBP-RB-71.png,0.43,1.2,49,0.75,0,43,43,48,1,,,,,,,,,,,,,,,,,,,,,,,,,,,,,,,,,,,,,,,,
,,,,,V3_065,18,Male,2024-11-14_17h43.51.758,jersey_experiment_5_v3,2023.2.2,Win32,84.74576271,,,,,,,,,,,,,,,,467.8053,469.099,469.099,470.1697,return,0.0667,,31.51041667,,,,,,FBP-OG-81.png,0.35,1.2,36,0.5,0,44,44,35,1,,,,,,,,,,,,,,,,,,,,,,,,,,,,,,,,,,,,,,,,
,,,,,V3_065,18,Male,2024-11-14_17h43.51.758,jersey_experiment_5_v3,2023.2.2,Win32,84.74576271,,,,,,,,,,,,,,,,470.17,471.7227,471.7228,475.0757,return,1.0126,,70.83333333,,,,,,FBP-RB-91.png,0.4,1.2,58,0.75,0,45,45,57,1,,,,,,,,,,,,,,,,,,,,,,,,,,,,,,,,,,,,,,,,
,,,,,V3_065,18,Male,2024-11-14_17h43.51.758,jersey_experiment_5_v3,2023.2.2,Win32,84.74576271,,,,,,,,,,,,,,,,475.0761,476.6287,476.6287,477.4758,return,0.0943,,70.83333333,,,,,,FBP-RB-81.png,0.4,1.2,53,0.75,0,46,46,52,1,,,,,,,,,,,,,,,,,,,,,,,,,,,,,,,,,,,,,,,,
,,,,,V3_065,18,Male,2024-11-14_17h43.51.758,jersey_experiment_5_v3,2023.2.2,Win32,84.74576271,,,,,,,,,,,,,,,,477.4761,478.77,478.77,480.8406,return,0.2913,,36.328125,,,,,,FBP-OG-71.png,0.37,1.2,32,0.5,0,47,47,31,1,,,,,,,,,,,,,,,,,,,,,,,,,,,,,,,,,,,,,,,,
,,,,,V3_065,18,Male,2024-11-14_17h43.51.758,jersey_experiment_5_v3,2023.2.2,Win32,84.74576271,,,,,,,,,,,,,,,,480.8408,482.3821,482.3821,486.0644,return,0.1522,,50.390625,,,,,,FBP-RB-81.png,0.37,1.2,52,0.75,0,48,48,51,1,,,,,,,,,,,,,,,,,,,,,,,,,,,,,,,,,,,,,,,,
,,,,,V3_065,18,Male,2024-11-14_17h43.51.758,jersey_experiment_5_v3,2023.2.2,Win32,84.74576271,,,,,,,,,,,,,,,,486.0647,487.6174,487.6175,488.6174,return,0.1716,,93.359375,,,,,,FBP-PT-81.png,0.43,1.2,24,0.75,0,49,49,23,1,,,,,,,,,,,,,,,,,,,,,,,,,,,,,,,,,,,,,,,,
,,,,,V3_065,18,Male,2024-11-14_17h43.51.758,jersey_experiment_5_v3,2023.2.2,Win32,84.74576271,,,,,,,,,,,,,,,,488.6176,489.9115,489.9116,491.3587,return,0.1318,,63.93229167,,,,,,FBP-OG-91.png,0.37,1.2,42,0.5,0,50,50,41,1,,,,,,,,,,,,,,,,,,,,,,,,,,,,,,,,,,,,,,,,
,,,,,V3_065,18,Male,2024-11-14_17h43.51.758,jersey_experiment_5_v3,2023.2.2,Win32,84.74576271,,,,,,,,,,,,,,,,491.3589,492.9118,492.9118,494.7,return,0.4849,,80.078125,,,,,,FBP-YG-18.png,0.45,1.2,10,0.75,0,51,51,9,1,,,,,,,,,,,,,,,,,,,,,,,,,,,,,,,,,,,,,,,,
,,,,,V3_065,18,Male,2024-11-14_17h43.51.758,jersey_experiment_5_v3,2023.2.2,Win32,84.74576271,,,,,,,,,,,,,,,,494.7002,496.2531,496.2532,497.4648,return,0.3029,,82.8125,,,,,,FBP-YG-18.png,0.4,1.2,8,0.75,0,52,52,7,1,,,,,,,,,,,,,,,,,,,,,,,,,,,,,,,,,,,,,,,,
,,,,,V3_065,18,Male,2024-11-14_17h43.51.758,jersey_experiment_5_v3,2023.2.2,Win32,84.74576271,,,,,,,,,,,,,,,,497.4651,499.018,499.0181,499.8648,return,0.1147,,40.10416667,,,,,,FBP-YG-18.png,0.35,1.2,6,0.75,0,53,53,5,1,,,,,,,,,,,,,,,,,,,,,,,,,,,,,,,,,,,,,,,,
,,,,,V3_065,18,Male,2024-11-14_17h43.51.758,jersey_experiment_5_v3,2023.2.2,Win32,84.74576271,,,,,,,,,,,,,,,,499.865,501.4179,501.4179,502.218,return,0.0665,,31.11979167,,,,,,FBP-PT-91.png,0.35,1.2,26,0.75,0,54,54,25,1,,,,,,,,,,,,,,,,,,,,,,,,,,,,,,,,,,,,,,,,
,,,,,V3_065,18,Male,2024-11-14_17h43.51.758,jersey_experiment_5_v3,2023.2.2,Win32,84.74576271,,,,,,,,,,,,,,,,502.2182,503.771,503.771,506.3829,return,0.0232,,49.86979167,,,,,,FBP-RB-71.png,0.37,1.2,47,0.75,0,55,55,46,1,,,,,,,,,,,,,,,,,,,,,,,,,,,,,,,,,,,,,,,,
,,,,,V3_065,18,Male,2024-11-14_17h43.51.758,jersey_experiment_5_v3,2023.2.2,Win32,84.74576271,,,,,,,,,,,,,,,,506.3831,507.9358,507.9359,508.8298,return,0.261,,65.625,,,,,,FBP-PT-81.png,0.4,1.2,23,0.75,0,56,56,22,1,,,,,,,,,,,,,,,,,,,,,,,,,,,,,,,,,,,,,,,,
,,,,,V3_065,18,Male,2024-11-14_17h43.51.758,jersey_experiment_5_v3,2023.2.2,Win32,84.74576271,,,,,,,,,,,,,,,,508.8301,510.1241,510.1242,512.3243,return,1.5293,,59.11458333,,,,,,FBP-OG-81.png,0.37,1.2,37,0.5,0,57,57,36,1,,,,,,,,,,,,,,,,,,,,,,,,,,,,,,,,,,,,,,,,
,,,,,V3_065,18,Male,2024-11-14_17h43.51.758,jersey_experiment_5_v3,2023.2.2,Win32,84.74576271,,,,,,,,,,,,,,,,512.3247,513.8772,513.8773,514.7008,return,0.0283,,59.24479167,,,,,,FBP-PT-81.png,0.35,1.2,21,0.75,0,58,58,20,1,,,,,,,,,,,,,,,,,,,,,,,,,,,,,,,,,,,,,,,,
,,,,,V3_065,18,Male,2024-11-14_17h43.51.758,jersey_experiment_5_v3,2023.2.2,Win32,84.74576271,,,,,,,,,,,,,,,,514.701,516.2423,516.2423,518.3009,return,1.3697,,74.08854167,,,,,,FBP-RB-81.png,0.43,1.2,54,0.75,0,59,59,53,1,,,,,,,,,,,,,,,,,,,,,,,,,,,,,,,,,,,,,,,,
,,,,,V3_065,18,Male,2024-11-14_17h43.51.758,jersey_experiment_5_v3,2023.2.2,Win32,84.74576271,,,,,,,,,,,,,,,,,,,,,,,,,,,,,,,,,,,,,,,518.301,638.2938,,,,,,,,,,,,,,,,,,,,,,,,,,,,,,,,,,,,,,
,,,,,V3_065,18,Male,2024-11-14_17h43.51.758,jersey_experiment_5_v3,2023.2.2,Win32,84.74576271,,,,,,,,,,,,,,,,,,,,,,,,,,,,,,,,,,,,,,,,,638.2938,641.6821,return,3.3798,,,,,,,,,,,,,,,,,,,,,,,,,,,,,,,,,,
,,,,,V3_065,18,Male,2024-11-14_17h43.51.758,jersey_experiment_5_v3,2023.2.2,Win32,84.74576271,,,,,,,,,,,,,,,,641.6841,642.9763,642.9763,647.647,return,0.8966,,77.99479167,,,,,,FBP-PT-18.png,0.43,1.2,24,0.5,,,,,,,,,,,,,0,0,0,23,1,,,,,,,,,,,,,,,,,,,,,,,,,,,,
,,,,,V3_065,18,Male,2024-11-14_17h43.51.758,jersey_experiment_5_v3,2023.2.2,Win32,84.74576271,,,,,,,,,,,,,,,,647.6471,648.9412,648.9412,651.8589,return,0.0943,,72.91666667,,,,,,FBP-YG-71.png,0.4,1.2,3,0.5,,,,,,,,,,,,,0,1,1,2,1,,,,,,,,,,,,,,,,,,,,,,,,,,,,
,,,,,V3_065,18,Male,2024-11-14_17h43.51.758,jersey_experiment_5_v3,2023.2.2,Win32,84.74576271,,,,,,,,,,,,,,,,651.8592,653.4005,653.4005,654.5767,return,0.037,,50.91145833,,,,,,FBP-OG-19.png,0.35,1.2,41,0.75,,,,,,,,,,,,,0,2,2,40,1,,,,,,,,,,,,,,,,,,,,,,,,,,,,
,,,,,V3_065,18,Male,2024-11-14_17h43.51.758,jersey_experiment_5_v3,2023.2.2,Win32,84.74576271,,,,,,,,,,,,,,,,654.5771,656.1298,656.1299,657.9651,return,0.3694,,80.59895833,,,,,,FBP-OG-19.png,0.4,1.2,43,0.75,,,,,,,,,,,,,0,3,3,42,1,,,,,,,,,,,,,,,,,,,,,,,,,,,,
,,,,,V3_065,18,Male,2024-11-14_17h43.51.758,jersey_experiment_5_v3,2023.2.2,Win32,84.74576271,,,,,,,,,,,,,,,,657.9654,659.2592,659.2592,660.2356,return,0.1339,,29.94791667,,,,,,FBP-RB-17.png,0.35,1.2,46,0.5,,,,,,,,,,,,,0,4,4,45,1,,,,,,,,,,,,,,,,,,,,,,,,,,,,
,,,,,V3_065,18,Male,2024-11-14_17h43.51.758,jersey_experiment_5_v3,2023.2.2,Win32,84.74576271,,,,,,,,,,,,,,,,660.2359,661.5299,661.53,663.0712,return,0.0499,,36.71875,,,,,,FBP-YG-71.png,0.37,1.2,2,0.5,,,,,,,,,,,,,0,5,5,1,1,,,,,,,,,,,,,,,,,,,,,,,,,,,,
,,,,,V3_065,18,Male,2024-11-14_17h43.51.758,jersey_experiment_5_v3,2023.2.2,Win32,84.74576271,,,,,,,,,,,,,,,,663.0714,664.3654,664.3654,665.8359,return,0.0292,,20.44270833,,,,,,FBP-PT-19.png,0.35,1.2,26,0.5,,,,,,,,,,,,,0,6,6,25,1,,,,,,,,,,,,,,,,,,,,,,,,,,,,
,,,,,V3_065,18,Male,2024-11-14_17h43.51.758,jersey_experiment_5_v3,2023.2.2,Win32,84.74576271,,,,,,,,,,,,,,,,665.8362,667.1302,667.1303,669.0244,return,0.0128,,49.21875,,,,,,FBP-RB-19.png,0.43,1.2,59,0.5,,,,,,,,,,,,,0,7,7,58,1,,,,,,,,,,,,,,,,,,,,,,,,,,,,
,,,,,V3_065,18,Male,2024-11-14_17h43.51.758,jersey_experiment_5_v3,2023.2.2,Win32,84.74576271,,,,,,,,,,,,,,,,669.0246,670.3185,670.3186,671.7538,return,0.0197,,83.46354167,,,,,,FBP-RB-17.png,0.45,1.2,50,0.5,,,,,,,,,,,,,0,8,8,49,1,,,,,,,,,,,,,,,,,,,,,,,,,,,,
,,,,,V3_065,18,Male,2024-11-14_17h43.51.758,jersey_experiment_5_v3,2023.2.2,Win32,84.74576271,,,,,,,,,,,,,,,,671.7541,673.0479,673.048,673.5773,return,0.0423,,84.89583333,,,,,,FBP-RB-19.png,0.45,1.2,60,0.5,,,,,,,,,,,,,0,9,9,59,1,,,,,,,,,,,,,,,,,,,,,,,,,,,,
,,,,,V3_065,18,Male,2024-11-14_17h43.51.758,jersey_experiment_5_v3,2023.2.2,Win32,84.74576271,,,,,,,,,,,,,,,,673.5776,674.8716,674.8717,675.9068,return,0.0085,,80.46875,,,,,,FBP-YG-91.png,0.43,1.2,14,0.5,,,,,,,,,,,,,0,10,10,13,1,,,,,,,,,,,,,,,,,,,,,,,,,,,,
,,,,,V3_065,18,Male,2024-11-14_17h43.51.758,jersey_experiment_5_v3,2023.2.2,Win32,84.74576271,,,,,,,,,,,,,,,,675.9071,677.2011,677.2012,681.2246,return,0.0644,,66.40625,,,,,,FBP-PT-17.png,0.35,1.2,16,0.5,,,,,,,,,,,,,0,11,11,15,1,,,,,,,,,,,,,,,,,,,,,,,,,,,,
,,,,,V3_065,18,Male,2024-11-14_17h43.51.758,jersey_experiment_5_v3,2023.2.2,Win32,84.74576271,,,,,,,,,,,,,,,,681.2248,682.5188,682.5188,683.3895,return,0.051,,92.70833333,,,,,,FBP-RB-17.png,0.43,1.2,49,0.5,,,,,,,,,,,,,0,12,12,48,1,,,,,,,,,,,,,,,,,,,,,,,,,,,,
,,,,,V3_065,18,Male,2024-11-14_17h43.51.758,jersey_experiment_5_v3,2023.2.2,Win32,84.74576271,,,,,,,,,,,,,,,,683.3898,684.6837,684.6837,686.0013,return,0.0475,,49.73958333,,,,,,FBP-YG-71.png,0.35,1.2,1,0.5,,,,,,,,,,,,,0,13,13,0,1,,,,,,,,,,,,,,,,,,,,,,,,,,,,
,,,,,V3_065,18,Male,2024-11-14_17h43.51.758,jersey_experiment_5_v3,2023.2.2,Win32,84.74576271,,,,,,,,,,,,,,,,686.0016,687.2956,687.2956,688.8956,return,0.0255,,63.54166667,,,,,,FBP-YG-71.png,0.43,1.2,4,0.5,,,,,,,,,,,,,0,14,14,3,1,,,,,,,,,,,,,,,,,,,,,,,,,,,,
,,,,,V3_065,18,Male,2024-11-14_17h43.51.758,jersey_experiment_5_v3,2023.2.2,Win32,84.74576271,,,,,,,,,,,,,,,,688.896,690.1898,690.1898,691.3898,return,0.5215,,49.609375,,,,,,FBP-YG-91.png,0.37,1.2,12,0.5,,,,,,,,,,,,,0,15,15,11,1,,,,,,,,,,,,,,,,,,,,,,,,,,,,
,,,,,V3_065,18,Male,2024-11-14_17h43.51.758,jersey_experiment_5_v3,2023.2.2,Win32,84.74576271,,,,,,,,,,,,,,,,691.3901,692.684,692.6841,694.0958,return,0.0253,,66.015625,,,,,,FBP-PT-19.png,0.43,1.2,29,0.5,,,,,,,,,,,,,0,16,16,28,1,,,,,,,,,,,,,,,,,,,,,,,,,,,,
,,,,,V3_065,18,Male,2024-11-14_17h43.51.758,jersey_experiment_5_v3,2023.2.2,Win32,84.74576271,,,,,,,,,,,,,,,,694.0961,695.3899,695.39,697.0017,return,0.3125,,24.73958333,,,,,,FBP-RB-17.png,0.37,1.2,47,0.5,,,,,,,,,,,,,0,17,17,46,1,,,,,,,,,,,,,,,,,,,,,,,,,,,,
,,,,,V3_065,18,Male,2024-11-14_17h43.51.758,jersey_experiment_5_v3,2023.2.2,Win32,84.74576271,,,,,,,,,,,,,,,,697.002,698.5547,698.5547,700.449,return,0.0476,,75.52083333,,,,,,FBP-OG-18.png,0.43,1.2,39,0.75,,,,,,,,,,,,,0,18,18,38,1,,,,,,,,,,,,,,,,,,,,,,,,,,,,
,,,,,V3_065,18,Male,2024-11-14_17h43.51.758,jersey_experiment_5_v3,2023.2.2,Win32,84.74576271,,,,,,,,,,,,,,,,700.4493,701.7432,701.7432,702.4256,return,0.0316,,83.46354167,,,,,,FBP-RB-18.png,0.45,1.2,55,0.5,,,,,,,,,,,,,0,19,19,54,1,,,,,,,,,,,,,,,,,,,,,,,,,,,,
,,,,,V3_065,18,Male,2024-11-14_17h43.51.758,jersey_experiment_5_v3,2023.2.2,Win32,84.74576271,,,,,,,,,,,,,,,,702.4259,703.9787,703.9788,704.9786,return,0.0468,,63.02083333,,,,,,FBP-OG-19.png,0.43,1.2,44,0.75,,,,,,,,,,,,,0,20,20,43,1,,,,,,,,,,,,,,,,,,,,,,,,,,,,
,,,,,V3_065,18,Male,2024-11-14_17h43.51.758,jersey_experiment_5_v3,2023.2.2,Win32,84.74576271,,,,,,,,,,,,,,,,704.9789,706.2728,706.273,707.2727,return,0.0559,,25.390625,,,,,,FBP-PT-19.png,0.4,1.2,28,0.5,,,,,,,,,,,,,0,21,21,27,1,,,,,,,,,,,,,,,,,,,,,,,,,,,,
,,,,,V3_065,18,Male,2024-11-14_17h43.51.758,jersey_experiment_5_v3,2023.2.2,Win32,84.74576271,,,,,,,,,,,,,,,,707.273,708.8143,708.8144,709.7553,return,0.0517,,75.26041667,,,,,,FBP-OG-17.png,0.45,1.2,35,0.75,,,,,,,,,,,,,0,22,22,34,1,,,,,,,,,,,,,,,,,,,,,,,,,,,,
,,,,,V3_065,18,Male,2024-11-14_17h43.51.758,jersey_experiment_5_v3,2023.2.2,Win32,84.74576271,,,,,,,,,,,,,,,,709.7555,711.0494,711.0494,712.826,return,0.0651,,14.58333333,,,,,,FBP-RB-18.png,0.35,1.2,51,0.5,,,,,,,,,,,,,0,23,23,50,1,,,,,,,,,,,,,,,,,,,,,,,,,,,,
,,,,,V3_065,18,Male,2024-11-14_17h43.51.758,jersey_experiment_5_v3,2023.2.2,Win32,84.74576271,,,,,,,,,,,,,,,,712.8262,714.379,714.3791,715.1791,return,0.0627,,50.78125,,,,,,FBP-OG-17.png,0.4,1.2,33,0.75,,,,,,,,,,,,,0,24,24,32,1,,,,,,,,,,,,,,,,,,,,,,,,,,,,
,,,,,V3_065,18,Male,2024-11-14_17h43.51.758,jersey_experiment_5_v3,2023.2.2,Win32,84.74576271,,,,,,,,,,,,,,,,715.1794,716.4732,716.4733,717.4025,return,0.0188,,37.63020833,,,,,,FBP-RB-19.png,0.37,1.2,57,0.5,,,,,,,,,,,,,0,25,25,56,1,,,,,,,,,,,,,,,,,,,,,,,,,,,,
,,,,,V3_065,18,Male,2024-11-14_17h43.51.758,jersey_experiment_5_v3,2023.2.2,Win32,84.74576271,,,,,,,,,,,,,,,,717.4028,718.9555,718.9556,719.9791,return,0.1094,,25.52083333,,,,,,FBP-OG-17.png,0.37,1.2,32,0.75,,,,,,,,,,,,,0,26,26,31,1,,,,,,,,,,,,,,,,,,,,,,,,,,,,
,,,,,V3_065,18,Male,2024-11-14_17h43.51.758,jersey_experiment_5_v3,2023.2.2,Win32,84.74576271,,,,,,,,,,,,,,,,719.9796,721.2732,721.2732,723.1203,return,0.0609,,18.88020833,,,,,,FBP-RB-18.png,0.37,1.2,52,0.5,,,,,,,,,,,,,0,27,27,51,1,,,,,,,,,,,,,,,,,,,,,,,,,,,,
,,,,,V3_065,18,Male,2024-11-14_17h43.51.758,jersey_experiment_5_v3,2023.2.2,Win32,84.74576271,,,,,,,,,,,,,,,,723.1206,724.6734,724.6734,725.1795,return,0.0533,,10.67708333,,,,,,FBP-OG-17.png,0.35,1.2,31,0.75,,,,,,,,,,,,,0,28,28,30,1,,,,,,,,,,,,,,,,,,,,,,,,,,,,
,,,,,V3_065,18,Male,2024-11-14_17h43.51.758,jersey_experiment_5_v3,2023.2.2,Win32,84.74576271,,,,,,,,,,,,,,,,725.1797,726.4735,726.4735,727.9559,return,0.0111,,74.08854167,,,,,,FBP-PT-18.png,0.45,1.2,25,0.5,,,,,,,,,,,,,0,29,29,24,1,,,,,,,,,,,,,,,,,,,,,,,,,,,,
,,,,,V3_065,18,Male,2024-11-14_17h43.51.758,jersey_experiment_5_v3,2023.2.2,Win32,84.74576271,,,,,,,,,,,,,,,,727.9562,729.25,729.2502,730.1796,return,0.0368,,81.11979167,,,,,,FBP-YG-71.png,0.45,1.2,5,0.5,,,,,,,,,,,,,0,30,30,4,1,,,,,,,,,,,,,,,,,,,,,,,,,,,,
,,,,,V3_065,18,Male,2024-11-14_17h43.51.758,jersey_experiment_5_v3,2023.2.2,Win32,84.74576271,,,,,,,,,,,,,,,,730.1799,731.4737,731.4738,732.521,return,0.0433,,24.21875,,,,,,FBP-PT-18.png,0.35,1.2,21,0.5,,,,,,,,,,,,,0,31,31,20,1,,,,,,,,,,,,,,,,,,,,,,,,,,,,
,,,,,V3_065,18,Male,2024-11-14_17h43.51.758,jersey_experiment_5_v3,2023.2.2,Win32,84.74576271,,,,,,,,,,,,,,,,732.5213,733.8151,733.8151,734.7327,return,0.0519,,83.203125,,,,,,FBP-RB-18.png,0.43,1.2,54,0.5,,,,,,,,,,,,,0,32,32,53,1,,,,,,,,,,,,,,,,,,,,,,,,,,,,
,,,,,V3_065,18,Male,2024-11-14_17h43.51.758,jersey_experiment_5_v3,2023.2.2,Win32,84.74576271,,,,,,,,,,,,,,,,734.733,736.0269,736.027,736.4739,return,0.0183,,90.88541667,,,,,,FBP-PT-19.png,0.45,1.2,30,0.5,,,,,,,,,,,,,0,33,33,29,1,,,,,,,,,,,,,,,,,,,,,,,,,,,,
,,,,,V3_065,18,Male,2024-11-14_17h43.51.758,jersey_experiment_5_v3,2023.2.2,Win32,84.74576271,,,,,,,,,,,,,,,,736.4741,738.027,738.027,738.98,return,0.0214,,76.5625,,,,,,FBP-OG-19.png,0.45,1.2,45,0.75,,,,,,,,,,,,,0,34,34,44,1,,,,,,,,,,,,,,,,,,,,,,,,,,,,
,,,,,V3_065,18,Male,2024-11-14_17h43.51.758,jersey_experiment_5_v3,2023.2.2,Win32,84.74576271,,,,,,,,,,,,,,,,738.9801,740.274,740.274,741.6035,return,0.7764,,81.38020833,,,,,,FBP-YG-81.png,0.45,1.2,10,0.5,,,,,,,,,,,,,0,35,35,9,1,,,,,,,,,,,,,,,,,,,,,,,,,,,,
,,,,,V3_065,18,Male,2024-11-14_17h43.51.758,jersey_experiment_5_v3,2023.2.2,Win32,84.74576271,,,,,,,,,,,,,,,,741.6037,743.1564,743.1565,743.9683,return,0.0128,,75.91145833,,,,,,FBP-OG-17.png,0.43,1.2,34,0.75,,,,,,,,,,,,,0,36,36,33,1,,,,,,,,,,,,,,,,,,,,,,,,,,,,
,,,,,V3_065,18,Male,2024-11-14_17h43.51.758,jersey_experiment_5_v3,2023.2.2,Win32,84.74576271,,,,,,,,,,,,,,,,743.9685,745.5213,745.5214,746.9096,return,0.8259,,50.65104167,,,,,,FBP-OG-19.png,0.37,1.2,42,0.75,,,,,,,,,,,,,0,37,37,41,1,,,,,,,,,,,,,,,,,,,,,,,,,,,,
,,,,,V3_065,18,Male,2024-11-14_17h43.51.758,jersey_experiment_5_v3,2023.2.2,Win32,84.74576271,,,,,,,,,,,,,,,,746.9099,748.2038,748.2038,748.6508,return,0.0763,,50.65104167,,,,,,FBP-YG-91.png,0.4,1.2,13,0.5,,,,,,,,,,,,,0,38,38,12,1,,,,,,,,,,,,,,,,,,,,,,,,,,,,
,,,,,V3_065,18,Male,2024-11-14_17h43.51.758,jersey_experiment_5_v3,2023.2.2,Win32,84.74576271,,,,,,,,,,,,,,,,748.6511,749.945,749.9451,750.3802,return,0.0759,,50.65104167,,,,,,FBP-PT-18.png,0.4,1.2,23,0.5,,,,,,,,,,,,,0,39,39,22,1,,,,,,,,,,,,,,,,,,,,,,,,,,,,
,,,,,V3_065,18,Male,2024-11-14_17h43.51.758,jersey_experiment_5_v3,2023.2.2,Win32,84.74576271,,,,,,,,,,,,,,,,750.3805,751.6746,751.6746,752.0509,return,0.0238,,50.65104167,,,,,,FBP-RB-17.png,0.4,1.2,48,0.5,,,,,,,,,,,,,0,40,40,47,1,,,,,,,,,,,,,,,,,,,,,,,,,,,,
,,,,,V3_065,18,Male,2024-11-14_17h43.51.758,jersey_experiment_5_v3,2023.2.2,Win32,84.74576271,,,,,,,,,,,,,,,,752.0512,753.3452,753.3452,753.8512,return,0.3948,,50.65104167,,,,,,FBP-YG-81.png,0.4,1.2,8,0.5,,,,,,,,,,,,,0,41,41,7,1,,,,,,,,,,,,,,,,,,,,,,,,,,,,
,,,,,V3_065,18,Male,2024-11-14_17h43.51.758,jersey_experiment_5_v3,2023.2.2,Win32,84.74576271,,,,,,,,,,,,,,,,753.8515,755.1453,755.1453,755.6982,return,0.0945,,50.65104167,,,,,,FBP-PT-17.png,0.37,1.2,17,0.5,,,,,,,,,,,,,0,42,42,16,1,,,,,,,,,,,,,,,,,,,,,,,,,,,,
,,,,,V3_065,18,Male,2024-11-14_17h43.51.758,jersey_experiment_5_v3,2023.2.2,Win32,84.74576271,,,,,,,,,,,,,,,,755.6984,756.9922,756.9922,757.922,return,0.0243,,73.4375,,,,,,FBP-YG-91.png,0.45,1.2,15,0.5,,,,,,,,,,,,,0,43,43,14,1,,,,,,,,,,,,,,,,,,,,,,,,,,,,
,,,,,V3_065,18,Male,2024-11-14_17h43.51.758,jersey_experiment_5_v3,2023.2.2,Win32,84.74576271,,,,,,,,,,,,,,,,757.9222,759.216,759.216,760.6983,return,0.0427,,50.78125,,,,,,FBP-PT-17.png,0.4,1.2,18,0.5,,,,,,,,,,,,,0,44,44,17,1,,,,,,,,,,,,,,,,,,,,,,,,,,,,
,,,,,V3_065,18,Male,2024-11-14_17h43.51.758,jersey_experiment_5_v3,2023.2.2,Win32,84.74576271,,,,,,,,,,,,,,,,760.6985,762.2512,762.2513,762.9573,return,0.1217,,50.78125,,,,,,FBP-OG-18.png,0.4,1.2,38,0.75,,,,,,,,,,,,,0,45,45,37,1,,,,,,,,,,,,,,,,,,,,,,,,,,,,
,,,,,V3_065,18,Male,2024-11-14_17h43.51.758,jersey_experiment_5_v3,2023.2.2,Win32,84.74576271,,,,,,,,,,,,,,,,762.9577,764.2517,764.2517,765.4045,return,0.6758,,79.16666667,,,,,,FBP-PT-17.png,0.45,1.2,20,0.5,,,,,,,,,,,,,0,46,46,19,1,,,,,,,,,,,,,,,,,,,,,,,,,,,,
,,,,,V3_065,18,Male,2024-11-14_17h43.51.758,jersey_experiment_5_v3,2023.2.2,Win32,84.74576271,,,,,,,,,,,,,,,,765.4048,766.9576,766.9577,767.5339,return,0.0386,,49.34895833,,,,,,FBP-OG-18.png,0.35,1.2,36,0.75,,,,,,,,,,,,,0,47,47,35,1,,,,,,,,,,,,,,,,,,,,,,,,,,,,
,,,,,V3_065,18,Male,2024-11-14_17h43.51.758,jersey_experiment_5_v3,2023.2.2,Win32,84.74576271,,,,,,,,,,,,,,,,767.5342,768.828,768.8281,769.3458,return,0.0575,,50,,,,,,FBP-PT-17.png,0.43,1.2,19,0.5,,,,,,,,,,,,,0,48,48,18,1,,,,,,,,,,,,,,,,,,,,,,,,,,,,
,,,,,V3_065,18,Male,2024-11-14_17h43.51.758,jersey_experiment_5_v3,2023.2.2,Win32,84.74576271,,,,,,,,,,,,,,,,769.346,770.6399,770.6399,771.4871,return,0.049,,25.78125,,,,,,FBP-RB-19.png,0.35,1.2,56,0.5,,,,,,,,,,,,,0,49,49,55,1,,,,,,,,,,,,,,,,,,,,,,,,,,,,
,,,,,V3_065,18,Male,2024-11-14_17h43.51.758,jersey_experiment_5_v3,2023.2.2,Win32,84.74576271,,,,,,,,,,,,,,,,771.4874,772.7811,772.7813,773.84,return,0.0956,,48.828125,,,,,,FBP-RB-18.png,0.4,1.2,53,0.5,,,,,,,,,,,,,0,50,50,52,1,,,,,,,,,,,,,,,,,,,,,,,,,,,,
,,,,,V3_065,18,Male,2024-11-14_17h43.51.758,jersey_experiment_5_v3,2023.2.2,Win32,84.74576271,,,,,,,,,,,,,,,,773.8402,775.1341,775.1342,775.9225,return,0.0232,,26.04166667,,,,,,FBP-YG-81.png,0.37,1.2,7,0.5,,,,,,,,,,,,,0,51,51,6,1,,,,,,,,,,,,,,,,,,,,,,,,,,,,
,,,,,V3_065,18,Male,2024-11-14_17h43.51.758,jersey_experiment_5_v3,2023.2.2,Win32,84.74576271,,,,,,,,,,,,,,,,775.9227,777.2166,777.2167,777.6166,return,0.1173,,26.04166667,,,,,,FBP-YG-81.png,0.35,1.2,6,0.5,,,,,,,,,,,,,0,52,52,5,1,,,,,,,,,,,,,,,,,,,,,,,,,,,,
,,,,,V3_065,18,Male,2024-11-14_17h43.51.758,jersey_experiment_5_v3,2023.2.2,Win32,84.74576271,,,,,,,,,,,,,,,,777.6168,778.9108,778.9108,779.2638,return,0.1784,,26.04166667,,,,,,FBP-YG-91.png,0.35,1.2,11,0.5,,,,,,,,,,,,,0,53,53,10,1,,,,,,,,,,,,,,,,,,,,,,,,,,,,
,,,,,V3_065,18,Male,2024-11-14_17h43.51.758,jersey_experiment_5_v3,2023.2.2,Win32,84.74576271,,,,,,,,,,,,,,,,779.2641,780.558,780.558,781.758,return,0.486,,50.13020833,,,,,,FBP-YG-81.png,0.43,1.2,9,0.5,,,,,,,,,,,,,0,54,54,8,1,,,,,,,,,,,,,,,,,,,,,,,,,,,,
,,,,,V3_065,18,Male,2024-11-14_17h43.51.758,jersey_experiment_5_v3,2023.2.2,Win32,84.74576271,,,,,,,,,,,,,,,,781.7581,783.0521,783.0522,783.6639,return,0.0944,,50.13020833,,,,,,FBP-RB-19.png,0.4,1.2,58,0.5,,,,,,,,,,,,,0,55,55,57,1,,,,,,,,,,,,,,,,,,,,,,,,,,,,
,,,,,V3_065,18,Male,2024-11-14_17h43.51.758,jersey_experiment_5_v3,2023.2.2,Win32,84.74576271,,,,,,,,,,,,,,,,783.6641,785.2169,785.2169,785.9346,return,0.1783,,50.13020833,,,,,,FBP-OG-18.png,0.37,1.2,37,0.75,,,,,,,,,,,,,0,56,56,36,1,,,,,,,,,,,,,,,,,,,,,,,,,,,,
,,,,,V3_065,18,Male,2024-11-14_17h43.51.758,jersey_experiment_5_v3,2023.2.2,Win32,84.74576271,,,,,,,,,,,,,,,,785.9349,787.4876,787.4876,788.864,return,0.6572,,75.26041667,,,,,,FBP-OG-18.png,0.45,1.2,40,0.75,,,,,,,,,,,,,0,57,57,39,1,,,,,,,,,,,,,,,,,,,,,,,,,,,,
,,,,,V3_065,18,Male,2024-11-14_17h43.51.758,jersey_experiment_5_v3,2023.2.2,Win32,84.74576271,,,,,,,,,,,,,,,,788.8645,790.1583,790.1583,790.5466,return,0.0577,,75.26041667,,,,,,FBP-PT-18.png,0.37,1.2,22,0.5,,,,,,,,,,,,,0,58,58,21,1,,,,,,,,,,,,,,,,,,,,,,,,,,,,
,,,,,V3_065,18,Male,2024-11-14_17h43.51.758,jersey_experiment_5_v3,2023.2.2,Win32,84.74576271,,,,,,,,,,,,,,,,790.5468,791.8407,791.8407,792.6525,return,0.0874,,50.65104167,,,,,,FBP-PT-19.png,0.37,1.2,27,0.5,,,,,,,,,,,,,0,59,59,26,1,,,,,,,,,,,,,,,,,,,,,,,,,,,,
,,,,,V3_065,18,Male,2024-11-14_17h43.51.758,jersey_experiment_5_v3,2023.2.2,Win32,84.74576271,,,,,,,,,,,,,,,,792.6539,793.9466,793.9467,794.3466,return,0.1221,,50.65104167,,,,,,FBP-YG-18.png,0.37,1.2,7,0.5,,,,,,,,,,,,,,,,,,0,0,0,6,1,,,,,,,,,,,,,,,,,,,,,,,
,,,,,V3_065,18,Male,2024-11-14_17h43.51.758,jersey_experiment_5_v3,2023.2.2,Win32,84.74576271,,,,,,,,,,,,,,,,794.347,795.8996,795.8997,797.0881,return,0.0252,,74.08854167,,,,,,FBP-OG-91.png,0.4,1.2,43,0.75,,,,,,,,,,,,,,,,,,0,1,1,42,1,,,,,,,,,,,,,,,,,,,,,,,
,,,,,V3_065,18,Male,2024-11-14_17h43.51.758,jersey_experiment_5_v3,2023.2.2,Win32,84.74576271,,,,,,,,,,,,,,,,797.0884,798.3822,798.3822,799.3117,return,0.0237,,47.265625,,,,,,FBP-YG-19.png,0.35,1.2,11,0.5,,,,,,,,,,,,,,,,,,0,2,2,10,1,,,,,,,,,,,,,,,,,,,,,,,
,,,,,V3_065,18,Male,2024-11-14_17h43.51.758,jersey_experiment_5_v3,2023.2.2,Win32,84.74576271,,,,,,,,,,,,,,,,799.3119,800.8647,800.8648,801.3707,return,0.0313,,75.13020833,,,,,,FBP-OG-71.png,0.45,1.2,35,0.75,,,,,,,,,,,,,,,,,,0,3,3,34,1,,,,,,,,,,,,,,,,,,,,,,,
,,,,,V3_065,18,Male,2024-11-14_17h43.51.758,jersey_experiment_5_v3,2023.2.2,Win32,84.74576271,,,,,,,,,,,,,,,,801.3711,802.6646,802.6646,803.5941,return,0.0428,,50.65104167,,,,,,FBP-RB-81.png,0.4,1.2,53,0.5,,,,,,,,,,,,,,,,,,0,4,4,52,1,,,,,,,,,,,,,,,,,,,,,,,
,,,,,V3_065,18,Male,2024-11-14_17h43.51.758,jersey_experiment_5_v3,2023.2.2,Win32,84.74576271,,,,,,,,,,,,,,,,803.5944,804.8882,804.8883,805.6294,return,0.0831,,50.65104167,,,,,,FBP-YG-17.png,0.37,1.2,2,0.5,,,,,,,,,,,,,,,,,,0,5,5,1,1,,,,,,,,,,,,,,,,,,,,,,,
,,,,,V3_065,18,Male,2024-11-14_17h43.51.758,jersey_experiment_5_v3,2023.2.2,Win32,84.74576271,,,,,,,,,,,,,,,,805.6297,806.9237,806.9237,807.5825,return,0.2707,,50.65104167,,,,,,FBP-RB-91.png,0.43,1.2,59,0.5,,,,,,,,,,,,,,,,,,0,6,6,58,1,,,,,,,,,,,,,,,,,,,,,,,
,,,,,V3_065,18,Male,2024-11-14_17h43.51.758,jersey_experiment_5_v3,2023.2.2,Win32,84.74576271,,,,,,,,,,,,,,,,807.5827,808.8767,808.8768,809.8179,return,0.0312,,73.95833333,,,,,,FBP-PT-91.png,0.45,1.2,30,0.5,,,,,,,,,,,,,,,,,,0,7,7,29,1,,,,,,,,,,,,,,,,,,,,,,,
,,,,,V3_065,18,Male,2024-11-14_17h43.51.758,jersey_experiment_5_v3,2023.2.2,Win32,84.74576271,,,,,,,,,,,,,,,,809.8182,811.1123,811.1124,812.2179,return,0.0636,,50.52083333,,,,,,FBP-PT-71.png,0.35,1.2,16,0.5,,,,,,,,,,,,,,,,,,0,8,8,15,1,,,,,,,,,,,,,,,,,,,,,,,
,,,,,V3_065,18,Male,2024-11-14_17h43.51.758,jersey_experiment_5_v3,2023.2.2,Win32,84.74576271,,,,,,,,,,,,,,,,812.2182,813.5121,813.5121,814.7357,return,0.6477,,26.171875,,,,,,FBP-YG-17.png,0.35,1.2,1,0.5,,,,,,,,,,,,,,,,,,0,9,9,0,1,,,,,,,,,,,,,,,,,,,,,,,
,,,,,V3_065,18,Male,2024-11-14_17h43.51.758,jersey_experiment_5_v3,2023.2.2,Win32,84.74576271,,,,,,,,,,,,,,,,814.736,816.2887,816.2887,817.4534,return,0.7062,,25.78125,,,,,,FBP-OG-71.png,0.37,1.2,32,0.75,,,,,,,,,,,,,,,,,,0,10,10,31,1,,,,,,,,,,,,,,,,,,,,,,,
,,,,,V3_065,18,Male,2024-11-14_17h43.51.758,jersey_experiment_5_v3,2023.2.2,Win32,84.74576271,,,,,,,,,,,,,,,,817.4537,818.7477,818.7477,820.7359,return,0.0588,,50,,,,,,FBP-RB-71.png,0.35,1.2,46,0.5,,,,,,,,,,,,,,,,,,0,11,11,45,1,,,,,,,,,,,,,,,,,,,,,,,
,,,,,V3_065,18,Male,2024-11-14_17h43.51.758,jersey_experiment_5_v3,2023.2.2,Win32,84.74576271,,,,,,,,,,,,,,,,820.7362,822.0301,822.0301,822.9597,return,0.1087,,75.26041667,,,,,,FBP-PT-81.png,0.43,1.2,24,0.5,,,,,,,,,,,,,,,,,,0,12,12,23,1,,,,,,,,,,,,,,,,,,,,,,,
,,,,,V3_065,18,Male,2024-11-14_17h43.51.758,jersey_experiment_5_v3,2023.2.2,Win32,84.74576271,,,,,,,,,,,,,,,,822.96,824.2538,824.2538,825.2183,return,0.0005,,48.95833333,,,,,,FBP-RB-91.png,0.35,1.2,56,0.5,,,,,,,,,,,,,,,,,,0,13,13,55,1,,,,,,,,,,,,,,,,,,,,,,,
,,,,,V3_065,18,Male,2024-11-14_17h43.51.758,jersey_experiment_5_v3,2023.2.2,Win32,84.74576271,,,,,,,,,,,,,,,,825.2187,826.5127,826.5127,827.2423,return,0.0423,,49.34895833,,,,,,FBP-YG-17.png,0.4,1.2,3,0.5,,,,,,,,,,,,,,,,,,0,14,14,2,1,,,,,,,,,,,,,,,,,,,,,,,
,,,,,V3_065,18,Male,2024-11-14_17h43.51.758,jersey_experiment_5_v3,2023.2.2,Win32,84.74576271,,,,,,,,,,,,,,,,827.2426,828.5362,828.5362,829.3127,return,0.1068,,75.52083333,,,,,,FBP-YG-17.png,0.43,1.2,4,0.5,,,,,,,,,,,,,,,,,,0,15,15,3,1,,,,,,,,,,,,,,,,,,,,,,,
,,,,,V3_065,18,Male,2024-11-14_17h43.51.758,jersey_experiment_5_v3,2023.2.2,Win32,84.74576271,,,,,,,,,,,,,,,,829.3131,830.6068,830.6068,831.2304,return,0.2384,,86.58854167,,,,,,FBP-RB-81.png,0.43,1.2,54,0.5,,,,,,,,,,,,,,,,,,0,16,16,53,1,,,,,,,,,,,,,,,,,,,,,,,
,,,,,V3_065,18,Male,2024-11-14_17h43.51.758,jersey_experiment_5_v3,2023.2.2,Win32,84.74576271,,,,,,,,,,,,,,,,831.2307,832.5246,832.5246,834.866,return,0.0231,,50.26041667,,,,,,FBP-PT-91.png,0.35,1.2,26,0.5,,,,,,,,,,,,,,,,,,0,17,17,25,1,,,,,,,,,,,,,,,,,,,,,,,
,,,,,V3_065,18,Male,2024-11-14_17h43.51.758,jersey_experiment_5_v3,2023.2.2,Win32,84.74576271,,,,,,,,,,,,,,,,834.8664,836.16,836.16,836.866,return,0.1883,,49.47916667,,,,,,FBP-PT-71.png,0.4,1.2,18,0.5,,,,,,,,,,,,,,,,,,0,18,18,17,1,,,,,,,,,,,,,,,,,,,,,,,
,,,,,V3_065,18,Male,2024-11-14_17h43.51.758,jersey_experiment_5_v3,2023.2.2,Win32,84.74576271,,,,,,,,,,,,,,,,836.8661,838.1603,838.1604,838.7718,return,0.0148,,74.47916667,,,,,,FBP-RB-81.png,0.45,1.2,55,0.5,,,,,,,,,,,,,,,,,,0,19,19,54,1,,,,,,,,,,,,,,,,,,,,,,,
,,,,,V3_065,18,Male,2024-11-14_17h43.51.758,jersey_experiment_5_v3,2023.2.2,Win32,84.74576271,,,,,,,,,,,,,,,,838.7719,840.066,840.066,841.6897,return,0.3022,,48.30729167,,,,,,FBP-YG-18.png,0.4,1.2,8,0.5,,,,,,,,,,,,,,,,,,0,20,20,7,1,,,,,,,,,,,,,,,,,,,,,,,
,,,,,V3_065,18,Male,2024-11-14_17h43.51.758,jersey_experiment_5_v3,2023.2.2,Win32,84.74576271,,,,,,,,,,,,,,,,841.69,843.2426,843.2426,845.678,return,0.3804,,58.203125,,,,,,FBP-OG-71.png,0.43,1.2,34,0.75,,,,,,,,,,,,,,,,,,0,21,21,33,1,,,,,,,,,,,,,,,,,,,,,,,
,,,,,V3_065,18,Male,2024-11-14_17h43.51.758,jersey_experiment_5_v3,2023.2.2,Win32,84.74576271,,,,,,,,,,,,,,,,845.6783,846.9722,846.9722,847.937,return,0.0815,,27.21354167,,,,,,FBP-YG-19.png,0.37,1.2,12,0.5,,,,,,,,,,,,,,,,,,0,22,22,11,1,,,,,,,,,,,,,,,,,,,,,,,
,,,,,V3_065,18,Male,2024-11-14_17h43.51.758,jersey_experiment_5_v3,2023.2.2,Win32,84.74576271,,,,,,,,,,,,,,,,847.9371,849.2311,849.2312,850.7606,return,0.0164,,50.13020833,,,,,,FBP-YG-19.png,0.45,1.2,15,0.5,,,,,,,,,,,,,,,,,,0,23,23,14,1,,,,,,,,,,,,,,,,,,,,,,,
,,,,,V3_065,18,Male,2024-11-14_17h43.51.758,jersey_experiment_5_v3,2023.2.2,Win32,84.74576271,,,,,,,,,,,,,,,,850.7607,852.0547,852.0547,852.4783,return,0.0504,,50.13020833,,,,,,FBP-RB-71.png,0.43,1.2,49,0.5,,,,,,,,,,,,,,,,,,0,24,24,48,1,,,,,,,,,,,,,,,,,,,,,,,
,,,,,V3_065,18,Male,2024-11-14_17h43.51.758,jersey_experiment_5_v3,2023.2.2,Win32,84.74576271,,,,,,,,,,,,,,,,852.4786,853.7724,853.7724,854.1371,return,0.0304,,50.13020833,,,,,,FBP-YG-18.png,0.45,1.2,10,0.5,,,,,,,,,,,,,,,,,,0,25,25,9,1,,,,,,,,,,,,,,,,,,,,,,,
,,,,,V3_065,18,Male,2024-11-14_17h43.51.758,jersey_experiment_5_v3,2023.2.2,Win32,84.74576271,,,,,,,,,,,,,,,,854.1374,855.6902,855.6902,856.6197,return,0.2649,,28.515625,,,,,,FBP-OG-91.png,0.35,1.2,41,0.75,,,,,,,,,,,,,,,,,,0,26,26,40,1,,,,,,,,,,,,,,,,,,,,,,,
,,,,,V3_065,18,Male,2024-11-14_17h43.51.758,jersey_experiment_5_v3,2023.2.2,Win32,84.74576271,,,,,,,,,,,,,,,,856.6202,857.914,857.914,858.7138,return,0.0653,,25.52083333,,,,,,FBP-RB-91.png,0.37,1.2,57,0.5,,,,,,,,,,,,,,,,,,0,27,27,56,1,,,,,,,,,,,,,,,,,,,,,,,
,,,,,V3_065,18,Male,2024-11-14_17h43.51.758,jersey_experiment_5_v3,2023.2.2,Win32,84.74576271,,,,,,,,,,,,,,,,858.7141,860.2669,860.267,860.8317,return,0.0492,,50.91145833,,,,,,FBP-OG-81.png,0.45,1.2,40,0.75,,,,,,,,,,,,,,,,,,0,28,28,39,1,,,,,,,,,,,,,,,,,,,,,,,
,,,,,V3_065,18,Male,2024-11-14_17h43.51.758,jersey_experiment_5_v3,2023.2.2,Win32,84.74576271,,,,,,,,,,,,,,,,860.8318,862.3845,862.3846,862.8317,return,0.002,,23.30729167,,,,,,FBP-OG-81.png,0.37,1.2,37,0.75,,,,,,,,,,,,,,,,,,0,29,29,36,1,,,,,,,,,,,,,,,,,,,,,,,
,,,,,V3_065,18,Male,2024-11-14_17h43.51.758,jersey_experiment_5_v3,2023.2.2,Win32,84.74576271,,,,,,,,,,,,,,,,862.832,864.3846,864.3846,865.1964,return,0.2856,,22.52604167,,,,,,FBP-OG-81.png,0.35,1.2,36,0.75,,,,,,,,,,,,,,,,,,0,30,30,35,1,,,,,,,,,,,,,,,,,,,,,,,
,,,,,V3_065,18,Male,2024-11-14_17h43.51.758,jersey_experiment_5_v3,2023.2.2,Win32,84.74576271,,,,,,,,,,,,,,,,865.1966,866.4905,866.4905,867.373,return,0.0857,,50.13020833,,,,,,FBP-PT-91.png,0.43,1.2,29,0.5,,,,,,,,,,,,,,,,,,0,31,31,28,1,,,,,,,,,,,,,,,,,,,,,,,
,,,,,V3_065,18,Male,2024-11-14_17h43.51.758,jersey_experiment_5_v3,2023.2.2,Win32,84.74576271,,,,,,,,,,,,,,,,867.3732,868.6672,868.6672,869.3379,return,0.0431,,50.13020833,,,,,,FBP-PT-81.png,0.45,1.2,25,0.5,,,,,,,,,,,,,,,,,,0,32,32,24,1,,,,,,,,,,,,,,,,,,,,,,,
,,,,,V3_065,18,Male,2024-11-14_17h43.51.758,jersey_experiment_5_v3,2023.2.2,Win32,84.74576271,,,,,,,,,,,,,,,,869.3381,870.632,870.632,871.0908,return,0.103,,50.13020833,,,,,,FBP-RB-91.png,0.4,1.2,58,0.5,,,,,,,,,,,,,,,,,,0,33,33,57,1,,,,,,,,,,,,,,,,,,,,,,,
,,,,,V3_065,18,Male,2024-11-14_17h43.51.758,jersey_experiment_5_v3,2023.2.2,Win32,84.74576271,,,,,,,,,,,,,,,,871.091,872.6437,872.6437,873.0908,return,0.1755,,50.13020833,,,,,,FBP-OG-71.png,0.4,1.2,33,0.75,,,,,,,,,,,,,,,,,,0,34,34,32,1,,,,,,,,,,,,,,,,,,,,,,,
,,,,,V3_065,18,Male,2024-11-14_17h43.51.758,jersey_experiment_5_v3,2023.2.2,Win32,84.74576271,,,,,,,,,,,,,,,,873.0909,874.385,874.385,874.8438,return,0.122,,50.13020833,,,,,,FBP-YG-19.png,0.4,1.2,13,0.5,,,,,,,,,,,,,,,,,,0,35,35,12,1,,,,,,,,,,,,,,,,,,,,,,,
,,,,,V3_065,18,Male,2024-11-14_17h43.51.758,jersey_experiment_5_v3,2023.2.2,Win32,84.74576271,,,,,,,,,,,,,,,,874.8441,876.1381,876.1382,877.7733,return,0.0984,,73.4375,,,,,,FBP-PT-71.png,0.45,1.2,20,0.5,,,,,,,,,,,,,,,,,,0,36,36,19,1,,,,,,,,,,,,,,,,,,,,,,,
,,,,,V3_065,18,Male,2024-11-14_17h43.51.758,jersey_experiment_5_v3,2023.2.2,Win32,84.74576271,,,,,,,,,,,,,,,,877.7736,879.0674,879.0675,879.7734,return,0.0625,,51.04166667,,,,,,FBP-PT-71.png,0.37,1.2,17,0.5,,,,,,,,,,,,,,,,,,0,37,37,16,1,,,,,,,,,,,,,,,,,,,,,,,
,,,,,V3_065,18,Male,2024-11-14_17h43.51.758,jersey_experiment_5_v3,2023.2.2,Win32,84.74576271,,,,,,,,,,,,,,,,879.7736,881.3264,881.3264,882.4911,return,0.0888,,27.34375,,,,,,FBP-OG-71.png,0.35,1.2,31,0.75,,,,,,,,,,,,,,,,,,0,38,38,30,1,,,,,,,,,,,,,,,,,,,,,,,
,,,,,V3_065,18,Male,2024-11-14_17h43.51.758,jersey_experiment_5_v3,2023.2.2,Win32,84.74576271,,,,,,,,,,,,,,,,882.4914,884.0325,884.0326,884.6441,return,0.1176,,49.34895833,,,,,,FBP-OG-91.png,0.43,1.2,44,0.75,,,,,,,,,,,,,,,,,,0,39,39,43,1,,,,,,,,,,,,,,,,,,,,,,,
,,,,,V3_065,18,Male,2024-11-14_17h43.51.758,jersey_experiment_5_v3,2023.2.2,Win32,84.74576271,,,,,,,,,,,,,,,,884.6442,885.9383,885.9383,886.9267,return,0.0735,,78.515625,,,,,,FBP-PT-71.png,0.43,1.2,19,0.5,,,,,,,,,,,,,,,,,,0,40,40,18,1,,,,,,,,,,,,,,,,,,,,,,,
,,,,,V3_065,18,Male,2024-11-14_17h43.51.758,jersey_experiment_5_v3,2023.2.2,Win32,84.74576271,,,,,,,,,,,,,,,,886.927,888.2208,888.2209,888.9621,return,0.0238,,79.81770833,,,,,,FBP-YG-19.png,0.43,1.2,14,0.5,,,,,,,,,,,,,,,,,,0,41,41,13,1,,,,,,,,,,,,,,,,,,,,,,,
,,,,,V3_065,18,Male,2024-11-14_17h43.51.758,jersey_experiment_5_v3,2023.2.2,Win32,84.74576271,,,,,,,,,,,,,,,,888.9623,890.5151,890.5151,891.0209,return,0.1223,,81.90104167,,,,,,FBP-OG-81.png,0.43,1.2,39,0.75,,,,,,,,,,,,,,,,,,0,42,42,38,1,,,,,,,,,,,,,,,,,,,,,,,
,,,,,V3_065,18,Male,2024-11-14_17h43.51.758,jersey_experiment_5_v3,2023.2.2,Win32,84.74576271,,,,,,,,,,,,,,,,891.0212,892.5739,892.5739,893.5622,return,0.018,,23.828125,,,,,,FBP-OG-91.png,0.37,1.2,42,0.75,,,,,,,,,,,,,,,,,,0,43,43,41,1,,,,,,,,,,,,,,,,,,,,,,,
,,,,,V3_065,18,Male,2024-11-14_17h43.51.758,jersey_experiment_5_v3,2023.2.2,Win32,84.74576271,,,,,,,,,,,,,,,,893.5624,894.8563,894.8564,896.7859,return,0.0339,,50.13020833,,,,,,FBP-PT-91.png,0.37,1.2,27,0.5,,,,,,,,,,,,,,,,,,0,44,44,26,1,,,,,,,,,,,,,,,,,,,,,,,
,,,,,V3_065,18,Male,2024-11-14_17h43.51.758,jersey_experiment_5_v3,2023.2.2,Win32,84.74576271,,,,,,,,,,,,,,,,896.7861,898.0801,898.0801,898.8564,return,0.0407,,73.69791667,,,,,,FBP-RB-71.png,0.45,1.2,50,0.5,,,,,,,,,,,,,,,,,,0,45,45,49,1,,,,,,,,,,,,,,,,,,,,,,,
,,,,,V3_065,18,Male,2024-11-14_17h43.51.758,jersey_experiment_5_v3,2023.2.2,Win32,84.74576271,,,,,,,,,,,,,,,,898.8567,900.1507,900.1507,901.2565,return,0.115,,47.78645833,,,,,,FBP-RB-91.png,0.45,1.2,60,0.5,,,,,,,,,,,,,,,,,,0,46,46,59,1,,,,,,,,,,,,,,,,,,,,,,,
,,,,,V3_065,18,Male,2024-11-14_17h43.51.758,jersey_experiment_5_v3,2023.2.2,Win32,84.74576271,,,,,,,,,,,,,,,,901.2567,902.8095,902.8095,904.3979,return,0.097,,74.47916667,,,,,,FBP-OG-91.png,0.45,1.2,45,0.75,,,,,,,,,,,,,,,,,,0,47,47,44,1,,,,,,,,,,,,,,,,,,,,,,,
,,,,,V3_065,18,Male,2024-11-14_17h43.51.758,jersey_experiment_5_v3,2023.2.2,Win32,84.74576271,,,,,,,,,,,,,,,,904.3981,905.6921,905.6921,908.3156,return,1.5831,,49.609375,,,,,,FBP-RB-71.png,0.37,1.2,47,0.5,,,,,,,,,,,,,,,,,,0,48,48,46,1,,,,,,,,,,,,,,,,,,,,,,,
,,,,,V3_065,18,Male,2024-11-14_17h43.51.758,jersey_experiment_5_v3,2023.2.2,Win32,84.74576271,,,,,,,,,,,,,,,,908.3158,909.6099,909.6099,909.9394,return,0.1649,,49.73958333,,,,,,FBP-YG-17.png,0.45,1.2,5,0.5,,,,,,,,,,,,,,,,,,0,49,49,4,1,,,,,,,,,,,,,,,,,,,,,,,
,,,,,V3_065,18,Male,2024-11-14_17h43.51.758,jersey_experiment_5_v3,2023.2.2,Win32,84.74576271,,,,,,,,,,,,,,,,909.9396,911.2335,911.2336,911.9395,return,0.0473,,24.47916667,,,,,,FBP-PT-81.png,0.37,1.2,22,0.5,,,,,,,,,,,,,,,,,,0,50,50,21,1,,,,,,,,,,,,,,,,,,,,,,,
,,,,,V3_065,18,Male,2024-11-14_17h43.51.758,jersey_experiment_5_v3,2023.2.2,Win32,84.74576271,,,,,,,,,,,,,,,,911.9398,913.2337,913.2337,914.2571,return,0.0389,,25,,,,,,FBP-RB-81.png,0.37,1.2,52,0.5,,,,,,,,,,,,,,,,,,0,51,51,51,1,,,,,,,,,,,,,,,,,,,,,,,
,,,,,V3_065,18,Male,2024-11-14_17h43.51.758,jersey_experiment_5_v3,2023.2.2,Win32,84.74576271,,,,,,,,,,,,,,,,914.2573,915.5511,915.5512,915.9043,return,0.0137,,23.95833333,,,,,,FBP-YG-18.png,0.35,1.2,6,0.5,,,,,,,,,,,,,,,,,,0,52,52,5,1,,,,,,,,,,,,,,,,,,,,,,,
,,,,,V3_065,18,Male,2024-11-14_17h43.51.758,jersey_experiment_5_v3,2023.2.2,Win32,84.74576271,,,,,,,,,,,,,,,,915.9046,917.1985,917.1985,917.9867,return,0.291,,19.66145833,,,,,,FBP-PT-81.png,0.4,1.2,23,0.5,,,,,,,,,,,,,,,,,,0,53,53,22,1,,,,,,,,,,,,,,,,,,,,,,,
,,,,,V3_065,18,Male,2024-11-14_17h43.51.758,jersey_experiment_5_v3,2023.2.2,Win32,84.74576271,,,,,,,,,,,,,,,,917.987,919.2808,919.2808,919.8338,return,0.0516,,16.66666667,,,,,,FBP-PT-81.png,0.35,1.2,21,0.5,,,,,,,,,,,,,,,,,,0,54,54,20,1,,,,,,,,,,,,,,,,,,,,,,,
,,,,,V3_065,18,Male,2024-11-14_17h43.51.758,jersey_experiment_5_v3,2023.2.2,Win32,84.74576271,,,,,,,,,,,,,,,,919.8341,921.1279,921.1279,922.5398,return,0.5235,,51.171875,,,,,,FBP-YG-18.png,0.43,1.2,9,0.5,,,,,,,,,,,,,,,,,,0,55,55,8,1,,,,,,,,,,,,,,,,,,,,,,,
,,,,,V3_065,18,Male,2024-11-14_17h43.51.758,jersey_experiment_5_v3,2023.2.2,Win32,84.74576271,,,,,,,,,,,,,,,,922.5399,923.834,923.834,924.5163,return,0.0131,,25,,,,,,FBP-RB-81.png,0.35,1.2,51,0.5,,,,,,,,,,,,,,,,,,0,56,56,50,1,,,,,,,,,,,,,,,,,,,,,,,
,,,,,V3_065,18,Male,2024-11-14_17h43.51.758,jersey_experiment_5_v3,2023.2.2,Win32,84.74576271,,,,,,,,,,,,,,,,924.5166,925.8103,925.8103,927.5987,return,0.0006,,50.91145833,,,,,,FBP-PT-91.png,0.4,1.2,28,0.5,,,,,,,,,,,,,,,,,,0,57,57,27,1,,,,,,,,,,,,,,,,,,,,,,,
,,,,,V3_065,18,Male,2024-11-14_17h43.51.758,jersey_experiment_5_v3,2023.2.2,Win32,84.74576271,,,,,,,,,,,,,,,,927.5989,928.8929,928.8929,929.693,return,0.0977,,49.21875,,,,,,FBP-RB-71.png,0.4,1.2,48,0.5,,,,,,,,,,,,,,,,,,0,58,58,47,1,,,,,,,,,,,,,,,,,,,,,,,
,,,,,V3_065,18,Male,2024-11-14_17h43.51.758,jersey_experiment_5_v3,2023.2.2,Win32,84.74576271,,,,,,,,,,,,,,,,929.6931,931.246,931.246,931.999,return,0.3921,,49.21875,,,,,,FBP-OG-81.png,0.4,1.2,38,0.75,,,,,,,,,,,,,,,,,,0,59,59,37,1,,,,,,,,,,,,,,,,,,,,,,,
,,,,,V3_065,18,Male,2024-11-14_17h43.51.758,jersey_experiment_5_v3,2023.2.2,Win32,84.74576271,,,,,,,,,,,,,,,,,,,,,,,,,,,,,,,,,,,,,,,,,,,,,,,,,,,,,,,,931.999,937.3756,return,5.3659,,,,,,,,,,,,,,,,,,,
,,,,,V3_065,18,Male,2024-11-14_17h43.51.758,jersey_experiment_5_v3,2023.2.2,Win32,84.74576271,,,,,,,,,,,,,,,,,,,,,,,,,,,,,,,,,,,,,,,,,,,,,,,,,,,,,,,,,,,,,937.3757,941.1641,1,2.5002,return,1.2763,,,,,,,,,,,,
,,,,,V3_065,18,Male,2024-11-14_17h43.51.758,jersey_experiment_5_v3,2023.2.2,Win32,84.74576271,,,,,,,,,,,,,,,,,,,,,,,,,,,,,,,,,,,,,,,,,,,,,,,,,,,,,,,,,,,,,,,,,,,,941.1641,1047.2038,Trying to see if the color of the jersey or player affects our perception of how big they are. I think that in total there were only around 3 different sized half way through and this changed how I rated them on the scale. This might skew my results. Sometimes the same size was given with different color jersey or player color.,right,101.2296,,,,,,
,,,,,V3_065,18,Male,2024-11-14_17h43.51.758,jersey_experiment_5_v3,2023.2.2,Win32,84.74576271,,,,,,,,,,,,,,,,,,,,,,,,,,,,,,,,,,,,,,,,,,,,,,,,,,,,,,,,,,,,,,,,,,,,,,,,,,1047.2038,1050.4741,return,3.2653,