requirements.started,requirements.stopped,key_resp_3.keys,key_resp_3.rt,key_resp_3.duration,Subject ID,Age,Gender,date,expName,psychopyVersion,OS,frameRate,instructions1.started,instructions1.stopped,key_resp.keys,key_resp.rt,key_resp.duration,example.started,example.stopped,enter_2.keys,enter_2.rt,enter_2.duration,instructions2.started,instructions2.stopped,enter_3.keys,enter_3.rt,enter_3.duration,image.started,image.stopped,slider_2.started,slider_2.stopped,next.keys,next.rt,next.duration,slider.response,trial_block_1.thisRepN,trial_block_1.thisTrialN,trial_block_1.thisN,trial_block_1.thisIndex,trial_block_1.ran,Path,Width,Height,Index,Duration,trial_block_2.thisRepN,trial_block_2.thisTrialN,trial_block_2.thisN,trial_block_2.thisIndex,trial_block_2.ran,rest_break.started,rest_break.stopped,end_break.started,end_break.stopped,key_resp_5.keys,key_resp_5.rt,key_resp_5.duration,trial_block_3.thisRepN,trial_block_3.thisTrialN,trial_block_3.thisN,trial_block_3.thisIndex,trial_block_3.ran,trial_block_4.thisRepN,trial_block_4.thisTrialN,trial_block_4.thisN,trial_block_4.thisIndex,trial_block_4.ran,questions_intro.started,questions_intro.stopped,enter_12.keys,enter_12.rt,enter_12.duration,question2.started,question2.stopped,question_doingbest.response,question_doingbest.rt,enter_15.keys,enter_15.rt,enter_15.duration,pattern.started,pattern.stopped,pattern_2.text,enter_17.keys,enter_17.rt,enter_17.duration,thankyou.started,thankyou.stopped,enter_14.keys,enter_14.rt,enter_14.duration
0,16.1987,return,16.1886,,V3_075,20,Female,2024-11-18_16h16.34.652,jersey_experiment_5_v3,2023.2.2,Win32,84.74576271,,,,,,,,,,,,,,,,,,,,,,,,,,,,,,,,,,,,,,,,,,,,,,,,,,,,,,,,,,,,,,,,,,,,,,,,,,,,,,
,,,,,V3_075,20,Female,2024-11-18_16h16.34.652,jersey_experiment_5_v3,2023.2.2,Win32,84.74576271,16.1987,22.3197,return,6.1033,,,,,,,,,,,,,,,,,,,,,,,,,,,,,,,,,,,,,,,,,,,,,,,,,,,,,,,,,,,,,,,,,,,,,,,,,,
,,,,,V3_075,20,Female,2024-11-18_16h16.34.652,jersey_experiment_5_v3,2023.2.2,Win32,84.74576271,,,,,,22.3197,26.7401,return,4.3992,,,,,,,,,,,,,,,,,,,,,,,,,,,,,,,,,,,,,,,,,,,,,,,,,,,,,,,,,,,,,,,,,,,,,
,,,,,V3_075,20,Female,2024-11-18_16h16.34.652,jersey_experiment_5_v3,2023.2.2,Win32,84.74576271,,,,,,,,,,,26.7401,43.5761,return,16.8112,,,,,,,,,,,,,,,,,,,,,,,,,,,,,,,,,,,,,,,,,,,,,,,,,,,,,,,,,,,,,,,,
,,,,,V3_075,20,Female,2024-11-18_16h16.34.652,jersey_experiment_5_v3,2023.2.2,Win32,84.74576271,,,,,,,,,,,,,,,,43.5778,45.1203,45.1204,61.4034,return,7.6477,,70.83333333,0,0,0,52,1,FBP-RB-18.png,0.4,1.2,53,0.75,,,,,,,,,,,,,,,,,,,,,,,,,,,,,,,,,,,,,,,,,,,,,
,,,,,V3_075,20,Female,2024-11-18_16h16.34.652,jersey_experiment_5_v3,2023.2.2,Win32,84.74576271,,,,,,,,,,,,,,,,61.4036,62.9477,62.9477,69.6389,return,2.503,,20.83333333,0,1,1,15,1,FBP-PT-17.png,0.35,1.2,16,0.75,,,,,,,,,,,,,,,,,,,,,,,,,,,,,,,,,,,,,,,,,,,,,
,,,,,V3_075,20,Female,2024-11-18_16h16.34.652,jersey_experiment_5_v3,2023.2.2,Win32,84.74576271,,,,,,,,,,,,,,,,69.639,71.1835,71.1836,75.7478,return,1.7795,,54.296875,0,2,2,55,1,FBP-RB-19.png,0.35,1.2,56,0.75,,,,,,,,,,,,,,,,,,,,,,,,,,,,,,,,,,,,,,,,,,,,,
,,,,,V3_075,20,Female,2024-11-18_16h16.34.652,jersey_experiment_5_v3,2023.2.2,Win32,84.74576271,,,,,,,,,,,,,,,,75.7479,77.3008,77.3008,85.2865,return,5.6795,,81.90104167,0,3,3,53,1,FBP-RB-18.png,0.43,1.2,54,0.75,,,,,,,,,,,,,,,,,,,,,,,,,,,,,,,,,,,,,,,,,,,,,
,,,,,V3_075,20,Female,2024-11-18_16h16.34.652,jersey_experiment_5_v3,2023.2.2,Win32,84.74576271,,,,,,,,,,,,,,,,85.2867,86.5954,86.5954,90.2663,return,1.4358,,87.5,0,4,4,34,1,FBP-OG-17.png,0.45,1.2,35,0.5,,,,,,,,,,,,,,,,,,,,,,,,,,,,,,,,,,,,,,,,,,,,,
,,,,,V3_075,20,Female,2024-11-18_16h16.34.652,jersey_experiment_5_v3,2023.2.2,Win32,84.74576271,,,,,,,,,,,,,,,,90.2664,91.8131,91.8131,99.9926,return,4.8086,,31.77083333,0,5,5,56,1,FBP-RB-19.png,0.37,1.2,57,0.75,,,,,,,,,,,,,,,,,,,,,,,,,,,,,,,,,,,,,,,,,,,,,
,,,,,V3_075,20,Female,2024-11-18_16h16.34.652,jersey_experiment_5_v3,2023.2.2,Win32,84.74576271,,,,,,,,,,,,,,,,99.9927,101.5468,101.5468,105.2764,return,1.1188,,30.46875,0,6,6,46,1,FBP-RB-17.png,0.37,1.2,47,0.75,,,,,,,,,,,,,,,,,,,,,,,,,,,,,,,,,,,,,,,,,,,,,
,,,,,V3_075,20,Female,2024-11-18_16h16.34.652,jersey_experiment_5_v3,2023.2.2,Win32,84.74576271,,,,,,,,,,,,,,,,105.2766,106.8254,106.8256,109.8522,return,1.0676,,49.34895833,0,7,7,12,1,FBP-YG-91.png,0.4,1.2,13,0.75,,,,,,,,,,,,,,,,,,,,,,,,,,,,,,,,,,,,,,,,,,,,,
,,,,,V3_075,20,Female,2024-11-18_16h16.34.652,jersey_experiment_5_v3,2023.2.2,Win32,84.74576271,,,,,,,,,,,,,,,,109.8525,111.4054,111.4055,116.8797,return,2.91,,80.98958333,0,8,8,29,1,FBP-PT-19.png,0.45,1.2,30,0.75,,,,,,,,,,,,,,,,,,,,,,,,,,,,,,,,,,,,,,,,,,,,,
,,,,,V3_075,20,Female,2024-11-18_16h16.34.652,jersey_experiment_5_v3,2023.2.2,Win32,84.74576271,,,,,,,,,,,,,,,,116.8798,118.1721,118.1721,121.703,return,1.3565,,79.55729167,0,9,9,44,1,FBP-OG-19.png,0.45,1.2,45,0.5,,,,,,,,,,,,,,,,,,,,,,,,,,,,,,,,,,,,,,,,,,,,,
,,,,,V3_075,20,Female,2024-11-18_16h16.34.652,jersey_experiment_5_v3,2023.2.2,Win32,84.74576271,,,,,,,,,,,,,,,,121.7032,122.9969,122.997,129.9134,return,4.3195,,24.609375,0,10,10,40,1,FBP-OG-19.png,0.35,1.2,41,0.5,,,,,,,,,,,,,,,,,,,,,,,,,,,,,,,,,,,,,,,,,,,,,
,,,,,V3_075,20,Female,2024-11-18_16h16.34.652,jersey_experiment_5_v3,2023.2.2,Win32,84.74576271,,,,,,,,,,,,,,,,129.9136,131.2064,131.2064,138.2446,return,1.9682,,28.25520833,0,11,11,31,1,FBP-OG-17.png,0.37,1.2,32,0.5,,,,,,,,,,,,,,,,,,,,,,,,,,,,,,,,,,,,,,,,,,,,,
,,,,,V3_075,20,Female,2024-11-18_16h16.34.652,jersey_experiment_5_v3,2023.2.2,Win32,84.74576271,,,,,,,,,,,,,,,,138.2448,139.5389,139.5389,143.4453,return,1.5093,,74.86979167,0,12,12,43,1,FBP-OG-19.png,0.43,1.2,44,0.5,,,,,,,,,,,,,,,,,,,,,,,,,,,,,,,,,,,,,,,,,,,,,
,,,,,V3_075,20,Female,2024-11-18_16h16.34.652,jersey_experiment_5_v3,2023.2.2,Win32,84.74576271,,,,,,,,,,,,,,,,143.4455,144.9916,144.9917,148.9683,return,1.2343,,74.86979167,0,13,13,3,1,FBP-YG-71.png,0.43,1.2,4,0.75,,,,,,,,,,,,,,,,,,,,,,,,,,,,,,,,,,,,,,,,,,,,,
,,,,,V3_075,20,Female,2024-11-18_16h16.34.652,jersey_experiment_5_v3,2023.2.2,Win32,84.74576271,,,,,,,,,,,,,,,,148.9685,150.5126,150.5127,154.9332,return,2.0167,,79.42708333,0,14,14,23,1,FBP-PT-18.png,0.43,1.2,24,0.75,,,,,,,,,,,,,,,,,,,,,,,,,,,,,,,,,,,,,,,,,,,,,
,,,,,V3_075,20,Female,2024-11-18_16h16.34.652,jersey_experiment_5_v3,2023.2.2,Win32,84.74576271,,,,,,,,,,,,,,,,154.9334,156.4894,156.4894,162.263,return,3.4152,,24.73958333,0,15,15,1,1,FBP-YG-71.png,0.37,1.2,2,0.75,,,,,,,,,,,,,,,,,,,,,,,,,,,,,,,,,,,,,,,,,,,,,
,,,,,V3_075,20,Female,2024-11-18_16h16.34.652,jersey_experiment_5_v3,2023.2.2,Win32,84.74576271,,,,,,,,,,,,,,,,162.2631,163.8075,163.8075,167.7219,return,1.6018,,91.92708333,0,16,16,19,1,FBP-PT-17.png,0.45,1.2,20,0.75,,,,,,,,,,,,,,,,,,,,,,,,,,,,,,,,,,,,,,,,,,,,,
,,,,,V3_075,20,Female,2024-11-18_16h16.34.652,jersey_experiment_5_v3,2023.2.2,Win32,84.74576271,,,,,,,,,,,,,,,,167.7221,169.2633,169.2633,172.8663,return,1.2571,,50,0,17,17,7,1,FBP-YG-81.png,0.4,1.2,8,0.75,,,,,,,,,,,,,,,,,,,,,,,,,,,,,,,,,,,,,,,,,,,,,
,,,,,V3_075,20,Female,2024-11-18_16h16.34.652,jersey_experiment_5_v3,2023.2.2,Win32,84.74576271,,,,,,,,,,,,,,,,172.8665,174.4162,174.4163,178.6788,return,2.0477,,84.50520833,0,18,18,14,1,FBP-YG-91.png,0.45,1.2,15,0.75,,,,,,,,,,,,,,,,,,,,,,,,,,,,,,,,,,,,,,,,,,,,,
,,,,,V3_075,20,Female,2024-11-18_16h16.34.652,jersey_experiment_5_v3,2023.2.2,Win32,84.74576271,,,,,,,,,,,,,,,,178.679,180.2316,180.2316,183.1225,return,1.0183,,90.36458333,0,19,19,54,1,FBP-RB-18.png,0.45,1.2,55,0.75,,,,,,,,,,,,,,,,,,,,,,,,,,,,,,,,,,,,,,,,,,,,,
,,,,,V3_075,20,Female,2024-11-18_16h16.34.652,jersey_experiment_5_v3,2023.2.2,Win32,84.74576271,,,,,,,,,,,,,,,,183.1228,184.6786,184.6786,191.4466,return,4.6374,,32.8125,0,20,20,11,1,FBP-YG-91.png,0.37,1.2,12,0.75,,,,,,,,,,,,,,,,,,,,,,,,,,,,,,,,,,,,,,,,,,,,,
,,,,,V3_075,20,Female,2024-11-18_16h16.34.652,jersey_experiment_5_v3,2023.2.2,Win32,84.74576271,,,,,,,,,,,,,,,,191.4468,192.7499,192.7499,196.1145,return,1.2475,,32.16145833,0,21,21,42,1,FBP-OG-19.png,0.4,1.2,43,0.5,,,,,,,,,,,,,,,,,,,,,,,,,,,,,,,,,,,,,,,,,,,,,
,,,,,V3_075,20,Female,2024-11-18_16h16.34.652,jersey_experiment_5_v3,2023.2.2,Win32,84.74576271,,,,,,,,,,,,,,,,196.1146,197.6574,197.6575,200.5145,return,1.1146,,7.552083333,0,22,22,10,1,FBP-YG-91.png,0.35,1.2,11,0.75,,,,,,,,,,,,,,,,,,,,,,,,,,,,,,,,,,,,,,,,,,,,,
,,,,,V3_075,20,Female,2024-11-18_16h16.34.652,jersey_experiment_5_v3,2023.2.2,Win32,84.74576271,,,,,,,,,,,,,,,,200.5147,202.0673,202.0674,206.2646,return,2.3548,,8.072916667,0,23,23,20,1,FBP-PT-18.png,0.35,1.2,21,0.75,,,,,,,,,,,,,,,,,,,,,,,,,,,,,,,,,,,,,,,,,,,,,
,,,,,V3_075,20,Female,2024-11-18_16h16.34.652,jersey_experiment_5_v3,2023.2.2,Win32,84.74576271,,,,,,,,,,,,,,,,206.2648,207.8089,207.809,211.221,return,1.3975,,69.79166667,0,24,24,57,1,FBP-RB-19.png,0.4,1.2,58,0.75,,,,,,,,,,,,,,,,,,,,,,,,,,,,,,,,,,,,,,,,,,,,,
,,,,,V3_075,20,Female,2024-11-18_16h16.34.652,jersey_experiment_5_v3,2023.2.2,Win32,84.74576271,,,,,,,,,,,,,,,,211.2211,212.5142,212.5142,214.9064,return,0.8709,,70.05208333,0,25,25,32,1,FBP-OG-17.png,0.4,1.2,33,0.5,,,,,,,,,,,,,,,,,,,,,,,,,,,,,,,,,,,,,,,,,,,,,
,,,,,V3_075,20,Female,2024-11-18_16h16.34.652,jersey_experiment_5_v3,2023.2.2,Win32,84.74576271,,,,,,,,,,,,,,,,214.9066,216.4563,216.4563,219.9403,return,1.4574,,68.09895833,0,26,26,2,1,FBP-YG-71.png,0.4,1.2,3,0.75,,,,,,,,,,,,,,,,,,,,,,,,,,,,,,,,,,,,,,,,,,,,,
,,,,,V3_075,20,Female,2024-11-18_16h16.34.652,jersey_experiment_5_v3,2023.2.2,Win32,84.74576271,,,,,,,,,,,,,,,,219.9405,221.4885,221.4886,224.2096,return,1.1532,,29.94791667,0,27,27,50,1,FBP-RB-18.png,0.35,1.2,51,0.75,,,,,,,,,,,,,,,,,,,,,,,,,,,,,,,,,,,,,,,,,,,,,
,,,,,V3_075,20,Female,2024-11-18_16h16.34.652,jersey_experiment_5_v3,2023.2.2,Win32,84.74576271,,,,,,,,,,,,,,,,224.2097,225.7526,225.7526,228.7426,return,0.9905,,82.03125,0,28,28,24,1,FBP-PT-18.png,0.45,1.2,25,0.75,,,,,,,,,,,,,,,,,,,,,,,,,,,,,,,,,,,,,,,,,,,,,
,,,,,V3_075,20,Female,2024-11-18_16h16.34.652,jersey_experiment_5_v3,2023.2.2,Win32,84.74576271,,,,,,,,,,,,,,,,228.7427,230.0449,230.0449,234.4925,return,1.9873,,26.04166667,0,29,29,41,1,FBP-OG-19.png,0.37,1.2,42,0.5,,,,,,,,,,,,,,,,,,,,,,,,,,,,,,,,,,,,,,,,,,,,,
,,,,,V3_075,20,Female,2024-11-18_16h16.34.652,jersey_experiment_5_v3,2023.2.2,Win32,84.74576271,,,,,,,,,,,,,,,,234.4927,236.0452,236.0452,240.1285,return,1.2599,,20.703125,0,30,30,25,1,FBP-PT-19.png,0.35,1.2,26,0.75,,,,,,,,,,,,,,,,,,,,,,,,,,,,,,,,,,,,,,,,,,,,,
,,,,,V3_075,20,Female,2024-11-18_16h16.34.652,jersey_experiment_5_v3,2023.2.2,Win32,84.74576271,,,,,,,,,,,,,,,,240.1287,241.6812,241.6812,247.878,return,3.3919,,33.203125,0,31,31,16,1,FBP-PT-17.png,0.37,1.2,17,0.75,,,,,,,,,,,,,,,,,,,,,,,,,,,,,,,,,,,,,,,,,,,,,
,,,,,V3_075,20,Female,2024-11-18_16h16.34.652,jersey_experiment_5_v3,2023.2.2,Win32,84.74576271,,,,,,,,,,,,,,,,247.8781,249.4241,249.4241,252.8136,return,1.3645,,92.578125,0,32,32,49,1,FBP-RB-17.png,0.45,1.2,50,0.75,,,,,,,,,,,,,,,,,,,,,,,,,,,,,,,,,,,,,,,,,,,,,
,,,,,V3_075,20,Female,2024-11-18_16h16.34.652,jersey_experiment_5_v3,2023.2.2,Win32,84.74576271,,,,,,,,,,,,,,,,252.8138,254.364,254.3641,261.6142,return,5.4037,,84.765625,0,33,33,4,1,FBP-YG-71.png,0.45,1.2,5,0.75,,,,,,,,,,,,,,,,,,,,,,,,,,,,,,,,,,,,,,,,,,,,,
,,,,,V3_075,20,Female,2024-11-18_16h16.34.652,jersey_experiment_5_v3,2023.2.2,Win32,84.74576271,,,,,,,,,,,,,,,,261.6144,263.1668,263.1668,265.7879,return,0.9417,,75.13020833,0,34,34,58,1,FBP-RB-19.png,0.43,1.2,59,0.75,,,,,,,,,,,,,,,,,,,,,,,,,,,,,,,,,,,,,,,,,,,,,
,,,,,V3_075,20,Female,2024-11-18_16h16.34.652,jersey_experiment_5_v3,2023.2.2,Win32,84.74576271,,,,,,,,,,,,,,,,265.788,267.0962,267.0962,269.8823,return,0.8564,,80.078125,0,35,35,39,1,FBP-OG-18.png,0.45,1.2,40,0.5,,,,,,,,,,,,,,,,,,,,,,,,,,,,,,,,,,,,,,,,,,,,,
,,,,,V3_075,20,Female,2024-11-18_16h16.34.652,jersey_experiment_5_v3,2023.2.2,Win32,84.74576271,,,,,,,,,,,,,,,,269.8825,271.1906,271.1906,274.9644,return,1.8591,,14.0625,0,36,36,35,1,FBP-OG-18.png,0.35,1.2,36,0.5,,,,,,,,,,,,,,,,,,,,,,,,,,,,,,,,,,,,,,,,,,,,,
,,,,,V3_075,20,Female,2024-11-18_16h16.34.652,jersey_experiment_5_v3,2023.2.2,Win32,84.74576271,,,,,,,,,,,,,,,,274.9646,276.5175,276.5175,279.9733,return,1.9106,,80.59895833,0,37,37,8,1,FBP-YG-81.png,0.43,1.2,9,0.75,,,,,,,,,,,,,,,,,,,,,,,,,,,,,,,,,,,,,,,,,,,,,
,,,,,V3_075,20,Female,2024-11-18_16h16.34.652,jersey_experiment_5_v3,2023.2.2,Win32,84.74576271,,,,,,,,,,,,,,,,279.9735,281.5294,281.5294,285.5914,return,1.2239,,76.82291667,0,38,38,9,1,FBP-YG-81.png,0.45,1.2,10,0.75,,,,,,,,,,,,,,,,,,,,,,,,,,,,,,,,,,,,,,,,,,,,,
,,,,,V3_075,20,Female,2024-11-18_16h16.34.652,jersey_experiment_5_v3,2023.2.2,Win32,84.74576271,,,,,,,,,,,,,,,,285.5916,287.1441,287.1442,290.4142,return,1.0964,,80.59895833,0,39,39,48,1,FBP-RB-17.png,0.43,1.2,49,0.75,,,,,,,,,,,,,,,,,,,,,,,,,,,,,,,,,,,,,,,,,,,,,
,,,,,V3_075,20,Female,2024-11-18_16h16.34.652,jersey_experiment_5_v3,2023.2.2,Win32,84.74576271,,,,,,,,,,,,,,,,290.4144,291.9619,291.9619,297.7033,return,3.7914,,19.921875,0,40,40,45,1,FBP-RB-17.png,0.35,1.2,46,0.75,,,,,,,,,,,,,,,,,,,,,,,,,,,,,,,,,,,,,,,,,,,,,
,,,,,V3_075,20,Female,2024-11-18_16h16.34.652,jersey_experiment_5_v3,2023.2.2,Win32,84.74576271,,,,,,,,,,,,,,,,297.7036,299.2475,299.2476,302.2597,return,1.4356,,20.18229167,0,41,41,26,1,FBP-PT-19.png,0.37,1.2,27,0.75,,,,,,,,,,,,,,,,,,,,,,,,,,,,,,,,,,,,,,,,,,,,,
,,,,,V3_075,20,Female,2024-11-18_16h16.34.652,jersey_experiment_5_v3,2023.2.2,Win32,84.74576271,,,,,,,,,,,,,,,,302.2599,303.5683,303.5683,306.2723,return,1.2364,,20.44270833,0,42,42,30,1,FBP-OG-17.png,0.35,1.2,31,0.5,,,,,,,,,,,,,,,,,,,,,,,,,,,,,,,,,,,,,,,,,,,,,
,,,,,V3_075,20,Female,2024-11-18_16h16.34.652,jersey_experiment_5_v3,2023.2.2,Win32,84.74576271,,,,,,,,,,,,,,,,306.2724,307.8214,307.8214,310.1038,return,1.0228,,19.921875,0,43,43,51,1,FBP-RB-18.png,0.37,1.2,52,0.75,,,,,,,,,,,,,,,,,,,,,,,,,,,,,,,,,,,,,,,,,,,,,
,,,,,V3_075,20,Female,2024-11-18_16h16.34.652,jersey_experiment_5_v3,2023.2.2,Win32,84.74576271,,,,,,,,,,,,,,,,310.104,311.6628,311.6628,315.1746,return,1.0041,,73.56770833,0,44,44,27,1,FBP-PT-19.png,0.4,1.2,28,0.75,,,,,,,,,,,,,,,,,,,,,,,,,,,,,,,,,,,,,,,,,,,,,
,,,,,V3_075,20,Female,2024-11-18_16h16.34.652,jersey_experiment_5_v3,2023.2.2,Win32,84.74576271,,,,,,,,,,,,,,,,315.1749,316.7309,316.7309,322.9577,return,4.2741,,54.55729167,0,45,45,21,1,FBP-PT-18.png,0.37,1.2,22,0.75,,,,,,,,,,,,,,,,,,,,,,,,,,,,,,,,,,,,,,,,,,,,,
,,,,,V3_075,20,Female,2024-11-18_16h16.34.652,jersey_experiment_5_v3,2023.2.2,Win32,84.74576271,,,,,,,,,,,,,,,,322.9578,324.5043,324.5043,327.9696,return,1.8035,,74.86979167,0,46,46,13,1,FBP-YG-91.png,0.43,1.2,14,0.75,,,,,,,,,,,,,,,,,,,,,,,,,,,,,,,,,,,,,,,,,,,,,
,,,,,V3_075,20,Female,2024-11-18_16h16.34.652,jersey_experiment_5_v3,2023.2.2,Win32,84.74576271,,,,,,,,,,,,,,,,327.9696,329.5163,329.5164,335.3635,return,4.1129,,28.38541667,0,47,47,0,1,FBP-YG-71.png,0.35,1.2,1,0.75,,,,,,,,,,,,,,,,,,,,,,,,,,,,,,,,,,,,,,,,,,,,,
,,,,,V3_075,20,Female,2024-11-18_16h16.34.652,jersey_experiment_5_v3,2023.2.2,Win32,84.74576271,,,,,,,,,,,,,,,,335.3638,336.6609,336.6609,340.6522,return,1.7189,,75,0,48,48,33,1,FBP-OG-17.png,0.43,1.2,34,0.5,,,,,,,,,,,,,,,,,,,,,,,,,,,,,,,,,,,,,,,,,,,,,
,,,,,V3_075,20,Female,2024-11-18_16h16.34.652,jersey_experiment_5_v3,2023.2.2,Win32,84.74576271,,,,,,,,,,,,,,,,340.6523,341.9554,341.9554,344.3205,return,1.0475,,75,0,49,49,38,1,FBP-OG-18.png,0.43,1.2,39,0.5,,,,,,,,,,,,,,,,,,,,,,,,,,,,,,,,,,,,,,,,,,,,,
,,,,,V3_075,20,Female,2024-11-18_16h16.34.652,jersey_experiment_5_v3,2023.2.2,Win32,84.74576271,,,,,,,,,,,,,,,,344.3207,345.8698,345.8699,354.7695,return,7.2143,,31.38020833,0,50,50,6,1,FBP-YG-81.png,0.37,1.2,7,0.75,,,,,,,,,,,,,,,,,,,,,,,,,,,,,,,,,,,,,,,,,,,,,
,,,,,V3_075,20,Female,2024-11-18_16h16.34.652,jersey_experiment_5_v3,2023.2.2,Win32,84.74576271,,,,,,,,,,,,,,,,354.7697,356.3173,356.3174,358.4415,return,0.8624,,49.86979167,0,51,51,22,1,FBP-PT-18.png,0.4,1.2,23,0.75,,,,,,,,,,,,,,,,,,,,,,,,,,,,,,,,,,,,,,,,,,,,,
,,,,,V3_075,20,Female,2024-11-18_16h16.34.652,jersey_experiment_5_v3,2023.2.2,Win32,84.74576271,,,,,,,,,,,,,,,,358.4416,359.9881,359.9881,363.5882,return,1.0649,,80.59895833,0,52,52,59,1,FBP-RB-19.png,0.45,1.2,60,0.75,,,,,,,,,,,,,,,,,,,,,,,,,,,,,,,,,,,,,,,,,,,,,
,,,,,V3_075,20,Female,2024-11-18_16h16.34.652,jersey_experiment_5_v3,2023.2.2,Win32,84.74576271,,,,,,,,,,,,,,,,363.5884,364.8823,364.8824,367.9561,return,0.8943,,50,0,53,53,36,1,FBP-OG-18.png,0.37,1.2,37,0.5,,,,,,,,,,,,,,,,,,,,,,,,,,,,,,,,,,,,,,,,,,,,,
,,,,,V3_075,20,Female,2024-11-18_16h16.34.652,jersey_experiment_5_v3,2023.2.2,Win32,84.74576271,,,,,,,,,,,,,,,,367.9563,369.5061,369.5061,372.9533,return,1.1313,,72.39583333,0,54,54,28,1,FBP-PT-19.png,0.43,1.2,29,0.75,,,,,,,,,,,,,,,,,,,,,,,,,,,,,,,,,,,,,,,,,,,,,
,,,,,V3_075,20,Female,2024-11-18_16h16.34.652,jersey_experiment_5_v3,2023.2.2,Win32,84.74576271,,,,,,,,,,,,,,,,372.9535,374.4974,374.4974,377.0946,return,0.9076,,72.52604167,0,55,55,47,1,FBP-RB-17.png,0.4,1.2,48,0.75,,,,,,,,,,,,,,,,,,,,,,,,,,,,,,,,,,,,,,,,,,,,,
,,,,,V3_075,20,Female,2024-11-18_16h16.34.652,jersey_experiment_5_v3,2023.2.2,Win32,84.74576271,,,,,,,,,,,,,,,,377.0948,378.6391,378.6391,383.8523,return,3.1899,,29.03645833,0,56,56,5,1,FBP-YG-81.png,0.35,1.2,6,0.75,,,,,,,,,,,,,,,,,,,,,,,,,,,,,,,,,,,,,,,,,,,,,
,,,,,V3_075,20,Female,2024-11-18_16h16.34.652,jersey_experiment_5_v3,2023.2.2,Win32,84.74576271,,,,,,,,,,,,,,,,383.8525,385.4007,385.4008,389.5422,return,1.6515,,74.86979167,0,57,57,18,1,FBP-PT-17.png,0.43,1.2,19,0.75,,,,,,,,,,,,,,,,,,,,,,,,,,,,,,,,,,,,,,,,,,,,,
,,,,,V3_075,20,Female,2024-11-18_16h16.34.652,jersey_experiment_5_v3,2023.2.2,Win32,84.74576271,,,,,,,,,,,,,,,,389.5424,390.8423,390.8423,396.6991,return,3.354,,61.84895833,0,58,58,37,1,FBP-OG-18.png,0.4,1.2,38,0.5,,,,,,,,,,,,,,,,,,,,,,,,,,,,,,,,,,,,,,,,,,,,,
,,,,,V3_075,20,Female,2024-11-18_16h16.34.652,jersey_experiment_5_v3,2023.2.2,Win32,84.74576271,,,,,,,,,,,,,,,,396.6993,398.2483,398.2484,400.1829,return,0.8374,,54.81770833,0,59,59,17,1,FBP-PT-17.png,0.4,1.2,18,0.75,,,,,,,,,,,,,,,,,,,,,,,,,,,,,,,,,,,,,,,,,,,,,
,,,,,V3_075,20,Female,2024-11-18_16h16.34.652,jersey_experiment_5_v3,2023.2.2,Win32,84.74576271,,,,,,,,,,,,,,,,400.184,401.7307,401.7307,406.1847,return,1.1214,,49.08854167,,,,,,FBP-YG-18.png,0.37,1.2,7,0.75,0,0,0,6,1,,,,,,,,,,,,,,,,,,,,,,,,,,,,,,,,,,,,,,,,
,,,,,V3_075,20,Female,2024-11-18_16h16.34.652,jersey_experiment_5_v3,2023.2.2,Win32,84.74576271,,,,,,,,,,,,,,,,406.1849,407.737,407.7371,410.5311,return,1.2074,,47.39583333,,,,,,FBP-PT-91.png,0.35,1.2,26,0.75,0,1,1,25,1,,,,,,,,,,,,,,,,,,,,,,,,,,,,,,,,,,,,,,,,
,,,,,V3_075,20,Female,2024-11-18_16h16.34.652,jersey_experiment_5_v3,2023.2.2,Win32,84.74576271,,,,,,,,,,,,,,,,410.5314,412.0758,412.0758,415.8539,return,2.1787,,55.859375,,,,,,FBP-RB-81.png,0.4,1.2,53,0.75,0,2,2,52,1,,,,,,,,,,,,,,,,,,,,,,,,,,,,,,,,,,,,,,,,
,,,,,V3_075,20,Female,2024-11-18_16h16.34.652,jersey_experiment_5_v3,2023.2.2,Win32,84.74576271,,,,,,,,,,,,,,,,415.8541,417.408,417.408,419.5729,return,0.9887,,57.16145833,,,,,,FBP-PT-91.png,0.4,1.2,28,0.75,0,3,3,27,1,,,,,,,,,,,,,,,,,,,,,,,,,,,,,,,,,,,,,,,,
,,,,,V3_075,20,Female,2024-11-18_16h16.34.652,jersey_experiment_5_v3,2023.2.2,Win32,84.74576271,,,,,,,,,,,,,,,,419.573,421.1242,421.1243,423.8644,return,0.753,,62.109375,,,,,,FBP-YG-19.png,0.4,1.2,13,0.75,0,4,4,12,1,,,,,,,,,,,,,,,,,,,,,,,,,,,,,,,,,,,,,,,,
,,,,,V3_075,20,Female,2024-11-18_16h16.34.652,jersey_experiment_5_v3,2023.2.2,Win32,84.74576271,,,,,,,,,,,,,,,,423.8646,425.4073,425.4074,428.4422,return,1.1534,,81.38020833,,,,,,FBP-RB-91.png,0.43,1.2,59,0.75,0,5,5,58,1,,,,,,,,,,,,,,,,,,,,,,,,,,,,,,,,,,,,,,,,
,,,,,V3_075,20,Female,2024-11-18_16h16.34.652,jersey_experiment_5_v3,2023.2.2,Win32,84.74576271,,,,,,,,,,,,,,,,428.4423,429.997,429.997,432.4673,return,0.8384,,50,,,,,,FBP-RB-81.png,0.37,1.2,52,0.75,0,6,6,51,1,,,,,,,,,,,,,,,,,,,,,,,,,,,,,,,,,,,,,,,,
,,,,,V3_075,20,Female,2024-11-18_16h16.34.652,jersey_experiment_5_v3,2023.2.2,Win32,84.74576271,,,,,,,,,,,,,,,,432.4675,434.0195,434.0195,440.4852,return,4.3198,,78.64583333,,,,,,FBP-YG-18.png,0.45,1.2,10,0.75,0,7,7,9,1,,,,,,,,,,,,,,,,,,,,,,,,,,,,,,,,,,,,,,,,
,,,,,V3_075,20,Female,2024-11-18_16h16.34.652,jersey_experiment_5_v3,2023.2.2,Win32,84.74576271,,,,,,,,,,,,,,,,440.4854,442.0294,442.0294,447.015,return,3.1072,,35.67708333,,,,,,FBP-YG-18.png,0.35,1.2,6,0.75,0,8,8,5,1,,,,,,,,,,,,,,,,,,,,,,,,,,,,,,,,,,,,,,,,
,,,,,V3_075,20,Female,2024-11-18_16h16.34.652,jersey_experiment_5_v3,2023.2.2,Win32,84.74576271,,,,,,,,,,,,,,,,447.0152,448.312,448.312,453.3681,return,1.5096,,30.859375,,,,,,FBP-OG-71.png,0.35,1.2,31,0.5,0,9,9,30,1,,,,,,,,,,,,,,,,,,,,,,,,,,,,,,,,,,,,,,,,
,,,,,V3_075,20,Female,2024-11-18_16h16.34.652,jersey_experiment_5_v3,2023.2.2,Win32,84.74576271,,,,,,,,,,,,,,,,453.3684,454.6621,454.6621,457.842,return,1.2327,,57.29166667,,,,,,FBP-OG-91.png,0.4,1.2,43,0.5,0,10,10,42,1,,,,,,,,,,,,,,,,,,,,,,,,,,,,,,,,,,,,,,,,
,,,,,V3_075,20,Female,2024-11-18_16h16.34.652,jersey_experiment_5_v3,2023.2.2,Win32,84.74576271,,,,,,,,,,,,,,,,457.8424,459.3949,459.3949,463.2862,return,2.7104,,74.08854167,,,,,,FBP-YG-18.png,0.43,1.2,9,0.75,0,11,11,8,1,,,,,,,,,,,,,,,,,,,,,,,,,,,,,,,,,,,,,,,,
,,,,,V3_075,20,Female,2024-11-18_16h16.34.652,jersey_experiment_5_v3,2023.2.2,Win32,84.74576271,,,,,,,,,,,,,,,,463.2864,464.8454,464.8454,467.5042,return,1.5529,,79.6875,,,,,,FBP-PT-91.png,0.43,1.2,29,0.75,0,12,12,28,1,,,,,,,,,,,,,,,,,,,,,,,,,,,,,,,,,,,,,,,,
,,,,,V3_075,20,Female,2024-11-18_16h16.34.652,jersey_experiment_5_v3,2023.2.2,Win32,84.74576271,,,,,,,,,,,,,,,,467.5042,469.051,469.051,471.9841,return,1.1177,,47.00520833,,,,,,FBP-RB-81.png,0.35,1.2,51,0.75,0,13,13,50,1,,,,,,,,,,,,,,,,,,,,,,,,,,,,,,,,,,,,,,,,
,,,,,V3_075,20,Female,2024-11-18_16h16.34.652,jersey_experiment_5_v3,2023.2.2,Win32,84.74576271,,,,,,,,,,,,,,,,471.9842,473.5368,473.5369,476.2574,return,1.0973,,64.58333333,,,,,,FBP-YG-17.png,0.43,1.2,4,0.75,0,14,14,3,1,,,,,,,,,,,,,,,,,,,,,,,,,,,,,,,,,,,,,,,,
,,,,,V3_075,20,Female,2024-11-18_16h16.34.652,jersey_experiment_5_v3,2023.2.2,Win32,84.74576271,,,,,,,,,,,,,,,,476.2574,477.5603,477.5603,484.7048,return,5.0368,,36.71875,,,,,,FBP-OG-91.png,0.35,1.2,41,0.5,0,15,15,40,1,,,,,,,,,,,,,,,,,,,,,,,,,,,,,,,,,,,,,,,,
,,,,,V3_075,20,Female,2024-11-18_16h16.34.652,jersey_experiment_5_v3,2023.2.2,Win32,84.74576271,,,,,,,,,,,,,,,,484.705,486.2517,486.2517,489.7019,return,1.3736,,91.796875,,,,,,FBP-RB-81.png,0.43,1.2,54,0.75,0,16,16,53,1,,,,,,,,,,,,,,,,,,,,,,,,,,,,,,,,,,,,,,,,
,,,,,V3_075,20,Female,2024-11-18_16h16.34.652,jersey_experiment_5_v3,2023.2.2,Win32,84.74576271,,,,,,,,,,,,,,,,489.702,490.9959,490.9959,494.361,return,1.2241,,91.796875,,,,,,FBP-OG-81.png,0.43,1.2,39,0.5,0,17,17,38,1,,,,,,,,,,,,,,,,,,,,,,,,,,,,,,,,,,,,,,,,
,,,,,V3_075,20,Female,2024-11-18_16h16.34.652,jersey_experiment_5_v3,2023.2.2,Win32,84.74576271,,,,,,,,,,,,,,,,494.3612,495.6549,495.6549,500.0207,return,1.9893,,64.71354167,,,,,,FBP-OG-91.png,0.37,1.2,42,0.5,0,18,18,41,1,,,,,,,,,,,,,,,,,,,,,,,,,,,,,,,,,,,,,,,,
,,,,,V3_075,20,Female,2024-11-18_16h16.34.652,jersey_experiment_5_v3,2023.2.2,Win32,84.74576271,,,,,,,,,,,,,,,,500.0208,501.317,501.3171,504.1173,return,1.3561,,74.47916667,,,,,,FBP-OG-71.png,0.43,1.2,34,0.5,0,19,19,33,1,,,,,,,,,,,,,,,,,,,,,,,,,,,,,,,,,,,,,,,,
,,,,,V3_075,20,Female,2024-11-18_16h16.34.652,jersey_experiment_5_v3,2023.2.2,Win32,84.74576271,,,,,,,,,,,,,,,,504.1174,505.664,505.6641,509.3648,return,2.2739,,81.25,,,,,,FBP-PT-71.png,0.45,1.2,20,0.75,0,20,20,19,1,,,,,,,,,,,,,,,,,,,,,,,,,,,,,,,,,,,,,,,,
,,,,,V3_075,20,Female,2024-11-18_16h16.34.652,jersey_experiment_5_v3,2023.2.2,Win32,84.74576271,,,,,,,,,,,,,,,,509.365,510.9114,510.9114,513.288,return,0.884,,49.86979167,,,,,,FBP-PT-81.png,0.37,1.2,22,0.75,0,21,21,21,1,,,,,,,,,,,,,,,,,,,,,,,,,,,,,,,,,,,,,,,,
,,,,,V3_075,20,Female,2024-11-18_16h16.34.652,jersey_experiment_5_v3,2023.2.2,Win32,84.74576271,,,,,,,,,,,,,,,,513.2882,514.5822,514.5822,517.5941,return,1.2105,,74.73958333,,,,,,FBP-OG-91.png,0.45,1.2,45,0.5,0,22,22,44,1,,,,,,,,,,,,,,,,,,,,,,,,,,,,,,,,,,,,,,,,
,,,,,V3_075,20,Female,2024-11-18_16h16.34.652,jersey_experiment_5_v3,2023.2.2,Win32,84.74576271,,,,,,,,,,,,,,,,517.5942,519.1383,519.1383,523.7001,return,2.3328,,79.55729167,,,,,,FBP-YG-19.png,0.43,1.2,14,0.75,0,23,23,13,1,,,,,,,,,,,,,,,,,,,,,,,,,,,,,,,,,,,,,,,,
,,,,,V3_075,20,Female,2024-11-18_16h16.34.652,jersey_experiment_5_v3,2023.2.2,Win32,84.74576271,,,,,,,,,,,,,,,,523.7004,525.2464,525.2464,528.0533,return,0.8962,,81.640625,,,,,,FBP-YG-19.png,0.45,1.2,15,0.75,0,24,24,14,1,,,,,,,,,,,,,,,,,,,,,,,,,,,,,,,,,,,,,,,,
,,,,,V3_075,20,Female,2024-11-18_16h16.34.652,jersey_experiment_5_v3,2023.2.2,Win32,84.74576271,,,,,,,,,,,,,,,,528.0535,529.5995,529.5996,532.9947,return,0.9137,,62.5,,,,,,FBP-PT-71.png,0.4,1.2,18,0.75,0,25,25,17,1,,,,,,,,,,,,,,,,,,,,,,,,,,,,,,,,,,,,,,,,
,,,,,V3_075,20,Female,2024-11-18_16h16.34.652,jersey_experiment_5_v3,2023.2.2,Win32,84.74576271,,,,,,,,,,,,,,,,532.9949,534.2887,534.2888,538.089,return,1.116,,41.66666667,,,,,,FBP-OG-81.png,0.37,1.2,37,0.5,0,26,26,36,1,,,,,,,,,,,,,,,,,,,,,,,,,,,,,,,,,,,,,,,,
,,,,,V3_075,20,Female,2024-11-18_16h16.34.652,jersey_experiment_5_v3,2023.2.2,Win32,84.74576271,,,,,,,,,,,,,,,,538.0892,539.645,539.645,543.6099,return,1.3991,,53.77604167,,,,,,FBP-RB-71.png,0.4,1.2,48,0.75,0,27,27,47,1,,,,,,,,,,,,,,,,,,,,,,,,,,,,,,,,,,,,,,,,
,,,,,V3_075,20,Female,2024-11-18_16h16.34.652,jersey_experiment_5_v3,2023.2.2,Win32,84.74576271,,,,,,,,,,,,,,,,543.6101,545.1629,545.1629,550.7992,return,3.6834,,61.97916667,,,,,,FBP-RB-71.png,0.43,1.2,49,0.75,0,28,28,48,1,,,,,,,,,,,,,,,,,,,,,,,,,,,,,,,,,,,,,,,,
,,,,,V3_075,20,Female,2024-11-18_16h16.34.652,jersey_experiment_5_v3,2023.2.2,Win32,84.74576271,,,,,,,,,,,,,,,,550.7994,552.3542,552.3543,554.1013,return,0.7465,,61.97916667,,,,,,FBP-PT-71.png,0.43,1.2,19,0.75,0,29,29,18,1,,,,,,,,,,,,,,,,,,,,,,,,,,,,,,,,,,,,,,,,
,,,,,V3_075,20,Female,2024-11-18_16h16.34.652,jersey_experiment_5_v3,2023.2.2,Win32,84.74576271,,,,,,,,,,,,,,,,554.1016,555.646,555.646,560.9016,return,3.7581,,31.38020833,,,,,,FBP-RB-71.png,0.35,1.2,46,0.75,0,30,30,45,1,,,,,,,,,,,,,,,,,,,,,,,,,,,,,,,,,,,,,,,,
,,,,,V3_075,20,Female,2024-11-18_16h16.34.652,jersey_experiment_5_v3,2023.2.2,Win32,84.74576271,,,,,,,,,,,,,,,,560.9019,562.4577,562.4577,565.6229,return,1.1889,,21.09375,,,,,,FBP-YG-17.png,0.35,1.2,1,0.75,0,31,31,0,1,,,,,,,,,,,,,,,,,,,,,,,,,,,,,,,,,,,,,,,,
,,,,,V3_075,20,Female,2024-11-18_16h16.34.652,jersey_experiment_5_v3,2023.2.2,Win32,84.74576271,,,,,,,,,,,,,,,,565.623,567.1724,567.1724,569.7253,return,1.0021,,20.44270833,,,,,,FBP-RB-91.png,0.37,1.2,57,0.75,0,32,32,56,1,,,,,,,,,,,,,,,,,,,,,,,,,,,,,,,,,,,,,,,,
,,,,,V3_075,20,Female,2024-11-18_16h16.34.652,jersey_experiment_5_v3,2023.2.2,Win32,84.74576271,,,,,,,,,,,,,,,,569.7256,571.2818,571.2818,574.188,return,1.0712,,75.13020833,,,,,,FBP-PT-81.png,0.45,1.2,25,0.75,0,33,33,24,1,,,,,,,,,,,,,,,,,,,,,,,,,,,,,,,,,,,,,,,,
,,,,,V3_075,20,Female,2024-11-18_16h16.34.652,jersey_experiment_5_v3,2023.2.2,Win32,84.74576271,,,,,,,,,,,,,,,,574.1882,575.4935,575.4935,580,return,2.2713,,35.41666667,,,,,,FBP-OG-81.png,0.35,1.2,36,0.5,0,34,34,35,1,,,,,,,,,,,,,,,,,,,,,,,,,,,,,,,,,,,,,,,,
,,,,,V3_075,20,Female,2024-11-18_16h16.34.652,jersey_experiment_5_v3,2023.2.2,Win32,84.74576271,,,,,,,,,,,,,,,,580.0002,581.3055,581.3055,584.5673,return,1.6015,,77.734375,,,,,,FBP-OG-71.png,0.45,1.2,35,0.5,0,35,35,34,1,,,,,,,,,,,,,,,,,,,,,,,,,,,,,,,,,,,,,,,,
,,,,,V3_075,20,Female,2024-11-18_16h16.34.652,jersey_experiment_5_v3,2023.2.2,Win32,84.74576271,,,,,,,,,,,,,,,,584.5675,586.1143,586.1144,590.6943,return,2.0946,,60.67708333,,,,,,FBP-RB-91.png,0.4,1.2,58,0.75,0,36,36,57,1,,,,,,,,,,,,,,,,,,,,,,,,,,,,,,,,,,,,,,,,
,,,,,V3_075,20,Female,2024-11-18_16h16.34.652,jersey_experiment_5_v3,2023.2.2,Win32,84.74576271,,,,,,,,,,,,,,,,590.6945,592.2439,592.244,595.0622,return,0.9882,,49.73958333,,,,,,FBP-RB-71.png,0.37,1.2,47,0.75,0,37,37,46,1,,,,,,,,,,,,,,,,,,,,,,,,,,,,,,,,,,,,,,,,
,,,,,V3_075,20,Female,2024-11-18_16h16.34.652,jersey_experiment_5_v3,2023.2.2,Win32,84.74576271,,,,,,,,,,,,,,,,595.0624,596.6088,596.6089,600.1032,return,1.5454,,76.171875,,,,,,FBP-RB-91.png,0.45,1.2,60,0.75,0,38,38,59,1,,,,,,,,,,,,,,,,,,,,,,,,,,,,,,,,,,,,,,,,
,,,,,V3_075,20,Female,2024-11-18_16h16.34.652,jersey_experiment_5_v3,2023.2.2,Win32,84.74576271,,,,,,,,,,,,,,,,600.1034,601.3998,601.3998,605.3201,return,1.0838,,30.20833333,,,,,,FBP-OG-71.png,0.37,1.2,32,0.5,0,39,39,31,1,,,,,,,,,,,,,,,,,,,,,,,,,,,,,,,,,,,,,,,,
,,,,,V3_075,20,Female,2024-11-18_16h16.34.652,jersey_experiment_5_v3,2023.2.2,Win32,84.74576271,,,,,,,,,,,,,,,,605.3202,606.6149,606.615,610.5203,return,1.5668,,72.13541667,,,,,,FBP-OG-91.png,0.43,1.2,44,0.5,0,40,40,43,1,,,,,,,,,,,,,,,,,,,,,,,,,,,,,,,,,,,,,,,,
,,,,,V3_075,20,Female,2024-11-18_16h16.34.652,jersey_experiment_5_v3,2023.2.2,Win32,84.74576271,,,,,,,,,,,,,,,,610.5205,612.0682,612.0683,615.5332,return,1.8735,,89.19270833,,,,,,FBP-PT-91.png,0.45,1.2,30,0.75,0,41,41,29,1,,,,,,,,,,,,,,,,,,,,,,,,,,,,,,,,,,,,,,,,
,,,,,V3_075,20,Female,2024-11-18_16h16.34.652,jersey_experiment_5_v3,2023.2.2,Win32,84.74576271,,,,,,,,,,,,,,,,615.5333,617.0802,617.0803,620.4602,return,1.5635,,28.90625,,,,,,FBP-PT-71.png,0.35,1.2,16,0.75,0,42,42,15,1,,,,,,,,,,,,,,,,,,,,,,,,,,,,,,,,,,,,,,,,
,,,,,V3_075,20,Female,2024-11-18_16h16.34.652,jersey_experiment_5_v3,2023.2.2,Win32,84.74576271,,,,,,,,,,,,,,,,620.4603,622.0024,622.0024,626.4602,return,3.1765,,35.28645833,,,,,,FBP-PT-71.png,0.37,1.2,17,0.75,0,43,43,16,1,,,,,,,,,,,,,,,,,,,,,,,,,,,,,,,,,,,,,,,,
,,,,,V3_075,20,Female,2024-11-18_16h16.34.652,jersey_experiment_5_v3,2023.2.2,Win32,84.74576271,,,,,,,,,,,,,,,,626.4604,628.0048,628.0048,630.9548,return,0.9035,,50,,,,,,FBP-YG-18.png,0.4,1.2,8,0.75,0,44,44,7,1,,,,,,,,,,,,,,,,,,,,,,,,,,,,,,,,,,,,,,,,
,,,,,V3_075,20,Female,2024-11-18_16h16.34.652,jersey_experiment_5_v3,2023.2.2,Win32,84.74576271,,,,,,,,,,,,,,,,630.955,632.4984,632.4984,634.8608,return,0.8577,,50.390625,,,,,,FBP-YG-17.png,0.4,1.2,3,0.75,0,45,45,2,1,,,,,,,,,,,,,,,,,,,,,,,,,,,,,,,,,,,,,,,,
,,,,,V3_075,20,Female,2024-11-18_16h16.34.652,jersey_experiment_5_v3,2023.2.2,Win32,84.74576271,,,,,,,,,,,,,,,,634.8609,636.4103,636.4103,638.9986,return,0.9812,,74.34895833,,,,,,FBP-RB-81.png,0.45,1.2,55,0.75,0,46,46,54,1,,,,,,,,,,,,,,,,,,,,,,,,,,,,,,,,,,,,,,,,
,,,,,V3_075,20,Female,2024-11-18_16h16.34.652,jersey_experiment_5_v3,2023.2.2,Win32,84.74576271,,,,,,,,,,,,,,,,638.9989,640.5432,640.5433,643.0725,return,0.8472,,50,,,,,,FBP-YG-19.png,0.37,1.2,12,0.75,0,47,47,11,1,,,,,,,,,,,,,,,,,,,,,,,,,,,,,,,,,,,,,,,,
,,,,,V3_075,20,Female,2024-11-18_16h16.34.652,jersey_experiment_5_v3,2023.2.2,Win32,84.74576271,,,,,,,,,,,,,,,,643.0727,644.6166,644.6166,647.3991,return,1.1697,,80.859375,,,,,,FBP-RB-71.png,0.45,1.2,50,0.75,0,48,48,49,1,,,,,,,,,,,,,,,,,,,,,,,,,,,,,,,,,,,,,,,,
,,,,,V3_075,20,Female,2024-11-18_16h16.34.652,jersey_experiment_5_v3,2023.2.2,Win32,84.74576271,,,,,,,,,,,,,,,,647.3993,648.9519,648.952,652.4614,return,2.0007,,31.38020833,,,,,,FBP-PT-91.png,0.37,1.2,27,0.75,0,49,49,26,1,,,,,,,,,,,,,,,,,,,,,,,,,,,,,,,,,,,,,,,,
,,,,,V3_075,20,Female,2024-11-18_16h16.34.652,jersey_experiment_5_v3,2023.2.2,Win32,84.74576271,,,,,,,,,,,,,,,,652.4616,653.7547,653.7548,656.7438,return,0.8475,,49.47916667,,,,,,FBP-OG-81.png,0.4,1.2,38,0.5,0,50,50,37,1,,,,,,,,,,,,,,,,,,,,,,,,,,,,,,,,,,,,,,,,
,,,,,V3_075,20,Female,2024-11-18_16h16.34.652,jersey_experiment_5_v3,2023.2.2,Win32,84.74576271,,,,,,,,,,,,,,,,656.744,658.0514,658.0514,661.3642,return,1.1918,,77.47395833,,,,,,FBP-OG-81.png,0.45,1.2,40,0.5,0,51,51,39,1,,,,,,,,,,,,,,,,,,,,,,,,,,,,,,,,,,,,,,,,
,,,,,V3_075,20,Female,2024-11-18_16h16.34.652,jersey_experiment_5_v3,2023.2.2,Win32,84.74576271,,,,,,,,,,,,,,,,661.3644,662.9086,662.9087,665.8501,return,1.7764,,86.19791667,,,,,,FBP-YG-17.png,0.45,1.2,5,0.75,0,52,52,4,1,,,,,,,,,,,,,,,,,,,,,,,,,,,,,,,,,,,,,,,,
,,,,,V3_075,20,Female,2024-11-18_16h16.34.652,jersey_experiment_5_v3,2023.2.2,Win32,84.74576271,,,,,,,,,,,,,,,,665.8503,667.4028,667.4028,673.3327,return,3.8831,,41.40625,,,,,,FBP-PT-81.png,0.4,1.2,23,0.75,0,53,53,22,1,,,,,,,,,,,,,,,,,,,,,,,,,,,,,,,,,,,,,,,,
,,,,,V3_075,20,Female,2024-11-18_16h16.34.652,jersey_experiment_5_v3,2023.2.2,Win32,84.74576271,,,,,,,,,,,,,,,,673.3328,674.8856,674.8856,682.2036,return,5.3269,,62.890625,,,,,,FBP-PT-81.png,0.43,1.2,24,0.75,0,54,54,23,1,,,,,,,,,,,,,,,,,,,,,,,,,,,,,,,,,,,,,,,,
,,,,,V3_075,20,Female,2024-11-18_16h16.34.652,jersey_experiment_5_v3,2023.2.2,Win32,84.74576271,,,,,,,,,,,,,,,,682.2039,683.5061,683.5061,688.7131,return,1.4509,,50.13020833,,,,,,FBP-OG-71.png,0.4,1.2,33,0.5,0,55,55,32,1,,,,,,,,,,,,,,,,,,,,,,,,,,,,,,,,,,,,,,,,
,,,,,V3_075,20,Female,2024-11-18_16h16.34.652,jersey_experiment_5_v3,2023.2.2,Win32,84.74576271,,,,,,,,,,,,,,,,688.7132,690.2594,690.2595,695.6303,return,3.5443,,32.29166667,,,,,,FBP-YG-19.png,0.35,1.2,11,0.75,0,56,56,10,1,,,,,,,,,,,,,,,,,,,,,,,,,,,,,,,,,,,,,,,,
,,,,,V3_075,20,Female,2024-11-18_16h16.34.652,jersey_experiment_5_v3,2023.2.2,Win32,84.74576271,,,,,,,,,,,,,,,,695.6304,697.1806,697.1806,701.7656,return,1.9927,,38.93229167,,,,,,FBP-RB-91.png,0.35,1.2,56,0.75,0,57,57,55,1,,,,,,,,,,,,,,,,,,,,,,,,,,,,,,,,,,,,,,,,
,,,,,V3_075,20,Female,2024-11-18_16h16.34.652,jersey_experiment_5_v3,2023.2.2,Win32,84.74576271,,,,,,,,,,,,,,,,701.7659,703.3237,703.3237,706.3459,return,1.0124,,49.86979167,,,,,,FBP-YG-17.png,0.37,1.2,2,0.75,0,58,58,1,1,,,,,,,,,,,,,,,,,,,,,,,,,,,,,,,,,,,,,,,,
,,,,,V3_075,20,Female,2024-11-18_16h16.34.652,jersey_experiment_5_v3,2023.2.2,Win32,84.74576271,,,,,,,,,,,,,,,,706.346,707.8987,707.8987,711.4876,return,1.2834,,44.140625,,,,,,FBP-PT-81.png,0.35,1.2,21,0.75,0,59,59,20,1,,,,,,,,,,,,,,,,,,,,,,,,,,,,,,,,,,,,,,,,
,,,,,V3_075,20,Female,2024-11-18_16h16.34.652,jersey_experiment_5_v3,2023.2.2,Win32,84.74576271,,,,,,,,,,,,,,,,,,,,,,,,,,,,,,,,,,,,,,,711.4877,831.4926,,,,,,,,,,,,,,,,,,,,,,,,,,,,,,,,,,,,,,
,,,,,V3_075,20,Female,2024-11-18_16h16.34.652,jersey_experiment_5_v3,2023.2.2,Win32,84.74576271,,,,,,,,,,,,,,,,,,,,,,,,,,,,,,,,,,,,,,,,,831.4926,836.7239,return,5.2189,,,,,,,,,,,,,,,,,,,,,,,,,,,,,,,,,,
,,,,,V3_075,20,Female,2024-11-18_16h16.34.652,jersey_experiment_5_v3,2023.2.2,Win32,84.74576271,,,,,,,,,,,,,,,,836.7252,838.0206,838.0206,841.2921,return,1.1382,,74.609375,,,,,,FBP-YG-91.png,0.43,1.2,14,0.5,,,,,,,,,,,,,0,0,0,13,1,,,,,,,,,,,,,,,,,,,,,,,,,,,,
,,,,,V3_075,20,Female,2024-11-18_16h16.34.652,jersey_experiment_5_v3,2023.2.2,Win32,84.74576271,,,,,,,,,,,,,,,,841.2923,842.5859,842.5859,845.8301,return,1.6042,,78.77604167,,,,,,FBP-RB-19.png,0.45,1.2,60,0.5,,,,,,,,,,,,,0,1,1,59,1,,,,,,,,,,,,,,,,,,,,,,,,,,,,
,,,,,V3_075,20,Female,2024-11-18_16h16.34.652,jersey_experiment_5_v3,2023.2.2,Win32,84.74576271,,,,,,,,,,,,,,,,845.8303,847.1241,847.1241,852.2238,return,3.3319,,30.72916667,,,,,,FBP-PT-19.png,0.35,1.2,26,0.5,,,,,,,,,,,,,0,2,2,25,1,,,,,,,,,,,,,,,,,,,,,,,,,,,,
,,,,,V3_075,20,Female,2024-11-18_16h16.34.652,jersey_experiment_5_v3,2023.2.2,Win32,84.74576271,,,,,,,,,,,,,,,,852.2238,853.5274,853.5274,856.3649,return,1.0728,,49.73958333,,,,,,FBP-RB-18.png,0.4,1.2,53,0.5,,,,,,,,,,,,,0,3,3,52,1,,,,,,,,,,,,,,,,,,,,,,,,,,,,
,,,,,V3_075,20,Female,2024-11-18_16h16.34.652,jersey_experiment_5_v3,2023.2.2,Win32,84.74576271,,,,,,,,,,,,,,,,856.365,857.9172,857.9172,861.3074,return,1.1681,,49.73958333,,,,,,FBP-OG-18.png,0.4,1.2,38,0.75,,,,,,,,,,,,,0,4,4,37,1,,,,,,,,,,,,,,,,,,,,,,,,,,,,
,,,,,V3_075,20,Female,2024-11-18_16h16.34.652,jersey_experiment_5_v3,2023.2.2,Win32,84.74576271,,,,,,,,,,,,,,,,861.3075,862.8576,862.8576,867.3633,return,1.6474,,37.23958333,,,,,,FBP-OG-18.png,0.37,1.2,37,0.75,,,,,,,,,,,,,0,5,5,36,1,,,,,,,,,,,,,,,,,,,,,,,,,,,,
,,,,,V3_075,20,Female,2024-11-18_16h16.34.652,jersey_experiment_5_v3,2023.2.2,Win32,84.74576271,,,,,,,,,,,,,,,,867.3635,868.6697,868.6697,872.3902,return,1.4352,,74.86979167,,,,,,FBP-PT-17.png,0.45,1.2,20,0.5,,,,,,,,,,,,,0,6,6,19,1,,,,,,,,,,,,,,,,,,,,,,,,,,,,
,,,,,V3_075,20,Female,2024-11-18_16h16.34.652,jersey_experiment_5_v3,2023.2.2,Win32,84.74576271,,,,,,,,,,,,,,,,872.3904,873.6845,873.6846,877.7488,return,1.1232,,62.109375,,,,,,FBP-YG-71.png,0.4,1.2,3,0.5,,,,,,,,,,,,,0,7,7,2,1,,,,,,,,,,,,,,,,,,,,,,,,,,,,
,,,,,V3_075,20,Female,2024-11-18_16h16.34.652,jersey_experiment_5_v3,2023.2.2,Win32,84.74576271,,,,,,,,,,,,,,,,877.7492,879.3053,879.3053,882.0828,return,0.9779,,62.36979167,,,,,,FBP-OG-17.png,0.4,1.2,33,0.75,,,,,,,,,,,,,0,8,8,32,1,,,,,,,,,,,,,,,,,,,,,,,,,,,,
,,,,,V3_075,20,Female,2024-11-18_16h16.34.652,jersey_experiment_5_v3,2023.2.2,Win32,84.74576271,,,,,,,,,,,,,,,,882.0829,883.3785,883.3785,886.5878,return,1.3181,,68.359375,,,,,,FBP-RB-19.png,0.4,1.2,58,0.5,,,,,,,,,,,,,0,9,9,57,1,,,,,,,,,,,,,,,,,,,,,,,,,,,,
,,,,,V3_075,20,Female,2024-11-18_16h16.34.652,jersey_experiment_5_v3,2023.2.2,Win32,84.74576271,,,,,,,,,,,,,,,,886.5881,888.1375,888.1375,891.929,return,1.6819,,40.49479167,,,,,,FBP-OG-19.png,0.35,1.2,41,0.75,,,,,,,,,,,,,0,10,10,40,1,,,,,,,,,,,,,,,,,,,,,,,,,,,,
,,,,,V3_075,20,Female,2024-11-18_16h16.34.652,jersey_experiment_5_v3,2023.2.2,Win32,84.74576271,,,,,,,,,,,,,,,,891.9291,893.2378,893.2378,896.8707,return,0.9889,,38.54166667,,,,,,FBP-RB-19.png,0.35,1.2,56,0.5,,,,,,,,,,,,,0,11,11,55,1,,,,,,,,,,,,,,,,,,,,,,,,,,,,
,,,,,V3_075,20,Female,2024-11-18_16h16.34.652,jersey_experiment_5_v3,2023.2.2,Win32,84.74576271,,,,,,,,,,,,,,,,896.8709,898.1766,898.1767,901.4713,return,1.2685,,67.05729167,,,,,,FBP-YG-91.png,0.4,1.2,13,0.5,,,,,,,,,,,,,0,12,12,12,1,,,,,,,,,,,,,,,,,,,,,,,,,,,,
,,,,,V3_075,20,Female,2024-11-18_16h16.34.652,jersey_experiment_5_v3,2023.2.2,Win32,84.74576271,,,,,,,,,,,,,,,,901.4715,903.0204,903.0204,907.1892,return,1.6685,,74.609375,,,,,,FBP-OG-19.png,0.43,1.2,44,0.75,,,,,,,,,,,,,0,13,13,43,1,,,,,,,,,,,,,,,,,,,,,,,,,,,,
,,,,,V3_075,20,Female,2024-11-18_16h16.34.652,jersey_experiment_5_v3,2023.2.2,Win32,84.74576271,,,,,,,,,,,,,,,,907.1893,908.4838,908.4838,912.3384,return,0.9494,,42.31770833,,,,,,FBP-RB-18.png,0.35,1.2,51,0.5,,,,,,,,,,,,,0,14,14,50,1,,,,,,,,,,,,,,,,,,,,,,,,,,,,
,,,,,V3_075,20,Female,2024-11-18_16h16.34.652,jersey_experiment_5_v3,2023.2.2,Win32,84.74576271,,,,,,,,,,,,,,,,912.3385,913.8826,913.8826,915.8916,return,0.818,,42.1875,,,,,,FBP-OG-17.png,0.35,1.2,31,0.75,,,,,,,,,,,,,0,15,15,30,1,,,,,,,,,,,,,,,,,,,,,,,,,,,,
,,,,,V3_075,20,Female,2024-11-18_16h16.34.652,jersey_experiment_5_v3,2023.2.2,Win32,84.74576271,,,,,,,,,,,,,,,,915.8919,917.4479,917.4479,919.6714,return,0.7769,,42.1875,,,,,,FBP-OG-18.png,0.35,1.2,36,0.75,,,,,,,,,,,,,0,16,16,35,1,,,,,,,,,,,,,,,,,,,,,,,,,,,,
,,,,,V3_075,20,Female,2024-11-18_16h16.34.652,jersey_experiment_5_v3,2023.2.2,Win32,84.74576271,,,,,,,,,,,,,,,,919.6716,920.9655,920.9655,923.8597,return,0.918,,74.73958333,,,,,,FBP-RB-17.png,0.43,1.2,49,0.5,,,,,,,,,,,,,0,17,17,48,1,,,,,,,,,,,,,,,,,,,,,,,,,,,,
,,,,,V3_075,20,Female,2024-11-18_16h16.34.652,jersey_experiment_5_v3,2023.2.2,Win32,84.74576271,,,,,,,,,,,,,,,,923.8599,925.1657,925.1658,928.3774,return,1.1766,,83.59375,,,,,,FBP-RB-17.png,0.45,1.2,50,0.5,,,,,,,,,,,,,0,18,18,49,1,,,,,,,,,,,,,,,,,,,,,,,,,,,,
,,,,,V3_075,20,Female,2024-11-18_16h16.34.652,jersey_experiment_5_v3,2023.2.2,Win32,84.74576271,,,,,,,,,,,,,,,,928.3775,929.6714,929.6715,933.1899,return,1.0242,,80.20833333,,,,,,FBP-PT-17.png,0.43,1.2,19,0.5,,,,,,,,,,,,,0,19,19,18,1,,,,,,,,,,,,,,,,,,,,,,,,,,,,
,,,,,V3_075,20,Female,2024-11-18_16h16.34.652,jersey_experiment_5_v3,2023.2.2,Win32,84.74576271,,,,,,,,,,,,,,,,933.19,934.4867,934.4867,937.625,return,1.3527,,49.73958333,,,,,,FBP-RB-17.png,0.4,1.2,48,0.5,,,,,,,,,,,,,0,20,20,47,1,,,,,,,,,,,,,,,,,,,,,,,,,,,,
,,,,,V3_075,20,Female,2024-11-18_16h16.34.652,jersey_experiment_5_v3,2023.2.2,Win32,84.74576271,,,,,,,,,,,,,,,,937.6252,938.934,938.934,941.7083,return,0.8931,,74.609375,,,,,,FBP-RB-19.png,0.43,1.2,59,0.5,,,,,,,,,,,,,0,21,21,58,1,,,,,,,,,,,,,,,,,,,,,,,,,,,,
,,,,,V3_075,20,Female,2024-11-18_16h16.34.652,jersey_experiment_5_v3,2023.2.2,Win32,84.74576271,,,,,,,,,,,,,,,,941.7085,943.0044,943.0044,951.3084,return,6.3423,,31.90104167,,,,,,FBP-PT-18.png,0.35,1.2,21,0.5,,,,,,,,,,,,,0,22,22,20,1,,,,,,,,,,,,,,,,,,,,,,,,,,,,
,,,,,V3_075,20,Female,2024-11-18_16h16.34.652,jersey_experiment_5_v3,2023.2.2,Win32,84.74576271,,,,,,,,,,,,,,,,951.3086,952.6135,952.6135,954.9048,return,0.6843,,24.86979167,,,,,,FBP-YG-81.png,0.35,1.2,6,0.5,,,,,,,,,,,,,0,23,23,5,1,,,,,,,,,,,,,,,,,,,,,,,,,,,,
,,,,,V3_075,20,Female,2024-11-18_16h16.34.652,jersey_experiment_5_v3,2023.2.2,Win32,84.74576271,,,,,,,,,,,,,,,,954.9049,956.4493,956.4493,959.7813,return,1.3557,,61.06770833,,,,,,FBP-OG-19.png,0.4,1.2,43,0.75,,,,,,,,,,,,,0,24,24,42,1,,,,,,,,,,,,,,,,,,,,,,,,,,,,
,,,,,V3_075,20,Female,2024-11-18_16h16.34.652,jersey_experiment_5_v3,2023.2.2,Win32,84.74576271,,,,,,,,,,,,,,,,959.7815,961.3319,961.3319,966.4733,return,1.9624,,79.296875,,,,,,FBP-OG-17.png,0.43,1.2,34,0.75,,,,,,,,,,,,,0,25,25,33,1,,,,,,,,,,,,,,,,,,,,,,,,,,,,
,,,,,V3_075,20,Female,2024-11-18_16h16.34.652,jersey_experiment_5_v3,2023.2.2,Win32,84.74576271,,,,,,,,,,,,,,,,966.4735,967.7809,967.781,971.0965,return,1.4818,,81.51041667,,,,,,FBP-PT-18.png,0.45,1.2,25,0.5,,,,,,,,,,,,,0,26,26,24,1,,,,,,,,,,,,,,,,,,,,,,,,,,,,
,,,,,V3_075,20,Female,2024-11-18_16h16.34.652,jersey_experiment_5_v3,2023.2.2,Win32,84.74576271,,,,,,,,,,,,,,,,971.0966,972.4029,972.403,976.0737,return,2.1528,,84.375,,,,,,FBP-YG-91.png,0.45,1.2,15,0.5,,,,,,,,,,,,,0,27,27,14,1,,,,,,,,,,,,,,,,,,,,,,,,,,,,
,,,,,V3_075,20,Female,2024-11-18_16h16.34.652,jersey_experiment_5_v3,2023.2.2,Win32,84.74576271,,,,,,,,,,,,,,,,976.0739,977.3796,977.3796,980.936,return,1.6243,,50.13020833,,,,,,FBP-YG-81.png,0.4,1.2,8,0.5,,,,,,,,,,,,,0,28,28,7,1,,,,,,,,,,,,,,,,,,,,,,,,,,,,
,,,,,V3_075,20,Female,2024-11-18_16h16.34.652,jersey_experiment_5_v3,2023.2.2,Win32,84.74576271,,,,,,,,,,,,,,,,980.9361,982.2296,982.2296,986.5915,return,1.8467,,75.13020833,,,,,,FBP-RB-18.png,0.45,1.2,55,0.5,,,,,,,,,,,,,0,29,29,54,1,,,,,,,,,,,,,,,,,,,,,,,,,,,,
,,,,,V3_075,20,Female,2024-11-18_16h16.34.652,jersey_experiment_5_v3,2023.2.2,Win32,84.74576271,,,,,,,,,,,,,,,,986.5917,988.136,988.136,991.0299,return,1.3901,,75,,,,,,FBP-OG-18.png,0.43,1.2,39,0.75,,,,,,,,,,,,,0,30,30,38,1,,,,,,,,,,,,,,,,,,,,,,,,,,,,
,,,,,V3_075,20,Female,2024-11-18_16h16.34.652,jersey_experiment_5_v3,2023.2.2,Win32,84.74576271,,,,,,,,,,,,,,,,991.03,992.3239,992.3239,996.4402,return,1.6604,,40.75520833,,,,,,FBP-YG-91.png,0.37,1.2,12,0.5,,,,,,,,,,,,,0,31,31,11,1,,,,,,,,,,,,,,,,,,,,,,,,,,,,
,,,,,V3_075,20,Female,2024-11-18_16h16.34.652,jersey_experiment_5_v3,2023.2.2,Win32,84.74576271,,,,,,,,,,,,,,,,996.4404,997.9889,997.9889,1000.0511,return,0.7861,,43.22916667,,,,,,FBP-OG-19.png,0.37,1.2,42,0.75,,,,,,,,,,,,,0,32,32,41,1,,,,,,,,,,,,,,,,,,,,,,,,,,,,
,,,,,V3_075,20,Female,2024-11-18_16h16.34.652,jersey_experiment_5_v3,2023.2.2,Win32,84.74576271,,,,,,,,,,,,,,,,1000.0513,1001.3449,1001.3449,1003.7359,return,1.0969,,43.22916667,,,,,,FBP-PT-18.png,0.4,1.2,23,0.5,,,,,,,,,,,,,0,33,33,22,1,,,,,,,,,,,,,,,,,,,,,,,,,,,,
,,,,,V3_075,20,Female,2024-11-18_16h16.34.652,jersey_experiment_5_v3,2023.2.2,Win32,84.74576271,,,,,,,,,,,,,,,,1003.7361,1005.028,1005.028,1008.9212,return,1.5395,,72.52604167,,,,,,FBP-PT-19.png,0.43,1.2,29,0.5,,,,,,,,,,,,,0,34,34,28,1,,,,,,,,,,,,,,,,,,,,,,,,,,,,
,,,,,V3_075,20,Female,2024-11-18_16h16.34.652,jersey_experiment_5_v3,2023.2.2,Win32,84.74576271,,,,,,,,,,,,,,,,1008.9213,1010.2127,1010.2127,1013.854,return,1.0498,,41.015625,,,,,,FBP-YG-81.png,0.37,1.2,7,0.5,,,,,,,,,,,,,0,35,35,6,1,,,,,,,,,,,,,,,,,,,,,,,,,,,,
,,,,,V3_075,20,Female,2024-11-18_16h16.34.652,jersey_experiment_5_v3,2023.2.2,Win32,84.74576271,,,,,,,,,,,,,,,,1013.8542,1015.1459,1015.146,1018.0901,return,1.1552,,69.921875,,,,,,FBP-YG-71.png,0.43,1.2,4,0.5,,,,,,,,,,,,,0,36,36,3,1,,,,,,,,,,,,,,,,,,,,,,,,,,,,
,,,,,V3_075,20,Female,2024-11-18_16h16.34.652,jersey_experiment_5_v3,2023.2.2,Win32,84.74576271,,,,,,,,,,,,,,,,1018.0903,1019.6365,1019.6366,1026.7108,return,4.9413,,48.17708333,,,,,,FBP-OG-17.png,0.37,1.2,32,0.75,,,,,,,,,,,,,0,37,37,31,1,,,,,,,,,,,,,,,,,,,,,,,,,,,,
,,,,,V3_075,20,Female,2024-11-18_16h16.34.652,jersey_experiment_5_v3,2023.2.2,Win32,84.74576271,,,,,,,,,,,,,,,,1026.7109,1028.0169,1028.0169,1031.902,return,1.5063,,59.63541667,,,,,,FBP-PT-19.png,0.4,1.2,28,0.5,,,,,,,,,,,,,0,38,38,27,1,,,,,,,,,,,,,,,,,,,,,,,,,,,,
,,,,,V3_075,20,Female,2024-11-18_16h16.34.652,jersey_experiment_5_v3,2023.2.2,Win32,84.74576271,,,,,,,,,,,,,,,,1031.9021,1033.1951,1033.1951,1036.466,return,1.4122,,49.609375,,,,,,FBP-PT-17.png,0.37,1.2,17,0.5,,,,,,,,,,,,,0,39,39,16,1,,,,,,,,,,,,,,,,,,,,,,,,,,,,
,,,,,V3_075,20,Female,2024-11-18_16h16.34.652,jersey_experiment_5_v3,2023.2.2,Win32,84.74576271,,,,,,,,,,,,,,,,1036.4662,1037.7587,1037.7587,1041.4169,return,1.609,,75.26041667,,,,,,FBP-RB-18.png,0.43,1.2,54,0.5,,,,,,,,,,,,,0,40,40,53,1,,,,,,,,,,,,,,,,,,,,,,,,,,,,
,,,,,V3_075,20,Female,2024-11-18_16h16.34.652,jersey_experiment_5_v3,2023.2.2,Win32,84.74576271,,,,,,,,,,,,,,,,1041.4171,1042.7111,1042.7112,1046.473,return,1.31,,50,,,,,,FBP-PT-19.png,0.37,1.2,27,0.5,,,,,,,,,,,,,0,41,41,26,1,,,,,,,,,,,,,,,,,,,,,,,,,,,,
,,,,,V3_075,20,Female,2024-11-18_16h16.34.652,jersey_experiment_5_v3,2023.2.2,Win32,84.74576271,,,,,,,,,,,,,,,,1046.4732,1047.7701,1047.7702,1051.1585,return,1.1528,,50.13020833,,,,,,FBP-YG-91.png,0.35,1.2,11,0.5,,,,,,,,,,,,,0,42,42,10,1,,,,,,,,,,,,,,,,,,,,,,,,,,,,
,,,,,V3_075,20,Female,2024-11-18_16h16.34.652,jersey_experiment_5_v3,2023.2.2,Win32,84.74576271,,,,,,,,,,,,,,,,1051.1587,1052.7016,1052.7016,1055.9587,return,1.1062,,74.86979167,,,,,,FBP-OG-17.png,0.45,1.2,35,0.75,,,,,,,,,,,,,0,43,43,34,1,,,,,,,,,,,,,,,,,,,,,,,,,,,,
,,,,,V3_075,20,Female,2024-11-18_16h16.34.652,jersey_experiment_5_v3,2023.2.2,Win32,84.74576271,,,,,,,,,,,,,,,,1055.9589,1057.5116,1057.5116,1059.3944,return,0.9986,,75.13020833,,,,,,FBP-OG-19.png,0.45,1.2,45,0.75,,,,,,,,,,,,,0,44,44,44,1,,,,,,,,,,,,,,,,,,,,,,,,,,,,
,,,,,V3_075,20,Female,2024-11-18_16h16.34.652,jersey_experiment_5_v3,2023.2.2,Win32,84.74576271,,,,,,,,,,,,,,,,1059.3945,1060.703,1060.703,1063.9592,return,1.329,,75.13020833,,,,,,FBP-PT-19.png,0.45,1.2,30,0.5,,,,,,,,,,,,,0,45,45,29,1,,,,,,,,,,,,,,,,,,,,,,,,,,,,
,,,,,V3_075,20,Female,2024-11-18_16h16.34.652,jersey_experiment_5_v3,2023.2.2,Win32,84.74576271,,,,,,,,,,,,,,,,1063.9593,1065.5008,1065.5008,1068.1613,return,1.0113,,75.13020833,,,,,,FBP-OG-18.png,0.45,1.2,40,0.75,,,,,,,,,,,,,0,46,46,39,1,,,,,,,,,,,,,,,,,,,,,,,,,,,,
,,,,,V3_075,20,Female,2024-11-18_16h16.34.652,jersey_experiment_5_v3,2023.2.2,Win32,84.74576271,,,,,,,,,,,,,,,,1068.1615,1069.4654,1069.4654,1072.1478,return,1.0208,,75.13020833,,,,,,FBP-PT-18.png,0.43,1.2,24,0.5,,,,,,,,,,,,,0,47,47,23,1,,,,,,,,,,,,,,,,,,,,,,,,,,,,
,,,,,V3_075,20,Female,2024-11-18_16h16.34.652,jersey_experiment_5_v3,2023.2.2,Win32,84.74576271,,,,,,,,,,,,,,,,1072.148,1073.4567,1073.4568,1077.5741,return,1.9443,,49.86979167,,,,,,FBP-RB-18.png,0.37,1.2,52,0.5,,,,,,,,,,,,,0,48,48,51,1,,,,,,,,,,,,,,,,,,,,,,,,,,,,
,,,,,V3_075,20,Female,2024-11-18_16h16.34.652,jersey_experiment_5_v3,2023.2.2,Win32,84.74576271,,,,,,,,,,,,,,,,1077.5742,1078.8774,1078.8774,1081.4656,return,0.9985,,49.609375,,,,,,FBP-RB-19.png,0.37,1.2,57,0.5,,,,,,,,,,,,,0,49,49,56,1,,,,,,,,,,,,,,,,,,,,,,,,,,,,
,,,,,V3_075,20,Female,2024-11-18_16h16.34.652,jersey_experiment_5_v3,2023.2.2,Win32,84.74576271,,,,,,,,,,,,,,,,1081.4658,1082.7592,1082.7593,1086.4455,return,1.38,,72.13541667,,,,,,FBP-YG-71.png,0.45,1.2,5,0.5,,,,,,,,,,,,,0,50,50,4,1,,,,,,,,,,,,,,,,,,,,,,,,,,,,
,,,,,V3_075,20,Female,2024-11-18_16h16.34.652,jersey_experiment_5_v3,2023.2.2,Win32,84.74576271,,,,,,,,,,,,,,,,1086.4456,1087.7384,1087.7384,1091.1738,return,1.4021,,76.171875,,,,,,FBP-YG-81.png,0.45,1.2,10,0.5,,,,,,,,,,,,,0,51,51,9,1,,,,,,,,,,,,,,,,,,,,,,,,,,,,
,,,,,V3_075,20,Female,2024-11-18_16h16.34.652,jersey_experiment_5_v3,2023.2.2,Win32,84.74576271,,,,,,,,,,,,,,,,1091.174,1092.4685,1092.4685,1095.6228,return,1.2481,,79.55729167,,,,,,FBP-YG-81.png,0.43,1.2,9,0.5,,,,,,,,,,,,,0,52,52,8,1,,,,,,,,,,,,,,,,,,,,,,,,,,,,
,,,,,V3_075,20,Female,2024-11-18_16h16.34.652,jersey_experiment_5_v3,2023.2.2,Win32,84.74576271,,,,,,,,,,,,,,,,1095.6229,1096.9158,1096.9158,1100.3742,return,1.3551,,47.265625,,,,,,FBP-PT-17.png,0.35,1.2,16,0.5,,,,,,,,,,,,,0,53,53,15,1,,,,,,,,,,,,,,,,,,,,,,,,,,,,
,,,,,V3_075,20,Female,2024-11-18_16h16.34.652,jersey_experiment_5_v3,2023.2.2,Win32,84.74576271,,,,,,,,,,,,,,,,1100.3744,1101.6667,1101.6667,1106.1851,return,2.1777,,57.94270833,,,,,,FBP-PT-17.png,0.4,1.2,18,0.5,,,,,,,,,,,,,0,54,54,17,1,,,,,,,,,,,,,,,,,,,,,,,,,,,,
,,,,,V3_075,20,Female,2024-11-18_16h16.34.652,jersey_experiment_5_v3,2023.2.2,Win32,84.74576271,,,,,,,,,,,,,,,,1106.1854,1107.479,1107.479,1110.8078,return,1.1061,,52.86458333,,,,,,FBP-RB-17.png,0.37,1.2,47,0.5,,,,,,,,,,,,,0,55,55,46,1,,,,,,,,,,,,,,,,,,,,,,,,,,,,
,,,,,V3_075,20,Female,2024-11-18_16h16.34.652,jersey_experiment_5_v3,2023.2.2,Win32,84.74576271,,,,,,,,,,,,,,,,1110.8079,1112.102,1112.102,1115.5611,return,1.0592,,56.640625,,,,,,FBP-PT-18.png,0.37,1.2,22,0.5,,,,,,,,,,,,,0,56,56,21,1,,,,,,,,,,,,,,,,,,,,,,,,,,,,
,,,,,V3_075,20,Female,2024-11-18_16h16.34.652,jersey_experiment_5_v3,2023.2.2,Win32,84.74576271,,,,,,,,,,,,,,,,1115.5613,1116.8699,1116.8699,1120.5262,return,1.7652,,49.34895833,,,,,,FBP-YG-71.png,0.35,1.2,1,0.5,,,,,,,,,,,,,0,57,57,0,1,,,,,,,,,,,,,,,,,,,,,,,,,,,,
,,,,,V3_075,20,Female,2024-11-18_16h16.34.652,jersey_experiment_5_v3,2023.2.2,Win32,84.74576271,,,,,,,,,,,,,,,,1120.5264,1121.8201,1121.8201,1125.3967,return,2.1505,,61.19791667,,,,,,FBP-YG-71.png,0.37,1.2,2,0.5,,,,,,,,,,,,,0,58,58,1,1,,,,,,,,,,,,,,,,,,,,,,,,,,,,
,,,,,V3_075,20,Female,2024-11-18_16h16.34.652,jersey_experiment_5_v3,2023.2.2,Win32,84.74576271,,,,,,,,,,,,,,,,1125.3968,1126.703,1126.703,1128.6679,return,0.6832,,61.06770833,,,,,,FBP-RB-17.png,0.35,1.2,46,0.5,,,,,,,,,,,,,0,59,59,45,1,,,,,,,,,,,,,,,,,,,,,,,,,,,,
,,,,,V3_075,20,Female,2024-11-18_16h16.34.652,jersey_experiment_5_v3,2023.2.2,Win32,84.74576271,,,,,,,,,,,,,,,,1128.6691,1129.9619,1129.9619,1134.2121,return,1.5064,,75.65104167,,,,,,FBP-PT-91.png,0.45,1.2,30,0.5,,,,,,,,,,,,,,,,,,0,0,0,29,1,,,,,,,,,,,,,,,,,,,,,,,
,,,,,V3_075,20,Female,2024-11-18_16h16.34.652,jersey_experiment_5_v3,2023.2.2,Win32,84.74576271,,,,,,,,,,,,,,,,1134.2124,1135.5146,1135.5146,1138.7757,return,0.9551,,49.86979167,,,,,,FBP-YG-18.png,0.35,1.2,6,0.5,,,,,,,,,,,,,,,,,,0,1,1,5,1,,,,,,,,,,,,,,,,,,,,,,,
,,,,,V3_075,20,Female,2024-11-18_16h16.34.652,jersey_experiment_5_v3,2023.2.2,Win32,84.74576271,,,,,,,,,,,,,,,,1138.7757,1140.0705,1140.0705,1143.1769,return,1.1678,,75.13020833,,,,,,FBP-PT-91.png,0.43,1.2,29,0.5,,,,,,,,,,,,,,,,,,0,2,2,28,1,,,,,,,,,,,,,,,,,,,,,,,
,,,,,V3_075,20,Female,2024-11-18_16h16.34.652,jersey_experiment_5_v3,2023.2.2,Win32,84.74576271,,,,,,,,,,,,,,,,1143.177,1144.4797,1144.4798,1147.4125,return,1.7565,,75,,,,,,FBP-PT-71.png,0.43,1.2,19,0.5,,,,,,,,,,,,,,,,,,0,3,3,18,1,,,,,,,,,,,,,,,,,,,,,,,
,,,,,V3_075,20,Female,2024-11-18_16h16.34.652,jersey_experiment_5_v3,2023.2.2,Win32,84.74576271,,,,,,,,,,,,,,,,1147.4127,1148.7066,1148.7066,1152.3301,return,1.2952,,80.98958333,,,,,,FBP-RB-71.png,0.45,1.2,50,0.5,,,,,,,,,,,,,,,,,,0,4,4,49,1,,,,,,,,,,,,,,,,,,,,,,,
,,,,,V3_075,20,Female,2024-11-18_16h16.34.652,jersey_experiment_5_v3,2023.2.2,Win32,84.74576271,,,,,,,,,,,,,,,,1152.3302,1153.6243,1153.6243,1158.6921,return,2.6356,,68.48958333,,,,,,FBP-RB-71.png,0.4,1.2,48,0.5,,,,,,,,,,,,,,,,,,0,5,5,47,1,,,,,,,,,,,,,,,,,,,,,,,
,,,,,V3_075,20,Female,2024-11-18_16h16.34.652,jersey_experiment_5_v3,2023.2.2,Win32,84.74576271,,,,,,,,,,,,,,,,1158.6922,1160.0011,1160.0011,1163.4348,return,0.9546,,68.88020833,,,,,,FBP-RB-91.png,0.4,1.2,58,0.5,,,,,,,,,,,,,,,,,,0,6,6,57,1,,,,,,,,,,,,,,,,,,,,,,,
,,,,,V3_075,20,Female,2024-11-18_16h16.34.652,jersey_experiment_5_v3,2023.2.2,Win32,84.74576271,,,,,,,,,,,,,,,,1163.4349,1164.7293,1164.7294,1167.0924,return,1.0355,,68.88020833,,,,,,FBP-YG-18.png,0.4,1.2,8,0.5,,,,,,,,,,,,,,,,,,0,7,7,7,1,,,,,,,,,,,,,,,,,,,,,,,
,,,,,V3_075,20,Female,2024-11-18_16h16.34.652,jersey_experiment_5_v3,2023.2.2,Win32,84.74576271,,,,,,,,,,,,,,,,1167.0925,1168.3987,1168.3987,1170.8461,return,1.1188,,68.88020833,,,,,,FBP-YG-19.png,0.4,1.2,13,0.5,,,,,,,,,,,,,,,,,,0,8,8,12,1,,,,,,,,,,,,,,,,,,,,,,,
,,,,,V3_075,20,Female,2024-11-18_16h16.34.652,jersey_experiment_5_v3,2023.2.2,Win32,84.74576271,,,,,,,,,,,,,,,,1170.8462,1172.1424,1172.1424,1174.481,return,0.8943,,68.88020833,,,,,,FBP-PT-71.png,0.37,1.2,17,0.5,,,,,,,,,,,,,,,,,,0,9,9,16,1,,,,,,,,,,,,,,,,,,,,,,,
,,,,,V3_075,20,Female,2024-11-18_16h16.34.652,jersey_experiment_5_v3,2023.2.2,Win32,84.74576271,,,,,,,,,,,,,,,,1174.4812,1176.034,1176.034,1178.9756,return,1.059,,74.73958333,,,,,,FBP-OG-81.png,0.43,1.2,39,0.75,,,,,,,,,,,,,,,,,,0,10,10,38,1,,,,,,,,,,,,,,,,,,,,,,,
,,,,,V3_075,20,Female,2024-11-18_16h16.34.652,jersey_experiment_5_v3,2023.2.2,Win32,84.74576271,,,,,,,,,,,,,,,,1178.9757,1180.5281,1180.5281,1183.296,return,1.1533,,44.79166667,,,,,,FBP-OG-71.png,0.35,1.2,31,0.75,,,,,,,,,,,,,,,,,,0,11,11,30,1,,,,,,,,,,,,,,,,,,,,,,,
,,,,,V3_075,20,Female,2024-11-18_16h16.34.652,jersey_experiment_5_v3,2023.2.2,Win32,84.74576271,,,,,,,,,,,,,,,,1183.2962,1184.5877,1184.5878,1187.9297,return,1.2604,,43.359375,,,,,,FBP-YG-18.png,0.37,1.2,7,0.5,,,,,,,,,,,,,,,,,,0,12,12,6,1,,,,,,,,,,,,,,,,,,,,,,,
,,,,,V3_075,20,Female,2024-11-18_16h16.34.652,jersey_experiment_5_v3,2023.2.2,Win32,84.74576271,,,,,,,,,,,,,,,,1187.9299,1189.2247,1189.2248,1191.9874,return,1.1297,,50.13020833,,,,,,FBP-PT-91.png,0.37,1.2,27,0.5,,,,,,,,,,,,,,,,,,0,13,13,26,1,,,,,,,,,,,,,,,,,,,,,,,
,,,,,V3_075,20,Female,2024-11-18_16h16.34.652,jersey_experiment_5_v3,2023.2.2,Win32,84.74576271,,,,,,,,,,,,,,,,1191.9876,1193.2966,1193.2966,1196.7876,return,1.5296,,81.38020833,,,,,,FBP-RB-91.png,0.45,1.2,60,0.5,,,,,,,,,,,,,,,,,,0,14,14,59,1,,,,,,,,,,,,,,,,,,,,,,,
,,,,,V3_075,20,Female,2024-11-18_16h16.34.652,jersey_experiment_5_v3,2023.2.2,Win32,84.74576271,,,,,,,,,,,,,,,,1196.7878,1198.3317,1198.3317,1200.8353,return,0.8823,,87.36979167,,,,,,FBP-OG-91.png,0.45,1.2,45,0.75,,,,,,,,,,,,,,,,,,0,15,15,44,1,,,,,,,,,,,,,,,,,,,,,,,
,,,,,V3_075,20,Female,2024-11-18_16h16.34.652,jersey_experiment_5_v3,2023.2.2,Win32,84.74576271,,,,,,,,,,,,,,,,1200.8355,1202.1437,1202.1437,1205.7527,return,1.1768,,80.98958333,,,,,,FBP-RB-81.png,0.45,1.2,55,0.5,,,,,,,,,,,,,,,,,,0,16,16,54,1,,,,,,,,,,,,,,,,,,,,,,,
,,,,,V3_075,20,Female,2024-11-18_16h16.34.652,jersey_experiment_5_v3,2023.2.2,Win32,84.74576271,,,,,,,,,,,,,,,,1205.7528,1207.0619,1207.0619,1210.1183,return,1.095,,85.546875,,,,,,FBP-YG-17.png,0.45,1.2,5,0.5,,,,,,,,,,,,,,,,,,0,17,17,4,1,,,,,,,,,,,,,,,,,,,,,,,
,,,,,V3_075,20,Female,2024-11-18_16h16.34.652,jersey_experiment_5_v3,2023.2.2,Win32,84.74576271,,,,,,,,,,,,,,,,1210.1185,1211.413,1211.413,1214.8355,return,1.0703,,32.29166667,,,,,,FBP-YG-19.png,0.35,1.2,11,0.5,,,,,,,,,,,,,,,,,,0,18,18,10,1,,,,,,,,,,,,,,,,,,,,,,,
,,,,,V3_075,20,Female,2024-11-18_16h16.34.652,jersey_experiment_5_v3,2023.2.2,Win32,84.74576271,,,,,,,,,,,,,,,,1214.8357,1216.3792,1216.3793,1220.3184,return,1.6097,,36.97916667,,,,,,FBP-OG-71.png,0.37,1.2,32,0.75,,,,,,,,,,,,,,,,,,0,19,19,31,1,,,,,,,,,,,,,,,,,,,,,,,
,,,,,V3_075,20,Female,2024-11-18_16h16.34.652,jersey_experiment_5_v3,2023.2.2,Win32,84.74576271,,,,,,,,,,,,,,,,1220.3186,1221.6121,1221.6122,1225.6122,return,1.765,,74.86979167,,,,,,FBP-YG-18.png,0.45,1.2,10,0.5,,,,,,,,,,,,,,,,,,0,20,20,9,1,,,,,,,,,,,,,,,,,,,,,,,
,,,,,V3_075,20,Female,2024-11-18_16h16.34.652,jersey_experiment_5_v3,2023.2.2,Win32,84.74576271,,,,,,,,,,,,,,,,1225.6123,1227.1555,1227.1555,1230.3889,return,1.6474,,42.83854167,,,,,,FBP-OG-91.png,0.37,1.2,42,0.75,,,,,,,,,,,,,,,,,,0,21,21,41,1,,,,,,,,,,,,,,,,,,,,,,,
,,,,,V3_075,20,Female,2024-11-18_16h16.34.652,jersey_experiment_5_v3,2023.2.2,Win32,84.74576271,,,,,,,,,,,,,,,,1230.3891,1231.6833,1231.6834,1234.8832,return,1.0355,,52.34375,,,,,,FBP-PT-81.png,0.4,1.2,23,0.5,,,,,,,,,,,,,,,,,,0,22,22,22,1,,,,,,,,,,,,,,,,,,,,,,,
,,,,,V3_075,20,Female,2024-11-18_16h16.34.652,jersey_experiment_5_v3,2023.2.2,Win32,84.74576271,,,,,,,,,,,,,,,,1234.8833,1236.1921,1236.1921,1238.6865,return,0.9799,,52.21354167,,,,,,FBP-YG-17.png,0.4,1.2,3,0.5,,,,,,,,,,,,,,,,,,0,23,23,2,1,,,,,,,,,,,,,,,,,,,,,,,
,,,,,V3_075,20,Female,2024-11-18_16h16.34.652,jersey_experiment_5_v3,2023.2.2,Win32,84.74576271,,,,,,,,,,,,,,,,1238.6866,1240.2394,1240.2394,1243.8398,return,2.1198,,71.74479167,,,,,,FBP-OG-71.png,0.45,1.2,35,0.75,,,,,,,,,,,,,,,,,,0,24,24,34,1,,,,,,,,,,,,,,,,,,,,,,,
,,,,,V3_075,20,Female,2024-11-18_16h16.34.652,jersey_experiment_5_v3,2023.2.2,Win32,84.74576271,,,,,,,,,,,,,,,,1243.84,1245.1428,1245.1428,1248.5865,return,1.4938,,45.05208333,,,,,,FBP-PT-81.png,0.35,1.2,21,0.5,,,,,,,,,,,,,,,,,,0,25,25,20,1,,,,,,,,,,,,,,,,,,,,,,,
,,,,,V3_075,20,Female,2024-11-18_16h16.34.652,jersey_experiment_5_v3,2023.2.2,Win32,84.74576271,,,,,,,,,,,,,,,,1248.5868,1250.1453,1250.1455,1253.19,return,0.9414,,53.125,,,,,,FBP-OG-81.png,0.37,1.2,37,0.75,,,,,,,,,,,,,,,,,,0,26,26,36,1,,,,,,,,,,,,,,,,,,,,,,,
,,,,,V3_075,20,Female,2024-11-18_16h16.34.652,jersey_experiment_5_v3,2023.2.2,Win32,84.74576271,,,,,,,,,,,,,,,,1253.1902,1254.7397,1254.7397,1258.1202,return,1.6688,,73.95833333,,,,,,FBP-OG-91.png,0.43,1.2,44,0.75,,,,,,,,,,,,,,,,,,0,27,27,43,1,,,,,,,,,,,,,,,,,,,,,,,
,,,,,V3_075,20,Female,2024-11-18_16h16.34.652,jersey_experiment_5_v3,2023.2.2,Win32,84.74576271,,,,,,,,,,,,,,,,1258.1203,1259.4254,1259.4255,1263.9581,return,1.7564,,59.63541667,,,,,,FBP-YG-17.png,0.37,1.2,2,0.5,,,,,,,,,,,,,,,,,,0,28,28,1,1,,,,,,,,,,,,,,,,,,,,,,,
,,,,,V3_075,20,Female,2024-11-18_16h16.34.652,jersey_experiment_5_v3,2023.2.2,Win32,84.74576271,,,,,,,,,,,,,,,,1263.9582,1265.2608,1265.2608,1267.9801,return,0.9075,,68.359375,,,,,,FBP-RB-81.png,0.4,1.2,53,0.5,,,,,,,,,,,,,,,,,,0,29,29,52,1,,,,,,,,,,,,,,,,,,,,,,,
,,,,,V3_075,20,Female,2024-11-18_16h16.34.652,jersey_experiment_5_v3,2023.2.2,Win32,84.74576271,,,,,,,,,,,,,,,,1267.9802,1269.2746,1269.2747,1273.0816,return,1.681,,80.33854167,,,,,,FBP-PT-71.png,0.45,1.2,20,0.5,,,,,,,,,,,,,,,,,,0,30,30,19,1,,,,,,,,,,,,,,,,,,,,,,,
,,,,,V3_075,20,Female,2024-11-18_16h16.34.652,jersey_experiment_5_v3,2023.2.2,Win32,84.74576271,,,,,,,,,,,,,,,,1273.0818,1274.3757,1274.3758,1277.0644,return,1.0138,,32.94270833,,,,,,FBP-PT-91.png,0.35,1.2,26,0.5,,,,,,,,,,,,,,,,,,0,31,31,25,1,,,,,,,,,,,,,,,,,,,,,,,
,,,,,V3_075,20,Female,2024-11-18_16h16.34.652,jersey_experiment_5_v3,2023.2.2,Win32,84.74576271,,,,,,,,,,,,,,,,1277.0646,1278.3674,1278.3674,1281.134,return,1.0134,,37.63020833,,,,,,FBP-PT-81.png,0.37,1.2,22,0.5,,,,,,,,,,,,,,,,,,0,32,32,21,1,,,,,,,,,,,,,,,,,,,,,,,
,,,,,V3_075,20,Female,2024-11-18_16h16.34.652,jersey_experiment_5_v3,2023.2.2,Win32,84.74576271,,,,,,,,,,,,,,,,1281.1341,1282.4265,1282.4265,1285.0938,return,1.311,,37.63020833,,,,,,FBP-RB-71.png,0.35,1.2,46,0.5,,,,,,,,,,,,,,,,,,0,33,33,45,1,,,,,,,,,,,,,,,,,,,,,,,
,,,,,V3_075,20,Female,2024-11-18_16h16.34.652,jersey_experiment_5_v3,2023.2.2,Win32,84.74576271,,,,,,,,,,,,,,,,1285.0941,1286.391,1286.391,1289.5799,return,1.3773,,31.640625,,,,,,FBP-RB-81.png,0.35,1.2,51,0.5,,,,,,,,,,,,,,,,,,0,34,34,50,1,,,,,,,,,,,,,,,,,,,,,,,
,,,,,V3_075,20,Female,2024-11-18_16h16.34.652,jersey_experiment_5_v3,2023.2.2,Win32,84.74576271,,,,,,,,,,,,,,,,1289.58,1290.8765,1290.8766,1292.8622,return,0.6446,,31.640625,,,,,,FBP-RB-91.png,0.35,1.2,56,0.5,,,,,,,,,,,,,,,,,,0,35,35,55,1,,,,,,,,,,,,,,,,,,,,,,,
,,,,,V3_075,20,Female,2024-11-18_16h16.34.652,jersey_experiment_5_v3,2023.2.2,Win32,84.74576271,,,,,,,,,,,,,,,,1292.8624,1294.1681,1294.1681,1296.9474,return,1.2473,,68.48958333,,,,,,FBP-PT-81.png,0.43,1.2,24,0.5,,,,,,,,,,,,,,,,,,0,36,36,23,1,,,,,,,,,,,,,,,,,,,,,,,
,,,,,V3_075,20,Female,2024-11-18_16h16.34.652,jersey_experiment_5_v3,2023.2.2,Win32,84.74576271,,,,,,,,,,,,,,,,1296.9476,1298.4994,1298.4994,1301.4002,return,1.1313,,71.35416667,,,,,,FBP-OG-71.png,0.4,1.2,33,0.75,,,,,,,,,,,,,,,,,,0,37,37,32,1,,,,,,,,,,,,,,,,,,,,,,,
,,,,,V3_075,20,Female,2024-11-18_16h16.34.652,jersey_experiment_5_v3,2023.2.2,Win32,84.74576271,,,,,,,,,,,,,,,,1301.4005,1302.6944,1302.6944,1305.8638,return,1.2693,,67.05729167,,,,,,FBP-PT-71.png,0.35,1.2,16,0.5,,,,,,,,,,,,,,,,,,0,38,38,15,1,,,,,,,,,,,,,,,,,,,,,,,
,,,,,V3_075,20,Female,2024-11-18_16h16.34.652,jersey_experiment_5_v3,2023.2.2,Win32,84.74576271,,,,,,,,,,,,,,,,1305.8639,1307.1685,1307.1686,1310.8292,return,1.3897,,76.953125,,,,,,FBP-PT-81.png,0.45,1.2,25,0.5,,,,,,,,,,,,,,,,,,0,39,39,24,1,,,,,,,,,,,,,,,,,,,,,,,
,,,,,V3_075,20,Female,2024-11-18_16h16.34.652,jersey_experiment_5_v3,2023.2.2,Win32,84.74576271,,,,,,,,,,,,,,,,1310.8294,1312.3772,1312.3773,1315.9601,return,2.0388,,67.1875,,,,,,FBP-OG-91.png,0.35,1.2,41,0.75,,,,,,,,,,,,,,,,,,0,40,40,40,1,,,,,,,,,,,,,,,,,,,,,,,
,,,,,V3_075,20,Female,2024-11-18_16h16.34.652,jersey_experiment_5_v3,2023.2.2,Win32,84.74576271,,,,,,,,,,,,,,,,1315.9602,1317.2598,1317.2598,1320.7305,return,1.0459,,77.08333333,,,,,,FBP-YG-17.png,0.43,1.2,4,0.5,,,,,,,,,,,,,,,,,,0,41,41,3,1,,,,,,,,,,,,,,,,,,,,,,,
,,,,,V3_075,20,Female,2024-11-18_16h16.34.652,jersey_experiment_5_v3,2023.2.2,Win32,84.74576271,,,,,,,,,,,,,,,,1320.7307,1322.2751,1322.2751,1325.1895,return,1.2646,,70.44270833,,,,,,FBP-OG-91.png,0.4,1.2,43,0.75,,,,,,,,,,,,,,,,,,0,42,42,42,1,,,,,,,,,,,,,,,,,,,,,,,
,,,,,V3_075,20,Female,2024-11-18_16h16.34.652,jersey_experiment_5_v3,2023.2.2,Win32,84.74576271,,,,,,,,,,,,,,,,1325.1897,1326.4836,1326.4837,1330.5949,return,1.9907,,77.734375,,,,,,FBP-YG-19.png,0.43,1.2,14,0.5,,,,,,,,,,,,,,,,,,0,43,43,13,1,,,,,,,,,,,,,,,,,,,,,,,
,,,,,V3_075,20,Female,2024-11-18_16h16.34.652,jersey_experiment_5_v3,2023.2.2,Win32,84.74576271,,,,,,,,,,,,,,,,1330.5951,1332.1462,1332.1462,1335.9428,return,1.5456,,72.78645833,,,,,,FBP-OG-81.png,0.4,1.2,38,0.75,,,,,,,,,,,,,,,,,,0,44,44,37,1,,,,,,,,,,,,,,,,,,,,,,,
,,,,,V3_075,20,Female,2024-11-18_16h16.34.652,jersey_experiment_5_v3,2023.2.2,Win32,84.74576271,,,,,,,,,,,,,,,,1335.9431,1337.2399,1337.2399,1341.4606,return,1.3476,,61.328125,,,,,,FBP-RB-71.png,0.37,1.2,47,0.5,,,,,,,,,,,,,,,,,,0,45,45,46,1,,,,,,,,,,,,,,,,,,,,,,,
,,,,,V3_075,20,Female,2024-11-18_16h16.34.652,jersey_experiment_5_v3,2023.2.2,Win32,84.74576271,,,,,,,,,,,,,,,,1341.4609,1342.7599,1342.7599,1346.4172,return,1.6003,,83.72395833,,,,,,FBP-YG-19.png,0.45,1.2,15,0.5,,,,,,,,,,,,,,,,,,0,46,46,14,1,,,,,,,,,,,,,,,,,,,,,,,
,,,,,V3_075,20,Female,2024-11-18_16h16.34.652,jersey_experiment_5_v3,2023.2.2,Win32,84.74576271,,,,,,,,,,,,,,,,1346.4173,1347.7234,1347.7234,1350.6288,return,1.3414,,82.29166667,,,,,,FBP-RB-91.png,0.43,1.2,59,0.5,,,,,,,,,,,,,,,,,,0,47,47,58,1,,,,,,,,,,,,,,,,,,,,,,,
,,,,,V3_075,20,Female,2024-11-18_16h16.34.652,jersey_experiment_5_v3,2023.2.2,Win32,84.74576271,,,,,,,,,,,,,,,,1350.6289,1351.9228,1351.9228,1364.2911,return,9.9672,,65.10416667,,,,,,FBP-RB-91.png,0.37,1.2,57,0.5,,,,,,,,,,,,,,,,,,0,48,48,56,1,,,,,,,,,,,,,,,,,,,,,,,
,,,,,V3_075,20,Female,2024-11-18_16h16.34.652,jersey_experiment_5_v3,2023.2.2,Win32,84.74576271,,,,,,,,,,,,,,,,1364.2913,1365.8381,1365.8381,1368.4798,return,1.2388,,67.83854167,,,,,,FBP-OG-71.png,0.43,1.2,34,0.75,,,,,,,,,,,,,,,,,,0,49,49,33,1,,,,,,,,,,,,,,,,,,,,,,,
,,,,,V3_075,20,Female,2024-11-18_16h16.34.652,jersey_experiment_5_v3,2023.2.2,Win32,84.74576271,,,,,,,,,,,,,,,,1368.48,1369.7793,1369.7794,1373.0264,return,1.4087,,70.05208333,,,,,,FBP-RB-81.png,0.43,1.2,54,0.5,,,,,,,,,,,,,,,,,,0,50,50,53,1,,,,,,,,,,,,,,,,,,,,,,,
,,,,,V3_075,20,Female,2024-11-18_16h16.34.652,jersey_experiment_5_v3,2023.2.2,Win32,84.74576271,,,,,,,,,,,,,,,,1373.0266,1374.3207,1374.3208,1377.4768,return,1.5387,,33.85416667,,,,,,FBP-RB-81.png,0.37,1.2,52,0.5,,,,,,,,,,,,,,,,,,0,51,51,51,1,,,,,,,,,,,,,,,,,,,,,,,
,,,,,V3_075,20,Female,2024-11-18_16h16.34.652,jersey_experiment_5_v3,2023.2.2,Win32,84.74576271,,,,,,,,,,,,,,,,1377.4769,1379.0207,1379.0207,1381.43,return,1.0593,,75.26041667,,,,,,FBP-OG-81.png,0.45,1.2,40,0.75,,,,,,,,,,,,,,,,,,0,52,52,39,1,,,,,,,,,,,,,,,,,,,,,,,
,,,,,V3_075,20,Female,2024-11-18_16h16.34.652,jersey_experiment_5_v3,2023.2.2,Win32,84.74576271,,,,,,,,,,,,,,,,1381.4301,1382.7241,1382.7241,1385.6891,return,1.5533,,72.91666667,,,,,,FBP-YG-18.png,0.43,1.2,9,0.5,,,,,,,,,,,,,,,,,,0,53,53,8,1,,,,,,,,,,,,,,,,,,,,,,,
,,,,,V3_075,20,Female,2024-11-18_16h16.34.652,jersey_experiment_5_v3,2023.2.2,Win32,84.74576271,,,,,,,,,,,,,,,,1385.6892,1386.9829,1386.9829,1391.5714,return,3.5062,,75.91145833,,,,,,FBP-RB-71.png,0.43,1.2,49,0.5,,,,,,,,,,,,,,,,,,0,54,54,48,1,,,,,,,,,,,,,,,,,,,,,,,
,,,,,V3_075,20,Female,2024-11-18_16h16.34.652,jersey_experiment_5_v3,2023.2.2,Win32,84.74576271,,,,,,,,,,,,,,,,1391.5716,1392.8658,1392.8658,1395.209,return,0.8227,,62.890625,,,,,,FBP-PT-91.png,0.4,1.2,28,0.5,,,,,,,,,,,,,,,,,,0,55,55,27,1,,,,,,,,,,,,,,,,,,,,,,,
,,,,,V3_075,20,Female,2024-11-18_16h16.34.652,jersey_experiment_5_v3,2023.2.2,Win32,84.74576271,,,,,,,,,,,,,,,,1395.2091,1396.5127,1396.5128,1400.8189,return,2.8797,,50,,,,,,FBP-YG-19.png,0.37,1.2,12,0.5,,,,,,,,,,,,,,,,,,0,56,56,11,1,,,,,,,,,,,,,,,,,,,,,,,
,,,,,V3_075,20,Female,2024-11-18_16h16.34.652,jersey_experiment_5_v3,2023.2.2,Win32,84.74576271,,,,,,,,,,,,,,,,1400.8191,1402.1131,1402.1132,1404.0344,return,0.7535,,49.47916667,,,,,,FBP-PT-71.png,0.4,1.2,18,0.5,,,,,,,,,,,,,,,,,,0,57,57,17,1,,,,,,,,,,,,,,,,,,,,,,,
,,,,,V3_075,20,Female,2024-11-18_16h16.34.652,jersey_experiment_5_v3,2023.2.2,Win32,84.74576271,,,,,,,,,,,,,,,,1404.0345,1405.5855,1405.5856,1408.0867,return,1.1224,,41.40625,,,,,,FBP-OG-81.png,0.35,1.2,36,0.75,,,,,,,,,,,,,,,,,,0,58,58,35,1,,,,,,,,,,,,,,,,,,,,,,,
,,,,,V3_075,20,Female,2024-11-18_16h16.34.652,jersey_experiment_5_v3,2023.2.2,Win32,84.74576271,,,,,,,,,,,,,,,,1408.0869,1409.3808,1409.3809,1411.4697,return,0.7788,,38.02083333,,,,,,FBP-YG-17.png,0.35,1.2,1,0.5,,,,,,,,,,,,,,,,,,0,59,59,0,1,,,,,,,,,,,,,,,,,,,,,,,
,,,,,V3_075,20,Female,2024-11-18_16h16.34.652,jersey_experiment_5_v3,2023.2.2,Win32,84.74576271,,,,,,,,,,,,,,,,,,,,,,,,,,,,,,,,,,,,,,,,,,,,,,,,,,,,,,,,1411.4697,1417.1152,return,5.637,,,,,,,,,,,,,,,,,,,
,,,,,V3_075,20,Female,2024-11-18_16h16.34.652,jersey_experiment_5_v3,2023.2.2,Win32,84.74576271,,,,,,,,,,,,,,,,,,,,,,,,,,,,,,,,,,,,,,,,,,,,,,,,,,,,,,,,,,,,,1417.1152,1421.7373,1,2.2602,return,2.3529,,,,,,,,,,,,
,,,,,V3_075,20,Female,2024-11-18_16h16.34.652,jersey_experiment_5_v3,2023.2.2,Win32,84.74576271,,,,,,,,,,,,,,,,,,,,,,,,,,,,,,,,,,,,,,,,,,,,,,,,,,,,,,,,,,,,,,,,,,,,1421.7373,1476.6192,How big you rated black vs white players?,right,43.2114,,,,,,
,,,,,V3_075,20,Female,2024-11-18_16h16.34.652,jersey_experiment_5_v3,2023.2.2,Win32,84.74576271,,,,,,,,,,,,,,,,,,,,,,,,,,,,,,,,,,,,,,,,,,,,,,,,,,,,,,,,,,,,,,,,,,,,,,,,,,1476.6192,1482.0108,return,5.3771,