requirements.started,requirements.stopped,key_resp_3.keys,key_resp_3.rt,key_resp_3.duration,Subject ID,Age,Gender,date,expName,psychopyVersion,OS,frameRate,instructions1.started,instructions1.stopped,key_resp.keys,key_resp.rt,key_resp.duration,example.started,example.stopped,enter_2.keys,enter_2.rt,enter_2.duration,instructions2.started,instructions2.stopped,enter_3.keys,enter_3.rt,enter_3.duration,image.started,image.stopped,slider_2.started,slider_2.stopped,next.keys,next.rt,next.duration,slider.response,trial_block_1.thisRepN,trial_block_1.thisTrialN,trial_block_1.thisN,trial_block_1.thisIndex,trial_block_1.ran,Path,Width,Height,Index,Duration,trial_block_2.thisRepN,trial_block_2.thisTrialN,trial_block_2.thisN,trial_block_2.thisIndex,trial_block_2.ran,rest_break.started,rest_break.stopped,end_break.started,end_break.stopped,key_resp_5.keys,key_resp_5.rt,key_resp_5.duration,trial_block_3.thisRepN,trial_block_3.thisTrialN,trial_block_3.thisN,trial_block_3.thisIndex,trial_block_3.ran,trial_block_4.thisRepN,trial_block_4.thisTrialN,trial_block_4.thisN,trial_block_4.thisIndex,trial_block_4.ran,questions_intro.started,questions_intro.stopped,enter_12.keys,enter_12.rt,enter_12.duration,question2.started,question2.stopped,question_doingbest.response,question_doingbest.rt,enter_15.keys,enter_15.rt,enter_15.duration,pattern.started,pattern.stopped,pattern_2.text,enter_17.keys,enter_17.rt,enter_17.duration,thankyou.started,thankyou.stopped,enter_14.keys,enter_14.rt,enter_14.duration
0,7.9625,return,7.9581,,V3_081,21,Female,2024-11-20_16h46.23.219,jersey_experiment_5_v3,2023.2.2,Win32,84.03361345,,,,,,,,,,,,,,,,,,,,,,,,,,,,,,,,,,,,,,,,,,,,,,,,,,,,,,,,,,,,,,,,,,,,,,,,,,,,,,
,,,,,V3_081,21,Female,2024-11-20_16h46.23.219,jersey_experiment_5_v3,2023.2.2,Win32,84.03361345,7.9625,15.3895,return,7.4117,,,,,,,,,,,,,,,,,,,,,,,,,,,,,,,,,,,,,,,,,,,,,,,,,,,,,,,,,,,,,,,,,,,,,,,,,,
,,,,,V3_081,21,Female,2024-11-20_16h46.23.219,jersey_experiment_5_v3,2023.2.2,Win32,84.03361345,,,,,,15.3895,19.7748,return,4.352,,,,,,,,,,,,,,,,,,,,,,,,,,,,,,,,,,,,,,,,,,,,,,,,,,,,,,,,,,,,,,,,,,,,,
,,,,,V3_081,21,Female,2024-11-20_16h46.23.219,jersey_experiment_5_v3,2023.2.2,Win32,84.03361345,,,,,,,,,,,19.7748,32.7635,return,12.9821,,,,,,,,,,,,,,,,,,,,,,,,,,,,,,,,,,,,,,,,,,,,,,,,,,,,,,,,,,,,,,,,
,,,,,V3_081,21,Female,2024-11-20_16h46.23.219,jersey_experiment_5_v3,2023.2.2,Win32,84.03361345,,,,,,,,,,,,,,,,32.7659,34.0577,34.0578,37.7285,return,0.6007,,74.47916667,0,0,0,34,1,FBP-OG-17.png,0.45,1.2,35,0.5,,,,,,,,,,,,,,,,,,,,,,,,,,,,,,,,,,,,,,,,,,,,,
,,,,,V3_081,21,Female,2024-11-20_16h46.23.219,jersey_experiment_5_v3,2023.2.2,Win32,84.03361345,,,,,,,,,,,,,,,,37.7288,39.2813,39.2814,40.9756,return,0.1917,,25,0,1,1,52,1,FBP-RB-18.png,0.4,1.2,53,0.75,,,,,,,,,,,,,,,,,,,,,,,,,,,,,,,,,,,,,,,,,,,,,
,,,,,V3_081,21,Female,2024-11-20_16h46.23.219,jersey_experiment_5_v3,2023.2.2,Win32,84.03361345,,,,,,,,,,,,,,,,40.9758,42.5285,42.5286,43.9638,return,0.2426,,24.609375,0,2,2,16,1,FBP-PT-17.png,0.37,1.2,17,0.75,,,,,,,,,,,,,,,,,,,,,,,,,,,,,,,,,,,,,,,,,,,,,
,,,,,V3_081,21,Female,2024-11-20_16h46.23.219,jersey_experiment_5_v3,2023.2.2,Win32,84.03361345,,,,,,,,,,,,,,,,43.9639,45.5052,45.5052,65.8118,return,0.463,,7.03125,0,3,3,51,1,FBP-RB-18.png,0.37,1.2,52,0.75,,,,,,,,,,,,,,,,,,,,,,,,,,,,,,,,,,,,,,,,,,,,,
,,,,,V3_081,21,Female,2024-11-20_16h46.23.219,jersey_experiment_5_v3,2023.2.2,Win32,84.03361345,,,,,,,,,,,,,,,,65.812,67.1061,67.1061,74.0476,return,3.4038,,75.91145833,0,4,4,42,1,FBP-OG-19.png,0.4,1.2,43,0.5,,,,,,,,,,,,,,,,,,,,,,,,,,,,,,,,,,,,,,,,,,,,,
,,,,,V3_081,21,Female,2024-11-20_16h46.23.219,jersey_experiment_5_v3,2023.2.2,Win32,84.03361345,,,,,,,,,,,,,,,,74.0478,75.6004,75.6005,77.9417,return,0.753,,80.59895833,0,5,5,24,1,FBP-PT-18.png,0.45,1.2,25,0.75,,,,,,,,,,,,,,,,,,,,,,,,,,,,,,,,,,,,,,,,,,,,,
,,,,,V3_081,21,Female,2024-11-20_16h46.23.219,jersey_experiment_5_v3,2023.2.2,Win32,84.03361345,,,,,,,,,,,,,,,,77.942,79.2358,79.2359,83.0242,return,0.5542,,26.5625,0,6,6,37,1,FBP-OG-18.png,0.4,1.2,38,0.5,,,,,,,,,,,,,,,,,,,,,,,,,,,,,,,,,,,,,,,,,,,,,
,,,,,V3_081,21,Female,2024-11-20_16h46.23.219,jersey_experiment_5_v3,2023.2.2,Win32,84.03361345,,,,,,,,,,,,,,,,83.0245,84.5772,84.5773,86.448,return,0.3091,,22.78645833,0,7,7,46,1,FBP-RB-17.png,0.37,1.2,47,0.75,,,,,,,,,,,,,,,,,,,,,,,,,,,,,,,,,,,,,,,,,,,,,
,,,,,V3_081,21,Female,2024-11-20_16h46.23.219,jersey_experiment_5_v3,2023.2.2,Win32,84.03361345,,,,,,,,,,,,,,,,86.4482,88.0008,88.0009,89.9892,return,0.268,,62.36979167,0,8,8,4,1,FBP-YG-71.png,0.45,1.2,5,0.75,,,,,,,,,,,,,,,,,,,,,,,,,,,,,,,,,,,,,,,,,,,,,
,,,,,V3_081,21,Female,2024-11-20_16h46.23.219,jersey_experiment_5_v3,2023.2.2,Win32,84.03361345,,,,,,,,,,,,,,,,89.9894,91.2833,91.2835,93.4599,return,0.7422,,75.13020833,0,9,9,39,1,FBP-OG-18.png,0.45,1.2,40,0.5,,,,,,,,,,,,,,,,,,,,,,,,,,,,,,,,,,,,,,,,,,,,,
,,,,,V3_081,21,Female,2024-11-20_16h46.23.219,jersey_experiment_5_v3,2023.2.2,Win32,84.03361345,,,,,,,,,,,,,,,,93.4602,95.0129,95.013,97.1189,return,0.4043,,49.21875,0,10,10,2,1,FBP-YG-71.png,0.4,1.2,3,0.75,,,,,,,,,,,,,,,,,,,,,,,,,,,,,,,,,,,,,,,,,,,,,
,,,,,V3_081,21,Female,2024-11-20_16h46.23.219,jersey_experiment_5_v3,2023.2.2,Win32,84.03361345,,,,,,,,,,,,,,,,97.1193,98.6719,98.6719,100.625,return,0.2376,,50.65104167,0,11,11,27,1,FBP-PT-19.png,0.4,1.2,28,0.75,,,,,,,,,,,,,,,,,,,,,,,,,,,,,,,,,,,,,,,,,,,,,
,,,,,V3_081,21,Female,2024-11-20_16h46.23.219,jersey_experiment_5_v3,2023.2.2,Win32,84.03361345,,,,,,,,,,,,,,,,100.6252,102.1779,102.178,103.8838,return,0.1839,,24.21875,0,12,12,25,1,FBP-PT-19.png,0.35,1.2,26,0.75,,,,,,,,,,,,,,,,,,,,,,,,,,,,,,,,,,,,,,,,,,,,,
,,,,,V3_081,21,Female,2024-11-20_16h46.23.219,jersey_experiment_5_v3,2023.2.2,Win32,84.03361345,,,,,,,,,,,,,,,,103.8841,105.4368,105.4369,107.3901,return,0.3233,,14.58333333,0,13,13,45,1,FBP-RB-17.png,0.35,1.2,46,0.75,,,,,,,,,,,,,,,,,,,,,,,,,,,,,,,,,,,,,,,,,,,,,
,,,,,V3_081,21,Female,2024-11-20_16h46.23.219,jersey_experiment_5_v3,2023.2.2,Win32,84.03361345,,,,,,,,,,,,,,,,107.3903,108.9429,108.9429,111.6022,return,0.2123,,25.390625,0,14,14,6,1,FBP-YG-81.png,0.37,1.2,7,0.75,,,,,,,,,,,,,,,,,,,,,,,,,,,,,,,,,,,,,,,,,,,,,
,,,,,V3_081,21,Female,2024-11-20_16h46.23.219,jersey_experiment_5_v3,2023.2.2,Win32,84.03361345,,,,,,,,,,,,,,,,111.6024,112.8959,112.896,115.3904,return,0.2287,,77.734375,0,15,15,44,1,FBP-OG-19.png,0.45,1.2,45,0.5,,,,,,,,,,,,,,,,,,,,,,,,,,,,,,,,,,,,,,,,,,,,,
,,,,,V3_081,21,Female,2024-11-20_16h46.23.219,jersey_experiment_5_v3,2023.2.2,Win32,84.03361345,,,,,,,,,,,,,,,,115.3906,116.9432,116.9432,118.155,return,0.3249,,76.953125,0,16,16,8,1,FBP-YG-81.png,0.43,1.2,9,0.75,,,,,,,,,,,,,,,,,,,,,,,,,,,,,,,,,,,,,,,,,,,,,
,,,,,V3_081,21,Female,2024-11-20_16h46.23.219,jersey_experiment_5_v3,2023.2.2,Win32,84.03361345,,,,,,,,,,,,,,,,118.1553,119.7081,119.7081,122.1083,return,0.1955,,30.078125,0,17,17,47,1,FBP-RB-17.png,0.4,1.2,48,0.75,,,,,,,,,,,,,,,,,,,,,,,,,,,,,,,,,,,,,,,,,,,,,
,,,,,V3_081,21,Female,2024-11-20_16h46.23.219,jersey_experiment_5_v3,2023.2.2,Win32,84.03361345,,,,,,,,,,,,,,,,122.1085,123.6611,123.6611,128.1789,return,0.246,,22.39583333,0,18,18,21,1,FBP-PT-18.png,0.37,1.2,22,0.75,,,,,,,,,,,,,,,,,,,,,,,,,,,,,,,,,,,,,,,,,,,,,
,,,,,V3_081,21,Female,2024-11-20_16h46.23.219,jersey_experiment_5_v3,2023.2.2,Win32,84.03361345,,,,,,,,,,,,,,,,128.1792,129.7319,129.732,131.0852,return,0.2154,,80.859375,0,19,19,9,1,FBP-YG-81.png,0.45,1.2,10,0.75,,,,,,,,,,,,,,,,,,,,,,,,,,,,,,,,,,,,,,,,,,,,,
,,,,,V3_081,21,Female,2024-11-20_16h46.23.219,jersey_experiment_5_v3,2023.2.2,Win32,84.03361345,,,,,,,,,,,,,,,,131.0854,132.6378,132.6379,135.1558,return,0.2748,,17.44791667,0,20,20,1,1,FBP-YG-71.png,0.37,1.2,2,0.75,,,,,,,,,,,,,,,,,,,,,,,,,,,,,,,,,,,,,,,,,,,,,
,,,,,V3_081,21,Female,2024-11-20_16h46.23.219,jersey_experiment_5_v3,2023.2.2,Win32,84.03361345,,,,,,,,,,,,,,,,135.156,136.7086,136.7086,139.5678,return,0.2028,,19.66145833,0,21,21,11,1,FBP-YG-91.png,0.37,1.2,12,0.75,,,,,,,,,,,,,,,,,,,,,,,,,,,,,,,,,,,,,,,,,,,,,
,,,,,V3_081,21,Female,2024-11-20_16h46.23.219,jersey_experiment_5_v3,2023.2.2,Win32,84.03361345,,,,,,,,,,,,,,,,139.5681,141.1206,141.1207,143.0031,return,0.3143,,10.80729167,0,22,22,15,1,FBP-PT-17.png,0.35,1.2,16,0.75,,,,,,,,,,,,,,,,,,,,,,,,,,,,,,,,,,,,,,,,,,,,,
,,,,,V3_081,21,Female,2024-11-20_16h46.23.219,jersey_experiment_5_v3,2023.2.2,Win32,84.03361345,,,,,,,,,,,,,,,,143.0034,144.2971,144.2971,145.8385,return,0.2051,,11.06770833,0,23,23,35,1,FBP-OG-18.png,0.35,1.2,36,0.5,,,,,,,,,,,,,,,,,,,,,,,,,,,,,,,,,,,,,,,,,,,,,
,,,,,V3_081,21,Female,2024-11-20_16h46.23.219,jersey_experiment_5_v3,2023.2.2,Win32,84.03361345,,,,,,,,,,,,,,,,145.8388,147.3916,147.3917,148.7326,return,0.1442,,49.86979167,0,24,24,53,1,FBP-RB-18.png,0.43,1.2,54,0.75,,,,,,,,,,,,,,,,,,,,,,,,,,,,,,,,,,,,,,,,,,,,,
,,,,,V3_081,21,Female,2024-11-20_16h46.23.219,jersey_experiment_5_v3,2023.2.2,Win32,84.03361345,,,,,,,,,,,,,,,,148.7328,150.2859,150.2859,152.1094,return,0.2184,,29.42708333,0,25,25,56,1,FBP-RB-19.png,0.37,1.2,57,0.75,,,,,,,,,,,,,,,,,,,,,,,,,,,,,,,,,,,,,,,,,,,,,
,,,,,V3_081,21,Female,2024-11-20_16h46.23.219,jersey_experiment_5_v3,2023.2.2,Win32,84.03361345,,,,,,,,,,,,,,,,152.1096,153.6622,153.6623,155.4859,return,0.2055,,10.546875,0,26,26,55,1,FBP-RB-19.png,0.35,1.2,56,0.75,,,,,,,,,,,,,,,,,,,,,,,,,,,,,,,,,,,,,,,,,,,,,
,,,,,V3_081,21,Female,2024-11-20_16h46.23.219,jersey_experiment_5_v3,2023.2.2,Win32,84.03361345,,,,,,,,,,,,,,,,155.4861,157.0388,157.0388,159.6859,return,0.1729,,70.96354167,0,27,27,28,1,FBP-PT-19.png,0.43,1.2,29,0.75,,,,,,,,,,,,,,,,,,,,,,,,,,,,,,,,,,,,,,,,,,,,,
,,,,,V3_081,21,Female,2024-11-20_16h46.23.219,jersey_experiment_5_v3,2023.2.2,Win32,84.03361345,,,,,,,,,,,,,,,,159.6862,161.2275,161.2276,163.1098,return,0.1796,,23.17708333,0,28,28,5,1,FBP-YG-81.png,0.35,1.2,6,0.75,,,,,,,,,,,,,,,,,,,,,,,,,,,,,,,,,,,,,,,,,,,,,
,,,,,V3_081,21,Female,2024-11-20_16h46.23.219,jersey_experiment_5_v3,2023.2.2,Win32,84.03361345,,,,,,,,,,,,,,,,163.1099,164.6626,164.6626,165.8745,return,0.2358,,16.015625,0,29,29,50,1,FBP-RB-18.png,0.35,1.2,51,0.75,,,,,,,,,,,,,,,,,,,,,,,,,,,,,,,,,,,,,,,,,,,,,
,,,,,V3_081,21,Female,2024-11-20_16h46.23.219,jersey_experiment_5_v3,2023.2.2,Win32,84.03361345,,,,,,,,,,,,,,,,165.8748,167.4273,167.4274,168.6041,return,0.1721,,29.42708333,0,30,30,57,1,FBP-RB-19.png,0.4,1.2,58,0.75,,,,,,,,,,,,,,,,,,,,,,,,,,,,,,,,,,,,,,,,,,,,,
,,,,,V3_081,21,Female,2024-11-20_16h46.23.219,jersey_experiment_5_v3,2023.2.2,Win32,84.03361345,,,,,,,,,,,,,,,,168.6044,170.1569,170.1569,171.2981,return,0.1565,,30.078125,0,31,31,12,1,FBP-YG-91.png,0.4,1.2,13,0.75,,,,,,,,,,,,,,,,,,,,,,,,,,,,,,,,,,,,,,,,,,,,,
,,,,,V3_081,21,Female,2024-11-20_16h46.23.219,jersey_experiment_5_v3,2023.2.2,Win32,84.03361345,,,,,,,,,,,,,,,,171.2984,172.8514,172.8515,176.2043,return,1.6417,,73.17708333,0,32,32,19,1,FBP-PT-17.png,0.45,1.2,20,0.75,,,,,,,,,,,,,,,,,,,,,,,,,,,,,,,,,,,,,,,,,,,,,
,,,,,V3_081,21,Female,2024-11-20_16h46.23.219,jersey_experiment_5_v3,2023.2.2,Win32,84.03361345,,,,,,,,,,,,,,,,176.2046,177.7573,177.7573,181.7575,return,0.8769,,50.13020833,0,33,33,7,1,FBP-YG-81.png,0.4,1.2,8,0.75,,,,,,,,,,,,,,,,,,,,,,,,,,,,,,,,,,,,,,,,,,,,,
,,,,,V3_081,21,Female,2024-11-20_16h46.23.219,jersey_experiment_5_v3,2023.2.2,Win32,84.03361345,,,,,,,,,,,,,,,,181.7577,183.0517,183.0518,190.1577,return,0.0527,,49.86979167,0,34,34,33,1,FBP-OG-17.png,0.43,1.2,34,0.5,,,,,,,,,,,,,,,,,,,,,,,,,,,,,,,,,,,,,,,,,,,,,
,,,,,V3_081,21,Female,2024-11-20_16h46.23.219,jersey_experiment_5_v3,2023.2.2,Win32,84.03361345,,,,,,,,,,,,,,,,190.158,191.7108,191.7108,193.9345,return,0.158,,54.296875,0,35,35,18,1,FBP-PT-17.png,0.43,1.2,19,0.75,,,,,,,,,,,,,,,,,,,,,,,,,,,,,,,,,,,,,,,,,,,,,
,,,,,V3_081,21,Female,2024-11-20_16h46.23.219,jersey_experiment_5_v3,2023.2.2,Win32,84.03361345,,,,,,,,,,,,,,,,193.9348,195.4873,195.4873,201.17,return,0.378,,77.47395833,0,36,36,54,1,FBP-RB-18.png,0.45,1.2,55,0.75,,,,,,,,,,,,,,,,,,,,,,,,,,,,,,,,,,,,,,,,,,,,,
,,,,,V3_081,21,Female,2024-11-20_16h46.23.219,jersey_experiment_5_v3,2023.2.2,Win32,84.03361345,,,,,,,,,,,,,,,,201.1702,202.4643,202.4643,203.982,return,0.1216,,22.91666667,0,37,37,31,1,FBP-OG-17.png,0.37,1.2,32,0.5,,,,,,,,,,,,,,,,,,,,,,,,,,,,,,,,,,,,,,,,,,,,,
,,,,,V3_081,21,Female,2024-11-20_16h46.23.219,jersey_experiment_5_v3,2023.2.2,Win32,84.03361345,,,,,,,,,,,,,,,,203.9822,205.5349,205.535,206.6996,return,0.1833,,21.74479167,0,38,38,20,1,FBP-PT-18.png,0.35,1.2,21,0.75,,,,,,,,,,,,,,,,,,,,,,,,,,,,,,,,,,,,,,,,,,,,,
,,,,,V3_081,21,Female,2024-11-20_16h46.23.219,jersey_experiment_5_v3,2023.2.2,Win32,84.03361345,,,,,,,,,,,,,,,,206.6998,208.2526,208.2527,209.4879,return,0.2602,,21.35416667,0,39,39,0,1,FBP-YG-71.png,0.35,1.2,1,0.75,,,,,,,,,,,,,,,,,,,,,,,,,,,,,,,,,,,,,,,,,,,,,
,,,,,V3_081,21,Female,2024-11-20_16h46.23.219,jersey_experiment_5_v3,2023.2.2,Win32,84.03361345,,,,,,,,,,,,,,,,209.4882,211.0409,211.0409,215.0528,return,0.1011,,72.13541667,0,40,40,17,1,FBP-PT-17.png,0.4,1.2,18,0.75,,,,,,,,,,,,,,,,,,,,,,,,,,,,,,,,,,,,,,,,,,,,,
,,,,,V3_081,21,Female,2024-11-20_16h46.23.219,jersey_experiment_5_v3,2023.2.2,Win32,84.03361345,,,,,,,,,,,,,,,,215.0532,216.6058,216.6058,218.1588,return,0.2277,,81.25,0,41,41,23,1,FBP-PT-18.png,0.43,1.2,24,0.75,,,,,,,,,,,,,,,,,,,,,,,,,,,,,,,,,,,,,,,,,,,,,
,,,,,V3_081,21,Female,2024-11-20_16h46.23.219,jersey_experiment_5_v3,2023.2.2,Win32,84.03361345,,,,,,,,,,,,,,,,218.159,219.7117,219.7118,221.1237,return,0.2588,,82.68229167,0,42,42,59,1,FBP-RB-19.png,0.45,1.2,60,0.75,,,,,,,,,,,,,,,,,,,,,,,,,,,,,,,,,,,,,,,,,,,,,
,,,,,V3_081,21,Female,2024-11-20_16h46.23.219,jersey_experiment_5_v3,2023.2.2,Win32,84.03361345,,,,,,,,,,,,,,,,221.1239,222.6766,222.6767,224.0649,return,0.4964,,80.859375,0,43,43,22,1,FBP-PT-18.png,0.4,1.2,23,0.75,,,,,,,,,,,,,,,,,,,,,,,,,,,,,,,,,,,,,,,,,,,,,
,,,,,V3_081,21,Female,2024-11-20_16h46.23.219,jersey_experiment_5_v3,2023.2.2,Win32,84.03361345,,,,,,,,,,,,,,,,224.0652,225.6178,225.6179,227.3594,return,0.1799,,23.30729167,0,44,44,10,1,FBP-YG-91.png,0.35,1.2,11,0.75,,,,,,,,,,,,,,,,,,,,,,,,,,,,,,,,,,,,,,,,,,,,,
,,,,,V3_081,21,Female,2024-11-20_16h46.23.219,jersey_experiment_5_v3,2023.2.2,Win32,84.03361345,,,,,,,,,,,,,,,,227.3596,228.6536,228.6536,229.9005,return,0.2188,,22.78645833,0,45,45,36,1,FBP-OG-18.png,0.37,1.2,37,0.5,,,,,,,,,,,,,,,,,,,,,,,,,,,,,,,,,,,,,,,,,,,,,
,,,,,V3_081,21,Female,2024-11-20_16h46.23.219,jersey_experiment_5_v3,2023.2.2,Win32,84.03361345,,,,,,,,,,,,,,,,229.9007,231.1946,231.1946,232.8181,return,0.2599,,18.75,0,46,46,40,1,FBP-OG-19.png,0.35,1.2,41,0.5,,,,,,,,,,,,,,,,,,,,,,,,,,,,,,,,,,,,,,,,,,,,,
,,,,,V3_081,21,Female,2024-11-20_16h46.23.219,jersey_experiment_5_v3,2023.2.2,Win32,84.03361345,,,,,,,,,,,,,,,,232.8182,234.3712,234.3712,235.8889,return,0.1789,,77.99479167,0,47,47,29,1,FBP-PT-19.png,0.45,1.2,30,0.75,,,,,,,,,,,,,,,,,,,,,,,,,,,,,,,,,,,,,,,,,,,,,
,,,,,V3_081,21,Female,2024-11-20_16h46.23.219,jersey_experiment_5_v3,2023.2.2,Win32,84.03361345,,,,,,,,,,,,,,,,235.8893,237.4419,237.4419,239.6301,return,1.321,,78.25520833,0,48,48,58,1,FBP-RB-19.png,0.43,1.2,59,0.75,,,,,,,,,,,,,,,,,,,,,,,,,,,,,,,,,,,,,,,,,,,,,
,,,,,V3_081,21,Female,2024-11-20_16h46.23.219,jersey_experiment_5_v3,2023.2.2,Win32,84.03361345,,,,,,,,,,,,,,,,239.6303,240.9247,240.9247,243.3716,return,0.3962,,21.61458333,0,49,49,30,1,FBP-OG-17.png,0.35,1.2,31,0.5,,,,,,,,,,,,,,,,,,,,,,,,,,,,,,,,,,,,,,,,,,,,,
,,,,,V3_081,21,Female,2024-11-20_16h46.23.219,jersey_experiment_5_v3,2023.2.2,Win32,84.03361345,,,,,,,,,,,,,,,,243.3718,244.6658,244.6658,247.3246,return,0.1363,,65.75520833,0,50,50,32,1,FBP-OG-17.png,0.4,1.2,33,0.5,,,,,,,,,,,,,,,,,,,,,,,,,,,,,,,,,,,,,,,,,,,,,
,,,,,V3_081,21,Female,2024-11-20_16h46.23.219,jersey_experiment_5_v3,2023.2.2,Win32,84.03361345,,,,,,,,,,,,,,,,247.3248,248.8776,248.8776,252.5954,return,1.1454,,68.61979167,0,51,51,13,1,FBP-YG-91.png,0.43,1.2,14,0.75,,,,,,,,,,,,,,,,,,,,,,,,,,,,,,,,,,,,,,,,,,,,,
,,,,,V3_081,21,Female,2024-11-20_16h46.23.219,jersey_experiment_5_v3,2023.2.2,Win32,84.03361345,,,,,,,,,,,,,,,,252.5957,254.1483,254.1485,255.1249,return,0.2461,,78.125,0,52,52,14,1,FBP-YG-91.png,0.45,1.2,15,0.75,,,,,,,,,,,,,,,,,,,,,,,,,,,,,,,,,,,,,,,,,,,,,
,,,,,V3_081,21,Female,2024-11-20_16h46.23.219,jersey_experiment_5_v3,2023.2.2,Win32,84.03361345,,,,,,,,,,,,,,,,255.1251,256.4194,256.4194,259.0192,return,0.4535,,78.38541667,0,53,53,43,1,FBP-OG-19.png,0.43,1.2,44,0.5,,,,,,,,,,,,,,,,,,,,,,,,,,,,,,,,,,,,,,,,,,,,,
,,,,,V3_081,21,Female,2024-11-20_16h46.23.219,jersey_experiment_5_v3,2023.2.2,Win32,84.03361345,,,,,,,,,,,,,,,,259.0195,260.5722,260.5722,262.9724,return,0.2653,,28.38541667,0,54,54,26,1,FBP-PT-19.png,0.37,1.2,27,0.75,,,,,,,,,,,,,,,,,,,,,,,,,,,,,,,,,,,,,,,,,,,,,
,,,,,V3_081,21,Female,2024-11-20_16h46.23.219,jersey_experiment_5_v3,2023.2.2,Win32,84.03361345,,,,,,,,,,,,,,,,262.9727,264.2663,264.2664,266.1019,return,0.0623,,20.703125,0,55,55,41,1,FBP-OG-19.png,0.37,1.2,42,0.5,,,,,,,,,,,,,,,,,,,,,,,,,,,,,,,,,,,,,,,,,,,,,
,,,,,V3_081,21,Female,2024-11-20_16h46.23.219,jersey_experiment_5_v3,2023.2.2,Win32,84.03361345,,,,,,,,,,,,,,,,266.1021,267.6548,267.6548,270.3019,return,0.6643,,78.64583333,0,56,56,48,1,FBP-RB-17.png,0.43,1.2,49,0.75,,,,,,,,,,,,,,,,,,,,,,,,,,,,,,,,,,,,,,,,,,,,,
,,,,,V3_081,21,Female,2024-11-20_16h46.23.219,jersey_experiment_5_v3,2023.2.2,Win32,84.03361345,,,,,,,,,,,,,,,,270.3021,271.8549,271.8549,272.749,return,0.0609,,82.8125,0,57,57,49,1,FBP-RB-17.png,0.45,1.2,50,0.75,,,,,,,,,,,,,,,,,,,,,,,,,,,,,,,,,,,,,,,,,,,,,
,,,,,V3_081,21,Female,2024-11-20_16h46.23.219,jersey_experiment_5_v3,2023.2.2,Win32,84.03361345,,,,,,,,,,,,,,,,272.7493,274.3021,274.3021,275.2197,return,0.058,,85.28645833,0,58,58,3,1,FBP-YG-71.png,0.43,1.2,4,0.75,,,,,,,,,,,,,,,,,,,,,,,,,,,,,,,,,,,,,,,,,,,,,
,,,,,V3_081,21,Female,2024-11-20_16h46.23.219,jersey_experiment_5_v3,2023.2.2,Win32,84.03361345,,,,,,,,,,,,,,,,275.22,276.5141,276.5142,277.4669,return,0.2194,,84.50520833,0,59,59,38,1,FBP-OG-18.png,0.43,1.2,39,0.5,,,,,,,,,,,,,,,,,,,,,,,,,,,,,,,,,,,,,,,,,,,,,
,,,,,V3_081,21,Female,2024-11-20_16h46.23.219,jersey_experiment_5_v3,2023.2.2,Win32,84.03361345,,,,,,,,,,,,,,,,277.4684,279.02,279.02,280.9141,return,0.1423,,49.47916667,,,,,,FBP-PT-71.png,0.4,1.2,18,0.75,0,0,0,17,1,,,,,,,,,,,,,,,,,,,,,,,,,,,,,,,,,,,,,,,,
,,,,,V3_081,21,Female,2024-11-20_16h46.23.219,jersey_experiment_5_v3,2023.2.2,Win32,84.03361345,,,,,,,,,,,,,,,,280.9144,282.2083,282.2084,283.5261,return,0.165,,43.48958333,,,,,,FBP-OG-91.png,0.4,1.2,43,0.5,0,1,1,42,1,,,,,,,,,,,,,,,,,,,,,,,,,,,,,,,,,,,,,,,,
,,,,,V3_081,21,Female,2024-11-20_16h46.23.219,jersey_experiment_5_v3,2023.2.2,Win32,84.03361345,,,,,,,,,,,,,,,,283.5265,285.079,285.079,286.9968,return,0.1546,,44.53125,,,,,,FBP-RB-91.png,0.43,1.2,59,0.75,0,2,2,58,1,,,,,,,,,,,,,,,,,,,,,,,,,,,,,,,,,,,,,,,,
,,,,,V3_081,21,Female,2024-11-20_16h46.23.219,jersey_experiment_5_v3,2023.2.2,Win32,84.03361345,,,,,,,,,,,,,,,,286.9969,288.5497,288.5498,290.738,return,0.1885,,66.40625,,,,,,FBP-PT-91.png,0.45,1.2,30,0.75,0,3,3,29,1,,,,,,,,,,,,,,,,,,,,,,,,,,,,,,,,,,,,,,,,
,,,,,V3_081,21,Female,2024-11-20_16h46.23.219,jersey_experiment_5_v3,2023.2.2,Win32,84.03361345,,,,,,,,,,,,,,,,290.7382,292.2909,292.291,294.4443,return,0.1721,,54.03645833,,,,,,FBP-RB-71.png,0.43,1.2,49,0.75,0,4,4,48,1,,,,,,,,,,,,,,,,,,,,,,,,,,,,,,,,,,,,,,,,
,,,,,V3_081,21,Female,2024-11-20_16h46.23.219,jersey_experiment_5_v3,2023.2.2,Win32,84.03361345,,,,,,,,,,,,,,,,294.4445,295.9971,295.9972,298.6089,return,0.2491,,51.171875,,,,,,FBP-PT-81.png,0.43,1.2,24,0.75,0,5,5,23,1,,,,,,,,,,,,,,,,,,,,,,,,,,,,,,,,,,,,,,,,
,,,,,V3_081,21,Female,2024-11-20_16h46.23.219,jersey_experiment_5_v3,2023.2.2,Win32,84.03361345,,,,,,,,,,,,,,,,298.6091,300.162,300.162,302.468,return,0.4002,,60.546875,,,,,,FBP-RB-91.png,0.45,1.2,60,0.75,0,6,6,59,1,,,,,,,,,,,,,,,,,,,,,,,,,,,,,,,,,,,,,,,,
,,,,,V3_081,21,Female,2024-11-20_16h46.23.219,jersey_experiment_5_v3,2023.2.2,Win32,84.03361345,,,,,,,,,,,,,,,,302.4682,304.0208,304.0209,304.868,return,0.1179,,61.71875,,,,,,FBP-YG-19.png,0.45,1.2,15,0.75,0,7,7,14,1,,,,,,,,,,,,,,,,,,,,,,,,,,,,,,,,,,,,,,,,
,,,,,V3_081,21,Female,2024-11-20_16h46.23.219,jersey_experiment_5_v3,2023.2.2,Win32,84.03361345,,,,,,,,,,,,,,,,304.8682,306.4211,306.4211,307.9388,return,0.1905,,19.79166667,,,,,,FBP-YG-17.png,0.4,1.2,3,0.75,0,8,8,2,1,,,,,,,,,,,,,,,,,,,,,,,,,,,,,,,,,,,,,,,,
,,,,,V3_081,21,Female,2024-11-20_16h46.23.219,jersey_experiment_5_v3,2023.2.2,Win32,84.03361345,,,,,,,,,,,,,,,,307.939,309.4919,309.4919,311.1035,return,0.1312,,16.27604167,,,,,,FBP-RB-81.png,0.4,1.2,53,0.75,0,9,9,52,1,,,,,,,,,,,,,,,,,,,,,,,,,,,,,,,,,,,,,,,,
,,,,,V3_081,21,Female,2024-11-20_16h46.23.219,jersey_experiment_5_v3,2023.2.2,Win32,84.03361345,,,,,,,,,,,,,,,,311.1037,312.3977,312.3977,313.6802,return,0.1805,,10.41666667,,,,,,FBP-OG-71.png,0.35,1.2,31,0.5,0,10,10,30,1,,,,,,,,,,,,,,,,,,,,,,,,,,,,,,,,,,,,,,,,
,,,,,V3_081,21,Female,2024-11-20_16h46.23.219,jersey_experiment_5_v3,2023.2.2,Win32,84.03361345,,,,,,,,,,,,,,,,313.6805,315.2332,315.2333,316.3626,return,0.1384,,10.67708333,,,,,,FBP-RB-91.png,0.37,1.2,57,0.75,0,11,11,56,1,,,,,,,,,,,,,,,,,,,,,,,,,,,,,,,,,,,,,,,,
,,,,,V3_081,21,Female,2024-11-20_16h46.23.219,jersey_experiment_5_v3,2023.2.2,Win32,84.03361345,,,,,,,,,,,,,,,,316.3628,317.9157,317.9158,319.045,return,0.1092,,11.71875,,,,,,FBP-PT-91.png,0.37,1.2,27,0.75,0,12,12,26,1,,,,,,,,,,,,,,,,,,,,,,,,,,,,,,,,,,,,,,,,
,,,,,V3_081,21,Female,2024-11-20_16h46.23.219,jersey_experiment_5_v3,2023.2.2,Win32,84.03361345,,,,,,,,,,,,,,,,319.0453,320.339,320.3391,321.5862,return,0.0944,,19.01041667,,,,,,FBP-OG-71.png,0.4,1.2,33,0.5,0,13,13,32,1,,,,,,,,,,,,,,,,,,,,,,,,,,,,,,,,,,,,,,,,
,,,,,V3_081,21,Female,2024-11-20_16h46.23.219,jersey_experiment_5_v3,2023.2.2,Win32,84.03361345,,,,,,,,,,,,,,,,321.5864,322.8805,322.8805,324.8686,return,0.173,,78.515625,,,,,,FBP-OG-71.png,0.45,1.2,35,0.5,0,14,14,34,1,,,,,,,,,,,,,,,,,,,,,,,,,,,,,,,,,,,,,,,,
,,,,,V3_081,21,Female,2024-11-20_16h46.23.219,jersey_experiment_5_v3,2023.2.2,Win32,84.03361345,,,,,,,,,,,,,,,,324.8689,326.1629,326.1629,328.0806,return,0.3071,,23.046875,,,,,,FBP-OG-71.png,0.37,1.2,32,0.5,0,15,15,31,1,,,,,,,,,,,,,,,,,,,,,,,,,,,,,,,,,,,,,,,,
,,,,,V3_081,21,Female,2024-11-20_16h46.23.219,jersey_experiment_5_v3,2023.2.2,Win32,84.03361345,,,,,,,,,,,,,,,,328.0809,329.3748,329.3748,331.269,return,0.1736,,72.13541667,,,,,,FBP-OG-81.png,0.43,1.2,39,0.5,0,16,16,38,1,,,,,,,,,,,,,,,,,,,,,,,,,,,,,,,,,,,,,,,,
,,,,,V3_081,21,Female,2024-11-20_16h46.23.219,jersey_experiment_5_v3,2023.2.2,Win32,84.03361345,,,,,,,,,,,,,,,,331.2692,332.5632,332.5632,334.175,return,0.2514,,19.66145833,,,,,,FBP-OG-91.png,0.35,1.2,41,0.5,0,17,17,40,1,,,,,,,,,,,,,,,,,,,,,,,,,,,,,,,,,,,,,,,,
,,,,,V3_081,21,Female,2024-11-20_16h46.23.219,jersey_experiment_5_v3,2023.2.2,Win32,84.03361345,,,,,,,,,,,,,,,,334.1752,335.4691,335.4691,336.4342,return,0.1094,,16.66666667,,,,,,FBP-OG-81.png,0.37,1.2,37,0.5,0,18,18,36,1,,,,,,,,,,,,,,,,,,,,,,,,,,,,,,,,,,,,,,,,
,,,,,V3_081,21,Female,2024-11-20_16h46.23.219,jersey_experiment_5_v3,2023.2.2,Win32,84.03361345,,,,,,,,,,,,,,,,336.4344,337.987,337.987,339.5988,return,0.0743,,79.03645833,,,,,,FBP-YG-18.png,0.45,1.2,10,0.75,0,19,19,9,1,,,,,,,,,,,,,,,,,,,,,,,,,,,,,,,,,,,,,,,,
,,,,,V3_081,21,Female,2024-11-20_16h46.23.219,jersey_experiment_5_v3,2023.2.2,Win32,84.03361345,,,,,,,,,,,,,,,,339.5991,341.1518,341.1518,343.2343,return,0.1542,,7.03125,,,,,,FBP-YG-18.png,0.35,1.2,6,0.75,0,20,20,5,1,,,,,,,,,,,,,,,,,,,,,,,,,,,,,,,,,,,,,,,,
,,,,,V3_081,21,Female,2024-11-20_16h46.23.219,jersey_experiment_5_v3,2023.2.2,Win32,84.03361345,,,,,,,,,,,,,,,,343.2345,344.7872,344.7873,346.0344,return,0.1326,,4.947916667,,,,,,FBP-RB-91.png,0.35,1.2,56,0.75,0,21,21,55,1,,,,,,,,,,,,,,,,,,,,,,,,,,,,,,,,,,,,,,,,
,,,,,V3_081,21,Female,2024-11-20_16h46.23.219,jersey_experiment_5_v3,2023.2.2,Win32,84.03361345,,,,,,,,,,,,,,,,346.0346,347.5873,347.5874,348.9168,return,0.2467,,4.296875,,,,,,FBP-RB-71.png,0.35,1.2,46,0.75,0,22,22,45,1,,,,,,,,,,,,,,,,,,,,,,,,,,,,,,,,,,,,,,,,
,,,,,V3_081,21,Female,2024-11-20_16h46.23.219,jersey_experiment_5_v3,2023.2.2,Win32,84.03361345,,,,,,,,,,,,,,,,348.917,350.4699,350.4699,351.9522,return,0.1763,,20.18229167,,,,,,FBP-RB-71.png,0.4,1.2,48,0.75,0,23,23,47,1,,,,,,,,,,,,,,,,,,,,,,,,,,,,,,,,,,,,,,,,
,,,,,V3_081,21,Female,2024-11-20_16h46.23.219,jersey_experiment_5_v3,2023.2.2,Win32,84.03361345,,,,,,,,,,,,,,,,351.9525,353.5051,353.5051,354.517,return,0.2355,,21.09375,,,,,,FBP-RB-91.png,0.4,1.2,58,0.75,0,24,24,57,1,,,,,,,,,,,,,,,,,,,,,,,,,,,,,,,,,,,,,,,,
,,,,,V3_081,21,Female,2024-11-20_16h46.23.219,jersey_experiment_5_v3,2023.2.2,Win32,84.03361345,,,,,,,,,,,,,,,,354.5173,356.07,356.07,356.9876,return,0.2197,,21.61458333,,,,,,FBP-PT-81.png,0.35,1.2,21,0.75,0,25,25,20,1,,,,,,,,,,,,,,,,,,,,,,,,,,,,,,,,,,,,,,,,
,,,,,V3_081,21,Female,2024-11-20_16h46.23.219,jersey_experiment_5_v3,2023.2.2,Win32,84.03361345,,,,,,,,,,,,,,,,356.9878,358.5289,358.529,359.776,return,0.2979,,20.18229167,,,,,,FBP-PT-71.png,0.35,1.2,16,0.75,0,26,26,15,1,,,,,,,,,,,,,,,,,,,,,,,,,,,,,,,,,,,,,,,,
,,,,,V3_081,21,Female,2024-11-20_16h46.23.219,jersey_experiment_5_v3,2023.2.2,Win32,84.03361345,,,,,,,,,,,,,,,,359.7763,361.3292,361.3292,363.4701,return,0.2053,,76.43229167,,,,,,FBP-PT-91.png,0.43,1.2,29,0.75,0,27,27,28,1,,,,,,,,,,,,,,,,,,,,,,,,,,,,,,,,,,,,,,,,
,,,,,V3_081,21,Female,2024-11-20_16h46.23.219,jersey_experiment_5_v3,2023.2.2,Win32,84.03361345,,,,,,,,,,,,,,,,363.4704,364.7644,364.7644,366.3055,return,0.1432,,75.78125,,,,,,FBP-OG-71.png,0.43,1.2,34,0.5,0,28,28,33,1,,,,,,,,,,,,,,,,,,,,,,,,,,,,,,,,,,,,,,,,
,,,,,V3_081,21,Female,2024-11-20_16h46.23.219,jersey_experiment_5_v3,2023.2.2,Win32,84.03361345,,,,,,,,,,,,,,,,366.3058,367.5998,367.5999,369.2117,return,0.4902,,84.50520833,,,,,,FBP-OG-81.png,0.45,1.2,40,0.5,0,29,29,39,1,,,,,,,,,,,,,,,,,,,,,,,,,,,,,,,,,,,,,,,,
,,,,,V3_081,21,Female,2024-11-20_16h46.23.219,jersey_experiment_5_v3,2023.2.2,Win32,84.03361345,,,,,,,,,,,,,,,,369.2119,370.5058,370.5058,371.6587,return,0.2412,,83.984375,,,,,,FBP-OG-91.png,0.45,1.2,45,0.5,0,30,30,44,1,,,,,,,,,,,,,,,,,,,,,,,,,,,,,,,,,,,,,,,,
,,,,,V3_081,21,Female,2024-11-20_16h46.23.219,jersey_experiment_5_v3,2023.2.2,Win32,84.03361345,,,,,,,,,,,,,,,,371.6589,373.2001,373.2002,375.7179,return,0.1648,,20.96354167,,,,,,FBP-RB-81.png,0.37,1.2,52,0.75,0,31,31,51,1,,,,,,,,,,,,,,,,,,,,,,,,,,,,,,,,,,,,,,,,
,,,,,V3_081,21,Female,2024-11-20_16h46.23.219,jersey_experiment_5_v3,2023.2.2,Win32,84.03361345,,,,,,,,,,,,,,,,375.7181,377.2708,377.2709,378.612,return,0.22,,17.1875,,,,,,FBP-YG-18.png,0.37,1.2,7,0.75,0,32,32,6,1,,,,,,,,,,,,,,,,,,,,,,,,,,,,,,,,,,,,,,,,
,,,,,V3_081,21,Female,2024-11-20_16h46.23.219,jersey_experiment_5_v3,2023.2.2,Win32,84.03361345,,,,,,,,,,,,,,,,378.6124,380.1649,380.1649,386.2123,return,0.1885,,48.95833333,,,,,,FBP-YG-18.png,0.43,1.2,9,0.75,0,33,33,8,1,,,,,,,,,,,,,,,,,,,,,,,,,,,,,,,,,,,,,,,,
,,,,,V3_081,21,Female,2024-11-20_16h46.23.219,jersey_experiment_5_v3,2023.2.2,Win32,84.03361345,,,,,,,,,,,,,,,,386.2127,387.7653,387.7653,388.7536,return,0.1193,,22.39583333,,,,,,FBP-YG-19.png,0.37,1.2,12,0.75,0,34,34,11,1,,,,,,,,,,,,,,,,,,,,,,,,,,,,,,,,,,,,,,,,
,,,,,V3_081,21,Female,2024-11-20_16h46.23.219,jersey_experiment_5_v3,2023.2.2,Win32,84.03361345,,,,,,,,,,,,,,,,388.7538,390.3066,390.3067,391.6948,return,0.146,,65.625,,,,,,FBP-RB-81.png,0.45,1.2,55,0.75,0,35,35,54,1,,,,,,,,,,,,,,,,,,,,,,,,,,,,,,,,,,,,,,,,
,,,,,V3_081,21,Female,2024-11-20_16h46.23.219,jersey_experiment_5_v3,2023.2.2,Win32,84.03361345,,,,,,,,,,,,,,,,391.6951,393.2479,393.2481,394.3537,return,0.1283,,68.48958333,,,,,,FBP-PT-71.png,0.45,1.2,20,0.75,0,36,36,19,1,,,,,,,,,,,,,,,,,,,,,,,,,,,,,,,,,,,,,,,,
,,,,,V3_081,21,Female,2024-11-20_16h46.23.219,jersey_experiment_5_v3,2023.2.2,Win32,84.03361345,,,,,,,,,,,,,,,,394.354,395.6479,395.648,397.1068,return,0.1887,,27.99479167,,,,,,FBP-OG-81.png,0.4,1.2,38,0.5,0,37,37,37,1,,,,,,,,,,,,,,,,,,,,,,,,,,,,,,,,,,,,,,,,
,,,,,V3_081,21,Female,2024-11-20_16h46.23.219,jersey_experiment_5_v3,2023.2.2,Win32,84.03361345,,,,,,,,,,,,,,,,397.107,398.6598,398.6598,399.9658,return,0.1353,,24.609375,,,,,,FBP-PT-81.png,0.37,1.2,22,0.75,0,38,38,21,1,,,,,,,,,,,,,,,,,,,,,,,,,,,,,,,,,,,,,,,,
,,,,,V3_081,21,Female,2024-11-20_16h46.23.219,jersey_experiment_5_v3,2023.2.2,Win32,84.03361345,,,,,,,,,,,,,,,,399.966,401.5187,401.5187,405.366,return,0.1417,,51.171875,,,,,,FBP-PT-91.png,0.4,1.2,28,0.75,0,39,39,27,1,,,,,,,,,,,,,,,,,,,,,,,,,,,,,,,,,,,,,,,,
,,,,,V3_081,21,Female,2024-11-20_16h46.23.219,jersey_experiment_5_v3,2023.2.2,Win32,84.03361345,,,,,,,,,,,,,,,,405.3662,406.6601,406.6601,408.2837,return,0.2431,,23.69791667,,,,,,FBP-OG-91.png,0.37,1.2,42,0.5,0,40,40,41,1,,,,,,,,,,,,,,,,,,,,,,,,,,,,,,,,,,,,,,,,
,,,,,V3_081,21,Female,2024-11-20_16h46.23.219,jersey_experiment_5_v3,2023.2.2,Win32,84.03361345,,,,,,,,,,,,,,,,408.2839,409.8368,409.8368,410.7664,return,0.1586,,15.88541667,,,,,,FBP-RB-71.png,0.37,1.2,47,0.75,0,41,41,46,1,,,,,,,,,,,,,,,,,,,,,,,,,,,,,,,,,,,,,,,,
,,,,,V3_081,21,Female,2024-11-20_16h46.23.219,jersey_experiment_5_v3,2023.2.2,Win32,84.03361345,,,,,,,,,,,,,,,,410.7667,412.3191,412.3193,414.9898,return,1.0176,,49.73958333,,,,,,FBP-YG-17.png,0.43,1.2,4,0.75,0,42,42,3,1,,,,,,,,,,,,,,,,,,,,,,,,,,,,,,,,,,,,,,,,
,,,,,V3_081,21,Female,2024-11-20_16h46.23.219,jersey_experiment_5_v3,2023.2.2,Win32,84.03361345,,,,,,,,,,,,,,,,414.9903,416.284,416.284,418.7788,return,0.1828,,19.66145833,,,,,,FBP-OG-81.png,0.35,1.2,36,0.5,0,43,43,35,1,,,,,,,,,,,,,,,,,,,,,,,,,,,,,,,,,,,,,,,,
,,,,,V3_081,21,Female,2024-11-20_16h46.23.219,jersey_experiment_5_v3,2023.2.2,Win32,84.03361345,,,,,,,,,,,,,,,,418.7789,420.3311,420.3311,422.4842,return,0.4983,,74.73958333,,,,,,FBP-YG-17.png,0.45,1.2,5,0.75,0,44,44,4,1,,,,,,,,,,,,,,,,,,,,,,,,,,,,,,,,,,,,,,,,
,,,,,V3_081,21,Female,2024-11-20_16h46.23.219,jersey_experiment_5_v3,2023.2.2,Win32,84.03361345,,,,,,,,,,,,,,,,422.4845,424.0372,424.0372,427.6609,return,1.7201,,20.83333333,,,,,,FBP-PT-71.png,0.43,1.2,19,0.75,0,45,45,18,1,,,,,,,,,,,,,,,,,,,,,,,,,,,,,,,,,,,,,,,,
,,,,,V3_081,21,Female,2024-11-20_16h46.23.219,jersey_experiment_5_v3,2023.2.2,Win32,84.03361345,,,,,,,,,,,,,,,,427.6612,429.2138,429.2139,430.6847,return,0.0642,,30.33854167,,,,,,FBP-YG-19.png,0.4,1.2,13,0.75,0,46,46,12,1,,,,,,,,,,,,,,,,,,,,,,,,,,,,,,,,,,,,,,,,
,,,,,V3_081,21,Female,2024-11-20_16h46.23.219,jersey_experiment_5_v3,2023.2.2,Win32,84.03361345,,,,,,,,,,,,,,,,430.685,432.2376,432.2376,433.2141,return,0.2393,,32.94270833,,,,,,FBP-YG-19.png,0.43,1.2,14,0.75,0,47,47,13,1,,,,,,,,,,,,,,,,,,,,,,,,,,,,,,,,,,,,,,,,
,,,,,V3_081,21,Female,2024-11-20_16h46.23.219,jersey_experiment_5_v3,2023.2.2,Win32,84.03361345,,,,,,,,,,,,,,,,433.2143,434.7671,434.7672,436.0849,return,0.1902,,11.328125,,,,,,FBP-RB-81.png,0.35,1.2,51,0.75,0,48,48,50,1,,,,,,,,,,,,,,,,,,,,,,,,,,,,,,,,,,,,,,,,
,,,,,V3_081,21,Female,2024-11-20_16h46.23.219,jersey_experiment_5_v3,2023.2.2,Win32,84.03361345,,,,,,,,,,,,,,,,436.0852,437.638,437.638,439.9083,return,1.012,,78.125,,,,,,FBP-PT-81.png,0.45,1.2,25,0.75,0,49,49,24,1,,,,,,,,,,,,,,,,,,,,,,,,,,,,,,,,,,,,,,,,
,,,,,V3_081,21,Female,2024-11-20_16h46.23.219,jersey_experiment_5_v3,2023.2.2,Win32,84.03361345,,,,,,,,,,,,,,,,439.9086,441.4501,441.4501,443.7908,return,0.2511,,50,,,,,,FBP-PT-81.png,0.4,1.2,23,0.75,0,50,50,22,1,,,,,,,,,,,,,,,,,,,,,,,,,,,,,,,,,,,,,,,,
,,,,,V3_081,21,Female,2024-11-20_16h46.23.219,jersey_experiment_5_v3,2023.2.2,Win32,84.03361345,,,,,,,,,,,,,,,,443.7912,445.085,445.0851,445.9792,return,0.2315,,50,,,,,,FBP-OG-91.png,0.43,1.2,44,0.5,0,51,51,43,1,,,,,,,,,,,,,,,,,,,,,,,,,,,,,,,,,,,,,,,,
,,,,,V3_081,21,Female,2024-11-20_16h46.23.219,jersey_experiment_5_v3,2023.2.2,Win32,84.03361345,,,,,,,,,,,,,,,,445.9795,447.5323,447.5323,448.6617,return,0.1414,,69.01041667,,,,,,FBP-RB-71.png,0.45,1.2,50,0.75,0,52,52,49,1,,,,,,,,,,,,,,,,,,,,,,,,,,,,,,,,,,,,,,,,
,,,,,V3_081,21,Female,2024-11-20_16h46.23.219,jersey_experiment_5_v3,2023.2.2,Win32,84.03361345,,,,,,,,,,,,,,,,448.662,450.2148,450.2149,452.0031,return,0.8708,,18.61979167,,,,,,FBP-YG-19.png,0.35,1.2,11,0.75,0,53,53,10,1,,,,,,,,,,,,,,,,,,,,,,,,,,,,,,,,,,,,,,,,
,,,,,V3_081,21,Female,2024-11-20_16h46.23.219,jersey_experiment_5_v3,2023.2.2,Win32,84.03361345,,,,,,,,,,,,,,,,452.0033,453.5561,453.5561,454.9442,return,0.1914,,31.25,,,,,,FBP-YG-18.png,0.4,1.2,8,0.75,0,54,54,7,1,,,,,,,,,,,,,,,,,,,,,,,,,,,,,,,,,,,,,,,,
,,,,,V3_081,21,Female,2024-11-20_16h46.23.219,jersey_experiment_5_v3,2023.2.2,Win32,84.03361345,,,,,,,,,,,,,,,,454.9445,456.4974,456.4975,457.7444,return,0.1287,,3.515625,,,,,,FBP-YG-17.png,0.35,1.2,1,0.75,0,55,55,0,1,,,,,,,,,,,,,,,,,,,,,,,,,,,,,,,,,,,,,,,,
,,,,,V3_081,21,Female,2024-11-20_16h46.23.219,jersey_experiment_5_v3,2023.2.2,Win32,84.03361345,,,,,,,,,,,,,,,,457.7446,459.2974,459.2975,460.5916,return,0.0613,,28.25520833,,,,,,FBP-RB-81.png,0.43,1.2,54,0.75,0,56,56,53,1,,,,,,,,,,,,,,,,,,,,,,,,,,,,,,,,,,,,,,,,
,,,,,V3_081,21,Female,2024-11-20_16h46.23.219,jersey_experiment_5_v3,2023.2.2,Win32,84.03361345,,,,,,,,,,,,,,,,460.5919,462.1446,462.1447,463.5093,return,0.0708,,12.23958333,,,,,,FBP-PT-71.png,0.37,1.2,17,0.75,0,57,57,16,1,,,,,,,,,,,,,,,,,,,,,,,,,,,,,,,,,,,,,,,,
,,,,,V3_081,21,Female,2024-11-20_16h46.23.219,jersey_experiment_5_v3,2023.2.2,Win32,84.03361345,,,,,,,,,,,,,,,,463.5096,465.0623,465.0624,466.1564,return,0.1838,,10.28645833,,,,,,FBP-PT-91.png,0.35,1.2,26,0.75,0,58,58,25,1,,,,,,,,,,,,,,,,,,,,,,,,,,,,,,,,,,,,,,,,
,,,,,V3_081,21,Female,2024-11-20_16h46.23.219,jersey_experiment_5_v3,2023.2.2,Win32,84.03361345,,,,,,,,,,,,,,,,466.1567,467.7094,467.7094,468.8978,return,0.2946,,11.06770833,,,,,,FBP-YG-17.png,0.37,1.2,2,0.75,0,59,59,1,1,,,,,,,,,,,,,,,,,,,,,,,,,,,,,,,,,,,,,,,,
,,,,,V3_081,21,Female,2024-11-20_16h46.23.219,jersey_experiment_5_v3,2023.2.2,Win32,84.03361345,,,,,,,,,,,,,,,,,,,,,,,,,,,,,,,,,,,,,,,468.8978,588.8907,,,,,,,,,,,,,,,,,,,,,,,,,,,,,,,,,,,,,,
,,,,,V3_081,21,Female,2024-11-20_16h46.23.219,jersey_experiment_5_v3,2023.2.2,Win32,84.03361345,,,,,,,,,,,,,,,,,,,,,,,,,,,,,,,,,,,,,,,,,588.8907,590.7967,return,1.9007,,,,,,,,,,,,,,,,,,,,,,,,,,,,,,,,,,
,,,,,V3_081,21,Female,2024-11-20_16h46.23.219,jersey_experiment_5_v3,2023.2.2,Win32,84.03361345,,,,,,,,,,,,,,,,590.7987,592.0906,592.0907,596.9967,return,2.5177,,24.34895833,,,,,,FBP-YG-71.png,0.4,1.2,3,0.5,,,,,,,,,,,,,0,0,0,2,1,,,,,,,,,,,,,,,,,,,,,,,,,,,,
,,,,,V3_081,21,Female,2024-11-20_16h46.23.219,jersey_experiment_5_v3,2023.2.2,Win32,84.03361345,,,,,,,,,,,,,,,,596.997,598.2909,598.291,600.032,return,0.2024,,50.26041667,,,,,,FBP-PT-18.png,0.4,1.2,23,0.5,,,,,,,,,,,,,0,1,1,22,1,,,,,,,,,,,,,,,,,,,,,,,,,,,,
,,,,,V3_081,21,Female,2024-11-20_16h46.23.219,jersey_experiment_5_v3,2023.2.2,Win32,84.03361345,,,,,,,,,,,,,,,,600.0323,601.585,601.585,605.0912,return,0.3621,,23.30729167,,,,,,FBP-OG-18.png,0.37,1.2,37,0.75,,,,,,,,,,,,,0,2,2,36,1,,,,,,,,,,,,,,,,,,,,,,,,,,,,
,,,,,V3_081,21,Female,2024-11-20_16h46.23.219,jersey_experiment_5_v3,2023.2.2,Win32,84.03361345,,,,,,,,,,,,,,,,605.0915,606.3853,606.3854,607.5854,return,0.1282,,76.953125,,,,,,FBP-RB-18.png,0.45,1.2,55,0.5,,,,,,,,,,,,,0,3,3,54,1,,,,,,,,,,,,,,,,,,,,,,,,,,,,
,,,,,V3_081,21,Female,2024-11-20_16h46.23.219,jersey_experiment_5_v3,2023.2.2,Win32,84.03361345,,,,,,,,,,,,,,,,607.5856,608.8795,608.8796,610.515,return,0.1204,,25.65104167,,,,,,FBP-YG-71.png,0.35,1.2,1,0.5,,,,,,,,,,,,,0,4,4,0,1,,,,,,,,,,,,,,,,,,,,,,,,,,,,
,,,,,V3_081,21,Female,2024-11-20_16h46.23.219,jersey_experiment_5_v3,2023.2.2,Win32,84.03361345,,,,,,,,,,,,,,,,610.5152,611.8091,611.8091,613.3504,return,0.2433,,75.78125,,,,,,FBP-YG-81.png,0.45,1.2,10,0.5,,,,,,,,,,,,,0,5,5,9,1,,,,,,,,,,,,,,,,,,,,,,,,,,,,
,,,,,V3_081,21,Female,2024-11-20_16h46.23.219,jersey_experiment_5_v3,2023.2.2,Win32,84.03361345,,,,,,,,,,,,,,,,613.3506,614.9033,614.9034,615.9151,return,0.1604,,81.38020833,,,,,,FBP-OG-17.png,0.45,1.2,35,0.75,,,,,,,,,,,,,0,6,6,34,1,,,,,,,,,,,,,,,,,,,,,,,,,,,,
,,,,,V3_081,21,Female,2024-11-20_16h46.23.219,jersey_experiment_5_v3,2023.2.2,Win32,84.03361345,,,,,,,,,,,,,,,,615.9153,617.2093,617.2094,618.3152,return,0.4643,,81.38020833,,,,,,FBP-PT-18.png,0.43,1.2,24,0.5,,,,,,,,,,,,,0,7,7,23,1,,,,,,,,,,,,,,,,,,,,,,,,,,,,
,,,,,V3_081,21,Female,2024-11-20_16h46.23.219,jersey_experiment_5_v3,2023.2.2,Win32,84.03361345,,,,,,,,,,,,,,,,618.3154,619.6094,619.6094,620.8329,return,0.2228,,22.13541667,,,,,,FBP-RB-17.png,0.35,1.2,46,0.5,,,,,,,,,,,,,0,8,8,45,1,,,,,,,,,,,,,,,,,,,,,,,,,,,,
,,,,,V3_081,21,Female,2024-11-20_16h46.23.219,jersey_experiment_5_v3,2023.2.2,Win32,84.03361345,,,,,,,,,,,,,,,,620.8332,622.3862,622.3862,623.539,return,0.1761,,83.72395833,,,,,,FBP-OG-19.png,0.45,1.2,45,0.75,,,,,,,,,,,,,0,9,9,44,1,,,,,,,,,,,,,,,,,,,,,,,,,,,,
,,,,,V3_081,21,Female,2024-11-20_16h46.23.219,jersey_experiment_5_v3,2023.2.2,Win32,84.03361345,,,,,,,,,,,,,,,,623.5392,624.8331,624.8331,625.645,return,0.1365,,79.03645833,,,,,,FBP-PT-17.png,0.45,1.2,20,0.5,,,,,,,,,,,,,0,10,10,19,1,,,,,,,,,,,,,,,,,,,,,,,,,,,,
,,,,,V3_081,21,Female,2024-11-20_16h46.23.219,jersey_experiment_5_v3,2023.2.2,Win32,84.03361345,,,,,,,,,,,,,,,,625.6452,626.9391,626.9392,628.6098,return,0.202,,83.46354167,,,,,,FBP-PT-19.png,0.45,1.2,30,0.5,,,,,,,,,,,,,0,11,11,29,1,,,,,,,,,,,,,,,,,,,,,,,,,,,,
,,,,,V3_081,21,Female,2024-11-20_16h46.23.219,jersey_experiment_5_v3,2023.2.2,Win32,84.03361345,,,,,,,,,,,,,,,,628.61,629.9039,629.904,631.0098,return,0.1659,,83.59375,,,,,,FBP-RB-17.png,0.45,1.2,50,0.5,,,,,,,,,,,,,0,12,12,49,1,,,,,,,,,,,,,,,,,,,,,,,,,,,,
,,,,,V3_081,21,Female,2024-11-20_16h46.23.219,jersey_experiment_5_v3,2023.2.2,Win32,84.03361345,,,,,,,,,,,,,,,,631.01,632.3041,632.3041,633.2334,return,0.0495,,83.984375,,,,,,FBP-PT-19.png,0.43,1.2,29,0.5,,,,,,,,,,,,,0,13,13,28,1,,,,,,,,,,,,,,,,,,,,,,,,,,,,
,,,,,V3_081,21,Female,2024-11-20_16h46.23.219,jersey_experiment_5_v3,2023.2.2,Win32,84.03361345,,,,,,,,,,,,,,,,633.2337,634.7866,634.7866,637.1395,return,0.1757,,23.828125,,,,,,FBP-OG-17.png,0.37,1.2,32,0.75,,,,,,,,,,,,,0,14,14,31,1,,,,,,,,,,,,,,,,,,,,,,,,,,,,
,,,,,V3_081,21,Female,2024-11-20_16h46.23.219,jersey_experiment_5_v3,2023.2.2,Win32,84.03361345,,,,,,,,,,,,,,,,637.1399,638.4336,638.4337,639.6807,return,0.1677,,78.38541667,,,,,,FBP-PT-18.png,0.45,1.2,25,0.5,,,,,,,,,,,,,0,15,15,24,1,,,,,,,,,,,,,,,,,,,,,,,,,,,,
,,,,,V3_081,21,Female,2024-11-20_16h46.23.219,jersey_experiment_5_v3,2023.2.2,Win32,84.03361345,,,,,,,,,,,,,,,,639.681,641.2337,641.2338,642.4456,return,0.1229,,23.046875,,,,,,FBP-OG-18.png,0.4,1.2,38,0.75,,,,,,,,,,,,,0,16,16,37,1,,,,,,,,,,,,,,,,,,,,,,,,,,,,
,,,,,V3_081,21,Female,2024-11-20_16h46.23.219,jersey_experiment_5_v3,2023.2.2,Win32,84.03361345,,,,,,,,,,,,,,,,642.4458,643.7398,643.7398,645.493,return,0.1762,,50,,,,,,FBP-YG-91.png,0.4,1.2,13,0.5,,,,,,,,,,,,,0,17,17,12,1,,,,,,,,,,,,,,,,,,,,,,,,,,,,
,,,,,V3_081,21,Female,2024-11-20_16h46.23.219,jersey_experiment_5_v3,2023.2.2,Win32,84.03361345,,,,,,,,,,,,,,,,645.4933,646.7869,646.787,648.3046,return,0.2031,,23.95833333,,,,,,FBP-PT-19.png,0.37,1.2,27,0.5,,,,,,,,,,,,,0,18,18,26,1,,,,,,,,,,,,,,,,,,,,,,,,,,,,
,,,,,V3_081,21,Female,2024-11-20_16h46.23.219,jersey_experiment_5_v3,2023.2.2,Win32,84.03361345,,,,,,,,,,,,,,,,648.3049,649.8577,649.8577,651.4105,return,0.1783,,75,,,,,,FBP-OG-19.png,0.43,1.2,44,0.75,,,,,,,,,,,,,0,19,19,43,1,,,,,,,,,,,,,,,,,,,,,,,,,,,,
,,,,,V3_081,21,Female,2024-11-20_16h46.23.219,jersey_experiment_5_v3,2023.2.2,Win32,84.03361345,,,,,,,,,,,,,,,,651.4107,652.7048,652.7048,655.8931,return,0.2201,,22.39583333,,,,,,FBP-YG-81.png,0.35,1.2,6,0.5,,,,,,,,,,,,,0,20,20,5,1,,,,,,,,,,,,,,,,,,,,,,,,,,,,
,,,,,V3_081,21,Female,2024-11-20_16h46.23.219,jersey_experiment_5_v3,2023.2.2,Win32,84.03361345,,,,,,,,,,,,,,,,655.8934,657.1873,657.1873,658.1638,return,0.1093,,21.484375,,,,,,FBP-YG-81.png,0.37,1.2,7,0.5,,,,,,,,,,,,,0,21,21,6,1,,,,,,,,,,,,,,,,,,,,,,,,,,,,
,,,,,V3_081,21,Female,2024-11-20_16h46.23.219,jersey_experiment_5_v3,2023.2.2,Win32,84.03361345,,,,,,,,,,,,,,,,658.1641,659.7167,659.7168,660.6462,return,0.1885,,21.875,,,,,,FBP-OG-19.png,0.35,1.2,41,0.75,,,,,,,,,,,,,0,22,22,40,1,,,,,,,,,,,,,,,,,,,,,,,,,,,,
,,,,,V3_081,21,Female,2024-11-20_16h46.23.219,jersey_experiment_5_v3,2023.2.2,Win32,84.03361345,,,,,,,,,,,,,,,,660.6465,661.9406,661.9407,664.764,return,0.102,,73.4375,,,,,,FBP-YG-71.png,0.45,1.2,5,0.5,,,,,,,,,,,,,0,23,23,4,1,,,,,,,,,,,,,,,,,,,,,,,,,,,,
,,,,,V3_081,21,Female,2024-11-20_16h46.23.219,jersey_experiment_5_v3,2023.2.2,Win32,84.03361345,,,,,,,,,,,,,,,,664.7644,666.0583,666.0584,667.6347,return,0.0715,,50,,,,,,FBP-YG-71.png,0.37,1.2,2,0.5,,,,,,,,,,,,,0,24,24,1,1,,,,,,,,,,,,,,,,,,,,,,,,,,,,
,,,,,V3_081,21,Female,2024-11-20_16h46.23.219,jersey_experiment_5_v3,2023.2.2,Win32,84.03361345,,,,,,,,,,,,,,,,667.6351,668.9289,668.929,669.8937,return,0.2679,,50,,,,,,FBP-RB-19.png,0.43,1.2,59,0.5,,,,,,,,,,,,,0,25,25,58,1,,,,,,,,,,,,,,,,,,,,,,,,,,,,
,,,,,V3_081,21,Female,2024-11-20_16h46.23.219,jersey_experiment_5_v3,2023.2.2,Win32,84.03361345,,,,,,,,,,,,,,,,669.894,671.4468,671.4468,672.5175,return,0.2363,,19.53125,,,,,,FBP-OG-19.png,0.37,1.2,42,0.75,,,,,,,,,,,,,0,26,26,41,1,,,,,,,,,,,,,,,,,,,,,,,,,,,,
,,,,,V3_081,21,Female,2024-11-20_16h46.23.219,jersey_experiment_5_v3,2023.2.2,Win32,84.03361345,,,,,,,,,,,,,,,,672.5178,673.8115,673.8116,675.094,return,0.2122,,31.25,,,,,,FBP-PT-19.png,0.4,1.2,28,0.5,,,,,,,,,,,,,0,27,27,27,1,,,,,,,,,,,,,,,,,,,,,,,,,,,,
,,,,,V3_081,21,Female,2024-11-20_16h46.23.219,jersey_experiment_5_v3,2023.2.2,Win32,84.03361345,,,,,,,,,,,,,,,,675.0942,676.388,676.388,678.059,return,0.2916,,49.86979167,,,,,,FBP-RB-18.png,0.43,1.2,54,0.5,,,,,,,,,,,,,0,28,28,53,1,,,,,,,,,,,,,,,,,,,,,,,,,,,,
,,,,,V3_081,21,Female,2024-11-20_16h46.23.219,jersey_experiment_5_v3,2023.2.2,Win32,84.03361345,,,,,,,,,,,,,,,,678.0593,679.3529,679.353,680.1176,return,0.1875,,49.86979167,,,,,,FBP-PT-17.png,0.43,1.2,19,0.5,,,,,,,,,,,,,0,29,29,18,1,,,,,,,,,,,,,,,,,,,,,,,,,,,,
,,,,,V3_081,21,Female,2024-11-20_16h46.23.219,jersey_experiment_5_v3,2023.2.2,Win32,84.03361345,,,,,,,,,,,,,,,,680.1178,681.4117,681.4117,682.9413,return,0.3323,,34.765625,,,,,,FBP-RB-18.png,0.37,1.2,52,0.5,,,,,,,,,,,,,0,30,30,51,1,,,,,,,,,,,,,,,,,,,,,,,,,,,,
,,,,,V3_081,21,Female,2024-11-20_16h46.23.219,jersey_experiment_5_v3,2023.2.2,Win32,84.03361345,,,,,,,,,,,,,,,,682.9415,684.2356,684.2356,686.3063,return,1.19,,13.15104167,,,,,,FBP-RB-18.png,0.35,1.2,51,0.5,,,,,,,,,,,,,0,31,31,50,1,,,,,,,,,,,,,,,,,,,,,,,,,,,,
,,,,,V3_081,21,Female,2024-11-20_16h46.23.219,jersey_experiment_5_v3,2023.2.2,Win32,84.03361345,,,,,,,,,,,,,,,,686.3066,687.6003,687.6004,688.8004,return,0.2034,,20.96354167,,,,,,FBP-YG-91.png,0.37,1.2,12,0.5,,,,,,,,,,,,,0,32,32,11,1,,,,,,,,,,,,,,,,,,,,,,,,,,,,
,,,,,V3_081,21,Female,2024-11-20_16h46.23.219,jersey_experiment_5_v3,2023.2.2,Win32,84.03361345,,,,,,,,,,,,,,,,688.8007,690.0946,690.0947,691.6005,return,0.345,,14.453125,,,,,,FBP-YG-91.png,0.35,1.2,11,0.5,,,,,,,,,,,,,0,33,33,10,1,,,,,,,,,,,,,,,,,,,,,,,,,,,,
,,,,,V3_081,21,Female,2024-11-20_16h46.23.219,jersey_experiment_5_v3,2023.2.2,Win32,84.03361345,,,,,,,,,,,,,,,,691.6009,692.8946,692.8946,694.9771,return,0.6853,,49.86979167,,,,,,FBP-RB-19.png,0.45,1.2,60,0.5,,,,,,,,,,,,,0,34,34,59,1,,,,,,,,,,,,,,,,,,,,,,,,,,,,
,,,,,V3_081,21,Female,2024-11-20_16h46.23.219,jersey_experiment_5_v3,2023.2.2,Win32,84.03361345,,,,,,,,,,,,,,,,694.9773,696.2715,696.2716,697.8596,return,0.1621,,68.22916667,,,,,,FBP-YG-91.png,0.45,1.2,15,0.5,,,,,,,,,,,,,0,35,35,14,1,,,,,,,,,,,,,,,,,,,,,,,,,,,,
,,,,,V3_081,21,Female,2024-11-20_16h46.23.219,jersey_experiment_5_v3,2023.2.2,Win32,84.03361345,,,,,,,,,,,,,,,,697.8598,699.1536,699.1536,700.4832,return,0.1523,,19.66145833,,,,,,FBP-RB-17.png,0.37,1.2,47,0.5,,,,,,,,,,,,,0,36,36,46,1,,,,,,,,,,,,,,,,,,,,,,,,,,,,
,,,,,V3_081,21,Female,2024-11-20_16h46.23.219,jersey_experiment_5_v3,2023.2.2,Win32,84.03361345,,,,,,,,,,,,,,,,700.4835,701.7772,701.7773,703.0832,return,0.0673,,20.96354167,,,,,,FBP-PT-18.png,0.37,1.2,22,0.5,,,,,,,,,,,,,0,37,37,21,1,,,,,,,,,,,,,,,,,,,,,,,,,,,,
,,,,,V3_081,21,Female,2024-11-20_16h46.23.219,jersey_experiment_5_v3,2023.2.2,Win32,84.03361345,,,,,,,,,,,,,,,,703.0834,704.3774,704.3774,705.6952,return,0.2154,,12.890625,,,,,,FBP-PT-18.png,0.35,1.2,21,0.5,,,,,,,,,,,,,0,38,38,20,1,,,,,,,,,,,,,,,,,,,,,,,,,,,,
,,,,,V3_081,21,Female,2024-11-20_16h46.23.219,jersey_experiment_5_v3,2023.2.2,Win32,84.03361345,,,,,,,,,,,,,,,,705.6954,706.9891,706.9892,707.8715,return,0.0384,,19.921875,,,,,,FBP-PT-17.png,0.37,1.2,17,0.5,,,,,,,,,,,,,0,39,39,16,1,,,,,,,,,,,,,,,,,,,,,,,,,,,,
,,,,,V3_081,21,Female,2024-11-20_16h46.23.219,jersey_experiment_5_v3,2023.2.2,Win32,84.03361345,,,,,,,,,,,,,,,,707.8717,709.1657,709.1657,710.4482,return,0.1675,,25.91145833,,,,,,FBP-YG-81.png,0.4,1.2,8,0.5,,,,,,,,,,,,,0,40,40,7,1,,,,,,,,,,,,,,,,,,,,,,,,,,,,
,,,,,V3_081,21,Female,2024-11-20_16h46.23.219,jersey_experiment_5_v3,2023.2.2,Win32,84.03361345,,,,,,,,,,,,,,,,710.4484,711.7422,711.7423,713.9189,return,0.1565,,49.86979167,,,,,,FBP-YG-71.png,0.43,1.2,4,0.5,,,,,,,,,,,,,0,41,41,3,1,,,,,,,,,,,,,,,,,,,,,,,,,,,,
,,,,,V3_081,21,Female,2024-11-20_16h46.23.219,jersey_experiment_5_v3,2023.2.2,Win32,84.03361345,,,,,,,,,,,,,,,,713.9191,715.2131,715.2132,716.8131,return,1.0186,,50.13020833,,,,,,FBP-RB-17.png,0.43,1.2,49,0.5,,,,,,,,,,,,,0,42,42,48,1,,,,,,,,,,,,,,,,,,,,,,,,,,,,
,,,,,V3_081,21,Female,2024-11-20_16h46.23.219,jersey_experiment_5_v3,2023.2.2,Win32,84.03361345,,,,,,,,,,,,,,,,716.8133,718.3663,718.3663,720.5074,return,0.9496,,74.34895833,,,,,,FBP-OG-18.png,0.45,1.2,40,0.75,,,,,,,,,,,,,0,43,43,39,1,,,,,,,,,,,,,,,,,,,,,,,,,,,,
,,,,,V3_081,21,Female,2024-11-20_16h46.23.219,jersey_experiment_5_v3,2023.2.2,Win32,84.03361345,,,,,,,,,,,,,,,,720.5077,722.0604,722.0605,723.3075,return,0.0867,,22.52604167,,,,,,FBP-OG-18.png,0.35,1.2,36,0.75,,,,,,,,,,,,,0,44,44,35,1,,,,,,,,,,,,,,,,,,,,,,,,,,,,
,,,,,V3_081,21,Female,2024-11-20_16h46.23.219,jersey_experiment_5_v3,2023.2.2,Win32,84.03361345,,,,,,,,,,,,,,,,723.3078,724.6016,724.6017,725.7546,return,0.1356,,14.84375,,,,,,FBP-PT-17.png,0.35,1.2,16,0.5,,,,,,,,,,,,,0,45,45,15,1,,,,,,,,,,,,,,,,,,,,,,,,,,,,
,,,,,V3_081,21,Female,2024-11-20_16h46.23.219,jersey_experiment_5_v3,2023.2.2,Win32,84.03361345,,,,,,,,,,,,,,,,725.7548,727.3077,727.3078,730.8961,return,0.0698,,74.47916667,,,,,,FBP-OG-17.png,0.43,1.2,34,0.75,,,,,,,,,,,,,0,46,46,33,1,,,,,,,,,,,,,,,,,,,,,,,,,,,,
,,,,,V3_081,21,Female,2024-11-20_16h46.23.219,jersey_experiment_5_v3,2023.2.2,Win32,84.03361345,,,,,,,,,,,,,,,,730.8962,732.1902,732.1902,733.3903,return,0.135,,20.57291667,,,,,,FBP-RB-19.png,0.37,1.2,57,0.5,,,,,,,,,,,,,0,47,47,56,1,,,,,,,,,,,,,,,,,,,,,,,,,,,,
,,,,,V3_081,21,Female,2024-11-20_16h46.23.219,jersey_experiment_5_v3,2023.2.2,Win32,84.03361345,,,,,,,,,,,,,,,,733.3905,734.6844,734.6844,736.0491,return,0.1554,,49.47916667,,,,,,FBP-PT-17.png,0.4,1.2,18,0.5,,,,,,,,,,,,,0,48,48,17,1,,,,,,,,,,,,,,,,,,,,,,,,,,,,
,,,,,V3_081,21,Female,2024-11-20_16h46.23.219,jersey_experiment_5_v3,2023.2.2,Win32,84.03361345,,,,,,,,,,,,,,,,736.0493,737.6022,737.6023,738.8493,return,0.2113,,49.47916667,,,,,,FBP-OG-19.png,0.4,1.2,43,0.75,,,,,,,,,,,,,0,49,49,42,1,,,,,,,,,,,,,,,,,,,,,,,,,,,,
,,,,,V3_081,21,Female,2024-11-20_16h46.23.219,jersey_experiment_5_v3,2023.2.2,Win32,84.03361345,,,,,,,,,,,,,,,,738.8496,740.1434,740.1435,741.4142,return,0.1651,,30.46875,,,,,,FBP-PT-19.png,0.35,1.2,26,0.5,,,,,,,,,,,,,0,50,50,25,1,,,,,,,,,,,,,,,,,,,,,,,,,,,,
,,,,,V3_081,21,Female,2024-11-20_16h46.23.219,jersey_experiment_5_v3,2023.2.2,Win32,84.03361345,,,,,,,,,,,,,,,,741.4144,742.7082,742.7083,745.0141,return,0.0964,,50,,,,,,FBP-YG-91.png,0.43,1.2,14,0.5,,,,,,,,,,,,,0,51,51,13,1,,,,,,,,,,,,,,,,,,,,,,,,,,,,
,,,,,V3_081,21,Female,2024-11-20_16h46.23.219,jersey_experiment_5_v3,2023.2.2,Win32,84.03361345,,,,,,,,,,,,,,,,745.0144,746.3084,746.3084,747.9201,return,1.0262,,50,,,,,,FBP-YG-81.png,0.43,1.2,9,0.5,,,,,,,,,,,,,0,52,52,8,1,,,,,,,,,,,,,,,,,,,,,,,,,,,,
,,,,,V3_081,21,Female,2024-11-20_16h46.23.219,jersey_experiment_5_v3,2023.2.2,Win32,84.03361345,,,,,,,,,,,,,,,,747.9204,749.2144,749.2145,750.6261,return,0.1065,,10.546875,,,,,,FBP-RB-19.png,0.35,1.2,56,0.5,,,,,,,,,,,,,0,53,53,55,1,,,,,,,,,,,,,,,,,,,,,,,,,,,,
,,,,,V3_081,21,Female,2024-11-20_16h46.23.219,jersey_experiment_5_v3,2023.2.2,Win32,84.03361345,,,,,,,,,,,,,,,,750.6264,751.9203,751.9204,754.2381,return,0.0885,,49.47916667,,,,,,FBP-RB-17.png,0.4,1.2,48,0.5,,,,,,,,,,,,,0,54,54,47,1,,,,,,,,,,,,,,,,,,,,,,,,,,,,
,,,,,V3_081,21,Female,2024-11-20_16h46.23.219,jersey_experiment_5_v3,2023.2.2,Win32,84.03361345,,,,,,,,,,,,,,,,754.2382,755.791,755.791,759.0854,return,0.0417,,50.390625,,,,,,FBP-OG-18.png,0.43,1.2,39,0.75,,,,,,,,,,,,,0,55,55,38,1,,,,,,,,,,,,,,,,,,,,,,,,,,,,
,,,,,V3_081,21,Female,2024-11-20_16h46.23.219,jersey_experiment_5_v3,2023.2.2,Win32,84.03361345,,,,,,,,,,,,,,,,759.0856,760.6269,760.627,761.5795,return,0.1612,,31.640625,,,,,,FBP-OG-17.png,0.4,1.2,33,0.75,,,,,,,,,,,,,0,56,56,32,1,,,,,,,,,,,,,,,,,,,,,,,,,,,,
,,,,,V3_081,21,Female,2024-11-20_16h46.23.219,jersey_experiment_5_v3,2023.2.2,Win32,84.03361345,,,,,,,,,,,,,,,,761.5797,762.8737,762.8739,763.7327,return,0.141,,31.90104167,,,,,,FBP-RB-19.png,0.4,1.2,58,0.5,,,,,,,,,,,,,0,57,57,57,1,,,,,,,,,,,,,,,,,,,,,,,,,,,,
,,,,,V3_081,21,Female,2024-11-20_16h46.23.219,jersey_experiment_5_v3,2023.2.2,Win32,84.03361345,,,,,,,,,,,,,,,,763.733,765.2857,765.2857,766.1446,return,0.1804,,16.796875,,,,,,FBP-OG-17.png,0.35,1.2,31,0.75,,,,,,,,,,,,,0,58,58,30,1,,,,,,,,,,,,,,,,,,,,,,,,,,,,
,,,,,V3_081,21,Female,2024-11-20_16h46.23.219,jersey_experiment_5_v3,2023.2.2,Win32,84.03361345,,,,,,,,,,,,,,,,766.1449,767.4386,767.4386,769.1681,return,0.1767,,33.72395833,,,,,,FBP-RB-18.png,0.4,1.2,53,0.5,,,,,,,,,,,,,0,59,59,52,1,,,,,,,,,,,,,,,,,,,,,,,,,,,,
,,,,,V3_081,21,Female,2024-11-20_16h46.23.219,jersey_experiment_5_v3,2023.2.2,Win32,84.03361345,,,,,,,,,,,,,,,,769.1696,770.4621,770.4622,772.427,return,0.1932,,78.125,,,,,,FBP-PT-81.png,0.45,1.2,25,0.5,,,,,,,,,,,,,,,,,,0,0,0,24,1,,,,,,,,,,,,,,,,,,,,,,,
,,,,,V3_081,21,Female,2024-11-20_16h46.23.219,jersey_experiment_5_v3,2023.2.2,Win32,84.03361345,,,,,,,,,,,,,,,,772.4272,773.9802,773.9802,775.3802,return,0.2208,,21.61458333,,,,,,FBP-OG-81.png,0.37,1.2,37,0.75,,,,,,,,,,,,,,,,,,0,1,1,36,1,,,,,,,,,,,,,,,,,,,,,,,
,,,,,V3_081,21,Female,2024-11-20_16h46.23.219,jersey_experiment_5_v3,2023.2.2,Win32,84.03361345,,,,,,,,,,,,,,,,775.3805,776.674,776.6741,779.0861,return,0.7,,16.40625,,,,,,FBP-PT-91.png,0.35,1.2,26,0.5,,,,,,,,,,,,,,,,,,0,2,2,25,1,,,,,,,,,,,,,,,,,,,,,,,
,,,,,V3_081,21,Female,2024-11-20_16h46.23.219,jersey_experiment_5_v3,2023.2.2,Win32,84.03361345,,,,,,,,,,,,,,,,779.0863,780.3802,780.3803,786.5805,return,0.1414,,20.57291667,,,,,,FBP-RB-71.png,0.37,1.2,47,0.5,,,,,,,,,,,,,,,,,,0,3,3,46,1,,,,,,,,,,,,,,,,,,,,,,,
,,,,,V3_081,21,Female,2024-11-20_16h46.23.219,jersey_experiment_5_v3,2023.2.2,Win32,84.03361345,,,,,,,,,,,,,,,,786.5807,788.1336,788.1336,789.2983,return,0.2821,,26.43229167,,,,,,FBP-OG-91.png,0.37,1.2,42,0.75,,,,,,,,,,,,,,,,,,0,4,4,41,1,,,,,,,,,,,,,,,,,,,,,,,
,,,,,V3_081,21,Female,2024-11-20_16h46.23.219,jersey_experiment_5_v3,2023.2.2,Win32,84.03361345,,,,,,,,,,,,,,,,789.2985,790.5923,790.5924,791.8866,return,0.1582,,49.34895833,,,,,,FBP-PT-71.png,0.43,1.2,19,0.5,,,,,,,,,,,,,,,,,,0,5,5,18,1,,,,,,,,,,,,,,,,,,,,,,,
,,,,,V3_081,21,Female,2024-11-20_16h46.23.219,jersey_experiment_5_v3,2023.2.2,Win32,84.03361345,,,,,,,,,,,,,,,,791.8869,793.4397,793.4397,794.6278,return,0.2698,,50.13020833,,,,,,FBP-OG-81.png,0.4,1.2,38,0.75,,,,,,,,,,,,,,,,,,0,6,6,37,1,,,,,,,,,,,,,,,,,,,,,,,
,,,,,V3_081,21,Female,2024-11-20_16h46.23.219,jersey_experiment_5_v3,2023.2.2,Win32,84.03361345,,,,,,,,,,,,,,,,794.6281,795.9221,795.9221,797.428,return,0.126,,18.48958333,,,,,,FBP-PT-71.png,0.35,1.2,16,0.5,,,,,,,,,,,,,,,,,,0,7,7,15,1,,,,,,,,,,,,,,,,,,,,,,,
,,,,,V3_081,21,Female,2024-11-20_16h46.23.219,jersey_experiment_5_v3,2023.2.2,Win32,84.03361345,,,,,,,,,,,,,,,,797.4282,798.7221,798.7222,799.7104,return,0.1232,,32.68229167,,,,,,FBP-PT-71.png,0.37,1.2,17,0.5,,,,,,,,,,,,,,,,,,0,8,8,16,1,,,,,,,,,,,,,,,,,,,,,,,
,,,,,V3_081,21,Female,2024-11-20_16h46.23.219,jersey_experiment_5_v3,2023.2.2,Win32,84.03361345,,,,,,,,,,,,,,,,799.7107,801.0045,801.0045,802.2869,return,0.1425,,49.34895833,,,,,,FBP-RB-81.png,0.4,1.2,53,0.5,,,,,,,,,,,,,,,,,,0,9,9,52,1,,,,,,,,,,,,,,,,,,,,,,,
,,,,,V3_081,21,Female,2024-11-20_16h46.23.219,jersey_experiment_5_v3,2023.2.2,Win32,84.03361345,,,,,,,,,,,,,,,,802.2872,803.84,803.84,805.1576,return,0.178,,62.63020833,,,,,,FBP-OG-91.png,0.45,1.2,45,0.75,,,,,,,,,,,,,,,,,,0,10,10,44,1,,,,,,,,,,,,,,,,,,,,,,,
,,,,,V3_081,21,Female,2024-11-20_16h46.23.219,jersey_experiment_5_v3,2023.2.2,Win32,84.03361345,,,,,,,,,,,,,,,,805.1578,806.4518,806.4519,807.9225,return,0.4014,,20.83333333,,,,,,FBP-RB-91.png,0.37,1.2,57,0.5,,,,,,,,,,,,,,,,,,0,11,11,56,1,,,,,,,,,,,,,,,,,,,,,,,
,,,,,V3_081,21,Female,2024-11-20_16h46.23.219,jersey_experiment_5_v3,2023.2.2,Win32,84.03361345,,,,,,,,,,,,,,,,807.9227,809.2167,809.2168,813.205,return,0.4855,,37.890625,,,,,,FBP-RB-71.png,0.45,1.2,50,0.5,,,,,,,,,,,,,,,,,,0,12,12,49,1,,,,,,,,,,,,,,,,,,,,,,,
,,,,,V3_081,21,Female,2024-11-20_16h46.23.219,jersey_experiment_5_v3,2023.2.2,Win32,84.03361345,,,,,,,,,,,,,,,,813.2052,814.4992,814.4992,815.6054,return,0.1415,,7.03125,,,,,,FBP-YG-19.png,0.35,1.2,11,0.5,,,,,,,,,,,,,,,,,,0,13,13,10,1,,,,,,,,,,,,,,,,,,,,,,,
,,,,,V3_081,21,Female,2024-11-20_16h46.23.219,jersey_experiment_5_v3,2023.2.2,Win32,84.03361345,,,,,,,,,,,,,,,,815.6055,816.8993,816.8993,819.2757,return,1.3243,,39.32291667,,,,,,FBP-YG-18.png,0.4,1.2,8,0.5,,,,,,,,,,,,,,,,,,0,14,14,7,1,,,,,,,,,,,,,,,,,,,,,,,
,,,,,V3_081,21,Female,2024-11-20_16h46.23.219,jersey_experiment_5_v3,2023.2.2,Win32,84.03361345,,,,,,,,,,,,,,,,819.276,820.8287,820.8288,822.1936,return,0.2022,,49.73958333,,,,,,FBP-OG-71.png,0.45,1.2,35,0.75,,,,,,,,,,,,,,,,,,0,15,15,34,1,,,,,,,,,,,,,,,,,,,,,,,
,,,,,V3_081,21,Female,2024-11-20_16h46.23.219,jersey_experiment_5_v3,2023.2.2,Win32,84.03361345,,,,,,,,,,,,,,,,822.1939,823.4877,823.4878,824.4055,return,0.0865,,50.26041667,,,,,,FBP-YG-17.png,0.45,1.2,5,0.5,,,,,,,,,,,,,,,,,,0,16,16,4,1,,,,,,,,,,,,,,,,,,,,,,,
,,,,,V3_081,21,Female,2024-11-20_16h46.23.219,jersey_experiment_5_v3,2023.2.2,Win32,84.03361345,,,,,,,,,,,,,,,,824.4058,825.9584,825.9585,827.2291,return,0.2385,,29.42708333,,,,,,FBP-OG-71.png,0.37,1.2,32,0.75,,,,,,,,,,,,,,,,,,0,17,17,31,1,,,,,,,,,,,,,,,,,,,,,,,
,,,,,V3_081,21,Female,2024-11-20_16h46.23.219,jersey_experiment_5_v3,2023.2.2,Win32,84.03361345,,,,,,,,,,,,,,,,827.2294,828.5233,828.5233,830.1585,return,0.076,,54.296875,,,,,,FBP-RB-81.png,0.45,1.2,55,0.5,,,,,,,,,,,,,,,,,,0,18,18,54,1,,,,,,,,,,,,,,,,,,,,,,,
,,,,,V3_081,21,Female,2024-11-20_16h46.23.219,jersey_experiment_5_v3,2023.2.2,Win32,84.03361345,,,,,,,,,,,,,,,,830.1587,831.4528,831.4529,833.3469,return,0.8864,,18.09895833,,,,,,FBP-YG-17.png,0.35,1.2,1,0.5,,,,,,,,,,,,,,,,,,0,19,19,0,1,,,,,,,,,,,,,,,,,,,,,,,
,,,,,V3_081,21,Female,2024-11-20_16h46.23.219,jersey_experiment_5_v3,2023.2.2,Win32,84.03361345,,,,,,,,,,,,,,,,833.3472,834.6411,834.6412,835.7471,return,0.1776,,46.61458333,,,,,,FBP-RB-91.png,0.43,1.2,59,0.5,,,,,,,,,,,,,,,,,,0,20,20,58,1,,,,,,,,,,,,,,,,,,,,,,,
,,,,,V3_081,21,Female,2024-11-20_16h46.23.219,jersey_experiment_5_v3,2023.2.2,Win32,84.03361345,,,,,,,,,,,,,,,,835.7473,837.0413,837.0413,838.3236,return,0.2356,,48.95833333,,,,,,FBP-YG-19.png,0.43,1.2,14,0.5,,,,,,,,,,,,,,,,,,0,21,21,13,1,,,,,,,,,,,,,,,,,,,,,,,
,,,,,V3_081,21,Female,2024-11-20_16h46.23.219,jersey_experiment_5_v3,2023.2.2,Win32,84.03361345,,,,,,,,,,,,,,,,838.3239,839.6177,839.6178,841.1003,return,0.2284,,50,,,,,,FBP-YG-19.png,0.4,1.2,13,0.5,,,,,,,,,,,,,,,,,,0,22,22,12,1,,,,,,,,,,,,,,,,,,,,,,,
,,,,,V3_081,21,Female,2024-11-20_16h46.23.219,jersey_experiment_5_v3,2023.2.2,Win32,84.03361345,,,,,,,,,,,,,,,,841.1005,842.6532,842.6532,844.7473,return,1.0909,,35.67708333,,,,,,FBP-OG-91.png,0.4,1.2,43,0.75,,,,,,,,,,,,,,,,,,0,23,23,42,1,,,,,,,,,,,,,,,,,,,,,,,
,,,,,V3_081,21,Female,2024-11-20_16h46.23.219,jersey_experiment_5_v3,2023.2.2,Win32,84.03361345,,,,,,,,,,,,,,,,844.7476,846.0416,846.0416,846.8064,return,0.1629,,36.71875,,,,,,FBP-YG-18.png,0.37,1.2,7,0.5,,,,,,,,,,,,,,,,,,0,24,24,6,1,,,,,,,,,,,,,,,,,,,,,,,
,,,,,V3_081,21,Female,2024-11-20_16h46.23.219,jersey_experiment_5_v3,2023.2.2,Win32,84.03361345,,,,,,,,,,,,,,,,846.8067,848.1004,848.1004,849.2181,return,0.2007,,17.1875,,,,,,FBP-YG-18.png,0.35,1.2,6,0.5,,,,,,,,,,,,,,,,,,0,25,25,5,1,,,,,,,,,,,,,,,,,,,,,,,
,,,,,V3_081,21,Female,2024-11-20_16h46.23.219,jersey_experiment_5_v3,2023.2.2,Win32,84.03361345,,,,,,,,,,,,,,,,849.2184,850.5123,850.5123,851.9241,return,0.1022,,49.21875,,,,,,FBP-YG-17.png,0.43,1.2,4,0.5,,,,,,,,,,,,,,,,,,0,26,26,3,1,,,,,,,,,,,,,,,,,,,,,,,
,,,,,V3_081,21,Female,2024-11-20_16h46.23.219,jersey_experiment_5_v3,2023.2.2,Win32,84.03361345,,,,,,,,,,,,,,,,851.9245,853.4771,853.4771,854.4537,return,0.1579,,18.359375,,,,,,FBP-OG-71.png,0.35,1.2,31,0.75,,,,,,,,,,,,,,,,,,0,27,27,30,1,,,,,,,,,,,,,,,,,,,,,,,
,,,,,V3_081,21,Female,2024-11-20_16h46.23.219,jersey_experiment_5_v3,2023.2.2,Win32,84.03361345,,,,,,,,,,,,,,,,854.4539,856.0066,856.0066,857.2772,return,0.1702,,38.41145833,,,,,,FBP-OG-71.png,0.4,1.2,33,0.75,,,,,,,,,,,,,,,,,,0,28,28,32,1,,,,,,,,,,,,,,,,,,,,,,,
,,,,,V3_081,21,Female,2024-11-20_16h46.23.219,jersey_experiment_5_v3,2023.2.2,Win32,84.03361345,,,,,,,,,,,,,,,,857.2775,858.5714,858.5715,859.7126,return,0.0848,,50,,,,,,FBP-PT-81.png,0.43,1.2,24,0.5,,,,,,,,,,,,,,,,,,0,29,29,23,1,,,,,,,,,,,,,,,,,,,,,,,
,,,,,V3_081,21,Female,2024-11-20_16h46.23.219,jersey_experiment_5_v3,2023.2.2,Win32,84.03361345,,,,,,,,,,,,,,,,859.7128,861.2655,861.2657,861.9715,return,0.2358,,50,,,,,,FBP-OG-71.png,0.43,1.2,34,0.75,,,,,,,,,,,,,,,,,,0,30,30,33,1,,,,,,,,,,,,,,,,,,,,,,,
,,,,,V3_081,21,Female,2024-11-20_16h46.23.219,jersey_experiment_5_v3,2023.2.2,Win32,84.03361345,,,,,,,,,,,,,,,,861.9716,863.2657,863.2657,864.2893,return,0.2264,,50,,,,,,FBP-RB-71.png,0.4,1.2,48,0.5,,,,,,,,,,,,,,,,,,0,31,31,47,1,,,,,,,,,,,,,,,,,,,,,,,
,,,,,V3_081,21,Female,2024-11-20_16h46.23.219,jersey_experiment_5_v3,2023.2.2,Win32,84.03361345,,,,,,,,,,,,,,,,864.2894,865.5834,865.5835,867.2188,return,1.1152,,49.86979167,,,,,,FBP-PT-71.png,0.45,1.2,20,0.5,,,,,,,,,,,,,,,,,,0,32,32,19,1,,,,,,,,,,,,,,,,,,,,,,,
,,,,,V3_081,21,Female,2024-11-20_16h46.23.219,jersey_experiment_5_v3,2023.2.2,Win32,84.03361345,,,,,,,,,,,,,,,,867.2189,868.513,868.513,870.8189,return,0.1535,,31.90104167,,,,,,FBP-PT-71.png,0.4,1.2,18,0.5,,,,,,,,,,,,,,,,,,0,33,33,17,1,,,,,,,,,,,,,,,,,,,,,,,
,,,,,V3_081,21,Female,2024-11-20_16h46.23.219,jersey_experiment_5_v3,2023.2.2,Win32,84.03361345,,,,,,,,,,,,,,,,870.819,872.372,872.3721,873.4191,return,0.149,,8.463541667,,,,,,FBP-OG-91.png,0.35,1.2,41,0.75,,,,,,,,,,,,,,,,,,0,34,34,40,1,,,,,,,,,,,,,,,,,,,,,,,
,,,,,V3_081,21,Female,2024-11-20_16h46.23.219,jersey_experiment_5_v3,2023.2.2,Win32,84.03361345,,,,,,,,,,,,,,,,873.4193,874.9722,874.9722,876.1603,return,0.1327,,49.73958333,,,,,,FBP-OG-91.png,0.43,1.2,44,0.75,,,,,,,,,,,,,,,,,,0,35,35,43,1,,,,,,,,,,,,,,,,,,,,,,,
,,,,,V3_081,21,Female,2024-11-20_16h46.23.219,jersey_experiment_5_v3,2023.2.2,Win32,84.03361345,,,,,,,,,,,,,,,,876.1604,877.4544,877.4544,878.3957,return,0.1496,,50.390625,,,,,,FBP-RB-91.png,0.45,1.2,60,0.5,,,,,,,,,,,,,,,,,,0,36,36,59,1,,,,,,,,,,,,,,,,,,,,,,,
,,,,,V3_081,21,Female,2024-11-20_16h46.23.219,jersey_experiment_5_v3,2023.2.2,Win32,84.03361345,,,,,,,,,,,,,,,,878.3959,879.6899,879.6899,881.3724,return,0.0905,,18.09895833,,,,,,FBP-RB-91.png,0.4,1.2,58,0.5,,,,,,,,,,,,,,,,,,0,37,37,57,1,,,,,,,,,,,,,,,,,,,,,,,
,,,,,V3_081,21,Female,2024-11-20_16h46.23.219,jersey_experiment_5_v3,2023.2.2,Win32,84.03361345,,,,,,,,,,,,,,,,881.3727,882.6665,882.6665,883.9373,return,0.1561,,13.02083333,,,,,,FBP-PT-91.png,0.43,1.2,29,0.5,,,,,,,,,,,,,,,,,,0,38,38,28,1,,,,,,,,,,,,,,,,,,,,,,,
,,,,,V3_081,21,Female,2024-11-20_16h46.23.219,jersey_experiment_5_v3,2023.2.2,Win32,84.03361345,,,,,,,,,,,,,,,,883.9375,885.2312,885.2312,886.9018,return,0.0945,,50,,,,,,FBP-YG-18.png,0.43,1.2,9,0.5,,,,,,,,,,,,,,,,,,0,39,39,8,1,,,,,,,,,,,,,,,,,,,,,,,
,,,,,V3_081,21,Female,2024-11-20_16h46.23.219,jersey_experiment_5_v3,2023.2.2,Win32,84.03361345,,,,,,,,,,,,,,,,886.902,888.4433,888.4433,889.3255,return,0.1358,,10.28645833,,,,,,FBP-OG-81.png,0.35,1.2,36,0.75,,,,,,,,,,,,,,,,,,0,40,40,35,1,,,,,,,,,,,,,,,,,,,,,,,
,,,,,V3_081,21,Female,2024-11-20_16h46.23.219,jersey_experiment_5_v3,2023.2.2,Win32,84.03361345,,,,,,,,,,,,,,,,889.3256,890.6196,890.6197,891.9258,return,0.0948,,8.723958333,,,,,,FBP-RB-91.png,0.35,1.2,56,0.5,,,,,,,,,,,,,,,,,,0,41,41,55,1,,,,,,,,,,,,,,,,,,,,,,,
,,,,,V3_081,21,Female,2024-11-20_16h46.23.219,jersey_experiment_5_v3,2023.2.2,Win32,84.03361345,,,,,,,,,,,,,,,,891.9259,893.2198,893.2198,894.9731,return,0.1237,,15.49479167,,,,,,FBP-PT-91.png,0.37,1.2,27,0.5,,,,,,,,,,,,,,,,,,0,42,42,26,1,,,,,,,,,,,,,,,,,,,,,,,
,,,,,V3_081,21,Female,2024-11-20_16h46.23.219,jersey_experiment_5_v3,2023.2.2,Win32,84.03361345,,,,,,,,,,,,,,,,894.9733,896.267,896.267,897.0552,return,0.0286,,10.28645833,,,,,,FBP-RB-81.png,0.37,1.2,52,0.5,,,,,,,,,,,,,,,,,,0,43,43,51,1,,,,,,,,,,,,,,,,,,,,,,,
,,,,,V3_081,21,Female,2024-11-20_16h46.23.219,jersey_experiment_5_v3,2023.2.2,Win32,84.03361345,,,,,,,,,,,,,,,,897.0552,898.3493,898.3493,899.1729,return,0.1412,,13.93229167,,,,,,FBP-PT-91.png,0.4,1.2,28,0.5,,,,,,,,,,,,,,,,,,0,44,44,27,1,,,,,,,,,,,,,,,,,,,,,,,
,,,,,V3_081,21,Female,2024-11-20_16h46.23.219,jersey_experiment_5_v3,2023.2.2,Win32,84.03361345,,,,,,,,,,,,,,,,899.173,900.4671,900.4672,901.4201,return,0.1846,,7.942708333,,,,,,FBP-PT-81.png,0.35,1.2,21,0.5,,,,,,,,,,,,,,,,,,0,45,45,20,1,,,,,,,,,,,,,,,,,,,,,,,
,,,,,V3_081,21,Female,2024-11-20_16h46.23.219,jersey_experiment_5_v3,2023.2.2,Win32,84.03361345,,,,,,,,,,,,,,,,901.4203,902.7143,902.7143,904.079,return,0.134,,25,,,,,,FBP-PT-81.png,0.4,1.2,23,0.5,,,,,,,,,,,,,,,,,,0,46,46,22,1,,,,,,,,,,,,,,,,,,,,,,,
,,,,,V3_081,21,Female,2024-11-20_16h46.23.219,jersey_experiment_5_v3,2023.2.2,Win32,84.03361345,,,,,,,,,,,,,,,,904.0793,905.3731,905.3732,906.3379,return,0.3441,,25.26041667,,,,,,FBP-PT-81.png,0.37,1.2,22,0.5,,,,,,,,,,,,,,,,,,0,47,47,21,1,,,,,,,,,,,,,,,,,,,,,,,
,,,,,V3_081,21,Female,2024-11-20_16h46.23.219,jersey_experiment_5_v3,2023.2.2,Win32,84.03361345,,,,,,,,,,,,,,,,906.3381,907.6322,907.6323,908.738,return,0.1316,,49.47916667,,,,,,FBP-YG-19.png,0.45,1.2,15,0.5,,,,,,,,,,,,,,,,,,0,48,48,14,1,,,,,,,,,,,,,,,,,,,,,,,
,,,,,V3_081,21,Female,2024-11-20_16h46.23.219,jersey_experiment_5_v3,2023.2.2,Win32,84.03361345,,,,,,,,,,,,,,,,908.7381,910.0322,910.0323,910.9264,return,0.0987,,61.45833333,,,,,,FBP-PT-91.png,0.45,1.2,30,0.5,,,,,,,,,,,,,,,,,,0,49,49,29,1,,,,,,,,,,,,,,,,,,,,,,,
,,,,,V3_081,21,Female,2024-11-20_16h46.23.219,jersey_experiment_5_v3,2023.2.2,Win32,84.03361345,,,,,,,,,,,,,,,,910.9265,912.2205,912.2205,913.6441,return,0.0873,,36.45833333,,,,,,FBP-YG-17.png,0.37,1.2,2,0.5,,,,,,,,,,,,,,,,,,0,50,50,1,1,,,,,,,,,,,,,,,,,,,,,,,
,,,,,V3_081,21,Female,2024-11-20_16h46.23.219,jersey_experiment_5_v3,2023.2.2,Win32,84.03361345,,,,,,,,,,,,,,,,913.6443,914.9383,914.9383,916.162,return,0.1765,,36.45833333,,,,,,FBP-YG-17.png,0.4,1.2,3,0.5,,,,,,,,,,,,,,,,,,0,51,51,2,1,,,,,,,,,,,,,,,,,,,,,,,
,,,,,V3_081,21,Female,2024-11-20_16h46.23.219,jersey_experiment_5_v3,2023.2.2,Win32,84.03361345,,,,,,,,,,,,,,,,916.1622,917.4559,917.4559,919.056,return,0.4513,,23.69791667,,,,,,FBP-RB-71.png,0.35,1.2,46,0.5,,,,,,,,,,,,,,,,,,0,52,52,45,1,,,,,,,,,,,,,,,,,,,,,,,
,,,,,V3_081,21,Female,2024-11-20_16h46.23.219,jersey_experiment_5_v3,2023.2.2,Win32,84.03361345,,,,,,,,,,,,,,,,919.0562,920.3502,920.3502,921.4916,return,0.1658,,48.828125,,,,,,FBP-RB-81.png,0.43,1.2,54,0.5,,,,,,,,,,,,,,,,,,0,53,53,53,1,,,,,,,,,,,,,,,,,,,,,,,
,,,,,V3_081,21,Female,2024-11-20_16h46.23.219,jersey_experiment_5_v3,2023.2.2,Win32,84.03361345,,,,,,,,,,,,,,,,921.4918,922.7856,922.7857,924.774,return,1.0593,,14.0625,,,,,,FBP-RB-81.png,0.35,1.2,51,0.5,,,,,,,,,,,,,,,,,,0,54,54,50,1,,,,,,,,,,,,,,,,,,,,,,,
,,,,,V3_081,21,Female,2024-11-20_16h46.23.219,jersey_experiment_5_v3,2023.2.2,Win32,84.03361345,,,,,,,,,,,,,,,,924.7741,926.3268,926.3269,927.6328,return,0.0968,,50.390625,,,,,,FBP-OG-81.png,0.45,1.2,40,0.75,,,,,,,,,,,,,,,,,,0,55,55,39,1,,,,,,,,,,,,,,,,,,,,,,,
,,,,,V3_081,21,Female,2024-11-20_16h46.23.219,jersey_experiment_5_v3,2023.2.2,Win32,84.03361345,,,,,,,,,,,,,,,,927.6331,929.1858,929.1859,929.9153,return,0.1486,,50.26041667,,,,,,FBP-OG-81.png,0.43,1.2,39,0.75,,,,,,,,,,,,,,,,,,0,56,56,38,1,,,,,,,,,,,,,,,,,,,,,,,
,,,,,V3_081,21,Female,2024-11-20_16h46.23.219,jersey_experiment_5_v3,2023.2.2,Win32,84.03361345,,,,,,,,,,,,,,,,929.9154,931.2095,931.2095,932.9272,return,0.9919,,50.26041667,,,,,,FBP-YG-18.png,0.45,1.2,10,0.5,,,,,,,,,,,,,,,,,,0,57,57,9,1,,,,,,,,,,,,,,,,,,,,,,,
,,,,,V3_081,21,Female,2024-11-20_16h46.23.219,jersey_experiment_5_v3,2023.2.2,Win32,84.03361345,,,,,,,,,,,,,,,,932.9274,934.2213,934.2214,936.0332,return,0.1327,,35.41666667,,,,,,FBP-YG-19.png,0.37,1.2,12,0.5,,,,,,,,,,,,,,,,,,0,58,58,11,1,,,,,,,,,,,,,,,,,,,,,,,
,,,,,V3_081,21,Female,2024-11-20_16h46.23.219,jersey_experiment_5_v3,2023.2.2,Win32,84.03361345,,,,,,,,,,,,,,,,936.0333,937.3274,937.3274,938.1979,return,0.2143,,39.453125,,,,,,FBP-RB-71.png,0.43,1.2,49,0.5,,,,,,,,,,,,,,,,,,0,59,59,48,1,,,,,,,,,,,,,,,,,,,,,,,
,,,,,V3_081,21,Female,2024-11-20_16h46.23.219,jersey_experiment_5_v3,2023.2.2,Win32,84.03361345,,,,,,,,,,,,,,,,,,,,,,,,,,,,,,,,,,,,,,,,,,,,,,,,,,,,,,,,938.198,941.1158,return,2.914,,,,,,,,,,,,,,,,,,,
,,,,,V3_081,21,Female,2024-11-20_16h46.23.219,jersey_experiment_5_v3,2023.2.2,Win32,84.03361345,,,,,,,,,,,,,,,,,,,,,,,,,,,,,,,,,,,,,,,,,,,,,,,,,,,,,,,,,,,,,941.1158,943.7749,1,2.52,return,0.1197,,,,,,,,,,,,
,,,,,V3_081,21,Female,2024-11-20_16h46.23.219,jersey_experiment_5_v3,2023.2.2,Win32,84.03361345,,,,,,,,,,,,,,,,,,,,,,,,,,,,,,,,,,,,,,,,,,,,,,,,,,,,,,,,,,,,,,,,,,,,943.775,970.1762,potentially about race and weight bias?,right,18.4017,,,,,,
,,,,,V3_081,21,Female,2024-11-20_16h46.23.219,jersey_experiment_5_v3,2023.2.2,Win32,84.03361345,,,,,,,,,,,,,,,,,,,,,,,,,,,,,,,,,,,,,,,,,,,,,,,,,,,,,,,,,,,,,,,,,,,,,,,,,,970.1762,972.5405,return,2.359,