requirements.started,requirements.stopped,key_resp_3.keys,key_resp_3.rt,key_resp_3.duration,Subject ID,Age,Gender,date,expName,psychopyVersion,OS,frameRate,instructions1.started,instructions1.stopped,key_resp.keys,key_resp.rt,key_resp.duration,example.started,example.stopped,enter_2.keys,enter_2.rt,enter_2.duration,instructions2.started,instructions2.stopped,enter_3.keys,enter_3.rt,enter_3.duration,image.started,image.stopped,slider_2.started,slider_2.stopped,next.keys,next.rt,next.duration,slider.response,trial_block_1.thisRepN,trial_block_1.thisTrialN,trial_block_1.thisN,trial_block_1.thisIndex,trial_block_1.ran,Path,Width,Height,Index,Duration,trial_block_2.thisRepN,trial_block_2.thisTrialN,trial_block_2.thisN,trial_block_2.thisIndex,trial_block_2.ran,rest_break.started,rest_break.stopped,end_break.started,end_break.stopped,key_resp_5.keys,key_resp_5.rt,key_resp_5.duration,trial_block_3.thisRepN,trial_block_3.thisTrialN,trial_block_3.thisN,trial_block_3.thisIndex,trial_block_3.ran,trial_block_4.thisRepN,trial_block_4.thisTrialN,trial_block_4.thisN,trial_block_4.thisIndex,trial_block_4.ran,questions_intro.started,questions_intro.stopped,enter_12.keys,enter_12.rt,enter_12.duration,question2.started,question2.stopped,question_doingbest.response,question_doingbest.rt,enter_15.keys,enter_15.rt,enter_15.duration,pattern.started,pattern.stopped,pattern_2.text,enter_17.keys,enter_17.rt,enter_17.duration,thankyou.started,thankyou.stopped,enter_14.keys,enter_14.rt,enter_14.duration
0.0001,13.352,return,13.3418,,V3_013,19,Female,2024-10-15_19h36.35.664,jersey_experiment_5_v3,2023.2.2,Win32,84.74576271,,,,,,,,,,,,,,,,,,,,,,,,,,,,,,,,,,,,,,,,,,,,,,,,,,,,,,,,,,,,,,,,,,,,,,,,,,,,,,
,,,,,V3_013,19,Female,2024-10-15_19h36.35.664,jersey_experiment_5_v3,2023.2.2,Win32,84.74576271,13.3522,30.3643,return,16.9884,,,,,,,,,,,,,,,,,,,,,,,,,,,,,,,,,,,,,,,,,,,,,,,,,,,,,,,,,,,,,,,,,,,,,,,,,,
,,,,,V3_013,19,Female,2024-10-15_19h36.35.664,jersey_experiment_5_v3,2023.2.2,Win32,84.74576271,,,,,,30.3644,34.788,return,4.4027,,,,,,,,,,,,,,,,,,,,,,,,,,,,,,,,,,,,,,,,,,,,,,,,,,,,,,,,,,,,,,,,,,,,,
,,,,,V3_013,19,Female,2024-10-15_19h36.35.664,jersey_experiment_5_v3,2023.2.2,Win32,84.74576271,,,,,,,,,,,34.7881,53.533,return,18.7296,,,,,,,,,,,,,,,,,,,,,,,,,,,,,,,,,,,,,,,,,,,,,,,,,,,,,,,,,,,,,,,,
,,,,,V3_013,19,Female,2024-10-15_19h36.35.664,jersey_experiment_5_v3,2023.2.2,Win32,84.74576271,,,,,,,,,,,,,,,,53.535,55.0775,55.0775,68.1539,return,2.9195,,74.609375,0,0,0,49,1,FBP-RB-17.png,0.45,1.2,50,0.75,,,,,,,,,,,,,,,,,,,,,,,,,,,,,,,,,,,,,,,,,,,,,
,,,,,V3_013,19,Female,2024-10-15_19h36.35.664,jersey_experiment_5_v3,2023.2.2,Win32,84.74576271,,,,,,,,,,,,,,,,68.1542,69.448,69.448,72.6864,return,1.1767,,99.73958333,0,1,1,43,1,FBP-OG-19.png,0.43,1.2,44,0.5,,,,,,,,,,,,,,,,,,,,,,,,,,,,,,,,,,,,,,,,,,,,,
,,,,,V3_013,19,Female,2024-10-15_19h36.35.664,jersey_experiment_5_v3,2023.2.2,Win32,84.74576271,,,,,,,,,,,,,,,,72.6867,74.2364,74.2364,76.3423,return,0.6397,,75.13020833,0,2,2,14,1,FBP-YG-91.png,0.45,1.2,15,0.75,,,,,,,,,,,,,,,,,,,,,,,,,,,,,,,,,,,,,,,,,,,,,
,,,,,V3_013,19,Female,2024-10-15_19h36.35.664,jersey_experiment_5_v3,2023.2.2,Win32,84.74576271,,,,,,,,,,,,,,,,76.3426,77.6365,77.6366,85.3138,return,5.9533,,43.09895833,0,3,3,42,1,FBP-OG-19.png,0.4,1.2,43,0.5,,,,,,,,,,,,,,,,,,,,,,,,,,,,,,,,,,,,,,,,,,,,,
,,,,,V3_013,19,Female,2024-10-15_19h36.35.664,jersey_experiment_5_v3,2023.2.2,Win32,84.74576271,,,,,,,,,,,,,,,,85.314,86.8603,86.8604,89.1546,return,0.3258,,19.66145833,0,4,4,50,1,FBP-RB-18.png,0.35,1.2,51,0.75,,,,,,,,,,,,,,,,,,,,,,,,,,,,,,,,,,,,,,,,,,,,,
,,,,,V3_013,19,Female,2024-10-15_19h36.35.664,jersey_experiment_5_v3,2023.2.2,Win32,84.74576271,,,,,,,,,,,,,,,,89.1548,90.7076,90.7078,93.2907,return,0.5093,,77.86458333,0,5,5,29,1,FBP-PT-19.png,0.45,1.2,30,0.75,,,,,,,,,,,,,,,,,,,,,,,,,,,,,,,,,,,,,,,,,,,,,
,,,,,V3_013,19,Female,2024-10-15_19h36.35.664,jersey_experiment_5_v3,2023.2.2,Win32,84.74576271,,,,,,,,,,,,,,,,93.2908,94.8371,94.8371,96.4522,return,0.5025,,64.19270833,0,6,6,4,1,FBP-YG-71.png,0.45,1.2,5,0.75,,,,,,,,,,,,,,,,,,,,,,,,,,,,,,,,,,,,,,,,,,,,,
,,,,,V3_013,19,Female,2024-10-15_19h36.35.664,jersey_experiment_5_v3,2023.2.2,Win32,84.74576271,,,,,,,,,,,,,,,,96.4523,98.0049,98.005,99.6608,return,0.6207,,88.28125,0,7,7,53,1,FBP-RB-18.png,0.43,1.2,54,0.75,,,,,,,,,,,,,,,,,,,,,,,,,,,,,,,,,,,,,,,,,,,,,
,,,,,V3_013,19,Female,2024-10-15_19h36.35.664,jersey_experiment_5_v3,2023.2.2,Win32,84.74576271,,,,,,,,,,,,,,,,99.6612,100.955,100.9551,104.4846,return,2.5556,,57.03125,0,8,8,32,1,FBP-OG-17.png,0.4,1.2,33,0.5,,,,,,,,,,,,,,,,,,,,,,,,,,,,,,,,,,,,,,,,,,,,,
,,,,,V3_013,19,Female,2024-10-15_19h36.35.664,jersey_experiment_5_v3,2023.2.2,Win32,84.74576271,,,,,,,,,,,,,,,,104.4848,105.7787,105.7787,108.2613,return,1.4373,,32.55208333,0,9,9,30,1,FBP-OG-17.png,0.35,1.2,31,0.5,,,,,,,,,,,,,,,,,,,,,,,,,,,,,,,,,,,,,,,,,,,,,
,,,,,V3_013,19,Female,2024-10-15_19h36.35.664,jersey_experiment_5_v3,2023.2.2,Win32,84.74576271,,,,,,,,,,,,,,,,108.2616,109.8173,109.8173,124.2619,return,13.5313,,15.10416667,0,10,10,5,1,FBP-YG-81.png,0.35,1.2,6,0.75,,,,,,,,,,,,,,,,,,,,,,,,,,,,,,,,,,,,,,,,,,,,,
,,,,,V3_013,19,Female,2024-10-15_19h36.35.664,jersey_experiment_5_v3,2023.2.2,Win32,84.74576271,,,,,,,,,,,,,,,,124.2622,125.556,125.556,127.8972,return,1.1637,,74.47916667,0,11,11,36,1,FBP-OG-18.png,0.37,1.2,37,0.5,,,,,,,,,,,,,,,,,,,,,,,,,,,,,,,,,,,,,,,,,,,,,
,,,,,V3_013,19,Female,2024-10-15_19h36.35.664,jersey_experiment_5_v3,2023.2.2,Win32,84.74576271,,,,,,,,,,,,,,,,127.8975,129.4415,129.4416,131.462,return,0.9573,,92.578125,0,12,12,59,1,FBP-RB-19.png,0.45,1.2,60,0.75,,,,,,,,,,,,,,,,,,,,,,,,,,,,,,,,,,,,,,,,,,,,,
,,,,,V3_013,19,Female,2024-10-15_19h36.35.664,jersey_experiment_5_v3,2023.2.2,Win32,84.74576271,,,,,,,,,,,,,,,,131.4623,133.0182,133.0182,134.4773,return,0.3297,,42.44791667,0,13,13,46,1,FBP-RB-17.png,0.37,1.2,47,0.75,,,,,,,,,,,,,,,,,,,,,,,,,,,,,,,,,,,,,,,,,,,,,
,,,,,V3_013,19,Female,2024-10-15_19h36.35.664,jersey_experiment_5_v3,2023.2.2,Win32,84.74576271,,,,,,,,,,,,,,,,134.4774,135.7709,135.7709,137.2773,return,0.3534,,65.625,0,14,14,37,1,FBP-OG-18.png,0.4,1.2,38,0.5,,,,,,,,,,,,,,,,,,,,,,,,,,,,,,,,,,,,,,,,,,,,,
,,,,,V3_013,19,Female,2024-10-15_19h36.35.664,jersey_experiment_5_v3,2023.2.2,Win32,84.74576271,,,,,,,,,,,,,,,,137.2775,138.8271,138.8271,141.4625,return,1.2478,,35.28645833,0,15,15,1,1,FBP-YG-71.png,0.37,1.2,2,0.75,,,,,,,,,,,,,,,,,,,,,,,,,,,,,,,,,,,,,,,,,,,,,
,,,,,V3_013,19,Female,2024-10-15_19h36.35.664,jersey_experiment_5_v3,2023.2.2,Win32,84.74576271,,,,,,,,,,,,,,,,141.4628,143.0101,143.0101,144.745,return,0.8489,,75.13020833,0,16,16,13,1,FBP-YG-91.png,0.43,1.2,14,0.75,,,,,,,,,,,,,,,,,,,,,,,,,,,,,,,,,,,,,,,,,,,,,
,,,,,V3_013,19,Female,2024-10-15_19h36.35.664,jersey_experiment_5_v3,2023.2.2,Win32,84.74576271,,,,,,,,,,,,,,,,144.7452,146.3044,146.3044,148.6188,return,1.5767,,86.19791667,0,17,17,3,1,FBP-YG-71.png,0.43,1.2,4,0.75,,,,,,,,,,,,,,,,,,,,,,,,,,,,,,,,,,,,,,,,,,,,,
,,,,,V3_013,19,Female,2024-10-15_19h36.35.664,jersey_experiment_5_v3,2023.2.2,Win32,84.74576271,,,,,,,,,,,,,,,,148.619,149.9216,149.9217,151.4347,return,0.4951,,98.17708333,0,18,18,38,1,FBP-OG-18.png,0.43,1.2,39,0.5,,,,,,,,,,,,,,,,,,,,,,,,,,,,,,,,,,,,,,,,,,,,,
,,,,,V3_013,19,Female,2024-10-15_19h36.35.664,jersey_experiment_5_v3,2023.2.2,Win32,84.74576271,,,,,,,,,,,,,,,,151.4348,152.7362,152.7362,154.4458,return,0.6589,,99.47916667,0,19,19,34,1,FBP-OG-17.png,0.45,1.2,35,0.5,,,,,,,,,,,,,,,,,,,,,,,,,,,,,,,,,,,,,,,,,,,,,
,,,,,V3_013,19,Female,2024-10-15_19h36.35.664,jersey_experiment_5_v3,2023.2.2,Win32,84.74576271,,,,,,,,,,,,,,,,154.446,155.7456,155.7456,157.1572,return,0.4404,,28.77604167,0,20,20,35,1,FBP-OG-18.png,0.35,1.2,36,0.5,,,,,,,,,,,,,,,,,,,,,,,,,,,,,,,,,,,,,,,,,,,,,
,,,,,V3_013,19,Female,2024-10-15_19h36.35.664,jersey_experiment_5_v3,2023.2.2,Win32,84.74576271,,,,,,,,,,,,,,,,157.1574,158.713,158.713,160.9251,return,0.5028,,27.86458333,0,21,21,11,1,FBP-YG-91.png,0.37,1.2,12,0.75,,,,,,,,,,,,,,,,,,,,,,,,,,,,,,,,,,,,,,,,,,,,,
,,,,,V3_013,19,Female,2024-10-15_19h36.35.664,jersey_experiment_5_v3,2023.2.2,Win32,84.74576271,,,,,,,,,,,,,,,,160.9254,162.475,162.475,164.0228,return,0.3212,,37.36979167,0,22,22,17,1,FBP-PT-17.png,0.4,1.2,18,0.75,,,,,,,,,,,,,,,,,,,,,,,,,,,,,,,,,,,,,,,,,,,,,
,,,,,V3_013,19,Female,2024-10-15_19h36.35.664,jersey_experiment_5_v3,2023.2.2,Win32,84.74576271,,,,,,,,,,,,,,,,164.023,165.5755,165.5756,168.3524,return,1.6474,,75.390625,0,23,23,24,1,FBP-PT-18.png,0.45,1.2,25,0.75,,,,,,,,,,,,,,,,,,,,,,,,,,,,,,,,,,,,,,,,,,,,,
,,,,,V3_013,19,Female,2024-10-15_19h36.35.664,jersey_experiment_5_v3,2023.2.2,Win32,84.74576271,,,,,,,,,,,,,,,,168.3526,169.9047,169.9047,171.3812,return,0.5699,,89.84375,0,24,24,48,1,FBP-RB-17.png,0.43,1.2,49,0.75,,,,,,,,,,,,,,,,,,,,,,,,,,,,,,,,,,,,,,,,,,,,,
,,,,,V3_013,19,Female,2024-10-15_19h36.35.664,jersey_experiment_5_v3,2023.2.2,Win32,84.74576271,,,,,,,,,,,,,,,,171.3814,172.9342,172.9343,174.6817,return,0.6503,,35.80729167,0,25,25,56,1,FBP-RB-19.png,0.37,1.2,57,0.75,,,,,,,,,,,,,,,,,,,,,,,,,,,,,,,,,,,,,,,,,,,,,
,,,,,V3_013,19,Female,2024-10-15_19h36.35.664,jersey_experiment_5_v3,2023.2.2,Win32,84.74576271,,,,,,,,,,,,,,,,174.6819,176.2283,176.2284,178.0049,return,0.2763,,43.09895833,0,26,26,26,1,FBP-PT-19.png,0.37,1.2,27,0.75,,,,,,,,,,,,,,,,,,,,,,,,,,,,,,,,,,,,,,,,,,,,,
,,,,,V3_013,19,Female,2024-10-15_19h36.35.664,jersey_experiment_5_v3,2023.2.2,Win32,84.74576271,,,,,,,,,,,,,,,,178.0052,179.2992,179.2993,181.1464,return,0.3782,,88.15104167,0,27,27,44,1,FBP-OG-19.png,0.45,1.2,45,0.5,,,,,,,,,,,,,,,,,,,,,,,,,,,,,,,,,,,,,,,,,,,,,
,,,,,V3_013,19,Female,2024-10-15_19h36.35.664,jersey_experiment_5_v3,2023.2.2,Win32,84.74576271,,,,,,,,,,,,,,,,181.1466,182.6994,182.6994,184.7533,return,1.1212,,42.44791667,0,28,28,0,1,FBP-YG-71.png,0.35,1.2,1,0.75,,,,,,,,,,,,,,,,,,,,,,,,,,,,,,,,,,,,,,,,,,,,,
,,,,,V3_013,19,Female,2024-10-15_19h36.35.664,jersey_experiment_5_v3,2023.2.2,Win32,84.74576271,,,,,,,,,,,,,,,,184.7534,186.2993,186.2993,188.1028,return,0.4942,,96.09375,0,29,29,18,1,FBP-PT-17.png,0.43,1.2,19,0.75,,,,,,,,,,,,,,,,,,,,,,,,,,,,,,,,,,,,,,,,,,,,,
,,,,,V3_013,19,Female,2024-10-15_19h36.35.664,jersey_experiment_5_v3,2023.2.2,Win32,84.74576271,,,,,,,,,,,,,,,,188.103,189.6524,189.6524,194.5703,return,3.1297,,34.89583333,0,30,30,10,1,FBP-YG-91.png,0.35,1.2,11,0.75,,,,,,,,,,,,,,,,,,,,,,,,,,,,,,,,,,,,,,,,,,,,,
,,,,,V3_013,19,Female,2024-10-15_19h36.35.664,jersey_experiment_5_v3,2023.2.2,Win32,84.74576271,,,,,,,,,,,,,,,,194.5706,196.1266,196.1266,198.409,return,1.0123,,95.18229167,0,31,31,8,1,FBP-YG-81.png,0.43,1.2,9,0.75,,,,,,,,,,,,,,,,,,,,,,,,,,,,,,,,,,,,,,,,,,,,,
,,,,,V3_013,19,Female,2024-10-15_19h36.35.664,jersey_experiment_5_v3,2023.2.2,Win32,84.74576271,,,,,,,,,,,,,,,,198.4092,199.9509,199.9509,202.806,return,1.4281,,33.07291667,0,32,32,51,1,FBP-RB-18.png,0.37,1.2,52,0.75,,,,,,,,,,,,,,,,,,,,,,,,,,,,,,,,,,,,,,,,,,,,,
,,,,,V3_013,19,Female,2024-10-15_19h36.35.664,jersey_experiment_5_v3,2023.2.2,Win32,84.74576271,,,,,,,,,,,,,,,,202.8063,204.3618,204.3618,205.5067,return,0.3684,,67.44791667,0,33,33,22,1,FBP-PT-18.png,0.4,1.2,23,0.75,,,,,,,,,,,,,,,,,,,,,,,,,,,,,,,,,,,,,,,,,,,,,
,,,,,V3_013,19,Female,2024-10-15_19h36.35.664,jersey_experiment_5_v3,2023.2.2,Win32,84.74576271,,,,,,,,,,,,,,,,205.5068,207.0594,207.0594,208.1498,return,0.2584,,80.33854167,0,34,34,52,1,FBP-RB-18.png,0.4,1.2,53,0.75,,,,,,,,,,,,,,,,,,,,,,,,,,,,,,,,,,,,,,,,,,,,,
,,,,,V3_013,19,Female,2024-10-15_19h36.35.664,jersey_experiment_5_v3,2023.2.2,Win32,84.74576271,,,,,,,,,,,,,,,,208.15,209.4414,209.4414,210.754,return,0.2121,,40.625,0,35,35,40,1,FBP-OG-19.png,0.35,1.2,41,0.5,,,,,,,,,,,,,,,,,,,,,,,,,,,,,,,,,,,,,,,,,,,,,
,,,,,V3_013,19,Female,2024-10-15_19h36.35.664,jersey_experiment_5_v3,2023.2.2,Win32,84.74576271,,,,,,,,,,,,,,,,210.7542,212.3003,212.3003,214.7005,return,1.3029,,48.17708333,0,36,36,16,1,FBP-PT-17.png,0.37,1.2,17,0.75,,,,,,,,,,,,,,,,,,,,,,,,,,,,,,,,,,,,,,,,,,,,,
,,,,,V3_013,19,Female,2024-10-15_19h36.35.664,jersey_experiment_5_v3,2023.2.2,Win32,84.74576271,,,,,,,,,,,,,,,,214.7007,216.2451,216.2451,217.0366,return,0.2506,,64.58333333,0,37,37,47,1,FBP-RB-17.png,0.4,1.2,48,0.75,,,,,,,,,,,,,,,,,,,,,,,,,,,,,,,,,,,,,,,,,,,,,
,,,,,V3_013,19,Female,2024-10-15_19h36.35.664,jersey_experiment_5_v3,2023.2.2,Win32,84.74576271,,,,,,,,,,,,,,,,217.0368,218.5829,218.583,219.6065,return,0.2755,,63.93229167,0,38,38,57,1,FBP-RB-19.png,0.4,1.2,58,0.75,,,,,,,,,,,,,,,,,,,,,,,,,,,,,,,,,,,,,,,,,,,,,
,,,,,V3_013,19,Female,2024-10-15_19h36.35.664,jersey_experiment_5_v3,2023.2.2,Win32,84.74576271,,,,,,,,,,,,,,,,219.6068,221.1549,221.155,222.1188,return,0.3292,,85.02604167,0,39,39,58,1,FBP-RB-19.png,0.43,1.2,59,0.75,,,,,,,,,,,,,,,,,,,,,,,,,,,,,,,,,,,,,,,,,,,,,
,,,,,V3_013,19,Female,2024-10-15_19h36.35.664,jersey_experiment_5_v3,2023.2.2,Win32,84.74576271,,,,,,,,,,,,,,,,222.119,223.6655,223.6655,226.1982,return,1.2234,,39.453125,0,40,40,20,1,FBP-PT-18.png,0.35,1.2,21,0.75,,,,,,,,,,,,,,,,,,,,,,,,,,,,,,,,,,,,,,,,,,,,,
,,,,,V3_013,19,Female,2024-10-15_19h36.35.664,jersey_experiment_5_v3,2023.2.2,Win32,84.74576271,,,,,,,,,,,,,,,,226.1984,227.501,227.501,229.5544,return,0.4938,,99.609375,0,41,41,33,1,FBP-OG-17.png,0.43,1.2,34,0.5,,,,,,,,,,,,,,,,,,,,,,,,,,,,,,,,,,,,,,,,,,,,,
,,,,,V3_013,19,Female,2024-10-15_19h36.35.664,jersey_experiment_5_v3,2023.2.2,Win32,84.74576271,,,,,,,,,,,,,,,,229.5547,231.1013,231.1013,232.6219,return,0.8707,,44.53125,0,42,42,21,1,FBP-PT-18.png,0.37,1.2,22,0.75,,,,,,,,,,,,,,,,,,,,,,,,,,,,,,,,,,,,,,,,,,,,,
,,,,,V3_013,19,Female,2024-10-15_19h36.35.664,jersey_experiment_5_v3,2023.2.2,Win32,84.74576271,,,,,,,,,,,,,,,,232.6221,234.1718,234.1718,235.6542,return,0.684,,53.125,0,43,43,27,1,FBP-PT-19.png,0.4,1.2,28,0.75,,,,,,,,,,,,,,,,,,,,,,,,,,,,,,,,,,,,,,,,,,,,,
,,,,,V3_013,19,Female,2024-10-15_19h36.35.664,jersey_experiment_5_v3,2023.2.2,Win32,84.74576271,,,,,,,,,,,,,,,,235.6544,237.2072,237.2073,239.8221,return,0.3524,,69.66145833,0,44,44,7,1,FBP-YG-81.png,0.4,1.2,8,0.75,,,,,,,,,,,,,,,,,,,,,,,,,,,,,,,,,,,,,,,,,,,,,
,,,,,V3_013,19,Female,2024-10-15_19h36.35.664,jersey_experiment_5_v3,2023.2.2,Win32,84.74576271,,,,,,,,,,,,,,,,239.8222,241.3719,241.3719,242.8546,return,0.2987,,77.60416667,0,45,45,2,1,FBP-YG-71.png,0.4,1.2,3,0.75,,,,,,,,,,,,,,,,,,,,,,,,,,,,,,,,,,,,,,,,,,,,,
,,,,,V3_013,19,Female,2024-10-15_19h36.35.664,jersey_experiment_5_v3,2023.2.2,Win32,84.74576271,,,,,,,,,,,,,,,,242.8547,244.4106,244.4106,245.9635,return,0.5647,,94.53125,0,46,46,28,1,FBP-PT-19.png,0.43,1.2,29,0.75,,,,,,,,,,,,,,,,,,,,,,,,,,,,,,,,,,,,,,,,,,,,,
,,,,,V3_013,19,Female,2024-10-15_19h36.35.664,jersey_experiment_5_v3,2023.2.2,Win32,84.74576271,,,,,,,,,,,,,,,,245.9637,247.5082,247.5082,248.5434,return,0.2977,,49.08854167,0,47,47,12,1,FBP-YG-91.png,0.4,1.2,13,0.75,,,,,,,,,,,,,,,,,,,,,,,,,,,,,,,,,,,,,,,,,,,,,
,,,,,V3_013,19,Female,2024-10-15_19h36.35.664,jersey_experiment_5_v3,2023.2.2,Win32,84.74576271,,,,,,,,,,,,,,,,248.5436,250.09,250.0901,251.6027,return,0.5885,,30.20833333,0,48,48,45,1,FBP-RB-17.png,0.35,1.2,46,0.75,,,,,,,,,,,,,,,,,,,,,,,,,,,,,,,,,,,,,,,,,,,,,
,,,,,V3_013,19,Female,2024-10-15_19h36.35.664,jersey_experiment_5_v3,2023.2.2,Win32,84.74576271,,,,,,,,,,,,,,,,251.6028,253.1555,253.1555,254.589,return,0.4219,,98.30729167,0,49,49,9,1,FBP-YG-81.png,0.45,1.2,10,0.75,,,,,,,,,,,,,,,,,,,,,,,,,,,,,,,,,,,,,,,,,,,,,
,,,,,V3_013,19,Female,2024-10-15_19h36.35.664,jersey_experiment_5_v3,2023.2.2,Win32,84.74576271,,,,,,,,,,,,,,,,254.5891,255.8902,255.8903,257.305,return,0.5178,,40.234375,0,50,50,41,1,FBP-OG-19.png,0.37,1.2,42,0.5,,,,,,,,,,,,,,,,,,,,,,,,,,,,,,,,,,,,,,,,,,,,,
,,,,,V3_013,19,Female,2024-10-15_19h36.35.664,jersey_experiment_5_v3,2023.2.2,Win32,84.74576271,,,,,,,,,,,,,,,,257.3052,258.6079,258.608,260.7879,return,0.5735,,99.86979167,0,51,51,39,1,FBP-OG-18.png,0.45,1.2,40,0.5,,,,,,,,,,,,,,,,,,,,,,,,,,,,,,,,,,,,,,,,,,,,,
,,,,,V3_013,19,Female,2024-10-15_19h36.35.664,jersey_experiment_5_v3,2023.2.2,Win32,84.74576271,,,,,,,,,,,,,,,,260.788,262.3321,262.3321,263.7526,return,0.6823,,79.81770833,0,52,52,54,1,FBP-RB-18.png,0.45,1.2,55,0.75,,,,,,,,,,,,,,,,,,,,,,,,,,,,,,,,,,,,,,,,,,,,,
,,,,,V3_013,19,Female,2024-10-15_19h36.35.664,jersey_experiment_5_v3,2023.2.2,Win32,84.74576271,,,,,,,,,,,,,,,,263.7528,265.2972,265.2972,266.5763,return,0.2354,,34.50520833,0,53,53,55,1,FBP-RB-19.png,0.35,1.2,56,0.75,,,,,,,,,,,,,,,,,,,,,,,,,,,,,,,,,,,,,,,,,,,,,
,,,,,V3_013,19,Female,2024-10-15_19h36.35.664,jersey_experiment_5_v3,2023.2.2,Win32,84.74576271,,,,,,,,,,,,,,,,266.5766,268.1261,268.1261,269.4943,return,0.2356,,38.02083333,0,54,54,15,1,FBP-PT-17.png,0.35,1.2,16,0.75,,,,,,,,,,,,,,,,,,,,,,,,,,,,,,,,,,,,,,,,,,,,,
,,,,,V3_013,19,Female,2024-10-15_19h36.35.664,jersey_experiment_5_v3,2023.2.2,Win32,84.74576271,,,,,,,,,,,,,,,,269.4944,271.0385,271.0385,272.4203,return,0.5004,,84.11458333,0,55,55,19,1,FBP-PT-17.png,0.45,1.2,20,0.75,,,,,,,,,,,,,,,,,,,,,,,,,,,,,,,,,,,,,,,,,,,,,
,,,,,V3_013,19,Female,2024-10-15_19h36.35.664,jersey_experiment_5_v3,2023.2.2,Win32,84.74576271,,,,,,,,,,,,,,,,272.4205,273.9732,273.9733,275.706,return,0.259,,24.73958333,0,56,56,25,1,FBP-PT-19.png,0.35,1.2,26,0.75,,,,,,,,,,,,,,,,,,,,,,,,,,,,,,,,,,,,,,,,,,,,,
,,,,,V3_013,19,Female,2024-10-15_19h36.35.664,jersey_experiment_5_v3,2023.2.2,Win32,84.74576271,,,,,,,,,,,,,,,,275.7062,277.2503,277.2503,278.7885,return,0.3292,,25.91145833,0,57,57,6,1,FBP-YG-81.png,0.37,1.2,7,0.75,,,,,,,,,,,,,,,,,,,,,,,,,,,,,,,,,,,,,,,,,,,,,
,,,,,V3_013,19,Female,2024-10-15_19h36.35.664,jersey_experiment_5_v3,2023.2.2,Win32,84.74576271,,,,,,,,,,,,,,,,278.7887,280.0911,280.0912,282.3148,return,0.4154,,25.390625,0,58,58,31,1,FBP-OG-17.png,0.37,1.2,32,0.5,,,,,,,,,,,,,,,,,,,,,,,,,,,,,,,,,,,,,,,,,,,,,
,,,,,V3_013,19,Female,2024-10-15_19h36.35.664,jersey_experiment_5_v3,2023.2.2,Win32,84.74576271,,,,,,,,,,,,,,,,282.3151,283.8626,283.8627,285.1892,return,0.3302,,80.72916667,0,59,59,23,1,FBP-PT-18.png,0.43,1.2,24,0.75,,,,,,,,,,,,,,,,,,,,,,,,,,,,,,,,,,,,,,,,,,,,,
,,,,,V3_013,19,Female,2024-10-15_19h36.35.664,jersey_experiment_5_v3,2023.2.2,Win32,84.74576271,,,,,,,,,,,,,,,,285.1908,286.7331,286.7331,287.9332,return,0.5325,,41.015625,,,,,,FBP-PT-91.png,0.37,1.2,27,0.75,0,0,0,26,1,,,,,,,,,,,,,,,,,,,,,,,,,,,,,,,,,,,,,,,,
,,,,,V3_013,19,Female,2024-10-15_19h36.35.664,jersey_experiment_5_v3,2023.2.2,Win32,84.74576271,,,,,,,,,,,,,,,,287.9334,289.4799,289.4799,290.8748,return,0.2974,,71.09375,,,,,,FBP-PT-71.png,0.45,1.2,20,0.75,0,1,1,19,1,,,,,,,,,,,,,,,,,,,,,,,,,,,,,,,,,,,,,,,,
,,,,,V3_013,19,Female,2024-10-15_19h36.35.664,jersey_experiment_5_v3,2023.2.2,Win32,84.74576271,,,,,,,,,,,,,,,,290.875,292.4211,292.4212,294.1505,return,0.989,,52.86458333,,,,,,FBP-YG-19.png,0.35,1.2,11,0.75,0,2,2,10,1,,,,,,,,,,,,,,,,,,,,,,,,,,,,,,,,,,,,,,,,
,,,,,V3_013,19,Female,2024-10-15_19h36.35.664,jersey_experiment_5_v3,2023.2.2,Win32,84.74576271,,,,,,,,,,,,,,,,294.1507,295.7068,295.7068,296.9925,return,0.5097,,88.671875,,,,,,FBP-YG-18.png,0.45,1.2,10,0.75,0,3,3,9,1,,,,,,,,,,,,,,,,,,,,,,,,,,,,,,,,,,,,,,,,
,,,,,V3_013,19,Female,2024-10-15_19h36.35.664,jersey_experiment_5_v3,2023.2.2,Win32,84.74576271,,,,,,,,,,,,,,,,296.9926,298.5455,298.5455,299.9806,return,0.6034,,95.96354167,,,,,,FBP-YG-18.png,0.43,1.2,9,0.75,0,4,4,8,1,,,,,,,,,,,,,,,,,,,,,,,,,,,,,,,,,,,,,,,,
,,,,,V3_013,19,Female,2024-10-15_19h36.35.664,jersey_experiment_5_v3,2023.2.2,Win32,84.74576271,,,,,,,,,,,,,,,,299.9807,301.5273,301.5273,303.4631,return,0.5648,,97.39583333,,,,,,FBP-PT-71.png,0.43,1.2,19,0.75,0,5,5,18,1,,,,,,,,,,,,,,,,,,,,,,,,,,,,,,,,,,,,,,,,
,,,,,V3_013,19,Female,2024-10-15_19h36.35.664,jersey_experiment_5_v3,2023.2.2,Win32,84.74576271,,,,,,,,,,,,,,,,303.4633,305.0098,305.0098,306.6804,return,0.5518,,86.71875,,,,,,FBP-YG-17.png,0.43,1.2,4,0.75,0,6,6,3,1,,,,,,,,,,,,,,,,,,,,,,,,,,,,,,,,,,,,,,,,
,,,,,V3_013,19,Female,2024-10-15_19h36.35.664,jersey_experiment_5_v3,2023.2.2,Win32,84.74576271,,,,,,,,,,,,,,,,306.6807,308.2334,308.2334,309.7982,return,0.1896,,84.63541667,,,,,,FBP-RB-81.png,0.43,1.2,54,0.75,0,7,7,53,1,,,,,,,,,,,,,,,,,,,,,,,,,,,,,,,,,,,,,,,,
,,,,,V3_013,19,Female,2024-10-15_19h36.35.664,jersey_experiment_5_v3,2023.2.2,Win32,84.74576271,,,,,,,,,,,,,,,,309.7985,311.346,311.346,312.6635,return,0.3683,,40.88541667,,,,,,FBP-YG-19.png,0.37,1.2,12,0.75,0,8,8,11,1,,,,,,,,,,,,,,,,,,,,,,,,,,,,,,,,,,,,,,,,
,,,,,V3_013,19,Female,2024-10-15_19h36.35.664,jersey_experiment_5_v3,2023.2.2,Win32,84.74576271,,,,,,,,,,,,,,,,312.6636,313.9631,313.9631,316.8048,return,0.297,,57.55208333,,,,,,FBP-OG-91.png,0.4,1.2,43,0.5,0,9,9,42,1,,,,,,,,,,,,,,,,,,,,,,,,,,,,,,,,,,,,,,,,
,,,,,V3_013,19,Female,2024-10-15_19h36.35.664,jersey_experiment_5_v3,2023.2.2,Win32,84.74576271,,,,,,,,,,,,,,,,316.8049,318.3513,318.3513,319.3934,return,0.2743,,55.078125,,,,,,FBP-YG-17.png,0.4,1.2,3,0.75,0,10,10,2,1,,,,,,,,,,,,,,,,,,,,,,,,,,,,,,,,,,,,,,,,
,,,,,V3_013,19,Female,2024-10-15_19h36.35.664,jersey_experiment_5_v3,2023.2.2,Win32,84.74576271,,,,,,,,,,,,,,,,319.3936,320.9398,320.9398,322.2458,return,0.3226,,29.03645833,,,,,,FBP-PT-81.png,0.37,1.2,22,0.75,0,11,11,21,1,,,,,,,,,,,,,,,,,,,,,,,,,,,,,,,,,,,,,,,,
,,,,,V3_013,19,Female,2024-10-15_19h36.35.664,jersey_experiment_5_v3,2023.2.2,Win32,84.74576271,,,,,,,,,,,,,,,,322.246,323.7986,323.7986,325.5871,return,0.2159,,58.46354167,,,,,,FBP-RB-81.png,0.4,1.2,53,0.75,0,12,12,52,1,,,,,,,,,,,,,,,,,,,,,,,,,,,,,,,,,,,,,,,,
,,,,,V3_013,19,Female,2024-10-15_19h36.35.664,jersey_experiment_5_v3,2023.2.2,Win32,84.74576271,,,,,,,,,,,,,,,,325.5874,326.8812,326.8812,328.3282,return,0.3315,,88.15104167,,,,,,FBP-OG-71.png,0.45,1.2,35,0.5,0,13,13,34,1,,,,,,,,,,,,,,,,,,,,,,,,,,,,,,,,,,,,,,,,
,,,,,V3_013,19,Female,2024-10-15_19h36.35.664,jersey_experiment_5_v3,2023.2.2,Win32,84.74576271,,,,,,,,,,,,,,,,328.3285,329.8812,329.8813,331.4106,return,0.2665,,86.84895833,,,,,,FBP-RB-91.png,0.43,1.2,59,0.75,0,14,14,58,1,,,,,,,,,,,,,,,,,,,,,,,,,,,,,,,,,,,,,,,,
,,,,,V3_013,19,Female,2024-10-15_19h36.35.664,jersey_experiment_5_v3,2023.2.2,Win32,84.74576271,,,,,,,,,,,,,,,,331.4109,332.9637,332.9637,334.6932,return,0.3081,,31.38020833,,,,,,FBP-YG-18.png,0.35,1.2,6,0.75,0,15,15,5,1,,,,,,,,,,,,,,,,,,,,,,,,,,,,,,,,,,,,,,,,
,,,,,V3_013,19,Female,2024-10-15_19h36.35.664,jersey_experiment_5_v3,2023.2.2,Win32,84.74576271,,,,,,,,,,,,,,,,334.6933,335.9875,335.9875,337.4493,return,0.3379,,23.95833333,,,,,,FBP-OG-91.png,0.35,1.2,41,0.5,0,16,16,40,1,,,,,,,,,,,,,,,,,,,,,,,,,,,,,,,,,,,,,,,,
,,,,,V3_013,19,Female,2024-10-15_19h36.35.664,jersey_experiment_5_v3,2023.2.2,Win32,84.74576271,,,,,,,,,,,,,,,,337.4495,338.7587,338.7587,340.4699,return,0.3342,,78.90625,,,,,,FBP-OG-81.png,0.43,1.2,39,0.5,0,17,17,38,1,,,,,,,,,,,,,,,,,,,,,,,,,,,,,,,,,,,,,,,,
,,,,,V3_013,19,Female,2024-10-15_19h36.35.664,jersey_experiment_5_v3,2023.2.2,Win32,84.74576271,,,,,,,,,,,,,,,,340.4701,342.0231,342.0232,343.2582,return,0.4156,,93.88020833,,,,,,FBP-RB-91.png,0.45,1.2,60,0.75,0,18,18,59,1,,,,,,,,,,,,,,,,,,,,,,,,,,,,,,,,,,,,,,,,
,,,,,V3_013,19,Female,2024-10-15_19h36.35.664,jersey_experiment_5_v3,2023.2.2,Win32,84.74576271,,,,,,,,,,,,,,,,343.2586,344.8059,344.8059,347.1761,return,1.509,,99.86979167,,,,,,FBP-PT-91.png,0.45,1.2,30,0.75,0,19,19,29,1,,,,,,,,,,,,,,,,,,,,,,,,,,,,,,,,,,,,,,,,
,,,,,V3_013,19,Female,2024-10-15_19h36.35.664,jersey_experiment_5_v3,2023.2.2,Win32,84.74576271,,,,,,,,,,,,,,,,347.1763,348.729,348.7291,350.035,return,0.3723,,42.05729167,,,,,,FBP-RB-91.png,0.37,1.2,57,0.75,0,20,20,56,1,,,,,,,,,,,,,,,,,,,,,,,,,,,,,,,,,,,,,,,,
,,,,,V3_013,19,Female,2024-10-15_19h36.35.664,jersey_experiment_5_v3,2023.2.2,Win32,84.74576271,,,,,,,,,,,,,,,,350.0353,351.5881,351.5881,353.1914,return,0.2593,,55.33854167,,,,,,FBP-PT-71.png,0.4,1.2,18,0.75,0,21,21,17,1,,,,,,,,,,,,,,,,,,,,,,,,,,,,,,,,,,,,,,,,
,,,,,V3_013,19,Female,2024-10-15_19h36.35.664,jersey_experiment_5_v3,2023.2.2,Win32,84.74576271,,,,,,,,,,,,,,,,353.1916,354.4939,354.4939,355.983,return,0.3212,,83.85416667,,,,,,FBP-OG-91.png,0.45,1.2,45,0.5,0,22,22,44,1,,,,,,,,,,,,,,,,,,,,,,,,,,,,,,,,,,,,,,,,
,,,,,V3_013,19,Female,2024-10-15_19h36.35.664,jersey_experiment_5_v3,2023.2.2,Win32,84.74576271,,,,,,,,,,,,,,,,355.9831,357.5338,357.5338,358.5326,return,0.4088,,96.22395833,,,,,,FBP-PT-81.png,0.45,1.2,25,0.75,0,23,23,24,1,,,,,,,,,,,,,,,,,,,,,,,,,,,,,,,,,,,,,,,,
,,,,,V3_013,19,Female,2024-10-15_19h36.35.664,jersey_experiment_5_v3,2023.2.2,Win32,84.74576271,,,,,,,,,,,,,,,,358.5329,359.8353,359.8354,361.6622,return,0.2592,,71.875,,,,,,FBP-OG-91.png,0.43,1.2,44,0.5,0,24,24,43,1,,,,,,,,,,,,,,,,,,,,,,,,,,,,,,,,,,,,,,,,
,,,,,V3_013,19,Female,2024-10-15_19h36.35.664,jersey_experiment_5_v3,2023.2.2,Win32,84.74576271,,,,,,,,,,,,,,,,361.6624,363.2067,363.2068,364.6269,return,0.3527,,94.140625,,,,,,FBP-YG-17.png,0.45,1.2,5,0.75,0,25,25,4,1,,,,,,,,,,,,,,,,,,,,,,,,,,,,,,,,,,,,,,,,
,,,,,V3_013,19,Female,2024-10-15_19h36.35.664,jersey_experiment_5_v3,2023.2.2,Win32,84.74576271,,,,,,,,,,,,,,,,364.627,366.1767,366.1768,367.0592,return,0.2662,,88.93229167,,,,,,FBP-YG-19.png,0.43,1.2,14,0.75,0,26,26,13,1,,,,,,,,,,,,,,,,,,,,,,,,,,,,,,,,,,,,,,,,
,,,,,V3_013,19,Female,2024-10-15_19h36.35.664,jersey_experiment_5_v3,2023.2.2,Win32,84.74576271,,,,,,,,,,,,,,,,367.0595,368.6037,368.6038,369.6711,return,0.3415,,41.92708333,,,,,,FBP-RB-71.png,0.37,1.2,47,0.75,0,27,27,46,1,,,,,,,,,,,,,,,,,,,,,,,,,,,,,,,,,,,,,,,,
,,,,,V3_013,19,Female,2024-10-15_19h36.35.664,jersey_experiment_5_v3,2023.2.2,Win32,84.74576271,,,,,,,,,,,,,,,,369.6712,371.224,371.224,372.7831,return,0.5327,,36.97916667,,,,,,FBP-RB-71.png,0.35,1.2,46,0.75,0,28,28,45,1,,,,,,,,,,,,,,,,,,,,,,,,,,,,,,,,,,,,,,,,
,,,,,V3_013,19,Female,2024-10-15_19h36.35.664,jersey_experiment_5_v3,2023.2.2,Win32,84.74576271,,,,,,,,,,,,,,,,372.7834,374.33,374.33,376.2744,return,0.2355,,56.25,,,,,,FBP-RB-91.png,0.4,1.2,58,0.75,0,29,29,57,1,,,,,,,,,,,,,,,,,,,,,,,,,,,,,,,,,,,,,,,,
,,,,,V3_013,19,Female,2024-10-15_19h36.35.664,jersey_experiment_5_v3,2023.2.2,Win32,84.74576271,,,,,,,,,,,,,,,,376.2746,377.8274,377.8274,378.6748,return,0.2355,,43.09895833,,,,,,FBP-PT-81.png,0.35,1.2,21,0.75,0,30,30,20,1,,,,,,,,,,,,,,,,,,,,,,,,,,,,,,,,,,,,,,,,
,,,,,V3_013,19,Female,2024-10-15_19h36.35.664,jersey_experiment_5_v3,2023.2.2,Win32,84.74576271,,,,,,,,,,,,,,,,378.6749,379.9771,379.9771,381.2362,return,0.2302,,45.05208333,,,,,,FBP-OG-91.png,0.37,1.2,42,0.5,0,31,31,41,1,,,,,,,,,,,,,,,,,,,,,,,,,,,,,,,,,,,,,,,,
,,,,,V3_013,19,Female,2024-10-15_19h36.35.664,jersey_experiment_5_v3,2023.2.2,Win32,84.74576271,,,,,,,,,,,,,,,,381.2364,382.5304,382.5304,385.4951,return,2.1193,,84.375,,,,,,FBP-OG-71.png,0.43,1.2,34,0.5,0,32,32,33,1,,,,,,,,,,,,,,,,,,,,,,,,,,,,,,,,,,,,,,,,
,,,,,V3_013,19,Female,2024-10-15_19h36.35.664,jersey_experiment_5_v3,2023.2.2,Win32,84.74576271,,,,,,,,,,,,,,,,385.4954,387.0513,387.0513,388.2283,return,0.4005,,88.671875,,,,,,FBP-YG-19.png,0.4,1.2,13,0.75,0,33,33,12,1,,,,,,,,,,,,,,,,,,,,,,,,,,,,,,,,,,,,,,,,
,,,,,V3_013,19,Female,2024-10-15_19h36.35.664,jersey_experiment_5_v3,2023.2.2,Win32,84.74576271,,,,,,,,,,,,,,,,388.2284,389.7722,389.7722,391.9608,return,0.2272,,44.66145833,,,,,,FBP-YG-17.png,0.35,1.2,1,0.75,0,34,34,0,1,,,,,,,,,,,,,,,,,,,,,,,,,,,,,,,,,,,,,,,,
,,,,,V3_013,19,Female,2024-10-15_19h36.35.664,jersey_experiment_5_v3,2023.2.2,Win32,84.74576271,,,,,,,,,,,,,,,,391.961,393.2602,393.2602,395.8435,return,1.5211,,37.76041667,,,,,,FBP-OG-81.png,0.37,1.2,37,0.5,0,35,35,36,1,,,,,,,,,,,,,,,,,,,,,,,,,,,,,,,,,,,,,,,,
,,,,,V3_013,19,Female,2024-10-15_19h36.35.664,jersey_experiment_5_v3,2023.2.2,Win32,84.74576271,,,,,,,,,,,,,,,,395.8437,397.3964,397.3964,399.1139,return,0.4152,,57.29166667,,,,,,FBP-PT-91.png,0.43,1.2,29,0.75,0,36,36,28,1,,,,,,,,,,,,,,,,,,,,,,,,,,,,,,,,,,,,,,,,
,,,,,V3_013,19,Female,2024-10-15_19h36.35.664,jersey_experiment_5_v3,2023.2.2,Win32,84.74576271,,,,,,,,,,,,,,,,399.114,400.6603,400.6603,402.484,return,0.2302,,52.734375,,,,,,FBP-PT-91.png,0.35,1.2,26,0.75,0,37,37,25,1,,,,,,,,,,,,,,,,,,,,,,,,,,,,,,,,,,,,,,,,
,,,,,V3_013,19,Female,2024-10-15_19h36.35.664,jersey_experiment_5_v3,2023.2.2,Win32,84.74576271,,,,,,,,,,,,,,,,402.4842,403.7782,403.7783,404.723,return,0.2594,,37.63020833,,,,,,FBP-OG-81.png,0.35,1.2,36,0.5,0,38,38,35,1,,,,,,,,,,,,,,,,,,,,,,,,,,,,,,,,,,,,,,,,
,,,,,V3_013,19,Female,2024-10-15_19h36.35.664,jersey_experiment_5_v3,2023.2.2,Win32,84.74576271,,,,,,,,,,,,,,,,404.7231,406.2725,406.2725,408.0254,return,0.4718,,52.86458333,,,,,,FBP-YG-18.png,0.4,1.2,8,0.75,0,39,39,7,1,,,,,,,,,,,,,,,,,,,,,,,,,,,,,,,,,,,,,,,,
,,,,,V3_013,19,Female,2024-10-15_19h36.35.664,jersey_experiment_5_v3,2023.2.2,Win32,84.74576271,,,,,,,,,,,,,,,,408.0257,409.5701,409.5701,410.5731,return,0.227,,85.9375,,,,,,FBP-RB-81.png,0.45,1.2,55,0.75,0,40,40,54,1,,,,,,,,,,,,,,,,,,,,,,,,,,,,,,,,,,,,,,,,
,,,,,V3_013,19,Female,2024-10-15_19h36.35.664,jersey_experiment_5_v3,2023.2.2,Win32,84.74576271,,,,,,,,,,,,,,,,410.5733,412.1259,412.1259,414.362,return,1.0273,,63.93229167,,,,,,FBP-RB-71.png,0.4,1.2,48,0.75,0,41,41,47,1,,,,,,,,,,,,,,,,,,,,,,,,,,,,,,,,,,,,,,,,
,,,,,V3_013,19,Female,2024-10-15_19h36.35.664,jersey_experiment_5_v3,2023.2.2,Win32,84.74576271,,,,,,,,,,,,,,,,414.3621,415.908,415.908,417.2407,return,0.2437,,43.61979167,,,,,,FBP-YG-18.png,0.37,1.2,7,0.75,0,42,42,6,1,,,,,,,,,,,,,,,,,,,,,,,,,,,,,,,,,,,,,,,,
,,,,,V3_013,19,Female,2024-10-15_19h36.35.664,jersey_experiment_5_v3,2023.2.2,Win32,84.74576271,,,,,,,,,,,,,,,,417.2408,418.7936,418.7936,420.7853,return,0.9798,,40.10416667,,,,,,FBP-PT-71.png,0.37,1.2,17,0.75,0,43,43,16,1,,,,,,,,,,,,,,,,,,,,,,,,,,,,,,,,,,,,,,,,
,,,,,V3_013,19,Female,2024-10-15_19h36.35.664,jersey_experiment_5_v3,2023.2.2,Win32,84.74576271,,,,,,,,,,,,,,,,420.7856,422.3381,422.3381,423.4999,return,0.2911,,42.83854167,,,,,,FBP-YG-17.png,0.37,1.2,2,0.75,0,44,44,1,1,,,,,,,,,,,,,,,,,,,,,,,,,,,,,,,,,,,,,,,,
,,,,,V3_013,19,Female,2024-10-15_19h36.35.664,jersey_experiment_5_v3,2023.2.2,Win32,84.74576271,,,,,,,,,,,,,,,,423.5,425.0442,425.0442,426.653,return,0.2828,,86.06770833,,,,,,FBP-RB-71.png,0.45,1.2,50,0.75,0,45,45,49,1,,,,,,,,,,,,,,,,,,,,,,,,,,,,,,,,,,,,,,,,
,,,,,V3_013,19,Female,2024-10-15_19h36.35.664,jersey_experiment_5_v3,2023.2.2,Win32,84.74576271,,,,,,,,,,,,,,,,426.6531,428.1975,428.1976,429.468,return,0.2035,,96.484375,,,,,,FBP-RB-71.png,0.43,1.2,49,0.75,0,46,46,48,1,,,,,,,,,,,,,,,,,,,,,,,,,,,,,,,,,,,,,,,,
,,,,,V3_013,19,Female,2024-10-15_19h36.35.664,jersey_experiment_5_v3,2023.2.2,Win32,84.74576271,,,,,,,,,,,,,,,,429.4682,431.0145,431.0146,431.9556,return,0.2186,,99.34895833,,,,,,FBP-YG-19.png,0.45,1.2,15,0.75,0,47,47,14,1,,,,,,,,,,,,,,,,,,,,,,,,,,,,,,,,,,,,,,,,
,,,,,V3_013,19,Female,2024-10-15_19h36.35.664,jersey_experiment_5_v3,2023.2.2,Win32,84.74576271,,,,,,,,,,,,,,,,431.9559,433.2498,433.2499,434.6295,return,0.6116,,99.47916667,,,,,,FBP-OG-81.png,0.45,1.2,40,0.5,0,48,48,39,1,,,,,,,,,,,,,,,,,,,,,,,,,,,,,,,,,,,,,,,,
,,,,,V3_013,19,Female,2024-10-15_19h36.35.664,jersey_experiment_5_v3,2023.2.2,Win32,84.74576271,,,,,,,,,,,,,,,,434.6297,436.1794,436.1794,437.4447,return,0.2271,,79.03645833,,,,,,FBP-PT-81.png,0.43,1.2,24,0.75,0,49,49,23,1,,,,,,,,,,,,,,,,,,,,,,,,,,,,,,,,,,,,,,,,
,,,,,V3_013,19,Female,2024-10-15_19h36.35.664,jersey_experiment_5_v3,2023.2.2,Win32,84.74576271,,,,,,,,,,,,,,,,437.4448,438.7442,438.7442,440.1978,return,0.2271,,83.07291667,,,,,,FBP-OG-81.png,0.4,1.2,38,0.5,0,50,50,37,1,,,,,,,,,,,,,,,,,,,,,,,,,,,,,,,,,,,,,,,,
,,,,,V3_013,19,Female,2024-10-15_19h36.35.664,jersey_experiment_5_v3,2023.2.2,Win32,84.74576271,,,,,,,,,,,,,,,,440.1979,441.4972,441.4972,442.998,return,0.2744,,25.65104167,,,,,,FBP-OG-71.png,0.35,1.2,31,0.5,0,51,51,30,1,,,,,,,,,,,,,,,,,,,,,,,,,,,,,,,,,,,,,,,,
,,,,,V3_013,19,Female,2024-10-15_19h36.35.664,jersey_experiment_5_v3,2023.2.2,Win32,84.74576271,,,,,,,,,,,,,,,,442.9982,444.5508,444.5508,445.8923,return,0.2739,,24.21875,,,,,,FBP-PT-71.png,0.35,1.2,16,0.75,0,52,52,15,1,,,,,,,,,,,,,,,,,,,,,,,,,,,,,,,,,,,,,,,,
,,,,,V3_013,19,Female,2024-10-15_19h36.35.664,jersey_experiment_5_v3,2023.2.2,Win32,84.74576271,,,,,,,,,,,,,,,,445.8925,447.4387,447.4387,448.5749,return,0.1799,,25.390625,,,,,,FBP-RB-81.png,0.37,1.2,52,0.75,0,53,53,51,1,,,,,,,,,,,,,,,,,,,,,,,,,,,,,,,,,,,,,,,,
,,,,,V3_013,19,Female,2024-10-15_19h36.35.664,jersey_experiment_5_v3,2023.2.2,Win32,84.74576271,,,,,,,,,,,,,,,,448.575,450.1212,450.1212,451.0624,return,0.1928,,38.02083333,,,,,,FBP-PT-81.png,0.4,1.2,23,0.75,0,54,54,22,1,,,,,,,,,,,,,,,,,,,,,,,,,,,,,,,,,,,,,,,,
,,,,,V3_013,19,Female,2024-10-15_19h36.35.664,jersey_experiment_5_v3,2023.2.2,Win32,84.74576271,,,,,,,,,,,,,,,,451.0625,452.6216,452.6216,453.6806,return,0.3208,,43.09895833,,,,,,FBP-PT-91.png,0.4,1.2,28,0.75,0,55,55,27,1,,,,,,,,,,,,,,,,,,,,,,,,,,,,,,,,,,,,,,,,
,,,,,V3_013,19,Female,2024-10-15_19h36.35.664,jersey_experiment_5_v3,2023.2.2,Win32,84.74576271,,,,,,,,,,,,,,,,453.6808,454.9801,454.9802,455.8453,return,0.2585,,43.09895833,,,,,,FBP-OG-71.png,0.37,1.2,32,0.5,0,56,56,31,1,,,,,,,,,,,,,,,,,,,,,,,,,,,,,,,,,,,,,,,,
,,,,,V3_013,19,Female,2024-10-15_19h36.35.664,jersey_experiment_5_v3,2023.2.2,Win32,84.74576271,,,,,,,,,,,,,,,,455.8454,457.1392,457.1392,458.3096,return,0.2404,,58.07291667,,,,,,FBP-OG-71.png,0.4,1.2,33,0.5,0,57,57,32,1,,,,,,,,,,,,,,,,,,,,,,,,,,,,,,,,,,,,,,,,
,,,,,V3_013,19,Female,2024-10-15_19h36.35.664,jersey_experiment_5_v3,2023.2.2,Win32,84.74576271,,,,,,,,,,,,,,,,458.3099,459.8626,459.8627,460.9365,return,0.3767,,43.61979167,,,,,,FBP-RB-81.png,0.35,1.2,51,0.75,0,58,58,50,1,,,,,,,,,,,,,,,,,,,,,,,,,,,,,,,,,,,,,,,,
,,,,,V3_013,19,Female,2024-10-15_19h36.35.664,jersey_experiment_5_v3,2023.2.2,Win32,84.74576271,,,,,,,,,,,,,,,,460.9366,462.4806,462.4806,463.9869,return,0.8623,,59.11458333,,,,,,FBP-RB-91.png,0.35,1.2,56,0.75,0,59,59,55,1,,,,,,,,,,,,,,,,,,,,,,,,,,,,,,,,,,,,,,,,
,,,,,V3_013,19,Female,2024-10-15_19h36.35.664,jersey_experiment_5_v3,2023.2.2,Win32,84.74576271,,,,,,,,,,,,,,,,,,,,,,,,,,,,,,,,,,,,,,,463.9871,583.9851,,,,,,,,,,,,,,,,,,,,,,,,,,,,,,,,,,,,,,
,,,,,V3_013,19,Female,2024-10-15_19h36.35.664,jersey_experiment_5_v3,2023.2.2,Win32,84.74576271,,,,,,,,,,,,,,,,,,,,,,,,,,,,,,,,,,,,,,,,,583.9852,609.1626,return,25.1538,,,,,,,,,,,,,,,,,,,,,,,,,,,,,,,,,,
,,,,,V3_013,19,Female,2024-10-15_19h36.35.664,jersey_experiment_5_v3,2023.2.2,Win32,84.74576271,,,,,,,,,,,,,,,,609.1642,610.7153,610.7154,612.8214,return,0.7784,,58.07291667,,,,,,FBP-OG-19.png,0.4,1.2,43,0.75,,,,,,,,,,,,,0,0,0,42,1,,,,,,,,,,,,,,,,,,,,,,,,,,,,
,,,,,V3_013,19,Female,2024-10-15_19h36.35.664,jersey_experiment_5_v3,2023.2.2,Win32,84.74576271,,,,,,,,,,,,,,,,612.8217,614.1154,614.1155,615.2567,return,0.1899,,93.22916667,,,,,,FBP-RB-18.png,0.45,1.2,55,0.5,,,,,,,,,,,,,0,1,1,54,1,,,,,,,,,,,,,,,,,,,,,,,,,,,,
,,,,,V3_013,19,Female,2024-10-15_19h36.35.664,jersey_experiment_5_v3,2023.2.2,Win32,84.74576271,,,,,,,,,,,,,,,,615.2569,616.5509,616.5509,617.7039,return,0.2937,,80.72916667,,,,,,FBP-RB-18.png,0.4,1.2,53,0.5,,,,,,,,,,,,,0,2,2,52,1,,,,,,,,,,,,,,,,,,,,,,,,,,,,
,,,,,V3_013,19,Female,2024-10-15_19h36.35.664,jersey_experiment_5_v3,2023.2.2,Win32,84.74576271,,,,,,,,,,,,,,,,617.7042,619.2483,619.2484,620.0247,return,0.1881,,96.35416667,,,,,,FBP-OG-19.png,0.43,1.2,44,0.75,,,,,,,,,,,,,0,3,3,43,1,,,,,,,,,,,,,,,,,,,,,,,,,,,,
,,,,,V3_013,19,Female,2024-10-15_19h36.35.664,jersey_experiment_5_v3,2023.2.2,Win32,84.74576271,,,,,,,,,,,,,,,,620.0249,621.5746,621.5746,622.4402,return,0.3062,,97.78645833,,,,,,FBP-OG-17.png,0.45,1.2,35,0.75,,,,,,,,,,,,,0,4,4,34,1,,,,,,,,,,,,,,,,,,,,,,,,,,,,
,,,,,V3_013,19,Female,2024-10-15_19h36.35.664,jersey_experiment_5_v3,2023.2.2,Win32,84.74576271,,,,,,,,,,,,,,,,622.4403,623.9865,623.9865,624.7748,return,0.2281,,60.546875,,,,,,FBP-OG-19.png,0.37,1.2,42,0.75,,,,,,,,,,,,,0,5,5,41,1,,,,,,,,,,,,,,,,,,,,,,,,,,,,
,,,,,V3_013,19,Female,2024-10-15_19h36.35.664,jersey_experiment_5_v3,2023.2.2,Win32,84.74576271,,,,,,,,,,,,,,,,624.775,626.0688,626.0688,627.5695,return,0.6737,,38.671875,,,,,,FBP-RB-18.png,0.37,1.2,52,0.5,,,,,,,,,,,,,0,6,6,51,1,,,,,,,,,,,,,,,,,,,,,,,,,,,,
,,,,,V3_013,19,Female,2024-10-15_19h36.35.664,jersey_experiment_5_v3,2023.2.2,Win32,84.74576271,,,,,,,,,,,,,,,,627.5696,628.8721,628.8721,629.8132,return,0.2355,,44.40104167,,,,,,FBP-PT-17.png,0.4,1.2,18,0.5,,,,,,,,,,,,,0,7,7,17,1,,,,,,,,,,,,,,,,,,,,,,,,,,,,
,,,,,V3_013,19,Female,2024-10-15_19h36.35.664,jersey_experiment_5_v3,2023.2.2,Win32,84.74576271,,,,,,,,,,,,,,,,629.8133,631.1161,631.1161,632.5162,return,0.2769,,40.625,,,,,,FBP-YG-91.png,0.37,1.2,12,0.5,,,,,,,,,,,,,0,8,8,11,1,,,,,,,,,,,,,,,,,,,,,,,,,,,,
,,,,,V3_013,19,Female,2024-10-15_19h36.35.664,jersey_experiment_5_v3,2023.2.2,Win32,84.74576271,,,,,,,,,,,,,,,,632.5165,634.0691,634.0691,635.1782,return,0.2355,,39.0625,,,,,,FBP-OG-18.png,0.37,1.2,37,0.75,,,,,,,,,,,,,0,9,9,36,1,,,,,,,,,,,,,,,,,,,,,,,,,,,,
,,,,,V3_013,19,Female,2024-10-15_19h36.35.664,jersey_experiment_5_v3,2023.2.2,Win32,84.74576271,,,,,,,,,,,,,,,,635.1784,636.481,636.4811,637.4341,return,0.2745,,27.08333333,,,,,,FBP-PT-17.png,0.35,1.2,16,0.5,,,,,,,,,,,,,0,10,10,15,1,,,,,,,,,,,,,,,,,,,,,,,,,,,,
,,,,,V3_013,19,Female,2024-10-15_19h36.35.664,jersey_experiment_5_v3,2023.2.2,Win32,84.74576271,,,,,,,,,,,,,,,,637.4343,638.7309,638.7309,639.8929,return,0.4999,,19.53125,,,,,,FBP-PT-19.png,0.35,1.2,26,0.5,,,,,,,,,,,,,0,11,11,25,1,,,,,,,,,,,,,,,,,,,,,,,,,,,,
,,,,,V3_013,19,Female,2024-10-15_19h36.35.664,jersey_experiment_5_v3,2023.2.2,Win32,84.74576271,,,,,,,,,,,,,,,,639.8931,641.1871,641.1872,642.0172,return,0.2267,,37.23958333,,,,,,FBP-RB-19.png,0.37,1.2,57,0.5,,,,,,,,,,,,,0,12,12,56,1,,,,,,,,,,,,,,,,,,,,,,,,,,,,
,,,,,V3_013,19,Female,2024-10-15_19h36.35.664,jersey_experiment_5_v3,2023.2.2,Win32,84.74576271,,,,,,,,,,,,,,,,642.0173,643.3193,643.3193,645.4763,return,1.4271,,51.69270833,,,,,,FBP-PT-19.png,0.37,1.2,27,0.5,,,,,,,,,,,,,0,13,13,26,1,,,,,,,,,,,,,,,,,,,,,,,,,,,,
,,,,,V3_013,19,Female,2024-10-15_19h36.35.664,jersey_experiment_5_v3,2023.2.2,Win32,84.74576271,,,,,,,,,,,,,,,,645.4765,647.0293,647.0293,647.7905,return,0.2823,,85.15625,,,,,,FBP-OG-18.png,0.45,1.2,40,0.75,,,,,,,,,,,,,0,14,14,39,1,,,,,,,,,,,,,,,,,,,,,,,,,,,,
,,,,,V3_013,19,Female,2024-10-15_19h36.35.664,jersey_experiment_5_v3,2023.2.2,Win32,84.74576271,,,,,,,,,,,,,,,,647.7907,649.0932,649.0932,650.3084,return,0.2208,,69.79166667,,,,,,FBP-PT-18.png,0.37,1.2,22,0.5,,,,,,,,,,,,,0,15,15,21,1,,,,,,,,,,,,,,,,,,,,,,,,,,,,
,,,,,V3_013,19,Female,2024-10-15_19h36.35.664,jersey_experiment_5_v3,2023.2.2,Win32,84.74576271,,,,,,,,,,,,,,,,650.3086,651.8613,651.8615,652.9993,return,0.1679,,43.22916667,,,,,,FBP-OG-18.png,0.35,1.2,36,0.75,,,,,,,,,,,,,0,16,16,35,1,,,,,,,,,,,,,,,,,,,,,,,,,,,,
,,,,,V3_013,19,Female,2024-10-15_19h36.35.664,jersey_experiment_5_v3,2023.2.2,Win32,84.74576271,,,,,,,,,,,,,,,,652.9995,654.2935,654.2935,656.465,return,1.2002,,90.49479167,,,,,,FBP-PT-18.png,0.43,1.2,24,0.5,,,,,,,,,,,,,0,17,17,23,1,,,,,,,,,,,,,,,,,,,,,,,,,,,,
,,,,,V3_013,19,Female,2024-10-15_19h36.35.664,jersey_experiment_5_v3,2023.2.2,Win32,84.74576271,,,,,,,,,,,,,,,,656.4652,657.7642,657.7643,658.7472,return,0.1665,,44.66145833,,,,,,FBP-RB-19.png,0.35,1.2,56,0.5,,,,,,,,,,,,,0,18,18,55,1,,,,,,,,,,,,,,,,,,,,,,,,,,,,
,,,,,V3_013,19,Female,2024-10-15_19h36.35.664,jersey_experiment_5_v3,2023.2.2,Win32,84.74576271,,,,,,,,,,,,,,,,658.7474,660.0466,660.0466,661.218,return,0.227,,94.40104167,,,,,,FBP-RB-19.png,0.45,1.2,60,0.5,,,,,,,,,,,,,0,19,19,59,1,,,,,,,,,,,,,,,,,,,,,,,,,,,,
,,,,,V3_013,19,Female,2024-10-15_19h36.35.664,jersey_experiment_5_v3,2023.2.2,Win32,84.74576271,,,,,,,,,,,,,,,,661.2182,662.5174,662.5174,663.8767,return,0.7209,,79.55729167,,,,,,FBP-YG-81.png,0.43,1.2,9,0.5,,,,,,,,,,,,,0,20,20,8,1,,,,,,,,,,,,,,,,,,,,,,,,,,,,
,,,,,V3_013,19,Female,2024-10-15_19h36.35.664,jersey_experiment_5_v3,2023.2.2,Win32,84.74576271,,,,,,,,,,,,,,,,663.8769,665.1763,665.1763,666.3411,return,0.4609,,52.99479167,,,,,,FBP-YG-81.png,0.35,1.2,6,0.5,,,,,,,,,,,,,0,21,21,5,1,,,,,,,,,,,,,,,,,,,,,,,,,,,,
,,,,,V3_013,19,Female,2024-10-15_19h36.35.664,jersey_experiment_5_v3,2023.2.2,Win32,84.74576271,,,,,,,,,,,,,,,,666.3413,667.6351,667.6352,668.9412,return,0.4243,,92.83854167,,,,,,FBP-YG-91.png,0.45,1.2,15,0.5,,,,,,,,,,,,,0,22,22,14,1,,,,,,,,,,,,,,,,,,,,,,,,,,,,
,,,,,V3_013,19,Female,2024-10-15_19h36.35.664,jersey_experiment_5_v3,2023.2.2,Win32,84.74576271,,,,,,,,,,,,,,,,668.9414,670.2355,670.2355,671.1884,return,0.2265,,81.11979167,,,,,,FBP-YG-71.png,0.37,1.2,2,0.5,,,,,,,,,,,,,0,23,23,1,1,,,,,,,,,,,,,,,,,,,,,,,,,,,,
,,,,,V3_013,19,Female,2024-10-15_19h36.35.664,jersey_experiment_5_v3,2023.2.2,Win32,84.74576271,,,,,,,,,,,,,,,,671.1886,672.4823,672.4824,674.7712,return,1.2003,,94.921875,,,,,,FBP-RB-18.png,0.43,1.2,54,0.5,,,,,,,,,,,,,0,24,24,53,1,,,,,,,,,,,,,,,,,,,,,,,,,,,,
,,,,,V3_013,19,Female,2024-10-15_19h36.35.664,jersey_experiment_5_v3,2023.2.2,Win32,84.74576271,,,,,,,,,,,,,,,,674.7715,676.0709,676.071,677.3918,return,0.2441,,66.53645833,,,,,,FBP-PT-17.png,0.37,1.2,17,0.5,,,,,,,,,,,,,0,25,25,16,1,,,,,,,,,,,,,,,,,,,,,,,,,,,,
,,,,,V3_013,19,Female,2024-10-15_19h36.35.664,jersey_experiment_5_v3,2023.2.2,Win32,84.74576271,,,,,,,,,,,,,,,,677.392,678.6944,678.6944,680.8036,return,0.5499,,42.05729167,,,,,,FBP-RB-17.png,0.35,1.2,46,0.5,,,,,,,,,,,,,0,26,26,45,1,,,,,,,,,,,,,,,,,,,,,,,,,,,,
,,,,,V3_013,19,Female,2024-10-15_19h36.35.664,jersey_experiment_5_v3,2023.2.2,Win32,84.74576271,,,,,,,,,,,,,,,,680.8038,682.1063,682.1063,683.0593,return,0.2075,,84.375,,,,,,FBP-PT-17.png,0.43,1.2,19,0.5,,,,,,,,,,,,,0,27,27,18,1,,,,,,,,,,,,,,,,,,,,,,,,,,,,
,,,,,V3_013,19,Female,2024-10-15_19h36.35.664,jersey_experiment_5_v3,2023.2.2,Win32,84.74576271,,,,,,,,,,,,,,,,683.0595,684.3535,684.3535,685.2273,return,0.236,,98.69791667,,,,,,FBP-YG-71.png,0.45,1.2,5,0.5,,,,,,,,,,,,,0,28,28,4,1,,,,,,,,,,,,,,,,,,,,,,,,,,,,
,,,,,V3_013,19,Female,2024-10-15_19h36.35.664,jersey_experiment_5_v3,2023.2.2,Win32,84.74576271,,,,,,,,,,,,,,,,685.2275,686.5212,686.5212,687.8861,return,0.5261,,94.66145833,,,,,,FBP-PT-19.png,0.45,1.2,30,0.5,,,,,,,,,,,,,0,29,29,29,1,,,,,,,,,,,,,,,,,,,,,,,,,,,,
,,,,,V3_013,19,Female,2024-10-15_19h36.35.664,jersey_experiment_5_v3,2023.2.2,Win32,84.74576271,,,,,,,,,,,,,,,,687.8863,689.1888,689.1889,690.2008,return,0.2136,,95.703125,,,,,,FBP-RB-17.png,0.43,1.2,49,0.5,,,,,,,,,,,,,0,30,30,48,1,,,,,,,,,,,,,,,,,,,,,,,,,,,,
,,,,,V3_013,19,Female,2024-10-15_19h36.35.664,jersey_experiment_5_v3,2023.2.2,Win32,84.74576271,,,,,,,,,,,,,,,,690.2009,691.501,691.5011,692.2361,return,0.5095,,94.921875,,,,,,FBP-YG-71.png,0.4,1.2,3,0.5,,,,,,,,,,,,,0,31,31,2,1,,,,,,,,,,,,,,,,,,,,,,,,,,,,
,,,,,V3_013,19,Female,2024-10-15_19h36.35.664,jersey_experiment_5_v3,2023.2.2,Win32,84.74576271,,,,,,,,,,,,,,,,692.2363,693.5303,693.5303,694.9538,return,0.4338,,66.53645833,,,,,,FBP-RB-17.png,0.4,1.2,48,0.5,,,,,,,,,,,,,0,32,32,47,1,,,,,,,,,,,,,,,,,,,,,,,,,,,,
,,,,,V3_013,19,Female,2024-10-15_19h36.35.664,jersey_experiment_5_v3,2023.2.2,Win32,84.74576271,,,,,,,,,,,,,,,,694.9541,696.254,696.2541,697.4128,return,0.1825,,64.453125,,,,,,FBP-YG-91.png,0.4,1.2,13,0.5,,,,,,,,,,,,,0,33,33,12,1,,,,,,,,,,,,,,,,,,,,,,,,,,,,
,,,,,V3_013,19,Female,2024-10-15_19h36.35.664,jersey_experiment_5_v3,2023.2.2,Win32,84.74576271,,,,,,,,,,,,,,,,697.4129,698.9605,698.9605,699.6513,return,0.188,,83.72395833,,,,,,FBP-OG-19.png,0.45,1.2,45,0.75,,,,,,,,,,,,,0,34,34,44,1,,,,,,,,,,,,,,,,,,,,,,,,,,,,
,,,,,V3_013,19,Female,2024-10-15_19h36.35.664,jersey_experiment_5_v3,2023.2.2,Win32,84.74576271,,,,,,,,,,,,,,,,699.6515,700.954,700.9541,702.2318,return,0.6745,,87.63020833,,,,,,FBP-RB-19.png,0.43,1.2,59,0.5,,,,,,,,,,,,,0,35,35,58,1,,,,,,,,,,,,,,,,,,,,,,,,,,,,
,,,,,V3_013,19,Female,2024-10-15_19h36.35.664,jersey_experiment_5_v3,2023.2.2,Win32,84.74576271,,,,,,,,,,,,,,,,702.2319,703.5306,703.5307,704.7809,return,0.2355,,41.27604167,,,,,,FBP-RB-17.png,0.37,1.2,47,0.5,,,,,,,,,,,,,0,36,36,46,1,,,,,,,,,,,,,,,,,,,,,,,,,,,,
,,,,,V3_013,19,Female,2024-10-15_19h36.35.664,jersey_experiment_5_v3,2023.2.2,Win32,84.74576271,,,,,,,,,,,,,,,,704.7811,706.3255,706.3255,707.3844,return,0.415,,28.38541667,,,,,,FBP-OG-19.png,0.35,1.2,41,0.75,,,,,,,,,,,,,0,37,37,40,1,,,,,,,,,,,,,,,,,,,,,,,,,,,,
,,,,,V3_013,19,Female,2024-10-15_19h36.35.664,jersey_experiment_5_v3,2023.2.2,Win32,84.74576271,,,,,,,,,,,,,,,,707.3846,708.6838,708.6838,710.7075,return,0.9601,,77.47395833,,,,,,FBP-YG-91.png,0.43,1.2,14,0.5,,,,,,,,,,,,,0,38,38,13,1,,,,,,,,,,,,,,,,,,,,,,,,,,,,
,,,,,V3_013,19,Female,2024-10-15_19h36.35.664,jersey_experiment_5_v3,2023.2.2,Win32,84.74576271,,,,,,,,,,,,,,,,710.7077,712.0016,712.0017,716.7076,return,0.1834,,57.29166667,,,,,,FBP-PT-18.png,0.35,1.2,21,0.5,,,,,,,,,,,,,0,39,39,20,1,,,,,,,,,,,,,,,,,,,,,,,,,,,,
,,,,,V3_013,19,Female,2024-10-15_19h36.35.664,jersey_experiment_5_v3,2023.2.2,Win32,84.74576271,,,,,,,,,,,,,,,,716.7078,718.005,718.005,719.1255,return,0.2966,,90.49479167,,,,,,FBP-PT-18.png,0.45,1.2,25,0.5,,,,,,,,,,,,,0,40,40,24,1,,,,,,,,,,,,,,,,,,,,,,,,,,,,
,,,,,V3_013,19,Female,2024-10-15_19h36.35.664,jersey_experiment_5_v3,2023.2.2,Win32,84.74576271,,,,,,,,,,,,,,,,719.1257,720.6726,720.6726,721.6909,return,0.259,,58.59375,,,,,,FBP-OG-17.png,0.35,1.2,31,0.75,,,,,,,,,,,,,0,41,41,30,1,,,,,,,,,,,,,,,,,,,,,,,,,,,,
,,,,,V3_013,19,Female,2024-10-15_19h36.35.664,jersey_experiment_5_v3,2023.2.2,Win32,84.74576271,,,,,,,,,,,,,,,,721.6909,722.9933,722.9934,724.1315,return,0.2895,,94.79166667,,,,,,FBP-RB-17.png,0.45,1.2,50,0.5,,,,,,,,,,,,,0,42,42,49,1,,,,,,,,,,,,,,,,,,,,,,,,,,,,
,,,,,V3_013,19,Female,2024-10-15_19h36.35.664,jersey_experiment_5_v3,2023.2.2,Win32,84.74576271,,,,,,,,,,,,,,,,724.1317,725.4256,725.4256,726.2375,return,0.3681,,93.359375,,,,,,FBP-YG-71.png,0.43,1.2,4,0.5,,,,,,,,,,,,,0,43,43,3,1,,,,,,,,,,,,,,,,,,,,,,,,,,,,
,,,,,V3_013,19,Female,2024-10-15_19h36.35.664,jersey_experiment_5_v3,2023.2.2,Win32,84.74576271,,,,,,,,,,,,,,,,726.2377,727.5317,727.5317,729.1905,return,0.7659,,56.90104167,,,,,,FBP-RB-19.png,0.4,1.2,58,0.5,,,,,,,,,,,,,0,44,44,57,1,,,,,,,,,,,,,,,,,,,,,,,,,,,,
,,,,,V3_013,19,Female,2024-10-15_19h36.35.664,jersey_experiment_5_v3,2023.2.2,Win32,84.74576271,,,,,,,,,,,,,,,,729.1907,730.4846,730.4847,731.7382,return,0.6355,,45.05208333,,,,,,FBP-YG-71.png,0.35,1.2,1,0.5,,,,,,,,,,,,,0,45,45,0,1,,,,,,,,,,,,,,,,,,,,,,,,,,,,
,,,,,V3_013,19,Female,2024-10-15_19h36.35.664,jersey_experiment_5_v3,2023.2.2,Win32,84.74576271,,,,,,,,,,,,,,,,731.7383,733.2912,733.2913,734.6326,return,0.5799,,37.36979167,,,,,,FBP-OG-17.png,0.37,1.2,32,0.75,,,,,,,,,,,,,0,46,46,31,1,,,,,,,,,,,,,,,,,,,,,,,,,,,,
,,,,,V3_013,19,Female,2024-10-15_19h36.35.664,jersey_experiment_5_v3,2023.2.2,Win32,84.74576271,,,,,,,,,,,,,,,,734.6328,735.9319,735.932,737.1503,return,0.2356,,58.72395833,,,,,,FBP-PT-19.png,0.4,1.2,28,0.5,,,,,,,,,,,,,0,47,47,27,1,,,,,,,,,,,,,,,,,,,,,,,,,,,,
,,,,,V3_013,19,Female,2024-10-15_19h36.35.664,jersey_experiment_5_v3,2023.2.2,Win32,84.74576271,,,,,,,,,,,,,,,,737.1505,738.4497,738.4497,739.2764,return,0.1886,,39.58333333,,,,,,FBP-YG-81.png,0.37,1.2,7,0.5,,,,,,,,,,,,,0,48,48,6,1,,,,,,,,,,,,,,,,,,,,,,,,,,,,
,,,,,V3_013,19,Female,2024-10-15_19h36.35.664,jersey_experiment_5_v3,2023.2.2,Win32,84.74576271,,,,,,,,,,,,,,,,739.2765,740.5707,740.5707,742.0057,return,0.8319,,74.73958333,,,,,,FBP-YG-81.png,0.45,1.2,10,0.5,,,,,,,,,,,,,0,49,49,9,1,,,,,,,,,,,,,,,,,,,,,,,,,,,,
,,,,,V3_013,19,Female,2024-10-15_19h36.35.664,jersey_experiment_5_v3,2023.2.2,Win32,84.74576271,,,,,,,,,,,,,,,,742.0059,743.3086,743.3086,744.2145,return,0.1811,,80.20833333,,,,,,FBP-PT-19.png,0.43,1.2,29,0.5,,,,,,,,,,,,,0,50,50,28,1,,,,,,,,,,,,,,,,,,,,,,,,,,,,
,,,,,V3_013,19,Female,2024-10-15_19h36.35.664,jersey_experiment_5_v3,2023.2.2,Win32,84.74576271,,,,,,,,,,,,,,,,744.2147,745.7711,745.7711,746.5153,return,0.1564,,91.796875,,,,,,FBP-OG-18.png,0.43,1.2,39,0.75,,,,,,,,,,,,,0,51,51,38,1,,,,,,,,,,,,,,,,,,,,,,,,,,,,
,,,,,V3_013,19,Female,2024-10-15_19h36.35.664,jersey_experiment_5_v3,2023.2.2,Win32,84.74576271,,,,,,,,,,,,,,,,746.5155,747.8147,747.8147,748.9389,return,0.1883,,42.96875,,,,,,FBP-RB-18.png,0.35,1.2,51,0.5,,,,,,,,,,,,,0,52,52,50,1,,,,,,,,,,,,,,,,,,,,,,,,,,,,
,,,,,V3_013,19,Female,2024-10-15_19h36.35.664,jersey_experiment_5_v3,2023.2.2,Win32,84.74576271,,,,,,,,,,,,,,,,748.9391,750.4855,750.4855,751.7157,return,0.2507,,66.015625,,,,,,FBP-OG-18.png,0.4,1.2,38,0.75,,,,,,,,,,,,,0,53,53,37,1,,,,,,,,,,,,,,,,,,,,,,,,,,,,
,,,,,V3_013,19,Female,2024-10-15_19h36.35.664,jersey_experiment_5_v3,2023.2.2,Win32,84.74576271,,,,,,,,,,,,,,,,751.7158,753.2619,753.262,754.0501,return,0.1464,,61.19791667,,,,,,FBP-OG-17.png,0.4,1.2,33,0.75,,,,,,,,,,,,,0,54,54,32,1,,,,,,,,,,,,,,,,,,,,,,,,,,,,
,,,,,V3_013,19,Female,2024-10-15_19h36.35.664,jersey_experiment_5_v3,2023.2.2,Win32,84.74576271,,,,,,,,,,,,,,,,754.0503,755.3443,755.3444,756.2151,return,0.1194,,63.54166667,,,,,,FBP-YG-81.png,0.4,1.2,8,0.5,,,,,,,,,,,,,0,55,55,7,1,,,,,,,,,,,,,,,,,,,,,,,,,,,,
,,,,,V3_013,19,Female,2024-10-15_19h36.35.664,jersey_experiment_5_v3,2023.2.2,Win32,84.74576271,,,,,,,,,,,,,,,,756.2153,757.7623,757.7623,758.8503,return,0.2555,,68.09895833,,,,,,FBP-OG-17.png,0.43,1.2,34,0.75,,,,,,,,,,,,,0,56,56,33,1,,,,,,,,,,,,,,,,,,,,,,,,,,,,
,,,,,V3_013,19,Female,2024-10-15_19h36.35.664,jersey_experiment_5_v3,2023.2.2,Win32,84.74576271,,,,,,,,,,,,,,,,758.8505,760.1446,760.1446,761.227,return,0.3683,,72.265625,,,,,,FBP-PT-18.png,0.4,1.2,23,0.5,,,,,,,,,,,,,0,57,57,22,1,,,,,,,,,,,,,,,,,,,,,,,,,,,,
,,,,,V3_013,19,Female,2024-10-15_19h36.35.664,jersey_experiment_5_v3,2023.2.2,Win32,84.74576271,,,,,,,,,,,,,,,,761.2273,762.5242,762.5242,763.4035,return,0.1889,,83.203125,,,,,,FBP-PT-17.png,0.45,1.2,20,0.5,,,,,,,,,,,,,0,58,58,19,1,,,,,,,,,,,,,,,,,,,,,,,,,,,,
,,,,,V3_013,19,Female,2024-10-15_19h36.35.664,jersey_experiment_5_v3,2023.2.2,Win32,84.74576271,,,,,,,,,,,,,,,,763.4037,764.7041,764.7041,765.733,return,0.1939,,43.22916667,,,,,,FBP-YG-91.png,0.35,1.2,11,0.5,,,,,,,,,,,,,0,59,59,10,1,,,,,,,,,,,,,,,,,,,,,,,,,,,,
,,,,,V3_013,19,Female,2024-10-15_19h36.35.664,jersey_experiment_5_v3,2023.2.2,Win32,84.74576271,,,,,,,,,,,,,,,,765.7343,767.2923,767.2923,768.4861,return,0.6637,,36.328125,,,,,,FBP-OG-71.png,0.35,1.2,31,0.75,,,,,,,,,,,,,,,,,,0,0,0,30,1,,,,,,,,,,,,,,,,,,,,,,,
,,,,,V3_013,19,Female,2024-10-15_19h36.35.664,jersey_experiment_5_v3,2023.2.2,Win32,84.74576271,,,,,,,,,,,,,,,,768.4863,770.0389,770.0389,770.9802,return,0.359,,36.328125,,,,,,FBP-OG-81.png,0.35,1.2,36,0.75,,,,,,,,,,,,,,,,,,0,1,1,35,1,,,,,,,,,,,,,,,,,,,,,,,
,,,,,V3_013,19,Female,2024-10-15_19h36.35.664,jersey_experiment_5_v3,2023.2.2,Win32,84.74576271,,,,,,,,,,,,,,,,770.9804,772.2744,772.2744,773.6926,return,0.2036,,53.38541667,,,,,,FBP-PT-91.png,0.35,1.2,26,0.5,,,,,,,,,,,,,,,,,,0,2,2,25,1,,,,,,,,,,,,,,,,,,,,,,,
,,,,,V3_013,19,Female,2024-10-15_19h36.35.664,jersey_experiment_5_v3,2023.2.2,Win32,84.74576271,,,,,,,,,,,,,,,,773.6928,774.9921,774.9921,775.975,return,0.2033,,65.10416667,,,,,,FBP-YG-17.png,0.43,1.2,4,0.5,,,,,,,,,,,,,,,,,,0,3,3,3,1,,,,,,,,,,,,,,,,,,,,,,,
,,,,,V3_013,19,Female,2024-10-15_19h36.35.664,jersey_experiment_5_v3,2023.2.2,Win32,84.74576271,,,,,,,,,,,,,,,,775.9752,777.2692,777.2693,778.2576,return,0.3296,,75.52083333,,,,,,FBP-RB-81.png,0.45,1.2,55,0.5,,,,,,,,,,,,,,,,,,0,4,4,54,1,,,,,,,,,,,,,,,,,,,,,,,
,,,,,V3_013,19,Female,2024-10-15_19h36.35.664,jersey_experiment_5_v3,2023.2.2,Win32,84.74576271,,,,,,,,,,,,,,,,778.2578,779.56,779.56,780.6106,return,0.1649,,65.88541667,,,,,,FBP-YG-17.png,0.37,1.2,2,0.5,,,,,,,,,,,,,,,,,,0,5,5,1,1,,,,,,,,,,,,,,,,,,,,,,,
,,,,,V3_013,19,Female,2024-10-15_19h36.35.664,jersey_experiment_5_v3,2023.2.2,Win32,84.74576271,,,,,,,,,,,,,,,,780.6108,781.9047,781.9047,783.1366,return,0.3529,,82.55208333,,,,,,FBP-PT-81.png,0.43,1.2,24,0.5,,,,,,,,,,,,,,,,,,0,6,6,23,1,,,,,,,,,,,,,,,,,,,,,,,
,,,,,V3_013,19,Female,2024-10-15_19h36.35.664,jersey_experiment_5_v3,2023.2.2,Win32,84.74576271,,,,,,,,,,,,,,,,783.1367,784.446,784.446,785.5991,return,0.3061,,82.16145833,,,,,,FBP-PT-81.png,0.4,1.2,23,0.5,,,,,,,,,,,,,,,,,,0,7,7,22,1,,,,,,,,,,,,,,,,,,,,,,,
,,,,,V3_013,19,Female,2024-10-15_19h36.35.664,jersey_experiment_5_v3,2023.2.2,Win32,84.74576271,,,,,,,,,,,,,,,,785.5993,786.893,786.8931,788.5489,return,0.3059,,59.765625,,,,,,FBP-YG-18.png,0.37,1.2,7,0.5,,,,,,,,,,,,,,,,,,0,8,8,6,1,,,,,,,,,,,,,,,,,,,,,,,
,,,,,V3_013,19,Female,2024-10-15_19h36.35.664,jersey_experiment_5_v3,2023.2.2,Win32,84.74576271,,,,,,,,,,,,,,,,788.5491,789.8515,789.8515,790.7528,return,0.1335,,41.92708333,,,,,,FBP-YG-18.png,0.35,1.2,6,0.5,,,,,,,,,,,,,,,,,,0,9,9,5,1,,,,,,,,,,,,,,,,,,,,,,,
,,,,,V3_013,19,Female,2024-10-15_19h36.35.664,jersey_experiment_5_v3,2023.2.2,Win32,84.74576271,,,,,,,,,,,,,,,,790.7529,792.0462,792.0463,793.3811,return,0.147,,74.73958333,,,,,,FBP-RB-71.png,0.43,1.2,49,0.5,,,,,,,,,,,,,,,,,,0,10,10,48,1,,,,,,,,,,,,,,,,,,,,,,,
,,,,,V3_013,19,Female,2024-10-15_19h36.35.664,jersey_experiment_5_v3,2023.2.2,Win32,84.74576271,,,,,,,,,,,,,,,,793.3813,794.6752,794.6753,795.4672,return,0.1502,,63.54166667,,,,,,FBP-RB-71.png,0.37,1.2,47,0.5,,,,,,,,,,,,,,,,,,0,11,11,46,1,,,,,,,,,,,,,,,,,,,,,,,
,,,,,V3_013,19,Female,2024-10-15_19h36.35.664,jersey_experiment_5_v3,2023.2.2,Win32,84.74576271,,,,,,,,,,,,,,,,795.4673,796.7693,796.7693,797.5931,return,0.143,,78.64583333,,,,,,FBP-YG-19.png,0.4,1.2,13,0.5,,,,,,,,,,,,,,,,,,0,12,12,12,1,,,,,,,,,,,,,,,,,,,,,,,
,,,,,V3_013,19,Female,2024-10-15_19h36.35.664,jersey_experiment_5_v3,2023.2.2,Win32,84.74576271,,,,,,,,,,,,,,,,797.5932,798.8931,798.8931,799.6753,return,0.2355,,80.59895833,,,,,,FBP-YG-19.png,0.45,1.2,15,0.5,,,,,,,,,,,,,,,,,,0,13,13,14,1,,,,,,,,,,,,,,,,,,,,,,,
,,,,,V3_013,19,Female,2024-10-15_19h36.35.664,jersey_experiment_5_v3,2023.2.2,Win32,84.74576271,,,,,,,,,,,,,,,,799.6756,801.2284,801.2284,803.3259,return,1.1534,,65.625,,,,,,FBP-OG-71.png,0.4,1.2,33,0.75,,,,,,,,,,,,,,,,,,0,14,14,32,1,,,,,,,,,,,,,,,,,,,,,,,
,,,,,V3_013,19,Female,2024-10-15_19h36.35.664,jersey_experiment_5_v3,2023.2.2,Win32,84.74576271,,,,,,,,,,,,,,,,803.326,804.8706,804.8707,805.5227,return,0.1255,,39.84375,,,,,,FBP-OG-91.png,0.37,1.2,42,0.75,,,,,,,,,,,,,,,,,,0,15,15,41,1,,,,,,,,,,,,,,,,,,,,,,,
,,,,,V3_013,19,Female,2024-10-15_19h36.35.664,jersey_experiment_5_v3,2023.2.2,Win32,84.74576271,,,,,,,,,,,,,,,,805.5229,806.8169,806.8169,807.8908,return,0.1179,,52.99479167,,,,,,FBP-YG-19.png,0.35,1.2,11,0.5,,,,,,,,,,,,,,,,,,0,16,16,10,1,,,,,,,,,,,,,,,,,,,,,,,
,,,,,V3_013,19,Female,2024-10-15_19h36.35.664,jersey_experiment_5_v3,2023.2.2,Win32,84.74576271,,,,,,,,,,,,,,,,807.8908,809.1997,809.1998,810.7143,return,0.8709,,80.59895833,,,,,,FBP-PT-91.png,0.45,1.2,30,0.5,,,,,,,,,,,,,,,,,,0,17,17,29,1,,,,,,,,,,,,,,,,,,,,,,,
,,,,,V3_013,19,Female,2024-10-15_19h36.35.664,jersey_experiment_5_v3,2023.2.2,Win32,84.74576271,,,,,,,,,,,,,,,,810.7145,812.017,812.0171,813.1584,return,0.204,,90.36458333,,,,,,FBP-YG-17.png,0.45,1.2,5,0.5,,,,,,,,,,,,,,,,,,0,18,18,4,1,,,,,,,,,,,,,,,,,,,,,,,
,,,,,V3_013,19,Female,2024-10-15_19h36.35.664,jersey_experiment_5_v3,2023.2.2,Win32,84.74576271,,,,,,,,,,,,,,,,813.1586,814.7146,814.7147,815.3348,return,0.1688,,93.61979167,,,,,,FBP-OG-81.png,0.45,1.2,40,0.75,,,,,,,,,,,,,,,,,,0,19,19,39,1,,,,,,,,,,,,,,,,,,,,,,,
,,,,,V3_013,19,Female,2024-10-15_19h36.35.664,jersey_experiment_5_v3,2023.2.2,Win32,84.74576271,,,,,,,,,,,,,,,,815.335,816.8878,816.8878,817.6408,return,0.3397,,93.48958333,,,,,,FBP-OG-91.png,0.43,1.2,44,0.75,,,,,,,,,,,,,,,,,,0,20,20,43,1,,,,,,,,,,,,,,,,,,,,,,,
,,,,,V3_013,19,Female,2024-10-15_19h36.35.664,jersey_experiment_5_v3,2023.2.2,Win32,84.74576271,,,,,,,,,,,,,,,,817.641,819.2002,819.2002,820.2591,return,0.2117,,38.41145833,,,,,,FBP-OG-81.png,0.37,1.2,37,0.75,,,,,,,,,,,,,,,,,,0,21,21,36,1,,,,,,,,,,,,,,,,,,,,,,,
,,,,,V3_013,19,Female,2024-10-15_19h36.35.664,jersey_experiment_5_v3,2023.2.2,Win32,84.74576271,,,,,,,,,,,,,,,,820.2592,821.5617,821.5618,823.2326,return,0.6909,,59.24479167,,,,,,FBP-YG-18.png,0.43,1.2,9,0.5,,,,,,,,,,,,,,,,,,0,22,22,8,1,,,,,,,,,,,,,,,,,,,,,,,
,,,,,V3_013,19,Female,2024-10-15_19h36.35.664,jersey_experiment_5_v3,2023.2.2,Win32,84.74576271,,,,,,,,,,,,,,,,823.2327,824.7772,824.7772,825.8915,return,0.1027,,63.15104167,,,,,,FBP-OG-71.png,0.37,1.2,32,0.75,,,,,,,,,,,,,,,,,,0,23,23,31,1,,,,,,,,,,,,,,,,,,,,,,,
,,,,,V3_013,19,Female,2024-10-15_19h36.35.664,jersey_experiment_5_v3,2023.2.2,Win32,84.74576271,,,,,,,,,,,,,,,,825.8916,827.436,827.436,828.5738,return,0.2589,,79.55729167,,,,,,FBP-OG-71.png,0.45,1.2,35,0.75,,,,,,,,,,,,,,,,,,0,24,24,34,1,,,,,,,,,,,,,,,,,,,,,,,
,,,,,V3_013,19,Female,2024-10-15_19h36.35.664,jersey_experiment_5_v3,2023.2.2,Win32,84.74576271,,,,,,,,,,,,,,,,828.5739,829.8766,829.8766,832.0297,return,0.1568,,69.01041667,,,,,,FBP-PT-91.png,0.43,1.2,29,0.5,,,,,,,,,,,,,,,,,,0,25,25,28,1,,,,,,,,,,,,,,,,,,,,,,,
,,,,,V3_013,19,Female,2024-10-15_19h36.35.664,jersey_experiment_5_v3,2023.2.2,Win32,84.74576271,,,,,,,,,,,,,,,,832.0299,833.3237,833.3237,835.3943,return,0.1847,,53.515625,,,,,,FBP-RB-81.png,0.4,1.2,53,0.5,,,,,,,,,,,,,,,,,,0,26,26,52,1,,,,,,,,,,,,,,,,,,,,,,,
,,,,,V3_013,19,Female,2024-10-15_19h36.35.664,jersey_experiment_5_v3,2023.2.2,Win32,84.74576271,,,,,,,,,,,,,,,,835.3946,836.6886,836.6887,837.8298,return,0.3817,,37.23958333,,,,,,FBP-RB-81.png,0.37,1.2,52,0.5,,,,,,,,,,,,,,,,,,0,27,27,51,1,,,,,,,,,,,,,,,,,,,,,,,
,,,,,V3_013,19,Female,2024-10-15_19h36.35.664,jersey_experiment_5_v3,2023.2.2,Win32,84.74576271,,,,,,,,,,,,,,,,837.8301,839.1239,839.124,841.2014,return,0.9565,,57.29166667,,,,,,FBP-RB-81.png,0.43,1.2,54,0.5,,,,,,,,,,,,,,,,,,0,28,28,53,1,,,,,,,,,,,,,,,,,,,,,,,
,,,,,V3_013,19,Female,2024-10-15_19h36.35.664,jersey_experiment_5_v3,2023.2.2,Win32,84.74576271,,,,,,,,,,,,,,,,841.2016,842.7477,842.7478,843.6098,return,0.1881,,75.52083333,,,,,,FBP-OG-71.png,0.43,1.2,34,0.75,,,,,,,,,,,,,,,,,,0,29,29,33,1,,,,,,,,,,,,,,,,,,,,,,,
,,,,,V3_013,19,Female,2024-10-15_19h36.35.664,jersey_experiment_5_v3,2023.2.2,Win32,84.74576271,,,,,,,,,,,,,,,,843.6099,844.9124,844.9125,846.4565,return,0.329,,44.921875,,,,,,FBP-RB-91.png,0.35,1.2,56,0.5,,,,,,,,,,,,,,,,,,0,30,30,55,1,,,,,,,,,,,,,,,,,,,,,,,
,,,,,V3_013,19,Female,2024-10-15_19h36.35.664,jersey_experiment_5_v3,2023.2.2,Win32,84.74576271,,,,,,,,,,,,,,,,846.4567,847.7596,847.7596,849.1243,return,0.5243,,34.89583333,,,,,,FBP-PT-81.png,0.35,1.2,21,0.5,,,,,,,,,,,,,,,,,,0,31,31,20,1,,,,,,,,,,,,,,,,,,,,,,,
,,,,,V3_013,19,Female,2024-10-15_19h36.35.664,jersey_experiment_5_v3,2023.2.2,Win32,84.74576271,,,,,,,,,,,,,,,,849.1245,850.4185,850.4185,851.3429,return,0.2272,,33.984375,,,,,,FBP-YG-19.png,0.37,1.2,12,0.5,,,,,,,,,,,,,,,,,,0,32,32,11,1,,,,,,,,,,,,,,,,,,,,,,,
,,,,,V3_013,19,Female,2024-10-15_19h36.35.664,jersey_experiment_5_v3,2023.2.2,Win32,84.74576271,,,,,,,,,,,,,,,,851.3431,852.6421,852.6423,854.0341,return,0.1268,,57.55208333,,,,,,FBP-YG-18.png,0.4,1.2,8,0.5,,,,,,,,,,,,,,,,,,0,33,33,7,1,,,,,,,,,,,,,,,,,,,,,,,
,,,,,V3_013,19,Female,2024-10-15_19h36.35.664,jersey_experiment_5_v3,2023.2.2,Win32,84.74576271,,,,,,,,,,,,,,,,854.0343,855.3428,855.3428,856.2604,return,0.0942,,64.19270833,,,,,,FBP-PT-91.png,0.4,1.2,28,0.5,,,,,,,,,,,,,,,,,,0,34,34,27,1,,,,,,,,,,,,,,,,,,,,,,,
,,,,,V3_013,19,Female,2024-10-15_19h36.35.664,jersey_experiment_5_v3,2023.2.2,Win32,84.74576271,,,,,,,,,,,,,,,,856.2607,857.5546,857.5546,859.2424,return,0.8017,,51.04166667,,,,,,FBP-RB-91.png,0.4,1.2,58,0.5,,,,,,,,,,,,,,,,,,0,35,35,57,1,,,,,,,,,,,,,,,,,,,,,,,
,,,,,V3_013,19,Female,2024-10-15_19h36.35.664,jersey_experiment_5_v3,2023.2.2,Win32,84.74576271,,,,,,,,,,,,,,,,859.2426,860.5365,860.5365,861.7046,return,0.15,,74.609375,,,,,,FBP-RB-91.png,0.45,1.2,60,0.5,,,,,,,,,,,,,,,,,,0,36,36,59,1,,,,,,,,,,,,,,,,,,,,,,,
,,,,,V3_013,19,Female,2024-10-15_19h36.35.664,jersey_experiment_5_v3,2023.2.2,Win32,84.74576271,,,,,,,,,,,,,,,,861.7048,863.0072,863.0072,863.9634,return,0.212,,80.20833333,,,,,,FBP-YG-18.png,0.45,1.2,10,0.5,,,,,,,,,,,,,,,,,,0,37,37,9,1,,,,,,,,,,,,,,,,,,,,,,,
,,,,,V3_013,19,Female,2024-10-15_19h36.35.664,jersey_experiment_5_v3,2023.2.2,Win32,84.74576271,,,,,,,,,,,,,,,,863.9635,865.2726,865.2726,866.2374,return,0.1885,,64.71354167,,,,,,FBP-PT-71.png,0.4,1.2,18,0.5,,,,,,,,,,,,,,,,,,0,38,38,17,1,,,,,,,,,,,,,,,,,,,,,,,
,,,,,V3_013,19,Female,2024-10-15_19h36.35.664,jersey_experiment_5_v3,2023.2.2,Win32,84.74576271,,,,,,,,,,,,,,,,866.2376,867.5369,867.5369,868.4663,return,0.1029,,52.99479167,,,,,,FBP-PT-71.png,0.37,1.2,17,0.5,,,,,,,,,,,,,,,,,,0,39,39,16,1,,,,,,,,,,,,,,,,,,,,,,,
,,,,,V3_013,19,Female,2024-10-15_19h36.35.664,jersey_experiment_5_v3,2023.2.2,Win32,84.74576271,,,,,,,,,,,,,,,,868.4665,869.7666,869.7666,870.5487,return,0.1205,,71.61458333,,,,,,FBP-PT-71.png,0.43,1.2,19,0.5,,,,,,,,,,,,,,,,,,0,40,40,18,1,,,,,,,,,,,,,,,,,,,,,,,
,,,,,V3_013,19,Female,2024-10-15_19h36.35.664,jersey_experiment_5_v3,2023.2.2,Win32,84.74576271,,,,,,,,,,,,,,,,870.5489,872.1018,872.1018,873.2076,return,0.2268,,78.25520833,,,,,,FBP-OG-91.png,0.4,1.2,43,0.75,,,,,,,,,,,,,,,,,,0,41,41,42,1,,,,,,,,,,,,,,,,,,,,,,,
,,,,,V3_013,19,Female,2024-10-15_19h36.35.664,jersey_experiment_5_v3,2023.2.2,Win32,84.74576271,,,,,,,,,,,,,,,,873.2078,874.764,874.764,876.102,return,0.7699,,44.27083333,,,,,,FBP-OG-91.png,0.35,1.2,41,0.75,,,,,,,,,,,,,,,,,,0,42,42,40,1,,,,,,,,,,,,,,,,,,,,,,,
,,,,,V3_013,19,Female,2024-10-15_19h36.35.664,jersey_experiment_5_v3,2023.2.2,Win32,84.74576271,,,,,,,,,,,,,,,,876.1022,877.396,877.396,878.4549,return,0.3068,,84.375,,,,,,FBP-RB-71.png,0.45,1.2,50,0.5,,,,,,,,,,,,,,,,,,0,43,43,49,1,,,,,,,,,,,,,,,,,,,,,,,
,,,,,V3_013,19,Female,2024-10-15_19h36.35.664,jersey_experiment_5_v3,2023.2.2,Win32,84.74576271,,,,,,,,,,,,,,,,878.4551,879.749,879.7491,880.9374,return,0.3306,,40.88541667,,,,,,FBP-RB-71.png,0.35,1.2,46,0.5,,,,,,,,,,,,,,,,,,0,44,44,45,1,,,,,,,,,,,,,,,,,,,,,,,
,,,,,V3_013,19,Female,2024-10-15_19h36.35.664,jersey_experiment_5_v3,2023.2.2,Win32,84.74576271,,,,,,,,,,,,,,,,880.9376,882.2316,882.2316,883.1609,return,0.0949,,33.85416667,,,,,,FBP-PT-91.png,0.37,1.2,27,0.5,,,,,,,,,,,,,,,,,,0,45,45,26,1,,,,,,,,,,,,,,,,,,,,,,,
,,,,,V3_013,19,Female,2024-10-15_19h36.35.664,jersey_experiment_5_v3,2023.2.2,Win32,84.74576271,,,,,,,,,,,,,,,,883.1612,884.7086,884.7086,886.2854,return,0.6035,,76.30208333,,,,,,FBP-OG-91.png,0.45,1.2,45,0.75,,,,,,,,,,,,,,,,,,0,46,46,44,1,,,,,,,,,,,,,,,,,,,,,,,
,,,,,V3_013,19,Female,2024-10-15_19h36.35.664,jersey_experiment_5_v3,2023.2.2,Win32,84.74576271,,,,,,,,,,,,,,,,886.2855,887.5846,887.5847,888.741,return,0.1738,,63.41145833,,,,,,FBP-YG-17.png,0.4,1.2,3,0.5,,,,,,,,,,,,,,,,,,0,47,47,2,1,,,,,,,,,,,,,,,,,,,,,,,
,,,,,V3_013,19,Female,2024-10-15_19h36.35.664,jersey_experiment_5_v3,2023.2.2,Win32,84.74576271,,,,,,,,,,,,,,,,888.7411,890.0499,890.0499,891.635,return,0.3146,,32.421875,,,,,,FBP-PT-71.png,0.35,1.2,16,0.5,,,,,,,,,,,,,,,,,,0,48,48,15,1,,,,,,,,,,,,,,,,,,,,,,,
,,,,,V3_013,19,Female,2024-10-15_19h36.35.664,jersey_experiment_5_v3,2023.2.2,Win32,84.74576271,,,,,,,,,,,,,,,,891.6351,892.9378,892.9378,893.9641,return,0.2113,,70.703125,,,,,,FBP-RB-91.png,0.43,1.2,59,0.5,,,,,,,,,,,,,,,,,,0,49,49,58,1,,,,,,,,,,,,,,,,,,,,,,,
,,,,,V3_013,19,Female,2024-10-15_19h36.35.664,jersey_experiment_5_v3,2023.2.2,Win32,84.74576271,,,,,,,,,,,,,,,,893.9643,895.5087,895.5088,897.5564,return,0.3682,,34.375,,,,,,FBP-OG-81.png,0.4,1.2,38,0.75,,,,,,,,,,,,,,,,,,0,50,50,37,1,,,,,,,,,,,,,,,,,,,,,,,
,,,,,V3_013,19,Female,2024-10-15_19h36.35.664,jersey_experiment_5_v3,2023.2.2,Win32,84.74576271,,,,,,,,,,,,,,,,897.5566,898.8556,898.8556,899.8205,return,0.157,,36.58854167,,,,,,FBP-RB-81.png,0.35,1.2,51,0.5,,,,,,,,,,,,,,,,,,0,51,51,50,1,,,,,,,,,,,,,,,,,,,,,,,
,,,,,V3_013,19,Female,2024-10-15_19h36.35.664,jersey_experiment_5_v3,2023.2.2,Win32,84.74576271,,,,,,,,,,,,,,,,899.8207,901.1146,901.1146,901.8911,return,0.1139,,65.49479167,,,,,,FBP-RB-71.png,0.4,1.2,48,0.5,,,,,,,,,,,,,,,,,,0,52,52,47,1,,,,,,,,,,,,,,,,,,,,,,,
,,,,,V3_013,19,Female,2024-10-15_19h36.35.664,jersey_experiment_5_v3,2023.2.2,Win32,84.74576271,,,,,,,,,,,,,,,,901.8913,903.1852,903.1853,904.3971,return,0.2911,,67.96875,,,,,,FBP-PT-81.png,0.45,1.2,25,0.5,,,,,,,,,,,,,,,,,,0,53,53,24,1,,,,,,,,,,,,,,,,,,,,,,,
,,,,,V3_013,19,Female,2024-10-15_19h36.35.664,jersey_experiment_5_v3,2023.2.2,Win32,84.74576271,,,,,,,,,,,,,,,,904.3973,905.6911,905.6911,906.671,return,0.1414,,42.96875,,,,,,FBP-PT-81.png,0.37,1.2,22,0.5,,,,,,,,,,,,,,,,,,0,54,54,21,1,,,,,,,,,,,,,,,,,,,,,,,
,,,,,V3_013,19,Female,2024-10-15_19h36.35.664,jersey_experiment_5_v3,2023.2.2,Win32,84.74576271,,,,,,,,,,,,,,,,906.6712,907.9736,907.9736,908.9148,return,0.0551,,36.84895833,,,,,,FBP-YG-17.png,0.35,1.2,1,0.5,,,,,,,,,,,,,,,,,,0,55,55,0,1,,,,,,,,,,,,,,,,,,,,,,,
,,,,,V3_013,19,Female,2024-10-15_19h36.35.664,jersey_experiment_5_v3,2023.2.2,Win32,84.74576271,,,,,,,,,,,,,,,,908.915,910.2155,910.2155,911.2091,return,0.306,,59.24479167,,,,,,FBP-RB-91.png,0.37,1.2,57,0.5,,,,,,,,,,,,,,,,,,0,56,56,56,1,,,,,,,,,,,,,,,,,,,,,,,
,,,,,V3_013,19,Female,2024-10-15_19h36.35.664,jersey_experiment_5_v3,2023.2.2,Win32,84.74576271,,,,,,,,,,,,,,,,911.2094,912.7566,912.7566,913.6037,return,0.1175,,76.171875,,,,,,FBP-OG-81.png,0.43,1.2,39,0.75,,,,,,,,,,,,,,,,,,0,57,57,38,1,,,,,,,,,,,,,,,,,,,,,,,
,,,,,V3_013,19,Female,2024-10-15_19h36.35.664,jersey_experiment_5_v3,2023.2.2,Win32,84.74576271,,,,,,,,,,,,,,,,913.6038,914.9034,914.9034,915.9385,return,0.1614,,81.38020833,,,,,,FBP-YG-19.png,0.43,1.2,14,0.5,,,,,,,,,,,,,,,,,,0,58,58,13,1,,,,,,,,,,,,,,,,,,,,,,,
,,,,,V3_013,19,Female,2024-10-15_19h36.35.664,jersey_experiment_5_v3,2023.2.2,Win32,84.74576271,,,,,,,,,,,,,,,,915.9389,917.2328,917.2329,918.0095,return,0.1094,,92.83854167,,,,,,FBP-PT-71.png,0.45,1.2,20,0.5,,,,,,,,,,,,,,,,,,0,59,59,19,1,,,,,,,,,,,,,,,,,,,,,,,
,,,,,V3_013,19,Female,2024-10-15_19h36.35.664,jersey_experiment_5_v3,2023.2.2,Win32,84.74576271,,,,,,,,,,,,,,,,,,,,,,,,,,,,,,,,,,,,,,,,,,,,,,,,,,,,,,,,918.0096,922.2331,return,4.1979,,,,,,,,,,,,,,,,,,,
,,,,,V3_013,19,Female,2024-10-15_19h36.35.664,jersey_experiment_5_v3,2023.2.2,Win32,84.74576271,,,,,,,,,,,,,,,,,,,,,,,,,,,,,,,,,,,,,,,,,,,,,,,,,,,,,,,,,,,,,922.2332,926.1626,1,2.8769,return,1.0433,,,,,,,,,,,,
,,,,,V3_013,19,Female,2024-10-15_19h36.35.664,jersey_experiment_5_v3,2023.2.2,Win32,84.74576271,,,,,,,,,,,,,,,,,,,,,,,,,,,,,,,,,,,,,,,,,,,,,,,,,,,,,,,,,,,,,,,,,,,,926.1628,958.8114,If the color jersey affects body type perception,right,24.0159,,,,,,
,,,,,V3_013,19,Female,2024-10-15_19h36.35.664,jersey_experiment_5_v3,2023.2.2,Win32,84.74576271,,,,,,,,,,,,,,,,,,,,,,,,,,,,,,,,,,,,,,,,,,,,,,,,,,,,,,,,,,,,,,,,,,,,,,,,,,958.8114,962.8582,return,4.0234,