requirements.started,requirements.stopped,key_resp_3.keys,key_resp_3.rt,key_resp_3.duration,Subject ID,Age,Gender,date,expName,psychopyVersion,OS,frameRate,instructions1.started,instructions1.stopped,key_resp.keys,key_resp.rt,key_resp.duration,example.started,example.stopped,enter_2.keys,enter_2.rt,enter_2.duration,instructions2.started,instructions2.stopped,enter_3.keys,enter_3.rt,enter_3.duration,image.started,image.stopped,slider_2.started,slider_2.stopped,next.keys,next.rt,next.duration,slider.response,trial_block_1.thisRepN,trial_block_1.thisTrialN,trial_block_1.thisN,trial_block_1.thisIndex,trial_block_1.ran,Path,Width,Height,Index,Duration,trial_block_2.thisRepN,trial_block_2.thisTrialN,trial_block_2.thisN,trial_block_2.thisIndex,trial_block_2.ran,rest_break.started,rest_break.stopped,end_break.started,end_break.stopped,key_resp_5.keys,key_resp_5.rt,key_resp_5.duration,trial_block_3.thisRepN,trial_block_3.thisTrialN,trial_block_3.thisN,trial_block_3.thisIndex,trial_block_3.ran,trial_block_4.thisRepN,trial_block_4.thisTrialN,trial_block_4.thisN,trial_block_4.thisIndex,trial_block_4.ran,questions_intro.started,questions_intro.stopped,enter_12.keys,enter_12.rt,enter_12.duration,question2.started,question2.stopped,question_doingbest.response,question_doingbest.rt,enter_15.keys,enter_15.rt,enter_15.duration,pattern.started,pattern.stopped,pattern_2.text,enter_17.keys,enter_17.rt,enter_17.duration,thankyou.started,thankyou.stopped,enter_14.keys,enter_14.rt,enter_14.duration
0.0001,6.9662,return,6.9595,,V3_076,19,Female,2024-11-18_16h52.21.865,jersey_experiment_5_v3,2023.2.2,Win32,84.74576271,,,,,,,,,,,,,,,,,,,,,,,,,,,,,,,,,,,,,,,,,,,,,,,,,,,,,,,,,,,,,,,,,,,,,,,,,,,,,,
,,,,,V3_076,19,Female,2024-11-18_16h52.21.865,jersey_experiment_5_v3,2023.2.2,Win32,84.74576271,6.9663,11.733,return,4.7532,,,,,,,,,,,,,,,,,,,,,,,,,,,,,,,,,,,,,,,,,,,,,,,,,,,,,,,,,,,,,,,,,,,,,,,,,,
,,,,,V3_076,19,Female,2024-11-18_16h52.21.865,jersey_experiment_5_v3,2023.2.2,Win32,84.74576271,,,,,,11.733,13.8336,return,2.0729,,,,,,,,,,,,,,,,,,,,,,,,,,,,,,,,,,,,,,,,,,,,,,,,,,,,,,,,,,,,,,,,,,,,,
,,,,,V3_076,19,Female,2024-11-18_16h52.21.865,jersey_experiment_5_v3,2023.2.2,Win32,84.74576271,,,,,,,,,,,13.8336,25.8224,return,11.9785,,,,,,,,,,,,,,,,,,,,,,,,,,,,,,,,,,,,,,,,,,,,,,,,,,,,,,,,,,,,,,,,
,,,,,V3_076,19,Female,2024-11-18_16h52.21.865,jersey_experiment_5_v3,2023.2.2,Win32,84.74576271,,,,,,,,,,,,,,,,25.8244,27.1164,27.1165,34.2696,return,1.9798,,49.86979167,0,0,0,31,1,FBP-OG-17.png,0.37,1.2,32,0.5,,,,,,,,,,,,,,,,,,,,,,,,,,,,,,,,,,,,,,,,,,,,,
,,,,,V3_076,19,Female,2024-11-18_16h52.21.865,jersey_experiment_5_v3,2023.2.2,Win32,84.74576271,,,,,,,,,,,,,,,,34.2698,35.5638,35.5639,43.0228,return,1.1313,,74.73958333,0,1,1,42,1,FBP-OG-19.png,0.4,1.2,43,0.5,,,,,,,,,,,,,,,,,,,,,,,,,,,,,,,,,,,,,,,,,,,,,
,,,,,V3_076,19,Female,2024-11-18_16h52.21.865,jersey_experiment_5_v3,2023.2.2,Win32,84.74576271,,,,,,,,,,,,,,,,43.0232,44.576,44.5761,48.2584,return,1.2729,,36.97916667,0,2,2,0,1,FBP-YG-71.png,0.35,1.2,1,0.75,,,,,,,,,,,,,,,,,,,,,,,,,,,,,,,,,,,,,,,,,,,,,
,,,,,V3_076,19,Female,2024-11-18_16h52.21.865,jersey_experiment_5_v3,2023.2.2,Win32,84.74576271,,,,,,,,,,,,,,,,48.2586,49.8114,49.8115,53.5175,return,1.5329,,86.19791667,0,3,3,48,1,FBP-RB-17.png,0.43,1.2,49,0.75,,,,,,,,,,,,,,,,,,,,,,,,,,,,,,,,,,,,,,,,,,,,,
,,,,,V3_076,19,Female,2024-11-18_16h52.21.865,jersey_experiment_5_v3,2023.2.2,Win32,84.74576271,,,,,,,,,,,,,,,,53.5179,55.0703,55.0705,58.5294,return,1.6708,,83.984375,0,4,4,2,1,FBP-YG-71.png,0.4,1.2,3,0.75,,,,,,,,,,,,,,,,,,,,,,,,,,,,,,,,,,,,,,,,,,,,,
,,,,,V3_076,19,Female,2024-11-18_16h52.21.865,jersey_experiment_5_v3,2023.2.2,Win32,84.74576271,,,,,,,,,,,,,,,,58.5298,60.0824,60.0825,63.9533,return,2.5887,,89.97395833,0,5,5,57,1,FBP-RB-19.png,0.4,1.2,58,0.75,,,,,,,,,,,,,,,,,,,,,,,,,,,,,,,,,,,,,,,,,,,,,
,,,,,V3_076,19,Female,2024-11-18_16h52.21.865,jersey_experiment_5_v3,2023.2.2,Win32,84.74576271,,,,,,,,,,,,,,,,63.9536,65.5059,65.506,68.1414,return,1.296,,63.80208333,0,6,6,56,1,FBP-RB-19.png,0.37,1.2,57,0.75,,,,,,,,,,,,,,,,,,,,,,,,,,,,,,,,,,,,,,,,,,,,,
,,,,,V3_076,19,Female,2024-11-18_16h52.21.865,jersey_experiment_5_v3,2023.2.2,Win32,84.74576271,,,,,,,,,,,,,,,,68.1417,69.6946,69.6946,72.0593,return,0.994,,43.359375,0,7,7,25,1,FBP-PT-19.png,0.35,1.2,26,0.75,,,,,,,,,,,,,,,,,,,,,,,,,,,,,,,,,,,,,,,,,,,,,
,,,,,V3_076,19,Female,2024-11-18_16h52.21.865,jersey_experiment_5_v3,2023.2.2,Win32,84.74576271,,,,,,,,,,,,,,,,72.0596,73.6124,73.6125,76.0241,return,1.3146,,49.73958333,0,8,8,11,1,FBP-YG-91.png,0.37,1.2,12,0.75,,,,,,,,,,,,,,,,,,,,,,,,,,,,,,,,,,,,,,,,,,,,,
,,,,,V3_076,19,Female,2024-11-18_16h52.21.865,jersey_experiment_5_v3,2023.2.2,Win32,84.74576271,,,,,,,,,,,,,,,,76.0243,77.5771,77.5771,79.5302,return,0.8184,,88.02083333,0,9,9,29,1,FBP-PT-19.png,0.45,1.2,30,0.75,,,,,,,,,,,,,,,,,,,,,,,,,,,,,,,,,,,,,,,,,,,,,
,,,,,V3_076,19,Female,2024-11-18_16h52.21.865,jersey_experiment_5_v3,2023.2.2,Win32,84.74576271,,,,,,,,,,,,,,,,79.5305,80.8244,80.8244,82.6713,return,0.5765,,56.11979167,0,10,10,40,1,FBP-OG-19.png,0.35,1.2,41,0.5,,,,,,,,,,,,,,,,,,,,,,,,,,,,,,,,,,,,,,,,,,,,,
,,,,,V3_076,19,Female,2024-11-18_16h52.21.865,jersey_experiment_5_v3,2023.2.2,Win32,84.74576271,,,,,,,,,,,,,,,,82.6716,84.2244,84.2245,85.4716,return,0.684,,56.11979167,0,11,11,6,1,FBP-YG-81.png,0.37,1.2,7,0.75,,,,,,,,,,,,,,,,,,,,,,,,,,,,,,,,,,,,,,,,,,,,,
,,,,,V3_076,19,Female,2024-11-18_16h52.21.865,jersey_experiment_5_v3,2023.2.2,Win32,84.74576271,,,,,,,,,,,,,,,,85.472,87.0246,87.0247,89.0716,return,0.6836,,75,0,12,12,7,1,FBP-YG-81.png,0.4,1.2,8,0.75,,,,,,,,,,,,,,,,,,,,,,,,,,,,,,,,,,,,,,,,,,,,,
,,,,,V3_076,19,Female,2024-11-18_16h52.21.865,jersey_experiment_5_v3,2023.2.2,Win32,84.74576271,,,,,,,,,,,,,,,,89.0719,90.366,90.366,92.7306,return,0.9932,,92.96875,0,13,13,39,1,FBP-OG-18.png,0.45,1.2,40,0.5,,,,,,,,,,,,,,,,,,,,,,,,,,,,,,,,,,,,,,,,,,,,,
,,,,,V3_076,19,Female,2024-11-18_16h52.21.865,jersey_experiment_5_v3,2023.2.2,Win32,84.74576271,,,,,,,,,,,,,,,,92.7308,94.2721,94.2722,95.4837,return,0.7468,,91.796875,0,14,14,53,1,FBP-RB-18.png,0.43,1.2,54,0.75,,,,,,,,,,,,,,,,,,,,,,,,,,,,,,,,,,,,,,,,,,,,,
,,,,,V3_076,19,Female,2024-11-18_16h52.21.865,jersey_experiment_5_v3,2023.2.2,Win32,84.74576271,,,,,,,,,,,,,,,,95.4838,97.0251,97.0251,98.9073,return,0.6749,,62.109375,0,15,15,46,1,FBP-RB-17.png,0.37,1.2,47,0.75,,,,,,,,,,,,,,,,,,,,,,,,,,,,,,,,,,,,,,,,,,,,,
,,,,,V3_076,19,Female,2024-11-18_16h52.21.865,jersey_experiment_5_v3,2023.2.2,Win32,84.74576271,,,,,,,,,,,,,,,,98.9076,100.4604,100.4605,101.884,return,0.6286,,61.06770833,0,16,16,20,1,FBP-PT-18.png,0.35,1.2,21,0.75,,,,,,,,,,,,,,,,,,,,,,,,,,,,,,,,,,,,,,,,,,,,,
,,,,,V3_076,19,Female,2024-11-18_16h52.21.865,jersey_experiment_5_v3,2023.2.2,Win32,84.74576271,,,,,,,,,,,,,,,,101.8843,103.437,103.4371,106.6017,return,2.2661,,90.10416667,0,17,17,24,1,FBP-PT-18.png,0.45,1.2,25,0.75,,,,,,,,,,,,,,,,,,,,,,,,,,,,,,,,,,,,,,,,,,,,,
,,,,,V3_076,19,Female,2024-11-18_16h52.21.865,jersey_experiment_5_v3,2023.2.2,Win32,84.74576271,,,,,,,,,,,,,,,,106.6019,108.1549,108.1549,109.9666,return,0.7317,,75.52083333,0,18,18,47,1,FBP-RB-17.png,0.4,1.2,48,0.75,,,,,,,,,,,,,,,,,,,,,,,,,,,,,,,,,,,,,,,,,,,,,
,,,,,V3_076,19,Female,2024-11-18_16h52.21.865,jersey_experiment_5_v3,2023.2.2,Win32,84.74576271,,,,,,,,,,,,,,,,109.9669,111.5197,111.5197,112.5903,return,0.6499,,75.65104167,0,19,19,22,1,FBP-PT-18.png,0.4,1.2,23,0.75,,,,,,,,,,,,,,,,,,,,,,,,,,,,,,,,,,,,,,,,,,,,,
,,,,,V3_076,19,Female,2024-11-18_16h52.21.865,jersey_experiment_5_v3,2023.2.2,Win32,84.74576271,,,,,,,,,,,,,,,,112.5906,114.1431,114.1432,115.2609,return,0.5216,,75.65104167,0,20,20,12,1,FBP-YG-91.png,0.4,1.2,13,0.75,,,,,,,,,,,,,,,,,,,,,,,,,,,,,,,,,,,,,,,,,,,,,
,,,,,V3_076,19,Female,2024-11-18_16h52.21.865,jersey_experiment_5_v3,2023.2.2,Win32,84.74576271,,,,,,,,,,,,,,,,115.2612,116.8138,116.8139,121.12,return,3.5158,,50.390625,0,21,21,16,1,FBP-PT-17.png,0.37,1.2,17,0.75,,,,,,,,,,,,,,,,,,,,,,,,,,,,,,,,,,,,,,,,,,,,,
,,,,,V3_076,19,Female,2024-11-18_16h52.21.865,jersey_experiment_5_v3,2023.2.2,Win32,84.74576271,,,,,,,,,,,,,,,,121.1202,122.6729,122.6729,124.9084,return,1.1445,,89.32291667,0,22,22,9,1,FBP-YG-81.png,0.45,1.2,10,0.75,,,,,,,,,,,,,,,,,,,,,,,,,,,,,,,,,,,,,,,,,,,,,
,,,,,V3_076,19,Female,2024-11-18_16h52.21.865,jersey_experiment_5_v3,2023.2.2,Win32,84.74576271,,,,,,,,,,,,,,,,124.9087,126.4612,126.4612,128.6028,return,0.8167,,95.83333333,0,23,23,19,1,FBP-PT-17.png,0.45,1.2,20,0.75,,,,,,,,,,,,,,,,,,,,,,,,,,,,,,,,,,,,,,,,,,,,,
,,,,,V3_076,19,Female,2024-11-18_16h52.21.865,jersey_experiment_5_v3,2023.2.2,Win32,84.74576271,,,,,,,,,,,,,,,,128.6031,130.1555,130.1556,131.9791,return,0.6763,,99.34895833,0,24,24,54,1,FBP-RB-18.png,0.45,1.2,55,0.75,,,,,,,,,,,,,,,,,,,,,,,,,,,,,,,,,,,,,,,,,,,,,
,,,,,V3_076,19,Female,2024-11-18_16h52.21.865,jersey_experiment_5_v3,2023.2.2,Win32,84.74576271,,,,,,,,,,,,,,,,131.9793,133.2733,133.2734,135.7557,return,0.6274,,75,0,25,25,33,1,FBP-OG-17.png,0.43,1.2,34,0.5,,,,,,,,,,,,,,,,,,,,,,,,,,,,,,,,,,,,,,,,,,,,,
,,,,,V3_076,19,Female,2024-11-18_16h52.21.865,jersey_experiment_5_v3,2023.2.2,Win32,84.74576271,,,,,,,,,,,,,,,,135.7558,137.297,137.2971,139.0972,return,0.7608,,65.36458333,0,26,26,17,1,FBP-PT-17.png,0.4,1.2,18,0.75,,,,,,,,,,,,,,,,,,,,,,,,,,,,,,,,,,,,,,,,,,,,,
,,,,,V3_076,19,Female,2024-11-18_16h52.21.865,jersey_experiment_5_v3,2023.2.2,Win32,84.74576271,,,,,,,,,,,,,,,,139.0974,140.6502,140.6503,142.0736,return,0.5943,,77.734375,0,27,27,18,1,FBP-PT-17.png,0.43,1.2,19,0.75,,,,,,,,,,,,,,,,,,,,,,,,,,,,,,,,,,,,,,,,,,,,,
,,,,,V3_076,19,Female,2024-11-18_16h52.21.865,jersey_experiment_5_v3,2023.2.2,Win32,84.74576271,,,,,,,,,,,,,,,,142.0739,143.6267,143.6267,145.5797,return,0.6149,,25.13020833,0,28,28,55,1,FBP-RB-19.png,0.35,1.2,56,0.75,,,,,,,,,,,,,,,,,,,,,,,,,,,,,,,,,,,,,,,,,,,,,
,,,,,V3_076,19,Female,2024-11-18_16h52.21.865,jersey_experiment_5_v3,2023.2.2,Win32,84.74576271,,,,,,,,,,,,,,,,145.58,147.1328,147.1328,148.874,return,0.6071,,79.296875,0,29,29,23,1,FBP-PT-18.png,0.43,1.2,24,0.75,,,,,,,,,,,,,,,,,,,,,,,,,,,,,,,,,,,,,,,,,,,,,
,,,,,V3_076,19,Female,2024-11-18_16h52.21.865,jersey_experiment_5_v3,2023.2.2,Win32,84.74576271,,,,,,,,,,,,,,,,148.8742,150.427,150.4271,152.686,return,0.5909,,49.609375,0,30,30,1,1,FBP-YG-71.png,0.37,1.2,2,0.75,,,,,,,,,,,,,,,,,,,,,,,,,,,,,,,,,,,,,,,,,,,,,
,,,,,V3_076,19,Female,2024-11-18_16h52.21.865,jersey_experiment_5_v3,2023.2.2,Win32,84.74576271,,,,,,,,,,,,,,,,152.6863,154.2388,154.2389,163.0981,return,2.9718,,49.609375,0,31,31,8,1,FBP-YG-81.png,0.43,1.2,9,0.75,,,,,,,,,,,,,,,,,,,,,,,,,,,,,,,,,,,,,,,,,,,,,
,,,,,V3_076,19,Female,2024-11-18_16h52.21.865,jersey_experiment_5_v3,2023.2.2,Win32,84.74576271,,,,,,,,,,,,,,,,163.0984,164.6511,164.6511,166.7217,return,1.1058,,93.09895833,0,32,32,14,1,FBP-YG-91.png,0.45,1.2,15,0.75,,,,,,,,,,,,,,,,,,,,,,,,,,,,,,,,,,,,,,,,,,,,,
,,,,,V3_076,19,Female,2024-11-18_16h52.21.865,jersey_experiment_5_v3,2023.2.2,Win32,84.74576271,,,,,,,,,,,,,,,,166.7221,168.2746,168.2746,170.463,return,0.7079,,74.34895833,0,33,33,3,1,FBP-YG-71.png,0.43,1.2,4,0.75,,,,,,,,,,,,,,,,,,,,,,,,,,,,,,,,,,,,,,,,,,,,,
,,,,,V3_076,19,Female,2024-11-18_16h52.21.865,jersey_experiment_5_v3,2023.2.2,Win32,84.74576271,,,,,,,,,,,,,,,,170.4632,172.0159,172.016,175.311,return,1.6582,,25,0,34,34,5,1,FBP-YG-81.png,0.35,1.2,6,0.75,,,,,,,,,,,,,,,,,,,,,,,,,,,,,,,,,,,,,,,,,,,,,
,,,,,V3_076,19,Female,2024-11-18_16h52.21.865,jersey_experiment_5_v3,2023.2.2,Win32,84.74576271,,,,,,,,,,,,,,,,175.3112,176.6044,176.6044,178.7927,return,0.7144,,74.609375,0,35,35,38,1,FBP-OG-18.png,0.43,1.2,39,0.5,,,,,,,,,,,,,,,,,,,,,,,,,,,,,,,,,,,,,,,,,,,,,
,,,,,V3_076,19,Female,2024-11-18_16h52.21.865,jersey_experiment_5_v3,2023.2.2,Win32,84.74576271,,,,,,,,,,,,,,,,178.7929,180.0869,180.0869,182.0164,return,0.6124,,93.22916667,0,36,36,44,1,FBP-OG-19.png,0.45,1.2,45,0.5,,,,,,,,,,,,,,,,,,,,,,,,,,,,,,,,,,,,,,,,,,,,,
,,,,,V3_076,19,Female,2024-11-18_16h52.21.865,jersey_experiment_5_v3,2023.2.2,Win32,84.74576271,,,,,,,,,,,,,,,,182.0166,183.5695,183.5695,185.1931,return,0.5727,,25.13020833,0,37,37,21,1,FBP-PT-18.png,0.37,1.2,22,0.75,,,,,,,,,,,,,,,,,,,,,,,,,,,,,,,,,,,,,,,,,,,,,
,,,,,V3_076,19,Female,2024-11-18_16h52.21.865,jersey_experiment_5_v3,2023.2.2,Win32,84.74576271,,,,,,,,,,,,,,,,185.1933,186.4872,186.4872,188.4166,return,0.5415,,33.203125,0,38,38,41,1,FBP-OG-19.png,0.37,1.2,42,0.5,,,,,,,,,,,,,,,,,,,,,,,,,,,,,,,,,,,,,,,,,,,,,
,,,,,V3_076,19,Female,2024-11-18_16h52.21.865,jersey_experiment_5_v3,2023.2.2,Win32,84.74576271,,,,,,,,,,,,,,,,188.4169,189.9696,189.9696,191.8756,return,0.5738,,99.47916667,0,39,39,49,1,FBP-RB-17.png,0.45,1.2,50,0.75,,,,,,,,,,,,,,,,,,,,,,,,,,,,,,,,,,,,,,,,,,,,,
,,,,,V3_076,19,Female,2024-11-18_16h52.21.865,jersey_experiment_5_v3,2023.2.2,Win32,84.74576271,,,,,,,,,,,,,,,,191.876,193.4285,193.4287,195.3934,return,0.7427,,76.953125,0,40,40,27,1,FBP-PT-19.png,0.4,1.2,28,0.75,,,,,,,,,,,,,,,,,,,,,,,,,,,,,,,,,,,,,,,,,,,,,
,,,,,V3_076,19,Female,2024-11-18_16h52.21.865,jersey_experiment_5_v3,2023.2.2,Win32,84.74576271,,,,,,,,,,,,,,,,195.3936,196.6875,196.6876,198.5581,return,0.5543,,25.52083333,0,41,41,30,1,FBP-OG-17.png,0.35,1.2,31,0.5,,,,,,,,,,,,,,,,,,,,,,,,,,,,,,,,,,,,,,,,,,,,,
,,,,,V3_076,19,Female,2024-11-18_16h52.21.865,jersey_experiment_5_v3,2023.2.2,Win32,84.74576271,,,,,,,,,,,,,,,,198.5584,200.1112,200.1112,202.5701,return,1.0636,,64.32291667,0,42,42,26,1,FBP-PT-19.png,0.37,1.2,27,0.75,,,,,,,,,,,,,,,,,,,,,,,,,,,,,,,,,,,,,,,,,,,,,
,,,,,V3_076,19,Female,2024-11-18_16h52.21.865,jersey_experiment_5_v3,2023.2.2,Win32,84.74576271,,,,,,,,,,,,,,,,202.5704,204.1231,204.1231,205.8526,return,0.6722,,50.65104167,0,43,43,51,1,FBP-RB-18.png,0.37,1.2,52,0.75,,,,,,,,,,,,,,,,,,,,,,,,,,,,,,,,,,,,,,,,,,,,,
,,,,,V3_076,19,Female,2024-11-18_16h52.21.865,jersey_experiment_5_v3,2023.2.2,Win32,84.74576271,,,,,,,,,,,,,,,,205.8529,207.4057,207.4058,209.0056,return,0.6254,,88.02083333,0,44,44,59,1,FBP-RB-19.png,0.45,1.2,60,0.75,,,,,,,,,,,,,,,,,,,,,,,,,,,,,,,,,,,,,,,,,,,,,
,,,,,V3_076,19,Female,2024-11-18_16h52.21.865,jersey_experiment_5_v3,2023.2.2,Win32,84.74576271,,,,,,,,,,,,,,,,209.006,210.5587,210.5588,211.8648,return,0.7123,,88.15104167,0,45,45,13,1,FBP-YG-91.png,0.43,1.2,14,0.75,,,,,,,,,,,,,,,,,,,,,,,,,,,,,,,,,,,,,,,,,,,,,
,,,,,V3_076,19,Female,2024-11-18_16h52.21.865,jersey_experiment_5_v3,2023.2.2,Win32,84.74576271,,,,,,,,,,,,,,,,211.865,213.1587,213.1587,214.9707,return,0.7345,,80.98958333,0,46,46,34,1,FBP-OG-17.png,0.45,1.2,35,0.5,,,,,,,,,,,,,,,,,,,,,,,,,,,,,,,,,,,,,,,,,,,,,
,,,,,V3_076,19,Female,2024-11-18_16h52.21.865,jersey_experiment_5_v3,2023.2.2,Win32,84.74576271,,,,,,,,,,,,,,,,214.971,216.5236,216.5236,218.4412,return,0.5726,,80.98958333,0,47,47,4,1,FBP-YG-71.png,0.45,1.2,5,0.75,,,,,,,,,,,,,,,,,,,,,,,,,,,,,,,,,,,,,,,,,,,,,
,,,,,V3_076,19,Female,2024-11-18_16h52.21.865,jersey_experiment_5_v3,2023.2.2,Win32,84.74576271,,,,,,,,,,,,,,,,218.4416,219.7355,219.7355,221.4414,return,0.6122,,86.45833333,0,48,48,43,1,FBP-OG-19.png,0.43,1.2,44,0.5,,,,,,,,,,,,,,,,,,,,,,,,,,,,,,,,,,,,,,,,,,,,,
,,,,,V3_076,19,Female,2024-11-18_16h52.21.865,jersey_experiment_5_v3,2023.2.2,Win32,84.74576271,,,,,,,,,,,,,,,,221.4416,222.7356,222.7356,224.6415,return,0.6004,,24.86979167,0,49,49,35,1,FBP-OG-18.png,0.35,1.2,36,0.5,,,,,,,,,,,,,,,,,,,,,,,,,,,,,,,,,,,,,,,,,,,,,
,,,,,V3_076,19,Female,2024-11-18_16h52.21.865,jersey_experiment_5_v3,2023.2.2,Win32,84.74576271,,,,,,,,,,,,,,,,224.6418,226.1946,226.1946,229.4417,return,2.2356,,65.10416667,0,50,50,58,1,FBP-RB-19.png,0.43,1.2,59,0.75,,,,,,,,,,,,,,,,,,,,,,,,,,,,,,,,,,,,,,,,,,,,,
,,,,,V3_076,19,Female,2024-11-18_16h52.21.865,jersey_experiment_5_v3,2023.2.2,Win32,84.74576271,,,,,,,,,,,,,,,,229.442,230.7357,230.7358,232.8889,return,0.5965,,50.78125,0,51,51,36,1,FBP-OG-18.png,0.37,1.2,37,0.5,,,,,,,,,,,,,,,,,,,,,,,,,,,,,,,,,,,,,,,,,,,,,
,,,,,V3_076,19,Female,2024-11-18_16h52.21.865,jersey_experiment_5_v3,2023.2.2,Win32,84.74576271,,,,,,,,,,,,,,,,232.8893,234.4418,234.4419,236.1949,return,0.5542,,42.578125,0,52,52,10,1,FBP-YG-91.png,0.35,1.2,11,0.75,,,,,,,,,,,,,,,,,,,,,,,,,,,,,,,,,,,,,,,,,,,,,
,,,,,V3_076,19,Female,2024-11-18_16h52.21.865,jersey_experiment_5_v3,2023.2.2,Win32,84.74576271,,,,,,,,,,,,,,,,236.1952,237.489,237.4891,239.5714,return,0.5501,,72.52604167,0,53,53,37,1,FBP-OG-18.png,0.4,1.2,38,0.5,,,,,,,,,,,,,,,,,,,,,,,,,,,,,,,,,,,,,,,,,,,,,
,,,,,V3_076,19,Female,2024-11-18_16h52.21.865,jersey_experiment_5_v3,2023.2.2,Win32,84.74576271,,,,,,,,,,,,,,,,239.5716,241.1245,241.1245,242.7128,return,0.5375,,48.828125,0,54,54,15,1,FBP-PT-17.png,0.35,1.2,16,0.75,,,,,,,,,,,,,,,,,,,,,,,,,,,,,,,,,,,,,,,,,,,,,
,,,,,V3_076,19,Female,2024-11-18_16h52.21.865,jersey_experiment_5_v3,2023.2.2,Win32,84.74576271,,,,,,,,,,,,,,,,242.713,244.2658,244.2659,246.0777,return,0.6506,,75.78125,0,55,55,52,1,FBP-RB-18.png,0.4,1.2,53,0.75,,,,,,,,,,,,,,,,,,,,,,,,,,,,,,,,,,,,,,,,,,,,,
,,,,,V3_076,19,Female,2024-11-18_16h52.21.865,jersey_experiment_5_v3,2023.2.2,Win32,84.74576271,,,,,,,,,,,,,,,,246.078,247.6305,247.6306,249.7131,return,1.0827,,97.91666667,0,56,56,28,1,FBP-PT-19.png,0.43,1.2,29,0.75,,,,,,,,,,,,,,,,,,,,,,,,,,,,,,,,,,,,,,,,,,,,,
,,,,,V3_076,19,Female,2024-11-18_16h52.21.865,jersey_experiment_5_v3,2023.2.2,Win32,84.74576271,,,,,,,,,,,,,,,,249.7135,251.0072,251.0072,253.2427,return,0.8536,,67.44791667,0,57,57,32,1,FBP-OG-17.png,0.4,1.2,33,0.5,,,,,,,,,,,,,,,,,,,,,,,,,,,,,,,,,,,,,,,,,,,,,
,,,,,V3_076,19,Female,2024-11-18_16h52.21.865,jersey_experiment_5_v3,2023.2.2,Win32,84.74576271,,,,,,,,,,,,,,,,253.2431,254.7956,254.7956,256.6662,return,0.6183,,49.86979167,0,58,58,45,1,FBP-RB-17.png,0.35,1.2,46,0.75,,,,,,,,,,,,,,,,,,,,,,,,,,,,,,,,,,,,,,,,,,,,,
,,,,,V3_076,19,Female,2024-11-18_16h52.21.865,jersey_experiment_5_v3,2023.2.2,Win32,84.74576271,,,,,,,,,,,,,,,,256.6666,258.2193,258.2194,260.7017,return,1.4152,,50.390625,0,59,59,50,1,FBP-RB-18.png,0.35,1.2,51,0.75,,,,,,,,,,,,,,,,,,,,,,,,,,,,,,,,,,,,,,,,,,,,,
,,,,,V3_076,19,Female,2024-11-18_16h52.21.865,jersey_experiment_5_v3,2023.2.2,Win32,84.74576271,,,,,,,,,,,,,,,,260.7033,262.2546,262.2547,264.9607,return,0.5047,,69.921875,,,,,,FBP-YG-19.png,0.43,1.2,14,0.75,0,0,0,13,1,,,,,,,,,,,,,,,,,,,,,,,,,,,,,,,,,,,,,,,,
,,,,,V3_076,19,Female,2024-11-18_16h52.21.865,jersey_experiment_5_v3,2023.2.2,Win32,84.74576271,,,,,,,,,,,,,,,,264.9611,266.5137,266.5137,268.7491,return,0.9923,,49.86979167,,,,,,FBP-RB-71.png,0.4,1.2,48,0.75,0,1,1,47,1,,,,,,,,,,,,,,,,,,,,,,,,,,,,,,,,,,,,,,,,
,,,,,V3_076,19,Female,2024-11-18_16h52.21.865,jersey_experiment_5_v3,2023.2.2,Win32,84.74576271,,,,,,,,,,,,,,,,268.7494,270.3021,270.3022,272.5844,return,0.5132,,99.34895833,,,,,,FBP-PT-81.png,0.45,1.2,25,0.75,0,2,2,24,1,,,,,,,,,,,,,,,,,,,,,,,,,,,,,,,,,,,,,,,,
,,,,,V3_076,19,Female,2024-11-18_16h52.21.865,jersey_experiment_5_v3,2023.2.2,Win32,84.74576271,,,,,,,,,,,,,,,,272.5847,274.1377,274.1378,276.0317,return,0.7295,,40.234375,,,,,,FBP-YG-18.png,0.37,1.2,7,0.75,0,3,3,6,1,,,,,,,,,,,,,,,,,,,,,,,,,,,,,,,,,,,,,,,,
,,,,,V3_076,19,Female,2024-11-18_16h52.21.865,jersey_experiment_5_v3,2023.2.2,Win32,84.74576271,,,,,,,,,,,,,,,,276.032,277.3259,277.3259,279.0082,return,0.4821,,39.84375,,,,,,FBP-OG-71.png,0.35,1.2,31,0.5,0,4,4,30,1,,,,,,,,,,,,,,,,,,,,,,,,,,,,,,,,,,,,,,,,
,,,,,V3_076,19,Female,2024-11-18_16h52.21.865,jersey_experiment_5_v3,2023.2.2,Win32,84.74576271,,,,,,,,,,,,,,,,279.0086,280.5613,280.5613,282.6673,return,0.5695,,95.703125,,,,,,FBP-RB-91.png,0.45,1.2,60,0.75,0,5,5,59,1,,,,,,,,,,,,,,,,,,,,,,,,,,,,,,,,,,,,,,,,
,,,,,V3_076,19,Female,2024-11-18_16h52.21.865,jersey_experiment_5_v3,2023.2.2,Win32,84.74576271,,,,,,,,,,,,,,,,282.6675,284.2203,284.2204,285.9145,return,0.5935,,84.63541667,,,,,,FBP-YG-19.png,0.45,1.2,15,0.75,0,6,6,14,1,,,,,,,,,,,,,,,,,,,,,,,,,,,,,,,,,,,,,,,,
,,,,,V3_076,19,Female,2024-11-18_16h52.21.865,jersey_experiment_5_v3,2023.2.2,Win32,84.74576271,,,,,,,,,,,,,,,,285.9148,287.4674,287.4675,289.0556,return,0.6,,84.63541667,,,,,,FBP-YG-17.png,0.45,1.2,5,0.75,0,7,7,4,1,,,,,,,,,,,,,,,,,,,,,,,,,,,,,,,,,,,,,,,,
,,,,,V3_076,19,Female,2024-11-18_16h52.21.865,jersey_experiment_5_v3,2023.2.2,Win32,84.74576271,,,,,,,,,,,,,,,,289.0559,290.3499,290.35,292.6088,return,0.5651,,80.46875,,,,,,FBP-OG-91.png,0.4,1.2,43,0.5,0,8,8,42,1,,,,,,,,,,,,,,,,,,,,,,,,,,,,,,,,,,,,,,,,
,,,,,V3_076,19,Female,2024-11-18_16h52.21.865,jersey_experiment_5_v3,2023.2.2,Win32,84.74576271,,,,,,,,,,,,,,,,292.6091,294.1618,294.162,295.8559,return,0.6602,,33.85416667,,,,,,FBP-RB-71.png,0.35,1.2,46,0.75,0,9,9,45,1,,,,,,,,,,,,,,,,,,,,,,,,,,,,,,,,,,,,,,,,
,,,,,V3_076,19,Female,2024-11-18_16h52.21.865,jersey_experiment_5_v3,2023.2.2,Win32,84.74576271,,,,,,,,,,,,,,,,295.8562,297.409,297.4091,299.0562,return,0.6126,,57.55208333,,,,,,FBP-PT-81.png,0.4,1.2,23,0.75,0,10,10,22,1,,,,,,,,,,,,,,,,,,,,,,,,,,,,,,,,,,,,,,,,
,,,,,V3_076,19,Female,2024-11-18_16h52.21.865,jersey_experiment_5_v3,2023.2.2,Win32,84.74576271,,,,,,,,,,,,,,,,299.0564,300.6091,300.6092,302.268,return,0.5345,,51.69270833,,,,,,FBP-YG-19.png,0.4,1.2,13,0.75,0,11,11,12,1,,,,,,,,,,,,,,,,,,,,,,,,,,,,,,,,,,,,,,,,
,,,,,V3_076,19,Female,2024-11-18_16h52.21.865,jersey_experiment_5_v3,2023.2.2,Win32,84.74576271,,,,,,,,,,,,,,,,302.2684,303.5621,303.5622,305.9034,return,0.5668,,61.45833333,,,,,,FBP-OG-81.png,0.4,1.2,38,0.5,0,12,12,37,1,,,,,,,,,,,,,,,,,,,,,,,,,,,,,,,,,,,,,,,,
,,,,,V3_076,19,Female,2024-11-18_16h52.21.865,jersey_experiment_5_v3,2023.2.2,Win32,84.74576271,,,,,,,,,,,,,,,,305.9036,307.4565,307.4566,309.0918,return,0.5673,,71.22395833,,,,,,FBP-PT-91.png,0.4,1.2,28,0.75,0,13,13,27,1,,,,,,,,,,,,,,,,,,,,,,,,,,,,,,,,,,,,,,,,
,,,,,V3_076,19,Female,2024-11-18_16h52.21.865,jersey_experiment_5_v3,2023.2.2,Win32,84.74576271,,,,,,,,,,,,,,,,309.092,310.6447,310.6448,312.7978,return,0.6029,,71.22395833,,,,,,FBP-RB-91.png,0.4,1.2,58,0.75,0,14,14,57,1,,,,,,,,,,,,,,,,,,,,,,,,,,,,,,,,,,,,,,,,
,,,,,V3_076,19,Female,2024-11-18_16h52.21.865,jersey_experiment_5_v3,2023.2.2,Win32,84.74576271,,,,,,,,,,,,,,,,312.7979,314.3508,314.3508,316.3038,return,0.6602,,28.125,,,,,,FBP-YG-17.png,0.35,1.2,1,0.75,0,15,15,0,1,,,,,,,,,,,,,,,,,,,,,,,,,,,,,,,,,,,,,,,,
,,,,,V3_076,19,Female,2024-11-18_16h52.21.865,jersey_experiment_5_v3,2023.2.2,Win32,84.74576271,,,,,,,,,,,,,,,,316.3041,317.8569,317.8569,320.2333,return,0.794,,76.953125,,,,,,FBP-RB-81.png,0.4,1.2,53,0.75,0,16,16,52,1,,,,,,,,,,,,,,,,,,,,,,,,,,,,,,,,,,,,,,,,
,,,,,V3_076,19,Female,2024-11-18_16h52.21.865,jersey_experiment_5_v3,2023.2.2,Win32,84.74576271,,,,,,,,,,,,,,,,320.2337,321.7864,321.7865,326.0938,return,1.4164,,34.89583333,,,,,,FBP-YG-18.png,0.35,1.2,6,0.75,0,17,17,5,1,,,,,,,,,,,,,,,,,,,,,,,,,,,,,,,,,,,,,,,,
,,,,,V3_076,19,Female,2024-11-18_16h52.21.865,jersey_experiment_5_v3,2023.2.2,Win32,84.74576271,,,,,,,,,,,,,,,,326.094,327.3867,327.3867,339.54,return,9.8613,,99.34895833,,,,,,FBP-OG-81.png,0.45,1.2,40,0.5,0,18,18,39,1,,,,,,,,,,,,,,,,,,,,,,,,,,,,,,,,,,,,,,,,
,,,,,V3_076,19,Female,2024-11-18_16h52.21.865,jersey_experiment_5_v3,2023.2.2,Win32,84.74576271,,,,,,,,,,,,,,,,339.5403,341.0929,341.0929,344.2813,return,1.7725,,25,,,,,,FBP-YG-19.png,0.35,1.2,11,0.75,0,19,19,10,1,,,,,,,,,,,,,,,,,,,,,,,,,,,,,,,,,,,,,,,,
,,,,,V3_076,19,Female,2024-11-18_16h52.21.865,jersey_experiment_5_v3,2023.2.2,Win32,84.74576271,,,,,,,,,,,,,,,,344.2815,345.8343,345.8344,347.7285,return,0.5073,,98.69791667,,,,,,FBP-PT-91.png,0.43,1.2,29,0.75,0,20,20,28,1,,,,,,,,,,,,,,,,,,,,,,,,,,,,,,,,,,,,,,,,
,,,,,V3_076,19,Female,2024-11-18_16h52.21.865,jersey_experiment_5_v3,2023.2.2,Win32,84.74576271,,,,,,,,,,,,,,,,347.7288,349.2815,349.2815,352.7053,return,1.6109,,53.125,,,,,,FBP-PT-71.png,0.4,1.2,18,0.75,0,21,21,17,1,,,,,,,,,,,,,,,,,,,,,,,,,,,,,,,,,,,,,,,,
,,,,,V3_076,19,Female,2024-11-18_16h52.21.865,jersey_experiment_5_v3,2023.2.2,Win32,84.74576271,,,,,,,,,,,,,,,,352.7056,354.2583,354.2583,355.8582,return,0.5518,,74.34895833,,,,,,FBP-RB-91.png,0.43,1.2,59,0.75,0,22,22,58,1,,,,,,,,,,,,,,,,,,,,,,,,,,,,,,,,,,,,,,,,
,,,,,V3_076,19,Female,2024-11-18_16h52.21.865,jersey_experiment_5_v3,2023.2.2,Win32,84.74576271,,,,,,,,,,,,,,,,355.8585,357.4113,357.4114,358.8467,return,0.5911,,90.75520833,,,,,,FBP-RB-71.png,0.45,1.2,50,0.75,0,23,23,49,1,,,,,,,,,,,,,,,,,,,,,,,,,,,,,,,,,,,,,,,,
,,,,,V3_076,19,Female,2024-11-18_16h52.21.865,jersey_experiment_5_v3,2023.2.2,Win32,84.74576271,,,,,,,,,,,,,,,,358.847,360.3995,360.3996,362.2584,return,0.6208,,41.40625,,,,,,FBP-RB-71.png,0.37,1.2,47,0.75,0,24,24,46,1,,,,,,,,,,,,,,,,,,,,,,,,,,,,,,,,,,,,,,,,
,,,,,V3_076,19,Female,2024-11-18_16h52.21.865,jersey_experiment_5_v3,2023.2.2,Win32,84.74576271,,,,,,,,,,,,,,,,362.2587,363.8114,363.8115,375.0826,return,0.595,,49.21875,,,,,,FBP-PT-81.png,0.37,1.2,22,0.75,0,25,25,21,1,,,,,,,,,,,,,,,,,,,,,,,,,,,,,,,,,,,,,,,,
,,,,,V3_076,19,Female,2024-11-18_16h52.21.865,jersey_experiment_5_v3,2023.2.2,Win32,84.74576271,,,,,,,,,,,,,,,,375.0828,376.6355,376.6356,378.6355,return,0.9232,,75.78125,,,,,,FBP-YG-17.png,0.43,1.2,4,0.75,0,26,26,3,1,,,,,,,,,,,,,,,,,,,,,,,,,,,,,,,,,,,,,,,,
,,,,,V3_076,19,Female,2024-11-18_16h52.21.865,jersey_experiment_5_v3,2023.2.2,Win32,84.74576271,,,,,,,,,,,,,,,,378.6358,379.9297,379.9298,381.9533,return,0.518,,98.046875,,,,,,FBP-OG-91.png,0.45,1.2,45,0.5,0,27,27,44,1,,,,,,,,,,,,,,,,,,,,,,,,,,,,,,,,,,,,,,,,
,,,,,V3_076,19,Female,2024-11-18_16h52.21.865,jersey_experiment_5_v3,2023.2.2,Win32,84.74576271,,,,,,,,,,,,,,,,381.9537,383.5064,383.5064,385.0005,return,0.6178,,42.05729167,,,,,,FBP-RB-91.png,0.37,1.2,57,0.75,0,28,28,56,1,,,,,,,,,,,,,,,,,,,,,,,,,,,,,,,,,,,,,,,,
,,,,,V3_076,19,Female,2024-11-18_16h52.21.865,jersey_experiment_5_v3,2023.2.2,Win32,84.74576271,,,,,,,,,,,,,,,,385.0008,386.5536,386.5536,388.1301,return,0.6123,,61.84895833,,,,,,FBP-PT-71.png,0.43,1.2,19,0.75,0,29,29,18,1,,,,,,,,,,,,,,,,,,,,,,,,,,,,,,,,,,,,,,,,
,,,,,V3_076,19,Female,2024-11-18_16h52.21.865,jersey_experiment_5_v3,2023.2.2,Win32,84.74576271,,,,,,,,,,,,,,,,388.1304,389.4242,389.4242,392.636,return,0.711,,43.22916667,,,,,,FBP-OG-81.png,0.37,1.2,37,0.5,0,30,30,36,1,,,,,,,,,,,,,,,,,,,,,,,,,,,,,,,,,,,,,,,,
,,,,,V3_076,19,Female,2024-11-18_16h52.21.865,jersey_experiment_5_v3,2023.2.2,Win32,84.74576271,,,,,,,,,,,,,,,,392.6364,394.1892,394.1892,395.742,return,0.568,,51.953125,,,,,,FBP-YG-18.png,0.4,1.2,8,0.75,0,31,31,7,1,,,,,,,,,,,,,,,,,,,,,,,,,,,,,,,,,,,,,,,,
,,,,,V3_076,19,Female,2024-11-18_16h52.21.865,jersey_experiment_5_v3,2023.2.2,Win32,84.74576271,,,,,,,,,,,,,,,,395.7422,397.0363,397.0364,398.401,return,0.5884,,52.21354167,,,,,,FBP-OG-91.png,0.37,1.2,42,0.5,0,32,32,41,1,,,,,,,,,,,,,,,,,,,,,,,,,,,,,,,,,,,,,,,,
,,,,,V3_076,19,Female,2024-11-18_16h52.21.865,jersey_experiment_5_v3,2023.2.2,Win32,84.74576271,,,,,,,,,,,,,,,,398.4013,399.9541,399.9542,401.4364,return,0.5778,,79.03645833,,,,,,FBP-PT-81.png,0.43,1.2,24,0.75,0,33,33,23,1,,,,,,,,,,,,,,,,,,,,,,,,,,,,,,,,,,,,,,,,
,,,,,V3_076,19,Female,2024-11-18_16h52.21.865,jersey_experiment_5_v3,2023.2.2,Win32,84.74576271,,,,,,,,,,,,,,,,401.4367,402.9895,402.9896,404.813,return,0.6389,,49.86979167,,,,,,FBP-RB-81.png,0.37,1.2,52,0.75,0,34,34,51,1,,,,,,,,,,,,,,,,,,,,,,,,,,,,,,,,,,,,,,,,
,,,,,V3_076,19,Female,2024-11-18_16h52.21.865,jersey_experiment_5_v3,2023.2.2,Win32,84.74576271,,,,,,,,,,,,,,,,404.8133,406.1071,406.1071,408.5074,return,1.2514,,87.23958333,,,,,,FBP-OG-81.png,0.43,1.2,39,0.5,0,35,35,38,1,,,,,,,,,,,,,,,,,,,,,,,,,,,,,,,,,,,,,,,,
,,,,,V3_076,19,Female,2024-11-18_16h52.21.865,jersey_experiment_5_v3,2023.2.2,Win32,84.74576271,,,,,,,,,,,,,,,,408.5077,410.0602,410.0603,411.7544,return,0.7245,,99.73958333,,,,,,FBP-PT-91.png,0.45,1.2,30,0.75,0,36,36,29,1,,,,,,,,,,,,,,,,,,,,,,,,,,,,,,,,,,,,,,,,
,,,,,V3_076,19,Female,2024-11-18_16h52.21.865,jersey_experiment_5_v3,2023.2.2,Win32,84.74576271,,,,,,,,,,,,,,,,411.7547,413.3075,413.3075,414.9074,return,0.676,,50.65104167,,,,,,FBP-YG-17.png,0.37,1.2,2,0.75,0,37,37,1,1,,,,,,,,,,,,,,,,,,,,,,,,,,,,,,,,,,,,,,,,
,,,,,V3_076,19,Female,2024-11-18_16h52.21.865,jersey_experiment_5_v3,2023.2.2,Win32,84.74576271,,,,,,,,,,,,,,,,414.9077,416.4605,416.4606,418.6371,return,0.6159,,49.08854167,,,,,,FBP-PT-71.png,0.35,1.2,16,0.75,0,38,38,15,1,,,,,,,,,,,,,,,,,,,,,,,,,,,,,,,,,,,,,,,,
,,,,,V3_076,19,Female,2024-11-18_16h52.21.865,jersey_experiment_5_v3,2023.2.2,Win32,84.74576271,,,,,,,,,,,,,,,,418.6373,419.9312,419.9312,424.3668,return,3.3392,,87.109375,,,,,,FBP-OG-71.png,0.45,1.2,35,0.5,0,39,39,34,1,,,,,,,,,,,,,,,,,,,,,,,,,,,,,,,,,,,,,,,,
,,,,,V3_076,19,Female,2024-11-18_16h52.21.865,jersey_experiment_5_v3,2023.2.2,Win32,84.74576271,,,,,,,,,,,,,,,,424.367,425.9197,425.9197,427.0021,return,0.6412,,86.71875,,,,,,FBP-YG-18.png,0.43,1.2,9,0.75,0,40,40,8,1,,,,,,,,,,,,,,,,,,,,,,,,,,,,,,,,,,,,,,,,
,,,,,V3_076,19,Female,2024-11-18_16h52.21.865,jersey_experiment_5_v3,2023.2.2,Win32,84.74576271,,,,,,,,,,,,,,,,427.0023,428.555,428.5551,430.2728,return,0.5886,,78.38541667,,,,,,FBP-YG-17.png,0.4,1.2,3,0.75,0,41,41,2,1,,,,,,,,,,,,,,,,,,,,,,,,,,,,,,,,,,,,,,,,
,,,,,V3_076,19,Female,2024-11-18_16h52.21.865,jersey_experiment_5_v3,2023.2.2,Win32,84.74576271,,,,,,,,,,,,,,,,430.2731,431.826,431.8261,433.2023,return,0.599,,48.046875,,,,,,FBP-PT-91.png,0.35,1.2,26,0.75,0,42,42,25,1,,,,,,,,,,,,,,,,,,,,,,,,,,,,,,,,,,,,,,,,
,,,,,V3_076,19,Female,2024-11-18_16h52.21.865,jersey_experiment_5_v3,2023.2.2,Win32,84.74576271,,,,,,,,,,,,,,,,433.2026,434.7553,434.7553,436.0024,return,0.6456,,44.53125,,,,,,FBP-RB-91.png,0.35,1.2,56,0.75,0,43,43,55,1,,,,,,,,,,,,,,,,,,,,,,,,,,,,,,,,,,,,,,,,
,,,,,V3_076,19,Female,2024-11-18_16h52.21.865,jersey_experiment_5_v3,2023.2.2,Win32,84.74576271,,,,,,,,,,,,,,,,436.0026,437.5554,437.5554,440.4496,return,2.2121,,50.13020833,,,,,,FBP-YG-19.png,0.37,1.2,12,0.75,0,44,44,11,1,,,,,,,,,,,,,,,,,,,,,,,,,,,,,,,,,,,,,,,,
,,,,,V3_076,19,Female,2024-11-18_16h52.21.865,jersey_experiment_5_v3,2023.2.2,Win32,84.74576271,,,,,,,,,,,,,,,,440.45,441.7437,441.7437,445.05,return,2.4428,,49.08854167,,,,,,FBP-OG-81.png,0.35,1.2,36,0.5,0,45,45,35,1,,,,,,,,,,,,,,,,,,,,,,,,,,,,,,,,,,,,,,,,
,,,,,V3_076,19,Female,2024-11-18_16h52.21.865,jersey_experiment_5_v3,2023.2.2,Win32,84.74576271,,,,,,,,,,,,,,,,445.0502,446.6031,446.6031,448.2499,return,0.5837,,86.97916667,,,,,,FBP-YG-18.png,0.45,1.2,10,0.75,0,46,46,9,1,,,,,,,,,,,,,,,,,,,,,,,,,,,,,,,,,,,,,,,,
,,,,,V3_076,19,Female,2024-11-18_16h52.21.865,jersey_experiment_5_v3,2023.2.2,Win32,84.74576271,,,,,,,,,,,,,,,,448.2502,449.5442,449.5442,450.6852,return,0.0142,,47.78645833,,,,,,FBP-OG-91.png,0.35,1.2,41,0.5,0,47,47,40,1,,,,,,,,,,,,,,,,,,,,,,,,,,,,,,,,,,,,,,,,
,,,,,V3_076,19,Female,2024-11-18_16h52.21.865,jersey_experiment_5_v3,2023.2.2,Win32,84.74576271,,,,,,,,,,,,,,,,450.6854,452.2269,452.2269,453.5209,return,0.1899,,87.890625,,,,,,FBP-RB-81.png,0.43,1.2,54,0.75,0,48,48,53,1,,,,,,,,,,,,,,,,,,,,,,,,,,,,,,,,,,,,,,,,
,,,,,V3_076,19,Female,2024-11-18_16h52.21.865,jersey_experiment_5_v3,2023.2.2,Win32,84.74576271,,,,,,,,,,,,,,,,453.5212,455.0737,455.0738,456.4031,return,0.0471,,48.046875,,,,,,FBP-PT-81.png,0.35,1.2,21,0.75,0,49,49,20,1,,,,,,,,,,,,,,,,,,,,,,,,,,,,,,,,,,,,,,,,
,,,,,V3_076,19,Female,2024-11-18_16h52.21.865,jersey_experiment_5_v3,2023.2.2,Win32,84.74576271,,,,,,,,,,,,,,,,456.4034,457.6974,457.6974,459.7683,return,0.1587,,56.640625,,,,,,FBP-OG-71.png,0.4,1.2,33,0.5,0,50,50,32,1,,,,,,,,,,,,,,,,,,,,,,,,,,,,,,,,,,,,,,,,
,,,,,V3_076,19,Female,2024-11-18_16h52.21.865,jersey_experiment_5_v3,2023.2.2,Win32,84.74576271,,,,,,,,,,,,,,,,459.7684,461.321,461.321,462.4977,return,0.1883,,60.41666667,,,,,,FBP-RB-81.png,0.35,1.2,51,0.75,0,51,51,50,1,,,,,,,,,,,,,,,,,,,,,,,,,,,,,,,,,,,,,,,,
,,,,,V3_076,19,Female,2024-11-18_16h52.21.865,jersey_experiment_5_v3,2023.2.2,Win32,84.74576271,,,,,,,,,,,,,,,,462.498,464.0507,464.0507,465.4038,return,0.1115,,99.34895833,,,,,,FBP-PT-71.png,0.45,1.2,20,0.75,0,52,52,19,1,,,,,,,,,,,,,,,,,,,,,,,,,,,,,,,,,,,,,,,,
,,,,,V3_076,19,Female,2024-11-18_16h52.21.865,jersey_experiment_5_v3,2023.2.2,Win32,84.74576271,,,,,,,,,,,,,,,,465.4041,466.6978,466.6979,467.933,return,0.1794,,95.18229167,,,,,,FBP-OG-91.png,0.43,1.2,44,0.5,0,53,53,43,1,,,,,,,,,,,,,,,,,,,,,,,,,,,,,,,,,,,,,,,,
,,,,,V3_076,19,Female,2024-11-18_16h52.21.865,jersey_experiment_5_v3,2023.2.2,Win32,84.74576271,,,,,,,,,,,,,,,,467.9333,469.4861,469.4862,471.8391,return,0.1512,,89.71354167,,,,,,FBP-RB-71.png,0.43,1.2,49,0.75,0,54,54,48,1,,,,,,,,,,,,,,,,,,,,,,,,,,,,,,,,,,,,,,,,
,,,,,V3_076,19,Female,2024-11-18_16h52.21.865,jersey_experiment_5_v3,2023.2.2,Win32,84.74576271,,,,,,,,,,,,,,,,471.8395,473.1333,473.1333,475.5333,return,0.0743,,56.77083333,,,,,,FBP-OG-71.png,0.37,1.2,32,0.5,0,55,55,31,1,,,,,,,,,,,,,,,,,,,,,,,,,,,,,,,,,,,,,,,,
,,,,,V3_076,19,Female,2024-11-18_16h52.21.865,jersey_experiment_5_v3,2023.2.2,Win32,84.74576271,,,,,,,,,,,,,,,,475.5337,477.0865,477.0866,478.4981,return,0.5407,,88.54166667,,,,,,FBP-RB-81.png,0.45,1.2,55,0.75,0,56,56,54,1,,,,,,,,,,,,,,,,,,,,,,,,,,,,,,,,,,,,,,,,
,,,,,V3_076,19,Female,2024-11-18_16h52.21.865,jersey_experiment_5_v3,2023.2.2,Win32,84.74576271,,,,,,,,,,,,,,,,478.4985,480.0511,480.0512,483.5221,return,0.0407,,60.15625,,,,,,FBP-PT-91.png,0.37,1.2,27,0.75,0,57,57,26,1,,,,,,,,,,,,,,,,,,,,,,,,,,,,,,,,,,,,,,,,
,,,,,V3_076,19,Female,2024-11-18_16h52.21.865,jersey_experiment_5_v3,2023.2.2,Win32,84.74576271,,,,,,,,,,,,,,,,483.5224,484.816,484.8161,485.8397,return,0.1429,,73.95833333,,,,,,FBP-OG-71.png,0.43,1.2,34,0.5,0,58,58,33,1,,,,,,,,,,,,,,,,,,,,,,,,,,,,,,,,,,,,,,,,
,,,,,V3_076,19,Female,2024-11-18_16h52.21.865,jersey_experiment_5_v3,2023.2.2,Win32,84.74576271,,,,,,,,,,,,,,,,485.8399,487.3926,487.3926,489.7926,return,0.0947,,49.609375,,,,,,FBP-PT-71.png,0.37,1.2,17,0.75,0,59,59,16,1,,,,,,,,,,,,,,,,,,,,,,,,,,,,,,,,,,,,,,,,
,,,,,V3_076,19,Female,2024-11-18_16h52.21.865,jersey_experiment_5_v3,2023.2.2,Win32,84.74576271,,,,,,,,,,,,,,,,,,,,,,,,,,,,,,,,,,,,,,,489.7928,609.7856,,,,,,,,,,,,,,,,,,,,,,,,,,,,,,,,,,,,,,
,,,,,V3_076,19,Female,2024-11-18_16h52.21.865,jersey_experiment_5_v3,2023.2.2,Win32,84.74576271,,,,,,,,,,,,,,,,,,,,,,,,,,,,,,,,,,,,,,,,,609.7856,625.1979,return,15.4027,,,,,,,,,,,,,,,,,,,,,,,,,,,,,,,,,,
,,,,,V3_076,19,Female,2024-11-18_16h52.21.865,jersey_experiment_5_v3,2023.2.2,Win32,84.74576271,,,,,,,,,,,,,,,,625.1992,626.7507,626.7508,634.5277,return,3.5311,,58.07291667,,,,,,FBP-OG-18.png,0.43,1.2,39,0.75,,,,,,,,,,,,,0,0,0,38,1,,,,,,,,,,,,,,,,,,,,,,,,,,,,
,,,,,V3_076,19,Female,2024-11-18_16h52.21.865,jersey_experiment_5_v3,2023.2.2,Win32,84.74576271,,,,,,,,,,,,,,,,634.528,635.8219,635.822,638.1866,return,0.1941,,39.71354167,,,,,,FBP-YG-71.png,0.35,1.2,1,0.5,,,,,,,,,,,,,0,1,1,0,1,,,,,,,,,,,,,,,,,,,,,,,,,,,,
,,,,,V3_076,19,Female,2024-11-18_16h52.21.865,jersey_experiment_5_v3,2023.2.2,Win32,84.74576271,,,,,,,,,,,,,,,,638.1869,639.4807,639.4807,640.7867,return,0.0707,,36.84895833,,,,,,FBP-YG-81.png,0.35,1.2,6,0.5,,,,,,,,,,,,,0,2,2,5,1,,,,,,,,,,,,,,,,,,,,,,,,,,,,
,,,,,V3_076,19,Female,2024-11-18_16h52.21.865,jersey_experiment_5_v3,2023.2.2,Win32,84.74576271,,,,,,,,,,,,,,,,640.7869,642.0808,642.0808,643.375,return,0.1669,,88.54166667,,,,,,FBP-YG-91.png,0.43,1.2,14,0.5,,,,,,,,,,,,,0,3,3,13,1,,,,,,,,,,,,,,,,,,,,,,,,,,,,
,,,,,V3_076,19,Female,2024-11-18_16h52.21.865,jersey_experiment_5_v3,2023.2.2,Win32,84.74576271,,,,,,,,,,,,,,,,643.3752,644.928,644.928,645.5045,return,0.1075,,88.41145833,,,,,,FBP-OG-18.png,0.45,1.2,40,0.75,,,,,,,,,,,,,0,4,4,39,1,,,,,,,,,,,,,,,,,,,,,,,,,,,,
,,,,,V3_076,19,Female,2024-11-18_16h52.21.865,jersey_experiment_5_v3,2023.2.2,Win32,84.74576271,,,,,,,,,,,,,,,,645.5048,646.7986,646.7987,649.1635,return,0.2412,,74.08854167,,,,,,FBP-YG-91.png,0.4,1.2,13,0.5,,,,,,,,,,,,,0,5,5,12,1,,,,,,,,,,,,,,,,,,,,,,,,,,,,
,,,,,V3_076,19,Female,2024-11-18_16h52.21.865,jersey_experiment_5_v3,2023.2.2,Win32,84.74576271,,,,,,,,,,,,,,,,649.1637,650.7164,650.7164,653.2459,return,0.2586,,40.10416667,,,,,,FBP-OG-18.png,0.37,1.2,37,0.75,,,,,,,,,,,,,0,6,6,36,1,,,,,,,,,,,,,,,,,,,,,,,,,,,,
,,,,,V3_076,19,Female,2024-11-18_16h52.21.865,jersey_experiment_5_v3,2023.2.2,Win32,84.74576271,,,,,,,,,,,,,,,,653.2461,654.5402,654.5402,655.2459,return,0.1204,,40.234375,,,,,,FBP-PT-19.png,0.37,1.2,27,0.5,,,,,,,,,,,,,0,7,7,26,1,,,,,,,,,,,,,,,,,,,,,,,,,,,,
,,,,,V3_076,19,Female,2024-11-18_16h52.21.865,jersey_experiment_5_v3,2023.2.2,Win32,84.74576271,,,,,,,,,,,,,,,,655.2462,656.5402,656.5403,658.0931,return,0.2047,,90.625,,,,,,FBP-YG-81.png,0.43,1.2,9,0.5,,,,,,,,,,,,,0,8,8,8,1,,,,,,,,,,,,,,,,,,,,,,,,,,,,
,,,,,V3_076,19,Female,2024-11-18_16h52.21.865,jersey_experiment_5_v3,2023.2.2,Win32,84.74576271,,,,,,,,,,,,,,,,658.0934,659.3873,659.3874,660.764,return,0.0996,,72.91666667,,,,,,FBP-PT-17.png,0.4,1.2,18,0.5,,,,,,,,,,,,,0,9,9,17,1,,,,,,,,,,,,,,,,,,,,,,,,,,,,
,,,,,V3_076,19,Female,2024-11-18_16h52.21.865,jersey_experiment_5_v3,2023.2.2,Win32,84.74576271,,,,,,,,,,,,,,,,660.7643,662.317,662.317,663.0109,return,0.1662,,88.671875,,,,,,FBP-OG-17.png,0.45,1.2,35,0.75,,,,,,,,,,,,,0,10,10,34,1,,,,,,,,,,,,,,,,,,,,,,,,,,,,
,,,,,V3_076,19,Female,2024-11-18_16h52.21.865,jersey_experiment_5_v3,2023.2.2,Win32,84.74576271,,,,,,,,,,,,,,,,663.0112,664.3052,664.3053,665.5876,return,0.0475,,84.375,,,,,,FBP-PT-18.png,0.43,1.2,24,0.5,,,,,,,,,,,,,0,11,11,23,1,,,,,,,,,,,,,,,,,,,,,,,,,,,,
,,,,,V3_076,19,Female,2024-11-18_16h52.21.865,jersey_experiment_5_v3,2023.2.2,Win32,84.74576271,,,,,,,,,,,,,,,,665.5879,666.8818,666.8819,668.3171,return,0.132,,49.86979167,,,,,,FBP-RB-17.png,0.37,1.2,47,0.5,,,,,,,,,,,,,0,12,12,46,1,,,,,,,,,,,,,,,,,,,,,,,,,,,,
,,,,,V3_076,19,Female,2024-11-18_16h52.21.865,jersey_experiment_5_v3,2023.2.2,Win32,84.74576271,,,,,,,,,,,,,,,,668.3174,669.6113,669.6113,671.1879,return,0.2124,,85.41666667,,,,,,FBP-YG-91.png,0.45,1.2,15,0.5,,,,,,,,,,,,,0,13,13,14,1,,,,,,,,,,,,,,,,,,,,,,,,,,,,
,,,,,V3_076,19,Female,2024-11-18_16h52.21.865,jersey_experiment_5_v3,2023.2.2,Win32,84.74576271,,,,,,,,,,,,,,,,671.1883,672.4823,672.4824,673.3761,return,0.2131,,78.77604167,,,,,,FBP-YG-71.png,0.43,1.2,4,0.5,,,,,,,,,,,,,0,14,14,3,1,,,,,,,,,,,,,,,,,,,,,,,,,,,,
,,,,,V3_076,19,Female,2024-11-18_16h52.21.865,jersey_experiment_5_v3,2023.2.2,Win32,84.74576271,,,,,,,,,,,,,,,,673.3763,674.6703,674.6703,675.7056,return,0.395,,78.77604167,,,,,,FBP-RB-19.png,0.4,1.2,58,0.5,,,,,,,,,,,,,0,15,15,57,1,,,,,,,,,,,,,,,,,,,,,,,,,,,,
,,,,,V3_076,19,Female,2024-11-18_16h52.21.865,jersey_experiment_5_v3,2023.2.2,Win32,84.74576271,,,,,,,,,,,,,,,,675.7057,676.9999,676.9999,678.0822,return,0.1416,,84.89583333,,,,,,FBP-RB-17.png,0.45,1.2,50,0.5,,,,,,,,,,,,,0,16,16,49,1,,,,,,,,,,,,,,,,,,,,,,,,,,,,
,,,,,V3_076,19,Female,2024-11-18_16h52.21.865,jersey_experiment_5_v3,2023.2.2,Win32,84.74576271,,,,,,,,,,,,,,,,678.0825,679.3764,679.3765,681.553,return,0.1786,,95.57291667,,,,,,FBP-RB-18.png,0.45,1.2,55,0.5,,,,,,,,,,,,,0,17,17,54,1,,,,,,,,,,,,,,,,,,,,,,,,,,,,
,,,,,V3_076,19,Female,2024-11-18_16h52.21.865,jersey_experiment_5_v3,2023.2.2,Win32,84.74576271,,,,,,,,,,,,,,,,681.5533,682.847,682.8471,683.5061,return,0.1187,,96.09375,,,,,,FBP-PT-18.png,0.45,1.2,25,0.5,,,,,,,,,,,,,0,18,18,24,1,,,,,,,,,,,,,,,,,,,,,,,,,,,,
,,,,,V3_076,19,Female,2024-11-18_16h52.21.865,jersey_experiment_5_v3,2023.2.2,Win32,84.74576271,,,,,,,,,,,,,,,,683.5063,685.059,685.0591,686.0824,return,0.1177,,82.29166667,,,,,,FBP-OG-19.png,0.43,1.2,44,0.75,,,,,,,,,,,,,0,19,19,43,1,,,,,,,,,,,,,,,,,,,,,,,,,,,,
,,,,,V3_076,19,Female,2024-11-18_16h52.21.865,jersey_experiment_5_v3,2023.2.2,Win32,84.74576271,,,,,,,,,,,,,,,,686.0827,687.6355,687.6355,688.5885,return,0.1108,,92.83854167,,,,,,FBP-OG-19.png,0.45,1.2,45,0.75,,,,,,,,,,,,,0,20,20,44,1,,,,,,,,,,,,,,,,,,,,,,,,,,,,
,,,,,V3_076,19,Female,2024-11-18_16h52.21.865,jersey_experiment_5_v3,2023.2.2,Win32,84.74576271,,,,,,,,,,,,,,,,688.5888,689.8825,689.8826,690.8591,return,0.2181,,93.09895833,,,,,,FBP-RB-18.png,0.37,1.2,52,0.5,,,,,,,,,,,,,0,21,21,51,1,,,,,,,,,,,,,,,,,,,,,,,,,,,,
,,,,,V3_076,19,Female,2024-11-18_16h52.21.865,jersey_experiment_5_v3,2023.2.2,Win32,84.74576271,,,,,,,,,,,,,,,,690.8593,692.1532,692.1534,693.5536,return,0.0605,,49.21875,,,,,,FBP-RB-18.png,0.35,1.2,51,0.5,,,,,,,,,,,,,0,22,22,50,1,,,,,,,,,,,,,,,,,,,,,,,,,,,,
,,,,,V3_076,19,Female,2024-11-18_16h52.21.865,jersey_experiment_5_v3,2023.2.2,Win32,84.74576271,,,,,,,,,,,,,,,,693.5539,694.8475,694.8475,696.1887,return,0.2752,,73.17708333,,,,,,FBP-RB-18.png,0.4,1.2,53,0.5,,,,,,,,,,,,,0,23,23,52,1,,,,,,,,,,,,,,,,,,,,,,,,,,,,
,,,,,V3_076,19,Female,2024-11-18_16h52.21.865,jersey_experiment_5_v3,2023.2.2,Win32,84.74576271,,,,,,,,,,,,,,,,696.1889,697.4829,697.483,699.1535,return,0.1076,,73.17708333,,,,,,FBP-PT-18.png,0.35,1.2,21,0.5,,,,,,,,,,,,,0,24,24,20,1,,,,,,,,,,,,,,,,,,,,,,,,,,,,
,,,,,V3_076,19,Female,2024-11-18_16h52.21.865,jersey_experiment_5_v3,2023.2.2,Win32,84.74576271,,,,,,,,,,,,,,,,699.1538,700.4478,700.4479,701.7537,return,0.1489,,57.55208333,,,,,,FBP-RB-19.png,0.37,1.2,57,0.5,,,,,,,,,,,,,0,25,25,56,1,,,,,,,,,,,,,,,,,,,,,,,,,,,,
,,,,,V3_076,19,Female,2024-11-18_16h52.21.865,jersey_experiment_5_v3,2023.2.2,Win32,84.74576271,,,,,,,,,,,,,,,,701.754,703.2952,703.2952,703.9539,return,0.0238,,68.09895833,,,,,,FBP-OG-18.png,0.4,1.2,38,0.75,,,,,,,,,,,,,0,26,26,37,1,,,,,,,,,,,,,,,,,,,,,,,,,,,,
,,,,,V3_076,19,Female,2024-11-18_16h52.21.865,jersey_experiment_5_v3,2023.2.2,Win32,84.74576271,,,,,,,,,,,,,,,,703.9542,705.248,705.248,707.1186,return,0.7791,,36.19791667,,,,,,FBP-PT-19.png,0.35,1.2,26,0.5,,,,,,,,,,,,,0,27,27,25,1,,,,,,,,,,,,,,,,,,,,,,,,,,,,
,,,,,V3_076,19,Female,2024-11-18_16h52.21.865,jersey_experiment_5_v3,2023.2.2,Win32,84.74576271,,,,,,,,,,,,,,,,707.1188,708.4127,708.4128,709.7775,return,0.1883,,47.78645833,,,,,,FBP-PT-18.png,0.37,1.2,22,0.5,,,,,,,,,,,,,0,28,28,21,1,,,,,,,,,,,,,,,,,,,,,,,,,,,,
,,,,,V3_076,19,Female,2024-11-18_16h52.21.865,jersey_experiment_5_v3,2023.2.2,Win32,84.74576271,,,,,,,,,,,,,,,,709.7777,711.0716,711.0717,712.8015,return,0.3194,,62.23958333,,,,,,FBP-RB-17.png,0.4,1.2,48,0.5,,,,,,,,,,,,,0,29,29,47,1,,,,,,,,,,,,,,,,,,,,,,,,,,,,
,,,,,V3_076,19,Female,2024-11-18_16h52.21.865,jersey_experiment_5_v3,2023.2.2,Win32,84.74576271,,,,,,,,,,,,,,,,712.8017,714.0953,714.0954,716.5779,return,1.1532,,79.55729167,,,,,,FBP-PT-19.png,0.45,1.2,30,0.5,,,,,,,,,,,,,0,30,30,29,1,,,,,,,,,,,,,,,,,,,,,,,,,,,,
,,,,,V3_076,19,Female,2024-11-18_16h52.21.865,jersey_experiment_5_v3,2023.2.2,Win32,84.74576271,,,,,,,,,,,,,,,,716.5783,717.8719,717.8719,719.2839,return,0.0343,,59.765625,,,,,,FBP-YG-81.png,0.4,1.2,8,0.5,,,,,,,,,,,,,0,31,31,7,1,,,,,,,,,,,,,,,,,,,,,,,,,,,,
,,,,,V3_076,19,Female,2024-11-18_16h52.21.865,jersey_experiment_5_v3,2023.2.2,Win32,84.74576271,,,,,,,,,,,,,,,,719.2841,720.5779,720.578,721.225,return,0.1611,,62.109375,,,,,,FBP-YG-71.png,0.4,1.2,3,0.5,,,,,,,,,,,,,0,32,32,2,1,,,,,,,,,,,,,,,,,,,,,,,,,,,,
,,,,,V3_076,19,Female,2024-11-18_16h52.21.865,jersey_experiment_5_v3,2023.2.2,Win32,84.74576271,,,,,,,,,,,,,,,,721.2252,722.5192,722.5192,723.6486,return,0.0368,,49.47916667,,,,,,FBP-YG-91.png,0.37,1.2,12,0.5,,,,,,,,,,,,,0,33,33,11,1,,,,,,,,,,,,,,,,,,,,,,,,,,,,
,,,,,V3_076,19,Female,2024-11-18_16h52.21.865,jersey_experiment_5_v3,2023.2.2,Win32,84.74576271,,,,,,,,,,,,,,,,723.6489,725.2015,725.2015,727.3546,return,1.2068,,49.47916667,,,,,,FBP-OG-18.png,0.35,1.2,36,0.75,,,,,,,,,,,,,0,34,34,35,1,,,,,,,,,,,,,,,,,,,,,,,,,,,,
,,,,,V3_076,19,Female,2024-11-18_16h52.21.865,jersey_experiment_5_v3,2023.2.2,Win32,84.74576271,,,,,,,,,,,,,,,,727.3549,728.9076,728.9077,729.837,return,0.1102,,54.16666667,,,,,,FBP-OG-17.png,0.4,1.2,33,0.75,,,,,,,,,,,,,0,35,35,32,1,,,,,,,,,,,,,,,,,,,,,,,,,,,,
,,,,,V3_076,19,Female,2024-11-18_16h52.21.865,jersey_experiment_5_v3,2023.2.2,Win32,84.74576271,,,,,,,,,,,,,,,,729.8373,731.1313,731.1313,732.849,return,0.0593,,83.07291667,,,,,,FBP-PT-17.png,0.43,1.2,19,0.5,,,,,,,,,,,,,0,36,36,18,1,,,,,,,,,,,,,,,,,,,,,,,,,,,,
,,,,,V3_076,19,Female,2024-11-18_16h52.21.865,jersey_experiment_5_v3,2023.2.2,Win32,84.74576271,,,,,,,,,,,,,,,,732.8493,734.143,734.1431,735.555,return,0.0953,,45.05208333,,,,,,FBP-RB-19.png,0.35,1.2,56,0.5,,,,,,,,,,,,,0,37,37,55,1,,,,,,,,,,,,,,,,,,,,,,,,,,,,
,,,,,V3_076,19,Female,2024-11-18_16h52.21.865,jersey_experiment_5_v3,2023.2.2,Win32,84.74576271,,,,,,,,,,,,,,,,735.5553,737.1082,737.1082,738.3081,return,0.6489,,58.46354167,,,,,,FBP-OG-19.png,0.4,1.2,43,0.75,,,,,,,,,,,,,0,38,38,42,1,,,,,,,,,,,,,,,,,,,,,,,,,,,,
,,,,,V3_076,19,Female,2024-11-18_16h52.21.865,jersey_experiment_5_v3,2023.2.2,Win32,84.74576271,,,,,,,,,,,,,,,,738.3085,739.8612,739.8613,740.7316,return,0.1446,,77.08333333,,,,,,FBP-OG-17.png,0.43,1.2,34,0.75,,,,,,,,,,,,,0,39,39,33,1,,,,,,,,,,,,,,,,,,,,,,,,,,,,
,,,,,V3_076,19,Female,2024-11-18_16h52.21.865,jersey_experiment_5_v3,2023.2.2,Win32,84.74576271,,,,,,,,,,,,,,,,740.732,742.0257,742.0258,742.7318,return,0.0516,,79.55729167,,,,,,FBP-RB-18.png,0.43,1.2,54,0.5,,,,,,,,,,,,,0,40,40,53,1,,,,,,,,,,,,,,,,,,,,,,,,,,,,
,,,,,V3_076,19,Female,2024-11-18_16h52.21.865,jersey_experiment_5_v3,2023.2.2,Win32,84.74576271,,,,,,,,,,,,,,,,742.732,744.0261,744.0261,744.7789,return,0.1239,,80.20833333,,,,,,FBP-RB-17.png,0.43,1.2,49,0.5,,,,,,,,,,,,,0,41,41,48,1,,,,,,,,,,,,,,,,,,,,,,,,,,,,
,,,,,V3_076,19,Female,2024-11-18_16h52.21.865,jersey_experiment_5_v3,2023.2.2,Win32,84.74576271,,,,,,,,,,,,,,,,744.7791,746.073,746.073,747.4496,return,0.2432,,90.49479167,,,,,,FBP-YG-71.png,0.45,1.2,5,0.5,,,,,,,,,,,,,0,42,42,4,1,,,,,,,,,,,,,,,,,,,,,,,,,,,,
,,,,,V3_076,19,Female,2024-11-18_16h52.21.865,jersey_experiment_5_v3,2023.2.2,Win32,84.74576271,,,,,,,,,,,,,,,,747.4498,748.7437,748.7438,750.2026,return,0.1245,,49.21875,,,,,,FBP-YG-71.png,0.37,1.2,2,0.5,,,,,,,,,,,,,0,43,43,1,1,,,,,,,,,,,,,,,,,,,,,,,,,,,,
,,,,,V3_076,19,Female,2024-11-18_16h52.21.865,jersey_experiment_5_v3,2023.2.2,Win32,84.74576271,,,,,,,,,,,,,,,,750.2028,751.4968,751.4969,760.0147,return,1.6263,,57.8125,,,,,,FBP-PT-17.png,0.37,1.2,17,0.5,,,,,,,,,,,,,0,44,44,16,1,,,,,,,,,,,,,,,,,,,,,,,,,,,,
,,,,,V3_076,19,Female,2024-11-18_16h52.21.865,jersey_experiment_5_v3,2023.2.2,Win32,84.74576271,,,,,,,,,,,,,,,,760.015,761.3089,761.3089,762.462,return,0.0742,,76.04166667,,,,,,FBP-PT-19.png,0.4,1.2,28,0.5,,,,,,,,,,,,,0,45,45,27,1,,,,,,,,,,,,,,,,,,,,,,,,,,,,
,,,,,V3_076,19,Female,2024-11-18_16h52.21.865,jersey_experiment_5_v3,2023.2.2,Win32,84.74576271,,,,,,,,,,,,,,,,762.4622,763.756,763.7561,765.1326,return,0.0164,,49.08854167,,,,,,FBP-YG-81.png,0.37,1.2,7,0.5,,,,,,,,,,,,,0,46,46,6,1,,,,,,,,,,,,,,,,,,,,,,,,,,,,
,,,,,V3_076,19,Female,2024-11-18_16h52.21.865,jersey_experiment_5_v3,2023.2.2,Win32,84.74576271,,,,,,,,,,,,,,,,765.1329,766.4267,766.4268,767.9798,return,0.0731,,42.05729167,,,,,,FBP-PT-17.png,0.35,1.2,16,0.5,,,,,,,,,,,,,0,47,47,15,1,,,,,,,,,,,,,,,,,,,,,,,,,,,,
,,,,,V3_076,19,Female,2024-11-18_16h52.21.865,jersey_experiment_5_v3,2023.2.2,Win32,84.74576271,,,,,,,,,,,,,,,,767.9801,769.2738,769.2739,769.9444,return,0.056,,41.796875,,,,,,FBP-RB-17.png,0.35,1.2,46,0.5,,,,,,,,,,,,,0,48,48,45,1,,,,,,,,,,,,,,,,,,,,,,,,,,,,
,,,,,V3_076,19,Female,2024-11-18_16h52.21.865,jersey_experiment_5_v3,2023.2.2,Win32,84.74576271,,,,,,,,,,,,,,,,769.9447,771.2385,771.2386,773.2742,return,0.6172,,99.609375,,,,,,FBP-PT-19.png,0.43,1.2,29,0.5,,,,,,,,,,,,,0,49,49,28,1,,,,,,,,,,,,,,,,,,,,,,,,,,,,
,,,,,V3_076,19,Female,2024-11-18_16h52.21.865,jersey_experiment_5_v3,2023.2.2,Win32,84.74576271,,,,,,,,,,,,,,,,773.2743,774.8273,774.8273,776.0978,return,0.0369,,69.27083333,,,,,,FBP-OG-19.png,0.37,1.2,42,0.75,,,,,,,,,,,,,0,50,50,41,1,,,,,,,,,,,,,,,,,,,,,,,,,,,,
,,,,,V3_076,19,Female,2024-11-18_16h52.21.865,jersey_experiment_5_v3,2023.2.2,Win32,84.74576271,,,,,,,,,,,,,,,,776.0981,777.3918,777.3919,778.2506,return,0.2185,,64.58333333,,,,,,FBP-YG-91.png,0.35,1.2,11,0.5,,,,,,,,,,,,,0,51,51,10,1,,,,,,,,,,,,,,,,,,,,,,,,,,,,
,,,,,V3_076,19,Female,2024-11-18_16h52.21.865,jersey_experiment_5_v3,2023.2.2,Win32,84.74576271,,,,,,,,,,,,,,,,778.2508,779.5449,779.5449,781.0743,return,0.1994,,99.08854167,,,,,,FBP-RB-19.png,0.45,1.2,60,0.5,,,,,,,,,,,,,0,52,52,59,1,,,,,,,,,,,,,,,,,,,,,,,,,,,,
,,,,,V3_076,19,Female,2024-11-18_16h52.21.865,jersey_experiment_5_v3,2023.2.2,Win32,84.74576271,,,,,,,,,,,,,,,,781.0746,782.6274,782.6275,789.2157,return,0.5429,,31.640625,,,,,,FBP-OG-17.png,0.35,1.2,31,0.75,,,,,,,,,,,,,0,53,53,30,1,,,,,,,,,,,,,,,,,,,,,,,,,,,,
,,,,,V3_076,19,Female,2024-11-18_16h52.21.865,jersey_experiment_5_v3,2023.2.2,Win32,84.74576271,,,,,,,,,,,,,,,,789.216,790.5101,790.5101,793.569,return,0.0004,,32.16145833,,,,,,FBP-YG-81.png,0.45,1.2,10,0.5,,,,,,,,,,,,,0,54,54,9,1,,,,,,,,,,,,,,,,,,,,,,,,,,,,
,,,,,V3_076,19,Female,2024-11-18_16h52.21.865,jersey_experiment_5_v3,2023.2.2,Win32,84.74576271,,,,,,,,,,,,,,,,793.5692,795.122,795.122,796.4161,return,0.2134,,45.83333333,,,,,,FBP-OG-19.png,0.35,1.2,41,0.75,,,,,,,,,,,,,0,55,55,40,1,,,,,,,,,,,,,,,,,,,,,,,,,,,,
,,,,,V3_076,19,Female,2024-11-18_16h52.21.865,jersey_experiment_5_v3,2023.2.2,Win32,84.74576271,,,,,,,,,,,,,,,,796.4163,797.969,797.9691,799.0279,return,0.3409,,44.27083333,,,,,,FBP-OG-17.png,0.37,1.2,32,0.75,,,,,,,,,,,,,0,56,56,31,1,,,,,,,,,,,,,,,,,,,,,,,,,,,,
,,,,,V3_076,19,Female,2024-11-18_16h52.21.865,jersey_experiment_5_v3,2023.2.2,Win32,84.74576271,,,,,,,,,,,,,,,,799.0282,800.3221,800.3222,802.4635,return,0.7885,,99.34895833,,,,,,FBP-RB-19.png,0.43,1.2,59,0.5,,,,,,,,,,,,,0,57,57,58,1,,,,,,,,,,,,,,,,,,,,,,,,,,,,
,,,,,V3_076,19,Female,2024-11-18_16h52.21.865,jersey_experiment_5_v3,2023.2.2,Win32,84.74576271,,,,,,,,,,,,,,,,802.4637,803.7575,803.7575,805.2282,return,0.2053,,91.66666667,,,,,,FBP-PT-18.png,0.4,1.2,23,0.5,,,,,,,,,,,,,0,58,58,22,1,,,,,,,,,,,,,,,,,,,,,,,,,,,,
,,,,,V3_076,19,Female,2024-11-18_16h52.21.865,jersey_experiment_5_v3,2023.2.2,Win32,84.74576271,,,,,,,,,,,,,,,,805.2284,806.5224,806.5225,813.5346,return,5.0268,,91.66666667,,,,,,FBP-PT-17.png,0.45,1.2,20,0.5,,,,,,,,,,,,,0,59,59,19,1,,,,,,,,,,,,,,,,,,,,,,,,,,,,
,,,,,V3_076,19,Female,2024-11-18_16h52.21.865,jersey_experiment_5_v3,2023.2.2,Win32,84.74576271,,,,,,,,,,,,,,,,813.5361,815.0873,815.0874,874.3485,return,57.9708,,99.08854167,,,,,,FBP-OG-81.png,0.45,1.2,40,0.75,,,,,,,,,,,,,,,,,,0,0,0,39,1,,,,,,,,,,,,,,,,,,,,,,,
,,,,,V3_076,19,Female,2024-11-18_16h52.21.865,jersey_experiment_5_v3,2023.2.2,Win32,84.74576271,,,,,,,,,,,,,,,,874.3488,875.6427,875.6428,878.6074,return,0.4833,,53.25520833,,,,,,FBP-PT-71.png,0.4,1.2,18,0.5,,,,,,,,,,,,,,,,,,0,1,1,17,1,,,,,,,,,,,,,,,,,,,,,,,
,,,,,V3_076,19,Female,2024-11-18_16h52.21.865,jersey_experiment_5_v3,2023.2.2,Win32,84.74576271,,,,,,,,,,,,,,,,878.6077,879.9016,879.9017,881.0665,return,0.0996,,76.69270833,,,,,,FBP-PT-81.png,0.43,1.2,24,0.5,,,,,,,,,,,,,,,,,,0,2,2,23,1,,,,,,,,,,,,,,,,,,,,,,,
,,,,,V3_076,19,Female,2024-11-18_16h52.21.865,jersey_experiment_5_v3,2023.2.2,Win32,84.74576271,,,,,,,,,,,,,,,,881.0668,882.3605,882.3606,883.4429,return,0.0709,,49.08854167,,,,,,FBP-RB-71.png,0.35,1.2,46,0.5,,,,,,,,,,,,,,,,,,0,3,3,45,1,,,,,,,,,,,,,,,,,,,,,,,
,,,,,V3_076,19,Female,2024-11-18_16h52.21.865,jersey_experiment_5_v3,2023.2.2,Win32,84.74576271,,,,,,,,,,,,,,,,883.4432,884.737,884.7371,885.7607,return,0.1653,,97.91666667,,,,,,FBP-YG-17.png,0.45,1.2,5,0.5,,,,,,,,,,,,,,,,,,0,4,4,4,1,,,,,,,,,,,,,,,,,,,,,,,
,,,,,V3_076,19,Female,2024-11-18_16h52.21.865,jersey_experiment_5_v3,2023.2.2,Win32,84.74576271,,,,,,,,,,,,,,,,885.761,887.3136,887.3137,888.749,return,0.4749,,90.625,,,,,,FBP-OG-91.png,0.43,1.2,44,0.75,,,,,,,,,,,,,,,,,,0,5,5,43,1,,,,,,,,,,,,,,,,,,,,,,,
,,,,,V3_076,19,Female,2024-11-18_16h52.21.865,jersey_experiment_5_v3,2023.2.2,Win32,84.74576271,,,,,,,,,,,,,,,,888.7494,890.0433,890.0435,892.8905,return,1.677,,91.14583333,,,,,,FBP-RB-81.png,0.4,1.2,53,0.5,,,,,,,,,,,,,,,,,,0,6,6,52,1,,,,,,,,,,,,,,,,,,,,,,,
,,,,,V3_076,19,Female,2024-11-18_16h52.21.865,jersey_experiment_5_v3,2023.2.2,Win32,84.74576271,,,,,,,,,,,,,,,,892.8909,894.4433,894.4433,895.408,return,0.237,,93.359375,,,,,,FBP-OG-91.png,0.45,1.2,45,0.75,,,,,,,,,,,,,,,,,,0,7,7,44,1,,,,,,,,,,,,,,,,,,,,,,,
,,,,,V3_076,19,Female,2024-11-18_16h52.21.865,jersey_experiment_5_v3,2023.2.2,Win32,84.74576271,,,,,,,,,,,,,,,,895.4084,896.7022,896.7023,898.467,return,0.2701,,62.76041667,,,,,,FBP-RB-71.png,0.4,1.2,48,0.5,,,,,,,,,,,,,,,,,,0,8,8,47,1,,,,,,,,,,,,,,,,,,,,,,,
,,,,,V3_076,19,Female,2024-11-18_16h52.21.865,jersey_experiment_5_v3,2023.2.2,Win32,84.74576271,,,,,,,,,,,,,,,,898.4673,899.7612,899.7613,953.2102,return,52.1862,,36.71875,,,,,,FBP-YG-17.png,0.35,1.2,1,0.5,,,,,,,,,,,,,,,,,,0,9,9,0,1,,,,,,,,,,,,,,,,,,,,,,,
,,,,,V3_076,19,Female,2024-11-18_16h52.21.865,jersey_experiment_5_v3,2023.2.2,Win32,84.74576271,,,,,,,,,,,,,,,,953.2104,954.7635,954.7636,955.9869,return,0.0689,,99.609375,,,,,,FBP-OG-71.png,0.45,1.2,35,0.75,,,,,,,,,,,,,,,,,,0,10,10,34,1,,,,,,,,,,,,,,,,,,,,,,,
,,,,,V3_076,19,Female,2024-11-18_16h52.21.865,jersey_experiment_5_v3,2023.2.2,Win32,84.74576271,,,,,,,,,,,,,,,,955.9872,957.281,957.2811,958.2105,return,0.1413,,89.71354167,,,,,,FBP-RB-81.png,0.43,1.2,54,0.5,,,,,,,,,,,,,,,,,,0,11,11,53,1,,,,,,,,,,,,,,,,,,,,,,,
,,,,,V3_076,19,Female,2024-11-18_16h52.21.865,jersey_experiment_5_v3,2023.2.2,Win32,84.74576271,,,,,,,,,,,,,,,,958.2108,959.5047,959.5048,960.7047,return,0.0714,,44.27083333,,,,,,FBP-PT-91.png,0.35,1.2,26,0.5,,,,,,,,,,,,,,,,,,0,12,12,25,1,,,,,,,,,,,,,,,,,,,,,,,
,,,,,V3_076,19,Female,2024-11-18_16h52.21.865,jersey_experiment_5_v3,2023.2.2,Win32,84.74576271,,,,,,,,,,,,,,,,960.705,962.2577,962.2577,963.293,return,0.1222,,34.765625,,,,,,FBP-OG-81.png,0.35,1.2,36,0.75,,,,,,,,,,,,,,,,,,0,13,13,35,1,,,,,,,,,,,,,,,,,,,,,,,
,,,,,V3_076,19,Female,2024-11-18_16h52.21.865,jersey_experiment_5_v3,2023.2.2,Win32,84.74576271,,,,,,,,,,,,,,,,963.2933,964.5874,964.5874,966.9404,return,0.0523,,33.984375,,,,,,FBP-YG-19.png,0.45,1.2,15,0.5,,,,,,,,,,,,,,,,,,0,14,14,14,1,,,,,,,,,,,,,,,,,,,,,,,
,,,,,V3_076,19,Female,2024-11-18_16h52.21.865,jersey_experiment_5_v3,2023.2.2,Win32,84.74576271,,,,,,,,,,,,,,,,966.9406,968.2344,968.2344,969.5051,return,0.1888,,48.95833333,,,,,,FBP-RB-71.png,0.37,1.2,47,0.5,,,,,,,,,,,,,,,,,,0,15,15,46,1,,,,,,,,,,,,,,,,,,,,,,,
,,,,,V3_076,19,Female,2024-11-18_16h52.21.865,jersey_experiment_5_v3,2023.2.2,Win32,84.74576271,,,,,,,,,,,,,,,,969.5054,970.7992,970.7992,971.6934,return,0.1692,,56.90104167,,,,,,FBP-RB-81.png,0.37,1.2,52,0.5,,,,,,,,,,,,,,,,,,0,16,16,51,1,,,,,,,,,,,,,,,,,,,,,,,
,,,,,V3_076,19,Female,2024-11-18_16h52.21.865,jersey_experiment_5_v3,2023.2.2,Win32,84.74576271,,,,,,,,,,,,,,,,971.6937,972.9876,972.9877,974.7171,return,0.8505,,86.45833333,,,,,,FBP-YG-19.png,0.43,1.2,14,0.5,,,,,,,,,,,,,,,,,,0,17,17,13,1,,,,,,,,,,,,,,,,,,,,,,,
,,,,,V3_076,19,Female,2024-11-18_16h52.21.865,jersey_experiment_5_v3,2023.2.2,Win32,84.74576271,,,,,,,,,,,,,,,,974.7173,976.0112,976.0112,977.1993,return,0.0827,,74.609375,,,,,,FBP-PT-81.png,0.37,1.2,22,0.5,,,,,,,,,,,,,,,,,,0,18,18,21,1,,,,,,,,,,,,,,,,,,,,,,,
,,,,,V3_076,19,Female,2024-11-18_16h52.21.865,jersey_experiment_5_v3,2023.2.2,Win32,84.74576271,,,,,,,,,,,,,,,,977.1996,978.4935,978.4936,981.1879,return,0.024,,44.921875,,,,,,FBP-YG-19.png,0.37,1.2,12,0.5,,,,,,,,,,,,,,,,,,0,19,19,11,1,,,,,,,,,,,,,,,,,,,,,,,
,,,,,V3_076,19,Female,2024-11-18_16h52.21.865,jersey_experiment_5_v3,2023.2.2,Win32,84.74576271,,,,,,,,,,,,,,,,981.1881,982.482,982.4821,984.0114,return,0.169,,49.609375,,,,,,FBP-PT-71.png,0.35,1.2,16,0.5,,,,,,,,,,,,,,,,,,0,20,20,15,1,,,,,,,,,,,,,,,,,,,,,,,
,,,,,V3_076,19,Female,2024-11-18_16h52.21.865,jersey_experiment_5_v3,2023.2.2,Win32,84.74576271,,,,,,,,,,,,,,,,984.0117,985.3055,985.3056,986.5762,return,0.0722,,47.78645833,,,,,,FBP-RB-81.png,0.35,1.2,51,0.5,,,,,,,,,,,,,,,,,,0,21,21,50,1,,,,,,,,,,,,,,,,,,,,,,,
,,,,,V3_076,19,Female,2024-11-18_16h52.21.865,jersey_experiment_5_v3,2023.2.2,Win32,84.74576271,,,,,,,,,,,,,,,,986.5765,987.8705,987.8705,989.294,return,0.1685,,83.33333333,,,,,,FBP-RB-71.png,0.43,1.2,49,0.5,,,,,,,,,,,,,,,,,,0,22,22,48,1,,,,,,,,,,,,,,,,,,,,,,,
,,,,,V3_076,19,Female,2024-11-18_16h52.21.865,jersey_experiment_5_v3,2023.2.2,Win32,84.74576271,,,,,,,,,,,,,,,,989.2942,990.5881,990.5882,991.1648,return,0.1448,,82.421875,,,,,,FBP-YG-17.png,0.4,1.2,3,0.5,,,,,,,,,,,,,,,,,,0,23,23,2,1,,,,,,,,,,,,,,,,,,,,,,,
,,,,,V3_076,19,Female,2024-11-18_16h52.21.865,jersey_experiment_5_v3,2023.2.2,Win32,84.74576271,,,,,,,,,,,,,,,,991.165,992.4588,992.4589,994.0823,return,0.9308,,88.02083333,,,,,,FBP-RB-91.png,0.4,1.2,58,0.5,,,,,,,,,,,,,,,,,,0,24,24,57,1,,,,,,,,,,,,,,,,,,,,,,,
,,,,,V3_076,19,Female,2024-11-18_16h52.21.865,jersey_experiment_5_v3,2023.2.2,Win32,84.74576271,,,,,,,,,,,,,,,,994.0826,995.3766,995.3767,996.4001,return,0.2137,,86.71875,,,,,,FBP-PT-81.png,0.35,1.2,21,0.5,,,,,,,,,,,,,,,,,,0,25,25,20,1,,,,,,,,,,,,,,,,,,,,,,,
,,,,,V3_076,19,Female,2024-11-18_16h52.21.865,jersey_experiment_5_v3,2023.2.2,Win32,84.74576271,,,,,,,,,,,,,,,,996.4004,997.6944,997.6945,998.8473,return,0.129,,88.28125,,,,,,FBP-PT-71.png,0.37,1.2,17,0.5,,,,,,,,,,,,,,,,,,0,26,26,16,1,,,,,,,,,,,,,,,,,,,,,,,
,,,,,V3_076,19,Female,2024-11-18_16h52.21.865,jersey_experiment_5_v3,2023.2.2,Win32,84.74576271,,,,,,,,,,,,,,,,998.8476,1000.1414,1000.1415,1001.0238,return,0.0945,,92.31770833,,,,,,FBP-YG-19.png,0.4,1.2,13,0.5,,,,,,,,,,,,,,,,,,0,27,27,12,1,,,,,,,,,,,,,,,,,,,,,,,
,,,,,V3_076,19,Female,2024-11-18_16h52.21.865,jersey_experiment_5_v3,2023.2.2,Win32,84.74576271,,,,,,,,,,,,,,,,1001.0241,1002.5769,1002.577,1003.4241,return,0.037,,71.484375,,,,,,FBP-OG-91.png,0.37,1.2,42,0.75,,,,,,,,,,,,,,,,,,0,28,28,41,1,,,,,,,,,,,,,,,,,,,,,,,
,,,,,V3_076,19,Female,2024-11-18_16h52.21.865,jersey_experiment_5_v3,2023.2.2,Win32,84.74576271,,,,,,,,,,,,,,,,1003.4243,1004.7181,1004.7181,1005.9535,return,0.1887,,98.4375,,,,,,FBP-RB-91.png,0.43,1.2,59,0.5,,,,,,,,,,,,,,,,,,0,29,29,58,1,,,,,,,,,,,,,,,,,,,,,,,
,,,,,V3_076,19,Female,2024-11-18_16h52.21.865,jersey_experiment_5_v3,2023.2.2,Win32,84.74576271,,,,,,,,,,,,,,,,1005.9536,1007.2475,1007.2476,1008.6831,return,0.1357,,73.828125,,,,,,FBP-RB-91.png,0.37,1.2,57,0.5,,,,,,,,,,,,,,,,,,0,30,30,56,1,,,,,,,,,,,,,,,,,,,,,,,
,,,,,V3_076,19,Female,2024-11-18_16h52.21.865,jersey_experiment_5_v3,2023.2.2,Win32,84.74576271,,,,,,,,,,,,,,,,1008.6834,1009.9772,1009.9772,1018.3068,return,5.1166,,75.13020833,,,,,,FBP-YG-18.png,0.4,1.2,8,0.5,,,,,,,,,,,,,,,,,,0,31,31,7,1,,,,,,,,,,,,,,,,,,,,,,,
,,,,,V3_076,19,Female,2024-11-18_16h52.21.865,jersey_experiment_5_v3,2023.2.2,Win32,84.74576271,,,,,,,,,,,,,,,,1018.3072,1019.6009,1019.601,1023.46,return,1.0121,,47.00520833,,,,,,FBP-YG-18.png,0.35,1.2,6,0.5,,,,,,,,,,,,,,,,,,0,32,32,5,1,,,,,,,,,,,,,,,,,,,,,,,
,,,,,V3_076,19,Female,2024-11-18_16h52.21.865,jersey_experiment_5_v3,2023.2.2,Win32,84.74576271,,,,,,,,,,,,,,,,1023.4604,1024.7542,1024.7543,1028.625,return,0.0233,,45.703125,,,,,,FBP-RB-91.png,0.35,1.2,56,0.5,,,,,,,,,,,,,,,,,,0,33,33,55,1,,,,,,,,,,,,,,,,,,,,,,,
,,,,,V3_076,19,Female,2024-11-18_16h52.21.865,jersey_experiment_5_v3,2023.2.2,Win32,84.74576271,,,,,,,,,,,,,,,,1028.6253,1029.9191,1029.9191,1032.084,return,0.0637,,99.609375,,,,,,FBP-YG-18.png,0.43,1.2,9,0.5,,,,,,,,,,,,,,,,,,0,34,34,8,1,,,,,,,,,,,,,,,,,,,,,,,
,,,,,V3_076,19,Female,2024-11-18_16h52.21.865,jersey_experiment_5_v3,2023.2.2,Win32,84.74576271,,,,,,,,,,,,,,,,1032.0842,1033.6368,1033.6369,1035.5546,return,0.8352,,80.33854167,,,,,,FBP-OG-81.png,0.4,1.2,38,0.75,,,,,,,,,,,,,,,,,,0,35,35,37,1,,,,,,,,,,,,,,,,,,,,,,,
,,,,,V3_076,19,Female,2024-11-18_16h52.21.865,jersey_experiment_5_v3,2023.2.2,Win32,84.74576271,,,,,,,,,,,,,,,,1035.5549,1036.8488,1036.8489,1037.6252,return,0.032,,83.33333333,,,,,,FBP-RB-81.png,0.45,1.2,55,0.5,,,,,,,,,,,,,,,,,,0,36,36,54,1,,,,,,,,,,,,,,,,,,,,,,,
,,,,,V3_076,19,Female,2024-11-18_16h52.21.865,jersey_experiment_5_v3,2023.2.2,Win32,84.74576271,,,,,,,,,,,,,,,,1037.6255,1039.1784,1039.1784,1040.3313,return,0.0874,,47.78645833,,,,,,FBP-OG-71.png,0.35,1.2,31,0.75,,,,,,,,,,,,,,,,,,0,37,37,30,1,,,,,,,,,,,,,,,,,,,,,,,
,,,,,V3_076,19,Female,2024-11-18_16h52.21.865,jersey_experiment_5_v3,2023.2.2,Win32,84.74576271,,,,,,,,,,,,,,,,1040.3317,1041.6253,1041.6254,1042.4019,return,0.1179,,45.05208333,,,,,,FBP-YG-19.png,0.35,1.2,11,0.5,,,,,,,,,,,,,,,,,,0,38,38,10,1,,,,,,,,,,,,,,,,,,,,,,,
,,,,,V3_076,19,Female,2024-11-18_16h52.21.865,jersey_experiment_5_v3,2023.2.2,Win32,84.74576271,,,,,,,,,,,,,,,,1042.4022,1043.696,1043.696,1045.249,return,0.3064,,52.86458333,,,,,,FBP-PT-81.png,0.4,1.2,23,0.5,,,,,,,,,,,,,,,,,,0,39,39,22,1,,,,,,,,,,,,,,,,,,,,,,,
,,,,,V3_076,19,Female,2024-11-18_16h52.21.865,jersey_experiment_5_v3,2023.2.2,Win32,84.74576271,,,,,,,,,,,,,,,,1045.2492,1046.5432,1046.5434,1048.4257,return,0.5832,,79.03645833,,,,,,FBP-PT-91.png,0.45,1.2,30,0.5,,,,,,,,,,,,,,,,,,0,40,40,29,1,,,,,,,,,,,,,,,,,,,,,,,
,,,,,V3_076,19,Female,2024-11-18_16h52.21.865,jersey_experiment_5_v3,2023.2.2,Win32,84.74576271,,,,,,,,,,,,,,,,1048.426,1049.7198,1049.7199,1050.4257,return,0.158,,78.38541667,,,,,,FBP-PT-71.png,0.43,1.2,19,0.5,,,,,,,,,,,,,,,,,,0,41,41,18,1,,,,,,,,,,,,,,,,,,,,,,,
,,,,,V3_076,19,Female,2024-11-18_16h52.21.865,jersey_experiment_5_v3,2023.2.2,Win32,84.74576271,,,,,,,,,,,,,,,,1050.426,1051.7199,1051.7199,1052.8141,return,0.167,,81.25,,,,,,FBP-YG-17.png,0.43,1.2,4,0.5,,,,,,,,,,,,,,,,,,0,42,42,3,1,,,,,,,,,,,,,,,,,,,,,,,
,,,,,V3_076,19,Female,2024-11-18_16h52.21.865,jersey_experiment_5_v3,2023.2.2,Win32,84.74576271,,,,,,,,,,,,,,,,1052.8144,1054.1082,1054.1082,1055.0025,return,0.1603,,86.84895833,,,,,,FBP-RB-91.png,0.45,1.2,60,0.5,,,,,,,,,,,,,,,,,,0,43,43,59,1,,,,,,,,,,,,,,,,,,,,,,,
,,,,,V3_076,19,Female,2024-11-18_16h52.21.865,jersey_experiment_5_v3,2023.2.2,Win32,84.74576271,,,,,,,,,,,,,,,,1055.0029,1056.5555,1056.5555,1057.7319,return,0.1177,,46.35416667,,,,,,FBP-OG-91.png,0.35,1.2,41,0.75,,,,,,,,,,,,,,,,,,0,44,44,40,1,,,,,,,,,,,,,,,,,,,,,,,
,,,,,V3_076,19,Female,2024-11-18_16h52.21.865,jersey_experiment_5_v3,2023.2.2,Win32,84.74576271,,,,,,,,,,,,,,,,1057.7322,1059.0261,1059.0261,1060.2849,return,0.0854,,79.94791667,,,,,,FBP-PT-91.png,0.43,1.2,29,0.5,,,,,,,,,,,,,,,,,,0,45,45,28,1,,,,,,,,,,,,,,,,,,,,,,,
,,,,,V3_076,19,Female,2024-11-18_16h52.21.865,jersey_experiment_5_v3,2023.2.2,Win32,84.74576271,,,,,,,,,,,,,,,,1060.2853,1061.838,1061.838,1064.2026,return,0.7246,,50.91145833,,,,,,FBP-OG-81.png,0.37,1.2,37,0.75,,,,,,,,,,,,,,,,,,0,46,46,36,1,,,,,,,,,,,,,,,,,,,,,,,
,,,,,V3_076,19,Female,2024-11-18_16h52.21.865,jersey_experiment_5_v3,2023.2.2,Win32,84.74576271,,,,,,,,,,,,,,,,1064.2029,1065.4968,1065.497,1066.6264,return,0.1088,,98.69791667,,,,,,FBP-PT-71.png,0.45,1.2,20,0.5,,,,,,,,,,,,,,,,,,0,47,47,19,1,,,,,,,,,,,,,,,,,,,,,,,
,,,,,V3_076,19,Female,2024-11-18_16h52.21.865,jersey_experiment_5_v3,2023.2.2,Win32,84.74576271,,,,,,,,,,,,,,,,1066.6267,1067.9206,1067.9206,1071.6736,return,0.6775,,49.609375,,,,,,FBP-PT-91.png,0.37,1.2,27,0.5,,,,,,,,,,,,,,,,,,0,48,48,26,1,,,,,,,,,,,,,,,,,,,,,,,
,,,,,V3_076,19,Female,2024-11-18_16h52.21.865,jersey_experiment_5_v3,2023.2.2,Win32,84.74576271,,,,,,,,,,,,,,,,1071.6739,1072.9677,1072.9679,1074.0148,return,0.038,,94.01041667,,,,,,FBP-PT-81.png,0.45,1.2,25,0.5,,,,,,,,,,,,,,,,,,0,49,49,24,1,,,,,,,,,,,,,,,,,,,,,,,
,,,,,V3_076,19,Female,2024-11-18_16h52.21.865,jersey_experiment_5_v3,2023.2.2,Win32,84.74576271,,,,,,,,,,,,,,,,1074.0152,1075.5678,1075.5679,1078.7563,return,1.3283,,55.72916667,,,,,,FBP-OG-71.png,0.37,1.2,32,0.75,,,,,,,,,,,,,,,,,,0,50,50,31,1,,,,,,,,,,,,,,,,,,,,,,,
,,,,,V3_076,19,Female,2024-11-18_16h52.21.865,jersey_experiment_5_v3,2023.2.2,Win32,84.74576271,,,,,,,,,,,,,,,,1078.7565,1080.0504,1080.0505,1081.3799,return,0.1391,,99.47916667,,,,,,FBP-YG-18.png,0.45,1.2,10,0.5,,,,,,,,,,,,,,,,,,0,51,51,9,1,,,,,,,,,,,,,,,,,,,,,,,
,,,,,V3_076,19,Female,2024-11-18_16h52.21.865,jersey_experiment_5_v3,2023.2.2,Win32,84.74576271,,,,,,,,,,,,,,,,1081.3801,1082.674,1082.6741,1083.8976,return,0.101,,76.04166667,,,,,,FBP-PT-91.png,0.4,1.2,28,0.5,,,,,,,,,,,,,,,,,,0,52,52,27,1,,,,,,,,,,,,,,,,,,,,,,,
,,,,,V3_076,19,Female,2024-11-18_16h52.21.865,jersey_experiment_5_v3,2023.2.2,Win32,84.74576271,,,,,,,,,,,,,,,,1083.8978,1085.1917,1085.1918,1086.5801,return,0.0606,,99.21875,,,,,,FBP-RB-71.png,0.45,1.2,50,0.5,,,,,,,,,,,,,,,,,,0,53,53,49,1,,,,,,,,,,,,,,,,,,,,,,,
,,,,,V3_076,19,Female,2024-11-18_16h52.21.865,jersey_experiment_5_v3,2023.2.2,Win32,84.74576271,,,,,,,,,,,,,,,,1086.5804,1088.1333,1088.1333,1089.4273,return,0.0475,,67.1875,,,,,,FBP-OG-71.png,0.4,1.2,33,0.75,,,,,,,,,,,,,,,,,,0,54,54,32,1,,,,,,,,,,,,,,,,,,,,,,,
,,,,,V3_076,19,Female,2024-11-18_16h52.21.865,jersey_experiment_5_v3,2023.2.2,Win32,84.74576271,,,,,,,,,,,,,,,,1089.4277,1090.9802,1090.9803,1092.2979,return,0.1944,,73.046875,,,,,,FBP-OG-91.png,0.4,1.2,43,0.75,,,,,,,,,,,,,,,,,,0,55,55,42,1,,,,,,,,,,,,,,,,,,,,,,,
,,,,,V3_076,19,Female,2024-11-18_16h52.21.865,jersey_experiment_5_v3,2023.2.2,Win32,84.74576271,,,,,,,,,,,,,,,,1092.2982,1093.592,1093.5921,1096.6862,return,0.9554,,56.25,,,,,,FBP-YG-18.png,0.37,1.2,7,0.5,,,,,,,,,,,,,,,,,,0,56,56,6,1,,,,,,,,,,,,,,,,,,,,,,,
,,,,,V3_076,19,Female,2024-11-18_16h52.21.865,jersey_experiment_5_v3,2023.2.2,Win32,84.74576271,,,,,,,,,,,,,,,,1096.6865,1098.2395,1098.2395,1099.2511,return,0.0943,,80.72916667,,,,,,FBP-OG-71.png,0.43,1.2,34,0.75,,,,,,,,,,,,,,,,,,0,57,57,33,1,,,,,,,,,,,,,,,,,,,,,,,
,,,,,V3_076,19,Female,2024-11-18_16h52.21.865,jersey_experiment_5_v3,2023.2.2,Win32,84.74576271,,,,,,,,,,,,,,,,1099.2513,1100.8042,1100.8042,1105.969,return,3.189,,84.24479167,,,,,,FBP-OG-81.png,0.43,1.2,39,0.75,,,,,,,,,,,,,,,,,,0,58,58,38,1,,,,,,,,,,,,,,,,,,,,,,,
,,,,,V3_076,19,Female,2024-11-18_16h52.21.865,jersey_experiment_5_v3,2023.2.2,Win32,84.74576271,,,,,,,,,,,,,,,,1105.9693,1107.2632,1107.2632,1109.4868,return,0.648,,83.07291667,,,,,,FBP-YG-17.png,0.37,1.2,2,0.5,,,,,,,,,,,,,,,,,,0,59,59,1,1,,,,,,,,,,,,,,,,,,,,,,,
,,,,,V3_076,19,Female,2024-11-18_16h52.21.865,jersey_experiment_5_v3,2023.2.2,Win32,84.74576271,,,,,,,,,,,,,,,,,,,,,,,,,,,,,,,,,,,,,,,,,,,,,,,,,,,,,,,,1109.4868,1112.8164,return,3.3171,,,,,,,,,,,,,,,,,,,
,,,,,V3_076,19,Female,2024-11-18_16h52.21.865,jersey_experiment_5_v3,2023.2.2,Win32,84.74576271,,,,,,,,,,,,,,,,,,,,,,,,,,,,,,,,,,,,,,,,,,,,,,,,,,,,,,,,,,,,,1112.8165,1118.7813,1,4.697,return,1.2506,,,,,,,,,,,,
,,,,,V3_076,19,Female,2024-11-18_16h52.21.865,jersey_experiment_5_v3,2023.2.2,Win32,84.74576271,,,,,,,,,,,,,,,,,,,,,,,,,,,,,,,,,,,,,,,,,,,,,,,,,,,,,,,,,,,,,,,,,,,,1118.7813,1144.7713,Maybe racial bias towards size of football players,right,19.5658,,,,,,
,,,,,V3_076,19,Female,2024-11-18_16h52.21.865,jersey_experiment_5_v3,2023.2.2,Win32,84.74576271,,,,,,,,,,,,,,,,,,,,,,,,,,,,,,,,,,,,,,,,,,,,,,,,,,,,,,,,,,,,,,,,,,,,,,,,,,1144.7713,1148.2764,return,3.495,