requirements.started,requirements.stopped,key_resp_3.keys,key_resp_3.rt,key_resp_3.duration,Subject ID,Age,Gender,date,expName,psychopyVersion,OS,frameRate,instructions1.started,instructions1.stopped,key_resp.keys,key_resp.rt,key_resp.duration,example.started,example.stopped,enter_2.keys,enter_2.rt,enter_2.duration,instructions2.started,instructions2.stopped,enter_3.keys,enter_3.rt,enter_3.duration,image.started,image.stopped,slider_2.started,slider_2.stopped,next.keys,next.rt,next.duration,slider.response,trial_block_1.thisRepN,trial_block_1.thisTrialN,trial_block_1.thisN,trial_block_1.thisIndex,trial_block_1.ran,Path,Width,Height,Index,Duration,trial_block_2.thisRepN,trial_block_2.thisTrialN,trial_block_2.thisN,trial_block_2.thisIndex,trial_block_2.ran,rest_break.started,rest_break.stopped,end_break.started,end_break.stopped,key_resp_5.keys,key_resp_5.rt,key_resp_5.duration,trial_block_3.thisRepN,trial_block_3.thisTrialN,trial_block_3.thisN,trial_block_3.thisIndex,trial_block_3.ran,trial_block_4.thisRepN,trial_block_4.thisTrialN,trial_block_4.thisN,trial_block_4.thisIndex,trial_block_4.ran,questions_intro.started,questions_intro.stopped,enter_12.keys,enter_12.rt,enter_12.duration,question2.started,question2.stopped,question_doingbest.response,question_doingbest.rt,enter_15.keys,enter_15.rt,enter_15.duration,pattern.started,pattern.stopped,pattern_2.text,enter_17.keys,enter_17.rt,enter_17.duration,thankyou.started,thankyou.stopped,enter_14.keys,enter_14.rt,enter_14.duration
0,11.8697,return,11.8656,,V3_071,18,Female,2024-11-16_18h00.22.531,jersey_experiment_5_v3,2023.2.2,Win32,84.03361345,,,,,,,,,,,,,,,,,,,,,,,,,,,,,,,,,,,,,,,,,,,,,,,,,,,,,,,,,,,,,,,,,,,,,,,,,,,,,,
,,,,,V3_071,18,Female,2024-11-16_18h00.22.531,jersey_experiment_5_v3,2023.2.2,Win32,84.03361345,11.8697,23.9984,return,12.1185,,,,,,,,,,,,,,,,,,,,,,,,,,,,,,,,,,,,,,,,,,,,,,,,,,,,,,,,,,,,,,,,,,,,,,,,,,
,,,,,V3_071,18,Female,2024-11-16_18h00.22.531,jersey_experiment_5_v3,2023.2.2,Win32,84.03361345,,,,,,23.9985,32.6657,return,8.6272,,,,,,,,,,,,,,,,,,,,,,,,,,,,,,,,,,,,,,,,,,,,,,,,,,,,,,,,,,,,,,,,,,,,,
,,,,,V3_071,18,Female,2024-11-16_18h00.22.531,jersey_experiment_5_v3,2023.2.2,Win32,84.03361345,,,,,,,,,,,32.6657,63.5728,return,30.8967,,,,,,,,,,,,,,,,,,,,,,,,,,,,,,,,,,,,,,,,,,,,,,,,,,,,,,,,,,,,,,,,
,,,,,V3_071,18,Female,2024-11-16_18h00.22.531,jersey_experiment_5_v3,2023.2.2,Win32,84.03361345,,,,,,,,,,,,,,,,63.5747,64.8668,64.8669,71.4789,return,2.4677,,25.26041667,0,0,0,40,1,FBP-OG-19.png,0.35,1.2,41,0.5,,,,,,,,,,,,,,,,,,,,,,,,,,,,,,,,,,,,,,,,,,,,,
,,,,,V3_071,18,Female,2024-11-16_18h00.22.531,jersey_experiment_5_v3,2023.2.2,Win32,84.03361345,,,,,,,,,,,,,,,,71.4793,73.0319,73.0319,77.4439,return,2.5946,,25.91145833,0,1,1,0,1,FBP-YG-71.png,0.35,1.2,1,0.75,,,,,,,,,,,,,,,,,,,,,,,,,,,,,,,,,,,,,,,,,,,,,
,,,,,V3_071,18,Female,2024-11-16_18h00.22.531,jersey_experiment_5_v3,2023.2.2,Win32,84.03361345,,,,,,,,,,,,,,,,77.4442,78.9968,78.9969,82.1145,return,0.9945,,49.86979167,0,2,2,4,1,FBP-YG-71.png,0.45,1.2,5,0.75,,,,,,,,,,,,,,,,,,,,,,,,,,,,,,,,,,,,,,,,,,,,,
,,,,,V3_071,18,Female,2024-11-16_18h00.22.531,jersey_experiment_5_v3,2023.2.2,Win32,84.03361345,,,,,,,,,,,,,,,,82.1148,83.6678,83.6678,87.4914,return,1.2173,,18.75,0,3,3,56,1,FBP-RB-19.png,0.37,1.2,57,0.75,,,,,,,,,,,,,,,,,,,,,,,,,,,,,,,,,,,,,,,,,,,,,
,,,,,V3_071,18,Female,2024-11-16_18h00.22.531,jersey_experiment_5_v3,2023.2.2,Win32,84.03361345,,,,,,,,,,,,,,,,87.4916,89.0443,89.0443,91.8914,return,0.6505,,16.66666667,0,4,4,20,1,FBP-PT-18.png,0.35,1.2,21,0.75,,,,,,,,,,,,,,,,,,,,,,,,,,,,,,,,,,,,,,,,,,,,,
,,,,,V3_071,18,Female,2024-11-16_18h00.22.531,jersey_experiment_5_v3,2023.2.2,Win32,84.03361345,,,,,,,,,,,,,,,,91.8917,93.4445,93.4445,101.4799,return,5.6854,,31.90104167,0,5,5,26,1,FBP-PT-19.png,0.37,1.2,27,0.75,,,,,,,,,,,,,,,,,,,,,,,,,,,,,,,,,,,,,,,,,,,,,
,,,,,V3_071,18,Female,2024-11-16_18h00.22.531,jersey_experiment_5_v3,2023.2.2,Win32,84.03361345,,,,,,,,,,,,,,,,101.4802,102.7741,102.7742,105.6214,return,0.9192,,25.13020833,0,6,6,35,1,FBP-OG-18.png,0.35,1.2,36,0.5,,,,,,,,,,,,,,,,,,,,,,,,,,,,,,,,,,,,,,,,,,,,,
,,,,,V3_071,18,Female,2024-11-16_18h00.22.531,jersey_experiment_5_v3,2023.2.2,Win32,84.03361345,,,,,,,,,,,,,,,,105.6216,107.1743,107.1743,116.2099,return,4.4909,,60.41666667,0,7,7,18,1,FBP-PT-17.png,0.43,1.2,19,0.75,,,,,,,,,,,,,,,,,,,,,,,,,,,,,,,,,,,,,,,,,,,,,
,,,,,V3_071,18,Female,2024-11-16_18h00.22.531,jersey_experiment_5_v3,2023.2.2,Win32,84.03361345,,,,,,,,,,,,,,,,116.2103,117.7631,117.7631,120.8924,return,1.7883,,58.85416667,0,8,8,52,1,FBP-RB-18.png,0.4,1.2,53,0.75,,,,,,,,,,,,,,,,,,,,,,,,,,,,,,,,,,,,,,,,,,,,,
,,,,,V3_071,18,Female,2024-11-16_18h00.22.531,jersey_experiment_5_v3,2023.2.2,Win32,84.03361345,,,,,,,,,,,,,,,,120.8927,122.4455,122.4456,125.1397,return,0.289,,59.24479167,0,9,9,57,1,FBP-RB-19.png,0.4,1.2,58,0.75,,,,,,,,,,,,,,,,,,,,,,,,,,,,,,,,,,,,,,,,,,,,,
,,,,,V3_071,18,Female,2024-11-16_18h00.22.531,jersey_experiment_5_v3,2023.2.2,Win32,84.03361345,,,,,,,,,,,,,,,,125.1399,126.6927,126.6928,131.0575,return,1.244,,26.30208333,0,10,10,50,1,FBP-RB-18.png,0.35,1.2,51,0.75,,,,,,,,,,,,,,,,,,,,,,,,,,,,,,,,,,,,,,,,,,,,,
,,,,,V3_071,18,Female,2024-11-16_18h00.22.531,jersey_experiment_5_v3,2023.2.2,Win32,84.03361345,,,,,,,,,,,,,,,,131.0578,132.3518,132.3518,135.4342,return,0.9313,,25.52083333,0,11,11,41,1,FBP-OG-19.png,0.37,1.2,42,0.5,,,,,,,,,,,,,,,,,,,,,,,,,,,,,,,,,,,,,,,,,,,,,
,,,,,V3_071,18,Female,2024-11-16_18h00.22.531,jersey_experiment_5_v3,2023.2.2,Win32,84.03361345,,,,,,,,,,,,,,,,135.4345,136.9873,136.9873,140.6345,return,0.5302,,42.05729167,0,12,12,46,1,FBP-RB-17.png,0.37,1.2,47,0.75,,,,,,,,,,,,,,,,,,,,,,,,,,,,,,,,,,,,,,,,,,,,,
,,,,,V3_071,18,Female,2024-11-16_18h00.22.531,jersey_experiment_5_v3,2023.2.2,Win32,84.03361345,,,,,,,,,,,,,,,,140.6347,142.1874,142.1874,144.5993,return,0.4971,,75.390625,0,13,13,8,1,FBP-YG-81.png,0.43,1.2,9,0.75,,,,,,,,,,,,,,,,,,,,,,,,,,,,,,,,,,,,,,,,,,,,,
,,,,,V3_071,18,Female,2024-11-16_18h00.22.531,jersey_experiment_5_v3,2023.2.2,Win32,84.03361345,,,,,,,,,,,,,,,,144.5995,145.8933,145.8934,147.8819,return,0.5068,,73.69791667,0,14,14,42,1,FBP-OG-19.png,0.4,1.2,43,0.5,,,,,,,,,,,,,,,,,,,,,,,,,,,,,,,,,,,,,,,,,,,,,
,,,,,V3_071,18,Female,2024-11-16_18h00.22.531,jersey_experiment_5_v3,2023.2.2,Win32,84.03361345,,,,,,,,,,,,,,,,147.8822,149.4347,149.4347,151.5294,return,0.4684,,49.21875,0,15,15,1,1,FBP-YG-71.png,0.37,1.2,2,0.75,,,,,,,,,,,,,,,,,,,,,,,,,,,,,,,,,,,,,,,,,,,,,
,,,,,V3_071,18,Female,2024-11-16_18h00.22.531,jersey_experiment_5_v3,2023.2.2,Win32,84.03361345,,,,,,,,,,,,,,,,151.5297,152.8231,152.8232,159.1881,return,3.9225,,79.94791667,0,16,16,44,1,FBP-OG-19.png,0.45,1.2,45,0.5,,,,,,,,,,,,,,,,,,,,,,,,,,,,,,,,,,,,,,,,,,,,,
,,,,,V3_071,18,Female,2024-11-16_18h00.22.531,jersey_experiment_5_v3,2023.2.2,Win32,84.03361345,,,,,,,,,,,,,,,,159.1883,160.741,160.7411,164.1294,return,0.4644,,49.47916667,0,17,17,11,1,FBP-YG-91.png,0.37,1.2,12,0.75,,,,,,,,,,,,,,,,,,,,,,,,,,,,,,,,,,,,,,,,,,,,,
,,,,,V3_071,18,Female,2024-11-16_18h00.22.531,jersey_experiment_5_v3,2023.2.2,Win32,84.03361345,,,,,,,,,,,,,,,,164.1296,165.6823,165.6824,167.5883,return,0.4401,,85.15625,0,18,18,14,1,FBP-YG-91.png,0.45,1.2,15,0.75,,,,,,,,,,,,,,,,,,,,,,,,,,,,,,,,,,,,,,,,,,,,,
,,,,,V3_071,18,Female,2024-11-16_18h00.22.531,jersey_experiment_5_v3,2023.2.2,Win32,84.03361345,,,,,,,,,,,,,,,,167.5886,169.1415,169.1415,170.7062,return,0.2192,,18.359375,0,19,19,16,1,FBP-PT-17.png,0.37,1.2,17,0.75,,,,,,,,,,,,,,,,,,,,,,,,,,,,,,,,,,,,,,,,,,,,,
,,,,,V3_071,18,Female,2024-11-16_18h00.22.531,jersey_experiment_5_v3,2023.2.2,Win32,84.03361345,,,,,,,,,,,,,,,,170.7064,172.2591,172.2591,175.7299,return,2.0791,,87.5,0,20,20,19,1,FBP-PT-17.png,0.45,1.2,20,0.75,,,,,,,,,,,,,,,,,,,,,,,,,,,,,,,,,,,,,,,,,,,,,
,,,,,V3_071,18,Female,2024-11-16_18h00.22.531,jersey_experiment_5_v3,2023.2.2,Win32,84.03361345,,,,,,,,,,,,,,,,175.7301,177.2828,177.2828,179.0478,return,0.4843,,87.63020833,0,21,21,9,1,FBP-YG-81.png,0.45,1.2,10,0.75,,,,,,,,,,,,,,,,,,,,,,,,,,,,,,,,,,,,,,,,,,,,,
,,,,,V3_071,18,Female,2024-11-16_18h00.22.531,jersey_experiment_5_v3,2023.2.2,Win32,84.03361345,,,,,,,,,,,,,,,,179.048,180.6007,180.6007,183.0008,return,0.3161,,47.78645833,0,22,22,47,1,FBP-RB-17.png,0.4,1.2,48,0.75,,,,,,,,,,,,,,,,,,,,,,,,,,,,,,,,,,,,,,,,,,,,,
,,,,,V3_071,18,Female,2024-11-16_18h00.22.531,jersey_experiment_5_v3,2023.2.2,Win32,84.03361345,,,,,,,,,,,,,,,,183.0011,184.5537,184.5537,186.0243,return,0.4607,,41.27604167,0,23,23,22,1,FBP-PT-18.png,0.4,1.2,23,0.75,,,,,,,,,,,,,,,,,,,,,,,,,,,,,,,,,,,,,,,,,,,,,
,,,,,V3_071,18,Female,2024-11-16_18h00.22.531,jersey_experiment_5_v3,2023.2.2,Win32,84.03361345,,,,,,,,,,,,,,,,186.0247,187.5774,187.5774,189.0951,return,0.4503,,24.08854167,0,24,24,10,1,FBP-YG-91.png,0.35,1.2,11,0.75,,,,,,,,,,,,,,,,,,,,,,,,,,,,,,,,,,,,,,,,,,,,,
,,,,,V3_071,18,Female,2024-11-16_18h00.22.531,jersey_experiment_5_v3,2023.2.2,Win32,84.03361345,,,,,,,,,,,,,,,,189.0953,190.6479,190.648,192.307,return,0.2073,,72.65625,0,25,25,53,1,FBP-RB-18.png,0.43,1.2,54,0.75,,,,,,,,,,,,,,,,,,,,,,,,,,,,,,,,,,,,,,,,,,,,,
,,,,,V3_071,18,Female,2024-11-16_18h00.22.531,jersey_experiment_5_v3,2023.2.2,Win32,84.03361345,,,,,,,,,,,,,,,,192.3072,193.8599,193.8599,196.1189,return,0.3523,,57.421875,0,26,26,3,1,FBP-YG-71.png,0.43,1.2,4,0.75,,,,,,,,,,,,,,,,,,,,,,,,,,,,,,,,,,,,,,,,,,,,,
,,,,,V3_071,18,Female,2024-11-16_18h00.22.531,jersey_experiment_5_v3,2023.2.2,Win32,84.03361345,,,,,,,,,,,,,,,,196.1191,197.413,197.4131,199.1071,return,0.1836,,49.34895833,0,27,27,36,1,FBP-OG-18.png,0.37,1.2,37,0.5,,,,,,,,,,,,,,,,,,,,,,,,,,,,,,,,,,,,,,,,,,,,,
,,,,,V3_071,18,Female,2024-11-16_18h00.22.531,jersey_experiment_5_v3,2023.2.2,Win32,84.03361345,,,,,,,,,,,,,,,,199.1074,200.4013,200.4014,202.7073,return,0.262,,67.44791667,0,28,28,33,1,FBP-OG-17.png,0.43,1.2,34,0.5,,,,,,,,,,,,,,,,,,,,,,,,,,,,,,,,,,,,,,,,,,,,,
,,,,,V3_071,18,Female,2024-11-16_18h00.22.531,jersey_experiment_5_v3,2023.2.2,Win32,84.03361345,,,,,,,,,,,,,,,,202.7076,204.2601,204.2603,206.7898,return,1.2369,,70.3125,0,29,29,58,1,FBP-RB-19.png,0.43,1.2,59,0.75,,,,,,,,,,,,,,,,,,,,,,,,,,,,,,,,,,,,,,,,,,,,,
,,,,,V3_071,18,Female,2024-11-16_18h00.22.531,jersey_experiment_5_v3,2023.2.2,Win32,84.03361345,,,,,,,,,,,,,,,,206.7901,208.3429,208.3429,210.1311,return,0.5247,,39.58333333,0,30,30,27,1,FBP-PT-19.png,0.4,1.2,28,0.75,,,,,,,,,,,,,,,,,,,,,,,,,,,,,,,,,,,,,,,,,,,,,
,,,,,V3_071,18,Female,2024-11-16_18h00.22.531,jersey_experiment_5_v3,2023.2.2,Win32,84.03361345,,,,,,,,,,,,,,,,210.1313,211.6841,211.6841,213.1901,return,0.169,,73.046875,0,31,31,24,1,FBP-PT-18.png,0.45,1.2,25,0.75,,,,,,,,,,,,,,,,,,,,,,,,,,,,,,,,,,,,,,,,,,,,,
,,,,,V3_071,18,Female,2024-11-16_18h00.22.531,jersey_experiment_5_v3,2023.2.2,Win32,84.03361345,,,,,,,,,,,,,,,,213.1903,214.7431,214.7432,217.8844,return,1.4374,,26.04166667,0,32,32,15,1,FBP-PT-17.png,0.35,1.2,16,0.75,,,,,,,,,,,,,,,,,,,,,,,,,,,,,,,,,,,,,,,,,,,,,
,,,,,V3_071,18,Female,2024-11-16_18h00.22.531,jersey_experiment_5_v3,2023.2.2,Win32,84.03361345,,,,,,,,,,,,,,,,217.8846,219.4373,219.4373,224.7435,return,2.9316,,46.61458333,0,33,33,7,1,FBP-YG-81.png,0.4,1.2,8,0.75,,,,,,,,,,,,,,,,,,,,,,,,,,,,,,,,,,,,,,,,,,,,,
,,,,,V3_071,18,Female,2024-11-16_18h00.22.531,jersey_experiment_5_v3,2023.2.2,Win32,84.03361345,,,,,,,,,,,,,,,,224.7437,226.2965,226.2965,228.2965,return,0.3783,,86.45833333,0,34,34,59,1,FBP-RB-19.png,0.45,1.2,60,0.75,,,,,,,,,,,,,,,,,,,,,,,,,,,,,,,,,,,,,,,,,,,,,
,,,,,V3_071,18,Female,2024-11-16_18h00.22.531,jersey_experiment_5_v3,2023.2.2,Win32,84.03361345,,,,,,,,,,,,,,,,228.2968,229.8495,229.8496,231.9908,return,0.5316,,30.078125,0,35,35,17,1,FBP-PT-17.png,0.4,1.2,18,0.75,,,,,,,,,,,,,,,,,,,,,,,,,,,,,,,,,,,,,,,,,,,,,
,,,,,V3_071,18,Female,2024-11-16_18h00.22.531,jersey_experiment_5_v3,2023.2.2,Win32,84.03361345,,,,,,,,,,,,,,,,231.9911,233.2849,233.2849,237.6498,return,0.6895,,24.08854167,0,36,36,31,1,FBP-OG-17.png,0.37,1.2,32,0.5,,,,,,,,,,,,,,,,,,,,,,,,,,,,,,,,,,,,,,,,,,,,,
,,,,,V3_071,18,Female,2024-11-16_18h00.22.531,jersey_experiment_5_v3,2023.2.2,Win32,84.03361345,,,,,,,,,,,,,,,,237.6501,238.9439,238.944,241.2735,return,0.4155,,33.72395833,0,37,37,37,1,FBP-OG-18.png,0.4,1.2,38,0.5,,,,,,,,,,,,,,,,,,,,,,,,,,,,,,,,,,,,,,,,,,,,,
,,,,,V3_071,18,Female,2024-11-16_18h00.22.531,jersey_experiment_5_v3,2023.2.2,Win32,84.03361345,,,,,,,,,,,,,,,,241.2737,242.8265,242.8265,245.1093,return,0.6626,,72.65625,0,38,38,54,1,FBP-RB-18.png,0.45,1.2,55,0.75,,,,,,,,,,,,,,,,,,,,,,,,,,,,,,,,,,,,,,,,,,,,,
,,,,,V3_071,18,Female,2024-11-16_18h00.22.531,jersey_experiment_5_v3,2023.2.2,Win32,84.03361345,,,,,,,,,,,,,,,,245.1095,246.6619,246.662,248.2618,return,0.2747,,71.74479167,0,39,39,28,1,FBP-PT-19.png,0.43,1.2,29,0.75,,,,,,,,,,,,,,,,,,,,,,,,,,,,,,,,,,,,,,,,,,,,,
,,,,,V3_071,18,Female,2024-11-16_18h00.22.531,jersey_experiment_5_v3,2023.2.2,Win32,84.03361345,,,,,,,,,,,,,,,,248.2621,249.5561,249.5562,251.7211,return,0.4001,,4.817708333,0,40,40,30,1,FBP-OG-17.png,0.35,1.2,31,0.5,,,,,,,,,,,,,,,,,,,,,,,,,,,,,,,,,,,,,,,,,,,,,
,,,,,V3_071,18,Female,2024-11-16_18h00.22.531,jersey_experiment_5_v3,2023.2.2,Win32,84.03361345,,,,,,,,,,,,,,,,251.7213,253.2739,253.2739,255.368,return,0.1881,,49.609375,0,41,41,48,1,FBP-RB-17.png,0.43,1.2,49,0.75,,,,,,,,,,,,,,,,,,,,,,,,,,,,,,,,,,,,,,,,,,,,,
,,,,,V3_071,18,Female,2024-11-16_18h00.22.531,jersey_experiment_5_v3,2023.2.2,Win32,84.03361345,,,,,,,,,,,,,,,,255.3684,256.9212,256.9212,259.1331,return,0.3299,,89.97395833,0,42,42,49,1,FBP-RB-17.png,0.45,1.2,50,0.75,,,,,,,,,,,,,,,,,,,,,,,,,,,,,,,,,,,,,,,,,,,,,
,,,,,V3_071,18,Female,2024-11-16_18h00.22.531,jersey_experiment_5_v3,2023.2.2,Win32,84.03361345,,,,,,,,,,,,,,,,259.1333,260.6861,260.6861,262.9801,return,0.367,,10.28645833,0,43,43,21,1,FBP-PT-18.png,0.37,1.2,22,0.75,,,,,,,,,,,,,,,,,,,,,,,,,,,,,,,,,,,,,,,,,,,,,
,,,,,V3_071,18,Female,2024-11-16_18h00.22.531,jersey_experiment_5_v3,2023.2.2,Win32,84.03361345,,,,,,,,,,,,,,,,262.9805,264.2742,264.2742,271.5097,return,3.6746,,48.828125,0,44,44,38,1,FBP-OG-18.png,0.43,1.2,39,0.5,,,,,,,,,,,,,,,,,,,,,,,,,,,,,,,,,,,,,,,,,,,,,
,,,,,V3_071,18,Female,2024-11-16_18h00.22.531,jersey_experiment_5_v3,2023.2.2,Win32,84.03361345,,,,,,,,,,,,,,,,271.51,273.0629,273.0629,275.4277,return,1.2302,,56.90104167,0,45,45,23,1,FBP-PT-18.png,0.43,1.2,24,0.75,,,,,,,,,,,,,,,,,,,,,,,,,,,,,,,,,,,,,,,,,,,,,
,,,,,V3_071,18,Female,2024-11-16_18h00.22.531,jersey_experiment_5_v3,2023.2.2,Win32,84.03361345,,,,,,,,,,,,,,,,275.4279,276.9691,276.9692,278.6984,return,0.6123,,24.21875,0,46,46,6,1,FBP-YG-81.png,0.37,1.2,7,0.75,,,,,,,,,,,,,,,,,,,,,,,,,,,,,,,,,,,,,,,,,,,,,
,,,,,V3_071,18,Female,2024-11-16_18h00.22.531,jersey_experiment_5_v3,2023.2.2,Win32,84.03361345,,,,,,,,,,,,,,,,278.6988,279.9925,279.9926,282.2162,return,0.306,,25.91145833,0,47,47,32,1,FBP-OG-17.png,0.4,1.2,33,0.5,,,,,,,,,,,,,,,,,,,,,,,,,,,,,,,,,,,,,,,,,,,,,
,,,,,V3_071,18,Female,2024-11-16_18h00.22.531,jersey_experiment_5_v3,2023.2.2,Win32,84.03361345,,,,,,,,,,,,,,,,282.2164,283.7691,283.7691,286.3928,return,1.5778,,20.83333333,0,48,48,51,1,FBP-RB-18.png,0.37,1.2,52,0.75,,,,,,,,,,,,,,,,,,,,,,,,,,,,,,,,,,,,,,,,,,,,,
,,,,,V3_071,18,Female,2024-11-16_18h00.22.531,jersey_experiment_5_v3,2023.2.2,Win32,84.03361345,,,,,,,,,,,,,,,,286.3931,287.9459,287.9459,290.7106,return,0.2978,,34.50520833,0,49,49,2,1,FBP-YG-71.png,0.4,1.2,3,0.75,,,,,,,,,,,,,,,,,,,,,,,,,,,,,,,,,,,,,,,,,,,,,
,,,,,V3_071,18,Female,2024-11-16_18h00.22.531,jersey_experiment_5_v3,2023.2.2,Win32,84.03361345,,,,,,,,,,,,,,,,290.7108,292.2637,292.2638,294.2048,return,0.8705,,63.41145833,0,50,50,29,1,FBP-PT-19.png,0.45,1.2,30,0.75,,,,,,,,,,,,,,,,,,,,,,,,,,,,,,,,,,,,,,,,,,,,,
,,,,,V3_071,18,Female,2024-11-16_18h00.22.531,jersey_experiment_5_v3,2023.2.2,Win32,84.03361345,,,,,,,,,,,,,,,,294.2052,295.499,295.499,297.2992,return,0.3584,,69.66145833,0,51,51,43,1,FBP-OG-19.png,0.43,1.2,44,0.5,,,,,,,,,,,,,,,,,,,,,,,,,,,,,,,,,,,,,,,,,,,,,
,,,,,V3_071,18,Female,2024-11-16_18h00.22.531,jersey_experiment_5_v3,2023.2.2,Win32,84.03361345,,,,,,,,,,,,,,,,297.2994,298.8521,298.8522,300.8404,return,0.506,,68.61979167,0,52,52,13,1,FBP-YG-91.png,0.43,1.2,14,0.75,,,,,,,,,,,,,,,,,,,,,,,,,,,,,,,,,,,,,,,,,,,,,
,,,,,V3_071,18,Female,2024-11-16_18h00.22.531,jersey_experiment_5_v3,2023.2.2,Win32,84.03361345,,,,,,,,,,,,,,,,300.8406,302.1345,302.1345,304.0052,return,0.2285,,74.609375,0,53,53,39,1,FBP-OG-18.png,0.45,1.2,40,0.5,,,,,,,,,,,,,,,,,,,,,,,,,,,,,,,,,,,,,,,,,,,,,
,,,,,V3_071,18,Female,2024-11-16_18h00.22.531,jersey_experiment_5_v3,2023.2.2,Win32,84.03361345,,,,,,,,,,,,,,,,304.0055,305.5583,305.5584,308.3937,return,0.4814,,25.390625,0,54,54,5,1,FBP-YG-81.png,0.35,1.2,6,0.75,,,,,,,,,,,,,,,,,,,,,,,,,,,,,,,,,,,,,,,,,,,,,
,,,,,V3_071,18,Female,2024-11-16_18h00.22.531,jersey_experiment_5_v3,2023.2.2,Win32,84.03361345,,,,,,,,,,,,,,,,308.3939,309.9465,309.9466,312.7467,return,1.8115,,40.75520833,0,55,55,12,1,FBP-YG-91.png,0.4,1.2,13,0.75,,,,,,,,,,,,,,,,,,,,,,,,,,,,,,,,,,,,,,,,,,,,,
,,,,,V3_071,18,Female,2024-11-16_18h00.22.531,jersey_experiment_5_v3,2023.2.2,Win32,84.03361345,,,,,,,,,,,,,,,,312.747,314.2996,314.2996,317.7352,return,1.1798,,11.58854167,0,56,56,55,1,FBP-RB-19.png,0.35,1.2,56,0.75,,,,,,,,,,,,,,,,,,,,,,,,,,,,,,,,,,,,,,,,,,,,,
,,,,,V3_071,18,Female,2024-11-16_18h00.22.531,jersey_experiment_5_v3,2023.2.2,Win32,84.03361345,,,,,,,,,,,,,,,,317.7354,319.2881,319.2882,322.0175,return,0.5497,,8.463541667,0,57,57,45,1,FBP-RB-17.png,0.35,1.2,46,0.75,,,,,,,,,,,,,,,,,,,,,,,,,,,,,,,,,,,,,,,,,,,,,
,,,,,V3_071,18,Female,2024-11-16_18h00.22.531,jersey_experiment_5_v3,2023.2.2,Win32,84.03361345,,,,,,,,,,,,,,,,322.0177,323.3117,323.3118,325.147,return,0.2446,,50.26041667,0,58,58,34,1,FBP-OG-17.png,0.45,1.2,35,0.5,,,,,,,,,,,,,,,,,,,,,,,,,,,,,,,,,,,,,,,,,,,,,
,,,,,V3_071,18,Female,2024-11-16_18h00.22.531,jersey_experiment_5_v3,2023.2.2,Win32,84.03361345,,,,,,,,,,,,,,,,325.1473,326.7002,326.7003,328.9355,return,0.3556,,10.9375,0,59,59,25,1,FBP-PT-19.png,0.35,1.2,26,0.75,,,,,,,,,,,,,,,,,,,,,,,,,,,,,,,,,,,,,,,,,,,,,
,,,,,V3_071,18,Female,2024-11-16_18h00.22.531,jersey_experiment_5_v3,2023.2.2,Win32,84.03361345,,,,,,,,,,,,,,,,328.9369,330.4886,330.4886,332.0063,return,0.2982,,6.119791667,,,,,,FBP-YG-18.png,0.35,1.2,6,0.75,0,0,0,5,1,,,,,,,,,,,,,,,,,,,,,,,,,,,,,,,,,,,,,,,,
,,,,,V3_071,18,Female,2024-11-16_18h00.22.531,jersey_experiment_5_v3,2023.2.2,Win32,84.03361345,,,,,,,,,,,,,,,,332.0066,333.5593,333.5593,336.4417,return,0.3163,,73.69791667,,,,,,FBP-YG-17.png,0.45,1.2,5,0.75,0,1,1,4,1,,,,,,,,,,,,,,,,,,,,,,,,,,,,,,,,,,,,,,,,
,,,,,V3_071,18,Female,2024-11-16_18h00.22.531,jersey_experiment_5_v3,2023.2.2,Win32,84.03361345,,,,,,,,,,,,,,,,336.4419,337.7358,337.7358,339.3007,return,0.2764,,74.08854167,,,,,,FBP-OG-81.png,0.45,1.2,40,0.5,0,2,2,39,1,,,,,,,,,,,,,,,,,,,,,,,,,,,,,,,,,,,,,,,,
,,,,,V3_071,18,Female,2024-11-16_18h00.22.531,jersey_experiment_5_v3,2023.2.2,Win32,84.03361345,,,,,,,,,,,,,,,,339.3009,340.8537,340.8537,344.6419,return,0.279,,25,,,,,,FBP-PT-81.png,0.4,1.2,23,0.75,0,3,3,22,1,,,,,,,,,,,,,,,,,,,,,,,,,,,,,,,,,,,,,,,,
,,,,,V3_071,18,Female,2024-11-16_18h00.22.531,jersey_experiment_5_v3,2023.2.2,Win32,84.03361345,,,,,,,,,,,,,,,,344.6422,346.1951,346.1951,347.9009,return,0.2199,,50.26041667,,,,,,FBP-PT-71.png,0.43,1.2,19,0.75,0,4,4,18,1,,,,,,,,,,,,,,,,,,,,,,,,,,,,,,,,,,,,,,,,
,,,,,V3_071,18,Female,2024-11-16_18h00.22.531,jersey_experiment_5_v3,2023.2.2,Win32,84.03361345,,,,,,,,,,,,,,,,347.9012,349.4539,349.4539,352.8895,return,0.2109,,24.34895833,,,,,,FBP-RB-91.png,0.35,1.2,56,0.75,0,5,5,55,1,,,,,,,,,,,,,,,,,,,,,,,,,,,,,,,,,,,,,,,,
,,,,,V3_071,18,Female,2024-11-16_18h00.22.531,jersey_experiment_5_v3,2023.2.2,Win32,84.03361345,,,,,,,,,,,,,,,,352.8898,354.4423,354.4424,358.1836,return,0.2701,,54.81770833,,,,,,FBP-RB-91.png,0.43,1.2,59,0.75,0,6,6,58,1,,,,,,,,,,,,,,,,,,,,,,,,,,,,,,,,,,,,,,,,
,,,,,V3_071,18,Female,2024-11-16_18h00.22.531,jersey_experiment_5_v3,2023.2.2,Win32,84.03361345,,,,,,,,,,,,,,,,358.1838,359.7367,359.7368,362.4191,return,2.0175,,42.70833333,,,,,,FBP-RB-91.png,0.4,1.2,58,0.75,0,7,7,57,1,,,,,,,,,,,,,,,,,,,,,,,,,,,,,,,,,,,,,,,,
,,,,,V3_071,18,Female,2024-11-16_18h00.22.531,jersey_experiment_5_v3,2023.2.2,Win32,84.03361345,,,,,,,,,,,,,,,,362.4194,363.9721,363.9722,365.7133,return,0.2207,,49.73958333,,,,,,FBP-YG-19.png,0.43,1.2,14,0.75,0,8,8,13,1,,,,,,,,,,,,,,,,,,,,,,,,,,,,,,,,,,,,,,,,
,,,,,V3_071,18,Female,2024-11-16_18h00.22.531,jersey_experiment_5_v3,2023.2.2,Win32,84.03361345,,,,,,,,,,,,,,,,365.7135,367.0076,367.0076,368.9958,return,0.277,,25.13020833,,,,,,FBP-OG-71.png,0.37,1.2,32,0.5,0,9,9,31,1,,,,,,,,,,,,,,,,,,,,,,,,,,,,,,,,,,,,,,,,
,,,,,V3_071,18,Female,2024-11-16_18h00.22.531,jersey_experiment_5_v3,2023.2.2,Win32,84.03361345,,,,,,,,,,,,,,,,368.9961,370.5488,370.5489,373.043,return,0.3483,,10.28645833,,,,,,FBP-RB-71.png,0.35,1.2,46,0.75,0,10,10,45,1,,,,,,,,,,,,,,,,,,,,,,,,,,,,,,,,,,,,,,,,
,,,,,V3_071,18,Female,2024-11-16_18h00.22.531,jersey_experiment_5_v3,2023.2.2,Win32,84.03361345,,,,,,,,,,,,,,,,373.0432,374.5961,374.5961,376.2196,return,0.142,,28.125,,,,,,FBP-YG-19.png,0.4,1.2,13,0.75,0,11,11,12,1,,,,,,,,,,,,,,,,,,,,,,,,,,,,,,,,,,,,,,,,
,,,,,V3_071,18,Female,2024-11-16_18h00.22.531,jersey_experiment_5_v3,2023.2.2,Win32,84.03361345,,,,,,,,,,,,,,,,376.2198,377.7726,377.7726,378.8904,return,0.1882,,29.16666667,,,,,,FBP-RB-81.png,0.4,1.2,53,0.75,0,12,12,52,1,,,,,,,,,,,,,,,,,,,,,,,,,,,,,,,,,,,,,,,,
,,,,,V3_071,18,Female,2024-11-16_18h00.22.531,jersey_experiment_5_v3,2023.2.2,Win32,84.03361345,,,,,,,,,,,,,,,,378.8907,380.4434,380.4434,382.5728,return,0.2044,,22.78645833,,,,,,FBP-RB-81.png,0.37,1.2,52,0.75,0,13,13,51,1,,,,,,,,,,,,,,,,,,,,,,,,,,,,,,,,,,,,,,,,
,,,,,V3_071,18,Female,2024-11-16_18h00.22.531,jersey_experiment_5_v3,2023.2.2,Win32,84.03361345,,,,,,,,,,,,,,,,382.5731,383.867,383.8671,386.1847,return,0.1898,,71.09375,,,,,,FBP-OG-71.png,0.45,1.2,35,0.5,0,14,14,34,1,,,,,,,,,,,,,,,,,,,,,,,,,,,,,,,,,,,,,,,,
,,,,,V3_071,18,Female,2024-11-16_18h00.22.531,jersey_experiment_5_v3,2023.2.2,Win32,84.03361345,,,,,,,,,,,,,,,,386.185,387.4789,387.479,389.3849,return,0.1426,,60.41666667,,,,,,FBP-OG-71.png,0.4,1.2,33,0.5,0,15,15,32,1,,,,,,,,,,,,,,,,,,,,,,,,,,,,,,,,,,,,,,,,
,,,,,V3_071,18,Female,2024-11-16_18h00.22.531,jersey_experiment_5_v3,2023.2.2,Win32,84.03361345,,,,,,,,,,,,,,,,389.3851,390.9379,390.9379,392.4085,return,0.2357,,72.13541667,,,,,,FBP-YG-18.png,0.45,1.2,10,0.75,0,16,16,9,1,,,,,,,,,,,,,,,,,,,,,,,,,,,,,,,,,,,,,,,,
,,,,,V3_071,18,Female,2024-11-16_18h00.22.531,jersey_experiment_5_v3,2023.2.2,Win32,84.03361345,,,,,,,,,,,,,,,,392.4088,393.7027,393.7027,396.3968,return,1.2708,,71.74479167,,,,,,FBP-OG-81.png,0.43,1.2,39,0.5,0,17,17,38,1,,,,,,,,,,,,,,,,,,,,,,,,,,,,,,,,,,,,,,,,
,,,,,V3_071,18,Female,2024-11-16_18h00.22.531,jersey_experiment_5_v3,2023.2.2,Win32,84.03361345,,,,,,,,,,,,,,,,396.397,397.95,397.95,399.8323,return,0.7636,,86.71875,,,,,,FBP-RB-71.png,0.45,1.2,50,0.75,0,18,18,49,1,,,,,,,,,,,,,,,,,,,,,,,,,,,,,,,,,,,,,,,,
,,,,,V3_071,18,Female,2024-11-16_18h00.22.531,jersey_experiment_5_v3,2023.2.2,Win32,84.03361345,,,,,,,,,,,,,,,,399.8325,401.3853,401.3854,403.8207,return,0.1332,,23.69791667,,,,,,FBP-PT-71.png,0.35,1.2,16,0.75,0,19,19,15,1,,,,,,,,,,,,,,,,,,,,,,,,,,,,,,,,,,,,,,,,
,,,,,V3_071,18,Female,2024-11-16_18h00.22.531,jersey_experiment_5_v3,2023.2.2,Win32,84.03361345,,,,,,,,,,,,,,,,403.8209,405.3736,405.3737,407.0914,return,0.2303,,86.71875,,,,,,FBP-PT-91.png,0.45,1.2,30,0.75,0,20,20,29,1,,,,,,,,,,,,,,,,,,,,,,,,,,,,,,,,,,,,,,,,
,,,,,V3_071,18,Female,2024-11-16_18h00.22.531,jersey_experiment_5_v3,2023.2.2,Win32,84.03361345,,,,,,,,,,,,,,,,407.0916,408.3856,408.3857,409.9385,return,0.2414,,17.96875,,,,,,FBP-OG-91.png,0.35,1.2,41,0.5,0,21,21,40,1,,,,,,,,,,,,,,,,,,,,,,,,,,,,,,,,,,,,,,,,
,,,,,V3_071,18,Female,2024-11-16_18h00.22.531,jersey_experiment_5_v3,2023.2.2,Win32,84.03361345,,,,,,,,,,,,,,,,409.9386,411.4799,411.4799,412.8093,return,0.2029,,24.609375,,,,,,FBP-RB-71.png,0.37,1.2,47,0.75,0,22,22,46,1,,,,,,,,,,,,,,,,,,,,,,,,,,,,,,,,,,,,,,,,
,,,,,V3_071,18,Female,2024-11-16_18h00.22.531,jersey_experiment_5_v3,2023.2.2,Win32,84.03361345,,,,,,,,,,,,,,,,412.8096,414.1034,414.1034,417.7508,return,0.1211,,42.05729167,,,,,,FBP-OG-81.png,0.4,1.2,38,0.5,0,23,23,37,1,,,,,,,,,,,,,,,,,,,,,,,,,,,,,,,,,,,,,,,,
,,,,,V3_071,18,Female,2024-11-16_18h00.22.531,jersey_experiment_5_v3,2023.2.2,Win32,84.03361345,,,,,,,,,,,,,,,,417.751,419.3038,419.3038,421.4331,return,0.4334,,83.33333333,,,,,,FBP-RB-81.png,0.45,1.2,55,0.75,0,24,24,54,1,,,,,,,,,,,,,,,,,,,,,,,,,,,,,,,,,,,,,,,,
,,,,,V3_071,18,Female,2024-11-16_18h00.22.531,jersey_experiment_5_v3,2023.2.2,Win32,84.03361345,,,,,,,,,,,,,,,,421.4334,422.986,422.986,424.598,return,0.2748,,82.94270833,,,,,,FBP-RB-81.png,0.43,1.2,54,0.75,0,25,25,53,1,,,,,,,,,,,,,,,,,,,,,,,,,,,,,,,,,,,,,,,,
,,,,,V3_071,18,Female,2024-11-16_18h00.22.531,jersey_experiment_5_v3,2023.2.2,Win32,84.03361345,,,,,,,,,,,,,,,,424.5982,426.151,426.151,428.2687,return,0.2505,,91.796875,,,,,,FBP-RB-91.png,0.45,1.2,60,0.75,0,26,26,59,1,,,,,,,,,,,,,,,,,,,,,,,,,,,,,,,,,,,,,,,,
,,,,,V3_071,18,Female,2024-11-16_18h00.22.531,jersey_experiment_5_v3,2023.2.2,Win32,84.03361345,,,,,,,,,,,,,,,,428.269,429.8217,429.8217,432.3747,return,0.2003,,61.328125,,,,,,FBP-PT-81.png,0.43,1.2,24,0.75,0,27,27,23,1,,,,,,,,,,,,,,,,,,,,,,,,,,,,,,,,,,,,,,,,
,,,,,V3_071,18,Female,2024-11-16_18h00.22.531,jersey_experiment_5_v3,2023.2.2,Win32,84.03361345,,,,,,,,,,,,,,,,432.3749,433.9278,433.9279,435.3513,return,0.1087,,35.546875,,,,,,FBP-YG-18.png,0.37,1.2,7,0.75,0,28,28,6,1,,,,,,,,,,,,,,,,,,,,,,,,,,,,,,,,,,,,,,,,
,,,,,V3_071,18,Female,2024-11-16_18h00.22.531,jersey_experiment_5_v3,2023.2.2,Win32,84.03361345,,,,,,,,,,,,,,,,435.3515,436.6453,436.6453,437.7513,return,0.18,,35.80729167,,,,,,FBP-OG-81.png,0.37,1.2,37,0.5,0,29,29,36,1,,,,,,,,,,,,,,,,,,,,,,,,,,,,,,,,,,,,,,,,
,,,,,V3_071,18,Female,2024-11-16_18h00.22.531,jersey_experiment_5_v3,2023.2.2,Win32,84.03361345,,,,,,,,,,,,,,,,437.7517,439.3042,439.3043,441.0338,return,0.3065,,11.71875,,,,,,FBP-PT-91.png,0.35,1.2,26,0.75,0,30,30,25,1,,,,,,,,,,,,,,,,,,,,,,,,,,,,,,,,,,,,,,,,
,,,,,V3_071,18,Female,2024-11-16_18h00.22.531,jersey_experiment_5_v3,2023.2.2,Win32,84.03361345,,,,,,,,,,,,,,,,441.0341,442.5867,442.5868,443.7868,return,0.0944,,25.78125,,,,,,FBP-PT-71.png,0.4,1.2,18,0.75,0,31,31,17,1,,,,,,,,,,,,,,,,,,,,,,,,,,,,,,,,,,,,,,,,
,,,,,V3_071,18,Female,2024-11-16_18h00.22.531,jersey_experiment_5_v3,2023.2.2,Win32,84.03361345,,,,,,,,,,,,,,,,443.7871,445.0809,445.0809,448.7872,return,1.4405,,40.49479167,,,,,,FBP-OG-71.png,0.43,1.2,34,0.5,0,32,32,33,1,,,,,,,,,,,,,,,,,,,,,,,,,,,,,,,,,,,,,,,,
,,,,,V3_071,18,Female,2024-11-16_18h00.22.531,jersey_experiment_5_v3,2023.2.2,Win32,84.03361345,,,,,,,,,,,,,,,,448.7874,450.3401,450.3402,451.5166,return,0.1334,,39.84375,,,,,,FBP-RB-71.png,0.43,1.2,49,0.75,0,33,33,48,1,,,,,,,,,,,,,,,,,,,,,,,,,,,,,,,,,,,,,,,,
,,,,,V3_071,18,Female,2024-11-16_18h00.22.531,jersey_experiment_5_v3,2023.2.2,Win32,84.03361345,,,,,,,,,,,,,,,,451.5168,452.8106,452.8107,454.2461,return,0.1572,,16.66666667,,,,,,FBP-OG-81.png,0.35,1.2,36,0.5,0,34,34,35,1,,,,,,,,,,,,,,,,,,,,,,,,,,,,,,,,,,,,,,,,
,,,,,V3_071,18,Female,2024-11-16_18h00.22.531,jersey_experiment_5_v3,2023.2.2,Win32,84.03361345,,,,,,,,,,,,,,,,454.2463,455.799,455.799,459.0579,return,0.4399,,50.52083333,,,,,,FBP-PT-91.png,0.43,1.2,29,0.75,0,35,35,28,1,,,,,,,,,,,,,,,,,,,,,,,,,,,,,,,,,,,,,,,,
,,,,,V3_071,18,Female,2024-11-16_18h00.22.531,jersey_experiment_5_v3,2023.2.2,Win32,84.03361345,,,,,,,,,,,,,,,,459.0583,460.611,460.611,462.7405,return,0.1198,,33.85416667,,,,,,FBP-PT-91.png,0.4,1.2,28,0.75,0,36,36,27,1,,,,,,,,,,,,,,,,,,,,,,,,,,,,,,,,,,,,,,,,
,,,,,V3_071,18,Female,2024-11-16_18h00.22.531,jersey_experiment_5_v3,2023.2.2,Win32,84.03361345,,,,,,,,,,,,,,,,462.7408,464.2936,464.2936,467.3525,return,0.1328,,24.08854167,,,,,,FBP-YG-19.png,0.37,1.2,12,0.75,0,37,37,11,1,,,,,,,,,,,,,,,,,,,,,,,,,,,,,,,,,,,,,,,,
,,,,,V3_071,18,Female,2024-11-16_18h00.22.531,jersey_experiment_5_v3,2023.2.2,Win32,84.03361345,,,,,,,,,,,,,,,,467.3527,468.9054,468.9055,470.5643,return,0.1469,,24.86979167,,,,,,FBP-YG-17.png,0.35,1.2,1,0.75,0,38,38,0,1,,,,,,,,,,,,,,,,,,,,,,,,,,,,,,,,,,,,,,,,
,,,,,V3_071,18,Female,2024-11-16_18h00.22.531,jersey_experiment_5_v3,2023.2.2,Win32,84.03361345,,,,,,,,,,,,,,,,470.5645,471.8585,471.8585,475.9646,return,0.5651,,34.50520833,,,,,,FBP-OG-91.png,0.37,1.2,42,0.5,0,39,39,41,1,,,,,,,,,,,,,,,,,,,,,,,,,,,,,,,,,,,,,,,,
,,,,,V3_071,18,Female,2024-11-16_18h00.22.531,jersey_experiment_5_v3,2023.2.2,Win32,84.03361345,,,,,,,,,,,,,,,,475.965,477.5175,477.5175,479.2351,return,0.1834,,61.06770833,,,,,,FBP-YG-18.png,0.43,1.2,9,0.75,0,40,40,8,1,,,,,,,,,,,,,,,,,,,,,,,,,,,,,,,,,,,,,,,,
,,,,,V3_071,18,Female,2024-11-16_18h00.22.531,jersey_experiment_5_v3,2023.2.2,Win32,84.03361345,,,,,,,,,,,,,,,,479.2354,480.5295,480.5295,486.2472,return,2.9558,,50,,,,,,FBP-OG-91.png,0.4,1.2,43,0.5,0,41,41,42,1,,,,,,,,,,,,,,,,,,,,,,,,,,,,,,,,,,,,,,,,
,,,,,V3_071,18,Female,2024-11-16_18h00.22.531,jersey_experiment_5_v3,2023.2.2,Win32,84.03361345,,,,,,,,,,,,,,,,486.2476,487.8002,487.8003,489.5651,return,0.1648,,75,,,,,,FBP-PT-71.png,0.45,1.2,20,0.75,0,42,42,19,1,,,,,,,,,,,,,,,,,,,,,,,,,,,,,,,,,,,,,,,,
,,,,,V3_071,18,Female,2024-11-16_18h00.22.531,jersey_experiment_5_v3,2023.2.2,Win32,84.03361345,,,,,,,,,,,,,,,,489.5653,491.118,491.118,493.0592,return,0.4176,,31.11979167,,,,,,FBP-RB-91.png,0.37,1.2,57,0.75,0,43,43,56,1,,,,,,,,,,,,,,,,,,,,,,,,,,,,,,,,,,,,,,,,
,,,,,V3_071,18,Female,2024-11-16_18h00.22.531,jersey_experiment_5_v3,2023.2.2,Win32,84.03361345,,,,,,,,,,,,,,,,493.0594,494.6123,494.6123,497.93,return,0.103,,39.19270833,,,,,,FBP-YG-17.png,0.4,1.2,3,0.75,0,44,44,2,1,,,,,,,,,,,,,,,,,,,,,,,,,,,,,,,,,,,,,,,,
,,,,,V3_071,18,Female,2024-11-16_18h00.22.531,jersey_experiment_5_v3,2023.2.2,Win32,84.03361345,,,,,,,,,,,,,,,,497.9304,499.483,499.483,502.1774,return,1.7855,,15.234375,,,,,,FBP-RB-81.png,0.35,1.2,51,0.75,0,45,45,50,1,,,,,,,,,,,,,,,,,,,,,,,,,,,,,,,,,,,,,,,,
,,,,,V3_071,18,Female,2024-11-16_18h00.22.531,jersey_experiment_5_v3,2023.2.2,Win32,84.03361345,,,,,,,,,,,,,,,,502.1777,503.7304,503.7304,507.7657,return,0.3914,,79.42708333,,,,,,FBP-YG-19.png,0.45,1.2,15,0.75,0,46,46,14,1,,,,,,,,,,,,,,,,,,,,,,,,,,,,,,,,,,,,,,,,
,,,,,V3_071,18,Female,2024-11-16_18h00.22.531,jersey_experiment_5_v3,2023.2.2,Win32,84.03361345,,,,,,,,,,,,,,,,507.766,509.3187,509.3188,512.3305,return,0.3634,,23.69791667,,,,,,FBP-PT-81.png,0.35,1.2,21,0.75,0,47,47,20,1,,,,,,,,,,,,,,,,,,,,,,,,,,,,,,,,,,,,,,,,
,,,,,V3_071,18,Female,2024-11-16_18h00.22.531,jersey_experiment_5_v3,2023.2.2,Win32,84.03361345,,,,,,,,,,,,,,,,512.3309,513.8836,513.8836,515.4837,return,0.118,,26.43229167,,,,,,FBP-YG-19.png,0.35,1.2,11,0.75,0,48,48,10,1,,,,,,,,,,,,,,,,,,,,,,,,,,,,,,,,,,,,,,,,
,,,,,V3_071,18,Female,2024-11-16_18h00.22.531,jersey_experiment_5_v3,2023.2.2,Win32,84.03361345,,,,,,,,,,,,,,,,515.484,517.0366,517.0367,518.5661,return,0.1559,,50,,,,,,FBP-YG-18.png,0.4,1.2,8,0.75,0,49,49,7,1,,,,,,,,,,,,,,,,,,,,,,,,,,,,,,,,,,,,,,,,
,,,,,V3_071,18,Female,2024-11-16_18h00.22.531,jersey_experiment_5_v3,2023.2.2,Win32,84.03361345,,,,,,,,,,,,,,,,518.5664,520.1191,520.1192,521.3191,return,0.2473,,40.625,,,,,,FBP-PT-71.png,0.37,1.2,17,0.75,0,50,50,16,1,,,,,,,,,,,,,,,,,,,,,,,,,,,,,,,,,,,,,,,,
,,,,,V3_071,18,Female,2024-11-16_18h00.22.531,jersey_experiment_5_v3,2023.2.2,Win32,84.03361345,,,,,,,,,,,,,,,,521.3193,522.8722,522.8722,525.0369,return,1.0453,,57.421875,,,,,,FBP-YG-17.png,0.43,1.2,4,0.75,0,51,51,3,1,,,,,,,,,,,,,,,,,,,,,,,,,,,,,,,,,,,,,,,,
,,,,,V3_071,18,Female,2024-11-16_18h00.22.531,jersey_experiment_5_v3,2023.2.2,Win32,84.03361345,,,,,,,,,,,,,,,,525.0372,526.59,526.59,532.2136,return,1.2987,,45.05208333,,,,,,FBP-PT-81.png,0.37,1.2,22,0.75,0,52,52,21,1,,,,,,,,,,,,,,,,,,,,,,,,,,,,,,,,,,,,,,,,
,,,,,V3_071,18,Female,2024-11-16_18h00.22.531,jersey_experiment_5_v3,2023.2.2,Win32,84.03361345,,,,,,,,,,,,,,,,532.2139,533.7667,533.7667,537.9081,return,0.1944,,46.09375,,,,,,FBP-PT-91.png,0.37,1.2,27,0.75,0,53,53,26,1,,,,,,,,,,,,,,,,,,,,,,,,,,,,,,,,,,,,,,,,
,,,,,V3_071,18,Female,2024-11-16_18h00.22.531,jersey_experiment_5_v3,2023.2.2,Win32,84.03361345,,,,,,,,,,,,,,,,537.9083,539.2022,539.2022,542.2024,return,1.0503,,56.25,,,,,,FBP-OG-91.png,0.43,1.2,44,0.5,0,54,54,43,1,,,,,,,,,,,,,,,,,,,,,,,,,,,,,,,,,,,,,,,,
,,,,,V3_071,18,Female,2024-11-16_18h00.22.531,jersey_experiment_5_v3,2023.2.2,Win32,84.03361345,,,,,,,,,,,,,,,,542.2026,543.7553,543.7553,547.3084,return,0.1551,,26.5625,,,,,,FBP-YG-17.png,0.37,1.2,2,0.75,0,55,55,1,1,,,,,,,,,,,,,,,,,,,,,,,,,,,,,,,,,,,,,,,,
,,,,,V3_071,18,Female,2024-11-16_18h00.22.531,jersey_experiment_5_v3,2023.2.2,Win32,84.03361345,,,,,,,,,,,,,,,,547.3086,548.8614,548.8614,552.8026,return,0.2042,,50.13020833,,,,,,FBP-RB-71.png,0.4,1.2,48,0.75,0,56,56,47,1,,,,,,,,,,,,,,,,,,,,,,,,,,,,,,,,,,,,,,,,
,,,,,V3_071,18,Female,2024-11-16_18h00.22.531,jersey_experiment_5_v3,2023.2.2,Win32,84.03361345,,,,,,,,,,,,,,,,552.8029,554.0967,554.0968,557.5793,return,0.1887,,25.91145833,,,,,,FBP-OG-71.png,0.35,1.2,31,0.5,0,57,57,30,1,,,,,,,,,,,,,,,,,,,,,,,,,,,,,,,,,,,,,,,,
,,,,,V3_071,18,Female,2024-11-16_18h00.22.531,jersey_experiment_5_v3,2023.2.2,Win32,84.03361345,,,,,,,,,,,,,,,,557.5796,559.1324,559.1325,561.0618,return,0.2021,,69.40104167,,,,,,FBP-PT-81.png,0.45,1.2,25,0.75,0,58,58,24,1,,,,,,,,,,,,,,,,,,,,,,,,,,,,,,,,,,,,,,,,
,,,,,V3_071,18,Female,2024-11-16_18h00.22.531,jersey_experiment_5_v3,2023.2.2,Win32,84.03361345,,,,,,,,,,,,,,,,561.0621,562.3558,562.3559,563.8265,return,0.1703,,75,,,,,,FBP-OG-91.png,0.45,1.2,45,0.5,0,59,59,44,1,,,,,,,,,,,,,,,,,,,,,,,,,,,,,,,,,,,,,,,,
,,,,,V3_071,18,Female,2024-11-16_18h00.22.531,jersey_experiment_5_v3,2023.2.2,Win32,84.03361345,,,,,,,,,,,,,,,,,,,,,,,,,,,,,,,,,,,,,,,563.8266,683.8195,,,,,,,,,,,,,,,,,,,,,,,,,,,,,,,,,,,,,,
,,,,,V3_071,18,Female,2024-11-16_18h00.22.531,jersey_experiment_5_v3,2023.2.2,Win32,84.03361345,,,,,,,,,,,,,,,,,,,,,,,,,,,,,,,,,,,,,,,,,683.8196,692.2196,return,8.3843,,,,,,,,,,,,,,,,,,,,,,,,,,,,,,,,,,
,,,,,V3_071,18,Female,2024-11-16_18h00.22.531,jersey_experiment_5_v3,2023.2.2,Win32,84.03361345,,,,,,,,,,,,,,,,692.221,693.7727,693.7727,695.9728,return,0.1198,,49.86979167,,,,,,FBP-OG-18.png,0.4,1.2,38,0.75,,,,,,,,,,,,,0,0,0,37,1,,,,,,,,,,,,,,,,,,,,,,,,,,,,
,,,,,V3_071,18,Female,2024-11-16_18h00.22.531,jersey_experiment_5_v3,2023.2.2,Win32,84.03361345,,,,,,,,,,,,,,,,695.9731,697.2668,697.2668,699.6435,return,0.21,,55.20833333,,,,,,FBP-PT-18.png,0.4,1.2,23,0.5,,,,,,,,,,,,,0,1,1,22,1,,,,,,,,,,,,,,,,,,,,,,,,,,,,
,,,,,V3_071,18,Female,2024-11-16_18h00.22.531,jersey_experiment_5_v3,2023.2.2,Win32,84.03361345,,,,,,,,,,,,,,,,699.6438,701.1964,701.1964,702.6317,return,0.1335,,49.86979167,,,,,,FBP-OG-17.png,0.4,1.2,33,0.75,,,,,,,,,,,,,0,2,2,32,1,,,,,,,,,,,,,,,,,,,,,,,,,,,,
,,,,,V3_071,18,Female,2024-11-16_18h00.22.531,jersey_experiment_5_v3,2023.2.2,Win32,84.03361345,,,,,,,,,,,,,,,,702.6319,703.9259,703.9261,705.4437,return,0.1947,,65.36458333,,,,,,FBP-PT-17.png,0.43,1.2,19,0.5,,,,,,,,,,,,,0,3,3,18,1,,,,,,,,,,,,,,,,,,,,,,,,,,,,
,,,,,V3_071,18,Female,2024-11-16_18h00.22.531,jersey_experiment_5_v3,2023.2.2,Win32,84.03361345,,,,,,,,,,,,,,,,705.4439,706.7379,706.7379,707.9731,return,0.3932,,85.67708333,,,,,,FBP-RB-17.png,0.45,1.2,50,0.5,,,,,,,,,,,,,0,4,4,49,1,,,,,,,,,,,,,,,,,,,,,,,,,,,,
,,,,,V3_071,18,Female,2024-11-16_18h00.22.531,jersey_experiment_5_v3,2023.2.2,Win32,84.03361345,,,,,,,,,,,,,,,,707.9734,709.2674,709.2674,709.8908,return,0.1721,,85.546875,,,,,,FBP-YG-81.png,0.45,1.2,10,0.5,,,,,,,,,,,,,0,5,5,9,1,,,,,,,,,,,,,,,,,,,,,,,,,,,,
,,,,,V3_071,18,Female,2024-11-16_18h00.22.531,jersey_experiment_5_v3,2023.2.2,Win32,84.03361345,,,,,,,,,,,,,,,,709.891,711.4323,711.4323,713.1969,return,0.2493,,25.65104167,,,,,,FBP-OG-18.png,0.35,1.2,36,0.75,,,,,,,,,,,,,0,6,6,35,1,,,,,,,,,,,,,,,,,,,,,,,,,,,,
,,,,,V3_071,18,Female,2024-11-16_18h00.22.531,jersey_experiment_5_v3,2023.2.2,Win32,84.03361345,,,,,,,,,,,,,,,,713.1971,714.4911,714.4912,716.3381,return,0.5021,,68.75,,,,,,FBP-YG-81.png,0.43,1.2,9,0.5,,,,,,,,,,,,,0,7,7,8,1,,,,,,,,,,,,,,,,,,,,,,,,,,,,
,,,,,V3_071,18,Female,2024-11-16_18h00.22.531,jersey_experiment_5_v3,2023.2.2,Win32,84.03361345,,,,,,,,,,,,,,,,716.3384,717.8914,717.8914,719.5972,return,0.1562,,26.171875,,,,,,FBP-OG-18.png,0.37,1.2,37,0.75,,,,,,,,,,,,,0,8,8,36,1,,,,,,,,,,,,,,,,,,,,,,,,,,,,
,,,,,V3_071,18,Female,2024-11-16_18h00.22.531,jersey_experiment_5_v3,2023.2.2,Win32,84.03361345,,,,,,,,,,,,,,,,719.5974,721.1501,721.1501,722.8679,return,0.1225,,26.171875,,,,,,FBP-OG-17.png,0.35,1.2,31,0.75,,,,,,,,,,,,,0,9,9,30,1,,,,,,,,,,,,,,,,,,,,,,,,,,,,
,,,,,V3_071,18,Female,2024-11-16_18h00.22.531,jersey_experiment_5_v3,2023.2.2,Win32,84.03361345,,,,,,,,,,,,,,,,722.8681,724.162,724.1621,724.8091,return,0.1758,,26.04166667,,,,,,FBP-YG-71.png,0.35,1.2,1,0.5,,,,,,,,,,,,,0,10,10,0,1,,,,,,,,,,,,,,,,,,,,,,,,,,,,
,,,,,V3_071,18,Female,2024-11-16_18h00.22.531,jersey_experiment_5_v3,2023.2.2,Win32,84.03361345,,,,,,,,,,,,,,,,724.8092,726.1032,726.1033,727.7033,return,0.1441,,36.84895833,,,,,,FBP-PT-19.png,0.37,1.2,27,0.5,,,,,,,,,,,,,0,11,11,26,1,,,,,,,,,,,,,,,,,,,,,,,,,,,,
,,,,,V3_071,18,Female,2024-11-16_18h00.22.531,jersey_experiment_5_v3,2023.2.2,Win32,84.03361345,,,,,,,,,,,,,,,,727.7037,728.9976,728.9976,731.2917,return,0.2122,,36.84895833,,,,,,FBP-PT-17.png,0.35,1.2,16,0.5,,,,,,,,,,,,,0,12,12,15,1,,,,,,,,,,,,,,,,,,,,,,,,,,,,
,,,,,V3_071,18,Female,2024-11-16_18h00.22.531,jersey_experiment_5_v3,2023.2.2,Win32,84.03361345,,,,,,,,,,,,,,,,731.2919,732.5859,732.5859,734.2448,return,0.1547,,47.52604167,,,,,,FBP-RB-18.png,0.4,1.2,53,0.5,,,,,,,,,,,,,0,13,13,52,1,,,,,,,,,,,,,,,,,,,,,,,,,,,,
,,,,,V3_071,18,Female,2024-11-16_18h00.22.531,jersey_experiment_5_v3,2023.2.2,Win32,84.03361345,,,,,,,,,,,,,,,,734.245,735.7979,735.7979,737.4684,return,0.0949,,75.52083333,,,,,,FBP-OG-17.png,0.45,1.2,35,0.75,,,,,,,,,,,,,0,14,14,34,1,,,,,,,,,,,,,,,,,,,,,,,,,,,,
,,,,,V3_071,18,Female,2024-11-16_18h00.22.531,jersey_experiment_5_v3,2023.2.2,Win32,84.03361345,,,,,,,,,,,,,,,,737.4687,738.7625,738.7625,740.7274,return,0.1329,,56.51041667,,,,,,FBP-YG-71.png,0.4,1.2,3,0.5,,,,,,,,,,,,,0,15,15,2,1,,,,,,,,,,,,,,,,,,,,,,,,,,,,
,,,,,V3_071,18,Female,2024-11-16_18h00.22.531,jersey_experiment_5_v3,2023.2.2,Win32,84.03361345,,,,,,,,,,,,,,,,740.7277,742.0215,742.0216,743.2686,return,0.1202,,61.19791667,,,,,,FBP-RB-17.png,0.4,1.2,48,0.5,,,,,,,,,,,,,0,16,16,47,1,,,,,,,,,,,,,,,,,,,,,,,,,,,,
,,,,,V3_071,18,Female,2024-11-16_18h00.22.531,jersey_experiment_5_v3,2023.2.2,Win32,84.03361345,,,,,,,,,,,,,,,,743.2689,744.563,744.563,745.8805,return,0.1424,,27.08333333,,,,,,FBP-PT-19.png,0.35,1.2,26,0.5,,,,,,,,,,,,,0,17,17,25,1,,,,,,,,,,,,,,,,,,,,,,,,,,,,
,,,,,V3_071,18,Female,2024-11-16_18h00.22.531,jersey_experiment_5_v3,2023.2.2,Win32,84.03361345,,,,,,,,,,,,,,,,745.8807,747.1747,747.1747,748.8334,return,0.1264,,38.41145833,,,,,,FBP-YG-71.png,0.37,1.2,2,0.5,,,,,,,,,,,,,0,18,18,1,1,,,,,,,,,,,,,,,,,,,,,,,,,,,,
,,,,,V3_071,18,Female,2024-11-16_18h00.22.531,jersey_experiment_5_v3,2023.2.2,Win32,84.03361345,,,,,,,,,,,,,,,,748.8335,750.1276,750.1277,751.1865,return,0.466,,37.5,,,,,,FBP-RB-18.png,0.37,1.2,52,0.5,,,,,,,,,,,,,0,19,19,51,1,,,,,,,,,,,,,,,,,,,,,,,,,,,,
,,,,,V3_071,18,Female,2024-11-16_18h00.22.531,jersey_experiment_5_v3,2023.2.2,Win32,84.03361345,,,,,,,,,,,,,,,,751.1868,752.4806,752.4806,753.8925,return,0.181,,35.80729167,,,,,,FBP-YG-81.png,0.37,1.2,7,0.5,,,,,,,,,,,,,0,20,20,6,1,,,,,,,,,,,,,,,,,,,,,,,,,,,,
,,,,,V3_071,18,Female,2024-11-16_18h00.22.531,jersey_experiment_5_v3,2023.2.2,Win32,84.03361345,,,,,,,,,,,,,,,,753.8928,755.1866,755.1867,756.8572,return,0.3303,,75,,,,,,FBP-RB-17.png,0.43,1.2,49,0.5,,,,,,,,,,,,,0,21,21,48,1,,,,,,,,,,,,,,,,,,,,,,,,,,,,
,,,,,V3_071,18,Female,2024-11-16_18h00.22.531,jersey_experiment_5_v3,2023.2.2,Win32,84.03361345,,,,,,,,,,,,,,,,756.8574,758.4103,758.4103,759.4928,return,0.1332,,88.671875,,,,,,FBP-OG-19.png,0.45,1.2,45,0.75,,,,,,,,,,,,,0,22,22,44,1,,,,,,,,,,,,,,,,,,,,,,,,,,,,
,,,,,V3_071,18,Female,2024-11-16_18h00.22.531,jersey_experiment_5_v3,2023.2.2,Win32,84.03361345,,,,,,,,,,,,,,,,759.4931,760.7868,760.7869,761.9869,return,0.1249,,91.796875,,,,,,FBP-RB-18.png,0.45,1.2,55,0.5,,,,,,,,,,,,,0,23,23,54,1,,,,,,,,,,,,,,,,,,,,,,,,,,,,
,,,,,V3_071,18,Female,2024-11-16_18h00.22.531,jersey_experiment_5_v3,2023.2.2,Win32,84.03361345,,,,,,,,,,,,,,,,761.9871,763.281,763.2811,766.7635,return,0.2199,,26.69270833,,,,,,FBP-PT-18.png,0.37,1.2,22,0.5,,,,,,,,,,,,,0,24,24,21,1,,,,,,,,,,,,,,,,,,,,,,,,,,,,
,,,,,V3_071,18,Female,2024-11-16_18h00.22.531,jersey_experiment_5_v3,2023.2.2,Win32,84.03361345,,,,,,,,,,,,,,,,766.7637,768.0577,768.0578,769.4108,return,0.3957,,67.70833333,,,,,,FBP-YG-71.png,0.43,1.2,4,0.5,,,,,,,,,,,,,0,25,25,3,1,,,,,,,,,,,,,,,,,,,,,,,,,,,,
,,,,,V3_071,18,Female,2024-11-16_18h00.22.531,jersey_experiment_5_v3,2023.2.2,Win32,84.03361345,,,,,,,,,,,,,,,,769.4111,770.7049,770.7049,775.8463,return,2.0362,,20.57291667,,,,,,FBP-PT-18.png,0.35,1.2,21,0.5,,,,,,,,,,,,,0,26,26,20,1,,,,,,,,,,,,,,,,,,,,,,,,,,,,
,,,,,V3_071,18,Female,2024-11-16_18h00.22.531,jersey_experiment_5_v3,2023.2.2,Win32,84.03361345,,,,,,,,,,,,,,,,775.8466,777.1404,777.1404,778.3758,return,0.1317,,12.109375,,,,,,FBP-RB-18.png,0.35,1.2,51,0.5,,,,,,,,,,,,,0,27,27,50,1,,,,,,,,,,,,,,,,,,,,,,,,,,,,
,,,,,V3_071,18,Female,2024-11-16_18h00.22.531,jersey_experiment_5_v3,2023.2.2,Win32,84.03361345,,,,,,,,,,,,,,,,778.3762,779.6699,779.6699,780.6935,return,0.2265,,12.5,,,,,,FBP-RB-17.png,0.35,1.2,46,0.5,,,,,,,,,,,,,0,28,28,45,1,,,,,,,,,,,,,,,,,,,,,,,,,,,,
,,,,,V3_071,18,Female,2024-11-16_18h00.22.531,jersey_experiment_5_v3,2023.2.2,Win32,84.03361345,,,,,,,,,,,,,,,,780.6938,781.9875,781.9876,784.3878,return,0.1336,,56.640625,,,,,,FBP-RB-18.png,0.43,1.2,54,0.5,,,,,,,,,,,,,0,29,29,53,1,,,,,,,,,,,,,,,,,,,,,,,,,,,,
,,,,,V3_071,18,Female,2024-11-16_18h00.22.531,jersey_experiment_5_v3,2023.2.2,Win32,84.03361345,,,,,,,,,,,,,,,,784.3881,785.6819,785.682,787.2349,return,0.1351,,48.4375,,,,,,FBP-YG-91.png,0.4,1.2,13,0.5,,,,,,,,,,,,,0,30,30,12,1,,,,,,,,,,,,,,,,,,,,,,,,,,,,
,,,,,V3_071,18,Female,2024-11-16_18h00.22.531,jersey_experiment_5_v3,2023.2.2,Win32,84.03361345,,,,,,,,,,,,,,,,787.2353,788.788,788.788,789.6115,return,0.143,,48.4375,,,,,,FBP-OG-19.png,0.4,1.2,43,0.75,,,,,,,,,,,,,0,31,31,42,1,,,,,,,,,,,,,,,,,,,,,,,,,,,,
,,,,,V3_071,18,Female,2024-11-16_18h00.22.531,jersey_experiment_5_v3,2023.2.2,Win32,84.03361345,,,,,,,,,,,,,,,,789.6118,790.9056,790.9056,792.9294,return,0.1269,,75.13020833,,,,,,FBP-PT-19.png,0.43,1.2,29,0.5,,,,,,,,,,,,,0,32,32,28,1,,,,,,,,,,,,,,,,,,,,,,,,,,,,
,,,,,V3_071,18,Female,2024-11-16_18h00.22.531,jersey_experiment_5_v3,2023.2.2,Win32,84.03361345,,,,,,,,,,,,,,,,792.9296,794.2233,794.2234,796.0353,return,0.0864,,51.171875,,,,,,FBP-PT-17.png,0.4,1.2,18,0.5,,,,,,,,,,,,,0,33,33,17,1,,,,,,,,,,,,,,,,,,,,,,,,,,,,
,,,,,V3_071,18,Female,2024-11-16_18h00.22.531,jersey_experiment_5_v3,2023.2.2,Win32,84.03361345,,,,,,,,,,,,,,,,796.0354,797.3294,797.3296,799.1766,return,0.2805,,89.97395833,,,,,,FBP-YG-91.png,0.45,1.2,15,0.5,,,,,,,,,,,,,0,34,34,14,1,,,,,,,,,,,,,,,,,,,,,,,,,,,,
,,,,,V3_071,18,Female,2024-11-16_18h00.22.531,jersey_experiment_5_v3,2023.2.2,Win32,84.03361345,,,,,,,,,,,,,,,,799.1769,800.4709,800.4709,802.2472,return,0.5779,,33.46354167,,,,,,FBP-RB-17.png,0.37,1.2,47,0.5,,,,,,,,,,,,,0,35,35,46,1,,,,,,,,,,,,,,,,,,,,,,,,,,,,
,,,,,V3_071,18,Female,2024-11-16_18h00.22.531,jersey_experiment_5_v3,2023.2.2,Win32,84.03361345,,,,,,,,,,,,,,,,802.2474,803.5414,803.5415,805.059,return,0.2879,,37.890625,,,,,,FBP-YG-81.png,0.4,1.2,8,0.5,,,,,,,,,,,,,0,36,36,7,1,,,,,,,,,,,,,,,,,,,,,,,,,,,,
,,,,,V3_071,18,Female,2024-11-16_18h00.22.531,jersey_experiment_5_v3,2023.2.2,Win32,84.03361345,,,,,,,,,,,,,,,,805.0593,806.3532,806.3532,807.9885,return,0.2979,,74.21875,,,,,,FBP-RB-19.png,0.45,1.2,60,0.5,,,,,,,,,,,,,0,37,37,59,1,,,,,,,,,,,,,,,,,,,,,,,,,,,,
,,,,,V3_071,18,Female,2024-11-16_18h00.22.531,jersey_experiment_5_v3,2023.2.2,Win32,84.03361345,,,,,,,,,,,,,,,,807.9887,809.5301,809.5301,812.13,return,0.1727,,34.63541667,,,,,,FBP-OG-19.png,0.35,1.2,41,0.75,,,,,,,,,,,,,0,38,38,40,1,,,,,,,,,,,,,,,,,,,,,,,,,,,,
,,,,,V3_071,18,Female,2024-11-16_18h00.22.531,jersey_experiment_5_v3,2023.2.2,Win32,84.03361345,,,,,,,,,,,,,,,,812.1302,813.4241,813.4241,817.7889,return,3.1286,,75,,,,,,FBP-PT-18.png,0.45,1.2,25,0.5,,,,,,,,,,,,,0,39,39,24,1,,,,,,,,,,,,,,,,,,,,,,,,,,,,
,,,,,V3_071,18,Female,2024-11-16_18h00.22.531,jersey_experiment_5_v3,2023.2.2,Win32,84.03361345,,,,,,,,,,,,,,,,817.7892,819.0832,819.0833,820.3891,return,0.1462,,77.34375,,,,,,FBP-RB-19.png,0.43,1.2,59,0.5,,,,,,,,,,,,,0,40,40,58,1,,,,,,,,,,,,,,,,,,,,,,,,,,,,
,,,,,V3_071,18,Female,2024-11-16_18h00.22.531,jersey_experiment_5_v3,2023.2.2,Win32,84.03361345,,,,,,,,,,,,,,,,820.3893,821.6835,821.6835,822.7892,return,0.146,,84.765625,,,,,,FBP-PT-17.png,0.45,1.2,20,0.5,,,,,,,,,,,,,0,41,41,19,1,,,,,,,,,,,,,,,,,,,,,,,,,,,,
,,,,,V3_071,18,Female,2024-11-16_18h00.22.531,jersey_experiment_5_v3,2023.2.2,Win32,84.03361345,,,,,,,,,,,,,,,,822.7895,824.0835,824.0835,826.307,return,0.2308,,24.47916667,,,,,,FBP-YG-81.png,0.35,1.2,6,0.5,,,,,,,,,,,,,0,42,42,5,1,,,,,,,,,,,,,,,,,,,,,,,,,,,,
,,,,,V3_071,18,Female,2024-11-16_18h00.22.531,jersey_experiment_5_v3,2023.2.2,Win32,84.03361345,,,,,,,,,,,,,,,,826.3073,827.6013,827.6013,828.8836,return,0.1477,,70.05208333,,,,,,FBP-PT-18.png,0.43,1.2,24,0.5,,,,,,,,,,,,,0,43,43,23,1,,,,,,,,,,,,,,,,,,,,,,,,,,,,
,,,,,V3_071,18,Female,2024-11-16_18h00.22.531,jersey_experiment_5_v3,2023.2.2,Win32,84.03361345,,,,,,,,,,,,,,,,828.8839,830.1779,830.1779,832.8836,return,0.1475,,29.81770833,,,,,,FBP-YG-91.png,0.37,1.2,12,0.5,,,,,,,,,,,,,0,44,44,11,1,,,,,,,,,,,,,,,,,,,,,,,,,,,,
,,,,,V3_071,18,Female,2024-11-16_18h00.22.531,jersey_experiment_5_v3,2023.2.2,Win32,84.03361345,,,,,,,,,,,,,,,,832.884,834.4367,834.4367,841.4016,return,0.5285,,51.30208333,,,,,,FBP-OG-18.png,0.43,1.2,39,0.75,,,,,,,,,,,,,0,45,45,38,1,,,,,,,,,,,,,,,,,,,,,,,,,,,,
,,,,,V3_071,18,Female,2024-11-16_18h00.22.531,jersey_experiment_5_v3,2023.2.2,Win32,84.03361345,,,,,,,,,,,,,,,,841.4019,842.6959,842.6959,843.8487,return,0.1055,,37.23958333,,,,,,FBP-PT-17.png,0.37,1.2,17,0.5,,,,,,,,,,,,,0,46,46,16,1,,,,,,,,,,,,,,,,,,,,,,,,,,,,
,,,,,V3_071,18,Female,2024-11-16_18h00.22.531,jersey_experiment_5_v3,2023.2.2,Win32,84.03361345,,,,,,,,,,,,,,,,843.8489,845.3903,845.3903,846.7902,return,0.0848,,50.52083333,,,,,,FBP-OG-17.png,0.43,1.2,34,0.75,,,,,,,,,,,,,0,47,47,33,1,,,,,,,,,,,,,,,,,,,,,,,,,,,,
,,,,,V3_071,18,Female,2024-11-16_18h00.22.531,jersey_experiment_5_v3,2023.2.2,Win32,84.03361345,,,,,,,,,,,,,,,,846.7904,848.343,848.3431,849.9078,return,0.1467,,26.171875,,,,,,FBP-OG-19.png,0.37,1.2,42,0.75,,,,,,,,,,,,,0,48,48,41,1,,,,,,,,,,,,,,,,,,,,,,,,,,,,
,,,,,V3_071,18,Female,2024-11-16_18h00.22.531,jersey_experiment_5_v3,2023.2.2,Win32,84.03361345,,,,,,,,,,,,,,,,849.9081,851.202,851.2021,852.4844,return,0.155,,65.36458333,,,,,,FBP-PT-19.png,0.45,1.2,30,0.5,,,,,,,,,,,,,0,49,49,29,1,,,,,,,,,,,,,,,,,,,,,,,,,,,,
,,,,,V3_071,18,Female,2024-11-16_18h00.22.531,jersey_experiment_5_v3,2023.2.2,Win32,84.03361345,,,,,,,,,,,,,,,,852.4847,854.0374,854.0375,860.2024,return,0.9647,,46.484375,,,,,,FBP-OG-17.png,0.37,1.2,32,0.75,,,,,,,,,,,,,0,50,50,31,1,,,,,,,,,,,,,,,,,,,,,,,,,,,,
,,,,,V3_071,18,Female,2024-11-16_18h00.22.531,jersey_experiment_5_v3,2023.2.2,Win32,84.03361345,,,,,,,,,,,,,,,,860.2026,861.4965,861.4966,862.4271,return,0.1417,,46.09375,,,,,,FBP-RB-19.png,0.4,1.2,58,0.5,,,,,,,,,,,,,0,51,51,57,1,,,,,,,,,,,,,,,,,,,,,,,,,,,,
,,,,,V3_071,18,Female,2024-11-16_18h00.22.531,jersey_experiment_5_v3,2023.2.2,Win32,84.03361345,,,,,,,,,,,,,,,,862.4273,863.7201,863.7202,865.485,return,1.004,,43.88020833,,,,,,FBP-PT-19.png,0.4,1.2,28,0.5,,,,,,,,,,,,,0,52,52,27,1,,,,,,,,,,,,,,,,,,,,,,,,,,,,
,,,,,V3_071,18,Female,2024-11-16_18h00.22.531,jersey_experiment_5_v3,2023.2.2,Win32,84.03361345,,,,,,,,,,,,,,,,865.4852,866.779,866.779,870.5204,return,0.2116,,61.06770833,,,,,,FBP-YG-71.png,0.45,1.2,5,0.5,,,,,,,,,,,,,0,53,53,4,1,,,,,,,,,,,,,,,,,,,,,,,,,,,,
,,,,,V3_071,18,Female,2024-11-16_18h00.22.531,jersey_experiment_5_v3,2023.2.2,Win32,84.03361345,,,,,,,,,,,,,,,,870.5206,871.8146,871.8146,873.5911,return,0.2146,,15.75520833,,,,,,FBP-YG-91.png,0.35,1.2,11,0.5,,,,,,,,,,,,,0,54,54,10,1,,,,,,,,,,,,,,,,,,,,,,,,,,,,
,,,,,V3_071,18,Female,2024-11-16_18h00.22.531,jersey_experiment_5_v3,2023.2.2,Win32,84.03361345,,,,,,,,,,,,,,,,873.5914,874.8852,874.8853,875.9441,return,0.2948,,15.75520833,,,,,,FBP-RB-19.png,0.35,1.2,56,0.5,,,,,,,,,,,,,0,55,55,55,1,,,,,,,,,,,,,,,,,,,,,,,,,,,,
,,,,,V3_071,18,Female,2024-11-16_18h00.22.531,jersey_experiment_5_v3,2023.2.2,Win32,84.03361345,,,,,,,,,,,,,,,,875.9444,877.2383,877.2384,878.9324,return,0.0999,,26.171875,,,,,,FBP-RB-19.png,0.37,1.2,57,0.5,,,,,,,,,,,,,0,56,56,56,1,,,,,,,,,,,,,,,,,,,,,,,,,,,,
,,,,,V3_071,18,Female,2024-11-16_18h00.22.531,jersey_experiment_5_v3,2023.2.2,Win32,84.03361345,,,,,,,,,,,,,,,,878.9327,880.4854,880.4855,882.4503,return,0.1458,,49.34895833,,,,,,FBP-OG-18.png,0.45,1.2,40,0.75,,,,,,,,,,,,,0,57,57,39,1,,,,,,,,,,,,,,,,,,,,,,,,,,,,
,,,,,V3_071,18,Female,2024-11-16_18h00.22.531,jersey_experiment_5_v3,2023.2.2,Win32,84.03361345,,,,,,,,,,,,,,,,882.4505,883.7445,883.7445,886.3563,return,1.3671,,52.60416667,,,,,,FBP-YG-91.png,0.43,1.2,14,0.5,,,,,,,,,,,,,0,58,58,13,1,,,,,,,,,,,,,,,,,,,,,,,,,,,,
,,,,,V3_071,18,Female,2024-11-16_18h00.22.531,jersey_experiment_5_v3,2023.2.2,Win32,84.03361345,,,,,,,,,,,,,,,,886.3565,887.9093,887.9093,889.0269,return,0.5333,,51.69270833,,,,,,FBP-OG-19.png,0.43,1.2,44,0.75,,,,,,,,,,,,,0,59,59,43,1,,,,,,,,,,,,,,,,,,,,,,,,,,,,
,,,,,V3_071,18,Female,2024-11-16_18h00.22.531,jersey_experiment_5_v3,2023.2.2,Win32,84.03361345,,,,,,,,,,,,,,,,889.0287,890.58,890.58,894.1213,return,2.1569,,52.34375,,,,,,FBP-OG-71.png,0.43,1.2,34,0.75,,,,,,,,,,,,,,,,,,0,0,0,33,1,,,,,,,,,,,,,,,,,,,,,,,
,,,,,V3_071,18,Female,2024-11-16_18h00.22.531,jersey_experiment_5_v3,2023.2.2,Win32,84.03361345,,,,,,,,,,,,,,,,894.1215,895.4153,895.4155,897.9214,return,0.96,,8.333333333,,,,,,FBP-PT-91.png,0.35,1.2,26,0.5,,,,,,,,,,,,,,,,,,0,1,1,25,1,,,,,,,,,,,,,,,,,,,,,,,
,,,,,V3_071,18,Female,2024-11-16_18h00.22.531,jersey_experiment_5_v3,2023.2.2,Win32,84.03361345,,,,,,,,,,,,,,,,897.9217,899.2156,899.2156,902.098,return,1.1965,,57.68229167,,,,,,FBP-PT-81.png,0.43,1.2,24,0.5,,,,,,,,,,,,,,,,,,0,2,2,23,1,,,,,,,,,,,,,,,,,,,,,,,
,,,,,V3_071,18,Female,2024-11-16_18h00.22.531,jersey_experiment_5_v3,2023.2.2,Win32,84.03361345,,,,,,,,,,,,,,,,902.0982,903.6511,903.6511,905.0275,return,0.5107,,65.88541667,,,,,,FBP-OG-91.png,0.45,1.2,45,0.75,,,,,,,,,,,,,,,,,,0,3,3,44,1,,,,,,,,,,,,,,,,,,,,,,,
,,,,,V3_071,18,Female,2024-11-16_18h00.22.531,jersey_experiment_5_v3,2023.2.2,Win32,84.03361345,,,,,,,,,,,,,,,,905.0277,906.3219,906.3219,907.5218,return,0.3615,,71.61458333,,,,,,FBP-YG-19.png,0.43,1.2,14,0.5,,,,,,,,,,,,,,,,,,0,4,4,13,1,,,,,,,,,,,,,,,,,,,,,,,
,,,,,V3_071,18,Female,2024-11-16_18h00.22.531,jersey_experiment_5_v3,2023.2.2,Win32,84.03361345,,,,,,,,,,,,,,,,907.5222,908.8159,908.8159,911.5102,return,0.1568,,25,,,,,,FBP-YG-17.png,0.37,1.2,2,0.5,,,,,,,,,,,,,,,,,,0,5,5,1,1,,,,,,,,,,,,,,,,,,,,,,,
,,,,,V3_071,18,Female,2024-11-16_18h00.22.531,jersey_experiment_5_v3,2023.2.2,Win32,84.03361345,,,,,,,,,,,,,,,,911.5105,912.8043,912.8044,914.3456,return,0.2598,,10.546875,,,,,,FBP-RB-81.png,0.35,1.2,51,0.5,,,,,,,,,,,,,,,,,,0,6,6,50,1,,,,,,,,,,,,,,,,,,,,,,,
,,,,,V3_071,18,Female,2024-11-16_18h00.22.531,jersey_experiment_5_v3,2023.2.2,Win32,84.03361345,,,,,,,,,,,,,,,,914.3458,915.6396,915.6397,917.428,return,0.1706,,73.17708333,,,,,,FBP-PT-81.png,0.45,1.2,25,0.5,,,,,,,,,,,,,,,,,,0,7,7,24,1,,,,,,,,,,,,,,,,,,,,,,,
,,,,,V3_071,18,Female,2024-11-16_18h00.22.531,jersey_experiment_5_v3,2023.2.2,Win32,84.03361345,,,,,,,,,,,,,,,,917.4283,918.7222,918.7222,920.5458,return,0.1377,,24.86979167,,,,,,FBP-PT-91.png,0.37,1.2,27,0.5,,,,,,,,,,,,,,,,,,0,8,8,26,1,,,,,,,,,,,,,,,,,,,,,,,
,,,,,V3_071,18,Female,2024-11-16_18h00.22.531,jersey_experiment_5_v3,2023.2.2,Win32,84.03361345,,,,,,,,,,,,,,,,920.546,922.0989,922.0989,923.5577,return,0.2044,,16.015625,,,,,,FBP-OG-91.png,0.37,1.2,42,0.75,,,,,,,,,,,,,,,,,,0,9,9,41,1,,,,,,,,,,,,,,,,,,,,,,,
,,,,,V3_071,18,Female,2024-11-16_18h00.22.531,jersey_experiment_5_v3,2023.2.2,Win32,84.03361345,,,,,,,,,,,,,,,,923.5578,924.8522,924.8522,926.746,return,0.2455,,65.75520833,,,,,,FBP-RB-91.png,0.4,1.2,58,0.5,,,,,,,,,,,,,,,,,,0,10,10,57,1,,,,,,,,,,,,,,,,,,,,,,,
,,,,,V3_071,18,Female,2024-11-16_18h00.22.531,jersey_experiment_5_v3,2023.2.2,Win32,84.03361345,,,,,,,,,,,,,,,,926.7463,928.0401,928.0402,930.758,return,0.1892,,50.65104167,,,,,,FBP-PT-81.png,0.4,1.2,23,0.5,,,,,,,,,,,,,,,,,,0,11,11,22,1,,,,,,,,,,,,,,,,,,,,,,,
,,,,,V3_071,18,Female,2024-11-16_18h00.22.531,jersey_experiment_5_v3,2023.2.2,Win32,84.03361345,,,,,,,,,,,,,,,,930.7582,932.0523,932.0524,933.4169,return,0.1665,,49.86979167,,,,,,FBP-RB-91.png,0.37,1.2,57,0.5,,,,,,,,,,,,,,,,,,0,12,12,56,1,,,,,,,,,,,,,,,,,,,,,,,
,,,,,V3_071,18,Female,2024-11-16_18h00.22.531,jersey_experiment_5_v3,2023.2.2,Win32,84.03361345,,,,,,,,,,,,,,,,933.4172,934.711,934.7111,936.3934,return,0.4326,,50,,,,,,FBP-PT-71.png,0.35,1.2,16,0.5,,,,,,,,,,,,,,,,,,0,13,13,15,1,,,,,,,,,,,,,,,,,,,,,,,
,,,,,V3_071,18,Female,2024-11-16_18h00.22.531,jersey_experiment_5_v3,2023.2.2,Win32,84.03361345,,,,,,,,,,,,,,,,936.3938,937.6875,937.6876,939.0994,return,0.212,,60.80729167,,,,,,FBP-YG-17.png,0.4,1.2,3,0.5,,,,,,,,,,,,,,,,,,0,14,14,2,1,,,,,,,,,,,,,,,,,,,,,,,
,,,,,V3_071,18,Female,2024-11-16_18h00.22.531,jersey_experiment_5_v3,2023.2.2,Win32,84.03361345,,,,,,,,,,,,,,,,939.0998,940.6523,940.6525,942.1466,return,0.2781,,26.82291667,,,,,,FBP-OG-71.png,0.35,1.2,31,0.75,,,,,,,,,,,,,,,,,,0,15,15,30,1,,,,,,,,,,,,,,,,,,,,,,,
,,,,,V3_071,18,Female,2024-11-16_18h00.22.531,jersey_experiment_5_v3,2023.2.2,Win32,84.03361345,,,,,,,,,,,,,,,,942.1469,943.6996,943.6996,946.4174,return,0.514,,49.86979167,,,,,,FBP-OG-91.png,0.4,1.2,43,0.75,,,,,,,,,,,,,,,,,,0,16,16,42,1,,,,,,,,,,,,,,,,,,,,,,,
,,,,,V3_071,18,Female,2024-11-16_18h00.22.531,jersey_experiment_5_v3,2023.2.2,Win32,84.03361345,,,,,,,,,,,,,,,,946.4176,947.7116,947.7116,949.3822,return,0.2023,,66.015625,,,,,,FBP-RB-91.png,0.43,1.2,59,0.5,,,,,,,,,,,,,,,,,,0,17,17,58,1,,,,,,,,,,,,,,,,,,,,,,,
,,,,,V3_071,18,Female,2024-11-16_18h00.22.531,jersey_experiment_5_v3,2023.2.2,Win32,84.03361345,,,,,,,,,,,,,,,,949.3825,950.9351,950.9352,952.1,return,0.1591,,50.26041667,,,,,,FBP-OG-71.png,0.4,1.2,33,0.75,,,,,,,,,,,,,,,,,,0,18,18,32,1,,,,,,,,,,,,,,,,,,,,,,,
,,,,,V3_071,18,Female,2024-11-16_18h00.22.531,jersey_experiment_5_v3,2023.2.2,Win32,84.03361345,,,,,,,,,,,,,,,,952.1002,953.394,953.394,954.653,return,0.2346,,50,,,,,,FBP-RB-71.png,0.4,1.2,48,0.5,,,,,,,,,,,,,,,,,,0,19,19,47,1,,,,,,,,,,,,,,,,,,,,,,,
,,,,,V3_071,18,Female,2024-11-16_18h00.22.531,jersey_experiment_5_v3,2023.2.2,Win32,84.03361345,,,,,,,,,,,,,,,,954.6532,955.9471,955.9471,957.5707,return,0.2662,,25.390625,,,,,,FBP-PT-81.png,0.35,1.2,21,0.5,,,,,,,,,,,,,,,,,,0,20,20,20,1,,,,,,,,,,,,,,,,,,,,,,,
,,,,,V3_071,18,Female,2024-11-16_18h00.22.531,jersey_experiment_5_v3,2023.2.2,Win32,84.03361345,,,,,,,,,,,,,,,,957.5711,958.8649,958.8649,961.2531,return,0.2755,,28.125,,,,,,FBP-PT-71.png,0.37,1.2,17,0.5,,,,,,,,,,,,,,,,,,0,21,21,16,1,,,,,,,,,,,,,,,,,,,,,,,
,,,,,V3_071,18,Female,2024-11-16_18h00.22.531,jersey_experiment_5_v3,2023.2.2,Win32,84.03361345,,,,,,,,,,,,,,,,961.2534,962.5474,962.5475,964.5356,return,0.1754,,54.16666667,,,,,,FBP-PT-71.png,0.43,1.2,19,0.5,,,,,,,,,,,,,,,,,,0,22,22,18,1,,,,,,,,,,,,,,,,,,,,,,,
,,,,,V3_071,18,Female,2024-11-16_18h00.22.531,jersey_experiment_5_v3,2023.2.2,Win32,84.03361345,,,,,,,,,,,,,,,,964.5359,966.0889,966.0889,967.6064,return,0.1801,,19.53125,,,,,,FBP-OG-91.png,0.35,1.2,41,0.75,,,,,,,,,,,,,,,,,,0,23,23,40,1,,,,,,,,,,,,,,,,,,,,,,,
,,,,,V3_071,18,Female,2024-11-16_18h00.22.531,jersey_experiment_5_v3,2023.2.2,Win32,84.03361345,,,,,,,,,,,,,,,,967.6066,968.9005,968.9005,969.9241,return,0.2882,,19.53125,,,,,,FBP-YG-17.png,0.35,1.2,1,0.5,,,,,,,,,,,,,,,,,,0,24,24,0,1,,,,,,,,,,,,,,,,,,,,,,,
,,,,,V3_071,18,Female,2024-11-16_18h00.22.531,jersey_experiment_5_v3,2023.2.2,Win32,84.03361345,,,,,,,,,,,,,,,,969.9243,971.2183,971.2183,972.4537,return,0.2515,,19.53125,,,,,,FBP-YG-19.png,0.37,1.2,12,0.5,,,,,,,,,,,,,,,,,,0,25,25,11,1,,,,,,,,,,,,,,,,,,,,,,,
,,,,,V3_071,18,Female,2024-11-16_18h00.22.531,jersey_experiment_5_v3,2023.2.2,Win32,84.03361345,,,,,,,,,,,,,,,,972.4538,973.7478,973.7478,975.7243,return,0.2967,,59.63541667,,,,,,FBP-RB-71.png,0.45,1.2,50,0.5,,,,,,,,,,,,,,,,,,0,26,26,49,1,,,,,,,,,,,,,,,,,,,,,,,
,,,,,V3_071,18,Female,2024-11-16_18h00.22.531,jersey_experiment_5_v3,2023.2.2,Win32,84.03361345,,,,,,,,,,,,,,,,975.7246,977.0185,977.0186,978.8186,return,0.2303,,17.1875,,,,,,FBP-RB-91.png,0.35,1.2,56,0.5,,,,,,,,,,,,,,,,,,0,27,27,55,1,,,,,,,,,,,,,,,,,,,,,,,
,,,,,V3_071,18,Female,2024-11-16_18h00.22.531,jersey_experiment_5_v3,2023.2.2,Win32,84.03361345,,,,,,,,,,,,,,,,978.8188,980.3716,980.3717,981.6894,return,0.5891,,10.28645833,,,,,,FBP-OG-81.png,0.37,1.2,37,0.75,,,,,,,,,,,,,,,,,,0,28,28,36,1,,,,,,,,,,,,,,,,,,,,,,,
,,,,,V3_071,18,Female,2024-11-16_18h00.22.531,jersey_experiment_5_v3,2023.2.2,Win32,84.03361345,,,,,,,,,,,,,,,,981.6897,983.2423,983.2423,984.8659,return,0.1024,,26.04166667,,,,,,FBP-OG-71.png,0.37,1.2,32,0.75,,,,,,,,,,,,,,,,,,0,29,29,31,1,,,,,,,,,,,,,,,,,,,,,,,
,,,,,V3_071,18,Female,2024-11-16_18h00.22.531,jersey_experiment_5_v3,2023.2.2,Win32,84.03361345,,,,,,,,,,,,,,,,984.8661,986.16,986.16,989.6896,return,0.4091,,25.65104167,,,,,,FBP-PT-71.png,0.4,1.2,18,0.5,,,,,,,,,,,,,,,,,,0,30,30,17,1,,,,,,,,,,,,,,,,,,,,,,,
,,,,,V3_071,18,Female,2024-11-16_18h00.22.531,jersey_experiment_5_v3,2023.2.2,Win32,84.03361345,,,,,,,,,,,,,,,,989.6899,990.9836,990.9836,995.5251,return,0.5227,,50.91145833,,,,,,FBP-YG-18.png,0.43,1.2,9,0.5,,,,,,,,,,,,,,,,,,0,31,31,8,1,,,,,,,,,,,,,,,,,,,,,,,
,,,,,V3_071,18,Female,2024-11-16_18h00.22.531,jersey_experiment_5_v3,2023.2.2,Win32,84.03361345,,,,,,,,,,,,,,,,995.5254,997.0782,997.0782,998.2899,return,0.114,,75.52083333,,,,,,FBP-OG-81.png,0.45,1.2,40,0.75,,,,,,,,,,,,,,,,,,0,32,32,39,1,,,,,,,,,,,,,,,,,,,,,,,
,,,,,V3_071,18,Female,2024-11-16_18h00.22.531,jersey_experiment_5_v3,2023.2.2,Win32,84.03361345,,,,,,,,,,,,,,,,998.2901,999.5841,999.5841,1000.8194,return,0.1007,,74.609375,,,,,,FBP-PT-91.png,0.43,1.2,29,0.5,,,,,,,,,,,,,,,,,,0,33,33,28,1,,,,,,,,,,,,,,,,,,,,,,,
,,,,,V3_071,18,Female,2024-11-16_18h00.22.531,jersey_experiment_5_v3,2023.2.2,Win32,84.03361345,,,,,,,,,,,,,,,,1000.8197,1002.3723,1002.3724,1003.5607,return,0.2598,,74.34895833,,,,,,FBP-OG-81.png,0.43,1.2,39,0.75,,,,,,,,,,,,,,,,,,0,34,34,38,1,,,,,,,,,,,,,,,,,,,,,,,
,,,,,V3_071,18,Female,2024-11-16_18h00.22.531,jersey_experiment_5_v3,2023.2.2,Win32,84.03361345,,,,,,,,,,,,,,,,1003.5609,1004.8549,1004.8549,1006.3607,return,0.2037,,74.609375,,,,,,FBP-PT-71.png,0.45,1.2,20,0.5,,,,,,,,,,,,,,,,,,0,35,35,19,1,,,,,,,,,,,,,,,,,,,,,,,
,,,,,V3_071,18,Female,2024-11-16_18h00.22.531,jersey_experiment_5_v3,2023.2.2,Win32,84.03361345,,,,,,,,,,,,,,,,1006.3609,1007.6549,1007.6549,1008.9843,return,0.3782,,83.46354167,,,,,,FBP-RB-81.png,0.45,1.2,55,0.5,,,,,,,,,,,,,,,,,,0,36,36,54,1,,,,,,,,,,,,,,,,,,,,,,,
,,,,,V3_071,18,Female,2024-11-16_18h00.22.531,jersey_experiment_5_v3,2023.2.2,Win32,84.03361345,,,,,,,,,,,,,,,,1008.9845,1010.5258,1010.5258,1013.2435,return,0.4319,,49.47916667,,,,,,FBP-OG-91.png,0.43,1.2,44,0.75,,,,,,,,,,,,,,,,,,0,37,37,43,1,,,,,,,,,,,,,,,,,,,,,,,
,,,,,V3_071,18,Female,2024-11-16_18h00.22.531,jersey_experiment_5_v3,2023.2.2,Win32,84.03361345,,,,,,,,,,,,,,,,1013.2438,1014.7964,1014.7964,1016.9024,return,0.3687,,24.21875,,,,,,FBP-OG-81.png,0.35,1.2,36,0.75,,,,,,,,,,,,,,,,,,0,38,38,35,1,,,,,,,,,,,,,,,,,,,,,,,
,,,,,V3_071,18,Female,2024-11-16_18h00.22.531,jersey_experiment_5_v3,2023.2.2,Win32,84.03361345,,,,,,,,,,,,,,,,1016.9027,1018.1965,1018.1966,1019.9259,return,0.1771,,10.9375,,,,,,FBP-PT-81.png,0.37,1.2,22,0.5,,,,,,,,,,,,,,,,,,0,39,39,21,1,,,,,,,,,,,,,,,,,,,,,,,
,,,,,V3_071,18,Female,2024-11-16_18h00.22.531,jersey_experiment_5_v3,2023.2.2,Win32,84.03361345,,,,,,,,,,,,,,,,1019.9262,1021.2201,1021.2201,1024.1614,return,0.9364,,50.390625,,,,,,FBP-RB-81.png,0.4,1.2,53,0.5,,,,,,,,,,,,,,,,,,0,40,40,52,1,,,,,,,,,,,,,,,,,,,,,,,
,,,,,V3_071,18,Female,2024-11-16_18h00.22.531,jersey_experiment_5_v3,2023.2.2,Win32,84.03361345,,,,,,,,,,,,,,,,1024.1617,1025.4557,1025.4557,1027.5734,return,0.193,,13.28125,,,,,,FBP-RB-71.png,0.35,1.2,46,0.5,,,,,,,,,,,,,,,,,,0,41,41,45,1,,,,,,,,,,,,,,,,,,,,,,,
,,,,,V3_071,18,Female,2024-11-16_18h00.22.531,jersey_experiment_5_v3,2023.2.2,Win32,84.03361345,,,,,,,,,,,,,,,,1027.5735,1028.8674,1028.8674,1030.6793,return,0.4263,,50,,,,,,FBP-PT-91.png,0.4,1.2,28,0.5,,,,,,,,,,,,,,,,,,0,42,42,27,1,,,,,,,,,,,,,,,,,,,,,,,
,,,,,V3_071,18,Female,2024-11-16_18h00.22.531,jersey_experiment_5_v3,2023.2.2,Win32,84.03361345,,,,,,,,,,,,,,,,1030.6797,1031.9735,1031.9736,1034.2442,return,0.1459,,25.26041667,,,,,,FBP-YG-18.png,0.37,1.2,7,0.5,,,,,,,,,,,,,,,,,,0,43,43,6,1,,,,,,,,,,,,,,,,,,,,,,,
,,,,,V3_071,18,Female,2024-11-16_18h00.22.531,jersey_experiment_5_v3,2023.2.2,Win32,84.03361345,,,,,,,,,,,,,,,,1034.2445,1035.5385,1035.5385,1037.4914,return,0.333,,86.84895833,,,,,,FBP-YG-17.png,0.45,1.2,5,0.5,,,,,,,,,,,,,,,,,,0,44,44,4,1,,,,,,,,,,,,,,,,,,,,,,,
,,,,,V3_071,18,Female,2024-11-16_18h00.22.531,jersey_experiment_5_v3,2023.2.2,Win32,84.03361345,,,,,,,,,,,,,,,,1037.4917,1038.7856,1038.7856,1041.668,return,0.8162,,12.76041667,,,,,,FBP-YG-19.png,0.35,1.2,11,0.5,,,,,,,,,,,,,,,,,,0,45,45,10,1,,,,,,,,,,,,,,,,,,,,,,,
,,,,,V3_071,18,Female,2024-11-16_18h00.22.531,jersey_experiment_5_v3,2023.2.2,Win32,84.03361345,,,,,,,,,,,,,,,,1041.6683,1042.9621,1042.9622,1045.1268,return,0.1791,,24.86979167,,,,,,FBP-RB-81.png,0.37,1.2,52,0.5,,,,,,,,,,,,,,,,,,0,46,46,51,1,,,,,,,,,,,,,,,,,,,,,,,
,,,,,V3_071,18,Female,2024-11-16_18h00.22.531,jersey_experiment_5_v3,2023.2.2,Win32,84.03361345,,,,,,,,,,,,,,,,1045.1271,1046.4211,1046.4211,1048.1977,return,0.5103,,49.86979167,,,,,,FBP-PT-91.png,0.45,1.2,30,0.5,,,,,,,,,,,,,,,,,,0,47,47,29,1,,,,,,,,,,,,,,,,,,,,,,,
,,,,,V3_071,18,Female,2024-11-16_18h00.22.531,jersey_experiment_5_v3,2023.2.2,Win32,84.03361345,,,,,,,,,,,,,,,,1048.1979,1049.7506,1049.7506,1051.186,return,0.114,,50.52083333,,,,,,FBP-OG-81.png,0.4,1.2,38,0.75,,,,,,,,,,,,,,,,,,0,48,48,37,1,,,,,,,,,,,,,,,,,,,,,,,
,,,,,V3_071,18,Female,2024-11-16_18h00.22.531,jersey_experiment_5_v3,2023.2.2,Win32,84.03361345,,,,,,,,,,,,,,,,1051.1863,1052.4801,1052.4801,1057.245,return,2.2909,,88.02083333,,,,,,FBP-RB-91.png,0.45,1.2,60,0.5,,,,,,,,,,,,,,,,,,0,49,49,59,1,,,,,,,,,,,,,,,,,,,,,,,
,,,,,V3_071,18,Female,2024-11-16_18h00.22.531,jersey_experiment_5_v3,2023.2.2,Win32,84.03361345,,,,,,,,,,,,,,,,1057.2453,1058.5392,1058.5393,1060.3157,return,0.2018,,74.08854167,,,,,,FBP-YG-17.png,0.43,1.2,4,0.5,,,,,,,,,,,,,,,,,,0,50,50,3,1,,,,,,,,,,,,,,,,,,,,,,,
,,,,,V3_071,18,Female,2024-11-16_18h00.22.531,jersey_experiment_5_v3,2023.2.2,Win32,84.03361345,,,,,,,,,,,,,,,,1060.316,1061.8688,1061.8688,1062.9629,return,0.4643,,75.65104167,,,,,,FBP-OG-71.png,0.45,1.2,35,0.75,,,,,,,,,,,,,,,,,,0,51,51,34,1,,,,,,,,,,,,,,,,,,,,,,,
,,,,,V3_071,18,Female,2024-11-16_18h00.22.531,jersey_experiment_5_v3,2023.2.2,Win32,84.03361345,,,,,,,,,,,,,,,,1062.9632,1064.257,1064.257,1066.2925,return,0.3941,,51.5625,,,,,,FBP-RB-81.png,0.43,1.2,54,0.5,,,,,,,,,,,,,,,,,,0,52,52,53,1,,,,,,,,,,,,,,,,,,,,,,,
,,,,,V3_071,18,Female,2024-11-16_18h00.22.531,jersey_experiment_5_v3,2023.2.2,Win32,84.03361345,,,,,,,,,,,,,,,,1066.2927,1067.5865,1067.5866,1069.4337,return,0.3531,,44.79166667,,,,,,FBP-YG-18.png,0.4,1.2,8,0.5,,,,,,,,,,,,,,,,,,0,53,53,7,1,,,,,,,,,,,,,,,,,,,,,,,
,,,,,V3_071,18,Female,2024-11-16_18h00.22.531,jersey_experiment_5_v3,2023.2.2,Win32,84.03361345,,,,,,,,,,,,,,,,1069.4339,1070.728,1070.728,1072.9631,return,0.1103,,66.66666667,,,,,,FBP-YG-18.png,0.45,1.2,10,0.5,,,,,,,,,,,,,,,,,,0,54,54,9,1,,,,,,,,,,,,,,,,,,,,,,,
,,,,,V3_071,18,Female,2024-11-16_18h00.22.531,jersey_experiment_5_v3,2023.2.2,Win32,84.03361345,,,,,,,,,,,,,,,,1072.9634,1074.2574,1074.2575,1076.8341,return,0.2403,,16.53645833,,,,,,FBP-YG-18.png,0.35,1.2,6,0.5,,,,,,,,,,,,,,,,,,0,55,55,5,1,,,,,,,,,,,,,,,,,,,,,,,
,,,,,V3_071,18,Female,2024-11-16_18h00.22.531,jersey_experiment_5_v3,2023.2.2,Win32,84.03361345,,,,,,,,,,,,,,,,1076.8343,1078.1281,1078.1282,1079.4107,return,0.1567,,16.796875,,,,,,FBP-RB-71.png,0.37,1.2,47,0.5,,,,,,,,,,,,,,,,,,0,56,56,46,1,,,,,,,,,,,,,,,,,,,,,,,
,,,,,V3_071,18,Female,2024-11-16_18h00.22.531,jersey_experiment_5_v3,2023.2.2,Win32,84.03361345,,,,,,,,,,,,,,,,1079.4108,1080.7047,1080.7048,1082.2462,return,0.2044,,90.625,,,,,,FBP-YG-19.png,0.45,1.2,15,0.5,,,,,,,,,,,,,,,,,,0,57,57,14,1,,,,,,,,,,,,,,,,,,,,,,,
,,,,,V3_071,18,Female,2024-11-16_18h00.22.531,jersey_experiment_5_v3,2023.2.2,Win32,84.03361345,,,,,,,,,,,,,,,,1082.2465,1083.5401,1083.5401,1085.9754,return,0.1538,,63.41145833,,,,,,FBP-RB-71.png,0.43,1.2,49,0.5,,,,,,,,,,,,,,,,,,0,58,58,48,1,,,,,,,,,,,,,,,,,,,,,,,
,,,,,V3_071,18,Female,2024-11-16_18h00.22.531,jersey_experiment_5_v3,2023.2.2,Win32,84.03361345,,,,,,,,,,,,,,,,1085.9756,1087.2696,1087.2697,1089.3404,return,1.1163,,61.06770833,,,,,,FBP-YG-19.png,0.4,1.2,13,0.5,,,,,,,,,,,,,,,,,,0,59,59,12,1,,,,,,,,,,,,,,,,,,,,,,,
,,,,,V3_071,18,Female,2024-11-16_18h00.22.531,jersey_experiment_5_v3,2023.2.2,Win32,84.03361345,,,,,,,,,,,,,,,,,,,,,,,,,,,,,,,,,,,,,,,,,,,,,,,,,,,,,,,,1089.3404,1093.9759,return,4.6218,,,,,,,,,,,,,,,,,,,
,,,,,V3_071,18,Female,2024-11-16_18h00.22.531,jersey_experiment_5_v3,2023.2.2,Win32,84.03361345,,,,,,,,,,,,,,,,,,,,,,,,,,,,,,,,,,,,,,,,,,,,,,,,,,,,,,,,,,,,,1093.9759,1100.0585,1,3.313,return,2.7545,,,,,,,,,,,,
,,,,,V3_071,18,Female,2024-11-16_18h00.22.531,jersey_experiment_5_v3,2023.2.2,Win32,84.03361345,,,,,,,,,,,,,,,,,,,,,,,,,,,,,,,,,,,,,,,,,,,,,,,,,,,,,,,,,,,,,,,,,,,,1100.0585,1247.5,"I don't know factually what it is about but I did notice the numbers on the jerseys were all 17, 18, 19, 71, 81, 91. I also noticed that the colors of their jerseys had a pattern but I couldn't quite catch it. I'm not sure if the skin color of the players alternated perfectly but I noticed that the numbers, colors, and skin color were combined somewhat differently across individual pictures.",right,143.1582,,,,,,
,,,,,V3_071,18,Female,2024-11-16_18h00.22.531,jersey_experiment_5_v3,2023.2.2,Win32,84.03361345,,,,,,,,,,,,,,,,,,,,,,,,,,,,,,,,,,,,,,,,,,,,,,,,,,,,,,,,,,,,,,,,,,,,,,,,,,1247.5001,1250.7581,return,3.2472,