requirements.started,requirements.stopped,key_resp_3.keys,key_resp_3.rt,key_resp_3.duration,Subject ID,Age,Gender,date,expName,psychopyVersion,OS,frameRate,instructions1.started,instructions1.stopped,key_resp.keys,key_resp.rt,key_resp.duration,example.started,example.stopped,enter_2.keys,enter_2.rt,enter_2.duration,instructions2.started,instructions2.stopped,enter_3.keys,enter_3.rt,enter_3.duration,image.started,image.stopped,slider_2.started,slider_2.stopped,next.keys,next.rt,next.duration,slider.response,trial_block_1.thisRepN,trial_block_1.thisTrialN,trial_block_1.thisN,trial_block_1.thisIndex,trial_block_1.ran,Path,Width,Height,Index,Duration,trial_block_2.thisRepN,trial_block_2.thisTrialN,trial_block_2.thisN,trial_block_2.thisIndex,trial_block_2.ran,rest_break.started,rest_break.stopped,end_break.started,end_break.stopped,key_resp_5.keys,key_resp_5.rt,key_resp_5.duration,trial_block_3.thisRepN,trial_block_3.thisTrialN,trial_block_3.thisN,trial_block_3.thisIndex,trial_block_3.ran,trial_block_4.thisRepN,trial_block_4.thisTrialN,trial_block_4.thisN,trial_block_4.thisIndex,trial_block_4.ran,questions_intro.started,questions_intro.stopped,enter_12.keys,enter_12.rt,enter_12.duration,question2.started,question2.stopped,question_doingbest.response,question_doingbest.rt,enter_15.keys,enter_15.rt,enter_15.duration,pattern.started,pattern.stopped,pattern_2.text,enter_17.keys,enter_17.rt,enter_17.duration,thankyou.started,thankyou.stopped,enter_14.keys,enter_14.rt,enter_14.duration
0.0003,14.3403,return,14.3217,,V3_007,19,Female,2024-10-13_20h07.33.631,jersey_experiment_5_v3,2023.2.2,Win32,59.17159763,,,,,,,,,,,,,,,,,,,,,,,,,,,,,,,,,,,,,,,,,,,,,,,,,,,,,,,,,,,,,,,,,,,,,,,,,,,,,,
,,,,,V3_007,19,Female,2024-10-13_20h07.33.631,jersey_experiment_5_v3,2023.2.2,Win32,59.17159763,14.3405,19.0232,return,4.6649,,,,,,,,,,,,,,,,,,,,,,,,,,,,,,,,,,,,,,,,,,,,,,,,,,,,,,,,,,,,,,,,,,,,,,,,,,
,,,,,V3_007,19,Female,2024-10-13_20h07.33.631,jersey_experiment_5_v3,2023.2.2,Win32,59.17159763,,,,,,19.0234,22.8058,return,3.7221,,,,,,,,,,,,,,,,,,,,,,,,,,,,,,,,,,,,,,,,,,,,,,,,,,,,,,,,,,,,,,,,,,,,,
,,,,,V3_007,19,Female,2024-10-13_20h07.33.631,jersey_experiment_5_v3,2023.2.2,Win32,59.17159763,,,,,,,,,,,22.8059,36.3232,return,13.5093,,,,,,,,,,,,,,,,,,,,,,,,,,,,,,,,,,,,,,,,,,,,,,,,,,,,,,,,,,,,,,,,
,,,,,V3_007,19,Female,2024-10-13_20h07.33.631,jersey_experiment_5_v3,2023.2.2,Win32,59.17159763,,,,,,,,,,,,,,,,36.3359,37.8891,37.8893,57.4226,return,9.4825,,74.65277778,0,0,0,58,1,FBP-RB-19.png,0.43,1.2,59,0.75,,,,,,,,,,,,,,,,,,,,,,,,,,,,,,,,,,,,,,,,,,,,,
,,,,,V3_007,19,Female,2024-10-13_20h07.33.631,jersey_experiment_5_v3,2023.2.2,Win32,59.17159763,,,,,,,,,,,,,,,,57.4229,58.7224,58.7226,61.9224,return,1.3188,,29.79166667,0,1,1,40,1,FBP-OG-19.png,0.35,1.2,41,0.5,,,,,,,,,,,,,,,,,,,,,,,,,,,,,,,,,,,,,,,,,,,,,
,,,,,V3_007,19,Female,2024-10-13_20h07.33.631,jersey_experiment_5_v3,2023.2.2,Win32,59.17159763,,,,,,,,,,,,,,,,61.9227,63.4729,63.473,65.5394,return,0.7659,,85.83333333,0,2,2,29,1,FBP-PT-19.png,0.45,1.2,30,0.75,,,,,,,,,,,,,,,,,,,,,,,,,,,,,,,,,,,,,,,,,,,,,
,,,,,V3_007,19,Female,2024-10-13_20h07.33.631,jersey_experiment_5_v3,2023.2.2,Win32,59.17159763,,,,,,,,,,,,,,,,65.5398,66.8391,66.8391,69.4059,return,0.6491,,45.20833333,0,3,3,41,1,FBP-OG-19.png,0.37,1.2,42,0.5,,,,,,,,,,,,,,,,,,,,,,,,,,,,,,,,,,,,,,,,,,,,,
,,,,,V3_007,19,Female,2024-10-13_20h07.33.631,jersey_experiment_5_v3,2023.2.2,Win32,59.17159763,,,,,,,,,,,,,,,,69.4061,70.956,70.9561,72.5395,return,0.5691,,45,0,4,4,22,1,FBP-PT-18.png,0.4,1.2,23,0.75,,,,,,,,,,,,,,,,,,,,,,,,,,,,,,,,,,,,,,,,,,,,,
,,,,,V3_007,19,Female,2024-10-13_20h07.33.631,jersey_experiment_5_v3,2023.2.2,Win32,59.17159763,,,,,,,,,,,,,,,,72.5399,74.0892,74.0893,77.3898,return,0.6024,,47.36111111,0,5,5,1,1,FBP-YG-71.png,0.37,1.2,2,0.75,,,,,,,,,,,,,,,,,,,,,,,,,,,,,,,,,,,,,,,,,,,,,
,,,,,V3_007,19,Female,2024-10-13_20h07.33.631,jersey_experiment_5_v3,2023.2.2,Win32,59.17159763,,,,,,,,,,,,,,,,77.3905,78.9398,78.9399,81.1396,return,0.7594,,76.45833333,0,6,6,18,1,FBP-PT-17.png,0.43,1.2,19,0.75,,,,,,,,,,,,,,,,,,,,,,,,,,,,,,,,,,,,,,,,,,,,,
,,,,,V3_007,19,Female,2024-10-13_20h07.33.631,jersey_experiment_5_v3,2023.2.2,Win32,59.17159763,,,,,,,,,,,,,,,,81.1399,82.6895,82.6896,84.473,return,0.671,,77.22222222,0,7,7,59,1,FBP-RB-19.png,0.45,1.2,60,0.75,,,,,,,,,,,,,,,,,,,,,,,,,,,,,,,,,,,,,,,,,,,,,
,,,,,V3_007,19,Female,2024-10-13_20h07.33.631,jersey_experiment_5_v3,2023.2.2,Win32,59.17159763,,,,,,,,,,,,,,,,84.4732,86.0227,86.0228,88.356,return,0.6576,,27.43055556,0,8,8,45,1,FBP-RB-17.png,0.35,1.2,46,0.75,,,,,,,,,,,,,,,,,,,,,,,,,,,,,,,,,,,,,,,,,,,,,
,,,,,V3_007,19,Female,2024-10-13_20h07.33.631,jersey_experiment_5_v3,2023.2.2,Win32,59.17159763,,,,,,,,,,,,,,,,88.3562,89.9063,89.9063,91.5561,return,0.5593,,34.23611111,0,9,9,10,1,FBP-YG-91.png,0.35,1.2,11,0.75,,,,,,,,,,,,,,,,,,,,,,,,,,,,,,,,,,,,,,,,,,,,,
,,,,,V3_007,19,Female,2024-10-13_20h07.33.631,jersey_experiment_5_v3,2023.2.2,Win32,59.17159763,,,,,,,,,,,,,,,,91.5566,93.1062,93.1062,95.2894,return,0.6373,,54.86111111,0,10,10,51,1,FBP-RB-18.png,0.37,1.2,52,0.75,,,,,,,,,,,,,,,,,,,,,,,,,,,,,,,,,,,,,,,,,,,,,
,,,,,V3_007,19,Female,2024-10-13_20h07.33.631,jersey_experiment_5_v3,2023.2.2,Win32,59.17159763,,,,,,,,,,,,,,,,95.2897,96.8399,96.84,98.8231,return,0.9405,,77.08333333,0,11,11,56,1,FBP-RB-19.png,0.37,1.2,57,0.75,,,,,,,,,,,,,,,,,,,,,,,,,,,,,,,,,,,,,,,,,,,,,
,,,,,V3_007,19,Female,2024-10-13_20h07.33.631,jersey_experiment_5_v3,2023.2.2,Win32,59.17159763,,,,,,,,,,,,,,,,98.8235,100.3729,100.3729,101.9229,return,0.5999,,96.31944444,0,12,12,4,1,FBP-YG-71.png,0.45,1.2,5,0.75,,,,,,,,,,,,,,,,,,,,,,,,,,,,,,,,,,,,,,,,,,,,,
,,,,,V3_007,19,Female,2024-10-13_20h07.33.631,jersey_experiment_5_v3,2023.2.2,Win32,59.17159763,,,,,,,,,,,,,,,,101.9233,103.4727,103.4728,105.3728,return,0.8331,,78.88888889,0,13,13,57,1,FBP-RB-19.png,0.4,1.2,58,0.75,,,,,,,,,,,,,,,,,,,,,,,,,,,,,,,,,,,,,,,,,,,,,
,,,,,V3_007,19,Female,2024-10-13_20h07.33.631,jersey_experiment_5_v3,2023.2.2,Win32,59.17159763,,,,,,,,,,,,,,,,105.373,106.9231,106.9232,108.4729,return,0.6039,,90.41666667,0,14,14,9,1,FBP-YG-81.png,0.45,1.2,10,0.75,,,,,,,,,,,,,,,,,,,,,,,,,,,,,,,,,,,,,,,,,,,,,
,,,,,V3_007,19,Female,2024-10-13_20h07.33.631,jersey_experiment_5_v3,2023.2.2,Win32,59.17159763,,,,,,,,,,,,,,,,108.4732,110.023,110.023,111.6232,return,0.5406,,77.29166667,0,15,15,27,1,FBP-PT-19.png,0.4,1.2,28,0.75,,,,,,,,,,,,,,,,,,,,,,,,,,,,,,,,,,,,,,,,,,,,,
,,,,,V3_007,19,Female,2024-10-13_20h07.33.631,jersey_experiment_5_v3,2023.2.2,Win32,59.17159763,,,,,,,,,,,,,,,,111.6238,113.173,113.173,115.3229,return,0.568,,45.90277778,0,16,16,25,1,FBP-PT-19.png,0.35,1.2,26,0.75,,,,,,,,,,,,,,,,,,,,,,,,,,,,,,,,,,,,,,,,,,,,,
,,,,,V3_007,19,Female,2024-10-13_20h07.33.631,jersey_experiment_5_v3,2023.2.2,Win32,59.17159763,,,,,,,,,,,,,,,,115.3234,116.6234,116.6234,117.9897,return,0.5433,,45.90277778,0,17,17,36,1,FBP-OG-18.png,0.37,1.2,37,0.5,,,,,,,,,,,,,,,,,,,,,,,,,,,,,,,,,,,,,,,,,,,,,
,,,,,V3_007,19,Female,2024-10-13_20h07.33.631,jersey_experiment_5_v3,2023.2.2,Win32,59.17159763,,,,,,,,,,,,,,,,117.9902,119.5398,119.5399,121.0062,return,0.667,,42.98611111,0,18,18,21,1,FBP-PT-18.png,0.37,1.2,22,0.75,,,,,,,,,,,,,,,,,,,,,,,,,,,,,,,,,,,,,,,,,,,,,
,,,,,V3_007,19,Female,2024-10-13_20h07.33.631,jersey_experiment_5_v3,2023.2.2,Win32,59.17159763,,,,,,,,,,,,,,,,121.0063,122.5566,122.5567,124.0731,return,0.5705,,31.31944444,0,19,19,55,1,FBP-RB-19.png,0.35,1.2,56,0.75,,,,,,,,,,,,,,,,,,,,,,,,,,,,,,,,,,,,,,,,,,,,,
,,,,,V3_007,19,Female,2024-10-13_20h07.33.631,jersey_experiment_5_v3,2023.2.2,Win32,59.17159763,,,,,,,,,,,,,,,,124.0735,125.3729,125.3729,127.1729,return,0.6089,,65.55555556,0,20,20,37,1,FBP-OG-18.png,0.4,1.2,38,0.5,,,,,,,,,,,,,,,,,,,,,,,,,,,,,,,,,,,,,,,,,,,,,
,,,,,V3_007,19,Female,2024-10-13_20h07.33.631,jersey_experiment_5_v3,2023.2.2,Win32,59.17159763,,,,,,,,,,,,,,,,127.1731,128.723,128.723,130.7229,return,0.8448,,46.38888889,0,21,21,6,1,FBP-YG-81.png,0.37,1.2,7,0.75,,,,,,,,,,,,,,,,,,,,,,,,,,,,,,,,,,,,,,,,,,,,,
,,,,,V3_007,19,Female,2024-10-13_20h07.33.631,jersey_experiment_5_v3,2023.2.2,Win32,59.17159763,,,,,,,,,,,,,,,,130.7231,132.2735,132.2737,133.7904,return,0.4191,,66.66666667,0,22,22,17,1,FBP-PT-17.png,0.4,1.2,18,0.75,,,,,,,,,,,,,,,,,,,,,,,,,,,,,,,,,,,,,,,,,,,,,
,,,,,V3_007,19,Female,2024-10-13_20h07.33.631,jersey_experiment_5_v3,2023.2.2,Win32,59.17159763,,,,,,,,,,,,,,,,133.791,135.3407,135.3407,136.5902,return,0.6009,,39.79166667,0,23,23,20,1,FBP-PT-18.png,0.35,1.2,21,0.75,,,,,,,,,,,,,,,,,,,,,,,,,,,,,,,,,,,,,,,,,,,,,
,,,,,V3_007,19,Female,2024-10-13_20h07.33.631,jersey_experiment_5_v3,2023.2.2,Win32,59.17159763,,,,,,,,,,,,,,,,136.5908,138.1406,138.1408,139.8568,return,0.6848,,74.79166667,0,24,24,12,1,FBP-YG-91.png,0.4,1.2,13,0.75,,,,,,,,,,,,,,,,,,,,,,,,,,,,,,,,,,,,,,,,,,,,,
,,,,,V3_007,19,Female,2024-10-13_20h07.33.631,jersey_experiment_5_v3,2023.2.2,Win32,59.17159763,,,,,,,,,,,,,,,,139.8572,141.1569,141.157,142.5565,return,0.5167,,40.20833333,0,25,25,35,1,FBP-OG-18.png,0.35,1.2,36,0.5,,,,,,,,,,,,,,,,,,,,,,,,,,,,,,,,,,,,,,,,,,,,,
,,,,,V3_007,19,Female,2024-10-13_20h07.33.631,jersey_experiment_5_v3,2023.2.2,Win32,59.17159763,,,,,,,,,,,,,,,,142.5569,144.1069,144.107,146.1234,return,0.586,,94.375,0,26,26,19,1,FBP-PT-17.png,0.45,1.2,20,0.75,,,,,,,,,,,,,,,,,,,,,,,,,,,,,,,,,,,,,,,,,,,,,
,,,,,V3_007,19,Female,2024-10-13_20h07.33.631,jersey_experiment_5_v3,2023.2.2,Win32,59.17159763,,,,,,,,,,,,,,,,146.1238,147.6733,147.6734,149.2233,return,0.5561,,46.31944444,0,27,27,16,1,FBP-PT-17.png,0.37,1.2,17,0.75,,,,,,,,,,,,,,,,,,,,,,,,,,,,,,,,,,,,,,,,,,,,,
,,,,,V3_007,19,Female,2024-10-13_20h07.33.631,jersey_experiment_5_v3,2023.2.2,Win32,59.17159763,,,,,,,,,,,,,,,,149.2239,150.7733,150.7733,151.9067,return,0.4782,,64.23611111,0,28,28,13,1,FBP-YG-91.png,0.43,1.2,14,0.75,,,,,,,,,,,,,,,,,,,,,,,,,,,,,,,,,,,,,,,,,,,,,
,,,,,V3_007,19,Female,2024-10-13_20h07.33.631,jersey_experiment_5_v3,2023.2.2,Win32,59.17159763,,,,,,,,,,,,,,,,151.9071,153.4565,153.4565,156.6899,return,2.3676,,50.83333333,0,29,29,11,1,FBP-YG-91.png,0.37,1.2,12,0.75,,,,,,,,,,,,,,,,,,,,,,,,,,,,,,,,,,,,,,,,,,,,,
,,,,,V3_007,19,Female,2024-10-13_20h07.33.631,jersey_experiment_5_v3,2023.2.2,Win32,59.17159763,,,,,,,,,,,,,,,,156.6902,158.2399,158.24,159.3066,return,0.5528,,46.94444444,0,30,30,15,1,FBP-PT-17.png,0.35,1.2,16,0.75,,,,,,,,,,,,,,,,,,,,,,,,,,,,,,,,,,,,,,,,,,,,,
,,,,,V3_007,19,Female,2024-10-13_20h07.33.631,jersey_experiment_5_v3,2023.2.2,Win32,59.17159763,,,,,,,,,,,,,,,,159.307,160.6068,160.6069,162.2735,return,0.751,,79.02777778,0,31,31,44,1,FBP-OG-19.png,0.45,1.2,45,0.5,,,,,,,,,,,,,,,,,,,,,,,,,,,,,,,,,,,,,,,,,,,,,
,,,,,V3_007,19,Female,2024-10-13_20h07.33.631,jersey_experiment_5_v3,2023.2.2,Win32,59.17159763,,,,,,,,,,,,,,,,162.2739,163.5733,163.5734,165.3403,return,1.0011,,51.73611111,0,32,32,31,1,FBP-OG-17.png,0.37,1.2,32,0.5,,,,,,,,,,,,,,,,,,,,,,,,,,,,,,,,,,,,,,,,,,,,,
,,,,,V3_007,19,Female,2024-10-13_20h07.33.631,jersey_experiment_5_v3,2023.2.2,Win32,59.17159763,,,,,,,,,,,,,,,,165.3407,166.6404,166.6406,168.0066,return,0.6417,,82.15277778,0,33,33,43,1,FBP-OG-19.png,0.43,1.2,44,0.5,,,,,,,,,,,,,,,,,,,,,,,,,,,,,,,,,,,,,,,,,,,,,
,,,,,V3_007,19,Female,2024-10-13_20h07.33.631,jersey_experiment_5_v3,2023.2.2,Win32,59.17159763,,,,,,,,,,,,,,,,168.0069,169.5567,169.5568,170.59,return,0.5365,,72.98611111,0,34,34,46,1,FBP-RB-17.png,0.37,1.2,47,0.75,,,,,,,,,,,,,,,,,,,,,,,,,,,,,,,,,,,,,,,,,,,,,
,,,,,V3_007,19,Female,2024-10-13_20h07.33.631,jersey_experiment_5_v3,2023.2.2,Win32,59.17159763,,,,,,,,,,,,,,,,170.5905,172.1405,172.1406,173.4237,return,0.5838,,70.83333333,0,35,35,2,1,FBP-YG-71.png,0.4,1.2,3,0.75,,,,,,,,,,,,,,,,,,,,,,,,,,,,,,,,,,,,,,,,,,,,,
,,,,,V3_007,19,Female,2024-10-13_20h07.33.631,jersey_experiment_5_v3,2023.2.2,Win32,59.17159763,,,,,,,,,,,,,,,,173.4242,174.7233,174.7233,175.6567,return,0.4539,,70,0,36,36,32,1,FBP-OG-17.png,0.4,1.2,33,0.5,,,,,,,,,,,,,,,,,,,,,,,,,,,,,,,,,,,,,,,,,,,,,
,,,,,V3_007,19,Female,2024-10-13_20h07.33.631,jersey_experiment_5_v3,2023.2.2,Win32,59.17159763,,,,,,,,,,,,,,,,175.657,177.2067,177.2068,179.4737,return,1.2012,,56.94444444,0,37,37,0,1,FBP-YG-71.png,0.35,1.2,1,0.75,,,,,,,,,,,,,,,,,,,,,,,,,,,,,,,,,,,,,,,,,,,,,
,,,,,V3_007,19,Female,2024-10-13_20h07.33.631,jersey_experiment_5_v3,2023.2.2,Win32,59.17159763,,,,,,,,,,,,,,,,179.4743,181.0234,181.0235,182.4569,return,0.5218,,43.33333333,0,38,38,5,1,FBP-YG-81.png,0.35,1.2,6,0.75,,,,,,,,,,,,,,,,,,,,,,,,,,,,,,,,,,,,,,,,,,,,,
,,,,,V3_007,19,Female,2024-10-13_20h07.33.631,jersey_experiment_5_v3,2023.2.2,Win32,59.17159763,,,,,,,,,,,,,,,,182.4573,183.757,183.7571,185.4735,return,0.551,,76.66666667,0,39,39,34,1,FBP-OG-17.png,0.45,1.2,35,0.5,,,,,,,,,,,,,,,,,,,,,,,,,,,,,,,,,,,,,,,,,,,,,
,,,,,V3_007,19,Female,2024-10-13_20h07.33.631,jersey_experiment_5_v3,2023.2.2,Win32,59.17159763,,,,,,,,,,,,,,,,185.474,186.7734,186.7735,189.3067,return,1.2198,,53.54166667,0,40,40,42,1,FBP-OG-19.png,0.4,1.2,43,0.5,,,,,,,,,,,,,,,,,,,,,,,,,,,,,,,,,,,,,,,,,,,,,
,,,,,V3_007,19,Female,2024-10-13_20h07.33.631,jersey_experiment_5_v3,2023.2.2,Win32,59.17159763,,,,,,,,,,,,,,,,189.307,190.8572,190.8572,191.9733,return,0.5427,,65.97222222,0,41,41,48,1,FBP-RB-17.png,0.43,1.2,49,0.75,,,,,,,,,,,,,,,,,,,,,,,,,,,,,,,,,,,,,,,,,,,,,
,,,,,V3_007,19,Female,2024-10-13_20h07.33.631,jersey_experiment_5_v3,2023.2.2,Win32,59.17159763,,,,,,,,,,,,,,,,191.9735,193.5234,193.5234,195.1404,return,0.5603,,51.52777778,0,42,42,7,1,FBP-YG-81.png,0.4,1.2,8,0.75,,,,,,,,,,,,,,,,,,,,,,,,,,,,,,,,,,,,,,,,,,,,,
,,,,,V3_007,19,Female,2024-10-13_20h07.33.631,jersey_experiment_5_v3,2023.2.2,Win32,59.17159763,,,,,,,,,,,,,,,,195.1408,196.6903,196.6903,197.8568,return,0.5656,,68.40277778,0,43,43,28,1,FBP-PT-19.png,0.43,1.2,29,0.75,,,,,,,,,,,,,,,,,,,,,,,,,,,,,,,,,,,,,,,,,,,,,
,,,,,V3_007,19,Female,2024-10-13_20h07.33.631,jersey_experiment_5_v3,2023.2.2,Win32,59.17159763,,,,,,,,,,,,,,,,197.857,199.1567,199.1568,200.5234,return,0.4687,,32.5,0,44,44,30,1,FBP-OG-17.png,0.35,1.2,31,0.5,,,,,,,,,,,,,,,,,,,,,,,,,,,,,,,,,,,,,,,,,,,,,
,,,,,V3_007,19,Female,2024-10-13_20h07.33.631,jersey_experiment_5_v3,2023.2.2,Win32,59.17159763,,,,,,,,,,,,,,,,200.524,202.0738,202.0739,203.1734,return,0.4755,,61.25,0,45,45,52,1,FBP-RB-18.png,0.4,1.2,53,0.75,,,,,,,,,,,,,,,,,,,,,,,,,,,,,,,,,,,,,,,,,,,,,
,,,,,V3_007,19,Female,2024-10-13_20h07.33.631,jersey_experiment_5_v3,2023.2.2,Win32,59.17159763,,,,,,,,,,,,,,,,203.1736,204.4736,204.4737,206.0902,return,1.0178,,67.22222222,0,46,46,38,1,FBP-OG-18.png,0.43,1.2,39,0.5,,,,,,,,,,,,,,,,,,,,,,,,,,,,,,,,,,,,,,,,,,,,,
,,,,,V3_007,19,Female,2024-10-13_20h07.33.631,jersey_experiment_5_v3,2023.2.2,Win32,59.17159763,,,,,,,,,,,,,,,,206.0905,207.3905,207.3905,208.8405,return,0.6382,,77.08333333,0,47,47,39,1,FBP-OG-18.png,0.45,1.2,40,0.5,,,,,,,,,,,,,,,,,,,,,,,,,,,,,,,,,,,,,,,,,,,,,
,,,,,V3_007,19,Female,2024-10-13_20h07.33.631,jersey_experiment_5_v3,2023.2.2,Win32,59.17159763,,,,,,,,,,,,,,,,208.8412,210.3904,210.3905,211.1567,return,0.3577,,77.08333333,0,48,48,14,1,FBP-YG-91.png,0.45,1.2,15,0.75,,,,,,,,,,,,,,,,,,,,,,,,,,,,,,,,,,,,,,,,,,,,,
,,,,,V3_007,19,Female,2024-10-13_20h07.33.631,jersey_experiment_5_v3,2023.2.2,Win32,59.17159763,,,,,,,,,,,,,,,,211.1569,212.7071,212.7071,214.1735,return,0.5327,,91.73611111,0,49,49,54,1,FBP-RB-18.png,0.45,1.2,55,0.75,,,,,,,,,,,,,,,,,,,,,,,,,,,,,,,,,,,,,,,,,,,,,
,,,,,V3_007,19,Female,2024-10-13_20h07.33.631,jersey_experiment_5_v3,2023.2.2,Win32,59.17159763,,,,,,,,,,,,,,,,214.1738,215.4736,215.4737,216.7237,return,0.6164,,91.73611111,0,50,50,33,1,FBP-OG-17.png,0.43,1.2,34,0.5,,,,,,,,,,,,,,,,,,,,,,,,,,,,,,,,,,,,,,,,,,,,,
,,,,,V3_007,19,Female,2024-10-13_20h07.33.631,jersey_experiment_5_v3,2023.2.2,Win32,59.17159763,,,,,,,,,,,,,,,,216.7241,218.274,218.2741,220.0402,return,0.9899,,52.01388889,0,51,51,26,1,FBP-PT-19.png,0.37,1.2,27,0.75,,,,,,,,,,,,,,,,,,,,,,,,,,,,,,,,,,,,,,,,,,,,,
,,,,,V3_007,19,Female,2024-10-13_20h07.33.631,jersey_experiment_5_v3,2023.2.2,Win32,59.17159763,,,,,,,,,,,,,,,,220.0406,221.5914,221.5915,222.7071,return,0.3955,,25.69444444,0,52,52,50,1,FBP-RB-18.png,0.35,1.2,51,0.75,,,,,,,,,,,,,,,,,,,,,,,,,,,,,,,,,,,,,,,,,,,,,
,,,,,V3_007,19,Female,2024-10-13_20h07.33.631,jersey_experiment_5_v3,2023.2.2,Win32,59.17159763,,,,,,,,,,,,,,,,222.7077,224.2571,224.2572,225.224,return,0.3735,,51.38888889,0,53,53,47,1,FBP-RB-17.png,0.4,1.2,48,0.75,,,,,,,,,,,,,,,,,,,,,,,,,,,,,,,,,,,,,,,,,,,,,
,,,,,V3_007,19,Female,2024-10-13_20h07.33.631,jersey_experiment_5_v3,2023.2.2,Win32,59.17159763,,,,,,,,,,,,,,,,225.2246,226.7735,226.7736,227.6069,return,0.4058,,53.125,0,54,54,3,1,FBP-YG-71.png,0.43,1.2,4,0.75,,,,,,,,,,,,,,,,,,,,,,,,,,,,,,,,,,,,,,,,,,,,,
,,,,,V3_007,19,Female,2024-10-13_20h07.33.631,jersey_experiment_5_v3,2023.2.2,Win32,59.17159763,,,,,,,,,,,,,,,,227.6072,229.1568,229.157,229.8405,return,0.3499,,53.125,0,55,55,53,1,FBP-RB-18.png,0.43,1.2,54,0.75,,,,,,,,,,,,,,,,,,,,,,,,,,,,,,,,,,,,,,,,,,,,,
,,,,,V3_007,19,Female,2024-10-13_20h07.33.631,jersey_experiment_5_v3,2023.2.2,Win32,59.17159763,,,,,,,,,,,,,,,,229.8408,231.3904,231.3905,232.1406,return,0.3675,,53.19444444,0,56,56,24,1,FBP-PT-18.png,0.45,1.2,25,0.75,,,,,,,,,,,,,,,,,,,,,,,,,,,,,,,,,,,,,,,,,,,,,
,,,,,V3_007,19,Female,2024-10-13_20h07.33.631,jersey_experiment_5_v3,2023.2.2,Win32,59.17159763,,,,,,,,,,,,,,,,232.1412,233.6906,233.6908,234.4738,return,0.3702,,53.26388889,0,57,57,49,1,FBP-RB-17.png,0.45,1.2,50,0.75,,,,,,,,,,,,,,,,,,,,,,,,,,,,,,,,,,,,,,,,,,,,,
,,,,,V3_007,19,Female,2024-10-13_20h07.33.631,jersey_experiment_5_v3,2023.2.2,Win32,59.17159763,,,,,,,,,,,,,,,,234.4742,236.0238,236.0238,236.9736,return,0.3672,,62.98611111,0,58,58,23,1,FBP-PT-18.png,0.43,1.2,24,0.75,,,,,,,,,,,,,,,,,,,,,,,,,,,,,,,,,,,,,,,,,,,,,
,,,,,V3_007,19,Female,2024-10-13_20h07.33.631,jersey_experiment_5_v3,2023.2.2,Win32,59.17159763,,,,,,,,,,,,,,,,236.9738,238.524,238.5241,239.8737,return,0.9302,,63.05555556,0,59,59,8,1,FBP-YG-81.png,0.43,1.2,9,0.75,,,,,,,,,,,,,,,,,,,,,,,,,,,,,,,,,,,,,,,,,,,,,
,,,,,V3_007,19,Female,2024-10-13_20h07.33.631,jersey_experiment_5_v3,2023.2.2,Win32,59.17159763,,,,,,,,,,,,,,,,239.8772,241.4236,241.4237,243.2904,return,1.1855,,29.02777778,,,,,,FBP-RB-71.png,0.37,1.2,47,0.75,0,0,0,46,1,,,,,,,,,,,,,,,,,,,,,,,,,,,,,,,,,,,,,,,,
,,,,,V3_007,19,Female,2024-10-13_20h07.33.631,jersey_experiment_5_v3,2023.2.2,Win32,59.17159763,,,,,,,,,,,,,,,,243.2911,244.8404,244.8404,245.9737,return,0.3903,,62.56944444,,,,,,FBP-PT-81.png,0.4,1.2,23,0.75,0,1,1,22,1,,,,,,,,,,,,,,,,,,,,,,,,,,,,,,,,,,,,,,,,
,,,,,V3_007,19,Female,2024-10-13_20h07.33.631,jersey_experiment_5_v3,2023.2.2,Win32,59.17159763,,,,,,,,,,,,,,,,245.9741,247.2743,247.2745,248.5405,return,0.3829,,28.19444444,,,,,,FBP-OG-81.png,0.35,1.2,36,0.5,0,2,2,35,1,,,,,,,,,,,,,,,,,,,,,,,,,,,,,,,,,,,,,,,,
,,,,,V3_007,19,Female,2024-10-13_20h07.33.631,jersey_experiment_5_v3,2023.2.2,Win32,59.17159763,,,,,,,,,,,,,,,,248.5408,250.0908,250.0908,251.474,return,0.6829,,63.26388889,,,,,,FBP-RB-81.png,0.43,1.2,54,0.75,0,3,3,53,1,,,,,,,,,,,,,,,,,,,,,,,,,,,,,,,,,,,,,,,,
,,,,,V3_007,19,Female,2024-10-13_20h07.33.631,jersey_experiment_5_v3,2023.2.2,Win32,59.17159763,,,,,,,,,,,,,,,,251.4745,252.7739,252.7739,253.8071,return,0.3674,,45.13888889,,,,,,FBP-OG-71.png,0.37,1.2,32,0.5,0,4,4,31,1,,,,,,,,,,,,,,,,,,,,,,,,,,,,,,,,,,,,,,,,
,,,,,V3_007,19,Female,2024-10-13_20h07.33.631,jersey_experiment_5_v3,2023.2.2,Win32,59.17159763,,,,,,,,,,,,,,,,253.8074,255.1073,255.1074,256.1072,return,0.5363,,45.13888889,,,,,,FBP-OG-81.png,0.37,1.2,37,0.5,0,5,5,36,1,,,,,,,,,,,,,,,,,,,,,,,,,,,,,,,,,,,,,,,,
,,,,,V3_007,19,Female,2024-10-13_20h07.33.631,jersey_experiment_5_v3,2023.2.2,Win32,59.17159763,,,,,,,,,,,,,,,,256.1076,257.6571,257.6572,258.941,return,0.8847,,47.98611111,,,,,,FBP-YG-17.png,0.37,1.2,2,0.75,0,6,6,1,1,,,,,,,,,,,,,,,,,,,,,,,,,,,,,,,,,,,,,,,,
,,,,,V3_007,19,Female,2024-10-13_20h07.33.631,jersey_experiment_5_v3,2023.2.2,Win32,59.17159763,,,,,,,,,,,,,,,,258.9415,260.4907,260.4908,261.4908,return,0.4282,,54.30555556,,,,,,FBP-YG-18.png,0.37,1.2,7,0.75,0,7,7,6,1,,,,,,,,,,,,,,,,,,,,,,,,,,,,,,,,,,,,,,,,
,,,,,V3_007,19,Female,2024-10-13_20h07.33.631,jersey_experiment_5_v3,2023.2.2,Win32,59.17159763,,,,,,,,,,,,,,,,261.4911,262.7909,262.791,263.8739,return,0.4518,,58.54166667,,,,,,FBP-OG-91.png,0.37,1.2,42,0.5,0,8,8,41,1,,,,,,,,,,,,,,,,,,,,,,,,,,,,,,,,,,,,,,,,
,,,,,V3_007,19,Female,2024-10-13_20h07.33.631,jersey_experiment_5_v3,2023.2.2,Win32,59.17159763,,,,,,,,,,,,,,,,263.8743,265.4241,265.4241,266.4905,return,0.4516,,72.77777778,,,,,,FBP-PT-81.png,0.45,1.2,25,0.75,0,9,9,24,1,,,,,,,,,,,,,,,,,,,,,,,,,,,,,,,,,,,,,,,,
,,,,,V3_007,19,Female,2024-10-13_20h07.33.631,jersey_experiment_5_v3,2023.2.2,Win32,59.17159763,,,,,,,,,,,,,,,,266.4908,268.0404,268.0404,268.8906,return,0.4203,,73.33333333,,,,,,FBP-RB-81.png,0.45,1.2,55,0.75,0,10,10,54,1,,,,,,,,,,,,,,,,,,,,,,,,,,,,,,,,,,,,,,,,
,,,,,V3_007,19,Female,2024-10-13_20h07.33.631,jersey_experiment_5_v3,2023.2.2,Win32,59.17159763,,,,,,,,,,,,,,,,268.8909,270.1906,270.1907,271.791,return,0.4186,,73.95833333,,,,,,FBP-OG-71.png,0.43,1.2,34,0.5,0,11,11,33,1,,,,,,,,,,,,,,,,,,,,,,,,,,,,,,,,,,,,,,,,
,,,,,V3_007,19,Female,2024-10-13_20h07.33.631,jersey_experiment_5_v3,2023.2.2,Win32,59.17159763,,,,,,,,,,,,,,,,271.7916,273.3411,273.3412,273.991,return,0.3897,,73.54166667,,,,,,FBP-PT-91.png,0.45,1.2,30,0.75,0,12,12,29,1,,,,,,,,,,,,,,,,,,,,,,,,,,,,,,,,,,,,,,,,
,,,,,V3_007,19,Female,2024-10-13_20h07.33.631,jersey_experiment_5_v3,2023.2.2,Win32,59.17159763,,,,,,,,,,,,,,,,273.9916,275.5413,275.5414,276.4073,return,0.4053,,72.77777778,,,,,,FBP-RB-91.png,0.43,1.2,59,0.75,0,13,13,58,1,,,,,,,,,,,,,,,,,,,,,,,,,,,,,,,,,,,,,,,,
,,,,,V3_007,19,Female,2024-10-13_20h07.33.631,jersey_experiment_5_v3,2023.2.2,Win32,59.17159763,,,,,,,,,,,,,,,,276.4077,277.9575,277.9575,278.9739,return,0.3805,,51.94444444,,,,,,FBP-YG-18.png,0.4,1.2,8,0.75,0,14,14,7,1,,,,,,,,,,,,,,,,,,,,,,,,,,,,,,,,,,,,,,,,
,,,,,V3_007,19,Female,2024-10-13_20h07.33.631,jersey_experiment_5_v3,2023.2.2,Win32,59.17159763,,,,,,,,,,,,,,,,278.9742,280.5242,280.5242,281.7575,return,0.5176,,17.63888889,,,,,,FBP-RB-81.png,0.35,1.2,51,0.75,0,15,15,50,1,,,,,,,,,,,,,,,,,,,,,,,,,,,,,,,,,,,,,,,,
,,,,,V3_007,19,Female,2024-10-13_20h07.33.631,jersey_experiment_5_v3,2023.2.2,Win32,59.17159763,,,,,,,,,,,,,,,,281.7579,283.3075,283.3075,284.6911,return,0.8343,,6.388888889,,,,,,FBP-RB-71.png,0.35,1.2,46,0.75,0,16,16,45,1,,,,,,,,,,,,,,,,,,,,,,,,,,,,,,,,,,,,,,,,
,,,,,V3_007,19,Female,2024-10-13_20h07.33.631,jersey_experiment_5_v3,2023.2.2,Win32,59.17159763,,,,,,,,,,,,,,,,284.6914,286.2413,286.2413,288.7241,return,0.4091,,52.84722222,,,,,,FBP-YG-17.png,0.4,1.2,3,0.75,0,17,17,2,1,,,,,,,,,,,,,,,,,,,,,,,,,,,,,,,,,,,,,,,,
,,,,,V3_007,19,Female,2024-10-13_20h07.33.631,jersey_experiment_5_v3,2023.2.2,Win32,59.17159763,,,,,,,,,,,,,,,,288.7246,290.2746,290.2747,291.1912,return,0.4408,,64.09722222,,,,,,FBP-YG-17.png,0.43,1.2,4,0.75,0,18,18,3,1,,,,,,,,,,,,,,,,,,,,,,,,,,,,,,,,,,,,,,,,
,,,,,V3_007,19,Female,2024-10-13_20h07.33.631,jersey_experiment_5_v3,2023.2.2,Win32,59.17159763,,,,,,,,,,,,,,,,291.1918,292.7406,292.7407,294.4073,return,0.8892,,65.13888889,,,,,,FBP-PT-91.png,0.37,1.2,27,0.75,0,19,19,26,1,,,,,,,,,,,,,,,,,,,,,,,,,,,,,,,,,,,,,,,,
,,,,,V3_007,19,Female,2024-10-13_20h07.33.631,jersey_experiment_5_v3,2023.2.2,Win32,59.17159763,,,,,,,,,,,,,,,,294.4075,295.9576,295.9576,297.0246,return,0.4691,,67.36111111,,,,,,FBP-RB-71.png,0.43,1.2,49,0.75,0,20,20,48,1,,,,,,,,,,,,,,,,,,,,,,,,,,,,,,,,,,,,,,,,
,,,,,V3_007,19,Female,2024-10-13_20h07.33.631,jersey_experiment_5_v3,2023.2.2,Win32,59.17159763,,,,,,,,,,,,,,,,297.0251,298.574,298.574,299.4246,return,0.4011,,67.36111111,,,,,,FBP-PT-71.png,0.37,1.2,17,0.75,0,21,21,16,1,,,,,,,,,,,,,,,,,,,,,,,,,,,,,,,,,,,,,,,,
,,,,,V3_007,19,Female,2024-10-13_20h07.33.631,jersey_experiment_5_v3,2023.2.2,Win32,59.17159763,,,,,,,,,,,,,,,,299.4253,300.9744,300.9744,301.8907,return,0.3782,,41.73611111,,,,,,FBP-YG-18.png,0.35,1.2,6,0.75,0,22,22,5,1,,,,,,,,,,,,,,,,,,,,,,,,,,,,,,,,,,,,,,,,
,,,,,V3_007,19,Female,2024-10-13_20h07.33.631,jersey_experiment_5_v3,2023.2.2,Win32,59.17159763,,,,,,,,,,,,,,,,301.8911,303.4411,303.4412,304.8241,return,0.5217,,74.44444444,,,,,,FBP-RB-71.png,0.45,1.2,50,0.75,0,23,23,49,1,,,,,,,,,,,,,,,,,,,,,,,,,,,,,,,,,,,,,,,,
,,,,,V3_007,19,Female,2024-10-13_20h07.33.631,jersey_experiment_5_v3,2023.2.2,Win32,59.17159763,,,,,,,,,,,,,,,,304.8246,306.374,306.3741,306.9914,return,0.3664,,73.26388889,,,,,,FBP-PT-91.png,0.4,1.2,28,0.75,0,24,24,27,1,,,,,,,,,,,,,,,,,,,,,,,,,,,,,,,,,,,,,,,,
,,,,,V3_007,19,Female,2024-10-13_20h07.33.631,jersey_experiment_5_v3,2023.2.2,Win32,59.17159763,,,,,,,,,,,,,,,,306.9919,308.5413,308.5414,309.2247,return,0.4377,,73.26388889,,,,,,FBP-PT-91.png,0.43,1.2,29,0.75,0,25,25,28,1,,,,,,,,,,,,,,,,,,,,,,,,,,,,,,,,,,,,,,,,
,,,,,V3_007,19,Female,2024-10-13_20h07.33.631,jersey_experiment_5_v3,2023.2.2,Win32,59.17159763,,,,,,,,,,,,,,,,309.2252,310.7742,310.7742,312.025,return,0.7729,,47.5,,,,,,FBP-PT-81.png,0.37,1.2,22,0.75,0,26,26,21,1,,,,,,,,,,,,,,,,,,,,,,,,,,,,,,,,,,,,,,,,
,,,,,V3_007,19,Female,2024-10-13_20h07.33.631,jersey_experiment_5_v3,2023.2.2,Win32,59.17159763,,,,,,,,,,,,,,,,312.0254,313.3242,313.3242,316.6744,return,1.3498,,78.40277778,,,,,,FBP-OG-91.png,0.43,1.2,44,0.5,0,27,27,43,1,,,,,,,,,,,,,,,,,,,,,,,,,,,,,,,,,,,,,,,,
,,,,,V3_007,19,Female,2024-10-13_20h07.33.631,jersey_experiment_5_v3,2023.2.2,Win32,59.17159763,,,,,,,,,,,,,,,,316.6748,318.2245,318.2246,319.2248,return,0.3546,,54.02777778,,,,,,FBP-RB-71.png,0.4,1.2,48,0.75,0,28,28,47,1,,,,,,,,,,,,,,,,,,,,,,,,,,,,,,,,,,,,,,,,
,,,,,V3_007,19,Female,2024-10-13_20h07.33.631,jersey_experiment_5_v3,2023.2.2,Win32,59.17159763,,,,,,,,,,,,,,,,319.2255,320.7745,320.7745,321.8578,return,0.6995,,67.08333333,,,,,,FBP-YG-18.png,0.45,1.2,10,0.75,0,29,29,9,1,,,,,,,,,,,,,,,,,,,,,,,,,,,,,,,,,,,,,,,,
,,,,,V3_007,19,Female,2024-10-13_20h07.33.631,jersey_experiment_5_v3,2023.2.2,Win32,59.17159763,,,,,,,,,,,,,,,,321.8583,323.4077,323.4079,324.6744,return,0.4526,,53.54166667,,,,,,FBP-RB-81.png,0.4,1.2,53,0.75,0,30,30,52,1,,,,,,,,,,,,,,,,,,,,,,,,,,,,,,,,,,,,,,,,
,,,,,V3_007,19,Female,2024-10-13_20h07.33.631,jersey_experiment_5_v3,2023.2.2,Win32,59.17159763,,,,,,,,,,,,,,,,324.6748,325.9742,325.9742,327.0415,return,0.4171,,71.66666667,,,,,,FBP-OG-81.png,0.45,1.2,40,0.5,0,31,31,39,1,,,,,,,,,,,,,,,,,,,,,,,,,,,,,,,,,,,,,,,,
,,,,,V3_007,19,Female,2024-10-13_20h07.33.631,jersey_experiment_5_v3,2023.2.2,Win32,59.17159763,,,,,,,,,,,,,,,,327.0419,328.5914,328.5915,329.2408,return,0.3693,,71.66666667,,,,,,FBP-YG-19.png,0.45,1.2,15,0.75,0,32,32,14,1,,,,,,,,,,,,,,,,,,,,,,,,,,,,,,,,,,,,,,,,
,,,,,V3_007,19,Female,2024-10-13_20h07.33.631,jersey_experiment_5_v3,2023.2.2,Win32,59.17159763,,,,,,,,,,,,,,,,329.2411,330.5411,330.5412,332.3412,return,1.0907,,56.45833333,,,,,,FBP-OG-91.png,0.4,1.2,43,0.5,0,33,33,42,1,,,,,,,,,,,,,,,,,,,,,,,,,,,,,,,,,,,,,,,,
,,,,,V3_007,19,Female,2024-10-13_20h07.33.631,jersey_experiment_5_v3,2023.2.2,Win32,59.17159763,,,,,,,,,,,,,,,,332.3417,333.6411,333.6412,334.3076,return,0.3101,,56.38888889,,,,,,FBP-OG-71.png,0.4,1.2,33,0.5,0,34,34,32,1,,,,,,,,,,,,,,,,,,,,,,,,,,,,,,,,,,,,,,,,
,,,,,V3_007,19,Female,2024-10-13_20h07.33.631,jersey_experiment_5_v3,2023.2.2,Win32,59.17159763,,,,,,,,,,,,,,,,334.3078,335.8583,335.8584,336.6909,return,0.3945,,74.44444444,,,,,,FBP-RB-91.png,0.45,1.2,60,0.75,0,35,35,59,1,,,,,,,,,,,,,,,,,,,,,,,,,,,,,,,,,,,,,,,,
,,,,,V3_007,19,Female,2024-10-13_20h07.33.631,jersey_experiment_5_v3,2023.2.2,Win32,59.17159763,,,,,,,,,,,,,,,,336.6911,338.2409,338.241,339.4744,return,0.3267,,74.44444444,,,,,,FBP-YG-18.png,0.43,1.2,9,0.75,0,36,36,8,1,,,,,,,,,,,,,,,,,,,,,,,,,,,,,,,,,,,,,,,,
,,,,,V3_007,19,Female,2024-10-13_20h07.33.631,jersey_experiment_5_v3,2023.2.2,Win32,59.17159763,,,,,,,,,,,,,,,,339.4747,340.7745,340.7746,341.9743,return,0.3731,,55.48611111,,,,,,FBP-OG-81.png,0.4,1.2,38,0.5,0,37,37,37,1,,,,,,,,,,,,,,,,,,,,,,,,,,,,,,,,,,,,,,,,
,,,,,V3_007,19,Female,2024-10-13_20h07.33.631,jersey_experiment_5_v3,2023.2.2,Win32,59.17159763,,,,,,,,,,,,,,,,341.9747,343.2744,343.2745,344.8914,return,0.9346,,31.73611111,,,,,,FBP-OG-71.png,0.35,1.2,31,0.5,0,38,38,30,1,,,,,,,,,,,,,,,,,,,,,,,,,,,,,,,,,,,,,,,,
,,,,,V3_007,19,Female,2024-10-13_20h07.33.631,jersey_experiment_5_v3,2023.2.2,Win32,59.17159763,,,,,,,,,,,,,,,,344.8918,346.4412,346.4413,347.8745,return,0.7599,,8.125,,,,,,FBP-PT-91.png,0.35,1.2,26,0.75,0,39,39,25,1,,,,,,,,,,,,,,,,,,,,,,,,,,,,,,,,,,,,,,,,
,,,,,V3_007,19,Female,2024-10-13_20h07.33.631,jersey_experiment_5_v3,2023.2.2,Win32,59.17159763,,,,,,,,,,,,,,,,347.8749,349.4252,349.4253,350.5915,return,0.4843,,50.20833333,,,,,,FBP-PT-71.png,0.43,1.2,19,0.75,0,40,40,18,1,,,,,,,,,,,,,,,,,,,,,,,,,,,,,,,,,,,,,,,,
,,,,,V3_007,19,Female,2024-10-13_20h07.33.631,jersey_experiment_5_v3,2023.2.2,Win32,59.17159763,,,,,,,,,,,,,,,,350.5919,352.1419,352.1421,352.9745,return,0.4334,,56.80555556,,,,,,FBP-RB-91.png,0.4,1.2,58,0.75,0,41,41,57,1,,,,,,,,,,,,,,,,,,,,,,,,,,,,,,,,,,,,,,,,
,,,,,V3_007,19,Female,2024-10-13_20h07.33.631,jersey_experiment_5_v3,2023.2.2,Win32,59.17159763,,,,,,,,,,,,,,,,352.9749,354.2746,354.2747,355.6409,return,0.7366,,37.29166667,,,,,,FBP-OG-91.png,0.35,1.2,41,0.5,0,42,42,40,1,,,,,,,,,,,,,,,,,,,,,,,,,,,,,,,,,,,,,,,,
,,,,,V3_007,19,Female,2024-10-13_20h07.33.631,jersey_experiment_5_v3,2023.2.2,Win32,59.17159763,,,,,,,,,,,,,,,,355.6412,357.1917,357.1918,358.4077,return,0.6396,,33.47222222,,,,,,FBP-PT-71.png,0.35,1.2,16,0.75,0,43,43,15,1,,,,,,,,,,,,,,,,,,,,,,,,,,,,,,,,,,,,,,,,
,,,,,V3_007,19,Female,2024-10-13_20h07.33.631,jersey_experiment_5_v3,2023.2.2,Win32,59.17159763,,,,,,,,,,,,,,,,358.408,359.9582,359.9583,360.9245,return,0.4009,,58.19444444,,,,,,FBP-PT-71.png,0.4,1.2,18,0.75,0,44,44,17,1,,,,,,,,,,,,,,,,,,,,,,,,,,,,,,,,,,,,,,,,
,,,,,V3_007,19,Female,2024-10-13_20h07.33.631,jersey_experiment_5_v3,2023.2.2,Win32,59.17159763,,,,,,,,,,,,,,,,360.9249,362.4747,362.4748,363.3918,return,0.6685,,58.75,,,,,,FBP-PT-81.png,0.43,1.2,24,0.75,0,45,45,23,1,,,,,,,,,,,,,,,,,,,,,,,,,,,,,,,,,,,,,,,,
,,,,,V3_007,19,Female,2024-10-13_20h07.33.631,jersey_experiment_5_v3,2023.2.2,Win32,59.17159763,,,,,,,,,,,,,,,,363.3922,364.9411,364.9411,365.9244,return,0.3751,,55.27777778,,,,,,FBP-RB-91.png,0.37,1.2,57,0.75,0,46,46,56,1,,,,,,,,,,,,,,,,,,,,,,,,,,,,,,,,,,,,,,,,
,,,,,V3_007,19,Female,2024-10-13_20h07.33.631,jersey_experiment_5_v3,2023.2.2,Win32,59.17159763,,,,,,,,,,,,,,,,365.9247,367.4745,367.4746,368.5246,return,0.4334,,26.80555556,,,,,,FBP-YG-17.png,0.35,1.2,1,0.75,0,47,47,0,1,,,,,,,,,,,,,,,,,,,,,,,,,,,,,,,,,,,,,,,,
,,,,,V3_007,19,Female,2024-10-13_20h07.33.631,jersey_experiment_5_v3,2023.2.2,Win32,59.17159763,,,,,,,,,,,,,,,,368.5253,370.0745,370.0746,371.008,return,0.3668,,44.09722222,,,,,,FBP-RB-81.png,0.37,1.2,52,0.75,0,48,48,51,1,,,,,,,,,,,,,,,,,,,,,,,,,,,,,,,,,,,,,,,,
,,,,,V3_007,19,Female,2024-10-13_20h07.33.631,jersey_experiment_5_v3,2023.2.2,Win32,59.17159763,,,,,,,,,,,,,,,,371.0082,372.5579,372.5579,373.3248,return,0.3165,,32.08333333,,,,,,FBP-PT-81.png,0.35,1.2,21,0.75,0,49,49,20,1,,,,,,,,,,,,,,,,,,,,,,,,,,,,,,,,,,,,,,,,
,,,,,V3_007,19,Female,2024-10-13_20h07.33.631,jersey_experiment_5_v3,2023.2.2,Win32,59.17159763,,,,,,,,,,,,,,,,373.3252,374.625,374.6251,377.0413,return,1.8001,,74.375,,,,,,FBP-OG-81.png,0.43,1.2,39,0.5,0,50,50,38,1,,,,,,,,,,,,,,,,,,,,,,,,,,,,,,,,,,,,,,,,
,,,,,V3_007,19,Female,2024-10-13_20h07.33.631,jersey_experiment_5_v3,2023.2.2,Win32,59.17159763,,,,,,,,,,,,,,,,377.0416,378.5921,378.5923,379.5417,return,0.3415,,25.27777778,,,,,,FBP-YG-19.png,0.35,1.2,11,0.75,0,51,51,10,1,,,,,,,,,,,,,,,,,,,,,,,,,,,,,,,,,,,,,,,,
,,,,,V3_007,19,Female,2024-10-13_20h07.33.631,jersey_experiment_5_v3,2023.2.2,Win32,59.17159763,,,,,,,,,,,,,,,,379.5423,381.0916,381.0916,383.2751,return,1.035,,97.08333333,,,,,,FBP-PT-71.png,0.45,1.2,20,0.75,0,52,52,19,1,,,,,,,,,,,,,,,,,,,,,,,,,,,,,,,,,,,,,,,,
,,,,,V3_007,19,Female,2024-10-13_20h07.33.631,jersey_experiment_5_v3,2023.2.2,Win32,59.17159763,,,,,,,,,,,,,,,,383.2756,384.825,384.8251,386.1579,return,1.0174,,83.81944444,,,,,,FBP-YG-19.png,0.43,1.2,14,0.75,0,53,53,13,1,,,,,,,,,,,,,,,,,,,,,,,,,,,,,,,,,,,,,,,,
,,,,,V3_007,19,Female,2024-10-13_20h07.33.631,jersey_experiment_5_v3,2023.2.2,Win32,59.17159763,,,,,,,,,,,,,,,,386.1583,387.7082,387.7083,388.3249,return,0.442,,83.81944444,,,,,,FBP-YG-19.png,0.4,1.2,13,0.75,0,54,54,12,1,,,,,,,,,,,,,,,,,,,,,,,,,,,,,,,,,,,,,,,,
,,,,,V3_007,19,Female,2024-10-13_20h07.33.631,jersey_experiment_5_v3,2023.2.2,Win32,59.17159763,,,,,,,,,,,,,,,,388.3255,389.8753,389.8753,390.7249,return,0.3411,,55.41666667,,,,,,FBP-YG-19.png,0.37,1.2,12,0.75,0,55,55,11,1,,,,,,,,,,,,,,,,,,,,,,,,,,,,,,,,,,,,,,,,
,,,,,V3_007,19,Female,2024-10-13_20h07.33.631,jersey_experiment_5_v3,2023.2.2,Win32,59.17159763,,,,,,,,,,,,,,,,390.7253,392.2747,392.2748,393.4585,return,0.3817,,95.55555556,,,,,,FBP-YG-17.png,0.45,1.2,5,0.75,0,56,56,4,1,,,,,,,,,,,,,,,,,,,,,,,,,,,,,,,,,,,,,,,,
,,,,,V3_007,19,Female,2024-10-13_20h07.33.631,jersey_experiment_5_v3,2023.2.2,Win32,59.17159763,,,,,,,,,,,,,,,,393.4591,394.7581,394.7582,395.6914,return,0.4359,,95.55555556,,,,,,FBP-OG-91.png,0.45,1.2,45,0.5,0,57,57,44,1,,,,,,,,,,,,,,,,,,,,,,,,,,,,,,,,,,,,,,,,
,,,,,V3_007,19,Female,2024-10-13_20h07.33.631,jersey_experiment_5_v3,2023.2.2,Win32,59.17159763,,,,,,,,,,,,,,,,395.6917,396.9918,396.9919,397.8247,return,0.3327,,95.55555556,,,,,,FBP-OG-71.png,0.45,1.2,35,0.5,0,58,58,34,1,,,,,,,,,,,,,,,,,,,,,,,,,,,,,,,,,,,,,,,,
,,,,,V3_007,19,Female,2024-10-13_20h07.33.631,jersey_experiment_5_v3,2023.2.2,Win32,59.17159763,,,,,,,,,,,,,,,,397.8252,399.3753,399.3754,401.5418,return,0.4929,,42.29166667,,,,,,FBP-RB-91.png,0.35,1.2,56,0.75,0,59,59,55,1,,,,,,,,,,,,,,,,,,,,,,,,,,,,,,,,,,,,,,,,
,,,,,V3_007,19,Female,2024-10-13_20h07.33.631,jersey_experiment_5_v3,2023.2.2,Win32,59.17159763,,,,,,,,,,,,,,,,,,,,,,,,,,,,,,,,,,,,,,,401.5427,521.5435,,,,,,,,,,,,,,,,,,,,,,,,,,,,,,,,,,,,,,
,,,,,V3_007,19,Female,2024-10-13_20h07.33.631,jersey_experiment_5_v3,2023.2.2,Win32,59.17159763,,,,,,,,,,,,,,,,,,,,,,,,,,,,,,,,,,,,,,,,,521.5437,525.2758,return,3.7162,,,,,,,,,,,,,,,,,,,,,,,,,,,,,,,,,,
,,,,,V3_007,19,Female,2024-10-13_20h07.33.631,jersey_experiment_5_v3,2023.2.2,Win32,59.17159763,,,,,,,,,,,,,,,,525.2866,526.5761,526.5762,528.459,return,0.5849,,48.47222222,,,,,,FBP-YG-71.png,0.37,1.2,2,0.5,,,,,,,,,,,,,0,0,0,1,1,,,,,,,,,,,,,,,,,,,,,,,,,,,,
,,,,,V3_007,19,Female,2024-10-13_20h07.33.631,jersey_experiment_5_v3,2023.2.2,Win32,59.17159763,,,,,,,,,,,,,,,,528.4593,529.7591,529.7591,530.9427,return,0.434,,42.15277778,,,,,,FBP-RB-18.png,0.35,1.2,51,0.5,,,,,,,,,,,,,0,1,1,50,1,,,,,,,,,,,,,,,,,,,,,,,,,,,,
,,,,,V3_007,19,Female,2024-10-13_20h07.33.631,jersey_experiment_5_v3,2023.2.2,Win32,59.17159763,,,,,,,,,,,,,,,,530.9432,532.2423,532.2424,533.809,return,0.7878,,73.33333333,,,,,,FBP-PT-19.png,0.45,1.2,30,0.5,,,,,,,,,,,,,0,2,2,29,1,,,,,,,,,,,,,,,,,,,,,,,,,,,,
,,,,,V3_007,19,Female,2024-10-13_20h07.33.631,jersey_experiment_5_v3,2023.2.2,Win32,59.17159763,,,,,,,,,,,,,,,,533.8093,535.1091,535.1091,536.3761,return,0.4068,,53.05555556,,,,,,FBP-YG-91.png,0.37,1.2,12,0.5,,,,,,,,,,,,,0,3,3,11,1,,,,,,,,,,,,,,,,,,,,,,,,,,,,
,,,,,V3_007,19,Female,2024-10-13_20h07.33.631,jersey_experiment_5_v3,2023.2.2,Win32,59.17159763,,,,,,,,,,,,,,,,536.3765,537.9256,537.9256,538.9591,return,0.8348,,55.06944444,,,,,,FBP-OG-19.png,0.35,1.2,41,0.75,,,,,,,,,,,,,0,4,4,40,1,,,,,,,,,,,,,,,,,,,,,,,,,,,,
,,,,,V3_007,19,Female,2024-10-13_20h07.33.631,jersey_experiment_5_v3,2023.2.2,Win32,59.17159763,,,,,,,,,,,,,,,,538.9596,540.2591,540.2591,541.276,return,0.6835,,55.06944444,,,,,,FBP-RB-17.png,0.35,1.2,46,0.5,,,,,,,,,,,,,0,5,5,45,1,,,,,,,,,,,,,,,,,,,,,,,,,,,,
,,,,,V3_007,19,Female,2024-10-13_20h07.33.631,jersey_experiment_5_v3,2023.2.2,Win32,59.17159763,,,,,,,,,,,,,,,,541.2764,542.8261,542.8262,543.7929,return,0.6634,,56.25,,,,,,FBP-OG-18.png,0.37,1.2,37,0.75,,,,,,,,,,,,,0,6,6,36,1,,,,,,,,,,,,,,,,,,,,,,,,,,,,
,,,,,V3_007,19,Female,2024-10-13_20h07.33.631,jersey_experiment_5_v3,2023.2.2,Win32,59.17159763,,,,,,,,,,,,,,,,543.7934,545.0924,545.0924,546.2424,return,0.3869,,72.15277778,,,,,,FBP-YG-91.png,0.4,1.2,13,0.5,,,,,,,,,,,,,0,7,7,12,1,,,,,,,,,,,,,,,,,,,,,,,,,,,,
,,,,,V3_007,19,Female,2024-10-13_20h07.33.631,jersey_experiment_5_v3,2023.2.2,Win32,59.17159763,,,,,,,,,,,,,,,,546.2428,547.7931,547.7932,549.4425,return,1.0677,,87.08333333,,,,,,FBP-OG-17.png,0.43,1.2,34,0.75,,,,,,,,,,,,,0,8,8,33,1,,,,,,,,,,,,,,,,,,,,,,,,,,,,
,,,,,V3_007,19,Female,2024-10-13_20h07.33.631,jersey_experiment_5_v3,2023.2.2,Win32,59.17159763,,,,,,,,,,,,,,,,549.4427,550.7432,550.7433,551.7094,return,0.3505,,54.44444444,,,,,,FBP-RB-18.png,0.37,1.2,52,0.5,,,,,,,,,,,,,0,9,9,51,1,,,,,,,,,,,,,,,,,,,,,,,,,,,,
,,,,,V3_007,19,Female,2024-10-13_20h07.33.631,jersey_experiment_5_v3,2023.2.2,Win32,59.17159763,,,,,,,,,,,,,,,,551.7101,553.0092,553.0092,553.8924,return,0.3753,,61.45833333,,,,,,FBP-RB-19.png,0.37,1.2,57,0.5,,,,,,,,,,,,,0,10,10,56,1,,,,,,,,,,,,,,,,,,,,,,,,,,,,
,,,,,V3_007,19,Female,2024-10-13_20h07.33.631,jersey_experiment_5_v3,2023.2.2,Win32,59.17159763,,,,,,,,,,,,,,,,553.8928,555.1928,555.193,556.609,return,1.0134,,59.44444444,,,,,,FBP-PT-19.png,0.37,1.2,27,0.5,,,,,,,,,,,,,0,11,11,26,1,,,,,,,,,,,,,,,,,,,,,,,,,,,,
,,,,,V3_007,19,Female,2024-10-13_20h07.33.631,jersey_experiment_5_v3,2023.2.2,Win32,59.17159763,,,,,,,,,,,,,,,,556.6092,558.1593,558.1593,559.0262,return,0.3857,,59.375,,,,,,FBP-OG-17.png,0.37,1.2,32,0.75,,,,,,,,,,,,,0,12,12,31,1,,,,,,,,,,,,,,,,,,,,,,,,,,,,
,,,,,V3_007,19,Female,2024-10-13_20h07.33.631,jersey_experiment_5_v3,2023.2.2,Win32,59.17159763,,,,,,,,,,,,,,,,559.0266,560.326,560.3261,561.6263,return,0.4356,,80,,,,,,FBP-RB-17.png,0.45,1.2,50,0.5,,,,,,,,,,,,,0,13,13,49,1,,,,,,,,,,,,,,,,,,,,,,,,,,,,
,,,,,V3_007,19,Female,2024-10-13_20h07.33.631,jersey_experiment_5_v3,2023.2.2,Win32,59.17159763,,,,,,,,,,,,,,,,561.6268,562.9258,562.9259,564.9761,return,0.7499,,34.86111111,,,,,,FBP-RB-19.png,0.35,1.2,56,0.5,,,,,,,,,,,,,0,14,14,55,1,,,,,,,,,,,,,,,,,,,,,,,,,,,,
,,,,,V3_007,19,Female,2024-10-13_20h07.33.631,jersey_experiment_5_v3,2023.2.2,Win32,59.17159763,,,,,,,,,,,,,,,,564.9765,566.2759,566.2759,567.2262,return,0.4198,,34.02777778,,,,,,FBP-YG-81.png,0.37,1.2,7,0.5,,,,,,,,,,,,,0,15,15,6,1,,,,,,,,,,,,,,,,,,,,,,,,,,,,
,,,,,V3_007,19,Female,2024-10-13_20h07.33.631,jersey_experiment_5_v3,2023.2.2,Win32,59.17159763,,,,,,,,,,,,,,,,567.2267,568.526,568.526,569.8925,return,0.4092,,71.31944444,,,,,,FBP-YG-81.png,0.4,1.2,8,0.5,,,,,,,,,,,,,0,16,16,7,1,,,,,,,,,,,,,,,,,,,,,,,,,,,,
,,,,,V3_007,19,Female,2024-10-13_20h07.33.631,jersey_experiment_5_v3,2023.2.2,Win32,59.17159763,,,,,,,,,,,,,,,,569.8929,571.4424,571.4426,572.1429,return,0.4674,,71.31944444,,,,,,FBP-OG-19.png,0.43,1.2,44,0.75,,,,,,,,,,,,,0,17,17,43,1,,,,,,,,,,,,,,,,,,,,,,,,,,,,
,,,,,V3_007,19,Female,2024-10-13_20h07.33.631,jersey_experiment_5_v3,2023.2.2,Win32,59.17159763,,,,,,,,,,,,,,,,572.1434,573.4424,573.4425,574.8759,return,0.4336,,75.27777778,,,,,,FBP-YG-81.png,0.45,1.2,10,0.5,,,,,,,,,,,,,0,18,18,9,1,,,,,,,,,,,,,,,,,,,,,,,,,,,,
,,,,,V3_007,19,Female,2024-10-13_20h07.33.631,jersey_experiment_5_v3,2023.2.2,Win32,59.17159763,,,,,,,,,,,,,,,,574.8764,576.1762,576.1762,577.9094,return,0.4069,,25.34722222,,,,,,FBP-YG-71.png,0.35,1.2,1,0.5,,,,,,,,,,,,,0,19,19,0,1,,,,,,,,,,,,,,,,,,,,,,,,,,,,
,,,,,V3_007,19,Female,2024-10-13_20h07.33.631,jersey_experiment_5_v3,2023.2.2,Win32,59.17159763,,,,,,,,,,,,,,,,577.9098,579.4598,579.4599,581.0926,return,0.6586,,58.75,,,,,,FBP-OG-17.png,0.4,1.2,33,0.75,,,,,,,,,,,,,0,20,20,32,1,,,,,,,,,,,,,,,,,,,,,,,,,,,,
,,,,,V3_007,19,Female,2024-10-13_20h07.33.631,jersey_experiment_5_v3,2023.2.2,Win32,59.17159763,,,,,,,,,,,,,,,,581.0931,582.3928,582.3928,583.6928,return,0.4835,,30.48611111,,,,,,FBP-YG-81.png,0.35,1.2,6,0.5,,,,,,,,,,,,,0,21,21,5,1,,,,,,,,,,,,,,,,,,,,,,,,,,,,
,,,,,V3_007,19,Female,2024-10-13_20h07.33.631,jersey_experiment_5_v3,2023.2.2,Win32,59.17159763,,,,,,,,,,,,,,,,583.6931,584.9926,584.9927,585.9926,return,0.4027,,72.5,,,,,,FBP-RB-17.png,0.43,1.2,49,0.5,,,,,,,,,,,,,0,22,22,48,1,,,,,,,,,,,,,,,,,,,,,,,,,,,,
,,,,,V3_007,19,Female,2024-10-13_20h07.33.631,jersey_experiment_5_v3,2023.2.2,Win32,59.17159763,,,,,,,,,,,,,,,,585.9931,587.2927,587.2928,588.3094,return,0.3908,,57.70833333,,,,,,FBP-PT-19.png,0.35,1.2,26,0.5,,,,,,,,,,,,,0,23,23,25,1,,,,,,,,,,,,,,,,,,,,,,,,,,,,
,,,,,V3_007,19,Female,2024-10-13_20h07.33.631,jersey_experiment_5_v3,2023.2.2,Win32,59.17159763,,,,,,,,,,,,,,,,588.3097,589.6093,589.6094,590.6432,return,0.4274,,63.19444444,,,,,,FBP-PT-17.png,0.35,1.2,16,0.5,,,,,,,,,,,,,0,24,24,15,1,,,,,,,,,,,,,,,,,,,,,,,,,,,,
,,,,,V3_007,19,Female,2024-10-13_20h07.33.631,jersey_experiment_5_v3,2023.2.2,Win32,59.17159763,,,,,,,,,,,,,,,,590.6435,591.9429,591.9429,592.9928,return,0.4352,,90.20833333,,,,,,FBP-YG-91.png,0.45,1.2,15,0.5,,,,,,,,,,,,,0,25,25,14,1,,,,,,,,,,,,,,,,,,,,,,,,,,,,
,,,,,V3_007,19,Female,2024-10-13_20h07.33.631,jersey_experiment_5_v3,2023.2.2,Win32,59.17159763,,,,,,,,,,,,,,,,592.9931,594.2929,594.293,596.143,return,0.3674,,42.22222222,,,,,,FBP-PT-17.png,0.37,1.2,17,0.5,,,,,,,,,,,,,0,26,26,16,1,,,,,,,,,,,,,,,,,,,,,,,,,,,,
,,,,,V3_007,19,Female,2024-10-13_20h07.33.631,jersey_experiment_5_v3,2023.2.2,Win32,59.17159763,,,,,,,,,,,,,,,,596.1433,597.4426,597.4426,599.4927,return,1.3402,,63.47222222,,,,,,FBP-RB-19.png,0.43,1.2,59,0.5,,,,,,,,,,,,,0,27,27,58,1,,,,,,,,,,,,,,,,,,,,,,,,,,,,
,,,,,V3_007,19,Female,2024-10-13_20h07.33.631,jersey_experiment_5_v3,2023.2.2,Win32,59.17159763,,,,,,,,,,,,,,,,599.493,600.7927,600.7928,601.926,return,0.4222,,61.45833333,,,,,,FBP-PT-18.png,0.45,1.2,25,0.5,,,,,,,,,,,,,0,28,28,24,1,,,,,,,,,,,,,,,,,,,,,,,,,,,,
,,,,,V3_007,19,Female,2024-10-13_20h07.33.631,jersey_experiment_5_v3,2023.2.2,Win32,59.17159763,,,,,,,,,,,,,,,,601.9263,603.226,603.226,604.4764,return,0.8001,,61.45833333,,,,,,FBP-PT-18.png,0.37,1.2,22,0.5,,,,,,,,,,,,,0,29,29,21,1,,,,,,,,,,,,,,,,,,,,,,,,,,,,
,,,,,V3_007,19,Female,2024-10-13_20h07.33.631,jersey_experiment_5_v3,2023.2.2,Win32,59.17159763,,,,,,,,,,,,,,,,604.4769,605.7764,605.7764,606.8595,return,0.6018,,64.44444444,,,,,,FBP-PT-19.png,0.4,1.2,28,0.5,,,,,,,,,,,,,0,30,30,27,1,,,,,,,,,,,,,,,,,,,,,,,,,,,,
,,,,,V3_007,19,Female,2024-10-13_20h07.33.631,jersey_experiment_5_v3,2023.2.2,Win32,59.17159763,,,,,,,,,,,,,,,,606.8598,608.1594,608.1594,609.1931,return,0.5056,,62.36111111,,,,,,FBP-RB-18.png,0.45,1.2,55,0.5,,,,,,,,,,,,,0,31,31,54,1,,,,,,,,,,,,,,,,,,,,,,,,,,,,
,,,,,V3_007,19,Female,2024-10-13_20h07.33.631,jersey_experiment_5_v3,2023.2.2,Win32,59.17159763,,,,,,,,,,,,,,,,609.1936,610.7434,610.7434,611.4263,return,0.3944,,67.56944444,,,,,,FBP-OG-19.png,0.45,1.2,45,0.75,,,,,,,,,,,,,0,32,32,44,1,,,,,,,,,,,,,,,,,,,,,,,,,,,,
,,,,,V3_007,19,Female,2024-10-13_20h07.33.631,jersey_experiment_5_v3,2023.2.2,Win32,59.17159763,,,,,,,,,,,,,,,,611.4266,612.7263,612.7264,613.5095,return,0.4069,,67.56944444,,,,,,FBP-RB-19.png,0.45,1.2,60,0.5,,,,,,,,,,,,,0,33,33,59,1,,,,,,,,,,,,,,,,,,,,,,,,,,,,
,,,,,V3_007,19,Female,2024-10-13_20h07.33.631,jersey_experiment_5_v3,2023.2.2,Win32,59.17159763,,,,,,,,,,,,,,,,613.5098,614.8095,614.8096,616.8095,return,0.6866,,31.45833333,,,,,,FBP-YG-91.png,0.35,1.2,11,0.5,,,,,,,,,,,,,0,34,34,10,1,,,,,,,,,,,,,,,,,,,,,,,,,,,,
,,,,,V3_007,19,Female,2024-10-13_20h07.33.631,jersey_experiment_5_v3,2023.2.2,Win32,59.17159763,,,,,,,,,,,,,,,,616.8099,618.3595,618.3596,619.3598,return,0.3827,,21.80555556,,,,,,FBP-OG-18.png,0.35,1.2,36,0.75,,,,,,,,,,,,,0,35,35,35,1,,,,,,,,,,,,,,,,,,,,,,,,,,,,
,,,,,V3_007,19,Female,2024-10-13_20h07.33.631,jersey_experiment_5_v3,2023.2.2,Win32,59.17159763,,,,,,,,,,,,,,,,619.3602,620.6598,620.6598,621.7097,return,0.3504,,21.80555556,,,,,,FBP-RB-17.png,0.37,1.2,47,0.5,,,,,,,,,,,,,0,36,36,46,1,,,,,,,,,,,,,,,,,,,,,,,,,,,,
,,,,,V3_007,19,Female,2024-10-13_20h07.33.631,jersey_experiment_5_v3,2023.2.2,Win32,59.17159763,,,,,,,,,,,,,,,,621.71,623.0095,623.0096,624.3935,return,0.6536,,59.09722222,,,,,,FBP-RB-18.png,0.43,1.2,54,0.5,,,,,,,,,,,,,0,37,37,53,1,,,,,,,,,,,,,,,,,,,,,,,,,,,,
,,,,,V3_007,19,Female,2024-10-13_20h07.33.631,jersey_experiment_5_v3,2023.2.2,Win32,59.17159763,,,,,,,,,,,,,,,,624.3941,625.6929,625.6929,626.7595,return,0.356,,57.43055556,,,,,,FBP-PT-17.png,0.43,1.2,19,0.5,,,,,,,,,,,,,0,38,38,18,1,,,,,,,,,,,,,,,,,,,,,,,,,,,,
,,,,,V3_007,19,Female,2024-10-13_20h07.33.631,jersey_experiment_5_v3,2023.2.2,Win32,59.17159763,,,,,,,,,,,,,,,,626.7597,628.0605,628.0606,628.8599,return,0.3845,,64.44444444,,,,,,FBP-YG-91.png,0.43,1.2,14,0.5,,,,,,,,,,,,,0,39,39,13,1,,,,,,,,,,,,,,,,,,,,,,,,,,,,
,,,,,V3_007,19,Female,2024-10-13_20h07.33.631,jersey_experiment_5_v3,2023.2.2,Win32,59.17159763,,,,,,,,,,,,,,,,628.8604,630.1601,630.1601,632.1932,return,0.3855,,42.43055556,,,,,,FBP-PT-18.png,0.35,1.2,21,0.5,,,,,,,,,,,,,0,40,40,20,1,,,,,,,,,,,,,,,,,,,,,,,,,,,,
,,,,,V3_007,19,Female,2024-10-13_20h07.33.631,jersey_experiment_5_v3,2023.2.2,Win32,59.17159763,,,,,,,,,,,,,,,,632.1935,633.493,633.4931,634.4596,return,0.4001,,56.45833333,,,,,,FBP-RB-17.png,0.4,1.2,48,0.5,,,,,,,,,,,,,0,41,41,47,1,,,,,,,,,,,,,,,,,,,,,,,,,,,,
,,,,,V3_007,19,Female,2024-10-13_20h07.33.631,jersey_experiment_5_v3,2023.2.2,Win32,59.17159763,,,,,,,,,,,,,,,,634.4599,636.0097,636.0097,637.7264,return,1.0675,,71.59722222,,,,,,FBP-OG-17.png,0.45,1.2,35,0.75,,,,,,,,,,,,,0,42,42,34,1,,,,,,,,,,,,,,,,,,,,,,,,,,,,
,,,,,V3_007,19,Female,2024-10-13_20h07.33.631,jersey_experiment_5_v3,2023.2.2,Win32,59.17159763,,,,,,,,,,,,,,,,637.7269,639.0266,639.0267,640.1931,return,0.5809,,64.23611111,,,,,,FBP-RB-18.png,0.4,1.2,53,0.5,,,,,,,,,,,,,0,43,43,52,1,,,,,,,,,,,,,,,,,,,,,,,,,,,,
,,,,,V3_007,19,Female,2024-10-13_20h07.33.631,jersey_experiment_5_v3,2023.2.2,Win32,59.17159763,,,,,,,,,,,,,,,,640.1935,641.4929,641.493,642.4596,return,0.4519,,71.80555556,,,,,,FBP-YG-81.png,0.43,1.2,9,0.5,,,,,,,,,,,,,0,44,44,8,1,,,,,,,,,,,,,,,,,,,,,,,,,,,,
,,,,,V3_007,19,Female,2024-10-13_20h07.33.631,jersey_experiment_5_v3,2023.2.2,Win32,59.17159763,,,,,,,,,,,,,,,,642.4599,644.0099,644.01,645.0266,return,0.643,,62.29166667,,,,,,FBP-OG-19.png,0.37,1.2,42,0.75,,,,,,,,,,,,,0,45,45,41,1,,,,,,,,,,,,,,,,,,,,,,,,,,,,
,,,,,V3_007,19,Female,2024-10-13_20h07.33.631,jersey_experiment_5_v3,2023.2.2,Win32,59.17159763,,,,,,,,,,,,,,,,645.0269,646.3264,646.3264,647.1932,return,0.4389,,78.47222222,,,,,,FBP-YG-71.png,0.43,1.2,4,0.5,,,,,,,,,,,,,0,46,46,3,1,,,,,,,,,,,,,,,,,,,,,,,,,,,,
,,,,,V3_007,19,Female,2024-10-13_20h07.33.631,jersey_experiment_5_v3,2023.2.2,Win32,59.17159763,,,,,,,,,,,,,,,,647.1936,648.4929,648.493,651.1434,return,0.9209,,69.375,,,,,,FBP-RB-19.png,0.4,1.2,58,0.5,,,,,,,,,,,,,0,47,47,57,1,,,,,,,,,,,,,,,,,,,,,,,,,,,,
,,,,,V3_007,19,Female,2024-10-13_20h07.33.631,jersey_experiment_5_v3,2023.2.2,Win32,59.17159763,,,,,,,,,,,,,,,,651.1441,652.443,652.443,653.3099,return,0.3853,,71.52777778,,,,,,FBP-PT-18.png,0.43,1.2,24,0.5,,,,,,,,,,,,,0,48,48,23,1,,,,,,,,,,,,,,,,,,,,,,,,,,,,
,,,,,V3_007,19,Female,2024-10-13_20h07.33.631,jersey_experiment_5_v3,2023.2.2,Win32,59.17159763,,,,,,,,,,,,,,,,653.3102,654.8597,654.8598,655.7766,return,0.781,,71.52777778,,,,,,FBP-OG-18.png,0.4,1.2,38,0.75,,,,,,,,,,,,,0,49,49,37,1,,,,,,,,,,,,,,,,,,,,,,,,,,,,
,,,,,V3_007,19,Female,2024-10-13_20h07.33.631,jersey_experiment_5_v3,2023.2.2,Win32,59.17159763,,,,,,,,,,,,,,,,655.777,657.0767,657.0767,658.5266,return,1.0361,,68.47222222,,,,,,FBP-PT-17.png,0.4,1.2,18,0.5,,,,,,,,,,,,,0,50,50,17,1,,,,,,,,,,,,,,,,,,,,,,,,,,,,
,,,,,V3_007,19,Female,2024-10-13_20h07.33.631,jersey_experiment_5_v3,2023.2.2,Win32,59.17159763,,,,,,,,,,,,,,,,658.5271,659.8264,659.8265,660.7596,return,0.3889,,74.16666667,,,,,,FBP-PT-19.png,0.43,1.2,29,0.5,,,,,,,,,,,,,0,51,51,28,1,,,,,,,,,,,,,,,,,,,,,,,,,,,,
,,,,,V3_007,19,Female,2024-10-13_20h07.33.631,jersey_experiment_5_v3,2023.2.2,Win32,59.17159763,,,,,,,,,,,,,,,,660.7599,662.3102,662.3103,663.9768,return,1.386,,46.66666667,,,,,,FBP-OG-17.png,0.35,1.2,31,0.75,,,,,,,,,,,,,0,52,52,30,1,,,,,,,,,,,,,,,,,,,,,,,,,,,,
,,,,,V3_007,19,Female,2024-10-13_20h07.33.631,jersey_experiment_5_v3,2023.2.2,Win32,59.17159763,,,,,,,,,,,,,,,,663.9771,665.5265,665.5266,666.4766,return,0.4351,,65.13888889,,,,,,FBP-OG-18.png,0.43,1.2,39,0.75,,,,,,,,,,,,,0,53,53,38,1,,,,,,,,,,,,,,,,,,,,,,,,,,,,
,,,,,V3_007,19,Female,2024-10-13_20h07.33.631,jersey_experiment_5_v3,2023.2.2,Win32,59.17159763,,,,,,,,,,,,,,,,666.477,667.777,667.7771,669.0267,return,0.6814,,69.16666667,,,,,,FBP-YG-71.png,0.45,1.2,5,0.5,,,,,,,,,,,,,0,54,54,4,1,,,,,,,,,,,,,,,,,,,,,,,,,,,,
,,,,,V3_007,19,Female,2024-10-13_20h07.33.631,jersey_experiment_5_v3,2023.2.2,Win32,59.17159763,,,,,,,,,,,,,,,,669.027,670.3265,670.3266,672.0767,return,1.3009,,72.08333333,,,,,,FBP-PT-18.png,0.4,1.2,23,0.5,,,,,,,,,,,,,0,55,55,22,1,,,,,,,,,,,,,,,,,,,,,,,,,,,,
,,,,,V3_007,19,Female,2024-10-13_20h07.33.631,jersey_experiment_5_v3,2023.2.2,Win32,59.17159763,,,,,,,,,,,,,,,,672.0772,673.6269,673.627,674.2274,return,0.4113,,70.55555556,,,,,,FBP-OG-19.png,0.4,1.2,43,0.75,,,,,,,,,,,,,0,56,56,42,1,,,,,,,,,,,,,,,,,,,,,,,,,,,,
,,,,,V3_007,19,Female,2024-10-13_20h07.33.631,jersey_experiment_5_v3,2023.2.2,Win32,59.17159763,,,,,,,,,,,,,,,,674.2279,675.7765,675.7766,677.2269,return,0.6848,,70.76388889,,,,,,FBP-OG-18.png,0.45,1.2,40,0.75,,,,,,,,,,,,,0,57,57,39,1,,,,,,,,,,,,,,,,,,,,,,,,,,,,
,,,,,V3_007,19,Female,2024-10-13_20h07.33.631,jersey_experiment_5_v3,2023.2.2,Win32,59.17159763,,,,,,,,,,,,,,,,677.2274,678.5268,678.5269,679.5265,return,0.3737,,67.29166667,,,,,,FBP-YG-71.png,0.4,1.2,3,0.5,,,,,,,,,,,,,0,58,58,2,1,,,,,,,,,,,,,,,,,,,,,,,,,,,,
,,,,,V3_007,19,Female,2024-10-13_20h07.33.631,jersey_experiment_5_v3,2023.2.2,Win32,59.17159763,,,,,,,,,,,,,,,,679.527,680.8267,680.8268,681.81,return,0.4011,,79.93055556,,,,,,FBP-PT-17.png,0.45,1.2,20,0.5,,,,,,,,,,,,,0,59,59,19,1,,,,,,,,,,,,,,,,,,,,,,,,,,,,
,,,,,V3_007,19,Female,2024-10-13_20h07.33.631,jersey_experiment_5_v3,2023.2.2,Win32,59.17159763,,,,,,,,,,,,,,,,681.8132,683.11,683.1101,684.0101,return,0.4194,,84.51388889,,,,,,FBP-YG-18.png,0.45,1.2,10,0.5,,,,,,,,,,,,,,,,,,0,0,0,9,1,,,,,,,,,,,,,,,,,,,,,,,
,,,,,V3_007,19,Female,2024-10-13_20h07.33.631,jersey_experiment_5_v3,2023.2.2,Win32,59.17159763,,,,,,,,,,,,,,,,684.0106,685.3102,685.3102,686.4434,return,0.4359,,67.15277778,,,,,,FBP-PT-91.png,0.4,1.2,28,0.5,,,,,,,,,,,,,,,,,,0,1,1,27,1,,,,,,,,,,,,,,,,,,,,,,,
,,,,,V3_007,19,Female,2024-10-13_20h07.33.631,jersey_experiment_5_v3,2023.2.2,Win32,59.17159763,,,,,,,,,,,,,,,,686.4439,687.7435,687.7435,688.6103,return,0.3834,,67.5,,,,,,FBP-RB-91.png,0.37,1.2,57,0.5,,,,,,,,,,,,,,,,,,0,2,2,56,1,,,,,,,,,,,,,,,,,,,,,,,
,,,,,V3_007,19,Female,2024-10-13_20h07.33.631,jersey_experiment_5_v3,2023.2.2,Win32,59.17159763,,,,,,,,,,,,,,,,688.6107,689.9103,689.9104,691.1265,return,0.6395,,73.95833333,,,,,,FBP-RB-91.png,0.45,1.2,60,0.5,,,,,,,,,,,,,,,,,,0,3,3,59,1,,,,,,,,,,,,,,,,,,,,,,,
,,,,,V3_007,19,Female,2024-10-13_20h07.33.631,jersey_experiment_5_v3,2023.2.2,Win32,59.17159763,,,,,,,,,,,,,,,,691.1268,692.4266,692.4267,693.51,return,0.4898,,67.56944444,,,,,,FBP-RB-91.png,0.4,1.2,58,0.5,,,,,,,,,,,,,,,,,,0,4,4,57,1,,,,,,,,,,,,,,,,,,,,,,,
,,,,,V3_007,19,Female,2024-10-13_20h07.33.631,jersey_experiment_5_v3,2023.2.2,Win32,59.17159763,,,,,,,,,,,,,,,,693.5104,694.8103,694.8105,695.5269,return,0.3893,,68.40277778,,,,,,FBP-RB-71.png,0.4,1.2,48,0.5,,,,,,,,,,,,,,,,,,0,5,5,47,1,,,,,,,,,,,,,,,,,,,,,,,
,,,,,V3_007,19,Female,2024-10-13_20h07.33.631,jersey_experiment_5_v3,2023.2.2,Win32,59.17159763,,,,,,,,,,,,,,,,695.5273,696.8269,696.8269,698.7437,return,1.4728,,73.75,,,,,,FBP-RB-81.png,0.43,1.2,54,0.5,,,,,,,,,,,,,,,,,,0,6,6,53,1,,,,,,,,,,,,,,,,,,,,,,,
,,,,,V3_007,19,Female,2024-10-13_20h07.33.631,jersey_experiment_5_v3,2023.2.2,Win32,59.17159763,,,,,,,,,,,,,,,,698.7442,700.0435,700.0436,701.377,return,0.3874,,26.52777778,,,,,,FBP-RB-71.png,0.35,1.2,46,0.5,,,,,,,,,,,,,,,,,,0,7,7,45,1,,,,,,,,,,,,,,,,,,,,,,,
,,,,,V3_007,19,Female,2024-10-13_20h07.33.631,jersey_experiment_5_v3,2023.2.2,Win32,59.17159763,,,,,,,,,,,,,,,,701.3773,702.9273,702.9273,705.1935,return,1.621,,78.95833333,,,,,,FBP-OG-71.png,0.45,1.2,35,0.75,,,,,,,,,,,,,,,,,,0,8,8,34,1,,,,,,,,,,,,,,,,,,,,,,,
,,,,,V3_007,19,Female,2024-10-13_20h07.33.631,jersey_experiment_5_v3,2023.2.2,Win32,59.17159763,,,,,,,,,,,,,,,,705.1939,706.7442,706.7443,707.5436,return,0.4042,,79.72222222,,,,,,FBP-OG-91.png,0.43,1.2,44,0.75,,,,,,,,,,,,,,,,,,0,9,9,43,1,,,,,,,,,,,,,,,,,,,,,,,
,,,,,V3_007,19,Female,2024-10-13_20h07.33.631,jersey_experiment_5_v3,2023.2.2,Win32,59.17159763,,,,,,,,,,,,,,,,707.5438,709.0937,709.0938,711.3772,return,1.8507,,79.375,,,,,,FBP-OG-71.png,0.43,1.2,34,0.75,,,,,,,,,,,,,,,,,,0,10,10,33,1,,,,,,,,,,,,,,,,,,,,,,,
,,,,,V3_007,19,Female,2024-10-13_20h07.33.631,jersey_experiment_5_v3,2023.2.2,Win32,59.17159763,,,,,,,,,,,,,,,,711.3776,712.6769,712.677,714.1102,return,0.8506,,73.54166667,,,,,,FBP-PT-71.png,0.43,1.2,19,0.5,,,,,,,,,,,,,,,,,,0,11,11,18,1,,,,,,,,,,,,,,,,,,,,,,,
,,,,,V3_007,19,Female,2024-10-13_20h07.33.631,jersey_experiment_5_v3,2023.2.2,Win32,59.17159763,,,,,,,,,,,,,,,,714.1106,715.4102,715.4103,716.2768,return,0.3742,,77.5,,,,,,FBP-RB-81.png,0.45,1.2,55,0.5,,,,,,,,,,,,,,,,,,0,12,12,54,1,,,,,,,,,,,,,,,,,,,,,,,
,,,,,V3_007,19,Female,2024-10-13_20h07.33.631,jersey_experiment_5_v3,2023.2.2,Win32,59.17159763,,,,,,,,,,,,,,,,716.2772,717.5769,717.5769,719.4268,return,1.1932,,29.02777778,,,,,,FBP-YG-18.png,0.37,1.2,7,0.5,,,,,,,,,,,,,,,,,,0,13,13,6,1,,,,,,,,,,,,,,,,,,,,,,,
,,,,,V3_007,19,Female,2024-10-13_20h07.33.631,jersey_experiment_5_v3,2023.2.2,Win32,59.17159763,,,,,,,,,,,,,,,,719.4271,720.9769,720.9769,722.4272,return,1.0862,,25.48611111,,,,,,FBP-OG-81.png,0.37,1.2,37,0.75,,,,,,,,,,,,,,,,,,0,14,14,36,1,,,,,,,,,,,,,,,,,,,,,,,
,,,,,V3_007,19,Female,2024-10-13_20h07.33.631,jersey_experiment_5_v3,2023.2.2,Win32,59.17159763,,,,,,,,,,,,,,,,722.4276,723.7268,723.7269,724.744,return,0.3885,,33.75,,,,,,FBP-YG-19.png,0.37,1.2,12,0.5,,,,,,,,,,,,,,,,,,0,15,15,11,1,,,,,,,,,,,,,,,,,,,,,,,
,,,,,V3_007,19,Female,2024-10-13_20h07.33.631,jersey_experiment_5_v3,2023.2.2,Win32,59.17159763,,,,,,,,,,,,,,,,724.7444,726.0435,726.0436,727.4101,return,0.7336,,23.54166667,,,,,,FBP-RB-81.png,0.35,1.2,51,0.5,,,,,,,,,,,,,,,,,,0,16,16,50,1,,,,,,,,,,,,,,,,,,,,,,,
,,,,,V3_007,19,Female,2024-10-13_20h07.33.631,jersey_experiment_5_v3,2023.2.2,Win32,59.17159763,,,,,,,,,,,,,,,,727.4104,728.7104,728.7104,730.1105,return,0.618,,63.95833333,,,,,,FBP-YG-17.png,0.4,1.2,3,0.5,,,,,,,,,,,,,,,,,,0,17,17,2,1,,,,,,,,,,,,,,,,,,,,,,,
,,,,,V3_007,19,Female,2024-10-13_20h07.33.631,jersey_experiment_5_v3,2023.2.2,Win32,59.17159763,,,,,,,,,,,,,,,,730.1109,731.4103,731.4103,732.2936,return,0.3564,,44.79166667,,,,,,FBP-PT-91.png,0.35,1.2,26,0.5,,,,,,,,,,,,,,,,,,0,18,18,25,1,,,,,,,,,,,,,,,,,,,,,,,
,,,,,V3_007,19,Female,2024-10-13_20h07.33.631,jersey_experiment_5_v3,2023.2.2,Win32,59.17159763,,,,,,,,,,,,,,,,732.294,733.5938,733.5939,735.8936,return,0.5565,,76.25,,,,,,FBP-PT-71.png,0.45,1.2,20,0.5,,,,,,,,,,,,,,,,,,0,19,19,19,1,,,,,,,,,,,,,,,,,,,,,,,
,,,,,V3_007,19,Female,2024-10-13_20h07.33.631,jersey_experiment_5_v3,2023.2.2,Win32,59.17159763,,,,,,,,,,,,,,,,735.8939,737.1936,737.1937,738.6937,return,1.0421,,78.47222222,,,,,,FBP-PT-81.png,0.43,1.2,24,0.5,,,,,,,,,,,,,,,,,,0,20,20,23,1,,,,,,,,,,,,,,,,,,,,,,,
,,,,,V3_007,19,Female,2024-10-13_20h07.33.631,jersey_experiment_5_v3,2023.2.2,Win32,59.17159763,,,,,,,,,,,,,,,,738.6941,739.9938,739.9939,742.5769,return,0.8331,,78.68055556,,,,,,FBP-PT-81.png,0.45,1.2,25,0.5,,,,,,,,,,,,,,,,,,0,21,21,24,1,,,,,,,,,,,,,,,,,,,,,,,
,,,,,V3_007,19,Female,2024-10-13_20h07.33.631,jersey_experiment_5_v3,2023.2.2,Win32,59.17159763,,,,,,,,,,,,,,,,742.5772,743.8772,743.8772,744.7771,return,0.4548,,82.77777778,,,,,,FBP-YG-17.png,0.43,1.2,4,0.5,,,,,,,,,,,,,,,,,,0,22,22,3,1,,,,,,,,,,,,,,,,,,,,,,,
,,,,,V3_007,19,Female,2024-10-13_20h07.33.631,jersey_experiment_5_v3,2023.2.2,Win32,59.17159763,,,,,,,,,,,,,,,,744.7775,746.077,746.0771,748.3108,return,0.6883,,82.91666667,,,,,,FBP-YG-18.png,0.43,1.2,9,0.5,,,,,,,,,,,,,,,,,,0,23,23,8,1,,,,,,,,,,,,,,,,,,,,,,,
,,,,,V3_007,19,Female,2024-10-13_20h07.33.631,jersey_experiment_5_v3,2023.2.2,Win32,59.17159763,,,,,,,,,,,,,,,,748.3111,749.6103,749.6104,751.4273,return,0.8772,,26.94444444,,,,,,FBP-YG-17.png,0.35,1.2,1,0.5,,,,,,,,,,,,,,,,,,0,24,24,0,1,,,,,,,,,,,,,,,,,,,,,,,
,,,,,V3_007,19,Female,2024-10-13_20h07.33.631,jersey_experiment_5_v3,2023.2.2,Win32,59.17159763,,,,,,,,,,,,,,,,751.4278,752.7272,752.7273,754.6106,return,1.2108,,73.81944444,,,,,,FBP-YG-17.png,0.45,1.2,5,0.5,,,,,,,,,,,,,,,,,,0,25,25,4,1,,,,,,,,,,,,,,,,,,,,,,,
,,,,,V3_007,19,Female,2024-10-13_20h07.33.631,jersey_experiment_5_v3,2023.2.2,Win32,59.17159763,,,,,,,,,,,,,,,,754.6111,756.1608,756.1609,757.1439,return,0.3586,,27.29166667,,,,,,FBP-OG-71.png,0.35,1.2,31,0.75,,,,,,,,,,,,,,,,,,0,26,26,30,1,,,,,,,,,,,,,,,,,,,,,,,
,,,,,V3_007,19,Female,2024-10-13_20h07.33.631,jersey_experiment_5_v3,2023.2.2,Win32,59.17159763,,,,,,,,,,,,,,,,757.1443,758.6941,758.6942,761.2938,return,0.8328,,54.86111111,,,,,,FBP-OG-81.png,0.4,1.2,38,0.75,,,,,,,,,,,,,,,,,,0,27,27,37,1,,,,,,,,,,,,,,,,,,,,,,,
,,,,,V3_007,19,Female,2024-10-13_20h07.33.631,jersey_experiment_5_v3,2023.2.2,Win32,59.17159763,,,,,,,,,,,,,,,,761.2943,762.8441,762.8441,764.0104,return,0.4519,,73.68055556,,,,,,FBP-OG-91.png,0.4,1.2,43,0.75,,,,,,,,,,,,,,,,,,0,28,28,42,1,,,,,,,,,,,,,,,,,,,,,,,
,,,,,V3_007,19,Female,2024-10-13_20h07.33.631,jersey_experiment_5_v3,2023.2.2,Win32,59.17159763,,,,,,,,,,,,,,,,764.0107,765.3109,765.311,766.3441,return,0.5051,,84.02777778,,,,,,FBP-YG-19.png,0.45,1.2,15,0.5,,,,,,,,,,,,,,,,,,0,29,29,14,1,,,,,,,,,,,,,,,,,,,,,,,
,,,,,V3_007,19,Female,2024-10-13_20h07.33.631,jersey_experiment_5_v3,2023.2.2,Win32,59.17159763,,,,,,,,,,,,,,,,766.3444,767.8943,767.8944,768.6108,return,0.552,,83.54166667,,,,,,FBP-OG-91.png,0.45,1.2,45,0.75,,,,,,,,,,,,,,,,,,0,30,30,44,1,,,,,,,,,,,,,,,,,,,,,,,
,,,,,V3_007,19,Female,2024-10-13_20h07.33.631,jersey_experiment_5_v3,2023.2.2,Win32,59.17159763,,,,,,,,,,,,,,,,768.6113,769.9105,769.9106,771.4606,return,0.7261,,32.08333333,,,,,,FBP-PT-91.png,0.37,1.2,27,0.5,,,,,,,,,,,,,,,,,,0,31,31,26,1,,,,,,,,,,,,,,,,,,,,,,,
,,,,,V3_007,19,Female,2024-10-13_20h07.33.631,jersey_experiment_5_v3,2023.2.2,Win32,59.17159763,,,,,,,,,,,,,,,,771.4611,772.761,772.761,773.8441,return,0.4253,,76.875,,,,,,FBP-RB-71.png,0.43,1.2,49,0.5,,,,,,,,,,,,,,,,,,0,32,32,48,1,,,,,,,,,,,,,,,,,,,,,,,
,,,,,V3_007,19,Female,2024-10-13_20h07.33.631,jersey_experiment_5_v3,2023.2.2,Win32,59.17159763,,,,,,,,,,,,,,,,773.8446,775.1443,775.1444,776.0606,return,0.4189,,75.625,,,,,,FBP-YG-19.png,0.43,1.2,14,0.5,,,,,,,,,,,,,,,,,,0,33,33,13,1,,,,,,,,,,,,,,,,,,,,,,,
,,,,,V3_007,19,Female,2024-10-13_20h07.33.631,jersey_experiment_5_v3,2023.2.2,Win32,59.17159763,,,,,,,,,,,,,,,,776.0609,777.6109,777.611,778.6107,return,0.4272,,37.01388889,,,,,,FBP-OG-81.png,0.43,1.2,39,0.75,,,,,,,,,,,,,,,,,,0,34,34,38,1,,,,,,,,,,,,,,,,,,,,,,,
,,,,,V3_007,19,Female,2024-10-13_20h07.33.631,jersey_experiment_5_v3,2023.2.2,Win32,59.17159763,,,,,,,,,,,,,,,,778.611,780.161,780.161,781.1272,return,0.423,,39.58333333,,,,,,FBP-OG-91.png,0.37,1.2,42,0.75,,,,,,,,,,,,,,,,,,0,35,35,41,1,,,,,,,,,,,,,,,,,,,,,,,
,,,,,V3_007,19,Female,2024-10-13_20h07.33.631,jersey_experiment_5_v3,2023.2.2,Win32,59.17159763,,,,,,,,,,,,,,,,781.1274,782.6775,782.6776,783.6938,return,0.448,,72.56944444,,,,,,FBP-OG-81.png,0.45,1.2,40,0.75,,,,,,,,,,,,,,,,,,0,36,36,39,1,,,,,,,,,,,,,,,,,,,,,,,
,,,,,V3_007,19,Female,2024-10-13_20h07.33.631,jersey_experiment_5_v3,2023.2.2,Win32,59.17159763,,,,,,,,,,,,,,,,783.6942,784.9942,784.9943,785.8773,return,0.3743,,70.20833333,,,,,,FBP-PT-91.png,0.43,1.2,29,0.5,,,,,,,,,,,,,,,,,,0,37,37,28,1,,,,,,,,,,,,,,,,,,,,,,,
,,,,,V3_007,19,Female,2024-10-13_20h07.33.631,jersey_experiment_5_v3,2023.2.2,Win32,59.17159763,,,,,,,,,,,,,,,,785.8775,787.1772,787.1773,788.3941,return,0.4201,,24.72222222,,,,,,FBP-RB-71.png,0.37,1.2,47,0.5,,,,,,,,,,,,,,,,,,0,38,38,46,1,,,,,,,,,,,,,,,,,,,,,,,
,,,,,V3_007,19,Female,2024-10-13_20h07.33.631,jersey_experiment_5_v3,2023.2.2,Win32,59.17159763,,,,,,,,,,,,,,,,788.3946,789.6942,789.6942,790.7442,return,0.4062,,79.09722222,,,,,,FBP-RB-91.png,0.43,1.2,59,0.5,,,,,,,,,,,,,,,,,,0,39,39,58,1,,,,,,,,,,,,,,,,,,,,,,,
,,,,,V3_007,19,Female,2024-10-13_20h07.33.631,jersey_experiment_5_v3,2023.2.2,Win32,59.17159763,,,,,,,,,,,,,,,,790.7447,792.0444,792.0444,794.094,return,0.5146,,25.20833333,,,,,,FBP-YG-18.png,0.35,1.2,6,0.5,,,,,,,,,,,,,,,,,,0,40,40,5,1,,,,,,,,,,,,,,,,,,,,,,,
,,,,,V3_007,19,Female,2024-10-13_20h07.33.631,jersey_experiment_5_v3,2023.2.2,Win32,59.17159763,,,,,,,,,,,,,,,,794.0944,795.6443,795.6443,796.2939,return,0.4407,,25,,,,,,FBP-OG-71.png,0.37,1.2,32,0.75,,,,,,,,,,,,,,,,,,0,41,41,31,1,,,,,,,,,,,,,,,,,,,,,,,
,,,,,V3_007,19,Female,2024-10-13_20h07.33.631,jersey_experiment_5_v3,2023.2.2,Win32,59.17159763,,,,,,,,,,,,,,,,796.2942,797.5945,797.5945,798.6939,return,0.3914,,73.95833333,,,,,,FBP-PT-91.png,0.45,1.2,30,0.5,,,,,,,,,,,,,,,,,,0,42,42,29,1,,,,,,,,,,,,,,,,,,,,,,,
,,,,,V3_007,19,Female,2024-10-13_20h07.33.631,jersey_experiment_5_v3,2023.2.2,Win32,59.17159763,,,,,,,,,,,,,,,,798.6942,799.9942,799.9942,802.5776,return,0.6192,,24.72222222,,,,,,FBP-RB-91.png,0.35,1.2,56,0.5,,,,,,,,,,,,,,,,,,0,43,43,55,1,,,,,,,,,,,,,,,,,,,,,,,
,,,,,V3_007,19,Female,2024-10-13_20h07.33.631,jersey_experiment_5_v3,2023.2.2,Win32,59.17159763,,,,,,,,,,,,,,,,802.5782,803.8774,803.8775,804.8775,return,0.3988,,72.77777778,,,,,,FBP-PT-81.png,0.4,1.2,23,0.5,,,,,,,,,,,,,,,,,,0,44,44,22,1,,,,,,,,,,,,,,,,,,,,,,,
,,,,,V3_007,19,Female,2024-10-13_20h07.33.631,jersey_experiment_5_v3,2023.2.2,Win32,59.17159763,,,,,,,,,,,,,,,,804.8778,806.178,806.178,808.411,return,0.434,,64.79166667,,,,,,FBP-YG-17.png,0.37,1.2,2,0.5,,,,,,,,,,,,,,,,,,0,45,45,1,1,,,,,,,,,,,,,,,,,,,,,,,
,,,,,V3_007,19,Female,2024-10-13_20h07.33.631,jersey_experiment_5_v3,2023.2.2,Win32,59.17159763,,,,,,,,,,,,,,,,808.4112,809.7112,809.7113,810.5942,return,0.4171,,28.26388889,,,,,,FBP-PT-81.png,0.37,1.2,22,0.5,,,,,,,,,,,,,,,,,,0,46,46,21,1,,,,,,,,,,,,,,,,,,,,,,,
,,,,,V3_007,19,Female,2024-10-13_20h07.33.631,jersey_experiment_5_v3,2023.2.2,Win32,59.17159763,,,,,,,,,,,,,,,,810.5946,811.8945,811.8945,812.9275,return,0.4498,,25.06944444,,,,,,FBP-RB-81.png,0.37,1.2,52,0.5,,,,,,,,,,,,,,,,,,0,47,47,51,1,,,,,,,,,,,,,,,,,,,,,,,
,,,,,V3_007,19,Female,2024-10-13_20h07.33.631,jersey_experiment_5_v3,2023.2.2,Win32,59.17159763,,,,,,,,,,,,,,,,812.9277,814.2276,814.2277,815.3108,return,0.464,,67.22222222,,,,,,FBP-YG-18.png,0.4,1.2,8,0.5,,,,,,,,,,,,,,,,,,0,48,48,7,1,,,,,,,,,,,,,,,,,,,,,,,
,,,,,V3_007,19,Female,2024-10-13_20h07.33.631,jersey_experiment_5_v3,2023.2.2,Win32,59.17159763,,,,,,,,,,,,,,,,815.3112,816.611,816.611,818.511,return,0.4003,,26.73611111,,,,,,FBP-PT-81.png,0.35,1.2,21,0.5,,,,,,,,,,,,,,,,,,0,49,49,20,1,,,,,,,,,,,,,,,,,,,,,,,
,,,,,V3_007,19,Female,2024-10-13_20h07.33.631,jersey_experiment_5_v3,2023.2.2,Win32,59.17159763,,,,,,,,,,,,,,,,818.5114,819.8108,819.8109,820.511,return,0.3642,,27.01388889,,,,,,FBP-PT-71.png,0.37,1.2,17,0.5,,,,,,,,,,,,,,,,,,0,50,50,16,1,,,,,,,,,,,,,,,,,,,,,,,
,,,,,V3_007,19,Female,2024-10-13_20h07.33.631,jersey_experiment_5_v3,2023.2.2,Win32,59.17159763,,,,,,,,,,,,,,,,820.5115,821.8109,821.811,822.8609,return,0.5002,,75.55555556,,,,,,FBP-PT-71.png,0.4,1.2,18,0.5,,,,,,,,,,,,,,,,,,0,51,51,17,1,,,,,,,,,,,,,,,,,,,,,,,
,,,,,V3_007,19,Female,2024-10-13_20h07.33.631,jersey_experiment_5_v3,2023.2.2,Win32,59.17159763,,,,,,,,,,,,,,,,822.8613,824.4109,824.4109,825.2612,return,0.4338,,75.34722222,,,,,,FBP-OG-71.png,0.4,1.2,33,0.75,,,,,,,,,,,,,,,,,,0,52,52,32,1,,,,,,,,,,,,,,,,,,,,,,,
,,,,,V3_007,19,Female,2024-10-13_20h07.33.631,jersey_experiment_5_v3,2023.2.2,Win32,59.17159763,,,,,,,,,,,,,,,,825.2616,826.5609,826.561,827.3442,return,0.3498,,75.34722222,,,,,,FBP-RB-81.png,0.4,1.2,53,0.5,,,,,,,,,,,,,,,,,,0,53,53,52,1,,,,,,,,,,,,,,,,,,,,,,,
,,,,,V3_007,19,Female,2024-10-13_20h07.33.631,jersey_experiment_5_v3,2023.2.2,Win32,59.17159763,,,,,,,,,,,,,,,,827.3445,828.6443,828.6443,829.3608,return,0.3824,,75.34722222,,,,,,FBP-PT-71.png,0.35,1.2,16,0.5,,,,,,,,,,,,,,,,,,0,54,54,15,1,,,,,,,,,,,,,,,,,,,,,,,
,,,,,V3_007,19,Female,2024-10-13_20h07.33.631,jersey_experiment_5_v3,2023.2.2,Win32,59.17159763,,,,,,,,,,,,,,,,829.3611,830.9116,830.9117,831.8616,return,0.3568,,25.34722222,,,,,,FBP-OG-81.png,0.35,1.2,36,0.75,,,,,,,,,,,,,,,,,,0,55,55,35,1,,,,,,,,,,,,,,,,,,,,,,,
,,,,,V3_007,19,Female,2024-10-13_20h07.33.631,jersey_experiment_5_v3,2023.2.2,Win32,59.17159763,,,,,,,,,,,,,,,,831.8622,833.1616,833.1616,834.1941,return,0.4265,,73.26388889,,,,,,FBP-YG-19.png,0.4,1.2,13,0.5,,,,,,,,,,,,,,,,,,0,56,56,12,1,,,,,,,,,,,,,,,,,,,,,,,
,,,,,V3_007,19,Female,2024-10-13_20h07.33.631,jersey_experiment_5_v3,2023.2.2,Win32,59.17159763,,,,,,,,,,,,,,,,834.1943,835.4943,835.4943,836.228,return,0.3446,,73.26388889,,,,,,FBP-RB-71.png,0.45,1.2,50,0.5,,,,,,,,,,,,,,,,,,0,57,57,49,1,,,,,,,,,,,,,,,,,,,,,,,
,,,,,V3_007,19,Female,2024-10-13_20h07.33.631,jersey_experiment_5_v3,2023.2.2,Win32,59.17159763,,,,,,,,,,,,,,,,836.2286,837.7783,837.7783,840.1944,return,1.3665,,25.69444444,,,,,,FBP-OG-91.png,0.35,1.2,41,0.75,,,,,,,,,,,,,,,,,,0,58,58,40,1,,,,,,,,,,,,,,,,,,,,,,,
,,,,,V3_007,19,Female,2024-10-13_20h07.33.631,jersey_experiment_5_v3,2023.2.2,Win32,59.17159763,,,,,,,,,,,,,,,,840.1947,841.4942,841.4943,842.4276,return,0.3691,,26.04166667,,,,,,FBP-YG-19.png,0.35,1.2,11,0.5,,,,,,,,,,,,,,,,,,0,59,59,10,1,,,,,,,,,,,,,,,,,,,,,,,
,,,,,V3_007,19,Female,2024-10-13_20h07.33.631,jersey_experiment_5_v3,2023.2.2,Win32,59.17159763,,,,,,,,,,,,,,,,,,,,,,,,,,,,,,,,,,,,,,,,,,,,,,,,,,,,,,,,842.4284,847.3952,return,4.946,,,,,,,,,,,,,,,,,,,
,,,,,V3_007,19,Female,2024-10-13_20h07.33.631,jersey_experiment_5_v3,2023.2.2,Win32,59.17159763,,,,,,,,,,,,,,,,,,,,,,,,,,,,,,,,,,,,,,,,,,,,,,,,,,,,,,,,,,,,,847.3954,851.8616,1,3.0883,return,1.3569,,,,,,,,,,,,
,,,,,V3_007,19,Female,2024-10-13_20h07.33.631,jersey_experiment_5_v3,2023.2.2,Win32,59.17159763,,,,,,,,,,,,,,,,,,,,,,,,,,,,,,,,,,,,,,,,,,,,,,,,,,,,,,,,,,,,,,,,,,,,851.8618,886.7544,I feel like the experiment is about bias in body size based on skin color. The pattern was that there would be the same body size players but different skin colors.,right,31.1025,,,,,,
,,,,,V3_007,19,Female,2024-10-13_20h07.33.631,jersey_experiment_5_v3,2023.2.2,Win32,59.17159763,,,,,,,,,,,,,,,,,,,,,,,,,,,,,,,,,,,,,,,,,,,,,,,,,,,,,,,,,,,,,,,,,,,,,,,,,,886.7544,889.1115,return,2.3468,