requirements.started,requirements.stopped,key_resp_3.keys,key_resp_3.rt,key_resp_3.duration,Subject ID,Age,Gender,date,expName,psychopyVersion,OS,frameRate,instructions1.started,instructions1.stopped,key_resp.keys,key_resp.rt,key_resp.duration,example.started,example.stopped,enter_2.keys,enter_2.rt,enter_2.duration,instructions2.started,instructions2.stopped,enter_3.keys,enter_3.rt,enter_3.duration,image.started,image.stopped,slider_2.started,slider_2.stopped,next.keys,next.rt,next.duration,slider.response,trial_block_1.thisRepN,trial_block_1.thisTrialN,trial_block_1.thisN,trial_block_1.thisIndex,trial_block_1.ran,Path,Width,Height,Index,Duration,trial_block_2.thisRepN,trial_block_2.thisTrialN,trial_block_2.thisN,trial_block_2.thisIndex,trial_block_2.ran,rest_break.started,rest_break.stopped,end_break.started,end_break.stopped,key_resp_5.keys,key_resp_5.rt,key_resp_5.duration,trial_block_3.thisRepN,trial_block_3.thisTrialN,trial_block_3.thisN,trial_block_3.thisIndex,trial_block_3.ran,trial_block_4.thisRepN,trial_block_4.thisTrialN,trial_block_4.thisN,trial_block_4.thisIndex,trial_block_4.ran,questions_intro.started,questions_intro.stopped,enter_12.keys,enter_12.rt,enter_12.duration,question2.started,question2.stopped,question_doingbest.response,question_doingbest.rt,enter_15.keys,enter_15.rt,enter_15.duration,pattern.started,pattern.stopped,pattern_2.text,enter_17.keys,enter_17.rt,enter_17.duration,thankyou.started,thankyou.stopped,enter_14.keys,enter_14.rt,enter_14.duration
0,12.9459,return,12.9325,,V3_008,21,Female,2024-10-15_14h20.03.049,jersey_experiment_5_v3,2023.2.2,Win32,84.74576271,,,,,,,,,,,,,,,,,,,,,,,,,,,,,,,,,,,,,,,,,,,,,,,,,,,,,,,,,,,,,,,,,,,,,,,,,,,,,,
,,,,,V3_008,21,Female,2024-10-15_14h20.03.049,jersey_experiment_5_v3,2023.2.2,Win32,84.74576271,12.9461,27.2758,return,14.3095,,,,,,,,,,,,,,,,,,,,,,,,,,,,,,,,,,,,,,,,,,,,,,,,,,,,,,,,,,,,,,,,,,,,,,,,,,
,,,,,V3_008,21,Female,2024-10-15_14h20.03.049,jersey_experiment_5_v3,2023.2.2,Win32,84.74576271,,,,,,27.276,34.9233,return,7.6098,,,,,,,,,,,,,,,,,,,,,,,,,,,,,,,,,,,,,,,,,,,,,,,,,,,,,,,,,,,,,,,,,,,,,
,,,,,V3_008,21,Female,2024-10-15_14h20.03.049,jersey_experiment_5_v3,2023.2.2,Win32,84.74576271,,,,,,,,,,,34.9234,65.6301,return,30.6928,,,,,,,,,,,,,,,,,,,,,,,,,,,,,,,,,,,,,,,,,,,,,,,,,,,,,,,,,,,,,,,,
,,,,,V3_008,21,Female,2024-10-15_14h20.03.049,jersey_experiment_5_v3,2023.2.2,Win32,84.74576271,,,,,,,,,,,,,,,,65.6336,67.1832,67.1833,85.0311,return,2.0209,,49.86979167,0,0,0,16,1,FBP-PT-17.png,0.37,1.2,17,0.75,,,,,,,,,,,,,,,,,,,,,,,,,,,,,,,,,,,,,,,,,,,,,
,,,,,V3_008,21,Female,2024-10-15_14h20.03.049,jersey_experiment_5_v3,2023.2.2,Win32,84.74576271,,,,,,,,,,,,,,,,85.0317,86.5839,86.5839,95.8313,return,5.1966,,71.875,0,1,1,29,1,FBP-PT-19.png,0.45,1.2,30,0.75,,,,,,,,,,,,,,,,,,,,,,,,,,,,,,,,,,,,,,,,,,,,,
,,,,,V3_008,21,Female,2024-10-15_14h20.03.049,jersey_experiment_5_v3,2023.2.2,Win32,84.74576271,,,,,,,,,,,,,,,,95.8315,97.3841,97.3841,103.6316,return,3.2351,,38.54166667,0,2,2,21,1,FBP-PT-18.png,0.37,1.2,22,0.75,,,,,,,,,,,,,,,,,,,,,,,,,,,,,,,,,,,,,,,,,,,,,
,,,,,V3_008,21,Female,2024-10-15_14h20.03.049,jersey_experiment_5_v3,2023.2.2,Win32,84.74576271,,,,,,,,,,,,,,,,103.632,104.9256,104.9256,111.6084,return,3.8193,,71.35416667,0,3,3,37,1,FBP-OG-18.png,0.4,1.2,38,0.5,,,,,,,,,,,,,,,,,,,,,,,,,,,,,,,,,,,,,,,,,,,,,
,,,,,V3_008,21,Female,2024-10-15_14h20.03.049,jersey_experiment_5_v3,2023.2.2,Win32,84.74576271,,,,,,,,,,,,,,,,111.6087,113.1612,113.1613,118.891,return,3.038,,74.73958333,0,4,4,47,1,FBP-RB-17.png,0.4,1.2,48,0.75,,,,,,,,,,,,,,,,,,,,,,,,,,,,,,,,,,,,,,,,,,,,,
,,,,,V3_008,21,Female,2024-10-15_14h20.03.049,jersey_experiment_5_v3,2023.2.2,Win32,84.74576271,,,,,,,,,,,,,,,,118.8913,120.4438,120.4439,125.8088,return,2.8723,,87.63020833,0,5,5,19,1,FBP-PT-17.png,0.45,1.2,20,0.75,,,,,,,,,,,,,,,,,,,,,,,,,,,,,,,,,,,,,,,,,,,,,
,,,,,V3_008,21,Female,2024-10-15_14h20.03.049,jersey_experiment_5_v3,2023.2.2,Win32,84.74576271,,,,,,,,,,,,,,,,125.8091,127.103,127.103,133.5856,return,3.8927,,52.86458333,0,6,6,36,1,FBP-OG-18.png,0.37,1.2,37,0.5,,,,,,,,,,,,,,,,,,,,,,,,,,,,,,,,,,,,,,,,,,,,,
,,,,,V3_008,21,Female,2024-10-15_14h20.03.049,jersey_experiment_5_v3,2023.2.2,Win32,84.74576271,,,,,,,,,,,,,,,,133.5859,135.1385,135.1385,144.68,return,4.9001,,71.74479167,0,7,7,14,1,FBP-YG-91.png,0.45,1.2,15,0.75,,,,,,,,,,,,,,,,,,,,,,,,,,,,,,,,,,,,,,,,,,,,,
,,,,,V3_008,21,Female,2024-10-15_14h20.03.049,jersey_experiment_5_v3,2023.2.2,Win32,84.74576271,,,,,,,,,,,,,,,,144.6804,146.233,146.2331,152.798,return,4.2261,,58.59375,0,8,8,27,1,FBP-PT-19.png,0.4,1.2,28,0.75,,,,,,,,,,,,,,,,,,,,,,,,,,,,,,,,,,,,,,,,,,,,,
,,,,,V3_008,21,Female,2024-10-15_14h20.03.049,jersey_experiment_5_v3,2023.2.2,Win32,84.74576271,,,,,,,,,,,,,,,,152.7984,154.0922,154.0922,160.2689,return,3.8247,,33.59375,0,9,9,41,1,FBP-OG-19.png,0.37,1.2,42,0.5,,,,,,,,,,,,,,,,,,,,,,,,,,,,,,,,,,,,,,,,,,,,,
,,,,,V3_008,21,Female,2024-10-15_14h20.03.049,jersey_experiment_5_v3,2023.2.2,Win32,84.74576271,,,,,,,,,,,,,,,,160.2692,161.8218,161.8218,169.1752,return,4.9722,,52.08333333,0,10,10,2,1,FBP-YG-71.png,0.4,1.2,3,0.75,,,,,,,,,,,,,,,,,,,,,,,,,,,,,,,,,,,,,,,,,,,,,
,,,,,V3_008,21,Female,2024-10-15_14h20.03.049,jersey_experiment_5_v3,2023.2.2,Win32,84.74576271,,,,,,,,,,,,,,,,169.1754,170.7281,170.7281,177.2107,return,3.2521,,90.49479167,0,11,11,3,1,FBP-YG-71.png,0.43,1.2,4,0.75,,,,,,,,,,,,,,,,,,,,,,,,,,,,,,,,,,,,,,,,,,,,,
,,,,,V3_008,21,Female,2024-10-15_14h20.03.049,jersey_experiment_5_v3,2023.2.2,Win32,84.74576271,,,,,,,,,,,,,,,,177.2111,178.7638,178.7639,183.9757,return,3.6906,,24.21875,0,12,12,55,1,FBP-RB-19.png,0.35,1.2,56,0.75,,,,,,,,,,,,,,,,,,,,,,,,,,,,,,,,,,,,,,,,,,,,,
,,,,,V3_008,21,Female,2024-10-15_14h20.03.049,jersey_experiment_5_v3,2023.2.2,Win32,84.74576271,,,,,,,,,,,,,,,,183.9761,185.2698,185.2698,190.0465,return,2.531,,49.73958333,0,13,13,32,1,FBP-OG-17.png,0.4,1.2,33,0.5,,,,,,,,,,,,,,,,,,,,,,,,,,,,,,,,,,,,,,,,,,,,,
,,,,,V3_008,21,Female,2024-10-15_14h20.03.049,jersey_experiment_5_v3,2023.2.2,Win32,84.74576271,,,,,,,,,,,,,,,,190.0468,191.5995,191.5995,196.5056,return,3.3349,,53.77604167,0,14,14,51,1,FBP-RB-18.png,0.37,1.2,52,0.75,,,,,,,,,,,,,,,,,,,,,,,,,,,,,,,,,,,,,,,,,,,,,
,,,,,V3_008,21,Female,2024-10-15_14h20.03.049,jersey_experiment_5_v3,2023.2.2,Win32,84.74576271,,,,,,,,,,,,,,,,196.5059,198.0585,198.0586,203.3765,return,3.7749,,35.41666667,0,15,15,45,1,FBP-RB-17.png,0.35,1.2,46,0.75,,,,,,,,,,,,,,,,,,,,,,,,,,,,,,,,,,,,,,,,,,,,,
,,,,,V3_008,21,Female,2024-10-15_14h20.03.049,jersey_experiment_5_v3,2023.2.2,Win32,84.74576271,,,,,,,,,,,,,,,,203.3768,204.6705,204.6705,211.5178,return,4.0835,,37.23958333,0,16,16,42,1,FBP-OG-19.png,0.4,1.2,43,0.5,,,,,,,,,,,,,,,,,,,,,,,,,,,,,,,,,,,,,,,,,,,,,
,,,,,V3_008,21,Female,2024-10-15_14h20.03.049,jersey_experiment_5_v3,2023.2.2,Win32,84.74576271,,,,,,,,,,,,,,,,211.5181,212.8121,212.8121,218.6242,return,4.7297,,74.73958333,0,17,17,33,1,FBP-OG-17.png,0.43,1.2,34,0.5,,,,,,,,,,,,,,,,,,,,,,,,,,,,,,,,,,,,,,,,,,,,,
,,,,,V3_008,21,Female,2024-10-15_14h20.03.049,jersey_experiment_5_v3,2023.2.2,Win32,84.74576271,,,,,,,,,,,,,,,,218.6245,220.1772,220.1772,225.8007,return,4.4641,,17.05729167,0,18,18,15,1,FBP-PT-17.png,0.35,1.2,16,0.75,,,,,,,,,,,,,,,,,,,,,,,,,,,,,,,,,,,,,,,,,,,,,
,,,,,V3_008,21,Female,2024-10-15_14h20.03.049,jersey_experiment_5_v3,2023.2.2,Win32,84.74576271,,,,,,,,,,,,,,,,225.801,227.3537,227.3538,230.2716,return,1.1765,,49.86979167,0,19,19,17,1,FBP-PT-17.png,0.4,1.2,18,0.75,,,,,,,,,,,,,,,,,,,,,,,,,,,,,,,,,,,,,,,,,,,,,
,,,,,V3_008,21,Female,2024-10-15_14h20.03.049,jersey_experiment_5_v3,2023.2.2,Win32,84.74576271,,,,,,,,,,,,,,,,230.2719,231.8246,231.8247,236.06,return,1.1803,,41.66666667,0,20,20,26,1,FBP-PT-19.png,0.37,1.2,27,0.75,,,,,,,,,,,,,,,,,,,,,,,,,,,,,,,,,,,,,,,,,,,,,
,,,,,V3_008,21,Female,2024-10-15_14h20.03.049,jersey_experiment_5_v3,2023.2.2,Win32,84.74576271,,,,,,,,,,,,,,,,236.0602,237.613,237.6131,241.2013,return,1.6628,,74.609375,0,21,21,13,1,FBP-YG-91.png,0.43,1.2,14,0.75,,,,,,,,,,,,,,,,,,,,,,,,,,,,,,,,,,,,,,,,,,,,,
,,,,,V3_008,21,Female,2024-10-15_14h20.03.049,jersey_experiment_5_v3,2023.2.2,Win32,84.74576271,,,,,,,,,,,,,,,,241.2016,242.4955,242.4955,245.7426,return,1.8011,,24.86979167,0,22,22,40,1,FBP-OG-19.png,0.35,1.2,41,0.5,,,,,,,,,,,,,,,,,,,,,,,,,,,,,,,,,,,,,,,,,,,,,
,,,,,V3_008,21,Female,2024-10-15_14h20.03.049,jersey_experiment_5_v3,2023.2.2,Win32,84.74576271,,,,,,,,,,,,,,,,245.7429,247.0367,247.0368,250.4018,return,1.8487,,88.80208333,0,23,23,34,1,FBP-OG-17.png,0.45,1.2,35,0.5,,,,,,,,,,,,,,,,,,,,,,,,,,,,,,,,,,,,,,,,,,,,,
,,,,,V3_008,21,Female,2024-10-15_14h20.03.049,jersey_experiment_5_v3,2023.2.2,Win32,84.74576271,,,,,,,,,,,,,,,,250.4021,251.9548,251.9548,254.7312,return,1.3913,,86.97916667,0,24,24,53,1,FBP-RB-18.png,0.43,1.2,54,0.75,,,,,,,,,,,,,,,,,,,,,,,,,,,,,,,,,,,,,,,,,,,,,
,,,,,V3_008,21,Female,2024-10-15_14h20.03.049,jersey_experiment_5_v3,2023.2.2,Win32,84.74576271,,,,,,,,,,,,,,,,254.7315,256.2842,256.2843,259.0962,return,1.6656,,94.66145833,0,25,25,4,1,FBP-YG-71.png,0.45,1.2,5,0.75,,,,,,,,,,,,,,,,,,,,,,,,,,,,,,,,,,,,,,,,,,,,,
,,,,,V3_008,21,Female,2024-10-15_14h20.03.049,jersey_experiment_5_v3,2023.2.2,Win32,84.74576271,,,,,,,,,,,,,,,,259.0967,260.6492,260.6493,263.0962,return,0.9957,,49.21875,0,26,26,46,1,FBP-RB-17.png,0.37,1.2,47,0.75,,,,,,,,,,,,,,,,,,,,,,,,,,,,,,,,,,,,,,,,,,,,,
,,,,,V3_008,21,Female,2024-10-15_14h20.03.049,jersey_experiment_5_v3,2023.2.2,Win32,84.74576271,,,,,,,,,,,,,,,,263.0966,264.6494,264.6494,268.4141,return,2.4116,,27.86458333,0,27,27,25,1,FBP-PT-19.png,0.35,1.2,26,0.75,,,,,,,,,,,,,,,,,,,,,,,,,,,,,,,,,,,,,,,,,,,,,
,,,,,V3_008,21,Female,2024-10-15_14h20.03.049,jersey_experiment_5_v3,2023.2.2,Win32,84.74576271,,,,,,,,,,,,,,,,268.4146,269.9672,269.9673,272.4614,return,1.2601,,94.53125,0,28,28,49,1,FBP-RB-17.png,0.45,1.2,50,0.75,,,,,,,,,,,,,,,,,,,,,,,,,,,,,,,,,,,,,,,,,,,,,
,,,,,V3_008,21,Female,2024-10-15_14h20.03.049,jersey_experiment_5_v3,2023.2.2,Win32,84.74576271,,,,,,,,,,,,,,,,272.4618,273.7554,273.7554,277.3674,return,1.3704,,20.3125,0,29,29,35,1,FBP-OG-18.png,0.35,1.2,36,0.5,,,,,,,,,,,,,,,,,,,,,,,,,,,,,,,,,,,,,,,,,,,,,
,,,,,V3_008,21,Female,2024-10-15_14h20.03.049,jersey_experiment_5_v3,2023.2.2,Win32,84.74576271,,,,,,,,,,,,,,,,277.3678,278.9203,278.9204,282.2971,return,2.1946,,87.23958333,0,30,30,24,1,FBP-PT-18.png,0.45,1.2,25,0.75,,,,,,,,,,,,,,,,,,,,,,,,,,,,,,,,,,,,,,,,,,,,,
,,,,,V3_008,21,Female,2024-10-15_14h20.03.049,jersey_experiment_5_v3,2023.2.2,Win32,84.74576271,,,,,,,,,,,,,,,,282.2975,283.85,283.8501,286.7442,return,1.4193,,88.15104167,0,31,31,48,1,FBP-RB-17.png,0.43,1.2,49,0.75,,,,,,,,,,,,,,,,,,,,,,,,,,,,,,,,,,,,,,,,,,,,,
,,,,,V3_008,21,Female,2024-10-15_14h20.03.049,jersey_experiment_5_v3,2023.2.2,Win32,84.74576271,,,,,,,,,,,,,,,,286.7447,288.2972,288.2973,291.1915,return,1.7732,,94.27083333,0,32,32,59,1,FBP-RB-19.png,0.45,1.2,60,0.75,,,,,,,,,,,,,,,,,,,,,,,,,,,,,,,,,,,,,,,,,,,,,
,,,,,V3_008,21,Female,2024-10-15_14h20.03.049,jersey_experiment_5_v3,2023.2.2,Win32,84.74576271,,,,,,,,,,,,,,,,291.1918,292.4857,292.4858,296.1211,return,1.9345,,65.234375,0,33,33,43,1,FBP-OG-19.png,0.43,1.2,44,0.5,,,,,,,,,,,,,,,,,,,,,,,,,,,,,,,,,,,,,,,,,,,,,
,,,,,V3_008,21,Female,2024-10-15_14h20.03.049,jersey_experiment_5_v3,2023.2.2,Win32,84.74576271,,,,,,,,,,,,,,,,296.1215,297.674,297.6741,301.1682,return,1.9645,,78.25520833,0,34,34,54,1,FBP-RB-18.png,0.45,1.2,55,0.75,,,,,,,,,,,,,,,,,,,,,,,,,,,,,,,,,,,,,,,,,,,,,
,,,,,V3_008,21,Female,2024-10-15_14h20.03.049,jersey_experiment_5_v3,2023.2.2,Win32,84.74576271,,,,,,,,,,,,,,,,301.1685,302.7212,302.7213,307.0978,return,2.8059,,50,0,35,35,11,1,FBP-YG-91.png,0.37,1.2,12,0.75,,,,,,,,,,,,,,,,,,,,,,,,,,,,,,,,,,,,,,,,,,,,,
,,,,,V3_008,21,Female,2024-10-15_14h20.03.049,jersey_experiment_5_v3,2023.2.2,Win32,84.74576271,,,,,,,,,,,,,,,,307.0981,308.651,308.651,310.8862,return,0.8191,,49.73958333,0,36,36,20,1,FBP-PT-18.png,0.35,1.2,21,0.75,,,,,,,,,,,,,,,,,,,,,,,,,,,,,,,,,,,,,,,,,,,,,
,,,,,V3_008,21,Female,2024-10-15_14h20.03.049,jersey_experiment_5_v3,2023.2.2,Win32,84.74576271,,,,,,,,,,,,,,,,310.8863,312.4391,312.4392,316.0277,return,2.7086,,66.92708333,0,37,37,23,1,FBP-PT-18.png,0.43,1.2,24,0.75,,,,,,,,,,,,,,,,,,,,,,,,,,,,,,,,,,,,,,,,,,,,,
,,,,,V3_008,21,Female,2024-10-15_14h20.03.049,jersey_experiment_5_v3,2023.2.2,Win32,84.74576271,,,,,,,,,,,,,,,,316.0279,317.5806,317.5807,319.8514,return,1.3322,,68.09895833,0,38,38,57,1,FBP-RB-19.png,0.4,1.2,58,0.75,,,,,,,,,,,,,,,,,,,,,,,,,,,,,,,,,,,,,,,,,,,,,
,,,,,V3_008,21,Female,2024-10-15_14h20.03.049,jersey_experiment_5_v3,2023.2.2,Win32,84.74576271,,,,,,,,,,,,,,,,319.8518,321.4042,321.4043,323.8044,return,1.1798,,74.609375,0,39,39,18,1,FBP-PT-17.png,0.43,1.2,19,0.75,,,,,,,,,,,,,,,,,,,,,,,,,,,,,,,,,,,,,,,,,,,,,
,,,,,V3_008,21,Female,2024-10-15_14h20.03.049,jersey_experiment_5_v3,2023.2.2,Win32,84.74576271,,,,,,,,,,,,,,,,323.8047,325.0988,325.0988,327.7927,return,1.0619,,74.86979167,0,40,40,44,1,FBP-OG-19.png,0.45,1.2,45,0.5,,,,,,,,,,,,,,,,,,,,,,,,,,,,,,,,,,,,,,,,,,,,,
,,,,,V3_008,21,Female,2024-10-15_14h20.03.049,jersey_experiment_5_v3,2023.2.2,Win32,84.74576271,,,,,,,,,,,,,,,,327.7929,329.0869,329.087,331.84,return,0.9849,,74.86979167,0,41,41,38,1,FBP-OG-18.png,0.43,1.2,39,0.5,,,,,,,,,,,,,,,,,,,,,,,,,,,,,,,,,,,,,,,,,,,,,
,,,,,V3_008,21,Female,2024-10-15_14h20.03.049,jersey_experiment_5_v3,2023.2.2,Win32,84.74576271,,,,,,,,,,,,,,,,331.8403,333.3931,333.3932,339.2404,return,4.4425,,50.13020833,0,42,42,56,1,FBP-RB-19.png,0.37,1.2,57,0.75,,,,,,,,,,,,,,,,,,,,,,,,,,,,,,,,,,,,,,,,,,,,,
,,,,,V3_008,21,Female,2024-10-15_14h20.03.049,jersey_experiment_5_v3,2023.2.2,Win32,84.74576271,,,,,,,,,,,,,,,,339.2408,340.7933,340.7933,343.3933,return,0.9573,,49.609375,0,43,43,52,1,FBP-RB-18.png,0.4,1.2,53,0.75,,,,,,,,,,,,,,,,,,,,,,,,,,,,,,,,,,,,,,,,,,,,,
,,,,,V3_008,21,Female,2024-10-15_14h20.03.049,jersey_experiment_5_v3,2023.2.2,Win32,84.74576271,,,,,,,,,,,,,,,,343.3936,344.9464,344.9464,346.9935,return,0.8693,,30.33854167,0,44,44,0,1,FBP-YG-71.png,0.35,1.2,1,0.75,,,,,,,,,,,,,,,,,,,,,,,,,,,,,,,,,,,,,,,,,,,,,
,,,,,V3_008,21,Female,2024-10-15_14h20.03.049,jersey_experiment_5_v3,2023.2.2,Win32,84.74576271,,,,,,,,,,,,,,,,346.9938,348.2879,348.288,351.4408,return,1.0986,,35.80729167,0,45,45,30,1,FBP-OG-17.png,0.35,1.2,31,0.5,,,,,,,,,,,,,,,,,,,,,,,,,,,,,,,,,,,,,,,,,,,,,
,,,,,V3_008,21,Female,2024-10-15_14h20.03.049,jersey_experiment_5_v3,2023.2.2,Win32,84.74576271,,,,,,,,,,,,,,,,351.4411,352.9938,352.9939,357.3232,return,2.1575,,78.38541667,0,46,46,9,1,FBP-YG-81.png,0.45,1.2,10,0.75,,,,,,,,,,,,,,,,,,,,,,,,,,,,,,,,,,,,,,,,,,,,,
,,,,,V3_008,21,Female,2024-10-15_14h20.03.049,jersey_experiment_5_v3,2023.2.2,Win32,84.74576271,,,,,,,,,,,,,,,,357.3235,358.8763,358.8763,361.1823,return,0.9313,,38.671875,0,47,47,10,1,FBP-YG-91.png,0.35,1.2,11,0.75,,,,,,,,,,,,,,,,,,,,,,,,,,,,,,,,,,,,,,,,,,,,,
,,,,,V3_008,21,Female,2024-10-15_14h20.03.049,jersey_experiment_5_v3,2023.2.2,Win32,84.74576271,,,,,,,,,,,,,,,,361.1826,362.7355,362.7355,366.6883,return,1.8491,,75.52083333,0,48,48,28,1,FBP-PT-19.png,0.43,1.2,29,0.75,,,,,,,,,,,,,,,,,,,,,,,,,,,,,,,,,,,,,,,,,,,,,
,,,,,V3_008,21,Female,2024-10-15_14h20.03.049,jersey_experiment_5_v3,2023.2.2,Win32,84.74576271,,,,,,,,,,,,,,,,366.6887,368.2413,368.2413,371.006,return,1.4939,,60.41666667,0,49,49,1,1,FBP-YG-71.png,0.37,1.2,2,0.75,,,,,,,,,,,,,,,,,,,,,,,,,,,,,,,,,,,,,,,,,,,,,
,,,,,V3_008,21,Female,2024-10-15_14h20.03.049,jersey_experiment_5_v3,2023.2.2,Win32,84.74576271,,,,,,,,,,,,,,,,371.0064,372.5591,372.5592,374.6063,return,1.131,,66.66666667,0,50,50,7,1,FBP-YG-81.png,0.4,1.2,8,0.75,,,,,,,,,,,,,,,,,,,,,,,,,,,,,,,,,,,,,,,,,,,,,
,,,,,V3_008,21,Female,2024-10-15_14h20.03.049,jersey_experiment_5_v3,2023.2.2,Win32,84.74576271,,,,,,,,,,,,,,,,374.6065,376.1593,376.1593,378.4065,return,1.009,,80.859375,0,51,51,8,1,FBP-YG-81.png,0.43,1.2,9,0.75,,,,,,,,,,,,,,,,,,,,,,,,,,,,,,,,,,,,,,,,,,,,,
,,,,,V3_008,21,Female,2024-10-15_14h20.03.049,jersey_experiment_5_v3,2023.2.2,Win32,84.74576271,,,,,,,,,,,,,,,,378.4066,379.7005,379.7005,383.6772,return,1.9674,,62.5,0,52,52,31,1,FBP-OG-17.png,0.37,1.2,32,0.5,,,,,,,,,,,,,,,,,,,,,,,,,,,,,,,,,,,,,,,,,,,,,
,,,,,V3_008,21,Female,2024-10-15_14h20.03.049,jersey_experiment_5_v3,2023.2.2,Win32,84.74576271,,,,,,,,,,,,,,,,383.6775,385.2302,385.2303,388.4422,return,1.3233,,64.71354167,0,53,53,22,1,FBP-PT-18.png,0.4,1.2,23,0.75,,,,,,,,,,,,,,,,,,,,,,,,,,,,,,,,,,,,,,,,,,,,,
,,,,,V3_008,21,Female,2024-10-15_14h20.03.049,jersey_experiment_5_v3,2023.2.2,Win32,84.74576271,,,,,,,,,,,,,,,,388.4426,389.7363,389.7364,392.3011,return,1.3067,,81.640625,0,54,54,39,1,FBP-OG-18.png,0.45,1.2,40,0.5,,,,,,,,,,,,,,,,,,,,,,,,,,,,,,,,,,,,,,,,,,,,,
,,,,,V3_008,21,Female,2024-10-15_14h20.03.049,jersey_experiment_5_v3,2023.2.2,Win32,84.74576271,,,,,,,,,,,,,,,,392.3014,393.8541,393.8542,397.3837,return,0.6905,,69.66145833,0,55,55,6,1,FBP-YG-81.png,0.37,1.2,7,0.75,,,,,,,,,,,,,,,,,,,,,,,,,,,,,,,,,,,,,,,,,,,,,
,,,,,V3_008,21,Female,2024-10-15_14h20.03.049,jersey_experiment_5_v3,2023.2.2,Win32,84.74576271,,,,,,,,,,,,,,,,397.3841,398.9368,398.9368,401.0899,return,0.6477,,50,0,56,56,5,1,FBP-YG-81.png,0.35,1.2,6,0.75,,,,,,,,,,,,,,,,,,,,,,,,,,,,,,,,,,,,,,,,,,,,,
,,,,,V3_008,21,Female,2024-10-15_14h20.03.049,jersey_experiment_5_v3,2023.2.2,Win32,84.74576271,,,,,,,,,,,,,,,,401.0901,402.6428,402.6429,404.737,return,0.7898,,79.42708333,0,57,57,58,1,FBP-RB-19.png,0.43,1.2,59,0.75,,,,,,,,,,,,,,,,,,,,,,,,,,,,,,,,,,,,,,,,,,,,,
,,,,,V3_008,21,Female,2024-10-15_14h20.03.049,jersey_experiment_5_v3,2023.2.2,Win32,84.74576271,,,,,,,,,,,,,,,,404.7373,406.29,406.2901,409.8076,return,0.9411,,45.44270833,0,58,58,50,1,FBP-RB-18.png,0.35,1.2,51,0.75,,,,,,,,,,,,,,,,,,,,,,,,,,,,,,,,,,,,,,,,,,,,,
,,,,,V3_008,21,Female,2024-10-15_14h20.03.049,jersey_experiment_5_v3,2023.2.2,Win32,84.74576271,,,,,,,,,,,,,,,,409.8079,411.3606,411.3607,414.9842,return,1.6644,,73.30729167,0,59,59,12,1,FBP-YG-91.png,0.4,1.2,13,0.75,,,,,,,,,,,,,,,,,,,,,,,,,,,,,,,,,,,,,,,,,,,,,
,,,,,V3_008,21,Female,2024-10-15_14h20.03.049,jersey_experiment_5_v3,2023.2.2,Win32,84.74576271,,,,,,,,,,,,,,,,414.9862,416.5372,416.5372,418.4316,return,0.5652,,49.47916667,,,,,,FBP-YG-19.png,0.37,1.2,12,0.75,0,0,0,11,1,,,,,,,,,,,,,,,,,,,,,,,,,,,,,,,,,,,,,,,,
,,,,,V3_008,21,Female,2024-10-15_14h20.03.049,jersey_experiment_5_v3,2023.2.2,Win32,84.74576271,,,,,,,,,,,,,,,,418.432,419.9844,419.9845,422.808,return,0.9247,,75.13020833,,,,,,FBP-YG-18.png,0.45,1.2,10,0.75,0,1,1,9,1,,,,,,,,,,,,,,,,,,,,,,,,,,,,,,,,,,,,,,,,
,,,,,V3_008,21,Female,2024-10-15_14h20.03.049,jersey_experiment_5_v3,2023.2.2,Win32,84.74576271,,,,,,,,,,,,,,,,422.8084,424.361,424.361,426.7142,return,0.9458,,79.42708333,,,,,,FBP-PT-81.png,0.43,1.2,24,0.75,0,2,2,23,1,,,,,,,,,,,,,,,,,,,,,,,,,,,,,,,,,,,,,,,,
,,,,,V3_008,21,Female,2024-10-15_14h20.03.049,jersey_experiment_5_v3,2023.2.2,Win32,84.74576271,,,,,,,,,,,,,,,,426.7144,428.2671,428.2671,430.4437,return,0.9216,,78.77604167,,,,,,FBP-RB-81.png,0.43,1.2,54,0.75,0,3,3,53,1,,,,,,,,,,,,,,,,,,,,,,,,,,,,,,,,,,,,,,,,
,,,,,V3_008,21,Female,2024-10-15_14h20.03.049,jersey_experiment_5_v3,2023.2.2,Win32,84.74576271,,,,,,,,,,,,,,,,430.4441,431.9967,431.9968,434.232,return,0.9251,,49.86979167,,,,,,FBP-YG-17.png,0.35,1.2,1,0.75,0,4,4,0,1,,,,,,,,,,,,,,,,,,,,,,,,,,,,,,,,,,,,,,,,
,,,,,V3_008,21,Female,2024-10-15_14h20.03.049,jersey_experiment_5_v3,2023.2.2,Win32,84.74576271,,,,,,,,,,,,,,,,434.2323,435.785,435.7851,438.2674,return,0.9448,,78.64583333,,,,,,FBP-RB-91.png,0.43,1.2,59,0.75,0,5,5,58,1,,,,,,,,,,,,,,,,,,,,,,,,,,,,,,,,,,,,,,,,
,,,,,V3_008,21,Female,2024-10-15_14h20.03.049,jersey_experiment_5_v3,2023.2.2,Win32,84.74576271,,,,,,,,,,,,,,,,438.2677,439.5617,439.5617,443.6089,return,1.054,,75,,,,,,FBP-OG-71.png,0.37,1.2,32,0.5,0,6,6,31,1,,,,,,,,,,,,,,,,,,,,,,,,,,,,,,,,,,,,,,,,
,,,,,V3_008,21,Female,2024-10-15_14h20.03.049,jersey_experiment_5_v3,2023.2.2,Win32,84.74576271,,,,,,,,,,,,,,,,443.6091,444.9029,444.903,448.6326,return,2.1116,,66.796875,,,,,,FBP-OG-71.png,0.4,1.2,33,0.5,0,7,7,32,1,,,,,,,,,,,,,,,,,,,,,,,,,,,,,,,,,,,,,,,,
,,,,,V3_008,21,Female,2024-10-15_14h20.03.049,jersey_experiment_5_v3,2023.2.2,Win32,84.74576271,,,,,,,,,,,,,,,,448.6329,450.1856,450.1856,451.6916,return,0.7572,,66.796875,,,,,,FBP-PT-81.png,0.4,1.2,23,0.75,0,8,8,22,1,,,,,,,,,,,,,,,,,,,,,,,,,,,,,,,,,,,,,,,,
,,,,,V3_008,21,Female,2024-10-15_14h20.03.049,jersey_experiment_5_v3,2023.2.2,Win32,84.74576271,,,,,,,,,,,,,,,,451.6919,453.2444,453.2445,456.6211,return,2.6597,,81.11979167,,,,,,FBP-PT-81.png,0.45,1.2,25,0.75,0,9,9,24,1,,,,,,,,,,,,,,,,,,,,,,,,,,,,,,,,,,,,,,,,
,,,,,V3_008,21,Female,2024-10-15_14h20.03.049,jersey_experiment_5_v3,2023.2.2,Win32,84.74576271,,,,,,,,,,,,,,,,456.6215,457.9152,457.9152,460.0095,return,0.9691,,81.51041667,,,,,,FBP-OG-71.png,0.43,1.2,34,0.5,0,10,10,33,1,,,,,,,,,,,,,,,,,,,,,,,,,,,,,,,,,,,,,,,,
,,,,,V3_008,21,Female,2024-10-15_14h20.03.049,jersey_experiment_5_v3,2023.2.2,Win32,84.74576271,,,,,,,,,,,,,,,,460.0098,461.5625,461.5625,463.692,return,1.097,,62.63020833,,,,,,FBP-RB-71.png,0.37,1.2,47,0.75,0,11,11,46,1,,,,,,,,,,,,,,,,,,,,,,,,,,,,,,,,,,,,,,,,
,,,,,V3_008,21,Female,2024-10-15_14h20.03.049,jersey_experiment_5_v3,2023.2.2,Win32,84.74576271,,,,,,,,,,,,,,,,463.6922,465.2448,465.2449,468.4804,return,0.7423,,71.61458333,,,,,,FBP-YG-18.png,0.43,1.2,9,0.75,0,12,12,8,1,,,,,,,,,,,,,,,,,,,,,,,,,,,,,,,,,,,,,,,,
,,,,,V3_008,21,Female,2024-10-15_14h20.03.049,jersey_experiment_5_v3,2023.2.2,Win32,84.74576271,,,,,,,,,,,,,,,,468.4807,470.0333,470.0333,472.9986,return,0.8918,,74.86979167,,,,,,FBP-RB-71.png,0.43,1.2,49,0.75,0,13,13,48,1,,,,,,,,,,,,,,,,,,,,,,,,,,,,,,,,,,,,,,,,
,,,,,V3_008,21,Female,2024-10-15_14h20.03.049,jersey_experiment_5_v3,2023.2.2,Win32,84.74576271,,,,,,,,,,,,,,,,472.9989,474.2924,474.2924,476.4572,return,0.7811,,76.82291667,,,,,,FBP-OG-91.png,0.45,1.2,45,0.5,0,14,14,44,1,,,,,,,,,,,,,,,,,,,,,,,,,,,,,,,,,,,,,,,,
,,,,,V3_008,21,Female,2024-10-15_14h20.03.049,jersey_experiment_5_v3,2023.2.2,Win32,84.74576271,,,,,,,,,,,,,,,,476.4574,478.0102,478.0102,484.5986,return,1.1973,,58.46354167,,,,,,FBP-PT-81.png,0.35,1.2,21,0.75,0,15,15,20,1,,,,,,,,,,,,,,,,,,,,,,,,,,,,,,,,,,,,,,,,
,,,,,V3_008,21,Female,2024-10-15_14h20.03.049,jersey_experiment_5_v3,2023.2.2,Win32,84.74576271,,,,,,,,,,,,,,,,484.5988,486.1516,486.1517,491.1988,return,1.4932,,68.48958333,,,,,,FBP-YG-17.png,0.45,1.2,5,0.75,0,16,16,4,1,,,,,,,,,,,,,,,,,,,,,,,,,,,,,,,,,,,,,,,,
,,,,,V3_008,21,Female,2024-10-15_14h20.03.049,jersey_experiment_5_v3,2023.2.2,Win32,84.74576271,,,,,,,,,,,,,,,,491.1991,492.7519,492.752,495.0343,return,1.2763,,49.34895833,,,,,,FBP-PT-71.png,0.35,1.2,16,0.75,0,17,17,15,1,,,,,,,,,,,,,,,,,,,,,,,,,,,,,,,,,,,,,,,,
,,,,,V3_008,21,Female,2024-10-15_14h20.03.049,jersey_experiment_5_v3,2023.2.2,Win32,84.74576271,,,,,,,,,,,,,,,,495.0345,496.3284,496.3284,503.0698,return,5.3654,,50.26041667,,,,,,FBP-OG-81.png,0.4,1.2,38,0.5,0,18,18,37,1,,,,,,,,,,,,,,,,,,,,,,,,,,,,,,,,,,,,,,,,
,,,,,V3_008,21,Female,2024-10-15_14h20.03.049,jersey_experiment_5_v3,2023.2.2,Win32,84.74576271,,,,,,,,,,,,,,,,503.0701,504.6229,504.623,509.6937,return,2.9772,,42.70833333,,,,,,FBP-YG-18.png,0.37,1.2,7,0.75,0,19,19,6,1,,,,,,,,,,,,,,,,,,,,,,,,,,,,,,,,,,,,,,,,
,,,,,V3_008,21,Female,2024-10-15_14h20.03.049,jersey_experiment_5_v3,2023.2.2,Win32,84.74576271,,,,,,,,,,,,,,,,509.6941,511.2467,511.2467,516.494,return,4.0593,,65.36458333,,,,,,FBP-PT-71.png,0.4,1.2,18,0.75,0,20,20,17,1,,,,,,,,,,,,,,,,,,,,,,,,,,,,,,,,,,,,,,,,
,,,,,V3_008,21,Female,2024-10-15_14h20.03.049,jersey_experiment_5_v3,2023.2.2,Win32,84.74576271,,,,,,,,,,,,,,,,516.4944,518.047,518.047,519.7058,return,1.0768,,78.77604167,,,,,,FBP-PT-91.png,0.45,1.2,30,0.75,0,21,21,29,1,,,,,,,,,,,,,,,,,,,,,,,,,,,,,,,,,,,,,,,,
,,,,,V3_008,21,Female,2024-10-15_14h20.03.049,jersey_experiment_5_v3,2023.2.2,Win32,84.74576271,,,,,,,,,,,,,,,,519.7061,521,521,523.5295,return,1.3006,,74.47916667,,,,,,FBP-OG-91.png,0.4,1.2,43,0.5,0,22,22,42,1,,,,,,,,,,,,,,,,,,,,,,,,,,,,,,,,,,,,,,,,
,,,,,V3_008,21,Female,2024-10-15_14h20.03.049,jersey_experiment_5_v3,2023.2.2,Win32,84.74576271,,,,,,,,,,,,,,,,523.5299,525.0825,525.0826,528.2237,return,2.2827,,49.609375,,,,,,FBP-PT-91.png,0.35,1.2,26,0.75,0,23,23,25,1,,,,,,,,,,,,,,,,,,,,,,,,,,,,,,,,,,,,,,,,
,,,,,V3_008,21,Female,2024-10-15_14h20.03.049,jersey_experiment_5_v3,2023.2.2,Win32,84.74576271,,,,,,,,,,,,,,,,528.224,529.7769,529.777,531.6005,return,1.0694,,66.14583333,,,,,,FBP-YG-17.png,0.43,1.2,4,0.75,0,24,24,3,1,,,,,,,,,,,,,,,,,,,,,,,,,,,,,,,,,,,,,,,,
,,,,,V3_008,21,Female,2024-10-15_14h20.03.049,jersey_experiment_5_v3,2023.2.2,Win32,84.74576271,,,,,,,,,,,,,,,,531.6009,533.1535,533.1536,535.1535,return,1.1061,,76.69270833,,,,,,FBP-RB-71.png,0.45,1.2,50,0.75,0,25,25,49,1,,,,,,,,,,,,,,,,,,,,,,,,,,,,,,,,,,,,,,,,
,,,,,V3_008,21,Female,2024-10-15_14h20.03.049,jersey_experiment_5_v3,2023.2.2,Win32,84.74576271,,,,,,,,,,,,,,,,535.154,536.7065,536.7066,541.2596,return,3.2025,,74.86979167,,,,,,FBP-YG-19.png,0.4,1.2,13,0.75,0,26,26,12,1,,,,,,,,,,,,,,,,,,,,,,,,,,,,,,,,,,,,,,,,
,,,,,V3_008,21,Female,2024-10-15_14h20.03.049,jersey_experiment_5_v3,2023.2.2,Win32,84.74576271,,,,,,,,,,,,,,,,541.2599,542.8126,542.8126,544.7538,return,1.1629,,78.64583333,,,,,,FBP-RB-81.png,0.45,1.2,55,0.75,0,27,27,54,1,,,,,,,,,,,,,,,,,,,,,,,,,,,,,,,,,,,,,,,,
,,,,,V3_008,21,Female,2024-10-15_14h20.03.049,jersey_experiment_5_v3,2023.2.2,Win32,84.74576271,,,,,,,,,,,,,,,,544.7541,546.3068,546.3069,548.9539,return,1.594,,78.90625,,,,,,FBP-RB-71.png,0.4,1.2,48,0.75,0,28,28,47,1,,,,,,,,,,,,,,,,,,,,,,,,,,,,,,,,,,,,,,,,
,,,,,V3_008,21,Female,2024-10-15_14h20.03.049,jersey_experiment_5_v3,2023.2.2,Win32,84.74576271,,,,,,,,,,,,,,,,548.9542,550.507,550.507,552.9187,return,1.3972,,70.96354167,,,,,,FBP-PT-91.png,0.37,1.2,27,0.75,0,29,29,26,1,,,,,,,,,,,,,,,,,,,,,,,,,,,,,,,,,,,,,,,,
,,,,,V3_008,21,Female,2024-10-15_14h20.03.049,jersey_experiment_5_v3,2023.2.2,Win32,84.74576271,,,,,,,,,,,,,,,,552.919,554.4719,554.4719,556.9426,return,0.4116,,50,,,,,,FBP-RB-91.png,0.35,1.2,56,0.75,0,30,30,55,1,,,,,,,,,,,,,,,,,,,,,,,,,,,,,,,,,,,,,,,,
,,,,,V3_008,21,Female,2024-10-15_14h20.03.049,jersey_experiment_5_v3,2023.2.2,Win32,84.74576271,,,,,,,,,,,,,,,,556.9429,558.2367,558.2368,560.0486,return,0.4118,,74.47916667,,,,,,FBP-OG-71.png,0.45,1.2,35,0.5,0,31,31,34,1,,,,,,,,,,,,,,,,,,,,,,,,,,,,,,,,,,,,,,,,
,,,,,V3_008,21,Female,2024-10-15_14h20.03.049,jersey_experiment_5_v3,2023.2.2,Win32,84.74576271,,,,,,,,,,,,,,,,560.0488,561.6016,561.6016,563.4369,return,0.6847,,36.97916667,,,,,,FBP-YG-19.png,0.35,1.2,11,0.75,0,32,32,10,1,,,,,,,,,,,,,,,,,,,,,,,,,,,,,,,,,,,,,,,,
,,,,,V3_008,21,Female,2024-10-15_14h20.03.049,jersey_experiment_5_v3,2023.2.2,Win32,84.74576271,,,,,,,,,,,,,,,,563.4373,564.731,564.7311,567.4018,return,0.7236,,69.79166667,,,,,,FBP-OG-91.png,0.43,1.2,44,0.5,0,33,33,43,1,,,,,,,,,,,,,,,,,,,,,,,,,,,,,,,,,,,,,,,,
,,,,,V3_008,21,Female,2024-10-15_14h20.03.049,jersey_experiment_5_v3,2023.2.2,Win32,84.74576271,,,,,,,,,,,,,,,,567.4021,568.9549,568.9549,570.9195,return,1.0438,,68.61979167,,,,,,FBP-YG-18.png,0.35,1.2,6,0.75,0,34,34,5,1,,,,,,,,,,,,,,,,,,,,,,,,,,,,,,,,,,,,,,,,
,,,,,V3_008,21,Female,2024-10-15_14h20.03.049,jersey_experiment_5_v3,2023.2.2,Win32,84.74576271,,,,,,,,,,,,,,,,570.9198,572.4726,572.4727,574.1197,return,0.7144,,67.83854167,,,,,,FBP-YG-18.png,0.4,1.2,8,0.75,0,35,35,7,1,,,,,,,,,,,,,,,,,,,,,,,,,,,,,,,,,,,,,,,,
,,,,,V3_008,21,Female,2024-10-15_14h20.03.049,jersey_experiment_5_v3,2023.2.2,Win32,84.74576271,,,,,,,,,,,,,,,,574.1202,575.4138,575.4138,577.9316,return,0.9219,,59.375,,,,,,FBP-OG-81.png,0.35,1.2,36,0.5,0,36,36,35,1,,,,,,,,,,,,,,,,,,,,,,,,,,,,,,,,,,,,,,,,
,,,,,V3_008,21,Female,2024-10-15_14h20.03.049,jersey_experiment_5_v3,2023.2.2,Win32,84.74576271,,,,,,,,,,,,,,,,577.9319,579.2257,579.2258,581.0493,return,0.7111,,70.18229167,,,,,,FBP-OG-81.png,0.43,1.2,39,0.5,0,37,37,38,1,,,,,,,,,,,,,,,,,,,,,,,,,,,,,,,,,,,,,,,,
,,,,,V3_008,21,Female,2024-10-15_14h20.03.049,jersey_experiment_5_v3,2023.2.2,Win32,84.74576271,,,,,,,,,,,,,,,,581.0496,582.3433,582.3434,584.4141,return,0.4603,,70.05208333,,,,,,FBP-OG-81.png,0.45,1.2,40,0.5,0,38,38,39,1,,,,,,,,,,,,,,,,,,,,,,,,,,,,,,,,,,,,,,,,
,,,,,V3_008,21,Female,2024-10-15_14h20.03.049,jersey_experiment_5_v3,2023.2.2,Win32,84.74576271,,,,,,,,,,,,,,,,584.4145,585.7082,585.7082,588.3436,return,1.3142,,40.10416667,,,,,,FBP-OG-91.png,0.35,1.2,41,0.5,0,39,39,40,1,,,,,,,,,,,,,,,,,,,,,,,,,,,,,,,,,,,,,,,,
,,,,,V3_008,21,Female,2024-10-15_14h20.03.049,jersey_experiment_5_v3,2023.2.2,Win32,84.74576271,,,,,,,,,,,,,,,,588.3439,589.8969,589.8969,593.4146,return,2.561,,79.94791667,,,,,,FBP-RB-91.png,0.45,1.2,60,0.75,0,40,40,59,1,,,,,,,,,,,,,,,,,,,,,,,,,,,,,,,,,,,,,,,,
,,,,,V3_008,21,Female,2024-10-15_14h20.03.049,jersey_experiment_5_v3,2023.2.2,Win32,84.74576271,,,,,,,,,,,,,,,,593.415,594.9674,594.9675,598.0499,return,1.6087,,49.86979167,,,,,,FBP-PT-81.png,0.37,1.2,22,0.75,0,41,41,21,1,,,,,,,,,,,,,,,,,,,,,,,,,,,,,,,,,,,,,,,,
,,,,,V3_008,21,Female,2024-10-15_14h20.03.049,jersey_experiment_5_v3,2023.2.2,Win32,84.74576271,,,,,,,,,,,,,,,,598.0503,599.3443,599.3443,600.9913,return,0.4581,,49.86979167,,,,,,FBP-OG-71.png,0.35,1.2,31,0.5,0,42,42,30,1,,,,,,,,,,,,,,,,,,,,,,,,,,,,,,,,,,,,,,,,
,,,,,V3_008,21,Female,2024-10-15_14h20.03.049,jersey_experiment_5_v3,2023.2.2,Win32,84.74576271,,,,,,,,,,,,,,,,600.9916,602.5442,602.5442,606.0973,return,2.3403,,69.27083333,,,,,,FBP-YG-19.png,0.43,1.2,14,0.75,0,43,43,13,1,,,,,,,,,,,,,,,,,,,,,,,,,,,,,,,,,,,,,,,,
,,,,,V3_008,21,Female,2024-10-15_14h20.03.049,jersey_experiment_5_v3,2023.2.2,Win32,84.74576271,,,,,,,,,,,,,,,,606.0976,607.3915,607.3915,609.9327,return,0.8506,,56.51041667,,,,,,FBP-OG-91.png,0.37,1.2,42,0.5,0,44,44,41,1,,,,,,,,,,,,,,,,,,,,,,,,,,,,,,,,,,,,,,,,
,,,,,V3_008,21,Female,2024-10-15_14h20.03.049,jersey_experiment_5_v3,2023.2.2,Win32,84.74576271,,,,,,,,,,,,,,,,609.933,611.4859,611.486,614.7448,return,1.8175,,73.828125,,,,,,FBP-PT-71.png,0.43,1.2,19,0.75,0,45,45,18,1,,,,,,,,,,,,,,,,,,,,,,,,,,,,,,,,,,,,,,,,
,,,,,V3_008,21,Female,2024-10-15_14h20.03.049,jersey_experiment_5_v3,2023.2.2,Win32,84.74576271,,,,,,,,,,,,,,,,614.7451,616.2978,616.2979,618.2036,return,0.8258,,61.19791667,,,,,,FBP-YG-17.png,0.37,1.2,2,0.75,0,46,46,1,1,,,,,,,,,,,,,,,,,,,,,,,,,,,,,,,,,,,,,,,,
,,,,,V3_008,21,Female,2024-10-15_14h20.03.049,jersey_experiment_5_v3,2023.2.2,Win32,84.74576271,,,,,,,,,,,,,,,,618.2039,619.7566,619.7566,621.4508,return,0.7792,,60.546875,,,,,,FBP-YG-17.png,0.4,1.2,3,0.75,0,47,47,2,1,,,,,,,,,,,,,,,,,,,,,,,,,,,,,,,,,,,,,,,,
,,,,,V3_008,21,Female,2024-10-15_14h20.03.049,jersey_experiment_5_v3,2023.2.2,Win32,84.74576271,,,,,,,,,,,,,,,,621.4511,623.0037,623.0039,625.4627,return,0.6547,,49.609375,,,,,,FBP-RB-81.png,0.35,1.2,51,0.75,0,48,48,50,1,,,,,,,,,,,,,,,,,,,,,,,,,,,,,,,,,,,,,,,,
,,,,,V3_008,21,Female,2024-10-15_14h20.03.049,jersey_experiment_5_v3,2023.2.2,Win32,84.74576271,,,,,,,,,,,,,,,,625.463,627.0158,627.0159,628.3216,return,0.4386,,85.9375,,,,,,FBP-PT-71.png,0.45,1.2,20,0.75,0,49,49,19,1,,,,,,,,,,,,,,,,,,,,,,,,,,,,,,,,,,,,,,,,
,,,,,V3_008,21,Female,2024-10-15_14h20.03.049,jersey_experiment_5_v3,2023.2.2,Win32,84.74576271,,,,,,,,,,,,,,,,628.3219,629.8746,629.8746,631.8629,return,0.7145,,61.06770833,,,,,,FBP-RB-81.png,0.37,1.2,52,0.75,0,50,50,51,1,,,,,,,,,,,,,,,,,,,,,,,,,,,,,,,,,,,,,,,,
,,,,,V3_008,21,Female,2024-10-15_14h20.03.049,jersey_experiment_5_v3,2023.2.2,Win32,84.74576271,,,,,,,,,,,,,,,,631.8631,633.4161,633.4162,635.1924,return,0.7016,,52.34375,,,,,,FBP-RB-71.png,0.35,1.2,46,0.75,0,51,51,45,1,,,,,,,,,,,,,,,,,,,,,,,,,,,,,,,,,,,,,,,,
,,,,,V3_008,21,Female,2024-10-15_14h20.03.049,jersey_experiment_5_v3,2023.2.2,Win32,84.74576271,,,,,,,,,,,,,,,,635.1927,636.7341,636.7341,639.3103,return,1.5287,,85.41666667,,,,,,FBP-YG-19.png,0.45,1.2,15,0.75,0,52,52,14,1,,,,,,,,,,,,,,,,,,,,,,,,,,,,,,,,,,,,,,,,
,,,,,V3_008,21,Female,2024-10-15_14h20.03.049,jersey_experiment_5_v3,2023.2.2,Win32,84.74576271,,,,,,,,,,,,,,,,639.3107,640.8633,640.8634,642.7222,return,1.2606,,89.32291667,,,,,,FBP-PT-91.png,0.43,1.2,29,0.75,0,53,53,28,1,,,,,,,,,,,,,,,,,,,,,,,,,,,,,,,,,,,,,,,,
,,,,,V3_008,21,Female,2024-10-15_14h20.03.049,jersey_experiment_5_v3,2023.2.2,Win32,84.74576271,,,,,,,,,,,,,,,,642.7224,644.2751,644.2752,646.6047,return,1.4376,,80.46875,,,,,,FBP-RB-81.png,0.4,1.2,53,0.75,0,54,54,52,1,,,,,,,,,,,,,,,,,,,,,,,,,,,,,,,,,,,,,,,,
,,,,,V3_008,21,Female,2024-10-15_14h20.03.049,jersey_experiment_5_v3,2023.2.2,Win32,84.74576271,,,,,,,,,,,,,,,,646.6051,648.1577,648.1578,650.2989,return,0.9108,,76.953125,,,,,,FBP-RB-91.png,0.4,1.2,58,0.75,0,55,55,57,1,,,,,,,,,,,,,,,,,,,,,,,,,,,,,,,,,,,,,,,,
,,,,,V3_008,21,Female,2024-10-15_14h20.03.049,jersey_experiment_5_v3,2023.2.2,Win32,84.74576271,,,,,,,,,,,,,,,,650.2993,651.8522,651.8522,656.0639,return,3.426,,66.015625,,,,,,FBP-RB-91.png,0.37,1.2,57,0.75,0,56,56,56,1,,,,,,,,,,,,,,,,,,,,,,,,,,,,,,,,,,,,,,,,
,,,,,V3_008,21,Female,2024-10-15_14h20.03.049,jersey_experiment_5_v3,2023.2.2,Win32,84.74576271,,,,,,,,,,,,,,,,656.0643,657.6168,657.6169,659.6287,return,0.8265,,69.53125,,,,,,FBP-PT-91.png,0.4,1.2,28,0.75,0,57,57,27,1,,,,,,,,,,,,,,,,,,,,,,,,,,,,,,,,,,,,,,,,
,,,,,V3_008,21,Female,2024-10-15_14h20.03.049,jersey_experiment_5_v3,2023.2.2,Win32,84.74576271,,,,,,,,,,,,,,,,659.629,660.9228,660.9229,662.3817,return,0.661,,61.328125,,,,,,FBP-OG-81.png,0.37,1.2,37,0.5,0,58,58,36,1,,,,,,,,,,,,,,,,,,,,,,,,,,,,,,,,,,,,,,,,
,,,,,V3_008,21,Female,2024-10-15_14h20.03.049,jersey_experiment_5_v3,2023.2.2,Win32,84.74576271,,,,,,,,,,,,,,,,662.3819,663.9346,663.9346,666.429,return,0.8367,,62.109375,,,,,,FBP-PT-71.png,0.37,1.2,17,0.75,0,59,59,16,1,,,,,,,,,,,,,,,,,,,,,,,,,,,,,,,,,,,,,,,,
,,,,,V3_008,21,Female,2024-10-15_14h20.03.049,jersey_experiment_5_v3,2023.2.2,Win32,84.74576271,,,,,,,,,,,,,,,,,,,,,,,,,,,,,,,,,,,,,,,666.4293,786.4219,,,,,,,,,,,,,,,,,,,,,,,,,,,,,,,,,,,,,,
,,,,,V3_008,21,Female,2024-10-15_14h20.03.049,jersey_experiment_5_v3,2023.2.2,Win32,84.74576271,,,,,,,,,,,,,,,,,,,,,,,,,,,,,,,,,,,,,,,,,786.422,789.0338,return,2.6044,,,,,,,,,,,,,,,,,,,,,,,,,,,,,,,,,,
,,,,,V3_008,21,Female,2024-10-15_14h20.03.049,jersey_experiment_5_v3,2023.2.2,Win32,84.74576271,,,,,,,,,,,,,,,,789.0368,790.3394,790.3395,794.8103,return,2.4867,,61.71875,,,,,,FBP-PT-18.png,0.43,1.2,24,0.5,,,,,,,,,,,,,0,0,0,23,1,,,,,,,,,,,,,,,,,,,,,,,,,,,,
,,,,,V3_008,21,Female,2024-10-15_14h20.03.049,jersey_experiment_5_v3,2023.2.2,Win32,84.74576271,,,,,,,,,,,,,,,,794.8106,796.3632,796.3632,798.9989,return,1.0449,,74.609375,,,,,,FBP-OG-19.png,0.45,1.2,45,0.75,,,,,,,,,,,,,0,1,1,44,1,,,,,,,,,,,,,,,,,,,,,,,,,,,,
,,,,,V3_008,21,Female,2024-10-15_14h20.03.049,jersey_experiment_5_v3,2023.2.2,Win32,84.74576271,,,,,,,,,,,,,,,,798.9992,800.2927,800.2927,805.3401,return,3.4983,,47.65625,,,,,,FBP-RB-19.png,0.35,1.2,56,0.5,,,,,,,,,,,,,0,2,2,55,1,,,,,,,,,,,,,,,,,,,,,,,,,,,,
,,,,,V3_008,21,Female,2024-10-15_14h20.03.049,jersey_experiment_5_v3,2023.2.2,Win32,84.74576271,,,,,,,,,,,,,,,,805.3403,806.8931,806.8932,809.3402,return,0.8626,,67.1875,,,,,,FBP-OG-19.png,0.43,1.2,44,0.75,,,,,,,,,,,,,0,3,3,43,1,,,,,,,,,,,,,,,,,,,,,,,,,,,,
,,,,,V3_008,21,Female,2024-10-15_14h20.03.049,jersey_experiment_5_v3,2023.2.2,Win32,84.74576271,,,,,,,,,,,,,,,,809.3405,810.6345,810.6345,812.7049,return,0.5783,,49.86979167,,,,,,FBP-PT-19.png,0.37,1.2,27,0.5,,,,,,,,,,,,,0,4,4,26,1,,,,,,,,,,,,,,,,,,,,,,,,,,,,
,,,,,V3_008,21,Female,2024-10-15_14h20.03.049,jersey_experiment_5_v3,2023.2.2,Win32,84.74576271,,,,,,,,,,,,,,,,812.7053,813.9991,813.9992,816.1403,return,0.8249,,77.60416667,,,,,,FBP-RB-19.png,0.43,1.2,59,0.5,,,,,,,,,,,,,0,5,5,58,1,,,,,,,,,,,,,,,,,,,,,,,,,,,,
,,,,,V3_008,21,Female,2024-10-15_14h20.03.049,jersey_experiment_5_v3,2023.2.2,Win32,84.74576271,,,,,,,,,,,,,,,,816.1406,817.4346,817.4347,819.5052,return,1.036,,71.35416667,,,,,,FBP-YG-71.png,0.4,1.2,3,0.5,,,,,,,,,,,,,0,6,6,2,1,,,,,,,,,,,,,,,,,,,,,,,,,,,,
,,,,,V3_008,21,Female,2024-10-15_14h20.03.049,jersey_experiment_5_v3,2023.2.2,Win32,84.74576271,,,,,,,,,,,,,,,,819.5054,820.7994,820.7994,822.9524,return,0.9255,,57.8125,,,,,,FBP-PT-17.png,0.37,1.2,17,0.5,,,,,,,,,,,,,0,7,7,16,1,,,,,,,,,,,,,,,,,,,,,,,,,,,,
,,,,,V3_008,21,Female,2024-10-15_14h20.03.049,jersey_experiment_5_v3,2023.2.2,Win32,84.74576271,,,,,,,,,,,,,,,,822.9528,824.2467,824.2467,826.1055,return,1.1591,,79.16666667,,,,,,FBP-RB-19.png,0.45,1.2,60,0.5,,,,,,,,,,,,,0,8,8,59,1,,,,,,,,,,,,,,,,,,,,,,,,,,,,
,,,,,V3_008,21,Female,2024-10-15_14h20.03.049,jersey_experiment_5_v3,2023.2.2,Win32,84.74576271,,,,,,,,,,,,,,,,826.1058,827.3997,827.3998,829.7293,return,1.0927,,80.59895833,,,,,,FBP-RB-17.png,0.45,1.2,50,0.5,,,,,,,,,,,,,0,9,9,49,1,,,,,,,,,,,,,,,,,,,,,,,,,,,,
,,,,,V3_008,21,Female,2024-10-15_14h20.03.049,jersey_experiment_5_v3,2023.2.2,Win32,84.74576271,,,,,,,,,,,,,,,,829.7298,831.0234,831.0234,833.1999,return,1.1431,,38.671875,,,,,,FBP-RB-18.png,0.35,1.2,51,0.5,,,,,,,,,,,,,0,10,10,50,1,,,,,,,,,,,,,,,,,,,,,,,,,,,,
,,,,,V3_008,21,Female,2024-10-15_14h20.03.049,jersey_experiment_5_v3,2023.2.2,Win32,84.74576271,,,,,,,,,,,,,,,,833.2003,834.494,834.4941,836.8,return,0.9645,,50,,,,,,FBP-RB-19.png,0.37,1.2,57,0.5,,,,,,,,,,,,,0,11,11,56,1,,,,,,,,,,,,,,,,,,,,,,,,,,,,
,,,,,V3_008,21,Female,2024-10-15_14h20.03.049,jersey_experiment_5_v3,2023.2.2,Win32,84.74576271,,,,,,,,,,,,,,,,836.8004,838.0941,838.0942,840.6238,return,1.3413,,29.16666667,,,,,,FBP-PT-19.png,0.35,1.2,26,0.5,,,,,,,,,,,,,0,12,12,25,1,,,,,,,,,,,,,,,,,,,,,,,,,,,,
,,,,,V3_008,21,Female,2024-10-15_14h20.03.049,jersey_experiment_5_v3,2023.2.2,Win32,84.74576271,,,,,,,,,,,,,,,,840.6241,841.9178,841.9178,844.1532,return,0.5478,,74.609375,,,,,,FBP-YG-81.png,0.43,1.2,9,0.5,,,,,,,,,,,,,0,13,13,8,1,,,,,,,,,,,,,,,,,,,,,,,,,,,,
,,,,,V3_008,21,Female,2024-10-15_14h20.03.049,jersey_experiment_5_v3,2023.2.2,Win32,84.74576271,,,,,,,,,,,,,,,,844.1535,845.7062,845.7064,847.4475,return,0.7948,,59.11458333,,,,,,FBP-OG-17.png,0.37,1.2,32,0.75,,,,,,,,,,,,,0,14,14,31,1,,,,,,,,,,,,,,,,,,,,,,,,,,,,
,,,,,V3_008,21,Female,2024-10-15_14h20.03.049,jersey_experiment_5_v3,2023.2.2,Win32,84.74576271,,,,,,,,,,,,,,,,847.4477,848.7416,848.7417,851.4829,return,0.7458,,50,,,,,,FBP-RB-18.png,0.37,1.2,52,0.5,,,,,,,,,,,,,0,15,15,51,1,,,,,,,,,,,,,,,,,,,,,,,,,,,,
,,,,,V3_008,21,Female,2024-10-15_14h20.03.049,jersey_experiment_5_v3,2023.2.2,Win32,84.74576271,,,,,,,,,,,,,,,,851.4833,852.7771,852.7772,854.8596,return,0.7808,,33.59375,,,,,,FBP-RB-17.png,0.35,1.2,46,0.5,,,,,,,,,,,,,0,16,16,45,1,,,,,,,,,,,,,,,,,,,,,,,,,,,,
,,,,,V3_008,21,Female,2024-10-15_14h20.03.049,jersey_experiment_5_v3,2023.2.2,Win32,84.74576271,,,,,,,,,,,,,,,,854.86,856.1537,856.1539,858.189,return,0.6849,,78.125,,,,,,FBP-RB-17.png,0.43,1.2,49,0.5,,,,,,,,,,,,,0,17,17,48,1,,,,,,,,,,,,,,,,,,,,,,,,,,,,
,,,,,V3_008,21,Female,2024-10-15_14h20.03.049,jersey_experiment_5_v3,2023.2.2,Win32,84.74576271,,,,,,,,,,,,,,,,858.1892,859.4831,859.4832,861.3421,return,0.633,,65.10416667,,,,,,FBP-RB-17.png,0.4,1.2,48,0.5,,,,,,,,,,,,,0,18,18,47,1,,,,,,,,,,,,,,,,,,,,,,,,,,,,
,,,,,V3_008,21,Female,2024-10-15_14h20.03.049,jersey_experiment_5_v3,2023.2.2,Win32,84.74576271,,,,,,,,,,,,,,,,861.3425,862.6362,862.6363,864.5423,return,0.7428,,67.83854167,,,,,,FBP-YG-91.png,0.37,1.2,12,0.5,,,,,,,,,,,,,0,19,19,11,1,,,,,,,,,,,,,,,,,,,,,,,,,,,,
,,,,,V3_008,21,Female,2024-10-15_14h20.03.049,jersey_experiment_5_v3,2023.2.2,Win32,84.74576271,,,,,,,,,,,,,,,,864.5424,865.8364,865.8365,867.3896,return,0.7066,,81.38020833,,,,,,FBP-RB-18.png,0.43,1.2,54,0.5,,,,,,,,,,,,,0,20,20,53,1,,,,,,,,,,,,,,,,,,,,,,,,,,,,
,,,,,V3_008,21,Female,2024-10-15_14h20.03.049,jersey_experiment_5_v3,2023.2.2,Win32,84.74576271,,,,,,,,,,,,,,,,867.3899,868.6835,868.6837,870.6836,return,0.91,,85.80729167,,,,,,FBP-RB-18.png,0.45,1.2,55,0.5,,,,,,,,,,,,,0,21,21,54,1,,,,,,,,,,,,,,,,,,,,,,,,,,,,
,,,,,V3_008,21,Female,2024-10-15_14h20.03.049,jersey_experiment_5_v3,2023.2.2,Win32,84.74576271,,,,,,,,,,,,,,,,870.6839,871.9778,871.9778,874.0486,return,1.1893,,82.16145833,,,,,,FBP-YG-71.png,0.43,1.2,4,0.5,,,,,,,,,,,,,0,22,22,3,1,,,,,,,,,,,,,,,,,,,,,,,,,,,,
,,,,,V3_008,21,Female,2024-10-15_14h20.03.049,jersey_experiment_5_v3,2023.2.2,Win32,84.74576271,,,,,,,,,,,,,,,,874.049,875.6015,875.6015,877.5191,return,0.953,,54.296875,,,,,,FBP-OG-19.png,0.37,1.2,42,0.75,,,,,,,,,,,,,0,23,23,41,1,,,,,,,,,,,,,,,,,,,,,,,,,,,,
,,,,,V3_008,21,Female,2024-10-15_14h20.03.049,jersey_experiment_5_v3,2023.2.2,Win32,84.74576271,,,,,,,,,,,,,,,,877.5194,879.0722,879.0722,881.0017,return,1.2061,,64.32291667,,,,,,FBP-OG-17.png,0.43,1.2,34,0.75,,,,,,,,,,,,,0,24,24,33,1,,,,,,,,,,,,,,,,,,,,,,,,,,,,
,,,,,V3_008,21,Female,2024-10-15_14h20.03.049,jersey_experiment_5_v3,2023.2.2,Win32,84.74576271,,,,,,,,,,,,,,,,881.002,882.2959,882.296,886.1077,return,2.5321,,43.88020833,,,,,,FBP-YG-81.png,0.35,1.2,6,0.5,,,,,,,,,,,,,0,25,25,5,1,,,,,,,,,,,,,,,,,,,,,,,,,,,,
,,,,,V3_008,21,Female,2024-10-15_14h20.03.049,jersey_experiment_5_v3,2023.2.2,Win32,84.74576271,,,,,,,,,,,,,,,,886.1078,887.402,887.402,889.6021,return,1.3785,,42.70833333,,,,,,FBP-PT-18.png,0.35,1.2,21,0.5,,,,,,,,,,,,,0,26,26,20,1,,,,,,,,,,,,,,,,,,,,,,,,,,,,
,,,,,V3_008,21,Female,2024-10-15_14h20.03.049,jersey_experiment_5_v3,2023.2.2,Win32,84.74576271,,,,,,,,,,,,,,,,889.6024,891.155,891.155,892.9552,return,0.6636,,49.73958333,,,,,,FBP-OG-18.png,0.4,1.2,38,0.75,,,,,,,,,,,,,0,27,27,37,1,,,,,,,,,,,,,,,,,,,,,,,,,,,,
,,,,,V3_008,21,Female,2024-10-15_14h20.03.049,jersey_experiment_5_v3,2023.2.2,Win32,84.74576271,,,,,,,,,,,,,,,,892.9556,894.2492,894.2493,895.7908,return,0.6117,,52.734375,,,,,,FBP-PT-19.png,0.4,1.2,28,0.5,,,,,,,,,,,,,0,28,28,27,1,,,,,,,,,,,,,,,,,,,,,,,,,,,,
,,,,,V3_008,21,Female,2024-10-15_14h20.03.049,jersey_experiment_5_v3,2023.2.2,Win32,84.74576271,,,,,,,,,,,,,,,,895.791,897.3435,897.3436,899.3906,return,0.8373,,67.83854167,,,,,,FBP-OG-18.png,0.43,1.2,39,0.75,,,,,,,,,,,,,0,29,29,38,1,,,,,,,,,,,,,,,,,,,,,,,,,,,,
,,,,,V3_008,21,Female,2024-10-15_14h20.03.049,jersey_experiment_5_v3,2023.2.2,Win32,84.74576271,,,,,,,,,,,,,,,,899.3909,900.9438,900.9438,902.4729,return,0.6403,,35.41666667,,,,,,FBP-OG-19.png,0.35,1.2,41,0.75,,,,,,,,,,,,,0,30,30,40,1,,,,,,,,,,,,,,,,,,,,,,,,,,,,
,,,,,V3_008,21,Female,2024-10-15_14h20.03.049,jersey_experiment_5_v3,2023.2.2,Win32,84.74576271,,,,,,,,,,,,,,,,902.4732,903.7675,903.7675,906.3203,return,1.4692,,75.78125,,,,,,FBP-PT-18.png,0.45,1.2,25,0.5,,,,,,,,,,,,,0,31,31,24,1,,,,,,,,,,,,,,,,,,,,,,,,,,,,
,,,,,V3_008,21,Female,2024-10-15_14h20.03.049,jersey_experiment_5_v3,2023.2.2,Win32,84.74576271,,,,,,,,,,,,,,,,906.3207,907.6147,907.6148,909.1206,return,0.7061,,80.078125,,,,,,FBP-YG-71.png,0.45,1.2,5,0.5,,,,,,,,,,,,,0,32,32,4,1,,,,,,,,,,,,,,,,,,,,,,,,,,,,
,,,,,V3_008,21,Female,2024-10-15_14h20.03.049,jersey_experiment_5_v3,2023.2.2,Win32,84.74576271,,,,,,,,,,,,,,,,909.1209,910.4149,910.415,911.8851,return,0.6834,,80.078125,,,,,,FBP-RB-18.png,0.4,1.2,53,0.5,,,,,,,,,,,,,0,33,33,52,1,,,,,,,,,,,,,,,,,,,,,,,,,,,,
,,,,,V3_008,21,Female,2024-10-15_14h20.03.049,jersey_experiment_5_v3,2023.2.2,Win32,84.74576271,,,,,,,,,,,,,,,,911.8854,913.4381,913.4382,916.0265,return,1.3697,,75.26041667,,,,,,FBP-OG-17.png,0.4,1.2,33,0.75,,,,,,,,,,,,,0,34,34,32,1,,,,,,,,,,,,,,,,,,,,,,,,,,,,
,,,,,V3_008,21,Female,2024-10-15_14h20.03.049,jersey_experiment_5_v3,2023.2.2,Win32,84.74576271,,,,,,,,,,,,,,,,916.0267,917.5795,917.5796,920.1091,return,1.0247,,77.34375,,,,,,FBP-OG-19.png,0.4,1.2,43,0.75,,,,,,,,,,,,,0,35,35,42,1,,,,,,,,,,,,,,,,,,,,,,,,,,,,
,,,,,V3_008,21,Female,2024-10-15_14h20.03.049,jersey_experiment_5_v3,2023.2.2,Win32,84.74576271,,,,,,,,,,,,,,,,920.1094,921.4031,921.4032,923.3444,return,0.7433,,29.6875,,,,,,FBP-YG-71.png,0.35,1.2,1,0.5,,,,,,,,,,,,,0,36,36,0,1,,,,,,,,,,,,,,,,,,,,,,,,,,,,
,,,,,V3_008,21,Female,2024-10-15_14h20.03.049,jersey_experiment_5_v3,2023.2.2,Win32,84.74576271,,,,,,,,,,,,,,,,923.3447,924.6387,924.6388,926.7798,return,0.7317,,49.73958333,,,,,,FBP-YG-91.png,0.4,1.2,13,0.5,,,,,,,,,,,,,0,37,37,12,1,,,,,,,,,,,,,,,,,,,,,,,,,,,,
,,,,,V3_008,21,Female,2024-10-15_14h20.03.049,jersey_experiment_5_v3,2023.2.2,Win32,84.74576271,,,,,,,,,,,,,,,,926.7802,928.074,928.0742,930.1565,return,0.8975,,74.47916667,,,,,,FBP-PT-19.png,0.45,1.2,30,0.5,,,,,,,,,,,,,0,38,38,29,1,,,,,,,,,,,,,,,,,,,,,,,,,,,,
,,,,,V3_008,21,Female,2024-10-15_14h20.03.049,jersey_experiment_5_v3,2023.2.2,Win32,84.74576271,,,,,,,,,,,,,,,,930.1568,931.4506,931.4507,933.4626,return,0.7846,,49.609375,,,,,,FBP-YG-91.png,0.35,1.2,11,0.5,,,,,,,,,,,,,0,39,39,10,1,,,,,,,,,,,,,,,,,,,,,,,,,,,,
,,,,,V3_008,21,Female,2024-10-15_14h20.03.049,jersey_experiment_5_v3,2023.2.2,Win32,84.74576271,,,,,,,,,,,,,,,,933.4629,934.7566,934.7566,938.2628,return,0.9486,,67.70833333,,,,,,FBP-YG-81.png,0.4,1.2,8,0.5,,,,,,,,,,,,,0,40,40,7,1,,,,,,,,,,,,,,,,,,,,,,,,,,,,
,,,,,V3_008,21,Female,2024-10-15_14h20.03.049,jersey_experiment_5_v3,2023.2.2,Win32,84.74576271,,,,,,,,,,,,,,,,938.263,939.5568,939.5568,941.2392,return,0.7722,,65.234375,,,,,,FBP-YG-81.png,0.37,1.2,7,0.5,,,,,,,,,,,,,0,41,41,6,1,,,,,,,,,,,,,,,,,,,,,,,,,,,,
,,,,,V3_008,21,Female,2024-10-15_14h20.03.049,jersey_experiment_5_v3,2023.2.2,Win32,84.74576271,,,,,,,,,,,,,,,,941.2395,942.5335,942.5336,944.3218,return,0.4559,,81.25,,,,,,FBP-YG-91.png,0.45,1.2,15,0.5,,,,,,,,,,,,,0,42,42,14,1,,,,,,,,,,,,,,,,,,,,,,,,,,,,
,,,,,V3_008,21,Female,2024-10-15_14h20.03.049,jersey_experiment_5_v3,2023.2.2,Win32,84.74576271,,,,,,,,,,,,,,,,944.3221,945.6159,945.6159,947.6277,return,0.6847,,70.05208333,,,,,,FBP-RB-19.png,0.4,1.2,58,0.5,,,,,,,,,,,,,0,43,43,57,1,,,,,,,,,,,,,,,,,,,,,,,,,,,,
,,,,,V3_008,21,Female,2024-10-15_14h20.03.049,jersey_experiment_5_v3,2023.2.2,Win32,84.74576271,,,,,,,,,,,,,,,,947.628,949.1807,949.1807,951.5808,return,1.0839,,68.88020833,,,,,,FBP-OG-17.png,0.45,1.2,35,0.75,,,,,,,,,,,,,0,44,44,34,1,,,,,,,,,,,,,,,,,,,,,,,,,,,,
,,,,,V3_008,21,Female,2024-10-15_14h20.03.049,jersey_experiment_5_v3,2023.2.2,Win32,84.74576271,,,,,,,,,,,,,,,,951.5812,952.8749,952.875,955.9459,return,0.8774,,70.05208333,,,,,,FBP-PT-18.png,0.4,1.2,23,0.5,,,,,,,,,,,,,0,45,45,22,1,,,,,,,,,,,,,,,,,,,,,,,,,,,,
,,,,,V3_008,21,Female,2024-10-15_14h20.03.049,jersey_experiment_5_v3,2023.2.2,Win32,84.74576271,,,,,,,,,,,,,,,,955.9465,957.4987,957.4988,960.2164,return,1.9484,,75,,,,,,FBP-OG-18.png,0.45,1.2,40,0.75,,,,,,,,,,,,,0,46,46,39,1,,,,,,,,,,,,,,,,,,,,,,,,,,,,
,,,,,V3_008,21,Female,2024-10-15_14h20.03.049,jersey_experiment_5_v3,2023.2.2,Win32,84.74576271,,,,,,,,,,,,,,,,960.2167,961.5105,961.5106,963.6636,return,0.9884,,83.33333333,,,,,,FBP-YG-81.png,0.45,1.2,10,0.5,,,,,,,,,,,,,0,47,47,9,1,,,,,,,,,,,,,,,,,,,,,,,,,,,,
,,,,,V3_008,21,Female,2024-10-15_14h20.03.049,jersey_experiment_5_v3,2023.2.2,Win32,84.74576271,,,,,,,,,,,,,,,,963.6641,964.9577,964.9577,967.0166,return,0.8423,,56.11979167,,,,,,FBP-PT-17.png,0.4,1.2,18,0.5,,,,,,,,,,,,,0,48,48,17,1,,,,,,,,,,,,,,,,,,,,,,,,,,,,
,,,,,V3_008,21,Female,2024-10-15_14h20.03.049,jersey_experiment_5_v3,2023.2.2,Win32,84.74576271,,,,,,,,,,,,,,,,967.0168,968.3107,968.3107,970.3345,return,0.8232,,67.05729167,,,,,,FBP-PT-17.png,0.45,1.2,20,0.5,,,,,,,,,,,,,0,49,49,19,1,,,,,,,,,,,,,,,,,,,,,,,,,,,,
,,,,,V3_008,21,Female,2024-10-15_14h20.03.049,jersey_experiment_5_v3,2023.2.2,Win32,84.74576271,,,,,,,,,,,,,,,,970.3348,971.8876,971.8877,974.9584,return,1.9629,,50.26041667,,,,,,FBP-OG-18.png,0.37,1.2,37,0.75,,,,,,,,,,,,,0,50,50,36,1,,,,,,,,,,,,,,,,,,,,,,,,,,,,
,,,,,V3_008,21,Female,2024-10-15_14h20.03.049,jersey_experiment_5_v3,2023.2.2,Win32,84.74576271,,,,,,,,,,,,,,,,974.9586,976.2524,976.2525,977.8878,return,0.6121,,50.13020833,,,,,,FBP-PT-18.png,0.37,1.2,22,0.5,,,,,,,,,,,,,0,51,51,21,1,,,,,,,,,,,,,,,,,,,,,,,,,,,,
,,,,,V3_008,21,Female,2024-10-15_14h20.03.049,jersey_experiment_5_v3,2023.2.2,Win32,84.74576271,,,,,,,,,,,,,,,,977.8882,979.1818,979.1819,981.4172,return,0.7008,,61.97916667,,,,,,FBP-YG-91.png,0.43,1.2,14,0.5,,,,,,,,,,,,,0,52,52,13,1,,,,,,,,,,,,,,,,,,,,,,,,,,,,
,,,,,V3_008,21,Female,2024-10-15_14h20.03.049,jersey_experiment_5_v3,2023.2.2,Win32,84.74576271,,,,,,,,,,,,,,,,981.4174,982.7113,982.7115,984.9233,return,0.6048,,54.296875,,,,,,FBP-PT-17.png,0.35,1.2,16,0.5,,,,,,,,,,,,,0,53,53,15,1,,,,,,,,,,,,,,,,,,,,,,,,,,,,
,,,,,V3_008,21,Female,2024-10-15_14h20.03.049,jersey_experiment_5_v3,2023.2.2,Win32,84.74576271,,,,,,,,,,,,,,,,984.9237,986.4763,986.4764,988.1234,return,0.8042,,44.140625,,,,,,FBP-OG-17.png,0.35,1.2,31,0.75,,,,,,,,,,,,,0,54,54,30,1,,,,,,,,,,,,,,,,,,,,,,,,,,,,
,,,,,V3_008,21,Female,2024-10-15_14h20.03.049,jersey_experiment_5_v3,2023.2.2,Win32,84.74576271,,,,,,,,,,,,,,,,988.1237,989.4175,989.4176,991.7588,return,0.8586,,62.890625,,,,,,FBP-PT-17.png,0.43,1.2,19,0.5,,,,,,,,,,,,,0,55,55,18,1,,,,,,,,,,,,,,,,,,,,,,,,,,,,
,,,,,V3_008,21,Female,2024-10-15_14h20.03.049,jersey_experiment_5_v3,2023.2.2,Win32,84.74576271,,,,,,,,,,,,,,,,991.7591,993.3119,993.3119,995.2412,return,0.7359,,41.27604167,,,,,,FBP-OG-18.png,0.35,1.2,36,0.75,,,,,,,,,,,,,0,56,56,35,1,,,,,,,,,,,,,,,,,,,,,,,,,,,,
,,,,,V3_008,21,Female,2024-10-15_14h20.03.049,jersey_experiment_5_v3,2023.2.2,Win32,84.74576271,,,,,,,,,,,,,,,,995.2416,996.5354,996.5355,999.1826,return,1.6368,,61.71875,,,,,,FBP-RB-17.png,0.37,1.2,47,0.5,,,,,,,,,,,,,0,57,57,46,1,,,,,,,,,,,,,,,,,,,,,,,,,,,,
,,,,,V3_008,21,Female,2024-10-15_14h20.03.049,jersey_experiment_5_v3,2023.2.2,Win32,84.74576271,,,,,,,,,,,,,,,,999.1829,1000.4768,1000.4768,1002.1708,return,0.8034,,68.61979167,,,,,,FBP-PT-19.png,0.43,1.2,29,0.5,,,,,,,,,,,,,0,58,58,28,1,,,,,,,,,,,,,,,,,,,,,,,,,,,,
,,,,,V3_008,21,Female,2024-10-15_14h20.03.049,jersey_experiment_5_v3,2023.2.2,Win32,84.74576271,,,,,,,,,,,,,,,,1002.171,1003.4651,1003.4651,1005.418,return,0.6297,,56.90104167,,,,,,FBP-YG-71.png,0.37,1.2,2,0.5,,,,,,,,,,,,,0,59,59,1,1,,,,,,,,,,,,,,,,,,,,,,,,,,,,
,,,,,V3_008,21,Female,2024-10-15_14h20.03.049,jersey_experiment_5_v3,2023.2.2,Win32,84.74576271,,,,,,,,,,,,,,,,1005.4203,1006.7124,1006.7124,1008.5123,return,0.6219,,49.86979167,,,,,,FBP-PT-81.png,0.37,1.2,22,0.5,,,,,,,,,,,,,,,,,,0,0,0,21,1,,,,,,,,,,,,,,,,,,,,,,,
,,,,,V3_008,21,Female,2024-10-15_14h20.03.049,jersey_experiment_5_v3,2023.2.2,Win32,84.74576271,,,,,,,,,,,,,,,,1008.5126,1010.0656,1010.0656,1011.7124,return,0.6587,,50,,,,,,FBP-OG-91.png,0.37,1.2,42,0.75,,,,,,,,,,,,,,,,,,0,1,1,41,1,,,,,,,,,,,,,,,,,,,,,,,
,,,,,V3_008,21,Female,2024-10-15_14h20.03.049,jersey_experiment_5_v3,2023.2.2,Win32,84.74576271,,,,,,,,,,,,,,,,1011.7128,1013.2655,1013.2655,1014.9244,return,0.6978,,49.86979167,,,,,,FBP-OG-81.png,0.35,1.2,36,0.75,,,,,,,,,,,,,,,,,,0,2,2,35,1,,,,,,,,,,,,,,,,,,,,,,,
,,,,,V3_008,21,Female,2024-10-15_14h20.03.049,jersey_experiment_5_v3,2023.2.2,Win32,84.74576271,,,,,,,,,,,,,,,,1014.9247,1016.2184,1016.2185,1019.4069,return,0.7772,,74.47916667,,,,,,FBP-RB-81.png,0.45,1.2,55,0.5,,,,,,,,,,,,,,,,,,0,3,3,54,1,,,,,,,,,,,,,,,,,,,,,,,
,,,,,V3_008,21,Female,2024-10-15_14h20.03.049,jersey_experiment_5_v3,2023.2.2,Win32,84.74576271,,,,,,,,,,,,,,,,1019.4072,1020.9599,1020.96,1022.7481,return,0.7565,,74.73958333,,,,,,FBP-OG-91.png,0.43,1.2,44,0.75,,,,,,,,,,,,,,,,,,0,4,4,43,1,,,,,,,,,,,,,,,,,,,,,,,
,,,,,V3_008,21,Female,2024-10-15_14h20.03.049,jersey_experiment_5_v3,2023.2.2,Win32,84.74576271,,,,,,,,,,,,,,,,1022.7485,1024.3013,1024.3013,1025.5482,return,0.639,,69.40104167,,,,,,FBP-OG-81.png,0.4,1.2,38,0.75,,,,,,,,,,,,,,,,,,0,5,5,37,1,,,,,,,,,,,,,,,,,,,,,,,
,,,,,V3_008,21,Female,2024-10-15_14h20.03.049,jersey_experiment_5_v3,2023.2.2,Win32,84.74576271,,,,,,,,,,,,,,,,1025.5485,1026.8423,1026.8425,1028.266,return,0.57,,67.05729167,,,,,,FBP-RB-91.png,0.37,1.2,57,0.5,,,,,,,,,,,,,,,,,,0,6,6,56,1,,,,,,,,,,,,,,,,,,,,,,,
,,,,,V3_008,21,Female,2024-10-15_14h20.03.049,jersey_experiment_5_v3,2023.2.2,Win32,84.74576271,,,,,,,,,,,,,,,,1028.2663,1029.5601,1029.5602,1031.7602,return,0.6353,,45.44270833,,,,,,FBP-YG-17.png,0.35,1.2,1,0.5,,,,,,,,,,,,,,,,,,0,7,7,0,1,,,,,,,,,,,,,,,,,,,,,,,
,,,,,V3_008,21,Female,2024-10-15_14h20.03.049,jersey_experiment_5_v3,2023.2.2,Win32,84.74576271,,,,,,,,,,,,,,,,1031.7606,1033.0546,1033.0547,1034.8427,return,0.8991,,77.08333333,,,,,,FBP-YG-18.png,0.45,1.2,10,0.5,,,,,,,,,,,,,,,,,,0,8,8,9,1,,,,,,,,,,,,,,,,,,,,,,,
,,,,,V3_008,21,Female,2024-10-15_14h20.03.049,jersey_experiment_5_v3,2023.2.2,Win32,84.74576271,,,,,,,,,,,,,,,,1034.843,1036.1369,1036.1369,1037.9841,return,0.6022,,71.484375,,,,,,FBP-YG-17.png,0.4,1.2,3,0.5,,,,,,,,,,,,,,,,,,0,9,9,2,1,,,,,,,,,,,,,,,,,,,,,,,
,,,,,V3_008,21,Female,2024-10-15_14h20.03.049,jersey_experiment_5_v3,2023.2.2,Win32,84.74576271,,,,,,,,,,,,,,,,1037.9844,1039.2782,1039.2783,1041.1841,return,0.7902,,71.484375,,,,,,FBP-PT-81.png,0.4,1.2,23,0.5,,,,,,,,,,,,,,,,,,0,10,10,22,1,,,,,,,,,,,,,,,,,,,,,,,
,,,,,V3_008,21,Female,2024-10-15_14h20.03.049,jersey_experiment_5_v3,2023.2.2,Win32,84.74576271,,,,,,,,,,,,,,,,1041.1844,1042.4783,1042.4784,1045.0078,return,0.6218,,59.765625,,,,,,FBP-RB-71.png,0.35,1.2,46,0.5,,,,,,,,,,,,,,,,,,0,11,11,45,1,,,,,,,,,,,,,,,,,,,,,,,
,,,,,V3_008,21,Female,2024-10-15_14h20.03.049,jersey_experiment_5_v3,2023.2.2,Win32,84.74576271,,,,,,,,,,,,,,,,1045.0081,1046.3019,1046.3019,1048.4904,return,0.7113,,57.94270833,,,,,,FBP-PT-71.png,0.37,1.2,17,0.5,,,,,,,,,,,,,,,,,,0,12,12,16,1,,,,,,,,,,,,,,,,,,,,,,,
,,,,,V3_008,21,Female,2024-10-15_14h20.03.049,jersey_experiment_5_v3,2023.2.2,Win32,84.74576271,,,,,,,,,,,,,,,,1048.4906,1049.7844,1049.7845,1051.714,return,0.7059,,49.73958333,,,,,,FBP-PT-91.png,0.37,1.2,27,0.5,,,,,,,,,,,,,,,,,,0,13,13,26,1,,,,,,,,,,,,,,,,,,,,,,,
,,,,,V3_008,21,Female,2024-10-15_14h20.03.049,jersey_experiment_5_v3,2023.2.2,Win32,84.74576271,,,,,,,,,,,,,,,,1051.7144,1053.0081,1053.0081,1055.067,return,0.5208,,77.21354167,,,,,,FBP-YG-18.png,0.43,1.2,9,0.5,,,,,,,,,,,,,,,,,,0,14,14,8,1,,,,,,,,,,,,,,,,,,,,,,,
,,,,,V3_008,21,Female,2024-10-15_14h20.03.049,jersey_experiment_5_v3,2023.2.2,Win32,84.74576271,,,,,,,,,,,,,,,,1055.0672,1056.3611,1056.3612,1058.5849,return,1.2174,,55.72916667,,,,,,FBP-RB-81.png,0.35,1.2,51,0.5,,,,,,,,,,,,,,,,,,0,15,15,50,1,,,,,,,,,,,,,,,,,,,,,,,
,,,,,V3_008,21,Female,2024-10-15_14h20.03.049,jersey_experiment_5_v3,2023.2.2,Win32,84.74576271,,,,,,,,,,,,,,,,1058.5852,1059.8791,1059.8791,1062.279,return,1.2904,,78.515625,,,,,,FBP-RB-71.png,0.43,1.2,49,0.5,,,,,,,,,,,,,,,,,,0,16,16,48,1,,,,,,,,,,,,,,,,,,,,,,,
,,,,,V3_008,21,Female,2024-10-15_14h20.03.049,jersey_experiment_5_v3,2023.2.2,Win32,84.74576271,,,,,,,,,,,,,,,,1062.2793,1063.5732,1063.5733,1065.9498,return,0.436,,78.64583333,,,,,,FBP-RB-91.png,0.45,1.2,60,0.5,,,,,,,,,,,,,,,,,,0,17,17,59,1,,,,,,,,,,,,,,,,,,,,,,,
,,,,,V3_008,21,Female,2024-10-15_14h20.03.049,jersey_experiment_5_v3,2023.2.2,Win32,84.74576271,,,,,,,,,,,,,,,,1065.9502,1067.244,1067.244,1069.6793,return,1.5073,,79.16666667,,,,,,FBP-PT-91.png,0.45,1.2,30,0.5,,,,,,,,,,,,,,,,,,0,18,18,29,1,,,,,,,,,,,,,,,,,,,,,,,
,,,,,V3_008,21,Female,2024-10-15_14h20.03.049,jersey_experiment_5_v3,2023.2.2,Win32,84.74576271,,,,,,,,,,,,,,,,1069.6797,1070.9735,1070.9735,1072.8442,return,0.5551,,57.94270833,,,,,,FBP-PT-91.png,0.4,1.2,28,0.5,,,,,,,,,,,,,,,,,,0,19,19,27,1,,,,,,,,,,,,,,,,,,,,,,,
,,,,,V3_008,21,Female,2024-10-15_14h20.03.049,jersey_experiment_5_v3,2023.2.2,Win32,84.74576271,,,,,,,,,,,,,,,,1072.8445,1074.1383,1074.1383,1076.1737,return,0.871,,66.53645833,,,,,,FBP-YG-17.png,0.43,1.2,4,0.5,,,,,,,,,,,,,,,,,,0,20,20,3,1,,,,,,,,,,,,,,,,,,,,,,,
,,,,,V3_008,21,Female,2024-10-15_14h20.03.049,jersey_experiment_5_v3,2023.2.2,Win32,84.74576271,,,,,,,,,,,,,,,,1076.1741,1077.4678,1077.4678,1079.5973,return,0.685,,49.73958333,,,,,,FBP-PT-91.png,0.35,1.2,26,0.5,,,,,,,,,,,,,,,,,,0,21,21,25,1,,,,,,,,,,,,,,,,,,,,,,,
,,,,,V3_008,21,Female,2024-10-15_14h20.03.049,jersey_experiment_5_v3,2023.2.2,Win32,84.74576271,,,,,,,,,,,,,,,,1079.5977,1080.8915,1080.8916,1082.7504,return,0.5763,,74.34895833,,,,,,FBP-PT-91.png,0.43,1.2,29,0.5,,,,,,,,,,,,,,,,,,0,22,22,28,1,,,,,,,,,,,,,,,,,,,,,,,
,,,,,V3_008,21,Female,2024-10-15_14h20.03.049,jersey_experiment_5_v3,2023.2.2,Win32,84.74576271,,,,,,,,,,,,,,,,1082.7507,1084.0445,1084.0446,1085.9505,return,0.6369,,50.13020833,,,,,,FBP-RB-81.png,0.37,1.2,52,0.5,,,,,,,,,,,,,,,,,,0,23,23,51,1,,,,,,,,,,,,,,,,,,,,,,,
,,,,,V3_008,21,Female,2024-10-15_14h20.03.049,jersey_experiment_5_v3,2023.2.2,Win32,84.74576271,,,,,,,,,,,,,,,,1085.9508,1087.5036,1087.5037,1089.2918,return,0.4511,,55.20833333,,,,,,FBP-OG-71.png,0.4,1.2,33,0.75,,,,,,,,,,,,,,,,,,0,24,24,32,1,,,,,,,,,,,,,,,,,,,,,,,
,,,,,V3_008,21,Female,2024-10-15_14h20.03.049,jersey_experiment_5_v3,2023.2.2,Win32,84.74576271,,,,,,,,,,,,,,,,1089.2921,1090.8448,1090.8448,1092.5508,return,0.4446,,67.31770833,,,,,,FBP-OG-81.png,0.43,1.2,39,0.75,,,,,,,,,,,,,,,,,,0,25,25,38,1,,,,,,,,,,,,,,,,,,,,,,,
,,,,,V3_008,21,Female,2024-10-15_14h20.03.049,jersey_experiment_5_v3,2023.2.2,Win32,84.74576271,,,,,,,,,,,,,,,,1092.5512,1093.845,1093.8451,1095.7392,return,0.6503,,39.32291667,,,,,,FBP-PT-81.png,0.35,1.2,21,0.5,,,,,,,,,,,,,,,,,,0,26,26,20,1,,,,,,,,,,,,,,,,,,,,,,,
,,,,,V3_008,21,Female,2024-10-15_14h20.03.049,jersey_experiment_5_v3,2023.2.2,Win32,84.74576271,,,,,,,,,,,,,,,,1095.7394,1097.0333,1097.0334,1098.8804,return,0.7687,,38.28125,,,,,,FBP-YG-19.png,0.37,1.2,12,0.5,,,,,,,,,,,,,,,,,,0,27,27,11,1,,,,,,,,,,,,,,,,,,,,,,,
,,,,,V3_008,21,Female,2024-10-15_14h20.03.049,jersey_experiment_5_v3,2023.2.2,Win32,84.74576271,,,,,,,,,,,,,,,,1098.8807,1100.1745,1100.1746,1102.8807,return,1.3544,,79.81770833,,,,,,FBP-RB-71.png,0.45,1.2,50,0.5,,,,,,,,,,,,,,,,,,0,28,28,49,1,,,,,,,,,,,,,,,,,,,,,,,
,,,,,V3_008,21,Female,2024-10-15_14h20.03.049,jersey_experiment_5_v3,2023.2.2,Win32,84.74576271,,,,,,,,,,,,,,,,1102.8808,1104.4337,1104.4337,1107.2926,return,1.9093,,56.640625,,,,,,FBP-OG-81.png,0.37,1.2,37,0.75,,,,,,,,,,,,,,,,,,0,29,29,36,1,,,,,,,,,,,,,,,,,,,,,,,
,,,,,V3_008,21,Female,2024-10-15_14h20.03.049,jersey_experiment_5_v3,2023.2.2,Win32,84.74576271,,,,,,,,,,,,,,,,1107.2928,1108.8454,1108.8455,1110.5398,return,0.6735,,49.34895833,,,,,,FBP-OG-71.png,0.37,1.2,32,0.75,,,,,,,,,,,,,,,,,,0,30,30,31,1,,,,,,,,,,,,,,,,,,,,,,,
,,,,,V3_008,21,Female,2024-10-15_14h20.03.049,jersey_experiment_5_v3,2023.2.2,Win32,84.74576271,,,,,,,,,,,,,,,,1110.5401,1111.8341,1111.8343,1113.7044,return,0.7591,,77.734375,,,,,,FBP-PT-71.png,0.43,1.2,19,0.5,,,,,,,,,,,,,,,,,,0,31,31,18,1,,,,,,,,,,,,,,,,,,,,,,,
,,,,,V3_008,21,Female,2024-10-15_14h20.03.049,jersey_experiment_5_v3,2023.2.2,Win32,84.74576271,,,,,,,,,,,,,,,,1113.7046,1115.2458,1115.2459,1116.9869,return,0.8512,,79.94791667,,,,,,FBP-OG-71.png,0.43,1.2,34,0.75,,,,,,,,,,,,,,,,,,0,32,32,33,1,,,,,,,,,,,,,,,,,,,,,,,
,,,,,V3_008,21,Female,2024-10-15_14h20.03.049,jersey_experiment_5_v3,2023.2.2,Win32,84.74576271,,,,,,,,,,,,,,,,1116.9873,1118.2811,1118.2811,1119.7989,return,0.7967,,80.46875,,,,,,FBP-YG-19.png,0.45,1.2,15,0.5,,,,,,,,,,,,,,,,,,0,33,33,14,1,,,,,,,,,,,,,,,,,,,,,,,
,,,,,V3_008,21,Female,2024-10-15_14h20.03.049,jersey_experiment_5_v3,2023.2.2,Win32,84.74576271,,,,,,,,,,,,,,,,1119.7991,1121.093,1121.0931,1123.3873,return,1.2618,,87.5,,,,,,FBP-YG-17.png,0.45,1.2,5,0.5,,,,,,,,,,,,,,,,,,0,34,34,4,1,,,,,,,,,,,,,,,,,,,,,,,
,,,,,V3_008,21,Female,2024-10-15_14h20.03.049,jersey_experiment_5_v3,2023.2.2,Win32,84.74576271,,,,,,,,,,,,,,,,1123.3876,1124.6813,1124.6813,1125.9636,return,0.4393,,58.33333333,,,,,,FBP-YG-18.png,0.37,1.2,7,0.5,,,,,,,,,,,,,,,,,,0,35,35,6,1,,,,,,,,,,,,,,,,,,,,,,,
,,,,,V3_008,21,Female,2024-10-15_14h20.03.049,jersey_experiment_5_v3,2023.2.2,Win32,84.74576271,,,,,,,,,,,,,,,,1125.9639,1127.2581,1127.2582,1128.5403,return,0.3799,,66.53645833,,,,,,FBP-PT-81.png,0.43,1.2,24,0.5,,,,,,,,,,,,,,,,,,0,36,36,23,1,,,,,,,,,,,,,,,,,,,,,,,
,,,,,V3_008,21,Female,2024-10-15_14h20.03.049,jersey_experiment_5_v3,2023.2.2,Win32,84.74576271,,,,,,,,,,,,,,,,1128.5406,1130.0934,1130.0934,1131.576,return,0.7458,,67.44791667,,,,,,FBP-OG-91.png,0.4,1.2,43,0.75,,,,,,,,,,,,,,,,,,0,37,37,42,1,,,,,,,,,,,,,,,,,,,,,,,
,,,,,V3_008,21,Female,2024-10-15_14h20.03.049,jersey_experiment_5_v3,2023.2.2,Win32,84.74576271,,,,,,,,,,,,,,,,1131.5762,1132.87,1132.8701,1135.7875,return,0.6275,,74.73958333,,,,,,FBP-RB-91.png,0.43,1.2,59,0.5,,,,,,,,,,,,,,,,,,0,38,38,58,1,,,,,,,,,,,,,,,,,,,,,,,
,,,,,V3_008,21,Female,2024-10-15_14h20.03.049,jersey_experiment_5_v3,2023.2.2,Win32,84.74576271,,,,,,,,,,,,,,,,1135.7878,1137.0818,1137.0818,1139.6113,return,0.4974,,83.59375,,,,,,FBP-PT-71.png,0.45,1.2,20,0.5,,,,,,,,,,,,,,,,,,0,39,39,19,1,,,,,,,,,,,,,,,,,,,,,,,
,,,,,V3_008,21,Female,2024-10-15_14h20.03.049,jersey_experiment_5_v3,2023.2.2,Win32,84.74576271,,,,,,,,,,,,,,,,1139.6118,1141.1643,1141.1643,1142.5292,return,0.7666,,83.59375,,,,,,FBP-OG-71.png,0.45,1.2,35,0.75,,,,,,,,,,,,,,,,,,0,40,40,34,1,,,,,,,,,,,,,,,,,,,,,,,
,,,,,V3_008,21,Female,2024-10-15_14h20.03.049,jersey_experiment_5_v3,2023.2.2,Win32,84.74576271,,,,,,,,,,,,,,,,1142.5295,1144.0822,1144.0824,1145.9292,return,0.9589,,58.07291667,,,,,,FBP-OG-91.png,0.35,1.2,41,0.75,,,,,,,,,,,,,,,,,,0,41,41,40,1,,,,,,,,,,,,,,,,,,,,,,,
,,,,,V3_008,21,Female,2024-10-15_14h20.03.049,jersey_experiment_5_v3,2023.2.2,Win32,84.74576271,,,,,,,,,,,,,,,,1145.9297,1147.2234,1147.2234,1149.3528,return,1.4175,,60.546875,,,,,,FBP-YG-18.png,0.4,1.2,8,0.5,,,,,,,,,,,,,,,,,,0,42,42,7,1,,,,,,,,,,,,,,,,,,,,,,,
,,,,,V3_008,21,Female,2024-10-15_14h20.03.049,jersey_experiment_5_v3,2023.2.2,Win32,84.74576271,,,,,,,,,,,,,,,,1149.3532,1150.6471,1150.6471,1153.1532,return,1.5868,,50.13020833,,,,,,FBP-PT-71.png,0.35,1.2,16,0.5,,,,,,,,,,,,,,,,,,0,43,43,15,1,,,,,,,,,,,,,,,,,,,,,,,
,,,,,V3_008,21,Female,2024-10-15_14h20.03.049,jersey_experiment_5_v3,2023.2.2,Win32,84.74576271,,,,,,,,,,,,,,,,1153.1535,1154.4472,1154.4472,1156.0707,return,0.7498,,42.83854167,,,,,,FBP-YG-18.png,0.35,1.2,6,0.5,,,,,,,,,,,,,,,,,,0,44,44,5,1,,,,,,,,,,,,,,,,,,,,,,,
,,,,,V3_008,21,Female,2024-10-15_14h20.03.049,jersey_experiment_5_v3,2023.2.2,Win32,84.74576271,,,,,,,,,,,,,,,,1156.0709,1157.6238,1157.6238,1159.2944,return,0.8487,,65.36458333,,,,,,FBP-OG-81.png,0.45,1.2,40,0.75,,,,,,,,,,,,,,,,,,0,45,45,39,1,,,,,,,,,,,,,,,,,,,,,,,
,,,,,V3_008,21,Female,2024-10-15_14h20.03.049,jersey_experiment_5_v3,2023.2.2,Win32,84.74576271,,,,,,,,,,,,,,,,1159.2948,1160.5886,1160.5886,1162.4122,return,0.9094,,64.97395833,,,,,,FBP-RB-71.png,0.37,1.2,47,0.5,,,,,,,,,,,,,,,,,,0,46,46,46,1,,,,,,,,,,,,,,,,,,,,,,,
,,,,,V3_008,21,Female,2024-10-15_14h20.03.049,jersey_experiment_5_v3,2023.2.2,Win32,84.74576271,,,,,,,,,,,,,,,,1162.4125,1163.9652,1163.9652,1166.5065,return,1.2645,,50.52083333,,,,,,FBP-OG-71.png,0.35,1.2,31,0.75,,,,,,,,,,,,,,,,,,0,47,47,30,1,,,,,,,,,,,,,,,,,,,,,,,
,,,,,V3_008,21,Female,2024-10-15_14h20.03.049,jersey_experiment_5_v3,2023.2.2,Win32,84.74576271,,,,,,,,,,,,,,,,1166.5068,1167.8006,1167.8007,1170.0596,return,0.9809,,57.16145833,,,,,,FBP-PT-71.png,0.4,1.2,18,0.5,,,,,,,,,,,,,,,,,,0,48,48,17,1,,,,,,,,,,,,,,,,,,,,,,,
,,,,,V3_008,21,Female,2024-10-15_14h20.03.049,jersey_experiment_5_v3,2023.2.2,Win32,84.74576271,,,,,,,,,,,,,,,,1170.06,1171.3537,1171.3538,1172.8479,return,0.4821,,43.61979167,,,,,,FBP-YG-17.png,0.37,1.2,2,0.5,,,,,,,,,,,,,,,,,,0,49,49,1,1,,,,,,,,,,,,,,,,,,,,,,,
,,,,,V3_008,21,Female,2024-10-15_14h20.03.049,jersey_experiment_5_v3,2023.2.2,Win32,84.74576271,,,,,,,,,,,,,,,,1172.8482,1174.1423,1174.1423,1175.5657,return,0.684,,41.92708333,,,,,,FBP-YG-19.png,0.35,1.2,11,0.5,,,,,,,,,,,,,,,,,,0,50,50,10,1,,,,,,,,,,,,,,,,,,,,,,,
,,,,,V3_008,21,Female,2024-10-15_14h20.03.049,jersey_experiment_5_v3,2023.2.2,Win32,84.74576271,,,,,,,,,,,,,,,,1175.5662,1177.1188,1177.1189,1178.7187,return,0.8137,,81.38020833,,,,,,FBP-OG-91.png,0.45,1.2,45,0.75,,,,,,,,,,,,,,,,,,0,51,51,44,1,,,,,,,,,,,,,,,,,,,,,,,
,,,,,V3_008,21,Female,2024-10-15_14h20.03.049,jersey_experiment_5_v3,2023.2.2,Win32,84.74576271,,,,,,,,,,,,,,,,1178.719,1180.0129,1180.0129,1181.8247,return,0.7682,,61.97916667,,,,,,FBP-RB-91.png,0.4,1.2,58,0.5,,,,,,,,,,,,,,,,,,0,52,52,57,1,,,,,,,,,,,,,,,,,,,,,,,
,,,,,V3_008,21,Female,2024-10-15_14h20.03.049,jersey_experiment_5_v3,2023.2.2,Win32,84.74576271,,,,,,,,,,,,,,,,1181.825,1183.119,1183.1191,1185.2012,return,0.4575,,71.875,,,,,,FBP-RB-81.png,0.43,1.2,54,0.5,,,,,,,,,,,,,,,,,,0,53,53,53,1,,,,,,,,,,,,,,,,,,,,,,,
,,,,,V3_008,21,Female,2024-10-15_14h20.03.049,jersey_experiment_5_v3,2023.2.2,Win32,84.74576271,,,,,,,,,,,,,,,,1185.2016,1186.4954,1186.4954,1188.0132,return,0.438,,70.96354167,,,,,,FBP-YG-19.png,0.4,1.2,13,0.5,,,,,,,,,,,,,,,,,,0,54,54,12,1,,,,,,,,,,,,,,,,,,,,,,,
,,,,,V3_008,21,Female,2024-10-15_14h20.03.049,jersey_experiment_5_v3,2023.2.2,Win32,84.74576271,,,,,,,,,,,,,,,,1188.0136,1189.3074,1189.3074,1191.4368,return,0.9782,,71.35416667,,,,,,FBP-RB-81.png,0.4,1.2,53,0.5,,,,,,,,,,,,,,,,,,0,55,55,52,1,,,,,,,,,,,,,,,,,,,,,,,
,,,,,V3_008,21,Female,2024-10-15_14h20.03.049,jersey_experiment_5_v3,2023.2.2,Win32,84.74576271,,,,,,,,,,,,,,,,1191.4371,1192.7309,1192.731,1194.4487,return,0.7636,,78.38541667,,,,,,FBP-YG-19.png,0.43,1.2,14,0.5,,,,,,,,,,,,,,,,,,0,56,56,13,1,,,,,,,,,,,,,,,,,,,,,,,
,,,,,V3_008,21,Female,2024-10-15_14h20.03.049,jersey_experiment_5_v3,2023.2.2,Win32,84.74576271,,,,,,,,,,,,,,,,1194.4489,1195.7428,1195.7428,1198.1193,return,1.6191,,80.078125,,,,,,FBP-PT-81.png,0.45,1.2,25,0.5,,,,,,,,,,,,,,,,,,0,57,57,24,1,,,,,,,,,,,,,,,,,,,,,,,
,,,,,V3_008,21,Female,2024-10-15_14h20.03.049,jersey_experiment_5_v3,2023.2.2,Win32,84.74576271,,,,,,,,,,,,,,,,1198.1196,1199.4136,1199.4137,1201.4372,return,0.7559,,39.97395833,,,,,,FBP-RB-91.png,0.35,1.2,56,0.5,,,,,,,,,,,,,,,,,,0,58,58,55,1,,,,,,,,,,,,,,,,,,,,,,,
,,,,,V3_008,21,Female,2024-10-15_14h20.03.049,jersey_experiment_5_v3,2023.2.2,Win32,84.74576271,,,,,,,,,,,,,,,,1201.4375,1202.7315,1202.7316,1205.0843,return,0.4504,,61.84895833,,,,,,FBP-RB-71.png,0.4,1.2,48,0.5,,,,,,,,,,,,,,,,,,0,59,59,47,1,,,,,,,,,,,,,,,,,,,,,,,
,,,,,V3_008,21,Female,2024-10-15_14h20.03.049,jersey_experiment_5_v3,2023.2.2,Win32,84.74576271,,,,,,,,,,,,,,,,,,,,,,,,,,,,,,,,,,,,,,,,,,,,,,,,,,,,,,,,1205.0846,1212.0143,return,6.9156,,,,,,,,,,,,,,,,,,,
,,,,,V3_008,21,Female,2024-10-15_14h20.03.049,jersey_experiment_5_v3,2023.2.2,Win32,84.74576271,,,,,,,,,,,,,,,,,,,,,,,,,,,,,,,,,,,,,,,,,,,,,,,,,,,,,,,,,,,,,1212.0144,1216.6263,1,3.2878,return,1.308,,,,,,,,,,,,
,,,,,V3_008,21,Female,2024-10-15_14h20.03.049,jersey_experiment_5_v3,2023.2.2,Win32,84.74576271,,,,,,,,,,,,,,,,,,,,,,,,,,,,,,,,,,,,,,,,,,,,,,,,,,,,,,,,,,,,,,,,,,,,1216.6265,1323.7609,"The experiment could be about patterns in interpreting size when also altering jersey color and skin tone. I noticed a lot of size repetition, but colors had been adjusted.",right,95.4747,,,,,,
,,,,,V3_008,21,Female,2024-10-15_14h20.03.049,jersey_experiment_5_v3,2023.2.2,Win32,84.74576271,,,,,,,,,,,,,,,,,,,,,,,,,,,,,,,,,,,,,,,,,,,,,,,,,,,,,,,,,,,,,,,,,,,,,,,,,,1323.7609,1329.5951,return,5.8251,