requirements.started,requirements.stopped,key_resp_3.keys,key_resp_3.rt,key_resp_3.duration,Subject ID,Age,Gender,date,expName,psychopyVersion,OS,frameRate,instructions1.started,instructions1.stopped,key_resp.keys,key_resp.rt,key_resp.duration,example.started,example.stopped,enter_2.keys,enter_2.rt,enter_2.duration,instructions2.started,instructions2.stopped,enter_3.keys,enter_3.rt,enter_3.duration,image.started,image.stopped,slider_2.started,slider_2.stopped,next.keys,next.rt,next.duration,slider.response,trial_block_1.thisRepN,trial_block_1.thisTrialN,trial_block_1.thisN,trial_block_1.thisIndex,trial_block_1.ran,Path,Width,Height,Index,Duration,trial_block_2.thisRepN,trial_block_2.thisTrialN,trial_block_2.thisN,trial_block_2.thisIndex,trial_block_2.ran,rest_break.started,rest_break.stopped,end_break.started,end_break.stopped,key_resp_5.keys,key_resp_5.rt,key_resp_5.duration,trial_block_3.thisRepN,trial_block_3.thisTrialN,trial_block_3.thisN,trial_block_3.thisIndex,trial_block_3.ran,trial_block_4.thisRepN,trial_block_4.thisTrialN,trial_block_4.thisN,trial_block_4.thisIndex,trial_block_4.ran,questions_intro.started,questions_intro.stopped,enter_12.keys,enter_12.rt,enter_12.duration,question2.started,question2.stopped,question_doingbest.response,question_doingbest.rt,enter_15.keys,enter_15.rt,enter_15.duration,pattern.started,pattern.stopped,pattern_2.text,enter_17.keys,enter_17.rt,enter_17.duration,thankyou.started,thankyou.stopped,enter_14.keys,enter_14.rt,enter_14.duration
0.0005,6.2343,return,6.2259,,V3_036,18,Female,2024-10-25_17h06.59.631,jersey_experiment_5_v3,2023.2.2,Win32,85.47008547,,,,,,,,,,,,,,,,,,,,,,,,,,,,,,,,,,,,,,,,,,,,,,,,,,,,,,,,,,,,,,,,,,,,,,,,,,,,,,
,,,,,V3_036,18,Female,2024-10-25_17h06.59.631,jersey_experiment_5_v3,2023.2.2,Win32,85.47008547,6.2344,27.0345,return,20.7919,,,,,,,,,,,,,,,,,,,,,,,,,,,,,,,,,,,,,,,,,,,,,,,,,,,,,,,,,,,,,,,,,,,,,,,,,,
,,,,,V3_036,18,Female,2024-10-25_17h06.59.631,jersey_experiment_5_v3,2023.2.2,Win32,85.47008547,,,,,,27.0345,30.864,return,3.7966,,,,,,,,,,,,,,,,,,,,,,,,,,,,,,,,,,,,,,,,,,,,,,,,,,,,,,,,,,,,,,,,,,,,,
,,,,,V3_036,18,Female,2024-10-25_17h06.59.631,jersey_experiment_5_v3,2023.2.2,Win32,85.47008547,,,,,,,,,,,30.8642,51.4883,return,20.6119,,,,,,,,,,,,,,,,,,,,,,,,,,,,,,,,,,,,,,,,,,,,,,,,,,,,,,,,,,,,,,,,
,,,,,V3_036,18,Female,2024-10-25_17h06.59.631,jersey_experiment_5_v3,2023.2.2,Win32,85.47008547,,,,,,,,,,,,,,,,51.4913,53.0412,53.0414,68.2535,return,10.296,,76.171875,0,0,0,54,1,FBP-RB-18.png,0.45,1.2,55,0.75,,,,,,,,,,,,,,,,,,,,,,,,,,,,,,,,,,,,,,,,,,,,,
,,,,,V3_036,18,Female,2024-10-25_17h06.59.631,jersey_experiment_5_v3,2023.2.2,Win32,85.47008547,,,,,,,,,,,,,,,,68.2539,69.5474,69.5475,74.3477,return,2.0628,,74.34895833,0,1,1,37,1,FBP-OG-18.png,0.4,1.2,38,0.5,,,,,,,,,,,,,,,,,,,,,,,,,,,,,,,,,,,,,,,,,,,,,
,,,,,V3_036,18,Female,2024-10-25_17h06.59.631,jersey_experiment_5_v3,2023.2.2,Win32,85.47008547,,,,,,,,,,,,,,,,74.3481,75.9007,75.9008,81.3244,return,1.4854,,49.73958333,0,2,2,5,1,FBP-YG-81.png,0.35,1.2,6,0.75,,,,,,,,,,,,,,,,,,,,,,,,,,,,,,,,,,,,,,,,,,,,,
,,,,,V3_036,18,Female,2024-10-25_17h06.59.631,jersey_experiment_5_v3,2023.2.2,Win32,85.47008547,,,,,,,,,,,,,,,,81.3248,82.8777,82.8777,89.1837,return,3.0269,,74.21875,0,3,3,2,1,FBP-YG-71.png,0.4,1.2,3,0.75,,,,,,,,,,,,,,,,,,,,,,,,,,,,,,,,,,,,,,,,,,,,,
,,,,,V3_036,18,Female,2024-10-25_17h06.59.631,jersey_experiment_5_v3,2023.2.2,Win32,85.47008547,,,,,,,,,,,,,,,,89.1839,90.4779,90.4779,93.1014,return,0.7212,,98.95833333,0,4,4,44,1,FBP-OG-19.png,0.45,1.2,45,0.5,,,,,,,,,,,,,,,,,,,,,,,,,,,,,,,,,,,,,,,,,,,,,
,,,,,V3_036,18,Female,2024-10-25_17h06.59.631,jersey_experiment_5_v3,2023.2.2,Win32,85.47008547,,,,,,,,,,,,,,,,93.1017,94.3957,94.3958,97.1133,return,1.6443,,74.73958333,0,5,5,35,1,FBP-OG-18.png,0.35,1.2,36,0.5,,,,,,,,,,,,,,,,,,,,,,,,,,,,,,,,,,,,,,,,,,,,,
,,,,,V3_036,18,Female,2024-10-25_17h06.59.631,jersey_experiment_5_v3,2023.2.2,Win32,85.47008547,,,,,,,,,,,,,,,,97.1134,98.6662,98.6663,102.0899,return,1.1703,,99.21875,0,6,6,3,1,FBP-YG-71.png,0.43,1.2,4,0.75,,,,,,,,,,,,,,,,,,,,,,,,,,,,,,,,,,,,,,,,,,,,,
,,,,,V3_036,18,Female,2024-10-25_17h06.59.631,jersey_experiment_5_v3,2023.2.2,Win32,85.47008547,,,,,,,,,,,,,,,,102.0903,103.643,103.6431,108.2077,return,3.0616,,50.65104167,0,7,7,0,1,FBP-YG-71.png,0.35,1.2,1,0.75,,,,,,,,,,,,,,,,,,,,,,,,,,,,,,,,,,,,,,,,,,,,,
,,,,,V3_036,18,Female,2024-10-25_17h06.59.631,jersey_experiment_5_v3,2023.2.2,Win32,85.47008547,,,,,,,,,,,,,,,,108.2078,109.7491,109.7492,114.7022,return,3.2617,,75.91145833,0,8,8,6,1,FBP-YG-81.png,0.37,1.2,7,0.75,,,,,,,,,,,,,,,,,,,,,,,,,,,,,,,,,,,,,,,,,,,,,
,,,,,V3_036,18,Female,2024-10-25_17h06.59.631,jersey_experiment_5_v3,2023.2.2,Win32,85.47008547,,,,,,,,,,,,,,,,114.7024,116.2552,116.2552,117.6434,return,0.4647,,99.73958333,0,9,9,53,1,FBP-RB-18.png,0.43,1.2,54,0.75,,,,,,,,,,,,,,,,,,,,,,,,,,,,,,,,,,,,,,,,,,,,,
,,,,,V3_036,18,Female,2024-10-25_17h06.59.631,jersey_experiment_5_v3,2023.2.2,Win32,85.47008547,,,,,,,,,,,,,,,,117.6437,119.1964,119.1965,122.1376,return,0.8792,,74.08854167,0,10,10,46,1,FBP-RB-17.png,0.37,1.2,47,0.75,,,,,,,,,,,,,,,,,,,,,,,,,,,,,,,,,,,,,,,,,,,,,
,,,,,V3_036,18,Female,2024-10-25_17h06.59.631,jersey_experiment_5_v3,2023.2.2,Win32,85.47008547,,,,,,,,,,,,,,,,122.1378,123.6907,123.6907,126.7379,return,1.2236,,100,0,11,11,12,1,FBP-YG-91.png,0.4,1.2,13,0.75,,,,,,,,,,,,,,,,,,,,,,,,,,,,,,,,,,,,,,,,,,,,,
,,,,,V3_036,18,Female,2024-10-25_17h06.59.631,jersey_experiment_5_v3,2023.2.2,Win32,85.47008547,,,,,,,,,,,,,,,,126.738,128.2909,128.2909,130.6557,return,0.552,,74.21875,0,12,12,11,1,FBP-YG-91.png,0.37,1.2,12,0.75,,,,,,,,,,,,,,,,,,,,,,,,,,,,,,,,,,,,,,,,,,,,,
,,,,,V3_036,18,Female,2024-10-25_17h06.59.631,jersey_experiment_5_v3,2023.2.2,Win32,85.47008547,,,,,,,,,,,,,,,,130.656,132.1972,132.1973,138.8209,return,4.2827,,38.80208333,0,13,13,50,1,FBP-RB-18.png,0.35,1.2,51,0.75,,,,,,,,,,,,,,,,,,,,,,,,,,,,,,,,,,,,,,,,,,,,,
,,,,,V3_036,18,Female,2024-10-25_17h06.59.631,jersey_experiment_5_v3,2023.2.2,Win32,85.47008547,,,,,,,,,,,,,,,,138.8213,140.1149,140.1149,142.2209,return,0.449,,98.69791667,0,14,14,34,1,FBP-OG-17.png,0.45,1.2,35,0.5,,,,,,,,,,,,,,,,,,,,,,,,,,,,,,,,,,,,,,,,,,,,,
,,,,,V3_036,18,Female,2024-10-25_17h06.59.631,jersey_experiment_5_v3,2023.2.2,Win32,85.47008547,,,,,,,,,,,,,,,,142.2212,143.5153,143.5154,145.8563,return,0.2696,,36.71875,0,15,15,41,1,FBP-OG-19.png,0.37,1.2,42,0.5,,,,,,,,,,,,,,,,,,,,,,,,,,,,,,,,,,,,,,,,,,,,,
,,,,,V3_036,18,Female,2024-10-25_17h06.59.631,jersey_experiment_5_v3,2023.2.2,Win32,85.47008547,,,,,,,,,,,,,,,,145.8565,147.1504,147.1504,149.0213,return,0.4723,,99.73958333,0,16,16,38,1,FBP-OG-18.png,0.43,1.2,39,0.5,,,,,,,,,,,,,,,,,,,,,,,,,,,,,,,,,,,,,,,,,,,,,
,,,,,V3_036,18,Female,2024-10-25_17h06.59.631,jersey_experiment_5_v3,2023.2.2,Win32,85.47008547,,,,,,,,,,,,,,,,149.0216,150.574,150.5741,161.3156,return,6.4005,,49.47916667,0,17,17,27,1,FBP-PT-19.png,0.4,1.2,28,0.75,,,,,,,,,,,,,,,,,,,,,,,,,,,,,,,,,,,,,,,,,,,,,
,,,,,V3_036,18,Female,2024-10-25_17h06.59.631,jersey_experiment_5_v3,2023.2.2,Win32,85.47008547,,,,,,,,,,,,,,,,161.316,162.8687,162.8688,164.8688,return,0.1883,,99.34895833,0,18,18,48,1,FBP-RB-17.png,0.43,1.2,49,0.75,,,,,,,,,,,,,,,,,,,,,,,,,,,,,,,,,,,,,,,,,,,,,
,,,,,V3_036,18,Female,2024-10-25_17h06.59.631,jersey_experiment_5_v3,2023.2.2,Win32,85.47008547,,,,,,,,,,,,,,,,164.869,166.4217,166.4217,169.5043,return,0.2846,,74.21875,0,19,19,51,1,FBP-RB-18.png,0.37,1.2,52,0.75,,,,,,,,,,,,,,,,,,,,,,,,,,,,,,,,,,,,,,,,,,,,,
,,,,,V3_036,18,Female,2024-10-25_17h06.59.631,jersey_experiment_5_v3,2023.2.2,Win32,85.47008547,,,,,,,,,,,,,,,,169.5045,170.7983,170.7983,174.5398,return,0.4067,,75.78125,0,20,20,30,1,FBP-OG-17.png,0.35,1.2,31,0.5,,,,,,,,,,,,,,,,,,,,,,,,,,,,,,,,,,,,,,,,,,,,,
,,,,,V3_036,18,Female,2024-10-25_17h06.59.631,jersey_experiment_5_v3,2023.2.2,Win32,85.47008547,,,,,,,,,,,,,,,,174.54,175.8338,175.8338,179.1398,return,0.157,,49.609375,0,21,21,40,1,FBP-OG-19.png,0.35,1.2,41,0.5,,,,,,,,,,,,,,,,,,,,,,,,,,,,,,,,,,,,,,,,,,,,,
,,,,,V3_036,18,Female,2024-10-25_17h06.59.631,jersey_experiment_5_v3,2023.2.2,Win32,85.47008547,,,,,,,,,,,,,,,,179.1401,180.4341,180.4341,182.1399,return,0.3913,,49.73958333,0,22,22,36,1,FBP-OG-18.png,0.37,1.2,37,0.5,,,,,,,,,,,,,,,,,,,,,,,,,,,,,,,,,,,,,,,,,,,,,
,,,,,V3_036,18,Female,2024-10-25_17h06.59.631,jersey_experiment_5_v3,2023.2.2,Win32,85.47008547,,,,,,,,,,,,,,,,182.1401,183.6928,183.6929,185.8224,return,0.1894,,74.86979167,0,23,23,26,1,FBP-PT-19.png,0.37,1.2,27,0.75,,,,,,,,,,,,,,,,,,,,,,,,,,,,,,,,,,,,,,,,,,,,,
,,,,,V3_036,18,Female,2024-10-25_17h06.59.631,jersey_experiment_5_v3,2023.2.2,Win32,85.47008547,,,,,,,,,,,,,,,,185.8226,187.3638,187.3638,190.6108,return,0.1973,,86.328125,0,24,24,18,1,FBP-PT-17.png,0.43,1.2,19,0.75,,,,,,,,,,,,,,,,,,,,,,,,,,,,,,,,,,,,,,,,,,,,,
,,,,,V3_036,18,Female,2024-10-25_17h06.59.631,jersey_experiment_5_v3,2023.2.2,Win32,85.47008547,,,,,,,,,,,,,,,,190.6112,191.905,191.9051,193.7404,return,0.1943,,99.47916667,0,25,25,42,1,FBP-OG-19.png,0.4,1.2,43,0.5,,,,,,,,,,,,,,,,,,,,,,,,,,,,,,,,,,,,,,,,,,,,,
,,,,,V3_036,18,Female,2024-10-25_17h06.59.631,jersey_experiment_5_v3,2023.2.2,Win32,85.47008547,,,,,,,,,,,,,,,,193.7406,195.2933,195.2934,199.0347,return,1.7494,,32.94270833,0,26,26,25,1,FBP-PT-19.png,0.35,1.2,26,0.75,,,,,,,,,,,,,,,,,,,,,,,,,,,,,,,,,,,,,,,,,,,,,
,,,,,V3_036,18,Female,2024-10-25_17h06.59.631,jersey_experiment_5_v3,2023.2.2,Win32,85.47008547,,,,,,,,,,,,,,,,199.035,200.3289,200.3289,202.7525,return,0.2139,,98.95833333,0,27,27,33,1,FBP-OG-17.png,0.43,1.2,34,0.5,,,,,,,,,,,,,,,,,,,,,,,,,,,,,,,,,,,,,,,,,,,,,
,,,,,V3_036,18,Female,2024-10-25_17h06.59.631,jersey_experiment_5_v3,2023.2.2,Win32,85.47008547,,,,,,,,,,,,,,,,202.7527,204.3053,204.3054,206.035,return,0.7455,,100,0,28,28,13,1,FBP-YG-91.png,0.43,1.2,14,0.75,,,,,,,,,,,,,,,,,,,,,,,,,,,,,,,,,,,,,,,,,,,,,
,,,,,V3_036,18,Female,2024-10-25_17h06.59.631,jersey_experiment_5_v3,2023.2.2,Win32,85.47008547,,,,,,,,,,,,,,,,206.0353,207.5881,207.5882,208.7646,return,0.2391,,99.609375,0,29,29,24,1,FBP-PT-18.png,0.45,1.2,25,0.75,,,,,,,,,,,,,,,,,,,,,,,,,,,,,,,,,,,,,,,,,,,,,
,,,,,V3_036,18,Female,2024-10-25_17h06.59.631,jersey_experiment_5_v3,2023.2.2,Win32,85.47008547,,,,,,,,,,,,,,,,208.7648,210.3174,210.3175,213.5881,return,0.6018,,99.21875,0,30,30,19,1,FBP-PT-17.png,0.45,1.2,20,0.75,,,,,,,,,,,,,,,,,,,,,,,,,,,,,,,,,,,,,,,,,,,,,
,,,,,V3_036,18,Female,2024-10-25_17h06.59.631,jersey_experiment_5_v3,2023.2.2,Win32,85.47008547,,,,,,,,,,,,,,,,213.5884,214.8823,214.8823,217.4825,return,0.267,,60.546875,0,31,31,32,1,FBP-OG-17.png,0.4,1.2,33,0.5,,,,,,,,,,,,,,,,,,,,,,,,,,,,,,,,,,,,,,,,,,,,,
,,,,,V3_036,18,Female,2024-10-25_17h06.59.631,jersey_experiment_5_v3,2023.2.2,Win32,85.47008547,,,,,,,,,,,,,,,,217.4828,219.0356,219.0357,220.6589,return,0.1884,,100,0,32,32,8,1,FBP-YG-81.png,0.43,1.2,9,0.75,,,,,,,,,,,,,,,,,,,,,,,,,,,,,,,,,,,,,,,,,,,,,
,,,,,V3_036,18,Female,2024-10-25_17h06.59.631,jersey_experiment_5_v3,2023.2.2,Win32,85.47008547,,,,,,,,,,,,,,,,220.6592,222.212,222.2121,224.3177,return,1.2252,,98.828125,0,33,33,47,1,FBP-RB-17.png,0.4,1.2,48,0.75,,,,,,,,,,,,,,,,,,,,,,,,,,,,,,,,,,,,,,,,,,,,,
,,,,,V3_036,18,Female,2024-10-25_17h06.59.631,jersey_experiment_5_v3,2023.2.2,Win32,85.47008547,,,,,,,,,,,,,,,,224.318,225.6121,225.6121,230.4358,return,0.2732,,21.09375,0,34,34,31,1,FBP-OG-17.png,0.37,1.2,32,0.5,,,,,,,,,,,,,,,,,,,,,,,,,,,,,,,,,,,,,,,,,,,,,
,,,,,V3_036,18,Female,2024-10-25_17h06.59.631,jersey_experiment_5_v3,2023.2.2,Win32,85.47008547,,,,,,,,,,,,,,,,230.436,231.9772,231.9773,235.0125,return,0.7064,,88.41145833,0,35,35,57,1,FBP-RB-19.png,0.4,1.2,58,0.75,,,,,,,,,,,,,,,,,,,,,,,,,,,,,,,,,,,,,,,,,,,,,
,,,,,V3_036,18,Female,2024-10-25_17h06.59.631,jersey_experiment_5_v3,2023.2.2,Win32,85.47008547,,,,,,,,,,,,,,,,235.0127,236.5654,236.5655,239.2832,return,0.6333,,49.34895833,0,36,36,21,1,FBP-PT-18.png,0.37,1.2,22,0.75,,,,,,,,,,,,,,,,,,,,,,,,,,,,,,,,,,,,,,,,,,,,,
,,,,,V3_036,18,Female,2024-10-25_17h06.59.631,jersey_experiment_5_v3,2023.2.2,Win32,85.47008547,,,,,,,,,,,,,,,,239.2835,240.8364,240.8364,243.4126,return,1.1842,,88.80208333,0,37,37,58,1,FBP-RB-19.png,0.43,1.2,59,0.75,,,,,,,,,,,,,,,,,,,,,,,,,,,,,,,,,,,,,,,,,,,,,
,,,,,V3_036,18,Female,2024-10-25_17h06.59.631,jersey_experiment_5_v3,2023.2.2,Win32,85.47008547,,,,,,,,,,,,,,,,243.4129,244.9543,244.9543,245.907,return,0.2696,,99.47916667,0,38,38,4,1,FBP-YG-71.png,0.45,1.2,5,0.75,,,,,,,,,,,,,,,,,,,,,,,,,,,,,,,,,,,,,,,,,,,,,
,,,,,V3_036,18,Female,2024-10-25_17h06.59.631,jersey_experiment_5_v3,2023.2.2,Win32,85.47008547,,,,,,,,,,,,,,,,245.9073,247.4599,247.4599,249.0835,return,0.2186,,75,0,39,39,17,1,FBP-PT-17.png,0.4,1.2,18,0.75,,,,,,,,,,,,,,,,,,,,,,,,,,,,,,,,,,,,,,,,,,,,,
,,,,,V3_036,18,Female,2024-10-25_17h06.59.631,jersey_experiment_5_v3,2023.2.2,Win32,85.47008547,,,,,,,,,,,,,,,,249.0837,250.6364,250.6365,256.8367,return,4.9338,,93.09895833,0,40,40,7,1,FBP-YG-81.png,0.4,1.2,8,0.75,,,,,,,,,,,,,,,,,,,,,,,,,,,,,,,,,,,,,,,,,,,,,
,,,,,V3_036,18,Female,2024-10-25_17h06.59.631,jersey_experiment_5_v3,2023.2.2,Win32,85.47008547,,,,,,,,,,,,,,,,256.837,258.3897,258.3898,259.6135,return,0.2292,,89.19270833,0,41,41,52,1,FBP-RB-18.png,0.4,1.2,53,0.75,,,,,,,,,,,,,,,,,,,,,,,,,,,,,,,,,,,,,,,,,,,,,
,,,,,V3_036,18,Female,2024-10-25_17h06.59.631,jersey_experiment_5_v3,2023.2.2,Win32,85.47008547,,,,,,,,,,,,,,,,259.6138,261.1663,261.1664,262.4016,return,0.3155,,87.109375,0,42,42,28,1,FBP-PT-19.png,0.43,1.2,29,0.75,,,,,,,,,,,,,,,,,,,,,,,,,,,,,,,,,,,,,,,,,,,,,
,,,,,V3_036,18,Female,2024-10-25_17h06.59.631,jersey_experiment_5_v3,2023.2.2,Win32,85.47008547,,,,,,,,,,,,,,,,262.4019,263.6958,263.696,265.5666,return,0.4978,,75.52083333,0,43,43,43,1,FBP-OG-19.png,0.43,1.2,44,0.5,,,,,,,,,,,,,,,,,,,,,,,,,,,,,,,,,,,,,,,,,,,,,
,,,,,V3_036,18,Female,2024-10-25_17h06.59.631,jersey_experiment_5_v3,2023.2.2,Win32,85.47008547,,,,,,,,,,,,,,,,265.5668,267.1195,267.1196,268.3784,return,0.1728,,99.34895833,0,44,44,9,1,FBP-YG-81.png,0.45,1.2,10,0.75,,,,,,,,,,,,,,,,,,,,,,,,,,,,,,,,,,,,,,,,,,,,,
,,,,,V3_036,18,Female,2024-10-25_17h06.59.631,jersey_experiment_5_v3,2023.2.2,Win32,85.47008547,,,,,,,,,,,,,,,,268.3787,269.9313,269.9313,278.5317,return,6.6601,,9.765625,0,45,45,10,1,FBP-YG-91.png,0.35,1.2,11,0.75,,,,,,,,,,,,,,,,,,,,,,,,,,,,,,,,,,,,,,,,,,,,,
,,,,,V3_036,18,Female,2024-10-25_17h06.59.631,jersey_experiment_5_v3,2023.2.2,Win32,85.47008547,,,,,,,,,,,,,,,,278.5321,279.8258,279.8258,289.3555,return,1.0074,,50.78125,0,46,46,39,1,FBP-OG-18.png,0.45,1.2,40,0.5,,,,,,,,,,,,,,,,,,,,,,,,,,,,,,,,,,,,,,,,,,,,,
,,,,,V3_036,18,Female,2024-10-25_17h06.59.631,jersey_experiment_5_v3,2023.2.2,Win32,85.47008547,,,,,,,,,,,,,,,,289.3558,290.9086,290.9086,294.6734,return,2.5312,,87.36979167,0,47,47,29,1,FBP-PT-19.png,0.45,1.2,30,0.75,,,,,,,,,,,,,,,,,,,,,,,,,,,,,,,,,,,,,,,,,,,,,
,,,,,V3_036,18,Female,2024-10-25_17h06.59.631,jersey_experiment_5_v3,2023.2.2,Win32,85.47008547,,,,,,,,,,,,,,,,294.6736,296.2148,296.2148,298.097,return,0.8557,,50.52083333,0,48,48,16,1,FBP-PT-17.png,0.37,1.2,17,0.75,,,,,,,,,,,,,,,,,,,,,,,,,,,,,,,,,,,,,,,,,,,,,
,,,,,V3_036,18,Female,2024-10-25_17h06.59.631,jersey_experiment_5_v3,2023.2.2,Win32,85.47008547,,,,,,,,,,,,,,,,298.0973,299.6502,299.6503,301.7796,return,0.672,,100,0,49,49,14,1,FBP-YG-91.png,0.45,1.2,15,0.75,,,,,,,,,,,,,,,,,,,,,,,,,,,,,,,,,,,,,,,,,,,,,
,,,,,V3_036,18,Female,2024-10-25_17h06.59.631,jersey_experiment_5_v3,2023.2.2,Win32,85.47008547,,,,,,,,,,,,,,,,301.7799,303.3327,303.3327,304.9326,return,0.4843,,99.34895833,0,50,50,49,1,FBP-RB-17.png,0.45,1.2,50,0.75,,,,,,,,,,,,,,,,,,,,,,,,,,,,,,,,,,,,,,,,,,,,,
,,,,,V3_036,18,Female,2024-10-25_17h06.59.631,jersey_experiment_5_v3,2023.2.2,Win32,85.47008547,,,,,,,,,,,,,,,,304.9329,306.4857,306.4857,307.827,return,0.1886,,73.828125,0,51,51,55,1,FBP-RB-19.png,0.35,1.2,56,0.75,,,,,,,,,,,,,,,,,,,,,,,,,,,,,,,,,,,,,,,,,,,,,
,,,,,V3_036,18,Female,2024-10-25_17h06.59.631,jersey_experiment_5_v3,2023.2.2,Win32,85.47008547,,,,,,,,,,,,,,,,307.8272,309.38,309.38,310.6389,return,0.1762,,99.609375,0,52,52,59,1,FBP-RB-19.png,0.45,1.2,60,0.75,,,,,,,,,,,,,,,,,,,,,,,,,,,,,,,,,,,,,,,,,,,,,
,,,,,V3_036,18,Female,2024-10-25_17h06.59.631,jersey_experiment_5_v3,2023.2.2,Win32,85.47008547,,,,,,,,,,,,,,,,310.6392,312.1917,312.1917,315.0507,return,1.6197,,49.73958333,0,53,53,15,1,FBP-PT-17.png,0.35,1.2,16,0.75,,,,,,,,,,,,,,,,,,,,,,,,,,,,,,,,,,,,,,,,,,,,,
,,,,,V3_036,18,Female,2024-10-25_17h06.59.631,jersey_experiment_5_v3,2023.2.2,Win32,85.47008547,,,,,,,,,,,,,,,,315.051,316.6038,316.6038,317.9684,return,0.2127,,74.609375,0,54,54,22,1,FBP-PT-18.png,0.4,1.2,23,0.75,,,,,,,,,,,,,,,,,,,,,,,,,,,,,,,,,,,,,,,,,,,,,
,,,,,V3_036,18,Female,2024-10-25_17h06.59.631,jersey_experiment_5_v3,2023.2.2,Win32,85.47008547,,,,,,,,,,,,,,,,317.9686,319.5213,319.5213,320.6391,return,0.1782,,51.30208333,0,55,55,1,1,FBP-YG-71.png,0.37,1.2,2,0.75,,,,,,,,,,,,,,,,,,,,,,,,,,,,,,,,,,,,,,,,,,,,,
,,,,,V3_036,18,Female,2024-10-25_17h06.59.631,jersey_experiment_5_v3,2023.2.2,Win32,85.47008547,,,,,,,,,,,,,,,,320.6393,322.1922,322.1922,323.2746,return,0.1727,,49.609375,0,56,56,20,1,FBP-PT-18.png,0.35,1.2,21,0.75,,,,,,,,,,,,,,,,,,,,,,,,,,,,,,,,,,,,,,,,,,,,,
,,,,,V3_036,18,Female,2024-10-25_17h06.59.631,jersey_experiment_5_v3,2023.2.2,Win32,85.47008547,,,,,,,,,,,,,,,,323.2749,324.8275,324.8275,325.9687,return,0.0607,,49.609375,0,57,57,45,1,FBP-RB-17.png,0.35,1.2,46,0.75,,,,,,,,,,,,,,,,,,,,,,,,,,,,,,,,,,,,,,,,,,,,,
,,,,,V3_036,18,Female,2024-10-25_17h06.59.631,jersey_experiment_5_v3,2023.2.2,Win32,85.47008547,,,,,,,,,,,,,,,,325.969,327.5217,327.5218,328.8159,return,0.1797,,60.67708333,0,58,58,56,1,FBP-RB-19.png,0.37,1.2,57,0.75,,,,,,,,,,,,,,,,,,,,,,,,,,,,,,,,,,,,,,,,,,,,,
,,,,,V3_036,18,Female,2024-10-25_17h06.59.631,jersey_experiment_5_v3,2023.2.2,Win32,85.47008547,,,,,,,,,,,,,,,,328.8161,330.3691,330.3691,331.8041,return,0.1595,,85.67708333,0,59,59,23,1,FBP-PT-18.png,0.43,1.2,24,0.75,,,,,,,,,,,,,,,,,,,,,,,,,,,,,,,,,,,,,,,,,,,,,
,,,,,V3_036,18,Female,2024-10-25_17h06.59.631,jersey_experiment_5_v3,2023.2.2,Win32,85.47008547,,,,,,,,,,,,,,,,331.8061,333.0983,333.0983,335.428,return,0.1569,,93.48958333,,,,,,FBP-OG-91.png,0.45,1.2,45,0.5,0,0,0,44,1,,,,,,,,,,,,,,,,,,,,,,,,,,,,,,,,,,,,,,,,
,,,,,V3_036,18,Female,2024-10-25_17h06.59.631,jersey_experiment_5_v3,2023.2.2,Win32,85.47008547,,,,,,,,,,,,,,,,335.4283,336.981,336.981,339.0986,return,1.3138,,100,,,,,,FBP-RB-81.png,0.45,1.2,55,0.75,0,1,1,54,1,,,,,,,,,,,,,,,,,,,,,,,,,,,,,,,,,,,,,,,,
,,,,,V3_036,18,Female,2024-10-25_17h06.59.631,jersey_experiment_5_v3,2023.2.2,Win32,85.47008547,,,,,,,,,,,,,,,,339.099,340.6514,340.6515,341.9221,return,0.1334,,99.609375,,,,,,FBP-RB-71.png,0.45,1.2,50,0.75,0,2,2,49,1,,,,,,,,,,,,,,,,,,,,,,,,,,,,,,,,,,,,,,,,
,,,,,V3_036,18,Female,2024-10-25_17h06.59.631,jersey_experiment_5_v3,2023.2.2,Win32,85.47008547,,,,,,,,,,,,,,,,341.9223,343.2163,343.2163,345.4402,return,0.1907,,99.73958333,,,,,,FBP-OG-81.png,0.43,1.2,39,0.5,0,3,3,38,1,,,,,,,,,,,,,,,,,,,,,,,,,,,,,,,,,,,,,,,,
,,,,,V3_036,18,Female,2024-10-25_17h06.59.631,jersey_experiment_5_v3,2023.2.2,Win32,85.47008547,,,,,,,,,,,,,,,,345.4406,346.993,346.9931,348.4636,return,0.1324,,99.86979167,,,,,,FBP-YG-19.png,0.45,1.2,15,0.75,0,4,4,14,1,,,,,,,,,,,,,,,,,,,,,,,,,,,,,,,,,,,,,,,,
,,,,,V3_036,18,Female,2024-10-25_17h06.59.631,jersey_experiment_5_v3,2023.2.2,Win32,85.47008547,,,,,,,,,,,,,,,,348.464,350.0167,350.0168,353.0403,return,2.2932,,74.609375,,,,,,FBP-YG-17.png,0.4,1.2,3,0.75,0,5,5,2,1,,,,,,,,,,,,,,,,,,,,,,,,,,,,,,,,,,,,,,,,
,,,,,V3_036,18,Female,2024-10-25_17h06.59.631,jersey_experiment_5_v3,2023.2.2,Win32,85.47008547,,,,,,,,,,,,,,,,353.0407,354.3346,354.3346,358.8995,return,1.5768,,36.19791667,,,,,,FBP-OG-91.png,0.35,1.2,41,0.5,0,6,6,40,1,,,,,,,,,,,,,,,,,,,,,,,,,,,,,,,,,,,,,,,,
,,,,,V3_036,18,Female,2024-10-25_17h06.59.631,jersey_experiment_5_v3,2023.2.2,Win32,85.47008547,,,,,,,,,,,,,,,,358.8998,360.4526,360.4526,361.8877,return,0.5083,,73.828125,,,,,,FBP-RB-91.png,0.4,1.2,58,0.75,0,7,7,57,1,,,,,,,,,,,,,,,,,,,,,,,,,,,,,,,,,,,,,,,,
,,,,,V3_036,18,Female,2024-10-25_17h06.59.631,jersey_experiment_5_v3,2023.2.2,Win32,85.47008547,,,,,,,,,,,,,,,,361.888,363.441,363.4411,364.3701,return,0.0694,,74.47916667,,,,,,FBP-YG-17.png,0.37,1.2,2,0.75,0,8,8,1,1,,,,,,,,,,,,,,,,,,,,,,,,,,,,,,,,,,,,,,,,
,,,,,V3_036,18,Female,2024-10-25_17h06.59.631,jersey_experiment_5_v3,2023.2.2,Win32,85.47008547,,,,,,,,,,,,,,,,364.3704,365.9232,365.9233,367.1937,return,0.1701,,98.69791667,,,,,,FBP-RB-71.png,0.43,1.2,49,0.75,0,9,9,48,1,,,,,,,,,,,,,,,,,,,,,,,,,,,,,,,,,,,,,,,,
,,,,,V3_036,18,Female,2024-10-25_17h06.59.631,jersey_experiment_5_v3,2023.2.2,Win32,85.47008547,,,,,,,,,,,,,,,,367.194,368.7469,368.7469,369.4997,return,0.0978,,74.08854167,,,,,,FBP-PT-81.png,0.37,1.2,22,0.75,0,10,10,21,1,,,,,,,,,,,,,,,,,,,,,,,,,,,,,,,,,,,,,,,,
,,,,,V3_036,18,Female,2024-10-25_17h06.59.631,jersey_experiment_5_v3,2023.2.2,Win32,85.47008547,,,,,,,,,,,,,,,,369.5,370.7939,370.7939,373.841,return,0.1531,,92.70833333,,,,,,FBP-OG-91.png,0.43,1.2,44,0.5,0,11,11,43,1,,,,,,,,,,,,,,,,,,,,,,,,,,,,,,,,,,,,,,,,
,,,,,V3_036,18,Female,2024-10-25_17h06.59.631,jersey_experiment_5_v3,2023.2.2,Win32,85.47008547,,,,,,,,,,,,,,,,373.8413,375.1352,375.1353,376.8763,return,0.1793,,100,,,,,,FBP-OG-71.png,0.45,1.2,35,0.5,0,12,12,34,1,,,,,,,,,,,,,,,,,,,,,,,,,,,,,,,,,,,,,,,,
,,,,,V3_036,18,Female,2024-10-25_17h06.59.631,jersey_experiment_5_v3,2023.2.2,Win32,85.47008547,,,,,,,,,,,,,,,,376.8766,378.4295,378.4297,380.1119,return,0.5321,,61.71875,,,,,,FBP-PT-91.png,0.35,1.2,26,0.75,0,13,13,25,1,,,,,,,,,,,,,,,,,,,,,,,,,,,,,,,,,,,,,,,,
,,,,,V3_036,18,Female,2024-10-25_17h06.59.631,jersey_experiment_5_v3,2023.2.2,Win32,85.47008547,,,,,,,,,,,,,,,,380.1122,381.6649,381.6649,382.9003,return,0.1177,,74.21875,,,,,,FBP-RB-81.png,0.4,1.2,53,0.75,0,14,14,52,1,,,,,,,,,,,,,,,,,,,,,,,,,,,,,,,,,,,,,,,,
,,,,,V3_036,18,Female,2024-10-25_17h06.59.631,jersey_experiment_5_v3,2023.2.2,Win32,85.47008547,,,,,,,,,,,,,,,,382.9005,384.4531,384.4532,385.9356,return,0.7088,,86.19791667,,,,,,FBP-YG-18.png,0.43,1.2,9,0.75,0,15,15,8,1,,,,,,,,,,,,,,,,,,,,,,,,,,,,,,,,,,,,,,,,
,,,,,V3_036,18,Female,2024-10-25_17h06.59.631,jersey_experiment_5_v3,2023.2.2,Win32,85.47008547,,,,,,,,,,,,,,,,385.9358,387.4886,387.4887,388.912,return,0.1315,,74.609375,,,,,,FBP-RB-81.png,0.37,1.2,52,0.75,0,16,16,51,1,,,,,,,,,,,,,,,,,,,,,,,,,,,,,,,,,,,,,,,,
,,,,,V3_036,18,Female,2024-10-25_17h06.59.631,jersey_experiment_5_v3,2023.2.2,Win32,85.47008547,,,,,,,,,,,,,,,,388.9123,390.2063,390.2064,391.5712,return,0.1646,,75.13020833,,,,,,FBP-OG-91.png,0.4,1.2,43,0.5,0,17,17,42,1,,,,,,,,,,,,,,,,,,,,,,,,,,,,,,,,,,,,,,,,
,,,,,V3_036,18,Female,2024-10-25_17h06.59.631,jersey_experiment_5_v3,2023.2.2,Win32,85.47008547,,,,,,,,,,,,,,,,391.5715,393.1239,393.1239,397.1478,return,2.076,,49.86979167,,,,,,FBP-RB-81.png,0.35,1.2,51,0.75,0,18,18,50,1,,,,,,,,,,,,,,,,,,,,,,,,,,,,,,,,,,,,,,,,
,,,,,V3_036,18,Female,2024-10-25_17h06.59.631,jersey_experiment_5_v3,2023.2.2,Win32,85.47008547,,,,,,,,,,,,,,,,397.148,398.7009,398.7009,399.8656,return,0.1503,,99.47916667,,,,,,FBP-PT-81.png,0.45,1.2,25,0.75,0,19,19,24,1,,,,,,,,,,,,,,,,,,,,,,,,,,,,,,,,,,,,,,,,
,,,,,V3_036,18,Female,2024-10-25_17h06.59.631,jersey_experiment_5_v3,2023.2.2,Win32,85.47008547,,,,,,,,,,,,,,,,399.8658,401.1598,401.1598,402.5126,return,0.1885,,99.73958333,,,,,,FBP-OG-71.png,0.4,1.2,33,0.5,0,20,20,32,1,,,,,,,,,,,,,,,,,,,,,,,,,,,,,,,,,,,,,,,,
,,,,,V3_036,18,Female,2024-10-25_17h06.59.631,jersey_experiment_5_v3,2023.2.2,Win32,85.47008547,,,,,,,,,,,,,,,,402.5127,404.0541,404.0541,405.2423,return,0.1468,,74.21875,,,,,,FBP-RB-91.png,0.43,1.2,59,0.75,0,21,21,58,1,,,,,,,,,,,,,,,,,,,,,,,,,,,,,,,,,,,,,,,,
,,,,,V3_036,18,Female,2024-10-25_17h06.59.631,jersey_experiment_5_v3,2023.2.2,Win32,85.47008547,,,,,,,,,,,,,,,,405.2426,406.7953,406.7954,408.4187,return,0.0708,,83.984375,,,,,,FBP-YG-17.png,0.43,1.2,4,0.75,0,22,22,3,1,,,,,,,,,,,,,,,,,,,,,,,,,,,,,,,,,,,,,,,,
,,,,,V3_036,18,Female,2024-10-25_17h06.59.631,jersey_experiment_5_v3,2023.2.2,Win32,85.47008547,,,,,,,,,,,,,,,,408.419,409.972,409.972,411.1835,return,0.1676,,99.47916667,,,,,,FBP-RB-91.png,0.45,1.2,60,0.75,0,23,23,59,1,,,,,,,,,,,,,,,,,,,,,,,,,,,,,,,,,,,,,,,,
,,,,,V3_036,18,Female,2024-10-25_17h06.59.631,jersey_experiment_5_v3,2023.2.2,Win32,85.47008547,,,,,,,,,,,,,,,,411.1837,412.7365,412.7365,413.7248,return,0.1704,,99.73958333,,,,,,FBP-YG-17.png,0.45,1.2,5,0.75,0,24,24,4,1,,,,,,,,,,,,,,,,,,,,,,,,,,,,,,,,,,,,,,,,
,,,,,V3_036,18,Female,2024-10-25_17h06.59.631,jersey_experiment_5_v3,2023.2.2,Win32,85.47008547,,,,,,,,,,,,,,,,413.725,415.2777,415.2778,418.0898,return,0.9619,,74.34895833,,,,,,FBP-PT-71.png,0.43,1.2,19,0.75,0,25,25,18,1,,,,,,,,,,,,,,,,,,,,,,,,,,,,,,,,,,,,,,,,
,,,,,V3_036,18,Female,2024-10-25_17h06.59.631,jersey_experiment_5_v3,2023.2.2,Win32,85.47008547,,,,,,,,,,,,,,,,418.0902,419.6429,419.6429,421.8898,return,0.0947,,75,,,,,,FBP-RB-81.png,0.43,1.2,54,0.75,0,26,26,53,1,,,,,,,,,,,,,,,,,,,,,,,,,,,,,,,,,,,,,,,,
,,,,,V3_036,18,Female,2024-10-25_17h06.59.631,jersey_experiment_5_v3,2023.2.2,Win32,85.47008547,,,,,,,,,,,,,,,,421.89,423.4311,423.4313,425.3136,return,0.2114,,50,,,,,,FBP-YG-19.png,0.37,1.2,12,0.75,0,27,27,11,1,,,,,,,,,,,,,,,,,,,,,,,,,,,,,,,,,,,,,,,,
,,,,,V3_036,18,Female,2024-10-25_17h06.59.631,jersey_experiment_5_v3,2023.2.2,Win32,85.47008547,,,,,,,,,,,,,,,,425.3138,426.6078,426.6079,427.3489,return,0.1177,,50.65104167,,,,,,FBP-OG-91.png,0.37,1.2,42,0.5,0,28,28,41,1,,,,,,,,,,,,,,,,,,,,,,,,,,,,,,,,,,,,,,,,
,,,,,V3_036,18,Female,2024-10-25_17h06.59.631,jersey_experiment_5_v3,2023.2.2,Win32,85.47008547,,,,,,,,,,,,,,,,427.349,428.9019,428.902,429.8432,return,0.3849,,49.47916667,,,,,,FBP-PT-91.png,0.4,1.2,28,0.75,0,29,29,27,1,,,,,,,,,,,,,,,,,,,,,,,,,,,,,,,,,,,,,,,,
,,,,,V3_036,18,Female,2024-10-25_17h06.59.631,jersey_experiment_5_v3,2023.2.2,Win32,85.47008547,,,,,,,,,,,,,,,,429.8434,431.1372,431.1373,434.3373,return,2.1284,,36.19791667,,,,,,FBP-OG-81.png,0.35,1.2,36,0.5,0,30,30,35,1,,,,,,,,,,,,,,,,,,,,,,,,,,,,,,,,,,,,,,,,
,,,,,V3_036,18,Female,2024-10-25_17h06.59.631,jersey_experiment_5_v3,2023.2.2,Win32,85.47008547,,,,,,,,,,,,,,,,434.3377,435.8905,435.8905,437.2787,return,0.2028,,99.08854167,,,,,,FBP-PT-71.png,0.45,1.2,20,0.75,0,31,31,19,1,,,,,,,,,,,,,,,,,,,,,,,,,,,,,,,,,,,,,,,,
,,,,,V3_036,18,Female,2024-10-25_17h06.59.631,jersey_experiment_5_v3,2023.2.2,Win32,85.47008547,,,,,,,,,,,,,,,,437.2789,438.5727,438.5728,440.161,return,0.2593,,98.30729167,,,,,,FBP-OG-81.png,0.45,1.2,40,0.5,0,32,32,39,1,,,,,,,,,,,,,,,,,,,,,,,,,,,,,,,,,,,,,,,,
,,,,,V3_036,18,Female,2024-10-25_17h06.59.631,jersey_experiment_5_v3,2023.2.2,Win32,85.47008547,,,,,,,,,,,,,,,,440.1613,441.7142,441.7142,442.9965,return,0.0941,,99.34895833,,,,,,FBP-PT-91.png,0.43,1.2,29,0.75,0,33,33,28,1,,,,,,,,,,,,,,,,,,,,,,,,,,,,,,,,,,,,,,,,
,,,,,V3_036,18,Female,2024-10-25_17h06.59.631,jersey_experiment_5_v3,2023.2.2,Win32,85.47008547,,,,,,,,,,,,,,,,442.9967,444.5495,444.5495,446.6555,return,0.085,,74.47916667,,,,,,FBP-YG-18.png,0.37,1.2,7,0.75,0,34,34,6,1,,,,,,,,,,,,,,,,,,,,,,,,,,,,,,,,,,,,,,,,
,,,,,V3_036,18,Female,2024-10-25_17h06.59.631,jersey_experiment_5_v3,2023.2.2,Win32,85.47008547,,,,,,,,,,,,,,,,446.6557,448.1968,448.1968,450.1261,return,0.1222,,58.203125,,,,,,FBP-YG-18.png,0.35,1.2,6,0.75,0,35,35,5,1,,,,,,,,,,,,,,,,,,,,,,,,,,,,,,,,,,,,,,,,
,,,,,V3_036,18,Female,2024-10-25_17h06.59.631,jersey_experiment_5_v3,2023.2.2,Win32,85.47008547,,,,,,,,,,,,,,,,450.1263,451.6793,451.6794,453.4205,return,0.1237,,93.09895833,,,,,,FBP-YG-18.png,0.45,1.2,10,0.75,0,36,36,9,1,,,,,,,,,,,,,,,,,,,,,,,,,,,,,,,,,,,,,,,,
,,,,,V3_036,18,Female,2024-10-25_17h06.59.631,jersey_experiment_5_v3,2023.2.2,Win32,85.47008547,,,,,,,,,,,,,,,,453.4208,454.9735,454.9736,456.9265,return,0.1303,,61.58854167,,,,,,FBP-PT-71.png,0.37,1.2,17,0.75,0,37,37,16,1,,,,,,,,,,,,,,,,,,,,,,,,,,,,,,,,,,,,,,,,
,,,,,V3_036,18,Female,2024-10-25_17h06.59.631,jersey_experiment_5_v3,2023.2.2,Win32,85.47008547,,,,,,,,,,,,,,,,456.9267,458.2206,458.2207,460.3972,return,1.0524,,71.875,,,,,,FBP-OG-81.png,0.4,1.2,38,0.5,0,38,38,37,1,,,,,,,,,,,,,,,,,,,,,,,,,,,,,,,,,,,,,,,,
,,,,,V3_036,18,Female,2024-10-25_17h06.59.631,jersey_experiment_5_v3,2023.2.2,Win32,85.47008547,,,,,,,,,,,,,,,,460.3974,461.6912,461.6913,464.5855,return,0.5149,,85.80729167,,,,,,FBP-OG-71.png,0.43,1.2,34,0.5,0,39,39,33,1,,,,,,,,,,,,,,,,,,,,,,,,,,,,,,,,,,,,,,,,
,,,,,V3_036,18,Female,2024-10-25_17h06.59.631,jersey_experiment_5_v3,2023.2.2,Win32,85.47008547,,,,,,,,,,,,,,,,464.5858,466.1387,466.1388,467.3622,return,0.0371,,88.28125,,,,,,FBP-YG-19.png,0.43,1.2,14,0.75,0,40,40,13,1,,,,,,,,,,,,,,,,,,,,,,,,,,,,,,,,,,,,,,,,
,,,,,V3_036,18,Female,2024-10-25_17h06.59.631,jersey_experiment_5_v3,2023.2.2,Win32,85.47008547,,,,,,,,,,,,,,,,467.3625,468.6563,468.6563,469.6682,return,0.1193,,75.65104167,,,,,,FBP-OG-81.png,0.37,1.2,37,0.5,0,41,41,36,1,,,,,,,,,,,,,,,,,,,,,,,,,,,,,,,,,,,,,,,,
,,,,,V3_036,18,Female,2024-10-25_17h06.59.631,jersey_experiment_5_v3,2023.2.2,Win32,85.47008547,,,,,,,,,,,,,,,,469.6684,471.221,471.221,473.774,return,0.0749,,53.125,,,,,,FBP-RB-71.png,0.35,1.2,46,0.75,0,42,42,45,1,,,,,,,,,,,,,,,,,,,,,,,,,,,,,,,,,,,,,,,,
,,,,,V3_036,18,Female,2024-10-25_17h06.59.631,jersey_experiment_5_v3,2023.2.2,Win32,85.47008547,,,,,,,,,,,,,,,,473.7743,475.3272,475.3272,476.539,return,0.0896,,99.73958333,,,,,,FBP-PT-91.png,0.45,1.2,30,0.75,0,43,43,29,1,,,,,,,,,,,,,,,,,,,,,,,,,,,,,,,,,,,,,,,,
,,,,,V3_036,18,Female,2024-10-25_17h06.59.631,jersey_experiment_5_v3,2023.2.2,Win32,85.47008547,,,,,,,,,,,,,,,,476.5393,478.0922,478.0922,479.1155,return,0.0627,,84.89583333,,,,,,FBP-PT-71.png,0.4,1.2,18,0.75,0,44,44,17,1,,,,,,,,,,,,,,,,,,,,,,,,,,,,,,,,,,,,,,,,
,,,,,V3_036,18,Female,2024-10-25_17h06.59.631,jersey_experiment_5_v3,2023.2.2,Win32,85.47008547,,,,,,,,,,,,,,,,479.1158,480.6684,480.6685,481.4686,return,0.1237,,84.63541667,,,,,,FBP-YG-18.png,0.4,1.2,8,0.75,0,45,45,7,1,,,,,,,,,,,,,,,,,,,,,,,,,,,,,,,,,,,,,,,,
,,,,,V3_036,18,Female,2024-10-25_17h06.59.631,jersey_experiment_5_v3,2023.2.2,Win32,85.47008547,,,,,,,,,,,,,,,,481.469,483.0215,483.0216,485.0569,return,1.0259,,73.30729167,,,,,,FBP-RB-91.png,0.37,1.2,57,0.75,0,46,46,56,1,,,,,,,,,,,,,,,,,,,,,,,,,,,,,,,,,,,,,,,,
,,,,,V3_036,18,Female,2024-10-25_17h06.59.631,jersey_experiment_5_v3,2023.2.2,Win32,85.47008547,,,,,,,,,,,,,,,,485.0572,486.6099,486.61,487.4099,return,0.0841,,74.34895833,,,,,,FBP-RB-71.png,0.37,1.2,47,0.75,0,47,47,46,1,,,,,,,,,,,,,,,,,,,,,,,,,,,,,,,,,,,,,,,,
,,,,,V3_036,18,Female,2024-10-25_17h06.59.631,jersey_experiment_5_v3,2023.2.2,Win32,85.47008547,,,,,,,,,,,,,,,,487.4103,488.7039,488.704,490.6216,return,0.8284,,74.609375,,,,,,FBP-OG-71.png,0.37,1.2,32,0.5,0,48,48,31,1,,,,,,,,,,,,,,,,,,,,,,,,,,,,,,,,,,,,,,,,
,,,,,V3_036,18,Female,2024-10-25_17h06.59.631,jersey_experiment_5_v3,2023.2.2,Win32,85.47008547,,,,,,,,,,,,,,,,490.6219,492.1747,492.1748,494.222,return,0.0517,,36.328125,,,,,,FBP-YG-17.png,0.35,1.2,1,0.75,0,49,49,0,1,,,,,,,,,,,,,,,,,,,,,,,,,,,,,,,,,,,,,,,,
,,,,,V3_036,18,Female,2024-10-25_17h06.59.631,jersey_experiment_5_v3,2023.2.2,Win32,85.47008547,,,,,,,,,,,,,,,,494.2224,495.775,495.7751,497.9398,return,1.4222,,24.73958333,,,,,,FBP-PT-81.png,0.35,1.2,21,0.75,0,50,50,20,1,,,,,,,,,,,,,,,,,,,,,,,,,,,,,,,,,,,,,,,,
,,,,,V3_036,18,Female,2024-10-25_17h06.59.631,jersey_experiment_5_v3,2023.2.2,Win32,85.47008547,,,,,,,,,,,,,,,,497.9401,499.4929,499.493,502.0574,return,0.056,,83.07291667,,,,,,FBP-PT-81.png,0.43,1.2,24,0.75,0,51,51,23,1,,,,,,,,,,,,,,,,,,,,,,,,,,,,,,,,,,,,,,,,
,,,,,V3_036,18,Female,2024-10-25_17h06.59.631,jersey_experiment_5_v3,2023.2.2,Win32,85.47008547,,,,,,,,,,,,,,,,502.0576,503.6107,503.6107,504.3871,return,0.1651,,75.52083333,,,,,,FBP-RB-71.png,0.4,1.2,48,0.75,0,52,52,47,1,,,,,,,,,,,,,,,,,,,,,,,,,,,,,,,,,,,,,,,,
,,,,,V3_036,18,Female,2024-10-25_17h06.59.631,jersey_experiment_5_v3,2023.2.2,Win32,85.47008547,,,,,,,,,,,,,,,,504.3875,505.94,505.94,507.3283,return,0.0248,,49.08854167,,,,,,FBP-PT-71.png,0.35,1.2,16,0.75,0,53,53,15,1,,,,,,,,,,,,,,,,,,,,,,,,,,,,,,,,,,,,,,,,
,,,,,V3_036,18,Female,2024-10-25_17h06.59.631,jersey_experiment_5_v3,2023.2.2,Win32,85.47008547,,,,,,,,,,,,,,,,507.3286,508.8814,508.8814,509.9872,return,0.173,,51.30208333,,,,,,FBP-RB-91.png,0.35,1.2,56,0.75,0,54,54,55,1,,,,,,,,,,,,,,,,,,,,,,,,,,,,,,,,,,,,,,,,
,,,,,V3_036,18,Female,2024-10-25_17h06.59.631,jersey_experiment_5_v3,2023.2.2,Win32,85.47008547,,,,,,,,,,,,,,,,509.9876,511.5401,511.5402,512.4343,return,0.0323,,75.13020833,,,,,,FBP-PT-91.png,0.37,1.2,27,0.75,0,55,55,26,1,,,,,,,,,,,,,,,,,,,,,,,,,,,,,,,,,,,,,,,,
,,,,,V3_036,18,Female,2024-10-25_17h06.59.631,jersey_experiment_5_v3,2023.2.2,Win32,85.47008547,,,,,,,,,,,,,,,,512.4346,513.9873,513.9874,515.3756,return,0.1071,,74.73958333,,,,,,FBP-YG-19.png,0.4,1.2,13,0.75,0,56,56,12,1,,,,,,,,,,,,,,,,,,,,,,,,,,,,,,,,,,,,,,,,
,,,,,V3_036,18,Female,2024-10-25_17h06.59.631,jersey_experiment_5_v3,2023.2.2,Win32,85.47008547,,,,,,,,,,,,,,,,515.3758,516.9286,516.9287,517.7757,return,0.0495,,74.86979167,,,,,,FBP-YG-19.png,0.35,1.2,11,0.75,0,57,57,10,1,,,,,,,,,,,,,,,,,,,,,,,,,,,,,,,,,,,,,,,,
,,,,,V3_036,18,Female,2024-10-25_17h06.59.631,jersey_experiment_5_v3,2023.2.2,Win32,85.47008547,,,,,,,,,,,,,,,,517.776,519.3287,519.3287,519.8112,return,0.0498,,74.86979167,,,,,,FBP-PT-81.png,0.4,1.2,23,0.75,0,58,58,22,1,,,,,,,,,,,,,,,,,,,,,,,,,,,,,,,,,,,,,,,,
,,,,,V3_036,18,Female,2024-10-25_17h06.59.631,jersey_experiment_5_v3,2023.2.2,Win32,85.47008547,,,,,,,,,,,,,,,,519.8115,521.1052,521.1053,522.6347,return,0.051,,50.390625,,,,,,FBP-OG-71.png,0.35,1.2,31,0.5,0,59,59,30,1,,,,,,,,,,,,,,,,,,,,,,,,,,,,,,,,,,,,,,,,
,,,,,V3_036,18,Female,2024-10-25_17h06.59.631,jersey_experiment_5_v3,2023.2.2,Win32,85.47008547,,,,,,,,,,,,,,,,,,,,,,,,,,,,,,,,,,,,,,,522.635,642.6278,,,,,,,,,,,,,,,,,,,,,,,,,,,,,,,,,,,,,,
,,,,,V3_036,18,Female,2024-10-25_17h06.59.631,jersey_experiment_5_v3,2023.2.2,Win32,85.47008547,,,,,,,,,,,,,,,,,,,,,,,,,,,,,,,,,,,,,,,,,642.628,645.4983,return,2.8625,,,,,,,,,,,,,,,,,,,,,,,,,,,,,,,,,,
,,,,,V3_036,18,Female,2024-10-25_17h06.59.631,jersey_experiment_5_v3,2023.2.2,Win32,85.47008547,,,,,,,,,,,,,,,,645.501,647.051,647.0512,649.8395,return,0.1323,,87.36979167,,,,,,FBP-OG-19.png,0.45,1.2,45,0.75,,,,,,,,,,,,,0,0,0,44,1,,,,,,,,,,,,,,,,,,,,,,,,,,,,
,,,,,V3_036,18,Female,2024-10-25_17h06.59.631,jersey_experiment_5_v3,2023.2.2,Win32,85.47008547,,,,,,,,,,,,,,,,649.8398,651.1337,651.1337,652.2513,return,0.0633,,49.73958333,,,,,,FBP-PT-19.png,0.35,1.2,26,0.5,,,,,,,,,,,,,0,1,1,25,1,,,,,,,,,,,,,,,,,,,,,,,,,,,,
,,,,,V3_036,18,Female,2024-10-25_17h06.59.631,jersey_experiment_5_v3,2023.2.2,Win32,85.47008547,,,,,,,,,,,,,,,,652.2517,653.5454,653.5455,655.7574,return,0.0841,,90.49479167,,,,,,FBP-YG-81.png,0.43,1.2,9,0.5,,,,,,,,,,,,,0,2,2,8,1,,,,,,,,,,,,,,,,,,,,,,,,,,,,
,,,,,V3_036,18,Female,2024-10-25_17h06.59.631,jersey_experiment_5_v3,2023.2.2,Win32,85.47008547,,,,,,,,,,,,,,,,655.7576,657.3103,657.3104,658.1104,return,0.1217,,48.69791667,,,,,,FBP-OG-18.png,0.35,1.2,36,0.75,,,,,,,,,,,,,0,3,3,35,1,,,,,,,,,,,,,,,,,,,,,,,,,,,,
,,,,,V3_036,18,Female,2024-10-25_17h06.59.631,jersey_experiment_5_v3,2023.2.2,Win32,85.47008547,,,,,,,,,,,,,,,,658.1107,659.4047,659.4047,660.4281,return,0.0732,,99.86979167,,,,,,FBP-RB-17.png,0.43,1.2,49,0.5,,,,,,,,,,,,,0,4,4,48,1,,,,,,,,,,,,,,,,,,,,,,,,,,,,
,,,,,V3_036,18,Female,2024-10-25_17h06.59.631,jersey_experiment_5_v3,2023.2.2,Win32,85.47008547,,,,,,,,,,,,,,,,660.4284,661.9812,661.9812,663.2633,return,0.2255,,99.47916667,,,,,,FBP-OG-18.png,0.45,1.2,40,0.75,,,,,,,,,,,,,0,5,5,39,1,,,,,,,,,,,,,,,,,,,,,,,,,,,,
,,,,,V3_036,18,Female,2024-10-25_17h06.59.631,jersey_experiment_5_v3,2023.2.2,Win32,85.47008547,,,,,,,,,,,,,,,,663.2637,664.5576,664.5577,665.746,return,0.0631,,75.78125,,,,,,FBP-RB-17.png,0.4,1.2,48,0.5,,,,,,,,,,,,,0,6,6,47,1,,,,,,,,,,,,,,,,,,,,,,,,,,,,
,,,,,V3_036,18,Female,2024-10-25_17h06.59.631,jersey_experiment_5_v3,2023.2.2,Win32,85.47008547,,,,,,,,,,,,,,,,665.7463,667.2992,667.2992,668.0636,return,0.0345,,99.34895833,,,,,,FBP-OG-17.png,0.45,1.2,35,0.75,,,,,,,,,,,,,0,7,7,34,1,,,,,,,,,,,,,,,,,,,,,,,,,,,,
,,,,,V3_036,18,Female,2024-10-25_17h06.59.631,jersey_experiment_5_v3,2023.2.2,Win32,85.47008547,,,,,,,,,,,,,,,,668.0639,669.3578,669.3579,670.7814,return,0.0961,,99.86979167,,,,,,FBP-PT-18.png,0.43,1.2,24,0.5,,,,,,,,,,,,,0,8,8,23,1,,,,,,,,,,,,,,,,,,,,,,,,,,,,
,,,,,V3_036,18,Female,2024-10-25_17h06.59.631,jersey_experiment_5_v3,2023.2.2,Win32,85.47008547,,,,,,,,,,,,,,,,670.7817,672.3343,672.3343,673.6757,return,0.1363,,99.34895833,,,,,,FBP-OG-19.png,0.43,1.2,44,0.75,,,,,,,,,,,,,0,9,9,43,1,,,,,,,,,,,,,,,,,,,,,,,,,,,,
,,,,,V3_036,18,Female,2024-10-25_17h06.59.631,jersey_experiment_5_v3,2023.2.2,Win32,85.47008547,,,,,,,,,,,,,,,,673.676,675.2287,675.2287,676.3465,return,0.1024,,73.828125,,,,,,FBP-OG-18.png,0.4,1.2,38,0.75,,,,,,,,,,,,,0,10,10,37,1,,,,,,,,,,,,,,,,,,,,,,,,,,,,
,,,,,V3_036,18,Female,2024-10-25_17h06.59.631,jersey_experiment_5_v3,2023.2.2,Win32,85.47008547,,,,,,,,,,,,,,,,676.3468,677.8994,677.8994,678.7228,return,0.1021,,74.73958333,,,,,,FBP-OG-19.png,0.37,1.2,42,0.75,,,,,,,,,,,,,0,11,11,41,1,,,,,,,,,,,,,,,,,,,,,,,,,,,,
,,,,,V3_036,18,Female,2024-10-25_17h06.59.631,jersey_experiment_5_v3,2023.2.2,Win32,85.47008547,,,,,,,,,,,,,,,,678.7231,680.2757,680.2758,680.9582,return,0.2394,,74.73958333,,,,,,FBP-OG-18.png,0.37,1.2,37,0.75,,,,,,,,,,,,,0,12,12,36,1,,,,,,,,,,,,,,,,,,,,,,,,,,,,
,,,,,V3_036,18,Female,2024-10-25_17h06.59.631,jersey_experiment_5_v3,2023.2.2,Win32,85.47008547,,,,,,,,,,,,,,,,680.9585,682.5113,682.5113,683.3937,return,0.1546,,51.04166667,,,,,,FBP-OG-19.png,0.35,1.2,41,0.75,,,,,,,,,,,,,0,13,13,40,1,,,,,,,,,,,,,,,,,,,,,,,,,,,,
,,,,,V3_036,18,Female,2024-10-25_17h06.59.631,jersey_experiment_5_v3,2023.2.2,Win32,85.47008547,,,,,,,,,,,,,,,,683.3938,684.6882,684.6882,685.4056,return,0.0756,,51.30208333,,,,,,FBP-PT-18.png,0.37,1.2,22,0.5,,,,,,,,,,,,,0,14,14,21,1,,,,,,,,,,,,,,,,,,,,,,,,,,,,
,,,,,V3_036,18,Female,2024-10-25_17h06.59.631,jersey_experiment_5_v3,2023.2.2,Win32,85.47008547,,,,,,,,,,,,,,,,685.4058,686.6996,686.6997,688.0292,return,0.0882,,24.47916667,,,,,,FBP-YG-81.png,0.35,1.2,6,0.5,,,,,,,,,,,,,0,15,15,5,1,,,,,,,,,,,,,,,,,,,,,,,,,,,,
,,,,,V3_036,18,Female,2024-10-25_17h06.59.631,jersey_experiment_5_v3,2023.2.2,Win32,85.47008547,,,,,,,,,,,,,,,,688.0293,689.3232,689.3233,690.1233,return,0.113,,50.78125,,,,,,FBP-RB-17.png,0.35,1.2,46,0.5,,,,,,,,,,,,,0,16,16,45,1,,,,,,,,,,,,,,,,,,,,,,,,,,,,
,,,,,V3_036,18,Female,2024-10-25_17h06.59.631,jersey_experiment_5_v3,2023.2.2,Win32,85.47008547,,,,,,,,,,,,,,,,690.1235,691.6648,691.6648,692.8646,return,0.0569,,73.828125,,,,,,FBP-OG-17.png,0.4,1.2,33,0.75,,,,,,,,,,,,,0,17,17,32,1,,,,,,,,,,,,,,,,,,,,,,,,,,,,
,,,,,V3_036,18,Female,2024-10-25_17h06.59.631,jersey_experiment_5_v3,2023.2.2,Win32,85.47008547,,,,,,,,,,,,,,,,692.8648,694.1588,694.1589,695.1238,return,0.1267,,99.21875,,,,,,FBP-YG-71.png,0.45,1.2,5,0.5,,,,,,,,,,,,,0,18,18,4,1,,,,,,,,,,,,,,,,,,,,,,,,,,,,
,,,,,V3_036,18,Female,2024-10-25_17h06.59.631,jersey_experiment_5_v3,2023.2.2,Win32,85.47008547,,,,,,,,,,,,,,,,695.1241,696.4177,696.4177,697.253,return,0.0377,,73.69791667,,,,,,FBP-PT-17.png,0.35,1.2,16,0.5,,,,,,,,,,,,,0,19,19,15,1,,,,,,,,,,,,,,,,,,,,,,,,,,,,
,,,,,V3_036,18,Female,2024-10-25_17h06.59.631,jersey_experiment_5_v3,2023.2.2,Win32,85.47008547,,,,,,,,,,,,,,,,697.2533,698.5472,698.5472,699.2649,return,0.0333,,75,,,,,,FBP-RB-18.png,0.37,1.2,52,0.5,,,,,,,,,,,,,0,20,20,51,1,,,,,,,,,,,,,,,,,,,,,,,,,,,,
,,,,,V3_036,18,Female,2024-10-25_17h06.59.631,jersey_experiment_5_v3,2023.2.2,Win32,85.47008547,,,,,,,,,,,,,,,,699.2653,700.5589,700.559,702.042,return,0.2213,,99.21875,,,,,,FBP-YG-91.png,0.45,1.2,15,0.5,,,,,,,,,,,,,0,21,21,14,1,,,,,,,,,,,,,,,,,,,,,,,,,,,,
,,,,,V3_036,18,Female,2024-10-25_17h06.59.631,jersey_experiment_5_v3,2023.2.2,Win32,85.47008547,,,,,,,,,,,,,,,,702.0423,703.3357,703.3357,704.4769,return,0.1585,,88.28125,,,,,,FBP-RB-19.png,0.4,1.2,58,0.5,,,,,,,,,,,,,0,22,22,57,1,,,,,,,,,,,,,,,,,,,,,,,,,,,,
,,,,,V3_036,18,Female,2024-10-25_17h06.59.631,jersey_experiment_5_v3,2023.2.2,Win32,85.47008547,,,,,,,,,,,,,,,,704.4771,705.7711,705.7711,707.1475,return,0.1014,,60.41666667,,,,,,FBP-YG-91.png,0.35,1.2,11,0.5,,,,,,,,,,,,,0,23,23,10,1,,,,,,,,,,,,,,,,,,,,,,,,,,,,
,,,,,V3_036,18,Female,2024-10-25_17h06.59.631,jersey_experiment_5_v3,2023.2.2,Win32,85.47008547,,,,,,,,,,,,,,,,707.1477,708.4418,708.4418,711.8183,return,2.5145,,75.91145833,,,,,,FBP-YG-71.png,0.4,1.2,3,0.5,,,,,,,,,,,,,0,24,24,2,1,,,,,,,,,,,,,,,,,,,,,,,,,,,,
,,,,,V3_036,18,Female,2024-10-25_17h06.59.631,jersey_experiment_5_v3,2023.2.2,Win32,85.47008547,,,,,,,,,,,,,,,,711.8185,713.1125,713.1126,714.2184,return,0.1144,,37.76041667,,,,,,FBP-YG-71.png,0.35,1.2,1,0.5,,,,,,,,,,,,,0,25,25,0,1,,,,,,,,,,,,,,,,,,,,,,,,,,,,
,,,,,V3_036,18,Female,2024-10-25_17h06.59.631,jersey_experiment_5_v3,2023.2.2,Win32,85.47008547,,,,,,,,,,,,,,,,714.2187,715.5123,715.5123,718.5244,return,1.3202,,53.90625,,,,,,FBP-PT-19.png,0.4,1.2,28,0.5,,,,,,,,,,,,,0,26,26,27,1,,,,,,,,,,,,,,,,,,,,,,,,,,,,
,,,,,V3_036,18,Female,2024-10-25_17h06.59.631,jersey_experiment_5_v3,2023.2.2,Win32,85.47008547,,,,,,,,,,,,,,,,718.5247,719.8186,719.8187,720.9481,return,0.2096,,73.95833333,,,,,,FBP-YG-81.png,0.4,1.2,8,0.5,,,,,,,,,,,,,0,27,27,7,1,,,,,,,,,,,,,,,,,,,,,,,,,,,,
,,,,,V3_036,18,Female,2024-10-25_17h06.59.631,jersey_experiment_5_v3,2023.2.2,Win32,85.47008547,,,,,,,,,,,,,,,,720.9483,722.2422,722.2422,723.901,return,0.1234,,99.34895833,,,,,,FBP-YG-91.png,0.43,1.2,14,0.5,,,,,,,,,,,,,0,28,28,13,1,,,,,,,,,,,,,,,,,,,,,,,,,,,,
,,,,,V3_036,18,Female,2024-10-25_17h06.59.631,jersey_experiment_5_v3,2023.2.2,Win32,85.47008547,,,,,,,,,,,,,,,,723.9012,725.1953,725.1954,726.254,return,0.1692,,99.73958333,,,,,,FBP-RB-19.png,0.45,1.2,60,0.5,,,,,,,,,,,,,0,29,29,59,1,,,,,,,,,,,,,,,,,,,,,,,,,,,,
,,,,,V3_036,18,Female,2024-10-25_17h06.59.631,jersey_experiment_5_v3,2023.2.2,Win32,85.47008547,,,,,,,,,,,,,,,,726.2542,727.5481,727.5481,728.5128,return,0.1508,,83.203125,,,,,,FBP-PT-18.png,0.4,1.2,23,0.5,,,,,,,,,,,,,0,30,30,22,1,,,,,,,,,,,,,,,,,,,,,,,,,,,,
,,,,,V3_036,18,Female,2024-10-25_17h06.59.631,jersey_experiment_5_v3,2023.2.2,Win32,85.47008547,,,,,,,,,,,,,,,,728.513,730.0543,730.0544,730.7953,return,0.1484,,62.890625,,,,,,FBP-OG-17.png,0.37,1.2,32,0.75,,,,,,,,,,,,,0,31,31,31,1,,,,,,,,,,,,,,,,,,,,,,,,,,,,
,,,,,V3_036,18,Female,2024-10-25_17h06.59.631,jersey_experiment_5_v3,2023.2.2,Win32,85.47008547,,,,,,,,,,,,,,,,730.7956,732.0894,732.0894,733.372,return,0.3952,,99.21875,,,,,,FBP-PT-17.png,0.45,1.2,20,0.5,,,,,,,,,,,,,0,32,32,19,1,,,,,,,,,,,,,,,,,,,,,,,,,,,,
,,,,,V3_036,18,Female,2024-10-25_17h06.59.631,jersey_experiment_5_v3,2023.2.2,Win32,85.47008547,,,,,,,,,,,,,,,,733.3721,734.6662,734.6663,735.8426,return,0.1098,,99.86979167,,,,,,FBP-PT-17.png,0.43,1.2,19,0.5,,,,,,,,,,,,,0,33,33,18,1,,,,,,,,,,,,,,,,,,,,,,,,,,,,
,,,,,V3_036,18,Female,2024-10-25_17h06.59.631,jersey_experiment_5_v3,2023.2.2,Win32,85.47008547,,,,,,,,,,,,,,,,735.8428,737.1367,737.1367,738.7367,return,0.2985,,99.609375,,,,,,FBP-PT-19.png,0.43,1.2,29,0.5,,,,,,,,,,,,,0,34,34,28,1,,,,,,,,,,,,,,,,,,,,,,,,,,,,
,,,,,V3_036,18,Female,2024-10-25_17h06.59.631,jersey_experiment_5_v3,2023.2.2,Win32,85.47008547,,,,,,,,,,,,,,,,738.7371,740.0309,740.031,742.3489,return,0.1552,,23.95833333,,,,,,FBP-PT-17.png,0.37,1.2,17,0.5,,,,,,,,,,,,,0,35,35,16,1,,,,,,,,,,,,,,,,,,,,,,,,,,,,
,,,,,V3_036,18,Female,2024-10-25_17h06.59.631,jersey_experiment_5_v3,2023.2.2,Win32,85.47008547,,,,,,,,,,,,,,,,742.3491,743.6429,743.6429,745.0901,return,0.1654,,99.08854167,,,,,,FBP-RB-17.png,0.45,1.2,50,0.5,,,,,,,,,,,,,0,36,36,49,1,,,,,,,,,,,,,,,,,,,,,,,,,,,,
,,,,,V3_036,18,Female,2024-10-25_17h06.59.631,jersey_experiment_5_v3,2023.2.2,Win32,85.47008547,,,,,,,,,,,,,,,,745.0903,746.3843,746.3844,748.0901,return,0.1258,,24.08854167,,,,,,FBP-PT-18.png,0.35,1.2,21,0.5,,,,,,,,,,,,,0,37,37,20,1,,,,,,,,,,,,,,,,,,,,,,,,,,,,
,,,,,V3_036,18,Female,2024-10-25_17h06.59.631,jersey_experiment_5_v3,2023.2.2,Win32,85.47008547,,,,,,,,,,,,,,,,748.0903,749.6434,749.6435,751.1962,return,0.1476,,100,,,,,,FBP-OG-17.png,0.43,1.2,34,0.75,,,,,,,,,,,,,0,38,38,33,1,,,,,,,,,,,,,,,,,,,,,,,,,,,,
,,,,,V3_036,18,Female,2024-10-25_17h06.59.631,jersey_experiment_5_v3,2023.2.2,Win32,85.47008547,,,,,,,,,,,,,,,,751.1964,752.4904,752.4905,753.9492,return,0.1701,,99.34895833,,,,,,FBP-RB-18.png,0.43,1.2,54,0.5,,,,,,,,,,,,,0,39,39,53,1,,,,,,,,,,,,,,,,,,,,,,,,,,,,
,,,,,V3_036,18,Female,2024-10-25_17h06.59.631,jersey_experiment_5_v3,2023.2.2,Win32,85.47008547,,,,,,,,,,,,,,,,753.9494,755.2433,755.2434,756.267,return,0.1371,,99.34895833,,,,,,FBP-YG-81.png,0.45,1.2,10,0.5,,,,,,,,,,,,,0,40,40,9,1,,,,,,,,,,,,,,,,,,,,,,,,,,,,
,,,,,V3_036,18,Female,2024-10-25_17h06.59.631,jersey_experiment_5_v3,2023.2.2,Win32,85.47008547,,,,,,,,,,,,,,,,756.2672,757.5611,757.5611,758.9258,return,0.0713,,73.828125,,,,,,FBP-RB-18.png,0.35,1.2,51,0.5,,,,,,,,,,,,,0,41,41,50,1,,,,,,,,,,,,,,,,,,,,,,,,,,,,
,,,,,V3_036,18,Female,2024-10-25_17h06.59.631,jersey_experiment_5_v3,2023.2.2,Win32,85.47008547,,,,,,,,,,,,,,,,758.9261,760.22,760.22,764.126,return,0.1206,,74.609375,,,,,,FBP-YG-81.png,0.37,1.2,7,0.5,,,,,,,,,,,,,0,42,42,6,1,,,,,,,,,,,,,,,,,,,,,,,,,,,,
,,,,,V3_036,18,Female,2024-10-25_17h06.59.631,jersey_experiment_5_v3,2023.2.2,Win32,85.47008547,,,,,,,,,,,,,,,,764.1261,765.4202,765.4202,766.6087,return,0.4597,,74.47916667,,,,,,FBP-RB-18.png,0.4,1.2,53,0.5,,,,,,,,,,,,,0,43,43,52,1,,,,,,,,,,,,,,,,,,,,,,,,,,,,
,,,,,V3_036,18,Female,2024-10-25_17h06.59.631,jersey_experiment_5_v3,2023.2.2,Win32,85.47008547,,,,,,,,,,,,,,,,766.609,767.9025,767.9025,768.5731,return,0.0745,,74.34895833,,,,,,FBP-PT-19.png,0.37,1.2,27,0.5,,,,,,,,,,,,,0,44,44,26,1,,,,,,,,,,,,,,,,,,,,,,,,,,,,
,,,,,V3_036,18,Female,2024-10-25_17h06.59.631,jersey_experiment_5_v3,2023.2.2,Win32,85.47008547,,,,,,,,,,,,,,,,768.5733,769.8673,769.8673,770.5732,return,0.1433,,74.34895833,,,,,,FBP-RB-17.png,0.37,1.2,47,0.5,,,,,,,,,,,,,0,45,45,46,1,,,,,,,,,,,,,,,,,,,,,,,,,,,,
,,,,,V3_036,18,Female,2024-10-25_17h06.59.631,jersey_experiment_5_v3,2023.2.2,Win32,85.47008547,,,,,,,,,,,,,,,,770.5735,771.8674,771.8674,773.5147,return,0.1928,,87.109375,,,,,,FBP-YG-91.png,0.4,1.2,13,0.5,,,,,,,,,,,,,0,46,46,12,1,,,,,,,,,,,,,,,,,,,,,,,,,,,,
,,,,,V3_036,18,Female,2024-10-25_17h06.59.631,jersey_experiment_5_v3,2023.2.2,Win32,85.47008547,,,,,,,,,,,,,,,,773.5149,774.8087,774.8087,776.0206,return,0.024,,89.0625,,,,,,FBP-RB-19.png,0.35,1.2,56,0.5,,,,,,,,,,,,,0,47,47,55,1,,,,,,,,,,,,,,,,,,,,,,,,,,,,
,,,,,V3_036,18,Female,2024-10-25_17h06.59.631,jersey_experiment_5_v3,2023.2.2,Win32,85.47008547,,,,,,,,,,,,,,,,776.0209,777.3147,777.3148,779.0441,return,0.0155,,49.73958333,,,,,,FBP-YG-91.png,0.37,1.2,12,0.5,,,,,,,,,,,,,0,48,48,11,1,,,,,,,,,,,,,,,,,,,,,,,,,,,,
,,,,,V3_036,18,Female,2024-10-25_17h06.59.631,jersey_experiment_5_v3,2023.2.2,Win32,85.47008547,,,,,,,,,,,,,,,,779.0444,780.3384,780.3384,781.2796,return,0.2378,,73.17708333,,,,,,FBP-YG-71.png,0.37,1.2,2,0.5,,,,,,,,,,,,,0,49,49,1,1,,,,,,,,,,,,,,,,,,,,,,,,,,,,
,,,,,V3_036,18,Female,2024-10-25_17h06.59.631,jersey_experiment_5_v3,2023.2.2,Win32,85.47008547,,,,,,,,,,,,,,,,781.2799,782.8329,782.8329,783.8443,return,0.0839,,50.390625,,,,,,FBP-OG-17.png,0.35,1.2,31,0.75,,,,,,,,,,,,,0,50,50,30,1,,,,,,,,,,,,,,,,,,,,,,,,,,,,
,,,,,V3_036,18,Female,2024-10-25_17h06.59.631,jersey_experiment_5_v3,2023.2.2,Win32,85.47008547,,,,,,,,,,,,,,,,783.8446,785.1387,785.1388,786.7977,return,0.0522,,99.73958333,,,,,,FBP-PT-18.png,0.45,1.2,25,0.5,,,,,,,,,,,,,0,51,51,24,1,,,,,,,,,,,,,,,,,,,,,,,,,,,,
,,,,,V3_036,18,Female,2024-10-25_17h06.59.631,jersey_experiment_5_v3,2023.2.2,Win32,85.47008547,,,,,,,,,,,,,,,,786.7979,788.0915,788.0916,789.6328,return,0.0468,,49.21875,,,,,,FBP-RB-19.png,0.37,1.2,57,0.5,,,,,,,,,,,,,0,52,52,56,1,,,,,,,,,,,,,,,,,,,,,,,,,,,,
,,,,,V3_036,18,Female,2024-10-25_17h06.59.631,jersey_experiment_5_v3,2023.2.2,Win32,85.47008547,,,,,,,,,,,,,,,,789.633,790.9268,790.9269,792.0211,return,0.0558,,74.86979167,,,,,,FBP-RB-19.png,0.43,1.2,59,0.5,,,,,,,,,,,,,0,53,53,58,1,,,,,,,,,,,,,,,,,,,,,,,,,,,,
,,,,,V3_036,18,Female,2024-10-25_17h06.59.631,jersey_experiment_5_v3,2023.2.2,Win32,85.47008547,,,,,,,,,,,,,,,,792.0214,793.3155,793.3156,794.6094,return,0.5032,,74.34895833,,,,,,FBP-PT-17.png,0.4,1.2,18,0.5,,,,,,,,,,,,,0,54,54,17,1,,,,,,,,,,,,,,,,,,,,,,,,,,,,
,,,,,V3_036,18,Female,2024-10-25_17h06.59.631,jersey_experiment_5_v3,2023.2.2,Win32,85.47008547,,,,,,,,,,,,,,,,794.6097,795.9035,795.9036,796.539,return,0.0885,,74.34895833,,,,,,FBP-YG-71.png,0.43,1.2,4,0.5,,,,,,,,,,,,,0,55,55,3,1,,,,,,,,,,,,,,,,,,,,,,,,,,,,
,,,,,V3_036,18,Female,2024-10-25_17h06.59.631,jersey_experiment_5_v3,2023.2.2,Win32,85.47008547,,,,,,,,,,,,,,,,796.5393,798.092,798.0921,798.6567,return,0.0724,,74.34895833,,,,,,FBP-OG-19.png,0.4,1.2,43,0.75,,,,,,,,,,,,,0,56,56,42,1,,,,,,,,,,,,,,,,,,,,,,,,,,,,
,,,,,V3_036,18,Female,2024-10-25_17h06.59.631,jersey_experiment_5_v3,2023.2.2,Win32,85.47008547,,,,,,,,,,,,,,,,798.657,799.9508,799.9509,801.4215,return,0.4742,,99.609375,,,,,,FBP-RB-18.png,0.45,1.2,55,0.5,,,,,,,,,,,,,0,57,57,54,1,,,,,,,,,,,,,,,,,,,,,,,,,,,,
,,,,,V3_036,18,Female,2024-10-25_17h06.59.631,jersey_experiment_5_v3,2023.2.2,Win32,85.47008547,,,,,,,,,,,,,,,,801.4218,802.9745,802.9746,803.7864,return,0.1023,,99.47916667,,,,,,FBP-OG-18.png,0.43,1.2,39,0.75,,,,,,,,,,,,,0,58,58,38,1,,,,,,,,,,,,,,,,,,,,,,,,,,,,
,,,,,V3_036,18,Female,2024-10-25_17h06.59.631,jersey_experiment_5_v3,2023.2.2,Win32,85.47008547,,,,,,,,,,,,,,,,803.7867,805.0805,805.0805,806.2569,return,0.1429,,99.08854167,,,,,,FBP-PT-19.png,0.45,1.2,30,0.5,,,,,,,,,,,,,0,59,59,29,1,,,,,,,,,,,,,,,,,,,,,,,,,,,,
,,,,,V3_036,18,Female,2024-10-25_17h06.59.631,jersey_experiment_5_v3,2023.2.2,Win32,85.47008547,,,,,,,,,,,,,,,,806.2591,807.5511,807.5512,808.5395,return,0.0855,,75.52083333,,,,,,FBP-RB-81.png,0.37,1.2,52,0.5,,,,,,,,,,,,,,,,,,0,0,0,51,1,,,,,,,,,,,,,,,,,,,,,,,
,,,,,V3_036,18,Female,2024-10-25_17h06.59.631,jersey_experiment_5_v3,2023.2.2,Win32,85.47008547,,,,,,,,,,,,,,,,808.5398,809.8337,809.8337,811.3631,return,0.8005,,34.63541667,,,,,,FBP-RB-71.png,0.35,1.2,46,0.5,,,,,,,,,,,,,,,,,,0,1,1,45,1,,,,,,,,,,,,,,,,,,,,,,,
,,,,,V3_036,18,Female,2024-10-25_17h06.59.631,jersey_experiment_5_v3,2023.2.2,Win32,85.47008547,,,,,,,,,,,,,,,,811.3636,812.6572,812.6572,813.7163,return,0.0942,,99.73958333,,,,,,FBP-RB-91.png,0.45,1.2,60,0.5,,,,,,,,,,,,,,,,,,0,2,2,59,1,,,,,,,,,,,,,,,,,,,,,,,
,,,,,V3_036,18,Female,2024-10-25_17h06.59.631,jersey_experiment_5_v3,2023.2.2,Win32,85.47008547,,,,,,,,,,,,,,,,813.7165,815.0104,815.0104,816.8926,return,0.1,,51.171875,,,,,,FBP-PT-71.png,0.37,1.2,17,0.5,,,,,,,,,,,,,,,,,,0,3,3,16,1,,,,,,,,,,,,,,,,,,,,,,,
,,,,,V3_036,18,Female,2024-10-25_17h06.59.631,jersey_experiment_5_v3,2023.2.2,Win32,85.47008547,,,,,,,,,,,,,,,,816.8929,818.1868,818.1869,819.1515,return,0.1052,,24.86979167,,,,,,FBP-YG-19.png,0.35,1.2,11,0.5,,,,,,,,,,,,,,,,,,0,4,4,10,1,,,,,,,,,,,,,,,,,,,,,,,
,,,,,V3_036,18,Female,2024-10-25_17h06.59.631,jersey_experiment_5_v3,2023.2.2,Win32,85.47008547,,,,,,,,,,,,,,,,819.1517,820.4458,820.4458,821.293,return,0.0294,,24.73958333,,,,,,FBP-RB-91.png,0.35,1.2,56,0.5,,,,,,,,,,,,,,,,,,0,5,5,55,1,,,,,,,,,,,,,,,,,,,,,,,
,,,,,V3_036,18,Female,2024-10-25_17h06.59.631,jersey_experiment_5_v3,2023.2.2,Win32,85.47008547,,,,,,,,,,,,,,,,821.2932,822.5871,822.5872,824.3872,return,0.0367,,99.47916667,,,,,,FBP-PT-91.png,0.45,1.2,30,0.5,,,,,,,,,,,,,,,,,,0,6,6,29,1,,,,,,,,,,,,,,,,,,,,,,,
,,,,,V3_036,18,Female,2024-10-25_17h06.59.631,jersey_experiment_5_v3,2023.2.2,Win32,85.47008547,,,,,,,,,,,,,,,,824.3875,825.9402,825.9403,827.1872,return,0.0157,,35.546875,,,,,,FBP-OG-91.png,0.37,1.2,42,0.75,,,,,,,,,,,,,,,,,,0,7,7,41,1,,,,,,,,,,,,,,,,,,,,,,,
,,,,,V3_036,18,Female,2024-10-25_17h06.59.631,jersey_experiment_5_v3,2023.2.2,Win32,85.47008547,,,,,,,,,,,,,,,,827.1874,828.7401,828.7401,829.599,return,0.2023,,76.5625,,,,,,FBP-OG-91.png,0.43,1.2,44,0.75,,,,,,,,,,,,,,,,,,0,8,8,43,1,,,,,,,,,,,,,,,,,,,,,,,
,,,,,V3_036,18,Female,2024-10-25_17h06.59.631,jersey_experiment_5_v3,2023.2.2,Win32,85.47008547,,,,,,,,,,,,,,,,829.5992,830.8932,830.8933,832.1168,return,0.5883,,75.390625,,,,,,FBP-RB-81.png,0.4,1.2,53,0.5,,,,,,,,,,,,,,,,,,0,9,9,52,1,,,,,,,,,,,,,,,,,,,,,,,
,,,,,V3_036,18,Female,2024-10-25_17h06.59.631,jersey_experiment_5_v3,2023.2.2,Win32,85.47008547,,,,,,,,,,,,,,,,832.1171,833.411,833.411,834.705,return,0.1191,,99.47916667,,,,,,FBP-PT-71.png,0.43,1.2,19,0.5,,,,,,,,,,,,,,,,,,0,10,10,18,1,,,,,,,,,,,,,,,,,,,,,,,
,,,,,V3_036,18,Female,2024-10-25_17h06.59.631,jersey_experiment_5_v3,2023.2.2,Win32,85.47008547,,,,,,,,,,,,,,,,834.7053,835.9994,835.9994,837.0815,return,0.0404,,74.21875,,,,,,FBP-PT-81.png,0.43,1.2,24,0.5,,,,,,,,,,,,,,,,,,0,11,11,23,1,,,,,,,,,,,,,,,,,,,,,,,
,,,,,V3_036,18,Female,2024-10-25_17h06.59.631,jersey_experiment_5_v3,2023.2.2,Win32,85.47008547,,,,,,,,,,,,,,,,837.0817,838.3758,838.3759,839.9052,return,0.613,,38.671875,,,,,,FBP-YG-19.png,0.37,1.2,12,0.5,,,,,,,,,,,,,,,,,,0,12,12,11,1,,,,,,,,,,,,,,,,,,,,,,,
,,,,,V3_036,18,Female,2024-10-25_17h06.59.631,jersey_experiment_5_v3,2023.2.2,Win32,85.47008547,,,,,,,,,,,,,,,,839.9054,841.1995,841.1995,842.1878,return,0.0852,,24.21875,,,,,,FBP-RB-71.png,0.37,1.2,47,0.5,,,,,,,,,,,,,,,,,,0,13,13,46,1,,,,,,,,,,,,,,,,,,,,,,,
,,,,,V3_036,18,Female,2024-10-25_17h06.59.631,jersey_experiment_5_v3,2023.2.2,Win32,85.47008547,,,,,,,,,,,,,,,,842.1879,843.4819,843.482,844.8466,return,0.1454,,72.78645833,,,,,,FBP-RB-91.png,0.43,1.2,59,0.5,,,,,,,,,,,,,,,,,,0,14,14,58,1,,,,,,,,,,,,,,,,,,,,,,,
,,,,,V3_036,18,Female,2024-10-25_17h06.59.631,jersey_experiment_5_v3,2023.2.2,Win32,85.47008547,,,,,,,,,,,,,,,,844.847,846.3881,846.3882,847.3644,return,0.0789,,25.78125,,,,,,FBP-OG-91.png,0.35,1.2,41,0.75,,,,,,,,,,,,,,,,,,0,15,15,40,1,,,,,,,,,,,,,,,,,,,,,,,
,,,,,V3_036,18,Female,2024-10-25_17h06.59.631,jersey_experiment_5_v3,2023.2.2,Win32,85.47008547,,,,,,,,,,,,,,,,847.3646,848.6584,848.6585,850.4824,return,0.0157,,17.44791667,,,,,,FBP-PT-81.png,0.35,1.2,21,0.5,,,,,,,,,,,,,,,,,,0,16,16,20,1,,,,,,,,,,,,,,,,,,,,,,,
,,,,,V3_036,18,Female,2024-10-25_17h06.59.631,jersey_experiment_5_v3,2023.2.2,Win32,85.47008547,,,,,,,,,,,,,,,,850.4826,851.7762,851.7762,854.2706,return,0.0731,,49.47916667,,,,,,FBP-YG-17.png,0.35,1.2,1,0.5,,,,,,,,,,,,,,,,,,0,17,17,0,1,,,,,,,,,,,,,,,,,,,,,,,
,,,,,V3_036,18,Female,2024-10-25_17h06.59.631,jersey_experiment_5_v3,2023.2.2,Win32,85.47008547,,,,,,,,,,,,,,,,854.2708,855.8236,855.8236,857.247,return,0.0506,,99.47916667,,,,,,FBP-OG-71.png,0.43,1.2,34,0.75,,,,,,,,,,,,,,,,,,0,18,18,33,1,,,,,,,,,,,,,,,,,,,,,,,
,,,,,V3_036,18,Female,2024-10-25_17h06.59.631,jersey_experiment_5_v3,2023.2.2,Win32,85.47008547,,,,,,,,,,,,,,,,857.2473,858.8002,858.8002,860.2589,return,0.1026,,26.30208333,,,,,,FBP-OG-71.png,0.35,1.2,31,0.75,,,,,,,,,,,,,,,,,,0,19,19,30,1,,,,,,,,,,,,,,,,,,,,,,,
,,,,,V3_036,18,Female,2024-10-25_17h06.59.631,jersey_experiment_5_v3,2023.2.2,Win32,85.47008547,,,,,,,,,,,,,,,,860.2591,861.5533,861.5533,863.0239,return,0.1093,,99.73958333,,,,,,FBP-YG-18.png,0.45,1.2,10,0.5,,,,,,,,,,,,,,,,,,0,20,20,9,1,,,,,,,,,,,,,,,,,,,,,,,
,,,,,V3_036,18,Female,2024-10-25_17h06.59.631,jersey_experiment_5_v3,2023.2.2,Win32,85.47008547,,,,,,,,,,,,,,,,863.0241,864.3179,864.318,865.4122,return,0.0806,,23.69791667,,,,,,FBP-YG-18.png,0.35,1.2,6,0.5,,,,,,,,,,,,,,,,,,0,21,21,5,1,,,,,,,,,,,,,,,,,,,,,,,
,,,,,V3_036,18,Female,2024-10-25_17h06.59.631,jersey_experiment_5_v3,2023.2.2,Win32,85.47008547,,,,,,,,,,,,,,,,865.4123,866.7063,866.7064,870.4124,return,1.5792,,74.609375,,,,,,FBP-RB-81.png,0.43,1.2,54,0.5,,,,,,,,,,,,,,,,,,0,22,22,53,1,,,,,,,,,,,,,,,,,,,,,,,
,,,,,V3_036,18,Female,2024-10-25_17h06.59.631,jersey_experiment_5_v3,2023.2.2,Win32,85.47008547,,,,,,,,,,,,,,,,870.4125,871.7066,871.7066,873.1534,return,0.1038,,74.86979167,,,,,,FBP-YG-19.png,0.4,1.2,13,0.5,,,,,,,,,,,,,,,,,,0,23,23,12,1,,,,,,,,,,,,,,,,,,,,,,,
,,,,,V3_036,18,Female,2024-10-25_17h06.59.631,jersey_experiment_5_v3,2023.2.2,Win32,85.47008547,,,,,,,,,,,,,,,,873.1537,874.4477,874.4478,875.8715,return,0.5414,,13.15104167,,,,,,FBP-RB-81.png,0.35,1.2,51,0.5,,,,,,,,,,,,,,,,,,0,24,24,50,1,,,,,,,,,,,,,,,,,,,,,,,
,,,,,V3_036,18,Female,2024-10-25_17h06.59.631,jersey_experiment_5_v3,2023.2.2,Win32,85.47008547,,,,,,,,,,,,,,,,875.8717,877.4243,877.4244,878.189,return,0.0293,,13.93229167,,,,,,FBP-OG-81.png,0.35,1.2,36,0.75,,,,,,,,,,,,,,,,,,0,25,25,35,1,,,,,,,,,,,,,,,,,,,,,,,
,,,,,V3_036,18,Female,2024-10-25_17h06.59.631,jersey_experiment_5_v3,2023.2.2,Win32,85.47008547,,,,,,,,,,,,,,,,878.1893,879.4834,879.4834,880.4596,return,0.0423,,51.5625,,,,,,FBP-PT-71.png,0.4,1.2,18,0.5,,,,,,,,,,,,,,,,,,0,26,26,17,1,,,,,,,,,,,,,,,,,,,,,,,
,,,,,V3_036,18,Female,2024-10-25_17h06.59.631,jersey_experiment_5_v3,2023.2.2,Win32,85.47008547,,,,,,,,,,,,,,,,880.4599,881.754,881.7541,882.401,return,0.0719,,48.046875,,,,,,FBP-PT-71.png,0.35,1.2,16,0.5,,,,,,,,,,,,,,,,,,0,27,27,15,1,,,,,,,,,,,,,,,,,,,,,,,
,,,,,V3_036,18,Female,2024-10-25_17h06.59.631,jersey_experiment_5_v3,2023.2.2,Win32,85.47008547,,,,,,,,,,,,,,,,882.4012,883.9539,883.9541,884.5305,return,0.0606,,50.78125,,,,,,FBP-OG-71.png,0.37,1.2,32,0.75,,,,,,,,,,,,,,,,,,0,28,28,31,1,,,,,,,,,,,,,,,,,,,,,,,
,,,,,V3_036,18,Female,2024-10-25_17h06.59.631,jersey_experiment_5_v3,2023.2.2,Win32,85.47008547,,,,,,,,,,,,,,,,884.5308,885.8248,885.8249,887.26,return,0.0993,,99.21875,,,,,,FBP-PT-71.png,0.45,1.2,20,0.5,,,,,,,,,,,,,,,,,,0,29,29,19,1,,,,,,,,,,,,,,,,,,,,,,,
,,,,,V3_036,18,Female,2024-10-25_17h06.59.631,jersey_experiment_5_v3,2023.2.2,Win32,85.47008547,,,,,,,,,,,,,,,,887.2604,888.5542,888.5543,889.425,return,0.0393,,75.13020833,,,,,,FBP-YG-18.png,0.37,1.2,7,0.5,,,,,,,,,,,,,,,,,,0,30,30,6,1,,,,,,,,,,,,,,,,,,,,,,,
,,,,,V3_036,18,Female,2024-10-25_17h06.59.631,jersey_experiment_5_v3,2023.2.2,Win32,85.47008547,,,,,,,,,,,,,,,,889.4253,890.7189,890.719,891.3072,return,0.1838,,74.609375,,,,,,FBP-PT-81.png,0.37,1.2,22,0.5,,,,,,,,,,,,,,,,,,0,31,31,21,1,,,,,,,,,,,,,,,,,,,,,,,
,,,,,V3_036,18,Female,2024-10-25_17h06.59.631,jersey_experiment_5_v3,2023.2.2,Win32,85.47008547,,,,,,,,,,,,,,,,891.3074,892.6014,892.6015,894.3308,return,0.089,,99.47916667,,,,,,FBP-YG-18.png,0.4,1.2,8,0.5,,,,,,,,,,,,,,,,,,0,32,32,7,1,,,,,,,,,,,,,,,,,,,,,,,
,,,,,V3_036,18,Female,2024-10-25_17h06.59.631,jersey_experiment_5_v3,2023.2.2,Win32,85.47008547,,,,,,,,,,,,,,,,894.3311,895.6251,895.6251,896.4838,return,0.2012,,98.046875,,,,,,FBP-YG-18.png,0.43,1.2,9,0.5,,,,,,,,,,,,,,,,,,0,33,33,8,1,,,,,,,,,,,,,,,,,,,,,,,
,,,,,V3_036,18,Female,2024-10-25_17h06.59.631,jersey_experiment_5_v3,2023.2.2,Win32,85.47008547,,,,,,,,,,,,,,,,896.4841,898.0369,898.0369,898.4016,return,0.2124,,99.86979167,,,,,,FBP-OG-91.png,0.4,1.2,43,0.75,,,,,,,,,,,,,,,,,,0,34,34,42,1,,,,,,,,,,,,,,,,,,,,,,,
,,,,,V3_036,18,Female,2024-10-25_17h06.59.631,jersey_experiment_5_v3,2023.2.2,Win32,85.47008547,,,,,,,,,,,,,,,,898.4018,899.6956,899.6957,900.4958,return,0.4029,,99.86979167,,,,,,FBP-RB-71.png,0.4,1.2,48,0.5,,,,,,,,,,,,,,,,,,0,35,35,47,1,,,,,,,,,,,,,,,,,,,,,,,
,,,,,V3_036,18,Female,2024-10-25_17h06.59.631,jersey_experiment_5_v3,2023.2.2,Win32,85.47008547,,,,,,,,,,,,,,,,900.496,901.7901,901.7901,902.4253,return,0.0092,,74.08854167,,,,,,FBP-YG-17.png,0.37,1.2,2,0.5,,,,,,,,,,,,,,,,,,0,36,36,1,1,,,,,,,,,,,,,,,,,,,,,,,
,,,,,V3_036,18,Female,2024-10-25_17h06.59.631,jersey_experiment_5_v3,2023.2.2,Win32,85.47008547,,,,,,,,,,,,,,,,902.4257,903.9782,903.9784,904.5429,return,0.0506,,99.34895833,,,,,,FBP-OG-91.png,0.45,1.2,45,0.75,,,,,,,,,,,,,,,,,,0,37,37,44,1,,,,,,,,,,,,,,,,,,,,,,,
,,,,,V3_036,18,Female,2024-10-25_17h06.59.631,jersey_experiment_5_v3,2023.2.2,Win32,85.47008547,,,,,,,,,,,,,,,,904.5431,906.0961,906.0961,906.7079,return,0.071,,72.65625,,,,,,FBP-OG-71.png,0.4,1.2,33,0.75,,,,,,,,,,,,,,,,,,0,38,38,32,1,,,,,,,,,,,,,,,,,,,,,,,
,,,,,V3_036,18,Female,2024-10-25_17h06.59.631,jersey_experiment_5_v3,2023.2.2,Win32,85.47008547,,,,,,,,,,,,,,,,906.7081,908.2495,908.2496,909.0727,return,0.1574,,75.52083333,,,,,,FBP-OG-81.png,0.37,1.2,37,0.75,,,,,,,,,,,,,,,,,,0,39,39,36,1,,,,,,,,,,,,,,,,,,,,,,,
,,,,,V3_036,18,Female,2024-10-25_17h06.59.631,jersey_experiment_5_v3,2023.2.2,Win32,85.47008547,,,,,,,,,,,,,,,,909.0729,910.3669,910.3669,911.0373,return,0.0287,,99.21875,,,,,,FBP-YG-19.png,0.45,1.2,15,0.5,,,,,,,,,,,,,,,,,,0,40,40,14,1,,,,,,,,,,,,,,,,,,,,,,,
,,,,,V3_036,18,Female,2024-10-25_17h06.59.631,jersey_experiment_5_v3,2023.2.2,Win32,85.47008547,,,,,,,,,,,,,,,,911.0375,912.3316,912.3317,913.5551,return,0.5045,,72.39583333,,,,,,FBP-PT-81.png,0.4,1.2,23,0.5,,,,,,,,,,,,,,,,,,0,41,41,22,1,,,,,,,,,,,,,,,,,,,,,,,
,,,,,V3_036,18,Female,2024-10-25_17h06.59.631,jersey_experiment_5_v3,2023.2.2,Win32,85.47008547,,,,,,,,,,,,,,,,913.5553,914.8491,914.8491,915.6612,return,0.0879,,99.08854167,,,,,,FBP-RB-71.png,0.43,1.2,49,0.5,,,,,,,,,,,,,,,,,,0,42,42,48,1,,,,,,,,,,,,,,,,,,,,,,,
,,,,,V3_036,18,Female,2024-10-25_17h06.59.631,jersey_experiment_5_v3,2023.2.2,Win32,85.47008547,,,,,,,,,,,,,,,,915.6614,917.214,917.2141,917.8611,return,0.0942,,75,,,,,,FBP-OG-81.png,0.4,1.2,38,0.75,,,,,,,,,,,,,,,,,,0,43,43,37,1,,,,,,,,,,,,,,,,,,,,,,,
,,,,,V3_036,18,Female,2024-10-25_17h06.59.631,jersey_experiment_5_v3,2023.2.2,Win32,85.47008547,,,,,,,,,,,,,,,,917.8613,919.1554,919.1554,919.7907,return,0.0746,,73.69791667,,,,,,FBP-PT-91.png,0.37,1.2,27,0.5,,,,,,,,,,,,,,,,,,0,44,44,26,1,,,,,,,,,,,,,,,,,,,,,,,
,,,,,V3_036,18,Female,2024-10-25_17h06.59.631,jersey_experiment_5_v3,2023.2.2,Win32,85.47008547,,,,,,,,,,,,,,,,919.791,921.0847,921.0848,923.5673,return,1.0041,,76.04166667,,,,,,FBP-PT-91.png,0.43,1.2,29,0.5,,,,,,,,,,,,,,,,,,0,45,45,28,1,,,,,,,,,,,,,,,,,,,,,,,
,,,,,V3_036,18,Female,2024-10-25_17h06.59.631,jersey_experiment_5_v3,2023.2.2,Win32,85.47008547,,,,,,,,,,,,,,,,923.5676,924.8616,924.8616,926.1319,return,0.6487,,74.86979167,,,,,,FBP-YG-17.png,0.43,1.2,4,0.5,,,,,,,,,,,,,,,,,,0,46,46,3,1,,,,,,,,,,,,,,,,,,,,,,,
,,,,,V3_036,18,Female,2024-10-25_17h06.59.631,jersey_experiment_5_v3,2023.2.2,Win32,85.47008547,,,,,,,,,,,,,,,,926.1322,927.4261,927.4262,928.1909,return,0.0976,,51.69270833,,,,,,FBP-RB-91.png,0.37,1.2,57,0.5,,,,,,,,,,,,,,,,,,0,47,47,56,1,,,,,,,,,,,,,,,,,,,,,,,
,,,,,V3_036,18,Female,2024-10-25_17h06.59.631,jersey_experiment_5_v3,2023.2.2,Win32,85.47008547,,,,,,,,,,,,,,,,928.1911,929.7439,929.7439,930.4968,return,0.0722,,75.26041667,,,,,,FBP-OG-81.png,0.43,1.2,39,0.75,,,,,,,,,,,,,,,,,,0,48,48,38,1,,,,,,,,,,,,,,,,,,,,,,,
,,,,,V3_036,18,Female,2024-10-25_17h06.59.631,jersey_experiment_5_v3,2023.2.2,Win32,85.47008547,,,,,,,,,,,,,,,,930.4971,931.791,931.791,932.2263,return,0.0861,,74.47916667,,,,,,FBP-YG-19.png,0.43,1.2,14,0.5,,,,,,,,,,,,,,,,,,0,49,49,13,1,,,,,,,,,,,,,,,,,,,,,,,
,,,,,V3_036,18,Female,2024-10-25_17h06.59.631,jersey_experiment_5_v3,2023.2.2,Win32,85.47008547,,,,,,,,,,,,,,,,932.2266,933.5204,933.5205,934.4616,return,0.1656,,98.17708333,,,,,,FBP-YG-17.png,0.45,1.2,5,0.5,,,,,,,,,,,,,,,,,,0,50,50,4,1,,,,,,,,,,,,,,,,,,,,,,,
,,,,,V3_036,18,Female,2024-10-25_17h06.59.631,jersey_experiment_5_v3,2023.2.2,Win32,85.47008547,,,,,,,,,,,,,,,,934.4619,935.756,935.756,936.45,return,0.1761,,75.52083333,,,,,,FBP-YG-17.png,0.4,1.2,3,0.5,,,,,,,,,,,,,,,,,,0,51,51,2,1,,,,,,,,,,,,,,,,,,,,,,,
,,,,,V3_036,18,Female,2024-10-25_17h06.59.631,jersey_experiment_5_v3,2023.2.2,Win32,85.47008547,,,,,,,,,,,,,,,,936.4503,937.7443,937.7443,938.5913,return,0.0582,,98.56770833,,,,,,FBP-RB-81.png,0.45,1.2,55,0.5,,,,,,,,,,,,,,,,,,0,52,52,54,1,,,,,,,,,,,,,,,,,,,,,,,
,,,,,V3_036,18,Female,2024-10-25_17h06.59.631,jersey_experiment_5_v3,2023.2.2,Win32,85.47008547,,,,,,,,,,,,,,,,938.5915,939.8858,939.8859,940.8503,return,0.1277,,99.47916667,,,,,,FBP-RB-71.png,0.45,1.2,50,0.5,,,,,,,,,,,,,,,,,,0,53,53,49,1,,,,,,,,,,,,,,,,,,,,,,,
,,,,,V3_036,18,Female,2024-10-25_17h06.59.631,jersey_experiment_5_v3,2023.2.2,Win32,85.47008547,,,,,,,,,,,,,,,,940.8505,942.4033,942.4033,943.5564,return,0.1416,,99.73958333,,,,,,FBP-OG-71.png,0.45,1.2,35,0.75,,,,,,,,,,,,,,,,,,0,54,54,34,1,,,,,,,,,,,,,,,,,,,,,,,
,,,,,V3_036,18,Female,2024-10-25_17h06.59.631,jersey_experiment_5_v3,2023.2.2,Win32,85.47008547,,,,,,,,,,,,,,,,943.5568,944.8503,944.8503,946.3564,return,0.7146,,73.4375,,,,,,FBP-PT-81.png,0.45,1.2,25,0.5,,,,,,,,,,,,,,,,,,0,55,55,24,1,,,,,,,,,,,,,,,,,,,,,,,
,,,,,V3_036,18,Female,2024-10-25_17h06.59.631,jersey_experiment_5_v3,2023.2.2,Win32,85.47008547,,,,,,,,,,,,,,,,946.3567,947.6505,947.6505,948.4033,return,0.1255,,73.17708333,,,,,,FBP-RB-91.png,0.4,1.2,58,0.5,,,,,,,,,,,,,,,,,,0,56,56,57,1,,,,,,,,,,,,,,,,,,,,,,,
,,,,,V3_036,18,Female,2024-10-25_17h06.59.631,jersey_experiment_5_v3,2023.2.2,Win32,85.47008547,,,,,,,,,,,,,,,,948.4036,949.945,949.9451,950.6859,return,0.0865,,99.47916667,,,,,,FBP-OG-81.png,0.45,1.2,40,0.75,,,,,,,,,,,,,,,,,,0,57,57,39,1,,,,,,,,,,,,,,,,,,,,,,,
,,,,,V3_036,18,Female,2024-10-25_17h06.59.631,jersey_experiment_5_v3,2023.2.2,Win32,85.47008547,,,,,,,,,,,,,,,,950.6863,951.98,951.98,952.7329,return,0.0377,,74.86979167,,,,,,FBP-PT-91.png,0.4,1.2,28,0.5,,,,,,,,,,,,,,,,,,0,58,58,27,1,,,,,,,,,,,,,,,,,,,,,,,
,,,,,V3_036,18,Female,2024-10-25_17h06.59.631,jersey_experiment_5_v3,2023.2.2,Win32,85.47008547,,,,,,,,,,,,,,,,952.7332,954.0273,954.0273,954.7567,return,0.0552,,50.91145833,,,,,,FBP-PT-91.png,0.35,1.2,26,0.5,,,,,,,,,,,,,,,,,,0,59,59,25,1,,,,,,,,,,,,,,,,,,,,,,,
,,,,,V3_036,18,Female,2024-10-25_17h06.59.631,jersey_experiment_5_v3,2023.2.2,Win32,85.47008547,,,,,,,,,,,,,,,,,,,,,,,,,,,,,,,,,,,,,,,,,,,,,,,,,,,,,,,,954.757,960.4514,return,5.679,,,,,,,,,,,,,,,,,,,
,,,,,V3_036,18,Female,2024-10-25_17h06.59.631,jersey_experiment_5_v3,2023.2.2,Win32,85.47008547,,,,,,,,,,,,,,,,,,,,,,,,,,,,,,,,,,,,,,,,,,,,,,,,,,,,,,,,,,,,,960.4515,967.0045,1,5.2138,return,1.32,,,,,,,,,,,,
,,,,,V3_036,18,Female,2024-10-25_17h06.59.631,jersey_experiment_5_v3,2023.2.2,Win32,85.47008547,,,,,,,,,,,,,,,,,,,,,,,,,,,,,,,,,,,,,,,,,,,,,,,,,,,,,,,,,,,,,,,,,,,,967.0046,1011.7389,I thought this study had to perception on,right,44.2473,,,,,,
,,,,,V3_036,18,Female,2024-10-25_17h06.59.631,jersey_experiment_5_v3,2023.2.2,Win32,85.47008547,,,,,,,,,,,,,,,,,,,,,,,,,,,,,,,,,,,,,,,,,,,,,,,,,,,,,,,,,,,,,,,,,,,,,,,,,,1011.739,1049.1046,return,37.3513,