requirements.started,requirements.stopped,key_resp_3.keys,key_resp_3.rt,key_resp_3.duration,Subject ID,Age,Gender,date,expName,psychopyVersion,OS,frameRate,instructions1.started,instructions1.stopped,key_resp.keys,key_resp.rt,key_resp.duration,example.started,example.stopped,enter_2.keys,enter_2.rt,enter_2.duration,instructions2.started,instructions2.stopped,enter_3.keys,enter_3.rt,enter_3.duration,image.started,image.stopped,slider_2.started,slider_2.stopped,next.keys,next.rt,next.duration,slider.response,trial_block_1.thisRepN,trial_block_1.thisTrialN,trial_block_1.thisN,trial_block_1.thisIndex,trial_block_1.ran,Path,Width,Height,Index,Duration,trial_block_2.thisRepN,trial_block_2.thisTrialN,trial_block_2.thisN,trial_block_2.thisIndex,trial_block_2.ran,rest_break.started,rest_break.stopped,end_break.started,end_break.stopped,key_resp_5.keys,key_resp_5.rt,key_resp_5.duration,trial_block_3.thisRepN,trial_block_3.thisTrialN,trial_block_3.thisN,trial_block_3.thisIndex,trial_block_3.ran,trial_block_4.thisRepN,trial_block_4.thisTrialN,trial_block_4.thisN,trial_block_4.thisIndex,trial_block_4.ran,questions_intro.started,questions_intro.stopped,enter_12.keys,enter_12.rt,enter_12.duration,question2.started,question2.stopped,question_doingbest.response,question_doingbest.rt,enter_15.keys,enter_15.rt,enter_15.duration,pattern.started,pattern.stopped,pattern_2.text,enter_17.keys,enter_17.rt,enter_17.duration,thankyou.started,thankyou.stopped,enter_14.keys,enter_14.rt,enter_14.duration
1E-04,10.8778,return,10.8688,,V3_088,20,Male,2024-11-22_17h04.56.016,jersey_experiment_5_v3,2023.2.2,Win32,85.47008547,,,,,,,,,,,,,,,,,,,,,,,,,,,,,,,,,,,,,,,,,,,,,,,,,,,,,,,,,,,,,,,,,,,,,,,,,,,,,,
,,,,,V3_088,20,Male,2024-11-22_17h04.56.016,jersey_experiment_5_v3,2023.2.2,Win32,85.47008547,10.878,18.7746,return,7.8821,,,,,,,,,,,,,,,,,,,,,,,,,,,,,,,,,,,,,,,,,,,,,,,,,,,,,,,,,,,,,,,,,,,,,,,,,,
,,,,,V3_088,20,Male,2024-11-22_17h04.56.016,jersey_experiment_5_v3,2023.2.2,Win32,85.47008547,,,,,,18.7747,23.7451,return,4.9395,,,,,,,,,,,,,,,,,,,,,,,,,,,,,,,,,,,,,,,,,,,,,,,,,,,,,,,,,,,,,,,,,,,,,
,,,,,V3_088,20,Male,2024-11-22_17h04.56.016,jersey_experiment_5_v3,2023.2.2,Win32,85.47008547,,,,,,,,,,,23.7452,46.7459,return,22.9914,,,,,,,,,,,,,,,,,,,,,,,,,,,,,,,,,,,,,,,,,,,,,,,,,,,,,,,,,,,,,,,,
,,,,,V3_088,20,Male,2024-11-22_17h04.56.016,jersey_experiment_5_v3,2023.2.2,Win32,85.47008547,,,,,,,,,,,,,,,,46.7494,48.0518,48.052,66.9114,return,5.4355,,62.23958333,0,0,0,34,1,FBP-OG-17.png,0.45,1.2,35,0.5,,,,,,,,,,,,,,,,,,,,,,,,,,,,,,,,,,,,,,,,,,,,,
,,,,,V3_088,20,Male,2024-11-22_17h04.56.016,jersey_experiment_5_v3,2023.2.2,Win32,85.47008547,,,,,,,,,,,,,,,,66.9118,68.4641,68.4642,72.1114,return,0.9179,,24.86979167,0,1,1,25,1,FBP-PT-19.png,0.35,1.2,26,0.75,,,,,,,,,,,,,,,,,,,,,,,,,,,,,,,,,,,,,,,,,,,,,
,,,,,V3_088,20,Male,2024-11-22_17h04.56.016,jersey_experiment_5_v3,2023.2.2,Win32,85.47008547,,,,,,,,,,,,,,,,72.1117,73.6644,73.6644,77.2293,return,0.9304,,62.109375,0,2,2,13,1,FBP-YG-91.png,0.43,1.2,14,0.75,,,,,,,,,,,,,,,,,,,,,,,,,,,,,,,,,,,,,,,,,,,,,
,,,,,V3_088,20,Male,2024-11-22_17h04.56.016,jersey_experiment_5_v3,2023.2.2,Win32,85.47008547,,,,,,,,,,,,,,,,77.2295,78.7822,78.7823,82.4883,return,2.1946,,75,0,3,3,29,1,FBP-PT-19.png,0.45,1.2,30,0.75,,,,,,,,,,,,,,,,,,,,,,,,,,,,,,,,,,,,,,,,,,,,,
,,,,,V3_088,20,Male,2024-11-22_17h04.56.016,jersey_experiment_5_v3,2023.2.2,Win32,85.47008547,,,,,,,,,,,,,,,,82.4886,84.0413,84.0414,89.0063,return,3.6826,,75,0,4,4,9,1,FBP-YG-81.png,0.45,1.2,10,0.75,,,,,,,,,,,,,,,,,,,,,,,,,,,,,,,,,,,,,,,,,,,,,
,,,,,V3_088,20,Male,2024-11-22_17h04.56.016,jersey_experiment_5_v3,2023.2.2,Win32,85.47008547,,,,,,,,,,,,,,,,89.0065,90.5592,90.5593,101.9008,return,2.5749,,50,0,5,5,48,1,FBP-RB-17.png,0.43,1.2,49,0.75,,,,,,,,,,,,,,,,,,,,,,,,,,,,,,,,,,,,,,,,,,,,,
,,,,,V3_088,20,Male,2024-11-22_17h04.56.016,jersey_experiment_5_v3,2023.2.2,Win32,85.47008547,,,,,,,,,,,,,,,,101.9011,103.4538,103.4539,108.9599,return,3.624,,62.36979167,0,6,6,53,1,FBP-RB-18.png,0.43,1.2,54,0.75,,,,,,,,,,,,,,,,,,,,,,,,,,,,,,,,,,,,,,,,,,,,,
,,,,,V3_088,20,Male,2024-11-22_17h04.56.016,jersey_experiment_5_v3,2023.2.2,Win32,85.47008547,,,,,,,,,,,,,,,,108.9602,110.5129,110.5129,116.3601,return,4.3556,,74.86979167,0,7,7,4,1,FBP-YG-71.png,0.45,1.2,5,0.75,,,,,,,,,,,,,,,,,,,,,,,,,,,,,,,,,,,,,,,,,,,,,
,,,,,V3_088,20,Male,2024-11-22_17h04.56.016,jersey_experiment_5_v3,2023.2.2,Win32,85.47008547,,,,,,,,,,,,,,,,116.3603,117.9131,117.9132,121.7839,return,1.4189,,37.63020833,0,8,8,57,1,FBP-RB-19.png,0.4,1.2,58,0.75,,,,,,,,,,,,,,,,,,,,,,,,,,,,,,,,,,,,,,,,,,,,,
,,,,,V3_088,20,Male,2024-11-22_17h04.56.016,jersey_experiment_5_v3,2023.2.2,Win32,85.47008547,,,,,,,,,,,,,,,,121.7841,123.3433,123.3433,127.367,return,2.015,,12.890625,0,9,9,56,1,FBP-RB-19.png,0.37,1.2,57,0.75,,,,,,,,,,,,,,,,,,,,,,,,,,,,,,,,,,,,,,,,,,,,,
,,,,,V3_088,20,Male,2024-11-22_17h04.56.016,jersey_experiment_5_v3,2023.2.2,Win32,85.47008547,,,,,,,,,,,,,,,,127.3672,128.9135,128.9135,138.9057,return,7.9619,,24.73958333,0,10,10,6,1,FBP-YG-81.png,0.37,1.2,7,0.75,,,,,,,,,,,,,,,,,,,,,,,,,,,,,,,,,,,,,,,,,,,,,
,,,,,V3_088,20,Male,2024-11-22_17h04.56.016,jersey_experiment_5_v3,2023.2.2,Win32,85.47008547,,,,,,,,,,,,,,,,138.9059,140.4553,140.4553,145.6357,return,2.8328,,0.520833333,0,11,11,10,1,FBP-YG-91.png,0.35,1.2,11,0.75,,,,,,,,,,,,,,,,,,,,,,,,,,,,,,,,,,,,,,,,,,,,,
,,,,,V3_088,20,Male,2024-11-22_17h04.56.016,jersey_experiment_5_v3,2023.2.2,Win32,85.47008547,,,,,,,,,,,,,,,,145.6359,147.1778,147.1778,150.6621,return,1.7564,,87.5,0,12,12,17,1,FBP-PT-17.png,0.4,1.2,18,0.75,,,,,,,,,,,,,,,,,,,,,,,,,,,,,,,,,,,,,,,,,,,,,
,,,,,V3_088,20,Male,2024-11-22_17h04.56.016,jersey_experiment_5_v3,2023.2.2,Win32,85.47008547,,,,,,,,,,,,,,,,150.6622,152.2085,152.2086,156.3649,return,2.5412,,0.651041667,0,13,13,55,1,FBP-RB-19.png,0.35,1.2,56,0.75,,,,,,,,,,,,,,,,,,,,,,,,,,,,,,,,,,,,,,,,,,,,,
,,,,,V3_088,20,Male,2024-11-22_17h04.56.016,jersey_experiment_5_v3,2023.2.2,Win32,85.47008547,,,,,,,,,,,,,,,,156.3651,157.9091,157.9092,160.3889,return,1.4123,,99.34895833,0,14,14,49,1,FBP-RB-17.png,0.45,1.2,50,0.75,,,,,,,,,,,,,,,,,,,,,,,,,,,,,,,,,,,,,,,,,,,,,
,,,,,V3_088,20,Male,2024-11-22_17h04.56.016,jersey_experiment_5_v3,2023.2.2,Win32,85.47008547,,,,,,,,,,,,,,,,160.389,161.9329,161.9329,166.7903,return,1.9867,,12.63020833,0,15,15,45,1,FBP-RB-17.png,0.35,1.2,46,0.75,,,,,,,,,,,,,,,,,,,,,,,,,,,,,,,,,,,,,,,,,,,,,
,,,,,V3_088,20,Male,2024-11-22_17h04.56.016,jersey_experiment_5_v3,2023.2.2,Win32,85.47008547,,,,,,,,,,,,,,,,166.7904,168.0977,168.0977,171.1623,return,1.5698,,0.78125,0,16,16,30,1,FBP-OG-17.png,0.35,1.2,31,0.5,,,,,,,,,,,,,,,,,,,,,,,,,,,,,,,,,,,,,,,,,,,,,
,,,,,V3_088,20,Male,2024-11-22_17h04.56.016,jersey_experiment_5_v3,2023.2.2,Win32,85.47008547,,,,,,,,,,,,,,,,171.1626,172.7097,172.7098,178.3658,return,4.6827,,0,0,17,17,0,1,FBP-YG-71.png,0.35,1.2,1,0.75,,,,,,,,,,,,,,,,,,,,,,,,,,,,,,,,,,,,,,,,,,,,,
,,,,,V3_088,20,Male,2024-11-22_17h04.56.016,jersey_experiment_5_v3,2023.2.2,Win32,85.47008547,,,,,,,,,,,,,,,,178.3661,179.9101,179.9101,183.2753,return,2.0004,,87.36979167,0,18,18,3,1,FBP-YG-71.png,0.43,1.2,4,0.75,,,,,,,,,,,,,,,,,,,,,,,,,,,,,,,,,,,,,,,,,,,,,
,,,,,V3_088,20,Male,2024-11-22_17h04.56.016,jersey_experiment_5_v3,2023.2.2,Win32,85.47008547,,,,,,,,,,,,,,,,183.2755,184.8216,184.8217,187.5661,return,1.718,,99.47916667,0,19,19,54,1,FBP-RB-18.png,0.45,1.2,55,0.75,,,,,,,,,,,,,,,,,,,,,,,,,,,,,,,,,,,,,,,,,,,,,
,,,,,V3_088,20,Male,2024-11-22_17h04.56.016,jersey_experiment_5_v3,2023.2.2,Win32,85.47008547,,,,,,,,,,,,,,,,187.5664,189.119,189.119,192.2639,return,1.8036,,12.63020833,0,20,20,5,1,FBP-YG-81.png,0.35,1.2,6,0.75,,,,,,,,,,,,,,,,,,,,,,,,,,,,,,,,,,,,,,,,,,,,,
,,,,,V3_088,20,Male,2024-11-22_17h04.56.016,jersey_experiment_5_v3,2023.2.2,Win32,85.47008547,,,,,,,,,,,,,,,,192.264,193.8101,193.8102,197.614,return,2.4714,,62.36979167,0,21,21,12,1,FBP-YG-91.png,0.4,1.2,13,0.75,,,,,,,,,,,,,,,,,,,,,,,,,,,,,,,,,,,,,,,,,,,,,
,,,,,V3_088,20,Male,2024-11-22_17h04.56.016,jersey_experiment_5_v3,2023.2.2,Win32,85.47008547,,,,,,,,,,,,,,,,197.6141,198.9074,198.9074,201.9114,return,1.4593,,12.23958333,0,22,22,31,1,FBP-OG-17.png,0.37,1.2,32,0.5,,,,,,,,,,,,,,,,,,,,,,,,,,,,,,,,,,,,,,,,,,,,,
,,,,,V3_088,20,Male,2024-11-22_17h04.56.016,jersey_experiment_5_v3,2023.2.2,Win32,85.47008547,,,,,,,,,,,,,,,,201.9115,203.4639,203.4639,206.0762,return,1.4827,,11.19791667,0,23,23,51,1,FBP-RB-18.png,0.37,1.2,52,0.75,,,,,,,,,,,,,,,,,,,,,,,,,,,,,,,,,,,,,,,,,,,,,
,,,,,V3_088,20,Male,2024-11-22_17h04.56.016,jersey_experiment_5_v3,2023.2.2,Win32,85.47008547,,,,,,,,,,,,,,,,206.0764,207.3755,207.3755,210.7755,return,2.3364,,100,0,24,24,33,1,FBP-OG-17.png,0.43,1.2,34,0.5,,,,,,,,,,,,,,,,,,,,,,,,,,,,,,,,,,,,,,,,,,,,,
,,,,,V3_088,20,Male,2024-11-22_17h04.56.016,jersey_experiment_5_v3,2023.2.2,Win32,85.47008547,,,,,,,,,,,,,,,,210.7756,212.3349,212.3349,220.8583,return,5.4054,,61.71875,0,25,25,1,1,FBP-YG-71.png,0.37,1.2,2,0.75,,,,,,,,,,,,,,,,,,,,,,,,,,,,,,,,,,,,,,,,,,,,,
,,,,,V3_088,20,Male,2024-11-22_17h04.56.016,jersey_experiment_5_v3,2023.2.2,Win32,85.47008547,,,,,,,,,,,,,,,,220.8585,222.4059,222.4059,225.7947,return,1.6947,,99.34895833,0,26,26,59,1,FBP-RB-19.png,0.45,1.2,60,0.75,,,,,,,,,,,,,,,,,,,,,,,,,,,,,,,,,,,,,,,,,,,,,
,,,,,V3_088,20,Male,2024-11-22_17h04.56.016,jersey_experiment_5_v3,2023.2.2,Win32,85.47008547,,,,,,,,,,,,,,,,225.7949,227.3408,227.3409,231.3006,return,2.6122,,61.84895833,0,27,27,26,1,FBP-PT-19.png,0.37,1.2,27,0.75,,,,,,,,,,,,,,,,,,,,,,,,,,,,,,,,,,,,,,,,,,,,,
,,,,,V3_088,20,Male,2024-11-22_17h04.56.016,jersey_experiment_5_v3,2023.2.2,Win32,85.47008547,,,,,,,,,,,,,,,,231.3008,232.5999,232.5999,235.8268,return,1.741,,99.47916667,0,28,28,43,1,FBP-OG-19.png,0.43,1.2,44,0.5,,,,,,,,,,,,,,,,,,,,,,,,,,,,,,,,,,,,,,,,,,,,,
,,,,,V3_088,20,Male,2024-11-22_17h04.56.016,jersey_experiment_5_v3,2023.2.2,Win32,85.47008547,,,,,,,,,,,,,,,,235.827,237.1208,237.1209,239.7564,return,1.1618,,74.86979167,0,29,29,42,1,FBP-OG-19.png,0.4,1.2,43,0.5,,,,,,,,,,,,,,,,,,,,,,,,,,,,,,,,,,,,,,,,,,,,,
,,,,,V3_088,20,Male,2024-11-22_17h04.56.016,jersey_experiment_5_v3,2023.2.2,Win32,85.47008547,,,,,,,,,,,,,,,,239.7566,241.3007,241.3007,244.124,return,0.9879,,74.73958333,0,30,30,27,1,FBP-PT-19.png,0.4,1.2,28,0.75,,,,,,,,,,,,,,,,,,,,,,,,,,,,,,,,,,,,,,,,,,,,,
,,,,,V3_088,20,Male,2024-11-22_17h04.56.016,jersey_experiment_5_v3,2023.2.2,Win32,85.47008547,,,,,,,,,,,,,,,,244.1241,245.4271,245.4272,248.2358,return,0.991,,87.109375,0,31,31,37,1,FBP-OG-18.png,0.4,1.2,38,0.5,,,,,,,,,,,,,,,,,,,,,,,,,,,,,,,,,,,,,,,,,,,,,
,,,,,V3_088,20,Male,2024-11-22_17h04.56.016,jersey_experiment_5_v3,2023.2.2,Win32,85.47008547,,,,,,,,,,,,,,,,248.236,249.7888,249.7888,255.0478,return,3.5001,,75.13020833,0,32,32,52,1,FBP-RB-18.png,0.4,1.2,53,0.75,,,,,,,,,,,,,,,,,,,,,,,,,,,,,,,,,,,,,,,,,,,,,
,,,,,V3_088,20,Male,2024-11-22_17h04.56.016,jersey_experiment_5_v3,2023.2.2,Win32,85.47008547,,,,,,,,,,,,,,,,255.048,256.6009,256.6009,259.5134,return,1.8978,,100,0,33,33,19,1,FBP-PT-17.png,0.45,1.2,20,0.75,,,,,,,,,,,,,,,,,,,,,,,,,,,,,,,,,,,,,,,,,,,,,
,,,,,V3_088,20,Male,2024-11-22_17h04.56.016,jersey_experiment_5_v3,2023.2.2,Win32,85.47008547,,,,,,,,,,,,,,,,259.5135,260.8072,260.8073,266.5339,return,4.5181,,0,0,34,34,40,1,FBP-OG-19.png,0.35,1.2,41,0.5,,,,,,,,,,,,,,,,,,,,,,,,,,,,,,,,,,,,,,,,,,,,,
,,,,,V3_088,20,Male,2024-11-22_17h04.56.016,jersey_experiment_5_v3,2023.2.2,Win32,85.47008547,,,,,,,,,,,,,,,,266.5342,267.8428,267.8428,270.3694,return,0.9502,,74.73958333,0,35,35,32,1,FBP-OG-17.png,0.4,1.2,33,0.5,,,,,,,,,,,,,,,,,,,,,,,,,,,,,,,,,,,,,,,,,,,,,
,,,,,V3_088,20,Male,2024-11-22_17h04.56.016,jersey_experiment_5_v3,2023.2.2,Win32,85.47008547,,,,,,,,,,,,,,,,270.3697,271.9192,271.9192,274.1732,return,0.9565,,25,0,36,36,16,1,FBP-PT-17.png,0.37,1.2,17,0.75,,,,,,,,,,,,,,,,,,,,,,,,,,,,,,,,,,,,,,,,,,,,,
,,,,,V3_088,20,Male,2024-11-22_17h04.56.016,jersey_experiment_5_v3,2023.2.2,Win32,85.47008547,,,,,,,,,,,,,,,,274.1734,275.7261,275.7262,279.0018,return,1.6963,,75.13020833,0,37,37,58,1,FBP-RB-19.png,0.43,1.2,59,0.75,,,,,,,,,,,,,,,,,,,,,,,,,,,,,,,,,,,,,,,,,,,,,
,,,,,V3_088,20,Male,2024-11-22_17h04.56.016,jersey_experiment_5_v3,2023.2.2,Win32,85.47008547,,,,,,,,,,,,,,,,279.002,280.5582,280.5582,291.5146,return,1.1212,,1.953125,0,38,38,15,1,FBP-PT-17.png,0.35,1.2,16,0.75,,,,,,,,,,,,,,,,,,,,,,,,,,,,,,,,,,,,,,,,,,,,,
,,,,,V3_088,20,Male,2024-11-22_17h04.56.016,jersey_experiment_5_v3,2023.2.2,Win32,85.47008547,,,,,,,,,,,,,,,,291.5147,293.0674,293.0675,294.8408,return,0.965,,99.34895833,0,39,39,24,1,FBP-PT-18.png,0.45,1.2,25,0.75,,,,,,,,,,,,,,,,,,,,,,,,,,,,,,,,,,,,,,,,,,,,,
,,,,,V3_088,20,Male,2024-11-22_17h04.56.016,jersey_experiment_5_v3,2023.2.2,Win32,85.47008547,,,,,,,,,,,,,,,,294.841,296.3853,296.3854,298.4091,return,1.0122,,75,0,40,40,7,1,FBP-YG-81.png,0.4,1.2,8,0.75,,,,,,,,,,,,,,,,,,,,,,,,,,,,,,,,,,,,,,,,,,,,,
,,,,,V3_088,20,Male,2024-11-22_17h04.56.016,jersey_experiment_5_v3,2023.2.2,Win32,85.47008547,,,,,,,,,,,,,,,,298.4093,299.711,299.711,302.065,return,1.0444,,75,0,41,41,38,1,FBP-OG-18.png,0.43,1.2,39,0.5,,,,,,,,,,,,,,,,,,,,,,,,,,,,,,,,,,,,,,,,,,,,,
,,,,,V3_088,20,Male,2024-11-22_17h04.56.016,jersey_experiment_5_v3,2023.2.2,Win32,85.47008547,,,,,,,,,,,,,,,,302.0651,303.6091,303.6092,305.4917,return,0.9886,,0.260416667,0,42,42,46,1,FBP-RB-17.png,0.37,1.2,47,0.75,,,,,,,,,,,,,,,,,,,,,,,,,,,,,,,,,,,,,,,,,,,,,
,,,,,V3_088,20,Male,2024-11-22_17h04.56.016,jersey_experiment_5_v3,2023.2.2,Win32,85.47008547,,,,,,,,,,,,,,,,305.4918,307.0444,307.0444,309.5911,return,1.1575,,75,0,43,43,28,1,FBP-PT-19.png,0.43,1.2,29,0.75,,,,,,,,,,,,,,,,,,,,,,,,,,,,,,,,,,,,,,,,,,,,,
,,,,,V3_088,20,Male,2024-11-22_17h04.56.016,jersey_experiment_5_v3,2023.2.2,Win32,85.47008547,,,,,,,,,,,,,,,,309.5913,311.1387,311.1387,313.5947,return,0.9888,,24.86979167,0,44,44,11,1,FBP-YG-91.png,0.37,1.2,12,0.75,,,,,,,,,,,,,,,,,,,,,,,,,,,,,,,,,,,,,,,,,,,,,
,,,,,V3_088,20,Male,2024-11-22_17h04.56.016,jersey_experiment_5_v3,2023.2.2,Win32,85.47008547,,,,,,,,,,,,,,,,313.5948,315.1368,315.1369,319.0973,return,1.6877,,99.21875,0,45,45,18,1,FBP-PT-17.png,0.43,1.2,19,0.75,,,,,,,,,,,,,,,,,,,,,,,,,,,,,,,,,,,,,,,,,,,,,
,,,,,V3_088,20,Male,2024-11-22_17h04.56.016,jersey_experiment_5_v3,2023.2.2,Win32,85.47008547,,,,,,,,,,,,,,,,319.0976,320.6461,320.6461,322.7477,return,0.8787,,99.34895833,0,46,46,14,1,FBP-YG-91.png,0.45,1.2,15,0.75,,,,,,,,,,,,,,,,,,,,,,,,,,,,,,,,,,,,,,,,,,,,,
,,,,,V3_088,20,Male,2024-11-22_17h04.56.016,jersey_experiment_5_v3,2023.2.2,Win32,85.47008547,,,,,,,,,,,,,,,,322.7479,324.3007,324.3007,326.2975,return,0.8875,,99.34895833,0,47,47,8,1,FBP-YG-81.png,0.43,1.2,9,0.75,,,,,,,,,,,,,,,,,,,,,,,,,,,,,,,,,,,,,,,,,,,,,
,,,,,V3_088,20,Male,2024-11-22_17h04.56.016,jersey_experiment_5_v3,2023.2.2,Win32,85.47008547,,,,,,,,,,,,,,,,326.2978,327.8451,327.8451,330.1513,return,1.2859,,0.130208333,0,48,48,21,1,FBP-PT-18.png,0.37,1.2,22,0.75,,,,,,,,,,,,,,,,,,,,,,,,,,,,,,,,,,,,,,,,,,,,,
,,,,,V3_088,20,Male,2024-11-22_17h04.56.016,jersey_experiment_5_v3,2023.2.2,Win32,85.47008547,,,,,,,,,,,,,,,,330.1516,331.4507,331.4507,334.0422,return,0.9886,,99.21875,0,49,49,39,1,FBP-OG-18.png,0.45,1.2,40,0.5,,,,,,,,,,,,,,,,,,,,,,,,,,,,,,,,,,,,,,,,,,,,,
,,,,,V3_088,20,Male,2024-11-22_17h04.56.016,jersey_experiment_5_v3,2023.2.2,Win32,85.47008547,,,,,,,,,,,,,,,,334.0424,335.3515,335.3515,337.7518,return,0.8625,,0.390625,0,50,50,35,1,FBP-OG-18.png,0.35,1.2,36,0.5,,,,,,,,,,,,,,,,,,,,,,,,,,,,,,,,,,,,,,,,,,,,,
,,,,,V3_088,20,Male,2024-11-22_17h04.56.016,jersey_experiment_5_v3,2023.2.2,Win32,85.47008547,,,,,,,,,,,,,,,,337.752,339.3044,339.3045,341.446,return,0.792,,24.73958333,0,51,51,47,1,FBP-RB-17.png,0.4,1.2,48,0.75,,,,,,,,,,,,,,,,,,,,,,,,,,,,,,,,,,,,,,,,,,,,,
,,,,,V3_088,20,Male,2024-11-22_17h04.56.016,jersey_experiment_5_v3,2023.2.2,Win32,85.47008547,,,,,,,,,,,,,,,,341.4463,342.9986,342.9986,345.1868,return,0.8149,,74.86979167,0,52,52,22,1,FBP-PT-18.png,0.4,1.2,23,0.75,,,,,,,,,,,,,,,,,,,,,,,,,,,,,,,,,,,,,,,,,,,,,
,,,,,V3_088,20,Male,2024-11-22_17h04.56.016,jersey_experiment_5_v3,2023.2.2,Win32,85.47008547,,,,,,,,,,,,,,,,345.1869,346.74,346.7401,348.2458,return,0.768,,0.130208333,0,53,53,50,1,FBP-RB-18.png,0.35,1.2,51,0.75,,,,,,,,,,,,,,,,,,,,,,,,,,,,,,,,,,,,,,,,,,,,,
,,,,,V3_088,20,Male,2024-11-22_17h04.56.016,jersey_experiment_5_v3,2023.2.2,Win32,85.47008547,,,,,,,,,,,,,,,,348.246,349.799,349.7991,353.9019,return,0.3615,,1.953125,0,54,54,20,1,FBP-PT-18.png,0.35,1.2,21,0.75,,,,,,,,,,,,,,,,,,,,,,,,,,,,,,,,,,,,,,,,,,,,,
,,,,,V3_088,20,Male,2024-11-22_17h04.56.016,jersey_experiment_5_v3,2023.2.2,Win32,85.47008547,,,,,,,,,,,,,,,,353.902,355.4463,355.4463,357.5103,return,0.8783,,99.609375,0,55,55,23,1,FBP-PT-18.png,0.43,1.2,24,0.75,,,,,,,,,,,,,,,,,,,,,,,,,,,,,,,,,,,,,,,,,,,,,
,,,,,V3_088,20,Male,2024-11-22_17h04.56.016,jersey_experiment_5_v3,2023.2.2,Win32,85.47008547,,,,,,,,,,,,,,,,357.5106,359.07,359.07,361.3614,return,1.0212,,99.08854167,0,56,56,2,1,FBP-YG-71.png,0.4,1.2,3,0.75,,,,,,,,,,,,,,,,,,,,,,,,,,,,,,,,,,,,,,,,,,,,,
,,,,,V3_088,20,Male,2024-11-22_17h04.56.016,jersey_experiment_5_v3,2023.2.2,Win32,85.47008547,,,,,,,,,,,,,,,,361.3617,362.6551,362.6551,366.4823,return,0.9414,,74.609375,0,57,57,36,1,FBP-OG-18.png,0.37,1.2,37,0.5,,,,,,,,,,,,,,,,,,,,,,,,,,,,,,,,,,,,,,,,,,,,,
,,,,,V3_088,20,Male,2024-11-22_17h04.56.016,jersey_experiment_5_v3,2023.2.2,Win32,85.47008547,,,,,,,,,,,,,,,,366.4824,367.7814,367.7815,370.1344,return,0.852,,99.47916667,0,58,58,44,1,FBP-OG-19.png,0.45,1.2,45,0.5,,,,,,,,,,,,,,,,,,,,,,,,,,,,,,,,,,,,,,,,,,,,,
,,,,,V3_088,20,Male,2024-11-22_17h04.56.016,jersey_experiment_5_v3,2023.2.2,Win32,85.47008547,,,,,,,,,,,,,,,,370.1347,371.4319,371.4319,373.4003,return,0.8389,,24.86979167,0,59,59,41,1,FBP-OG-19.png,0.37,1.2,42,0.5,,,,,,,,,,,,,,,,,,,,,,,,,,,,,,,,,,,,,,,,,,,,,
,,,,,V3_088,20,Male,2024-11-22_17h04.56.016,jersey_experiment_5_v3,2023.2.2,Win32,85.47008547,,,,,,,,,,,,,,,,373.4017,374.6935,374.6935,377.0238,return,0.7684,,99.47916667,,,,,,FBP-OG-81.png,0.45,1.2,40,0.5,0,0,0,39,1,,,,,,,,,,,,,,,,,,,,,,,,,,,,,,,,,,,,,,,,
,,,,,V3_088,20,Male,2024-11-22_17h04.56.016,jersey_experiment_5_v3,2023.2.2,Win32,85.47008547,,,,,,,,,,,,,,,,377.0239,378.5764,378.5765,381.4239,return,1.1914,,99.34895833,,,,,,FBP-RB-71.png,0.43,1.2,49,0.75,0,1,1,48,1,,,,,,,,,,,,,,,,,,,,,,,,,,,,,,,,,,,,,,,,
,,,,,V3_088,20,Male,2024-11-22_17h04.56.016,jersey_experiment_5_v3,2023.2.2,Win32,85.47008547,,,,,,,,,,,,,,,,381.4241,382.718,382.718,387.8094,return,0.7148,,0.390625,,,,,,FBP-OG-91.png,0.35,1.2,41,0.5,0,2,2,40,1,,,,,,,,,,,,,,,,,,,,,,,,,,,,,,,,,,,,,,,,
,,,,,V3_088,20,Male,2024-11-22_17h04.56.016,jersey_experiment_5_v3,2023.2.2,Win32,85.47008547,,,,,,,,,,,,,,,,387.8095,389.1181,389.1181,391.8007,return,0.9885,,75.13020833,,,,,,FBP-OG-91.png,0.4,1.2,43,0.5,0,3,3,42,1,,,,,,,,,,,,,,,,,,,,,,,,,,,,,,,,,,,,,,,,
,,,,,V3_088,20,Male,2024-11-22_17h04.56.016,jersey_experiment_5_v3,2023.2.2,Win32,85.47008547,,,,,,,,,,,,,,,,391.8009,393.3541,393.3541,395.9403,return,0.6104,,25.13020833,,,,,,FBP-RB-91.png,0.37,1.2,57,0.75,0,4,4,56,1,,,,,,,,,,,,,,,,,,,,,,,,,,,,,,,,,,,,,,,,
,,,,,V3_088,20,Male,2024-11-22_17h04.56.016,jersey_experiment_5_v3,2023.2.2,Win32,85.47008547,,,,,,,,,,,,,,,,395.9405,397.4885,397.4885,399.6449,return,0.7527,,99.73958333,,,,,,FBP-PT-91.png,0.43,1.2,29,0.75,0,5,5,28,1,,,,,,,,,,,,,,,,,,,,,,,,,,,,,,,,,,,,,,,,
,,,,,V3_088,20,Male,2024-11-22_17h04.56.016,jersey_experiment_5_v3,2023.2.2,Win32,85.47008547,,,,,,,,,,,,,,,,399.645,401.1976,401.1977,403.7711,return,0.5765,,25.13020833,,,,,,FBP-PT-81.png,0.37,1.2,22,0.75,0,6,6,21,1,,,,,,,,,,,,,,,,,,,,,,,,,,,,,,,,,,,,,,,,
,,,,,V3_088,20,Male,2024-11-22_17h04.56.016,jersey_experiment_5_v3,2023.2.2,Win32,85.47008547,,,,,,,,,,,,,,,,403.7714,405.0652,405.0653,407.0571,return,0.6671,,99.73958333,,,,,,FBP-OG-71.png,0.45,1.2,35,0.5,0,7,7,34,1,,,,,,,,,,,,,,,,,,,,,,,,,,,,,,,,,,,,,,,,
,,,,,V3_088,20,Male,2024-11-22_17h04.56.016,jersey_experiment_5_v3,2023.2.2,Win32,85.47008547,,,,,,,,,,,,,,,,407.0572,408.6097,408.6098,411.2221,return,1.5064,,75,,,,,,FBP-PT-71.png,0.4,1.2,18,0.75,0,8,8,17,1,,,,,,,,,,,,,,,,,,,,,,,,,,,,,,,,,,,,,,,,
,,,,,V3_088,20,Male,2024-11-22_17h04.56.016,jersey_experiment_5_v3,2023.2.2,Win32,85.47008547,,,,,,,,,,,,,,,,411.2223,412.7748,412.7748,415.7547,return,0.6977,,99.21875,,,,,,FBP-RB-71.png,0.45,1.2,50,0.75,0,9,9,49,1,,,,,,,,,,,,,,,,,,,,,,,,,,,,,,,,,,,,,,,,
,,,,,V3_088,20,Male,2024-11-22_17h04.56.016,jersey_experiment_5_v3,2023.2.2,Win32,85.47008547,,,,,,,,,,,,,,,,415.7549,417.0566,417.0566,419.081,return,0.8942,,99.21875,,,,,,FBP-OG-81.png,0.43,1.2,39,0.5,0,10,10,38,1,,,,,,,,,,,,,,,,,,,,,,,,,,,,,,,,,,,,,,,,
,,,,,V3_088,20,Male,2024-11-22_17h04.56.016,jersey_experiment_5_v3,2023.2.2,Win32,85.47008547,,,,,,,,,,,,,,,,419.0811,420.6253,420.6253,422.7201,return,0.8947,,25,,,,,,FBP-RB-81.png,0.37,1.2,52,0.75,0,11,11,51,1,,,,,,,,,,,,,,,,,,,,,,,,,,,,,,,,,,,,,,,,
,,,,,V3_088,20,Male,2024-11-22_17h04.56.016,jersey_experiment_5_v3,2023.2.2,Win32,85.47008547,,,,,,,,,,,,,,,,422.7203,424.2659,424.2661,426.1872,return,0.7533,,99.47916667,,,,,,FBP-PT-81.png,0.45,1.2,25,0.75,0,12,12,24,1,,,,,,,,,,,,,,,,,,,,,,,,,,,,,,,,,,,,,,,,
,,,,,V3_088,20,Male,2024-11-22_17h04.56.016,jersey_experiment_5_v3,2023.2.2,Win32,85.47008547,,,,,,,,,,,,,,,,426.1874,427.481,427.481,432.6779,return,0.6878,,74.86979167,,,,,,FBP-OG-91.png,0.43,1.2,44,0.5,0,13,13,43,1,,,,,,,,,,,,,,,,,,,,,,,,,,,,,,,,,,,,,,,,
,,,,,V3_088,20,Male,2024-11-22_17h04.56.016,jersey_experiment_5_v3,2023.2.2,Win32,85.47008547,,,,,,,,,,,,,,,,432.6782,434.2311,434.2312,436.7905,return,0.7289,,74.86979167,,,,,,FBP-RB-71.png,0.4,1.2,48,0.75,0,14,14,47,1,,,,,,,,,,,,,,,,,,,,,,,,,,,,,,,,,,,,,,,,
,,,,,V3_088,20,Male,2024-11-22_17h04.56.016,jersey_experiment_5_v3,2023.2.2,Win32,85.47008547,,,,,,,,,,,,,,,,436.7907,438.3432,438.3432,440.3908,return,0.9801,,99.34895833,,,,,,FBP-YG-18.png,0.45,1.2,10,0.75,0,15,15,9,1,,,,,,,,,,,,,,,,,,,,,,,,,,,,,,,,,,,,,,,,
,,,,,V3_088,20,Male,2024-11-22_17h04.56.016,jersey_experiment_5_v3,2023.2.2,Win32,85.47008547,,,,,,,,,,,,,,,,440.3909,441.6902,441.6903,444.6497,return,1.0036,,24.86979167,,,,,,FBP-OG-71.png,0.37,1.2,32,0.5,0,16,16,31,1,,,,,,,,,,,,,,,,,,,,,,,,,,,,,,,,,,,,,,,,
,,,,,V3_088,20,Male,2024-11-22_17h04.56.016,jersey_experiment_5_v3,2023.2.2,Win32,85.47008547,,,,,,,,,,,,,,,,444.6499,446.2028,446.2028,448.3438,return,0.9795,,99.86979167,,,,,,FBP-RB-91.png,0.45,1.2,60,0.75,0,17,17,59,1,,,,,,,,,,,,,,,,,,,,,,,,,,,,,,,,,,,,,,,,
,,,,,V3_088,20,Male,2024-11-22_17h04.56.016,jersey_experiment_5_v3,2023.2.2,Win32,85.47008547,,,,,,,,,,,,,,,,448.344,449.8967,449.8967,454.2672,return,1.1095,,75,,,,,,FBP-RB-81.png,0.4,1.2,53,0.75,0,18,18,52,1,,,,,,,,,,,,,,,,,,,,,,,,,,,,,,,,,,,,,,,,
,,,,,V3_088,20,Male,2024-11-22_17h04.56.016,jersey_experiment_5_v3,2023.2.2,Win32,85.47008547,,,,,,,,,,,,,,,,454.2675,455.5677,455.5677,458.0085,return,0.7438,,75,,,,,,FBP-OG-71.png,0.43,1.2,34,0.5,0,19,19,33,1,,,,,,,,,,,,,,,,,,,,,,,,,,,,,,,,,,,,,,,,
,,,,,V3_088,20,Male,2024-11-22_17h04.56.016,jersey_experiment_5_v3,2023.2.2,Win32,85.47008547,,,,,,,,,,,,,,,,458.0087,459.5677,459.5677,462.745,return,1.0505,,1.041666667,,,,,,FBP-YG-19.png,0.35,1.2,11,0.75,0,20,20,10,1,,,,,,,,,,,,,,,,,,,,,,,,,,,,,,,,,,,,,,,,
,,,,,V3_088,20,Male,2024-11-22_17h04.56.016,jersey_experiment_5_v3,2023.2.2,Win32,85.47008547,,,,,,,,,,,,,,,,462.7451,464.291,464.2911,466.486,return,0.7916,,75.13020833,,,,,,FBP-PT-81.png,0.43,1.2,24,0.75,0,21,21,23,1,,,,,,,,,,,,,,,,,,,,,,,,,,,,,,,,,,,,,,,,
,,,,,V3_088,20,Male,2024-11-22_17h04.56.016,jersey_experiment_5_v3,2023.2.2,Win32,85.47008547,,,,,,,,,,,,,,,,466.4861,467.7853,467.7854,471.3097,return,2.1886,,24.86979167,,,,,,FBP-OG-81.png,0.37,1.2,37,0.5,0,22,22,36,1,,,,,,,,,,,,,,,,,,,,,,,,,,,,,,,,,,,,,,,,
,,,,,V3_088,20,Male,2024-11-22_17h04.56.016,jersey_experiment_5_v3,2023.2.2,Win32,85.47008547,,,,,,,,,,,,,,,,471.3099,472.6037,472.6037,476.4952,return,0.4089,,0.260416667,,,,,,FBP-OG-71.png,0.35,1.2,31,0.5,0,23,23,30,1,,,,,,,,,,,,,,,,,,,,,,,,,,,,,,,,,,,,,,,,
,,,,,V3_088,20,Male,2024-11-22_17h04.56.016,jersey_experiment_5_v3,2023.2.2,Win32,85.47008547,,,,,,,,,,,,,,,,476.4954,478.0391,478.0391,480.1424,return,0.73,,75.26041667,,,,,,FBP-RB-91.png,0.4,1.2,58,0.75,0,24,24,57,1,,,,,,,,,,,,,,,,,,,,,,,,,,,,,,,,,,,,,,,,
,,,,,V3_088,20,Male,2024-11-22_17h04.56.016,jersey_experiment_5_v3,2023.2.2,Win32,85.47008547,,,,,,,,,,,,,,,,480.1425,481.6862,481.6863,483.4834,return,0.7298,,75,,,,,,FBP-YG-17.png,0.4,1.2,3,0.75,0,25,25,2,1,,,,,,,,,,,,,,,,,,,,,,,,,,,,,,,,,,,,,,,,
,,,,,V3_088,20,Male,2024-11-22_17h04.56.016,jersey_experiment_5_v3,2023.2.2,Win32,85.47008547,,,,,,,,,,,,,,,,483.4835,485.0366,485.0367,486.6131,return,0.7295,,99.86979167,,,,,,FBP-RB-81.png,0.43,1.2,54,0.75,0,26,26,53,1,,,,,,,,,,,,,,,,,,,,,,,,,,,,,,,,,,,,,,,,
,,,,,V3_088,20,Male,2024-11-22_17h04.56.016,jersey_experiment_5_v3,2023.2.2,Win32,85.47008547,,,,,,,,,,,,,,,,486.6132,488.1571,488.1572,490.0721,return,0.8085,,74.73958333,,,,,,FBP-YG-17.png,0.37,1.2,2,0.75,0,27,27,1,1,,,,,,,,,,,,,,,,,,,,,,,,,,,,,,,,,,,,,,,,
,,,,,V3_088,20,Male,2024-11-22_17h04.56.016,jersey_experiment_5_v3,2023.2.2,Win32,85.47008547,,,,,,,,,,,,,,,,490.0723,491.6159,491.6159,493.593,return,0.6504,,24.86979167,,,,,,FBP-RB-81.png,0.35,1.2,51,0.75,0,28,28,50,1,,,,,,,,,,,,,,,,,,,,,,,,,,,,,,,,,,,,,,,,
,,,,,V3_088,20,Male,2024-11-22_17h04.56.016,jersey_experiment_5_v3,2023.2.2,Win32,85.47008547,,,,,,,,,,,,,,,,493.5932,495.1459,495.1459,496.8248,return,0.7375,,99.21875,,,,,,FBP-PT-91.png,0.45,1.2,30,0.75,0,29,29,29,1,,,,,,,,,,,,,,,,,,,,,,,,,,,,,,,,,,,,,,,,
,,,,,V3_088,20,Male,2024-11-22_17h04.56.016,jersey_experiment_5_v3,2023.2.2,Win32,85.47008547,,,,,,,,,,,,,,,,496.8249,498.3748,498.3748,501.0989,return,1.2942,,0.651041667,,,,,,FBP-RB-71.png,0.35,1.2,46,0.75,0,30,30,45,1,,,,,,,,,,,,,,,,,,,,,,,,,,,,,,,,,,,,,,,,
,,,,,V3_088,20,Male,2024-11-22_17h04.56.016,jersey_experiment_5_v3,2023.2.2,Win32,85.47008547,,,,,,,,,,,,,,,,501.099,502.6455,502.6455,504.9816,return,0.8622,,1.692708333,,,,,,FBP-PT-91.png,0.35,1.2,26,0.75,0,31,31,25,1,,,,,,,,,,,,,,,,,,,,,,,,,,,,,,,,,,,,,,,,
,,,,,V3_088,20,Male,2024-11-22_17h04.56.016,jersey_experiment_5_v3,2023.2.2,Win32,85.47008547,,,,,,,,,,,,,,,,504.9818,506.5279,506.528,508.3552,return,0.6444,,75,,,,,,FBP-PT-81.png,0.4,1.2,23,0.75,0,32,32,22,1,,,,,,,,,,,,,,,,,,,,,,,,,,,,,,,,,,,,,,,,
,,,,,V3_088,20,Male,2024-11-22_17h04.56.016,jersey_experiment_5_v3,2023.2.2,Win32,85.47008547,,,,,,,,,,,,,,,,508.3554,509.6575,509.6576,511.8847,return,0.8088,,98.95833333,,,,,,FBP-OG-91.png,0.45,1.2,45,0.5,0,33,33,44,1,,,,,,,,,,,,,,,,,,,,,,,,,,,,,,,,,,,,,,,,
,,,,,V3_088,20,Male,2024-11-22_17h04.56.016,jersey_experiment_5_v3,2023.2.2,Win32,85.47008547,,,,,,,,,,,,,,,,511.8848,513.437,513.437,515.6967,return,1.0679,,74.86979167,,,,,,FBP-YG-18.png,0.4,1.2,8,0.75,0,34,34,7,1,,,,,,,,,,,,,,,,,,,,,,,,,,,,,,,,,,,,,,,,
,,,,,V3_088,20,Male,2024-11-22_17h04.56.016,jersey_experiment_5_v3,2023.2.2,Win32,85.47008547,,,,,,,,,,,,,,,,515.6968,517.2496,517.2496,519.1167,return,0.7868,,75,,,,,,FBP-PT-71.png,0.37,1.2,17,0.75,0,35,35,16,1,,,,,,,,,,,,,,,,,,,,,,,,,,,,,,,,,,,,,,,,
,,,,,V3_088,20,Male,2024-11-22_17h04.56.016,jersey_experiment_5_v3,2023.2.2,Win32,85.47008547,,,,,,,,,,,,,,,,519.1169,520.6611,520.6612,523.611,return,1.2123,,24.86979167,,,,,,FBP-YG-19.png,0.37,1.2,12,0.75,0,36,36,11,1,,,,,,,,,,,,,,,,,,,,,,,,,,,,,,,,,,,,,,,,
,,,,,V3_088,20,Male,2024-11-22_17h04.56.016,jersey_experiment_5_v3,2023.2.2,Win32,85.47008547,,,,,,,,,,,,,,,,523.6112,524.9051,524.9052,532.7238,return,0.4859,,75,,,,,,FBP-OG-71.png,0.4,1.2,33,0.5,0,37,37,32,1,,,,,,,,,,,,,,,,,,,,,,,,,,,,,,,,,,,,,,,,
,,,,,V3_088,20,Male,2024-11-22_17h04.56.016,jersey_experiment_5_v3,2023.2.2,Win32,85.47008547,,,,,,,,,,,,,,,,532.724,534.0266,534.0266,536.4232,return,0.5454,,50,,,,,,FBP-OG-81.png,0.4,1.2,38,0.5,0,38,38,37,1,,,,,,,,,,,,,,,,,,,,,,,,,,,,,,,,,,,,,,,,
,,,,,V3_088,20,Male,2024-11-22_17h04.56.016,jersey_experiment_5_v3,2023.2.2,Win32,85.47008547,,,,,,,,,,,,,,,,536.4235,537.9709,537.971,539.7355,return,0.6118,,75,,,,,,FBP-YG-19.png,0.43,1.2,14,0.75,0,39,39,13,1,,,,,,,,,,,,,,,,,,,,,,,,,,,,,,,,,,,,,,,,
,,,,,V3_088,20,Male,2024-11-22_17h04.56.016,jersey_experiment_5_v3,2023.2.2,Win32,85.47008547,,,,,,,,,,,,,,,,539.7357,541.2892,541.2892,542.9124,return,0.6978,,74.86979167,,,,,,FBP-YG-18.png,0.43,1.2,9,0.75,0,40,40,8,1,,,,,,,,,,,,,,,,,,,,,,,,,,,,,,,,,,,,,,,,
,,,,,V3_088,20,Male,2024-11-22_17h04.56.016,jersey_experiment_5_v3,2023.2.2,Win32,85.47008547,,,,,,,,,,,,,,,,542.9126,544.4652,544.4653,546.0272,return,0.5652,,24.86979167,,,,,,FBP-PT-91.png,0.37,1.2,27,0.75,0,41,41,26,1,,,,,,,,,,,,,,,,,,,,,,,,,,,,,,,,,,,,,,,,
,,,,,V3_088,20,Male,2024-11-22_17h04.56.016,jersey_experiment_5_v3,2023.2.2,Win32,85.47008547,,,,,,,,,,,,,,,,546.0274,547.5801,547.5802,549.1809,return,0.7537,,99.08854167,,,,,,FBP-PT-71.png,0.43,1.2,19,0.75,0,42,42,18,1,,,,,,,,,,,,,,,,,,,,,,,,,,,,,,,,,,,,,,,,
,,,,,V3_088,20,Male,2024-11-22_17h04.56.016,jersey_experiment_5_v3,2023.2.2,Win32,85.47008547,,,,,,,,,,,,,,,,549.181,550.7297,550.7297,552.9364,return,0.8943,,97.78645833,,,,,,FBP-YG-19.png,0.4,1.2,13,0.75,0,43,43,12,1,,,,,,,,,,,,,,,,,,,,,,,,,,,,,,,,,,,,,,,,
,,,,,V3_088,20,Male,2024-11-22_17h04.56.016,jersey_experiment_5_v3,2023.2.2,Win32,85.47008547,,,,,,,,,,,,,,,,552.9366,554.4895,554.4895,556.4895,return,0.5095,,12.890625,,,,,,FBP-YG-18.png,0.35,1.2,6,0.75,0,44,44,5,1,,,,,,,,,,,,,,,,,,,,,,,,,,,,,,,,,,,,,,,,
,,,,,V3_088,20,Male,2024-11-22_17h04.56.016,jersey_experiment_5_v3,2023.2.2,Win32,85.47008547,,,,,,,,,,,,,,,,556.4897,558.0422,558.0422,559.4307,return,0.5886,,0.911458333,,,,,,FBP-YG-17.png,0.35,1.2,1,0.75,0,45,45,0,1,,,,,,,,,,,,,,,,,,,,,,,,,,,,,,,,,,,,,,,,
,,,,,V3_088,20,Male,2024-11-22_17h04.56.016,jersey_experiment_5_v3,2023.2.2,Win32,85.47008547,,,,,,,,,,,,,,,,559.4309,560.977,560.977,563.5184,return,1.4923,,1.822916667,,,,,,FBP-YG-18.png,0.37,1.2,7,0.75,0,46,46,6,1,,,,,,,,,,,,,,,,,,,,,,,,,,,,,,,,,,,,,,,,
,,,,,V3_088,20,Male,2024-11-22_17h04.56.016,jersey_experiment_5_v3,2023.2.2,Win32,85.47008547,,,,,,,,,,,,,,,,563.5187,565.0631,565.0631,567.1101,return,0.8471,,98.95833333,,,,,,FBP-PT-71.png,0.45,1.2,20,0.75,0,47,47,19,1,,,,,,,,,,,,,,,,,,,,,,,,,,,,,,,,,,,,,,,,
,,,,,V3_088,20,Male,2024-11-22_17h04.56.016,jersey_experiment_5_v3,2023.2.2,Win32,85.47008547,,,,,,,,,,,,,,,,567.1102,568.404,568.404,571.6192,return,0.7682,,36.58854167,,,,,,FBP-OG-81.png,0.35,1.2,36,0.5,0,48,48,35,1,,,,,,,,,,,,,,,,,,,,,,,,,,,,,,,,,,,,,,,,
,,,,,V3_088,20,Male,2024-11-22_17h04.56.016,jersey_experiment_5_v3,2023.2.2,Win32,85.47008547,,,,,,,,,,,,,,,,571.6193,573.1723,573.1723,574.7659,return,0.8336,,37.23958333,,,,,,FBP-RB-71.png,0.37,1.2,47,0.75,0,49,49,46,1,,,,,,,,,,,,,,,,,,,,,,,,,,,,,,,,,,,,,,,,
,,,,,V3_088,20,Male,2024-11-22_17h04.56.016,jersey_experiment_5_v3,2023.2.2,Win32,85.47008547,,,,,,,,,,,,,,,,574.7661,576.3106,576.3107,578.0285,return,0.8005,,98.30729167,,,,,,FBP-YG-19.png,0.45,1.2,15,0.75,0,50,50,14,1,,,,,,,,,,,,,,,,,,,,,,,,,,,,,,,,,,,,,,,,
,,,,,V3_088,20,Male,2024-11-22_17h04.56.016,jersey_experiment_5_v3,2023.2.2,Win32,85.47008547,,,,,,,,,,,,,,,,578.0285,579.5725,579.5725,581.4788,return,0.7918,,97.78645833,,,,,,FBP-YG-17.png,0.45,1.2,5,0.75,0,51,51,4,1,,,,,,,,,,,,,,,,,,,,,,,,,,,,,,,,,,,,,,,,
,,,,,V3_088,20,Male,2024-11-22_17h04.56.016,jersey_experiment_5_v3,2023.2.2,Win32,85.47008547,,,,,,,,,,,,,,,,581.4789,583.0251,583.0251,585.3193,return,0.6866,,75.13020833,,,,,,FBP-YG-17.png,0.43,1.2,4,0.75,0,52,52,3,1,,,,,,,,,,,,,,,,,,,,,,,,,,,,,,,,,,,,,,,,
,,,,,V3_088,20,Male,2024-11-22_17h04.56.016,jersey_experiment_5_v3,2023.2.2,Win32,85.47008547,,,,,,,,,,,,,,,,585.3195,586.8669,586.8669,588.8908,return,0.9094,,0.390625,,,,,,FBP-RB-91.png,0.35,1.2,56,0.75,0,53,53,55,1,,,,,,,,,,,,,,,,,,,,,,,,,,,,,,,,,,,,,,,,
,,,,,V3_088,20,Male,2024-11-22_17h04.56.016,jersey_experiment_5_v3,2023.2.2,Win32,85.47008547,,,,,,,,,,,,,,,,588.8908,590.4441,590.4442,592.0285,return,0.8235,,0.651041667,,,,,,FBP-PT-81.png,0.35,1.2,21,0.75,0,54,54,20,1,,,,,,,,,,,,,,,,,,,,,,,,,,,,,,,,,,,,,,,,
,,,,,V3_088,20,Male,2024-11-22_17h04.56.016,jersey_experiment_5_v3,2023.2.2,Win32,85.47008547,,,,,,,,,,,,,,,,592.0288,593.573,593.5731,595.997,return,0.6507,,75,,,,,,FBP-PT-91.png,0.4,1.2,28,0.75,0,55,55,27,1,,,,,,,,,,,,,,,,,,,,,,,,,,,,,,,,,,,,,,,,
,,,,,V3_088,20,Male,2024-11-22_17h04.56.016,jersey_experiment_5_v3,2023.2.2,Win32,85.47008547,,,,,,,,,,,,,,,,595.9972,597.5497,597.5497,599.5116,return,1.0123,,98.30729167,,,,,,FBP-RB-81.png,0.45,1.2,55,0.75,0,56,56,54,1,,,,,,,,,,,,,,,,,,,,,,,,,,,,,,,,,,,,,,,,
,,,,,V3_088,20,Male,2024-11-22_17h04.56.016,jersey_experiment_5_v3,2023.2.2,Win32,85.47008547,,,,,,,,,,,,,,,,599.5117,601.0643,601.0644,603.3383,return,0.6974,,13.02083333,,,,,,FBP-PT-71.png,0.35,1.2,16,0.75,0,57,57,15,1,,,,,,,,,,,,,,,,,,,,,,,,,,,,,,,,,,,,,,,,
,,,,,V3_088,20,Male,2024-11-22_17h04.56.016,jersey_experiment_5_v3,2023.2.2,Win32,85.47008547,,,,,,,,,,,,,,,,603.3384,604.6322,604.6323,606.7789,return,1.108,,11.97916667,,,,,,FBP-OG-91.png,0.37,1.2,42,0.5,0,58,58,41,1,,,,,,,,,,,,,,,,,,,,,,,,,,,,,,,,,,,,,,,,
,,,,,V3_088,20,Male,2024-11-22_17h04.56.016,jersey_experiment_5_v3,2023.2.2,Win32,85.47008547,,,,,,,,,,,,,,,,606.7791,608.3317,608.3319,610.359,return,0.7998,,86.97916667,,,,,,FBP-RB-91.png,0.43,1.2,59,0.75,0,59,59,58,1,,,,,,,,,,,,,,,,,,,,,,,,,,,,,,,,,,,,,,,,
,,,,,V3_088,20,Male,2024-11-22_17h04.56.016,jersey_experiment_5_v3,2023.2.2,Win32,85.47008547,,,,,,,,,,,,,,,,,,,,,,,,,,,,,,,,,,,,,,,610.3592,730.3635,,,,,,,,,,,,,,,,,,,,,,,,,,,,,,,,,,,,,,
,,,,,V3_088,20,Male,2024-11-22_17h04.56.016,jersey_experiment_5_v3,2023.2.2,Win32,85.47008547,,,,,,,,,,,,,,,,,,,,,,,,,,,,,,,,,,,,,,,,,730.3635,733.5603,return,3.1797,,,,,,,,,,,,,,,,,,,,,,,,,,,,,,,,,,
,,,,,V3_088,20,Male,2024-11-22_17h04.56.016,jersey_experiment_5_v3,2023.2.2,Win32,85.47008547,,,,,,,,,,,,,,,,733.5616,735.1078,735.1079,738.5989,return,0.7616,,74.86979167,,,,,,FBP-OG-18.png,0.45,1.2,40,0.75,,,,,,,,,,,,,0,0,0,39,1,,,,,,,,,,,,,,,,,,,,,,,,,,,,
,,,,,V3_088,20,Male,2024-11-22_17h04.56.016,jersey_experiment_5_v3,2023.2.2,Win32,85.47008547,,,,,,,,,,,,,,,,738.5991,739.893,739.893,742.137,return,1.0735,,24.86979167,,,,,,FBP-RB-17.png,0.4,1.2,48,0.5,,,,,,,,,,,,,0,1,1,47,1,,,,,,,,,,,,,,,,,,,,,,,,,,,,
,,,,,V3_088,20,Male,2024-11-22_17h04.56.016,jersey_experiment_5_v3,2023.2.2,Win32,85.47008547,,,,,,,,,,,,,,,,742.1373,743.6813,743.6813,745.3201,return,0.5415,,75.13020833,,,,,,FBP-OG-18.png,0.43,1.2,39,0.75,,,,,,,,,,,,,0,2,2,38,1,,,,,,,,,,,,,,,,,,,,,,,,,,,,
,,,,,V3_088,20,Male,2024-11-22_17h04.56.016,jersey_experiment_5_v3,2023.2.2,Win32,85.47008547,,,,,,,,,,,,,,,,745.3202,746.6229,746.6229,750.0903,return,0.4989,,1.692708333,,,,,,FBP-RB-19.png,0.35,1.2,56,0.5,,,,,,,,,,,,,0,3,3,55,1,,,,,,,,,,,,,,,,,,,,,,,,,,,,
,,,,,V3_088,20,Male,2024-11-22_17h04.56.016,jersey_experiment_5_v3,2023.2.2,Win32,85.47008547,,,,,,,,,,,,,,,,750.0905,751.6346,751.6346,753.6434,return,0.756,,74.86979167,,,,,,FBP-OG-19.png,0.43,1.2,44,0.75,,,,,,,,,,,,,0,4,4,43,1,,,,,,,,,,,,,,,,,,,,,,,,,,,,
,,,,,V3_088,20,Male,2024-11-22_17h04.56.016,jersey_experiment_5_v3,2023.2.2,Win32,85.47008547,,,,,,,,,,,,,,,,753.6435,754.9436,754.9437,756.7558,return,0.6972,,24.73958333,,,,,,FBP-PT-18.png,0.37,1.2,22,0.5,,,,,,,,,,,,,0,5,5,21,1,,,,,,,,,,,,,,,,,,,,,,,,,,,,
,,,,,V3_088,20,Male,2024-11-22_17h04.56.016,jersey_experiment_5_v3,2023.2.2,Win32,85.47008547,,,,,,,,,,,,,,,,756.756,758.0499,758.05,759.9645,return,0.597,,99.609375,,,,,,FBP-YG-71.png,0.45,1.2,5,0.5,,,,,,,,,,,,,0,6,6,4,1,,,,,,,,,,,,,,,,,,,,,,,,,,,,
,,,,,V3_088,20,Male,2024-11-22_17h04.56.016,jersey_experiment_5_v3,2023.2.2,Win32,85.47008547,,,,,,,,,,,,,,,,759.9647,761.267,761.2671,763.5648,return,1.5061,,99.86979167,,,,,,FBP-RB-18.png,0.45,1.2,55,0.5,,,,,,,,,,,,,0,7,7,54,1,,,,,,,,,,,,,,,,,,,,,,,,,,,,
,,,,,V3_088,20,Male,2024-11-22_17h04.56.016,jersey_experiment_5_v3,2023.2.2,Win32,85.47008547,,,,,,,,,,,,,,,,763.5648,764.8736,764.8736,766.7327,return,0.9095,,99.86979167,,,,,,FBP-PT-19.png,0.43,1.2,29,0.5,,,,,,,,,,,,,0,8,8,28,1,,,,,,,,,,,,,,,,,,,,,,,,,,,,
,,,,,V3_088,20,Male,2024-11-22_17h04.56.016,jersey_experiment_5_v3,2023.2.2,Win32,85.47008547,,,,,,,,,,,,,,,,766.7329,768.2855,768.2855,770.1296,return,0.7061,,25,,,,,,FBP-OG-17.png,0.37,1.2,32,0.75,,,,,,,,,,,,,0,9,9,31,1,,,,,,,,,,,,,,,,,,,,,,,,,,,,
,,,,,V3_088,20,Male,2024-11-22_17h04.56.016,jersey_experiment_5_v3,2023.2.2,Win32,85.47008547,,,,,,,,,,,,,,,,770.1298,771.4391,771.4391,773.4948,return,0.9652,,25.13020833,,,,,,FBP-RB-19.png,0.37,1.2,57,0.5,,,,,,,,,,,,,0,10,10,56,1,,,,,,,,,,,,,,,,,,,,,,,,,,,,
,,,,,V3_088,20,Male,2024-11-22_17h04.56.016,jersey_experiment_5_v3,2023.2.2,Win32,85.47008547,,,,,,,,,,,,,,,,773.4949,774.7886,774.7886,776.5684,return,0.6605,,99.34895833,,,,,,FBP-YG-81.png,0.43,1.2,9,0.5,,,,,,,,,,,,,0,11,11,8,1,,,,,,,,,,,,,,,,,,,,,,,,,,,,
,,,,,V3_088,20,Male,2024-11-22_17h04.56.016,jersey_experiment_5_v3,2023.2.2,Win32,85.47008547,,,,,,,,,,,,,,,,776.5685,778.1216,778.1216,780.1458,return,0.7219,,98.69791667,,,,,,FBP-OG-18.png,0.4,1.2,38,0.75,,,,,,,,,,,,,0,12,12,37,1,,,,,,,,,,,,,,,,,,,,,,,,,,,,
,,,,,V3_088,20,Male,2024-11-22_17h04.56.016,jersey_experiment_5_v3,2023.2.2,Win32,85.47008547,,,,,,,,,,,,,,,,780.146,781.4477,781.4477,783.9571,return,0.7299,,50.26041667,,,,,,FBP-YG-91.png,0.35,1.2,11,0.5,,,,,,,,,,,,,0,13,13,10,1,,,,,,,,,,,,,,,,,,,,,,,,,,,,
,,,,,V3_088,20,Male,2024-11-22_17h04.56.016,jersey_experiment_5_v3,2023.2.2,Win32,85.47008547,,,,,,,,,,,,,,,,783.9572,785.5099,785.51,787.2513,return,0.9797,,25.13020833,,,,,,FBP-OG-17.png,0.35,1.2,31,0.75,,,,,,,,,,,,,0,14,14,30,1,,,,,,,,,,,,,,,,,,,,,,,,,,,,
,,,,,V3_088,20,Male,2024-11-22_17h04.56.016,jersey_experiment_5_v3,2023.2.2,Win32,85.47008547,,,,,,,,,,,,,,,,787.2515,788.5506,788.5506,790.413,return,0.5413,,25.26041667,,,,,,FBP-PT-19.png,0.37,1.2,27,0.5,,,,,,,,,,,,,0,15,15,26,1,,,,,,,,,,,,,,,,,,,,,,,,,,,,
,,,,,V3_088,20,Male,2024-11-22_17h04.56.016,jersey_experiment_5_v3,2023.2.2,Win32,85.47008547,,,,,,,,,,,,,,,,790.4131,791.7154,791.7155,793.9808,return,1.0507,,0.390625,,,,,,FBP-RB-18.png,0.35,1.2,51,0.5,,,,,,,,,,,,,0,16,16,50,1,,,,,,,,,,,,,,,,,,,,,,,,,,,,
,,,,,V3_088,20,Male,2024-11-22_17h04.56.016,jersey_experiment_5_v3,2023.2.2,Win32,85.47008547,,,,,,,,,,,,,,,,793.981,795.5275,795.5275,797.675,return,0.7531,,75,,,,,,FBP-OG-17.png,0.4,1.2,33,0.75,,,,,,,,,,,,,0,17,17,32,1,,,,,,,,,,,,,,,,,,,,,,,,,,,,
,,,,,V3_088,20,Male,2024-11-22_17h04.56.016,jersey_experiment_5_v3,2023.2.2,Win32,85.47008547,,,,,,,,,,,,,,,,797.6752,798.9779,798.9779,801.4635,return,0.7444,,74.86979167,,,,,,FBP-YG-71.png,0.4,1.2,3,0.5,,,,,,,,,,,,,0,18,18,2,1,,,,,,,,,,,,,,,,,,,,,,,,,,,,
,,,,,V3_088,20,Male,2024-11-22_17h04.56.016,jersey_experiment_5_v3,2023.2.2,Win32,85.47008547,,,,,,,,,,,,,,,,801.4637,803.0101,803.0101,805.1277,return,0.7449,,75,,,,,,FBP-OG-19.png,0.37,1.2,42,0.75,,,,,,,,,,,,,0,19,19,41,1,,,,,,,,,,,,,,,,,,,,,,,,,,,,
,,,,,V3_088,20,Male,2024-11-22_17h04.56.016,jersey_experiment_5_v3,2023.2.2,Win32,85.47008547,,,,,,,,,,,,,,,,805.1279,806.4267,806.4267,808.5866,return,0.8365,,99.609375,,,,,,FBP-RB-18.png,0.43,1.2,54,0.5,,,,,,,,,,,,,0,20,20,53,1,,,,,,,,,,,,,,,,,,,,,,,,,,,,
,,,,,V3_088,20,Male,2024-11-22_17h04.56.016,jersey_experiment_5_v3,2023.2.2,Win32,85.47008547,,,,,,,,,,,,,,,,808.5869,810.1309,810.131,811.6286,return,0.6033,,100,,,,,,FBP-OG-19.png,0.45,1.2,45,0.75,,,,,,,,,,,,,0,21,21,44,1,,,,,,,,,,,,,,,,,,,,,,,,,,,,
,,,,,V3_088,20,Male,2024-11-22_17h04.56.016,jersey_experiment_5_v3,2023.2.2,Win32,85.47008547,,,,,,,,,,,,,,,,811.6288,812.9226,812.9226,815.0491,return,0.7763,,86.58854167,,,,,,FBP-PT-17.png,0.4,1.2,18,0.5,,,,,,,,,,,,,0,22,22,17,1,,,,,,,,,,,,,,,,,,,,,,,,,,,,
,,,,,V3_088,20,Male,2024-11-22_17h04.56.016,jersey_experiment_5_v3,2023.2.2,Win32,85.47008547,,,,,,,,,,,,,,,,815.0492,816.358,816.358,818.5986,return,0.925,,50,,,,,,FBP-YG-81.png,0.37,1.2,7,0.5,,,,,,,,,,,,,0,23,23,6,1,,,,,,,,,,,,,,,,,,,,,,,,,,,,
,,,,,V3_088,20,Male,2024-11-22_17h04.56.016,jersey_experiment_5_v3,2023.2.2,Win32,85.47008547,,,,,,,,,,,,,,,,818.5989,819.8929,819.8929,822.4223,return,0.644,,49.86979167,,,,,,FBP-YG-91.png,0.4,1.2,13,0.5,,,,,,,,,,,,,0,24,24,12,1,,,,,,,,,,,,,,,,,,,,,,,,,,,,
,,,,,V3_088,20,Male,2024-11-22_17h04.56.016,jersey_experiment_5_v3,2023.2.2,Win32,85.47008547,,,,,,,,,,,,,,,,822.4226,823.7166,823.7167,825.911,return,0.8146,,88.02083333,,,,,,FBP-YG-91.png,0.45,1.2,15,0.5,,,,,,,,,,,,,0,25,25,14,1,,,,,,,,,,,,,,,,,,,,,,,,,,,,
,,,,,V3_088,20,Male,2024-11-22_17h04.56.016,jersey_experiment_5_v3,2023.2.2,Win32,85.47008547,,,,,,,,,,,,,,,,825.9112,827.2056,827.2056,829.4175,return,0.6971,,99.73958333,,,,,,FBP-RB-17.png,0.45,1.2,50,0.5,,,,,,,,,,,,,0,26,26,49,1,,,,,,,,,,,,,,,,,,,,,,,,,,,,
,,,,,V3_088,20,Male,2024-11-22_17h04.56.016,jersey_experiment_5_v3,2023.2.2,Win32,85.47008547,,,,,,,,,,,,,,,,829.4176,830.7169,830.717,832.7114,return,0.8148,,99.34895833,,,,,,FBP-YG-91.png,0.43,1.2,14,0.5,,,,,,,,,,,,,0,27,27,13,1,,,,,,,,,,,,,,,,,,,,,,,,,,,,
,,,,,V3_088,20,Male,2024-11-22_17h04.56.016,jersey_experiment_5_v3,2023.2.2,Win32,85.47008547,,,,,,,,,,,,,,,,832.7115,834.258,834.2581,836.5003,return,1.0354,,99.34895833,,,,,,FBP-OG-17.png,0.43,1.2,34,0.75,,,,,,,,,,,,,0,28,28,33,1,,,,,,,,,,,,,,,,,,,,,,,,,,,,
,,,,,V3_088,20,Male,2024-11-22_17h04.56.016,jersey_experiment_5_v3,2023.2.2,Win32,85.47008547,,,,,,,,,,,,,,,,836.5005,837.7942,837.7942,840.6465,return,1.8084,,100,,,,,,FBP-PT-18.png,0.45,1.2,25,0.5,,,,,,,,,,,,,0,29,29,24,1,,,,,,,,,,,,,,,,,,,,,,,,,,,,
,,,,,V3_088,20,Male,2024-11-22_17h04.56.016,jersey_experiment_5_v3,2023.2.2,Win32,85.47008547,,,,,,,,,,,,,,,,840.6468,841.9442,841.9442,843.897,return,0.9263,,24.86979167,,,,,,FBP-RB-17.png,0.37,1.2,47,0.5,,,,,,,,,,,,,0,30,30,46,1,,,,,,,,,,,,,,,,,,,,,,,,,,,,
,,,,,V3_088,20,Male,2024-11-22_17h04.56.016,jersey_experiment_5_v3,2023.2.2,Win32,85.47008547,,,,,,,,,,,,,,,,843.8971,845.1914,845.1914,847.2587,return,0.9908,,25.26041667,,,,,,FBP-PT-18.png,0.4,1.2,23,0.5,,,,,,,,,,,,,0,31,31,22,1,,,,,,,,,,,,,,,,,,,,,,,,,,,,
,,,,,V3_088,20,Male,2024-11-22_17h04.56.016,jersey_experiment_5_v3,2023.2.2,Win32,85.47008547,,,,,,,,,,,,,,,,847.2589,848.5563,848.5563,849.8504,return,0.5181,,0.390625,,,,,,FBP-YG-71.png,0.37,1.2,2,0.5,,,,,,,,,,,,,0,32,32,1,1,,,,,,,,,,,,,,,,,,,,,,,,,,,,
,,,,,V3_088,20,Male,2024-11-22_17h04.56.016,jersey_experiment_5_v3,2023.2.2,Win32,85.47008547,,,,,,,,,,,,,,,,849.8505,851.1445,851.1446,853.6943,return,1.2962,,0.390625,,,,,,FBP-PT-18.png,0.35,1.2,21,0.5,,,,,,,,,,,,,0,33,33,20,1,,,,,,,,,,,,,,,,,,,,,,,,,,,,
,,,,,V3_088,20,Male,2024-11-22_17h04.56.016,jersey_experiment_5_v3,2023.2.2,Win32,85.47008547,,,,,,,,,,,,,,,,853.6945,854.9884,854.9884,856.9482,return,0.6741,,0.651041667,,,,,,FBP-PT-17.png,0.35,1.2,16,0.5,,,,,,,,,,,,,0,34,34,15,1,,,,,,,,,,,,,,,,,,,,,,,,,,,,
,,,,,V3_088,20,Male,2024-11-22_17h04.56.016,jersey_experiment_5_v3,2023.2.2,Win32,85.47008547,,,,,,,,,,,,,,,,856.9484,858.2507,858.2507,860.3128,return,0.6827,,0.390625,,,,,,FBP-YG-81.png,0.35,1.2,6,0.5,,,,,,,,,,,,,0,35,35,5,1,,,,,,,,,,,,,,,,,,,,,,,,,,,,
,,,,,V3_088,20,Male,2024-11-22_17h04.56.016,jersey_experiment_5_v3,2023.2.2,Win32,85.47008547,,,,,,,,,,,,,,,,860.313,861.6068,861.6068,863.5452,return,0.715,,75,,,,,,FBP-RB-19.png,0.45,1.2,60,0.5,,,,,,,,,,,,,0,36,36,59,1,,,,,,,,,,,,,,,,,,,,,,,,,,,,
,,,,,V3_088,20,Male,2024-11-22_17h04.56.016,jersey_experiment_5_v3,2023.2.2,Win32,85.47008547,,,,,,,,,,,,,,,,863.5453,864.8541,864.8541,867.0277,return,0.7299,,75,,,,,,FBP-YG-81.png,0.45,1.2,10,0.5,,,,,,,,,,,,,0,37,37,9,1,,,,,,,,,,,,,,,,,,,,,,,,,,,,
,,,,,V3_088,20,Male,2024-11-22_17h04.56.016,jersey_experiment_5_v3,2023.2.2,Win32,85.47008547,,,,,,,,,,,,,,,,867.0279,868.3363,868.3363,870.9067,return,0.5345,,49.86979167,,,,,,FBP-YG-91.png,0.37,1.2,12,0.5,,,,,,,,,,,,,0,38,38,11,1,,,,,,,,,,,,,,,,,,,,,,,,,,,,
,,,,,V3_088,20,Male,2024-11-22_17h04.56.016,jersey_experiment_5_v3,2023.2.2,Win32,85.47008547,,,,,,,,,,,,,,,,870.9069,872.4541,872.4541,874.8245,return,0.9947,,13.28125,,,,,,FBP-OG-19.png,0.35,1.2,41,0.75,,,,,,,,,,,,,0,39,39,40,1,,,,,,,,,,,,,,,,,,,,,,,,,,,,
,,,,,V3_088,20,Male,2024-11-22_17h04.56.016,jersey_experiment_5_v3,2023.2.2,Win32,85.47008547,,,,,,,,,,,,,,,,874.8247,876.1186,876.1186,877.9841,return,0.7448,,62.36979167,,,,,,FBP-RB-19.png,0.4,1.2,58,0.5,,,,,,,,,,,,,0,40,40,57,1,,,,,,,,,,,,,,,,,,,,,,,,,,,,
,,,,,V3_088,20,Male,2024-11-22_17h04.56.016,jersey_experiment_5_v3,2023.2.2,Win32,85.47008547,,,,,,,,,,,,,,,,877.9842,879.2776,879.2776,881.1603,return,0.5323,,24.73958333,,,,,,FBP-PT-19.png,0.35,1.2,26,0.5,,,,,,,,,,,,,0,41,41,25,1,,,,,,,,,,,,,,,,,,,,,,,,,,,,
,,,,,V3_088,20,Male,2024-11-22_17h04.56.016,jersey_experiment_5_v3,2023.2.2,Win32,85.47008547,,,,,,,,,,,,,,,,881.1604,882.4635,882.4635,884.2837,return,0.6144,,74.73958333,,,,,,FBP-YG-71.png,0.43,1.2,4,0.5,,,,,,,,,,,,,0,42,42,3,1,,,,,,,,,,,,,,,,,,,,,,,,,,,,
,,,,,V3_088,20,Male,2024-11-22_17h04.56.016,jersey_experiment_5_v3,2023.2.2,Win32,85.47008547,,,,,,,,,,,,,,,,884.2839,885.5778,885.5779,887.4669,return,0.659,,75,,,,,,FBP-YG-81.png,0.4,1.2,8,0.5,,,,,,,,,,,,,0,43,43,7,1,,,,,,,,,,,,,,,,,,,,,,,,,,,,
,,,,,V3_088,20,Male,2024-11-22_17h04.56.016,jersey_experiment_5_v3,2023.2.2,Win32,85.47008547,,,,,,,,,,,,,,,,887.4671,888.7696,888.7696,890.4082,return,0.486,,98.95833333,,,,,,FBP-PT-17.png,0.45,1.2,20,0.5,,,,,,,,,,,,,0,44,44,19,1,,,,,,,,,,,,,,,,,,,,,,,,,,,,
,,,,,V3_088,20,Male,2024-11-22_17h04.56.016,jersey_experiment_5_v3,2023.2.2,Win32,85.47008547,,,,,,,,,,,,,,,,890.4082,891.7021,891.7022,893.8903,return,0.9798,,98.828125,,,,,,FBP-PT-18.png,0.43,1.2,24,0.5,,,,,,,,,,,,,0,45,45,23,1,,,,,,,,,,,,,,,,,,,,,,,,,,,,
,,,,,V3_088,20,Male,2024-11-22_17h04.56.016,jersey_experiment_5_v3,2023.2.2,Win32,85.47008547,,,,,,,,,,,,,,,,893.8905,895.193,895.1931,897.1149,return,0.5573,,12.109375,,,,,,FBP-YG-71.png,0.35,1.2,1,0.5,,,,,,,,,,,,,0,46,46,0,1,,,,,,,,,,,,,,,,,,,,,,,,,,,,
,,,,,V3_088,20,Male,2024-11-22_17h04.56.016,jersey_experiment_5_v3,2023.2.2,Win32,85.47008547,,,,,,,,,,,,,,,,897.1151,898.4135,898.4135,900.5549,return,0.8173,,11.84895833,,,,,,FBP-RB-17.png,0.35,1.2,46,0.5,,,,,,,,,,,,,0,47,47,45,1,,,,,,,,,,,,,,,,,,,,,,,,,,,,
,,,,,V3_088,20,Male,2024-11-22_17h04.56.016,jersey_experiment_5_v3,2023.2.2,Win32,85.47008547,,,,,,,,,,,,,,,,900.5551,902.1026,902.1026,903.8441,return,0.7212,,98.95833333,,,,,,FBP-OG-17.png,0.45,1.2,35,0.75,,,,,,,,,,,,,0,48,48,34,1,,,,,,,,,,,,,,,,,,,,,,,,,,,,
,,,,,V3_088,20,Male,2024-11-22_17h04.56.016,jersey_experiment_5_v3,2023.2.2,Win32,85.47008547,,,,,,,,,,,,,,,,903.8442,905.1379,905.1379,908.0088,return,0.7444,,50,,,,,,FBP-PT-17.png,0.37,1.2,17,0.5,,,,,,,,,,,,,0,49,49,16,1,,,,,,,,,,,,,,,,,,,,,,,,,,,,
,,,,,V3_088,20,Male,2024-11-22_17h04.56.016,jersey_experiment_5_v3,2023.2.2,Win32,85.47008547,,,,,,,,,,,,,,,,908.009,909.3111,909.3111,911.3201,return,0.8309,,75,,,,,,FBP-PT-19.png,0.4,1.2,28,0.5,,,,,,,,,,,,,0,50,50,27,1,,,,,,,,,,,,,,,,,,,,,,,,,,,,
,,,,,V3_088,20,Male,2024-11-22_17h04.56.016,jersey_experiment_5_v3,2023.2.2,Win32,85.47008547,,,,,,,,,,,,,,,,911.3204,912.6208,912.6208,914.5267,return,0.6975,,98.828125,,,,,,FBP-PT-19.png,0.45,1.2,30,0.5,,,,,,,,,,,,,0,51,51,29,1,,,,,,,,,,,,,,,,,,,,,,,,,,,,
,,,,,V3_088,20,Male,2024-11-22_17h04.56.016,jersey_experiment_5_v3,2023.2.2,Win32,85.47008547,,,,,,,,,,,,,,,,914.527,915.8208,915.8208,918.018,return,0.7378,,100,,,,,,FBP-RB-17.png,0.43,1.2,49,0.5,,,,,,,,,,,,,0,52,52,48,1,,,,,,,,,,,,,,,,,,,,,,,,,,,,
,,,,,V3_088,20,Male,2024-11-22_17h04.56.016,jersey_experiment_5_v3,2023.2.2,Win32,85.47008547,,,,,,,,,,,,,,,,918.0181,919.3266,919.3266,920.9033,return,0.6502,,100,,,,,,FBP-PT-17.png,0.43,1.2,19,0.5,,,,,,,,,,,,,0,53,53,18,1,,,,,,,,,,,,,,,,,,,,,,,,,,,,
,,,,,V3_088,20,Male,2024-11-22_17h04.56.016,jersey_experiment_5_v3,2023.2.2,Win32,85.47008547,,,,,,,,,,,,,,,,920.9035,922.4562,922.4562,924.7153,return,1.0592,,11.84895833,,,,,,FBP-OG-18.png,0.35,1.2,36,0.75,,,,,,,,,,,,,0,54,54,35,1,,,,,,,,,,,,,,,,,,,,,,,,,,,,
,,,,,V3_088,20,Male,2024-11-22_17h04.56.016,jersey_experiment_5_v3,2023.2.2,Win32,85.47008547,,,,,,,,,,,,,,,,924.7154,926.018,926.0181,928.7241,return,0.5886,,25,,,,,,FBP-RB-18.png,0.37,1.2,52,0.5,,,,,,,,,,,,,0,55,55,51,1,,,,,,,,,,,,,,,,,,,,,,,,,,,,
,,,,,V3_088,20,Male,2024-11-22_17h04.56.016,jersey_experiment_5_v3,2023.2.2,Win32,85.47008547,,,,,,,,,,,,,,,,928.7243,930.033,930.033,932.7007,return,0.6677,,75,,,,,,FBP-RB-18.png,0.4,1.2,53,0.5,,,,,,,,,,,,,0,56,56,52,1,,,,,,,,,,,,,,,,,,,,,,,,,,,,
,,,,,V3_088,20,Male,2024-11-22_17h04.56.016,jersey_experiment_5_v3,2023.2.2,Win32,85.47008547,,,,,,,,,,,,,,,,932.7009,934.0095,934.0095,936.8418,return,1.5295,,87.76041667,,,,,,FBP-RB-19.png,0.43,1.2,59,0.5,,,,,,,,,,,,,0,57,57,58,1,,,,,,,,,,,,,,,,,,,,,,,,,,,,
,,,,,V3_088,20,Male,2024-11-22_17h04.56.016,jersey_experiment_5_v3,2023.2.2,Win32,85.47008547,,,,,,,,,,,,,,,,936.842,938.3863,938.3863,940.8386,return,0.9613,,12.109375,,,,,,FBP-OG-18.png,0.37,1.2,37,0.75,,,,,,,,,,,,,0,58,58,36,1,,,,,,,,,,,,,,,,,,,,,,,,,,,,
,,,,,V3_088,20,Male,2024-11-22_17h04.56.016,jersey_experiment_5_v3,2023.2.2,Win32,85.47008547,,,,,,,,,,,,,,,,940.8388,942.3951,942.3951,944.9602,return,0.6123,,50,,,,,,FBP-OG-19.png,0.4,1.2,43,0.75,,,,,,,,,,,,,0,59,59,42,1,,,,,,,,,,,,,,,,,,,,,,,,,,,,
,,,,,V3_088,20,Male,2024-11-22_17h04.56.016,jersey_experiment_5_v3,2023.2.2,Win32,85.47008547,,,,,,,,,,,,,,,,944.9613,946.2538,946.2539,948.575,return,0.7532,,50.13020833,,,,,,FBP-YG-17.png,0.4,1.2,3,0.5,,,,,,,,,,,,,,,,,,0,0,0,2,1,,,,,,,,,,,,,,,,,,,,,,,
,,,,,V3_088,20,Male,2024-11-22_17h04.56.016,jersey_experiment_5_v3,2023.2.2,Win32,85.47008547,,,,,,,,,,,,,,,,948.5753,949.8689,949.8689,953.3989,return,0.8148,,74.609375,,,,,,FBP-PT-91.png,0.4,1.2,28,0.5,,,,,,,,,,,,,,,,,,0,1,1,27,1,,,,,,,,,,,,,,,,,,,,,,,
,,,,,V3_088,20,Male,2024-11-22_17h04.56.016,jersey_experiment_5_v3,2023.2.2,Win32,85.47008547,,,,,,,,,,,,,,,,953.3991,954.6926,954.6926,956.9604,return,0.7061,,74.86979167,,,,,,FBP-YG-18.png,0.45,1.2,10,0.5,,,,,,,,,,,,,,,,,,0,2,2,9,1,,,,,,,,,,,,,,,,,,,,,,,
,,,,,V3_088,20,Male,2024-11-22_17h04.56.016,jersey_experiment_5_v3,2023.2.2,Win32,85.47008547,,,,,,,,,,,,,,,,956.9606,958.5047,958.5048,960.9989,return,0.6342,,24.86979167,,,,,,FBP-OG-71.png,0.35,1.2,31,0.75,,,,,,,,,,,,,,,,,,0,3,3,30,1,,,,,,,,,,,,,,,,,,,,,,,
,,,,,V3_088,20,Male,2024-11-22_17h04.56.016,jersey_experiment_5_v3,2023.2.2,Win32,85.47008547,,,,,,,,,,,,,,,,960.9991,962.2927,962.2928,964.8431,return,1.2087,,75.13020833,,,,,,FBP-RB-81.png,0.43,1.2,54,0.5,,,,,,,,,,,,,,,,,,0,4,4,53,1,,,,,,,,,,,,,,,,,,,,,,,
,,,,,V3_088,20,Male,2024-11-22_17h04.56.016,jersey_experiment_5_v3,2023.2.2,Win32,85.47008547,,,,,,,,,,,,,,,,964.8433,966.3865,966.3865,968.9994,return,0.7299,,86.97916667,,,,,,FBP-OG-71.png,0.43,1.2,34,0.75,,,,,,,,,,,,,,,,,,0,5,5,33,1,,,,,,,,,,,,,,,,,,,,,,,
,,,,,V3_088,20,Male,2024-11-22_17h04.56.016,jersey_experiment_5_v3,2023.2.2,Win32,85.47008547,,,,,,,,,,,,,,,,968.9996,970.2931,970.2931,972.6164,return,0.6976,,12.109375,,,,,,FBP-RB-71.png,0.35,1.2,46,0.5,,,,,,,,,,,,,,,,,,0,6,6,45,1,,,,,,,,,,,,,,,,,,,,,,,
,,,,,V3_088,20,Male,2024-11-22_17h04.56.016,jersey_experiment_5_v3,2023.2.2,Win32,85.47008547,,,,,,,,,,,,,,,,972.6166,973.9106,973.9107,976.3409,return,0.886,,87.36979167,,,,,,FBP-PT-91.png,0.45,1.2,30,0.5,,,,,,,,,,,,,,,,,,0,7,7,29,1,,,,,,,,,,,,,,,,,,,,,,,
,,,,,V3_088,20,Male,2024-11-22_17h04.56.016,jersey_experiment_5_v3,2023.2.2,Win32,85.47008547,,,,,,,,,,,,,,,,976.3411,977.8872,977.8873,980.2791,return,0.715,,86.97916667,,,,,,FBP-OG-81.png,0.43,1.2,39,0.75,,,,,,,,,,,,,,,,,,0,8,8,38,1,,,,,,,,,,,,,,,,,,,,,,,
,,,,,V3_088,20,Male,2024-11-22_17h04.56.016,jersey_experiment_5_v3,2023.2.2,Win32,85.47008547,,,,,,,,,,,,,,,,980.2793,981.5877,981.5877,984.1847,return,0.8943,,12.23958333,,,,,,FBP-PT-91.png,0.35,1.2,26,0.5,,,,,,,,,,,,,,,,,,0,9,9,25,1,,,,,,,,,,,,,,,,,,,,,,,
,,,,,V3_088,20,Male,2024-11-22_17h04.56.016,jersey_experiment_5_v3,2023.2.2,Win32,85.47008547,,,,,,,,,,,,,,,,984.1848,985.7297,985.7297,988.0433,return,0.7606,,86.97916667,,,,,,FBP-OG-71.png,0.45,1.2,35,0.75,,,,,,,,,,,,,,,,,,0,10,10,34,1,,,,,,,,,,,,,,,,,,,,,,,
,,,,,V3_088,20,Male,2024-11-22_17h04.56.016,jersey_experiment_5_v3,2023.2.2,Win32,85.47008547,,,,,,,,,,,,,,,,988.0434,989.3347,989.3348,991.9467,return,0.566,,75.52083333,,,,,,FBP-RB-71.png,0.4,1.2,48,0.5,,,,,,,,,,,,,,,,,,0,11,11,47,1,,,,,,,,,,,,,,,,,,,,,,,
,,,,,V3_088,20,Male,2024-11-22_17h04.56.016,jersey_experiment_5_v3,2023.2.2,Win32,85.47008547,,,,,,,,,,,,,,,,991.9469,993.4943,993.4943,995.7936,return,0.7155,,2.083333333,,,,,,FBP-OG-91.png,0.35,1.2,41,0.75,,,,,,,,,,,,,,,,,,0,12,12,40,1,,,,,,,,,,,,,,,,,,,,,,,
,,,,,V3_088,20,Male,2024-11-22_17h04.56.016,jersey_experiment_5_v3,2023.2.2,Win32,85.47008547,,,,,,,,,,,,,,,,995.7939,997.0879,997.088,1000.5534,return,0.2502,,2.34375,,,,,,FBP-YG-17.png,0.37,1.2,2,0.5,,,,,,,,,,,,,,,,,,0,13,13,1,1,,,,,,,,,,,,,,,,,,,,,,,
,,,,,V3_088,20,Male,2024-11-22_17h04.56.016,jersey_experiment_5_v3,2023.2.2,Win32,85.47008547,,,,,,,,,,,,,,,,1000.5536,1002.1044,1002.1044,1004.2006,return,0.7533,,5.338541667,,,,,,FBP-OG-81.png,0.37,1.2,37,0.75,,,,,,,,,,,,,,,,,,0,14,14,36,1,,,,,,,,,,,,,,,,,,,,,,,
,,,,,V3_088,20,Male,2024-11-22_17h04.56.016,jersey_experiment_5_v3,2023.2.2,Win32,85.47008547,,,,,,,,,,,,,,,,1004.2008,1005.4943,1005.4944,1007.6456,return,0.5426,,2.34375,,,,,,FBP-RB-71.png,0.37,1.2,47,0.5,,,,,,,,,,,,,,,,,,0,15,15,46,1,,,,,,,,,,,,,,,,,,,,,,,
,,,,,V3_088,20,Male,2024-11-22_17h04.56.016,jersey_experiment_5_v3,2023.2.2,Win32,85.47008547,,,,,,,,,,,,,,,,1007.6457,1009.1892,1009.1892,1011.8334,return,0.5419,,49.86979167,,,,,,FBP-OG-81.png,0.4,1.2,38,0.75,,,,,,,,,,,,,,,,,,0,16,16,37,1,,,,,,,,,,,,,,,,,,,,,,,
,,,,,V3_088,20,Male,2024-11-22_17h04.56.016,jersey_experiment_5_v3,2023.2.2,Win32,85.47008547,,,,,,,,,,,,,,,,1011.8336,1013.1273,1013.1273,1015.8482,return,1.4738,,100,,,,,,FBP-YG-17.png,0.45,1.2,5,0.5,,,,,,,,,,,,,,,,,,0,17,17,4,1,,,,,,,,,,,,,,,,,,,,,,,
,,,,,V3_088,20,Male,2024-11-22_17h04.56.016,jersey_experiment_5_v3,2023.2.2,Win32,85.47008547,,,,,,,,,,,,,,,,1015.8483,1017.151,1017.151,1019.9184,return,0.7997,,24.86979167,,,,,,FBP-RB-81.png,0.35,1.2,51,0.5,,,,,,,,,,,,,,,,,,0,18,18,50,1,,,,,,,,,,,,,,,,,,,,,,,
,,,,,V3_088,20,Male,2024-11-22_17h04.56.016,jersey_experiment_5_v3,2023.2.2,Win32,85.47008547,,,,,,,,,,,,,,,,1019.9185,1021.2126,1021.2126,1023.5663,return,0.6355,,100,,,,,,FBP-PT-71.png,0.43,1.2,19,0.5,,,,,,,,,,,,,,,,,,0,19,19,18,1,,,,,,,,,,,,,,,,,,,,,,,
,,,,,V3_088,20,Male,2024-11-22_17h04.56.016,jersey_experiment_5_v3,2023.2.2,Win32,85.47008547,,,,,,,,,,,,,,,,1023.5666,1024.8656,1024.8657,1026.5781,return,0.6268,,100,,,,,,FBP-PT-81.png,0.43,1.2,24,0.5,,,,,,,,,,,,,,,,,,0,20,20,23,1,,,,,,,,,,,,,,,,,,,,,,,
,,,,,V3_088,20,Male,2024-11-22_17h04.56.016,jersey_experiment_5_v3,2023.2.2,Win32,85.47008547,,,,,,,,,,,,,,,,1026.5783,1027.8808,1027.8808,1029.9983,return,0.8237,,86.71875,,,,,,FBP-RB-81.png,0.4,1.2,53,0.5,,,,,,,,,,,,,,,,,,0,21,21,52,1,,,,,,,,,,,,,,,,,,,,,,,
,,,,,V3_088,20,Male,2024-11-22_17h04.56.016,jersey_experiment_5_v3,2023.2.2,Win32,85.47008547,,,,,,,,,,,,,,,,1029.9984,1031.3074,1031.3075,1033.0575,return,0.7769,,99.21875,,,,,,FBP-RB-71.png,0.45,1.2,50,0.5,,,,,,,,,,,,,,,,,,0,22,22,49,1,,,,,,,,,,,,,,,,,,,,,,,
,,,,,V3_088,20,Male,2024-11-22_17h04.56.016,jersey_experiment_5_v3,2023.2.2,Win32,85.47008547,,,,,,,,,,,,,,,,1033.0576,1034.3515,1034.3516,1036.2469,return,0.6483,,50,,,,,,FBP-RB-81.png,0.37,1.2,52,0.5,,,,,,,,,,,,,,,,,,0,23,23,51,1,,,,,,,,,,,,,,,,,,,,,,,
,,,,,V3_088,20,Male,2024-11-22_17h04.56.016,jersey_experiment_5_v3,2023.2.2,Win32,85.47008547,,,,,,,,,,,,,,,,1036.2471,1037.5514,1037.5515,1040.9366,return,1.7681,,75.26041667,,,,,,FBP-PT-81.png,0.4,1.2,23,0.5,,,,,,,,,,,,,,,,,,0,24,24,22,1,,,,,,,,,,,,,,,,,,,,,,,
,,,,,V3_088,20,Male,2024-11-22_17h04.56.016,jersey_experiment_5_v3,2023.2.2,Win32,85.47008547,,,,,,,,,,,,,,,,1040.9369,1042.4845,1042.4845,1046.2022,return,1.1998,,75,,,,,,FBP-OG-91.png,0.4,1.2,43,0.75,,,,,,,,,,,,,,,,,,0,25,25,42,1,,,,,,,,,,,,,,,,,,,,,,,
,,,,,V3_088,20,Male,2024-11-22_17h04.56.016,jersey_experiment_5_v3,2023.2.2,Win32,85.47008547,,,,,,,,,,,,,,,,1046.2023,1047.4962,1047.4962,1049.6377,return,0.6739,,100,,,,,,FBP-PT-71.png,0.45,1.2,20,0.5,,,,,,,,,,,,,,,,,,0,26,26,19,1,,,,,,,,,,,,,,,,,,,,,,,
,,,,,V3_088,20,Male,2024-11-22_17h04.56.016,jersey_experiment_5_v3,2023.2.2,Win32,85.47008547,,,,,,,,,,,,,,,,1049.6379,1051.1906,1051.1906,1054.1789,return,0.4151,,1.302083333,,,,,,FBP-OG-81.png,0.35,1.2,36,0.75,,,,,,,,,,,,,,,,,,0,27,27,35,1,,,,,,,,,,,,,,,,,,,,,,,
,,,,,V3_088,20,Male,2024-11-22_17h04.56.016,jersey_experiment_5_v3,2023.2.2,Win32,85.47008547,,,,,,,,,,,,,,,,1054.1791,1055.4731,1055.4731,1058.4233,return,0.7849,,75.13020833,,,,,,FBP-PT-71.png,0.4,1.2,18,0.5,,,,,,,,,,,,,,,,,,0,28,28,17,1,,,,,,,,,,,,,,,,,,,,,,,
,,,,,V3_088,20,Male,2024-11-22_17h04.56.016,jersey_experiment_5_v3,2023.2.2,Win32,85.47008547,,,,,,,,,,,,,,,,1058.4234,1059.7317,1059.7318,1061.5906,return,0.6732,,25,,,,,,FBP-YG-19.png,0.37,1.2,12,0.5,,,,,,,,,,,,,,,,,,0,29,29,11,1,,,,,,,,,,,,,,,,,,,,,,,
,,,,,V3_088,20,Male,2024-11-22_17h04.56.016,jersey_experiment_5_v3,2023.2.2,Win32,85.47008547,,,,,,,,,,,,,,,,1061.5907,1062.8851,1062.8851,1064.6265,return,0.6736,,25,,,,,,FBP-PT-81.png,0.35,1.2,21,0.5,,,,,,,,,,,,,,,,,,0,30,30,20,1,,,,,,,,,,,,,,,,,,,,,,,
,,,,,V3_088,20,Male,2024-11-22_17h04.56.016,jersey_experiment_5_v3,2023.2.2,Win32,85.47008547,,,,,,,,,,,,,,,,1064.6266,1065.9294,1065.9294,1067.9677,return,0.7768,,75,,,,,,FBP-YG-18.png,0.4,1.2,8,0.5,,,,,,,,,,,,,,,,,,0,31,31,7,1,,,,,,,,,,,,,,,,,,,,,,,
,,,,,V3_088,20,Male,2024-11-22_17h04.56.016,jersey_experiment_5_v3,2023.2.2,Win32,85.47008547,,,,,,,,,,,,,,,,1067.9679,1069.2618,1069.2619,1071.215,return,0.6974,,100,,,,,,FBP-RB-71.png,0.43,1.2,49,0.5,,,,,,,,,,,,,,,,,,0,32,32,48,1,,,,,,,,,,,,,,,,,,,,,,,
,,,,,V3_088,20,Male,2024-11-22_17h04.56.016,jersey_experiment_5_v3,2023.2.2,Win32,85.47008547,,,,,,,,,,,,,,,,1071.2152,1072.5179,1072.5179,1074.6791,return,0.5845,,74.86979167,,,,,,FBP-YG-19.png,0.4,1.2,13,0.5,,,,,,,,,,,,,,,,,,0,33,33,12,1,,,,,,,,,,,,,,,,,,,,,,,
,,,,,V3_088,20,Male,2024-11-22_17h04.56.016,jersey_experiment_5_v3,2023.2.2,Win32,85.47008547,,,,,,,,,,,,,,,,1074.6794,1075.9768,1075.9768,1078.3211,return,0.7533,,25,,,,,,FBP-YG-18.png,0.35,1.2,6,0.5,,,,,,,,,,,,,,,,,,0,34,34,5,1,,,,,,,,,,,,,,,,,,,,,,,
,,,,,V3_088,20,Male,2024-11-22_17h04.56.016,jersey_experiment_5_v3,2023.2.2,Win32,85.47008547,,,,,,,,,,,,,,,,1078.3213,1079.6153,1079.6153,1081.613,return,0.7036,,100,,,,,,FBP-PT-81.png,0.45,1.2,25,0.5,,,,,,,,,,,,,,,,,,0,35,35,24,1,,,,,,,,,,,,,,,,,,,,,,,
,,,,,V3_088,20,Male,2024-11-22_17h04.56.016,jersey_experiment_5_v3,2023.2.2,Win32,85.47008547,,,,,,,,,,,,,,,,1081.6131,1082.9095,1082.9095,1085.1213,return,0.5092,,99.47916667,,,,,,FBP-YG-18.png,0.43,1.2,9,0.5,,,,,,,,,,,,,,,,,,0,36,36,8,1,,,,,,,,,,,,,,,,,,,,,,,
,,,,,V3_088,20,Male,2024-11-22_17h04.56.016,jersey_experiment_5_v3,2023.2.2,Win32,85.47008547,,,,,,,,,,,,,,,,1085.1214,1086.674,1086.674,1090.5188,return,1.8438,,50.52083333,,,,,,FBP-OG-71.png,0.37,1.2,32,0.75,,,,,,,,,,,,,,,,,,0,37,37,31,1,,,,,,,,,,,,,,,,,,,,,,,
,,,,,V3_088,20,Male,2024-11-22_17h04.56.016,jersey_experiment_5_v3,2023.2.2,Win32,85.47008547,,,,,,,,,,,,,,,,1090.5189,1091.8266,1091.8266,1093.6628,return,0.6037,,25.13020833,,,,,,FBP-RB-91.png,0.35,1.2,56,0.5,,,,,,,,,,,,,,,,,,0,38,38,55,1,,,,,,,,,,,,,,,,,,,,,,,
,,,,,V3_088,20,Male,2024-11-22_17h04.56.016,jersey_experiment_5_v3,2023.2.2,Win32,85.47008547,,,,,,,,,,,,,,,,1093.663,1094.9568,1094.9568,1096.5188,return,0.6208,,75,,,,,,FBP-RB-91.png,0.43,1.2,59,0.5,,,,,,,,,,,,,,,,,,0,39,39,58,1,,,,,,,,,,,,,,,,,,,,,,,
,,,,,V3_088,20,Male,2024-11-22_17h04.56.016,jersey_experiment_5_v3,2023.2.2,Win32,85.47008547,,,,,,,,,,,,,,,,1096.5189,1097.8128,1097.8129,1099.4214,return,0.5667,,24.47916667,,,,,,FBP-YG-19.png,0.35,1.2,11,0.5,,,,,,,,,,,,,,,,,,0,40,40,10,1,,,,,,,,,,,,,,,,,,,,,,,
,,,,,V3_088,20,Male,2024-11-22_17h04.56.016,jersey_experiment_5_v3,2023.2.2,Win32,85.47008547,,,,,,,,,,,,,,,,1099.4215,1100.7155,1100.7155,1102.2043,return,0.6355,,24.47916667,,,,,,FBP-PT-81.png,0.37,1.2,22,0.5,,,,,,,,,,,,,,,,,,0,41,41,21,1,,,,,,,,,,,,,,,,,,,,,,,
,,,,,V3_088,20,Male,2024-11-22_17h04.56.016,jersey_experiment_5_v3,2023.2.2,Win32,85.47008547,,,,,,,,,,,,,,,,1102.2045,1103.5071,1103.5071,1105.4045,return,0.5884,,11.19791667,,,,,,FBP-YG-18.png,0.37,1.2,7,0.5,,,,,,,,,,,,,,,,,,0,42,42,6,1,,,,,,,,,,,,,,,,,,,,,,,
,,,,,V3_088,20,Male,2024-11-22_17h04.56.016,jersey_experiment_5_v3,2023.2.2,Win32,85.47008547,,,,,,,,,,,,,,,,1105.4046,1106.7072,1106.7073,1108.7078,return,0.8561,,11.45833333,,,,,,FBP-PT-91.png,0.37,1.2,27,0.5,,,,,,,,,,,,,,,,,,0,43,43,26,1,,,,,,,,,,,,,,,,,,,,,,,
,,,,,V3_088,20,Male,2024-11-22_17h04.56.016,jersey_experiment_5_v3,2023.2.2,Win32,85.47008547,,,,,,,,,,,,,,,,1108.708,1110.0014,1110.0014,1112.9346,return,0.7215,,10.546875,,,,,,FBP-PT-71.png,0.37,1.2,17,0.5,,,,,,,,,,,,,,,,,,0,44,44,16,1,,,,,,,,,,,,,,,,,,,,,,,
,,,,,V3_088,20,Male,2024-11-22_17h04.56.016,jersey_experiment_5_v3,2023.2.2,Win32,85.47008547,,,,,,,,,,,,,,,,1112.9347,1114.2364,1114.2365,1116.1397,return,0.8168,,10.80729167,,,,,,FBP-YG-17.png,0.35,1.2,1,0.5,,,,,,,,,,,,,,,,,,0,45,45,0,1,,,,,,,,,,,,,,,,,,,,,,,
,,,,,V3_088,20,Male,2024-11-22_17h04.56.016,jersey_experiment_5_v3,2023.2.2,Win32,85.47008547,,,,,,,,,,,,,,,,1116.1399,1117.6873,1117.6873,1119.758,return,0.862,,98.4375,,,,,,FBP-OG-81.png,0.45,1.2,40,0.75,,,,,,,,,,,,,,,,,,0,46,46,39,1,,,,,,,,,,,,,,,,,,,,,,,
,,,,,V3_088,20,Male,2024-11-22_17h04.56.016,jersey_experiment_5_v3,2023.2.2,Win32,85.47008547,,,,,,,,,,,,,,,,1119.7582,1121.052,1121.0521,1123.4522,return,0.5327,,99.73958333,,,,,,FBP-PT-91.png,0.43,1.2,29,0.5,,,,,,,,,,,,,,,,,,0,47,47,28,1,,,,,,,,,,,,,,,,,,,,,,,
,,,,,V3_088,20,Male,2024-11-22_17h04.56.016,jersey_experiment_5_v3,2023.2.2,Win32,85.47008547,,,,,,,,,,,,,,,,1123.4525,1124.755,1124.755,1126.4876,return,0.7207,,99.34895833,,,,,,FBP-YG-19.png,0.45,1.2,15,0.5,,,,,,,,,,,,,,,,,,0,48,48,14,1,,,,,,,,,,,,,,,,,,,,,,,
,,,,,V3_088,20,Male,2024-11-22_17h04.56.016,jersey_experiment_5_v3,2023.2.2,Win32,85.47008547,,,,,,,,,,,,,,,,1126.4877,1128.0342,1128.0342,1130.2341,return,0.8254,,75.390625,,,,,,FBP-OG-71.png,0.4,1.2,33,0.75,,,,,,,,,,,,,,,,,,0,49,49,32,1,,,,,,,,,,,,,,,,,,,,,,,
,,,,,V3_088,20,Male,2024-11-22_17h04.56.016,jersey_experiment_5_v3,2023.2.2,Win32,85.47008547,,,,,,,,,,,,,,,,1130.2344,1131.5285,1131.5285,1133.5787,return,0.8945,,75.26041667,,,,,,FBP-RB-91.png,0.4,1.2,58,0.5,,,,,,,,,,,,,,,,,,0,50,50,57,1,,,,,,,,,,,,,,,,,,,,,,,
,,,,,V3_088,20,Male,2024-11-22_17h04.56.016,jersey_experiment_5_v3,2023.2.2,Win32,85.47008547,,,,,,,,,,,,,,,,1133.5789,1134.8726,1134.8727,1137.32,return,0.8322,,97.13541667,,,,,,FBP-RB-91.png,0.45,1.2,60,0.5,,,,,,,,,,,,,,,,,,0,51,51,59,1,,,,,,,,,,,,,,,,,,,,,,,
,,,,,V3_088,20,Male,2024-11-22_17h04.56.016,jersey_experiment_5_v3,2023.2.2,Win32,85.47008547,,,,,,,,,,,,,,,,1137.3202,1138.6145,1138.6145,1140.285,return,0.518,,1.171875,,,,,,FBP-PT-71.png,0.35,1.2,16,0.5,,,,,,,,,,,,,,,,,,0,52,52,15,1,,,,,,,,,,,,,,,,,,,,,,,
,,,,,V3_088,20,Male,2024-11-22_17h04.56.016,jersey_experiment_5_v3,2023.2.2,Win32,85.47008547,,,,,,,,,,,,,,,,1140.2852,1141.5938,1141.5939,1144.1827,return,0.4625,,25,,,,,,FBP-RB-91.png,0.37,1.2,57,0.5,,,,,,,,,,,,,,,,,,0,53,53,56,1,,,,,,,,,,,,,,,,,,,,,,,
,,,,,V3_088,20,Male,2024-11-22_17h04.56.016,jersey_experiment_5_v3,2023.2.2,Win32,85.47008547,,,,,,,,,,,,,,,,1144.1828,1145.4767,1145.4767,1148.6821,return,1.7112,,75.13020833,,,,,,FBP-RB-81.png,0.45,1.2,55,0.5,,,,,,,,,,,,,,,,,,0,54,54,54,1,,,,,,,,,,,,,,,,,,,,,,,
,,,,,V3_088,20,Male,2024-11-22_17h04.56.016,jersey_experiment_5_v3,2023.2.2,Win32,85.47008547,,,,,,,,,,,,,,,,1148.6823,1150.2298,1150.2298,1152.0886,return,0.65,,75.26041667,,,,,,FBP-OG-91.png,0.43,1.2,44,0.75,,,,,,,,,,,,,,,,,,0,55,55,43,1,,,,,,,,,,,,,,,,,,,,,,,
,,,,,V3_088,20,Male,2024-11-22_17h04.56.016,jersey_experiment_5_v3,2023.2.2,Win32,85.47008547,,,,,,,,,,,,,,,,1152.0888,1153.3827,1153.3827,1155.3916,return,0.6459,,88.02083333,,,,,,FBP-YG-17.png,0.43,1.2,4,0.5,,,,,,,,,,,,,,,,,,0,56,56,3,1,,,,,,,,,,,,,,,,,,,,,,,
,,,,,V3_088,20,Male,2024-11-22_17h04.56.016,jersey_experiment_5_v3,2023.2.2,Win32,85.47008547,,,,,,,,,,,,,,,,1155.3917,1156.6855,1156.6856,1158.4183,return,0.7062,,87.36979167,,,,,,FBP-YG-19.png,0.43,1.2,14,0.5,,,,,,,,,,,,,,,,,,0,57,57,13,1,,,,,,,,,,,,,,,,,,,,,,,
,,,,,V3_088,20,Male,2024-11-22_17h04.56.016,jersey_experiment_5_v3,2023.2.2,Win32,85.47008547,,,,,,,,,,,,,,,,1158.4185,1159.9713,1159.9713,1163.259,return,1.5102,,37.23958333,,,,,,FBP-OG-91.png,0.37,1.2,42,0.75,,,,,,,,,,,,,,,,,,0,58,58,41,1,,,,,,,,,,,,,,,,,,,,,,,
,,,,,V3_088,20,Male,2024-11-22_17h04.56.016,jersey_experiment_5_v3,2023.2.2,Win32,85.47008547,,,,,,,,,,,,,,,,1163.2593,1164.8033,1164.8033,1166.4742,return,0.5886,,88.15104167,,,,,,FBP-OG-91.png,0.45,1.2,45,0.75,,,,,,,,,,,,,,,,,,0,59,59,44,1,,,,,,,,,,,,,,,,,,,,,,,
,,,,,V3_088,20,Male,2024-11-22_17h04.56.016,jersey_experiment_5_v3,2023.2.2,Win32,85.47008547,,,,,,,,,,,,,,,,,,,,,,,,,,,,,,,,,,,,,,,,,,,,,,,,,,,,,,,,1166.4744,1171.8477,return,5.3574,,,,,,,,,,,,,,,,,,,
,,,,,V3_088,20,Male,2024-11-22_17h04.56.016,jersey_experiment_5_v3,2023.2.2,Win32,85.47008547,,,,,,,,,,,,,,,,,,,,,,,,,,,,,,,,,,,,,,,,,,,,,,,,,,,,,,,,,,,,,1171.8478,1177.6746,1,3.1356,return,2.6824,,,,,,,,,,,,
,,,,,V3_088,20,Male,2024-11-22_17h04.56.016,jersey_experiment_5_v3,2023.2.2,Win32,85.47008547,,,,,,,,,,,,,,,,,,,,,,,,,,,,,,,,,,,,,,,,,,,,,,,,,,,,,,,,,,,,,,,,,,,,1177.6747,1264.8936,"Yes. I believe the experiment seeks to understand implicit bias between how participants rate pale skinned versus dark skinned football players' size using ""slender"" and ""husky. There were some other variables related to the jersey color and number of the football players that were a bit distracting, so I wonder what might be investigated from that too!",right,78.5353,,,,,,
,,,,,V3_088,20,Male,2024-11-22_17h04.56.016,jersey_experiment_5_v3,2023.2.2,Win32,85.47008547,,,,,,,,,,,,,,,,,,,,,,,,,,,,,,,,,,,,,,,,,,,,,,,,,,,,,,,,,,,,,,,,,,,,,,,,,,1264.8936,1276.4697,return,11.568,