requirements.started,requirements.stopped,key_resp_3.keys,key_resp_3.rt,key_resp_3.duration,Subject ID,Age,Gender,date,expName,psychopyVersion,OS,frameRate,instructions1.started,instructions1.stopped,key_resp.keys,key_resp.rt,key_resp.duration,example.started,example.stopped,enter_2.keys,enter_2.rt,enter_2.duration,instructions2.started,instructions2.stopped,enter_3.keys,enter_3.rt,enter_3.duration,image.started,image.stopped,slider_2.started,slider_2.stopped,next.keys,next.rt,next.duration,slider.response,trial_block_1.thisRepN,trial_block_1.thisTrialN,trial_block_1.thisN,trial_block_1.thisIndex,trial_block_1.ran,Path,Width,Height,Index,Duration,trial_block_2.thisRepN,trial_block_2.thisTrialN,trial_block_2.thisN,trial_block_2.thisIndex,trial_block_2.ran,rest_break.started,rest_break.stopped,end_break.started,end_break.stopped,key_resp_5.keys,key_resp_5.rt,key_resp_5.duration,trial_block_3.thisRepN,trial_block_3.thisTrialN,trial_block_3.thisN,trial_block_3.thisIndex,trial_block_3.ran,trial_block_4.thisRepN,trial_block_4.thisTrialN,trial_block_4.thisN,trial_block_4.thisIndex,trial_block_4.ran,questions_intro.started,questions_intro.stopped,enter_12.keys,enter_12.rt,enter_12.duration,question2.started,question2.stopped,question_doingbest.response,question_doingbest.rt,enter_15.keys,enter_15.rt,enter_15.duration,pattern.started,pattern.stopped,pattern_2.text,enter_17.keys,enter_17.rt,enter_17.duration,thankyou.started,thankyou.stopped,enter_14.keys,enter_14.rt,enter_14.duration
0.0001,7.6596,return,7.6481,,V3_074,19,female,2024-11-18_15h53.44.074,jersey_experiment_5_v3,2023.2.2,Win32,84.74576271,,,,,,,,,,,,,,,,,,,,,,,,,,,,,,,,,,,,,,,,,,,,,,,,,,,,,,,,,,,,,,,,,,,,,,,,,,,,,,
,,,,,V3_074,19,female,2024-11-18_15h53.44.074,jersey_experiment_5_v3,2023.2.2,Win32,84.74576271,7.6598,14.5541,return,6.8717,,,,,,,,,,,,,,,,,,,,,,,,,,,,,,,,,,,,,,,,,,,,,,,,,,,,,,,,,,,,,,,,,,,,,,,,,,
,,,,,V3_074,19,female,2024-11-18_15h53.44.074,jersey_experiment_5_v3,2023.2.2,Win32,84.74576271,,,,,,14.5543,24.6016,return,10.0017,,,,,,,,,,,,,,,,,,,,,,,,,,,,,,,,,,,,,,,,,,,,,,,,,,,,,,,,,,,,,,,,,,,,,
,,,,,V3_074,19,female,2024-11-18_15h53.44.074,jersey_experiment_5_v3,2023.2.2,Win32,84.74576271,,,,,,,,,,,24.6018,43.6611,return,19.0465,,,,,,,,,,,,,,,,,,,,,,,,,,,,,,,,,,,,,,,,,,,,,,,,,,,,,,,,,,,,,,,,
,,,,,V3_074,19,female,2024-11-18_15h53.44.074,jersey_experiment_5_v3,2023.2.2,Win32,84.74576271,,,,,,,,,,,,,,,,43.6641,45.2142,45.2146,54.0616,return,3.0121,,74.21875,0,0,0,57,1,FBP-RB-19.png,0.4,1.2,58,0.75,,,,,,,,,,,,,,,,,,,,,,,,,,,,,,,,,,,,,,,,,,,,,
,,,,,V3_074,19,female,2024-11-18_15h53.44.074,jersey_experiment_5_v3,2023.2.2,Win32,84.74576271,,,,,,,,,,,,,,,,54.062,55.6143,55.6144,61.285,return,2.5382,,74.08854167,0,1,1,3,1,FBP-YG-71.png,0.43,1.2,4,0.75,,,,,,,,,,,,,,,,,,,,,,,,,,,,,,,,,,,,,,,,,,,,,
,,,,,V3_074,19,female,2024-11-18_15h53.44.074,jersey_experiment_5_v3,2023.2.2,Win32,84.74576271,,,,,,,,,,,,,,,,61.2854,62.8381,62.8381,67.7912,return,2.3296,,99.34895833,0,2,2,19,1,FBP-PT-17.png,0.45,1.2,20,0.75,,,,,,,,,,,,,,,,,,,,,,,,,,,,,,,,,,,,,,,,,,,,,
,,,,,V3_074,19,female,2024-11-18_15h53.44.074,jersey_experiment_5_v3,2023.2.2,Win32,84.74576271,,,,,,,,,,,,,,,,67.7915,69.3443,69.3443,76.615,return,1.9363,,50.65104167,0,3,3,7,1,FBP-YG-81.png,0.4,1.2,8,0.75,,,,,,,,,,,,,,,,,,,,,,,,,,,,,,,,,,,,,,,,,,,,,
,,,,,V3_074,19,female,2024-11-18_15h53.44.074,jersey_experiment_5_v3,2023.2.2,Win32,84.74576271,,,,,,,,,,,,,,,,76.6153,78.1681,78.1682,83.7683,return,2.1572,,73.30729167,0,4,4,14,1,FBP-YG-91.png,0.45,1.2,15,0.75,,,,,,,,,,,,,,,,,,,,,,,,,,,,,,,,,,,,,,,,,,,,,
,,,,,V3_074,19,female,2024-11-18_15h53.44.074,jersey_experiment_5_v3,2023.2.2,Win32,84.74576271,,,,,,,,,,,,,,,,83.7685,85.3213,85.3213,89.3333,return,1.5733,,25.13020833,0,5,5,10,1,FBP-YG-91.png,0.35,1.2,11,0.75,,,,,,,,,,,,,,,,,,,,,,,,,,,,,,,,,,,,,,,,,,,,,
,,,,,V3_074,19,female,2024-11-18_15h53.44.074,jersey_experiment_5_v3,2023.2.2,Win32,84.74576271,,,,,,,,,,,,,,,,89.3335,90.8861,90.8861,96.3099,return,1.3963,,25.390625,0,6,6,25,1,FBP-PT-19.png,0.35,1.2,26,0.75,,,,,,,,,,,,,,,,,,,,,,,,,,,,,,,,,,,,,,,,,,,,,
,,,,,V3_074,19,female,2024-11-18_15h53.44.074,jersey_experiment_5_v3,2023.2.2,Win32,84.74576271,,,,,,,,,,,,,,,,96.3102,97.863,97.863,103.0632,return,1.4187,,99.21875,0,7,7,24,1,FBP-PT-18.png,0.45,1.2,25,0.75,,,,,,,,,,,,,,,,,,,,,,,,,,,,,,,,,,,,,,,,,,,,,
,,,,,V3_074,19,female,2024-11-18_15h53.44.074,jersey_experiment_5_v3,2023.2.2,Win32,84.74576271,,,,,,,,,,,,,,,,103.0635,104.3574,104.3575,109.0633,return,2.1477,,74.86979167,0,8,8,32,1,FBP-OG-17.png,0.4,1.2,33,0.5,,,,,,,,,,,,,,,,,,,,,,,,,,,,,,,,,,,,,,,,,,,,,
,,,,,V3_074,19,female,2024-11-18_15h53.44.074,jersey_experiment_5_v3,2023.2.2,Win32,84.74576271,,,,,,,,,,,,,,,,109.0635,110.6164,110.6165,114.4636,return,1.0734,,26.69270833,0,9,9,56,1,FBP-RB-19.png,0.37,1.2,57,0.75,,,,,,,,,,,,,,,,,,,,,,,,,,,,,,,,,,,,,,,,,,,,,
,,,,,V3_074,19,female,2024-11-18_15h53.44.074,jersey_experiment_5_v3,2023.2.2,Win32,84.74576271,,,,,,,,,,,,,,,,114.4638,116.0165,116.0165,119.6401,return,1.0998,,74.21875,0,10,10,2,1,FBP-YG-71.png,0.4,1.2,3,0.75,,,,,,,,,,,,,,,,,,,,,,,,,,,,,,,,,,,,,,,,,,,,,
,,,,,V3_074,19,female,2024-11-18_15h53.44.074,jersey_experiment_5_v3,2023.2.2,Win32,84.74576271,,,,,,,,,,,,,,,,119.6403,121.1932,121.1933,125.1933,return,1.0751,,26.69270833,0,11,11,45,1,FBP-RB-17.png,0.35,1.2,46,0.75,,,,,,,,,,,,,,,,,,,,,,,,,,,,,,,,,,,,,,,,,,,,,
,,,,,V3_074,19,female,2024-11-18_15h53.44.074,jersey_experiment_5_v3,2023.2.2,Win32,84.74576271,,,,,,,,,,,,,,,,125.1936,126.4874,126.4875,130.2878,return,1.3987,,73.95833333,0,12,12,43,1,FBP-OG-19.png,0.43,1.2,44,0.5,,,,,,,,,,,,,,,,,,,,,,,,,,,,,,,,,,,,,,,,,,,,,
,,,,,V3_074,19,female,2024-11-18_15h53.44.074,jersey_experiment_5_v3,2023.2.2,Win32,84.74576271,,,,,,,,,,,,,,,,130.288,131.8407,131.8408,135.2762,return,1.7536,,73.95833333,0,13,13,47,1,FBP-RB-17.png,0.4,1.2,48,0.75,,,,,,,,,,,,,,,,,,,,,,,,,,,,,,,,,,,,,,,,,,,,,
,,,,,V3_074,19,female,2024-11-18_15h53.44.074,jersey_experiment_5_v3,2023.2.2,Win32,84.74576271,,,,,,,,,,,,,,,,135.2765,136.8291,136.8292,140.7822,return,0.8942,,50.78125,0,14,14,46,1,FBP-RB-17.png,0.37,1.2,47,0.75,,,,,,,,,,,,,,,,,,,,,,,,,,,,,,,,,,,,,,,,,,,,,
,,,,,V3_074,19,female,2024-11-18_15h53.44.074,jersey_experiment_5_v3,2023.2.2,Win32,84.74576271,,,,,,,,,,,,,,,,140.7825,142.3351,142.3352,145.6531,return,0.9973,,74.34895833,0,15,15,9,1,FBP-YG-81.png,0.45,1.2,10,0.75,,,,,,,,,,,,,,,,,,,,,,,,,,,,,,,,,,,,,,,,,,,,,
,,,,,V3_074,19,female,2024-11-18_15h53.44.074,jersey_experiment_5_v3,2023.2.2,Win32,84.74576271,,,,,,,,,,,,,,,,145.6535,147.2059,147.206,151.406,return,1.2833,,74.34895833,0,16,16,12,1,FBP-YG-91.png,0.4,1.2,13,0.75,,,,,,,,,,,,,,,,,,,,,,,,,,,,,,,,,,,,,,,,,,,,,
,,,,,V3_074,19,female,2024-11-18_15h53.44.074,jersey_experiment_5_v3,2023.2.2,Win32,84.74576271,,,,,,,,,,,,,,,,151.4063,152.9591,152.9591,156.5828,return,0.7954,,74.34895833,0,17,17,29,1,FBP-PT-19.png,0.45,1.2,30,0.75,,,,,,,,,,,,,,,,,,,,,,,,,,,,,,,,,,,,,,,,,,,,,
,,,,,V3_074,19,female,2024-11-18_15h53.44.074,jersey_experiment_5_v3,2023.2.2,Win32,84.74576271,,,,,,,,,,,,,,,,156.5831,157.8768,157.8768,161.1358,return,1.1761,,24.86979167,0,18,18,31,1,FBP-OG-17.png,0.37,1.2,32,0.5,,,,,,,,,,,,,,,,,,,,,,,,,,,,,,,,,,,,,,,,,,,,,
,,,,,V3_074,19,female,2024-11-18_15h53.44.074,jersey_experiment_5_v3,2023.2.2,Win32,84.74576271,,,,,,,,,,,,,,,,161.1361,162.43,162.4301,165.6301,return,1.0357,,48.828125,0,19,19,33,1,FBP-OG-17.png,0.43,1.2,34,0.5,,,,,,,,,,,,,,,,,,,,,,,,,,,,,,,,,,,,,,,,,,,,,
,,,,,V3_074,19,female,2024-11-18_15h53.44.074,jersey_experiment_5_v3,2023.2.2,Win32,84.74576271,,,,,,,,,,,,,,,,165.6304,167.1832,167.1832,171.3718,return,1.7069,,25.390625,0,20,20,16,1,FBP-PT-17.png,0.37,1.2,17,0.75,,,,,,,,,,,,,,,,,,,,,,,,,,,,,,,,,,,,,,,,,,,,,
,,,,,V3_074,19,female,2024-11-18_15h53.44.074,jersey_experiment_5_v3,2023.2.2,Win32,84.74576271,,,,,,,,,,,,,,,,171.3721,172.9245,172.9245,176.8069,return,1.3955,,85.41666667,0,21,21,54,1,FBP-RB-18.png,0.45,1.2,55,0.75,,,,,,,,,,,,,,,,,,,,,,,,,,,,,,,,,,,,,,,,,,,,,
,,,,,V3_074,19,female,2024-11-18_15h53.44.074,jersey_experiment_5_v3,2023.2.2,Win32,84.74576271,,,,,,,,,,,,,,,,176.8072,178.36,178.3601,182.4543,return,0.887,,75.52083333,0,22,22,8,1,FBP-YG-81.png,0.43,1.2,9,0.75,,,,,,,,,,,,,,,,,,,,,,,,,,,,,,,,,,,,,,,,,,,,,
,,,,,V3_074,19,female,2024-11-18_15h53.44.074,jersey_experiment_5_v3,2023.2.2,Win32,84.74576271,,,,,,,,,,,,,,,,182.4546,183.7485,183.7485,187.3839,return,1.5098,,11.84895833,0,23,23,35,1,FBP-OG-18.png,0.35,1.2,36,0.5,,,,,,,,,,,,,,,,,,,,,,,,,,,,,,,,,,,,,,,,,,,,,
,,,,,V3_074,19,female,2024-11-18_15h53.44.074,jersey_experiment_5_v3,2023.2.2,Win32,84.74576271,,,,,,,,,,,,,,,,187.3844,188.9369,188.9369,194.0312,return,1.9408,,74.21875,0,24,24,58,1,FBP-RB-19.png,0.43,1.2,59,0.75,,,,,,,,,,,,,,,,,,,,,,,,,,,,,,,,,,,,,,,,,,,,,
,,,,,V3_074,19,female,2024-11-18_15h53.44.074,jersey_experiment_5_v3,2023.2.2,Win32,84.74576271,,,,,,,,,,,,,,,,194.0315,195.5843,195.5844,199.3489,return,2.1971,,74.21875,0,25,25,18,1,FBP-PT-17.png,0.43,1.2,19,0.75,,,,,,,,,,,,,,,,,,,,,,,,,,,,,,,,,,,,,,,,,,,,,
,,,,,V3_074,19,female,2024-11-18_15h53.44.074,jersey_experiment_5_v3,2023.2.2,Win32,84.74576271,,,,,,,,,,,,,,,,199.3492,200.9022,200.9022,204.2317,return,1.1827,,74.21875,0,26,26,17,1,FBP-PT-17.png,0.4,1.2,18,0.75,,,,,,,,,,,,,,,,,,,,,,,,,,,,,,,,,,,,,,,,,,,,,
,,,,,V3_074,19,female,2024-11-18_15h53.44.074,jersey_experiment_5_v3,2023.2.2,Win32,84.74576271,,,,,,,,,,,,,,,,204.2321,205.7845,205.7846,209.1494,return,1.4573,,24.47916667,0,27,27,50,1,FBP-RB-18.png,0.35,1.2,51,0.75,,,,,,,,,,,,,,,,,,,,,,,,,,,,,,,,,,,,,,,,,,,,,
,,,,,V3_074,19,female,2024-11-18_15h53.44.074,jersey_experiment_5_v3,2023.2.2,Win32,84.74576271,,,,,,,,,,,,,,,,209.1498,210.7024,210.7025,214.632,return,0.8507,,49.08854167,0,28,28,51,1,FBP-RB-18.png,0.37,1.2,52,0.75,,,,,,,,,,,,,,,,,,,,,,,,,,,,,,,,,,,,,,,,,,,,,
,,,,,V3_074,19,female,2024-11-18_15h53.44.074,jersey_experiment_5_v3,2023.2.2,Win32,84.74576271,,,,,,,,,,,,,,,,214.6321,216.1849,216.1849,220.1969,return,1.4208,,97.78645833,0,29,29,49,1,FBP-RB-17.png,0.45,1.2,50,0.75,,,,,,,,,,,,,,,,,,,,,,,,,,,,,,,,,,,,,,,,,,,,,
,,,,,V3_074,19,female,2024-11-18_15h53.44.074,jersey_experiment_5_v3,2023.2.2,Win32,84.74576271,,,,,,,,,,,,,,,,220.1971,221.7499,221.7499,225.0323,return,1.2277,,61.71875,0,30,30,52,1,FBP-RB-18.png,0.4,1.2,53,0.75,,,,,,,,,,,,,,,,,,,,,,,,,,,,,,,,,,,,,,,,,,,,,
,,,,,V3_074,19,female,2024-11-18_15h53.44.074,jersey_experiment_5_v3,2023.2.2,Win32,84.74576271,,,,,,,,,,,,,,,,225.0326,226.5853,226.5854,230.1972,return,1.6186,,50.52083333,0,31,31,21,1,FBP-PT-18.png,0.37,1.2,22,0.75,,,,,,,,,,,,,,,,,,,,,,,,,,,,,,,,,,,,,,,,,,,,,
,,,,,V3_074,19,female,2024-11-18_15h53.44.074,jersey_experiment_5_v3,2023.2.2,Win32,84.74576271,,,,,,,,,,,,,,,,230.1975,231.7503,231.7504,234.6798,return,1.2993,,44.921875,0,32,32,20,1,FBP-PT-18.png,0.35,1.2,21,0.75,,,,,,,,,,,,,,,,,,,,,,,,,,,,,,,,,,,,,,,,,,,,,
,,,,,V3_074,19,female,2024-11-18_15h53.44.074,jersey_experiment_5_v3,2023.2.2,Win32,84.74576271,,,,,,,,,,,,,,,,234.6801,235.974,235.974,242.4567,return,0.782,,60.28645833,0,33,33,37,1,FBP-OG-18.png,0.4,1.2,38,0.5,,,,,,,,,,,,,,,,,,,,,,,,,,,,,,,,,,,,,,,,,,,,,
,,,,,V3_074,19,female,2024-11-18_15h53.44.074,jersey_experiment_5_v3,2023.2.2,Win32,84.74576271,,,,,,,,,,,,,,,,242.457,244.0094,244.0095,247.4215,return,0.6919,,60.28645833,0,34,34,1,1,FBP-YG-71.png,0.37,1.2,2,0.75,,,,,,,,,,,,,,,,,,,,,,,,,,,,,,,,,,,,,,,,,,,,,
,,,,,V3_074,19,female,2024-11-18_15h53.44.074,jersey_experiment_5_v3,2023.2.2,Win32,84.74576271,,,,,,,,,,,,,,,,247.4217,248.7154,248.7155,252.3747,return,0.8988,,24.609375,0,35,35,30,1,FBP-OG-17.png,0.35,1.2,31,0.5,,,,,,,,,,,,,,,,,,,,,,,,,,,,,,,,,,,,,,,,,,,,,
,,,,,V3_074,19,female,2024-11-18_15h53.44.074,jersey_experiment_5_v3,2023.2.2,Win32,84.74576271,,,,,,,,,,,,,,,,252.3749,253.6687,253.6688,256.5983,return,1.0192,,24.609375,0,36,36,41,1,FBP-OG-19.png,0.37,1.2,42,0.5,,,,,,,,,,,,,,,,,,,,,,,,,,,,,,,,,,,,,,,,,,,,,
,,,,,V3_074,19,female,2024-11-18_15h53.44.074,jersey_experiment_5_v3,2023.2.2,Win32,84.74576271,,,,,,,,,,,,,,,,256.5987,257.8923,257.8923,260.9279,return,0.9886,,74.08854167,0,37,37,38,1,FBP-OG-18.png,0.43,1.2,39,0.5,,,,,,,,,,,,,,,,,,,,,,,,,,,,,,,,,,,,,,,,,,,,,
,,,,,V3_074,19,female,2024-11-18_15h53.44.074,jersey_experiment_5_v3,2023.2.2,Win32,84.74576271,,,,,,,,,,,,,,,,260.9282,262.4808,262.4809,265.2574,return,0.6014,,74.08854167,0,38,38,53,1,FBP-RB-18.png,0.43,1.2,54,0.75,,,,,,,,,,,,,,,,,,,,,,,,,,,,,,,,,,,,,,,,,,,,,
,,,,,V3_074,19,female,2024-11-18_15h53.44.074,jersey_experiment_5_v3,2023.2.2,Win32,84.74576271,,,,,,,,,,,,,,,,265.2576,266.5514,266.5515,269.4223,return,0.74,,74.47916667,0,39,39,42,1,FBP-OG-19.png,0.4,1.2,43,0.5,,,,,,,,,,,,,,,,,,,,,,,,,,,,,,,,,,,,,,,,,,,,,
,,,,,V3_074,19,female,2024-11-18_15h53.44.074,jersey_experiment_5_v3,2023.2.2,Win32,84.74576271,,,,,,,,,,,,,,,,269.4226,270.7164,270.7164,273.3872,return,0.8468,,86.328125,0,40,40,44,1,FBP-OG-19.png,0.45,1.2,45,0.5,,,,,,,,,,,,,,,,,,,,,,,,,,,,,,,,,,,,,,,,,,,,,
,,,,,V3_074,19,female,2024-11-18_15h53.44.074,jersey_experiment_5_v3,2023.2.2,Win32,84.74576271,,,,,,,,,,,,,,,,273.3874,274.6812,274.6812,278.8226,return,0.9476,,35.546875,0,41,41,40,1,FBP-OG-19.png,0.35,1.2,41,0.5,,,,,,,,,,,,,,,,,,,,,,,,,,,,,,,,,,,,,,,,,,,,,
,,,,,V3_074,19,female,2024-11-18_15h53.44.074,jersey_experiment_5_v3,2023.2.2,Win32,84.74576271,,,,,,,,,,,,,,,,278.8229,280.3756,280.3757,283.6935,return,0.7531,,57.421875,0,42,42,11,1,FBP-YG-91.png,0.37,1.2,12,0.75,,,,,,,,,,,,,,,,,,,,,,,,,,,,,,,,,,,,,,,,,,,,,
,,,,,V3_074,19,female,2024-11-18_15h53.44.074,jersey_experiment_5_v3,2023.2.2,Win32,84.74576271,,,,,,,,,,,,,,,,283.6937,285.2464,285.2464,289.2229,return,0.7248,,41.14583333,0,43,43,0,1,FBP-YG-71.png,0.35,1.2,1,0.75,,,,,,,,,,,,,,,,,,,,,,,,,,,,,,,,,,,,,,,,,,,,,
,,,,,V3_074,19,female,2024-11-18_15h53.44.074,jersey_experiment_5_v3,2023.2.2,Win32,84.74576271,,,,,,,,,,,,,,,,289.2232,290.7759,290.776,294.3996,return,2.3896,,74.609375,0,44,44,13,1,FBP-YG-91.png,0.43,1.2,14,0.75,,,,,,,,,,,,,,,,,,,,,,,,,,,,,,,,,,,,,,,,,,,,,
,,,,,V3_074,19,female,2024-11-18_15h53.44.074,jersey_experiment_5_v3,2023.2.2,Win32,84.74576271,,,,,,,,,,,,,,,,294.3999,295.9526,295.9527,301.3059,return,0.8151,,61.328125,0,45,45,6,1,FBP-YG-81.png,0.37,1.2,7,0.75,,,,,,,,,,,,,,,,,,,,,,,,,,,,,,,,,,,,,,,,,,,,,
,,,,,V3_074,19,female,2024-11-18_15h53.44.074,jersey_experiment_5_v3,2023.2.2,Win32,84.74576271,,,,,,,,,,,,,,,,301.3063,302.8589,302.8589,305.7059,return,0.8147,,74.73958333,0,46,46,28,1,FBP-PT-19.png,0.43,1.2,29,0.75,,,,,,,,,,,,,,,,,,,,,,,,,,,,,,,,,,,,,,,,,,,,,
,,,,,V3_074,19,female,2024-11-18_15h53.44.074,jersey_experiment_5_v3,2023.2.2,Win32,84.74576271,,,,,,,,,,,,,,,,305.7062,307.2589,307.259,309.6236,return,0.8489,,74.73958333,0,47,47,23,1,FBP-PT-18.png,0.43,1.2,24,0.75,,,,,,,,,,,,,,,,,,,,,,,,,,,,,,,,,,,,,,,,,,,,,
,,,,,V3_074,19,female,2024-11-18_15h53.44.074,jersey_experiment_5_v3,2023.2.2,Win32,84.74576271,,,,,,,,,,,,,,,,309.6239,310.9179,310.918,314.4122,return,0.742,,99.21875,0,48,48,34,1,FBP-OG-17.png,0.45,1.2,35,0.5,,,,,,,,,,,,,,,,,,,,,,,,,,,,,,,,,,,,,,,,,,,,,
,,,,,V3_074,19,female,2024-11-18_15h53.44.074,jersey_experiment_5_v3,2023.2.2,Win32,84.74576271,,,,,,,,,,,,,,,,314.4126,315.9653,315.9653,319.0358,return,0.8245,,25.26041667,0,49,49,26,1,FBP-PT-19.png,0.37,1.2,27,0.75,,,,,,,,,,,,,,,,,,,,,,,,,,,,,,,,,,,,,,,,,,,,,
,,,,,V3_074,19,female,2024-11-18_15h53.44.074,jersey_experiment_5_v3,2023.2.2,Win32,84.74576271,,,,,,,,,,,,,,,,319.036,320.5889,320.5889,325.9656,return,2.1652,,60.80729167,0,50,50,4,1,FBP-YG-71.png,0.45,1.2,5,0.75,,,,,,,,,,,,,,,,,,,,,,,,,,,,,,,,,,,,,,,,,,,,,
,,,,,V3_074,19,female,2024-11-18_15h53.44.074,jersey_experiment_5_v3,2023.2.2,Win32,84.74576271,,,,,,,,,,,,,,,,325.9659,327.5185,327.5186,331.0479,return,1.8757,,26.171875,0,51,51,5,1,FBP-YG-81.png,0.35,1.2,6,0.75,,,,,,,,,,,,,,,,,,,,,,,,,,,,,,,,,,,,,,,,,,,,,
,,,,,V3_074,19,female,2024-11-18_15h53.44.074,jersey_experiment_5_v3,2023.2.2,Win32,84.74576271,,,,,,,,,,,,,,,,331.0482,332.3422,332.3422,335.1776,return,1.1219,,25.390625,0,52,52,36,1,FBP-OG-18.png,0.37,1.2,37,0.5,,,,,,,,,,,,,,,,,,,,,,,,,,,,,,,,,,,,,,,,,,,,,
,,,,,V3_074,19,female,2024-11-18_15h53.44.074,jersey_experiment_5_v3,2023.2.2,Win32,84.74576271,,,,,,,,,,,,,,,,335.178,336.7306,336.7306,339.5308,return,0.9328,,36.71875,0,53,53,22,1,FBP-PT-18.png,0.4,1.2,23,0.75,,,,,,,,,,,,,,,,,,,,,,,,,,,,,,,,,,,,,,,,,,,,,
,,,,,V3_074,19,female,2024-11-18_15h53.44.074,jersey_experiment_5_v3,2023.2.2,Win32,84.74576271,,,,,,,,,,,,,,,,339.531,341.0836,341.0837,343.9428,return,0.771,,25,0,54,54,55,1,FBP-RB-19.png,0.35,1.2,56,0.75,,,,,,,,,,,,,,,,,,,,,,,,,,,,,,,,,,,,,,,,,,,,,
,,,,,V3_074,19,female,2024-11-18_15h53.44.074,jersey_experiment_5_v3,2023.2.2,Win32,84.74576271,,,,,,,,,,,,,,,,343.9431,345.4957,345.4958,348.5193,return,1.0773,,74.34895833,0,55,55,48,1,FBP-RB-17.png,0.43,1.2,49,0.75,,,,,,,,,,,,,,,,,,,,,,,,,,,,,,,,,,,,,,,,,,,,,
,,,,,V3_074,19,female,2024-11-18_15h53.44.074,jersey_experiment_5_v3,2023.2.2,Win32,84.74576271,,,,,,,,,,,,,,,,348.5196,350.0722,350.0722,352.9902,return,1.2709,,99.21875,0,56,56,59,1,FBP-RB-19.png,0.45,1.2,60,0.75,,,,,,,,,,,,,,,,,,,,,,,,,,,,,,,,,,,,,,,,,,,,,
,,,,,V3_074,19,female,2024-11-18_15h53.44.074,jersey_experiment_5_v3,2023.2.2,Win32,84.74576271,,,,,,,,,,,,,,,,352.9905,354.5431,354.5431,357.9432,return,1.113,,75,0,57,57,27,1,FBP-PT-19.png,0.4,1.2,28,0.75,,,,,,,,,,,,,,,,,,,,,,,,,,,,,,,,,,,,,,,,,,,,,
,,,,,V3_074,19,female,2024-11-18_15h53.44.074,jersey_experiment_5_v3,2023.2.2,Win32,84.74576271,,,,,,,,,,,,,,,,357.9434,359.4962,359.4963,362.8258,return,1.4274,,25.65104167,0,58,58,15,1,FBP-PT-17.png,0.35,1.2,16,0.75,,,,,,,,,,,,,,,,,,,,,,,,,,,,,,,,,,,,,,,,,,,,,
,,,,,V3_074,19,female,2024-11-18_15h53.44.074,jersey_experiment_5_v3,2023.2.2,Win32,84.74576271,,,,,,,,,,,,,,,,362.8261,364.12,364.12,366.5553,return,0.7656,,74.08854167,0,59,59,39,1,FBP-OG-18.png,0.45,1.2,40,0.5,,,,,,,,,,,,,,,,,,,,,,,,,,,,,,,,,,,,,,,,,,,,,
,,,,,V3_074,19,female,2024-11-18_15h53.44.074,jersey_experiment_5_v3,2023.2.2,Win32,84.74576271,,,,,,,,,,,,,,,,366.5573,367.8494,367.8495,370.826,return,0.8257,,23.95833333,,,,,,FBP-OG-71.png,0.35,1.2,31,0.5,0,0,0,30,1,,,,,,,,,,,,,,,,,,,,,,,,,,,,,,,,,,,,,,,,
,,,,,V3_074,19,female,2024-11-18_15h53.44.074,jersey_experiment_5_v3,2023.2.2,Win32,84.74576271,,,,,,,,,,,,,,,,370.8264,372.3792,372.3792,375.5792,return,1.0811,,49.609375,,,,,,FBP-RB-91.png,0.4,1.2,58,0.75,0,1,1,57,1,,,,,,,,,,,,,,,,,,,,,,,,,,,,,,,,,,,,,,,,
,,,,,V3_074,19,female,2024-11-18_15h53.44.074,jersey_experiment_5_v3,2023.2.2,Win32,84.74576271,,,,,,,,,,,,,,,,375.5796,377.132,377.1321,379.2734,return,0.7797,,35.67708333,,,,,,FBP-RB-81.png,0.35,1.2,51,0.75,0,2,2,50,1,,,,,,,,,,,,,,,,,,,,,,,,,,,,,,,,,,,,,,,,
,,,,,V3_074,19,female,2024-11-18_15h53.44.074,jersey_experiment_5_v3,2023.2.2,Win32,84.74576271,,,,,,,,,,,,,,,,379.2737,380.8263,380.8263,383.4972,return,0.8054,,26.82291667,,,,,,FBP-PT-71.png,0.35,1.2,16,0.75,0,3,3,15,1,,,,,,,,,,,,,,,,,,,,,,,,,,,,,,,,,,,,,,,,
,,,,,V3_074,19,female,2024-11-18_15h53.44.074,jersey_experiment_5_v3,2023.2.2,Win32,84.74576271,,,,,,,,,,,,,,,,383.4974,385.0501,385.0501,386.6385,return,0.8383,,26.82291667,,,,,,FBP-PT-91.png,0.35,1.2,26,0.75,0,4,4,25,1,,,,,,,,,,,,,,,,,,,,,,,,,,,,,,,,,,,,,,,,
,,,,,V3_074,19,female,2024-11-18_15h53.44.074,jersey_experiment_5_v3,2023.2.2,Win32,84.74576271,,,,,,,,,,,,,,,,386.6387,388.1914,388.1914,390.8385,return,0.8074,,62.76041667,,,,,,FBP-RB-71.png,0.4,1.2,48,0.75,0,5,5,47,1,,,,,,,,,,,,,,,,,,,,,,,,,,,,,,,,,,,,,,,,
,,,,,V3_074,19,female,2024-11-18_15h53.44.074,jersey_experiment_5_v3,2023.2.2,Win32,84.74576271,,,,,,,,,,,,,,,,390.8387,392.3915,392.3915,395.0388,return,0.7186,,69.40104167,,,,,,FBP-PT-81.png,0.4,1.2,23,0.75,0,6,6,22,1,,,,,,,,,,,,,,,,,,,,,,,,,,,,,,,,,,,,,,,,
,,,,,V3_074,19,female,2024-11-18_15h53.44.074,jersey_experiment_5_v3,2023.2.2,Win32,84.74576271,,,,,,,,,,,,,,,,395.0391,396.5917,396.5918,398.733,return,0.9071,,88.93229167,,,,,,FBP-PT-71.png,0.43,1.2,19,0.75,0,7,7,18,1,,,,,,,,,,,,,,,,,,,,,,,,,,,,,,,,,,,,,,,,
,,,,,V3_074,19,female,2024-11-18_15h53.44.074,jersey_experiment_5_v3,2023.2.2,Win32,84.74576271,,,,,,,,,,,,,,,,398.7332,400.2746,400.2746,404.6627,return,0.7725,,57.8125,,,,,,FBP-PT-71.png,0.37,1.2,17,0.75,0,8,8,16,1,,,,,,,,,,,,,,,,,,,,,,,,,,,,,,,,,,,,,,,,
,,,,,V3_074,19,female,2024-11-18_15h53.44.074,jersey_experiment_5_v3,2023.2.2,Win32,84.74576271,,,,,,,,,,,,,,,,404.6629,406.2155,406.2156,408.3098,return,0.8201,,75.26041667,,,,,,FBP-PT-71.png,0.4,1.2,18,0.75,0,9,9,17,1,,,,,,,,,,,,,,,,,,,,,,,,,,,,,,,,,,,,,,,,
,,,,,V3_074,19,female,2024-11-18_15h53.44.074,jersey_experiment_5_v3,2023.2.2,Win32,84.74576271,,,,,,,,,,,,,,,,408.3102,409.8629,409.8629,411.5923,return,0.6748,,75.26041667,,,,,,FBP-RB-91.png,0.43,1.2,59,0.75,0,10,10,58,1,,,,,,,,,,,,,,,,,,,,,,,,,,,,,,,,,,,,,,,,
,,,,,V3_074,19,female,2024-11-18_15h53.44.074,jersey_experiment_5_v3,2023.2.2,Win32,84.74576271,,,,,,,,,,,,,,,,411.5926,413.1453,413.1455,415.1337,return,0.9103,,75.26041667,,,,,,FBP-YG-18.png,0.4,1.2,8,0.75,0,11,11,7,1,,,,,,,,,,,,,,,,,,,,,,,,,,,,,,,,,,,,,,,,
,,,,,V3_074,19,female,2024-11-18_15h53.44.074,jersey_experiment_5_v3,2023.2.2,Win32,84.74576271,,,,,,,,,,,,,,,,415.134,416.6865,416.6865,419.0043,return,0.7785,,98.95833333,,,,,,FBP-PT-71.png,0.45,1.2,20,0.75,0,12,12,19,1,,,,,,,,,,,,,,,,,,,,,,,,,,,,,,,,,,,,,,,,
,,,,,V3_074,19,female,2024-11-18_15h53.44.074,jersey_experiment_5_v3,2023.2.2,Win32,84.74576271,,,,,,,,,,,,,,,,419.0045,420.2985,420.2985,422.6634,return,0.7098,,25.13020833,,,,,,FBP-OG-81.png,0.35,1.2,36,0.5,0,13,13,35,1,,,,,,,,,,,,,,,,,,,,,,,,,,,,,,,,,,,,,,,,
,,,,,V3_074,19,female,2024-11-18_15h53.44.074,jersey_experiment_5_v3,2023.2.2,Win32,84.74576271,,,,,,,,,,,,,,,,422.6636,423.9574,423.9575,426.2399,return,0.721,,74.34895833,,,,,,FBP-OG-81.png,0.43,1.2,39,0.5,0,14,14,38,1,,,,,,,,,,,,,,,,,,,,,,,,,,,,,,,,,,,,,,,,
,,,,,V3_074,19,female,2024-11-18_15h53.44.074,jersey_experiment_5_v3,2023.2.2,Win32,84.74576271,,,,,,,,,,,,,,,,426.2401,427.793,427.793,430.4871,return,1.113,,37.63020833,,,,,,FBP-YG-17.png,0.37,1.2,2,0.75,0,15,15,1,1,,,,,,,,,,,,,,,,,,,,,,,,,,,,,,,,,,,,,,,,
,,,,,V3_074,19,female,2024-11-18_15h53.44.074,jersey_experiment_5_v3,2023.2.2,Win32,84.74576271,,,,,,,,,,,,,,,,430.4873,432.0402,432.0403,434.0873,return,0.9246,,74.73958333,,,,,,FBP-YG-17.png,0.45,1.2,5,0.75,0,16,16,4,1,,,,,,,,,,,,,,,,,,,,,,,,,,,,,,,,,,,,,,,,
,,,,,V3_074,19,female,2024-11-18_15h53.44.074,jersey_experiment_5_v3,2023.2.2,Win32,84.74576271,,,,,,,,,,,,,,,,434.0876,435.6403,435.6404,437.5933,return,1.1902,,74.73958333,,,,,,FBP-RB-81.png,0.43,1.2,54,0.75,0,17,17,53,1,,,,,,,,,,,,,,,,,,,,,,,,,,,,,,,,,,,,,,,,
,,,,,V3_074,19,female,2024-11-18_15h53.44.074,jersey_experiment_5_v3,2023.2.2,Win32,84.74576271,,,,,,,,,,,,,,,,437.5937,439.1463,439.1464,441.2288,return,0.8846,,99.34895833,,,,,,FBP-RB-91.png,0.45,1.2,60,0.75,0,18,18,59,1,,,,,,,,,,,,,,,,,,,,,,,,,,,,,,,,,,,,,,,,
,,,,,V3_074,19,female,2024-11-18_15h53.44.074,jersey_experiment_5_v3,2023.2.2,Win32,84.74576271,,,,,,,,,,,,,,,,441.2291,442.7817,442.7818,444.4642,return,0.8237,,99.34895833,,,,,,FBP-YG-18.png,0.43,1.2,9,0.75,0,19,19,8,1,,,,,,,,,,,,,,,,,,,,,,,,,,,,,,,,,,,,,,,,
,,,,,V3_074,19,female,2024-11-18_15h53.44.074,jersey_experiment_5_v3,2023.2.2,Win32,84.74576271,,,,,,,,,,,,,,,,444.4644,445.7584,445.7584,447.7347,return,0.8393,,99.34895833,,,,,,FBP-OG-81.png,0.45,1.2,40,0.5,0,20,20,39,1,,,,,,,,,,,,,,,,,,,,,,,,,,,,,,,,,,,,,,,,
,,,,,V3_074,19,female,2024-11-18_15h53.44.074,jersey_experiment_5_v3,2023.2.2,Win32,84.74576271,,,,,,,,,,,,,,,,447.735,449.2878,449.2879,452.0055,return,0.8443,,24.34895833,,,,,,FBP-YG-18.png,0.35,1.2,6,0.75,0,21,21,5,1,,,,,,,,,,,,,,,,,,,,,,,,,,,,,,,,,,,,,,,,
,,,,,V3_074,19,female,2024-11-18_15h53.44.074,jersey_experiment_5_v3,2023.2.2,Win32,84.74576271,,,,,,,,,,,,,,,,452.0057,453.2998,453.2998,455.9469,return,0.9312,,25.65104167,,,,,,FBP-OG-91.png,0.37,1.2,42,0.5,0,22,22,41,1,,,,,,,,,,,,,,,,,,,,,,,,,,,,,,,,,,,,,,,,
,,,,,V3_074,19,female,2024-11-18_15h53.44.074,jersey_experiment_5_v3,2023.2.2,Win32,84.74576271,,,,,,,,,,,,,,,,455.9471,457.4999,457.5,460.0883,return,1.2162,,74.08854167,,,,,,FBP-YG-18.png,0.45,1.2,10,0.75,0,23,23,9,1,,,,,,,,,,,,,,,,,,,,,,,,,,,,,,,,,,,,,,,,
,,,,,V3_074,19,female,2024-11-18_15h53.44.074,jersey_experiment_5_v3,2023.2.2,Win32,84.74576271,,,,,,,,,,,,,,,,460.0885,461.3825,461.3826,464.0296,return,1.0353,,61.84895833,,,,,,FBP-OG-81.png,0.4,1.2,38,0.5,0,24,24,37,1,,,,,,,,,,,,,,,,,,,,,,,,,,,,,,,,,,,,,,,,
,,,,,V3_074,19,female,2024-11-18_15h53.44.074,jersey_experiment_5_v3,2023.2.2,Win32,84.74576271,,,,,,,,,,,,,,,,464.0298,465.5826,465.5826,467.7709,return,0.9563,,73.4375,,,,,,FBP-PT-81.png,0.43,1.2,24,0.75,0,25,25,23,1,,,,,,,,,,,,,,,,,,,,,,,,,,,,,,,,,,,,,,,,
,,,,,V3_074,19,female,2024-11-18_15h53.44.074,jersey_experiment_5_v3,2023.2.2,Win32,84.74576271,,,,,,,,,,,,,,,,467.7712,469.065,469.0651,471.4651,return,0.8023,,63.15104167,,,,,,FBP-OG-71.png,0.4,1.2,33,0.5,0,26,26,32,1,,,,,,,,,,,,,,,,,,,,,,,,,,,,,,,,,,,,,,,,
,,,,,V3_074,19,female,2024-11-18_15h53.44.074,jersey_experiment_5_v3,2023.2.2,Win32,84.74576271,,,,,,,,,,,,,,,,471.4653,472.7593,472.7593,475.583,return,1.4604,,74.86979167,,,,,,FBP-OG-91.png,0.45,1.2,45,0.5,0,27,27,44,1,,,,,,,,,,,,,,,,,,,,,,,,,,,,,,,,,,,,,,,,
,,,,,V3_074,19,female,2024-11-18_15h53.44.074,jersey_experiment_5_v3,2023.2.2,Win32,84.74576271,,,,,,,,,,,,,,,,475.5833,476.8771,476.8772,479.5832,return,0.9391,,62.890625,,,,,,FBP-OG-91.png,0.4,1.2,43,0.5,0,28,28,42,1,,,,,,,,,,,,,,,,,,,,,,,,,,,,,,,,,,,,,,,,
,,,,,V3_074,19,female,2024-11-18_15h53.44.074,jersey_experiment_5_v3,2023.2.2,Win32,84.74576271,,,,,,,,,,,,,,,,479.5835,481.1361,481.1362,484.2657,return,0.9423,,11.328125,,,,,,FBP-RB-71.png,0.35,1.2,46,0.75,0,29,29,45,1,,,,,,,,,,,,,,,,,,,,,,,,,,,,,,,,,,,,,,,,
,,,,,V3_074,19,female,2024-11-18_15h53.44.074,jersey_experiment_5_v3,2023.2.2,Win32,84.74576271,,,,,,,,,,,,,,,,484.2659,485.8186,485.8187,487.7716,return,0.7298,,16.27604167,,,,,,FBP-RB-71.png,0.37,1.2,47,0.75,0,30,30,46,1,,,,,,,,,,,,,,,,,,,,,,,,,,,,,,,,,,,,,,,,
,,,,,V3_074,19,female,2024-11-18_15h53.44.074,jersey_experiment_5_v3,2023.2.2,Win32,84.74576271,,,,,,,,,,,,,,,,487.7719,489.3247,489.3247,491.1482,return,0.7079,,21.22395833,,,,,,FBP-PT-81.png,0.35,1.2,21,0.75,0,31,31,20,1,,,,,,,,,,,,,,,,,,,,,,,,,,,,,,,,,,,,,,,,
,,,,,V3_074,19,female,2024-11-18_15h53.44.074,jersey_experiment_5_v3,2023.2.2,Win32,84.74576271,,,,,,,,,,,,,,,,491.1486,492.4424,492.4425,494.7602,return,0.708,,74.609375,,,,,,FBP-OG-71.png,0.43,1.2,34,0.5,0,32,32,33,1,,,,,,,,,,,,,,,,,,,,,,,,,,,,,,,,,,,,,,,,
,,,,,V3_074,19,female,2024-11-18_15h53.44.074,jersey_experiment_5_v3,2023.2.2,Win32,84.74576271,,,,,,,,,,,,,,,,494.7604,496.3132,496.3133,498.2309,return,0.8162,,82.421875,,,,,,FBP-PT-91.png,0.45,1.2,30,0.75,0,33,33,29,1,,,,,,,,,,,,,,,,,,,,,,,,,,,,,,,,,,,,,,,,
,,,,,V3_074,19,female,2024-11-18_15h53.44.074,jersey_experiment_5_v3,2023.2.2,Win32,84.74576271,,,,,,,,,,,,,,,,498.2312,499.7839,499.7839,502.6545,return,0.8342,,75.13020833,,,,,,FBP-YG-19.png,0.37,1.2,12,0.75,0,34,34,11,1,,,,,,,,,,,,,,,,,,,,,,,,,,,,,,,,,,,,,,,,
,,,,,V3_074,19,female,2024-11-18_15h53.44.074,jersey_experiment_5_v3,2023.2.2,Win32,84.74576271,,,,,,,,,,,,,,,,502.6548,503.9487,503.9488,507.6783,return,2.023,,24.73958333,,,,,,FBP-OG-91.png,0.35,1.2,41,0.5,0,35,35,40,1,,,,,,,,,,,,,,,,,,,,,,,,,,,,,,,,,,,,,,,,
,,,,,V3_074,19,female,2024-11-18_15h53.44.074,jersey_experiment_5_v3,2023.2.2,Win32,84.74576271,,,,,,,,,,,,,,,,507.6785,509.2313,509.2313,511.4548,return,0.7404,,74.609375,,,,,,FBP-YG-19.png,0.43,1.2,14,0.75,0,36,36,13,1,,,,,,,,,,,,,,,,,,,,,,,,,,,,,,,,,,,,,,,,
,,,,,V3_074,19,female,2024-11-18_15h53.44.074,jersey_experiment_5_v3,2023.2.2,Win32,84.74576271,,,,,,,,,,,,,,,,511.4553,513.0079,513.0079,514.7962,return,0.8583,,86.45833333,,,,,,FBP-RB-71.png,0.45,1.2,50,0.75,0,37,37,49,1,,,,,,,,,,,,,,,,,,,,,,,,,,,,,,,,,,,,,,,,
,,,,,V3_074,19,female,2024-11-18_15h53.44.074,jersey_experiment_5_v3,2023.2.2,Win32,84.74576271,,,,,,,,,,,,,,,,514.7965,516.3491,516.3492,518.5845,return,1.182,,84.765625,,,,,,FBP-YG-17.png,0.43,1.2,4,0.75,0,38,38,3,1,,,,,,,,,,,,,,,,,,,,,,,,,,,,,,,,,,,,,,,,
,,,,,V3_074,19,female,2024-11-18_15h53.44.074,jersey_experiment_5_v3,2023.2.2,Win32,84.74576271,,,,,,,,,,,,,,,,518.5848,519.8787,519.8787,522.4317,return,1.0362,,75.78125,,,,,,FBP-OG-71.png,0.45,1.2,35,0.5,0,39,39,34,1,,,,,,,,,,,,,,,,,,,,,,,,,,,,,,,,,,,,,,,,
,,,,,V3_074,19,female,2024-11-18_15h53.44.074,jersey_experiment_5_v3,2023.2.2,Win32,84.74576271,,,,,,,,,,,,,,,,522.432,523.9848,523.9849,525.9026,return,1.0826,,87.109375,,,,,,FBP-YG-19.png,0.45,1.2,15,0.75,0,40,40,14,1,,,,,,,,,,,,,,,,,,,,,,,,,,,,,,,,,,,,,,,,
,,,,,V3_074,19,female,2024-11-18_15h53.44.074,jersey_experiment_5_v3,2023.2.2,Win32,84.74576271,,,,,,,,,,,,,,,,525.903,527.1967,527.1967,528.8438,return,1.0701,,87.109375,,,,,,FBP-OG-91.png,0.43,1.2,44,0.5,0,41,41,43,1,,,,,,,,,,,,,,,,,,,,,,,,,,,,,,,,,,,,,,,,
,,,,,V3_074,19,female,2024-11-18_15h53.44.074,jersey_experiment_5_v3,2023.2.2,Win32,84.74576271,,,,,,,,,,,,,,,,528.844,530.3968,530.3968,532.5027,return,0.8771,,25.13020833,,,,,,FBP-YG-17.png,0.35,1.2,1,0.75,0,42,42,0,1,,,,,,,,,,,,,,,,,,,,,,,,,,,,,,,,,,,,,,,,
,,,,,V3_074,19,female,2024-11-18_15h53.44.074,jersey_experiment_5_v3,2023.2.2,Win32,84.74576271,,,,,,,,,,,,,,,,532.503,534.0557,534.0558,535.4793,return,0.8179,,25.13020833,,,,,,FBP-YG-17.png,0.4,1.2,3,0.75,0,43,43,2,1,,,,,,,,,,,,,,,,,,,,,,,,,,,,,,,,,,,,,,,,
,,,,,V3_074,19,female,2024-11-18_15h53.44.074,jersey_experiment_5_v3,2023.2.2,Win32,84.74576271,,,,,,,,,,,,,,,,535.4796,537.0324,537.0324,538.8324,return,0.9676,,25.13020833,,,,,,FBP-YG-19.png,0.4,1.2,13,0.75,0,44,44,12,1,,,,,,,,,,,,,,,,,,,,,,,,,,,,,,,,,,,,,,,,
,,,,,V3_074,19,female,2024-11-18_15h53.44.074,jersey_experiment_5_v3,2023.2.2,Win32,84.74576271,,,,,,,,,,,,,,,,538.8327,540.3854,540.3855,546.7269,return,3.396,,75.13020833,,,,,,FBP-PT-81.png,0.45,1.2,25,0.75,0,45,45,24,1,,,,,,,,,,,,,,,,,,,,,,,,,,,,,,,,,,,,,,,,
,,,,,V3_074,19,female,2024-11-18_15h53.44.074,jersey_experiment_5_v3,2023.2.2,Win32,84.74576271,,,,,,,,,,,,,,,,546.7272,548.0211,548.0212,550.5741,return,0.7197,,24.609375,,,,,,FBP-OG-81.png,0.37,1.2,37,0.5,0,46,46,36,1,,,,,,,,,,,,,,,,,,,,,,,,,,,,,,,,,,,,,,,,
,,,,,V3_074,19,female,2024-11-18_15h53.44.074,jersey_experiment_5_v3,2023.2.2,Win32,84.74576271,,,,,,,,,,,,,,,,550.5745,551.8682,551.8683,554.0918,return,1.049,,24.609375,,,,,,FBP-OG-71.png,0.37,1.2,32,0.5,0,47,47,31,1,,,,,,,,,,,,,,,,,,,,,,,,,,,,,,,,,,,,,,,,
,,,,,V3_074,19,female,2024-11-18_15h53.44.074,jersey_experiment_5_v3,2023.2.2,Win32,84.74576271,,,,,,,,,,,,,,,,554.0921,555.6449,555.6449,559.8804,return,2.6416,,61.58854167,,,,,,FBP-RB-71.png,0.43,1.2,49,0.75,0,48,48,48,1,,,,,,,,,,,,,,,,,,,,,,,,,,,,,,,,,,,,,,,,
,,,,,V3_074,19,female,2024-11-18_15h53.44.074,jersey_experiment_5_v3,2023.2.2,Win32,84.74576271,,,,,,,,,,,,,,,,559.8807,561.4332,561.4332,564.3039,return,1.5873,,74.34895833,,,,,,FBP-RB-81.png,0.45,1.2,55,0.75,0,49,49,54,1,,,,,,,,,,,,,,,,,,,,,,,,,,,,,,,,,,,,,,,,
,,,,,V3_074,19,female,2024-11-18_15h53.44.074,jersey_experiment_5_v3,2023.2.2,Win32,84.74576271,,,,,,,,,,,,,,,,564.3043,565.8569,565.857,569.2452,return,1.2714,,24.21875,,,,,,FBP-RB-81.png,0.37,1.2,52,0.75,0,50,50,51,1,,,,,,,,,,,,,,,,,,,,,,,,,,,,,,,,,,,,,,,,
,,,,,V3_074,19,female,2024-11-18_15h53.44.074,jersey_experiment_5_v3,2023.2.2,Win32,84.74576271,,,,,,,,,,,,,,,,569.2454,570.7983,570.7984,573.6807,return,1.2218,,63.93229167,,,,,,FBP-PT-91.png,0.43,1.2,29,0.75,0,51,51,28,1,,,,,,,,,,,,,,,,,,,,,,,,,,,,,,,,,,,,,,,,
,,,,,V3_074,19,female,2024-11-18_15h53.44.074,jersey_experiment_5_v3,2023.2.2,Win32,84.74576271,,,,,,,,,,,,,,,,573.6811,575.2337,575.2337,578.0692,return,1.2562,,62.63020833,,,,,,FBP-PT-91.png,0.4,1.2,28,0.75,0,52,52,27,1,,,,,,,,,,,,,,,,,,,,,,,,,,,,,,,,,,,,,,,,
,,,,,V3_074,19,female,2024-11-18_15h53.44.074,jersey_experiment_5_v3,2023.2.2,Win32,84.74576271,,,,,,,,,,,,,,,,578.0696,579.6222,579.6223,582.1399,return,1.0375,,25.65104167,,,,,,FBP-YG-18.png,0.37,1.2,7,0.75,0,53,53,6,1,,,,,,,,,,,,,,,,,,,,,,,,,,,,,,,,,,,,,,,,
,,,,,V3_074,19,female,2024-11-18_15h53.44.074,jersey_experiment_5_v3,2023.2.2,Win32,84.74576271,,,,,,,,,,,,,,,,582.1403,583.693,583.6931,585.8226,return,1.0104,,25.65104167,,,,,,FBP-RB-91.png,0.35,1.2,56,0.75,0,54,54,55,1,,,,,,,,,,,,,,,,,,,,,,,,,,,,,,,,,,,,,,,,
,,,,,V3_074,19,female,2024-11-18_15h53.44.074,jersey_experiment_5_v3,2023.2.2,Win32,84.74576271,,,,,,,,,,,,,,,,585.8228,587.3754,587.3755,589.399,return,1.0177,,25.65104167,,,,,,FBP-PT-91.png,0.37,1.2,27,0.75,0,55,55,26,1,,,,,,,,,,,,,,,,,,,,,,,,,,,,,,,,,,,,,,,,
,,,,,V3_074,19,female,2024-11-18_15h53.44.074,jersey_experiment_5_v3,2023.2.2,Win32,84.74576271,,,,,,,,,,,,,,,,589.3992,590.952,590.9521,594.6228,return,2.72,,38.28125,,,,,,FBP-RB-81.png,0.4,1.2,53,0.75,0,56,56,52,1,,,,,,,,,,,,,,,,,,,,,,,,,,,,,,,,,,,,,,,,
,,,,,V3_074,19,female,2024-11-18_15h53.44.074,jersey_experiment_5_v3,2023.2.2,Win32,84.74576271,,,,,,,,,,,,,,,,594.6231,596.1758,596.1758,598.6463,return,1.6753,,38.28125,,,,,,FBP-PT-81.png,0.37,1.2,22,0.75,0,57,57,21,1,,,,,,,,,,,,,,,,,,,,,,,,,,,,,,,,,,,,,,,,
,,,,,V3_074,19,female,2024-11-18_15h53.44.074,jersey_experiment_5_v3,2023.2.2,Win32,84.74576271,,,,,,,,,,,,,,,,598.6467,600.1993,600.1994,602.5995,return,0.8991,,42.05729167,,,,,,FBP-RB-91.png,0.37,1.2,57,0.75,0,58,58,56,1,,,,,,,,,,,,,,,,,,,,,,,,,,,,,,,,,,,,,,,,
,,,,,V3_074,19,female,2024-11-18_15h53.44.074,jersey_experiment_5_v3,2023.2.2,Win32,84.74576271,,,,,,,,,,,,,,,,602.5998,604.1524,604.1525,606.4467,return,0.8556,,25.65104167,,,,,,FBP-YG-19.png,0.35,1.2,11,0.75,0,59,59,10,1,,,,,,,,,,,,,,,,,,,,,,,,,,,,,,,,,,,,,,,,
,,,,,V3_074,19,female,2024-11-18_15h53.44.074,jersey_experiment_5_v3,2023.2.2,Win32,84.74576271,,,,,,,,,,,,,,,,,,,,,,,,,,,,,,,,,,,,,,,606.4469,726.4396,,,,,,,,,,,,,,,,,,,,,,,,,,,,,,,,,,,,,,
,,,,,V3_074,19,female,2024-11-18_15h53.44.074,jersey_experiment_5_v3,2023.2.2,Win32,84.74576271,,,,,,,,,,,,,,,,,,,,,,,,,,,,,,,,,,,,,,,,,726.4398,784.3361,return,57.8821,,,,,,,,,,,,,,,,,,,,,,,,,,,,,,,,,,
,,,,,V3_074,19,female,2024-11-18_15h53.44.074,jersey_experiment_5_v3,2023.2.2,Win32,84.74576271,,,,,,,,,,,,,,,,784.3373,785.63,785.63,788.3125,return,0.9812,,49.08854167,,,,,,FBP-YG-81.png,0.43,1.2,9,0.5,,,,,,,,,,,,,0,0,0,8,1,,,,,,,,,,,,,,,,,,,,,,,,,,,,
,,,,,V3_074,19,female,2024-11-18_15h53.44.074,jersey_experiment_5_v3,2023.2.2,Win32,84.74576271,,,,,,,,,,,,,,,,788.3129,789.6067,789.6067,791.9009,return,0.9537,,73.69791667,,,,,,FBP-PT-17.png,0.45,1.2,20,0.5,,,,,,,,,,,,,0,1,1,19,1,,,,,,,,,,,,,,,,,,,,,,,,,,,,
,,,,,V3_074,19,female,2024-11-18_15h53.44.074,jersey_experiment_5_v3,2023.2.2,Win32,84.74576271,,,,,,,,,,,,,,,,791.9013,793.1949,793.195,796.0421,return,0.9101,,25.13020833,,,,,,FBP-PT-19.png,0.35,1.2,26,0.5,,,,,,,,,,,,,0,2,2,25,1,,,,,,,,,,,,,,,,,,,,,,,,,,,,
,,,,,V3_074,19,female,2024-11-18_15h53.44.074,jersey_experiment_5_v3,2023.2.2,Win32,84.74576271,,,,,,,,,,,,,,,,796.0425,797.3364,797.3365,799.7598,return,0.7572,,74.47916667,,,,,,FBP-RB-18.png,0.45,1.2,55,0.5,,,,,,,,,,,,,0,3,3,54,1,,,,,,,,,,,,,,,,,,,,,,,,,,,,
,,,,,V3_074,19,female,2024-11-18_15h53.44.074,jersey_experiment_5_v3,2023.2.2,Win32,84.74576271,,,,,,,,,,,,,,,,799.7601,801.3129,801.3131,803.5955,return,0.9171,,24.21875,,,,,,FBP-OG-19.png,0.35,1.2,41,0.75,,,,,,,,,,,,,0,4,4,40,1,,,,,,,,,,,,,,,,,,,,,,,,,,,,
,,,,,V3_074,19,female,2024-11-18_15h53.44.074,jersey_experiment_5_v3,2023.2.2,Win32,84.74576271,,,,,,,,,,,,,,,,803.5957,805.1483,805.1483,807.6308,return,1.2004,,75,,,,,,FBP-OG-19.png,0.43,1.2,44,0.75,,,,,,,,,,,,,0,5,5,43,1,,,,,,,,,,,,,,,,,,,,,,,,,,,,
,,,,,V3_074,19,female,2024-11-18_15h53.44.074,jersey_experiment_5_v3,2023.2.2,Win32,84.74576271,,,,,,,,,,,,,,,,807.6312,809.1839,809.1839,810.6781,return,0.9848,,75,,,,,,FBP-OG-19.png,0.45,1.2,45,0.75,,,,,,,,,,,,,0,6,6,44,1,,,,,,,,,,,,,,,,,,,,,,,,,,,,
,,,,,V3_074,19,female,2024-11-18_15h53.44.074,jersey_experiment_5_v3,2023.2.2,Win32,84.74576271,,,,,,,,,,,,,,,,810.6784,811.9722,811.9723,813.7251,return,0.754,,75.13020833,,,,,,FBP-PT-19.png,0.4,1.2,28,0.5,,,,,,,,,,,,,0,7,7,27,1,,,,,,,,,,,,,,,,,,,,,,,,,,,,
,,,,,V3_074,19,female,2024-11-18_15h53.44.074,jersey_experiment_5_v3,2023.2.2,Win32,84.74576271,,,,,,,,,,,,,,,,813.7254,815.0193,815.0194,817.7018,return,0.8086,,34.89583333,,,,,,FBP-RB-17.png,0.37,1.2,47,0.5,,,,,,,,,,,,,0,8,8,46,1,,,,,,,,,,,,,,,,,,,,,,,,,,,,
,,,,,V3_074,19,female,2024-11-18_15h53.44.074,jersey_experiment_5_v3,2023.2.2,Win32,84.74576271,,,,,,,,,,,,,,,,817.702,818.996,818.996,821.4315,return,0.7823,,74.73958333,,,,,,FBP-YG-91.png,0.45,1.2,15,0.5,,,,,,,,,,,,,0,9,9,14,1,,,,,,,,,,,,,,,,,,,,,,,,,,,,
,,,,,V3_074,19,female,2024-11-18_15h53.44.074,jersey_experiment_5_v3,2023.2.2,Win32,84.74576271,,,,,,,,,,,,,,,,821.4318,822.7255,822.7256,824.6315,return,0.6877,,74.73958333,,,,,,FBP-PT-18.png,0.43,1.2,24,0.5,,,,,,,,,,,,,0,10,10,23,1,,,,,,,,,,,,,,,,,,,,,,,,,,,,
,,,,,V3_074,19,female,2024-11-18_15h53.44.074,jersey_experiment_5_v3,2023.2.2,Win32,84.74576271,,,,,,,,,,,,,,,,824.6318,825.9255,825.9256,828.361,return,0.5229,,74.73958333,,,,,,FBP-YG-71.png,0.45,1.2,5,0.5,,,,,,,,,,,,,0,11,11,4,1,,,,,,,,,,,,,,,,,,,,,,,,,,,,
,,,,,V3_074,19,female,2024-11-18_15h53.44.074,jersey_experiment_5_v3,2023.2.2,Win32,84.74576271,,,,,,,,,,,,,,,,828.3614,829.6552,829.6552,832.4554,return,0.8645,,24.34895833,,,,,,FBP-PT-17.png,0.37,1.2,17,0.5,,,,,,,,,,,,,0,12,12,16,1,,,,,,,,,,,,,,,,,,,,,,,,,,,,
,,,,,V3_074,19,female,2024-11-18_15h53.44.074,jersey_experiment_5_v3,2023.2.2,Win32,84.74576271,,,,,,,,,,,,,,,,832.4556,833.7497,833.7497,836.7143,return,0.8838,,24.609375,,,,,,FBP-PT-17.png,0.35,1.2,16,0.5,,,,,,,,,,,,,0,13,13,15,1,,,,,,,,,,,,,,,,,,,,,,,,,,,,
,,,,,V3_074,19,female,2024-11-18_15h53.44.074,jersey_experiment_5_v3,2023.2.2,Win32,84.74576271,,,,,,,,,,,,,,,,836.7147,838.2673,838.2673,840.491,return,0.9092,,24.609375,,,,,,FBP-OG-18.png,0.37,1.2,37,0.75,,,,,,,,,,,,,0,14,14,36,1,,,,,,,,,,,,,,,,,,,,,,,,,,,,
,,,,,V3_074,19,female,2024-11-18_15h53.44.074,jersey_experiment_5_v3,2023.2.2,Win32,84.74576271,,,,,,,,,,,,,,,,840.4911,841.7851,841.7851,844.7501,return,0.9427,,74.86979167,,,,,,FBP-PT-19.png,0.43,1.2,29,0.5,,,,,,,,,,,,,0,15,15,28,1,,,,,,,,,,,,,,,,,,,,,,,,,,,,
,,,,,V3_074,19,female,2024-11-18_15h53.44.074,jersey_experiment_5_v3,2023.2.2,Win32,84.74576271,,,,,,,,,,,,,,,,844.7503,846.044,846.0441,848.0559,return,0.783,,74.86979167,,,,,,FBP-PT-19.png,0.45,1.2,30,0.5,,,,,,,,,,,,,0,16,16,29,1,,,,,,,,,,,,,,,,,,,,,,,,,,,,
,,,,,V3_074,19,female,2024-11-18_15h53.44.074,jersey_experiment_5_v3,2023.2.2,Win32,84.74576271,,,,,,,,,,,,,,,,848.0561,849.609,849.6091,851.6089,return,0.7689,,74.86979167,,,,,,FBP-OG-18.png,0.43,1.2,39,0.75,,,,,,,,,,,,,0,17,17,38,1,,,,,,,,,,,,,,,,,,,,,,,,,,,,
,,,,,V3_074,19,female,2024-11-18_15h53.44.074,jersey_experiment_5_v3,2023.2.2,Win32,84.74576271,,,,,,,,,,,,,,,,851.6093,852.9032,852.9032,856.2679,return,1.0011,,75.26041667,,,,,,FBP-YG-91.png,0.43,1.2,14,0.5,,,,,,,,,,,,,0,18,18,13,1,,,,,,,,,,,,,,,,,,,,,,,,,,,,
,,,,,V3_074,19,female,2024-11-18_15h53.44.074,jersey_experiment_5_v3,2023.2.2,Win32,84.74576271,,,,,,,,,,,,,,,,856.2682,857.5621,857.5621,860.4329,return,0.9651,,25.65104167,,,,,,FBP-YG-71.png,0.35,1.2,1,0.5,,,,,,,,,,,,,0,19,19,0,1,,,,,,,,,,,,,,,,,,,,,,,,,,,,
,,,,,V3_074,19,female,2024-11-18_15h53.44.074,jersey_experiment_5_v3,2023.2.2,Win32,84.74576271,,,,,,,,,,,,,,,,860.4332,861.7271,861.7272,864.4447,return,0.8386,,35.15625,,,,,,FBP-RB-19.png,0.4,1.2,58,0.5,,,,,,,,,,,,,0,20,20,57,1,,,,,,,,,,,,,,,,,,,,,,,,,,,,
,,,,,V3_074,19,female,2024-11-18_15h53.44.074,jersey_experiment_5_v3,2023.2.2,Win32,84.74576271,,,,,,,,,,,,,,,,864.4451,865.9977,865.9977,869.6568,return,1.7705,,35.28645833,,,,,,FBP-OG-18.png,0.35,1.2,36,0.75,,,,,,,,,,,,,0,21,21,35,1,,,,,,,,,,,,,,,,,,,,,,,,,,,,
,,,,,V3_074,19,female,2024-11-18_15h53.44.074,jersey_experiment_5_v3,2023.2.2,Win32,84.74576271,,,,,,,,,,,,,,,,869.6571,870.9508,870.9509,873.3509,return,0.7369,,64.84375,,,,,,FBP-YG-71.png,0.4,1.2,3,0.5,,,,,,,,,,,,,0,22,22,2,1,,,,,,,,,,,,,,,,,,,,,,,,,,,,
,,,,,V3_074,19,female,2024-11-18_15h53.44.074,jersey_experiment_5_v3,2023.2.2,Win32,84.74576271,,,,,,,,,,,,,,,,873.3512,874.6452,874.6452,877.3041,return,0.924,,39.0625,,,,,,FBP-YG-81.png,0.37,1.2,7,0.5,,,,,,,,,,,,,0,23,23,6,1,,,,,,,,,,,,,,,,,,,,,,,,,,,,
,,,,,V3_074,19,female,2024-11-18_15h53.44.074,jersey_experiment_5_v3,2023.2.2,Win32,84.74576271,,,,,,,,,,,,,,,,877.3044,878.5981,878.5982,881.0807,return,0.7704,,25.65104167,,,,,,FBP-RB-19.png,0.35,1.2,56,0.5,,,,,,,,,,,,,0,24,24,55,1,,,,,,,,,,,,,,,,,,,,,,,,,,,,
,,,,,V3_074,19,female,2024-11-18_15h53.44.074,jersey_experiment_5_v3,2023.2.2,Win32,84.74576271,,,,,,,,,,,,,,,,881.0809,882.3749,882.3749,884.8571,return,1.0038,,74.47916667,,,,,,FBP-PT-18.png,0.45,1.2,25,0.5,,,,,,,,,,,,,0,25,25,24,1,,,,,,,,,,,,,,,,,,,,,,,,,,,,
,,,,,V3_074,19,female,2024-11-18_15h53.44.074,jersey_experiment_5_v3,2023.2.2,Win32,84.74576271,,,,,,,,,,,,,,,,884.8574,886.1515,886.1515,888.8223,return,0.8437,,36.19791667,,,,,,FBP-RB-18.png,0.37,1.2,52,0.5,,,,,,,,,,,,,0,26,26,51,1,,,,,,,,,,,,,,,,,,,,,,,,,,,,
,,,,,V3_074,19,female,2024-11-18_15h53.44.074,jersey_experiment_5_v3,2023.2.2,Win32,84.74576271,,,,,,,,,,,,,,,,888.8225,890.1163,890.1163,892.7046,return,0.7994,,36.19791667,,,,,,FBP-YG-81.png,0.35,1.2,6,0.5,,,,,,,,,,,,,0,27,27,5,1,,,,,,,,,,,,,,,,,,,,,,,,,,,,
,,,,,V3_074,19,female,2024-11-18_15h53.44.074,jersey_experiment_5_v3,2023.2.2,Win32,84.74576271,,,,,,,,,,,,,,,,892.7049,893.9988,893.9988,897.4225,return,0.7532,,26.30208333,,,,,,FBP-RB-19.png,0.37,1.2,57,0.5,,,,,,,,,,,,,0,28,28,56,1,,,,,,,,,,,,,,,,,,,,,,,,,,,,
,,,,,V3_074,19,female,2024-11-18_15h53.44.074,jersey_experiment_5_v3,2023.2.2,Win32,84.74576271,,,,,,,,,,,,,,,,897.4229,898.9756,898.9757,902.5403,return,1.5199,,25.78125,,,,,,FBP-OG-17.png,0.35,1.2,31,0.75,,,,,,,,,,,,,0,29,29,30,1,,,,,,,,,,,,,,,,,,,,,,,,,,,,
,,,,,V3_074,19,female,2024-11-18_15h53.44.074,jersey_experiment_5_v3,2023.2.2,Win32,84.74576271,,,,,,,,,,,,,,,,902.5406,903.8345,903.8345,906.1051,return,1.4522,,25.65104167,,,,,,FBP-RB-17.png,0.35,1.2,46,0.5,,,,,,,,,,,,,0,30,30,45,1,,,,,,,,,,,,,,,,,,,,,,,,,,,,
,,,,,V3_074,19,female,2024-11-18_15h53.44.074,jersey_experiment_5_v3,2023.2.2,Win32,84.74576271,,,,,,,,,,,,,,,,906.1055,907.3993,907.3994,909.87,return,0.9649,,25.65104167,,,,,,FBP-YG-91.png,0.37,1.2,12,0.5,,,,,,,,,,,,,0,31,31,11,1,,,,,,,,,,,,,,,,,,,,,,,,,,,,
,,,,,V3_074,19,female,2024-11-18_15h53.44.074,jersey_experiment_5_v3,2023.2.2,Win32,84.74576271,,,,,,,,,,,,,,,,909.8703,911.423,911.423,914.8701,return,0.6869,,50.52083333,,,,,,FBP-OG-19.png,0.37,1.2,42,0.75,,,,,,,,,,,,,0,32,32,41,1,,,,,,,,,,,,,,,,,,,,,,,,,,,,
,,,,,V3_074,19,female,2024-11-18_15h53.44.074,jersey_experiment_5_v3,2023.2.2,Win32,84.74576271,,,,,,,,,,,,,,,,914.8703,916.1643,916.1644,919.5763,return,0.7475,,70.3125,,,,,,FBP-PT-18.png,0.4,1.2,23,0.5,,,,,,,,,,,,,0,33,33,22,1,,,,,,,,,,,,,,,,,,,,,,,,,,,,
,,,,,V3_074,19,female,2024-11-18_15h53.44.074,jersey_experiment_5_v3,2023.2.2,Win32,84.74576271,,,,,,,,,,,,,,,,919.5766,920.8705,920.8705,923.953,return,1.5924,,74.86979167,,,,,,FBP-RB-19.png,0.43,1.2,59,0.5,,,,,,,,,,,,,0,34,34,58,1,,,,,,,,,,,,,,,,,,,,,,,,,,,,
,,,,,V3_074,19,female,2024-11-18_15h53.44.074,jersey_experiment_5_v3,2023.2.2,Win32,84.74576271,,,,,,,,,,,,,,,,923.9532,925.247,925.2471,927.7059,return,1.2369,,74.86979167,,,,,,FBP-RB-17.png,0.43,1.2,49,0.5,,,,,,,,,,,,,0,35,35,48,1,,,,,,,,,,,,,,,,,,,,,,,,,,,,
,,,,,V3_074,19,female,2024-11-18_15h53.44.074,jersey_experiment_5_v3,2023.2.2,Win32,84.74576271,,,,,,,,,,,,,,,,927.7062,929.0003,929.0004,931.2474,return,0.8954,,62.23958333,,,,,,FBP-PT-17.png,0.4,1.2,18,0.5,,,,,,,,,,,,,0,36,36,17,1,,,,,,,,,,,,,,,,,,,,,,,,,,,,
,,,,,V3_074,19,female,2024-11-18_15h53.44.074,jersey_experiment_5_v3,2023.2.2,Win32,84.74576271,,,,,,,,,,,,,,,,931.2477,932.5414,932.5416,934.6474,return,0.7457,,56.77083333,,,,,,FBP-PT-19.png,0.37,1.2,27,0.5,,,,,,,,,,,,,0,37,37,26,1,,,,,,,,,,,,,,,,,,,,,,,,,,,,
,,,,,V3_074,19,female,2024-11-18_15h53.44.074,jersey_experiment_5_v3,2023.2.2,Win32,84.74576271,,,,,,,,,,,,,,,,934.6475,935.9415,935.9417,938.6239,return,0.9885,,61.328125,,,,,,FBP-YG-91.png,0.4,1.2,13,0.5,,,,,,,,,,,,,0,38,38,12,1,,,,,,,,,,,,,,,,,,,,,,,,,,,,
,,,,,V3_074,19,female,2024-11-18_15h53.44.074,jersey_experiment_5_v3,2023.2.2,Win32,84.74576271,,,,,,,,,,,,,,,,938.6242,939.9183,939.9184,943.6949,return,0.6718,,38.54166667,,,,,,FBP-PT-18.png,0.37,1.2,22,0.5,,,,,,,,,,,,,0,39,39,21,1,,,,,,,,,,,,,,,,,,,,,,,,,,,,
,,,,,V3_074,19,female,2024-11-18_15h53.44.074,jersey_experiment_5_v3,2023.2.2,Win32,84.74576271,,,,,,,,,,,,,,,,943.6953,944.989,944.9891,947.001,return,0.7215,,74.609375,,,,,,FBP-RB-17.png,0.45,1.2,50,0.5,,,,,,,,,,,,,0,40,40,49,1,,,,,,,,,,,,,,,,,,,,,,,,,,,,
,,,,,V3_074,19,female,2024-11-18_15h53.44.074,jersey_experiment_5_v3,2023.2.2,Win32,84.74576271,,,,,,,,,,,,,,,,947.0013,948.5538,948.5539,950.2363,return,0.9786,,74.609375,,,,,,FBP-OG-17.png,0.43,1.2,34,0.75,,,,,,,,,,,,,0,41,41,33,1,,,,,,,,,,,,,,,,,,,,,,,,,,,,
,,,,,V3_074,19,female,2024-11-18_15h53.44.074,jersey_experiment_5_v3,2023.2.2,Win32,84.74576271,,,,,,,,,,,,,,,,950.2366,951.5304,951.5304,953.9658,return,0.6124,,74.73958333,,,,,,FBP-RB-18.png,0.4,1.2,53,0.5,,,,,,,,,,,,,0,42,42,52,1,,,,,,,,,,,,,,,,,,,,,,,,,,,,
,,,,,V3_074,19,female,2024-11-18_15h53.44.074,jersey_experiment_5_v3,2023.2.2,Win32,84.74576271,,,,,,,,,,,,,,,,953.9663,955.2601,955.2601,957.3659,return,0.7733,,74.73958333,,,,,,FBP-YG-81.png,0.45,1.2,10,0.5,,,,,,,,,,,,,0,43,43,9,1,,,,,,,,,,,,,,,,,,,,,,,,,,,,
,,,,,V3_074,19,female,2024-11-18_15h53.44.074,jersey_experiment_5_v3,2023.2.2,Win32,84.74576271,,,,,,,,,,,,,,,,957.3661,958.9189,958.9189,960.778,return,0.746,,81.25,,,,,,FBP-OG-17.png,0.45,1.2,35,0.75,,,,,,,,,,,,,0,44,44,34,1,,,,,,,,,,,,,,,,,,,,,,,,,,,,
,,,,,V3_074,19,female,2024-11-18_15h53.44.074,jersey_experiment_5_v3,2023.2.2,Win32,84.74576271,,,,,,,,,,,,,,,,960.7783,962.3308,962.3309,964.5192,return,0.8767,,61.06770833,,,,,,FBP-OG-17.png,0.37,1.2,32,0.75,,,,,,,,,,,,,0,45,45,31,1,,,,,,,,,,,,,,,,,,,,,,,,,,,,
,,,,,V3_074,19,female,2024-11-18_15h53.44.074,jersey_experiment_5_v3,2023.2.2,Win32,84.74576271,,,,,,,,,,,,,,,,964.5195,965.8134,965.8134,967.8134,return,0.6562,,74.47916667,,,,,,FBP-PT-17.png,0.43,1.2,19,0.5,,,,,,,,,,,,,0,46,46,18,1,,,,,,,,,,,,,,,,,,,,,,,,,,,,
,,,,,V3_074,19,female,2024-11-18_15h53.44.074,jersey_experiment_5_v3,2023.2.2,Win32,84.74576271,,,,,,,,,,,,,,,,967.8137,969.1075,969.1076,971.0135,return,0.7369,,74.86979167,,,,,,FBP-RB-18.png,0.43,1.2,54,0.5,,,,,,,,,,,,,0,47,47,53,1,,,,,,,,,,,,,,,,,,,,,,,,,,,,
,,,,,V3_074,19,female,2024-11-18_15h53.44.074,jersey_experiment_5_v3,2023.2.2,Win32,84.74576271,,,,,,,,,,,,,,,,971.0137,972.3078,972.3078,975.1901,return,0.6907,,63.54166667,,,,,,FBP-YG-81.png,0.4,1.2,8,0.5,,,,,,,,,,,,,0,48,48,7,1,,,,,,,,,,,,,,,,,,,,,,,,,,,,
,,,,,V3_074,19,female,2024-11-18_15h53.44.074,jersey_experiment_5_v3,2023.2.2,Win32,84.74576271,,,,,,,,,,,,,,,,975.1905,976.4844,976.4844,978.2374,return,0.8369,,63.54166667,,,,,,FBP-RB-17.png,0.4,1.2,48,0.5,,,,,,,,,,,,,0,49,49,47,1,,,,,,,,,,,,,,,,,,,,,,,,,,,,
,,,,,V3_074,19,female,2024-11-18_15h53.44.074,jersey_experiment_5_v3,2023.2.2,Win32,84.74576271,,,,,,,,,,,,,,,,978.2376,979.5315,979.5315,981.5434,return,0.7002,,83.33333333,,,,,,FBP-RB-19.png,0.45,1.2,60,0.5,,,,,,,,,,,,,0,50,50,59,1,,,,,,,,,,,,,,,,,,,,,,,,,,,,
,,,,,V3_074,19,female,2024-11-18_15h53.44.074,jersey_experiment_5_v3,2023.2.2,Win32,84.74576271,,,,,,,,,,,,,,,,981.5438,983.0963,983.0963,985.1906,return,0.8891,,60.9375,,,,,,FBP-OG-17.png,0.4,1.2,33,0.75,,,,,,,,,,,,,0,51,51,32,1,,,,,,,,,,,,,,,,,,,,,,,,,,,,
,,,,,V3_074,19,female,2024-11-18_15h53.44.074,jersey_experiment_5_v3,2023.2.2,Win32,84.74576271,,,,,,,,,,,,,,,,985.1908,986.7435,986.7435,988.9553,return,0.7328,,42.578125,,,,,,FBP-OG-18.png,0.4,1.2,38,0.75,,,,,,,,,,,,,0,52,52,37,1,,,,,,,,,,,,,,,,,,,,,,,,,,,,
,,,,,V3_074,19,female,2024-11-18_15h53.44.074,jersey_experiment_5_v3,2023.2.2,Win32,84.74576271,,,,,,,,,,,,,,,,988.9556,990.2495,990.2497,992.5555,return,0.7559,,24.47916667,,,,,,FBP-PT-18.png,0.35,1.2,21,0.5,,,,,,,,,,,,,0,53,53,20,1,,,,,,,,,,,,,,,,,,,,,,,,,,,,
,,,,,V3_074,19,female,2024-11-18_15h53.44.074,jersey_experiment_5_v3,2023.2.2,Win32,84.74576271,,,,,,,,,,,,,,,,992.5558,994.1085,994.1086,996.8264,return,0.6981,,39.84375,,,,,,FBP-OG-19.png,0.4,1.2,43,0.75,,,,,,,,,,,,,0,54,54,42,1,,,,,,,,,,,,,,,,,,,,,,,,,,,,
,,,,,V3_074,19,female,2024-11-18_15h53.44.074,jersey_experiment_5_v3,2023.2.2,Win32,84.74576271,,,,,,,,,,,,,,,,996.8266,998.1204,998.1204,1000.4735,return,0.8255,,66.40625,,,,,,FBP-YG-71.png,0.43,1.2,4,0.5,,,,,,,,,,,,,0,55,55,3,1,,,,,,,,,,,,,,,,,,,,,,,,,,,,
,,,,,V3_074,19,female,2024-11-18_15h53.44.074,jersey_experiment_5_v3,2023.2.2,Win32,84.74576271,,,,,,,,,,,,,,,,1000.4738,1001.7676,1001.7677,1003.9206,return,0.9031,,35.67708333,,,,,,FBP-YG-71.png,0.37,1.2,2,0.5,,,,,,,,,,,,,0,56,56,1,1,,,,,,,,,,,,,,,,,,,,,,,,,,,,
,,,,,V3_074,19,female,2024-11-18_15h53.44.074,jersey_experiment_5_v3,2023.2.2,Win32,84.74576271,,,,,,,,,,,,,,,,1003.9208,1005.2149,1005.2149,1007.4502,return,0.7572,,25.26041667,,,,,,FBP-YG-91.png,0.35,1.2,11,0.5,,,,,,,,,,,,,0,57,57,10,1,,,,,,,,,,,,,,,,,,,,,,,,,,,,
,,,,,V3_074,19,female,2024-11-18_15h53.44.074,jersey_experiment_5_v3,2023.2.2,Win32,84.74576271,,,,,,,,,,,,,,,,1007.4506,1009.0032,1009.0032,1011.168,return,0.8105,,74.609375,,,,,,FBP-OG-18.png,0.45,1.2,40,0.75,,,,,,,,,,,,,0,58,58,39,1,,,,,,,,,,,,,,,,,,,,,,,,,,,,
,,,,,V3_074,19,female,2024-11-18_15h53.44.074,jersey_experiment_5_v3,2023.2.2,Win32,84.74576271,,,,,,,,,,,,,,,,1011.1683,1012.4622,1012.4623,1014.7329,return,0.7662,,24.21875,,,,,,FBP-RB-18.png,0.35,1.2,51,0.5,,,,,,,,,,,,,0,59,59,50,1,,,,,,,,,,,,,,,,,,,,,,,,,,,,
,,,,,V3_074,19,female,2024-11-18_15h53.44.074,jersey_experiment_5_v3,2023.2.2,Win32,84.74576271,,,,,,,,,,,,,,,,1014.7343,1016.0271,1016.0272,1018.0858,return,0.8792,,37.890625,,,,,,FBP-RB-91.png,0.4,1.2,58,0.5,,,,,,,,,,,,,,,,,,0,0,0,57,1,,,,,,,,,,,,,,,,,,,,,,,
,,,,,V3_074,19,female,2024-11-18_15h53.44.074,jersey_experiment_5_v3,2023.2.2,Win32,84.74576271,,,,,,,,,,,,,,,,1018.086,1019.3801,1019.3802,1021.3096,return,0.9522,,37.76041667,,,,,,FBP-PT-71.png,0.4,1.2,18,0.5,,,,,,,,,,,,,,,,,,0,1,1,17,1,,,,,,,,,,,,,,,,,,,,,,,
,,,,,V3_074,19,female,2024-11-18_15h53.44.074,jersey_experiment_5_v3,2023.2.2,Win32,84.74576271,,,,,,,,,,,,,,,,1021.3098,1022.8626,1022.8626,1025.7215,return,0.71,,45.05208333,,,,,,FBP-OG-81.png,0.4,1.2,38,0.75,,,,,,,,,,,,,,,,,,0,2,2,37,1,,,,,,,,,,,,,,,,,,,,,,,
,,,,,V3_074,19,female,2024-11-18_15h53.44.074,jersey_experiment_5_v3,2023.2.2,Win32,84.74576271,,,,,,,,,,,,,,,,1025.7218,1027.0156,1027.0156,1029.3452,return,0.8235,,67.578125,,,,,,FBP-PT-91.png,0.43,1.2,29,0.5,,,,,,,,,,,,,,,,,,0,3,3,28,1,,,,,,,,,,,,,,,,,,,,,,,
,,,,,V3_074,19,female,2024-11-18_15h53.44.074,jersey_experiment_5_v3,2023.2.2,Win32,84.74576271,,,,,,,,,,,,,,,,1029.3455,1030.6394,1030.6395,1032.4748,return,0.7777,,74.47916667,,,,,,FBP-PT-71.png,0.43,1.2,19,0.5,,,,,,,,,,,,,,,,,,0,4,4,18,1,,,,,,,,,,,,,,,,,,,,,,,
,,,,,V3_074,19,female,2024-11-18_15h53.44.074,jersey_experiment_5_v3,2023.2.2,Win32,84.74576271,,,,,,,,,,,,,,,,1032.475,1033.7688,1033.769,1036.9924,return,1.3316,,32.421875,,,,,,FBP-PT-91.png,0.37,1.2,27,0.5,,,,,,,,,,,,,,,,,,0,5,5,26,1,,,,,,,,,,,,,,,,,,,,,,,
,,,,,V3_074,19,female,2024-11-18_15h53.44.074,jersey_experiment_5_v3,2023.2.2,Win32,84.74576271,,,,,,,,,,,,,,,,1036.9928,1038.2866,1038.2867,1040.2515,return,0.7326,,24.34895833,,,,,,FBP-RB-91.png,0.37,1.2,57,0.5,,,,,,,,,,,,,,,,,,0,6,6,56,1,,,,,,,,,,,,,,,,,,,,,,,
,,,,,V3_074,19,female,2024-11-18_15h53.44.074,jersey_experiment_5_v3,2023.2.2,Win32,84.74576271,,,,,,,,,,,,,,,,1040.2517,1041.5456,1041.5457,1043.6634,return,0.7879,,74.47916667,,,,,,FBP-YG-19.png,0.45,1.2,15,0.5,,,,,,,,,,,,,,,,,,0,7,7,14,1,,,,,,,,,,,,,,,,,,,,,,,
,,,,,V3_074,19,female,2024-11-18_15h53.44.074,jersey_experiment_5_v3,2023.2.2,Win32,84.74576271,,,,,,,,,,,,,,,,1043.6636,1045.2164,1045.2165,1047.2166,return,0.7638,,86.84895833,,,,,,FBP-OG-91.png,0.45,1.2,45,0.75,,,,,,,,,,,,,,,,,,0,8,8,44,1,,,,,,,,,,,,,,,,,,,,,,,
,,,,,V3_074,19,female,2024-11-18_15h53.44.074,jersey_experiment_5_v3,2023.2.2,Win32,84.74576271,,,,,,,,,,,,,,,,1047.2171,1048.5105,1048.5106,1052.1107,return,1.3649,,35.28645833,,,,,,FBP-RB-71.png,0.37,1.2,47,0.5,,,,,,,,,,,,,,,,,,0,9,9,46,1,,,,,,,,,,,,,,,,,,,,,,,
,,,,,V3_074,19,female,2024-11-18_15h53.44.074,jersey_experiment_5_v3,2023.2.2,Win32,84.74576271,,,,,,,,,,,,,,,,1052.111,1053.4051,1053.4051,1055.7816,return,0.7959,,38.80208333,,,,,,FBP-YG-18.png,0.4,1.2,8,0.5,,,,,,,,,,,,,,,,,,0,10,10,7,1,,,,,,,,,,,,,,,,,,,,,,,
,,,,,V3_074,19,female,2024-11-18_15h53.44.074,jersey_experiment_5_v3,2023.2.2,Win32,84.74576271,,,,,,,,,,,,,,,,1055.782,1057.0757,1057.0757,1059.464,return,0.8759,,74.73958333,,,,,,FBP-PT-71.png,0.45,1.2,20,0.5,,,,,,,,,,,,,,,,,,0,11,11,19,1,,,,,,,,,,,,,,,,,,,,,,,
,,,,,V3_074,19,female,2024-11-18_15h53.44.074,jersey_experiment_5_v3,2023.2.2,Win32,84.74576271,,,,,,,,,,,,,,,,1059.4643,1061.017,1061.017,1063.2642,return,0.8092,,38.54166667,,,,,,FBP-OG-91.png,0.4,1.2,43,0.75,,,,,,,,,,,,,,,,,,0,12,12,42,1,,,,,,,,,,,,,,,,,,,,,,,
,,,,,V3_074,19,female,2024-11-18_15h53.44.074,jersey_experiment_5_v3,2023.2.2,Win32,84.74576271,,,,,,,,,,,,,,,,1063.2645,1064.5584,1064.5584,1067.0996,return,1.5794,,34.89583333,,,,,,FBP-PT-81.png,0.37,1.2,22,0.5,,,,,,,,,,,,,,,,,,0,13,13,21,1,,,,,,,,,,,,,,,,,,,,,,,
,,,,,V3_074,19,female,2024-11-18_15h53.44.074,jersey_experiment_5_v3,2023.2.2,Win32,84.74576271,,,,,,,,,,,,,,,,1067.0998,1068.6525,1068.6526,1071.382,return,1.8307,,17.31770833,,,,,,FBP-OG-81.png,0.35,1.2,36,0.75,,,,,,,,,,,,,,,,,,0,14,14,35,1,,,,,,,,,,,,,,,,,,,,,,,
,,,,,V3_074,19,female,2024-11-18_15h53.44.074,jersey_experiment_5_v3,2023.2.2,Win32,84.74576271,,,,,,,,,,,,,,,,1071.3823,1072.6762,1072.6762,1074.5351,return,0.7135,,25,,,,,,FBP-PT-91.png,0.4,1.2,28,0.5,,,,,,,,,,,,,,,,,,0,15,15,27,1,,,,,,,,,,,,,,,,,,,,,,,
,,,,,V3_074,19,female,2024-11-18_15h53.44.074,jersey_experiment_5_v3,2023.2.2,Win32,84.74576271,,,,,,,,,,,,,,,,1074.5356,1076.0881,1076.0881,1077.2411,return,0.6982,,25,,,,,,FBP-OG-91.png,0.37,1.2,42,0.75,,,,,,,,,,,,,,,,,,0,16,16,41,1,,,,,,,,,,,,,,,,,,,,,,,
,,,,,V3_074,19,female,2024-11-18_15h53.44.074,jersey_experiment_5_v3,2023.2.2,Win32,84.74576271,,,,,,,,,,,,,,,,1077.2413,1078.5351,1078.5352,1080.653,return,0.8593,,66.66666667,,,,,,FBP-PT-81.png,0.43,1.2,24,0.5,,,,,,,,,,,,,,,,,,0,17,17,23,1,,,,,,,,,,,,,,,,,,,,,,,
,,,,,V3_074,19,female,2024-11-18_15h53.44.074,jersey_experiment_5_v3,2023.2.2,Win32,84.74576271,,,,,,,,,,,,,,,,1080.6533,1082.2061,1082.2061,1083.6059,return,0.7733,,75.52083333,,,,,,FBP-OG-71.png,0.43,1.2,34,0.75,,,,,,,,,,,,,,,,,,0,18,18,33,1,,,,,,,,,,,,,,,,,,,,,,,
,,,,,V3_074,19,female,2024-11-18_15h53.44.074,jersey_experiment_5_v3,2023.2.2,Win32,84.74576271,,,,,,,,,,,,,,,,1083.6062,1084.9002,1084.9002,1086.7827,return,0.8134,,38.02083333,,,,,,FBP-YG-19.png,0.35,1.2,11,0.5,,,,,,,,,,,,,,,,,,0,19,19,10,1,,,,,,,,,,,,,,,,,,,,,,,
,,,,,V3_074,19,female,2024-11-18_15h53.44.074,jersey_experiment_5_v3,2023.2.2,Win32,84.74576271,,,,,,,,,,,,,,,,1086.7829,1088.0773,1088.0774,1089.9828,return,0.9537,,77.21354167,,,,,,FBP-RB-91.png,0.45,1.2,60,0.5,,,,,,,,,,,,,,,,,,0,20,20,59,1,,,,,,,,,,,,,,,,,,,,,,,
,,,,,V3_074,19,female,2024-11-18_15h53.44.074,jersey_experiment_5_v3,2023.2.2,Win32,84.74576271,,,,,,,,,,,,,,,,1089.9832,1091.277,1091.277,1094.3124,return,2.2771,,77.60416667,,,,,,FBP-RB-71.png,0.43,1.2,49,0.5,,,,,,,,,,,,,,,,,,0,21,21,48,1,,,,,,,,,,,,,,,,,,,,,,,
,,,,,V3_074,19,female,2024-11-18_15h53.44.074,jersey_experiment_5_v3,2023.2.2,Win32,84.74576271,,,,,,,,,,,,,,,,1094.3129,1095.8656,1095.8656,1097.9477,return,0.7558,,24.47916667,,,,,,FBP-OG-91.png,0.35,1.2,41,0.75,,,,,,,,,,,,,,,,,,0,22,22,40,1,,,,,,,,,,,,,,,,,,,,,,,
,,,,,V3_074,19,female,2024-11-18_15h53.44.074,jersey_experiment_5_v3,2023.2.2,Win32,84.74576271,,,,,,,,,,,,,,,,1097.9479,1099.2419,1099.2419,1101.2889,return,0.8998,,74.08854167,,,,,,FBP-YG-17.png,0.43,1.2,4,0.5,,,,,,,,,,,,,,,,,,0,23,23,3,1,,,,,,,,,,,,,,,,,,,,,,,
,,,,,V3_074,19,female,2024-11-18_15h53.44.074,jersey_experiment_5_v3,2023.2.2,Win32,84.74576271,,,,,,,,,,,,,,,,1101.2892,1102.5833,1102.5834,1104.7481,return,0.7791,,24.21875,,,,,,FBP-YG-19.png,0.37,1.2,12,0.5,,,,,,,,,,,,,,,,,,0,24,24,11,1,,,,,,,,,,,,,,,,,,,,,,,
,,,,,V3_074,19,female,2024-11-18_15h53.44.074,jersey_experiment_5_v3,2023.2.2,Win32,84.74576271,,,,,,,,,,,,,,,,1104.7483,1106.0421,1106.0422,1107.3835,return,0.7942,,24.21875,,,,,,FBP-YG-18.png,0.35,1.2,6,0.5,,,,,,,,,,,,,,,,,,0,25,25,5,1,,,,,,,,,,,,,,,,,,,,,,,
,,,,,V3_074,19,female,2024-11-18_15h53.44.074,jersey_experiment_5_v3,2023.2.2,Win32,84.74576271,,,,,,,,,,,,,,,,1107.3837,1108.6776,1108.6776,1110.8307,return,0.8466,,26.69270833,,,,,,FBP-RB-71.png,0.4,1.2,48,0.5,,,,,,,,,,,,,,,,,,0,26,26,47,1,,,,,,,,,,,,,,,,,,,,,,,
,,,,,V3_074,19,female,2024-11-18_15h53.44.074,jersey_experiment_5_v3,2023.2.2,Win32,84.74576271,,,,,,,,,,,,,,,,1110.8311,1112.1248,1112.1248,1113.9368,return,0.8155,,28.25520833,,,,,,FBP-YG-17.png,0.37,1.2,2,0.5,,,,,,,,,,,,,,,,,,0,27,27,1,1,,,,,,,,,,,,,,,,,,,,,,,
,,,,,V3_074,19,female,2024-11-18_15h53.44.074,jersey_experiment_5_v3,2023.2.2,Win32,84.74576271,,,,,,,,,,,,,,,,1113.9371,1115.4896,1115.4896,1117.1133,return,0.676,,28.25520833,,,,,,FBP-OG-71.png,0.35,1.2,31,0.75,,,,,,,,,,,,,,,,,,0,28,28,30,1,,,,,,,,,,,,,,,,,,,,,,,
,,,,,V3_074,19,female,2024-11-18_15h53.44.074,jersey_experiment_5_v3,2023.2.2,Win32,84.74576271,,,,,,,,,,,,,,,,1117.1135,1118.4074,1118.4074,1120.3604,return,0.7711,,24.47916667,,,,,,FBP-RB-71.png,0.35,1.2,46,0.5,,,,,,,,,,,,,,,,,,0,29,29,45,1,,,,,,,,,,,,,,,,,,,,,,,
,,,,,V3_074,19,female,2024-11-18_15h53.44.074,jersey_experiment_5_v3,2023.2.2,Win32,84.74576271,,,,,,,,,,,,,,,,1120.3607,1121.9134,1121.9134,1123.3841,return,0.6508,,74.609375,,,,,,FBP-OG-91.png,0.43,1.2,44,0.75,,,,,,,,,,,,,,,,,,0,30,30,43,1,,,,,,,,,,,,,,,,,,,,,,,
,,,,,V3_074,19,female,2024-11-18_15h53.44.074,jersey_experiment_5_v3,2023.2.2,Win32,84.74576271,,,,,,,,,,,,,,,,1123.3843,1124.6782,1124.6782,1126.6547,return,0.8317,,24.609375,,,,,,FBP-YG-17.png,0.35,1.2,1,0.5,,,,,,,,,,,,,,,,,,0,31,31,0,1,,,,,,,,,,,,,,,,,,,,,,,
,,,,,V3_074,19,female,2024-11-18_15h53.44.074,jersey_experiment_5_v3,2023.2.2,Win32,84.74576271,,,,,,,,,,,,,,,,1126.655,1127.9489,1127.949,1129.3255,return,0.8217,,24.609375,,,,,,FBP-PT-71.png,0.37,1.2,17,0.5,,,,,,,,,,,,,,,,,,0,32,32,16,1,,,,,,,,,,,,,,,,,,,,,,,
,,,,,V3_074,19,female,2024-11-18_15h53.44.074,jersey_experiment_5_v3,2023.2.2,Win32,84.74576271,,,,,,,,,,,,,,,,1129.3258,1130.8783,1130.8784,1132.7844,return,0.8493,,70.703125,,,,,,FBP-OG-81.png,0.45,1.2,40,0.75,,,,,,,,,,,,,,,,,,0,33,33,39,1,,,,,,,,,,,,,,,,,,,,,,,
,,,,,V3_074,19,female,2024-11-18_15h53.44.074,jersey_experiment_5_v3,2023.2.2,Win32,84.74576271,,,,,,,,,,,,,,,,1132.7846,1134.0786,1134.0786,1136.008,return,0.876,,24.47916667,,,,,,FBP-RB-81.png,0.35,1.2,51,0.5,,,,,,,,,,,,,,,,,,0,34,34,50,1,,,,,,,,,,,,,,,,,,,,,,,
,,,,,V3_074,19,female,2024-11-18_15h53.44.074,jersey_experiment_5_v3,2023.2.2,Win32,84.74576271,,,,,,,,,,,,,,,,1136.0083,1137.3022,1137.3022,1139.1493,return,0.7308,,23.17708333,,,,,,FBP-PT-91.png,0.35,1.2,26,0.5,,,,,,,,,,,,,,,,,,0,35,35,25,1,,,,,,,,,,,,,,,,,,,,,,,
,,,,,V3_074,19,female,2024-11-18_15h53.44.074,jersey_experiment_5_v3,2023.2.2,Win32,84.74576271,,,,,,,,,,,,,,,,1139.1496,1140.7024,1140.7025,1142.032,return,0.7419,,25,,,,,,FBP-OG-81.png,0.37,1.2,37,0.75,,,,,,,,,,,,,,,,,,0,36,36,36,1,,,,,,,,,,,,,,,,,,,,,,,
,,,,,V3_074,19,female,2024-11-18_15h53.44.074,jersey_experiment_5_v3,2023.2.2,Win32,84.74576271,,,,,,,,,,,,,,,,1142.0323,1143.326,1143.3261,1144.8554,return,0.6307,,17.1875,,,,,,FBP-PT-71.png,0.35,1.2,16,0.5,,,,,,,,,,,,,,,,,,0,37,37,15,1,,,,,,,,,,,,,,,,,,,,,,,
,,,,,V3_074,19,female,2024-11-18_15h53.44.074,jersey_experiment_5_v3,2023.2.2,Win32,84.74576271,,,,,,,,,,,,,,,,1144.8556,1146.1496,1146.1496,1148.4908,return,1.3326,,64.453125,,,,,,FBP-YG-17.png,0.45,1.2,5,0.5,,,,,,,,,,,,,,,,,,0,38,38,4,1,,,,,,,,,,,,,,,,,,,,,,,
,,,,,V3_074,19,female,2024-11-18_15h53.44.074,jersey_experiment_5_v3,2023.2.2,Win32,84.74576271,,,,,,,,,,,,,,,,1148.4911,1149.785,1149.785,1151.4673,return,0.7315,,62.23958333,,,,,,FBP-YG-17.png,0.4,1.2,3,0.5,,,,,,,,,,,,,,,,,,0,39,39,2,1,,,,,,,,,,,,,,,,,,,,,,,
,,,,,V3_074,19,female,2024-11-18_15h53.44.074,jersey_experiment_5_v3,2023.2.2,Win32,84.74576271,,,,,,,,,,,,,,,,1151.4677,1152.7615,1152.7615,1154.3146,return,0.6982,,75.52083333,,,,,,FBP-RB-91.png,0.43,1.2,59,0.5,,,,,,,,,,,,,,,,,,0,40,40,58,1,,,,,,,,,,,,,,,,,,,,,,,
,,,,,V3_074,19,female,2024-11-18_15h53.44.074,jersey_experiment_5_v3,2023.2.2,Win32,84.74576271,,,,,,,,,,,,,,,,1154.3149,1155.6087,1155.6088,1157.4323,return,0.7691,,25.91145833,,,,,,FBP-PT-81.png,0.35,1.2,21,0.5,,,,,,,,,,,,,,,,,,0,41,41,20,1,,,,,,,,,,,,,,,,,,,,,,,
,,,,,V3_074,19,female,2024-11-18_15h53.44.074,jersey_experiment_5_v3,2023.2.2,Win32,84.74576271,,,,,,,,,,,,,,,,1157.4325,1158.7266,1158.7267,1160.4442,return,0.7082,,74.86979167,,,,,,FBP-PT-81.png,0.45,1.2,25,0.5,,,,,,,,,,,,,,,,,,0,42,42,24,1,,,,,,,,,,,,,,,,,,,,,,,
,,,,,V3_074,19,female,2024-11-18_15h53.44.074,jersey_experiment_5_v3,2023.2.2,Win32,84.74576271,,,,,,,,,,,,,,,,1160.4445,1161.7385,1161.7386,1163.2091,return,0.8746,,74.86979167,,,,,,FBP-RB-71.png,0.45,1.2,50,0.5,,,,,,,,,,,,,,,,,,0,43,43,49,1,,,,,,,,,,,,,,,,,,,,,,,
,,,,,V3_074,19,female,2024-11-18_15h53.44.074,jersey_experiment_5_v3,2023.2.2,Win32,84.74576271,,,,,,,,,,,,,,,,1163.2094,1164.5031,1164.5032,1165.9975,return,0.882,,74.86979167,,,,,,FBP-YG-18.png,0.45,1.2,10,0.5,,,,,,,,,,,,,,,,,,0,44,44,9,1,,,,,,,,,,,,,,,,,,,,,,,
,,,,,V3_074,19,female,2024-11-18_15h53.44.074,jersey_experiment_5_v3,2023.2.2,Win32,84.74576271,,,,,,,,,,,,,,,,1165.9979,1167.5504,1167.5504,1168.9389,return,0.7213,,74.609375,,,,,,FBP-OG-81.png,0.43,1.2,39,0.75,,,,,,,,,,,,,,,,,,0,45,45,38,1,,,,,,,,,,,,,,,,,,,,,,,
,,,,,V3_074,19,female,2024-11-18_15h53.44.074,jersey_experiment_5_v3,2023.2.2,Win32,84.74576271,,,,,,,,,,,,,,,,1168.9394,1170.2328,1170.2329,1171.574,return,0.6908,,74.609375,,,,,,FBP-YG-19.png,0.43,1.2,14,0.5,,,,,,,,,,,,,,,,,,0,46,46,13,1,,,,,,,,,,,,,,,,,,,,,,,
,,,,,V3_074,19,female,2024-11-18_15h53.44.074,jersey_experiment_5_v3,2023.2.2,Win32,84.74576271,,,,,,,,,,,,,,,,1171.5743,1172.8682,1172.8683,1175.1036,return,0.8941,,30.33854167,,,,,,FBP-RB-91.png,0.35,1.2,56,0.5,,,,,,,,,,,,,,,,,,0,47,47,55,1,,,,,,,,,,,,,,,,,,,,,,,
,,,,,V3_074,19,female,2024-11-18_15h53.44.074,jersey_experiment_5_v3,2023.2.2,Win32,84.74576271,,,,,,,,,,,,,,,,1175.1039,1176.3978,1176.3979,1177.8684,return,0.6594,,36.45833333,,,,,,FBP-YG-19.png,0.4,1.2,13,0.5,,,,,,,,,,,,,,,,,,0,48,48,12,1,,,,,,,,,,,,,,,,,,,,,,,
,,,,,V3_074,19,female,2024-11-18_15h53.44.074,jersey_experiment_5_v3,2023.2.2,Win32,84.74576271,,,,,,,,,,,,,,,,1177.8686,1179.1626,1179.1626,1182.6333,return,0.5935,,47.78645833,,,,,,FBP-RB-81.png,0.4,1.2,53,0.5,,,,,,,,,,,,,,,,,,0,49,49,52,1,,,,,,,,,,,,,,,,,,,,,,,
,,,,,V3_074,19,female,2024-11-18_15h53.44.074,jersey_experiment_5_v3,2023.2.2,Win32,84.74576271,,,,,,,,,,,,,,,,1182.6335,1183.9275,1183.9276,1186.4217,return,0.6444,,81.90104167,,,,,,FBP-RB-81.png,0.45,1.2,55,0.5,,,,,,,,,,,,,,,,,,0,50,50,54,1,,,,,,,,,,,,,,,,,,,,,,,
,,,,,V3_074,19,female,2024-11-18_15h53.44.074,jersey_experiment_5_v3,2023.2.2,Win32,84.74576271,,,,,,,,,,,,,,,,1186.422,1187.7159,1187.716,1189.3749,return,0.7047,,74.47916667,,,,,,FBP-RB-81.png,0.43,1.2,54,0.5,,,,,,,,,,,,,,,,,,0,51,51,53,1,,,,,,,,,,,,,,,,,,,,,,,
,,,,,V3_074,19,female,2024-11-18_15h53.44.074,jersey_experiment_5_v3,2023.2.2,Win32,84.74576271,,,,,,,,,,,,,,,,1189.3751,1190.9278,1190.9278,1191.9984,return,0.5885,,74.47916667,,,,,,FBP-OG-71.png,0.37,1.2,32,0.75,,,,,,,,,,,,,,,,,,0,52,52,31,1,,,,,,,,,,,,,,,,,,,,,,,
,,,,,V3_074,19,female,2024-11-18_15h53.44.074,jersey_experiment_5_v3,2023.2.2,Win32,84.74576271,,,,,,,,,,,,,,,,1191.9987,1193.2925,1193.2926,1195.4455,return,1.5583,,82.421875,,,,,,FBP-PT-91.png,0.45,1.2,30,0.5,,,,,,,,,,,,,,,,,,0,53,53,29,1,,,,,,,,,,,,,,,,,,,,,,,
,,,,,V3_074,19,female,2024-11-18_15h53.44.074,jersey_experiment_5_v3,2023.2.2,Win32,84.74576271,,,,,,,,,,,,,,,,1195.4457,1196.9985,1196.9986,1198.3752,return,0.6666,,65.36458333,,,,,,FBP-OG-71.png,0.4,1.2,33,0.75,,,,,,,,,,,,,,,,,,0,54,54,32,1,,,,,,,,,,,,,,,,,,,,,,,
,,,,,V3_074,19,female,2024-11-18_15h53.44.074,jersey_experiment_5_v3,2023.2.2,Win32,84.74576271,,,,,,,,,,,,,,,,1198.3754,1199.6692,1199.6694,1201.3752,return,0.7429,,24.86979167,,,,,,FBP-RB-81.png,0.37,1.2,52,0.5,,,,,,,,,,,,,,,,,,0,55,55,51,1,,,,,,,,,,,,,,,,,,,,,,,
,,,,,V3_074,19,female,2024-11-18_15h53.44.074,jersey_experiment_5_v3,2023.2.2,Win32,84.74576271,,,,,,,,,,,,,,,,1201.3755,1202.6694,1202.6694,1204.3518,return,0.6827,,61.58854167,,,,,,FBP-YG-18.png,0.43,1.2,9,0.5,,,,,,,,,,,,,,,,,,0,56,56,8,1,,,,,,,,,,,,,,,,,,,,,,,
,,,,,V3_074,19,female,2024-11-18_15h53.44.074,jersey_experiment_5_v3,2023.2.2,Win32,84.74576271,,,,,,,,,,,,,,,,1204.3521,1205.646,1205.6461,1207.4699,return,0.6592,,26.04166667,,,,,,FBP-YG-18.png,0.37,1.2,7,0.5,,,,,,,,,,,,,,,,,,0,57,57,6,1,,,,,,,,,,,,,,,,,,,,,,,
,,,,,V3_074,19,female,2024-11-18_15h53.44.074,jersey_experiment_5_v3,2023.2.2,Win32,84.74576271,,,,,,,,,,,,,,,,1207.4701,1209.0228,1209.0228,1212.0228,return,1.7024,,82.68229167,,,,,,FBP-OG-71.png,0.45,1.2,35,0.75,,,,,,,,,,,,,,,,,,0,58,58,34,1,,,,,,,,,,,,,,,,,,,,,,,
,,,,,V3_074,19,female,2024-11-18_15h53.44.074,jersey_experiment_5_v3,2023.2.2,Win32,84.74576271,,,,,,,,,,,,,,,,1212.0231,1213.3168,1213.3169,1215.517,return,0.9326,,76.82291667,,,,,,FBP-PT-81.png,0.4,1.2,23,0.5,,,,,,,,,,,,,,,,,,0,59,59,22,1,,,,,,,,,,,,,,,,,,,,,,,
,,,,,V3_074,19,female,2024-11-18_15h53.44.074,jersey_experiment_5_v3,2023.2.2,Win32,84.74576271,,,,,,,,,,,,,,,,,,,,,,,,,,,,,,,,,,,,,,,,,,,,,,,,,,,,,,,,1215.5173,1220.4466,return,4.9161,,,,,,,,,,,,,,,,,,,
,,,,,V3_074,19,female,2024-11-18_15h53.44.074,jersey_experiment_5_v3,2023.2.2,Win32,84.74576271,,,,,,,,,,,,,,,,,,,,,,,,,,,,,,,,,,,,,,,,,,,,,,,,,,,,,,,,,,,,,1220.4468,1224.3293,1,2.4976,return,1.3695,,,,,,,,,,,,
,,,,,V3_074,19,female,2024-11-18_15h53.44.074,jersey_experiment_5_v3,2023.2.2,Win32,84.74576271,,,,,,,,,,,,,,,,,,,,,,,,,,,,,,,,,,,,,,,,,,,,,,,,,,,,,,,,,,,,,,,,,,,,1224.3295,1247.7896,Colors affecting shape perception? ,right,14.0343,,,,,,
,,,,,V3_074,19,female,2024-11-18_15h53.44.074,jersey_experiment_5_v3,2023.2.2,Win32,84.74576271,,,,,,,,,,,,,,,,,,,,,,,,,,,,,,,,,,,,,,,,,,,,,,,,,,,,,,,,,,,,,,,,,,,,,,,,,,1247.7898,1252.0126,return,4.2099,