requirements.started,requirements.stopped,key_resp_3.keys,key_resp_3.rt,key_resp_3.duration,Subject ID,Age,Gender,date,expName,psychopyVersion,OS,frameRate,instructions1.started,instructions1.stopped,key_resp.keys,key_resp.rt,key_resp.duration,example.started,example.stopped,enter_2.keys,enter_2.rt,enter_2.duration,instructions2.started,instructions2.stopped,enter_3.keys,enter_3.rt,enter_3.duration,image.started,image.stopped,slider_2.started,slider_2.stopped,next.keys,next.rt,next.duration,slider.response,trial_block_1.thisRepN,trial_block_1.thisTrialN,trial_block_1.thisN,trial_block_1.thisIndex,trial_block_1.ran,Path,Width,Height,Index,Duration,trial_block_2.thisRepN,trial_block_2.thisTrialN,trial_block_2.thisN,trial_block_2.thisIndex,trial_block_2.ran,rest_break.started,rest_break.stopped,end_break.started,end_break.stopped,key_resp_5.keys,key_resp_5.rt,key_resp_5.duration,trial_block_3.thisRepN,trial_block_3.thisTrialN,trial_block_3.thisN,trial_block_3.thisIndex,trial_block_3.ran,trial_block_4.thisRepN,trial_block_4.thisTrialN,trial_block_4.thisN,trial_block_4.thisIndex,trial_block_4.ran,questions_intro.started,questions_intro.stopped,enter_12.keys,enter_12.rt,enter_12.duration,question2.started,question2.stopped,question_doingbest.response,question_doingbest.rt,enter_15.keys,enter_15.rt,enter_15.duration,pattern.started,pattern.stopped,pattern_2.text,enter_17.keys,enter_17.rt,enter_17.duration,thankyou.started,thankyou.stopped,enter_14.keys,enter_14.rt,enter_14.duration
0,10.2434,return,10.2284,,V3_017,18,female,2024-10-17_13h27.54.799,jersey_experiment_5_v3,2023.2.2,Win32,84.74576271,,,,,,,,,,,,,,,,,,,,,,,,,,,,,,,,,,,,,,,,,,,,,,,,,,,,,,,,,,,,,,,,,,,,,,,,,,,,,,
,,,,,V3_017,18,female,2024-10-17_13h27.54.799,jersey_experiment_5_v3,2023.2.2,Win32,84.74576271,10.2435,20.1262,return,9.8621,,,,,,,,,,,,,,,,,,,,,,,,,,,,,,,,,,,,,,,,,,,,,,,,,,,,,,,,,,,,,,,,,,,,,,,,,,
,,,,,V3_017,18,female,2024-10-17_13h27.54.799,jersey_experiment_5_v3,2023.2.2,Win32,84.74576271,,,,,,20.1263,25.9619,return,5.8035,,,,,,,,,,,,,,,,,,,,,,,,,,,,,,,,,,,,,,,,,,,,,,,,,,,,,,,,,,,,,,,,,,,,,
,,,,,V3_017,18,female,2024-10-17_13h27.54.799,jersey_experiment_5_v3,2023.2.2,Win32,84.74576271,,,,,,,,,,,25.962,44.6569,return,18.6809,,,,,,,,,,,,,,,,,,,,,,,,,,,,,,,,,,,,,,,,,,,,,,,,,,,,,,,,,,,,,,,,
,,,,,V3_017,18,female,2024-10-17_13h27.54.799,jersey_experiment_5_v3,2023.2.2,Win32,84.74576271,,,,,,,,,,,,,,,,44.6605,46.2095,46.2096,60.0571,return,3.5616,,74.86979167,0,0,0,14,1,FBP-YG-91.png,0.45,1.2,15,0.75,,,,,,,,,,,,,,,,,,,,,,,,,,,,,,,,,,,,,,,,,,,,,
,,,,,V3_017,18,female,2024-10-17_13h27.54.799,jersey_experiment_5_v3,2023.2.2,Win32,84.74576271,,,,,,,,,,,,,,,,60.0575,61.6101,61.6103,65.2808,return,1.1304,,25.390625,0,1,1,45,1,FBP-RB-17.png,0.35,1.2,46,0.75,,,,,,,,,,,,,,,,,,,,,,,,,,,,,,,,,,,,,,,,,,,,,
,,,,,V3_017,18,female,2024-10-17_13h27.54.799,jersey_experiment_5_v3,2023.2.2,Win32,84.74576271,,,,,,,,,,,,,,,,65.2812,66.5749,66.575,70.905,return,1.3114,,99.47916667,0,2,2,39,1,FBP-OG-18.png,0.45,1.2,40,0.5,,,,,,,,,,,,,,,,,,,,,,,,,,,,,,,,,,,,,,,,,,,,,
,,,,,V3_017,18,female,2024-10-17_13h27.54.799,jersey_experiment_5_v3,2023.2.2,Win32,84.74576271,,,,,,,,,,,,,,,,70.9056,72.4575,72.4576,76.0459,return,0.873,,99.86979167,0,3,3,28,1,FBP-PT-19.png,0.43,1.2,29,0.75,,,,,,,,,,,,,,,,,,,,,,,,,,,,,,,,,,,,,,,,,,,,,
,,,,,V3_017,18,female,2024-10-17_13h27.54.799,jersey_experiment_5_v3,2023.2.2,Win32,84.74576271,,,,,,,,,,,,,,,,76.0463,77.5989,77.599,80.9049,return,1.1954,,49.609375,0,4,4,5,1,FBP-YG-81.png,0.35,1.2,6,0.75,,,,,,,,,,,,,,,,,,,,,,,,,,,,,,,,,,,,,,,,,,,,,
,,,,,V3_017,18,female,2024-10-17_13h27.54.799,jersey_experiment_5_v3,2023.2.2,Win32,84.74576271,,,,,,,,,,,,,,,,80.9052,82.4578,82.458,85.8229,return,1.0959,,74.609375,0,5,5,11,1,FBP-YG-91.png,0.37,1.2,12,0.75,,,,,,,,,,,,,,,,,,,,,,,,,,,,,,,,,,,,,,,,,,,,,
,,,,,V3_017,18,female,2024-10-17_13h27.54.799,jersey_experiment_5_v3,2023.2.2,Win32,84.74576271,,,,,,,,,,,,,,,,85.8232,87.3757,87.3757,89.3052,return,0.6204,,74.86979167,0,6,6,51,1,FBP-RB-18.png,0.37,1.2,52,0.75,,,,,,,,,,,,,,,,,,,,,,,,,,,,,,,,,,,,,,,,,,,,,
,,,,,V3_017,18,female,2024-10-17_13h27.54.799,jersey_experiment_5_v3,2023.2.2,Win32,84.74576271,,,,,,,,,,,,,,,,89.3055,90.858,90.8581,92.8111,return,0.5948,,98.828125,0,7,7,18,1,FBP-PT-17.png,0.43,1.2,19,0.75,,,,,,,,,,,,,,,,,,,,,,,,,,,,,,,,,,,,,,,,,,,,,
,,,,,V3_017,18,female,2024-10-17_13h27.54.799,jersey_experiment_5_v3,2023.2.2,Win32,84.74576271,,,,,,,,,,,,,,,,92.8114,94.3642,94.3642,97.0348,return,0.7714,,25.52083333,0,8,8,25,1,FBP-PT-19.png,0.35,1.2,26,0.75,,,,,,,,,,,,,,,,,,,,,,,,,,,,,,,,,,,,,,,,,,,,,
,,,,,V3_017,18,female,2024-10-17_13h27.54.799,jersey_experiment_5_v3,2023.2.2,Win32,84.74576271,,,,,,,,,,,,,,,,97.0352,98.5878,98.588,101.6822,return,0.811,,99.21875,0,9,9,59,1,FBP-RB-19.png,0.45,1.2,60,0.75,,,,,,,,,,,,,,,,,,,,,,,,,,,,,,,,,,,,,,,,,,,,,
,,,,,V3_017,18,female,2024-10-17_13h27.54.799,jersey_experiment_5_v3,2023.2.2,Win32,84.74576271,,,,,,,,,,,,,,,,101.6827,103.2352,103.2352,106.9881,return,0.7701,,50.390625,0,10,10,26,1,FBP-PT-19.png,0.37,1.2,27,0.75,,,,,,,,,,,,,,,,,,,,,,,,,,,,,,,,,,,,,,,,,,,,,
,,,,,V3_017,18,female,2024-10-17_13h27.54.799,jersey_experiment_5_v3,2023.2.2,Win32,84.74576271,,,,,,,,,,,,,,,,106.9884,108.5411,108.5411,110.2234,return,0.6137,,50.65104167,0,11,11,15,1,FBP-PT-17.png,0.35,1.2,16,0.75,,,,,,,,,,,,,,,,,,,,,,,,,,,,,,,,,,,,,,,,,,,,,
,,,,,V3_017,18,female,2024-10-17_13h27.54.799,jersey_experiment_5_v3,2023.2.2,Win32,84.74576271,,,,,,,,,,,,,,,,110.2237,111.7767,111.7767,115.4355,return,0.8281,,99.47916667,0,12,12,58,1,FBP-RB-19.png,0.43,1.2,59,0.75,,,,,,,,,,,,,,,,,,,,,,,,,,,,,,,,,,,,,,,,,,,,,
,,,,,V3_017,18,female,2024-10-17_13h27.54.799,jersey_experiment_5_v3,2023.2.2,Win32,84.74576271,,,,,,,,,,,,,,,,115.4358,116.9885,116.9886,119.4828,return,0.5936,,75.390625,0,13,13,47,1,FBP-RB-17.png,0.4,1.2,48,0.75,,,,,,,,,,,,,,,,,,,,,,,,,,,,,,,,,,,,,,,,,,,,,
,,,,,V3_017,18,female,2024-10-17_13h27.54.799,jersey_experiment_5_v3,2023.2.2,Win32,84.74576271,,,,,,,,,,,,,,,,119.4832,121.0357,121.0358,124.1299,return,0.8079,,99.609375,0,14,14,29,1,FBP-PT-19.png,0.45,1.2,30,0.75,,,,,,,,,,,,,,,,,,,,,,,,,,,,,,,,,,,,,,,,,,,,,
,,,,,V3_017,18,female,2024-10-17_13h27.54.799,jersey_experiment_5_v3,2023.2.2,Win32,84.74576271,,,,,,,,,,,,,,,,124.1303,125.6829,125.683,127.3889,return,0.5441,,99.47916667,0,15,15,22,1,FBP-PT-18.png,0.4,1.2,23,0.75,,,,,,,,,,,,,,,,,,,,,,,,,,,,,,,,,,,,,,,,,,,,,
,,,,,V3_017,18,female,2024-10-17_13h27.54.799,jersey_experiment_5_v3,2023.2.2,Win32,84.74576271,,,,,,,,,,,,,,,,127.3891,128.9419,128.9419,130.542,return,0.6039,,99.47916667,0,16,16,23,1,FBP-PT-18.png,0.43,1.2,24,0.75,,,,,,,,,,,,,,,,,,,,,,,,,,,,,,,,,,,,,,,,,,,,,
,,,,,V3_017,18,female,2024-10-17_13h27.54.799,jersey_experiment_5_v3,2023.2.2,Win32,84.74576271,,,,,,,,,,,,,,,,130.5423,131.8362,131.8362,134.6598,return,0.5655,,75.390625,0,17,17,42,1,FBP-OG-19.png,0.4,1.2,43,0.5,,,,,,,,,,,,,,,,,,,,,,,,,,,,,,,,,,,,,,,,,,,,,
,,,,,V3_017,18,female,2024-10-17_13h27.54.799,jersey_experiment_5_v3,2023.2.2,Win32,84.74576271,,,,,,,,,,,,,,,,134.6601,136.2127,136.2128,142.26,return,4.8474,,99.08854167,0,18,18,4,1,FBP-YG-71.png,0.45,1.2,5,0.75,,,,,,,,,,,,,,,,,,,,,,,,,,,,,,,,,,,,,,,,,,,,,
,,,,,V3_017,18,female,2024-10-17_13h27.54.799,jersey_experiment_5_v3,2023.2.2,Win32,84.74576271,,,,,,,,,,,,,,,,142.2604,143.813,143.8131,147.166,return,0.8611,,14.453125,0,19,19,56,1,FBP-RB-19.png,0.37,1.2,57,0.75,,,,,,,,,,,,,,,,,,,,,,,,,,,,,,,,,,,,,,,,,,,,,
,,,,,V3_017,18,female,2024-10-17_13h27.54.799,jersey_experiment_5_v3,2023.2.2,Win32,84.74576271,,,,,,,,,,,,,,,,147.1665,148.719,148.7191,152.484,return,2.0342,,67.31770833,0,20,20,17,1,FBP-PT-17.png,0.4,1.2,18,0.75,,,,,,,,,,,,,,,,,,,,,,,,,,,,,,,,,,,,,,,,,,,,,
,,,,,V3_017,18,female,2024-10-17_13h27.54.799,jersey_experiment_5_v3,2023.2.2,Win32,84.74576271,,,,,,,,,,,,,,,,152.4843,153.7781,153.7781,156.8017,return,0.6131,,35.28645833,0,21,21,35,1,FBP-OG-18.png,0.35,1.2,36,0.5,,,,,,,,,,,,,,,,,,,,,,,,,,,,,,,,,,,,,,,,,,,,,
,,,,,V3_017,18,female,2024-10-17_13h27.54.799,jersey_experiment_5_v3,2023.2.2,Win32,84.74576271,,,,,,,,,,,,,,,,156.802,158.3547,158.3548,160.096,return,0.5914,,35.28645833,0,22,22,16,1,FBP-PT-17.png,0.37,1.2,17,0.75,,,,,,,,,,,,,,,,,,,,,,,,,,,,,,,,,,,,,,,,,,,,,
,,,,,V3_017,18,female,2024-10-17_13h27.54.799,jersey_experiment_5_v3,2023.2.2,Win32,84.74576271,,,,,,,,,,,,,,,,160.0963,161.6491,161.6492,163.5548,return,0.5435,,99.47916667,0,23,23,19,1,FBP-PT-17.png,0.45,1.2,20,0.75,,,,,,,,,,,,,,,,,,,,,,,,,,,,,,,,,,,,,,,,,,,,,
,,,,,V3_017,18,female,2024-10-17_13h27.54.799,jersey_experiment_5_v3,2023.2.2,Win32,84.74576271,,,,,,,,,,,,,,,,163.5552,165.1079,165.108,168.0258,return,0.7132,,47.00520833,0,24,24,0,1,FBP-YG-71.png,0.35,1.2,1,0.75,,,,,,,,,,,,,,,,,,,,,,,,,,,,,,,,,,,,,,,,,,,,,
,,,,,V3_017,18,female,2024-10-17_13h27.54.799,jersey_experiment_5_v3,2023.2.2,Win32,84.74576271,,,,,,,,,,,,,,,,168.026,169.5787,169.5787,171.6022,return,0.6601,,95.05208333,0,25,25,48,1,FBP-RB-17.png,0.43,1.2,49,0.75,,,,,,,,,,,,,,,,,,,,,,,,,,,,,,,,,,,,,,,,,,,,,
,,,,,V3_017,18,female,2024-10-17_13h27.54.799,jersey_experiment_5_v3,2023.2.2,Win32,84.74576271,,,,,,,,,,,,,,,,171.6026,173.1553,173.1554,174.7318,return,0.5688,,99.73958333,0,26,26,3,1,FBP-YG-71.png,0.43,1.2,4,0.75,,,,,,,,,,,,,,,,,,,,,,,,,,,,,,,,,,,,,,,,,,,,,
,,,,,V3_017,18,female,2024-10-17_13h27.54.799,jersey_experiment_5_v3,2023.2.2,Win32,84.74576271,,,,,,,,,,,,,,,,174.7322,176.2848,176.2849,179.8378,return,1.1321,,70.83333333,0,27,27,55,1,FBP-RB-19.png,0.35,1.2,56,0.75,,,,,,,,,,,,,,,,,,,,,,,,,,,,,,,,,,,,,,,,,,,,,
,,,,,V3_017,18,female,2024-10-17_13h27.54.799,jersey_experiment_5_v3,2023.2.2,Win32,84.74576271,,,,,,,,,,,,,,,,179.8381,181.3908,181.391,183.8969,return,1.1463,,95.96354167,0,28,28,9,1,FBP-YG-81.png,0.45,1.2,10,0.75,,,,,,,,,,,,,,,,,,,,,,,,,,,,,,,,,,,,,,,,,,,,,
,,,,,V3_017,18,female,2024-10-17_13h27.54.799,jersey_experiment_5_v3,2023.2.2,Win32,84.74576271,,,,,,,,,,,,,,,,183.8974,185.4498,185.4499,192.6032,return,3.0656,,80.72916667,0,29,29,52,1,FBP-RB-18.png,0.4,1.2,53,0.75,,,,,,,,,,,,,,,,,,,,,,,,,,,,,,,,,,,,,,,,,,,,,
,,,,,V3_017,18,female,2024-10-17_13h27.54.799,jersey_experiment_5_v3,2023.2.2,Win32,84.74576271,,,,,,,,,,,,,,,,192.6035,194.156,194.1561,197.5327,return,1.7215,,99.86979167,0,30,30,49,1,FBP-RB-17.png,0.45,1.2,50,0.75,,,,,,,,,,,,,,,,,,,,,,,,,,,,,,,,,,,,,,,,,,,,,
,,,,,V3_017,18,female,2024-10-17_13h27.54.799,jersey_experiment_5_v3,2023.2.2,Win32,84.74576271,,,,,,,,,,,,,,,,197.533,199.0855,199.0856,200.6505,return,0.6292,,99.86979167,0,31,31,8,1,FBP-YG-81.png,0.43,1.2,9,0.75,,,,,,,,,,,,,,,,,,,,,,,,,,,,,,,,,,,,,,,,,,,,,
,,,,,V3_017,18,female,2024-10-17_13h27.54.799,jersey_experiment_5_v3,2023.2.2,Win32,84.74576271,,,,,,,,,,,,,,,,200.6509,201.9446,201.9446,204.8036,return,0.7068,,70.18229167,0,32,32,36,1,FBP-OG-18.png,0.37,1.2,37,0.5,,,,,,,,,,,,,,,,,,,,,,,,,,,,,,,,,,,,,,,,,,,,,
,,,,,V3_017,18,female,2024-10-17_13h27.54.799,jersey_experiment_5_v3,2023.2.2,Win32,84.74576271,,,,,,,,,,,,,,,,204.8039,206.3564,206.3565,209.6157,return,0.8364,,77.99479167,0,33,33,57,1,FBP-RB-19.png,0.4,1.2,58,0.75,,,,,,,,,,,,,,,,,,,,,,,,,,,,,,,,,,,,,,,,,,,,,
,,,,,V3_017,18,female,2024-10-17_13h27.54.799,jersey_experiment_5_v3,2023.2.2,Win32,84.74576271,,,,,,,,,,,,,,,,209.6161,211.1684,211.1684,213.004,return,0.7692,,97.265625,0,34,34,53,1,FBP-RB-18.png,0.43,1.2,54,0.75,,,,,,,,,,,,,,,,,,,,,,,,,,,,,,,,,,,,,,,,,,,,,
,,,,,V3_017,18,female,2024-10-17_13h27.54.799,jersey_experiment_5_v3,2023.2.2,Win32,84.74576271,,,,,,,,,,,,,,,,213.0043,214.5568,214.5569,217.804,return,0.6648,,69.40104167,0,35,35,27,1,FBP-PT-19.png,0.4,1.2,28,0.75,,,,,,,,,,,,,,,,,,,,,,,,,,,,,,,,,,,,,,,,,,,,,
,,,,,V3_017,18,female,2024-10-17_13h27.54.799,jersey_experiment_5_v3,2023.2.2,Win32,84.74576271,,,,,,,,,,,,,,,,217.8044,219.3571,219.3572,220.9688,return,0.5475,,35.80729167,0,36,36,10,1,FBP-YG-91.png,0.35,1.2,11,0.75,,,,,,,,,,,,,,,,,,,,,,,,,,,,,,,,,,,,,,,,,,,,,
,,,,,V3_017,18,female,2024-10-17_13h27.54.799,jersey_experiment_5_v3,2023.2.2,Win32,84.74576271,,,,,,,,,,,,,,,,220.9691,222.263,222.2631,226.0161,return,2.0022,,44.53125,0,37,37,32,1,FBP-OG-17.png,0.4,1.2,33,0.5,,,,,,,,,,,,,,,,,,,,,,,,,,,,,,,,,,,,,,,,,,,,,
,,,,,V3_017,18,female,2024-10-17_13h27.54.799,jersey_experiment_5_v3,2023.2.2,Win32,84.74576271,,,,,,,,,,,,,,,,226.0164,227.5692,227.5692,229.9337,return,0.6508,,85.28645833,0,38,38,54,1,FBP-RB-18.png,0.45,1.2,55,0.75,,,,,,,,,,,,,,,,,,,,,,,,,,,,,,,,,,,,,,,,,,,,,
,,,,,V3_017,18,female,2024-10-17_13h27.54.799,jersey_experiment_5_v3,2023.2.2,Win32,84.74576271,,,,,,,,,,,,,,,,229.9341,231.4868,231.4868,232.7693,return,0.6458,,84.24479167,0,39,39,12,1,FBP-YG-91.png,0.4,1.2,13,0.75,,,,,,,,,,,,,,,,,,,,,,,,,,,,,,,,,,,,,,,,,,,,,
,,,,,V3_017,18,female,2024-10-17_13h27.54.799,jersey_experiment_5_v3,2023.2.2,Win32,84.74576271,,,,,,,,,,,,,,,,232.7698,234.3222,234.3223,236.1576,return,0.6161,,33.59375,0,40,40,21,1,FBP-PT-18.png,0.37,1.2,22,0.75,,,,,,,,,,,,,,,,,,,,,,,,,,,,,,,,,,,,,,,,,,,,,
,,,,,V3_017,18,female,2024-10-17_13h27.54.799,jersey_experiment_5_v3,2023.2.2,Win32,84.74576271,,,,,,,,,,,,,,,,236.1579,237.7106,237.7107,239.087,return,0.5655,,25,0,41,41,20,1,FBP-PT-18.png,0.35,1.2,21,0.75,,,,,,,,,,,,,,,,,,,,,,,,,,,,,,,,,,,,,,,,,,,,,
,,,,,V3_017,18,female,2024-10-17_13h27.54.799,jersey_experiment_5_v3,2023.2.2,Win32,84.74576271,,,,,,,,,,,,,,,,239.0872,240.3812,240.3813,243.0873,return,0.5417,,69.01041667,0,42,42,33,1,FBP-OG-17.png,0.43,1.2,34,0.5,,,,,,,,,,,,,,,,,,,,,,,,,,,,,,,,,,,,,,,,,,,,,
,,,,,V3_017,18,female,2024-10-17_13h27.54.799,jersey_experiment_5_v3,2023.2.2,Win32,84.74576271,,,,,,,,,,,,,,,,243.0877,244.3814,244.3814,248.0169,return,0.5521,,50.26041667,0,43,43,41,1,FBP-OG-19.png,0.37,1.2,42,0.5,,,,,,,,,,,,,,,,,,,,,,,,,,,,,,,,,,,,,,,,,,,,,
,,,,,V3_017,18,female,2024-10-17_13h27.54.799,jersey_experiment_5_v3,2023.2.2,Win32,84.74576271,,,,,,,,,,,,,,,,248.0174,249.5701,249.5701,251.8053,return,0.5791,,83.72395833,0,44,44,24,1,FBP-PT-18.png,0.45,1.2,25,0.75,,,,,,,,,,,,,,,,,,,,,,,,,,,,,,,,,,,,,,,,,,,,,
,,,,,V3_017,18,female,2024-10-17_13h27.54.799,jersey_experiment_5_v3,2023.2.2,Win32,84.74576271,,,,,,,,,,,,,,,,251.8057,253.0993,253.0993,255.2761,return,0.6159,,34.89583333,0,45,45,31,1,FBP-OG-17.png,0.37,1.2,32,0.5,,,,,,,,,,,,,,,,,,,,,,,,,,,,,,,,,,,,,,,,,,,,,
,,,,,V3_017,18,female,2024-10-17_13h27.54.799,jersey_experiment_5_v3,2023.2.2,Win32,84.74576271,,,,,,,,,,,,,,,,255.2764,256.8292,256.8293,258.8643,return,0.9192,,74.86979167,0,46,46,7,1,FBP-YG-81.png,0.4,1.2,8,0.75,,,,,,,,,,,,,,,,,,,,,,,,,,,,,,,,,,,,,,,,,,,,,
,,,,,V3_017,18,female,2024-10-17_13h27.54.799,jersey_experiment_5_v3,2023.2.2,Win32,84.74576271,,,,,,,,,,,,,,,,258.8648,260.1586,260.1586,263.7116,return,0.6373,,99.609375,0,47,47,34,1,FBP-OG-17.png,0.45,1.2,35,0.5,,,,,,,,,,,,,,,,,,,,,,,,,,,,,,,,,,,,,,,,,,,,,
,,,,,V3_017,18,female,2024-10-17_13h27.54.799,jersey_experiment_5_v3,2023.2.2,Win32,84.74576271,,,,,,,,,,,,,,,,263.7119,265.0058,265.0059,267.8528,return,1.4504,,14.58333333,0,48,48,40,1,FBP-OG-19.png,0.35,1.2,41,0.5,,,,,,,,,,,,,,,,,,,,,,,,,,,,,,,,,,,,,,,,,,,,,
,,,,,V3_017,18,female,2024-10-17_13h27.54.799,jersey_experiment_5_v3,2023.2.2,Win32,84.74576271,,,,,,,,,,,,,,,,267.8531,269.4061,269.4061,271.7706,return,0.5945,,93.359375,0,49,49,13,1,FBP-YG-91.png,0.43,1.2,14,0.75,,,,,,,,,,,,,,,,,,,,,,,,,,,,,,,,,,,,,,,,,,,,,
,,,,,V3_017,18,female,2024-10-17_13h27.54.799,jersey_experiment_5_v3,2023.2.2,Win32,84.74576271,,,,,,,,,,,,,,,,271.7708,273.3121,273.3122,275.1708,return,0.9275,,77.08333333,0,50,50,1,1,FBP-YG-71.png,0.37,1.2,2,0.75,,,,,,,,,,,,,,,,,,,,,,,,,,,,,,,,,,,,,,,,,,,,,
,,,,,V3_017,18,female,2024-10-17_13h27.54.799,jersey_experiment_5_v3,2023.2.2,Win32,84.74576271,,,,,,,,,,,,,,,,275.1713,276.7237,276.7238,278.4415,return,0.6773,,77.34375,0,51,51,6,1,FBP-YG-81.png,0.37,1.2,7,0.75,,,,,,,,,,,,,,,,,,,,,,,,,,,,,,,,,,,,,,,,,,,,,
,,,,,V3_017,18,female,2024-10-17_13h27.54.799,jersey_experiment_5_v3,2023.2.2,Win32,84.74576271,,,,,,,,,,,,,,,,278.4418,279.7356,279.7357,281.3475,return,0.6726,,89.71354167,0,52,52,37,1,FBP-OG-18.png,0.4,1.2,38,0.5,,,,,,,,,,,,,,,,,,,,,,,,,,,,,,,,,,,,,,,,,,,,,
,,,,,V3_017,18,female,2024-10-17_13h27.54.799,jersey_experiment_5_v3,2023.2.2,Win32,84.74576271,,,,,,,,,,,,,,,,281.3478,282.9004,282.9005,284.3476,return,0.6416,,99.08854167,0,53,53,2,1,FBP-YG-71.png,0.4,1.2,3,0.75,,,,,,,,,,,,,,,,,,,,,,,,,,,,,,,,,,,,,,,,,,,,,
,,,,,V3_017,18,female,2024-10-17_13h27.54.799,jersey_experiment_5_v3,2023.2.2,Win32,84.74576271,,,,,,,,,,,,,,,,284.348,285.9007,285.9008,287.7596,return,0.6611,,84.50520833,0,54,54,46,1,FBP-RB-17.png,0.37,1.2,47,0.75,,,,,,,,,,,,,,,,,,,,,,,,,,,,,,,,,,,,,,,,,,,,,
,,,,,V3_017,18,female,2024-10-17_13h27.54.799,jersey_experiment_5_v3,2023.2.2,Win32,84.74576271,,,,,,,,,,,,,,,,287.7601,289.3126,289.3127,291.5948,return,0.6184,,50.390625,0,55,55,50,1,FBP-RB-18.png,0.35,1.2,51,0.75,,,,,,,,,,,,,,,,,,,,,,,,,,,,,,,,,,,,,,,,,,,,,
,,,,,V3_017,18,female,2024-10-17_13h27.54.799,jersey_experiment_5_v3,2023.2.2,Win32,84.74576271,,,,,,,,,,,,,,,,291.5952,292.889,292.8891,294.8656,return,0.5648,,99.34895833,0,56,56,38,1,FBP-OG-18.png,0.43,1.2,39,0.5,,,,,,,,,,,,,,,,,,,,,,,,,,,,,,,,,,,,,,,,,,,,,
,,,,,V3_017,18,female,2024-10-17_13h27.54.799,jersey_experiment_5_v3,2023.2.2,Win32,84.74576271,,,,,,,,,,,,,,,,294.8661,296.1598,296.1598,298.0188,return,0.5747,,99.34895833,0,57,57,44,1,FBP-OG-19.png,0.45,1.2,45,0.5,,,,,,,,,,,,,,,,,,,,,,,,,,,,,,,,,,,,,,,,,,,,,
,,,,,V3_017,18,female,2024-10-17_13h27.54.799,jersey_experiment_5_v3,2023.2.2,Win32,84.74576271,,,,,,,,,,,,,,,,298.0192,299.3129,299.3129,303.4425,return,0.6596,,10.28645833,0,58,58,30,1,FBP-OG-17.png,0.35,1.2,31,0.5,,,,,,,,,,,,,,,,,,,,,,,,,,,,,,,,,,,,,,,,,,,,,
,,,,,V3_017,18,female,2024-10-17_13h27.54.799,jersey_experiment_5_v3,2023.2.2,Win32,84.74576271,,,,,,,,,,,,,,,,303.4429,304.7367,304.7368,306.7366,return,0.6369,,67.31770833,0,59,59,43,1,FBP-OG-19.png,0.43,1.2,44,0.5,,,,,,,,,,,,,,,,,,,,,,,,,,,,,,,,,,,,,,,,,,,,,
,,,,,V3_017,18,female,2024-10-17_13h27.54.799,jersey_experiment_5_v3,2023.2.2,Win32,84.74576271,,,,,,,,,,,,,,,,306.739,308.2898,308.2899,310.3721,return,0.5756,,74.73958333,,,,,,FBP-RB-71.png,0.4,1.2,48,0.75,0,0,0,47,1,,,,,,,,,,,,,,,,,,,,,,,,,,,,,,,,,,,,,,,,
,,,,,V3_017,18,female,2024-10-17_13h27.54.799,jersey_experiment_5_v3,2023.2.2,Win32,84.74576271,,,,,,,,,,,,,,,,310.3726,311.9253,311.9253,314.5252,return,0.581,,92.1875,,,,,,FBP-YG-19.png,0.43,1.2,14,0.75,0,1,1,13,1,,,,,,,,,,,,,,,,,,,,,,,,,,,,,,,,,,,,,,,,
,,,,,V3_017,18,female,2024-10-17_13h27.54.799,jersey_experiment_5_v3,2023.2.2,Win32,84.74576271,,,,,,,,,,,,,,,,314.5255,316.0784,316.0784,317.2782,return,0.557,,86.45833333,,,,,,FBP-YG-18.png,0.4,1.2,8,0.75,0,2,2,7,1,,,,,,,,,,,,,,,,,,,,,,,,,,,,,,,,,,,,,,,,
,,,,,V3_017,18,female,2024-10-17_13h27.54.799,jersey_experiment_5_v3,2023.2.2,Win32,84.74576271,,,,,,,,,,,,,,,,317.2786,318.8314,318.8314,320.5136,return,0.928,,100,,,,,,FBP-YG-18.png,0.45,1.2,10,0.75,0,3,3,9,1,,,,,,,,,,,,,,,,,,,,,,,,,,,,,,,,,,,,,,,,
,,,,,V3_017,18,female,2024-10-17_13h27.54.799,jersey_experiment_5_v3,2023.2.2,Win32,84.74576271,,,,,,,,,,,,,,,,320.5139,322.0667,322.0668,323.5608,return,0.5954,,98.95833333,,,,,,FBP-PT-91.png,0.43,1.2,29,0.75,0,4,4,28,1,,,,,,,,,,,,,,,,,,,,,,,,,,,,,,,,,,,,,,,,
,,,,,V3_017,18,female,2024-10-17_13h27.54.799,jersey_experiment_5_v3,2023.2.2,Win32,84.74576271,,,,,,,,,,,,,,,,323.561,325.1141,325.1141,328.9374,return,0.7379,,98.30729167,,,,,,FBP-RB-81.png,0.43,1.2,54,0.75,0,5,5,53,1,,,,,,,,,,,,,,,,,,,,,,,,,,,,,,,,,,,,,,,,
,,,,,V3_017,18,female,2024-10-17_13h27.54.799,jersey_experiment_5_v3,2023.2.2,Win32,84.74576271,,,,,,,,,,,,,,,,328.9377,330.4906,330.4906,334.6554,return,2.8134,,39.0625,,,,,,FBP-YG-18.png,0.35,1.2,6,0.75,0,6,6,5,1,,,,,,,,,,,,,,,,,,,,,,,,,,,,,,,,,,,,,,,,
,,,,,V3_017,18,female,2024-10-17_13h27.54.799,jersey_experiment_5_v3,2023.2.2,Win32,84.74576271,,,,,,,,,,,,,,,,334.6558,336.2083,336.2083,338.7966,return,1.2391,,99.609375,,,,,,FBP-PT-71.png,0.45,1.2,20,0.75,0,7,7,19,1,,,,,,,,,,,,,,,,,,,,,,,,,,,,,,,,,,,,,,,,
,,,,,V3_017,18,female,2024-10-17_13h27.54.799,jersey_experiment_5_v3,2023.2.2,Win32,84.74576271,,,,,,,,,,,,,,,,338.797,340.3497,340.3498,344.7027,return,0.6016,,25.91145833,,,,,,FBP-YG-19.png,0.35,1.2,11,0.75,0,8,8,10,1,,,,,,,,,,,,,,,,,,,,,,,,,,,,,,,,,,,,,,,,
,,,,,V3_017,18,female,2024-10-17_13h27.54.799,jersey_experiment_5_v3,2023.2.2,Win32,84.74576271,,,,,,,,,,,,,,,,344.703,346.2559,346.2559,350.0676,return,2.4239,,46.61458333,,,,,,FBP-RB-81.png,0.37,1.2,52,0.75,0,9,9,51,1,,,,,,,,,,,,,,,,,,,,,,,,,,,,,,,,,,,,,,,,
,,,,,V3_017,18,female,2024-10-17_13h27.54.799,jersey_experiment_5_v3,2023.2.2,Win32,84.74576271,,,,,,,,,,,,,,,,350.0681,351.6208,351.6209,355.915,return,3.0538,,92.578125,,,,,,FBP-YG-19.png,0.45,1.2,15,0.75,0,10,10,14,1,,,,,,,,,,,,,,,,,,,,,,,,,,,,,,,,,,,,,,,,
,,,,,V3_017,18,female,2024-10-17_13h27.54.799,jersey_experiment_5_v3,2023.2.2,Win32,84.74576271,,,,,,,,,,,,,,,,355.9153,357.2093,357.2093,363.4681,return,1.2406,,46.09375,,,,,,FBP-OG-91.png,0.37,1.2,42,0.5,0,11,11,41,1,,,,,,,,,,,,,,,,,,,,,,,,,,,,,,,,,,,,,,,,
,,,,,V3_017,18,female,2024-10-17_13h27.54.799,jersey_experiment_5_v3,2023.2.2,Win32,84.74576271,,,,,,,,,,,,,,,,363.4684,364.7623,364.7623,366.6917,return,0.5417,,93.75,,,,,,FBP-OG-91.png,0.43,1.2,44,0.5,0,12,12,43,1,,,,,,,,,,,,,,,,,,,,,,,,,,,,,,,,,,,,,,,,
,,,,,V3_017,18,female,2024-10-17_13h27.54.799,jersey_experiment_5_v3,2023.2.2,Win32,84.74576271,,,,,,,,,,,,,,,,366.692,367.9859,367.9859,369.9861,return,0.6022,,98.56770833,,,,,,FBP-OG-81.png,0.45,1.2,40,0.5,0,13,13,39,1,,,,,,,,,,,,,,,,,,,,,,,,,,,,,,,,,,,,,,,,
,,,,,V3_017,18,female,2024-10-17_13h27.54.799,jersey_experiment_5_v3,2023.2.2,Win32,84.74576271,,,,,,,,,,,,,,,,369.9864,371.2802,371.2802,375.5626,return,0.6073,,55.20833333,,,,,,FBP-OG-91.png,0.4,1.2,43,0.5,0,14,14,42,1,,,,,,,,,,,,,,,,,,,,,,,,,,,,,,,,,,,,,,,,
,,,,,V3_017,18,female,2024-10-17_13h27.54.799,jersey_experiment_5_v3,2023.2.2,Win32,84.74576271,,,,,,,,,,,,,,,,375.5629,377.1044,377.1044,378.798,return,0.6625,,68.359375,,,,,,FBP-RB-91.png,0.4,1.2,58,0.75,0,15,15,57,1,,,,,,,,,,,,,,,,,,,,,,,,,,,,,,,,,,,,,,,,
,,,,,V3_017,18,female,2024-10-17_13h27.54.799,jersey_experiment_5_v3,2023.2.2,Win32,84.74576271,,,,,,,,,,,,,,,,378.7984,380.0923,380.0924,381.5512,return,0.5541,,64.97395833,,,,,,FBP-OG-71.png,0.37,1.2,32,0.5,0,16,16,31,1,,,,,,,,,,,,,,,,,,,,,,,,,,,,,,,,,,,,,,,,
,,,,,V3_017,18,female,2024-10-17_13h27.54.799,jersey_experiment_5_v3,2023.2.2,Win32,84.74576271,,,,,,,,,,,,,,,,381.5516,383.1042,383.1042,385.163,return,0.5938,,61.45833333,,,,,,FBP-PT-71.png,0.4,1.2,18,0.75,0,17,17,17,1,,,,,,,,,,,,,,,,,,,,,,,,,,,,,,,,,,,,,,,,
,,,,,V3_017,18,female,2024-10-17_13h27.54.799,jersey_experiment_5_v3,2023.2.2,Win32,84.74576271,,,,,,,,,,,,,,,,385.1634,386.7161,386.7162,389.3046,return,0.7038,,51.171875,,,,,,FBP-YG-17.png,0.35,1.2,1,0.75,0,18,18,0,1,,,,,,,,,,,,,,,,,,,,,,,,,,,,,,,,,,,,,,,,
,,,,,V3_017,18,female,2024-10-17_13h27.54.799,jersey_experiment_5_v3,2023.2.2,Win32,84.74576271,,,,,,,,,,,,,,,,389.3049,390.5986,390.5986,392.3987,return,0.6022,,92.44791667,,,,,,FBP-OG-71.png,0.45,1.2,35,0.5,0,19,19,34,1,,,,,,,,,,,,,,,,,,,,,,,,,,,,,,,,,,,,,,,,
,,,,,V3_017,18,female,2024-10-17_13h27.54.799,jersey_experiment_5_v3,2023.2.2,Win32,84.74576271,,,,,,,,,,,,,,,,392.3991,393.9517,393.9519,396.5635,return,0.6353,,92.70833333,,,,,,FBP-PT-81.png,0.37,1.2,22,0.75,0,20,20,21,1,,,,,,,,,,,,,,,,,,,,,,,,,,,,,,,,,,,,,,,,
,,,,,V3_017,18,female,2024-10-17_13h27.54.799,jersey_experiment_5_v3,2023.2.2,Win32,84.74576271,,,,,,,,,,,,,,,,396.5638,398.1165,398.1165,400.2694,return,0.6381,,48.046875,,,,,,FBP-PT-71.png,0.37,1.2,17,0.75,0,21,21,16,1,,,,,,,,,,,,,,,,,,,,,,,,,,,,,,,,,,,,,,,,
,,,,,V3_017,18,female,2024-10-17_13h27.54.799,jersey_experiment_5_v3,2023.2.2,Win32,84.74576271,,,,,,,,,,,,,,,,400.2697,401.5637,401.5637,402.8343,return,0.6255,,44.921875,,,,,,FBP-OG-71.png,0.35,1.2,31,0.5,0,22,22,30,1,,,,,,,,,,,,,,,,,,,,,,,,,,,,,,,,,,,,,,,,
,,,,,V3_017,18,female,2024-10-17_13h27.54.799,jersey_experiment_5_v3,2023.2.2,Win32,84.74576271,,,,,,,,,,,,,,,,402.8346,404.3873,404.3873,406.1874,return,0.5813,,76.69270833,,,,,,FBP-PT-71.png,0.43,1.2,19,0.75,0,23,23,18,1,,,,,,,,,,,,,,,,,,,,,,,,,,,,,,,,,,,,,,,,
,,,,,V3_017,18,female,2024-10-17_13h27.54.799,jersey_experiment_5_v3,2023.2.2,Win32,84.74576271,,,,,,,,,,,,,,,,406.1875,407.7402,407.7403,409.9051,return,0.6234,,40.234375,,,,,,FBP-PT-81.png,0.35,1.2,21,0.75,0,24,24,20,1,,,,,,,,,,,,,,,,,,,,,,,,,,,,,,,,,,,,,,,,
,,,,,V3_017,18,female,2024-10-17_13h27.54.799,jersey_experiment_5_v3,2023.2.2,Win32,84.74576271,,,,,,,,,,,,,,,,409.9055,411.4581,411.4581,413.9053,return,1.2353,,85.28645833,,,,,,FBP-RB-71.png,0.43,1.2,49,0.75,0,25,25,48,1,,,,,,,,,,,,,,,,,,,,,,,,,,,,,,,,,,,,,,,,
,,,,,V3_017,18,female,2024-10-17_13h27.54.799,jersey_experiment_5_v3,2023.2.2,Win32,84.74576271,,,,,,,,,,,,,,,,413.9057,415.1994,415.1995,416.529,return,0.5545,,93.88020833,,,,,,FBP-OG-91.png,0.45,1.2,45,0.5,0,26,26,44,1,,,,,,,,,,,,,,,,,,,,,,,,,,,,,,,,,,,,,,,,
,,,,,V3_017,18,female,2024-10-17_13h27.54.799,jersey_experiment_5_v3,2023.2.2,Win32,84.74576271,,,,,,,,,,,,,,,,416.5292,418.0821,418.0822,420.0939,return,0.5923,,74.86979167,,,,,,FBP-YG-17.png,0.37,1.2,2,0.75,0,27,27,1,1,,,,,,,,,,,,,,,,,,,,,,,,,,,,,,,,,,,,,,,,
,,,,,V3_017,18,female,2024-10-17_13h27.54.799,jersey_experiment_5_v3,2023.2.2,Win32,84.74576271,,,,,,,,,,,,,,,,420.0943,421.3879,421.3879,424.2821,return,2.1119,,74.86979167,,,,,,FBP-OG-81.png,0.4,1.2,38,0.5,0,28,28,37,1,,,,,,,,,,,,,,,,,,,,,,,,,,,,,,,,,,,,,,,,
,,,,,V3_017,18,female,2024-10-17_13h27.54.799,jersey_experiment_5_v3,2023.2.2,Win32,84.74576271,,,,,,,,,,,,,,,,424.2824,425.8353,425.8353,427.0587,return,0.6122,,76.30208333,,,,,,FBP-YG-19.png,0.4,1.2,13,0.75,0,29,29,12,1,,,,,,,,,,,,,,,,,,,,,,,,,,,,,,,,,,,,,,,,
,,,,,V3_017,18,female,2024-10-17_13h27.54.799,jersey_experiment_5_v3,2023.2.2,Win32,84.74576271,,,,,,,,,,,,,,,,427.059,428.6002,428.6003,430.2589,return,0.5178,,46.09375,,,,,,FBP-PT-71.png,0.35,1.2,16,0.75,0,30,30,15,1,,,,,,,,,,,,,,,,,,,,,,,,,,,,,,,,,,,,,,,,
,,,,,V3_017,18,female,2024-10-17_13h27.54.799,jersey_experiment_5_v3,2023.2.2,Win32,84.74576271,,,,,,,,,,,,,,,,430.2593,431.8119,431.812,433.153,return,0.589,,78.38541667,,,,,,FBP-RB-81.png,0.4,1.2,53,0.75,0,31,31,52,1,,,,,,,,,,,,,,,,,,,,,,,,,,,,,,,,,,,,,,,,
,,,,,V3_017,18,female,2024-10-17_13h27.54.799,jersey_experiment_5_v3,2023.2.2,Win32,84.74576271,,,,,,,,,,,,,,,,433.1532,434.6944,434.6945,435.8708,return,0.5662,,99.34895833,,,,,,FBP-PT-81.png,0.43,1.2,24,0.75,0,32,32,23,1,,,,,,,,,,,,,,,,,,,,,,,,,,,,,,,,,,,,,,,,
,,,,,V3_017,18,female,2024-10-17_13h27.54.799,jersey_experiment_5_v3,2023.2.2,Win32,84.74576271,,,,,,,,,,,,,,,,435.871,437.424,437.4241,439.165,return,0.628,,27.86458333,,,,,,FBP-RB-81.png,0.35,1.2,51,0.75,0,33,33,50,1,,,,,,,,,,,,,,,,,,,,,,,,,,,,,,,,,,,,,,,,
,,,,,V3_017,18,female,2024-10-17_13h27.54.799,jersey_experiment_5_v3,2023.2.2,Win32,84.74576271,,,,,,,,,,,,,,,,439.1654,440.7182,440.7182,442.4947,return,0.6251,,70.44270833,,,,,,FBP-PT-91.png,0.4,1.2,28,0.75,0,34,34,27,1,,,,,,,,,,,,,,,,,,,,,,,,,,,,,,,,,,,,,,,,
,,,,,V3_017,18,female,2024-10-17_13h27.54.799,jersey_experiment_5_v3,2023.2.2,Win32,84.74576271,,,,,,,,,,,,,,,,442.4951,444.0475,444.0476,445.7418,return,0.9557,,76.953125,,,,,,FBP-PT-81.png,0.4,1.2,23,0.75,0,35,35,22,1,,,,,,,,,,,,,,,,,,,,,,,,,,,,,,,,,,,,,,,,
,,,,,V3_017,18,female,2024-10-17_13h27.54.799,jersey_experiment_5_v3,2023.2.2,Win32,84.74576271,,,,,,,,,,,,,,,,445.7422,447.2949,447.295,448.6713,return,0.6859,,99.34895833,,,,,,FBP-RB-71.png,0.45,1.2,50,0.75,0,36,36,49,1,,,,,,,,,,,,,,,,,,,,,,,,,,,,,,,,,,,,,,,,
,,,,,V3_017,18,female,2024-10-17_13h27.54.799,jersey_experiment_5_v3,2023.2.2,Win32,84.74576271,,,,,,,,,,,,,,,,448.6716,450.2242,450.2242,451.9772,return,0.7245,,97.65625,,,,,,FBP-RB-91.png,0.43,1.2,59,0.75,0,37,37,58,1,,,,,,,,,,,,,,,,,,,,,,,,,,,,,,,,,,,,,,,,
,,,,,V3_017,18,female,2024-10-17_13h27.54.799,jersey_experiment_5_v3,2023.2.2,Win32,84.74576271,,,,,,,,,,,,,,,,451.9776,453.5302,453.5303,455.3303,return,0.6605,,79.6875,,,,,,FBP-YG-17.png,0.4,1.2,3,0.75,0,38,38,2,1,,,,,,,,,,,,,,,,,,,,,,,,,,,,,,,,,,,,,,,,
,,,,,V3_017,18,female,2024-10-17_13h27.54.799,jersey_experiment_5_v3,2023.2.2,Win32,84.74576271,,,,,,,,,,,,,,,,455.3306,456.6244,456.6245,457.9657,return,0.6618,,83.07291667,,,,,,FBP-OG-71.png,0.4,1.2,33,0.5,0,39,39,32,1,,,,,,,,,,,,,,,,,,,,,,,,,,,,,,,,,,,,,,,,
,,,,,V3_017,18,female,2024-10-17_13h27.54.799,jersey_experiment_5_v3,2023.2.2,Win32,84.74576271,,,,,,,,,,,,,,,,457.966,459.5188,459.5188,463.3777,return,1.7921,,94.921875,,,,,,FBP-RB-91.png,0.45,1.2,60,0.75,0,40,40,59,1,,,,,,,,,,,,,,,,,,,,,,,,,,,,,,,,,,,,,,,,
,,,,,V3_017,18,female,2024-10-17_13h27.54.799,jersey_experiment_5_v3,2023.2.2,Win32,84.74576271,,,,,,,,,,,,,,,,463.378,464.9307,464.9307,467.1661,return,0.6744,,78.90625,,,,,,FBP-PT-91.png,0.45,1.2,30,0.75,0,41,41,29,1,,,,,,,,,,,,,,,,,,,,,,,,,,,,,,,,,,,,,,,,
,,,,,V3_017,18,female,2024-10-17_13h27.54.799,jersey_experiment_5_v3,2023.2.2,Win32,84.74576271,,,,,,,,,,,,,,,,467.1665,468.7191,468.7191,470.3075,return,0.5889,,93.359375,,,,,,FBP-PT-81.png,0.45,1.2,25,0.75,0,42,42,24,1,,,,,,,,,,,,,,,,,,,,,,,,,,,,,,,,,,,,,,,,
,,,,,V3_017,18,female,2024-10-17_13h27.54.799,jersey_experiment_5_v3,2023.2.2,Win32,84.74576271,,,,,,,,,,,,,,,,470.3082,471.8603,471.8603,473.79,return,0.5787,,91.14583333,,,,,,FBP-YG-18.png,0.43,1.2,9,0.75,0,43,43,8,1,,,,,,,,,,,,,,,,,,,,,,,,,,,,,,,,,,,,,,,,
,,,,,V3_017,18,female,2024-10-17_13h27.54.799,jersey_experiment_5_v3,2023.2.2,Win32,84.74576271,,,,,,,,,,,,,,,,473.7904,475.343,475.343,477.5195,return,0.6017,,30.59895833,,,,,,FBP-PT-91.png,0.37,1.2,27,0.75,0,44,44,26,1,,,,,,,,,,,,,,,,,,,,,,,,,,,,,,,,,,,,,,,,
,,,,,V3_017,18,female,2024-10-17_13h27.54.799,jersey_experiment_5_v3,2023.2.2,Win32,84.74576271,,,,,,,,,,,,,,,,477.5197,478.8135,478.8135,480.2372,return,0.6501,,15.88541667,,,,,,FBP-OG-91.png,0.35,1.2,41,0.5,0,45,45,40,1,,,,,,,,,,,,,,,,,,,,,,,,,,,,,,,,,,,,,,,,
,,,,,V3_017,18,female,2024-10-17_13h27.54.799,jersey_experiment_5_v3,2023.2.2,Win32,84.74576271,,,,,,,,,,,,,,,,480.2376,481.7902,481.7902,482.9901,return,0.5918,,19.921875,,,,,,FBP-RB-91.png,0.35,1.2,56,0.75,0,46,46,55,1,,,,,,,,,,,,,,,,,,,,,,,,,,,,,,,,,,,,,,,,
,,,,,V3_017,18,female,2024-10-17_13h27.54.799,jersey_experiment_5_v3,2023.2.2,Win32,84.74576271,,,,,,,,,,,,,,,,482.9904,484.5434,484.5434,486.3668,return,0.6501,,99.34895833,,,,,,FBP-YG-17.png,0.45,1.2,5,0.75,0,47,47,4,1,,,,,,,,,,,,,,,,,,,,,,,,,,,,,,,,,,,,,,,,
,,,,,V3_017,18,female,2024-10-17_13h27.54.799,jersey_experiment_5_v3,2023.2.2,Win32,84.74576271,,,,,,,,,,,,,,,,486.3671,487.9199,487.92,490.108,return,0.5687,,70.18229167,,,,,,FBP-RB-91.png,0.37,1.2,57,0.75,0,48,48,56,1,,,,,,,,,,,,,,,,,,,,,,,,,,,,,,,,,,,,,,,,
,,,,,V3_017,18,female,2024-10-17_13h27.54.799,jersey_experiment_5_v3,2023.2.2,Win32,84.74576271,,,,,,,,,,,,,,,,490.1083,491.6612,491.6613,493.3906,return,0.5076,,99.73958333,,,,,,FBP-RB-81.png,0.45,1.2,55,0.75,0,49,49,54,1,,,,,,,,,,,,,,,,,,,,,,,,,,,,,,,,,,,,,,,,
,,,,,V3_017,18,female,2024-10-17_13h27.54.799,jersey_experiment_5_v3,2023.2.2,Win32,84.74576271,,,,,,,,,,,,,,,,493.3909,494.9436,494.9437,496.626,return,0.5412,,45.96354167,,,,,,FBP-RB-71.png,0.35,1.2,46,0.75,0,50,50,45,1,,,,,,,,,,,,,,,,,,,,,,,,,,,,,,,,,,,,,,,,
,,,,,V3_017,18,female,2024-10-17_13h27.54.799,jersey_experiment_5_v3,2023.2.2,Win32,84.74576271,,,,,,,,,,,,,,,,496.6264,497.9201,497.9201,500.026,return,0.5959,,32.8125,,,,,,FBP-OG-81.png,0.37,1.2,37,0.5,0,51,51,36,1,,,,,,,,,,,,,,,,,,,,,,,,,,,,,,,,,,,,,,,,
,,,,,V3_017,18,female,2024-10-17_13h27.54.799,jersey_experiment_5_v3,2023.2.2,Win32,84.74576271,,,,,,,,,,,,,,,,500.0264,501.3203,501.3204,502.6379,return,0.5555,,30.20833333,,,,,,FBP-OG-81.png,0.35,1.2,36,0.5,0,52,52,35,1,,,,,,,,,,,,,,,,,,,,,,,,,,,,,,,,,,,,,,,,
,,,,,V3_017,18,female,2024-10-17_13h27.54.799,jersey_experiment_5_v3,2023.2.2,Win32,84.74576271,,,,,,,,,,,,,,,,502.6382,503.9321,503.9321,506.0969,return,0.7539,,71.484375,,,,,,FBP-OG-71.png,0.43,1.2,34,0.5,0,53,53,33,1,,,,,,,,,,,,,,,,,,,,,,,,,,,,,,,,,,,,,,,,
,,,,,V3_017,18,female,2024-10-17_13h27.54.799,jersey_experiment_5_v3,2023.2.2,Win32,84.74576271,,,,,,,,,,,,,,,,506.0973,507.65,507.6501,509.2734,return,0.5365,,41.53645833,,,,,,FBP-PT-91.png,0.35,1.2,26,0.75,0,54,54,25,1,,,,,,,,,,,,,,,,,,,,,,,,,,,,,,,,,,,,,,,,
,,,,,V3_017,18,female,2024-10-17_13h27.54.799,jersey_experiment_5_v3,2023.2.2,Win32,84.74576271,,,,,,,,,,,,,,,,509.2737,510.8263,510.8264,512.8972,return,0.683,,46.74479167,,,,,,FBP-YG-19.png,0.37,1.2,12,0.75,0,55,55,11,1,,,,,,,,,,,,,,,,,,,,,,,,,,,,,,,,,,,,,,,,
,,,,,V3_017,18,female,2024-10-17_13h27.54.799,jersey_experiment_5_v3,2023.2.2,Win32,84.74576271,,,,,,,,,,,,,,,,512.8977,514.4501,514.4501,516.8502,return,0.5886,,49.73958333,,,,,,FBP-RB-71.png,0.37,1.2,47,0.75,0,56,56,46,1,,,,,,,,,,,,,,,,,,,,,,,,,,,,,,,,,,,,,,,,
,,,,,V3_017,18,female,2024-10-17_13h27.54.799,jersey_experiment_5_v3,2023.2.2,Win32,84.74576271,,,,,,,,,,,,,,,,516.8506,518.1443,518.1444,520.8974,return,0.5649,,70.703125,,,,,,FBP-OG-81.png,0.43,1.2,39,0.5,0,57,57,38,1,,,,,,,,,,,,,,,,,,,,,,,,,,,,,,,,,,,,,,,,
,,,,,V3_017,18,female,2024-10-17_13h27.54.799,jersey_experiment_5_v3,2023.2.2,Win32,84.74576271,,,,,,,,,,,,,,,,520.8977,522.4505,522.4505,524.1917,return,0.6372,,64.97395833,,,,,,FBP-YG-18.png,0.37,1.2,7,0.75,0,58,58,6,1,,,,,,,,,,,,,,,,,,,,,,,,,,,,,,,,,,,,,,,,
,,,,,V3_017,18,female,2024-10-17_13h27.54.799,jersey_experiment_5_v3,2023.2.2,Win32,84.74576271,,,,,,,,,,,,,,,,524.192,525.7448,525.7448,527.8036,return,0.6176,,90.234375,,,,,,FBP-YG-17.png,0.43,1.2,4,0.75,0,59,59,3,1,,,,,,,,,,,,,,,,,,,,,,,,,,,,,,,,,,,,,,,,
,,,,,V3_017,18,female,2024-10-17_13h27.54.799,jersey_experiment_5_v3,2023.2.2,Win32,84.74576271,,,,,,,,,,,,,,,,,,,,,,,,,,,,,,,,,,,,,,,527.8038,647.7963,,,,,,,,,,,,,,,,,,,,,,,,,,,,,,,,,,,,,,
,,,,,V3_017,18,female,2024-10-17_13h27.54.799,jersey_experiment_5_v3,2023.2.2,Win32,84.74576271,,,,,,,,,,,,,,,,,,,,,,,,,,,,,,,,,,,,,,,,,647.7965,660.4911,return,12.6854,,,,,,,,,,,,,,,,,,,,,,,,,,,,,,,,,,
,,,,,V3_017,18,female,2024-10-17_13h27.54.799,jersey_experiment_5_v3,2023.2.2,Win32,84.74576271,,,,,,,,,,,,,,,,660.4938,661.7966,661.7966,665.091,return,1.0118,,24.08854167,,,,,,FBP-PT-17.png,0.37,1.2,17,0.5,,,,,,,,,,,,,0,0,0,16,1,,,,,,,,,,,,,,,,,,,,,,,,,,,,
,,,,,V3_017,18,female,2024-10-17_13h27.54.799,jersey_experiment_5_v3,2023.2.2,Win32,84.74576271,,,,,,,,,,,,,,,,665.0914,666.3851,666.3851,668.8794,return,1.0849,,38.02083333,,,,,,FBP-PT-18.png,0.37,1.2,22,0.5,,,,,,,,,,,,,0,1,1,21,1,,,,,,,,,,,,,,,,,,,,,,,,,,,,
,,,,,V3_017,18,female,2024-10-17_13h27.54.799,jersey_experiment_5_v3,2023.2.2,Win32,84.74576271,,,,,,,,,,,,,,,,668.8798,670.1735,670.1735,671.7265,return,0.5679,,84.11458333,,,,,,FBP-RB-18.png,0.43,1.2,54,0.5,,,,,,,,,,,,,0,2,2,53,1,,,,,,,,,,,,,,,,,,,,,,,,,,,,
,,,,,V3_017,18,female,2024-10-17_13h27.54.799,jersey_experiment_5_v3,2023.2.2,Win32,84.74576271,,,,,,,,,,,,,,,,671.727,673.0207,673.0208,675.6442,return,0.9349,,48.69791667,,,,,,FBP-YG-91.png,0.35,1.2,11,0.5,,,,,,,,,,,,,0,3,3,10,1,,,,,,,,,,,,,,,,,,,,,,,,,,,,
,,,,,V3_017,18,female,2024-10-17_13h27.54.799,jersey_experiment_5_v3,2023.2.2,Win32,84.74576271,,,,,,,,,,,,,,,,675.6445,677.1974,677.1974,678.6562,return,0.6145,,84.89583333,,,,,,FBP-OG-19.png,0.43,1.2,44,0.75,,,,,,,,,,,,,0,4,4,43,1,,,,,,,,,,,,,,,,,,,,,,,,,,,,
,,,,,V3_017,18,female,2024-10-17_13h27.54.799,jersey_experiment_5_v3,2023.2.2,Win32,84.74576271,,,,,,,,,,,,,,,,678.6565,679.9505,679.9505,682.1857,return,0.6419,,29.42708333,,,,,,FBP-PT-18.png,0.35,1.2,21,0.5,,,,,,,,,,,,,0,5,5,20,1,,,,,,,,,,,,,,,,,,,,,,,,,,,,
,,,,,V3_017,18,female,2024-10-17_13h27.54.799,jersey_experiment_5_v3,2023.2.2,Win32,84.74576271,,,,,,,,,,,,,,,,682.1862,683.7389,683.739,685.0328,return,0.562,,24.47916667,,,,,,FBP-OG-18.png,0.35,1.2,36,0.75,,,,,,,,,,,,,0,6,6,35,1,,,,,,,,,,,,,,,,,,,,,,,,,,,,
,,,,,V3_017,18,female,2024-10-17_13h27.54.799,jersey_experiment_5_v3,2023.2.2,Win32,84.74576271,,,,,,,,,,,,,,,,685.0332,686.3271,686.3272,688.633,return,0.9251,,88.93229167,,,,,,FBP-RB-17.png,0.45,1.2,50,0.5,,,,,,,,,,,,,0,7,7,49,1,,,,,,,,,,,,,,,,,,,,,,,,,,,,
,,,,,V3_017,18,female,2024-10-17_13h27.54.799,jersey_experiment_5_v3,2023.2.2,Win32,84.74576271,,,,,,,,,,,,,,,,688.6333,690.1862,690.1862,693.4919,return,0.5174,,37.63020833,,,,,,FBP-OG-17.png,0.35,1.2,31,0.75,,,,,,,,,,,,,0,8,8,30,1,,,,,,,,,,,,,,,,,,,,,,,,,,,,
,,,,,V3_017,18,female,2024-10-17_13h27.54.799,jersey_experiment_5_v3,2023.2.2,Win32,84.74576271,,,,,,,,,,,,,,,,693.4921,694.7863,694.7863,698.0568,return,1.9384,,41.53645833,,,,,,FBP-RB-18.png,0.35,1.2,51,0.5,,,,,,,,,,,,,0,9,9,50,1,,,,,,,,,,,,,,,,,,,,,,,,,,,,
,,,,,V3_017,18,female,2024-10-17_13h27.54.799,jersey_experiment_5_v3,2023.2.2,Win32,84.74576271,,,,,,,,,,,,,,,,698.0572,699.3512,699.3513,701.7158,return,0.6036,,70.703125,,,,,,FBP-YG-71.png,0.4,1.2,3,0.5,,,,,,,,,,,,,0,10,10,2,1,,,,,,,,,,,,,,,,,,,,,,,,,,,,
,,,,,V3_017,18,female,2024-10-17_13h27.54.799,jersey_experiment_5_v3,2023.2.2,Win32,84.74576271,,,,,,,,,,,,,,,,701.716,703.0099,703.0099,704.6806,return,0.5857,,80.33854167,,,,,,FBP-PT-19.png,0.43,1.2,29,0.5,,,,,,,,,,,,,0,11,11,28,1,,,,,,,,,,,,,,,,,,,,,,,,,,,,
,,,,,V3_017,18,female,2024-10-17_13h27.54.799,jersey_experiment_5_v3,2023.2.2,Win32,84.74576271,,,,,,,,,,,,,,,,704.6809,705.9748,705.9749,707.9395,return,0.5178,,82.8125,,,,,,FBP-RB-18.png,0.4,1.2,53,0.5,,,,,,,,,,,,,0,12,12,52,1,,,,,,,,,,,,,,,,,,,,,,,,,,,,
,,,,,V3_017,18,female,2024-10-17_13h27.54.799,jersey_experiment_5_v3,2023.2.2,Win32,84.74576271,,,,,,,,,,,,,,,,707.9398,709.2338,709.2338,710.4103,return,0.4783,,89.453125,,,,,,FBP-YG-91.png,0.43,1.2,14,0.5,,,,,,,,,,,,,0,13,13,13,1,,,,,,,,,,,,,,,,,,,,,,,,,,,,
,,,,,V3_017,18,female,2024-10-17_13h27.54.799,jersey_experiment_5_v3,2023.2.2,Win32,84.74576271,,,,,,,,,,,,,,,,710.4107,711.7045,711.7046,714.5397,return,0.5454,,52.734375,,,,,,FBP-RB-17.png,0.37,1.2,47,0.5,,,,,,,,,,,,,0,14,14,46,1,,,,,,,,,,,,,,,,,,,,,,,,,,,,
,,,,,V3_017,18,female,2024-10-17_13h27.54.799,jersey_experiment_5_v3,2023.2.2,Win32,84.74576271,,,,,,,,,,,,,,,,714.54,716.093,716.093,718.0929,return,1.3109,,51.82291667,,,,,,FBP-OG-19.png,0.35,1.2,41,0.75,,,,,,,,,,,,,0,15,15,40,1,,,,,,,,,,,,,,,,,,,,,,,,,,,,
,,,,,V3_017,18,female,2024-10-17_13h27.54.799,jersey_experiment_5_v3,2023.2.2,Win32,84.74576271,,,,,,,,,,,,,,,,718.0933,719.387,719.3872,721.2107,return,1.0423,,34.765625,,,,,,FBP-PT-19.png,0.35,1.2,26,0.5,,,,,,,,,,,,,0,16,16,25,1,,,,,,,,,,,,,,,,,,,,,,,,,,,,
,,,,,V3_017,18,female,2024-10-17_13h27.54.799,jersey_experiment_5_v3,2023.2.2,Win32,84.74576271,,,,,,,,,,,,,,,,721.211,722.7637,722.7638,727.4345,return,0.5368,,54.55729167,,,,,,FBP-OG-17.png,0.37,1.2,32,0.75,,,,,,,,,,,,,0,17,17,31,1,,,,,,,,,,,,,,,,,,,,,,,,,,,,
,,,,,V3_017,18,female,2024-10-17_13h27.54.799,jersey_experiment_5_v3,2023.2.2,Win32,84.74576271,,,,,,,,,,,,,,,,727.4348,728.7286,728.7287,730.0934,return,0.5672,,61.58854167,,,,,,FBP-YG-81.png,0.37,1.2,7,0.5,,,,,,,,,,,,,0,18,18,6,1,,,,,,,,,,,,,,,,,,,,,,,,,,,,
,,,,,V3_017,18,female,2024-10-17_13h27.54.799,jersey_experiment_5_v3,2023.2.2,Win32,84.74576271,,,,,,,,,,,,,,,,730.0937,731.6463,731.6464,733.3288,return,0.6364,,70.05208333,,,,,,FBP-OG-17.png,0.4,1.2,33,0.75,,,,,,,,,,,,,0,19,19,32,1,,,,,,,,,,,,,,,,,,,,,,,,,,,,
,,,,,V3_017,18,female,2024-10-17_13h27.54.799,jersey_experiment_5_v3,2023.2.2,Win32,84.74576271,,,,,,,,,,,,,,,,733.3293,734.623,734.623,736.1053,return,0.6069,,87.63020833,,,,,,FBP-PT-18.png,0.45,1.2,25,0.5,,,,,,,,,,,,,0,20,20,24,1,,,,,,,,,,,,,,,,,,,,,,,,,,,,
,,,,,V3_017,18,female,2024-10-17_13h27.54.799,jersey_experiment_5_v3,2023.2.2,Win32,84.74576271,,,,,,,,,,,,,,,,736.1057,737.6583,737.6583,740.0113,return,0.618,,87.63020833,,,,,,FBP-OG-19.png,0.45,1.2,45,0.75,,,,,,,,,,,,,0,21,21,44,1,,,,,,,,,,,,,,,,,,,,,,,,,,,,
,,,,,V3_017,18,female,2024-10-17_13h27.54.799,jersey_experiment_5_v3,2023.2.2,Win32,84.74576271,,,,,,,,,,,,,,,,740.0117,741.5645,741.5645,743.788,return,0.5452,,67.31770833,,,,,,FBP-OG-18.png,0.4,1.2,38,0.75,,,,,,,,,,,,,0,22,22,37,1,,,,,,,,,,,,,,,,,,,,,,,,,,,,
,,,,,V3_017,18,female,2024-10-17_13h27.54.799,jersey_experiment_5_v3,2023.2.2,Win32,84.74576271,,,,,,,,,,,,,,,,743.7883,745.0822,745.0822,746.6821,return,0.5938,,63.54166667,,,,,,FBP-YG-91.png,0.4,1.2,13,0.5,,,,,,,,,,,,,0,23,23,12,1,,,,,,,,,,,,,,,,,,,,,,,,,,,,
,,,,,V3_017,18,female,2024-10-17_13h27.54.799,jersey_experiment_5_v3,2023.2.2,Win32,84.74576271,,,,,,,,,,,,,,,,746.6825,747.9762,747.9763,749.8589,return,0.5671,,84.765625,,,,,,FBP-YG-91.png,0.45,1.2,15,0.5,,,,,,,,,,,,,0,24,24,14,1,,,,,,,,,,,,,,,,,,,,,,,,,,,,
,,,,,V3_017,18,female,2024-10-17_13h27.54.799,jersey_experiment_5_v3,2023.2.2,Win32,84.74576271,,,,,,,,,,,,,,,,749.8591,751.1528,751.1528,753.8589,return,0.6353,,41.796875,,,,,,FBP-RB-19.png,0.35,1.2,56,0.5,,,,,,,,,,,,,0,25,25,55,1,,,,,,,,,,,,,,,,,,,,,,,,,,,,
,,,,,V3_017,18,female,2024-10-17_13h27.54.799,jersey_experiment_5_v3,2023.2.2,Win32,84.74576271,,,,,,,,,,,,,,,,753.8591,755.1531,755.1532,757.012,return,0.544,,65.88541667,,,,,,FBP-YG-91.png,0.37,1.2,12,0.5,,,,,,,,,,,,,0,26,26,11,1,,,,,,,,,,,,,,,,,,,,,,,,,,,,
,,,,,V3_017,18,female,2024-10-17_13h27.54.799,jersey_experiment_5_v3,2023.2.2,Win32,84.74576271,,,,,,,,,,,,,,,,757.0122,758.3062,758.3063,759.6121,return,0.5468,,85.15625,,,,,,FBP-YG-81.png,0.43,1.2,9,0.5,,,,,,,,,,,,,0,27,27,8,1,,,,,,,,,,,,,,,,,,,,,,,,,,,,
,,,,,V3_017,18,female,2024-10-17_13h27.54.799,jersey_experiment_5_v3,2023.2.2,Win32,84.74576271,,,,,,,,,,,,,,,,759.6126,760.9063,760.9063,762.7064,return,1.2401,,85.15625,,,,,,FBP-RB-19.png,0.43,1.2,59,0.5,,,,,,,,,,,,,0,28,28,58,1,,,,,,,,,,,,,,,,,,,,,,,,,,,,
,,,,,V3_017,18,female,2024-10-17_13h27.54.799,jersey_experiment_5_v3,2023.2.2,Win32,84.74576271,,,,,,,,,,,,,,,,762.7067,764.0004,764.0005,765.7535,return,0.6204,,80.46875,,,,,,FBP-PT-19.png,0.37,1.2,27,0.5,,,,,,,,,,,,,0,29,29,26,1,,,,,,,,,,,,,,,,,,,,,,,,,,,,
,,,,,V3_017,18,female,2024-10-17_13h27.54.799,jersey_experiment_5_v3,2023.2.2,Win32,84.74576271,,,,,,,,,,,,,,,,765.7539,767.0476,767.0476,768.5418,return,0.6272,,65.49479167,,,,,,FBP-YG-71.png,0.35,1.2,1,0.5,,,,,,,,,,,,,0,30,30,0,1,,,,,,,,,,,,,,,,,,,,,,,,,,,,
,,,,,V3_017,18,female,2024-10-17_13h27.54.799,jersey_experiment_5_v3,2023.2.2,Win32,84.74576271,,,,,,,,,,,,,,,,768.5422,769.8359,769.8359,773.6361,return,0.7169,,97.91666667,,,,,,FBP-RB-18.png,0.45,1.2,55,0.5,,,,,,,,,,,,,0,31,31,54,1,,,,,,,,,,,,,,,,,,,,,,,,,,,,
,,,,,V3_017,18,female,2024-10-17_13h27.54.799,jersey_experiment_5_v3,2023.2.2,Win32,84.74576271,,,,,,,,,,,,,,,,773.6364,774.9304,774.9305,778.3657,return,0.6031,,99.34895833,,,,,,FBP-PT-17.png,0.43,1.2,19,0.5,,,,,,,,,,,,,0,32,32,18,1,,,,,,,,,,,,,,,,,,,,,,,,,,,,
,,,,,V3_017,18,female,2024-10-17_13h27.54.799,jersey_experiment_5_v3,2023.2.2,Win32,84.74576271,,,,,,,,,,,,,,,,778.366,779.6599,779.66,781.3776,return,0.6352,,99.21875,,,,,,FBP-YG-71.png,0.43,1.2,4,0.5,,,,,,,,,,,,,0,33,33,3,1,,,,,,,,,,,,,,,,,,,,,,,,,,,,
,,,,,V3_017,18,female,2024-10-17_13h27.54.799,jersey_experiment_5_v3,2023.2.2,Win32,84.74576271,,,,,,,,,,,,,,,,781.3779,782.9307,782.9309,784.3307,return,0.5701,,92.83854167,,,,,,FBP-OG-17.png,0.45,1.2,35,0.75,,,,,,,,,,,,,0,34,34,34,1,,,,,,,,,,,,,,,,,,,,,,,,,,,,
,,,,,V3_017,18,female,2024-10-17_13h27.54.799,jersey_experiment_5_v3,2023.2.2,Win32,84.74576271,,,,,,,,,,,,,,,,784.331,785.6248,785.6249,787.3425,return,0.5436,,99.73958333,,,,,,FBP-RB-17.png,0.43,1.2,49,0.5,,,,,,,,,,,,,0,35,35,48,1,,,,,,,,,,,,,,,,,,,,,,,,,,,,
,,,,,V3_017,18,female,2024-10-17_13h27.54.799,jersey_experiment_5_v3,2023.2.2,Win32,84.74576271,,,,,,,,,,,,,,,,787.3428,788.8956,788.8957,790.9544,return,0.4644,,84.89583333,,,,,,FBP-OG-19.png,0.4,1.2,43,0.75,,,,,,,,,,,,,0,36,36,42,1,,,,,,,,,,,,,,,,,,,,,,,,,,,,
,,,,,V3_017,18,female,2024-10-17_13h27.54.799,jersey_experiment_5_v3,2023.2.2,Win32,84.74576271,,,,,,,,,,,,,,,,790.9548,792.5077,792.5077,794.5075,return,0.5476,,57.16145833,,,,,,FBP-OG-19.png,0.37,1.2,42,0.75,,,,,,,,,,,,,0,37,37,41,1,,,,,,,,,,,,,,,,,,,,,,,,,,,,
,,,,,V3_017,18,female,2024-10-17_13h27.54.799,jersey_experiment_5_v3,2023.2.2,Win32,84.74576271,,,,,,,,,,,,,,,,794.5079,795.8016,795.8017,797.3311,return,0.5649,,65.49479167,,,,,,FBP-PT-18.png,0.4,1.2,23,0.5,,,,,,,,,,,,,0,38,38,22,1,,,,,,,,,,,,,,,,,,,,,,,,,,,,
,,,,,V3_017,18,female,2024-10-17_13h27.54.799,jersey_experiment_5_v3,2023.2.2,Win32,84.74576271,,,,,,,,,,,,,,,,797.3314,798.6253,798.6253,799.8842,return,0.616,,68.88020833,,,,,,FBP-RB-18.png,0.37,1.2,52,0.5,,,,,,,,,,,,,0,39,39,51,1,,,,,,,,,,,,,,,,,,,,,,,,,,,,
,,,,,V3_017,18,female,2024-10-17_13h27.54.799,jersey_experiment_5_v3,2023.2.2,Win32,84.74576271,,,,,,,,,,,,,,,,799.8845,801.1783,801.1783,802.4136,return,0.579,,81.25,,,,,,FBP-RB-19.png,0.45,1.2,60,0.5,,,,,,,,,,,,,0,40,40,59,1,,,,,,,,,,,,,,,,,,,,,,,,,,,,
,,,,,V3_017,18,female,2024-10-17_13h27.54.799,jersey_experiment_5_v3,2023.2.2,Win32,84.74576271,,,,,,,,,,,,,,,,802.4139,803.7078,803.7079,804.7667,return,0.5779,,84.63541667,,,,,,FBP-PT-17.png,0.45,1.2,20,0.5,,,,,,,,,,,,,0,41,41,19,1,,,,,,,,,,,,,,,,,,,,,,,,,,,,
,,,,,V3_017,18,female,2024-10-17_13h27.54.799,jersey_experiment_5_v3,2023.2.2,Win32,84.74576271,,,,,,,,,,,,,,,,804.7671,806.0608,806.0608,807.7785,return,0.5981,,91.53645833,,,,,,FBP-YG-81.png,0.45,1.2,10,0.5,,,,,,,,,,,,,0,42,42,9,1,,,,,,,,,,,,,,,,,,,,,,,,,,,,
,,,,,V3_017,18,female,2024-10-17_13h27.54.799,jersey_experiment_5_v3,2023.2.2,Win32,84.74576271,,,,,,,,,,,,,,,,807.7788,809.0727,809.0728,811.3316,return,0.5647,,77.734375,,,,,,FBP-YG-81.png,0.4,1.2,8,0.5,,,,,,,,,,,,,0,43,43,7,1,,,,,,,,,,,,,,,,,,,,,,,,,,,,
,,,,,V3_017,18,female,2024-10-17_13h27.54.799,jersey_experiment_5_v3,2023.2.2,Win32,84.74576271,,,,,,,,,,,,,,,,811.3319,812.8848,812.8848,813.8376,return,0.6039,,81.38020833,,,,,,FBP-OG-18.png,0.43,1.2,39,0.75,,,,,,,,,,,,,0,44,44,38,1,,,,,,,,,,,,,,,,,,,,,,,,,,,,
,,,,,V3_017,18,female,2024-10-17_13h27.54.799,jersey_experiment_5_v3,2023.2.2,Win32,84.74576271,,,,,,,,,,,,,,,,813.8379,815.3909,815.3909,816.6968,return,0.5504,,89.58333333,,,,,,FBP-OG-18.png,0.45,1.2,40,0.75,,,,,,,,,,,,,0,45,45,39,1,,,,,,,,,,,,,,,,,,,,,,,,,,,,
,,,,,V3_017,18,female,2024-10-17_13h27.54.799,jersey_experiment_5_v3,2023.2.2,Win32,84.74576271,,,,,,,,,,,,,,,,816.6971,817.9909,817.991,819.6967,return,0.7791,,65.49479167,,,,,,FBP-RB-19.png,0.4,1.2,58,0.5,,,,,,,,,,,,,0,46,46,57,1,,,,,,,,,,,,,,,,,,,,,,,,,,,,
,,,,,V3_017,18,female,2024-10-17_13h27.54.799,jersey_experiment_5_v3,2023.2.2,Win32,84.74576271,,,,,,,,,,,,,,,,819.697,820.9908,820.9908,823.3207,return,0.5957,,52.99479167,,,,,,FBP-PT-17.png,0.35,1.2,16,0.5,,,,,,,,,,,,,0,47,47,15,1,,,,,,,,,,,,,,,,,,,,,,,,,,,,
,,,,,V3_017,18,female,2024-10-17_13h27.54.799,jersey_experiment_5_v3,2023.2.2,Win32,84.74576271,,,,,,,,,,,,,,,,823.3211,824.6144,824.6145,826.2734,return,0.5653,,68.359375,,,,,,FBP-PT-18.png,0.43,1.2,24,0.5,,,,,,,,,,,,,0,48,48,23,1,,,,,,,,,,,,,,,,,,,,,,,,,,,,
,,,,,V3_017,18,female,2024-10-17_13h27.54.799,jersey_experiment_5_v3,2023.2.2,Win32,84.74576271,,,,,,,,,,,,,,,,826.2739,827.5677,827.5677,829.3206,return,0.5849,,75.65104167,,,,,,FBP-YG-71.png,0.45,1.2,5,0.5,,,,,,,,,,,,,0,49,49,4,1,,,,,,,,,,,,,,,,,,,,,,,,,,,,
,,,,,V3_017,18,female,2024-10-17_13h27.54.799,jersey_experiment_5_v3,2023.2.2,Win32,84.74576271,,,,,,,,,,,,,,,,829.321,830.8737,830.8737,831.9324,return,0.6054,,67.05729167,,,,,,FBP-OG-18.png,0.37,1.2,37,0.75,,,,,,,,,,,,,0,50,50,36,1,,,,,,,,,,,,,,,,,,,,,,,,,,,,
,,,,,V3_017,18,female,2024-10-17_13h27.54.799,jersey_experiment_5_v3,2023.2.2,Win32,84.74576271,,,,,,,,,,,,,,,,831.9327,833.2266,833.2266,834.8149,return,0.5306,,93.359375,,,,,,FBP-PT-19.png,0.45,1.2,30,0.5,,,,,,,,,,,,,0,51,51,29,1,,,,,,,,,,,,,,,,,,,,,,,,,,,,
,,,,,V3_017,18,female,2024-10-17_13h27.54.799,jersey_experiment_5_v3,2023.2.2,Win32,84.74576271,,,,,,,,,,,,,,,,834.8153,836.1092,836.1093,837.5797,return,0.5227,,71.875,,,,,,FBP-PT-17.png,0.4,1.2,18,0.5,,,,,,,,,,,,,0,52,52,17,1,,,,,,,,,,,,,,,,,,,,,,,,,,,,
,,,,,V3_017,18,female,2024-10-17_13h27.54.799,jersey_experiment_5_v3,2023.2.2,Win32,84.74576271,,,,,,,,,,,,,,,,837.5799,839.1325,839.1326,840.2856,return,0.4735,,80.33854167,,,,,,FBP-OG-17.png,0.43,1.2,34,0.75,,,,,,,,,,,,,0,53,53,33,1,,,,,,,,,,,,,,,,,,,,,,,,,,,,
,,,,,V3_017,18,female,2024-10-17_13h27.54.799,jersey_experiment_5_v3,2023.2.2,Win32,84.74576271,,,,,,,,,,,,,,,,840.286,841.5798,841.5798,843.5798,return,0.9453,,58.46354167,,,,,,FBP-YG-71.png,0.37,1.2,2,0.5,,,,,,,,,,,,,0,54,54,1,1,,,,,,,,,,,,,,,,,,,,,,,,,,,,
,,,,,V3_017,18,female,2024-10-17_13h27.54.799,jersey_experiment_5_v3,2023.2.2,Win32,84.74576271,,,,,,,,,,,,,,,,843.5802,844.874,844.874,846.0036,return,0.4703,,60.80729167,,,,,,FBP-RB-19.png,0.37,1.2,57,0.5,,,,,,,,,,,,,0,55,55,56,1,,,,,,,,,,,,,,,,,,,,,,,,,,,,
,,,,,V3_017,18,female,2024-10-17_13h27.54.799,jersey_experiment_5_v3,2023.2.2,Win32,84.74576271,,,,,,,,,,,,,,,,846.0039,847.2977,847.2977,850.2389,return,0.9919,,45.18229167,,,,,,FBP-YG-81.png,0.35,1.2,6,0.5,,,,,,,,,,,,,0,56,56,5,1,,,,,,,,,,,,,,,,,,,,,,,,,,,,
,,,,,V3_017,18,female,2024-10-17_13h27.54.799,jersey_experiment_5_v3,2023.2.2,Win32,84.74576271,,,,,,,,,,,,,,,,850.2394,851.5331,851.5331,852.7215,return,0.5514,,42.83854167,,,,,,FBP-RB-17.png,0.35,1.2,46,0.5,,,,,,,,,,,,,0,57,57,45,1,,,,,,,,,,,,,,,,,,,,,,,,,,,,
,,,,,V3_017,18,female,2024-10-17_13h27.54.799,jersey_experiment_5_v3,2023.2.2,Win32,84.74576271,,,,,,,,,,,,,,,,852.7219,854.0155,854.0156,855.6627,return,0.544,,54.94791667,,,,,,FBP-PT-19.png,0.4,1.2,28,0.5,,,,,,,,,,,,,0,58,58,27,1,,,,,,,,,,,,,,,,,,,,,,,,,,,,
,,,,,V3_017,18,female,2024-10-17_13h27.54.799,jersey_experiment_5_v3,2023.2.2,Win32,84.74576271,,,,,,,,,,,,,,,,855.6631,856.957,856.9571,858.6392,return,0.5319,,79.55729167,,,,,,FBP-RB-17.png,0.4,1.2,48,0.5,,,,,,,,,,,,,0,59,59,47,1,,,,,,,,,,,,,,,,,,,,,,,,,,,,
,,,,,V3_017,18,female,2024-10-17_13h27.54.799,jersey_experiment_5_v3,2023.2.2,Win32,84.74576271,,,,,,,,,,,,,,,,858.641,860.1922,860.1922,861.5688,return,0.5647,,79.55729167,,,,,,FBP-OG-81.png,0.4,1.2,38,0.75,,,,,,,,,,,,,,,,,,0,0,0,37,1,,,,,,,,,,,,,,,,,,,,,,,
,,,,,V3_017,18,female,2024-10-17_13h27.54.799,jersey_experiment_5_v3,2023.2.2,Win32,84.74576271,,,,,,,,,,,,,,,,861.5691,863.122,863.122,864.2748,return,0.4707,,94.40104167,,,,,,FBP-OG-81.png,0.45,1.2,40,0.75,,,,,,,,,,,,,,,,,,0,1,1,39,1,,,,,,,,,,,,,,,,,,,,,,,
,,,,,V3_017,18,female,2024-10-17_13h27.54.799,jersey_experiment_5_v3,2023.2.2,Win32,84.74576271,,,,,,,,,,,,,,,,864.2752,865.569,865.5691,866.769,return,0.5283,,82.421875,,,,,,FBP-PT-81.png,0.4,1.2,23,0.5,,,,,,,,,,,,,,,,,,0,2,2,22,1,,,,,,,,,,,,,,,,,,,,,,,
,,,,,V3_017,18,female,2024-10-17_13h27.54.799,jersey_experiment_5_v3,2023.2.2,Win32,84.74576271,,,,,,,,,,,,,,,,866.7695,868.0632,868.0632,870.1102,return,1.4958,,93.48958333,,,,,,FBP-PT-81.png,0.45,1.2,25,0.5,,,,,,,,,,,,,,,,,,0,3,3,24,1,,,,,,,,,,,,,,,,,,,,,,,
,,,,,V3_017,18,female,2024-10-17_13h27.54.799,jersey_experiment_5_v3,2023.2.2,Win32,84.74576271,,,,,,,,,,,,,,,,870.1105,871.6633,871.6635,872.6045,return,0.4758,,93.359375,,,,,,FBP-OG-91.png,0.43,1.2,44,0.75,,,,,,,,,,,,,,,,,,0,4,4,43,1,,,,,,,,,,,,,,,,,,,,,,,
,,,,,V3_017,18,female,2024-10-17_13h27.54.799,jersey_experiment_5_v3,2023.2.2,Win32,84.74576271,,,,,,,,,,,,,,,,872.605,873.8986,873.8986,875.3576,return,0.6025,,69.79166667,,,,,,FBP-YG-18.png,0.37,1.2,7,0.5,,,,,,,,,,,,,,,,,,0,5,5,6,1,,,,,,,,,,,,,,,,,,,,,,,
,,,,,V3_017,18,female,2024-10-17_13h27.54.799,jersey_experiment_5_v3,2023.2.2,Win32,84.74576271,,,,,,,,,,,,,,,,875.3578,876.6517,876.6518,879.8989,return,2.5954,,64.453125,,,,,,FBP-RB-91.png,0.35,1.2,56,0.5,,,,,,,,,,,,,,,,,,0,6,6,55,1,,,,,,,,,,,,,,,,,,,,,,,
,,,,,V3_017,18,female,2024-10-17_13h27.54.799,jersey_experiment_5_v3,2023.2.2,Win32,84.74576271,,,,,,,,,,,,,,,,879.8992,881.1931,881.1931,882.7226,return,0.5183,,86.58854167,,,,,,FBP-YG-19.png,0.43,1.2,14,0.5,,,,,,,,,,,,,,,,,,0,7,7,13,1,,,,,,,,,,,,,,,,,,,,,,,
,,,,,V3_017,18,female,2024-10-17_13h27.54.799,jersey_experiment_5_v3,2023.2.2,Win32,84.74576271,,,,,,,,,,,,,,,,882.723,884.0165,884.0167,885.3462,return,0.5924,,67.1875,,,,,,FBP-RB-71.png,0.35,1.2,46,0.5,,,,,,,,,,,,,,,,,,0,8,8,45,1,,,,,,,,,,,,,,,,,,,,,,,
,,,,,V3_017,18,female,2024-10-17_13h27.54.799,jersey_experiment_5_v3,2023.2.2,Win32,84.74576271,,,,,,,,,,,,,,,,885.3465,886.6403,886.6404,887.9698,return,0.5413,,60.67708333,,,,,,FBP-PT-91.png,0.37,1.2,27,0.5,,,,,,,,,,,,,,,,,,0,9,9,26,1,,,,,,,,,,,,,,,,,,,,,,,
,,,,,V3_017,18,female,2024-10-17_13h27.54.799,jersey_experiment_5_v3,2023.2.2,Win32,84.74576271,,,,,,,,,,,,,,,,887.9702,889.2639,889.2639,891.17,return,0.5044,,83.59375,,,,,,FBP-PT-71.png,0.45,1.2,20,0.5,,,,,,,,,,,,,,,,,,0,10,10,19,1,,,,,,,,,,,,,,,,,,,,,,,
,,,,,V3_017,18,female,2024-10-17_13h27.54.799,jersey_experiment_5_v3,2023.2.2,Win32,84.74576271,,,,,,,,,,,,,,,,891.1702,892.7229,892.723,896.217,return,1.7379,,86.328125,,,,,,FBP-OG-91.png,0.37,1.2,42,0.75,,,,,,,,,,,,,,,,,,0,11,11,41,1,,,,,,,,,,,,,,,,,,,,,,,
,,,,,V3_017,18,female,2024-10-17_13h27.54.799,jersey_experiment_5_v3,2023.2.2,Win32,84.74576271,,,,,,,,,,,,,,,,896.2173,897.5113,897.5114,898.8643,return,0.5535,,68.22916667,,,,,,FBP-YG-19.png,0.37,1.2,12,0.5,,,,,,,,,,,,,,,,,,0,12,12,11,1,,,,,,,,,,,,,,,,,,,,,,,
,,,,,V3_017,18,female,2024-10-17_13h27.54.799,jersey_experiment_5_v3,2023.2.2,Win32,84.74576271,,,,,,,,,,,,,,,,898.8646,900.1585,900.1585,901.9233,return,0.5882,,91.015625,,,,,,FBP-YG-19.png,0.45,1.2,15,0.5,,,,,,,,,,,,,,,,,,0,13,13,14,1,,,,,,,,,,,,,,,,,,,,,,,
,,,,,V3_017,18,female,2024-10-17_13h27.54.799,jersey_experiment_5_v3,2023.2.2,Win32,84.74576271,,,,,,,,,,,,,,,,901.9236,903.2173,903.2174,906.2411,return,0.565,,74.47916667,,,,,,FBP-PT-71.png,0.35,1.2,16,0.5,,,,,,,,,,,,,,,,,,0,14,14,15,1,,,,,,,,,,,,,,,,,,,,,,,
,,,,,V3_017,18,female,2024-10-17_13h27.54.799,jersey_experiment_5_v3,2023.2.2,Win32,84.74576271,,,,,,,,,,,,,,,,906.2415,907.5351,907.5352,909.0176,return,0.5613,,88.80208333,,,,,,FBP-YG-18.png,0.43,1.2,9,0.5,,,,,,,,,,,,,,,,,,0,15,15,8,1,,,,,,,,,,,,,,,,,,,,,,,
,,,,,V3_017,18,female,2024-10-17_13h27.54.799,jersey_experiment_5_v3,2023.2.2,Win32,84.74576271,,,,,,,,,,,,,,,,909.018,910.3117,910.3117,911.7235,return,0.5691,,83.07291667,,,,,,FBP-RB-81.png,0.4,1.2,53,0.5,,,,,,,,,,,,,,,,,,0,16,16,52,1,,,,,,,,,,,,,,,,,,,,,,,
,,,,,V3_017,18,female,2024-10-17_13h27.54.799,jersey_experiment_5_v3,2023.2.2,Win32,84.74576271,,,,,,,,,,,,,,,,911.7239,913.2766,913.2766,914.5942,return,0.5917,,90.234375,,,,,,FBP-OG-71.png,0.43,1.2,34,0.75,,,,,,,,,,,,,,,,,,0,17,17,33,1,,,,,,,,,,,,,,,,,,,,,,,
,,,,,V3_017,18,female,2024-10-17_13h27.54.799,jersey_experiment_5_v3,2023.2.2,Win32,84.74576271,,,,,,,,,,,,,,,,914.5945,916.1472,916.1474,917.3943,return,0.6257,,87.76041667,,,,,,FBP-OG-81.png,0.37,1.2,37,0.75,,,,,,,,,,,,,,,,,,0,18,18,36,1,,,,,,,,,,,,,,,,,,,,,,,
,,,,,V3_017,18,female,2024-10-17_13h27.54.799,jersey_experiment_5_v3,2023.2.2,Win32,84.74576271,,,,,,,,,,,,,,,,917.3946,918.6885,918.6885,920.2416,return,0.6128,,86.328125,,,,,,FBP-YG-17.png,0.43,1.2,4,0.5,,,,,,,,,,,,,,,,,,0,19,19,3,1,,,,,,,,,,,,,,,,,,,,,,,
,,,,,V3_017,18,female,2024-10-17_13h27.54.799,jersey_experiment_5_v3,2023.2.2,Win32,84.74576271,,,,,,,,,,,,,,,,920.242,921.5357,921.5358,922.6887,return,0.5654,,86.328125,,,,,,FBP-RB-81.png,0.35,1.2,51,0.5,,,,,,,,,,,,,,,,,,0,20,20,50,1,,,,,,,,,,,,,,,,,,,,,,,
,,,,,V3_017,18,female,2024-10-17_13h27.54.799,jersey_experiment_5_v3,2023.2.2,Win32,84.74576271,,,,,,,,,,,,,,,,922.689,923.9828,923.9829,925.2653,return,0.5651,,69.53125,,,,,,FBP-PT-81.png,0.37,1.2,22,0.5,,,,,,,,,,,,,,,,,,0,21,21,21,1,,,,,,,,,,,,,,,,,,,,,,,
,,,,,V3_017,18,female,2024-10-17_13h27.54.799,jersey_experiment_5_v3,2023.2.2,Win32,84.74576271,,,,,,,,,,,,,,,,925.2656,926.5593,926.5594,928.1241,return,0.5821,,83.72395833,,,,,,FBP-RB-91.png,0.4,1.2,58,0.5,,,,,,,,,,,,,,,,,,0,22,22,57,1,,,,,,,,,,,,,,,,,,,,,,,
,,,,,V3_017,18,female,2024-10-17_13h27.54.799,jersey_experiment_5_v3,2023.2.2,Win32,84.74576271,,,,,,,,,,,,,,,,928.1244,929.4184,929.4184,930.6538,return,0.5689,,90.10416667,,,,,,FBP-RB-81.png,0.45,1.2,55,0.5,,,,,,,,,,,,,,,,,,0,23,23,54,1,,,,,,,,,,,,,,,,,,,,,,,
,,,,,V3_017,18,female,2024-10-17_13h27.54.799,jersey_experiment_5_v3,2023.2.2,Win32,84.74576271,,,,,,,,,,,,,,,,930.6541,931.9483,931.9483,933.6891,return,1.1384,,91.27604167,,,,,,FBP-YG-18.png,0.45,1.2,10,0.5,,,,,,,,,,,,,,,,,,0,24,24,9,1,,,,,,,,,,,,,,,,,,,,,,,
,,,,,V3_017,18,female,2024-10-17_13h27.54.799,jersey_experiment_5_v3,2023.2.2,Win32,84.74576271,,,,,,,,,,,,,,,,933.6896,934.9834,934.9835,937.2775,return,0.6142,,71.09375,,,,,,FBP-YG-19.png,0.35,1.2,11,0.5,,,,,,,,,,,,,,,,,,0,25,25,10,1,,,,,,,,,,,,,,,,,,,,,,,
,,,,,V3_017,18,female,2024-10-17_13h27.54.799,jersey_experiment_5_v3,2023.2.2,Win32,84.74576271,,,,,,,,,,,,,,,,937.2778,938.5718,938.5718,939.6775,return,0.5414,,68.22916667,,,,,,FBP-RB-91.png,0.37,1.2,57,0.5,,,,,,,,,,,,,,,,,,0,26,26,56,1,,,,,,,,,,,,,,,,,,,,,,,
,,,,,V3_017,18,female,2024-10-17_13h27.54.799,jersey_experiment_5_v3,2023.2.2,Win32,84.74576271,,,,,,,,,,,,,,,,939.6778,940.9717,940.9718,942.2188,return,0.5937,,64.71354167,,,,,,FBP-YG-17.png,0.37,1.2,2,0.5,,,,,,,,,,,,,,,,,,0,27,27,1,1,,,,,,,,,,,,,,,,,,,,,,,
,,,,,V3_017,18,female,2024-10-17_13h27.54.799,jersey_experiment_5_v3,2023.2.2,Win32,84.74576271,,,,,,,,,,,,,,,,942.2191,943.513,943.513,945.1953,return,0.5711,,90.10416667,,,,,,FBP-RB-91.png,0.45,1.2,60,0.5,,,,,,,,,,,,,,,,,,0,28,28,59,1,,,,,,,,,,,,,,,,,,,,,,,
,,,,,V3_017,18,female,2024-10-17_13h27.54.799,jersey_experiment_5_v3,2023.2.2,Win32,84.74576271,,,,,,,,,,,,,,,,945.1956,946.7482,946.7483,948.1603,return,0.5429,,78.38541667,,,,,,FBP-OG-71.png,0.4,1.2,33,0.75,,,,,,,,,,,,,,,,,,0,29,29,32,1,,,,,,,,,,,,,,,,,,,,,,,
,,,,,V3_017,18,female,2024-10-17_13h27.54.799,jersey_experiment_5_v3,2023.2.2,Win32,84.74576271,,,,,,,,,,,,,,,,948.1606,949.4544,949.4544,951.2427,return,0.807,,84.50520833,,,,,,FBP-PT-71.png,0.4,1.2,18,0.5,,,,,,,,,,,,,,,,,,0,30,30,17,1,,,,,,,,,,,,,,,,,,,,,,,
,,,,,V3_017,18,female,2024-10-17_13h27.54.799,jersey_experiment_5_v3,2023.2.2,Win32,84.74576271,,,,,,,,,,,,,,,,951.2432,952.5368,952.5369,953.9016,return,0.556,,95.703125,,,,,,FBP-RB-71.png,0.45,1.2,50,0.5,,,,,,,,,,,,,,,,,,0,31,31,49,1,,,,,,,,,,,,,,,,,,,,,,,
,,,,,V3_017,18,female,2024-10-17_13h27.54.799,jersey_experiment_5_v3,2023.2.2,Win32,84.74576271,,,,,,,,,,,,,,,,953.9019,955.1958,955.1958,959.6665,return,2.8341,,45.05208333,,,,,,FBP-PT-81.png,0.35,1.2,21,0.5,,,,,,,,,,,,,,,,,,0,32,32,20,1,,,,,,,,,,,,,,,,,,,,,,,
,,,,,V3_017,18,female,2024-10-17_13h27.54.799,jersey_experiment_5_v3,2023.2.2,Win32,84.74576271,,,,,,,,,,,,,,,,959.6669,960.9605,960.9605,962.4195,return,0.5417,,68.75,,,,,,FBP-YG-17.png,0.4,1.2,3,0.5,,,,,,,,,,,,,,,,,,0,33,33,2,1,,,,,,,,,,,,,,,,,,,,,,,
,,,,,V3_017,18,female,2024-10-17_13h27.54.799,jersey_experiment_5_v3,2023.2.2,Win32,84.74576271,,,,,,,,,,,,,,,,962.4198,963.9725,963.9726,964.8902,return,0.5587,,71.09375,,,,,,FBP-OG-91.png,0.4,1.2,43,0.75,,,,,,,,,,,,,,,,,,0,34,34,42,1,,,,,,,,,,,,,,,,,,,,,,,
,,,,,V3_017,18,female,2024-10-17_13h27.54.799,jersey_experiment_5_v3,2023.2.2,Win32,84.74576271,,,,,,,,,,,,,,,,964.8906,966.1844,966.1845,969.385,return,2.2552,,48.95833333,,,,,,FBP-PT-91.png,0.35,1.2,26,0.5,,,,,,,,,,,,,,,,,,0,35,35,25,1,,,,,,,,,,,,,,,,,,,,,,,
,,,,,V3_017,18,female,2024-10-17_13h27.54.799,jersey_experiment_5_v3,2023.2.2,Win32,84.74576271,,,,,,,,,,,,,,,,969.3854,970.6787,970.6787,972.067,return,0.5989,,61.84895833,,,,,,FBP-RB-71.png,0.4,1.2,48,0.5,,,,,,,,,,,,,,,,,,0,36,36,47,1,,,,,,,,,,,,,,,,,,,,,,,
,,,,,V3_017,18,female,2024-10-17_13h27.54.799,jersey_experiment_5_v3,2023.2.2,Win32,84.74576271,,,,,,,,,,,,,,,,972.0675,973.62,973.62,974.7023,return,0.5777,,61.84895833,,,,,,FBP-OG-81.png,0.35,1.2,36,0.75,,,,,,,,,,,,,,,,,,0,37,37,35,1,,,,,,,,,,,,,,,,,,,,,,,
,,,,,V3_017,18,female,2024-10-17_13h27.54.799,jersey_experiment_5_v3,2023.2.2,Win32,84.74576271,,,,,,,,,,,,,,,,974.7026,976.2552,976.2553,983.8085,return,2.8819,,86.328125,,,,,,FBP-OG-91.png,0.45,1.2,45,0.75,,,,,,,,,,,,,,,,,,0,38,38,44,1,,,,,,,,,,,,,,,,,,,,,,,
,,,,,V3_017,18,female,2024-10-17_13h27.54.799,jersey_experiment_5_v3,2023.2.2,Win32,84.74576271,,,,,,,,,,,,,,,,983.809,985.3617,985.3618,987.2441,return,0.5235,,55.20833333,,,,,,FBP-OG-71.png,0.35,1.2,31,0.75,,,,,,,,,,,,,,,,,,0,39,39,30,1,,,,,,,,,,,,,,,,,,,,,,,
,,,,,V3_017,18,female,2024-10-17_13h27.54.799,jersey_experiment_5_v3,2023.2.2,Win32,84.74576271,,,,,,,,,,,,,,,,987.2444,988.7971,988.7972,989.9973,return,0.5558,,95.703125,,,,,,FBP-OG-71.png,0.45,1.2,35,0.75,,,,,,,,,,,,,,,,,,0,40,40,34,1,,,,,,,,,,,,,,,,,,,,,,,
,,,,,V3_017,18,female,2024-10-17_13h27.54.799,jersey_experiment_5_v3,2023.2.2,Win32,84.74576271,,,,,,,,,,,,,,,,989.9977,991.2912,991.2913,992.2329,return,0.5507,,95.703125,,,,,,FBP-PT-91.png,0.45,1.2,30,0.5,,,,,,,,,,,,,,,,,,0,41,41,29,1,,,,,,,,,,,,,,,,,,,,,,,
,,,,,V3_017,18,female,2024-10-17_13h27.54.799,jersey_experiment_5_v3,2023.2.2,Win32,84.74576271,,,,,,,,,,,,,,,,992.2333,993.5266,993.5266,994.6207,return,0.5344,,95.703125,,,,,,FBP-PT-91.png,0.43,1.2,29,0.5,,,,,,,,,,,,,,,,,,0,42,42,28,1,,,,,,,,,,,,,,,,,,,,,,,
,,,,,V3_017,18,female,2024-10-17_13h27.54.799,jersey_experiment_5_v3,2023.2.2,Win32,84.74576271,,,,,,,,,,,,,,,,994.6211,995.9147,995.9149,998.3856,return,0.5863,,57.55208333,,,,,,FBP-YG-17.png,0.35,1.2,1,0.5,,,,,,,,,,,,,,,,,,0,43,43,0,1,,,,,,,,,,,,,,,,,,,,,,,
,,,,,V3_017,18,female,2024-10-17_13h27.54.799,jersey_experiment_5_v3,2023.2.2,Win32,84.74576271,,,,,,,,,,,,,,,,998.3858,999.6798,999.6798,1001.421,return,0.5577,,72.52604167,,,,,,FBP-RB-71.png,0.43,1.2,49,0.5,,,,,,,,,,,,,,,,,,0,44,44,48,1,,,,,,,,,,,,,,,,,,,,,,,
,,,,,V3_017,18,female,2024-10-17_13h27.54.799,jersey_experiment_5_v3,2023.2.2,Win32,84.74576271,,,,,,,,,,,,,,,,1001.4213,1002.7152,1002.7152,1003.9034,return,0.5434,,65.75520833,,,,,,FBP-RB-71.png,0.37,1.2,47,0.5,,,,,,,,,,,,,,,,,,0,45,45,46,1,,,,,,,,,,,,,,,,,,,,,,,
,,,,,V3_017,18,female,2024-10-17_13h27.54.799,jersey_experiment_5_v3,2023.2.2,Win32,84.74576271,,,,,,,,,,,,,,,,1003.9037,1005.4563,1005.4564,1006.4094,return,0.5243,,62.36979167,,,,,,FBP-OG-91.png,0.35,1.2,41,0.75,,,,,,,,,,,,,,,,,,0,46,46,40,1,,,,,,,,,,,,,,,,,,,,,,,
,,,,,V3_017,18,female,2024-10-17_13h27.54.799,jersey_experiment_5_v3,2023.2.2,Win32,84.74576271,,,,,,,,,,,,,,,,1006.4097,1007.7036,1007.7036,1009.586,return,0.6962,,79.42708333,,,,,,FBP-PT-71.png,0.43,1.2,19,0.5,,,,,,,,,,,,,,,,,,0,47,47,18,1,,,,,,,,,,,,,,,,,,,,,,,
,,,,,V3_017,18,female,2024-10-17_13h27.54.799,jersey_experiment_5_v3,2023.2.2,Win32,84.74576271,,,,,,,,,,,,,,,,1009.5863,1010.8802,1010.8803,1011.8684,return,0.5345,,79.6875,,,,,,FBP-PT-71.png,0.37,1.2,17,0.5,,,,,,,,,,,,,,,,,,0,48,48,16,1,,,,,,,,,,,,,,,,,,,,,,,
,,,,,V3_017,18,female,2024-10-17_13h27.54.799,jersey_experiment_5_v3,2023.2.2,Win32,84.74576271,,,,,,,,,,,,,,,,1011.8686,1013.1625,1013.1626,1014.445,return,0.5563,,85.15625,,,,,,FBP-RB-91.png,0.43,1.2,59,0.5,,,,,,,,,,,,,,,,,,0,49,49,58,1,,,,,,,,,,,,,,,,,,,,,,,
,,,,,V3_017,18,female,2024-10-17_13h27.54.799,jersey_experiment_5_v3,2023.2.2,Win32,84.74576271,,,,,,,,,,,,,,,,1014.4453,1015.7392,1015.7392,1016.8098,return,0.6081,,84.375,,,,,,FBP-PT-81.png,0.43,1.2,24,0.5,,,,,,,,,,,,,,,,,,0,50,50,23,1,,,,,,,,,,,,,,,,,,,,,,,
,,,,,V3_017,18,female,2024-10-17_13h27.54.799,jersey_experiment_5_v3,2023.2.2,Win32,84.74576271,,,,,,,,,,,,,,,,1016.81,1018.1041,1018.1041,1022.3629,return,0.489,,44.921875,,,,,,FBP-YG-18.png,0.35,1.2,6,0.5,,,,,,,,,,,,,,,,,,0,51,51,5,1,,,,,,,,,,,,,,,,,,,,,,,
,,,,,V3_017,18,female,2024-10-17_13h27.54.799,jersey_experiment_5_v3,2023.2.2,Win32,84.74576271,,,,,,,,,,,,,,,,1022.3632,1023.6571,1023.6571,1025.0572,return,0.528,,80.20833333,,,,,,FBP-YG-17.png,0.45,1.2,5,0.5,,,,,,,,,,,,,,,,,,0,52,52,4,1,,,,,,,,,,,,,,,,,,,,,,,
,,,,,V3_017,18,female,2024-10-17_13h27.54.799,jersey_experiment_5_v3,2023.2.2,Win32,84.74576271,,,,,,,,,,,,,,,,1025.0577,1026.3513,1026.3514,1029.6102,return,2.4662,,66.92708333,,,,,,FBP-YG-18.png,0.4,1.2,8,0.5,,,,,,,,,,,,,,,,,,0,53,53,7,1,,,,,,,,,,,,,,,,,,,,,,,
,,,,,V3_017,18,female,2024-10-17_13h27.54.799,jersey_experiment_5_v3,2023.2.2,Win32,84.74576271,,,,,,,,,,,,,,,,1029.6106,1030.9044,1030.9045,1032.8456,return,1.157,,84.11458333,,,,,,FBP-RB-81.png,0.43,1.2,54,0.5,,,,,,,,,,,,,,,,,,0,54,54,53,1,,,,,,,,,,,,,,,,,,,,,,,
,,,,,V3_017,18,female,2024-10-17_13h27.54.799,jersey_experiment_5_v3,2023.2.2,Win32,84.74576271,,,,,,,,,,,,,,,,1032.846,1034.3987,1034.3987,1035.8812,return,0.7147,,39.0625,,,,,,FBP-OG-71.png,0.37,1.2,32,0.75,,,,,,,,,,,,,,,,,,0,55,55,31,1,,,,,,,,,,,,,,,,,,,,,,,
,,,,,V3_017,18,female,2024-10-17_13h27.54.799,jersey_experiment_5_v3,2023.2.2,Win32,84.74576271,,,,,,,,,,,,,,,,1035.8815,1037.434,1037.4341,1040.4812,return,2.4003,,60.41666667,,,,,,FBP-OG-81.png,0.43,1.2,39,0.75,,,,,,,,,,,,,,,,,,0,56,56,38,1,,,,,,,,,,,,,,,,,,,,,,,
,,,,,V3_017,18,female,2024-10-17_13h27.54.799,jersey_experiment_5_v3,2023.2.2,Win32,84.74576271,,,,,,,,,,,,,,,,1040.4815,1041.7753,1041.7754,1042.9637,return,0.565,,58.59375,,,,,,FBP-PT-91.png,0.4,1.2,28,0.5,,,,,,,,,,,,,,,,,,0,57,57,27,1,,,,,,,,,,,,,,,,,,,,,,,
,,,,,V3_017,18,female,2024-10-17_13h27.54.799,jersey_experiment_5_v3,2023.2.2,Win32,84.74576271,,,,,,,,,,,,,,,,1042.964,1044.2579,1044.258,1045.152,return,0.5194,,58.59375,,,,,,FBP-YG-19.png,0.4,1.2,13,0.5,,,,,,,,,,,,,,,,,,0,58,58,12,1,,,,,,,,,,,,,,,,,,,,,,,
,,,,,V3_017,18,female,2024-10-17_13h27.54.799,jersey_experiment_5_v3,2023.2.2,Win32,84.74576271,,,,,,,,,,,,,,,,1045.1524,1046.4462,1046.4462,1048.1049,return,0.5253,,45.96354167,,,,,,FBP-RB-81.png,0.37,1.2,52,0.5,,,,,,,,,,,,,,,,,,0,59,59,51,1,,,,,,,,,,,,,,,,,,,,,,,
,,,,,V3_017,18,female,2024-10-17_13h27.54.799,jersey_experiment_5_v3,2023.2.2,Win32,84.74576271,,,,,,,,,,,,,,,,,,,,,,,,,,,,,,,,,,,,,,,,,,,,,,,,,,,,,,,,1048.1052,1055.0234,return,6.9071,,,,,,,,,,,,,,,,,,,
,,,,,V3_017,18,female,2024-10-17_13h27.54.799,jersey_experiment_5_v3,2023.2.2,Win32,84.74576271,,,,,,,,,,,,,,,,,,,,,,,,,,,,,,,,,,,,,,,,,,,,,,,,,,,,,,,,,,,,,1055.0236,1060.3531,1,4.1368,return,1.1758,,,,,,,,,,,,
,,,,,V3_017,18,female,2024-10-17_13h27.54.799,jersey_experiment_5_v3,2023.2.2,Win32,84.74576271,,,,,,,,,,,,,,,,,,,,,,,,,,,,,,,,,,,,,,,,,,,,,,,,,,,,,,,,,,,,,,,,,,,,1060.3533,1166.0512,No I do not know what the study is about. I believe that some of the football players' body types repeated but the football players had different skin colors or clothing colors even with the same body type so perhaps the study is about color and its effect on body type perception.,right,100.2836,,,,,,
,,,,,V3_017,18,female,2024-10-17_13h27.54.799,jersey_experiment_5_v3,2023.2.2,Win32,84.74576271,,,,,,,,,,,,,,,,,,,,,,,,,,,,,,,,,,,,,,,,,,,,,,,,,,,,,,,,,,,,,,,,,,,,,,,,,,1166.0514,1176.7219,return,10.6578,