requirements.started,requirements.stopped,key_resp_3.keys,key_resp_3.rt,key_resp_3.duration,Subject ID,Age,Gender,date,expName,psychopyVersion,OS,frameRate,instructions1.started,instructions1.stopped,key_resp.keys,key_resp.rt,key_resp.duration,example.started,example.stopped,enter_2.keys,enter_2.rt,enter_2.duration,instructions2.started,instructions2.stopped,enter_3.keys,enter_3.rt,enter_3.duration,image.started,image.stopped,slider_2.started,slider_2.stopped,next.keys,next.rt,next.duration,slider.response,trial_block_1.thisRepN,trial_block_1.thisTrialN,trial_block_1.thisN,trial_block_1.thisIndex,trial_block_1.ran,Path,Width,Height,Index,Duration,trial_block_2.thisRepN,trial_block_2.thisTrialN,trial_block_2.thisN,trial_block_2.thisIndex,trial_block_2.ran,rest_break.started,rest_break.stopped,end_break.started,end_break.stopped,key_resp_5.keys,key_resp_5.rt,key_resp_5.duration,trial_block_3.thisRepN,trial_block_3.thisTrialN,trial_block_3.thisN,trial_block_3.thisIndex,trial_block_3.ran,trial_block_4.thisRepN,trial_block_4.thisTrialN,trial_block_4.thisN,trial_block_4.thisIndex,trial_block_4.ran,questions_intro.started,questions_intro.stopped,enter_12.keys,enter_12.rt,enter_12.duration,question2.started,question2.stopped,question_doingbest.response,question_doingbest.rt,enter_15.keys,enter_15.rt,enter_15.duration,pattern.started,pattern.stopped,pattern_2.text,enter_17.keys,enter_17.rt,enter_17.duration,thankyou.started,thankyou.stopped,enter_14.keys,enter_14.rt,enter_14.duration
1E-04,13.8177,return,13.8096,,V3_044,18,Male,2024-11-01_17h34.35.559,jersey_experiment_5_v3,2023.2.2,Win32,84.74576271,,,,,,,,,,,,,,,,,,,,,,,,,,,,,,,,,,,,,,,,,,,,,,,,,,,,,,,,,,,,,,,,,,,,,,,,,,,,,,
,,,,,V3_044,18,Male,2024-11-01_17h34.35.559,jersey_experiment_5_v3,2023.2.2,Win32,84.74576271,13.8179,24.6331,return,10.8006,,,,,,,,,,,,,,,,,,,,,,,,,,,,,,,,,,,,,,,,,,,,,,,,,,,,,,,,,,,,,,,,,,,,,,,,,,
,,,,,V3_044,18,Male,2024-11-01_17h34.35.559,jersey_experiment_5_v3,2023.2.2,Win32,84.74576271,,,,,,24.6332,32.3005,return,7.6241,,,,,,,,,,,,,,,,,,,,,,,,,,,,,,,,,,,,,,,,,,,,,,,,,,,,,,,,,,,,,,,,,,,,,
,,,,,V3_044,18,Male,2024-11-01_17h34.35.559,jersey_experiment_5_v3,2023.2.2,Win32,84.74576271,,,,,,,,,,,32.3006,59.5252,return,27.2204,,,,,,,,,,,,,,,,,,,,,,,,,,,,,,,,,,,,,,,,,,,,,,,,,,,,,,,,,,,,,,,,
,,,,,V3_044,18,Male,2024-11-01_17h34.35.559,jersey_experiment_5_v3,2023.2.2,Win32,84.74576271,,,,,,,,,,,,,,,,59.5277,61.078,61.078,66.6783,return,1.9252,,74.47916667,0,0,0,13,1,FBP-YG-91.png,0.43,1.2,14,0.75,,,,,,,,,,,,,,,,,,,,,,,,,,,,,,,,,,,,,,,,,,,,,
,,,,,V3_044,18,Male,2024-11-01_17h34.35.559,jersey_experiment_5_v3,2023.2.2,Win32,84.74576271,,,,,,,,,,,,,,,,66.6786,67.9724,67.9725,70.6784,return,0.7484,,25.78125,0,1,1,36,1,FBP-OG-18.png,0.37,1.2,37,0.5,,,,,,,,,,,,,,,,,,,,,,,,,,,,,,,,,,,,,,,,,,,,,
,,,,,V3_044,18,Male,2024-11-01_17h34.35.559,jersey_experiment_5_v3,2023.2.2,Win32,84.74576271,,,,,,,,,,,,,,,,70.6788,72.2313,72.2314,79.5493,return,0.5876,,63.28125,0,2,2,8,1,FBP-YG-81.png,0.43,1.2,9,0.75,,,,,,,,,,,,,,,,,,,,,,,,,,,,,,,,,,,,,,,,,,,,,
,,,,,V3_044,18,Male,2024-11-01_17h34.35.559,jersey_experiment_5_v3,2023.2.2,Win32,84.74576271,,,,,,,,,,,,,,,,79.5496,80.8435,80.8435,83.8201,return,0.6373,,25.52083333,0,3,3,40,1,FBP-OG-19.png,0.35,1.2,41,0.5,,,,,,,,,,,,,,,,,,,,,,,,,,,,,,,,,,,,,,,,,,,,,
,,,,,V3_044,18,Male,2024-11-01_17h34.35.559,jersey_experiment_5_v3,2023.2.2,Win32,84.74576271,,,,,,,,,,,,,,,,83.8203,85.373,85.3731,89.0791,return,0.4982,,88.80208333,0,4,4,55,1,FBP-RB-19.png,0.35,1.2,56,0.75,,,,,,,,,,,,,,,,,,,,,,,,,,,,,,,,,,,,,,,,,,,,,
,,,,,V3_044,18,Male,2024-11-01_17h34.35.559,jersey_experiment_5_v3,2023.2.2,Win32,84.74576271,,,,,,,,,,,,,,,,89.0794,90.6321,90.6321,93.291,return,0.611,,69.921875,0,5,5,27,1,FBP-PT-19.png,0.4,1.2,28,0.75,,,,,,,,,,,,,,,,,,,,,,,,,,,,,,,,,,,,,,,,,,,,,
,,,,,V3_044,18,Male,2024-11-01_17h34.35.559,jersey_experiment_5_v3,2023.2.2,Win32,84.74576271,,,,,,,,,,,,,,,,93.2913,94.844,94.844,103.2089,return,1.895,,61.45833333,0,6,6,10,1,FBP-YG-91.png,0.35,1.2,11,0.75,,,,,,,,,,,,,,,,,,,,,,,,,,,,,,,,,,,,,,,,,,,,,
,,,,,V3_044,18,Male,2024-11-01_17h34.35.559,jersey_experiment_5_v3,2023.2.2,Win32,84.74576271,,,,,,,,,,,,,,,,103.2094,104.5031,104.5031,107.0562,return,0.6146,,35.15625,0,7,7,35,1,FBP-OG-18.png,0.35,1.2,36,0.5,,,,,,,,,,,,,,,,,,,,,,,,,,,,,,,,,,,,,,,,,,,,,
,,,,,V3_044,18,Male,2024-11-01_17h34.35.559,jersey_experiment_5_v3,2023.2.2,Win32,84.74576271,,,,,,,,,,,,,,,,107.0565,108.6092,108.6092,110.4916,return,0.4026,,98.4375,0,8,8,14,1,FBP-YG-91.png,0.45,1.2,15,0.75,,,,,,,,,,,,,,,,,,,,,,,,,,,,,,,,,,,,,,,,,,,,,
,,,,,V3_044,18,Male,2024-11-01_17h34.35.559,jersey_experiment_5_v3,2023.2.2,Win32,84.74576271,,,,,,,,,,,,,,,,110.4919,112.0446,112.0447,115.08,return,0.3559,,74.86979167,0,9,9,7,1,FBP-YG-81.png,0.4,1.2,8,0.75,,,,,,,,,,,,,,,,,,,,,,,,,,,,,,,,,,,,,,,,,,,,,
,,,,,V3_044,18,Male,2024-11-01_17h34.35.559,jersey_experiment_5_v3,2023.2.2,Win32,84.74576271,,,,,,,,,,,,,,,,115.0802,116.633,116.6331,120.6448,return,0.4405,,45.05208333,0,10,10,17,1,FBP-PT-17.png,0.4,1.2,18,0.75,,,,,,,,,,,,,,,,,,,,,,,,,,,,,,,,,,,,,,,,,,,,,
,,,,,V3_044,18,Male,2024-11-01_17h34.35.559,jersey_experiment_5_v3,2023.2.2,Win32,84.74576271,,,,,,,,,,,,,,,,120.6451,122.1979,122.1979,125.2922,return,0.4387,,71.61458333,0,11,11,47,1,FBP-RB-17.png,0.4,1.2,48,0.75,,,,,,,,,,,,,,,,,,,,,,,,,,,,,,,,,,,,,,,,,,,,,
,,,,,V3_044,18,Male,2024-11-01_17h34.35.559,jersey_experiment_5_v3,2023.2.2,Win32,84.74576271,,,,,,,,,,,,,,,,125.2924,126.8451,126.8451,128.6217,return,0.5024,,71.61458333,0,12,12,52,1,FBP-RB-18.png,0.4,1.2,53,0.75,,,,,,,,,,,,,,,,,,,,,,,,,,,,,,,,,,,,,,,,,,,,,
,,,,,V3_044,18,Male,2024-11-01_17h34.35.559,jersey_experiment_5_v3,2023.2.2,Win32,84.74576271,,,,,,,,,,,,,,,,128.6219,130.1745,130.1746,134.6454,return,0.4864,,71.61458333,0,13,13,19,1,FBP-PT-17.png,0.45,1.2,20,0.75,,,,,,,,,,,,,,,,,,,,,,,,,,,,,,,,,,,,,,,,,,,,,
,,,,,V3_044,18,Male,2024-11-01_17h34.35.559,jersey_experiment_5_v3,2023.2.2,Win32,84.74576271,,,,,,,,,,,,,,,,134.6456,136.1985,136.1986,139.128,return,0.4644,,79.81770833,0,14,14,58,1,FBP-RB-19.png,0.43,1.2,59,0.75,,,,,,,,,,,,,,,,,,,,,,,,,,,,,,,,,,,,,,,,,,,,,
,,,,,V3_044,18,Male,2024-11-01_17h34.35.559,jersey_experiment_5_v3,2023.2.2,Win32,84.74576271,,,,,,,,,,,,,,,,139.1282,140.681,140.6811,143.3398,return,0.3453,,86.06770833,0,15,15,4,1,FBP-YG-71.png,0.45,1.2,5,0.75,,,,,,,,,,,,,,,,,,,,,,,,,,,,,,,,,,,,,,,,,,,,,
,,,,,V3_044,18,Male,2024-11-01_17h34.35.559,jersey_experiment_5_v3,2023.2.2,Win32,84.74576271,,,,,,,,,,,,,,,,143.3401,144.8928,144.8929,148.2694,return,0.3849,,63.80208333,0,16,16,23,1,FBP-PT-18.png,0.43,1.2,24,0.75,,,,,,,,,,,,,,,,,,,,,,,,,,,,,,,,,,,,,,,,,,,,,
,,,,,V3_044,18,Male,2024-11-01_17h34.35.559,jersey_experiment_5_v3,2023.2.2,Win32,84.74576271,,,,,,,,,,,,,,,,148.2696,149.8227,149.8227,152.9401,return,0.745,,79.42708333,0,17,17,59,1,FBP-RB-19.png,0.45,1.2,60,0.75,,,,,,,,,,,,,,,,,,,,,,,,,,,,,,,,,,,,,,,,,,,,,
,,,,,V3_044,18,Male,2024-11-01_17h34.35.559,jersey_experiment_5_v3,2023.2.2,Win32,84.74576271,,,,,,,,,,,,,,,,152.9404,154.4931,154.4931,158.6933,return,0.4882,,44.53125,0,18,18,22,1,FBP-PT-18.png,0.4,1.2,23,0.75,,,,,,,,,,,,,,,,,,,,,,,,,,,,,,,,,,,,,,,,,,,,,
,,,,,V3_044,18,Male,2024-11-01_17h34.35.559,jersey_experiment_5_v3,2023.2.2,Win32,84.74576271,,,,,,,,,,,,,,,,158.6936,159.9876,159.9876,162.1758,return,0.6355,,22.265625,0,19,19,42,1,FBP-OG-19.png,0.4,1.2,43,0.5,,,,,,,,,,,,,,,,,,,,,,,,,,,,,,,,,,,,,,,,,,,,,
,,,,,V3_044,18,Male,2024-11-01_17h34.35.559,jersey_experiment_5_v3,2023.2.2,Win32,84.74576271,,,,,,,,,,,,,,,,162.1759,163.47,163.47,167.435,return,0.5803,,38.15104167,0,20,20,43,1,FBP-OG-19.png,0.43,1.2,44,0.5,,,,,,,,,,,,,,,,,,,,,,,,,,,,,,,,,,,,,,,,,,,,,
,,,,,V3_044,18,Male,2024-11-01_17h34.35.559,jersey_experiment_5_v3,2023.2.2,Win32,84.74576271,,,,,,,,,,,,,,,,167.4352,168.9879,168.988,171.0351,return,0.3986,,50.390625,0,21,21,50,1,FBP-RB-18.png,0.35,1.2,51,0.75,,,,,,,,,,,,,,,,,,,,,,,,,,,,,,,,,,,,,,,,,,,,,
,,,,,V3_044,18,Male,2024-11-01_17h34.35.559,jersey_experiment_5_v3,2023.2.2,Win32,84.74576271,,,,,,,,,,,,,,,,171.0354,172.5881,172.5881,174.4939,return,0.4606,,68.359375,0,22,22,6,1,FBP-YG-81.png,0.37,1.2,7,0.75,,,,,,,,,,,,,,,,,,,,,,,,,,,,,,,,,,,,,,,,,,,,,
,,,,,V3_044,18,Male,2024-11-01_17h34.35.559,jersey_experiment_5_v3,2023.2.2,Win32,84.74576271,,,,,,,,,,,,,,,,174.4942,176.0469,176.047,180.2353,return,0.3524,,74.73958333,0,23,23,46,1,FBP-RB-17.png,0.37,1.2,47,0.75,,,,,,,,,,,,,,,,,,,,,,,,,,,,,,,,,,,,,,,,,,,,,
,,,,,V3_044,18,Male,2024-11-01_17h34.35.559,jersey_experiment_5_v3,2023.2.2,Win32,84.74576271,,,,,,,,,,,,,,,,180.2356,181.7883,181.7883,187.2121,return,2.9665,,66.92708333,0,24,24,11,1,FBP-YG-91.png,0.37,1.2,12,0.75,,,,,,,,,,,,,,,,,,,,,,,,,,,,,,,,,,,,,,,,,,,,,
,,,,,V3_044,18,Male,2024-11-01_17h34.35.559,jersey_experiment_5_v3,2023.2.2,Win32,84.74576271,,,,,,,,,,,,,,,,187.2124,188.765,188.7651,190.2003,return,0.4135,,78.77604167,0,25,25,57,1,FBP-RB-19.png,0.4,1.2,58,0.75,,,,,,,,,,,,,,,,,,,,,,,,,,,,,,,,,,,,,,,,,,,,,
,,,,,V3_044,18,Male,2024-11-01_17h34.35.559,jersey_experiment_5_v3,2023.2.2,Win32,84.74576271,,,,,,,,,,,,,,,,190.2007,191.7535,191.7536,197.1654,return,0.3609,,48.95833333,0,26,26,16,1,FBP-PT-17.png,0.37,1.2,17,0.75,,,,,,,,,,,,,,,,,,,,,,,,,,,,,,,,,,,,,,,,,,,,,
,,,,,V3_044,18,Male,2024-11-01_17h34.35.559,jersey_experiment_5_v3,2023.2.2,Win32,84.74576271,,,,,,,,,,,,,,,,197.1657,198.4595,198.4596,200.4244,return,0.6522,,17.31770833,0,27,27,31,1,FBP-OG-17.png,0.37,1.2,32,0.5,,,,,,,,,,,,,,,,,,,,,,,,,,,,,,,,,,,,,,,,,,,,,
,,,,,V3_044,18,Male,2024-11-01_17h34.35.559,jersey_experiment_5_v3,2023.2.2,Win32,84.74576271,,,,,,,,,,,,,,,,200.4245,201.9773,201.9773,204.1891,return,0.5086,,72.52604167,0,28,28,29,1,FBP-PT-19.png,0.45,1.2,30,0.75,,,,,,,,,,,,,,,,,,,,,,,,,,,,,,,,,,,,,,,,,,,,,
,,,,,V3_044,18,Male,2024-11-01_17h34.35.559,jersey_experiment_5_v3,2023.2.2,Win32,84.74576271,,,,,,,,,,,,,,,,204.1893,205.4833,205.4834,211.0365,return,1.98,,29.42708333,0,29,29,41,1,FBP-OG-19.png,0.37,1.2,42,0.5,,,,,,,,,,,,,,,,,,,,,,,,,,,,,,,,,,,,,,,,,,,,,
,,,,,V3_044,18,Male,2024-11-01_17h34.35.559,jersey_experiment_5_v3,2023.2.2,Win32,84.74576271,,,,,,,,,,,,,,,,211.0367,212.3305,212.3306,215.6954,return,1.7334,,75.390625,0,30,30,39,1,FBP-OG-18.png,0.45,1.2,40,0.5,,,,,,,,,,,,,,,,,,,,,,,,,,,,,,,,,,,,,,,,,,,,,
,,,,,V3_044,18,Male,2024-11-01_17h34.35.559,jersey_experiment_5_v3,2023.2.2,Win32,84.74576271,,,,,,,,,,,,,,,,215.6956,217.2485,217.2485,219.4486,return,0.5102,,18.75,0,31,31,15,1,FBP-PT-17.png,0.35,1.2,16,0.75,,,,,,,,,,,,,,,,,,,,,,,,,,,,,,,,,,,,,,,,,,,,,
,,,,,V3_044,18,Male,2024-11-01_17h34.35.559,jersey_experiment_5_v3,2023.2.2,Win32,84.74576271,,,,,,,,,,,,,,,,219.4488,220.7427,220.7427,223.3074,return,0.4569,,82.68229167,0,32,32,34,1,FBP-OG-17.png,0.45,1.2,35,0.5,,,,,,,,,,,,,,,,,,,,,,,,,,,,,,,,,,,,,,,,,,,,,
,,,,,V3_044,18,Male,2024-11-01_17h34.35.559,jersey_experiment_5_v3,2023.2.2,Win32,84.74576271,,,,,,,,,,,,,,,,223.3077,224.8604,224.8604,227.1311,return,0.4238,,98.046875,0,33,33,54,1,FBP-RB-18.png,0.45,1.2,55,0.75,,,,,,,,,,,,,,,,,,,,,,,,,,,,,,,,,,,,,,,,,,,,,
,,,,,V3_044,18,Male,2024-11-01_17h34.35.559,jersey_experiment_5_v3,2023.2.2,Win32,84.74576271,,,,,,,,,,,,,,,,227.1314,228.6844,228.6844,232.3197,return,0.6126,,71.484375,0,34,34,21,1,FBP-PT-18.png,0.37,1.2,22,0.75,,,,,,,,,,,,,,,,,,,,,,,,,,,,,,,,,,,,,,,,,,,,,
,,,,,V3_044,18,Male,2024-11-01_17h34.35.559,jersey_experiment_5_v3,2023.2.2,Win32,84.74576271,,,,,,,,,,,,,,,,232.3199,233.8725,233.8726,237.3904,return,0.3899,,66.015625,0,35,35,1,1,FBP-YG-71.png,0.37,1.2,2,0.75,,,,,,,,,,,,,,,,,,,,,,,,,,,,,,,,,,,,,,,,,,,,,
,,,,,V3_044,18,Male,2024-11-01_17h34.35.559,jersey_experiment_5_v3,2023.2.2,Win32,84.74576271,,,,,,,,,,,,,,,,237.3907,238.9434,238.9435,241.061,return,0.3733,,96.09375,0,36,36,53,1,FBP-RB-18.png,0.43,1.2,54,0.75,,,,,,,,,,,,,,,,,,,,,,,,,,,,,,,,,,,,,,,,,,,,,
,,,,,V3_044,18,Male,2024-11-01_17h34.35.559,jersey_experiment_5_v3,2023.2.2,Win32,84.74576271,,,,,,,,,,,,,,,,241.0613,242.614,242.6141,244.026,return,0.5336,,95.96354167,0,37,37,49,1,FBP-RB-17.png,0.45,1.2,50,0.75,,,,,,,,,,,,,,,,,,,,,,,,,,,,,,,,,,,,,,,,,,,,,
,,,,,V3_044,18,Male,2024-11-01_17h34.35.559,jersey_experiment_5_v3,2023.2.2,Win32,84.74576271,,,,,,,,,,,,,,,,244.0262,245.5789,245.579,248.3673,return,0.5885,,59.11458333,0,38,38,51,1,FBP-RB-18.png,0.37,1.2,52,0.75,,,,,,,,,,,,,,,,,,,,,,,,,,,,,,,,,,,,,,,,,,,,,
,,,,,V3_044,18,Male,2024-11-01_17h34.35.559,jersey_experiment_5_v3,2023.2.2,Win32,84.74576271,,,,,,,,,,,,,,,,248.3675,249.9203,249.9203,253.4027,return,0.5306,,58.984375,0,39,39,12,1,FBP-YG-91.png,0.4,1.2,13,0.75,,,,,,,,,,,,,,,,,,,,,,,,,,,,,,,,,,,,,,,,,,,,,
,,,,,V3_044,18,Male,2024-11-01_17h34.35.559,jersey_experiment_5_v3,2023.2.2,Win32,84.74576271,,,,,,,,,,,,,,,,253.4031,254.9556,254.9557,257.4851,return,0.4151,,63.28125,0,40,40,18,1,FBP-PT-17.png,0.43,1.2,19,0.75,,,,,,,,,,,,,,,,,,,,,,,,,,,,,,,,,,,,,,,,,,,,,
,,,,,V3_044,18,Male,2024-11-01_17h34.35.559,jersey_experiment_5_v3,2023.2.2,Win32,84.74576271,,,,,,,,,,,,,,,,257.4854,259.0383,259.0383,263.4854,return,0.6982,,70.44270833,0,41,41,24,1,FBP-PT-18.png,0.45,1.2,25,0.75,,,,,,,,,,,,,,,,,,,,,,,,,,,,,,,,,,,,,,,,,,,,,
,,,,,V3_044,18,Male,2024-11-01_17h34.35.559,jersey_experiment_5_v3,2023.2.2,Win32,84.74576271,,,,,,,,,,,,,,,,263.4855,265.0384,265.0386,266.462,return,0.4473,,10.67708333,0,42,42,20,1,FBP-PT-18.png,0.35,1.2,21,0.75,,,,,,,,,,,,,,,,,,,,,,,,,,,,,,,,,,,,,,,,,,,,,
,,,,,V3_044,18,Male,2024-11-01_17h34.35.559,jersey_experiment_5_v3,2023.2.2,Win32,84.74576271,,,,,,,,,,,,,,,,266.4623,268.015,268.015,271.8503,return,0.4264,,77.99479167,0,43,43,48,1,FBP-RB-17.png,0.43,1.2,49,0.75,,,,,,,,,,,,,,,,,,,,,,,,,,,,,,,,,,,,,,,,,,,,,
,,,,,V3_044,18,Male,2024-11-01_17h34.35.559,jersey_experiment_5_v3,2023.2.2,Win32,84.74576271,,,,,,,,,,,,,,,,271.8506,273.1447,273.1447,274.8858,return,0.4076,,75.78125,0,44,44,33,1,FBP-OG-17.png,0.43,1.2,34,0.5,,,,,,,,,,,,,,,,,,,,,,,,,,,,,,,,,,,,,,,,,,,,,
,,,,,V3_044,18,Male,2024-11-01_17h34.35.559,jersey_experiment_5_v3,2023.2.2,Win32,84.74576271,,,,,,,,,,,,,,,,274.886,276.4388,276.4389,280.2861,return,0.4942,,35.41666667,0,45,45,45,1,FBP-RB-17.png,0.35,1.2,46,0.75,,,,,,,,,,,,,,,,,,,,,,,,,,,,,,,,,,,,,,,,,,,,,
,,,,,V3_044,18,Male,2024-11-01_17h34.35.559,jersey_experiment_5_v3,2023.2.2,Win32,84.74576271,,,,,,,,,,,,,,,,280.2863,281.8391,281.8391,283.1921,return,0.4054,,67.05729167,0,46,46,3,1,FBP-YG-71.png,0.43,1.2,4,0.75,,,,,,,,,,,,,,,,,,,,,,,,,,,,,,,,,,,,,,,,,,,,,
,,,,,V3_044,18,Male,2024-11-01_17h34.35.559,jersey_experiment_5_v3,2023.2.2,Win32,84.74576271,,,,,,,,,,,,,,,,283.1924,284.4861,284.4862,287.4392,return,0.3441,,75.52083333,0,47,47,38,1,FBP-OG-18.png,0.43,1.2,39,0.5,,,,,,,,,,,,,,,,,,,,,,,,,,,,,,,,,,,,,,,,,,,,,
,,,,,V3_044,18,Male,2024-11-01_17h34.35.559,jersey_experiment_5_v3,2023.2.2,Win32,84.74576271,,,,,,,,,,,,,,,,287.4395,288.9922,288.9922,293.6748,return,0.4002,,54.296875,0,48,48,56,1,FBP-RB-19.png,0.37,1.2,57,0.75,,,,,,,,,,,,,,,,,,,,,,,,,,,,,,,,,,,,,,,,,,,,,
,,,,,V3_044,18,Male,2024-11-01_17h34.35.559,jersey_experiment_5_v3,2023.2.2,Win32,84.74576271,,,,,,,,,,,,,,,,293.6751,294.969,294.969,299.6398,return,0.3898,,64.453125,0,49,49,37,1,FBP-OG-18.png,0.4,1.2,38,0.5,,,,,,,,,,,,,,,,,,,,,,,,,,,,,,,,,,,,,,,,,,,,,
,,,,,V3_044,18,Male,2024-11-01_17h34.35.559,jersey_experiment_5_v3,2023.2.2,Win32,84.74576271,,,,,,,,,,,,,,,,299.64,300.9338,300.9338,304.334,return,0.6573,,69.140625,0,50,50,32,1,FBP-OG-17.png,0.4,1.2,33,0.5,,,,,,,,,,,,,,,,,,,,,,,,,,,,,,,,,,,,,,,,,,,,,
,,,,,V3_044,18,Male,2024-11-01_17h34.35.559,jersey_experiment_5_v3,2023.2.2,Win32,84.74576271,,,,,,,,,,,,,,,,304.3344,305.8871,305.8872,311.9814,return,2.7797,,31.51041667,0,51,51,5,1,FBP-YG-81.png,0.35,1.2,6,0.75,,,,,,,,,,,,,,,,,,,,,,,,,,,,,,,,,,,,,,,,,,,,,
,,,,,V3_044,18,Male,2024-11-01_17h34.35.559,jersey_experiment_5_v3,2023.2.2,Win32,84.74576271,,,,,,,,,,,,,,,,311.9816,313.5343,313.5344,318.4638,return,2.4946,,67.05729167,0,52,52,28,1,FBP-PT-19.png,0.43,1.2,29,0.75,,,,,,,,,,,,,,,,,,,,,,,,,,,,,,,,,,,,,,,,,,,,,
,,,,,V3_044,18,Male,2024-11-01_17h34.35.559,jersey_experiment_5_v3,2023.2.2,Win32,84.74576271,,,,,,,,,,,,,,,,318.4642,320.0169,320.0169,323.8053,return,0.4705,,36.58854167,0,53,53,2,1,FBP-YG-71.png,0.4,1.2,3,0.75,,,,,,,,,,,,,,,,,,,,,,,,,,,,,,,,,,,,,,,,,,,,,
,,,,,V3_044,18,Male,2024-11-01_17h34.35.559,jersey_experiment_5_v3,2023.2.2,Win32,84.74576271,,,,,,,,,,,,,,,,323.8056,325.3584,325.3584,326.7113,return,0.7003,,36.58854167,0,54,54,26,1,FBP-PT-19.png,0.37,1.2,27,0.75,,,,,,,,,,,,,,,,,,,,,,,,,,,,,,,,,,,,,,,,,,,,,
,,,,,V3_044,18,Male,2024-11-01_17h34.35.559,jersey_experiment_5_v3,2023.2.2,Win32,84.74576271,,,,,,,,,,,,,,,,326.7115,328.0054,328.0055,329.7349,return,0.5714,,78.515625,0,55,55,44,1,FBP-OG-19.png,0.45,1.2,45,0.5,,,,,,,,,,,,,,,,,,,,,,,,,,,,,,,,,,,,,,,,,,,,,
,,,,,V3_044,18,Male,2024-11-01_17h34.35.559,jersey_experiment_5_v3,2023.2.2,Win32,84.74576271,,,,,,,,,,,,,,,,329.7351,331.2878,331.2879,335.9471,return,0.6465,,56.25,0,56,56,0,1,FBP-YG-71.png,0.35,1.2,1,0.75,,,,,,,,,,,,,,,,,,,,,,,,,,,,,,,,,,,,,,,,,,,,,
,,,,,V3_044,18,Male,2024-11-01_17h34.35.559,jersey_experiment_5_v3,2023.2.2,Win32,84.74576271,,,,,,,,,,,,,,,,335.9474,337.4998,337.4999,339.4999,return,0.4251,,74.34895833,0,57,57,9,1,FBP-YG-81.png,0.45,1.2,10,0.75,,,,,,,,,,,,,,,,,,,,,,,,,,,,,,,,,,,,,,,,,,,,,
,,,,,V3_044,18,Male,2024-11-01_17h34.35.559,jersey_experiment_5_v3,2023.2.2,Win32,84.74576271,,,,,,,,,,,,,,,,339.5002,340.794,340.7941,344.7943,return,0.5526,,59.375,0,58,58,30,1,FBP-OG-17.png,0.35,1.2,31,0.5,,,,,,,,,,,,,,,,,,,,,,,,,,,,,,,,,,,,,,,,,,,,,
,,,,,V3_044,18,Male,2024-11-01_17h34.35.559,jersey_experiment_5_v3,2023.2.2,Win32,84.74576271,,,,,,,,,,,,,,,,344.7946,346.3473,346.3474,348.4298,return,0.4624,,36.71875,0,59,59,25,1,FBP-PT-19.png,0.35,1.2,26,0.75,,,,,,,,,,,,,,,,,,,,,,,,,,,,,,,,,,,,,,,,,,,,,
,,,,,V3_044,18,Male,2024-11-01_17h34.35.559,jersey_experiment_5_v3,2023.2.2,Win32,84.74576271,,,,,,,,,,,,,,,,348.4315,349.9827,349.9829,353.43,return,0.7598,,75.52083333,,,,,,FBP-PT-81.png,0.45,1.2,25,0.75,0,0,0,24,1,,,,,,,,,,,,,,,,,,,,,,,,,,,,,,,,,,,,,,,,
,,,,,V3_044,18,Male,2024-11-01_17h34.35.559,jersey_experiment_5_v3,2023.2.2,Win32,84.74576271,,,,,,,,,,,,,,,,353.4303,354.9829,354.983,359.8066,return,3.1768,,79.03645833,,,,,,FBP-YG-19.png,0.43,1.2,14,0.75,0,1,1,13,1,,,,,,,,,,,,,,,,,,,,,,,,,,,,,,,,,,,,,,,,
,,,,,V3_044,18,Male,2024-11-01_17h34.35.559,jersey_experiment_5_v3,2023.2.2,Win32,84.74576271,,,,,,,,,,,,,,,,359.8069,361.3597,361.3597,365.9951,return,0.4495,,55.98958333,,,,,,FBP-PT-91.png,0.37,1.2,27,0.75,0,2,2,26,1,,,,,,,,,,,,,,,,,,,,,,,,,,,,,,,,,,,,,,,,
,,,,,V3_044,18,Male,2024-11-01_17h34.35.559,jersey_experiment_5_v3,2023.2.2,Win32,84.74576271,,,,,,,,,,,,,,,,365.9953,367.548,367.5481,371.9246,return,0.8406,,81.51041667,,,,,,FBP-YG-18.png,0.45,1.2,10,0.75,0,3,3,9,1,,,,,,,,,,,,,,,,,,,,,,,,,,,,,,,,,,,,,,,,
,,,,,V3_044,18,Male,2024-11-01_17h34.35.559,jersey_experiment_5_v3,2023.2.2,Win32,84.74576271,,,,,,,,,,,,,,,,371.9248,373.4778,373.4778,375.207,return,0.4175,,75.13020833,,,,,,FBP-RB-71.png,0.37,1.2,47,0.75,0,4,4,46,1,,,,,,,,,,,,,,,,,,,,,,,,,,,,,,,,,,,,,,,,
,,,,,V3_044,18,Male,2024-11-01_17h34.35.559,jersey_experiment_5_v3,2023.2.2,Win32,84.74576271,,,,,,,,,,,,,,,,375.2073,376.7602,376.7602,379.4544,return,0.6589,,75.13020833,,,,,,FBP-RB-91.png,0.35,1.2,56,0.75,0,5,5,55,1,,,,,,,,,,,,,,,,,,,,,,,,,,,,,,,,,,,,,,,,
,,,,,V3_044,18,Male,2024-11-01_17h34.35.559,jersey_experiment_5_v3,2023.2.2,Win32,84.74576271,,,,,,,,,,,,,,,,379.4547,381.0073,381.0074,383.6547,return,0.4186,,80.20833333,,,,,,FBP-YG-17.png,0.43,1.2,4,0.75,0,6,6,3,1,,,,,,,,,,,,,,,,,,,,,,,,,,,,,,,,,,,,,,,,
,,,,,V3_044,18,Male,2024-11-01_17h34.35.559,jersey_experiment_5_v3,2023.2.2,Win32,84.74576271,,,,,,,,,,,,,,,,383.6549,384.9486,384.9486,388.3841,return,0.7193,,82.16145833,,,,,,FBP-OG-81.png,0.43,1.2,39,0.5,0,7,7,38,1,,,,,,,,,,,,,,,,,,,,,,,,,,,,,,,,,,,,,,,,
,,,,,V3_044,18,Male,2024-11-01_17h34.35.559,jersey_experiment_5_v3,2023.2.2,Win32,84.74576271,,,,,,,,,,,,,,,,388.3844,389.9372,389.9372,394.0902,return,0.4132,,74.34895833,,,,,,FBP-PT-71.png,0.43,1.2,19,0.75,0,8,8,18,1,,,,,,,,,,,,,,,,,,,,,,,,,,,,,,,,,,,,,,,,
,,,,,V3_044,18,Male,2024-11-01_17h34.35.559,jersey_experiment_5_v3,2023.2.2,Win32,84.74576271,,,,,,,,,,,,,,,,394.0905,395.6432,395.6432,399.3727,return,1.4346,,54.03645833,,,,,,FBP-YG-17.png,0.4,1.2,3,0.75,0,9,9,2,1,,,,,,,,,,,,,,,,,,,,,,,,,,,,,,,,,,,,,,,,
,,,,,V3_044,18,Male,2024-11-01_17h34.35.559,jersey_experiment_5_v3,2023.2.2,Win32,84.74576271,,,,,,,,,,,,,,,,399.373,400.9258,400.9258,402.7141,return,0.9202,,38.93229167,,,,,,FBP-YG-19.png,0.35,1.2,11,0.75,0,10,10,10,1,,,,,,,,,,,,,,,,,,,,,,,,,,,,,,,,,,,,,,,,
,,,,,V3_044,18,Male,2024-11-01_17h34.35.559,jersey_experiment_5_v3,2023.2.2,Win32,84.74576271,,,,,,,,,,,,,,,,402.7143,404.0083,404.0083,406.2554,return,0.3641,,75.13020833,,,,,,FBP-OG-71.png,0.37,1.2,32,0.5,0,11,11,31,1,,,,,,,,,,,,,,,,,,,,,,,,,,,,,,,,,,,,,,,,
,,,,,V3_044,18,Male,2024-11-01_17h34.35.559,jersey_experiment_5_v3,2023.2.2,Win32,84.74576271,,,,,,,,,,,,,,,,406.2556,407.5496,407.5497,409.0791,return,0.3358,,87.23958333,,,,,,FBP-OG-91.png,0.45,1.2,45,0.5,0,12,12,44,1,,,,,,,,,,,,,,,,,,,,,,,,,,,,,,,,,,,,,,,,
,,,,,V3_044,18,Male,2024-11-01_17h34.35.559,jersey_experiment_5_v3,2023.2.2,Win32,84.74576271,,,,,,,,,,,,,,,,409.0793,410.3732,410.3732,412.9967,return,0.4205,,30.859375,,,,,,FBP-OG-91.png,0.35,1.2,41,0.5,0,13,13,40,1,,,,,,,,,,,,,,,,,,,,,,,,,,,,,,,,,,,,,,,,
,,,,,V3_044,18,Male,2024-11-01_17h34.35.559,jersey_experiment_5_v3,2023.2.2,Win32,84.74576271,,,,,,,,,,,,,,,,412.997,414.5498,414.5498,419.4204,return,0.3998,,63.02083333,,,,,,FBP-YG-19.png,0.37,1.2,12,0.75,0,14,14,11,1,,,,,,,,,,,,,,,,,,,,,,,,,,,,,,,,,,,,,,,,
,,,,,V3_044,18,Male,2024-11-01_17h34.35.559,jersey_experiment_5_v3,2023.2.2,Win32,84.74576271,,,,,,,,,,,,,,,,419.4207,420.7148,420.7148,423.1265,return,0.3671,,36.84895833,,,,,,FBP-OG-81.png,0.35,1.2,36,0.5,0,15,15,35,1,,,,,,,,,,,,,,,,,,,,,,,,,,,,,,,,,,,,,,,,
,,,,,V3_044,18,Male,2024-11-01_17h34.35.559,jersey_experiment_5_v3,2023.2.2,Win32,84.74576271,,,,,,,,,,,,,,,,423.1267,424.6795,424.6796,429.0327,return,1.9578,,67.96875,,,,,,FBP-YG-17.png,0.45,1.2,5,0.75,0,16,16,4,1,,,,,,,,,,,,,,,,,,,,,,,,,,,,,,,,,,,,,,,,
,,,,,V3_044,18,Male,2024-11-01_17h34.35.559,jersey_experiment_5_v3,2023.2.2,Win32,84.74576271,,,,,,,,,,,,,,,,429.0329,430.5857,430.5857,436.7506,return,0.5887,,54.81770833,,,,,,FBP-PT-71.png,0.4,1.2,18,0.75,0,17,17,17,1,,,,,,,,,,,,,,,,,,,,,,,,,,,,,,,,,,,,,,,,
,,,,,V3_044,18,Male,2024-11-01_17h34.35.559,jersey_experiment_5_v3,2023.2.2,Win32,84.74576271,,,,,,,,,,,,,,,,436.7509,438.0447,438.0448,440.2683,return,0.3926,,79.42708333,,,,,,FBP-OG-81.png,0.45,1.2,40,0.5,0,18,18,39,1,,,,,,,,,,,,,,,,,,,,,,,,,,,,,,,,,,,,,,,,
,,,,,V3_044,18,Male,2024-11-01_17h34.35.559,jersey_experiment_5_v3,2023.2.2,Win32,84.74576271,,,,,,,,,,,,,,,,440.2684,441.5625,441.5626,448.351,return,0.6698,,63.54166667,,,,,,FBP-OG-91.png,0.37,1.2,42,0.5,0,19,19,41,1,,,,,,,,,,,,,,,,,,,,,,,,,,,,,,,,,,,,,,,,
,,,,,V3_044,18,Male,2024-11-01_17h34.35.559,jersey_experiment_5_v3,2023.2.2,Win32,84.74576271,,,,,,,,,,,,,,,,448.3513,449.9039,449.9039,451.3865,return,0.45,,71.61458333,,,,,,FBP-YG-19.png,0.45,1.2,15,0.75,0,20,20,14,1,,,,,,,,,,,,,,,,,,,,,,,,,,,,,,,,,,,,,,,,
,,,,,V3_044,18,Male,2024-11-01_17h34.35.559,jersey_experiment_5_v3,2023.2.2,Win32,84.74576271,,,,,,,,,,,,,,,,451.3867,452.9395,452.9395,454.8571,return,0.6379,,89.32291667,,,,,,FBP-RB-81.png,0.43,1.2,54,0.75,0,21,21,53,1,,,,,,,,,,,,,,,,,,,,,,,,,,,,,,,,,,,,,,,,
,,,,,V3_044,18,Male,2024-11-01_17h34.35.559,jersey_experiment_5_v3,2023.2.2,Win32,84.74576271,,,,,,,,,,,,,,,,454.8574,456.4101,456.4102,458.3161,return,0.5544,,94.921875,,,,,,FBP-RB-81.png,0.45,1.2,55,0.75,0,22,22,54,1,,,,,,,,,,,,,,,,,,,,,,,,,,,,,,,,,,,,,,,,
,,,,,V3_044,18,Male,2024-11-01_17h34.35.559,jersey_experiment_5_v3,2023.2.2,Win32,84.74576271,,,,,,,,,,,,,,,,458.3164,459.6103,459.6103,465.7047,return,0.8012,,60.546875,,,,,,FBP-OG-91.png,0.4,1.2,43,0.5,0,23,23,42,1,,,,,,,,,,,,,,,,,,,,,,,,,,,,,,,,,,,,,,,,
,,,,,V3_044,18,Male,2024-11-01_17h34.35.559,jersey_experiment_5_v3,2023.2.2,Win32,84.74576271,,,,,,,,,,,,,,,,465.705,467.2576,467.2577,468.7752,return,0.359,,36.45833333,,,,,,FBP-YG-18.png,0.35,1.2,6,0.75,0,24,24,5,1,,,,,,,,,,,,,,,,,,,,,,,,,,,,,,,,,,,,,,,,
,,,,,V3_044,18,Male,2024-11-01_17h34.35.559,jersey_experiment_5_v3,2023.2.2,Win32,84.74576271,,,,,,,,,,,,,,,,468.7755,470.3283,470.3283,475.2579,return,0.3779,,55.59895833,,,,,,FBP-PT-91.png,0.43,1.2,29,0.75,0,25,25,28,1,,,,,,,,,,,,,,,,,,,,,,,,,,,,,,,,,,,,,,,,
,,,,,V3_044,18,Male,2024-11-01_17h34.35.559,jersey_experiment_5_v3,2023.2.2,Win32,84.74576271,,,,,,,,,,,,,,,,475.2582,476.8109,476.811,479.0932,return,0.9375,,91.796875,,,,,,FBP-RB-71.png,0.43,1.2,49,0.75,0,26,26,48,1,,,,,,,,,,,,,,,,,,,,,,,,,,,,,,,,,,,,,,,,
,,,,,V3_044,18,Male,2024-11-01_17h34.35.559,jersey_experiment_5_v3,2023.2.2,Win32,84.74576271,,,,,,,,,,,,,,,,479.0935,480.6463,480.6463,485.2935,return,0.432,,68.75,,,,,,FBP-RB-71.png,0.35,1.2,46,0.75,0,27,27,45,1,,,,,,,,,,,,,,,,,,,,,,,,,,,,,,,,,,,,,,,,
,,,,,V3_044,18,Male,2024-11-01_17h34.35.559,jersey_experiment_5_v3,2023.2.2,Win32,84.74576271,,,,,,,,,,,,,,,,485.2938,486.8465,486.8465,491.0232,return,0.6356,,59.50520833,,,,,,FBP-YG-19.png,0.4,1.2,13,0.75,0,28,28,12,1,,,,,,,,,,,,,,,,,,,,,,,,,,,,,,,,,,,,,,,,
,,,,,V3_044,18,Male,2024-11-01_17h34.35.559,jersey_experiment_5_v3,2023.2.2,Win32,84.74576271,,,,,,,,,,,,,,,,491.0235,492.5762,492.5762,498.4588,return,0.5084,,65.234375,,,,,,FBP-YG-18.png,0.43,1.2,9,0.75,0,29,29,8,1,,,,,,,,,,,,,,,,,,,,,,,,,,,,,,,,,,,,,,,,
,,,,,V3_044,18,Male,2024-11-01_17h34.35.559,jersey_experiment_5_v3,2023.2.2,Win32,84.74576271,,,,,,,,,,,,,,,,498.459,500.0117,500.0118,506.6825,return,0.8736,,29.94791667,,,,,,FBP-PT-91.png,0.45,1.2,30,0.75,0,30,30,29,1,,,,,,,,,,,,,,,,,,,,,,,,,,,,,,,,,,,,,,,,
,,,,,V3_044,18,Male,2024-11-01_17h34.35.559,jersey_experiment_5_v3,2023.2.2,Win32,84.74576271,,,,,,,,,,,,,,,,506.6828,508.2355,508.2356,510.8239,return,0.3663,,74.73958333,,,,,,FBP-RB-91.png,0.4,1.2,58,0.75,0,31,31,57,1,,,,,,,,,,,,,,,,,,,,,,,,,,,,,,,,,,,,,,,,
,,,,,V3_044,18,Male,2024-11-01_17h34.35.559,jersey_experiment_5_v3,2023.2.2,Win32,84.74576271,,,,,,,,,,,,,,,,510.8241,512.3769,512.3769,514.1181,return,0.3701,,58.07291667,,,,,,FBP-YG-18.png,0.4,1.2,8,0.75,0,32,32,7,1,,,,,,,,,,,,,,,,,,,,,,,,,,,,,,,,,,,,,,,,
,,,,,V3_044,18,Male,2024-11-01_17h34.35.559,jersey_experiment_5_v3,2023.2.2,Win32,84.74576271,,,,,,,,,,,,,,,,514.1184,515.6711,515.6712,517.3535,return,0.6037,,25.91145833,,,,,,FBP-PT-81.png,0.35,1.2,21,0.75,0,33,33,20,1,,,,,,,,,,,,,,,,,,,,,,,,,,,,,,,,,,,,,,,,
,,,,,V3_044,18,Male,2024-11-01_17h34.35.559,jersey_experiment_5_v3,2023.2.2,Win32,84.74576271,,,,,,,,,,,,,,,,517.3538,518.9066,518.9066,521.1302,return,0.5308,,59.63541667,,,,,,FBP-PT-81.png,0.43,1.2,24,0.75,0,34,34,23,1,,,,,,,,,,,,,,,,,,,,,,,,,,,,,,,,,,,,,,,,
,,,,,V3_044,18,Male,2024-11-01_17h34.35.559,jersey_experiment_5_v3,2023.2.2,Win32,84.74576271,,,,,,,,,,,,,,,,521.1305,522.4243,522.4244,524.5537,return,0.6505,,75.65104167,,,,,,FBP-OG-81.png,0.37,1.2,37,0.5,0,35,35,36,1,,,,,,,,,,,,,,,,,,,,,,,,,,,,,,,,,,,,,,,,
,,,,,V3_044,18,Male,2024-11-01_17h34.35.559,jersey_experiment_5_v3,2023.2.2,Win32,84.74576271,,,,,,,,,,,,,,,,524.554,525.8478,525.8479,527.5421,return,0.5602,,84.50520833,,,,,,FBP-OG-71.png,0.45,1.2,35,0.5,0,36,36,34,1,,,,,,,,,,,,,,,,,,,,,,,,,,,,,,,,,,,,,,,,
,,,,,V3_044,18,Male,2024-11-01_17h34.35.559,jersey_experiment_5_v3,2023.2.2,Win32,84.74576271,,,,,,,,,,,,,,,,527.5424,529.0953,529.0953,534.6366,return,0.6594,,72.65625,,,,,,FBP-RB-71.png,0.4,1.2,48,0.75,0,37,37,47,1,,,,,,,,,,,,,,,,,,,,,,,,,,,,,,,,,,,,,,,,
,,,,,V3_044,18,Male,2024-11-01_17h34.35.559,jersey_experiment_5_v3,2023.2.2,Win32,84.74576271,,,,,,,,,,,,,,,,534.6369,535.9306,535.9307,538.2484,return,0.5451,,72.65625,,,,,,FBP-OG-71.png,0.43,1.2,34,0.5,0,38,38,33,1,,,,,,,,,,,,,,,,,,,,,,,,,,,,,,,,,,,,,,,,
,,,,,V3_044,18,Male,2024-11-01_17h34.35.559,jersey_experiment_5_v3,2023.2.2,Win32,84.74576271,,,,,,,,,,,,,,,,538.2488,539.5425,539.5426,541.3191,return,0.6415,,39.97395833,,,,,,FBP-OG-71.png,0.35,1.2,31,0.5,0,39,39,30,1,,,,,,,,,,,,,,,,,,,,,,,,,,,,,,,,,,,,,,,,
,,,,,V3_044,18,Male,2024-11-01_17h34.35.559,jersey_experiment_5_v3,2023.2.2,Win32,84.74576271,,,,,,,,,,,,,,,,541.3194,542.6133,542.6133,548.637,return,1.4355,,62.63020833,,,,,,FBP-OG-71.png,0.4,1.2,33,0.5,0,40,40,32,1,,,,,,,,,,,,,,,,,,,,,,,,,,,,,,,,,,,,,,,,
,,,,,V3_044,18,Male,2024-11-01_17h34.35.559,jersey_experiment_5_v3,2023.2.2,Win32,84.74576271,,,,,,,,,,,,,,,,548.6373,549.9312,549.9312,554.4138,return,0.6508,,62.63020833,,,,,,FBP-OG-91.png,0.43,1.2,44,0.5,0,41,41,43,1,,,,,,,,,,,,,,,,,,,,,,,,,,,,,,,,,,,,,,,,
,,,,,V3_044,18,Male,2024-11-01_17h34.35.559,jersey_experiment_5_v3,2023.2.2,Win32,84.74576271,,,,,,,,,,,,,,,,554.414,555.708,555.708,559.9434,return,0.5454,,60.41666667,,,,,,FBP-OG-81.png,0.4,1.2,38,0.5,0,42,42,37,1,,,,,,,,,,,,,,,,,,,,,,,,,,,,,,,,,,,,,,,,
,,,,,V3_044,18,Male,2024-11-01_17h34.35.559,jersey_experiment_5_v3,2023.2.2,Win32,84.74576271,,,,,,,,,,,,,,,,559.9436,561.4964,561.4964,563.4847,return,0.5024,,90.36458333,,,,,,FBP-RB-91.png,0.45,1.2,60,0.75,0,43,43,59,1,,,,,,,,,,,,,,,,,,,,,,,,,,,,,,,,,,,,,,,,
,,,,,V3_044,18,Male,2024-11-01_17h34.35.559,jersey_experiment_5_v3,2023.2.2,Win32,84.74576271,,,,,,,,,,,,,,,,563.4848,565.0377,565.0377,568.6026,return,0.4461,,25.390625,,,,,,FBP-PT-81.png,0.37,1.2,22,0.75,0,44,44,21,1,,,,,,,,,,,,,,,,,,,,,,,,,,,,,,,,,,,,,,,,
,,,,,V3_044,18,Male,2024-11-01_17h34.35.559,jersey_experiment_5_v3,2023.2.2,Win32,84.74576271,,,,,,,,,,,,,,,,568.6028,570.1555,570.1555,574.4733,return,0.6944,,26.69270833,,,,,,FBP-PT-91.png,0.4,1.2,28,0.75,0,45,45,27,1,,,,,,,,,,,,,,,,,,,,,,,,,,,,,,,,,,,,,,,,
,,,,,V3_044,18,Male,2024-11-01_17h34.35.559,jersey_experiment_5_v3,2023.2.2,Win32,84.74576271,,,,,,,,,,,,,,,,574.4737,576.0263,576.0264,578.2028,return,0.423,,45.44270833,,,,,,FBP-YG-17.png,0.35,1.2,1,0.75,0,46,46,0,1,,,,,,,,,,,,,,,,,,,,,,,,,,,,,,,,,,,,,,,,
,,,,,V3_044,18,Male,2024-11-01_17h34.35.559,jersey_experiment_5_v3,2023.2.2,Win32,84.74576271,,,,,,,,,,,,,,,,578.203,579.7559,579.7559,583.4854,return,0.3851,,52.99479167,,,,,,FBP-PT-81.png,0.4,1.2,23,0.75,0,47,47,22,1,,,,,,,,,,,,,,,,,,,,,,,,,,,,,,,,,,,,,,,,
,,,,,V3_044,18,Male,2024-11-01_17h34.35.559,jersey_experiment_5_v3,2023.2.2,Win32,84.74576271,,,,,,,,,,,,,,,,583.4856,585.0384,585.0384,587.8974,return,0.4728,,68.359375,,,,,,FBP-RB-81.png,0.37,1.2,52,0.75,0,48,48,51,1,,,,,,,,,,,,,,,,,,,,,,,,,,,,,,,,,,,,,,,,
,,,,,V3_044,18,Male,2024-11-01_17h34.35.559,jersey_experiment_5_v3,2023.2.2,Win32,84.74576271,,,,,,,,,,,,,,,,587.8975,589.4503,589.4504,592.3445,return,0.7695,,74.08854167,,,,,,FBP-RB-91.png,0.37,1.2,57,0.75,0,49,49,56,1,,,,,,,,,,,,,,,,,,,,,,,,,,,,,,,,,,,,,,,,
,,,,,V3_044,18,Male,2024-11-01_17h34.35.559,jersey_experiment_5_v3,2023.2.2,Win32,84.74576271,,,,,,,,,,,,,,,,592.3447,593.8976,593.8976,599.5801,return,0.5425,,57.16145833,,,,,,FBP-PT-71.png,0.37,1.2,17,0.75,0,50,50,16,1,,,,,,,,,,,,,,,,,,,,,,,,,,,,,,,,,,,,,,,,
,,,,,V3_044,18,Male,2024-11-01_17h34.35.559,jersey_experiment_5_v3,2023.2.2,Win32,84.74576271,,,,,,,,,,,,,,,,599.5804,601.1332,601.1333,602.8391,return,0.5934,,86.97916667,,,,,,FBP-RB-91.png,0.43,1.2,59,0.75,0,51,51,58,1,,,,,,,,,,,,,,,,,,,,,,,,,,,,,,,,,,,,,,,,
,,,,,V3_044,18,Male,2024-11-01_17h34.35.559,jersey_experiment_5_v3,2023.2.2,Win32,84.74576271,,,,,,,,,,,,,,,,602.8394,604.392,604.392,606.4391,return,0.3943,,36.19791667,,,,,,FBP-PT-91.png,0.35,1.2,26,0.75,0,52,52,25,1,,,,,,,,,,,,,,,,,,,,,,,,,,,,,,,,,,,,,,,,
,,,,,V3_044,18,Male,2024-11-01_17h34.35.559,jersey_experiment_5_v3,2023.2.2,Win32,84.74576271,,,,,,,,,,,,,,,,606.4393,607.9922,607.9922,609.7687,return,0.4755,,74.47916667,,,,,,FBP-PT-71.png,0.45,1.2,20,0.75,0,53,53,19,1,,,,,,,,,,,,,,,,,,,,,,,,,,,,,,,,,,,,,,,,
,,,,,V3_044,18,Male,2024-11-01_17h34.35.559,jersey_experiment_5_v3,2023.2.2,Win32,84.74576271,,,,,,,,,,,,,,,,609.7689,611.3216,611.3216,612.5335,return,0.3725,,75.91145833,,,,,,FBP-RB-81.png,0.4,1.2,53,0.75,0,54,54,52,1,,,,,,,,,,,,,,,,,,,,,,,,,,,,,,,,,,,,,,,,
,,,,,V3_044,18,Male,2024-11-01_17h34.35.559,jersey_experiment_5_v3,2023.2.2,Win32,84.74576271,,,,,,,,,,,,,,,,612.5338,614.0866,614.0866,616.2631,return,0.5475,,63.80208333,,,,,,FBP-YG-18.png,0.37,1.2,7,0.75,0,55,55,6,1,,,,,,,,,,,,,,,,,,,,,,,,,,,,,,,,,,,,,,,,
,,,,,V3_044,18,Male,2024-11-01_17h34.35.559,jersey_experiment_5_v3,2023.2.2,Win32,84.74576271,,,,,,,,,,,,,,,,616.2633,617.8161,617.8161,619.9102,return,0.4173,,55.33854167,,,,,,FBP-YG-17.png,0.37,1.2,2,0.75,0,56,56,1,1,,,,,,,,,,,,,,,,,,,,,,,,,,,,,,,,,,,,,,,,
,,,,,V3_044,18,Male,2024-11-01_17h34.35.559,jersey_experiment_5_v3,2023.2.2,Win32,84.74576271,,,,,,,,,,,,,,,,619.9104,621.4631,621.4632,624.4752,return,1.4375,,39.84375,,,,,,FBP-PT-71.png,0.35,1.2,16,0.75,0,57,57,15,1,,,,,,,,,,,,,,,,,,,,,,,,,,,,,,,,,,,,,,,,
,,,,,V3_044,18,Male,2024-11-01_17h34.35.559,jersey_experiment_5_v3,2023.2.2,Win32,84.74576271,,,,,,,,,,,,,,,,624.4753,626.0281,626.0281,628.5576,return,0.8623,,58.46354167,,,,,,FBP-RB-81.png,0.35,1.2,51,0.75,0,58,58,50,1,,,,,,,,,,,,,,,,,,,,,,,,,,,,,,,,,,,,,,,,
,,,,,V3_044,18,Male,2024-11-01_17h34.35.559,jersey_experiment_5_v3,2023.2.2,Win32,84.74576271,,,,,,,,,,,,,,,,628.5579,630.1106,630.1106,631.3107,return,0.3532,,94.140625,,,,,,FBP-RB-71.png,0.45,1.2,50,0.75,0,59,59,49,1,,,,,,,,,,,,,,,,,,,,,,,,,,,,,,,,,,,,,,,,
,,,,,V3_044,18,Male,2024-11-01_17h34.35.559,jersey_experiment_5_v3,2023.2.2,Win32,84.74576271,,,,,,,,,,,,,,,,,,,,,,,,,,,,,,,,,,,,,,,631.3109,751.3035,,,,,,,,,,,,,,,,,,,,,,,,,,,,,,,,,,,,,,
,,,,,V3_044,18,Male,2024-11-01_17h34.35.559,jersey_experiment_5_v3,2023.2.2,Win32,84.74576271,,,,,,,,,,,,,,,,,,,,,,,,,,,,,,,,,,,,,,,,,751.3036,802.8701,return,51.5588,,,,,,,,,,,,,,,,,,,,,,,,,,,,,,,,,,
,,,,,V3_044,18,Male,2024-11-01_17h34.35.559,jersey_experiment_5_v3,2023.2.2,Win32,84.74576271,,,,,,,,,,,,,,,,802.8718,804.1642,804.1642,808.3173,return,2.2354,,25.13020833,,,,,,FBP-PT-17.png,0.37,1.2,17,0.5,,,,,,,,,,,,,0,0,0,16,1,,,,,,,,,,,,,,,,,,,,,,,,,,,,
,,,,,V3_044,18,Male,2024-11-01_17h34.35.559,jersey_experiment_5_v3,2023.2.2,Win32,84.74576271,,,,,,,,,,,,,,,,808.3176,809.6113,809.6113,812.8585,return,0.5536,,66.66666667,,,,,,FBP-RB-17.png,0.35,1.2,46,0.5,,,,,,,,,,,,,0,1,1,45,1,,,,,,,,,,,,,,,,,,,,,,,,,,,,
,,,,,V3_044,18,Male,2024-11-01_17h34.35.559,jersey_experiment_5_v3,2023.2.2,Win32,84.74576271,,,,,,,,,,,,,,,,812.8588,814.1527,814.1527,815.4234,return,0.4714,,86.328125,,,,,,FBP-RB-17.png,0.45,1.2,50,0.5,,,,,,,,,,,,,0,2,2,49,1,,,,,,,,,,,,,,,,,,,,,,,,,,,,
,,,,,V3_044,18,Male,2024-11-01_17h34.35.559,jersey_experiment_5_v3,2023.2.2,Win32,84.74576271,,,,,,,,,,,,,,,,815.4236,816.7174,816.7175,820.4117,return,0.4486,,82.68229167,,,,,,FBP-PT-17.png,0.45,1.2,20,0.5,,,,,,,,,,,,,0,3,3,19,1,,,,,,,,,,,,,,,,,,,,,,,,,,,,
,,,,,V3_044,18,Male,2024-11-01_17h34.35.559,jersey_experiment_5_v3,2023.2.2,Win32,84.74576271,,,,,,,,,,,,,,,,820.4119,821.706,821.706,825.5766,return,1.6263,,65.49479167,,,,,,FBP-RB-18.png,0.43,1.2,54,0.5,,,,,,,,,,,,,0,4,4,53,1,,,,,,,,,,,,,,,,,,,,,,,,,,,,
,,,,,V3_044,18,Male,2024-11-01_17h34.35.559,jersey_experiment_5_v3,2023.2.2,Win32,84.74576271,,,,,,,,,,,,,,,,825.5769,827.1296,827.1297,828.7297,return,0.4491,,65.49479167,,,,,,FBP-OG-18.png,0.45,1.2,40,0.75,,,,,,,,,,,,,0,5,5,39,1,,,,,,,,,,,,,,,,,,,,,,,,,,,,
,,,,,V3_044,18,Male,2024-11-01_17h34.35.559,jersey_experiment_5_v3,2023.2.2,Win32,84.74576271,,,,,,,,,,,,,,,,828.73,830.0238,830.0238,832.6239,return,0.447,,75.390625,,,,,,FBP-RB-19.png,0.4,1.2,58,0.5,,,,,,,,,,,,,0,6,6,57,1,,,,,,,,,,,,,,,,,,,,,,,,,,,,
,,,,,V3_044,18,Male,2024-11-01_17h34.35.559,jersey_experiment_5_v3,2023.2.2,Win32,84.74576271,,,,,,,,,,,,,,,,832.6243,833.9181,833.9181,835.8476,return,0.4521,,53.64583333,,,,,,FBP-YG-81.png,0.4,1.2,8,0.5,,,,,,,,,,,,,0,7,7,7,1,,,,,,,,,,,,,,,,,,,,,,,,,,,,
,,,,,V3_044,18,Male,2024-11-01_17h34.35.559,jersey_experiment_5_v3,2023.2.2,Win32,84.74576271,,,,,,,,,,,,,,,,835.8478,837.1418,837.1418,839.8123,return,0.3592,,60.15625,,,,,,FBP-YG-81.png,0.43,1.2,9,0.5,,,,,,,,,,,,,0,8,8,8,1,,,,,,,,,,,,,,,,,,,,,,,,,,,,
,,,,,V3_044,18,Male,2024-11-01_17h34.35.559,jersey_experiment_5_v3,2023.2.2,Win32,84.74576271,,,,,,,,,,,,,,,,839.8125,841.1066,841.1066,842.8479,return,0.343,,68.88020833,,,,,,FBP-RB-17.png,0.43,1.2,49,0.5,,,,,,,,,,,,,0,9,9,48,1,,,,,,,,,,,,,,,,,,,,,,,,,,,,
,,,,,V3_044,18,Male,2024-11-01_17h34.35.559,jersey_experiment_5_v3,2023.2.2,Win32,84.74576271,,,,,,,,,,,,,,,,842.8482,844.142,844.142,845.3539,return,0.4269,,68.88020833,,,,,,FBP-PT-18.png,0.45,1.2,25,0.5,,,,,,,,,,,,,0,10,10,24,1,,,,,,,,,,,,,,,,,,,,,,,,,,,,
,,,,,V3_044,18,Male,2024-11-01_17h34.35.559,jersey_experiment_5_v3,2023.2.2,Win32,84.74576271,,,,,,,,,,,,,,,,845.3541,846.648,846.6481,848.9657,return,0.5137,,40.10416667,,,,,,FBP-YG-71.png,0.4,1.2,3,0.5,,,,,,,,,,,,,0,11,11,2,1,,,,,,,,,,,,,,,,,,,,,,,,,,,,
,,,,,V3_044,18,Male,2024-11-01_17h34.35.559,jersey_experiment_5_v3,2023.2.2,Win32,84.74576271,,,,,,,,,,,,,,,,848.966,850.2599,850.26,851.4481,return,0.4523,,40.75520833,,,,,,FBP-PT-18.png,0.4,1.2,23,0.5,,,,,,,,,,,,,0,12,12,22,1,,,,,,,,,,,,,,,,,,,,,,,,,,,,
,,,,,V3_044,18,Male,2024-11-01_17h34.35.559,jersey_experiment_5_v3,2023.2.2,Win32,84.74576271,,,,,,,,,,,,,,,,851.4484,852.7423,852.7423,854.1659,return,0.4191,,29.296875,,,,,,FBP-PT-17.png,0.35,1.2,16,0.5,,,,,,,,,,,,,0,13,13,15,1,,,,,,,,,,,,,,,,,,,,,,,,,,,,
,,,,,V3_044,18,Male,2024-11-01_17h34.35.559,jersey_experiment_5_v3,2023.2.2,Win32,84.74576271,,,,,,,,,,,,,,,,854.1662,855.719,855.719,857.7191,return,0.4753,,57.16145833,,,,,,FBP-OG-18.png,0.35,1.2,36,0.75,,,,,,,,,,,,,0,14,14,35,1,,,,,,,,,,,,,,,,,,,,,,,,,,,,
,,,,,V3_044,18,Male,2024-11-01_17h34.35.559,jersey_experiment_5_v3,2023.2.2,Win32,84.74576271,,,,,,,,,,,,,,,,857.7193,859.0131,859.0131,861.3426,return,0.3896,,73.4375,,,,,,FBP-PT-19.png,0.45,1.2,30,0.5,,,,,,,,,,,,,0,15,15,29,1,,,,,,,,,,,,,,,,,,,,,,,,,,,,
,,,,,V3_044,18,Male,2024-11-01_17h34.35.559,jersey_experiment_5_v3,2023.2.2,Win32,84.74576271,,,,,,,,,,,,,,,,861.3429,862.6367,862.6368,864.3899,return,0.9016,,82.8125,,,,,,FBP-RB-19.png,0.43,1.2,59,0.5,,,,,,,,,,,,,0,16,16,58,1,,,,,,,,,,,,,,,,,,,,,,,,,,,,
,,,,,V3_044,18,Male,2024-11-01_17h34.35.559,jersey_experiment_5_v3,2023.2.2,Win32,84.74576271,,,,,,,,,,,,,,,,864.3901,865.684,865.684,869.0842,return,0.4859,,75.13020833,,,,,,FBP-PT-19.png,0.43,1.2,29,0.5,,,,,,,,,,,,,0,17,17,28,1,,,,,,,,,,,,,,,,,,,,,,,,,,,,
,,,,,V3_044,18,Male,2024-11-01_17h34.35.559,jersey_experiment_5_v3,2023.2.2,Win32,84.74576271,,,,,,,,,,,,,,,,869.0844,870.3783,870.3783,873.4373,return,0.4857,,40.49479167,,,,,,FBP-PT-18.png,0.37,1.2,22,0.5,,,,,,,,,,,,,0,18,18,21,1,,,,,,,,,,,,,,,,,,,,,,,,,,,,
,,,,,V3_044,18,Male,2024-11-01_17h34.35.559,jersey_experiment_5_v3,2023.2.2,Win32,84.74576271,,,,,,,,,,,,,,,,873.4375,874.9903,874.9903,876.7785,return,0.557,,79.03645833,,,,,,FBP-OG-19.png,0.43,1.2,44,0.75,,,,,,,,,,,,,0,19,19,43,1,,,,,,,,,,,,,,,,,,,,,,,,,,,,
,,,,,V3_044,18,Male,2024-11-01_17h34.35.559,jersey_experiment_5_v3,2023.2.2,Win32,84.74576271,,,,,,,,,,,,,,,,876.7787,878.0728,878.0728,881.4139,return,0.4507,,81.38020833,,,,,,FBP-RB-18.png,0.4,1.2,53,0.5,,,,,,,,,,,,,0,20,20,52,1,,,,,,,,,,,,,,,,,,,,,,,,,,,,
,,,,,V3_044,18,Male,2024-11-01_17h34.35.559,jersey_experiment_5_v3,2023.2.2,Win32,84.74576271,,,,,,,,,,,,,,,,881.4142,882.7081,882.7082,884.7788,return,1.083,,25.91145833,,,,,,FBP-PT-18.png,0.35,1.2,21,0.5,,,,,,,,,,,,,0,21,21,20,1,,,,,,,,,,,,,,,,,,,,,,,,,,,,
,,,,,V3_044,18,Male,2024-11-01_17h34.35.559,jersey_experiment_5_v3,2023.2.2,Win32,84.74576271,,,,,,,,,,,,,,,,884.7791,886.0729,886.0729,889.7202,return,1.5544,,20.83333333,,,,,,FBP-PT-19.png,0.37,1.2,27,0.5,,,,,,,,,,,,,0,22,22,26,1,,,,,,,,,,,,,,,,,,,,,,,,,,,,
,,,,,V3_044,18,Male,2024-11-01_17h34.35.559,jersey_experiment_5_v3,2023.2.2,Win32,84.74576271,,,,,,,,,,,,,,,,889.7204,891.0142,891.0143,895.2734,return,0.6609,,53.125,,,,,,FBP-RB-19.png,0.35,1.2,56,0.5,,,,,,,,,,,,,0,23,23,55,1,,,,,,,,,,,,,,,,,,,,,,,,,,,,
,,,,,V3_044,18,Male,2024-11-01_17h34.35.559,jersey_experiment_5_v3,2023.2.2,Win32,84.74576271,,,,,,,,,,,,,,,,895.2736,896.5674,896.5674,899.144,return,0.4991,,59.24479167,,,,,,FBP-RB-18.png,0.37,1.2,52,0.5,,,,,,,,,,,,,0,24,24,51,1,,,,,,,,,,,,,,,,,,,,,,,,,,,,
,,,,,V3_044,18,Male,2024-11-01_17h34.35.559,jersey_experiment_5_v3,2023.2.2,Win32,84.74576271,,,,,,,,,,,,,,,,899.1442,900.4381,900.4381,902.4737,return,0.6035,,76.04166667,,,,,,FBP-RB-17.png,0.4,1.2,48,0.5,,,,,,,,,,,,,0,25,25,47,1,,,,,,,,,,,,,,,,,,,,,,,,,,,,
,,,,,V3_044,18,Male,2024-11-01_17h34.35.559,jersey_experiment_5_v3,2023.2.2,Win32,84.74576271,,,,,,,,,,,,,,,,902.474,904.0266,904.0266,905.9796,return,0.3529,,79.42708333,,,,,,FBP-OG-18.png,0.43,1.2,39,0.75,,,,,,,,,,,,,0,26,26,38,1,,,,,,,,,,,,,,,,,,,,,,,,,,,,
,,,,,V3_044,18,Male,2024-11-01_17h34.35.559,jersey_experiment_5_v3,2023.2.2,Win32,84.74576271,,,,,,,,,,,,,,,,905.9799,907.2738,907.2738,908.4855,return,0.384,,95.44270833,,,,,,FBP-RB-19.png,0.45,1.2,60,0.5,,,,,,,,,,,,,0,27,27,59,1,,,,,,,,,,,,,,,,,,,,,,,,,,,,
,,,,,V3_044,18,Male,2024-11-01_17h34.35.559,jersey_experiment_5_v3,2023.2.2,Win32,84.74576271,,,,,,,,,,,,,,,,908.4857,909.7798,909.7798,912.5327,return,0.62,,89.0625,,,,,,FBP-YG-81.png,0.45,1.2,10,0.5,,,,,,,,,,,,,0,28,28,9,1,,,,,,,,,,,,,,,,,,,,,,,,,,,,
,,,,,V3_044,18,Male,2024-11-01_17h34.35.559,jersey_experiment_5_v3,2023.2.2,Win32,84.74576271,,,,,,,,,,,,,,,,912.5329,913.8268,913.8269,915.7681,return,0.6519,,88.93229167,,,,,,FBP-YG-71.png,0.43,1.2,4,0.5,,,,,,,,,,,,,0,29,29,3,1,,,,,,,,,,,,,,,,,,,,,,,,,,,,
,,,,,V3_044,18,Male,2024-11-01_17h34.35.559,jersey_experiment_5_v3,2023.2.2,Win32,84.74576271,,,,,,,,,,,,,,,,915.7684,917.3212,917.3213,918.9566,return,0.387,,70.83333333,,,,,,FBP-OG-17.png,0.4,1.2,33,0.75,,,,,,,,,,,,,0,30,30,32,1,,,,,,,,,,,,,,,,,,,,,,,,,,,,
,,,,,V3_044,18,Male,2024-11-01_17h34.35.559,jersey_experiment_5_v3,2023.2.2,Win32,84.74576271,,,,,,,,,,,,,,,,918.9569,920.2506,920.2507,921.7214,return,0.5417,,34.375,,,,,,FBP-YG-71.png,0.35,1.2,1,0.5,,,,,,,,,,,,,0,31,31,0,1,,,,,,,,,,,,,,,,,,,,,,,,,,,,
,,,,,V3_044,18,Male,2024-11-01_17h34.35.559,jersey_experiment_5_v3,2023.2.2,Win32,84.74576271,,,,,,,,,,,,,,,,921.7216,923.0155,923.0156,925.7096,return,0.552,,39.0625,,,,,,FBP-YG-91.png,0.35,1.2,11,0.5,,,,,,,,,,,,,0,32,32,10,1,,,,,,,,,,,,,,,,,,,,,,,,,,,,
,,,,,V3_044,18,Male,2024-11-01_17h34.35.559,jersey_experiment_5_v3,2023.2.2,Win32,84.74576271,,,,,,,,,,,,,,,,925.7098,927.2627,927.2627,928.9334,return,0.4399,,64.32291667,,,,,,FBP-OG-19.png,0.37,1.2,42,0.75,,,,,,,,,,,,,0,33,33,41,1,,,,,,,,,,,,,,,,,,,,,,,,,,,,
,,,,,V3_044,18,Male,2024-11-01_17h34.35.559,jersey_experiment_5_v3,2023.2.2,Win32,84.74576271,,,,,,,,,,,,,,,,928.9337,930.2276,930.2276,934.9807,return,3.5247,,66.66666667,,,,,,FBP-YG-91.png,0.43,1.2,14,0.5,,,,,,,,,,,,,0,34,34,13,1,,,,,,,,,,,,,,,,,,,,,,,,,,,,
,,,,,V3_044,18,Male,2024-11-01_17h34.35.559,jersey_experiment_5_v3,2023.2.2,Win32,84.74576271,,,,,,,,,,,,,,,,934.981,936.2748,936.2748,939.063,return,0.3473,,56.77083333,,,,,,FBP-PT-17.png,0.4,1.2,18,0.5,,,,,,,,,,,,,0,35,35,17,1,,,,,,,,,,,,,,,,,,,,,,,,,,,,
,,,,,V3_044,18,Male,2024-11-01_17h34.35.559,jersey_experiment_5_v3,2023.2.2,Win32,84.74576271,,,,,,,,,,,,,,,,939.0633,940.3573,940.3573,943.6045,return,0.9612,,69.921875,,,,,,FBP-PT-18.png,0.43,1.2,24,0.5,,,,,,,,,,,,,0,36,36,23,1,,,,,,,,,,,,,,,,,,,,,,,,,,,,
,,,,,V3_044,18,Male,2024-11-01_17h34.35.559,jersey_experiment_5_v3,2023.2.2,Win32,84.74576271,,,,,,,,,,,,,,,,943.6047,944.8986,944.8986,946.9576,return,0.3868,,65.625,,,,,,FBP-YG-71.png,0.45,1.2,5,0.5,,,,,,,,,,,,,0,37,37,4,1,,,,,,,,,,,,,,,,,,,,,,,,,,,,
,,,,,V3_044,18,Male,2024-11-01_17h34.35.559,jersey_experiment_5_v3,2023.2.2,Win32,84.74576271,,,,,,,,,,,,,,,,946.9579,948.2517,948.2517,951.4636,return,0.4276,,44.66145833,,,,,,FBP-RB-18.png,0.35,1.2,51,0.5,,,,,,,,,,,,,0,38,38,50,1,,,,,,,,,,,,,,,,,,,,,,,,,,,,
,,,,,V3_044,18,Male,2024-11-01_17h34.35.559,jersey_experiment_5_v3,2023.2.2,Win32,84.74576271,,,,,,,,,,,,,,,,951.4639,953.0166,953.0166,954.6873,return,0.3926,,80.078125,,,,,,FBP-OG-19.png,0.45,1.2,45,0.75,,,,,,,,,,,,,0,39,39,44,1,,,,,,,,,,,,,,,,,,,,,,,,,,,,
,,,,,V3_044,18,Male,2024-11-01_17h34.35.559,jersey_experiment_5_v3,2023.2.2,Win32,84.74576271,,,,,,,,,,,,,,,,954.6875,956.2402,956.2402,958.9344,return,0.7461,,59.63541667,,,,,,FBP-OG-19.png,0.35,1.2,41,0.75,,,,,,,,,,,,,0,40,40,40,1,,,,,,,,,,,,,,,,,,,,,,,,,,,,
,,,,,V3_044,18,Male,2024-11-01_17h34.35.559,jersey_experiment_5_v3,2023.2.2,Win32,84.74576271,,,,,,,,,,,,,,,,958.9347,960.4874,960.4874,961.5934,return,0.5526,,59.50520833,,,,,,FBP-OG-17.png,0.37,1.2,32,0.75,,,,,,,,,,,,,0,41,41,31,1,,,,,,,,,,,,,,,,,,,,,,,,,,,,
,,,,,V3_044,18,Male,2024-11-01_17h34.35.559,jersey_experiment_5_v3,2023.2.2,Win32,84.74576271,,,,,,,,,,,,,,,,961.5936,963.1463,963.1463,964.3935,return,0.4271,,70.3125,,,,,,FBP-OG-18.png,0.4,1.2,38,0.75,,,,,,,,,,,,,0,42,42,37,1,,,,,,,,,,,,,,,,,,,,,,,,,,,,
,,,,,V3_044,18,Male,2024-11-01_17h34.35.559,jersey_experiment_5_v3,2023.2.2,Win32,84.74576271,,,,,,,,,,,,,,,,964.3938,965.6876,965.6877,971.8055,return,0.3773,,78.38541667,,,,,,FBP-YG-91.png,0.37,1.2,12,0.5,,,,,,,,,,,,,0,43,43,11,1,,,,,,,,,,,,,,,,,,,,,,,,,,,,
,,,,,V3_044,18,Male,2024-11-01_17h34.35.559,jersey_experiment_5_v3,2023.2.2,Win32,84.74576271,,,,,,,,,,,,,,,,971.8057,973.0996,973.0997,977.4175,return,0.4723,,55.98958333,,,,,,FBP-RB-19.png,0.37,1.2,57,0.5,,,,,,,,,,,,,0,44,44,56,1,,,,,,,,,,,,,,,,,,,,,,,,,,,,
,,,,,V3_044,18,Male,2024-11-01_17h34.35.559,jersey_experiment_5_v3,2023.2.2,Win32,84.74576271,,,,,,,,,,,,,,,,977.4178,978.7117,978.7117,982.2176,return,0.684,,55.98958333,,,,,,FBP-YG-71.png,0.37,1.2,2,0.5,,,,,,,,,,,,,0,45,45,1,1,,,,,,,,,,,,,,,,,,,,,,,,,,,,
,,,,,V3_044,18,Male,2024-11-01_17h34.35.559,jersey_experiment_5_v3,2023.2.2,Win32,84.74576271,,,,,,,,,,,,,,,,982.2178,983.5118,983.5119,986.6531,return,0.306,,37.63020833,,,,,,FBP-YG-81.png,0.35,1.2,6,0.5,,,,,,,,,,,,,0,46,46,5,1,,,,,,,,,,,,,,,,,,,,,,,,,,,,
,,,,,V3_044,18,Male,2024-11-01_17h34.35.559,jersey_experiment_5_v3,2023.2.2,Win32,84.74576271,,,,,,,,,,,,,,,,986.6535,987.9472,987.9473,990.4061,return,0.405,,44.921875,,,,,,FBP-PT-19.png,0.4,1.2,28,0.5,,,,,,,,,,,,,0,47,47,27,1,,,,,,,,,,,,,,,,,,,,,,,,,,,,
,,,,,V3_044,18,Male,2024-11-01_17h34.35.559,jersey_experiment_5_v3,2023.2.2,Win32,84.74576271,,,,,,,,,,,,,,,,990.4064,991.9593,991.9593,993.6299,return,0.5414,,72.52604167,,,,,,FBP-OG-19.png,0.4,1.2,43,0.75,,,,,,,,,,,,,0,48,48,42,1,,,,,,,,,,,,,,,,,,,,,,,,,,,,
,,,,,V3_044,18,Male,2024-11-01_17h34.35.559,jersey_experiment_5_v3,2023.2.2,Win32,84.74576271,,,,,,,,,,,,,,,,993.6302,994.924,994.9241,997.1947,return,0.4023,,72.52604167,,,,,,FBP-RB-17.png,0.37,1.2,47,0.5,,,,,,,,,,,,,0,49,49,46,1,,,,,,,,,,,,,,,,,,,,,,,,,,,,
,,,,,V3_044,18,Male,2024-11-01_17h34.35.559,jersey_experiment_5_v3,2023.2.2,Win32,84.74576271,,,,,,,,,,,,,,,,997.1949,998.4888,998.4889,1000.7477,return,0.388,,83.33333333,,,,,,FBP-RB-18.png,0.45,1.2,55,0.5,,,,,,,,,,,,,0,50,50,54,1,,,,,,,,,,,,,,,,,,,,,,,,,,,,
,,,,,V3_044,18,Male,2024-11-01_17h34.35.559,jersey_experiment_5_v3,2023.2.2,Win32,84.74576271,,,,,,,,,,,,,,,,1000.7481,1002.0419,1002.042,1004.1714,return,0.5801,,71.09375,,,,,,FBP-PT-17.png,0.43,1.2,19,0.5,,,,,,,,,,,,,0,51,51,18,1,,,,,,,,,,,,,,,,,,,,,,,,,,,,
,,,,,V3_044,18,Male,2024-11-01_17h34.35.559,jersey_experiment_5_v3,2023.2.2,Win32,84.74576271,,,,,,,,,,,,,,,,1004.1717,1005.4656,1005.4656,1011.0069,return,0.5515,,42.70833333,,,,,,FBP-YG-81.png,0.37,1.2,7,0.5,,,,,,,,,,,,,0,52,52,6,1,,,,,,,,,,,,,,,,,,,,,,,,,,,,
,,,,,V3_044,18,Male,2024-11-01_17h34.35.559,jersey_experiment_5_v3,2023.2.2,Win32,84.74576271,,,,,,,,,,,,,,,,1011.0072,1012.56,1012.56,1014.8778,return,0.5418,,90.234375,,,,,,FBP-OG-17.png,0.45,1.2,35,0.75,,,,,,,,,,,,,0,53,53,34,1,,,,,,,,,,,,,,,,,,,,,,,,,,,,
,,,,,V3_044,18,Male,2024-11-01_17h34.35.559,jersey_experiment_5_v3,2023.2.2,Win32,84.74576271,,,,,,,,,,,,,,,,1014.878,1016.1717,1016.1718,1018.9483,return,0.4773,,64.71354167,,,,,,FBP-YG-91.png,0.45,1.2,15,0.5,,,,,,,,,,,,,0,54,54,14,1,,,,,,,,,,,,,,,,,,,,,,,,,,,,
,,,,,V3_044,18,Male,2024-11-01_17h34.35.559,jersey_experiment_5_v3,2023.2.2,Win32,84.74576271,,,,,,,,,,,,,,,,1018.9486,1020.5014,1020.5015,1026.1017,return,0.3956,,53.125,,,,,,FBP-OG-17.png,0.35,1.2,31,0.75,,,,,,,,,,,,,0,55,55,30,1,,,,,,,,,,,,,,,,,,,,,,,,,,,,
,,,,,V3_044,18,Male,2024-11-01_17h34.35.559,jersey_experiment_5_v3,2023.2.2,Win32,84.74576271,,,,,,,,,,,,,,,,1026.1019,1027.3959,1027.3959,1030.6783,return,0.3832,,23.69791667,,,,,,FBP-PT-19.png,0.35,1.2,26,0.5,,,,,,,,,,,,,0,56,56,25,1,,,,,,,,,,,,,,,,,,,,,,,,,,,,
,,,,,V3_044,18,Male,2024-11-01_17h34.35.559,jersey_experiment_5_v3,2023.2.2,Win32,84.74576271,,,,,,,,,,,,,,,,1030.6784,1032.2313,1032.2313,1033.8313,return,0.3587,,64.71354167,,,,,,FBP-OG-17.png,0.43,1.2,34,0.75,,,,,,,,,,,,,0,57,57,33,1,,,,,,,,,,,,,,,,,,,,,,,,,,,,
,,,,,V3_044,18,Male,2024-11-01_17h34.35.559,jersey_experiment_5_v3,2023.2.2,Win32,84.74576271,,,,,,,,,,,,,,,,1033.8316,1035.1255,1035.1256,1038.1373,return,0.3565,,43.88020833,,,,,,FBP-YG-91.png,0.4,1.2,13,0.5,,,,,,,,,,,,,0,58,58,12,1,,,,,,,,,,,,,,,,,,,,,,,,,,,,
,,,,,V3_044,18,Male,2024-11-01_17h34.35.559,jersey_experiment_5_v3,2023.2.2,Win32,84.74576271,,,,,,,,,,,,,,,,1038.1376,1039.6904,1039.6905,1041.6081,return,0.3462,,71.484375,,,,,,FBP-OG-18.png,0.37,1.2,37,0.75,,,,,,,,,,,,,0,59,59,36,1,,,,,,,,,,,,,,,,,,,,,,,,,,,,
,,,,,V3_044,18,Male,2024-11-01_17h34.35.559,jersey_experiment_5_v3,2023.2.2,Win32,84.74576271,,,,,,,,,,,,,,,,1041.6099,1042.9022,1042.9022,1044.3729,return,0.4653,,83.203125,,,,,,FBP-RB-71.png,0.4,1.2,48,0.5,,,,,,,,,,,,,,,,,,0,0,0,47,1,,,,,,,,,,,,,,,,,,,,,,,
,,,,,V3_044,18,Male,2024-11-01_17h34.35.559,jersey_experiment_5_v3,2023.2.2,Win32,84.74576271,,,,,,,,,,,,,,,,1044.3732,1045.6671,1045.6671,1047.326,return,0.4494,,94.140625,,,,,,FBP-RB-81.png,0.43,1.2,54,0.5,,,,,,,,,,,,,,,,,,0,1,1,53,1,,,,,,,,,,,,,,,,,,,,,,,
,,,,,V3_044,18,Male,2024-11-01_17h34.35.559,jersey_experiment_5_v3,2023.2.2,Win32,84.74576271,,,,,,,,,,,,,,,,1047.3262,1048.879,1048.879,1050.7496,return,0.4324,,80.20833333,,,,,,FBP-OG-81.png,0.37,1.2,37,0.75,,,,,,,,,,,,,,,,,,0,2,2,36,1,,,,,,,,,,,,,,,,,,,,,,,
,,,,,V3_044,18,Male,2024-11-01_17h34.35.559,jersey_experiment_5_v3,2023.2.2,Win32,84.74576271,,,,,,,,,,,,,,,,1050.7499,1052.0437,1052.0438,1055.0792,return,0.3669,,80.859375,,,,,,FBP-PT-81.png,0.45,1.2,25,0.5,,,,,,,,,,,,,,,,,,0,3,3,24,1,,,,,,,,,,,,,,,,,,,,,,,
,,,,,V3_044,18,Male,2024-11-01_17h34.35.559,jersey_experiment_5_v3,2023.2.2,Win32,84.74576271,,,,,,,,,,,,,,,,1055.0794,1056.3733,1056.3733,1060.8088,return,2.6278,,35.9375,,,,,,FBP-PT-91.png,0.37,1.2,27,0.5,,,,,,,,,,,,,,,,,,0,4,4,26,1,,,,,,,,,,,,,,,,,,,,,,,
,,,,,V3_044,18,Male,2024-11-01_17h34.35.559,jersey_experiment_5_v3,2023.2.2,Win32,84.74576271,,,,,,,,,,,,,,,,1060.809,1062.103,1062.1031,1064.6796,return,0.523,,58.203125,,,,,,FBP-PT-71.png,0.4,1.2,18,0.5,,,,,,,,,,,,,,,,,,0,5,5,17,1,,,,,,,,,,,,,,,,,,,,,,,
,,,,,V3_044,18,Male,2024-11-01_17h34.35.559,jersey_experiment_5_v3,2023.2.2,Win32,84.74576271,,,,,,,,,,,,,,,,1064.6798,1065.9737,1065.9737,1071.5975,return,0.4238,,58.72395833,,,,,,FBP-YG-18.png,0.37,1.2,7,0.5,,,,,,,,,,,,,,,,,,0,6,6,6,1,,,,,,,,,,,,,,,,,,,,,,,
,,,,,V3_044,18,Male,2024-11-01_17h34.35.559,jersey_experiment_5_v3,2023.2.2,Win32,84.74576271,,,,,,,,,,,,,,,,1071.5978,1072.8916,1072.8917,1076.9269,return,0.5867,,61.97916667,,,,,,FBP-PT-81.png,0.4,1.2,23,0.5,,,,,,,,,,,,,,,,,,0,7,7,22,1,,,,,,,,,,,,,,,,,,,,,,,
,,,,,V3_044,18,Male,2024-11-01_17h34.35.559,jersey_experiment_5_v3,2023.2.2,Win32,84.74576271,,,,,,,,,,,,,,,,1076.9272,1078.2211,1078.2212,1086.4449,return,0.4328,,63.15104167,,,,,,FBP-YG-19.png,0.37,1.2,12,0.5,,,,,,,,,,,,,,,,,,0,8,8,11,1,,,,,,,,,,,,,,,,,,,,,,,
,,,,,V3_044,18,Male,2024-11-01_17h34.35.559,jersey_experiment_5_v3,2023.2.2,Win32,84.74576271,,,,,,,,,,,,,,,,1086.4452,1087.7393,1087.7393,1089.5746,return,0.4148,,74.21875,,,,,,FBP-PT-71.png,0.45,1.2,20,0.5,,,,,,,,,,,,,,,,,,0,9,9,19,1,,,,,,,,,,,,,,,,,,,,,,,
,,,,,V3_044,18,Male,2024-11-01_17h34.35.559,jersey_experiment_5_v3,2023.2.2,Win32,84.74576271,,,,,,,,,,,,,,,,1089.5748,1091.1275,1091.1275,1098.0101,return,3.6263,,64.71354167,,,,,,FBP-OG-91.png,0.4,1.2,43,0.75,,,,,,,,,,,,,,,,,,0,10,10,42,1,,,,,,,,,,,,,,,,,,,,,,,
,,,,,V3_044,18,Male,2024-11-01_17h34.35.559,jersey_experiment_5_v3,2023.2.2,Win32,84.74576271,,,,,,,,,,,,,,,,1098.0103,1099.3043,1099.3043,1101.0221,return,0.377,,73.4375,,,,,,FBP-RB-71.png,0.43,1.2,49,0.5,,,,,,,,,,,,,,,,,,0,11,11,48,1,,,,,,,,,,,,,,,,,,,,,,,
,,,,,V3_044,18,Male,2024-11-01_17h34.35.559,jersey_experiment_5_v3,2023.2.2,Win32,84.74576271,,,,,,,,,,,,,,,,1101.0223,1102.3162,1102.3162,1106.1988,return,0.7006,,40.234375,,,,,,FBP-YG-19.png,0.4,1.2,13,0.5,,,,,,,,,,,,,,,,,,0,12,12,12,1,,,,,,,,,,,,,,,,,,,,,,,
,,,,,V3_044,18,Male,2024-11-01_17h34.35.559,jersey_experiment_5_v3,2023.2.2,Win32,84.74576271,,,,,,,,,,,,,,,,1106.199,1107.4929,1107.4929,1112.5049,return,2.5807,,63.93229167,,,,,,FBP-PT-71.png,0.43,1.2,19,0.5,,,,,,,,,,,,,,,,,,0,13,13,18,1,,,,,,,,,,,,,,,,,,,,,,,
,,,,,V3_044,18,Male,2024-11-01_17h34.35.559,jersey_experiment_5_v3,2023.2.2,Win32,84.74576271,,,,,,,,,,,,,,,,1112.5052,1114.0578,1114.0579,1115.352,return,0.4874,,77.60416667,,,,,,FBP-OG-81.png,0.4,1.2,38,0.75,,,,,,,,,,,,,,,,,,0,14,14,37,1,,,,,,,,,,,,,,,,,,,,,,,
,,,,,V3_044,18,Male,2024-11-01_17h34.35.559,jersey_experiment_5_v3,2023.2.2,Win32,84.74576271,,,,,,,,,,,,,,,,1115.3523,1116.905,1116.9051,1118.5874,return,0.4018,,61.19791667,,,,,,FBP-OG-91.png,0.37,1.2,42,0.75,,,,,,,,,,,,,,,,,,0,15,15,41,1,,,,,,,,,,,,,,,,,,,,,,,
,,,,,V3_044,18,Male,2024-11-01_17h34.35.559,jersey_experiment_5_v3,2023.2.2,Win32,84.74576271,,,,,,,,,,,,,,,,1118.5877,1119.8815,1119.8816,1124.8935,return,0.5649,,69.53125,,,,,,FBP-RB-71.png,0.35,1.2,46,0.5,,,,,,,,,,,,,,,,,,0,16,16,45,1,,,,,,,,,,,,,,,,,,,,,,,
,,,,,V3_044,18,Male,2024-11-01_17h34.35.559,jersey_experiment_5_v3,2023.2.2,Win32,84.74576271,,,,,,,,,,,,,,,,1124.8938,1126.1877,1126.1877,1127.5406,return,0.4199,,85.546875,,,,,,FBP-RB-71.png,0.45,1.2,50,0.5,,,,,,,,,,,,,,,,,,0,17,17,49,1,,,,,,,,,,,,,,,,,,,,,,,
,,,,,V3_044,18,Male,2024-11-01_17h34.35.559,jersey_experiment_5_v3,2023.2.2,Win32,84.74576271,,,,,,,,,,,,,,,,1127.5409,1129.0937,1129.0938,1131.5761,return,0.4623,,67.05729167,,,,,,FBP-OG-91.png,0.35,1.2,41,0.75,,,,,,,,,,,,,,,,,,0,18,18,40,1,,,,,,,,,,,,,,,,,,,,,,,
,,,,,V3_044,18,Male,2024-11-01_17h34.35.559,jersey_experiment_5_v3,2023.2.2,Win32,84.74576271,,,,,,,,,,,,,,,,1131.5763,1133.1291,1133.1291,1134.635,return,0.4574,,72.265625,,,,,,FBP-OG-71.png,0.4,1.2,33,0.75,,,,,,,,,,,,,,,,,,0,19,19,32,1,,,,,,,,,,,,,,,,,,,,,,,
,,,,,V3_044,18,Male,2024-11-01_17h34.35.559,jersey_experiment_5_v3,2023.2.2,Win32,84.74576271,,,,,,,,,,,,,,,,1134.6353,1135.9292,1135.9292,1137.894,return,0.466,,72.39583333,,,,,,FBP-YG-17.png,0.45,1.2,5,0.5,,,,,,,,,,,,,,,,,,0,20,20,4,1,,,,,,,,,,,,,,,,,,,,,,,
,,,,,V3_044,18,Male,2024-11-01_17h34.35.559,jersey_experiment_5_v3,2023.2.2,Win32,84.74576271,,,,,,,,,,,,,,,,1137.8942,1139.1881,1139.1882,1148.7297,return,0.4269,,60.546875,,,,,,FBP-RB-91.png,0.4,1.2,58,0.5,,,,,,,,,,,,,,,,,,0,21,21,57,1,,,,,,,,,,,,,,,,,,,,,,,
,,,,,V3_044,18,Male,2024-11-01_17h34.35.559,jersey_experiment_5_v3,2023.2.2,Win32,84.74576271,,,,,,,,,,,,,,,,1148.73,1150.0238,1150.0238,1151.6474,return,0.5178,,76.30208333,,,,,,FBP-RB-91.png,0.43,1.2,59,0.5,,,,,,,,,,,,,,,,,,0,22,22,58,1,,,,,,,,,,,,,,,,,,,,,,,
,,,,,V3_044,18,Male,2024-11-01_17h34.35.559,jersey_experiment_5_v3,2023.2.2,Win32,84.74576271,,,,,,,,,,,,,,,,1151.6477,1152.9416,1152.9416,1157.8007,return,0.4473,,49.609375,,,,,,FBP-YG-17.png,0.35,1.2,1,0.5,,,,,,,,,,,,,,,,,,0,23,23,0,1,,,,,,,,,,,,,,,,,,,,,,,
,,,,,V3_044,18,Male,2024-11-01_17h34.35.559,jersey_experiment_5_v3,2023.2.2,Win32,84.74576271,,,,,,,,,,,,,,,,1157.8008,1159.0948,1159.0948,1160.2477,return,0.4875,,49.609375,,,,,,FBP-YG-19.png,0.35,1.2,11,0.5,,,,,,,,,,,,,,,,,,0,24,24,10,1,,,,,,,,,,,,,,,,,,,,,,,
,,,,,V3_044,18,Male,2024-11-01_17h34.35.559,jersey_experiment_5_v3,2023.2.2,Win32,84.74576271,,,,,,,,,,,,,,,,1160.2479,1161.5419,1161.542,1162.8596,return,0.4222,,62.23958333,,,,,,FBP-YG-18.png,0.45,1.2,10,0.5,,,,,,,,,,,,,,,,,,0,25,25,9,1,,,,,,,,,,,,,,,,,,,,,,,
,,,,,V3_044,18,Male,2024-11-01_17h34.35.559,jersey_experiment_5_v3,2023.2.2,Win32,84.74576271,,,,,,,,,,,,,,,,1162.8599,1164.1538,1164.1538,1168.6009,return,0.4868,,56.90104167,,,,,,FBP-YG-17.png,0.4,1.2,3,0.5,,,,,,,,,,,,,,,,,,0,26,26,2,1,,,,,,,,,,,,,,,,,,,,,,,
,,,,,V3_044,18,Male,2024-11-01_17h34.35.559,jersey_experiment_5_v3,2023.2.2,Win32,84.74576271,,,,,,,,,,,,,,,,1168.6012,1169.8952,1169.8952,1172.0952,return,0.4713,,65.75520833,,,,,,FBP-RB-71.png,0.37,1.2,47,0.5,,,,,,,,,,,,,,,,,,0,27,27,46,1,,,,,,,,,,,,,,,,,,,,,,,
,,,,,V3_044,18,Male,2024-11-01_17h34.35.559,jersey_experiment_5_v3,2023.2.2,Win32,84.74576271,,,,,,,,,,,,,,,,1172.0955,1173.3894,1173.3895,1174.8718,return,0.6977,,65.75520833,,,,,,FBP-RB-91.png,0.35,1.2,56,0.5,,,,,,,,,,,,,,,,,,0,28,28,55,1,,,,,,,,,,,,,,,,,,,,,,,
,,,,,V3_044,18,Male,2024-11-01_17h34.35.559,jersey_experiment_5_v3,2023.2.2,Win32,84.74576271,,,,,,,,,,,,,,,,1174.872,1176.1659,1176.166,1180.072,return,0.3896,,73.30729167,,,,,,FBP-PT-91.png,0.4,1.2,28,0.5,,,,,,,,,,,,,,,,,,0,29,29,27,1,,,,,,,,,,,,,,,,,,,,,,,
,,,,,V3_044,18,Male,2024-11-01_17h34.35.559,jersey_experiment_5_v3,2023.2.2,Win32,84.74576271,,,,,,,,,,,,,,,,1180.0723,1181.625,1181.625,1183.1663,return,0.6116,,77.34375,,,,,,FBP-OG-91.png,0.43,1.2,44,0.75,,,,,,,,,,,,,,,,,,0,30,30,43,1,,,,,,,,,,,,,,,,,,,,,,,
,,,,,V3_044,18,Male,2024-11-01_17h34.35.559,jersey_experiment_5_v3,2023.2.2,Win32,84.74576271,,,,,,,,,,,,,,,,1183.1666,1184.4604,1184.4605,1189.2724,return,1.1191,,63.671875,,,,,,FBP-PT-91.png,0.35,1.2,26,0.5,,,,,,,,,,,,,,,,,,0,31,31,25,1,,,,,,,,,,,,,,,,,,,,,,,
,,,,,V3_044,18,Male,2024-11-01_17h34.35.559,jersey_experiment_5_v3,2023.2.2,Win32,84.74576271,,,,,,,,,,,,,,,,1189.2727,1190.5665,1190.5665,1195.8373,return,1.6229,,86.58854167,,,,,,FBP-RB-91.png,0.45,1.2,60,0.5,,,,,,,,,,,,,,,,,,0,32,32,59,1,,,,,,,,,,,,,,,,,,,,,,,
,,,,,V3_044,18,Male,2024-11-01_17h34.35.559,jersey_experiment_5_v3,2023.2.2,Win32,84.74576271,,,,,,,,,,,,,,,,1195.8376,1197.1315,1197.1315,1201.6139,return,0.4606,,74.08854167,,,,,,FBP-YG-19.png,0.43,1.2,14,0.5,,,,,,,,,,,,,,,,,,0,33,33,13,1,,,,,,,,,,,,,,,,,,,,,,,
,,,,,V3_044,18,Male,2024-11-01_17h34.35.559,jersey_experiment_5_v3,2023.2.2,Win32,84.74576271,,,,,,,,,,,,,,,,1201.6142,1202.908,1202.9081,1205.7082,return,0.4,,62.76041667,,,,,,FBP-PT-91.png,0.45,1.2,30,0.5,,,,,,,,,,,,,,,,,,0,34,34,29,1,,,,,,,,,,,,,,,,,,,,,,,
,,,,,V3_044,18,Male,2024-11-01_17h34.35.559,jersey_experiment_5_v3,2023.2.2,Win32,84.74576271,,,,,,,,,,,,,,,,1205.7084,1207.0024,1207.0024,1212.0849,return,3.1101,,56.77083333,,,,,,FBP-PT-81.png,0.43,1.2,24,0.5,,,,,,,,,,,,,,,,,,0,35,35,23,1,,,,,,,,,,,,,,,,,,,,,,,
,,,,,V3_044,18,Male,2024-11-01_17h34.35.559,jersey_experiment_5_v3,2023.2.2,Win32,84.74576271,,,,,,,,,,,,,,,,1212.0852,1213.6378,1213.6379,1215.791,return,0.3616,,77.60416667,,,,,,FBP-OG-81.png,0.45,1.2,40,0.75,,,,,,,,,,,,,,,,,,0,36,36,39,1,,,,,,,,,,,,,,,,,,,,,,,
,,,,,V3_044,18,Male,2024-11-01_17h34.35.559,jersey_experiment_5_v3,2023.2.2,Win32,84.74576271,,,,,,,,,,,,,,,,1215.7912,1217.3439,1217.3439,1219.3321,return,0.4204,,43.09895833,,,,,,FBP-OG-71.png,0.37,1.2,32,0.75,,,,,,,,,,,,,,,,,,0,37,37,31,1,,,,,,,,,,,,,,,,,,,,,,,
,,,,,V3_044,18,Male,2024-11-01_17h34.35.559,jersey_experiment_5_v3,2023.2.2,Win32,84.74576271,,,,,,,,,,,,,,,,1219.3324,1220.6265,1220.6265,1222.8853,return,0.4428,,81.640625,,,,,,FBP-RB-81.png,0.4,1.2,53,0.5,,,,,,,,,,,,,,,,,,0,38,38,52,1,,,,,,,,,,,,,,,,,,,,,,,
,,,,,V3_044,18,Male,2024-11-01_17h34.35.559,jersey_experiment_5_v3,2023.2.2,Win32,84.74576271,,,,,,,,,,,,,,,,1222.8856,1224.4384,1224.4384,1225.8384,return,0.4945,,82.421875,,,,,,FBP-OG-81.png,0.43,1.2,39,0.75,,,,,,,,,,,,,,,,,,0,39,39,38,1,,,,,,,,,,,,,,,,,,,,,,,
,,,,,V3_044,18,Male,2024-11-01_17h34.35.559,jersey_experiment_5_v3,2023.2.2,Win32,84.74576271,,,,,,,,,,,,,,,,1225.8387,1227.1325,1227.1326,1231.321,return,0.5788,,33.33333333,,,,,,FBP-PT-71.png,0.37,1.2,17,0.5,,,,,,,,,,,,,,,,,,0,40,40,16,1,,,,,,,,,,,,,,,,,,,,,,,
,,,,,V3_044,18,Male,2024-11-01_17h34.35.559,jersey_experiment_5_v3,2023.2.2,Win32,84.74576271,,,,,,,,,,,,,,,,1231.3213,1232.6152,1232.6152,1234.7563,return,0.3381,,56.90104167,,,,,,FBP-YG-18.png,0.4,1.2,8,0.5,,,,,,,,,,,,,,,,,,0,41,41,7,1,,,,,,,,,,,,,,,,,,,,,,,
,,,,,V3_044,18,Male,2024-11-01_17h34.35.559,jersey_experiment_5_v3,2023.2.2,Win32,84.74576271,,,,,,,,,,,,,,,,1234.7565,1236.0505,1236.0505,1241.2155,return,0.3913,,69.140625,,,,,,FBP-PT-91.png,0.43,1.2,29,0.5,,,,,,,,,,,,,,,,,,0,42,42,28,1,,,,,,,,,,,,,,,,,,,,,,,
,,,,,V3_044,18,Male,2024-11-01_17h34.35.559,jersey_experiment_5_v3,2023.2.2,Win32,84.74576271,,,,,,,,,,,,,,,,1241.2157,1242.5095,1242.5095,1245.5097,return,0.418,,57.16145833,,,,,,FBP-RB-81.png,0.37,1.2,52,0.5,,,,,,,,,,,,,,,,,,0,43,43,51,1,,,,,,,,,,,,,,,,,,,,,,,
,,,,,V3_044,18,Male,2024-11-01_17h34.35.559,jersey_experiment_5_v3,2023.2.2,Win32,84.74576271,,,,,,,,,,,,,,,,1245.51,1246.8039,1246.8039,1254.1102,return,1.1088,,71.484375,,,,,,FBP-YG-18.png,0.35,1.2,6,0.5,,,,,,,,,,,,,,,,,,0,44,44,5,1,,,,,,,,,,,,,,,,,,,,,,,
,,,,,V3_044,18,Male,2024-11-01_17h34.35.559,jersey_experiment_5_v3,2023.2.2,Win32,84.74576271,,,,,,,,,,,,,,,,1254.1103,1255.404,1255.4041,1256.6984,return,0.51,,88.41145833,,,,,,FBP-RB-81.png,0.45,1.2,55,0.5,,,,,,,,,,,,,,,,,,0,45,45,54,1,,,,,,,,,,,,,,,,,,,,,,,
,,,,,V3_044,18,Male,2024-11-01_17h34.35.559,jersey_experiment_5_v3,2023.2.2,Win32,84.74576271,,,,,,,,,,,,,,,,1256.6987,1257.9926,1257.9926,1263.8399,return,0.4705,,63.93229167,,,,,,FBP-YG-17.png,0.37,1.2,2,0.5,,,,,,,,,,,,,,,,,,0,46,46,1,1,,,,,,,,,,,,,,,,,,,,,,,
,,,,,V3_044,18,Male,2024-11-01_17h34.35.559,jersey_experiment_5_v3,2023.2.2,Win32,84.74576271,,,,,,,,,,,,,,,,1263.8402,1265.3928,1265.3929,1266.5693,return,0.4275,,78.77604167,,,,,,FBP-OG-71.png,0.43,1.2,34,0.75,,,,,,,,,,,,,,,,,,0,47,47,33,1,,,,,,,,,,,,,,,,,,,,,,,
,,,,,V3_044,18,Male,2024-11-01_17h34.35.559,jersey_experiment_5_v3,2023.2.2,Win32,84.74576271,,,,,,,,,,,,,,,,1266.5695,1267.8752,1267.8753,1270.7132,return,0.4729,,87.36979167,,,,,,FBP-RB-91.png,0.37,1.2,57,0.5,,,,,,,,,,,,,,,,,,0,48,48,56,1,,,,,,,,,,,,,,,,,,,,,,,
,,,,,V3_044,18,Male,2024-11-01_17h34.35.559,jersey_experiment_5_v3,2023.2.2,Win32,84.74576271,,,,,,,,,,,,,,,,1270.7133,1272.0079,1272.0079,1274.4049,return,0.3812,,76.953125,,,,,,FBP-YG-18.png,0.43,1.2,9,0.5,,,,,,,,,,,,,,,,,,0,49,49,8,1,,,,,,,,,,,,,,,,,,,,,,,
,,,,,V3_044,18,Male,2024-11-01_17h34.35.559,jersey_experiment_5_v3,2023.2.2,Win32,84.74576271,,,,,,,,,,,,,,,,1274.4051,1275.699,1275.6992,1280.8789,return,0.3769,,61.71875,,,,,,FBP-PT-81.png,0.37,1.2,22,0.5,,,,,,,,,,,,,,,,,,0,50,50,21,1,,,,,,,,,,,,,,,,,,,,,,,
,,,,,V3_044,18,Male,2024-11-01_17h34.35.559,jersey_experiment_5_v3,2023.2.2,Win32,84.74576271,,,,,,,,,,,,,,,,1280.8791,1282.1729,1282.1729,1283.6876,return,0.5314,,61.71875,,,,,,FBP-YG-17.png,0.43,1.2,4,0.5,,,,,,,,,,,,,,,,,,0,51,51,3,1,,,,,,,,,,,,,,,,,,,,,,,
,,,,,V3_044,18,Male,2024-11-01_17h34.35.559,jersey_experiment_5_v3,2023.2.2,Win32,84.74576271,,,,,,,,,,,,,,,,1283.6878,1284.988,1284.988,1289.2004,return,1.5686,,67.1875,,,,,,FBP-PT-81.png,0.35,1.2,21,0.5,,,,,,,,,,,,,,,,,,0,52,52,20,1,,,,,,,,,,,,,,,,,,,,,,,
,,,,,V3_044,18,Male,2024-11-01_17h34.35.559,jersey_experiment_5_v3,2023.2.2,Win32,84.74576271,,,,,,,,,,,,,,,,1289.2006,1290.7534,1290.7534,1291.8343,return,0.3669,,81.51041667,,,,,,FBP-OG-71.png,0.45,1.2,35,0.75,,,,,,,,,,,,,,,,,,0,53,53,34,1,,,,,,,,,,,,,,,,,,,,,,,
,,,,,V3_044,18,Male,2024-11-01_17h34.35.559,jersey_experiment_5_v3,2023.2.2,Win32,84.74576271,,,,,,,,,,,,,,,,1291.8346,1293.3886,1293.3886,1295.4826,return,0.7916,,81.51041667,,,,,,FBP-OG-91.png,0.45,1.2,45,0.75,,,,,,,,,,,,,,,,,,0,54,54,44,1,,,,,,,,,,,,,,,,,,,,,,,
,,,,,V3_044,18,Male,2024-11-01_17h34.35.559,jersey_experiment_5_v3,2023.2.2,Win32,84.74576271,,,,,,,,,,,,,,,,1295.4827,1296.7769,1296.7769,1298.5889,return,0.486,,58.203125,,,,,,FBP-RB-81.png,0.35,1.2,51,0.5,,,,,,,,,,,,,,,,,,0,55,55,50,1,,,,,,,,,,,,,,,,,,,,,,,
,,,,,V3_044,18,Male,2024-11-01_17h34.35.559,jersey_experiment_5_v3,2023.2.2,Win32,84.74576271,,,,,,,,,,,,,,,,1298.5891,1300.1353,1300.1354,1300.9183,return,0.3532,,58.07291667,,,,,,FBP-OG-71.png,0.35,1.2,31,0.75,,,,,,,,,,,,,,,,,,0,56,56,30,1,,,,,,,,,,,,,,,,,,,,,,,
,,,,,V3_044,18,Male,2024-11-01_17h34.35.559,jersey_experiment_5_v3,2023.2.2,Win32,84.74576271,,,,,,,,,,,,,,,,1300.9185,1302.2208,1302.2208,1303.6241,return,0.368,,69.140625,,,,,,FBP-YG-19.png,0.45,1.2,15,0.5,,,,,,,,,,,,,,,,,,0,57,57,14,1,,,,,,,,,,,,,,,,,,,,,,,
,,,,,V3_044,18,Male,2024-11-01_17h34.35.559,jersey_experiment_5_v3,2023.2.2,Win32,84.74576271,,,,,,,,,,,,,,,,1303.6242,1304.9267,1304.9267,1306.895,return,0.5565,,37.63020833,,,,,,FBP-PT-71.png,0.35,1.2,16,0.5,,,,,,,,,,,,,,,,,,0,58,58,15,1,,,,,,,,,,,,,,,,,,,,,,,
,,,,,V3_044,18,Male,2024-11-01_17h34.35.559,jersey_experiment_5_v3,2023.2.2,Win32,84.74576271,,,,,,,,,,,,,,,,1306.8951,1308.4415,1308.4415,1310.5743,return,0.3301,,54.81770833,,,,,,FBP-OG-81.png,0.35,1.2,36,0.75,,,,,,,,,,,,,,,,,,0,59,59,35,1,,,,,,,,,,,,,,,,,,,,,,,
,,,,,V3_044,18,Male,2024-11-01_17h34.35.559,jersey_experiment_5_v3,2023.2.2,Win32,84.74576271,,,,,,,,,,,,,,,,,,,,,,,,,,,,,,,,,,,,,,,,,,,,,,,,,,,,,,,,1310.5744,1318.4066,return,7.8147,,,,,,,,,,,,,,,,,,,
,,,,,V3_044,18,Male,2024-11-01_17h34.35.559,jersey_experiment_5_v3,2023.2.2,Win32,84.74576271,,,,,,,,,,,,,,,,,,,,,,,,,,,,,,,,,,,,,,,,,,,,,,,,,,,,,,,,,,,,,1318.4067,1327.9985,1,8.4737,return,1.1026,,,,,,,,,,,,
,,,,,V3_044,18,Male,2024-11-01_17h34.35.559,jersey_experiment_5_v3,2023.2.2,Win32,84.74576271,,,,,,,,,,,,,,,,,,,,,,,,,,,,,,,,,,,,,,,,,,,,,,,,,,,,,,,,,,,,,,,,,,,,1327.9986,1417.0139,"Some patterns I notice were that on average, I felt that the football players wearing darker colors were bigger than football players wearing lighter colors like green. ",right,66.4731,,,,,,
,,,,,V3_044,18,Male,2024-11-01_17h34.35.559,jersey_experiment_5_v3,2023.2.2,Win32,84.74576271,,,,,,,,,,,,,,,,,,,,,,,,,,,,,,,,,,,,,,,,,,,,,,,,,,,,,,,,,,,,,,,,,,,,,,,,,,1417.014,1421.0286,return,3.9997,