requirements.started,requirements.stopped,key_resp_3.keys,key_resp_3.rt,key_resp_3.duration,Subject ID,Age,Gender,date,expName,psychopyVersion,OS,frameRate,instructions1.started,instructions1.stopped,key_resp.keys,key_resp.rt,key_resp.duration,example.started,example.stopped,enter_2.keys,enter_2.rt,enter_2.duration,instructions2.started,instructions2.stopped,enter_3.keys,enter_3.rt,enter_3.duration,image.started,image.stopped,slider_2.started,slider_2.stopped,next.keys,next.rt,next.duration,slider.response,trial_block_1.thisRepN,trial_block_1.thisTrialN,trial_block_1.thisN,trial_block_1.thisIndex,trial_block_1.ran,Path,Width,Height,Index,Duration,trial_block_2.thisRepN,trial_block_2.thisTrialN,trial_block_2.thisN,trial_block_2.thisIndex,trial_block_2.ran,rest_break.started,rest_break.stopped,end_break.started,end_break.stopped,key_resp_5.keys,key_resp_5.rt,key_resp_5.duration,trial_block_3.thisRepN,trial_block_3.thisTrialN,trial_block_3.thisN,trial_block_3.thisIndex,trial_block_3.ran,trial_block_4.thisRepN,trial_block_4.thisTrialN,trial_block_4.thisN,trial_block_4.thisIndex,trial_block_4.ran,questions_intro.started,questions_intro.stopped,enter_12.keys,enter_12.rt,enter_12.duration,question2.started,question2.stopped,question_doingbest.response,question_doingbest.rt,enter_15.keys,enter_15.rt,enter_15.duration,pattern.started,pattern.stopped,pattern_2.text,enter_17.keys,enter_17.rt,enter_17.duration,thankyou.started,thankyou.stopped,enter_14.keys,enter_14.rt,enter_14.duration
0,13.4793,return,13.4745,,V3_094,19,male,2025-01-30_15h38.43.086,jersey_experiment_5_v3,2023.2.2,Win32,84.74576271,,,,,,,,,,,,,,,,,,,,,,,,,,,,,,,,,,,,,,,,,,,,,,,,,,,,,,,,,,,,,,,,,,,,,,,,,,,,,,
,,,,,V3_094,19,male,2025-01-30_15h38.43.086,jersey_experiment_5_v3,2023.2.2,Win32,84.74576271,13.4793,21.3148,return,7.8266,,,,,,,,,,,,,,,,,,,,,,,,,,,,,,,,,,,,,,,,,,,,,,,,,,,,,,,,,,,,,,,,,,,,,,,,,,
,,,,,V3_094,19,male,2025-01-30_15h38.43.086,jersey_experiment_5_v3,2023.2.2,Win32,84.74576271,,,,,,21.3148,25.1792,return,3.839,,,,,,,,,,,,,,,,,,,,,,,,,,,,,,,,,,,,,,,,,,,,,,,,,,,,,,,,,,,,,,,,,,,,,
,,,,,V3_094,19,male,2025-01-30_15h38.43.086,jersey_experiment_5_v3,2023.2.2,Win32,84.74576271,,,,,,,,,,,25.1792,51.5213,return,26.3315,,,,,,,,,,,,,,,,,,,,,,,,,,,,,,,,,,,,,,,,,,,,,,,,,,,,,,,,,,,,,,,,
,,,,,V3_094,19,male,2025-01-30_15h38.43.086,jersey_experiment_5_v3,2023.2.2,Win32,84.74576271,,,,,,,,,,,,,,,,51.5229,52.8155,52.8156,63.2513,return,3.3906,,74.47916667,0,0,0,40,1,FBP-OG-19.png,0.35,1.2,41,0.5,,,,,,,,,,,,,,,,,,,,,,,,,,,,,,,,,,,,,,,,,,,,,
,,,,,V3_094,19,male,2025-01-30_15h38.43.086,jersey_experiment_5_v3,2023.2.2,Win32,84.74576271,,,,,,,,,,,,,,,,63.2515,64.8041,64.8041,66.8985,return,0.2356,,99.86979167,0,1,1,53,1,FBP-RB-18.png,0.43,1.2,54,0.75,,,,,,,,,,,,,,,,,,,,,,,,,,,,,,,,,,,,,,,,,,,,,
,,,,,V3_094,19,male,2025-01-30_15h38.43.086,jersey_experiment_5_v3,2023.2.2,Win32,84.74576271,,,,,,,,,,,,,,,,66.8987,68.4514,68.4514,70.322,return,0.5515,,25,0,2,2,0,1,FBP-YG-71.png,0.35,1.2,1,0.75,,,,,,,,,,,,,,,,,,,,,,,,,,,,,,,,,,,,,,,,,,,,,
,,,,,V3_094,19,male,2025-01-30_15h38.43.086,jersey_experiment_5_v3,2023.2.2,Win32,84.74576271,,,,,,,,,,,,,,,,70.3223,71.8751,71.8751,73.0397,return,0.1651,,74.609375,0,3,3,17,1,FBP-PT-17.png,0.4,1.2,18,0.75,,,,,,,,,,,,,,,,,,,,,,,,,,,,,,,,,,,,,,,,,,,,,
,,,,,V3_094,19,male,2025-01-30_15h38.43.086,jersey_experiment_5_v3,2023.2.2,Win32,84.74576271,,,,,,,,,,,,,,,,73.0399,74.5928,74.5929,76.0518,return,0.1567,,99.34895833,0,4,4,12,1,FBP-YG-91.png,0.4,1.2,13,0.75,,,,,,,,,,,,,,,,,,,,,,,,,,,,,,,,,,,,,,,,,,,,,
,,,,,V3_094,19,male,2025-01-30_15h38.43.086,jersey_experiment_5_v3,2023.2.2,Win32,84.74576271,,,,,,,,,,,,,,,,76.0519,77.6048,77.6049,78.8754,return,0.1149,,25.390625,0,5,5,45,1,FBP-RB-17.png,0.35,1.2,46,0.75,,,,,,,,,,,,,,,,,,,,,,,,,,,,,,,,,,,,,,,,,,,,,
,,,,,V3_094,19,male,2025-01-30_15h38.43.086,jersey_experiment_5_v3,2023.2.2,Win32,84.74576271,,,,,,,,,,,,,,,,78.8757,80.4283,80.4283,81.6284,return,0.0982,,49.609375,0,6,6,1,1,FBP-YG-71.png,0.37,1.2,2,0.75,,,,,,,,,,,,,,,,,,,,,,,,,,,,,,,,,,,,,,,,,,,,,
,,,,,V3_094,19,male,2025-01-30_15h38.43.086,jersey_experiment_5_v3,2023.2.2,Win32,84.74576271,,,,,,,,,,,,,,,,81.6287,82.9225,82.9225,84.0284,return,0.1238,,99.73958333,0,7,7,44,1,FBP-OG-19.png,0.45,1.2,45,0.5,,,,,,,,,,,,,,,,,,,,,,,,,,,,,,,,,,,,,,,,,,,,,
,,,,,V3_094,19,male,2025-01-30_15h38.43.086,jersey_experiment_5_v3,2023.2.2,Win32,84.74576271,,,,,,,,,,,,,,,,84.0289,85.5814,85.5815,86.3815,return,0.1466,,98.30729167,0,8,8,28,1,FBP-PT-19.png,0.43,1.2,29,0.75,,,,,,,,,,,,,,,,,,,,,,,,,,,,,,,,,,,,,,,,,,,,,
,,,,,V3_094,19,male,2025-01-30_15h38.43.086,jersey_experiment_5_v3,2023.2.2,Win32,84.74576271,,,,,,,,,,,,,,,,86.3818,87.9345,87.9346,88.7581,return,0.0939,,98.95833333,0,9,9,54,1,FBP-RB-18.png,0.45,1.2,55,0.75,,,,,,,,,,,,,,,,,,,,,,,,,,,,,,,,,,,,,,,,,,,,,
,,,,,V3_094,19,male,2025-01-30_15h38.43.086,jersey_experiment_5_v3,2023.2.2,Win32,84.74576271,,,,,,,,,,,,,,,,88.7584,90.0521,90.0521,93.0759,return,2.1178,,32.421875,0,10,10,31,1,FBP-OG-17.png,0.37,1.2,32,0.5,,,,,,,,,,,,,,,,,,,,,,,,,,,,,,,,,,,,,,,,,,,,,
,,,,,V3_094,19,male,2025-01-30_15h38.43.086,jersey_experiment_5_v3,2023.2.2,Win32,84.74576271,,,,,,,,,,,,,,,,93.0762,94.3701,94.3702,95.3936,return,0.1186,,16.92708333,0,11,11,36,1,FBP-OG-18.png,0.37,1.2,37,0.5,,,,,,,,,,,,,,,,,,,,,,,,,,,,,,,,,,,,,,,,,,,,,
,,,,,V3_094,19,male,2025-01-30_15h38.43.086,jersey_experiment_5_v3,2023.2.2,Win32,84.74576271,,,,,,,,,,,,,,,,95.394,96.9469,96.9469,99.2525,return,0.0854,,21.74479167,0,12,12,52,1,FBP-RB-18.png,0.4,1.2,53,0.75,,,,,,,,,,,,,,,,,,,,,,,,,,,,,,,,,,,,,,,,,,,,,
,,,,,V3_094,19,male,2025-01-30_15h38.43.086,jersey_experiment_5_v3,2023.2.2,Win32,84.74576271,,,,,,,,,,,,,,,,99.2528,100.8055,100.8056,101.4996,return,0.0423,,20.05208333,0,13,13,11,1,FBP-YG-91.png,0.37,1.2,12,0.75,,,,,,,,,,,,,,,,,,,,,,,,,,,,,,,,,,,,,,,,,,,,,
,,,,,V3_094,19,male,2025-01-30_15h38.43.086,jersey_experiment_5_v3,2023.2.2,Win32,84.74576271,,,,,,,,,,,,,,,,101.4999,102.7939,102.794,104.1822,return,0.0946,,94.53125,0,14,14,39,1,FBP-OG-18.png,0.45,1.2,40,0.5,,,,,,,,,,,,,,,,,,,,,,,,,,,,,,,,,,,,,,,,,,,,,
,,,,,V3_094,19,male,2025-01-30_15h38.43.086,jersey_experiment_5_v3,2023.2.2,Win32,84.74576271,,,,,,,,,,,,,,,,104.1824,105.735,105.7351,106.1,return,0.0155,,93.359375,0,15,15,29,1,FBP-PT-19.png,0.45,1.2,30,0.75,,,,,,,,,,,,,,,,,,,,,,,,,,,,,,,,,,,,,,,,,,,,,
,,,,,V3_094,19,male,2025-01-30_15h38.43.086,jersey_experiment_5_v3,2023.2.2,Win32,84.74576271,,,,,,,,,,,,,,,,106.1002,107.6529,107.6529,108.6882,return,0.5332,,93.359375,0,16,16,49,1,FBP-RB-17.png,0.45,1.2,50,0.75,,,,,,,,,,,,,,,,,,,,,,,,,,,,,,,,,,,,,,,,,,,,,
,,,,,V3_094,19,male,2025-01-30_15h38.43.086,jersey_experiment_5_v3,2023.2.2,Win32,84.74576271,,,,,,,,,,,,,,,,108.6885,110.2411,110.2411,110.7825,return,0.1434,,93.359375,0,17,17,3,1,FBP-YG-71.png,0.43,1.2,4,0.75,,,,,,,,,,,,,,,,,,,,,,,,,,,,,,,,,,,,,,,,,,,,,
,,,,,V3_094,19,male,2025-01-30_15h38.43.086,jersey_experiment_5_v3,2023.2.2,Win32,84.74576271,,,,,,,,,,,,,,,,110.7827,112.3356,112.3358,114.1237,return,0.1378,,0.520833333,0,18,18,10,1,FBP-YG-91.png,0.35,1.2,11,0.75,,,,,,,,,,,,,,,,,,,,,,,,,,,,,,,,,,,,,,,,,,,,,
,,,,,V3_094,19,male,2025-01-30_15h38.43.086,jersey_experiment_5_v3,2023.2.2,Win32,84.74576271,,,,,,,,,,,,,,,,114.1239,115.6768,115.6769,117.3004,return,0.1647,,88.41145833,0,19,19,13,1,FBP-YG-91.png,0.43,1.2,14,0.75,,,,,,,,,,,,,,,,,,,,,,,,,,,,,,,,,,,,,,,,,,,,,
,,,,,V3_094,19,male,2025-01-30_15h38.43.086,jersey_experiment_5_v3,2023.2.2,Win32,84.74576271,,,,,,,,,,,,,,,,117.3006,118.8534,118.8535,120.1946,return,0.1783,,38.15104167,0,20,20,46,1,FBP-RB-17.png,0.37,1.2,47,0.75,,,,,,,,,,,,,,,,,,,,,,,,,,,,,,,,,,,,,,,,,,,,,
,,,,,V3_094,19,male,2025-01-30_15h38.43.086,jersey_experiment_5_v3,2023.2.2,Win32,84.74576271,,,,,,,,,,,,,,,,120.1949,121.7477,121.7477,122.8064,return,0.1796,,99.47916667,0,21,21,59,1,FBP-RB-19.png,0.45,1.2,60,0.75,,,,,,,,,,,,,,,,,,,,,,,,,,,,,,,,,,,,,,,,,,,,,
,,,,,V3_094,19,male,2025-01-30_15h38.43.086,jersey_experiment_5_v3,2023.2.2,Win32,84.74576271,,,,,,,,,,,,,,,,122.8066,124.3594,124.3595,124.9593,return,0.1563,,99.47916667,0,22,22,9,1,FBP-YG-81.png,0.45,1.2,10,0.75,,,,,,,,,,,,,,,,,,,,,,,,,,,,,,,,,,,,,,,,,,,,,
,,,,,V3_094,19,male,2025-01-30_15h38.43.086,jersey_experiment_5_v3,2023.2.2,Win32,84.74576271,,,,,,,,,,,,,,,,124.9595,126.5123,126.5123,127.5831,return,0.1668,,76.30208333,0,23,23,7,1,FBP-YG-81.png,0.4,1.2,8,0.75,,,,,,,,,,,,,,,,,,,,,,,,,,,,,,,,,,,,,,,,,,,,,
,,,,,V3_094,19,male,2025-01-30_15h38.43.086,jersey_experiment_5_v3,2023.2.2,Win32,84.74576271,,,,,,,,,,,,,,,,127.5834,129.136,129.136,129.8301,return,0.1522,,77.99479167,0,24,24,22,1,FBP-PT-18.png,0.4,1.2,23,0.75,,,,,,,,,,,,,,,,,,,,,,,,,,,,,,,,,,,,,,,,,,,,,
,,,,,V3_094,19,male,2025-01-30_15h38.43.086,jersey_experiment_5_v3,2023.2.2,Win32,84.74576271,,,,,,,,,,,,,,,,129.8304,131.3832,131.3832,134.3244,return,0.8706,,29.16666667,0,25,25,56,1,FBP-RB-19.png,0.37,1.2,57,0.75,,,,,,,,,,,,,,,,,,,,,,,,,,,,,,,,,,,,,,,,,,,,,
,,,,,V3_094,19,male,2025-01-30_15h38.43.086,jersey_experiment_5_v3,2023.2.2,Win32,84.74576271,,,,,,,,,,,,,,,,134.3247,135.8776,135.8776,137.5835,return,0.8636,,80.98958333,0,26,26,58,1,FBP-RB-19.png,0.43,1.2,59,0.75,,,,,,,,,,,,,,,,,,,,,,,,,,,,,,,,,,,,,,,,,,,,,
,,,,,V3_094,19,male,2025-01-30_15h38.43.086,jersey_experiment_5_v3,2023.2.2,Win32,84.74576271,,,,,,,,,,,,,,,,137.5838,139.1364,139.1364,141.5013,return,0.195,,82.55208333,0,27,27,23,1,FBP-PT-18.png,0.43,1.2,24,0.75,,,,,,,,,,,,,,,,,,,,,,,,,,,,,,,,,,,,,,,,,,,,,
,,,,,V3_094,19,male,2025-01-30_15h38.43.086,jersey_experiment_5_v3,2023.2.2,Win32,84.74576271,,,,,,,,,,,,,,,,141.5014,143.0543,143.0544,144.066,return,0.1753,,67.578125,0,28,28,57,1,FBP-RB-19.png,0.4,1.2,58,0.75,,,,,,,,,,,,,,,,,,,,,,,,,,,,,,,,,,,,,,,,,,,,,
,,,,,V3_094,19,male,2025-01-30_15h38.43.086,jersey_experiment_5_v3,2023.2.2,Win32,84.74576271,,,,,,,,,,,,,,,,144.0663,145.619,145.619,146.5719,return,0.1377,,39.71354167,0,29,29,51,1,FBP-RB-18.png,0.37,1.2,52,0.75,,,,,,,,,,,,,,,,,,,,,,,,,,,,,,,,,,,,,,,,,,,,,
,,,,,V3_094,19,male,2025-01-30_15h38.43.086,jersey_experiment_5_v3,2023.2.2,Win32,84.74576271,,,,,,,,,,,,,,,,146.5721,147.8663,147.8664,149.7132,return,0.1288,,66.92708333,0,30,30,42,1,FBP-OG-19.png,0.4,1.2,43,0.5,,,,,,,,,,,,,,,,,,,,,,,,,,,,,,,,,,,,,,,,,,,,,
,,,,,V3_094,19,male,2025-01-30_15h38.43.086,jersey_experiment_5_v3,2023.2.2,Win32,84.74576271,,,,,,,,,,,,,,,,149.7135,151.2664,151.2665,152.1133,return,0.1439,,98.828125,0,31,31,24,1,FBP-PT-18.png,0.45,1.2,25,0.75,,,,,,,,,,,,,,,,,,,,,,,,,,,,,,,,,,,,,,,,,,,,,
,,,,,V3_094,19,male,2025-01-30_15h38.43.086,jersey_experiment_5_v3,2023.2.2,Win32,84.74576271,,,,,,,,,,,,,,,,152.1136,153.6665,153.6665,154.7016,return,0.0855,,31.38020833,0,32,32,6,1,FBP-YG-81.png,0.37,1.2,7,0.75,,,,,,,,,,,,,,,,,,,,,,,,,,,,,,,,,,,,,,,,,,,,,
,,,,,V3_094,19,male,2025-01-30_15h38.43.086,jersey_experiment_5_v3,2023.2.2,Win32,84.74576271,,,,,,,,,,,,,,,,154.7019,156.2547,156.2548,160.2547,return,0.2726,,1.302083333,0,33,33,55,1,FBP-RB-19.png,0.35,1.2,56,0.75,,,,,,,,,,,,,,,,,,,,,,,,,,,,,,,,,,,,,,,,,,,,,
,,,,,V3_094,19,male,2025-01-30_15h38.43.086,jersey_experiment_5_v3,2023.2.2,Win32,84.74576271,,,,,,,,,,,,,,,,160.255,161.8079,161.8079,162.9491,return,0.1568,,99.47916667,0,34,34,19,1,FBP-PT-17.png,0.45,1.2,20,0.75,,,,,,,,,,,,,,,,,,,,,,,,,,,,,,,,,,,,,,,,,,,,,
,,,,,V3_094,19,male,2025-01-30_15h38.43.086,jersey_experiment_5_v3,2023.2.2,Win32,84.74576271,,,,,,,,,,,,,,,,162.9494,164.5022,164.5022,164.9492,return,0.187,,99.21875,0,35,35,18,1,FBP-PT-17.png,0.43,1.2,19,0.75,,,,,,,,,,,,,,,,,,,,,,,,,,,,,,,,,,,,,,,,,,,,,
,,,,,V3_094,19,male,2025-01-30_15h38.43.086,jersey_experiment_5_v3,2023.2.2,Win32,84.74576271,,,,,,,,,,,,,,,,164.9494,166.5024,166.5024,168.208,return,0.1217,,23.046875,0,36,36,15,1,FBP-PT-17.png,0.35,1.2,16,0.75,,,,,,,,,,,,,,,,,,,,,,,,,,,,,,,,,,,,,,,,,,,,,
,,,,,V3_094,19,male,2025-01-30_15h38.43.086,jersey_experiment_5_v3,2023.2.2,Win32,84.74576271,,,,,,,,,,,,,,,,168.2083,169.5023,169.5023,170.9257,return,0.1462,,98.17708333,0,37,37,33,1,FBP-OG-17.png,0.43,1.2,34,0.5,,,,,,,,,,,,,,,,,,,,,,,,,,,,,,,,,,,,,,,,,,,,,
,,,,,V3_094,19,male,2025-01-30_15h38.43.086,jersey_experiment_5_v3,2023.2.2,Win32,84.74576271,,,,,,,,,,,,,,,,170.926,172.4788,172.4789,173.5849,return,0.1887,,75.26041667,0,38,38,47,1,FBP-RB-17.png,0.4,1.2,48,0.75,,,,,,,,,,,,,,,,,,,,,,,,,,,,,,,,,,,,,,,,,,,,,
,,,,,V3_094,19,male,2025-01-30_15h38.43.086,jersey_experiment_5_v3,2023.2.2,Win32,84.74576271,,,,,,,,,,,,,,,,173.5851,174.8789,174.8789,175.973,return,0.1412,,93.359375,0,39,39,38,1,FBP-OG-18.png,0.43,1.2,39,0.5,,,,,,,,,,,,,,,,,,,,,,,,,,,,,,,,,,,,,,,,,,,,,
,,,,,V3_094,19,male,2025-01-30_15h38.43.086,jersey_experiment_5_v3,2023.2.2,Win32,84.74576271,,,,,,,,,,,,,,,,175.9733,177.5146,177.5146,178.8203,return,0.165,,17.44791667,0,40,40,16,1,FBP-PT-17.png,0.37,1.2,17,0.75,,,,,,,,,,,,,,,,,,,,,,,,,,,,,,,,,,,,,,,,,,,,,
,,,,,V3_094,19,male,2025-01-30_15h38.43.086,jersey_experiment_5_v3,2023.2.2,Win32,84.74576271,,,,,,,,,,,,,,,,178.8207,180.3734,180.3735,181.5261,return,0.2825,,1.432291667,0,41,41,26,1,FBP-PT-19.png,0.37,1.2,27,0.75,,,,,,,,,,,,,,,,,,,,,,,,,,,,,,,,,,,,,,,,,,,,,
,,,,,V3_094,19,male,2025-01-30_15h38.43.086,jersey_experiment_5_v3,2023.2.2,Win32,84.74576271,,,,,,,,,,,,,,,,181.5264,183.0793,183.0794,184.3027,return,0.1702,,99.08854167,0,42,42,14,1,FBP-YG-91.png,0.45,1.2,15,0.75,,,,,,,,,,,,,,,,,,,,,,,,,,,,,,,,,,,,,,,,,,,,,
,,,,,V3_094,19,male,2025-01-30_15h38.43.086,jersey_experiment_5_v3,2023.2.2,Win32,84.74576271,,,,,,,,,,,,,,,,184.303,185.8558,185.8559,186.9499,return,0.1415,,94.921875,0,43,43,4,1,FBP-YG-71.png,0.45,1.2,5,0.75,,,,,,,,,,,,,,,,,,,,,,,,,,,,,,,,,,,,,,,,,,,,,
,,,,,V3_094,19,male,2025-01-30_15h38.43.086,jersey_experiment_5_v3,2023.2.2,Win32,84.74576271,,,,,,,,,,,,,,,,186.9502,188.503,188.503,189.103,return,0.1466,,94.53125,0,44,44,8,1,FBP-YG-81.png,0.43,1.2,9,0.75,,,,,,,,,,,,,,,,,,,,,,,,,,,,,,,,,,,,,,,,,,,,,
,,,,,V3_094,19,male,2025-01-30_15h38.43.086,jersey_experiment_5_v3,2023.2.2,Win32,84.74576271,,,,,,,,,,,,,,,,189.1033,190.6562,190.6562,191.903,return,0.1933,,5.729166667,0,45,45,25,1,FBP-PT-19.png,0.35,1.2,26,0.75,,,,,,,,,,,,,,,,,,,,,,,,,,,,,,,,,,,,,,,,,,,,,
,,,,,V3_094,19,male,2025-01-30_15h38.43.086,jersey_experiment_5_v3,2023.2.2,Win32,84.74576271,,,,,,,,,,,,,,,,191.9033,193.4563,193.4563,194.6091,return,0.1086,,93.09895833,0,46,46,48,1,FBP-RB-17.png,0.43,1.2,49,0.75,,,,,,,,,,,,,,,,,,,,,,,,,,,,,,,,,,,,,,,,,,,,,
,,,,,V3_094,19,male,2025-01-30_15h38.43.086,jersey_experiment_5_v3,2023.2.2,Win32,84.74576271,,,,,,,,,,,,,,,,194.6093,195.9033,195.9033,196.668,return,0.1141,,91.27604167,0,47,47,34,1,FBP-OG-17.png,0.45,1.2,35,0.5,,,,,,,,,,,,,,,,,,,,,,,,,,,,,,,,,,,,,,,,,,,,,
,,,,,V3_094,19,male,2025-01-30_15h38.43.086,jersey_experiment_5_v3,2023.2.2,Win32,84.74576271,,,,,,,,,,,,,,,,196.6683,197.962,197.9621,198.8211,return,0.1519,,79.296875,0,48,48,32,1,FBP-OG-17.png,0.4,1.2,33,0.5,,,,,,,,,,,,,,,,,,,,,,,,,,,,,,,,,,,,,,,,,,,,,
,,,,,V3_094,19,male,2025-01-30_15h38.43.086,jersey_experiment_5_v3,2023.2.2,Win32,84.74576271,,,,,,,,,,,,,,,,198.8214,200.3741,200.3741,201.2683,return,0.0812,,6.119791667,0,49,49,20,1,FBP-PT-18.png,0.35,1.2,21,0.75,,,,,,,,,,,,,,,,,,,,,,,,,,,,,,,,,,,,,,,,,,,,,
,,,,,V3_094,19,male,2025-01-30_15h38.43.086,jersey_experiment_5_v3,2023.2.2,Win32,84.74576271,,,,,,,,,,,,,,,,201.2685,202.8214,202.8214,204.0446,return,0.1725,,1.171875,0,50,50,5,1,FBP-YG-81.png,0.35,1.2,6,0.75,,,,,,,,,,,,,,,,,,,,,,,,,,,,,,,,,,,,,,,,,,,,,
,,,,,V3_094,19,male,2025-01-30_15h38.43.086,jersey_experiment_5_v3,2023.2.2,Win32,84.74576271,,,,,,,,,,,,,,,,204.0449,205.3389,205.3391,206.833,return,0.0959,,31.77083333,0,51,51,37,1,FBP-OG-18.png,0.4,1.2,38,0.5,,,,,,,,,,,,,,,,,,,,,,,,,,,,,,,,,,,,,,,,,,,,,
,,,,,V3_094,19,male,2025-01-30_15h38.43.086,jersey_experiment_5_v3,2023.2.2,Win32,84.74576271,,,,,,,,,,,,,,,,206.8333,208.3863,208.3863,209.2801,return,0.1671,,0.390625,0,52,52,50,1,FBP-RB-18.png,0.35,1.2,51,0.75,,,,,,,,,,,,,,,,,,,,,,,,,,,,,,,,,,,,,,,,,,,,,
,,,,,V3_094,19,male,2025-01-30_15h38.43.086,jersey_experiment_5_v3,2023.2.2,Win32,84.74576271,,,,,,,,,,,,,,,,209.2804,210.8331,210.8331,213.7979,return,0.1564,,54.81770833,0,53,53,27,1,FBP-PT-19.png,0.4,1.2,28,0.75,,,,,,,,,,,,,,,,,,,,,,,,,,,,,,,,,,,,,,,,,,,,,
,,,,,V3_094,19,male,2025-01-30_15h38.43.086,jersey_experiment_5_v3,2023.2.2,Win32,84.74576271,,,,,,,,,,,,,,,,213.7981,215.0921,215.0921,216.1394,return,0.1134,,29.55729167,0,54,54,41,1,FBP-OG-19.png,0.37,1.2,42,0.5,,,,,,,,,,,,,,,,,,,,,,,,,,,,,,,,,,,,,,,,,,,,,
,,,,,V3_094,19,male,2025-01-30_15h38.43.086,jersey_experiment_5_v3,2023.2.2,Win32,84.74576271,,,,,,,,,,,,,,,,216.1397,217.6923,217.6924,218.5393,return,0.0662,,85.28645833,0,55,55,2,1,FBP-YG-71.png,0.4,1.2,3,0.75,,,,,,,,,,,,,,,,,,,,,,,,,,,,,,,,,,,,,,,,,,,,,
,,,,,V3_094,19,male,2025-01-30_15h38.43.086,jersey_experiment_5_v3,2023.2.2,Win32,84.74576271,,,,,,,,,,,,,,,,218.5395,219.8337,219.8337,220.7747,return,0.0708,,53.515625,0,56,56,35,1,FBP-OG-18.png,0.35,1.2,36,0.5,,,,,,,,,,,,,,,,,,,,,,,,,,,,,,,,,,,,,,,,,,,,,
,,,,,V3_094,19,male,2025-01-30_15h38.43.086,jersey_experiment_5_v3,2023.2.2,Win32,84.74576271,,,,,,,,,,,,,,,,220.7749,222.3278,222.3278,223.5633,return,0.2434,,50,0,57,57,21,1,FBP-PT-18.png,0.37,1.2,22,0.75,,,,,,,,,,,,,,,,,,,,,,,,,,,,,,,,,,,,,,,,,,,,,
,,,,,V3_094,19,male,2025-01-30_15h38.43.086,jersey_experiment_5_v3,2023.2.2,Win32,84.74576271,,,,,,,,,,,,,,,,223.5636,224.8572,224.8572,226.0691,return,0.2222,,83.72395833,0,58,58,43,1,FBP-OG-19.png,0.43,1.2,44,0.5,,,,,,,,,,,,,,,,,,,,,,,,,,,,,,,,,,,,,,,,,,,,,
,,,,,V3_094,19,male,2025-01-30_15h38.43.086,jersey_experiment_5_v3,2023.2.2,Win32,84.74576271,,,,,,,,,,,,,,,,226.0694,227.3632,227.3633,228.422,return,0.1182,,34.24479167,0,59,59,30,1,FBP-OG-17.png,0.35,1.2,31,0.5,,,,,,,,,,,,,,,,,,,,,,,,,,,,,,,,,,,,,,,,,,,,,
,,,,,V3_094,19,male,2025-01-30_15h38.43.086,jersey_experiment_5_v3,2023.2.2,Win32,84.74576271,,,,,,,,,,,,,,,,228.4234,229.7162,229.7163,230.4458,return,0.0773,,81.11979167,,,,,,FBP-OG-91.png,0.4,1.2,43,0.5,0,0,0,42,1,,,,,,,,,,,,,,,,,,,,,,,,,,,,,,,,,,,,,,,,
,,,,,V3_094,19,male,2025-01-30_15h38.43.086,jersey_experiment_5_v3,2023.2.2,Win32,84.74576271,,,,,,,,,,,,,,,,230.4461,231.9987,231.9988,232.5282,return,0.0863,,80.72916667,,,,,,FBP-PT-81.png,0.4,1.2,23,0.75,0,1,1,22,1,,,,,,,,,,,,,,,,,,,,,,,,,,,,,,,,,,,,,,,,
,,,,,V3_094,19,male,2025-01-30_15h38.43.086,jersey_experiment_5_v3,2023.2.2,Win32,84.74576271,,,,,,,,,,,,,,,,232.5284,233.8222,233.8223,234.6223,return,0.098,,76.171875,,,,,,FBP-OG-71.png,0.4,1.2,33,0.5,0,2,2,32,1,,,,,,,,,,,,,,,,,,,,,,,,,,,,,,,,,,,,,,,,
,,,,,V3_094,19,male,2025-01-30_15h38.43.086,jersey_experiment_5_v3,2023.2.2,Win32,84.74576271,,,,,,,,,,,,,,,,234.6226,236.1638,236.1638,237.0107,return,0.2131,,87.36979167,,,,,,FBP-RB-71.png,0.43,1.2,49,0.75,0,3,3,48,1,,,,,,,,,,,,,,,,,,,,,,,,,,,,,,,,,,,,,,,,
,,,,,V3_094,19,male,2025-01-30_15h38.43.086,jersey_experiment_5_v3,2023.2.2,Win32,84.74576271,,,,,,,,,,,,,,,,237.0109,238.5639,238.5639,239.6461,return,0.1321,,36.58854167,,,,,,FBP-RB-91.png,0.37,1.2,57,0.75,0,4,4,56,1,,,,,,,,,,,,,,,,,,,,,,,,,,,,,,,,,,,,,,,,
,,,,,V3_094,19,male,2025-01-30_15h38.43.086,jersey_experiment_5_v3,2023.2.2,Win32,84.74576271,,,,,,,,,,,,,,,,239.6463,241.199,241.1991,242.7991,return,0.1228,,83.33333333,,,,,,FBP-PT-81.png,0.37,1.2,22,0.75,0,5,5,21,1,,,,,,,,,,,,,,,,,,,,,,,,,,,,,,,,,,,,,,,,
,,,,,V3_094,19,male,2025-01-30_15h38.43.086,jersey_experiment_5_v3,2023.2.2,Win32,84.74576271,,,,,,,,,,,,,,,,242.7993,244.352,244.3521,246.6227,return,0.8024,,71.61458333,,,,,,FBP-RB-71.png,0.4,1.2,48,0.75,0,6,6,47,1,,,,,,,,,,,,,,,,,,,,,,,,,,,,,,,,,,,,,,,,
,,,,,V3_094,19,male,2025-01-30_15h38.43.086,jersey_experiment_5_v3,2023.2.2,Win32,84.74576271,,,,,,,,,,,,,,,,246.623,247.917,247.917,249.2346,return,0.7266,,84.89583333,,,,,,FBP-OG-71.png,0.43,1.2,34,0.5,0,7,7,33,1,,,,,,,,,,,,,,,,,,,,,,,,,,,,,,,,,,,,,,,,
,,,,,V3_094,19,male,2025-01-30_15h38.43.086,jersey_experiment_5_v3,2023.2.2,Win32,84.74576271,,,,,,,,,,,,,,,,249.2349,250.7879,250.7879,252.0464,return,0.5582,,98.828125,,,,,,FBP-YG-17.png,0.45,1.2,5,0.75,0,8,8,4,1,,,,,,,,,,,,,,,,,,,,,,,,,,,,,,,,,,,,,,,,
,,,,,V3_094,19,male,2025-01-30_15h38.43.086,jersey_experiment_5_v3,2023.2.2,Win32,84.74576271,,,,,,,,,,,,,,,,252.0467,253.5996,253.5996,254.3642,return,0.1475,,83.07291667,,,,,,FBP-RB-91.png,0.43,1.2,59,0.75,0,9,9,58,1,,,,,,,,,,,,,,,,,,,,,,,,,,,,,,,,,,,,,,,,
,,,,,V3_094,19,male,2025-01-30_15h38.43.086,jersey_experiment_5_v3,2023.2.2,Win32,84.74576271,,,,,,,,,,,,,,,,254.3645,255.9174,255.9175,257.5409,return,0.7785,,11.71875,,,,,,FBP-RB-91.png,0.35,1.2,56,0.75,0,10,10,55,1,,,,,,,,,,,,,,,,,,,,,,,,,,,,,,,,,,,,,,,,
,,,,,V3_094,19,male,2025-01-30_15h38.43.086,jersey_experiment_5_v3,2023.2.2,Win32,84.74576271,,,,,,,,,,,,,,,,257.5411,259.0939,259.0939,260.0115,return,0.1146,,93.61979167,,,,,,FBP-PT-81.png,0.43,1.2,24,0.75,0,11,11,23,1,,,,,,,,,,,,,,,,,,,,,,,,,,,,,,,,,,,,,,,,
,,,,,V3_094,19,male,2025-01-30_15h38.43.086,jersey_experiment_5_v3,2023.2.2,Win32,84.74576271,,,,,,,,,,,,,,,,260.0117,261.3057,261.3058,262.5648,return,0.2825,,23.69791667,,,,,,FBP-OG-91.png,0.35,1.2,41,0.5,0,12,12,40,1,,,,,,,,,,,,,,,,,,,,,,,,,,,,,,,,,,,,,,,,
,,,,,V3_094,19,male,2025-01-30_15h38.43.086,jersey_experiment_5_v3,2023.2.2,Win32,84.74576271,,,,,,,,,,,,,,,,262.565,263.8587,263.8588,265.1058,return,0.1905,,97.78645833,,,,,,FBP-OG-71.png,0.45,1.2,35,0.5,0,13,13,34,1,,,,,,,,,,,,,,,,,,,,,,,,,,,,,,,,,,,,,,,,
,,,,,V3_094,19,male,2025-01-30_15h38.43.086,jersey_experiment_5_v3,2023.2.2,Win32,84.74576271,,,,,,,,,,,,,,,,265.106,266.6588,266.6588,267.0116,return,0.1028,,97.00520833,,,,,,FBP-PT-71.png,0.43,1.2,19,0.75,0,14,14,18,1,,,,,,,,,,,,,,,,,,,,,,,,,,,,,,,,,,,,,,,,
,,,,,V3_094,19,male,2025-01-30_15h38.43.086,jersey_experiment_5_v3,2023.2.2,Win32,84.74576271,,,,,,,,,,,,,,,,267.0119,268.565,268.565,269.059,return,0.1273,,94.66145833,,,,,,FBP-RB-71.png,0.45,1.2,50,0.75,0,15,15,49,1,,,,,,,,,,,,,,,,,,,,,,,,,,,,,,,,,,,,,,,,
,,,,,V3_094,19,male,2025-01-30_15h38.43.086,jersey_experiment_5_v3,2023.2.2,Win32,84.74576271,,,,,,,,,,,,,,,,269.0594,270.612,270.612,271.412,return,0.0812,,14.84375,,,,,,FBP-PT-91.png,0.37,1.2,27,0.75,0,16,16,26,1,,,,,,,,,,,,,,,,,,,,,,,,,,,,,,,,,,,,,,,,
,,,,,V3_094,19,male,2025-01-30_15h38.43.086,jersey_experiment_5_v3,2023.2.2,Win32,84.74576271,,,,,,,,,,,,,,,,271.4122,272.9651,272.9651,273.8708,return,0.0489,,97.00520833,,,,,,FBP-YG-19.png,0.45,1.2,15,0.75,0,17,17,14,1,,,,,,,,,,,,,,,,,,,,,,,,,,,,,,,,,,,,,,,,
,,,,,V3_094,19,male,2025-01-30_15h38.43.086,jersey_experiment_5_v3,2023.2.2,Win32,84.74576271,,,,,,,,,,,,,,,,273.8711,275.165,275.1651,276.4828,return,0.1312,,27.08333333,,,,,,FBP-OG-81.png,0.35,1.2,36,0.5,0,18,18,35,1,,,,,,,,,,,,,,,,,,,,,,,,,,,,,,,,,,,,,,,,
,,,,,V3_094,19,male,2025-01-30_15h38.43.086,jersey_experiment_5_v3,2023.2.2,Win32,84.74576271,,,,,,,,,,,,,,,,276.483,278.0359,278.0359,278.9299,return,0.1671,,18.61979167,,,,,,FBP-YG-17.png,0.4,1.2,3,0.75,0,19,19,2,1,,,,,,,,,,,,,,,,,,,,,,,,,,,,,,,,,,,,,,,,
,,,,,V3_094,19,male,2025-01-30_15h38.43.086,jersey_experiment_5_v3,2023.2.2,Win32,84.74576271,,,,,,,,,,,,,,,,278.9302,280.4829,280.483,281.1888,return,0.0392,,7.161458333,,,,,,FBP-PT-81.png,0.35,1.2,21,0.75,0,20,20,20,1,,,,,,,,,,,,,,,,,,,,,,,,,,,,,,,,,,,,,,,,
,,,,,V3_094,19,male,2025-01-30_15h38.43.086,jersey_experiment_5_v3,2023.2.2,Win32,84.74576271,,,,,,,,,,,,,,,,281.1891,282.7419,282.742,283.8595,return,0.1523,,1.432291667,,,,,,FBP-YG-18.png,0.35,1.2,6,0.75,0,21,21,5,1,,,,,,,,,,,,,,,,,,,,,,,,,,,,,,,,,,,,,,,,
,,,,,V3_094,19,male,2025-01-30_15h38.43.086,jersey_experiment_5_v3,2023.2.2,Win32,84.74576271,,,,,,,,,,,,,,,,283.8598,285.4124,285.4124,286.2361,return,0.2303,,0.651041667,,,,,,FBP-YG-19.png,0.35,1.2,11,0.75,0,22,22,10,1,,,,,,,,,,,,,,,,,,,,,,,,,,,,,,,,,,,,,,,,
,,,,,V3_094,19,male,2025-01-30_15h38.43.086,jersey_experiment_5_v3,2023.2.2,Win32,84.74576271,,,,,,,,,,,,,,,,286.2363,287.7892,287.7892,288.8008,return,0.1314,,97.91666667,,,,,,FBP-PT-81.png,0.45,1.2,25,0.75,0,23,23,24,1,,,,,,,,,,,,,,,,,,,,,,,,,,,,,,,,,,,,,,,,
,,,,,V3_094,19,male,2025-01-30_15h38.43.086,jersey_experiment_5_v3,2023.2.2,Win32,84.74576271,,,,,,,,,,,,,,,,288.801,290.3538,290.3538,291.3422,return,0.1238,,74.73958333,,,,,,FBP-YG-19.png,0.4,1.2,13,0.75,0,24,24,12,1,,,,,,,,,,,,,,,,,,,,,,,,,,,,,,,,,,,,,,,,
,,,,,V3_094,19,male,2025-01-30_15h38.43.086,jersey_experiment_5_v3,2023.2.2,Win32,84.74576271,,,,,,,,,,,,,,,,291.3425,292.8951,292.8952,293.1893,return,0.0943,,74.47916667,,,,,,FBP-YG-18.png,0.4,1.2,8,0.75,0,25,25,7,1,,,,,,,,,,,,,,,,,,,,,,,,,,,,,,,,,,,,,,,,
,,,,,V3_094,19,male,2025-01-30_15h38.43.086,jersey_experiment_5_v3,2023.2.2,Win32,84.74576271,,,,,,,,,,,,,,,,293.1895,294.7425,294.7425,295.2952,return,0.0991,,86.97916667,,,,,,FBP-YG-19.png,0.43,1.2,14,0.75,0,26,26,13,1,,,,,,,,,,,,,,,,,,,,,,,,,,,,,,,,,,,,,,,,
,,,,,V3_094,19,male,2025-01-30_15h38.43.086,jersey_experiment_5_v3,2023.2.2,Win32,84.74576271,,,,,,,,,,,,,,,,295.2955,296.5894,296.5894,297.201,return,0.0265,,91.015625,,,,,,FBP-OG-81.png,0.43,1.2,39,0.5,0,27,27,38,1,,,,,,,,,,,,,,,,,,,,,,,,,,,,,,,,,,,,,,,,
,,,,,V3_094,19,male,2025-01-30_15h38.43.086,jersey_experiment_5_v3,2023.2.2,Win32,84.74576271,,,,,,,,,,,,,,,,297.2013,298.7427,298.7427,299.8601,return,0.1414,,25.65104167,,,,,,FBP-YG-17.png,0.35,1.2,1,0.75,0,28,28,0,1,,,,,,,,,,,,,,,,,,,,,,,,,,,,,,,,,,,,,,,,
,,,,,V3_094,19,male,2025-01-30_15h38.43.086,jersey_experiment_5_v3,2023.2.2,Win32,84.74576271,,,,,,,,,,,,,,,,299.8604,301.413,301.413,302.3189,return,0.098,,32.16145833,,,,,,FBP-PT-91.png,0.4,1.2,28,0.75,0,29,29,27,1,,,,,,,,,,,,,,,,,,,,,,,,,,,,,,,,,,,,,,,,
,,,,,V3_094,19,male,2025-01-30_15h38.43.086,jersey_experiment_5_v3,2023.2.2,Win32,84.74576271,,,,,,,,,,,,,,,,302.3191,303.8605,303.8605,305.0603,return,0.1048,,79.94791667,,,,,,FBP-PT-91.png,0.45,1.2,30,0.75,0,30,30,29,1,,,,,,,,,,,,,,,,,,,,,,,,,,,,,,,,,,,,,,,,
,,,,,V3_094,19,male,2025-01-30_15h38.43.086,jersey_experiment_5_v3,2023.2.2,Win32,84.74576271,,,,,,,,,,,,,,,,305.0605,306.6133,306.6133,306.9661,return,0.0473,,79.94791667,,,,,,FBP-PT-91.png,0.43,1.2,29,0.75,0,31,31,28,1,,,,,,,,,,,,,,,,,,,,,,,,,,,,,,,,,,,,,,,,
,,,,,V3_094,19,male,2025-01-30_15h38.43.086,jersey_experiment_5_v3,2023.2.2,Win32,84.74576271,,,,,,,,,,,,,,,,306.9665,308.5194,308.5194,309.1546,return,0.0825,,94.921875,,,,,,FBP-RB-91.png,0.45,1.2,60,0.75,0,32,32,59,1,,,,,,,,,,,,,,,,,,,,,,,,,,,,,,,,,,,,,,,,
,,,,,V3_094,19,male,2025-01-30_15h38.43.086,jersey_experiment_5_v3,2023.2.2,Win32,84.74576271,,,,,,,,,,,,,,,,309.1548,310.4488,310.4489,311.5664,return,0.0994,,25,,,,,,FBP-OG-81.png,0.37,1.2,37,0.5,0,33,33,36,1,,,,,,,,,,,,,,,,,,,,,,,,,,,,,,,,,,,,,,,,
,,,,,V3_094,19,male,2025-01-30_15h38.43.086,jersey_experiment_5_v3,2023.2.2,Win32,84.74576271,,,,,,,,,,,,,,,,311.5666,313.1195,313.1195,313.9076,return,0.0579,,0.130208333,,,,,,FBP-RB-81.png,0.35,1.2,51,0.75,0,34,34,50,1,,,,,,,,,,,,,,,,,,,,,,,,,,,,,,,,,,,,,,,,
,,,,,V3_094,19,male,2025-01-30_15h38.43.086,jersey_experiment_5_v3,2023.2.2,Win32,84.74576271,,,,,,,,,,,,,,,,313.9079,315.4605,315.4605,315.837,return,0.0541,,0.260416667,,,,,,FBP-YG-17.png,0.37,1.2,2,0.75,0,35,35,1,1,,,,,,,,,,,,,,,,,,,,,,,,,,,,,,,,,,,,,,,,
,,,,,V3_094,19,male,2025-01-30_15h38.43.086,jersey_experiment_5_v3,2023.2.2,Win32,84.74576271,,,,,,,,,,,,,,,,315.8372,317.3787,317.3788,318.3667,return,0.169,,76.04166667,,,,,,FBP-RB-81.png,0.43,1.2,54,0.75,0,36,36,53,1,,,,,,,,,,,,,,,,,,,,,,,,,,,,,,,,,,,,,,,,
,,,,,V3_094,19,male,2025-01-30_15h38.43.086,jersey_experiment_5_v3,2023.2.2,Win32,84.74576271,,,,,,,,,,,,,,,,318.367,319.9198,319.9199,320.755,return,0.0717,,97.13541667,,,,,,FBP-YG-18.png,0.45,1.2,10,0.75,0,37,37,9,1,,,,,,,,,,,,,,,,,,,,,,,,,,,,,,,,,,,,,,,,
,,,,,V3_094,19,male,2025-01-30_15h38.43.086,jersey_experiment_5_v3,2023.2.2,Win32,84.74576271,,,,,,,,,,,,,,,,320.7553,322.3081,322.3082,322.6374,return,0.0644,,95.96354167,,,,,,FBP-YG-17.png,0.43,1.2,4,0.75,0,38,38,3,1,,,,,,,,,,,,,,,,,,,,,,,,,,,,,,,,,,,,,,,,
,,,,,V3_094,19,male,2025-01-30_15h38.43.086,jersey_experiment_5_v3,2023.2.2,Win32,84.74576271,,,,,,,,,,,,,,,,322.6377,324.1904,324.1904,325.2022,return,0.1066,,42.70833333,,,,,,FBP-RB-81.png,0.37,1.2,52,0.75,0,39,39,51,1,,,,,,,,,,,,,,,,,,,,,,,,,,,,,,,,,,,,,,,,
,,,,,V3_094,19,male,2025-01-30_15h38.43.086,jersey_experiment_5_v3,2023.2.2,Win32,84.74576271,,,,,,,,,,,,,,,,325.2025,326.7552,326.7553,327.5082,return,0.0577,,36.71875,,,,,,FBP-YG-19.png,0.37,1.2,12,0.75,0,40,40,11,1,,,,,,,,,,,,,,,,,,,,,,,,,,,,,,,,,,,,,,,,
,,,,,V3_094,19,male,2025-01-30_15h38.43.086,jersey_experiment_5_v3,2023.2.2,Win32,84.74576271,,,,,,,,,,,,,,,,327.5084,329.0612,329.0613,329.7788,return,0.1181,,67.44791667,,,,,,FBP-RB-81.png,0.45,1.2,55,0.75,0,41,41,54,1,,,,,,,,,,,,,,,,,,,,,,,,,,,,,,,,,,,,,,,,
,,,,,V3_094,19,male,2025-01-30_15h38.43.086,jersey_experiment_5_v3,2023.2.2,Win32,84.74576271,,,,,,,,,,,,,,,,329.779,331.3318,331.3318,332.1436,return,0.0598,,23.69791667,,,,,,FBP-PT-91.png,0.35,1.2,26,0.75,0,42,42,25,1,,,,,,,,,,,,,,,,,,,,,,,,,,,,,,,,,,,,,,,,
,,,,,V3_094,19,male,2025-01-30_15h38.43.086,jersey_experiment_5_v3,2023.2.2,Win32,84.74576271,,,,,,,,,,,,,,,,332.144,333.4377,333.4378,334.179,return,0.0707,,8.59375,,,,,,FBP-OG-71.png,0.35,1.2,31,0.5,0,43,43,30,1,,,,,,,,,,,,,,,,,,,,,,,,,,,,,,,,,,,,,,,,
,,,,,V3_094,19,male,2025-01-30_15h38.43.086,jersey_experiment_5_v3,2023.2.2,Win32,84.74576271,,,,,,,,,,,,,,,,334.1795,335.4731,335.4731,336.3909,return,0.0705,,75.78125,,,,,,FBP-OG-91.png,0.45,1.2,45,0.5,0,44,44,44,1,,,,,,,,,,,,,,,,,,,,,,,,,,,,,,,,,,,,,,,,
,,,,,V3_094,19,male,2025-01-30_15h38.43.086,jersey_experiment_5_v3,2023.2.2,Win32,84.74576271,,,,,,,,,,,,,,,,336.3912,337.685,337.685,338.5909,return,0.0523,,26.04166667,,,,,,FBP-OG-91.png,0.37,1.2,42,0.5,0,45,45,41,1,,,,,,,,,,,,,,,,,,,,,,,,,,,,,,,,,,,,,,,,
,,,,,V3_094,19,male,2025-01-30_15h38.43.086,jersey_experiment_5_v3,2023.2.2,Win32,84.74576271,,,,,,,,,,,,,,,,338.5913,340.144,340.144,340.7321,return,0.0902,,33.72395833,,,,,,FBP-RB-71.png,0.37,1.2,47,0.75,0,46,46,46,1,,,,,,,,,,,,,,,,,,,,,,,,,,,,,,,,,,,,,,,,
,,,,,V3_094,19,male,2025-01-30_15h38.43.086,jersey_experiment_5_v3,2023.2.2,Win32,84.74576271,,,,,,,,,,,,,,,,340.7324,342.2852,342.2852,342.8498,return,0.0842,,34.89583333,,,,,,FBP-PT-71.png,0.37,1.2,17,0.75,0,47,47,16,1,,,,,,,,,,,,,,,,,,,,,,,,,,,,,,,,,,,,,,,,
,,,,,V3_094,19,male,2025-01-30_15h38.43.086,jersey_experiment_5_v3,2023.2.2,Win32,84.74576271,,,,,,,,,,,,,,,,342.8501,344.1441,344.1441,345.1088,return,0.0781,,76.69270833,,,,,,FBP-OG-91.png,0.43,1.2,44,0.5,0,48,48,43,1,,,,,,,,,,,,,,,,,,,,,,,,,,,,,,,,,,,,,,,,
,,,,,V3_094,19,male,2025-01-30_15h38.43.086,jersey_experiment_5_v3,2023.2.2,Win32,84.74576271,,,,,,,,,,,,,,,,345.1092,346.4031,346.4031,346.956,return,0.0773,,76.69270833,,,,,,FBP-OG-71.png,0.37,1.2,32,0.5,0,49,49,31,1,,,,,,,,,,,,,,,,,,,,,,,,,,,,,,,,,,,,,,,,
,,,,,V3_094,19,male,2025-01-30_15h38.43.086,jersey_experiment_5_v3,2023.2.2,Win32,84.74576271,,,,,,,,,,,,,,,,346.9563,348.2501,348.2501,348.8031,return,0.1056,,76.69270833,,,,,,FBP-OG-81.png,0.4,1.2,38,0.5,0,50,50,37,1,,,,,,,,,,,,,,,,,,,,,,,,,,,,,,,,,,,,,,,,
,,,,,V3_094,19,male,2025-01-30_15h38.43.086,jersey_experiment_5_v3,2023.2.2,Win32,84.74576271,,,,,,,,,,,,,,,,348.8034,350.356,350.3561,350.6033,return,0.0914,,76.69270833,,,,,,FBP-YG-18.png,0.43,1.2,9,0.75,0,51,51,8,1,,,,,,,,,,,,,,,,,,,,,,,,,,,,,,,,,,,,,,,,
,,,,,V3_094,19,male,2025-01-30_15h38.43.086,jersey_experiment_5_v3,2023.2.2,Win32,84.74576271,,,,,,,,,,,,,,,,350.6034,352.1561,352.1562,352.4973,return,0.0347,,76.69270833,,,,,,FBP-PT-71.png,0.4,1.2,18,0.75,0,52,52,17,1,,,,,,,,,,,,,,,,,,,,,,,,,,,,,,,,,,,,,,,,
,,,,,V3_094,19,male,2025-01-30_15h38.43.086,jersey_experiment_5_v3,2023.2.2,Win32,84.74576271,,,,,,,,,,,,,,,,352.4976,354.0503,354.0503,354.4974,return,0.1438,,76.69270833,,,,,,FBP-RB-91.png,0.4,1.2,58,0.75,0,53,53,57,1,,,,,,,,,,,,,,,,,,,,,,,,,,,,,,,,,,,,,,,,
,,,,,V3_094,19,male,2025-01-30_15h38.43.086,jersey_experiment_5_v3,2023.2.2,Win32,84.74576271,,,,,,,,,,,,,,,,354.4977,356.0504,356.0504,356.4505,return,0.0252,,81.640625,,,,,,FBP-PT-71.png,0.45,1.2,20,0.75,0,54,54,19,1,,,,,,,,,,,,,,,,,,,,,,,,,,,,,,,,,,,,,,,,
,,,,,V3_094,19,male,2025-01-30_15h38.43.086,jersey_experiment_5_v3,2023.2.2,Win32,84.74576271,,,,,,,,,,,,,,,,356.4507,357.9919,357.9919,358.38,return,0.0394,,80.859375,,,,,,FBP-RB-81.png,0.4,1.2,53,0.75,0,55,55,52,1,,,,,,,,,,,,,,,,,,,,,,,,,,,,,,,,,,,,,,,,
,,,,,V3_094,19,male,2025-01-30_15h38.43.086,jersey_experiment_5_v3,2023.2.2,Win32,84.74576271,,,,,,,,,,,,,,,,358.3802,359.9329,359.933,360.6388,return,0.029,,26.43229167,,,,,,FBP-PT-71.png,0.35,1.2,16,0.75,0,56,56,15,1,,,,,,,,,,,,,,,,,,,,,,,,,,,,,,,,,,,,,,,,
,,,,,V3_094,19,male,2025-01-30_15h38.43.086,jersey_experiment_5_v3,2023.2.2,Win32,84.74576271,,,,,,,,,,,,,,,,360.639,362.1919,362.192,363.8859,return,0.8145,,42.44791667,,,,,,FBP-YG-18.png,0.37,1.2,7,0.75,0,57,57,6,1,,,,,,,,,,,,,,,,,,,,,,,,,,,,,,,,,,,,,,,,
,,,,,V3_094,19,male,2025-01-30_15h38.43.086,jersey_experiment_5_v3,2023.2.2,Win32,84.74576271,,,,,,,,,,,,,,,,363.8861,365.1801,365.1801,366.5332,return,0.0917,,74.47916667,,,,,,FBP-OG-81.png,0.45,1.2,40,0.5,0,58,58,39,1,,,,,,,,,,,,,,,,,,,,,,,,,,,,,,,,,,,,,,,,
,,,,,V3_094,19,male,2025-01-30_15h38.43.086,jersey_experiment_5_v3,2023.2.2,Win32,84.74576271,,,,,,,,,,,,,,,,366.5334,368.0863,368.0863,368.9568,return,0.0664,,5.338541667,,,,,,FBP-RB-71.png,0.35,1.2,46,0.75,0,59,59,45,1,,,,,,,,,,,,,,,,,,,,,,,,,,,,,,,,,,,,,,,,
,,,,,V3_094,19,male,2025-01-30_15h38.43.086,jersey_experiment_5_v3,2023.2.2,Win32,84.74576271,,,,,,,,,,,,,,,,,,,,,,,,,,,,,,,,,,,,,,,368.9568,488.9497,,,,,,,,,,,,,,,,,,,,,,,,,,,,,,,,,,,,,,
,,,,,V3_094,19,male,2025-01-30_15h38.43.086,jersey_experiment_5_v3,2023.2.2,Win32,84.74576271,,,,,,,,,,,,,,,,,,,,,,,,,,,,,,,,,,,,,,,,,488.9498,498.0322,return,9.0713,,,,,,,,,,,,,,,,,,,,,,,,,,,,,,,,,,
,,,,,V3_094,19,male,2025-01-30_15h38.43.086,jersey_experiment_5_v3,2023.2.2,Win32,84.74576271,,,,,,,,,,,,,,,,498.0342,499.3262,499.3262,504.4325,return,2.5091,,42.578125,,,,,,FBP-PT-17.png,0.35,1.2,16,0.5,,,,,,,,,,,,,0,0,0,15,1,,,,,,,,,,,,,,,,,,,,,,,,,,,,
,,,,,V3_094,19,male,2025-01-30_15h38.43.086,jersey_experiment_5_v3,2023.2.2,Win32,84.74576271,,,,,,,,,,,,,,,,504.4328,505.7266,505.7267,506.4325,return,0.0744,,28.64583333,,,,,,FBP-RB-18.png,0.35,1.2,51,0.5,,,,,,,,,,,,,0,1,1,50,1,,,,,,,,,,,,,,,,,,,,,,,,,,,,
,,,,,V3_094,19,male,2025-01-30_15h38.43.086,jersey_experiment_5_v3,2023.2.2,Win32,84.74576271,,,,,,,,,,,,,,,,506.4328,507.9859,507.986,508.6445,return,0.071,,71.484375,,,,,,FBP-OG-17.png,0.43,1.2,34,0.75,,,,,,,,,,,,,0,2,2,33,1,,,,,,,,,,,,,,,,,,,,,,,,,,,,
,,,,,V3_094,19,male,2025-01-30_15h38.43.086,jersey_experiment_5_v3,2023.2.2,Win32,84.74576271,,,,,,,,,,,,,,,,508.6449,509.9385,509.9385,510.6211,return,0.1956,,85.15625,,,,,,FBP-PT-18.png,0.45,1.2,25,0.5,,,,,,,,,,,,,0,3,3,24,1,,,,,,,,,,,,,,,,,,,,,,,,,,,,
,,,,,V3_094,19,male,2025-01-30_15h38.43.086,jersey_experiment_5_v3,2023.2.2,Win32,84.74576271,,,,,,,,,,,,,,,,510.6213,511.915,511.9151,512.7387,return,0.0354,,32.421875,,,,,,FBP-RB-17.png,0.35,1.2,46,0.5,,,,,,,,,,,,,0,4,4,45,1,,,,,,,,,,,,,,,,,,,,,,,,,,,,
,,,,,V3_094,19,male,2025-01-30_15h38.43.086,jersey_experiment_5_v3,2023.2.2,Win32,84.74576271,,,,,,,,,,,,,,,,512.7389,514.2918,514.2918,515.0564,return,0.1096,,97.265625,,,,,,FBP-OG-18.png,0.45,1.2,40,0.75,,,,,,,,,,,,,0,5,5,39,1,,,,,,,,,,,,,,,,,,,,,,,,,,,,
,,,,,V3_094,19,male,2025-01-30_15h38.43.086,jersey_experiment_5_v3,2023.2.2,Win32,84.74576271,,,,,,,,,,,,,,,,515.0567,516.3506,516.3506,517.2329,return,0.0372,,39.84375,,,,,,FBP-YG-81.png,0.37,1.2,7,0.5,,,,,,,,,,,,,0,6,6,6,1,,,,,,,,,,,,,,,,,,,,,,,,,,,,
,,,,,V3_094,19,male,2025-01-30_15h38.43.086,jersey_experiment_5_v3,2023.2.2,Win32,84.74576271,,,,,,,,,,,,,,,,517.2331,518.527,518.5271,519.1508,return,0.0646,,33.33333333,,,,,,FBP-PT-19.png,0.35,1.2,26,0.5,,,,,,,,,,,,,0,7,7,25,1,,,,,,,,,,,,,,,,,,,,,,,,,,,,
,,,,,V3_094,19,male,2025-01-30_15h38.43.086,jersey_experiment_5_v3,2023.2.2,Win32,84.74576271,,,,,,,,,,,,,,,,519.151,520.4449,520.4449,521.0213,return,0.0539,,21.35416667,,,,,,FBP-RB-19.png,0.35,1.2,56,0.5,,,,,,,,,,,,,0,8,8,55,1,,,,,,,,,,,,,,,,,,,,,,,,,,,,
,,,,,V3_094,19,male,2025-01-30_15h38.43.086,jersey_experiment_5_v3,2023.2.2,Win32,84.74576271,,,,,,,,,,,,,,,,521.0216,522.3155,522.3156,522.8919,return,0.0672,,31.640625,,,,,,FBP-YG-81.png,0.4,1.2,8,0.5,,,,,,,,,,,,,0,9,9,7,1,,,,,,,,,,,,,,,,,,,,,,,,,,,,
,,,,,V3_094,19,male,2025-01-30_15h38.43.086,jersey_experiment_5_v3,2023.2.2,Win32,84.74576271,,,,,,,,,,,,,,,,522.8922,524.4451,524.4451,524.9509,return,0.0707,,72.65625,,,,,,FBP-OG-19.png,0.45,1.2,45,0.75,,,,,,,,,,,,,0,10,10,44,1,,,,,,,,,,,,,,,,,,,,,,,,,,,,
,,,,,V3_094,19,male,2025-01-30_15h38.43.086,jersey_experiment_5_v3,2023.2.2,Win32,84.74576271,,,,,,,,,,,,,,,,524.9513,526.2452,526.2452,526.704,return,0.0481,,72.52604167,,,,,,FBP-RB-18.png,0.4,1.2,53,0.5,,,,,,,,,,,,,0,11,11,52,1,,,,,,,,,,,,,,,,,,,,,,,,,,,,
,,,,,V3_094,19,male,2025-01-30_15h38.43.086,jersey_experiment_5_v3,2023.2.2,Win32,84.74576271,,,,,,,,,,,,,,,,526.7042,528.257,528.257,528.8922,return,0.0905,,58.85416667,,,,,,FBP-OG-18.png,0.37,1.2,37,0.75,,,,,,,,,,,,,0,12,12,36,1,,,,,,,,,,,,,,,,,,,,,,,,,,,,
,,,,,V3_094,19,male,2025-01-30_15h38.43.086,jersey_experiment_5_v3,2023.2.2,Win32,84.74576271,,,,,,,,,,,,,,,,528.8925,530.4455,530.4455,531.1865,return,0.1067,,19.01041667,,,,,,FBP-OG-19.png,0.35,1.2,41,0.75,,,,,,,,,,,,,0,13,13,40,1,,,,,,,,,,,,,,,,,,,,,,,,,,,,
,,,,,V3_094,19,male,2025-01-30_15h38.43.086,jersey_experiment_5_v3,2023.2.2,Win32,84.74576271,,,,,,,,,,,,,,,,531.1867,532.4806,532.4807,533.4101,return,0.108,,77.34375,,,,,,FBP-YG-91.png,0.45,1.2,15,0.5,,,,,,,,,,,,,0,14,14,14,1,,,,,,,,,,,,,,,,,,,,,,,,,,,,
,,,,,V3_094,19,male,2025-01-30_15h38.43.086,jersey_experiment_5_v3,2023.2.2,Win32,84.74576271,,,,,,,,,,,,,,,,533.4103,534.7041,534.7041,535.1866,return,0.0838,,76.04166667,,,,,,FBP-RB-17.png,0.43,1.2,49,0.5,,,,,,,,,,,,,0,15,15,48,1,,,,,,,,,,,,,,,,,,,,,,,,,,,,
,,,,,V3_094,19,male,2025-01-30_15h38.43.086,jersey_experiment_5_v3,2023.2.2,Win32,84.74576271,,,,,,,,,,,,,,,,535.1869,536.4807,536.4807,537.0101,return,0.0242,,76.171875,,,,,,FBP-RB-18.png,0.45,1.2,55,0.5,,,,,,,,,,,,,0,16,16,54,1,,,,,,,,,,,,,,,,,,,,,,,,,,,,
,,,,,V3_094,19,male,2025-01-30_15h38.43.086,jersey_experiment_5_v3,2023.2.2,Win32,84.74576271,,,,,,,,,,,,,,,,537.0104,538.3044,538.3044,539.1161,return,0.0415,,24.08854167,,,,,,FBP-PT-19.png,0.37,1.2,27,0.5,,,,,,,,,,,,,0,17,17,26,1,,,,,,,,,,,,,,,,,,,,,,,,,,,,
,,,,,V3_094,19,male,2025-01-30_15h38.43.086,jersey_experiment_5_v3,2023.2.2,Win32,84.74576271,,,,,,,,,,,,,,,,539.1163,540.4101,540.4102,540.8691,return,0.0134,,21.74479167,,,,,,FBP-RB-18.png,0.37,1.2,52,0.5,,,,,,,,,,,,,0,18,18,51,1,,,,,,,,,,,,,,,,,,,,,,,,,,,,
,,,,,V3_094,19,male,2025-01-30_15h38.43.086,jersey_experiment_5_v3,2023.2.2,Win32,84.74576271,,,,,,,,,,,,,,,,540.8694,542.1633,542.1634,544.0222,return,0.0703,,84.50520833,,,,,,FBP-PT-17.png,0.45,1.2,20,0.5,,,,,,,,,,,,,0,19,19,19,1,,,,,,,,,,,,,,,,,,,,,,,,,,,,
,,,,,V3_094,19,male,2025-01-30_15h38.43.086,jersey_experiment_5_v3,2023.2.2,Win32,84.74576271,,,,,,,,,,,,,,,,544.0225,545.3164,545.3165,545.8928,return,0.0085,,82.421875,,,,,,FBP-RB-19.png,0.37,1.2,57,0.5,,,,,,,,,,,,,0,20,20,56,1,,,,,,,,,,,,,,,,,,,,,,,,,,,,
,,,,,V3_094,19,male,2025-01-30_15h38.43.086,jersey_experiment_5_v3,2023.2.2,Win32,84.74576271,,,,,,,,,,,,,,,,545.893,547.4459,547.446,547.7284,return,0.0984,,94.40104167,,,,,,FBP-OG-17.png,0.45,1.2,35,0.75,,,,,,,,,,,,,0,21,21,34,1,,,,,,,,,,,,,,,,,,,,,,,,,,,,
,,,,,V3_094,19,male,2025-01-30_15h38.43.086,jersey_experiment_5_v3,2023.2.2,Win32,84.74576271,,,,,,,,,,,,,,,,547.7286,549.0224,549.0225,549.7753,return,0.052,,18.75,,,,,,FBP-YG-71.png,0.35,1.2,1,0.5,,,,,,,,,,,,,0,22,22,0,1,,,,,,,,,,,,,,,,,,,,,,,,,,,,
,,,,,V3_094,19,male,2025-01-30_15h38.43.086,jersey_experiment_5_v3,2023.2.2,Win32,84.74576271,,,,,,,,,,,,,,,,549.7756,551.0696,551.0697,551.7166,return,0.0605,,66.92708333,,,,,,FBP-PT-18.png,0.43,1.2,24,0.5,,,,,,,,,,,,,0,23,23,23,1,,,,,,,,,,,,,,,,,,,,,,,,,,,,
,,,,,V3_094,19,male,2025-01-30_15h38.43.086,jersey_experiment_5_v3,2023.2.2,Win32,84.74576271,,,,,,,,,,,,,,,,551.7169,553.0109,553.0109,553.9992,return,0.1583,,10.80729167,,,,,,FBP-RB-17.png,0.4,1.2,48,0.5,,,,,,,,,,,,,0,24,24,47,1,,,,,,,,,,,,,,,,,,,,,,,,,,,,
,,,,,V3_094,19,male,2025-01-30_15h38.43.086,jersey_experiment_5_v3,2023.2.2,Win32,84.74576271,,,,,,,,,,,,,,,,553.9994,555.2933,555.2933,556.0697,return,0.0716,,23.4375,,,,,,FBP-YG-91.png,0.4,1.2,13,0.5,,,,,,,,,,,,,0,25,25,12,1,,,,,,,,,,,,,,,,,,,,,,,,,,,,
,,,,,V3_094,19,male,2025-01-30_15h38.43.086,jersey_experiment_5_v3,2023.2.2,Win32,84.74576271,,,,,,,,,,,,,,,,556.0699,557.3639,557.3639,558.1874,return,0.091,,27.08333333,,,,,,FBP-PT-18.png,0.4,1.2,23,0.5,,,,,,,,,,,,,0,26,26,22,1,,,,,,,,,,,,,,,,,,,,,,,,,,,,
,,,,,V3_094,19,male,2025-01-30_15h38.43.086,jersey_experiment_5_v3,2023.2.2,Win32,84.74576271,,,,,,,,,,,,,,,,558.1877,559.4816,559.4817,561.1051,return,0.1565,,0.260416667,,,,,,FBP-PT-18.png,0.35,1.2,21,0.5,,,,,,,,,,,,,0,27,27,20,1,,,,,,,,,,,,,,,,,,,,,,,,,,,,
,,,,,V3_094,19,male,2025-01-30_15h38.43.086,jersey_experiment_5_v3,2023.2.2,Win32,84.74576271,,,,,,,,,,,,,,,,561.1053,562.6581,562.6581,563.0582,return,0.1077,,3.255208333,,,,,,FBP-OG-17.png,0.37,1.2,32,0.75,,,,,,,,,,,,,0,28,28,31,1,,,,,,,,,,,,,,,,,,,,,,,,,,,,
,,,,,V3_094,19,male,2025-01-30_15h38.43.086,jersey_experiment_5_v3,2023.2.2,Win32,84.74576271,,,,,,,,,,,,,,,,563.0584,564.6113,564.6113,565.4583,return,0.0608,,10.546875,,,,,,FBP-OG-17.png,0.4,1.2,33,0.75,,,,,,,,,,,,,0,29,29,32,1,,,,,,,,,,,,,,,,,,,,,,,,,,,,
,,,,,V3_094,19,male,2025-01-30_15h38.43.086,jersey_experiment_5_v3,2023.2.2,Win32,84.74576271,,,,,,,,,,,,,,,,565.4586,566.7524,566.7525,567.5407,return,0.0554,,86.58854167,,,,,,FBP-PT-19.png,0.45,1.2,30,0.5,,,,,,,,,,,,,0,30,30,29,1,,,,,,,,,,,,,,,,,,,,,,,,,,,,
,,,,,V3_094,19,male,2025-01-30_15h38.43.086,jersey_experiment_5_v3,2023.2.2,Win32,84.74576271,,,,,,,,,,,,,,,,567.541,569.0938,569.0939,569.729,return,0.0839,,23.828125,,,,,,FBP-OG-18.png,0.35,1.2,36,0.75,,,,,,,,,,,,,0,31,31,35,1,,,,,,,,,,,,,,,,,,,,,,,,,,,,
,,,,,V3_094,19,male,2025-01-30_15h38.43.086,jersey_experiment_5_v3,2023.2.2,Win32,84.74576271,,,,,,,,,,,,,,,,569.7292,571.0233,571.0234,571.7761,return,0.1093,,81.90104167,,,,,,FBP-RB-17.png,0.45,1.2,50,0.5,,,,,,,,,,,,,0,32,32,49,1,,,,,,,,,,,,,,,,,,,,,,,,,,,,
,,,,,V3_094,19,male,2025-01-30_15h38.43.086,jersey_experiment_5_v3,2023.2.2,Win32,84.74576271,,,,,,,,,,,,,,,,571.7764,573.0704,573.0704,573.5998,return,0.0738,,75.13020833,,,,,,FBP-PT-17.png,0.4,1.2,18,0.5,,,,,,,,,,,,,0,33,33,17,1,,,,,,,,,,,,,,,,,,,,,,,,,,,,
,,,,,V3_094,19,male,2025-01-30_15h38.43.086,jersey_experiment_5_v3,2023.2.2,Win32,84.74576271,,,,,,,,,,,,,,,,573.6002,574.8939,574.894,578.2707,return,0.0998,,37.63020833,,,,,,FBP-YG-91.png,0.37,1.2,12,0.5,,,,,,,,,,,,,0,34,34,11,1,,,,,,,,,,,,,,,,,,,,,,,,,,,,
,,,,,V3_094,19,male,2025-01-30_15h38.43.086,jersey_experiment_5_v3,2023.2.2,Win32,84.74576271,,,,,,,,,,,,,,,,578.2709,579.5648,579.5649,580.2236,return,0.0396,,85.15625,,,,,,FBP-PT-19.png,0.43,1.2,29,0.5,,,,,,,,,,,,,0,35,35,28,1,,,,,,,,,,,,,,,,,,,,,,,,,,,,
,,,,,V3_094,19,male,2025-01-30_15h38.43.086,jersey_experiment_5_v3,2023.2.2,Win32,84.74576271,,,,,,,,,,,,,,,,580.2238,581.5178,581.5178,582.4353,return,0.0583,,24.73958333,,,,,,FBP-PT-17.png,0.37,1.2,17,0.5,,,,,,,,,,,,,0,36,36,16,1,,,,,,,,,,,,,,,,,,,,,,,,,,,,
,,,,,V3_094,19,male,2025-01-30_15h38.43.086,jersey_experiment_5_v3,2023.2.2,Win32,84.74576271,,,,,,,,,,,,,,,,582.4356,583.7296,583.7296,584.4826,return,0.0826,,17.83854167,,,,,,FBP-YG-81.png,0.35,1.2,6,0.5,,,,,,,,,,,,,0,37,37,5,1,,,,,,,,,,,,,,,,,,,,,,,,,,,,
,,,,,V3_094,19,male,2025-01-30_15h38.43.086,jersey_experiment_5_v3,2023.2.2,Win32,84.74576271,,,,,,,,,,,,,,,,584.4829,585.777,585.777,586.3885,return,0.0585,,3.125,,,,,,FBP-YG-71.png,0.37,1.2,2,0.5,,,,,,,,,,,,,0,38,38,1,1,,,,,,,,,,,,,,,,,,,,,,,,,,,,
,,,,,V3_094,19,male,2025-01-30_15h38.43.086,jersey_experiment_5_v3,2023.2.2,Win32,84.74576271,,,,,,,,,,,,,,,,586.3888,587.6827,587.6828,588.3887,return,0.0708,,6.901041667,,,,,,FBP-YG-71.png,0.4,1.2,3,0.5,,,,,,,,,,,,,0,39,39,2,1,,,,,,,,,,,,,,,,,,,,,,,,,,,,
,,,,,V3_094,19,male,2025-01-30_15h38.43.086,jersey_experiment_5_v3,2023.2.2,Win32,84.74576271,,,,,,,,,,,,,,,,588.3889,589.6828,589.6828,591.0123,return,0.165,,72.91666667,,,,,,FBP-RB-19.png,0.43,1.2,59,0.5,,,,,,,,,,,,,0,40,40,58,1,,,,,,,,,,,,,,,,,,,,,,,,,,,,
,,,,,V3_094,19,male,2025-01-30_15h38.43.086,jersey_experiment_5_v3,2023.2.2,Win32,84.74576271,,,,,,,,,,,,,,,,591.0127,592.3064,592.3065,593.2477,return,0.0264,,76.30208333,,,,,,FBP-PT-19.png,0.4,1.2,28,0.5,,,,,,,,,,,,,0,41,41,27,1,,,,,,,,,,,,,,,,,,,,,,,,,,,,
,,,,,V3_094,19,male,2025-01-30_15h38.43.086,jersey_experiment_5_v3,2023.2.2,Win32,84.74576271,,,,,,,,,,,,,,,,593.248,594.5417,594.5418,595.0241,return,0.0621,,84.375,,,,,,FBP-YG-71.png,0.45,1.2,5,0.5,,,,,,,,,,,,,0,42,42,4,1,,,,,,,,,,,,,,,,,,,,,,,,,,,,
,,,,,V3_094,19,male,2025-01-30_15h38.43.086,jersey_experiment_5_v3,2023.2.2,Win32,84.74576271,,,,,,,,,,,,,,,,595.0243,596.3184,596.3184,597.4947,return,0.0707,,36.19791667,,,,,,FBP-RB-17.png,0.37,1.2,47,0.5,,,,,,,,,,,,,0,43,43,46,1,,,,,,,,,,,,,,,,,,,,,,,,,,,,
,,,,,V3_094,19,male,2025-01-30_15h38.43.086,jersey_experiment_5_v3,2023.2.2,Win32,84.74576271,,,,,,,,,,,,,,,,597.4951,598.789,598.7891,600.342,return,0.0471,,68.22916667,,,,,,FBP-YG-81.png,0.45,1.2,10,0.5,,,,,,,,,,,,,0,44,44,9,1,,,,,,,,,,,,,,,,,,,,,,,,,,,,
,,,,,V3_094,19,male,2025-01-30_15h38.43.086,jersey_experiment_5_v3,2023.2.2,Win32,84.74576271,,,,,,,,,,,,,,,,600.3423,601.6365,601.6365,602.6362,return,0.067,,0.78125,,,,,,FBP-YG-91.png,0.35,1.2,11,0.5,,,,,,,,,,,,,0,45,45,10,1,,,,,,,,,,,,,,,,,,,,,,,,,,,,
,,,,,V3_094,19,male,2025-01-30_15h38.43.086,jersey_experiment_5_v3,2023.2.2,Win32,84.74576271,,,,,,,,,,,,,,,,602.6364,603.9304,603.9305,604.5422,return,0.1227,,8.723958333,,,,,,FBP-YG-71.png,0.43,1.2,4,0.5,,,,,,,,,,,,,0,46,46,3,1,,,,,,,,,,,,,,,,,,,,,,,,,,,,
,,,,,V3_094,19,male,2025-01-30_15h38.43.086,jersey_experiment_5_v3,2023.2.2,Win32,84.74576271,,,,,,,,,,,,,,,,604.5424,605.8365,605.8366,606.3657,return,0.1715,,17.83854167,,,,,,FBP-PT-17.png,0.43,1.2,19,0.5,,,,,,,,,,,,,0,47,47,18,1,,,,,,,,,,,,,,,,,,,,,,,,,,,,
,,,,,V3_094,19,male,2025-01-30_15h38.43.086,jersey_experiment_5_v3,2023.2.2,Win32,84.74576271,,,,,,,,,,,,,,,,606.366,607.9189,607.9189,608.3658,return,0.1241,,7.03125,,,,,,FBP-OG-19.png,0.4,1.2,43,0.75,,,,,,,,,,,,,0,48,48,42,1,,,,,,,,,,,,,,,,,,,,,,,,,,,,
,,,,,V3_094,19,male,2025-01-30_15h38.43.086,jersey_experiment_5_v3,2023.2.2,Win32,84.74576271,,,,,,,,,,,,,,,,608.366,609.6602,609.6602,611.7779,return,1.65,,62.23958333,,,,,,FBP-RB-18.png,0.43,1.2,54,0.5,,,,,,,,,,,,,0,49,49,53,1,,,,,,,,,,,,,,,,,,,,,,,,,,,,
,,,,,V3_094,19,male,2025-01-30_15h38.43.086,jersey_experiment_5_v3,2023.2.2,Win32,84.74576271,,,,,,,,,,,,,,,,611.7781,613.3309,613.3309,614.3073,return,0.1327,,34.89583333,,,,,,FBP-OG-18.png,0.4,1.2,38,0.75,,,,,,,,,,,,,0,50,50,37,1,,,,,,,,,,,,,,,,,,,,,,,,,,,,
,,,,,V3_094,19,male,2025-01-30_15h38.43.086,jersey_experiment_5_v3,2023.2.2,Win32,84.74576271,,,,,,,,,,,,,,,,614.3076,615.6016,615.6016,616.7544,return,0.0954,,77.47395833,,,,,,FBP-RB-19.png,0.45,1.2,60,0.5,,,,,,,,,,,,,0,51,51,59,1,,,,,,,,,,,,,,,,,,,,,,,,,,,,
,,,,,V3_094,19,male,2025-01-30_15h38.43.086,jersey_experiment_5_v3,2023.2.2,Win32,84.74576271,,,,,,,,,,,,,,,,616.7547,618.3074,618.3075,618.625,return,0.0976,,74.08854167,,,,,,FBP-OG-19.png,0.43,1.2,44,0.75,,,,,,,,,,,,,0,52,52,43,1,,,,,,,,,,,,,,,,,,,,,,,,,,,,
,,,,,V3_094,19,male,2025-01-30_15h38.43.086,jersey_experiment_5_v3,2023.2.2,Win32,84.74576271,,,,,,,,,,,,,,,,618.6252,619.9193,619.9193,620.3192,return,0.0155,,79.94791667,,,,,,FBP-YG-91.png,0.43,1.2,14,0.5,,,,,,,,,,,,,0,53,53,13,1,,,,,,,,,,,,,,,,,,,,,,,,,,,,
,,,,,V3_094,19,male,2025-01-30_15h38.43.086,jersey_experiment_5_v3,2023.2.2,Win32,84.74576271,,,,,,,,,,,,,,,,620.3195,621.8724,621.8724,622.7075,return,0.1554,,44.140625,,,,,,FBP-OG-17.png,0.35,1.2,31,0.75,,,,,,,,,,,,,0,54,54,30,1,,,,,,,,,,,,,,,,,,,,,,,,,,,,
,,,,,V3_094,19,male,2025-01-30_15h38.43.086,jersey_experiment_5_v3,2023.2.2,Win32,84.74576271,,,,,,,,,,,,,,,,622.7077,624.249,624.249,624.9429,return,0.049,,62.5,,,,,,FBP-OG-18.png,0.43,1.2,39,0.75,,,,,,,,,,,,,0,55,55,38,1,,,,,,,,,,,,,,,,,,,,,,,,,,,,
,,,,,V3_094,19,male,2025-01-30_15h38.43.086,jersey_experiment_5_v3,2023.2.2,Win32,84.74576271,,,,,,,,,,,,,,,,624.9432,626.496,626.4961,627.0607,return,0.0627,,39.19270833,,,,,,FBP-OG-19.png,0.37,1.2,42,0.75,,,,,,,,,,,,,0,56,56,41,1,,,,,,,,,,,,,,,,,,,,,,,,,,,,
,,,,,V3_094,19,male,2025-01-30_15h38.43.086,jersey_experiment_5_v3,2023.2.2,Win32,84.74576271,,,,,,,,,,,,,,,,627.0609,628.3549,628.3549,629.4255,return,0.579,,69.01041667,,,,,,FBP-YG-81.png,0.43,1.2,9,0.5,,,,,,,,,,,,,0,57,57,8,1,,,,,,,,,,,,,,,,,,,,,,,,,,,,
,,,,,V3_094,19,male,2025-01-30_15h38.43.086,jersey_experiment_5_v3,2023.2.2,Win32,84.74576271,,,,,,,,,,,,,,,,629.4257,630.7196,630.7196,633.061,return,1.2131,,54.42708333,,,,,,FBP-PT-18.png,0.37,1.2,22,0.5,,,,,,,,,,,,,0,58,58,21,1,,,,,,,,,,,,,,,,,,,,,,,,,,,,
,,,,,V3_094,19,male,2025-01-30_15h38.43.086,jersey_experiment_5_v3,2023.2.2,Win32,84.74576271,,,,,,,,,,,,,,,,633.0614,634.355,634.3551,634.9668,return,0.1309,,75.65104167,,,,,,FBP-RB-19.png,0.4,1.2,58,0.5,,,,,,,,,,,,,0,59,59,57,1,,,,,,,,,,,,,,,,,,,,,,,,,,,,
,,,,,V3_094,19,male,2025-01-30_15h38.43.086,jersey_experiment_5_v3,2023.2.2,Win32,84.74576271,,,,,,,,,,,,,,,,634.9682,636.5201,636.5201,636.9317,return,0.0813,,68.88020833,,,,,,FBP-OG-91.png,0.4,1.2,43,0.75,,,,,,,,,,,,,,,,,,0,0,0,42,1,,,,,,,,,,,,,,,,,,,,,,,
,,,,,V3_094,19,male,2025-01-30_15h38.43.086,jersey_experiment_5_v3,2023.2.2,Win32,84.74576271,,,,,,,,,,,,,,,,636.9319,638.4847,638.4848,639.0139,return,0.0624,,38.80208333,,,,,,FBP-OG-71.png,0.37,1.2,32,0.75,,,,,,,,,,,,,,,,,,0,1,1,31,1,,,,,,,,,,,,,,,,,,,,,,,
,,,,,V3_094,19,male,2025-01-30_15h38.43.086,jersey_experiment_5_v3,2023.2.2,Win32,84.74576271,,,,,,,,,,,,,,,,639.0142,640.5671,640.5671,641.1906,return,0.2238,,61.58854167,,,,,,FBP-OG-91.png,0.43,1.2,44,0.75,,,,,,,,,,,,,,,,,,0,2,2,43,1,,,,,,,,,,,,,,,,,,,,,,,
,,,,,V3_094,19,male,2025-01-30_15h38.43.086,jersey_experiment_5_v3,2023.2.2,Win32,84.74576271,,,,,,,,,,,,,,,,641.1909,642.4847,642.4848,643.5556,return,0.1067,,98.69791667,,,,,,FBP-RB-71.png,0.45,1.2,50,0.5,,,,,,,,,,,,,,,,,,0,3,3,49,1,,,,,,,,,,,,,,,,,,,,,,,
,,,,,V3_094,19,male,2025-01-30_15h38.43.086,jersey_experiment_5_v3,2023.2.2,Win32,84.74576271,,,,,,,,,,,,,,,,643.5558,645.1086,645.1087,645.7083,return,0.0891,,79.296875,,,,,,FBP-OG-81.png,0.4,1.2,38,0.75,,,,,,,,,,,,,,,,,,0,4,4,37,1,,,,,,,,,,,,,,,,,,,,,,,
,,,,,V3_094,19,male,2025-01-30_15h38.43.086,jersey_experiment_5_v3,2023.2.2,Win32,84.74576271,,,,,,,,,,,,,,,,645.7086,647.0026,647.0027,648.6614,return,0.4626,,31.51041667,,,,,,FBP-PT-91.png,0.37,1.2,27,0.5,,,,,,,,,,,,,,,,,,0,5,5,26,1,,,,,,,,,,,,,,,,,,,,,,,
,,,,,V3_094,19,male,2025-01-30_15h38.43.086,jersey_experiment_5_v3,2023.2.2,Win32,84.74576271,,,,,,,,,,,,,,,,648.6617,649.9556,649.9557,650.685,return,0.1135,,66.796875,,,,,,FBP-PT-71.png,0.37,1.2,17,0.5,,,,,,,,,,,,,,,,,,0,6,6,16,1,,,,,,,,,,,,,,,,,,,,,,,
,,,,,V3_094,19,male,2025-01-30_15h38.43.086,jersey_experiment_5_v3,2023.2.2,Win32,84.74576271,,,,,,,,,,,,,,,,650.6853,651.9793,651.9793,652.944,return,0.4632,,90.75520833,,,,,,FBP-PT-91.png,0.4,1.2,28,0.5,,,,,,,,,,,,,,,,,,0,7,7,27,1,,,,,,,,,,,,,,,,,,,,,,,
,,,,,V3_094,19,male,2025-01-30_15h38.43.086,jersey_experiment_5_v3,2023.2.2,Win32,84.74576271,,,,,,,,,,,,,,,,652.9442,654.2383,654.2384,655.9559,return,0.4708,,17.70833333,,,,,,FBP-RB-91.png,0.35,1.2,56,0.5,,,,,,,,,,,,,,,,,,0,8,8,55,1,,,,,,,,,,,,,,,,,,,,,,,
,,,,,V3_094,19,male,2025-01-30_15h38.43.086,jersey_experiment_5_v3,2023.2.2,Win32,84.74576271,,,,,,,,,,,,,,,,655.9562,657.25,657.2501,658.3325,return,0.114,,6.901041667,,,,,,FBP-PT-91.png,0.35,1.2,26,0.5,,,,,,,,,,,,,,,,,,0,9,9,25,1,,,,,,,,,,,,,,,,,,,,,,,
,,,,,V3_094,19,male,2025-01-30_15h38.43.086,jersey_experiment_5_v3,2023.2.2,Win32,84.74576271,,,,,,,,,,,,,,,,658.3328,659.6266,659.6267,660.4031,return,0.1328,,98.828125,,,,,,FBP-RB-81.png,0.43,1.2,54,0.5,,,,,,,,,,,,,,,,,,0,10,10,53,1,,,,,,,,,,,,,,,,,,,,,,,
,,,,,V3_094,19,male,2025-01-30_15h38.43.086,jersey_experiment_5_v3,2023.2.2,Win32,84.74576271,,,,,,,,,,,,,,,,660.4034,661.9561,661.9561,662.2855,return,0.2069,,92.578125,,,,,,FBP-OG-81.png,0.43,1.2,39,0.75,,,,,,,,,,,,,,,,,,0,11,11,38,1,,,,,,,,,,,,,,,,,,,,,,,
,,,,,V3_094,19,male,2025-01-30_15h38.43.086,jersey_experiment_5_v3,2023.2.2,Win32,84.74576271,,,,,,,,,,,,,,,,662.2858,663.5797,663.5797,664.3326,return,0.3839,,88.93229167,,,,,,FBP-RB-91.png,0.43,1.2,59,0.5,,,,,,,,,,,,,,,,,,0,12,12,58,1,,,,,,,,,,,,,,,,,,,,,,,
,,,,,V3_094,19,male,2025-01-30_15h38.43.086,jersey_experiment_5_v3,2023.2.2,Win32,84.74576271,,,,,,,,,,,,,,,,664.3329,665.6268,665.6269,666.0034,return,0.0234,,88.93229167,,,,,,FBP-YG-18.png,0.43,1.2,9,0.5,,,,,,,,,,,,,,,,,,0,13,13,8,1,,,,,,,,,,,,,,,,,,,,,,,
,,,,,V3_094,19,male,2025-01-30_15h38.43.086,jersey_experiment_5_v3,2023.2.2,Win32,84.74576271,,,,,,,,,,,,,,,,666.0037,667.2974,667.2974,668.2623,return,0.1195,,67.05729167,,,,,,FBP-RB-71.png,0.35,1.2,46,0.5,,,,,,,,,,,,,,,,,,0,14,14,45,1,,,,,,,,,,,,,,,,,,,,,,,
,,,,,V3_094,19,male,2025-01-30_15h38.43.086,jersey_experiment_5_v3,2023.2.2,Win32,84.74576271,,,,,,,,,,,,,,,,668.2625,669.5564,669.5565,670.2624,return,0.0703,,70.18229167,,,,,,FBP-PT-81.png,0.35,1.2,21,0.5,,,,,,,,,,,,,,,,,,0,15,15,20,1,,,,,,,,,,,,,,,,,,,,,,,
,,,,,V3_094,19,male,2025-01-30_15h38.43.086,jersey_experiment_5_v3,2023.2.2,Win32,84.74576271,,,,,,,,,,,,,,,,670.2627,671.5564,671.5565,672.4861,return,0.0709,,11.06770833,,,,,,FBP-RB-81.png,0.35,1.2,51,0.5,,,,,,,,,,,,,,,,,,0,16,16,50,1,,,,,,,,,,,,,,,,,,,,,,,
,,,,,V3_094,19,male,2025-01-30_15h38.43.086,jersey_experiment_5_v3,2023.2.2,Win32,84.74576271,,,,,,,,,,,,,,,,672.4863,673.7801,673.7802,674.9096,return,0.3464,,18.09895833,,,,,,FBP-YG-17.png,0.35,1.2,1,0.5,,,,,,,,,,,,,,,,,,0,17,17,0,1,,,,,,,,,,,,,,,,,,,,,,,
,,,,,V3_094,19,male,2025-01-30_15h38.43.086,jersey_experiment_5_v3,2023.2.2,Win32,84.74576271,,,,,,,,,,,,,,,,674.9098,676.2037,676.2038,677.5802,return,0.773,,32.8125,,,,,,FBP-RB-71.png,0.37,1.2,47,0.5,,,,,,,,,,,,,,,,,,0,18,18,46,1,,,,,,,,,,,,,,,,,,,,,,,
,,,,,V3_094,19,male,2025-01-30_15h38.43.086,jersey_experiment_5_v3,2023.2.2,Win32,84.74576271,,,,,,,,,,,,,,,,677.5804,678.8743,678.8744,679.6156,return,0.0989,,82.16145833,,,,,,FBP-RB-81.png,0.45,1.2,55,0.5,,,,,,,,,,,,,,,,,,0,19,19,54,1,,,,,,,,,,,,,,,,,,,,,,,
,,,,,V3_094,19,male,2025-01-30_15h38.43.086,jersey_experiment_5_v3,2023.2.2,Win32,84.74576271,,,,,,,,,,,,,,,,679.6157,680.9097,680.9097,681.4627,return,0.0934,,94.79166667,,,,,,FBP-PT-71.png,0.45,1.2,20,0.5,,,,,,,,,,,,,,,,,,0,20,20,19,1,,,,,,,,,,,,,,,,,,,,,,,
,,,,,V3_094,19,male,2025-01-30_15h38.43.086,jersey_experiment_5_v3,2023.2.2,Win32,84.74576271,,,,,,,,,,,,,,,,681.4629,682.7569,682.7569,683.2981,return,0.1173,,91.66666667,,,,,,FBP-PT-91.png,0.45,1.2,30,0.5,,,,,,,,,,,,,,,,,,0,21,21,29,1,,,,,,,,,,,,,,,,,,,,,,,
,,,,,V3_094,19,male,2025-01-30_15h38.43.086,jersey_experiment_5_v3,2023.2.2,Win32,84.74576271,,,,,,,,,,,,,,,,683.2983,684.5923,684.5923,685.1217,return,0.0969,,94.66145833,,,,,,FBP-PT-81.png,0.43,1.2,24,0.5,,,,,,,,,,,,,,,,,,0,22,22,23,1,,,,,,,,,,,,,,,,,,,,,,,
,,,,,V3_094,19,male,2025-01-30_15h38.43.086,jersey_experiment_5_v3,2023.2.2,Win32,84.74576271,,,,,,,,,,,,,,,,685.122,686.6747,686.6748,687.0392,return,0.1213,,92.1875,,,,,,FBP-OG-71.png,0.45,1.2,35,0.75,,,,,,,,,,,,,,,,,,0,23,23,34,1,,,,,,,,,,,,,,,,,,,,,,,
,,,,,V3_094,19,male,2025-01-30_15h38.43.086,jersey_experiment_5_v3,2023.2.2,Win32,84.74576271,,,,,,,,,,,,,,,,687.0395,688.3335,688.3336,689.1806,return,0.1371,,57.421875,,,,,,FBP-RB-91.png,0.4,1.2,58,0.5,,,,,,,,,,,,,,,,,,0,24,24,57,1,,,,,,,,,,,,,,,,,,,,,,,
,,,,,V3_094,19,male,2025-01-30_15h38.43.086,jersey_experiment_5_v3,2023.2.2,Win32,84.74576271,,,,,,,,,,,,,,,,689.1809,690.7338,690.7339,691.6277,return,0.5851,,87.63020833,,,,,,FBP-OG-71.png,0.4,1.2,33,0.75,,,,,,,,,,,,,,,,,,0,25,25,32,1,,,,,,,,,,,,,,,,,,,,,,,
,,,,,V3_094,19,male,2025-01-30_15h38.43.086,jersey_experiment_5_v3,2023.2.2,Win32,84.74576271,,,,,,,,,,,,,,,,691.628,692.9222,692.9222,693.7928,return,0.1098,,18.75,,,,,,FBP-RB-81.png,0.37,1.2,52,0.5,,,,,,,,,,,,,,,,,,0,26,26,51,1,,,,,,,,,,,,,,,,,,,,,,,
,,,,,V3_094,19,male,2025-01-30_15h38.43.086,jersey_experiment_5_v3,2023.2.2,Win32,84.74576271,,,,,,,,,,,,,,,,693.793,695.0866,695.0867,695.7573,return,0.1012,,44.921875,,,,,,FBP-YG-19.png,0.4,1.2,13,0.5,,,,,,,,,,,,,,,,,,0,27,27,12,1,,,,,,,,,,,,,,,,,,,,,,,
,,,,,V3_094,19,male,2025-01-30_15h38.43.086,jersey_experiment_5_v3,2023.2.2,Win32,84.74576271,,,,,,,,,,,,,,,,695.7576,697.2988,697.2989,698.0986,return,0.2125,,76.30208333,,,,,,FBP-OG-71.png,0.43,1.2,34,0.75,,,,,,,,,,,,,,,,,,0,28,28,33,1,,,,,,,,,,,,,,,,,,,,,,,
,,,,,V3_094,19,male,2025-01-30_15h38.43.086,jersey_experiment_5_v3,2023.2.2,Win32,84.74576271,,,,,,,,,,,,,,,,698.099,699.3927,699.3928,700.0517,return,0.0861,,63.28125,,,,,,FBP-RB-71.png,0.4,1.2,48,0.5,,,,,,,,,,,,,,,,,,0,29,29,47,1,,,,,,,,,,,,,,,,,,,,,,,
,,,,,V3_094,19,male,2025-01-30_15h38.43.086,jersey_experiment_5_v3,2023.2.2,Win32,84.74576271,,,,,,,,,,,,,,,,700.0519,701.6049,701.6049,702.5342,return,0.0707,,13.02083333,,,,,,FBP-OG-91.png,0.35,1.2,41,0.75,,,,,,,,,,,,,,,,,,0,30,30,40,1,,,,,,,,,,,,,,,,,,,,,,,
,,,,,V3_094,19,male,2025-01-30_15h38.43.086,jersey_experiment_5_v3,2023.2.2,Win32,84.74576271,,,,,,,,,,,,,,,,702.5344,703.8285,703.8285,704.6753,return,0.0716,,31.90104167,,,,,,FBP-YG-18.png,0.37,1.2,7,0.5,,,,,,,,,,,,,,,,,,0,31,31,6,1,,,,,,,,,,,,,,,,,,,,,,,
,,,,,V3_094,19,male,2025-01-30_15h38.43.086,jersey_experiment_5_v3,2023.2.2,Win32,84.74576271,,,,,,,,,,,,,,,,704.6756,705.9695,705.9695,707.2049,return,0.0695,,57.94270833,,,,,,FBP-RB-81.png,0.4,1.2,53,0.5,,,,,,,,,,,,,,,,,,0,32,32,52,1,,,,,,,,,,,,,,,,,,,,,,,
,,,,,V3_094,19,male,2025-01-30_15h38.43.086,jersey_experiment_5_v3,2023.2.2,Win32,84.74576271,,,,,,,,,,,,,,,,707.2052,708.4993,708.4993,709.3815,return,0.0574,,1.041666667,,,,,,FBP-YG-18.png,0.35,1.2,6,0.5,,,,,,,,,,,,,,,,,,0,33,33,5,1,,,,,,,,,,,,,,,,,,,,,,,
,,,,,V3_094,19,male,2025-01-30_15h38.43.086,jersey_experiment_5_v3,2023.2.2,Win32,84.74576271,,,,,,,,,,,,,,,,709.3817,710.9345,710.9345,711.5814,return,0.0997,,27.86458333,,,,,,FBP-OG-91.png,0.37,1.2,42,0.75,,,,,,,,,,,,,,,,,,0,34,34,41,1,,,,,,,,,,,,,,,,,,,,,,,
,,,,,V3_094,19,male,2025-01-30_15h38.43.086,jersey_experiment_5_v3,2023.2.2,Win32,84.74576271,,,,,,,,,,,,,,,,711.5817,713.1228,713.1229,713.711,return,0.0632,,86.06770833,,,,,,FBP-OG-81.png,0.45,1.2,40,0.75,,,,,,,,,,,,,,,,,,0,35,35,39,1,,,,,,,,,,,,,,,,,,,,,,,
,,,,,V3_094,19,male,2025-01-30_15h38.43.086,jersey_experiment_5_v3,2023.2.2,Win32,84.74576271,,,,,,,,,,,,,,,,713.7112,715.2642,715.2642,715.8286,return,0.0351,,36.328125,,,,,,FBP-OG-81.png,0.35,1.2,36,0.75,,,,,,,,,,,,,,,,,,0,36,36,35,1,,,,,,,,,,,,,,,,,,,,,,,
,,,,,V3_094,19,male,2025-01-30_15h38.43.086,jersey_experiment_5_v3,2023.2.2,Win32,84.74576271,,,,,,,,,,,,,,,,715.8288,717.1229,717.1229,717.9702,return,0.1306,,89.32291667,,,,,,FBP-PT-71.png,0.43,1.2,19,0.5,,,,,,,,,,,,,,,,,,0,37,37,18,1,,,,,,,,,,,,,,,,,,,,,,,
,,,,,V3_094,19,male,2025-01-30_15h38.43.086,jersey_experiment_5_v3,2023.2.2,Win32,84.74576271,,,,,,,,,,,,,,,,717.9703,719.5228,719.5229,720.3583,return,0.1893,,41.796875,,,,,,FBP-OG-81.png,0.37,1.2,37,0.75,,,,,,,,,,,,,,,,,,0,38,38,36,1,,,,,,,,,,,,,,,,,,,,,,,
,,,,,V3_094,19,male,2025-01-30_15h38.43.086,jersey_experiment_5_v3,2023.2.2,Win32,84.74576271,,,,,,,,,,,,,,,,720.3586,721.6525,721.6526,722.3822,return,0.0996,,18.22916667,,,,,,FBP-YG-19.png,0.37,1.2,12,0.5,,,,,,,,,,,,,,,,,,0,39,39,11,1,,,,,,,,,,,,,,,,,,,,,,,
,,,,,V3_094,19,male,2025-01-30_15h38.43.086,jersey_experiment_5_v3,2023.2.2,Win32,84.74576271,,,,,,,,,,,,,,,,722.3824,723.6761,723.6762,724.476,return,0.1142,,72.78645833,,,,,,FBP-RB-71.png,0.43,1.2,49,0.5,,,,,,,,,,,,,,,,,,0,40,40,48,1,,,,,,,,,,,,,,,,,,,,,,,
,,,,,V3_094,19,male,2025-01-30_15h38.43.086,jersey_experiment_5_v3,2023.2.2,Win32,84.74576271,,,,,,,,,,,,,,,,724.4762,725.7701,725.7702,726.535,return,0.0791,,94.40104167,,,,,,FBP-YG-19.png,0.45,1.2,15,0.5,,,,,,,,,,,,,,,,,,0,41,41,14,1,,,,,,,,,,,,,,,,,,,,,,,
,,,,,V3_094,19,male,2025-01-30_15h38.43.086,jersey_experiment_5_v3,2023.2.2,Win32,84.74576271,,,,,,,,,,,,,,,,726.5351,727.8293,727.8293,728.7822,return,0.4987,,76.953125,,,,,,FBP-YG-18.png,0.4,1.2,8,0.5,,,,,,,,,,,,,,,,,,0,42,42,7,1,,,,,,,,,,,,,,,,,,,,,,,
,,,,,V3_094,19,male,2025-01-30_15h38.43.086,jersey_experiment_5_v3,2023.2.2,Win32,84.74576271,,,,,,,,,,,,,,,,728.7825,730.0764,730.0764,731.8998,return,0.2675,,20.3125,,,,,,FBP-YG-19.png,0.35,1.2,11,0.5,,,,,,,,,,,,,,,,,,0,43,43,10,1,,,,,,,,,,,,,,,,,,,,,,,
,,,,,V3_094,19,male,2025-01-30_15h38.43.086,jersey_experiment_5_v3,2023.2.2,Win32,84.74576271,,,,,,,,,,,,,,,,731.9001,733.1941,733.1941,733.9,return,0.0898,,13.02083333,,,,,,FBP-YG-17.png,0.37,1.2,2,0.5,,,,,,,,,,,,,,,,,,0,44,44,1,1,,,,,,,,,,,,,,,,,,,,,,,
,,,,,V3_094,19,male,2025-01-30_15h38.43.086,jersey_experiment_5_v3,2023.2.2,Win32,84.74576271,,,,,,,,,,,,,,,,733.9004,735.1942,735.1942,735.8767,return,0.0472,,92.70833333,,,,,,FBP-YG-17.png,0.43,1.2,4,0.5,,,,,,,,,,,,,,,,,,0,45,45,3,1,,,,,,,,,,,,,,,,,,,,,,,
,,,,,V3_094,19,male,2025-01-30_15h38.43.086,jersey_experiment_5_v3,2023.2.2,Win32,84.74576271,,,,,,,,,,,,,,,,735.8769,737.1707,737.1707,737.6531,return,0.0619,,86.97916667,,,,,,FBP-YG-17.png,0.4,1.2,3,0.5,,,,,,,,,,,,,,,,,,0,46,46,2,1,,,,,,,,,,,,,,,,,,,,,,,
,,,,,V3_094,19,male,2025-01-30_15h38.43.086,jersey_experiment_5_v3,2023.2.2,Win32,84.74576271,,,,,,,,,,,,,,,,737.6533,738.9471,738.9472,739.5236,return,0.0328,,69.921875,,,,,,FBP-RB-91.png,0.37,1.2,57,0.5,,,,,,,,,,,,,,,,,,0,47,47,56,1,,,,,,,,,,,,,,,,,,,,,,,
,,,,,V3_094,19,male,2025-01-30_15h38.43.086,jersey_experiment_5_v3,2023.2.2,Win32,84.74576271,,,,,,,,,,,,,,,,739.5239,740.8182,740.8183,741.3002,return,0.0369,,95.57291667,,,,,,FBP-YG-18.png,0.45,1.2,10,0.5,,,,,,,,,,,,,,,,,,0,48,48,9,1,,,,,,,,,,,,,,,,,,,,,,,
,,,,,V3_094,19,male,2025-01-30_15h38.43.086,jersey_experiment_5_v3,2023.2.2,Win32,84.74576271,,,,,,,,,,,,,,,,741.3005,742.5944,742.5945,743.9005,return,0.8658,,97.65625,,,,,,FBP-RB-91.png,0.45,1.2,60,0.5,,,,,,,,,,,,,,,,,,0,49,49,59,1,,,,,,,,,,,,,,,,,,,,,,,
,,,,,V3_094,19,male,2025-01-30_15h38.43.086,jersey_experiment_5_v3,2023.2.2,Win32,84.74576271,,,,,,,,,,,,,,,,743.9007,745.1946,745.1946,745.7946,return,0.0485,,78.77604167,,,,,,FBP-PT-81.png,0.4,1.2,23,0.5,,,,,,,,,,,,,,,,,,0,50,50,22,1,,,,,,,,,,,,,,,,,,,,,,,
,,,,,V3_094,19,male,2025-01-30_15h38.43.086,jersey_experiment_5_v3,2023.2.2,Win32,84.74576271,,,,,,,,,,,,,,,,745.7948,747.0887,747.0887,747.8299,return,0.0473,,65.75520833,,,,,,FBP-PT-81.png,0.37,1.2,22,0.5,,,,,,,,,,,,,,,,,,0,51,51,21,1,,,,,,,,,,,,,,,,,,,,,,,
,,,,,V3_094,19,male,2025-01-30_15h38.43.086,jersey_experiment_5_v3,2023.2.2,Win32,84.74576271,,,,,,,,,,,,,,,,747.8301,749.124,749.124,750.3241,return,0.4322,,94.140625,,,,,,FBP-PT-91.png,0.43,1.2,29,0.5,,,,,,,,,,,,,,,,,,0,52,52,28,1,,,,,,,,,,,,,,,,,,,,,,,
,,,,,V3_094,19,male,2025-01-30_15h38.43.086,jersey_experiment_5_v3,2023.2.2,Win32,84.74576271,,,,,,,,,,,,,,,,750.3244,751.6184,751.6184,753.8301,return,1.2946,,19.921875,,,,,,FBP-PT-71.png,0.35,1.2,16,0.5,,,,,,,,,,,,,,,,,,0,53,53,15,1,,,,,,,,,,,,,,,,,,,,,,,
,,,,,V3_094,19,male,2025-01-30_15h38.43.086,jersey_experiment_5_v3,2023.2.2,Win32,84.74576271,,,,,,,,,,,,,,,,753.8303,755.1243,755.1244,755.9246,return,0.0814,,95.703125,,,,,,FBP-PT-81.png,0.45,1.2,25,0.5,,,,,,,,,,,,,,,,,,0,54,54,24,1,,,,,,,,,,,,,,,,,,,,,,,
,,,,,V3_094,19,male,2025-01-30_15h38.43.086,jersey_experiment_5_v3,2023.2.2,Win32,84.74576271,,,,,,,,,,,,,,,,755.9247,757.4774,757.4775,758.301,return,0.0781,,56.38020833,,,,,,FBP-OG-71.png,0.35,1.2,31,0.75,,,,,,,,,,,,,,,,,,0,55,55,30,1,,,,,,,,,,,,,,,,,,,,,,,
,,,,,V3_094,19,male,2025-01-30_15h38.43.086,jersey_experiment_5_v3,2023.2.2,Win32,84.74576271,,,,,,,,,,,,,,,,758.3012,759.595,759.595,761.207,return,1.2367,,71.484375,,,,,,FBP-PT-71.png,0.4,1.2,18,0.5,,,,,,,,,,,,,,,,,,0,56,56,17,1,,,,,,,,,,,,,,,,,,,,,,,
,,,,,V3_094,19,male,2025-01-30_15h38.43.086,jersey_experiment_5_v3,2023.2.2,Win32,84.74576271,,,,,,,,,,,,,,,,761.2072,762.5011,762.5012,763.2775,return,0.0521,,75.78125,,,,,,FBP-YG-19.png,0.43,1.2,14,0.5,,,,,,,,,,,,,,,,,,0,57,57,13,1,,,,,,,,,,,,,,,,,,,,,,,
,,,,,V3_094,19,male,2025-01-30_15h38.43.086,jersey_experiment_5_v3,2023.2.2,Win32,84.74576271,,,,,,,,,,,,,,,,763.2778,764.8305,764.8305,765.6542,return,0.5886,,87.23958333,,,,,,FBP-OG-91.png,0.45,1.2,45,0.75,,,,,,,,,,,,,,,,,,0,58,58,44,1,,,,,,,,,,,,,,,,,,,,,,,
,,,,,V3_094,19,male,2025-01-30_15h38.43.086,jersey_experiment_5_v3,2023.2.2,Win32,84.74576271,,,,,,,,,,,,,,,,765.6545,766.9482,766.9483,767.4777,return,0.0095,,94.53125,,,,,,FBP-YG-17.png,0.45,1.2,5,0.5,,,,,,,,,,,,,,,,,,0,59,59,4,1,,,,,,,,,,,,,,,,,,,,,,,
,,,,,V3_094,19,male,2025-01-30_15h38.43.086,jersey_experiment_5_v3,2023.2.2,Win32,84.74576271,,,,,,,,,,,,,,,,,,,,,,,,,,,,,,,,,,,,,,,,,,,,,,,,,,,,,,,,767.4778,774.9603,return,7.4736,,,,,,,,,,,,,,,,,,,
,,,,,V3_094,19,male,2025-01-30_15h38.43.086,jersey_experiment_5_v3,2023.2.2,Win32,84.74576271,,,,,,,,,,,,,,,,,,,,,,,,,,,,,,,,,,,,,,,,,,,,,,,,,,,,,,,,,,,,,774.9604,780.3844,1,4.2988,return,1.1088,,,,,,,,,,,,
,,,,,V3_094,19,male,2025-01-30_15h38.43.086,jersey_experiment_5_v3,2023.2.2,Win32,84.74576271,,,,,,,,,,,,,,,,,,,,,,,,,,,,,,,,,,,,,,,,,,,,,,,,,,,,,,,,,,,,,,,,,,,,780.3844,872.9766,"Maybe contrasting sizes back to back can make a moderate size seem much more extreme.And, I noticed different numbers changing too, so maybe that has something to do with the experiment.",right,83.1473,,,,,,
,,,,,V3_094,19,male,2025-01-30_15h38.43.086,jersey_experiment_5_v3,2023.2.2,Win32,84.74576271,,,,,,,,,,,,,,,,,,,,,,,,,,,,,,,,,,,,,,,,,,,,,,,,,,,,,,,,,,,,,,,,,,,,,,,,,,872.9768,890.4354,return,17.4453,