requirements.started,requirements.stopped,key_resp_3.keys,key_resp_3.rt,key_resp_3.duration,Subject ID,Age,Gender,date,expName,psychopyVersion,OS,frameRate,instructions1.started,instructions1.stopped,key_resp.keys,key_resp.rt,key_resp.duration,example.started,example.stopped,enter_2.keys,enter_2.rt,enter_2.duration,instructions2.started,instructions2.stopped,enter_3.keys,enter_3.rt,enter_3.duration,image.started,image.stopped,slider_2.started,slider_2.stopped,next.keys,next.rt,next.duration,slider.response,trial_block_1.thisRepN,trial_block_1.thisTrialN,trial_block_1.thisN,trial_block_1.thisIndex,trial_block_1.ran,Path,Width,Height,Index,Duration,trial_block_2.thisRepN,trial_block_2.thisTrialN,trial_block_2.thisN,trial_block_2.thisIndex,trial_block_2.ran,rest_break.started,rest_break.stopped,end_break.started,end_break.stopped,key_resp_5.keys,key_resp_5.rt,key_resp_5.duration,trial_block_3.thisRepN,trial_block_3.thisTrialN,trial_block_3.thisN,trial_block_3.thisIndex,trial_block_3.ran,trial_block_4.thisRepN,trial_block_4.thisTrialN,trial_block_4.thisN,trial_block_4.thisIndex,trial_block_4.ran,questions_intro.started,questions_intro.stopped,enter_12.keys,enter_12.rt,enter_12.duration,question2.started,question2.stopped,question_doingbest.response,question_doingbest.rt,enter_15.keys,enter_15.rt,enter_15.duration,pattern.started,pattern.stopped,pattern_2.text,enter_17.keys,enter_17.rt,enter_17.duration,thankyou.started,thankyou.stopped,enter_14.keys,enter_14.rt,enter_14.duration
1E-04,13.3799,return,13.3738,,V3_027,18,Male,2024-10-20_16h01.35.837,jersey_experiment_5_v3,2023.2.2,Win32,84.03361345,,,,,,,,,,,,,,,,,,,,,,,,,,,,,,,,,,,,,,,,,,,,,,,,,,,,,,,,,,,,,,,,,,,,,,,,,,,,,,
,,,,,V3_027,18,Male,2024-10-20_16h01.35.837,jersey_experiment_5_v3,2023.2.2,Win32,84.03361345,13.3801,20.8858,return,7.4846,,,,,,,,,,,,,,,,,,,,,,,,,,,,,,,,,,,,,,,,,,,,,,,,,,,,,,,,,,,,,,,,,,,,,,,,,,
,,,,,V3_027,18,Male,2024-10-20_16h01.35.837,jersey_experiment_5_v3,2023.2.2,Win32,84.03361345,,,,,,20.8859,26.4744,return,5.5388,,,,,,,,,,,,,,,,,,,,,,,,,,,,,,,,,,,,,,,,,,,,,,,,,,,,,,,,,,,,,,,,,,,,,
,,,,,V3_027,18,Male,2024-10-20_16h01.35.837,jersey_experiment_5_v3,2023.2.2,Win32,84.03361345,,,,,,,,,,,26.4745,50.4046,return,23.9214,,,,,,,,,,,,,,,,,,,,,,,,,,,,,,,,,,,,,,,,,,,,,,,,,,,,,,,,,,,,,,,,
,,,,,V3_027,18,Male,2024-10-20_16h01.35.837,jersey_experiment_5_v3,2023.2.2,Win32,84.03361345,,,,,,,,,,,,,,,,50.4077,51.7105,51.7107,64.8993,return,2.1267,,75.26041667,0,0,0,31,1,FBP-OG-17.png,0.37,1.2,32,0.5,,,,,,,,,,,,,,,,,,,,,,,,,,,,,,,,,,,,,,,,,,,,,
,,,,,V3_027,18,Male,2024-10-20_16h01.35.837,jersey_experiment_5_v3,2023.2.2,Win32,84.03361345,,,,,,,,,,,,,,,,64.9,66.4521,66.4521,69.6875,return,0.581,,49.73958333,0,1,1,45,1,FBP-RB-17.png,0.35,1.2,46,0.75,,,,,,,,,,,,,,,,,,,,,,,,,,,,,,,,,,,,,,,,,,,,,
,,,,,V3_027,18,Male,2024-10-20_16h01.35.837,jersey_experiment_5_v3,2023.2.2,Win32,84.03361345,,,,,,,,,,,,,,,,69.6877,70.9817,70.9817,74.217,return,1.3992,,84.24479167,0,2,2,43,1,FBP-OG-19.png,0.43,1.2,44,0.5,,,,,,,,,,,,,,,,,,,,,,,,,,,,,,,,,,,,,,,,,,,,,
,,,,,V3_027,18,Male,2024-10-20_16h01.35.837,jersey_experiment_5_v3,2023.2.2,Win32,84.03361345,,,,,,,,,,,,,,,,74.2173,75.5113,75.5114,77.5584,return,0.6487,,82.03125,0,3,3,37,1,FBP-OG-18.png,0.4,1.2,38,0.5,,,,,,,,,,,,,,,,,,,,,,,,,,,,,,,,,,,,,,,,,,,,,
,,,,,V3_027,18,Male,2024-10-20_16h01.35.837,jersey_experiment_5_v3,2023.2.2,Win32,84.03361345,,,,,,,,,,,,,,,,77.5586,78.8525,78.8526,80.5586,return,0.4629,,83.33333333,0,4,4,32,1,FBP-OG-17.png,0.4,1.2,33,0.5,,,,,,,,,,,,,,,,,,,,,,,,,,,,,,,,,,,,,,,,,,,,,
,,,,,V3_027,18,Male,2024-10-20_16h01.35.837,jersey_experiment_5_v3,2023.2.2,Win32,84.03361345,,,,,,,,,,,,,,,,80.5588,82.1115,82.1116,83.9821,return,0.5724,,83.46354167,0,5,5,59,1,FBP-RB-19.png,0.45,1.2,60,0.75,,,,,,,,,,,,,,,,,,,,,,,,,,,,,,,,,,,,,,,,,,,,,
,,,,,V3_027,18,Male,2024-10-20_16h01.35.837,jersey_experiment_5_v3,2023.2.2,Win32,84.03361345,,,,,,,,,,,,,,,,83.9825,85.5352,85.5352,88.0411,return,0.2276,,86.45833333,0,6,6,4,1,FBP-YG-71.png,0.45,1.2,5,0.75,,,,,,,,,,,,,,,,,,,,,,,,,,,,,,,,,,,,,,,,,,,,,
,,,,,V3_027,18,Male,2024-10-20_16h01.35.837,jersey_experiment_5_v3,2023.2.2,Win32,84.03361345,,,,,,,,,,,,,,,,88.0414,89.5941,89.5942,91.5588,return,0.4041,,85.67708333,0,7,7,54,1,FBP-RB-18.png,0.45,1.2,55,0.75,,,,,,,,,,,,,,,,,,,,,,,,,,,,,,,,,,,,,,,,,,,,,
,,,,,V3_027,18,Male,2024-10-20_16h01.35.837,jersey_experiment_5_v3,2023.2.2,Win32,84.03361345,,,,,,,,,,,,,,,,91.5592,93.1118,93.1119,96.2649,return,1.6133,,85.15625,0,8,8,28,1,FBP-PT-19.png,0.43,1.2,29,0.75,,,,,,,,,,,,,,,,,,,,,,,,,,,,,,,,,,,,,,,,,,,,,
,,,,,V3_027,18,Male,2024-10-20_16h01.35.837,jersey_experiment_5_v3,2023.2.2,Win32,84.03361345,,,,,,,,,,,,,,,,96.2652,97.8178,97.8178,99.7827,return,0.2526,,84.50520833,0,9,9,53,1,FBP-RB-18.png,0.43,1.2,54,0.75,,,,,,,,,,,,,,,,,,,,,,,,,,,,,,,,,,,,,,,,,,,,,
,,,,,V3_027,18,Male,2024-10-20_16h01.35.837,jersey_experiment_5_v3,2023.2.2,Win32,84.03361345,,,,,,,,,,,,,,,,99.7829,101.3356,101.3357,102.7593,return,0.3341,,84.24479167,0,10,10,52,1,FBP-RB-18.png,0.4,1.2,53,0.75,,,,,,,,,,,,,,,,,,,,,,,,,,,,,,,,,,,,,,,,,,,,,
,,,,,V3_027,18,Male,2024-10-20_16h01.35.837,jersey_experiment_5_v3,2023.2.2,Win32,84.03361345,,,,,,,,,,,,,,,,102.7595,104.3123,104.3123,105.7713,return,0.409,,82.8125,0,11,11,27,1,FBP-PT-19.png,0.4,1.2,28,0.75,,,,,,,,,,,,,,,,,,,,,,,,,,,,,,,,,,,,,,,,,,,,,
,,,,,V3_027,18,Male,2024-10-20_16h01.35.837,jersey_experiment_5_v3,2023.2.2,Win32,84.03361345,,,,,,,,,,,,,,,,105.7715,107.0653,107.0653,110.0301,return,1.3986,,80.078125,0,12,12,38,1,FBP-OG-18.png,0.43,1.2,39,0.5,,,,,,,,,,,,,,,,,,,,,,,,,,,,,,,,,,,,,,,,,,,,,
,,,,,V3_027,18,Male,2024-10-20_16h01.35.837,jersey_experiment_5_v3,2023.2.2,Win32,84.03361345,,,,,,,,,,,,,,,,110.0304,111.3243,111.3243,113.3244,return,0.2591,,74.86979167,0,13,13,40,1,FBP-OG-19.png,0.35,1.2,41,0.5,,,,,,,,,,,,,,,,,,,,,,,,,,,,,,,,,,,,,,,,,,,,,
,,,,,V3_027,18,Male,2024-10-20_16h01.35.837,jersey_experiment_5_v3,2023.2.2,Win32,84.03361345,,,,,,,,,,,,,,,,113.3246,114.8774,114.8774,115.948,return,0.2355,,80.859375,0,14,14,23,1,FBP-PT-18.png,0.43,1.2,24,0.75,,,,,,,,,,,,,,,,,,,,,,,,,,,,,,,,,,,,,,,,,,,,,
,,,,,V3_027,18,Male,2024-10-20_16h01.35.837,jersey_experiment_5_v3,2023.2.2,Win32,84.03361345,,,,,,,,,,,,,,,,115.9481,117.2421,117.2421,119.1599,return,1.0263,,82.29166667,0,15,15,33,1,FBP-OG-17.png,0.43,1.2,34,0.5,,,,,,,,,,,,,,,,,,,,,,,,,,,,,,,,,,,,,,,,,,,,,
,,,,,V3_027,18,Male,2024-10-20_16h01.35.837,jersey_experiment_5_v3,2023.2.2,Win32,84.03361345,,,,,,,,,,,,,,,,119.1602,120.4541,120.4543,122.3718,return,0.7722,,82.68229167,0,16,16,39,1,FBP-OG-18.png,0.45,1.2,40,0.5,,,,,,,,,,,,,,,,,,,,,,,,,,,,,,,,,,,,,,,,,,,,,
,,,,,V3_027,18,Male,2024-10-20_16h01.35.837,jersey_experiment_5_v3,2023.2.2,Win32,84.03361345,,,,,,,,,,,,,,,,122.3721,123.9248,123.9249,125.3718,return,0.7614,,83.33333333,0,17,17,9,1,FBP-YG-81.png,0.45,1.2,10,0.75,,,,,,,,,,,,,,,,,,,,,,,,,,,,,,,,,,,,,,,,,,,,,
,,,,,V3_027,18,Male,2024-10-20_16h01.35.837,jersey_experiment_5_v3,2023.2.2,Win32,84.03361345,,,,,,,,,,,,,,,,125.3721,126.9251,126.9251,128.6189,return,0.3853,,77.34375,0,18,18,6,1,FBP-YG-81.png,0.37,1.2,7,0.75,,,,,,,,,,,,,,,,,,,,,,,,,,,,,,,,,,,,,,,,,,,,,
,,,,,V3_027,18,Male,2024-10-20_16h01.35.837,jersey_experiment_5_v3,2023.2.2,Win32,84.03361345,,,,,,,,,,,,,,,,128.6192,130.1719,130.172,133.5489,return,1.7417,,50.13020833,0,19,19,50,1,FBP-RB-18.png,0.35,1.2,51,0.75,,,,,,,,,,,,,,,,,,,,,,,,,,,,,,,,,,,,,,,,,,,,,
,,,,,V3_027,18,Male,2024-10-20_16h01.35.837,jersey_experiment_5_v3,2023.2.2,Win32,84.03361345,,,,,,,,,,,,,,,,133.5491,135.1016,135.1016,136.4429,return,0.3227,,80.72916667,0,20,20,13,1,FBP-YG-91.png,0.43,1.2,14,0.75,,,,,,,,,,,,,,,,,,,,,,,,,,,,,,,,,,,,,,,,,,,,,
,,,,,V3_027,18,Male,2024-10-20_16h01.35.837,jersey_experiment_5_v3,2023.2.2,Win32,84.03361345,,,,,,,,,,,,,,,,136.443,137.9958,137.9958,139.1019,return,0.2964,,74.73958333,0,21,21,21,1,FBP-PT-18.png,0.37,1.2,22,0.75,,,,,,,,,,,,,,,,,,,,,,,,,,,,,,,,,,,,,,,,,,,,,
,,,,,V3_027,18,Male,2024-10-20_16h01.35.837,jersey_experiment_5_v3,2023.2.2,Win32,84.03361345,,,,,,,,,,,,,,,,139.1022,140.6547,140.6547,142.5372,return,0.9104,,83.203125,0,22,22,19,1,FBP-PT-17.png,0.45,1.2,20,0.75,,,,,,,,,,,,,,,,,,,,,,,,,,,,,,,,,,,,,,,,,,,,,
,,,,,V3_027,18,Male,2024-10-20_16h01.35.837,jersey_experiment_5_v3,2023.2.2,Win32,84.03361345,,,,,,,,,,,,,,,,142.5375,144.0902,144.0902,145.9609,return,0.9072,,75,0,23,23,11,1,FBP-YG-91.png,0.37,1.2,12,0.75,,,,,,,,,,,,,,,,,,,,,,,,,,,,,,,,,,,,,,,,,,,,,
,,,,,V3_027,18,Male,2024-10-20_16h01.35.837,jersey_experiment_5_v3,2023.2.2,Win32,84.03361345,,,,,,,,,,,,,,,,145.9611,147.5139,147.514,149.2903,return,0.7293,,88.54166667,0,24,24,8,1,FBP-YG-81.png,0.43,1.2,9,0.75,,,,,,,,,,,,,,,,,,,,,,,,,,,,,,,,,,,,,,,,,,,,,
,,,,,V3_027,18,Male,2024-10-20_16h01.35.837,jersey_experiment_5_v3,2023.2.2,Win32,84.03361345,,,,,,,,,,,,,,,,149.2906,150.8433,150.8434,153.067,return,1.2795,,75,0,25,25,15,1,FBP-PT-17.png,0.35,1.2,16,0.75,,,,,,,,,,,,,,,,,,,,,,,,,,,,,,,,,,,,,,,,,,,,,
,,,,,V3_027,18,Male,2024-10-20_16h01.35.837,jersey_experiment_5_v3,2023.2.2,Win32,84.03361345,,,,,,,,,,,,,,,,153.0673,154.6199,154.6199,156.4907,return,1.2712,,80.20833333,0,26,26,16,1,FBP-PT-17.png,0.37,1.2,17,0.75,,,,,,,,,,,,,,,,,,,,,,,,,,,,,,,,,,,,,,,,,,,,,
,,,,,V3_027,18,Male,2024-10-20_16h01.35.837,jersey_experiment_5_v3,2023.2.2,Win32,84.03361345,,,,,,,,,,,,,,,,156.491,157.7848,157.7849,159.9261,return,1.0531,,79.81770833,0,27,27,41,1,FBP-OG-19.png,0.37,1.2,42,0.5,,,,,,,,,,,,,,,,,,,,,,,,,,,,,,,,,,,,,,,,,,,,,
,,,,,V3_027,18,Male,2024-10-20_16h01.35.837,jersey_experiment_5_v3,2023.2.2,Win32,84.03361345,,,,,,,,,,,,,,,,159.9263,161.4792,161.4792,162.0439,return,0.0628,,82.68229167,0,28,28,57,1,FBP-RB-19.png,0.4,1.2,58,0.75,,,,,,,,,,,,,,,,,,,,,,,,,,,,,,,,,,,,,,,,,,,,,
,,,,,V3_027,18,Male,2024-10-20_16h01.35.837,jersey_experiment_5_v3,2023.2.2,Win32,84.03361345,,,,,,,,,,,,,,,,162.044,163.5968,163.5968,164.4439,return,0.1409,,92.05729167,0,29,29,14,1,FBP-YG-91.png,0.45,1.2,15,0.75,,,,,,,,,,,,,,,,,,,,,,,,,,,,,,,,,,,,,,,,,,,,,
,,,,,V3_027,18,Male,2024-10-20_16h01.35.837,jersey_experiment_5_v3,2023.2.2,Win32,84.03361345,,,,,,,,,,,,,,,,164.4442,165.7379,165.7379,169.9735,return,3.7598,,93.61979167,0,30,30,44,1,FBP-OG-19.png,0.45,1.2,45,0.5,,,,,,,,,,,,,,,,,,,,,,,,,,,,,,,,,,,,,,,,,,,,,
,,,,,V3_027,18,Male,2024-10-20_16h01.35.837,jersey_experiment_5_v3,2023.2.2,Win32,84.03361345,,,,,,,,,,,,,,,,169.9738,171.5266,171.5267,173.1148,return,0.8583,,82.68229167,0,31,31,25,1,FBP-PT-19.png,0.35,1.2,26,0.75,,,,,,,,,,,,,,,,,,,,,,,,,,,,,,,,,,,,,,,,,,,,,
,,,,,V3_027,18,Male,2024-10-20_16h01.35.837,jersey_experiment_5_v3,2023.2.2,Win32,84.03361345,,,,,,,,,,,,,,,,173.115,174.6678,174.6678,177.0796,return,0.8744,,95.18229167,0,32,32,17,1,FBP-PT-17.png,0.4,1.2,18,0.75,,,,,,,,,,,,,,,,,,,,,,,,,,,,,,,,,,,,,,,,,,,,,
,,,,,V3_027,18,Male,2024-10-20_16h01.35.837,jersey_experiment_5_v3,2023.2.2,Win32,84.03361345,,,,,,,,,,,,,,,,177.0798,178.6326,178.6327,181.3974,return,0.9245,,81.25,0,33,33,51,1,FBP-RB-18.png,0.37,1.2,52,0.75,,,,,,,,,,,,,,,,,,,,,,,,,,,,,,,,,,,,,,,,,,,,,
,,,,,V3_027,18,Male,2024-10-20_16h01.35.837,jersey_experiment_5_v3,2023.2.2,Win32,84.03361345,,,,,,,,,,,,,,,,181.3977,182.9504,182.9504,184.5503,return,0.884,,81.25,0,34,34,12,1,FBP-YG-91.png,0.4,1.2,13,0.75,,,,,,,,,,,,,,,,,,,,,,,,,,,,,,,,,,,,,,,,,,,,,
,,,,,V3_027,18,Male,2024-10-20_16h01.35.837,jersey_experiment_5_v3,2023.2.2,Win32,84.03361345,,,,,,,,,,,,,,,,184.5506,186.1034,186.1035,187.6211,return,0.7089,,86.19791667,0,35,35,58,1,FBP-RB-19.png,0.43,1.2,59,0.75,,,,,,,,,,,,,,,,,,,,,,,,,,,,,,,,,,,,,,,,,,,,,
,,,,,V3_027,18,Male,2024-10-20_16h01.35.837,jersey_experiment_5_v3,2023.2.2,Win32,84.03361345,,,,,,,,,,,,,,,,187.6214,189.1741,189.1742,191.5979,return,1.345,,80.59895833,0,36,36,26,1,FBP-PT-19.png,0.37,1.2,27,0.75,,,,,,,,,,,,,,,,,,,,,,,,,,,,,,,,,,,,,,,,,,,,,
,,,,,V3_027,18,Male,2024-10-20_16h01.35.837,jersey_experiment_5_v3,2023.2.2,Win32,84.03361345,,,,,,,,,,,,,,,,191.598,193.1508,193.1509,195.6685,return,0.8996,,87.5,0,37,37,49,1,FBP-RB-17.png,0.45,1.2,50,0.75,,,,,,,,,,,,,,,,,,,,,,,,,,,,,,,,,,,,,,,,,,,,,
,,,,,V3_027,18,Male,2024-10-20_16h01.35.837,jersey_experiment_5_v3,2023.2.2,Win32,84.03361345,,,,,,,,,,,,,,,,195.6687,197.2216,197.2217,198.3745,return,0.1679,,76.43229167,0,38,38,55,1,FBP-RB-19.png,0.35,1.2,56,0.75,,,,,,,,,,,,,,,,,,,,,,,,,,,,,,,,,,,,,,,,,,,,,
,,,,,V3_027,18,Male,2024-10-20_16h01.35.837,jersey_experiment_5_v3,2023.2.2,Win32,84.03361345,,,,,,,,,,,,,,,,198.3748,199.9274,199.9274,201.6216,return,0.1444,,88.41145833,0,39,39,3,1,FBP-YG-71.png,0.43,1.2,4,0.75,,,,,,,,,,,,,,,,,,,,,,,,,,,,,,,,,,,,,,,,,,,,,
,,,,,V3_027,18,Male,2024-10-20_16h01.35.837,jersey_experiment_5_v3,2023.2.2,Win32,84.03361345,,,,,,,,,,,,,,,,201.6219,203.1746,203.1746,204.1982,return,0.0171,,80.46875,0,40,40,56,1,FBP-RB-19.png,0.37,1.2,57,0.75,,,,,,,,,,,,,,,,,,,,,,,,,,,,,,,,,,,,,,,,,,,,,
,,,,,V3_027,18,Male,2024-10-20_16h01.35.837,jersey_experiment_5_v3,2023.2.2,Win32,84.03361345,,,,,,,,,,,,,,,,204.1985,205.7514,205.7514,207.2101,return,1.0375,,92.05729167,0,41,41,18,1,FBP-PT-17.png,0.43,1.2,19,0.75,,,,,,,,,,,,,,,,,,,,,,,,,,,,,,,,,,,,,,,,,,,,,
,,,,,V3_027,18,Male,2024-10-20_16h01.35.837,jersey_experiment_5_v3,2023.2.2,Win32,84.03361345,,,,,,,,,,,,,,,,207.2104,208.5044,208.5045,210.7985,return,1.1051,,78.515625,0,42,42,36,1,FBP-OG-18.png,0.37,1.2,37,0.5,,,,,,,,,,,,,,,,,,,,,,,,,,,,,,,,,,,,,,,,,,,,,
,,,,,V3_027,18,Male,2024-10-20_16h01.35.837,jersey_experiment_5_v3,2023.2.2,Win32,84.03361345,,,,,,,,,,,,,,,,210.7988,212.3515,212.3515,213.7515,return,1.0482,,78.64583333,0,43,43,1,1,FBP-YG-71.png,0.37,1.2,2,0.75,,,,,,,,,,,,,,,,,,,,,,,,,,,,,,,,,,,,,,,,,,,,,
,,,,,V3_027,18,Male,2024-10-20_16h01.35.837,jersey_experiment_5_v3,2023.2.2,Win32,84.03361345,,,,,,,,,,,,,,,,213.7518,215.3045,215.3045,216.5869,return,0.7084,,81.51041667,0,44,44,7,1,FBP-YG-81.png,0.4,1.2,8,0.75,,,,,,,,,,,,,,,,,,,,,,,,,,,,,,,,,,,,,,,,,,,,,
,,,,,V3_027,18,Male,2024-10-20_16h01.35.837,jersey_experiment_5_v3,2023.2.2,Win32,84.03361345,,,,,,,,,,,,,,,,216.5872,217.8811,217.8811,219.7164,return,0.8428,,75.65104167,0,45,45,30,1,FBP-OG-17.png,0.35,1.2,31,0.5,,,,,,,,,,,,,,,,,,,,,,,,,,,,,,,,,,,,,,,,,,,,,
,,,,,V3_027,18,Male,2024-10-20_16h01.35.837,jersey_experiment_5_v3,2023.2.2,Win32,84.03361345,,,,,,,,,,,,,,,,219.7167,221.2693,221.2694,223.5636,return,0.5887,,93.22916667,0,46,46,29,1,FBP-PT-19.png,0.45,1.2,30,0.75,,,,,,,,,,,,,,,,,,,,,,,,,,,,,,,,,,,,,,,,,,,,,
,,,,,V3_027,18,Male,2024-10-20_16h01.35.837,jersey_experiment_5_v3,2023.2.2,Win32,84.03361345,,,,,,,,,,,,,,,,223.5638,225.1165,225.1166,226.3638,return,0.7533,,93.22916667,0,47,47,24,1,FBP-PT-18.png,0.45,1.2,25,0.75,,,,,,,,,,,,,,,,,,,,,,,,,,,,,,,,,,,,,,,,,,,,,
,,,,,V3_027,18,Male,2024-10-20_16h01.35.837,jersey_experiment_5_v3,2023.2.2,Win32,84.03361345,,,,,,,,,,,,,,,,226.364,227.9167,227.9168,230.811,return,1.1861,,58.203125,0,48,48,0,1,FBP-YG-71.png,0.35,1.2,1,0.75,,,,,,,,,,,,,,,,,,,,,,,,,,,,,,,,,,,,,,,,,,,,,
,,,,,V3_027,18,Male,2024-10-20_16h01.35.837,jersey_experiment_5_v3,2023.2.2,Win32,84.03361345,,,,,,,,,,,,,,,,230.8114,232.1052,232.1052,233.0463,return,0.1233,,81.11979167,0,49,49,34,1,FBP-OG-17.png,0.45,1.2,35,0.5,,,,,,,,,,,,,,,,,,,,,,,,,,,,,,,,,,,,,,,,,,,,,
,,,,,V3_027,18,Male,2024-10-20_16h01.35.837,jersey_experiment_5_v3,2023.2.2,Win32,84.03361345,,,,,,,,,,,,,,,,233.0466,234.5994,234.5994,235.3877,return,0.1181,,58.203125,0,50,50,5,1,FBP-YG-81.png,0.35,1.2,6,0.75,,,,,,,,,,,,,,,,,,,,,,,,,,,,,,,,,,,,,,,,,,,,,
,,,,,V3_027,18,Male,2024-10-20_16h01.35.837,jersey_experiment_5_v3,2023.2.2,Win32,84.03361345,,,,,,,,,,,,,,,,235.388,236.9406,236.9407,237.6934,return,0.1635,,57.29166667,0,51,51,10,1,FBP-YG-91.png,0.35,1.2,11,0.75,,,,,,,,,,,,,,,,,,,,,,,,,,,,,,,,,,,,,,,,,,,,,
,,,,,V3_027,18,Male,2024-10-20_16h01.35.837,jersey_experiment_5_v3,2023.2.2,Win32,84.03361345,,,,,,,,,,,,,,,,237.6937,239.2466,239.2466,240.7642,return,0.1409,,71.61458333,0,52,52,22,1,FBP-PT-18.png,0.4,1.2,23,0.75,,,,,,,,,,,,,,,,,,,,,,,,,,,,,,,,,,,,,,,,,,,,,
,,,,,V3_027,18,Male,2024-10-20_16h01.35.837,jersey_experiment_5_v3,2023.2.2,Win32,84.03361345,,,,,,,,,,,,,,,,240.7644,242.3173,242.3173,243.4112,return,0.7355,,71.61458333,0,53,53,2,1,FBP-YG-71.png,0.4,1.2,3,0.75,,,,,,,,,,,,,,,,,,,,,,,,,,,,,,,,,,,,,,,,,,,,,
,,,,,V3_027,18,Male,2024-10-20_16h01.35.837,jersey_experiment_5_v3,2023.2.2,Win32,84.03361345,,,,,,,,,,,,,,,,243.4115,244.7056,244.7057,247.0115,return,1.0401,,59.89583333,0,54,54,35,1,FBP-OG-18.png,0.35,1.2,36,0.5,,,,,,,,,,,,,,,,,,,,,,,,,,,,,,,,,,,,,,,,,,,,,
,,,,,V3_027,18,Male,2024-10-20_16h01.35.837,jersey_experiment_5_v3,2023.2.2,Win32,84.03361345,,,,,,,,,,,,,,,,247.0117,248.5645,248.5645,249.2939,return,0.048,,71.09375,0,55,55,46,1,FBP-RB-17.png,0.37,1.2,47,0.75,,,,,,,,,,,,,,,,,,,,,,,,,,,,,,,,,,,,,,,,,,,,,
,,,,,V3_027,18,Male,2024-10-20_16h01.35.837,jersey_experiment_5_v3,2023.2.2,Win32,84.03361345,,,,,,,,,,,,,,,,249.2941,250.8472,250.8472,251.7058,return,0.3551,,60.41666667,0,56,56,20,1,FBP-PT-18.png,0.35,1.2,21,0.75,,,,,,,,,,,,,,,,,,,,,,,,,,,,,,,,,,,,,,,,,,,,,
,,,,,V3_027,18,Male,2024-10-20_16h01.35.837,jersey_experiment_5_v3,2023.2.2,Win32,84.03361345,,,,,,,,,,,,,,,,251.7062,253.2588,253.2588,254.3412,return,0.1246,,89.453125,0,57,57,48,1,FBP-RB-17.png,0.43,1.2,49,0.75,,,,,,,,,,,,,,,,,,,,,,,,,,,,,,,,,,,,,,,,,,,,,
,,,,,V3_027,18,Male,2024-10-20_16h01.35.837,jersey_experiment_5_v3,2023.2.2,Win32,84.03361345,,,,,,,,,,,,,,,,254.3414,255.8943,255.8943,256.5177,return,0.0653,,88.93229167,0,58,58,47,1,FBP-RB-17.png,0.4,1.2,48,0.75,,,,,,,,,,,,,,,,,,,,,,,,,,,,,,,,,,,,,,,,,,,,,
,,,,,V3_027,18,Male,2024-10-20_16h01.35.837,jersey_experiment_5_v3,2023.2.2,Win32,84.03361345,,,,,,,,,,,,,,,,256.5179,257.8119,257.812,259.4473,return,0.8622,,80.20833333,0,59,59,42,1,FBP-OG-19.png,0.4,1.2,43,0.5,,,,,,,,,,,,,,,,,,,,,,,,,,,,,,,,,,,,,,,,,,,,,
,,,,,V3_027,18,Male,2024-10-20_16h01.35.837,jersey_experiment_5_v3,2023.2.2,Win32,84.03361345,,,,,,,,,,,,,,,,259.4488,260.7415,260.7415,262.3886,return,0.6536,,68.75,,,,,,FBP-OG-91.png,0.37,1.2,42,0.5,0,0,0,41,1,,,,,,,,,,,,,,,,,,,,,,,,,,,,,,,,,,,,,,,,
,,,,,V3_027,18,Male,2024-10-20_16h01.35.837,jersey_experiment_5_v3,2023.2.2,Win32,84.03361345,,,,,,,,,,,,,,,,262.389,263.9414,263.9415,269.4476,return,4.8358,,74.34895833,,,,,,FBP-YG-17.png,0.35,1.2,1,0.75,0,1,1,0,1,,,,,,,,,,,,,,,,,,,,,,,,,,,,,,,,,,,,,,,,
,,,,,V3_027,18,Male,2024-10-20_16h01.35.837,jersey_experiment_5_v3,2023.2.2,Win32,84.03361345,,,,,,,,,,,,,,,,269.4478,271.0007,271.0007,274.2125,return,0.1369,,79.03645833,,,,,,FBP-RB-91.png,0.45,1.2,60,0.75,0,2,2,59,1,,,,,,,,,,,,,,,,,,,,,,,,,,,,,,,,,,,,,,,,
,,,,,V3_027,18,Male,2024-10-20_16h01.35.837,jersey_experiment_5_v3,2023.2.2,Win32,84.03361345,,,,,,,,,,,,,,,,274.2126,275.7655,275.7655,276.2361,return,0.06,,78.38541667,,,,,,FBP-PT-91.png,0.4,1.2,28,0.75,0,3,3,27,1,,,,,,,,,,,,,,,,,,,,,,,,,,,,,,,,,,,,,,,,
,,,,,V3_027,18,Male,2024-10-20_16h01.35.837,jersey_experiment_5_v3,2023.2.2,Win32,84.03361345,,,,,,,,,,,,,,,,276.2364,277.7892,277.7892,278.9186,return,0.2053,,64.97395833,,,,,,FBP-PT-71.png,0.37,1.2,17,0.75,0,4,4,16,1,,,,,,,,,,,,,,,,,,,,,,,,,,,,,,,,,,,,,,,,
,,,,,V3_027,18,Male,2024-10-20_16h01.35.837,jersey_experiment_5_v3,2023.2.2,Win32,84.03361345,,,,,,,,,,,,,,,,278.9188,280.4716,280.4717,282.2952,return,0.6479,,81.11979167,,,,,,FBP-PT-91.png,0.45,1.2,30,0.75,0,5,5,29,1,,,,,,,,,,,,,,,,,,,,,,,,,,,,,,,,,,,,,,,,
,,,,,V3_027,18,Male,2024-10-20_16h01.35.837,jersey_experiment_5_v3,2023.2.2,Win32,84.03361345,,,,,,,,,,,,,,,,282.2955,283.8482,283.8482,285.0129,return,0.6407,,74.609375,,,,,,FBP-RB-81.png,0.37,1.2,52,0.75,0,6,6,51,1,,,,,,,,,,,,,,,,,,,,,,,,,,,,,,,,,,,,,,,,
,,,,,V3_027,18,Male,2024-10-20_16h01.35.837,jersey_experiment_5_v3,2023.2.2,Win32,84.03361345,,,,,,,,,,,,,,,,285.013,286.566,286.566,288.2483,return,0.9213,,81.90104167,,,,,,FBP-YG-17.png,0.43,1.2,4,0.75,0,7,7,3,1,,,,,,,,,,,,,,,,,,,,,,,,,,,,,,,,,,,,,,,,
,,,,,V3_027,18,Male,2024-10-20_16h01.35.837,jersey_experiment_5_v3,2023.2.2,Win32,84.03361345,,,,,,,,,,,,,,,,288.2486,289.5424,289.5425,290.2367,return,0.1805,,80.98958333,,,,,,FBP-OG-71.png,0.43,1.2,34,0.5,0,8,8,33,1,,,,,,,,,,,,,,,,,,,,,,,,,,,,,,,,,,,,,,,,
,,,,,V3_027,18,Male,2024-10-20_16h01.35.837,jersey_experiment_5_v3,2023.2.2,Win32,84.03361345,,,,,,,,,,,,,,,,290.2369,291.778,291.778,292.3662,return,0.0945,,68.48958333,,,,,,FBP-RB-91.png,0.35,1.2,56,0.75,0,9,9,55,1,,,,,,,,,,,,,,,,,,,,,,,,,,,,,,,,,,,,,,,,
,,,,,V3_027,18,Male,2024-10-20_16h01.35.837,jersey_experiment_5_v3,2023.2.2,Win32,84.03361345,,,,,,,,,,,,,,,,292.3665,293.9191,293.9192,294.9662,return,0.6059,,66.015625,,,,,,FBP-YG-18.png,0.37,1.2,7,0.75,0,10,10,6,1,,,,,,,,,,,,,,,,,,,,,,,,,,,,,,,,,,,,,,,,
,,,,,V3_027,18,Male,2024-10-20_16h01.35.837,jersey_experiment_5_v3,2023.2.2,Win32,84.03361345,,,,,,,,,,,,,,,,294.9664,296.5076,296.5076,297.9074,return,0.6322,,88.671875,,,,,,FBP-YG-17.png,0.45,1.2,5,0.75,0,11,11,4,1,,,,,,,,,,,,,,,,,,,,,,,,,,,,,,,,,,,,,,,,
,,,,,V3_027,18,Male,2024-10-20_16h01.35.837,jersey_experiment_5_v3,2023.2.2,Win32,84.03361345,,,,,,,,,,,,,,,,297.9076,299.4607,299.4607,300.1547,return,0.0801,,83.33333333,,,,,,FBP-RB-91.png,0.4,1.2,58,0.75,0,12,12,57,1,,,,,,,,,,,,,,,,,,,,,,,,,,,,,,,,,,,,,,,,
,,,,,V3_027,18,Male,2024-10-20_16h01.35.837,jersey_experiment_5_v3,2023.2.2,Win32,84.03361345,,,,,,,,,,,,,,,,300.155,301.7078,301.7079,302.5546,return,0.0561,,75.390625,,,,,,FBP-YG-18.png,0.35,1.2,6,0.75,0,13,13,5,1,,,,,,,,,,,,,,,,,,,,,,,,,,,,,,,,,,,,,,,,
,,,,,V3_027,18,Male,2024-10-20_16h01.35.837,jersey_experiment_5_v3,2023.2.2,Win32,84.03361345,,,,,,,,,,,,,,,,302.5548,304.0961,304.0961,305.4608,return,0.7483,,88.41145833,,,,,,FBP-YG-19.png,0.43,1.2,14,0.75,0,14,14,13,1,,,,,,,,,,,,,,,,,,,,,,,,,,,,,,,,,,,,,,,,
,,,,,V3_027,18,Male,2024-10-20_16h01.35.837,jersey_experiment_5_v3,2023.2.2,Win32,84.03361345,,,,,,,,,,,,,,,,305.4609,307.0136,307.0136,308.4726,return,1.074,,89.32291667,,,,,,FBP-RB-81.png,0.4,1.2,53,0.75,0,15,15,52,1,,,,,,,,,,,,,,,,,,,,,,,,,,,,,,,,,,,,,,,,
,,,,,V3_027,18,Male,2024-10-20_16h01.35.837,jersey_experiment_5_v3,2023.2.2,Win32,84.03361345,,,,,,,,,,,,,,,,308.4727,309.7667,309.7667,311.0491,return,0.544,,90.234375,,,,,,FBP-OG-91.png,0.45,1.2,45,0.5,0,16,16,44,1,,,,,,,,,,,,,,,,,,,,,,,,,,,,,,,,,,,,,,,,
,,,,,V3_027,18,Male,2024-10-20_16h01.35.837,jersey_experiment_5_v3,2023.2.2,Win32,84.03361345,,,,,,,,,,,,,,,,311.0493,312.6022,312.6023,316.214,return,0.3471,,82.68229167,,,,,,FBP-PT-81.png,0.35,1.2,21,0.75,0,17,17,20,1,,,,,,,,,,,,,,,,,,,,,,,,,,,,,,,,,,,,,,,,
,,,,,V3_027,18,Male,2024-10-20_16h01.35.837,jersey_experiment_5_v3,2023.2.2,Win32,84.03361345,,,,,,,,,,,,,,,,316.2142,317.7672,317.7672,318.2493,return,0.0339,,91.66666667,,,,,,FBP-PT-71.png,0.43,1.2,19,0.75,0,18,18,18,1,,,,,,,,,,,,,,,,,,,,,,,,,,,,,,,,,,,,,,,,
,,,,,V3_027,18,Male,2024-10-20_16h01.35.837,jersey_experiment_5_v3,2023.2.2,Win32,84.03361345,,,,,,,,,,,,,,,,318.2496,319.8023,319.8023,320.2846,return,0.0853,,89.0625,,,,,,FBP-YG-19.png,0.37,1.2,12,0.75,0,19,19,11,1,,,,,,,,,,,,,,,,,,,,,,,,,,,,,,,,,,,,,,,,
,,,,,V3_027,18,Male,2024-10-20_16h01.35.837,jersey_experiment_5_v3,2023.2.2,Win32,84.03361345,,,,,,,,,,,,,,,,320.2848,321.826,321.826,323.1437,return,0.601,,76.5625,,,,,,FBP-PT-71.png,0.35,1.2,16,0.75,0,20,20,15,1,,,,,,,,,,,,,,,,,,,,,,,,,,,,,,,,,,,,,,,,
,,,,,V3_027,18,Male,2024-10-20_16h01.35.837,jersey_experiment_5_v3,2023.2.2,Win32,84.03361345,,,,,,,,,,,,,,,,323.144,324.6967,324.6967,325.0378,return,0.189,,76.43229167,,,,,,FBP-RB-71.png,0.35,1.2,46,0.75,0,21,21,45,1,,,,,,,,,,,,,,,,,,,,,,,,,,,,,,,,,,,,,,,,
,,,,,V3_027,18,Male,2024-10-20_16h01.35.837,jersey_experiment_5_v3,2023.2.2,Win32,84.03361345,,,,,,,,,,,,,,,,325.038,326.591,326.591,327.6262,return,0.556,,92.31770833,,,,,,FBP-YG-18.png,0.43,1.2,9,0.75,0,22,22,8,1,,,,,,,,,,,,,,,,,,,,,,,,,,,,,,,,,,,,,,,,
,,,,,V3_027,18,Male,2024-10-20_16h01.35.837,jersey_experiment_5_v3,2023.2.2,Win32,84.03361345,,,,,,,,,,,,,,,,327.6263,328.9204,328.9204,330.2027,return,0.8566,,92.31770833,,,,,,FBP-OG-81.png,0.45,1.2,40,0.5,0,23,23,39,1,,,,,,,,,,,,,,,,,,,,,,,,,,,,,,,,,,,,,,,,
,,,,,V3_027,18,Male,2024-10-20_16h01.35.837,jersey_experiment_5_v3,2023.2.2,Win32,84.03361345,,,,,,,,,,,,,,,,330.2031,331.7559,331.7559,332.6028,return,0.1264,,77.99479167,,,,,,FBP-PT-91.png,0.37,1.2,27,0.75,0,24,24,26,1,,,,,,,,,,,,,,,,,,,,,,,,,,,,,,,,,,,,,,,,
,,,,,V3_027,18,Male,2024-10-20_16h01.35.837,jersey_experiment_5_v3,2023.2.2,Win32,84.03361345,,,,,,,,,,,,,,,,332.6032,334.1558,334.1558,339.4031,return,0.4321,,89.19270833,,,,,,FBP-YG-19.png,0.4,1.2,13,0.75,0,25,25,12,1,,,,,,,,,,,,,,,,,,,,,,,,,,,,,,,,,,,,,,,,
,,,,,V3_027,18,Male,2024-10-20_16h01.35.837,jersey_experiment_5_v3,2023.2.2,Win32,84.03361345,,,,,,,,,,,,,,,,339.4034,340.9564,340.9564,341.5327,return,0.1388,,87.109375,,,,,,FBP-RB-71.png,0.37,1.2,47,0.75,0,26,26,46,1,,,,,,,,,,,,,,,,,,,,,,,,,,,,,,,,,,,,,,,,
,,,,,V3_027,18,Male,2024-10-20_16h01.35.837,jersey_experiment_5_v3,2023.2.2,Win32,84.03361345,,,,,,,,,,,,,,,,341.5332,343.0855,343.0856,343.5444,return,0.0743,,93.09895833,,,,,,FBP-RB-71.png,0.43,1.2,49,0.75,0,27,27,48,1,,,,,,,,,,,,,,,,,,,,,,,,,,,,,,,,,,,,,,,,
,,,,,V3_027,18,Male,2024-10-20_16h01.35.837,jersey_experiment_5_v3,2023.2.2,Win32,84.03361345,,,,,,,,,,,,,,,,343.5446,345.0975,345.0976,345.6032,return,0.1224,,89.58333333,,,,,,FBP-RB-71.png,0.4,1.2,48,0.75,0,28,28,47,1,,,,,,,,,,,,,,,,,,,,,,,,,,,,,,,,,,,,,,,,
,,,,,V3_027,18,Male,2024-10-20_16h01.35.837,jersey_experiment_5_v3,2023.2.2,Win32,84.03361345,,,,,,,,,,,,,,,,345.6035,347.1564,347.1565,349.2034,return,1.3956,,77.60416667,,,,,,FBP-RB-81.png,0.35,1.2,51,0.75,0,29,29,50,1,,,,,,,,,,,,,,,,,,,,,,,,,,,,,,,,,,,,,,,,
,,,,,V3_027,18,Male,2024-10-20_16h01.35.837,jersey_experiment_5_v3,2023.2.2,Win32,84.03361345,,,,,,,,,,,,,,,,349.2037,350.7565,350.7565,352.0625,return,0.5634,,93.22916667,,,,,,FBP-PT-81.png,0.45,1.2,25,0.75,0,30,30,24,1,,,,,,,,,,,,,,,,,,,,,,,,,,,,,,,,,,,,,,,,
,,,,,V3_027,18,Male,2024-10-20_16h01.35.837,jersey_experiment_5_v3,2023.2.2,Win32,84.03361345,,,,,,,,,,,,,,,,352.0629,353.3568,353.3568,354.9331,return,0.7232,,74.21875,,,,,,FBP-OG-81.png,0.43,1.2,39,0.5,0,31,31,38,1,,,,,,,,,,,,,,,,,,,,,,,,,,,,,,,,,,,,,,,,
,,,,,V3_027,18,Male,2024-10-20_16h01.35.837,jersey_experiment_5_v3,2023.2.2,Win32,84.03361345,,,,,,,,,,,,,,,,354.9334,356.2272,356.2272,356.8861,return,0.1945,,71.875,,,,,,FBP-OG-71.png,0.4,1.2,33,0.5,0,32,32,32,1,,,,,,,,,,,,,,,,,,,,,,,,,,,,,,,,,,,,,,,,
,,,,,V3_027,18,Male,2024-10-20_16h01.35.837,jersey_experiment_5_v3,2023.2.2,Win32,84.03361345,,,,,,,,,,,,,,,,356.8862,358.4275,358.4275,359.0862,return,0.0624,,94.01041667,,,,,,FBP-YG-18.png,0.45,1.2,10,0.75,0,33,33,9,1,,,,,,,,,,,,,,,,,,,,,,,,,,,,,,,,,,,,,,,,
,,,,,V3_027,18,Male,2024-10-20_16h01.35.837,jersey_experiment_5_v3,2023.2.2,Win32,84.03361345,,,,,,,,,,,,,,,,359.0863,360.6392,360.6392,361.604,return,0.546,,93.09895833,,,,,,FBP-RB-81.png,0.43,1.2,54,0.75,0,34,34,53,1,,,,,,,,,,,,,,,,,,,,,,,,,,,,,,,,,,,,,,,,
,,,,,V3_027,18,Male,2024-10-20_16h01.35.837,jersey_experiment_5_v3,2023.2.2,Win32,84.03361345,,,,,,,,,,,,,,,,361.6041,363.1568,363.1569,365.8158,return,1.9924,,84.765625,,,,,,FBP-YG-17.png,0.4,1.2,3,0.75,0,35,35,2,1,,,,,,,,,,,,,,,,,,,,,,,,,,,,,,,,,,,,,,,,
,,,,,V3_027,18,Male,2024-10-20_16h01.35.837,jersey_experiment_5_v3,2023.2.2,Win32,84.03361345,,,,,,,,,,,,,,,,365.8161,367.3688,367.3689,368.5571,return,0.667,,83.203125,,,,,,FBP-PT-71.png,0.4,1.2,18,0.75,0,36,36,17,1,,,,,,,,,,,,,,,,,,,,,,,,,,,,,,,,,,,,,,,,
,,,,,V3_027,18,Male,2024-10-20_16h01.35.837,jersey_experiment_5_v3,2023.2.2,Win32,84.03361345,,,,,,,,,,,,,,,,368.5572,370.1102,370.1103,370.8396,return,0.1557,,80.46875,,,,,,FBP-PT-81.png,0.37,1.2,22,0.75,0,37,37,21,1,,,,,,,,,,,,,,,,,,,,,,,,,,,,,,,,,,,,,,,,
,,,,,V3_027,18,Male,2024-10-20_16h01.35.837,jersey_experiment_5_v3,2023.2.2,Win32,84.03361345,,,,,,,,,,,,,,,,370.8399,372.3924,372.3925,373.275,return,0.1103,,80.46875,,,,,,FBP-PT-71.png,0.45,1.2,20,0.75,0,38,38,19,1,,,,,,,,,,,,,,,,,,,,,,,,,,,,,,,,,,,,,,,,
,,,,,V3_027,18,Male,2024-10-20_16h01.35.837,jersey_experiment_5_v3,2023.2.2,Win32,84.03361345,,,,,,,,,,,,,,,,373.2752,374.8281,374.8281,378.1221,return,2.7432,,52.47395833,,,,,,FBP-PT-91.png,0.35,1.2,26,0.75,0,39,39,25,1,,,,,,,,,,,,,,,,,,,,,,,,,,,,,,,,,,,,,,,,
,,,,,V3_027,18,Male,2024-10-20_16h01.35.837,jersey_experiment_5_v3,2023.2.2,Win32,84.03361345,,,,,,,,,,,,,,,,378.1223,379.6752,379.6752,380.4045,return,0.0508,,73.30729167,,,,,,FBP-YG-19.png,0.35,1.2,11,0.75,0,40,40,10,1,,,,,,,,,,,,,,,,,,,,,,,,,,,,,,,,,,,,,,,,
,,,,,V3_027,18,Male,2024-10-20_16h01.35.837,jersey_experiment_5_v3,2023.2.2,Win32,84.03361345,,,,,,,,,,,,,,,,380.4047,381.9576,381.9576,382.4752,return,0.0158,,85.41666667,,,,,,FBP-RB-91.png,0.43,1.2,59,0.75,0,41,41,58,1,,,,,,,,,,,,,,,,,,,,,,,,,,,,,,,,,,,,,,,,
,,,,,V3_027,18,Male,2024-10-20_16h01.35.837,jersey_experiment_5_v3,2023.2.2,Win32,84.03361345,,,,,,,,,,,,,,,,382.4755,384.0285,384.0285,384.5342,return,0.0374,,97.65625,,,,,,FBP-RB-81.png,0.45,1.2,55,0.75,0,42,42,54,1,,,,,,,,,,,,,,,,,,,,,,,,,,,,,,,,,,,,,,,,
,,,,,V3_027,18,Male,2024-10-20_16h01.35.837,jersey_experiment_5_v3,2023.2.2,Win32,84.03361345,,,,,,,,,,,,,,,,384.5344,385.8283,385.8284,387.8048,return,1.1877,,75.390625,,,,,,FBP-OG-91.png,0.35,1.2,41,0.5,0,43,43,40,1,,,,,,,,,,,,,,,,,,,,,,,,,,,,,,,,,,,,,,,,
,,,,,V3_027,18,Male,2024-10-20_16h01.35.837,jersey_experiment_5_v3,2023.2.2,Win32,84.03361345,,,,,,,,,,,,,,,,387.805,389.3464,389.3465,390.1343,return,0.0996,,97.91666667,,,,,,FBP-PT-91.png,0.43,1.2,29,0.75,0,44,44,28,1,,,,,,,,,,,,,,,,,,,,,,,,,,,,,,,,,,,,,,,,
,,,,,V3_027,18,Male,2024-10-20_16h01.35.837,jersey_experiment_5_v3,2023.2.2,Win32,84.03361345,,,,,,,,,,,,,,,,390.1345,391.4286,391.4286,392.4874,return,0.0986,,75.26041667,,,,,,FBP-OG-81.png,0.35,1.2,36,0.5,0,45,45,35,1,,,,,,,,,,,,,,,,,,,,,,,,,,,,,,,,,,,,,,,,
,,,,,V3_027,18,Male,2024-10-20_16h01.35.837,jersey_experiment_5_v3,2023.2.2,Win32,84.03361345,,,,,,,,,,,,,,,,392.4875,394.0287,394.0287,394.7581,return,0.1454,,88.671875,,,,,,FBP-PT-81.png,0.4,1.2,23,0.75,0,46,46,22,1,,,,,,,,,,,,,,,,,,,,,,,,,,,,,,,,,,,,,,,,
,,,,,V3_027,18,Male,2024-10-20_16h01.35.837,jersey_experiment_5_v3,2023.2.2,Win32,84.03361345,,,,,,,,,,,,,,,,394.7584,396.0523,396.0523,397.0169,return,0.2035,,87.5,,,,,,FBP-OG-81.png,0.4,1.2,38,0.5,0,47,47,37,1,,,,,,,,,,,,,,,,,,,,,,,,,,,,,,,,,,,,,,,,
,,,,,V3_027,18,Male,2024-10-20_16h01.35.837,jersey_experiment_5_v3,2023.2.2,Win32,84.03361345,,,,,,,,,,,,,,,,397.0173,398.5701,398.5701,399.2876,return,0.1219,,98.17708333,,,,,,FBP-YG-19.png,0.45,1.2,15,0.75,0,48,48,14,1,,,,,,,,,,,,,,,,,,,,,,,,,,,,,,,,,,,,,,,,
,,,,,V3_027,18,Male,2024-10-20_16h01.35.837,jersey_experiment_5_v3,2023.2.2,Win32,84.03361345,,,,,,,,,,,,,,,,399.2878,400.8408,400.8409,401.7818,return,0.0844,,86.328125,,,,,,FBP-RB-91.png,0.37,1.2,57,0.75,0,49,49,56,1,,,,,,,,,,,,,,,,,,,,,,,,,,,,,,,,,,,,,,,,
,,,,,V3_027,18,Male,2024-10-20_16h01.35.837,jersey_experiment_5_v3,2023.2.2,Win32,84.03361345,,,,,,,,,,,,,,,,401.7821,403.076,403.0762,403.4525,return,0.0344,,86.328125,,,,,,FBP-OG-71.png,0.37,1.2,32,0.5,0,50,50,31,1,,,,,,,,,,,,,,,,,,,,,,,,,,,,,,,,,,,,,,,,
,,,,,V3_027,18,Male,2024-10-20_16h01.35.837,jersey_experiment_5_v3,2023.2.2,Win32,84.03361345,,,,,,,,,,,,,,,,403.4526,404.994,404.9941,405.7703,return,0.1327,,98.30729167,,,,,,FBP-RB-71.png,0.45,1.2,50,0.75,0,51,51,49,1,,,,,,,,,,,,,,,,,,,,,,,,,,,,,,,,,,,,,,,,
,,,,,V3_027,18,Male,2024-10-20_16h01.35.837,jersey_experiment_5_v3,2023.2.2,Win32,84.03361345,,,,,,,,,,,,,,,,405.7704,407.3234,407.3234,407.8762,return,0.0152,,86.58854167,,,,,,FBP-YG-17.png,0.37,1.2,2,0.75,0,52,52,1,1,,,,,,,,,,,,,,,,,,,,,,,,,,,,,,,,,,,,,,,,
,,,,,V3_027,18,Male,2024-10-20_16h01.35.837,jersey_experiment_5_v3,2023.2.2,Win32,84.03361345,,,,,,,,,,,,,,,,407.8764,409.1703,409.1704,409.9116,return,0.1198,,82.8125,,,,,,FBP-OG-81.png,0.37,1.2,37,0.5,0,53,53,36,1,,,,,,,,,,,,,,,,,,,,,,,,,,,,,,,,,,,,,,,,
,,,,,V3_027,18,Male,2024-10-20_16h01.35.837,jersey_experiment_5_v3,2023.2.2,Win32,84.03361345,,,,,,,,,,,,,,,,409.9118,411.2057,411.2057,412.5352,return,0.695,,85.80729167,,,,,,FBP-OG-91.png,0.4,1.2,43,0.5,0,54,54,42,1,,,,,,,,,,,,,,,,,,,,,,,,,,,,,,,,,,,,,,,,
,,,,,V3_027,18,Male,2024-10-20_16h01.35.837,jersey_experiment_5_v3,2023.2.2,Win32,84.03361345,,,,,,,,,,,,,,,,412.5353,414.0884,414.0884,414.7118,return,0.0948,,96.484375,,,,,,FBP-PT-81.png,0.43,1.2,24,0.75,0,55,55,23,1,,,,,,,,,,,,,,,,,,,,,,,,,,,,,,,,,,,,,,,,
,,,,,V3_027,18,Male,2024-10-20_16h01.35.837,jersey_experiment_5_v3,2023.2.2,Win32,84.03361345,,,,,,,,,,,,,,,,414.7121,416.0059,416.006,416.3471,return,0.0008,,97.265625,,,,,,FBP-OG-71.png,0.45,1.2,35,0.5,0,56,56,34,1,,,,,,,,,,,,,,,,,,,,,,,,,,,,,,,,,,,,,,,,
,,,,,V3_027,18,Male,2024-10-20_16h01.35.837,jersey_experiment_5_v3,2023.2.2,Win32,84.03361345,,,,,,,,,,,,,,,,416.3473,417.6414,417.6414,421.0532,return,2.5728,,73.95833333,,,,,,FBP-OG-71.png,0.35,1.2,31,0.5,0,57,57,30,1,,,,,,,,,,,,,,,,,,,,,,,,,,,,,,,,,,,,,,,,
,,,,,V3_027,18,Male,2024-10-20_16h01.35.837,jersey_experiment_5_v3,2023.2.2,Win32,84.03361345,,,,,,,,,,,,,,,,421.0533,422.6062,422.6062,423.6885,return,0.1055,,85.80729167,,,,,,FBP-YG-18.png,0.4,1.2,8,0.75,0,58,58,7,1,,,,,,,,,,,,,,,,,,,,,,,,,,,,,,,,,,,,,,,,
,,,,,V3_027,18,Male,2024-10-20_16h01.35.837,jersey_experiment_5_v3,2023.2.2,Win32,84.03361345,,,,,,,,,,,,,,,,423.6888,424.9827,424.9827,425.7004,return,0.09,,93.22916667,,,,,,FBP-OG-91.png,0.43,1.2,44,0.5,0,59,59,43,1,,,,,,,,,,,,,,,,,,,,,,,,,,,,,,,,,,,,,,,,
,,,,,V3_027,18,Male,2024-10-20_16h01.35.837,jersey_experiment_5_v3,2023.2.2,Win32,84.03361345,,,,,,,,,,,,,,,,,,,,,,,,,,,,,,,,,,,,,,,425.7006,545.6931,,,,,,,,,,,,,,,,,,,,,,,,,,,,,,,,,,,,,,
,,,,,V3_027,18,Male,2024-10-20_16h01.35.837,jersey_experiment_5_v3,2023.2.2,Win32,84.03361345,,,,,,,,,,,,,,,,,,,,,,,,,,,,,,,,,,,,,,,,,545.6933,563.7879,return,18.0798,,,,,,,,,,,,,,,,,,,,,,,,,,,,,,,,,,
,,,,,V3_027,18,Male,2024-10-20_16h01.35.837,jersey_experiment_5_v3,2023.2.2,Win32,84.03361345,,,,,,,,,,,,,,,,563.7895,565.0819,565.0819,567.8703,return,0.5392,,77.21354167,,,,,,FBP-RB-19.png,0.4,1.2,58,0.5,,,,,,,,,,,,,0,0,0,57,1,,,,,,,,,,,,,,,,,,,,,,,,,,,,
,,,,,V3_027,18,Male,2024-10-20_16h01.35.837,jersey_experiment_5_v3,2023.2.2,Win32,84.03361345,,,,,,,,,,,,,,,,567.8707,569.4233,569.4233,570.388,return,0.1608,,79.03645833,,,,,,FBP-OG-19.png,0.4,1.2,43,0.75,,,,,,,,,,,,,0,1,1,42,1,,,,,,,,,,,,,,,,,,,,,,,,,,,,
,,,,,V3_027,18,Male,2024-10-20_16h01.35.837,jersey_experiment_5_v3,2023.2.2,Win32,84.03361345,,,,,,,,,,,,,,,,570.3883,571.6822,571.6822,574.9059,return,0.7904,,79.42708333,,,,,,FBP-YG-81.png,0.37,1.2,7,0.5,,,,,,,,,,,,,0,2,2,6,1,,,,,,,,,,,,,,,,,,,,,,,,,,,,
,,,,,V3_027,18,Male,2024-10-20_16h01.35.837,jersey_experiment_5_v3,2023.2.2,Win32,84.03361345,,,,,,,,,,,,,,,,574.9062,576.4589,576.4589,577.0001,return,0.0629,,89.19270833,,,,,,FBP-OG-19.png,0.43,1.2,44,0.75,,,,,,,,,,,,,0,3,3,43,1,,,,,,,,,,,,,,,,,,,,,,,,,,,,
,,,,,V3_027,18,Male,2024-10-20_16h01.35.837,jersey_experiment_5_v3,2023.2.2,Win32,84.03361345,,,,,,,,,,,,,,,,577.0003,578.2942,578.2943,579.4589,return,0.6443,,92.578125,,,,,,FBP-RB-19.png,0.45,1.2,60,0.5,,,,,,,,,,,,,0,4,4,59,1,,,,,,,,,,,,,,,,,,,,,,,,,,,,
,,,,,V3_027,18,Male,2024-10-20_16h01.35.837,jersey_experiment_5_v3,2023.2.2,Win32,84.03361345,,,,,,,,,,,,,,,,579.4592,580.7532,580.7532,582.4355,return,0.6421,,75,,,,,,FBP-YG-71.png,0.35,1.2,1,0.5,,,,,,,,,,,,,0,5,5,0,1,,,,,,,,,,,,,,,,,,,,,,,,,,,,
,,,,,V3_027,18,Male,2024-10-20_16h01.35.837,jersey_experiment_5_v3,2023.2.2,Win32,84.03361345,,,,,,,,,,,,,,,,582.4357,583.7299,583.7299,584.5063,return,0.3037,,81.77083333,,,,,,FBP-RB-17.png,0.37,1.2,47,0.5,,,,,,,,,,,,,0,6,6,46,1,,,,,,,,,,,,,,,,,,,,,,,,,,,,
,,,,,V3_027,18,Male,2024-10-20_16h01.35.837,jersey_experiment_5_v3,2023.2.2,Win32,84.03361345,,,,,,,,,,,,,,,,584.5065,585.8006,585.8006,587.4121,return,0.8885,,92.1875,,,,,,FBP-RB-19.png,0.43,1.2,59,0.5,,,,,,,,,,,,,0,7,7,58,1,,,,,,,,,,,,,,,,,,,,,,,,,,,,
,,,,,V3_027,18,Male,2024-10-20_16h01.35.837,jersey_experiment_5_v3,2023.2.2,Win32,84.03361345,,,,,,,,,,,,,,,,587.4124,588.7064,588.7064,589.8476,return,0.6982,,92.44791667,,,,,,FBP-PT-17.png,0.4,1.2,18,0.5,,,,,,,,,,,,,0,8,8,17,1,,,,,,,,,,,,,,,,,,,,,,,,,,,,
,,,,,V3_027,18,Male,2024-10-20_16h01.35.837,jersey_experiment_5_v3,2023.2.2,Win32,84.03361345,,,,,,,,,,,,,,,,589.8479,591.1419,591.1419,592.8242,return,0.6962,,85.9375,,,,,,FBP-YG-71.png,0.37,1.2,2,0.5,,,,,,,,,,,,,0,9,9,1,1,,,,,,,,,,,,,,,,,,,,,,,,,,,,
,,,,,V3_027,18,Male,2024-10-20_16h01.35.837,jersey_experiment_5_v3,2023.2.2,Win32,84.03361345,,,,,,,,,,,,,,,,592.8244,594.3771,594.3773,595.883,return,0.6682,,97.00520833,,,,,,FBP-OG-18.png,0.43,1.2,39,0.75,,,,,,,,,,,,,0,10,10,38,1,,,,,,,,,,,,,,,,,,,,,,,,,,,,
,,,,,V3_027,18,Male,2024-10-20_16h01.35.837,jersey_experiment_5_v3,2023.2.2,Win32,84.03361345,,,,,,,,,,,,,,,,595.8832,597.1773,597.1773,598.3186,return,0.6746,,97.00520833,,,,,,FBP-PT-18.png,0.43,1.2,24,0.5,,,,,,,,,,,,,0,11,11,23,1,,,,,,,,,,,,,,,,,,,,,,,,,,,,
,,,,,V3_027,18,Male,2024-10-20_16h01.35.837,jersey_experiment_5_v3,2023.2.2,Win32,84.03361345,,,,,,,,,,,,,,,,598.3188,599.8717,599.8717,601.3185,return,0.649,,78.38541667,,,,,,FBP-OG-18.png,0.35,1.2,36,0.75,,,,,,,,,,,,,0,12,12,35,1,,,,,,,,,,,,,,,,,,,,,,,,,,,,
,,,,,V3_027,18,Male,2024-10-20_16h01.35.837,jersey_experiment_5_v3,2023.2.2,Win32,84.03361345,,,,,,,,,,,,,,,,601.3187,602.6127,602.6127,603.7893,return,0.6353,,77.86458333,,,,,,FBP-RB-18.png,0.35,1.2,51,0.5,,,,,,,,,,,,,0,13,13,50,1,,,,,,,,,,,,,,,,,,,,,,,,,,,,
,,,,,V3_027,18,Male,2024-10-20_16h01.35.837,jersey_experiment_5_v3,2023.2.2,Win32,84.03361345,,,,,,,,,,,,,,,,603.7896,605.0834,605.0834,607.2129,return,1.3908,,94.921875,,,,,,FBP-PT-17.png,0.43,1.2,19,0.5,,,,,,,,,,,,,0,14,14,18,1,,,,,,,,,,,,,,,,,,,,,,,,,,,,
,,,,,V3_027,18,Male,2024-10-20_16h01.35.837,jersey_experiment_5_v3,2023.2.2,Win32,84.03361345,,,,,,,,,,,,,,,,607.2131,608.5071,608.5072,609.9307,return,0.5031,,82.03125,,,,,,FBP-PT-17.png,0.35,1.2,16,0.5,,,,,,,,,,,,,0,15,15,15,1,,,,,,,,,,,,,,,,,,,,,,,,,,,,
,,,,,V3_027,18,Male,2024-10-20_16h01.35.837,jersey_experiment_5_v3,2023.2.2,Win32,84.03361345,,,,,,,,,,,,,,,,609.9309,611.2248,611.2249,611.8835,return,0.1649,,82.03125,,,,,,FBP-YG-91.png,0.37,1.2,12,0.5,,,,,,,,,,,,,0,16,16,11,1,,,,,,,,,,,,,,,,,,,,,,,,,,,,
,,,,,V3_027,18,Male,2024-10-20_16h01.35.837,jersey_experiment_5_v3,2023.2.2,Win32,84.03361345,,,,,,,,,,,,,,,,611.8838,613.1778,613.1779,614.6368,return,0.5885,,90.88541667,,,,,,FBP-YG-71.png,0.43,1.2,4,0.5,,,,,,,,,,,,,0,17,17,3,1,,,,,,,,,,,,,,,,,,,,,,,,,,,,
,,,,,V3_027,18,Male,2024-10-20_16h01.35.837,jersey_experiment_5_v3,2023.2.2,Win32,84.03361345,,,,,,,,,,,,,,,,614.637,615.9309,615.9309,617.5074,return,1.1229,,92.578125,,,,,,FBP-YG-81.png,0.4,1.2,8,0.5,,,,,,,,,,,,,0,18,18,7,1,,,,,,,,,,,,,,,,,,,,,,,,,,,,
,,,,,V3_027,18,Male,2024-10-20_16h01.35.837,jersey_experiment_5_v3,2023.2.2,Win32,84.03361345,,,,,,,,,,,,,,,,617.5076,618.8015,618.8015,619.437,return,0.1649,,92.44791667,,,,,,FBP-RB-18.png,0.43,1.2,54,0.5,,,,,,,,,,,,,0,19,19,53,1,,,,,,,,,,,,,,,,,,,,,,,,,,,,
,,,,,V3_027,18,Male,2024-10-20_16h01.35.837,jersey_experiment_5_v3,2023.2.2,Win32,84.03361345,,,,,,,,,,,,,,,,619.4372,620.9902,620.9902,622.5311,return,0.7969,,80.98958333,,,,,,FBP-OG-17.png,0.35,1.2,31,0.75,,,,,,,,,,,,,0,20,20,30,1,,,,,,,,,,,,,,,,,,,,,,,,,,,,
,,,,,V3_027,18,Male,2024-10-20_16h01.35.837,jersey_experiment_5_v3,2023.2.2,Win32,84.03361345,,,,,,,,,,,,,,,,622.5314,623.8252,623.8253,625.6607,return,1.0121,,82.8125,,,,,,FBP-PT-18.png,0.35,1.2,21,0.5,,,,,,,,,,,,,0,21,21,20,1,,,,,,,,,,,,,,,,,,,,,,,,,,,,
,,,,,V3_027,18,Male,2024-10-20_16h01.35.837,jersey_experiment_5_v3,2023.2.2,Win32,84.03361345,,,,,,,,,,,,,,,,625.6609,626.9548,626.9549,627.5078,return,0.1025,,91.796875,,,,,,FBP-RB-18.png,0.4,1.2,53,0.5,,,,,,,,,,,,,0,22,22,52,1,,,,,,,,,,,,,,,,,,,,,,,,,,,,
,,,,,V3_027,18,Male,2024-10-20_16h01.35.837,jersey_experiment_5_v3,2023.2.2,Win32,84.03361345,,,,,,,,,,,,,,,,627.5081,628.8019,628.802,629.6607,return,0.4392,,91.66666667,,,,,,FBP-YG-91.png,0.43,1.2,14,0.5,,,,,,,,,,,,,0,23,23,13,1,,,,,,,,,,,,,,,,,,,,,,,,,,,,
,,,,,V3_027,18,Male,2024-10-20_16h01.35.837,jersey_experiment_5_v3,2023.2.2,Win32,84.03361345,,,,,,,,,,,,,,,,629.6609,630.955,630.9551,631.5549,return,0.2052,,92.96875,,,,,,FBP-PT-17.png,0.45,1.2,20,0.5,,,,,,,,,,,,,0,24,24,19,1,,,,,,,,,,,,,,,,,,,,,,,,,,,,
,,,,,V3_027,18,Male,2024-10-20_16h01.35.837,jersey_experiment_5_v3,2023.2.2,Win32,84.03361345,,,,,,,,,,,,,,,,631.5551,632.8491,632.8493,634.0728,return,0.1992,,92.96875,,,,,,FBP-YG-81.png,0.43,1.2,9,0.5,,,,,,,,,,,,,0,25,25,8,1,,,,,,,,,,,,,,,,,,,,,,,,,,,,
,,,,,V3_027,18,Male,2024-10-20_16h01.35.837,jersey_experiment_5_v3,2023.2.2,Win32,84.03361345,,,,,,,,,,,,,,,,634.0729,635.3668,635.3669,636.6964,return,0.1803,,81.25,,,,,,FBP-RB-19.png,0.35,1.2,56,0.5,,,,,,,,,,,,,0,26,26,55,1,,,,,,,,,,,,,,,,,,,,,,,,,,,,
,,,,,V3_027,18,Male,2024-10-20_16h01.35.837,jersey_experiment_5_v3,2023.2.2,Win32,84.03361345,,,,,,,,,,,,,,,,636.6966,637.9906,637.9906,638.9554,return,0.133,,93.09895833,,,,,,FBP-YG-91.png,0.45,1.2,15,0.5,,,,,,,,,,,,,0,27,27,14,1,,,,,,,,,,,,,,,,,,,,,,,,,,,,
,,,,,V3_027,18,Male,2024-10-20_16h01.35.837,jersey_experiment_5_v3,2023.2.2,Win32,84.03361345,,,,,,,,,,,,,,,,638.9556,640.5082,640.5083,641.6613,return,0.9678,,92.578125,,,,,,FBP-OG-18.png,0.4,1.2,38,0.75,,,,,,,,,,,,,0,28,28,37,1,,,,,,,,,,,,,,,,,,,,,,,,,,,,
,,,,,V3_027,18,Male,2024-10-20_16h01.35.837,jersey_experiment_5_v3,2023.2.2,Win32,84.03361345,,,,,,,,,,,,,,,,641.6615,642.9555,642.9555,643.9555,return,0.4871,,92.578125,,,,,,FBP-PT-18.png,0.4,1.2,23,0.5,,,,,,,,,,,,,0,29,29,22,1,,,,,,,,,,,,,,,,,,,,,,,,,,,,
,,,,,V3_027,18,Male,2024-10-20_16h01.35.837,jersey_experiment_5_v3,2023.2.2,Win32,84.03361345,,,,,,,,,,,,,,,,643.9557,645.2496,645.2497,646.1556,return,0.3457,,92.578125,,,,,,FBP-YG-81.png,0.45,1.2,10,0.5,,,,,,,,,,,,,0,30,30,9,1,,,,,,,,,,,,,,,,,,,,,,,,,,,,
,,,,,V3_027,18,Male,2024-10-20_16h01.35.837,jersey_experiment_5_v3,2023.2.2,Win32,84.03361345,,,,,,,,,,,,,,,,646.1558,647.7086,647.7086,648.2968,return,0.2105,,93.22916667,,,,,,FBP-OG-17.png,0.45,1.2,35,0.75,,,,,,,,,,,,,0,31,31,34,1,,,,,,,,,,,,,,,,,,,,,,,,,,,,
,,,,,V3_027,18,Male,2024-10-20_16h01.35.837,jersey_experiment_5_v3,2023.2.2,Win32,84.03361345,,,,,,,,,,,,,,,,648.297,649.591,649.5911,651.144,return,0.9337,,88.15104167,,,,,,FBP-YG-71.png,0.4,1.2,3,0.5,,,,,,,,,,,,,0,32,32,2,1,,,,,,,,,,,,,,,,,,,,,,,,,,,,
,,,,,V3_027,18,Male,2024-10-20_16h01.35.837,jersey_experiment_5_v3,2023.2.2,Win32,84.03361345,,,,,,,,,,,,,,,,651.1443,652.4381,652.4382,653.9911,return,0.5344,,91.14583333,,,,,,FBP-YG-91.png,0.4,1.2,13,0.5,,,,,,,,,,,,,0,33,33,12,1,,,,,,,,,,,,,,,,,,,,,,,,,,,,
,,,,,V3_027,18,Male,2024-10-20_16h01.35.837,jersey_experiment_5_v3,2023.2.2,Win32,84.03361345,,,,,,,,,,,,,,,,653.9913,655.2853,655.2853,656.7794,return,0.6826,,79.81770833,,,,,,FBP-YG-81.png,0.35,1.2,6,0.5,,,,,,,,,,,,,0,34,34,5,1,,,,,,,,,,,,,,,,,,,,,,,,,,,,
,,,,,V3_027,18,Male,2024-10-20_16h01.35.837,jersey_experiment_5_v3,2023.2.2,Win32,84.03361345,,,,,,,,,,,,,,,,656.7798,658.3325,658.3326,660.2384,return,1.2553,,82.421875,,,,,,FBP-OG-19.png,0.37,1.2,42,0.75,,,,,,,,,,,,,0,35,35,41,1,,,,,,,,,,,,,,,,,,,,,,,,,,,,
,,,,,V3_027,18,Male,2024-10-20_16h01.35.837,jersey_experiment_5_v3,2023.2.2,Win32,84.03361345,,,,,,,,,,,,,,,,660.2387,661.5325,661.5326,663.6622,return,1.5186,,83.203125,,,,,,FBP-PT-17.png,0.37,1.2,17,0.5,,,,,,,,,,,,,0,36,36,16,1,,,,,,,,,,,,,,,,,,,,,,,,,,,,
,,,,,V3_027,18,Male,2024-10-20_16h01.35.837,jersey_experiment_5_v3,2023.2.2,Win32,84.03361345,,,,,,,,,,,,,,,,663.6624,665.2153,665.2153,665.7799,return,0.0669,,96.484375,,,,,,FBP-OG-18.png,0.45,1.2,40,0.75,,,,,,,,,,,,,0,37,37,39,1,,,,,,,,,,,,,,,,,,,,,,,,,,,,
,,,,,V3_027,18,Male,2024-10-20_16h01.35.837,jersey_experiment_5_v3,2023.2.2,Win32,84.03361345,,,,,,,,,,,,,,,,665.7801,667.3329,667.3331,669.1917,return,0.6848,,97.13541667,,,,,,FBP-OG-19.png,0.45,1.2,45,0.75,,,,,,,,,,,,,0,38,38,44,1,,,,,,,,,,,,,,,,,,,,,,,,,,,,
,,,,,V3_027,18,Male,2024-10-20_16h01.35.837,jersey_experiment_5_v3,2023.2.2,Win32,84.03361345,,,,,,,,,,,,,,,,669.192,670.4859,670.4859,670.9211,return,0.0968,,97.00520833,,,,,,FBP-RB-17.png,0.45,1.2,50,0.5,,,,,,,,,,,,,0,39,39,49,1,,,,,,,,,,,,,,,,,,,,,,,,,,,,
,,,,,V3_027,18,Male,2024-10-20_16h01.35.837,jersey_experiment_5_v3,2023.2.2,Win32,84.03361345,,,,,,,,,,,,,,,,670.9213,672.2153,672.2153,672.8272,return,0.2127,,91.14583333,,,,,,FBP-RB-17.png,0.4,1.2,48,0.5,,,,,,,,,,,,,0,40,40,47,1,,,,,,,,,,,,,,,,,,,,,,,,,,,,
,,,,,V3_027,18,Male,2024-10-20_16h01.35.837,jersey_experiment_5_v3,2023.2.2,Win32,84.03361345,,,,,,,,,,,,,,,,672.8274,674.1213,674.1214,674.933,return,0.0267,,96.875,,,,,,FBP-RB-17.png,0.43,1.2,49,0.5,,,,,,,,,,,,,0,41,41,48,1,,,,,,,,,,,,,,,,,,,,,,,,,,,,
,,,,,V3_027,18,Male,2024-10-20_16h01.35.837,jersey_experiment_5_v3,2023.2.2,Win32,84.03361345,,,,,,,,,,,,,,,,674.9331,676.2272,676.2273,677.6625,return,0.9334,,93.61979167,,,,,,FBP-PT-18.png,0.45,1.2,25,0.5,,,,,,,,,,,,,0,42,42,24,1,,,,,,,,,,,,,,,,,,,,,,,,,,,,
,,,,,V3_027,18,Male,2024-10-20_16h01.35.837,jersey_experiment_5_v3,2023.2.2,Win32,84.03361345,,,,,,,,,,,,,,,,677.6628,678.9569,678.957,680.2629,return,0.5701,,97.00520833,,,,,,FBP-RB-18.png,0.45,1.2,55,0.5,,,,,,,,,,,,,0,43,43,54,1,,,,,,,,,,,,,,,,,,,,,,,,,,,,
,,,,,V3_027,18,Male,2024-10-20_16h01.35.837,jersey_experiment_5_v3,2023.2.2,Win32,84.03361345,,,,,,,,,,,,,,,,680.2631,681.5568,681.5568,683.604,return,0.7141,,59.11458333,,,,,,FBP-RB-17.png,0.35,1.2,46,0.5,,,,,,,,,,,,,0,44,44,45,1,,,,,,,,,,,,,,,,,,,,,,,,,,,,
,,,,,V3_027,18,Male,2024-10-20_16h01.35.837,jersey_experiment_5_v3,2023.2.2,Win32,84.03361345,,,,,,,,,,,,,,,,683.6041,685.1453,685.1454,686.9217,return,0.6455,,60.9375,,,,,,FBP-OG-17.png,0.37,1.2,32,0.75,,,,,,,,,,,,,0,45,45,31,1,,,,,,,,,,,,,,,,,,,,,,,,,,,,
,,,,,V3_027,18,Male,2024-10-20_16h01.35.837,jersey_experiment_5_v3,2023.2.2,Win32,84.03361345,,,,,,,,,,,,,,,,686.9221,688.4748,688.4749,689.6277,return,0.6118,,70.3125,,,,,,FBP-OG-17.png,0.4,1.2,33,0.75,,,,,,,,,,,,,0,46,46,32,1,,,,,,,,,,,,,,,,,,,,,,,,,,,,
,,,,,V3_027,18,Male,2024-10-20_16h01.35.837,jersey_experiment_5_v3,2023.2.2,Win32,84.03361345,,,,,,,,,,,,,,,,689.6278,690.9221,690.9222,691.7807,return,0.1467,,61.71875,,,,,,FBP-PT-18.png,0.37,1.2,22,0.5,,,,,,,,,,,,,0,47,47,21,1,,,,,,,,,,,,,,,,,,,,,,,,,,,,
,,,,,V3_027,18,Male,2024-10-20_16h01.35.837,jersey_experiment_5_v3,2023.2.2,Win32,84.03361345,,,,,,,,,,,,,,,,691.7808,693.0751,693.0752,694.3926,return,0.7914,,47.13541667,,,,,,FBP-PT-19.png,0.35,1.2,26,0.5,,,,,,,,,,,,,0,48,48,25,1,,,,,,,,,,,,,,,,,,,,,,,,,,,,
,,,,,V3_027,18,Male,2024-10-20_16h01.35.837,jersey_experiment_5_v3,2023.2.2,Win32,84.03361345,,,,,,,,,,,,,,,,694.3928,695.6868,695.6868,696.6162,return,0.153,,77.08333333,,,,,,FBP-PT-19.png,0.43,1.2,29,0.5,,,,,,,,,,,,,0,49,49,28,1,,,,,,,,,,,,,,,,,,,,,,,,,,,,
,,,,,V3_027,18,Male,2024-10-20_16h01.35.837,jersey_experiment_5_v3,2023.2.2,Win32,84.03361345,,,,,,,,,,,,,,,,696.6165,698.1694,698.1694,698.981,return,0.113,,63.93229167,,,,,,FBP-OG-18.png,0.37,1.2,37,0.75,,,,,,,,,,,,,0,50,50,36,1,,,,,,,,,,,,,,,,,,,,,,,,,,,,
,,,,,V3_027,18,Male,2024-10-20_16h01.35.837,jersey_experiment_5_v3,2023.2.2,Win32,84.03361345,,,,,,,,,,,,,,,,698.9813,700.5342,700.5343,701.2399,return,0.026,,56.38020833,,,,,,FBP-OG-19.png,0.35,1.2,41,0.75,,,,,,,,,,,,,0,51,51,40,1,,,,,,,,,,,,,,,,,,,,,,,,,,,,
,,,,,V3_027,18,Male,2024-10-20_16h01.35.837,jersey_experiment_5_v3,2023.2.2,Win32,84.03361345,,,,,,,,,,,,,,,,701.2401,702.5342,702.5342,703.4165,return,0.1784,,93.61979167,,,,,,FBP-YG-71.png,0.45,1.2,5,0.5,,,,,,,,,,,,,0,52,52,4,1,,,,,,,,,,,,,,,,,,,,,,,,,,,,
,,,,,V3_027,18,Male,2024-10-20_16h01.35.837,jersey_experiment_5_v3,2023.2.2,Win32,84.03361345,,,,,,,,,,,,,,,,703.4167,704.7108,704.7109,705.993,return,0.6265,,79.03645833,,,,,,FBP-PT-19.png,0.37,1.2,27,0.5,,,,,,,,,,,,,0,53,53,26,1,,,,,,,,,,,,,,,,,,,,,,,,,,,,
,,,,,V3_027,18,Male,2024-10-20_16h01.35.837,jersey_experiment_5_v3,2023.2.2,Win32,84.03361345,,,,,,,,,,,,,,,,705.9934,707.2875,707.2875,708.5224,return,0.6683,,83.72395833,,,,,,FBP-PT-19.png,0.4,1.2,28,0.5,,,,,,,,,,,,,0,54,54,27,1,,,,,,,,,,,,,,,,,,,,,,,,,,,,
,,,,,V3_027,18,Male,2024-10-20_16h01.35.837,jersey_experiment_5_v3,2023.2.2,Win32,84.03361345,,,,,,,,,,,,,,,,708.5227,709.8167,709.8167,711.8051,return,1.3547,,76.5625,,,,,,FBP-YG-91.png,0.35,1.2,11,0.5,,,,,,,,,,,,,0,55,55,10,1,,,,,,,,,,,,,,,,,,,,,,,,,,,,
,,,,,V3_027,18,Male,2024-10-20_16h01.35.837,jersey_experiment_5_v3,2023.2.2,Win32,84.03361345,,,,,,,,,,,,,,,,711.8054,713.0994,713.0994,713.9228,return,0.1013,,86.71875,,,,,,FBP-PT-19.png,0.45,1.2,30,0.5,,,,,,,,,,,,,0,56,56,29,1,,,,,,,,,,,,,,,,,,,,,,,,,,,,
,,,,,V3_027,18,Male,2024-10-20_16h01.35.837,jersey_experiment_5_v3,2023.2.2,Win32,84.03361345,,,,,,,,,,,,,,,,713.9231,715.2169,715.2169,716.0758,return,0.1414,,74.609375,,,,,,FBP-RB-18.png,0.37,1.2,52,0.5,,,,,,,,,,,,,0,57,57,51,1,,,,,,,,,,,,,,,,,,,,,,,,,,,,
,,,,,V3_027,18,Male,2024-10-20_16h01.35.837,jersey_experiment_5_v3,2023.2.2,Win32,84.03361345,,,,,,,,,,,,,,,,716.0761,717.3701,717.3702,718.7229,return,0.242,,73.4375,,,,,,FBP-RB-19.png,0.37,1.2,57,0.5,,,,,,,,,,,,,0,58,58,56,1,,,,,,,,,,,,,,,,,,,,,,,,,,,,
,,,,,V3_027,18,Male,2024-10-20_16h01.35.837,jersey_experiment_5_v3,2023.2.2,Win32,84.03361345,,,,,,,,,,,,,,,,718.7233,720.276,720.2761,721.6879,return,0.6988,,86.06770833,,,,,,FBP-OG-17.png,0.43,1.2,34,0.75,,,,,,,,,,,,,0,59,59,33,1,,,,,,,,,,,,,,,,,,,,,,,,,,,,
,,,,,V3_027,18,Male,2024-10-20_16h01.35.837,jersey_experiment_5_v3,2023.2.2,Win32,84.03361345,,,,,,,,,,,,,,,,721.6893,723.2406,723.2407,724.2054,return,0.7073,,85.28645833,,,,,,FBP-OG-71.png,0.45,1.2,35,0.75,,,,,,,,,,,,,,,,,,0,0,0,34,1,,,,,,,,,,,,,,,,,,,,,,,
,,,,,V3_027,18,Male,2024-10-20_16h01.35.837,jersey_experiment_5_v3,2023.2.2,Win32,84.03361345,,,,,,,,,,,,,,,,724.2056,725.4995,725.4995,727.288,return,1.2002,,86.45833333,,,,,,FBP-YG-19.png,0.4,1.2,13,0.5,,,,,,,,,,,,,,,,,,0,1,1,12,1,,,,,,,,,,,,,,,,,,,,,,,
,,,,,V3_027,18,Male,2024-10-20_16h01.35.837,jersey_experiment_5_v3,2023.2.2,Win32,84.03361345,,,,,,,,,,,,,,,,727.2882,728.5821,728.5822,731.0999,return,1.6004,,87.5,,,,,,FBP-RB-91.png,0.43,1.2,59,0.5,,,,,,,,,,,,,,,,,,0,2,2,58,1,,,,,,,,,,,,,,,,,,,,,,,
,,,,,V3_027,18,Male,2024-10-20_16h01.35.837,jersey_experiment_5_v3,2023.2.2,Win32,84.03361345,,,,,,,,,,,,,,,,731.1002,732.3941,732.3941,733.3823,return,0.143,,74.08854167,,,,,,FBP-PT-71.png,0.37,1.2,17,0.5,,,,,,,,,,,,,,,,,,0,3,3,16,1,,,,,,,,,,,,,,,,,,,,,,,
,,,,,V3_027,18,Male,2024-10-20_16h01.35.837,jersey_experiment_5_v3,2023.2.2,Win32,84.03361345,,,,,,,,,,,,,,,,733.3825,734.6765,734.6765,735.4177,return,0.1046,,77.21354167,,,,,,FBP-RB-81.png,0.4,1.2,53,0.5,,,,,,,,,,,,,,,,,,0,4,4,52,1,,,,,,,,,,,,,,,,,,,,,,,
,,,,,V3_027,18,Male,2024-10-20_16h01.35.837,jersey_experiment_5_v3,2023.2.2,Win32,84.03361345,,,,,,,,,,,,,,,,735.418,736.9707,736.9707,737.9119,return,0.2025,,78.125,,,,,,FBP-OG-81.png,0.4,1.2,38,0.75,,,,,,,,,,,,,,,,,,0,5,5,37,1,,,,,,,,,,,,,,,,,,,,,,,
,,,,,V3_027,18,Male,2024-10-20_16h01.35.837,jersey_experiment_5_v3,2023.2.2,Win32,84.03361345,,,,,,,,,,,,,,,,737.9122,739.2061,739.2061,740.1237,return,0.2204,,81.90104167,,,,,,FBP-YG-18.png,0.43,1.2,9,0.5,,,,,,,,,,,,,,,,,,0,6,6,8,1,,,,,,,,,,,,,,,,,,,,,,,
,,,,,V3_027,18,Male,2024-10-20_16h01.35.837,jersey_experiment_5_v3,2023.2.2,Win32,84.03361345,,,,,,,,,,,,,,,,740.124,741.4179,741.4179,742.5238,return,0.612,,89.84375,,,,,,FBP-YG-17.png,0.45,1.2,5,0.5,,,,,,,,,,,,,,,,,,0,7,7,4,1,,,,,,,,,,,,,,,,,,,,,,,
,,,,,V3_027,18,Male,2024-10-20_16h01.35.837,jersey_experiment_5_v3,2023.2.2,Win32,84.03361345,,,,,,,,,,,,,,,,742.5241,743.8179,743.8179,745.6534,return,1.2399,,89.58333333,,,,,,FBP-RB-91.png,0.45,1.2,60,0.5,,,,,,,,,,,,,,,,,,0,8,8,59,1,,,,,,,,,,,,,,,,,,,,,,,
,,,,,V3_027,18,Male,2024-10-20_16h01.35.837,jersey_experiment_5_v3,2023.2.2,Win32,84.03361345,,,,,,,,,,,,,,,,745.6538,746.9476,746.9476,747.5476,return,0.0622,,81.11979167,,,,,,FBP-YG-18.png,0.37,1.2,7,0.5,,,,,,,,,,,,,,,,,,0,9,9,6,1,,,,,,,,,,,,,,,,,,,,,,,
,,,,,V3_027,18,Male,2024-10-20_16h01.35.837,jersey_experiment_5_v3,2023.2.2,Win32,84.03361345,,,,,,,,,,,,,,,,747.5478,748.8418,748.8418,749.524,return,0.0899,,91.27604167,,,,,,FBP-YG-18.png,0.4,1.2,8,0.5,,,,,,,,,,,,,,,,,,0,10,10,7,1,,,,,,,,,,,,,,,,,,,,,,,
,,,,,V3_027,18,Male,2024-10-20_16h01.35.837,jersey_experiment_5_v3,2023.2.2,Win32,84.03361345,,,,,,,,,,,,,,,,749.5241,751.0654,751.0654,751.6889,return,0.0247,,63.41145833,,,,,,FBP-OG-91.png,0.35,1.2,41,0.75,,,,,,,,,,,,,,,,,,0,11,11,40,1,,,,,,,,,,,,,,,,,,,,,,,
,,,,,V3_027,18,Male,2024-10-20_16h01.35.837,jersey_experiment_5_v3,2023.2.2,Win32,84.03361345,,,,,,,,,,,,,,,,751.6892,752.9829,752.983,754.0536,return,0.5711,,63.671875,,,,,,FBP-YG-19.png,0.37,1.2,12,0.5,,,,,,,,,,,,,,,,,,0,12,12,11,1,,,,,,,,,,,,,,,,,,,,,,,
,,,,,V3_027,18,Male,2024-10-20_16h01.35.837,jersey_experiment_5_v3,2023.2.2,Win32,84.03361345,,,,,,,,,,,,,,,,754.0538,755.5951,755.5952,756.3713,return,0.1146,,76.04166667,,,,,,FBP-OG-81.png,0.45,1.2,40,0.75,,,,,,,,,,,,,,,,,,0,13,13,39,1,,,,,,,,,,,,,,,,,,,,,,,
,,,,,V3_027,18,Male,2024-10-20_16h01.35.837,jersey_experiment_5_v3,2023.2.2,Win32,84.03361345,,,,,,,,,,,,,,,,756.3716,757.6656,757.6657,758.6302,return,0.0275,,76.953125,,,,,,FBP-RB-71.png,0.45,1.2,50,0.5,,,,,,,,,,,,,,,,,,0,14,14,49,1,,,,,,,,,,,,,,,,,,,,,,,
,,,,,V3_027,18,Male,2024-10-20_16h01.35.837,jersey_experiment_5_v3,2023.2.2,Win32,84.03361345,,,,,,,,,,,,,,,,758.6303,759.9245,759.9245,760.6657,return,0.081,,58.33333333,,,,,,FBP-PT-91.png,0.35,1.2,26,0.5,,,,,,,,,,,,,,,,,,0,15,15,25,1,,,,,,,,,,,,,,,,,,,,,,,
,,,,,V3_027,18,Male,2024-10-20_16h01.35.837,jersey_experiment_5_v3,2023.2.2,Win32,84.03361345,,,,,,,,,,,,,,,,760.6659,761.9599,761.9599,764.1717,return,1.5867,,51.5625,,,,,,FBP-YG-18.png,0.35,1.2,6,0.5,,,,,,,,,,,,,,,,,,0,16,16,5,1,,,,,,,,,,,,,,,,,,,,,,,
,,,,,V3_027,18,Male,2024-10-20_16h01.35.837,jersey_experiment_5_v3,2023.2.2,Win32,84.03361345,,,,,,,,,,,,,,,,764.1719,765.4661,765.4661,766.2542,return,0.1647,,76.30208333,,,,,,FBP-YG-18.png,0.45,1.2,10,0.5,,,,,,,,,,,,,,,,,,0,17,17,9,1,,,,,,,,,,,,,,,,,,,,,,,
,,,,,V3_027,18,Male,2024-10-20_16h01.35.837,jersey_experiment_5_v3,2023.2.2,Win32,84.03361345,,,,,,,,,,,,,,,,766.2543,767.8071,767.8072,768.7954,return,0.5262,,65.10416667,,,,,,FBP-OG-71.png,0.37,1.2,32,0.75,,,,,,,,,,,,,,,,,,0,18,18,31,1,,,,,,,,,,,,,,,,,,,,,,,
,,,,,V3_027,18,Male,2024-10-20_16h01.35.837,jersey_experiment_5_v3,2023.2.2,Win32,84.03361345,,,,,,,,,,,,,,,,768.7955,770.0897,770.0897,771.2073,return,0.2279,,77.34375,,,,,,FBP-YG-17.png,0.4,1.2,3,0.5,,,,,,,,,,,,,,,,,,0,19,19,2,1,,,,,,,,,,,,,,,,,,,,,,,
,,,,,V3_027,18,Male,2024-10-20_16h01.35.837,jersey_experiment_5_v3,2023.2.2,Win32,84.03361345,,,,,,,,,,,,,,,,771.2074,772.5014,772.5014,773.6072,return,0.7221,,79.42708333,,,,,,FBP-PT-91.png,0.4,1.2,28,0.5,,,,,,,,,,,,,,,,,,0,20,20,27,1,,,,,,,,,,,,,,,,,,,,,,,
,,,,,V3_027,18,Male,2024-10-20_16h01.35.837,jersey_experiment_5_v3,2023.2.2,Win32,84.03361345,,,,,,,,,,,,,,,,773.6074,775.1487,775.1487,777.0193,return,1.4847,,85.02604167,,,,,,FBP-OG-81.png,0.43,1.2,39,0.75,,,,,,,,,,,,,,,,,,0,21,21,38,1,,,,,,,,,,,,,,,,,,,,,,,
,,,,,V3_027,18,Male,2024-10-20_16h01.35.837,jersey_experiment_5_v3,2023.2.2,Win32,84.03361345,,,,,,,,,,,,,,,,777.0195,778.3136,778.3137,779.8664,return,0.8844,,75.390625,,,,,,FBP-YG-19.png,0.35,1.2,11,0.5,,,,,,,,,,,,,,,,,,0,22,22,10,1,,,,,,,,,,,,,,,,,,,,,,,
,,,,,V3_027,18,Male,2024-10-20_16h01.35.837,jersey_experiment_5_v3,2023.2.2,Win32,84.03361345,,,,,,,,,,,,,,,,779.8666,781.1606,781.1607,781.9136,return,0.11,,92.83854167,,,,,,FBP-RB-81.png,0.43,1.2,54,0.5,,,,,,,,,,,,,,,,,,0,23,23,53,1,,,,,,,,,,,,,,,,,,,,,,,
,,,,,V3_027,18,Male,2024-10-20_16h01.35.837,jersey_experiment_5_v3,2023.2.2,Win32,84.03361345,,,,,,,,,,,,,,,,781.9138,783.2079,783.2079,783.8313,return,0.0856,,80.859375,,,,,,FBP-YG-17.png,0.37,1.2,2,0.5,,,,,,,,,,,,,,,,,,0,24,24,1,1,,,,,,,,,,,,,,,,,,,,,,,
,,,,,V3_027,18,Male,2024-10-20_16h01.35.837,jersey_experiment_5_v3,2023.2.2,Win32,84.03361345,,,,,,,,,,,,,,,,783.8314,785.1253,785.1253,785.796,return,0.2315,,80.72916667,,,,,,FBP-RB-91.png,0.37,1.2,57,0.5,,,,,,,,,,,,,,,,,,0,25,25,56,1,,,,,,,,,,,,,,,,,,,,,,,
,,,,,V3_027,18,Male,2024-10-20_16h01.35.837,jersey_experiment_5_v3,2023.2.2,Win32,84.03361345,,,,,,,,,,,,,,,,785.7963,787.0905,787.0906,787.902,return,0.2209,,76.69270833,,,,,,FBP-RB-71.png,0.4,1.2,48,0.5,,,,,,,,,,,,,,,,,,0,26,26,47,1,,,,,,,,,,,,,,,,,,,,,,,
,,,,,V3_027,18,Male,2024-10-20_16h01.35.837,jersey_experiment_5_v3,2023.2.2,Win32,84.03361345,,,,,,,,,,,,,,,,787.9021,789.1962,789.1962,789.8668,return,0.2508,,92.578125,,,,,,FBP-PT-91.png,0.45,1.2,30,0.5,,,,,,,,,,,,,,,,,,0,27,27,29,1,,,,,,,,,,,,,,,,,,,,,,,
,,,,,V3_027,18,Male,2024-10-20_16h01.35.837,jersey_experiment_5_v3,2023.2.2,Win32,84.03361345,,,,,,,,,,,,,,,,789.8669,791.161,791.161,792.1374,return,0.1532,,92.70833333,,,,,,FBP-PT-81.png,0.45,1.2,25,0.5,,,,,,,,,,,,,,,,,,0,28,28,24,1,,,,,,,,,,,,,,,,,,,,,,,
,,,,,V3_027,18,Male,2024-10-20_16h01.35.837,jersey_experiment_5_v3,2023.2.2,Win32,84.03361345,,,,,,,,,,,,,,,,792.1376,793.4317,793.4317,794.1846,return,0.1917,,92.83854167,,,,,,FBP-YG-19.png,0.43,1.2,14,0.5,,,,,,,,,,,,,,,,,,0,29,29,13,1,,,,,,,,,,,,,,,,,,,,,,,
,,,,,V3_027,18,Male,2024-10-20_16h01.35.837,jersey_experiment_5_v3,2023.2.2,Win32,84.03361345,,,,,,,,,,,,,,,,794.1847,795.7376,795.7376,796.4669,return,0.1502,,96.09375,,,,,,FBP-OG-71.png,0.43,1.2,34,0.75,,,,,,,,,,,,,,,,,,0,30,30,33,1,,,,,,,,,,,,,,,,,,,,,,,
,,,,,V3_027,18,Male,2024-10-20_16h01.35.837,jersey_experiment_5_v3,2023.2.2,Win32,84.03361345,,,,,,,,,,,,,,,,796.4671,797.7611,797.7612,798.8436,return,0.6224,,91.53645833,,,,,,FBP-PT-71.png,0.43,1.2,19,0.5,,,,,,,,,,,,,,,,,,0,31,31,18,1,,,,,,,,,,,,,,,,,,,,,,,
,,,,,V3_027,18,Male,2024-10-20_16h01.35.837,jersey_experiment_5_v3,2023.2.2,Win32,84.03361345,,,,,,,,,,,,,,,,798.8437,800.1378,800.1378,800.5966,return,0.1923,,91.40625,,,,,,FBP-PT-91.png,0.43,1.2,29,0.5,,,,,,,,,,,,,,,,,,0,32,32,28,1,,,,,,,,,,,,,,,,,,,,,,,
,,,,,V3_027,18,Male,2024-10-20_16h01.35.837,jersey_experiment_5_v3,2023.2.2,Win32,84.03361345,,,,,,,,,,,,,,,,800.5967,801.8908,801.8908,802.8907,return,0.2231,,91.40625,,,,,,FBP-RB-71.png,0.43,1.2,49,0.5,,,,,,,,,,,,,,,,,,0,33,33,48,1,,,,,,,,,,,,,,,,,,,,,,,
,,,,,V3_027,18,Male,2024-10-20_16h01.35.837,jersey_experiment_5_v3,2023.2.2,Win32,84.03361345,,,,,,,,,,,,,,,,802.891,804.1849,804.1849,805.0203,return,0.1639,,85.28645833,,,,,,FBP-RB-71.png,0.37,1.2,47,0.5,,,,,,,,,,,,,,,,,,0,34,34,46,1,,,,,,,,,,,,,,,,,,,,,,,
,,,,,V3_027,18,Male,2024-10-20_16h01.35.837,jersey_experiment_5_v3,2023.2.2,Win32,84.03361345,,,,,,,,,,,,,,,,805.0204,806.3144,806.3144,807.1145,return,0.2036,,83.33333333,,,,,,FBP-PT-91.png,0.37,1.2,27,0.5,,,,,,,,,,,,,,,,,,0,35,35,26,1,,,,,,,,,,,,,,,,,,,,,,,
,,,,,V3_027,18,Male,2024-10-20_16h01.35.837,jersey_experiment_5_v3,2023.2.2,Win32,84.03361345,,,,,,,,,,,,,,,,807.1147,808.6674,808.6675,809.3499,return,0.1914,,83.33333333,,,,,,FBP-OG-81.png,0.37,1.2,37,0.75,,,,,,,,,,,,,,,,,,0,36,36,36,1,,,,,,,,,,,,,,,,,,,,,,,
,,,,,V3_027,18,Male,2024-10-20_16h01.35.837,jersey_experiment_5_v3,2023.2.2,Win32,84.03361345,,,,,,,,,,,,,,,,809.3501,810.644,810.644,811.3969,return,0.0762,,90.10416667,,,,,,FBP-YG-17.png,0.43,1.2,4,0.5,,,,,,,,,,,,,,,,,,0,37,37,3,1,,,,,,,,,,,,,,,,,,,,,,,
,,,,,V3_027,18,Male,2024-10-20_16h01.35.837,jersey_experiment_5_v3,2023.2.2,Win32,84.03361345,,,,,,,,,,,,,,,,811.3972,812.6911,812.6911,813.6205,return,0.2292,,83.33333333,,,,,,FBP-PT-71.png,0.35,1.2,16,0.5,,,,,,,,,,,,,,,,,,0,38,38,15,1,,,,,,,,,,,,,,,,,,,,,,,
,,,,,V3_027,18,Male,2024-10-20_16h01.35.837,jersey_experiment_5_v3,2023.2.2,Win32,84.03361345,,,,,,,,,,,,,,,,813.6208,814.9148,814.9148,817.4324,return,1.6269,,90.10416667,,,,,,FBP-PT-81.png,0.43,1.2,24,0.5,,,,,,,,,,,,,,,,,,0,39,39,23,1,,,,,,,,,,,,,,,,,,,,,,,
,,,,,V3_027,18,Male,2024-10-20_16h01.35.837,jersey_experiment_5_v3,2023.2.2,Win32,84.03361345,,,,,,,,,,,,,,,,817.4327,818.7265,818.7265,819.7739,return,0.2479,,82.29166667,,,,,,FBP-PT-81.png,0.37,1.2,22,0.5,,,,,,,,,,,,,,,,,,0,40,40,21,1,,,,,,,,,,,,,,,,,,,,,,,
,,,,,V3_027,18,Male,2024-10-20_16h01.35.837,jersey_experiment_5_v3,2023.2.2,Win32,84.03361345,,,,,,,,,,,,,,,,819.7741,821.3268,821.3269,822.2326,return,0.1782,,82.94270833,,,,,,FBP-OG-71.png,0.35,1.2,31,0.75,,,,,,,,,,,,,,,,,,0,41,41,30,1,,,,,,,,,,,,,,,,,,,,,,,
,,,,,V3_027,18,Male,2024-10-20_16h01.35.837,jersey_experiment_5_v3,2023.2.2,Win32,84.03361345,,,,,,,,,,,,,,,,822.233,823.5268,823.5269,824.3974,return,0.128,,85.9375,,,,,,FBP-PT-81.png,0.4,1.2,23,0.5,,,,,,,,,,,,,,,,,,0,42,42,22,1,,,,,,,,,,,,,,,,,,,,,,,
,,,,,V3_027,18,Male,2024-10-20_16h01.35.837,jersey_experiment_5_v3,2023.2.2,Win32,84.03361345,,,,,,,,,,,,,,,,824.3977,825.6916,825.6916,826.7504,return,0.0572,,85.9375,,,,,,FBP-YG-17.png,0.35,1.2,1,0.5,,,,,,,,,,,,,,,,,,0,43,43,0,1,,,,,,,,,,,,,,,,,,,,,,,
,,,,,V3_027,18,Male,2024-10-20_16h01.35.837,jersey_experiment_5_v3,2023.2.2,Win32,84.03361345,,,,,,,,,,,,,,,,826.7507,828.0448,828.0448,828.6918,return,0.1226,,89.453125,,,,,,FBP-PT-71.png,0.45,1.2,20,0.5,,,,,,,,,,,,,,,,,,0,44,44,19,1,,,,,,,,,,,,,,,,,,,,,,,
,,,,,V3_027,18,Male,2024-10-20_16h01.35.837,jersey_experiment_5_v3,2023.2.2,Win32,84.03361345,,,,,,,,,,,,,,,,828.692,829.9858,829.9858,831.1271,return,0.4048,,82.03125,,,,,,FBP-RB-81.png,0.35,1.2,51,0.5,,,,,,,,,,,,,,,,,,0,45,45,50,1,,,,,,,,,,,,,,,,,,,,,,,
,,,,,V3_027,18,Male,2024-10-20_16h01.35.837,jersey_experiment_5_v3,2023.2.2,Win32,84.03361345,,,,,,,,,,,,,,,,831.1273,832.6801,832.6801,833.1978,return,0.1412,,85.15625,,,,,,FBP-OG-91.png,0.4,1.2,43,0.75,,,,,,,,,,,,,,,,,,0,46,46,42,1,,,,,,,,,,,,,,,,,,,,,,,
,,,,,V3_027,18,Male,2024-10-20_16h01.35.837,jersey_experiment_5_v3,2023.2.2,Win32,84.03361345,,,,,,,,,,,,,,,,833.198,834.4919,834.4919,835.7979,return,0.828,,85.15625,,,,,,FBP-PT-71.png,0.4,1.2,18,0.5,,,,,,,,,,,,,,,,,,0,47,47,17,1,,,,,,,,,,,,,,,,,,,,,,,
,,,,,V3_027,18,Male,2024-10-20_16h01.35.837,jersey_experiment_5_v3,2023.2.2,Win32,84.03361345,,,,,,,,,,,,,,,,835.798,837.092,837.0921,838.1626,return,0.4428,,88.54166667,,,,,,FBP-YG-19.png,0.45,1.2,15,0.5,,,,,,,,,,,,,,,,,,0,48,48,14,1,,,,,,,,,,,,,,,,,,,,,,,
,,,,,V3_027,18,Male,2024-10-20_16h01.35.837,jersey_experiment_5_v3,2023.2.2,Win32,84.03361345,,,,,,,,,,,,,,,,838.1628,839.4566,839.4567,840.8452,return,0.62,,82.55208333,,,,,,FBP-RB-81.png,0.37,1.2,52,0.5,,,,,,,,,,,,,,,,,,0,49,49,51,1,,,,,,,,,,,,,,,,,,,,,,,
,,,,,V3_027,18,Male,2024-10-20_16h01.35.837,jersey_experiment_5_v3,2023.2.2,Win32,84.03361345,,,,,,,,,,,,,,,,840.8455,842.1392,842.1394,843.2099,return,0.4009,,91.27604167,,,,,,FBP-RB-81.png,0.45,1.2,55,0.5,,,,,,,,,,,,,,,,,,0,50,50,54,1,,,,,,,,,,,,,,,,,,,,,,,
,,,,,V3_027,18,Male,2024-10-20_16h01.35.837,jersey_experiment_5_v3,2023.2.2,Win32,84.03361345,,,,,,,,,,,,,,,,843.2102,844.5041,844.5042,845.4688,return,0.1867,,76.953125,,,,,,FBP-RB-91.png,0.35,1.2,56,0.5,,,,,,,,,,,,,,,,,,0,51,51,55,1,,,,,,,,,,,,,,,,,,,,,,,
,,,,,V3_027,18,Male,2024-10-20_16h01.35.837,jersey_experiment_5_v3,2023.2.2,Win32,84.03361345,,,,,,,,,,,,,,,,845.469,847.0102,847.0103,847.6691,return,0.1955,,82.55208333,,,,,,FBP-OG-91.png,0.43,1.2,44,0.75,,,,,,,,,,,,,,,,,,0,52,52,43,1,,,,,,,,,,,,,,,,,,,,,,,
,,,,,V3_027,18,Male,2024-10-20_16h01.35.837,jersey_experiment_5_v3,2023.2.2,Win32,84.03361345,,,,,,,,,,,,,,,,847.6693,848.9631,848.9631,849.622,return,0.0609,,69.01041667,,,,,,FBP-RB-71.png,0.35,1.2,46,0.5,,,,,,,,,,,,,,,,,,0,53,53,45,1,,,,,,,,,,,,,,,,,,,,,,,
,,,,,V3_027,18,Male,2024-10-20_16h01.35.837,jersey_experiment_5_v3,2023.2.2,Win32,84.03361345,,,,,,,,,,,,,,,,849.6221,850.9162,850.9162,852.7161,return,0.9427,,68.09895833,,,,,,FBP-PT-81.png,0.35,1.2,21,0.5,,,,,,,,,,,,,,,,,,0,54,54,20,1,,,,,,,,,,,,,,,,,,,,,,,
,,,,,V3_027,18,Male,2024-10-20_16h01.35.837,jersey_experiment_5_v3,2023.2.2,Win32,84.03361345,,,,,,,,,,,,,,,,852.7164,854.2694,854.2694,855.7398,return,0.6121,,69.27083333,,,,,,FBP-OG-81.png,0.35,1.2,36,0.75,,,,,,,,,,,,,,,,,,0,55,55,35,1,,,,,,,,,,,,,,,,,,,,,,,
,,,,,V3_027,18,Male,2024-10-20_16h01.35.837,jersey_experiment_5_v3,2023.2.2,Win32,84.03361345,,,,,,,,,,,,,,,,855.7399,857.2928,857.2929,858.4575,return,0.6975,,80.98958333,,,,,,FBP-OG-71.png,0.4,1.2,33,0.75,,,,,,,,,,,,,,,,,,0,56,56,32,1,,,,,,,,,,,,,,,,,,,,,,,
,,,,,V3_027,18,Male,2024-10-20_16h01.35.837,jersey_experiment_5_v3,2023.2.2,Win32,84.03361345,,,,,,,,,,,,,,,,858.4577,860.0104,860.0104,860.9047,return,0.4854,,80.98958333,,,,,,FBP-OG-91.png,0.37,1.2,42,0.75,,,,,,,,,,,,,,,,,,0,57,57,41,1,,,,,,,,,,,,,,,,,,,,,,,
,,,,,V3_027,18,Male,2024-10-20_16h01.35.837,jersey_experiment_5_v3,2023.2.2,Win32,84.03361345,,,,,,,,,,,,,,,,860.905,862.1988,862.1988,863.0696,return,0.3216,,81.77083333,,,,,,FBP-RB-91.png,0.4,1.2,58,0.5,,,,,,,,,,,,,,,,,,0,58,58,57,1,,,,,,,,,,,,,,,,,,,,,,,
,,,,,V3_027,18,Male,2024-10-20_16h01.35.837,jersey_experiment_5_v3,2023.2.2,Win32,84.03361345,,,,,,,,,,,,,,,,863.0698,864.6224,864.6224,865.2578,return,0.1794,,85.41666667,,,,,,FBP-OG-91.png,0.45,1.2,45,0.75,,,,,,,,,,,,,,,,,,0,59,59,44,1,,,,,,,,,,,,,,,,,,,,,,,
,,,,,V3_027,18,Male,2024-10-20_16h01.35.837,jersey_experiment_5_v3,2023.2.2,Win32,84.03361345,,,,,,,,,,,,,,,,,,,,,,,,,,,,,,,,,,,,,,,,,,,,,,,,,,,,,,,,865.2579,872.2935,return,7.03,,,,,,,,,,,,,,,,,,,
,,,,,V3_027,18,Male,2024-10-20_16h01.35.837,jersey_experiment_5_v3,2023.2.2,Win32,84.03361345,,,,,,,,,,,,,,,,,,,,,,,,,,,,,,,,,,,,,,,,,,,,,,,,,,,,,,,,,,,,,872.2937,878.0584,1,4.3249,return,1.4246,,,,,,,,,,,,
,,,,,V3_027,18,Male,2024-10-20_16h01.35.837,jersey_experiment_5_v3,2023.2.2,Win32,84.03361345,,,,,,,,,,,,,,,,,,,,,,,,,,,,,,,,,,,,,,,,,,,,,,,,,,,,,,,,,,,,,,,,,,,,878.0584,924.0373,I am not sure. Perhaps it has to do with perceptions based on skin color.,right,23.4398,,,,,,
,,,,,V3_027,18,Male,2024-10-20_16h01.35.837,jersey_experiment_5_v3,2023.2.2,Win32,84.03361345,,,,,,,,,,,,,,,,,,,,,,,,,,,,,,,,,,,,,,,,,,,,,,,,,,,,,,,,,,,,,,,,,,,,,,,,,,924.0374,932.7898,return,8.7459,