requirements.started,requirements.stopped,key_resp_3.keys,key_resp_3.rt,key_resp_3.duration,Subject ID,Age,Gender,date,expName,psychopyVersion,OS,frameRate,instructions1.started,instructions1.stopped,key_resp.keys,key_resp.rt,key_resp.duration,example.started,example.stopped,enter_2.keys,enter_2.rt,enter_2.duration,instructions2.started,instructions2.stopped,enter_3.keys,enter_3.rt,enter_3.duration,image.started,image.stopped,slider_2.started,slider_2.stopped,next.keys,next.rt,next.duration,slider.response,trial_block_1.thisRepN,trial_block_1.thisTrialN,trial_block_1.thisN,trial_block_1.thisIndex,trial_block_1.ran,Path,Width,Height,Index,Duration,trial_block_2.thisRepN,trial_block_2.thisTrialN,trial_block_2.thisN,trial_block_2.thisIndex,trial_block_2.ran,rest_break.started,rest_break.stopped,end_break.started,end_break.stopped,key_resp_5.keys,key_resp_5.rt,key_resp_5.duration,trial_block_3.thisRepN,trial_block_3.thisTrialN,trial_block_3.thisN,trial_block_3.thisIndex,trial_block_3.ran,trial_block_4.thisRepN,trial_block_4.thisTrialN,trial_block_4.thisN,trial_block_4.thisIndex,trial_block_4.ran,questions_intro.started,questions_intro.stopped,enter_12.keys,enter_12.rt,enter_12.duration,question2.started,question2.stopped,question_doingbest.response,question_doingbest.rt,enter_15.keys,enter_15.rt,enter_15.duration,pattern.started,pattern.stopped,pattern_2.text,enter_17.keys,enter_17.rt,enter_17.duration,thankyou.started,thankyou.stopped,enter_14.keys,enter_14.rt,enter_14.duration
0.0001,15.1384,return,15.1319,,V3_023,22,Female,2024-10-17_17h59.40.853,jersey_experiment_5_v3,2023.2.2,Win32,84.74576271,,,,,,,,,,,,,,,,,,,,,,,,,,,,,,,,,,,,,,,,,,,,,,,,,,,,,,,,,,,,,,,,,,,,,,,,,,,,,,
,,,,,V3_023,22,Female,2024-10-17_17h59.40.853,jersey_experiment_5_v3,2023.2.2,Win32,84.74576271,15.1385,24.7033,return,9.5497,,,,,,,,,,,,,,,,,,,,,,,,,,,,,,,,,,,,,,,,,,,,,,,,,,,,,,,,,,,,,,,,,,,,,,,,,,
,,,,,V3_023,22,Female,2024-10-17_17h59.40.853,jersey_experiment_5_v3,2023.2.2,Win32,84.74576271,,,,,,24.7034,29.7037,return,4.9566,,,,,,,,,,,,,,,,,,,,,,,,,,,,,,,,,,,,,,,,,,,,,,,,,,,,,,,,,,,,,,,,,,,,,
,,,,,V3_023,22,Female,2024-10-17_17h59.40.853,jersey_experiment_5_v3,2023.2.2,Win32,84.74576271,,,,,,,,,,,29.7039,76.5171,return,46.8005,,,,,,,,,,,,,,,,,,,,,,,,,,,,,,,,,,,,,,,,,,,,,,,,,,,,,,,,,,,,,,,,
,,,,,V3_023,22,Female,2024-10-17_17h59.40.853,jersey_experiment_5_v3,2023.2.2,Win32,84.74576271,,,,,,,,,,,,,,,,76.5193,78.0699,78.0699,106.1534,return,4.4106,,64.19270833,0,0,0,57,1,FBP-RB-19.png,0.4,1.2,58,0.75,,,,,,,,,,,,,,,,,,,,,,,,,,,,,,,,,,,,,,,,,,,,,
,,,,,V3_023,22,Female,2024-10-17_17h59.40.853,jersey_experiment_5_v3,2023.2.2,Win32,84.74576271,,,,,,,,,,,,,,,,106.1538,107.7065,107.7065,117.4714,return,5.8911,,73.828125,0,1,1,54,1,FBP-RB-18.png,0.45,1.2,55,0.75,,,,,,,,,,,,,,,,,,,,,,,,,,,,,,,,,,,,,,,,,,,,,
,,,,,V3_023,22,Female,2024-10-17_17h59.40.853,jersey_experiment_5_v3,2023.2.2,Win32,84.74576271,,,,,,,,,,,,,,,,117.4718,119.0245,119.0245,124.1776,return,1.3011,,25.65104167,0,2,2,50,1,FBP-RB-18.png,0.35,1.2,51,0.75,,,,,,,,,,,,,,,,,,,,,,,,,,,,,,,,,,,,,,,,,,,,,
,,,,,V3_023,22,Female,2024-10-17_17h59.40.853,jersey_experiment_5_v3,2023.2.2,Win32,84.74576271,,,,,,,,,,,,,,,,124.1777,125.7305,125.7306,130.3779,return,0.9206,,75.390625,0,3,3,4,1,FBP-YG-71.png,0.45,1.2,5,0.75,,,,,,,,,,,,,,,,,,,,,,,,,,,,,,,,,,,,,,,,,,,,,
,,,,,V3_023,22,Female,2024-10-17_17h59.40.853,jersey_experiment_5_v3,2023.2.2,Win32,84.74576271,,,,,,,,,,,,,,,,130.378,131.9308,131.9308,137.684,return,3.5103,,34.50520833,0,4,4,10,1,FBP-YG-91.png,0.35,1.2,11,0.75,,,,,,,,,,,,,,,,,,,,,,,,,,,,,,,,,,,,,,,,,,,,,
,,,,,V3_023,22,Female,2024-10-17_17h59.40.853,jersey_experiment_5_v3,2023.2.2,Win32,84.74576271,,,,,,,,,,,,,,,,137.6842,139.2369,139.237,145.402,return,4.0474,,28.38541667,0,5,5,45,1,FBP-RB-17.png,0.35,1.2,46,0.75,,,,,,,,,,,,,,,,,,,,,,,,,,,,,,,,,,,,,,,,,,,,,
,,,,,V3_023,22,Female,2024-10-17_17h59.40.853,jersey_experiment_5_v3,2023.2.2,Win32,84.74576271,,,,,,,,,,,,,,,,145.4022,146.9549,146.9549,151.1902,return,1.8842,,76.82291667,0,6,6,14,1,FBP-YG-91.png,0.45,1.2,15,0.75,,,,,,,,,,,,,,,,,,,,,,,,,,,,,,,,,,,,,,,,,,,,,
,,,,,V3_023,22,Female,2024-10-17_17h59.40.853,jersey_experiment_5_v3,2023.2.2,Win32,84.74576271,,,,,,,,,,,,,,,,151.1905,152.7434,152.7434,156.5316,return,0.8987,,76.953125,0,7,7,27,1,FBP-PT-19.png,0.4,1.2,28,0.75,,,,,,,,,,,,,,,,,,,,,,,,,,,,,,,,,,,,,,,,,,,,,
,,,,,V3_023,22,Female,2024-10-17_17h59.40.853,jersey_experiment_5_v3,2023.2.2,Win32,84.74576271,,,,,,,,,,,,,,,,156.5318,158.0846,158.0846,162.2731,return,0.8858,,70.703125,0,8,8,7,1,FBP-YG-81.png,0.4,1.2,8,0.75,,,,,,,,,,,,,,,,,,,,,,,,,,,,,,,,,,,,,,,,,,,,,
,,,,,V3_023,22,Female,2024-10-17_17h59.40.853,jersey_experiment_5_v3,2023.2.2,Win32,84.74576271,,,,,,,,,,,,,,,,162.2733,163.8261,163.8261,169.3792,return,1.1668,,54.296875,0,9,9,11,1,FBP-YG-91.png,0.37,1.2,12,0.75,,,,,,,,,,,,,,,,,,,,,,,,,,,,,,,,,,,,,,,,,,,,,
,,,,,V3_023,22,Female,2024-10-17_17h59.40.853,jersey_experiment_5_v3,2023.2.2,Win32,84.74576271,,,,,,,,,,,,,,,,169.3796,170.9322,170.9322,174.7205,return,1.5948,,74.47916667,0,10,10,18,1,FBP-PT-17.png,0.43,1.2,19,0.75,,,,,,,,,,,,,,,,,,,,,,,,,,,,,,,,,,,,,,,,,,,,,
,,,,,V3_023,22,Female,2024-10-17_17h59.40.853,jersey_experiment_5_v3,2023.2.2,Win32,84.74576271,,,,,,,,,,,,,,,,174.7208,176.2735,176.2735,179.2501,return,0.7709,,62.36979167,0,11,11,46,1,FBP-RB-17.png,0.37,1.2,47,0.75,,,,,,,,,,,,,,,,,,,,,,,,,,,,,,,,,,,,,,,,,,,,,
,,,,,V3_023,22,Female,2024-10-17_17h59.40.853,jersey_experiment_5_v3,2023.2.2,Win32,84.74576271,,,,,,,,,,,,,,,,179.2503,180.803,180.803,183.3914,return,0.9222,,82.03125,0,12,12,49,1,FBP-RB-17.png,0.45,1.2,50,0.75,,,,,,,,,,,,,,,,,,,,,,,,,,,,,,,,,,,,,,,,,,,,,
,,,,,V3_023,22,Female,2024-10-17_17h59.40.853,jersey_experiment_5_v3,2023.2.2,Win32,84.74576271,,,,,,,,,,,,,,,,183.3917,184.9445,184.9446,187.3446,return,0.9138,,84.765625,0,13,13,9,1,FBP-YG-81.png,0.45,1.2,10,0.75,,,,,,,,,,,,,,,,,,,,,,,,,,,,,,,,,,,,,,,,,,,,,
,,,,,V3_023,22,Female,2024-10-17_17h59.40.853,jersey_experiment_5_v3,2023.2.2,Win32,84.74576271,,,,,,,,,,,,,,,,187.345,188.8977,188.8977,191.4505,return,1.0213,,82.16145833,0,14,14,8,1,FBP-YG-81.png,0.43,1.2,9,0.75,,,,,,,,,,,,,,,,,,,,,,,,,,,,,,,,,,,,,,,,,,,,,
,,,,,V3_023,22,Female,2024-10-17_17h59.40.853,jersey_experiment_5_v3,2023.2.2,Win32,84.74576271,,,,,,,,,,,,,,,,191.4508,192.7448,192.7449,195.1566,return,0.6975,,80.72916667,0,15,15,33,1,FBP-OG-17.png,0.43,1.2,34,0.5,,,,,,,,,,,,,,,,,,,,,,,,,,,,,,,,,,,,,,,,,,,,,
,,,,,V3_023,22,Female,2024-10-17_17h59.40.853,jersey_experiment_5_v3,2023.2.2,Win32,84.74576271,,,,,,,,,,,,,,,,195.1567,196.7097,196.7097,198.6978,return,0.7059,,73.95833333,0,16,16,53,1,FBP-RB-18.png,0.43,1.2,54,0.75,,,,,,,,,,,,,,,,,,,,,,,,,,,,,,,,,,,,,,,,,,,,,
,,,,,V3_023,22,Female,2024-10-17_17h59.40.853,jersey_experiment_5_v3,2023.2.2,Win32,84.74576271,,,,,,,,,,,,,,,,198.6981,199.9921,199.9922,204.1923,return,1.8167,,42.83854167,0,17,17,32,1,FBP-OG-17.png,0.4,1.2,33,0.5,,,,,,,,,,,,,,,,,,,,,,,,,,,,,,,,,,,,,,,,,,,,,
,,,,,V3_023,22,Female,2024-10-17_17h59.40.853,jersey_experiment_5_v3,2023.2.2,Win32,84.74576271,,,,,,,,,,,,,,,,204.1925,205.7453,205.7453,211.9455,return,2.4087,,42.44791667,0,18,18,12,1,FBP-YG-91.png,0.4,1.2,13,0.75,,,,,,,,,,,,,,,,,,,,,,,,,,,,,,,,,,,,,,,,,,,,,
,,,,,V3_023,22,Female,2024-10-17_17h59.40.853,jersey_experiment_5_v3,2023.2.2,Win32,84.74576271,,,,,,,,,,,,,,,,211.9457,213.2397,213.2397,218.3221,return,0.8299,,63.28125,0,19,19,38,1,FBP-OG-18.png,0.43,1.2,39,0.5,,,,,,,,,,,,,,,,,,,,,,,,,,,,,,,,,,,,,,,,,,,,,
,,,,,V3_023,22,Female,2024-10-17_17h59.40.853,jersey_experiment_5_v3,2023.2.2,Win32,84.74576271,,,,,,,,,,,,,,,,218.3222,219.8751,219.8752,223.3811,return,0.8813,,32.29166667,0,20,20,51,1,FBP-RB-18.png,0.37,1.2,52,0.75,,,,,,,,,,,,,,,,,,,,,,,,,,,,,,,,,,,,,,,,,,,,,
,,,,,V3_023,22,Female,2024-10-17_17h59.40.853,jersey_experiment_5_v3,2023.2.2,Win32,84.74576271,,,,,,,,,,,,,,,,223.3813,224.6753,224.6754,228.5931,return,1.1592,,31.38020833,0,21,21,31,1,FBP-OG-17.png,0.37,1.2,32,0.5,,,,,,,,,,,,,,,,,,,,,,,,,,,,,,,,,,,,,,,,,,,,,
,,,,,V3_023,22,Female,2024-10-17_17h59.40.853,jersey_experiment_5_v3,2023.2.2,Win32,84.74576271,,,,,,,,,,,,,,,,228.5934,230.1462,230.1462,232.2757,return,0.6402,,75.26041667,0,22,22,29,1,FBP-PT-19.png,0.45,1.2,30,0.75,,,,,,,,,,,,,,,,,,,,,,,,,,,,,,,,,,,,,,,,,,,,,
,,,,,V3_023,22,Female,2024-10-17_17h59.40.853,jersey_experiment_5_v3,2023.2.2,Win32,84.74576271,,,,,,,,,,,,,,,,232.2759,233.8285,233.8286,235.9698,return,0.8765,,26.30208333,0,23,23,25,1,FBP-PT-19.png,0.35,1.2,26,0.75,,,,,,,,,,,,,,,,,,,,,,,,,,,,,,,,,,,,,,,,,,,,,
,,,,,V3_023,22,Female,2024-10-17_17h59.40.853,jersey_experiment_5_v3,2023.2.2,Win32,84.74576271,,,,,,,,,,,,,,,,235.9701,237.5228,237.5229,239.5935,return,0.6355,,77.734375,0,24,24,48,1,FBP-RB-17.png,0.43,1.2,49,0.75,,,,,,,,,,,,,,,,,,,,,,,,,,,,,,,,,,,,,,,,,,,,,
,,,,,V3_023,22,Female,2024-10-17_17h59.40.853,jersey_experiment_5_v3,2023.2.2,Win32,84.74576271,,,,,,,,,,,,,,,,239.5937,241.1465,241.1465,243.1702,return,0.5947,,77.60416667,0,25,25,22,1,FBP-PT-18.png,0.4,1.2,23,0.75,,,,,,,,,,,,,,,,,,,,,,,,,,,,,,,,,,,,,,,,,,,,,
,,,,,V3_023,22,Female,2024-10-17_17h59.40.853,jersey_experiment_5_v3,2023.2.2,Win32,84.74576271,,,,,,,,,,,,,,,,243.1704,244.7231,244.7232,247.9938,return,0.7062,,27.734375,0,26,26,26,1,FBP-PT-19.png,0.37,1.2,27,0.75,,,,,,,,,,,,,,,,,,,,,,,,,,,,,,,,,,,,,,,,,,,,,
,,,,,V3_023,22,Female,2024-10-17_17h59.40.853,jersey_experiment_5_v3,2023.2.2,Win32,84.74576271,,,,,,,,,,,,,,,,247.9941,249.5468,249.5468,252.2411,return,0.725,,22.39583333,0,27,27,5,1,FBP-YG-81.png,0.35,1.2,6,0.75,,,,,,,,,,,,,,,,,,,,,,,,,,,,,,,,,,,,,,,,,,,,,
,,,,,V3_023,22,Female,2024-10-17_17h59.40.853,jersey_experiment_5_v3,2023.2.2,Win32,84.74576271,,,,,,,,,,,,,,,,252.2413,253.794,253.794,256.8177,return,0.6993,,85.67708333,0,28,28,24,1,FBP-PT-18.png,0.45,1.2,25,0.75,,,,,,,,,,,,,,,,,,,,,,,,,,,,,,,,,,,,,,,,,,,,,
,,,,,V3_023,22,Female,2024-10-17_17h59.40.853,jersey_experiment_5_v3,2023.2.2,Win32,84.74576271,,,,,,,,,,,,,,,,256.818,258.3707,258.3708,260.1826,return,0.7077,,85.67708333,0,29,29,13,1,FBP-YG-91.png,0.43,1.2,14,0.75,,,,,,,,,,,,,,,,,,,,,,,,,,,,,,,,,,,,,,,,,,,,,
,,,,,V3_023,22,Female,2024-10-17_17h59.40.853,jersey_experiment_5_v3,2023.2.2,Win32,84.74576271,,,,,,,,,,,,,,,,260.1827,261.7355,261.7355,264.1474,return,0.652,,61.19791667,0,30,30,2,1,FBP-YG-71.png,0.4,1.2,3,0.75,,,,,,,,,,,,,,,,,,,,,,,,,,,,,,,,,,,,,,,,,,,,,
,,,,,V3_023,22,Female,2024-10-17_17h59.40.853,jersey_experiment_5_v3,2023.2.2,Win32,84.74576271,,,,,,,,,,,,,,,,264.1476,265.4415,265.4416,269.4769,return,2.2859,,83.203125,0,31,31,44,1,FBP-OG-19.png,0.45,1.2,45,0.5,,,,,,,,,,,,,,,,,,,,,,,,,,,,,,,,,,,,,,,,,,,,,
,,,,,V3_023,22,Female,2024-10-17_17h59.40.853,jersey_experiment_5_v3,2023.2.2,Win32,84.74576271,,,,,,,,,,,,,,,,269.4773,270.7711,270.7712,272.8536,return,0.6976,,82.55208333,0,32,32,43,1,FBP-OG-19.png,0.43,1.2,44,0.5,,,,,,,,,,,,,,,,,,,,,,,,,,,,,,,,,,,,,,,,,,,,,
,,,,,V3_023,22,Female,2024-10-17_17h59.40.853,jersey_experiment_5_v3,2023.2.2,Win32,84.74576271,,,,,,,,,,,,,,,,272.8539,274.1478,274.1479,280.7597,return,4.3928,,44.53125,0,33,33,41,1,FBP-OG-19.png,0.37,1.2,42,0.5,,,,,,,,,,,,,,,,,,,,,,,,,,,,,,,,,,,,,,,,,,,,,
,,,,,V3_023,22,Female,2024-10-17_17h59.40.853,jersey_experiment_5_v3,2023.2.2,Win32,84.74576271,,,,,,,,,,,,,,,,280.76,282.3126,282.3126,286.3834,return,2.1936,,74.21875,0,34,34,28,1,FBP-PT-19.png,0.43,1.2,29,0.75,,,,,,,,,,,,,,,,,,,,,,,,,,,,,,,,,,,,,,,,,,,,,
,,,,,V3_023,22,Female,2024-10-17_17h59.40.853,jersey_experiment_5_v3,2023.2.2,Win32,84.74576271,,,,,,,,,,,,,,,,286.3838,287.9365,287.9365,290.5014,return,0.698,,25.390625,0,35,35,20,1,FBP-PT-18.png,0.35,1.2,21,0.75,,,,,,,,,,,,,,,,,,,,,,,,,,,,,,,,,,,,,,,,,,,,,
,,,,,V3_023,22,Female,2024-10-17_17h59.40.853,jersey_experiment_5_v3,2023.2.2,Win32,84.74576271,,,,,,,,,,,,,,,,290.5015,292.0542,292.0543,293.7014,return,0.6031,,25.390625,0,36,36,0,1,FBP-YG-71.png,0.35,1.2,1,0.75,,,,,,,,,,,,,,,,,,,,,,,,,,,,,,,,,,,,,,,,,,,,,
,,,,,V3_023,22,Female,2024-10-17_17h59.40.853,jersey_experiment_5_v3,2023.2.2,Win32,84.74576271,,,,,,,,,,,,,,,,293.7017,295.2544,295.2544,298.1369,return,0.5961,,28.77604167,0,37,37,16,1,FBP-PT-17.png,0.37,1.2,17,0.75,,,,,,,,,,,,,,,,,,,,,,,,,,,,,,,,,,,,,,,,,,,,,
,,,,,V3_023,22,Female,2024-10-17_17h59.40.853,jersey_experiment_5_v3,2023.2.2,Win32,84.74576271,,,,,,,,,,,,,,,,298.1371,299.6899,299.6899,302.4547,return,0.625,,39.71354167,0,38,38,1,1,FBP-YG-71.png,0.37,1.2,2,0.75,,,,,,,,,,,,,,,,,,,,,,,,,,,,,,,,,,,,,,,,,,,,,
,,,,,V3_023,22,Female,2024-10-17_17h59.40.853,jersey_experiment_5_v3,2023.2.2,Win32,84.74576271,,,,,,,,,,,,,,,,302.455,303.7488,303.7489,306.2077,return,0.6519,,74.86979167,0,39,39,39,1,FBP-OG-18.png,0.45,1.2,40,0.5,,,,,,,,,,,,,,,,,,,,,,,,,,,,,,,,,,,,,,,,,,,,,
,,,,,V3_023,22,Female,2024-10-17_17h59.40.853,jersey_experiment_5_v3,2023.2.2,Win32,84.74576271,,,,,,,,,,,,,,,,306.208,307.5019,307.5019,310.5608,return,1.027,,42.96875,0,40,40,40,1,FBP-OG-19.png,0.35,1.2,41,0.5,,,,,,,,,,,,,,,,,,,,,,,,,,,,,,,,,,,,,,,,,,,,,
,,,,,V3_023,22,Female,2024-10-17_17h59.40.853,jersey_experiment_5_v3,2023.2.2,Win32,84.74576271,,,,,,,,,,,,,,,,310.561,312.1138,312.1139,319.6082,return,5.9527,,75.78125,0,41,41,23,1,FBP-PT-18.png,0.43,1.2,24,0.75,,,,,,,,,,,,,,,,,,,,,,,,,,,,,,,,,,,,,,,,,,,,,
,,,,,V3_023,22,Female,2024-10-17_17h59.40.853,jersey_experiment_5_v3,2023.2.2,Win32,84.74576271,,,,,,,,,,,,,,,,319.6084,321.1612,321.1612,323.8084,return,0.6197,,38.02083333,0,42,42,47,1,FBP-RB-17.png,0.4,1.2,48,0.75,,,,,,,,,,,,,,,,,,,,,,,,,,,,,,,,,,,,,,,,,,,,,
,,,,,V3_023,22,Female,2024-10-17_17h59.40.853,jersey_experiment_5_v3,2023.2.2,Win32,84.74576271,,,,,,,,,,,,,,,,323.8087,325.3614,325.3614,327.7144,return,0.853,,27.99479167,0,43,43,55,1,FBP-RB-19.png,0.35,1.2,56,0.75,,,,,,,,,,,,,,,,,,,,,,,,,,,,,,,,,,,,,,,,,,,,,
,,,,,V3_023,22,Female,2024-10-17_17h59.40.853,jersey_experiment_5_v3,2023.2.2,Win32,84.74576271,,,,,,,,,,,,,,,,327.7147,329.2674,329.2674,333.1617,return,2.6114,,24.86979167,0,44,44,56,1,FBP-RB-19.png,0.37,1.2,57,0.75,,,,,,,,,,,,,,,,,,,,,,,,,,,,,,,,,,,,,,,,,,,,,
,,,,,V3_023,22,Female,2024-10-17_17h59.40.853,jersey_experiment_5_v3,2023.2.2,Win32,84.74576271,,,,,,,,,,,,,,,,333.162,334.456,334.456,337.1619,return,0.7443,,83.85416667,0,45,45,34,1,FBP-OG-17.png,0.45,1.2,35,0.5,,,,,,,,,,,,,,,,,,,,,,,,,,,,,,,,,,,,,,,,,,,,,
,,,,,V3_023,22,Female,2024-10-17_17h59.40.853,jersey_experiment_5_v3,2023.2.2,Win32,84.74576271,,,,,,,,,,,,,,,,337.1622,338.456,338.4561,340.5148,return,0.7924,,74.47916667,0,46,46,42,1,FBP-OG-19.png,0.4,1.2,43,0.5,,,,,,,,,,,,,,,,,,,,,,,,,,,,,,,,,,,,,,,,,,,,,
,,,,,V3_023,22,Female,2024-10-17_17h59.40.853,jersey_experiment_5_v3,2023.2.2,Win32,84.74576271,,,,,,,,,,,,,,,,340.5151,342.0678,342.0678,346.0797,return,1.0794,,58.984375,0,47,47,21,1,FBP-PT-18.png,0.37,1.2,22,0.75,,,,,,,,,,,,,,,,,,,,,,,,,,,,,,,,,,,,,,,,,,,,,
,,,,,V3_023,22,Female,2024-10-17_17h59.40.853,jersey_experiment_5_v3,2023.2.2,Win32,84.74576271,,,,,,,,,,,,,,,,346.0798,347.621,347.6212,349.3858,return,0.6698,,74.86979167,0,48,48,19,1,FBP-PT-17.png,0.45,1.2,20,0.75,,,,,,,,,,,,,,,,,,,,,,,,,,,,,,,,,,,,,,,,,,,,,
,,,,,V3_023,22,Female,2024-10-17_17h59.40.853,jersey_experiment_5_v3,2023.2.2,Win32,84.74576271,,,,,,,,,,,,,,,,349.386,350.9388,350.9389,353.4094,return,0.5791,,64.19270833,0,49,49,52,1,FBP-RB-18.png,0.4,1.2,53,0.75,,,,,,,,,,,,,,,,,,,,,,,,,,,,,,,,,,,,,,,,,,,,,
,,,,,V3_023,22,Female,2024-10-17_17h59.40.853,jersey_experiment_5_v3,2023.2.2,Win32,84.74576271,,,,,,,,,,,,,,,,353.4095,354.7036,354.7037,356.4567,return,0.5649,,64.19270833,0,50,50,36,1,FBP-OG-18.png,0.37,1.2,37,0.5,,,,,,,,,,,,,,,,,,,,,,,,,,,,,,,,,,,,,,,,,,,,,
,,,,,V3_023,22,Female,2024-10-17_17h59.40.853,jersey_experiment_5_v3,2023.2.2,Win32,84.74576271,,,,,,,,,,,,,,,,356.4568,358.0095,358.0096,359.6097,return,0.6355,,58.33333333,0,51,51,6,1,FBP-YG-81.png,0.37,1.2,7,0.75,,,,,,,,,,,,,,,,,,,,,,,,,,,,,,,,,,,,,,,,,,,,,
,,,,,V3_023,22,Female,2024-10-17_17h59.40.853,jersey_experiment_5_v3,2023.2.2,Win32,84.74576271,,,,,,,,,,,,,,,,359.61,360.9038,360.9038,362.8685,return,0.6232,,50.91145833,0,52,52,35,1,FBP-OG-18.png,0.35,1.2,36,0.5,,,,,,,,,,,,,,,,,,,,,,,,,,,,,,,,,,,,,,,,,,,,,
,,,,,V3_023,22,Female,2024-10-17_17h59.40.853,jersey_experiment_5_v3,2023.2.2,Win32,84.74576271,,,,,,,,,,,,,,,,362.8688,364.4215,364.4217,366.3864,return,0.6145,,73.30729167,0,53,53,3,1,FBP-YG-71.png,0.43,1.2,4,0.75,,,,,,,,,,,,,,,,,,,,,,,,,,,,,,,,,,,,,,,,,,,,,
,,,,,V3_023,22,Female,2024-10-17_17h59.40.853,jersey_experiment_5_v3,2023.2.2,Win32,84.74576271,,,,,,,,,,,,,,,,366.3867,367.6805,367.6806,369.7513,return,0.7527,,73.30729167,0,54,54,37,1,FBP-OG-18.png,0.4,1.2,38,0.5,,,,,,,,,,,,,,,,,,,,,,,,,,,,,,,,,,,,,,,,,,,,,
,,,,,V3_023,22,Female,2024-10-17_17h59.40.853,jersey_experiment_5_v3,2023.2.2,Win32,84.74576271,,,,,,,,,,,,,,,,369.7514,371.3043,371.3043,373.3161,return,0.6966,,84.50520833,0,55,55,58,1,FBP-RB-19.png,0.43,1.2,59,0.75,,,,,,,,,,,,,,,,,,,,,,,,,,,,,,,,,,,,,,,,,,,,,
,,,,,V3_023,22,Female,2024-10-17_17h59.40.853,jersey_experiment_5_v3,2023.2.2,Win32,84.74576271,,,,,,,,,,,,,,,,373.3164,374.6101,374.6101,377.3632,return,0.7814,,42.44791667,0,56,56,30,1,FBP-OG-17.png,0.35,1.2,31,0.5,,,,,,,,,,,,,,,,,,,,,,,,,,,,,,,,,,,,,,,,,,,,,
,,,,,V3_023,22,Female,2024-10-17_17h59.40.853,jersey_experiment_5_v3,2023.2.2,Win32,84.74576271,,,,,,,,,,,,,,,,377.3634,378.9161,378.9162,380.8693,return,0.7092,,37.23958333,0,57,57,15,1,FBP-PT-17.png,0.35,1.2,16,0.75,,,,,,,,,,,,,,,,,,,,,,,,,,,,,,,,,,,,,,,,,,,,,
,,,,,V3_023,22,Female,2024-10-17_17h59.40.853,jersey_experiment_5_v3,2023.2.2,Win32,84.74576271,,,,,,,,,,,,,,,,380.8696,382.4223,382.4224,384.787,return,0.8875,,79.81770833,0,58,58,59,1,FBP-RB-19.png,0.45,1.2,60,0.75,,,,,,,,,,,,,,,,,,,,,,,,,,,,,,,,,,,,,,,,,,,,,
,,,,,V3_023,22,Female,2024-10-17_17h59.40.853,jersey_experiment_5_v3,2023.2.2,Win32,84.74576271,,,,,,,,,,,,,,,,384.7874,386.3402,386.3402,388.4577,return,0.6045,,71.875,0,59,59,17,1,FBP-PT-17.png,0.4,1.2,18,0.75,,,,,,,,,,,,,,,,,,,,,,,,,,,,,,,,,,,,,,,,,,,,,
,,,,,V3_023,22,Female,2024-10-17_17h59.40.853,jersey_experiment_5_v3,2023.2.2,Win32,84.74576271,,,,,,,,,,,,,,,,388.4597,389.7519,389.7519,393.6581,return,0.6799,,36.06770833,,,,,,FBP-OG-71.png,0.35,1.2,31,0.5,0,0,0,30,1,,,,,,,,,,,,,,,,,,,,,,,,,,,,,,,,,,,,,,,,
,,,,,V3_023,22,Female,2024-10-17_17h59.40.853,jersey_experiment_5_v3,2023.2.2,Win32,84.74576271,,,,,,,,,,,,,,,,393.6584,395.211,395.211,397.1287,return,0.7372,,41.14583333,,,,,,FBP-PT-91.png,0.37,1.2,27,0.75,0,1,1,26,1,,,,,,,,,,,,,,,,,,,,,,,,,,,,,,,,,,,,,,,,
,,,,,V3_023,22,Female,2024-10-17_17h59.40.853,jersey_experiment_5_v3,2023.2.2,Win32,84.74576271,,,,,,,,,,,,,,,,397.1288,398.6816,398.6818,401.9877,return,0.7304,,41.14583333,,,,,,FBP-YG-17.png,0.37,1.2,2,0.75,0,2,2,1,1,,,,,,,,,,,,,,,,,,,,,,,,,,,,,,,,,,,,,,,,
,,,,,V3_023,22,Female,2024-10-17_17h59.40.853,jersey_experiment_5_v3,2023.2.2,Win32,84.74576271,,,,,,,,,,,,,,,,401.988,403.5408,403.5408,405.4819,return,0.6197,,38.02083333,,,,,,FBP-YG-19.png,0.37,1.2,12,0.75,0,3,3,11,1,,,,,,,,,,,,,,,,,,,,,,,,,,,,,,,,,,,,,,,,
,,,,,V3_023,22,Female,2024-10-17_17h59.40.853,jersey_experiment_5_v3,2023.2.2,Win32,84.74576271,,,,,,,,,,,,,,,,405.4821,407.035,407.035,409.0115,return,0.6399,,73.69791667,,,,,,FBP-YG-17.png,0.4,1.2,3,0.75,0,4,4,2,1,,,,,,,,,,,,,,,,,,,,,,,,,,,,,,,,,,,,,,,,
,,,,,V3_023,22,Female,2024-10-17_17h59.40.853,jersey_experiment_5_v3,2023.2.2,Win32,84.74576271,,,,,,,,,,,,,,,,409.0118,410.3057,410.3057,413.4116,return,2.0753,,82.68229167,,,,,,FBP-OG-71.png,0.45,1.2,35,0.5,0,5,5,34,1,,,,,,,,,,,,,,,,,,,,,,,,,,,,,,,,,,,,,,,,
,,,,,V3_023,22,Female,2024-10-17_17h59.40.853,jersey_experiment_5_v3,2023.2.2,Win32,84.74576271,,,,,,,,,,,,,,,,413.4118,414.9647,414.9647,416.6823,return,0.6109,,82.55208333,,,,,,FBP-YG-18.png,0.45,1.2,10,0.75,0,6,6,9,1,,,,,,,,,,,,,,,,,,,,,,,,,,,,,,,,,,,,,,,,
,,,,,V3_023,22,Female,2024-10-17_17h59.40.853,jersey_experiment_5_v3,2023.2.2,Win32,84.74576271,,,,,,,,,,,,,,,,416.6826,418.2354,418.2354,419.6001,return,0.5099,,82.55208333,,,,,,FBP-PT-91.png,0.43,1.2,29,0.75,0,7,7,28,1,,,,,,,,,,,,,,,,,,,,,,,,,,,,,,,,,,,,,,,,
,,,,,V3_023,22,Female,2024-10-17_17h59.40.853,jersey_experiment_5_v3,2023.2.2,Win32,84.74576271,,,,,,,,,,,,,,,,419.6003,421.1531,421.1531,422.3767,return,0.5991,,82.55208333,,,,,,FBP-YG-19.png,0.43,1.2,14,0.75,0,8,8,13,1,,,,,,,,,,,,,,,,,,,,,,,,,,,,,,,,,,,,,,,,
,,,,,V3_023,22,Female,2024-10-17_17h59.40.853,jersey_experiment_5_v3,2023.2.2,Win32,84.74576271,,,,,,,,,,,,,,,,422.3769,423.9297,423.9297,426.5299,return,0.5913,,79.81770833,,,,,,FBP-YG-19.png,0.45,1.2,15,0.75,0,9,9,14,1,,,,,,,,,,,,,,,,,,,,,,,,,,,,,,,,,,,,,,,,
,,,,,V3_023,22,Female,2024-10-17_17h59.40.853,jersey_experiment_5_v3,2023.2.2,Win32,84.74576271,,,,,,,,,,,,,,,,426.5301,428.0827,428.0828,430.0358,return,0.6516,,79.296875,,,,,,FBP-PT-71.png,0.4,1.2,18,0.75,0,10,10,17,1,,,,,,,,,,,,,,,,,,,,,,,,,,,,,,,,,,,,,,,,
,,,,,V3_023,22,Female,2024-10-17_17h59.40.853,jersey_experiment_5_v3,2023.2.2,Win32,84.74576271,,,,,,,,,,,,,,,,430.036,431.5888,431.5888,433.8243,return,0.7023,,27.734375,,,,,,FBP-YG-17.png,0.35,1.2,1,0.75,0,11,11,0,1,,,,,,,,,,,,,,,,,,,,,,,,,,,,,,,,,,,,,,,,
,,,,,V3_023,22,Female,2024-10-17_17h59.40.853,jersey_experiment_5_v3,2023.2.2,Win32,84.74576271,,,,,,,,,,,,,,,,433.8245,435.3774,435.3774,437.0949,return,0.6505,,55.59895833,,,,,,FBP-YG-17.png,0.43,1.2,4,0.75,0,12,12,3,1,,,,,,,,,,,,,,,,,,,,,,,,,,,,,,,,,,,,,,,,
,,,,,V3_023,22,Female,2024-10-17_17h59.40.853,jersey_experiment_5_v3,2023.2.2,Win32,84.74576271,,,,,,,,,,,,,,,,437.0952,438.3891,438.3891,440.8833,return,0.7775,,55.59895833,,,,,,FBP-OG-91.png,0.4,1.2,43,0.5,0,13,13,42,1,,,,,,,,,,,,,,,,,,,,,,,,,,,,,,,,,,,,,,,,
,,,,,V3_023,22,Female,2024-10-17_17h59.40.853,jersey_experiment_5_v3,2023.2.2,Win32,84.74576271,,,,,,,,,,,,,,,,440.8835,442.1775,442.1775,443.5422,return,0.6024,,55.59895833,,,,,,FBP-OG-71.png,0.4,1.2,33,0.5,0,14,14,32,1,,,,,,,,,,,,,,,,,,,,,,,,,,,,,,,,,,,,,,,,
,,,,,V3_023,22,Female,2024-10-17_17h59.40.853,jersey_experiment_5_v3,2023.2.2,Win32,84.74576271,,,,,,,,,,,,,,,,443.5425,444.8363,444.8363,446.8835,return,0.5578,,73.69791667,,,,,,FBP-OG-81.png,0.45,1.2,40,0.5,0,15,15,39,1,,,,,,,,,,,,,,,,,,,,,,,,,,,,,,,,,,,,,,,,
,,,,,V3_023,22,Female,2024-10-17_17h59.40.853,jersey_experiment_5_v3,2023.2.2,Win32,84.74576271,,,,,,,,,,,,,,,,446.8838,448.4365,448.4365,449.6012,return,0.5559,,73.69791667,,,,,,FBP-RB-81.png,0.4,1.2,53,0.75,0,16,16,52,1,,,,,,,,,,,,,,,,,,,,,,,,,,,,,,,,,,,,,,,,
,,,,,V3_023,22,Female,2024-10-17_17h59.40.853,jersey_experiment_5_v3,2023.2.2,Win32,84.74576271,,,,,,,,,,,,,,,,449.6015,450.8954,450.8954,454.2956,return,0.5429,,42.44791667,,,,,,FBP-OG-91.png,0.35,1.2,41,0.5,0,17,17,40,1,,,,,,,,,,,,,,,,,,,,,,,,,,,,,,,,,,,,,,,,
,,,,,V3_023,22,Female,2024-10-17_17h59.40.853,jersey_experiment_5_v3,2023.2.2,Win32,84.74576271,,,,,,,,,,,,,,,,454.2958,455.5896,455.5896,458.0721,return,0.7635,,42.44791667,,,,,,FBP-OG-91.png,0.37,1.2,42,0.5,0,18,18,41,1,,,,,,,,,,,,,,,,,,,,,,,,,,,,,,,,,,,,,,,,
,,,,,V3_023,22,Female,2024-10-17_17h59.40.853,jersey_experiment_5_v3,2023.2.2,Win32,84.74576271,,,,,,,,,,,,,,,,458.0723,459.6251,459.6252,461.5899,return,0.7219,,25.52083333,,,,,,FBP-RB-71.png,0.35,1.2,46,0.75,0,19,19,45,1,,,,,,,,,,,,,,,,,,,,,,,,,,,,,,,,,,,,,,,,
,,,,,V3_023,22,Female,2024-10-17_17h59.40.853,jersey_experiment_5_v3,2023.2.2,Win32,84.74576271,,,,,,,,,,,,,,,,461.5901,463.1429,463.143,464.9312,return,0.731,,67.578125,,,,,,FBP-PT-91.png,0.4,1.2,28,0.75,0,20,20,27,1,,,,,,,,,,,,,,,,,,,,,,,,,,,,,,,,,,,,,,,,
,,,,,V3_023,22,Female,2024-10-17_17h59.40.853,jersey_experiment_5_v3,2023.2.2,Win32,84.74576271,,,,,,,,,,,,,,,,464.9315,466.4842,466.4843,468.4843,return,0.7291,,25.91145833,,,,,,FBP-RB-91.png,0.35,1.2,56,0.75,0,21,21,55,1,,,,,,,,,,,,,,,,,,,,,,,,,,,,,,,,,,,,,,,,
,,,,,V3_023,22,Female,2024-10-17_17h59.40.853,jersey_experiment_5_v3,2023.2.2,Win32,84.74576271,,,,,,,,,,,,,,,,468.4846,469.7785,469.7785,471.9196,return,0.6556,,75.52083333,,,,,,FBP-OG-71.png,0.43,1.2,34,0.5,0,22,22,33,1,,,,,,,,,,,,,,,,,,,,,,,,,,,,,,,,,,,,,,,,
,,,,,V3_023,22,Female,2024-10-17_17h59.40.853,jersey_experiment_5_v3,2023.2.2,Win32,84.74576271,,,,,,,,,,,,,,,,471.9199,473.4727,473.4727,475.8141,return,0.6845,,31.25,,,,,,FBP-PT-71.png,0.37,1.2,17,0.75,0,23,23,16,1,,,,,,,,,,,,,,,,,,,,,,,,,,,,,,,,,,,,,,,,
,,,,,V3_023,22,Female,2024-10-17_17h59.40.853,jersey_experiment_5_v3,2023.2.2,Win32,84.74576271,,,,,,,,,,,,,,,,475.8144,477.3669,477.3669,478.7904,return,0.6352,,33.203125,,,,,,FBP-RB-91.png,0.37,1.2,57,0.75,0,24,24,56,1,,,,,,,,,,,,,,,,,,,,,,,,,,,,,,,,,,,,,,,,
,,,,,V3_023,22,Female,2024-10-17_17h59.40.853,jersey_experiment_5_v3,2023.2.2,Win32,84.74576271,,,,,,,,,,,,,,,,478.7907,480.3436,480.3436,482.2613,return,0.6012,,75.13020833,,,,,,FBP-RB-81.png,0.45,1.2,55,0.75,0,25,25,54,1,,,,,,,,,,,,,,,,,,,,,,,,,,,,,,,,,,,,,,,,
,,,,,V3_023,22,Female,2024-10-17_17h59.40.853,jersey_experiment_5_v3,2023.2.2,Win32,84.74576271,,,,,,,,,,,,,,,,482.2615,483.5554,483.5555,484.6496,return,0.5808,,75.13020833,,,,,,FBP-OG-91.png,0.43,1.2,44,0.5,0,26,26,43,1,,,,,,,,,,,,,,,,,,,,,,,,,,,,,,,,,,,,,,,,
,,,,,V3_023,22,Female,2024-10-17_17h59.40.853,jersey_experiment_5_v3,2023.2.2,Win32,84.74576271,,,,,,,,,,,,,,,,484.6498,486.2026,486.2026,487.7203,return,0.6357,,83.46354167,,,,,,FBP-PT-91.png,0.45,1.2,30,0.75,0,27,27,29,1,,,,,,,,,,,,,,,,,,,,,,,,,,,,,,,,,,,,,,,,
,,,,,V3_023,22,Female,2024-10-17_17h59.40.853,jersey_experiment_5_v3,2023.2.2,Win32,84.74576271,,,,,,,,,,,,,,,,487.7205,489.2734,489.2734,490.9439,return,0.6435,,85.15625,,,,,,FBP-PT-81.png,0.45,1.2,25,0.75,0,28,28,24,1,,,,,,,,,,,,,,,,,,,,,,,,,,,,,,,,,,,,,,,,
,,,,,V3_023,22,Female,2024-10-17_17h59.40.853,jersey_experiment_5_v3,2023.2.2,Win32,84.74576271,,,,,,,,,,,,,,,,490.9442,492.4969,492.4969,494.1676,return,0.6358,,55.46875,,,,,,FBP-YG-18.png,0.37,1.2,7,0.75,0,29,29,6,1,,,,,,,,,,,,,,,,,,,,,,,,,,,,,,,,,,,,,,,,
,,,,,V3_023,22,Female,2024-10-17_17h59.40.853,jersey_experiment_5_v3,2023.2.2,Win32,84.74576271,,,,,,,,,,,,,,,,494.1678,495.7205,495.7207,497.4147,return,0.8014,,80.33854167,,,,,,FBP-YG-17.png,0.45,1.2,5,0.75,0,30,30,4,1,,,,,,,,,,,,,,,,,,,,,,,,,,,,,,,,,,,,,,,,
,,,,,V3_023,22,Female,2024-10-17_17h59.40.853,jersey_experiment_5_v3,2023.2.2,Win32,84.74576271,,,,,,,,,,,,,,,,497.415,498.9677,498.9677,500.7561,return,0.627,,76.171875,,,,,,FBP-PT-81.png,0.4,1.2,23,0.75,0,31,31,22,1,,,,,,,,,,,,,,,,,,,,,,,,,,,,,,,,,,,,,,,,
,,,,,V3_023,22,Female,2024-10-17_17h59.40.853,jersey_experiment_5_v3,2023.2.2,Win32,84.74576271,,,,,,,,,,,,,,,,500.7563,502.0503,502.0503,505.168,return,0.5706,,54.16666667,,,,,,FBP-OG-81.png,0.37,1.2,37,0.5,0,32,32,36,1,,,,,,,,,,,,,,,,,,,,,,,,,,,,,,,,,,,,,,,,
,,,,,V3_023,22,Female,2024-10-17_17h59.40.853,jersey_experiment_5_v3,2023.2.2,Win32,84.74576271,,,,,,,,,,,,,,,,505.1682,506.4622,506.4622,508.2622,return,0.5274,,54.16666667,,,,,,FBP-OG-71.png,0.37,1.2,32,0.5,0,33,33,31,1,,,,,,,,,,,,,,,,,,,,,,,,,,,,,,,,,,,,,,,,
,,,,,V3_023,22,Female,2024-10-17_17h59.40.853,jersey_experiment_5_v3,2023.2.2,Win32,84.74576271,,,,,,,,,,,,,,,,508.2625,509.8153,509.8153,511.6035,return,0.593,,40.36458333,,,,,,FBP-YG-18.png,0.35,1.2,6,0.75,0,34,34,5,1,,,,,,,,,,,,,,,,,,,,,,,,,,,,,,,,,,,,,,,,
,,,,,V3_023,22,Female,2024-10-17_17h59.40.853,jersey_experiment_5_v3,2023.2.2,Win32,84.74576271,,,,,,,,,,,,,,,,511.6038,512.8976,512.8977,514.4979,return,0.6258,,34.765625,,,,,,FBP-OG-81.png,0.35,1.2,36,0.5,0,35,35,35,1,,,,,,,,,,,,,,,,,,,,,,,,,,,,,,,,,,,,,,,,
,,,,,V3_023,22,Female,2024-10-17_17h59.40.853,jersey_experiment_5_v3,2023.2.2,Win32,84.74576271,,,,,,,,,,,,,,,,514.4981,516.0508,516.0509,517.6507,return,0.5805,,23.56770833,,,,,,FBP-RB-81.png,0.35,1.2,51,0.75,0,36,36,50,1,,,,,,,,,,,,,,,,,,,,,,,,,,,,,,,,,,,,,,,,
,,,,,V3_023,22,Female,2024-10-17_17h59.40.853,jersey_experiment_5_v3,2023.2.2,Win32,84.74576271,,,,,,,,,,,,,,,,517.651,519.2037,519.2039,521.8156,return,0.7535,,72.13541667,,,,,,FBP-PT-81.png,0.43,1.2,24,0.75,0,37,37,23,1,,,,,,,,,,,,,,,,,,,,,,,,,,,,,,,,,,,,,,,,
,,,,,V3_023,22,Female,2024-10-17_17h59.40.853,jersey_experiment_5_v3,2023.2.2,Win32,84.74576271,,,,,,,,,,,,,,,,521.8159,523.3686,523.3687,525.4276,return,0.7457,,72.13541667,,,,,,FBP-RB-81.png,0.37,1.2,52,0.75,0,38,38,51,1,,,,,,,,,,,,,,,,,,,,,,,,,,,,,,,,,,,,,,,,
,,,,,V3_023,22,Female,2024-10-17_17h59.40.853,jersey_experiment_5_v3,2023.2.2,Win32,84.74576271,,,,,,,,,,,,,,,,525.4278,526.9806,526.9807,531.9572,return,3.1325,,72.78645833,,,,,,FBP-YG-18.png,0.4,1.2,8,0.75,0,39,39,7,1,,,,,,,,,,,,,,,,,,,,,,,,,,,,,,,,,,,,,,,,
,,,,,V3_023,22,Female,2024-10-17_17h59.40.853,jersey_experiment_5_v3,2023.2.2,Win32,84.74576271,,,,,,,,,,,,,,,,531.9574,533.5101,533.5102,534.9809,return,0.6744,,72.78645833,,,,,,FBP-RB-81.png,0.43,1.2,54,0.75,0,40,40,53,1,,,,,,,,,,,,,,,,,,,,,,,,,,,,,,,,,,,,,,,,
,,,,,V3_023,22,Female,2024-10-17_17h59.40.853,jersey_experiment_5_v3,2023.2.2,Win32,84.74576271,,,,,,,,,,,,,,,,534.9812,536.2749,536.2749,537.7809,return,0.5909,,72.78645833,,,,,,FBP-OG-81.png,0.43,1.2,39,0.5,0,41,41,38,1,,,,,,,,,,,,,,,,,,,,,,,,,,,,,,,,,,,,,,,,
,,,,,V3_023,22,Female,2024-10-17_17h59.40.853,jersey_experiment_5_v3,2023.2.2,Win32,84.74576271,,,,,,,,,,,,,,,,537.7811,539.3339,539.3339,541.2164,return,0.6417,,56.90104167,,,,,,FBP-RB-71.png,0.37,1.2,47,0.75,0,42,42,46,1,,,,,,,,,,,,,,,,,,,,,,,,,,,,,,,,,,,,,,,,
,,,,,V3_023,22,Female,2024-10-17_17h59.40.853,jersey_experiment_5_v3,2023.2.2,Win32,84.74576271,,,,,,,,,,,,,,,,541.2166,542.7694,542.7694,543.9106,return,0.6605,,56.90104167,,,,,,FBP-RB-71.png,0.4,1.2,48,0.75,0,43,43,47,1,,,,,,,,,,,,,,,,,,,,,,,,,,,,,,,,,,,,,,,,
,,,,,V3_023,22,Female,2024-10-17_17h59.40.853,jersey_experiment_5_v3,2023.2.2,Win32,84.74576271,,,,,,,,,,,,,,,,543.9107,545.4636,545.4636,547.3461,return,0.6731,,74.86979167,,,,,,FBP-RB-91.png,0.45,1.2,60,0.75,0,44,44,59,1,,,,,,,,,,,,,,,,,,,,,,,,,,,,,,,,,,,,,,,,
,,,,,V3_023,22,Female,2024-10-17_17h59.40.853,jersey_experiment_5_v3,2023.2.2,Win32,84.74576271,,,,,,,,,,,,,,,,547.3463,548.899,548.8991,550.2284,return,0.6745,,74.86979167,,,,,,FBP-RB-71.png,0.43,1.2,49,0.75,0,45,45,48,1,,,,,,,,,,,,,,,,,,,,,,,,,,,,,,,,,,,,,,,,
,,,,,V3_023,22,Female,2024-10-17_17h59.40.853,jersey_experiment_5_v3,2023.2.2,Win32,84.74576271,,,,,,,,,,,,,,,,550.2287,551.7815,551.7816,553.205,return,0.6619,,76.43229167,,,,,,FBP-PT-71.png,0.45,1.2,20,0.75,0,46,46,19,1,,,,,,,,,,,,,,,,,,,,,,,,,,,,,,,,,,,,,,,,
,,,,,V3_023,22,Female,2024-10-17_17h59.40.853,jersey_experiment_5_v3,2023.2.2,Win32,84.74576271,,,,,,,,,,,,,,,,553.2052,554.758,554.758,556.2758,return,0.7223,,52.47395833,,,,,,FBP-PT-81.png,0.35,1.2,21,0.75,0,47,47,20,1,,,,,,,,,,,,,,,,,,,,,,,,,,,,,,,,,,,,,,,,
,,,,,V3_023,22,Female,2024-10-17_17h59.40.853,jersey_experiment_5_v3,2023.2.2,Win32,84.74576271,,,,,,,,,,,,,,,,556.276,557.8288,557.8288,559.1934,return,0.6982,,50,,,,,,FBP-PT-81.png,0.37,1.2,22,0.75,0,48,48,21,1,,,,,,,,,,,,,,,,,,,,,,,,,,,,,,,,,,,,,,,,
,,,,,V3_023,22,Female,2024-10-17_17h59.40.853,jersey_experiment_5_v3,2023.2.2,Win32,84.74576271,,,,,,,,,,,,,,,,559.1936,560.7348,560.7349,563.876,return,2.4027,,45.703125,,,,,,FBP-PT-71.png,0.35,1.2,16,0.75,0,49,49,15,1,,,,,,,,,,,,,,,,,,,,,,,,,,,,,,,,,,,,,,,,
,,,,,V3_023,22,Female,2024-10-17_17h59.40.853,jersey_experiment_5_v3,2023.2.2,Win32,84.74576271,,,,,,,,,,,,,,,,563.8764,565.429,565.4291,567.9937,return,1.6394,,65.625,,,,,,FBP-YG-18.png,0.43,1.2,9,0.75,0,50,50,8,1,,,,,,,,,,,,,,,,,,,,,,,,,,,,,,,,,,,,,,,,
,,,,,V3_023,22,Female,2024-10-17_17h59.40.853,jersey_experiment_5_v3,2023.2.2,Win32,84.74576271,,,,,,,,,,,,,,,,567.9938,569.5467,569.5468,570.7704,return,0.5905,,74.34895833,,,,,,FBP-PT-71.png,0.43,1.2,19,0.75,0,51,51,18,1,,,,,,,,,,,,,,,,,,,,,,,,,,,,,,,,,,,,,,,,
,,,,,V3_023,22,Female,2024-10-17_17h59.40.853,jersey_experiment_5_v3,2023.2.2,Win32,84.74576271,,,,,,,,,,,,,,,,570.7707,572.3233,572.3234,575.0176,return,1.4668,,68.09895833,,,,,,FBP-RB-91.png,0.43,1.2,59,0.75,0,52,52,58,1,,,,,,,,,,,,,,,,,,,,,,,,,,,,,,,,,,,,,,,,
,,,,,V3_023,22,Female,2024-10-17_17h59.40.853,jersey_experiment_5_v3,2023.2.2,Win32,84.74576271,,,,,,,,,,,,,,,,575.0179,576.5706,576.5706,578.5118,return,0.6423,,41.66666667,,,,,,FBP-PT-91.png,0.35,1.2,26,0.75,0,53,53,25,1,,,,,,,,,,,,,,,,,,,,,,,,,,,,,,,,,,,,,,,,
,,,,,V3_023,22,Female,2024-10-17_17h59.40.853,jersey_experiment_5_v3,2023.2.2,Win32,84.74576271,,,,,,,,,,,,,,,,578.5121,579.8059,579.806,581.6885,return,0.6952,,75,,,,,,FBP-OG-91.png,0.45,1.2,45,0.5,0,54,54,44,1,,,,,,,,,,,,,,,,,,,,,,,,,,,,,,,,,,,,,,,,
,,,,,V3_023,22,Female,2024-10-17_17h59.40.853,jersey_experiment_5_v3,2023.2.2,Win32,84.74576271,,,,,,,,,,,,,,,,581.6888,583.2415,583.2415,585.0768,return,0.6751,,64.84375,,,,,,FBP-YG-19.png,0.4,1.2,13,0.75,0,55,55,12,1,,,,,,,,,,,,,,,,,,,,,,,,,,,,,,,,,,,,,,,,
,,,,,V3_023,22,Female,2024-10-17_17h59.40.853,jersey_experiment_5_v3,2023.2.2,Win32,84.74576271,,,,,,,,,,,,,,,,585.077,586.371,586.371,587.9711,return,0.6129,,55.46875,,,,,,FBP-OG-81.png,0.4,1.2,38,0.5,0,56,56,37,1,,,,,,,,,,,,,,,,,,,,,,,,,,,,,,,,,,,,,,,,
,,,,,V3_023,22,Female,2024-10-17_17h59.40.853,jersey_experiment_5_v3,2023.2.2,Win32,84.74576271,,,,,,,,,,,,,,,,587.9713,589.5241,589.5241,591.1123,return,0.6353,,74.21875,,,,,,FBP-RB-71.png,0.45,1.2,50,0.75,0,57,57,49,1,,,,,,,,,,,,,,,,,,,,,,,,,,,,,,,,,,,,,,,,
,,,,,V3_023,22,Female,2024-10-17_17h59.40.853,jersey_experiment_5_v3,2023.2.2,Win32,84.74576271,,,,,,,,,,,,,,,,591.1127,592.6653,592.6653,594.2889,return,0.6661,,38.02083333,,,,,,FBP-YG-19.png,0.35,1.2,11,0.75,0,58,58,10,1,,,,,,,,,,,,,,,,,,,,,,,,,,,,,,,,,,,,,,,,
,,,,,V3_023,22,Female,2024-10-17_17h59.40.853,jersey_experiment_5_v3,2023.2.2,Win32,84.74576271,,,,,,,,,,,,,,,,594.2892,595.8418,595.8419,597.5714,return,0.7562,,64.0625,,,,,,FBP-RB-91.png,0.4,1.2,58,0.75,0,59,59,57,1,,,,,,,,,,,,,,,,,,,,,,,,,,,,,,,,,,,,,,,,
,,,,,V3_023,22,Female,2024-10-17_17h59.40.853,jersey_experiment_5_v3,2023.2.2,Win32,84.74576271,,,,,,,,,,,,,,,,,,,,,,,,,,,,,,,,,,,,,,,597.5716,717.5641,,,,,,,,,,,,,,,,,,,,,,,,,,,,,,,,,,,,,,
,,,,,V3_023,22,Female,2024-10-17_17h59.40.853,jersey_experiment_5_v3,2023.2.2,Win32,84.74576271,,,,,,,,,,,,,,,,,,,,,,,,,,,,,,,,,,,,,,,,,717.5643,723.482,return,5.9042,,,,,,,,,,,,,,,,,,,,,,,,,,,,,,,,,,
,,,,,V3_023,22,Female,2024-10-17_17h59.40.853,jersey_experiment_5_v3,2023.2.2,Win32,84.74576271,,,,,,,,,,,,,,,,723.4832,724.7762,724.7762,729.4232,return,2.5823,,38.15104167,,,,,,FBP-RB-18.png,0.4,1.2,53,0.5,,,,,,,,,,,,,0,0,0,52,1,,,,,,,,,,,,,,,,,,,,,,,,,,,,
,,,,,V3_023,22,Female,2024-10-17_17h59.40.853,jersey_experiment_5_v3,2023.2.2,Win32,84.74576271,,,,,,,,,,,,,,,,729.4234,730.7174,730.7175,733.4942,return,1.767,,38.93229167,,,,,,FBP-RB-19.png,0.4,1.2,58,0.5,,,,,,,,,,,,,0,1,1,57,1,,,,,,,,,,,,,,,,,,,,,,,,,,,,
,,,,,V3_023,22,Female,2024-10-17_17h59.40.853,jersey_experiment_5_v3,2023.2.2,Win32,84.74576271,,,,,,,,,,,,,,,,733.4944,734.7883,734.7884,736.6237,return,0.3382,,36.328125,,,,,,FBP-YG-71.png,0.4,1.2,3,0.5,,,,,,,,,,,,,0,2,2,2,1,,,,,,,,,,,,,,,,,,,,,,,,,,,,
,,,,,V3_023,22,Female,2024-10-17_17h59.40.853,jersey_experiment_5_v3,2023.2.2,Win32,84.74576271,,,,,,,,,,,,,,,,736.6238,737.9177,737.9177,739.1531,return,0.2638,,61.06770833,,,,,,FBP-YG-71.png,0.43,1.2,4,0.5,,,,,,,,,,,,,0,3,3,3,1,,,,,,,,,,,,,,,,,,,,,,,,,,,,
,,,,,V3_023,22,Female,2024-10-17_17h59.40.853,jersey_experiment_5_v3,2023.2.2,Win32,84.74576271,,,,,,,,,,,,,,,,739.1533,740.7062,740.7062,741.9768,return,0.1645,,67.70833333,,,,,,FBP-OG-19.png,0.4,1.2,43,0.75,,,,,,,,,,,,,0,4,4,42,1,,,,,,,,,,,,,,,,,,,,,,,,,,,,
,,,,,V3_023,22,Female,2024-10-17_17h59.40.853,jersey_experiment_5_v3,2023.2.2,Win32,84.74576271,,,,,,,,,,,,,,,,741.9771,743.2709,743.2709,744.9533,return,0.4346,,43.359375,,,,,,FBP-YG-81.png,0.35,1.2,6,0.5,,,,,,,,,,,,,0,5,5,5,1,,,,,,,,,,,,,,,,,,,,,,,,,,,,
,,,,,V3_023,22,Female,2024-10-17_17h59.40.853,jersey_experiment_5_v3,2023.2.2,Win32,84.74576271,,,,,,,,,,,,,,,,744.9535,746.4949,746.4949,747.6357,return,0.2471,,75.91145833,,,,,,FBP-OG-19.png,0.45,1.2,45,0.75,,,,,,,,,,,,,0,6,6,44,1,,,,,,,,,,,,,,,,,,,,,,,,,,,,
,,,,,V3_023,22,Female,2024-10-17_17h59.40.853,jersey_experiment_5_v3,2023.2.2,Win32,84.74576271,,,,,,,,,,,,,,,,747.636,748.9299,748.93,750.2594,return,0.4633,,66.40625,,,,,,FBP-RB-17.png,0.4,1.2,48,0.5,,,,,,,,,,,,,0,7,7,47,1,,,,,,,,,,,,,,,,,,,,,,,,,,,,
,,,,,V3_023,22,Female,2024-10-17_17h59.40.853,jersey_experiment_5_v3,2023.2.2,Win32,84.74576271,,,,,,,,,,,,,,,,750.2596,751.5536,751.5536,752.8712,return,0.3532,,77.99479167,,,,,,FBP-RB-17.png,0.45,1.2,50,0.5,,,,,,,,,,,,,0,8,8,49,1,,,,,,,,,,,,,,,,,,,,,,,,,,,,
,,,,,V3_023,22,Female,2024-10-17_17h59.40.853,jersey_experiment_5_v3,2023.2.2,Win32,84.74576271,,,,,,,,,,,,,,,,752.8714,754.1654,754.1655,755.2243,return,0.1647,,79.296875,,,,,,FBP-RB-18.png,0.43,1.2,54,0.5,,,,,,,,,,,,,0,9,9,53,1,,,,,,,,,,,,,,,,,,,,,,,,,,,,
,,,,,V3_023,22,Female,2024-10-17_17h59.40.853,jersey_experiment_5_v3,2023.2.2,Win32,84.74576271,,,,,,,,,,,,,,,,755.2246,756.7773,756.7773,757.942,return,0.222,,82.68229167,,,,,,FBP-OG-18.png,0.43,1.2,39,0.75,,,,,,,,,,,,,0,10,10,38,1,,,,,,,,,,,,,,,,,,,,,,,,,,,,
,,,,,V3_023,22,Female,2024-10-17_17h59.40.853,jersey_experiment_5_v3,2023.2.2,Win32,84.74576271,,,,,,,,,,,,,,,,757.9421,759.2362,759.2362,760.2597,return,0.1919,,86.45833333,,,,,,FBP-YG-81.png,0.45,1.2,10,0.5,,,,,,,,,,,,,0,11,11,9,1,,,,,,,,,,,,,,,,,,,,,,,,,,,,
,,,,,V3_023,22,Female,2024-10-17_17h59.40.853,jersey_experiment_5_v3,2023.2.2,Win32,84.74576271,,,,,,,,,,,,,,,,760.2599,761.5539,761.554,762.7775,return,0.2124,,78.25520833,,,,,,FBP-PT-18.png,0.4,1.2,23,0.5,,,,,,,,,,,,,0,12,12,22,1,,,,,,,,,,,,,,,,,,,,,,,,,,,,
,,,,,V3_023,22,Female,2024-10-17_17h59.40.853,jersey_experiment_5_v3,2023.2.2,Win32,84.74576271,,,,,,,,,,,,,,,,762.7777,764.0717,764.0717,765.6952,return,0.1955,,54.03645833,,,,,,FBP-PT-19.png,0.35,1.2,26,0.5,,,,,,,,,,,,,0,13,13,25,1,,,,,,,,,,,,,,,,,,,,,,,,,,,,
,,,,,V3_023,22,Female,2024-10-17_17h59.40.853,jersey_experiment_5_v3,2023.2.2,Win32,84.74576271,,,,,,,,,,,,,,,,765.6954,767.2482,767.2483,768.9309,return,0.1705,,65.49479167,,,,,,FBP-OG-18.png,0.4,1.2,38,0.75,,,,,,,,,,,,,0,14,14,37,1,,,,,,,,,,,,,,,,,,,,,,,,,,,,
,,,,,V3_023,22,Female,2024-10-17_17h59.40.853,jersey_experiment_5_v3,2023.2.2,Win32,84.74576271,,,,,,,,,,,,,,,,768.9311,770.2248,770.2248,771.8602,return,0.212,,57.421875,,,,,,FBP-RB-17.png,0.35,1.2,46,0.5,,,,,,,,,,,,,0,15,15,45,1,,,,,,,,,,,,,,,,,,,,,,,,,,,,
,,,,,V3_023,22,Female,2024-10-17_17h59.40.853,jersey_experiment_5_v3,2023.2.2,Win32,84.74576271,,,,,,,,,,,,,,,,771.8605,773.4131,773.4131,774.9191,return,0.2259,,43.09895833,,,,,,FBP-OG-18.png,0.35,1.2,36,0.75,,,,,,,,,,,,,0,16,16,35,1,,,,,,,,,,,,,,,,,,,,,,,,,,,,
,,,,,V3_023,22,Female,2024-10-17_17h59.40.853,jersey_experiment_5_v3,2023.2.2,Win32,84.74576271,,,,,,,,,,,,,,,,774.9194,776.2133,776.2134,777.4486,return,0.2588,,75.91145833,,,,,,FBP-PT-18.png,0.45,1.2,25,0.5,,,,,,,,,,,,,0,17,17,24,1,,,,,,,,,,,,,,,,,,,,,,,,,,,,
,,,,,V3_023,22,Female,2024-10-17_17h59.40.853,jersey_experiment_5_v3,2023.2.2,Win32,84.74576271,,,,,,,,,,,,,,,,777.4488,779.0016,779.0017,781.0252,return,1.1941,,70.57291667,,,,,,FBP-OG-17.png,0.4,1.2,33,0.75,,,,,,,,,,,,,0,18,18,32,1,,,,,,,,,,,,,,,,,,,,,,,,,,,,
,,,,,V3_023,22,Female,2024-10-17_17h59.40.853,jersey_experiment_5_v3,2023.2.2,Win32,84.74576271,,,,,,,,,,,,,,,,781.0254,782.3194,782.3194,783.4255,return,0.2526,,45.83333333,,,,,,FBP-PT-18.png,0.35,1.2,21,0.5,,,,,,,,,,,,,0,19,19,20,1,,,,,,,,,,,,,,,,,,,,,,,,,,,,
,,,,,V3_023,22,Female,2024-10-17_17h59.40.853,jersey_experiment_5_v3,2023.2.2,Win32,84.74576271,,,,,,,,,,,,,,,,783.4257,784.7194,784.7195,785.8609,return,0.2117,,39.0625,,,,,,FBP-YG-71.png,0.35,1.2,1,0.5,,,,,,,,,,,,,0,20,20,0,1,,,,,,,,,,,,,,,,,,,,,,,,,,,,
,,,,,V3_023,22,Female,2024-10-17_17h59.40.853,jersey_experiment_5_v3,2023.2.2,Win32,84.74576271,,,,,,,,,,,,,,,,785.8611,787.1547,787.1547,789.1196,return,0.1811,,45.96354167,,,,,,FBP-RB-17.png,0.37,1.2,47,0.5,,,,,,,,,,,,,0,21,21,46,1,,,,,,,,,,,,,,,,,,,,,,,,,,,,
,,,,,V3_023,22,Female,2024-10-17_17h59.40.853,jersey_experiment_5_v3,2023.2.2,Win32,84.74576271,,,,,,,,,,,,,,,,789.1198,790.4137,790.4137,791.4139,return,0.1866,,74.609375,,,,,,FBP-YG-91.png,0.43,1.2,14,0.5,,,,,,,,,,,,,0,22,22,13,1,,,,,,,,,,,,,,,,,,,,,,,,,,,,
,,,,,V3_023,22,Female,2024-10-17_17h59.40.853,jersey_experiment_5_v3,2023.2.2,Win32,84.74576271,,,,,,,,,,,,,,,,791.4141,792.9669,792.9669,793.9788,return,0.1919,,55.59895833,,,,,,FBP-OG-19.png,0.37,1.2,42,0.75,,,,,,,,,,,,,0,23,23,41,1,,,,,,,,,,,,,,,,,,,,,,,,,,,,
,,,,,V3_023,22,Female,2024-10-17_17h59.40.853,jersey_experiment_5_v3,2023.2.2,Win32,84.74576271,,,,,,,,,,,,,,,,793.9791,795.2727,795.2728,796.5316,return,0.2259,,71.22395833,,,,,,FBP-PT-17.png,0.4,1.2,18,0.5,,,,,,,,,,,,,0,24,24,17,1,,,,,,,,,,,,,,,,,,,,,,,,,,,,
,,,,,V3_023,22,Female,2024-10-17_17h59.40.853,jersey_experiment_5_v3,2023.2.2,Win32,84.74576271,,,,,,,,,,,,,,,,796.5319,797.8258,797.8259,799.0614,return,0.2274,,66.40625,,,,,,FBP-RB-19.png,0.37,1.2,57,0.5,,,,,,,,,,,,,0,25,25,56,1,,,,,,,,,,,,,,,,,,,,,,,,,,,,
,,,,,V3_023,22,Female,2024-10-17_17h59.40.853,jersey_experiment_5_v3,2023.2.2,Win32,84.74576271,,,,,,,,,,,,,,,,799.0617,800.6145,800.6146,801.5554,return,0.2046,,83.33333333,,,,,,FBP-OG-18.png,0.45,1.2,40,0.75,,,,,,,,,,,,,0,26,26,39,1,,,,,,,,,,,,,,,,,,,,,,,,,,,,
,,,,,V3_023,22,Female,2024-10-17_17h59.40.853,jersey_experiment_5_v3,2023.2.2,Win32,84.74576271,,,,,,,,,,,,,,,,801.5556,802.8496,802.8496,804.0262,return,0.1811,,67.83854167,,,,,,FBP-PT-19.png,0.4,1.2,28,0.5,,,,,,,,,,,,,0,27,27,27,1,,,,,,,,,,,,,,,,,,,,,,,,,,,,
,,,,,V3_023,22,Female,2024-10-17_17h59.40.853,jersey_experiment_5_v3,2023.2.2,Win32,84.74576271,,,,,,,,,,,,,,,,804.0265,805.3202,805.3203,806.485,return,0.1543,,83.59375,,,,,,FBP-PT-19.png,0.45,1.2,30,0.5,,,,,,,,,,,,,0,28,28,29,1,,,,,,,,,,,,,,,,,,,,,,,,,,,,
,,,,,V3_023,22,Female,2024-10-17_17h59.40.853,jersey_experiment_5_v3,2023.2.2,Win32,84.74576271,,,,,,,,,,,,,,,,806.4853,807.779,807.7792,811.0735,return,0.1715,,55.078125,,,,,,FBP-RB-19.png,0.35,1.2,56,0.5,,,,,,,,,,,,,0,29,29,55,1,,,,,,,,,,,,,,,,,,,,,,,,,,,,
,,,,,V3_023,22,Female,2024-10-17_17h59.40.853,jersey_experiment_5_v3,2023.2.2,Win32,84.74576271,,,,,,,,,,,,,,,,811.0739,812.3676,812.3677,813.603,return,0.1449,,57.8125,,,,,,FBP-RB-18.png,0.37,1.2,52,0.5,,,,,,,,,,,,,0,30,30,51,1,,,,,,,,,,,,,,,,,,,,,,,,,,,,
,,,,,V3_023,22,Female,2024-10-17_17h59.40.853,jersey_experiment_5_v3,2023.2.2,Win32,84.74576271,,,,,,,,,,,,,,,,813.6033,814.8971,814.8971,816.3089,return,0.1803,,47.39583333,,,,,,FBP-YG-91.png,0.37,1.2,12,0.5,,,,,,,,,,,,,0,31,31,11,1,,,,,,,,,,,,,,,,,,,,,,,,,,,,
,,,,,V3_023,22,Female,2024-10-17_17h59.40.853,jersey_experiment_5_v3,2023.2.2,Win32,84.74576271,,,,,,,,,,,,,,,,816.3091,817.603,817.6031,818.8855,return,0.1204,,45.18229167,,,,,,FBP-PT-18.png,0.37,1.2,22,0.5,,,,,,,,,,,,,0,32,32,21,1,,,,,,,,,,,,,,,,,,,,,,,,,,,,
,,,,,V3_023,22,Female,2024-10-17_17h59.40.853,jersey_experiment_5_v3,2023.2.2,Win32,84.74576271,,,,,,,,,,,,,,,,818.8858,820.1796,820.1796,821.3681,return,0.2349,,38.671875,,,,,,FBP-RB-18.png,0.35,1.2,51,0.5,,,,,,,,,,,,,0,33,33,50,1,,,,,,,,,,,,,,,,,,,,,,,,,,,,
,,,,,V3_023,22,Female,2024-10-17_17h59.40.853,jersey_experiment_5_v3,2023.2.2,Win32,84.74576271,,,,,,,,,,,,,,,,821.3683,822.9208,822.9209,824.3093,return,0.1808,,53.38541667,,,,,,FBP-OG-17.png,0.37,1.2,32,0.75,,,,,,,,,,,,,0,34,34,31,1,,,,,,,,,,,,,,,,,,,,,,,,,,,,
,,,,,V3_023,22,Female,2024-10-17_17h59.40.853,jersey_experiment_5_v3,2023.2.2,Win32,84.74576271,,,,,,,,,,,,,,,,824.3095,825.6033,825.6034,826.9917,return,0.2089,,60.546875,,,,,,FBP-PT-19.png,0.37,1.2,27,0.5,,,,,,,,,,,,,0,35,35,26,1,,,,,,,,,,,,,,,,,,,,,,,,,,,,
,,,,,V3_023,22,Female,2024-10-17_17h59.40.853,jersey_experiment_5_v3,2023.2.2,Win32,84.74576271,,,,,,,,,,,,,,,,826.9919,828.2859,828.286,829.4271,return,0.1466,,83.59375,,,,,,FBP-YG-91.png,0.45,1.2,15,0.5,,,,,,,,,,,,,0,36,36,14,1,,,,,,,,,,,,,,,,,,,,,,,,,,,,
,,,,,V3_023,22,Female,2024-10-17_17h59.40.853,jersey_experiment_5_v3,2023.2.2,Win32,84.74576271,,,,,,,,,,,,,,,,829.4274,830.7212,830.7212,832.8154,return,0.489,,59.50520833,,,,,,FBP-YG-91.png,0.35,1.2,11,0.5,,,,,,,,,,,,,0,37,37,10,1,,,,,,,,,,,,,,,,,,,,,,,,,,,,
,,,,,V3_023,22,Female,2024-10-17_17h59.40.853,jersey_experiment_5_v3,2023.2.2,Win32,84.74576271,,,,,,,,,,,,,,,,832.8157,834.1095,834.1096,835.6509,return,0.7231,,63.15104167,,,,,,FBP-YG-81.png,0.4,1.2,8,0.5,,,,,,,,,,,,,0,38,38,7,1,,,,,,,,,,,,,,,,,,,,,,,,,,,,
,,,,,V3_023,22,Female,2024-10-17_17h59.40.853,jersey_experiment_5_v3,2023.2.2,Win32,84.74576271,,,,,,,,,,,,,,,,835.6511,836.9448,836.9449,838.0863,return,0.1669,,77.60416667,,,,,,FBP-RB-19.png,0.43,1.2,59,0.5,,,,,,,,,,,,,0,39,39,58,1,,,,,,,,,,,,,,,,,,,,,,,,,,,,
,,,,,V3_023,22,Female,2024-10-17_17h59.40.853,jersey_experiment_5_v3,2023.2.2,Win32,84.74576271,,,,,,,,,,,,,,,,838.0865,839.3803,839.3804,840.5922,return,0.1376,,83.85416667,,,,,,FBP-PT-17.png,0.45,1.2,20,0.5,,,,,,,,,,,,,0,40,40,19,1,,,,,,,,,,,,,,,,,,,,,,,,,,,,
,,,,,V3_023,22,Female,2024-10-17_17h59.40.853,jersey_experiment_5_v3,2023.2.2,Win32,84.74576271,,,,,,,,,,,,,,,,840.5923,841.8863,841.8863,843.4159,return,0.1546,,57.68229167,,,,,,FBP-PT-17.png,0.37,1.2,17,0.5,,,,,,,,,,,,,0,41,41,16,1,,,,,,,,,,,,,,,,,,,,,,,,,,,,
,,,,,V3_023,22,Female,2024-10-17_17h59.40.853,jersey_experiment_5_v3,2023.2.2,Win32,84.74576271,,,,,,,,,,,,,,,,843.4162,844.71,844.71,846.3102,return,0.1316,,63.28125,,,,,,FBP-YG-71.png,0.37,1.2,2,0.5,,,,,,,,,,,,,0,42,42,1,1,,,,,,,,,,,,,,,,,,,,,,,,,,,,
,,,,,V3_023,22,Female,2024-10-17_17h59.40.853,jersey_experiment_5_v3,2023.2.2,Win32,84.74576271,,,,,,,,,,,,,,,,846.3105,847.6042,847.6042,848.7454,return,0.3611,,73.828125,,,,,,FBP-RB-17.png,0.43,1.2,49,0.5,,,,,,,,,,,,,0,43,43,48,1,,,,,,,,,,,,,,,,,,,,,,,,,,,,
,,,,,V3_023,22,Female,2024-10-17_17h59.40.853,jersey_experiment_5_v3,2023.2.2,Win32,84.74576271,,,,,,,,,,,,,,,,848.7456,850.0395,850.0396,851.3457,return,0.2873,,74.47916667,,,,,,FBP-YG-81.png,0.43,1.2,9,0.5,,,,,,,,,,,,,0,44,44,8,1,,,,,,,,,,,,,,,,,,,,,,,,,,,,
,,,,,V3_023,22,Female,2024-10-17_17h59.40.853,jersey_experiment_5_v3,2023.2.2,Win32,84.74576271,,,,,,,,,,,,,,,,851.3459,852.8985,852.8985,854.4515,return,0.1209,,79.81770833,,,,,,FBP-OG-17.png,0.45,1.2,35,0.75,,,,,,,,,,,,,0,45,45,34,1,,,,,,,,,,,,,,,,,,,,,,,,,,,,
,,,,,V3_023,22,Female,2024-10-17_17h59.40.853,jersey_experiment_5_v3,2023.2.2,Win32,84.74576271,,,,,,,,,,,,,,,,854.4518,856.0044,856.0044,857.0398,return,0.2086,,44.921875,,,,,,FBP-OG-17.png,0.35,1.2,31,0.75,,,,,,,,,,,,,0,46,46,30,1,,,,,,,,,,,,,,,,,,,,,,,,,,,,
,,,,,V3_023,22,Female,2024-10-17_17h59.40.853,jersey_experiment_5_v3,2023.2.2,Win32,84.74576271,,,,,,,,,,,,,,,,857.04,858.5928,858.5929,859.8637,return,0.2512,,43.75,,,,,,FBP-OG-18.png,0.37,1.2,37,0.75,,,,,,,,,,,,,0,47,47,36,1,,,,,,,,,,,,,,,,,,,,,,,,,,,,
,,,,,V3_023,22,Female,2024-10-17_17h59.40.853,jersey_experiment_5_v3,2023.2.2,Win32,84.74576271,,,,,,,,,,,,,,,,859.8639,861.1576,861.1576,862.2752,return,0.2713,,74.86979167,,,,,,FBP-RB-19.png,0.45,1.2,60,0.5,,,,,,,,,,,,,0,48,48,59,1,,,,,,,,,,,,,,,,,,,,,,,,,,,,
,,,,,V3_023,22,Female,2024-10-17_17h59.40.853,jersey_experiment_5_v3,2023.2.2,Win32,84.74576271,,,,,,,,,,,,,,,,862.2753,863.5695,863.5695,864.5695,return,0.177,,74.73958333,,,,,,FBP-PT-19.png,0.43,1.2,29,0.5,,,,,,,,,,,,,0,49,49,28,1,,,,,,,,,,,,,,,,,,,,,,,,,,,,
,,,,,V3_023,22,Female,2024-10-17_17h59.40.853,jersey_experiment_5_v3,2023.2.2,Win32,84.74576271,,,,,,,,,,,,,,,,864.5698,866.1226,866.1226,867.1225,return,0.1938,,78.77604167,,,,,,FBP-OG-17.png,0.43,1.2,34,0.75,,,,,,,,,,,,,0,50,50,33,1,,,,,,,,,,,,,,,,,,,,,,,,,,,,
,,,,,V3_023,22,Female,2024-10-17_17h59.40.853,jersey_experiment_5_v3,2023.2.2,Win32,84.74576271,,,,,,,,,,,,,,,,867.1227,868.4168,868.4168,869.8405,return,0.2182,,37.36979167,,,,,,FBP-PT-17.png,0.35,1.2,16,0.5,,,,,,,,,,,,,0,51,51,15,1,,,,,,,,,,,,,,,,,,,,,,,,,,,,
,,,,,V3_023,22,Female,2024-10-17_17h59.40.853,jersey_experiment_5_v3,2023.2.2,Win32,84.74576271,,,,,,,,,,,,,,,,869.8407,871.3933,871.3934,872.57,return,0.228,,30.59895833,,,,,,FBP-OG-19.png,0.35,1.2,41,0.75,,,,,,,,,,,,,0,52,52,40,1,,,,,,,,,,,,,,,,,,,,,,,,,,,,
,,,,,V3_023,22,Female,2024-10-17_17h59.40.853,jersey_experiment_5_v3,2023.2.2,Win32,84.74576271,,,,,,,,,,,,,,,,872.5702,873.8642,873.8642,875.5229,return,0.2485,,53.25520833,,,,,,FBP-YG-91.png,0.4,1.2,13,0.5,,,,,,,,,,,,,0,53,53,12,1,,,,,,,,,,,,,,,,,,,,,,,,,,,,
,,,,,V3_023,22,Female,2024-10-17_17h59.40.853,jersey_experiment_5_v3,2023.2.2,Win32,84.74576271,,,,,,,,,,,,,,,,875.5231,876.817,876.8171,878.1465,return,0.2057,,75.78125,,,,,,FBP-RB-18.png,0.45,1.2,55,0.5,,,,,,,,,,,,,0,54,54,54,1,,,,,,,,,,,,,,,,,,,,,,,,,,,,
,,,,,V3_023,22,Female,2024-10-17_17h59.40.853,jersey_experiment_5_v3,2023.2.2,Win32,84.74576271,,,,,,,,,,,,,,,,878.1468,879.4405,879.4405,880.6878,return,0.1481,,78.515625,,,,,,FBP-PT-18.png,0.43,1.2,24,0.5,,,,,,,,,,,,,0,55,55,23,1,,,,,,,,,,,,,,,,,,,,,,,,,,,,
,,,,,V3_023,22,Female,2024-10-17_17h59.40.853,jersey_experiment_5_v3,2023.2.2,Win32,84.74576271,,,,,,,,,,,,,,,,880.688,881.982,881.982,883.8291,return,0.1292,,46.22395833,,,,,,FBP-YG-81.png,0.37,1.2,7,0.5,,,,,,,,,,,,,0,56,56,6,1,,,,,,,,,,,,,,,,,,,,,,,,,,,,
,,,,,V3_023,22,Female,2024-10-17_17h59.40.853,jersey_experiment_5_v3,2023.2.2,Win32,84.74576271,,,,,,,,,,,,,,,,883.8294,885.3821,885.3821,886.3116,return,0.1414,,73.30729167,,,,,,FBP-OG-19.png,0.43,1.2,44,0.75,,,,,,,,,,,,,0,57,57,43,1,,,,,,,,,,,,,,,,,,,,,,,,,,,,
,,,,,V3_023,22,Female,2024-10-17_17h59.40.853,jersey_experiment_5_v3,2023.2.2,Win32,84.74576271,,,,,,,,,,,,,,,,886.3118,887.6055,887.6056,888.6293,return,0.1674,,75.13020833,,,,,,FBP-PT-17.png,0.43,1.2,19,0.5,,,,,,,,,,,,,0,58,58,18,1,,,,,,,,,,,,,,,,,,,,,,,,,,,,
,,,,,V3_023,22,Female,2024-10-17_17h59.40.853,jersey_experiment_5_v3,2023.2.2,Win32,84.74576271,,,,,,,,,,,,,,,,888.6294,889.9233,889.9233,891.2412,return,0.1729,,81.38020833,,,,,,FBP-YG-71.png,0.45,1.2,5,0.5,,,,,,,,,,,,,0,59,59,4,1,,,,,,,,,,,,,,,,,,,,,,,,,,,,
,,,,,V3_023,22,Female,2024-10-17_17h59.40.853,jersey_experiment_5_v3,2023.2.2,Win32,84.74576271,,,,,,,,,,,,,,,,891.2425,892.794,892.794,893.6647,return,0.1723,,84.765625,,,,,,FBP-OG-91.png,0.45,1.2,45,0.75,,,,,,,,,,,,,,,,,,0,0,0,44,1,,,,,,,,,,,,,,,,,,,,,,,
,,,,,V3_023,22,Female,2024-10-17_17h59.40.853,jersey_experiment_5_v3,2023.2.2,Win32,84.74576271,,,,,,,,,,,,,,,,893.6649,894.9588,894.9588,895.9944,return,0.2227,,85.41666667,,,,,,FBP-YG-17.png,0.45,1.2,5,0.5,,,,,,,,,,,,,,,,,,0,1,1,4,1,,,,,,,,,,,,,,,,,,,,,,,
,,,,,V3_023,22,Female,2024-10-17_17h59.40.853,jersey_experiment_5_v3,2023.2.2,Win32,84.74576271,,,,,,,,,,,,,,,,895.9946,897.2882,897.2883,898.806,return,0.2744,,84.50520833,,,,,,FBP-RB-91.png,0.43,1.2,59,0.5,,,,,,,,,,,,,,,,,,0,2,2,58,1,,,,,,,,,,,,,,,,,,,,,,,
,,,,,V3_023,22,Female,2024-10-17_17h59.40.853,jersey_experiment_5_v3,2023.2.2,Win32,84.74576271,,,,,,,,,,,,,,,,898.8063,900.3591,900.3591,901.7003,return,0.5332,,85.41666667,,,,,,FBP-OG-81.png,0.45,1.2,40,0.75,,,,,,,,,,,,,,,,,,0,3,3,39,1,,,,,,,,,,,,,,,,,,,,,,,
,,,,,V3_023,22,Female,2024-10-17_17h59.40.853,jersey_experiment_5_v3,2023.2.2,Win32,84.74576271,,,,,,,,,,,,,,,,901.7005,902.9945,902.9945,903.971,return,0.2404,,86.06770833,,,,,,FBP-RB-81.png,0.45,1.2,55,0.5,,,,,,,,,,,,,,,,,,0,4,4,54,1,,,,,,,,,,,,,,,,,,,,,,,
,,,,,V3_023,22,Female,2024-10-17_17h59.40.853,jersey_experiment_5_v3,2023.2.2,Win32,84.74576271,,,,,,,,,,,,,,,,903.9712,905.2651,905.2651,906.5005,return,0.2126,,68.48958333,,,,,,FBP-PT-71.png,0.4,1.2,18,0.5,,,,,,,,,,,,,,,,,,0,5,5,17,1,,,,,,,,,,,,,,,,,,,,,,,
,,,,,V3_023,22,Female,2024-10-17_17h59.40.853,jersey_experiment_5_v3,2023.2.2,Win32,84.74576271,,,,,,,,,,,,,,,,906.5008,907.7946,907.7946,908.8183,return,0.1793,,44.66145833,,,,,,FBP-YG-19.png,0.37,1.2,12,0.5,,,,,,,,,,,,,,,,,,0,6,6,11,1,,,,,,,,,,,,,,,,,,,,,,,
,,,,,V3_023,22,Female,2024-10-17_17h59.40.853,jersey_experiment_5_v3,2023.2.2,Win32,84.74576271,,,,,,,,,,,,,,,,908.8185,910.1124,910.1124,911.3477,return,0.1919,,44.53125,,,,,,FBP-YG-18.png,0.37,1.2,7,0.5,,,,,,,,,,,,,,,,,,0,7,7,6,1,,,,,,,,,,,,,,,,,,,,,,,
,,,,,V3_023,22,Female,2024-10-17_17h59.40.853,jersey_experiment_5_v3,2023.2.2,Win32,84.74576271,,,,,,,,,,,,,,,,911.3479,912.6419,912.6419,913.8186,return,0.1776,,43.48958333,,,,,,FBP-PT-91.png,0.4,1.2,28,0.5,,,,,,,,,,,,,,,,,,0,8,8,27,1,,,,,,,,,,,,,,,,,,,,,,,
,,,,,V3_023,22,Female,2024-10-17_17h59.40.853,jersey_experiment_5_v3,2023.2.2,Win32,84.74576271,,,,,,,,,,,,,,,,913.8188,915.1125,915.1126,916.2774,return,0.2009,,42.31770833,,,,,,FBP-YG-18.png,0.4,1.2,8,0.5,,,,,,,,,,,,,,,,,,0,9,9,7,1,,,,,,,,,,,,,,,,,,,,,,,
,,,,,V3_023,22,Female,2024-10-17_17h59.40.853,jersey_experiment_5_v3,2023.2.2,Win32,84.74576271,,,,,,,,,,,,,,,,916.2776,917.8304,917.8305,919.0306,return,0.2372,,43.88020833,,,,,,FBP-OG-71.png,0.37,1.2,32,0.75,,,,,,,,,,,,,,,,,,0,10,10,31,1,,,,,,,,,,,,,,,,,,,,,,,
,,,,,V3_023,22,Female,2024-10-17_17h59.40.853,jersey_experiment_5_v3,2023.2.2,Win32,84.74576271,,,,,,,,,,,,,,,,919.0309,920.3245,920.3247,922.1011,return,0.2749,,53.25520833,,,,,,FBP-YG-19.png,0.4,1.2,13,0.5,,,,,,,,,,,,,,,,,,0,11,11,12,1,,,,,,,,,,,,,,,,,,,,,,,
,,,,,V3_023,22,Female,2024-10-17_17h59.40.853,jersey_experiment_5_v3,2023.2.2,Win32,84.74576271,,,,,,,,,,,,,,,,922.1014,923.3952,923.3953,925.607,return,0.3988,,28.515625,,,,,,FBP-RB-91.png,0.35,1.2,56,0.5,,,,,,,,,,,,,,,,,,0,12,12,55,1,,,,,,,,,,,,,,,,,,,,,,,
,,,,,V3_023,22,Female,2024-10-17_17h59.40.853,jersey_experiment_5_v3,2023.2.2,Win32,84.74576271,,,,,,,,,,,,,,,,925.6072,926.9013,926.9013,928.2662,return,0.0935,,27.34375,,,,,,FBP-YG-17.png,0.37,1.2,2,0.5,,,,,,,,,,,,,,,,,,0,13,13,1,1,,,,,,,,,,,,,,,,,,,,,,,
,,,,,V3_023,22,Female,2024-10-17_17h59.40.853,jersey_experiment_5_v3,2023.2.2,Win32,84.74576271,,,,,,,,,,,,,,,,928.2665,929.819,929.8191,930.9368,return,0.1996,,26.953125,,,,,,FBP-OG-91.png,0.37,1.2,42,0.75,,,,,,,,,,,,,,,,,,0,14,14,41,1,,,,,,,,,,,,,,,,,,,,,,,
,,,,,V3_023,22,Female,2024-10-17_17h59.40.853,jersey_experiment_5_v3,2023.2.2,Win32,84.74576271,,,,,,,,,,,,,,,,930.9369,932.2308,932.2308,935.8664,return,0.1868,,50.52083333,,,,,,FBP-RB-81.png,0.4,1.2,53,0.5,,,,,,,,,,,,,,,,,,0,15,15,52,1,,,,,,,,,,,,,,,,,,,,,,,
,,,,,V3_023,22,Female,2024-10-17_17h59.40.853,jersey_experiment_5_v3,2023.2.2,Win32,84.74576271,,,,,,,,,,,,,,,,935.8667,937.1603,937.1604,938.4547,return,0.1622,,41.53645833,,,,,,FBP-RB-81.png,0.37,1.2,52,0.5,,,,,,,,,,,,,,,,,,0,16,16,51,1,,,,,,,,,,,,,,,,,,,,,,,
,,,,,V3_023,22,Female,2024-10-17_17h59.40.853,jersey_experiment_5_v3,2023.2.2,Win32,84.74576271,,,,,,,,,,,,,,,,938.455,939.7488,939.7489,941.4311,return,0.1994,,57.16145833,,,,,,FBP-YG-17.png,0.4,1.2,3,0.5,,,,,,,,,,,,,,,,,,0,17,17,2,1,,,,,,,,,,,,,,,,,,,,,,,
,,,,,V3_023,22,Female,2024-10-17_17h59.40.853,jersey_experiment_5_v3,2023.2.2,Win32,84.74576271,,,,,,,,,,,,,,,,941.4314,942.9843,942.9843,944.3373,return,0.2305,,38.93229167,,,,,,FBP-OG-71.png,0.35,1.2,31,0.75,,,,,,,,,,,,,,,,,,0,18,18,30,1,,,,,,,,,,,,,,,,,,,,,,,
,,,,,V3_023,22,Female,2024-10-17_17h59.40.853,jersey_experiment_5_v3,2023.2.2,Win32,84.74576271,,,,,,,,,,,,,,,,944.3375,945.6313,945.6313,946.9844,return,0.2202,,79.42708333,,,,,,FBP-PT-91.png,0.45,1.2,30,0.5,,,,,,,,,,,,,,,,,,0,19,19,29,1,,,,,,,,,,,,,,,,,,,,,,,
,,,,,V3_023,22,Female,2024-10-17_17h59.40.853,jersey_experiment_5_v3,2023.2.2,Win32,84.74576271,,,,,,,,,,,,,,,,946.9846,948.2784,948.2784,949.7492,return,0.3076,,67.05729167,,,,,,FBP-PT-71.png,0.37,1.2,17,0.5,,,,,,,,,,,,,,,,,,0,20,20,16,1,,,,,,,,,,,,,,,,,,,,,,,
,,,,,V3_023,22,Female,2024-10-17_17h59.40.853,jersey_experiment_5_v3,2023.2.2,Win32,84.74576271,,,,,,,,,,,,,,,,949.7494,951.0433,951.0434,952.2788,return,0.1661,,75.52083333,,,,,,FBP-RB-71.png,0.43,1.2,49,0.5,,,,,,,,,,,,,,,,,,0,21,21,48,1,,,,,,,,,,,,,,,,,,,,,,,
,,,,,V3_023,22,Female,2024-10-17_17h59.40.853,jersey_experiment_5_v3,2023.2.2,Win32,84.74576271,,,,,,,,,,,,,,,,952.2791,953.5728,953.5728,954.9023,return,0.2623,,82.94270833,,,,,,FBP-PT-81.png,0.45,1.2,25,0.5,,,,,,,,,,,,,,,,,,0,22,22,24,1,,,,,,,,,,,,,,,,,,,,,,,
,,,,,V3_023,22,Female,2024-10-17_17h59.40.853,jersey_experiment_5_v3,2023.2.2,Win32,84.74576271,,,,,,,,,,,,,,,,954.9026,956.4552,956.4553,958.8201,return,0.1299,,74.73958333,,,,,,FBP-OG-71.png,0.4,1.2,33,0.75,,,,,,,,,,,,,,,,,,0,23,23,32,1,,,,,,,,,,,,,,,,,,,,,,,
,,,,,V3_023,22,Female,2024-10-17_17h59.40.853,jersey_experiment_5_v3,2023.2.2,Win32,84.74576271,,,,,,,,,,,,,,,,958.8203,960.373,960.3731,961.5379,return,0.1831,,83.46354167,,,,,,FBP-OG-81.png,0.43,1.2,39,0.75,,,,,,,,,,,,,,,,,,0,24,24,38,1,,,,,,,,,,,,,,,,,,,,,,,
,,,,,V3_023,22,Female,2024-10-17_17h59.40.853,jersey_experiment_5_v3,2023.2.2,Win32,84.74576271,,,,,,,,,,,,,,,,961.5381,962.832,962.832,964.0087,return,0.2114,,83.59375,,,,,,FBP-PT-81.png,0.43,1.2,24,0.5,,,,,,,,,,,,,,,,,,0,25,25,23,1,,,,,,,,,,,,,,,,,,,,,,,
,,,,,V3_023,22,Female,2024-10-17_17h59.40.853,jersey_experiment_5_v3,2023.2.2,Win32,84.74576271,,,,,,,,,,,,,,,,964.0089,965.5616,965.5616,966.6087,return,0.2522,,72.00520833,,,,,,FBP-OG-91.png,0.4,1.2,43,0.75,,,,,,,,,,,,,,,,,,0,26,26,42,1,,,,,,,,,,,,,,,,,,,,,,,
,,,,,V3_023,22,Female,2024-10-17_17h59.40.853,jersey_experiment_5_v3,2023.2.2,Win32,84.74576271,,,,,,,,,,,,,,,,966.6089,968.1616,968.1617,969.3381,return,0.2829,,69.140625,,,,,,FBP-OG-81.png,0.4,1.2,38,0.75,,,,,,,,,,,,,,,,,,0,27,27,37,1,,,,,,,,,,,,,,,,,,,,,,,
,,,,,V3_023,22,Female,2024-10-17_17h59.40.853,jersey_experiment_5_v3,2023.2.2,Win32,84.74576271,,,,,,,,,,,,,,,,969.3384,970.6322,970.6323,971.7854,return,0.1967,,71.484375,,,,,,FBP-PT-71.png,0.43,1.2,19,0.5,,,,,,,,,,,,,,,,,,0,28,28,18,1,,,,,,,,,,,,,,,,,,,,,,,
,,,,,V3_023,22,Female,2024-10-17_17h59.40.853,jersey_experiment_5_v3,2023.2.2,Win32,84.74576271,,,,,,,,,,,,,,,,971.7857,973.0794,973.0794,974.5149,return,0.2255,,81.640625,,,,,,FBP-RB-71.png,0.45,1.2,50,0.5,,,,,,,,,,,,,,,,,,0,29,29,49,1,,,,,,,,,,,,,,,,,,,,,,,
,,,,,V3_023,22,Female,2024-10-17_17h59.40.853,jersey_experiment_5_v3,2023.2.2,Win32,84.74576271,,,,,,,,,,,,,,,,974.5151,976.0677,976.0677,977.4089,return,0.2039,,81.38020833,,,,,,FBP-OG-71.png,0.45,1.2,35,0.75,,,,,,,,,,,,,,,,,,0,30,30,34,1,,,,,,,,,,,,,,,,,,,,,,,
,,,,,V3_023,22,Female,2024-10-17_17h59.40.853,jersey_experiment_5_v3,2023.2.2,Win32,84.74576271,,,,,,,,,,,,,,,,977.4092,978.7031,978.7031,979.9739,return,0.224,,83.07291667,,,,,,FBP-PT-91.png,0.43,1.2,29,0.5,,,,,,,,,,,,,,,,,,0,31,31,28,1,,,,,,,,,,,,,,,,,,,,,,,
,,,,,V3_023,22,Female,2024-10-17_17h59.40.853,jersey_experiment_5_v3,2023.2.2,Win32,84.74576271,,,,,,,,,,,,,,,,979.974,981.268,981.268,982.8093,return,0.3664,,83.07291667,,,,,,FBP-YG-18.png,0.43,1.2,9,0.5,,,,,,,,,,,,,,,,,,0,32,32,8,1,,,,,,,,,,,,,,,,,,,,,,,
,,,,,V3_023,22,Female,2024-10-17_17h59.40.853,jersey_experiment_5_v3,2023.2.2,Win32,84.74576271,,,,,,,,,,,,,,,,982.8095,984.1034,984.1034,985.7858,return,0.4942,,82.55208333,,,,,,FBP-YG-19.png,0.45,1.2,15,0.5,,,,,,,,,,,,,,,,,,0,33,33,14,1,,,,,,,,,,,,,,,,,,,,,,,
,,,,,V3_023,22,Female,2024-10-17_17h59.40.853,jersey_experiment_5_v3,2023.2.2,Win32,84.74576271,,,,,,,,,,,,,,,,985.7859,987.08,987.08,988.3624,return,0.2573,,46.484375,,,,,,FBP-PT-71.png,0.35,1.2,16,0.5,,,,,,,,,,,,,,,,,,0,34,34,15,1,,,,,,,,,,,,,,,,,,,,,,,
,,,,,V3_023,22,Female,2024-10-17_17h59.40.853,jersey_experiment_5_v3,2023.2.2,Win32,84.74576271,,,,,,,,,,,,,,,,988.3626,989.9154,989.9155,991.0331,return,0.2121,,40.10416667,,,,,,FBP-OG-91.png,0.35,1.2,41,0.75,,,,,,,,,,,,,,,,,,0,35,35,40,1,,,,,,,,,,,,,,,,,,,,,,,
,,,,,V3_023,22,Female,2024-10-17_17h59.40.853,jersey_experiment_5_v3,2023.2.2,Win32,84.74576271,,,,,,,,,,,,,,,,991.0333,992.3271,992.3272,993.7509,return,0.2849,,44.921875,,,,,,FBP-RB-81.png,0.35,1.2,51,0.5,,,,,,,,,,,,,,,,,,0,36,36,50,1,,,,,,,,,,,,,,,,,,,,,,,
,,,,,V3_023,22,Female,2024-10-17_17h59.40.853,jersey_experiment_5_v3,2023.2.2,Win32,84.74576271,,,,,,,,,,,,,,,,993.7511,995.045,995.045,996.5863,return,0.1283,,32.55208333,,,,,,FBP-PT-91.png,0.35,1.2,26,0.5,,,,,,,,,,,,,,,,,,0,37,37,25,1,,,,,,,,,,,,,,,,,,,,,,,
,,,,,V3_023,22,Female,2024-10-17_17h59.40.853,jersey_experiment_5_v3,2023.2.2,Win32,84.74576271,,,,,,,,,,,,,,,,996.5864,998.1394,998.1394,1000.0571,return,0.1566,,26.30208333,,,,,,FBP-OG-81.png,0.35,1.2,36,0.75,,,,,,,,,,,,,,,,,,0,38,38,35,1,,,,,,,,,,,,,,,,,,,,,,,
,,,,,V3_023,22,Female,2024-10-17_17h59.40.853,jersey_experiment_5_v3,2023.2.2,Win32,84.74576271,,,,,,,,,,,,,,,,1000.0574,1001.3509,1001.3509,1002.4102,return,0.1661,,30.859375,,,,,,FBP-PT-81.png,0.37,1.2,22,0.5,,,,,,,,,,,,,,,,,,0,39,39,21,1,,,,,,,,,,,,,,,,,,,,,,,
,,,,,V3_023,22,Female,2024-10-17_17h59.40.853,jersey_experiment_5_v3,2023.2.2,Win32,84.74576271,,,,,,,,,,,,,,,,1002.4104,1003.7042,1003.7042,1006.0807,return,1.2665,,73.69791667,,,,,,FBP-YG-17.png,0.43,1.2,4,0.5,,,,,,,,,,,,,,,,,,0,40,40,3,1,,,,,,,,,,,,,,,,,,,,,,,
,,,,,V3_023,22,Female,2024-10-17_17h59.40.853,jersey_experiment_5_v3,2023.2.2,Win32,84.74576271,,,,,,,,,,,,,,,,1006.081,1007.6336,1007.6336,1008.5278,return,0.1613,,74.73958333,,,,,,FBP-OG-71.png,0.43,1.2,34,0.75,,,,,,,,,,,,,,,,,,0,41,41,33,1,,,,,,,,,,,,,,,,,,,,,,,
,,,,,V3_023,22,Female,2024-10-17_17h59.40.853,jersey_experiment_5_v3,2023.2.2,Win32,84.74576271,,,,,,,,,,,,,,,,1008.5281,1009.822,1009.822,1011.8338,return,0.1419,,57.68229167,,,,,,FBP-RB-91.png,0.37,1.2,57,0.5,,,,,,,,,,,,,,,,,,0,42,42,56,1,,,,,,,,,,,,,,,,,,,,,,,
,,,,,V3_023,22,Female,2024-10-17_17h59.40.853,jersey_experiment_5_v3,2023.2.2,Win32,84.74576271,,,,,,,,,,,,,,,,1011.8342,1013.1279,1013.128,1014.281,return,0.1745,,53.25520833,,,,,,FBP-YG-18.png,0.35,1.2,6,0.5,,,,,,,,,,,,,,,,,,0,43,43,5,1,,,,,,,,,,,,,,,,,,,,,,,
,,,,,V3_023,22,Female,2024-10-17_17h59.40.853,jersey_experiment_5_v3,2023.2.2,Win32,84.74576271,,,,,,,,,,,,,,,,1014.2813,1015.575,1015.5751,1017.2223,return,0.1279,,60.80729167,,,,,,FBP-PT-91.png,0.37,1.2,27,0.5,,,,,,,,,,,,,,,,,,0,44,44,26,1,,,,,,,,,,,,,,,,,,,,,,,
,,,,,V3_023,22,Female,2024-10-17_17h59.40.853,jersey_experiment_5_v3,2023.2.2,Win32,84.74576271,,,,,,,,,,,,,,,,1017.2227,1018.5164,1018.5164,1019.7166,return,0.1762,,58.46354167,,,,,,FBP-PT-81.png,0.35,1.2,21,0.5,,,,,,,,,,,,,,,,,,0,45,45,20,1,,,,,,,,,,,,,,,,,,,,,,,
,,,,,V3_023,22,Female,2024-10-17_17h59.40.853,jersey_experiment_5_v3,2023.2.2,Win32,84.74576271,,,,,,,,,,,,,,,,1019.7168,1021.0106,1021.0106,1022.8577,return,0.3047,,55.98958333,,,,,,FBP-PT-81.png,0.4,1.2,23,0.5,,,,,,,,,,,,,,,,,,0,46,46,22,1,,,,,,,,,,,,,,,,,,,,,,,
,,,,,V3_023,22,Female,2024-10-17_17h59.40.853,jersey_experiment_5_v3,2023.2.2,Win32,84.74576271,,,,,,,,,,,,,,,,1022.8579,1024.1518,1024.1518,1025.7167,return,0.1554,,73.30729167,,,,,,FBP-RB-91.png,0.4,1.2,58,0.5,,,,,,,,,,,,,,,,,,0,47,47,57,1,,,,,,,,,,,,,,,,,,,,,,,
,,,,,V3_023,22,Female,2024-10-17_17h59.40.853,jersey_experiment_5_v3,2023.2.2,Win32,84.74576271,,,,,,,,,,,,,,,,1025.7169,1027.0108,1027.0109,1027.9874,return,0.1813,,71.74479167,,,,,,FBP-RB-71.png,0.4,1.2,48,0.5,,,,,,,,,,,,,,,,,,0,48,48,47,1,,,,,,,,,,,,,,,,,,,,,,,
,,,,,V3_023,22,Female,2024-10-17_17h59.40.853,jersey_experiment_5_v3,2023.2.2,Win32,84.74576271,,,,,,,,,,,,,,,,1027.9877,1029.5403,1029.5404,1030.7992,return,0.1976,,66.66666667,,,,,,FBP-OG-81.png,0.37,1.2,37,0.75,,,,,,,,,,,,,,,,,,0,49,49,36,1,,,,,,,,,,,,,,,,,,,,,,,
,,,,,V3_023,22,Female,2024-10-17_17h59.40.853,jersey_experiment_5_v3,2023.2.2,Win32,84.74576271,,,,,,,,,,,,,,,,1030.7995,1032.0933,1032.0934,1033.3054,return,0.1575,,84.24479167,,,,,,FBP-YG-19.png,0.43,1.2,14,0.5,,,,,,,,,,,,,,,,,,0,50,50,13,1,,,,,,,,,,,,,,,,,,,,,,,
,,,,,V3_023,22,Female,2024-10-17_17h59.40.853,jersey_experiment_5_v3,2023.2.2,Win32,84.74576271,,,,,,,,,,,,,,,,1033.3056,1034.5993,1034.5993,1035.9878,return,0.2279,,69.53125,,,,,,FBP-YG-19.png,0.35,1.2,11,0.5,,,,,,,,,,,,,,,,,,0,51,51,10,1,,,,,,,,,,,,,,,,,,,,,,,
,,,,,V3_023,22,Female,2024-10-17_17h59.40.853,jersey_experiment_5_v3,2023.2.2,Win32,84.74576271,,,,,,,,,,,,,,,,1035.988,1037.2818,1037.2819,1038.6233,return,0.2328,,63.41145833,,,,,,FBP-YG-17.png,0.35,1.2,1,0.5,,,,,,,,,,,,,,,,,,0,52,52,0,1,,,,,,,,,,,,,,,,,,,,,,,
,,,,,V3_023,22,Female,2024-10-17_17h59.40.853,jersey_experiment_5_v3,2023.2.2,Win32,84.74576271,,,,,,,,,,,,,,,,1038.6235,1039.9172,1039.9173,1041.2705,return,0.2453,,86.97916667,,,,,,FBP-YG-18.png,0.45,1.2,10,0.5,,,,,,,,,,,,,,,,,,0,53,53,9,1,,,,,,,,,,,,,,,,,,,,,,,
,,,,,V3_023,22,Female,2024-10-17_17h59.40.853,jersey_experiment_5_v3,2023.2.2,Win32,84.74576271,,,,,,,,,,,,,,,,1041.2708,1042.5643,1042.5643,1043.7291,return,0.1211,,63.80208333,,,,,,FBP-RB-71.png,0.35,1.2,46,0.5,,,,,,,,,,,,,,,,,,0,54,54,45,1,,,,,,,,,,,,,,,,,,,,,,,
,,,,,V3_023,22,Female,2024-10-17_17h59.40.853,jersey_experiment_5_v3,2023.2.2,Win32,84.74576271,,,,,,,,,,,,,,,,1043.7294,1045.0232,1045.0233,1046.6,return,0.1626,,89.84375,,,,,,FBP-PT-71.png,0.45,1.2,20,0.5,,,,,,,,,,,,,,,,,,0,55,55,19,1,,,,,,,,,,,,,,,,,,,,,,,
,,,,,V3_023,22,Female,2024-10-17_17h59.40.853,jersey_experiment_5_v3,2023.2.2,Win32,84.74576271,,,,,,,,,,,,,,,,1046.6003,1047.8939,1047.894,1049.1766,return,0.2592,,90.88541667,,,,,,FBP-RB-91.png,0.45,1.2,60,0.5,,,,,,,,,,,,,,,,,,0,56,56,59,1,,,,,,,,,,,,,,,,,,,,,,,
,,,,,V3_023,22,Female,2024-10-17_17h59.40.853,jersey_experiment_5_v3,2023.2.2,Win32,84.74576271,,,,,,,,,,,,,,,,1049.1769,1050.4704,1050.4705,1052.2235,return,0.1379,,62.36979167,,,,,,FBP-RB-71.png,0.37,1.2,47,0.5,,,,,,,,,,,,,,,,,,0,57,57,46,1,,,,,,,,,,,,,,,,,,,,,,,
,,,,,V3_023,22,Female,2024-10-17_17h59.40.853,jersey_experiment_5_v3,2023.2.2,Win32,84.74576271,,,,,,,,,,,,,,,,1052.2238,1053.5177,1053.5177,1054.7297,return,0.2124,,85.9375,,,,,,FBP-RB-81.png,0.43,1.2,54,0.5,,,,,,,,,,,,,,,,,,0,58,58,53,1,,,,,,,,,,,,,,,,,,,,,,,
,,,,,V3_023,22,Female,2024-10-17_17h59.40.853,jersey_experiment_5_v3,2023.2.2,Win32,84.74576271,,,,,,,,,,,,,,,,1054.73,1056.2826,1056.2826,1057.4237,return,0.2088,,91.27604167,,,,,,FBP-OG-91.png,0.43,1.2,44,0.75,,,,,,,,,,,,,,,,,,0,59,59,43,1,,,,,,,,,,,,,,,,,,,,,,,
,,,,,V3_023,22,Female,2024-10-17_17h59.40.853,jersey_experiment_5_v3,2023.2.2,Win32,84.74576271,,,,,,,,,,,,,,,,,,,,,,,,,,,,,,,,,,,,,,,,,,,,,,,,,,,,,,,,1057.4239,1064.3888,return,6.9561,,,,,,,,,,,,,,,,,,,
,,,,,V3_023,22,Female,2024-10-17_17h59.40.853,jersey_experiment_5_v3,2023.2.2,Win32,84.74576271,,,,,,,,,,,,,,,,,,,,,,,,,,,,,,,,,,,,,,,,,,,,,,,,,,,,,,,,,,,,,1064.389,1072.2126,1,6.3319,return,1.4716,,,,,,,,,,,,
,,,,,V3_023,22,Female,2024-10-17_17h59.40.853,jersey_experiment_5_v3,2023.2.2,Win32,84.74576271,,,,,,,,,,,,,,,,,,,,,,,,,,,,,,,,,,,,,,,,,,,,,,,,,,,,,,,,,,,,,,,,,,,,1072.2128,1081.9901,No,right,4.4841,,,,,,
,,,,,V3_023,22,Female,2024-10-17_17h59.40.853,jersey_experiment_5_v3,2023.2.2,Win32,84.74576271,,,,,,,,,,,,,,,,,,,,,,,,,,,,,,,,,,,,,,,,,,,,,,,,,,,,,,,,,,,,,,,,,,,,,,,,,,1081.9902,1085.9308,return,3.9268,