requirements.started,requirements.stopped,key_resp_3.keys,key_resp_3.rt,key_resp_3.duration,Subject ID,Age,Gender,date,expName,psychopyVersion,OS,frameRate,instructions1.started,instructions1.stopped,key_resp.keys,key_resp.rt,key_resp.duration,example.started,example.stopped,enter_2.keys,enter_2.rt,enter_2.duration,instructions2.started,instructions2.stopped,enter_3.keys,enter_3.rt,enter_3.duration,image.started,image.stopped,slider_2.started,slider_2.stopped,next.keys,next.rt,next.duration,slider.response,trial_block_1.thisRepN,trial_block_1.thisTrialN,trial_block_1.thisN,trial_block_1.thisIndex,trial_block_1.ran,Path,Width,Height,Index,Duration,trial_block_2.thisRepN,trial_block_2.thisTrialN,trial_block_2.thisN,trial_block_2.thisIndex,trial_block_2.ran,rest_break.started,rest_break.stopped,end_break.started,end_break.stopped,key_resp_5.keys,key_resp_5.rt,key_resp_5.duration,trial_block_3.thisRepN,trial_block_3.thisTrialN,trial_block_3.thisN,trial_block_3.thisIndex,trial_block_3.ran,trial_block_4.thisRepN,trial_block_4.thisTrialN,trial_block_4.thisN,trial_block_4.thisIndex,trial_block_4.ran,questions_intro.started,questions_intro.stopped,enter_12.keys,enter_12.rt,enter_12.duration,question2.started,question2.stopped,question_doingbest.response,question_doingbest.rt,enter_15.keys,enter_15.rt,enter_15.duration,pattern.started,pattern.stopped,pattern_2.text,enter_17.keys,enter_17.rt,enter_17.duration,thankyou.started,thankyou.stopped,enter_14.keys,enter_14.rt,enter_14.duration
0,10.8234,return,10.8158,,V3_030,21,Female,2024-10-21_16h18.15.789,jersey_experiment_5_v3,2023.2.2,Win32,84.74576271,,,,,,,,,,,,,,,,,,,,,,,,,,,,,,,,,,,,,,,,,,,,,,,,,,,,,,,,,,,,,,,,,,,,,,,,,,,,,,
,,,,,V3_030,21,Female,2024-10-21_16h18.15.789,jersey_experiment_5_v3,2023.2.2,Win32,84.74576271,10.8235,17.1884,return,6.3491,,,,,,,,,,,,,,,,,,,,,,,,,,,,,,,,,,,,,,,,,,,,,,,,,,,,,,,,,,,,,,,,,,,,,,,,,,
,,,,,V3_030,21,Female,2024-10-21_16h18.15.789,jersey_experiment_5_v3,2023.2.2,Win32,84.74576271,,,,,,17.1884,23.624,return,6.4009,,,,,,,,,,,,,,,,,,,,,,,,,,,,,,,,,,,,,,,,,,,,,,,,,,,,,,,,,,,,,,,,,,,,,
,,,,,V3_030,21,Female,2024-10-21_16h18.15.789,jersey_experiment_5_v3,2023.2.2,Win32,84.74576271,,,,,,,,,,,23.6241,45.2718,return,21.6378,,,,,,,,,,,,,,,,,,,,,,,,,,,,,,,,,,,,,,,,,,,,,,,,,,,,,,,,,,,,,,,,
,,,,,V3_030,21,Female,2024-10-21_16h18.15.789,jersey_experiment_5_v3,2023.2.2,Win32,84.74576271,,,,,,,,,,,,,,,,45.274,46.8247,46.8247,60.2135,return,7.8989,,74.47916667,0,0,0,7,1,FBP-YG-81.png,0.4,1.2,8,0.75,,,,,,,,,,,,,,,,,,,,,,,,,,,,,,,,,,,,,,,,,,,,,
,,,,,V3_030,21,Female,2024-10-21_16h18.15.789,jersey_experiment_5_v3,2023.2.2,Win32,84.74576271,,,,,,,,,,,,,,,,60.214,61.7664,61.7664,65.5665,return,1.6241,,83.203125,0,1,1,27,1,FBP-PT-19.png,0.4,1.2,28,0.75,,,,,,,,,,,,,,,,,,,,,,,,,,,,,,,,,,,,,,,,,,,,,
,,,,,V3_030,21,Female,2024-10-21_16h18.15.789,jersey_experiment_5_v3,2023.2.2,Win32,84.74576271,,,,,,,,,,,,,,,,65.5669,67.1198,67.1199,72.508,return,1.7343,,74.34895833,0,2,2,8,1,FBP-YG-81.png,0.43,1.2,9,0.75,,,,,,,,,,,,,,,,,,,,,,,,,,,,,,,,,,,,,,,,,,,,,
,,,,,V3_030,21,Female,2024-10-21_16h18.15.789,jersey_experiment_5_v3,2023.2.2,Win32,84.74576271,,,,,,,,,,,,,,,,72.5082,74.061,74.0611,81.8848,return,5.7178,,50.13020833,0,3,3,17,1,FBP-PT-17.png,0.4,1.2,18,0.75,,,,,,,,,,,,,,,,,,,,,,,,,,,,,,,,,,,,,,,,,,,,,
,,,,,V3_030,21,Female,2024-10-21_16h18.15.789,jersey_experiment_5_v3,2023.2.2,Win32,84.74576271,,,,,,,,,,,,,,,,81.8851,83.4378,83.4378,90.6969,return,4.2345,,99.47916667,0,4,4,58,1,FBP-RB-19.png,0.43,1.2,59,0.75,,,,,,,,,,,,,,,,,,,,,,,,,,,,,,,,,,,,,,,,,,,,,
,,,,,V3_030,21,Female,2024-10-21_16h18.15.789,jersey_experiment_5_v3,2023.2.2,Win32,84.74576271,,,,,,,,,,,,,,,,90.6971,91.991,91.9911,98.109,return,1.5433,,63.93229167,0,5,5,32,1,FBP-OG-17.png,0.4,1.2,33,0.5,,,,,,,,,,,,,,,,,,,,,,,,,,,,,,,,,,,,,,,,,,,,,
,,,,,V3_030,21,Female,2024-10-21_16h18.15.789,jersey_experiment_5_v3,2023.2.2,Win32,84.74576271,,,,,,,,,,,,,,,,98.1094,99.4031,99.4032,103.4505,return,1.9747,,29.42708333,0,6,6,31,1,FBP-OG-17.png,0.37,1.2,32,0.5,,,,,,,,,,,,,,,,,,,,,,,,,,,,,,,,,,,,,,,,,,,,,
,,,,,V3_030,21,Female,2024-10-21_16h18.15.789,jersey_experiment_5_v3,2023.2.2,Win32,84.74576271,,,,,,,,,,,,,,,,103.4508,104.7444,104.7444,110.9564,return,3.433,,26.04166667,0,7,7,36,1,FBP-OG-18.png,0.37,1.2,37,0.5,,,,,,,,,,,,,,,,,,,,,,,,,,,,,,,,,,,,,,,,,,,,,
,,,,,V3_030,21,Female,2024-10-21_16h18.15.789,jersey_experiment_5_v3,2023.2.2,Win32,84.74576271,,,,,,,,,,,,,,,,110.9568,112.5096,112.5096,115.3567,return,1.2374,,75,0,8,8,13,1,FBP-YG-91.png,0.43,1.2,14,0.75,,,,,,,,,,,,,,,,,,,,,,,,,,,,,,,,,,,,,,,,,,,,,
,,,,,V3_030,21,Female,2024-10-21_16h18.15.789,jersey_experiment_5_v3,2023.2.2,Win32,84.74576271,,,,,,,,,,,,,,,,115.357,116.9096,116.9097,121.4863,return,2.7607,,14.58333333,0,9,9,25,1,FBP-PT-19.png,0.35,1.2,26,0.75,,,,,,,,,,,,,,,,,,,,,,,,,,,,,,,,,,,,,,,,,,,,,
,,,,,V3_030,21,Female,2024-10-21_16h18.15.789,jersey_experiment_5_v3,2023.2.2,Win32,84.74576271,,,,,,,,,,,,,,,,121.4866,122.7805,122.7805,127.6041,return,2.1738,,99.21875,0,10,10,34,1,FBP-OG-17.png,0.45,1.2,35,0.5,,,,,,,,,,,,,,,,,,,,,,,,,,,,,,,,,,,,,,,,,,,,,
,,,,,V3_030,21,Female,2024-10-21_16h18.15.789,jersey_experiment_5_v3,2023.2.2,Win32,84.74576271,,,,,,,,,,,,,,,,127.6044,128.8985,128.8985,132.1574,return,1.0093,,10.67708333,0,11,11,40,1,FBP-OG-19.png,0.35,1.2,41,0.5,,,,,,,,,,,,,,,,,,,,,,,,,,,,,,,,,,,,,,,,,,,,,
,,,,,V3_030,21,Female,2024-10-21_16h18.15.789,jersey_experiment_5_v3,2023.2.2,Win32,84.74576271,,,,,,,,,,,,,,,,132.1577,133.7103,133.7104,136.4281,return,0.8821,,99.609375,0,12,12,14,1,FBP-YG-91.png,0.45,1.2,15,0.75,,,,,,,,,,,,,,,,,,,,,,,,,,,,,,,,,,,,,,,,,,,,,
,,,,,V3_030,21,Female,2024-10-21_16h18.15.789,jersey_experiment_5_v3,2023.2.2,Win32,84.74576271,,,,,,,,,,,,,,,,136.4283,137.981,137.9811,140.5223,return,1.0601,,98.95833333,0,13,13,28,1,FBP-PT-19.png,0.43,1.2,29,0.75,,,,,,,,,,,,,,,,,,,,,,,,,,,,,,,,,,,,,,,,,,,,,
,,,,,V3_030,21,Female,2024-10-21_16h18.15.789,jersey_experiment_5_v3,2023.2.2,Win32,84.74576271,,,,,,,,,,,,,,,,140.5226,142.0753,142.0753,145.4166,return,1.6857,,49.86979167,0,14,14,46,1,FBP-RB-17.png,0.37,1.2,47,0.75,,,,,,,,,,,,,,,,,,,,,,,,,,,,,,,,,,,,,,,,,,,,,
,,,,,V3_030,21,Female,2024-10-21_16h18.15.789,jersey_experiment_5_v3,2023.2.2,Win32,84.74576271,,,,,,,,,,,,,,,,145.4169,146.9696,146.9697,150.1815,return,1.6532,,65.10416667,0,15,15,53,1,FBP-RB-18.png,0.43,1.2,54,0.75,,,,,,,,,,,,,,,,,,,,,,,,,,,,,,,,,,,,,,,,,,,,,
,,,,,V3_030,21,Female,2024-10-21_16h18.15.789,jersey_experiment_5_v3,2023.2.2,Win32,84.74576271,,,,,,,,,,,,,,,,150.1818,151.7345,151.7345,154.0758,return,0.5033,,99.34895833,0,16,16,29,1,FBP-PT-19.png,0.45,1.2,30,0.75,,,,,,,,,,,,,,,,,,,,,,,,,,,,,,,,,,,,,,,,,,,,,
,,,,,V3_030,21,Female,2024-10-21_16h18.15.789,jersey_experiment_5_v3,2023.2.2,Win32,84.74576271,,,,,,,,,,,,,,,,154.076,155.3699,155.37,157.3229,return,0.3315,,75.52083333,0,17,17,38,1,FBP-OG-18.png,0.43,1.2,39,0.5,,,,,,,,,,,,,,,,,,,,,,,,,,,,,,,,,,,,,,,,,,,,,
,,,,,V3_030,21,Female,2024-10-21_16h18.15.789,jersey_experiment_5_v3,2023.2.2,Win32,84.74576271,,,,,,,,,,,,,,,,157.3232,158.8759,158.8759,162.0878,return,1.7581,,25.13020833,0,18,18,6,1,FBP-YG-81.png,0.37,1.2,7,0.75,,,,,,,,,,,,,,,,,,,,,,,,,,,,,,,,,,,,,,,,,,,,,
,,,,,V3_030,21,Female,2024-10-21_16h18.15.789,jersey_experiment_5_v3,2023.2.2,Win32,84.74576271,,,,,,,,,,,,,,,,162.0881,163.6408,163.6408,167.0292,return,1.1335,,24.73958333,0,19,19,16,1,FBP-PT-17.png,0.37,1.2,17,0.75,,,,,,,,,,,,,,,,,,,,,,,,,,,,,,,,,,,,,,,,,,,,,
,,,,,V3_030,21,Female,2024-10-21_16h18.15.789,jersey_experiment_5_v3,2023.2.2,Win32,84.74576271,,,,,,,,,,,,,,,,167.0295,168.582,168.582,171.6763,return,1.2475,,13.80208333,0,20,20,0,1,FBP-YG-71.png,0.35,1.2,1,0.75,,,,,,,,,,,,,,,,,,,,,,,,,,,,,,,,,,,,,,,,,,,,,
,,,,,V3_030,21,Female,2024-10-21_16h18.15.789,jersey_experiment_5_v3,2023.2.2,Win32,84.74576271,,,,,,,,,,,,,,,,171.6767,173.2294,173.2294,176.9354,return,1.8526,,24.86979167,0,21,21,1,1,FBP-YG-71.png,0.37,1.2,2,0.75,,,,,,,,,,,,,,,,,,,,,,,,,,,,,,,,,,,,,,,,,,,,,
,,,,,V3_030,21,Female,2024-10-21_16h18.15.789,jersey_experiment_5_v3,2023.2.2,Win32,84.74576271,,,,,,,,,,,,,,,,176.9358,178.4886,178.4886,181.7591,return,1.3327,,98.95833333,0,22,22,23,1,FBP-PT-18.png,0.43,1.2,24,0.75,,,,,,,,,,,,,,,,,,,,,,,,,,,,,,,,,,,,,,,,,,,,,
,,,,,V3_030,21,Female,2024-10-21_16h18.15.789,jersey_experiment_5_v3,2023.2.2,Win32,84.74576271,,,,,,,,,,,,,,,,181.7594,183.3121,183.3121,185.9123,return,0.9223,,0.260416667,0,23,23,5,1,FBP-YG-81.png,0.35,1.2,6,0.75,,,,,,,,,,,,,,,,,,,,,,,,,,,,,,,,,,,,,,,,,,,,,
,,,,,V3_030,21,Female,2024-10-21_16h18.15.789,jersey_experiment_5_v3,2023.2.2,Win32,84.74576271,,,,,,,,,,,,,,,,185.9126,187.4652,187.4653,190.5712,return,1.5544,,89.84375,0,24,24,59,1,FBP-RB-19.png,0.45,1.2,60,0.75,,,,,,,,,,,,,,,,,,,,,,,,,,,,,,,,,,,,,,,,,,,,,
,,,,,V3_030,21,Female,2024-10-21_16h18.15.789,jersey_experiment_5_v3,2023.2.2,Win32,84.74576271,,,,,,,,,,,,,,,,190.5714,192.1242,192.1242,194.1361,return,0.6754,,25,0,25,25,55,1,FBP-RB-19.png,0.35,1.2,56,0.75,,,,,,,,,,,,,,,,,,,,,,,,,,,,,,,,,,,,,,,,,,,,,
,,,,,V3_030,21,Female,2024-10-21_16h18.15.789,jersey_experiment_5_v3,2023.2.2,Win32,84.74576271,,,,,,,,,,,,,,,,194.1363,195.6892,195.6892,197.9597,return,1.0252,,50.26041667,0,26,26,52,1,FBP-RB-18.png,0.4,1.2,53,0.75,,,,,,,,,,,,,,,,,,,,,,,,,,,,,,,,,,,,,,,,,,,,,
,,,,,V3_030,21,Female,2024-10-21_16h18.15.789,jersey_experiment_5_v3,2023.2.2,Win32,84.74576271,,,,,,,,,,,,,,,,197.9602,199.2539,199.254,202.0423,return,1.3083,,24.86979167,0,27,27,35,1,FBP-OG-18.png,0.35,1.2,36,0.5,,,,,,,,,,,,,,,,,,,,,,,,,,,,,,,,,,,,,,,,,,,,,
,,,,,V3_030,21,Female,2024-10-21_16h18.15.789,jersey_experiment_5_v3,2023.2.2,Win32,84.74576271,,,,,,,,,,,,,,,,202.0426,203.3364,203.3364,207.0308,return,1.7686,,99.21875,0,28,28,44,1,FBP-OG-19.png,0.45,1.2,45,0.5,,,,,,,,,,,,,,,,,,,,,,,,,,,,,,,,,,,,,,,,,,,,,
,,,,,V3_030,21,Female,2024-10-21_16h18.15.789,jersey_experiment_5_v3,2023.2.2,Win32,84.74576271,,,,,,,,,,,,,,,,207.0309,208.5836,208.5837,210.3721,return,0.5949,,24.47916667,0,29,29,20,1,FBP-PT-18.png,0.35,1.2,21,0.75,,,,,,,,,,,,,,,,,,,,,,,,,,,,,,,,,,,,,,,,,,,,,
,,,,,V3_030,21,Female,2024-10-21_16h18.15.789,jersey_experiment_5_v3,2023.2.2,Win32,84.74576271,,,,,,,,,,,,,,,,210.3723,211.9251,211.9252,213.5486,return,0.8136,,38.28125,0,30,30,56,1,FBP-RB-19.png,0.37,1.2,57,0.75,,,,,,,,,,,,,,,,,,,,,,,,,,,,,,,,,,,,,,,,,,,,,
,,,,,V3_030,21,Female,2024-10-21_16h18.15.789,jersey_experiment_5_v3,2023.2.2,Win32,84.74576271,,,,,,,,,,,,,,,,213.5487,215.1018,215.1018,217.5134,return,1.2608,,37.5,0,31,31,51,1,FBP-RB-18.png,0.37,1.2,52,0.75,,,,,,,,,,,,,,,,,,,,,,,,,,,,,,,,,,,,,,,,,,,,,
,,,,,V3_030,21,Female,2024-10-21_16h18.15.789,jersey_experiment_5_v3,2023.2.2,Win32,84.74576271,,,,,,,,,,,,,,,,217.5138,218.8075,218.8076,221.8312,return,1.6173,,85.546875,0,32,32,39,1,FBP-OG-18.png,0.45,1.2,40,0.5,,,,,,,,,,,,,,,,,,,,,,,,,,,,,,,,,,,,,,,,,,,,,
,,,,,V3_030,21,Female,2024-10-21_16h18.15.789,jersey_experiment_5_v3,2023.2.2,Win32,84.74576271,,,,,,,,,,,,,,,,221.8313,223.3844,223.3845,226.7139,return,0.9311,,95.18229167,0,33,33,9,1,FBP-YG-81.png,0.45,1.2,10,0.75,,,,,,,,,,,,,,,,,,,,,,,,,,,,,,,,,,,,,,,,,,,,,
,,,,,V3_030,21,Female,2024-10-21_16h18.15.789,jersey_experiment_5_v3,2023.2.2,Win32,84.74576271,,,,,,,,,,,,,,,,226.714,228.2668,228.2668,231.3963,return,0.7378,,74.73958333,0,34,34,47,1,FBP-RB-17.png,0.4,1.2,48,0.75,,,,,,,,,,,,,,,,,,,,,,,,,,,,,,,,,,,,,,,,,,,,,
,,,,,V3_030,21,Female,2024-10-21_16h18.15.789,jersey_experiment_5_v3,2023.2.2,Win32,84.74576271,,,,,,,,,,,,,,,,231.3965,232.9493,232.9494,235.7376,return,1.4371,,82.421875,0,35,35,24,1,FBP-PT-18.png,0.45,1.2,25,0.75,,,,,,,,,,,,,,,,,,,,,,,,,,,,,,,,,,,,,,,,,,,,,
,,,,,V3_030,21,Female,2024-10-21_16h18.15.789,jersey_experiment_5_v3,2023.2.2,Win32,84.74576271,,,,,,,,,,,,,,,,235.7379,237.2907,237.2907,239.8672,return,1.2958,,99.86979167,0,36,36,49,1,FBP-RB-17.png,0.45,1.2,50,0.75,,,,,,,,,,,,,,,,,,,,,,,,,,,,,,,,,,,,,,,,,,,,,
,,,,,V3_030,21,Female,2024-10-21_16h18.15.789,jersey_experiment_5_v3,2023.2.2,Win32,84.74576271,,,,,,,,,,,,,,,,239.8675,241.4204,241.4204,245.5027,return,2.33,,70.96354167,0,37,37,48,1,FBP-RB-17.png,0.43,1.2,49,0.75,,,,,,,,,,,,,,,,,,,,,,,,,,,,,,,,,,,,,,,,,,,,,
,,,,,V3_030,21,Female,2024-10-21_16h18.15.789,jersey_experiment_5_v3,2023.2.2,Win32,84.74576271,,,,,,,,,,,,,,,,245.5029,247.0557,247.0558,250.5383,return,2.0155,,23.828125,0,38,38,12,1,FBP-YG-91.png,0.4,1.2,13,0.75,,,,,,,,,,,,,,,,,,,,,,,,,,,,,,,,,,,,,,,,,,,,,
,,,,,V3_030,21,Female,2024-10-21_16h18.15.789,jersey_experiment_5_v3,2023.2.2,Win32,84.74576271,,,,,,,,,,,,,,,,250.5386,251.8323,251.8323,254.4796,return,1.2233,,0.911458333,0,39,39,30,1,FBP-OG-17.png,0.35,1.2,31,0.5,,,,,,,,,,,,,,,,,,,,,,,,,,,,,,,,,,,,,,,,,,,,,
,,,,,V3_030,21,Female,2024-10-21_16h18.15.789,jersey_experiment_5_v3,2023.2.2,Win32,84.74576271,,,,,,,,,,,,,,,,254.4798,256.0211,256.0211,257.9502,return,0.7201,,1.041666667,0,40,40,15,1,FBP-PT-17.png,0.35,1.2,16,0.75,,,,,,,,,,,,,,,,,,,,,,,,,,,,,,,,,,,,,,,,,,,,,
,,,,,V3_030,21,Female,2024-10-21_16h18.15.789,jersey_experiment_5_v3,2023.2.2,Win32,84.74576271,,,,,,,,,,,,,,,,257.9505,259.5033,259.5033,262.0679,return,1.0558,,50.13020833,0,41,41,22,1,FBP-PT-18.png,0.4,1.2,23,0.75,,,,,,,,,,,,,,,,,,,,,,,,,,,,,,,,,,,,,,,,,,,,,
,,,,,V3_030,21,Female,2024-10-21_16h18.15.789,jersey_experiment_5_v3,2023.2.2,Win32,84.74576271,,,,,,,,,,,,,,,,262.0683,263.6211,263.6211,265.9622,return,0.732,,24.47916667,0,42,42,10,1,FBP-YG-91.png,0.35,1.2,11,0.75,,,,,,,,,,,,,,,,,,,,,,,,,,,,,,,,,,,,,,,,,,,,,
,,,,,V3_030,21,Female,2024-10-21_16h18.15.789,jersey_experiment_5_v3,2023.2.2,Win32,84.74576271,,,,,,,,,,,,,,,,265.9625,267.2564,267.2564,269.8801,return,1.2399,,74.609375,0,43,43,43,1,FBP-OG-19.png,0.43,1.2,44,0.5,,,,,,,,,,,,,,,,,,,,,,,,,,,,,,,,,,,,,,,,,,,,,
,,,,,V3_030,21,Female,2024-10-21_16h18.15.789,jersey_experiment_5_v3,2023.2.2,Win32,84.74576271,,,,,,,,,,,,,,,,269.8804,271.4334,271.4335,274.045,return,1.0826,,86.45833333,0,44,44,19,1,FBP-PT-17.png,0.45,1.2,20,0.75,,,,,,,,,,,,,,,,,,,,,,,,,,,,,,,,,,,,,,,,,,,,,
,,,,,V3_030,21,Female,2024-10-21_16h18.15.789,jersey_experiment_5_v3,2023.2.2,Win32,84.74576271,,,,,,,,,,,,,,,,274.0452,275.5981,275.5982,277.4685,return,0.9884,,50,0,45,45,21,1,FBP-PT-18.png,0.37,1.2,22,0.75,,,,,,,,,,,,,,,,,,,,,,,,,,,,,,,,,,,,,,,,,,,,,
,,,,,V3_030,21,Female,2024-10-21_16h18.15.789,jersey_experiment_5_v3,2023.2.2,Win32,84.74576271,,,,,,,,,,,,,,,,277.4689,279.0216,279.0218,280.6805,return,0.7453,,25.26041667,0,46,46,50,1,FBP-RB-18.png,0.35,1.2,51,0.75,,,,,,,,,,,,,,,,,,,,,,,,,,,,,,,,,,,,,,,,,,,,,
,,,,,V3_030,21,Female,2024-10-21_16h18.15.789,jersey_experiment_5_v3,2023.2.2,Win32,84.74576271,,,,,,,,,,,,,,,,280.6809,282.2335,282.2336,284.5747,return,1.2546,,50.52083333,0,47,47,57,1,FBP-RB-19.png,0.4,1.2,58,0.75,,,,,,,,,,,,,,,,,,,,,,,,,,,,,,,,,,,,,,,,,,,,,
,,,,,V3_030,21,Female,2024-10-21_16h18.15.789,jersey_experiment_5_v3,2023.2.2,Win32,84.74576271,,,,,,,,,,,,,,,,284.5749,285.8689,285.869,288.0219,return,1.195,,49.86979167,0,48,48,41,1,FBP-OG-19.png,0.37,1.2,42,0.5,,,,,,,,,,,,,,,,,,,,,,,,,,,,,,,,,,,,,,,,,,,,,
,,,,,V3_030,21,Female,2024-10-21_16h18.15.789,jersey_experiment_5_v3,2023.2.2,Win32,84.74576271,,,,,,,,,,,,,,,,288.0222,289.3161,289.3161,292.1868,return,1.4516,,56.38020833,0,49,49,37,1,FBP-OG-18.png,0.4,1.2,38,0.5,,,,,,,,,,,,,,,,,,,,,,,,,,,,,,,,,,,,,,,,,,,,,
,,,,,V3_030,21,Female,2024-10-21_16h18.15.789,jersey_experiment_5_v3,2023.2.2,Win32,84.74576271,,,,,,,,,,,,,,,,292.187,293.7399,293.7399,295.5282,return,0.793,,42.578125,0,50,50,26,1,FBP-PT-19.png,0.37,1.2,27,0.75,,,,,,,,,,,,,,,,,,,,,,,,,,,,,,,,,,,,,,,,,,,,,
,,,,,V3_030,21,Female,2024-10-21_16h18.15.789,jersey_experiment_5_v3,2023.2.2,Win32,84.74576271,,,,,,,,,,,,,,,,295.5284,297.0813,297.0814,299.693,return,1.5292,,74.86979167,0,51,51,18,1,FBP-PT-17.png,0.43,1.2,19,0.75,,,,,,,,,,,,,,,,,,,,,,,,,,,,,,,,,,,,,,,,,,,,,
,,,,,V3_030,21,Female,2024-10-21_16h18.15.789,jersey_experiment_5_v3,2023.2.2,Win32,84.74576271,,,,,,,,,,,,,,,,299.6933,301.246,301.246,303.8225,return,1.4353,,80.20833333,0,52,52,4,1,FBP-YG-71.png,0.45,1.2,5,0.75,,,,,,,,,,,,,,,,,,,,,,,,,,,,,,,,,,,,,,,,,,,,,
,,,,,V3_030,21,Female,2024-10-21_16h18.15.789,jersey_experiment_5_v3,2023.2.2,Win32,84.74576271,,,,,,,,,,,,,,,,303.8228,305.3758,305.3758,307.0463,return,0.6288,,32.94270833,0,53,53,11,1,FBP-YG-91.png,0.37,1.2,12,0.75,,,,,,,,,,,,,,,,,,,,,,,,,,,,,,,,,,,,,,,,,,,,,
,,,,,V3_030,21,Female,2024-10-21_16h18.15.789,jersey_experiment_5_v3,2023.2.2,Win32,84.74576271,,,,,,,,,,,,,,,,307.0467,308.3402,308.3403,310.764,return,1.1539,,74.21875,0,54,54,33,1,FBP-OG-17.png,0.43,1.2,34,0.5,,,,,,,,,,,,,,,,,,,,,,,,,,,,,,,,,,,,,,,,,,,,,
,,,,,V3_030,21,Female,2024-10-21_16h18.15.789,jersey_experiment_5_v3,2023.2.2,Win32,84.74576271,,,,,,,,,,,,,,,,310.7644,312.3172,312.3172,315.2936,return,1.0615,,86.06770833,0,55,55,54,1,FBP-RB-18.png,0.45,1.2,55,0.75,,,,,,,,,,,,,,,,,,,,,,,,,,,,,,,,,,,,,,,,,,,,,
,,,,,V3_030,21,Female,2024-10-21_16h18.15.789,jersey_experiment_5_v3,2023.2.2,Win32,84.74576271,,,,,,,,,,,,,,,,315.2939,316.8465,316.8466,319.0467,return,0.5943,,77.08333333,0,56,56,3,1,FBP-YG-71.png,0.43,1.2,4,0.75,,,,,,,,,,,,,,,,,,,,,,,,,,,,,,,,,,,,,,,,,,,,,
,,,,,V3_030,21,Female,2024-10-21_16h18.15.789,jersey_experiment_5_v3,2023.2.2,Win32,84.74576271,,,,,,,,,,,,,,,,319.0469,320.3408,320.3408,322.6232,return,0.8314,,52.60416667,0,57,57,42,1,FBP-OG-19.png,0.4,1.2,43,0.5,,,,,,,,,,,,,,,,,,,,,,,,,,,,,,,,,,,,,,,,,,,,,
,,,,,V3_030,21,Female,2024-10-21_16h18.15.789,jersey_experiment_5_v3,2023.2.2,Win32,84.74576271,,,,,,,,,,,,,,,,322.6234,324.1763,324.1763,325.7647,return,0.3818,,50,0,58,58,2,1,FBP-YG-71.png,0.4,1.2,3,0.75,,,,,,,,,,,,,,,,,,,,,,,,,,,,,,,,,,,,,,,,,,,,,
,,,,,V3_030,21,Female,2024-10-21_16h18.15.789,jersey_experiment_5_v3,2023.2.2,Win32,84.74576271,,,,,,,,,,,,,,,,325.765,327.3177,327.3178,329,return,0.5778,,25,0,59,59,45,1,FBP-RB-17.png,0.35,1.2,46,0.75,,,,,,,,,,,,,,,,,,,,,,,,,,,,,,,,,,,,,,,,,,,,,
,,,,,V3_030,21,Female,2024-10-21_16h18.15.789,jersey_experiment_5_v3,2023.2.2,Win32,84.74576271,,,,,,,,,,,,,,,,329.0022,330.5529,330.5529,331.659,return,0.3888,,25.13020833,,,,,,FBP-RB-81.png,0.35,1.2,51,0.75,0,0,0,50,1,,,,,,,,,,,,,,,,,,,,,,,,,,,,,,,,,,,,,,,,
,,,,,V3_030,21,Female,2024-10-21_16h18.15.789,jersey_experiment_5_v3,2023.2.2,Win32,84.74576271,,,,,,,,,,,,,,,,331.6593,332.953,332.9531,335.2944,return,0.8973,,74.47916667,,,,,,FBP-OG-91.png,0.43,1.2,44,0.5,0,1,1,43,1,,,,,,,,,,,,,,,,,,,,,,,,,,,,,,,,,,,,,,,,
,,,,,V3_030,21,Female,2024-10-21_16h18.15.789,jersey_experiment_5_v3,2023.2.2,Win32,84.74576271,,,,,,,,,,,,,,,,335.2946,336.8475,336.8475,338.565,return,0.7255,,86.45833333,,,,,,FBP-YG-18.png,0.45,1.2,10,0.75,0,2,2,9,1,,,,,,,,,,,,,,,,,,,,,,,,,,,,,,,,,,,,,,,,
,,,,,V3_030,21,Female,2024-10-21_16h18.15.789,jersey_experiment_5_v3,2023.2.2,Win32,84.74576271,,,,,,,,,,,,,,,,338.5653,340.1066,340.1066,341.4358,return,0.5779,,49.73958333,,,,,,FBP-YG-19.png,0.37,1.2,12,0.75,0,3,3,11,1,,,,,,,,,,,,,,,,,,,,,,,,,,,,,,,,,,,,,,,,
,,,,,V3_030,21,Female,2024-10-21_16h18.15.789,jersey_experiment_5_v3,2023.2.2,Win32,84.74576271,,,,,,,,,,,,,,,,341.4362,342.989,342.989,344.6123,return,0.7602,,74.08854167,,,,,,FBP-PT-71.png,0.4,1.2,18,0.75,0,4,4,17,1,,,,,,,,,,,,,,,,,,,,,,,,,,,,,,,,,,,,,,,,
,,,,,V3_030,21,Female,2024-10-21_16h18.15.789,jersey_experiment_5_v3,2023.2.2,Win32,84.74576271,,,,,,,,,,,,,,,,344.6124,346.1537,346.1538,347.4949,return,0.2966,,98.95833333,,,,,,FBP-YG-17.png,0.45,1.2,5,0.75,0,5,5,4,1,,,,,,,,,,,,,,,,,,,,,,,,,,,,,,,,,,,,,,,,
,,,,,V3_030,21,Female,2024-10-21_16h18.15.789,jersey_experiment_5_v3,2023.2.2,Win32,84.74576271,,,,,,,,,,,,,,,,347.4952,349.0477,349.0477,350.8125,return,0.6354,,75.26041667,,,,,,FBP-RB-71.png,0.4,1.2,48,0.75,0,6,6,47,1,,,,,,,,,,,,,,,,,,,,,,,,,,,,,,,,,,,,,,,,
,,,,,V3_030,21,Female,2024-10-21_16h18.15.789,jersey_experiment_5_v3,2023.2.2,Win32,84.74576271,,,,,,,,,,,,,,,,350.8127,352.3659,352.3659,353.8596,return,0.4075,,98.95833333,,,,,,FBP-PT-81.png,0.43,1.2,24,0.75,0,7,7,23,1,,,,,,,,,,,,,,,,,,,,,,,,,,,,,,,,,,,,,,,,
,,,,,V3_030,21,Female,2024-10-21_16h18.15.789,jersey_experiment_5_v3,2023.2.2,Win32,84.74576271,,,,,,,,,,,,,,,,353.8599,355.4128,355.4128,357.2245,return,0.6984,,99.21875,,,,,,FBP-PT-71.png,0.45,1.2,20,0.75,0,8,8,19,1,,,,,,,,,,,,,,,,,,,,,,,,,,,,,,,,,,,,,,,,
,,,,,V3_030,21,Female,2024-10-21_16h18.15.789,jersey_experiment_5_v3,2023.2.2,Win32,84.74576271,,,,,,,,,,,,,,,,357.2247,358.5186,358.5187,360.3659,return,0.6901,,88.80208333,,,,,,FBP-OG-81.png,0.43,1.2,39,0.5,0,9,9,38,1,,,,,,,,,,,,,,,,,,,,,,,,,,,,,,,,,,,,,,,,
,,,,,V3_030,21,Female,2024-10-21_16h18.15.789,jersey_experiment_5_v3,2023.2.2,Win32,84.74576271,,,,,,,,,,,,,,,,360.3663,361.66,361.6601,363.9895,return,0.4151,,54.42708333,,,,,,FBP-OG-71.png,0.37,1.2,32,0.5,0,10,10,31,1,,,,,,,,,,,,,,,,,,,,,,,,,,,,,,,,,,,,,,,,
,,,,,V3_030,21,Female,2024-10-21_16h18.15.789,jersey_experiment_5_v3,2023.2.2,Win32,84.74576271,,,,,,,,,,,,,,,,363.9898,365.5425,365.5425,368.1899,return,1.3173,,43.359375,,,,,,FBP-YG-18.png,0.35,1.2,6,0.75,0,11,11,5,1,,,,,,,,,,,,,,,,,,,,,,,,,,,,,,,,,,,,,,,,
,,,,,V3_030,21,Female,2024-10-21_16h18.15.789,jersey_experiment_5_v3,2023.2.2,Win32,84.74576271,,,,,,,,,,,,,,,,368.1902,369.7426,369.7427,372.484,return,0.3384,,62.23958333,,,,,,FBP-RB-91.png,0.4,1.2,58,0.75,0,12,12,57,1,,,,,,,,,,,,,,,,,,,,,,,,,,,,,,,,,,,,,,,,
,,,,,V3_030,21,Female,2024-10-21_16h18.15.789,jersey_experiment_5_v3,2023.2.2,Win32,84.74576271,,,,,,,,,,,,,,,,372.4844,374.037,374.0371,375.4488,return,0.4613,,80.72916667,,,,,,FBP-YG-18.png,0.43,1.2,9,0.75,0,13,13,8,1,,,,,,,,,,,,,,,,,,,,,,,,,,,,,,,,,,,,,,,,
,,,,,V3_030,21,Female,2024-10-21_16h18.15.789,jersey_experiment_5_v3,2023.2.2,Win32,84.74576271,,,,,,,,,,,,,,,,375.449,376.743,376.7431,379.2372,return,1.0901,,81.640625,,,,,,FBP-OG-71.png,0.4,1.2,33,0.5,0,14,14,32,1,,,,,,,,,,,,,,,,,,,,,,,,,,,,,,,,,,,,,,,,
,,,,,V3_030,21,Female,2024-10-21_16h18.15.789,jersey_experiment_5_v3,2023.2.2,Win32,84.74576271,,,,,,,,,,,,,,,,379.2374,380.7902,380.7902,382.4609,return,0.3764,,50.26041667,,,,,,FBP-PT-81.png,0.37,1.2,22,0.75,0,15,15,21,1,,,,,,,,,,,,,,,,,,,,,,,,,,,,,,,,,,,,,,,,
,,,,,V3_030,21,Female,2024-10-21_16h18.15.789,jersey_experiment_5_v3,2023.2.2,Win32,84.74576271,,,,,,,,,,,,,,,,382.4611,384.0139,384.0139,385.3081,return,0.2597,,99.34895833,,,,,,FBP-RB-91.png,0.45,1.2,60,0.75,0,16,16,59,1,,,,,,,,,,,,,,,,,,,,,,,,,,,,,,,,,,,,,,,,
,,,,,V3_030,21,Female,2024-10-21_16h18.15.789,jersey_experiment_5_v3,2023.2.2,Win32,84.74576271,,,,,,,,,,,,,,,,385.3084,386.861,386.8611,387.9787,return,0.2278,,74.609375,,,,,,FBP-RB-71.png,0.37,1.2,47,0.75,0,17,17,46,1,,,,,,,,,,,,,,,,,,,,,,,,,,,,,,,,,,,,,,,,
,,,,,V3_030,21,Female,2024-10-21_16h18.15.789,jersey_experiment_5_v3,2023.2.2,Win32,84.74576271,,,,,,,,,,,,,,,,387.9788,389.2728,389.2729,391.3319,return,0.2917,,50.390625,,,,,,FBP-OG-91.png,0.35,1.2,41,0.5,0,18,18,40,1,,,,,,,,,,,,,,,,,,,,,,,,,,,,,,,,,,,,,,,,
,,,,,V3_030,21,Female,2024-10-21_16h18.15.789,jersey_experiment_5_v3,2023.2.2,Win32,84.74576271,,,,,,,,,,,,,,,,391.3322,392.8848,392.8848,395.7554,return,1.0228,,55.33854167,,,,,,FBP-YG-18.png,0.37,1.2,7,0.75,0,19,19,6,1,,,,,,,,,,,,,,,,,,,,,,,,,,,,,,,,,,,,,,,,
,,,,,V3_030,21,Female,2024-10-21_16h18.15.789,jersey_experiment_5_v3,2023.2.2,Win32,84.74576271,,,,,,,,,,,,,,,,395.7558,397.3084,397.3085,399.6731,return,1.0144,,24.47916667,,,,,,FBP-YG-19.png,0.35,1.2,11,0.75,0,20,20,10,1,,,,,,,,,,,,,,,,,,,,,,,,,,,,,,,,,,,,,,,,
,,,,,V3_030,21,Female,2024-10-21_16h18.15.789,jersey_experiment_5_v3,2023.2.2,Win32,84.74576271,,,,,,,,,,,,,,,,399.6733,400.9674,400.9675,404.2028,return,1.4244,,96.61458333,,,,,,FBP-OG-71.png,0.43,1.2,34,0.5,0,21,21,33,1,,,,,,,,,,,,,,,,,,,,,,,,,,,,,,,,,,,,,,,,
,,,,,V3_030,21,Female,2024-10-21_16h18.15.789,jersey_experiment_5_v3,2023.2.2,Win32,84.74576271,,,,,,,,,,,,,,,,404.203,405.7558,405.7558,407.6618,return,0.4707,,24.86979167,,,,,,FBP-RB-91.png,0.35,1.2,56,0.75,0,22,22,55,1,,,,,,,,,,,,,,,,,,,,,,,,,,,,,,,,,,,,,,,,
,,,,,V3_030,21,Female,2024-10-21_16h18.15.789,jersey_experiment_5_v3,2023.2.2,Win32,84.74576271,,,,,,,,,,,,,,,,407.6621,409.2147,409.2147,411.3798,return,0.3729,,58.07291667,,,,,,FBP-YG-18.png,0.4,1.2,8,0.75,0,23,23,7,1,,,,,,,,,,,,,,,,,,,,,,,,,,,,,,,,,,,,,,,,
,,,,,V3_030,21,Female,2024-10-21_16h18.15.789,jersey_experiment_5_v3,2023.2.2,Win32,84.74576271,,,,,,,,,,,,,,,,411.3801,412.9327,412.9327,414.168,return,0.2753,,82.03125,,,,,,FBP-RB-71.png,0.43,1.2,49,0.75,0,24,24,48,1,,,,,,,,,,,,,,,,,,,,,,,,,,,,,,,,,,,,,,,,
,,,,,V3_030,21,Female,2024-10-21_16h18.15.789,jersey_experiment_5_v3,2023.2.2,Win32,84.74576271,,,,,,,,,,,,,,,,414.1682,415.462,415.462,417.6151,return,0.2223,,50,,,,,,FBP-OG-91.png,0.37,1.2,42,0.5,0,25,25,41,1,,,,,,,,,,,,,,,,,,,,,,,,,,,,,,,,,,,,,,,,
,,,,,V3_030,21,Female,2024-10-21_16h18.15.789,jersey_experiment_5_v3,2023.2.2,Win32,84.74576271,,,,,,,,,,,,,,,,417.6155,418.9092,418.9092,420.9797,return,0.8195,,32.94270833,,,,,,FBP-OG-71.png,0.35,1.2,31,0.5,0,26,26,30,1,,,,,,,,,,,,,,,,,,,,,,,,,,,,,,,,,,,,,,,,
,,,,,V3_030,21,Female,2024-10-21_16h18.15.789,jersey_experiment_5_v3,2023.2.2,Win32,84.74576271,,,,,,,,,,,,,,,,420.9801,422.5213,422.5213,424.2623,return,0.499,,81.90104167,,,,,,FBP-PT-91.png,0.43,1.2,29,0.75,0,27,27,28,1,,,,,,,,,,,,,,,,,,,,,,,,,,,,,,,,,,,,,,,,
,,,,,V3_030,21,Female,2024-10-21_16h18.15.789,jersey_experiment_5_v3,2023.2.2,Win32,84.74576271,,,,,,,,,,,,,,,,424.2626,425.8155,425.8155,427.4036,return,0.4251,,74.609375,,,,,,FBP-YG-17.png,0.4,1.2,3,0.75,0,28,28,2,1,,,,,,,,,,,,,,,,,,,,,,,,,,,,,,,,,,,,,,,,
,,,,,V3_030,21,Female,2024-10-21_16h18.15.789,jersey_experiment_5_v3,2023.2.2,Win32,84.74576271,,,,,,,,,,,,,,,,427.4039,428.6978,428.6978,430.5686,return,0.4264,,86.19791667,,,,,,FBP-OG-71.png,0.45,1.2,35,0.5,0,29,29,34,1,,,,,,,,,,,,,,,,,,,,,,,,,,,,,,,,,,,,,,,,
,,,,,V3_030,21,Female,2024-10-21_16h18.15.789,jersey_experiment_5_v3,2023.2.2,Win32,84.74576271,,,,,,,,,,,,,,,,430.5688,432.1215,432.1216,434.4391,return,0.9,,83.33333333,,,,,,FBP-PT-91.png,0.4,1.2,28,0.75,0,30,30,27,1,,,,,,,,,,,,,,,,,,,,,,,,,,,,,,,,,,,,,,,,
,,,,,V3_030,21,Female,2024-10-21_16h18.15.789,jersey_experiment_5_v3,2023.2.2,Win32,84.74576271,,,,,,,,,,,,,,,,434.4394,435.9922,435.9923,438.0276,return,0.2795,,27.08333333,,,,,,FBP-PT-71.png,0.35,1.2,16,0.75,0,31,31,15,1,,,,,,,,,,,,,,,,,,,,,,,,,,,,,,,,,,,,,,,,
,,,,,V3_030,21,Female,2024-10-21_16h18.15.789,jersey_experiment_5_v3,2023.2.2,Win32,84.74576271,,,,,,,,,,,,,,,,438.028,439.3219,439.322,441.1808,return,0.4134,,99.73958333,,,,,,FBP-OG-91.png,0.45,1.2,45,0.5,0,32,32,44,1,,,,,,,,,,,,,,,,,,,,,,,,,,,,,,,,,,,,,,,,
,,,,,V3_030,21,Female,2024-10-21_16h18.15.789,jersey_experiment_5_v3,2023.2.2,Win32,84.74576271,,,,,,,,,,,,,,,,441.181,442.7338,442.7338,444.569,return,0.4265,,99.73958333,,,,,,FBP-YG-19.png,0.45,1.2,15,0.75,0,33,33,14,1,,,,,,,,,,,,,,,,,,,,,,,,,,,,,,,,,,,,,,,,
,,,,,V3_030,21,Female,2024-10-21_16h18.15.789,jersey_experiment_5_v3,2023.2.2,Win32,84.74576271,,,,,,,,,,,,,,,,444.5693,446.1221,446.1222,447.8986,return,0.4572,,24.47916667,,,,,,FBP-RB-71.png,0.35,1.2,46,0.75,0,34,34,45,1,,,,,,,,,,,,,,,,,,,,,,,,,,,,,,,,,,,,,,,,
,,,,,V3_030,21,Female,2024-10-21_16h18.15.789,jersey_experiment_5_v3,2023.2.2,Win32,84.74576271,,,,,,,,,,,,,,,,447.8989,449.4515,449.4516,450.981,return,0.3695,,22.52604167,,,,,,FBP-RB-81.png,0.37,1.2,52,0.75,0,35,35,51,1,,,,,,,,,,,,,,,,,,,,,,,,,,,,,,,,,,,,,,,,
,,,,,V3_030,21,Female,2024-10-21_16h18.15.789,jersey_experiment_5_v3,2023.2.2,Win32,84.74576271,,,,,,,,,,,,,,,,450.9813,452.534,452.5341,454.3341,return,0.5152,,23.828125,,,,,,FBP-PT-91.png,0.35,1.2,26,0.75,0,36,36,25,1,,,,,,,,,,,,,,,,,,,,,,,,,,,,,,,,,,,,,,,,
,,,,,V3_030,21,Female,2024-10-21_16h18.15.789,jersey_experiment_5_v3,2023.2.2,Win32,84.74576271,,,,,,,,,,,,,,,,454.3343,455.8756,455.8756,457.1107,return,0.276,,28.38541667,,,,,,FBP-PT-71.png,0.37,1.2,17,0.75,0,37,37,16,1,,,,,,,,,,,,,,,,,,,,,,,,,,,,,,,,,,,,,,,,
,,,,,V3_030,21,Female,2024-10-21_16h18.15.789,jersey_experiment_5_v3,2023.2.2,Win32,84.74576271,,,,,,,,,,,,,,,,457.111,458.6636,458.6637,465.8288,return,2.5571,,28.77604167,,,,,,FBP-PT-81.png,0.35,1.2,21,0.75,0,38,38,20,1,,,,,,,,,,,,,,,,,,,,,,,,,,,,,,,,,,,,,,,,
,,,,,V3_030,21,Female,2024-10-21_16h18.15.789,jersey_experiment_5_v3,2023.2.2,Win32,84.74576271,,,,,,,,,,,,,,,,465.829,467.3818,467.3818,468.7346,return,0.4159,,73.69791667,,,,,,FBP-RB-81.png,0.43,1.2,54,0.75,0,39,39,53,1,,,,,,,,,,,,,,,,,,,,,,,,,,,,,,,,,,,,,,,,
,,,,,V3_030,21,Female,2024-10-21_16h18.15.789,jersey_experiment_5_v3,2023.2.2,Win32,84.74576271,,,,,,,,,,,,,,,,468.7349,470.2877,470.2877,471.7702,return,0.3992,,49.34895833,,,,,,FBP-YG-17.png,0.37,1.2,2,0.75,0,40,40,1,1,,,,,,,,,,,,,,,,,,,,,,,,,,,,,,,,,,,,,,,,
,,,,,V3_030,21,Female,2024-10-21_16h18.15.789,jersey_experiment_5_v3,2023.2.2,Win32,84.74576271,,,,,,,,,,,,,,,,471.7703,473.3233,473.3233,475.2997,return,0.8677,,97.78645833,,,,,,FBP-PT-91.png,0.45,1.2,30,0.75,0,41,41,29,1,,,,,,,,,,,,,,,,,,,,,,,,,,,,,,,,,,,,,,,,
,,,,,V3_030,21,Female,2024-10-21_16h18.15.789,jersey_experiment_5_v3,2023.2.2,Win32,84.74576271,,,,,,,,,,,,,,,,475.3,476.5938,476.5938,477.935,return,0.2732,,73.56770833,,,,,,FBP-OG-91.png,0.4,1.2,43,0.5,0,42,42,42,1,,,,,,,,,,,,,,,,,,,,,,,,,,,,,,,,,,,,,,,,
,,,,,V3_030,21,Female,2024-10-21_16h18.15.789,jersey_experiment_5_v3,2023.2.2,Win32,84.74576271,,,,,,,,,,,,,,,,477.9352,479.4765,479.4765,481.4056,return,0.3994,,65.625,,,,,,FBP-PT-91.png,0.37,1.2,27,0.75,0,43,43,26,1,,,,,,,,,,,,,,,,,,,,,,,,,,,,,,,,,,,,,,,,
,,,,,V3_030,21,Female,2024-10-21_16h18.15.789,jersey_experiment_5_v3,2023.2.2,Win32,84.74576271,,,,,,,,,,,,,,,,481.4059,482.9587,482.9587,484.8059,return,0.4296,,99.609375,,,,,,FBP-RB-81.png,0.45,1.2,55,0.75,0,44,44,54,1,,,,,,,,,,,,,,,,,,,,,,,,,,,,,,,,,,,,,,,,
,,,,,V3_030,21,Female,2024-10-21_16h18.15.789,jersey_experiment_5_v3,2023.2.2,Win32,84.74576271,,,,,,,,,,,,,,,,484.8061,486.3587,486.3589,488.3825,return,0.416,,72.78645833,,,,,,FBP-RB-91.png,0.37,1.2,57,0.75,0,45,45,56,1,,,,,,,,,,,,,,,,,,,,,,,,,,,,,,,,,,,,,,,,
,,,,,V3_030,21,Female,2024-10-21_16h18.15.789,jersey_experiment_5_v3,2023.2.2,Win32,84.74576271,,,,,,,,,,,,,,,,488.3827,489.9356,489.9356,491.406,return,0.8306,,85.28645833,,,,,,FBP-RB-91.png,0.43,1.2,59,0.75,0,46,46,58,1,,,,,,,,,,,,,,,,,,,,,,,,,,,,,,,,,,,,,,,,
,,,,,V3_030,21,Female,2024-10-21_16h18.15.789,jersey_experiment_5_v3,2023.2.2,Win32,84.74576271,,,,,,,,,,,,,,,,491.4064,492.959,492.9591,494.2649,return,0.3692,,81.90104167,,,,,,FBP-PT-71.png,0.43,1.2,19,0.75,0,47,47,18,1,,,,,,,,,,,,,,,,,,,,,,,,,,,,,,,,,,,,,,,,
,,,,,V3_030,21,Female,2024-10-21_16h18.15.789,jersey_experiment_5_v3,2023.2.2,Win32,84.74576271,,,,,,,,,,,,,,,,494.2651,495.818,495.8181,498.7476,return,1.0218,,48.4375,,,,,,FBP-YG-17.png,0.35,1.2,1,0.75,0,48,48,0,1,,,,,,,,,,,,,,,,,,,,,,,,,,,,,,,,,,,,,,,,
,,,,,V3_030,21,Female,2024-10-21_16h18.15.789,jersey_experiment_5_v3,2023.2.2,Win32,84.74576271,,,,,,,,,,,,,,,,498.7478,500.3005,500.3005,501.8537,return,0.3164,,74.609375,,,,,,FBP-YG-19.png,0.43,1.2,14,0.75,0,49,49,13,1,,,,,,,,,,,,,,,,,,,,,,,,,,,,,,,,,,,,,,,,
,,,,,V3_030,21,Female,2024-10-21_16h18.15.789,jersey_experiment_5_v3,2023.2.2,Win32,84.74576271,,,,,,,,,,,,,,,,501.8539,503.4065,503.4065,504.8889,return,0.2714,,73.17708333,,,,,,FBP-RB-81.png,0.4,1.2,53,0.75,0,50,50,52,1,,,,,,,,,,,,,,,,,,,,,,,,,,,,,,,,,,,,,,,,
,,,,,V3_030,21,Female,2024-10-21_16h18.15.789,jersey_experiment_5_v3,2023.2.2,Win32,84.74576271,,,,,,,,,,,,,,,,504.8895,506.1832,506.1832,507.5479,return,0.2696,,46.35416667,,,,,,FBP-OG-81.png,0.35,1.2,36,0.5,0,51,51,35,1,,,,,,,,,,,,,,,,,,,,,,,,,,,,,,,,,,,,,,,,
,,,,,V3_030,21,Female,2024-10-21_16h18.15.789,jersey_experiment_5_v3,2023.2.2,Win32,84.74576271,,,,,,,,,,,,,,,,507.5482,509.101,509.1011,510.4068,return,0.3942,,79.55729167,,,,,,FBP-PT-81.png,0.45,1.2,25,0.75,0,52,52,24,1,,,,,,,,,,,,,,,,,,,,,,,,,,,,,,,,,,,,,,,,
,,,,,V3_030,21,Female,2024-10-21_16h18.15.789,jersey_experiment_5_v3,2023.2.2,Win32,84.74576271,,,,,,,,,,,,,,,,510.4071,511.9598,511.9598,512.9363,return,0.2006,,78.77604167,,,,,,FBP-RB-71.png,0.45,1.2,50,0.75,0,53,53,49,1,,,,,,,,,,,,,,,,,,,,,,,,,,,,,,,,,,,,,,,,
,,,,,V3_030,21,Female,2024-10-21_16h18.15.789,jersey_experiment_5_v3,2023.2.2,Win32,84.74576271,,,,,,,,,,,,,,,,512.9366,514.4894,514.4895,516.807,return,0.7108,,79.03645833,,,,,,FBP-YG-17.png,0.43,1.2,4,0.75,0,54,54,3,1,,,,,,,,,,,,,,,,,,,,,,,,,,,,,,,,,,,,,,,,
,,,,,V3_030,21,Female,2024-10-21_16h18.15.789,jersey_experiment_5_v3,2023.2.2,Win32,84.74576271,,,,,,,,,,,,,,,,516.8073,518.1012,518.1013,519.8777,return,0.5089,,96.22395833,,,,,,FBP-OG-81.png,0.45,1.2,40,0.5,0,55,55,39,1,,,,,,,,,,,,,,,,,,,,,,,,,,,,,,,,,,,,,,,,
,,,,,V3_030,21,Female,2024-10-21_16h18.15.789,jersey_experiment_5_v3,2023.2.2,Win32,84.74576271,,,,,,,,,,,,,,,,519.878,521.1718,521.1719,523.4661,return,0.4006,,7.03125,,,,,,FBP-OG-81.png,0.37,1.2,37,0.5,0,56,56,36,1,,,,,,,,,,,,,,,,,,,,,,,,,,,,,,,,,,,,,,,,
,,,,,V3_030,21,Female,2024-10-21_16h18.15.789,jersey_experiment_5_v3,2023.2.2,Win32,84.74576271,,,,,,,,,,,,,,,,523.4663,525.019,525.0191,526.525,return,0.1435,,25.26041667,,,,,,FBP-PT-81.png,0.4,1.2,23,0.75,0,57,57,22,1,,,,,,,,,,,,,,,,,,,,,,,,,,,,,,,,,,,,,,,,
,,,,,V3_030,21,Female,2024-10-21_16h18.15.789,jersey_experiment_5_v3,2023.2.2,Win32,84.74576271,,,,,,,,,,,,,,,,526.5253,528.078,528.0781,529.5134,return,0.3793,,27.86458333,,,,,,FBP-YG-19.png,0.4,1.2,13,0.75,0,58,58,12,1,,,,,,,,,,,,,,,,,,,,,,,,,,,,,,,,,,,,,,,,
,,,,,V3_030,21,Female,2024-10-21_16h18.15.789,jersey_experiment_5_v3,2023.2.2,Win32,84.74576271,,,,,,,,,,,,,,,,529.5136,530.8076,530.8076,532.1841,return,0.2401,,36.71875,,,,,,FBP-OG-81.png,0.4,1.2,38,0.5,0,59,59,37,1,,,,,,,,,,,,,,,,,,,,,,,,,,,,,,,,,,,,,,,,
,,,,,V3_030,21,Female,2024-10-21_16h18.15.789,jersey_experiment_5_v3,2023.2.2,Win32,84.74576271,,,,,,,,,,,,,,,,,,,,,,,,,,,,,,,,,,,,,,,532.1843,652.177,,,,,,,,,,,,,,,,,,,,,,,,,,,,,,,,,,,,,,
,,,,,V3_030,21,Female,2024-10-21_16h18.15.789,jersey_experiment_5_v3,2023.2.2,Win32,84.74576271,,,,,,,,,,,,,,,,,,,,,,,,,,,,,,,,,,,,,,,,,652.1771,672.0248,return,19.839,,,,,,,,,,,,,,,,,,,,,,,,,,,,,,,,,,
,,,,,V3_030,21,Female,2024-10-21_16h18.15.789,jersey_experiment_5_v3,2023.2.2,Win32,84.74576271,,,,,,,,,,,,,,,,672.027,673.5776,673.5776,675.9776,return,0.756,,50,,,,,,FBP-OG-19.png,0.4,1.2,43,0.75,,,,,,,,,,,,,0,0,0,42,1,,,,,,,,,,,,,,,,,,,,,,,,,,,,
,,,,,V3_030,21,Female,2024-10-21_16h18.15.789,jersey_experiment_5_v3,2023.2.2,Win32,84.74576271,,,,,,,,,,,,,,,,675.978,677.5306,677.5307,679.4601,return,0.6776,,47.13541667,,,,,,FBP-OG-18.png,0.37,1.2,37,0.75,,,,,,,,,,,,,0,1,1,36,1,,,,,,,,,,,,,,,,,,,,,,,,,,,,
,,,,,V3_030,21,Female,2024-10-21_16h18.15.789,jersey_experiment_5_v3,2023.2.2,Win32,84.74576271,,,,,,,,,,,,,,,,679.4602,680.7544,680.7544,683.8016,return,0.674,,88.671875,,,,,,FBP-RB-19.png,0.45,1.2,60,0.5,,,,,,,,,,,,,0,2,2,59,1,,,,,,,,,,,,,,,,,,,,,,,,,,,,
,,,,,V3_030,21,Female,2024-10-21_16h18.15.789,jersey_experiment_5_v3,2023.2.2,Win32,84.74576271,,,,,,,,,,,,,,,,683.8018,685.0956,685.0957,686.8134,return,0.6334,,99.86979167,,,,,,FBP-RB-18.png,0.45,1.2,55,0.5,,,,,,,,,,,,,0,3,3,54,1,,,,,,,,,,,,,,,,,,,,,,,,,,,,
,,,,,V3_030,21,Female,2024-10-21_16h18.15.789,jersey_experiment_5_v3,2023.2.2,Win32,84.74576271,,,,,,,,,,,,,,,,686.8137,688.1077,688.1077,690.7901,return,0.7241,,24.08854167,,,,,,FBP-RB-18.png,0.37,1.2,52,0.5,,,,,,,,,,,,,0,4,4,51,1,,,,,,,,,,,,,,,,,,,,,,,,,,,,
,,,,,V3_030,21,Female,2024-10-21_16h18.15.789,jersey_experiment_5_v3,2023.2.2,Win32,84.74576271,,,,,,,,,,,,,,,,690.7903,692.0844,692.0844,693.5078,return,0.5973,,36.97916667,,,,,,FBP-YG-71.png,0.4,1.2,3,0.5,,,,,,,,,,,,,0,5,5,2,1,,,,,,,,,,,,,,,,,,,,,,,,,,,,
,,,,,V3_030,21,Female,2024-10-21_16h18.15.789,jersey_experiment_5_v3,2023.2.2,Win32,84.74576271,,,,,,,,,,,,,,,,693.508,694.802,694.8021,696.555,return,0.6329,,62.890625,,,,,,FBP-PT-18.png,0.4,1.2,23,0.5,,,,,,,,,,,,,0,6,6,22,1,,,,,,,,,,,,,,,,,,,,,,,,,,,,
,,,,,V3_030,21,Female,2024-10-21_16h18.15.789,jersey_experiment_5_v3,2023.2.2,Win32,84.74576271,,,,,,,,,,,,,,,,696.5552,698.1082,698.1082,699.9668,return,0.6746,,98.17708333,,,,,,FBP-OG-19.png,0.45,1.2,45,0.75,,,,,,,,,,,,,0,7,7,44,1,,,,,,,,,,,,,,,,,,,,,,,,,,,,
,,,,,V3_030,21,Female,2024-10-21_16h18.15.789,jersey_experiment_5_v3,2023.2.2,Win32,84.74576271,,,,,,,,,,,,,,,,699.967,701.2612,701.2613,704.0376,return,1.2662,,73.69791667,,,,,,FBP-PT-17.png,0.4,1.2,18,0.5,,,,,,,,,,,,,0,8,8,17,1,,,,,,,,,,,,,,,,,,,,,,,,,,,,
,,,,,V3_030,21,Female,2024-10-21_16h18.15.789,jersey_experiment_5_v3,2023.2.2,Win32,84.74576271,,,,,,,,,,,,,,,,704.0378,705.3318,705.3318,707.6379,return,0.9234,,77.08333333,,,,,,FBP-RB-17.png,0.4,1.2,48,0.5,,,,,,,,,,,,,0,9,9,47,1,,,,,,,,,,,,,,,,,,,,,,,,,,,,
,,,,,V3_030,21,Female,2024-10-21_16h18.15.789,jersey_experiment_5_v3,2023.2.2,Win32,84.74576271,,,,,,,,,,,,,,,,707.6382,708.9319,708.932,710.5908,return,0.0818,,99.34895833,,,,,,FBP-PT-18.png,0.43,1.2,24,0.5,,,,,,,,,,,,,0,10,10,23,1,,,,,,,,,,,,,,,,,,,,,,,,,,,,
,,,,,V3_030,21,Female,2024-10-21_16h18.15.789,jersey_experiment_5_v3,2023.2.2,Win32,84.74576271,,,,,,,,,,,,,,,,710.591,712.1438,712.1438,713.3203,return,0.1458,,74.21875,,,,,,FBP-OG-17.png,0.4,1.2,33,0.75,,,,,,,,,,,,,0,11,11,32,1,,,,,,,,,,,,,,,,,,,,,,,,,,,,
,,,,,V3_030,21,Female,2024-10-21_16h18.15.789,jersey_experiment_5_v3,2023.2.2,Win32,84.74576271,,,,,,,,,,,,,,,,713.3204,714.6145,714.6146,715.2616,return,0.06,,73.95833333,,,,,,FBP-RB-18.png,0.4,1.2,53,0.5,,,,,,,,,,,,,0,12,12,52,1,,,,,,,,,,,,,,,,,,,,,,,,,,,,
,,,,,V3_030,21,Female,2024-10-21_16h18.15.789,jersey_experiment_5_v3,2023.2.2,Win32,84.74576271,,,,,,,,,,,,,,,,715.2618,716.5556,716.5558,718.0617,return,0.3061,,23.046875,,,,,,FBP-YG-71.png,0.37,1.2,2,0.5,,,,,,,,,,,,,0,13,13,1,1,,,,,,,,,,,,,,,,,,,,,,,,,,,,
,,,,,V3_030,21,Female,2024-10-21_16h18.15.789,jersey_experiment_5_v3,2023.2.2,Win32,84.74576271,,,,,,,,,,,,,,,,718.0618,719.3558,719.3559,720.2146,return,0.0532,,49.34895833,,,,,,FBP-YG-81.png,0.4,1.2,8,0.5,,,,,,,,,,,,,0,14,14,7,1,,,,,,,,,,,,,,,,,,,,,,,,,,,,
,,,,,V3_030,21,Female,2024-10-21_16h18.15.789,jersey_experiment_5_v3,2023.2.2,Win32,84.74576271,,,,,,,,,,,,,,,,720.2149,721.5089,721.509,723.9443,return,0.4741,,49.21875,,,,,,FBP-PT-18.png,0.35,1.2,21,0.5,,,,,,,,,,,,,0,15,15,20,1,,,,,,,,,,,,,,,,,,,,,,,,,,,,
,,,,,V3_030,21,Female,2024-10-21_16h18.15.789,jersey_experiment_5_v3,2023.2.2,Win32,84.74576271,,,,,,,,,,,,,,,,723.9446,725.2384,725.2384,728.5679,return,0.781,,37.109375,,,,,,FBP-YG-71.png,0.35,1.2,1,0.5,,,,,,,,,,,,,0,16,16,0,1,,,,,,,,,,,,,,,,,,,,,,,,,,,,
,,,,,V3_030,21,Female,2024-10-21_16h18.15.789,jersey_experiment_5_v3,2023.2.2,Win32,84.74576271,,,,,,,,,,,,,,,,728.5681,729.8621,729.8621,731.2621,return,0.0261,,99.08854167,,,,,,FBP-YG-91.png,0.43,1.2,14,0.5,,,,,,,,,,,,,0,17,17,13,1,,,,,,,,,,,,,,,,,,,,,,,,,,,,
,,,,,V3_030,21,Female,2024-10-21_16h18.15.789,jersey_experiment_5_v3,2023.2.2,Win32,84.74576271,,,,,,,,,,,,,,,,731.2624,732.5565,732.5565,735.3565,return,0.1073,,75.26041667,,,,,,FBP-YG-91.png,0.4,1.2,13,0.5,,,,,,,,,,,,,0,18,18,12,1,,,,,,,,,,,,,,,,,,,,,,,,,,,,
,,,,,V3_030,21,Female,2024-10-21_16h18.15.789,jersey_experiment_5_v3,2023.2.2,Win32,84.74576271,,,,,,,,,,,,,,,,735.3566,736.6507,736.6507,738.1331,return,0.2079,,98.69791667,,,,,,FBP-RB-18.png,0.43,1.2,54,0.5,,,,,,,,,,,,,0,19,19,53,1,,,,,,,,,,,,,,,,,,,,,,,,,,,,
,,,,,V3_030,21,Female,2024-10-21_16h18.15.789,jersey_experiment_5_v3,2023.2.2,Win32,84.74576271,,,,,,,,,,,,,,,,738.1334,739.4273,739.4273,740.886,return,0.3244,,98.828125,,,,,,FBP-YG-81.png,0.45,1.2,10,0.5,,,,,,,,,,,,,0,20,20,9,1,,,,,,,,,,,,,,,,,,,,,,,,,,,,
,,,,,V3_030,21,Female,2024-10-21_16h18.15.789,jersey_experiment_5_v3,2023.2.2,Win32,84.74576271,,,,,,,,,,,,,,,,740.8861,742.1803,742.1804,744.0627,return,0.2509,,99.86979167,,,,,,FBP-PT-17.png,0.45,1.2,20,0.5,,,,,,,,,,,,,0,21,21,19,1,,,,,,,,,,,,,,,,,,,,,,,,,,,,
,,,,,V3_030,21,Female,2024-10-21_16h18.15.789,jersey_experiment_5_v3,2023.2.2,Win32,84.74576271,,,,,,,,,,,,,,,,744.0629,745.3568,745.3568,747.3804,return,0.1927,,99.47916667,,,,,,FBP-PT-17.png,0.43,1.2,19,0.5,,,,,,,,,,,,,0,22,22,18,1,,,,,,,,,,,,,,,,,,,,,,,,,,,,
,,,,,V3_030,21,Female,2024-10-21_16h18.15.789,jersey_experiment_5_v3,2023.2.2,Win32,84.74576271,,,,,,,,,,,,,,,,747.3806,748.6745,748.6745,750.1334,return,0.1946,,3.255208333,,,,,,FBP-RB-19.png,0.37,1.2,57,0.5,,,,,,,,,,,,,0,23,23,56,1,,,,,,,,,,,,,,,,,,,,,,,,,,,,
,,,,,V3_030,21,Female,2024-10-21_16h18.15.789,jersey_experiment_5_v3,2023.2.2,Win32,84.74576271,,,,,,,,,,,,,,,,750.1336,751.4276,751.4276,752.6982,return,0.1803,,12.63020833,,,,,,FBP-RB-17.png,0.37,1.2,47,0.5,,,,,,,,,,,,,0,24,24,46,1,,,,,,,,,,,,,,,,,,,,,,,,,,,,
,,,,,V3_030,21,Female,2024-10-21_16h18.15.789,jersey_experiment_5_v3,2023.2.2,Win32,84.74576271,,,,,,,,,,,,,,,,752.6983,753.9924,753.9924,755.4631,return,0.0868,,74.34895833,,,,,,FBP-RB-19.png,0.4,1.2,58,0.5,,,,,,,,,,,,,0,25,25,57,1,,,,,,,,,,,,,,,,,,,,,,,,,,,,
,,,,,V3_030,21,Female,2024-10-21_16h18.15.789,jersey_experiment_5_v3,2023.2.2,Win32,84.74576271,,,,,,,,,,,,,,,,755.4633,757.0161,757.0161,757.8277,return,0.1148,,50.91145833,,,,,,FBP-OG-19.png,0.37,1.2,42,0.75,,,,,,,,,,,,,0,26,26,41,1,,,,,,,,,,,,,,,,,,,,,,,,,,,,
,,,,,V3_030,21,Female,2024-10-21_16h18.15.789,jersey_experiment_5_v3,2023.2.2,Win32,84.74576271,,,,,,,,,,,,,,,,757.8278,759.369,759.369,760.2278,return,0.1017,,45.703125,,,,,,FBP-OG-19.png,0.35,1.2,41,0.75,,,,,,,,,,,,,0,27,27,40,1,,,,,,,,,,,,,,,,,,,,,,,,,,,,
,,,,,V3_030,21,Female,2024-10-21_16h18.15.789,jersey_experiment_5_v3,2023.2.2,Win32,84.74576271,,,,,,,,,,,,,,,,760.2281,761.7811,761.7813,762.7812,return,0.0567,,74.73958333,,,,,,FBP-OG-17.png,0.43,1.2,34,0.75,,,,,,,,,,,,,0,28,28,33,1,,,,,,,,,,,,,,,,,,,,,,,,,,,,
,,,,,V3_030,21,Female,2024-10-21_16h18.15.789,jersey_experiment_5_v3,2023.2.2,Win32,84.74576271,,,,,,,,,,,,,,,,762.7814,764.0753,764.0753,765.9458,return,0.3215,,98.95833333,,,,,,FBP-YG-71.png,0.43,1.2,4,0.5,,,,,,,,,,,,,0,29,29,3,1,,,,,,,,,,,,,,,,,,,,,,,,,,,,
,,,,,V3_030,21,Female,2024-10-21_16h18.15.789,jersey_experiment_5_v3,2023.2.2,Win32,84.74576271,,,,,,,,,,,,,,,,765.9461,767.2401,767.2402,768.6046,return,0.1915,,26.43229167,,,,,,FBP-YG-91.png,0.37,1.2,12,0.5,,,,,,,,,,,,,0,30,30,11,1,,,,,,,,,,,,,,,,,,,,,,,,,,,,
,,,,,V3_030,21,Female,2024-10-21_16h18.15.789,jersey_experiment_5_v3,2023.2.2,Win32,84.74576271,,,,,,,,,,,,,,,,768.6049,769.8992,769.8992,771.5577,return,0.1479,,49.609375,,,,,,FBP-PT-18.png,0.37,1.2,22,0.5,,,,,,,,,,,,,0,31,31,21,1,,,,,,,,,,,,,,,,,,,,,,,,,,,,
,,,,,V3_030,21,Female,2024-10-21_16h18.15.789,jersey_experiment_5_v3,2023.2.2,Win32,84.74576271,,,,,,,,,,,,,,,,771.558,772.852,772.8521,774.1813,return,0.1216,,23.95833333,,,,,,FBP-PT-17.png,0.35,1.2,16,0.5,,,,,,,,,,,,,0,32,32,15,1,,,,,,,,,,,,,,,,,,,,,,,,,,,,
,,,,,V3_030,21,Female,2024-10-21_16h18.15.789,jersey_experiment_5_v3,2023.2.2,Win32,84.74576271,,,,,,,,,,,,,,,,774.1816,775.4757,775.4758,776.7346,return,0.2356,,98.4375,,,,,,FBP-PT-19.png,0.45,1.2,30,0.5,,,,,,,,,,,,,0,33,33,29,1,,,,,,,,,,,,,,,,,,,,,,,,,,,,
,,,,,V3_030,21,Female,2024-10-21_16h18.15.789,jersey_experiment_5_v3,2023.2.2,Win32,84.74576271,,,,,,,,,,,,,,,,776.7348,778.0287,778.0288,779.3346,return,0.1689,,99.47916667,,,,,,FBP-RB-17.png,0.45,1.2,50,0.5,,,,,,,,,,,,,0,34,34,49,1,,,,,,,,,,,,,,,,,,,,,,,,,,,,
,,,,,V3_030,21,Female,2024-10-21_16h18.15.789,jersey_experiment_5_v3,2023.2.2,Win32,84.74576271,,,,,,,,,,,,,,,,779.3348,780.6288,780.629,781.9463,return,0.1658,,24.34895833,,,,,,FBP-RB-19.png,0.35,1.2,56,0.5,,,,,,,,,,,,,0,35,35,55,1,,,,,,,,,,,,,,,,,,,,,,,,,,,,
,,,,,V3_030,21,Female,2024-10-21_16h18.15.789,jersey_experiment_5_v3,2023.2.2,Win32,84.74576271,,,,,,,,,,,,,,,,781.9465,783.2404,783.2405,784.3464,return,0.0872,,77.734375,,,,,,FBP-RB-19.png,0.43,1.2,59,0.5,,,,,,,,,,,,,0,36,36,58,1,,,,,,,,,,,,,,,,,,,,,,,,,,,,
,,,,,V3_030,21,Female,2024-10-21_16h18.15.789,jersey_experiment_5_v3,2023.2.2,Win32,84.74576271,,,,,,,,,,,,,,,,784.3465,785.6408,785.6408,787.4525,return,0.1339,,24.34895833,,,,,,FBP-YG-81.png,0.35,1.2,6,0.5,,,,,,,,,,,,,0,37,37,5,1,,,,,,,,,,,,,,,,,,,,,,,,,,,,
,,,,,V3_030,21,Female,2024-10-21_16h18.15.789,jersey_experiment_5_v3,2023.2.2,Win32,84.74576271,,,,,,,,,,,,,,,,787.4527,788.7468,788.7468,789.8644,return,0.0044,,74.34895833,,,,,,FBP-PT-19.png,0.43,1.2,29,0.5,,,,,,,,,,,,,0,38,38,28,1,,,,,,,,,,,,,,,,,,,,,,,,,,,,
,,,,,V3_030,21,Female,2024-10-21_16h18.15.789,jersey_experiment_5_v3,2023.2.2,Win32,84.74576271,,,,,,,,,,,,,,,,789.8645,791.4174,791.4174,792.2057,return,0.1181,,50.390625,,,,,,FBP-OG-18.png,0.4,1.2,38,0.75,,,,,,,,,,,,,0,39,39,37,1,,,,,,,,,,,,,,,,,,,,,,,,,,,,
,,,,,V3_030,21,Female,2024-10-21_16h18.15.789,jersey_experiment_5_v3,2023.2.2,Win32,84.74576271,,,,,,,,,,,,,,,,792.2061,793.4996,793.4997,794.8411,return,0.0859,,32.94270833,,,,,,FBP-PT-19.png,0.37,1.2,27,0.5,,,,,,,,,,,,,0,40,40,26,1,,,,,,,,,,,,,,,,,,,,,,,,,,,,
,,,,,V3_030,21,Female,2024-10-21_16h18.15.789,jersey_experiment_5_v3,2023.2.2,Win32,84.74576271,,,,,,,,,,,,,,,,794.8413,796.1352,796.1352,798.0763,return,0.0474,,73.828125,,,,,,FBP-PT-18.png,0.45,1.2,25,0.5,,,,,,,,,,,,,0,41,41,24,1,,,,,,,,,,,,,,,,,,,,,,,,,,,,
,,,,,V3_030,21,Female,2024-10-21_16h18.15.789,jersey_experiment_5_v3,2023.2.2,Win32,84.74576271,,,,,,,,,,,,,,,,798.0766,799.3707,799.3707,800.7238,return,0.1488,,19.921875,,,,,,FBP-YG-91.png,0.35,1.2,11,0.5,,,,,,,,,,,,,0,42,42,10,1,,,,,,,,,,,,,,,,,,,,,,,,,,,,
,,,,,V3_030,21,Female,2024-10-21_16h18.15.789,jersey_experiment_5_v3,2023.2.2,Win32,84.74576271,,,,,,,,,,,,,,,,800.7241,802.0178,802.0178,803.1589,return,0.1704,,15.36458333,,,,,,FBP-PT-19.png,0.35,1.2,26,0.5,,,,,,,,,,,,,0,43,43,25,1,,,,,,,,,,,,,,,,,,,,,,,,,,,,
,,,,,V3_030,21,Female,2024-10-21_16h18.15.789,jersey_experiment_5_v3,2023.2.2,Win32,84.74576271,,,,,,,,,,,,,,,,803.1592,804.4533,804.4533,806.8768,return,1.163,,87.890625,,,,,,FBP-RB-17.png,0.43,1.2,49,0.5,,,,,,,,,,,,,0,44,44,48,1,,,,,,,,,,,,,,,,,,,,,,,,,,,,
,,,,,V3_030,21,Female,2024-10-21_16h18.15.789,jersey_experiment_5_v3,2023.2.2,Win32,84.74576271,,,,,,,,,,,,,,,,806.8771,808.4299,808.4299,809.6768,return,0.2121,,83.203125,,,,,,FBP-OG-19.png,0.43,1.2,44,0.75,,,,,,,,,,,,,0,45,45,43,1,,,,,,,,,,,,,,,,,,,,,,,,,,,,
,,,,,V3_030,21,Female,2024-10-21_16h18.15.789,jersey_experiment_5_v3,2023.2.2,Win32,84.74576271,,,,,,,,,,,,,,,,809.677,810.9711,810.9712,811.924,return,0.2635,,83.33333333,,,,,,FBP-YG-81.png,0.43,1.2,9,0.5,,,,,,,,,,,,,0,46,46,8,1,,,,,,,,,,,,,,,,,,,,,,,,,,,,
,,,,,V3_030,21,Female,2024-10-21_16h18.15.789,jersey_experiment_5_v3,2023.2.2,Win32,84.74576271,,,,,,,,,,,,,,,,811.9242,813.4771,813.4771,814.5829,return,0.143,,98.30729167,,,,,,FBP-OG-18.png,0.45,1.2,40,0.75,,,,,,,,,,,,,0,47,47,39,1,,,,,,,,,,,,,,,,,,,,,,,,,,,,
,,,,,V3_030,21,Female,2024-10-21_16h18.15.789,jersey_experiment_5_v3,2023.2.2,Win32,84.74576271,,,,,,,,,,,,,,,,814.5832,816.1359,816.136,817.7242,return,0.8819,,90.625,,,,,,FBP-OG-18.png,0.43,1.2,39,0.75,,,,,,,,,,,,,0,48,48,38,1,,,,,,,,,,,,,,,,,,,,,,,,,,,,
,,,,,V3_030,21,Female,2024-10-21_16h18.15.789,jersey_experiment_5_v3,2023.2.2,Win32,84.74576271,,,,,,,,,,,,,,,,817.7247,819.2773,819.2773,820.5477,return,0.0881,,25.78125,,,,,,FBP-OG-18.png,0.35,1.2,36,0.75,,,,,,,,,,,,,0,49,49,35,1,,,,,,,,,,,,,,,,,,,,,,,,,,,,
,,,,,V3_030,21,Female,2024-10-21_16h18.15.789,jersey_experiment_5_v3,2023.2.2,Win32,84.74576271,,,,,,,,,,,,,,,,820.548,821.8419,821.842,825.0186,return,0.2711,,25.26041667,,,,,,FBP-YG-91.png,0.45,1.2,15,0.5,,,,,,,,,,,,,0,50,50,14,1,,,,,,,,,,,,,,,,,,,,,,,,,,,,
,,,,,V3_030,21,Female,2024-10-21_16h18.15.789,jersey_experiment_5_v3,2023.2.2,Win32,84.74576271,,,,,,,,,,,,,,,,825.0188,826.3128,826.3129,827.254,return,0.1951,,25.390625,,,,,,FBP-YG-81.png,0.37,1.2,7,0.5,,,,,,,,,,,,,0,51,51,6,1,,,,,,,,,,,,,,,,,,,,,,,,,,,,
,,,,,V3_030,21,Female,2024-10-21_16h18.15.789,jersey_experiment_5_v3,2023.2.2,Win32,84.74576271,,,,,,,,,,,,,,,,827.2542,828.5483,828.5483,830.8423,return,1.2266,,38.41145833,,,,,,FBP-PT-17.png,0.37,1.2,17,0.5,,,,,,,,,,,,,0,52,52,16,1,,,,,,,,,,,,,,,,,,,,,,,,,,,,
,,,,,V3_030,21,Female,2024-10-21_16h18.15.789,jersey_experiment_5_v3,2023.2.2,Win32,84.74576271,,,,,,,,,,,,,,,,830.8426,832.3954,832.3954,833.5483,return,0.187,,98.4375,,,,,,FBP-OG-17.png,0.45,1.2,35,0.75,,,,,,,,,,,,,0,53,53,34,1,,,,,,,,,,,,,,,,,,,,,,,,,,,,
,,,,,V3_030,21,Female,2024-10-21_16h18.15.789,jersey_experiment_5_v3,2023.2.2,Win32,84.74576271,,,,,,,,,,,,,,,,833.5485,834.8425,834.8425,836.7131,return,0.1524,,17.578125,,,,,,FBP-RB-18.png,0.35,1.2,51,0.5,,,,,,,,,,,,,0,54,54,50,1,,,,,,,,,,,,,,,,,,,,,,,,,,,,
,,,,,V3_030,21,Female,2024-10-21_16h18.15.789,jersey_experiment_5_v3,2023.2.2,Win32,84.74576271,,,,,,,,,,,,,,,,836.7134,838.2664,838.2664,839.6896,return,0.2382,,25.390625,,,,,,FBP-OG-17.png,0.37,1.2,32,0.75,,,,,,,,,,,,,0,55,55,31,1,,,,,,,,,,,,,,,,,,,,,,,,,,,,
,,,,,V3_030,21,Female,2024-10-21_16h18.15.789,jersey_experiment_5_v3,2023.2.2,Win32,84.74576271,,,,,,,,,,,,,,,,839.6899,840.9842,840.9842,842.9722,return,0.4315,,98.828125,,,,,,FBP-YG-71.png,0.45,1.2,5,0.5,,,,,,,,,,,,,0,56,56,4,1,,,,,,,,,,,,,,,,,,,,,,,,,,,,
,,,,,V3_030,21,Female,2024-10-21_16h18.15.789,jersey_experiment_5_v3,2023.2.2,Win32,84.74576271,,,,,,,,,,,,,,,,842.9724,844.5253,844.5253,845.9959,return,0.1862,,10.9375,,,,,,FBP-OG-17.png,0.35,1.2,31,0.75,,,,,,,,,,,,,0,57,57,30,1,,,,,,,,,,,,,,,,,,,,,,,,,,,,
,,,,,V3_030,21,Female,2024-10-21_16h18.15.789,jersey_experiment_5_v3,2023.2.2,Win32,84.74576271,,,,,,,,,,,,,,,,845.9962,847.2901,847.2901,849.8548,return,0.6102,,25.52083333,,,,,,FBP-PT-19.png,0.4,1.2,28,0.5,,,,,,,,,,,,,0,58,58,27,1,,,,,,,,,,,,,,,,,,,,,,,,,,,,
,,,,,V3_030,21,Female,2024-10-21_16h18.15.789,jersey_experiment_5_v3,2023.2.2,Win32,84.74576271,,,,,,,,,,,,,,,,849.8549,851.1493,851.1493,852.702,return,0.1632,,8.854166667,,,,,,FBP-RB-17.png,0.35,1.2,46,0.5,,,,,,,,,,,,,0,59,59,45,1,,,,,,,,,,,,,,,,,,,,,,,,,,,,
,,,,,V3_030,21,Female,2024-10-21_16h18.15.789,jersey_experiment_5_v3,2023.2.2,Win32,84.74576271,,,,,,,,,,,,,,,,852.7034,853.9963,853.9963,855.2433,return,0.1884,,6.770833333,,,,,,FBP-RB-81.png,0.37,1.2,52,0.5,,,,,,,,,,,,,,,,,,0,0,0,51,1,,,,,,,,,,,,,,,,,,,,,,,
,,,,,V3_030,21,Female,2024-10-21_16h18.15.789,jersey_experiment_5_v3,2023.2.2,Win32,84.74576271,,,,,,,,,,,,,,,,855.2436,856.5375,856.5375,857.655,return,0.0161,,75,,,,,,FBP-RB-81.png,0.45,1.2,55,0.5,,,,,,,,,,,,,,,,,,0,1,1,54,1,,,,,,,,,,,,,,,,,,,,,,,
,,,,,V3_030,21,Female,2024-10-21_16h18.15.789,jersey_experiment_5_v3,2023.2.2,Win32,84.74576271,,,,,,,,,,,,,,,,857.6552,858.9492,858.9493,861.2082,return,0.8514,,24.609375,,,,,,FBP-YG-19.png,0.35,1.2,11,0.5,,,,,,,,,,,,,,,,,,0,2,2,10,1,,,,,,,,,,,,,,,,,,,,,,,
,,,,,V3_030,21,Female,2024-10-21_16h18.15.789,jersey_experiment_5_v3,2023.2.2,Win32,84.74576271,,,,,,,,,,,,,,,,861.2085,862.5023,862.5024,863.8788,return,0.1433,,74.73958333,,,,,,FBP-PT-71.png,0.43,1.2,19,0.5,,,,,,,,,,,,,,,,,,0,3,3,18,1,,,,,,,,,,,,,,,,,,,,,,,
,,,,,V3_030,21,Female,2024-10-21_16h18.15.789,jersey_experiment_5_v3,2023.2.2,Win32,84.74576271,,,,,,,,,,,,,,,,863.879,865.4319,865.432,867.1497,return,0.141,,72.39583333,,,,,,FBP-OG-71.png,0.43,1.2,34,0.75,,,,,,,,,,,,,,,,,,0,4,4,33,1,,,,,,,,,,,,,,,,,,,,,,,
,,,,,V3_030,21,Female,2024-10-21_16h18.15.789,jersey_experiment_5_v3,2023.2.2,Win32,84.74576271,,,,,,,,,,,,,,,,867.15,868.7027,868.7028,869.6793,return,0.1998,,85.80729167,,,,,,FBP-OG-71.png,0.45,1.2,35,0.75,,,,,,,,,,,,,,,,,,0,5,5,34,1,,,,,,,,,,,,,,,,,,,,,,,
,,,,,V3_030,21,Female,2024-10-21_16h18.15.789,jersey_experiment_5_v3,2023.2.2,Win32,84.74576271,,,,,,,,,,,,,,,,869.6796,870.9734,870.9735,872.4086,return,0.3673,,25.52083333,,,,,,FBP-RB-91.png,0.35,1.2,56,0.5,,,,,,,,,,,,,,,,,,0,6,6,55,1,,,,,,,,,,,,,,,,,,,,,,,
,,,,,V3_030,21,Female,2024-10-21_16h18.15.789,jersey_experiment_5_v3,2023.2.2,Win32,84.74576271,,,,,,,,,,,,,,,,872.4088,873.703,873.703,875.5735,return,0.3248,,74.47916667,,,,,,FBP-YG-17.png,0.45,1.2,5,0.5,,,,,,,,,,,,,,,,,,0,7,7,4,1,,,,,,,,,,,,,,,,,,,,,,,
,,,,,V3_030,21,Female,2024-10-21_16h18.15.789,jersey_experiment_5_v3,2023.2.2,Win32,84.74576271,,,,,,,,,,,,,,,,875.5738,876.8678,876.8678,878.55,return,0.1477,,38.671875,,,,,,FBP-YG-18.png,0.35,1.2,6,0.5,,,,,,,,,,,,,,,,,,0,8,8,5,1,,,,,,,,,,,,,,,,,,,,,,,
,,,,,V3_030,21,Female,2024-10-21_16h18.15.789,jersey_experiment_5_v3,2023.2.2,Win32,84.74576271,,,,,,,,,,,,,,,,878.5503,879.8443,879.8443,882.4914,return,0.8384,,37.5,,,,,,FBP-PT-71.png,0.35,1.2,16,0.5,,,,,,,,,,,,,,,,,,0,9,9,15,1,,,,,,,,,,,,,,,,,,,,,,,
,,,,,V3_030,21,Female,2024-10-21_16h18.15.789,jersey_experiment_5_v3,2023.2.2,Win32,84.74576271,,,,,,,,,,,,,,,,882.4917,883.7856,883.7856,884.809,return,0.0979,,56.11979167,,,,,,FBP-YG-18.png,0.4,1.2,8,0.5,,,,,,,,,,,,,,,,,,0,10,10,7,1,,,,,,,,,,,,,,,,,,,,,,,
,,,,,V3_030,21,Female,2024-10-21_16h18.15.789,jersey_experiment_5_v3,2023.2.2,Win32,84.74576271,,,,,,,,,,,,,,,,884.8092,886.1032,886.1032,887.3857,return,0.1813,,75.390625,,,,,,FBP-RB-91.png,0.43,1.2,59,0.5,,,,,,,,,,,,,,,,,,0,11,11,58,1,,,,,,,,,,,,,,,,,,,,,,,
,,,,,V3_030,21,Female,2024-10-21_16h18.15.789,jersey_experiment_5_v3,2023.2.2,Win32,84.74576271,,,,,,,,,,,,,,,,887.3859,888.6798,888.6798,890.5861,return,0.2268,,98.30729167,,,,,,FBP-YG-18.png,0.45,1.2,10,0.5,,,,,,,,,,,,,,,,,,0,12,12,9,1,,,,,,,,,,,,,,,,,,,,,,,
,,,,,V3_030,21,Female,2024-10-21_16h18.15.789,jersey_experiment_5_v3,2023.2.2,Win32,84.74576271,,,,,,,,,,,,,,,,890.5864,891.8801,891.8802,893.8447,return,0.8189,,98.69791667,,,,,,FBP-RB-71.png,0.45,1.2,50,0.5,,,,,,,,,,,,,,,,,,0,13,13,49,1,,,,,,,,,,,,,,,,,,,,,,,
,,,,,V3_030,21,Female,2024-10-21_16h18.15.789,jersey_experiment_5_v3,2023.2.2,Win32,84.74576271,,,,,,,,,,,,,,,,893.845,895.3978,895.3979,896.5742,return,0.1732,,97.91666667,,,,,,FBP-OG-91.png,0.45,1.2,45,0.75,,,,,,,,,,,,,,,,,,0,14,14,44,1,,,,,,,,,,,,,,,,,,,,,,,
,,,,,V3_030,21,Female,2024-10-21_16h18.15.789,jersey_experiment_5_v3,2023.2.2,Win32,84.74576271,,,,,,,,,,,,,,,,896.5745,897.8684,897.8685,899.2213,return,0.2413,,35.80729167,,,,,,FBP-PT-91.png,0.37,1.2,27,0.5,,,,,,,,,,,,,,,,,,0,15,15,26,1,,,,,,,,,,,,,,,,,,,,,,,
,,,,,V3_030,21,Female,2024-10-21_16h18.15.789,jersey_experiment_5_v3,2023.2.2,Win32,84.74576271,,,,,,,,,,,,,,,,899.2216,900.5156,900.5156,902.2214,return,0.1647,,49.21875,,,,,,FBP-RB-71.png,0.4,1.2,48,0.5,,,,,,,,,,,,,,,,,,0,16,16,47,1,,,,,,,,,,,,,,,,,,,,,,,
,,,,,V3_030,21,Female,2024-10-21_16h18.15.789,jersey_experiment_5_v3,2023.2.2,Win32,84.74576271,,,,,,,,,,,,,,,,902.2218,903.5157,903.5157,904.4922,return,0.0618,,48.95833333,,,,,,FBP-YG-17.png,0.4,1.2,3,0.5,,,,,,,,,,,,,,,,,,0,17,17,2,1,,,,,,,,,,,,,,,,,,,,,,,
,,,,,V3_030,21,Female,2024-10-21_16h18.15.789,jersey_experiment_5_v3,2023.2.2,Win32,84.74576271,,,,,,,,,,,,,,,,904.4924,905.7863,905.7864,907.4335,return,0.6268,,36.71875,,,,,,FBP-RB-71.png,0.37,1.2,47,0.5,,,,,,,,,,,,,,,,,,0,18,18,46,1,,,,,,,,,,,,,,,,,,,,,,,
,,,,,V3_030,21,Female,2024-10-21_16h18.15.789,jersey_experiment_5_v3,2023.2.2,Win32,84.74576271,,,,,,,,,,,,,,,,907.4337,908.9865,908.9866,910.4573,return,0.3803,,74.08854167,,,,,,FBP-OG-81.png,0.45,1.2,40,0.75,,,,,,,,,,,,,,,,,,0,19,19,39,1,,,,,,,,,,,,,,,,,,,,,,,
,,,,,V3_030,21,Female,2024-10-21_16h18.15.789,jersey_experiment_5_v3,2023.2.2,Win32,84.74576271,,,,,,,,,,,,,,,,910.4577,911.7513,911.7513,913.6927,return,0.5648,,25.26041667,,,,,,FBP-RB-91.png,0.4,1.2,58,0.5,,,,,,,,,,,,,,,,,,0,20,20,57,1,,,,,,,,,,,,,,,,,,,,,,,
,,,,,V3_030,21,Female,2024-10-21_16h18.15.789,jersey_experiment_5_v3,2023.2.2,Win32,84.74576271,,,,,,,,,,,,,,,,913.6929,915.2457,915.2457,916.6693,return,0.2592,,25.26041667,,,,,,FBP-OG-71.png,0.37,1.2,32,0.75,,,,,,,,,,,,,,,,,,0,21,21,31,1,,,,,,,,,,,,,,,,,,,,,,,
,,,,,V3_030,21,Female,2024-10-21_16h18.15.789,jersey_experiment_5_v3,2023.2.2,Win32,84.74576271,,,,,,,,,,,,,,,,916.6696,918.2222,918.2224,919.6105,return,0.131,,15.75520833,,,,,,FBP-OG-81.png,0.35,1.2,36,0.75,,,,,,,,,,,,,,,,,,0,22,22,35,1,,,,,,,,,,,,,,,,,,,,,,,
,,,,,V3_030,21,Female,2024-10-21_16h18.15.789,jersey_experiment_5_v3,2023.2.2,Win32,84.74576271,,,,,,,,,,,,,,,,919.6108,920.9048,920.9048,922.187,return,0.2045,,16.796875,,,,,,FBP-RB-71.png,0.35,1.2,46,0.5,,,,,,,,,,,,,,,,,,0,23,23,45,1,,,,,,,,,,,,,,,,,,,,,,,
,,,,,V3_030,21,Female,2024-10-21_16h18.15.789,jersey_experiment_5_v3,2023.2.2,Win32,84.74576271,,,,,,,,,,,,,,,,922.1873,923.4811,923.4812,925.5283,return,0.5659,,77.08333333,,,,,,FBP-YG-19.png,0.43,1.2,14,0.5,,,,,,,,,,,,,,,,,,0,24,24,13,1,,,,,,,,,,,,,,,,,,,,,,,
,,,,,V3_030,21,Female,2024-10-21_16h18.15.789,jersey_experiment_5_v3,2023.2.2,Win32,84.74576271,,,,,,,,,,,,,,,,925.5285,926.8226,926.8226,928.3168,return,0.5648,,73.828125,,,,,,FBP-PT-81.png,0.4,1.2,23,0.5,,,,,,,,,,,,,,,,,,0,25,25,22,1,,,,,,,,,,,,,,,,,,,,,,,
,,,,,V3_030,21,Female,2024-10-21_16h18.15.789,jersey_experiment_5_v3,2023.2.2,Win32,84.74576271,,,,,,,,,,,,,,,,928.3171,929.6109,929.6109,931.1169,return,0.306,,84.89583333,,,,,,FBP-PT-91.png,0.43,1.2,29,0.5,,,,,,,,,,,,,,,,,,0,26,26,28,1,,,,,,,,,,,,,,,,,,,,,,,
,,,,,V3_030,21,Female,2024-10-21_16h18.15.789,jersey_experiment_5_v3,2023.2.2,Win32,84.74576271,,,,,,,,,,,,,,,,931.1174,932.4111,932.4111,934.7639,return,1.036,,72.65625,,,,,,FBP-PT-91.png,0.35,1.2,26,0.5,,,,,,,,,,,,,,,,,,0,27,27,25,1,,,,,,,,,,,,,,,,,,,,,,,
,,,,,V3_030,21,Female,2024-10-21_16h18.15.789,jersey_experiment_5_v3,2023.2.2,Win32,84.74576271,,,,,,,,,,,,,,,,934.7643,936.0582,936.0583,938.5875,return,0.2252,,62.23958333,,,,,,FBP-YG-19.png,0.4,1.2,13,0.5,,,,,,,,,,,,,,,,,,0,28,28,12,1,,,,,,,,,,,,,,,,,,,,,,,
,,,,,V3_030,21,Female,2024-10-21_16h18.15.789,jersey_experiment_5_v3,2023.2.2,Win32,84.74576271,,,,,,,,,,,,,,,,938.5878,939.8817,939.8818,941.9289,return,0.1333,,50.91145833,,,,,,FBP-PT-81.png,0.37,1.2,22,0.5,,,,,,,,,,,,,,,,,,0,29,29,21,1,,,,,,,,,,,,,,,,,,,,,,,
,,,,,V3_030,21,Female,2024-10-21_16h18.15.789,jersey_experiment_5_v3,2023.2.2,Win32,84.74576271,,,,,,,,,,,,,,,,941.9293,943.482,943.4821,944.3644,return,0.1275,,27.47395833,,,,,,FBP-OG-71.png,0.35,1.2,31,0.75,,,,,,,,,,,,,,,,,,0,30,30,30,1,,,,,,,,,,,,,,,,,,,,,,,
,,,,,V3_030,21,Female,2024-10-21_16h18.15.789,jersey_experiment_5_v3,2023.2.2,Win32,84.74576271,,,,,,,,,,,,,,,,944.3648,945.6584,945.6584,952.9999,return,5.9683,,51.171875,,,,,,FBP-PT-71.png,0.4,1.2,18,0.5,,,,,,,,,,,,,,,,,,0,31,31,17,1,,,,,,,,,,,,,,,,,,,,,,,
,,,,,V3_030,21,Female,2024-10-21_16h18.15.789,jersey_experiment_5_v3,2023.2.2,Win32,84.74576271,,,,,,,,,,,,,,,,953.0002,954.294,954.294,956.0117,return,0.3387,,76.5625,,,,,,FBP-PT-81.png,0.43,1.2,24,0.5,,,,,,,,,,,,,,,,,,0,32,32,23,1,,,,,,,,,,,,,,,,,,,,,,,
,,,,,V3_030,21,Female,2024-10-21_16h18.15.789,jersey_experiment_5_v3,2023.2.2,Win32,84.74576271,,,,,,,,,,,,,,,,956.0119,957.306,957.306,960.412,return,0.636,,99.08854167,,,,,,FBP-PT-81.png,0.45,1.2,25,0.5,,,,,,,,,,,,,,,,,,0,33,33,24,1,,,,,,,,,,,,,,,,,,,,,,,
,,,,,V3_030,21,Female,2024-10-21_16h18.15.789,jersey_experiment_5_v3,2023.2.2,Win32,84.74576271,,,,,,,,,,,,,,,,960.4123,961.7061,961.7061,964.365,return,0.5176,,48.69791667,,,,,,FBP-YG-19.png,0.37,1.2,12,0.5,,,,,,,,,,,,,,,,,,0,34,34,11,1,,,,,,,,,,,,,,,,,,,,,,,
,,,,,V3_030,21,Female,2024-10-21_16h18.15.789,jersey_experiment_5_v3,2023.2.2,Win32,84.74576271,,,,,,,,,,,,,,,,964.3653,965.6592,965.6592,967.2592,return,0.3412,,32.16145833,,,,,,FBP-YG-17.png,0.35,1.2,1,0.5,,,,,,,,,,,,,,,,,,0,35,35,0,1,,,,,,,,,,,,,,,,,,,,,,,
,,,,,V3_030,21,Female,2024-10-21_16h18.15.789,jersey_experiment_5_v3,2023.2.2,Win32,84.74576271,,,,,,,,,,,,,,,,967.2594,968.8123,968.8123,970.2476,return,0.2404,,72.91666667,,,,,,FBP-OG-91.png,0.4,1.2,43,0.75,,,,,,,,,,,,,,,,,,0,36,36,42,1,,,,,,,,,,,,,,,,,,,,,,,
,,,,,V3_030,21,Female,2024-10-21_16h18.15.789,jersey_experiment_5_v3,2023.2.2,Win32,84.74576271,,,,,,,,,,,,,,,,970.2479,971.8005,971.8006,980.5894,return,7.5455,,76.43229167,,,,,,FBP-OG-81.png,0.4,1.2,38,0.75,,,,,,,,,,,,,,,,,,0,37,37,37,1,,,,,,,,,,,,,,,,,,,,,,,
,,,,,V3_030,21,Female,2024-10-21_16h18.15.789,jersey_experiment_5_v3,2023.2.2,Win32,84.74576271,,,,,,,,,,,,,,,,980.5896,981.8832,981.8833,983.3069,return,0.2837,,85.9375,,,,,,FBP-YG-19.png,0.45,1.2,15,0.5,,,,,,,,,,,,,,,,,,0,38,38,14,1,,,,,,,,,,,,,,,,,,,,,,,
,,,,,V3_030,21,Female,2024-10-21_16h18.15.789,jersey_experiment_5_v3,2023.2.2,Win32,84.74576271,,,,,,,,,,,,,,,,983.3071,984.8599,984.86,986.5189,return,0.2631,,48.69791667,,,,,,FBP-OG-91.png,0.35,1.2,41,0.75,,,,,,,,,,,,,,,,,,0,39,39,40,1,,,,,,,,,,,,,,,,,,,,,,,
,,,,,V3_030,21,Female,2024-10-21_16h18.15.789,jersey_experiment_5_v3,2023.2.2,Win32,84.74576271,,,,,,,,,,,,,,,,986.5192,988.072,988.072,989.4601,return,0.397,,73.95833333,,,,,,FBP-OG-81.png,0.43,1.2,39,0.75,,,,,,,,,,,,,,,,,,0,40,40,38,1,,,,,,,,,,,,,,,,,,,,,,,
,,,,,V3_030,21,Female,2024-10-21_16h18.15.789,jersey_experiment_5_v3,2023.2.2,Win32,84.74576271,,,,,,,,,,,,,,,,989.4603,991.0132,991.0134,992.0839,return,0.3388,,44.140625,,,,,,FBP-OG-81.png,0.37,1.2,37,0.75,,,,,,,,,,,,,,,,,,0,41,41,36,1,,,,,,,,,,,,,,,,,,,,,,,
,,,,,V3_030,21,Female,2024-10-21_16h18.15.789,jersey_experiment_5_v3,2023.2.2,Win32,84.74576271,,,,,,,,,,,,,,,,992.0843,993.6366,993.6366,994.5662,return,0.3473,,44.53125,,,,,,FBP-OG-91.png,0.37,1.2,42,0.75,,,,,,,,,,,,,,,,,,0,42,42,41,1,,,,,,,,,,,,,,,,,,,,,,,
,,,,,V3_030,21,Female,2024-10-21_16h18.15.789,jersey_experiment_5_v3,2023.2.2,Win32,84.74576271,,,,,,,,,,,,,,,,994.5665,996.1193,996.1194,997.8603,return,0.525,,94.66145833,,,,,,FBP-OG-91.png,0.43,1.2,44,0.75,,,,,,,,,,,,,,,,,,0,43,43,43,1,,,,,,,,,,,,,,,,,,,,,,,
,,,,,V3_030,21,Female,2024-10-21_16h18.15.789,jersey_experiment_5_v3,2023.2.2,Win32,84.74576271,,,,,,,,,,,,,,,,997.8606,999.1546,999.1546,1001.3428,return,0.228,,40.10416667,,,,,,FBP-RB-91.png,0.37,1.2,57,0.5,,,,,,,,,,,,,,,,,,0,44,44,56,1,,,,,,,,,,,,,,,,,,,,,,,
,,,,,V3_030,21,Female,2024-10-21_16h18.15.789,jersey_experiment_5_v3,2023.2.2,Win32,84.74576271,,,,,,,,,,,,,,,,1001.3431,1002.637,1002.637,1004.3666,return,0.3875,,73.56770833,,,,,,FBP-RB-71.png,0.43,1.2,49,0.5,,,,,,,,,,,,,,,,,,0,45,45,48,1,,,,,,,,,,,,,,,,,,,,,,,
,,,,,V3_030,21,Female,2024-10-21_16h18.15.789,jersey_experiment_5_v3,2023.2.2,Win32,84.74576271,,,,,,,,,,,,,,,,1004.3668,1005.6607,1005.6608,1007.049,return,0.1554,,50.26041667,,,,,,FBP-YG-17.png,0.37,1.2,2,0.5,,,,,,,,,,,,,,,,,,0,46,46,1,1,,,,,,,,,,,,,,,,,,,,,,,
,,,,,V3_030,21,Female,2024-10-21_16h18.15.789,jersey_experiment_5_v3,2023.2.2,Win32,84.74576271,,,,,,,,,,,,,,,,1007.0492,1008.3432,1008.3432,1009.1666,return,0.1651,,50.13020833,,,,,,FBP-PT-81.png,0.35,1.2,21,0.5,,,,,,,,,,,,,,,,,,0,47,47,20,1,,,,,,,,,,,,,,,,,,,,,,,
,,,,,V3_030,21,Female,2024-10-21_16h18.15.789,jersey_experiment_5_v3,2023.2.2,Win32,84.74576271,,,,,,,,,,,,,,,,1009.1668,1010.4611,1010.4611,1013.1667,return,2.0475,,52.21354167,,,,,,FBP-PT-71.png,0.37,1.2,17,0.5,,,,,,,,,,,,,,,,,,0,48,48,16,1,,,,,,,,,,,,,,,,,,,,,,,
,,,,,V3_030,21,Female,2024-10-21_16h18.15.789,jersey_experiment_5_v3,2023.2.2,Win32,84.74576271,,,,,,,,,,,,,,,,1013.167,1014.4613,1014.4614,1016.1316,return,0.3855,,82.8125,,,,,,FBP-RB-91.png,0.45,1.2,60,0.5,,,,,,,,,,,,,,,,,,0,49,49,59,1,,,,,,,,,,,,,,,,,,,,,,,
,,,,,V3_030,21,Female,2024-10-21_16h18.15.789,jersey_experiment_5_v3,2023.2.2,Win32,84.74576271,,,,,,,,,,,,,,,,1016.132,1017.4259,1017.426,1019.8494,return,1.3527,,82.29166667,,,,,,FBP-YG-18.png,0.43,1.2,9,0.5,,,,,,,,,,,,,,,,,,0,50,50,8,1,,,,,,,,,,,,,,,,,,,,,,,
,,,,,V3_030,21,Female,2024-10-21_16h18.15.789,jersey_experiment_5_v3,2023.2.2,Win32,84.74576271,,,,,,,,,,,,,,,,1019.8498,1021.1436,1021.1437,1022.438,return,0.1953,,96.35416667,,,,,,FBP-PT-71.png,0.45,1.2,20,0.5,,,,,,,,,,,,,,,,,,0,51,51,19,1,,,,,,,,,,,,,,,,,,,,,,,
,,,,,V3_030,21,Female,2024-10-21_16h18.15.789,jersey_experiment_5_v3,2023.2.2,Win32,84.74576271,,,,,,,,,,,,,,,,1022.4382,1023.732,1023.7321,1025.3204,return,0.2515,,93.48958333,,,,,,FBP-YG-17.png,0.43,1.2,4,0.5,,,,,,,,,,,,,,,,,,0,52,52,3,1,,,,,,,,,,,,,,,,,,,,,,,
,,,,,V3_030,21,Female,2024-10-21_16h18.15.789,jersey_experiment_5_v3,2023.2.2,Win32,84.74576271,,,,,,,,,,,,,,,,1025.3206,1026.6144,1026.6144,1028.6379,return,0.2719,,23.828125,,,,,,FBP-RB-81.png,0.35,1.2,51,0.5,,,,,,,,,,,,,,,,,,0,53,53,50,1,,,,,,,,,,,,,,,,,,,,,,,
,,,,,V3_030,21,Female,2024-10-21_16h18.15.789,jersey_experiment_5_v3,2023.2.2,Win32,84.74576271,,,,,,,,,,,,,,,,1028.638,1030.1794,1030.1795,1031.0615,return,0.1436,,48.046875,,,,,,FBP-OG-71.png,0.4,1.2,33,0.75,,,,,,,,,,,,,,,,,,0,54,54,32,1,,,,,,,,,,,,,,,,,,,,,,,
,,,,,V3_030,21,Female,2024-10-21_16h18.15.789,jersey_experiment_5_v3,2023.2.2,Win32,84.74576271,,,,,,,,,,,,,,,,1031.0617,1032.3557,1032.3558,1033.6381,return,0.4065,,48.828125,,,,,,FBP-PT-91.png,0.4,1.2,28,0.5,,,,,,,,,,,,,,,,,,0,55,55,27,1,,,,,,,,,,,,,,,,,,,,,,,
,,,,,V3_030,21,Female,2024-10-21_16h18.15.789,jersey_experiment_5_v3,2023.2.2,Win32,84.74576271,,,,,,,,,,,,,,,,1033.6384,1034.9323,1034.9324,1036.3794,return,0.2124,,65.75520833,,,,,,FBP-RB-81.png,0.43,1.2,54,0.5,,,,,,,,,,,,,,,,,,0,56,56,53,1,,,,,,,,,,,,,,,,,,,,,,,
,,,,,V3_030,21,Female,2024-10-21_16h18.15.789,jersey_experiment_5_v3,2023.2.2,Win32,84.74576271,,,,,,,,,,,,,,,,1036.3796,1037.6738,1037.6739,1038.9561,return,0.2934,,79.42708333,,,,,,FBP-PT-91.png,0.45,1.2,30,0.5,,,,,,,,,,,,,,,,,,0,57,57,29,1,,,,,,,,,,,,,,,,,,,,,,,
,,,,,V3_030,21,Female,2024-10-21_16h18.15.789,jersey_experiment_5_v3,2023.2.2,Win32,84.74576271,,,,,,,,,,,,,,,,1038.9564,1040.2502,1040.2502,1041.7091,return,0.1648,,49.47916667,,,,,,FBP-YG-18.png,0.37,1.2,7,0.5,,,,,,,,,,,,,,,,,,0,58,58,6,1,,,,,,,,,,,,,,,,,,,,,,,
,,,,,V3_030,21,Female,2024-10-21_16h18.15.789,jersey_experiment_5_v3,2023.2.2,Win32,84.74576271,,,,,,,,,,,,,,,,1041.7094,1043.0034,1043.0034,1044.3093,return,0.0428,,56.90104167,,,,,,FBP-RB-81.png,0.4,1.2,53,0.5,,,,,,,,,,,,,,,,,,0,59,59,52,1,,,,,,,,,,,,,,,,,,,,,,,
,,,,,V3_030,21,Female,2024-10-21_16h18.15.789,jersey_experiment_5_v3,2023.2.2,Win32,84.74576271,,,,,,,,,,,,,,,,,,,,,,,,,,,,,,,,,,,,,,,,,,,,,,,,,,,,,,,,1044.3095,1049.4036,return,5.0825,,,,,,,,,,,,,,,,,,,
,,,,,V3_030,21,Female,2024-10-21_16h18.15.789,jersey_experiment_5_v3,2023.2.2,Win32,84.74576271,,,,,,,,,,,,,,,,,,,,,,,,,,,,,,,,,,,,,,,,,,,,,,,,,,,,,,,,,,,,,1049.4038,1052.7332,2,1.8154,return,1.4972,,,,,,,,,,,,
,,,,,V3_030,21,Female,2024-10-21_16h18.15.789,jersey_experiment_5_v3,2023.2.2,Win32,84.74576271,,,,,,,,,,,,,,,,,,,,,,,,,,,,,,,,,,,,,,,,,,,,,,,,,,,,,,,,,,,,,,,,,,,,1052.7334,1106.9596,"Maybe it's about the order in which they are presented, or about the colours of the Jerseys of the football players (e.g. if certain colours make the players look more slender or husky)",right,50.4358,,,,,,
,,,,,V3_030,21,Female,2024-10-21_16h18.15.789,jersey_experiment_5_v3,2023.2.2,Win32,84.74576271,,,,,,,,,,,,,,,,,,,,,,,,,,,,,,,,,,,,,,,,,,,,,,,,,,,,,,,,,,,,,,,,,,,,,,,,,,1106.9598,1109.1117,return,2.1419,