requirements.started,requirements.stopped,key_resp_3.keys,key_resp_3.rt,key_resp_3.duration,Subject ID,Age,Gender,date,expName,psychopyVersion,OS,frameRate,instructions1.started,instructions1.stopped,key_resp.keys,key_resp.rt,key_resp.duration,example.started,example.stopped,enter_2.keys,enter_2.rt,enter_2.duration,instructions2.started,instructions2.stopped,enter_3.keys,enter_3.rt,enter_3.duration,image.started,image.stopped,slider_2.started,slider_2.stopped,next.keys,next.rt,next.duration,slider.response,trial_block_1.thisRepN,trial_block_1.thisTrialN,trial_block_1.thisN,trial_block_1.thisIndex,trial_block_1.ran,Path,Width,Height,Index,Duration,trial_block_2.thisRepN,trial_block_2.thisTrialN,trial_block_2.thisN,trial_block_2.thisIndex,trial_block_2.ran,rest_break.started,rest_break.stopped,end_break.started,end_break.stopped,key_resp_5.keys,key_resp_5.rt,key_resp_5.duration,trial_block_3.thisRepN,trial_block_3.thisTrialN,trial_block_3.thisN,trial_block_3.thisIndex,trial_block_3.ran,trial_block_4.thisRepN,trial_block_4.thisTrialN,trial_block_4.thisN,trial_block_4.thisIndex,trial_block_4.ran,questions_intro.started,questions_intro.stopped,enter_12.keys,enter_12.rt,enter_12.duration,question2.started,question2.stopped,question_doingbest.response,question_doingbest.rt,enter_15.keys,enter_15.rt,enter_15.duration,pattern.started,pattern.stopped,pattern_2.text,enter_17.keys,enter_17.rt,enter_17.duration,thankyou.started,thankyou.stopped,enter_14.keys,enter_14.rt,enter_14.duration
0.0002,11.991,return,11.9771,,V3_014,18,female,2024-10-15_20h23.10.897,jersey_experiment_5_v3,2023.2.2,Win32,84.74576271,,,,,,,,,,,,,,,,,,,,,,,,,,,,,,,,,,,,,,,,,,,,,,,,,,,,,,,,,,,,,,,,,,,,,,,,,,,,,,
,,,,,V3_014,18,female,2024-10-15_20h23.10.897,jersey_experiment_5_v3,2023.2.2,Win32,84.74576271,11.9911,19.7711,return,7.7652,,,,,,,,,,,,,,,,,,,,,,,,,,,,,,,,,,,,,,,,,,,,,,,,,,,,,,,,,,,,,,,,,,,,,,,,,,
,,,,,V3_014,18,female,2024-10-15_20h23.10.897,jersey_experiment_5_v3,2023.2.2,Win32,84.74576271,,,,,,19.7712,25.0622,return,5.2548,,,,,,,,,,,,,,,,,,,,,,,,,,,,,,,,,,,,,,,,,,,,,,,,,,,,,,,,,,,,,,,,,,,,,
,,,,,V3_014,18,female,2024-10-15_20h23.10.897,jersey_experiment_5_v3,2023.2.2,Win32,84.74576271,,,,,,,,,,,25.0624,39.5684,return,14.4983,,,,,,,,,,,,,,,,,,,,,,,,,,,,,,,,,,,,,,,,,,,,,,,,,,,,,,,,,,,,,,,,
,,,,,V3_014,18,female,2024-10-15_20h23.10.897,jersey_experiment_5_v3,2023.2.2,Win32,84.74576271,,,,,,,,,,,,,,,,39.5705,40.8624,40.8626,45.3333,return,1.3888,,75.390625,0,0,0,34,1,FBP-OG-17.png,0.45,1.2,35,0.5,,,,,,,,,,,,,,,,,,,,,,,,,,,,,,,,,,,,,,,,,,,,,
,,,,,V3_014,18,female,2024-10-15_20h23.10.897,jersey_experiment_5_v3,2023.2.2,Win32,84.74576271,,,,,,,,,,,,,,,,45.3336,46.6274,46.6275,50.6276,return,1.9321,,23.69791667,0,1,1,37,1,FBP-OG-18.png,0.4,1.2,38,0.5,,,,,,,,,,,,,,,,,,,,,,,,,,,,,,,,,,,,,,,,,,,,,
,,,,,V3_014,18,female,2024-10-15_20h23.10.897,jersey_experiment_5_v3,2023.2.2,Win32,84.74576271,,,,,,,,,,,,,,,,50.6279,51.9217,51.9217,54.91,return,1.0199,,8.333333333,0,2,2,40,1,FBP-OG-19.png,0.35,1.2,41,0.5,,,,,,,,,,,,,,,,,,,,,,,,,,,,,,,,,,,,,,,,,,,,,
,,,,,V3_014,18,female,2024-10-15_20h23.10.897,jersey_experiment_5_v3,2023.2.2,Win32,84.74576271,,,,,,,,,,,,,,,,54.9103,56.2044,56.2044,59.0278,return,0.9752,,3.125,0,3,3,30,1,FBP-OG-17.png,0.35,1.2,31,0.5,,,,,,,,,,,,,,,,,,,,,,,,,,,,,,,,,,,,,,,,,,,,,
,,,,,V3_014,18,female,2024-10-15_20h23.10.897,jersey_experiment_5_v3,2023.2.2,Win32,84.74576271,,,,,,,,,,,,,,,,59.0281,60.5809,60.5809,63.6044,return,0.8869,,62.890625,0,4,4,5,1,FBP-YG-81.png,0.35,1.2,6,0.75,,,,,,,,,,,,,,,,,,,,,,,,,,,,,,,,,,,,,,,,,,,,,
,,,,,V3_014,18,female,2024-10-15_20h23.10.897,jersey_experiment_5_v3,2023.2.2,Win32,84.74576271,,,,,,,,,,,,,,,,63.6047,65.1575,65.1576,67.4635,return,0.753,,98.4375,0,5,5,19,1,FBP-PT-17.png,0.45,1.2,20,0.75,,,,,,,,,,,,,,,,,,,,,,,,,,,,,,,,,,,,,,,,,,,,,
,,,,,V3_014,18,female,2024-10-15_20h23.10.897,jersey_experiment_5_v3,2023.2.2,Win32,84.74576271,,,,,,,,,,,,,,,,67.4637,69.0165,69.0165,71.0753,return,0.6852,,95.83333333,0,6,6,47,1,FBP-RB-17.png,0.4,1.2,48,0.75,,,,,,,,,,,,,,,,,,,,,,,,,,,,,,,,,,,,,,,,,,,,,
,,,,,V3_014,18,female,2024-10-15_20h23.10.897,jersey_experiment_5_v3,2023.2.2,Win32,84.74576271,,,,,,,,,,,,,,,,71.0756,72.6284,72.6284,74.9461,return,0.682,,41.015625,0,7,7,20,1,FBP-PT-18.png,0.35,1.2,21,0.75,,,,,,,,,,,,,,,,,,,,,,,,,,,,,,,,,,,,,,,,,,,,,
,,,,,V3_014,18,female,2024-10-15_20h23.10.897,jersey_experiment_5_v3,2023.2.2,Win32,84.74576271,,,,,,,,,,,,,,,,74.9465,76.499,76.499,78.4521,return,0.5789,,84.89583333,0,8,8,12,1,FBP-YG-91.png,0.4,1.2,13,0.75,,,,,,,,,,,,,,,,,,,,,,,,,,,,,,,,,,,,,,,,,,,,,
,,,,,V3_014,18,female,2024-10-15_20h23.10.897,jersey_experiment_5_v3,2023.2.2,Win32,84.74576271,,,,,,,,,,,,,,,,78.4524,80.0051,80.0052,82.4171,return,0.6171,,41.796875,0,9,9,10,1,FBP-YG-91.png,0.35,1.2,11,0.75,,,,,,,,,,,,,,,,,,,,,,,,,,,,,,,,,,,,,,,,,,,,,
,,,,,V3_014,18,female,2024-10-15_20h23.10.897,jersey_experiment_5_v3,2023.2.2,Win32,84.74576271,,,,,,,,,,,,,,,,82.4174,83.97,83.97,86.0171,return,0.6719,,86.06770833,0,10,10,57,1,FBP-RB-19.png,0.4,1.2,58,0.75,,,,,,,,,,,,,,,,,,,,,,,,,,,,,,,,,,,,,,,,,,,,,
,,,,,V3_014,18,female,2024-10-15_20h23.10.897,jersey_experiment_5_v3,2023.2.2,Win32,84.74576271,,,,,,,,,,,,,,,,86.0175,87.5701,87.5702,89.6526,return,0.7551,,98.17708333,0,11,11,49,1,FBP-RB-17.png,0.45,1.2,50,0.75,,,,,,,,,,,,,,,,,,,,,,,,,,,,,,,,,,,,,,,,,,,,,
,,,,,V3_014,18,female,2024-10-15_20h23.10.897,jersey_experiment_5_v3,2023.2.2,Win32,84.74576271,,,,,,,,,,,,,,,,89.6529,91.2056,91.2056,93.6527,return,0.5333,,75.78125,0,12,12,1,1,FBP-YG-71.png,0.37,1.2,2,0.75,,,,,,,,,,,,,,,,,,,,,,,,,,,,,,,,,,,,,,,,,,,,,
,,,,,V3_014,18,female,2024-10-15_20h23.10.897,jersey_experiment_5_v3,2023.2.2,Win32,84.74576271,,,,,,,,,,,,,,,,93.6529,95.2057,95.2057,96.6882,return,0.5828,,94.27083333,0,13,13,23,1,FBP-PT-18.png,0.43,1.2,24,0.75,,,,,,,,,,,,,,,,,,,,,,,,,,,,,,,,,,,,,,,,,,,,,
,,,,,V3_014,18,female,2024-10-15_20h23.10.897,jersey_experiment_5_v3,2023.2.2,Win32,84.74576271,,,,,,,,,,,,,,,,96.6884,98.2411,98.2411,99.8764,return,0.5535,,84.11458333,0,14,14,51,1,FBP-RB-18.png,0.37,1.2,52,0.75,,,,,,,,,,,,,,,,,,,,,,,,,,,,,,,,,,,,,,,,,,,,,
,,,,,V3_014,18,female,2024-10-15_20h23.10.897,jersey_experiment_5_v3,2023.2.2,Win32,84.74576271,,,,,,,,,,,,,,,,99.8767,101.4294,101.4295,104.4884,return,0.5175,,75.65104167,0,15,15,56,1,FBP-RB-19.png,0.37,1.2,57,0.75,,,,,,,,,,,,,,,,,,,,,,,,,,,,,,,,,,,,,,,,,,,,,
,,,,,V3_014,18,female,2024-10-15_20h23.10.897,jersey_experiment_5_v3,2023.2.2,Win32,84.74576271,,,,,,,,,,,,,,,,104.4887,106.0413,106.0413,107.8298,return,0.5731,,75.26041667,0,16,16,55,1,FBP-RB-19.png,0.35,1.2,56,0.75,,,,,,,,,,,,,,,,,,,,,,,,,,,,,,,,,,,,,,,,,,,,,
,,,,,V3_014,18,female,2024-10-15_20h23.10.897,jersey_experiment_5_v3,2023.2.2,Win32,84.74576271,,,,,,,,,,,,,,,,107.83,109.3826,109.3826,110.9004,return,0.4867,,81.11979167,0,17,17,16,1,FBP-PT-17.png,0.37,1.2,17,0.75,,,,,,,,,,,,,,,,,,,,,,,,,,,,,,,,,,,,,,,,,,,,,
,,,,,V3_014,18,female,2024-10-15_20h23.10.897,jersey_experiment_5_v3,2023.2.2,Win32,84.74576271,,,,,,,,,,,,,,,,110.9007,112.4535,112.4535,114.4299,return,0.7024,,96.22395833,0,18,18,3,1,FBP-YG-71.png,0.43,1.2,4,0.75,,,,,,,,,,,,,,,,,,,,,,,,,,,,,,,,,,,,,,,,,,,,,
,,,,,V3_014,18,female,2024-10-15_20h23.10.897,jersey_experiment_5_v3,2023.2.2,Win32,84.74576271,,,,,,,,,,,,,,,,114.4303,115.9828,115.9828,117.7948,return,0.5201,,97.65625,0,19,19,53,1,FBP-RB-18.png,0.43,1.2,54,0.75,,,,,,,,,,,,,,,,,,,,,,,,,,,,,,,,,,,,,,,,,,,,,
,,,,,V3_014,18,female,2024-10-15_20h23.10.897,jersey_experiment_5_v3,2023.2.2,Win32,84.74576271,,,,,,,,,,,,,,,,117.795,119.0889,119.0889,121.0065,return,0.5251,,91.14583333,0,20,20,41,1,FBP-OG-19.png,0.37,1.2,42,0.5,,,,,,,,,,,,,,,,,,,,,,,,,,,,,,,,,,,,,,,,,,,,,
,,,,,V3_014,18,female,2024-10-15_20h23.10.897,jersey_experiment_5_v3,2023.2.2,Win32,84.74576271,,,,,,,,,,,,,,,,121.0068,122.5598,122.5598,124.7361,return,0.5667,,97.65625,0,21,21,18,1,FBP-PT-17.png,0.43,1.2,19,0.75,,,,,,,,,,,,,,,,,,,,,,,,,,,,,,,,,,,,,,,,,,,,,
,,,,,V3_014,18,female,2024-10-15_20h23.10.897,jersey_experiment_5_v3,2023.2.2,Win32,84.74576271,,,,,,,,,,,,,,,,124.7363,126.2892,126.2892,129.5717,return,0.554,,71.875,0,22,22,46,1,FBP-RB-17.png,0.37,1.2,47,0.75,,,,,,,,,,,,,,,,,,,,,,,,,,,,,,,,,,,,,,,,,,,,,
,,,,,V3_014,18,female,2024-10-15_20h23.10.897,jersey_experiment_5_v3,2023.2.2,Win32,84.74576271,,,,,,,,,,,,,,,,129.572,130.8658,130.8658,132.5483,return,0.5334,,67.578125,0,23,23,31,1,FBP-OG-17.png,0.37,1.2,32,0.5,,,,,,,,,,,,,,,,,,,,,,,,,,,,,,,,,,,,,,,,,,,,,
,,,,,V3_014,18,female,2024-10-15_20h23.10.897,jersey_experiment_5_v3,2023.2.2,Win32,84.74576271,,,,,,,,,,,,,,,,132.5485,133.8424,133.8425,135.8307,return,0.5886,,85.41666667,0,24,24,44,1,FBP-OG-19.png,0.45,1.2,45,0.5,,,,,,,,,,,,,,,,,,,,,,,,,,,,,,,,,,,,,,,,,,,,,
,,,,,V3_014,18,female,2024-10-15_20h23.10.897,jersey_experiment_5_v3,2023.2.2,Win32,84.74576271,,,,,,,,,,,,,,,,135.831,137.3837,137.3838,139.0543,return,0.5253,,88.41145833,0,25,25,17,1,FBP-PT-17.png,0.4,1.2,18,0.75,,,,,,,,,,,,,,,,,,,,,,,,,,,,,,,,,,,,,,,,,,,,,
,,,,,V3_014,18,female,2024-10-15_20h23.10.897,jersey_experiment_5_v3,2023.2.2,Win32,84.74576271,,,,,,,,,,,,,,,,139.0545,140.5956,140.5957,142.1839,return,0.4949,,97.65625,0,26,26,9,1,FBP-YG-81.png,0.45,1.2,10,0.75,,,,,,,,,,,,,,,,,,,,,,,,,,,,,,,,,,,,,,,,,,,,,
,,,,,V3_014,18,female,2024-10-15_20h23.10.897,jersey_experiment_5_v3,2023.2.2,Win32,84.74576271,,,,,,,,,,,,,,,,142.1842,143.7369,143.737,145.6192,return,0.5678,,93.22916667,0,27,27,52,1,FBP-RB-18.png,0.4,1.2,53,0.75,,,,,,,,,,,,,,,,,,,,,,,,,,,,,,,,,,,,,,,,,,,,,
,,,,,V3_014,18,female,2024-10-15_20h23.10.897,jersey_experiment_5_v3,2023.2.2,Win32,84.74576271,,,,,,,,,,,,,,,,145.6195,147.1724,147.1725,148.8664,return,0.5551,,40.10416667,0,28,28,15,1,FBP-PT-17.png,0.35,1.2,16,0.75,,,,,,,,,,,,,,,,,,,,,,,,,,,,,,,,,,,,,,,,,,,,,
,,,,,V3_014,18,female,2024-10-15_20h23.10.897,jersey_experiment_5_v3,2023.2.2,Win32,84.74576271,,,,,,,,,,,,,,,,148.8667,150.4194,150.4195,152.8196,return,0.5512,,76.953125,0,29,29,28,1,FBP-PT-19.png,0.43,1.2,29,0.75,,,,,,,,,,,,,,,,,,,,,,,,,,,,,,,,,,,,,,,,,,,,,
,,,,,V3_014,18,female,2024-10-15_20h23.10.897,jersey_experiment_5_v3,2023.2.2,Win32,84.74576271,,,,,,,,,,,,,,,,152.8198,154.3727,154.3727,155.8785,return,0.5179,,92.44791667,0,30,30,29,1,FBP-PT-19.png,0.45,1.2,30,0.75,,,,,,,,,,,,,,,,,,,,,,,,,,,,,,,,,,,,,,,,,,,,,
,,,,,V3_014,18,female,2024-10-15_20h23.10.897,jersey_experiment_5_v3,2023.2.2,Win32,84.74576271,,,,,,,,,,,,,,,,155.8788,157.1726,157.1727,159.2551,return,0.613,,45.703125,0,31,31,35,1,FBP-OG-18.png,0.35,1.2,36,0.5,,,,,,,,,,,,,,,,,,,,,,,,,,,,,,,,,,,,,,,,,,,,,
,,,,,V3_014,18,female,2024-10-15_20h23.10.897,jersey_experiment_5_v3,2023.2.2,Win32,84.74576271,,,,,,,,,,,,,,,,159.2554,160.8081,160.8081,162.4199,return,0.52,,94.66145833,0,32,32,54,1,FBP-RB-18.png,0.45,1.2,55,0.75,,,,,,,,,,,,,,,,,,,,,,,,,,,,,,,,,,,,,,,,,,,,,
,,,,,V3_014,18,female,2024-10-15_20h23.10.897,jersey_experiment_5_v3,2023.2.2,Win32,84.74576271,,,,,,,,,,,,,,,,162.4202,163.973,163.973,165.3966,return,0.533,,98.828125,0,33,33,14,1,FBP-YG-91.png,0.45,1.2,15,0.75,,,,,,,,,,,,,,,,,,,,,,,,,,,,,,,,,,,,,,,,,,,,,
,,,,,V3_014,18,female,2024-10-15_20h23.10.897,jersey_experiment_5_v3,2023.2.2,Win32,84.74576271,,,,,,,,,,,,,,,,165.3967,166.9496,166.9496,170.079,return,1.9009,,77.47395833,0,34,34,50,1,FBP-RB-18.png,0.35,1.2,51,0.75,,,,,,,,,,,,,,,,,,,,,,,,,,,,,,,,,,,,,,,,,,,,,
,,,,,V3_014,18,female,2024-10-15_20h23.10.897,jersey_experiment_5_v3,2023.2.2,Win32,84.74576271,,,,,,,,,,,,,,,,170.0792,171.6321,171.6321,173.0557,return,0.5012,,70.18229167,0,35,35,6,1,FBP-YG-81.png,0.37,1.2,7,0.75,,,,,,,,,,,,,,,,,,,,,,,,,,,,,,,,,,,,,,,,,,,,,
,,,,,V3_014,18,female,2024-10-15_20h23.10.897,jersey_experiment_5_v3,2023.2.2,Win32,84.74576271,,,,,,,,,,,,,,,,173.0558,174.3498,174.3499,176.1146,return,0.5056,,86.06770833,0,36,36,43,1,FBP-OG-19.png,0.43,1.2,44,0.5,,,,,,,,,,,,,,,,,,,,,,,,,,,,,,,,,,,,,,,,,,,,,
,,,,,V3_014,18,female,2024-10-15_20h23.10.897,jersey_experiment_5_v3,2023.2.2,Win32,84.74576271,,,,,,,,,,,,,,,,176.1148,177.6675,177.6676,179.7147,return,0.5783,,71.61458333,0,37,37,27,1,FBP-PT-19.png,0.4,1.2,28,0.75,,,,,,,,,,,,,,,,,,,,,,,,,,,,,,,,,,,,,,,,,,,,,
,,,,,V3_014,18,female,2024-10-15_20h23.10.897,jersey_experiment_5_v3,2023.2.2,Win32,84.74576271,,,,,,,,,,,,,,,,179.7151,181.2677,181.2677,182.9032,return,0.6516,,78.515625,0,38,38,2,1,FBP-YG-71.png,0.4,1.2,3,0.75,,,,,,,,,,,,,,,,,,,,,,,,,,,,,,,,,,,,,,,,,,,,,
,,,,,V3_014,18,female,2024-10-15_20h23.10.897,jersey_experiment_5_v3,2023.2.2,Win32,84.74576271,,,,,,,,,,,,,,,,182.9034,184.4561,184.4561,185.8444,return,0.5426,,84.63541667,0,39,39,22,1,FBP-PT-18.png,0.4,1.2,23,0.75,,,,,,,,,,,,,,,,,,,,,,,,,,,,,,,,,,,,,,,,,,,,,
,,,,,V3_014,18,female,2024-10-15_20h23.10.897,jersey_experiment_5_v3,2023.2.2,Win32,84.74576271,,,,,,,,,,,,,,,,185.8448,187.3973,187.3973,189.2328,return,0.5436,,69.140625,0,40,40,21,1,FBP-PT-18.png,0.37,1.2,22,0.75,,,,,,,,,,,,,,,,,,,,,,,,,,,,,,,,,,,,,,,,,,,,,
,,,,,V3_014,18,female,2024-10-15_20h23.10.897,jersey_experiment_5_v3,2023.2.2,Win32,84.74576271,,,,,,,,,,,,,,,,189.233,190.7857,190.7857,192.574,return,0.6175,,48.046875,0,41,41,25,1,FBP-PT-19.png,0.35,1.2,26,0.75,,,,,,,,,,,,,,,,,,,,,,,,,,,,,,,,,,,,,,,,,,,,,
,,,,,V3_014,18,female,2024-10-15_20h23.10.897,jersey_experiment_5_v3,2023.2.2,Win32,84.74576271,,,,,,,,,,,,,,,,192.5744,194.127,194.1271,195.7623,return,0.6254,,58.46354167,0,42,42,26,1,FBP-PT-19.png,0.37,1.2,27,0.75,,,,,,,,,,,,,,,,,,,,,,,,,,,,,,,,,,,,,,,,,,,,,
,,,,,V3_014,18,female,2024-10-15_20h23.10.897,jersey_experiment_5_v3,2023.2.2,Win32,84.74576271,,,,,,,,,,,,,,,,195.7625,197.0565,197.0565,202.7508,return,3.9218,,42.05729167,0,43,43,36,1,FBP-OG-18.png,0.37,1.2,37,0.5,,,,,,,,,,,,,,,,,,,,,,,,,,,,,,,,,,,,,,,,,,,,,
,,,,,V3_014,18,female,2024-10-15_20h23.10.897,jersey_experiment_5_v3,2023.2.2,Win32,84.74576271,,,,,,,,,,,,,,,,202.7511,204.3038,204.3039,206.0569,return,0.6363,,94.79166667,0,44,44,4,1,FBP-YG-71.png,0.45,1.2,5,0.75,,,,,,,,,,,,,,,,,,,,,,,,,,,,,,,,,,,,,,,,,,,,,
,,,,,V3_014,18,female,2024-10-15_20h23.10.897,jersey_experiment_5_v3,2023.2.2,Win32,84.74576271,,,,,,,,,,,,,,,,206.0571,207.351,207.3511,209.5394,return,0.6978,,79.81770833,0,45,45,38,1,FBP-OG-18.png,0.43,1.2,39,0.5,,,,,,,,,,,,,,,,,,,,,,,,,,,,,,,,,,,,,,,,,,,,,
,,,,,V3_014,18,female,2024-10-15_20h23.10.897,jersey_experiment_5_v3,2023.2.2,Win32,84.74576271,,,,,,,,,,,,,,,,209.5396,211.0925,211.0925,212.8806,return,0.7323,,34.24479167,0,46,46,45,1,FBP-RB-17.png,0.35,1.2,46,0.75,,,,,,,,,,,,,,,,,,,,,,,,,,,,,,,,,,,,,,,,,,,,,
,,,,,V3_014,18,female,2024-10-15_20h23.10.897,jersey_experiment_5_v3,2023.2.2,Win32,84.74576271,,,,,,,,,,,,,,,,212.8808,214.4336,214.4336,216.4219,return,0.6119,,77.34375,0,47,47,58,1,FBP-RB-19.png,0.43,1.2,59,0.75,,,,,,,,,,,,,,,,,,,,,,,,,,,,,,,,,,,,,,,,,,,,,
,,,,,V3_014,18,female,2024-10-15_20h23.10.897,jersey_experiment_5_v3,2023.2.2,Win32,84.74576271,,,,,,,,,,,,,,,,216.4222,217.975,217.9751,220.6927,return,0.5104,,55.33854167,0,48,48,0,1,FBP-YG-71.png,0.35,1.2,1,0.75,,,,,,,,,,,,,,,,,,,,,,,,,,,,,,,,,,,,,,,,,,,,,
,,,,,V3_014,18,female,2024-10-15_20h23.10.897,jersey_experiment_5_v3,2023.2.2,Win32,84.74576271,,,,,,,,,,,,,,,,220.6928,221.9869,221.9869,224.9282,return,0.7941,,74.86979167,0,49,49,42,1,FBP-OG-19.png,0.4,1.2,43,0.5,,,,,,,,,,,,,,,,,,,,,,,,,,,,,,,,,,,,,,,,,,,,,
,,,,,V3_014,18,female,2024-10-15_20h23.10.897,jersey_experiment_5_v3,2023.2.2,Win32,84.74576271,,,,,,,,,,,,,,,,224.9285,226.4813,226.4813,228.199,return,0.613,,80.59895833,0,50,50,11,1,FBP-YG-91.png,0.37,1.2,12,0.75,,,,,,,,,,,,,,,,,,,,,,,,,,,,,,,,,,,,,,,,,,,,,
,,,,,V3_014,18,female,2024-10-15_20h23.10.897,jersey_experiment_5_v3,2023.2.2,Win32,84.74576271,,,,,,,,,,,,,,,,228.1992,229.7518,229.7518,231.999,return,1.4039,,84.11458333,0,51,51,7,1,FBP-YG-81.png,0.4,1.2,8,0.75,,,,,,,,,,,,,,,,,,,,,,,,,,,,,,,,,,,,,,,,,,,,,
,,,,,V3_014,18,female,2024-10-15_20h23.10.897,jersey_experiment_5_v3,2023.2.2,Win32,84.74576271,,,,,,,,,,,,,,,,231.9993,233.2931,233.2932,235.0933,return,0.5881,,95.18229167,0,52,52,39,1,FBP-OG-18.png,0.45,1.2,40,0.5,,,,,,,,,,,,,,,,,,,,,,,,,,,,,,,,,,,,,,,,,,,,,
,,,,,V3_014,18,female,2024-10-15_20h23.10.897,jersey_experiment_5_v3,2023.2.2,Win32,84.74576271,,,,,,,,,,,,,,,,235.0935,236.6463,236.6464,237.858,return,0.5218,,86.71875,0,53,53,8,1,FBP-YG-81.png,0.43,1.2,9,0.75,,,,,,,,,,,,,,,,,,,,,,,,,,,,,,,,,,,,,,,,,,,,,
,,,,,V3_014,18,female,2024-10-15_20h23.10.897,jersey_experiment_5_v3,2023.2.2,Win32,84.74576271,,,,,,,,,,,,,,,,237.8584,239.4111,239.4112,241.0699,return,0.5957,,91.40625,0,54,54,24,1,FBP-PT-18.png,0.45,1.2,25,0.75,,,,,,,,,,,,,,,,,,,,,,,,,,,,,,,,,,,,,,,,,,,,,
,,,,,V3_014,18,female,2024-10-15_20h23.10.897,jersey_experiment_5_v3,2023.2.2,Win32,84.74576271,,,,,,,,,,,,,,,,241.0701,242.6229,242.623,243.9995,return,0.5717,,82.03125,0,55,55,48,1,FBP-RB-17.png,0.43,1.2,49,0.75,,,,,,,,,,,,,,,,,,,,,,,,,,,,,,,,,,,,,,,,,,,,,
,,,,,V3_014,18,female,2024-10-15_20h23.10.897,jersey_experiment_5_v3,2023.2.2,Win32,84.74576271,,,,,,,,,,,,,,,,243.9997,245.2936,245.2937,246.8348,return,0.58,,90.36458333,0,56,56,33,1,FBP-OG-17.png,0.43,1.2,34,0.5,,,,,,,,,,,,,,,,,,,,,,,,,,,,,,,,,,,,,,,,,,,,,
,,,,,V3_014,18,female,2024-10-15_20h23.10.897,jersey_experiment_5_v3,2023.2.2,Win32,84.74576271,,,,,,,,,,,,,,,,246.835,248.3878,248.3879,250.2702,return,0.7332,,98.17708333,0,57,57,13,1,FBP-YG-91.png,0.43,1.2,14,0.75,,,,,,,,,,,,,,,,,,,,,,,,,,,,,,,,,,,,,,,,,,,,,
,,,,,V3_014,18,female,2024-10-15_20h23.10.897,jersey_experiment_5_v3,2023.2.2,Win32,84.74576271,,,,,,,,,,,,,,,,250.2705,251.5647,251.5647,252.9173,return,0.5735,,79.296875,0,58,58,32,1,FBP-OG-17.png,0.4,1.2,33,0.5,,,,,,,,,,,,,,,,,,,,,,,,,,,,,,,,,,,,,,,,,,,,,
,,,,,V3_014,18,female,2024-10-15_20h23.10.897,jersey_experiment_5_v3,2023.2.2,Win32,84.74576271,,,,,,,,,,,,,,,,252.9175,254.4587,254.4588,256.247,return,0.9335,,94.53125,0,59,59,59,1,FBP-RB-19.png,0.45,1.2,60,0.75,,,,,,,,,,,,,,,,,,,,,,,,,,,,,,,,,,,,,,,,,,,,,
,,,,,V3_014,18,female,2024-10-15_20h23.10.897,jersey_experiment_5_v3,2023.2.2,Win32,84.74576271,,,,,,,,,,,,,,,,256.2484,257.5412,257.5412,258.9295,return,0.5111,,94.140625,,,,,,FBP-OG-91.png,0.45,1.2,45,0.5,0,0,0,44,1,,,,,,,,,,,,,,,,,,,,,,,,,,,,,,,,,,,,,,,,
,,,,,V3_014,18,female,2024-10-15_20h23.10.897,jersey_experiment_5_v3,2023.2.2,Win32,84.74576271,,,,,,,,,,,,,,,,258.9298,260.4826,260.4826,262.3766,return,0.7296,,98.17708333,,,,,,FBP-PT-81.png,0.45,1.2,25,0.75,0,1,1,24,1,,,,,,,,,,,,,,,,,,,,,,,,,,,,,,,,,,,,,,,,
,,,,,V3_014,18,female,2024-10-15_20h23.10.897,jersey_experiment_5_v3,2023.2.2,Win32,84.74576271,,,,,,,,,,,,,,,,262.3768,263.6707,263.6707,265.4707,return,0.5603,,42.1875,,,,,,FBP-OG-81.png,0.35,1.2,36,0.5,0,2,2,35,1,,,,,,,,,,,,,,,,,,,,,,,,,,,,,,,,,,,,,,,,
,,,,,V3_014,18,female,2024-10-15_20h23.10.897,jersey_experiment_5_v3,2023.2.2,Win32,84.74576271,,,,,,,,,,,,,,,,265.4709,267.0123,267.0124,268.6474,return,0.6509,,66.27604167,,,,,,FBP-YG-18.png,0.4,1.2,8,0.75,0,3,3,7,1,,,,,,,,,,,,,,,,,,,,,,,,,,,,,,,,,,,,,,,,
,,,,,V3_014,18,female,2024-10-15_20h23.10.897,jersey_experiment_5_v3,2023.2.2,Win32,84.74576271,,,,,,,,,,,,,,,,268.6477,270.2006,270.2006,273.0593,return,0.6226,,63.80208333,,,,,,FBP-PT-71.png,0.4,1.2,18,0.75,0,4,4,17,1,,,,,,,,,,,,,,,,,,,,,,,,,,,,,,,,,,,,,,,,
,,,,,V3_014,18,female,2024-10-15_20h23.10.897,jersey_experiment_5_v3,2023.2.2,Win32,84.74576271,,,,,,,,,,,,,,,,273.0596,274.6127,274.6127,276.9772,return,0.6133,,56.640625,,,,,,FBP-RB-71.png,0.4,1.2,48,0.75,0,5,5,47,1,,,,,,,,,,,,,,,,,,,,,,,,,,,,,,,,,,,,,,,,
,,,,,V3_014,18,female,2024-10-15_20h23.10.897,jersey_experiment_5_v3,2023.2.2,Win32,84.74576271,,,,,,,,,,,,,,,,276.9774,278.5301,278.5301,280.3654,return,0.6401,,78.515625,,,,,,FBP-RB-71.png,0.43,1.2,49,0.75,0,6,6,48,1,,,,,,,,,,,,,,,,,,,,,,,,,,,,,,,,,,,,,,,,
,,,,,V3_014,18,female,2024-10-15_20h23.10.897,jersey_experiment_5_v3,2023.2.2,Win32,84.74576271,,,,,,,,,,,,,,,,280.3657,281.6595,281.6596,283.6244,return,0.5416,,58.07291667,,,,,,FBP-OG-71.png,0.37,1.2,32,0.5,0,7,7,31,1,,,,,,,,,,,,,,,,,,,,,,,,,,,,,,,,,,,,,,,,
,,,,,V3_014,18,female,2024-10-15_20h23.10.897,jersey_experiment_5_v3,2023.2.2,Win32,84.74576271,,,,,,,,,,,,,,,,283.6247,284.9187,284.9187,287.1657,return,0.5378,,74.73958333,,,,,,FBP-OG-71.png,0.4,1.2,33,0.5,0,8,8,32,1,,,,,,,,,,,,,,,,,,,,,,,,,,,,,,,,,,,,,,,,
,,,,,V3_014,18,female,2024-10-15_20h23.10.897,jersey_experiment_5_v3,2023.2.2,Win32,84.74576271,,,,,,,,,,,,,,,,287.166,288.46,288.46,290.26,return,0.6453,,86.328125,,,,,,FBP-OG-91.png,0.43,1.2,44,0.5,0,9,9,43,1,,,,,,,,,,,,,,,,,,,,,,,,,,,,,,,,,,,,,,,,
,,,,,V3_014,18,female,2024-10-15_20h23.10.897,jersey_experiment_5_v3,2023.2.2,Win32,84.74576271,,,,,,,,,,,,,,,,290.2602,291.8131,291.8131,293.8483,return,0.5329,,82.16145833,,,,,,FBP-YG-18.png,0.43,1.2,9,0.75,0,10,10,8,1,,,,,,,,,,,,,,,,,,,,,,,,,,,,,,,,,,,,,,,,
,,,,,V3_014,18,female,2024-10-15_20h23.10.897,jersey_experiment_5_v3,2023.2.2,Win32,84.74576271,,,,,,,,,,,,,,,,293.8485,295.4013,295.4013,296.9308,return,0.6268,,96.22395833,,,,,,FBP-RB-81.png,0.45,1.2,55,0.75,0,11,11,54,1,,,,,,,,,,,,,,,,,,,,,,,,,,,,,,,,,,,,,,,,
,,,,,V3_014,18,female,2024-10-15_20h23.10.897,jersey_experiment_5_v3,2023.2.2,Win32,84.74576271,,,,,,,,,,,,,,,,296.931,298.4838,298.4838,300.625,return,0.7336,,69.01041667,,,,,,FBP-YG-19.png,0.4,1.2,13,0.75,0,12,12,12,1,,,,,,,,,,,,,,,,,,,,,,,,,,,,,,,,,,,,,,,,
,,,,,V3_014,18,female,2024-10-15_20h23.10.897,jersey_experiment_5_v3,2023.2.2,Win32,84.74576271,,,,,,,,,,,,,,,,300.6253,302.1781,302.1781,303.5546,return,0.5786,,80.46875,,,,,,FBP-PT-91.png,0.43,1.2,29,0.75,0,13,13,28,1,,,,,,,,,,,,,,,,,,,,,,,,,,,,,,,,,,,,,,,,
,,,,,V3_014,18,female,2024-10-15_20h23.10.897,jersey_experiment_5_v3,2023.2.2,Win32,84.74576271,,,,,,,,,,,,,,,,303.5549,305.1077,305.1077,306.1783,return,0.5571,,56.25,,,,,,FBP-PT-71.png,0.35,1.2,16,0.75,0,14,14,15,1,,,,,,,,,,,,,,,,,,,,,,,,,,,,,,,,,,,,,,,,
,,,,,V3_014,18,female,2024-10-15_20h23.10.897,jersey_experiment_5_v3,2023.2.2,Win32,84.74576271,,,,,,,,,,,,,,,,306.1785,307.4723,307.4723,309.0137,return,0.5515,,51.69270833,,,,,,FBP-OG-91.png,0.37,1.2,42,0.5,0,15,15,41,1,,,,,,,,,,,,,,,,,,,,,,,,,,,,,,,,,,,,,,,,
,,,,,V3_014,18,female,2024-10-15_20h23.10.897,jersey_experiment_5_v3,2023.2.2,Win32,84.74576271,,,,,,,,,,,,,,,,309.014,310.5667,310.5668,312.0961,return,0.5566,,88.41145833,,,,,,FBP-RB-71.png,0.45,1.2,50,0.75,0,16,16,49,1,,,,,,,,,,,,,,,,,,,,,,,,,,,,,,,,,,,,,,,,
,,,,,V3_014,18,female,2024-10-15_20h23.10.897,jersey_experiment_5_v3,2023.2.2,Win32,84.74576271,,,,,,,,,,,,,,,,312.0964,313.3903,313.3903,315.4727,return,0.519,,39.71354167,,,,,,FBP-OG-91.png,0.35,1.2,41,0.5,0,17,17,40,1,,,,,,,,,,,,,,,,,,,,,,,,,,,,,,,,,,,,,,,,
,,,,,V3_014,18,female,2024-10-15_20h23.10.897,jersey_experiment_5_v3,2023.2.2,Win32,84.74576271,,,,,,,,,,,,,,,,315.473,317.0257,317.0257,318.5197,return,0.4939,,29.16666667,,,,,,FBP-RB-81.png,0.35,1.2,51,0.75,0,18,18,50,1,,,,,,,,,,,,,,,,,,,,,,,,,,,,,,,,,,,,,,,,
,,,,,V3_014,18,female,2024-10-15_20h23.10.897,jersey_experiment_5_v3,2023.2.2,Win32,84.74576271,,,,,,,,,,,,,,,,318.52,319.814,319.8141,322.2612,return,0.5422,,74.73958333,,,,,,FBP-OG-81.png,0.45,1.2,40,0.5,0,19,19,39,1,,,,,,,,,,,,,,,,,,,,,,,,,,,,,,,,,,,,,,,,
,,,,,V3_014,18,female,2024-10-15_20h23.10.897,jersey_experiment_5_v3,2023.2.2,Win32,84.74576271,,,,,,,,,,,,,,,,322.2615,323.8141,323.8142,325.473,return,0.511,,69.53125,,,,,,FBP-PT-81.png,0.4,1.2,23,0.75,0,20,20,22,1,,,,,,,,,,,,,,,,,,,,,,,,,,,,,,,,,,,,,,,,
,,,,,V3_014,18,female,2024-10-15_20h23.10.897,jersey_experiment_5_v3,2023.2.2,Win32,84.74576271,,,,,,,,,,,,,,,,325.4733,327.026,327.0261,328.3908,return,0.5159,,82.68229167,,,,,,FBP-RB-81.png,0.43,1.2,54,0.75,0,21,21,53,1,,,,,,,,,,,,,,,,,,,,,,,,,,,,,,,,,,,,,,,,
,,,,,V3_014,18,female,2024-10-15_20h23.10.897,jersey_experiment_5_v3,2023.2.2,Win32,84.74576271,,,,,,,,,,,,,,,,328.3911,329.9439,329.944,331.3202,return,0.5882,,83.72395833,,,,,,FBP-YG-17.png,0.45,1.2,5,0.75,0,22,22,4,1,,,,,,,,,,,,,,,,,,,,,,,,,,,,,,,,,,,,,,,,
,,,,,V3_014,18,female,2024-10-15_20h23.10.897,jersey_experiment_5_v3,2023.2.2,Win32,84.74576271,,,,,,,,,,,,,,,,331.3205,332.6146,332.6146,333.838,return,0.4896,,83.72395833,,,,,,FBP-OG-71.png,0.43,1.2,34,0.5,0,23,23,33,1,,,,,,,,,,,,,,,,,,,,,,,,,,,,,,,,,,,,,,,,
,,,,,V3_014,18,female,2024-10-15_20h23.10.897,jersey_experiment_5_v3,2023.2.2,Win32,84.74576271,,,,,,,,,,,,,,,,333.8384,335.391,335.391,336.744,return,0.4946,,41.40625,,,,,,FBP-RB-71.png,0.35,1.2,46,0.75,0,24,24,45,1,,,,,,,,,,,,,,,,,,,,,,,,,,,,,,,,,,,,,,,,
,,,,,V3_014,18,female,2024-10-15_20h23.10.897,jersey_experiment_5_v3,2023.2.2,Win32,84.74576271,,,,,,,,,,,,,,,,336.7442,338.0383,338.0383,339.5913,return,0.5192,,33.85416667,,,,,,FBP-OG-71.png,0.35,1.2,31,0.5,0,25,25,30,1,,,,,,,,,,,,,,,,,,,,,,,,,,,,,,,,,,,,,,,,
,,,,,V3_014,18,female,2024-10-15_20h23.10.897,jersey_experiment_5_v3,2023.2.2,Win32,84.74576271,,,,,,,,,,,,,,,,339.5916,341.1443,341.1444,342.6148,return,0.565,,62.76041667,,,,,,FBP-PT-71.png,0.37,1.2,17,0.75,0,26,26,16,1,,,,,,,,,,,,,,,,,,,,,,,,,,,,,,,,,,,,,,,,
,,,,,V3_014,18,female,2024-10-15_20h23.10.897,jersey_experiment_5_v3,2023.2.2,Win32,84.74576271,,,,,,,,,,,,,,,,342.6151,343.9091,343.9091,345.4149,return,0.5175,,66.53645833,,,,,,FBP-OG-81.png,0.4,1.2,38,0.5,0,27,27,37,1,,,,,,,,,,,,,,,,,,,,,,,,,,,,,,,,,,,,,,,,
,,,,,V3_014,18,female,2024-10-15_20h23.10.897,jersey_experiment_5_v3,2023.2.2,Win32,84.74576271,,,,,,,,,,,,,,,,345.4151,346.968,346.9681,348.6269,return,0.5337,,74.08854167,,,,,,FBP-PT-81.png,0.43,1.2,24,0.75,0,28,28,23,1,,,,,,,,,,,,,,,,,,,,,,,,,,,,,,,,,,,,,,,,
,,,,,V3_014,18,female,2024-10-15_20h23.10.897,jersey_experiment_5_v3,2023.2.2,Win32,84.74576271,,,,,,,,,,,,,,,,348.6272,350.1798,350.1798,351.3329,return,0.4862,,77.86458333,,,,,,FBP-PT-71.png,0.43,1.2,19,0.75,0,29,29,18,1,,,,,,,,,,,,,,,,,,,,,,,,,,,,,,,,,,,,,,,,
,,,,,V3_014,18,female,2024-10-15_20h23.10.897,jersey_experiment_5_v3,2023.2.2,Win32,84.74576271,,,,,,,,,,,,,,,,351.3331,352.8858,352.8858,353.9565,return,0.4958,,79.16666667,,,,,,FBP-RB-81.png,0.4,1.2,53,0.75,0,30,30,52,1,,,,,,,,,,,,,,,,,,,,,,,,,,,,,,,,,,,,,,,,
,,,,,V3_014,18,female,2024-10-15_20h23.10.897,jersey_experiment_5_v3,2023.2.2,Win32,84.74576271,,,,,,,,,,,,,,,,353.9566,355.2507,355.2509,356.7213,return,0.4974,,91.66666667,,,,,,FBP-OG-71.png,0.45,1.2,35,0.5,0,31,31,34,1,,,,,,,,,,,,,,,,,,,,,,,,,,,,,,,,,,,,,,,,
,,,,,V3_014,18,female,2024-10-15_20h23.10.897,jersey_experiment_5_v3,2023.2.2,Win32,84.74576271,,,,,,,,,,,,,,,,356.7216,358.2743,358.2743,359.4626,return,0.4941,,69.27083333,,,,,,FBP-RB-91.png,0.37,1.2,57,0.75,0,32,32,56,1,,,,,,,,,,,,,,,,,,,,,,,,,,,,,,,,,,,,,,,,
,,,,,V3_014,18,female,2024-10-15_20h23.10.897,jersey_experiment_5_v3,2023.2.2,Win32,84.74576271,,,,,,,,,,,,,,,,359.4629,361.0157,361.0157,362.145,return,0.507,,64.19270833,,,,,,FBP-RB-91.png,0.35,1.2,56,0.75,0,33,33,55,1,,,,,,,,,,,,,,,,,,,,,,,,,,,,,,,,,,,,,,,,
,,,,,V3_014,18,female,2024-10-15_20h23.10.897,jersey_experiment_5_v3,2023.2.2,Win32,84.74576271,,,,,,,,,,,,,,,,362.1453,363.4392,363.4392,364.8628,return,0.4899,,80.859375,,,,,,FBP-OG-91.png,0.4,1.2,43,0.5,0,34,34,42,1,,,,,,,,,,,,,,,,,,,,,,,,,,,,,,,,,,,,,,,,
,,,,,V3_014,18,female,2024-10-15_20h23.10.897,jersey_experiment_5_v3,2023.2.2,Win32,84.74576271,,,,,,,,,,,,,,,,364.863,366.4159,366.4159,367.4277,return,0.4857,,78.38541667,,,,,,FBP-PT-91.png,0.37,1.2,27,0.75,0,35,35,26,1,,,,,,,,,,,,,,,,,,,,,,,,,,,,,,,,,,,,,,,,
,,,,,V3_014,18,female,2024-10-15_20h23.10.897,jersey_experiment_5_v3,2023.2.2,Win32,84.74576271,,,,,,,,,,,,,,,,367.428,368.9809,368.9809,370.3689,return,0.5819,,94.66145833,,,,,,FBP-PT-91.png,0.45,1.2,30,0.75,0,36,36,29,1,,,,,,,,,,,,,,,,,,,,,,,,,,,,,,,,,,,,,,,,
,,,,,V3_014,18,female,2024-10-15_20h23.10.897,jersey_experiment_5_v3,2023.2.2,Win32,84.74576271,,,,,,,,,,,,,,,,370.3692,371.9218,371.9218,373.2984,return,0.5557,,72.265625,,,,,,FBP-YG-18.png,0.35,1.2,6,0.75,0,37,37,5,1,,,,,,,,,,,,,,,,,,,,,,,,,,,,,,,,,,,,,,,,
,,,,,V3_014,18,female,2024-10-15_20h23.10.897,jersey_experiment_5_v3,2023.2.2,Win32,84.74576271,,,,,,,,,,,,,,,,373.2986,374.8398,374.8399,376.4515,return,0.5307,,81.77083333,,,,,,FBP-RB-91.png,0.4,1.2,58,0.75,0,38,38,57,1,,,,,,,,,,,,,,,,,,,,,,,,,,,,,,,,,,,,,,,,
,,,,,V3_014,18,female,2024-10-15_20h23.10.897,jersey_experiment_5_v3,2023.2.2,Win32,84.74576271,,,,,,,,,,,,,,,,376.4518,378.0046,378.0046,379.5812,return,0.5381,,45.96354167,,,,,,FBP-PT-81.png,0.35,1.2,21,0.75,0,39,39,20,1,,,,,,,,,,,,,,,,,,,,,,,,,,,,,,,,,,,,,,,,
,,,,,V3_014,18,female,2024-10-15_20h23.10.897,jersey_experiment_5_v3,2023.2.2,Win32,84.74576271,,,,,,,,,,,,,,,,379.5816,381.134,381.1341,382.9105,return,0.5705,,77.34375,,,,,,FBP-YG-19.png,0.43,1.2,14,0.75,0,40,40,13,1,,,,,,,,,,,,,,,,,,,,,,,,,,,,,,,,,,,,,,,,
,,,,,V3_014,18,female,2024-10-15_20h23.10.897,jersey_experiment_5_v3,2023.2.2,Win32,84.74576271,,,,,,,,,,,,,,,,382.9108,384.4637,384.4637,385.9577,return,0.5654,,60.02604167,,,,,,FBP-YG-19.png,0.35,1.2,11,0.75,0,41,41,10,1,,,,,,,,,,,,,,,,,,,,,,,,,,,,,,,,,,,,,,,,
,,,,,V3_014,18,female,2024-10-15_20h23.10.897,jersey_experiment_5_v3,2023.2.2,Win32,84.74576271,,,,,,,,,,,,,,,,385.9579,387.4992,387.4993,388.9343,return,0.5178,,36.84895833,,,,,,FBP-RB-71.png,0.37,1.2,47,0.75,0,42,42,46,1,,,,,,,,,,,,,,,,,,,,,,,,,,,,,,,,,,,,,,,,
,,,,,V3_014,18,female,2024-10-15_20h23.10.897,jersey_experiment_5_v3,2023.2.2,Win32,84.74576271,,,,,,,,,,,,,,,,388.9346,390.4873,390.4873,392.4874,return,0.5656,,94.01041667,,,,,,FBP-YG-18.png,0.45,1.2,10,0.75,0,43,43,9,1,,,,,,,,,,,,,,,,,,,,,,,,,,,,,,,,,,,,,,,,
,,,,,V3_014,18,female,2024-10-15_20h23.10.897,jersey_experiment_5_v3,2023.2.2,Win32,84.74576271,,,,,,,,,,,,,,,,392.4877,394.0406,394.0406,395.2169,return,0.5115,,75.390625,,,,,,FBP-YG-18.png,0.37,1.2,7,0.75,0,44,44,6,1,,,,,,,,,,,,,,,,,,,,,,,,,,,,,,,,,,,,,,,,
,,,,,V3_014,18,female,2024-10-15_20h23.10.897,jersey_experiment_5_v3,2023.2.2,Win32,84.74576271,,,,,,,,,,,,,,,,395.2171,396.7698,396.7699,398.1818,return,0.5202,,99.21875,,,,,,FBP-RB-91.png,0.45,1.2,60,0.75,0,45,45,59,1,,,,,,,,,,,,,,,,,,,,,,,,,,,,,,,,,,,,,,,,
,,,,,V3_014,18,female,2024-10-15_20h23.10.897,jersey_experiment_5_v3,2023.2.2,Win32,84.74576271,,,,,,,,,,,,,,,,398.182,399.4758,399.4759,400.6053,return,0.4913,,95.3125,,,,,,FBP-OG-81.png,0.43,1.2,39,0.5,0,46,46,38,1,,,,,,,,,,,,,,,,,,,,,,,,,,,,,,,,,,,,,,,,
,,,,,V3_014,18,female,2024-10-15_20h23.10.897,jersey_experiment_5_v3,2023.2.2,Win32,84.74576271,,,,,,,,,,,,,,,,400.6055,402.1585,402.1585,403.2171,return,0.4977,,99.47916667,,,,,,FBP-YG-17.png,0.43,1.2,4,0.75,0,47,47,3,1,,,,,,,,,,,,,,,,,,,,,,,,,,,,,,,,,,,,,,,,
,,,,,V3_014,18,female,2024-10-15_20h23.10.897,jersey_experiment_5_v3,2023.2.2,Win32,84.74576271,,,,,,,,,,,,,,,,403.2175,404.7703,404.7703,405.7467,return,0.5518,,90.625,,,,,,FBP-PT-91.png,0.4,1.2,28,0.75,0,48,48,27,1,,,,,,,,,,,,,,,,,,,,,,,,,,,,,,,,,,,,,,,,
,,,,,V3_014,18,female,2024-10-15_20h23.10.897,jersey_experiment_5_v3,2023.2.2,Win32,84.74576271,,,,,,,,,,,,,,,,405.7468,407.2996,407.2996,408.8174,return,0.4973,,97.91666667,,,,,,FBP-PT-71.png,0.45,1.2,20,0.75,0,49,49,19,1,,,,,,,,,,,,,,,,,,,,,,,,,,,,,,,,,,,,,,,,
,,,,,V3_014,18,female,2024-10-15_20h23.10.897,jersey_experiment_5_v3,2023.2.2,Win32,84.74576271,,,,,,,,,,,,,,,,408.8176,410.3706,410.3707,411.6527,return,0.5041,,73.17708333,,,,,,FBP-YG-17.png,0.35,1.2,1,0.75,0,50,50,0,1,,,,,,,,,,,,,,,,,,,,,,,,,,,,,,,,,,,,,,,,
,,,,,V3_014,18,female,2024-10-15_20h23.10.897,jersey_experiment_5_v3,2023.2.2,Win32,84.74576271,,,,,,,,,,,,,,,,411.653,413.2057,413.2058,414.2765,return,0.51,,64.97395833,,,,,,FBP-PT-91.png,0.35,1.2,26,0.75,0,51,51,25,1,,,,,,,,,,,,,,,,,,,,,,,,,,,,,,,,,,,,,,,,
,,,,,V3_014,18,female,2024-10-15_20h23.10.897,jersey_experiment_5_v3,2023.2.2,Win32,84.74576271,,,,,,,,,,,,,,,,414.2767,415.8295,415.8295,417.0765,return,0.6276,,76.69270833,,,,,,FBP-YG-17.png,0.4,1.2,3,0.75,0,52,52,2,1,,,,,,,,,,,,,,,,,,,,,,,,,,,,,,,,,,,,,,,,
,,,,,V3_014,18,female,2024-10-15_20h23.10.897,jersey_experiment_5_v3,2023.2.2,Win32,84.74576271,,,,,,,,,,,,,,,,417.0768,418.6294,418.6295,420.0295,return,0.5027,,64.84375,,,,,,FBP-RB-81.png,0.37,1.2,52,0.75,0,53,53,51,1,,,,,,,,,,,,,,,,,,,,,,,,,,,,,,,,,,,,,,,,
,,,,,V3_014,18,female,2024-10-15_20h23.10.897,jersey_experiment_5_v3,2023.2.2,Win32,84.74576271,,,,,,,,,,,,,,,,420.0298,421.3237,421.3237,423.0414,return,0.5226,,61.71875,,,,,,FBP-OG-81.png,0.37,1.2,37,0.5,0,54,54,36,1,,,,,,,,,,,,,,,,,,,,,,,,,,,,,,,,,,,,,,,,
,,,,,V3_014,18,female,2024-10-15_20h23.10.897,jersey_experiment_5_v3,2023.2.2,Win32,84.74576271,,,,,,,,,,,,,,,,423.0416,424.5945,424.5945,425.8532,return,0.5148,,74.34895833,,,,,,FBP-PT-81.png,0.37,1.2,22,0.75,0,55,55,21,1,,,,,,,,,,,,,,,,,,,,,,,,,,,,,,,,,,,,,,,,
,,,,,V3_014,18,female,2024-10-15_20h23.10.897,jersey_experiment_5_v3,2023.2.2,Win32,84.74576271,,,,,,,,,,,,,,,,425.8534,427.4064,427.4065,428.7712,return,0.5176,,89.453125,,,,,,FBP-YG-19.png,0.45,1.2,15,0.75,0,56,56,14,1,,,,,,,,,,,,,,,,,,,,,,,,,,,,,,,,,,,,,,,,
,,,,,V3_014,18,female,2024-10-15_20h23.10.897,jersey_experiment_5_v3,2023.2.2,Win32,84.74576271,,,,,,,,,,,,,,,,428.7714,430.3243,430.3243,432.0654,return,0.4951,,40.234375,,,,,,FBP-YG-17.png,0.37,1.2,2,0.75,0,57,57,1,1,,,,,,,,,,,,,,,,,,,,,,,,,,,,,,,,,,,,,,,,
,,,,,V3_014,18,female,2024-10-15_20h23.10.897,jersey_experiment_5_v3,2023.2.2,Win32,84.74576271,,,,,,,,,,,,,,,,432.0656,433.6184,433.6184,435.0067,return,0.4902,,46.74479167,,,,,,FBP-YG-19.png,0.37,1.2,12,0.75,0,58,58,11,1,,,,,,,,,,,,,,,,,,,,,,,,,,,,,,,,,,,,,,,,
,,,,,V3_014,18,female,2024-10-15_20h23.10.897,jersey_experiment_5_v3,2023.2.2,Win32,84.74576271,,,,,,,,,,,,,,,,435.0069,436.5596,436.5596,438.0655,return,0.5198,,78.38541667,,,,,,FBP-RB-91.png,0.43,1.2,59,0.75,0,59,59,58,1,,,,,,,,,,,,,,,,,,,,,,,,,,,,,,,,,,,,,,,,
,,,,,V3_014,18,female,2024-10-15_20h23.10.897,jersey_experiment_5_v3,2023.2.2,Win32,84.74576271,,,,,,,,,,,,,,,,,,,,,,,,,,,,,,,,,,,,,,,438.0657,558.0585,,,,,,,,,,,,,,,,,,,,,,,,,,,,,,,,,,,,,,
,,,,,V3_014,18,female,2024-10-15_20h23.10.897,jersey_experiment_5_v3,2023.2.2,Win32,84.74576271,,,,,,,,,,,,,,,,,,,,,,,,,,,,,,,,,,,,,,,,,558.0587,564.3527,return,6.2874,,,,,,,,,,,,,,,,,,,,,,,,,,,,,,,,,,
,,,,,V3_014,18,female,2024-10-15_20h23.10.897,jersey_experiment_5_v3,2023.2.2,Win32,84.74576271,,,,,,,,,,,,,,,,564.3544,565.6468,565.6469,568.1646,return,0.943,,42.44791667,,,,,,FBP-RB-17.png,0.37,1.2,47,0.5,,,,,,,,,,,,,0,0,0,46,1,,,,,,,,,,,,,,,,,,,,,,,,,,,,
,,,,,V3_014,18,female,2024-10-15_20h23.10.897,jersey_experiment_5_v3,2023.2.2,Win32,84.74576271,,,,,,,,,,,,,,,,568.1648,569.4591,569.4591,571.1412,return,0.5568,,81.51041667,,,,,,FBP-YG-91.png,0.43,1.2,14,0.5,,,,,,,,,,,,,0,1,1,13,1,,,,,,,,,,,,,,,,,,,,,,,,,,,,
,,,,,V3_014,18,female,2024-10-15_20h23.10.897,jersey_experiment_5_v3,2023.2.2,Win32,84.74576271,,,,,,,,,,,,,,,,571.1415,572.4354,572.4354,574.0942,return,0.557,,42.96875,,,,,,FBP-PT-17.png,0.35,1.2,16,0.5,,,,,,,,,,,,,0,2,2,15,1,,,,,,,,,,,,,,,,,,,,,,,,,,,,
,,,,,V3_014,18,female,2024-10-15_20h23.10.897,jersey_experiment_5_v3,2023.2.2,Win32,84.74576271,,,,,,,,,,,,,,,,574.0944,575.3883,575.3884,576.7884,return,0.5335,,82.68229167,,,,,,FBP-RB-17.png,0.45,1.2,50,0.5,,,,,,,,,,,,,0,3,3,49,1,,,,,,,,,,,,,,,,,,,,,,,,,,,,
,,,,,V3_014,18,female,2024-10-15_20h23.10.897,jersey_experiment_5_v3,2023.2.2,Win32,84.74576271,,,,,,,,,,,,,,,,576.7887,578.0825,578.0826,579.2944,return,0.4866,,59.11458333,,,,,,FBP-PT-18.png,0.37,1.2,22,0.5,,,,,,,,,,,,,0,4,4,21,1,,,,,,,,,,,,,,,,,,,,,,,,,,,,
,,,,,V3_014,18,female,2024-10-15_20h23.10.897,jersey_experiment_5_v3,2023.2.2,Win32,84.74576271,,,,,,,,,,,,,,,,579.2947,580.8475,580.8476,581.9767,return,0.5177,,39.19270833,,,,,,FBP-OG-19.png,0.35,1.2,41,0.75,,,,,,,,,,,,,0,5,5,40,1,,,,,,,,,,,,,,,,,,,,,,,,,,,,
,,,,,V3_014,18,female,2024-10-15_20h23.10.897,jersey_experiment_5_v3,2023.2.2,Win32,84.74576271,,,,,,,,,,,,,,,,581.977,583.5299,583.5299,584.6594,return,0.4837,,83.07291667,,,,,,FBP-OG-19.png,0.45,1.2,45,0.75,,,,,,,,,,,,,0,6,6,44,1,,,,,,,,,,,,,,,,,,,,,,,,,,,,
,,,,,V3_014,18,female,2024-10-15_20h23.10.897,jersey_experiment_5_v3,2023.2.2,Win32,84.74576271,,,,,,,,,,,,,,,,584.6598,585.9534,585.9534,587.0948,return,0.494,,61.19791667,,,,,,FBP-PT-18.png,0.35,1.2,21,0.5,,,,,,,,,,,,,0,7,7,20,1,,,,,,,,,,,,,,,,,,,,,,,,,,,,
,,,,,V3_014,18,female,2024-10-15_20h23.10.897,jersey_experiment_5_v3,2023.2.2,Win32,84.74576271,,,,,,,,,,,,,,,,587.0949,588.3888,588.3888,589.6241,return,0.4942,,73.828125,,,,,,FBP-RB-18.png,0.4,1.2,53,0.5,,,,,,,,,,,,,0,8,8,52,1,,,,,,,,,,,,,,,,,,,,,,,,,,,,
,,,,,V3_014,18,female,2024-10-15_20h23.10.897,jersey_experiment_5_v3,2023.2.2,Win32,84.74576271,,,,,,,,,,,,,,,,589.6244,590.9183,590.9183,592.0478,return,0.4772,,69.79166667,,,,,,FBP-PT-19.png,0.37,1.2,27,0.5,,,,,,,,,,,,,0,9,9,26,1,,,,,,,,,,,,,,,,,,,,,,,,,,,,
,,,,,V3_014,18,female,2024-10-15_20h23.10.897,jersey_experiment_5_v3,2023.2.2,Win32,84.74576271,,,,,,,,,,,,,,,,592.048,593.342,593.342,594.5774,return,0.473,,58.85416667,,,,,,FBP-PT-17.png,0.37,1.2,17,0.5,,,,,,,,,,,,,0,10,10,16,1,,,,,,,,,,,,,,,,,,,,,,,,,,,,
,,,,,V3_014,18,female,2024-10-15_20h23.10.897,jersey_experiment_5_v3,2023.2.2,Win32,84.74576271,,,,,,,,,,,,,,,,594.5776,595.8715,595.8716,596.8481,return,0.5006,,53.77604167,,,,,,FBP-RB-18.png,0.37,1.2,52,0.5,,,,,,,,,,,,,0,11,11,51,1,,,,,,,,,,,,,,,,,,,,,,,,,,,,
,,,,,V3_014,18,female,2024-10-15_20h23.10.897,jersey_experiment_5_v3,2023.2.2,Win32,84.74576271,,,,,,,,,,,,,,,,596.8482,598.1422,598.1422,599.4245,return,0.4963,,64.32291667,,,,,,FBP-YG-71.png,0.35,1.2,1,0.5,,,,,,,,,,,,,0,12,12,0,1,,,,,,,,,,,,,,,,,,,,,,,,,,,,
,,,,,V3_014,18,female,2024-10-15_20h23.10.897,jersey_experiment_5_v3,2023.2.2,Win32,84.74576271,,,,,,,,,,,,,,,,599.4247,600.7188,600.7189,601.8599,return,0.4577,,86.58854167,,,,,,FBP-YG-91.png,0.45,1.2,15,0.5,,,,,,,,,,,,,0,13,13,14,1,,,,,,,,,,,,,,,,,,,,,,,,,,,,
,,,,,V3_014,18,female,2024-10-15_20h23.10.897,jersey_experiment_5_v3,2023.2.2,Win32,84.74576271,,,,,,,,,,,,,,,,601.8602,603.413,603.413,604.6954,return,0.5802,,44.79166667,,,,,,FBP-OG-18.png,0.37,1.2,37,0.75,,,,,,,,,,,,,0,14,14,36,1,,,,,,,,,,,,,,,,,,,,,,,,,,,,
,,,,,V3_014,18,female,2024-10-15_20h23.10.897,jersey_experiment_5_v3,2023.2.2,Win32,84.74576271,,,,,,,,,,,,,,,,604.6956,605.9895,605.9896,607.3308,return,0.5098,,88.671875,,,,,,FBP-RB-19.png,0.45,1.2,60,0.5,,,,,,,,,,,,,0,15,15,59,1,,,,,,,,,,,,,,,,,,,,,,,,,,,,
,,,,,V3_014,18,female,2024-10-15_20h23.10.897,jersey_experiment_5_v3,2023.2.2,Win32,84.74576271,,,,,,,,,,,,,,,,607.331,608.8838,608.8838,609.8132,return,0.5264,,55.59895833,,,,,,FBP-OG-17.png,0.4,1.2,33,0.75,,,,,,,,,,,,,0,16,16,32,1,,,,,,,,,,,,,,,,,,,,,,,,,,,,
,,,,,V3_014,18,female,2024-10-15_20h23.10.897,jersey_experiment_5_v3,2023.2.2,Win32,84.74576271,,,,,,,,,,,,,,,,609.8135,611.1073,611.1073,612.3544,return,0.5991,,85.15625,,,,,,FBP-YG-71.png,0.45,1.2,5,0.5,,,,,,,,,,,,,0,17,17,4,1,,,,,,,,,,,,,,,,,,,,,,,,,,,,
,,,,,V3_014,18,female,2024-10-15_20h23.10.897,jersey_experiment_5_v3,2023.2.2,Win32,84.74576271,,,,,,,,,,,,,,,,612.3547,613.6487,613.6487,614.9782,return,0.4973,,84.63541667,,,,,,FBP-PT-19.png,0.43,1.2,29,0.5,,,,,,,,,,,,,0,18,18,28,1,,,,,,,,,,,,,,,,,,,,,,,,,,,,
,,,,,V3_014,18,female,2024-10-15_20h23.10.897,jersey_experiment_5_v3,2023.2.2,Win32,84.74576271,,,,,,,,,,,,,,,,614.9783,616.5313,616.5314,617.9194,return,0.4972,,96.875,,,,,,FBP-OG-17.png,0.43,1.2,34,0.75,,,,,,,,,,,,,0,19,19,33,1,,,,,,,,,,,,,,,,,,,,,,,,,,,,
,,,,,V3_014,18,female,2024-10-15_20h23.10.897,jersey_experiment_5_v3,2023.2.2,Win32,84.74576271,,,,,,,,,,,,,,,,617.9197,619.2136,619.2137,620.1431,return,0.4309,,94.01041667,,,,,,FBP-PT-19.png,0.4,1.2,28,0.5,,,,,,,,,,,,,0,20,20,27,1,,,,,,,,,,,,,,,,,,,,,,,,,,,,
,,,,,V3_014,18,female,2024-10-15_20h23.10.897,jersey_experiment_5_v3,2023.2.2,Win32,84.74576271,,,,,,,,,,,,,,,,620.1433,621.6962,621.6962,623.4962,return,0.9175,,74.21875,,,,,,FBP-OG-19.png,0.4,1.2,43,0.75,,,,,,,,,,,,,0,21,21,42,1,,,,,,,,,,,,,,,,,,,,,,,,,,,,
,,,,,V3_014,18,female,2024-10-15_20h23.10.897,jersey_experiment_5_v3,2023.2.2,Win32,84.74576271,,,,,,,,,,,,,,,,623.4964,624.7901,624.7901,626.1667,return,0.4786,,56.11979167,,,,,,FBP-YG-81.png,0.37,1.2,7,0.5,,,,,,,,,,,,,0,22,22,6,1,,,,,,,,,,,,,,,,,,,,,,,,,,,,
,,,,,V3_014,18,female,2024-10-15_20h23.10.897,jersey_experiment_5_v3,2023.2.2,Win32,84.74576271,,,,,,,,,,,,,,,,626.1669,627.4611,627.4612,628.5669,return,0.4705,,88.02083333,,,,,,FBP-PT-17.png,0.45,1.2,20,0.5,,,,,,,,,,,,,0,23,23,19,1,,,,,,,,,,,,,,,,,,,,,,,,,,,,
,,,,,V3_014,18,female,2024-10-15_20h23.10.897,jersey_experiment_5_v3,2023.2.2,Win32,84.74576271,,,,,,,,,,,,,,,,628.5671,630.1199,630.1199,631.3787,return,0.4392,,46.484375,,,,,,FBP-OG-19.png,0.37,1.2,42,0.75,,,,,,,,,,,,,0,24,24,41,1,,,,,,,,,,,,,,,,,,,,,,,,,,,,
,,,,,V3_014,18,female,2024-10-15_20h23.10.897,jersey_experiment_5_v3,2023.2.2,Win32,84.74576271,,,,,,,,,,,,,,,,631.3789,632.6729,632.6729,633.7435,return,0.4144,,35.9375,,,,,,FBP-YG-91.png,0.35,1.2,11,0.5,,,,,,,,,,,,,0,25,25,10,1,,,,,,,,,,,,,,,,,,,,,,,,,,,,
,,,,,V3_014,18,female,2024-10-15_20h23.10.897,jersey_experiment_5_v3,2023.2.2,Win32,84.74576271,,,,,,,,,,,,,,,,633.7438,635.0378,635.0378,636.4143,return,0.514,,91.66666667,,,,,,FBP-YG-81.png,0.43,1.2,9,0.5,,,,,,,,,,,,,0,26,26,8,1,,,,,,,,,,,,,,,,,,,,,,,,,,,,
,,,,,V3_014,18,female,2024-10-15_20h23.10.897,jersey_experiment_5_v3,2023.2.2,Win32,84.74576271,,,,,,,,,,,,,,,,636.4145,637.7083,637.7083,638.8143,return,0.4904,,66.796875,,,,,,FBP-RB-19.png,0.37,1.2,57,0.5,,,,,,,,,,,,,0,27,27,56,1,,,,,,,,,,,,,,,,,,,,,,,,,,,,
,,,,,V3_014,18,female,2024-10-15_20h23.10.897,jersey_experiment_5_v3,2023.2.2,Win32,84.74576271,,,,,,,,,,,,,,,,638.8146,640.1084,640.1084,641.1203,return,0.4738,,88.15104167,,,,,,FBP-RB-17.png,0.4,1.2,48,0.5,,,,,,,,,,,,,0,28,28,47,1,,,,,,,,,,,,,,,,,,,,,,,,,,,,
,,,,,V3_014,18,female,2024-10-15_20h23.10.897,jersey_experiment_5_v3,2023.2.2,Win32,84.74576271,,,,,,,,,,,,,,,,641.1205,642.6733,642.6734,644.4146,return,0.9951,,40.625,,,,,,FBP-OG-18.png,0.35,1.2,36,0.75,,,,,,,,,,,,,0,29,29,35,1,,,,,,,,,,,,,,,,,,,,,,,,,,,,
,,,,,V3_014,18,female,2024-10-15_20h23.10.897,jersey_experiment_5_v3,2023.2.2,Win32,84.74576271,,,,,,,,,,,,,,,,644.4148,645.709,645.709,646.8852,return,0.4593,,78.38541667,,,,,,FBP-PT-18.png,0.4,1.2,23,0.5,,,,,,,,,,,,,0,30,30,22,1,,,,,,,,,,,,,,,,,,,,,,,,,,,,
,,,,,V3_014,18,female,2024-10-15_20h23.10.897,jersey_experiment_5_v3,2023.2.2,Win32,84.74576271,,,,,,,,,,,,,,,,646.8855,648.4383,648.4383,649.4735,return,0.4487,,52.99479167,,,,,,FBP-OG-17.png,0.35,1.2,31,0.75,,,,,,,,,,,,,0,31,31,30,1,,,,,,,,,,,,,,,,,,,,,,,,,,,,
,,,,,V3_014,18,female,2024-10-15_20h23.10.897,jersey_experiment_5_v3,2023.2.2,Win32,84.74576271,,,,,,,,,,,,,,,,649.4738,650.7677,650.7677,651.9205,return,0.4494,,83.203125,,,,,,FBP-PT-18.png,0.45,1.2,25,0.5,,,,,,,,,,,,,0,32,32,24,1,,,,,,,,,,,,,,,,,,,,,,,,,,,,
,,,,,V3_014,18,female,2024-10-15_20h23.10.897,jersey_experiment_5_v3,2023.2.2,Win32,84.74576271,,,,,,,,,,,,,,,,651.9208,653.2149,653.215,654.1678,return,0.4112,,90.88541667,,,,,,FBP-RB-18.png,0.43,1.2,54,0.5,,,,,,,,,,,,,0,33,33,53,1,,,,,,,,,,,,,,,,,,,,,,,,,,,,
,,,,,V3_014,18,female,2024-10-15_20h23.10.897,jersey_experiment_5_v3,2023.2.2,Win32,84.74576271,,,,,,,,,,,,,,,,654.1681,655.4621,655.4622,656.5444,return,0.4295,,82.03125,,,,,,FBP-YG-71.png,0.4,1.2,3,0.5,,,,,,,,,,,,,0,34,34,2,1,,,,,,,,,,,,,,,,,,,,,,,,,,,,
,,,,,V3_014,18,female,2024-10-15_20h23.10.897,jersey_experiment_5_v3,2023.2.2,Win32,84.74576271,,,,,,,,,,,,,,,,656.5445,657.8384,657.8385,659.2033,return,0.4368,,44.53125,,,,,,FBP-RB-19.png,0.35,1.2,56,0.5,,,,,,,,,,,,,0,35,35,55,1,,,,,,,,,,,,,,,,,,,,,,,,,,,,
,,,,,V3_014,18,female,2024-10-15_20h23.10.897,jersey_experiment_5_v3,2023.2.2,Win32,84.74576271,,,,,,,,,,,,,,,,659.2037,660.4974,660.4975,661.8268,return,0.4478,,27.21354167,,,,,,FBP-YG-81.png,0.35,1.2,6,0.5,,,,,,,,,,,,,0,36,36,5,1,,,,,,,,,,,,,,,,,,,,,,,,,,,,
,,,,,V3_014,18,female,2024-10-15_20h23.10.897,jersey_experiment_5_v3,2023.2.2,Win32,84.74576271,,,,,,,,,,,,,,,,661.8271,663.1211,663.1212,664.4976,return,0.4754,,22.39583333,,,,,,FBP-RB-18.png,0.35,1.2,51,0.5,,,,,,,,,,,,,0,37,37,50,1,,,,,,,,,,,,,,,,,,,,,,,,,,,,
,,,,,V3_014,18,female,2024-10-15_20h23.10.897,jersey_experiment_5_v3,2023.2.2,Win32,84.74576271,,,,,,,,,,,,,,,,664.4979,666.0508,666.0508,667.6623,return,0.5132,,65.88541667,,,,,,FBP-OG-18.png,0.4,1.2,38,0.75,,,,,,,,,,,,,0,38,38,37,1,,,,,,,,,,,,,,,,,,,,,,,,,,,,
,,,,,V3_014,18,female,2024-10-15_20h23.10.897,jersey_experiment_5_v3,2023.2.2,Win32,84.74576271,,,,,,,,,,,,,,,,667.6625,668.9566,668.9567,670.7684,return,0.875,,89.32291667,,,,,,FBP-PT-18.png,0.43,1.2,24,0.5,,,,,,,,,,,,,0,39,39,23,1,,,,,,,,,,,,,,,,,,,,,,,,,,,,
,,,,,V3_014,18,female,2024-10-15_20h23.10.897,jersey_experiment_5_v3,2023.2.2,Win32,84.74576271,,,,,,,,,,,,,,,,670.7687,672.0625,672.0625,673.3096,return,0.4675,,68.09895833,,,,,,FBP-RB-19.png,0.4,1.2,58,0.5,,,,,,,,,,,,,0,40,40,57,1,,,,,,,,,,,,,,,,,,,,,,,,,,,,
,,,,,V3_014,18,female,2024-10-15_20h23.10.897,jersey_experiment_5_v3,2023.2.2,Win32,84.74576271,,,,,,,,,,,,,,,,673.3099,674.863,674.863,675.9569,return,0.4821,,94.40104167,,,,,,FBP-OG-19.png,0.43,1.2,44,0.75,,,,,,,,,,,,,0,41,41,43,1,,,,,,,,,,,,,,,,,,,,,,,,,,,,
,,,,,V3_014,18,female,2024-10-15_20h23.10.897,jersey_experiment_5_v3,2023.2.2,Win32,84.74576271,,,,,,,,,,,,,,,,675.9574,677.2512,677.2512,678.6746,return,0.5407,,99.609375,,,,,,FBP-RB-18.png,0.45,1.2,55,0.5,,,,,,,,,,,,,0,42,42,54,1,,,,,,,,,,,,,,,,,,,,,,,,,,,,
,,,,,V3_014,18,female,2024-10-15_20h23.10.897,jersey_experiment_5_v3,2023.2.2,Win32,84.74576271,,,,,,,,,,,,,,,,678.6748,679.9689,679.9689,680.9099,return,0.5695,,99.609375,,,,,,FBP-YG-81.png,0.45,1.2,10,0.5,,,,,,,,,,,,,0,43,43,9,1,,,,,,,,,,,,,,,,,,,,,,,,,,,,
,,,,,V3_014,18,female,2024-10-15_20h23.10.897,jersey_experiment_5_v3,2023.2.2,Win32,84.74576271,,,,,,,,,,,,,,,,680.9101,682.2042,682.2042,683.4278,return,0.4848,,80.98958333,,,,,,FBP-PT-17.png,0.4,1.2,18,0.5,,,,,,,,,,,,,0,44,44,17,1,,,,,,,,,,,,,,,,,,,,,,,,,,,,
,,,,,V3_014,18,female,2024-10-15_20h23.10.897,jersey_experiment_5_v3,2023.2.2,Win32,84.74576271,,,,,,,,,,,,,,,,683.428,684.7219,684.7219,686.0043,return,0.4571,,88.671875,,,,,,FBP-PT-17.png,0.43,1.2,19,0.5,,,,,,,,,,,,,0,45,45,18,1,,,,,,,,,,,,,,,,,,,,,,,,,,,,
,,,,,V3_014,18,female,2024-10-15_20h23.10.897,jersey_experiment_5_v3,2023.2.2,Win32,84.74576271,,,,,,,,,,,,,,,,686.0045,687.5573,687.5574,688.9102,return,0.4906,,94.921875,,,,,,FBP-OG-18.png,0.45,1.2,40,0.75,,,,,,,,,,,,,0,46,46,39,1,,,,,,,,,,,,,,,,,,,,,,,,,,,,
,,,,,V3_014,18,female,2024-10-15_20h23.10.897,jersey_experiment_5_v3,2023.2.2,Win32,84.74576271,,,,,,,,,,,,,,,,688.9105,690.2044,690.2045,691.381,return,0.4632,,96.61458333,,,,,,FBP-RB-17.png,0.43,1.2,49,0.5,,,,,,,,,,,,,0,47,47,48,1,,,,,,,,,,,,,,,,,,,,,,,,,,,,
,,,,,V3_014,18,female,2024-10-15_20h23.10.897,jersey_experiment_5_v3,2023.2.2,Win32,84.74576271,,,,,,,,,,,,,,,,691.3813,692.6751,692.6752,693.8399,return,0.5475,,64.84375,,,,,,FBP-YG-71.png,0.37,1.2,2,0.5,,,,,,,,,,,,,0,48,48,1,1,,,,,,,,,,,,,,,,,,,,,,,,,,,,
,,,,,V3_014,18,female,2024-10-15_20h23.10.897,jersey_experiment_5_v3,2023.2.2,Win32,84.74576271,,,,,,,,,,,,,,,,693.8401,695.134,695.1341,696.5576,return,0.5147,,37.890625,,,,,,FBP-PT-19.png,0.35,1.2,26,0.5,,,,,,,,,,,,,0,49,49,25,1,,,,,,,,,,,,,,,,,,,,,,,,,,,,
,,,,,V3_014,18,female,2024-10-15_20h23.10.897,jersey_experiment_5_v3,2023.2.2,Win32,84.74576271,,,,,,,,,,,,,,,,696.5578,697.8517,697.8518,699.2988,return,0.4506,,27.21354167,,,,,,FBP-RB-17.png,0.35,1.2,46,0.5,,,,,,,,,,,,,0,50,50,45,1,,,,,,,,,,,,,,,,,,,,,,,,,,,,
,,,,,V3_014,18,female,2024-10-15_20h23.10.897,jersey_experiment_5_v3,2023.2.2,Win32,84.74576271,,,,,,,,,,,,,,,,699.2992,700.5932,700.5932,703.6167,return,2.0049,,88.15104167,,,,,,FBP-RB-19.png,0.43,1.2,59,0.5,,,,,,,,,,,,,0,51,51,58,1,,,,,,,,,,,,,,,,,,,,,,,,,,,,
,,,,,V3_014,18,female,2024-10-15_20h23.10.897,jersey_experiment_5_v3,2023.2.2,Win32,84.74576271,,,,,,,,,,,,,,,,703.617,704.9109,704.9109,706.1462,return,0.4742,,98.828125,,,,,,FBP-PT-19.png,0.45,1.2,30,0.5,,,,,,,,,,,,,0,52,52,29,1,,,,,,,,,,,,,,,,,,,,,,,,,,,,
,,,,,V3_014,18,female,2024-10-15_20h23.10.897,jersey_experiment_5_v3,2023.2.2,Win32,84.74576271,,,,,,,,,,,,,,,,706.1464,707.4404,707.4405,708.7346,return,0.5021,,81.38020833,,,,,,FBP-YG-81.png,0.4,1.2,8,0.5,,,,,,,,,,,,,0,53,53,7,1,,,,,,,,,,,,,,,,,,,,,,,,,,,,
,,,,,V3_014,18,female,2024-10-15_20h23.10.897,jersey_experiment_5_v3,2023.2.2,Win32,84.74576271,,,,,,,,,,,,,,,,708.7349,710.0287,710.0287,711.2523,return,0.5983,,97.39583333,,,,,,FBP-YG-71.png,0.43,1.2,4,0.5,,,,,,,,,,,,,0,54,54,3,1,,,,,,,,,,,,,,,,,,,,,,,,,,,,
,,,,,V3_014,18,female,2024-10-15_20h23.10.897,jersey_experiment_5_v3,2023.2.2,Win32,84.74576271,,,,,,,,,,,,,,,,711.2526,712.8053,712.8053,714.1819,return,0.51,,92.05729167,,,,,,FBP-OG-18.png,0.43,1.2,39,0.75,,,,,,,,,,,,,0,55,55,38,1,,,,,,,,,,,,,,,,,,,,,,,,,,,,
,,,,,V3_014,18,female,2024-10-15_20h23.10.897,jersey_experiment_5_v3,2023.2.2,Win32,84.74576271,,,,,,,,,,,,,,,,714.1821,715.7351,715.7352,716.7819,return,0.479,,94.66145833,,,,,,FBP-OG-17.png,0.45,1.2,35,0.75,,,,,,,,,,,,,0,56,56,34,1,,,,,,,,,,,,,,,,,,,,,,,,,,,,
,,,,,V3_014,18,female,2024-10-15_20h23.10.897,jersey_experiment_5_v3,2023.2.2,Win32,84.74576271,,,,,,,,,,,,,,,,716.782,718.3233,718.3234,719.4762,return,0.5196,,39.58333333,,,,,,FBP-OG-17.png,0.37,1.2,32,0.75,,,,,,,,,,,,,0,57,57,31,1,,,,,,,,,,,,,,,,,,,,,,,,,,,,
,,,,,V3_014,18,female,2024-10-15_20h23.10.897,jersey_experiment_5_v3,2023.2.2,Win32,84.74576271,,,,,,,,,,,,,,,,719.4764,720.7702,720.7702,722.1116,return,0.5453,,72.78645833,,,,,,FBP-YG-91.png,0.4,1.2,13,0.5,,,,,,,,,,,,,0,58,58,12,1,,,,,,,,,,,,,,,,,,,,,,,,,,,,
,,,,,V3_014,18,female,2024-10-15_20h23.10.897,jersey_experiment_5_v3,2023.2.2,Win32,84.74576271,,,,,,,,,,,,,,,,722.1118,723.4057,723.4058,724.5822,return,0.4685,,45.3125,,,,,,FBP-YG-91.png,0.37,1.2,12,0.5,,,,,,,,,,,,,0,59,59,11,1,,,,,,,,,,,,,,,,,,,,,,,,,,,,
,,,,,V3_014,18,female,2024-10-15_20h23.10.897,jersey_experiment_5_v3,2023.2.2,Win32,84.74576271,,,,,,,,,,,,,,,,724.5834,725.8767,725.8768,727.7353,return,0.5878,,91.53645833,,,,,,FBP-YG-17.png,0.45,1.2,5,0.5,,,,,,,,,,,,,,,,,,0,0,0,4,1,,,,,,,,,,,,,,,,,,,,,,,
,,,,,V3_014,18,female,2024-10-15_20h23.10.897,jersey_experiment_5_v3,2023.2.2,Win32,84.74576271,,,,,,,,,,,,,,,,727.7356,729.0295,729.0295,731.2295,return,0.513,,75.65104167,,,,,,FBP-PT-91.png,0.45,1.2,30,0.5,,,,,,,,,,,,,,,,,,0,1,1,29,1,,,,,,,,,,,,,,,,,,,,,,,
,,,,,V3_014,18,female,2024-10-15_20h23.10.897,jersey_experiment_5_v3,2023.2.2,Win32,84.74576271,,,,,,,,,,,,,,,,731.2298,732.7827,732.7827,733.9355,return,0.5112,,85.41666667,,,,,,FBP-OG-81.png,0.43,1.2,39,0.75,,,,,,,,,,,,,,,,,,0,2,2,38,1,,,,,,,,,,,,,,,,,,,,,,,
,,,,,V3_014,18,female,2024-10-15_20h23.10.897,jersey_experiment_5_v3,2023.2.2,Win32,84.74576271,,,,,,,,,,,,,,,,733.9357,735.2296,735.2297,736.6885,return,0.51,,78.90625,,,,,,FBP-PT-81.png,0.43,1.2,24,0.5,,,,,,,,,,,,,,,,,,0,3,3,23,1,,,,,,,,,,,,,,,,,,,,,,,
,,,,,V3_014,18,female,2024-10-15_20h23.10.897,jersey_experiment_5_v3,2023.2.2,Win32,84.74576271,,,,,,,,,,,,,,,,736.6888,737.9828,737.9828,739.4769,return,0.5389,,55.20833333,,,,,,FBP-PT-81.png,0.37,1.2,22,0.5,,,,,,,,,,,,,,,,,,0,4,4,21,1,,,,,,,,,,,,,,,,,,,,,,,
,,,,,V3_014,18,female,2024-10-15_20h23.10.897,jersey_experiment_5_v3,2023.2.2,Win32,84.74576271,,,,,,,,,,,,,,,,739.4772,740.771,740.7711,742.0063,return,0.5275,,77.734375,,,,,,FBP-YG-19.png,0.43,1.2,14,0.5,,,,,,,,,,,,,,,,,,0,5,5,13,1,,,,,,,,,,,,,,,,,,,,,,,
,,,,,V3_014,18,female,2024-10-15_20h23.10.897,jersey_experiment_5_v3,2023.2.2,Win32,84.74576271,,,,,,,,,,,,,,,,742.0066,743.3006,743.3007,744.383,return,0.4862,,82.94270833,,,,,,FBP-RB-81.png,0.45,1.2,55,0.5,,,,,,,,,,,,,,,,,,0,6,6,54,1,,,,,,,,,,,,,,,,,,,,,,,
,,,,,V3_014,18,female,2024-10-15_20h23.10.897,jersey_experiment_5_v3,2023.2.2,Win32,84.74576271,,,,,,,,,,,,,,,,744.3832,745.9361,745.9361,747.0302,return,0.4866,,65.75520833,,,,,,FBP-OG-71.png,0.4,1.2,33,0.75,,,,,,,,,,,,,,,,,,0,7,7,32,1,,,,,,,,,,,,,,,,,,,,,,,
,,,,,V3_014,18,female,2024-10-15_20h23.10.897,jersey_experiment_5_v3,2023.2.2,Win32,84.74576271,,,,,,,,,,,,,,,,747.0304,748.3243,748.3244,749.6773,return,0.4634,,79.296875,,,,,,FBP-RB-81.png,0.43,1.2,54,0.5,,,,,,,,,,,,,,,,,,0,8,8,53,1,,,,,,,,,,,,,,,,,,,,,,,
,,,,,V3_014,18,female,2024-10-15_20h23.10.897,jersey_experiment_5_v3,2023.2.2,Win32,84.74576271,,,,,,,,,,,,,,,,749.6774,750.9714,750.9714,752.1833,return,0.4861,,44.40104167,,,,,,FBP-RB-81.png,0.35,1.2,51,0.5,,,,,,,,,,,,,,,,,,0,9,9,50,1,,,,,,,,,,,,,,,,,,,,,,,
,,,,,V3_014,18,female,2024-10-15_20h23.10.897,jersey_experiment_5_v3,2023.2.2,Win32,84.74576271,,,,,,,,,,,,,,,,752.1835,753.4774,753.4774,754.6068,return,0.4526,,43.359375,,,,,,FBP-RB-71.png,0.37,1.2,47,0.5,,,,,,,,,,,,,,,,,,0,10,10,46,1,,,,,,,,,,,,,,,,,,,,,,,
,,,,,V3_014,18,female,2024-10-15_20h23.10.897,jersey_experiment_5_v3,2023.2.2,Win32,84.74576271,,,,,,,,,,,,,,,,754.6071,756.16,756.16,757.5364,return,0.5706,,84.89583333,,,,,,FBP-OG-71.png,0.45,1.2,35,0.75,,,,,,,,,,,,,,,,,,0,11,11,34,1,,,,,,,,,,,,,,,,,,,,,,,
,,,,,V3_014,18,female,2024-10-15_20h23.10.897,jersey_experiment_5_v3,2023.2.2,Win32,84.74576271,,,,,,,,,,,,,,,,757.5366,758.8305,758.8305,760.1129,return,0.4877,,55.20833333,,,,,,FBP-PT-91.png,0.4,1.2,28,0.5,,,,,,,,,,,,,,,,,,0,12,12,27,1,,,,,,,,,,,,,,,,,,,,,,,
,,,,,V3_014,18,female,2024-10-15_20h23.10.897,jersey_experiment_5_v3,2023.2.2,Win32,84.74576271,,,,,,,,,,,,,,,,760.1132,761.6661,761.6661,762.6425,return,0.4745,,42.70833333,,,,,,FBP-OG-71.png,0.37,1.2,32,0.75,,,,,,,,,,,,,,,,,,0,13,13,31,1,,,,,,,,,,,,,,,,,,,,,,,
,,,,,V3_014,18,female,2024-10-15_20h23.10.897,jersey_experiment_5_v3,2023.2.2,Win32,84.74576271,,,,,,,,,,,,,,,,762.6428,763.9367,763.9367,765.7484,return,0.4726,,36.71875,,,,,,FBP-RB-71.png,0.35,1.2,46,0.5,,,,,,,,,,,,,,,,,,0,14,14,45,1,,,,,,,,,,,,,,,,,,,,,,,
,,,,,V3_014,18,female,2024-10-15_20h23.10.897,jersey_experiment_5_v3,2023.2.2,Win32,84.74576271,,,,,,,,,,,,,,,,765.7487,767.0427,767.0427,768.5957,return,0.4828,,25.52083333,,,,,,FBP-RB-91.png,0.35,1.2,56,0.5,,,,,,,,,,,,,,,,,,0,15,15,55,1,,,,,,,,,,,,,,,,,,,,,,,
,,,,,V3_014,18,female,2024-10-15_20h23.10.897,jersey_experiment_5_v3,2023.2.2,Win32,84.74576271,,,,,,,,,,,,,,,,768.5959,770.1487,770.1487,771.9016,return,0.5381,,70.3125,,,,,,FBP-OG-71.png,0.43,1.2,34,0.75,,,,,,,,,,,,,,,,,,0,16,16,33,1,,,,,,,,,,,,,,,,,,,,,,,
,,,,,V3_014,18,female,2024-10-15_20h23.10.897,jersey_experiment_5_v3,2023.2.2,Win32,84.74576271,,,,,,,,,,,,,,,,771.9018,773.1959,773.1959,774.5253,return,0.5582,,84.24479167,,,,,,FBP-PT-81.png,0.45,1.2,25,0.5,,,,,,,,,,,,,,,,,,0,17,17,24,1,,,,,,,,,,,,,,,,,,,,,,,
,,,,,V3_014,18,female,2024-10-15_20h23.10.897,jersey_experiment_5_v3,2023.2.2,Win32,84.74576271,,,,,,,,,,,,,,,,774.5255,775.8195,775.8195,776.9843,return,0.4727,,58.72395833,,,,,,FBP-PT-71.png,0.35,1.2,16,0.5,,,,,,,,,,,,,,,,,,0,18,18,15,1,,,,,,,,,,,,,,,,,,,,,,,
,,,,,V3_014,18,female,2024-10-15_20h23.10.897,jersey_experiment_5_v3,2023.2.2,Win32,84.74576271,,,,,,,,,,,,,,,,776.9845,778.2783,778.2783,779.5725,return,0.4715,,73.69791667,,,,,,FBP-RB-91.png,0.4,1.2,58,0.5,,,,,,,,,,,,,,,,,,0,19,19,57,1,,,,,,,,,,,,,,,,,,,,,,,
,,,,,V3_014,18,female,2024-10-15_20h23.10.897,jersey_experiment_5_v3,2023.2.2,Win32,84.74576271,,,,,,,,,,,,,,,,779.5727,781.1256,781.1256,782.2079,return,0.442,,45.83333333,,,,,,FBP-OG-91.png,0.4,1.2,43,0.75,,,,,,,,,,,,,,,,,,0,20,20,42,1,,,,,,,,,,,,,,,,,,,,,,,
,,,,,V3_014,18,female,2024-10-15_20h23.10.897,jersey_experiment_5_v3,2023.2.2,Win32,84.74576271,,,,,,,,,,,,,,,,782.2082,783.502,783.5021,784.5492,return,0.4567,,37.63020833,,,,,,FBP-PT-91.png,0.37,1.2,27,0.5,,,,,,,,,,,,,,,,,,0,21,21,26,1,,,,,,,,,,,,,,,,,,,,,,,
,,,,,V3_014,18,female,2024-10-15_20h23.10.897,jersey_experiment_5_v3,2023.2.2,Win32,84.74576271,,,,,,,,,,,,,,,,784.5495,785.8434,785.8435,787.0434,return,0.4844,,64.84375,,,,,,FBP-PT-81.png,0.4,1.2,23,0.5,,,,,,,,,,,,,,,,,,0,22,22,22,1,,,,,,,,,,,,,,,,,,,,,,,
,,,,,V3_014,18,female,2024-10-15_20h23.10.897,jersey_experiment_5_v3,2023.2.2,Win32,84.74576271,,,,,,,,,,,,,,,,787.0436,788.5964,788.5965,789.6787,return,0.4882,,75.78125,,,,,,FBP-OG-81.png,0.45,1.2,40,0.75,,,,,,,,,,,,,,,,,,0,23,23,39,1,,,,,,,,,,,,,,,,,,,,,,,
,,,,,V3_014,18,female,2024-10-15_20h23.10.897,jersey_experiment_5_v3,2023.2.2,Win32,84.74576271,,,,,,,,,,,,,,,,789.679,790.973,790.9731,791.973,return,0.5093,,79.42708333,,,,,,FBP-RB-81.png,0.4,1.2,53,0.5,,,,,,,,,,,,,,,,,,0,24,24,52,1,,,,,,,,,,,,,,,,,,,,,,,
,,,,,V3_014,18,female,2024-10-15_20h23.10.897,jersey_experiment_5_v3,2023.2.2,Win32,84.74576271,,,,,,,,,,,,,,,,791.9733,793.2672,793.2672,794.3847,return,0.4763,,92.70833333,,,,,,FBP-YG-18.png,0.45,1.2,10,0.5,,,,,,,,,,,,,,,,,,0,25,25,9,1,,,,,,,,,,,,,,,,,,,,,,,
,,,,,V3_014,18,female,2024-10-15_20h23.10.897,jersey_experiment_5_v3,2023.2.2,Win32,84.74576271,,,,,,,,,,,,,,,,794.3849,795.9263,795.9264,797.1731,return,0.4859,,70.18229167,,,,,,FBP-OG-81.png,0.4,1.2,38,0.75,,,,,,,,,,,,,,,,,,0,26,26,37,1,,,,,,,,,,,,,,,,,,,,,,,
,,,,,V3_014,18,female,2024-10-15_20h23.10.897,jersey_experiment_5_v3,2023.2.2,Win32,84.74576271,,,,,,,,,,,,,,,,797.1733,798.4674,798.4674,799.6791,return,0.5012,,47.00520833,,,,,,FBP-PT-71.png,0.37,1.2,17,0.5,,,,,,,,,,,,,,,,,,0,27,27,16,1,,,,,,,,,,,,,,,,,,,,,,,
,,,,,V3_014,18,female,2024-10-15_20h23.10.897,jersey_experiment_5_v3,2023.2.2,Win32,84.74576271,,,,,,,,,,,,,,,,799.6793,800.9735,800.9735,802.1968,return,0.4801,,80.72916667,,,,,,FBP-RB-91.png,0.45,1.2,60,0.5,,,,,,,,,,,,,,,,,,0,28,28,59,1,,,,,,,,,,,,,,,,,,,,,,,
,,,,,V3_014,18,female,2024-10-15_20h23.10.897,jersey_experiment_5_v3,2023.2.2,Win32,84.74576271,,,,,,,,,,,,,,,,802.1971,803.4911,803.4911,805.0324,return,0.5676,,26.953125,,,,,,FBP-RB-91.png,0.37,1.2,57,0.5,,,,,,,,,,,,,,,,,,0,29,29,56,1,,,,,,,,,,,,,,,,,,,,,,,
,,,,,V3_014,18,female,2024-10-15_20h23.10.897,jersey_experiment_5_v3,2023.2.2,Win32,84.74576271,,,,,,,,,,,,,,,,805.0326,806.3265,806.3265,807.856,return,0.4887,,49.34895833,,,,,,FBP-YG-18.png,0.4,1.2,8,0.5,,,,,,,,,,,,,,,,,,0,30,30,7,1,,,,,,,,,,,,,,,,,,,,,,,
,,,,,V3_014,18,female,2024-10-15_20h23.10.897,jersey_experiment_5_v3,2023.2.2,Win32,84.74576271,,,,,,,,,,,,,,,,807.8562,809.1502,809.1502,810.456,return,0.5022,,76.82291667,,,,,,FBP-RB-91.png,0.43,1.2,59,0.5,,,,,,,,,,,,,,,,,,0,31,31,58,1,,,,,,,,,,,,,,,,,,,,,,,
,,,,,V3_014,18,female,2024-10-15_20h23.10.897,jersey_experiment_5_v3,2023.2.2,Win32,84.74576271,,,,,,,,,,,,,,,,810.4563,812.0092,812.0092,813.0914,return,0.4811,,47.91666667,,,,,,FBP-OG-71.png,0.35,1.2,31,0.75,,,,,,,,,,,,,,,,,,0,32,32,30,1,,,,,,,,,,,,,,,,,,,,,,,
,,,,,V3_014,18,female,2024-10-15_20h23.10.897,jersey_experiment_5_v3,2023.2.2,Win32,84.74576271,,,,,,,,,,,,,,,,813.0917,814.3857,814.3857,815.4444,return,0.4961,,80.72916667,,,,,,FBP-YG-19.png,0.4,1.2,13,0.5,,,,,,,,,,,,,,,,,,0,33,33,12,1,,,,,,,,,,,,,,,,,,,,,,,
,,,,,V3_014,18,female,2024-10-15_20h23.10.897,jersey_experiment_5_v3,2023.2.2,Win32,84.74576271,,,,,,,,,,,,,,,,815.4447,816.7387,816.7388,817.9387,return,0.5316,,92.70833333,,,,,,FBP-RB-71.png,0.43,1.2,49,0.5,,,,,,,,,,,,,,,,,,0,34,34,48,1,,,,,,,,,,,,,,,,,,,,,,,
,,,,,V3_014,18,female,2024-10-15_20h23.10.897,jersey_experiment_5_v3,2023.2.2,Win32,84.74576271,,,,,,,,,,,,,,,,817.9389,819.4918,819.4919,821.5271,return,1.4035,,63.80208333,,,,,,FBP-OG-81.png,0.37,1.2,37,0.75,,,,,,,,,,,,,,,,,,0,35,35,36,1,,,,,,,,,,,,,,,,,,,,,,,
,,,,,V3_014,18,female,2024-10-15_20h23.10.897,jersey_experiment_5_v3,2023.2.2,Win32,84.74576271,,,,,,,,,,,,,,,,821.5273,823.0801,823.0801,823.9508,return,0.4748,,60.15625,,,,,,FBP-OG-91.png,0.37,1.2,42,0.75,,,,,,,,,,,,,,,,,,0,36,36,41,1,,,,,,,,,,,,,,,,,,,,,,,
,,,,,V3_014,18,female,2024-10-15_20h23.10.897,jersey_experiment_5_v3,2023.2.2,Win32,84.74576271,,,,,,,,,,,,,,,,823.951,825.2449,825.2449,826.339,return,0.4741,,48.4375,,,,,,FBP-PT-91.png,0.35,1.2,26,0.5,,,,,,,,,,,,,,,,,,0,37,37,25,1,,,,,,,,,,,,,,,,,,,,,,,
,,,,,V3_014,18,female,2024-10-15_20h23.10.897,jersey_experiment_5_v3,2023.2.2,Win32,84.74576271,,,,,,,,,,,,,,,,826.3393,827.6331,827.6331,828.9273,return,0.4855,,45.18229167,,,,,,FBP-YG-18.png,0.35,1.2,6,0.5,,,,,,,,,,,,,,,,,,0,38,38,5,1,,,,,,,,,,,,,,,,,,,,,,,
,,,,,V3_014,18,female,2024-10-15_20h23.10.897,jersey_experiment_5_v3,2023.2.2,Win32,84.74576271,,,,,,,,,,,,,,,,828.9276,830.2214,830.2214,831.798,return,0.5277,,75.13020833,,,,,,FBP-YG-18.png,0.43,1.2,9,0.5,,,,,,,,,,,,,,,,,,0,39,39,8,1,,,,,,,,,,,,,,,,,,,,,,,
,,,,,V3_014,18,female,2024-10-15_20h23.10.897,jersey_experiment_5_v3,2023.2.2,Win32,84.74576271,,,,,,,,,,,,,,,,831.7982,833.0922,833.0923,834.21,return,0.4971,,67.578125,,,,,,FBP-PT-71.png,0.4,1.2,18,0.5,,,,,,,,,,,,,,,,,,0,40,40,17,1,,,,,,,,,,,,,,,,,,,,,,,
,,,,,V3_014,18,female,2024-10-15_20h23.10.897,jersey_experiment_5_v3,2023.2.2,Win32,84.74576271,,,,,,,,,,,,,,,,834.2103,835.504,835.504,836.4453,return,0.4676,,64.32291667,,,,,,FBP-YG-17.png,0.37,1.2,2,0.5,,,,,,,,,,,,,,,,,,0,41,41,1,1,,,,,,,,,,,,,,,,,,,,,,,
,,,,,V3_014,18,female,2024-10-15_20h23.10.897,jersey_experiment_5_v3,2023.2.2,Win32,84.74576271,,,,,,,,,,,,,,,,836.4454,837.7395,837.7396,838.7748,return,0.5075,,81.11979167,,,,,,FBP-YG-17.png,0.4,1.2,3,0.5,,,,,,,,,,,,,,,,,,0,42,42,2,1,,,,,,,,,,,,,,,,,,,,,,,
,,,,,V3_014,18,female,2024-10-15_20h23.10.897,jersey_experiment_5_v3,2023.2.2,Win32,84.74576271,,,,,,,,,,,,,,,,838.7752,840.0689,840.0689,841.0572,return,0.5107,,88.02083333,,,,,,FBP-PT-71.png,0.45,1.2,20,0.5,,,,,,,,,,,,,,,,,,0,43,43,19,1,,,,,,,,,,,,,,,,,,,,,,,
,,,,,V3_014,18,female,2024-10-15_20h23.10.897,jersey_experiment_5_v3,2023.2.2,Win32,84.74576271,,,,,,,,,,,,,,,,841.0575,842.3516,842.3516,843.928,return,0.5103,,48.69791667,,,,,,FBP-YG-19.png,0.35,1.2,11,0.5,,,,,,,,,,,,,,,,,,0,44,44,10,1,,,,,,,,,,,,,,,,,,,,,,,
,,,,,V3_014,18,female,2024-10-15_20h23.10.897,jersey_experiment_5_v3,2023.2.2,Win32,84.74576271,,,,,,,,,,,,,,,,843.9283,845.2221,845.2221,846.5516,return,0.4712,,81.25,,,,,,FBP-YG-19.png,0.45,1.2,15,0.5,,,,,,,,,,,,,,,,,,0,45,45,14,1,,,,,,,,,,,,,,,,,,,,,,,
,,,,,V3_014,18,female,2024-10-15_20h23.10.897,jersey_experiment_5_v3,2023.2.2,Win32,84.74576271,,,,,,,,,,,,,,,,846.5519,848.1045,848.1046,849.1398,return,0.4811,,82.8125,,,,,,FBP-OG-91.png,0.43,1.2,44,0.75,,,,,,,,,,,,,,,,,,0,46,46,43,1,,,,,,,,,,,,,,,,,,,,,,,
,,,,,V3_014,18,female,2024-10-15_20h23.10.897,jersey_experiment_5_v3,2023.2.2,Win32,84.74576271,,,,,,,,,,,,,,,,849.14,850.434,850.434,851.6459,return,0.5145,,87.63020833,,,,,,FBP-PT-91.png,0.43,1.2,29,0.5,,,,,,,,,,,,,,,,,,0,47,47,28,1,,,,,,,,,,,,,,,,,,,,,,,
,,,,,V3_014,18,female,2024-10-15_20h23.10.897,jersey_experiment_5_v3,2023.2.2,Win32,84.74576271,,,,,,,,,,,,,,,,851.6461,853.199,853.1991,854.3989,return,0.4429,,46.09375,,,,,,FBP-OG-91.png,0.35,1.2,41,0.75,,,,,,,,,,,,,,,,,,0,48,48,40,1,,,,,,,,,,,,,,,,,,,,,,,
,,,,,V3_014,18,female,2024-10-15_20h23.10.897,jersey_experiment_5_v3,2023.2.2,Win32,84.74576271,,,,,,,,,,,,,,,,854.3992,855.6931,855.6931,857.0226,return,0.5493,,51.5625,,,,,,FBP-YG-18.png,0.37,1.2,7,0.5,,,,,,,,,,,,,,,,,,0,49,49,6,1,,,,,,,,,,,,,,,,,,,,,,,
,,,,,V3_014,18,female,2024-10-15_20h23.10.897,jersey_experiment_5_v3,2023.2.2,Win32,84.74576271,,,,,,,,,,,,,,,,857.0227,858.3166,858.3166,860.7756,return,1.742,,75.390625,,,,,,FBP-PT-71.png,0.43,1.2,19,0.5,,,,,,,,,,,,,,,,,,0,50,50,18,1,,,,,,,,,,,,,,,,,,,,,,,
,,,,,V3_014,18,female,2024-10-15_20h23.10.897,jersey_experiment_5_v3,2023.2.2,Win32,84.74576271,,,,,,,,,,,,,,,,860.7758,862.0697,862.0697,863.2228,return,0.5101,,71.61458333,,,,,,FBP-RB-81.png,0.37,1.2,52,0.5,,,,,,,,,,,,,,,,,,0,51,51,51,1,,,,,,,,,,,,,,,,,,,,,,,
,,,,,V3_014,18,female,2024-10-15_20h23.10.897,jersey_experiment_5_v3,2023.2.2,Win32,84.74576271,,,,,,,,,,,,,,,,863.223,864.5168,864.5169,865.6228,return,0.5202,,94.921875,,,,,,FBP-RB-71.png,0.45,1.2,50,0.5,,,,,,,,,,,,,,,,,,0,52,52,49,1,,,,,,,,,,,,,,,,,,,,,,,
,,,,,V3_014,18,female,2024-10-15_20h23.10.897,jersey_experiment_5_v3,2023.2.2,Win32,84.74576271,,,,,,,,,,,,,,,,865.623,867.176,867.176,868.623,return,0.478,,54.55729167,,,,,,FBP-OG-81.png,0.35,1.2,36,0.75,,,,,,,,,,,,,,,,,,0,53,53,35,1,,,,,,,,,,,,,,,,,,,,,,,
,,,,,V3_014,18,female,2024-10-15_20h23.10.897,jersey_experiment_5_v3,2023.2.2,Win32,84.74576271,,,,,,,,,,,,,,,,868.6232,870.1761,870.1761,871.223,return,0.4601,,79.94791667,,,,,,FBP-OG-91.png,0.45,1.2,45,0.75,,,,,,,,,,,,,,,,,,0,54,54,44,1,,,,,,,,,,,,,,,,,,,,,,,
,,,,,V3_014,18,female,2024-10-15_20h23.10.897,jersey_experiment_5_v3,2023.2.2,Win32,84.74576271,,,,,,,,,,,,,,,,871.2233,872.5172,872.5172,873.4938,return,0.4554,,67.05729167,,,,,,FBP-RB-71.png,0.4,1.2,48,0.5,,,,,,,,,,,,,,,,,,0,55,55,47,1,,,,,,,,,,,,,,,,,,,,,,,
,,,,,V3_014,18,female,2024-10-15_20h23.10.897,jersey_experiment_5_v3,2023.2.2,Win32,84.74576271,,,,,,,,,,,,,,,,873.494,874.7879,874.7879,877.2703,return,1.5457,,61.328125,,,,,,FBP-YG-17.png,0.35,1.2,1,0.5,,,,,,,,,,,,,,,,,,0,56,56,0,1,,,,,,,,,,,,,,,,,,,,,,,
,,,,,V3_014,18,female,2024-10-15_20h23.10.897,jersey_experiment_5_v3,2023.2.2,Win32,84.74576271,,,,,,,,,,,,,,,,877.2707,878.5644,878.5645,879.6469,return,0.4752,,83.46354167,,,,,,FBP-YG-17.png,0.43,1.2,4,0.5,,,,,,,,,,,,,,,,,,0,57,57,3,1,,,,,,,,,,,,,,,,,,,,,,,
,,,,,V3_014,18,female,2024-10-15_20h23.10.897,jersey_experiment_5_v3,2023.2.2,Win32,84.74576271,,,,,,,,,,,,,,,,879.6471,880.9411,880.9411,882.3175,return,0.4874,,61.45833333,,,,,,FBP-YG-19.png,0.37,1.2,12,0.5,,,,,,,,,,,,,,,,,,0,58,58,11,1,,,,,,,,,,,,,,,,,,,,,,,
,,,,,V3_014,18,female,2024-10-15_20h23.10.897,jersey_experiment_5_v3,2023.2.2,Win32,84.74576271,,,,,,,,,,,,,,,,882.3176,883.6118,883.6118,884.7529,return,0.4721,,55.20833333,,,,,,FBP-PT-81.png,0.35,1.2,21,0.5,,,,,,,,,,,,,,,,,,0,59,59,20,1,,,,,,,,,,,,,,,,,,,,,,,
,,,,,V3_014,18,female,2024-10-15_20h23.10.897,jersey_experiment_5_v3,2023.2.2,Win32,84.74576271,,,,,,,,,,,,,,,,,,,,,,,,,,,,,,,,,,,,,,,,,,,,,,,,,,,,,,,,884.7531,891.5181,return,6.7615,,,,,,,,,,,,,,,,,,,
,,,,,V3_014,18,female,2024-10-15_20h23.10.897,jersey_experiment_5_v3,2023.2.2,Win32,84.74576271,,,,,,,,,,,,,,,,,,,,,,,,,,,,,,,,,,,,,,,,,,,,,,,,,,,,,,,,,,,,,891.5183,895.9772,1,3.0786,return,1.3666,,,,,,,,,,,,
,,,,,V3_014,18,female,2024-10-15_20h23.10.897,jersey_experiment_5_v3,2023.2.2,Win32,84.74576271,,,,,,,,,,,,,,,,,,,,,,,,,,,,,,,,,,,,,,,,,,,,,,,,,,,,,,,,,,,,,,,,,,,,895.9774,924.8725,Whether or not race impacts how I perceive the size of a player,right,23.7106,,,,,,
,,,,,V3_014,18,female,2024-10-15_20h23.10.897,jersey_experiment_5_v3,2023.2.2,Win32,84.74576271,,,,,,,,,,,,,,,,,,,,,,,,,,,,,,,,,,,,,,,,,,,,,,,,,,,,,,,,,,,,,,,,,,,,,,,,,,924.8727,927.2489,return,2.3687,