requirements.started,requirements.stopped,key_resp_3.keys,key_resp_3.rt,key_resp_3.duration,Subject ID,Age,Gender,date,expName,psychopyVersion,OS,frameRate,instructions1.started,instructions1.stopped,key_resp.keys,key_resp.rt,key_resp.duration,example.started,example.stopped,enter_2.keys,enter_2.rt,enter_2.duration,instructions2.started,instructions2.stopped,enter_3.keys,enter_3.rt,enter_3.duration,image.started,image.stopped,slider_2.started,slider_2.stopped,next.keys,next.rt,next.duration,slider.response,trial_block_1.thisRepN,trial_block_1.thisTrialN,trial_block_1.thisN,trial_block_1.thisIndex,trial_block_1.ran,Path,Width,Height,Index,Duration,trial_block_2.thisRepN,trial_block_2.thisTrialN,trial_block_2.thisN,trial_block_2.thisIndex,trial_block_2.ran,rest_break.started,rest_break.stopped,end_break.started,end_break.stopped,key_resp_5.keys,key_resp_5.rt,key_resp_5.duration,trial_block_3.thisRepN,trial_block_3.thisTrialN,trial_block_3.thisN,trial_block_3.thisIndex,trial_block_3.ran,trial_block_4.thisRepN,trial_block_4.thisTrialN,trial_block_4.thisN,trial_block_4.thisIndex,trial_block_4.ran,questions_intro.started,questions_intro.stopped,enter_12.keys,enter_12.rt,enter_12.duration,question2.started,question2.stopped,question_doingbest.response,question_doingbest.rt,enter_15.keys,enter_15.rt,enter_15.duration,pattern.started,pattern.stopped,pattern_2.text,enter_17.keys,enter_17.rt,enter_17.duration,thankyou.started,thankyou.stopped,enter_14.keys,enter_14.rt,enter_14.duration
0,16.1085,return,16.0982,,V3_085,18,Female,2024-11-21_16h48.05.555,jersey_experiment_5_v3,2023.2.2,Win32,84.74576271,,,,,,,,,,,,,,,,,,,,,,,,,,,,,,,,,,,,,,,,,,,,,,,,,,,,,,,,,,,,,,,,,,,,,,,,,,,,,,
,,,,,V3_085,18,Female,2024-11-21_16h48.05.555,jersey_experiment_5_v3,2023.2.2,Win32,84.74576271,16.1085,27.0096,return,10.886,,,,,,,,,,,,,,,,,,,,,,,,,,,,,,,,,,,,,,,,,,,,,,,,,,,,,,,,,,,,,,,,,,,,,,,,,,
,,,,,V3_085,18,Female,2024-11-21_16h48.05.555,jersey_experiment_5_v3,2023.2.2,Win32,84.74576271,,,,,,27.0096,29.9359,return,2.8996,,,,,,,,,,,,,,,,,,,,,,,,,,,,,,,,,,,,,,,,,,,,,,,,,,,,,,,,,,,,,,,,,,,,,
,,,,,V3_085,18,Female,2024-11-21_16h48.05.555,jersey_experiment_5_v3,2023.2.2,Win32,84.74576271,,,,,,,,,,,29.9359,42.4553,return,12.507,,,,,,,,,,,,,,,,,,,,,,,,,,,,,,,,,,,,,,,,,,,,,,,,,,,,,,,,,,,,,,,,
,,,,,V3_085,18,Female,2024-11-21_16h48.05.555,jersey_experiment_5_v3,2023.2.2,Win32,84.74576271,,,,,,,,,,,,,,,,42.4567,43.9983,43.9983,51.9569,return,1.7638,,49.47916667,0,0,0,49,1,FBP-RB-17.png,0.45,1.2,50,0.75,,,,,,,,,,,,,,,,,,,,,,,,,,,,,,,,,,,,,,,,,,,,,
,,,,,V3_085,18,Female,2024-11-21_16h48.05.555,jersey_experiment_5_v3,2023.2.2,Win32,84.74576271,,,,,,,,,,,,,,,,51.9573,53.5098,53.5099,56.757,return,0.8459,,73.828125,0,1,1,54,1,FBP-RB-18.png,0.45,1.2,55,0.75,,,,,,,,,,,,,,,,,,,,,,,,,,,,,,,,,,,,,,,,,,,,,
,,,,,V3_085,18,Female,2024-11-21_16h48.05.555,jersey_experiment_5_v3,2023.2.2,Win32,84.74576271,,,,,,,,,,,,,,,,56.7574,58.3099,58.3099,61.8278,return,1.1375,,39.58333333,0,2,2,45,1,FBP-RB-17.png,0.35,1.2,46,0.75,,,,,,,,,,,,,,,,,,,,,,,,,,,,,,,,,,,,,,,,,,,,,
,,,,,V3_085,18,Female,2024-11-21_16h48.05.555,jersey_experiment_5_v3,2023.2.2,Win32,84.74576271,,,,,,,,,,,,,,,,61.8281,63.122,63.122,69.5223,return,0.8487,,49.86979167,0,3,3,42,1,FBP-OG-19.png,0.4,1.2,43,0.5,,,,,,,,,,,,,,,,,,,,,,,,,,,,,,,,,,,,,,,,,,,,,
,,,,,V3_085,18,Female,2024-11-21_16h48.05.555,jersey_experiment_5_v3,2023.2.2,Win32,84.74576271,,,,,,,,,,,,,,,,69.5225,71.0751,71.0752,75.9341,return,1.1939,,49.86979167,0,4,4,56,1,FBP-RB-19.png,0.37,1.2,57,0.75,,,,,,,,,,,,,,,,,,,,,,,,,,,,,,,,,,,,,,,,,,,,,
,,,,,V3_085,18,Female,2024-11-21_16h48.05.555,jersey_experiment_5_v3,2023.2.2,Win32,84.74576271,,,,,,,,,,,,,,,,75.9344,77.4872,77.4872,80.8638,return,0.9773,,75,0,5,5,28,1,FBP-PT-19.png,0.43,1.2,29,0.75,,,,,,,,,,,,,,,,,,,,,,,,,,,,,,,,,,,,,,,,,,,,,
,,,,,V3_085,18,Female,2024-11-21_16h48.05.555,jersey_experiment_5_v3,2023.2.2,Win32,84.74576271,,,,,,,,,,,,,,,,80.864,82.4167,82.4168,84.8168,return,0.7644,,83.203125,0,6,6,29,1,FBP-PT-19.png,0.45,1.2,30,0.75,,,,,,,,,,,,,,,,,,,,,,,,,,,,,,,,,,,,,,,,,,,,,
,,,,,V3_085,18,Female,2024-11-21_16h48.05.555,jersey_experiment_5_v3,2023.2.2,Win32,84.74576271,,,,,,,,,,,,,,,,84.8172,86.3699,86.37,90.2995,return,0.8885,,74.47916667,0,7,7,19,1,FBP-PT-17.png,0.45,1.2,20,0.75,,,,,,,,,,,,,,,,,,,,,,,,,,,,,,,,,,,,,,,,,,,,,
,,,,,V3_085,18,Female,2024-11-21_16h48.05.555,jersey_experiment_5_v3,2023.2.2,Win32,84.74576271,,,,,,,,,,,,,,,,90.2998,91.5936,91.5937,98.4293,return,0.6774,,62.23958333,0,8,8,34,1,FBP-OG-17.png,0.45,1.2,35,0.5,,,,,,,,,,,,,,,,,,,,,,,,,,,,,,,,,,,,,,,,,,,,,
,,,,,V3_085,18,Female,2024-11-21_16h48.05.555,jersey_experiment_5_v3,2023.2.2,Win32,84.74576271,,,,,,,,,,,,,,,,98.4295,99.9822,99.9823,106.1942,return,3.2624,,24.609375,0,9,9,10,1,FBP-YG-91.png,0.35,1.2,11,0.75,,,,,,,,,,,,,,,,,,,,,,,,,,,,,,,,,,,,,,,,,,,,,
,,,,,V3_085,18,Female,2024-11-21_16h48.05.555,jersey_experiment_5_v3,2023.2.2,Win32,84.74576271,,,,,,,,,,,,,,,,106.1945,107.7472,107.7472,110.6531,return,0.817,,50.13020833,0,10,10,5,1,FBP-YG-81.png,0.35,1.2,6,0.75,,,,,,,,,,,,,,,,,,,,,,,,,,,,,,,,,,,,,,,,,,,,,
,,,,,V3_085,18,Female,2024-11-21_16h48.05.555,jersey_experiment_5_v3,2023.2.2,Win32,84.74576271,,,,,,,,,,,,,,,,110.6533,112.2062,112.2063,115.5709,return,0.6681,,74.86979167,0,11,11,13,1,FBP-YG-91.png,0.43,1.2,14,0.75,,,,,,,,,,,,,,,,,,,,,,,,,,,,,,,,,,,,,,,,,,,,,
,,,,,V3_085,18,Female,2024-11-21_16h48.05.555,jersey_experiment_5_v3,2023.2.2,Win32,84.74576271,,,,,,,,,,,,,,,,115.5712,117.1241,117.1241,119.4535,return,0.7209,,85.28645833,0,12,12,48,1,FBP-RB-17.png,0.43,1.2,49,0.75,,,,,,,,,,,,,,,,,,,,,,,,,,,,,,,,,,,,,,,,,,,,,
,,,,,V3_085,18,Female,2024-11-21_16h48.05.555,jersey_experiment_5_v3,2023.2.2,Win32,84.74576271,,,,,,,,,,,,,,,,119.4537,121.0067,121.0067,125.6304,return,0.7705,,24.73958333,0,13,13,20,1,FBP-PT-18.png,0.35,1.2,21,0.75,,,,,,,,,,,,,,,,,,,,,,,,,,,,,,,,,,,,,,,,,,,,,
,,,,,V3_085,18,Female,2024-11-21_16h48.05.555,jersey_experiment_5_v3,2023.2.2,Win32,84.74576271,,,,,,,,,,,,,,,,125.6306,127.1832,127.1833,130.3246,return,0.8563,,65.88541667,0,14,14,4,1,FBP-YG-71.png,0.45,1.2,5,0.75,,,,,,,,,,,,,,,,,,,,,,,,,,,,,,,,,,,,,,,,,,,,,
,,,,,V3_085,18,Female,2024-11-21_16h48.05.555,jersey_experiment_5_v3,2023.2.2,Win32,84.74576271,,,,,,,,,,,,,,,,130.3247,131.8775,131.8775,136.3952,return,2.3936,,37.36979167,0,15,15,22,1,FBP-PT-18.png,0.4,1.2,23,0.75,,,,,,,,,,,,,,,,,,,,,,,,,,,,,,,,,,,,,,,,,,,,,
,,,,,V3_085,18,Female,2024-11-21_16h48.05.555,jersey_experiment_5_v3,2023.2.2,Win32,84.74576271,,,,,,,,,,,,,,,,136.3954,137.9483,137.9484,141.0072,return,1.5111,,73.69791667,0,16,16,9,1,FBP-YG-81.png,0.45,1.2,10,0.75,,,,,,,,,,,,,,,,,,,,,,,,,,,,,,,,,,,,,,,,,,,,,
,,,,,V3_085,18,Female,2024-11-21_16h48.05.555,jersey_experiment_5_v3,2023.2.2,Win32,84.74576271,,,,,,,,,,,,,,,,141.0075,142.5603,142.5603,147.6664,return,0.637,,48.56770833,0,17,17,17,1,FBP-PT-17.png,0.4,1.2,18,0.75,,,,,,,,,,,,,,,,,,,,,,,,,,,,,,,,,,,,,,,,,,,,,
,,,,,V3_085,18,Female,2024-11-21_16h48.05.555,jersey_experiment_5_v3,2023.2.2,Win32,84.74576271,,,,,,,,,,,,,,,,147.6667,148.9605,148.9606,151.5372,return,0.6599,,77.86458333,0,18,18,44,1,FBP-OG-19.png,0.45,1.2,45,0.5,,,,,,,,,,,,,,,,,,,,,,,,,,,,,,,,,,,,,,,,,,,,,
,,,,,V3_085,18,Female,2024-11-21_16h48.05.555,jersey_experiment_5_v3,2023.2.2,Win32,84.74576271,,,,,,,,,,,,,,,,151.5375,152.8313,152.8314,154.8784,return,1.2175,,75,0,19,19,37,1,FBP-OG-18.png,0.4,1.2,38,0.5,,,,,,,,,,,,,,,,,,,,,,,,,,,,,,,,,,,,,,,,,,,,,
,,,,,V3_085,18,Female,2024-11-21_16h48.05.555,jersey_experiment_5_v3,2023.2.2,Win32,84.74576271,,,,,,,,,,,,,,,,154.8786,156.4313,156.4314,159.8433,return,0.7917,,75.13020833,0,20,20,14,1,FBP-YG-91.png,0.45,1.2,15,0.75,,,,,,,,,,,,,,,,,,,,,,,,,,,,,,,,,,,,,,,,,,,,,
,,,,,V3_085,18,Female,2024-11-21_16h48.05.555,jersey_experiment_5_v3,2023.2.2,Win32,84.74576271,,,,,,,,,,,,,,,,159.8434,161.3962,161.3963,164.7494,return,0.6509,,59.50520833,0,21,21,18,1,FBP-PT-17.png,0.43,1.2,19,0.75,,,,,,,,,,,,,,,,,,,,,,,,,,,,,,,,,,,,,,,,,,,,,
,,,,,V3_085,18,Female,2024-11-21_16h48.05.555,jersey_experiment_5_v3,2023.2.2,Win32,84.74576271,,,,,,,,,,,,,,,,164.7497,166.3023,166.3023,169.173,return,0.9028,,63.54166667,0,22,22,53,1,FBP-RB-18.png,0.43,1.2,54,0.75,,,,,,,,,,,,,,,,,,,,,,,,,,,,,,,,,,,,,,,,,,,,,
,,,,,V3_085,18,Female,2024-11-21_16h48.05.555,jersey_experiment_5_v3,2023.2.2,Win32,84.74576271,,,,,,,,,,,,,,,,169.1733,170.726,170.726,173.1732,return,0.7382,,49.73958333,0,23,23,7,1,FBP-YG-81.png,0.4,1.2,8,0.75,,,,,,,,,,,,,,,,,,,,,,,,,,,,,,,,,,,,,,,,,,,,,
,,,,,V3_085,18,Female,2024-11-21_16h48.05.555,jersey_experiment_5_v3,2023.2.2,Win32,84.74576271,,,,,,,,,,,,,,,,173.1734,174.7261,174.7262,177.5852,return,0.9643,,48.4375,0,24,24,0,1,FBP-YG-71.png,0.35,1.2,1,0.75,,,,,,,,,,,,,,,,,,,,,,,,,,,,,,,,,,,,,,,,,,,,,
,,,,,V3_085,18,Female,2024-11-21_16h48.05.555,jersey_experiment_5_v3,2023.2.2,Win32,84.74576271,,,,,,,,,,,,,,,,177.5854,178.8793,178.8794,183.7971,return,0.7212,,45.3125,0,25,25,36,1,FBP-OG-18.png,0.37,1.2,37,0.5,,,,,,,,,,,,,,,,,,,,,,,,,,,,,,,,,,,,,,,,,,,,,
,,,,,V3_085,18,Female,2024-11-21_16h48.05.555,jersey_experiment_5_v3,2023.2.2,Win32,84.74576271,,,,,,,,,,,,,,,,183.7974,185.0913,185.0913,188.2445,return,0.7893,,25.390625,0,26,26,30,1,FBP-OG-17.png,0.35,1.2,31,0.5,,,,,,,,,,,,,,,,,,,,,,,,,,,,,,,,,,,,,,,,,,,,,
,,,,,V3_085,18,Female,2024-11-21_16h48.05.555,jersey_experiment_5_v3,2023.2.2,Win32,84.74576271,,,,,,,,,,,,,,,,188.2447,189.7974,189.7975,193.9153,return,2.0058,,49.73958333,0,27,27,51,1,FBP-RB-18.png,0.37,1.2,52,0.75,,,,,,,,,,,,,,,,,,,,,,,,,,,,,,,,,,,,,,,,,,,,,
,,,,,V3_085,18,Female,2024-11-21_16h48.05.555,jersey_experiment_5_v3,2023.2.2,Win32,84.74576271,,,,,,,,,,,,,,,,193.9156,195.2093,195.2094,198.7742,return,1.5147,,52.99479167,0,28,28,31,1,FBP-OG-17.png,0.37,1.2,32,0.5,,,,,,,,,,,,,,,,,,,,,,,,,,,,,,,,,,,,,,,,,,,,,
,,,,,V3_085,18,Female,2024-11-21_16h48.05.555,jersey_experiment_5_v3,2023.2.2,Win32,84.74576271,,,,,,,,,,,,,,,,198.7745,200.0684,200.0684,202.3391,return,0.7052,,74.609375,0,29,29,32,1,FBP-OG-17.png,0.4,1.2,33,0.5,,,,,,,,,,,,,,,,,,,,,,,,,,,,,,,,,,,,,,,,,,,,,
,,,,,V3_085,18,Female,2024-11-21_16h48.05.555,jersey_experiment_5_v3,2023.2.2,Win32,84.74576271,,,,,,,,,,,,,,,,202.3393,203.892,203.892,205.2685,return,0.738,,74.609375,0,30,30,57,1,FBP-RB-19.png,0.4,1.2,58,0.75,,,,,,,,,,,,,,,,,,,,,,,,,,,,,,,,,,,,,,,,,,,,,
,,,,,V3_085,18,Female,2024-11-21_16h48.05.555,jersey_experiment_5_v3,2023.2.2,Win32,84.74576271,,,,,,,,,,,,,,,,205.2687,206.8215,206.8215,216.2572,return,0.7663,,50.390625,0,31,31,11,1,FBP-YG-91.png,0.37,1.2,12,0.75,,,,,,,,,,,,,,,,,,,,,,,,,,,,,,,,,,,,,,,,,,,,,
,,,,,V3_085,18,Female,2024-11-21_16h48.05.555,jersey_experiment_5_v3,2023.2.2,Win32,84.74576271,,,,,,,,,,,,,,,,216.2574,217.8103,217.8104,221.022,return,1.9798,,49.21875,0,32,32,12,1,FBP-YG-91.png,0.4,1.2,13,0.75,,,,,,,,,,,,,,,,,,,,,,,,,,,,,,,,,,,,,,,,,,,,,
,,,,,V3_085,18,Female,2024-11-21_16h48.05.555,jersey_experiment_5_v3,2023.2.2,Win32,84.74576271,,,,,,,,,,,,,,,,221.0223,222.5751,222.5752,224.9634,return,0.7064,,62.5,0,33,33,2,1,FBP-YG-71.png,0.4,1.2,3,0.75,,,,,,,,,,,,,,,,,,,,,,,,,,,,,,,,,,,,,,,,,,,,,
,,,,,V3_085,18,Female,2024-11-21_16h48.05.555,jersey_experiment_5_v3,2023.2.2,Win32,84.74576271,,,,,,,,,,,,,,,,224.9636,226.5164,226.5165,229.2223,return,0.7296,,70.05208333,0,34,34,27,1,FBP-PT-19.png,0.4,1.2,28,0.75,,,,,,,,,,,,,,,,,,,,,,,,,,,,,,,,,,,,,,,,,,,,,
,,,,,V3_085,18,Female,2024-11-21_16h48.05.555,jersey_experiment_5_v3,2023.2.2,Win32,84.74576271,,,,,,,,,,,,,,,,229.2225,230.7754,230.7754,232.6696,return,0.7084,,49.47916667,0,35,35,16,1,FBP-PT-17.png,0.37,1.2,17,0.75,,,,,,,,,,,,,,,,,,,,,,,,,,,,,,,,,,,,,,,,,,,,,
,,,,,V3_085,18,Female,2024-11-21_16h48.05.555,jersey_experiment_5_v3,2023.2.2,Win32,84.74576271,,,,,,,,,,,,,,,,232.6698,234.2226,234.2226,236.0227,return,0.7063,,74.08854167,0,36,36,58,1,FBP-RB-19.png,0.43,1.2,59,0.75,,,,,,,,,,,,,,,,,,,,,,,,,,,,,,,,,,,,,,,,,,,,,
,,,,,V3_085,18,Female,2024-11-21_16h48.05.555,jersey_experiment_5_v3,2023.2.2,Win32,84.74576271,,,,,,,,,,,,,,,,236.0229,237.5756,237.5757,240.258,return,0.6928,,25,0,37,37,50,1,FBP-RB-18.png,0.35,1.2,51,0.75,,,,,,,,,,,,,,,,,,,,,,,,,,,,,,,,,,,,,,,,,,,,,
,,,,,V3_085,18,Female,2024-11-21_16h48.05.555,jersey_experiment_5_v3,2023.2.2,Win32,84.74576271,,,,,,,,,,,,,,,,240.2583,241.811,241.811,243.917,return,0.8509,,75,0,38,38,59,1,FBP-RB-19.png,0.45,1.2,60,0.75,,,,,,,,,,,,,,,,,,,,,,,,,,,,,,,,,,,,,,,,,,,,,
,,,,,V3_085,18,Female,2024-11-21_16h48.05.555,jersey_experiment_5_v3,2023.2.2,Win32,84.74576271,,,,,,,,,,,,,,,,243.9172,245.4701,245.4701,247.9408,return,0.7062,,50.65104167,0,39,39,25,1,FBP-PT-19.png,0.35,1.2,26,0.75,,,,,,,,,,,,,,,,,,,,,,,,,,,,,,,,,,,,,,,,,,,,,
,,,,,V3_085,18,Female,2024-11-21_16h48.05.555,jersey_experiment_5_v3,2023.2.2,Win32,84.74576271,,,,,,,,,,,,,,,,247.941,249.4937,249.4937,251.4234,return,0.6991,,48.95833333,0,40,40,15,1,FBP-PT-17.png,0.35,1.2,16,0.75,,,,,,,,,,,,,,,,,,,,,,,,,,,,,,,,,,,,,,,,,,,,,
,,,,,V3_085,18,Female,2024-11-21_16h48.05.555,jersey_experiment_5_v3,2023.2.2,Win32,84.74576271,,,,,,,,,,,,,,,,251.4235,252.9763,252.9763,255.6352,return,1.0581,,50,0,41,41,46,1,FBP-RB-17.png,0.37,1.2,47,0.75,,,,,,,,,,,,,,,,,,,,,,,,,,,,,,,,,,,,,,,,,,,,,
,,,,,V3_085,18,Female,2024-11-21_16h48.05.555,jersey_experiment_5_v3,2023.2.2,Win32,84.74576271,,,,,,,,,,,,,,,,255.6354,257.1881,257.1882,259.7649,return,0.7532,,62.76041667,0,42,42,26,1,FBP-PT-19.png,0.37,1.2,27,0.75,,,,,,,,,,,,,,,,,,,,,,,,,,,,,,,,,,,,,,,,,,,,,
,,,,,V3_085,18,Female,2024-11-21_16h48.05.555,jersey_experiment_5_v3,2023.2.2,Win32,84.74576271,,,,,,,,,,,,,,,,259.7652,261.3177,261.3177,263.3177,return,0.7533,,63.80208333,0,43,43,47,1,FBP-RB-17.png,0.4,1.2,48,0.75,,,,,,,,,,,,,,,,,,,,,,,,,,,,,,,,,,,,,,,,,,,,,
,,,,,V3_085,18,Female,2024-11-21_16h48.05.555,jersey_experiment_5_v3,2023.2.2,Win32,84.74576271,,,,,,,,,,,,,,,,263.3179,264.8709,264.8709,267.071,return,0.826,,63.80208333,0,44,44,6,1,FBP-YG-81.png,0.37,1.2,7,0.75,,,,,,,,,,,,,,,,,,,,,,,,,,,,,,,,,,,,,,,,,,,,,
,,,,,V3_085,18,Female,2024-11-21_16h48.05.555,jersey_experiment_5_v3,2023.2.2,Win32,84.74576271,,,,,,,,,,,,,,,,267.0712,268.3651,268.3652,270.8475,return,0.8047,,83.203125,0,45,45,38,1,FBP-OG-18.png,0.43,1.2,39,0.5,,,,,,,,,,,,,,,,,,,,,,,,,,,,,,,,,,,,,,,,,,,,,
,,,,,V3_085,18,Female,2024-11-21_16h48.05.555,jersey_experiment_5_v3,2023.2.2,Win32,84.74576271,,,,,,,,,,,,,,,,270.8478,272.1416,272.1417,274.8006,return,0.6724,,74.86979167,0,46,46,39,1,FBP-OG-18.png,0.45,1.2,40,0.5,,,,,,,,,,,,,,,,,,,,,,,,,,,,,,,,,,,,,,,,,,,,,
,,,,,V3_085,18,Female,2024-11-21_16h48.05.555,jersey_experiment_5_v3,2023.2.2,Win32,84.74576271,,,,,,,,,,,,,,,,274.8009,276.0947,276.0947,278.542,return,0.746,,29.55729167,0,47,47,35,1,FBP-OG-18.png,0.35,1.2,36,0.5,,,,,,,,,,,,,,,,,,,,,,,,,,,,,,,,,,,,,,,,,,,,,
,,,,,V3_085,18,Female,2024-11-21_16h48.05.555,jersey_experiment_5_v3,2023.2.2,Win32,84.74576271,,,,,,,,,,,,,,,,278.5422,280.0948,280.0949,282.0127,return,0.7724,,49.47916667,0,48,48,1,1,FBP-YG-71.png,0.37,1.2,2,0.75,,,,,,,,,,,,,,,,,,,,,,,,,,,,,,,,,,,,,,,,,,,,,
,,,,,V3_085,18,Female,2024-11-21_16h48.05.555,jersey_experiment_5_v3,2023.2.2,Win32,84.74576271,,,,,,,,,,,,,,,,282.0131,283.5657,283.5658,286.5187,return,0.6354,,58.984375,0,49,49,55,1,FBP-RB-19.png,0.35,1.2,56,0.75,,,,,,,,,,,,,,,,,,,,,,,,,,,,,,,,,,,,,,,,,,,,,
,,,,,V3_085,18,Female,2024-11-21_16h48.05.555,jersey_experiment_5_v3,2023.2.2,Win32,84.74576271,,,,,,,,,,,,,,,,286.519,288.0717,288.0718,289.8834,return,0.7615,,75.52083333,0,50,50,24,1,FBP-PT-18.png,0.45,1.2,25,0.75,,,,,,,,,,,,,,,,,,,,,,,,,,,,,,,,,,,,,,,,,,,,,
,,,,,V3_085,18,Female,2024-11-21_16h48.05.555,jersey_experiment_5_v3,2023.2.2,Win32,84.74576271,,,,,,,,,,,,,,,,289.8836,291.1777,291.1777,295.072,return,0.6513,,57.421875,0,51,51,41,1,FBP-OG-19.png,0.37,1.2,42,0.5,,,,,,,,,,,,,,,,,,,,,,,,,,,,,,,,,,,,,,,,,,,,,
,,,,,V3_085,18,Female,2024-11-21_16h48.05.555,jersey_experiment_5_v3,2023.2.2,Win32,84.74576271,,,,,,,,,,,,,,,,295.0722,296.3661,296.3661,298.1309,return,0.6273,,75.26041667,0,52,52,33,1,FBP-OG-17.png,0.43,1.2,34,0.5,,,,,,,,,,,,,,,,,,,,,,,,,,,,,,,,,,,,,,,,,,,,,
,,,,,V3_085,18,Female,2024-11-21_16h48.05.555,jersey_experiment_5_v3,2023.2.2,Win32,84.74576271,,,,,,,,,,,,,,,,298.1312,299.6839,299.684,303.0724,return,0.7064,,76.82291667,0,53,53,8,1,FBP-YG-81.png,0.43,1.2,9,0.75,,,,,,,,,,,,,,,,,,,,,,,,,,,,,,,,,,,,,,,,,,,,,
,,,,,V3_085,18,Female,2024-11-21_16h48.05.555,jersey_experiment_5_v3,2023.2.2,Win32,84.74576271,,,,,,,,,,,,,,,,303.0726,304.6253,304.6253,306.3431,return,0.656,,49.47916667,0,54,54,21,1,FBP-PT-18.png,0.37,1.2,22,0.75,,,,,,,,,,,,,,,,,,,,,,,,,,,,,,,,,,,,,,,,,,,,,
,,,,,V3_085,18,Female,2024-11-21_16h48.05.555,jersey_experiment_5_v3,2023.2.2,Win32,84.74576271,,,,,,,,,,,,,,,,306.3434,307.6372,307.6372,309.696,return,0.663,,50.390625,0,55,55,40,1,FBP-OG-19.png,0.35,1.2,41,0.5,,,,,,,,,,,,,,,,,,,,,,,,,,,,,,,,,,,,,,,,,,,,,
,,,,,V3_085,18,Female,2024-11-21_16h48.05.555,jersey_experiment_5_v3,2023.2.2,Win32,84.74576271,,,,,,,,,,,,,,,,309.6962,311.2376,311.2377,316.5316,return,3.8751,,86.45833333,0,56,56,23,1,FBP-PT-18.png,0.43,1.2,24,0.75,,,,,,,,,,,,,,,,,,,,,,,,,,,,,,,,,,,,,,,,,,,,,
,,,,,V3_085,18,Female,2024-11-21_16h48.05.555,jersey_experiment_5_v3,2023.2.2,Win32,84.74576271,,,,,,,,,,,,,,,,316.5318,318.0846,318.0846,320.367,return,0.7309,,56.90104167,0,57,57,52,1,FBP-RB-18.png,0.4,1.2,53,0.75,,,,,,,,,,,,,,,,,,,,,,,,,,,,,,,,,,,,,,,,,,,,,
,,,,,V3_085,18,Female,2024-11-21_16h48.05.555,jersey_experiment_5_v3,2023.2.2,Win32,84.74576271,,,,,,,,,,,,,,,,320.3673,321.6612,321.6612,323.3437,return,0.6247,,74.609375,0,58,58,43,1,FBP-OG-19.png,0.43,1.2,44,0.5,,,,,,,,,,,,,,,,,,,,,,,,,,,,,,,,,,,,,,,,,,,,,
,,,,,V3_085,18,Female,2024-11-21_16h48.05.555,jersey_experiment_5_v3,2023.2.2,Win32,84.74576271,,,,,,,,,,,,,,,,323.3439,324.8966,324.8966,326.6849,return,0.6661,,74.21875,0,59,59,3,1,FBP-YG-71.png,0.43,1.2,4,0.75,,,,,,,,,,,,,,,,,,,,,,,,,,,,,,,,,,,,,,,,,,,,,
,,,,,V3_085,18,Female,2024-11-21_16h48.05.555,jersey_experiment_5_v3,2023.2.2,Win32,84.74576271,,,,,,,,,,,,,,,,326.6863,328.238,328.238,331.1322,return,0.5962,,53.25520833,,,,,,FBP-YG-18.png,0.4,1.2,8,0.75,0,0,0,7,1,,,,,,,,,,,,,,,,,,,,,,,,,,,,,,,,,,,,,,,,
,,,,,V3_085,18,Female,2024-11-21_16h48.05.555,jersey_experiment_5_v3,2023.2.2,Win32,84.74576271,,,,,,,,,,,,,,,,331.1325,332.6851,332.6851,335.2851,return,0.6744,,73.56770833,,,,,,FBP-YG-19.png,0.45,1.2,15,0.75,0,1,1,14,1,,,,,,,,,,,,,,,,,,,,,,,,,,,,,,,,,,,,,,,,
,,,,,V3_085,18,Female,2024-11-21_16h48.05.555,jersey_experiment_5_v3,2023.2.2,Win32,84.74576271,,,,,,,,,,,,,,,,335.2854,336.8382,336.8382,338.1913,return,0.5459,,74.21875,,,,,,FBP-RB-81.png,0.43,1.2,54,0.75,0,2,2,53,1,,,,,,,,,,,,,,,,,,,,,,,,,,,,,,,,,,,,,,,,
,,,,,V3_085,18,Female,2024-11-21_16h48.05.555,jersey_experiment_5_v3,2023.2.2,Win32,84.74576271,,,,,,,,,,,,,,,,338.1915,339.7442,339.7443,343.6384,return,1.339,,58.33333333,,,,,,FBP-RB-71.png,0.4,1.2,48,0.75,0,3,3,47,1,,,,,,,,,,,,,,,,,,,,,,,,,,,,,,,,,,,,,,,,
,,,,,V3_085,18,Female,2024-11-21_16h48.05.555,jersey_experiment_5_v3,2023.2.2,Win32,84.74576271,,,,,,,,,,,,,,,,343.6387,345.1917,345.1918,346.6738,return,0.6839,,49.08854167,,,,,,FBP-PT-81.png,0.37,1.2,22,0.75,0,4,4,21,1,,,,,,,,,,,,,,,,,,,,,,,,,,,,,,,,,,,,,,,,
,,,,,V3_085,18,Female,2024-11-21_16h48.05.555,jersey_experiment_5_v3,2023.2.2,Win32,84.74576271,,,,,,,,,,,,,,,,346.674,348.227,348.227,349.8034,return,0.6873,,76.30208333,,,,,,FBP-YG-17.png,0.43,1.2,4,0.75,0,5,5,3,1,,,,,,,,,,,,,,,,,,,,,,,,,,,,,,,,,,,,,,,,
,,,,,V3_085,18,Female,2024-11-21_16h48.05.555,jersey_experiment_5_v3,2023.2.2,Win32,84.74576271,,,,,,,,,,,,,,,,349.8036,351.3563,351.3563,353.98,return,0.6904,,57.94270833,,,,,,FBP-RB-81.png,0.37,1.2,52,0.75,0,6,6,51,1,,,,,,,,,,,,,,,,,,,,,,,,,,,,,,,,,,,,,,,,
,,,,,V3_085,18,Female,2024-11-21_16h48.05.555,jersey_experiment_5_v3,2023.2.2,Win32,84.74576271,,,,,,,,,,,,,,,,353.9802,355.533,355.5331,357.0273,return,0.6509,,32.8125,,,,,,FBP-PT-71.png,0.35,1.2,16,0.75,0,7,7,15,1,,,,,,,,,,,,,,,,,,,,,,,,,,,,,,,,,,,,,,,,
,,,,,V3_085,18,Female,2024-11-21_16h48.05.555,jersey_experiment_5_v3,2023.2.2,Win32,84.74576271,,,,,,,,,,,,,,,,357.0275,358.3213,358.3213,361.1332,return,0.5955,,50.13020833,,,,,,FBP-OG-91.png,0.37,1.2,42,0.5,0,8,8,41,1,,,,,,,,,,,,,,,,,,,,,,,,,,,,,,,,,,,,,,,,
,,,,,V3_085,18,Female,2024-11-21_16h48.05.555,jersey_experiment_5_v3,2023.2.2,Win32,84.74576271,,,,,,,,,,,,,,,,361.1335,362.6862,362.6862,365.4394,return,1.0872,,74.609375,,,,,,FBP-RB-81.png,0.45,1.2,55,0.75,0,9,9,54,1,,,,,,,,,,,,,,,,,,,,,,,,,,,,,,,,,,,,,,,,
,,,,,V3_085,18,Female,2024-11-21_16h48.05.555,jersey_experiment_5_v3,2023.2.2,Win32,84.74576271,,,,,,,,,,,,,,,,365.4397,366.9923,366.9924,369.4866,return,0.7691,,36.71875,,,,,,FBP-YG-17.png,0.37,1.2,2,0.75,0,10,10,1,1,,,,,,,,,,,,,,,,,,,,,,,,,,,,,,,,,,,,,,,,
,,,,,V3_085,18,Female,2024-11-21_16h48.05.555,jersey_experiment_5_v3,2023.2.2,Win32,84.74576271,,,,,,,,,,,,,,,,369.4868,371.0395,371.0395,373.3926,return,0.8036,,74.47916667,,,,,,FBP-RB-91.png,0.43,1.2,59,0.75,0,11,11,58,1,,,,,,,,,,,,,,,,,,,,,,,,,,,,,,,,,,,,,,,,
,,,,,V3_085,18,Female,2024-11-21_16h48.05.555,jersey_experiment_5_v3,2023.2.2,Win32,84.74576271,,,,,,,,,,,,,,,,373.3929,374.9456,374.9456,376.8045,return,0.7297,,74.47916667,,,,,,FBP-YG-18.png,0.43,1.2,9,0.75,0,12,12,8,1,,,,,,,,,,,,,,,,,,,,,,,,,,,,,,,,,,,,,,,,
,,,,,V3_085,18,Female,2024-11-21_16h48.05.555,jersey_experiment_5_v3,2023.2.2,Win32,84.74576271,,,,,,,,,,,,,,,,376.8048,378.3576,378.3576,381.181,return,0.8863,,58.59375,,,,,,FBP-YG-17.png,0.4,1.2,3,0.75,0,13,13,2,1,,,,,,,,,,,,,,,,,,,,,,,,,,,,,,,,,,,,,,,,
,,,,,V3_085,18,Female,2024-11-21_16h48.05.555,jersey_experiment_5_v3,2023.2.2,Win32,84.74576271,,,,,,,,,,,,,,,,381.1813,382.7341,382.7342,386.2519,return,0.8987,,49.86979167,,,,,,FBP-PT-91.png,0.45,1.2,30,0.75,0,14,14,29,1,,,,,,,,,,,,,,,,,,,,,,,,,,,,,,,,,,,,,,,,
,,,,,V3_085,18,Female,2024-11-21_16h48.05.555,jersey_experiment_5_v3,2023.2.2,Win32,84.74576271,,,,,,,,,,,,,,,,386.2522,387.8049,387.8049,394.6875,return,1.0247,,54.42708333,,,,,,FBP-PT-81.png,0.4,1.2,23,0.75,0,15,15,22,1,,,,,,,,,,,,,,,,,,,,,,,,,,,,,,,,,,,,,,,,
,,,,,V3_085,18,Female,2024-11-21_16h48.05.555,jersey_experiment_5_v3,2023.2.2,Win32,84.74576271,,,,,,,,,,,,,,,,394.6878,396.2408,396.2408,398.2759,return,0.6746,,34.24479167,,,,,,FBP-YG-17.png,0.35,1.2,1,0.75,0,16,16,0,1,,,,,,,,,,,,,,,,,,,,,,,,,,,,,,,,,,,,,,,,
,,,,,V3_085,18,Female,2024-11-21_16h48.05.555,jersey_experiment_5_v3,2023.2.2,Win32,84.74576271,,,,,,,,,,,,,,,,398.2762,399.57,399.57,401.4291,return,0.6359,,38.02083333,,,,,,FBP-OG-91.png,0.35,1.2,41,0.5,0,17,17,40,1,,,,,,,,,,,,,,,,,,,,,,,,,,,,,,,,,,,,,,,,
,,,,,V3_085,18,Female,2024-11-21_16h48.05.555,jersey_experiment_5_v3,2023.2.2,Win32,84.74576271,,,,,,,,,,,,,,,,401.4294,402.982,402.982,405.0761,return,0.7053,,64.19270833,,,,,,FBP-PT-71.png,0.45,1.2,20,0.75,0,18,18,19,1,,,,,,,,,,,,,,,,,,,,,,,,,,,,,,,,,,,,,,,,
,,,,,V3_085,18,Female,2024-11-21_16h48.05.555,jersey_experiment_5_v3,2023.2.2,Win32,84.74576271,,,,,,,,,,,,,,,,405.0764,406.6291,406.6291,408.4527,return,0.739,,37.36979167,,,,,,FBP-RB-81.png,0.35,1.2,51,0.75,0,19,19,50,1,,,,,,,,,,,,,,,,,,,,,,,,,,,,,,,,,,,,,,,,
,,,,,V3_085,18,Female,2024-11-21_16h48.05.555,jersey_experiment_5_v3,2023.2.2,Win32,84.74576271,,,,,,,,,,,,,,,,408.453,409.7469,409.7469,414.4059,return,0.9969,,69.79166667,,,,,,FBP-OG-71.png,0.45,1.2,35,0.5,0,20,20,34,1,,,,,,,,,,,,,,,,,,,,,,,,,,,,,,,,,,,,,,,,
,,,,,V3_085,18,Female,2024-11-21_16h48.05.555,jersey_experiment_5_v3,2023.2.2,Win32,84.74576271,,,,,,,,,,,,,,,,414.4062,415.9588,415.9589,419.7944,return,1.9783,,43.09895833,,,,,,FBP-PT-91.png,0.4,1.2,28,0.75,0,21,21,27,1,,,,,,,,,,,,,,,,,,,,,,,,,,,,,,,,,,,,,,,,
,,,,,V3_085,18,Female,2024-11-21_16h48.05.555,jersey_experiment_5_v3,2023.2.2,Win32,84.74576271,,,,,,,,,,,,,,,,419.7946,421.3474,421.3474,424.0062,return,0.5804,,53.64583333,,,,,,FBP-RB-81.png,0.4,1.2,53,0.75,0,22,22,52,1,,,,,,,,,,,,,,,,,,,,,,,,,,,,,,,,,,,,,,,,
,,,,,V3_085,18,Female,2024-11-21_16h48.05.555,jersey_experiment_5_v3,2023.2.2,Win32,84.74576271,,,,,,,,,,,,,,,,424.0064,425.5593,425.5594,427.0889,return,0.6134,,41.27604167,,,,,,FBP-YG-18.png,0.37,1.2,7,0.75,0,23,23,6,1,,,,,,,,,,,,,,,,,,,,,,,,,,,,,,,,,,,,,,,,
,,,,,V3_085,18,Female,2024-11-21_16h48.05.555,jersey_experiment_5_v3,2023.2.2,Win32,84.74576271,,,,,,,,,,,,,,,,427.0891,428.6418,428.6418,430.5594,return,0.6636,,60.02604167,,,,,,FBP-RB-91.png,0.45,1.2,60,0.75,0,24,24,59,1,,,,,,,,,,,,,,,,,,,,,,,,,,,,,,,,,,,,,,,,
,,,,,V3_085,18,Female,2024-11-21_16h48.05.555,jersey_experiment_5_v3,2023.2.2,Win32,84.74576271,,,,,,,,,,,,,,,,430.5597,432.1127,432.1127,434.995,return,0.565,,31.38020833,,,,,,FBP-PT-81.png,0.35,1.2,21,0.75,0,25,25,20,1,,,,,,,,,,,,,,,,,,,,,,,,,,,,,,,,,,,,,,,,
,,,,,V3_085,18,Female,2024-11-21_16h48.05.555,jersey_experiment_5_v3,2023.2.2,Win32,84.74576271,,,,,,,,,,,,,,,,434.9953,436.548,436.548,440.607,return,0.6485,,66.92708333,,,,,,FBP-RB-91.png,0.4,1.2,58,0.75,0,26,26,57,1,,,,,,,,,,,,,,,,,,,,,,,,,,,,,,,,,,,,,,,,
,,,,,V3_085,18,Female,2024-11-21_16h48.05.555,jersey_experiment_5_v3,2023.2.2,Win32,84.74576271,,,,,,,,,,,,,,,,440.6072,442.1599,442.16,443.6776,return,0.6065,,68.359375,,,,,,FBP-YG-19.png,0.43,1.2,14,0.75,0,27,27,13,1,,,,,,,,,,,,,,,,,,,,,,,,,,,,,,,,,,,,,,,,
,,,,,V3_085,18,Female,2024-11-21_16h48.05.555,jersey_experiment_5_v3,2023.2.2,Win32,84.74576271,,,,,,,,,,,,,,,,443.6779,444.9718,444.9718,447.5484,return,0.5807,,24.47916667,,,,,,FBP-OG-81.png,0.35,1.2,36,0.5,0,28,28,35,1,,,,,,,,,,,,,,,,,,,,,,,,,,,,,,,,,,,,,,,,
,,,,,V3_085,18,Female,2024-11-21_16h48.05.555,jersey_experiment_5_v3,2023.2.2,Win32,84.74576271,,,,,,,,,,,,,,,,447.5487,449.1013,449.1013,452.172,return,0.6401,,69.40104167,,,,,,FBP-PT-81.png,0.45,1.2,25,0.75,0,29,29,24,1,,,,,,,,,,,,,,,,,,,,,,,,,,,,,,,,,,,,,,,,
,,,,,V3_085,18,Female,2024-11-21_16h48.05.555,jersey_experiment_5_v3,2023.2.2,Win32,84.74576271,,,,,,,,,,,,,,,,452.1722,453.725,453.7251,457.7605,return,0.6489,,61.45833333,,,,,,FBP-PT-81.png,0.43,1.2,24,0.75,0,30,30,23,1,,,,,,,,,,,,,,,,,,,,,,,,,,,,,,,,,,,,,,,,
,,,,,V3_085,18,Female,2024-11-21_16h48.05.555,jersey_experiment_5_v3,2023.2.2,Win32,84.74576271,,,,,,,,,,,,,,,,457.7607,459.3136,459.3136,461.9959,return,0.8636,,65.36458333,,,,,,FBP-YG-17.png,0.45,1.2,5,0.75,0,31,31,4,1,,,,,,,,,,,,,,,,,,,,,,,,,,,,,,,,,,,,,,,,
,,,,,V3_085,18,Female,2024-11-21_16h48.05.555,jersey_experiment_5_v3,2023.2.2,Win32,84.74576271,,,,,,,,,,,,,,,,461.9962,463.549,463.549,465.3138,return,0.8358,,67.31770833,,,,,,FBP-PT-71.png,0.43,1.2,19,0.75,0,32,32,18,1,,,,,,,,,,,,,,,,,,,,,,,,,,,,,,,,,,,,,,,,
,,,,,V3_085,18,Female,2024-11-21_16h48.05.555,jersey_experiment_5_v3,2023.2.2,Win32,84.74576271,,,,,,,,,,,,,,,,465.314,466.6079,466.608,468.8786,return,0.6997,,25.52083333,,,,,,FBP-OG-71.png,0.37,1.2,32,0.5,0,33,33,31,1,,,,,,,,,,,,,,,,,,,,,,,,,,,,,,,,,,,,,,,,
,,,,,V3_085,18,Female,2024-11-21_16h48.05.555,jersey_experiment_5_v3,2023.2.2,Win32,84.74576271,,,,,,,,,,,,,,,,468.8789,470.173,470.173,472.4317,return,0.6282,,16.66666667,,,,,,FBP-OG-71.png,0.35,1.2,31,0.5,0,34,34,30,1,,,,,,,,,,,,,,,,,,,,,,,,,,,,,,,,,,,,,,,,
,,,,,V3_085,18,Female,2024-11-21_16h48.05.555,jersey_experiment_5_v3,2023.2.2,Win32,84.74576271,,,,,,,,,,,,,,,,472.432,473.9847,473.9847,476.2553,return,0.6268,,38.671875,,,,,,FBP-YG-19.png,0.37,1.2,12,0.75,0,35,35,11,1,,,,,,,,,,,,,,,,,,,,,,,,,,,,,,,,,,,,,,,,
,,,,,V3_085,18,Female,2024-11-21_16h48.05.555,jersey_experiment_5_v3,2023.2.2,Win32,84.74576271,,,,,,,,,,,,,,,,476.2555,477.8082,477.8083,479.3495,return,0.634,,49.609375,,,,,,FBP-RB-91.png,0.37,1.2,57,0.75,0,36,36,56,1,,,,,,,,,,,,,,,,,,,,,,,,,,,,,,,,,,,,,,,,
,,,,,V3_085,18,Female,2024-11-21_16h48.05.555,jersey_experiment_5_v3,2023.2.2,Win32,84.74576271,,,,,,,,,,,,,,,,479.3497,480.9027,480.9027,483.1733,return,0.6675,,65.10416667,,,,,,FBP-YG-18.png,0.45,1.2,10,0.75,0,37,37,9,1,,,,,,,,,,,,,,,,,,,,,,,,,,,,,,,,,,,,,,,,
,,,,,V3_085,18,Female,2024-11-21_16h48.05.555,jersey_experiment_5_v3,2023.2.2,Win32,84.74576271,,,,,,,,,,,,,,,,483.1735,484.7263,484.7264,486.597,return,0.5648,,60.28645833,,,,,,FBP-YG-19.png,0.4,1.2,13,0.75,0,38,38,12,1,,,,,,,,,,,,,,,,,,,,,,,,,,,,,,,,,,,,,,,,
,,,,,V3_085,18,Female,2024-11-21_16h48.05.555,jersey_experiment_5_v3,2023.2.2,Win32,84.74576271,,,,,,,,,,,,,,,,486.5973,487.891,487.8911,489.5264,return,0.5886,,71.35416667,,,,,,FBP-OG-81.png,0.45,1.2,40,0.5,0,39,39,39,1,,,,,,,,,,,,,,,,,,,,,,,,,,,,,,,,,,,,,,,,
,,,,,V3_085,18,Female,2024-11-21_16h48.05.555,jersey_experiment_5_v3,2023.2.2,Win32,84.74576271,,,,,,,,,,,,,,,,489.5268,491.0795,491.0795,493.2325,return,0.6272,,24.21875,,,,,,FBP-PT-91.png,0.35,1.2,26,0.75,0,40,40,25,1,,,,,,,,,,,,,,,,,,,,,,,,,,,,,,,,,,,,,,,,
,,,,,V3_085,18,Female,2024-11-21_16h48.05.555,jersey_experiment_5_v3,2023.2.2,Win32,84.74576271,,,,,,,,,,,,,,,,493.2328,494.7855,494.7855,496.5974,return,0.7295,,72.39583333,,,,,,FBP-RB-71.png,0.45,1.2,50,0.75,0,41,41,49,1,,,,,,,,,,,,,,,,,,,,,,,,,,,,,,,,,,,,,,,,
,,,,,V3_085,18,Female,2024-11-21_16h48.05.555,jersey_experiment_5_v3,2023.2.2,Win32,84.74576271,,,,,,,,,,,,,,,,496.5976,498.1503,498.1504,500.5504,return,0.5392,,65.88541667,,,,,,FBP-PT-91.png,0.43,1.2,29,0.75,0,42,42,28,1,,,,,,,,,,,,,,,,,,,,,,,,,,,,,,,,,,,,,,,,
,,,,,V3_085,18,Female,2024-11-21_16h48.05.555,jersey_experiment_5_v3,2023.2.2,Win32,84.74576271,,,,,,,,,,,,,,,,500.5507,501.8447,501.8447,503.4917,return,0.7921,,51.30208333,,,,,,FBP-OG-81.png,0.37,1.2,37,0.5,0,43,43,36,1,,,,,,,,,,,,,,,,,,,,,,,,,,,,,,,,,,,,,,,,
,,,,,V3_085,18,Female,2024-11-21_16h48.05.555,jersey_experiment_5_v3,2023.2.2,Win32,84.74576271,,,,,,,,,,,,,,,,503.4919,504.7858,504.7859,511.445,return,0.6345,,50.13020833,,,,,,FBP-OG-81.png,0.4,1.2,38,0.5,0,44,44,37,1,,,,,,,,,,,,,,,,,,,,,,,,,,,,,,,,,,,,,,,,
,,,,,V3_085,18,Female,2024-11-21_16h48.05.555,jersey_experiment_5_v3,2023.2.2,Win32,84.74576271,,,,,,,,,,,,,,,,511.4452,512.9979,512.9979,517.4451,return,0.6842,,49.08854167,,,,,,FBP-PT-91.png,0.37,1.2,27,0.75,0,45,45,26,1,,,,,,,,,,,,,,,,,,,,,,,,,,,,,,,,,,,,,,,,
,,,,,V3_085,18,Female,2024-11-21_16h48.05.555,jersey_experiment_5_v3,2023.2.2,Win32,84.74576271,,,,,,,,,,,,,,,,517.4454,518.9982,518.9982,523.2218,return,0.5965,,55.33854167,,,,,,FBP-RB-71.png,0.35,1.2,46,0.75,0,46,46,45,1,,,,,,,,,,,,,,,,,,,,,,,,,,,,,,,,,,,,,,,,
,,,,,V3_085,18,Female,2024-11-21_16h48.05.555,jersey_experiment_5_v3,2023.2.2,Win32,84.74576271,,,,,,,,,,,,,,,,523.2221,524.516,524.516,527.0221,return,0.865,,66.27604167,,,,,,FBP-OG-91.png,0.4,1.2,43,0.5,0,47,47,42,1,,,,,,,,,,,,,,,,,,,,,,,,,,,,,,,,,,,,,,,,
,,,,,V3_085,18,Female,2024-11-21_16h48.05.555,jersey_experiment_5_v3,2023.2.2,Win32,84.74576271,,,,,,,,,,,,,,,,527.0223,528.5751,528.5751,530.2692,return,0.725,,50.65104167,,,,,,FBP-YG-19.png,0.35,1.2,11,0.75,0,48,48,10,1,,,,,,,,,,,,,,,,,,,,,,,,,,,,,,,,,,,,,,,,
,,,,,V3_085,18,Female,2024-11-21_16h48.05.555,jersey_experiment_5_v3,2023.2.2,Win32,84.74576271,,,,,,,,,,,,,,,,530.2694,531.5633,531.5634,533.5046,return,0.6485,,59.50520833,,,,,,FBP-OG-71.png,0.4,1.2,33,0.5,0,49,49,32,1,,,,,,,,,,,,,,,,,,,,,,,,,,,,,,,,,,,,,,,,
,,,,,V3_085,18,Female,2024-11-21_16h48.05.555,jersey_experiment_5_v3,2023.2.2,Win32,84.74576271,,,,,,,,,,,,,,,,533.5049,534.7987,534.7988,536.8342,return,0.7064,,74.08854167,,,,,,FBP-OG-71.png,0.43,1.2,34,0.5,0,50,50,33,1,,,,,,,,,,,,,,,,,,,,,,,,,,,,,,,,,,,,,,,,
,,,,,V3_085,18,Female,2024-11-21_16h48.05.555,jersey_experiment_5_v3,2023.2.2,Win32,84.74576271,,,,,,,,,,,,,,,,536.8344,538.3759,538.3759,540.6578,return,0.6377,,49.34895833,,,,,,FBP-PT-71.png,0.37,1.2,17,0.75,0,51,51,16,1,,,,,,,,,,,,,,,,,,,,,,,,,,,,,,,,,,,,,,,,
,,,,,V3_085,18,Female,2024-11-21_16h48.05.555,jersey_experiment_5_v3,2023.2.2,Win32,84.74576271,,,,,,,,,,,,,,,,540.6581,541.9519,541.952,543.4698,return,0.5682,,63.02083333,,,,,,FBP-OG-91.png,0.45,1.2,45,0.5,0,52,52,44,1,,,,,,,,,,,,,,,,,,,,,,,,,,,,,,,,,,,,,,,,
,,,,,V3_085,18,Female,2024-11-21_16h48.05.555,jersey_experiment_5_v3,2023.2.2,Win32,84.74576271,,,,,,,,,,,,,,,,543.4701,544.7638,544.7639,546.8699,return,0.6674,,63.15104167,,,,,,FBP-OG-91.png,0.43,1.2,44,0.5,0,53,53,43,1,,,,,,,,,,,,,,,,,,,,,,,,,,,,,,,,,,,,,,,,
,,,,,V3_085,18,Female,2024-11-21_16h48.05.555,jersey_experiment_5_v3,2023.2.2,Win32,84.74576271,,,,,,,,,,,,,,,,546.8702,548.1639,548.1639,549.6933,return,0.5715,,57.55208333,,,,,,FBP-OG-81.png,0.43,1.2,39,0.5,0,54,54,38,1,,,,,,,,,,,,,,,,,,,,,,,,,,,,,,,,,,,,,,,,
,,,,,V3_085,18,Female,2024-11-21_16h48.05.555,jersey_experiment_5_v3,2023.2.2,Win32,84.74576271,,,,,,,,,,,,,,,,549.6936,551.2464,551.2464,553.07,return,0.6372,,49.34895833,,,,,,FBP-RB-91.png,0.35,1.2,56,0.75,0,55,55,55,1,,,,,,,,,,,,,,,,,,,,,,,,,,,,,,,,,,,,,,,,
,,,,,V3_085,18,Female,2024-11-21_16h48.05.555,jersey_experiment_5_v3,2023.2.2,Win32,84.74576271,,,,,,,,,,,,,,,,553.0703,554.6232,554.6232,556.6231,return,0.6523,,74.86979167,,,,,,FBP-RB-71.png,0.43,1.2,49,0.75,0,56,56,48,1,,,,,,,,,,,,,,,,,,,,,,,,,,,,,,,,,,,,,,,,
,,,,,V3_085,18,Female,2024-11-21_16h48.05.555,jersey_experiment_5_v3,2023.2.2,Win32,84.74576271,,,,,,,,,,,,,,,,556.6233,558.1761,558.1761,560.6938,return,0.674,,50,,,,,,FBP-YG-18.png,0.35,1.2,6,0.75,0,57,57,5,1,,,,,,,,,,,,,,,,,,,,,,,,,,,,,,,,,,,,,,,,
,,,,,V3_085,18,Female,2024-11-21_16h48.05.555,jersey_experiment_5_v3,2023.2.2,Win32,84.74576271,,,,,,,,,,,,,,,,560.694,562.2352,562.2352,563.9411,return,0.6733,,56.77083333,,,,,,FBP-RB-71.png,0.37,1.2,47,0.75,0,58,58,46,1,,,,,,,,,,,,,,,,,,,,,,,,,,,,,,,,,,,,,,,,
,,,,,V3_085,18,Female,2024-11-21_16h48.05.555,jersey_experiment_5_v3,2023.2.2,Win32,84.74576271,,,,,,,,,,,,,,,,563.9414,565.494,565.4942,567.2,return,0.5689,,56.90104167,,,,,,FBP-PT-71.png,0.4,1.2,18,0.75,0,59,59,17,1,,,,,,,,,,,,,,,,,,,,,,,,,,,,,,,,,,,,,,,,
,,,,,V3_085,18,Female,2024-11-21_16h48.05.555,jersey_experiment_5_v3,2023.2.2,Win32,84.74576271,,,,,,,,,,,,,,,,,,,,,,,,,,,,,,,,,,,,,,,567.2001,687.1929,,,,,,,,,,,,,,,,,,,,,,,,,,,,,,,,,,,,,,
,,,,,V3_085,18,Female,2024-11-21_16h48.05.555,jersey_experiment_5_v3,2023.2.2,Win32,84.74576271,,,,,,,,,,,,,,,,,,,,,,,,,,,,,,,,,,,,,,,,,687.193,691.8754,return,4.6738,,,,,,,,,,,,,,,,,,,,,,,,,,,,,,,,,,
,,,,,V3_085,18,Female,2024-11-21_16h48.05.555,jersey_experiment_5_v3,2023.2.2,Win32,84.74576271,,,,,,,,,,,,,,,,691.8768,693.4284,693.4285,696.9462,return,0.9542,,50,,,,,,FBP-OG-17.png,0.37,1.2,32,0.75,,,,,,,,,,,,,0,0,0,31,1,,,,,,,,,,,,,,,,,,,,,,,,,,,,
,,,,,V3_085,18,Female,2024-11-21_16h48.05.555,jersey_experiment_5_v3,2023.2.2,Win32,84.74576271,,,,,,,,,,,,,,,,696.9465,698.2403,698.2403,701.1815,return,0.7214,,64.71354167,,,,,,FBP-PT-18.png,0.4,1.2,23,0.5,,,,,,,,,,,,,0,1,1,22,1,,,,,,,,,,,,,,,,,,,,,,,,,,,,
,,,,,V3_085,18,Female,2024-11-21_16h48.05.555,jersey_experiment_5_v3,2023.2.2,Win32,84.74576271,,,,,,,,,,,,,,,,701.1818,702.4758,702.4758,704.8052,return,0.7854,,68.88020833,,,,,,FBP-PT-17.png,0.43,1.2,19,0.5,,,,,,,,,,,,,0,2,2,18,1,,,,,,,,,,,,,,,,,,,,,,,,,,,,
,,,,,V3_085,18,Female,2024-11-21_16h48.05.555,jersey_experiment_5_v3,2023.2.2,Win32,84.74576271,,,,,,,,,,,,,,,,704.8054,706.0994,706.0994,708.2997,return,0.7122,,50.65104167,,,,,,FBP-RB-19.png,0.37,1.2,57,0.5,,,,,,,,,,,,,0,3,3,56,1,,,,,,,,,,,,,,,,,,,,,,,,,,,,
,,,,,V3_085,18,Female,2024-11-21_16h48.05.555,jersey_experiment_5_v3,2023.2.2,Win32,84.74576271,,,,,,,,,,,,,,,,708.2998,709.5937,709.5938,711.6291,return,0.6898,,73.17708333,,,,,,FBP-YG-91.png,0.43,1.2,14,0.5,,,,,,,,,,,,,0,4,4,13,1,,,,,,,,,,,,,,,,,,,,,,,,,,,,
,,,,,V3_085,18,Female,2024-11-21_16h48.05.555,jersey_experiment_5_v3,2023.2.2,Win32,84.74576271,,,,,,,,,,,,,,,,711.6294,712.9232,712.9232,715.2999,return,0.5653,,49.47916667,,,,,,FBP-YG-81.png,0.35,1.2,6,0.5,,,,,,,,,,,,,0,5,5,5,1,,,,,,,,,,,,,,,,,,,,,,,,,,,,
,,,,,V3_085,18,Female,2024-11-21_16h48.05.555,jersey_experiment_5_v3,2023.2.2,Win32,84.74576271,,,,,,,,,,,,,,,,715.3003,716.5938,716.5938,718.2411,return,0.6622,,49.609375,,,,,,FBP-RB-18.png,0.35,1.2,51,0.5,,,,,,,,,,,,,0,6,6,50,1,,,,,,,,,,,,,,,,,,,,,,,,,,,,
,,,,,V3_085,18,Female,2024-11-21_16h48.05.555,jersey_experiment_5_v3,2023.2.2,Win32,84.74576271,,,,,,,,,,,,,,,,718.2413,719.5352,719.5352,720.7236,return,0.5881,,49.73958333,,,,,,FBP-PT-18.png,0.35,1.2,21,0.5,,,,,,,,,,,,,0,7,7,20,1,,,,,,,,,,,,,,,,,,,,,,,,,,,,
,,,,,V3_085,18,Female,2024-11-21_16h48.05.555,jersey_experiment_5_v3,2023.2.2,Win32,84.74576271,,,,,,,,,,,,,,,,720.7238,722.0176,722.0176,723.1707,return,0.5647,,49.73958333,,,,,,FBP-PT-17.png,0.35,1.2,16,0.5,,,,,,,,,,,,,0,8,8,15,1,,,,,,,,,,,,,,,,,,,,,,,,,,,,
,,,,,V3_085,18,Female,2024-11-21_16h48.05.555,jersey_experiment_5_v3,2023.2.2,Win32,84.74576271,,,,,,,,,,,,,,,,723.171,724.7238,724.7238,727.3945,return,1.7763,,57.03125,,,,,,FBP-OG-19.png,0.4,1.2,43,0.75,,,,,,,,,,,,,0,9,9,42,1,,,,,,,,,,,,,,,,,,,,,,,,,,,,
,,,,,V3_085,18,Female,2024-11-21_16h48.05.555,jersey_experiment_5_v3,2023.2.2,Win32,84.74576271,,,,,,,,,,,,,,,,727.3946,728.6886,728.6886,730.9004,return,0.5513,,61.06770833,,,,,,FBP-RB-18.png,0.37,1.2,52,0.5,,,,,,,,,,,,,0,10,10,51,1,,,,,,,,,,,,,,,,,,,,,,,,,,,,
,,,,,V3_085,18,Female,2024-11-21_16h48.05.555,jersey_experiment_5_v3,2023.2.2,Win32,84.74576271,,,,,,,,,,,,,,,,730.9007,732.1946,732.1947,734.1005,return,0.612,,57.421875,,,,,,FBP-PT-18.png,0.37,1.2,22,0.5,,,,,,,,,,,,,0,11,11,21,1,,,,,,,,,,,,,,,,,,,,,,,,,,,,
,,,,,V3_085,18,Female,2024-11-21_16h48.05.555,jersey_experiment_5_v3,2023.2.2,Win32,84.74576271,,,,,,,,,,,,,,,,734.1007,735.3947,735.3947,736.7242,return,0.566,,65.49479167,,,,,,FBP-PT-18.png,0.43,1.2,24,0.5,,,,,,,,,,,,,0,12,12,23,1,,,,,,,,,,,,,,,,,,,,,,,,,,,,
,,,,,V3_085,18,Female,2024-11-21_16h48.05.555,jersey_experiment_5_v3,2023.2.2,Win32,84.74576271,,,,,,,,,,,,,,,,736.7245,738.2771,738.2772,740.3831,return,0.7668,,75.78125,,,,,,FBP-OG-17.png,0.45,1.2,35,0.75,,,,,,,,,,,,,0,13,13,34,1,,,,,,,,,,,,,,,,,,,,,,,,,,,,
,,,,,V3_085,18,Female,2024-11-21_16h48.05.555,jersey_experiment_5_v3,2023.2.2,Win32,84.74576271,,,,,,,,,,,,,,,,740.3834,741.6773,741.6774,744.948,return,0.6357,,74.08854167,,,,,,FBP-YG-81.png,0.4,1.2,8,0.5,,,,,,,,,,,,,0,14,14,7,1,,,,,,,,,,,,,,,,,,,,,,,,,,,,
,,,,,V3_085,18,Female,2024-11-21_16h48.05.555,jersey_experiment_5_v3,2023.2.2,Win32,84.74576271,,,,,,,,,,,,,,,,744.9483,746.2421,746.2422,748.0776,return,0.6038,,49.08854167,,,,,,FBP-PT-19.png,0.35,1.2,26,0.5,,,,,,,,,,,,,0,15,15,25,1,,,,,,,,,,,,,,,,,,,,,,,,,,,,
,,,,,V3_085,18,Female,2024-11-21_16h48.05.555,jersey_experiment_5_v3,2023.2.2,Win32,84.74576271,,,,,,,,,,,,,,,,748.0778,749.6304,749.6304,751.36,return,0.7066,,57.03125,,,,,,FBP-OG-19.png,0.35,1.2,41,0.75,,,,,,,,,,,,,0,16,16,40,1,,,,,,,,,,,,,,,,,,,,,,,,,,,,
,,,,,V3_085,18,Female,2024-11-21_16h48.05.555,jersey_experiment_5_v3,2023.2.2,Win32,84.74576271,,,,,,,,,,,,,,,,751.3603,752.913,752.9131,755.572,return,0.59,,25.26041667,,,,,,FBP-OG-18.png,0.35,1.2,36,0.75,,,,,,,,,,,,,0,17,17,35,1,,,,,,,,,,,,,,,,,,,,,,,,,,,,
,,,,,V3_085,18,Female,2024-11-21_16h48.05.555,jersey_experiment_5_v3,2023.2.2,Win32,84.74576271,,,,,,,,,,,,,,,,755.5723,756.8661,756.8662,758.7367,return,0.7332,,74.34895833,,,,,,FBP-YG-71.png,0.45,1.2,5,0.5,,,,,,,,,,,,,0,18,18,4,1,,,,,,,,,,,,,,,,,,,,,,,,,,,,
,,,,,V3_085,18,Female,2024-11-21_16h48.05.555,jersey_experiment_5_v3,2023.2.2,Win32,84.74576271,,,,,,,,,,,,,,,,758.7371,760.0309,760.0309,761.278,return,0.5948,,74.34895833,,,,,,FBP-YG-81.png,0.43,1.2,9,0.5,,,,,,,,,,,,,0,19,19,8,1,,,,,,,,,,,,,,,,,,,,,,,,,,,,
,,,,,V3_085,18,Female,2024-11-21_16h48.05.555,jersey_experiment_5_v3,2023.2.2,Win32,84.74576271,,,,,,,,,,,,,,,,761.2783,762.5722,762.5723,763.8547,return,0.6609,,74.609375,,,,,,FBP-YG-91.png,0.45,1.2,15,0.5,,,,,,,,,,,,,0,20,20,14,1,,,,,,,,,,,,,,,,,,,,,,,,,,,,
,,,,,V3_085,18,Female,2024-11-21_16h48.05.555,jersey_experiment_5_v3,2023.2.2,Win32,84.74576271,,,,,,,,,,,,,,,,763.8549,765.1488,765.1489,767.3959,return,0.6204,,50.78125,,,,,,FBP-PT-19.png,0.37,1.2,27,0.5,,,,,,,,,,,,,0,21,21,26,1,,,,,,,,,,,,,,,,,,,,,,,,,,,,
,,,,,V3_085,18,Female,2024-11-21_16h48.05.555,jersey_experiment_5_v3,2023.2.2,Win32,84.74576271,,,,,,,,,,,,,,,,767.3961,768.9489,768.9489,770.7255,return,0.6821,,68.22916667,,,,,,FBP-OG-17.png,0.43,1.2,34,0.75,,,,,,,,,,,,,0,22,22,33,1,,,,,,,,,,,,,,,,,,,,,,,,,,,,
,,,,,V3_085,18,Female,2024-11-21_16h48.05.555,jersey_experiment_5_v3,2023.2.2,Win32,84.74576271,,,,,,,,,,,,,,,,770.7258,772.0197,772.0197,773.9256,return,0.6818,,49.609375,,,,,,FBP-RB-17.png,0.37,1.2,47,0.5,,,,,,,,,,,,,0,23,23,46,1,,,,,,,,,,,,,,,,,,,,,,,,,,,,
,,,,,V3_085,18,Female,2024-11-21_16h48.05.555,jersey_experiment_5_v3,2023.2.2,Win32,84.74576271,,,,,,,,,,,,,,,,773.9258,775.2198,775.2198,776.8551,return,0.6674,,75.26041667,,,,,,FBP-PT-19.png,0.45,1.2,30,0.5,,,,,,,,,,,,,0,24,24,29,1,,,,,,,,,,,,,,,,,,,,,,,,,,,,
,,,,,V3_085,18,Female,2024-11-21_16h48.05.555,jersey_experiment_5_v3,2023.2.2,Win32,84.74576271,,,,,,,,,,,,,,,,776.8554,778.1494,778.1494,779.8198,return,0.6909,,49.21875,,,,,,FBP-RB-17.png,0.35,1.2,46,0.5,,,,,,,,,,,,,0,25,25,45,1,,,,,,,,,,,,,,,,,,,,,,,,,,,,
,,,,,V3_085,18,Female,2024-11-21_16h48.05.555,jersey_experiment_5_v3,2023.2.2,Win32,84.74576271,,,,,,,,,,,,,,,,779.8201,781.1142,781.1142,782.9259,return,0.6419,,74.34895833,,,,,,FBP-RB-19.png,0.4,1.2,58,0.5,,,,,,,,,,,,,0,26,26,57,1,,,,,,,,,,,,,,,,,,,,,,,,,,,,
,,,,,V3_085,18,Female,2024-11-21_16h48.05.555,jersey_experiment_5_v3,2023.2.2,Win32,84.74576271,,,,,,,,,,,,,,,,782.9261,784.4675,784.4676,786.4201,return,0.6583,,70.57291667,,,,,,FBP-OG-19.png,0.43,1.2,44,0.75,,,,,,,,,,,,,0,27,27,43,1,,,,,,,,,,,,,,,,,,,,,,,,,,,,
,,,,,V3_085,18,Female,2024-11-21_16h48.05.555,jersey_experiment_5_v3,2023.2.2,Win32,84.74576271,,,,,,,,,,,,,,,,786.4204,787.9732,787.9732,789.3616,return,0.6501,,74.47916667,,,,,,FBP-OG-19.png,0.45,1.2,45,0.75,,,,,,,,,,,,,0,28,28,44,1,,,,,,,,,,,,,,,,,,,,,,,,,,,,
,,,,,V3_085,18,Female,2024-11-21_16h48.05.555,jersey_experiment_5_v3,2023.2.2,Win32,84.74576271,,,,,,,,,,,,,,,,789.3618,790.6556,790.6557,795.75,return,0.6912,,41.40625,,,,,,FBP-YG-91.png,0.37,1.2,12,0.5,,,,,,,,,,,,,0,29,29,11,1,,,,,,,,,,,,,,,,,,,,,,,,,,,,
,,,,,V3_085,18,Female,2024-11-21_16h48.05.555,jersey_experiment_5_v3,2023.2.2,Win32,84.74576271,,,,,,,,,,,,,,,,795.7503,797.303,797.303,799.8443,return,0.6676,,49.34895833,,,,,,FBP-OG-17.png,0.35,1.2,31,0.75,,,,,,,,,,,,,0,30,30,30,1,,,,,,,,,,,,,,,,,,,,,,,,,,,,
,,,,,V3_085,18,Female,2024-11-21_16h48.05.555,jersey_experiment_5_v3,2023.2.2,Win32,84.74576271,,,,,,,,,,,,,,,,799.8445,801.1385,801.1385,802.4326,return,0.6244,,50.26041667,,,,,,FBP-YG-71.png,0.35,1.2,1,0.5,,,,,,,,,,,,,0,31,31,0,1,,,,,,,,,,,,,,,,,,,,,,,,,,,,
,,,,,V3_085,18,Female,2024-11-21_16h48.05.555,jersey_experiment_5_v3,2023.2.2,Win32,84.74576271,,,,,,,,,,,,,,,,802.4328,803.7268,803.7268,805.9974,return,0.7954,,64.71354167,,,,,,FBP-YG-81.png,0.37,1.2,7,0.5,,,,,,,,,,,,,0,32,32,6,1,,,,,,,,,,,,,,,,,,,,,,,,,,,,
,,,,,V3_085,18,Female,2024-11-21_16h48.05.555,jersey_experiment_5_v3,2023.2.2,Win32,84.74576271,,,,,,,,,,,,,,,,805.9976,807.2916,807.2916,808.9622,return,0.5565,,75.390625,,,,,,FBP-YG-71.png,0.43,1.2,4,0.5,,,,,,,,,,,,,0,33,33,3,1,,,,,,,,,,,,,,,,,,,,,,,,,,,,
,,,,,V3_085,18,Female,2024-11-21_16h48.05.555,jersey_experiment_5_v3,2023.2.2,Win32,84.74576271,,,,,,,,,,,,,,,,808.9625,810.2565,810.2565,811.8095,return,0.6611,,75.390625,,,,,,FBP-PT-17.png,0.45,1.2,20,0.5,,,,,,,,,,,,,0,34,34,19,1,,,,,,,,,,,,,,,,,,,,,,,,,,,,
,,,,,V3_085,18,Female,2024-11-21_16h48.05.555,jersey_experiment_5_v3,2023.2.2,Win32,84.74576271,,,,,,,,,,,,,,,,811.8097,813.1035,813.1035,814.8683,return,0.6268,,49.73958333,,,,,,FBP-YG-71.png,0.37,1.2,2,0.5,,,,,,,,,,,,,0,35,35,1,1,,,,,,,,,,,,,,,,,,,,,,,,,,,,
,,,,,V3_085,18,Female,2024-11-21_16h48.05.555,jersey_experiment_5_v3,2023.2.2,Win32,84.74576271,,,,,,,,,,,,,,,,814.8684,816.4213,816.4214,818.4333,return,0.78,,49.73958333,,,,,,FBP-OG-19.png,0.37,1.2,42,0.75,,,,,,,,,,,,,0,36,36,41,1,,,,,,,,,,,,,,,,,,,,,,,,,,,,
,,,,,V3_085,18,Female,2024-11-21_16h48.05.555,jersey_experiment_5_v3,2023.2.2,Win32,84.74576271,,,,,,,,,,,,,,,,818.4334,819.9861,819.9862,821.5391,return,0.1975,,50,,,,,,FBP-OG-18.png,0.43,1.2,39,0.75,,,,,,,,,,,,,0,37,37,38,1,,,,,,,,,,,,,,,,,,,,,,,,,,,,
,,,,,V3_085,18,Female,2024-11-21_16h48.05.555,jersey_experiment_5_v3,2023.2.2,Win32,84.74576271,,,,,,,,,,,,,,,,821.5394,823.0922,823.0922,823.5745,return,0.2955,,50.26041667,,,,,,FBP-OG-18.png,0.4,1.2,38,0.75,,,,,,,,,,,,,0,38,38,37,1,,,,,,,,,,,,,,,,,,,,,,,,,,,,
,,,,,V3_085,18,Female,2024-11-21_16h48.05.555,jersey_experiment_5_v3,2023.2.2,Win32,84.74576271,,,,,,,,,,,,,,,,823.5748,824.8688,824.8689,827.3276,return,0.6493,,73.95833333,,,,,,FBP-RB-17.png,0.45,1.2,50,0.5,,,,,,,,,,,,,0,39,39,49,1,,,,,,,,,,,,,,,,,,,,,,,,,,,,
,,,,,V3_085,18,Female,2024-11-21_16h48.05.555,jersey_experiment_5_v3,2023.2.2,Win32,84.74576271,,,,,,,,,,,,,,,,827.3279,828.8806,828.8806,830.0688,return,0.2117,,50.65104167,,,,,,FBP-OG-18.png,0.37,1.2,37,0.75,,,,,,,,,,,,,0,40,40,36,1,,,,,,,,,,,,,,,,,,,,,,,,,,,,
,,,,,V3_085,18,Female,2024-11-21_16h48.05.555,jersey_experiment_5_v3,2023.2.2,Win32,84.74576271,,,,,,,,,,,,,,,,830.0691,831.363,831.363,832.5398,return,0.2198,,60.41666667,,,,,,FBP-RB-18.png,0.43,1.2,54,0.5,,,,,,,,,,,,,0,41,41,53,1,,,,,,,,,,,,,,,,,,,,,,,,,,,,
,,,,,V3_085,18,Female,2024-11-21_16h48.05.555,jersey_experiment_5_v3,2023.2.2,Win32,84.74576271,,,,,,,,,,,,,,,,832.54,833.8339,833.8339,835.5987,return,0.8028,,71.74479167,,,,,,FBP-PT-18.png,0.45,1.2,25,0.5,,,,,,,,,,,,,0,42,42,24,1,,,,,,,,,,,,,,,,,,,,,,,,,,,,
,,,,,V3_085,18,Female,2024-11-21_16h48.05.555,jersey_experiment_5_v3,2023.2.2,Win32,84.74576271,,,,,,,,,,,,,,,,835.5989,836.8927,836.8928,838.434,return,0.2849,,44.79166667,,,,,,FBP-YG-91.png,0.35,1.2,11,0.5,,,,,,,,,,,,,0,43,43,10,1,,,,,,,,,,,,,,,,,,,,,,,,,,,,
,,,,,V3_085,18,Female,2024-11-21_16h48.05.555,jersey_experiment_5_v3,2023.2.2,Win32,84.74576271,,,,,,,,,,,,,,,,838.4343,839.7281,839.7282,841.6341,return,0.1523,,54.81770833,,,,,,FBP-PT-17.png,0.4,1.2,18,0.5,,,,,,,,,,,,,0,44,44,17,1,,,,,,,,,,,,,,,,,,,,,,,,,,,,
,,,,,V3_085,18,Female,2024-11-21_16h48.05.555,jersey_experiment_5_v3,2023.2.2,Win32,84.74576271,,,,,,,,,,,,,,,,841.6343,842.9281,842.9281,844.2695,return,0.3217,,74.86979167,,,,,,FBP-RB-18.png,0.45,1.2,55,0.5,,,,,,,,,,,,,0,45,45,54,1,,,,,,,,,,,,,,,,,,,,,,,,,,,,
,,,,,V3_085,18,Female,2024-11-21_16h48.05.555,jersey_experiment_5_v3,2023.2.2,Win32,84.74576271,,,,,,,,,,,,,,,,844.2697,845.5636,845.5636,847.1049,return,0.3058,,62.5,,,,,,FBP-YG-91.png,0.4,1.2,13,0.5,,,,,,,,,,,,,0,46,46,12,1,,,,,,,,,,,,,,,,,,,,,,,,,,,,
,,,,,V3_085,18,Female,2024-11-21_16h48.05.555,jersey_experiment_5_v3,2023.2.2,Win32,84.74576271,,,,,,,,,,,,,,,,847.1052,848.3989,848.399,849.5522,return,0.2281,,75.52083333,,,,,,FBP-YG-81.png,0.45,1.2,10,0.5,,,,,,,,,,,,,0,47,47,9,1,,,,,,,,,,,,,,,,,,,,,,,,,,,,
,,,,,V3_085,18,Female,2024-11-21_16h48.05.555,jersey_experiment_5_v3,2023.2.2,Win32,84.74576271,,,,,,,,,,,,,,,,849.5524,850.8461,850.8462,852.1169,return,0.3069,,75.390625,,,,,,FBP-RB-19.png,0.43,1.2,59,0.5,,,,,,,,,,,,,0,48,48,58,1,,,,,,,,,,,,,,,,,,,,,,,,,,,,
,,,,,V3_085,18,Female,2024-11-21_16h48.05.555,jersey_experiment_5_v3,2023.2.2,Win32,84.74576271,,,,,,,,,,,,,,,,852.1172,853.4109,853.411,854.9404,return,0.3024,,49.73958333,,,,,,FBP-RB-19.png,0.35,1.2,56,0.5,,,,,,,,,,,,,0,49,49,55,1,,,,,,,,,,,,,,,,,,,,,,,,,,,,
,,,,,V3_085,18,Female,2024-11-21_16h48.05.555,jersey_experiment_5_v3,2023.2.2,Win32,84.74576271,,,,,,,,,,,,,,,,854.9407,856.4935,856.4935,858.7405,return,0.1256,,67.44791667,,,,,,FBP-OG-18.png,0.45,1.2,40,0.75,,,,,,,,,,,,,0,50,50,39,1,,,,,,,,,,,,,,,,,,,,,,,,,,,,
,,,,,V3_085,18,Female,2024-11-21_16h48.05.555,jersey_experiment_5_v3,2023.2.2,Win32,84.74576271,,,,,,,,,,,,,,,,858.7407,860.0348,860.0349,861.5642,return,0.2056,,66.40625,,,,,,FBP-RB-18.png,0.4,1.2,53,0.5,,,,,,,,,,,,,0,51,51,52,1,,,,,,,,,,,,,,,,,,,,,,,,,,,,
,,,,,V3_085,18,Female,2024-11-21_16h48.05.555,jersey_experiment_5_v3,2023.2.2,Win32,84.74576271,,,,,,,,,,,,,,,,861.5644,862.8584,862.8584,864.4703,return,0.5869,,66.40625,,,,,,FBP-PT-19.png,0.4,1.2,28,0.5,,,,,,,,,,,,,0,52,52,27,1,,,,,,,,,,,,,,,,,,,,,,,,,,,,
,,,,,V3_085,18,Female,2024-11-21_16h48.05.555,jersey_experiment_5_v3,2023.2.2,Win32,84.74576271,,,,,,,,,,,,,,,,864.4705,865.7644,865.7644,866.8232,return,0.189,,74.609375,,,,,,FBP-RB-17.png,0.43,1.2,49,0.5,,,,,,,,,,,,,0,53,53,48,1,,,,,,,,,,,,,,,,,,,,,,,,,,,,
,,,,,V3_085,18,Female,2024-11-21_16h48.05.555,jersey_experiment_5_v3,2023.2.2,Win32,84.74576271,,,,,,,,,,,,,,,,866.8234,868.1173,868.1174,871.0705,return,0.4617,,56.51041667,,,,,,FBP-PT-17.png,0.37,1.2,17,0.5,,,,,,,,,,,,,0,54,54,16,1,,,,,,,,,,,,,,,,,,,,,,,,,,,,
,,,,,V3_085,18,Female,2024-11-21_16h48.05.555,jersey_experiment_5_v3,2023.2.2,Win32,84.74576271,,,,,,,,,,,,,,,,871.0708,872.6236,872.6236,873.953,return,0.1178,,57.55208333,,,,,,FBP-OG-17.png,0.4,1.2,33,0.75,,,,,,,,,,,,,0,55,55,32,1,,,,,,,,,,,,,,,,,,,,,,,,,,,,
,,,,,V3_085,18,Female,2024-11-21_16h48.05.555,jersey_experiment_5_v3,2023.2.2,Win32,84.74576271,,,,,,,,,,,,,,,,873.9533,875.2472,875.2472,876.706,return,0.0859,,74.08854167,,,,,,FBP-RB-19.png,0.45,1.2,60,0.5,,,,,,,,,,,,,0,56,56,59,1,,,,,,,,,,,,,,,,,,,,,,,,,,,,
,,,,,V3_085,18,Female,2024-11-21_16h48.05.555,jersey_experiment_5_v3,2023.2.2,Win32,84.74576271,,,,,,,,,,,,,,,,876.7062,878.0002,878.0002,879.3179,return,0.3923,,70.57291667,,,,,,FBP-PT-19.png,0.43,1.2,29,0.5,,,,,,,,,,,,,0,57,57,28,1,,,,,,,,,,,,,,,,,,,,,,,,,,,,
,,,,,V3_085,18,Female,2024-11-21_16h48.05.555,jersey_experiment_5_v3,2023.2.2,Win32,84.74576271,,,,,,,,,,,,,,,,879.3182,880.6121,880.6121,882.4946,return,0.1202,,73.828125,,,,,,FBP-RB-17.png,0.4,1.2,48,0.5,,,,,,,,,,,,,0,58,58,47,1,,,,,,,,,,,,,,,,,,,,,,,,,,,,
,,,,,V3_085,18,Female,2024-11-21_16h48.05.555,jersey_experiment_5_v3,2023.2.2,Win32,84.74576271,,,,,,,,,,,,,,,,882.4947,883.7887,883.7887,884.9652,return,0.3216,,73.56770833,,,,,,FBP-YG-71.png,0.4,1.2,3,0.5,,,,,,,,,,,,,0,59,59,2,1,,,,,,,,,,,,,,,,,,,,,,,,,,,,
,,,,,V3_085,18,Female,2024-11-21_16h48.05.555,jersey_experiment_5_v3,2023.2.2,Win32,84.74576271,,,,,,,,,,,,,,,,884.9664,886.2593,886.2594,887.3417,return,0.1214,,49.86979167,,,,,,FBP-RB-81.png,0.35,1.2,51,0.5,,,,,,,,,,,,,,,,,,0,0,0,50,1,,,,,,,,,,,,,,,,,,,,,,,
,,,,,V3_085,18,Female,2024-11-21_16h48.05.555,jersey_experiment_5_v3,2023.2.2,Win32,84.74576271,,,,,,,,,,,,,,,,887.3419,888.8947,888.8948,889.7771,return,0.2234,,57.94270833,,,,,,FBP-OG-71.png,0.37,1.2,32,0.75,,,,,,,,,,,,,,,,,,0,1,1,31,1,,,,,,,,,,,,,,,,,,,,,,,
,,,,,V3_085,18,Female,2024-11-21_16h48.05.555,jersey_experiment_5_v3,2023.2.2,Win32,84.74576271,,,,,,,,,,,,,,,,889.7774,891.0712,891.0713,892.2243,return,0.2033,,69.79166667,,,,,,FBP-RB-91.png,0.4,1.2,58,0.5,,,,,,,,,,,,,,,,,,0,2,2,57,1,,,,,,,,,,,,,,,,,,,,,,,
,,,,,V3_085,18,Female,2024-11-21_16h48.05.555,jersey_experiment_5_v3,2023.2.2,Win32,84.74576271,,,,,,,,,,,,,,,,892.2246,893.5184,893.5184,894.8362,return,0.1497,,57.421875,,,,,,FBP-PT-71.png,0.4,1.2,18,0.5,,,,,,,,,,,,,,,,,,0,3,3,17,1,,,,,,,,,,,,,,,,,,,,,,,
,,,,,V3_085,18,Female,2024-11-21_16h48.05.555,jersey_experiment_5_v3,2023.2.2,Win32,84.74576271,,,,,,,,,,,,,,,,894.8364,896.1301,896.1303,897.9656,return,0.4306,,50,,,,,,FBP-PT-71.png,0.37,1.2,17,0.5,,,,,,,,,,,,,,,,,,0,4,4,16,1,,,,,,,,,,,,,,,,,,,,,,,
,,,,,V3_085,18,Female,2024-11-21_16h48.05.555,jersey_experiment_5_v3,2023.2.2,Win32,84.74576271,,,,,,,,,,,,,,,,897.9658,899.2598,899.2598,900.6128,return,0.2124,,69.27083333,,,,,,FBP-YG-19.png,0.37,1.2,12,0.5,,,,,,,,,,,,,,,,,,0,5,5,11,1,,,,,,,,,,,,,,,,,,,,,,,
,,,,,V3_085,18,Female,2024-11-21_16h48.05.555,jersey_experiment_5_v3,2023.2.2,Win32,84.74576271,,,,,,,,,,,,,,,,900.613,901.907,901.907,903.3776,return,0.6468,,68.22916667,,,,,,FBP-YG-17.png,0.4,1.2,3,0.5,,,,,,,,,,,,,,,,,,0,6,6,2,1,,,,,,,,,,,,,,,,,,,,,,,
,,,,,V3_085,18,Female,2024-11-21_16h48.05.555,jersey_experiment_5_v3,2023.2.2,Win32,84.74576271,,,,,,,,,,,,,,,,903.3779,904.6717,904.6717,905.9659,return,0.3207,,75.26041667,,,,,,FBP-RB-81.png,0.45,1.2,55,0.5,,,,,,,,,,,,,,,,,,0,7,7,54,1,,,,,,,,,,,,,,,,,,,,,,,
,,,,,V3_085,18,Female,2024-11-21_16h48.05.555,jersey_experiment_5_v3,2023.2.2,Win32,84.74576271,,,,,,,,,,,,,,,,905.9662,907.2601,907.2602,909.1544,return,1.0738,,66.27604167,,,,,,FBP-PT-91.png,0.4,1.2,28,0.5,,,,,,,,,,,,,,,,,,0,8,8,27,1,,,,,,,,,,,,,,,,,,,,,,,
,,,,,V3_085,18,Female,2024-11-21_16h48.05.555,jersey_experiment_5_v3,2023.2.2,Win32,84.74576271,,,,,,,,,,,,,,,,909.1546,910.4485,910.4485,911.7308,return,0.2004,,67.1875,,,,,,FBP-PT-81.png,0.43,1.2,24,0.5,,,,,,,,,,,,,,,,,,0,9,9,23,1,,,,,,,,,,,,,,,,,,,,,,,
,,,,,V3_085,18,Female,2024-11-21_16h48.05.555,jersey_experiment_5_v3,2023.2.2,Win32,84.74576271,,,,,,,,,,,,,,,,911.731,913.0249,913.025,915.0371,return,1.1491,,49.34895833,,,,,,FBP-YG-18.png,0.37,1.2,7,0.5,,,,,,,,,,,,,,,,,,0,10,10,6,1,,,,,,,,,,,,,,,,,,,,,,,
,,,,,V3_085,18,Female,2024-11-21_16h48.05.555,jersey_experiment_5_v3,2023.2.2,Win32,84.74576271,,,,,,,,,,,,,,,,915.0374,916.59,916.59,918.0958,return,0.2283,,50.52083333,,,,,,FBP-OG-91.png,0.37,1.2,42,0.75,,,,,,,,,,,,,,,,,,0,11,11,41,1,,,,,,,,,,,,,,,,,,,,,,,
,,,,,V3_085,18,Female,2024-11-21_16h48.05.555,jersey_experiment_5_v3,2023.2.2,Win32,84.74576271,,,,,,,,,,,,,,,,918.0961,919.39,919.3901,922.0372,return,0.3386,,56.11979167,,,,,,FBP-YG-17.png,0.45,1.2,5,0.5,,,,,,,,,,,,,,,,,,0,12,12,4,1,,,,,,,,,,,,,,,,,,,,,,,
,,,,,V3_085,18,Female,2024-11-21_16h48.05.555,jersey_experiment_5_v3,2023.2.2,Win32,84.74576271,,,,,,,,,,,,,,,,922.0374,923.59,923.5901,931.1434,return,0.7149,,49.609375,,,,,,FBP-OG-91.png,0.4,1.2,43,0.75,,,,,,,,,,,,,,,,,,0,13,13,42,1,,,,,,,,,,,,,,,,,,,,,,,
,,,,,V3_085,18,Female,2024-11-21_16h48.05.555,jersey_experiment_5_v3,2023.2.2,Win32,84.74576271,,,,,,,,,,,,,,,,931.1435,932.6964,932.6966,935.6612,return,0.1958,,56.38020833,,,,,,FBP-OG-81.png,0.43,1.2,39,0.75,,,,,,,,,,,,,,,,,,0,14,14,38,1,,,,,,,,,,,,,,,,,,,,,,,
,,,,,V3_085,18,Female,2024-11-21_16h48.05.555,jersey_experiment_5_v3,2023.2.2,Win32,84.74576271,,,,,,,,,,,,,,,,935.6615,936.9554,936.9554,939.4614,return,0.116,,64.97395833,,,,,,FBP-YG-18.png,0.45,1.2,10,0.5,,,,,,,,,,,,,,,,,,0,15,15,9,1,,,,,,,,,,,,,,,,,,,,,,,
,,,,,V3_085,18,Female,2024-11-21_16h48.05.555,jersey_experiment_5_v3,2023.2.2,Win32,84.74576271,,,,,,,,,,,,,,,,939.4617,941.0144,941.0144,944.6263,return,1.211,,54.55729167,,,,,,FBP-OG-81.png,0.4,1.2,38,0.75,,,,,,,,,,,,,,,,,,0,16,16,37,1,,,,,,,,,,,,,,,,,,,,,,,
,,,,,V3_085,18,Female,2024-11-21_16h48.05.555,jersey_experiment_5_v3,2023.2.2,Win32,84.74576271,,,,,,,,,,,,,,,,944.6265,945.9205,945.9205,946.9087,return,0.1106,,64.84375,,,,,,FBP-PT-91.png,0.45,1.2,30,0.5,,,,,,,,,,,,,,,,,,0,17,17,29,1,,,,,,,,,,,,,,,,,,,,,,,
,,,,,V3_085,18,Female,2024-11-21_16h48.05.555,jersey_experiment_5_v3,2023.2.2,Win32,84.74576271,,,,,,,,,,,,,,,,946.9089,948.2028,948.2029,949.0616,return,0.1167,,64.84375,,,,,,FBP-YG-19.png,0.45,1.2,15,0.5,,,,,,,,,,,,,,,,,,0,18,18,14,1,,,,,,,,,,,,,,,,,,,,,,,
,,,,,V3_085,18,Female,2024-11-21_16h48.05.555,jersey_experiment_5_v3,2023.2.2,Win32,84.74576271,,,,,,,,,,,,,,,,949.0619,950.3559,950.3559,952.3324,return,0.2553,,48.69791667,,,,,,FBP-PT-91.png,0.35,1.2,26,0.5,,,,,,,,,,,,,,,,,,0,19,19,25,1,,,,,,,,,,,,,,,,,,,,,,,
,,,,,V3_085,18,Female,2024-11-21_16h48.05.555,jersey_experiment_5_v3,2023.2.2,Win32,84.74576271,,,,,,,,,,,,,,,,952.3326,953.6266,953.6266,955.3444,return,0.3926,,62.890625,,,,,,FBP-YG-17.png,0.43,1.2,4,0.5,,,,,,,,,,,,,,,,,,0,20,20,3,1,,,,,,,,,,,,,,,,,,,,,,,
,,,,,V3_085,18,Female,2024-11-21_16h48.05.555,jersey_experiment_5_v3,2023.2.2,Win32,84.74576271,,,,,,,,,,,,,,,,955.3446,956.6384,956.6385,957.9563,return,0.2347,,75.13020833,,,,,,FBP-RB-71.png,0.43,1.2,49,0.5,,,,,,,,,,,,,,,,,,0,21,21,48,1,,,,,,,,,,,,,,,,,,,,,,,
,,,,,V3_085,18,Female,2024-11-21_16h48.05.555,jersey_experiment_5_v3,2023.2.2,Win32,84.74576271,,,,,,,,,,,,,,,,957.9564,959.2504,959.2504,960.4858,return,0.1286,,65.625,,,,,,FBP-PT-71.png,0.45,1.2,20,0.5,,,,,,,,,,,,,,,,,,0,22,22,19,1,,,,,,,,,,,,,,,,,,,,,,,
,,,,,V3_085,18,Female,2024-11-21_16h48.05.555,jersey_experiment_5_v3,2023.2.2,Win32,84.74576271,,,,,,,,,,,,,,,,960.486,961.7798,961.7799,962.9446,return,0.1333,,48.95833333,,,,,,FBP-YG-18.png,0.35,1.2,6,0.5,,,,,,,,,,,,,,,,,,0,23,23,5,1,,,,,,,,,,,,,,,,,,,,,,,
,,,,,V3_085,18,Female,2024-11-21_16h48.05.555,jersey_experiment_5_v3,2023.2.2,Win32,84.74576271,,,,,,,,,,,,,,,,962.9449,964.2389,964.2389,965.3448,return,0.1568,,60.02604167,,,,,,FBP-YG-17.png,0.37,1.2,2,0.5,,,,,,,,,,,,,,,,,,0,24,24,1,1,,,,,,,,,,,,,,,,,,,,,,,
,,,,,V3_085,18,Female,2024-11-21_16h48.05.555,jersey_experiment_5_v3,2023.2.2,Win32,84.74576271,,,,,,,,,,,,,,,,965.345,966.6389,966.639,968.3567,return,0.3209,,60.02604167,,,,,,FBP-PT-91.png,0.37,1.2,27,0.5,,,,,,,,,,,,,,,,,,0,25,25,26,1,,,,,,,,,,,,,,,,,,,,,,,
,,,,,V3_085,18,Female,2024-11-21_16h48.05.555,jersey_experiment_5_v3,2023.2.2,Win32,84.74576271,,,,,,,,,,,,,,,,968.3569,969.6508,969.6509,970.7332,return,0.1474,,68.88020833,,,,,,FBP-YG-18.png,0.4,1.2,8,0.5,,,,,,,,,,,,,,,,,,0,26,26,7,1,,,,,,,,,,,,,,,,,,,,,,,
,,,,,V3_085,18,Female,2024-11-21_16h48.05.555,jersey_experiment_5_v3,2023.2.2,Win32,84.74576271,,,,,,,,,,,,,,,,970.7334,972.0273,972.0274,973.4039,return,0.2056,,57.29166667,,,,,,FBP-PT-81.png,0.37,1.2,22,0.5,,,,,,,,,,,,,,,,,,0,27,27,21,1,,,,,,,,,,,,,,,,,,,,,,,
,,,,,V3_085,18,Female,2024-11-21_16h48.05.555,jersey_experiment_5_v3,2023.2.2,Win32,84.74576271,,,,,,,,,,,,,,,,973.4042,974.9569,974.9569,976.4393,return,0.1266,,54.42708333,,,,,,FBP-OG-81.png,0.37,1.2,37,0.75,,,,,,,,,,,,,,,,,,0,28,28,36,1,,,,,,,,,,,,,,,,,,,,,,,
,,,,,V3_085,18,Female,2024-11-21_16h48.05.555,jersey_experiment_5_v3,2023.2.2,Win32,84.74576271,,,,,,,,,,,,,,,,976.4396,977.7334,977.7335,979.5335,return,0.1927,,50.13020833,,,,,,FBP-YG-19.png,0.35,1.2,11,0.5,,,,,,,,,,,,,,,,,,0,29,29,10,1,,,,,,,,,,,,,,,,,,,,,,,
,,,,,V3_085,18,Female,2024-11-21_16h48.05.555,jersey_experiment_5_v3,2023.2.2,Win32,84.74576271,,,,,,,,,,,,,,,,979.5338,980.8277,980.8277,982.063,return,0.2024,,61.19791667,,,,,,FBP-YG-19.png,0.4,1.2,13,0.5,,,,,,,,,,,,,,,,,,0,30,30,12,1,,,,,,,,,,,,,,,,,,,,,,,
,,,,,V3_085,18,Female,2024-11-21_16h48.05.555,jersey_experiment_5_v3,2023.2.2,Win32,84.74576271,,,,,,,,,,,,,,,,982.0633,983.3573,983.3574,984.5454,return,0.2274,,69.79166667,,,,,,FBP-RB-91.png,0.43,1.2,59,0.5,,,,,,,,,,,,,,,,,,0,31,31,58,1,,,,,,,,,,,,,,,,,,,,,,,
,,,,,V3_085,18,Female,2024-11-21_16h48.05.555,jersey_experiment_5_v3,2023.2.2,Win32,84.74576271,,,,,,,,,,,,,,,,984.5457,986.0985,986.0985,987.4866,return,0.1118,,57.94270833,,,,,,FBP-OG-91.png,0.35,1.2,41,0.75,,,,,,,,,,,,,,,,,,0,32,32,40,1,,,,,,,,,,,,,,,,,,,,,,,
,,,,,V3_085,18,Female,2024-11-21_16h48.05.555,jersey_experiment_5_v3,2023.2.2,Win32,84.74576271,,,,,,,,,,,,,,,,987.4869,988.7809,988.7809,991.534,return,0.168,,68.09895833,,,,,,FBP-PT-81.png,0.4,1.2,23,0.5,,,,,,,,,,,,,,,,,,0,33,33,22,1,,,,,,,,,,,,,,,,,,,,,,,
,,,,,V3_085,18,Female,2024-11-21_16h48.05.555,jersey_experiment_5_v3,2023.2.2,Win32,84.74576271,,,,,,,,,,,,,,,,991.5342,992.8282,992.8283,994.087,return,0.1502,,75.78125,,,,,,FBP-YG-19.png,0.43,1.2,14,0.5,,,,,,,,,,,,,,,,,,0,34,34,13,1,,,,,,,,,,,,,,,,,,,,,,,
,,,,,V3_085,18,Female,2024-11-21_16h48.05.555,jersey_experiment_5_v3,2023.2.2,Win32,84.74576271,,,,,,,,,,,,,,,,994.0872,995.3811,995.3812,997.346,return,0.1792,,75.65104167,,,,,,FBP-YG-18.png,0.43,1.2,9,0.5,,,,,,,,,,,,,,,,,,0,35,35,8,1,,,,,,,,,,,,,,,,,,,,,,,
,,,,,V3_085,18,Female,2024-11-21_16h48.05.555,jersey_experiment_5_v3,2023.2.2,Win32,84.74576271,,,,,,,,,,,,,,,,997.3463,998.6401,998.6401,1001.4874,return,1.1791,,73.30729167,,,,,,FBP-RB-71.png,0.45,1.2,50,0.5,,,,,,,,,,,,,,,,,,0,36,36,49,1,,,,,,,,,,,,,,,,,,,,,,,
,,,,,V3_085,18,Female,2024-11-21_16h48.05.555,jersey_experiment_5_v3,2023.2.2,Win32,84.74576271,,,,,,,,,,,,,,,,1001.4876,1002.7814,1002.7815,1003.911,return,0.1329,,49.34895833,,,,,,FBP-RB-91.png,0.35,1.2,56,0.5,,,,,,,,,,,,,,,,,,0,37,37,55,1,,,,,,,,,,,,,,,,,,,,,,,
,,,,,V3_085,18,Female,2024-11-21_16h48.05.555,jersey_experiment_5_v3,2023.2.2,Win32,84.74576271,,,,,,,,,,,,,,,,1003.9112,1005.2049,1005.205,1006.0639,return,0.0987,,50.26041667,,,,,,FBP-PT-81.png,0.35,1.2,21,0.5,,,,,,,,,,,,,,,,,,0,38,38,20,1,,,,,,,,,,,,,,,,,,,,,,,
,,,,,V3_085,18,Female,2024-11-21_16h48.05.555,jersey_experiment_5_v3,2023.2.2,Win32,84.74576271,,,,,,,,,,,,,,,,1006.0642,1007.3581,1007.3582,1008.3816,return,0.1212,,59.11458333,,,,,,FBP-RB-71.png,0.37,1.2,47,0.5,,,,,,,,,,,,,,,,,,0,39,39,46,1,,,,,,,,,,,,,,,,,,,,,,,
,,,,,V3_085,18,Female,2024-11-21_16h48.05.555,jersey_experiment_5_v3,2023.2.2,Win32,84.74576271,,,,,,,,,,,,,,,,1008.3818,1009.6758,1009.6758,1011.2995,return,0.4161,,49.86979167,,,,,,FBP-PT-71.png,0.35,1.2,16,0.5,,,,,,,,,,,,,,,,,,0,40,40,15,1,,,,,,,,,,,,,,,,,,,,,,,
,,,,,V3_085,18,Female,2024-11-21_16h48.05.555,jersey_experiment_5_v3,2023.2.2,Win32,84.74576271,,,,,,,,,,,,,,,,1011.2997,1012.5936,1012.5937,1013.8054,return,0.2425,,58.984375,,,,,,FBP-RB-81.png,0.37,1.2,52,0.5,,,,,,,,,,,,,,,,,,0,41,41,51,1,,,,,,,,,,,,,,,,,,,,,,,
,,,,,V3_085,18,Female,2024-11-21_16h48.05.555,jersey_experiment_5_v3,2023.2.2,Win32,84.74576271,,,,,,,,,,,,,,,,1013.8057,1015.3583,1015.3584,1016.3113,return,0.2483,,58.07291667,,,,,,FBP-OG-71.png,0.4,1.2,33,0.75,,,,,,,,,,,,,,,,,,0,42,42,32,1,,,,,,,,,,,,,,,,,,,,,,,
,,,,,V3_085,18,Female,2024-11-21_16h48.05.555,jersey_experiment_5_v3,2023.2.2,Win32,84.74576271,,,,,,,,,,,,,,,,1016.3115,1017.6055,1017.6056,1018.6056,return,0.1009,,74.34895833,,,,,,FBP-RB-91.png,0.45,1.2,60,0.5,,,,,,,,,,,,,,,,,,0,43,43,59,1,,,,,,,,,,,,,,,,,,,,,,,
,,,,,V3_085,18,Female,2024-11-21_16h48.05.555,jersey_experiment_5_v3,2023.2.2,Win32,84.74576271,,,,,,,,,,,,,,,,1018.6058,1020.1585,1020.1586,1021.3116,return,0.1783,,71.22395833,,,,,,FBP-OG-91.png,0.43,1.2,44,0.75,,,,,,,,,,,,,,,,,,0,44,44,43,1,,,,,,,,,,,,,,,,,,,,,,,
,,,,,V3_085,18,Female,2024-11-21_16h48.05.555,jersey_experiment_5_v3,2023.2.2,Win32,84.74576271,,,,,,,,,,,,,,,,1021.3118,1022.8644,1022.8645,1025.5824,return,0.1596,,58.33333333,,,,,,FBP-OG-81.png,0.35,1.2,36,0.75,,,,,,,,,,,,,,,,,,0,45,45,35,1,,,,,,,,,,,,,,,,,,,,,,,
,,,,,V3_085,18,Female,2024-11-21_16h48.05.555,jersey_experiment_5_v3,2023.2.2,Win32,84.74576271,,,,,,,,,,,,,,,,1025.5826,1026.8765,1026.8766,1027.8883,return,0.072,,69.140625,,,,,,FBP-RB-81.png,0.43,1.2,54,0.5,,,,,,,,,,,,,,,,,,0,46,46,53,1,,,,,,,,,,,,,,,,,,,,,,,
,,,,,V3_085,18,Female,2024-11-21_16h48.05.555,jersey_experiment_5_v3,2023.2.2,Win32,84.74576271,,,,,,,,,,,,,,,,1027.8886,1029.1824,1029.1825,1030.0296,return,0.145,,69.140625,,,,,,FBP-PT-81.png,0.45,1.2,25,0.5,,,,,,,,,,,,,,,,,,0,47,47,24,1,,,,,,,,,,,,,,,,,,,,,,,
,,,,,V3_085,18,Female,2024-11-21_16h48.05.555,jersey_experiment_5_v3,2023.2.2,Win32,84.74576271,,,,,,,,,,,,,,,,1030.0298,1031.3237,1031.3237,1032.465,return,0.1302,,49.21875,,,,,,FBP-RB-81.png,0.4,1.2,53,0.5,,,,,,,,,,,,,,,,,,0,48,48,52,1,,,,,,,,,,,,,,,,,,,,,,,
,,,,,V3_085,18,Female,2024-11-21_16h48.05.555,jersey_experiment_5_v3,2023.2.2,Win32,84.74576271,,,,,,,,,,,,,,,,1032.4652,1033.7591,1033.7592,1035.1592,return,0.2249,,45.05208333,,,,,,FBP-YG-17.png,0.35,1.2,1,0.5,,,,,,,,,,,,,,,,,,0,49,49,0,1,,,,,,,,,,,,,,,,,,,,,,,
,,,,,V3_085,18,Female,2024-11-21_16h48.05.555,jersey_experiment_5_v3,2023.2.2,Win32,84.74576271,,,,,,,,,,,,,,,,1035.1595,1036.7123,1036.7123,1038.83,return,0.2175,,70.05208333,,,,,,FBP-OG-81.png,0.45,1.2,40,0.75,,,,,,,,,,,,,,,,,,0,50,50,39,1,,,,,,,,,,,,,,,,,,,,,,,
,,,,,V3_085,18,Female,2024-11-21_16h48.05.555,jersey_experiment_5_v3,2023.2.2,Win32,84.74576271,,,,,,,,,,,,,,,,1038.8302,1040.3832,1040.3832,1041.2066,return,0.203,,77.34375,,,,,,FBP-OG-71.png,0.45,1.2,35,0.75,,,,,,,,,,,,,,,,,,0,51,51,34,1,,,,,,,,,,,,,,,,,,,,,,,
,,,,,V3_085,18,Female,2024-11-21_16h48.05.555,jersey_experiment_5_v3,2023.2.2,Win32,84.74576271,,,,,,,,,,,,,,,,1041.2068,1042.5007,1042.5007,1043.7007,return,0.0157,,49.08854167,,,,,,FBP-RB-71.png,0.4,1.2,48,0.5,,,,,,,,,,,,,,,,,,0,52,52,47,1,,,,,,,,,,,,,,,,,,,,,,,
,,,,,V3_085,18,Female,2024-11-21_16h48.05.555,jersey_experiment_5_v3,2023.2.2,Win32,84.74576271,,,,,,,,,,,,,,,,1043.701,1044.9948,1044.9948,1045.6772,return,0.0038,,50.390625,,,,,,FBP-RB-91.png,0.37,1.2,57,0.5,,,,,,,,,,,,,,,,,,0,53,53,56,1,,,,,,,,,,,,,,,,,,,,,,,
,,,,,V3_085,18,Female,2024-11-21_16h48.05.555,jersey_experiment_5_v3,2023.2.2,Win32,84.74576271,,,,,,,,,,,,,,,,1045.6774,1047.2303,1047.2303,1047.8066,return,0.0296,,63.54166667,,,,,,FBP-OG-71.png,0.43,1.2,34,0.75,,,,,,,,,,,,,,,,,,0,54,54,33,1,,,,,,,,,,,,,,,,,,,,,,,
,,,,,V3_085,18,Female,2024-11-21_16h48.05.555,jersey_experiment_5_v3,2023.2.2,Win32,84.74576271,,,,,,,,,,,,,,,,1047.8068,1049.3597,1049.3597,1050.0773,return,0.0661,,62.5,,,,,,FBP-OG-91.png,0.45,1.2,45,0.75,,,,,,,,,,,,,,,,,,0,55,55,44,1,,,,,,,,,,,,,,,,,,,,,,,
,,,,,V3_085,18,Female,2024-11-21_16h48.05.555,jersey_experiment_5_v3,2023.2.2,Win32,84.74576271,,,,,,,,,,,,,,,,1050.0776,1051.3716,1051.3717,1053.0422,return,0.306,,62.5,,,,,,FBP-PT-71.png,0.43,1.2,19,0.5,,,,,,,,,,,,,,,,,,0,56,56,18,1,,,,,,,,,,,,,,,,,,,,,,,
,,,,,V3_085,18,Female,2024-11-21_16h48.05.555,jersey_experiment_5_v3,2023.2.2,Win32,84.74576271,,,,,,,,,,,,,,,,1053.0425,1054.3364,1054.3364,1056.6424,return,1.0036,,49.86979167,,,,,,FBP-RB-71.png,0.35,1.2,46,0.5,,,,,,,,,,,,,,,,,,0,57,57,45,1,,,,,,,,,,,,,,,,,,,,,,,
,,,,,V3_085,18,Female,2024-11-21_16h48.05.555,jersey_experiment_5_v3,2023.2.2,Win32,84.74576271,,,,,,,,,,,,,,,,1056.6426,1057.9366,1057.9366,1060.0659,return,0.7879,,66.015625,,,,,,FBP-PT-91.png,0.43,1.2,29,0.5,,,,,,,,,,,,,,,,,,0,58,58,28,1,,,,,,,,,,,,,,,,,,,,,,,
,,,,,V3_085,18,Female,2024-11-21_16h48.05.555,jersey_experiment_5_v3,2023.2.2,Win32,84.74576271,,,,,,,,,,,,,,,,1060.0661,1061.6074,1061.6074,1063.0425,return,0.6508,,48.4375,,,,,,FBP-OG-71.png,0.35,1.2,31,0.75,,,,,,,,,,,,,,,,,,0,59,59,30,1,,,,,,,,,,,,,,,,,,,,,,,
,,,,,V3_085,18,Female,2024-11-21_16h48.05.555,jersey_experiment_5_v3,2023.2.2,Win32,84.74576271,,,,,,,,,,,,,,,,,,,,,,,,,,,,,,,,,,,,,,,,,,,,,,,,,,,,,,,,1063.0426,1073.2313,return,10.1823,,,,,,,,,,,,,,,,,,,
,,,,,V3_085,18,Female,2024-11-21_16h48.05.555,jersey_experiment_5_v3,2023.2.2,Win32,84.74576271,,,,,,,,,,,,,,,,,,,,,,,,,,,,,,,,,,,,,,,,,,,,,,,,,,,,,,,,,,,,,1073.2313,1077.902,1,3.3643,return,1.3007,,,,,,,,,,,,
,,,,,V3_085,18,Female,2024-11-21_16h48.05.555,jersey_experiment_5_v3,2023.2.2,Win32,84.74576271,,,,,,,,,,,,,,,,,,,,,,,,,,,,,,,,,,,,,,,,,,,,,,,,,,,,,,,,,,,,,,,,,,,,1077.902,1165.2823,I think it could be about correlation of colors to size and if you can differentiate between same size but different colors. And visa versa.,right,80.9229,,,,,,
,,,,,V3_085,18,Female,2024-11-21_16h48.05.555,jersey_experiment_5_v3,2023.2.2,Win32,84.74576271,,,,,,,,,,,,,,,,,,,,,,,,,,,,,,,,,,,,,,,,,,,,,,,,,,,,,,,,,,,,,,,,,,,,,,,,,,1165.2824,1170.6115,return,5.318,