requirements.started,requirements.stopped,key_resp_3.keys,key_resp_3.rt,key_resp_3.duration,Subject ID,Age,Gender,date,expName,psychopyVersion,OS,frameRate,instructions1.started,instructions1.stopped,key_resp.keys,key_resp.rt,key_resp.duration,example.started,example.stopped,enter_2.keys,enter_2.rt,enter_2.duration,instructions2.started,instructions2.stopped,enter_3.keys,enter_3.rt,enter_3.duration,image.started,image.stopped,slider_2.started,slider_2.stopped,next.keys,next.rt,next.duration,slider.response,trial_block_1.thisRepN,trial_block_1.thisTrialN,trial_block_1.thisN,trial_block_1.thisIndex,trial_block_1.ran,Path,Width,Height,Index,Duration,trial_block_2.thisRepN,trial_block_2.thisTrialN,trial_block_2.thisN,trial_block_2.thisIndex,trial_block_2.ran,rest_break.started,rest_break.stopped,end_break.started,end_break.stopped,key_resp_5.keys,key_resp_5.rt,key_resp_5.duration,trial_block_3.thisRepN,trial_block_3.thisTrialN,trial_block_3.thisN,trial_block_3.thisIndex,trial_block_3.ran,trial_block_4.thisRepN,trial_block_4.thisTrialN,trial_block_4.thisN,trial_block_4.thisIndex,trial_block_4.ran,questions_intro.started,questions_intro.stopped,enter_12.keys,enter_12.rt,enter_12.duration,question2.started,question2.stopped,question_doingbest.response,question_doingbest.rt,enter_15.keys,enter_15.rt,enter_15.duration,pattern.started,pattern.stopped,pattern_2.text,enter_17.keys,enter_17.rt,enter_17.duration,thankyou.started,thankyou.stopped,enter_14.keys,enter_14.rt,enter_14.duration
0.0001,19.8744,return,19.8663,,V3_026,20,F,2024-10-19_15h44.35.649,jersey_experiment_5_v3,2023.2.2,Win32,84.74576271,,,,,,,,,,,,,,,,,,,,,,,,,,,,,,,,,,,,,,,,,,,,,,,,,,,,,,,,,,,,,,,,,,,,,,,,,,,,,,
,,,,,V3_026,20,F,2024-10-19_15h44.35.649,jersey_experiment_5_v3,2023.2.2,Win32,84.74576271,19.8745,28.8697,return,8.9802,,,,,,,,,,,,,,,,,,,,,,,,,,,,,,,,,,,,,,,,,,,,,,,,,,,,,,,,,,,,,,,,,,,,,,,,,,
,,,,,V3_026,20,F,2024-10-19_15h44.35.649,jersey_experiment_5_v3,2023.2.2,Win32,84.74576271,,,,,,28.8697,33.2515,return,4.3514,,,,,,,,,,,,,,,,,,,,,,,,,,,,,,,,,,,,,,,,,,,,,,,,,,,,,,,,,,,,,,,,,,,,,
,,,,,V3_026,20,F,2024-10-19_15h44.35.649,jersey_experiment_5_v3,2023.2.2,Win32,84.74576271,,,,,,,,,,,33.2516,51.4873,return,18.2299,,,,,,,,,,,,,,,,,,,,,,,,,,,,,,,,,,,,,,,,,,,,,,,,,,,,,,,,,,,,,,,,
,,,,,V3_026,20,F,2024-10-19_15h44.35.649,jersey_experiment_5_v3,2023.2.2,Win32,84.74576271,,,,,,,,,,,,,,,,51.4893,53.0401,53.0403,61.2877,return,2.4082,,50.26041667,0,0,0,47,1,FBP-RB-17.png,0.4,1.2,48,0.75,,,,,,,,,,,,,,,,,,,,,,,,,,,,,,,,,,,,,,,,,,,,,
,,,,,V3_026,20,F,2024-10-19_15h44.35.649,jersey_experiment_5_v3,2023.2.2,Win32,84.74576271,,,,,,,,,,,,,,,,61.288,62.8406,62.8407,67.2995,return,2.424,,70.05208333,0,1,1,49,1,FBP-RB-17.png,0.45,1.2,50,0.75,,,,,,,,,,,,,,,,,,,,,,,,,,,,,,,,,,,,,,,,,,,,,
,,,,,V3_026,20,F,2024-10-19_15h44.35.649,jersey_experiment_5_v3,2023.2.2,Win32,84.74576271,,,,,,,,,,,,,,,,67.2998,68.8527,68.8527,71.6056,return,1.5089,,27.21354167,0,2,2,15,1,FBP-PT-17.png,0.35,1.2,16,0.75,,,,,,,,,,,,,,,,,,,,,,,,,,,,,,,,,,,,,,,,,,,,,
,,,,,V3_026,20,F,2024-10-19_15h44.35.649,jersey_experiment_5_v3,2023.2.2,Win32,84.74576271,,,,,,,,,,,,,,,,71.6059,73.1586,73.1587,75.0645,return,0.6383,,39.19270833,0,3,3,21,1,FBP-PT-18.png,0.37,1.2,22,0.75,,,,,,,,,,,,,,,,,,,,,,,,,,,,,,,,,,,,,,,,,,,,,
,,,,,V3_026,20,F,2024-10-19_15h44.35.649,jersey_experiment_5_v3,2023.2.2,Win32,84.74576271,,,,,,,,,,,,,,,,75.0649,76.6175,76.6176,78.2058,return,0.409,,45.44270833,0,4,4,56,1,FBP-RB-19.png,0.37,1.2,57,0.75,,,,,,,,,,,,,,,,,,,,,,,,,,,,,,,,,,,,,,,,,,,,,
,,,,,V3_026,20,F,2024-10-19_15h44.35.649,jersey_experiment_5_v3,2023.2.2,Win32,84.74576271,,,,,,,,,,,,,,,,78.2061,79.7588,79.7589,81.7119,return,0.2737,,71.35416667,0,5,5,4,1,FBP-YG-71.png,0.45,1.2,5,0.75,,,,,,,,,,,,,,,,,,,,,,,,,,,,,,,,,,,,,,,,,,,,,
,,,,,V3_026,20,F,2024-10-19_15h44.35.649,jersey_experiment_5_v3,2023.2.2,Win32,84.74576271,,,,,,,,,,,,,,,,81.7121,83.2534,83.2535,84.5472,return,0.2514,,75.91145833,0,6,6,19,1,FBP-PT-17.png,0.45,1.2,20,0.75,,,,,,,,,,,,,,,,,,,,,,,,,,,,,,,,,,,,,,,,,,,,,
,,,,,V3_026,20,F,2024-10-19_15h44.35.649,jersey_experiment_5_v3,2023.2.2,Win32,84.74576271,,,,,,,,,,,,,,,,84.5474,86.0887,86.0888,87.4062,return,0.3616,,60.41666667,0,7,7,57,1,FBP-RB-19.png,0.4,1.2,58,0.75,,,,,,,,,,,,,,,,,,,,,,,,,,,,,,,,,,,,,,,,,,,,,
,,,,,V3_026,20,F,2024-10-19_15h44.35.649,jersey_experiment_5_v3,2023.2.2,Win32,84.74576271,,,,,,,,,,,,,,,,87.4063,88.9593,88.9593,89.971,return,0.2154,,45.44270833,0,8,8,46,1,FBP-RB-17.png,0.37,1.2,47,0.75,,,,,,,,,,,,,,,,,,,,,,,,,,,,,,,,,,,,,,,,,,,,,
,,,,,V3_026,20,F,2024-10-19_15h44.35.649,jersey_experiment_5_v3,2023.2.2,Win32,84.74576271,,,,,,,,,,,,,,,,89.9713,91.2651,91.2652,92.2417,return,0.2286,,34.63541667,0,9,9,36,1,FBP-OG-18.png,0.37,1.2,37,0.5,,,,,,,,,,,,,,,,,,,,,,,,,,,,,,,,,,,,,,,,,,,,,
,,,,,V3_026,20,F,2024-10-19_15h44.35.649,jersey_experiment_5_v3,2023.2.2,Win32,84.74576271,,,,,,,,,,,,,,,,92.242,93.7947,93.7947,95.3123,return,0.7908,,47.78645833,0,10,10,7,1,FBP-YG-81.png,0.4,1.2,8,0.75,,,,,,,,,,,,,,,,,,,,,,,,,,,,,,,,,,,,,,,,,,,,,
,,,,,V3_026,20,F,2024-10-19_15h44.35.649,jersey_experiment_5_v3,2023.2.2,Win32,84.74576271,,,,,,,,,,,,,,,,95.3127,96.8653,96.8654,97.842,return,0.2284,,50.65104167,0,11,11,2,1,FBP-YG-71.png,0.4,1.2,3,0.75,,,,,,,,,,,,,,,,,,,,,,,,,,,,,,,,,,,,,,,,,,,,,
,,,,,V3_026,20,F,2024-10-19_15h44.35.649,jersey_experiment_5_v3,2023.2.2,Win32,84.74576271,,,,,,,,,,,,,,,,97.8422,99.136,99.136,100.336,return,0.2145,,26.30208333,0,12,12,35,1,FBP-OG-18.png,0.35,1.2,36,0.5,,,,,,,,,,,,,,,,,,,,,,,,,,,,,,,,,,,,,,,,,,,,,
,,,,,V3_026,20,F,2024-10-19_15h44.35.649,jersey_experiment_5_v3,2023.2.2,Win32,84.74576271,,,,,,,,,,,,,,,,100.3363,101.8892,101.8893,103.4303,return,0.3771,,70.18229167,0,13,13,59,1,FBP-RB-19.png,0.45,1.2,60,0.75,,,,,,,,,,,,,,,,,,,,,,,,,,,,,,,,,,,,,,,,,,,,,
,,,,,V3_026,20,F,2024-10-19_15h44.35.649,jersey_experiment_5_v3,2023.2.2,Win32,84.74576271,,,,,,,,,,,,,,,,103.4306,104.9834,104.9834,106.5952,return,0.2592,,51.69270833,0,14,14,11,1,FBP-YG-91.png,0.37,1.2,12,0.75,,,,,,,,,,,,,,,,,,,,,,,,,,,,,,,,,,,,,,,,,,,,,
,,,,,V3_026,20,F,2024-10-19_15h44.35.649,jersey_experiment_5_v3,2023.2.2,Win32,84.74576271,,,,,,,,,,,,,,,,106.5953,107.8893,107.8894,109.3482,return,0.1868,,74.609375,0,15,15,44,1,FBP-OG-19.png,0.45,1.2,45,0.5,,,,,,,,,,,,,,,,,,,,,,,,,,,,,,,,,,,,,,,,,,,,,
,,,,,V3_026,20,F,2024-10-19_15h44.35.649,jersey_experiment_5_v3,2023.2.2,Win32,84.74576271,,,,,,,,,,,,,,,,109.3483,110.9013,110.9013,112.6426,return,0.3219,,72.65625,0,16,16,8,1,FBP-YG-81.png,0.43,1.2,9,0.75,,,,,,,,,,,,,,,,,,,,,,,,,,,,,,,,,,,,,,,,,,,,,
,,,,,V3_026,20,F,2024-10-19_15h44.35.649,jersey_experiment_5_v3,2023.2.2,Win32,84.74576271,,,,,,,,,,,,,,,,112.6428,114.1955,114.1955,115.9719,return,0.2147,,31.38020833,0,17,17,0,1,FBP-YG-71.png,0.35,1.2,1,0.75,,,,,,,,,,,,,,,,,,,,,,,,,,,,,,,,,,,,,,,,,,,,,
,,,,,V3_026,20,F,2024-10-19_15h44.35.649,jersey_experiment_5_v3,2023.2.2,Win32,84.74576271,,,,,,,,,,,,,,,,115.9722,117.266,117.2661,119.6074,return,1.4251,,52.21354167,0,18,18,32,1,FBP-OG-17.png,0.4,1.2,33,0.5,,,,,,,,,,,,,,,,,,,,,,,,,,,,,,,,,,,,,,,,,,,,,
,,,,,V3_026,20,F,2024-10-19_15h44.35.649,jersey_experiment_5_v3,2023.2.2,Win32,84.74576271,,,,,,,,,,,,,,,,119.6077,121.1604,121.1604,122.4076,return,0.1906,,32.94270833,0,19,19,1,1,FBP-YG-71.png,0.37,1.2,2,0.75,,,,,,,,,,,,,,,,,,,,,,,,,,,,,,,,,,,,,,,,,,,,,
,,,,,V3_026,20,F,2024-10-19_15h44.35.649,jersey_experiment_5_v3,2023.2.2,Win32,84.74576271,,,,,,,,,,,,,,,,122.4077,123.9605,123.9606,125.2781,return,0.2159,,57.55208333,0,20,20,12,1,FBP-YG-91.png,0.4,1.2,13,0.75,,,,,,,,,,,,,,,,,,,,,,,,,,,,,,,,,,,,,,,,,,,,,
,,,,,V3_026,20,F,2024-10-19_15h44.35.649,jersey_experiment_5_v3,2023.2.2,Win32,84.74576271,,,,,,,,,,,,,,,,125.2784,126.8312,126.8313,127.8312,return,0.1883,,75.390625,0,21,21,9,1,FBP-YG-81.png,0.45,1.2,10,0.75,,,,,,,,,,,,,,,,,,,,,,,,,,,,,,,,,,,,,,,,,,,,,
,,,,,V3_026,20,F,2024-10-19_15h44.35.649,jersey_experiment_5_v3,2023.2.2,Win32,84.74576271,,,,,,,,,,,,,,,,127.8314,129.3843,129.3843,130.4548,return,0.1882,,63.671875,0,22,22,27,1,FBP-PT-19.png,0.4,1.2,28,0.75,,,,,,,,,,,,,,,,,,,,,,,,,,,,,,,,,,,,,,,,,,,,,
,,,,,V3_026,20,F,2024-10-19_15h44.35.649,jersey_experiment_5_v3,2023.2.2,Win32,84.74576271,,,,,,,,,,,,,,,,130.455,131.9962,131.9962,133.3609,return,0.6983,,75.91145833,0,23,23,23,1,FBP-PT-18.png,0.43,1.2,24,0.75,,,,,,,,,,,,,,,,,,,,,,,,,,,,,,,,,,,,,,,,,,,,,
,,,,,V3_026,20,F,2024-10-19_15h44.35.649,jersey_experiment_5_v3,2023.2.2,Win32,84.74576271,,,,,,,,,,,,,,,,133.3611,134.9138,134.9139,136.1844,return,0.196,,27.86458333,0,24,24,45,1,FBP-RB-17.png,0.35,1.2,46,0.75,,,,,,,,,,,,,,,,,,,,,,,,,,,,,,,,,,,,,,,,,,,,,
,,,,,V3_026,20,F,2024-10-19_15h44.35.649,jersey_experiment_5_v3,2023.2.2,Win32,84.74576271,,,,,,,,,,,,,,,,136.1847,137.7375,137.7376,139.6788,return,0.1476,,58.33333333,0,25,25,18,1,FBP-PT-17.png,0.43,1.2,19,0.75,,,,,,,,,,,,,,,,,,,,,,,,,,,,,,,,,,,,,,,,,,,,,
,,,,,V3_026,20,F,2024-10-19_15h44.35.649,jersey_experiment_5_v3,2023.2.2,Win32,84.74576271,,,,,,,,,,,,,,,,139.6789,141.2201,141.2201,142.2436,return,0.191,,20.703125,0,26,26,5,1,FBP-YG-81.png,0.35,1.2,6,0.75,,,,,,,,,,,,,,,,,,,,,,,,,,,,,,,,,,,,,,,,,,,,,
,,,,,V3_026,20,F,2024-10-19_15h44.35.649,jersey_experiment_5_v3,2023.2.2,Win32,84.74576271,,,,,,,,,,,,,,,,142.2438,143.7964,143.7964,144.6552,return,0.2426,,14.97395833,0,27,27,10,1,FBP-YG-91.png,0.35,1.2,11,0.75,,,,,,,,,,,,,,,,,,,,,,,,,,,,,,,,,,,,,,,,,,,,,
,,,,,V3_026,20,F,2024-10-19_15h44.35.649,jersey_experiment_5_v3,2023.2.2,Win32,84.74576271,,,,,,,,,,,,,,,,144.6554,146.2084,146.2084,147.2554,return,0.4599,,19.140625,0,28,28,26,1,FBP-PT-19.png,0.37,1.2,27,0.75,,,,,,,,,,,,,,,,,,,,,,,,,,,,,,,,,,,,,,,,,,,,,
,,,,,V3_026,20,F,2024-10-19_15h44.35.649,jersey_experiment_5_v3,2023.2.2,Win32,84.74576271,,,,,,,,,,,,,,,,147.2556,148.797,148.7971,149.8791,return,0.2118,,67.70833333,0,29,29,54,1,FBP-RB-18.png,0.45,1.2,55,0.75,,,,,,,,,,,,,,,,,,,,,,,,,,,,,,,,,,,,,,,,,,,,,
,,,,,V3_026,20,F,2024-10-19_15h44.35.649,jersey_experiment_5_v3,2023.2.2,Win32,84.74576271,,,,,,,,,,,,,,,,149.8793,151.1731,151.1732,152.2321,return,0.1882,,70.57291667,0,30,30,38,1,FBP-OG-18.png,0.43,1.2,39,0.5,,,,,,,,,,,,,,,,,,,,,,,,,,,,,,,,,,,,,,,,,,,,,
,,,,,V3_026,20,F,2024-10-19_15h44.35.649,jersey_experiment_5_v3,2023.2.2,Win32,84.74576271,,,,,,,,,,,,,,,,152.2324,153.5264,153.5264,154.6088,return,0.1472,,43.09895833,0,31,31,31,1,FBP-OG-17.png,0.37,1.2,32,0.5,,,,,,,,,,,,,,,,,,,,,,,,,,,,,,,,,,,,,,,,,,,,,
,,,,,V3_026,20,F,2024-10-19_15h44.35.649,jersey_experiment_5_v3,2023.2.2,Win32,84.74576271,,,,,,,,,,,,,,,,154.6089,155.9031,155.9031,156.8322,return,0.1826,,23.828125,0,32,32,30,1,FBP-OG-17.png,0.35,1.2,31,0.5,,,,,,,,,,,,,,,,,,,,,,,,,,,,,,,,,,,,,,,,,,,,,
,,,,,V3_026,20,F,2024-10-19_15h44.35.649,jersey_experiment_5_v3,2023.2.2,Win32,84.74576271,,,,,,,,,,,,,,,,156.8325,158.3854,158.3854,159.1852,return,0.1213,,37.23958333,0,33,33,16,1,FBP-PT-17.png,0.37,1.2,17,0.75,,,,,,,,,,,,,,,,,,,,,,,,,,,,,,,,,,,,,,,,,,,,,
,,,,,V3_026,20,F,2024-10-19_15h44.35.649,jersey_experiment_5_v3,2023.2.2,Win32,84.74576271,,,,,,,,,,,,,,,,159.1854,160.7266,160.7266,161.4441,return,0.0846,,12.23958333,0,34,34,25,1,FBP-PT-19.png,0.35,1.2,26,0.75,,,,,,,,,,,,,,,,,,,,,,,,,,,,,,,,,,,,,,,,,,,,,
,,,,,V3_026,20,F,2024-10-19_15h44.35.649,jersey_experiment_5_v3,2023.2.2,Win32,84.74576271,,,,,,,,,,,,,,,,161.4444,162.9977,162.9978,163.6796,return,0.1707,,17.96875,0,35,35,6,1,FBP-YG-81.png,0.37,1.2,7,0.75,,,,,,,,,,,,,,,,,,,,,,,,,,,,,,,,,,,,,,,,,,,,,
,,,,,V3_026,20,F,2024-10-19_15h44.35.649,jersey_experiment_5_v3,2023.2.2,Win32,84.74576271,,,,,,,,,,,,,,,,163.6799,164.9738,164.9738,166.0327,return,0.2532,,7.421875,0,36,36,40,1,FBP-OG-19.png,0.35,1.2,41,0.5,,,,,,,,,,,,,,,,,,,,,,,,,,,,,,,,,,,,,,,,,,,,,
,,,,,V3_026,20,F,2024-10-19_15h44.35.649,jersey_experiment_5_v3,2023.2.2,Win32,84.74576271,,,,,,,,,,,,,,,,166.0329,167.5858,167.5858,168.527,return,0.1372,,35.28645833,0,37,37,51,1,FBP-RB-18.png,0.37,1.2,52,0.75,,,,,,,,,,,,,,,,,,,,,,,,,,,,,,,,,,,,,,,,,,,,,
,,,,,V3_026,20,F,2024-10-19_15h44.35.649,jersey_experiment_5_v3,2023.2.2,Win32,84.74576271,,,,,,,,,,,,,,,,168.5272,169.8211,169.8211,170.727,return,0.1259,,63.15104167,0,38,38,34,1,FBP-OG-17.png,0.45,1.2,35,0.5,,,,,,,,,,,,,,,,,,,,,,,,,,,,,,,,,,,,,,,,,,,,,
,,,,,V3_026,20,F,2024-10-19_15h44.35.649,jersey_experiment_5_v3,2023.2.2,Win32,84.74576271,,,,,,,,,,,,,,,,170.7272,172.2683,172.2683,172.9506,return,0.1572,,65.625,0,39,39,52,1,FBP-RB-18.png,0.4,1.2,53,0.75,,,,,,,,,,,,,,,,,,,,,,,,,,,,,,,,,,,,,,,,,,,,,
,,,,,V3_026,20,F,2024-10-19_15h44.35.649,jersey_experiment_5_v3,2023.2.2,Win32,84.74576271,,,,,,,,,,,,,,,,172.9508,174.2447,174.2447,175.0449,return,0.1861,,75,0,40,40,43,1,FBP-OG-19.png,0.43,1.2,44,0.5,,,,,,,,,,,,,,,,,,,,,,,,,,,,,,,,,,,,,,,,,,,,,
,,,,,V3_026,20,F,2024-10-19_15h44.35.649,jersey_experiment_5_v3,2023.2.2,Win32,84.74576271,,,,,,,,,,,,,,,,175.0451,176.5977,176.5978,177.3272,return,0.3125,,77.60416667,0,41,41,28,1,FBP-PT-19.png,0.43,1.2,29,0.75,,,,,,,,,,,,,,,,,,,,,,,,,,,,,,,,,,,,,,,,,,,,,
,,,,,V3_026,20,F,2024-10-19_15h44.35.649,jersey_experiment_5_v3,2023.2.2,Win32,84.74576271,,,,,,,,,,,,,,,,177.3275,178.8803,178.8804,179.9861,return,0.2045,,23.4375,0,42,42,20,1,FBP-PT-18.png,0.35,1.2,21,0.75,,,,,,,,,,,,,,,,,,,,,,,,,,,,,,,,,,,,,,,,,,,,,
,,,,,V3_026,20,F,2024-10-19_15h44.35.649,jersey_experiment_5_v3,2023.2.2,Win32,84.74576271,,,,,,,,,,,,,,,,179.9863,181.2804,181.2804,182.4332,return,0.2524,,80.20833333,0,43,43,39,1,FBP-OG-18.png,0.45,1.2,40,0.5,,,,,,,,,,,,,,,,,,,,,,,,,,,,,,,,,,,,,,,,,,,,,
,,,,,V3_026,20,F,2024-10-19_15h44.35.649,jersey_experiment_5_v3,2023.2.2,Win32,84.74576271,,,,,,,,,,,,,,,,182.4334,183.7274,183.7274,185.057,return,0.1706,,61.45833333,0,44,44,42,1,FBP-OG-19.png,0.4,1.2,43,0.5,,,,,,,,,,,,,,,,,,,,,,,,,,,,,,,,,,,,,,,,,,,,,
,,,,,V3_026,20,F,2024-10-19_15h44.35.649,jersey_experiment_5_v3,2023.2.2,Win32,84.74576271,,,,,,,,,,,,,,,,185.0574,186.61,186.6101,187.5275,return,0.1648,,70.44270833,0,45,45,58,1,FBP-RB-19.png,0.43,1.2,59,0.75,,,,,,,,,,,,,,,,,,,,,,,,,,,,,,,,,,,,,,,,,,,,,
,,,,,V3_026,20,F,2024-10-19_15h44.35.649,jersey_experiment_5_v3,2023.2.2,Win32,84.74576271,,,,,,,,,,,,,,,,187.5278,188.8219,188.8219,189.6335,return,0.1188,,67.578125,0,46,46,37,1,FBP-OG-18.png,0.4,1.2,38,0.5,,,,,,,,,,,,,,,,,,,,,,,,,,,,,,,,,,,,,,,,,,,,,
,,,,,V3_026,20,F,2024-10-19_15h44.35.649,jersey_experiment_5_v3,2023.2.2,Win32,84.74576271,,,,,,,,,,,,,,,,189.6338,191.1865,191.1866,192.1513,return,0.155,,79.296875,0,47,47,48,1,FBP-RB-17.png,0.43,1.2,49,0.75,,,,,,,,,,,,,,,,,,,,,,,,,,,,,,,,,,,,,,,,,,,,,
,,,,,V3_026,20,F,2024-10-19_15h44.35.649,jersey_experiment_5_v3,2023.2.2,Win32,84.74576271,,,,,,,,,,,,,,,,192.1516,193.7043,193.7043,194.6573,return,0.2013,,27.47395833,0,48,48,55,1,FBP-RB-19.png,0.35,1.2,56,0.75,,,,,,,,,,,,,,,,,,,,,,,,,,,,,,,,,,,,,,,,,,,,,
,,,,,V3_026,20,F,2024-10-19_15h44.35.649,jersey_experiment_5_v3,2023.2.2,Win32,84.74576271,,,,,,,,,,,,,,,,194.6574,196.2103,196.2103,197.7279,return,1.0154,,59.50520833,0,49,49,17,1,FBP-PT-17.png,0.4,1.2,18,0.75,,,,,,,,,,,,,,,,,,,,,,,,,,,,,,,,,,,,,,,,,,,,,
,,,,,V3_026,20,F,2024-10-19_15h44.35.649,jersey_experiment_5_v3,2023.2.2,Win32,84.74576271,,,,,,,,,,,,,,,,197.7281,199.281,199.281,200.2221,return,0.0906,,61.58854167,0,50,50,13,1,FBP-YG-91.png,0.43,1.2,14,0.75,,,,,,,,,,,,,,,,,,,,,,,,,,,,,,,,,,,,,,,,,,,,,
,,,,,V3_026,20,F,2024-10-19_15h44.35.649,jersey_experiment_5_v3,2023.2.2,Win32,84.74576271,,,,,,,,,,,,,,,,200.2224,201.5163,201.5163,202.1987,return,0.1099,,39.0625,0,51,51,41,1,FBP-OG-19.png,0.37,1.2,42,0.5,,,,,,,,,,,,,,,,,,,,,,,,,,,,,,,,,,,,,,,,,,,,,
,,,,,V3_026,20,F,2024-10-19_15h44.35.649,jersey_experiment_5_v3,2023.2.2,Win32,84.74576271,,,,,,,,,,,,,,,,202.1988,203.7515,203.7515,204.5164,return,0.1985,,56.90104167,0,52,52,24,1,FBP-PT-18.png,0.45,1.2,25,0.75,,,,,,,,,,,,,,,,,,,,,,,,,,,,,,,,,,,,,,,,,,,,,
,,,,,V3_026,20,F,2024-10-19_15h44.35.649,jersey_experiment_5_v3,2023.2.2,Win32,84.74576271,,,,,,,,,,,,,,,,204.5166,206.0695,206.0695,207.0462,return,0.1774,,27.734375,0,53,53,50,1,FBP-RB-18.png,0.35,1.2,51,0.75,,,,,,,,,,,,,,,,,,,,,,,,,,,,,,,,,,,,,,,,,,,,,
,,,,,V3_026,20,F,2024-10-19_15h44.35.649,jersey_experiment_5_v3,2023.2.2,Win32,84.74576271,,,,,,,,,,,,,,,,207.0464,208.5991,208.5992,209.4107,return,0.2265,,72.00520833,0,54,54,14,1,FBP-YG-91.png,0.45,1.2,15,0.75,,,,,,,,,,,,,,,,,,,,,,,,,,,,,,,,,,,,,,,,,,,,,
,,,,,V3_026,20,F,2024-10-19_15h44.35.649,jersey_experiment_5_v3,2023.2.2,Win32,84.74576271,,,,,,,,,,,,,,,,209.411,210.9639,210.9639,211.8932,return,0.1805,,76.69270833,0,55,55,29,1,FBP-PT-19.png,0.45,1.2,30,0.75,,,,,,,,,,,,,,,,,,,,,,,,,,,,,,,,,,,,,,,,,,,,,
,,,,,V3_026,20,F,2024-10-19_15h44.35.649,jersey_experiment_5_v3,2023.2.2,Win32,84.74576271,,,,,,,,,,,,,,,,211.8934,213.4465,213.4465,214.3873,return,0.355,,78.25520833,0,56,56,53,1,FBP-RB-18.png,0.43,1.2,54,0.75,,,,,,,,,,,,,,,,,,,,,,,,,,,,,,,,,,,,,,,,,,,,,
,,,,,V3_026,20,F,2024-10-19_15h44.35.649,jersey_experiment_5_v3,2023.2.2,Win32,84.74576271,,,,,,,,,,,,,,,,214.3877,215.9405,215.9405,216.6934,return,0.2598,,77.60416667,0,57,57,3,1,FBP-YG-71.png,0.43,1.2,4,0.75,,,,,,,,,,,,,,,,,,,,,,,,,,,,,,,,,,,,,,,,,,,,,
,,,,,V3_026,20,F,2024-10-19_15h44.35.649,jersey_experiment_5_v3,2023.2.2,Win32,84.74576271,,,,,,,,,,,,,,,,216.6936,217.9873,217.9873,219.0229,return,0.1843,,76.953125,0,58,58,33,1,FBP-OG-17.png,0.43,1.2,34,0.5,,,,,,,,,,,,,,,,,,,,,,,,,,,,,,,,,,,,,,,,,,,,,
,,,,,V3_026,20,F,2024-10-19_15h44.35.649,jersey_experiment_5_v3,2023.2.2,Win32,84.74576271,,,,,,,,,,,,,,,,219.0231,220.5759,220.5759,221.6817,return,0.1813,,50.390625,0,59,59,22,1,FBP-PT-18.png,0.4,1.2,23,0.75,,,,,,,,,,,,,,,,,,,,,,,,,,,,,,,,,,,,,,,,,,,,,
,,,,,V3_026,20,F,2024-10-19_15h44.35.649,jersey_experiment_5_v3,2023.2.2,Win32,84.74576271,,,,,,,,,,,,,,,,221.683,223.2348,223.2349,224.2701,return,0.2424,,11.328125,,,,,,FBP-YG-17.png,0.35,1.2,1,0.75,0,0,0,0,1,,,,,,,,,,,,,,,,,,,,,,,,,,,,,,,,,,,,,,,,
,,,,,V3_026,20,F,2024-10-19_15h44.35.649,jersey_experiment_5_v3,2023.2.2,Win32,84.74576271,,,,,,,,,,,,,,,,224.2704,225.5642,225.5642,227.188,return,0.1896,,54.16666667,,,,,,FBP-OG-81.png,0.4,1.2,38,0.5,0,1,1,37,1,,,,,,,,,,,,,,,,,,,,,,,,,,,,,,,,,,,,,,,,
,,,,,V3_026,20,F,2024-10-19_15h44.35.649,jersey_experiment_5_v3,2023.2.2,Win32,84.74576271,,,,,,,,,,,,,,,,227.1882,228.7411,228.7411,229.7762,return,0.1679,,71.35416667,,,,,,FBP-YG-17.png,0.45,1.2,5,0.75,0,2,2,4,1,,,,,,,,,,,,,,,,,,,,,,,,,,,,,,,,,,,,,,,,
,,,,,V3_026,20,F,2024-10-19_15h44.35.649,jersey_experiment_5_v3,2023.2.2,Win32,84.74576271,,,,,,,,,,,,,,,,229.7765,231.0706,231.0706,231.9295,return,0.0942,,78.125,,,,,,FBP-OG-91.png,0.43,1.2,44,0.5,0,3,3,43,1,,,,,,,,,,,,,,,,,,,,,,,,,,,,,,,,,,,,,,,,
,,,,,V3_026,20,F,2024-10-19_15h44.35.649,jersey_experiment_5_v3,2023.2.2,Win32,84.74576271,,,,,,,,,,,,,,,,231.9297,233.4823,233.4823,234.4939,return,0.1104,,6.25,,,,,,FBP-PT-71.png,0.35,1.2,16,0.75,0,4,4,15,1,,,,,,,,,,,,,,,,,,,,,,,,,,,,,,,,,,,,,,,,
,,,,,V3_026,20,F,2024-10-19_15h44.35.649,jersey_experiment_5_v3,2023.2.2,Win32,84.74576271,,,,,,,,,,,,,,,,234.4942,236.0472,236.0472,237.0705,return,0.075,,65.75520833,,,,,,FBP-YG-19.png,0.45,1.2,15,0.75,0,5,5,14,1,,,,,,,,,,,,,,,,,,,,,,,,,,,,,,,,,,,,,,,,
,,,,,V3_026,20,F,2024-10-19_15h44.35.649,jersey_experiment_5_v3,2023.2.2,Win32,84.74576271,,,,,,,,,,,,,,,,237.0708,238.6237,238.6238,239.6354,return,0.0939,,78.125,,,,,,FBP-RB-91.png,0.45,1.2,60,0.75,0,6,6,59,1,,,,,,,,,,,,,,,,,,,,,,,,,,,,,,,,,,,,,,,,
,,,,,V3_026,20,F,2024-10-19_15h44.35.649,jersey_experiment_5_v3,2023.2.2,Win32,84.74576271,,,,,,,,,,,,,,,,239.6356,240.9294,240.9295,242.1178,return,0.236,,86.84895833,,,,,,FBP-OG-91.png,0.45,1.2,45,0.5,0,7,7,44,1,,,,,,,,,,,,,,,,,,,,,,,,,,,,,,,,,,,,,,,,
,,,,,V3_026,20,F,2024-10-19_15h44.35.649,jersey_experiment_5_v3,2023.2.2,Win32,84.74576271,,,,,,,,,,,,,,,,242.1181,243.6708,243.6708,244.6003,return,0.2281,,88.15104167,,,,,,FBP-RB-81.png,0.45,1.2,55,0.75,0,8,8,54,1,,,,,,,,,,,,,,,,,,,,,,,,,,,,,,,,,,,,,,,,
,,,,,V3_026,20,F,2024-10-19_15h44.35.649,jersey_experiment_5_v3,2023.2.2,Win32,84.74576271,,,,,,,,,,,,,,,,244.6005,246.1533,246.1533,247.5887,return,0.4262,,83.85416667,,,,,,FBP-RB-91.png,0.43,1.2,59,0.75,0,9,9,58,1,,,,,,,,,,,,,,,,,,,,,,,,,,,,,,,,,,,,,,,,
,,,,,V3_026,20,F,2024-10-19_15h44.35.649,jersey_experiment_5_v3,2023.2.2,Win32,84.74576271,,,,,,,,,,,,,,,,247.589,248.8828,248.8829,250.471,return,0.5025,,19.79166667,,,,,,FBP-OG-81.png,0.35,1.2,36,0.5,0,10,10,35,1,,,,,,,,,,,,,,,,,,,,,,,,,,,,,,,,,,,,,,,,
,,,,,V3_026,20,F,2024-10-19_15h44.35.649,jersey_experiment_5_v3,2023.2.2,Win32,84.74576271,,,,,,,,,,,,,,,,250.4712,252.024,252.0241,252.777,return,0.2434,,32.03125,,,,,,FBP-YG-18.png,0.35,1.2,6,0.75,0,11,11,5,1,,,,,,,,,,,,,,,,,,,,,,,,,,,,,,,,,,,,,,,,
,,,,,V3_026,20,F,2024-10-19_15h44.35.649,jersey_experiment_5_v3,2023.2.2,Win32,84.74576271,,,,,,,,,,,,,,,,252.7773,254.3302,254.3302,255.0007,return,0.164,,64.32291667,,,,,,FBP-YG-19.png,0.43,1.2,14,0.75,0,12,12,13,1,,,,,,,,,,,,,,,,,,,,,,,,,,,,,,,,,,,,,,,,
,,,,,V3_026,20,F,2024-10-19_15h44.35.649,jersey_experiment_5_v3,2023.2.2,Win32,84.74576271,,,,,,,,,,,,,,,,255.001,256.5538,256.5538,257.3418,return,0.2439,,35.02604167,,,,,,FBP-YG-18.png,0.37,1.2,7,0.75,0,13,13,6,1,,,,,,,,,,,,,,,,,,,,,,,,,,,,,,,,,,,,,,,,
,,,,,V3_026,20,F,2024-10-19_15h44.35.649,jersey_experiment_5_v3,2023.2.2,Win32,84.74576271,,,,,,,,,,,,,,,,257.3421,258.6359,258.636,259.9185,return,0.2083,,33.59375,,,,,,FBP-OG-91.png,0.37,1.2,42,0.5,0,14,14,41,1,,,,,,,,,,,,,,,,,,,,,,,,,,,,,,,,,,,,,,,,
,,,,,V3_026,20,F,2024-10-19_15h44.35.649,jersey_experiment_5_v3,2023.2.2,Win32,84.74576271,,,,,,,,,,,,,,,,259.9188,261.4714,261.4716,262.5302,return,0.1417,,76.43229167,,,,,,FBP-PT-71.png,0.45,1.2,20,0.75,0,15,15,19,1,,,,,,,,,,,,,,,,,,,,,,,,,,,,,,,,,,,,,,,,
,,,,,V3_026,20,F,2024-10-19_15h44.35.649,jersey_experiment_5_v3,2023.2.2,Win32,84.74576271,,,,,,,,,,,,,,,,262.5304,264.0715,264.0715,265.3186,return,0.1413,,64.19270833,,,,,,FBP-RB-81.png,0.4,1.2,53,0.75,0,16,16,52,1,,,,,,,,,,,,,,,,,,,,,,,,,,,,,,,,,,,,,,,,
,,,,,V3_026,20,F,2024-10-19_15h44.35.649,jersey_experiment_5_v3,2023.2.2,Win32,84.74576271,,,,,,,,,,,,,,,,265.3188,266.8717,266.8717,267.6717,return,0.1988,,70.57291667,,,,,,FBP-RB-71.png,0.43,1.2,49,0.75,0,17,17,48,1,,,,,,,,,,,,,,,,,,,,,,,,,,,,,,,,,,,,,,,,
,,,,,V3_026,20,F,2024-10-19_15h44.35.649,jersey_experiment_5_v3,2023.2.2,Win32,84.74576271,,,,,,,,,,,,,,,,267.6721,268.9657,268.9658,270.5896,return,0.7229,,45.05208333,,,,,,FBP-OG-91.png,0.35,1.2,41,0.5,0,18,18,40,1,,,,,,,,,,,,,,,,,,,,,,,,,,,,,,,,,,,,,,,,
,,,,,V3_026,20,F,2024-10-19_15h44.35.649,jersey_experiment_5_v3,2023.2.2,Win32,84.74576271,,,,,,,,,,,,,,,,270.5899,271.8836,271.8836,272.9777,return,0.0266,,54.6875,,,,,,FBP-OG-71.png,0.4,1.2,33,0.5,0,19,19,32,1,,,,,,,,,,,,,,,,,,,,,,,,,,,,,,,,,,,,,,,,
,,,,,V3_026,20,F,2024-10-19_15h44.35.649,jersey_experiment_5_v3,2023.2.2,Win32,84.74576271,,,,,,,,,,,,,,,,272.978,274.2719,274.272,275.2014,return,0.1546,,45.44270833,,,,,,FBP-OG-71.png,0.35,1.2,31,0.5,0,20,20,30,1,,,,,,,,,,,,,,,,,,,,,,,,,,,,,,,,,,,,,,,,
,,,,,V3_026,20,F,2024-10-19_15h44.35.649,jersey_experiment_5_v3,2023.2.2,Win32,84.74576271,,,,,,,,,,,,,,,,275.2017,276.7544,276.7544,277.4603,return,0.1047,,53.125,,,,,,FBP-YG-17.png,0.4,1.2,3,0.75,0,21,21,2,1,,,,,,,,,,,,,,,,,,,,,,,,,,,,,,,,,,,,,,,,
,,,,,V3_026,20,F,2024-10-19_15h44.35.649,jersey_experiment_5_v3,2023.2.2,Win32,84.74576271,,,,,,,,,,,,,,,,277.4605,279.0134,279.0135,280.6488,return,0.2331,,63.671875,,,,,,FBP-PT-81.png,0.45,1.2,25,0.75,0,22,22,24,1,,,,,,,,,,,,,,,,,,,,,,,,,,,,,,,,,,,,,,,,
,,,,,V3_026,20,F,2024-10-19_15h44.35.649,jersey_experiment_5_v3,2023.2.2,Win32,84.74576271,,,,,,,,,,,,,,,,280.6491,282.2018,282.2018,283.2138,return,0.2177,,27.99479167,,,,,,FBP-RB-81.png,0.35,1.2,51,0.75,0,23,23,50,1,,,,,,,,,,,,,,,,,,,,,,,,,,,,,,,,,,,,,,,,
,,,,,V3_026,20,F,2024-10-19_15h44.35.649,jersey_experiment_5_v3,2023.2.2,Win32,84.74576271,,,,,,,,,,,,,,,,283.214,284.7664,284.7665,285.9429,return,0.1156,,68.22916667,,,,,,FBP-RB-91.png,0.4,1.2,58,0.75,0,24,24,57,1,,,,,,,,,,,,,,,,,,,,,,,,,,,,,,,,,,,,,,,,
,,,,,V3_026,20,F,2024-10-19_15h44.35.649,jersey_experiment_5_v3,2023.2.2,Win32,84.74576271,,,,,,,,,,,,,,,,285.943,287.4961,287.4961,288.5196,return,0.1647,,21.74479167,,,,,,FBP-PT-81.png,0.35,1.2,21,0.75,0,25,25,20,1,,,,,,,,,,,,,,,,,,,,,,,,,,,,,,,,,,,,,,,,
,,,,,V3_026,20,F,2024-10-19_15h44.35.649,jersey_experiment_5_v3,2023.2.2,Win32,84.74576271,,,,,,,,,,,,,,,,288.52,289.8137,289.8137,290.9432,return,0.1123,,70.05208333,,,,,,FBP-OG-81.png,0.43,1.2,39,0.5,0,26,26,38,1,,,,,,,,,,,,,,,,,,,,,,,,,,,,,,,,,,,,,,,,
,,,,,V3_026,20,F,2024-10-19_15h44.35.649,jersey_experiment_5_v3,2023.2.2,Win32,84.74576271,,,,,,,,,,,,,,,,290.9434,292.4962,292.4963,293.5079,return,0.144,,26.04166667,,,,,,FBP-YG-19.png,0.35,1.2,11,0.75,0,27,27,10,1,,,,,,,,,,,,,,,,,,,,,,,,,,,,,,,,,,,,,,,,
,,,,,V3_026,20,F,2024-10-19_15h44.35.649,jersey_experiment_5_v3,2023.2.2,Win32,84.74576271,,,,,,,,,,,,,,,,293.5082,295.0608,295.0608,295.7787,return,0.4,,26.04166667,,,,,,FBP-YG-17.png,0.37,1.2,2,0.75,0,28,28,1,1,,,,,,,,,,,,,,,,,,,,,,,,,,,,,,,,,,,,,,,,
,,,,,V3_026,20,F,2024-10-19_15h44.35.649,jersey_experiment_5_v3,2023.2.2,Win32,84.74576271,,,,,,,,,,,,,,,,295.7789,297.3317,297.3317,298.5671,return,0.3166,,69.01041667,,,,,,FBP-YG-18.png,0.4,1.2,8,0.75,0,29,29,7,1,,,,,,,,,,,,,,,,,,,,,,,,,,,,,,,,,,,,,,,,
,,,,,V3_026,20,F,2024-10-19_15h44.35.649,jersey_experiment_5_v3,2023.2.2,Win32,84.74576271,,,,,,,,,,,,,,,,298.5672,300.12,300.1201,301.2494,return,0.1228,,67.70833333,,,,,,FBP-PT-91.png,0.4,1.2,28,0.75,0,30,30,27,1,,,,,,,,,,,,,,,,,,,,,,,,,,,,,,,,,,,,,,,,
,,,,,V3_026,20,F,2024-10-19_15h44.35.649,jersey_experiment_5_v3,2023.2.2,Win32,84.74576271,,,,,,,,,,,,,,,,301.2495,302.8025,302.8026,303.7671,return,0.1178,,73.95833333,,,,,,FBP-PT-71.png,0.43,1.2,19,0.75,0,31,31,18,1,,,,,,,,,,,,,,,,,,,,,,,,,,,,,,,,,,,,,,,,
,,,,,V3_026,20,F,2024-10-19_15h44.35.649,jersey_experiment_5_v3,2023.2.2,Win32,84.74576271,,,,,,,,,,,,,,,,303.7673,305.3201,305.3202,306.3672,return,0.1367,,69.01041667,,,,,,FBP-PT-91.png,0.37,1.2,27,0.75,0,32,32,26,1,,,,,,,,,,,,,,,,,,,,,,,,,,,,,,,,,,,,,,,,
,,,,,V3_026,20,F,2024-10-19_15h44.35.649,jersey_experiment_5_v3,2023.2.2,Win32,84.74576271,,,,,,,,,,,,,,,,306.3674,307.6614,307.6614,308.7909,return,0.1421,,59.50520833,,,,,,FBP-OG-81.png,0.37,1.2,37,0.5,0,33,33,36,1,,,,,,,,,,,,,,,,,,,,,,,,,,,,,,,,,,,,,,,,
,,,,,V3_026,20,F,2024-10-19_15h44.35.649,jersey_experiment_5_v3,2023.2.2,Win32,84.74576271,,,,,,,,,,,,,,,,308.7911,310.3441,310.3441,311.2969,return,0.2489,,67.83854167,,,,,,FBP-YG-18.png,0.43,1.2,9,0.75,0,34,34,8,1,,,,,,,,,,,,,,,,,,,,,,,,,,,,,,,,,,,,,,,,
,,,,,V3_026,20,F,2024-10-19_15h44.35.649,jersey_experiment_5_v3,2023.2.2,Win32,84.74576271,,,,,,,,,,,,,,,,311.2971,312.8502,312.8502,313.6969,return,0.1705,,76.69270833,,,,,,FBP-PT-81.png,0.43,1.2,24,0.75,0,35,35,23,1,,,,,,,,,,,,,,,,,,,,,,,,,,,,,,,,,,,,,,,,
,,,,,V3_026,20,F,2024-10-19_15h44.35.649,jersey_experiment_5_v3,2023.2.2,Win32,84.74576271,,,,,,,,,,,,,,,,313.6971,315.25,315.2501,316.2735,return,0.4506,,58.203125,,,,,,FBP-RB-81.png,0.37,1.2,52,0.75,0,36,36,51,1,,,,,,,,,,,,,,,,,,,,,,,,,,,,,,,,,,,,,,,,
,,,,,V3_026,20,F,2024-10-19_15h44.35.649,jersey_experiment_5_v3,2023.2.2,Win32,84.74576271,,,,,,,,,,,,,,,,316.2736,317.5677,317.5677,318.7558,return,0.4494,,65.10416667,,,,,,FBP-OG-91.png,0.4,1.2,43,0.5,0,37,37,42,1,,,,,,,,,,,,,,,,,,,,,,,,,,,,,,,,,,,,,,,,
,,,,,V3_026,20,F,2024-10-19_15h44.35.649,jersey_experiment_5_v3,2023.2.2,Win32,84.74576271,,,,,,,,,,,,,,,,318.7561,320.3088,320.3089,321.0618,return,0.1891,,75.52083333,,,,,,FBP-RB-81.png,0.43,1.2,54,0.75,0,38,38,53,1,,,,,,,,,,,,,,,,,,,,,,,,,,,,,,,,,,,,,,,,
,,,,,V3_026,20,F,2024-10-19_15h44.35.649,jersey_experiment_5_v3,2023.2.2,Win32,84.74576271,,,,,,,,,,,,,,,,321.062,322.6149,322.615,323.6973,return,0.2404,,61.328125,,,,,,FBP-PT-81.png,0.4,1.2,23,0.75,0,39,39,22,1,,,,,,,,,,,,,,,,,,,,,,,,,,,,,,,,,,,,,,,,
,,,,,V3_026,20,F,2024-10-19_15h44.35.649,jersey_experiment_5_v3,2023.2.2,Win32,84.74576271,,,,,,,,,,,,,,,,323.6974,324.9914,324.9914,326.0386,return,0.1414,,46.09375,,,,,,FBP-OG-71.png,0.37,1.2,32,0.5,0,40,40,31,1,,,,,,,,,,,,,,,,,,,,,,,,,,,,,,,,,,,,,,,,
,,,,,V3_026,20,F,2024-10-19_15h44.35.649,jersey_experiment_5_v3,2023.2.2,Win32,84.74576271,,,,,,,,,,,,,,,,326.0387,327.5917,327.5917,328.5914,return,0.1247,,65.10416667,,,,,,FBP-PT-91.png,0.45,1.2,30,0.75,0,41,41,29,1,,,,,,,,,,,,,,,,,,,,,,,,,,,,,,,,,,,,,,,,
,,,,,V3_026,20,F,2024-10-19_15h44.35.649,jersey_experiment_5_v3,2023.2.2,Win32,84.74576271,,,,,,,,,,,,,,,,328.5917,330.133,330.1331,330.9328,return,0.1334,,53.125,,,,,,FBP-YG-19.png,0.4,1.2,13,0.75,0,42,42,12,1,,,,,,,,,,,,,,,,,,,,,,,,,,,,,,,,,,,,,,,,
,,,,,V3_026,20,F,2024-10-19_15h44.35.649,jersey_experiment_5_v3,2023.2.2,Win32,84.74576271,,,,,,,,,,,,,,,,330.933,332.4859,332.4859,333.0741,return,0.1808,,59.11458333,,,,,,FBP-YG-17.png,0.43,1.2,4,0.75,0,43,43,3,1,,,,,,,,,,,,,,,,,,,,,,,,,,,,,,,,,,,,,,,,
,,,,,V3_026,20,F,2024-10-19_15h44.35.649,jersey_experiment_5_v3,2023.2.2,Win32,84.74576271,,,,,,,,,,,,,,,,333.0742,334.6271,334.6271,335.5684,return,0.2063,,55.59895833,,,,,,FBP-PT-81.png,0.37,1.2,22,0.75,0,44,44,21,1,,,,,,,,,,,,,,,,,,,,,,,,,,,,,,,,,,,,,,,,
,,,,,V3_026,20,F,2024-10-19_15h44.35.649,jersey_experiment_5_v3,2023.2.2,Win32,84.74576271,,,,,,,,,,,,,,,,335.5687,337.1213,337.1214,340.1802,return,0.1571,,57.03125,,,,,,FBP-RB-71.png,0.37,1.2,47,0.75,0,45,45,46,1,,,,,,,,,,,,,,,,,,,,,,,,,,,,,,,,,,,,,,,,
,,,,,V3_026,20,F,2024-10-19_15h44.35.649,jersey_experiment_5_v3,2023.2.2,Win32,84.74576271,,,,,,,,,,,,,,,,340.1804,341.7334,341.7334,342.8862,return,0.2272,,50.78125,,,,,,FBP-YG-19.png,0.37,1.2,12,0.75,0,46,46,11,1,,,,,,,,,,,,,,,,,,,,,,,,,,,,,,,,,,,,,,,,
,,,,,V3_026,20,F,2024-10-19_15h44.35.649,jersey_experiment_5_v3,2023.2.2,Win32,84.74576271,,,,,,,,,,,,,,,,342.8864,344.1803,344.1803,345.0862,return,0.1496,,71.22395833,,,,,,FBP-OG-71.png,0.45,1.2,35,0.5,0,47,47,34,1,,,,,,,,,,,,,,,,,,,,,,,,,,,,,,,,,,,,,,,,
,,,,,V3_026,20,F,2024-10-19_15h44.35.649,jersey_experiment_5_v3,2023.2.2,Win32,84.74576271,,,,,,,,,,,,,,,,345.0865,346.6393,346.6393,347.3335,return,0.2355,,70.96354167,,,,,,FBP-PT-71.png,0.4,1.2,18,0.75,0,48,48,17,1,,,,,,,,,,,,,,,,,,,,,,,,,,,,,,,,,,,,,,,,
,,,,,V3_026,20,F,2024-10-19_15h44.35.649,jersey_experiment_5_v3,2023.2.2,Win32,84.74576271,,,,,,,,,,,,,,,,347.3337,348.8865,348.8866,349.4276,return,0.2266,,67.1875,,,,,,FBP-RB-71.png,0.35,1.2,46,0.75,0,49,49,45,1,,,,,,,,,,,,,,,,,,,,,,,,,,,,,,,,,,,,,,,,
,,,,,V3_026,20,F,2024-10-19_15h44.35.649,jersey_experiment_5_v3,2023.2.2,Win32,84.74576271,,,,,,,,,,,,,,,,349.4279,350.7219,350.7219,352.4514,return,1.0623,,77.34375,,,,,,FBP-OG-81.png,0.45,1.2,40,0.5,0,50,50,39,1,,,,,,,,,,,,,,,,,,,,,,,,,,,,,,,,,,,,,,,,
,,,,,V3_026,20,F,2024-10-19_15h44.35.649,jersey_experiment_5_v3,2023.2.2,Win32,84.74576271,,,,,,,,,,,,,,,,352.4516,354.0043,354.0044,354.8867,return,0.1428,,80.59895833,,,,,,FBP-YG-18.png,0.45,1.2,10,0.75,0,51,51,9,1,,,,,,,,,,,,,,,,,,,,,,,,,,,,,,,,,,,,,,,,
,,,,,V3_026,20,F,2024-10-19_15h44.35.649,jersey_experiment_5_v3,2023.2.2,Win32,84.74576271,,,,,,,,,,,,,,,,354.8869,356.4397,356.4398,357.3103,return,0.2178,,47.39583333,,,,,,FBP-PT-91.png,0.35,1.2,26,0.75,0,52,52,25,1,,,,,,,,,,,,,,,,,,,,,,,,,,,,,,,,,,,,,,,,
,,,,,V3_026,20,F,2024-10-19_15h44.35.649,jersey_experiment_5_v3,2023.2.2,Win32,84.74576271,,,,,,,,,,,,,,,,357.3105,358.8633,358.8633,359.3456,return,0.2168,,40.88541667,,,,,,FBP-PT-71.png,0.37,1.2,17,0.75,0,53,53,16,1,,,,,,,,,,,,,,,,,,,,,,,,,,,,,,,,,,,,,,,,
,,,,,V3_026,20,F,2024-10-19_15h44.35.649,jersey_experiment_5_v3,2023.2.2,Win32,84.74576271,,,,,,,,,,,,,,,,359.3458,360.8871,360.8871,361.734,return,0.1095,,44.40104167,,,,,,FBP-RB-91.png,0.37,1.2,57,0.75,0,54,54,56,1,,,,,,,,,,,,,,,,,,,,,,,,,,,,,,,,,,,,,,,,
,,,,,V3_026,20,F,2024-10-19_15h44.35.649,jersey_experiment_5_v3,2023.2.2,Win32,84.74576271,,,,,,,,,,,,,,,,361.7344,363.2871,363.2871,363.9223,return,0.1573,,62.890625,,,,,,FBP-PT-91.png,0.43,1.2,29,0.75,0,55,55,28,1,,,,,,,,,,,,,,,,,,,,,,,,,,,,,,,,,,,,,,,,
,,,,,V3_026,20,F,2024-10-19_15h44.35.649,jersey_experiment_5_v3,2023.2.2,Win32,84.74576271,,,,,,,,,,,,,,,,363.9225,365.4754,365.4754,367.0635,return,1.0122,,76.82291667,,,,,,FBP-RB-71.png,0.45,1.2,50,0.75,0,56,56,49,1,,,,,,,,,,,,,,,,,,,,,,,,,,,,,,,,,,,,,,,,
,,,,,V3_026,20,F,2024-10-19_15h44.35.649,jersey_experiment_5_v3,2023.2.2,Win32,84.74576271,,,,,,,,,,,,,,,,367.0638,368.3577,368.3577,369.3931,return,0.251,,77.60416667,,,,,,FBP-OG-71.png,0.43,1.2,34,0.5,0,57,57,33,1,,,,,,,,,,,,,,,,,,,,,,,,,,,,,,,,,,,,,,,,
,,,,,V3_026,20,F,2024-10-19_15h44.35.649,jersey_experiment_5_v3,2023.2.2,Win32,84.74576271,,,,,,,,,,,,,,,,369.3934,370.9461,370.9461,371.9226,return,0.1331,,41.53645833,,,,,,FBP-RB-91.png,0.35,1.2,56,0.75,0,58,58,55,1,,,,,,,,,,,,,,,,,,,,,,,,,,,,,,,,,,,,,,,,
,,,,,V3_026,20,F,2024-10-19_15h44.35.649,jersey_experiment_5_v3,2023.2.2,Win32,84.74576271,,,,,,,,,,,,,,,,371.9229,373.4756,373.4756,374.0052,return,0.2371,,46.61458333,,,,,,FBP-RB-71.png,0.4,1.2,48,0.75,0,59,59,47,1,,,,,,,,,,,,,,,,,,,,,,,,,,,,,,,,,,,,,,,,
,,,,,V3_026,20,F,2024-10-19_15h44.35.649,jersey_experiment_5_v3,2023.2.2,Win32,84.74576271,,,,,,,,,,,,,,,,,,,,,,,,,,,,,,,,,,,,,,,374.0053,493.9979,,,,,,,,,,,,,,,,,,,,,,,,,,,,,,,,,,,,,,
,,,,,V3_026,20,F,2024-10-19_15h44.35.649,jersey_experiment_5_v3,2023.2.2,Win32,84.74576271,,,,,,,,,,,,,,,,,,,,,,,,,,,,,,,,,,,,,,,,,493.9981,498.3275,return,4.3205,,,,,,,,,,,,,,,,,,,,,,,,,,,,,,,,,,
,,,,,V3_026,20,F,2024-10-19_15h44.35.649,jersey_experiment_5_v3,2023.2.2,Win32,84.74576271,,,,,,,,,,,,,,,,498.3287,499.6214,499.6215,500.9274,return,0.1719,,50.13020833,,,,,,FBP-YG-71.png,0.4,1.2,3,0.5,,,,,,,,,,,,,0,0,0,2,1,,,,,,,,,,,,,,,,,,,,,,,,,,,,
,,,,,V3_026,20,F,2024-10-19_15h44.35.649,jersey_experiment_5_v3,2023.2.2,Win32,84.74576271,,,,,,,,,,,,,,,,500.9277,502.2215,502.2215,503.4214,return,0.1737,,66.796875,,,,,,FBP-RB-19.png,0.45,1.2,60,0.5,,,,,,,,,,,,,0,1,1,59,1,,,,,,,,,,,,,,,,,,,,,,,,,,,,
,,,,,V3_026,20,F,2024-10-19_15h44.35.649,jersey_experiment_5_v3,2023.2.2,Win32,84.74576271,,,,,,,,,,,,,,,,503.4217,504.7156,504.7157,505.5864,return,0.2476,,70.703125,,,,,,FBP-PT-17.png,0.45,1.2,20,0.5,,,,,,,,,,,,,0,2,2,19,1,,,,,,,,,,,,,,,,,,,,,,,,,,,,
,,,,,V3_026,20,F,2024-10-19_15h44.35.649,jersey_experiment_5_v3,2023.2.2,Win32,84.74576271,,,,,,,,,,,,,,,,505.5866,506.8805,506.8805,507.904,return,0.1936,,62.36979167,,,,,,FBP-RB-18.png,0.4,1.2,53,0.5,,,,,,,,,,,,,0,3,3,52,1,,,,,,,,,,,,,,,,,,,,,,,,,,,,
,,,,,V3_026,20,F,2024-10-19_15h44.35.649,jersey_experiment_5_v3,2023.2.2,Win32,84.74576271,,,,,,,,,,,,,,,,507.9043,509.1983,509.1983,510.0807,return,0.1941,,73.828125,,,,,,FBP-YG-91.png,0.45,1.2,15,0.5,,,,,,,,,,,,,0,4,4,14,1,,,,,,,,,,,,,,,,,,,,,,,,,,,,
,,,,,V3_026,20,F,2024-10-19_15h44.35.649,jersey_experiment_5_v3,2023.2.2,Win32,84.74576271,,,,,,,,,,,,,,,,510.0809,511.3748,511.3748,513.7632,return,0.1334,,73.828125,,,,,,FBP-PT-17.png,0.43,1.2,19,0.5,,,,,,,,,,,,,0,5,5,18,1,,,,,,,,,,,,,,,,,,,,,,,,,,,,
,,,,,V3_026,20,F,2024-10-19_15h44.35.649,jersey_experiment_5_v3,2023.2.2,Win32,84.74576271,,,,,,,,,,,,,,,,513.7634,515.3164,515.3164,516.1514,return,0.1493,,65.36458333,,,,,,FBP-OG-17.png,0.43,1.2,34,0.75,,,,,,,,,,,,,0,6,6,33,1,,,,,,,,,,,,,,,,,,,,,,,,,,,,
,,,,,V3_026,20,F,2024-10-19_15h44.35.649,jersey_experiment_5_v3,2023.2.2,Win32,84.74576271,,,,,,,,,,,,,,,,516.1516,517.4458,517.4458,518.3751,return,0.143,,41.92708333,,,,,,FBP-RB-18.png,0.37,1.2,52,0.5,,,,,,,,,,,,,0,7,7,51,1,,,,,,,,,,,,,,,,,,,,,,,,,,,,
,,,,,V3_026,20,F,2024-10-19_15h44.35.649,jersey_experiment_5_v3,2023.2.2,Win32,84.74576271,,,,,,,,,,,,,,,,518.3754,519.9281,519.9281,520.6105,return,0.0242,,65.75520833,,,,,,FBP-OG-17.png,0.45,1.2,35,0.75,,,,,,,,,,,,,0,8,8,34,1,,,,,,,,,,,,,,,,,,,,,,,,,,,,
,,,,,V3_026,20,F,2024-10-19_15h44.35.649,jersey_experiment_5_v3,2023.2.2,Win32,84.74576271,,,,,,,,,,,,,,,,520.6108,521.9048,521.9049,522.9164,return,0.1567,,55.46875,,,,,,FBP-YG-81.png,0.4,1.2,8,0.5,,,,,,,,,,,,,0,9,9,7,1,,,,,,,,,,,,,,,,,,,,,,,,,,,,
,,,,,V3_026,20,F,2024-10-19_15h44.35.649,jersey_experiment_5_v3,2023.2.2,Win32,84.74576271,,,,,,,,,,,,,,,,522.9167,524.4696,524.4696,525.4459,return,0.1889,,67.1875,,,,,,FBP-OG-19.png,0.45,1.2,45,0.75,,,,,,,,,,,,,0,10,10,44,1,,,,,,,,,,,,,,,,,,,,,,,,,,,,
,,,,,V3_026,20,F,2024-10-19_15h44.35.649,jersey_experiment_5_v3,2023.2.2,Win32,84.74576271,,,,,,,,,,,,,,,,525.4462,526.7401,526.7401,528.352,return,0.2068,,27.47395833,,,,,,FBP-RB-18.png,0.35,1.2,51,0.5,,,,,,,,,,,,,0,11,11,50,1,,,,,,,,,,,,,,,,,,,,,,,,,,,,
,,,,,V3_026,20,F,2024-10-19_15h44.35.649,jersey_experiment_5_v3,2023.2.2,Win32,84.74576271,,,,,,,,,,,,,,,,528.3522,529.6461,529.6462,530.4225,return,0.1099,,43.22916667,,,,,,FBP-PT-18.png,0.4,1.2,23,0.5,,,,,,,,,,,,,0,12,12,22,1,,,,,,,,,,,,,,,,,,,,,,,,,,,,
,,,,,V3_026,20,F,2024-10-19_15h44.35.649,jersey_experiment_5_v3,2023.2.2,Win32,84.74576271,,,,,,,,,,,,,,,,530.4228,531.9758,531.9759,532.8815,return,0.1312,,13.15104167,,,,,,FBP-OG-17.png,0.35,1.2,31,0.75,,,,,,,,,,,,,0,13,13,30,1,,,,,,,,,,,,,,,,,,,,,,,,,,,,
,,,,,V3_026,20,F,2024-10-19_15h44.35.649,jersey_experiment_5_v3,2023.2.2,Win32,84.74576271,,,,,,,,,,,,,,,,532.8817,534.1757,534.1757,534.9522,return,0.1884,,6.510416667,,,,,,FBP-YG-81.png,0.35,1.2,6,0.5,,,,,,,,,,,,,0,14,14,5,1,,,,,,,,,,,,,,,,,,,,,,,,,,,,
,,,,,V3_026,20,F,2024-10-19_15h44.35.649,jersey_experiment_5_v3,2023.2.2,Win32,84.74576271,,,,,,,,,,,,,,,,534.9524,536.2463,536.2463,536.9522,return,0.0709,,3.255208333,,,,,,FBP-PT-18.png,0.35,1.2,21,0.5,,,,,,,,,,,,,0,15,15,20,1,,,,,,,,,,,,,,,,,,,,,,,,,,,,
,,,,,V3_026,20,F,2024-10-19_15h44.35.649,jersey_experiment_5_v3,2023.2.2,Win32,84.74576271,,,,,,,,,,,,,,,,536.9525,538.2465,538.2466,538.9523,return,0.0708,,65.75520833,,,,,,FBP-RB-18.png,0.45,1.2,55,0.5,,,,,,,,,,,,,0,16,16,54,1,,,,,,,,,,,,,,,,,,,,,,,,,,,,
,,,,,V3_026,20,F,2024-10-19_15h44.35.649,jersey_experiment_5_v3,2023.2.2,Win32,84.74576271,,,,,,,,,,,,,,,,538.9526,540.5053,540.5054,542.0231,return,0.8599,,19.27083333,,,,,,FBP-OG-19.png,0.35,1.2,41,0.75,,,,,,,,,,,,,0,17,17,40,1,,,,,,,,,,,,,,,,,,,,,,,,,,,,
,,,,,V3_026,20,F,2024-10-19_15h44.35.649,jersey_experiment_5_v3,2023.2.2,Win32,84.74576271,,,,,,,,,,,,,,,,542.0232,543.3171,543.3171,544.2114,return,0.1559,,60.02604167,,,,,,FBP-YG-71.png,0.43,1.2,4,0.5,,,,,,,,,,,,,0,18,18,3,1,,,,,,,,,,,,,,,,,,,,,,,,,,,,
,,,,,V3_026,20,F,2024-10-19_15h44.35.649,jersey_experiment_5_v3,2023.2.2,Win32,84.74576271,,,,,,,,,,,,,,,,544.2116,545.5056,545.5056,546.7408,return,0.0797,,48.046875,,,,,,FBP-YG-91.png,0.35,1.2,11,0.5,,,,,,,,,,,,,0,19,19,10,1,,,,,,,,,,,,,,,,,,,,,,,,,,,,
,,,,,V3_026,20,F,2024-10-19_15h44.35.649,jersey_experiment_5_v3,2023.2.2,Win32,84.74576271,,,,,,,,,,,,,,,,546.7411,548.0351,548.0351,549.0587,return,0.0866,,71.35416667,,,,,,FBP-RB-17.png,0.45,1.2,50,0.5,,,,,,,,,,,,,0,20,20,49,1,,,,,,,,,,,,,,,,,,,,,,,,,,,,
,,,,,V3_026,20,F,2024-10-19_15h44.35.649,jersey_experiment_5_v3,2023.2.2,Win32,84.74576271,,,,,,,,,,,,,,,,549.0589,550.353,550.353,551.0587,return,0.0941,,84.24479167,,,,,,FBP-PT-19.png,0.45,1.2,30,0.5,,,,,,,,,,,,,0,21,21,29,1,,,,,,,,,,,,,,,,,,,,,,,,,,,,
,,,,,V3_026,20,F,2024-10-19_15h44.35.649,jersey_experiment_5_v3,2023.2.2,Win32,84.74576271,,,,,,,,,,,,,,,,551.0588,552.3529,552.3529,555.0941,return,0.1496,,49.86979167,,,,,,FBP-PT-19.png,0.37,1.2,27,0.5,,,,,,,,,,,,,0,22,22,26,1,,,,,,,,,,,,,,,,,,,,,,,,,,,,
,,,,,V3_026,20,F,2024-10-19_15h44.35.649,jersey_experiment_5_v3,2023.2.2,Win32,84.74576271,,,,,,,,,,,,,,,,555.0942,556.3883,556.3883,557.1765,return,0.0935,,55.078125,,,,,,FBP-PT-17.png,0.37,1.2,17,0.5,,,,,,,,,,,,,0,23,23,16,1,,,,,,,,,,,,,,,,,,,,,,,,,,,,
,,,,,V3_026,20,F,2024-10-19_15h44.35.649,jersey_experiment_5_v3,2023.2.2,Win32,84.74576271,,,,,,,,,,,,,,,,557.1767,558.4707,558.4708,559.6238,return,0.1181,,53.125,,,,,,FBP-PT-19.png,0.4,1.2,28,0.5,,,,,,,,,,,,,0,24,24,27,1,,,,,,,,,,,,,,,,,,,,,,,,,,,,
,,,,,V3_026,20,F,2024-10-19_15h44.35.649,jersey_experiment_5_v3,2023.2.2,Win32,84.74576271,,,,,,,,,,,,,,,,559.624,560.918,560.918,561.4708,return,0.0862,,37.23958333,,,,,,FBP-PT-17.png,0.35,1.2,16,0.5,,,,,,,,,,,,,0,25,25,15,1,,,,,,,,,,,,,,,,,,,,,,,,,,,,
,,,,,V3_026,20,F,2024-10-19_15h44.35.649,jersey_experiment_5_v3,2023.2.2,Win32,84.74576271,,,,,,,,,,,,,,,,561.4709,562.7651,562.7651,563.4591,return,0.1094,,42.83854167,,,,,,FBP-RB-17.png,0.4,1.2,48,0.5,,,,,,,,,,,,,0,26,26,47,1,,,,,,,,,,,,,,,,,,,,,,,,,,,,
,,,,,V3_026,20,F,2024-10-19_15h44.35.649,jersey_experiment_5_v3,2023.2.2,Win32,84.74576271,,,,,,,,,,,,,,,,563.4593,564.7535,564.7535,565.6827,return,0.0824,,57.03125,,,,,,FBP-YG-81.png,0.43,1.2,9,0.5,,,,,,,,,,,,,0,27,27,8,1,,,,,,,,,,,,,,,,,,,,,,,,,,,,
,,,,,V3_026,20,F,2024-10-19_15h44.35.649,jersey_experiment_5_v3,2023.2.2,Win32,84.74576271,,,,,,,,,,,,,,,,565.683,567.2359,567.2359,567.8594,return,0.0394,,47.52604167,,,,,,FBP-OG-17.png,0.37,1.2,32,0.75,,,,,,,,,,,,,0,28,28,31,1,,,,,,,,,,,,,,,,,,,,,,,,,,,,
,,,,,V3_026,20,F,2024-10-19_15h44.35.649,jersey_experiment_5_v3,2023.2.2,Win32,84.74576271,,,,,,,,,,,,,,,,567.8595,569.1535,569.1535,570.0712,return,0.0955,,56.77083333,,,,,,FBP-PT-17.png,0.4,1.2,18,0.5,,,,,,,,,,,,,0,29,29,17,1,,,,,,,,,,,,,,,,,,,,,,,,,,,,
,,,,,V3_026,20,F,2024-10-19_15h44.35.649,jersey_experiment_5_v3,2023.2.2,Win32,84.74576271,,,,,,,,,,,,,,,,570.0714,571.3652,571.3653,572.3065,return,0.3062,,74.86979167,,,,,,FBP-YG-81.png,0.45,1.2,10,0.5,,,,,,,,,,,,,0,30,30,9,1,,,,,,,,,,,,,,,,,,,,,,,,,,,,
,,,,,V3_026,20,F,2024-10-19_15h44.35.649,jersey_experiment_5_v3,2023.2.2,Win32,84.74576271,,,,,,,,,,,,,,,,572.3066,573.6008,573.6009,574.6596,return,0.2121,,74.609375,,,,,,FBP-YG-91.png,0.43,1.2,14,0.5,,,,,,,,,,,,,0,31,31,13,1,,,,,,,,,,,,,,,,,,,,,,,,,,,,
,,,,,V3_026,20,F,2024-10-19_15h44.35.649,jersey_experiment_5_v3,2023.2.2,Win32,84.74576271,,,,,,,,,,,,,,,,574.6597,576.2124,576.2125,577.1655,return,0.1134,,32.03125,,,,,,FBP-OG-18.png,0.35,1.2,36,0.75,,,,,,,,,,,,,0,32,32,35,1,,,,,,,,,,,,,,,,,,,,,,,,,,,,
,,,,,V3_026,20,F,2024-10-19_15h44.35.649,jersey_experiment_5_v3,2023.2.2,Win32,84.74576271,,,,,,,,,,,,,,,,577.1656,578.4596,578.4597,579.295,return,0.0431,,48.828125,,,,,,FBP-RB-19.png,0.4,1.2,58,0.5,,,,,,,,,,,,,0,33,33,57,1,,,,,,,,,,,,,,,,,,,,,,,,,,,,
,,,,,V3_026,20,F,2024-10-19_15h44.35.649,jersey_experiment_5_v3,2023.2.2,Win32,84.74576271,,,,,,,,,,,,,,,,579.2953,580.5891,580.5892,581.5068,return,0.1321,,29.81770833,,,,,,FBP-RB-19.png,0.35,1.2,56,0.5,,,,,,,,,,,,,0,34,34,55,1,,,,,,,,,,,,,,,,,,,,,,,,,,,,
,,,,,V3_026,20,F,2024-10-19_15h44.35.649,jersey_experiment_5_v3,2023.2.2,Win32,84.74576271,,,,,,,,,,,,,,,,581.5072,583.0601,583.0601,583.8952,return,0.0791,,39.0625,,,,,,FBP-OG-18.png,0.37,1.2,37,0.75,,,,,,,,,,,,,0,35,35,36,1,,,,,,,,,,,,,,,,,,,,,,,,,,,,
,,,,,V3_026,20,F,2024-10-19_15h44.35.649,jersey_experiment_5_v3,2023.2.2,Win32,84.74576271,,,,,,,,,,,,,,,,583.8953,585.1893,585.1893,586.0364,return,0.086,,63.41145833,,,,,,FBP-PT-19.png,0.43,1.2,29,0.5,,,,,,,,,,,,,0,36,36,28,1,,,,,,,,,,,,,,,,,,,,,,,,,,,,
,,,,,V3_026,20,F,2024-10-19_15h44.35.649,jersey_experiment_5_v3,2023.2.2,Win32,84.74576271,,,,,,,,,,,,,,,,586.0366,587.3306,587.3306,588.0717,return,0.0787,,75,,,,,,FBP-YG-71.png,0.45,1.2,5,0.5,,,,,,,,,,,,,0,37,37,4,1,,,,,,,,,,,,,,,,,,,,,,,,,,,,
,,,,,V3_026,20,F,2024-10-19_15h44.35.649,jersey_experiment_5_v3,2023.2.2,Win32,84.74576271,,,,,,,,,,,,,,,,588.0719,589.6248,589.6248,590.9661,return,0.1183,,76.30208333,,,,,,FBP-OG-18.png,0.43,1.2,39,0.75,,,,,,,,,,,,,0,38,38,38,1,,,,,,,,,,,,,,,,,,,,,,,,,,,,
,,,,,V3_026,20,F,2024-10-19_15h44.35.649,jersey_experiment_5_v3,2023.2.2,Win32,84.74576271,,,,,,,,,,,,,,,,590.9662,592.5191,592.5191,593.5544,return,0.1453,,70.44270833,,,,,,FBP-OG-19.png,0.43,1.2,44,0.75,,,,,,,,,,,,,0,39,39,43,1,,,,,,,,,,,,,,,,,,,,,,,,,,,,
,,,,,V3_026,20,F,2024-10-19_15h44.35.649,jersey_experiment_5_v3,2023.2.2,Win32,84.74576271,,,,,,,,,,,,,,,,593.5545,595.1074,595.1074,595.9075,return,0.1445,,74.21875,,,,,,FBP-OG-18.png,0.45,1.2,40,0.75,,,,,,,,,,,,,0,40,40,39,1,,,,,,,,,,,,,,,,,,,,,,,,,,,,
,,,,,V3_026,20,F,2024-10-19_15h44.35.649,jersey_experiment_5_v3,2023.2.2,Win32,84.74576271,,,,,,,,,,,,,,,,595.9077,597.2017,597.2018,598.3428,return,0.1629,,72.13541667,,,,,,FBP-RB-19.png,0.43,1.2,59,0.5,,,,,,,,,,,,,0,41,41,58,1,,,,,,,,,,,,,,,,,,,,,,,,,,,,
,,,,,V3_026,20,F,2024-10-19_15h44.35.649,jersey_experiment_5_v3,2023.2.2,Win32,84.74576271,,,,,,,,,,,,,,,,598.343,599.6372,599.6372,600.5193,return,0.0784,,35.41666667,,,,,,FBP-RB-17.png,0.37,1.2,47,0.5,,,,,,,,,,,,,0,42,42,46,1,,,,,,,,,,,,,,,,,,,,,,,,,,,,
,,,,,V3_026,20,F,2024-10-19_15h44.35.649,jersey_experiment_5_v3,2023.2.2,Win32,84.74576271,,,,,,,,,,,,,,,,600.5196,602.0724,602.0725,603.5429,return,0.7192,,45.57291667,,,,,,FBP-OG-17.png,0.4,1.2,33,0.75,,,,,,,,,,,,,0,43,43,32,1,,,,,,,,,,,,,,,,,,,,,,,,,,,,
,,,,,V3_026,20,F,2024-10-19_15h44.35.649,jersey_experiment_5_v3,2023.2.2,Win32,84.74576271,,,,,,,,,,,,,,,,603.5431,605.0959,605.0959,606.6254,return,0.6994,,42.70833333,,,,,,FBP-OG-18.png,0.4,1.2,38,0.75,,,,,,,,,,,,,0,44,44,37,1,,,,,,,,,,,,,,,,,,,,,,,,,,,,
,,,,,V3_026,20,F,2024-10-19_15h44.35.649,jersey_experiment_5_v3,2023.2.2,Win32,84.74576271,,,,,,,,,,,,,,,,606.6255,608.1784,608.1784,608.7666,return,0.1137,,37.109375,,,,,,FBP-OG-19.png,0.37,1.2,42,0.75,,,,,,,,,,,,,0,45,45,41,1,,,,,,,,,,,,,,,,,,,,,,,,,,,,
,,,,,V3_026,20,F,2024-10-19_15h44.35.649,jersey_experiment_5_v3,2023.2.2,Win32,84.74576271,,,,,,,,,,,,,,,,608.7668,610.0611,610.0612,611.0492,return,0.297,,26.953125,,,,,,FBP-PT-18.png,0.37,1.2,22,0.5,,,,,,,,,,,,,0,46,46,21,1,,,,,,,,,,,,,,,,,,,,,,,,,,,,
,,,,,V3_026,20,F,2024-10-19_15h44.35.649,jersey_experiment_5_v3,2023.2.2,Win32,84.74576271,,,,,,,,,,,,,,,,611.0494,612.3433,612.3434,613.3316,return,0.188,,22.39583333,,,,,,FBP-RB-19.png,0.37,1.2,57,0.5,,,,,,,,,,,,,0,47,47,56,1,,,,,,,,,,,,,,,,,,,,,,,,,,,,
,,,,,V3_026,20,F,2024-10-19_15h44.35.649,jersey_experiment_5_v3,2023.2.2,Win32,84.74576271,,,,,,,,,,,,,,,,613.3319,614.626,614.626,616.4493,return,1.0043,,56.51041667,,,,,,FBP-RB-18.png,0.43,1.2,54,0.5,,,,,,,,,,,,,0,48,48,53,1,,,,,,,,,,,,,,,,,,,,,,,,,,,,
,,,,,V3_026,20,F,2024-10-19_15h44.35.649,jersey_experiment_5_v3,2023.2.2,Win32,84.74576271,,,,,,,,,,,,,,,,616.4496,617.7435,617.7435,621.673,return,2.7874,,58.984375,,,,,,FBP-YG-91.png,0.4,1.2,13,0.5,,,,,,,,,,,,,0,49,49,12,1,,,,,,,,,,,,,,,,,,,,,,,,,,,,
,,,,,V3_026,20,F,2024-10-19_15h44.35.649,jersey_experiment_5_v3,2023.2.2,Win32,84.74576271,,,,,,,,,,,,,,,,621.673,622.9672,622.9672,624.4496,return,0.0521,,61.97916667,,,,,,FBP-RB-17.png,0.43,1.2,49,0.5,,,,,,,,,,,,,0,50,50,48,1,,,,,,,,,,,,,,,,,,,,,,,,,,,,
,,,,,V3_026,20,F,2024-10-19_15h44.35.649,jersey_experiment_5_v3,2023.2.2,Win32,84.74576271,,,,,,,,,,,,,,,,624.4498,625.991,625.9911,626.9438,return,0.0617,,55.859375,,,,,,FBP-OG-19.png,0.4,1.2,43,0.75,,,,,,,,,,,,,0,51,51,42,1,,,,,,,,,,,,,,,,,,,,,,,,,,,,
,,,,,V3_026,20,F,2024-10-19_15h44.35.649,jersey_experiment_5_v3,2023.2.2,Win32,84.74576271,,,,,,,,,,,,,,,,626.944,628.2381,628.2381,629.2027,return,0.0509,,72.78645833,,,,,,FBP-PT-18.png,0.45,1.2,25,0.5,,,,,,,,,,,,,0,52,52,24,1,,,,,,,,,,,,,,,,,,,,,,,,,,,,
,,,,,V3_026,20,F,2024-10-19_15h44.35.649,jersey_experiment_5_v3,2023.2.2,Win32,84.74576271,,,,,,,,,,,,,,,,629.203,630.497,630.497,631.2968,return,0.1231,,36.06770833,,,,,,FBP-YG-91.png,0.37,1.2,12,0.5,,,,,,,,,,,,,0,53,53,11,1,,,,,,,,,,,,,,,,,,,,,,,,,,,,
,,,,,V3_026,20,F,2024-10-19_15h44.35.649,jersey_experiment_5_v3,2023.2.2,Win32,84.74576271,,,,,,,,,,,,,,,,631.297,632.5913,632.5913,633.3793,return,0.1331,,19.921875,,,,,,FBP-PT-19.png,0.35,1.2,26,0.5,,,,,,,,,,,,,0,54,54,25,1,,,,,,,,,,,,,,,,,,,,,,,,,,,,
,,,,,V3_026,20,F,2024-10-19_15h44.35.649,jersey_experiment_5_v3,2023.2.2,Win32,84.74576271,,,,,,,,,,,,,,,,633.3795,634.6735,634.6735,636.003,return,0.0268,,60.546875,,,,,,FBP-PT-18.png,0.43,1.2,24,0.5,,,,,,,,,,,,,0,55,55,23,1,,,,,,,,,,,,,,,,,,,,,,,,,,,,
,,,,,V3_026,20,F,2024-10-19_15h44.35.649,jersey_experiment_5_v3,2023.2.2,Win32,84.74576271,,,,,,,,,,,,,,,,636.0033,637.2972,637.2972,638.2737,return,0.0482,,44.921875,,,,,,FBP-RB-17.png,0.35,1.2,46,0.5,,,,,,,,,,,,,0,56,56,45,1,,,,,,,,,,,,,,,,,,,,,,,,,,,,
,,,,,V3_026,20,F,2024-10-19_15h44.35.649,jersey_experiment_5_v3,2023.2.2,Win32,84.74576271,,,,,,,,,,,,,,,,638.2739,639.5677,639.5677,640.2738,return,0.1813,,37.23958333,,,,,,FBP-YG-71.png,0.37,1.2,2,0.5,,,,,,,,,,,,,0,57,57,1,1,,,,,,,,,,,,,,,,,,,,,,,,,,,,
,,,,,V3_026,20,F,2024-10-19_15h44.35.649,jersey_experiment_5_v3,2023.2.2,Win32,84.74576271,,,,,,,,,,,,,,,,640.274,641.5679,641.5679,642.215,return,0.118,,33.984375,,,,,,FBP-YG-81.png,0.37,1.2,7,0.5,,,,,,,,,,,,,0,58,58,6,1,,,,,,,,,,,,,,,,,,,,,,,,,,,,
,,,,,V3_026,20,F,2024-10-19_15h44.35.649,jersey_experiment_5_v3,2023.2.2,Win32,84.74576271,,,,,,,,,,,,,,,,642.2152,643.5091,643.5092,644.2621,return,0.1262,,32.03125,,,,,,FBP-YG-71.png,0.35,1.2,1,0.5,,,,,,,,,,,,,0,59,59,0,1,,,,,,,,,,,,,,,,,,,,,,,,,,,,
,,,,,V3_026,20,F,2024-10-19_15h44.35.649,jersey_experiment_5_v3,2023.2.2,Win32,84.74576271,,,,,,,,,,,,,,,,644.2637,645.5562,645.5562,646.4975,return,0.0758,,63.54166667,,,,,,FBP-YG-18.png,0.43,1.2,9,0.5,,,,,,,,,,,,,,,,,,0,0,0,8,1,,,,,,,,,,,,,,,,,,,,,,,
,,,,,V3_026,20,F,2024-10-19_15h44.35.649,jersey_experiment_5_v3,2023.2.2,Win32,84.74576271,,,,,,,,,,,,,,,,646.4977,648.0504,648.0504,648.8035,return,0.1548,,66.27604167,,,,,,FBP-OG-91.png,0.37,1.2,42,0.75,,,,,,,,,,,,,,,,,,0,1,1,41,1,,,,,,,,,,,,,,,,,,,,,,,
,,,,,V3_026,20,F,2024-10-19_15h44.35.649,jersey_experiment_5_v3,2023.2.2,Win32,84.74576271,,,,,,,,,,,,,,,,648.8036,650.0977,650.0977,651.286,return,0.1653,,90.234375,,,,,,FBP-PT-81.png,0.45,1.2,25,0.5,,,,,,,,,,,,,,,,,,0,2,2,24,1,,,,,,,,,,,,,,,,,,,,,,,
,,,,,V3_026,20,F,2024-10-19_15h44.35.649,jersey_experiment_5_v3,2023.2.2,Win32,84.74576271,,,,,,,,,,,,,,,,651.2862,652.5802,652.5802,653.9096,return,0.1263,,78.38541667,,,,,,FBP-RB-91.png,0.4,1.2,58,0.5,,,,,,,,,,,,,,,,,,0,3,3,57,1,,,,,,,,,,,,,,,,,,,,,,,
,,,,,V3_026,20,F,2024-10-19_15h44.35.649,jersey_experiment_5_v3,2023.2.2,Win32,84.74576271,,,,,,,,,,,,,,,,653.9099,655.2037,655.2037,657.0744,return,0.8501,,55.72916667,,,,,,FBP-YG-17.png,0.37,1.2,2,0.5,,,,,,,,,,,,,,,,,,0,4,4,1,1,,,,,,,,,,,,,,,,,,,,,,,
,,,,,V3_026,20,F,2024-10-19_15h44.35.649,jersey_experiment_5_v3,2023.2.2,Win32,84.74576271,,,,,,,,,,,,,,,,657.0746,658.3688,658.3689,659.2863,return,0.0232,,68.75,,,,,,FBP-PT-91.png,0.45,1.2,30,0.5,,,,,,,,,,,,,,,,,,0,5,5,29,1,,,,,,,,,,,,,,,,,,,,,,,
,,,,,V3_026,20,F,2024-10-19_15h44.35.649,jersey_experiment_5_v3,2023.2.2,Win32,84.74576271,,,,,,,,,,,,,,,,659.2865,660.5803,660.5803,661.0863,return,0.1733,,68.75,,,,,,FBP-PT-71.png,0.43,1.2,19,0.5,,,,,,,,,,,,,,,,,,0,6,6,18,1,,,,,,,,,,,,,,,,,,,,,,,
,,,,,V3_026,20,F,2024-10-19_15h44.35.649,jersey_experiment_5_v3,2023.2.2,Win32,84.74576271,,,,,,,,,,,,,,,,661.0864,662.6392,662.6393,663.7688,return,0.1264,,70.44270833,,,,,,FBP-OG-91.png,0.45,1.2,45,0.75,,,,,,,,,,,,,,,,,,0,7,7,44,1,,,,,,,,,,,,,,,,,,,,,,,
,,,,,V3_026,20,F,2024-10-19_15h44.35.649,jersey_experiment_5_v3,2023.2.2,Win32,84.74576271,,,,,,,,,,,,,,,,663.769,665.0631,665.0631,666.5688,return,0.1655,,56.38020833,,,,,,FBP-RB-91.png,0.35,1.2,56,0.5,,,,,,,,,,,,,,,,,,0,8,8,55,1,,,,,,,,,,,,,,,,,,,,,,,
,,,,,V3_026,20,F,2024-10-19_15h44.35.649,jersey_experiment_5_v3,2023.2.2,Win32,84.74576271,,,,,,,,,,,,,,,,666.569,668.1219,668.122,669.3807,return,0.5653,,53.64583333,,,,,,FBP-OG-91.png,0.4,1.2,43,0.75,,,,,,,,,,,,,,,,,,0,9,9,42,1,,,,,,,,,,,,,,,,,,,,,,,
,,,,,V3_026,20,F,2024-10-19_15h44.35.649,jersey_experiment_5_v3,2023.2.2,Win32,84.74576271,,,,,,,,,,,,,,,,669.381,670.6748,670.6748,671.4279,return,0.1104,,43.61979167,,,,,,FBP-YG-18.png,0.35,1.2,6,0.5,,,,,,,,,,,,,,,,,,0,10,10,5,1,,,,,,,,,,,,,,,,,,,,,,,
,,,,,V3_026,20,F,2024-10-19_15h44.35.649,jersey_experiment_5_v3,2023.2.2,Win32,84.74576271,,,,,,,,,,,,,,,,671.4279,672.9812,672.9812,673.6516,return,0.121,,67.83854167,,,,,,FBP-OG-91.png,0.43,1.2,44,0.75,,,,,,,,,,,,,,,,,,0,11,11,43,1,,,,,,,,,,,,,,,,,,,,,,,
,,,,,V3_026,20,F,2024-10-19_15h44.35.649,jersey_experiment_5_v3,2023.2.2,Win32,84.74576271,,,,,,,,,,,,,,,,673.652,674.9456,674.9457,676.1456,return,0.1542,,77.08333333,,,,,,FBP-YG-17.png,0.45,1.2,5,0.5,,,,,,,,,,,,,,,,,,0,12,12,4,1,,,,,,,,,,,,,,,,,,,,,,,
,,,,,V3_026,20,F,2024-10-19_15h44.35.649,jersey_experiment_5_v3,2023.2.2,Win32,84.74576271,,,,,,,,,,,,,,,,676.1459,677.4397,677.4398,678.2752,return,0.1568,,79.6875,,,,,,FBP-PT-91.png,0.43,1.2,29,0.5,,,,,,,,,,,,,,,,,,0,13,13,28,1,,,,,,,,,,,,,,,,,,,,,,,
,,,,,V3_026,20,F,2024-10-19_15h44.35.649,jersey_experiment_5_v3,2023.2.2,Win32,84.74576271,,,,,,,,,,,,,,,,678.2754,679.5694,679.5694,680.4517,return,0.1308,,72.265625,,,,,,FBP-PT-71.png,0.37,1.2,17,0.5,,,,,,,,,,,,,,,,,,0,14,14,16,1,,,,,,,,,,,,,,,,,,,,,,,
,,,,,V3_026,20,F,2024-10-19_15h44.35.649,jersey_experiment_5_v3,2023.2.2,Win32,84.74576271,,,,,,,,,,,,,,,,680.452,682.0047,682.0047,682.84,return,0.1571,,73.69791667,,,,,,FBP-OG-81.png,0.43,1.2,39,0.75,,,,,,,,,,,,,,,,,,0,15,15,38,1,,,,,,,,,,,,,,,,,,,,,,,
,,,,,V3_026,20,F,2024-10-19_15h44.35.649,jersey_experiment_5_v3,2023.2.2,Win32,84.74576271,,,,,,,,,,,,,,,,682.8403,684.1342,684.1342,684.7106,return,0.2669,,73.69791667,,,,,,FBP-RB-81.png,0.4,1.2,53,0.5,,,,,,,,,,,,,,,,,,0,16,16,52,1,,,,,,,,,,,,,,,,,,,,,,,
,,,,,V3_026,20,F,2024-10-19_15h44.35.649,jersey_experiment_5_v3,2023.2.2,Win32,84.74576271,,,,,,,,,,,,,,,,684.7109,686.0049,686.005,686.8049,return,0.1274,,72.91666667,,,,,,FBP-YG-17.png,0.43,1.2,4,0.5,,,,,,,,,,,,,,,,,,0,17,17,3,1,,,,,,,,,,,,,,,,,,,,,,,
,,,,,V3_026,20,F,2024-10-19_15h44.35.649,jersey_experiment_5_v3,2023.2.2,Win32,84.74576271,,,,,,,,,,,,,,,,686.8052,688.0992,688.0993,689.0285,return,0.1329,,46.61458333,,,,,,FBP-YG-19.png,0.35,1.2,11,0.5,,,,,,,,,,,,,,,,,,0,18,18,10,1,,,,,,,,,,,,,,,,,,,,,,,
,,,,,V3_026,20,F,2024-10-19_15h44.35.649,jersey_experiment_5_v3,2023.2.2,Win32,84.74576271,,,,,,,,,,,,,,,,689.0287,690.3229,690.3229,690.9461,return,0.0987,,58.85416667,,,,,,FBP-RB-71.png,0.43,1.2,49,0.5,,,,,,,,,,,,,,,,,,0,19,19,48,1,,,,,,,,,,,,,,,,,,,,,,,
,,,,,V3_026,20,F,2024-10-19_15h44.35.649,jersey_experiment_5_v3,2023.2.2,Win32,84.74576271,,,,,,,,,,,,,,,,690.9463,692.2404,692.2404,692.9817,return,0.11,,59.24479167,,,,,,FBP-PT-91.png,0.4,1.2,28,0.5,,,,,,,,,,,,,,,,,,0,20,20,27,1,,,,,,,,,,,,,,,,,,,,,,,
,,,,,V3_026,20,F,2024-10-19_15h44.35.649,jersey_experiment_5_v3,2023.2.2,Win32,84.74576271,,,,,,,,,,,,,,,,692.9818,694.2758,694.2758,694.9817,return,0.0241,,65.88541667,,,,,,FBP-RB-71.png,0.45,1.2,50,0.5,,,,,,,,,,,,,,,,,,0,21,21,49,1,,,,,,,,,,,,,,,,,,,,,,,
,,,,,V3_026,20,F,2024-10-19_15h44.35.649,jersey_experiment_5_v3,2023.2.2,Win32,84.74576271,,,,,,,,,,,,,,,,694.982,696.2757,696.2758,696.9819,return,0.0494,,72.65625,,,,,,FBP-RB-91.png,0.45,1.2,60,0.5,,,,,,,,,,,,,,,,,,0,22,22,59,1,,,,,,,,,,,,,,,,,,,,,,,
,,,,,V3_026,20,F,2024-10-19_15h44.35.649,jersey_experiment_5_v3,2023.2.2,Win32,84.74576271,,,,,,,,,,,,,,,,696.9821,698.5349,698.535,699.6641,return,0.0509,,50.78125,,,,,,FBP-OG-81.png,0.35,1.2,36,0.75,,,,,,,,,,,,,,,,,,0,23,23,35,1,,,,,,,,,,,,,,,,,,,,,,,
,,,,,V3_026,20,F,2024-10-19_15h44.35.649,jersey_experiment_5_v3,2023.2.2,Win32,84.74576271,,,,,,,,,,,,,,,,699.6642,700.9584,700.9584,702.3349,return,0.0387,,76.82291667,,,,,,FBP-RB-81.png,0.45,1.2,55,0.5,,,,,,,,,,,,,,,,,,0,24,24,54,1,,,,,,,,,,,,,,,,,,,,,,,
,,,,,V3_026,20,F,2024-10-19_15h44.35.649,jersey_experiment_5_v3,2023.2.2,Win32,84.74576271,,,,,,,,,,,,,,,,702.335,703.6291,703.6292,704.6291,return,0.1552,,46.875,,,,,,FBP-RB-81.png,0.37,1.2,52,0.5,,,,,,,,,,,,,,,,,,0,25,25,51,1,,,,,,,,,,,,,,,,,,,,,,,
,,,,,V3_026,20,F,2024-10-19_15h44.35.649,jersey_experiment_5_v3,2023.2.2,Win32,84.74576271,,,,,,,,,,,,,,,,704.6294,706.1822,706.1822,706.9587,return,0.0669,,36.84895833,,,,,,FBP-OG-71.png,0.35,1.2,31,0.75,,,,,,,,,,,,,,,,,,0,26,26,30,1,,,,,,,,,,,,,,,,,,,,,,,
,,,,,V3_026,20,F,2024-10-19_15h44.35.649,jersey_experiment_5_v3,2023.2.2,Win32,84.74576271,,,,,,,,,,,,,,,,706.9589,708.5116,708.5117,709.5235,return,0.1804,,29.16666667,,,,,,FBP-OG-91.png,0.35,1.2,41,0.75,,,,,,,,,,,,,,,,,,0,27,27,40,1,,,,,,,,,,,,,,,,,,,,,,,
,,,,,V3_026,20,F,2024-10-19_15h44.35.649,jersey_experiment_5_v3,2023.2.2,Win32,84.74576271,,,,,,,,,,,,,,,,709.5237,710.8176,710.8176,711.8646,return,0.1648,,30.98958333,,,,,,FBP-YG-19.png,0.37,1.2,12,0.5,,,,,,,,,,,,,,,,,,0,28,28,11,1,,,,,,,,,,,,,,,,,,,,,,,
,,,,,V3_026,20,F,2024-10-19_15h44.35.649,jersey_experiment_5_v3,2023.2.2,Win32,84.74576271,,,,,,,,,,,,,,,,711.8648,713.4177,713.4177,714.8179,return,0.1192,,51.171875,,,,,,FBP-OG-71.png,0.43,1.2,34,0.75,,,,,,,,,,,,,,,,,,0,29,29,33,1,,,,,,,,,,,,,,,,,,,,,,,
,,,,,V3_026,20,F,2024-10-19_15h44.35.649,jersey_experiment_5_v3,2023.2.2,Win32,84.74576271,,,,,,,,,,,,,,,,714.8182,716.3706,716.3707,716.9471,return,0.1071,,61.71875,,,,,,FBP-OG-71.png,0.45,1.2,35,0.75,,,,,,,,,,,,,,,,,,0,30,30,34,1,,,,,,,,,,,,,,,,,,,,,,,
,,,,,V3_026,20,F,2024-10-19_15h44.35.649,jersey_experiment_5_v3,2023.2.2,Win32,84.74576271,,,,,,,,,,,,,,,,716.9473,718.2413,718.2414,718.9121,return,0.1361,,45.703125,,,,,,FBP-RB-71.png,0.35,1.2,46,0.5,,,,,,,,,,,,,,,,,,0,31,31,45,1,,,,,,,,,,,,,,,,,,,,,,,
,,,,,V3_026,20,F,2024-10-19_15h44.35.649,jersey_experiment_5_v3,2023.2.2,Win32,84.74576271,,,,,,,,,,,,,,,,718.9122,720.2062,720.2062,720.9355,return,0.0843,,48.17708333,,,,,,FBP-YG-19.png,0.4,1.2,13,0.5,,,,,,,,,,,,,,,,,,0,32,32,12,1,,,,,,,,,,,,,,,,,,,,,,,
,,,,,V3_026,20,F,2024-10-19_15h44.35.649,jersey_experiment_5_v3,2023.2.2,Win32,84.74576271,,,,,,,,,,,,,,,,720.9357,722.2298,722.2298,722.936,return,0.141,,40.625,,,,,,FBP-YG-18.png,0.37,1.2,7,0.5,,,,,,,,,,,,,,,,,,0,33,33,6,1,,,,,,,,,,,,,,,,,,,,,,,
,,,,,V3_026,20,F,2024-10-19_15h44.35.649,jersey_experiment_5_v3,2023.2.2,Win32,84.74576271,,,,,,,,,,,,,,,,722.9362,724.2299,724.23,725.0416,return,0.0756,,40.10416667,,,,,,FBP-YG-18.png,0.4,1.2,8,0.5,,,,,,,,,,,,,,,,,,0,34,34,7,1,,,,,,,,,,,,,,,,,,,,,,,
,,,,,V3_026,20,F,2024-10-19_15h44.35.649,jersey_experiment_5_v3,2023.2.2,Win32,84.74576271,,,,,,,,,,,,,,,,725.0418,726.3357,726.3359,727.1711,return,0.0866,,57.421875,,,,,,FBP-PT-71.png,0.45,1.2,20,0.5,,,,,,,,,,,,,,,,,,0,35,35,19,1,,,,,,,,,,,,,,,,,,,,,,,
,,,,,V3_026,20,F,2024-10-19_15h44.35.649,jersey_experiment_5_v3,2023.2.2,Win32,84.74576271,,,,,,,,,,,,,,,,727.1713,728.4653,728.4653,729.1242,return,0.0239,,65.88541667,,,,,,FBP-RB-91.png,0.43,1.2,59,0.5,,,,,,,,,,,,,,,,,,0,36,36,58,1,,,,,,,,,,,,,,,,,,,,,,,
,,,,,V3_026,20,F,2024-10-19_15h44.35.649,jersey_experiment_5_v3,2023.2.2,Win32,84.74576271,,,,,,,,,,,,,,,,729.1243,730.4183,730.4183,731.3596,return,0.1131,,69.53125,,,,,,FBP-YG-17.png,0.4,1.2,3,0.5,,,,,,,,,,,,,,,,,,0,37,37,2,1,,,,,,,,,,,,,,,,,,,,,,,
,,,,,V3_026,20,F,2024-10-19_15h44.35.649,jersey_experiment_5_v3,2023.2.2,Win32,84.74576271,,,,,,,,,,,,,,,,731.3597,732.6537,732.6538,734.1008,return,0.0356,,80.98958333,,,,,,FBP-YG-19.png,0.45,1.2,15,0.5,,,,,,,,,,,,,,,,,,0,38,38,14,1,,,,,,,,,,,,,,,,,,,,,,,
,,,,,V3_026,20,F,2024-10-19_15h44.35.649,jersey_experiment_5_v3,2023.2.2,Win32,84.74576271,,,,,,,,,,,,,,,,734.101,735.395,735.395,736.0891,return,0.1406,,80.59895833,,,,,,FBP-PT-81.png,0.43,1.2,24,0.5,,,,,,,,,,,,,,,,,,0,39,39,23,1,,,,,,,,,,,,,,,,,,,,,,,
,,,,,V3_026,20,F,2024-10-19_15h44.35.649,jersey_experiment_5_v3,2023.2.2,Win32,84.74576271,,,,,,,,,,,,,,,,736.0893,737.3833,737.3833,738.6069,return,0.2182,,74.86979167,,,,,,FBP-YG-19.png,0.43,1.2,14,0.5,,,,,,,,,,,,,,,,,,0,40,40,13,1,,,,,,,,,,,,,,,,,,,,,,,
,,,,,V3_026,20,F,2024-10-19_15h44.35.649,jersey_experiment_5_v3,2023.2.2,Win32,84.74576271,,,,,,,,,,,,,,,,738.607,739.9013,739.9013,741.1717,return,0.238,,52.60416667,,,,,,FBP-PT-91.png,0.35,1.2,26,0.5,,,,,,,,,,,,,,,,,,0,41,41,25,1,,,,,,,,,,,,,,,,,,,,,,,
,,,,,V3_026,20,F,2024-10-19_15h44.35.649,jersey_experiment_5_v3,2023.2.2,Win32,84.74576271,,,,,,,,,,,,,,,,741.1718,742.4658,742.4659,743.3482,return,0.0495,,39.19270833,,,,,,FBP-PT-71.png,0.35,1.2,16,0.5,,,,,,,,,,,,,,,,,,0,42,42,15,1,,,,,,,,,,,,,,,,,,,,,,,
,,,,,V3_026,20,F,2024-10-19_15h44.35.649,jersey_experiment_5_v3,2023.2.2,Win32,84.74576271,,,,,,,,,,,,,,,,743.3483,744.9011,744.9012,745.4071,return,0.1921,,42.70833333,,,,,,FBP-OG-71.png,0.37,1.2,32,0.75,,,,,,,,,,,,,,,,,,0,43,43,31,1,,,,,,,,,,,,,,,,,,,,,,,
,,,,,V3_026,20,F,2024-10-19_15h44.35.649,jersey_experiment_5_v3,2023.2.2,Win32,84.74576271,,,,,,,,,,,,,,,,745.4074,746.7011,746.7011,747.2189,return,0.2277,,42.70833333,,,,,,FBP-RB-71.png,0.37,1.2,47,0.5,,,,,,,,,,,,,,,,,,0,44,44,46,1,,,,,,,,,,,,,,,,,,,,,,,
,,,,,V3_026,20,F,2024-10-19_15h44.35.649,jersey_experiment_5_v3,2023.2.2,Win32,84.74576271,,,,,,,,,,,,,,,,747.219,748.7603,748.7604,749.3601,return,0.1454,,61.45833333,,,,,,FBP-OG-81.png,0.45,1.2,40,0.75,,,,,,,,,,,,,,,,,,0,45,45,39,1,,,,,,,,,,,,,,,,,,,,,,,
,,,,,V3_026,20,F,2024-10-19_15h44.35.649,jersey_experiment_5_v3,2023.2.2,Win32,84.74576271,,,,,,,,,,,,,,,,749.3603,750.6542,750.6543,751.6779,return,0.1344,,49.609375,,,,,,FBP-PT-91.png,0.37,1.2,27,0.5,,,,,,,,,,,,,,,,,,0,46,46,26,1,,,,,,,,,,,,,,,,,,,,,,,
,,,,,V3_026,20,F,2024-10-19_15h44.35.649,jersey_experiment_5_v3,2023.2.2,Win32,84.74576271,,,,,,,,,,,,,,,,751.6781,753.2193,753.2193,754.4074,return,0.7376,,41.92708333,,,,,,FBP-OG-81.png,0.37,1.2,37,0.75,,,,,,,,,,,,,,,,,,0,47,47,36,1,,,,,,,,,,,,,,,,,,,,,,,
,,,,,V3_026,20,F,2024-10-19_15h44.35.649,jersey_experiment_5_v3,2023.2.2,Win32,84.74576271,,,,,,,,,,,,,,,,754.4076,755.7015,755.7015,756.3368,return,0.0764,,55.46875,,,,,,FBP-RB-71.png,0.4,1.2,48,0.5,,,,,,,,,,,,,,,,,,0,48,48,47,1,,,,,,,,,,,,,,,,,,,,,,,
,,,,,V3_026,20,F,2024-10-19_15h44.35.649,jersey_experiment_5_v3,2023.2.2,Win32,84.74576271,,,,,,,,,,,,,,,,756.3369,757.6312,757.6312,759.3135,return,1.1095,,35.9375,,,,,,FBP-PT-81.png,0.35,1.2,21,0.5,,,,,,,,,,,,,,,,,,0,49,49,20,1,,,,,,,,,,,,,,,,,,,,,,,
,,,,,V3_026,20,F,2024-10-19_15h44.35.649,jersey_experiment_5_v3,2023.2.2,Win32,84.74576271,,,,,,,,,,,,,,,,759.3138,760.6077,760.6077,761.4429,return,0.1998,,38.28125,,,,,,FBP-RB-91.png,0.37,1.2,57,0.5,,,,,,,,,,,,,,,,,,0,50,50,56,1,,,,,,,,,,,,,,,,,,,,,,,
,,,,,V3_026,20,F,2024-10-19_15h44.35.649,jersey_experiment_5_v3,2023.2.2,Win32,84.74576271,,,,,,,,,,,,,,,,761.4431,762.996,762.9961,763.7607,return,0.1192,,48.17708333,,,,,,FBP-OG-81.png,0.4,1.2,38,0.75,,,,,,,,,,,,,,,,,,0,51,51,37,1,,,,,,,,,,,,,,,,,,,,,,,
,,,,,V3_026,20,F,2024-10-19_15h44.35.649,jersey_experiment_5_v3,2023.2.2,Win32,84.74576271,,,,,,,,,,,,,,,,763.7609,765.0549,765.0549,765.749,return,0.1038,,40.625,,,,,,FBP-RB-81.png,0.35,1.2,51,0.5,,,,,,,,,,,,,,,,,,0,52,52,50,1,,,,,,,,,,,,,,,,,,,,,,,
,,,,,V3_026,20,F,2024-10-19_15h44.35.649,jersey_experiment_5_v3,2023.2.2,Win32,84.74576271,,,,,,,,,,,,,,,,765.7492,767.0432,767.0432,767.6314,return,0.0165,,55.078125,,,,,,FBP-YG-18.png,0.45,1.2,10,0.5,,,,,,,,,,,,,,,,,,0,53,53,9,1,,,,,,,,,,,,,,,,,,,,,,,
,,,,,V3_026,20,F,2024-10-19_15h44.35.649,jersey_experiment_5_v3,2023.2.2,Win32,84.74576271,,,,,,,,,,,,,,,,767.6316,768.9256,768.9256,769.9373,return,0.0603,,48.4375,,,,,,FBP-PT-81.png,0.37,1.2,22,0.5,,,,,,,,,,,,,,,,,,0,54,54,21,1,,,,,,,,,,,,,,,,,,,,,,,
,,,,,V3_026,20,F,2024-10-19_15h44.35.649,jersey_experiment_5_v3,2023.2.2,Win32,84.74576271,,,,,,,,,,,,,,,,769.9376,771.2316,771.2317,772.114,return,0.0716,,60.9375,,,,,,FBP-RB-81.png,0.43,1.2,54,0.5,,,,,,,,,,,,,,,,,,0,55,55,53,1,,,,,,,,,,,,,,,,,,,,,,,
,,,,,V3_026,20,F,2024-10-19_15h44.35.649,jersey_experiment_5_v3,2023.2.2,Win32,84.74576271,,,,,,,,,,,,,,,,772.1141,773.667,773.667,774.7022,return,0.2401,,58.33333333,,,,,,FBP-OG-71.png,0.4,1.2,33,0.75,,,,,,,,,,,,,,,,,,0,56,56,32,1,,,,,,,,,,,,,,,,,,,,,,,
,,,,,V3_026,20,F,2024-10-19_15h44.35.649,jersey_experiment_5_v3,2023.2.2,Win32,84.74576271,,,,,,,,,,,,,,,,774.7024,775.9965,775.9965,776.9141,return,0.144,,55.078125,,,,,,FBP-PT-81.png,0.4,1.2,23,0.5,,,,,,,,,,,,,,,,,,0,57,57,22,1,,,,,,,,,,,,,,,,,,,,,,,
,,,,,V3_026,20,F,2024-10-19_15h44.35.649,jersey_experiment_5_v3,2023.2.2,Win32,84.74576271,,,,,,,,,,,,,,,,776.9144,778.2082,778.2083,779.0319,return,0.096,,57.03125,,,,,,FBP-PT-71.png,0.4,1.2,18,0.5,,,,,,,,,,,,,,,,,,0,58,58,17,1,,,,,,,,,,,,,,,,,,,,,,,
,,,,,V3_026,20,F,2024-10-19_15h44.35.649,jersey_experiment_5_v3,2023.2.2,Win32,84.74576271,,,,,,,,,,,,,,,,779.032,780.3261,780.3261,781.1261,return,0.1089,,47.13541667,,,,,,FBP-YG-17.png,0.35,1.2,1,0.5,,,,,,,,,,,,,,,,,,0,59,59,0,1,,,,,,,,,,,,,,,,,,,,,,,
,,,,,V3_026,20,F,2024-10-19_15h44.35.649,jersey_experiment_5_v3,2023.2.2,Win32,84.74576271,,,,,,,,,,,,,,,,,,,,,,,,,,,,,,,,,,,,,,,,,,,,,,,,,,,,,,,,781.1263,785.7029,return,4.5646,,,,,,,,,,,,,,,,,,,
,,,,,V3_026,20,F,2024-10-19_15h44.35.649,jersey_experiment_5_v3,2023.2.2,Win32,84.74576271,,,,,,,,,,,,,,,,,,,,,,,,,,,,,,,,,,,,,,,,,,,,,,,,,,,,,,,,,,,,,785.703,788.9029,1,2.4059,return,0.7761,,,,,,,,,,,,
,,,,,V3_026,20,F,2024-10-19_15h44.35.649,jersey_experiment_5_v3,2023.2.2,Win32,84.74576271,,,,,,,,,,,,,,,,,,,,,,,,,,,,,,,,,,,,,,,,,,,,,,,,,,,,,,,,,,,,,,,,,,,,788.9031,809.2807,not really,right,7.065,,,,,,
,,,,,V3_026,20,F,2024-10-19_15h44.35.649,jersey_experiment_5_v3,2023.2.2,Win32,84.74576271,,,,,,,,,,,,,,,,,,,,,,,,,,,,,,,,,,,,,,,,,,,,,,,,,,,,,,,,,,,,,,,,,,,,,,,,,,809.2808,812.8803,return,3.5911,