requirements.started,requirements.stopped,key_resp_3.keys,key_resp_3.rt,key_resp_3.duration,Subject ID,Age,Gender,date,expName,psychopyVersion,OS,frameRate,instructions1.started,instructions1.stopped,key_resp.keys,key_resp.rt,key_resp.duration,example.started,example.stopped,enter_2.keys,enter_2.rt,enter_2.duration,instructions2.started,instructions2.stopped,enter_3.keys,enter_3.rt,enter_3.duration,image.started,image.stopped,slider_2.started,slider_2.stopped,next.keys,next.rt,next.duration,slider.response,trial_block_1.thisRepN,trial_block_1.thisTrialN,trial_block_1.thisN,trial_block_1.thisIndex,trial_block_1.ran,Path,Width,Height,Index,Duration,trial_block_2.thisRepN,trial_block_2.thisTrialN,trial_block_2.thisN,trial_block_2.thisIndex,trial_block_2.ran,rest_break.started,rest_break.stopped,end_break.started,end_break.stopped,key_resp_5.keys,key_resp_5.rt,key_resp_5.duration,trial_block_3.thisRepN,trial_block_3.thisTrialN,trial_block_3.thisN,trial_block_3.thisIndex,trial_block_3.ran,trial_block_4.thisRepN,trial_block_4.thisTrialN,trial_block_4.thisN,trial_block_4.thisIndex,trial_block_4.ran,questions_intro.started,questions_intro.stopped,enter_12.keys,enter_12.rt,enter_12.duration,question2.started,question2.stopped,question_doingbest.response,question_doingbest.rt,enter_15.keys,enter_15.rt,enter_15.duration,pattern.started,pattern.stopped,pattern_2.text,enter_17.keys,enter_17.rt,enter_17.duration,thankyou.started,thankyou.stopped,enter_14.keys,enter_14.rt,enter_14.duration
1E-04,15.2,return,15.1917,,V3_033,18,Female,2024-10-23_13h13.02.219,jersey_experiment_5_v3,2023.2.2,Win32,84.74576271,,,,,,,,,,,,,,,,,,,,,,,,,,,,,,,,,,,,,,,,,,,,,,,,,,,,,,,,,,,,,,,,,,,,,,,,,,,,,,
,,,,,V3_033,18,Female,2024-10-23_13h13.02.219,jersey_experiment_5_v3,2023.2.2,Win32,84.74576271,15.2002,22.9096,return,7.6947,,,,,,,,,,,,,,,,,,,,,,,,,,,,,,,,,,,,,,,,,,,,,,,,,,,,,,,,,,,,,,,,,,,,,,,,,,
,,,,,V3_033,18,Female,2024-10-23_13h13.02.219,jersey_experiment_5_v3,2023.2.2,Win32,84.74576271,,,,,,22.9098,26.0003,return,3.0499,,,,,,,,,,,,,,,,,,,,,,,,,,,,,,,,,,,,,,,,,,,,,,,,,,,,,,,,,,,,,,,,,,,,,
,,,,,V3_033,18,Female,2024-10-23_13h13.02.219,jersey_experiment_5_v3,2023.2.2,Win32,84.74576271,,,,,,,,,,,26.0005,50.8248,return,24.8087,,,,,,,,,,,,,,,,,,,,,,,,,,,,,,,,,,,,,,,,,,,,,,,,,,,,,,,,,,,,,,,,
,,,,,V3_033,18,Female,2024-10-23_13h13.02.219,jersey_experiment_5_v3,2023.2.2,Win32,84.74576271,,,,,,,,,,,,,,,,50.8277,52.3777,52.3779,57.7779,return,1.875,,75.390625,0,0,0,49,1,FBP-RB-17.png,0.45,1.2,50,0.75,,,,,,,,,,,,,,,,,,,,,,,,,,,,,,,,,,,,,,,,,,,,,
,,,,,V3_033,18,Female,2024-10-23_13h13.02.219,jersey_experiment_5_v3,2023.2.2,Win32,84.74576271,,,,,,,,,,,,,,,,57.7783,59.331,59.3311,67.3665,return,2.9652,,50.65104167,0,1,1,1,1,FBP-YG-71.png,0.37,1.2,2,0.75,,,,,,,,,,,,,,,,,,,,,,,,,,,,,,,,,,,,,,,,,,,,,
,,,,,V3_033,18,Female,2024-10-23_13h13.02.219,jersey_experiment_5_v3,2023.2.2,Win32,84.74576271,,,,,,,,,,,,,,,,67.3669,68.6605,68.6607,73.7195,return,3.0898,,77.47395833,0,2,2,36,1,FBP-OG-18.png,0.37,1.2,37,0.5,,,,,,,,,,,,,,,,,,,,,,,,,,,,,,,,,,,,,,,,,,,,,
,,,,,V3_033,18,Female,2024-10-23_13h13.02.219,jersey_experiment_5_v3,2023.2.2,Win32,84.74576271,,,,,,,,,,,,,,,,73.7198,75.0137,75.0138,77.6138,return,1.0656,,92.1875,0,3,3,38,1,FBP-OG-18.png,0.43,1.2,39,0.5,,,,,,,,,,,,,,,,,,,,,,,,,,,,,,,,,,,,,,,,,,,,,
,,,,,V3_033,18,Female,2024-10-23_13h13.02.219,jersey_experiment_5_v3,2023.2.2,Win32,84.74576271,,,,,,,,,,,,,,,,77.614,79.1669,79.1669,82.0729,return,1.0437,,77.08333333,0,4,4,25,1,FBP-PT-19.png,0.35,1.2,26,0.75,,,,,,,,,,,,,,,,,,,,,,,,,,,,,,,,,,,,,,,,,,,,,
,,,,,V3_033,18,Female,2024-10-23_13h13.02.219,jersey_experiment_5_v3,2023.2.2,Win32,84.74576271,,,,,,,,,,,,,,,,82.073,83.367,83.3671,85.2729,return,0.717,,77.60416667,0,5,5,42,1,FBP-OG-19.png,0.4,1.2,43,0.5,,,,,,,,,,,,,,,,,,,,,,,,,,,,,,,,,,,,,,,,,,,,,
,,,,,V3_033,18,Female,2024-10-23_13h13.02.219,jersey_experiment_5_v3,2023.2.2,Win32,84.74576271,,,,,,,,,,,,,,,,85.2732,86.8261,86.8261,88.5201,return,0.3532,,97.78645833,0,6,6,4,1,FBP-YG-71.png,0.45,1.2,5,0.75,,,,,,,,,,,,,,,,,,,,,,,,,,,,,,,,,,,,,,,,,,,,,
,,,,,V3_033,18,Female,2024-10-23_13h13.02.219,jersey_experiment_5_v3,2023.2.2,Win32,84.74576271,,,,,,,,,,,,,,,,88.5203,90.073,90.073,92.038,return,0.7068,,91.53645833,0,7,7,11,1,FBP-YG-91.png,0.37,1.2,12,0.75,,,,,,,,,,,,,,,,,,,,,,,,,,,,,,,,,,,,,,,,,,,,,
,,,,,V3_033,18,Female,2024-10-23_13h13.02.219,jersey_experiment_5_v3,2023.2.2,Win32,84.74576271,,,,,,,,,,,,,,,,92.0382,93.5909,93.5909,95.8733,return,0.77,,93.22916667,0,8,8,50,1,FBP-RB-18.png,0.35,1.2,51,0.75,,,,,,,,,,,,,,,,,,,,,,,,,,,,,,,,,,,,,,,,,,,,,
,,,,,V3_033,18,Female,2024-10-23_13h13.02.219,jersey_experiment_5_v3,2023.2.2,Win32,84.74576271,,,,,,,,,,,,,,,,95.8735,97.4262,97.4263,100.0853,return,1.1665,,91.796875,0,9,9,21,1,FBP-PT-18.png,0.37,1.2,22,0.75,,,,,,,,,,,,,,,,,,,,,,,,,,,,,,,,,,,,,,,,,,,,,
,,,,,V3_033,18,Female,2024-10-23_13h13.02.219,jersey_experiment_5_v3,2023.2.2,Win32,84.74576271,,,,,,,,,,,,,,,,100.0855,101.3794,101.3794,103.5441,return,0.8689,,92.70833333,0,10,10,31,1,FBP-OG-17.png,0.37,1.2,32,0.5,,,,,,,,,,,,,,,,,,,,,,,,,,,,,,,,,,,,,,,,,,,,,
,,,,,V3_033,18,Female,2024-10-23_13h13.02.219,jersey_experiment_5_v3,2023.2.2,Win32,84.74576271,,,,,,,,,,,,,,,,103.5444,105.0972,105.0973,108.1679,return,0.9419,,99.34895833,0,11,11,54,1,FBP-RB-18.png,0.45,1.2,55,0.75,,,,,,,,,,,,,,,,,,,,,,,,,,,,,,,,,,,,,,,,,,,,,
,,,,,V3_033,18,Female,2024-10-23_13h13.02.219,jersey_experiment_5_v3,2023.2.2,Win32,84.74576271,,,,,,,,,,,,,,,,108.1681,109.7209,109.7209,111.4269,return,0.6817,,99.34895833,0,12,12,19,1,FBP-PT-17.png,0.45,1.2,20,0.75,,,,,,,,,,,,,,,,,,,,,,,,,,,,,,,,,,,,,,,,,,,,,
,,,,,V3_033,18,Female,2024-10-23_13h13.02.219,jersey_experiment_5_v3,2023.2.2,Win32,84.74576271,,,,,,,,,,,,,,,,111.4271,112.9798,112.9798,115.1211,return,0.6757,,96.22395833,0,13,13,59,1,FBP-RB-19.png,0.45,1.2,60,0.75,,,,,,,,,,,,,,,,,,,,,,,,,,,,,,,,,,,,,,,,,,,,,
,,,,,V3_033,18,Female,2024-10-23_13h13.02.219,jersey_experiment_5_v3,2023.2.2,Win32,84.74576271,,,,,,,,,,,,,,,,115.1213,116.4152,116.4152,119.6977,return,2.3658,,96.61458333,0,14,14,34,1,FBP-OG-17.png,0.45,1.2,35,0.5,,,,,,,,,,,,,,,,,,,,,,,,,,,,,,,,,,,,,,,,,,,,,
,,,,,V3_033,18,Female,2024-10-23_13h13.02.219,jersey_experiment_5_v3,2023.2.2,Win32,84.74576271,,,,,,,,,,,,,,,,119.6979,121.2509,121.2509,123.0625,return,0.6675,,73.56770833,0,15,15,17,1,FBP-PT-17.png,0.4,1.2,18,0.75,,,,,,,,,,,,,,,,,,,,,,,,,,,,,,,,,,,,,,,,,,,,,
,,,,,V3_033,18,Female,2024-10-23_13h13.02.219,jersey_experiment_5_v3,2023.2.2,Win32,84.74576271,,,,,,,,,,,,,,,,123.0628,124.3567,124.3567,126.4392,return,0.9439,,73.56770833,0,16,16,32,1,FBP-OG-17.png,0.4,1.2,33,0.5,,,,,,,,,,,,,,,,,,,,,,,,,,,,,,,,,,,,,,,,,,,,,
,,,,,V3_033,18,Female,2024-10-23_13h13.02.219,jersey_experiment_5_v3,2023.2.2,Win32,84.74576271,,,,,,,,,,,,,,,,126.4394,127.7334,127.7334,129.8393,return,0.8645,,74.73958333,0,17,17,39,1,FBP-OG-18.png,0.45,1.2,40,0.5,,,,,,,,,,,,,,,,,,,,,,,,,,,,,,,,,,,,,,,,,,,,,
,,,,,V3_033,18,Female,2024-10-23_13h13.02.219,jersey_experiment_5_v3,2023.2.2,Win32,84.74576271,,,,,,,,,,,,,,,,129.8395,131.3922,131.3922,132.7922,return,0.5448,,90.625,0,18,18,28,1,FBP-PT-19.png,0.43,1.2,29,0.75,,,,,,,,,,,,,,,,,,,,,,,,,,,,,,,,,,,,,,,,,,,,,
,,,,,V3_033,18,Female,2024-10-23_13h13.02.219,jersey_experiment_5_v3,2023.2.2,Win32,84.74576271,,,,,,,,,,,,,,,,132.7925,134.3453,134.3454,136.0984,return,0.5451,,72.13541667,0,19,19,45,1,FBP-RB-17.png,0.35,1.2,46,0.75,,,,,,,,,,,,,,,,,,,,,,,,,,,,,,,,,,,,,,,,,,,,,
,,,,,V3_033,18,Female,2024-10-23_13h13.02.219,jersey_experiment_5_v3,2023.2.2,Win32,84.74576271,,,,,,,,,,,,,,,,136.0986,137.6514,137.6514,139.5337,return,0.7609,,69.53125,0,20,20,2,1,FBP-YG-71.png,0.4,1.2,3,0.75,,,,,,,,,,,,,,,,,,,,,,,,,,,,,,,,,,,,,,,,,,,,,
,,,,,V3_033,18,Female,2024-10-23_13h13.02.219,jersey_experiment_5_v3,2023.2.2,Win32,84.74576271,,,,,,,,,,,,,,,,139.5339,141.087,141.0871,142.9927,return,0.9568,,95.3125,0,21,21,14,1,FBP-YG-91.png,0.45,1.2,15,0.75,,,,,,,,,,,,,,,,,,,,,,,,,,,,,,,,,,,,,,,,,,,,,
,,,,,V3_033,18,Female,2024-10-23_13h13.02.219,jersey_experiment_5_v3,2023.2.2,Win32,84.74576271,,,,,,,,,,,,,,,,142.9929,144.5458,144.5459,146.2869,return,0.737,,73.56770833,0,22,22,18,1,FBP-PT-17.png,0.43,1.2,19,0.75,,,,,,,,,,,,,,,,,,,,,,,,,,,,,,,,,,,,,,,,,,,,,
,,,,,V3_033,18,Female,2024-10-23_13h13.02.219,jersey_experiment_5_v3,2023.2.2,Win32,84.74576271,,,,,,,,,,,,,,,,146.287,147.5811,147.5811,149.24,return,0.2962,,55.33854167,0,23,23,41,1,FBP-OG-19.png,0.37,1.2,42,0.5,,,,,,,,,,,,,,,,,,,,,,,,,,,,,,,,,,,,,,,,,,,,,
,,,,,V3_033,18,Female,2024-10-23_13h13.02.219,jersey_experiment_5_v3,2023.2.2,Win32,84.74576271,,,,,,,,,,,,,,,,149.2403,150.7929,150.793,152.1343,return,0.3683,,60.02604167,0,24,24,22,1,FBP-PT-18.png,0.4,1.2,23,0.75,,,,,,,,,,,,,,,,,,,,,,,,,,,,,,,,,,,,,,,,,,,,,
,,,,,V3_033,18,Female,2024-10-23_13h13.02.219,jersey_experiment_5_v3,2023.2.2,Win32,84.74576271,,,,,,,,,,,,,,,,152.1345,153.6872,153.6873,155.3343,return,0.4865,,90.625,0,25,25,58,1,FBP-RB-19.png,0.43,1.2,59,0.75,,,,,,,,,,,,,,,,,,,,,,,,,,,,,,,,,,,,,,,,,,,,,
,,,,,V3_033,18,Female,2024-10-23_13h13.02.219,jersey_experiment_5_v3,2023.2.2,Win32,84.74576271,,,,,,,,,,,,,,,,155.3345,156.6285,156.6286,158.0991,return,0.262,,98.56770833,0,26,26,33,1,FBP-OG-17.png,0.43,1.2,34,0.5,,,,,,,,,,,,,,,,,,,,,,,,,,,,,,,,,,,,,,,,,,,,,
,,,,,V3_033,18,Female,2024-10-23_13h13.02.219,jersey_experiment_5_v3,2023.2.2,Win32,84.74576271,,,,,,,,,,,,,,,,158.0994,159.652,159.6521,161.8876,return,1.3008,,92.44791667,0,27,27,53,1,FBP-RB-18.png,0.43,1.2,54,0.75,,,,,,,,,,,,,,,,,,,,,,,,,,,,,,,,,,,,,,,,,,,,,
,,,,,V3_033,18,Female,2024-10-23_13h13.02.219,jersey_experiment_5_v3,2023.2.2,Win32,84.74576271,,,,,,,,,,,,,,,,161.8877,163.1818,163.1818,164.5936,return,0.4282,,72.78645833,0,28,28,30,1,FBP-OG-17.png,0.35,1.2,31,0.5,,,,,,,,,,,,,,,,,,,,,,,,,,,,,,,,,,,,,,,,,,,,,
,,,,,V3_033,18,Female,2024-10-23_13h13.02.219,jersey_experiment_5_v3,2023.2.2,Win32,84.74576271,,,,,,,,,,,,,,,,164.5937,166.1464,166.1466,167.5348,return,0.3839,,67.83854167,0,29,29,6,1,FBP-YG-81.png,0.37,1.2,7,0.75,,,,,,,,,,,,,,,,,,,,,,,,,,,,,,,,,,,,,,,,,,,,,
,,,,,V3_033,18,Female,2024-10-23_13h13.02.219,jersey_experiment_5_v3,2023.2.2,Win32,84.74576271,,,,,,,,,,,,,,,,167.5351,169.0878,169.0878,170.3585,return,0.2671,,82.8125,0,30,30,3,1,FBP-YG-71.png,0.43,1.2,4,0.75,,,,,,,,,,,,,,,,,,,,,,,,,,,,,,,,,,,,,,,,,,,,,
,,,,,V3_033,18,Female,2024-10-23_13h13.02.219,jersey_experiment_5_v3,2023.2.2,Win32,84.74576271,,,,,,,,,,,,,,,,170.3587,171.9115,171.9116,173.488,return,0.2991,,99.08854167,0,31,31,48,1,FBP-RB-17.png,0.43,1.2,49,0.75,,,,,,,,,,,,,,,,,,,,,,,,,,,,,,,,,,,,,,,,,,,,,
,,,,,V3_033,18,Female,2024-10-23_13h13.02.219,jersey_experiment_5_v3,2023.2.2,Win32,84.74576271,,,,,,,,,,,,,,,,173.4882,175.041,175.0411,176.947,return,0.4034,,40.625,0,32,32,15,1,FBP-PT-17.png,0.35,1.2,16,0.75,,,,,,,,,,,,,,,,,,,,,,,,,,,,,,,,,,,,,,,,,,,,,
,,,,,V3_033,18,Female,2024-10-23_13h13.02.219,jersey_experiment_5_v3,2023.2.2,Win32,84.74576271,,,,,,,,,,,,,,,,176.9472,178.2412,178.2412,180.0059,return,0.5416,,97.78645833,0,33,33,44,1,FBP-OG-19.png,0.45,1.2,45,0.5,,,,,,,,,,,,,,,,,,,,,,,,,,,,,,,,,,,,,,,,,,,,,
,,,,,V3_033,18,Female,2024-10-23_13h13.02.219,jersey_experiment_5_v3,2023.2.2,Win32,84.74576271,,,,,,,,,,,,,,,,180.0062,181.5587,181.5588,184.2764,return,0.3744,,57.16145833,0,34,34,51,1,FBP-RB-18.png,0.37,1.2,52,0.75,,,,,,,,,,,,,,,,,,,,,,,,,,,,,,,,,,,,,,,,,,,,,
,,,,,V3_033,18,Female,2024-10-23_13h13.02.219,jersey_experiment_5_v3,2023.2.2,Win32,84.74576271,,,,,,,,,,,,,,,,184.2767,185.8296,185.8296,187.2059,return,0.4092,,58.46354167,0,35,35,5,1,FBP-YG-81.png,0.35,1.2,6,0.75,,,,,,,,,,,,,,,,,,,,,,,,,,,,,,,,,,,,,,,,,,,,,
,,,,,V3_033,18,Female,2024-10-23_13h13.02.219,jersey_experiment_5_v3,2023.2.2,Win32,84.74576271,,,,,,,,,,,,,,,,187.2062,188.7592,188.7593,189.8769,return,0.2746,,70.05208333,0,36,36,52,1,FBP-RB-18.png,0.4,1.2,53,0.75,,,,,,,,,,,,,,,,,,,,,,,,,,,,,,,,,,,,,,,,,,,,,
,,,,,V3_033,18,Female,2024-10-23_13h13.02.219,jersey_experiment_5_v3,2023.2.2,Win32,84.74576271,,,,,,,,,,,,,,,,189.8771,191.4298,191.4299,193.3359,return,0.4495,,68.48958333,0,37,37,56,1,FBP-RB-19.png,0.37,1.2,57,0.75,,,,,,,,,,,,,,,,,,,,,,,,,,,,,,,,,,,,,,,,,,,,,
,,,,,V3_033,18,Female,2024-10-23_13h13.02.219,jersey_experiment_5_v3,2023.2.2,Win32,84.74576271,,,,,,,,,,,,,,,,193.3362,194.889,194.889,196.6064,return,0.6417,,69.01041667,0,38,38,55,1,FBP-RB-19.png,0.35,1.2,56,0.75,,,,,,,,,,,,,,,,,,,,,,,,,,,,,,,,,,,,,,,,,,,,,
,,,,,V3_033,18,Female,2024-10-23_13h13.02.219,jersey_experiment_5_v3,2023.2.2,Win32,84.74576271,,,,,,,,,,,,,,,,196.6067,197.9006,197.9006,199.7478,return,0.6849,,82.29166667,0,39,39,37,1,FBP-OG-18.png,0.4,1.2,38,0.5,,,,,,,,,,,,,,,,,,,,,,,,,,,,,,,,,,,,,,,,,,,,,
,,,,,V3_033,18,Female,2024-10-23_13h13.02.219,jersey_experiment_5_v3,2023.2.2,Win32,84.74576271,,,,,,,,,,,,,,,,199.748,201.3009,201.3009,204.3126,return,0.6926,,81.77083333,0,40,40,26,1,FBP-PT-19.png,0.37,1.2,27,0.75,,,,,,,,,,,,,,,,,,,,,,,,,,,,,,,,,,,,,,,,,,,,,
,,,,,V3_033,18,Female,2024-10-23_13h13.02.219,jersey_experiment_5_v3,2023.2.2,Win32,84.74576271,,,,,,,,,,,,,,,,204.313,205.8655,205.8655,208.1833,return,1.2711,,89.71354167,0,41,41,27,1,FBP-PT-19.png,0.4,1.2,28,0.75,,,,,,,,,,,,,,,,,,,,,,,,,,,,,,,,,,,,,,,,,,,,,
,,,,,V3_033,18,Female,2024-10-23_13h13.02.219,jersey_experiment_5_v3,2023.2.2,Win32,84.74576271,,,,,,,,,,,,,,,,208.1835,209.7364,209.7364,211.6305,return,0.7369,,80.72916667,0,42,42,10,1,FBP-YG-91.png,0.35,1.2,11,0.75,,,,,,,,,,,,,,,,,,,,,,,,,,,,,,,,,,,,,,,,,,,,,
,,,,,V3_033,18,Female,2024-10-23_13h13.02.219,jersey_experiment_5_v3,2023.2.2,Win32,84.74576271,,,,,,,,,,,,,,,,211.6307,213.1836,213.1836,214.4659,return,0.4159,,80.859375,0,43,43,57,1,FBP-RB-19.png,0.4,1.2,58,0.75,,,,,,,,,,,,,,,,,,,,,,,,,,,,,,,,,,,,,,,,,,,,,
,,,,,V3_033,18,Female,2024-10-23_13h13.02.219,jersey_experiment_5_v3,2023.2.2,Win32,84.74576271,,,,,,,,,,,,,,,,214.4662,216.0191,216.0191,217.1838,return,0.2889,,97.91666667,0,44,44,8,1,FBP-YG-81.png,0.43,1.2,9,0.75,,,,,,,,,,,,,,,,,,,,,,,,,,,,,,,,,,,,,,,,,,,,,
,,,,,V3_033,18,Female,2024-10-23_13h13.02.219,jersey_experiment_5_v3,2023.2.2,Win32,84.74576271,,,,,,,,,,,,,,,,217.1839,218.7366,218.7367,220.3368,return,0.3818,,42.83854167,0,45,45,20,1,FBP-PT-18.png,0.35,1.2,21,0.75,,,,,,,,,,,,,,,,,,,,,,,,,,,,,,,,,,,,,,,,,,,,,
,,,,,V3_033,18,Female,2024-10-23_13h13.02.219,jersey_experiment_5_v3,2023.2.2,Win32,84.74576271,,,,,,,,,,,,,,,,220.337,221.8898,221.8898,224.6898,return,0.695,,68.359375,0,46,46,9,1,FBP-YG-81.png,0.45,1.2,10,0.75,,,,,,,,,,,,,,,,,,,,,,,,,,,,,,,,,,,,,,,,,,,,,
,,,,,V3_033,18,Female,2024-10-23_13h13.02.219,jersey_experiment_5_v3,2023.2.2,Win32,84.74576271,,,,,,,,,,,,,,,,224.6901,226.2428,226.2429,228.1017,return,0.3769,,95.57291667,0,47,47,0,1,FBP-YG-71.png,0.35,1.2,1,0.75,,,,,,,,,,,,,,,,,,,,,,,,,,,,,,,,,,,,,,,,,,,,,
,,,,,V3_033,18,Female,2024-10-23_13h13.02.219,jersey_experiment_5_v3,2023.2.2,Win32,84.74576271,,,,,,,,,,,,,,,,228.1019,229.6547,229.6548,231.2313,return,0.3204,,85.02604167,0,48,48,46,1,FBP-RB-17.png,0.37,1.2,47,0.75,,,,,,,,,,,,,,,,,,,,,,,,,,,,,,,,,,,,,,,,,,,,,
,,,,,V3_033,18,Female,2024-10-23_13h13.02.219,jersey_experiment_5_v3,2023.2.2,Win32,84.74576271,,,,,,,,,,,,,,,,231.2315,232.7843,232.7844,234.4784,return,0.6432,,94.40104167,0,49,49,7,1,FBP-YG-81.png,0.4,1.2,8,0.75,,,,,,,,,,,,,,,,,,,,,,,,,,,,,,,,,,,,,,,,,,,,,
,,,,,V3_033,18,Female,2024-10-23_13h13.02.219,jersey_experiment_5_v3,2023.2.2,Win32,84.74576271,,,,,,,,,,,,,,,,234.4786,236.0314,236.0314,237.6197,return,0.5806,,82.94270833,0,50,50,47,1,FBP-RB-17.png,0.4,1.2,48,0.75,,,,,,,,,,,,,,,,,,,,,,,,,,,,,,,,,,,,,,,,,,,,,
,,,,,V3_033,18,Female,2024-10-23_13h13.02.219,jersey_experiment_5_v3,2023.2.2,Win32,84.74576271,,,,,,,,,,,,,,,,237.62,239.1728,239.173,240.6082,return,0.3948,,81.90104167,0,51,51,16,1,FBP-PT-17.png,0.37,1.2,17,0.75,,,,,,,,,,,,,,,,,,,,,,,,,,,,,,,,,,,,,,,,,,,,,
,,,,,V3_033,18,Female,2024-10-23_13h13.02.219,jersey_experiment_5_v3,2023.2.2,Win32,84.74576271,,,,,,,,,,,,,,,,240.6083,241.9022,241.9023,243.1022,return,0.4197,,81.11979167,0,52,52,40,1,FBP-OG-19.png,0.35,1.2,41,0.5,,,,,,,,,,,,,,,,,,,,,,,,,,,,,,,,,,,,,,,,,,,,,
,,,,,V3_033,18,Female,2024-10-23_13h13.02.219,jersey_experiment_5_v3,2023.2.2,Win32,84.74576271,,,,,,,,,,,,,,,,243.1024,244.3964,244.3964,245.7848,return,0.3431,,99.73958333,0,53,53,43,1,FBP-OG-19.png,0.43,1.2,44,0.5,,,,,,,,,,,,,,,,,,,,,,,,,,,,,,,,,,,,,,,,,,,,,
,,,,,V3_033,18,Female,2024-10-23_13h13.02.219,jersey_experiment_5_v3,2023.2.2,Win32,84.74576271,,,,,,,,,,,,,,,,245.785,247.3379,247.338,248.9143,return,0.2116,,98.69791667,0,54,54,24,1,FBP-PT-18.png,0.45,1.2,25,0.75,,,,,,,,,,,,,,,,,,,,,,,,,,,,,,,,,,,,,,,,,,,,,
,,,,,V3_033,18,Female,2024-10-23_13h13.02.219,jersey_experiment_5_v3,2023.2.2,Win32,84.74576271,,,,,,,,,,,,,,,,248.9144,250.4674,250.4675,251.8086,return,0.3469,,88.41145833,0,55,55,13,1,FBP-YG-91.png,0.43,1.2,14,0.75,,,,,,,,,,,,,,,,,,,,,,,,,,,,,,,,,,,,,,,,,,,,,
,,,,,V3_033,18,Female,2024-10-23_13h13.02.219,jersey_experiment_5_v3,2023.2.2,Win32,84.74576271,,,,,,,,,,,,,,,,251.8088,253.3617,253.3617,254.8556,return,0.4341,,87.36979167,0,56,56,23,1,FBP-PT-18.png,0.43,1.2,24,0.75,,,,,,,,,,,,,,,,,,,,,,,,,,,,,,,,,,,,,,,,,,,,,
,,,,,V3_033,18,Female,2024-10-23_13h13.02.219,jersey_experiment_5_v3,2023.2.2,Win32,84.74576271,,,,,,,,,,,,,,,,254.8558,256.1499,256.15,258.4206,return,0.8243,,63.93229167,0,57,57,35,1,FBP-OG-18.png,0.35,1.2,36,0.5,,,,,,,,,,,,,,,,,,,,,,,,,,,,,,,,,,,,,,,,,,,,,
,,,,,V3_033,18,Female,2024-10-23_13h13.02.219,jersey_experiment_5_v3,2023.2.2,Win32,84.74576271,,,,,,,,,,,,,,,,258.4208,259.9735,259.9735,261.4089,return,0.4724,,75.52083333,0,58,58,12,1,FBP-YG-91.png,0.4,1.2,13,0.75,,,,,,,,,,,,,,,,,,,,,,,,,,,,,,,,,,,,,,,,,,,,,
,,,,,V3_033,18,Female,2024-10-23_13h13.02.219,jersey_experiment_5_v3,2023.2.2,Win32,84.74576271,,,,,,,,,,,,,,,,261.4091,262.962,262.962,264.3855,return,0.4283,,99.609375,0,59,59,29,1,FBP-PT-19.png,0.45,1.2,30,0.75,,,,,,,,,,,,,,,,,,,,,,,,,,,,,,,,,,,,,,,,,,,,,
,,,,,V3_033,18,Female,2024-10-23_13h13.02.219,jersey_experiment_5_v3,2023.2.2,Win32,84.74576271,,,,,,,,,,,,,,,,264.3879,265.9383,265.9384,267.7619,return,0.2861,,58.203125,,,,,,FBP-PT-71.png,0.35,1.2,16,0.75,0,0,0,15,1,,,,,,,,,,,,,,,,,,,,,,,,,,,,,,,,,,,,,,,,
,,,,,V3_033,18,Female,2024-10-23_13h13.02.219,jersey_experiment_5_v3,2023.2.2,Win32,84.74576271,,,,,,,,,,,,,,,,267.7622,269.315,269.3151,270.6562,return,0.2768,,59.50520833,,,,,,FBP-PT-91.png,0.35,1.2,26,0.75,0,1,1,25,1,,,,,,,,,,,,,,,,,,,,,,,,,,,,,,,,,,,,,,,,
,,,,,V3_033,18,Female,2024-10-23_13h13.02.219,jersey_experiment_5_v3,2023.2.2,Win32,84.74576271,,,,,,,,,,,,,,,,270.6564,272.2093,272.2093,273.5976,return,0.2895,,80.46875,,,,,,FBP-YG-17.png,0.37,1.2,2,0.75,0,2,2,1,1,,,,,,,,,,,,,,,,,,,,,,,,,,,,,,,,,,,,,,,,
,,,,,V3_033,18,Female,2024-10-23_13h13.02.219,jersey_experiment_5_v3,2023.2.2,Win32,84.74576271,,,,,,,,,,,,,,,,273.5977,275.1504,275.1504,276.6447,return,0.4721,,79.03645833,,,,,,FBP-PT-91.png,0.4,1.2,28,0.75,0,3,3,27,1,,,,,,,,,,,,,,,,,,,,,,,,,,,,,,,,,,,,,,,,
,,,,,V3_033,18,Female,2024-10-23_13h13.02.219,jersey_experiment_5_v3,2023.2.2,Win32,84.74576271,,,,,,,,,,,,,,,,276.6449,278.1977,278.1977,279.9977,return,0.5479,,90.625,,,,,,FBP-PT-81.png,0.43,1.2,24,0.75,0,4,4,23,1,,,,,,,,,,,,,,,,,,,,,,,,,,,,,,,,,,,,,,,,
,,,,,V3_033,18,Female,2024-10-23_13h13.02.219,jersey_experiment_5_v3,2023.2.2,Win32,84.74576271,,,,,,,,,,,,,,,,279.998,281.5507,281.5507,283.6332,return,0.2958,,65.10416667,,,,,,FBP-RB-71.png,0.35,1.2,46,0.75,0,5,5,45,1,,,,,,,,,,,,,,,,,,,,,,,,,,,,,,,,,,,,,,,,
,,,,,V3_033,18,Female,2024-10-23_13h13.02.219,jersey_experiment_5_v3,2023.2.2,Win32,84.74576271,,,,,,,,,,,,,,,,283.6334,285.1862,285.1862,287.1392,return,0.8266,,60.546875,,,,,,FBP-YG-19.png,0.37,1.2,12,0.75,0,6,6,11,1,,,,,,,,,,,,,,,,,,,,,,,,,,,,,,,,,,,,,,,,
,,,,,V3_033,18,Female,2024-10-23_13h13.02.219,jersey_experiment_5_v3,2023.2.2,Win32,84.74576271,,,,,,,,,,,,,,,,287.1394,288.6921,288.6922,290.1274,return,0.4647,,60.546875,,,,,,FBP-YG-18.png,0.4,1.2,8,0.75,0,7,7,7,1,,,,,,,,,,,,,,,,,,,,,,,,,,,,,,,,,,,,,,,,
,,,,,V3_033,18,Female,2024-10-23_13h13.02.219,jersey_experiment_5_v3,2023.2.2,Win32,84.74576271,,,,,,,,,,,,,,,,290.1277,291.4216,291.4217,294.8218,return,2.1331,,94.66145833,,,,,,FBP-OG-81.png,0.45,1.2,40,0.5,0,8,8,39,1,,,,,,,,,,,,,,,,,,,,,,,,,,,,,,,,,,,,,,,,
,,,,,V3_033,18,Female,2024-10-23_13h13.02.219,jersey_experiment_5_v3,2023.2.2,Win32,84.74576271,,,,,,,,,,,,,,,,294.822,296.375,296.3751,297.7748,return,0.4309,,90.49479167,,,,,,FBP-YG-18.png,0.43,1.2,9,0.75,0,9,9,8,1,,,,,,,,,,,,,,,,,,,,,,,,,,,,,,,,,,,,,,,,
,,,,,V3_033,18,Female,2024-10-23_13h13.02.219,jersey_experiment_5_v3,2023.2.2,Win32,84.74576271,,,,,,,,,,,,,,,,297.7751,299.0692,299.0692,300.5632,return,0.557,,78.38541667,,,,,,FBP-OG-81.png,0.35,1.2,36,0.5,0,10,10,35,1,,,,,,,,,,,,,,,,,,,,,,,,,,,,,,,,,,,,,,,,
,,,,,V3_033,18,Female,2024-10-23_13h13.02.219,jersey_experiment_5_v3,2023.2.2,Win32,84.74576271,,,,,,,,,,,,,,,,300.5634,302.1164,302.1164,303.3636,return,0.2141,,99.34895833,,,,,,FBP-YG-17.png,0.45,1.2,5,0.75,0,11,11,4,1,,,,,,,,,,,,,,,,,,,,,,,,,,,,,,,,,,,,,,,,
,,,,,V3_033,18,Female,2024-10-23_13h13.02.219,jersey_experiment_5_v3,2023.2.2,Win32,84.74576271,,,,,,,,,,,,,,,,303.3638,304.9164,304.9164,306.5754,return,0.25,,62.63020833,,,,,,FBP-YG-18.png,0.35,1.2,6,0.75,0,12,12,5,1,,,,,,,,,,,,,,,,,,,,,,,,,,,,,,,,,,,,,,,,
,,,,,V3_033,18,Female,2024-10-23_13h13.02.219,jersey_experiment_5_v3,2023.2.2,Win32,84.74576271,,,,,,,,,,,,,,,,306.5756,307.8695,307.8695,309.446,return,0.5178,,88.41145833,,,,,,FBP-OG-91.png,0.45,1.2,45,0.5,0,13,13,44,1,,,,,,,,,,,,,,,,,,,,,,,,,,,,,,,,,,,,,,,,
,,,,,V3_033,18,Female,2024-10-23_13h13.02.219,jersey_experiment_5_v3,2023.2.2,Win32,84.74576271,,,,,,,,,,,,,,,,309.4462,310.7401,310.7401,312.2459,return,0.4339,,87.36979167,,,,,,FBP-OG-81.png,0.4,1.2,38,0.5,0,14,14,37,1,,,,,,,,,,,,,,,,,,,,,,,,,,,,,,,,,,,,,,,,
,,,,,V3_033,18,Female,2024-10-23_13h13.02.219,jersey_experiment_5_v3,2023.2.2,Win32,84.74576271,,,,,,,,,,,,,,,,312.2462,313.799,313.799,314.8695,return,0.306,,70.57291667,,,,,,FBP-YG-17.png,0.35,1.2,1,0.75,0,15,15,0,1,,,,,,,,,,,,,,,,,,,,,,,,,,,,,,,,,,,,,,,,
,,,,,V3_033,18,Female,2024-10-23_13h13.02.219,jersey_experiment_5_v3,2023.2.2,Win32,84.74576271,,,,,,,,,,,,,,,,314.8697,316.4227,316.4227,317.2815,return,0.2249,,71.22395833,,,,,,FBP-PT-71.png,0.37,1.2,17,0.75,0,16,16,16,1,,,,,,,,,,,,,,,,,,,,,,,,,,,,,,,,,,,,,,,,
,,,,,V3_033,18,Female,2024-10-23_13h13.02.219,jersey_experiment_5_v3,2023.2.2,Win32,84.74576271,,,,,,,,,,,,,,,,317.2817,318.8346,318.8346,320.4228,return,0.3449,,80.078125,,,,,,FBP-RB-91.png,0.37,1.2,57,0.75,0,17,17,56,1,,,,,,,,,,,,,,,,,,,,,,,,,,,,,,,,,,,,,,,,
,,,,,V3_033,18,Female,2024-10-23_13h13.02.219,jersey_experiment_5_v3,2023.2.2,Win32,84.74576271,,,,,,,,,,,,,,,,320.4231,321.717,321.717,323.1758,return,0.4157,,95.3125,,,,,,FBP-OG-81.png,0.43,1.2,39,0.5,0,18,18,38,1,,,,,,,,,,,,,,,,,,,,,,,,,,,,,,,,,,,,,,,,
,,,,,V3_033,18,Female,2024-10-23_13h13.02.219,jersey_experiment_5_v3,2023.2.2,Win32,84.74576271,,,,,,,,,,,,,,,,323.176,324.47,324.4701,325.8465,return,0.4785,,91.27604167,,,,,,FBP-OG-71.png,0.35,1.2,31,0.5,0,19,19,30,1,,,,,,,,,,,,,,,,,,,,,,,,,,,,,,,,,,,,,,,,
,,,,,V3_033,18,Female,2024-10-23_13h13.02.219,jersey_experiment_5_v3,2023.2.2,Win32,84.74576271,,,,,,,,,,,,,,,,325.8467,327.3994,327.3995,333.1055,return,1.5304,,89.58333333,,,,,,FBP-RB-71.png,0.43,1.2,49,0.75,0,20,20,48,1,,,,,,,,,,,,,,,,,,,,,,,,,,,,,,,,,,,,,,,,
,,,,,V3_033,18,Female,2024-10-23_13h13.02.219,jersey_experiment_5_v3,2023.2.2,Win32,84.74576271,,,,,,,,,,,,,,,,333.1058,334.6585,334.6585,341.6353,return,2.4735,,89.97395833,,,,,,FBP-RB-81.png,0.35,1.2,51,0.75,0,21,21,50,1,,,,,,,,,,,,,,,,,,,,,,,,,,,,,,,,,,,,,,,,
,,,,,V3_033,18,Female,2024-10-23_13h13.02.219,jersey_experiment_5_v3,2023.2.2,Win32,84.74576271,,,,,,,,,,,,,,,,341.6356,343.1883,343.1884,344.4237,return,0.3684,,94.140625,,,,,,FBP-PT-81.png,0.45,1.2,25,0.75,0,22,22,24,1,,,,,,,,,,,,,,,,,,,,,,,,,,,,,,,,,,,,,,,,
,,,,,V3_033,18,Female,2024-10-23_13h13.02.219,jersey_experiment_5_v3,2023.2.2,Win32,84.74576271,,,,,,,,,,,,,,,,344.4239,345.9768,345.9769,349.2003,return,1.0294,,93.88020833,,,,,,FBP-YG-17.png,0.43,1.2,4,0.75,0,23,23,3,1,,,,,,,,,,,,,,,,,,,,,,,,,,,,,,,,,,,,,,,,
,,,,,V3_033,18,Female,2024-10-23_13h13.02.219,jersey_experiment_5_v3,2023.2.2,Win32,84.74576271,,,,,,,,,,,,,,,,349.2007,350.7533,350.7534,353.777,return,1.8745,,74.08854167,,,,,,FBP-PT-91.png,0.37,1.2,27,0.75,0,24,24,26,1,,,,,,,,,,,,,,,,,,,,,,,,,,,,,,,,,,,,,,,,
,,,,,V3_033,18,Female,2024-10-23_13h13.02.219,jersey_experiment_5_v3,2023.2.2,Win32,84.74576271,,,,,,,,,,,,,,,,353.7772,355.0711,355.0711,356.3536,return,0.3301,,74.73958333,,,,,,FBP-OG-71.png,0.37,1.2,32,0.5,0,25,25,31,1,,,,,,,,,,,,,,,,,,,,,,,,,,,,,,,,,,,,,,,,
,,,,,V3_033,18,Female,2024-10-23_13h13.02.219,jersey_experiment_5_v3,2023.2.2,Win32,84.74576271,,,,,,,,,,,,,,,,356.3538,357.6477,357.6477,359.0242,return,0.3905,,74.34895833,,,,,,FBP-OG-91.png,0.4,1.2,43,0.5,0,26,26,42,1,,,,,,,,,,,,,,,,,,,,,,,,,,,,,,,,,,,,,,,,
,,,,,V3_033,18,Female,2024-10-23_13h13.02.219,jersey_experiment_5_v3,2023.2.2,Win32,84.74576271,,,,,,,,,,,,,,,,359.0245,360.5772,360.5773,362.0361,return,0.3315,,99.86979167,,,,,,FBP-PT-91.png,0.45,1.2,30,0.75,0,27,27,29,1,,,,,,,,,,,,,,,,,,,,,,,,,,,,,,,,,,,,,,,,
,,,,,V3_033,18,Female,2024-10-23_13h13.02.219,jersey_experiment_5_v3,2023.2.2,Win32,84.74576271,,,,,,,,,,,,,,,,362.0363,363.589,363.5891,365.0597,return,0.4611,,74.73958333,,,,,,FBP-YG-19.png,0.4,1.2,13,0.75,0,28,28,12,1,,,,,,,,,,,,,,,,,,,,,,,,,,,,,,,,,,,,,,,,
,,,,,V3_033,18,Female,2024-10-23_13h13.02.219,jersey_experiment_5_v3,2023.2.2,Win32,84.74576271,,,,,,,,,,,,,,,,365.0599,366.6129,366.6129,368.0951,return,0.5365,,99.08854167,,,,,,FBP-YG-19.png,0.43,1.2,14,0.75,0,29,29,13,1,,,,,,,,,,,,,,,,,,,,,,,,,,,,,,,,,,,,,,,,
,,,,,V3_033,18,Female,2024-10-23_13h13.02.219,jersey_experiment_5_v3,2023.2.2,Win32,84.74576271,,,,,,,,,,,,,,,,368.0954,369.3893,369.3893,371.0129,return,0.5093,,69.921875,,,,,,FBP-OG-71.png,0.4,1.2,33,0.5,0,30,30,32,1,,,,,,,,,,,,,,,,,,,,,,,,,,,,,,,,,,,,,,,,
,,,,,V3_033,18,Female,2024-10-23_13h13.02.219,jersey_experiment_5_v3,2023.2.2,Win32,84.74576271,,,,,,,,,,,,,,,,371.0132,372.5659,372.5659,374.072,return,0.51,,68.48958333,,,,,,FBP-PT-91.png,0.43,1.2,29,0.75,0,31,31,28,1,,,,,,,,,,,,,,,,,,,,,,,,,,,,,,,,,,,,,,,,
,,,,,V3_033,18,Female,2024-10-23_13h13.02.219,jersey_experiment_5_v3,2023.2.2,Win32,84.74576271,,,,,,,,,,,,,,,,374.0723,375.6249,375.6249,376.8955,return,0.4187,,99.86979167,,,,,,FBP-YG-19.png,0.45,1.2,15,0.75,0,32,32,14,1,,,,,,,,,,,,,,,,,,,,,,,,,,,,,,,,,,,,,,,,
,,,,,V3_033,18,Female,2024-10-23_13h13.02.219,jersey_experiment_5_v3,2023.2.2,Win32,84.74576271,,,,,,,,,,,,,,,,376.8958,378.4487,378.4487,379.7664,return,0.3917,,37.63020833,,,,,,FBP-YG-19.png,0.35,1.2,11,0.75,0,33,33,10,1,,,,,,,,,,,,,,,,,,,,,,,,,,,,,,,,,,,,,,,,
,,,,,V3_033,18,Female,2024-10-23_13h13.02.219,jersey_experiment_5_v3,2023.2.2,Win32,84.74576271,,,,,,,,,,,,,,,,379.7666,381.3193,381.3194,382.625,return,0.5541,,76.43229167,,,,,,FBP-RB-71.png,0.4,1.2,48,0.75,0,34,34,47,1,,,,,,,,,,,,,,,,,,,,,,,,,,,,,,,,,,,,,,,,
,,,,,V3_033,18,Female,2024-10-23_13h13.02.219,jersey_experiment_5_v3,2023.2.2,Win32,84.74576271,,,,,,,,,,,,,,,,382.6252,384.1665,384.1666,385.2723,return,0.2985,,75.26041667,,,,,,FBP-RB-91.png,0.35,1.2,56,0.75,0,35,35,55,1,,,,,,,,,,,,,,,,,,,,,,,,,,,,,,,,,,,,,,,,
,,,,,V3_033,18,Female,2024-10-23_13h13.02.219,jersey_experiment_5_v3,2023.2.2,Win32,84.74576271,,,,,,,,,,,,,,,,385.2724,386.8253,386.8254,388.19,return,0.3964,,88.28125,,,,,,FBP-YG-18.png,0.45,1.2,10,0.75,0,36,36,9,1,,,,,,,,,,,,,,,,,,,,,,,,,,,,,,,,,,,,,,,,
,,,,,V3_033,18,Female,2024-10-23_13h13.02.219,jersey_experiment_5_v3,2023.2.2,Win32,84.74576271,,,,,,,,,,,,,,,,388.1902,389.7431,389.7431,390.9197,return,0.3453,,88.41145833,,,,,,FBP-RB-91.png,0.43,1.2,59,0.75,0,37,37,58,1,,,,,,,,,,,,,,,,,,,,,,,,,,,,,,,,,,,,,,,,
,,,,,V3_033,18,Female,2024-10-23_13h13.02.219,jersey_experiment_5_v3,2023.2.2,Win32,84.74576271,,,,,,,,,,,,,,,,390.9199,392.461,392.461,393.9196,return,0.4632,,60.9375,,,,,,FBP-YG-18.png,0.37,1.2,7,0.75,0,38,38,6,1,,,,,,,,,,,,,,,,,,,,,,,,,,,,,,,,,,,,,,,,
,,,,,V3_033,18,Female,2024-10-23_13h13.02.219,jersey_experiment_5_v3,2023.2.2,Win32,84.74576271,,,,,,,,,,,,,,,,393.9199,395.2138,395.2138,396.4962,return,0.4416,,74.08854167,,,,,,FBP-OG-71.png,0.45,1.2,35,0.5,0,39,39,34,1,,,,,,,,,,,,,,,,,,,,,,,,,,,,,,,,,,,,,,,,
,,,,,V3_033,18,Female,2024-10-23_13h13.02.219,jersey_experiment_5_v3,2023.2.2,Win32,84.74576271,,,,,,,,,,,,,,,,396.4965,398.0494,398.0494,399.2374,return,0.3064,,59.50520833,,,,,,FBP-PT-71.png,0.4,1.2,18,0.75,0,40,40,17,1,,,,,,,,,,,,,,,,,,,,,,,,,,,,,,,,,,,,,,,,
,,,,,V3_033,18,Female,2024-10-23_13h13.02.219,jersey_experiment_5_v3,2023.2.2,Win32,84.74576271,,,,,,,,,,,,,,,,399.2377,400.5317,400.5317,402.0022,return,0.557,,45.05208333,,,,,,FBP-OG-91.png,0.35,1.2,41,0.5,0,41,41,40,1,,,,,,,,,,,,,,,,,,,,,,,,,,,,,,,,,,,,,,,,
,,,,,V3_033,18,Female,2024-10-23_13h13.02.219,jersey_experiment_5_v3,2023.2.2,Win32,84.74576271,,,,,,,,,,,,,,,,402.0024,403.5437,403.5437,404.473,return,0.3219,,63.80208333,,,,,,FBP-YG-17.png,0.4,1.2,3,0.75,0,42,42,2,1,,,,,,,,,,,,,,,,,,,,,,,,,,,,,,,,,,,,,,,,
,,,,,V3_033,18,Female,2024-10-23_13h13.02.219,jersey_experiment_5_v3,2023.2.2,Win32,84.74576271,,,,,,,,,,,,,,,,404.4732,405.7673,405.7673,407.4259,return,0.4747,,67.578125,,,,,,FBP-OG-81.png,0.37,1.2,37,0.5,0,43,43,36,1,,,,,,,,,,,,,,,,,,,,,,,,,,,,,,,,,,,,,,,,
,,,,,V3_033,18,Female,2024-10-23_13h13.02.219,jersey_experiment_5_v3,2023.2.2,Win32,84.74576271,,,,,,,,,,,,,,,,407.4261,408.9791,408.9791,411.6027,return,0.3768,,83.203125,,,,,,FBP-RB-81.png,0.37,1.2,52,0.75,0,44,44,51,1,,,,,,,,,,,,,,,,,,,,,,,,,,,,,,,,,,,,,,,,
,,,,,V3_033,18,Female,2024-10-23_13h13.02.219,jersey_experiment_5_v3,2023.2.2,Win32,84.74576271,,,,,,,,,,,,,,,,411.6029,413.1558,413.1558,414.438,return,0.3881,,98.69791667,,,,,,FBP-RB-81.png,0.45,1.2,55,0.75,0,45,45,54,1,,,,,,,,,,,,,,,,,,,,,,,,,,,,,,,,,,,,,,,,
,,,,,V3_033,18,Female,2024-10-23_13h13.02.219,jersey_experiment_5_v3,2023.2.2,Win32,84.74576271,,,,,,,,,,,,,,,,414.4383,415.9911,415.9912,417.0969,return,0.3394,,91.92708333,,,,,,FBP-PT-81.png,0.4,1.2,23,0.75,0,46,46,22,1,,,,,,,,,,,,,,,,,,,,,,,,,,,,,,,,,,,,,,,,
,,,,,V3_033,18,Female,2024-10-23_13h13.02.219,jersey_experiment_5_v3,2023.2.2,Win32,84.74576271,,,,,,,,,,,,,,,,417.0972,418.65,418.65,420.3677,return,0.6047,,73.4375,,,,,,FBP-RB-91.png,0.45,1.2,60,0.75,0,47,47,59,1,,,,,,,,,,,,,,,,,,,,,,,,,,,,,,,,,,,,,,,,
,,,,,V3_033,18,Female,2024-10-23_13h13.02.219,jersey_experiment_5_v3,2023.2.2,Win32,84.74576271,,,,,,,,,,,,,,,,420.3679,421.9208,421.9209,423.2032,return,0.355,,95.703125,,,,,,FBP-RB-71.png,0.45,1.2,50,0.75,0,48,48,49,1,,,,,,,,,,,,,,,,,,,,,,,,,,,,,,,,,,,,,,,,
,,,,,V3_033,18,Female,2024-10-23_13h13.02.219,jersey_experiment_5_v3,2023.2.2,Win32,84.74576271,,,,,,,,,,,,,,,,423.2033,424.7561,424.7561,426.262,return,0.3928,,94.27083333,,,,,,FBP-RB-81.png,0.4,1.2,53,0.75,0,49,49,52,1,,,,,,,,,,,,,,,,,,,,,,,,,,,,,,,,,,,,,,,,
,,,,,V3_033,18,Female,2024-10-23_13h13.02.219,jersey_experiment_5_v3,2023.2.2,Win32,84.74576271,,,,,,,,,,,,,,,,426.2622,427.8151,427.8151,429.0621,return,0.3217,,91.92708333,,,,,,FBP-PT-71.png,0.45,1.2,20,0.75,0,50,50,19,1,,,,,,,,,,,,,,,,,,,,,,,,,,,,,,,,,,,,,,,,
,,,,,V3_033,18,Female,2024-10-23_13h13.02.219,jersey_experiment_5_v3,2023.2.2,Win32,84.74576271,,,,,,,,,,,,,,,,429.0624,430.6152,430.6152,431.5564,return,0.3291,,74.34895833,,,,,,FBP-PT-81.png,0.37,1.2,22,0.75,0,51,51,21,1,,,,,,,,,,,,,,,,,,,,,,,,,,,,,,,,,,,,,,,,
,,,,,V3_033,18,Female,2024-10-23_13h13.02.219,jersey_experiment_5_v3,2023.2.2,Win32,84.74576271,,,,,,,,,,,,,,,,431.5566,433.1093,433.1095,434.3564,return,0.44,,58.46354167,,,,,,FBP-PT-81.png,0.35,1.2,21,0.75,0,52,52,20,1,,,,,,,,,,,,,,,,,,,,,,,,,,,,,,,,,,,,,,,,
,,,,,V3_033,18,Female,2024-10-23_13h13.02.219,jersey_experiment_5_v3,2023.2.2,Win32,84.74576271,,,,,,,,,,,,,,,,434.3567,435.6504,435.6505,437.4859,return,0.6166,,92.31770833,,,,,,FBP-OG-71.png,0.43,1.2,34,0.5,0,53,53,33,1,,,,,,,,,,,,,,,,,,,,,,,,,,,,,,,,,,,,,,,,
,,,,,V3_033,18,Female,2024-10-23_13h13.02.219,jersey_experiment_5_v3,2023.2.2,Win32,84.74576271,,,,,,,,,,,,,,,,437.4862,439.0392,439.0392,440.3683,return,0.4529,,95.57291667,,,,,,FBP-RB-81.png,0.43,1.2,54,0.75,0,54,54,53,1,,,,,,,,,,,,,,,,,,,,,,,,,,,,,,,,,,,,,,,,
,,,,,V3_033,18,Female,2024-10-23_13h13.02.219,jersey_experiment_5_v3,2023.2.2,Win32,84.74576271,,,,,,,,,,,,,,,,440.3686,441.9215,441.9216,443.1567,return,0.3654,,95.05208333,,,,,,FBP-RB-91.png,0.4,1.2,58,0.75,0,55,55,57,1,,,,,,,,,,,,,,,,,,,,,,,,,,,,,,,,,,,,,,,,
,,,,,V3_033,18,Female,2024-10-23_13h13.02.219,jersey_experiment_5_v3,2023.2.2,Win32,84.74576271,,,,,,,,,,,,,,,,443.1569,444.4509,444.451,445.745,return,0.448,,91.40625,,,,,,FBP-OG-91.png,0.37,1.2,42,0.5,0,56,56,41,1,,,,,,,,,,,,,,,,,,,,,,,,,,,,,,,,,,,,,,,,
,,,,,V3_033,18,Female,2024-10-23_13h13.02.219,jersey_experiment_5_v3,2023.2.2,Win32,84.74576271,,,,,,,,,,,,,,,,445.7453,447.0393,447.0393,448.5687,return,0.5573,,91.53645833,,,,,,FBP-OG-91.png,0.43,1.2,44,0.5,0,57,57,43,1,,,,,,,,,,,,,,,,,,,,,,,,,,,,,,,,,,,,,,,,
,,,,,V3_033,18,Female,2024-10-23_13h13.02.219,jersey_experiment_5_v3,2023.2.2,Win32,84.74576271,,,,,,,,,,,,,,,,448.569,450.1218,450.1218,451.3689,return,0.5308,,92.31770833,,,,,,FBP-PT-71.png,0.43,1.2,19,0.75,0,58,58,18,1,,,,,,,,,,,,,,,,,,,,,,,,,,,,,,,,,,,,,,,,
,,,,,V3_033,18,Female,2024-10-23_13h13.02.219,jersey_experiment_5_v3,2023.2.2,Win32,84.74576271,,,,,,,,,,,,,,,,451.3692,452.9218,452.9218,454.4984,return,0.3212,,76.82291667,,,,,,FBP-RB-71.png,0.37,1.2,47,0.75,0,59,59,46,1,,,,,,,,,,,,,,,,,,,,,,,,,,,,,,,,,,,,,,,,
,,,,,V3_033,18,Female,2024-10-23_13h13.02.219,jersey_experiment_5_v3,2023.2.2,Win32,84.74576271,,,,,,,,,,,,,,,,,,,,,,,,,,,,,,,,,,,,,,,454.4986,574.4913,,,,,,,,,,,,,,,,,,,,,,,,,,,,,,,,,,,,,,
,,,,,V3_033,18,Female,2024-10-23_13h13.02.219,jersey_experiment_5_v3,2023.2.2,Win32,84.74576271,,,,,,,,,,,,,,,,,,,,,,,,,,,,,,,,,,,,,,,,,574.4914,579.8796,return,5.3724,,,,,,,,,,,,,,,,,,,,,,,,,,,,,,,,,,
,,,,,V3_033,18,Female,2024-10-23_13h13.02.219,jersey_experiment_5_v3,2023.2.2,Win32,84.74576271,,,,,,,,,,,,,,,,579.8822,581.1735,581.1735,587.1386,return,4.3792,,86.19791667,,,,,,FBP-YG-71.png,0.37,1.2,2,0.5,,,,,,,,,,,,,0,0,0,1,1,,,,,,,,,,,,,,,,,,,,,,,,,,,,
,,,,,V3_033,18,Female,2024-10-23_13h13.02.219,jersey_experiment_5_v3,2023.2.2,Win32,84.74576271,,,,,,,,,,,,,,,,587.1389,588.4328,588.4328,590.0798,return,0.5592,,83.85416667,,,,,,FBP-PT-18.png,0.4,1.2,23,0.5,,,,,,,,,,,,,0,1,1,22,1,,,,,,,,,,,,,,,,,,,,,,,,,,,,
,,,,,V3_033,18,Female,2024-10-23_13h13.02.219,jersey_experiment_5_v3,2023.2.2,Win32,84.74576271,,,,,,,,,,,,,,,,590.08,591.374,591.374,592.8211,return,0.4345,,84.63541667,,,,,,FBP-PT-19.png,0.37,1.2,27,0.5,,,,,,,,,,,,,0,2,2,26,1,,,,,,,,,,,,,,,,,,,,,,,,,,,,
,,,,,V3_033,18,Female,2024-10-23_13h13.02.219,jersey_experiment_5_v3,2023.2.2,Win32,84.74576271,,,,,,,,,,,,,,,,592.8213,594.1152,594.1152,597.0451,return,1.7654,,85.41666667,,,,,,FBP-PT-17.png,0.4,1.2,18,0.5,,,,,,,,,,,,,0,3,3,17,1,,,,,,,,,,,,,,,,,,,,,,,,,,,,
,,,,,V3_033,18,Female,2024-10-23_13h13.02.219,jersey_experiment_5_v3,2023.2.2,Win32,84.74576271,,,,,,,,,,,,,,,,597.0453,598.339,598.339,599.5039,return,0.2974,,82.03125,,,,,,FBP-YG-91.png,0.4,1.2,13,0.5,,,,,,,,,,,,,0,4,4,12,1,,,,,,,,,,,,,,,,,,,,,,,,,,,,
,,,,,V3_033,18,Female,2024-10-23_13h13.02.219,jersey_experiment_5_v3,2023.2.2,Win32,84.74576271,,,,,,,,,,,,,,,,599.5041,600.7978,600.7979,603.3627,return,0.5783,,63.15104167,,,,,,FBP-RB-18.png,0.4,1.2,53,0.5,,,,,,,,,,,,,0,5,5,52,1,,,,,,,,,,,,,,,,,,,,,,,,,,,,
,,,,,V3_033,18,Female,2024-10-23_13h13.02.219,jersey_experiment_5_v3,2023.2.2,Win32,84.74576271,,,,,,,,,,,,,,,,603.3629,604.6569,604.6569,606.3509,return,0.2988,,63.02083333,,,,,,FBP-YG-81.png,0.37,1.2,7,0.5,,,,,,,,,,,,,0,6,6,6,1,,,,,,,,,,,,,,,,,,,,,,,,,,,,
,,,,,V3_033,18,Female,2024-10-23_13h13.02.219,jersey_experiment_5_v3,2023.2.2,Win32,84.74576271,,,,,,,,,,,,,,,,606.3513,607.9041,607.9041,609.1041,return,0.2987,,64.32291667,,,,,,FBP-OG-17.png,0.37,1.2,32,0.75,,,,,,,,,,,,,0,7,7,31,1,,,,,,,,,,,,,,,,,,,,,,,,,,,,
,,,,,V3_033,18,Female,2024-10-23_13h13.02.219,jersey_experiment_5_v3,2023.2.2,Win32,84.74576271,,,,,,,,,,,,,,,,609.1044,610.3982,610.3982,612.3512,return,1.1601,,58.85416667,,,,,,FBP-YG-91.png,0.37,1.2,12,0.5,,,,,,,,,,,,,0,8,8,11,1,,,,,,,,,,,,,,,,,,,,,,,,,,,,
,,,,,V3_033,18,Female,2024-10-23_13h13.02.219,jersey_experiment_5_v3,2023.2.2,Win32,84.74576271,,,,,,,,,,,,,,,,612.3515,613.6453,613.6454,615.1044,return,0.2729,,99.08854167,,,,,,FBP-YG-81.png,0.43,1.2,9,0.5,,,,,,,,,,,,,0,9,9,8,1,,,,,,,,,,,,,,,,,,,,,,,,,,,,
,,,,,V3_033,18,Female,2024-10-23_13h13.02.219,jersey_experiment_5_v3,2023.2.2,Win32,84.74576271,,,,,,,,,,,,,,,,615.1046,616.3986,616.3986,618.4456,return,0.2674,,99.73958333,,,,,,FBP-RB-19.png,0.45,1.2,60,0.5,,,,,,,,,,,,,0,10,10,59,1,,,,,,,,,,,,,,,,,,,,,,,,,,,,
,,,,,V3_033,18,Female,2024-10-23_13h13.02.219,jersey_experiment_5_v3,2023.2.2,Win32,84.74576271,,,,,,,,,,,,,,,,618.4458,619.9987,619.9987,621.187,return,0.2825,,92.05729167,,,,,,FBP-OG-17.png,0.43,1.2,34,0.75,,,,,,,,,,,,,0,11,11,33,1,,,,,,,,,,,,,,,,,,,,,,,,,,,,
,,,,,V3_033,18,Female,2024-10-23_13h13.02.219,jersey_experiment_5_v3,2023.2.2,Win32,84.74576271,,,,,,,,,,,,,,,,621.1872,622.481,622.481,623.9752,return,0.3298,,27.734375,,,,,,FBP-PT-17.png,0.35,1.2,16,0.5,,,,,,,,,,,,,0,12,12,15,1,,,,,,,,,,,,,,,,,,,,,,,,,,,,
,,,,,V3_033,18,Female,2024-10-23_13h13.02.219,jersey_experiment_5_v3,2023.2.2,Win32,84.74576271,,,,,,,,,,,,,,,,623.9755,625.2692,625.2692,626.8459,return,0.6199,,99.21875,,,,,,FBP-PT-17.png,0.45,1.2,20,0.5,,,,,,,,,,,,,0,13,13,19,1,,,,,,,,,,,,,,,,,,,,,,,,,,,,
,,,,,V3_033,18,Female,2024-10-23_13h13.02.219,jersey_experiment_5_v3,2023.2.2,Win32,84.74576271,,,,,,,,,,,,,,,,626.8462,628.1401,628.1401,636.1522,return,1.1429,,62.109375,,,,,,FBP-PT-19.png,0.43,1.2,29,0.5,,,,,,,,,,,,,0,14,14,28,1,,,,,,,,,,,,,,,,,,,,,,,,,,,,
,,,,,V3_033,18,Female,2024-10-23_13h13.02.219,jersey_experiment_5_v3,2023.2.2,Win32,84.74576271,,,,,,,,,,,,,,,,636.1524,637.7053,637.7053,639.3759,return,0.6142,,82.29166667,,,,,,FBP-OG-17.png,0.4,1.2,33,0.75,,,,,,,,,,,,,0,15,15,32,1,,,,,,,,,,,,,,,,,,,,,,,,,,,,
,,,,,V3_033,18,Female,2024-10-23_13h13.02.219,jersey_experiment_5_v3,2023.2.2,Win32,84.74576271,,,,,,,,,,,,,,,,639.3761,640.6702,640.6702,642.1995,return,0.4678,,91.40625,,,,,,FBP-YG-71.png,0.45,1.2,5,0.5,,,,,,,,,,,,,0,16,16,4,1,,,,,,,,,,,,,,,,,,,,,,,,,,,,
,,,,,V3_033,18,Female,2024-10-23_13h13.02.219,jersey_experiment_5_v3,2023.2.2,Win32,84.74576271,,,,,,,,,,,,,,,,642.1997,643.7526,643.7527,645.5407,return,0.5906,,55.59895833,,,,,,FBP-OG-17.png,0.45,1.2,35,0.75,,,,,,,,,,,,,0,17,17,34,1,,,,,,,,,,,,,,,,,,,,,,,,,,,,
,,,,,V3_033,18,Female,2024-10-23_13h13.02.219,jersey_experiment_5_v3,2023.2.2,Win32,84.74576271,,,,,,,,,,,,,,,,645.5408,646.835,646.8351,648.1291,return,0.4248,,87.76041667,,,,,,FBP-RB-19.png,0.43,1.2,59,0.5,,,,,,,,,,,,,0,18,18,58,1,,,,,,,,,,,,,,,,,,,,,,,,,,,,
,,,,,V3_033,18,Female,2024-10-23_13h13.02.219,jersey_experiment_5_v3,2023.2.2,Win32,84.74576271,,,,,,,,,,,,,,,,648.1293,649.682,649.682,651.0115,return,0.6849,,89.84375,,,,,,FBP-OG-19.png,0.45,1.2,45,0.75,,,,,,,,,,,,,0,19,19,44,1,,,,,,,,,,,,,,,,,,,,,,,,,,,,
,,,,,V3_033,18,Female,2024-10-23_13h13.02.219,jersey_experiment_5_v3,2023.2.2,Win32,84.74576271,,,,,,,,,,,,,,,,651.0118,652.3057,652.3057,653.5881,return,0.377,,90.49479167,,,,,,FBP-PT-18.png,0.43,1.2,24,0.5,,,,,,,,,,,,,0,20,20,23,1,,,,,,,,,,,,,,,,,,,,,,,,,,,,
,,,,,V3_033,18,Female,2024-10-23_13h13.02.219,jersey_experiment_5_v3,2023.2.2,Win32,84.74576271,,,,,,,,,,,,,,,,653.5884,654.8822,654.8823,656.3763,return,0.3845,,92.578125,,,,,,FBP-RB-17.png,0.4,1.2,48,0.5,,,,,,,,,,,,,0,21,21,47,1,,,,,,,,,,,,,,,,,,,,,,,,,,,,
,,,,,V3_033,18,Female,2024-10-23_13h13.02.219,jersey_experiment_5_v3,2023.2.2,Win32,84.74576271,,,,,,,,,,,,,,,,656.3767,657.9295,657.9295,659.2353,return,0.4614,,93.48958333,,,,,,FBP-OG-18.png,0.45,1.2,40,0.75,,,,,,,,,,,,,0,22,22,39,1,,,,,,,,,,,,,,,,,,,,,,,,,,,,
,,,,,V3_033,18,Female,2024-10-23_13h13.02.219,jersey_experiment_5_v3,2023.2.2,Win32,84.74576271,,,,,,,,,,,,,,,,659.2355,660.5295,660.5295,662.6238,return,0.3241,,37.23958333,,,,,,FBP-RB-19.png,0.35,1.2,56,0.5,,,,,,,,,,,,,0,23,23,55,1,,,,,,,,,,,,,,,,,,,,,,,,,,,,
,,,,,V3_033,18,Female,2024-10-23_13h13.02.219,jersey_experiment_5_v3,2023.2.2,Win32,84.74576271,,,,,,,,,,,,,,,,662.6241,663.9181,663.9181,665.0474,return,0.261,,60.80729167,,,,,,FBP-RB-19.png,0.4,1.2,58,0.5,,,,,,,,,,,,,0,24,24,57,1,,,,,,,,,,,,,,,,,,,,,,,,,,,,
,,,,,V3_033,18,Female,2024-10-23_13h13.02.219,jersey_experiment_5_v3,2023.2.2,Win32,84.74576271,,,,,,,,,,,,,,,,665.0477,666.3415,666.3416,668.4239,return,0.4238,,43.359375,,,,,,FBP-YG-71.png,0.35,1.2,1,0.5,,,,,,,,,,,,,0,25,25,0,1,,,,,,,,,,,,,,,,,,,,,,,,,,,,
,,,,,V3_033,18,Female,2024-10-23_13h13.02.219,jersey_experiment_5_v3,2023.2.2,Win32,84.74576271,,,,,,,,,,,,,,,,668.4242,669.7181,669.7181,671.2006,return,0.2274,,98.56770833,,,,,,FBP-YG-71.png,0.43,1.2,4,0.5,,,,,,,,,,,,,0,26,26,3,1,,,,,,,,,,,,,,,,,,,,,,,,,,,,
,,,,,V3_033,18,Female,2024-10-23_13h13.02.219,jersey_experiment_5_v3,2023.2.2,Win32,84.74576271,,,,,,,,,,,,,,,,671.2007,672.4946,672.4947,674.4007,return,0.1703,,58.33333333,,,,,,FBP-YG-81.png,0.35,1.2,6,0.5,,,,,,,,,,,,,0,27,27,5,1,,,,,,,,,,,,,,,,,,,,,,,,,,,,
,,,,,V3_033,18,Female,2024-10-23_13h13.02.219,jersey_experiment_5_v3,2023.2.2,Win32,84.74576271,,,,,,,,,,,,,,,,674.4009,675.6947,675.6948,676.8832,return,0.1807,,99.73958333,,,,,,FBP-YG-91.png,0.45,1.2,15,0.5,,,,,,,,,,,,,0,28,28,14,1,,,,,,,,,,,,,,,,,,,,,,,,,,,,
,,,,,V3_033,18,Female,2024-10-23_13h13.02.219,jersey_experiment_5_v3,2023.2.2,Win32,84.74576271,,,,,,,,,,,,,,,,676.8833,678.4359,678.436,679.589,return,0.2118,,79.55729167,,,,,,FBP-OG-18.png,0.43,1.2,39,0.75,,,,,,,,,,,,,0,29,29,38,1,,,,,,,,,,,,,,,,,,,,,,,,,,,,
,,,,,V3_033,18,Female,2024-10-23_13h13.02.219,jersey_experiment_5_v3,2023.2.2,Win32,84.74576271,,,,,,,,,,,,,,,,679.5893,681.1421,681.1421,681.954,return,0.1541,,75.52083333,,,,,,FBP-OG-18.png,0.37,1.2,37,0.75,,,,,,,,,,,,,0,30,30,36,1,,,,,,,,,,,,,,,,,,,,,,,,,,,,
,,,,,V3_033,18,Female,2024-10-23_13h13.02.219,jersey_experiment_5_v3,2023.2.2,Win32,84.74576271,,,,,,,,,,,,,,,,681.9542,683.5068,683.5068,684.6245,return,0.2056,,75,,,,,,FBP-OG-18.png,0.4,1.2,38,0.75,,,,,,,,,,,,,0,31,31,37,1,,,,,,,,,,,,,,,,,,,,,,,,,,,,
,,,,,V3_033,18,Female,2024-10-23_13h13.02.219,jersey_experiment_5_v3,2023.2.2,Win32,84.74576271,,,,,,,,,,,,,,,,684.6249,686.1775,686.1775,688.0716,return,1.0354,,64.19270833,,,,,,FBP-OG-19.png,0.35,1.2,41,0.75,,,,,,,,,,,,,0,32,32,40,1,,,,,,,,,,,,,,,,,,,,,,,,,,,,
,,,,,V3_033,18,Female,2024-10-23_13h13.02.219,jersey_experiment_5_v3,2023.2.2,Win32,84.74576271,,,,,,,,,,,,,,,,688.0719,689.3659,689.366,690.3188,return,0.4055,,64.19270833,,,,,,FBP-RB-18.png,0.37,1.2,52,0.5,,,,,,,,,,,,,0,33,33,51,1,,,,,,,,,,,,,,,,,,,,,,,,,,,,
,,,,,V3_033,18,Female,2024-10-23_13h13.02.219,jersey_experiment_5_v3,2023.2.2,Win32,84.74576271,,,,,,,,,,,,,,,,690.319,691.8717,691.8718,692.8015,return,0.1696,,70.83333333,,,,,,FBP-OG-19.png,0.4,1.2,43,0.75,,,,,,,,,,,,,0,34,34,42,1,,,,,,,,,,,,,,,,,,,,,,,,,,,,
,,,,,V3_033,18,Female,2024-10-23_13h13.02.219,jersey_experiment_5_v3,2023.2.2,Win32,84.74576271,,,,,,,,,,,,,,,,692.8016,694.0954,694.0954,695.0248,return,0.1425,,64.32291667,,,,,,FBP-PT-17.png,0.37,1.2,17,0.5,,,,,,,,,,,,,0,35,35,16,1,,,,,,,,,,,,,,,,,,,,,,,,,,,,
,,,,,V3_033,18,Female,2024-10-23_13h13.02.219,jersey_experiment_5_v3,2023.2.2,Win32,84.74576271,,,,,,,,,,,,,,,,695.025,696.3189,696.319,697.5544,return,0.1323,,97.91666667,,,,,,FBP-RB-17.png,0.45,1.2,50,0.5,,,,,,,,,,,,,0,36,36,49,1,,,,,,,,,,,,,,,,,,,,,,,,,,,,
,,,,,V3_033,18,Female,2024-10-23_13h13.02.219,jersey_experiment_5_v3,2023.2.2,Win32,84.74576271,,,,,,,,,,,,,,,,697.5547,698.8485,698.8486,700.6134,return,0.1762,,99.86979167,,,,,,FBP-YG-91.png,0.43,1.2,14,0.5,,,,,,,,,,,,,0,37,37,13,1,,,,,,,,,,,,,,,,,,,,,,,,,,,,
,,,,,V3_033,18,Female,2024-10-23_13h13.02.219,jersey_experiment_5_v3,2023.2.2,Win32,84.74576271,,,,,,,,,,,,,,,,700.6136,701.9076,701.9077,703.237,return,0.2112,,95.3125,,,,,,FBP-PT-17.png,0.43,1.2,19,0.5,,,,,,,,,,,,,0,38,38,18,1,,,,,,,,,,,,,,,,,,,,,,,,,,,,
,,,,,V3_033,18,Female,2024-10-23_13h13.02.219,jersey_experiment_5_v3,2023.2.2,Win32,84.74576271,,,,,,,,,,,,,,,,703.2373,704.5312,704.5312,705.5664,return,0.1445,,84.765625,,,,,,FBP-RB-18.png,0.35,1.2,51,0.5,,,,,,,,,,,,,0,39,39,50,1,,,,,,,,,,,,,,,,,,,,,,,,,,,,
,,,,,V3_033,18,Female,2024-10-23_13h13.02.219,jersey_experiment_5_v3,2023.2.2,Win32,84.74576271,,,,,,,,,,,,,,,,705.5667,706.8606,706.8606,707.79,return,0.2196,,98.69791667,,,,,,FBP-RB-17.png,0.43,1.2,49,0.5,,,,,,,,,,,,,0,40,40,48,1,,,,,,,,,,,,,,,,,,,,,,,,,,,,
,,,,,V3_033,18,Female,2024-10-23_13h13.02.219,jersey_experiment_5_v3,2023.2.2,Win32,84.74576271,,,,,,,,,,,,,,,,707.7902,709.0843,709.0844,709.696,return,0.1554,,98.69791667,,,,,,FBP-RB-18.png,0.45,1.2,55,0.5,,,,,,,,,,,,,0,41,41,54,1,,,,,,,,,,,,,,,,,,,,,,,,,,,,
,,,,,V3_033,18,Female,2024-10-23_13h13.02.219,jersey_experiment_5_v3,2023.2.2,Win32,84.74576271,,,,,,,,,,,,,,,,709.6962,710.9903,710.9904,712.5197,return,0.2122,,33.33333333,,,,,,FBP-YG-91.png,0.35,1.2,11,0.5,,,,,,,,,,,,,0,42,42,10,1,,,,,,,,,,,,,,,,,,,,,,,,,,,,
,,,,,V3_033,18,Female,2024-10-23_13h13.02.219,jersey_experiment_5_v3,2023.2.2,Win32,84.74576271,,,,,,,,,,,,,,,,712.5198,713.8138,713.8139,717.2376,return,0.4623,,98.30729167,,,,,,FBP-YG-81.png,0.45,1.2,10,0.5,,,,,,,,,,,,,0,43,43,9,1,,,,,,,,,,,,,,,,,,,,,,,,,,,,
,,,,,V3_033,18,Female,2024-10-23_13h13.02.219,jersey_experiment_5_v3,2023.2.2,Win32,84.74576271,,,,,,,,,,,,,,,,717.2378,718.5317,718.5317,719.6847,return,0.6588,,96.61458333,,,,,,FBP-PT-19.png,0.45,1.2,30,0.5,,,,,,,,,,,,,0,44,44,29,1,,,,,,,,,,,,,,,,,,,,,,,,,,,,
,,,,,V3_033,18,Female,2024-10-23_13h13.02.219,jersey_experiment_5_v3,2023.2.2,Win32,84.74576271,,,,,,,,,,,,,,,,719.6849,721.2377,721.2377,721.9554,return,0.2146,,88.02083333,,,,,,FBP-OG-19.png,0.43,1.2,44,0.75,,,,,,,,,,,,,0,45,45,43,1,,,,,,,,,,,,,,,,,,,,,,,,,,,,
,,,,,V3_033,18,Female,2024-10-23_13h13.02.219,jersey_experiment_5_v3,2023.2.2,Win32,84.74576271,,,,,,,,,,,,,,,,721.9557,723.2498,723.2498,724.1436,return,0.2974,,80.98958333,,,,,,FBP-YG-81.png,0.4,1.2,8,0.5,,,,,,,,,,,,,0,46,46,7,1,,,,,,,,,,,,,,,,,,,,,,,,,,,,
,,,,,V3_033,18,Female,2024-10-23_13h13.02.219,jersey_experiment_5_v3,2023.2.2,Win32,84.74576271,,,,,,,,,,,,,,,,724.1439,725.4378,725.4378,727.6968,return,0.4996,,54.296875,,,,,,FBP-PT-18.png,0.37,1.2,22,0.5,,,,,,,,,,,,,0,47,47,21,1,,,,,,,,,,,,,,,,,,,,,,,,,,,,
,,,,,V3_033,18,Female,2024-10-23_13h13.02.219,jersey_experiment_5_v3,2023.2.2,Win32,84.74576271,,,,,,,,,,,,,,,,727.697,728.9909,728.9909,729.9205,return,0.2605,,56.51041667,,,,,,FBP-PT-19.png,0.4,1.2,28,0.5,,,,,,,,,,,,,0,48,48,27,1,,,,,,,,,,,,,,,,,,,,,,,,,,,,
,,,,,V3_033,18,Female,2024-10-23_13h13.02.219,jersey_experiment_5_v3,2023.2.2,Win32,84.74576271,,,,,,,,,,,,,,,,729.9206,731.2145,731.2146,733.2852,return,1.2633,,42.96875,,,,,,FBP-RB-19.png,0.37,1.2,57,0.5,,,,,,,,,,,,,0,49,49,56,1,,,,,,,,,,,,,,,,,,,,,,,,,,,,
,,,,,V3_033,18,Female,2024-10-23_13h13.02.219,jersey_experiment_5_v3,2023.2.2,Win32,84.74576271,,,,,,,,,,,,,,,,733.2855,734.8382,734.8382,735.6383,return,0.1078,,42.1875,,,,,,FBP-OG-19.png,0.37,1.2,42,0.75,,,,,,,,,,,,,0,50,50,41,1,,,,,,,,,,,,,,,,,,,,,,,,,,,,
,,,,,V3_033,18,Female,2024-10-23_13h13.02.219,jersey_experiment_5_v3,2023.2.2,Win32,84.74576271,,,,,,,,,,,,,,,,735.6385,737.1913,737.1913,738.1324,return,0.2118,,49.47916667,,,,,,FBP-OG-18.png,0.35,1.2,36,0.75,,,,,,,,,,,,,0,51,51,35,1,,,,,,,,,,,,,,,,,,,,,,,,,,,,
,,,,,V3_033,18,Female,2024-10-23_13h13.02.219,jersey_experiment_5_v3,2023.2.2,Win32,84.74576271,,,,,,,,,,,,,,,,738.1327,739.4267,739.4267,741.2385,return,0.2122,,94.921875,,,,,,FBP-RB-18.png,0.43,1.2,54,0.5,,,,,,,,,,,,,0,52,52,53,1,,,,,,,,,,,,,,,,,,,,,,,,,,,,
,,,,,V3_033,18,Female,2024-10-23_13h13.02.219,jersey_experiment_5_v3,2023.2.2,Win32,84.74576271,,,,,,,,,,,,,,,,741.2388,742.7915,742.7916,743.6148,return,0.1837,,75.26041667,,,,,,FBP-OG-17.png,0.35,1.2,31,0.75,,,,,,,,,,,,,0,53,53,30,1,,,,,,,,,,,,,,,,,,,,,,,,,,,,
,,,,,V3_033,18,Female,2024-10-23_13h13.02.219,jersey_experiment_5_v3,2023.2.2,Win32,84.74576271,,,,,,,,,,,,,,,,743.6151,744.9091,744.9092,745.9091,return,0.1895,,87.890625,,,,,,FBP-YG-71.png,0.4,1.2,3,0.5,,,,,,,,,,,,,0,54,54,2,1,,,,,,,,,,,,,,,,,,,,,,,,,,,,
,,,,,V3_033,18,Female,2024-10-23_13h13.02.219,jersey_experiment_5_v3,2023.2.2,Win32,84.74576271,,,,,,,,,,,,,,,,745.9094,747.2034,747.2034,748.6739,return,0.1885,,71.875,,,,,,FBP-PT-19.png,0.35,1.2,26,0.5,,,,,,,,,,,,,0,55,55,25,1,,,,,,,,,,,,,,,,,,,,,,,,,,,,
,,,,,V3_033,18,Female,2024-10-23_13h13.02.219,jersey_experiment_5_v3,2023.2.2,Win32,84.74576271,,,,,,,,,,,,,,,,748.6741,749.9682,749.9683,750.9446,return,0.3917,,82.55208333,,,,,,FBP-PT-18.png,0.35,1.2,21,0.5,,,,,,,,,,,,,0,56,56,20,1,,,,,,,,,,,,,,,,,,,,,,,,,,,,
,,,,,V3_033,18,Female,2024-10-23_13h13.02.219,jersey_experiment_5_v3,2023.2.2,Win32,84.74576271,,,,,,,,,,,,,,,,750.945,752.2389,752.239,753.4741,return,0.2039,,55.46875,,,,,,FBP-RB-17.png,0.35,1.2,46,0.5,,,,,,,,,,,,,0,57,57,45,1,,,,,,,,,,,,,,,,,,,,,,,,,,,,
,,,,,V3_033,18,Female,2024-10-23_13h13.02.219,jersey_experiment_5_v3,2023.2.2,Win32,84.74576271,,,,,,,,,,,,,,,,753.4743,754.7682,754.7682,755.6507,return,0.1996,,57.421875,,,,,,FBP-RB-17.png,0.37,1.2,47,0.5,,,,,,,,,,,,,0,58,58,46,1,,,,,,,,,,,,,,,,,,,,,,,,,,,,
,,,,,V3_033,18,Female,2024-10-23_13h13.02.219,jersey_experiment_5_v3,2023.2.2,Win32,84.74576271,,,,,,,,,,,,,,,,755.6509,756.945,756.9451,757.886,return,0.2743,,97.52604167,,,,,,FBP-PT-18.png,0.45,1.2,25,0.5,,,,,,,,,,,,,0,59,59,24,1,,,,,,,,,,,,,,,,,,,,,,,,,,,,
,,,,,V3_033,18,Female,2024-10-23_13h13.02.219,jersey_experiment_5_v3,2023.2.2,Win32,84.74576271,,,,,,,,,,,,,,,,757.8881,759.1801,759.1802,760.4627,return,0.2546,,98.95833333,,,,,,FBP-RB-81.png,0.43,1.2,54,0.5,,,,,,,,,,,,,,,,,,0,0,0,53,1,,,,,,,,,,,,,,,,,,,,,,,
,,,,,V3_033,18,Female,2024-10-23_13h13.02.219,jersey_experiment_5_v3,2023.2.2,Win32,84.74576271,,,,,,,,,,,,,,,,760.4629,761.7567,761.7568,762.4391,return,0.0602,,94.66145833,,,,,,FBP-PT-91.png,0.43,1.2,29,0.5,,,,,,,,,,,,,,,,,,0,1,1,28,1,,,,,,,,,,,,,,,,,,,,,,,
,,,,,V3_033,18,Female,2024-10-23_13h13.02.219,jersey_experiment_5_v3,2023.2.2,Win32,84.74576271,,,,,,,,,,,,,,,,762.4394,763.7333,763.7335,764.3921,return,0.1574,,98.17708333,,,,,,FBP-RB-81.png,0.45,1.2,55,0.5,,,,,,,,,,,,,,,,,,0,2,2,54,1,,,,,,,,,,,,,,,,,,,,,,,
,,,,,V3_033,18,Female,2024-10-23_13h13.02.219,jersey_experiment_5_v3,2023.2.2,Win32,84.74576271,,,,,,,,,,,,,,,,764.3924,765.6866,765.6866,766.6276,return,0.2257,,88.671875,,,,,,FBP-PT-91.png,0.4,1.2,28,0.5,,,,,,,,,,,,,,,,,,0,3,3,27,1,,,,,,,,,,,,,,,,,,,,,,,
,,,,,V3_033,18,Female,2024-10-23_13h13.02.219,jersey_experiment_5_v3,2023.2.2,Win32,84.74576271,,,,,,,,,,,,,,,,766.6278,767.9216,767.9217,769.6513,return,0.4583,,62.109375,,,,,,FBP-RB-71.png,0.35,1.2,46,0.5,,,,,,,,,,,,,,,,,,0,4,4,45,1,,,,,,,,,,,,,,,,,,,,,,,
,,,,,V3_033,18,Female,2024-10-23_13h13.02.219,jersey_experiment_5_v3,2023.2.2,Win32,84.74576271,,,,,,,,,,,,,,,,769.6515,770.9455,770.9455,771.7102,return,0.2785,,61.97916667,,,,,,FBP-PT-71.png,0.35,1.2,16,0.5,,,,,,,,,,,,,,,,,,0,5,5,15,1,,,,,,,,,,,,,,,,,,,,,,,
,,,,,V3_033,18,Female,2024-10-23_13h13.02.219,jersey_experiment_5_v3,2023.2.2,Win32,84.74576271,,,,,,,,,,,,,,,,771.7104,773.0043,773.0043,774.8868,return,0.0849,,55.078125,,,,,,FBP-YG-17.png,0.35,1.2,1,0.5,,,,,,,,,,,,,,,,,,0,6,6,0,1,,,,,,,,,,,,,,,,,,,,,,,
,,,,,V3_033,18,Female,2024-10-23_13h13.02.219,jersey_experiment_5_v3,2023.2.2,Win32,84.74576271,,,,,,,,,,,,,,,,774.887,776.1809,776.1809,778.1339,return,0.2807,,75.52083333,,,,,,FBP-YG-18.png,0.45,1.2,10,0.5,,,,,,,,,,,,,,,,,,0,7,7,9,1,,,,,,,,,,,,,,,,,,,,,,,
,,,,,V3_033,18,Female,2024-10-23_13h13.02.219,jersey_experiment_5_v3,2023.2.2,Win32,84.74576271,,,,,,,,,,,,,,,,778.1341,779.6869,779.6869,781.028,return,0.3276,,97.39583333,,,,,,FBP-OG-81.png,0.43,1.2,39,0.75,,,,,,,,,,,,,,,,,,0,8,8,38,1,,,,,,,,,,,,,,,,,,,,,,,
,,,,,V3_033,18,Female,2024-10-23_13h13.02.219,jersey_experiment_5_v3,2023.2.2,Win32,84.74576271,,,,,,,,,,,,,,,,781.0283,782.3223,782.3223,783.7929,return,0.39,,73.17708333,,,,,,FBP-YG-17.png,0.37,1.2,2,0.5,,,,,,,,,,,,,,,,,,0,9,9,1,1,,,,,,,,,,,,,,,,,,,,,,,
,,,,,V3_033,18,Female,2024-10-23_13h13.02.219,jersey_experiment_5_v3,2023.2.2,Win32,84.74576271,,,,,,,,,,,,,,,,783.7931,785.346,785.346,786.946,return,0.8278,,61.84895833,,,,,,FBP-OG-91.png,0.37,1.2,42,0.75,,,,,,,,,,,,,,,,,,0,10,10,41,1,,,,,,,,,,,,,,,,,,,,,,,
,,,,,V3_033,18,Female,2024-10-23_13h13.02.219,jersey_experiment_5_v3,2023.2.2,Win32,84.74576271,,,,,,,,,,,,,,,,786.9463,788.4991,788.4992,789.5698,return,0.2043,,97.65625,,,,,,FBP-OG-91.png,0.45,1.2,45,0.75,,,,,,,,,,,,,,,,,,0,11,11,44,1,,,,,,,,,,,,,,,,,,,,,,,
,,,,,V3_033,18,Female,2024-10-23_13h13.02.219,jersey_experiment_5_v3,2023.2.2,Win32,84.74576271,,,,,,,,,,,,,,,,789.5699,790.864,790.8641,792.0637,return,0.4971,,90.49479167,,,,,,FBP-YG-17.png,0.45,1.2,5,0.5,,,,,,,,,,,,,,,,,,0,12,12,4,1,,,,,,,,,,,,,,,,,,,,,,,
,,,,,V3_033,18,Female,2024-10-23_13h13.02.219,jersey_experiment_5_v3,2023.2.2,Win32,84.74576271,,,,,,,,,,,,,,,,792.064,793.3579,793.358,794.6757,return,0.2581,,33.59375,,,,,,FBP-YG-18.png,0.35,1.2,6,0.5,,,,,,,,,,,,,,,,,,0,13,13,5,1,,,,,,,,,,,,,,,,,,,,,,,
,,,,,V3_033,18,Female,2024-10-23_13h13.02.219,jersey_experiment_5_v3,2023.2.2,Win32,84.74576271,,,,,,,,,,,,,,,,794.6759,796.229,796.229,797.6407,return,0.251,,98.95833333,,,,,,FBP-OG-81.png,0.45,1.2,40,0.75,,,,,,,,,,,,,,,,,,0,14,14,39,1,,,,,,,,,,,,,,,,,,,,,,,
,,,,,V3_033,18,Female,2024-10-23_13h13.02.219,jersey_experiment_5_v3,2023.2.2,Win32,84.74576271,,,,,,,,,,,,,,,,797.6409,799.1937,799.1937,799.8759,return,0.2368,,91.40625,,,,,,FBP-OG-71.png,0.45,1.2,35,0.75,,,,,,,,,,,,,,,,,,0,15,15,34,1,,,,,,,,,,,,,,,,,,,,,,,
,,,,,V3_033,18,Female,2024-10-23_13h13.02.219,jersey_experiment_5_v3,2023.2.2,Win32,84.74576271,,,,,,,,,,,,,,,,799.8762,801.1701,801.1701,802.4994,return,0.2454,,87.109375,,,,,,FBP-RB-91.png,0.37,1.2,57,0.5,,,,,,,,,,,,,,,,,,0,16,16,56,1,,,,,,,,,,,,,,,,,,,,,,,
,,,,,V3_033,18,Female,2024-10-23_13h13.02.219,jersey_experiment_5_v3,2023.2.2,Win32,84.74576271,,,,,,,,,,,,,,,,802.4997,804.0524,804.0524,804.7114,return,0.2356,,87.36979167,,,,,,FBP-OG-81.png,0.4,1.2,38,0.75,,,,,,,,,,,,,,,,,,0,17,17,37,1,,,,,,,,,,,,,,,,,,,,,,,
,,,,,V3_033,18,Female,2024-10-23_13h13.02.219,jersey_experiment_5_v3,2023.2.2,Win32,84.74576271,,,,,,,,,,,,,,,,804.7115,806.2527,806.2527,806.9349,return,0.236,,87.5,,,,,,FBP-OG-81.png,0.37,1.2,37,0.75,,,,,,,,,,,,,,,,,,0,18,18,36,1,,,,,,,,,,,,,,,,,,,,,,,
,,,,,V3_033,18,Female,2024-10-23_13h13.02.219,jersey_experiment_5_v3,2023.2.2,Win32,84.74576271,,,,,,,,,,,,,,,,806.9352,808.2291,808.2291,809.6291,return,0.1972,,95.57291667,,,,,,FBP-YG-19.png,0.43,1.2,14,0.5,,,,,,,,,,,,,,,,,,0,19,19,13,1,,,,,,,,,,,,,,,,,,,,,,,
,,,,,V3_033,18,Female,2024-10-23_13h13.02.219,jersey_experiment_5_v3,2023.2.2,Win32,84.74576271,,,,,,,,,,,,,,,,809.6293,810.9233,810.9233,811.8646,return,0.291,,93.09895833,,,,,,FBP-PT-81.png,0.4,1.2,23,0.5,,,,,,,,,,,,,,,,,,0,20,20,22,1,,,,,,,,,,,,,,,,,,,,,,,
,,,,,V3_033,18,Female,2024-10-23_13h13.02.219,jersey_experiment_5_v3,2023.2.2,Win32,84.74576271,,,,,,,,,,,,,,,,811.8648,813.1587,813.1587,814.4059,return,0.1885,,71.35416667,,,,,,FBP-PT-81.png,0.35,1.2,21,0.5,,,,,,,,,,,,,,,,,,0,21,21,20,1,,,,,,,,,,,,,,,,,,,,,,,
,,,,,V3_033,18,Female,2024-10-23_13h13.02.219,jersey_experiment_5_v3,2023.2.2,Win32,84.74576271,,,,,,,,,,,,,,,,814.4062,815.7001,815.7001,816.559,return,0.1924,,96.22395833,,,,,,FBP-PT-71.png,0.43,1.2,19,0.5,,,,,,,,,,,,,,,,,,0,22,22,18,1,,,,,,,,,,,,,,,,,,,,,,,
,,,,,V3_033,18,Female,2024-10-23_13h13.02.219,jersey_experiment_5_v3,2023.2.2,Win32,84.74576271,,,,,,,,,,,,,,,,816.5593,818.1118,818.1119,819.4413,return,0.4987,,56.51041667,,,,,,FBP-OG-81.png,0.35,1.2,36,0.75,,,,,,,,,,,,,,,,,,0,23,23,35,1,,,,,,,,,,,,,,,,,,,,,,,
,,,,,V3_033,18,Female,2024-10-23_13h13.02.219,jersey_experiment_5_v3,2023.2.2,Win32,84.74576271,,,,,,,,,,,,,,,,819.4414,820.7355,820.7355,822.1943,return,0.4978,,76.43229167,,,,,,FBP-PT-71.png,0.37,1.2,17,0.5,,,,,,,,,,,,,,,,,,0,24,24,16,1,,,,,,,,,,,,,,,,,,,,,,,
,,,,,V3_033,18,Female,2024-10-23_13h13.02.219,jersey_experiment_5_v3,2023.2.2,Win32,84.74576271,,,,,,,,,,,,,,,,822.1946,823.4885,823.4886,826.724,return,0.3305,,91.015625,,,,,,FBP-YG-17.png,0.43,1.2,4,0.5,,,,,,,,,,,,,,,,,,0,25,25,3,1,,,,,,,,,,,,,,,,,,,,,,,
,,,,,V3_033,18,Female,2024-10-23_13h13.02.219,jersey_experiment_5_v3,2023.2.2,Win32,84.74576271,,,,,,,,,,,,,,,,826.7244,828.277,828.277,829.9358,return,0.7224,,76.5625,,,,,,FBP-OG-91.png,0.35,1.2,41,0.75,,,,,,,,,,,,,,,,,,0,26,26,40,1,,,,,,,,,,,,,,,,,,,,,,,
,,,,,V3_033,18,Female,2024-10-23_13h13.02.219,jersey_experiment_5_v3,2023.2.2,Win32,84.74576271,,,,,,,,,,,,,,,,829.936,831.2299,831.2299,832.1124,return,0.2377,,75.65104167,,,,,,FBP-RB-91.png,0.35,1.2,56,0.5,,,,,,,,,,,,,,,,,,0,27,27,55,1,,,,,,,,,,,,,,,,,,,,,,,
,,,,,V3_033,18,Female,2024-10-23_13h13.02.219,jersey_experiment_5_v3,2023.2.2,Win32,84.74576271,,,,,,,,,,,,,,,,832.1127,833.4065,833.4066,834.6771,return,0.281,,95.96354167,,,,,,FBP-RB-91.png,0.43,1.2,59,0.5,,,,,,,,,,,,,,,,,,0,28,28,58,1,,,,,,,,,,,,,,,,,,,,,,,
,,,,,V3_033,18,Female,2024-10-23_13h13.02.219,jersey_experiment_5_v3,2023.2.2,Win32,84.74576271,,,,,,,,,,,,,,,,834.6774,835.9715,835.9715,838.2303,return,1.4085,,96.09375,,,,,,FBP-PT-91.png,0.45,1.2,30,0.5,,,,,,,,,,,,,,,,,,0,29,29,29,1,,,,,,,,,,,,,,,,,,,,,,,
,,,,,V3_033,18,Female,2024-10-23_13h13.02.219,jersey_experiment_5_v3,2023.2.2,Win32,84.74576271,,,,,,,,,,,,,,,,838.2305,839.7833,839.7834,841.0774,return,0.2379,,79.55729167,,,,,,FBP-OG-71.png,0.35,1.2,31,0.75,,,,,,,,,,,,,,,,,,0,30,30,30,1,,,,,,,,,,,,,,,,,,,,,,,
,,,,,V3_033,18,Female,2024-10-23_13h13.02.219,jersey_experiment_5_v3,2023.2.2,Win32,84.74576271,,,,,,,,,,,,,,,,841.0776,842.3716,842.3716,843.6188,return,0.2031,,97.78645833,,,,,,FBP-YG-18.png,0.43,1.2,9,0.5,,,,,,,,,,,,,,,,,,0,31,31,8,1,,,,,,,,,,,,,,,,,,,,,,,
,,,,,V3_033,18,Female,2024-10-23_13h13.02.219,jersey_experiment_5_v3,2023.2.2,Win32,84.74576271,,,,,,,,,,,,,,,,843.619,844.913,844.9131,846.2777,return,0.2274,,80.859375,,,,,,FBP-RB-81.png,0.37,1.2,52,0.5,,,,,,,,,,,,,,,,,,0,32,32,51,1,,,,,,,,,,,,,,,,,,,,,,,
,,,,,V3_033,18,Female,2024-10-23_13h13.02.219,jersey_experiment_5_v3,2023.2.2,Win32,84.74576271,,,,,,,,,,,,,,,,846.2779,847.8307,847.8307,849.1011,return,0.5381,,95.703125,,,,,,FBP-OG-71.png,0.4,1.2,33,0.75,,,,,,,,,,,,,,,,,,0,33,33,32,1,,,,,,,,,,,,,,,,,,,,,,,
,,,,,V3_033,18,Female,2024-10-23_13h13.02.219,jersey_experiment_5_v3,2023.2.2,Win32,84.74576271,,,,,,,,,,,,,,,,849.1013,850.3954,850.3954,851.5249,return,0.1797,,79.81770833,,,,,,FBP-YG-19.png,0.37,1.2,12,0.5,,,,,,,,,,,,,,,,,,0,34,34,11,1,,,,,,,,,,,,,,,,,,,,,,,
,,,,,V3_033,18,Female,2024-10-23_13h13.02.219,jersey_experiment_5_v3,2023.2.2,Win32,84.74576271,,,,,,,,,,,,,,,,851.5252,852.8191,852.8191,853.5366,return,0.1701,,79.6875,,,,,,FBP-RB-71.png,0.4,1.2,48,0.5,,,,,,,,,,,,,,,,,,0,35,35,47,1,,,,,,,,,,,,,,,,,,,,,,,
,,,,,V3_033,18,Female,2024-10-23_13h13.02.219,jersey_experiment_5_v3,2023.2.2,Win32,84.74576271,,,,,,,,,,,,,,,,853.5368,854.8311,854.8311,855.7485,return,0.2211,,94.53125,,,,,,FBP-YG-18.png,0.4,1.2,8,0.5,,,,,,,,,,,,,,,,,,0,36,36,7,1,,,,,,,,,,,,,,,,,,,,,,,
,,,,,V3_033,18,Female,2024-10-23_13h13.02.219,jersey_experiment_5_v3,2023.2.2,Win32,84.74576271,,,,,,,,,,,,,,,,855.7488,857.0429,857.0429,857.9721,return,0.3289,,76.171875,,,,,,FBP-PT-71.png,0.4,1.2,18,0.5,,,,,,,,,,,,,,,,,,0,37,37,17,1,,,,,,,,,,,,,,,,,,,,,,,
,,,,,V3_033,18,Female,2024-10-23_13h13.02.219,jersey_experiment_5_v3,2023.2.2,Win32,84.74576271,,,,,,,,,,,,,,,,857.9724,859.2664,859.2664,860.4193,return,0.3556,,99.609375,,,,,,FBP-PT-71.png,0.45,1.2,20,0.5,,,,,,,,,,,,,,,,,,0,38,38,19,1,,,,,,,,,,,,,,,,,,,,,,,
,,,,,V3_033,18,Female,2024-10-23_13h13.02.219,jersey_experiment_5_v3,2023.2.2,Win32,84.74576271,,,,,,,,,,,,,,,,860.4196,861.7137,861.7137,862.8312,return,0.3237,,98.69791667,,,,,,FBP-RB-91.png,0.45,1.2,60,0.5,,,,,,,,,,,,,,,,,,0,39,39,59,1,,,,,,,,,,,,,,,,,,,,,,,
,,,,,V3_033,18,Female,2024-10-23_13h13.02.219,jersey_experiment_5_v3,2023.2.2,Win32,84.74576271,,,,,,,,,,,,,,,,862.8314,864.1253,864.1253,864.9606,return,0.1896,,91.796875,,,,,,FBP-RB-91.png,0.4,1.2,58,0.5,,,,,,,,,,,,,,,,,,0,40,40,57,1,,,,,,,,,,,,,,,,,,,,,,,
,,,,,V3_033,18,Female,2024-10-23_13h13.02.219,jersey_experiment_5_v3,2023.2.2,Win32,84.74576271,,,,,,,,,,,,,,,,864.9609,866.2547,866.2547,867.0901,return,0.2157,,95.96354167,,,,,,FBP-PT-81.png,0.43,1.2,24,0.5,,,,,,,,,,,,,,,,,,0,41,41,23,1,,,,,,,,,,,,,,,,,,,,,,,
,,,,,V3_033,18,Female,2024-10-23_13h13.02.219,jersey_experiment_5_v3,2023.2.2,Win32,84.74576271,,,,,,,,,,,,,,,,867.0904,868.3843,868.3843,869.0432,return,0.1776,,95.96354167,,,,,,FBP-RB-81.png,0.4,1.2,53,0.5,,,,,,,,,,,,,,,,,,0,42,42,52,1,,,,,,,,,,,,,,,,,,,,,,,
,,,,,V3_033,18,Female,2024-10-23_13h13.02.219,jersey_experiment_5_v3,2023.2.2,Win32,84.74576271,,,,,,,,,,,,,,,,869.0433,870.5846,870.5846,871.3138,return,0.2041,,80.46875,,,,,,FBP-OG-71.png,0.37,1.2,32,0.75,,,,,,,,,,,,,,,,,,0,43,43,31,1,,,,,,,,,,,,,,,,,,,,,,,
,,,,,V3_033,18,Female,2024-10-23_13h13.02.219,jersey_experiment_5_v3,2023.2.2,Win32,84.74576271,,,,,,,,,,,,,,,,871.314,872.6081,872.6081,874.1021,return,0.2354,,88.41145833,,,,,,FBP-YG-19.png,0.45,1.2,15,0.5,,,,,,,,,,,,,,,,,,0,44,44,14,1,,,,,,,,,,,,,,,,,,,,,,,
,,,,,V3_033,18,Female,2024-10-23_13h13.02.219,jersey_experiment_5_v3,2023.2.2,Win32,84.74576271,,,,,,,,,,,,,,,,874.1024,875.6552,875.6553,876.3257,return,0.1852,,88.15104167,,,,,,FBP-OG-91.png,0.4,1.2,43,0.75,,,,,,,,,,,,,,,,,,0,45,45,42,1,,,,,,,,,,,,,,,,,,,,,,,
,,,,,V3_033,18,Female,2024-10-23_13h13.02.219,jersey_experiment_5_v3,2023.2.2,Win32,84.74576271,,,,,,,,,,,,,,,,876.326,877.62,877.62,878.5495,return,0.2598,,86.71875,,,,,,FBP-RB-71.png,0.37,1.2,47,0.5,,,,,,,,,,,,,,,,,,0,46,46,46,1,,,,,,,,,,,,,,,,,,,,,,,
,,,,,V3_033,18,Female,2024-10-23_13h13.02.219,jersey_experiment_5_v3,2023.2.2,Win32,84.74576271,,,,,,,,,,,,,,,,878.5495,879.8436,879.8436,880.8083,return,0.3374,,80.59895833,,,,,,FBP-YG-19.png,0.35,1.2,11,0.5,,,,,,,,,,,,,,,,,,0,47,47,10,1,,,,,,,,,,,,,,,,,,,,,,,
,,,,,V3_033,18,Female,2024-10-23_13h13.02.219,jersey_experiment_5_v3,2023.2.2,Win32,84.74576271,,,,,,,,,,,,,,,,880.8085,882.1024,882.1024,882.7731,return,0.1649,,79.16666667,,,,,,FBP-PT-91.png,0.37,1.2,27,0.5,,,,,,,,,,,,,,,,,,0,48,48,26,1,,,,,,,,,,,,,,,,,,,,,,,
,,,,,V3_033,18,Female,2024-10-23_13h13.02.219,jersey_experiment_5_v3,2023.2.2,Win32,84.74576271,,,,,,,,,,,,,,,,882.7733,884.0672,884.0672,885.4085,return,0.2291,,91.796875,,,,,,FBP-RB-71.png,0.43,1.2,49,0.5,,,,,,,,,,,,,,,,,,0,49,49,48,1,,,,,,,,,,,,,,,,,,,,,,,
,,,,,V3_033,18,Female,2024-10-23_13h13.02.219,jersey_experiment_5_v3,2023.2.2,Win32,84.74576271,,,,,,,,,,,,,,,,885.4087,886.7025,886.7025,887.6086,return,0.294,,91.27604167,,,,,,FBP-PT-81.png,0.45,1.2,25,0.5,,,,,,,,,,,,,,,,,,0,50,50,24,1,,,,,,,,,,,,,,,,,,,,,,,
,,,,,V3_033,18,Female,2024-10-23_13h13.02.219,jersey_experiment_5_v3,2023.2.2,Win32,84.74576271,,,,,,,,,,,,,,,,887.6088,888.9027,888.9027,889.7969,return,0.3068,,91.27604167,,,,,,FBP-YG-17.png,0.4,1.2,3,0.5,,,,,,,,,,,,,,,,,,0,51,51,2,1,,,,,,,,,,,,,,,,,,,,,,,
,,,,,V3_033,18,Female,2024-10-23_13h13.02.219,jersey_experiment_5_v3,2023.2.2,Win32,84.74576271,,,,,,,,,,,,,,,,889.7971,891.3498,891.3498,892.1615,return,0.1447,,98.17708333,,,,,,FBP-OG-71.png,0.43,1.2,34,0.75,,,,,,,,,,,,,,,,,,0,52,52,33,1,,,,,,,,,,,,,,,,,,,,,,,
,,,,,V3_033,18,Female,2024-10-23_13h13.02.219,jersey_experiment_5_v3,2023.2.2,Win32,84.74576271,,,,,,,,,,,,,,,,892.1618,893.4559,893.4559,894.7734,return,0.4005,,97.65625,,,,,,FBP-RB-71.png,0.45,1.2,50,0.5,,,,,,,,,,,,,,,,,,0,53,53,49,1,,,,,,,,,,,,,,,,,,,,,,,
,,,,,V3_033,18,Female,2024-10-23_13h13.02.219,jersey_experiment_5_v3,2023.2.2,Win32,84.74576271,,,,,,,,,,,,,,,,894.7736,896.0676,896.0677,897.2208,return,0.2516,,77.47395833,,,,,,FBP-YG-18.png,0.37,1.2,7,0.5,,,,,,,,,,,,,,,,,,0,54,54,6,1,,,,,,,,,,,,,,,,,,,,,,,
,,,,,V3_033,18,Female,2024-10-23_13h13.02.219,jersey_experiment_5_v3,2023.2.2,Win32,84.74576271,,,,,,,,,,,,,,,,897.221,898.7739,898.7739,899.7737,return,0.1964,,97.78645833,,,,,,FBP-OG-91.png,0.43,1.2,44,0.75,,,,,,,,,,,,,,,,,,0,55,55,43,1,,,,,,,,,,,,,,,,,,,,,,,
,,,,,V3_033,18,Female,2024-10-23_13h13.02.219,jersey_experiment_5_v3,2023.2.2,Win32,84.74576271,,,,,,,,,,,,,,,,899.7739,901.0678,901.0679,902.4796,return,0.3357,,76.82291667,,,,,,FBP-PT-81.png,0.37,1.2,22,0.5,,,,,,,,,,,,,,,,,,0,56,56,21,1,,,,,,,,,,,,,,,,,,,,,,,
,,,,,V3_033,18,Female,2024-10-23_13h13.02.219,jersey_experiment_5_v3,2023.2.2,Win32,84.74576271,,,,,,,,,,,,,,,,902.4799,903.7738,903.7739,904.4563,return,0.1986,,76.69270833,,,,,,FBP-PT-91.png,0.35,1.2,26,0.5,,,,,,,,,,,,,,,,,,0,57,57,25,1,,,,,,,,,,,,,,,,,,,,,,,
,,,,,V3_033,18,Female,2024-10-23_13h13.02.219,jersey_experiment_5_v3,2023.2.2,Win32,84.74576271,,,,,,,,,,,,,,,,904.4565,905.7503,905.7503,906.7388,return,0.1764,,93.61979167,,,,,,FBP-YG-19.png,0.4,1.2,13,0.5,,,,,,,,,,,,,,,,,,0,58,58,12,1,,,,,,,,,,,,,,,,,,,,,,,
,,,,,V3_033,18,Female,2024-10-23_13h13.02.219,jersey_experiment_5_v3,2023.2.2,Win32,84.74576271,,,,,,,,,,,,,,,,906.739,908.033,908.033,909.2327,return,0.1462,,62.5,,,,,,FBP-RB-81.png,0.35,1.2,51,0.5,,,,,,,,,,,,,,,,,,0,59,59,50,1,,,,,,,,,,,,,,,,,,,,,,,
,,,,,V3_033,18,Female,2024-10-23_13h13.02.219,jersey_experiment_5_v3,2023.2.2,Win32,84.74576271,,,,,,,,,,,,,,,,,,,,,,,,,,,,,,,,,,,,,,,,,,,,,,,,,,,,,,,,909.233,915.2333,return,5.9911,,,,,,,,,,,,,,,,,,,
,,,,,V3_033,18,Female,2024-10-23_13h13.02.219,jersey_experiment_5_v3,2023.2.2,Win32,84.74576271,,,,,,,,,,,,,,,,,,,,,,,,,,,,,,,,,,,,,,,,,,,,,,,,,,,,,,,,,,,,,915.2336,920.2568,1,3.652,return,1.3579,,,,,,,,,,,,
,,,,,V3_033,18,Female,2024-10-23_13h13.02.219,jersey_experiment_5_v3,2023.2.2,Win32,84.74576271,,,,,,,,,,,,,,,,,,,,,,,,,,,,,,,,,,,,,,,,,,,,,,,,,,,,,,,,,,,,,,,,,,,,920.257,974.4424,"possibly somehow related to color theory, or the value of the jersey numbers",right,48.0631,,,,,,
,,,,,V3_033,18,Female,2024-10-23_13h13.02.219,jersey_experiment_5_v3,2023.2.2,Win32,84.74576271,,,,,,,,,,,,,,,,,,,,,,,,,,,,,,,,,,,,,,,,,,,,,,,,,,,,,,,,,,,,,,,,,,,,,,,,,,974.4424,979.9335,return,5.483,