requirements.started,requirements.stopped,key_resp_3.keys,key_resp_3.rt,key_resp_3.duration,Subject ID,Age,Gender,date,expName,psychopyVersion,OS,frameRate,instructions1.started,instructions1.stopped,key_resp.keys,key_resp.rt,key_resp.duration,example.started,example.stopped,enter_2.keys,enter_2.rt,enter_2.duration,instructions2.started,instructions2.stopped,enter_3.keys,enter_3.rt,enter_3.duration,image.started,image.stopped,slider_2.started,slider_2.stopped,next.keys,next.rt,next.duration,slider.response,trial_block_1.thisRepN,trial_block_1.thisTrialN,trial_block_1.thisN,trial_block_1.thisIndex,trial_block_1.ran,Path,Width,Height,Index,Duration,trial_block_2.thisRepN,trial_block_2.thisTrialN,trial_block_2.thisN,trial_block_2.thisIndex,trial_block_2.ran,rest_break.started,rest_break.stopped,end_break.started,end_break.stopped,key_resp_5.keys,key_resp_5.rt,key_resp_5.duration,trial_block_3.thisRepN,trial_block_3.thisTrialN,trial_block_3.thisN,trial_block_3.thisIndex,trial_block_3.ran,trial_block_4.thisRepN,trial_block_4.thisTrialN,trial_block_4.thisN,trial_block_4.thisIndex,trial_block_4.ran,questions_intro.started,questions_intro.stopped,enter_12.keys,enter_12.rt,enter_12.duration,question2.started,question2.stopped,question_doingbest.response,question_doingbest.rt,enter_15.keys,enter_15.rt,enter_15.duration,pattern.started,pattern.stopped,pattern_2.text,enter_17.keys,enter_17.rt,enter_17.duration,thankyou.started,thankyou.stopped,enter_14.keys,enter_14.rt,enter_14.duration
0.0001,16.1864,return,16.1679,,V3_002,18,Female,2024-10-13_14h15.21.124,jersey_experiment_5_v3,2023.2.2,Win32,60.24096386,,,,,,,,,,,,,,,,,,,,,,,,,,,,,,,,,,,,,,,,,,,,,,,,,,,,,,,,,,,,,,,,,,,,,,,,,,,,,,
,,,,,V3_002,18,Female,2024-10-13_14h15.21.124,jersey_experiment_5_v3,2023.2.2,Win32,60.24096386,16.1865,27.5037,return,11.2985,,,,,,,,,,,,,,,,,,,,,,,,,,,,,,,,,,,,,,,,,,,,,,,,,,,,,,,,,,,,,,,,,,,,,,,,,,
,,,,,V3_002,18,Female,2024-10-13_14h15.21.124,jersey_experiment_5_v3,2023.2.2,Win32,60.24096386,,,,,,27.5038,33.5535,return,5.9786,,,,,,,,,,,,,,,,,,,,,,,,,,,,,,,,,,,,,,,,,,,,,,,,,,,,,,,,,,,,,,,,,,,,,
,,,,,V3_002,18,Female,2024-10-13_14h15.21.124,jersey_experiment_5_v3,2023.2.2,Win32,60.24096386,,,,,,,,,,,33.5537,60.8044,return,27.2375,,,,,,,,,,,,,,,,,,,,,,,,,,,,,,,,,,,,,,,,,,,,,,,,,,,,,,,,,,,,,,,,
,,,,,V3_002,18,Female,2024-10-13_14h15.21.124,jersey_experiment_5_v3,2023.2.2,Win32,60.24096386,,,,,,,,,,,,,,,,60.8166,62.1198,62.1199,82.9198,return,3.6551,,25.20833333,0,0,0,41,1,FBP-OG-19.png,0.37,1.2,42,0.5,,,,,,,,,,,,,,,,,,,,,,,,,,,,,,,,,,,,,,,,,,,,,
,,,,,V3_002,18,Female,2024-10-13_14h15.21.124,jersey_experiment_5_v3,2023.2.2,Win32,60.24096386,,,,,,,,,,,,,,,,82.9202,84.47,84.4702,93.0034,return,2.7356,,99.02777778,0,1,1,19,1,FBP-PT-17.png,0.45,1.2,20,0.75,,,,,,,,,,,,,,,,,,,,,,,,,,,,,,,,,,,,,,,,,,,,,
,,,,,V3_002,18,Female,2024-10-13_14h15.21.124,jersey_experiment_5_v3,2023.2.2,Win32,60.24096386,,,,,,,,,,,,,,,,93.004,94.5533,94.5534,102.3367,return,3.367,,99.79166667,0,2,2,23,1,FBP-PT-18.png,0.43,1.2,24,0.75,,,,,,,,,,,,,,,,,,,,,,,,,,,,,,,,,,,,,,,,,,,,,
,,,,,V3_002,18,Female,2024-10-13_14h15.21.124,jersey_experiment_5_v3,2023.2.2,Win32,60.24096386,,,,,,,,,,,,,,,,102.3445,103.8866,103.8867,109.1365,return,2.7175,,75.13888889,0,3,3,18,1,FBP-PT-17.png,0.43,1.2,19,0.75,,,,,,,,,,,,,,,,,,,,,,,,,,,,,,,,,,,,,,,,,,,,,
,,,,,V3_002,18,Female,2024-10-13_14h15.21.124,jersey_experiment_5_v3,2023.2.2,Win32,60.24096386,,,,,,,,,,,,,,,,109.137,110.4366,110.4368,116.9038,return,1.3809,,99.86111111,0,4,4,34,1,FBP-OG-17.png,0.45,1.2,35,0.5,,,,,,,,,,,,,,,,,,,,,,,,,,,,,,,,,,,,,,,,,,,,,
,,,,,V3_002,18,Female,2024-10-13_14h15.21.124,jersey_experiment_5_v3,2023.2.2,Win32,60.24096386,,,,,,,,,,,,,,,,116.9041,118.4534,118.4535,124.6035,return,2.4681,,24.79166667,0,5,5,11,1,FBP-YG-91.png,0.37,1.2,12,0.75,,,,,,,,,,,,,,,,,,,,,,,,,,,,,,,,,,,,,,,,,,,,,
,,,,,V3_002,18,Female,2024-10-13_14h15.21.124,jersey_experiment_5_v3,2023.2.2,Win32,60.24096386,,,,,,,,,,,,,,,,124.6042,126.1533,126.1534,132.0536,return,2.9241,,13.68055556,0,6,6,50,1,FBP-RB-18.png,0.35,1.2,51,0.75,,,,,,,,,,,,,,,,,,,,,,,,,,,,,,,,,,,,,,,,,,,,,
,,,,,V3_002,18,Female,2024-10-13_14h15.21.124,jersey_experiment_5_v3,2023.2.2,Win32,60.24096386,,,,,,,,,,,,,,,,132.062,133.6035,133.6037,138.4035,return,2.0098,,74.16666667,0,7,7,13,1,FBP-YG-91.png,0.43,1.2,14,0.75,,,,,,,,,,,,,,,,,,,,,,,,,,,,,,,,,,,,,,,,,,,,,
,,,,,V3_002,18,Female,2024-10-13_14h15.21.124,jersey_experiment_5_v3,2023.2.2,Win32,60.24096386,,,,,,,,,,,,,,,,138.404,139.9535,139.9535,150.2039,return,1.3018,,78.125,0,8,8,27,1,FBP-PT-19.png,0.4,1.2,28,0.75,,,,,,,,,,,,,,,,,,,,,,,,,,,,,,,,,,,,,,,,,,,,,
,,,,,V3_002,18,Female,2024-10-13_14h15.21.124,jersey_experiment_5_v3,2023.2.2,Win32,60.24096386,,,,,,,,,,,,,,,,150.2045,151.7535,151.7536,155.8703,return,1.0498,,83.68055556,0,9,9,17,1,FBP-PT-17.png,0.4,1.2,18,0.75,,,,,,,,,,,,,,,,,,,,,,,,,,,,,,,,,,,,,,,,,,,,,
,,,,,V3_002,18,Female,2024-10-13_14h15.21.124,jersey_experiment_5_v3,2023.2.2,Win32,60.24096386,,,,,,,,,,,,,,,,155.8709,157.4203,157.4204,165.3367,return,4.488,,95.48611111,0,10,10,57,1,FBP-RB-19.png,0.4,1.2,58,0.75,,,,,,,,,,,,,,,,,,,,,,,,,,,,,,,,,,,,,,,,,,,,,
,,,,,V3_002,18,Female,2024-10-13_14h15.21.124,jersey_experiment_5_v3,2023.2.2,Win32,60.24096386,,,,,,,,,,,,,,,,165.3444,166.887,166.8872,170.8206,return,1.6596,,72.15277778,0,11,11,1,1,FBP-YG-71.png,0.37,1.2,2,0.75,,,,,,,,,,,,,,,,,,,,,,,,,,,,,,,,,,,,,,,,,,,,,
,,,,,V3_002,18,Female,2024-10-13_14h15.21.124,jersey_experiment_5_v3,2023.2.2,Win32,60.24096386,,,,,,,,,,,,,,,,170.8209,172.1203,172.1203,179.687,return,2.789,,62.91666667,0,12,12,31,1,FBP-OG-17.png,0.37,1.2,32,0.5,,,,,,,,,,,,,,,,,,,,,,,,,,,,,,,,,,,,,,,,,,,,,
,,,,,V3_002,18,Female,2024-10-13_14h15.21.124,jersey_experiment_5_v3,2023.2.2,Win32,60.24096386,,,,,,,,,,,,,,,,179.6874,181.237,181.237,184.2205,return,1.0847,,99.72222222,0,13,13,59,1,FBP-RB-19.png,0.45,1.2,60,0.75,,,,,,,,,,,,,,,,,,,,,,,,,,,,,,,,,,,,,,,,,,,,,
,,,,,V3_002,18,Female,2024-10-13_14h15.21.124,jersey_experiment_5_v3,2023.2.2,Win32,60.24096386,,,,,,,,,,,,,,,,184.221,185.7702,185.7702,188.7202,return,1.2667,,99.72222222,0,14,14,28,1,FBP-PT-19.png,0.43,1.2,29,0.75,,,,,,,,,,,,,,,,,,,,,,,,,,,,,,,,,,,,,,,,,,,,,
,,,,,V3_002,18,Female,2024-10-13_14h15.21.124,jersey_experiment_5_v3,2023.2.2,Win32,60.24096386,,,,,,,,,,,,,,,,188.7204,190.2704,190.2705,197.4039,return,3.1181,,49.93055556,0,15,15,55,1,FBP-RB-19.png,0.35,1.2,56,0.75,,,,,,,,,,,,,,,,,,,,,,,,,,,,,,,,,,,,,,,,,,,,,
,,,,,V3_002,18,Female,2024-10-13_14h15.21.124,jersey_experiment_5_v3,2023.2.2,Win32,60.24096386,,,,,,,,,,,,,,,,197.4044,198.704,198.704,202.6374,return,1.0996,,39.02777778,0,16,16,30,1,FBP-OG-17.png,0.35,1.2,31,0.5,,,,,,,,,,,,,,,,,,,,,,,,,,,,,,,,,,,,,,,,,,,,,
,,,,,V3_002,18,Female,2024-10-13_14h15.21.124,jersey_experiment_5_v3,2023.2.2,Win32,60.24096386,,,,,,,,,,,,,,,,202.6376,204.1874,204.1875,208.1372,return,1.1711,,99.58333333,0,17,17,9,1,FBP-YG-81.png,0.45,1.2,10,0.75,,,,,,,,,,,,,,,,,,,,,,,,,,,,,,,,,,,,,,,,,,,,,
,,,,,V3_002,18,Female,2024-10-13_14h15.21.124,jersey_experiment_5_v3,2023.2.2,Win32,60.24096386,,,,,,,,,,,,,,,,208.1377,209.6871,209.6872,213.0206,return,1.0337,,99.79166667,0,18,18,49,1,FBP-RB-17.png,0.45,1.2,50,0.75,,,,,,,,,,,,,,,,,,,,,,,,,,,,,,,,,,,,,,,,,,,,,
,,,,,V3_002,18,Female,2024-10-13_14h15.21.124,jersey_experiment_5_v3,2023.2.2,Win32,60.24096386,,,,,,,,,,,,,,,,213.0212,214.3204,214.3205,217.8873,return,1.0658,,74.93055556,0,19,19,32,1,FBP-OG-17.png,0.4,1.2,33,0.5,,,,,,,,,,,,,,,,,,,,,,,,,,,,,,,,,,,,,,,,,,,,,
,,,,,V3_002,18,Female,2024-10-13_14h15.21.124,jersey_experiment_5_v3,2023.2.2,Win32,60.24096386,,,,,,,,,,,,,,,,217.8877,219.437,219.4371,224.1707,return,2.6859,,49.86111111,0,20,20,5,1,FBP-YG-81.png,0.35,1.2,6,0.75,,,,,,,,,,,,,,,,,,,,,,,,,,,,,,,,,,,,,,,,,,,,,
,,,,,V3_002,18,Female,2024-10-13_14h15.21.124,jersey_experiment_5_v3,2023.2.2,Win32,60.24096386,,,,,,,,,,,,,,,,224.1711,225.4706,225.4706,229.021,return,1.2347,,99.86111111,0,21,21,44,1,FBP-OG-19.png,0.45,1.2,45,0.5,,,,,,,,,,,,,,,,,,,,,,,,,,,,,,,,,,,,,,,,,,,,,
,,,,,V3_002,18,Female,2024-10-13_14h15.21.124,jersey_experiment_5_v3,2023.2.2,Win32,60.24096386,,,,,,,,,,,,,,,,229.0215,230.5706,230.5707,232.6373,return,1.0851,,99.79166667,0,22,22,48,1,FBP-RB-17.png,0.43,1.2,49,0.75,,,,,,,,,,,,,,,,,,,,,,,,,,,,,,,,,,,,,,,,,,,,,
,,,,,V3_002,18,Female,2024-10-13_14h15.21.124,jersey_experiment_5_v3,2023.2.2,Win32,60.24096386,,,,,,,,,,,,,,,,232.6378,234.1874,234.1876,237.4045,return,1.2022,,74.72222222,0,23,23,16,1,FBP-PT-17.png,0.37,1.2,17,0.75,,,,,,,,,,,,,,,,,,,,,,,,,,,,,,,,,,,,,,,,,,,,,
,,,,,V3_002,18,Female,2024-10-13_14h15.21.124,jersey_experiment_5_v3,2023.2.2,Win32,60.24096386,,,,,,,,,,,,,,,,237.405,238.7042,238.7043,241.9707,return,1.2571,,92.84722222,0,24,24,43,1,FBP-OG-19.png,0.43,1.2,44,0.5,,,,,,,,,,,,,,,,,,,,,,,,,,,,,,,,,,,,,,,,,,,,,
,,,,,V3_002,18,Female,2024-10-13_14h15.21.124,jersey_experiment_5_v3,2023.2.2,Win32,60.24096386,,,,,,,,,,,,,,,,241.9712,243.5209,243.521,245.9372,return,0.8617,,99.93055556,0,25,25,3,1,FBP-YG-71.png,0.43,1.2,4,0.75,,,,,,,,,,,,,,,,,,,,,,,,,,,,,,,,,,,,,,,,,,,,,
,,,,,V3_002,18,Female,2024-10-13_14h15.21.124,jersey_experiment_5_v3,2023.2.2,Win32,60.24096386,,,,,,,,,,,,,,,,245.9375,247.2375,247.2375,250.8042,return,1.159,,74.79166667,0,26,26,37,1,FBP-OG-18.png,0.4,1.2,38,0.5,,,,,,,,,,,,,,,,,,,,,,,,,,,,,,,,,,,,,,,,,,,,,
,,,,,V3_002,18,Female,2024-10-13_14h15.21.124,jersey_experiment_5_v3,2023.2.2,Win32,60.24096386,,,,,,,,,,,,,,,,250.8047,252.1041,252.1041,257.5209,return,2.1286,,50.06944444,0,27,27,35,1,FBP-OG-18.png,0.35,1.2,36,0.5,,,,,,,,,,,,,,,,,,,,,,,,,,,,,,,,,,,,,,,,,,,,,
,,,,,V3_002,18,Female,2024-10-13_14h15.21.124,jersey_experiment_5_v3,2023.2.2,Win32,60.24096386,,,,,,,,,,,,,,,,257.5215,259.0713,259.0713,270.9879,return,0.8514,,62.63888889,0,28,28,52,1,FBP-RB-18.png,0.4,1.2,53,0.75,,,,,,,,,,,,,,,,,,,,,,,,,,,,,,,,,,,,,,,,,,,,,
,,,,,V3_002,18,Female,2024-10-13_14h15.21.124,jersey_experiment_5_v3,2023.2.2,Win32,60.24096386,,,,,,,,,,,,,,,,270.9883,272.5376,272.5377,276.2882,return,0.8175,,37.15277778,0,29,29,45,1,FBP-RB-17.png,0.35,1.2,46,0.75,,,,,,,,,,,,,,,,,,,,,,,,,,,,,,,,,,,,,,,,,,,,,
,,,,,V3_002,18,Female,2024-10-13_14h15.21.124,jersey_experiment_5_v3,2023.2.2,Win32,60.24096386,,,,,,,,,,,,,,,,276.2888,277.8374,277.8374,288.188,return,9.0347,,63.88888889,0,30,30,22,1,FBP-PT-18.png,0.4,1.2,23,0.75,,,,,,,,,,,,,,,,,,,,,,,,,,,,,,,,,,,,,,,,,,,,,
,,,,,V3_002,18,Female,2024-10-13_14h15.21.124,jersey_experiment_5_v3,2023.2.2,Win32,60.24096386,,,,,,,,,,,,,,,,288.1884,289.7377,289.7377,291.7044,return,0.7221,,74.79166667,0,31,31,2,1,FBP-YG-71.png,0.4,1.2,3,0.75,,,,,,,,,,,,,,,,,,,,,,,,,,,,,,,,,,,,,,,,,,,,,
,,,,,V3_002,18,Female,2024-10-13_14h15.21.124,jersey_experiment_5_v3,2023.2.2,Win32,60.24096386,,,,,,,,,,,,,,,,291.7049,293.2545,293.2545,299.3543,return,4.0857,,62.5,0,32,32,15,1,FBP-PT-17.png,0.35,1.2,16,0.75,,,,,,,,,,,,,,,,,,,,,,,,,,,,,,,,,,,,,,,,,,,,,
,,,,,V3_002,18,Female,2024-10-13_14h15.21.124,jersey_experiment_5_v3,2023.2.2,Win32,60.24096386,,,,,,,,,,,,,,,,299.3652,300.9045,300.9045,306.4209,return,3.8077,,88.33333333,0,33,33,53,1,FBP-RB-18.png,0.43,1.2,54,0.75,,,,,,,,,,,,,,,,,,,,,,,,,,,,,,,,,,,,,,,,,,,,,
,,,,,V3_002,18,Female,2024-10-13_14h15.21.124,jersey_experiment_5_v3,2023.2.2,Win32,60.24096386,,,,,,,,,,,,,,,,306.4212,307.9713,307.9714,310.2712,return,0.8332,,99.79166667,0,34,34,24,1,FBP-PT-18.png,0.45,1.2,25,0.75,,,,,,,,,,,,,,,,,,,,,,,,,,,,,,,,,,,,,,,,,,,,,
,,,,,V3_002,18,Female,2024-10-13_14h15.21.124,jersey_experiment_5_v3,2023.2.2,Win32,60.24096386,,,,,,,,,,,,,,,,310.2716,311.8215,311.8217,317.7881,return,4.1177,,74.79166667,0,35,35,51,1,FBP-RB-18.png,0.37,1.2,52,0.75,,,,,,,,,,,,,,,,,,,,,,,,,,,,,,,,,,,,,,,,,,,,,
,,,,,V3_002,18,Female,2024-10-13_14h15.21.124,jersey_experiment_5_v3,2023.2.2,Win32,60.24096386,,,,,,,,,,,,,,,,317.7887,319.338,319.3381,322.3213,return,0.762,,88.33333333,0,36,36,47,1,FBP-RB-17.png,0.4,1.2,48,0.75,,,,,,,,,,,,,,,,,,,,,,,,,,,,,,,,,,,,,,,,,,,,,
,,,,,V3_002,18,Female,2024-10-13_14h15.21.124,jersey_experiment_5_v3,2023.2.2,Win32,60.24096386,,,,,,,,,,,,,,,,322.3217,323.8717,323.8718,327.4718,return,0.7523,,50,0,37,37,21,1,FBP-PT-18.png,0.37,1.2,22,0.75,,,,,,,,,,,,,,,,,,,,,,,,,,,,,,,,,,,,,,,,,,,,,
,,,,,V3_002,18,Female,2024-10-13_14h15.21.124,jersey_experiment_5_v3,2023.2.2,Win32,60.24096386,,,,,,,,,,,,,,,,327.4724,329.0211,329.0213,333.4712,return,2.9,,50.06944444,0,38,38,20,1,FBP-PT-18.png,0.35,1.2,21,0.75,,,,,,,,,,,,,,,,,,,,,,,,,,,,,,,,,,,,,,,,,,,,,
,,,,,V3_002,18,Female,2024-10-13_14h15.21.124,jersey_experiment_5_v3,2023.2.2,Win32,60.24096386,,,,,,,,,,,,,,,,333.4715,335.0218,335.022,338.6881,return,0.7171,,92.91666667,0,39,39,29,1,FBP-PT-19.png,0.45,1.2,30,0.75,,,,,,,,,,,,,,,,,,,,,,,,,,,,,,,,,,,,,,,,,,,,,
,,,,,V3_002,18,Female,2024-10-13_14h15.21.124,jersey_experiment_5_v3,2023.2.2,Win32,60.24096386,,,,,,,,,,,,,,,,338.6885,340.2381,340.2382,342.7713,return,0.8444,,74.79166667,0,40,40,46,1,FBP-RB-17.png,0.37,1.2,47,0.75,,,,,,,,,,,,,,,,,,,,,,,,,,,,,,,,,,,,,,,,,,,,,
,,,,,V3_002,18,Female,2024-10-13_14h15.21.124,jersey_experiment_5_v3,2023.2.2,Win32,60.24096386,,,,,,,,,,,,,,,,342.7716,344.3218,344.3219,346.9549,return,0.8368,,99.79166667,0,41,41,12,1,FBP-YG-91.png,0.4,1.2,13,0.75,,,,,,,,,,,,,,,,,,,,,,,,,,,,,,,,,,,,,,,,,,,,,
,,,,,V3_002,18,Female,2024-10-13_14h15.21.124,jersey_experiment_5_v3,2023.2.2,Win32,60.24096386,,,,,,,,,,,,,,,,346.9555,348.505,348.505,353.0384,return,0.8343,,50,0,42,42,0,1,FBP-YG-71.png,0.35,1.2,1,0.75,,,,,,,,,,,,,,,,,,,,,,,,,,,,,,,,,,,,,,,,,,,,,
,,,,,V3_002,18,Female,2024-10-13_14h15.21.124,jersey_experiment_5_v3,2023.2.2,Win32,60.24096386,,,,,,,,,,,,,,,,353.0389,354.3382,354.3382,356.8047,return,0.7246,,99.79166667,0,43,43,33,1,FBP-OG-17.png,0.43,1.2,34,0.5,,,,,,,,,,,,,,,,,,,,,,,,,,,,,,,,,,,,,,,,,,,,,
,,,,,V3_002,18,Female,2024-10-13_14h15.21.124,jersey_experiment_5_v3,2023.2.2,Win32,60.24096386,,,,,,,,,,,,,,,,356.805,358.1049,358.1049,363.5381,return,0.6771,,74.93055556,0,44,44,40,1,FBP-OG-19.png,0.35,1.2,41,0.5,,,,,,,,,,,,,,,,,,,,,,,,,,,,,,,,,,,,,,,,,,,,,
,,,,,V3_002,18,Female,2024-10-13_14h15.21.124,jersey_experiment_5_v3,2023.2.2,Win32,60.24096386,,,,,,,,,,,,,,,,363.5385,365.0885,365.0887,368.0555,return,0.8398,,99.72222222,0,45,45,8,1,FBP-YG-81.png,0.43,1.2,9,0.75,,,,,,,,,,,,,,,,,,,,,,,,,,,,,,,,,,,,,,,,,,,,,
,,,,,V3_002,18,Female,2024-10-13_14h15.21.124,jersey_experiment_5_v3,2023.2.2,Win32,60.24096386,,,,,,,,,,,,,,,,368.0559,369.3551,369.3551,371.9713,return,0.7925,,99.72222222,0,46,46,42,1,FBP-OG-19.png,0.4,1.2,43,0.5,,,,,,,,,,,,,,,,,,,,,,,,,,,,,,,,,,,,,,,,,,,,,
,,,,,V3_002,18,Female,2024-10-13_14h15.21.124,jersey_experiment_5_v3,2023.2.2,Win32,60.24096386,,,,,,,,,,,,,,,,371.9717,373.5218,373.5219,384.0718,return,9.2381,,99.79166667,0,47,47,56,1,FBP-RB-19.png,0.37,1.2,57,0.75,,,,,,,,,,,,,,,,,,,,,,,,,,,,,,,,,,,,,,,,,,,,,
,,,,,V3_002,18,Female,2024-10-13_14h15.21.124,jersey_experiment_5_v3,2023.2.2,Win32,60.24096386,,,,,,,,,,,,,,,,384.0722,385.3719,385.372,389.5216,return,0.8944,,99.79166667,0,48,48,38,1,FBP-OG-18.png,0.43,1.2,39,0.5,,,,,,,,,,,,,,,,,,,,,,,,,,,,,,,,,,,,,,,,,,,,,
,,,,,V3_002,18,Female,2024-10-13_14h15.21.124,jersey_experiment_5_v3,2023.2.2,Win32,60.24096386,,,,,,,,,,,,,,,,389.5218,391.0717,391.0718,392.9552,return,0.9179,,99.79166667,0,49,49,4,1,FBP-YG-71.png,0.45,1.2,5,0.75,,,,,,,,,,,,,,,,,,,,,,,,,,,,,,,,,,,,,,,,,,,,,
,,,,,V3_002,18,Female,2024-10-13_14h15.21.124,jersey_experiment_5_v3,2023.2.2,Win32,60.24096386,,,,,,,,,,,,,,,,392.9555,394.5052,394.5053,401.1883,return,0.974,,88.33333333,0,50,50,26,1,FBP-PT-19.png,0.37,1.2,27,0.75,,,,,,,,,,,,,,,,,,,,,,,,,,,,,,,,,,,,,,,,,,,,,
,,,,,V3_002,18,Female,2024-10-13_14h15.21.124,jersey_experiment_5_v3,2023.2.2,Win32,60.24096386,,,,,,,,,,,,,,,,401.1886,402.4883,402.4884,405.3052,return,0.7377,,88.33333333,0,51,51,36,1,FBP-OG-18.png,0.37,1.2,37,0.5,,,,,,,,,,,,,,,,,,,,,,,,,,,,,,,,,,,,,,,,,,,,,
,,,,,V3_002,18,Female,2024-10-13_14h15.21.124,jersey_experiment_5_v3,2023.2.2,Win32,60.24096386,,,,,,,,,,,,,,,,405.3058,406.8551,406.8553,413.0882,return,1.0961,,88.33333333,0,52,52,25,1,FBP-PT-19.png,0.35,1.2,26,0.75,,,,,,,,,,,,,,,,,,,,,,,,,,,,,,,,,,,,,,,,,,,,,
,,,,,V3_002,18,Female,2024-10-13_14h15.21.124,jersey_experiment_5_v3,2023.2.2,Win32,60.24096386,,,,,,,,,,,,,,,,413.0884,414.6386,414.6388,416.9219,return,0.7856,,99.86111111,0,53,53,7,1,FBP-YG-81.png,0.4,1.2,8,0.75,,,,,,,,,,,,,,,,,,,,,,,,,,,,,,,,,,,,,,,,,,,,,
,,,,,V3_002,18,Female,2024-10-13_14h15.21.124,jersey_experiment_5_v3,2023.2.2,Win32,60.24096386,,,,,,,,,,,,,,,,416.9223,418.472,418.4721,419.9384,return,0.7772,,99.86111111,0,54,54,58,1,FBP-RB-19.png,0.43,1.2,59,0.75,,,,,,,,,,,,,,,,,,,,,,,,,,,,,,,,,,,,,,,,,,,,,
,,,,,V3_002,18,Female,2024-10-13_14h15.21.124,jersey_experiment_5_v3,2023.2.2,Win32,60.24096386,,,,,,,,,,,,,,,,419.9386,421.4888,421.4888,424.1718,return,1.0348,,89.02777778,0,55,55,6,1,FBP-YG-81.png,0.37,1.2,7,0.75,,,,,,,,,,,,,,,,,,,,,,,,,,,,,,,,,,,,,,,,,,,,,
,,,,,V3_002,18,Female,2024-10-13_14h15.21.124,jersey_experiment_5_v3,2023.2.2,Win32,60.24096386,,,,,,,,,,,,,,,,424.1723,425.7221,425.7222,427.9221,return,0.8766,,74.86111111,0,56,56,10,1,FBP-YG-91.png,0.35,1.2,11,0.75,,,,,,,,,,,,,,,,,,,,,,,,,,,,,,,,,,,,,,,,,,,,,
,,,,,V3_002,18,Female,2024-10-13_14h15.21.124,jersey_experiment_5_v3,2023.2.2,Win32,60.24096386,,,,,,,,,,,,,,,,427.9226,429.2219,429.222,433.0056,return,0.8333,,99.79166667,0,57,57,39,1,FBP-OG-18.png,0.45,1.2,40,0.5,,,,,,,,,,,,,,,,,,,,,,,,,,,,,,,,,,,,,,,,,,,,,
,,,,,V3_002,18,Female,2024-10-13_14h15.21.124,jersey_experiment_5_v3,2023.2.2,Win32,60.24096386,,,,,,,,,,,,,,,,433.0059,434.5552,434.5553,436.0886,return,0.8378,,99.65277778,0,58,58,54,1,FBP-RB-18.png,0.45,1.2,55,0.75,,,,,,,,,,,,,,,,,,,,,,,,,,,,,,,,,,,,,,,,,,,,,
,,,,,V3_002,18,Female,2024-10-13_14h15.21.124,jersey_experiment_5_v3,2023.2.2,Win32,60.24096386,,,,,,,,,,,,,,,,436.0888,437.6386,437.6387,439.2053,return,0.8897,,99.44444444,0,59,59,14,1,FBP-YG-91.png,0.45,1.2,15,0.75,,,,,,,,,,,,,,,,,,,,,,,,,,,,,,,,,,,,,,,,,,,,,
,,,,,V3_002,18,Female,2024-10-13_14h15.21.124,jersey_experiment_5_v3,2023.2.2,Win32,60.24096386,,,,,,,,,,,,,,,,439.2107,440.5056,440.5056,444.0387,return,0.6905,,95.90277778,,,,,,FBP-OG-91.png,0.4,1.2,43,0.5,0,0,0,42,1,,,,,,,,,,,,,,,,,,,,,,,,,,,,,,,,,,,,,,,,
,,,,,V3_002,18,Female,2024-10-13_14h15.21.124,jersey_experiment_5_v3,2023.2.2,Win32,60.24096386,,,,,,,,,,,,,,,,444.0391,445.3387,445.3388,451.6224,return,4.2899,,88.88888889,,,,,,FBP-OG-81.png,0.37,1.2,37,0.5,0,1,1,36,1,,,,,,,,,,,,,,,,,,,,,,,,,,,,,,,,,,,,,,,,
,,,,,V3_002,18,Female,2024-10-13_14h15.21.124,jersey_experiment_5_v3,2023.2.2,Win32,60.24096386,,,,,,,,,,,,,,,,451.6342,453.1727,453.1727,455.289,return,0.6543,,99.65277778,,,,,,FBP-YG-17.png,0.45,1.2,5,0.75,0,2,2,4,1,,,,,,,,,,,,,,,,,,,,,,,,,,,,,,,,,,,,,,,,
,,,,,V3_002,18,Female,2024-10-13_14h15.21.124,jersey_experiment_5_v3,2023.2.2,Win32,60.24096386,,,,,,,,,,,,,,,,455.2894,456.8393,456.8393,458.9555,return,0.8185,,74.86111111,,,,,,FBP-YG-17.png,0.37,1.2,2,0.75,0,3,3,1,1,,,,,,,,,,,,,,,,,,,,,,,,,,,,,,,,,,,,,,,,
,,,,,V3_002,18,Female,2024-10-13_14h15.21.124,jersey_experiment_5_v3,2023.2.2,Win32,60.24096386,,,,,,,,,,,,,,,,458.9559,460.5054,460.5055,462.8889,return,0.8532,,99.93055556,,,,,,FBP-RB-71.png,0.45,1.2,50,0.75,0,4,4,49,1,,,,,,,,,,,,,,,,,,,,,,,,,,,,,,,,,,,,,,,,
,,,,,V3_002,18,Female,2024-10-13_14h15.21.124,jersey_experiment_5_v3,2023.2.2,Win32,60.24096386,,,,,,,,,,,,,,,,462.8892,464.4391,464.4391,471.3057,return,3.8202,,88.54166667,,,,,,FBP-RB-91.png,0.37,1.2,57,0.75,0,5,5,56,1,,,,,,,,,,,,,,,,,,,,,,,,,,,,,,,,,,,,,,,,
,,,,,V3_002,18,Female,2024-10-13_14h15.21.124,jersey_experiment_5_v3,2023.2.2,Win32,60.24096386,,,,,,,,,,,,,,,,471.3146,472.6056,472.6058,477.0557,return,2.1337,,74.72222222,,,,,,FBP-OG-81.png,0.35,1.2,36,0.5,0,6,6,35,1,,,,,,,,,,,,,,,,,,,,,,,,,,,,,,,,,,,,,,,,
,,,,,V3_002,18,Female,2024-10-13_14h15.21.124,jersey_experiment_5_v3,2023.2.2,Win32,60.24096386,,,,,,,,,,,,,,,,477.0562,478.606,478.6061,480.5724,return,0.3183,,99.79166667,,,,,,FBP-PT-91.png,0.43,1.2,29,0.75,0,7,7,28,1,,,,,,,,,,,,,,,,,,,,,,,,,,,,,,,,,,,,,,,,
,,,,,V3_002,18,Female,2024-10-13_14h15.21.124,jersey_experiment_5_v3,2023.2.2,Win32,60.24096386,,,,,,,,,,,,,,,,480.5729,482.1225,482.1226,484.0555,return,0.3391,,49.86111111,,,,,,FBP-PT-91.png,0.35,1.2,26,0.75,0,8,8,25,1,,,,,,,,,,,,,,,,,,,,,,,,,,,,,,,,,,,,,,,,
,,,,,V3_002,18,Female,2024-10-13_14h15.21.124,jersey_experiment_5_v3,2023.2.2,Win32,60.24096386,,,,,,,,,,,,,,,,484.0559,485.6063,485.6064,487.0725,return,0.4285,,99.58333333,,,,,,FBP-PT-71.png,0.45,1.2,20,0.75,0,9,9,19,1,,,,,,,,,,,,,,,,,,,,,,,,,,,,,,,,,,,,,,,,
,,,,,V3_002,18,Female,2024-10-13_14h15.21.124,jersey_experiment_5_v3,2023.2.2,Win32,60.24096386,,,,,,,,,,,,,,,,487.0727,488.6224,488.6225,490.3058,return,0.5449,,99.51388889,,,,,,FBP-RB-91.png,0.43,1.2,59,0.75,0,10,10,58,1,,,,,,,,,,,,,,,,,,,,,,,,,,,,,,,,,,,,,,,,
,,,,,V3_002,18,Female,2024-10-13_14h15.21.124,jersey_experiment_5_v3,2023.2.2,Win32,60.24096386,,,,,,,,,,,,,,,,490.3062,491.8555,491.8556,494.9891,return,0.3009,,98.125,,,,,,FBP-YG-18.png,0.43,1.2,9,0.75,0,11,11,8,1,,,,,,,,,,,,,,,,,,,,,,,,,,,,,,,,,,,,,,,,
,,,,,V3_002,18,Female,2024-10-13_14h15.21.124,jersey_experiment_5_v3,2023.2.2,Win32,60.24096386,,,,,,,,,,,,,,,,494.9896,496.2892,496.2893,497.6895,return,0.2212,,74.93055556,,,,,,FBP-OG-71.png,0.37,1.2,32,0.5,0,12,12,31,1,,,,,,,,,,,,,,,,,,,,,,,,,,,,,,,,,,,,,,,,
,,,,,V3_002,18,Female,2024-10-13_14h15.21.124,jersey_experiment_5_v3,2023.2.2,Win32,60.24096386,,,,,,,,,,,,,,,,497.6899,499.2392,499.2393,500.5557,return,0.3844,,90,,,,,,FBP-YG-19.png,0.43,1.2,14,0.75,0,13,13,13,1,,,,,,,,,,,,,,,,,,,,,,,,,,,,,,,,,,,,,,,,
,,,,,V3_002,18,Female,2024-10-13_14h15.21.124,jersey_experiment_5_v3,2023.2.2,Win32,60.24096386,,,,,,,,,,,,,,,,500.5561,501.8559,501.8561,503.4224,return,0.3006,,74.79166667,,,,,,FBP-OG-91.png,0.37,1.2,42,0.5,0,14,14,41,1,,,,,,,,,,,,,,,,,,,,,,,,,,,,,,,,,,,,,,,,
,,,,,V3_002,18,Female,2024-10-13_14h15.21.124,jersey_experiment_5_v3,2023.2.2,Win32,60.24096386,,,,,,,,,,,,,,,,503.4228,504.973,504.973,506.6226,return,0.5016,,99.30555556,,,,,,FBP-RB-91.png,0.45,1.2,60,0.75,0,15,15,59,1,,,,,,,,,,,,,,,,,,,,,,,,,,,,,,,,,,,,,,,,
,,,,,V3_002,18,Female,2024-10-13_14h15.21.124,jersey_experiment_5_v3,2023.2.2,Win32,60.24096386,,,,,,,,,,,,,,,,506.6232,507.9229,507.9231,509.1223,return,0.2107,,99.58333333,,,,,,FBP-OG-71.png,0.43,1.2,34,0.5,0,16,16,33,1,,,,,,,,,,,,,,,,,,,,,,,,,,,,,,,,,,,,,,,,
,,,,,V3_002,18,Female,2024-10-13_14h15.21.124,jersey_experiment_5_v3,2023.2.2,Win32,60.24096386,,,,,,,,,,,,,,,,509.1227,510.6728,510.6728,512.8892,return,0.2696,,49.79166667,,,,,,FBP-RB-71.png,0.35,1.2,46,0.75,0,17,17,45,1,,,,,,,,,,,,,,,,,,,,,,,,,,,,,,,,,,,,,,,,
,,,,,V3_002,18,Female,2024-10-13_14h15.21.124,jersey_experiment_5_v3,2023.2.2,Win32,60.24096386,,,,,,,,,,,,,,,,512.8896,514.439,514.4391,516.6724,return,0.6845,,50.20833333,,,,,,FBP-YG-18.png,0.35,1.2,6,0.75,0,18,18,5,1,,,,,,,,,,,,,,,,,,,,,,,,,,,,,,,,,,,,,,,,
,,,,,V3_002,18,Female,2024-10-13_14h15.21.124,jersey_experiment_5_v3,2023.2.2,Win32,60.24096386,,,,,,,,,,,,,,,,516.6728,518.2229,518.2231,520.2393,return,0.3833,,88.26388889,,,,,,FBP-YG-18.png,0.45,1.2,10,0.75,0,19,19,9,1,,,,,,,,,,,,,,,,,,,,,,,,,,,,,,,,,,,,,,,,
,,,,,V3_002,18,Female,2024-10-13_14h15.21.124,jersey_experiment_5_v3,2023.2.2,Win32,60.24096386,,,,,,,,,,,,,,,,520.2398,521.7897,521.7898,523.1226,return,0.3595,,99.79166667,,,,,,FBP-PT-91.png,0.45,1.2,30,0.75,0,20,20,29,1,,,,,,,,,,,,,,,,,,,,,,,,,,,,,,,,,,,,,,,,
,,,,,V3_002,18,Female,2024-10-13_14h15.21.124,jersey_experiment_5_v3,2023.2.2,Win32,60.24096386,,,,,,,,,,,,,,,,523.1229,524.4225,524.4225,526.7726,return,1.3574,,100,,,,,,FBP-OG-71.png,0.45,1.2,35,0.5,0,21,21,34,1,,,,,,,,,,,,,,,,,,,,,,,,,,,,,,,,,,,,,,,,
,,,,,V3_002,18,Female,2024-10-13_14h15.21.124,jersey_experiment_5_v3,2023.2.2,Win32,60.24096386,,,,,,,,,,,,,,,,526.7729,528.0725,528.0725,530.2894,return,0.2289,,99.51388889,,,,,,FBP-OG-91.png,0.45,1.2,45,0.5,0,22,22,44,1,,,,,,,,,,,,,,,,,,,,,,,,,,,,,,,,,,,,,,,,
,,,,,V3_002,18,Female,2024-10-13_14h15.21.124,jersey_experiment_5_v3,2023.2.2,Win32,60.24096386,,,,,,,,,,,,,,,,530.2898,531.5896,531.5897,533.8892,return,0.7622,,99.375,,,,,,FBP-OG-91.png,0.43,1.2,44,0.5,0,23,23,43,1,,,,,,,,,,,,,,,,,,,,,,,,,,,,,,,,,,,,,,,,
,,,,,V3_002,18,Female,2024-10-13_14h15.21.124,jersey_experiment_5_v3,2023.2.2,Win32,60.24096386,,,,,,,,,,,,,,,,533.8896,535.4399,535.44,536.9058,return,0.4701,,99.58333333,,,,,,FBP-PT-71.png,0.43,1.2,19,0.75,0,24,24,18,1,,,,,,,,,,,,,,,,,,,,,,,,,,,,,,,,,,,,,,,,
,,,,,V3_002,18,Female,2024-10-13_14h15.21.124,jersey_experiment_5_v3,2023.2.2,Win32,60.24096386,,,,,,,,,,,,,,,,536.9061,538.207,538.2071,541.5061,return,0.4439,,49.86111111,,,,,,FBP-OG-71.png,0.35,1.2,31,0.5,0,25,25,30,1,,,,,,,,,,,,,,,,,,,,,,,,,,,,,,,,,,,,,,,,
,,,,,V3_002,18,Female,2024-10-13_14h15.21.124,jersey_experiment_5_v3,2023.2.2,Win32,60.24096386,,,,,,,,,,,,,,,,541.5066,543.0562,543.0563,545.5725,return,0.2423,,62.84722222,,,,,,FBP-YG-19.png,0.37,1.2,12,0.75,0,26,26,11,1,,,,,,,,,,,,,,,,,,,,,,,,,,,,,,,,,,,,,,,,
,,,,,V3_002,18,Female,2024-10-13_14h15.21.124,jersey_experiment_5_v3,2023.2.2,Win32,60.24096386,,,,,,,,,,,,,,,,545.573,546.873,546.8731,548.6229,return,0.267,,74.72222222,,,,,,FBP-OG-71.png,0.4,1.2,33,0.5,0,27,27,32,1,,,,,,,,,,,,,,,,,,,,,,,,,,,,,,,,,,,,,,,,
,,,,,V3_002,18,Female,2024-10-13_14h15.21.124,jersey_experiment_5_v3,2023.2.2,Win32,60.24096386,,,,,,,,,,,,,,,,548.6234,550.1728,550.1728,551.773,return,0.1176,,88.54166667,,,,,,FBP-YG-18.png,0.4,1.2,8,0.75,0,28,28,7,1,,,,,,,,,,,,,,,,,,,,,,,,,,,,,,,,,,,,,,,,
,,,,,V3_002,18,Female,2024-10-13_14h15.21.124,jersey_experiment_5_v3,2023.2.2,Win32,60.24096386,,,,,,,,,,,,,,,,551.7734,553.3229,553.323,554.7897,return,0.3744,,89.375,,,,,,FBP-RB-81.png,0.37,1.2,52,0.75,0,29,29,51,1,,,,,,,,,,,,,,,,,,,,,,,,,,,,,,,,,,,,,,,,
,,,,,V3_002,18,Female,2024-10-13_14h15.21.124,jersey_experiment_5_v3,2023.2.2,Win32,60.24096386,,,,,,,,,,,,,,,,554.7902,556.3397,556.3398,559.4892,return,0.578,,88.05555556,,,,,,FBP-RB-91.png,0.35,1.2,56,0.75,0,30,30,55,1,,,,,,,,,,,,,,,,,,,,,,,,,,,,,,,,,,,,,,,,
,,,,,V3_002,18,Female,2024-10-13_14h15.21.124,jersey_experiment_5_v3,2023.2.2,Win32,60.24096386,,,,,,,,,,,,,,,,559.4895,561.0394,561.0395,562.9564,return,0.5845,,88.47222222,,,,,,FBP-PT-71.png,0.35,1.2,16,0.75,0,31,31,15,1,,,,,,,,,,,,,,,,,,,,,,,,,,,,,,,,,,,,,,,,
,,,,,V3_002,18,Female,2024-10-13_14h15.21.124,jersey_experiment_5_v3,2023.2.2,Win32,60.24096386,,,,,,,,,,,,,,,,562.9568,564.2561,564.2561,566.6895,return,0.2942,,97.91666667,,,,,,FBP-OG-81.png,0.43,1.2,39,0.5,0,32,32,38,1,,,,,,,,,,,,,,,,,,,,,,,,,,,,,,,,,,,,,,,,
,,,,,V3_002,18,Female,2024-10-13_14h15.21.124,jersey_experiment_5_v3,2023.2.2,Win32,60.24096386,,,,,,,,,,,,,,,,566.6899,567.9897,567.9897,569.9394,return,0.4084,,98.125,,,,,,FBP-OG-81.png,0.4,1.2,38,0.5,0,33,33,37,1,,,,,,,,,,,,,,,,,,,,,,,,,,,,,,,,,,,,,,,,
,,,,,V3_002,18,Female,2024-10-13_14h15.21.124,jersey_experiment_5_v3,2023.2.2,Win32,60.24096386,,,,,,,,,,,,,,,,569.9399,571.4896,571.4897,573.0726,return,0.4451,,98.33333333,,,,,,FBP-PT-81.png,0.43,1.2,24,0.75,0,34,34,23,1,,,,,,,,,,,,,,,,,,,,,,,,,,,,,,,,,,,,,,,,
,,,,,V3_002,18,Female,2024-10-13_14h15.21.124,jersey_experiment_5_v3,2023.2.2,Win32,60.24096386,,,,,,,,,,,,,,,,573.0731,574.3729,574.3729,582.6067,return,1.6497,,37.15277778,,,,,,FBP-OG-91.png,0.35,1.2,41,0.5,0,35,35,40,1,,,,,,,,,,,,,,,,,,,,,,,,,,,,,,,,,,,,,,,,
,,,,,V3_002,18,Female,2024-10-13_14h15.21.124,jersey_experiment_5_v3,2023.2.2,Win32,60.24096386,,,,,,,,,,,,,,,,582.6071,584.1564,584.1565,585.8563,return,0.451,,99.93055556,,,,,,FBP-YG-19.png,0.45,1.2,15,0.75,0,36,36,14,1,,,,,,,,,,,,,,,,,,,,,,,,,,,,,,,,,,,,,,,,
,,,,,V3_002,18,Female,2024-10-13_14h15.21.124,jersey_experiment_5_v3,2023.2.2,Win32,60.24096386,,,,,,,,,,,,,,,,585.8568,587.4068,587.4069,588.9562,return,0.2667,,74.72222222,,,,,,FBP-YG-19.png,0.4,1.2,13,0.75,0,37,37,12,1,,,,,,,,,,,,,,,,,,,,,,,,,,,,,,,,,,,,,,,,
,,,,,V3_002,18,Female,2024-10-13_14h15.21.124,jersey_experiment_5_v3,2023.2.2,Win32,60.24096386,,,,,,,,,,,,,,,,588.9566,590.5065,590.5067,591.8565,return,0.4672,,75,,,,,,FBP-RB-81.png,0.4,1.2,53,0.75,0,38,38,52,1,,,,,,,,,,,,,,,,,,,,,,,,,,,,,,,,,,,,,,,,
,,,,,V3_002,18,Female,2024-10-13_14h15.21.124,jersey_experiment_5_v3,2023.2.2,Win32,60.24096386,,,,,,,,,,,,,,,,591.8569,593.4067,593.4068,600.1234,return,3.4012,,92.01388889,,,,,,FBP-PT-81.png,0.45,1.2,25,0.75,0,39,39,24,1,,,,,,,,,,,,,,,,,,,,,,,,,,,,,,,,,,,,,,,,
,,,,,V3_002,18,Female,2024-10-13_14h15.21.124,jersey_experiment_5_v3,2023.2.2,Win32,60.24096386,,,,,,,,,,,,,,,,600.1367,601.6898,601.6899,605.023,return,0.9502,,97.84722222,,,,,,FBP-RB-71.png,0.43,1.2,49,0.75,0,40,40,48,1,,,,,,,,,,,,,,,,,,,,,,,,,,,,,,,,,,,,,,,,
,,,,,V3_002,18,Female,2024-10-13_14h15.21.124,jersey_experiment_5_v3,2023.2.2,Win32,60.24096386,,,,,,,,,,,,,,,,605.0232,606.5733,606.5734,611.4229,return,2.9002,,49.93055556,,,,,,FBP-YG-17.png,0.35,1.2,1,0.75,0,41,41,0,1,,,,,,,,,,,,,,,,,,,,,,,,,,,,,,,,,,,,,,,,
,,,,,V3_002,18,Female,2024-10-13_14h15.21.124,jersey_experiment_5_v3,2023.2.2,Win32,60.24096386,,,,,,,,,,,,,,,,611.4232,612.9732,612.9732,615.7402,return,0.3522,,74.93055556,,,,,,FBP-PT-81.png,0.4,1.2,23,0.75,0,42,42,22,1,,,,,,,,,,,,,,,,,,,,,,,,,,,,,,,,,,,,,,,,
,,,,,V3_002,18,Female,2024-10-13_14h15.21.124,jersey_experiment_5_v3,2023.2.2,Win32,60.24096386,,,,,,,,,,,,,,,,615.7408,617.2901,617.2901,622.4565,return,2.5374,,74.65277778,,,,,,FBP-RB-91.png,0.4,1.2,58,0.75,0,43,43,57,1,,,,,,,,,,,,,,,,,,,,,,,,,,,,,,,,,,,,,,,,
,,,,,V3_002,18,Female,2024-10-13_14h15.21.124,jersey_experiment_5_v3,2023.2.2,Win32,60.24096386,,,,,,,,,,,,,,,,622.4568,624.0068,624.0069,626.4897,return,0.5368,,49.86111111,,,,,,FBP-RB-81.png,0.35,1.2,51,0.75,0,44,44,50,1,,,,,,,,,,,,,,,,,,,,,,,,,,,,,,,,,,,,,,,,
,,,,,V3_002,18,Female,2024-10-13_14h15.21.124,jersey_experiment_5_v3,2023.2.2,Win32,60.24096386,,,,,,,,,,,,,,,,626.4902,628.0399,628.0399,629.6236,return,0.638,,49.79166667,,,,,,FBP-YG-18.png,0.37,1.2,7,0.75,0,45,45,6,1,,,,,,,,,,,,,,,,,,,,,,,,,,,,,,,,,,,,,,,,
,,,,,V3_002,18,Female,2024-10-13_14h15.21.124,jersey_experiment_5_v3,2023.2.2,Win32,60.24096386,,,,,,,,,,,,,,,,629.6241,631.1739,631.174,633.5734,return,0.2768,,74.93055556,,,,,,FBP-PT-91.png,0.37,1.2,27,0.75,0,46,46,26,1,,,,,,,,,,,,,,,,,,,,,,,,,,,,,,,,,,,,,,,,
,,,,,V3_002,18,Female,2024-10-13_14h15.21.124,jersey_experiment_5_v3,2023.2.2,Win32,60.24096386,,,,,,,,,,,,,,,,633.5739,635.1237,635.1239,637.3734,return,0.2838,,49.79166667,,,,,,FBP-YG-19.png,0.35,1.2,11,0.75,0,47,47,10,1,,,,,,,,,,,,,,,,,,,,,,,,,,,,,,,,,,,,,,,,
,,,,,V3_002,18,Female,2024-10-13_14h15.21.124,jersey_experiment_5_v3,2023.2.2,Win32,60.24096386,,,,,,,,,,,,,,,,637.3738,638.9242,638.9242,642.5903,return,2.4307,,87.70833333,,,,,,FBP-PT-71.png,0.4,1.2,18,0.75,0,48,48,17,1,,,,,,,,,,,,,,,,,,,,,,,,,,,,,,,,,,,,,,,,
,,,,,V3_002,18,Female,2024-10-13_14h15.21.124,jersey_experiment_5_v3,2023.2.2,Win32,60.24096386,,,,,,,,,,,,,,,,642.5909,644.1399,644.14,651.7402,return,6.0685,,74.79166667,,,,,,FBP-PT-81.png,0.35,1.2,21,0.75,0,49,49,20,1,,,,,,,,,,,,,,,,,,,,,,,,,,,,,,,,,,,,,,,,
,,,,,V3_002,18,Female,2024-10-13_14h15.21.124,jersey_experiment_5_v3,2023.2.2,Win32,60.24096386,,,,,,,,,,,,,,,,651.7517,653.2904,653.2905,655.0731,return,0.429,,99.72222222,,,,,,FBP-RB-81.png,0.43,1.2,54,0.75,0,50,50,53,1,,,,,,,,,,,,,,,,,,,,,,,,,,,,,,,,,,,,,,,,
,,,,,V3_002,18,Female,2024-10-13_14h15.21.124,jersey_experiment_5_v3,2023.2.2,Win32,60.24096386,,,,,,,,,,,,,,,,655.0733,656.6238,656.6239,658.1401,return,0.2516,,99.93055556,,,,,,FBP-YG-17.png,0.43,1.2,4,0.75,0,51,51,3,1,,,,,,,,,,,,,,,,,,,,,,,,,,,,,,,,,,,,,,,,
,,,,,V3_002,18,Female,2024-10-13_14h15.21.124,jersey_experiment_5_v3,2023.2.2,Win32,60.24096386,,,,,,,,,,,,,,,,658.1406,659.6899,659.6901,661.0069,return,0.2336,,87.91666667,,,,,,FBP-PT-71.png,0.37,1.2,17,0.75,0,52,52,16,1,,,,,,,,,,,,,,,,,,,,,,,,,,,,,,,,,,,,,,,,
,,,,,V3_002,18,Female,2024-10-13_14h15.21.124,jersey_experiment_5_v3,2023.2.2,Win32,60.24096386,,,,,,,,,,,,,,,,661.0075,662.5568,662.5568,664.5067,return,0.3177,,88.40277778,,,,,,FBP-RB-71.png,0.37,1.2,47,0.75,0,53,53,46,1,,,,,,,,,,,,,,,,,,,,,,,,,,,,,,,,,,,,,,,,
,,,,,V3_002,18,Female,2024-10-13_14h15.21.124,jersey_experiment_5_v3,2023.2.2,Win32,60.24096386,,,,,,,,,,,,,,,,664.507,666.057,666.057,667.757,return,0.2999,,99.16666667,,,,,,FBP-RB-71.png,0.4,1.2,48,0.75,0,54,54,47,1,,,,,,,,,,,,,,,,,,,,,,,,,,,,,,,,,,,,,,,,
,,,,,V3_002,18,Female,2024-10-13_14h15.21.124,jersey_experiment_5_v3,2023.2.2,Win32,60.24096386,,,,,,,,,,,,,,,,667.7575,669.057,669.0571,672.5073,return,0.4026,,99.86111111,,,,,,FBP-OG-81.png,0.45,1.2,40,0.5,0,55,55,39,1,,,,,,,,,,,,,,,,,,,,,,,,,,,,,,,,,,,,,,,,
,,,,,V3_002,18,Female,2024-10-13_14h15.21.124,jersey_experiment_5_v3,2023.2.2,Win32,60.24096386,,,,,,,,,,,,,,,,672.5075,674.0571,674.0572,676.64,return,1.1843,,100,,,,,,FBP-RB-81.png,0.45,1.2,55,0.75,0,56,56,54,1,,,,,,,,,,,,,,,,,,,,,,,,,,,,,,,,,,,,,,,,
,,,,,V3_002,18,Female,2024-10-13_14h15.21.124,jersey_experiment_5_v3,2023.2.2,Win32,60.24096386,,,,,,,,,,,,,,,,676.6404,678.1904,678.1905,682.4567,return,0.421,,87.63888889,,,,,,FBP-YG-17.png,0.4,1.2,3,0.75,0,57,57,2,1,,,,,,,,,,,,,,,,,,,,,,,,,,,,,,,,,,,,,,,,
,,,,,V3_002,18,Female,2024-10-13_14h15.21.124,jersey_experiment_5_v3,2023.2.2,Win32,60.24096386,,,,,,,,,,,,,,,,682.457,684.0084,684.0085,686.657,return,0.1624,,49.72222222,,,,,,FBP-PT-81.png,0.37,1.2,22,0.75,0,58,58,21,1,,,,,,,,,,,,,,,,,,,,,,,,,,,,,,,,,,,,,,,,
,,,,,V3_002,18,Female,2024-10-13_14h15.21.124,jersey_experiment_5_v3,2023.2.2,Win32,60.24096386,,,,,,,,,,,,,,,,686.6575,688.2069,688.207,690.807,return,0.5563,,49.93055556,,,,,,FBP-PT-91.png,0.4,1.2,28,0.75,0,59,59,27,1,,,,,,,,,,,,,,,,,,,,,,,,,,,,,,,,,,,,,,,,
,,,,,V3_002,18,Female,2024-10-13_14h15.21.124,jersey_experiment_5_v3,2023.2.2,Win32,60.24096386,,,,,,,,,,,,,,,,,,,,,,,,,,,,,,,,,,,,,,,690.8081,810.8085,,,,,,,,,,,,,,,,,,,,,,,,,,,,,,,,,,,,,,
,,,,,V3_002,18,Female,2024-10-13_14h15.21.124,jersey_experiment_5_v3,2023.2.2,Win32,60.24096386,,,,,,,,,,,,,,,,,,,,,,,,,,,,,,,,,,,,,,,,,810.8088,813.375,return,2.5488,,,,,,,,,,,,,,,,,,,,,,,,,,,,,,,,,,
,,,,,V3_002,18,Female,2024-10-13_14h15.21.124,jersey_experiment_5_v3,2023.2.2,Win32,60.24096386,,,,,,,,,,,,,,,,813.3887,814.9413,814.9414,822.7411,return,1.5578,,75,,,,,,FBP-OG-18.png,0.4,1.2,38,0.75,,,,,,,,,,,,,0,0,0,37,1,,,,,,,,,,,,,,,,,,,,,,,,,,,,
,,,,,V3_002,18,Female,2024-10-13_14h15.21.124,jersey_experiment_5_v3,2023.2.2,Win32,60.24096386,,,,,,,,,,,,,,,,822.7416,824.0412,824.0412,828.8581,return,2.6688,,50.06944444,,,,,,FBP-PT-18.png,0.37,1.2,22,0.5,,,,,,,,,,,,,0,1,1,21,1,,,,,,,,,,,,,,,,,,,,,,,,,,,,
,,,,,V3_002,18,Female,2024-10-13_14h15.21.124,jersey_experiment_5_v3,2023.2.2,Win32,60.24096386,,,,,,,,,,,,,,,,828.8584,830.1586,830.1588,832.2914,return,0.3757,,74.86111111,,,,,,FBP-RB-17.png,0.37,1.2,47,0.5,,,,,,,,,,,,,0,2,2,46,1,,,,,,,,,,,,,,,,,,,,,,,,,,,,
,,,,,V3_002,18,Female,2024-10-13_14h15.21.124,jersey_experiment_5_v3,2023.2.2,Win32,60.24096386,,,,,,,,,,,,,,,,832.2918,833.5911,833.5911,836.1413,return,0.7178,,99.58333333,,,,,,FBP-PT-18.png,0.45,1.2,25,0.5,,,,,,,,,,,,,0,3,3,24,1,,,,,,,,,,,,,,,,,,,,,,,,,,,,
,,,,,V3_002,18,Female,2024-10-13_14h15.21.124,jersey_experiment_5_v3,2023.2.2,Win32,60.24096386,,,,,,,,,,,,,,,,836.1417,837.4413,837.4414,839.4413,return,0.3614,,75.06944444,,,,,,FBP-PT-17.png,0.37,1.2,17,0.5,,,,,,,,,,,,,0,4,4,16,1,,,,,,,,,,,,,,,,,,,,,,,,,,,,
,,,,,V3_002,18,Female,2024-10-13_14h15.21.124,jersey_experiment_5_v3,2023.2.2,Win32,60.24096386,,,,,,,,,,,,,,,,839.4418,840.7413,840.7414,842.5581,return,0.4502,,99.79166667,,,,,,FBP-RB-17.png,0.43,1.2,49,0.5,,,,,,,,,,,,,0,5,5,48,1,,,,,,,,,,,,,,,,,,,,,,,,,,,,
,,,,,V3_002,18,Female,2024-10-13_14h15.21.124,jersey_experiment_5_v3,2023.2.2,Win32,60.24096386,,,,,,,,,,,,,,,,842.5586,843.8578,843.8579,845.9746,return,0.4898,,24.86111111,,,,,,FBP-RB-18.png,0.35,1.2,51,0.5,,,,,,,,,,,,,0,6,6,50,1,,,,,,,,,,,,,,,,,,,,,,,,,,,,
,,,,,V3_002,18,Female,2024-10-13_14h15.21.124,jersey_experiment_5_v3,2023.2.2,Win32,60.24096386,,,,,,,,,,,,,,,,845.9752,847.2744,847.2745,853.3249,return,0.2168,,74.86111111,,,,,,FBP-RB-19.png,0.4,1.2,58,0.5,,,,,,,,,,,,,0,7,7,57,1,,,,,,,,,,,,,,,,,,,,,,,,,,,,
,,,,,V3_002,18,Female,2024-10-13_14h15.21.124,jersey_experiment_5_v3,2023.2.2,Win32,60.24096386,,,,,,,,,,,,,,,,853.3254,854.6247,854.6248,857.008,return,0.318,,49.72222222,,,,,,FBP-YG-91.png,0.35,1.2,11,0.5,,,,,,,,,,,,,0,8,8,10,1,,,,,,,,,,,,,,,,,,,,,,,,,,,,
,,,,,V3_002,18,Female,2024-10-13_14h15.21.124,jersey_experiment_5_v3,2023.2.2,Win32,60.24096386,,,,,,,,,,,,,,,,857.0084,858.3084,858.3084,859.808,return,0.4293,,99.79166667,,,,,,FBP-YG-91.png,0.45,1.2,15,0.5,,,,,,,,,,,,,0,9,9,14,1,,,,,,,,,,,,,,,,,,,,,,,,,,,,
,,,,,V3_002,18,Female,2024-10-13_14h15.21.124,jersey_experiment_5_v3,2023.2.2,Win32,60.24096386,,,,,,,,,,,,,,,,859.8083,861.3586,861.3587,863.0088,return,0.2337,,24.93055556,,,,,,FBP-OG-18.png,0.35,1.2,36,0.75,,,,,,,,,,,,,0,10,10,35,1,,,,,,,,,,,,,,,,,,,,,,,,,,,,
,,,,,V3_002,18,Female,2024-10-13_14h15.21.124,jersey_experiment_5_v3,2023.2.2,Win32,60.24096386,,,,,,,,,,,,,,,,863.0091,864.3083,864.3084,867.5918,return,0.3548,,24.93055556,,,,,,FBP-YG-71.png,0.35,1.2,1,0.5,,,,,,,,,,,,,0,11,11,0,1,,,,,,,,,,,,,,,,,,,,,,,,,,,,
,,,,,V3_002,18,Female,2024-10-13_14h15.21.124,jersey_experiment_5_v3,2023.2.2,Win32,60.24096386,,,,,,,,,,,,,,,,867.5922,869.1417,869.1418,876.825,return,3.2707,,74.72222222,,,,,,FBP-OG-17.png,0.43,1.2,34,0.75,,,,,,,,,,,,,0,12,12,33,1,,,,,,,,,,,,,,,,,,,,,,,,,,,,
,,,,,V3_002,18,Female,2024-10-13_14h15.21.124,jersey_experiment_5_v3,2023.2.2,Win32,60.24096386,,,,,,,,,,,,,,,,876.8255,878.125,878.1251,881.8089,return,0.2789,,88.40277778,,,,,,FBP-YG-81.png,0.4,1.2,8,0.5,,,,,,,,,,,,,0,13,13,7,1,,,,,,,,,,,,,,,,,,,,,,,,,,,,
,,,,,V3_002,18,Female,2024-10-13_14h15.21.124,jersey_experiment_5_v3,2023.2.2,Win32,60.24096386,,,,,,,,,,,,,,,,881.8093,883.1082,883.1084,885.0415,return,0.2447,,99.79166667,,,,,,FBP-RB-18.png,0.43,1.2,54,0.5,,,,,,,,,,,,,0,14,14,53,1,,,,,,,,,,,,,,,,,,,,,,,,,,,,
,,,,,V3_002,18,Female,2024-10-13_14h15.21.124,jersey_experiment_5_v3,2023.2.2,Win32,60.24096386,,,,,,,,,,,,,,,,885.042,886.5917,886.5918,889.8584,return,1.6102,,87.98611111,,,,,,FBP-OG-19.png,0.4,1.2,43,0.75,,,,,,,,,,,,,0,15,15,42,1,,,,,,,,,,,,,,,,,,,,,,,,,,,,
,,,,,V3_002,18,Female,2024-10-13_14h15.21.124,jersey_experiment_5_v3,2023.2.2,Win32,60.24096386,,,,,,,,,,,,,,,,889.8589,891.1583,891.1585,892.6083,return,0.3627,,99.86111111,,,,,,FBP-YG-71.png,0.45,1.2,5,0.5,,,,,,,,,,,,,0,16,16,4,1,,,,,,,,,,,,,,,,,,,,,,,,,,,,
,,,,,V3_002,18,Female,2024-10-13_14h15.21.124,jersey_experiment_5_v3,2023.2.2,Win32,60.24096386,,,,,,,,,,,,,,,,892.6087,894.1587,894.1587,896.8088,return,0.4045,,50,,,,,,FBP-OG-19.png,0.35,1.2,41,0.75,,,,,,,,,,,,,0,17,17,40,1,,,,,,,,,,,,,,,,,,,,,,,,,,,,
,,,,,V3_002,18,Female,2024-10-13_14h15.21.124,jersey_experiment_5_v3,2023.2.2,Win32,60.24096386,,,,,,,,,,,,,,,,896.8093,898.3581,898.3582,900.2089,return,0.2852,,99.79166667,,,,,,FBP-OG-18.png,0.45,1.2,40,0.75,,,,,,,,,,,,,0,18,18,39,1,,,,,,,,,,,,,,,,,,,,,,,,,,,,
,,,,,V3_002,18,Female,2024-10-13_14h15.21.124,jersey_experiment_5_v3,2023.2.2,Win32,60.24096386,,,,,,,,,,,,,,,,900.2093,901.5082,901.5083,903.425,return,0.647,,99.72222222,,,,,,FBP-YG-71.png,0.43,1.2,4,0.5,,,,,,,,,,,,,0,19,19,3,1,,,,,,,,,,,,,,,,,,,,,,,,,,,,
,,,,,V3_002,18,Female,2024-10-13_14h15.21.124,jersey_experiment_5_v3,2023.2.2,Win32,60.24096386,,,,,,,,,,,,,,,,903.4254,904.7252,904.7253,906.6248,return,0.5948,,99.72222222,,,,,,FBP-RB-19.png,0.45,1.2,60,0.5,,,,,,,,,,,,,0,20,20,59,1,,,,,,,,,,,,,,,,,,,,,,,,,,,,
,,,,,V3_002,18,Female,2024-10-13_14h15.21.124,jersey_experiment_5_v3,2023.2.2,Win32,60.24096386,,,,,,,,,,,,,,,,906.6251,908.1748,908.1748,911.4582,return,0.6265,,99.72222222,,,,,,FBP-OG-17.png,0.45,1.2,35,0.75,,,,,,,,,,,,,0,21,21,34,1,,,,,,,,,,,,,,,,,,,,,,,,,,,,
,,,,,V3_002,18,Female,2024-10-13_14h15.21.124,jersey_experiment_5_v3,2023.2.2,Win32,60.24096386,,,,,,,,,,,,,,,,911.4585,912.7585,912.7586,915.1257,return,0.9079,,99.58333333,,,,,,FBP-YG-81.png,0.45,1.2,10,0.5,,,,,,,,,,,,,0,22,22,9,1,,,,,,,,,,,,,,,,,,,,,,,,,,,,
,,,,,V3_002,18,Female,2024-10-13_14h15.21.124,jersey_experiment_5_v3,2023.2.2,Win32,60.24096386,,,,,,,,,,,,,,,,915.1261,916.4251,916.4252,924.3083,return,2.2254,,50.13888889,,,,,,FBP-YG-71.png,0.37,1.2,2,0.5,,,,,,,,,,,,,0,23,23,1,1,,,,,,,,,,,,,,,,,,,,,,,,,,,,
,,,,,V3_002,18,Female,2024-10-13_14h15.21.124,jersey_experiment_5_v3,2023.2.2,Win32,60.24096386,,,,,,,,,,,,,,,,924.3088,925.6085,925.6087,927.5252,return,0.4416,,75,,,,,,FBP-RB-17.png,0.4,1.2,48,0.5,,,,,,,,,,,,,0,24,24,47,1,,,,,,,,,,,,,,,,,,,,,,,,,,,,
,,,,,V3_002,18,Female,2024-10-13_14h15.21.124,jersey_experiment_5_v3,2023.2.2,Win32,60.24096386,,,,,,,,,,,,,,,,927.5257,929.0758,929.0759,942.092,return,0.4343,,49.93055556,,,,,,FBP-OG-19.png,0.37,1.2,42,0.75,,,,,,,,,,,,,0,25,25,41,1,,,,,,,,,,,,,,,,,,,,,,,,,,,,
,,,,,V3_002,18,Female,2024-10-13_14h15.21.124,jersey_experiment_5_v3,2023.2.2,Win32,60.24096386,,,,,,,,,,,,,,,,942.0925,943.392,943.3921,945.792,return,0.4841,,25,,,,,,FBP-YG-81.png,0.35,1.2,6,0.5,,,,,,,,,,,,,0,26,26,5,1,,,,,,,,,,,,,,,,,,,,,,,,,,,,
,,,,,V3_002,18,Female,2024-10-13_14h15.21.124,jersey_experiment_5_v3,2023.2.2,Win32,60.24096386,,,,,,,,,,,,,,,,945.7925,947.0924,947.0925,948.9754,return,0.3845,,99.79166667,,,,,,FBP-RB-18.png,0.45,1.2,55,0.5,,,,,,,,,,,,,0,27,27,54,1,,,,,,,,,,,,,,,,,,,,,,,,,,,,
,,,,,V3_002,18,Female,2024-10-13_14h15.21.124,jersey_experiment_5_v3,2023.2.2,Win32,60.24096386,,,,,,,,,,,,,,,,948.9757,950.5262,950.5263,952.5753,return,0.3003,,99.86111111,,,,,,FBP-OG-19.png,0.43,1.2,44,0.75,,,,,,,,,,,,,0,28,28,43,1,,,,,,,,,,,,,,,,,,,,,,,,,,,,
,,,,,V3_002,18,Female,2024-10-13_14h15.21.124,jersey_experiment_5_v3,2023.2.2,Win32,60.24096386,,,,,,,,,,,,,,,,952.5757,954.1256,954.1257,955.692,return,0.3845,,74.93055556,,,,,,FBP-OG-17.png,0.37,1.2,32,0.75,,,,,,,,,,,,,0,29,29,31,1,,,,,,,,,,,,,,,,,,,,,,,,,,,,
,,,,,V3_002,18,Female,2024-10-13_14h15.21.124,jersey_experiment_5_v3,2023.2.2,Win32,60.24096386,,,,,,,,,,,,,,,,955.6924,957.2418,957.2419,961.7921,return,0.3159,,24.79166667,,,,,,FBP-OG-17.png,0.35,1.2,31,0.75,,,,,,,,,,,,,0,30,30,30,1,,,,,,,,,,,,,,,,,,,,,,,,,,,,
,,,,,V3_002,18,Female,2024-10-13_14h15.21.124,jersey_experiment_5_v3,2023.2.2,Win32,60.24096386,,,,,,,,,,,,,,,,961.7926,963.0922,963.0922,965.1256,return,0.3422,,75,,,,,,FBP-YG-81.png,0.43,1.2,9,0.5,,,,,,,,,,,,,0,31,31,8,1,,,,,,,,,,,,,,,,,,,,,,,,,,,,
,,,,,V3_002,18,Female,2024-10-13_14h15.21.124,jersey_experiment_5_v3,2023.2.2,Win32,60.24096386,,,,,,,,,,,,,,,,965.126,966.4255,966.4257,970.0088,return,0.3371,,18.88888889,,,,,,FBP-PT-17.png,0.35,1.2,16,0.5,,,,,,,,,,,,,0,32,32,15,1,,,,,,,,,,,,,,,,,,,,,,,,,,,,
,,,,,V3_002,18,Female,2024-10-13_14h15.21.124,jersey_experiment_5_v3,2023.2.2,Win32,60.24096386,,,,,,,,,,,,,,,,970.0092,971.3087,971.3088,973.642,return,0.936,,75,,,,,,FBP-YG-71.png,0.4,1.2,3,0.5,,,,,,,,,,,,,0,33,33,2,1,,,,,,,,,,,,,,,,,,,,,,,,,,,,
,,,,,V3_002,18,Female,2024-10-13_14h15.21.124,jersey_experiment_5_v3,2023.2.2,Win32,60.24096386,,,,,,,,,,,,,,,,973.643,975.1922,975.1923,977.142,return,0.4393,,74.86111111,,,,,,FBP-OG-17.png,0.4,1.2,33,0.75,,,,,,,,,,,,,0,34,34,32,1,,,,,,,,,,,,,,,,,,,,,,,,,,,,
,,,,,V3_002,18,Female,2024-10-13_14h15.21.124,jersey_experiment_5_v3,2023.2.2,Win32,60.24096386,,,,,,,,,,,,,,,,977.1424,978.692,978.6922,980.5258,return,0.5176,,50,,,,,,FBP-OG-18.png,0.37,1.2,37,0.75,,,,,,,,,,,,,0,35,35,36,1,,,,,,,,,,,,,,,,,,,,,,,,,,,,
,,,,,V3_002,18,Female,2024-10-13_14h15.21.124,jersey_experiment_5_v3,2023.2.2,Win32,60.24096386,,,,,,,,,,,,,,,,980.5264,981.8256,981.8257,993.7091,return,3.1327,,49.93055556,,,,,,FBP-PT-19.png,0.37,1.2,27,0.5,,,,,,,,,,,,,0,36,36,26,1,,,,,,,,,,,,,,,,,,,,,,,,,,,,
,,,,,V3_002,18,Female,2024-10-13_14h15.21.124,jersey_experiment_5_v3,2023.2.2,Win32,60.24096386,,,,,,,,,,,,,,,,993.7096,995.0092,995.0092,998.2257,return,1.1266,,99.58333333,,,,,,FBP-PT-17.png,0.43,1.2,19,0.5,,,,,,,,,,,,,0,37,37,18,1,,,,,,,,,,,,,,,,,,,,,,,,,,,,
,,,,,V3_002,18,Female,2024-10-13_14h15.21.124,jersey_experiment_5_v3,2023.2.2,Win32,60.24096386,,,,,,,,,,,,,,,,998.2261,999.5256,999.5256,1003.1256,return,0.4725,,99.79166667,,,,,,FBP-PT-18.png,0.43,1.2,24,0.5,,,,,,,,,,,,,0,38,38,23,1,,,,,,,,,,,,,,,,,,,,,,,,,,,,
,,,,,V3_002,18,Female,2024-10-13_14h15.21.124,jersey_experiment_5_v3,2023.2.2,Win32,60.24096386,,,,,,,,,,,,,,,,1003.126,1004.4264,1004.4265,1007.9921,return,0.2534,,24.86111111,,,,,,FBP-RB-17.png,0.35,1.2,46,0.5,,,,,,,,,,,,,0,39,39,45,1,,,,,,,,,,,,,,,,,,,,,,,,,,,,
,,,,,V3_002,18,Female,2024-10-13_14h15.21.124,jersey_experiment_5_v3,2023.2.2,Win32,60.24096386,,,,,,,,,,,,,,,,1007.9926,1009.2928,1009.2929,1013.109,return,0.3729,,74.79166667,,,,,,FBP-RB-18.png,0.4,1.2,53,0.5,,,,,,,,,,,,,0,40,40,52,1,,,,,,,,,,,,,,,,,,,,,,,,,,,,
,,,,,V3_002,18,Female,2024-10-13_14h15.21.124,jersey_experiment_5_v3,2023.2.2,Win32,60.24096386,,,,,,,,,,,,,,,,1013.1094,1014.409,1014.409,1016.3923,return,0.2384,,24.93055556,,,,,,FBP-PT-18.png,0.35,1.2,21,0.5,,,,,,,,,,,,,0,41,41,20,1,,,,,,,,,,,,,,,,,,,,,,,,,,,,
,,,,,V3_002,18,Female,2024-10-13_14h15.21.124,jersey_experiment_5_v3,2023.2.2,Win32,60.24096386,,,,,,,,,,,,,,,,1016.3927,1017.6927,1017.6928,1022.3262,return,2.9237,,50,,,,,,FBP-RB-19.png,0.37,1.2,57,0.5,,,,,,,,,,,,,0,42,42,56,1,,,,,,,,,,,,,,,,,,,,,,,,,,,,
,,,,,V3_002,18,Female,2024-10-13_14h15.21.124,jersey_experiment_5_v3,2023.2.2,Win32,60.24096386,,,,,,,,,,,,,,,,1022.3269,1023.6257,1023.6257,1024.9091,return,0.3001,,50,,,,,,FBP-RB-18.png,0.37,1.2,52,0.5,,,,,,,,,,,,,0,43,43,51,1,,,,,,,,,,,,,,,,,,,,,,,,,,,,
,,,,,V3_002,18,Female,2024-10-13_14h15.21.124,jersey_experiment_5_v3,2023.2.2,Win32,60.24096386,,,,,,,,,,,,,,,,1024.9097,1026.2095,1026.2095,1028.7927,return,0.1873,,99.79166667,,,,,,FBP-PT-17.png,0.45,1.2,20,0.5,,,,,,,,,,,,,0,44,44,19,1,,,,,,,,,,,,,,,,,,,,,,,,,,,,
,,,,,V3_002,18,Female,2024-10-13_14h15.21.124,jersey_experiment_5_v3,2023.2.2,Win32,60.24096386,,,,,,,,,,,,,,,,1028.7932,1030.0924,1030.0925,1032.1924,return,0.1624,,75,,,,,,FBP-YG-91.png,0.37,1.2,12,0.5,,,,,,,,,,,,,0,45,45,11,1,,,,,,,,,,,,,,,,,,,,,,,,,,,,
,,,,,V3_002,18,Female,2024-10-13_14h15.21.124,jersey_experiment_5_v3,2023.2.2,Win32,60.24096386,,,,,,,,,,,,,,,,1032.1928,1033.4927,1033.4927,1034.5427,return,0.3512,,74.86111111,,,,,,FBP-PT-18.png,0.4,1.2,23,0.5,,,,,,,,,,,,,0,46,46,22,1,,,,,,,,,,,,,,,,,,,,,,,,,,,,
,,,,,V3_002,18,Female,2024-10-13_14h15.21.124,jersey_experiment_5_v3,2023.2.2,Win32,60.24096386,,,,,,,,,,,,,,,,1034.543,1035.8426,1035.8428,1037.4261,return,0.3769,,99.86111111,,,,,,FBP-PT-19.png,0.45,1.2,30,0.5,,,,,,,,,,,,,0,47,47,29,1,,,,,,,,,,,,,,,,,,,,,,,,,,,,
,,,,,V3_002,18,Female,2024-10-13_14h15.21.124,jersey_experiment_5_v3,2023.2.2,Win32,60.24096386,,,,,,,,,,,,,,,,1037.4265,1038.7265,1038.7266,1040.5756,return,0.1681,,99.86111111,,,,,,FBP-PT-17.png,0.4,1.2,18,0.5,,,,,,,,,,,,,0,48,48,17,1,,,,,,,,,,,,,,,,,,,,,,,,,,,,
,,,,,V3_002,18,Female,2024-10-13_14h15.21.124,jersey_experiment_5_v3,2023.2.2,Win32,60.24096386,,,,,,,,,,,,,,,,1040.5759,1041.876,1041.876,1043.1593,return,0.2724,,75,,,,,,FBP-PT-19.png,0.4,1.2,28,0.5,,,,,,,,,,,,,0,49,49,27,1,,,,,,,,,,,,,,,,,,,,,,,,,,,,
,,,,,V3_002,18,Female,2024-10-13_14h15.21.124,jersey_experiment_5_v3,2023.2.2,Win32,60.24096386,,,,,,,,,,,,,,,,1043.1597,1044.4593,1044.4593,1046.0092,return,0.2532,,99.79166667,,,,,,FBP-YG-91.png,0.43,1.2,14,0.5,,,,,,,,,,,,,0,50,50,13,1,,,,,,,,,,,,,,,,,,,,,,,,,,,,
,,,,,V3_002,18,Female,2024-10-13_14h15.21.124,jersey_experiment_5_v3,2023.2.2,Win32,60.24096386,,,,,,,,,,,,,,,,1046.0095,1047.3091,1047.3092,1049.5924,return,0.2564,,99.86111111,,,,,,FBP-YG-91.png,0.4,1.2,13,0.5,,,,,,,,,,,,,0,51,51,12,1,,,,,,,,,,,,,,,,,,,,,,,,,,,,
,,,,,V3_002,18,Female,2024-10-13_14h15.21.124,jersey_experiment_5_v3,2023.2.2,Win32,60.24096386,,,,,,,,,,,,,,,,1049.5926,1050.8928,1050.8929,1052.7924,return,0.3034,,75.06944444,,,,,,FBP-YG-81.png,0.37,1.2,7,0.5,,,,,,,,,,,,,0,52,52,6,1,,,,,,,,,,,,,,,,,,,,,,,,,,,,
,,,,,V3_002,18,Female,2024-10-13_14h15.21.124,jersey_experiment_5_v3,2023.2.2,Win32,60.24096386,,,,,,,,,,,,,,,,1052.7928,1054.3429,1054.343,1056.3764,return,0.3055,,99.86111111,,,,,,FBP-OG-19.png,0.45,1.2,45,0.75,,,,,,,,,,,,,0,53,53,44,1,,,,,,,,,,,,,,,,,,,,,,,,,,,,
,,,,,V3_002,18,Female,2024-10-13_14h15.21.124,jersey_experiment_5_v3,2023.2.2,Win32,60.24096386,,,,,,,,,,,,,,,,1056.3768,1057.6765,1057.6765,1059.2592,return,0.2181,,99.86111111,,,,,,FBP-RB-17.png,0.45,1.2,50,0.5,,,,,,,,,,,,,0,54,54,49,1,,,,,,,,,,,,,,,,,,,,,,,,,,,,
,,,,,V3_002,18,Female,2024-10-13_14h15.21.124,jersey_experiment_5_v3,2023.2.2,Win32,60.24096386,,,,,,,,,,,,,,,,1059.2597,1060.5596,1060.5596,1065.4594,return,0.2924,,50.06944444,,,,,,FBP-PT-19.png,0.35,1.2,26,0.5,,,,,,,,,,,,,0,55,55,25,1,,,,,,,,,,,,,,,,,,,,,,,,,,,,
,,,,,V3_002,18,Female,2024-10-13_14h15.21.124,jersey_experiment_5_v3,2023.2.2,Win32,60.24096386,,,,,,,,,,,,,,,,1065.4599,1066.7593,1066.7594,1068.426,return,0.252,,74.86111111,,,,,,FBP-PT-19.png,0.43,1.2,29,0.5,,,,,,,,,,,,,0,56,56,28,1,,,,,,,,,,,,,,,,,,,,,,,,,,,,
,,,,,V3_002,18,Female,2024-10-13_14h15.21.124,jersey_experiment_5_v3,2023.2.2,Win32,60.24096386,,,,,,,,,,,,,,,,1068.4264,1069.7264,1069.7265,1071.3926,return,0.312,,99.79166667,,,,,,FBP-RB-19.png,0.43,1.2,59,0.5,,,,,,,,,,,,,0,57,57,58,1,,,,,,,,,,,,,,,,,,,,,,,,,,,,
,,,,,V3_002,18,Female,2024-10-13_14h15.21.124,jersey_experiment_5_v3,2023.2.2,Win32,60.24096386,,,,,,,,,,,,,,,,1071.3932,1072.9433,1072.9434,1075.9762,return,0.3734,,74.86111111,,,,,,FBP-OG-18.png,0.43,1.2,39,0.75,,,,,,,,,,,,,0,58,58,38,1,,,,,,,,,,,,,,,,,,,,,,,,,,,,
,,,,,V3_002,18,Female,2024-10-13_14h15.21.124,jersey_experiment_5_v3,2023.2.2,Win32,60.24096386,,,,,,,,,,,,,,,,1075.9766,1077.2761,1077.2761,1080.8594,return,0.2351,,24.93055556,,,,,,FBP-RB-19.png,0.35,1.2,56,0.5,,,,,,,,,,,,,0,59,59,55,1,,,,,,,,,,,,,,,,,,,,,,,,,,,,
,,,,,V3_002,18,Female,2024-10-13_14h15.21.124,jersey_experiment_5_v3,2023.2.2,Win32,60.24096386,,,,,,,,,,,,,,,,1080.8622,1082.1597,1082.1597,1086.0928,return,0.1664,,50,,,,,,FBP-PT-81.png,0.37,1.2,22,0.5,,,,,,,,,,,,,,,,,,0,0,0,21,1,,,,,,,,,,,,,,,,,,,,,,,
,,,,,V3_002,18,Female,2024-10-13_14h15.21.124,jersey_experiment_5_v3,2023.2.2,Win32,60.24096386,,,,,,,,,,,,,,,,1086.0932,1087.3928,1087.3929,1089.0595,return,0.7889,,50,,,,,,FBP-YG-19.png,0.37,1.2,12,0.5,,,,,,,,,,,,,,,,,,0,1,1,11,1,,,,,,,,,,,,,,,,,,,,,,,
,,,,,V3_002,18,Female,2024-10-13_14h15.21.124,jersey_experiment_5_v3,2023.2.2,Win32,60.24096386,,,,,,,,,,,,,,,,1089.0598,1090.3599,1090.36,1092.4265,return,0.3358,,75,,,,,,FBP-YG-17.png,0.4,1.2,3,0.5,,,,,,,,,,,,,,,,,,0,2,2,2,1,,,,,,,,,,,,,,,,,,,,,,,
,,,,,V3_002,18,Female,2024-10-13_14h15.21.124,jersey_experiment_5_v3,2023.2.2,Win32,60.24096386,,,,,,,,,,,,,,,,1092.4269,1093.727,1093.7271,1096.6766,return,0.3078,,99.79166667,,,,,,FBP-PT-81.png,0.45,1.2,25,0.5,,,,,,,,,,,,,,,,,,0,3,3,24,1,,,,,,,,,,,,,,,,,,,,,,,
,,,,,V3_002,18,Female,2024-10-13_14h15.21.124,jersey_experiment_5_v3,2023.2.2,Win32,60.24096386,,,,,,,,,,,,,,,,1096.6771,1097.9765,1097.9766,1100.0098,return,0.2859,,75,,,,,,FBP-YG-19.png,0.4,1.2,13,0.5,,,,,,,,,,,,,,,,,,0,4,4,12,1,,,,,,,,,,,,,,,,,,,,,,,
,,,,,V3_002,18,Female,2024-10-13_14h15.21.124,jersey_experiment_5_v3,2023.2.2,Win32,60.24096386,,,,,,,,,,,,,,,,1100.0103,1101.3094,1101.3095,1102.6095,return,0.5282,,75,,,,,,FBP-YG-18.png,0.4,1.2,8,0.5,,,,,,,,,,,,,,,,,,0,5,5,7,1,,,,,,,,,,,,,,,,,,,,,,,
,,,,,V3_002,18,Female,2024-10-13_14h15.21.124,jersey_experiment_5_v3,2023.2.2,Win32,60.24096386,,,,,,,,,,,,,,,,1102.6099,1103.9095,1103.9096,1107.0431,return,0.2927,,24.79166667,,,,,,FBP-YG-19.png,0.35,1.2,11,0.5,,,,,,,,,,,,,,,,,,0,6,6,10,1,,,,,,,,,,,,,,,,,,,,,,,
,,,,,V3_002,18,Female,2024-10-13_14h15.21.124,jersey_experiment_5_v3,2023.2.2,Win32,60.24096386,,,,,,,,,,,,,,,,1107.0435,1108.593,1108.593,1116.2262,return,1.9604,,49.93055556,,,,,,FBP-OG-71.png,0.37,1.2,32,0.75,,,,,,,,,,,,,,,,,,0,7,7,31,1,,,,,,,,,,,,,,,,,,,,,,,
,,,,,V3_002,18,Female,2024-10-13_14h15.21.124,jersey_experiment_5_v3,2023.2.2,Win32,60.24096386,,,,,,,,,,,,,,,,1116.2266,1117.5266,1117.5267,1119.71,return,0.3026,,99.93055556,,,,,,FBP-RB-81.png,0.45,1.2,55,0.5,,,,,,,,,,,,,,,,,,0,8,8,54,1,,,,,,,,,,,,,,,,,,,,,,,
,,,,,V3_002,18,Female,2024-10-13_14h15.21.124,jersey_experiment_5_v3,2023.2.2,Win32,60.24096386,,,,,,,,,,,,,,,,1119.7104,1121.2604,1121.2605,1125.9265,return,0.2239,,37.98611111,,,,,,FBP-OG-81.png,0.35,1.2,36,0.75,,,,,,,,,,,,,,,,,,0,9,9,35,1,,,,,,,,,,,,,,,,,,,,,,,
,,,,,V3_002,18,Female,2024-10-13_14h15.21.124,jersey_experiment_5_v3,2023.2.2,Win32,60.24096386,,,,,,,,,,,,,,,,1125.9268,1127.2264,1127.2265,1129.1597,return,0.2043,,99.79166667,,,,,,FBP-RB-81.png,0.43,1.2,54,0.5,,,,,,,,,,,,,,,,,,0,10,10,53,1,,,,,,,,,,,,,,,,,,,,,,,
,,,,,V3_002,18,Female,2024-10-13_14h15.21.124,jersey_experiment_5_v3,2023.2.2,Win32,60.24096386,,,,,,,,,,,,,,,,1129.1601,1130.4599,1130.46,1132.743,return,0.3048,,74.93055556,,,,,,FBP-RB-71.png,0.37,1.2,47,0.5,,,,,,,,,,,,,,,,,,0,11,11,46,1,,,,,,,,,,,,,,,,,,,,,,,
,,,,,V3_002,18,Female,2024-10-13_14h15.21.124,jersey_experiment_5_v3,2023.2.2,Win32,60.24096386,,,,,,,,,,,,,,,,1132.7433,1134.0435,1134.0436,1135.3764,return,0.3796,,74.93055556,,,,,,FBP-RB-81.png,0.37,1.2,52,0.5,,,,,,,,,,,,,,,,,,0,12,12,51,1,,,,,,,,,,,,,,,,,,,,,,,
,,,,,V3_002,18,Female,2024-10-13_14h15.21.124,jersey_experiment_5_v3,2023.2.2,Win32,60.24096386,,,,,,,,,,,,,,,,1135.3768,1136.9265,1136.9266,1138.6266,return,0.6271,,99.72222222,,,,,,FBP-OG-71.png,0.45,1.2,35,0.75,,,,,,,,,,,,,,,,,,0,13,13,34,1,,,,,,,,,,,,,,,,,,,,,,,
,,,,,V3_002,18,Female,2024-10-13_14h15.21.124,jersey_experiment_5_v3,2023.2.2,Win32,60.24096386,,,,,,,,,,,,,,,,1138.6271,1139.9269,1139.9271,1141.4597,return,0.3067,,99.93055556,,,,,,FBP-YG-19.png,0.45,1.2,15,0.5,,,,,,,,,,,,,,,,,,0,14,14,14,1,,,,,,,,,,,,,,,,,,,,,,,
,,,,,V3_002,18,Female,2024-10-13_14h15.21.124,jersey_experiment_5_v3,2023.2.2,Win32,60.24096386,,,,,,,,,,,,,,,,1141.46,1142.7599,1142.7599,1147.7265,return,1.4341,,37.15277778,,,,,,FBP-RB-91.png,0.35,1.2,56,0.5,,,,,,,,,,,,,,,,,,0,15,15,55,1,,,,,,,,,,,,,,,,,,,,,,,
,,,,,V3_002,18,Female,2024-10-13_14h15.21.124,jersey_experiment_5_v3,2023.2.2,Win32,60.24096386,,,,,,,,,,,,,,,,1147.7269,1149.0271,1149.0271,1152.8098,return,2.0031,,24.72222222,,,,,,FBP-YG-17.png,0.35,1.2,1,0.5,,,,,,,,,,,,,,,,,,0,16,16,0,1,,,,,,,,,,,,,,,,,,,,,,,
,,,,,V3_002,18,Female,2024-10-13_14h15.21.124,jersey_experiment_5_v3,2023.2.2,Win32,60.24096386,,,,,,,,,,,,,,,,1152.8102,1154.11,1154.1101,1157.0932,return,0.3913,,99.58333333,,,,,,FBP-RB-91.png,0.45,1.2,60,0.5,,,,,,,,,,,,,,,,,,0,17,17,59,1,,,,,,,,,,,,,,,,,,,,,,,
,,,,,V3_002,18,Female,2024-10-13_14h15.21.124,jersey_experiment_5_v3,2023.2.2,Win32,60.24096386,,,,,,,,,,,,,,,,1157.0936,1158.6436,1158.6437,1163.8933,return,0.8263,,87.5,,,,,,FBP-OG-81.png,0.45,1.2,40,0.75,,,,,,,,,,,,,,,,,,0,18,18,39,1,,,,,,,,,,,,,,,,,,,,,,,
,,,,,V3_002,18,Female,2024-10-13_14h15.21.124,jersey_experiment_5_v3,2023.2.2,Win32,60.24096386,,,,,,,,,,,,,,,,1163.8938,1165.1935,1165.1937,1168.1601,return,0.3452,,88.33333333,,,,,,FBP-PT-71.png,0.4,1.2,18,0.5,,,,,,,,,,,,,,,,,,0,19,19,17,1,,,,,,,,,,,,,,,,,,,,,,,
,,,,,V3_002,18,Female,2024-10-13_14h15.21.124,jersey_experiment_5_v3,2023.2.2,Win32,60.24096386,,,,,,,,,,,,,,,,1168.1605,1169.7102,1169.7102,1172.5437,return,0.3348,,74.86111111,,,,,,FBP-OG-71.png,0.4,1.2,33,0.75,,,,,,,,,,,,,,,,,,0,20,20,32,1,,,,,,,,,,,,,,,,,,,,,,,
,,,,,V3_002,18,Female,2024-10-13_14h15.21.124,jersey_experiment_5_v3,2023.2.2,Win32,60.24096386,,,,,,,,,,,,,,,,1172.5442,1173.8435,1173.8435,1177.5272,return,1.2228,,87.70833333,,,,,,FBP-YG-18.png,0.43,1.2,9,0.5,,,,,,,,,,,,,,,,,,0,21,21,8,1,,,,,,,,,,,,,,,,,,,,,,,
,,,,,V3_002,18,Female,2024-10-13_14h15.21.124,jersey_experiment_5_v3,2023.2.2,Win32,60.24096386,,,,,,,,,,,,,,,,1177.5276,1178.8266,1178.8267,1180.6102,return,0.3585,,88.26388889,,,,,,FBP-PT-81.png,0.4,1.2,23,0.5,,,,,,,,,,,,,,,,,,0,22,22,22,1,,,,,,,,,,,,,,,,,,,,,,,
,,,,,V3_002,18,Female,2024-10-13_14h15.21.124,jersey_experiment_5_v3,2023.2.2,Win32,60.24096386,,,,,,,,,,,,,,,,1180.6106,1181.91,1181.91,1184.3099,return,0.3061,,88.68055556,,,,,,FBP-PT-71.png,0.43,1.2,19,0.5,,,,,,,,,,,,,,,,,,0,23,23,18,1,,,,,,,,,,,,,,,,,,,,,,,
,,,,,V3_002,18,Female,2024-10-13_14h15.21.124,jersey_experiment_5_v3,2023.2.2,Win32,60.24096386,,,,,,,,,,,,,,,,1184.3103,1185.8601,1185.8603,1187.9101,return,0.5397,,88.68055556,,,,,,FBP-OG-91.png,0.45,1.2,45,0.75,,,,,,,,,,,,,,,,,,0,24,24,44,1,,,,,,,,,,,,,,,,,,,,,,,
,,,,,V3_002,18,Female,2024-10-13_14h15.21.124,jersey_experiment_5_v3,2023.2.2,Win32,60.24096386,,,,,,,,,,,,,,,,1187.9105,1189.2102,1189.2103,1191.5438,return,0.371,,75,,,,,,FBP-YG-18.png,0.37,1.2,7,0.5,,,,,,,,,,,,,,,,,,0,25,25,6,1,,,,,,,,,,,,,,,,,,,,,,,
,,,,,V3_002,18,Female,2024-10-13_14h15.21.124,jersey_experiment_5_v3,2023.2.2,Win32,60.24096386,,,,,,,,,,,,,,,,1191.5442,1192.8437,1192.8439,1195.7602,return,0.9177,,49.93055556,,,,,,FBP-PT-81.png,0.35,1.2,21,0.5,,,,,,,,,,,,,,,,,,0,26,26,20,1,,,,,,,,,,,,,,,,,,,,,,,
,,,,,V3_002,18,Female,2024-10-13_14h15.21.124,jersey_experiment_5_v3,2023.2.2,Win32,60.24096386,,,,,,,,,,,,,,,,1195.7606,1197.0603,1197.0605,1199.8101,return,0.3946,,24.79166667,,,,,,FBP-YG-18.png,0.35,1.2,6,0.5,,,,,,,,,,,,,,,,,,0,27,27,5,1,,,,,,,,,,,,,,,,,,,,,,,
,,,,,V3_002,18,Female,2024-10-13_14h15.21.124,jersey_experiment_5_v3,2023.2.2,Win32,60.24096386,,,,,,,,,,,,,,,,1199.8104,1201.1104,1201.1104,1203.8273,return,1.1751,,50.13888889,,,,,,FBP-PT-71.png,0.37,1.2,17,0.5,,,,,,,,,,,,,,,,,,0,28,28,16,1,,,,,,,,,,,,,,,,,,,,,,,
,,,,,V3_002,18,Female,2024-10-13_14h15.21.124,jersey_experiment_5_v3,2023.2.2,Win32,60.24096386,,,,,,,,,,,,,,,,1203.8278,1205.1276,1205.1277,1207.8604,return,1.5737,,49.79166667,,,,,,FBP-YG-17.png,0.37,1.2,2,0.5,,,,,,,,,,,,,,,,,,0,29,29,1,1,,,,,,,,,,,,,,,,,,,,,,,
,,,,,V3_002,18,Female,2024-10-13_14h15.21.124,jersey_experiment_5_v3,2023.2.2,Win32,60.24096386,,,,,,,,,,,,,,,,1207.8609,1209.4104,1209.4105,1212.0938,return,0.2851,,37.77777778,,,,,,FBP-OG-91.png,0.35,1.2,41,0.75,,,,,,,,,,,,,,,,,,0,30,30,40,1,,,,,,,,,,,,,,,,,,,,,,,
,,,,,V3_002,18,Female,2024-10-13_14h15.21.124,jersey_experiment_5_v3,2023.2.2,Win32,60.24096386,,,,,,,,,,,,,,,,1212.0943,1213.3942,1213.3942,1214.9439,return,0.1673,,50,,,,,,FBP-PT-91.png,0.4,1.2,28,0.5,,,,,,,,,,,,,,,,,,0,31,31,27,1,,,,,,,,,,,,,,,,,,,,,,,
,,,,,V3_002,18,Female,2024-10-13_14h15.21.124,jersey_experiment_5_v3,2023.2.2,Win32,60.24096386,,,,,,,,,,,,,,,,1214.9443,1216.2444,1216.2446,1221.8274,return,0.4421,,88.125,,,,,,FBP-YG-19.png,0.43,1.2,14,0.5,,,,,,,,,,,,,,,,,,0,32,32,13,1,,,,,,,,,,,,,,,,,,,,,,,
,,,,,V3_002,18,Female,2024-10-13_14h15.21.124,jersey_experiment_5_v3,2023.2.2,Win32,60.24096386,,,,,,,,,,,,,,,,1221.8277,1223.1274,1223.1276,1224.9771,return,0.3952,,99.86111111,,,,,,FBP-PT-71.png,0.45,1.2,20,0.5,,,,,,,,,,,,,,,,,,0,33,33,19,1,,,,,,,,,,,,,,,,,,,,,,,
,,,,,V3_002,18,Female,2024-10-13_14h15.21.124,jersey_experiment_5_v3,2023.2.2,Win32,60.24096386,,,,,,,,,,,,,,,,1224.9775,1226.2772,1226.2773,1228.5437,return,0.295,,49.86111111,,,,,,FBP-RB-81.png,0.35,1.2,51,0.5,,,,,,,,,,,,,,,,,,0,34,34,50,1,,,,,,,,,,,,,,,,,,,,,,,
,,,,,V3_002,18,Female,2024-10-13_14h15.21.124,jersey_experiment_5_v3,2023.2.2,Win32,60.24096386,,,,,,,,,,,,,,,,1228.5439,1229.8442,1229.8442,1232.0272,return,0.3195,,49.86111111,,,,,,FBP-PT-91.png,0.35,1.2,26,0.5,,,,,,,,,,,,,,,,,,0,35,35,25,1,,,,,,,,,,,,,,,,,,,,,,,
,,,,,V3_002,18,Female,2024-10-13_14h15.21.124,jersey_experiment_5_v3,2023.2.2,Win32,60.24096386,,,,,,,,,,,,,,,,1232.0274,1233.327,1233.327,1235.3937,return,0.411,,49.86111111,,,,,,FBP-PT-91.png,0.37,1.2,27,0.5,,,,,,,,,,,,,,,,,,0,36,36,26,1,,,,,,,,,,,,,,,,,,,,,,,
,,,,,V3_002,18,Female,2024-10-13_14h15.21.124,jersey_experiment_5_v3,2023.2.2,Win32,60.24096386,,,,,,,,,,,,,,,,1235.3942,1236.694,1236.6941,1239.3437,return,0.8345,,74.93055556,,,,,,FBP-PT-81.png,0.43,1.2,24,0.5,,,,,,,,,,,,,,,,,,0,37,37,23,1,,,,,,,,,,,,,,,,,,,,,,,
,,,,,V3_002,18,Female,2024-10-13_14h15.21.124,jersey_experiment_5_v3,2023.2.2,Win32,60.24096386,,,,,,,,,,,,,,,,1239.3442,1240.8937,1240.8938,1242.9273,return,0.4334,,75.13888889,,,,,,FBP-OG-81.png,0.4,1.2,38,0.75,,,,,,,,,,,,,,,,,,0,38,38,37,1,,,,,,,,,,,,,,,,,,,,,,,
,,,,,V3_002,18,Female,2024-10-13_14h15.21.124,jersey_experiment_5_v3,2023.2.2,Win32,60.24096386,,,,,,,,,,,,,,,,1242.9277,1244.4772,1244.4773,1247.1938,return,1.2688,,49.79166667,,,,,,FBP-OG-91.png,0.37,1.2,42,0.75,,,,,,,,,,,,,,,,,,0,39,39,41,1,,,,,,,,,,,,,,,,,,,,,,,
,,,,,V3_002,18,Female,2024-10-13_14h15.21.124,jersey_experiment_5_v3,2023.2.2,Win32,60.24096386,,,,,,,,,,,,,,,,1247.1942,1248.4939,1248.494,1251.6941,return,0.3007,,99.79166667,,,,,,FBP-YG-17.png,0.43,1.2,4,0.5,,,,,,,,,,,,,,,,,,0,40,40,3,1,,,,,,,,,,,,,,,,,,,,,,,
,,,,,V3_002,18,Female,2024-10-13_14h15.21.124,jersey_experiment_5_v3,2023.2.2,Win32,60.24096386,,,,,,,,,,,,,,,,1251.6945,1252.9941,1252.9941,1254.4106,return,0.3519,,99.79166667,,,,,,FBP-RB-91.png,0.43,1.2,59,0.5,,,,,,,,,,,,,,,,,,0,41,41,58,1,,,,,,,,,,,,,,,,,,,,,,,
,,,,,V3_002,18,Female,2024-10-13_14h15.21.124,jersey_experiment_5_v3,2023.2.2,Win32,60.24096386,,,,,,,,,,,,,,,,1254.4109,1255.7107,1255.7108,1257.844,return,0.7411,,75,,,,,,FBP-RB-91.png,0.37,1.2,57,0.5,,,,,,,,,,,,,,,,,,0,42,42,56,1,,,,,,,,,,,,,,,,,,,,,,,
,,,,,V3_002,18,Female,2024-10-13_14h15.21.124,jersey_experiment_5_v3,2023.2.2,Win32,60.24096386,,,,,,,,,,,,,,,,1257.8443,1259.3938,1259.394,1260.9942,return,0.2265,,99.93055556,,,,,,FBP-OG-91.png,0.43,1.2,44,0.75,,,,,,,,,,,,,,,,,,0,43,43,43,1,,,,,,,,,,,,,,,,,,,,,,,
,,,,,V3_002,18,Female,2024-10-13_14h15.21.124,jersey_experiment_5_v3,2023.2.2,Win32,60.24096386,,,,,,,,,,,,,,,,1260.9946,1262.294,1262.2941,1264.3775,return,1.053,,100,,,,,,FBP-YG-18.png,0.45,1.2,10,0.5,,,,,,,,,,,,,,,,,,0,44,44,9,1,,,,,,,,,,,,,,,,,,,,,,,
,,,,,V3_002,18,Female,2024-10-13_14h15.21.124,jersey_experiment_5_v3,2023.2.2,Win32,60.24096386,,,,,,,,,,,,,,,,1264.3779,1265.9272,1265.9272,1270.9941,return,1.0435,,89.16666667,,,,,,FBP-OG-91.png,0.4,1.2,43,0.75,,,,,,,,,,,,,,,,,,0,45,45,42,1,,,,,,,,,,,,,,,,,,,,,,,
,,,,,V3_002,18,Female,2024-10-13_14h15.21.124,jersey_experiment_5_v3,2023.2.2,Win32,60.24096386,,,,,,,,,,,,,,,,1270.9945,1272.2939,1272.294,1274.7278,return,0.3055,,99.65277778,,,,,,FBP-PT-91.png,0.43,1.2,29,0.5,,,,,,,,,,,,,,,,,,0,46,46,28,1,,,,,,,,,,,,,,,,,,,,,,,
,,,,,V3_002,18,Female,2024-10-13_14h15.21.124,jersey_experiment_5_v3,2023.2.2,Win32,60.24096386,,,,,,,,,,,,,,,,1274.7284,1276.0275,1276.0276,1277.728,return,0.3854,,99.79166667,,,,,,FBP-RB-81.png,0.4,1.2,53,0.5,,,,,,,,,,,,,,,,,,0,47,47,52,1,,,,,,,,,,,,,,,,,,,,,,,
,,,,,V3_002,18,Female,2024-10-13_14h15.21.124,jersey_experiment_5_v3,2023.2.2,Win32,60.24096386,,,,,,,,,,,,,,,,1277.7287,1279.2777,1279.2778,1280.6942,return,0.4399,,99.86111111,,,,,,FBP-OG-71.png,0.43,1.2,34,0.75,,,,,,,,,,,,,,,,,,0,48,48,33,1,,,,,,,,,,,,,,,,,,,,,,,
,,,,,V3_002,18,Female,2024-10-13_14h15.21.124,jersey_experiment_5_v3,2023.2.2,Win32,60.24096386,,,,,,,,,,,,,,,,1280.6946,1282.2445,1282.2445,1287.1942,return,0.4865,,24.72222222,,,,,,FBP-OG-71.png,0.35,1.2,31,0.75,,,,,,,,,,,,,,,,,,0,49,49,30,1,,,,,,,,,,,,,,,,,,,,,,,
,,,,,V3_002,18,Female,2024-10-13_14h15.21.124,jersey_experiment_5_v3,2023.2.2,Win32,60.24096386,,,,,,,,,,,,,,,,1287.1945,1288.4943,1288.4944,1290.5607,return,0.662,,99.79166667,,,,,,FBP-YG-17.png,0.45,1.2,5,0.5,,,,,,,,,,,,,,,,,,0,50,50,4,1,,,,,,,,,,,,,,,,,,,,,,,
,,,,,V3_002,18,Female,2024-10-13_14h15.21.124,jersey_experiment_5_v3,2023.2.2,Win32,60.24096386,,,,,,,,,,,,,,,,1290.5611,1291.8608,1291.8609,1293.744,return,0.3836,,99.72222222,,,,,,FBP-RB-71.png,0.4,1.2,48,0.5,,,,,,,,,,,,,,,,,,0,51,51,47,1,,,,,,,,,,,,,,,,,,,,,,,
,,,,,V3_002,18,Female,2024-10-13_14h15.21.124,jersey_experiment_5_v3,2023.2.2,Win32,60.24096386,,,,,,,,,,,,,,,,1293.7443,1295.2941,1295.2941,1300.1278,return,1.3794,,49.79166667,,,,,,FBP-OG-81.png,0.37,1.2,37,0.75,,,,,,,,,,,,,,,,,,0,52,52,36,1,,,,,,,,,,,,,,,,,,,,,,,
,,,,,V3_002,18,Female,2024-10-13_14h15.21.124,jersey_experiment_5_v3,2023.2.2,Win32,60.24096386,,,,,,,,,,,,,,,,1300.1281,1301.6776,1301.6776,1304.0278,return,0.3524,,99.72222222,,,,,,FBP-OG-81.png,0.43,1.2,39,0.75,,,,,,,,,,,,,,,,,,0,53,53,38,1,,,,,,,,,,,,,,,,,,,,,,,
,,,,,V3_002,18,Female,2024-10-13_14h15.21.124,jersey_experiment_5_v3,2023.2.2,Win32,60.24096386,,,,,,,,,,,,,,,,1304.0283,1305.3282,1305.3283,1307.8276,return,1.0588,,74.79166667,,,,,,FBP-RB-91.png,0.4,1.2,58,0.5,,,,,,,,,,,,,,,,,,0,54,54,57,1,,,,,,,,,,,,,,,,,,,,,,,
,,,,,V3_002,18,Female,2024-10-13_14h15.21.124,jersey_experiment_5_v3,2023.2.2,Win32,60.24096386,,,,,,,,,,,,,,,,1307.828,1309.1279,1309.128,1311.6278,return,0.2669,,24.93055556,,,,,,FBP-PT-71.png,0.35,1.2,16,0.5,,,,,,,,,,,,,,,,,,0,55,55,15,1,,,,,,,,,,,,,,,,,,,,,,,
,,,,,V3_002,18,Female,2024-10-13_14h15.21.124,jersey_experiment_5_v3,2023.2.2,Win32,60.24096386,,,,,,,,,,,,,,,,1311.6284,1312.9281,1312.9283,1315.3441,return,0.3286,,99.93055556,,,,,,FBP-RB-71.png,0.43,1.2,49,0.5,,,,,,,,,,,,,,,,,,0,56,56,48,1,,,,,,,,,,,,,,,,,,,,,,,
,,,,,V3_002,18,Female,2024-10-13_14h15.21.124,jersey_experiment_5_v3,2023.2.2,Win32,60.24096386,,,,,,,,,,,,,,,,1315.3444,1316.6449,1316.6449,1318.5776,return,0.5262,,99.86111111,,,,,,FBP-RB-71.png,0.45,1.2,50,0.5,,,,,,,,,,,,,,,,,,0,57,57,49,1,,,,,,,,,,,,,,,,,,,,,,,
,,,,,V3_002,18,Female,2024-10-13_14h15.21.124,jersey_experiment_5_v3,2023.2.2,Win32,60.24096386,,,,,,,,,,,,,,,,1318.5781,1319.8779,1319.878,1321.878,return,0.5571,,99.79166667,,,,,,FBP-PT-91.png,0.45,1.2,30,0.5,,,,,,,,,,,,,,,,,,0,58,58,29,1,,,,,,,,,,,,,,,,,,,,,,,
,,,,,V3_002,18,Female,2024-10-13_14h15.21.124,jersey_experiment_5_v3,2023.2.2,Win32,60.24096386,,,,,,,,,,,,,,,,1321.8786,1323.1782,1323.1783,1325.0608,return,0.3249,,24.93055556,,,,,,FBP-RB-71.png,0.35,1.2,46,0.5,,,,,,,,,,,,,,,,,,0,59,59,45,1,,,,,,,,,,,,,,,,,,,,,,,
,,,,,V3_002,18,Female,2024-10-13_14h15.21.124,jersey_experiment_5_v3,2023.2.2,Win32,60.24096386,,,,,,,,,,,,,,,,,,,,,,,,,,,,,,,,,,,,,,,,,,,,,,,,,,,,,,,,1325.0616,1332.6119,return,7.5409,,,,,,,,,,,,,,,,,,,
,,,,,V3_002,18,Female,2024-10-13_14h15.21.124,jersey_experiment_5_v3,2023.2.2,Win32,60.24096386,,,,,,,,,,,,,,,,,,,,,,,,,,,,,,,,,,,,,,,,,,,,,,,,,,,,,,,,,,,,,1332.6121,1341.3783,1,5.8089,return,2.9241,,,,,,,,,,,,
,,,,,V3_002,18,Female,2024-10-13_14h15.21.124,jersey_experiment_5_v3,2023.2.2,Win32,60.24096386,,,,,,,,,,,,,,,,,,,,,,,,,,,,,,,,,,,,,,,,,,,,,,,,,,,,,,,,,,,,,,,,,,,,1341.3866,1395.5215,If the size changes due to color?I recognized that some sizes were the same but some colors were different.,right,41.6652,,,,,,
,,,,,V3_002,18,Female,2024-10-13_14h15.21.124,jersey_experiment_5_v3,2023.2.2,Win32,60.24096386,,,,,,,,,,,,,,,,,,,,,,,,,,,,,,,,,,,,,,,,,,,,,,,,,,,,,,,,,,,,,,,,,,,,,,,,,,1395.5216,1400.5617,return,5.0281,