requirements.started,requirements.stopped,key_resp_3.keys,key_resp_3.rt,key_resp_3.duration,Subject ID,Age,Gender,date,expName,psychopyVersion,OS,frameRate,instructions1.started,instructions1.stopped,key_resp.keys,key_resp.rt,key_resp.duration,example.started,example.stopped,enter_2.keys,enter_2.rt,enter_2.duration,instructions2.started,instructions2.stopped,enter_3.keys,enter_3.rt,enter_3.duration,image.started,image.stopped,slider_2.started,slider_2.stopped,next.keys,next.rt,next.duration,slider.response,trial_block_1.thisRepN,trial_block_1.thisTrialN,trial_block_1.thisN,trial_block_1.thisIndex,trial_block_1.ran,Path,Width,Height,Index,Duration,trial_block_2.thisRepN,trial_block_2.thisTrialN,trial_block_2.thisN,trial_block_2.thisIndex,trial_block_2.ran,rest_break.started,rest_break.stopped,end_break.started,end_break.stopped,key_resp_5.keys,key_resp_5.rt,key_resp_5.duration,trial_block_3.thisRepN,trial_block_3.thisTrialN,trial_block_3.thisN,trial_block_3.thisIndex,trial_block_3.ran,trial_block_4.thisRepN,trial_block_4.thisTrialN,trial_block_4.thisN,trial_block_4.thisIndex,trial_block_4.ran,questions_intro.started,questions_intro.stopped,enter_12.keys,enter_12.rt,enter_12.duration,question2.started,question2.stopped,question_doingbest.response,question_doingbest.rt,enter_15.keys,enter_15.rt,enter_15.duration,pattern.started,pattern.stopped,pattern_2.text,enter_17.keys,enter_17.rt,enter_17.duration,thankyou.started,thankyou.stopped,enter_14.keys,enter_14.rt,enter_14.duration
0.0001,9.1818,return,9.1691,,V3_016,27,Female,2024-10-17_12h57.24.025,jersey_experiment_5_v3,2023.2.2,Win32,84.03361345,,,,,,,,,,,,,,,,,,,,,,,,,,,,,,,,,,,,,,,,,,,,,,,,,,,,,,,,,,,,,,,,,,,,,,,,,,,,,,
,,,,,V3_016,27,Female,2024-10-17_12h57.24.025,jersey_experiment_5_v3,2023.2.2,Win32,84.03361345,9.1819,16.2084,return,7.0118,,,,,,,,,,,,,,,,,,,,,,,,,,,,,,,,,,,,,,,,,,,,,,,,,,,,,,,,,,,,,,,,,,,,,,,,,,
,,,,,V3_016,27,Female,2024-10-17_12h57.24.025,jersey_experiment_5_v3,2023.2.2,Win32,84.03361345,,,,,,16.2085,20.0293,return,3.7735,,,,,,,,,,,,,,,,,,,,,,,,,,,,,,,,,,,,,,,,,,,,,,,,,,,,,,,,,,,,,,,,,,,,,
,,,,,V3_016,27,Female,2024-10-17_12h57.24.025,jersey_experiment_5_v3,2023.2.2,Win32,84.03361345,,,,,,,,,,,20.0294,37.5714,return,17.535,,,,,,,,,,,,,,,,,,,,,,,,,,,,,,,,,,,,,,,,,,,,,,,,,,,,,,,,,,,,,,,,
,,,,,V3_016,27,Female,2024-10-17_12h57.24.025,jersey_experiment_5_v3,2023.2.2,Win32,84.03361345,,,,,,,,,,,,,,,,37.5741,39.1239,39.124,52.1833,return,6.0244,,25.78125,0,0,0,26,1,FBP-PT-19.png,0.37,1.2,27,0.75,,,,,,,,,,,,,,,,,,,,,,,,,,,,,,,,,,,,,,,,,,,,,
,,,,,V3_016,27,Female,2024-10-17_12h57.24.025,jersey_experiment_5_v3,2023.2.2,Win32,84.03361345,,,,,,,,,,,,,,,,52.1835,53.7362,53.7363,58.5835,return,1.9221,,72.91666667,0,1,1,59,1,FBP-RB-19.png,0.45,1.2,60,0.75,,,,,,,,,,,,,,,,,,,,,,,,,,,,,,,,,,,,,,,,,,,,,
,,,,,V3_016,27,Female,2024-10-17_12h57.24.025,jersey_experiment_5_v3,2023.2.2,Win32,84.03361345,,,,,,,,,,,,,,,,58.5838,60.1367,60.1367,63.4307,return,1.9468,,25.390625,0,2,2,16,1,FBP-PT-17.png,0.37,1.2,17,0.75,,,,,,,,,,,,,,,,,,,,,,,,,,,,,,,,,,,,,,,,,,,,,
,,,,,V3_016,27,Female,2024-10-17_12h57.24.025,jersey_experiment_5_v3,2023.2.2,Win32,84.03361345,,,,,,,,,,,,,,,,63.431,64.9839,64.9839,69.2074,return,2.3577,,45.05208333,0,3,3,52,1,FBP-RB-18.png,0.4,1.2,53,0.75,,,,,,,,,,,,,,,,,,,,,,,,,,,,,,,,,,,,,,,,,,,,,
,,,,,V3_016,27,Female,2024-10-17_12h57.24.025,jersey_experiment_5_v3,2023.2.2,Win32,84.03361345,,,,,,,,,,,,,,,,69.2078,70.7603,70.7603,73.2783,return,1.3517,,75.26041667,0,4,4,8,1,FBP-YG-81.png,0.43,1.2,9,0.75,,,,,,,,,,,,,,,,,,,,,,,,,,,,,,,,,,,,,,,,,,,,,
,,,,,V3_016,27,Female,2024-10-17_12h57.24.025,jersey_experiment_5_v3,2023.2.2,Win32,84.03361345,,,,,,,,,,,,,,,,73.2786,74.8312,74.8312,77.8434,return,1.6196,,74.86979167,0,5,5,18,1,FBP-PT-17.png,0.43,1.2,19,0.75,,,,,,,,,,,,,,,,,,,,,,,,,,,,,,,,,,,,,,,,,,,,,
,,,,,V3_016,27,Female,2024-10-17_12h57.24.025,jersey_experiment_5_v3,2023.2.2,Win32,84.03361345,,,,,,,,,,,,,,,,77.8439,79.1371,79.1371,82.0432,return,0.7903,,39.84375,0,6,6,31,1,FBP-OG-17.png,0.37,1.2,32,0.5,,,,,,,,,,,,,,,,,,,,,,,,,,,,,,,,,,,,,,,,,,,,,
,,,,,V3_016,27,Female,2024-10-17_12h57.24.025,jersey_experiment_5_v3,2023.2.2,Win32,84.03361345,,,,,,,,,,,,,,,,82.0435,83.5961,83.5961,85.4198,return,0.6934,,39.453125,0,7,7,1,1,FBP-YG-71.png,0.37,1.2,2,0.75,,,,,,,,,,,,,,,,,,,,,,,,,,,,,,,,,,,,,,,,,,,,,
,,,,,V3_016,27,Female,2024-10-17_12h57.24.025,jersey_experiment_5_v3,2023.2.2,Win32,84.03361345,,,,,,,,,,,,,,,,85.4202,86.7139,86.714,88.2316,return,0.5911,,26.69270833,0,8,8,40,1,FBP-OG-19.png,0.35,1.2,41,0.5,,,,,,,,,,,,,,,,,,,,,,,,,,,,,,,,,,,,,,,,,,,,,
,,,,,V3_016,27,Female,2024-10-17_12h57.24.025,jersey_experiment_5_v3,2023.2.2,Win32,84.03361345,,,,,,,,,,,,,,,,88.2321,89.7847,89.7847,92.6199,return,1.5532,,33.72395833,0,9,9,51,1,FBP-RB-18.png,0.37,1.2,52,0.75,,,,,,,,,,,,,,,,,,,,,,,,,,,,,,,,,,,,,,,,,,,,,
,,,,,V3_016,27,Female,2024-10-17_12h57.24.025,jersey_experiment_5_v3,2023.2.2,Win32,84.03361345,,,,,,,,,,,,,,,,92.62,94.1614,94.1614,96.279,return,0.676,,75,0,10,10,58,1,FBP-RB-19.png,0.43,1.2,59,0.75,,,,,,,,,,,,,,,,,,,,,,,,,,,,,,,,,,,,,,,,,,,,,
,,,,,V3_016,27,Female,2024-10-17_12h57.24.025,jersey_experiment_5_v3,2023.2.2,Win32,84.03361345,,,,,,,,,,,,,,,,96.2793,97.8321,97.8321,99.9733,return,0.7013,,79.94791667,0,11,11,13,1,FBP-YG-91.png,0.43,1.2,14,0.75,,,,,,,,,,,,,,,,,,,,,,,,,,,,,,,,,,,,,,,,,,,,,
,,,,,V3_016,27,Female,2024-10-17_12h57.24.025,jersey_experiment_5_v3,2023.2.2,Win32,84.03361345,,,,,,,,,,,,,,,,99.9735,101.5264,101.5265,105.6204,return,3.3009,,88.15104167,0,12,12,53,1,FBP-RB-18.png,0.43,1.2,54,0.75,,,,,,,,,,,,,,,,,,,,,,,,,,,,,,,,,,,,,,,,,,,,,
,,,,,V3_016,27,Female,2024-10-17_12h57.24.025,jersey_experiment_5_v3,2023.2.2,Win32,84.03361345,,,,,,,,,,,,,,,,105.6207,106.9146,106.9146,109.7029,return,1.6291,,84.63541667,0,13,13,38,1,FBP-OG-18.png,0.43,1.2,39,0.5,,,,,,,,,,,,,,,,,,,,,,,,,,,,,,,,,,,,,,,,,,,,,
,,,,,V3_016,27,Female,2024-10-17_12h57.24.025,jersey_experiment_5_v3,2023.2.2,Win32,84.03361345,,,,,,,,,,,,,,,,109.7032,111.256,111.2561,112.8207,return,0.7018,,79.296875,0,14,14,2,1,FBP-YG-71.png,0.4,1.2,3,0.75,,,,,,,,,,,,,,,,,,,,,,,,,,,,,,,,,,,,,,,,,,,,,
,,,,,V3_016,27,Female,2024-10-17_12h57.24.025,jersey_experiment_5_v3,2023.2.2,Win32,84.03361345,,,,,,,,,,,,,,,,112.821,114.3737,114.3737,116.1267,return,0.6927,,77.86458333,0,15,15,27,1,FBP-PT-19.png,0.4,1.2,28,0.75,,,,,,,,,,,,,,,,,,,,,,,,,,,,,,,,,,,,,,,,,,,,,
,,,,,V3_016,27,Female,2024-10-17_12h57.24.025,jersey_experiment_5_v3,2023.2.2,Win32,84.03361345,,,,,,,,,,,,,,,,116.1269,117.6798,117.6798,120.5033,return,0.6977,,50.26041667,0,16,16,45,1,FBP-RB-17.png,0.35,1.2,46,0.75,,,,,,,,,,,,,,,,,,,,,,,,,,,,,,,,,,,,,,,,,,,,,
,,,,,V3_016,27,Female,2024-10-17_12h57.24.025,jersey_experiment_5_v3,2023.2.2,Win32,84.03361345,,,,,,,,,,,,,,,,120.5037,122.0565,122.0565,126.327,return,3.2277,,48.69791667,0,17,17,56,1,FBP-RB-19.png,0.37,1.2,57,0.75,,,,,,,,,,,,,,,,,,,,,,,,,,,,,,,,,,,,,,,,,,,,,
,,,,,V3_016,27,Female,2024-10-17_12h57.24.025,jersey_experiment_5_v3,2023.2.2,Win32,84.03361345,,,,,,,,,,,,,,,,126.3272,127.8686,127.8687,129.9625,return,0.7075,,68.61979167,0,18,18,47,1,FBP-RB-17.png,0.4,1.2,48,0.75,,,,,,,,,,,,,,,,,,,,,,,,,,,,,,,,,,,,,,,,,,,,,
,,,,,V3_016,27,Female,2024-10-17_12h57.24.025,jersey_experiment_5_v3,2023.2.2,Win32,84.03361345,,,,,,,,,,,,,,,,129.9627,131.2567,131.2567,133.2449,return,0.6488,,90.88541667,0,19,19,34,1,FBP-OG-17.png,0.45,1.2,35,0.5,,,,,,,,,,,,,,,,,,,,,,,,,,,,,,,,,,,,,,,,,,,,,
,,,,,V3_016,27,Female,2024-10-17_12h57.24.025,jersey_experiment_5_v3,2023.2.2,Win32,84.03361345,,,,,,,,,,,,,,,,133.2452,134.7981,134.7981,136.7157,return,0.6464,,97.265625,0,20,20,54,1,FBP-RB-18.png,0.45,1.2,55,0.75,,,,,,,,,,,,,,,,,,,,,,,,,,,,,,,,,,,,,,,,,,,,,
,,,,,V3_016,27,Female,2024-10-17_12h57.24.025,jersey_experiment_5_v3,2023.2.2,Win32,84.03361345,,,,,,,,,,,,,,,,136.7159,138.2689,138.2689,139.7862,return,0.555,,95.3125,0,21,21,29,1,FBP-PT-19.png,0.45,1.2,30,0.75,,,,,,,,,,,,,,,,,,,,,,,,,,,,,,,,,,,,,,,,,,,,,
,,,,,V3_016,27,Female,2024-10-17_12h57.24.025,jersey_experiment_5_v3,2023.2.2,Win32,84.03361345,,,,,,,,,,,,,,,,139.7865,141.0805,141.0805,142.9041,return,0.8042,,84.765625,0,22,22,44,1,FBP-OG-19.png,0.45,1.2,45,0.5,,,,,,,,,,,,,,,,,,,,,,,,,,,,,,,,,,,,,,,,,,,,,
,,,,,V3_016,27,Female,2024-10-17_12h57.24.025,jersey_experiment_5_v3,2023.2.2,Win32,84.03361345,,,,,,,,,,,,,,,,142.9045,144.4572,144.4573,147.3513,return,2.1461,,29.16666667,0,23,23,15,1,FBP-PT-17.png,0.35,1.2,16,0.75,,,,,,,,,,,,,,,,,,,,,,,,,,,,,,,,,,,,,,,,,,,,,
,,,,,V3_016,27,Female,2024-10-17_12h57.24.025,jersey_experiment_5_v3,2023.2.2,Win32,84.03361345,,,,,,,,,,,,,,,,147.3516,148.6456,148.6456,150.6456,return,0.7465,,25.390625,0,24,24,41,1,FBP-OG-19.png,0.37,1.2,42,0.5,,,,,,,,,,,,,,,,,,,,,,,,,,,,,,,,,,,,,,,,,,,,,
,,,,,V3_016,27,Female,2024-10-17_12h57.24.025,jersey_experiment_5_v3,2023.2.2,Win32,84.03361345,,,,,,,,,,,,,,,,150.646,152.1986,152.1986,153.3515,return,0.5458,,24.86979167,0,25,25,22,1,FBP-PT-18.png,0.4,1.2,23,0.75,,,,,,,,,,,,,,,,,,,,,,,,,,,,,,,,,,,,,,,,,,,,,
,,,,,V3_016,27,Female,2024-10-17_12h57.24.025,jersey_experiment_5_v3,2023.2.2,Win32,84.03361345,,,,,,,,,,,,,,,,153.3518,154.6457,154.6459,157.1635,return,1.4362,,38.671875,0,26,26,37,1,FBP-OG-18.png,0.4,1.2,38,0.5,,,,,,,,,,,,,,,,,,,,,,,,,,,,,,,,,,,,,,,,,,,,,
,,,,,V3_016,27,Female,2024-10-17_12h57.24.025,jersey_experiment_5_v3,2023.2.2,Win32,84.03361345,,,,,,,,,,,,,,,,157.1639,158.7165,158.7165,160.4577,return,0.6479,,26.953125,0,27,27,6,1,FBP-YG-81.png,0.37,1.2,7,0.75,,,,,,,,,,,,,,,,,,,,,,,,,,,,,,,,,,,,,,,,,,,,,
,,,,,V3_016,27,Female,2024-10-17_12h57.24.025,jersey_experiment_5_v3,2023.2.2,Win32,84.03361345,,,,,,,,,,,,,,,,160.4579,162.0108,162.0108,164.2226,return,0.9884,,24.34895833,0,28,28,10,1,FBP-YG-91.png,0.35,1.2,11,0.75,,,,,,,,,,,,,,,,,,,,,,,,,,,,,,,,,,,,,,,,,,,,,
,,,,,V3_016,27,Female,2024-10-17_12h57.24.025,jersey_experiment_5_v3,2023.2.2,Win32,84.03361345,,,,,,,,,,,,,,,,164.2231,165.7754,165.7754,168.5404,return,1.45,,29.6875,0,29,29,57,1,FBP-RB-19.png,0.4,1.2,58,0.75,,,,,,,,,,,,,,,,,,,,,,,,,,,,,,,,,,,,,,,,,,,,,
,,,,,V3_016,27,Female,2024-10-17_12h57.24.025,jersey_experiment_5_v3,2023.2.2,Win32,84.03361345,,,,,,,,,,,,,,,,168.5407,169.8345,169.8346,174.5993,return,3.4042,,37.63020833,0,30,30,42,1,FBP-OG-19.png,0.4,1.2,43,0.5,,,,,,,,,,,,,,,,,,,,,,,,,,,,,,,,,,,,,,,,,,,,,
,,,,,V3_016,27,Female,2024-10-17_12h57.24.025,jersey_experiment_5_v3,2023.2.2,Win32,84.03361345,,,,,,,,,,,,,,,,174.5997,176.1524,176.1525,177.7876,return,0.6325,,23.828125,0,31,31,20,1,FBP-PT-18.png,0.35,1.2,21,0.75,,,,,,,,,,,,,,,,,,,,,,,,,,,,,,,,,,,,,,,,,,,,,
,,,,,V3_016,27,Female,2024-10-17_12h57.24.025,jersey_experiment_5_v3,2023.2.2,Win32,84.03361345,,,,,,,,,,,,,,,,177.7879,179.3291,179.3291,181.2466,return,0.6253,,23.828125,0,32,32,55,1,FBP-RB-19.png,0.35,1.2,56,0.75,,,,,,,,,,,,,,,,,,,,,,,,,,,,,,,,,,,,,,,,,,,,,
,,,,,V3_016,27,Female,2024-10-17_12h57.24.025,jersey_experiment_5_v3,2023.2.2,Win32,84.03361345,,,,,,,,,,,,,,,,181.247,182.7998,182.7998,184.6939,return,0.5714,,75.65104167,0,33,33,23,1,FBP-PT-18.png,0.43,1.2,24,0.75,,,,,,,,,,,,,,,,,,,,,,,,,,,,,,,,,,,,,,,,,,,,,
,,,,,V3_016,27,Female,2024-10-17_12h57.24.025,jersey_experiment_5_v3,2023.2.2,Win32,84.03361345,,,,,,,,,,,,,,,,184.6944,185.9881,185.9882,187.3646,return,0.5943,,84.375,0,34,34,33,1,FBP-OG-17.png,0.43,1.2,34,0.5,,,,,,,,,,,,,,,,,,,,,,,,,,,,,,,,,,,,,,,,,,,,,
,,,,,V3_016,27,Female,2024-10-17_12h57.24.025,jersey_experiment_5_v3,2023.2.2,Win32,84.03361345,,,,,,,,,,,,,,,,187.3648,188.6587,188.6587,190.6353,return,0.6491,,31.11979167,0,35,35,36,1,FBP-OG-18.png,0.37,1.2,37,0.5,,,,,,,,,,,,,,,,,,,,,,,,,,,,,,,,,,,,,,,,,,,,,
,,,,,V3_016,27,Female,2024-10-17_12h57.24.025,jersey_experiment_5_v3,2023.2.2,Win32,84.03361345,,,,,,,,,,,,,,,,190.6357,191.9296,191.9297,194.3766,return,0.6508,,96.74479167,0,36,36,43,1,FBP-OG-19.png,0.43,1.2,44,0.5,,,,,,,,,,,,,,,,,,,,,,,,,,,,,,,,,,,,,,,,,,,,,
,,,,,V3_016,27,Female,2024-10-17_12h57.24.025,jersey_experiment_5_v3,2023.2.2,Win32,84.03361345,,,,,,,,,,,,,,,,194.3769,195.6709,195.6709,198.0707,return,0.5452,,29.296875,0,37,37,35,1,FBP-OG-18.png,0.35,1.2,36,0.5,,,,,,,,,,,,,,,,,,,,,,,,,,,,,,,,,,,,,,,,,,,,,
,,,,,V3_016,27,Female,2024-10-17_12h57.24.025,jersey_experiment_5_v3,2023.2.2,Win32,84.03361345,,,,,,,,,,,,,,,,198.0711,199.6239,199.624,202.471,return,0.7099,,85.15625,0,38,38,28,1,FBP-PT-19.png,0.43,1.2,29,0.75,,,,,,,,,,,,,,,,,,,,,,,,,,,,,,,,,,,,,,,,,,,,,
,,,,,V3_016,27,Female,2024-10-17_12h57.24.025,jersey_experiment_5_v3,2023.2.2,Win32,84.03361345,,,,,,,,,,,,,,,,202.4713,204.0239,204.0239,207.4946,return,2.7352,,37.23958333,0,39,39,46,1,FBP-RB-17.png,0.37,1.2,47,0.75,,,,,,,,,,,,,,,,,,,,,,,,,,,,,,,,,,,,,,,,,,,,,
,,,,,V3_016,27,Female,2024-10-17_12h57.24.025,jersey_experiment_5_v3,2023.2.2,Win32,84.03361345,,,,,,,,,,,,,,,,207.4948,208.7888,208.7888,210.1888,return,0.5423,,25,0,40,40,30,1,FBP-OG-17.png,0.35,1.2,31,0.5,,,,,,,,,,,,,,,,,,,,,,,,,,,,,,,,,,,,,,,,,,,,,
,,,,,V3_016,27,Female,2024-10-17_12h57.24.025,jersey_experiment_5_v3,2023.2.2,Win32,84.03361345,,,,,,,,,,,,,,,,210.1891,211.7418,211.7419,213.7184,return,0.5232,,60.28645833,0,41,41,12,1,FBP-YG-91.png,0.4,1.2,13,0.75,,,,,,,,,,,,,,,,,,,,,,,,,,,,,,,,,,,,,,,,,,,,,
,,,,,V3_016,27,Female,2024-10-17_12h57.24.025,jersey_experiment_5_v3,2023.2.2,Win32,84.03361345,,,,,,,,,,,,,,,,213.7186,215.2713,215.2714,216.695,return,0.6173,,78.90625,0,42,42,24,1,FBP-PT-18.png,0.45,1.2,25,0.75,,,,,,,,,,,,,,,,,,,,,,,,,,,,,,,,,,,,,,,,,,,,,
,,,,,V3_016,27,Female,2024-10-17_12h57.24.025,jersey_experiment_5_v3,2023.2.2,Win32,84.03361345,,,,,,,,,,,,,,,,216.6953,218.248,218.248,220.201,return,0.6255,,67.31770833,0,43,43,11,1,FBP-YG-91.png,0.37,1.2,12,0.75,,,,,,,,,,,,,,,,,,,,,,,,,,,,,,,,,,,,,,,,,,,,,
,,,,,V3_016,27,Female,2024-10-17_12h57.24.025,jersey_experiment_5_v3,2023.2.2,Win32,84.03361345,,,,,,,,,,,,,,,,220.2014,221.4951,221.4951,222.7304,return,0.6125,,65.88541667,0,44,44,32,1,FBP-OG-17.png,0.4,1.2,33,0.5,,,,,,,,,,,,,,,,,,,,,,,,,,,,,,,,,,,,,,,,,,,,,
,,,,,V3_016,27,Female,2024-10-17_12h57.24.025,jersey_experiment_5_v3,2023.2.2,Win32,84.03361345,,,,,,,,,,,,,,,,222.7308,224.2835,224.2837,227.2719,return,1.781,,25,0,45,45,0,1,FBP-YG-71.png,0.35,1.2,1,0.75,,,,,,,,,,,,,,,,,,,,,,,,,,,,,,,,,,,,,,,,,,,,,
,,,,,V3_016,27,Female,2024-10-17_12h57.24.025,jersey_experiment_5_v3,2023.2.2,Win32,84.03361345,,,,,,,,,,,,,,,,227.2723,228.825,228.8251,230.872,return,0.6514,,19.921875,0,46,46,25,1,FBP-PT-19.png,0.35,1.2,26,0.75,,,,,,,,,,,,,,,,,,,,,,,,,,,,,,,,,,,,,,,,,,,,,
,,,,,V3_016,27,Female,2024-10-17_12h57.24.025,jersey_experiment_5_v3,2023.2.2,Win32,84.03361345,,,,,,,,,,,,,,,,230.8723,232.4248,232.4249,233.7661,return,0.5455,,31.25,0,47,47,17,1,FBP-PT-17.png,0.4,1.2,18,0.75,,,,,,,,,,,,,,,,,,,,,,,,,,,,,,,,,,,,,,,,,,,,,
,,,,,V3_016,27,Female,2024-10-17_12h57.24.025,jersey_experiment_5_v3,2023.2.2,Win32,84.03361345,,,,,,,,,,,,,,,,233.7664,235.3192,235.3193,237.2134,return,0.5881,,42.1875,0,48,48,21,1,FBP-PT-18.png,0.37,1.2,22,0.75,,,,,,,,,,,,,,,,,,,,,,,,,,,,,,,,,,,,,,,,,,,,,
,,,,,V3_016,27,Female,2024-10-17_12h57.24.025,jersey_experiment_5_v3,2023.2.2,Win32,84.03361345,,,,,,,,,,,,,,,,237.2137,238.7665,238.7666,240.837,return,1.0526,,28.125,0,49,49,5,1,FBP-YG-81.png,0.35,1.2,6,0.75,,,,,,,,,,,,,,,,,,,,,,,,,,,,,,,,,,,,,,,,,,,,,
,,,,,V3_016,27,Female,2024-10-17_12h57.24.025,jersey_experiment_5_v3,2023.2.2,Win32,84.03361345,,,,,,,,,,,,,,,,240.8372,242.3901,242.3901,243.8136,return,0.6302,,76.5625,0,50,50,3,1,FBP-YG-71.png,0.43,1.2,4,0.75,,,,,,,,,,,,,,,,,,,,,,,,,,,,,,,,,,,,,,,,,,,,,
,,,,,V3_016,27,Female,2024-10-17_12h57.24.025,jersey_experiment_5_v3,2023.2.2,Win32,84.03361345,,,,,,,,,,,,,,,,243.8141,245.3667,245.3667,248.9196,return,2.2752,,82.68229167,0,51,51,48,1,FBP-RB-17.png,0.43,1.2,49,0.75,,,,,,,,,,,,,,,,,,,,,,,,,,,,,,,,,,,,,,,,,,,,,
,,,,,V3_016,27,Female,2024-10-17_12h57.24.025,jersey_experiment_5_v3,2023.2.2,Win32,84.03361345,,,,,,,,,,,,,,,,248.92,250.4726,250.4726,252.7316,return,1.3179,,25.78125,0,52,52,50,1,FBP-RB-18.png,0.35,1.2,51,0.75,,,,,,,,,,,,,,,,,,,,,,,,,,,,,,,,,,,,,,,,,,,,,
,,,,,V3_016,27,Female,2024-10-17_12h57.24.025,jersey_experiment_5_v3,2023.2.2,Win32,84.03361345,,,,,,,,,,,,,,,,252.7319,254.2847,254.2847,256.2847,return,0.7669,,75.52083333,0,53,53,7,1,FBP-YG-81.png,0.4,1.2,8,0.75,,,,,,,,,,,,,,,,,,,,,,,,,,,,,,,,,,,,,,,,,,,,,
,,,,,V3_016,27,Female,2024-10-17_12h57.24.025,jersey_experiment_5_v3,2023.2.2,Win32,84.03361345,,,,,,,,,,,,,,,,256.285,257.8377,257.8378,259.7083,return,0.7526,,96.875,0,54,54,9,1,FBP-YG-81.png,0.45,1.2,10,0.75,,,,,,,,,,,,,,,,,,,,,,,,,,,,,,,,,,,,,,,,,,,,,
,,,,,V3_016,27,Female,2024-10-17_12h57.24.025,jersey_experiment_5_v3,2023.2.2,Win32,84.03361345,,,,,,,,,,,,,,,,259.7087,261.2614,261.2614,263.2261,return,0.814,,97.52604167,0,55,55,49,1,FBP-RB-17.png,0.45,1.2,50,0.75,,,,,,,,,,,,,,,,,,,,,,,,,,,,,,,,,,,,,,,,,,,,,
,,,,,V3_016,27,Female,2024-10-17_12h57.24.025,jersey_experiment_5_v3,2023.2.2,Win32,84.03361345,,,,,,,,,,,,,,,,263.2266,264.5203,264.5204,266.2378,return,0.5884,,98.4375,0,56,56,39,1,FBP-OG-18.png,0.45,1.2,40,0.5,,,,,,,,,,,,,,,,,,,,,,,,,,,,,,,,,,,,,,,,,,,,,
,,,,,V3_016,27,Female,2024-10-17_12h57.24.025,jersey_experiment_5_v3,2023.2.2,Win32,84.03361345,,,,,,,,,,,,,,,,266.238,267.7909,267.791,269.7087,return,1.0594,,94.79166667,0,57,57,4,1,FBP-YG-71.png,0.45,1.2,5,0.75,,,,,,,,,,,,,,,,,,,,,,,,,,,,,,,,,,,,,,,,,,,,,
,,,,,V3_016,27,Female,2024-10-17_12h57.24.025,jersey_experiment_5_v3,2023.2.2,Win32,84.03361345,,,,,,,,,,,,,,,,269.7089,271.262,271.2621,273.1794,return,0.884,,97.91666667,0,58,58,19,1,FBP-PT-17.png,0.45,1.2,20,0.75,,,,,,,,,,,,,,,,,,,,,,,,,,,,,,,,,,,,,,,,,,,,,
,,,,,V3_016,27,Female,2024-10-17_12h57.24.025,jersey_experiment_5_v3,2023.2.2,Win32,84.03361345,,,,,,,,,,,,,,,,273.1797,274.7323,274.7324,276.2382,return,0.6816,,94.40104167,0,59,59,14,1,FBP-YG-91.png,0.45,1.2,15,0.75,,,,,,,,,,,,,,,,,,,,,,,,,,,,,,,,,,,,,,,,,,,,,
,,,,,V3_016,27,Female,2024-10-17_12h57.24.025,jersey_experiment_5_v3,2023.2.2,Win32,84.03361345,,,,,,,,,,,,,,,,276.241,277.5325,277.5326,282.7091,return,4.1246,,89.58333333,,,,,,FBP-OG-91.png,0.45,1.2,45,0.5,0,0,0,44,1,,,,,,,,,,,,,,,,,,,,,,,,,,,,,,,,,,,,,,,,
,,,,,V3_016,27,Female,2024-10-17_12h57.24.025,jersey_experiment_5_v3,2023.2.2,Win32,84.03361345,,,,,,,,,,,,,,,,282.7094,284.2624,284.2624,285.8975,return,0.6246,,74.609375,,,,,,FBP-PT-81.png,0.43,1.2,24,0.75,0,1,1,23,1,,,,,,,,,,,,,,,,,,,,,,,,,,,,,,,,,,,,,,,,
,,,,,V3_016,27,Female,2024-10-17_12h57.24.025,jersey_experiment_5_v3,2023.2.2,Win32,84.03361345,,,,,,,,,,,,,,,,285.8979,287.4504,287.4505,288.9093,return,0.6592,,74.47916667,,,,,,FBP-RB-71.png,0.4,1.2,48,0.75,0,2,2,47,1,,,,,,,,,,,,,,,,,,,,,,,,,,,,,,,,,,,,,,,,
,,,,,V3_016,27,Female,2024-10-17_12h57.24.025,jersey_experiment_5_v3,2023.2.2,Win32,84.03361345,,,,,,,,,,,,,,,,288.9097,290.4625,290.4626,291.9331,return,0.6728,,64.58333333,,,,,,FBP-PT-71.png,0.4,1.2,18,0.75,0,3,3,17,1,,,,,,,,,,,,,,,,,,,,,,,,,,,,,,,,,,,,,,,,
,,,,,V3_016,27,Female,2024-10-17_12h57.24.025,jersey_experiment_5_v3,2023.2.2,Win32,84.03361345,,,,,,,,,,,,,,,,291.9334,293.2271,293.2272,295.1449,return,0.8604,,73.4375,,,,,,FBP-OG-81.png,0.43,1.2,39,0.5,0,4,4,38,1,,,,,,,,,,,,,,,,,,,,,,,,,,,,,,,,,,,,,,,,
,,,,,V3_016,27,Female,2024-10-17_12h57.24.025,jersey_experiment_5_v3,2023.2.2,Win32,84.03361345,,,,,,,,,,,,,,,,295.1453,296.6979,296.698,299.145,return,0.5544,,80.72916667,,,,,,FBP-YG-18.png,0.43,1.2,9,0.75,0,5,5,8,1,,,,,,,,,,,,,,,,,,,,,,,,,,,,,,,,,,,,,,,,
,,,,,V3_016,27,Female,2024-10-17_12h57.24.025,jersey_experiment_5_v3,2023.2.2,Win32,84.03361345,,,,,,,,,,,,,,,,299.1453,300.4393,300.4393,301.8982,return,0.6138,,37.5,,,,,,FBP-OG-81.png,0.35,1.2,36,0.5,0,6,6,35,1,,,,,,,,,,,,,,,,,,,,,,,,,,,,,,,,,,,,,,,,
,,,,,V3_016,27,Female,2024-10-17_12h57.24.025,jersey_experiment_5_v3,2023.2.2,Win32,84.03361345,,,,,,,,,,,,,,,,301.8987,303.451,303.451,307.6041,return,0.6665,,67.70833333,,,,,,FBP-YG-19.png,0.43,1.2,14,0.75,0,7,7,13,1,,,,,,,,,,,,,,,,,,,,,,,,,,,,,,,,,,,,,,,,
,,,,,V3_016,27,Female,2024-10-17_12h57.24.025,jersey_experiment_5_v3,2023.2.2,Win32,84.03361345,,,,,,,,,,,,,,,,307.6045,309.157,309.1571,311.6043,return,1.1962,,73.4375,,,,,,FBP-YG-18.png,0.4,1.2,8,0.75,0,8,8,7,1,,,,,,,,,,,,,,,,,,,,,,,,,,,,,,,,,,,,,,,,
,,,,,V3_016,27,Female,2024-10-17_12h57.24.025,jersey_experiment_5_v3,2023.2.2,Win32,84.03361345,,,,,,,,,,,,,,,,311.6046,313.1575,313.1576,316.6162,return,1.2259,,66.92708333,,,,,,FBP-RB-91.png,0.4,1.2,58,0.75,0,9,9,57,1,,,,,,,,,,,,,,,,,,,,,,,,,,,,,,,,,,,,,,,,
,,,,,V3_016,27,Female,2024-10-17_12h57.24.025,jersey_experiment_5_v3,2023.2.2,Win32,84.03361345,,,,,,,,,,,,,,,,316.6165,318.1694,318.1694,320.7812,return,0.8474,,24.08854167,,,,,,FBP-RB-81.png,0.37,1.2,52,0.75,0,10,10,51,1,,,,,,,,,,,,,,,,,,,,,,,,,,,,,,,,,,,,,,,,
,,,,,V3_016,27,Female,2024-10-17_12h57.24.025,jersey_experiment_5_v3,2023.2.2,Win32,84.03361345,,,,,,,,,,,,,,,,320.7815,322.334,322.334,323.993,return,0.5446,,73.30729167,,,,,,FBP-RB-81.png,0.4,1.2,53,0.75,0,11,11,52,1,,,,,,,,,,,,,,,,,,,,,,,,,,,,,,,,,,,,,,,,
,,,,,V3_016,27,Female,2024-10-17_12h57.24.025,jersey_experiment_5_v3,2023.2.2,Win32,84.03361345,,,,,,,,,,,,,,,,323.9934,325.5462,325.5462,327.1106,return,0.6054,,23.95833333,,,,,,FBP-RB-71.png,0.35,1.2,46,0.75,0,12,12,45,1,,,,,,,,,,,,,,,,,,,,,,,,,,,,,,,,,,,,,,,,
,,,,,V3_016,27,Female,2024-10-17_12h57.24.025,jersey_experiment_5_v3,2023.2.2,Win32,84.03361345,,,,,,,,,,,,,,,,327.111,328.6637,328.6638,332.4285,return,0.5887,,48.69791667,,,,,,FBP-YG-17.png,0.4,1.2,3,0.75,0,13,13,2,1,,,,,,,,,,,,,,,,,,,,,,,,,,,,,,,,,,,,,,,,
,,,,,V3_016,27,Female,2024-10-17_12h57.24.025,jersey_experiment_5_v3,2023.2.2,Win32,84.03361345,,,,,,,,,,,,,,,,332.4288,333.7228,333.7229,335.511,return,1.0525,,41.66666667,,,,,,FBP-OG-91.png,0.37,1.2,42,0.5,0,14,14,41,1,,,,,,,,,,,,,,,,,,,,,,,,,,,,,,,,,,,,,,,,
,,,,,V3_016,27,Female,2024-10-17_12h57.24.025,jersey_experiment_5_v3,2023.2.2,Win32,84.03361345,,,,,,,,,,,,,,,,335.5113,337.064,337.0641,338.2288,return,0.4782,,93.61979167,,,,,,FBP-PT-71.png,0.45,1.2,20,0.75,0,15,15,19,1,,,,,,,,,,,,,,,,,,,,,,,,,,,,,,,,,,,,,,,,
,,,,,V3_016,27,Female,2024-10-17_12h57.24.025,jersey_experiment_5_v3,2023.2.2,Win32,84.03361345,,,,,,,,,,,,,,,,338.2291,339.782,339.782,341.123,return,0.574,,95.05208333,,,,,,FBP-RB-91.png,0.45,1.2,60,0.75,0,16,16,59,1,,,,,,,,,,,,,,,,,,,,,,,,,,,,,,,,,,,,,,,,
,,,,,V3_016,27,Female,2024-10-17_12h57.24.025,jersey_experiment_5_v3,2023.2.2,Win32,84.03361345,,,,,,,,,,,,,,,,341.1235,342.676,342.6761,345.6996,return,0.5615,,49.34895833,,,,,,FBP-YG-17.png,0.35,1.2,1,0.75,0,17,17,0,1,,,,,,,,,,,,,,,,,,,,,,,,,,,,,,,,,,,,,,,,
,,,,,V3_016,27,Female,2024-10-17_12h57.24.025,jersey_experiment_5_v3,2023.2.2,Win32,84.03361345,,,,,,,,,,,,,,,,345.6999,347.2526,347.2526,349.5115,return,0.9807,,56.11979167,,,,,,FBP-YG-19.png,0.4,1.2,13,0.75,0,18,18,12,1,,,,,,,,,,,,,,,,,,,,,,,,,,,,,,,,,,,,,,,,
,,,,,V3_016,27,Female,2024-10-17_12h57.24.025,jersey_experiment_5_v3,2023.2.2,Win32,84.03361345,,,,,,,,,,,,,,,,349.5119,350.8057,350.8057,352.6647,return,0.7323,,34.375,,,,,,FBP-OG-91.png,0.35,1.2,41,0.5,0,19,19,40,1,,,,,,,,,,,,,,,,,,,,,,,,,,,,,,,,,,,,,,,,
,,,,,V3_016,27,Female,2024-10-17_12h57.24.025,jersey_experiment_5_v3,2023.2.2,Win32,84.03361345,,,,,,,,,,,,,,,,352.665,354.2177,354.2179,355.6528,return,0.7015,,34.11458333,,,,,,FBP-RB-81.png,0.35,1.2,51,0.75,0,20,20,50,1,,,,,,,,,,,,,,,,,,,,,,,,,,,,,,,,,,,,,,,,
,,,,,V3_016,27,Female,2024-10-17_12h57.24.025,jersey_experiment_5_v3,2023.2.2,Win32,84.03361345,,,,,,,,,,,,,,,,355.6532,357.206,357.2061,359.206,return,0.6175,,91.40625,,,,,,FBP-RB-81.png,0.45,1.2,55,0.75,0,21,21,54,1,,,,,,,,,,,,,,,,,,,,,,,,,,,,,,,,,,,,,,,,
,,,,,V3_016,27,Female,2024-10-17_12h57.24.025,jersey_experiment_5_v3,2023.2.2,Win32,84.03361345,,,,,,,,,,,,,,,,359.2064,360.7592,360.7593,362.006,return,0.5699,,95.3125,,,,,,FBP-PT-91.png,0.43,1.2,29,0.75,0,22,22,28,1,,,,,,,,,,,,,,,,,,,,,,,,,,,,,,,,,,,,,,,,
,,,,,V3_016,27,Female,2024-10-17_12h57.24.025,jersey_experiment_5_v3,2023.2.2,Win32,84.03361345,,,,,,,,,,,,,,,,362.0062,363.5593,363.5593,364.971,return,0.5309,,96.61458333,,,,,,FBP-RB-81.png,0.43,1.2,54,0.75,0,23,23,53,1,,,,,,,,,,,,,,,,,,,,,,,,,,,,,,,,,,,,,,,,
,,,,,V3_016,27,Female,2024-10-17_12h57.24.025,jersey_experiment_5_v3,2023.2.2,Win32,84.03361345,,,,,,,,,,,,,,,,364.9713,366.5241,366.5241,368.5357,return,0.5218,,79.94791667,,,,,,FBP-PT-81.png,0.4,1.2,23,0.75,0,24,24,22,1,,,,,,,,,,,,,,,,,,,,,,,,,,,,,,,,,,,,,,,,
,,,,,V3_016,27,Female,2024-10-17_12h57.24.025,jersey_experiment_5_v3,2023.2.2,Win32,84.03361345,,,,,,,,,,,,,,,,368.536,369.8299,369.83,371.383,return,0.5466,,74.34895833,,,,,,FBP-OG-81.png,0.4,1.2,38,0.5,0,25,25,37,1,,,,,,,,,,,,,,,,,,,,,,,,,,,,,,,,,,,,,,,,
,,,,,V3_016,27,Female,2024-10-17_12h57.24.025,jersey_experiment_5_v3,2023.2.2,Win32,84.03361345,,,,,,,,,,,,,,,,371.3834,372.9359,372.936,374.7595,return,0.6147,,98.95833333,,,,,,FBP-YG-18.png,0.45,1.2,10,0.75,0,26,26,9,1,,,,,,,,,,,,,,,,,,,,,,,,,,,,,,,,,,,,,,,,
,,,,,V3_016,27,Female,2024-10-17_12h57.24.025,jersey_experiment_5_v3,2023.2.2,Win32,84.03361345,,,,,,,,,,,,,,,,374.7599,376.3127,376.3128,378.0302,return,0.5658,,96.875,,,,,,FBP-YG-17.png,0.45,1.2,5,0.75,0,27,27,4,1,,,,,,,,,,,,,,,,,,,,,,,,,,,,,,,,,,,,,,,,
,,,,,V3_016,27,Female,2024-10-17_12h57.24.025,jersey_experiment_5_v3,2023.2.2,Win32,84.03361345,,,,,,,,,,,,,,,,378.0305,379.3245,379.3246,382.0892,return,1.885,,30.46875,,,,,,FBP-OG-71.png,0.35,1.2,31,0.5,0,28,28,30,1,,,,,,,,,,,,,,,,,,,,,,,,,,,,,,,,,,,,,,,,
,,,,,V3_016,27,Female,2024-10-17_12h57.24.025,jersey_experiment_5_v3,2023.2.2,Win32,84.03361345,,,,,,,,,,,,,,,,382.0896,383.6423,383.6425,387.0659,return,1.6868,,27.734375,,,,,,FBP-PT-81.png,0.37,1.2,22,0.75,0,29,29,21,1,,,,,,,,,,,,,,,,,,,,,,,,,,,,,,,,,,,,,,,,
,,,,,V3_016,27,Female,2024-10-17_12h57.24.025,jersey_experiment_5_v3,2023.2.2,Win32,84.03361345,,,,,,,,,,,,,,,,387.0663,388.6189,388.6189,390.2777,return,0.7358,,92.1875,,,,,,FBP-RB-71.png,0.45,1.2,50,0.75,0,30,30,49,1,,,,,,,,,,,,,,,,,,,,,,,,,,,,,,,,,,,,,,,,
,,,,,V3_016,27,Female,2024-10-17_12h57.24.025,jersey_experiment_5_v3,2023.2.2,Win32,84.03361345,,,,,,,,,,,,,,,,390.2783,391.8306,391.8307,393.6777,return,0.7197,,17.96875,,,,,,FBP-PT-81.png,0.35,1.2,21,0.75,0,31,31,20,1,,,,,,,,,,,,,,,,,,,,,,,,,,,,,,,,,,,,,,,,
,,,,,V3_016,27,Female,2024-10-17_12h57.24.025,jersey_experiment_5_v3,2023.2.2,Win32,84.03361345,,,,,,,,,,,,,,,,393.678,394.9721,394.9722,398.0016,return,0.6117,,81.640625,,,,,,FBP-OG-91.png,0.43,1.2,44,0.5,0,32,32,43,1,,,,,,,,,,,,,,,,,,,,,,,,,,,,,,,,,,,,,,,,
,,,,,V3_016,27,Female,2024-10-17_12h57.24.025,jersey_experiment_5_v3,2023.2.2,Win32,84.03361345,,,,,,,,,,,,,,,,398.0018,399.5486,399.5487,401.1785,return,0.5652,,95.96354167,,,,,,FBP-RB-91.png,0.43,1.2,59,0.75,0,33,33,58,1,,,,,,,,,,,,,,,,,,,,,,,,,,,,,,,,,,,,,,,,
,,,,,V3_016,27,Female,2024-10-17_12h57.24.025,jersey_experiment_5_v3,2023.2.2,Win32,84.03361345,,,,,,,,,,,,,,,,401.1787,402.7253,402.7253,404.7135,return,0.6267,,73.95833333,,,,,,FBP-PT-91.png,0.4,1.2,28,0.75,0,34,34,27,1,,,,,,,,,,,,,,,,,,,,,,,,,,,,,,,,,,,,,,,,
,,,,,V3_016,27,Female,2024-10-17_12h57.24.025,jersey_experiment_5_v3,2023.2.2,Win32,84.03361345,,,,,,,,,,,,,,,,404.7136,406.0077,406.0077,407.1958,return,0.5651,,74.08854167,,,,,,FBP-OG-71.png,0.4,1.2,33,0.5,0,35,35,32,1,,,,,,,,,,,,,,,,,,,,,,,,,,,,,,,,,,,,,,,,
,,,,,V3_016,27,Female,2024-10-17_12h57.24.025,jersey_experiment_5_v3,2023.2.2,Win32,84.03361345,,,,,,,,,,,,,,,,407.1961,408.7489,408.7489,410.614,return,0.4705,,88.28125,,,,,,FBP-RB-71.png,0.43,1.2,49,0.75,0,36,36,48,1,,,,,,,,,,,,,,,,,,,,,,,,,,,,,,,,,,,,,,,,
,,,,,V3_016,27,Female,2024-10-17_12h57.24.025,jersey_experiment_5_v3,2023.2.2,Win32,84.03361345,,,,,,,,,,,,,,,,410.6141,412.1608,412.1608,414.6785,return,0.9782,,30.33854167,,,,,,FBP-YG-18.png,0.37,1.2,7,0.75,0,37,37,6,1,,,,,,,,,,,,,,,,,,,,,,,,,,,,,,,,,,,,,,,,
,,,,,V3_016,27,Female,2024-10-17_12h57.24.025,jersey_experiment_5_v3,2023.2.2,Win32,84.03361345,,,,,,,,,,,,,,,,414.6787,416.2316,416.2316,418.1493,return,0.4887,,89.19270833,,,,,,FBP-YG-19.png,0.45,1.2,15,0.75,0,38,38,14,1,,,,,,,,,,,,,,,,,,,,,,,,,,,,,,,,,,,,,,,,
,,,,,V3_016,27,Female,2024-10-17_12h57.24.025,jersey_experiment_5_v3,2023.2.2,Win32,84.03361345,,,,,,,,,,,,,,,,418.1495,419.7023,419.7024,421.5023,return,0.5265,,24.86979167,,,,,,FBP-RB-91.png,0.35,1.2,56,0.75,0,39,39,55,1,,,,,,,,,,,,,,,,,,,,,,,,,,,,,,,,,,,,,,,,
,,,,,V3_016,27,Female,2024-10-17_12h57.24.025,jersey_experiment_5_v3,2023.2.2,Win32,84.03361345,,,,,,,,,,,,,,,,421.5024,423.0436,423.0436,425.3528,return,1.115,,30.859375,,,,,,FBP-YG-19.png,0.35,1.2,11,0.75,0,40,40,10,1,,,,,,,,,,,,,,,,,,,,,,,,,,,,,,,,,,,,,,,,
,,,,,V3_016,27,Female,2024-10-17_12h57.24.025,jersey_experiment_5_v3,2023.2.2,Win32,84.03361345,,,,,,,,,,,,,,,,425.353,426.8969,426.8969,428.9205,return,0.5415,,31.90104167,,,,,,FBP-YG-17.png,0.37,1.2,2,0.75,0,41,41,1,1,,,,,,,,,,,,,,,,,,,,,,,,,,,,,,,,,,,,,,,,
,,,,,V3_016,27,Female,2024-10-17_12h57.24.025,jersey_experiment_5_v3,2023.2.2,Win32,84.03361345,,,,,,,,,,,,,,,,428.9207,430.4675,430.4675,436.597,return,5.1008,,76.171875,,,,,,FBP-PT-71.png,0.43,1.2,19,0.75,0,42,42,18,1,,,,,,,,,,,,,,,,,,,,,,,,,,,,,,,,,,,,,,,,
,,,,,V3_016,27,Female,2024-10-17_12h57.24.025,jersey_experiment_5_v3,2023.2.2,Win32,84.03361345,,,,,,,,,,,,,,,,436.5971,438.1444,438.1444,440.6796,return,1.7071,,74.21875,,,,,,FBP-RB-71.png,0.37,1.2,47,0.75,0,43,43,46,1,,,,,,,,,,,,,,,,,,,,,,,,,,,,,,,,,,,,,,,,
,,,,,V3_016,27,Female,2024-10-17_12h57.24.025,jersey_experiment_5_v3,2023.2.2,Win32,84.03361345,,,,,,,,,,,,,,,,440.6797,441.9736,441.9737,444.0914,return,1.4205,,87.76041667,,,,,,FBP-OG-71.png,0.45,1.2,35,0.5,0,44,44,34,1,,,,,,,,,,,,,,,,,,,,,,,,,,,,,,,,,,,,,,,,
,,,,,V3_016,27,Female,2024-10-17_12h57.24.025,jersey_experiment_5_v3,2023.2.2,Win32,84.03361345,,,,,,,,,,,,,,,,444.0916,445.6356,445.6357,447.1268,return,0.5545,,50.91145833,,,,,,FBP-PT-71.png,0.35,1.2,16,0.75,0,45,45,15,1,,,,,,,,,,,,,,,,,,,,,,,,,,,,,,,,,,,,,,,,
,,,,,V3_016,27,Female,2024-10-17_12h57.24.025,jersey_experiment_5_v3,2023.2.2,Win32,84.03361345,,,,,,,,,,,,,,,,447.1269,448.6681,448.6681,450.9975,return,1.4851,,48.046875,,,,,,FBP-PT-91.png,0.35,1.2,26,0.75,0,46,46,25,1,,,,,,,,,,,,,,,,,,,,,,,,,,,,,,,,,,,,,,,,
,,,,,V3_016,27,Female,2024-10-17_12h57.24.025,jersey_experiment_5_v3,2023.2.2,Win32,84.03361345,,,,,,,,,,,,,,,,450.9977,452.5507,452.5507,454.2949,return,0.518,,98.828125,,,,,,FBP-PT-91.png,0.45,1.2,30,0.75,0,47,47,29,1,,,,,,,,,,,,,,,,,,,,,,,,,,,,,,,,,,,,,,,,
,,,,,V3_016,27,Female,2024-10-17_12h57.24.025,jersey_experiment_5_v3,2023.2.2,Win32,84.03361345,,,,,,,,,,,,,,,,454.2951,455.8448,455.8448,459.1389,return,0.5617,,55.59895833,,,,,,FBP-RB-91.png,0.37,1.2,57,0.75,0,48,48,56,1,,,,,,,,,,,,,,,,,,,,,,,,,,,,,,,,,,,,,,,,
,,,,,V3_016,27,Female,2024-10-17_12h57.24.025,jersey_experiment_5_v3,2023.2.2,Win32,84.03361345,,,,,,,,,,,,,,,,459.1391,460.4332,460.4332,463.4333,return,0.6224,,97.65625,,,,,,FBP-OG-81.png,0.45,1.2,40,0.5,0,49,49,39,1,,,,,,,,,,,,,,,,,,,,,,,,,,,,,,,,,,,,,,,,
,,,,,V3_016,27,Female,2024-10-17_12h57.24.025,jersey_experiment_5_v3,2023.2.2,Win32,84.03361345,,,,,,,,,,,,,,,,463.4335,464.9862,464.9862,466.7746,return,0.6169,,35.02604167,,,,,,FBP-YG-19.png,0.37,1.2,12,0.75,0,50,50,11,1,,,,,,,,,,,,,,,,,,,,,,,,,,,,,,,,,,,,,,,,
,,,,,V3_016,27,Female,2024-10-17_12h57.24.025,jersey_experiment_5_v3,2023.2.2,Win32,84.03361345,,,,,,,,,,,,,,,,466.7747,468.0687,468.0688,470.4101,return,0.7293,,59.50520833,,,,,,FBP-OG-91.png,0.4,1.2,43,0.5,0,51,51,42,1,,,,,,,,,,,,,,,,,,,,,,,,,,,,,,,,,,,,,,,,
,,,,,V3_016,27,Female,2024-10-17_12h57.24.025,jersey_experiment_5_v3,2023.2.2,Win32,84.03361345,,,,,,,,,,,,,,,,470.4103,471.9659,471.9661,474.2925,return,1.4866,,29.55729167,,,,,,FBP-PT-71.png,0.37,1.2,17,0.75,0,52,52,16,1,,,,,,,,,,,,,,,,,,,,,,,,,,,,,,,,,,,,,,,,
,,,,,V3_016,27,Female,2024-10-17_12h57.24.025,jersey_experiment_5_v3,2023.2.2,Win32,84.03361345,,,,,,,,,,,,,,,,474.2927,475.8456,475.8456,480.1397,return,3.2946,,52.86458333,,,,,,FBP-PT-91.png,0.37,1.2,27,0.75,0,53,53,26,1,,,,,,,,,,,,,,,,,,,,,,,,,,,,,,,,,,,,,,,,
,,,,,V3_016,27,Female,2024-10-17_12h57.24.025,jersey_experiment_5_v3,2023.2.2,Win32,84.03361345,,,,,,,,,,,,,,,,480.14,481.6927,481.6928,483.5869,return,0.7112,,87.23958333,,,,,,FBP-YG-17.png,0.43,1.2,4,0.75,0,54,54,3,1,,,,,,,,,,,,,,,,,,,,,,,,,,,,,,,,,,,,,,,,
,,,,,V3_016,27,Female,2024-10-17_12h57.24.025,jersey_experiment_5_v3,2023.2.2,Win32,84.03361345,,,,,,,,,,,,,,,,483.587,484.8811,484.8811,487.252,return,0.7529,,73.95833333,,,,,,FBP-OG-81.png,0.37,1.2,37,0.5,0,55,55,36,1,,,,,,,,,,,,,,,,,,,,,,,,,,,,,,,,,,,,,,,,
,,,,,V3_016,27,Female,2024-10-17_12h57.24.025,jersey_experiment_5_v3,2023.2.2,Win32,84.03361345,,,,,,,,,,,,,,,,487.2522,488.5462,488.5463,490.3755,return,0.663,,93.359375,,,,,,FBP-OG-71.png,0.43,1.2,34,0.5,0,56,56,33,1,,,,,,,,,,,,,,,,,,,,,,,,,,,,,,,,,,,,,,,,
,,,,,V3_016,27,Female,2024-10-17_12h57.24.025,jersey_experiment_5_v3,2023.2.2,Win32,84.03361345,,,,,,,,,,,,,,,,490.3758,491.9195,491.9195,493.3228,return,0.6736,,98.95833333,,,,,,FBP-PT-81.png,0.45,1.2,25,0.75,0,57,57,24,1,,,,,,,,,,,,,,,,,,,,,,,,,,,,,,,,,,,,,,,,
,,,,,V3_016,27,Female,2024-10-17_12h57.24.025,jersey_experiment_5_v3,2023.2.2,Win32,84.03361345,,,,,,,,,,,,,,,,493.3229,494.6227,494.6227,496.5874,return,0.5883,,50.65104167,,,,,,FBP-OG-71.png,0.37,1.2,32,0.5,0,58,58,31,1,,,,,,,,,,,,,,,,,,,,,,,,,,,,,,,,,,,,,,,,
,,,,,V3_016,27,Female,2024-10-17_12h57.24.025,jersey_experiment_5_v3,2023.2.2,Win32,84.03361345,,,,,,,,,,,,,,,,496.5876,498.1403,498.1404,500.3405,return,0.5691,,50.26041667,,,,,,FBP-YG-18.png,0.35,1.2,6,0.75,0,59,59,5,1,,,,,,,,,,,,,,,,,,,,,,,,,,,,,,,,,,,,,,,,
,,,,,V3_016,27,Female,2024-10-17_12h57.24.025,jersey_experiment_5_v3,2023.2.2,Win32,84.03361345,,,,,,,,,,,,,,,,,,,,,,,,,,,,,,,,,,,,,,,500.3408,620.3332,,,,,,,,,,,,,,,,,,,,,,,,,,,,,,,,,,,,,,
,,,,,V3_016,27,Female,2024-10-17_12h57.24.025,jersey_experiment_5_v3,2023.2.2,Win32,84.03361345,,,,,,,,,,,,,,,,,,,,,,,,,,,,,,,,,,,,,,,,,620.3333,627.3805,return,7.031,,,,,,,,,,,,,,,,,,,,,,,,,,,,,,,,,,
,,,,,V3_016,27,Female,2024-10-17_12h57.24.025,jersey_experiment_5_v3,2023.2.2,Win32,84.03361345,,,,,,,,,,,,,,,,627.3823,628.9275,628.9276,631.6041,return,0.7927,,74.08854167,,,,,,FBP-OG-19.png,0.4,1.2,43,0.75,,,,,,,,,,,,,0,0,0,42,1,,,,,,,,,,,,,,,,,,,,,,,,,,,,
,,,,,V3_016,27,Female,2024-10-17_12h57.24.025,jersey_experiment_5_v3,2023.2.2,Win32,84.03361345,,,,,,,,,,,,,,,,631.6043,632.9026,632.9027,636.7486,return,2.6203,,36.19791667,,,,,,FBP-YG-71.png,0.37,1.2,2,0.5,,,,,,,,,,,,,0,1,1,1,1,,,,,,,,,,,,,,,,,,,,,,,,,,,,
,,,,,V3_016,27,Female,2024-10-17_12h57.24.025,jersey_experiment_5_v3,2023.2.2,Win32,84.03361345,,,,,,,,,,,,,,,,636.7487,638.0577,638.0577,639.9636,return,0.7916,,34.50520833,,,,,,FBP-RB-17.png,0.37,1.2,47,0.5,,,,,,,,,,,,,0,2,2,46,1,,,,,,,,,,,,,,,,,,,,,,,,,,,,
,,,,,V3_016,27,Female,2024-10-17_12h57.24.025,jersey_experiment_5_v3,2023.2.2,Win32,84.03361345,,,,,,,,,,,,,,,,639.9637,641.2633,641.2633,643.2398,return,0.7297,,32.421875,,,,,,FBP-PT-19.png,0.37,1.2,27,0.5,,,,,,,,,,,,,0,3,3,26,1,,,,,,,,,,,,,,,,,,,,,,,,,,,,
,,,,,V3_016,27,Female,2024-10-17_12h57.24.025,jersey_experiment_5_v3,2023.2.2,Win32,84.03361345,,,,,,,,,,,,,,,,643.2401,644.5368,644.5369,647.4283,return,0.6309,,75.13020833,,,,,,FBP-PT-17.png,0.4,1.2,18,0.5,,,,,,,,,,,,,0,4,4,17,1,,,,,,,,,,,,,,,,,,,,,,,,,,,,
,,,,,V3_016,27,Female,2024-10-17_12h57.24.025,jersey_experiment_5_v3,2023.2.2,Win32,84.03361345,,,,,,,,,,,,,,,,647.4284,648.7222,648.7223,650.4111,return,0.2823,,84.24479167,,,,,,FBP-YG-71.png,0.43,1.2,4,0.5,,,,,,,,,,,,,0,5,5,3,1,,,,,,,,,,,,,,,,,,,,,,,,,,,,
,,,,,V3_016,27,Female,2024-10-17_12h57.24.025,jersey_experiment_5_v3,2023.2.2,Win32,84.03361345,,,,,,,,,,,,,,,,650.4112,651.7136,651.7137,652.7108,return,0.2402,,92.96875,,,,,,FBP-YG-71.png,0.45,1.2,5,0.5,,,,,,,,,,,,,0,6,6,4,1,,,,,,,,,,,,,,,,,,,,,,,,,,,,
,,,,,V3_016,27,Female,2024-10-17_12h57.24.025,jersey_experiment_5_v3,2023.2.2,Win32,84.03361345,,,,,,,,,,,,,,,,652.7109,654.011,654.0112,655.1107,return,0.201,,96.74479167,,,,,,FBP-YG-81.png,0.43,1.2,9,0.5,,,,,,,,,,,,,0,7,7,8,1,,,,,,,,,,,,,,,,,,,,,,,,,,,,
,,,,,V3_016,27,Female,2024-10-17_12h57.24.025,jersey_experiment_5_v3,2023.2.2,Win32,84.03361345,,,,,,,,,,,,,,,,655.1109,656.405,656.405,658.2522,return,0.2501,,56.25,,,,,,FBP-YG-81.png,0.37,1.2,7,0.5,,,,,,,,,,,,,0,8,8,6,1,,,,,,,,,,,,,,,,,,,,,,,,,,,,
,,,,,V3_016,27,Female,2024-10-17_12h57.24.025,jersey_experiment_5_v3,2023.2.2,Win32,84.03361345,,,,,,,,,,,,,,,,658.2523,659.5463,659.5464,660.8404,return,0.2033,,73.95833333,,,,,,FBP-YG-91.png,0.4,1.2,13,0.5,,,,,,,,,,,,,0,9,9,12,1,,,,,,,,,,,,,,,,,,,,,,,,,,,,
,,,,,V3_016,27,Female,2024-10-17_12h57.24.025,jersey_experiment_5_v3,2023.2.2,Win32,84.03361345,,,,,,,,,,,,,,,,660.8407,662.1347,662.1347,664.5229,return,0.824,,79.16666667,,,,,,FBP-RB-19.png,0.4,1.2,58,0.5,,,,,,,,,,,,,0,10,10,57,1,,,,,,,,,,,,,,,,,,,,,,,,,,,,
,,,,,V3_016,27,Female,2024-10-17_12h57.24.025,jersey_experiment_5_v3,2023.2.2,Win32,84.03361345,,,,,,,,,,,,,,,,664.5231,666.0672,666.0672,668.9232,return,1.4826,,42.05729167,,,,,,FBP-OG-17.png,0.37,1.2,32,0.75,,,,,,,,,,,,,0,11,11,31,1,,,,,,,,,,,,,,,,,,,,,,,,,,,,
,,,,,V3_016,27,Female,2024-10-17_12h57.24.025,jersey_experiment_5_v3,2023.2.2,Win32,84.03361345,,,,,,,,,,,,,,,,668.9233,670.4675,670.4676,671.7701,return,0.3076,,72.65625,,,,,,FBP-OG-18.png,0.43,1.2,39,0.75,,,,,,,,,,,,,0,12,12,38,1,,,,,,,,,,,,,,,,,,,,,,,,,,,,
,,,,,V3_016,27,Female,2024-10-17_12h57.24.025,jersey_experiment_5_v3,2023.2.2,Win32,84.03361345,,,,,,,,,,,,,,,,671.7705,673.0644,673.0645,675.8323,return,1.9768,,82.16145833,,,,,,FBP-YG-91.png,0.43,1.2,14,0.5,,,,,,,,,,,,,0,13,13,13,1,,,,,,,,,,,,,,,,,,,,,,,,,,,,
,,,,,V3_016,27,Female,2024-10-17_12h57.24.025,jersey_experiment_5_v3,2023.2.2,Win32,84.03361345,,,,,,,,,,,,,,,,675.8325,677.1352,677.1352,678.7,return,0.4625,,23.30729167,,,,,,FBP-PT-17.png,0.35,1.2,16,0.5,,,,,,,,,,,,,0,14,14,15,1,,,,,,,,,,,,,,,,,,,,,,,,,,,,
,,,,,V3_016,27,Female,2024-10-17_12h57.24.025,jersey_experiment_5_v3,2023.2.2,Win32,84.03361345,,,,,,,,,,,,,,,,678.7002,679.9972,679.9972,681.5156,return,0.224,,77.21354167,,,,,,FBP-RB-19.png,0.45,1.2,60,0.5,,,,,,,,,,,,,0,15,15,59,1,,,,,,,,,,,,,,,,,,,,,,,,,,,,
,,,,,V3_016,27,Female,2024-10-17_12h57.24.025,jersey_experiment_5_v3,2023.2.2,Win32,84.03361345,,,,,,,,,,,,,,,,681.5158,682.8117,682.8117,683.7471,return,0.2077,,96.74479167,,,,,,FBP-PT-18.png,0.45,1.2,25,0.5,,,,,,,,,,,,,0,16,16,24,1,,,,,,,,,,,,,,,,,,,,,,,,,,,,
,,,,,V3_016,27,Female,2024-10-17_12h57.24.025,jersey_experiment_5_v3,2023.2.2,Win32,84.03361345,,,,,,,,,,,,,,,,683.7473,685.2912,685.2912,686.9538,return,0.1565,,29.296875,,,,,,FBP-OG-18.png,0.35,1.2,36,0.75,,,,,,,,,,,,,0,17,17,35,1,,,,,,,,,,,,,,,,,,,,,,,,,,,,
,,,,,V3_016,27,Female,2024-10-17_12h57.24.025,jersey_experiment_5_v3,2023.2.2,Win32,84.03361345,,,,,,,,,,,,,,,,686.954,688.2558,688.2559,690.0886,return,0.2268,,91.015625,,,,,,FBP-RB-17.png,0.43,1.2,49,0.5,,,,,,,,,,,,,0,18,18,48,1,,,,,,,,,,,,,,,,,,,,,,,,,,,,
,,,,,V3_016,27,Female,2024-10-17_12h57.24.025,jersey_experiment_5_v3,2023.2.2,Win32,84.03361345,,,,,,,,,,,,,,,,690.0888,691.3855,691.3856,693.6534,return,1.5357,,88.41145833,,,,,,FBP-YG-71.png,0.4,1.2,3,0.5,,,,,,,,,,,,,0,19,19,2,1,,,,,,,,,,,,,,,,,,,,,,,,,,,,
,,,,,V3_016,27,Female,2024-10-17_12h57.24.025,jersey_experiment_5_v3,2023.2.2,Win32,84.03361345,,,,,,,,,,,,,,,,693.6535,694.9476,694.9476,696.03,return,0.1647,,97.78645833,,,,,,FBP-YG-91.png,0.45,1.2,15,0.5,,,,,,,,,,,,,0,20,20,14,1,,,,,,,,,,,,,,,,,,,,,,,,,,,,
,,,,,V3_016,27,Female,2024-10-17_12h57.24.025,jersey_experiment_5_v3,2023.2.2,Win32,84.03361345,,,,,,,,,,,,,,,,696.0302,697.583,697.583,698.6654,return,0.167,,97.52604167,,,,,,FBP-OG-17.png,0.45,1.2,35,0.75,,,,,,,,,,,,,0,21,21,34,1,,,,,,,,,,,,,,,,,,,,,,,,,,,,
,,,,,V3_016,27,Female,2024-10-17_12h57.24.025,jersey_experiment_5_v3,2023.2.2,Win32,84.03361345,,,,,,,,,,,,,,,,698.6655,699.9659,699.9659,703.3949,return,1.5247,,19.53125,,,,,,FBP-PT-18.png,0.35,1.2,21,0.5,,,,,,,,,,,,,0,22,22,20,1,,,,,,,,,,,,,,,,,,,,,,,,,,,,
,,,,,V3_016,27,Female,2024-10-17_12h57.24.025,jersey_experiment_5_v3,2023.2.2,Win32,84.03361345,,,,,,,,,,,,,,,,703.3952,704.6948,704.6948,706.0128,return,0.4621,,14.84375,,,,,,FBP-RB-19.png,0.35,1.2,56,0.5,,,,,,,,,,,,,0,23,23,55,1,,,,,,,,,,,,,,,,,,,,,,,,,,,,
,,,,,V3_016,27,Female,2024-10-17_12h57.24.025,jersey_experiment_5_v3,2023.2.2,Win32,84.03361345,,,,,,,,,,,,,,,,706.013,707.3158,707.3158,709.607,return,0.2249,,81.90104167,,,,,,FBP-RB-19.png,0.43,1.2,59,0.5,,,,,,,,,,,,,0,24,24,58,1,,,,,,,,,,,,,,,,,,,,,,,,,,,,
,,,,,V3_016,27,Female,2024-10-17_12h57.24.025,jersey_experiment_5_v3,2023.2.2,Win32,84.03361345,,,,,,,,,,,,,,,,709.6071,710.9012,710.9012,713.0658,return,0.504,,49.08854167,,,,,,FBP-PT-18.png,0.37,1.2,22,0.5,,,,,,,,,,,,,0,25,25,21,1,,,,,,,,,,,,,,,,,,,,,,,,,,,,
,,,,,V3_016,27,Female,2024-10-17_12h57.24.025,jersey_experiment_5_v3,2023.2.2,Win32,84.03361345,,,,,,,,,,,,,,,,713.066,714.3601,714.3601,715.7367,return,0.3765,,97.52604167,,,,,,FBP-RB-18.png,0.45,1.2,55,0.5,,,,,,,,,,,,,0,26,26,54,1,,,,,,,,,,,,,,,,,,,,,,,,,,,,
,,,,,V3_016,27,Female,2024-10-17_12h57.24.025,jersey_experiment_5_v3,2023.2.2,Win32,84.03361345,,,,,,,,,,,,,,,,715.7368,717.0336,717.0337,717.8309,return,0.1813,,97.78645833,,,,,,FBP-YG-81.png,0.45,1.2,10,0.5,,,,,,,,,,,,,0,27,27,9,1,,,,,,,,,,,,,,,,,,,,,,,,,,,,
,,,,,V3_016,27,Female,2024-10-17_12h57.24.025,jersey_experiment_5_v3,2023.2.2,Win32,84.03361345,,,,,,,,,,,,,,,,717.831,719.1279,719.128,721.5016,return,0.188,,25.78125,,,,,,FBP-YG-81.png,0.35,1.2,6,0.5,,,,,,,,,,,,,0,28,28,5,1,,,,,,,,,,,,,,,,,,,,,,,,,,,,
,,,,,V3_016,27,Female,2024-10-17_12h57.24.025,jersey_experiment_5_v3,2023.2.2,Win32,84.03361345,,,,,,,,,,,,,,,,721.5018,722.7957,722.7957,725.2075,return,1.0243,,83.984375,,,,,,FBP-PT-18.png,0.43,1.2,24,0.5,,,,,,,,,,,,,0,29,29,23,1,,,,,,,,,,,,,,,,,,,,,,,,,,,,
,,,,,V3_016,27,Female,2024-10-17_12h57.24.025,jersey_experiment_5_v3,2023.2.2,Win32,84.03361345,,,,,,,,,,,,,,,,725.2077,726.5017,726.5018,728.0227,return,0.3771,,90.10416667,,,,,,FBP-RB-18.png,0.43,1.2,54,0.5,,,,,,,,,,,,,0,30,30,53,1,,,,,,,,,,,,,,,,,,,,,,,,,,,,
,,,,,V3_016,27,Female,2024-10-17_12h57.24.025,jersey_experiment_5_v3,2023.2.2,Win32,84.03361345,,,,,,,,,,,,,,,,728.0229,729.5755,729.5755,730.702,return,0.1564,,75,,,,,,FBP-OG-17.png,0.4,1.2,33,0.75,,,,,,,,,,,,,0,31,31,32,1,,,,,,,,,,,,,,,,,,,,,,,,,,,,
,,,,,V3_016,27,Female,2024-10-17_12h57.24.025,jersey_experiment_5_v3,2023.2.2,Win32,84.03361345,,,,,,,,,,,,,,,,730.7021,731.9959,731.9959,733.8488,return,0.6819,,65.88541667,,,,,,FBP-RB-18.png,0.37,1.2,52,0.5,,,,,,,,,,,,,0,32,32,51,1,,,,,,,,,,,,,,,,,,,,,,,,,,,,
,,,,,V3_016,27,Female,2024-10-17_12h57.24.025,jersey_experiment_5_v3,2023.2.2,Win32,84.03361345,,,,,,,,,,,,,,,,733.8489,735.149,735.149,736.455,return,0.4131,,81.11979167,,,,,,FBP-RB-17.png,0.45,1.2,50,0.5,,,,,,,,,,,,,0,33,33,49,1,,,,,,,,,,,,,,,,,,,,,,,,,,,,
,,,,,V3_016,27,Female,2024-10-17_12h57.24.025,jersey_experiment_5_v3,2023.2.2,Win32,84.03361345,,,,,,,,,,,,,,,,736.4551,737.7492,737.7492,739.2081,return,0.1678,,74.34895833,,,,,,FBP-YG-81.png,0.4,1.2,8,0.5,,,,,,,,,,,,,0,34,34,7,1,,,,,,,,,,,,,,,,,,,,,,,,,,,,
,,,,,V3_016,27,Female,2024-10-17_12h57.24.025,jersey_experiment_5_v3,2023.2.2,Win32,84.03361345,,,,,,,,,,,,,,,,739.2083,740.761,740.761,741.8199,return,0.1497,,80.078125,,,,,,FBP-OG-19.png,0.43,1.2,44,0.75,,,,,,,,,,,,,0,35,35,43,1,,,,,,,,,,,,,,,,,,,,,,,,,,,,
,,,,,V3_016,27,Female,2024-10-17_12h57.24.025,jersey_experiment_5_v3,2023.2.2,Win32,84.03361345,,,,,,,,,,,,,,,,741.82,743.3729,743.373,745.7791,return,0.7294,,69.01041667,,,,,,FBP-OG-19.png,0.37,1.2,42,0.75,,,,,,,,,,,,,0,36,36,41,1,,,,,,,,,,,,,,,,,,,,,,,,,,,,
,,,,,V3_016,27,Female,2024-10-17_12h57.24.025,jersey_experiment_5_v3,2023.2.2,Win32,84.03361345,,,,,,,,,,,,,,,,745.7793,747.0789,747.079,748.4202,return,0.1925,,85.9375,,,,,,FBP-RB-18.png,0.4,1.2,53,0.5,,,,,,,,,,,,,0,37,37,52,1,,,,,,,,,,,,,,,,,,,,,,,,,,,,
,,,,,V3_016,27,Female,2024-10-17_12h57.24.025,jersey_experiment_5_v3,2023.2.2,Win32,84.03361345,,,,,,,,,,,,,,,,748.4204,749.9671,749.9671,750.9797,return,0.1666,,86.58854167,,,,,,FBP-OG-18.png,0.4,1.2,38,0.75,,,,,,,,,,,,,0,38,38,37,1,,,,,,,,,,,,,,,,,,,,,,,,,,,,
,,,,,V3_016,27,Female,2024-10-17_12h57.24.025,jersey_experiment_5_v3,2023.2.2,Win32,84.03361345,,,,,,,,,,,,,,,,750.9799,752.2791,752.2791,754.4855,return,0.2355,,45.18229167,,,,,,FBP-YG-71.png,0.35,1.2,1,0.5,,,,,,,,,,,,,0,39,39,0,1,,,,,,,,,,,,,,,,,,,,,,,,,,,,
,,,,,V3_016,27,Female,2024-10-17_12h57.24.025,jersey_experiment_5_v3,2023.2.2,Win32,84.03361345,,,,,,,,,,,,,,,,754.4857,755.7851,755.7851,757.5767,return,0.2123,,56.11979167,,,,,,FBP-PT-19.png,0.4,1.2,28,0.5,,,,,,,,,,,,,0,40,40,27,1,,,,,,,,,,,,,,,,,,,,,,,,,,,,
,,,,,V3_016,27,Female,2024-10-17_12h57.24.025,jersey_experiment_5_v3,2023.2.2,Win32,84.03361345,,,,,,,,,,,,,,,,757.5768,758.8849,758.8849,760.6119,return,0.4234,,34.375,,,,,,FBP-YG-91.png,0.37,1.2,12,0.5,,,,,,,,,,,,,0,41,41,11,1,,,,,,,,,,,,,,,,,,,,,,,,,,,,
,,,,,V3_016,27,Female,2024-10-17_12h57.24.025,jersey_experiment_5_v3,2023.2.2,Win32,84.03361345,,,,,,,,,,,,,,,,760.612,762.156,762.156,763.3031,return,0.1928,,94.53125,,,,,,FBP-OG-18.png,0.45,1.2,40,0.75,,,,,,,,,,,,,0,42,42,39,1,,,,,,,,,,,,,,,,,,,,,,,,,,,,
,,,,,V3_016,27,Female,2024-10-17_12h57.24.025,jersey_experiment_5_v3,2023.2.2,Win32,84.03361345,,,,,,,,,,,,,,,,763.3034,764.5971,764.5971,767.1268,return,0.8166,,34.765625,,,,,,FBP-RB-18.png,0.35,1.2,51,0.5,,,,,,,,,,,,,0,43,43,50,1,,,,,,,,,,,,,,,,,,,,,,,,,,,,
,,,,,V3_016,27,Female,2024-10-17_12h57.24.025,jersey_experiment_5_v3,2023.2.2,Win32,84.03361345,,,,,,,,,,,,,,,,767.1271,768.4209,768.421,769.5067,return,0.1741,,43.61979167,,,,,,FBP-RB-17.png,0.4,1.2,48,0.5,,,,,,,,,,,,,0,44,44,47,1,,,,,,,,,,,,,,,,,,,,,,,,,,,,
,,,,,V3_016,27,Female,2024-10-17_12h57.24.025,jersey_experiment_5_v3,2023.2.2,Win32,84.03361345,,,,,,,,,,,,,,,,769.5069,771.0505,771.0505,772.0862,return,0.0624,,93.359375,,,,,,FBP-OG-19.png,0.45,1.2,45,0.75,,,,,,,,,,,,,0,45,45,44,1,,,,,,,,,,,,,,,,,,,,,,,,,,,,
,,,,,V3_016,27,Female,2024-10-17_12h57.24.025,jersey_experiment_5_v3,2023.2.2,Win32,84.03361345,,,,,,,,,,,,,,,,772.0863,773.3889,773.3889,774.5977,return,0.053,,93.09895833,,,,,,FBP-PT-17.png,0.43,1.2,19,0.5,,,,,,,,,,,,,0,46,46,18,1,,,,,,,,,,,,,,,,,,,,,,,,,,,,
,,,,,V3_016,27,Female,2024-10-17_12h57.24.025,jersey_experiment_5_v3,2023.2.2,Win32,84.03361345,,,,,,,,,,,,,,,,774.5979,776.1414,776.1414,779.5741,return,0.1347,,81.90104167,,,,,,FBP-OG-18.png,0.37,1.2,37,0.75,,,,,,,,,,,,,0,47,47,36,1,,,,,,,,,,,,,,,,,,,,,,,,,,,,
,,,,,V3_016,27,Female,2024-10-17_12h57.24.025,jersey_experiment_5_v3,2023.2.2,Win32,84.03361345,,,,,,,,,,,,,,,,779.5744,780.8683,780.8683,782.2834,return,0.3298,,55.72916667,,,,,,FBP-YG-91.png,0.35,1.2,11,0.5,,,,,,,,,,,,,0,48,48,10,1,,,,,,,,,,,,,,,,,,,,,,,,,,,,
,,,,,V3_016,27,Female,2024-10-17_12h57.24.025,jersey_experiment_5_v3,2023.2.2,Win32,84.03361345,,,,,,,,,,,,,,,,782.2835,783.5923,783.5924,784.9103,return,0.2271,,62.36979167,,,,,,FBP-RB-19.png,0.37,1.2,57,0.5,,,,,,,,,,,,,0,49,49,56,1,,,,,,,,,,,,,,,,,,,,,,,,,,,,
,,,,,V3_016,27,Female,2024-10-17_12h57.24.025,jersey_experiment_5_v3,2023.2.2,Win32,84.03361345,,,,,,,,,,,,,,,,784.9104,786.4569,786.457,787.6247,return,0.1498,,41.53645833,,,,,,FBP-OG-17.png,0.35,1.2,31,0.75,,,,,,,,,,,,,0,50,50,30,1,,,,,,,,,,,,,,,,,,,,,,,,,,,,
,,,,,V3_016,27,Female,2024-10-17_12h57.24.025,jersey_experiment_5_v3,2023.2.2,Win32,84.03361345,,,,,,,,,,,,,,,,787.6248,788.9186,788.9186,790.3456,return,0.1649,,54.81770833,,,,,,FBP-PT-18.png,0.4,1.2,23,0.5,,,,,,,,,,,,,0,51,51,22,1,,,,,,,,,,,,,,,,,,,,,,,,,,,,
,,,,,V3_016,27,Female,2024-10-17_12h57.24.025,jersey_experiment_5_v3,2023.2.2,Win32,84.03361345,,,,,,,,,,,,,,,,790.3458,791.6395,791.6395,793.7427,return,0.9033,,90.10416667,,,,,,FBP-PT-19.png,0.43,1.2,29,0.5,,,,,,,,,,,,,0,52,52,28,1,,,,,,,,,,,,,,,,,,,,,,,,,,,,
,,,,,V3_016,27,Female,2024-10-17_12h57.24.025,jersey_experiment_5_v3,2023.2.2,Win32,84.03361345,,,,,,,,,,,,,,,,793.7428,795.0455,795.0455,796.1629,return,0.1141,,74.47916667,,,,,,FBP-PT-17.png,0.37,1.2,17,0.5,,,,,,,,,,,,,0,53,53,16,1,,,,,,,,,,,,,,,,,,,,,,,,,,,,
,,,,,V3_016,27,Female,2024-10-17_12h57.24.025,jersey_experiment_5_v3,2023.2.2,Win32,84.03361345,,,,,,,,,,,,,,,,796.1631,797.7107,797.7107,798.9106,return,0.165,,84.765625,,,,,,FBP-OG-17.png,0.43,1.2,34,0.75,,,,,,,,,,,,,0,54,54,33,1,,,,,,,,,,,,,,,,,,,,,,,,,,,,
,,,,,V3_016,27,Female,2024-10-17_12h57.24.025,jersey_experiment_5_v3,2023.2.2,Win32,84.03361345,,,,,,,,,,,,,,,,798.9108,800.2137,800.2137,801.0456,return,0.0533,,93.22916667,,,,,,FBP-PT-19.png,0.45,1.2,30,0.5,,,,,,,,,,,,,0,55,55,29,1,,,,,,,,,,,,,,,,,,,,,,,,,,,,
,,,,,V3_016,27,Female,2024-10-17_12h57.24.025,jersey_experiment_5_v3,2023.2.2,Win32,84.03361345,,,,,,,,,,,,,,,,801.0458,802.5898,802.5898,804.7868,return,0.0557,,72.00520833,,,,,,FBP-OG-19.png,0.35,1.2,41,0.75,,,,,,,,,,,,,0,56,56,40,1,,,,,,,,,,,,,,,,,,,,,,,,,,,,
,,,,,V3_016,27,Female,2024-10-17_12h57.24.025,jersey_experiment_5_v3,2023.2.2,Win32,84.03361345,,,,,,,,,,,,,,,,804.7869,806.0811,806.0811,808.958,return,1.4118,,52.34375,,,,,,FBP-RB-17.png,0.35,1.2,46,0.5,,,,,,,,,,,,,0,57,57,45,1,,,,,,,,,,,,,,,,,,,,,,,,,,,,
,,,,,V3_016,27,Female,2024-10-17_12h57.24.025,jersey_experiment_5_v3,2023.2.2,Win32,84.03361345,,,,,,,,,,,,,,,,808.9582,810.2519,810.252,813.6578,return,2.2457,,51.04166667,,,,,,FBP-PT-19.png,0.35,1.2,26,0.5,,,,,,,,,,,,,0,58,58,25,1,,,,,,,,,,,,,,,,,,,,,,,,,,,,
,,,,,V3_016,27,Female,2024-10-17_12h57.24.025,jersey_experiment_5_v3,2023.2.2,Win32,84.03361345,,,,,,,,,,,,,,,,813.658,814.952,814.952,816.8579,return,0.3869,,94.53125,,,,,,FBP-PT-17.png,0.45,1.2,20,0.5,,,,,,,,,,,,,0,59,59,19,1,,,,,,,,,,,,,,,,,,,,,,,,,,,,
,,,,,V3_016,27,Female,2024-10-17_12h57.24.025,jersey_experiment_5_v3,2023.2.2,Win32,84.03361345,,,,,,,,,,,,,,,,816.8596,818.1581,818.1582,821.6174,return,0.274,,48.828125,,,,,,FBP-YG-17.png,0.35,1.2,1,0.5,,,,,,,,,,,,,,,,,,0,0,0,0,1,,,,,,,,,,,,,,,,,,,,,,,
,,,,,V3_016,27,Female,2024-10-17_12h57.24.025,jersey_experiment_5_v3,2023.2.2,Win32,84.03361345,,,,,,,,,,,,,,,,821.6176,822.9204,822.9205,823.9406,return,0.2271,,98.95833333,,,,,,FBP-YG-19.png,0.45,1.2,15,0.5,,,,,,,,,,,,,,,,,,0,1,1,14,1,,,,,,,,,,,,,,,,,,,,,,,
,,,,,V3_016,27,Female,2024-10-17_12h57.24.025,jersey_experiment_5_v3,2023.2.2,Win32,84.03361345,,,,,,,,,,,,,,,,823.9407,825.2347,825.2347,826.5587,return,0.1412,,16.40625,,,,,,FBP-RB-81.png,0.35,1.2,51,0.5,,,,,,,,,,,,,,,,,,0,2,2,50,1,,,,,,,,,,,,,,,,,,,,,,,
,,,,,V3_016,27,Female,2024-10-17_12h57.24.025,jersey_experiment_5_v3,2023.2.2,Win32,84.03361345,,,,,,,,,,,,,,,,826.5588,827.8584,827.8584,830.5173,return,0.1447,,27.08333333,,,,,,FBP-PT-81.png,0.37,1.2,22,0.5,,,,,,,,,,,,,,,,,,0,3,3,21,1,,,,,,,,,,,,,,,,,,,,,,,
,,,,,V3_016,27,Female,2024-10-17_12h57.24.025,jersey_experiment_5_v3,2023.2.2,Win32,84.03361345,,,,,,,,,,,,,,,,830.5175,831.8115,831.8115,833.453,return,0.1649,,93.48958333,,,,,,FBP-PT-81.png,0.43,1.2,24,0.5,,,,,,,,,,,,,,,,,,0,4,4,23,1,,,,,,,,,,,,,,,,,,,,,,,
,,,,,V3_016,27,Female,2024-10-17_12h57.24.025,jersey_experiment_5_v3,2023.2.2,Win32,84.03361345,,,,,,,,,,,,,,,,833.4532,834.7556,834.7556,836.035,return,0.2437,,99.73958333,,,,,,FBP-RB-91.png,0.45,1.2,60,0.5,,,,,,,,,,,,,,,,,,0,5,5,59,1,,,,,,,,,,,,,,,,,,,,,,,
,,,,,V3_016,27,Female,2024-10-17_12h57.24.025,jersey_experiment_5_v3,2023.2.2,Win32,84.03361345,,,,,,,,,,,,,,,,836.0351,837.5795,837.5796,839.5476,return,0.8155,,41.796875,,,,,,FBP-OG-91.png,0.37,1.2,42,0.75,,,,,,,,,,,,,,,,,,0,6,6,41,1,,,,,,,,,,,,,,,,,,,,,,,
,,,,,V3_016,27,Female,2024-10-17_12h57.24.025,jersey_experiment_5_v3,2023.2.2,Win32,84.03361345,,,,,,,,,,,,,,,,839.5478,840.85,840.8501,842.6353,return,0.1885,,90.88541667,,,,,,FBP-RB-71.png,0.43,1.2,49,0.5,,,,,,,,,,,,,,,,,,0,7,7,48,1,,,,,,,,,,,,,,,,,,,,,,,
,,,,,V3_016,27,Female,2024-10-17_12h57.24.025,jersey_experiment_5_v3,2023.2.2,Win32,84.03361345,,,,,,,,,,,,,,,,842.6354,843.9325,843.9325,847.9565,return,1.6084,,51.171875,,,,,,FBP-PT-81.png,0.35,1.2,21,0.5,,,,,,,,,,,,,,,,,,0,8,8,20,1,,,,,,,,,,,,,,,,,,,,,,,
,,,,,V3_016,27,Female,2024-10-17_12h57.24.025,jersey_experiment_5_v3,2023.2.2,Win32,84.03361345,,,,,,,,,,,,,,,,847.9566,849.2591,849.2591,853.8004,return,2.9296,,49.86979167,,,,,,FBP-YG-19.png,0.35,1.2,11,0.5,,,,,,,,,,,,,,,,,,0,9,9,10,1,,,,,,,,,,,,,,,,,,,,,,,
,,,,,V3_016,27,Female,2024-10-17_12h57.24.025,jersey_experiment_5_v3,2023.2.2,Win32,84.03361345,,,,,,,,,,,,,,,,853.8007,855.101,855.101,857.224,return,1.0845,,42.31770833,,,,,,FBP-PT-91.png,0.35,1.2,26,0.5,,,,,,,,,,,,,,,,,,0,10,10,25,1,,,,,,,,,,,,,,,,,,,,,,,
,,,,,V3_016,27,Female,2024-10-17_12h57.24.025,jersey_experiment_5_v3,2023.2.2,Win32,84.03361345,,,,,,,,,,,,,,,,857.2242,858.5184,858.5184,859.5889,return,0.1563,,47.91666667,,,,,,FBP-PT-71.png,0.4,1.2,18,0.5,,,,,,,,,,,,,,,,,,0,11,11,17,1,,,,,,,,,,,,,,,,,,,,,,,
,,,,,V3_016,27,Female,2024-10-17_12h57.24.025,jersey_experiment_5_v3,2023.2.2,Win32,84.03361345,,,,,,,,,,,,,,,,859.589,860.8831,860.8831,863.1655,return,0.4791,,67.578125,,,,,,FBP-YG-19.png,0.4,1.2,13,0.5,,,,,,,,,,,,,,,,,,0,12,12,12,1,,,,,,,,,,,,,,,,,,,,,,,
,,,,,V3_016,27,Female,2024-10-17_12h57.24.025,jersey_experiment_5_v3,2023.2.2,Win32,84.03361345,,,,,,,,,,,,,,,,863.1657,864.7245,864.7245,865.8949,return,0.1455,,71.61458333,,,,,,FBP-OG-81.png,0.4,1.2,38,0.75,,,,,,,,,,,,,,,,,,0,13,13,37,1,,,,,,,,,,,,,,,,,,,,,,,
,,,,,V3_016,27,Female,2024-10-17_12h57.24.025,jersey_experiment_5_v3,2023.2.2,Win32,84.03361345,,,,,,,,,,,,,,,,865.8951,867.1892,867.1892,868.5838,return,0.1416,,55.72916667,,,,,,FBP-YG-18.png,0.37,1.2,7,0.5,,,,,,,,,,,,,,,,,,0,14,14,6,1,,,,,,,,,,,,,,,,,,,,,,,
,,,,,V3_016,27,Female,2024-10-17_12h57.24.025,jersey_experiment_5_v3,2023.2.2,Win32,84.03361345,,,,,,,,,,,,,,,,868.5839,869.878,869.878,871.2835,return,0.6517,,56.90104167,,,,,,FBP-RB-71.png,0.37,1.2,47,0.5,,,,,,,,,,,,,,,,,,0,15,15,46,1,,,,,,,,,,,,,,,,,,,,,,,
,,,,,V3_016,27,Female,2024-10-17_12h57.24.025,jersey_experiment_5_v3,2023.2.2,Win32,84.03361345,,,,,,,,,,,,,,,,871.2836,872.8275,872.8276,874.4835,return,0.196,,74.86979167,,,,,,FBP-OG-71.png,0.43,1.2,34,0.75,,,,,,,,,,,,,,,,,,0,16,16,33,1,,,,,,,,,,,,,,,,,,,,,,,
,,,,,V3_016,27,Female,2024-10-17_12h57.24.025,jersey_experiment_5_v3,2023.2.2,Win32,84.03361345,,,,,,,,,,,,,,,,874.4836,876.0248,876.0249,876.9308,return,0.2531,,76.43229167,,,,,,FBP-OG-91.png,0.4,1.2,43,0.75,,,,,,,,,,,,,,,,,,0,17,17,42,1,,,,,,,,,,,,,,,,,,,,,,,
,,,,,V3_016,27,Female,2024-10-17_12h57.24.025,jersey_experiment_5_v3,2023.2.2,Win32,84.03361345,,,,,,,,,,,,,,,,876.9309,878.2249,878.2249,880.2546,return,1.1058,,86.328125,,,,,,FBP-PT-71.png,0.43,1.2,19,0.5,,,,,,,,,,,,,,,,,,0,18,18,18,1,,,,,,,,,,,,,,,,,,,,,,,
,,,,,V3_016,27,Female,2024-10-17_12h57.24.025,jersey_experiment_5_v3,2023.2.2,Win32,84.03361345,,,,,,,,,,,,,,,,880.2546,881.5543,881.5544,882.7074,return,0.3814,,91.796875,,,,,,FBP-YG-18.png,0.45,1.2,10,0.5,,,,,,,,,,,,,,,,,,0,19,19,9,1,,,,,,,,,,,,,,,,,,,,,,,
,,,,,V3_016,27,Female,2024-10-17_12h57.24.025,jersey_experiment_5_v3,2023.2.2,Win32,84.03361345,,,,,,,,,,,,,,,,882.7076,884.2605,884.2605,885.4605,return,0.2073,,90.36458333,,,,,,FBP-OG-71.png,0.45,1.2,35,0.75,,,,,,,,,,,,,,,,,,0,20,20,34,1,,,,,,,,,,,,,,,,,,,,,,,
,,,,,V3_016,27,Female,2024-10-17_12h57.24.025,jersey_experiment_5_v3,2023.2.2,Win32,84.03361345,,,,,,,,,,,,,,,,885.4606,886.7546,886.7547,888.0908,return,0.1649,,46.61458333,,,,,,FBP-PT-91.png,0.37,1.2,27,0.5,,,,,,,,,,,,,,,,,,0,21,21,26,1,,,,,,,,,,,,,,,,,,,,,,,
,,,,,V3_016,27,Female,2024-10-17_12h57.24.025,jersey_experiment_5_v3,2023.2.2,Win32,84.03361345,,,,,,,,,,,,,,,,888.091,889.6371,889.6372,891.0169,return,0.2208,,34.50520833,,,,,,FBP-OG-81.png,0.35,1.2,36,0.75,,,,,,,,,,,,,,,,,,0,22,22,35,1,,,,,,,,,,,,,,,,,,,,,,,
,,,,,V3_016,27,Female,2024-10-17_12h57.24.025,jersey_experiment_5_v3,2023.2.2,Win32,84.03361345,,,,,,,,,,,,,,,,891.0171,892.3107,892.3108,893.2201,return,0.1565,,32.55208333,,,,,,FBP-RB-91.png,0.37,1.2,57,0.5,,,,,,,,,,,,,,,,,,0,23,23,56,1,,,,,,,,,,,,,,,,,,,,,,,
,,,,,V3_016,27,Female,2024-10-17_12h57.24.025,jersey_experiment_5_v3,2023.2.2,Win32,84.03361345,,,,,,,,,,,,,,,,893.2202,894.5142,894.5142,897.0961,return,1.2034,,84.375,,,,,,FBP-YG-18.png,0.4,1.2,8,0.5,,,,,,,,,,,,,,,,,,0,24,24,7,1,,,,,,,,,,,,,,,,,,,,,,,
,,,,,V3_016,27,Female,2024-10-17_12h57.24.025,jersey_experiment_5_v3,2023.2.2,Win32,84.03361345,,,,,,,,,,,,,,,,897.0962,898.3904,898.3905,899.3904,return,0.2356,,96.74479167,,,,,,FBP-PT-81.png,0.45,1.2,25,0.5,,,,,,,,,,,,,,,,,,0,25,25,24,1,,,,,,,,,,,,,,,,,,,,,,,
,,,,,V3_016,27,Female,2024-10-17_12h57.24.025,jersey_experiment_5_v3,2023.2.2,Win32,84.03361345,,,,,,,,,,,,,,,,899.3906,900.6872,900.6873,901.7786,return,0.3234,,96.09375,,,,,,FBP-RB-81.png,0.43,1.2,54,0.5,,,,,,,,,,,,,,,,,,0,26,26,53,1,,,,,,,,,,,,,,,,,,,,,,,
,,,,,V3_016,27,Female,2024-10-17_12h57.24.025,jersey_experiment_5_v3,2023.2.2,Win32,84.03361345,,,,,,,,,,,,,,,,901.7789,903.0791,903.0791,904.5696,return,0.2672,,26.04166667,,,,,,FBP-YG-18.png,0.35,1.2,6,0.5,,,,,,,,,,,,,,,,,,0,27,27,5,1,,,,,,,,,,,,,,,,,,,,,,,
,,,,,V3_016,27,Female,2024-10-17_12h57.24.025,jersey_experiment_5_v3,2023.2.2,Win32,84.03361345,,,,,,,,,,,,,,,,904.5698,905.8643,905.8643,908.4848,return,0.6502,,75,,,,,,FBP-YG-17.png,0.43,1.2,4,0.5,,,,,,,,,,,,,,,,,,0,28,28,3,1,,,,,,,,,,,,,,,,,,,,,,,
,,,,,V3_016,27,Female,2024-10-17_12h57.24.025,jersey_experiment_5_v3,2023.2.2,Win32,84.03361345,,,,,,,,,,,,,,,,908.4849,910.0291,910.0292,911.4615,return,0.2768,,32.8125,,,,,,FBP-OG-81.png,0.37,1.2,37,0.75,,,,,,,,,,,,,,,,,,0,29,29,36,1,,,,,,,,,,,,,,,,,,,,,,,
,,,,,V3_016,27,Female,2024-10-17_12h57.24.025,jersey_experiment_5_v3,2023.2.2,Win32,84.03361345,,,,,,,,,,,,,,,,911.4616,912.7587,912.7587,916.8734,return,0.2356,,51.04166667,,,,,,FBP-RB-91.png,0.4,1.2,58,0.5,,,,,,,,,,,,,,,,,,0,30,30,57,1,,,,,,,,,,,,,,,,,,,,,,,
,,,,,V3_016,27,Female,2024-10-17_12h57.24.025,jersey_experiment_5_v3,2023.2.2,Win32,84.03361345,,,,,,,,,,,,,,,,916.8735,918.1675,918.1676,919.7475,return,0.2595,,26.30208333,,,,,,FBP-RB-91.png,0.35,1.2,56,0.5,,,,,,,,,,,,,,,,,,0,31,31,55,1,,,,,,,,,,,,,,,,,,,,,,,
,,,,,V3_016,27,Female,2024-10-17_12h57.24.025,jersey_experiment_5_v3,2023.2.2,Win32,84.03361345,,,,,,,,,,,,,,,,919.7475,921.041,921.041,924.7267,return,1.6621,,38.671875,,,,,,FBP-RB-81.png,0.4,1.2,53,0.5,,,,,,,,,,,,,,,,,,0,32,32,52,1,,,,,,,,,,,,,,,,,,,,,,,
,,,,,V3_016,27,Female,2024-10-17_12h57.24.025,jersey_experiment_5_v3,2023.2.2,Win32,84.03361345,,,,,,,,,,,,,,,,924.7269,926.0209,926.021,929.277,return,0.2591,,58.984375,,,,,,FBP-PT-81.png,0.4,1.2,23,0.5,,,,,,,,,,,,,,,,,,0,33,33,22,1,,,,,,,,,,,,,,,,,,,,,,,
,,,,,V3_016,27,Female,2024-10-17_12h57.24.025,jersey_experiment_5_v3,2023.2.2,Win32,84.03361345,,,,,,,,,,,,,,,,929.2772,930.5798,930.5798,931.8652,return,0.2824,,33.203125,,,,,,FBP-RB-81.png,0.37,1.2,52,0.5,,,,,,,,,,,,,,,,,,0,34,34,51,1,,,,,,,,,,,,,,,,,,,,,,,
,,,,,V3_016,27,Female,2024-10-17_12h57.24.025,jersey_experiment_5_v3,2023.2.2,Win32,84.03361345,,,,,,,,,,,,,,,,931.8653,933.4076,933.4076,934.7745,return,0.3446,,98.69791667,,,,,,FBP-OG-81.png,0.45,1.2,40,0.75,,,,,,,,,,,,,,,,,,0,35,35,39,1,,,,,,,,,,,,,,,,,,,,,,,
,,,,,V3_016,27,Female,2024-10-17_12h57.24.025,jersey_experiment_5_v3,2023.2.2,Win32,84.03361345,,,,,,,,,,,,,,,,934.7746,936.074,936.0741,937.2773,return,0.1972,,97.265625,,,,,,FBP-YG-17.png,0.4,1.2,3,0.5,,,,,,,,,,,,,,,,,,0,36,36,2,1,,,,,,,,,,,,,,,,,,,,,,,
,,,,,V3_016,27,Female,2024-10-17_12h57.24.025,jersey_experiment_5_v3,2023.2.2,Win32,84.03361345,,,,,,,,,,,,,,,,937.2775,938.5715,938.5715,940.0859,return,0.335,,97.65625,,,,,,FBP-RB-91.png,0.43,1.2,59,0.5,,,,,,,,,,,,,,,,,,0,37,37,58,1,,,,,,,,,,,,,,,,,,,,,,,
,,,,,V3_016,27,Female,2024-10-17_12h57.24.025,jersey_experiment_5_v3,2023.2.2,Win32,84.03361345,,,,,,,,,,,,,,,,940.0861,941.3802,941.3803,942.5951,return,0.1744,,24.21875,,,,,,FBP-PT-71.png,0.35,1.2,16,0.5,,,,,,,,,,,,,,,,,,0,38,38,15,1,,,,,,,,,,,,,,,,,,,,,,,
,,,,,V3_016,27,Female,2024-10-17_12h57.24.025,jersey_experiment_5_v3,2023.2.2,Win32,84.03361345,,,,,,,,,,,,,,,,942.5952,943.9023,943.9023,945.0345,return,0.1574,,24.73958333,,,,,,FBP-PT-71.png,0.37,1.2,17,0.5,,,,,,,,,,,,,,,,,,0,39,39,16,1,,,,,,,,,,,,,,,,,,,,,,,
,,,,,V3_016,27,Female,2024-10-17_12h57.24.025,jersey_experiment_5_v3,2023.2.2,Win32,84.03361345,,,,,,,,,,,,,,,,945.0346,946.3333,946.3334,948.3452,return,0.2142,,75.390625,,,,,,FBP-YG-18.png,0.43,1.2,9,0.5,,,,,,,,,,,,,,,,,,0,40,40,8,1,,,,,,,,,,,,,,,,,,,,,,,
,,,,,V3_016,27,Female,2024-10-17_12h57.24.025,jersey_experiment_5_v3,2023.2.2,Win32,84.03361345,,,,,,,,,,,,,,,,948.3453,949.6456,949.6456,950.8777,return,0.1648,,93.61979167,,,,,,FBP-PT-91.png,0.43,1.2,29,0.5,,,,,,,,,,,,,,,,,,0,41,41,28,1,,,,,,,,,,,,,,,,,,,,,,,
,,,,,V3_016,27,Female,2024-10-17_12h57.24.025,jersey_experiment_5_v3,2023.2.2,Win32,84.03361345,,,,,,,,,,,,,,,,950.8779,952.422,952.4221,953.5924,return,0.1529,,95.3125,,,,,,FBP-OG-81.png,0.43,1.2,39,0.75,,,,,,,,,,,,,,,,,,0,42,42,38,1,,,,,,,,,,,,,,,,,,,,,,,
,,,,,V3_016,27,Female,2024-10-17_12h57.24.025,jersey_experiment_5_v3,2023.2.2,Win32,84.03361345,,,,,,,,,,,,,,,,953.5925,954.8866,954.8866,955.9454,return,0.1516,,95.703125,,,,,,FBP-RB-71.png,0.45,1.2,50,0.5,,,,,,,,,,,,,,,,,,0,43,43,49,1,,,,,,,,,,,,,,,,,,,,,,,
,,,,,V3_016,27,Female,2024-10-17_12h57.24.025,jersey_experiment_5_v3,2023.2.2,Win32,84.03361345,,,,,,,,,,,,,,,,955.9456,957.4984,957.4984,958.9691,return,0.3058,,96.484375,,,,,,FBP-OG-91.png,0.45,1.2,45,0.75,,,,,,,,,,,,,,,,,,0,44,44,44,1,,,,,,,,,,,,,,,,,,,,,,,
,,,,,V3_016,27,Female,2024-10-17_12h57.24.025,jersey_experiment_5_v3,2023.2.2,Win32,84.03361345,,,,,,,,,,,,,,,,958.9693,960.2661,960.2662,961.1455,return,0.1751,,95.96354167,,,,,,FBP-PT-91.png,0.45,1.2,30,0.5,,,,,,,,,,,,,,,,,,0,45,45,29,1,,,,,,,,,,,,,,,,,,,,,,,
,,,,,V3_016,27,Female,2024-10-17_12h57.24.025,jersey_experiment_5_v3,2023.2.2,Win32,84.03361345,,,,,,,,,,,,,,,,961.1456,962.6896,962.6896,965.934,return,1.8741,,37.5,,,,,,FBP-OG-91.png,0.35,1.2,41,0.75,,,,,,,,,,,,,,,,,,0,46,46,40,1,,,,,,,,,,,,,,,,,,,,,,,
,,,,,V3_016,27,Female,2024-10-17_12h57.24.025,jersey_experiment_5_v3,2023.2.2,Win32,84.03361345,,,,,,,,,,,,,,,,965.9342,967.2281,967.2282,971.5758,return,3.3183,,20.3125,,,,,,FBP-YG-19.png,0.37,1.2,12,0.5,,,,,,,,,,,,,,,,,,0,47,47,11,1,,,,,,,,,,,,,,,,,,,,,,,
,,,,,V3_016,27,Female,2024-10-17_12h57.24.025,jersey_experiment_5_v3,2023.2.2,Win32,84.03361345,,,,,,,,,,,,,,,,971.576,972.8784,972.8784,975.405,return,1.0207,,91.92708333,,,,,,FBP-YG-17.png,0.45,1.2,5,0.5,,,,,,,,,,,,,,,,,,0,48,48,4,1,,,,,,,,,,,,,,,,,,,,,,,
,,,,,V3_016,27,Female,2024-10-17_12h57.24.025,jersey_experiment_5_v3,2023.2.2,Win32,84.03361345,,,,,,,,,,,,,,,,975.4052,976.7051,976.7052,978.6521,return,0.1882,,33.72395833,,,,,,FBP-RB-71.png,0.35,1.2,46,0.5,,,,,,,,,,,,,,,,,,0,49,49,45,1,,,,,,,,,,,,,,,,,,,,,,,
,,,,,V3_016,27,Female,2024-10-17_12h57.24.025,jersey_experiment_5_v3,2023.2.2,Win32,84.03361345,,,,,,,,,,,,,,,,978.6523,979.9464,979.9464,981.7228,return,0.541,,96.74479167,,,,,,FBP-RB-81.png,0.45,1.2,55,0.5,,,,,,,,,,,,,,,,,,0,50,50,54,1,,,,,,,,,,,,,,,,,,,,,,,
,,,,,V3_016,27,Female,2024-10-17_12h57.24.025,jersey_experiment_5_v3,2023.2.2,Win32,84.03361345,,,,,,,,,,,,,,,,981.723,983.279,983.279,984.479,return,0.2212,,73.828125,,,,,,FBP-OG-71.png,0.4,1.2,33,0.75,,,,,,,,,,,,,,,,,,0,51,51,32,1,,,,,,,,,,,,,,,,,,,,,,,
,,,,,V3_016,27,Female,2024-10-17_12h57.24.025,jersey_experiment_5_v3,2023.2.2,Win32,84.03361345,,,,,,,,,,,,,,,,984.4792,985.7818,985.7819,987.4171,return,0.5181,,76.82291667,,,,,,FBP-RB-71.png,0.4,1.2,48,0.5,,,,,,,,,,,,,,,,,,0,52,52,47,1,,,,,,,,,,,,,,,,,,,,,,,
,,,,,V3_016,27,Female,2024-10-17_12h57.24.025,jersey_experiment_5_v3,2023.2.2,Win32,84.03361345,,,,,,,,,,,,,,,,987.4173,988.9642,988.9642,989.9584,return,0.1581,,69.40104167,,,,,,FBP-OG-71.png,0.35,1.2,31,0.75,,,,,,,,,,,,,,,,,,0,53,53,30,1,,,,,,,,,,,,,,,,,,,,,,,
,,,,,V3_016,27,Female,2024-10-17_12h57.24.025,jersey_experiment_5_v3,2023.2.2,Win32,84.03361345,,,,,,,,,,,,,,,,989.9585,991.2526,991.2526,992.4795,return,0.1522,,97.91666667,,,,,,FBP-PT-71.png,0.45,1.2,20,0.5,,,,,,,,,,,,,,,,,,0,54,54,19,1,,,,,,,,,,,,,,,,,,,,,,,
,,,,,V3_016,27,Female,2024-10-17_12h57.24.025,jersey_experiment_5_v3,2023.2.2,Win32,84.03361345,,,,,,,,,,,,,,,,992.4796,993.782,993.782,995.2527,return,0.123,,75.78125,,,,,,FBP-YG-17.png,0.37,1.2,2,0.5,,,,,,,,,,,,,,,,,,0,55,55,1,1,,,,,,,,,,,,,,,,,,,,,,,
,,,,,V3_016,27,Female,2024-10-17_12h57.24.025,jersey_experiment_5_v3,2023.2.2,Win32,84.03361345,,,,,,,,,,,,,,,,995.253,996.8056,996.8057,997.6763,return,0.071,,80.20833333,,,,,,FBP-OG-71.png,0.37,1.2,32,0.75,,,,,,,,,,,,,,,,,,0,56,56,31,1,,,,,,,,,,,,,,,,,,,,,,,
,,,,,V3_016,27,Female,2024-10-17_12h57.24.025,jersey_experiment_5_v3,2023.2.2,Win32,84.03361345,,,,,,,,,,,,,,,,997.6766,998.9705,998.9705,999.9588,return,0.1343,,92.578125,,,,,,FBP-YG-19.png,0.43,1.2,14,0.5,,,,,,,,,,,,,,,,,,0,57,57,13,1,,,,,,,,,,,,,,,,,,,,,,,
,,,,,V3_016,27,Female,2024-10-17_12h57.24.025,jersey_experiment_5_v3,2023.2.2,Win32,84.03361345,,,,,,,,,,,,,,,,999.959,1001.2559,1001.2559,1002.653,return,0.1026,,89.453125,,,,,,FBP-PT-91.png,0.4,1.2,28,0.5,,,,,,,,,,,,,,,,,,0,58,58,27,1,,,,,,,,,,,,,,,,,,,,,,,
,,,,,V3_016,27,Female,2024-10-17_12h57.24.025,jersey_experiment_5_v3,2023.2.2,Win32,84.03361345,,,,,,,,,,,,,,,,1002.6532,1004.212,1004.212,1005.1943,return,0.1511,,97.52604167,,,,,,FBP-OG-91.png,0.43,1.2,44,0.75,,,,,,,,,,,,,,,,,,0,59,59,43,1,,,,,,,,,,,,,,,,,,,,,,,
,,,,,V3_016,27,Female,2024-10-17_12h57.24.025,jersey_experiment_5_v3,2023.2.2,Win32,84.03361345,,,,,,,,,,,,,,,,,,,,,,,,,,,,,,,,,,,,,,,,,,,,,,,,,,,,,,,,1005.1944,1009.9592,return,4.7453,,,,,,,,,,,,,,,,,,,
,,,,,V3_016,27,Female,2024-10-17_12h57.24.025,jersey_experiment_5_v3,2023.2.2,Win32,84.03361345,,,,,,,,,,,,,,,,,,,,,,,,,,,,,,,,,,,,,,,,,,,,,,,,,,,,,,,,,,,,,1009.9593,1014.3947,1,3.2882,return,1.1181,,,,,,,,,,,,
,,,,,V3_016,27,Female,2024-10-17_12h57.24.025,jersey_experiment_5_v3,2023.2.2,Win32,84.03361345,,,,,,,,,,,,,,,,,,,,,,,,,,,,,,,,,,,,,,,,,,,,,,,,,,,,,,,,,,,,,,,,,,,,1014.3947,1029.7368,perception,right,5.988,,,,,,
,,,,,V3_016,27,Female,2024-10-17_12h57.24.025,jersey_experiment_5_v3,2023.2.2,Win32,84.03361345,,,,,,,,,,,,,,,,,,,,,,,,,,,,,,,,,,,,,,,,,,,,,,,,,,,,,,,,,,,,,,,,,,,,,,,,,,1029.7369,1033.5602,return,3.8033,