requirements.started,requirements.stopped,key_resp_3.keys,key_resp_3.rt,key_resp_3.duration,Subject ID,Age,Gender,date,expName,psychopyVersion,OS,frameRate,instructions1.started,instructions1.stopped,key_resp.keys,key_resp.rt,key_resp.duration,example.started,example.stopped,enter_2.keys,enter_2.rt,enter_2.duration,instructions2.started,instructions2.stopped,enter_3.keys,enter_3.rt,enter_3.duration,image.started,image.stopped,slider_2.started,slider_2.stopped,next.keys,next.rt,next.duration,slider.response,trial_block_1.thisRepN,trial_block_1.thisTrialN,trial_block_1.thisN,trial_block_1.thisIndex,trial_block_1.ran,Path,Width,Height,Index,Duration,trial_block_2.thisRepN,trial_block_2.thisTrialN,trial_block_2.thisN,trial_block_2.thisIndex,trial_block_2.ran,rest_break.started,rest_break.stopped,end_break.started,end_break.stopped,key_resp_5.keys,key_resp_5.rt,key_resp_5.duration,trial_block_3.thisRepN,trial_block_3.thisTrialN,trial_block_3.thisN,trial_block_3.thisIndex,trial_block_3.ran,trial_block_4.thisRepN,trial_block_4.thisTrialN,trial_block_4.thisN,trial_block_4.thisIndex,trial_block_4.ran,questions_intro.started,questions_intro.stopped,enter_12.keys,enter_12.rt,enter_12.duration,question2.started,question2.stopped,question_doingbest.response,question_doingbest.rt,enter_15.keys,enter_15.rt,enter_15.duration,pattern.started,pattern.stopped,pattern_2.text,enter_17.keys,enter_17.rt,enter_17.duration,thankyou.started,thankyou.stopped,enter_14.keys,enter_14.rt,enter_14.duration
0,16.7983,return,16.7948,,V3_067,18,Female,2024-11-15_16h49.41.570,jersey_experiment_5_v3,2023.2.2,Win32,84.74576271,,,,,,,,,,,,,,,,,,,,,,,,,,,,,,,,,,,,,,,,,,,,,,,,,,,,,,,,,,,,,,,,,,,,,,,,,,,,,,
,,,,,V3_067,18,Female,2024-11-15_16h49.41.570,jersey_experiment_5_v3,2023.2.2,Win32,84.74576271,16.7984,30.4552,return,13.6478,,,,,,,,,,,,,,,,,,,,,,,,,,,,,,,,,,,,,,,,,,,,,,,,,,,,,,,,,,,,,,,,,,,,,,,,,,
,,,,,V3_067,18,Female,2024-11-15_16h49.41.570,jersey_experiment_5_v3,2023.2.2,Win32,84.74576271,,,,,,30.4553,40.1464,return,9.6552,,,,,,,,,,,,,,,,,,,,,,,,,,,,,,,,,,,,,,,,,,,,,,,,,,,,,,,,,,,,,,,,,,,,,
,,,,,V3_067,18,Female,2024-11-15_16h49.41.570,jersey_experiment_5_v3,2023.2.2,Win32,84.74576271,,,,,,,,,,,40.1464,72.1123,return,31.9554,,,,,,,,,,,,,,,,,,,,,,,,,,,,,,,,,,,,,,,,,,,,,,,,,,,,,,,,,,,,,,,,
,,,,,V3_067,18,Female,2024-11-15_16h49.41.570,jersey_experiment_5_v3,2023.2.2,Win32,84.74576271,,,,,,,,,,,,,,,,72.1146,73.6652,73.6652,106.2549,return,2.8279,,74.86979167,0,0,0,4,1,FBP-YG-71.png,0.45,1.2,5,0.75,,,,,,,,,,,,,,,,,,,,,,,,,,,,,,,,,,,,,,,,,,,,,
,,,,,V3_067,18,Female,2024-11-15_16h49.41.570,jersey_experiment_5_v3,2023.2.2,Win32,84.74576271,,,,,,,,,,,,,,,,106.2554,107.8077,107.8078,114.3077,return,1.309,,50.26041667,0,1,1,21,1,FBP-PT-18.png,0.37,1.2,22,0.75,,,,,,,,,,,,,,,,,,,,,,,,,,,,,,,,,,,,,,,,,,,,,
,,,,,V3_067,18,Female,2024-11-15_16h49.41.570,jersey_experiment_5_v3,2023.2.2,Win32,84.74576271,,,,,,,,,,,,,,,,114.3079,115.855,115.855,120.8348,return,1.1622,,62.36979167,0,2,2,2,1,FBP-YG-71.png,0.4,1.2,3,0.75,,,,,,,,,,,,,,,,,,,,,,,,,,,,,,,,,,,,,,,,,,,,,
,,,,,V3_067,18,Female,2024-11-15_16h49.41.570,jersey_experiment_5_v3,2023.2.2,Win32,84.74576271,,,,,,,,,,,,,,,,120.8349,122.3789,122.379,126.0113,return,0.9505,,62.109375,0,3,3,6,1,FBP-YG-81.png,0.37,1.2,7,0.75,,,,,,,,,,,,,,,,,,,,,,,,,,,,,,,,,,,,,,,,,,,,,
,,,,,V3_067,18,Female,2024-11-15_16h49.41.570,jersey_experiment_5_v3,2023.2.2,Win32,84.74576271,,,,,,,,,,,,,,,,126.0114,127.3055,127.3055,130.5765,return,0.9738,,50.13020833,0,4,4,30,1,FBP-OG-17.png,0.35,1.2,31,0.5,,,,,,,,,,,,,,,,,,,,,,,,,,,,,,,,,,,,,,,,,,,,,
,,,,,V3_067,18,Female,2024-11-15_16h49.41.570,jersey_experiment_5_v3,2023.2.2,Win32,84.74576271,,,,,,,,,,,,,,,,130.5767,132.1203,132.1204,136.307,return,0.9779,,87.63020833,0,5,5,54,1,FBP-RB-18.png,0.45,1.2,55,0.75,,,,,,,,,,,,,,,,,,,,,,,,,,,,,,,,,,,,,,,,,,,,,
,,,,,V3_067,18,Female,2024-11-15_16h49.41.570,jersey_experiment_5_v3,2023.2.2,Win32,84.74576271,,,,,,,,,,,,,,,,136.3072,137.8617,137.8617,142.1298,return,0.8327,,74.86979167,0,6,6,18,1,FBP-PT-17.png,0.43,1.2,19,0.75,,,,,,,,,,,,,,,,,,,,,,,,,,,,,,,,,,,,,,,,,,,,,
,,,,,V3_067,18,Female,2024-11-15_16h49.41.570,jersey_experiment_5_v3,2023.2.2,Win32,84.74576271,,,,,,,,,,,,,,,,142.13,143.4236,143.4236,146.6678,return,0.7482,,25,0,7,7,35,1,FBP-OG-18.png,0.35,1.2,36,0.5,,,,,,,,,,,,,,,,,,,,,,,,,,,,,,,,,,,,,,,,,,,,,
,,,,,V3_067,18,Female,2024-11-15_16h49.41.570,jersey_experiment_5_v3,2023.2.2,Win32,84.74576271,,,,,,,,,,,,,,,,146.668,148.2238,148.2239,154.4125,return,3.1153,,36.84895833,0,8,8,57,1,FBP-RB-19.png,0.4,1.2,58,0.75,,,,,,,,,,,,,,,,,,,,,,,,,,,,,,,,,,,,,,,,,,,,,
,,,,,V3_067,18,Female,2024-11-15_16h49.41.570,jersey_experiment_5_v3,2023.2.2,Win32,84.74576271,,,,,,,,,,,,,,,,154.4126,155.7211,155.7211,158.7657,return,0.7535,,62.890625,0,9,9,33,1,FBP-OG-17.png,0.43,1.2,34,0.5,,,,,,,,,,,,,,,,,,,,,,,,,,,,,,,,,,,,,,,,,,,,,
,,,,,V3_067,18,Female,2024-11-15_16h49.41.570,jersey_experiment_5_v3,2023.2.2,Win32,84.74576271,,,,,,,,,,,,,,,,158.7659,160.309,160.309,163.0481,return,0.7296,,62.890625,0,10,10,47,1,FBP-RB-17.png,0.4,1.2,48,0.75,,,,,,,,,,,,,,,,,,,,,,,,,,,,,,,,,,,,,,,,,,,,,
,,,,,V3_067,18,Female,2024-11-15_16h49.41.570,jersey_experiment_5_v3,2023.2.2,Win32,84.74576271,,,,,,,,,,,,,,,,163.0483,164.3567,164.3568,168.9064,return,0.9495,,62.5,0,11,11,32,1,FBP-OG-17.png,0.4,1.2,33,0.5,,,,,,,,,,,,,,,,,,,,,,,,,,,,,,,,,,,,,,,,,,,,,
,,,,,V3_067,18,Female,2024-11-15_16h49.41.570,jersey_experiment_5_v3,2023.2.2,Win32,84.74576271,,,,,,,,,,,,,,,,168.9066,170.4602,170.4602,173.4101,return,0.6225,,61.97916667,0,12,12,46,1,FBP-RB-17.png,0.37,1.2,47,0.75,,,,,,,,,,,,,,,,,,,,,,,,,,,,,,,,,,,,,,,,,,,,,
,,,,,V3_067,18,Female,2024-11-15_16h49.41.570,jersey_experiment_5_v3,2023.2.2,Win32,84.74576271,,,,,,,,,,,,,,,,173.4103,174.969,174.9691,177.628,return,0.8711,,86.97916667,0,13,13,59,1,FBP-RB-19.png,0.45,1.2,60,0.75,,,,,,,,,,,,,,,,,,,,,,,,,,,,,,,,,,,,,,,,,,,,,
,,,,,V3_067,18,Female,2024-11-15_16h49.41.570,jersey_experiment_5_v3,2023.2.2,Win32,84.74576271,,,,,,,,,,,,,,,,177.6282,179.1809,179.1809,186.9698,return,1.3094,,49.73958333,0,14,14,17,1,FBP-PT-17.png,0.4,1.2,18,0.75,,,,,,,,,,,,,,,,,,,,,,,,,,,,,,,,,,,,,,,,,,,,,
,,,,,V3_067,18,Female,2024-11-15_16h49.41.570,jersey_experiment_5_v3,2023.2.2,Win32,84.74576271,,,,,,,,,,,,,,,,186.97,188.5163,188.5163,191.8695,return,0.7313,,24.21875,0,15,15,5,1,FBP-YG-81.png,0.35,1.2,6,0.75,,,,,,,,,,,,,,,,,,,,,,,,,,,,,,,,,,,,,,,,,,,,,
,,,,,V3_067,18,Female,2024-11-15_16h49.41.570,jersey_experiment_5_v3,2023.2.2,Win32,84.74576271,,,,,,,,,,,,,,,,191.8697,193.1637,193.1637,196.7199,return,0.7618,,75.390625,0,16,16,34,1,FBP-OG-17.png,0.45,1.2,35,0.5,,,,,,,,,,,,,,,,,,,,,,,,,,,,,,,,,,,,,,,,,,,,,
,,,,,V3_067,18,Female,2024-11-15_16h49.41.570,jersey_experiment_5_v3,2023.2.2,Win32,84.74576271,,,,,,,,,,,,,,,,196.72,198.2641,198.2641,200.4053,return,0.7079,,49.86979167,0,17,17,27,1,FBP-PT-19.png,0.4,1.2,28,0.75,,,,,,,,,,,,,,,,,,,,,,,,,,,,,,,,,,,,,,,,,,,,,
,,,,,V3_067,18,Female,2024-11-15_16h49.41.570,jersey_experiment_5_v3,2023.2.2,Win32,84.74576271,,,,,,,,,,,,,,,,200.4056,201.9579,201.958,204.5791,return,0.621,,50,0,18,18,52,1,FBP-RB-18.png,0.4,1.2,53,0.75,,,,,,,,,,,,,,,,,,,,,,,,,,,,,,,,,,,,,,,,,,,,,
,,,,,V3_067,18,Female,2024-11-15_16h49.41.570,jersey_experiment_5_v3,2023.2.2,Win32,84.74576271,,,,,,,,,,,,,,,,204.5794,206.1321,206.1321,210.6178,return,0.6974,,25.52083333,0,19,19,25,1,FBP-PT-19.png,0.35,1.2,26,0.75,,,,,,,,,,,,,,,,,,,,,,,,,,,,,,,,,,,,,,,,,,,,,
,,,,,V3_067,18,Female,2024-11-15_16h49.41.570,jersey_experiment_5_v3,2023.2.2,Win32,84.74576271,,,,,,,,,,,,,,,,210.6179,212.1704,212.1704,214.5006,return,0.6509,,24.86979167,0,20,20,15,1,FBP-PT-17.png,0.35,1.2,16,0.75,,,,,,,,,,,,,,,,,,,,,,,,,,,,,,,,,,,,,,,,,,,,,
,,,,,V3_067,18,Female,2024-11-15_16h49.41.570,jersey_experiment_5_v3,2023.2.2,Win32,84.74576271,,,,,,,,,,,,,,,,214.5009,215.803,215.8031,218.2886,return,0.7063,,50,0,21,21,37,1,FBP-OG-18.png,0.4,1.2,38,0.5,,,,,,,,,,,,,,,,,,,,,,,,,,,,,,,,,,,,,,,,,,,,,
,,,,,V3_067,18,Female,2024-11-15_16h49.41.570,jersey_experiment_5_v3,2023.2.2,Win32,84.74576271,,,,,,,,,,,,,,,,218.2888,219.5882,219.5882,222.8148,return,0.6591,,75,0,22,22,44,1,FBP-OG-19.png,0.45,1.2,45,0.5,,,,,,,,,,,,,,,,,,,,,,,,,,,,,,,,,,,,,,,,,,,,,
,,,,,V3_067,18,Female,2024-11-15_16h49.41.570,jersey_experiment_5_v3,2023.2.2,Win32,84.74576271,,,,,,,,,,,,,,,,222.8149,224.109,224.1091,227.3562,return,0.6908,,88.28125,0,23,23,38,1,FBP-OG-18.png,0.43,1.2,39,0.5,,,,,,,,,,,,,,,,,,,,,,,,,,,,,,,,,,,,,,,,,,,,,
,,,,,V3_067,18,Female,2024-11-15_16h49.41.570,jersey_experiment_5_v3,2023.2.2,Win32,84.74576271,,,,,,,,,,,,,,,,227.3563,228.901,228.901,232.0121,return,0.6769,,88.02083333,0,24,24,8,1,FBP-YG-81.png,0.43,1.2,9,0.75,,,,,,,,,,,,,,,,,,,,,,,,,,,,,,,,,,,,,,,,,,,,,
,,,,,V3_067,18,Female,2024-11-15_16h49.41.570,jersey_experiment_5_v3,2023.2.2,Win32,84.74576271,,,,,,,,,,,,,,,,232.0123,233.5681,233.5681,235.8891,return,0.6353,,75.13020833,0,25,25,51,1,FBP-RB-18.png,0.37,1.2,52,0.75,,,,,,,,,,,,,,,,,,,,,,,,,,,,,,,,,,,,,,,,,,,,,
,,,,,V3_067,18,Female,2024-11-15_16h49.41.570,jersey_experiment_5_v3,2023.2.2,Win32,84.74576271,,,,,,,,,,,,,,,,235.8892,237.4359,237.436,239.466,return,0.674,,75,0,26,26,48,1,FBP-RB-17.png,0.43,1.2,49,0.75,,,,,,,,,,,,,,,,,,,,,,,,,,,,,,,,,,,,,,,,,,,,,
,,,,,V3_067,18,Female,2024-11-15_16h49.41.570,jersey_experiment_5_v3,2023.2.2,Win32,84.74576271,,,,,,,,,,,,,,,,239.4662,241.0125,241.0125,246.4778,return,0.7316,,25.52083333,0,27,27,0,1,FBP-YG-71.png,0.35,1.2,1,0.75,,,,,,,,,,,,,,,,,,,,,,,,,,,,,,,,,,,,,,,,,,,,,
,,,,,V3_067,18,Female,2024-11-15_16h49.41.570,jersey_experiment_5_v3,2023.2.2,Win32,84.74576271,,,,,,,,,,,,,,,,246.4779,248.0303,248.0303,250.5251,return,0.6271,,74.47916667,0,28,28,24,1,FBP-PT-18.png,0.45,1.2,25,0.75,,,,,,,,,,,,,,,,,,,,,,,,,,,,,,,,,,,,,,,,,,,,,
,,,,,V3_067,18,Female,2024-11-15_16h49.41.570,jersey_experiment_5_v3,2023.2.2,Win32,84.74576271,,,,,,,,,,,,,,,,250.5253,252.0776,252.0776,254.8867,return,0.7386,,25,0,29,29,11,1,FBP-YG-91.png,0.37,1.2,12,0.75,,,,,,,,,,,,,,,,,,,,,,,,,,,,,,,,,,,,,,,,,,,,,
,,,,,V3_067,18,Female,2024-11-15_16h49.41.570,jersey_experiment_5_v3,2023.2.2,Win32,84.74576271,,,,,,,,,,,,,,,,254.8869,256.4309,256.4309,258.4077,return,0.6506,,25,0,30,30,50,1,FBP-RB-18.png,0.35,1.2,51,0.75,,,,,,,,,,,,,,,,,,,,,,,,,,,,,,,,,,,,,,,,,,,,,
,,,,,V3_067,18,Female,2024-11-15_16h49.41.570,jersey_experiment_5_v3,2023.2.2,Win32,84.74576271,,,,,,,,,,,,,,,,258.4078,259.7102,259.7102,262.5343,return,0.6442,,87.5,0,31,31,39,1,FBP-OG-18.png,0.45,1.2,40,0.5,,,,,,,,,,,,,,,,,,,,,,,,,,,,,,,,,,,,,,,,,,,,,
,,,,,V3_067,18,Female,2024-11-15_16h49.41.570,jersey_experiment_5_v3,2023.2.2,Win32,84.74576271,,,,,,,,,,,,,,,,262.5344,264.0765,264.0765,265.8989,return,0.6592,,87.5,0,32,32,28,1,FBP-PT-19.png,0.43,1.2,29,0.75,,,,,,,,,,,,,,,,,,,,,,,,,,,,,,,,,,,,,,,,,,,,,
,,,,,V3_067,18,Female,2024-11-15_16h49.41.570,jersey_experiment_5_v3,2023.2.2,Win32,84.74576271,,,,,,,,,,,,,,,,265.8991,267.4429,267.4429,270.4877,return,0.6359,,75.13020833,0,33,33,14,1,FBP-YG-91.png,0.45,1.2,15,0.75,,,,,,,,,,,,,,,,,,,,,,,,,,,,,,,,,,,,,,,,,,,,,
,,,,,V3_067,18,Female,2024-11-15_16h49.41.570,jersey_experiment_5_v3,2023.2.2,Win32,84.74576271,,,,,,,,,,,,,,,,270.4879,272.0313,272.0313,273.8843,return,0.6181,,75.390625,0,34,34,23,1,FBP-PT-18.png,0.43,1.2,24,0.75,,,,,,,,,,,,,,,,,,,,,,,,,,,,,,,,,,,,,,,,,,,,,
,,,,,V3_067,18,Female,2024-11-15_16h49.41.570,jersey_experiment_5_v3,2023.2.2,Win32,84.74576271,,,,,,,,,,,,,,,,273.8844,275.4373,275.4374,278.0876,return,0.8003,,38.02083333,0,35,35,56,1,FBP-RB-19.png,0.37,1.2,57,0.75,,,,,,,,,,,,,,,,,,,,,,,,,,,,,,,,,,,,,,,,,,,,,
,,,,,V3_067,18,Female,2024-11-15_16h49.41.570,jersey_experiment_5_v3,2023.2.2,Win32,84.74576271,,,,,,,,,,,,,,,,278.0877,279.6322,279.6323,282.6523,return,1.0205,,62.890625,0,36,36,19,1,FBP-PT-17.png,0.45,1.2,20,0.75,,,,,,,,,,,,,,,,,,,,,,,,,,,,,,,,,,,,,,,,,,,,,
,,,,,V3_067,18,Female,2024-11-15_16h49.41.570,jersey_experiment_5_v3,2023.2.2,Win32,84.74576271,,,,,,,,,,,,,,,,282.6525,283.9611,283.9611,285.7969,return,0.5798,,63.02083333,0,37,37,43,1,FBP-OG-19.png,0.43,1.2,44,0.5,,,,,,,,,,,,,,,,,,,,,,,,,,,,,,,,,,,,,,,,,,,,,
,,,,,V3_067,18,Female,2024-11-15_16h49.41.570,jersey_experiment_5_v3,2023.2.2,Win32,84.74576271,,,,,,,,,,,,,,,,285.797,287.3435,287.3436,290.6998,return,0.6208,,62.890625,0,38,38,13,1,FBP-YG-91.png,0.43,1.2,14,0.75,,,,,,,,,,,,,,,,,,,,,,,,,,,,,,,,,,,,,,,,,,,,,
,,,,,V3_067,18,Female,2024-11-15_16h49.41.570,jersey_experiment_5_v3,2023.2.2,Win32,84.74576271,,,,,,,,,,,,,,,,290.7,292.2438,292.2438,295.1151,return,0.721,,37.5,0,39,39,12,1,FBP-YG-91.png,0.4,1.2,13,0.75,,,,,,,,,,,,,,,,,,,,,,,,,,,,,,,,,,,,,,,,,,,,,
,,,,,V3_067,18,Female,2024-11-15_16h49.41.570,jersey_experiment_5_v3,2023.2.2,Win32,84.74576271,,,,,,,,,,,,,,,,295.1152,296.6615,296.6616,299.6647,return,0.7296,,37.76041667,0,40,40,45,1,FBP-RB-17.png,0.35,1.2,46,0.75,,,,,,,,,,,,,,,,,,,,,,,,,,,,,,,,,,,,,,,,,,,,,
,,,,,V3_067,18,Female,2024-11-15_16h49.41.570,jersey_experiment_5_v3,2023.2.2,Win32,84.74576271,,,,,,,,,,,,,,,,299.6648,300.9676,300.9676,303.5003,return,0.7061,,13.28125,0,41,41,40,1,FBP-OG-19.png,0.35,1.2,41,0.5,,,,,,,,,,,,,,,,,,,,,,,,,,,,,,,,,,,,,,,,,,,,,
,,,,,V3_067,18,Female,2024-11-15_16h49.41.570,jersey_experiment_5_v3,2023.2.2,Win32,84.74576271,,,,,,,,,,,,,,,,303.5005,305.0528,305.0528,307.4537,return,0.6592,,87.23958333,0,42,42,9,1,FBP-YG-81.png,0.45,1.2,10,0.75,,,,,,,,,,,,,,,,,,,,,,,,,,,,,,,,,,,,,,,,,,,,,
,,,,,V3_067,18,Female,2024-11-15_16h49.41.570,jersey_experiment_5_v3,2023.2.2,Win32,84.74576271,,,,,,,,,,,,,,,,307.4539,309.0062,309.0063,314.1033,return,3.6855,,99.73958333,0,43,43,49,1,FBP-RB-17.png,0.45,1.2,50,0.75,,,,,,,,,,,,,,,,,,,,,,,,,,,,,,,,,,,,,,,,,,,,,
,,,,,V3_067,18,Female,2024-11-15_16h49.41.570,jersey_experiment_5_v3,2023.2.2,Win32,84.74576271,,,,,,,,,,,,,,,,314.1035,315.6505,315.6505,318.2541,return,0.8346,,76.04166667,0,44,44,58,1,FBP-RB-19.png,0.43,1.2,59,0.75,,,,,,,,,,,,,,,,,,,,,,,,,,,,,,,,,,,,,,,,,,,,,
,,,,,V3_067,18,Female,2024-11-15_16h49.41.570,jersey_experiment_5_v3,2023.2.2,Win32,84.74576271,,,,,,,,,,,,,,,,318.2542,319.5479,319.5479,322.198,return,0.6825,,24.609375,0,45,45,36,1,FBP-OG-18.png,0.37,1.2,37,0.5,,,,,,,,,,,,,,,,,,,,,,,,,,,,,,,,,,,,,,,,,,,,,
,,,,,V3_067,18,Female,2024-11-15_16h49.41.570,jersey_experiment_5_v3,2023.2.2,Win32,84.74576271,,,,,,,,,,,,,,,,322.1981,323.745,323.745,326.4807,return,1.1445,,74.34895833,0,46,46,53,1,FBP-RB-18.png,0.43,1.2,54,0.75,,,,,,,,,,,,,,,,,,,,,,,,,,,,,,,,,,,,,,,,,,,,,
,,,,,V3_067,18,Female,2024-11-15_16h49.41.570,jersey_experiment_5_v3,2023.2.2,Win32,84.74576271,,,,,,,,,,,,,,,,326.4808,328.0334,328.0334,330.7248,return,0.7533,,24.21875,0,47,47,20,1,FBP-PT-18.png,0.35,1.2,21,0.75,,,,,,,,,,,,,,,,,,,,,,,,,,,,,,,,,,,,,,,,,,,,,
,,,,,V3_067,18,Female,2024-11-15_16h49.41.570,jersey_experiment_5_v3,2023.2.2,Win32,84.74576271,,,,,,,,,,,,,,,,330.7249,332.2686,332.2686,336.0748,return,0.7842,,50,0,48,48,1,1,FBP-YG-71.png,0.37,1.2,2,0.75,,,,,,,,,,,,,,,,,,,,,,,,,,,,,,,,,,,,,,,,,,,,,
,,,,,V3_067,18,Female,2024-11-15_16h49.41.570,jersey_experiment_5_v3,2023.2.2,Win32,84.74576271,,,,,,,,,,,,,,,,336.075,337.3689,337.369,339.8219,return,0.7914,,50.91145833,0,49,49,31,1,FBP-OG-17.png,0.37,1.2,32,0.5,,,,,,,,,,,,,,,,,,,,,,,,,,,,,,,,,,,,,,,,,,,,,
,,,,,V3_067,18,Female,2024-11-15_16h49.41.570,jersey_experiment_5_v3,2023.2.2,Win32,84.74576271,,,,,,,,,,,,,,,,339.8221,341.3692,341.3692,344.0281,return,0.627,,25,0,50,50,26,1,FBP-PT-19.png,0.37,1.2,27,0.75,,,,,,,,,,,,,,,,,,,,,,,,,,,,,,,,,,,,,,,,,,,,,
,,,,,V3_067,18,Female,2024-11-15_16h49.41.570,jersey_experiment_5_v3,2023.2.2,Win32,84.74576271,,,,,,,,,,,,,,,,344.0284,345.5719,345.572,347.6901,return,0.7855,,50.390625,0,51,51,7,1,FBP-YG-81.png,0.4,1.2,8,0.75,,,,,,,,,,,,,,,,,,,,,,,,,,,,,,,,,,,,,,,,,,,,,
,,,,,V3_067,18,Female,2024-11-15_16h49.41.570,jersey_experiment_5_v3,2023.2.2,Win32,84.74576271,,,,,,,,,,,,,,,,347.6903,349.2431,349.2432,353.2579,return,1.7091,,50.13020833,0,52,52,16,1,FBP-PT-17.png,0.37,1.2,17,0.75,,,,,,,,,,,,,,,,,,,,,,,,,,,,,,,,,,,,,,,,,,,,,
,,,,,V3_067,18,Female,2024-11-15_16h49.41.570,jersey_experiment_5_v3,2023.2.2,Win32,84.74576271,,,,,,,,,,,,,,,,353.2579,354.5518,354.5518,357.4049,return,0.6288,,50.13020833,0,53,53,41,1,FBP-OG-19.png,0.37,1.2,42,0.5,,,,,,,,,,,,,,,,,,,,,,,,,,,,,,,,,,,,,,,,,,,,,
,,,,,V3_067,18,Female,2024-11-15_16h49.41.570,jersey_experiment_5_v3,2023.2.2,Win32,84.74576271,,,,,,,,,,,,,,,,357.4052,358.9518,358.9518,361.0086,return,0.6593,,50.390625,0,54,54,55,1,FBP-RB-19.png,0.35,1.2,56,0.75,,,,,,,,,,,,,,,,,,,,,,,,,,,,,,,,,,,,,,,,,,,,,
,,,,,V3_067,18,Female,2024-11-15_16h49.41.570,jersey_experiment_5_v3,2023.2.2,Win32,84.74576271,,,,,,,,,,,,,,,,361.0087,362.5582,362.5582,365.691,return,1.1534,,87.890625,0,55,55,3,1,FBP-YG-71.png,0.43,1.2,4,0.75,,,,,,,,,,,,,,,,,,,,,,,,,,,,,,,,,,,,,,,,,,,,,
,,,,,V3_067,18,Female,2024-11-15_16h49.41.570,jersey_experiment_5_v3,2023.2.2,Win32,84.74576271,,,,,,,,,,,,,,,,365.6911,367.2438,367.2438,374.6997,return,0.8652,,86.84895833,0,56,56,22,1,FBP-PT-18.png,0.4,1.2,23,0.75,,,,,,,,,,,,,,,,,,,,,,,,,,,,,,,,,,,,,,,,,,,,,
,,,,,V3_067,18,Female,2024-11-15_16h49.41.570,jersey_experiment_5_v3,2023.2.2,Win32,84.74576271,,,,,,,,,,,,,,,,374.6999,376.2559,376.2559,378.8293,return,0.7908,,87.109375,0,57,57,29,1,FBP-PT-19.png,0.45,1.2,30,0.75,,,,,,,,,,,,,,,,,,,,,,,,,,,,,,,,,,,,,,,,,,,,,
,,,,,V3_067,18,Female,2024-11-15_16h49.41.570,jersey_experiment_5_v3,2023.2.2,Win32,84.74576271,,,,,,,,,,,,,,,,378.8296,380.3878,380.3879,383.022,return,0.6338,,25.13020833,0,58,58,10,1,FBP-YG-91.png,0.35,1.2,11,0.75,,,,,,,,,,,,,,,,,,,,,,,,,,,,,,,,,,,,,,,,,,,,,
,,,,,V3_067,18,Female,2024-11-15_16h49.41.570,jersey_experiment_5_v3,2023.2.2,Win32,84.74576271,,,,,,,,,,,,,,,,383.0221,384.3176,384.3176,386.5708,return,0.7221,,25,0,59,59,42,1,FBP-OG-19.png,0.4,1.2,43,0.5,,,,,,,,,,,,,,,,,,,,,,,,,,,,,,,,,,,,,,,,,,,,,
,,,,,V3_067,18,Female,2024-11-15_16h49.41.570,jersey_experiment_5_v3,2023.2.2,Win32,84.74576271,,,,,,,,,,,,,,,,386.572,387.8648,387.8649,390.3889,return,0.768,,25,,,,,,FBP-OG-81.png,0.37,1.2,37,0.5,0,0,0,36,1,,,,,,,,,,,,,,,,,,,,,,,,,,,,,,,,,,,,,,,,
,,,,,V3_067,18,Female,2024-11-15_16h49.41.570,jersey_experiment_5_v3,2023.2.2,Win32,84.74576271,,,,,,,,,,,,,,,,390.3892,391.9357,391.9358,395.0713,return,0.7679,,75.13020833,,,,,,FBP-RB-71.png,0.45,1.2,50,0.75,0,1,1,49,1,,,,,,,,,,,,,,,,,,,,,,,,,,,,,,,,,,,,,,,,
,,,,,V3_067,18,Female,2024-11-15_16h49.41.570,jersey_experiment_5_v3,2023.2.2,Win32,84.74576271,,,,,,,,,,,,,,,,395.0715,396.3744,396.3745,398.9535,return,0.8384,,25.26041667,,,,,,FBP-OG-91.png,0.35,1.2,41,0.5,0,2,2,40,1,,,,,,,,,,,,,,,,,,,,,,,,,,,,,,,,,,,,,,,,
,,,,,V3_067,18,Female,2024-11-15_16h49.41.570,jersey_experiment_5_v3,2023.2.2,Win32,84.74576271,,,,,,,,,,,,,,,,398.9538,400.5066,400.5067,403.3541,return,0.6355,,74.47916667,,,,,,FBP-PT-81.png,0.4,1.2,23,0.75,0,3,3,22,1,,,,,,,,,,,,,,,,,,,,,,,,,,,,,,,,,,,,,,,,
,,,,,V3_067,18,Female,2024-11-15_16h49.41.570,jersey_experiment_5_v3,2023.2.2,Win32,84.74576271,,,,,,,,,,,,,,,,403.3543,404.9071,404.9072,406.9245,return,0.1351,,49.73958333,,,,,,FBP-PT-91.png,0.4,1.2,28,0.75,0,4,4,27,1,,,,,,,,,,,,,,,,,,,,,,,,,,,,,,,,,,,,,,,,
,,,,,V3_067,18,Female,2024-11-15_16h49.41.570,jersey_experiment_5_v3,2023.2.2,Win32,84.74576271,,,,,,,,,,,,,,,,406.9248,408.2186,408.2187,410.207,return,0.1578,,75.26041667,,,,,,FBP-OG-81.png,0.43,1.2,39,0.5,0,5,5,38,1,,,,,,,,,,,,,,,,,,,,,,,,,,,,,,,,,,,,,,,,
,,,,,V3_067,18,Female,2024-11-15_16h49.41.570,jersey_experiment_5_v3,2023.2.2,Win32,84.74576271,,,,,,,,,,,,,,,,410.2071,411.7542,411.7542,412.7895,return,0.1325,,75.13020833,,,,,,FBP-RB-91.png,0.4,1.2,58,0.75,0,6,6,57,1,,,,,,,,,,,,,,,,,,,,,,,,,,,,,,,,,,,,,,,,
,,,,,V3_067,18,Female,2024-11-15_16h49.41.570,jersey_experiment_5_v3,2023.2.2,Win32,84.74576271,,,,,,,,,,,,,,,,412.7896,414.3364,414.3366,415.4543,return,0.1571,,99.609375,,,,,,FBP-RB-71.png,0.43,1.2,49,0.75,0,7,7,48,1,,,,,,,,,,,,,,,,,,,,,,,,,,,,,,,,,,,,,,,,
,,,,,V3_067,18,Female,2024-11-15_16h49.41.570,jersey_experiment_5_v3,2023.2.2,Win32,84.74576271,,,,,,,,,,,,,,,,415.4545,417.0104,417.0104,418.2953,return,0.0852,,49.73958333,,,,,,FBP-PT-71.png,0.4,1.2,18,0.75,0,8,8,17,1,,,,,,,,,,,,,,,,,,,,,,,,,,,,,,,,,,,,,,,,
,,,,,V3_067,18,Female,2024-11-15_16h49.41.570,jersey_experiment_5_v3,2023.2.2,Win32,84.74576271,,,,,,,,,,,,,,,,418.2954,419.8426,419.8427,421.3073,return,0.1321,,63.28125,,,,,,FBP-YG-17.png,0.45,1.2,5,0.75,0,9,9,4,1,,,,,,,,,,,,,,,,,,,,,,,,,,,,,,,,,,,,,,,,
,,,,,V3_067,18,Female,2024-11-15_16h49.41.570,jersey_experiment_5_v3,2023.2.2,Win32,84.74576271,,,,,,,,,,,,,,,,421.3074,422.8608,422.8608,424.0607,return,0.1092,,75.78125,,,,,,FBP-PT-71.png,0.45,1.2,20,0.75,0,10,10,19,1,,,,,,,,,,,,,,,,,,,,,,,,,,,,,,,,,,,,,,,,
,,,,,V3_067,18,Female,2024-11-15_16h49.41.570,jersey_experiment_5_v3,2023.2.2,Win32,84.74576271,,,,,,,,,,,,,,,,424.0608,425.6137,425.6138,426.8365,return,0.1085,,49.08854167,,,,,,FBP-PT-81.png,0.37,1.2,22,0.75,0,11,11,21,1,,,,,,,,,,,,,,,,,,,,,,,,,,,,,,,,,,,,,,,,
,,,,,V3_067,18,Female,2024-11-15_16h49.41.570,jersey_experiment_5_v3,2023.2.2,Win32,84.74576271,,,,,,,,,,,,,,,,426.8367,428.3903,428.3903,429.5135,return,0.1502,,75.91145833,,,,,,FBP-PT-81.png,0.45,1.2,25,0.75,0,12,12,24,1,,,,,,,,,,,,,,,,,,,,,,,,,,,,,,,,,,,,,,,,
,,,,,V3_067,18,Female,2024-11-15_16h49.41.570,jersey_experiment_5_v3,2023.2.2,Win32,84.74576271,,,,,,,,,,,,,,,,429.5137,431.0578,431.0578,432.5551,return,0.1563,,36.45833333,,,,,,FBP-RB-91.png,0.35,1.2,56,0.75,0,13,13,55,1,,,,,,,,,,,,,,,,,,,,,,,,,,,,,,,,,,,,,,,,
,,,,,V3_067,18,Female,2024-11-15_16h49.41.570,jersey_experiment_5_v3,2023.2.2,Win32,84.74576271,,,,,,,,,,,,,,,,432.5552,433.8473,433.8473,435.623,return,0.1269,,75,,,,,,FBP-OG-71.png,0.45,1.2,35,0.5,0,14,14,34,1,,,,,,,,,,,,,,,,,,,,,,,,,,,,,,,,,,,,,,,,
,,,,,V3_067,18,Female,2024-11-15_16h49.41.570,jersey_experiment_5_v3,2023.2.2,Win32,84.74576271,,,,,,,,,,,,,,,,435.6231,437.1769,437.1769,443.482,return,0.1885,,74.08854167,,,,,,FBP-YG-17.png,0.43,1.2,4,0.75,0,15,15,3,1,,,,,,,,,,,,,,,,,,,,,,,,,,,,,,,,,,,,,,,,
,,,,,V3_067,18,Female,2024-11-15_16h49.41.570,jersey_experiment_5_v3,2023.2.2,Win32,84.74576271,,,,,,,,,,,,,,,,443.4823,444.7758,444.7758,447.0499,return,0.191,,75.52083333,,,,,,FBP-OG-91.png,0.43,1.2,44,0.5,0,16,16,43,1,,,,,,,,,,,,,,,,,,,,,,,,,,,,,,,,,,,,,,,,
,,,,,V3_067,18,Female,2024-11-15_16h49.41.570,jersey_experiment_5_v3,2023.2.2,Win32,84.74576271,,,,,,,,,,,,,,,,447.05,448.6009,448.6009,449.5424,return,0.1309,,24.609375,,,,,,FBP-RB-71.png,0.35,1.2,46,0.75,0,17,17,45,1,,,,,,,,,,,,,,,,,,,,,,,,,,,,,,,,,,,,,,,,
,,,,,V3_067,18,Female,2024-11-15_16h49.41.570,jersey_experiment_5_v3,2023.2.2,Win32,84.74576271,,,,,,,,,,,,,,,,449.5426,451.0975,451.0975,452.4147,return,0.0856,,75.390625,,,,,,FBP-PT-91.png,0.45,1.2,30,0.75,0,18,18,29,1,,,,,,,,,,,,,,,,,,,,,,,,,,,,,,,,,,,,,,,,
,,,,,V3_067,18,Female,2024-11-15_16h49.41.570,jersey_experiment_5_v3,2023.2.2,Win32,84.74576271,,,,,,,,,,,,,,,,452.4148,453.7083,453.7083,455.3647,return,0.0558,,24.21875,,,,,,FBP-OG-91.png,0.37,1.2,42,0.5,0,19,19,41,1,,,,,,,,,,,,,,,,,,,,,,,,,,,,,,,,,,,,,,,,
,,,,,V3_067,18,Female,2024-11-15_16h49.41.570,jersey_experiment_5_v3,2023.2.2,Win32,84.74576271,,,,,,,,,,,,,,,,455.3649,456.9087,456.9087,459.1295,return,0.0944,,37.36979167,,,,,,FBP-YG-19.png,0.35,1.2,11,0.75,0,20,20,10,1,,,,,,,,,,,,,,,,,,,,,,,,,,,,,,,,,,,,,,,,
,,,,,V3_067,18,Female,2024-11-15_16h49.41.570,jersey_experiment_5_v3,2023.2.2,Win32,84.74576271,,,,,,,,,,,,,,,,459.1296,460.6735,460.6735,462.9562,return,0.0474,,50.52083333,,,,,,FBP-PT-71.png,0.37,1.2,17,0.75,0,21,21,16,1,,,,,,,,,,,,,,,,,,,,,,,,,,,,,,,,,,,,,,,,
,,,,,V3_067,18,Female,2024-11-15_16h49.41.570,jersey_experiment_5_v3,2023.2.2,Win32,84.74576271,,,,,,,,,,,,,,,,462.9563,464.5088,464.5088,466.6251,return,0.0691,,37.63020833,,,,,,FBP-YG-17.png,0.35,1.2,1,0.75,0,22,22,0,1,,,,,,,,,,,,,,,,,,,,,,,,,,,,,,,,,,,,,,,,
,,,,,V3_067,18,Female,2024-11-15_16h49.41.570,jersey_experiment_5_v3,2023.2.2,Win32,84.74576271,,,,,,,,,,,,,,,,466.6253,467.921,467.9211,469.7886,return,0.1028,,89.0625,,,,,,FBP-OG-91.png,0.45,1.2,45,0.5,0,23,23,44,1,,,,,,,,,,,,,,,,,,,,,,,,,,,,,,,,,,,,,,,,
,,,,,V3_067,18,Female,2024-11-15_16h49.41.570,jersey_experiment_5_v3,2023.2.2,Win32,84.74576271,,,,,,,,,,,,,,,,469.7888,471.3419,471.3419,471.9504,return,0.0737,,88.93229167,,,,,,FBP-RB-91.png,0.45,1.2,60,0.75,0,24,24,59,1,,,,,,,,,,,,,,,,,,,,,,,,,,,,,,,,,,,,,,,,
,,,,,V3_067,18,Female,2024-11-15_16h49.41.570,jersey_experiment_5_v3,2023.2.2,Win32,84.74576271,,,,,,,,,,,,,,,,471.9507,473.4978,473.4978,474.6978,return,0.0622,,49.86979167,,,,,,FBP-RB-81.png,0.35,1.2,51,0.75,0,25,25,50,1,,,,,,,,,,,,,,,,,,,,,,,,,,,,,,,,,,,,,,,,
,,,,,V3_067,18,Female,2024-11-15_16h49.41.570,jersey_experiment_5_v3,2023.2.2,Win32,84.74576271,,,,,,,,,,,,,,,,474.698,476.2506,476.2506,477.0211,return,0.1466,,49.86979167,,,,,,FBP-RB-81.png,0.37,1.2,52,0.75,0,26,26,51,1,,,,,,,,,,,,,,,,,,,,,,,,,,,,,,,,,,,,,,,,
,,,,,V3_067,18,Female,2024-11-15_16h49.41.570,jersey_experiment_5_v3,2023.2.2,Win32,84.74576271,,,,,,,,,,,,,,,,477.0213,478.3153,478.3153,479.0981,return,0.0711,,49.86979167,,,,,,FBP-OG-71.png,0.4,1.2,33,0.5,0,27,27,32,1,,,,,,,,,,,,,,,,,,,,,,,,,,,,,,,,,,,,,,,,
,,,,,V3_067,18,Female,2024-11-15_16h49.41.570,jersey_experiment_5_v3,2023.2.2,Win32,84.74576271,,,,,,,,,,,,,,,,479.0983,480.4009,480.4009,481.8601,return,0.1183,,64.19270833,,,,,,FBP-OG-71.png,0.43,1.2,34,0.5,0,28,28,33,1,,,,,,,,,,,,,,,,,,,,,,,,,,,,,,,,,,,,,,,,
,,,,,V3_067,18,Female,2024-11-15_16h49.41.570,jersey_experiment_5_v3,2023.2.2,Win32,84.74576271,,,,,,,,,,,,,,,,481.8602,483.4037,483.4037,484.3775,return,0.0709,,50,,,,,,FBP-YG-17.png,0.37,1.2,2,0.75,0,29,29,1,1,,,,,,,,,,,,,,,,,,,,,,,,,,,,,,,,,,,,,,,,
,,,,,V3_067,18,Female,2024-11-15_16h49.41.570,jersey_experiment_5_v3,2023.2.2,Win32,84.74576271,,,,,,,,,,,,,,,,484.3775,485.9216,485.9217,487.4512,return,0.0385,,61.97916667,,,,,,FBP-RB-81.png,0.4,1.2,53,0.75,0,30,30,52,1,,,,,,,,,,,,,,,,,,,,,,,,,,,,,,,,,,,,,,,,
,,,,,V3_067,18,Female,2024-11-15_16h49.41.570,jersey_experiment_5_v3,2023.2.2,Win32,84.74576271,,,,,,,,,,,,,,,,487.4514,489.0042,489.0042,490.0163,return,0.0238,,49.47916667,,,,,,FBP-RB-71.png,0.37,1.2,47,0.75,0,31,31,46,1,,,,,,,,,,,,,,,,,,,,,,,,,,,,,,,,,,,,,,,,
,,,,,V3_067,18,Female,2024-11-15_16h49.41.570,jersey_experiment_5_v3,2023.2.2,Win32,84.74576271,,,,,,,,,,,,,,,,490.0165,491.5692,491.5692,492.8397,return,0.0473,,73.95833333,,,,,,FBP-RB-81.png,0.43,1.2,54,0.75,0,32,32,53,1,,,,,,,,,,,,,,,,,,,,,,,,,,,,,,,,,,,,,,,,
,,,,,V3_067,18,Female,2024-11-15_16h49.41.570,jersey_experiment_5_v3,2023.2.2,Win32,84.74576271,,,,,,,,,,,,,,,,492.8399,494.3927,494.3927,496.0013,return,0.0708,,24.86979167,,,,,,FBP-PT-71.png,0.35,1.2,16,0.75,0,33,33,15,1,,,,,,,,,,,,,,,,,,,,,,,,,,,,,,,,,,,,,,,,
,,,,,V3_067,18,Female,2024-11-15_16h49.41.570,jersey_experiment_5_v3,2023.2.2,Win32,84.74576271,,,,,,,,,,,,,,,,496.0014,497.3086,497.3086,498.401,return,0.0468,,38.02083333,,,,,,FBP-OG-91.png,0.4,1.2,43,0.5,0,34,34,42,1,,,,,,,,,,,,,,,,,,,,,,,,,,,,,,,,,,,,,,,,
,,,,,V3_067,18,Female,2024-11-15_16h49.41.570,jersey_experiment_5_v3,2023.2.2,Win32,84.74576271,,,,,,,,,,,,,,,,498.401,499.9455,499.9456,501.8338,return,0.1,,63.15104167,,,,,,FBP-PT-71.png,0.43,1.2,19,0.75,0,35,35,18,1,,,,,,,,,,,,,,,,,,,,,,,,,,,,,,,,,,,,,,,,
,,,,,V3_067,18,Female,2024-11-15_16h49.41.570,jersey_experiment_5_v3,2023.2.2,Win32,84.74576271,,,,,,,,,,,,,,,,501.8341,503.128,503.1281,505.0753,return,0.0386,,24.86979167,,,,,,FBP-OG-81.png,0.35,1.2,36,0.5,0,36,36,35,1,,,,,,,,,,,,,,,,,,,,,,,,,,,,,,,,,,,,,,,,
,,,,,V3_067,18,Female,2024-11-15_16h49.41.570,jersey_experiment_5_v3,2023.2.2,Win32,84.74576271,,,,,,,,,,,,,,,,505.0755,506.6284,506.6284,510.0876,return,0.0709,,62.5,,,,,,FBP-YG-17.png,0.4,1.2,3,0.75,0,37,37,2,1,,,,,,,,,,,,,,,,,,,,,,,,,,,,,,,,,,,,,,,,
,,,,,V3_067,18,Female,2024-11-15_16h49.41.570,jersey_experiment_5_v3,2023.2.2,Win32,84.74576271,,,,,,,,,,,,,,,,510.0877,511.6342,511.6342,513.5466,return,0.0626,,50.13020833,,,,,,FBP-YG-19.png,0.37,1.2,12,0.75,0,38,38,11,1,,,,,,,,,,,,,,,,,,,,,,,,,,,,,,,,,,,,,,,,
,,,,,V3_067,18,Female,2024-11-15_16h49.41.570,jersey_experiment_5_v3,2023.2.2,Win32,84.74576271,,,,,,,,,,,,,,,,513.5468,515.0994,515.0994,516.5564,return,0.0134,,86.19791667,,,,,,FBP-YG-19.png,0.45,1.2,15,0.75,0,39,39,14,1,,,,,,,,,,,,,,,,,,,,,,,,,,,,,,,,,,,,,,,,
,,,,,V3_067,18,Female,2024-11-15_16h49.41.570,jersey_experiment_5_v3,2023.2.2,Win32,84.74576271,,,,,,,,,,,,,,,,516.5567,517.8524,517.8524,519.5782,return,1.0671,,74.609375,,,,,,FBP-OG-81.png,0.45,1.2,40,0.5,0,40,40,39,1,,,,,,,,,,,,,,,,,,,,,,,,,,,,,,,,,,,,,,,,
,,,,,V3_067,18,Female,2024-11-15_16h49.41.570,jersey_experiment_5_v3,2023.2.2,Win32,84.74576271,,,,,,,,,,,,,,,,519.5784,521.1228,521.1228,521.9791,return,0.056,,86.71875,,,,,,FBP-RB-81.png,0.45,1.2,55,0.75,0,41,41,54,1,,,,,,,,,,,,,,,,,,,,,,,,,,,,,,,,,,,,,,,,
,,,,,V3_067,18,Female,2024-11-15_16h49.41.570,jersey_experiment_5_v3,2023.2.2,Win32,84.74576271,,,,,,,,,,,,,,,,521.9793,523.2728,523.2729,525.2582,return,0.0636,,25.52083333,,,,,,FBP-OG-71.png,0.35,1.2,31,0.5,0,42,42,30,1,,,,,,,,,,,,,,,,,,,,,,,,,,,,,,,,,,,,,,,,
,,,,,V3_067,18,Female,2024-11-15_16h49.41.570,jersey_experiment_5_v3,2023.2.2,Win32,84.74576271,,,,,,,,,,,,,,,,525.2585,526.8169,526.8169,527.4383,return,0.1503,,25.52083333,,,,,,FBP-PT-81.png,0.35,1.2,21,0.75,0,43,43,20,1,,,,,,,,,,,,,,,,,,,,,,,,,,,,,,,,,,,,,,,,
,,,,,V3_067,18,Female,2024-11-15_16h49.41.570,jersey_experiment_5_v3,2023.2.2,Win32,84.74576271,,,,,,,,,,,,,,,,527.4385,528.9907,528.9907,530.0028,return,0.4323,,25.52083333,,,,,,FBP-YG-19.png,0.4,1.2,13,0.75,0,44,44,12,1,,,,,,,,,,,,,,,,,,,,,,,,,,,,,,,,,,,,,,,,
,,,,,V3_067,18,Female,2024-11-15_16h49.41.570,jersey_experiment_5_v3,2023.2.2,Win32,84.74576271,,,,,,,,,,,,,,,,530.003,531.3114,531.3115,533.3824,return,1.4502,,50.91145833,,,,,,FBP-OG-81.png,0.4,1.2,38,0.5,0,45,45,37,1,,,,,,,,,,,,,,,,,,,,,,,,,,,,,,,,,,,,,,,,
,,,,,V3_067,18,Female,2024-11-15_16h49.41.570,jersey_experiment_5_v3,2023.2.2,Win32,84.74576271,,,,,,,,,,,,,,,,533.3825,534.9293,534.9293,535.556,return,0.1031,,50.91145833,,,,,,FBP-YG-18.png,0.43,1.2,9,0.75,0,46,46,8,1,,,,,,,,,,,,,,,,,,,,,,,,,,,,,,,,,,,,,,,,
,,,,,V3_067,18,Female,2024-11-15_16h49.41.570,jersey_experiment_5_v3,2023.2.2,Win32,84.74576271,,,,,,,,,,,,,,,,535.5562,537.1087,537.1087,538.3709,return,0.1565,,37.109375,,,,,,FBP-RB-91.png,0.37,1.2,57,0.75,0,47,47,56,1,,,,,,,,,,,,,,,,,,,,,,,,,,,,,,,,,,,,,,,,
,,,,,V3_067,18,Female,2024-11-15_16h49.41.570,jersey_experiment_5_v3,2023.2.2,Win32,84.74576271,,,,,,,,,,,,,,,,538.3711,539.9175,539.9176,540.5826,return,0.118,,37.109375,,,,,,FBP-YG-18.png,0.37,1.2,7,0.75,0,48,48,6,1,,,,,,,,,,,,,,,,,,,,,,,,,,,,,,,,,,,,,,,,
,,,,,V3_067,18,Female,2024-11-15_16h49.41.570,jersey_experiment_5_v3,2023.2.2,Win32,84.74576271,,,,,,,,,,,,,,,,540.5826,542.1349,542.1349,543.5237,return,0.0469,,62.63020833,,,,,,FBP-PT-81.png,0.43,1.2,24,0.75,0,49,49,23,1,,,,,,,,,,,,,,,,,,,,,,,,,,,,,,,,,,,,,,,,
,,,,,V3_067,18,Female,2024-11-15_16h49.41.570,jersey_experiment_5_v3,2023.2.2,Win32,84.74576271,,,,,,,,,,,,,,,,543.524,545.0751,545.0751,545.7361,return,0.1095,,62.63020833,,,,,,FBP-RB-71.png,0.4,1.2,48,0.75,0,50,50,47,1,,,,,,,,,,,,,,,,,,,,,,,,,,,,,,,,,,,,,,,,
,,,,,V3_067,18,Female,2024-11-15_16h49.41.570,jersey_experiment_5_v3,2023.2.2,Win32,84.74576271,,,,,,,,,,,,,,,,545.7364,547.289,547.289,549.8771,return,1.4736,,25.91145833,,,,,,FBP-PT-91.png,0.35,1.2,26,0.75,0,51,51,25,1,,,,,,,,,,,,,,,,,,,,,,,,,,,,,,,,,,,,,,,,
,,,,,V3_067,18,Female,2024-11-15_16h49.41.570,jersey_experiment_5_v3,2023.2.2,Win32,84.74576271,,,,,,,,,,,,,,,,549.8771,551.4239,551.4239,552.1597,return,0.1091,,25.91145833,,,,,,FBP-YG-18.png,0.35,1.2,6,0.75,0,52,52,5,1,,,,,,,,,,,,,,,,,,,,,,,,,,,,,,,,,,,,,,,,
,,,,,V3_067,18,Female,2024-11-15_16h49.41.570,jersey_experiment_5_v3,2023.2.2,Win32,84.74576271,,,,,,,,,,,,,,,,552.1598,553.7064,553.7064,555.642,return,0.1562,,62.63020833,,,,,,FBP-YG-19.png,0.43,1.2,14,0.75,0,53,53,13,1,,,,,,,,,,,,,,,,,,,,,,,,,,,,,,,,,,,,,,,,
,,,,,V3_067,18,Female,2024-11-15_16h49.41.570,jersey_experiment_5_v3,2023.2.2,Win32,84.74576271,,,,,,,,,,,,,,,,555.6421,557.1888,557.1888,560.7712,return,0.753,,75.390625,,,,,,FBP-YG-18.png,0.45,1.2,10,0.75,0,54,54,9,1,,,,,,,,,,,,,,,,,,,,,,,,,,,,,,,,,,,,,,,,
,,,,,V3_067,18,Female,2024-11-15_16h49.41.570,jersey_experiment_5_v3,2023.2.2,Win32,84.74576271,,,,,,,,,,,,,,,,560.7714,562.3185,562.3185,563.5185,return,0.0981,,75.26041667,,,,,,FBP-PT-91.png,0.43,1.2,29,0.75,0,55,55,28,1,,,,,,,,,,,,,,,,,,,,,,,,,,,,,,,,,,,,,,,,
,,,,,V3_067,18,Female,2024-11-15_16h49.41.570,jersey_experiment_5_v3,2023.2.2,Win32,84.74576271,,,,,,,,,,,,,,,,563.5188,565.0627,565.0627,566.7186,return,0.0597,,36.84895833,,,,,,FBP-PT-91.png,0.37,1.2,27,0.75,0,56,56,26,1,,,,,,,,,,,,,,,,,,,,,,,,,,,,,,,,,,,,,,,,
,,,,,V3_067,18,Female,2024-11-15_16h49.41.570,jersey_experiment_5_v3,2023.2.2,Win32,84.74576271,,,,,,,,,,,,,,,,566.7188,568.2747,568.2748,569.829,return,0.0924,,75.13020833,,,,,,FBP-RB-91.png,0.43,1.2,59,0.75,0,57,57,58,1,,,,,,,,,,,,,,,,,,,,,,,,,,,,,,,,,,,,,,,,
,,,,,V3_067,18,Female,2024-11-15_16h49.41.570,jersey_experiment_5_v3,2023.2.2,Win32,84.74576271,,,,,,,,,,,,,,,,569.8291,571.3776,571.3776,573.172,return,0.0857,,48.95833333,,,,,,FBP-YG-18.png,0.4,1.2,8,0.75,0,58,58,7,1,,,,,,,,,,,,,,,,,,,,,,,,,,,,,,,,,,,,,,,,
,,,,,V3_067,18,Female,2024-11-15_16h49.41.570,jersey_experiment_5_v3,2023.2.2,Win32,84.74576271,,,,,,,,,,,,,,,,573.1722,574.4747,574.4747,575.1485,return,0.1089,,49.08854167,,,,,,FBP-OG-71.png,0.37,1.2,32,0.5,0,59,59,31,1,,,,,,,,,,,,,,,,,,,,,,,,,,,,,,,,,,,,,,,,
,,,,,V3_067,18,Female,2024-11-15_16h49.41.570,jersey_experiment_5_v3,2023.2.2,Win32,84.74576271,,,,,,,,,,,,,,,,,,,,,,,,,,,,,,,,,,,,,,,575.1485,695.1526,,,,,,,,,,,,,,,,,,,,,,,,,,,,,,,,,,,,,,
,,,,,V3_067,18,Female,2024-11-15_16h49.41.570,jersey_experiment_5_v3,2023.2.2,Win32,84.74576271,,,,,,,,,,,,,,,,,,,,,,,,,,,,,,,,,,,,,,,,,695.1527,708.4714,return,13.3097,,,,,,,,,,,,,,,,,,,,,,,,,,,,,,,,,,
,,,,,V3_067,18,Female,2024-11-15_16h49.41.570,jersey_experiment_5_v3,2023.2.2,Win32,84.74576271,,,,,,,,,,,,,,,,708.4725,709.7739,709.774,721.6656,return,0.4339,,50,,,,,,FBP-RB-19.png,0.43,1.2,59,0.5,,,,,,,,,,,,,0,0,0,58,1,,,,,,,,,,,,,,,,,,,,,,,,,,,,
,,,,,V3_067,18,Female,2024-11-15_16h49.41.570,jersey_experiment_5_v3,2023.2.2,Win32,84.74576271,,,,,,,,,,,,,,,,721.6658,722.964,722.9641,726.0808,return,0.8948,,74.08854167,,,,,,FBP-RB-17.png,0.45,1.2,50,0.5,,,,,,,,,,,,,0,1,1,49,1,,,,,,,,,,,,,,,,,,,,,,,,,,,,
,,,,,V3_067,18,Female,2024-11-15_16h49.41.570,jersey_experiment_5_v3,2023.2.2,Win32,84.74576271,,,,,,,,,,,,,,,,726.081,727.3747,727.3747,729.1776,return,0.1882,,25.390625,,,,,,FBP-PT-18.png,0.4,1.2,23,0.5,,,,,,,,,,,,,0,2,2,22,1,,,,,,,,,,,,,,,,,,,,,,,,,,,,
,,,,,V3_067,18,Female,2024-11-15_16h49.41.570,jersey_experiment_5_v3,2023.2.2,Win32,84.74576271,,,,,,,,,,,,,,,,729.1777,730.4808,730.4808,731.5543,return,0.1411,,25.26041667,,,,,,FBP-YG-81.png,0.4,1.2,8,0.5,,,,,,,,,,,,,0,3,3,7,1,,,,,,,,,,,,,,,,,,,,,,,,,,,,
,,,,,V3_067,18,Female,2024-11-15_16h49.41.570,jersey_experiment_5_v3,2023.2.2,Win32,84.74576271,,,,,,,,,,,,,,,,731.5544,732.8574,732.8575,734.4778,return,0.3223,,74.86979167,,,,,,FBP-PT-17.png,0.45,1.2,20,0.5,,,,,,,,,,,,,0,4,4,19,1,,,,,,,,,,,,,,,,,,,,,,,,,,,,
,,,,,V3_067,18,Female,2024-11-15_16h49.41.570,jersey_experiment_5_v3,2023.2.2,Win32,84.74576271,,,,,,,,,,,,,,,,734.478,735.775,735.775,736.5281,return,0.1181,,74.86979167,,,,,,FBP-YG-71.png,0.43,1.2,4,0.5,,,,,,,,,,,,,0,5,5,3,1,,,,,,,,,,,,,,,,,,,,,,,,,,,,
,,,,,V3_067,18,Female,2024-11-15_16h49.41.570,jersey_experiment_5_v3,2023.2.2,Win32,84.74576271,,,,,,,,,,,,,,,,736.5284,737.8223,737.8223,739.1782,return,0.0387,,49.609375,,,,,,FBP-PT-19.png,0.4,1.2,28,0.5,,,,,,,,,,,,,0,6,6,27,1,,,,,,,,,,,,,,,,,,,,,,,,,,,,
,,,,,V3_067,18,Female,2024-11-15_16h49.41.570,jersey_experiment_5_v3,2023.2.2,Win32,84.74576271,,,,,,,,,,,,,,,,739.1784,740.4719,740.4719,741.7192,return,0.0724,,24.609375,,,,,,FBP-YG-91.png,0.37,1.2,12,0.5,,,,,,,,,,,,,0,7,7,11,1,,,,,,,,,,,,,,,,,,,,,,,,,,,,
,,,,,V3_067,18,Female,2024-11-15_16h49.41.570,jersey_experiment_5_v3,2023.2.2,Win32,84.74576271,,,,,,,,,,,,,,,,741.7194,743.0222,743.0222,744.4494,return,0.0716,,62.76041667,,,,,,FBP-YG-91.png,0.43,1.2,14,0.5,,,,,,,,,,,,,0,8,8,13,1,,,,,,,,,,,,,,,,,,,,,,,,,,,,
,,,,,V3_067,18,Female,2024-11-15_16h49.41.570,jersey_experiment_5_v3,2023.2.2,Win32,84.74576271,,,,,,,,,,,,,,,,744.4496,745.7519,745.752,747.1639,return,0.0946,,48.95833333,,,,,,FBP-PT-18.png,0.37,1.2,22,0.5,,,,,,,,,,,,,0,9,9,21,1,,,,,,,,,,,,,,,,,,,,,,,,,,,,
,,,,,V3_067,18,Female,2024-11-15_16h49.41.570,jersey_experiment_5_v3,2023.2.2,Win32,84.74576271,,,,,,,,,,,,,,,,747.164,748.4724,748.4724,749.6004,return,0.0602,,75,,,,,,FBP-RB-18.png,0.43,1.2,54,0.5,,,,,,,,,,,,,0,10,10,53,1,,,,,,,,,,,,,,,,,,,,,,,,,,,,
,,,,,V3_067,18,Female,2024-11-15_16h49.41.570,jersey_experiment_5_v3,2023.2.2,Win32,84.74576271,,,,,,,,,,,,,,,,749.6005,750.9049,750.9049,753.2785,return,0.6135,,49.609375,,,,,,FBP-RB-17.png,0.35,1.2,46,0.5,,,,,,,,,,,,,0,11,11,45,1,,,,,,,,,,,,,,,,,,,,,,,,,,,,
,,,,,V3_067,18,Female,2024-11-15_16h49.41.570,jersey_experiment_5_v3,2023.2.2,Win32,84.74576271,,,,,,,,,,,,,,,,753.2789,754.8256,754.8256,755.6734,return,0.0502,,75.13020833,,,,,,FBP-OG-18.png,0.45,1.2,40,0.75,,,,,,,,,,,,,0,12,12,39,1,,,,,,,,,,,,,,,,,,,,,,,,,,,,
,,,,,V3_067,18,Female,2024-11-15_16h49.41.570,jersey_experiment_5_v3,2023.2.2,Win32,84.74576271,,,,,,,,,,,,,,,,755.6736,756.9757,756.9758,758.2375,return,0.0473,,74.47916667,,,,,,FBP-YG-81.png,0.45,1.2,10,0.5,,,,,,,,,,,,,0,13,13,9,1,,,,,,,,,,,,,,,,,,,,,,,,,,,,
,,,,,V3_067,18,Female,2024-11-15_16h49.41.570,jersey_experiment_5_v3,2023.2.2,Win32,84.74576271,,,,,,,,,,,,,,,,758.2375,759.5301,759.5301,760.3173,return,0.1182,,74.609375,,,,,,FBP-YG-91.png,0.45,1.2,15,0.5,,,,,,,,,,,,,0,14,14,14,1,,,,,,,,,,,,,,,,,,,,,,,,,,,,
,,,,,V3_067,18,Female,2024-11-15_16h49.41.570,jersey_experiment_5_v3,2023.2.2,Win32,84.74576271,,,,,,,,,,,,,,,,760.3175,761.8616,761.8617,762.6671,return,0.053,,25,,,,,,FBP-OG-19.png,0.35,1.2,41,0.75,,,,,,,,,,,,,0,15,15,40,1,,,,,,,,,,,,,,,,,,,,,,,,,,,,
,,,,,V3_067,18,Female,2024-11-15_16h49.41.570,jersey_experiment_5_v3,2023.2.2,Win32,84.74576271,,,,,,,,,,,,,,,,762.6674,763.9613,763.9613,765.7054,return,0.1649,,62.36979167,,,,,,FBP-YG-81.png,0.43,1.2,9,0.5,,,,,,,,,,,,,0,16,16,8,1,,,,,,,,,,,,,,,,,,,,,,,,,,,,
,,,,,V3_067,18,Female,2024-11-15_16h49.41.570,jersey_experiment_5_v3,2023.2.2,Win32,84.74576271,,,,,,,,,,,,,,,,765.7055,767.25,767.25,768.379,return,0.1561,,74.21875,,,,,,FBP-OG-19.png,0.45,1.2,45,0.75,,,,,,,,,,,,,0,17,17,44,1,,,,,,,,,,,,,,,,,,,,,,,,,,,,
,,,,,V3_067,18,Female,2024-11-15_16h49.41.570,jersey_experiment_5_v3,2023.2.2,Win32,84.74576271,,,,,,,,,,,,,,,,768.3791,769.6731,769.6732,770.7556,return,0.0385,,25,,,,,,FBP-PT-18.png,0.35,1.2,21,0.5,,,,,,,,,,,,,0,18,18,20,1,,,,,,,,,,,,,,,,,,,,,,,,,,,,
,,,,,V3_067,18,Female,2024-11-15_16h49.41.570,jersey_experiment_5_v3,2023.2.2,Win32,84.74576271,,,,,,,,,,,,,,,,770.7558,772.3087,772.3087,773.9557,return,0.0619,,50.13020833,,,,,,FBP-OG-19.png,0.4,1.2,43,0.75,,,,,,,,,,,,,0,19,19,42,1,,,,,,,,,,,,,,,,,,,,,,,,,,,,
,,,,,V3_067,18,Female,2024-11-15_16h49.41.570,jersey_experiment_5_v3,2023.2.2,Win32,84.74576271,,,,,,,,,,,,,,,,773.9558,775.2584,775.2584,775.871,return,0.0712,,50.13020833,,,,,,FBP-RB-17.png,0.4,1.2,48,0.5,,,,,,,,,,,,,0,20,20,47,1,,,,,,,,,,,,,,,,,,,,,,,,,,,,
,,,,,V3_067,18,Female,2024-11-15_16h49.41.570,jersey_experiment_5_v3,2023.2.2,Win32,84.74576271,,,,,,,,,,,,,,,,775.8712,777.1778,777.1778,777.8706,return,0.0797,,50.13020833,,,,,,FBP-PT-17.png,0.37,1.2,17,0.5,,,,,,,,,,,,,0,21,21,16,1,,,,,,,,,,,,,,,,,,,,,,,,,,,,
,,,,,V3_067,18,Female,2024-11-15_16h49.41.570,jersey_experiment_5_v3,2023.2.2,Win32,84.74576271,,,,,,,,,,,,,,,,777.8708,779.1652,779.1652,779.7441,return,0.109,,50.13020833,,,,,,FBP-YG-71.png,0.4,1.2,3,0.5,,,,,,,,,,,,,0,22,22,2,1,,,,,,,,,,,,,,,,,,,,,,,,,,,,
,,,,,V3_067,18,Female,2024-11-15_16h49.41.570,jersey_experiment_5_v3,2023.2.2,Win32,84.74576271,,,,,,,,,,,,,,,,779.7443,781.0473,781.0473,782.1767,return,0.0557,,75,,,,,,FBP-PT-19.png,0.45,1.2,30,0.5,,,,,,,,,,,,,0,23,23,29,1,,,,,,,,,,,,,,,,,,,,,,,,,,,,
,,,,,V3_067,18,Female,2024-11-15_16h49.41.570,jersey_experiment_5_v3,2023.2.2,Win32,84.74576271,,,,,,,,,,,,,,,,782.1768,783.4796,783.4796,784.3032,return,0.1995,,74.73958333,,,,,,FBP-RB-19.png,0.45,1.2,60,0.5,,,,,,,,,,,,,0,24,24,59,1,,,,,,,,,,,,,,,,,,,,,,,,,,,,
,,,,,V3_067,18,Female,2024-11-15_16h49.41.570,jersey_experiment_5_v3,2023.2.2,Win32,84.74576271,,,,,,,,,,,,,,,,784.3034,785.5973,785.5973,786.2158,return,0.1094,,74.73958333,,,,,,FBP-PT-17.png,0.43,1.2,19,0.5,,,,,,,,,,,,,0,25,25,18,1,,,,,,,,,,,,,,,,,,,,,,,,,,,,
,,,,,V3_067,18,Female,2024-11-15_16h49.41.570,jersey_experiment_5_v3,2023.2.2,Win32,84.74576271,,,,,,,,,,,,,,,,786.216,787.5092,787.5093,789.0389,return,0.0711,,37.63020833,,,,,,FBP-YG-71.png,0.37,1.2,2,0.5,,,,,,,,,,,,,0,26,26,1,1,,,,,,,,,,,,,,,,,,,,,,,,,,,,
,,,,,V3_067,18,Female,2024-11-15_16h49.41.570,jersey_experiment_5_v3,2023.2.2,Win32,84.74576271,,,,,,,,,,,,,,,,789.0391,790.5914,790.5914,791.3449,return,0.2031,,37.63020833,,,,,,FBP-OG-18.png,0.35,1.2,36,0.75,,,,,,,,,,,,,0,27,27,35,1,,,,,,,,,,,,,,,,,,,,,,,,,,,,
,,,,,V3_067,18,Female,2024-11-15_16h49.41.570,jersey_experiment_5_v3,2023.2.2,Win32,84.74576271,,,,,,,,,,,,,,,,791.3451,792.6477,792.6477,793.1657,return,0.0948,,37.63020833,,,,,,FBP-YG-91.png,0.35,1.2,11,0.5,,,,,,,,,,,,,0,28,28,10,1,,,,,,,,,,,,,,,,,,,,,,,,,,,,
,,,,,V3_067,18,Female,2024-11-15_16h49.41.570,jersey_experiment_5_v3,2023.2.2,Win32,84.74576271,,,,,,,,,,,,,,,,793.1658,794.4741,794.4741,795.0245,return,0.1267,,37.63020833,,,,,,FBP-RB-17.png,0.37,1.2,47,0.5,,,,,,,,,,,,,0,29,29,46,1,,,,,,,,,,,,,,,,,,,,,,,,,,,,
,,,,,V3_067,18,Female,2024-11-15_16h49.41.570,jersey_experiment_5_v3,2023.2.2,Win32,84.74576271,,,,,,,,,,,,,,,,795.0247,796.3185,796.3186,797.9334,return,0.0004,,49.73958333,,,,,,FBP-YG-91.png,0.4,1.2,13,0.5,,,,,,,,,,,,,0,30,30,12,1,,,,,,,,,,,,,,,,,,,,,,,,,,,,
,,,,,V3_067,18,Female,2024-11-15_16h49.41.570,jersey_experiment_5_v3,2023.2.2,Win32,84.74576271,,,,,,,,,,,,,,,,797.9335,799.487,799.4871,801.2597,return,0.165,,73.56770833,,,,,,FBP-OG-17.png,0.45,1.2,35,0.75,,,,,,,,,,,,,0,31,31,34,1,,,,,,,,,,,,,,,,,,,,,,,,,,,,
,,,,,V3_067,18,Female,2024-11-15_16h49.41.570,jersey_experiment_5_v3,2023.2.2,Win32,84.74576271,,,,,,,,,,,,,,,,801.2599,802.8127,802.8127,805.2598,return,0.6915,,49.609375,,,,,,FBP-OG-17.png,0.35,1.2,31,0.75,,,,,,,,,,,,,0,32,32,30,1,,,,,,,,,,,,,,,,,,,,,,,,,,,,
,,,,,V3_067,18,Female,2024-11-15_16h49.41.570,jersey_experiment_5_v3,2023.2.2,Win32,84.74576271,,,,,,,,,,,,,,,,805.26,806.5689,806.5689,808.107,return,0.1178,,49.73958333,,,,,,FBP-RB-18.png,0.35,1.2,51,0.5,,,,,,,,,,,,,0,33,33,50,1,,,,,,,,,,,,,,,,,,,,,,,,,,,,
,,,,,V3_067,18,Female,2024-11-15_16h49.41.570,jersey_experiment_5_v3,2023.2.2,Win32,84.74576271,,,,,,,,,,,,,,,,808.1071,809.4011,809.4011,810.1454,return,0.1092,,49.86979167,,,,,,FBP-PT-19.png,0.35,1.2,26,0.5,,,,,,,,,,,,,0,34,34,25,1,,,,,,,,,,,,,,,,,,,,,,,,,,,,
,,,,,V3_067,18,Female,2024-11-15_16h49.41.570,jersey_experiment_5_v3,2023.2.2,Win32,84.74576271,,,,,,,,,,,,,,,,810.1456,811.4394,811.4394,812.0513,return,0.1325,,49.86979167,,,,,,FBP-RB-18.png,0.37,1.2,52,0.5,,,,,,,,,,,,,0,35,35,51,1,,,,,,,,,,,,,,,,,,,,,,,,,,,,
,,,,,V3_067,18,Female,2024-11-15_16h49.41.570,jersey_experiment_5_v3,2023.2.2,Win32,84.74576271,,,,,,,,,,,,,,,,812.0514,813.3453,813.3454,813.9159,return,0.1359,,49.86979167,,,,,,FBP-YG-71.png,0.35,1.2,1,0.5,,,,,,,,,,,,,0,36,36,0,1,,,,,,,,,,,,,,,,,,,,,,,,,,,,
,,,,,V3_067,18,Female,2024-11-15_16h49.41.570,jersey_experiment_5_v3,2023.2.2,Win32,84.74576271,,,,,,,,,,,,,,,,813.916,815.4614,815.4615,816.8133,return,0.2826,,75,,,,,,FBP-OG-17.png,0.43,1.2,34,0.75,,,,,,,,,,,,,0,37,37,33,1,,,,,,,,,,,,,,,,,,,,,,,,,,,,
,,,,,V3_067,18,Female,2024-11-15_16h49.41.570,jersey_experiment_5_v3,2023.2.2,Win32,84.74576271,,,,,,,,,,,,,,,,816.8134,818.3576,818.3576,819.4337,return,0.5817,,74.73958333,,,,,,FBP-OG-18.png,0.43,1.2,39,0.75,,,,,,,,,,,,,0,38,38,38,1,,,,,,,,,,,,,,,,,,,,,,,,,,,,
,,,,,V3_067,18,Female,2024-11-15_16h49.41.570,jersey_experiment_5_v3,2023.2.2,Win32,84.74576271,,,,,,,,,,,,,,,,819.434,820.7279,820.728,821.6276,return,0.1172,,74.73958333,,,,,,FBP-PT-19.png,0.43,1.2,29,0.5,,,,,,,,,,,,,0,39,39,28,1,,,,,,,,,,,,,,,,,,,,,,,,,,,,
,,,,,V3_067,18,Female,2024-11-15_16h49.41.570,jersey_experiment_5_v3,2023.2.2,Win32,84.74576271,,,,,,,,,,,,,,,,821.6277,823.181,823.181,824.4135,return,0.2679,,62.5,,,,,,FBP-OG-18.png,0.37,1.2,37,0.75,,,,,,,,,,,,,0,40,40,36,1,,,,,,,,,,,,,,,,,,,,,,,,,,,,
,,,,,V3_067,18,Female,2024-11-15_16h49.41.570,jersey_experiment_5_v3,2023.2.2,Win32,84.74576271,,,,,,,,,,,,,,,,824.4136,825.7225,825.7225,826.9461,return,0.1327,,75.390625,,,,,,FBP-RB-17.png,0.43,1.2,49,0.5,,,,,,,,,,,,,0,41,41,48,1,,,,,,,,,,,,,,,,,,,,,,,,,,,,
,,,,,V3_067,18,Female,2024-11-15_16h49.41.570,jersey_experiment_5_v3,2023.2.2,Win32,84.74576271,,,,,,,,,,,,,,,,826.9462,828.2394,828.2394,829.0727,return,0.2354,,75.390625,,,,,,FBP-PT-17.png,0.4,1.2,18,0.5,,,,,,,,,,,,,0,42,42,17,1,,,,,,,,,,,,,,,,,,,,,,,,,,,,
,,,,,V3_067,18,Female,2024-11-15_16h49.41.570,jersey_experiment_5_v3,2023.2.2,Win32,84.74576271,,,,,,,,,,,,,,,,829.0728,830.6255,830.6255,831.6611,return,0.1505,,75.390625,,,,,,FBP-OG-17.png,0.37,1.2,32,0.75,,,,,,,,,,,,,0,43,43,31,1,,,,,,,,,,,,,,,,,,,,,,,,,,,,
,,,,,V3_067,18,Female,2024-11-15_16h49.41.570,jersey_experiment_5_v3,2023.2.2,Win32,84.74576271,,,,,,,,,,,,,,,,831.6612,832.9698,832.9698,833.9817,return,0.1561,,75.26041667,,,,,,FBP-PT-19.png,0.37,1.2,27,0.5,,,,,,,,,,,,,0,44,44,26,1,,,,,,,,,,,,,,,,,,,,,,,,,,,,
,,,,,V3_067,18,Female,2024-11-15_16h49.41.570,jersey_experiment_5_v3,2023.2.2,Win32,84.74576271,,,,,,,,,,,,,,,,833.9819,835.2846,835.2847,836.5081,return,0.0474,,49.34895833,,,,,,FBP-RB-19.png,0.4,1.2,58,0.5,,,,,,,,,,,,,0,45,45,57,1,,,,,,,,,,,,,,,,,,,,,,,,,,,,
,,,,,V3_067,18,Female,2024-11-15_16h49.41.570,jersey_experiment_5_v3,2023.2.2,Win32,84.74576271,,,,,,,,,,,,,,,,836.5082,837.8025,837.8025,840.767,return,0.5264,,49.21875,,,,,,FBP-PT-17.png,0.35,1.2,16,0.5,,,,,,,,,,,,,0,46,46,15,1,,,,,,,,,,,,,,,,,,,,,,,,,,,,
,,,,,V3_067,18,Female,2024-11-15_16h49.41.570,jersey_experiment_5_v3,2023.2.2,Win32,84.74576271,,,,,,,,,,,,,,,,840.7671,842.0606,842.0607,844.3054,return,0.2457,,88.671875,,,,,,FBP-YG-71.png,0.45,1.2,5,0.5,,,,,,,,,,,,,0,47,47,4,1,,,,,,,,,,,,,,,,,,,,,,,,,,,,
,,,,,V3_067,18,Female,2024-11-15_16h49.41.570,jersey_experiment_5_v3,2023.2.2,Win32,84.74576271,,,,,,,,,,,,,,,,844.3056,845.6056,845.6056,847.3555,return,0.0708,,63.80208333,,,,,,FBP-YG-81.png,0.37,1.2,7,0.5,,,,,,,,,,,,,0,48,48,6,1,,,,,,,,,,,,,,,,,,,,,,,,,,,,
,,,,,V3_067,18,Female,2024-11-15_16h49.41.570,jersey_experiment_5_v3,2023.2.2,Win32,84.74576271,,,,,,,,,,,,,,,,847.3557,848.6498,848.6498,849.8413,return,0.086,,88.02083333,,,,,,FBP-PT-18.png,0.45,1.2,25,0.5,,,,,,,,,,,,,0,49,49,24,1,,,,,,,,,,,,,,,,,,,,,,,,,,,,
,,,,,V3_067,18,Female,2024-11-15_16h49.41.570,jersey_experiment_5_v3,2023.2.2,Win32,84.74576271,,,,,,,,,,,,,,,,849.8414,851.1336,851.1337,854.6267,return,0.0475,,62.890625,,,,,,FBP-PT-18.png,0.43,1.2,24,0.5,,,,,,,,,,,,,0,50,50,23,1,,,,,,,,,,,,,,,,,,,,,,,,,,,,
,,,,,V3_067,18,Female,2024-11-15_16h49.41.570,jersey_experiment_5_v3,2023.2.2,Win32,84.74576271,,,,,,,,,,,,,,,,854.6267,855.9204,855.9205,857.3236,return,0.1413,,38.28125,,,,,,FBP-YG-81.png,0.35,1.2,6,0.5,,,,,,,,,,,,,0,51,51,5,1,,,,,,,,,,,,,,,,,,,,,,,,,,,,
,,,,,V3_067,18,Female,2024-11-15_16h49.41.570,jersey_experiment_5_v3,2023.2.2,Win32,84.74576271,,,,,,,,,,,,,,,,857.3238,858.8765,858.8766,861.0885,return,0.1091,,65.234375,,,,,,FBP-OG-19.png,0.43,1.2,44,0.75,,,,,,,,,,,,,0,52,52,43,1,,,,,,,,,,,,,,,,,,,,,,,,,,,,
,,,,,V3_067,18,Female,2024-11-15_16h49.41.570,jersey_experiment_5_v3,2023.2.2,Win32,84.74576271,,,,,,,,,,,,,,,,861.0886,862.6353,862.6353,863.2621,return,0.1411,,65.234375,,,,,,FBP-OG-18.png,0.4,1.2,38,0.75,,,,,,,,,,,,,0,53,53,37,1,,,,,,,,,,,,,,,,,,,,,,,,,,,,
,,,,,V3_067,18,Female,2024-11-15_16h49.41.570,jersey_experiment_5_v3,2023.2.2,Win32,84.74576271,,,,,,,,,,,,,,,,863.2624,864.8062,864.8063,865.7241,return,0.0859,,65.234375,,,,,,FBP-OG-19.png,0.37,1.2,42,0.75,,,,,,,,,,,,,0,54,54,41,1,,,,,,,,,,,,,,,,,,,,,,,,,,,,
,,,,,V3_067,18,Female,2024-11-15_16h49.41.570,jersey_experiment_5_v3,2023.2.2,Win32,84.74576271,,,,,,,,,,,,,,,,865.7244,867.2769,867.2769,867.827,return,0.0941,,65.234375,,,,,,FBP-OG-17.png,0.4,1.2,33,0.75,,,,,,,,,,,,,0,55,55,32,1,,,,,,,,,,,,,,,,,,,,,,,,,,,,
,,,,,V3_067,18,Female,2024-11-15_16h49.41.570,jersey_experiment_5_v3,2023.2.2,Win32,84.74576271,,,,,,,,,,,,,,,,867.8271,869.1359,869.1359,870.3832,return,0.0623,,62.890625,,,,,,FBP-RB-19.png,0.37,1.2,57,0.5,,,,,,,,,,,,,0,56,56,56,1,,,,,,,,,,,,,,,,,,,,,,,,,,,,
,,,,,V3_067,18,Female,2024-11-15_16h49.41.570,jersey_experiment_5_v3,2023.2.2,Win32,84.74576271,,,,,,,,,,,,,,,,870.3833,871.6769,871.6769,872.9418,return,0.0521,,75,,,,,,FBP-RB-18.png,0.4,1.2,53,0.5,,,,,,,,,,,,,0,57,57,52,1,,,,,,,,,,,,,,,,,,,,,,,,,,,,
,,,,,V3_067,18,Female,2024-11-15_16h49.41.570,jersey_experiment_5_v3,2023.2.2,Win32,84.74576271,,,,,,,,,,,,,,,,872.942,874.2359,874.236,875.1362,return,0.0618,,61.97916667,,,,,,FBP-RB-19.png,0.35,1.2,56,0.5,,,,,,,,,,,,,0,58,58,55,1,,,,,,,,,,,,,,,,,,,,,,,,,,,,
,,,,,V3_067,18,Female,2024-11-15_16h49.41.570,jersey_experiment_5_v3,2023.2.2,Win32,84.74576271,,,,,,,,,,,,,,,,875.1364,876.4299,876.4299,878.0066,return,0.0705,,87.36979167,,,,,,FBP-RB-18.png,0.45,1.2,55,0.5,,,,,,,,,,,,,0,59,59,54,1,,,,,,,,,,,,,,,,,,,,,,,,,,,,
,,,,,V3_067,18,Female,2024-11-15_16h49.41.570,jersey_experiment_5_v3,2023.2.2,Win32,84.74576271,,,,,,,,,,,,,,,,878.0077,879.5595,879.5596,881.8656,return,0.8855,,75.26041667,,,,,,FBP-OG-81.png,0.43,1.2,39,0.75,,,,,,,,,,,,,,,,,,0,0,0,38,1,,,,,,,,,,,,,,,,,,,,,,,
,,,,,V3_067,18,Female,2024-11-15_16h49.41.570,jersey_experiment_5_v3,2023.2.2,Win32,84.74576271,,,,,,,,,,,,,,,,881.8657,883.1688,883.1688,884.3836,return,0.18,,87.63020833,,,,,,FBP-RB-81.png,0.43,1.2,54,0.5,,,,,,,,,,,,,,,,,,0,1,1,53,1,,,,,,,,,,,,,,,,,,,,,,,
,,,,,V3_067,18,Female,2024-11-15_16h49.41.570,jersey_experiment_5_v3,2023.2.2,Win32,84.74576271,,,,,,,,,,,,,,,,884.3838,885.6777,885.6777,886.4128,return,0.1457,,87.63020833,,,,,,FBP-YG-17.png,0.45,1.2,5,0.5,,,,,,,,,,,,,,,,,,0,2,2,4,1,,,,,,,,,,,,,,,,,,,,,,,
,,,,,V3_067,18,Female,2024-11-15_16h49.41.570,jersey_experiment_5_v3,2023.2.2,Win32,84.74576271,,,,,,,,,,,,,,,,886.4132,887.9603,887.9603,889.4188,return,0.1087,,38.28125,,,,,,FBP-OG-71.png,0.35,1.2,31,0.75,,,,,,,,,,,,,,,,,,0,3,3,30,1,,,,,,,,,,,,,,,,,,,,,,,
,,,,,V3_067,18,Female,2024-11-15_16h49.41.570,jersey_experiment_5_v3,2023.2.2,Win32,84.74576271,,,,,,,,,,,,,,,,889.419,890.7128,890.7128,891.9661,return,0.0633,,87.109375,,,,,,FBP-RB-91.png,0.45,1.2,60,0.5,,,,,,,,,,,,,,,,,,0,4,4,59,1,,,,,,,,,,,,,,,,,,,,,,,
,,,,,V3_067,18,Female,2024-11-15_16h49.41.570,jersey_experiment_5_v3,2023.2.2,Win32,84.74576271,,,,,,,,,,,,,,,,891.9663,893.26,893.26,894.9956,return,0.0386,,63.15104167,,,,,,FBP-YG-17.png,0.4,1.2,3,0.5,,,,,,,,,,,,,,,,,,0,5,5,2,1,,,,,,,,,,,,,,,,,,,,,,,
,,,,,V3_067,18,Female,2024-11-15_16h49.41.570,jersey_experiment_5_v3,2023.2.2,Win32,84.74576271,,,,,,,,,,,,,,,,894.9957,896.2901,896.2901,898.8957,return,1.0852,,24.34895833,,,,,,FBP-PT-91.png,0.35,1.2,26,0.5,,,,,,,,,,,,,,,,,,0,6,6,25,1,,,,,,,,,,,,,,,,,,,,,,,
,,,,,V3_067,18,Female,2024-11-15_16h49.41.570,jersey_experiment_5_v3,2023.2.2,Win32,84.74576271,,,,,,,,,,,,,,,,898.8959,900.4398,900.4398,902.1253,return,0.1413,,86.45833333,,,,,,FBP-OG-91.png,0.43,1.2,44,0.75,,,,,,,,,,,,,,,,,,0,7,7,43,1,,,,,,,,,,,,,,,,,,,,,,,
,,,,,V3_067,18,Female,2024-11-15_16h49.41.570,jersey_experiment_5_v3,2023.2.2,Win32,84.74576271,,,,,,,,,,,,,,,,902.1254,903.6783,903.6783,904.6669,return,0.1794,,86.45833333,,,,,,FBP-OG-81.png,0.45,1.2,40,0.75,,,,,,,,,,,,,,,,,,0,8,8,39,1,,,,,,,,,,,,,,,,,,,,,,,
,,,,,V3_067,18,Female,2024-11-15_16h49.41.570,jersey_experiment_5_v3,2023.2.2,Win32,84.74576271,,,,,,,,,,,,,,,,904.6671,905.969,905.969,907.2959,return,0.1197,,50.52083333,,,,,,FBP-YG-18.png,0.37,1.2,7,0.5,,,,,,,,,,,,,,,,,,0,9,9,6,1,,,,,,,,,,,,,,,,,,,,,,,
,,,,,V3_067,18,Female,2024-11-15_16h49.41.570,jersey_experiment_5_v3,2023.2.2,Win32,84.74576271,,,,,,,,,,,,,,,,907.2962,908.5959,908.5959,909.5141,return,0.1652,,50.52083333,,,,,,FBP-RB-81.png,0.37,1.2,52,0.5,,,,,,,,,,,,,,,,,,0,10,10,51,1,,,,,,,,,,,,,,,,,,,,,,,
,,,,,V3_067,18,Female,2024-11-15_16h49.41.570,jersey_experiment_5_v3,2023.2.2,Win32,84.74576271,,,,,,,,,,,,,,,,909.5143,911.0666,911.0666,911.82,return,0.0859,,50.52083333,,,,,,FBP-OG-81.png,0.4,1.2,38,0.75,,,,,,,,,,,,,,,,,,0,11,11,37,1,,,,,,,,,,,,,,,,,,,,,,,
,,,,,V3_067,18,Female,2024-11-15_16h49.41.570,jersey_experiment_5_v3,2023.2.2,Win32,84.74576271,,,,,,,,,,,,,,,,911.8201,913.1142,913.1142,914.5347,return,0.0944,,37.63020833,,,,,,FBP-PT-71.png,0.35,1.2,16,0.5,,,,,,,,,,,,,,,,,,0,12,12,15,1,,,,,,,,,,,,,,,,,,,,,,,
,,,,,V3_067,18,Female,2024-11-15_16h49.41.570,jersey_experiment_5_v3,2023.2.2,Win32,84.74576271,,,,,,,,,,,,,,,,914.5348,916.0874,916.0875,916.7615,return,0.0389,,37.63020833,,,,,,FBP-OG-91.png,0.35,1.2,41,0.75,,,,,,,,,,,,,,,,,,0,13,13,40,1,,,,,,,,,,,,,,,,,,,,,,,
,,,,,V3_067,18,Female,2024-11-15_16h49.41.570,jersey_experiment_5_v3,2023.2.2,Win32,84.74576271,,,,,,,,,,,,,,,,916.7616,918.0554,918.0554,920.5111,return,1.162,,87.5,,,,,,FBP-PT-71.png,0.45,1.2,20,0.5,,,,,,,,,,,,,,,,,,0,14,14,19,1,,,,,,,,,,,,,,,,,,,,,,,
,,,,,V3_067,18,Female,2024-11-15_16h49.41.570,jersey_experiment_5_v3,2023.2.2,Win32,84.74576271,,,,,,,,,,,,,,,,920.5113,921.8054,921.8054,923.5935,return,0.0707,,63.80208333,,,,,,FBP-RB-71.png,0.37,1.2,47,0.5,,,,,,,,,,,,,,,,,,0,15,15,46,1,,,,,,,,,,,,,,,,,,,,,,,
,,,,,V3_067,18,Female,2024-11-15_16h49.41.570,jersey_experiment_5_v3,2023.2.2,Win32,84.74576271,,,,,,,,,,,,,,,,923.5937,924.8879,924.8879,926.0558,return,0.1442,,88.28125,,,,,,FBP-YG-19.png,0.45,1.2,15,0.5,,,,,,,,,,,,,,,,,,0,16,16,14,1,,,,,,,,,,,,,,,,,,,,,,,
,,,,,V3_067,18,Female,2024-11-15_16h49.41.570,jersey_experiment_5_v3,2023.2.2,Win32,84.74576271,,,,,,,,,,,,,,,,926.056,927.6025,927.6025,928.785,return,0.1325,,75.52083333,,,,,,FBP-OG-71.png,0.4,1.2,33,0.75,,,,,,,,,,,,,,,,,,0,17,17,32,1,,,,,,,,,,,,,,,,,,,,,,,
,,,,,V3_067,18,Female,2024-11-15_16h49.41.570,jersey_experiment_5_v3,2023.2.2,Win32,84.74576271,,,,,,,,,,,,,,,,928.7851,930.3381,930.3381,931.0204,return,0.0943,,75.52083333,,,,,,FBP-OG-91.png,0.4,1.2,43,0.75,,,,,,,,,,,,,,,,,,0,18,18,42,1,,,,,,,,,,,,,,,,,,,,,,,
,,,,,V3_067,18,Female,2024-11-15_16h49.41.570,jersey_experiment_5_v3,2023.2.2,Win32,84.74576271,,,,,,,,,,,,,,,,931.0205,932.5742,932.5743,933.844,return,0.1326,,49.86979167,,,,,,FBP-OG-71.png,0.37,1.2,32,0.75,,,,,,,,,,,,,,,,,,0,19,19,31,1,,,,,,,,,,,,,,,,,,,,,,,
,,,,,V3_067,18,Female,2024-11-15_16h49.41.570,jersey_experiment_5_v3,2023.2.2,Win32,84.74576271,,,,,,,,,,,,,,,,933.8442,935.1365,935.1366,936.6061,return,0.118,,88.54166667,,,,,,FBP-RB-81.png,0.45,1.2,55,0.5,,,,,,,,,,,,,,,,,,0,20,20,54,1,,,,,,,,,,,,,,,,,,,,,,,
,,,,,V3_067,18,Female,2024-11-15_16h49.41.570,jersey_experiment_5_v3,2023.2.2,Win32,84.74576271,,,,,,,,,,,,,,,,936.6063,937.9148,937.9149,939.7089,return,0.1431,,25.52083333,,,,,,FBP-YG-17.png,0.35,1.2,1,0.5,,,,,,,,,,,,,,,,,,0,21,21,0,1,,,,,,,,,,,,,,,,,,,,,,,
,,,,,V3_067,18,Female,2024-11-15_16h49.41.570,jersey_experiment_5_v3,2023.2.2,Win32,84.74576271,,,,,,,,,,,,,,,,939.7092,941.0061,941.0061,942.5724,return,0.1402,,25.65104167,,,,,,FBP-RB-91.png,0.35,1.2,56,0.5,,,,,,,,,,,,,,,,,,0,22,22,55,1,,,,,,,,,,,,,,,,,,,,,,,
,,,,,V3_067,18,Female,2024-11-15_16h49.41.570,jersey_experiment_5_v3,2023.2.2,Win32,84.74576271,,,,,,,,,,,,,,,,942.5726,943.8676,943.8676,944.7151,return,0.096,,25.65104167,,,,,,FBP-RB-71.png,0.35,1.2,46,0.5,,,,,,,,,,,,,,,,,,0,23,23,45,1,,,,,,,,,,,,,,,,,,,,,,,
,,,,,V3_067,18,Female,2024-11-15_16h49.41.570,jersey_experiment_5_v3,2023.2.2,Win32,84.74576271,,,,,,,,,,,,,,,,944.7153,946.268,946.2681,947.0448,return,0.1329,,25.65104167,,,,,,FBP-OG-81.png,0.37,1.2,37,0.75,,,,,,,,,,,,,,,,,,0,24,24,36,1,,,,,,,,,,,,,,,,,,,,,,,
,,,,,V3_067,18,Female,2024-11-15_16h49.41.570,jersey_experiment_5_v3,2023.2.2,Win32,84.74576271,,,,,,,,,,,,,,,,947.0449,948.337,948.337,950.3859,return,0.109,,74.73958333,,,,,,FBP-YG-17.png,0.43,1.2,4,0.5,,,,,,,,,,,,,,,,,,0,25,25,3,1,,,,,,,,,,,,,,,,,,,,,,,
,,,,,V3_067,18,Female,2024-11-15_16h49.41.570,jersey_experiment_5_v3,2023.2.2,Win32,84.74576271,,,,,,,,,,,,,,,,950.3861,951.6889,951.6889,952.7949,return,0.1178,,86.97916667,,,,,,FBP-YG-18.png,0.45,1.2,10,0.5,,,,,,,,,,,,,,,,,,0,26,26,9,1,,,,,,,,,,,,,,,,,,,,,,,
,,,,,V3_067,18,Female,2024-11-15_16h49.41.570,jersey_experiment_5_v3,2023.2.2,Win32,84.74576271,,,,,,,,,,,,,,,,952.795,954.0892,954.0892,954.9129,return,0.1272,,86.97916667,,,,,,FBP-PT-81.png,0.43,1.2,24,0.5,,,,,,,,,,,,,,,,,,0,27,27,23,1,,,,,,,,,,,,,,,,,,,,,,,
,,,,,V3_067,18,Female,2024-11-15_16h49.41.570,jersey_experiment_5_v3,2023.2.2,Win32,84.74576271,,,,,,,,,,,,,,,,954.913,956.2212,956.2213,956.7629,return,0.0946,,86.97916667,,,,,,FBP-PT-91.png,0.45,1.2,30,0.5,,,,,,,,,,,,,,,,,,0,28,28,29,1,,,,,,,,,,,,,,,,,,,,,,,
,,,,,V3_067,18,Female,2024-11-15_16h49.41.570,jersey_experiment_5_v3,2023.2.2,Win32,84.74576271,,,,,,,,,,,,,,,,956.7631,958.0569,958.0569,958.833,return,0.1645,,86.97916667,,,,,,FBP-RB-91.png,0.4,1.2,58,0.5,,,,,,,,,,,,,,,,,,0,29,29,57,1,,,,,,,,,,,,,,,,,,,,,,,
,,,,,V3_067,18,Female,2024-11-15_16h49.41.570,jersey_experiment_5_v3,2023.2.2,Win32,84.74576271,,,,,,,,,,,,,,,,958.8331,960.1275,960.1275,960.7396,return,0.1331,,86.97916667,,,,,,FBP-RB-91.png,0.43,1.2,59,0.5,,,,,,,,,,,,,,,,,,0,30,30,58,1,,,,,,,,,,,,,,,,,,,,,,,
,,,,,V3_067,18,Female,2024-11-15_16h49.41.570,jersey_experiment_5_v3,2023.2.2,Win32,84.74576271,,,,,,,,,,,,,,,,960.7396,962.0426,962.0426,963.3568,return,0.0881,,24.86979167,,,,,,FBP-PT-81.png,0.35,1.2,21,0.5,,,,,,,,,,,,,,,,,,0,31,31,20,1,,,,,,,,,,,,,,,,,,,,,,,
,,,,,V3_067,18,Female,2024-11-15_16h49.41.570,jersey_experiment_5_v3,2023.2.2,Win32,84.74576271,,,,,,,,,,,,,,,,963.357,964.654,964.654,965.8201,return,0.0928,,38.93229167,,,,,,FBP-PT-81.png,0.4,1.2,23,0.5,,,,,,,,,,,,,,,,,,0,32,32,22,1,,,,,,,,,,,,,,,,,,,,,,,
,,,,,V3_067,18,Female,2024-11-15_16h49.41.570,jersey_experiment_5_v3,2023.2.2,Win32,84.74576271,,,,,,,,,,,,,,,,965.8203,967.3748,967.3748,970.2691,return,0.1326,,88.93229167,,,,,,FBP-OG-91.png,0.45,1.2,45,0.75,,,,,,,,,,,,,,,,,,0,33,33,44,1,,,,,,,,,,,,,,,,,,,,,,,
,,,,,V3_067,18,Female,2024-11-15_16h49.41.570,jersey_experiment_5_v3,2023.2.2,Win32,84.74576271,,,,,,,,,,,,,,,,970.2693,971.5632,971.5632,972.8339,return,0.0476,,49.21875,,,,,,FBP-YG-19.png,0.37,1.2,12,0.5,,,,,,,,,,,,,,,,,,0,34,34,11,1,,,,,,,,,,,,,,,,,,,,,,,
,,,,,V3_067,18,Female,2024-11-15_16h49.41.570,jersey_experiment_5_v3,2023.2.2,Win32,84.74576271,,,,,,,,,,,,,,,,972.834,974.1369,974.1369,975.3516,return,0.1328,,86.84895833,,,,,,FBP-YG-18.png,0.43,1.2,9,0.5,,,,,,,,,,,,,,,,,,0,35,35,8,1,,,,,,,,,,,,,,,,,,,,,,,
,,,,,V3_067,18,Female,2024-11-15_16h49.41.570,jersey_experiment_5_v3,2023.2.2,Win32,84.74576271,,,,,,,,,,,,,,,,975.3518,976.9042,976.9043,978.4515,return,0.0708,,38.02083333,,,,,,FBP-OG-91.png,0.37,1.2,42,0.75,,,,,,,,,,,,,,,,,,0,36,36,41,1,,,,,,,,,,,,,,,,,,,,,,,
,,,,,V3_067,18,Female,2024-11-15_16h49.41.570,jersey_experiment_5_v3,2023.2.2,Win32,84.74576271,,,,,,,,,,,,,,,,978.4517,980.0045,980.0045,981.7752,return,0.1175,,63.671875,,,,,,FBP-OG-71.png,0.43,1.2,34,0.75,,,,,,,,,,,,,,,,,,0,37,37,33,1,,,,,,,,,,,,,,,,,,,,,,,
,,,,,V3_067,18,Female,2024-11-15_16h49.41.570,jersey_experiment_5_v3,2023.2.2,Win32,84.74576271,,,,,,,,,,,,,,,,981.7754,983.0692,983.0692,983.8914,return,0.0839,,63.93229167,,,,,,FBP-PT-71.png,0.37,1.2,17,0.5,,,,,,,,,,,,,,,,,,0,38,38,16,1,,,,,,,,,,,,,,,,,,,,,,,
,,,,,V3_067,18,Female,2024-11-15_16h49.41.570,jersey_experiment_5_v3,2023.2.2,Win32,84.74576271,,,,,,,,,,,,,,,,983.8915,985.196,985.196,985.8517,return,0.1212,,63.93229167,,,,,,FBP-RB-91.png,0.37,1.2,57,0.5,,,,,,,,,,,,,,,,,,0,39,39,56,1,,,,,,,,,,,,,,,,,,,,,,,
,,,,,V3_067,18,Female,2024-11-15_16h49.41.570,jersey_experiment_5_v3,2023.2.2,Win32,84.74576271,,,,,,,,,,,,,,,,985.8518,987.4073,987.4073,988.608,return,0.1413,,63.93229167,,,,,,FBP-OG-81.png,0.35,1.2,36,0.75,,,,,,,,,,,,,,,,,,0,40,40,35,1,,,,,,,,,,,,,,,,,,,,,,,
,,,,,V3_067,18,Female,2024-11-15_16h49.41.570,jersey_experiment_5_v3,2023.2.2,Win32,84.74576271,,,,,,,,,,,,,,,,988.6081,989.9169,989.9169,990.8672,return,0.1182,,63.93229167,,,,,,FBP-PT-71.png,0.4,1.2,18,0.5,,,,,,,,,,,,,,,,,,0,41,41,17,1,,,,,,,,,,,,,,,,,,,,,,,
,,,,,V3_067,18,Female,2024-11-15_16h49.41.570,jersey_experiment_5_v3,2023.2.2,Win32,84.74576271,,,,,,,,,,,,,,,,990.8674,992.1751,992.1752,993.3377,return,0.1181,,86.19791667,,,,,,FBP-PT-91.png,0.43,1.2,29,0.5,,,,,,,,,,,,,,,,,,0,42,42,28,1,,,,,,,,,,,,,,,,,,,,,,,
,,,,,V3_067,18,Female,2024-11-15_16h49.41.570,jersey_experiment_5_v3,2023.2.2,Win32,84.74576271,,,,,,,,,,,,,,,,993.3378,994.6316,994.6316,997.7227,return,0.1105,,62.5,,,,,,FBP-RB-71.png,0.43,1.2,49,0.5,,,,,,,,,,,,,,,,,,0,43,43,48,1,,,,,,,,,,,,,,,,,,,,,,,
,,,,,V3_067,18,Female,2024-11-15_16h49.41.570,jersey_experiment_5_v3,2023.2.2,Win32,84.74576271,,,,,,,,,,,,,,,,997.723,999.0168,999.0168,1002.4436,return,0.0797,,24.34895833,,,,,,FBP-RB-81.png,0.35,1.2,51,0.5,,,,,,,,,,,,,,,,,,0,44,44,50,1,,,,,,,,,,,,,,,,,,,,,,,
,,,,,V3_067,18,Female,2024-11-15_16h49.41.570,jersey_experiment_5_v3,2023.2.2,Win32,84.74576271,,,,,,,,,,,,,,,,1002.4438,1003.7525,1003.7525,1005.0468,return,0.1176,,50.390625,,,,,,FBP-YG-18.png,0.4,1.2,8,0.5,,,,,,,,,,,,,,,,,,0,45,45,7,1,,,,,,,,,,,,,,,,,,,,,,,
,,,,,V3_067,18,Female,2024-11-15_16h49.41.570,jersey_experiment_5_v3,2023.2.2,Win32,84.74576271,,,,,,,,,,,,,,,,1005.047,1006.3408,1006.3409,1007.6822,return,0.1561,,75.78125,,,,,,FBP-YG-19.png,0.43,1.2,14,0.5,,,,,,,,,,,,,,,,,,0,46,46,13,1,,,,,,,,,,,,,,,,,,,,,,,
,,,,,V3_067,18,Female,2024-11-15_16h49.41.570,jersey_experiment_5_v3,2023.2.2,Win32,84.74576271,,,,,,,,,,,,,,,,1007.6823,1008.9745,1008.9746,1010.9767,return,0.0858,,75.13020833,,,,,,FBP-RB-71.png,0.4,1.2,48,0.5,,,,,,,,,,,,,,,,,,0,47,47,47,1,,,,,,,,,,,,,,,,,,,,,,,
,,,,,V3_067,18,Female,2024-11-15_16h49.41.570,jersey_experiment_5_v3,2023.2.2,Win32,84.74576271,,,,,,,,,,,,,,,,1010.9769,1012.2793,1012.2793,1013.2337,return,0.1781,,87.63020833,,,,,,FBP-PT-81.png,0.45,1.2,25,0.5,,,,,,,,,,,,,,,,,,0,48,48,24,1,,,,,,,,,,,,,,,,,,,,,,,
,,,,,V3_067,18,Female,2024-11-15_16h49.41.570,jersey_experiment_5_v3,2023.2.2,Win32,84.74576271,,,,,,,,,,,,,,,,1013.2338,1014.5381,1014.5382,1015.55,return,0.0088,,24.21875,,,,,,FBP-PT-91.png,0.37,1.2,27,0.5,,,,,,,,,,,,,,,,,,0,49,49,26,1,,,,,,,,,,,,,,,,,,,,,,,
,,,,,V3_067,18,Female,2024-11-15_16h49.41.570,jersey_experiment_5_v3,2023.2.2,Win32,84.74576271,,,,,,,,,,,,,,,,1015.5502,1016.8591,1016.8591,1019.7589,return,0.0869,,50.390625,,,,,,FBP-YG-19.png,0.4,1.2,13,0.5,,,,,,,,,,,,,,,,,,0,50,50,12,1,,,,,,,,,,,,,,,,,,,,,,,
,,,,,V3_067,18,Female,2024-11-15_16h49.41.570,jersey_experiment_5_v3,2023.2.2,Win32,84.74576271,,,,,,,,,,,,,,,,1019.7591,1021.3149,1021.3149,1023.1887,return,0.0943,,75.26041667,,,,,,FBP-OG-71.png,0.45,1.2,35,0.75,,,,,,,,,,,,,,,,,,0,51,51,34,1,,,,,,,,,,,,,,,,,,,,,,,
,,,,,V3_067,18,Female,2024-11-15_16h49.41.570,jersey_experiment_5_v3,2023.2.2,Win32,84.74576271,,,,,,,,,,,,,,,,1023.1888,1024.4827,1024.4827,1026.1062,return,0.0855,,50.26041667,,,,,,FBP-YG-19.png,0.35,1.2,11,0.5,,,,,,,,,,,,,,,,,,0,52,52,10,1,,,,,,,,,,,,,,,,,,,,,,,
,,,,,V3_067,18,Female,2024-11-15_16h49.41.570,jersey_experiment_5_v3,2023.2.2,Win32,84.74576271,,,,,,,,,,,,,,,,1026.1063,1027.4002,1027.4002,1028.671,return,0.1178,,87.63020833,,,,,,FBP-RB-71.png,0.45,1.2,50,0.5,,,,,,,,,,,,,,,,,,0,53,53,49,1,,,,,,,,,,,,,,,,,,,,,,,
,,,,,V3_067,18,Female,2024-11-15_16h49.41.570,jersey_experiment_5_v3,2023.2.2,Win32,84.74576271,,,,,,,,,,,,,,,,1028.6711,1029.9711,1029.9711,1030.9389,return,0.0709,,74.86979167,,,,,,FBP-PT-71.png,0.43,1.2,19,0.5,,,,,,,,,,,,,,,,,,0,54,54,18,1,,,,,,,,,,,,,,,,,,,,,,,
,,,,,V3_067,18,Female,2024-11-15_16h49.41.570,jersey_experiment_5_v3,2023.2.2,Win32,84.74576271,,,,,,,,,,,,,,,,1030.939,1032.2331,1032.2331,1033.4565,return,0.0706,,50,,,,,,FBP-PT-81.png,0.37,1.2,22,0.5,,,,,,,,,,,,,,,,,,0,55,55,21,1,,,,,,,,,,,,,,,,,,,,,,,
,,,,,V3_067,18,Female,2024-11-15_16h49.41.570,jersey_experiment_5_v3,2023.2.2,Win32,84.74576271,,,,,,,,,,,,,,,,1033.4566,1034.7509,1034.7509,1036.5242,return,0.1001,,51.04166667,,,,,,FBP-PT-91.png,0.4,1.2,28,0.5,,,,,,,,,,,,,,,,,,0,56,56,27,1,,,,,,,,,,,,,,,,,,,,,,,
,,,,,V3_067,18,Female,2024-11-15_16h49.41.570,jersey_experiment_5_v3,2023.2.2,Win32,84.74576271,,,,,,,,,,,,,,,,1036.5245,1037.8184,1037.8184,1038.6712,return,0.0937,,51.04166667,,,,,,FBP-YG-17.png,0.37,1.2,2,0.5,,,,,,,,,,,,,,,,,,0,57,57,1,1,,,,,,,,,,,,,,,,,,,,,,,
,,,,,V3_067,18,Female,2024-11-15_16h49.41.570,jersey_experiment_5_v3,2023.2.2,Win32,84.74576271,,,,,,,,,,,,,,,,1038.6713,1039.9657,1039.9657,1040.8363,return,0.156,,51.04166667,,,,,,FBP-RB-81.png,0.4,1.2,53,0.5,,,,,,,,,,,,,,,,,,0,58,58,52,1,,,,,,,,,,,,,,,,,,,,,,,
,,,,,V3_067,18,Female,2024-11-15_16h49.41.570,jersey_experiment_5_v3,2023.2.2,Win32,84.74576271,,,,,,,,,,,,,,,,1040.8365,1042.1362,1042.1363,1043.4572,return,0.0945,,25.390625,,,,,,FBP-YG-18.png,0.35,1.2,6,0.5,,,,,,,,,,,,,,,,,,0,59,59,5,1,,,,,,,,,,,,,,,,,,,,,,,
,,,,,V3_067,18,Female,2024-11-15_16h49.41.570,jersey_experiment_5_v3,2023.2.2,Win32,84.74576271,,,,,,,,,,,,,,,,,,,,,,,,,,,,,,,,,,,,,,,,,,,,,,,,,,,,,,,,1043.4572,1055.7546,return,12.2828,,,,,,,,,,,,,,,,,,,
,,,,,V3_067,18,Female,2024-11-15_16h49.41.570,jersey_experiment_5_v3,2023.2.2,Win32,84.74576271,,,,,,,,,,,,,,,,,,,,,,,,,,,,,,,,,,,,,,,,,,,,,,,,,,,,,,,,,,,,,1055.7546,1066.1167,1,8.9987,return,1.3412,,,,,,,,,,,,
,,,,,V3_067,18,Female,2024-11-15_16h49.41.570,jersey_experiment_5_v3,2023.2.2,Win32,84.74576271,,,,,,,,,,,,,,,,,,,,,,,,,,,,,,,,,,,,,,,,,,,,,,,,,,,,,,,,,,,,,,,,,,,,1066.1168,1167.5178,I know the study is a multisensory perception behavior so I think the different colors of the football players have something to do with that.,right,86.9726,,,,,,
,,,,,V3_067,18,Female,2024-11-15_16h49.41.570,jersey_experiment_5_v3,2023.2.2,Win32,84.74576271,,,,,,,,,,,,,,,,,,,,,,,,,,,,,,,,,,,,,,,,,,,,,,,,,,,,,,,,,,,,,,,,,,,,,,,,,,1167.5179,1173.6738,return,6.1415,