requirements.started,requirements.stopped,key_resp_3.keys,key_resp_3.rt,key_resp_3.duration,Subject ID,Age,Gender,date,expName,psychopyVersion,OS,frameRate,instructions1.started,instructions1.stopped,key_resp.keys,key_resp.rt,key_resp.duration,example.started,example.stopped,enter_2.keys,enter_2.rt,enter_2.duration,instructions2.started,instructions2.stopped,enter_3.keys,enter_3.rt,enter_3.duration,image.started,image.stopped,slider_2.started,slider_2.stopped,next.keys,next.rt,next.duration,slider.response,trial_block_1.thisRepN,trial_block_1.thisTrialN,trial_block_1.thisN,trial_block_1.thisIndex,trial_block_1.ran,Path,Width,Height,Index,Duration,trial_block_2.thisRepN,trial_block_2.thisTrialN,trial_block_2.thisN,trial_block_2.thisIndex,trial_block_2.ran,rest_break.started,rest_break.stopped,end_break.started,end_break.stopped,key_resp_5.keys,key_resp_5.rt,key_resp_5.duration,trial_block_3.thisRepN,trial_block_3.thisTrialN,trial_block_3.thisN,trial_block_3.thisIndex,trial_block_3.ran,trial_block_4.thisRepN,trial_block_4.thisTrialN,trial_block_4.thisN,trial_block_4.thisIndex,trial_block_4.ran,questions_intro.started,questions_intro.stopped,enter_12.keys,enter_12.rt,enter_12.duration,question2.started,question2.stopped,question_doingbest.response,question_doingbest.rt,enter_15.keys,enter_15.rt,enter_15.duration,pattern.started,pattern.stopped,pattern_2.text,enter_17.keys,enter_17.rt,enter_17.duration,thankyou.started,thankyou.stopped,enter_14.keys,enter_14.rt,enter_14.duration
0.0002,16.6077,return,16.6011,,V3_068,19,Female,2024-11-16_16h19.50.742,jersey_experiment_5_v3,2023.2.2,Win32,85.47008547,,,,,,,,,,,,,,,,,,,,,,,,,,,,,,,,,,,,,,,,,,,,,,,,,,,,,,,,,,,,,,,,,,,,,,,,,,,,,,
,,,,,V3_068,19,Female,2024-11-16_16h19.50.742,jersey_experiment_5_v3,2023.2.2,Win32,85.47008547,16.6078,28.0751,return,11.4468,,,,,,,,,,,,,,,,,,,,,,,,,,,,,,,,,,,,,,,,,,,,,,,,,,,,,,,,,,,,,,,,,,,,,,,,,,
,,,,,V3_068,19,Female,2024-11-16_16h19.50.742,jersey_experiment_5_v3,2023.2.2,Win32,85.47008547,,,,,,28.0752,32.487,return,4.3775,,,,,,,,,,,,,,,,,,,,,,,,,,,,,,,,,,,,,,,,,,,,,,,,,,,,,,,,,,,,,,,,,,,,,
,,,,,V3_068,19,Female,2024-11-16_16h19.50.742,jersey_experiment_5_v3,2023.2.2,Win32,85.47008547,,,,,,,,,,,32.4871,47.1644,return,14.6587,,,,,,,,,,,,,,,,,,,,,,,,,,,,,,,,,,,,,,,,,,,,,,,,,,,,,,,,,,,,,,,,
,,,,,V3_068,19,Female,2024-11-16_16h19.50.742,jersey_experiment_5_v3,2023.2.2,Win32,85.47008547,,,,,,,,,,,,,,,,47.1671,48.7171,48.7173,57.3585,return,5.6005,,50.13020833,0,0,0,50,1,FBP-RB-18.png,0.35,1.2,51,0.75,,,,,,,,,,,,,,,,,,,,,,,,,,,,,,,,,,,,,,,,,,,,,
,,,,,V3_068,19,Female,2024-11-16_16h19.50.742,jersey_experiment_5_v3,2023.2.2,Win32,85.47008547,,,,,,,,,,,,,,,,57.3589,58.6525,58.6525,61.0995,return,0.2746,,37.63020833,0,1,1,30,1,FBP-OG-17.png,0.35,1.2,31,0.5,,,,,,,,,,,,,,,,,,,,,,,,,,,,,,,,,,,,,,,,,,,,,
,,,,,V3_068,19,Female,2024-11-16_16h19.50.742,jersey_experiment_5_v3,2023.2.2,Win32,85.47008547,,,,,,,,,,,,,,,,61.0998,62.3938,62.3938,64.1114,return,0.202,,60.9375,0,2,2,38,1,FBP-OG-18.png,0.43,1.2,39,0.5,,,,,,,,,,,,,,,,,,,,,,,,,,,,,,,,,,,,,,,,,,,,,
,,,,,V3_068,19,Female,2024-11-16_16h19.50.742,jersey_experiment_5_v3,2023.2.2,Win32,85.47008547,,,,,,,,,,,,,,,,64.1116,65.6645,65.6645,66.9352,return,0.1838,,74.47916667,0,3,3,28,1,FBP-PT-19.png,0.43,1.2,29,0.75,,,,,,,,,,,,,,,,,,,,,,,,,,,,,,,,,,,,,,,,,,,,,
,,,,,V3_068,19,Female,2024-11-16_16h19.50.742,jersey_experiment_5_v3,2023.2.2,Win32,85.47008547,,,,,,,,,,,,,,,,66.9354,68.2295,68.2296,69.6646,return,0.1567,,49.86979167,0,4,4,31,1,FBP-OG-17.png,0.37,1.2,32,0.5,,,,,,,,,,,,,,,,,,,,,,,,,,,,,,,,,,,,,,,,,,,,,
,,,,,V3_068,19,Female,2024-11-16_16h19.50.742,jersey_experiment_5_v3,2023.2.2,Win32,85.47008547,,,,,,,,,,,,,,,,69.6649,70.9588,70.9588,72.5235,return,0.4604,,58.203125,0,5,5,42,1,FBP-OG-19.png,0.4,1.2,43,0.5,,,,,,,,,,,,,,,,,,,,,,,,,,,,,,,,,,,,,,,,,,,,,
,,,,,V3_068,19,Female,2024-11-16_16h19.50.742,jersey_experiment_5_v3,2023.2.2,Win32,85.47008547,,,,,,,,,,,,,,,,72.5237,74.0766,74.0766,75.2295,return,0.2362,,77.99479167,0,6,6,59,1,FBP-RB-19.png,0.45,1.2,60,0.75,,,,,,,,,,,,,,,,,,,,,,,,,,,,,,,,,,,,,,,,,,,,,
,,,,,V3_068,19,Female,2024-11-16_16h19.50.742,jersey_experiment_5_v3,2023.2.2,Win32,85.47008547,,,,,,,,,,,,,,,,75.2297,76.7827,76.7827,78.5355,return,1.1481,,63.54166667,0,7,7,46,1,FBP-RB-17.png,0.37,1.2,47,0.75,,,,,,,,,,,,,,,,,,,,,,,,,,,,,,,,,,,,,,,,,,,,,
,,,,,V3_068,19,Female,2024-11-16_16h19.50.742,jersey_experiment_5_v3,2023.2.2,Win32,85.47008547,,,,,,,,,,,,,,,,78.5358,80.0885,80.0885,81.0533,return,0.2341,,63.54166667,0,8,8,0,1,FBP-YG-71.png,0.35,1.2,1,0.75,,,,,,,,,,,,,,,,,,,,,,,,,,,,,,,,,,,,,,,,,,,,,
,,,,,V3_068,19,Female,2024-11-16_16h19.50.742,jersey_experiment_5_v3,2023.2.2,Win32,85.47008547,,,,,,,,,,,,,,,,81.0536,82.3476,82.3477,83.9828,return,0.4111,,77.08333333,0,9,9,39,1,FBP-OG-18.png,0.45,1.2,40,0.5,,,,,,,,,,,,,,,,,,,,,,,,,,,,,,,,,,,,,,,,,,,,,
,,,,,V3_068,19,Female,2024-11-16_16h19.50.742,jersey_experiment_5_v3,2023.2.2,Win32,85.47008547,,,,,,,,,,,,,,,,83.983,85.5358,85.5358,87.0652,return,0.2253,,81.11979167,0,10,10,12,1,FBP-YG-91.png,0.4,1.2,13,0.75,,,,,,,,,,,,,,,,,,,,,,,,,,,,,,,,,,,,,,,,,,,,,
,,,,,V3_068,19,Female,2024-11-16_16h19.50.742,jersey_experiment_5_v3,2023.2.2,Win32,85.47008547,,,,,,,,,,,,,,,,87.0655,88.3594,88.3594,89.5358,return,0.4473,,74.47916667,0,11,11,32,1,FBP-OG-17.png,0.4,1.2,33,0.5,,,,,,,,,,,,,,,,,,,,,,,,,,,,,,,,,,,,,,,,,,,,,
,,,,,V3_068,19,Female,2024-11-16_16h19.50.742,jersey_experiment_5_v3,2023.2.2,Win32,85.47008547,,,,,,,,,,,,,,,,89.536,91.0772,91.0773,91.9479,return,0.1881,,80.078125,0,12,12,47,1,FBP-RB-17.png,0.4,1.2,48,0.75,,,,,,,,,,,,,,,,,,,,,,,,,,,,,,,,,,,,,,,,,,,,,
,,,,,V3_068,19,Female,2024-11-16_16h19.50.742,jersey_experiment_5_v3,2023.2.2,Win32,85.47008547,,,,,,,,,,,,,,,,91.9484,93.5007,93.5007,94.5832,return,0.1474,,86.58854167,0,13,13,14,1,FBP-YG-91.png,0.45,1.2,15,0.75,,,,,,,,,,,,,,,,,,,,,,,,,,,,,,,,,,,,,,,,,,,,,
,,,,,V3_068,19,Female,2024-11-16_16h19.50.742,jersey_experiment_5_v3,2023.2.2,Win32,85.47008547,,,,,,,,,,,,,,,,94.5834,96.1362,96.1362,97.101,return,0.2574,,71.09375,0,14,14,1,1,FBP-YG-71.png,0.37,1.2,2,0.75,,,,,,,,,,,,,,,,,,,,,,,,,,,,,,,,,,,,,,,,,,,,,
,,,,,V3_068,19,Female,2024-11-16_16h19.50.742,jersey_experiment_5_v3,2023.2.2,Win32,85.47008547,,,,,,,,,,,,,,,,97.1012,98.654,98.654,99.6304,return,0.2121,,77.734375,0,15,15,29,1,FBP-PT-19.png,0.45,1.2,30,0.75,,,,,,,,,,,,,,,,,,,,,,,,,,,,,,,,,,,,,,,,,,,,,
,,,,,V3_068,19,Female,2024-11-16_16h19.50.742,jersey_experiment_5_v3,2023.2.2,Win32,85.47008547,,,,,,,,,,,,,,,,99.6306,101.1836,101.1836,102.0539,return,0.1832,,62.76041667,0,16,16,21,1,FBP-PT-18.png,0.37,1.2,22,0.75,,,,,,,,,,,,,,,,,,,,,,,,,,,,,,,,,,,,,,,,,,,,,
,,,,,V3_068,19,Female,2024-11-16_16h19.50.742,jersey_experiment_5_v3,2023.2.2,Win32,85.47008547,,,,,,,,,,,,,,,,102.0542,103.607,103.607,104.2188,return,0.1529,,63.02083333,0,17,17,11,1,FBP-YG-91.png,0.37,1.2,12,0.75,,,,,,,,,,,,,,,,,,,,,,,,,,,,,,,,,,,,,,,,,,,,,
,,,,,V3_068,19,Female,2024-11-16_16h19.50.742,jersey_experiment_5_v3,2023.2.2,Win32,85.47008547,,,,,,,,,,,,,,,,104.2191,105.7717,105.7718,106.619,return,0.1534,,57.29166667,0,18,18,20,1,FBP-PT-18.png,0.35,1.2,21,0.75,,,,,,,,,,,,,,,,,,,,,,,,,,,,,,,,,,,,,,,,,,,,,
,,,,,V3_068,19,Female,2024-11-16_16h19.50.742,jersey_experiment_5_v3,2023.2.2,Win32,85.47008547,,,,,,,,,,,,,,,,106.6192,108.172,108.1721,109.1131,return,0.3207,,79.6875,0,19,19,13,1,FBP-YG-91.png,0.43,1.2,14,0.75,,,,,,,,,,,,,,,,,,,,,,,,,,,,,,,,,,,,,,,,,,,,,
,,,,,V3_068,19,Female,2024-11-16_16h19.50.742,jersey_experiment_5_v3,2023.2.2,Win32,85.47008547,,,,,,,,,,,,,,,,109.1134,110.4071,110.4072,111.4778,return,0.1378,,79.16666667,0,20,20,33,1,FBP-OG-17.png,0.43,1.2,34,0.5,,,,,,,,,,,,,,,,,,,,,,,,,,,,,,,,,,,,,,,,,,,,,
,,,,,V3_068,19,Female,2024-11-16_16h19.50.742,jersey_experiment_5_v3,2023.2.2,Win32,85.47008547,,,,,,,,,,,,,,,,111.478,113.0308,113.0308,113.8779,return,0.1954,,72.13541667,0,21,21,27,1,FBP-PT-19.png,0.4,1.2,28,0.75,,,,,,,,,,,,,,,,,,,,,,,,,,,,,,,,,,,,,,,,,,,,,
,,,,,V3_068,19,Female,2024-11-16_16h19.50.742,jersey_experiment_5_v3,2023.2.2,Win32,85.47008547,,,,,,,,,,,,,,,,113.8782,115.431,115.431,116.384,return,0.1414,,62.5,0,22,22,51,1,FBP-RB-18.png,0.37,1.2,52,0.75,,,,,,,,,,,,,,,,,,,,,,,,,,,,,,,,,,,,,,,,,,,,,
,,,,,V3_068,19,Female,2024-11-16_16h19.50.742,jersey_experiment_5_v3,2023.2.2,Win32,85.47008547,,,,,,,,,,,,,,,,116.3843,117.9369,117.937,118.6546,return,0.1429,,61.45833333,0,23,23,6,1,FBP-YG-81.png,0.37,1.2,7,0.75,,,,,,,,,,,,,,,,,,,,,,,,,,,,,,,,,,,,,,,,,,,,,
,,,,,V3_068,19,Female,2024-11-16_16h19.50.742,jersey_experiment_5_v3,2023.2.2,Win32,85.47008547,,,,,,,,,,,,,,,,118.6549,119.9488,119.9489,120.8901,return,0.1809,,48.30729167,0,24,24,35,1,FBP-OG-18.png,0.35,1.2,36,0.5,,,,,,,,,,,,,,,,,,,,,,,,,,,,,,,,,,,,,,,,,,,,,
,,,,,V3_068,19,Female,2024-11-16_16h19.50.742,jersey_experiment_5_v3,2023.2.2,Win32,85.47008547,,,,,,,,,,,,,,,,120.8903,122.4432,122.4433,123.2901,return,0.2393,,65.75520833,0,25,25,48,1,FBP-RB-17.png,0.43,1.2,49,0.75,,,,,,,,,,,,,,,,,,,,,,,,,,,,,,,,,,,,,,,,,,,,,
,,,,,V3_068,19,Female,2024-11-16_16h19.50.742,jersey_experiment_5_v3,2023.2.2,Win32,85.47008547,,,,,,,,,,,,,,,,123.2904,124.8431,124.8431,125.5962,return,0.2262,,72.00520833,0,26,26,7,1,FBP-YG-81.png,0.4,1.2,8,0.75,,,,,,,,,,,,,,,,,,,,,,,,,,,,,,,,,,,,,,,,,,,,,
,,,,,V3_068,19,Female,2024-11-16_16h19.50.742,jersey_experiment_5_v3,2023.2.2,Win32,85.47008547,,,,,,,,,,,,,,,,125.5965,127.1492,127.1492,127.8314,return,0.1701,,78.64583333,0,27,27,49,1,FBP-RB-17.png,0.45,1.2,50,0.75,,,,,,,,,,,,,,,,,,,,,,,,,,,,,,,,,,,,,,,,,,,,,
,,,,,V3_068,19,Female,2024-11-16_16h19.50.742,jersey_experiment_5_v3,2023.2.2,Win32,85.47008547,,,,,,,,,,,,,,,,127.8317,129.1257,129.1258,130.3963,return,0.1329,,41.92708333,0,28,28,40,1,FBP-OG-19.png,0.35,1.2,41,0.5,,,,,,,,,,,,,,,,,,,,,,,,,,,,,,,,,,,,,,,,,,,,,
,,,,,V3_068,19,Female,2024-11-16_16h19.50.742,jersey_experiment_5_v3,2023.2.2,Win32,85.47008547,,,,,,,,,,,,,,,,130.3965,131.6904,131.6905,132.4786,return,0.1178,,63.41145833,0,29,29,34,1,FBP-OG-17.png,0.45,1.2,35,0.5,,,,,,,,,,,,,,,,,,,,,,,,,,,,,,,,,,,,,,,,,,,,,
,,,,,V3_068,19,Female,2024-11-16_16h19.50.742,jersey_experiment_5_v3,2023.2.2,Win32,85.47008547,,,,,,,,,,,,,,,,132.4788,134.0318,134.0318,134.8317,return,0.2823,,49.08854167,0,30,30,45,1,FBP-RB-17.png,0.35,1.2,46,0.75,,,,,,,,,,,,,,,,,,,,,,,,,,,,,,,,,,,,,,,,,,,,,
,,,,,V3_068,19,Female,2024-11-16_16h19.50.742,jersey_experiment_5_v3,2023.2.2,Win32,85.47008547,,,,,,,,,,,,,,,,134.8319,136.3847,136.3847,137.82,return,0.9438,,52.99479167,0,31,31,56,1,FBP-RB-19.png,0.37,1.2,57,0.75,,,,,,,,,,,,,,,,,,,,,,,,,,,,,,,,,,,,,,,,,,,,,
,,,,,V3_068,19,Female,2024-11-16_16h19.50.742,jersey_experiment_5_v3,2023.2.2,Win32,85.47008547,,,,,,,,,,,,,,,,137.8204,139.3742,139.3743,140.7024,return,0.0839,,71.09375,0,32,32,58,1,FBP-RB-19.png,0.43,1.2,59,0.75,,,,,,,,,,,,,,,,,,,,,,,,,,,,,,,,,,,,,,,,,,,,,
,,,,,V3_068,19,Female,2024-11-16_16h19.50.742,jersey_experiment_5_v3,2023.2.2,Win32,85.47008547,,,,,,,,,,,,,,,,140.7026,142.2556,142.2556,143.5027,return,0.6726,,62.890625,0,33,33,57,1,FBP-RB-19.png,0.4,1.2,58,0.75,,,,,,,,,,,,,,,,,,,,,,,,,,,,,,,,,,,,,,,,,,,,,
,,,,,V3_068,19,Female,2024-11-16_16h19.50.742,jersey_experiment_5_v3,2023.2.2,Win32,85.47008547,,,,,,,,,,,,,,,,143.5029,145.0556,145.0557,146.0087,return,0.3672,,72.65625,0,34,34,53,1,FBP-RB-18.png,0.43,1.2,54,0.75,,,,,,,,,,,,,,,,,,,,,,,,,,,,,,,,,,,,,,,,,,,,,
,,,,,V3_068,19,Female,2024-11-16_16h19.50.742,jersey_experiment_5_v3,2023.2.2,Win32,85.47008547,,,,,,,,,,,,,,,,146.009,147.5617,147.5617,148.4321,return,0.1725,,57.8125,0,35,35,26,1,FBP-PT-19.png,0.37,1.2,27,0.75,,,,,,,,,,,,,,,,,,,,,,,,,,,,,,,,,,,,,,,,,,,,,
,,,,,V3_068,19,Female,2024-11-16_16h19.50.742,jersey_experiment_5_v3,2023.2.2,Win32,85.47008547,,,,,,,,,,,,,,,,148.4324,149.9852,149.9852,150.9265,return,0.1266,,74.21875,0,36,36,23,1,FBP-PT-18.png,0.43,1.2,24,0.75,,,,,,,,,,,,,,,,,,,,,,,,,,,,,,,,,,,,,,,,,,,,,
,,,,,V3_068,19,Female,2024-11-16_16h19.50.742,jersey_experiment_5_v3,2023.2.2,Win32,85.47008547,,,,,,,,,,,,,,,,150.9268,152.4796,152.4796,153.8676,return,0.1907,,30.98958333,0,37,37,5,1,FBP-YG-81.png,0.35,1.2,6,0.75,,,,,,,,,,,,,,,,,,,,,,,,,,,,,,,,,,,,,,,,,,,,,
,,,,,V3_068,19,Female,2024-11-16_16h19.50.742,jersey_experiment_5_v3,2023.2.2,Win32,85.47008547,,,,,,,,,,,,,,,,153.868,155.4208,155.4209,156.5031,return,0.1957,,23.4375,0,38,38,15,1,FBP-PT-17.png,0.35,1.2,16,0.75,,,,,,,,,,,,,,,,,,,,,,,,,,,,,,,,,,,,,,,,,,,,,
,,,,,V3_068,19,Female,2024-11-16_16h19.50.742,jersey_experiment_5_v3,2023.2.2,Win32,85.47008547,,,,,,,,,,,,,,,,156.5032,158.0562,158.0562,158.9386,return,0.2983,,72.91666667,0,39,39,4,1,FBP-YG-71.png,0.45,1.2,5,0.75,,,,,,,,,,,,,,,,,,,,,,,,,,,,,,,,,,,,,,,,,,,,,
,,,,,V3_068,19,Female,2024-11-16_16h19.50.742,jersey_experiment_5_v3,2023.2.2,Win32,85.47008547,,,,,,,,,,,,,,,,158.9388,160.4917,160.4917,161.1034,return,0.1179,,33.85416667,0,40,40,25,1,FBP-PT-19.png,0.35,1.2,26,0.75,,,,,,,,,,,,,,,,,,,,,,,,,,,,,,,,,,,,,,,,,,,,,
,,,,,V3_068,19,Female,2024-11-16_16h19.50.742,jersey_experiment_5_v3,2023.2.2,Win32,85.47008547,,,,,,,,,,,,,,,,161.1035,162.6563,162.6563,164.2209,return,0.9043,,56.38020833,0,41,41,17,1,FBP-PT-17.png,0.4,1.2,18,0.75,,,,,,,,,,,,,,,,,,,,,,,,,,,,,,,,,,,,,,,,,,,,,
,,,,,V3_068,19,Female,2024-11-16_16h19.50.742,jersey_experiment_5_v3,2023.2.2,Win32,85.47008547,,,,,,,,,,,,,,,,164.2212,165.5152,165.5153,166.4564,return,0.1815,,49.86979167,0,42,42,41,1,FBP-OG-19.png,0.37,1.2,42,0.5,,,,,,,,,,,,,,,,,,,,,,,,,,,,,,,,,,,,,,,,,,,,,
,,,,,V3_068,19,Female,2024-11-16_16h19.50.742,jersey_experiment_5_v3,2023.2.2,Win32,85.47008547,,,,,,,,,,,,,,,,166.4567,167.7507,167.7507,168.7152,return,0.1529,,73.69791667,0,43,43,43,1,FBP-OG-19.png,0.43,1.2,44,0.5,,,,,,,,,,,,,,,,,,,,,,,,,,,,,,,,,,,,,,,,,,,,,
,,,,,V3_068,19,Female,2024-11-16_16h19.50.742,jersey_experiment_5_v3,2023.2.2,Win32,85.47008547,,,,,,,,,,,,,,,,168.7156,170.2684,170.2685,170.833,return,0.1889,,68.61979167,0,44,44,2,1,FBP-YG-71.png,0.4,1.2,3,0.75,,,,,,,,,,,,,,,,,,,,,,,,,,,,,,,,,,,,,,,,,,,,,
,,,,,V3_068,19,Female,2024-11-16_16h19.50.742,jersey_experiment_5_v3,2023.2.2,Win32,85.47008547,,,,,,,,,,,,,,,,170.8333,172.3861,172.3862,173.1273,return,0.1238,,74.08854167,0,45,45,52,1,FBP-RB-18.png,0.4,1.2,53,0.75,,,,,,,,,,,,,,,,,,,,,,,,,,,,,,,,,,,,,,,,,,,,,
,,,,,V3_068,19,Female,2024-11-16_16h19.50.742,jersey_experiment_5_v3,2023.2.2,Win32,85.47008547,,,,,,,,,,,,,,,,173.1275,174.6803,174.6803,176.5391,return,1.4506,,59.89583333,0,46,46,10,1,FBP-YG-91.png,0.35,1.2,11,0.75,,,,,,,,,,,,,,,,,,,,,,,,,,,,,,,,,,,,,,,,,,,,,
,,,,,V3_068,19,Female,2024-11-16_16h19.50.742,jersey_experiment_5_v3,2023.2.2,Win32,85.47008547,,,,,,,,,,,,,,,,176.5394,177.8333,177.8334,178.704,return,0.1886,,62.63020833,0,47,47,37,1,FBP-OG-18.png,0.4,1.2,38,0.5,,,,,,,,,,,,,,,,,,,,,,,,,,,,,,,,,,,,,,,,,,,,,
,,,,,V3_068,19,Female,2024-11-16_16h19.50.742,jersey_experiment_5_v3,2023.2.2,Win32,85.47008547,,,,,,,,,,,,,,,,178.7042,179.9981,179.9982,180.9393,return,0.094,,74.47916667,0,48,48,44,1,FBP-OG-19.png,0.45,1.2,45,0.5,,,,,,,,,,,,,,,,,,,,,,,,,,,,,,,,,,,,,,,,,,,,,
,,,,,V3_068,19,Female,2024-11-16_16h19.50.742,jersey_experiment_5_v3,2023.2.2,Win32,85.47008547,,,,,,,,,,,,,,,,180.9396,182.4923,182.4924,183.2334,return,0.2937,,76.82291667,0,49,49,8,1,FBP-YG-81.png,0.43,1.2,9,0.75,,,,,,,,,,,,,,,,,,,,,,,,,,,,,,,,,,,,,,,,,,,,,
,,,,,V3_068,19,Female,2024-11-16_16h19.50.742,jersey_experiment_5_v3,2023.2.2,Win32,85.47008547,,,,,,,,,,,,,,,,183.2335,184.7748,184.7748,185.3512,return,0.1488,,85.41666667,0,50,50,24,1,FBP-PT-18.png,0.45,1.2,25,0.75,,,,,,,,,,,,,,,,,,,,,,,,,,,,,,,,,,,,,,,,,,,,,
,,,,,V3_068,19,Female,2024-11-16_16h19.50.742,jersey_experiment_5_v3,2023.2.2,Win32,85.47008547,,,,,,,,,,,,,,,,185.3515,186.9043,186.9044,187.4806,return,0.1689,,88.28125,0,51,51,54,1,FBP-RB-18.png,0.45,1.2,55,0.75,,,,,,,,,,,,,,,,,,,,,,,,,,,,,,,,,,,,,,,,,,,,,
,,,,,V3_068,19,Female,2024-11-16_16h19.50.742,jersey_experiment_5_v3,2023.2.2,Win32,85.47008547,,,,,,,,,,,,,,,,187.4808,189.0339,189.0339,189.5632,return,0.084,,80.72916667,0,52,52,18,1,FBP-PT-17.png,0.43,1.2,19,0.75,,,,,,,,,,,,,,,,,,,,,,,,,,,,,,,,,,,,,,,,,,,,,
,,,,,V3_068,19,Female,2024-11-16_16h19.50.742,jersey_experiment_5_v3,2023.2.2,Win32,85.47008547,,,,,,,,,,,,,,,,189.5634,191.1162,191.1162,192.222,return,0.0789,,51.69270833,0,53,53,55,1,FBP-RB-19.png,0.35,1.2,56,0.75,,,,,,,,,,,,,,,,,,,,,,,,,,,,,,,,,,,,,,,,,,,,,
,,,,,V3_068,19,Female,2024-11-16_16h19.50.742,jersey_experiment_5_v3,2023.2.2,Win32,85.47008547,,,,,,,,,,,,,,,,192.2222,193.7635,193.7635,194.8926,return,0.1313,,64.453125,0,54,54,3,1,FBP-YG-71.png,0.43,1.2,4,0.75,,,,,,,,,,,,,,,,,,,,,,,,,,,,,,,,,,,,,,,,,,,,,
,,,,,V3_068,19,Female,2024-11-16_16h19.50.742,jersey_experiment_5_v3,2023.2.2,Win32,85.47008547,,,,,,,,,,,,,,,,194.8928,196.434,196.4341,197.1632,return,0.2702,,73.95833333,0,55,55,19,1,FBP-PT-17.png,0.45,1.2,20,0.75,,,,,,,,,,,,,,,,,,,,,,,,,,,,,,,,,,,,,,,,,,,,,
,,,,,V3_068,19,Female,2024-11-16_16h19.50.742,jersey_experiment_5_v3,2023.2.2,Win32,85.47008547,,,,,,,,,,,,,,,,197.1636,198.7048,198.7048,199.7046,return,0.1233,,75.13020833,0,56,56,9,1,FBP-YG-81.png,0.45,1.2,10,0.75,,,,,,,,,,,,,,,,,,,,,,,,,,,,,,,,,,,,,,,,,,,,,
,,,,,V3_068,19,Female,2024-11-16_16h19.50.742,jersey_experiment_5_v3,2023.2.2,Win32,85.47008547,,,,,,,,,,,,,,,,199.7049,201.2579,201.2579,202.046,return,0.1332,,45.18229167,0,57,57,16,1,FBP-PT-17.png,0.37,1.2,17,0.75,,,,,,,,,,,,,,,,,,,,,,,,,,,,,,,,,,,,,,,,,,,,,
,,,,,V3_068,19,Female,2024-11-16_16h19.50.742,jersey_experiment_5_v3,2023.2.2,Win32,85.47008547,,,,,,,,,,,,,,,,202.0462,203.5989,203.5989,204.0813,return,0.165,,44.140625,0,58,58,22,1,FBP-PT-18.png,0.4,1.2,23,0.75,,,,,,,,,,,,,,,,,,,,,,,,,,,,,,,,,,,,,,,,,,,,,
,,,,,V3_068,19,Female,2024-11-16_16h19.50.742,jersey_experiment_5_v3,2023.2.2,Win32,85.47008547,,,,,,,,,,,,,,,,204.0816,205.3753,205.3754,206.2813,return,0.1211,,33.07291667,0,59,59,36,1,FBP-OG-18.png,0.37,1.2,37,0.5,,,,,,,,,,,,,,,,,,,,,,,,,,,,,,,,,,,,,,,,,,,,,
,,,,,V3_068,19,Female,2024-11-16_16h19.50.742,jersey_experiment_5_v3,2023.2.2,Win32,85.47008547,,,,,,,,,,,,,,,,206.2828,207.8344,207.8345,208.6462,return,0.0866,,70.83333333,,,,,,FBP-PT-81.png,0.45,1.2,25,0.75,0,0,0,24,1,,,,,,,,,,,,,,,,,,,,,,,,,,,,,,,,,,,,,,,,
,,,,,V3_068,19,Female,2024-11-16_16h19.50.742,jersey_experiment_5_v3,2023.2.2,Win32,85.47008547,,,,,,,,,,,,,,,,208.6465,209.9405,209.9406,211.258,return,0.6245,,35.67708333,,,,,,FBP-OG-91.png,0.37,1.2,42,0.5,0,1,1,41,1,,,,,,,,,,,,,,,,,,,,,,,,,,,,,,,,,,,,,,,,
,,,,,V3_068,19,Female,2024-11-16_16h19.50.742,jersey_experiment_5_v3,2023.2.2,Win32,85.47008547,,,,,,,,,,,,,,,,211.2583,212.8113,212.8113,213.5287,return,0.1671,,60.28645833,,,,,,FBP-YG-19.png,0.37,1.2,12,0.75,0,2,2,11,1,,,,,,,,,,,,,,,,,,,,,,,,,,,,,,,,,,,,,,,,
,,,,,V3_068,19,Female,2024-11-16_16h19.50.742,jersey_experiment_5_v3,2023.2.2,Win32,85.47008547,,,,,,,,,,,,,,,,213.5289,215.0818,215.0818,215.6699,return,0.1956,,63.80208333,,,,,,FBP-YG-18.png,0.4,1.2,8,0.75,0,3,3,7,1,,,,,,,,,,,,,,,,,,,,,,,,,,,,,,,,,,,,,,,,
,,,,,V3_068,19,Female,2024-11-16_16h19.50.742,jersey_experiment_5_v3,2023.2.2,Win32,85.47008547,,,,,,,,,,,,,,,,215.6702,217.223,217.223,218.023,return,0.1456,,74.08854167,,,,,,FBP-PT-71.png,0.4,1.2,18,0.75,0,4,4,17,1,,,,,,,,,,,,,,,,,,,,,,,,,,,,,,,,,,,,,,,,
,,,,,V3_068,19,Female,2024-11-16_16h19.50.742,jersey_experiment_5_v3,2023.2.2,Win32,85.47008547,,,,,,,,,,,,,,,,218.0232,219.576,219.5761,220.0584,return,0.1323,,74.08854167,,,,,,FBP-YG-17.png,0.4,1.2,3,0.75,0,5,5,2,1,,,,,,,,,,,,,,,,,,,,,,,,,,,,,,,,,,,,,,,,
,,,,,V3_068,19,Female,2024-11-16_16h19.50.742,jersey_experiment_5_v3,2023.2.2,Win32,85.47008547,,,,,,,,,,,,,,,,220.0587,221.6114,221.6114,222.4585,return,0.098,,79.94791667,,,,,,FBP-PT-91.png,0.43,1.2,29,0.75,0,6,6,28,1,,,,,,,,,,,,,,,,,,,,,,,,,,,,,,,,,,,,,,,,
,,,,,V3_068,19,Female,2024-11-16_16h19.50.742,jersey_experiment_5_v3,2023.2.2,Win32,85.47008547,,,,,,,,,,,,,,,,222.4587,224.0117,224.0117,225.1526,return,0.6274,,50.13020833,,,,,,FBP-RB-91.png,0.35,1.2,56,0.75,0,7,7,55,1,,,,,,,,,,,,,,,,,,,,,,,,,,,,,,,,,,,,,,,,
,,,,,V3_068,19,Female,2024-11-16_16h19.50.742,jersey_experiment_5_v3,2023.2.2,Win32,85.47008547,,,,,,,,,,,,,,,,225.1529,226.4469,226.447,227.3881,return,0.1416,,75,,,,,,FBP-OG-71.png,0.45,1.2,35,0.5,0,8,8,34,1,,,,,,,,,,,,,,,,,,,,,,,,,,,,,,,,,,,,,,,,
,,,,,V3_068,19,Female,2024-11-16_16h19.50.742,jersey_experiment_5_v3,2023.2.2,Win32,85.47008547,,,,,,,,,,,,,,,,227.3883,228.9409,228.941,230.0117,return,0.544,,75,,,,,,FBP-RB-91.png,0.4,1.2,58,0.75,0,9,9,57,1,,,,,,,,,,,,,,,,,,,,,,,,,,,,,,,,,,,,,,,,
,,,,,V3_068,19,Female,2024-11-16_16h19.50.742,jersey_experiment_5_v3,2023.2.2,Win32,85.47008547,,,,,,,,,,,,,,,,230.0118,231.3057,231.3057,232.3647,return,0.2605,,49.609375,,,,,,FBP-OG-91.png,0.35,1.2,41,0.5,0,10,10,40,1,,,,,,,,,,,,,,,,,,,,,,,,,,,,,,,,,,,,,,,,
,,,,,V3_068,19,Female,2024-11-16_16h19.50.742,jersey_experiment_5_v3,2023.2.2,Win32,85.47008547,,,,,,,,,,,,,,,,232.3651,233.6589,233.6589,234.4943,return,0.2018,,61.71875,,,,,,FBP-OG-71.png,0.4,1.2,33,0.5,0,11,11,32,1,,,,,,,,,,,,,,,,,,,,,,,,,,,,,,,,,,,,,,,,
,,,,,V3_068,19,Female,2024-11-16_16h19.50.742,jersey_experiment_5_v3,2023.2.2,Win32,85.47008547,,,,,,,,,,,,,,,,234.4945,236.0473,236.0474,236.6237,return,0.165,,82.55208333,,,,,,FBP-RB-71.png,0.45,1.2,50,0.75,0,12,12,49,1,,,,,,,,,,,,,,,,,,,,,,,,,,,,,,,,,,,,,,,,
,,,,,V3_068,19,Female,2024-11-16_16h19.50.742,jersey_experiment_5_v3,2023.2.2,Win32,85.47008547,,,,,,,,,,,,,,,,236.624,238.1766,238.1767,238.9414,return,0.0448,,74.47916667,,,,,,FBP-PT-81.png,0.4,1.2,23,0.75,0,13,13,22,1,,,,,,,,,,,,,,,,,,,,,,,,,,,,,,,,,,,,,,,,
,,,,,V3_068,19,Female,2024-11-16_16h19.50.742,jersey_experiment_5_v3,2023.2.2,Win32,85.47008547,,,,,,,,,,,,,,,,238.9416,240.2356,240.2356,240.9886,return,0.1567,,74.21875,,,,,,FBP-OG-81.png,0.4,1.2,38,0.5,0,14,14,37,1,,,,,,,,,,,,,,,,,,,,,,,,,,,,,,,,,,,,,,,,
,,,,,V3_068,19,Female,2024-11-16_16h19.50.742,jersey_experiment_5_v3,2023.2.2,Win32,85.47008547,,,,,,,,,,,,,,,,240.9889,242.5415,242.5416,243.3769,return,0.1024,,66.015625,,,,,,FBP-YG-17.png,0.35,1.2,1,0.75,0,15,15,0,1,,,,,,,,,,,,,,,,,,,,,,,,,,,,,,,,,,,,,,,,
,,,,,V3_068,19,Female,2024-11-16_16h19.50.742,jersey_experiment_5_v3,2023.2.2,Win32,85.47008547,,,,,,,,,,,,,,,,243.3771,244.671,244.671,245.5416,return,0.2206,,80.46875,,,,,,FBP-OG-91.png,0.45,1.2,45,0.5,0,16,16,44,1,,,,,,,,,,,,,,,,,,,,,,,,,,,,,,,,,,,,,,,,
,,,,,V3_068,19,Female,2024-11-16_16h19.50.742,jersey_experiment_5_v3,2023.2.2,Win32,85.47008547,,,,,,,,,,,,,,,,245.5418,247.083,247.083,247.6123,return,0.1762,,87.890625,,,,,,FBP-RB-91.png,0.45,1.2,60,0.75,0,17,17,59,1,,,,,,,,,,,,,,,,,,,,,,,,,,,,,,,,,,,,,,,,
,,,,,V3_068,19,Female,2024-11-16_16h19.50.742,jersey_experiment_5_v3,2023.2.2,Win32,85.47008547,,,,,,,,,,,,,,,,247.6127,249.1652,249.1653,249.5182,return,0.1747,,89.71354167,,,,,,FBP-RB-81.png,0.43,1.2,54,0.75,0,18,18,53,1,,,,,,,,,,,,,,,,,,,,,,,,,,,,,,,,,,,,,,,,
,,,,,V3_068,19,Female,2024-11-16_16h19.50.742,jersey_experiment_5_v3,2023.2.2,Win32,85.47008547,,,,,,,,,,,,,,,,249.5184,251.0713,251.0713,251.742,return,0.1327,,66.92708333,,,,,,FBP-PT-91.png,0.35,1.2,26,0.75,0,19,19,25,1,,,,,,,,,,,,,,,,,,,,,,,,,,,,,,,,,,,,,,,,
,,,,,V3_068,19,Female,2024-11-16_16h19.50.742,jersey_experiment_5_v3,2023.2.2,Win32,85.47008547,,,,,,,,,,,,,,,,251.7422,253.0361,253.0362,254.2361,return,0.0243,,36.06770833,,,,,,FBP-OG-71.png,0.35,1.2,31,0.5,0,20,20,30,1,,,,,,,,,,,,,,,,,,,,,,,,,,,,,,,,,,,,,,,,
,,,,,V3_068,19,Female,2024-11-16_16h19.50.742,jersey_experiment_5_v3,2023.2.2,Win32,85.47008547,,,,,,,,,,,,,,,,254.2364,255.7894,255.7894,256.5185,return,0.114,,75.390625,,,,,,FBP-YG-19.png,0.45,1.2,15,0.75,0,21,21,14,1,,,,,,,,,,,,,,,,,,,,,,,,,,,,,,,,,,,,,,,,
,,,,,V3_068,19,Female,2024-11-16_16h19.50.742,jersey_experiment_5_v3,2023.2.2,Win32,85.47008547,,,,,,,,,,,,,,,,256.5188,258.0718,258.0718,259.1422,return,0.3696,,53.90625,,,,,,FBP-PT-71.png,0.37,1.2,17,0.75,0,22,22,16,1,,,,,,,,,,,,,,,,,,,,,,,,,,,,,,,,,,,,,,,,
,,,,,V3_068,19,Female,2024-11-16_16h19.50.742,jersey_experiment_5_v3,2023.2.2,Win32,85.47008547,,,,,,,,,,,,,,,,259.1424,260.6952,260.6953,261.4835,return,0.1325,,76.04166667,,,,,,FBP-PT-71.png,0.43,1.2,19,0.75,0,23,23,18,1,,,,,,,,,,,,,,,,,,,,,,,,,,,,,,,,,,,,,,,,
,,,,,V3_068,19,Female,2024-11-16_16h19.50.742,jersey_experiment_5_v3,2023.2.2,Win32,85.47008547,,,,,,,,,,,,,,,,261.4838,263.0364,263.0364,263.5305,return,0.0263,,77.734375,,,,,,FBP-PT-71.png,0.45,1.2,20,0.75,0,24,24,19,1,,,,,,,,,,,,,,,,,,,,,,,,,,,,,,,,,,,,,,,,
,,,,,V3_068,19,Female,2024-11-16_16h19.50.742,jersey_experiment_5_v3,2023.2.2,Win32,85.47008547,,,,,,,,,,,,,,,,263.5306,265.0719,265.0719,265.6484,return,0.1327,,63.02083333,,,,,,FBP-RB-81.png,0.37,1.2,52,0.75,0,25,25,51,1,,,,,,,,,,,,,,,,,,,,,,,,,,,,,,,,,,,,,,,,
,,,,,V3_068,19,Female,2024-11-16_16h19.50.742,jersey_experiment_5_v3,2023.2.2,Win32,85.47008547,,,,,,,,,,,,,,,,265.6486,267.2014,267.2014,267.7895,return,0.2117,,57.421875,,,,,,FBP-PT-81.png,0.35,1.2,21,0.75,0,26,26,20,1,,,,,,,,,,,,,,,,,,,,,,,,,,,,,,,,,,,,,,,,
,,,,,V3_068,19,Female,2024-11-16_16h19.50.742,jersey_experiment_5_v3,2023.2.2,Win32,85.47008547,,,,,,,,,,,,,,,,267.7897,269.0837,269.0838,270.2955,return,0.642,,75.78125,,,,,,FBP-OG-81.png,0.45,1.2,40,0.5,0,27,27,39,1,,,,,,,,,,,,,,,,,,,,,,,,,,,,,,,,,,,,,,,,
,,,,,V3_068,19,Female,2024-11-16_16h19.50.742,jersey_experiment_5_v3,2023.2.2,Win32,85.47008547,,,,,,,,,,,,,,,,270.2957,271.8487,271.8487,272.4485,return,0.1179,,77.21354167,,,,,,FBP-PT-91.png,0.45,1.2,30,0.75,0,28,28,29,1,,,,,,,,,,,,,,,,,,,,,,,,,,,,,,,,,,,,,,,,
,,,,,V3_068,19,Female,2024-11-16_16h19.50.742,jersey_experiment_5_v3,2023.2.2,Win32,85.47008547,,,,,,,,,,,,,,,,272.4488,274.0016,274.0016,274.7427,return,0.196,,82.8125,,,,,,FBP-PT-81.png,0.43,1.2,24,0.75,0,29,29,23,1,,,,,,,,,,,,,,,,,,,,,,,,,,,,,,,,,,,,,,,,
,,,,,V3_068,19,Female,2024-11-16_16h19.50.742,jersey_experiment_5_v3,2023.2.2,Win32,85.47008547,,,,,,,,,,,,,,,,274.743,276.2959,276.2959,277.0369,return,0.1312,,51.69270833,,,,,,FBP-RB-81.png,0.35,1.2,51,0.75,0,30,30,50,1,,,,,,,,,,,,,,,,,,,,,,,,,,,,,,,,,,,,,,,,
,,,,,V3_068,19,Female,2024-11-16_16h19.50.742,jersey_experiment_5_v3,2023.2.2,Win32,85.47008547,,,,,,,,,,,,,,,,277.0372,278.59,278.59,279.9664,return,0.8001,,63.41145833,,,,,,FBP-RB-71.png,0.4,1.2,48,0.75,0,31,31,47,1,,,,,,,,,,,,,,,,,,,,,,,,,,,,,,,,,,,,,,,,
,,,,,V3_068,19,Female,2024-11-16_16h19.50.742,jersey_experiment_5_v3,2023.2.2,Win32,85.47008547,,,,,,,,,,,,,,,,279.9668,281.2607,281.2607,282.296,return,0.1946,,83.85416667,,,,,,FBP-OG-71.png,0.43,1.2,34,0.5,0,32,32,33,1,,,,,,,,,,,,,,,,,,,,,,,,,,,,,,,,,,,,,,,,
,,,,,V3_068,19,Female,2024-11-16_16h19.50.742,jersey_experiment_5_v3,2023.2.2,Win32,85.47008547,,,,,,,,,,,,,,,,282.2962,283.8489,283.849,284.8724,return,0.159,,61.97916667,,,,,,FBP-RB-91.png,0.37,1.2,57,0.75,0,33,33,56,1,,,,,,,,,,,,,,,,,,,,,,,,,,,,,,,,,,,,,,,,
,,,,,V3_068,19,Female,2024-11-16_16h19.50.742,jersey_experiment_5_v3,2023.2.2,Win32,85.47008547,,,,,,,,,,,,,,,,284.8726,286.4255,286.4256,287.3432,return,0.0715,,61.84895833,,,,,,FBP-PT-91.png,0.37,1.2,27,0.75,0,34,34,26,1,,,,,,,,,,,,,,,,,,,,,,,,,,,,,,,,,,,,,,,,
,,,,,V3_068,19,Female,2024-11-16_16h19.50.742,jersey_experiment_5_v3,2023.2.2,Win32,85.47008547,,,,,,,,,,,,,,,,287.3435,288.8962,288.8963,289.6491,return,0.1171,,77.86458333,,,,,,FBP-RB-81.png,0.4,1.2,53,0.75,0,35,35,52,1,,,,,,,,,,,,,,,,,,,,,,,,,,,,,,,,,,,,,,,,
,,,,,V3_068,19,Female,2024-11-16_16h19.50.742,jersey_experiment_5_v3,2023.2.2,Win32,85.47008547,,,,,,,,,,,,,,,,289.6494,291.2024,291.2024,291.6729,return,0.1118,,86.06770833,,,,,,FBP-RB-71.png,0.43,1.2,49,0.75,0,36,36,48,1,,,,,,,,,,,,,,,,,,,,,,,,,,,,,,,,,,,,,,,,
,,,,,V3_068,19,Female,2024-11-16_16h19.50.742,jersey_experiment_5_v3,2023.2.2,Win32,85.47008547,,,,,,,,,,,,,,,,291.6731,293.2258,293.2259,294.3199,return,0.6693,,95.57291667,,,,,,FBP-RB-81.png,0.45,1.2,55,0.75,0,37,37,54,1,,,,,,,,,,,,,,,,,,,,,,,,,,,,,,,,,,,,,,,,
,,,,,V3_068,19,Female,2024-11-16_16h19.50.742,jersey_experiment_5_v3,2023.2.2,Win32,85.47008547,,,,,,,,,,,,,,,,294.3202,295.8728,295.8729,297.8849,return,1.3789,,62.36979167,,,,,,FBP-YG-19.png,0.4,1.2,13,0.75,0,38,38,12,1,,,,,,,,,,,,,,,,,,,,,,,,,,,,,,,,,,,,,,,,
,,,,,V3_068,19,Female,2024-11-16_16h19.50.742,jersey_experiment_5_v3,2023.2.2,Win32,85.47008547,,,,,,,,,,,,,,,,297.8851,299.179,299.1791,299.7083,return,0.0493,,61.71875,,,,,,FBP-OG-71.png,0.37,1.2,32,0.5,0,39,39,31,1,,,,,,,,,,,,,,,,,,,,,,,,,,,,,,,,,,,,,,,,
,,,,,V3_068,19,Female,2024-11-16_16h19.50.742,jersey_experiment_5_v3,2023.2.2,Win32,85.47008547,,,,,,,,,,,,,,,,299.7085,301.2499,301.2499,302.1909,return,0.5864,,54.94791667,,,,,,FBP-RB-71.png,0.37,1.2,47,0.75,0,40,40,46,1,,,,,,,,,,,,,,,,,,,,,,,,,,,,,,,,,,,,,,,,
,,,,,V3_068,19,Female,2024-11-16_16h19.50.742,jersey_experiment_5_v3,2023.2.2,Win32,85.47008547,,,,,,,,,,,,,,,,302.1912,303.485,303.485,303.9793,return,0.1798,,55.33854167,,,,,,FBP-OG-91.png,0.4,1.2,43,0.5,0,41,41,42,1,,,,,,,,,,,,,,,,,,,,,,,,,,,,,,,,,,,,,,,,
,,,,,V3_068,19,Female,2024-11-16_16h19.50.742,jersey_experiment_5_v3,2023.2.2,Win32,85.47008547,,,,,,,,,,,,,,,,303.9795,305.5321,305.5321,306.0733,return,0.1581,,53.90625,,,,,,FBP-YG-18.png,0.35,1.2,6,0.75,0,42,42,5,1,,,,,,,,,,,,,,,,,,,,,,,,,,,,,,,,,,,,,,,,
,,,,,V3_068,19,Female,2024-11-16_16h19.50.742,jersey_experiment_5_v3,2023.2.2,Win32,85.47008547,,,,,,,,,,,,,,,,306.0736,307.3674,307.3675,308.2968,return,0.1701,,59.24479167,,,,,,FBP-OG-81.png,0.43,1.2,39,0.5,0,43,43,38,1,,,,,,,,,,,,,,,,,,,,,,,,,,,,,,,,,,,,,,,,
,,,,,V3_068,19,Female,2024-11-16_16h19.50.742,jersey_experiment_5_v3,2023.2.2,Win32,85.47008547,,,,,,,,,,,,,,,,308.2971,309.8499,309.85,310.3911,return,0.1568,,61.58854167,,,,,,FBP-YG-17.png,0.37,1.2,2,0.75,0,44,44,1,1,,,,,,,,,,,,,,,,,,,,,,,,,,,,,,,,,,,,,,,,
,,,,,V3_068,19,Female,2024-11-16_16h19.50.742,jersey_experiment_5_v3,2023.2.2,Win32,85.47008547,,,,,,,,,,,,,,,,310.3913,311.9326,311.9326,312.5089,return,0.1531,,70.57291667,,,,,,FBP-YG-18.png,0.43,1.2,9,0.75,0,45,45,8,1,,,,,,,,,,,,,,,,,,,,,,,,,,,,,,,,,,,,,,,,
,,,,,V3_068,19,Female,2024-11-16_16h19.50.742,jersey_experiment_5_v3,2023.2.2,Win32,85.47008547,,,,,,,,,,,,,,,,312.5092,314.0619,314.0619,314.8148,return,0.2591,,76.04166667,,,,,,FBP-RB-91.png,0.43,1.2,59,0.75,0,46,46,58,1,,,,,,,,,,,,,,,,,,,,,,,,,,,,,,,,,,,,,,,,
,,,,,V3_068,19,Female,2024-11-16_16h19.50.742,jersey_experiment_5_v3,2023.2.2,Win32,85.47008547,,,,,,,,,,,,,,,,314.8152,316.3678,316.3679,317.0385,return,0.1435,,83.07291667,,,,,,FBP-YG-17.png,0.43,1.2,4,0.75,0,47,47,3,1,,,,,,,,,,,,,,,,,,,,,,,,,,,,,,,,,,,,,,,,
,,,,,V3_068,19,Female,2024-11-16_16h19.50.742,jersey_experiment_5_v3,2023.2.2,Win32,85.47008547,,,,,,,,,,,,,,,,317.0387,318.5917,318.5917,319.4385,return,0.1327,,74.86979167,,,,,,FBP-YG-19.png,0.35,1.2,11,0.75,0,48,48,10,1,,,,,,,,,,,,,,,,,,,,,,,,,,,,,,,,,,,,,,,,
,,,,,V3_068,19,Female,2024-11-16_16h19.50.742,jersey_experiment_5_v3,2023.2.2,Win32,85.47008547,,,,,,,,,,,,,,,,319.4387,320.9916,320.9917,321.615,return,0.1643,,66.92708333,,,,,,FBP-RB-71.png,0.35,1.2,46,0.75,0,49,49,45,1,,,,,,,,,,,,,,,,,,,,,,,,,,,,,,,,,,,,,,,,
,,,,,V3_068,19,Female,2024-11-16_16h19.50.742,jersey_experiment_5_v3,2023.2.2,Win32,85.47008547,,,,,,,,,,,,,,,,321.6153,323.1682,323.1683,324.1211,return,0.5442,,86.97916667,,,,,,FBP-YG-17.png,0.45,1.2,5,0.75,0,50,50,4,1,,,,,,,,,,,,,,,,,,,,,,,,,,,,,,,,,,,,,,,,
,,,,,V3_068,19,Female,2024-11-16_16h19.50.742,jersey_experiment_5_v3,2023.2.2,Win32,85.47008547,,,,,,,,,,,,,,,,324.1213,325.4154,325.4154,327.3683,return,0.1933,,56.51041667,,,,,,FBP-OG-81.png,0.37,1.2,37,0.5,0,51,51,36,1,,,,,,,,,,,,,,,,,,,,,,,,,,,,,,,,,,,,,,,,
,,,,,V3_068,19,Female,2024-11-16_16h19.50.742,jersey_experiment_5_v3,2023.2.2,Win32,85.47008547,,,,,,,,,,,,,,,,327.3685,328.6623,328.6624,329.2389,return,0.1569,,55.33854167,,,,,,FBP-OG-81.png,0.35,1.2,36,0.5,0,52,52,35,1,,,,,,,,,,,,,,,,,,,,,,,,,,,,,,,,,,,,,,,,
,,,,,V3_068,19,Female,2024-11-16_16h19.50.742,jersey_experiment_5_v3,2023.2.2,Win32,85.47008547,,,,,,,,,,,,,,,,329.2391,330.792,330.792,331.5449,return,0.1346,,68.359375,,,,,,FBP-YG-18.png,0.37,1.2,7,0.75,0,53,53,6,1,,,,,,,,,,,,,,,,,,,,,,,,,,,,,,,,,,,,,,,,
,,,,,V3_068,19,Female,2024-11-16_16h19.50.742,jersey_experiment_5_v3,2023.2.2,Win32,85.47008547,,,,,,,,,,,,,,,,331.5451,333.0978,333.0978,334.0273,return,0.1559,,75.65104167,,,,,,FBP-PT-81.png,0.37,1.2,22,0.75,0,54,54,21,1,,,,,,,,,,,,,,,,,,,,,,,,,,,,,,,,,,,,,,,,
,,,,,V3_068,19,Female,2024-11-16_16h19.50.742,jersey_experiment_5_v3,2023.2.2,Win32,85.47008547,,,,,,,,,,,,,,,,334.0276,335.5802,335.5802,335.9451,return,0.1784,,75.65104167,,,,,,FBP-PT-71.png,0.35,1.2,16,0.75,0,55,55,15,1,,,,,,,,,,,,,,,,,,,,,,,,,,,,,,,,,,,,,,,,
,,,,,V3_068,19,Female,2024-11-16_16h19.50.742,jersey_experiment_5_v3,2023.2.2,Win32,85.47008547,,,,,,,,,,,,,,,,335.9452,337.4982,337.4982,337.9334,return,0.1304,,81.51041667,,,,,,FBP-PT-91.png,0.4,1.2,28,0.75,0,56,56,27,1,,,,,,,,,,,,,,,,,,,,,,,,,,,,,,,,,,,,,,,,
,,,,,V3_068,19,Female,2024-11-16_16h19.50.742,jersey_experiment_5_v3,2023.2.2,Win32,85.47008547,,,,,,,,,,,,,,,,337.9337,339.4866,339.4867,340.5452,return,0.6277,,87.109375,,,,,,FBP-YG-19.png,0.43,1.2,14,0.75,0,57,57,13,1,,,,,,,,,,,,,,,,,,,,,,,,,,,,,,,,,,,,,,,,
,,,,,V3_068,19,Female,2024-11-16_16h19.50.742,jersey_experiment_5_v3,2023.2.2,Win32,85.47008547,,,,,,,,,,,,,,,,340.5455,342.0982,342.0982,342.6041,return,0.1672,,91.40625,,,,,,FBP-YG-18.png,0.45,1.2,10,0.75,0,58,58,9,1,,,,,,,,,,,,,,,,,,,,,,,,,,,,,,,,,,,,,,,,
,,,,,V3_068,19,Female,2024-11-16_16h19.50.742,jersey_experiment_5_v3,2023.2.2,Win32,85.47008547,,,,,,,,,,,,,,,,342.6043,343.8982,343.8982,344.4277,return,0.3763,,97.39583333,,,,,,FBP-OG-91.png,0.43,1.2,44,0.5,0,59,59,43,1,,,,,,,,,,,,,,,,,,,,,,,,,,,,,,,,,,,,,,,,
,,,,,V3_068,19,Female,2024-11-16_16h19.50.742,jersey_experiment_5_v3,2023.2.2,Win32,85.47008547,,,,,,,,,,,,,,,,,,,,,,,,,,,,,,,,,,,,,,,344.4279,464.4206,,,,,,,,,,,,,,,,,,,,,,,,,,,,,,,,,,,,,,
,,,,,V3_068,19,Female,2024-11-16_16h19.50.742,jersey_experiment_5_v3,2023.2.2,Win32,85.47008547,,,,,,,,,,,,,,,,,,,,,,,,,,,,,,,,,,,,,,,,,464.4208,494.7511,return,30.3139,,,,,,,,,,,,,,,,,,,,,,,,,,,,,,,,,,
,,,,,V3_068,19,Female,2024-11-16_16h19.50.742,jersey_experiment_5_v3,2023.2.2,Win32,85.47008547,,,,,,,,,,,,,,,,494.7527,496.0451,496.0451,504.5278,return,7.0356,,72.78645833,,,,,,FBP-YG-91.png,0.45,1.2,15,0.5,,,,,,,,,,,,,0,0,0,14,1,,,,,,,,,,,,,,,,,,,,,,,,,,,,
,,,,,V3_068,19,Female,2024-11-16_16h19.50.742,jersey_experiment_5_v3,2023.2.2,Win32,85.47008547,,,,,,,,,,,,,,,,504.5282,506.0808,506.0808,506.9749,return,0.2102,,58.33333333,,,,,,FBP-OG-18.png,0.4,1.2,38,0.75,,,,,,,,,,,,,0,1,1,37,1,,,,,,,,,,,,,,,,,,,,,,,,,,,,
,,,,,V3_068,19,Female,2024-11-16_16h19.50.742,jersey_experiment_5_v3,2023.2.2,Win32,85.47008547,,,,,,,,,,,,,,,,506.9752,508.2692,508.2693,509.0574,return,0.2454,,72.65625,,,,,,FBP-YG-81.png,0.45,1.2,10,0.5,,,,,,,,,,,,,0,2,2,9,1,,,,,,,,,,,,,,,,,,,,,,,,,,,,
,,,,,V3_068,19,Female,2024-11-16_16h19.50.742,jersey_experiment_5_v3,2023.2.2,Win32,85.47008547,,,,,,,,,,,,,,,,509.0577,510.3514,510.3514,511.1044,return,0.1184,,75.26041667,,,,,,FBP-PT-18.png,0.43,1.2,24,0.5,,,,,,,,,,,,,0,3,3,23,1,,,,,,,,,,,,,,,,,,,,,,,,,,,,
,,,,,V3_068,19,Female,2024-11-16_16h19.50.742,jersey_experiment_5_v3,2023.2.2,Win32,85.47008547,,,,,,,,,,,,,,,,511.1047,512.6575,512.6575,513.4457,return,0.6425,,62.890625,,,,,,FBP-OG-19.png,0.35,1.2,41,0.75,,,,,,,,,,,,,0,4,4,40,1,,,,,,,,,,,,,,,,,,,,,,,,,,,,
,,,,,V3_068,19,Female,2024-11-16_16h19.50.742,jersey_experiment_5_v3,2023.2.2,Win32,85.47008547,,,,,,,,,,,,,,,,513.4458,514.9871,514.9871,515.6459,return,0.1047,,55.98958333,,,,,,FBP-OG-17.png,0.37,1.2,32,0.75,,,,,,,,,,,,,0,5,5,31,1,,,,,,,,,,,,,,,,,,,,,,,,,,,,
,,,,,V3_068,19,Female,2024-11-16_16h19.50.742,jersey_experiment_5_v3,2023.2.2,Win32,85.47008547,,,,,,,,,,,,,,,,515.6462,516.9398,516.9399,517.6575,return,0.0956,,61.58854167,,,,,,FBP-RB-17.png,0.35,1.2,46,0.5,,,,,,,,,,,,,0,6,6,45,1,,,,,,,,,,,,,,,,,,,,,,,,,,,,
,,,,,V3_068,19,Female,2024-11-16_16h19.50.742,jersey_experiment_5_v3,2023.2.2,Win32,85.47008547,,,,,,,,,,,,,,,,517.6578,519.211,519.211,519.7401,return,0.1668,,74.609375,,,,,,FBP-OG-17.png,0.45,1.2,35,0.75,,,,,,,,,,,,,0,7,7,34,1,,,,,,,,,,,,,,,,,,,,,,,,,,,,
,,,,,V3_068,19,Female,2024-11-16_16h19.50.742,jersey_experiment_5_v3,2023.2.2,Win32,85.47008547,,,,,,,,,,,,,,,,519.7405,521.0342,521.0342,521.5518,return,0.1502,,78.25520833,,,,,,FBP-PT-18.png,0.4,1.2,23,0.5,,,,,,,,,,,,,0,8,8,22,1,,,,,,,,,,,,,,,,,,,,,,,,,,,,
,,,,,V3_068,19,Female,2024-11-16_16h19.50.742,jersey_experiment_5_v3,2023.2.2,Win32,85.47008547,,,,,,,,,,,,,,,,521.552,522.8462,522.8462,523.8461,return,0.4672,,66.015625,,,,,,FBP-PT-18.png,0.35,1.2,21,0.5,,,,,,,,,,,,,0,9,9,20,1,,,,,,,,,,,,,,,,,,,,,,,,,,,,
,,,,,V3_068,19,Female,2024-11-16_16h19.50.742,jersey_experiment_5_v3,2023.2.2,Win32,85.47008547,,,,,,,,,,,,,,,,523.8463,525.1402,525.1402,526.1757,return,0.165,,74.609375,,,,,,FBP-RB-18.png,0.4,1.2,53,0.5,,,,,,,,,,,,,0,10,10,52,1,,,,,,,,,,,,,,,,,,,,,,,,,,,,
,,,,,V3_068,19,Female,2024-11-16_16h19.50.742,jersey_experiment_5_v3,2023.2.2,Win32,85.47008547,,,,,,,,,,,,,,,,526.1759,527.4697,527.4697,528.0698,return,0.197,,83.984375,,,,,,FBP-YG-71.png,0.43,1.2,4,0.5,,,,,,,,,,,,,0,11,11,3,1,,,,,,,,,,,,,,,,,,,,,,,,,,,,
,,,,,V3_068,19,Female,2024-11-16_16h19.50.742,jersey_experiment_5_v3,2023.2.2,Win32,85.47008547,,,,,,,,,,,,,,,,528.0702,529.3639,529.3639,530.4111,return,0.2267,,74.21875,,,,,,FBP-RB-18.png,0.37,1.2,52,0.5,,,,,,,,,,,,,0,12,12,51,1,,,,,,,,,,,,,,,,,,,,,,,,,,,,
,,,,,V3_068,19,Female,2024-11-16_16h19.50.742,jersey_experiment_5_v3,2023.2.2,Win32,85.47008547,,,,,,,,,,,,,,,,530.4113,531.7054,531.7055,532.3171,return,0.2142,,86.84895833,,,,,,FBP-RB-19.png,0.43,1.2,59,0.5,,,,,,,,,,,,,0,13,13,58,1,,,,,,,,,,,,,,,,,,,,,,,,,,,,
,,,,,V3_068,19,Female,2024-11-16_16h19.50.742,jersey_experiment_5_v3,2023.2.2,Win32,85.47008547,,,,,,,,,,,,,,,,532.3173,533.8702,533.8702,534.7525,return,0.1177,,61.97916667,,,,,,FBP-OG-18.png,0.35,1.2,36,0.75,,,,,,,,,,,,,0,14,14,35,1,,,,,,,,,,,,,,,,,,,,,,,,,,,,
,,,,,V3_068,19,Female,2024-11-16_16h19.50.742,jersey_experiment_5_v3,2023.2.2,Win32,85.47008547,,,,,,,,,,,,,,,,534.7528,536.0467,536.0467,536.7761,return,0.1241,,75.13020833,,,,,,FBP-PT-19.png,0.43,1.2,29,0.5,,,,,,,,,,,,,0,15,15,28,1,,,,,,,,,,,,,,,,,,,,,,,,,,,,
,,,,,V3_068,19,Female,2024-11-16_16h19.50.742,jersey_experiment_5_v3,2023.2.2,Win32,85.47008547,,,,,,,,,,,,,,,,536.7763,538.0701,538.0702,538.4466,return,0.1648,,75.13020833,,,,,,FBP-RB-17.png,0.4,1.2,48,0.5,,,,,,,,,,,,,0,16,16,47,1,,,,,,,,,,,,,,,,,,,,,,,,,,,,
,,,,,V3_068,19,Female,2024-11-16_16h19.50.742,jersey_experiment_5_v3,2023.2.2,Win32,85.47008547,,,,,,,,,,,,,,,,538.4468,539.7407,539.7407,540.635,return,0.1319,,67.44791667,,,,,,FBP-RB-19.png,0.37,1.2,57,0.5,,,,,,,,,,,,,0,17,17,56,1,,,,,,,,,,,,,,,,,,,,,,,,,,,,
,,,,,V3_068,19,Female,2024-11-16_16h19.50.742,jersey_experiment_5_v3,2023.2.2,Win32,85.47008547,,,,,,,,,,,,,,,,540.6352,541.9291,541.9292,543.1291,return,0.1574,,60.67708333,,,,,,FBP-YG-71.png,0.35,1.2,1,0.5,,,,,,,,,,,,,0,18,18,0,1,,,,,,,,,,,,,,,,,,,,,,,,,,,,
,,,,,V3_068,19,Female,2024-11-16_16h19.50.742,jersey_experiment_5_v3,2023.2.2,Win32,85.47008547,,,,,,,,,,,,,,,,543.1294,544.4233,544.4234,544.8233,return,0.1347,,61.06770833,,,,,,FBP-YG-71.png,0.37,1.2,2,0.5,,,,,,,,,,,,,0,19,19,1,1,,,,,,,,,,,,,,,,,,,,,,,,,,,,
,,,,,V3_068,19,Female,2024-11-16_16h19.50.742,jersey_experiment_5_v3,2023.2.2,Win32,85.47008547,,,,,,,,,,,,,,,,544.8235,546.1176,546.1176,547.294,return,0.5499,,85.41666667,,,,,,FBP-PT-19.png,0.45,1.2,30,0.5,,,,,,,,,,,,,0,20,20,29,1,,,,,,,,,,,,,,,,,,,,,,,,,,,,
,,,,,V3_068,19,Female,2024-11-16_16h19.50.742,jersey_experiment_5_v3,2023.2.2,Win32,85.47008547,,,,,,,,,,,,,,,,547.2944,548.5883,548.5883,549.5765,return,0.6518,,70.96354167,,,,,,FBP-PT-19.png,0.37,1.2,27,0.5,,,,,,,,,,,,,0,21,21,26,1,,,,,,,,,,,,,,,,,,,,,,,,,,,,
,,,,,V3_068,19,Female,2024-11-16_16h19.50.742,jersey_experiment_5_v3,2023.2.2,Win32,85.47008547,,,,,,,,,,,,,,,,549.5767,550.8705,550.8705,551.5764,return,0.1234,,85.02604167,,,,,,FBP-PT-17.png,0.45,1.2,20,0.5,,,,,,,,,,,,,0,22,22,19,1,,,,,,,,,,,,,,,,,,,,,,,,,,,,
,,,,,V3_068,19,Female,2024-11-16_16h19.50.742,jersey_experiment_5_v3,2023.2.2,Win32,85.47008547,,,,,,,,,,,,,,,,551.5767,553.1296,553.1297,554.0942,return,0.612,,73.56770833,,,,,,FBP-OG-17.png,0.4,1.2,33,0.75,,,,,,,,,,,,,0,23,23,32,1,,,,,,,,,,,,,,,,,,,,,,,,,,,,
,,,,,V3_068,19,Female,2024-11-16_16h19.50.742,jersey_experiment_5_v3,2023.2.2,Win32,85.47008547,,,,,,,,,,,,,,,,554.0945,555.3884,555.3885,556.0121,return,0.1887,,83.46354167,,,,,,FBP-RB-18.png,0.45,1.2,55,0.5,,,,,,,,,,,,,0,24,24,54,1,,,,,,,,,,,,,,,,,,,,,,,,,,,,
,,,,,V3_068,19,Female,2024-11-16_16h19.50.742,jersey_experiment_5_v3,2023.2.2,Win32,85.47008547,,,,,,,,,,,,,,,,556.0123,557.5652,557.5653,559.3415,return,0.6127,,54.6875,,,,,,FBP-OG-17.png,0.35,1.2,31,0.75,,,,,,,,,,,,,0,25,25,30,1,,,,,,,,,,,,,,,,,,,,,,,,,,,,
,,,,,V3_068,19,Female,2024-11-16_16h19.50.742,jersey_experiment_5_v3,2023.2.2,Win32,85.47008547,,,,,,,,,,,,,,,,559.3418,560.6357,560.6357,561.1298,return,0.1926,,54.94791667,,,,,,FBP-RB-19.png,0.35,1.2,56,0.5,,,,,,,,,,,,,0,26,26,55,1,,,,,,,,,,,,,,,,,,,,,,,,,,,,
,,,,,V3_068,19,Female,2024-11-16_16h19.50.742,jersey_experiment_5_v3,2023.2.2,Win32,85.47008547,,,,,,,,,,,,,,,,561.1302,562.683,562.683,563.4475,return,0.3791,,65.625,,,,,,FBP-OG-19.png,0.43,1.2,44,0.75,,,,,,,,,,,,,0,27,27,43,1,,,,,,,,,,,,,,,,,,,,,,,,,,,,
,,,,,V3_068,19,Female,2024-11-16_16h19.50.742,jersey_experiment_5_v3,2023.2.2,Win32,85.47008547,,,,,,,,,,,,,,,,563.4478,565.0005,565.0005,565.5183,return,0.1891,,69.66145833,,,,,,FBP-OG-19.png,0.4,1.2,43,0.75,,,,,,,,,,,,,0,28,28,42,1,,,,,,,,,,,,,,,,,,,,,,,,,,,,
,,,,,V3_068,19,Female,2024-11-16_16h19.50.742,jersey_experiment_5_v3,2023.2.2,Win32,85.47008547,,,,,,,,,,,,,,,,565.5186,566.8125,566.8125,567.4948,return,0.1224,,71.74479167,,,,,,FBP-RB-17.png,0.37,1.2,47,0.5,,,,,,,,,,,,,0,29,29,46,1,,,,,,,,,,,,,,,,,,,,,,,,,,,,
,,,,,V3_068,19,Female,2024-11-16_16h19.50.742,jersey_experiment_5_v3,2023.2.2,Win32,85.47008547,,,,,,,,,,,,,,,,567.4951,568.7889,568.7889,569.5185,return,0.0838,,81.25,,,,,,FBP-PT-17.png,0.43,1.2,19,0.5,,,,,,,,,,,,,0,30,30,18,1,,,,,,,,,,,,,,,,,,,,,,,,,,,,
,,,,,V3_068,19,Female,2024-11-16_16h19.50.742,jersey_experiment_5_v3,2023.2.2,Win32,85.47008547,,,,,,,,,,,,,,,,569.5187,570.8127,570.8128,571.4244,return,0.1102,,73.046875,,,,,,FBP-RB-19.png,0.4,1.2,58,0.5,,,,,,,,,,,,,0,31,31,57,1,,,,,,,,,,,,,,,,,,,,,,,,,,,,
,,,,,V3_068,19,Female,2024-11-16_16h19.50.742,jersey_experiment_5_v3,2023.2.2,Win32,85.47008547,,,,,,,,,,,,,,,,571.4247,572.7185,572.7185,573.2244,return,0.1473,,79.296875,,,,,,FBP-YG-91.png,0.43,1.2,14,0.5,,,,,,,,,,,,,0,32,32,13,1,,,,,,,,,,,,,,,,,,,,,,,,,,,,
,,,,,V3_068,19,Female,2024-11-16_16h19.50.742,jersey_experiment_5_v3,2023.2.2,Win32,85.47008547,,,,,,,,,,,,,,,,573.2247,574.5187,574.5188,575.0245,return,0.1915,,72.13541667,,,,,,FBP-PT-17.png,0.37,1.2,17,0.5,,,,,,,,,,,,,0,33,33,16,1,,,,,,,,,,,,,,,,,,,,,,,,,,,,
,,,,,V3_068,19,Female,2024-11-16_16h19.50.742,jersey_experiment_5_v3,2023.2.2,Win32,85.47008547,,,,,,,,,,,,,,,,575.0247,576.5775,576.5776,577.1305,return,0.2157,,71.484375,,,,,,FBP-OG-19.png,0.37,1.2,42,0.75,,,,,,,,,,,,,0,34,34,41,1,,,,,,,,,,,,,,,,,,,,,,,,,,,,
,,,,,V3_068,19,Female,2024-11-16_16h19.50.742,jersey_experiment_5_v3,2023.2.2,Win32,85.47008547,,,,,,,,,,,,,,,,577.1308,578.6835,578.6836,579.3187,return,0.1252,,84.63541667,,,,,,FBP-OG-18.png,0.45,1.2,40,0.75,,,,,,,,,,,,,0,35,35,39,1,,,,,,,,,,,,,,,,,,,,,,,,,,,,
,,,,,V3_068,19,Female,2024-11-16_16h19.50.742,jersey_experiment_5_v3,2023.2.2,Win32,85.47008547,,,,,,,,,,,,,,,,579.3191,580.6131,580.6131,581.2011,return,0.1883,,75.26041667,,,,,,FBP-RB-18.png,0.43,1.2,54,0.5,,,,,,,,,,,,,0,36,36,53,1,,,,,,,,,,,,,,,,,,,,,,,,,,,,
,,,,,V3_068,19,Female,2024-11-16_16h19.50.742,jersey_experiment_5_v3,2023.2.2,Win32,85.47008547,,,,,,,,,,,,,,,,581.2013,582.4953,582.4954,583.1777,return,0.2029,,81.640625,,,,,,FBP-RB-17.png,0.45,1.2,50,0.5,,,,,,,,,,,,,0,37,37,49,1,,,,,,,,,,,,,,,,,,,,,,,,,,,,
,,,,,V3_068,19,Female,2024-11-16_16h19.50.742,jersey_experiment_5_v3,2023.2.2,Win32,85.47008547,,,,,,,,,,,,,,,,583.1781,584.7306,584.7307,585.119,return,0.2497,,84.50520833,,,,,,FBP-OG-18.png,0.43,1.2,39,0.75,,,,,,,,,,,,,0,38,38,38,1,,,,,,,,,,,,,,,,,,,,,,,,,,,,
,,,,,V3_068,19,Female,2024-11-16_16h19.50.742,jersey_experiment_5_v3,2023.2.2,Win32,85.47008547,,,,,,,,,,,,,,,,585.1193,586.6718,586.6719,587.2485,return,0.1884,,80.98958333,,,,,,FBP-OG-19.png,0.45,1.2,45,0.75,,,,,,,,,,,,,0,39,39,44,1,,,,,,,,,,,,,,,,,,,,,,,,,,,,
,,,,,V3_068,19,Female,2024-11-16_16h19.50.742,jersey_experiment_5_v3,2023.2.2,Win32,85.47008547,,,,,,,,,,,,,,,,587.2488,588.5426,588.5427,589.0839,return,0.1285,,71.74479167,,,,,,FBP-YG-91.png,0.37,1.2,12,0.5,,,,,,,,,,,,,0,40,40,11,1,,,,,,,,,,,,,,,,,,,,,,,,,,,,
,,,,,V3_068,19,Female,2024-11-16_16h19.50.742,jersey_experiment_5_v3,2023.2.2,Win32,85.47008547,,,,,,,,,,,,,,,,589.0841,590.378,590.3781,591.8369,return,1.2956,,74.08854167,,,,,,FBP-PT-19.png,0.4,1.2,28,0.5,,,,,,,,,,,,,0,41,41,27,1,,,,,,,,,,,,,,,,,,,,,,,,,,,,
,,,,,V3_068,19,Female,2024-11-16_16h19.50.742,jersey_experiment_5_v3,2023.2.2,Win32,85.47008547,,,,,,,,,,,,,,,,591.8372,593.131,593.1311,593.5664,return,0.2259,,74.73958333,,,,,,FBP-PT-17.png,0.4,1.2,18,0.5,,,,,,,,,,,,,0,42,42,17,1,,,,,,,,,,,,,,,,,,,,,,,,,,,,
,,,,,V3_068,19,Female,2024-11-16_16h19.50.742,jersey_experiment_5_v3,2023.2.2,Win32,85.47008547,,,,,,,,,,,,,,,,593.5666,594.8605,594.8606,595.4841,return,0.2458,,74.73958333,,,,,,FBP-YG-81.png,0.4,1.2,8,0.5,,,,,,,,,,,,,0,43,43,7,1,,,,,,,,,,,,,,,,,,,,,,,,,,,,
,,,,,V3_068,19,Female,2024-11-16_16h19.50.742,jersey_experiment_5_v3,2023.2.2,Win32,85.47008547,,,,,,,,,,,,,,,,595.4844,596.7781,596.7782,597.8489,return,0.6292,,58.85416667,,,,,,FBP-PT-17.png,0.35,1.2,16,0.5,,,,,,,,,,,,,0,44,44,15,1,,,,,,,,,,,,,,,,,,,,,,,,,,,,
,,,,,V3_068,19,Female,2024-11-16_16h19.50.742,jersey_experiment_5_v3,2023.2.2,Win32,85.47008547,,,,,,,,,,,,,,,,597.8491,599.1429,599.1431,599.5901,return,0.1714,,59.24479167,,,,,,FBP-PT-18.png,0.37,1.2,22,0.5,,,,,,,,,,,,,0,45,45,21,1,,,,,,,,,,,,,,,,,,,,,,,,,,,,
,,,,,V3_068,19,Female,2024-11-16_16h19.50.742,jersey_experiment_5_v3,2023.2.2,Win32,85.47008547,,,,,,,,,,,,,,,,599.5903,600.8843,600.8844,601.3195,return,0.148,,59.63541667,,,,,,FBP-YG-81.png,0.37,1.2,7,0.5,,,,,,,,,,,,,0,46,46,6,1,,,,,,,,,,,,,,,,,,,,,,,,,,,,
,,,,,V3_068,19,Female,2024-11-16_16h19.50.742,jersey_experiment_5_v3,2023.2.2,Win32,85.47008547,,,,,,,,,,,,,,,,601.3198,602.6137,602.6137,603.1666,return,0.1902,,64.19270833,,,,,,FBP-YG-71.png,0.4,1.2,3,0.5,,,,,,,,,,,,,0,47,47,2,1,,,,,,,,,,,,,,,,,,,,,,,,,,,,
,,,,,V3_068,19,Female,2024-11-16_16h19.50.742,jersey_experiment_5_v3,2023.2.2,Win32,85.47008547,,,,,,,,,,,,,,,,603.1669,604.4609,604.461,605.3434,return,0.5414,,55.72916667,,,,,,FBP-RB-18.png,0.35,1.2,51,0.5,,,,,,,,,,,,,0,48,48,50,1,,,,,,,,,,,,,,,,,,,,,,,,,,,,
,,,,,V3_068,19,Female,2024-11-16_16h19.50.742,jersey_experiment_5_v3,2023.2.2,Win32,85.47008547,,,,,,,,,,,,,,,,605.3436,606.6373,606.6374,607.0963,return,0.2375,,56.25,,,,,,FBP-YG-81.png,0.35,1.2,6,0.5,,,,,,,,,,,,,0,49,49,5,1,,,,,,,,,,,,,,,,,,,,,,,,,,,,
,,,,,V3_068,19,Female,2024-11-16_16h19.50.742,jersey_experiment_5_v3,2023.2.2,Win32,85.47008547,,,,,,,,,,,,,,,,607.0966,608.3904,608.3904,609.214,return,0.1626,,66.92708333,,,,,,FBP-PT-19.png,0.35,1.2,26,0.5,,,,,,,,,,,,,0,50,50,25,1,,,,,,,,,,,,,,,,,,,,,,,,,,,,
,,,,,V3_068,19,Female,2024-11-16_16h19.50.742,jersey_experiment_5_v3,2023.2.2,Win32,85.47008547,,,,,,,,,,,,,,,,609.2141,610.5081,610.5081,611.1904,return,0.1609,,84.765625,,,,,,FBP-RB-17.png,0.43,1.2,49,0.5,,,,,,,,,,,,,0,51,51,48,1,,,,,,,,,,,,,,,,,,,,,,,,,,,,
,,,,,V3_068,19,Female,2024-11-16_16h19.50.742,jersey_experiment_5_v3,2023.2.2,Win32,85.47008547,,,,,,,,,,,,,,,,611.1907,612.7435,612.7435,613.4965,return,0.1587,,75,,,,,,FBP-OG-17.png,0.43,1.2,34,0.75,,,,,,,,,,,,,0,52,52,33,1,,,,,,,,,,,,,,,,,,,,,,,,,,,,
,,,,,V3_068,19,Female,2024-11-16_16h19.50.742,jersey_experiment_5_v3,2023.2.2,Win32,85.47008547,,,,,,,,,,,,,,,,613.4967,614.7909,614.7909,615.8141,return,0.0864,,86.328125,,,,,,FBP-PT-18.png,0.45,1.2,25,0.5,,,,,,,,,,,,,0,53,53,24,1,,,,,,,,,,,,,,,,,,,,,,,,,,,,
,,,,,V3_068,19,Female,2024-11-16_16h19.50.742,jersey_experiment_5_v3,2023.2.2,Win32,85.47008547,,,,,,,,,,,,,,,,615.8145,617.1084,617.1084,617.7202,return,0.0767,,90.10416667,,,,,,FBP-YG-81.png,0.43,1.2,9,0.5,,,,,,,,,,,,,0,54,54,8,1,,,,,,,,,,,,,,,,,,,,,,,,,,,,
,,,,,V3_068,19,Female,2024-11-16_16h19.50.742,jersey_experiment_5_v3,2023.2.2,Win32,85.47008547,,,,,,,,,,,,,,,,617.7204,619.0145,619.0145,619.6378,return,0.1613,,75.390625,,,,,,FBP-YG-91.png,0.35,1.2,11,0.5,,,,,,,,,,,,,0,55,55,10,1,,,,,,,,,,,,,,,,,,,,,,,,,,,,
,,,,,V3_068,19,Female,2024-11-16_16h19.50.742,jersey_experiment_5_v3,2023.2.2,Win32,85.47008547,,,,,,,,,,,,,,,,619.638,620.932,620.9321,621.5203,return,0.1176,,86.71875,,,,,,FBP-RB-19.png,0.45,1.2,60,0.5,,,,,,,,,,,,,0,56,56,59,1,,,,,,,,,,,,,,,,,,,,,,,,,,,,
,,,,,V3_068,19,Female,2024-11-16_16h19.50.742,jersey_experiment_5_v3,2023.2.2,Win32,85.47008547,,,,,,,,,,,,,,,,621.5205,622.8144,622.8145,623.3558,return,0.133,,86.71875,,,,,,FBP-YG-71.png,0.45,1.2,5,0.5,,,,,,,,,,,,,0,57,57,4,1,,,,,,,,,,,,,,,,,,,,,,,,,,,,
,,,,,V3_068,19,Female,2024-11-16_16h19.50.742,jersey_experiment_5_v3,2023.2.2,Win32,85.47008547,,,,,,,,,,,,,,,,623.356,624.9087,624.9088,625.7087,return,0.5905,,68.88020833,,,,,,FBP-OG-18.png,0.37,1.2,37,0.75,,,,,,,,,,,,,0,58,58,36,1,,,,,,,,,,,,,,,,,,,,,,,,,,,,
,,,,,V3_068,19,Female,2024-11-16_16h19.50.742,jersey_experiment_5_v3,2023.2.2,Win32,85.47008547,,,,,,,,,,,,,,,,625.709,627.0028,627.0029,627.6735,return,0.0519,,82.68229167,,,,,,FBP-YG-91.png,0.4,1.2,13,0.5,,,,,,,,,,,,,0,59,59,12,1,,,,,,,,,,,,,,,,,,,,,,,,,,,,
,,,,,V3_068,19,Female,2024-11-16_16h19.50.742,jersey_experiment_5_v3,2023.2.2,Win32,85.47008547,,,,,,,,,,,,,,,,627.6755,628.9678,628.9678,629.4853,return,0.1269,,74.47916667,,,,,,FBP-PT-91.png,0.37,1.2,27,0.5,,,,,,,,,,,,,,,,,,0,0,0,26,1,,,,,,,,,,,,,,,,,,,,,,,
,,,,,V3_068,19,Female,2024-11-16_16h19.50.742,jersey_experiment_5_v3,2023.2.2,Win32,85.47008547,,,,,,,,,,,,,,,,629.4857,630.7794,630.7795,631.2266,return,0.1297,,76.04166667,,,,,,FBP-RB-81.png,0.43,1.2,54,0.5,,,,,,,,,,,,,,,,,,0,1,1,53,1,,,,,,,,,,,,,,,,,,,,,,,
,,,,,V3_068,19,Female,2024-11-16_16h19.50.742,jersey_experiment_5_v3,2023.2.2,Win32,85.47008547,,,,,,,,,,,,,,,,631.2268,632.5207,632.5207,633.0503,return,0.0496,,88.41145833,,,,,,FBP-YG-19.png,0.45,1.2,15,0.5,,,,,,,,,,,,,,,,,,0,2,2,14,1,,,,,,,,,,,,,,,,,,,,,,,
,,,,,V3_068,19,Female,2024-11-16_16h19.50.742,jersey_experiment_5_v3,2023.2.2,Win32,85.47008547,,,,,,,,,,,,,,,,633.0505,634.3445,634.3445,635.2857,return,0.1852,,75,,,,,,FBP-RB-71.png,0.4,1.2,48,0.5,,,,,,,,,,,,,,,,,,0,3,3,47,1,,,,,,,,,,,,,,,,,,,,,,,
,,,,,V3_068,19,Female,2024-11-16_16h19.50.742,jersey_experiment_5_v3,2023.2.2,Win32,85.47008547,,,,,,,,,,,,,,,,635.2858,636.5798,636.5799,637.015,return,0.1118,,75,,,,,,FBP-YG-18.png,0.37,1.2,7,0.5,,,,,,,,,,,,,,,,,,0,4,4,6,1,,,,,,,,,,,,,,,,,,,,,,,
,,,,,V3_068,19,Female,2024-11-16_16h19.50.742,jersey_experiment_5_v3,2023.2.2,Win32,85.47008547,,,,,,,,,,,,,,,,637.0154,638.3092,638.3092,639.0504,return,0.2124,,90.625,,,,,,FBP-YG-18.png,0.45,1.2,10,0.5,,,,,,,,,,,,,,,,,,0,5,5,9,1,,,,,,,,,,,,,,,,,,,,,,,
,,,,,V3_068,19,Female,2024-11-16_16h19.50.742,jersey_experiment_5_v3,2023.2.2,Win32,85.47008547,,,,,,,,,,,,,,,,639.0507,640.3446,640.3446,640.921,return,0.17,,83.72395833,,,,,,FBP-PT-81.png,0.43,1.2,24,0.5,,,,,,,,,,,,,,,,,,0,6,6,23,1,,,,,,,,,,,,,,,,,,,,,,,
,,,,,V3_068,19,Female,2024-11-16_16h19.50.742,jersey_experiment_5_v3,2023.2.2,Win32,85.47008547,,,,,,,,,,,,,,,,640.9213,642.2154,642.2155,642.6977,return,0.1448,,93.61979167,,,,,,FBP-RB-81.png,0.45,1.2,55,0.5,,,,,,,,,,,,,,,,,,0,7,7,54,1,,,,,,,,,,,,,,,,,,,,,,,
,,,,,V3_068,19,Female,2024-11-16_16h19.50.742,jersey_experiment_5_v3,2023.2.2,Win32,85.47008547,,,,,,,,,,,,,,,,642.6979,643.9919,643.992,644.7918,return,0.0653,,64.453125,,,,,,FBP-PT-71.png,0.35,1.2,16,0.5,,,,,,,,,,,,,,,,,,0,8,8,15,1,,,,,,,,,,,,,,,,,,,,,,,
,,,,,V3_068,19,Female,2024-11-16_16h19.50.742,jersey_experiment_5_v3,2023.2.2,Win32,85.47008547,,,,,,,,,,,,,,,,644.7921,646.0861,646.0861,647.239,return,0.1135,,90.234375,,,,,,FBP-RB-91.png,0.43,1.2,59,0.5,,,,,,,,,,,,,,,,,,0,9,9,58,1,,,,,,,,,,,,,,,,,,,,,,,
,,,,,V3_068,19,Female,2024-11-16_16h19.50.742,jersey_experiment_5_v3,2023.2.2,Win32,85.47008547,,,,,,,,,,,,,,,,647.2393,648.5332,648.5332,649.2156,return,0.1773,,70.83333333,,,,,,FBP-PT-81.png,0.4,1.2,23,0.5,,,,,,,,,,,,,,,,,,0,10,10,22,1,,,,,,,,,,,,,,,,,,,,,,,
,,,,,V3_068,19,Female,2024-11-16_16h19.50.742,jersey_experiment_5_v3,2023.2.2,Win32,85.47008547,,,,,,,,,,,,,,,,649.2159,650.7685,650.7686,651.192,return,0.2166,,74.21875,,,,,,FBP-OG-91.png,0.43,1.2,44,0.75,,,,,,,,,,,,,,,,,,0,11,11,43,1,,,,,,,,,,,,,,,,,,,,,,,
,,,,,V3_068,19,Female,2024-11-16_16h19.50.742,jersey_experiment_5_v3,2023.2.2,Win32,85.47008547,,,,,,,,,,,,,,,,651.1923,652.4864,652.4864,652.9568,return,0.1406,,74.21875,,,,,,FBP-YG-17.png,0.4,1.2,3,0.5,,,,,,,,,,,,,,,,,,0,12,12,2,1,,,,,,,,,,,,,,,,,,,,,,,
,,,,,V3_068,19,Female,2024-11-16_16h19.50.742,jersey_experiment_5_v3,2023.2.2,Win32,85.47008547,,,,,,,,,,,,,,,,652.957,654.5098,654.5098,654.9686,return,0.2513,,62.63020833,,,,,,FBP-OG-71.png,0.37,1.2,32,0.75,,,,,,,,,,,,,,,,,,0,13,13,31,1,,,,,,,,,,,,,,,,,,,,,,,
,,,,,V3_068,19,Female,2024-11-16_16h19.50.742,jersey_experiment_5_v3,2023.2.2,Win32,85.47008547,,,,,,,,,,,,,,,,654.9689,656.5217,656.5217,657.0158,return,0.158,,62.76041667,,,,,,FBP-OG-81.png,0.4,1.2,38,0.75,,,,,,,,,,,,,,,,,,0,14,14,37,1,,,,,,,,,,,,,,,,,,,,,,,
,,,,,V3_068,19,Female,2024-11-16_16h19.50.742,jersey_experiment_5_v3,2023.2.2,Win32,85.47008547,,,,,,,,,,,,,,,,657.016,658.3099,658.3099,658.8276,return,0.1068,,62.76041667,,,,,,FBP-RB-91.png,0.35,1.2,56,0.5,,,,,,,,,,,,,,,,,,0,15,15,55,1,,,,,,,,,,,,,,,,,,,,,,,
,,,,,V3_068,19,Female,2024-11-16_16h19.50.742,jersey_experiment_5_v3,2023.2.2,Win32,85.47008547,,,,,,,,,,,,,,,,658.8278,660.1218,660.1219,660.3923,return,0.0648,,62.76041667,,,,,,FBP-YG-18.png,0.35,1.2,6,0.5,,,,,,,,,,,,,,,,,,0,16,16,5,1,,,,,,,,,,,,,,,,,,,,,,,
,,,,,V3_068,19,Female,2024-11-16_16h19.50.742,jersey_experiment_5_v3,2023.2.2,Win32,85.47008547,,,,,,,,,,,,,,,,660.3925,661.6866,661.6866,662.2395,return,0.3373,,62.76041667,,,,,,FBP-RB-91.png,0.37,1.2,57,0.5,,,,,,,,,,,,,,,,,,0,17,17,56,1,,,,,,,,,,,,,,,,,,,,,,,
,,,,,V3_068,19,Female,2024-11-16_16h19.50.742,jersey_experiment_5_v3,2023.2.2,Win32,85.47008547,,,,,,,,,,,,,,,,662.2398,663.7926,663.7928,664.5102,return,0.084,,75.13020833,,,,,,FBP-OG-71.png,0.45,1.2,35,0.75,,,,,,,,,,,,,,,,,,0,18,18,34,1,,,,,,,,,,,,,,,,,,,,,,,
,,,,,V3_068,19,Female,2024-11-16_16h19.50.742,jersey_experiment_5_v3,2023.2.2,Win32,85.47008547,,,,,,,,,,,,,,,,664.5105,665.8043,665.8044,666.4632,return,0.3211,,75.13020833,,,,,,FBP-PT-91.png,0.43,1.2,29,0.5,,,,,,,,,,,,,,,,,,0,19,19,28,1,,,,,,,,,,,,,,,,,,,,,,,
,,,,,V3_068,19,Female,2024-11-16_16h19.50.742,jersey_experiment_5_v3,2023.2.2,Win32,85.47008547,,,,,,,,,,,,,,,,666.4634,668.0162,668.0163,668.6632,return,0.0881,,85.28645833,,,,,,FBP-OG-81.png,0.45,1.2,40,0.75,,,,,,,,,,,,,,,,,,0,20,20,39,1,,,,,,,,,,,,,,,,,,,,,,,
,,,,,V3_068,19,Female,2024-11-16_16h19.50.742,jersey_experiment_5_v3,2023.2.2,Win32,85.47008547,,,,,,,,,,,,,,,,668.6635,669.9575,669.9575,670.3693,return,0.047,,75.26041667,,,,,,FBP-PT-91.png,0.4,1.2,28,0.5,,,,,,,,,,,,,,,,,,0,21,21,27,1,,,,,,,,,,,,,,,,,,,,,,,
,,,,,V3_068,19,Female,2024-11-16_16h19.50.742,jersey_experiment_5_v3,2023.2.2,Win32,85.47008547,,,,,,,,,,,,,,,,670.3695,671.6634,671.6634,672.6163,return,0.72,,64.453125,,,,,,FBP-RB-71.png,0.35,1.2,46,0.5,,,,,,,,,,,,,,,,,,0,22,22,45,1,,,,,,,,,,,,,,,,,,,,,,,
,,,,,V3_068,19,Female,2024-11-16_16h19.50.742,jersey_experiment_5_v3,2023.2.2,Win32,85.47008547,,,,,,,,,,,,,,,,672.6165,673.9107,673.9107,674.64,return,0.2932,,73.56770833,,,,,,FBP-RB-71.png,0.43,1.2,49,0.5,,,,,,,,,,,,,,,,,,0,23,23,48,1,,,,,,,,,,,,,,,,,,,,,,,
,,,,,V3_068,19,Female,2024-11-16_16h19.50.742,jersey_experiment_5_v3,2023.2.2,Win32,85.47008547,,,,,,,,,,,,,,,,674.6402,675.9341,675.9342,676.5341,return,0.0436,,75.26041667,,,,,,FBP-RB-81.png,0.4,1.2,53,0.5,,,,,,,,,,,,,,,,,,0,24,24,52,1,,,,,,,,,,,,,,,,,,,,,,,
,,,,,V3_068,19,Female,2024-11-16_16h19.50.742,jersey_experiment_5_v3,2023.2.2,Win32,85.47008547,,,,,,,,,,,,,,,,676.5343,677.8283,677.8283,678.0753,return,0.097,,75.26041667,,,,,,FBP-RB-81.png,0.37,1.2,52,0.5,,,,,,,,,,,,,,,,,,0,25,25,51,1,,,,,,,,,,,,,,,,,,,,,,,
,,,,,V3_068,19,Female,2024-11-16_16h19.50.742,jersey_experiment_5_v3,2023.2.2,Win32,85.47008547,,,,,,,,,,,,,,,,678.0756,679.6284,679.6285,680.1932,return,0.1026,,75.26041667,,,,,,FBP-OG-91.png,0.4,1.2,43,0.75,,,,,,,,,,,,,,,,,,0,26,26,42,1,,,,,,,,,,,,,,,,,,,,,,,
,,,,,V3_068,19,Female,2024-11-16_16h19.50.742,jersey_experiment_5_v3,2023.2.2,Win32,85.47008547,,,,,,,,,,,,,,,,680.1934,681.488,681.488,682.1342,return,0.0905,,85.28645833,,,,,,FBP-PT-91.png,0.45,1.2,30,0.5,,,,,,,,,,,,,,,,,,0,27,27,29,1,,,,,,,,,,,,,,,,,,,,,,,
,,,,,V3_068,19,Female,2024-11-16_16h19.50.742,jersey_experiment_5_v3,2023.2.2,Win32,85.47008547,,,,,,,,,,,,,,,,682.1345,683.4285,683.4285,684.0755,return,0.2008,,73.56770833,,,,,,FBP-PT-71.png,0.4,1.2,18,0.5,,,,,,,,,,,,,,,,,,0,28,28,17,1,,,,,,,,,,,,,,,,,,,,,,,
,,,,,V3_068,19,Female,2024-11-16_16h19.50.742,jersey_experiment_5_v3,2023.2.2,Win32,85.47008547,,,,,,,,,,,,,,,,684.0758,685.3698,685.3698,685.8992,return,0.1187,,74.86979167,,,,,,FBP-PT-71.png,0.37,1.2,17,0.5,,,,,,,,,,,,,,,,,,0,29,29,16,1,,,,,,,,,,,,,,,,,,,,,,,
,,,,,V3_068,19,Female,2024-11-16_16h19.50.742,jersey_experiment_5_v3,2023.2.2,Win32,85.47008547,,,,,,,,,,,,,,,,685.8995,687.4522,687.4524,687.9816,return,0.1268,,74.86979167,,,,,,FBP-OG-71.png,0.35,1.2,31,0.75,,,,,,,,,,,,,,,,,,0,30,30,30,1,,,,,,,,,,,,,,,,,,,,,,,
,,,,,V3_068,19,Female,2024-11-16_16h19.50.742,jersey_experiment_5_v3,2023.2.2,Win32,85.47008547,,,,,,,,,,,,,,,,687.9821,689.2758,689.2759,689.9582,return,0.1845,,84.89583333,,,,,,FBP-PT-71.png,0.43,1.2,19,0.5,,,,,,,,,,,,,,,,,,0,31,31,18,1,,,,,,,,,,,,,,,,,,,,,,,
,,,,,V3_068,19,Female,2024-11-16_16h19.50.742,jersey_experiment_5_v3,2023.2.2,Win32,85.47008547,,,,,,,,,,,,,,,,689.9584,691.5112,691.5113,692.2524,return,0.1562,,65.75520833,,,,,,FBP-OG-91.png,0.35,1.2,41,0.75,,,,,,,,,,,,,,,,,,0,32,32,40,1,,,,,,,,,,,,,,,,,,,,,,,
,,,,,V3_068,19,Female,2024-11-16_16h19.50.742,jersey_experiment_5_v3,2023.2.2,Win32,85.47008547,,,,,,,,,,,,,,,,692.2527,693.8056,693.8056,694.3465,return,0.1805,,74.86979167,,,,,,FBP-OG-81.png,0.43,1.2,39,0.75,,,,,,,,,,,,,,,,,,0,33,33,38,1,,,,,,,,,,,,,,,,,,,,,,,
,,,,,V3_068,19,Female,2024-11-16_16h19.50.742,jersey_experiment_5_v3,2023.2.2,Win32,85.47008547,,,,,,,,,,,,,,,,694.3467,695.6408,695.6408,696.2408,return,0.1648,,63.02083333,,,,,,FBP-PT-81.png,0.37,1.2,22,0.5,,,,,,,,,,,,,,,,,,0,34,34,21,1,,,,,,,,,,,,,,,,,,,,,,,
,,,,,V3_068,19,Female,2024-11-16_16h19.50.742,jersey_experiment_5_v3,2023.2.2,Win32,85.47008547,,,,,,,,,,,,,,,,696.2412,697.5352,697.5353,698.135,return,0.1605,,87.36979167,,,,,,FBP-PT-81.png,0.45,1.2,25,0.5,,,,,,,,,,,,,,,,,,0,35,35,24,1,,,,,,,,,,,,,,,,,,,,,,,
,,,,,V3_068,19,Female,2024-11-16_16h19.50.742,jersey_experiment_5_v3,2023.2.2,Win32,85.47008547,,,,,,,,,,,,,,,,698.1353,699.4292,699.4292,699.9466,return,0.1651,,87.36979167,,,,,,FBP-RB-71.png,0.45,1.2,50,0.5,,,,,,,,,,,,,,,,,,0,36,36,49,1,,,,,,,,,,,,,,,,,,,,,,,
,,,,,V3_068,19,Female,2024-11-16_16h19.50.742,jersey_experiment_5_v3,2023.2.2,Win32,85.47008547,,,,,,,,,,,,,,,,699.9469,701.4997,701.4998,701.7821,return,0.1141,,87.36979167,,,,,,FBP-OG-71.png,0.43,1.2,34,0.75,,,,,,,,,,,,,,,,,,0,37,37,33,1,,,,,,,,,,,,,,,,,,,,,,,
,,,,,V3_068,19,Female,2024-11-16_16h19.50.742,jersey_experiment_5_v3,2023.2.2,Win32,85.47008547,,,,,,,,,,,,,,,,701.7824,703.3353,703.3353,704.0293,return,0.1522,,72.78645833,,,,,,FBP-OG-81.png,0.37,1.2,37,0.75,,,,,,,,,,,,,,,,,,0,38,38,36,1,,,,,,,,,,,,,,,,,,,,,,,
,,,,,V3_068,19,Female,2024-11-16_16h19.50.742,jersey_experiment_5_v3,2023.2.2,Win32,85.47008547,,,,,,,,,,,,,,,,704.0296,705.3235,705.3235,706.4293,return,0.6126,,76.953125,,,,,,FBP-RB-91.png,0.4,1.2,58,0.5,,,,,,,,,,,,,,,,,,0,39,39,57,1,,,,,,,,,,,,,,,,,,,,,,,
,,,,,V3_068,19,Female,2024-11-16_16h19.50.742,jersey_experiment_5_v3,2023.2.2,Win32,85.47008547,,,,,,,,,,,,,,,,706.4295,707.7236,707.7236,708.3942,return,0.1336,,87.76041667,,,,,,FBP-YG-17.png,0.45,1.2,5,0.5,,,,,,,,,,,,,,,,,,0,40,40,4,1,,,,,,,,,,,,,,,,,,,,,,,
,,,,,V3_068,19,Female,2024-11-16_16h19.50.742,jersey_experiment_5_v3,2023.2.2,Win32,85.47008547,,,,,,,,,,,,,,,,708.3943,709.6883,709.6884,710.1707,return,0.1532,,87.76041667,,,,,,FBP-YG-19.png,0.43,1.2,14,0.5,,,,,,,,,,,,,,,,,,0,41,41,13,1,,,,,,,,,,,,,,,,,,,,,,,
,,,,,V3_068,19,Female,2024-11-16_16h19.50.742,jersey_experiment_5_v3,2023.2.2,Win32,85.47008547,,,,,,,,,,,,,,,,710.171,711.4648,711.4649,712.5237,return,0.1298,,69.921875,,,,,,FBP-YG-17.png,0.35,1.2,1,0.5,,,,,,,,,,,,,,,,,,0,42,42,0,1,,,,,,,,,,,,,,,,,,,,,,,
,,,,,V3_068,19,Female,2024-11-16_16h19.50.742,jersey_experiment_5_v3,2023.2.2,Win32,85.47008547,,,,,,,,,,,,,,,,712.5239,713.8179,713.818,714.3356,return,0.1177,,71.484375,,,,,,FBP-YG-19.png,0.35,1.2,11,0.5,,,,,,,,,,,,,,,,,,0,43,43,10,1,,,,,,,,,,,,,,,,,,,,,,,
,,,,,V3_068,19,Female,2024-11-16_16h19.50.742,jersey_experiment_5_v3,2023.2.2,Win32,85.47008547,,,,,,,,,,,,,,,,714.3358,715.8887,715.8887,719.5946,return,3.2729,,60.28645833,,,,,,FBP-OG-81.png,0.35,1.2,36,0.75,,,,,,,,,,,,,,,,,,0,44,44,35,1,,,,,,,,,,,,,,,,,,,,,,,
,,,,,V3_068,19,Female,2024-11-16_16h19.50.742,jersey_experiment_5_v3,2023.2.2,Win32,85.47008547,,,,,,,,,,,,,,,,719.5948,720.8887,720.8888,721.3593,return,0.0834,,61.328125,,,,,,FBP-RB-81.png,0.35,1.2,51,0.5,,,,,,,,,,,,,,,,,,0,45,45,50,1,,,,,,,,,,,,,,,,,,,,,,,
,,,,,V3_068,19,Female,2024-11-16_16h19.50.742,jersey_experiment_5_v3,2023.2.2,Win32,85.47008547,,,,,,,,,,,,,,,,721.3595,722.6536,722.6536,723.6065,return,0.7609,,61.58854167,,,,,,FBP-PT-81.png,0.35,1.2,21,0.5,,,,,,,,,,,,,,,,,,0,46,46,20,1,,,,,,,,,,,,,,,,,,,,,,,
,,,,,V3_068,19,Female,2024-11-16_16h19.50.742,jersey_experiment_5_v3,2023.2.2,Win32,85.47008547,,,,,,,,,,,,,,,,723.6068,724.9007,724.9007,726.2537,return,0.2122,,62.63020833,,,,,,FBP-YG-17.png,0.37,1.2,2,0.5,,,,,,,,,,,,,,,,,,0,47,47,1,1,,,,,,,,,,,,,,,,,,,,,,,
,,,,,V3_068,19,Female,2024-11-16_16h19.50.742,jersey_experiment_5_v3,2023.2.2,Win32,85.47008547,,,,,,,,,,,,,,,,726.254,727.5478,727.5479,728.2538,return,0.1084,,61.84895833,,,,,,FBP-PT-91.png,0.35,1.2,26,0.5,,,,,,,,,,,,,,,,,,0,48,48,25,1,,,,,,,,,,,,,,,,,,,,,,,
,,,,,V3_068,19,Female,2024-11-16_16h19.50.742,jersey_experiment_5_v3,2023.2.2,Win32,85.47008547,,,,,,,,,,,,,,,,728.254,729.5478,729.5479,730.2539,return,0.3317,,61.84895833,,,,,,FBP-YG-19.png,0.37,1.2,12,0.5,,,,,,,,,,,,,,,,,,0,49,49,11,1,,,,,,,,,,,,,,,,,,,,,,,
,,,,,V3_068,19,Female,2024-11-16_16h19.50.742,jersey_experiment_5_v3,2023.2.2,Win32,85.47008547,,,,,,,,,,,,,,,,730.2541,731.548,731.548,732.748,return,0.1649,,73.95833333,,,,,,FBP-YG-17.png,0.43,1.2,4,0.5,,,,,,,,,,,,,,,,,,0,50,50,3,1,,,,,,,,,,,,,,,,,,,,,,,
,,,,,V3_068,19,Female,2024-11-16_16h19.50.742,jersey_experiment_5_v3,2023.2.2,Win32,85.47008547,,,,,,,,,,,,,,,,732.7483,734.301,734.3011,735.1128,return,0.6645,,80.33854167,,,,,,FBP-OG-91.png,0.45,1.2,45,0.75,,,,,,,,,,,,,,,,,,0,51,51,44,1,,,,,,,,,,,,,,,,,,,,,,,
,,,,,V3_068,19,Female,2024-11-16_16h19.50.742,jersey_experiment_5_v3,2023.2.2,Win32,85.47008547,,,,,,,,,,,,,,,,735.1131,736.4072,736.4072,736.8893,return,0.1912,,82.29166667,,,,,,FBP-PT-71.png,0.45,1.2,20,0.5,,,,,,,,,,,,,,,,,,0,52,52,19,1,,,,,,,,,,,,,,,,,,,,,,,
,,,,,V3_068,19,Female,2024-11-16_16h19.50.742,jersey_experiment_5_v3,2023.2.2,Win32,85.47008547,,,,,,,,,,,,,,,,736.8896,738.1835,738.1835,739.36,return,0.307,,79.94791667,,,,,,FBP-YG-18.png,0.4,1.2,8,0.5,,,,,,,,,,,,,,,,,,0,53,53,7,1,,,,,,,,,,,,,,,,,,,,,,,
,,,,,V3_068,19,Female,2024-11-16_16h19.50.742,jersey_experiment_5_v3,2023.2.2,Win32,85.47008547,,,,,,,,,,,,,,,,739.3603,740.6542,740.6542,741.8659,return,0.9457,,75,,,,,,FBP-RB-71.png,0.37,1.2,47,0.5,,,,,,,,,,,,,,,,,,0,54,54,46,1,,,,,,,,,,,,,,,,,,,,,,,
,,,,,V3_068,19,Female,2024-11-16_16h19.50.742,jersey_experiment_5_v3,2023.2.2,Win32,85.47008547,,,,,,,,,,,,,,,,741.8663,743.1601,743.1602,743.6425,return,0.0959,,75,,,,,,FBP-YG-19.png,0.4,1.2,13,0.5,,,,,,,,,,,,,,,,,,0,55,55,12,1,,,,,,,,,,,,,,,,,,,,,,,
,,,,,V3_068,19,Female,2024-11-16_16h19.50.742,jersey_experiment_5_v3,2023.2.2,Win32,85.47008547,,,,,,,,,,,,,,,,743.6427,745.1956,745.1956,745.6543,return,0.0787,,75,,,,,,FBP-OG-91.png,0.37,1.2,42,0.75,,,,,,,,,,,,,,,,,,0,56,56,41,1,,,,,,,,,,,,,,,,,,,,,,,
,,,,,V3_068,19,Female,2024-11-16_16h19.50.742,jersey_experiment_5_v3,2023.2.2,Win32,85.47008547,,,,,,,,,,,,,,,,745.6546,747.2075,747.2075,748.0309,return,0.1043,,79.94791667,,,,,,FBP-OG-71.png,0.4,1.2,33,0.75,,,,,,,,,,,,,,,,,,0,57,57,32,1,,,,,,,,,,,,,,,,,,,,,,,
,,,,,V3_068,19,Female,2024-11-16_16h19.50.742,jersey_experiment_5_v3,2023.2.2,Win32,85.47008547,,,,,,,,,,,,,,,,748.0312,749.3251,749.3251,749.9957,return,0.0733,,87.76041667,,,,,,FBP-YG-18.png,0.43,1.2,9,0.5,,,,,,,,,,,,,,,,,,0,58,58,8,1,,,,,,,,,,,,,,,,,,,,,,,
,,,,,V3_068,19,Female,2024-11-16_16h19.50.742,jersey_experiment_5_v3,2023.2.2,Win32,85.47008547,,,,,,,,,,,,,,,,749.996,751.2898,751.2898,751.5958,return,0.179,,87.76041667,,,,,,FBP-RB-91.png,0.45,1.2,60,0.5,,,,,,,,,,,,,,,,,,0,59,59,59,1,,,,,,,,,,,,,,,,,,,,,,,
,,,,,V3_068,19,Female,2024-11-16_16h19.50.742,jersey_experiment_5_v3,2023.2.2,Win32,85.47008547,,,,,,,,,,,,,,,,,,,,,,,,,,,,,,,,,,,,,,,,,,,,,,,,,,,,,,,,751.5961,756.455,return,4.8538,,,,,,,,,,,,,,,,,,,
,,,,,V3_068,19,Female,2024-11-16_16h19.50.742,jersey_experiment_5_v3,2023.2.2,Win32,85.47008547,,,,,,,,,,,,,,,,,,,,,,,,,,,,,,,,,,,,,,,,,,,,,,,,,,,,,,,,,,,,,756.4551,759.3846,1,2.6462,return,0.2766,,,,,,,,,,,,
,,,,,V3_068,19,Female,2024-11-16_16h19.50.742,jersey_experiment_5_v3,2023.2.2,Win32,85.47008547,,,,,,,,,,,,,,,,,,,,,,,,,,,,,,,,,,,,,,,,,,,,,,,,,,,,,,,,,,,,,,,,,,,,759.3847,804.1749,whether there is a difference in response based on color of the jersey or color of the skin,right,37.7033,,,,,,
,,,,,V3_068,19,Female,2024-11-16_16h19.50.742,jersey_experiment_5_v3,2023.2.2,Win32,85.47008547,,,,,,,,,,,,,,,,,,,,,,,,,,,,,,,,,,,,,,,,,,,,,,,,,,,,,,,,,,,,,,,,,,,,,,,,,,804.1749,806.8804,return,2.6902,