requirements.started,requirements.stopped,key_resp_3.keys,key_resp_3.rt,key_resp_3.duration,Subject ID,Age,Gender,date,expName,psychopyVersion,OS,frameRate,instructions1.started,instructions1.stopped,key_resp.keys,key_resp.rt,key_resp.duration,example.started,example.stopped,enter_2.keys,enter_2.rt,enter_2.duration,instructions2.started,instructions2.stopped,enter_3.keys,enter_3.rt,enter_3.duration,image.started,image.stopped,slider_2.started,slider_2.stopped,next.keys,next.rt,next.duration,slider.response,trial_block_1.thisRepN,trial_block_1.thisTrialN,trial_block_1.thisN,trial_block_1.thisIndex,trial_block_1.ran,Path,Width,Height,Index,Duration,trial_block_2.thisRepN,trial_block_2.thisTrialN,trial_block_2.thisN,trial_block_2.thisIndex,trial_block_2.ran,rest_break.started,rest_break.stopped,end_break.started,end_break.stopped,key_resp_5.keys,key_resp_5.rt,key_resp_5.duration,trial_block_3.thisRepN,trial_block_3.thisTrialN,trial_block_3.thisN,trial_block_3.thisIndex,trial_block_3.ran,trial_block_4.thisRepN,trial_block_4.thisTrialN,trial_block_4.thisN,trial_block_4.thisIndex,trial_block_4.ran,questions_intro.started,questions_intro.stopped,enter_12.keys,enter_12.rt,enter_12.duration,question2.started,question2.stopped,question_doingbest.response,question_doingbest.rt,enter_15.keys,enter_15.rt,enter_15.duration,pattern.started,pattern.stopped,pattern_2.text,enter_17.keys,enter_17.rt,enter_17.duration,thankyou.started,thankyou.stopped,enter_14.keys,enter_14.rt,enter_14.duration
0.0002,10.9901,return,10.9848,,V3_048,21,F,2024-11-05_15h35.14.194,jersey_experiment_5_v3,2023.2.2,Win32,84.74576271,,,,,,,,,,,,,,,,,,,,,,,,,,,,,,,,,,,,,,,,,,,,,,,,,,,,,,,,,,,,,,,,,,,,,,,,,,,,,,
,,,,,V3_048,21,F,2024-11-05_15h35.14.194,jersey_experiment_5_v3,2023.2.2,Win32,84.74576271,10.9902,20.4483,return,9.4508,,,,,,,,,,,,,,,,,,,,,,,,,,,,,,,,,,,,,,,,,,,,,,,,,,,,,,,,,,,,,,,,,,,,,,,,,,
,,,,,V3_048,21,F,2024-11-05_15h35.14.194,jersey_experiment_5_v3,2023.2.2,Win32,84.74576271,,,,,,20.4483,23.9479,return,3.4686,,,,,,,,,,,,,,,,,,,,,,,,,,,,,,,,,,,,,,,,,,,,,,,,,,,,,,,,,,,,,,,,,,,,,
,,,,,V3_048,21,F,2024-11-05_15h35.14.194,jersey_experiment_5_v3,2023.2.2,Win32,84.74576271,,,,,,,,,,,23.9481,54.8076,return,30.8524,,,,,,,,,,,,,,,,,,,,,,,,,,,,,,,,,,,,,,,,,,,,,,,,,,,,,,,,,,,,,,,,
,,,,,V3_048,21,F,2024-11-05_15h35.14.194,jersey_experiment_5_v3,2023.2.2,Win32,84.74576271,,,,,,,,,,,,,,,,54.8112,56.1136,56.1138,60.8903,return,2.5685,,25.52083333,0,0,0,36,1,FBP-OG-18.png,0.37,1.2,37,0.5,,,,,,,,,,,,,,,,,,,,,,,,,,,,,,,,,,,,,,,,,,,,,
,,,,,V3_048,21,F,2024-11-05_15h35.14.194,jersey_experiment_5_v3,2023.2.2,Win32,84.74576271,,,,,,,,,,,,,,,,60.8906,62.1843,62.1843,64.2314,return,0.7728,,58.07291667,0,1,1,44,1,FBP-OG-19.png,0.45,1.2,45,0.5,,,,,,,,,,,,,,,,,,,,,,,,,,,,,,,,,,,,,,,,,,,,,
,,,,,V3_048,21,F,2024-11-05_15h35.14.194,jersey_experiment_5_v3,2023.2.2,Win32,84.74576271,,,,,,,,,,,,,,,,64.2317,65.7844,65.7845,68.8316,return,1.9061,,55.20833333,0,2,2,47,1,FBP-RB-17.png,0.4,1.2,48,0.75,,,,,,,,,,,,,,,,,,,,,,,,,,,,,,,,,,,,,,,,,,,,,
,,,,,V3_048,21,F,2024-11-05_15h35.14.194,jersey_experiment_5_v3,2023.2.2,Win32,84.74576271,,,,,,,,,,,,,,,,68.8319,70.1258,70.1258,71.4198,return,0.6265,,49.86979167,0,3,3,35,1,FBP-OG-18.png,0.35,1.2,36,0.5,,,,,,,,,,,,,,,,,,,,,,,,,,,,,,,,,,,,,,,,,,,,,
,,,,,V3_048,21,F,2024-11-05_15h35.14.194,jersey_experiment_5_v3,2023.2.2,Win32,84.74576271,,,,,,,,,,,,,,,,71.4201,72.973,72.973,75.4319,return,1.8624,,73.828125,0,4,4,59,1,FBP-RB-19.png,0.45,1.2,60,0.75,,,,,,,,,,,,,,,,,,,,,,,,,,,,,,,,,,,,,,,,,,,,,
,,,,,V3_048,21,F,2024-11-05_15h35.14.194,jersey_experiment_5_v3,2023.2.2,Win32,84.74576271,,,,,,,,,,,,,,,,75.4322,76.9851,76.9851,78.3142,return,0.5547,,34.24479167,0,5,5,15,1,FBP-PT-17.png,0.35,1.2,16,0.75,,,,,,,,,,,,,,,,,,,,,,,,,,,,,,,,,,,,,,,,,,,,,
,,,,,V3_048,21,F,2024-11-05_15h35.14.194,jersey_experiment_5_v3,2023.2.2,Win32,84.74576271,,,,,,,,,,,,,,,,78.3146,79.6085,79.6085,80.832,return,0.4791,,49.86979167,0,6,6,37,1,FBP-OG-18.png,0.4,1.2,38,0.5,,,,,,,,,,,,,,,,,,,,,,,,,,,,,,,,,,,,,,,,,,,,,
,,,,,V3_048,21,F,2024-11-05_15h35.14.194,jersey_experiment_5_v3,2023.2.2,Win32,84.74576271,,,,,,,,,,,,,,,,80.8322,82.3851,82.3853,83.7616,return,0.6255,,75.13020833,0,7,7,18,1,FBP-PT-17.png,0.43,1.2,19,0.75,,,,,,,,,,,,,,,,,,,,,,,,,,,,,,,,,,,,,,,,,,,,,
,,,,,V3_048,21,F,2024-11-05_15h35.14.194,jersey_experiment_5_v3,2023.2.2,Win32,84.74576271,,,,,,,,,,,,,,,,83.7618,85.3144,85.3145,86.4321,return,0.7064,,75.13020833,0,8,8,57,1,FBP-RB-19.png,0.4,1.2,58,0.75,,,,,,,,,,,,,,,,,,,,,,,,,,,,,,,,,,,,,,,,,,,,,
,,,,,V3_048,21,F,2024-11-05_15h35.14.194,jersey_experiment_5_v3,2023.2.2,Win32,84.74576271,,,,,,,,,,,,,,,,86.4324,87.9853,87.9853,90.8322,return,2.2691,,64.19270833,0,9,9,10,1,FBP-YG-91.png,0.35,1.2,11,0.75,,,,,,,,,,,,,,,,,,,,,,,,,,,,,,,,,,,,,,,,,,,,,
,,,,,V3_048,21,F,2024-11-05_15h35.14.194,jersey_experiment_5_v3,2023.2.2,Win32,84.74576271,,,,,,,,,,,,,,,,90.8326,92.1264,92.1265,93.503,return,0.6748,,73.56770833,0,10,10,32,1,FBP-OG-17.png,0.4,1.2,33,0.5,,,,,,,,,,,,,,,,,,,,,,,,,,,,,,,,,,,,,,,,,,,,,
,,,,,V3_048,21,F,2024-11-05_15h35.14.194,jersey_experiment_5_v3,2023.2.2,Win32,84.74576271,,,,,,,,,,,,,,,,93.5033,94.7972,94.7973,96.7855,return,1.3649,,75.390625,0,11,11,39,1,FBP-OG-18.png,0.45,1.2,40,0.5,,,,,,,,,,,,,,,,,,,,,,,,,,,,,,,,,,,,,,,,,,,,,
,,,,,V3_048,21,F,2024-11-05_15h35.14.194,jersey_experiment_5_v3,2023.2.2,Win32,84.74576271,,,,,,,,,,,,,,,,96.7857,98.3385,98.3385,99.6445,return,0.6738,,86.71875,0,12,12,19,1,FBP-PT-17.png,0.45,1.2,20,0.75,,,,,,,,,,,,,,,,,,,,,,,,,,,,,,,,,,,,,,,,,,,,,
,,,,,V3_048,21,F,2024-11-05_15h35.14.194,jersey_experiment_5_v3,2023.2.2,Win32,84.74576271,,,,,,,,,,,,,,,,99.6446,101.1975,101.1975,102.2798,return,0.5605,,86.71875,0,13,13,48,1,FBP-RB-17.png,0.43,1.2,49,0.75,,,,,,,,,,,,,,,,,,,,,,,,,,,,,,,,,,,,,,,,,,,,,
,,,,,V3_048,21,F,2024-11-05_15h35.14.194,jersey_experiment_5_v3,2023.2.2,Win32,84.74576271,,,,,,,,,,,,,,,,102.28,103.8328,103.8328,105.2447,return,0.9805,,86.71875,0,14,14,54,1,FBP-RB-18.png,0.45,1.2,55,0.75,,,,,,,,,,,,,,,,,,,,,,,,,,,,,,,,,,,,,,,,,,,,,
,,,,,V3_048,21,F,2024-11-05_15h35.14.194,jersey_experiment_5_v3,2023.2.2,Win32,84.74576271,,,,,,,,,,,,,,,,105.2449,106.5388,106.5388,108.0094,return,0.7901,,92.44791667,0,15,15,43,1,FBP-OG-19.png,0.43,1.2,44,0.5,,,,,,,,,,,,,,,,,,,,,,,,,,,,,,,,,,,,,,,,,,,,,
,,,,,V3_048,21,F,2024-11-05_15h35.14.194,jersey_experiment_5_v3,2023.2.2,Win32,84.74576271,,,,,,,,,,,,,,,,108.0097,109.5625,109.5625,111.4801,return,0.7955,,79.81770833,0,16,16,17,1,FBP-PT-17.png,0.4,1.2,18,0.75,,,,,,,,,,,,,,,,,,,,,,,,,,,,,,,,,,,,,,,,,,,,,
,,,,,V3_048,21,F,2024-11-05_15h35.14.194,jersey_experiment_5_v3,2023.2.2,Win32,84.74576271,,,,,,,,,,,,,,,,111.4804,113.0332,113.0332,114.2097,return,0.5312,,88.15104167,0,17,17,49,1,FBP-RB-17.png,0.45,1.2,50,0.75,,,,,,,,,,,,,,,,,,,,,,,,,,,,,,,,,,,,,,,,,,,,,
,,,,,V3_048,21,F,2024-11-05_15h35.14.194,jersey_experiment_5_v3,2023.2.2,Win32,84.74576271,,,,,,,,,,,,,,,,114.21,115.7627,115.7629,117.2569,return,0.8537,,64.453125,0,18,18,51,1,FBP-RB-18.png,0.37,1.2,52,0.75,,,,,,,,,,,,,,,,,,,,,,,,,,,,,,,,,,,,,,,,,,,,,
,,,,,V3_048,21,F,2024-11-05_15h35.14.194,jersey_experiment_5_v3,2023.2.2,Win32,84.74576271,,,,,,,,,,,,,,,,117.2571,118.8098,118.8098,119.6452,return,0.4924,,64.84375,0,19,19,1,1,FBP-YG-71.png,0.37,1.2,2,0.75,,,,,,,,,,,,,,,,,,,,,,,,,,,,,,,,,,,,,,,,,,,,,
,,,,,V3_048,21,F,2024-11-05_15h35.14.194,jersey_experiment_5_v3,2023.2.2,Win32,84.74576271,,,,,,,,,,,,,,,,119.6455,121.1981,121.1981,122.3982,return,0.2843,,64.84375,0,20,20,26,1,FBP-PT-19.png,0.37,1.2,27,0.75,,,,,,,,,,,,,,,,,,,,,,,,,,,,,,,,,,,,,,,,,,,,,
,,,,,V3_048,21,F,2024-11-05_15h35.14.194,jersey_experiment_5_v3,2023.2.2,Win32,84.74576271,,,,,,,,,,,,,,,,122.3984,123.9512,123.9513,124.7276,return,0.1918,,85.80729167,0,21,21,9,1,FBP-YG-81.png,0.45,1.2,10,0.75,,,,,,,,,,,,,,,,,,,,,,,,,,,,,,,,,,,,,,,,,,,,,
,,,,,V3_048,21,F,2024-11-05_15h35.14.194,jersey_experiment_5_v3,2023.2.2,Win32,84.74576271,,,,,,,,,,,,,,,,124.7278,126.2807,126.2807,127.869,return,1.0847,,38.93229167,0,22,22,20,1,FBP-PT-18.png,0.35,1.2,21,0.75,,,,,,,,,,,,,,,,,,,,,,,,,,,,,,,,,,,,,,,,,,,,,
,,,,,V3_048,21,F,2024-11-05_15h35.14.194,jersey_experiment_5_v3,2023.2.2,Win32,84.74576271,,,,,,,,,,,,,,,,127.8691,129.4221,129.4221,130.1984,return,0.137,,34.63541667,0,23,23,55,1,FBP-RB-19.png,0.35,1.2,56,0.75,,,,,,,,,,,,,,,,,,,,,,,,,,,,,,,,,,,,,,,,,,,,,
,,,,,V3_048,21,F,2024-11-05_15h35.14.194,jersey_experiment_5_v3,2023.2.2,Win32,84.74576271,,,,,,,,,,,,,,,,130.1985,131.7515,131.7515,132.528,return,0.1651,,77.47395833,0,24,24,3,1,FBP-YG-71.png,0.43,1.2,4,0.75,,,,,,,,,,,,,,,,,,,,,,,,,,,,,,,,,,,,,,,,,,,,,
,,,,,V3_048,21,F,2024-11-05_15h35.14.194,jersey_experiment_5_v3,2023.2.2,Win32,84.74576271,,,,,,,,,,,,,,,,132.5282,134.0809,134.0809,134.6221,return,0.2122,,77.21354167,0,25,25,6,1,FBP-YG-81.png,0.37,1.2,7,0.75,,,,,,,,,,,,,,,,,,,,,,,,,,,,,,,,,,,,,,,,,,,,,
,,,,,V3_048,21,F,2024-11-05_15h35.14.194,jersey_experiment_5_v3,2023.2.2,Win32,84.74576271,,,,,,,,,,,,,,,,134.6223,136.1751,136.1751,136.7163,return,0.1312,,87.23958333,0,26,26,14,1,FBP-YG-91.png,0.45,1.2,15,0.75,,,,,,,,,,,,,,,,,,,,,,,,,,,,,,,,,,,,,,,,,,,,,
,,,,,V3_048,21,F,2024-11-05_15h35.14.194,jersey_experiment_5_v3,2023.2.2,Win32,84.74576271,,,,,,,,,,,,,,,,136.7166,138.0105,138.0106,138.8458,return,0.1798,,74.609375,0,27,27,33,1,FBP-OG-17.png,0.43,1.2,34,0.5,,,,,,,,,,,,,,,,,,,,,,,,,,,,,,,,,,,,,,,,,,,,,
,,,,,V3_048,21,F,2024-11-05_15h35.14.194,jersey_experiment_5_v3,2023.2.2,Win32,84.74576271,,,,,,,,,,,,,,,,138.846,140.399,140.399,141.4813,return,0.6143,,79.94791667,0,28,28,7,1,FBP-YG-81.png,0.4,1.2,8,0.75,,,,,,,,,,,,,,,,,,,,,,,,,,,,,,,,,,,,,,,,,,,,,
,,,,,V3_048,21,F,2024-11-05_15h35.14.194,jersey_experiment_5_v3,2023.2.2,Win32,84.74576271,,,,,,,,,,,,,,,,141.4814,143.0343,143.0343,143.6107,return,0.1457,,93.48958333,0,29,29,24,1,FBP-PT-18.png,0.45,1.2,25,0.75,,,,,,,,,,,,,,,,,,,,,,,,,,,,,,,,,,,,,,,,,,,,,
,,,,,V3_048,21,F,2024-11-05_15h35.14.194,jersey_experiment_5_v3,2023.2.2,Win32,84.74576271,,,,,,,,,,,,,,,,143.6109,145.1637,145.1637,145.599,return,0.1809,,96.09375,0,30,30,58,1,FBP-RB-19.png,0.43,1.2,59,0.75,,,,,,,,,,,,,,,,,,,,,,,,,,,,,,,,,,,,,,,,,,,,,
,,,,,V3_048,21,F,2024-11-05_15h35.14.194,jersey_experiment_5_v3,2023.2.2,Win32,84.74576271,,,,,,,,,,,,,,,,145.5992,146.8932,146.8933,147.952,return,0.1391,,25.390625,0,31,31,40,1,FBP-OG-19.png,0.35,1.2,41,0.5,,,,,,,,,,,,,,,,,,,,,,,,,,,,,,,,,,,,,,,,,,,,,
,,,,,V3_048,21,F,2024-11-05_15h35.14.194,jersey_experiment_5_v3,2023.2.2,Win32,84.74576271,,,,,,,,,,,,,,,,147.9523,149.5051,149.5051,150.3285,return,0.089,,92.96875,0,32,32,4,1,FBP-YG-71.png,0.45,1.2,5,0.75,,,,,,,,,,,,,,,,,,,,,,,,,,,,,,,,,,,,,,,,,,,,,
,,,,,V3_048,21,F,2024-11-05_15h35.14.194,jersey_experiment_5_v3,2023.2.2,Win32,84.74576271,,,,,,,,,,,,,,,,150.3288,151.8816,151.8817,152.6345,return,0.1107,,33.46354167,0,33,33,5,1,FBP-YG-81.png,0.35,1.2,6,0.75,,,,,,,,,,,,,,,,,,,,,,,,,,,,,,,,,,,,,,,,,,,,,
,,,,,V3_048,21,F,2024-11-05_15h35.14.194,jersey_experiment_5_v3,2023.2.2,Win32,84.74576271,,,,,,,,,,,,,,,,152.6348,154.1876,154.1877,154.9992,return,0.0627,,85.15625,0,34,34,29,1,FBP-PT-19.png,0.45,1.2,30,0.75,,,,,,,,,,,,,,,,,,,,,,,,,,,,,,,,,,,,,,,,,,,,,
,,,,,V3_048,21,F,2024-11-05_15h35.14.194,jersey_experiment_5_v3,2023.2.2,Win32,84.74576271,,,,,,,,,,,,,,,,154.9995,156.2935,156.2935,157.517,return,0.7083,,84.89583333,0,35,35,38,1,FBP-OG-18.png,0.43,1.2,39,0.5,,,,,,,,,,,,,,,,,,,,,,,,,,,,,,,,,,,,,,,,,,,,,
,,,,,V3_048,21,F,2024-11-05_15h35.14.194,jersey_experiment_5_v3,2023.2.2,Win32,84.74576271,,,,,,,,,,,,,,,,157.5173,159.0701,159.0702,159.8464,return,0.1375,,92.96875,0,36,36,53,1,FBP-RB-18.png,0.43,1.2,54,0.75,,,,,,,,,,,,,,,,,,,,,,,,,,,,,,,,,,,,,,,,,,,,,
,,,,,V3_048,21,F,2024-11-05_15h35.14.194,jersey_experiment_5_v3,2023.2.2,Win32,84.74576271,,,,,,,,,,,,,,,,159.8467,161.3995,161.3995,161.9055,return,0.2151,,92.96875,0,37,37,52,1,FBP-RB-18.png,0.4,1.2,53,0.75,,,,,,,,,,,,,,,,,,,,,,,,,,,,,,,,,,,,,,,,,,,,,
,,,,,V3_048,21,F,2024-11-05_15h35.14.194,jersey_experiment_5_v3,2023.2.2,Win32,84.74576271,,,,,,,,,,,,,,,,161.9059,163.1997,163.1997,163.835,return,0.0969,,98.828125,0,38,38,34,1,FBP-OG-17.png,0.45,1.2,35,0.5,,,,,,,,,,,,,,,,,,,,,,,,,,,,,,,,,,,,,,,,,,,,,
,,,,,V3_048,21,F,2024-11-05_15h35.14.194,jersey_experiment_5_v3,2023.2.2,Win32,84.74576271,,,,,,,,,,,,,,,,163.8352,165.1291,165.1292,165.8349,return,0.0967,,88.15104167,0,39,39,31,1,FBP-OG-17.png,0.37,1.2,32,0.5,,,,,,,,,,,,,,,,,,,,,,,,,,,,,,,,,,,,,,,,,,,,,
,,,,,V3_048,21,F,2024-11-05_15h35.14.194,jersey_experiment_5_v3,2023.2.2,Win32,84.74576271,,,,,,,,,,,,,,,,165.8352,167.3882,167.3883,167.9057,return,0.0961,,74.21875,0,40,40,21,1,FBP-PT-18.png,0.37,1.2,22,0.75,,,,,,,,,,,,,,,,,,,,,,,,,,,,,,,,,,,,,,,,,,,,,
,,,,,V3_048,21,F,2024-11-05_15h35.14.194,jersey_experiment_5_v3,2023.2.2,Win32,84.74576271,,,,,,,,,,,,,,,,167.9059,169.4587,169.4587,169.9175,return,0.0824,,86.71875,0,41,41,13,1,FBP-YG-91.png,0.43,1.2,14,0.75,,,,,,,,,,,,,,,,,,,,,,,,,,,,,,,,,,,,,,,,,,,,,
,,,,,V3_048,21,F,2024-11-05_15h35.14.194,jersey_experiment_5_v3,2023.2.2,Win32,84.74576271,,,,,,,,,,,,,,,,169.9179,171.4707,171.4707,172.3177,return,0.0822,,43.22916667,0,42,42,56,1,FBP-RB-19.png,0.37,1.2,57,0.75,,,,,,,,,,,,,,,,,,,,,,,,,,,,,,,,,,,,,,,,,,,,,
,,,,,V3_048,21,F,2024-11-05_15h35.14.194,jersey_experiment_5_v3,2023.2.2,Win32,84.74576271,,,,,,,,,,,,,,,,172.318,173.8705,173.8706,174.4235,return,0.0993,,73.17708333,0,43,43,12,1,FBP-YG-91.png,0.4,1.2,13,0.75,,,,,,,,,,,,,,,,,,,,,,,,,,,,,,,,,,,,,,,,,,,,,
,,,,,V3_048,21,F,2024-11-05_15h35.14.194,jersey_experiment_5_v3,2023.2.2,Win32,84.74576271,,,,,,,,,,,,,,,,174.4237,175.9766,175.9767,176.5413,return,0.0862,,79.6875,0,44,44,22,1,FBP-PT-18.png,0.4,1.2,23,0.75,,,,,,,,,,,,,,,,,,,,,,,,,,,,,,,,,,,,,,,,,,,,,
,,,,,V3_048,21,F,2024-11-05_15h35.14.194,jersey_experiment_5_v3,2023.2.2,Win32,84.74576271,,,,,,,,,,,,,,,,176.5415,178.0943,178.0943,178.8707,return,0.1008,,65.36458333,0,45,45,0,1,FBP-YG-71.png,0.35,1.2,1,0.75,,,,,,,,,,,,,,,,,,,,,,,,,,,,,,,,,,,,,,,,,,,,,
,,,,,V3_048,21,F,2024-11-05_15h35.14.194,jersey_experiment_5_v3,2023.2.2,Win32,84.74576271,,,,,,,,,,,,,,,,178.8709,180.4121,180.4122,181.212,return,0.0739,,87.5,0,46,46,2,1,FBP-YG-71.png,0.4,1.2,3,0.75,,,,,,,,,,,,,,,,,,,,,,,,,,,,,,,,,,,,,,,,,,,,,
,,,,,V3_048,21,F,2024-11-05_15h35.14.194,jersey_experiment_5_v3,2023.2.2,Win32,84.74576271,,,,,,,,,,,,,,,,181.2123,182.765,182.765,183.3532,return,0.0532,,70.05208333,0,47,47,27,1,FBP-PT-19.png,0.4,1.2,28,0.75,,,,,,,,,,,,,,,,,,,,,,,,,,,,,,,,,,,,,,,,,,,,,
,,,,,V3_048,21,F,2024-11-05_15h35.14.194,jersey_experiment_5_v3,2023.2.2,Win32,84.74576271,,,,,,,,,,,,,,,,183.3534,184.9064,184.9065,185.4357,return,0.086,,53.515625,0,48,48,50,1,FBP-RB-18.png,0.35,1.2,51,0.75,,,,,,,,,,,,,,,,,,,,,,,,,,,,,,,,,,,,,,,,,,,,,
,,,,,V3_048,21,F,2024-11-05_15h35.14.194,jersey_experiment_5_v3,2023.2.2,Win32,84.74576271,,,,,,,,,,,,,,,,185.436,186.9887,186.9887,187.824,return,0.1279,,68.09895833,0,49,49,46,1,FBP-RB-17.png,0.37,1.2,47,0.75,,,,,,,,,,,,,,,,,,,,,,,,,,,,,,,,,,,,,,,,,,,,,
,,,,,V3_048,21,F,2024-11-05_15h35.14.194,jersey_experiment_5_v3,2023.2.2,Win32,84.74576271,,,,,,,,,,,,,,,,187.8244,189.377,189.3771,190.0594,return,0.1317,,50.390625,0,50,50,45,1,FBP-RB-17.png,0.35,1.2,46,0.75,,,,,,,,,,,,,,,,,,,,,,,,,,,,,,,,,,,,,,,,,,,,,
,,,,,V3_048,21,F,2024-11-05_15h35.14.194,jersey_experiment_5_v3,2023.2.2,Win32,84.74576271,,,,,,,,,,,,,,,,190.0599,191.3537,191.3537,192.0124,return,0.0813,,59.50520833,0,51,51,41,1,FBP-OG-19.png,0.37,1.2,42,0.5,,,,,,,,,,,,,,,,,,,,,,,,,,,,,,,,,,,,,,,,,,,,,
,,,,,V3_048,21,F,2024-11-05_15h35.14.194,jersey_experiment_5_v3,2023.2.2,Win32,84.74576271,,,,,,,,,,,,,,,,192.0127,193.3065,193.3066,194.1888,return,0.1315,,28.125,0,52,52,30,1,FBP-OG-17.png,0.35,1.2,31,0.5,,,,,,,,,,,,,,,,,,,,,,,,,,,,,,,,,,,,,,,,,,,,,
,,,,,V3_048,21,F,2024-11-05_15h35.14.194,jersey_experiment_5_v3,2023.2.2,Win32,84.74576271,,,,,,,,,,,,,,,,194.1891,195.742,195.742,196.236,return,0.0485,,79.03645833,0,53,53,23,1,FBP-PT-18.png,0.43,1.2,24,0.75,,,,,,,,,,,,,,,,,,,,,,,,,,,,,,,,,,,,,,,,,,,,,
,,,,,V3_048,21,F,2024-11-05_15h35.14.194,jersey_experiment_5_v3,2023.2.2,Win32,84.74576271,,,,,,,,,,,,,,,,196.2362,197.5303,197.5304,198.0479,return,0.0699,,80.078125,0,54,54,42,1,FBP-OG-19.png,0.4,1.2,43,0.5,,,,,,,,,,,,,,,,,,,,,,,,,,,,,,,,,,,,,,,,,,,,,
,,,,,V3_048,21,F,2024-11-05_15h35.14.194,jersey_experiment_5_v3,2023.2.2,Win32,84.74576271,,,,,,,,,,,,,,,,198.0479,199.6011,199.6011,200.1184,return,0.1145,,94.53125,0,55,55,8,1,FBP-YG-81.png,0.43,1.2,9,0.75,,,,,,,,,,,,,,,,,,,,,,,,,,,,,,,,,,,,,,,,,,,,,
,,,,,V3_048,21,F,2024-11-05_15h35.14.194,jersey_experiment_5_v3,2023.2.2,Win32,84.74576271,,,,,,,,,,,,,,,,200.1187,201.6718,201.6718,202.3538,return,0.1164,,47.91666667,0,56,56,16,1,FBP-PT-17.png,0.37,1.2,17,0.75,,,,,,,,,,,,,,,,,,,,,,,,,,,,,,,,,,,,,,,,,,,,,
,,,,,V3_048,21,F,2024-11-05_15h35.14.194,jersey_experiment_5_v3,2023.2.2,Win32,84.74576271,,,,,,,,,,,,,,,,202.3541,203.9071,203.9071,204.4482,return,0.1413,,36.328125,0,57,57,25,1,FBP-PT-19.png,0.35,1.2,26,0.75,,,,,,,,,,,,,,,,,,,,,,,,,,,,,,,,,,,,,,,,,,,,,
,,,,,V3_048,21,F,2024-11-05_15h35.14.194,jersey_experiment_5_v3,2023.2.2,Win32,84.74576271,,,,,,,,,,,,,,,,204.4485,206.0013,206.0013,206.9894,return,0.3434,,83.07291667,0,58,58,28,1,FBP-PT-19.png,0.43,1.2,29,0.75,,,,,,,,,,,,,,,,,,,,,,,,,,,,,,,,,,,,,,,,,,,,,
,,,,,V3_048,21,F,2024-11-05_15h35.14.194,jersey_experiment_5_v3,2023.2.2,Win32,84.74576271,,,,,,,,,,,,,,,,206.9897,208.5424,208.5424,209.4954,return,0.112,,40.10416667,0,59,59,11,1,FBP-YG-91.png,0.37,1.2,12,0.75,,,,,,,,,,,,,,,,,,,,,,,,,,,,,,,,,,,,,,,,,,,,,
,,,,,V3_048,21,F,2024-11-05_15h35.14.194,jersey_experiment_5_v3,2023.2.2,Win32,84.74576271,,,,,,,,,,,,,,,,209.4971,211.0486,211.0486,211.8014,return,0.1942,,76.04166667,,,,,,FBP-YG-18.png,0.45,1.2,10,0.75,0,0,0,9,1,,,,,,,,,,,,,,,,,,,,,,,,,,,,,,,,,,,,,,,,
,,,,,V3_048,21,F,2024-11-05_15h35.14.194,jersey_experiment_5_v3,2023.2.2,Win32,84.74576271,,,,,,,,,,,,,,,,211.8017,213.3543,213.3543,213.9191,return,0.1282,,44.66145833,,,,,,FBP-RB-81.png,0.37,1.2,52,0.75,0,1,1,51,1,,,,,,,,,,,,,,,,,,,,,,,,,,,,,,,,,,,,,,,,
,,,,,V3_048,21,F,2024-11-05_15h35.14.194,jersey_experiment_5_v3,2023.2.2,Win32,84.74576271,,,,,,,,,,,,,,,,213.9195,215.4722,215.4722,216.2957,return,0.1723,,91.14583333,,,,,,FBP-YG-17.png,0.43,1.2,4,0.75,0,2,2,3,1,,,,,,,,,,,,,,,,,,,,,,,,,,,,,,,,,,,,,,,,
,,,,,V3_048,21,F,2024-11-05_15h35.14.194,jersey_experiment_5_v3,2023.2.2,Win32,84.74576271,,,,,,,,,,,,,,,,216.2959,217.8487,217.8487,218.6722,return,0.1412,,78.64583333,,,,,,FBP-PT-81.png,0.43,1.2,24,0.75,0,3,3,23,1,,,,,,,,,,,,,,,,,,,,,,,,,,,,,,,,,,,,,,,,
,,,,,V3_048,21,F,2024-11-05_15h35.14.194,jersey_experiment_5_v3,2023.2.2,Win32,84.74576271,,,,,,,,,,,,,,,,218.6725,220.2252,220.2253,221.2957,return,0.2715,,86.06770833,,,,,,FBP-YG-19.png,0.4,1.2,13,0.75,0,4,4,12,1,,,,,,,,,,,,,,,,,,,,,,,,,,,,,,,,,,,,,,,,
,,,,,V3_048,21,F,2024-11-05_15h35.14.194,jersey_experiment_5_v3,2023.2.2,Win32,84.74576271,,,,,,,,,,,,,,,,221.296,222.849,222.849,223.6724,return,0.1467,,47.00520833,,,,,,FBP-YG-18.png,0.37,1.2,7,0.75,0,5,5,6,1,,,,,,,,,,,,,,,,,,,,,,,,,,,,,,,,,,,,,,,,
,,,,,V3_048,21,F,2024-11-05_15h35.14.194,jersey_experiment_5_v3,2023.2.2,Win32,84.74576271,,,,,,,,,,,,,,,,223.6726,225.2256,225.2256,225.8725,return,0.1649,,87.109375,,,,,,FBP-PT-91.png,0.45,1.2,30,0.75,0,6,6,29,1,,,,,,,,,,,,,,,,,,,,,,,,,,,,,,,,,,,,,,,,
,,,,,V3_048,21,F,2024-11-05_15h35.14.194,jersey_experiment_5_v3,2023.2.2,Win32,84.74576271,,,,,,,,,,,,,,,,225.8727,227.4256,227.4256,228.1196,return,0.0902,,25.78125,,,,,,FBP-PT-91.png,0.35,1.2,26,0.75,0,7,7,25,1,,,,,,,,,,,,,,,,,,,,,,,,,,,,,,,,,,,,,,,,
,,,,,V3_048,21,F,2024-11-05_15h35.14.194,jersey_experiment_5_v3,2023.2.2,Win32,84.74576271,,,,,,,,,,,,,,,,228.1198,229.6724,229.6725,230.3197,return,0.1179,,24.86979167,,,,,,FBP-RB-91.png,0.35,1.2,56,0.75,0,8,8,55,1,,,,,,,,,,,,,,,,,,,,,,,,,,,,,,,,,,,,,,,,
,,,,,V3_048,21,F,2024-11-05_15h35.14.194,jersey_experiment_5_v3,2023.2.2,Win32,84.74576271,,,,,,,,,,,,,,,,230.3199,231.8725,231.8726,232.3786,return,0.1677,,24.86979167,,,,,,FBP-PT-81.png,0.37,1.2,22,0.75,0,9,9,21,1,,,,,,,,,,,,,,,,,,,,,,,,,,,,,,,,,,,,,,,,
,,,,,V3_048,21,F,2024-11-05_15h35.14.194,jersey_experiment_5_v3,2023.2.2,Win32,84.74576271,,,,,,,,,,,,,,,,232.3788,233.9317,233.9317,234.6727,return,0.1412,,88.80208333,,,,,,FBP-RB-91.png,0.45,1.2,60,0.75,0,10,10,59,1,,,,,,,,,,,,,,,,,,,,,,,,,,,,,,,,,,,,,,,,
,,,,,V3_048,21,F,2024-11-05_15h35.14.194,jersey_experiment_5_v3,2023.2.2,Win32,84.74576271,,,,,,,,,,,,,,,,234.6729,236.2142,236.2142,236.6846,return,0.0005,,80.72916667,,,,,,FBP-YG-17.png,0.4,1.2,3,0.75,0,11,11,2,1,,,,,,,,,,,,,,,,,,,,,,,,,,,,,,,,,,,,,,,,
,,,,,V3_048,21,F,2024-11-05_15h35.14.194,jersey_experiment_5_v3,2023.2.2,Win32,84.74576271,,,,,,,,,,,,,,,,236.6849,237.9788,237.9788,238.967,return,0.4906,,84.11458333,,,,,,FBP-OG-71.png,0.43,1.2,34,0.5,0,12,12,33,1,,,,,,,,,,,,,,,,,,,,,,,,,,,,,,,,,,,,,,,,
,,,,,V3_048,21,F,2024-11-05_15h35.14.194,jersey_experiment_5_v3,2023.2.2,Win32,84.74576271,,,,,,,,,,,,,,,,238.9673,240.2613,240.2614,241.4023,return,0.1696,,38.15104167,,,,,,FBP-OG-81.png,0.35,1.2,36,0.5,0,13,13,35,1,,,,,,,,,,,,,,,,,,,,,,,,,,,,,,,,,,,,,,,,
,,,,,V3_048,21,F,2024-11-05_15h35.14.194,jersey_experiment_5_v3,2023.2.2,Win32,84.74576271,,,,,,,,,,,,,,,,241.4025,242.9438,242.9439,243.6966,return,0.097,,75.26041667,,,,,,FBP-PT-91.png,0.43,1.2,29,0.75,0,14,14,28,1,,,,,,,,,,,,,,,,,,,,,,,,,,,,,,,,,,,,,,,,
,,,,,V3_048,21,F,2024-11-05_15h35.14.194,jersey_experiment_5_v3,2023.2.2,Win32,84.74576271,,,,,,,,,,,,,,,,243.6969,244.9908,244.9908,247.3673,return,1.6905,,46.22395833,,,,,,FBP-OG-81.png,0.37,1.2,37,0.5,0,15,15,36,1,,,,,,,,,,,,,,,,,,,,,,,,,,,,,,,,,,,,,,,,
,,,,,V3_048,21,F,2024-11-05_15h35.14.194,jersey_experiment_5_v3,2023.2.2,Win32,84.74576271,,,,,,,,,,,,,,,,247.3676,248.6615,248.6615,250.2498,return,0.6253,,46.484375,,,,,,FBP-OG-81.png,0.43,1.2,39,0.5,0,16,16,38,1,,,,,,,,,,,,,,,,,,,,,,,,,,,,,,,,,,,,,,,,
,,,,,V3_048,21,F,2024-11-05_15h35.14.194,jersey_experiment_5_v3,2023.2.2,Win32,84.74576271,,,,,,,,,,,,,,,,250.25,251.5441,251.5442,252.2145,return,0.1489,,48.95833333,,,,,,FBP-OG-81.png,0.4,1.2,38,0.5,0,17,17,37,1,,,,,,,,,,,,,,,,,,,,,,,,,,,,,,,,,,,,,,,,
,,,,,V3_048,21,F,2024-11-05_15h35.14.194,jersey_experiment_5_v3,2023.2.2,Win32,84.74576271,,,,,,,,,,,,,,,,252.2147,253.7678,253.7678,254.7675,return,0.1747,,50.52083333,,,,,,FBP-RB-81.png,0.4,1.2,53,0.75,0,18,18,52,1,,,,,,,,,,,,,,,,,,,,,,,,,,,,,,,,,,,,,,,,
,,,,,V3_048,21,F,2024-11-05_15h35.14.194,jersey_experiment_5_v3,2023.2.2,Win32,84.74576271,,,,,,,,,,,,,,,,254.7678,256.3207,256.3207,257.6736,return,0.192,,62.63020833,,,,,,FBP-PT-71.png,0.45,1.2,20,0.75,0,19,19,19,1,,,,,,,,,,,,,,,,,,,,,,,,,,,,,,,,,,,,,,,,
,,,,,V3_048,21,F,2024-11-05_15h35.14.194,jersey_experiment_5_v3,2023.2.2,Win32,84.74576271,,,,,,,,,,,,,,,,257.6739,259.2266,259.2266,261.1208,return,0.8471,,35.15625,,,,,,FBP-PT-81.png,0.35,1.2,21,0.75,0,20,20,20,1,,,,,,,,,,,,,,,,,,,,,,,,,,,,,,,,,,,,,,,,
,,,,,V3_048,21,F,2024-11-05_15h35.14.194,jersey_experiment_5_v3,2023.2.2,Win32,84.74576271,,,,,,,,,,,,,,,,261.1211,262.6739,262.6739,264.6856,return,1.0261,,34.24479167,,,,,,FBP-RB-71.png,0.35,1.2,46,0.75,0,21,21,45,1,,,,,,,,,,,,,,,,,,,,,,,,,,,,,,,,,,,,,,,,
,,,,,V3_048,21,F,2024-11-05_15h35.14.194,jersey_experiment_5_v3,2023.2.2,Win32,84.74576271,,,,,,,,,,,,,,,,264.6859,266.2387,266.2387,267.5446,return,0.4303,,53.38541667,,,,,,FBP-PT-71.png,0.43,1.2,19,0.75,0,22,22,18,1,,,,,,,,,,,,,,,,,,,,,,,,,,,,,,,,,,,,,,,,
,,,,,V3_048,21,F,2024-11-05_15h35.14.194,jersey_experiment_5_v3,2023.2.2,Win32,84.74576271,,,,,,,,,,,,,,,,267.5448,268.8388,268.8388,269.4035,return,0.1057,,44.79166667,,,,,,FBP-OG-91.png,0.37,1.2,42,0.5,0,23,23,41,1,,,,,,,,,,,,,,,,,,,,,,,,,,,,,,,,,,,,,,,,
,,,,,V3_048,21,F,2024-11-05_15h35.14.194,jersey_experiment_5_v3,2023.2.2,Win32,84.74576271,,,,,,,,,,,,,,,,269.4037,270.9565,270.9565,272.3683,return,0.1514,,73.828125,,,,,,FBP-RB-91.png,0.43,1.2,59,0.75,0,24,24,58,1,,,,,,,,,,,,,,,,,,,,,,,,,,,,,,,,,,,,,,,,
,,,,,V3_048,21,F,2024-11-05_15h35.14.194,jersey_experiment_5_v3,2023.2.2,Win32,84.74576271,,,,,,,,,,,,,,,,272.3686,273.9211,273.9212,274.7683,return,0.071,,66.015625,,,,,,FBP-PT-71.png,0.4,1.2,18,0.75,0,25,25,17,1,,,,,,,,,,,,,,,,,,,,,,,,,,,,,,,,,,,,,,,,
,,,,,V3_048,21,F,2024-11-05_15h35.14.194,jersey_experiment_5_v3,2023.2.2,Win32,84.74576271,,,,,,,,,,,,,,,,274.7686,276.3212,276.3213,276.792,return,0.2292,,66.27604167,,,,,,FBP-RB-91.png,0.4,1.2,58,0.75,0,26,26,57,1,,,,,,,,,,,,,,,,,,,,,,,,,,,,,,,,,,,,,,,,
,,,,,V3_048,21,F,2024-11-05_15h35.14.194,jersey_experiment_5_v3,2023.2.2,Win32,84.74576271,,,,,,,,,,,,,,,,276.7922,278.3448,278.3449,279.0156,return,0.1467,,75.65104167,,,,,,FBP-RB-71.png,0.43,1.2,49,0.75,0,27,27,48,1,,,,,,,,,,,,,,,,,,,,,,,,,,,,,,,,,,,,,,,,
,,,,,V3_048,21,F,2024-11-05_15h35.14.194,jersey_experiment_5_v3,2023.2.2,Win32,84.74576271,,,,,,,,,,,,,,,,279.0159,280.5688,280.5688,281.2274,return,0.1806,,46.09375,,,,,,FBP-PT-71.png,0.35,1.2,16,0.75,0,28,28,15,1,,,,,,,,,,,,,,,,,,,,,,,,,,,,,,,,,,,,,,,,
,,,,,V3_048,21,F,2024-11-05_15h35.14.194,jersey_experiment_5_v3,2023.2.2,Win32,84.74576271,,,,,,,,,,,,,,,,281.2276,282.5215,282.5215,283.3098,return,0.1896,,36.58854167,,,,,,FBP-OG-71.png,0.35,1.2,31,0.5,0,29,29,30,1,,,,,,,,,,,,,,,,,,,,,,,,,,,,,,,,,,,,,,,,
,,,,,V3_048,21,F,2024-11-05_15h35.14.194,jersey_experiment_5_v3,2023.2.2,Win32,84.74576271,,,,,,,,,,,,,,,,283.31,284.8628,284.8628,285.5687,return,0.1888,,36.58854167,,,,,,FBP-PT-91.png,0.37,1.2,27,0.75,0,30,30,26,1,,,,,,,,,,,,,,,,,,,,,,,,,,,,,,,,,,,,,,,,
,,,,,V3_048,21,F,2024-11-05_15h35.14.194,jersey_experiment_5_v3,2023.2.2,Win32,84.74576271,,,,,,,,,,,,,,,,285.569,287.1217,287.1217,287.7218,return,0.3231,,36.71875,,,,,,FBP-YG-17.png,0.35,1.2,1,0.75,0,31,31,0,1,,,,,,,,,,,,,,,,,,,,,,,,,,,,,,,,,,,,,,,,
,,,,,V3_048,21,F,2024-11-05_15h35.14.194,jersey_experiment_5_v3,2023.2.2,Win32,84.74576271,,,,,,,,,,,,,,,,287.722,289.016,289.016,289.9689,return,0.1728,,48.56770833,,,,,,FBP-OG-91.png,0.43,1.2,44,0.5,0,32,32,43,1,,,,,,,,,,,,,,,,,,,,,,,,,,,,,,,,,,,,,,,,
,,,,,V3_048,21,F,2024-11-05_15h35.14.194,jersey_experiment_5_v3,2023.2.2,Win32,84.74576271,,,,,,,,,,,,,,,,289.9691,291.5219,291.5219,292.263,return,0.1949,,50.390625,,,,,,FBP-RB-71.png,0.4,1.2,48,0.75,0,33,33,47,1,,,,,,,,,,,,,,,,,,,,,,,,,,,,,,,,,,,,,,,,
,,,,,V3_048,21,F,2024-11-05_15h35.14.194,jersey_experiment_5_v3,2023.2.2,Win32,84.74576271,,,,,,,,,,,,,,,,292.2633,293.8045,293.8045,294.7809,return,0.1662,,61.328125,,,,,,FBP-PT-91.png,0.4,1.2,28,0.75,0,34,34,27,1,,,,,,,,,,,,,,,,,,,,,,,,,,,,,,,,,,,,,,,,
,,,,,V3_048,21,F,2024-11-05_15h35.14.194,jersey_experiment_5_v3,2023.2.2,Win32,84.74576271,,,,,,,,,,,,,,,,294.7812,296.334,296.334,296.922,return,0.169,,31.90104167,,,,,,FBP-RB-81.png,0.35,1.2,51,0.75,0,35,35,50,1,,,,,,,,,,,,,,,,,,,,,,,,,,,,,,,,,,,,,,,,
,,,,,V3_048,21,F,2024-11-05_15h35.14.194,jersey_experiment_5_v3,2023.2.2,Win32,84.74576271,,,,,,,,,,,,,,,,296.9221,298.4751,298.4751,299.6162,return,0.2118,,84.765625,,,,,,FBP-YG-19.png,0.45,1.2,15,0.75,0,36,36,14,1,,,,,,,,,,,,,,,,,,,,,,,,,,,,,,,,,,,,,,,,
,,,,,V3_048,21,F,2024-11-05_15h35.14.194,jersey_experiment_5_v3,2023.2.2,Win32,84.74576271,,,,,,,,,,,,,,,,299.6165,301.1694,301.1694,301.8163,return,0.122,,24.86979167,,,,,,FBP-YG-18.png,0.35,1.2,6,0.75,0,37,37,5,1,,,,,,,,,,,,,,,,,,,,,,,,,,,,,,,,,,,,,,,,
,,,,,V3_048,21,F,2024-11-05_15h35.14.194,jersey_experiment_5_v3,2023.2.2,Win32,84.74576271,,,,,,,,,,,,,,,,301.8166,303.3696,303.3697,304.2164,return,0.1469,,38.02083333,,,,,,FBP-RB-71.png,0.37,1.2,47,0.75,0,38,38,46,1,,,,,,,,,,,,,,,,,,,,,,,,,,,,,,,,,,,,,,,,
,,,,,V3_048,21,F,2024-11-05_15h35.14.194,jersey_experiment_5_v3,2023.2.2,Win32,84.74576271,,,,,,,,,,,,,,,,304.2166,305.7695,305.7696,307.4872,return,0.1655,,80.59895833,,,,,,FBP-RB-81.png,0.45,1.2,55,0.75,0,39,39,54,1,,,,,,,,,,,,,,,,,,,,,,,,,,,,,,,,,,,,,,,,
,,,,,V3_048,21,F,2024-11-05_15h35.14.194,jersey_experiment_5_v3,2023.2.2,Win32,84.74576271,,,,,,,,,,,,,,,,307.4874,308.7813,308.7813,309.7107,return,0.1024,,68.359375,,,,,,FBP-OG-91.png,0.4,1.2,43,0.5,0,40,40,42,1,,,,,,,,,,,,,,,,,,,,,,,,,,,,,,,,,,,,,,,,
,,,,,V3_048,21,F,2024-11-05_15h35.14.194,jersey_experiment_5_v3,2023.2.2,Win32,84.74576271,,,,,,,,,,,,,,,,309.7109,311.2638,311.2638,311.852,return,0.129,,73.046875,,,,,,FBP-PT-71.png,0.37,1.2,17,0.75,0,41,41,16,1,,,,,,,,,,,,,,,,,,,,,,,,,,,,,,,,,,,,,,,,
,,,,,V3_048,21,F,2024-11-05_15h35.14.194,jersey_experiment_5_v3,2023.2.2,Win32,84.74576271,,,,,,,,,,,,,,,,311.8523,313.1462,313.1462,314.0403,return,0.1581,,86.328125,,,,,,FBP-OG-71.png,0.45,1.2,35,0.5,0,42,42,34,1,,,,,,,,,,,,,,,,,,,,,,,,,,,,,,,,,,,,,,,,
,,,,,V3_048,21,F,2024-11-05_15h35.14.194,jersey_experiment_5_v3,2023.2.2,Win32,84.74576271,,,,,,,,,,,,,,,,314.0406,315.5818,315.5818,316.4169,return,0.1885,,40.10416667,,,,,,FBP-YG-18.png,0.4,1.2,8,0.75,0,43,43,7,1,,,,,,,,,,,,,,,,,,,,,,,,,,,,,,,,,,,,,,,,
,,,,,V3_048,21,F,2024-11-05_15h35.14.194,jersey_experiment_5_v3,2023.2.2,Win32,84.74576271,,,,,,,,,,,,,,,,316.4172,317.9699,317.97,319.5111,return,0.8199,,63.671875,,,,,,FBP-PT-81.png,0.4,1.2,23,0.75,0,44,44,22,1,,,,,,,,,,,,,,,,,,,,,,,,,,,,,,,,,,,,,,,,
,,,,,V3_048,21,F,2024-11-05_15h35.14.194,jersey_experiment_5_v3,2023.2.2,Win32,84.74576271,,,,,,,,,,,,,,,,319.5114,320.8053,320.8053,321.6171,return,0.1515,,41.53645833,,,,,,FBP-OG-71.png,0.37,1.2,32,0.5,0,45,45,31,1,,,,,,,,,,,,,,,,,,,,,,,,,,,,,,,,,,,,,,,,
,,,,,V3_048,21,F,2024-11-05_15h35.14.194,jersey_experiment_5_v3,2023.2.2,Win32,84.74576271,,,,,,,,,,,,,,,,321.6175,323.1702,323.1702,324.0642,return,0.1759,,48.95833333,,,,,,FBP-YG-17.png,0.37,1.2,2,0.75,0,46,46,1,1,,,,,,,,,,,,,,,,,,,,,,,,,,,,,,,,,,,,,,,,
,,,,,V3_048,21,F,2024-11-05_15h35.14.194,jersey_experiment_5_v3,2023.2.2,Win32,84.74576271,,,,,,,,,,,,,,,,324.0645,325.6173,325.6174,326.288,return,0.1859,,60.15625,,,,,,FBP-YG-19.png,0.37,1.2,12,0.75,0,47,47,11,1,,,,,,,,,,,,,,,,,,,,,,,,,,,,,,,,,,,,,,,,
,,,,,V3_048,21,F,2024-11-05_15h35.14.194,jersey_experiment_5_v3,2023.2.2,Win32,84.74576271,,,,,,,,,,,,,,,,326.2881,327.8408,327.8408,328.3349,return,0.0598,,73.56770833,,,,,,FBP-YG-17.png,0.45,1.2,5,0.75,0,48,48,4,1,,,,,,,,,,,,,,,,,,,,,,,,,,,,,,,,,,,,,,,,
,,,,,V3_048,21,F,2024-11-05_15h35.14.194,jersey_experiment_5_v3,2023.2.2,Win32,84.74576271,,,,,,,,,,,,,,,,328.3352,329.8881,329.8882,330.4291,return,0.0606,,42.83854167,,,,,,FBP-YG-19.png,0.35,1.2,11,0.75,0,49,49,10,1,,,,,,,,,,,,,,,,,,,,,,,,,,,,,,,,,,,,,,,,
,,,,,V3_048,21,F,2024-11-05_15h35.14.194,jersey_experiment_5_v3,2023.2.2,Win32,84.74576271,,,,,,,,,,,,,,,,330.4295,331.7234,331.7236,332.6644,return,0.1126,,81.11979167,,,,,,FBP-OG-81.png,0.45,1.2,40,0.5,0,50,50,39,1,,,,,,,,,,,,,,,,,,,,,,,,,,,,,,,,,,,,,,,,
,,,,,V3_048,21,F,2024-11-05_15h35.14.194,jersey_experiment_5_v3,2023.2.2,Win32,84.74576271,,,,,,,,,,,,,,,,332.6647,333.9586,333.9587,334.6059,return,0.1065,,85.80729167,,,,,,FBP-OG-91.png,0.45,1.2,45,0.5,0,51,51,44,1,,,,,,,,,,,,,,,,,,,,,,,,,,,,,,,,,,,,,,,,
,,,,,V3_048,21,F,2024-11-05_15h35.14.194,jersey_experiment_5_v3,2023.2.2,Win32,84.74576271,,,,,,,,,,,,,,,,334.6062,336.159,336.159,336.6177,return,0.0972,,88.41145833,,,,,,FBP-YG-18.png,0.43,1.2,9,0.75,0,52,52,8,1,,,,,,,,,,,,,,,,,,,,,,,,,,,,,,,,,,,,,,,,
,,,,,V3_048,21,F,2024-11-05_15h35.14.194,jersey_experiment_5_v3,2023.2.2,Win32,84.74576271,,,,,,,,,,,,,,,,336.6179,338.1707,338.1707,338.8294,return,0.085,,94.921875,,,,,,FBP-PT-81.png,0.45,1.2,25,0.75,0,53,53,24,1,,,,,,,,,,,,,,,,,,,,,,,,,,,,,,,,,,,,,,,,
,,,,,V3_048,21,F,2024-11-05_15h35.14.194,jersey_experiment_5_v3,2023.2.2,Win32,84.74576271,,,,,,,,,,,,,,,,338.8296,340.3708,340.3709,340.8766,return,0.0706,,43.09895833,,,,,,FBP-RB-91.png,0.37,1.2,57,0.75,0,54,54,56,1,,,,,,,,,,,,,,,,,,,,,,,,,,,,,,,,,,,,,,,,
,,,,,V3_048,21,F,2024-11-05_15h35.14.194,jersey_experiment_5_v3,2023.2.2,Win32,84.74576271,,,,,,,,,,,,,,,,340.8769,342.1708,342.1709,342.8414,return,0.0765,,44.140625,,,,,,FBP-OG-91.png,0.35,1.2,41,0.5,0,55,55,40,1,,,,,,,,,,,,,,,,,,,,,,,,,,,,,,,,,,,,,,,,
,,,,,V3_048,21,F,2024-11-05_15h35.14.194,jersey_experiment_5_v3,2023.2.2,Win32,84.74576271,,,,,,,,,,,,,,,,342.8416,344.3944,344.3945,344.8415,return,0.0528,,61.06770833,,,,,,FBP-RB-81.png,0.43,1.2,54,0.75,0,56,56,53,1,,,,,,,,,,,,,,,,,,,,,,,,,,,,,,,,,,,,,,,,
,,,,,V3_048,21,F,2024-11-05_15h35.14.194,jersey_experiment_5_v3,2023.2.2,Win32,84.74576271,,,,,,,,,,,,,,,,344.8416,346.3946,346.3946,346.8416,return,0.0762,,65.234375,,,,,,FBP-RB-71.png,0.45,1.2,50,0.75,0,57,57,49,1,,,,,,,,,,,,,,,,,,,,,,,,,,,,,,,,,,,,,,,,
,,,,,V3_048,21,F,2024-11-05_15h35.14.194,jersey_experiment_5_v3,2023.2.2,Win32,84.74576271,,,,,,,,,,,,,,,,346.8419,348.1356,348.1358,348.877,return,0.0375,,46.484375,,,,,,FBP-OG-71.png,0.4,1.2,33,0.5,0,58,58,32,1,,,,,,,,,,,,,,,,,,,,,,,,,,,,,,,,,,,,,,,,
,,,,,V3_048,21,F,2024-11-05_15h35.14.194,jersey_experiment_5_v3,2023.2.2,Win32,84.74576271,,,,,,,,,,,,,,,,348.8771,350.4299,350.4299,350.8888,return,0.0872,,46.484375,,,,,,FBP-YG-19.png,0.43,1.2,14,0.75,0,59,59,13,1,,,,,,,,,,,,,,,,,,,,,,,,,,,,,,,,,,,,,,,,
,,,,,V3_048,21,F,2024-11-05_15h35.14.194,jersey_experiment_5_v3,2023.2.2,Win32,84.74576271,,,,,,,,,,,,,,,,,,,,,,,,,,,,,,,,,,,,,,,350.8892,470.8814,,,,,,,,,,,,,,,,,,,,,,,,,,,,,,,,,,,,,,
,,,,,V3_048,21,F,2024-11-05_15h35.14.194,jersey_experiment_5_v3,2023.2.2,Win32,84.74576271,,,,,,,,,,,,,,,,,,,,,,,,,,,,,,,,,,,,,,,,,470.8817,481.7878,return,10.8941,,,,,,,,,,,,,,,,,,,,,,,,,,,,,,,,,,
,,,,,V3_048,21,F,2024-11-05_15h35.14.194,jersey_experiment_5_v3,2023.2.2,Win32,84.74576271,,,,,,,,,,,,,,,,481.7894,483.0816,483.0817,487.7879,return,2.9808,,60.41666667,,,,,,FBP-PT-17.png,0.43,1.2,19,0.5,,,,,,,,,,,,,0,0,0,18,1,,,,,,,,,,,,,,,,,,,,,,,,,,,,
,,,,,V3_048,21,F,2024-11-05_15h35.14.194,jersey_experiment_5_v3,2023.2.2,Win32,84.74576271,,,,,,,,,,,,,,,,487.7882,489.0821,489.0821,491.2233,return,1.6434,,60.15625,,,,,,FBP-YG-81.png,0.45,1.2,10,0.5,,,,,,,,,,,,,0,1,1,9,1,,,,,,,,,,,,,,,,,,,,,,,,,,,,
,,,,,V3_048,21,F,2024-11-05_15h35.14.194,jersey_experiment_5_v3,2023.2.2,Win32,84.74576271,,,,,,,,,,,,,,,,491.2236,492.5176,492.5177,493.6703,return,0.0995,,27.08333333,,,,,,FBP-PT-18.png,0.37,1.2,22,0.5,,,,,,,,,,,,,0,2,2,21,1,,,,,,,,,,,,,,,,,,,,,,,,,,,,
,,,,,V3_048,21,F,2024-11-05_15h35.14.194,jersey_experiment_5_v3,2023.2.2,Win32,84.74576271,,,,,,,,,,,,,,,,493.6706,494.9646,494.9646,495.7999,return,0.1249,,33.85416667,,,,,,FBP-RB-17.png,0.37,1.2,47,0.5,,,,,,,,,,,,,0,3,3,46,1,,,,,,,,,,,,,,,,,,,,,,,,,,,,
,,,,,V3_048,21,F,2024-11-05_15h35.14.194,jersey_experiment_5_v3,2023.2.2,Win32,84.74576271,,,,,,,,,,,,,,,,495.8001,497.0941,497.0941,498.5411,return,0.6852,,45.44270833,,,,,,FBP-RB-19.png,0.4,1.2,58,0.5,,,,,,,,,,,,,0,4,4,57,1,,,,,,,,,,,,,,,,,,,,,,,,,,,,
,,,,,V3_048,21,F,2024-11-05_15h35.14.194,jersey_experiment_5_v3,2023.2.2,Win32,84.74576271,,,,,,,,,,,,,,,,498.5414,499.8354,499.8354,500.6825,return,0.1919,,73.17708333,,,,,,FBP-PT-17.png,0.45,1.2,20,0.5,,,,,,,,,,,,,0,5,5,19,1,,,,,,,,,,,,,,,,,,,,,,,,,,,,
,,,,,V3_048,21,F,2024-11-05_15h35.14.194,jersey_experiment_5_v3,2023.2.2,Win32,84.74576271,,,,,,,,,,,,,,,,500.6827,501.9767,501.9768,502.7766,return,0.1831,,24.86979167,,,,,,FBP-YG-81.png,0.35,1.2,6,0.5,,,,,,,,,,,,,0,6,6,5,1,,,,,,,,,,,,,,,,,,,,,,,,,,,,
,,,,,V3_048,21,F,2024-11-05_15h35.14.194,jersey_experiment_5_v3,2023.2.2,Win32,84.74576271,,,,,,,,,,,,,,,,502.7769,504.0708,504.0708,505.1649,return,0.104,,31.640625,,,,,,FBP-YG-91.png,0.35,1.2,11,0.5,,,,,,,,,,,,,0,7,7,10,1,,,,,,,,,,,,,,,,,,,,,,,,,,,,
,,,,,V3_048,21,F,2024-11-05_15h35.14.194,jersey_experiment_5_v3,2023.2.2,Win32,84.74576271,,,,,,,,,,,,,,,,505.1651,506.4592,506.4592,508.1885,return,0.0467,,83.07291667,,,,,,FBP-PT-19.png,0.43,1.2,29,0.5,,,,,,,,,,,,,0,8,8,28,1,,,,,,,,,,,,,,,,,,,,,,,,,,,,
,,,,,V3_048,21,F,2024-11-05_15h35.14.194,jersey_experiment_5_v3,2023.2.2,Win32,84.74576271,,,,,,,,,,,,,,,,508.1887,509.483,509.483,510.224,return,0.0237,,22.39583333,,,,,,FBP-RB-19.png,0.35,1.2,56,0.5,,,,,,,,,,,,,0,9,9,55,1,,,,,,,,,,,,,,,,,,,,,,,,,,,,
,,,,,V3_048,21,F,2024-11-05_15h35.14.194,jersey_experiment_5_v3,2023.2.2,Win32,84.74576271,,,,,,,,,,,,,,,,510.2243,511.777,511.7771,512.33,return,0.0987,,60.546875,,,,,,FBP-OG-17.png,0.43,1.2,34,0.75,,,,,,,,,,,,,0,10,10,33,1,,,,,,,,,,,,,,,,,,,,,,,,,,,,
,,,,,V3_048,21,F,2024-11-05_15h35.14.194,jersey_experiment_5_v3,2023.2.2,Win32,84.74576271,,,,,,,,,,,,,,,,512.3302,513.6242,513.6243,514.3653,return,0.1037,,28.515625,,,,,,FBP-PT-18.png,0.35,1.2,21,0.5,,,,,,,,,,,,,0,11,11,20,1,,,,,,,,,,,,,,,,,,,,,,,,,,,,
,,,,,V3_048,21,F,2024-11-05_15h35.14.194,jersey_experiment_5_v3,2023.2.2,Win32,84.74576271,,,,,,,,,,,,,,,,514.3655,515.6594,515.6595,516.3772,return,0.1121,,50.390625,,,,,,FBP-RB-17.png,0.4,1.2,48,0.5,,,,,,,,,,,,,0,12,12,47,1,,,,,,,,,,,,,,,,,,,,,,,,,,,,
,,,,,V3_048,21,F,2024-11-05_15h35.14.194,jersey_experiment_5_v3,2023.2.2,Win32,84.74576271,,,,,,,,,,,,,,,,516.3774,517.6713,517.6713,519.0007,return,0.6748,,72.65625,,,,,,FBP-RB-18.png,0.43,1.2,54,0.5,,,,,,,,,,,,,0,13,13,53,1,,,,,,,,,,,,,,,,,,,,,,,,,,,,
,,,,,V3_048,21,F,2024-11-05_15h35.14.194,jersey_experiment_5_v3,2023.2.2,Win32,84.74576271,,,,,,,,,,,,,,,,519.0009,520.2948,520.2949,521.2479,return,0.2101,,78.25520833,,,,,,FBP-RB-17.png,0.43,1.2,49,0.5,,,,,,,,,,,,,0,14,14,48,1,,,,,,,,,,,,,,,,,,,,,,,,,,,,
,,,,,V3_048,21,F,2024-11-05_15h35.14.194,jersey_experiment_5_v3,2023.2.2,Win32,84.74576271,,,,,,,,,,,,,,,,521.248,522.5421,522.5421,523.3066,return,0.1456,,79.6875,,,,,,FBP-RB-17.png,0.45,1.2,50,0.5,,,,,,,,,,,,,0,15,15,49,1,,,,,,,,,,,,,,,,,,,,,,,,,,,,
,,,,,V3_048,21,F,2024-11-05_15h35.14.194,jersey_experiment_5_v3,2023.2.2,Win32,84.74576271,,,,,,,,,,,,,,,,523.3069,524.6009,524.6009,525.2127,return,0.1537,,82.03125,,,,,,FBP-RB-19.png,0.43,1.2,59,0.5,,,,,,,,,,,,,0,16,16,58,1,,,,,,,,,,,,,,,,,,,,,,,,,,,,
,,,,,V3_048,21,F,2024-11-05_15h35.14.194,jersey_experiment_5_v3,2023.2.2,Win32,84.74576271,,,,,,,,,,,,,,,,525.213,526.507,526.507,527.3422,return,0.1068,,22.13541667,,,,,,FBP-PT-19.png,0.35,1.2,26,0.5,,,,,,,,,,,,,0,17,17,25,1,,,,,,,,,,,,,,,,,,,,,,,,,,,,
,,,,,V3_048,21,F,2024-11-05_15h35.14.194,jersey_experiment_5_v3,2023.2.2,Win32,84.74576271,,,,,,,,,,,,,,,,527.3425,528.8954,528.8955,529.9189,return,0.0606,,49.86979167,,,,,,FBP-OG-18.png,0.45,1.2,40,0.75,,,,,,,,,,,,,0,18,18,39,1,,,,,,,,,,,,,,,,,,,,,,,,,,,,
,,,,,V3_048,21,F,2024-11-05_15h35.14.194,jersey_experiment_5_v3,2023.2.2,Win32,84.74576271,,,,,,,,,,,,,,,,529.919,531.4719,531.472,532.1894,return,0.1057,,14.453125,,,,,,FBP-OG-17.png,0.35,1.2,31,0.75,,,,,,,,,,,,,0,19,19,30,1,,,,,,,,,,,,,,,,,,,,,,,,,,,,
,,,,,V3_048,21,F,2024-11-05_15h35.14.194,jersey_experiment_5_v3,2023.2.2,Win32,84.74576271,,,,,,,,,,,,,,,,532.1896,533.4838,533.4839,534.1423,return,0.1281,,14.58333333,,,,,,FBP-YG-71.png,0.35,1.2,1,0.5,,,,,,,,,,,,,0,20,20,0,1,,,,,,,,,,,,,,,,,,,,,,,,,,,,
,,,,,V3_048,21,F,2024-11-05_15h35.14.194,jersey_experiment_5_v3,2023.2.2,Win32,84.74576271,,,,,,,,,,,,,,,,534.1426,535.6838,535.6839,536.8601,return,0.1331,,24.86979167,,,,,,FBP-OG-18.png,0.37,1.2,37,0.75,,,,,,,,,,,,,0,21,21,36,1,,,,,,,,,,,,,,,,,,,,,,,,,,,,
,,,,,V3_048,21,F,2024-11-05_15h35.14.194,jersey_experiment_5_v3,2023.2.2,Win32,84.74576271,,,,,,,,,,,,,,,,536.8604,538.1543,538.1544,539.2719,return,0.1011,,66.015625,,,,,,FBP-YG-81.png,0.43,1.2,9,0.5,,,,,,,,,,,,,0,22,22,8,1,,,,,,,,,,,,,,,,,,,,,,,,,,,,
,,,,,V3_048,21,F,2024-11-05_15h35.14.194,jersey_experiment_5_v3,2023.2.2,Win32,84.74576271,,,,,,,,,,,,,,,,539.2722,540.8251,540.8251,541.6721,return,0.0775,,55.72916667,,,,,,FBP-OG-18.png,0.43,1.2,39,0.75,,,,,,,,,,,,,0,23,23,38,1,,,,,,,,,,,,,,,,,,,,,,,,,,,,
,,,,,V3_048,21,F,2024-11-05_15h35.14.194,jersey_experiment_5_v3,2023.2.2,Win32,84.74576271,,,,,,,,,,,,,,,,541.6724,543.2252,543.2254,543.7192,return,0.1253,,52.86458333,,,,,,FBP-OG-19.png,0.35,1.2,41,0.75,,,,,,,,,,,,,0,24,24,40,1,,,,,,,,,,,,,,,,,,,,,,,,,,,,
,,,,,V3_048,21,F,2024-11-05_15h35.14.194,jersey_experiment_5_v3,2023.2.2,Win32,84.74576271,,,,,,,,,,,,,,,,543.7195,545.0134,545.0135,545.931,return,0.098,,74.73958333,,,,,,FBP-PT-18.png,0.43,1.2,24,0.5,,,,,,,,,,,,,0,25,25,23,1,,,,,,,,,,,,,,,,,,,,,,,,,,,,
,,,,,V3_048,21,F,2024-11-05_15h35.14.194,jersey_experiment_5_v3,2023.2.2,Win32,84.74576271,,,,,,,,,,,,,,,,545.9311,547.2252,547.2252,548.1429,return,0.1411,,71.09375,,,,,,FBP-YG-91.png,0.4,1.2,13,0.5,,,,,,,,,,,,,0,26,26,12,1,,,,,,,,,,,,,,,,,,,,,,,,,,,,
,,,,,V3_048,21,F,2024-11-05_15h35.14.194,jersey_experiment_5_v3,2023.2.2,Win32,84.74576271,,,,,,,,,,,,,,,,548.143,549.6959,549.6959,550.6018,return,0.1344,,43.48958333,,,,,,FBP-OG-19.png,0.37,1.2,42,0.75,,,,,,,,,,,,,0,27,27,41,1,,,,,,,,,,,,,,,,,,,,,,,,,,,,
,,,,,V3_048,21,F,2024-11-05_15h35.14.194,jersey_experiment_5_v3,2023.2.2,Win32,84.74576271,,,,,,,,,,,,,,,,550.6019,551.8959,551.896,552.4724,return,0.1477,,43.48958333,,,,,,FBP-RB-19.png,0.37,1.2,57,0.5,,,,,,,,,,,,,0,28,28,56,1,,,,,,,,,,,,,,,,,,,,,,,,,,,,
,,,,,V3_048,21,F,2024-11-05_15h35.14.194,jersey_experiment_5_v3,2023.2.2,Win32,84.74576271,,,,,,,,,,,,,,,,552.4725,553.7668,553.7668,555.249,return,0.67,,82.03125,,,,,,FBP-YG-91.png,0.45,1.2,15,0.5,,,,,,,,,,,,,0,29,29,14,1,,,,,,,,,,,,,,,,,,,,,,,,,,,,
,,,,,V3_048,21,F,2024-11-05_15h35.14.194,jersey_experiment_5_v3,2023.2.2,Win32,84.74576271,,,,,,,,,,,,,,,,555.2492,556.5431,556.5432,557.4022,return,0.0972,,92.31770833,,,,,,FBP-YG-71.png,0.45,1.2,5,0.5,,,,,,,,,,,,,0,30,30,4,1,,,,,,,,,,,,,,,,,,,,,,,,,,,,
,,,,,V3_048,21,F,2024-11-05_15h35.14.194,jersey_experiment_5_v3,2023.2.2,Win32,84.74576271,,,,,,,,,,,,,,,,557.4024,558.6963,558.6963,559.6258,return,0.1465,,64.19270833,,,,,,FBP-PT-18.png,0.4,1.2,23,0.5,,,,,,,,,,,,,0,31,31,22,1,,,,,,,,,,,,,,,,,,,,,,,,,,,,
,,,,,V3_048,21,F,2024-11-05_15h35.14.194,jersey_experiment_5_v3,2023.2.2,Win32,84.74576271,,,,,,,,,,,,,,,,559.626,560.9198,560.9198,561.614,return,0.1337,,55.59895833,,,,,,FBP-YG-81.png,0.37,1.2,7,0.5,,,,,,,,,,,,,0,32,32,6,1,,,,,,,,,,,,,,,,,,,,,,,,,,,,
,,,,,V3_048,21,F,2024-11-05_15h35.14.194,jersey_experiment_5_v3,2023.2.2,Win32,84.74576271,,,,,,,,,,,,,,,,561.6141,562.9081,562.9081,564.0258,return,0.1462,,51.82291667,,,,,,FBP-PT-17.png,0.37,1.2,17,0.5,,,,,,,,,,,,,0,33,33,16,1,,,,,,,,,,,,,,,,,,,,,,,,,,,,
,,,,,V3_048,21,F,2024-11-05_15h35.14.194,jersey_experiment_5_v3,2023.2.2,Win32,84.74576271,,,,,,,,,,,,,,,,564.026,565.32,565.32,566.073,return,0.1706,,59.24479167,,,,,,FBP-RB-18.png,0.37,1.2,52,0.5,,,,,,,,,,,,,0,34,34,51,1,,,,,,,,,,,,,,,,,,,,,,,,,,,,
,,,,,V3_048,21,F,2024-11-05_15h35.14.194,jersey_experiment_5_v3,2023.2.2,Win32,84.74576271,,,,,,,,,,,,,,,,566.0732,567.6259,567.6259,568.6025,return,0.0635,,57.03125,,,,,,FBP-OG-17.png,0.37,1.2,32,0.75,,,,,,,,,,,,,0,35,35,31,1,,,,,,,,,,,,,,,,,,,,,,,,,,,,
,,,,,V3_048,21,F,2024-11-05_15h35.14.194,jersey_experiment_5_v3,2023.2.2,Win32,84.74576271,,,,,,,,,,,,,,,,568.6026,570.1555,570.1556,570.9556,return,0.1795,,48.69791667,,,,,,FBP-OG-17.png,0.4,1.2,33,0.75,,,,,,,,,,,,,0,36,36,32,1,,,,,,,,,,,,,,,,,,,,,,,,,,,,
,,,,,V3_048,21,F,2024-11-05_15h35.14.194,jersey_experiment_5_v3,2023.2.2,Win32,84.74576271,,,,,,,,,,,,,,,,570.9557,572.2497,572.2498,573.1792,return,0.1218,,78.25520833,,,,,,FBP-RB-19.png,0.45,1.2,60,0.5,,,,,,,,,,,,,0,37,37,59,1,,,,,,,,,,,,,,,,,,,,,,,,,,,,
,,,,,V3_048,21,F,2024-11-05_15h35.14.194,jersey_experiment_5_v3,2023.2.2,Win32,84.74576271,,,,,,,,,,,,,,,,573.1793,574.4733,574.4733,575.3909,return,0.0544,,35.546875,,,,,,FBP-RB-18.png,0.35,1.2,51,0.5,,,,,,,,,,,,,0,38,38,50,1,,,,,,,,,,,,,,,,,,,,,,,,,,,,
,,,,,V3_048,21,F,2024-11-05_15h35.14.194,jersey_experiment_5_v3,2023.2.2,Win32,84.74576271,,,,,,,,,,,,,,,,575.3911,576.685,576.6851,577.5322,return,0.2943,,35.67708333,,,,,,FBP-PT-19.png,0.37,1.2,27,0.5,,,,,,,,,,,,,0,39,39,26,1,,,,,,,,,,,,,,,,,,,,,,,,,,,,
,,,,,V3_048,21,F,2024-11-05_15h35.14.194,jersey_experiment_5_v3,2023.2.2,Win32,84.74576271,,,,,,,,,,,,,,,,577.5325,578.8263,578.8263,579.8381,return,0.1419,,81.77083333,,,,,,FBP-PT-19.png,0.45,1.2,30,0.5,,,,,,,,,,,,,0,40,40,29,1,,,,,,,,,,,,,,,,,,,,,,,,,,,,
,,,,,V3_048,21,F,2024-11-05_15h35.14.194,jersey_experiment_5_v3,2023.2.2,Win32,84.74576271,,,,,,,,,,,,,,,,579.8383,581.3796,581.3797,582.0148,return,0.129,,42.70833333,,,,,,FBP-OG-18.png,0.4,1.2,38,0.75,,,,,,,,,,,,,0,41,41,37,1,,,,,,,,,,,,,,,,,,,,,,,,,,,,
,,,,,V3_048,21,F,2024-11-05_15h35.14.194,jersey_experiment_5_v3,2023.2.2,Win32,84.74576271,,,,,,,,,,,,,,,,582.0151,583.3089,583.3089,585.0737,return,1.0715,,57.03125,,,,,,FBP-PT-19.png,0.4,1.2,28,0.5,,,,,,,,,,,,,0,42,42,27,1,,,,,,,,,,,,,,,,,,,,,,,,,,,,
,,,,,V3_048,21,F,2024-11-05_15h35.14.194,jersey_experiment_5_v3,2023.2.2,Win32,84.74576271,,,,,,,,,,,,,,,,585.0738,586.3678,586.3679,587.3679,return,0.1249,,41.796875,,,,,,FBP-YG-71.png,0.37,1.2,2,0.5,,,,,,,,,,,,,0,43,43,1,1,,,,,,,,,,,,,,,,,,,,,,,,,,,,
,,,,,V3_048,21,F,2024-11-05_15h35.14.194,jersey_experiment_5_v3,2023.2.2,Win32,84.74576271,,,,,,,,,,,,,,,,587.3682,588.6619,588.6619,589.5211,return,0.1188,,86.97916667,,,,,,FBP-RB-18.png,0.45,1.2,55,0.5,,,,,,,,,,,,,0,44,44,54,1,,,,,,,,,,,,,,,,,,,,,,,,,,,,
,,,,,V3_048,21,F,2024-11-05_15h35.14.194,jersey_experiment_5_v3,2023.2.2,Win32,84.74576271,,,,,,,,,,,,,,,,589.5214,590.8152,590.8153,591.6974,return,0.1184,,66.53645833,,,,,,FBP-YG-71.png,0.4,1.2,3,0.5,,,,,,,,,,,,,0,45,45,2,1,,,,,,,,,,,,,,,,,,,,,,,,,,,,
,,,,,V3_048,21,F,2024-11-05_15h35.14.194,jersey_experiment_5_v3,2023.2.2,Win32,84.74576271,,,,,,,,,,,,,,,,591.6975,592.9916,592.9917,593.6621,return,0.0974,,77.21354167,,,,,,FBP-YG-81.png,0.4,1.2,8,0.5,,,,,,,,,,,,,0,46,46,7,1,,,,,,,,,,,,,,,,,,,,,,,,,,,,
,,,,,V3_048,21,F,2024-11-05_15h35.14.194,jersey_experiment_5_v3,2023.2.2,Win32,84.74576271,,,,,,,,,,,,,,,,593.6623,594.9564,594.9565,595.4622,return,0.1027,,85.15625,,,,,,FBP-PT-18.png,0.45,1.2,25,0.5,,,,,,,,,,,,,0,47,47,24,1,,,,,,,,,,,,,,,,,,,,,,,,,,,,
,,,,,V3_048,21,F,2024-11-05_15h35.14.194,jersey_experiment_5_v3,2023.2.2,Win32,84.74576271,,,,,,,,,,,,,,,,595.4624,596.7565,596.7565,597.2977,return,0.1282,,82.421875,,,,,,FBP-RB-18.png,0.4,1.2,53,0.5,,,,,,,,,,,,,0,48,48,52,1,,,,,,,,,,,,,,,,,,,,,,,,,,,,
,,,,,V3_048,21,F,2024-11-05_15h35.14.194,jersey_experiment_5_v3,2023.2.2,Win32,84.74576271,,,,,,,,,,,,,,,,597.2978,598.839,598.8391,599.6271,return,0.1064,,54.6875,,,,,,FBP-OG-19.png,0.4,1.2,43,0.75,,,,,,,,,,,,,0,49,49,42,1,,,,,,,,,,,,,,,,,,,,,,,,,,,,
,,,,,V3_048,21,F,2024-11-05_15h35.14.194,jersey_experiment_5_v3,2023.2.2,Win32,84.74576271,,,,,,,,,,,,,,,,599.6272,601.1804,601.1804,601.9919,return,0.0973,,76.69270833,,,,,,FBP-OG-19.png,0.45,1.2,45,0.75,,,,,,,,,,,,,0,50,50,44,1,,,,,,,,,,,,,,,,,,,,,,,,,,,,
,,,,,V3_048,21,F,2024-11-05_15h35.14.194,jersey_experiment_5_v3,2023.2.2,Win32,84.74576271,,,,,,,,,,,,,,,,601.9921,603.2861,603.2861,604.0625,return,0.0855,,46.61458333,,,,,,FBP-YG-91.png,0.37,1.2,12,0.5,,,,,,,,,,,,,0,51,51,11,1,,,,,,,,,,,,,,,,,,,,,,,,,,,,
,,,,,V3_048,21,F,2024-11-05_15h35.14.194,jersey_experiment_5_v3,2023.2.2,Win32,84.74576271,,,,,,,,,,,,,,,,604.0628,605.6155,605.6155,606.0392,return,0.1462,,46.35416667,,,,,,FBP-OG-18.png,0.35,1.2,36,0.75,,,,,,,,,,,,,0,52,52,35,1,,,,,,,,,,,,,,,,,,,,,,,,,,,,
,,,,,V3_048,21,F,2024-11-05_15h35.14.194,jersey_experiment_5_v3,2023.2.2,Win32,84.74576271,,,,,,,,,,,,,,,,606.0393,607.3334,607.3334,608.0745,return,0.1332,,58.46354167,,,,,,FBP-PT-17.png,0.4,1.2,18,0.5,,,,,,,,,,,,,0,53,53,17,1,,,,,,,,,,,,,,,,,,,,,,,,,,,,
,,,,,V3_048,21,F,2024-11-05_15h35.14.194,jersey_experiment_5_v3,2023.2.2,Win32,84.74576271,,,,,,,,,,,,,,,,608.0746,609.3687,609.3687,610.0157,return,0.117,,71.35416667,,,,,,FBP-YG-91.png,0.43,1.2,14,0.5,,,,,,,,,,,,,0,54,54,13,1,,,,,,,,,,,,,,,,,,,,,,,,,,,,
,,,,,V3_048,21,F,2024-11-05_15h35.14.194,jersey_experiment_5_v3,2023.2.2,Win32,84.74576271,,,,,,,,,,,,,,,,610.0159,611.5689,611.5689,612.4629,return,0.1318,,81.11979167,,,,,,FBP-OG-19.png,0.43,1.2,44,0.75,,,,,,,,,,,,,0,55,55,43,1,,,,,,,,,,,,,,,,,,,,,,,,,,,,
,,,,,V3_048,21,F,2024-11-05_15h35.14.194,jersey_experiment_5_v3,2023.2.2,Win32,84.74576271,,,,,,,,,,,,,,,,612.4631,613.7579,613.758,614.463,return,0.0549,,62.76041667,,,,,,FBP-RB-17.png,0.35,1.2,46,0.5,,,,,,,,,,,,,0,56,56,45,1,,,,,,,,,,,,,,,,,,,,,,,,,,,,
,,,,,V3_048,21,F,2024-11-05_15h35.14.194,jersey_experiment_5_v3,2023.2.2,Win32,84.74576271,,,,,,,,,,,,,,,,614.4633,615.7571,615.7571,616.569,return,0.0883,,81.51041667,,,,,,FBP-YG-71.png,0.43,1.2,4,0.5,,,,,,,,,,,,,0,57,57,3,1,,,,,,,,,,,,,,,,,,,,,,,,,,,,
,,,,,V3_048,21,F,2024-11-05_15h35.14.194,jersey_experiment_5_v3,2023.2.2,Win32,84.74576271,,,,,,,,,,,,,,,,616.5693,617.8632,617.8632,618.8278,return,0.1183,,19.921875,,,,,,FBP-PT-17.png,0.35,1.2,16,0.5,,,,,,,,,,,,,0,58,58,15,1,,,,,,,,,,,,,,,,,,,,,,,,,,,,
,,,,,V3_048,21,F,2024-11-05_15h35.14.194,jersey_experiment_5_v3,2023.2.2,Win32,84.74576271,,,,,,,,,,,,,,,,618.828,620.3693,620.3694,621.1339,return,0.0934,,80.33854167,,,,,,FBP-OG-17.png,0.45,1.2,35,0.75,,,,,,,,,,,,,0,59,59,34,1,,,,,,,,,,,,,,,,,,,,,,,,,,,,
,,,,,V3_048,21,F,2024-11-05_15h35.14.194,jersey_experiment_5_v3,2023.2.2,Win32,84.74576271,,,,,,,,,,,,,,,,621.1358,622.428,622.4281,623.5457,return,0.0616,,21.22395833,,,,,,FBP-YG-19.png,0.37,1.2,12,0.5,,,,,,,,,,,,,,,,,,0,0,0,11,1,,,,,,,,,,,,,,,,,,,,,,,
,,,,,V3_048,21,F,2024-11-05_15h35.14.194,jersey_experiment_5_v3,2023.2.2,Win32,84.74576271,,,,,,,,,,,,,,,,623.546,624.8399,624.8399,625.8517,return,0.1068,,70.3125,,,,,,FBP-YG-19.png,0.4,1.2,13,0.5,,,,,,,,,,,,,,,,,,0,1,1,12,1,,,,,,,,,,,,,,,,,,,,,,,
,,,,,V3_048,21,F,2024-11-05_15h35.14.194,jersey_experiment_5_v3,2023.2.2,Win32,84.74576271,,,,,,,,,,,,,,,,625.8519,627.1459,627.1459,628.1695,return,0.0972,,21.875,,,,,,FBP-RB-91.png,0.35,1.2,56,0.5,,,,,,,,,,,,,,,,,,0,2,2,55,1,,,,,,,,,,,,,,,,,,,,,,,
,,,,,V3_048,21,F,2024-11-05_15h35.14.194,jersey_experiment_5_v3,2023.2.2,Win32,84.74576271,,,,,,,,,,,,,,,,628.1697,629.4637,629.4638,630.24,return,0.0507,,45.18229167,,,,,,FBP-RB-91.png,0.37,1.2,57,0.5,,,,,,,,,,,,,,,,,,0,3,3,56,1,,,,,,,,,,,,,,,,,,,,,,,
,,,,,V3_048,21,F,2024-11-05_15h35.14.194,jersey_experiment_5_v3,2023.2.2,Win32,84.74576271,,,,,,,,,,,,,,,,630.2402,631.5344,631.5344,632.3699,return,0.1039,,77.34375,,,,,,FBP-PT-91.png,0.45,1.2,30,0.5,,,,,,,,,,,,,,,,,,0,4,4,29,1,,,,,,,,,,,,,,,,,,,,,,,
,,,,,V3_048,21,F,2024-11-05_15h35.14.194,jersey_experiment_5_v3,2023.2.2,Win32,84.74576271,,,,,,,,,,,,,,,,632.3702,633.6638,633.6639,634.4755,return,0.0487,,61.06770833,,,,,,FBP-PT-91.png,0.4,1.2,28,0.5,,,,,,,,,,,,,,,,,,0,5,5,27,1,,,,,,,,,,,,,,,,,,,,,,,
,,,,,V3_048,21,F,2024-11-05_15h35.14.194,jersey_experiment_5_v3,2023.2.2,Win32,84.74576271,,,,,,,,,,,,,,,,634.4756,636.0169,636.0171,636.9343,return,0.0869,,74.21875,,,,,,FBP-OG-81.png,0.43,1.2,39,0.75,,,,,,,,,,,,,,,,,,0,6,6,38,1,,,,,,,,,,,,,,,,,,,,,,,
,,,,,V3_048,21,F,2024-11-05_15h35.14.194,jersey_experiment_5_v3,2023.2.2,Win32,84.74576271,,,,,,,,,,,,,,,,636.9345,638.2286,638.2286,638.8875,return,0.1486,,76.43229167,,,,,,FBP-YG-19.png,0.45,1.2,15,0.5,,,,,,,,,,,,,,,,,,0,7,7,14,1,,,,,,,,,,,,,,,,,,,,,,,
,,,,,V3_048,21,F,2024-11-05_15h35.14.194,jersey_experiment_5_v3,2023.2.2,Win32,84.74576271,,,,,,,,,,,,,,,,638.8877,640.1817,640.1818,641.0053,return,0.1297,,54.16666667,,,,,,FBP-RB-81.png,0.35,1.2,51,0.5,,,,,,,,,,,,,,,,,,0,8,8,50,1,,,,,,,,,,,,,,,,,,,,,,,
,,,,,V3_048,21,F,2024-11-05_15h35.14.194,jersey_experiment_5_v3,2023.2.2,Win32,84.74576271,,,,,,,,,,,,,,,,641.0055,642.2993,642.2993,643.0641,return,0.0657,,45.3125,,,,,,FBP-RB-71.png,0.35,1.2,46,0.5,,,,,,,,,,,,,,,,,,0,9,9,45,1,,,,,,,,,,,,,,,,,,,,,,,
,,,,,V3_048,21,F,2024-11-05_15h35.14.194,jersey_experiment_5_v3,2023.2.2,Win32,84.74576271,,,,,,,,,,,,,,,,643.0644,644.3584,644.3584,644.8759,return,0.1404,,45.3125,,,,,,FBP-YG-19.png,0.35,1.2,11,0.5,,,,,,,,,,,,,,,,,,0,10,10,10,1,,,,,,,,,,,,,,,,,,,,,,,
,,,,,V3_048,21,F,2024-11-05_15h35.14.194,jersey_experiment_5_v3,2023.2.2,Win32,84.74576271,,,,,,,,,,,,,,,,644.8762,646.1703,646.1703,647.0525,return,0.1065,,75.91145833,,,,,,FBP-YG-17.png,0.43,1.2,4,0.5,,,,,,,,,,,,,,,,,,0,11,11,3,1,,,,,,,,,,,,,,,,,,,,,,,
,,,,,V3_048,21,F,2024-11-05_15h35.14.194,jersey_experiment_5_v3,2023.2.2,Win32,84.74576271,,,,,,,,,,,,,,,,647.0527,648.6057,648.6057,649.182,return,0.1312,,40.10416667,,,,,,FBP-OG-91.png,0.37,1.2,42,0.75,,,,,,,,,,,,,,,,,,0,12,12,41,1,,,,,,,,,,,,,,,,,,,,,,,
,,,,,V3_048,21,F,2024-11-05_15h35.14.194,jersey_experiment_5_v3,2023.2.2,Win32,84.74576271,,,,,,,,,,,,,,,,649.1821,650.4762,650.4762,651.2173,return,0.1176,,40.234375,,,,,,FBP-RB-71.png,0.37,1.2,47,0.5,,,,,,,,,,,,,,,,,,0,13,13,46,1,,,,,,,,,,,,,,,,,,,,,,,
,,,,,V3_048,21,F,2024-11-05_15h35.14.194,jersey_experiment_5_v3,2023.2.2,Win32,84.74576271,,,,,,,,,,,,,,,,651.2175,652.5114,652.5115,653.0056,return,0.1289,,40.234375,,,,,,FBP-PT-81.png,0.35,1.2,21,0.5,,,,,,,,,,,,,,,,,,0,14,14,20,1,,,,,,,,,,,,,,,,,,,,,,,
,,,,,V3_048,21,F,2024-11-05_15h35.14.194,jersey_experiment_5_v3,2023.2.2,Win32,84.74576271,,,,,,,,,,,,,,,,653.0059,654.2997,654.2998,654.8411,return,0.1942,,40.234375,,,,,,FBP-PT-71.png,0.37,1.2,17,0.5,,,,,,,,,,,,,,,,,,0,15,15,16,1,,,,,,,,,,,,,,,,,,,,,,,
,,,,,V3_048,21,F,2024-11-05_15h35.14.194,jersey_experiment_5_v3,2023.2.2,Win32,84.74576271,,,,,,,,,,,,,,,,654.8413,656.3941,656.3941,656.9352,return,0.102,,54.16666667,,,,,,FBP-OG-81.png,0.4,1.2,38,0.75,,,,,,,,,,,,,,,,,,0,16,16,37,1,,,,,,,,,,,,,,,,,,,,,,,
,,,,,V3_048,21,F,2024-11-05_15h35.14.194,jersey_experiment_5_v3,2023.2.2,Win32,84.74576271,,,,,,,,,,,,,,,,656.9355,658.2293,658.2293,659.6882,return,0.8303,,75.13020833,,,,,,FBP-PT-91.png,0.43,1.2,29,0.5,,,,,,,,,,,,,,,,,,0,17,17,28,1,,,,,,,,,,,,,,,,,,,,,,,
,,,,,V3_048,21,F,2024-11-05_15h35.14.194,jersey_experiment_5_v3,2023.2.2,Win32,84.74576271,,,,,,,,,,,,,,,,659.6884,660.9823,660.9824,661.9119,return,0.1232,,73.828125,,,,,,FBP-PT-81.png,0.43,1.2,24,0.5,,,,,,,,,,,,,,,,,,0,18,18,23,1,,,,,,,,,,,,,,,,,,,,,,,
,,,,,V3_048,21,F,2024-11-05_15h35.14.194,jersey_experiment_5_v3,2023.2.2,Win32,84.74576271,,,,,,,,,,,,,,,,661.9121,663.2062,663.2063,664.0414,return,0.1704,,72.13541667,,,,,,FBP-RB-81.png,0.4,1.2,53,0.5,,,,,,,,,,,,,,,,,,0,19,19,52,1,,,,,,,,,,,,,,,,,,,,,,,
,,,,,V3_048,21,F,2024-11-05_15h35.14.194,jersey_experiment_5_v3,2023.2.2,Win32,84.74576271,,,,,,,,,,,,,,,,664.0416,665.5945,665.5945,666.2179,return,0.0641,,32.421875,,,,,,FBP-OG-71.png,0.35,1.2,31,0.75,,,,,,,,,,,,,,,,,,0,20,20,30,1,,,,,,,,,,,,,,,,,,,,,,,
,,,,,V3_048,21,F,2024-11-05_15h35.14.194,jersey_experiment_5_v3,2023.2.2,Win32,84.74576271,,,,,,,,,,,,,,,,666.2182,667.5119,667.512,668.0767,return,0.118,,39.84375,,,,,,FBP-PT-81.png,0.37,1.2,22,0.5,,,,,,,,,,,,,,,,,,0,21,21,21,1,,,,,,,,,,,,,,,,,,,,,,,
,,,,,V3_048,21,F,2024-11-05_15h35.14.194,jersey_experiment_5_v3,2023.2.2,Win32,84.74576271,,,,,,,,,,,,,,,,668.0769,669.3709,669.371,670.0415,return,0.1232,,49.08854167,,,,,,FBP-YG-17.png,0.4,1.2,3,0.5,,,,,,,,,,,,,,,,,,0,22,22,2,1,,,,,,,,,,,,,,,,,,,,,,,
,,,,,V3_048,21,F,2024-11-05_15h35.14.194,jersey_experiment_5_v3,2023.2.2,Win32,84.74576271,,,,,,,,,,,,,,,,670.0419,671.5946,671.5947,672.9829,return,0.1832,,74.609375,,,,,,FBP-OG-81.png,0.45,1.2,40,0.75,,,,,,,,,,,,,,,,,,0,23,23,39,1,,,,,,,,,,,,,,,,,,,,,,,
,,,,,V3_048,21,F,2024-11-05_15h35.14.194,jersey_experiment_5_v3,2023.2.2,Win32,84.74576271,,,,,,,,,,,,,,,,672.9831,674.277,674.2771,674.8416,return,0.0523,,67.44791667,,,,,,FBP-RB-81.png,0.37,1.2,52,0.5,,,,,,,,,,,,,,,,,,0,24,24,51,1,,,,,,,,,,,,,,,,,,,,,,,
,,,,,V3_048,21,F,2024-11-05_15h35.14.194,jersey_experiment_5_v3,2023.2.2,Win32,84.74576271,,,,,,,,,,,,,,,,674.8419,676.1358,676.1358,676.8301,return,0.2148,,75.13020833,,,,,,FBP-PT-71.png,0.43,1.2,19,0.5,,,,,,,,,,,,,,,,,,0,25,25,18,1,,,,,,,,,,,,,,,,,,,,,,,
,,,,,V3_048,21,F,2024-11-05_15h35.14.194,jersey_experiment_5_v3,2023.2.2,Win32,84.74576271,,,,,,,,,,,,,,,,676.8303,678.124,678.1241,678.7829,return,0.1565,,76.953125,,,,,,FBP-RB-91.png,0.4,1.2,58,0.5,,,,,,,,,,,,,,,,,,0,26,26,57,1,,,,,,,,,,,,,,,,,,,,,,,
,,,,,V3_048,21,F,2024-11-05_15h35.14.194,jersey_experiment_5_v3,2023.2.2,Win32,84.74576271,,,,,,,,,,,,,,,,678.7832,680.3361,680.3362,681.0184,return,0.1423,,33.46354167,,,,,,FBP-OG-91.png,0.35,1.2,41,0.75,,,,,,,,,,,,,,,,,,0,27,27,40,1,,,,,,,,,,,,,,,,,,,,,,,
,,,,,V3_048,21,F,2024-11-05_15h35.14.194,jersey_experiment_5_v3,2023.2.2,Win32,84.74576271,,,,,,,,,,,,,,,,681.0186,682.5715,682.5715,683.0655,return,0.145,,44.140625,,,,,,FBP-OG-71.png,0.37,1.2,32,0.75,,,,,,,,,,,,,,,,,,0,28,28,31,1,,,,,,,,,,,,,,,,,,,,,,,
,,,,,V3_048,21,F,2024-11-05_15h35.14.194,jersey_experiment_5_v3,2023.2.2,Win32,84.74576271,,,,,,,,,,,,,,,,683.0658,684.3597,684.3597,685.595,return,0.1452,,30.72916667,,,,,,FBP-YG-17.png,0.35,1.2,1,0.5,,,,,,,,,,,,,,,,,,0,29,29,0,1,,,,,,,,,,,,,,,,,,,,,,,
,,,,,V3_048,21,F,2024-11-05_15h35.14.194,jersey_experiment_5_v3,2023.2.2,Win32,84.74576271,,,,,,,,,,,,,,,,685.5953,686.8892,686.8892,687.4658,return,0.1111,,30.72916667,,,,,,FBP-PT-91.png,0.37,1.2,27,0.5,,,,,,,,,,,,,,,,,,0,30,30,26,1,,,,,,,,,,,,,,,,,,,,,,,
,,,,,V3_048,21,F,2024-11-05_15h35.14.194,jersey_experiment_5_v3,2023.2.2,Win32,84.74576271,,,,,,,,,,,,,,,,687.466,688.7601,688.7601,689.5363,return,0.1314,,77.86458333,,,,,,FBP-RB-91.png,0.45,1.2,60,0.5,,,,,,,,,,,,,,,,,,0,31,31,59,1,,,,,,,,,,,,,,,,,,,,,,,
,,,,,V3_048,21,F,2024-11-05_15h35.14.194,jersey_experiment_5_v3,2023.2.2,Win32,84.74576271,,,,,,,,,,,,,,,,689.5365,690.8306,690.8306,691.6776,return,0.1777,,75.65104167,,,,,,FBP-YG-18.png,0.43,1.2,9,0.5,,,,,,,,,,,,,,,,,,0,32,32,8,1,,,,,,,,,,,,,,,,,,,,,,,
,,,,,V3_048,21,F,2024-11-05_15h35.14.194,jersey_experiment_5_v3,2023.2.2,Win32,84.74576271,,,,,,,,,,,,,,,,691.6779,692.9719,692.9719,694.0071,return,0.655,,64.58333333,,,,,,FBP-YG-18.png,0.35,1.2,6,0.5,,,,,,,,,,,,,,,,,,0,33,33,5,1,,,,,,,,,,,,,,,,,,,,,,,
,,,,,V3_048,21,F,2024-11-05_15h35.14.194,jersey_experiment_5_v3,2023.2.2,Win32,84.74576271,,,,,,,,,,,,,,,,694.0073,695.5602,695.5602,696.2071,return,0.0942,,87.890625,,,,,,FBP-OG-71.png,0.45,1.2,35,0.75,,,,,,,,,,,,,,,,,,0,34,34,34,1,,,,,,,,,,,,,,,,,,,,,,,
,,,,,V3_048,21,F,2024-11-05_15h35.14.194,jersey_experiment_5_v3,2023.2.2,Win32,84.74576271,,,,,,,,,,,,,,,,696.2074,697.5013,697.5014,698.3603,return,0.2403,,85.546875,,,,,,FBP-PT-81.png,0.4,1.2,23,0.5,,,,,,,,,,,,,,,,,,0,35,35,22,1,,,,,,,,,,,,,,,,,,,,,,,
,,,,,V3_048,21,F,2024-11-05_15h35.14.194,jersey_experiment_5_v3,2023.2.2,Win32,84.74576271,,,,,,,,,,,,,,,,698.3605,699.9133,699.9133,700.7015,return,0.4016,,77.47395833,,,,,,FBP-OG-91.png,0.45,1.2,45,0.75,,,,,,,,,,,,,,,,,,0,36,36,44,1,,,,,,,,,,,,,,,,,,,,,,,
,,,,,V3_048,21,F,2024-11-05_15h35.14.194,jersey_experiment_5_v3,2023.2.2,Win32,84.74576271,,,,,,,,,,,,,,,,700.7018,701.9956,701.9956,703.1838,return,0.3908,,87.5,,,,,,FBP-RB-91.png,0.43,1.2,59,0.5,,,,,,,,,,,,,,,,,,0,37,37,58,1,,,,,,,,,,,,,,,,,,,,,,,
,,,,,V3_048,21,F,2024-11-05_15h35.14.194,jersey_experiment_5_v3,2023.2.2,Win32,84.74576271,,,,,,,,,,,,,,,,703.184,704.4782,704.4782,705.0664,return,0.1677,,86.97916667,,,,,,FBP-YG-19.png,0.43,1.2,14,0.5,,,,,,,,,,,,,,,,,,0,38,38,13,1,,,,,,,,,,,,,,,,,,,,,,,
,,,,,V3_048,21,F,2024-11-05_15h35.14.194,jersey_experiment_5_v3,2023.2.2,Win32,84.74576271,,,,,,,,,,,,,,,,705.0666,706.6193,706.6193,707.1958,return,0.1543,,86.97916667,,,,,,FBP-OG-71.png,0.43,1.2,34,0.75,,,,,,,,,,,,,,,,,,0,39,39,33,1,,,,,,,,,,,,,,,,,,,,,,,
,,,,,V3_048,21,F,2024-11-05_15h35.14.194,jersey_experiment_5_v3,2023.2.2,Win32,84.74576271,,,,,,,,,,,,,,,,707.196,708.49,708.4901,709.4548,return,0.212,,47.91666667,,,,,,FBP-PT-71.png,0.35,1.2,16,0.5,,,,,,,,,,,,,,,,,,0,40,40,15,1,,,,,,,,,,,,,,,,,,,,,,,
,,,,,V3_048,21,F,2024-11-05_15h35.14.194,jersey_experiment_5_v3,2023.2.2,Win32,84.74576271,,,,,,,,,,,,,,,,709.4551,710.7488,710.7489,711.5136,return,0.1818,,79.16666667,,,,,,FBP-RB-71.png,0.43,1.2,49,0.5,,,,,,,,,,,,,,,,,,0,41,41,48,1,,,,,,,,,,,,,,,,,,,,,,,
,,,,,V3_048,21,F,2024-11-05_15h35.14.194,jersey_experiment_5_v3,2023.2.2,Win32,84.74576271,,,,,,,,,,,,,,,,711.5138,712.8079,712.8079,713.4196,return,0.2349,,79.16666667,,,,,,FBP-PT-81.png,0.45,1.2,25,0.5,,,,,,,,,,,,,,,,,,0,42,42,24,1,,,,,,,,,,,,,,,,,,,,,,,
,,,,,V3_048,21,F,2024-11-05_15h35.14.194,jersey_experiment_5_v3,2023.2.2,Win32,84.74576271,,,,,,,,,,,,,,,,713.4199,714.7138,714.7138,715.4079,return,0.175,,67.83854167,,,,,,FBP-YG-18.png,0.4,1.2,8,0.5,,,,,,,,,,,,,,,,,,0,43,43,7,1,,,,,,,,,,,,,,,,,,,,,,,
,,,,,V3_048,21,F,2024-11-05_15h35.14.194,jersey_experiment_5_v3,2023.2.2,Win32,84.74576271,,,,,,,,,,,,,,,,715.4081,716.9609,716.9609,717.7374,return,0.1704,,62.76041667,,,,,,FBP-OG-91.png,0.4,1.2,43,0.75,,,,,,,,,,,,,,,,,,0,44,44,42,1,,,,,,,,,,,,,,,,,,,,,,,
,,,,,V3_048,21,F,2024-11-05_15h35.14.194,jersey_experiment_5_v3,2023.2.2,Win32,84.74576271,,,,,,,,,,,,,,,,717.7376,719.2904,719.2904,719.8785,return,0.22,,63.54166667,,,,,,FBP-OG-91.png,0.43,1.2,44,0.75,,,,,,,,,,,,,,,,,,0,45,45,43,1,,,,,,,,,,,,,,,,,,,,,,,
,,,,,V3_048,21,F,2024-11-05_15h35.14.194,jersey_experiment_5_v3,2023.2.2,Win32,84.74576271,,,,,,,,,,,,,,,,719.8788,721.1727,721.1729,721.8317,return,0.1485,,78.77604167,,,,,,FBP-PT-71.png,0.45,1.2,20,0.5,,,,,,,,,,,,,,,,,,0,46,46,19,1,,,,,,,,,,,,,,,,,,,,,,,
,,,,,V3_048,21,F,2024-11-05_15h35.14.194,jersey_experiment_5_v3,2023.2.2,Win32,84.74576271,,,,,,,,,,,,,,,,721.832,723.1259,723.126,723.7611,return,0.1413,,58.59375,,,,,,FBP-RB-71.png,0.4,1.2,48,0.5,,,,,,,,,,,,,,,,,,0,47,47,47,1,,,,,,,,,,,,,,,,,,,,,,,
,,,,,V3_048,21,F,2024-11-05_15h35.14.194,jersey_experiment_5_v3,2023.2.2,Win32,84.74576271,,,,,,,,,,,,,,,,723.7614,725.0553,725.0553,726.1024,return,0.1935,,85.28645833,,,,,,FBP-RB-81.png,0.43,1.2,54,0.5,,,,,,,,,,,,,,,,,,0,48,48,53,1,,,,,,,,,,,,,,,,,,,,,,,
,,,,,V3_048,21,F,2024-11-05_15h35.14.194,jersey_experiment_5_v3,2023.2.2,Win32,84.74576271,,,,,,,,,,,,,,,,726.1026,727.3967,727.3967,728.6084,return,0.7058,,59.375,,,,,,FBP-YG-17.png,0.37,1.2,2,0.5,,,,,,,,,,,,,,,,,,0,49,49,1,1,,,,,,,,,,,,,,,,,,,,,,,
,,,,,V3_048,21,F,2024-11-05_15h35.14.194,jersey_experiment_5_v3,2023.2.2,Win32,84.74576271,,,,,,,,,,,,,,,,728.6087,729.9027,729.9027,730.5377,return,0.1224,,80.98958333,,,,,,FBP-RB-81.png,0.45,1.2,55,0.5,,,,,,,,,,,,,,,,,,0,50,50,54,1,,,,,,,,,,,,,,,,,,,,,,,
,,,,,V3_048,21,F,2024-11-05_15h35.14.194,jersey_experiment_5_v3,2023.2.2,Win32,84.74576271,,,,,,,,,,,,,,,,730.5379,731.8319,731.8319,732.385,return,0.1205,,80.98958333,,,,,,FBP-YG-18.png,0.45,1.2,10,0.5,,,,,,,,,,,,,,,,,,0,51,51,9,1,,,,,,,,,,,,,,,,,,,,,,,
,,,,,V3_048,21,F,2024-11-05_15h35.14.194,jersey_experiment_5_v3,2023.2.2,Win32,84.74576271,,,,,,,,,,,,,,,,732.3853,733.6792,733.6792,734.3968,return,0.261,,95.05208333,,,,,,FBP-YG-17.png,0.45,1.2,5,0.5,,,,,,,,,,,,,,,,,,0,52,52,4,1,,,,,,,,,,,,,,,,,,,,,,,
,,,,,V3_048,21,F,2024-11-05_15h35.14.194,jersey_experiment_5_v3,2023.2.2,Win32,84.74576271,,,,,,,,,,,,,,,,734.3969,735.9382,735.9382,736.6792,return,0.1487,,37.63020833,,,,,,FBP-OG-81.png,0.37,1.2,37,0.75,,,,,,,,,,,,,,,,,,0,53,53,36,1,,,,,,,,,,,,,,,,,,,,,,,
,,,,,V3_048,21,F,2024-11-05_15h35.14.194,jersey_experiment_5_v3,2023.2.2,Win32,84.74576271,,,,,,,,,,,,,,,,736.6795,738.2322,738.2322,738.8441,return,0.1443,,51.5625,,,,,,FBP-OG-71.png,0.4,1.2,33,0.75,,,,,,,,,,,,,,,,,,0,54,54,32,1,,,,,,,,,,,,,,,,,,,,,,,
,,,,,V3_048,21,F,2024-11-05_15h35.14.194,jersey_experiment_5_v3,2023.2.2,Win32,84.74576271,,,,,,,,,,,,,,,,738.8443,740.1381,740.1382,741.0559,return,0.1284,,76.04166667,,,,,,FBP-RB-71.png,0.45,1.2,50,0.5,,,,,,,,,,,,,,,,,,0,55,55,49,1,,,,,,,,,,,,,,,,,,,,,,,
,,,,,V3_048,21,F,2024-11-05_15h35.14.194,jersey_experiment_5_v3,2023.2.2,Win32,84.74576271,,,,,,,,,,,,,,,,741.0561,742.35,742.3501,743.4089,return,0.0466,,46.875,,,,,,FBP-PT-91.png,0.35,1.2,26,0.5,,,,,,,,,,,,,,,,,,0,56,56,25,1,,,,,,,,,,,,,,,,,,,,,,,
,,,,,V3_048,21,F,2024-11-05_15h35.14.194,jersey_experiment_5_v3,2023.2.2,Win32,84.74576271,,,,,,,,,,,,,,,,743.4092,744.962,744.9621,745.409,return,0.0945,,45.3125,,,,,,FBP-OG-81.png,0.35,1.2,36,0.75,,,,,,,,,,,,,,,,,,0,57,57,35,1,,,,,,,,,,,,,,,,,,,,,,,
,,,,,V3_048,21,F,2024-11-05_15h35.14.194,jersey_experiment_5_v3,2023.2.2,Win32,84.74576271,,,,,,,,,,,,,,,,745.4093,746.7032,746.7032,747.1621,return,0.2054,,45.3125,,,,,,FBP-YG-18.png,0.37,1.2,7,0.5,,,,,,,,,,,,,,,,,,0,58,58,6,1,,,,,,,,,,,,,,,,,,,,,,,
,,,,,V3_048,21,F,2024-11-05_15h35.14.194,jersey_experiment_5_v3,2023.2.2,Win32,84.74576271,,,,,,,,,,,,,,,,747.1624,748.4561,748.4562,748.8798,return,0.1542,,45.3125,,,,,,FBP-PT-71.png,0.4,1.2,18,0.5,,,,,,,,,,,,,,,,,,0,59,59,17,1,,,,,,,,,,,,,,,,,,,,,,,
,,,,,V3_048,21,F,2024-11-05_15h35.14.194,jersey_experiment_5_v3,2023.2.2,Win32,84.74576271,,,,,,,,,,,,,,,,,,,,,,,,,,,,,,,,,,,,,,,,,,,,,,,,,,,,,,,,748.88,750.8328,return,1.9407,,,,,,,,,,,,,,,,,,,
,,,,,V3_048,21,F,2024-11-05_15h35.14.194,jersey_experiment_5_v3,2023.2.2,Win32,84.74576271,,,,,,,,,,,,,,,,,,,,,,,,,,,,,,,,,,,,,,,,,,,,,,,,,,,,,,,,,,,,,750.8331,752.7977,1,1.5326,return,0.4088,,,,,,,,,,,,
,,,,,V3_048,21,F,2024-11-05_15h35.14.194,jersey_experiment_5_v3,2023.2.2,Win32,84.74576271,,,,,,,,,,,,,,,,,,,,,,,,,,,,,,,,,,,,,,,,,,,,,,,,,,,,,,,,,,,,,,,,,,,,752.7979,781.0698,studying perception,right,10.0595,,,,,,
,,,,,V3_048,21,F,2024-11-05_15h35.14.194,jersey_experiment_5_v3,2023.2.2,Win32,84.74576271,,,,,,,,,,,,,,,,,,,,,,,,,,,,,,,,,,,,,,,,,,,,,,,,,,,,,,,,,,,,,,,,,,,,,,,,,,781.0698,785.6108,return,4.5322,