requirements.started,requirements.stopped,key_resp_3.keys,key_resp_3.rt,key_resp_3.duration,Subject ID,Age,Gender,date,expName,psychopyVersion,OS,frameRate,instructions1.started,instructions1.stopped,key_resp.keys,key_resp.rt,key_resp.duration,example.started,example.stopped,enter_2.keys,enter_2.rt,enter_2.duration,instructions2.started,instructions2.stopped,enter_3.keys,enter_3.rt,enter_3.duration,image.started,image.stopped,slider_2.started,slider_2.stopped,next.keys,next.rt,next.duration,slider.response,trial_block_1.thisRepN,trial_block_1.thisTrialN,trial_block_1.thisN,trial_block_1.thisIndex,trial_block_1.ran,Path,Width,Height,Index,Duration,trial_block_2.thisRepN,trial_block_2.thisTrialN,trial_block_2.thisN,trial_block_2.thisIndex,trial_block_2.ran,rest_break.started,rest_break.stopped,end_break.started,end_break.stopped,key_resp_5.keys,key_resp_5.rt,key_resp_5.duration,trial_block_3.thisRepN,trial_block_3.thisTrialN,trial_block_3.thisN,trial_block_3.thisIndex,trial_block_3.ran,trial_block_4.thisRepN,trial_block_4.thisTrialN,trial_block_4.thisN,trial_block_4.thisIndex,trial_block_4.ran,questions_intro.started,questions_intro.stopped,enter_12.keys,enter_12.rt,enter_12.duration,question2.started,question2.stopped,question_doingbest.response,question_doingbest.rt,enter_15.keys,enter_15.rt,enter_15.duration,pattern.started,pattern.stopped,pattern_2.text,enter_17.keys,enter_17.rt,enter_17.duration,thankyou.started,thankyou.stopped,enter_14.keys,enter_14.rt,enter_14.duration
0,6.6832,return,6.6701,,V3_072,18,Male,2024-11-16_18h35.41.081,jersey_experiment_5_v3,2023.2.2,Win32,84.74576271,,,,,,,,,,,,,,,,,,,,,,,,,,,,,,,,,,,,,,,,,,,,,,,,,,,,,,,,,,,,,,,,,,,,,,,,,,,,,,
,,,,,V3_072,18,Male,2024-11-16_18h35.41.081,jersey_experiment_5_v3,2023.2.2,Win32,84.74576271,6.6832,14.0192,return,7.3174,,,,,,,,,,,,,,,,,,,,,,,,,,,,,,,,,,,,,,,,,,,,,,,,,,,,,,,,,,,,,,,,,,,,,,,,,,
,,,,,V3_072,18,Male,2024-11-16_18h35.41.081,jersey_experiment_5_v3,2023.2.2,Win32,84.74576271,,,,,,14.0192,21.9074,return,7.8612,,,,,,,,,,,,,,,,,,,,,,,,,,,,,,,,,,,,,,,,,,,,,,,,,,,,,,,,,,,,,,,,,,,,,
,,,,,V3_072,18,Male,2024-11-16_18h35.41.081,jersey_experiment_5_v3,2023.2.2,Win32,84.74576271,,,,,,,,,,,21.9074,32.6136,return,10.6989,,,,,,,,,,,,,,,,,,,,,,,,,,,,,,,,,,,,,,,,,,,,,,,,,,,,,,,,,,,,,,,,
,,,,,V3_072,18,Male,2024-11-16_18h35.41.081,jersey_experiment_5_v3,2023.2.2,Win32,84.74576271,,,,,,,,,,,,,,,,32.6152,34.1664,34.1665,40.9198,return,1.9795,,82.8125,0,0,0,24,1,FBP-PT-18.png,0.45,1.2,25,0.75,,,,,,,,,,,,,,,,,,,,,,,,,,,,,,,,,,,,,,,,,,,,,
,,,,,V3_072,18,Male,2024-11-16_18h35.41.081,jersey_experiment_5_v3,2023.2.2,Win32,84.74576271,,,,,,,,,,,,,,,,40.9202,42.214,42.214,44.661,return,0.2295,,61.58854167,0,1,1,36,1,FBP-OG-18.png,0.37,1.2,37,0.5,,,,,,,,,,,,,,,,,,,,,,,,,,,,,,,,,,,,,,,,,,,,,
,,,,,V3_072,18,Male,2024-11-16_18h35.41.081,jersey_experiment_5_v3,2023.2.2,Win32,84.74576271,,,,,,,,,,,,,,,,44.6612,45.9552,45.9552,48.0847,return,0.2052,,44.140625,0,2,2,41,1,FBP-OG-19.png,0.37,1.2,42,0.5,,,,,,,,,,,,,,,,,,,,,,,,,,,,,,,,,,,,,,,,,,,,,
,,,,,V3_072,18,Male,2024-11-16_18h35.41.081,jersey_experiment_5_v3,2023.2.2,Win32,84.74576271,,,,,,,,,,,,,,,,48.0849,49.6377,49.6378,55.9438,return,0.8973,,79.42708333,0,3,3,21,1,FBP-PT-18.png,0.37,1.2,22,0.75,,,,,,,,,,,,,,,,,,,,,,,,,,,,,,,,,,,,,,,,,,,,,
,,,,,V3_072,18,Male,2024-11-16_18h35.41.081,jersey_experiment_5_v3,2023.2.2,Win32,84.74576271,,,,,,,,,,,,,,,,55.9441,57.4969,57.497,61.3087,return,0.8945,,61.45833333,0,4,4,17,1,FBP-PT-17.png,0.4,1.2,18,0.75,,,,,,,,,,,,,,,,,,,,,,,,,,,,,,,,,,,,,,,,,,,,,
,,,,,V3_072,18,Male,2024-11-16_18h35.41.081,jersey_experiment_5_v3,2023.2.2,Win32,84.74576271,,,,,,,,,,,,,,,,61.309,62.8617,62.8617,65.1913,return,0.4038,,35.28645833,0,5,5,15,1,FBP-PT-17.png,0.35,1.2,16,0.75,,,,,,,,,,,,,,,,,,,,,,,,,,,,,,,,,,,,,,,,,,,,,
,,,,,V3_072,18,Male,2024-11-16_18h35.41.081,jersey_experiment_5_v3,2023.2.2,Win32,84.74576271,,,,,,,,,,,,,,,,65.1915,66.7443,66.7443,69.5326,return,0.0137,,44.66145833,0,6,6,26,1,FBP-PT-19.png,0.37,1.2,27,0.75,,,,,,,,,,,,,,,,,,,,,,,,,,,,,,,,,,,,,,,,,,,,,
,,,,,V3_072,18,Male,2024-11-16_18h35.41.081,jersey_experiment_5_v3,2023.2.2,Win32,84.74576271,,,,,,,,,,,,,,,,69.5328,71.0854,71.0855,74.1327,return,1.0415,,86.06770833,0,7,7,5,1,FBP-YG-81.png,0.35,1.2,6,0.75,,,,,,,,,,,,,,,,,,,,,,,,,,,,,,,,,,,,,,,,,,,,,
,,,,,V3_072,18,Male,2024-11-16_18h35.41.081,jersey_experiment_5_v3,2023.2.2,Win32,84.74576271,,,,,,,,,,,,,,,,74.1331,75.6858,75.6859,78.3329,return,0.2957,,79.94791667,0,8,8,18,1,FBP-PT-17.png,0.43,1.2,19,0.75,,,,,,,,,,,,,,,,,,,,,,,,,,,,,,,,,,,,,,,,,,,,,
,,,,,V3_072,18,Male,2024-11-16_18h35.41.081,jersey_experiment_5_v3,2023.2.2,Win32,84.74576271,,,,,,,,,,,,,,,,78.3331,79.8859,79.886,82.333,return,0.1891,,99.86979167,0,9,9,29,1,FBP-PT-19.png,0.45,1.2,30,0.75,,,,,,,,,,,,,,,,,,,,,,,,,,,,,,,,,,,,,,,,,,,,,
,,,,,V3_072,18,Male,2024-11-16_18h35.41.081,jersey_experiment_5_v3,2023.2.2,Win32,84.74576271,,,,,,,,,,,,,,,,82.3334,83.8861,83.8861,87.9096,return,2.2054,,60.546875,0,10,10,50,1,FBP-RB-18.png,0.35,1.2,51,0.75,,,,,,,,,,,,,,,,,,,,,,,,,,,,,,,,,,,,,,,,,,,,,
,,,,,V3_072,18,Male,2024-11-16_18h35.41.081,jersey_experiment_5_v3,2023.2.2,Win32,84.74576271,,,,,,,,,,,,,,,,87.9099,89.4511,89.4512,91.3334,return,0.6038,,63.671875,0,11,11,45,1,FBP-RB-17.png,0.35,1.2,46,0.75,,,,,,,,,,,,,,,,,,,,,,,,,,,,,,,,,,,,,,,,,,,,,
,,,,,V3_072,18,Male,2024-11-16_18h35.41.081,jersey_experiment_5_v3,2023.2.2,Win32,84.74576271,,,,,,,,,,,,,,,,91.3336,92.8863,92.8863,96.1218,return,0.9549,,76.69270833,0,12,12,57,1,FBP-RB-19.png,0.4,1.2,58,0.75,,,,,,,,,,,,,,,,,,,,,,,,,,,,,,,,,,,,,,,,,,,,,
,,,,,V3_072,18,Male,2024-11-16_18h35.41.081,jersey_experiment_5_v3,2023.2.2,Win32,84.74576271,,,,,,,,,,,,,,,,96.1221,97.4159,97.416,99.6279,return,0.5883,,64.0625,0,13,13,35,1,FBP-OG-18.png,0.35,1.2,36,0.5,,,,,,,,,,,,,,,,,,,,,,,,,,,,,,,,,,,,,,,,,,,,,
,,,,,V3_072,18,Male,2024-11-16_18h35.41.081,jersey_experiment_5_v3,2023.2.2,Win32,84.74576271,,,,,,,,,,,,,,,,99.6281,101.1809,101.181,103.0043,return,0.6592,,90.234375,0,14,14,28,1,FBP-PT-19.png,0.43,1.2,29,0.75,,,,,,,,,,,,,,,,,,,,,,,,,,,,,,,,,,,,,,,,,,,,,
,,,,,V3_072,18,Male,2024-11-16_18h35.41.081,jersey_experiment_5_v3,2023.2.2,Win32,84.74576271,,,,,,,,,,,,,,,,103.0046,104.5573,104.5574,107.0281,return,0.8882,,90.88541667,0,15,15,3,1,FBP-YG-71.png,0.43,1.2,4,0.75,,,,,,,,,,,,,,,,,,,,,,,,,,,,,,,,,,,,,,,,,,,,,
,,,,,V3_072,18,Male,2024-11-16_18h35.41.081,jersey_experiment_5_v3,2023.2.2,Win32,84.74576271,,,,,,,,,,,,,,,,107.0284,108.5812,108.5813,112.1223,return,0.5781,,84.765625,0,16,16,1,1,FBP-YG-71.png,0.37,1.2,2,0.75,,,,,,,,,,,,,,,,,,,,,,,,,,,,,,,,,,,,,,,,,,,,,
,,,,,V3_072,18,Male,2024-11-16_18h35.41.081,jersey_experiment_5_v3,2023.2.2,Win32,84.74576271,,,,,,,,,,,,,,,,112.1227,113.4166,113.4166,115.9108,return,0.628,,96.74479167,0,17,17,33,1,FBP-OG-17.png,0.43,1.2,34,0.5,,,,,,,,,,,,,,,,,,,,,,,,,,,,,,,,,,,,,,,,,,,,,
,,,,,V3_072,18,Male,2024-11-16_18h35.41.081,jersey_experiment_5_v3,2023.2.2,Win32,84.74576271,,,,,,,,,,,,,,,,115.911,117.4636,117.4637,120.6991,return,1.0118,,94.01041667,0,18,18,53,1,FBP-RB-18.png,0.43,1.2,54,0.75,,,,,,,,,,,,,,,,,,,,,,,,,,,,,,,,,,,,,,,,,,,,,
,,,,,V3_072,18,Male,2024-11-16_18h35.41.081,jersey_experiment_5_v3,2023.2.2,Win32,84.74576271,,,,,,,,,,,,,,,,120.6993,122.2522,122.2522,124.6639,return,0.6969,,79.81770833,0,19,19,46,1,FBP-RB-17.png,0.37,1.2,47,0.75,,,,,,,,,,,,,,,,,,,,,,,,,,,,,,,,,,,,,,,,,,,,,
,,,,,V3_072,18,Male,2024-11-16_18h35.41.081,jersey_experiment_5_v3,2023.2.2,Win32,84.74576271,,,,,,,,,,,,,,,,124.6642,126.217,126.217,130.9465,return,2.8204,,95.05208333,0,20,20,13,1,FBP-YG-91.png,0.43,1.2,14,0.75,,,,,,,,,,,,,,,,,,,,,,,,,,,,,,,,,,,,,,,,,,,,,
,,,,,V3_072,18,Male,2024-11-16_18h35.41.081,jersey_experiment_5_v3,2023.2.2,Win32,84.74576271,,,,,,,,,,,,,,,,130.9468,132.4998,132.4998,134.5468,return,0.6787,,100,0,21,21,19,1,FBP-PT-17.png,0.45,1.2,20,0.75,,,,,,,,,,,,,,,,,,,,,,,,,,,,,,,,,,,,,,,,,,,,,
,,,,,V3_072,18,Male,2024-11-16_18h35.41.081,jersey_experiment_5_v3,2023.2.2,Win32,84.74576271,,,,,,,,,,,,,,,,134.547,135.8409,135.841,139.0999,return,0.6671,,99.47916667,0,22,22,44,1,FBP-OG-19.png,0.45,1.2,45,0.5,,,,,,,,,,,,,,,,,,,,,,,,,,,,,,,,,,,,,,,,,,,,,
,,,,,V3_072,18,Male,2024-11-16_18h35.41.081,jersey_experiment_5_v3,2023.2.2,Win32,84.74576271,,,,,,,,,,,,,,,,139.1001,140.6528,140.6529,145.2765,return,0.7786,,72.39583333,0,23,23,11,1,FBP-YG-91.png,0.37,1.2,12,0.75,,,,,,,,,,,,,,,,,,,,,,,,,,,,,,,,,,,,,,,,,,,,,
,,,,,V3_072,18,Male,2024-11-16_18h35.41.081,jersey_experiment_5_v3,2023.2.2,Win32,84.74576271,,,,,,,,,,,,,,,,145.2767,146.8297,146.8297,151.4297,return,3.3577,,78.25520833,0,24,24,51,1,FBP-RB-18.png,0.37,1.2,52,0.75,,,,,,,,,,,,,,,,,,,,,,,,,,,,,,,,,,,,,,,,,,,,,
,,,,,V3_072,18,Male,2024-11-16_18h35.41.081,jersey_experiment_5_v3,2023.2.2,Win32,84.74576271,,,,,,,,,,,,,,,,151.43,152.7239,152.7239,154.7945,return,0.6357,,100,0,25,25,43,1,FBP-OG-19.png,0.43,1.2,44,0.5,,,,,,,,,,,,,,,,,,,,,,,,,,,,,,,,,,,,,,,,,,,,,
,,,,,V3_072,18,Male,2024-11-16_18h35.41.081,jersey_experiment_5_v3,2023.2.2,Win32,84.74576271,,,,,,,,,,,,,,,,154.7948,156.3474,156.3474,158.6653,return,0.7288,,44.79166667,0,26,26,27,1,FBP-PT-19.png,0.4,1.2,28,0.75,,,,,,,,,,,,,,,,,,,,,,,,,,,,,,,,,,,,,,,,,,,,,
,,,,,V3_072,18,Male,2024-11-16_18h35.41.081,jersey_experiment_5_v3,2023.2.2,Win32,84.74576271,,,,,,,,,,,,,,,,158.6655,160.2184,160.2185,162.5008,return,1.3208,,55.078125,0,27,27,12,1,FBP-YG-91.png,0.4,1.2,13,0.75,,,,,,,,,,,,,,,,,,,,,,,,,,,,,,,,,,,,,,,,,,,,,
,,,,,V3_072,18,Male,2024-11-16_18h35.41.081,jersey_experiment_5_v3,2023.2.2,Win32,84.74576271,,,,,,,,,,,,,,,,162.501,164.0535,164.0536,165.336,return,0.5781,,63.15104167,0,28,28,2,1,FBP-YG-71.png,0.4,1.2,3,0.75,,,,,,,,,,,,,,,,,,,,,,,,,,,,,,,,,,,,,,,,,,,,,
,,,,,V3_072,18,Male,2024-11-16_18h35.41.081,jersey_experiment_5_v3,2023.2.2,Win32,84.74576271,,,,,,,,,,,,,,,,165.3362,166.8775,166.8775,169.3245,return,0.8624,,100,0,29,29,54,1,FBP-RB-18.png,0.45,1.2,55,0.75,,,,,,,,,,,,,,,,,,,,,,,,,,,,,,,,,,,,,,,,,,,,,
,,,,,V3_072,18,Male,2024-11-16_18h35.41.081,jersey_experiment_5_v3,2023.2.2,Win32,84.74576271,,,,,,,,,,,,,,,,169.3247,170.8777,170.8777,173.3953,return,0.6167,,71.09375,0,30,30,10,1,FBP-YG-91.png,0.35,1.2,11,0.75,,,,,,,,,,,,,,,,,,,,,,,,,,,,,,,,,,,,,,,,,,,,,
,,,,,V3_072,18,Male,2024-11-16_18h35.41.081,jersey_experiment_5_v3,2023.2.2,Win32,84.74576271,,,,,,,,,,,,,,,,173.3955,174.9481,174.9482,176.6189,return,0.6591,,57.16145833,0,31,31,16,1,FBP-PT-17.png,0.37,1.2,17,0.75,,,,,,,,,,,,,,,,,,,,,,,,,,,,,,,,,,,,,,,,,,,,,
,,,,,V3_072,18,Male,2024-11-16_18h35.41.081,jersey_experiment_5_v3,2023.2.2,Win32,84.74576271,,,,,,,,,,,,,,,,176.6192,178.1719,178.172,181.7015,return,1.6261,,62.36979167,0,32,32,47,1,FBP-RB-17.png,0.4,1.2,48,0.75,,,,,,,,,,,,,,,,,,,,,,,,,,,,,,,,,,,,,,,,,,,,,
,,,,,V3_072,18,Male,2024-11-16_18h35.41.081,jersey_experiment_5_v3,2023.2.2,Win32,84.74576271,,,,,,,,,,,,,,,,181.7017,183.2545,183.2546,184.9487,return,0.7007,,100,0,33,33,4,1,FBP-YG-71.png,0.45,1.2,5,0.75,,,,,,,,,,,,,,,,,,,,,,,,,,,,,,,,,,,,,,,,,,,,,
,,,,,V3_072,18,Male,2024-11-16_18h35.41.081,jersey_experiment_5_v3,2023.2.2,Win32,84.74576271,,,,,,,,,,,,,,,,184.9489,186.2428,186.2429,190.0899,return,0.7412,,77.86458333,0,34,34,38,1,FBP-OG-18.png,0.43,1.2,39,0.5,,,,,,,,,,,,,,,,,,,,,,,,,,,,,,,,,,,,,,,,,,,,,
,,,,,V3_072,18,Male,2024-11-16_18h35.41.081,jersey_experiment_5_v3,2023.2.2,Win32,84.74576271,,,,,,,,,,,,,,,,190.0902,191.643,191.643,193.7372,return,0.7162,,100,0,35,35,9,1,FBP-YG-81.png,0.45,1.2,10,0.75,,,,,,,,,,,,,,,,,,,,,,,,,,,,,,,,,,,,,,,,,,,,,
,,,,,V3_072,18,Male,2024-11-16_18h35.41.081,jersey_experiment_5_v3,2023.2.2,Win32,84.74576271,,,,,,,,,,,,,,,,193.7374,195.2902,195.2902,198.0196,return,0.7601,,100,0,36,36,59,1,FBP-RB-19.png,0.45,1.2,60,0.75,,,,,,,,,,,,,,,,,,,,,,,,,,,,,,,,,,,,,,,,,,,,,
,,,,,V3_072,18,Male,2024-11-16_18h35.41.081,jersey_experiment_5_v3,2023.2.2,Win32,84.74576271,,,,,,,,,,,,,,,,198.0199,199.3139,199.3139,202.8552,return,0.8154,,64.19270833,0,37,37,39,1,FBP-OG-18.png,0.45,1.2,40,0.5,,,,,,,,,,,,,,,,,,,,,,,,,,,,,,,,,,,,,,,,,,,,,
,,,,,V3_072,18,Male,2024-11-16_18h35.41.081,jersey_experiment_5_v3,2023.2.2,Win32,84.74576271,,,,,,,,,,,,,,,,202.8554,204.1492,204.1492,206.3141,return,0.6603,,25.91145833,0,38,38,30,1,FBP-OG-17.png,0.35,1.2,31,0.5,,,,,,,,,,,,,,,,,,,,,,,,,,,,,,,,,,,,,,,,,,,,,
,,,,,V3_072,18,Male,2024-11-16_18h35.41.081,jersey_experiment_5_v3,2023.2.2,Win32,84.74576271,,,,,,,,,,,,,,,,206.3144,207.6083,207.6084,209.3496,return,0.6141,,39.32291667,0,39,39,32,1,FBP-OG-17.png,0.4,1.2,33,0.5,,,,,,,,,,,,,,,,,,,,,,,,,,,,,,,,,,,,,,,,,,,,,
,,,,,V3_072,18,Male,2024-11-16_18h35.41.081,jersey_experiment_5_v3,2023.2.2,Win32,84.74576271,,,,,,,,,,,,,,,,209.3499,210.6437,210.6437,212.9496,return,0.8253,,82.68229167,0,40,40,34,1,FBP-OG-17.png,0.45,1.2,35,0.5,,,,,,,,,,,,,,,,,,,,,,,,,,,,,,,,,,,,,,,,,,,,,
,,,,,V3_072,18,Male,2024-11-16_18h35.41.081,jersey_experiment_5_v3,2023.2.2,Win32,84.74576271,,,,,,,,,,,,,,,,212.9499,214.4912,214.4912,217.3144,return,0.6675,,73.046875,0,41,41,6,1,FBP-YG-81.png,0.37,1.2,7,0.75,,,,,,,,,,,,,,,,,,,,,,,,,,,,,,,,,,,,,,,,,,,,,
,,,,,V3_072,18,Male,2024-11-16_18h35.41.081,jersey_experiment_5_v3,2023.2.2,Win32,84.74576271,,,,,,,,,,,,,,,,217.3146,218.8559,218.8559,221.4439,return,0.5928,,46.22395833,0,42,42,55,1,FBP-RB-19.png,0.35,1.2,56,0.75,,,,,,,,,,,,,,,,,,,,,,,,,,,,,,,,,,,,,,,,,,,,,
,,,,,V3_072,18,Male,2024-11-16_18h35.41.081,jersey_experiment_5_v3,2023.2.2,Win32,84.74576271,,,,,,,,,,,,,,,,221.4442,222.9855,222.9855,224.4559,return,0.6034,,40.10416667,0,43,43,0,1,FBP-YG-71.png,0.35,1.2,1,0.75,,,,,,,,,,,,,,,,,,,,,,,,,,,,,,,,,,,,,,,,,,,,,
,,,,,V3_072,18,Male,2024-11-16_18h35.41.081,jersey_experiment_5_v3,2023.2.2,Win32,84.74576271,,,,,,,,,,,,,,,,224.4562,226.0092,226.0092,228.2325,return,0.646,,89.32291667,0,44,44,8,1,FBP-YG-81.png,0.43,1.2,9,0.75,,,,,,,,,,,,,,,,,,,,,,,,,,,,,,,,,,,,,,,,,,,,,
,,,,,V3_072,18,Male,2024-11-16_18h35.41.081,jersey_experiment_5_v3,2023.2.2,Win32,84.74576271,,,,,,,,,,,,,,,,228.2326,229.7855,229.7856,231.9268,return,0.6011,,98.56770833,0,45,45,23,1,FBP-PT-18.png,0.43,1.2,24,0.75,,,,,,,,,,,,,,,,,,,,,,,,,,,,,,,,,,,,,,,,,,,,,
,,,,,V3_072,18,Male,2024-11-16_18h35.41.081,jersey_experiment_5_v3,2023.2.2,Win32,84.74576271,,,,,,,,,,,,,,,,231.9271,233.48,233.48,236.0563,return,0.6374,,99.47916667,0,46,46,7,1,FBP-YG-81.png,0.4,1.2,8,0.75,,,,,,,,,,,,,,,,,,,,,,,,,,,,,,,,,,,,,,,,,,,,,
,,,,,V3_072,18,Male,2024-11-16_18h35.41.081,jersey_experiment_5_v3,2023.2.2,Win32,84.74576271,,,,,,,,,,,,,,,,236.0565,237.3505,237.3505,249.2921,return,0.9648,,77.734375,0,47,47,40,1,FBP-OG-19.png,0.35,1.2,41,0.5,,,,,,,,,,,,,,,,,,,,,,,,,,,,,,,,,,,,,,,,,,,,,
,,,,,V3_072,18,Male,2024-11-16_18h35.41.081,jersey_experiment_5_v3,2023.2.2,Win32,84.74576271,,,,,,,,,,,,,,,,249.2927,250.5863,250.5864,256.5983,return,0.5812,,62.36979167,0,48,48,42,1,FBP-OG-19.png,0.4,1.2,43,0.5,,,,,,,,,,,,,,,,,,,,,,,,,,,,,,,,,,,,,,,,,,,,,
,,,,,V3_072,18,Male,2024-11-16_18h35.41.081,jersey_experiment_5_v3,2023.2.2,Win32,84.74576271,,,,,,,,,,,,,,,,256.5984,258.1513,258.1514,260.6926,return,0.6299,,66.53645833,0,49,49,56,1,FBP-RB-19.png,0.37,1.2,57,0.75,,,,,,,,,,,,,,,,,,,,,,,,,,,,,,,,,,,,,,,,,,,,,
,,,,,V3_072,18,Male,2024-11-16_18h35.41.081,jersey_experiment_5_v3,2023.2.2,Win32,84.74576271,,,,,,,,,,,,,,,,260.6928,262.2457,262.2457,264.4457,return,0.74,,87.5,0,50,50,58,1,FBP-RB-19.png,0.43,1.2,59,0.75,,,,,,,,,,,,,,,,,,,,,,,,,,,,,,,,,,,,,,,,,,,,,
,,,,,V3_072,18,Male,2024-11-16_18h35.41.081,jersey_experiment_5_v3,2023.2.2,Win32,84.74576271,,,,,,,,,,,,,,,,264.446,265.7399,265.7399,270.4224,return,1.3776,,46.22395833,0,51,51,31,1,FBP-OG-17.png,0.37,1.2,32,0.5,,,,,,,,,,,,,,,,,,,,,,,,,,,,,,,,,,,,,,,,,,,,,
,,,,,V3_072,18,Male,2024-11-16_18h35.41.081,jersey_experiment_5_v3,2023.2.2,Win32,84.74576271,,,,,,,,,,,,,,,,270.4227,271.9755,271.9755,273.6931,return,0.9175,,42.05729167,0,52,52,20,1,FBP-PT-18.png,0.35,1.2,21,0.75,,,,,,,,,,,,,,,,,,,,,,,,,,,,,,,,,,,,,,,,,,,,,
,,,,,V3_072,18,Male,2024-11-16_18h35.41.081,jersey_experiment_5_v3,2023.2.2,Win32,84.74576271,,,,,,,,,,,,,,,,273.6932,275.246,275.246,278.3168,return,0.0945,,32.16145833,0,53,53,25,1,FBP-PT-19.png,0.35,1.2,26,0.75,,,,,,,,,,,,,,,,,,,,,,,,,,,,,,,,,,,,,,,,,,,,,
,,,,,V3_072,18,Male,2024-11-16_18h35.41.081,jersey_experiment_5_v3,2023.2.2,Win32,84.74576271,,,,,,,,,,,,,,,,278.3171,279.8698,279.8698,282.5522,return,0.8497,,95.57291667,0,54,54,14,1,FBP-YG-91.png,0.45,1.2,15,0.75,,,,,,,,,,,,,,,,,,,,,,,,,,,,,,,,,,,,,,,,,,,,,
,,,,,V3_072,18,Male,2024-11-16_18h35.41.081,jersey_experiment_5_v3,2023.2.2,Win32,84.74576271,,,,,,,,,,,,,,,,282.5524,284.1052,284.1052,286.1641,return,0.8302,,76.82291667,0,55,55,52,1,FBP-RB-18.png,0.4,1.2,53,0.75,,,,,,,,,,,,,,,,,,,,,,,,,,,,,,,,,,,,,,,,,,,,,
,,,,,V3_072,18,Male,2024-11-16_18h35.41.081,jersey_experiment_5_v3,2023.2.2,Win32,84.74576271,,,,,,,,,,,,,,,,286.1644,287.7171,287.7171,289.3878,return,0.7634,,88.15104167,0,56,56,48,1,FBP-RB-17.png,0.43,1.2,49,0.75,,,,,,,,,,,,,,,,,,,,,,,,,,,,,,,,,,,,,,,,,,,,,
,,,,,V3_072,18,Male,2024-11-16_18h35.41.081,jersey_experiment_5_v3,2023.2.2,Win32,84.74576271,,,,,,,,,,,,,,,,289.3881,290.6819,290.6819,292.7643,return,0.6492,,73.046875,0,57,57,37,1,FBP-OG-18.png,0.4,1.2,38,0.5,,,,,,,,,,,,,,,,,,,,,,,,,,,,,,,,,,,,,,,,,,,,,
,,,,,V3_072,18,Male,2024-11-16_18h35.41.081,jersey_experiment_5_v3,2023.2.2,Win32,84.74576271,,,,,,,,,,,,,,,,292.7646,294.3173,294.3174,296.9174,return,0.6172,,100,0,58,58,49,1,FBP-RB-17.png,0.45,1.2,50,0.75,,,,,,,,,,,,,,,,,,,,,,,,,,,,,,,,,,,,,,,,,,,,,
,,,,,V3_072,18,Male,2024-11-16_18h35.41.081,jersey_experiment_5_v3,2023.2.2,Win32,84.74576271,,,,,,,,,,,,,,,,296.9177,298.4706,298.4707,300.7293,return,0.7078,,65.234375,0,59,59,22,1,FBP-PT-18.png,0.4,1.2,23,0.75,,,,,,,,,,,,,,,,,,,,,,,,,,,,,,,,,,,,,,,,,,,,,
,,,,,V3_072,18,Male,2024-11-16_18h35.41.081,jersey_experiment_5_v3,2023.2.2,Win32,84.74576271,,,,,,,,,,,,,,,,300.731,302.2823,302.2824,304.1412,return,0.7296,,100,,,,,,FBP-PT-91.png,0.45,1.2,30,0.75,0,0,0,29,1,,,,,,,,,,,,,,,,,,,,,,,,,,,,,,,,,,,,,,,,
,,,,,V3_072,18,Male,2024-11-16_18h35.41.081,jersey_experiment_5_v3,2023.2.2,Win32,84.74576271,,,,,,,,,,,,,,,,304.1415,305.4354,305.4355,312.6946,return,5.7659,,50.390625,,,,,,FBP-OG-91.png,0.43,1.2,44,0.5,0,1,1,43,1,,,,,,,,,,,,,,,,,,,,,,,,,,,,,,,,,,,,,,,,
,,,,,V3_072,18,Male,2024-11-16_18h35.41.081,jersey_experiment_5_v3,2023.2.2,Win32,84.74576271,,,,,,,,,,,,,,,,312.6949,314.2476,314.2478,316.2594,return,0.5722,,28.64583333,,,,,,FBP-RB-71.png,0.35,1.2,46,0.75,0,2,2,45,1,,,,,,,,,,,,,,,,,,,,,,,,,,,,,,,,,,,,,,,,
,,,,,V3_072,18,Male,2024-11-16_18h35.41.081,jersey_experiment_5_v3,2023.2.2,Win32,84.74576271,,,,,,,,,,,,,,,,316.2597,317.8124,317.8125,322.4714,return,3.18,,71.22395833,,,,,,FBP-PT-81.png,0.43,1.2,24,0.75,0,3,3,23,1,,,,,,,,,,,,,,,,,,,,,,,,,,,,,,,,,,,,,,,,
,,,,,V3_072,18,Male,2024-11-16_18h35.41.081,jersey_experiment_5_v3,2023.2.2,Win32,84.74576271,,,,,,,,,,,,,,,,322.4716,323.7655,323.7655,326.4598,return,0.6138,,90.49479167,,,,,,FBP-OG-71.png,0.45,1.2,35,0.5,0,4,4,34,1,,,,,,,,,,,,,,,,,,,,,,,,,,,,,,,,,,,,,,,,
,,,,,V3_072,18,Male,2024-11-16_18h35.41.081,jersey_experiment_5_v3,2023.2.2,Win32,84.74576271,,,,,,,,,,,,,,,,326.46,327.7538,327.7539,330.0364,return,0.6772,,55.59895833,,,,,,FBP-OG-71.png,0.4,1.2,33,0.5,0,5,5,32,1,,,,,,,,,,,,,,,,,,,,,,,,,,,,,,,,,,,,,,,,
,,,,,V3_072,18,Male,2024-11-16_18h35.41.081,jersey_experiment_5_v3,2023.2.2,Win32,84.74576271,,,,,,,,,,,,,,,,330.0367,331.5895,331.5895,333.7187,return,0.695,,36.19791667,,,,,,FBP-PT-91.png,0.35,1.2,26,0.75,0,6,6,25,1,,,,,,,,,,,,,,,,,,,,,,,,,,,,,,,,,,,,,,,,
,,,,,V3_072,18,Male,2024-11-16_18h35.41.081,jersey_experiment_5_v3,2023.2.2,Win32,84.74576271,,,,,,,,,,,,,,,,333.719,335.2719,335.272,336.7542,return,0.597,,64.453125,,,,,,FBP-RB-91.png,0.4,1.2,58,0.75,0,7,7,57,1,,,,,,,,,,,,,,,,,,,,,,,,,,,,,,,,,,,,,,,,
,,,,,V3_072,18,Male,2024-11-16_18h35.41.081,jersey_experiment_5_v3,2023.2.2,Win32,84.74576271,,,,,,,,,,,,,,,,336.7546,338.0485,338.0486,340.0366,return,0.6766,,80.078125,,,,,,FBP-OG-91.png,0.4,1.2,43,0.5,0,8,8,42,1,,,,,,,,,,,,,,,,,,,,,,,,,,,,,,,,,,,,,,,,
,,,,,V3_072,18,Male,2024-11-16_18h35.41.081,jersey_experiment_5_v3,2023.2.2,Win32,84.74576271,,,,,,,,,,,,,,,,340.0369,341.5898,341.5898,343.1898,return,0.8017,,90.75520833,,,,,,FBP-YG-17.png,0.43,1.2,4,0.75,0,9,9,3,1,,,,,,,,,,,,,,,,,,,,,,,,,,,,,,,,,,,,,,,,
,,,,,V3_072,18,Male,2024-11-16_18h35.41.081,jersey_experiment_5_v3,2023.2.2,Win32,84.74576271,,,,,,,,,,,,,,,,343.1901,344.7427,344.7428,346.7546,return,0.5584,,71.09375,,,,,,FBP-YG-17.png,0.4,1.2,3,0.75,0,10,10,2,1,,,,,,,,,,,,,,,,,,,,,,,,,,,,,,,,,,,,,,,,
,,,,,V3_072,18,Male,2024-11-16_18h35.41.081,jersey_experiment_5_v3,2023.2.2,Win32,84.74576271,,,,,,,,,,,,,,,,346.7549,348.0488,348.0488,351.7078,return,0.563,,69.40104167,,,,,,FBP-OG-91.png,0.37,1.2,42,0.5,0,11,11,41,1,,,,,,,,,,,,,,,,,,,,,,,,,,,,,,,,,,,,,,,,
,,,,,V3_072,18,Male,2024-11-16_18h35.41.081,jersey_experiment_5_v3,2023.2.2,Win32,84.74576271,,,,,,,,,,,,,,,,351.708,353.2609,353.2609,355.1432,return,1.1784,,89.19270833,,,,,,FBP-PT-71.png,0.43,1.2,19,0.75,0,12,12,18,1,,,,,,,,,,,,,,,,,,,,,,,,,,,,,,,,,,,,,,,,
,,,,,V3_072,18,Male,2024-11-16_18h35.41.081,jersey_experiment_5_v3,2023.2.2,Win32,84.74576271,,,,,,,,,,,,,,,,355.1434,356.6963,356.6963,359.0021,return,1.1304,,79.81770833,,,,,,FBP-PT-71.png,0.4,1.2,18,0.75,0,13,13,17,1,,,,,,,,,,,,,,,,,,,,,,,,,,,,,,,,,,,,,,,,
,,,,,V3_072,18,Male,2024-11-16_18h35.41.081,jersey_experiment_5_v3,2023.2.2,Win32,84.74576271,,,,,,,,,,,,,,,,359.0024,360.5553,360.5553,366.1788,return,1.6904,,35.546875,,,,,,FBP-PT-71.png,0.35,1.2,16,0.75,0,14,14,15,1,,,,,,,,,,,,,,,,,,,,,,,,,,,,,,,,,,,,,,,,
,,,,,V3_072,18,Male,2024-11-16_18h35.41.081,jersey_experiment_5_v3,2023.2.2,Win32,84.74576271,,,,,,,,,,,,,,,,366.179,367.732,367.732,370.179,return,0.7494,,79.94791667,,,,,,FBP-YG-19.png,0.4,1.2,13,0.75,0,15,15,12,1,,,,,,,,,,,,,,,,,,,,,,,,,,,,,,,,,,,,,,,,
,,,,,V3_072,18,Male,2024-11-16_18h35.41.081,jersey_experiment_5_v3,2023.2.2,Win32,84.74576271,,,,,,,,,,,,,,,,370.1792,371.4732,371.4732,374.3557,return,0.5594,,68.09895833,,,,,,FBP-OG-71.png,0.43,1.2,34,0.5,0,16,16,33,1,,,,,,,,,,,,,,,,,,,,,,,,,,,,,,,,,,,,,,,,
,,,,,V3_072,18,Male,2024-11-16_18h35.41.081,jersey_experiment_5_v3,2023.2.2,Win32,84.74576271,,,,,,,,,,,,,,,,374.3559,375.9086,375.9086,378.4028,return,0.6435,,100,,,,,,FBP-RB-81.png,0.45,1.2,55,0.75,0,17,17,54,1,,,,,,,,,,,,,,,,,,,,,,,,,,,,,,,,,,,,,,,,
,,,,,V3_072,18,Male,2024-11-16_18h35.41.081,jersey_experiment_5_v3,2023.2.2,Win32,84.74576271,,,,,,,,,,,,,,,,378.4031,379.9559,379.956,382.4383,return,0.6044,,42.96875,,,,,,FBP-PT-81.png,0.37,1.2,22,0.75,0,18,18,21,1,,,,,,,,,,,,,,,,,,,,,,,,,,,,,,,,,,,,,,,,
,,,,,V3_072,18,Male,2024-11-16_18h35.41.081,jersey_experiment_5_v3,2023.2.2,Win32,84.74576271,,,,,,,,,,,,,,,,382.4386,383.9915,383.9915,385.8501,return,0.9329,,93.09895833,,,,,,FBP-YG-17.png,0.45,1.2,5,0.75,0,19,19,4,1,,,,,,,,,,,,,,,,,,,,,,,,,,,,,,,,,,,,,,,,
,,,,,V3_072,18,Male,2024-11-16_18h35.41.081,jersey_experiment_5_v3,2023.2.2,Win32,84.74576271,,,,,,,,,,,,,,,,385.8504,387.4034,387.4034,389.3798,return,0.6393,,39.84375,,,,,,FBP-PT-81.png,0.4,1.2,23,0.75,0,20,20,22,1,,,,,,,,,,,,,,,,,,,,,,,,,,,,,,,,,,,,,,,,
,,,,,V3_072,18,Male,2024-11-16_18h35.41.081,jersey_experiment_5_v3,2023.2.2,Win32,84.74576271,,,,,,,,,,,,,,,,389.38,390.9328,390.9329,392.7564,return,0.5947,,84.50520833,,,,,,FBP-RB-81.png,0.43,1.2,54,0.75,0,21,21,53,1,,,,,,,,,,,,,,,,,,,,,,,,,,,,,,,,,,,,,,,,
,,,,,V3_072,18,Male,2024-11-16_18h35.41.081,jersey_experiment_5_v3,2023.2.2,Win32,84.74576271,,,,,,,,,,,,,,,,392.7567,394.0504,394.0505,397.0625,return,0.8985,,31.90104167,,,,,,FBP-OG-91.png,0.35,1.2,41,0.5,0,22,22,40,1,,,,,,,,,,,,,,,,,,,,,,,,,,,,,,,,,,,,,,,,
,,,,,V3_072,18,Male,2024-11-16_18h35.41.081,jersey_experiment_5_v3,2023.2.2,Win32,84.74576271,,,,,,,,,,,,,,,,397.0629,398.3565,398.3566,400.2155,return,0.568,,29.296875,,,,,,FBP-OG-81.png,0.37,1.2,37,0.5,0,23,23,36,1,,,,,,,,,,,,,,,,,,,,,,,,,,,,,,,,,,,,,,,,
,,,,,V3_072,18,Male,2024-11-16_18h35.41.081,jersey_experiment_5_v3,2023.2.2,Win32,84.74576271,,,,,,,,,,,,,,,,400.2157,401.7686,401.7686,403.5449,return,0.6271,,69.40104167,,,,,,FBP-YG-18.png,0.43,1.2,9,0.75,0,24,24,8,1,,,,,,,,,,,,,,,,,,,,,,,,,,,,,,,,,,,,,,,,
,,,,,V3_072,18,Male,2024-11-16_18h35.41.081,jersey_experiment_5_v3,2023.2.2,Win32,84.74576271,,,,,,,,,,,,,,,,403.5451,405.0978,405.0978,406.8745,return,0.6673,,71.61458333,,,,,,FBP-RB-71.png,0.4,1.2,48,0.75,0,25,25,47,1,,,,,,,,,,,,,,,,,,,,,,,,,,,,,,,,,,,,,,,,
,,,,,V3_072,18,Male,2024-11-16_18h35.41.081,jersey_experiment_5_v3,2023.2.2,Win32,84.74576271,,,,,,,,,,,,,,,,406.8748,408.4277,408.4278,409.9334,return,0.6006,,83.85416667,,,,,,FBP-RB-91.png,0.45,1.2,60,0.75,0,26,26,59,1,,,,,,,,,,,,,,,,,,,,,,,,,,,,,,,,,,,,,,,,
,,,,,V3_072,18,Male,2024-11-16_18h35.41.081,jersey_experiment_5_v3,2023.2.2,Win32,84.74576271,,,,,,,,,,,,,,,,409.9336,411.4864,411.4864,413.4276,return,0.5954,,82.68229167,,,,,,FBP-PT-71.png,0.45,1.2,20,0.75,0,27,27,19,1,,,,,,,,,,,,,,,,,,,,,,,,,,,,,,,,,,,,,,,,
,,,,,V3_072,18,Male,2024-11-16_18h35.41.081,jersey_experiment_5_v3,2023.2.2,Win32,84.74576271,,,,,,,,,,,,,,,,413.4279,414.9691,414.9691,416.9572,return,1.271,,66.796875,,,,,,FBP-RB-91.png,0.37,1.2,57,0.75,0,28,28,56,1,,,,,,,,,,,,,,,,,,,,,,,,,,,,,,,,,,,,,,,,
,,,,,V3_072,18,Male,2024-11-16_18h35.41.081,jersey_experiment_5_v3,2023.2.2,Win32,84.74576271,,,,,,,,,,,,,,,,416.9575,418.5104,418.5104,421.1927,return,1.3988,,79.6875,,,,,,FBP-YG-19.png,0.43,1.2,14,0.75,0,29,29,13,1,,,,,,,,,,,,,,,,,,,,,,,,,,,,,,,,,,,,,,,,
,,,,,V3_072,18,Male,2024-11-16_18h35.41.081,jersey_experiment_5_v3,2023.2.2,Win32,84.74576271,,,,,,,,,,,,,,,,421.1929,422.7459,422.7459,426.4283,return,2.3531,,88.54166667,,,,,,FBP-RB-81.png,0.4,1.2,53,0.75,0,30,30,52,1,,,,,,,,,,,,,,,,,,,,,,,,,,,,,,,,,,,,,,,,
,,,,,V3_072,18,Male,2024-11-16_18h35.41.081,jersey_experiment_5_v3,2023.2.2,Win32,84.74576271,,,,,,,,,,,,,,,,426.4285,427.9815,427.9815,431.2401,return,2.5288,,72.265625,,,,,,FBP-PT-81.png,0.45,1.2,25,0.75,0,31,31,24,1,,,,,,,,,,,,,,,,,,,,,,,,,,,,,,,,,,,,,,,,
,,,,,V3_072,18,Male,2024-11-16_18h35.41.081,jersey_experiment_5_v3,2023.2.2,Win32,84.74576271,,,,,,,,,,,,,,,,431.2404,432.7932,432.7932,434.652,return,0.5505,,52.734375,,,,,,FBP-PT-71.png,0.37,1.2,17,0.75,0,32,32,16,1,,,,,,,,,,,,,,,,,,,,,,,,,,,,,,,,,,,,,,,,
,,,,,V3_072,18,Male,2024-11-16_18h35.41.081,jersey_experiment_5_v3,2023.2.2,Win32,84.74576271,,,,,,,,,,,,,,,,434.6523,436.205,436.205,440.6286,return,2.4766,,49.86979167,,,,,,FBP-RB-81.png,0.35,1.2,51,0.75,0,33,33,50,1,,,,,,,,,,,,,,,,,,,,,,,,,,,,,,,,,,,,,,,,
,,,,,V3_072,18,Male,2024-11-16_18h35.41.081,jersey_experiment_5_v3,2023.2.2,Win32,84.74576271,,,,,,,,,,,,,,,,440.6288,442.1818,442.1819,444.3583,return,0.6154,,67.578125,,,,,,FBP-YG-17.png,0.35,1.2,1,0.75,0,34,34,0,1,,,,,,,,,,,,,,,,,,,,,,,,,,,,,,,,,,,,,,,,
,,,,,V3_072,18,Male,2024-11-16_18h35.41.081,jersey_experiment_5_v3,2023.2.2,Win32,84.74576271,,,,,,,,,,,,,,,,444.3585,445.9115,445.9115,447.7465,return,0.679,,77.734375,,,,,,FBP-RB-71.png,0.43,1.2,49,0.75,0,35,35,48,1,,,,,,,,,,,,,,,,,,,,,,,,,,,,,,,,,,,,,,,,
,,,,,V3_072,18,Male,2024-11-16_18h35.41.081,jersey_experiment_5_v3,2023.2.2,Win32,84.74576271,,,,,,,,,,,,,,,,447.7468,449.0408,449.0408,451.2056,return,0.7232,,56.11979167,,,,,,FBP-OG-81.png,0.35,1.2,36,0.5,0,36,36,35,1,,,,,,,,,,,,,,,,,,,,,,,,,,,,,,,,,,,,,,,,
,,,,,V3_072,18,Male,2024-11-16_18h35.41.081,jersey_experiment_5_v3,2023.2.2,Win32,84.74576271,,,,,,,,,,,,,,,,451.2058,452.4998,452.4998,454.4762,return,0.8027,,67.96875,,,,,,FBP-OG-81.png,0.4,1.2,38,0.5,0,37,37,37,1,,,,,,,,,,,,,,,,,,,,,,,,,,,,,,,,,,,,,,,,
,,,,,V3_072,18,Male,2024-11-16_18h35.41.081,jersey_experiment_5_v3,2023.2.2,Win32,84.74576271,,,,,,,,,,,,,,,,454.4764,456.0294,456.0295,457.747,return,0.6315,,62.36979167,,,,,,FBP-YG-19.png,0.37,1.2,12,0.75,0,38,38,11,1,,,,,,,,,,,,,,,,,,,,,,,,,,,,,,,,,,,,,,,,
,,,,,V3_072,18,Male,2024-11-16_18h35.41.081,jersey_experiment_5_v3,2023.2.2,Win32,84.74576271,,,,,,,,,,,,,,,,457.7473,459.041,459.0411,461.4529,return,0.5889,,33.984375,,,,,,FBP-OG-71.png,0.35,1.2,31,0.5,0,39,39,30,1,,,,,,,,,,,,,,,,,,,,,,,,,,,,,,,,,,,,,,,,
,,,,,V3_072,18,Male,2024-11-16_18h35.41.081,jersey_experiment_5_v3,2023.2.2,Win32,84.74576271,,,,,,,,,,,,,,,,461.4532,463.006,463.006,465.1237,return,0.7133,,43.75,,,,,,FBP-PT-91.png,0.4,1.2,28,0.75,0,40,40,27,1,,,,,,,,,,,,,,,,,,,,,,,,,,,,,,,,,,,,,,,,
,,,,,V3_072,18,Male,2024-11-16_18h35.41.081,jersey_experiment_5_v3,2023.2.2,Win32,84.74576271,,,,,,,,,,,,,,,,465.1239,466.6767,466.6767,468.8533,return,0.6528,,43.75,,,,,,FBP-PT-91.png,0.37,1.2,27,0.75,0,41,41,26,1,,,,,,,,,,,,,,,,,,,,,,,,,,,,,,,,,,,,,,,,
,,,,,V3_072,18,Male,2024-11-16_18h35.41.081,jersey_experiment_5_v3,2023.2.2,Win32,84.74576271,,,,,,,,,,,,,,,,468.8536,470.4062,470.4062,471.9005,return,0.5888,,40.36458333,,,,,,FBP-RB-91.png,0.35,1.2,56,0.75,0,42,42,55,1,,,,,,,,,,,,,,,,,,,,,,,,,,,,,,,,,,,,,,,,
,,,,,V3_072,18,Male,2024-11-16_18h35.41.081,jersey_experiment_5_v3,2023.2.2,Win32,84.74576271,,,,,,,,,,,,,,,,471.9008,473.4417,473.4418,475.2417,return,0.6599,,63.41145833,,,,,,FBP-YG-18.png,0.4,1.2,8,0.75,0,43,43,7,1,,,,,,,,,,,,,,,,,,,,,,,,,,,,,,,,,,,,,,,,
,,,,,V3_072,18,Male,2024-11-16_18h35.41.081,jersey_experiment_5_v3,2023.2.2,Win32,84.74576271,,,,,,,,,,,,,,,,475.242,476.7947,476.7947,481.3832,return,3.6373,,71.22395833,,,,,,FBP-PT-91.png,0.43,1.2,29,0.75,0,44,44,28,1,,,,,,,,,,,,,,,,,,,,,,,,,,,,,,,,,,,,,,,,
,,,,,V3_072,18,Male,2024-11-16_18h35.41.081,jersey_experiment_5_v3,2023.2.2,Win32,84.74576271,,,,,,,,,,,,,,,,481.3835,482.9362,482.9362,484.8186,return,0.6281,,69.40104167,,,,,,FBP-RB-81.png,0.37,1.2,52,0.75,0,45,45,51,1,,,,,,,,,,,,,,,,,,,,,,,,,,,,,,,,,,,,,,,,
,,,,,V3_072,18,Male,2024-11-16_18h35.41.081,jersey_experiment_5_v3,2023.2.2,Win32,84.74576271,,,,,,,,,,,,,,,,484.8188,486.1126,486.1127,488.3247,return,0.6181,,46.875,,,,,,FBP-OG-71.png,0.37,1.2,32,0.5,0,46,46,31,1,,,,,,,,,,,,,,,,,,,,,,,,,,,,,,,,,,,,,,,,
,,,,,V3_072,18,Male,2024-11-16_18h35.41.081,jersey_experiment_5_v3,2023.2.2,Win32,84.74576271,,,,,,,,,,,,,,,,488.3251,489.8776,489.8777,491.3365,return,0.575,,43.88020833,,,,,,FBP-YG-18.png,0.35,1.2,6,0.75,0,47,47,5,1,,,,,,,,,,,,,,,,,,,,,,,,,,,,,,,,,,,,,,,,
,,,,,V3_072,18,Male,2024-11-16_18h35.41.081,jersey_experiment_5_v3,2023.2.2,Win32,84.74576271,,,,,,,,,,,,,,,,491.3367,492.8895,492.8896,494.9837,return,0.5681,,62.36979167,,,,,,FBP-YG-19.png,0.45,1.2,15,0.75,0,48,48,14,1,,,,,,,,,,,,,,,,,,,,,,,,,,,,,,,,,,,,,,,,
,,,,,V3_072,18,Male,2024-11-16_18h35.41.081,jersey_experiment_5_v3,2023.2.2,Win32,84.74576271,,,,,,,,,,,,,,,,494.9841,496.5366,496.5366,499.325,return,1.6154,,51.30208333,,,,,,FBP-YG-19.png,0.35,1.2,11,0.75,0,49,49,10,1,,,,,,,,,,,,,,,,,,,,,,,,,,,,,,,,,,,,,,,,
,,,,,V3_072,18,Male,2024-11-16_18h35.41.081,jersey_experiment_5_v3,2023.2.2,Win32,84.74576271,,,,,,,,,,,,,,,,499.3252,500.878,500.8781,502.5015,return,0.543,,56.90104167,,,,,,FBP-YG-17.png,0.37,1.2,2,0.75,0,50,50,1,1,,,,,,,,,,,,,,,,,,,,,,,,,,,,,,,,,,,,,,,,
,,,,,V3_072,18,Male,2024-11-16_18h35.41.081,jersey_experiment_5_v3,2023.2.2,Win32,84.74576271,,,,,,,,,,,,,,,,502.5017,503.7957,503.7957,505.7958,return,0.5921,,67.05729167,,,,,,FBP-OG-81.png,0.45,1.2,40,0.5,0,51,51,39,1,,,,,,,,,,,,,,,,,,,,,,,,,,,,,,,,,,,,,,,,
,,,,,V3_072,18,Male,2024-11-16_18h35.41.081,jersey_experiment_5_v3,2023.2.2,Win32,84.74576271,,,,,,,,,,,,,,,,505.796,507.3487,507.3488,509.0665,return,0.6585,,60.15625,,,,,,FBP-YG-18.png,0.37,1.2,7,0.75,0,52,52,6,1,,,,,,,,,,,,,,,,,,,,,,,,,,,,,,,,,,,,,,,,
,,,,,V3_072,18,Male,2024-11-16_18h35.41.081,jersey_experiment_5_v3,2023.2.2,Win32,84.74576271,,,,,,,,,,,,,,,,509.0667,510.3607,510.3607,513.5138,return,0.6587,,73.17708333,,,,,,FBP-OG-81.png,0.43,1.2,39,0.5,0,53,53,38,1,,,,,,,,,,,,,,,,,,,,,,,,,,,,,,,,,,,,,,,,
,,,,,V3_072,18,Male,2024-11-16_18h35.41.081,jersey_experiment_5_v3,2023.2.2,Win32,84.74576271,,,,,,,,,,,,,,,,513.514,515.0668,515.0668,518.8081,return,2.8006,,38.671875,,,,,,FBP-PT-81.png,0.35,1.2,21,0.75,0,54,54,20,1,,,,,,,,,,,,,,,,,,,,,,,,,,,,,,,,,,,,,,,,
,,,,,V3_072,18,Male,2024-11-16_18h35.41.081,jersey_experiment_5_v3,2023.2.2,Win32,84.74576271,,,,,,,,,,,,,,,,518.8083,520.3611,520.3611,525.5259,return,0.6402,,72.78645833,,,,,,FBP-YG-18.png,0.45,1.2,10,0.75,0,55,55,9,1,,,,,,,,,,,,,,,,,,,,,,,,,,,,,,,,,,,,,,,,
,,,,,V3_072,18,Male,2024-11-16_18h35.41.081,jersey_experiment_5_v3,2023.2.2,Win32,84.74576271,,,,,,,,,,,,,,,,525.5262,527.0674,527.0674,528.679,return,0.579,,68.48958333,,,,,,FBP-RB-71.png,0.37,1.2,47,0.75,0,56,56,46,1,,,,,,,,,,,,,,,,,,,,,,,,,,,,,,,,,,,,,,,,
,,,,,V3_072,18,Male,2024-11-16_18h35.41.081,jersey_experiment_5_v3,2023.2.2,Win32,84.74576271,,,,,,,,,,,,,,,,528.6792,529.9732,529.9732,531.7733,return,0.9124,,73.4375,,,,,,FBP-OG-91.png,0.45,1.2,45,0.5,0,57,57,44,1,,,,,,,,,,,,,,,,,,,,,,,,,,,,,,,,,,,,,,,,
,,,,,V3_072,18,Male,2024-11-16_18h35.41.081,jersey_experiment_5_v3,2023.2.2,Win32,84.74576271,,,,,,,,,,,,,,,,531.7736,533.3264,533.3264,534.7617,return,0.5812,,72.78645833,,,,,,FBP-RB-91.png,0.43,1.2,59,0.75,0,58,58,58,1,,,,,,,,,,,,,,,,,,,,,,,,,,,,,,,,,,,,,,,,
,,,,,V3_072,18,Male,2024-11-16_18h35.41.081,jersey_experiment_5_v3,2023.2.2,Win32,84.74576271,,,,,,,,,,,,,,,,534.7619,536.3147,536.3147,537.6558,return,0.8013,,72.52604167,,,,,,FBP-RB-71.png,0.45,1.2,50,0.75,0,59,59,49,1,,,,,,,,,,,,,,,,,,,,,,,,,,,,,,,,,,,,,,,,
,,,,,V3_072,18,Male,2024-11-16_18h35.41.081,jersey_experiment_5_v3,2023.2.2,Win32,84.74576271,,,,,,,,,,,,,,,,,,,,,,,,,,,,,,,,,,,,,,,537.6559,657.6486,,,,,,,,,,,,,,,,,,,,,,,,,,,,,,,,,,,,,,
,,,,,V3_072,18,Male,2024-11-16_18h35.41.081,jersey_experiment_5_v3,2023.2.2,Win32,84.74576271,,,,,,,,,,,,,,,,,,,,,,,,,,,,,,,,,,,,,,,,,657.6487,666.296,return,8.6374,,,,,,,,,,,,,,,,,,,,,,,,,,,,,,,,,,
,,,,,V3_072,18,Male,2024-11-16_18h35.41.081,jersey_experiment_5_v3,2023.2.2,Win32,84.74576271,,,,,,,,,,,,,,,,666.2973,667.5902,667.5902,681.0494,return,2.4859,,65.234375,,,,,,FBP-PT-19.png,0.43,1.2,29,0.5,,,,,,,,,,,,,0,0,0,28,1,,,,,,,,,,,,,,,,,,,,,,,,,,,,
,,,,,V3_072,18,Male,2024-11-16_18h35.41.081,jersey_experiment_5_v3,2023.2.2,Win32,84.74576271,,,,,,,,,,,,,,,,681.0497,682.3436,682.3436,683.9554,return,0.5727,,43.48958333,,,,,,FBP-PT-17.png,0.4,1.2,18,0.5,,,,,,,,,,,,,0,1,1,17,1,,,,,,,,,,,,,,,,,,,,,,,,,,,,
,,,,,V3_072,18,Male,2024-11-16_18h35.41.081,jersey_experiment_5_v3,2023.2.2,Win32,84.74576271,,,,,,,,,,,,,,,,683.9557,685.2496,685.2497,686.7085,return,0.487,,65.75520833,,,,,,FBP-YG-91.png,0.43,1.2,14,0.5,,,,,,,,,,,,,0,2,2,13,1,,,,,,,,,,,,,,,,,,,,,,,,,,,,
,,,,,V3_072,18,Male,2024-11-16_18h35.41.081,jersey_experiment_5_v3,2023.2.2,Win32,84.74576271,,,,,,,,,,,,,,,,686.7087,688.0027,688.0027,689.3322,return,0.5697,,65.49479167,,,,,,FBP-YG-81.png,0.35,1.2,6,0.5,,,,,,,,,,,,,0,3,3,5,1,,,,,,,,,,,,,,,,,,,,,,,,,,,,
,,,,,V3_072,18,Male,2024-11-16_18h35.41.081,jersey_experiment_5_v3,2023.2.2,Win32,84.74576271,,,,,,,,,,,,,,,,689.3324,690.6263,690.6263,693.0027,return,0.4963,,64.71354167,,,,,,FBP-PT-18.png,0.35,1.2,21,0.5,,,,,,,,,,,,,0,4,4,20,1,,,,,,,,,,,,,,,,,,,,,,,,,,,,
,,,,,V3_072,18,Male,2024-11-16_18h35.41.081,jersey_experiment_5_v3,2023.2.2,Win32,84.74576271,,,,,,,,,,,,,,,,693.0029,694.5443,694.5443,696.203,return,0.6509,,80.46875,,,,,,FBP-OG-18.png,0.43,1.2,39,0.75,,,,,,,,,,,,,0,5,5,38,1,,,,,,,,,,,,,,,,,,,,,,,,,,,,
,,,,,V3_072,18,Male,2024-11-16_18h35.41.081,jersey_experiment_5_v3,2023.2.2,Win32,84.74576271,,,,,,,,,,,,,,,,696.2033,697.4972,697.4972,699.203,return,0.5491,,84.24479167,,,,,,FBP-PT-17.png,0.45,1.2,20,0.5,,,,,,,,,,,,,0,6,6,19,1,,,,,,,,,,,,,,,,,,,,,,,,,,,,
,,,,,V3_072,18,Male,2024-11-16_18h35.41.081,jersey_experiment_5_v3,2023.2.2,Win32,84.74576271,,,,,,,,,,,,,,,,699.2033,700.4972,700.4972,702.9326,return,0.734,,71.875,,,,,,FBP-YG-71.png,0.37,1.2,2,0.5,,,,,,,,,,,,,0,7,7,1,1,,,,,,,,,,,,,,,,,,,,,,,,,,,,
,,,,,V3_072,18,Male,2024-11-16_18h35.41.081,jersey_experiment_5_v3,2023.2.2,Win32,84.74576271,,,,,,,,,,,,,,,,702.9329,704.2269,704.2269,706.8502,return,0.7479,,78.25520833,,,,,,FBP-YG-91.png,0.35,1.2,11,0.5,,,,,,,,,,,,,0,8,8,10,1,,,,,,,,,,,,,,,,,,,,,,,,,,,,
,,,,,V3_072,18,Male,2024-11-16_18h35.41.081,jersey_experiment_5_v3,2023.2.2,Win32,84.74576271,,,,,,,,,,,,,,,,706.8505,708.1446,708.1446,712.4387,return,0.8476,,74.86979167,,,,,,FBP-PT-18.png,0.43,1.2,24,0.5,,,,,,,,,,,,,0,9,9,23,1,,,,,,,,,,,,,,,,,,,,,,,,,,,,
,,,,,V3_072,18,Male,2024-11-16_18h35.41.081,jersey_experiment_5_v3,2023.2.2,Win32,84.74576271,,,,,,,,,,,,,,,,712.4389,713.733,713.733,715.8037,return,0.696,,46.875,,,,,,FBP-PT-19.png,0.37,1.2,27,0.5,,,,,,,,,,,,,0,10,10,26,1,,,,,,,,,,,,,,,,,,,,,,,,,,,,
,,,,,V3_072,18,Male,2024-11-16_18h35.41.081,jersey_experiment_5_v3,2023.2.2,Win32,84.74576271,,,,,,,,,,,,,,,,715.804,717.0979,717.0979,718.8037,return,0.7365,,60.02604167,,,,,,FBP-PT-17.png,0.43,1.2,19,0.5,,,,,,,,,,,,,0,11,11,18,1,,,,,,,,,,,,,,,,,,,,,,,,,,,,
,,,,,V3_072,18,Male,2024-11-16_18h35.41.081,jersey_experiment_5_v3,2023.2.2,Win32,84.74576271,,,,,,,,,,,,,,,,718.8039,720.0979,720.0979,722.8979,return,2.2208,,57.29166667,,,,,,FBP-YG-71.png,0.4,1.2,3,0.5,,,,,,,,,,,,,0,12,12,2,1,,,,,,,,,,,,,,,,,,,,,,,,,,,,
,,,,,V3_072,18,Male,2024-11-16_18h35.41.081,jersey_experiment_5_v3,2023.2.2,Win32,84.74576271,,,,,,,,,,,,,,,,722.8981,724.4393,724.4393,726.0747,return,0.7299,,67.31770833,,,,,,FBP-OG-17.png,0.43,1.2,34,0.75,,,,,,,,,,,,,0,13,13,33,1,,,,,,,,,,,,,,,,,,,,,,,,,,,,
,,,,,V3_072,18,Male,2024-11-16_18h35.41.081,jersey_experiment_5_v3,2023.2.2,Win32,84.74576271,,,,,,,,,,,,,,,,726.0749,727.3687,727.3688,729.1335,return,0.6588,,77.60416667,,,,,,FBP-YG-91.png,0.45,1.2,15,0.5,,,,,,,,,,,,,0,14,14,14,1,,,,,,,,,,,,,,,,,,,,,,,,,,,,
,,,,,V3_072,18,Male,2024-11-16_18h35.41.081,jersey_experiment_5_v3,2023.2.2,Win32,84.74576271,,,,,,,,,,,,,,,,729.1337,730.4276,730.4277,732.1218,return,1.094,,76.953125,,,,,,FBP-RB-19.png,0.43,1.2,59,0.5,,,,,,,,,,,,,0,15,15,58,1,,,,,,,,,,,,,,,,,,,,,,,,,,,,
,,,,,V3_072,18,Male,2024-11-16_18h35.41.081,jersey_experiment_5_v3,2023.2.2,Win32,84.74576271,,,,,,,,,,,,,,,,732.1222,733.416,733.4161,734.7102,return,0.6244,,77.60416667,,,,,,FBP-RB-18.png,0.43,1.2,54,0.5,,,,,,,,,,,,,0,16,16,53,1,,,,,,,,,,,,,,,,,,,,,,,,,,,,
,,,,,V3_072,18,Male,2024-11-16_18h35.41.081,jersey_experiment_5_v3,2023.2.2,Win32,84.74576271,,,,,,,,,,,,,,,,734.7106,736.0045,736.0045,737.7811,return,0.5931,,73.046875,,,,,,FBP-RB-17.png,0.4,1.2,48,0.5,,,,,,,,,,,,,0,17,17,47,1,,,,,,,,,,,,,,,,,,,,,,,,,,,,
,,,,,V3_072,18,Male,2024-11-16_18h35.41.081,jersey_experiment_5_v3,2023.2.2,Win32,84.74576271,,,,,,,,,,,,,,,,737.7813,739.3338,739.3339,740.8398,return,0.5792,,45.83333333,,,,,,FBP-OG-19.png,0.37,1.2,42,0.75,,,,,,,,,,,,,0,18,18,41,1,,,,,,,,,,,,,,,,,,,,,,,,,,,,
,,,,,V3_072,18,Male,2024-11-16_18h35.41.081,jersey_experiment_5_v3,2023.2.2,Win32,84.74576271,,,,,,,,,,,,,,,,740.8401,742.3928,742.3929,744.2754,return,0.8194,,64.32291667,,,,,,FBP-OG-17.png,0.45,1.2,35,0.75,,,,,,,,,,,,,0,19,19,34,1,,,,,,,,,,,,,,,,,,,,,,,,,,,,
,,,,,V3_072,18,Male,2024-11-16_18h35.41.081,jersey_experiment_5_v3,2023.2.2,Win32,84.74576271,,,,,,,,,,,,,,,,744.2756,745.5695,745.5695,747.6989,return,0.6901,,45.83333333,,,,,,FBP-RB-19.png,0.4,1.2,58,0.5,,,,,,,,,,,,,0,20,20,57,1,,,,,,,,,,,,,,,,,,,,,,,,,,,,
,,,,,V3_072,18,Male,2024-11-16_18h35.41.081,jersey_experiment_5_v3,2023.2.2,Win32,84.74576271,,,,,,,,,,,,,,,,747.699,748.993,748.993,751.2402,return,0.5328,,26.953125,,,,,,FBP-RB-18.png,0.35,1.2,51,0.5,,,,,,,,,,,,,0,21,21,50,1,,,,,,,,,,,,,,,,,,,,,,,,,,,,
,,,,,V3_072,18,Male,2024-11-16_18h35.41.081,jersey_experiment_5_v3,2023.2.2,Win32,84.74576271,,,,,,,,,,,,,,,,751.2403,752.7932,752.7932,754.3815,return,0.5649,,31.640625,,,,,,FBP-OG-18.png,0.37,1.2,37,0.75,,,,,,,,,,,,,0,22,22,36,1,,,,,,,,,,,,,,,,,,,,,,,,,,,,
,,,,,V3_072,18,Male,2024-11-16_18h35.41.081,jersey_experiment_5_v3,2023.2.2,Win32,84.74576271,,,,,,,,,,,,,,,,754.3817,755.6756,755.6757,758.0876,return,1.0607,,23.69791667,,,,,,FBP-YG-71.png,0.35,1.2,1,0.5,,,,,,,,,,,,,0,23,23,0,1,,,,,,,,,,,,,,,,,,,,,,,,,,,,
,,,,,V3_072,18,Male,2024-11-16_18h35.41.081,jersey_experiment_5_v3,2023.2.2,Win32,84.74576271,,,,,,,,,,,,,,,,758.0878,759.3817,759.3817,761.2053,return,0.6732,,69.27083333,,,,,,FBP-RB-17.png,0.43,1.2,49,0.5,,,,,,,,,,,,,0,24,24,48,1,,,,,,,,,,,,,,,,,,,,,,,,,,,,
,,,,,V3_072,18,Male,2024-11-16_18h35.41.081,jersey_experiment_5_v3,2023.2.2,Win32,84.74576271,,,,,,,,,,,,,,,,761.2054,762.4996,762.4997,764.2054,return,0.5668,,66.015625,,,,,,FBP-PT-18.png,0.4,1.2,23,0.5,,,,,,,,,,,,,0,25,25,22,1,,,,,,,,,,,,,,,,,,,,,,,,,,,,
,,,,,V3_072,18,Male,2024-11-16_18h35.41.081,jersey_experiment_5_v3,2023.2.2,Win32,84.74576271,,,,,,,,,,,,,,,,764.2056,765.7584,765.7585,767.2996,return,0.5587,,74.73958333,,,,,,FBP-OG-19.png,0.43,1.2,44,0.75,,,,,,,,,,,,,0,26,26,43,1,,,,,,,,,,,,,,,,,,,,,,,,,,,,
,,,,,V3_072,18,Male,2024-11-16_18h35.41.081,jersey_experiment_5_v3,2023.2.2,Win32,84.74576271,,,,,,,,,,,,,,,,767.2998,768.5938,768.5939,769.9585,return,0.5794,,68.75,,,,,,FBP-RB-18.png,0.37,1.2,52,0.5,,,,,,,,,,,,,0,27,27,51,1,,,,,,,,,,,,,,,,,,,,,,,,,,,,
,,,,,V3_072,18,Male,2024-11-16_18h35.41.081,jersey_experiment_5_v3,2023.2.2,Win32,84.74576271,,,,,,,,,,,,,,,,769.9587,771.2527,771.2527,774.2528,return,0.5419,,24.73958333,,,,,,FBP-PT-19.png,0.35,1.2,26,0.5,,,,,,,,,,,,,0,28,28,25,1,,,,,,,,,,,,,,,,,,,,,,,,,,,,
,,,,,V3_072,18,Male,2024-11-16_18h35.41.081,jersey_experiment_5_v3,2023.2.2,Win32,84.74576271,,,,,,,,,,,,,,,,774.253,775.547,775.547,777.453,return,0.6248,,66.796875,,,,,,FBP-RB-18.png,0.4,1.2,53,0.5,,,,,,,,,,,,,0,29,29,52,1,,,,,,,,,,,,,,,,,,,,,,,,,,,,
,,,,,V3_072,18,Male,2024-11-16_18h35.41.081,jersey_experiment_5_v3,2023.2.2,Win32,84.74576271,,,,,,,,,,,,,,,,777.4531,779.006,779.006,780.5942,return,0.654,,35.67708333,,,,,,FBP-OG-19.png,0.35,1.2,41,0.75,,,,,,,,,,,,,0,30,30,40,1,,,,,,,,,,,,,,,,,,,,,,,,,,,,
,,,,,V3_072,18,Male,2024-11-16_18h35.41.081,jersey_experiment_5_v3,2023.2.2,Win32,84.74576271,,,,,,,,,,,,,,,,780.5944,781.8884,781.8884,784.7708,return,0.5947,,52.99479167,,,,,,FBP-RB-19.png,0.37,1.2,57,0.5,,,,,,,,,,,,,0,31,31,56,1,,,,,,,,,,,,,,,,,,,,,,,,,,,,
,,,,,V3_072,18,Male,2024-11-16_18h35.41.081,jersey_experiment_5_v3,2023.2.2,Win32,84.74576271,,,,,,,,,,,,,,,,784.7711,786.0652,786.0652,788.2534,return,0.5546,,100,,,,,,FBP-RB-17.png,0.45,1.2,50,0.5,,,,,,,,,,,,,0,32,32,49,1,,,,,,,,,,,,,,,,,,,,,,,,,,,,
,,,,,V3_072,18,Male,2024-11-16_18h35.41.081,jersey_experiment_5_v3,2023.2.2,Win32,84.74576271,,,,,,,,,,,,,,,,788.2537,789.8066,789.8066,792.2536,return,0.5668,,78.25520833,,,,,,FBP-OG-19.png,0.4,1.2,43,0.75,,,,,,,,,,,,,0,33,33,42,1,,,,,,,,,,,,,,,,,,,,,,,,,,,,
,,,,,V3_072,18,Male,2024-11-16_18h35.41.081,jersey_experiment_5_v3,2023.2.2,Win32,84.74576271,,,,,,,,,,,,,,,,792.2539,793.5479,793.548,795.9596,return,0.531,,78.25520833,,,,,,FBP-YG-81.png,0.4,1.2,8,0.5,,,,,,,,,,,,,0,34,34,7,1,,,,,,,,,,,,,,,,,,,,,,,,,,,,
,,,,,V3_072,18,Male,2024-11-16_18h35.41.081,jersey_experiment_5_v3,2023.2.2,Win32,84.74576271,,,,,,,,,,,,,,,,795.9598,797.2538,797.2538,798.9244,return,1.0354,,69.66145833,,,,,,FBP-PT-17.png,0.37,1.2,17,0.5,,,,,,,,,,,,,0,35,35,16,1,,,,,,,,,,,,,,,,,,,,,,,,,,,,
,,,,,V3_072,18,Male,2024-11-16_18h35.41.081,jersey_experiment_5_v3,2023.2.2,Win32,84.74576271,,,,,,,,,,,,,,,,798.9245,800.2186,800.2186,801.7834,return,0.5562,,66.66666667,,,,,,FBP-RB-17.png,0.37,1.2,47,0.5,,,,,,,,,,,,,0,36,36,46,1,,,,,,,,,,,,,,,,,,,,,,,,,,,,
,,,,,V3_072,18,Male,2024-11-16_18h35.41.081,jersey_experiment_5_v3,2023.2.2,Win32,84.74576271,,,,,,,,,,,,,,,,801.7836,803.3363,803.3363,804.3716,return,0.6648,,67.1875,,,,,,FBP-OG-18.png,0.4,1.2,38,0.75,,,,,,,,,,,,,0,37,37,37,1,,,,,,,,,,,,,,,,,,,,,,,,,,,,
,,,,,V3_072,18,Male,2024-11-16_18h35.41.081,jersey_experiment_5_v3,2023.2.2,Win32,84.74576271,,,,,,,,,,,,,,,,804.3719,805.6658,805.6658,807.3365,return,0.6508,,78.25520833,,,,,,FBP-YG-81.png,0.45,1.2,10,0.5,,,,,,,,,,,,,0,38,38,9,1,,,,,,,,,,,,,,,,,,,,,,,,,,,,
,,,,,V3_072,18,Male,2024-11-16_18h35.41.081,jersey_experiment_5_v3,2023.2.2,Win32,84.74576271,,,,,,,,,,,,,,,,807.3368,808.6306,808.6306,810.1248,return,0.5751,,74.73958333,,,,,,FBP-YG-91.png,0.4,1.2,13,0.5,,,,,,,,,,,,,0,39,39,12,1,,,,,,,,,,,,,,,,,,,,,,,,,,,,
,,,,,V3_072,18,Male,2024-11-16_18h35.41.081,jersey_experiment_5_v3,2023.2.2,Win32,84.74576271,,,,,,,,,,,,,,,,810.125,811.419,811.419,814.2426,return,0.5834,,47.52604167,,,,,,FBP-RB-19.png,0.35,1.2,56,0.5,,,,,,,,,,,,,0,40,40,55,1,,,,,,,,,,,,,,,,,,,,,,,,,,,,
,,,,,V3_072,18,Male,2024-11-16_18h35.41.081,jersey_experiment_5_v3,2023.2.2,Win32,84.74576271,,,,,,,,,,,,,,,,814.2429,815.7957,815.7957,817.1604,return,0.5201,,44.27083333,,,,,,FBP-OG-17.png,0.37,1.2,32,0.75,,,,,,,,,,,,,0,41,41,31,1,,,,,,,,,,,,,,,,,,,,,,,,,,,,
,,,,,V3_072,18,Male,2024-11-16_18h35.41.081,jersey_experiment_5_v3,2023.2.2,Win32,84.74576271,,,,,,,,,,,,,,,,817.1607,818.7133,818.7134,820.2781,return,0.6045,,47.91666667,,,,,,FBP-OG-17.png,0.35,1.2,31,0.75,,,,,,,,,,,,,0,42,42,30,1,,,,,,,,,,,,,,,,,,,,,,,,,,,,
,,,,,V3_072,18,Male,2024-11-16_18h35.41.081,jersey_experiment_5_v3,2023.2.2,Win32,84.74576271,,,,,,,,,,,,,,,,820.2783,821.5723,821.5723,824.0077,return,0.7559,,70.83333333,,,,,,FBP-RB-18.png,0.45,1.2,55,0.5,,,,,,,,,,,,,0,43,43,54,1,,,,,,,,,,,,,,,,,,,,,,,,,,,,
,,,,,V3_072,18,Male,2024-11-16_18h35.41.081,jersey_experiment_5_v3,2023.2.2,Win32,84.74576271,,,,,,,,,,,,,,,,824.0079,825.3018,825.3018,827.1726,return,0.5691,,80.33854167,,,,,,FBP-RB-19.png,0.45,1.2,60,0.5,,,,,,,,,,,,,0,44,44,59,1,,,,,,,,,,,,,,,,,,,,,,,,,,,,
,,,,,V3_072,18,Male,2024-11-16_18h35.41.081,jersey_experiment_5_v3,2023.2.2,Win32,84.74576271,,,,,,,,,,,,,,,,827.1728,828.7254,828.7254,831.8433,return,0.6899,,77.08333333,,,,,,FBP-OG-17.png,0.4,1.2,33,0.75,,,,,,,,,,,,,0,45,45,32,1,,,,,,,,,,,,,,,,,,,,,,,,,,,,
,,,,,V3_072,18,Male,2024-11-16_18h35.41.081,jersey_experiment_5_v3,2023.2.2,Win32,84.74576271,,,,,,,,,,,,,,,,831.8436,833.1377,833.1378,836.5847,return,2.6367,,38.15104167,,,,,,FBP-PT-17.png,0.35,1.2,16,0.5,,,,,,,,,,,,,0,46,46,15,1,,,,,,,,,,,,,,,,,,,,,,,,,,,,
,,,,,V3_072,18,Male,2024-11-16_18h35.41.081,jersey_experiment_5_v3,2023.2.2,Win32,84.74576271,,,,,,,,,,,,,,,,836.585,838.1378,838.1378,840.0672,return,0.6391,,74.08854167,,,,,,FBP-OG-19.png,0.45,1.2,45,0.75,,,,,,,,,,,,,0,47,47,44,1,,,,,,,,,,,,,,,,,,,,,,,,,,,,
,,,,,V3_072,18,Male,2024-11-16_18h35.41.081,jersey_experiment_5_v3,2023.2.2,Win32,84.74576271,,,,,,,,,,,,,,,,840.0675,841.3614,841.3614,843.9967,return,0.8707,,76.04166667,,,,,,FBP-PT-18.png,0.45,1.2,25,0.5,,,,,,,,,,,,,0,48,48,24,1,,,,,,,,,,,,,,,,,,,,,,,,,,,,
,,,,,V3_072,18,Male,2024-11-16_18h35.41.081,jersey_experiment_5_v3,2023.2.2,Win32,84.74576271,,,,,,,,,,,,,,,,843.9969,845.291,845.291,847.5497,return,0.602,,47.13541667,,,,,,FBP-PT-19.png,0.4,1.2,28,0.5,,,,,,,,,,,,,0,49,49,27,1,,,,,,,,,,,,,,,,,,,,,,,,,,,,
,,,,,V3_072,18,Male,2024-11-16_18h35.41.081,jersey_experiment_5_v3,2023.2.2,Win32,84.74576271,,,,,,,,,,,,,,,,847.55,848.844,848.844,851.091,return,0.7135,,65.10416667,,,,,,FBP-YG-81.png,0.43,1.2,9,0.5,,,,,,,,,,,,,0,50,50,8,1,,,,,,,,,,,,,,,,,,,,,,,,,,,,
,,,,,V3_072,18,Male,2024-11-16_18h35.41.081,jersey_experiment_5_v3,2023.2.2,Win32,84.74576271,,,,,,,,,,,,,,,,851.0912,852.3852,852.3852,856.6326,return,0.769,,64.84375,,,,,,FBP-YG-71.png,0.45,1.2,5,0.5,,,,,,,,,,,,,0,51,51,4,1,,,,,,,,,,,,,,,,,,,,,,,,,,,,
,,,,,V3_072,18,Male,2024-11-16_18h35.41.081,jersey_experiment_5_v3,2023.2.2,Win32,84.74576271,,,,,,,,,,,,,,,,856.6329,858.1855,858.1855,859.7736,return,0.9278,,47.39583333,,,,,,FBP-OG-18.png,0.35,1.2,36,0.75,,,,,,,,,,,,,0,52,52,35,1,,,,,,,,,,,,,,,,,,,,,,,,,,,,
,,,,,V3_072,18,Male,2024-11-16_18h35.41.081,jersey_experiment_5_v3,2023.2.2,Win32,84.74576271,,,,,,,,,,,,,,,,859.774,861.0679,861.068,862.1502,return,0.5455,,43.359375,,,,,,FBP-RB-17.png,0.35,1.2,46,0.5,,,,,,,,,,,,,0,53,53,45,1,,,,,,,,,,,,,,,,,,,,,,,,,,,,
,,,,,V3_072,18,Male,2024-11-16_18h35.41.081,jersey_experiment_5_v3,2023.2.2,Win32,84.74576271,,,,,,,,,,,,,,,,862.1505,863.4444,863.4445,864.5033,return,0.5998,,43.22916667,,,,,,FBP-PT-18.png,0.37,1.2,22,0.5,,,,,,,,,,,,,0,54,54,21,1,,,,,,,,,,,,,,,,,,,,,,,,,,,,
,,,,,V3_072,18,Male,2024-11-16_18h35.41.081,jersey_experiment_5_v3,2023.2.2,Win32,84.74576271,,,,,,,,,,,,,,,,864.5034,865.7974,865.7974,869.786,return,3.3888,,65.36458333,,,,,,FBP-YG-81.png,0.37,1.2,7,0.5,,,,,,,,,,,,,0,55,55,6,1,,,,,,,,,,,,,,,,,,,,,,,,,,,,
,,,,,V3_072,18,Male,2024-11-16_18h35.41.081,jersey_experiment_5_v3,2023.2.2,Win32,84.74576271,,,,,,,,,,,,,,,,869.7863,871.0801,871.0802,872.2213,return,0.6826,,65.75520833,,,,,,FBP-YG-91.png,0.37,1.2,12,0.5,,,,,,,,,,,,,0,56,56,11,1,,,,,,,,,,,,,,,,,,,,,,,,,,,,
,,,,,V3_072,18,Male,2024-11-16_18h35.41.081,jersey_experiment_5_v3,2023.2.2,Win32,84.74576271,,,,,,,,,,,,,,,,872.2215,873.7742,873.7743,876.4686,return,1.7676,,61.58854167,,,,,,FBP-OG-18.png,0.45,1.2,40,0.75,,,,,,,,,,,,,0,57,57,39,1,,,,,,,,,,,,,,,,,,,,,,,,,,,,
,,,,,V3_072,18,Male,2024-11-16_18h35.41.081,jersey_experiment_5_v3,2023.2.2,Win32,84.74576271,,,,,,,,,,,,,,,,876.4688,877.7626,877.7626,878.8451,return,0.5649,,64.453125,,,,,,FBP-PT-19.png,0.45,1.2,30,0.5,,,,,,,,,,,,,0,58,58,29,1,,,,,,,,,,,,,,,,,,,,,,,,,,,,
,,,,,V3_072,18,Male,2024-11-16_18h35.41.081,jersey_experiment_5_v3,2023.2.2,Win32,84.74576271,,,,,,,,,,,,,,,,878.8453,880.1393,880.1393,882.0923,return,1.0117,,64.453125,,,,,,FBP-YG-71.png,0.43,1.2,4,0.5,,,,,,,,,,,,,0,59,59,3,1,,,,,,,,,,,,,,,,,,,,,,,,,,,,
,,,,,V3_072,18,Male,2024-11-16_18h35.41.081,jersey_experiment_5_v3,2023.2.2,Win32,84.74576271,,,,,,,,,,,,,,,,882.0939,883.3864,883.3865,885.1864,return,0.7225,,66.40625,,,,,,FBP-RB-91.png,0.4,1.2,58,0.5,,,,,,,,,,,,,,,,,,0,0,0,57,1,,,,,,,,,,,,,,,,,,,,,,,
,,,,,V3_072,18,Male,2024-11-16_18h35.41.081,jersey_experiment_5_v3,2023.2.2,Win32,84.74576271,,,,,,,,,,,,,,,,885.1867,886.4806,886.4806,888.0572,return,0.5065,,73.56770833,,,,,,FBP-YG-18.png,0.45,1.2,10,0.5,,,,,,,,,,,,,,,,,,0,1,1,9,1,,,,,,,,,,,,,,,,,,,,,,,
,,,,,V3_072,18,Male,2024-11-16_18h35.41.081,jersey_experiment_5_v3,2023.2.2,Win32,84.74576271,,,,,,,,,,,,,,,,888.0575,889.3514,889.3514,890.5868,return,0.5417,,61.71875,,,,,,FBP-RB-71.png,0.37,1.2,47,0.5,,,,,,,,,,,,,,,,,,0,2,2,46,1,,,,,,,,,,,,,,,,,,,,,,,
,,,,,V3_072,18,Male,2024-11-16_18h35.41.081,jersey_experiment_5_v3,2023.2.2,Win32,84.74576271,,,,,,,,,,,,,,,,890.587,892.1397,892.1398,893.4338,return,0.4862,,67.05729167,,,,,,FBP-OG-91.png,0.45,1.2,45,0.75,,,,,,,,,,,,,,,,,,0,3,3,44,1,,,,,,,,,,,,,,,,,,,,,,,
,,,,,V3_072,18,Male,2024-11-16_18h35.41.081,jersey_experiment_5_v3,2023.2.2,Win32,84.74576271,,,,,,,,,,,,,,,,893.434,894.7281,894.7281,895.8692,return,0.5763,,69.53125,,,,,,FBP-PT-81.png,0.43,1.2,24,0.5,,,,,,,,,,,,,,,,,,0,4,4,23,1,,,,,,,,,,,,,,,,,,,,,,,
,,,,,V3_072,18,Male,2024-11-16_18h35.41.081,jersey_experiment_5_v3,2023.2.2,Win32,84.74576271,,,,,,,,,,,,,,,,895.8695,897.4222,897.4222,899.3869,return,0.9414,,74.47916667,,,,,,FBP-OG-71.png,0.45,1.2,35,0.75,,,,,,,,,,,,,,,,,,0,5,5,34,1,,,,,,,,,,,,,,,,,,,,,,,
,,,,,V3_072,18,Male,2024-11-16_18h35.41.081,jersey_experiment_5_v3,2023.2.2,Win32,84.74576271,,,,,,,,,,,,,,,,899.3871,900.6811,900.6811,901.8106,return,0.4907,,69.40104167,,,,,,FBP-PT-91.png,0.43,1.2,29,0.5,,,,,,,,,,,,,,,,,,0,6,6,28,1,,,,,,,,,,,,,,,,,,,,,,,
,,,,,V3_072,18,Male,2024-11-16_18h35.41.081,jersey_experiment_5_v3,2023.2.2,Win32,84.74576271,,,,,,,,,,,,,,,,901.8108,903.1047,903.1047,905.0343,return,0.5888,,37.63020833,,,,,,FBP-PT-91.png,0.37,1.2,27,0.5,,,,,,,,,,,,,,,,,,0,7,7,26,1,,,,,,,,,,,,,,,,,,,,,,,
,,,,,V3_072,18,Male,2024-11-16_18h35.41.081,jersey_experiment_5_v3,2023.2.2,Win32,84.74576271,,,,,,,,,,,,,,,,905.0346,906.5874,906.5874,908.1519,return,0.5675,,35.28645833,,,,,,FBP-OG-91.png,0.37,1.2,42,0.75,,,,,,,,,,,,,,,,,,0,8,8,41,1,,,,,,,,,,,,,,,,,,,,,,,
,,,,,V3_072,18,Male,2024-11-16_18h35.41.081,jersey_experiment_5_v3,2023.2.2,Win32,84.74576271,,,,,,,,,,,,,,,,908.1522,909.4463,909.4463,912.411,return,0.5415,,42.05729167,,,,,,FBP-RB-81.png,0.43,1.2,54,0.5,,,,,,,,,,,,,,,,,,0,9,9,53,1,,,,,,,,,,,,,,,,,,,,,,,
,,,,,V3_072,18,Male,2024-11-16_18h35.41.081,jersey_experiment_5_v3,2023.2.2,Win32,84.74576271,,,,,,,,,,,,,,,,912.4112,913.7054,913.7054,915.058,return,0.6169,,70.96354167,,,,,,FBP-YG-17.png,0.45,1.2,5,0.5,,,,,,,,,,,,,,,,,,0,10,10,4,1,,,,,,,,,,,,,,,,,,,,,,,
,,,,,V3_072,18,Male,2024-11-16_18h35.41.081,jersey_experiment_5_v3,2023.2.2,Win32,84.74576271,,,,,,,,,,,,,,,,915.0583,916.3524,916.3524,917.7524,return,0.5547,,61.328125,,,,,,FBP-RB-81.png,0.37,1.2,52,0.5,,,,,,,,,,,,,,,,,,0,11,11,51,1,,,,,,,,,,,,,,,,,,,,,,,
,,,,,V3_072,18,Male,2024-11-16_18h35.41.081,jersey_experiment_5_v3,2023.2.2,Win32,84.74576271,,,,,,,,,,,,,,,,917.7526,919.0464,919.0465,927.2234,return,0.4863,,58.07291667,,,,,,FBP-PT-71.png,0.45,1.2,20,0.5,,,,,,,,,,,,,,,,,,0,12,12,19,1,,,,,,,,,,,,,,,,,,,,,,,
,,,,,V3_072,18,Male,2024-11-16_18h35.41.081,jersey_experiment_5_v3,2023.2.2,Win32,84.74576271,,,,,,,,,,,,,,,,927.2236,928.7766,928.7766,931.4941,return,0.6635,,49.86979167,,,,,,FBP-OG-71.png,0.4,1.2,33,0.75,,,,,,,,,,,,,,,,,,0,13,13,32,1,,,,,,,,,,,,,,,,,,,,,,,
,,,,,V3_072,18,Male,2024-11-16_18h35.41.081,jersey_experiment_5_v3,2023.2.2,Win32,84.74576271,,,,,,,,,,,,,,,,931.4945,932.7883,932.7883,934.0354,return,0.5955,,62.890625,,,,,,FBP-YG-19.png,0.45,1.2,15,0.5,,,,,,,,,,,,,,,,,,0,14,14,14,1,,,,,,,,,,,,,,,,,,,,,,,
,,,,,V3_072,18,Male,2024-11-16_18h35.41.081,jersey_experiment_5_v3,2023.2.2,Win32,84.74576271,,,,,,,,,,,,,,,,934.0357,935.3295,935.3295,937.1648,return,0.612,,50.52083333,,,,,,FBP-YG-19.png,0.4,1.2,13,0.5,,,,,,,,,,,,,,,,,,0,15,15,12,1,,,,,,,,,,,,,,,,,,,,,,,
,,,,,V3_072,18,Male,2024-11-16_18h35.41.081,jersey_experiment_5_v3,2023.2.2,Win32,84.74576271,,,,,,,,,,,,,,,,937.1651,938.459,938.4591,939.7532,return,0.5193,,65.10416667,,,,,,FBP-RB-71.png,0.43,1.2,49,0.5,,,,,,,,,,,,,,,,,,0,16,16,48,1,,,,,,,,,,,,,,,,,,,,,,,
,,,,,V3_072,18,Male,2024-11-16_18h35.41.081,jersey_experiment_5_v3,2023.2.2,Win32,84.74576271,,,,,,,,,,,,,,,,939.7535,941.0473,941.0474,942.2004,return,0.7163,,64.97395833,,,,,,FBP-RB-91.png,0.45,1.2,60,0.5,,,,,,,,,,,,,,,,,,0,17,17,59,1,,,,,,,,,,,,,,,,,,,,,,,
,,,,,V3_072,18,Male,2024-11-16_18h35.41.081,jersey_experiment_5_v3,2023.2.2,Win32,84.74576271,,,,,,,,,,,,,,,,942.2007,943.4946,943.4946,944.8356,return,0.5482,,66.27604167,,,,,,FBP-RB-91.png,0.43,1.2,59,0.5,,,,,,,,,,,,,,,,,,0,18,18,58,1,,,,,,,,,,,,,,,,,,,,,,,
,,,,,V3_072,18,Male,2024-11-16_18h35.41.081,jersey_experiment_5_v3,2023.2.2,Win32,84.74576271,,,,,,,,,,,,,,,,944.8359,946.1299,946.1299,949.0947,return,0.5217,,38.54166667,,,,,,FBP-RB-81.png,0.35,1.2,51,0.5,,,,,,,,,,,,,,,,,,0,19,19,50,1,,,,,,,,,,,,,,,,,,,,,,,
,,,,,V3_072,18,Male,2024-11-16_18h35.41.081,jersey_experiment_5_v3,2023.2.2,Win32,84.74576271,,,,,,,,,,,,,,,,949.095,950.6477,950.6477,951.8948,return,0.6946,,32.68229167,,,,,,FBP-OG-71.png,0.35,1.2,31,0.75,,,,,,,,,,,,,,,,,,0,20,20,30,1,,,,,,,,,,,,,,,,,,,,,,,
,,,,,V3_072,18,Male,2024-11-16_18h35.41.081,jersey_experiment_5_v3,2023.2.2,Win32,84.74576271,,,,,,,,,,,,,,,,951.8951,953.189,953.1891,954.9068,return,0.6356,,62.36979167,,,,,,FBP-RB-81.png,0.45,1.2,55,0.5,,,,,,,,,,,,,,,,,,0,21,21,54,1,,,,,,,,,,,,,,,,,,,,,,,
,,,,,V3_072,18,Male,2024-11-16_18h35.41.081,jersey_experiment_5_v3,2023.2.2,Win32,84.74576271,,,,,,,,,,,,,,,,954.907,956.4597,956.4597,958.0246,return,0.6963,,60.15625,,,,,,FBP-OG-71.png,0.43,1.2,34,0.75,,,,,,,,,,,,,,,,,,0,22,22,33,1,,,,,,,,,,,,,,,,,,,,,,,
,,,,,V3_072,18,Male,2024-11-16_18h35.41.081,jersey_experiment_5_v3,2023.2.2,Win32,84.74576271,,,,,,,,,,,,,,,,958.0249,959.3186,959.3187,961.2835,return,0.7453,,42.05729167,,,,,,FBP-YG-17.png,0.37,1.2,2,0.5,,,,,,,,,,,,,,,,,,0,23,23,1,1,,,,,,,,,,,,,,,,,,,,,,,
,,,,,V3_072,18,Male,2024-11-16_18h35.41.081,jersey_experiment_5_v3,2023.2.2,Win32,84.74576271,,,,,,,,,,,,,,,,961.2837,962.5776,962.5776,963.9071,return,0.6784,,37.76041667,,,,,,FBP-YG-18.png,0.37,1.2,7,0.5,,,,,,,,,,,,,,,,,,0,24,24,6,1,,,,,,,,,,,,,,,,,,,,,,,
,,,,,V3_072,18,Male,2024-11-16_18h35.41.081,jersey_experiment_5_v3,2023.2.2,Win32,84.74576271,,,,,,,,,,,,,,,,963.9074,965.2013,965.2013,966.519,return,0.8627,,41.53645833,,,,,,FBP-PT-81.png,0.37,1.2,22,0.5,,,,,,,,,,,,,,,,,,0,25,25,21,1,,,,,,,,,,,,,,,,,,,,,,,
,,,,,V3_072,18,Male,2024-11-16_18h35.41.081,jersey_experiment_5_v3,2023.2.2,Win32,84.74576271,,,,,,,,,,,,,,,,966.5192,968.0719,968.072,969.4367,return,0.6514,,39.32291667,,,,,,FBP-OG-91.png,0.35,1.2,41,0.75,,,,,,,,,,,,,,,,,,0,26,26,40,1,,,,,,,,,,,,,,,,,,,,,,,
,,,,,V3_072,18,Male,2024-11-16_18h35.41.081,jersey_experiment_5_v3,2023.2.2,Win32,84.74576271,,,,,,,,,,,,,,,,969.4369,970.7308,970.7309,972.5074,return,0.8317,,38.93229167,,,,,,FBP-PT-71.png,0.37,1.2,17,0.5,,,,,,,,,,,,,,,,,,0,27,27,16,1,,,,,,,,,,,,,,,,,,,,,,,
,,,,,V3_072,18,Male,2024-11-16_18h35.41.081,jersey_experiment_5_v3,2023.2.2,Win32,84.74576271,,,,,,,,,,,,,,,,972.5076,973.8016,973.8016,975.5781,return,0.8843,,56.90104167,,,,,,FBP-YG-18.png,0.4,1.2,8,0.5,,,,,,,,,,,,,,,,,,0,28,28,7,1,,,,,,,,,,,,,,,,,,,,,,,
,,,,,V3_072,18,Male,2024-11-16_18h35.41.081,jersey_experiment_5_v3,2023.2.2,Win32,84.74576271,,,,,,,,,,,,,,,,975.5785,977.1311,977.1311,978.2843,return,0.6722,,61.58854167,,,,,,FBP-OG-91.png,0.43,1.2,44,0.75,,,,,,,,,,,,,,,,,,0,29,29,43,1,,,,,,,,,,,,,,,,,,,,,,,
,,,,,V3_072,18,Male,2024-11-16_18h35.41.081,jersey_experiment_5_v3,2023.2.2,Win32,84.74576271,,,,,,,,,,,,,,,,978.2844,979.5781,979.5783,981.5901,return,1.1578,,61.97916667,,,,,,FBP-YG-19.png,0.43,1.2,14,0.5,,,,,,,,,,,,,,,,,,0,30,30,13,1,,,,,,,,,,,,,,,,,,,,,,,
,,,,,V3_072,18,Male,2024-11-16_18h35.41.081,jersey_experiment_5_v3,2023.2.2,Win32,84.74576271,,,,,,,,,,,,,,,,981.5904,982.8842,982.8843,984.4255,return,0.6352,,77.60416667,,,,,,FBP-PT-71.png,0.43,1.2,19,0.5,,,,,,,,,,,,,,,,,,0,31,31,18,1,,,,,,,,,,,,,,,,,,,,,,,
,,,,,V3_072,18,Male,2024-11-16_18h35.41.081,jersey_experiment_5_v3,2023.2.2,Win32,84.74576271,,,,,,,,,,,,,,,,984.4259,985.7196,985.7197,988.6021,return,0.5983,,45.3125,,,,,,FBP-RB-71.png,0.35,1.2,46,0.5,,,,,,,,,,,,,,,,,,0,32,32,45,1,,,,,,,,,,,,,,,,,,,,,,,
,,,,,V3_072,18,Male,2024-11-16_18h35.41.081,jersey_experiment_5_v3,2023.2.2,Win32,84.74576271,,,,,,,,,,,,,,,,988.6024,990.1551,990.1552,993.8376,return,0.7431,,50,,,,,,FBP-OG-81.png,0.35,1.2,36,0.75,,,,,,,,,,,,,,,,,,0,33,33,35,1,,,,,,,,,,,,,,,,,,,,,,,
,,,,,V3_072,18,Male,2024-11-16_18h35.41.081,jersey_experiment_5_v3,2023.2.2,Win32,84.74576271,,,,,,,,,,,,,,,,993.8379,995.1316,995.1317,996.8023,return,0.5849,,61.06770833,,,,,,FBP-RB-91.png,0.35,1.2,56,0.5,,,,,,,,,,,,,,,,,,0,34,34,55,1,,,,,,,,,,,,,,,,,,,,,,,
,,,,,V3_072,18,Male,2024-11-16_18h35.41.081,jersey_experiment_5_v3,2023.2.2,Win32,84.74576271,,,,,,,,,,,,,,,,996.8026,998.0968,998.0968,1000.1673,return,0.8859,,74.86979167,,,,,,FBP-PT-91.png,0.45,1.2,30,0.5,,,,,,,,,,,,,,,,,,0,35,35,29,1,,,,,,,,,,,,,,,,,,,,,,,
,,,,,V3_072,18,Male,2024-11-16_18h35.41.081,jersey_experiment_5_v3,2023.2.2,Win32,84.74576271,,,,,,,,,,,,,,,,1000.1675,1001.4616,1001.4617,1002.8262,return,0.5906,,63.15104167,,,,,,FBP-PT-91.png,0.4,1.2,28,0.5,,,,,,,,,,,,,,,,,,0,36,36,27,1,,,,,,,,,,,,,,,,,,,,,,,
,,,,,V3_072,18,Male,2024-11-16_18h35.41.081,jersey_experiment_5_v3,2023.2.2,Win32,84.74576271,,,,,,,,,,,,,,,,1002.8264,1004.1203,1004.1204,1006.0028,return,1.0889,,79.42708333,,,,,,FBP-RB-71.png,0.45,1.2,50,0.5,,,,,,,,,,,,,,,,,,0,37,37,49,1,,,,,,,,,,,,,,,,,,,,,,,
,,,,,V3_072,18,Male,2024-11-16_18h35.41.081,jersey_experiment_5_v3,2023.2.2,Win32,84.74576271,,,,,,,,,,,,,,,,1006.0031,1007.2969,1007.297,1012.1089,return,0.9651,,63.41145833,,,,,,FBP-YG-19.png,0.37,1.2,12,0.5,,,,,,,,,,,,,,,,,,0,38,38,11,1,,,,,,,,,,,,,,,,,,,,,,,
,,,,,V3_072,18,Male,2024-11-16_18h35.41.081,jersey_experiment_5_v3,2023.2.2,Win32,84.74576271,,,,,,,,,,,,,,,,1012.1092,1013.403,1013.403,1016.0738,return,0.659,,56.25,,,,,,FBP-RB-81.png,0.4,1.2,53,0.5,,,,,,,,,,,,,,,,,,0,39,39,52,1,,,,,,,,,,,,,,,,,,,,,,,
,,,,,V3_072,18,Male,2024-11-16_18h35.41.081,jersey_experiment_5_v3,2023.2.2,Win32,84.74576271,,,,,,,,,,,,,,,,1016.074,1017.3677,1017.3678,1023.1915,return,2.8034,,79.16666667,,,,,,FBP-PT-81.png,0.45,1.2,25,0.5,,,,,,,,,,,,,,,,,,0,40,40,24,1,,,,,,,,,,,,,,,,,,,,,,,
,,,,,V3_072,18,Male,2024-11-16_18h35.41.081,jersey_experiment_5_v3,2023.2.2,Win32,84.74576271,,,,,,,,,,,,,,,,1023.1917,1024.4857,1024.4857,1030.0743,return,0.5882,,62.5,,,,,,FBP-YG-17.png,0.35,1.2,1,0.5,,,,,,,,,,,,,,,,,,0,41,41,0,1,,,,,,,,,,,,,,,,,,,,,,,
,,,,,V3_072,18,Male,2024-11-16_18h35.41.081,jersey_experiment_5_v3,2023.2.2,Win32,84.74576271,,,,,,,,,,,,,,,,1030.0745,1031.3685,1031.3685,1034.2509,return,0.7626,,58.72395833,,,,,,FBP-YG-18.png,0.43,1.2,9,0.5,,,,,,,,,,,,,,,,,,0,42,42,8,1,,,,,,,,,,,,,,,,,,,,,,,
,,,,,V3_072,18,Male,2024-11-16_18h35.41.081,jersey_experiment_5_v3,2023.2.2,Win32,84.74576271,,,,,,,,,,,,,,,,1034.2512,1035.8037,1035.8038,1037.3216,return,0.8843,,64.0625,,,,,,FBP-OG-81.png,0.37,1.2,37,0.75,,,,,,,,,,,,,,,,,,0,43,43,36,1,,,,,,,,,,,,,,,,,,,,,,,
,,,,,V3_072,18,Male,2024-11-16_18h35.41.081,jersey_experiment_5_v3,2023.2.2,Win32,84.74576271,,,,,,,,,,,,,,,,1037.3219,1038.8744,1038.8745,1041.5335,return,0.5189,,61.84895833,,,,,,FBP-OG-91.png,0.4,1.2,43,0.75,,,,,,,,,,,,,,,,,,0,44,44,42,1,,,,,,,,,,,,,,,,,,,,,,,
,,,,,V3_072,18,Male,2024-11-16_18h35.41.081,jersey_experiment_5_v3,2023.2.2,Win32,84.74576271,,,,,,,,,,,,,,,,1041.5338,1043.0864,1043.0864,1045.9924,return,0.8838,,75.91145833,,,,,,FBP-OG-81.png,0.45,1.2,40,0.75,,,,,,,,,,,,,,,,,,0,45,45,39,1,,,,,,,,,,,,,,,,,,,,,,,
,,,,,V3_072,18,Male,2024-11-16_18h35.41.081,jersey_experiment_5_v3,2023.2.2,Win32,84.74576271,,,,,,,,,,,,,,,,1045.9926,1047.2867,1047.2867,1049.2515,return,0.7832,,47.265625,,,,,,FBP-PT-91.png,0.35,1.2,26,0.5,,,,,,,,,,,,,,,,,,0,46,46,25,1,,,,,,,,,,,,,,,,,,,,,,,
,,,,,V3_072,18,Male,2024-11-16_18h35.41.081,jersey_experiment_5_v3,2023.2.2,Win32,84.74576271,,,,,,,,,,,,,,,,1049.2518,1050.5456,1050.5457,1053.1575,return,1.1937,,62.5,,,,,,FBP-RB-91.png,0.37,1.2,57,0.5,,,,,,,,,,,,,,,,,,0,47,47,56,1,,,,,,,,,,,,,,,,,,,,,,,
,,,,,V3_072,18,Male,2024-11-16_18h35.41.081,jersey_experiment_5_v3,2023.2.2,Win32,84.74576271,,,,,,,,,,,,,,,,1053.1578,1054.4516,1054.4516,1056.8045,return,0.7085,,63.671875,,,,,,FBP-YG-18.png,0.35,1.2,6,0.5,,,,,,,,,,,,,,,,,,0,48,48,5,1,,,,,,,,,,,,,,,,,,,,,,,
,,,,,V3_072,18,Male,2024-11-16_18h35.41.081,jersey_experiment_5_v3,2023.2.2,Win32,84.74576271,,,,,,,,,,,,,,,,1056.8048,1058.0987,1058.0987,1061.4167,return,0.9785,,43.61979167,,,,,,FBP-YG-19.png,0.35,1.2,11,0.5,,,,,,,,,,,,,,,,,,0,49,49,10,1,,,,,,,,,,,,,,,,,,,,,,,
,,,,,V3_072,18,Male,2024-11-16_18h35.41.081,jersey_experiment_5_v3,2023.2.2,Win32,84.74576271,,,,,,,,,,,,,,,,1061.4169,1062.7108,1062.7109,1065.9815,return,0.9096,,81.90104167,,,,,,FBP-PT-71.png,0.4,1.2,18,0.5,,,,,,,,,,,,,,,,,,0,50,50,17,1,,,,,,,,,,,,,,,,,,,,,,,
,,,,,V3_072,18,Male,2024-11-16_18h35.41.081,jersey_experiment_5_v3,2023.2.2,Win32,84.74576271,,,,,,,,,,,,,,,,1065.9817,1067.2756,1067.2756,1069.2522,return,1.1339,,63.28125,,,,,,FBP-PT-81.png,0.35,1.2,21,0.5,,,,,,,,,,,,,,,,,,0,51,51,20,1,,,,,,,,,,,,,,,,,,,,,,,
,,,,,V3_072,18,Male,2024-11-16_18h35.41.081,jersey_experiment_5_v3,2023.2.2,Win32,84.74576271,,,,,,,,,,,,,,,,1069.2525,1070.5466,1070.5466,1074.3229,return,0.596,,91.40625,,,,,,FBP-YG-17.png,0.43,1.2,4,0.5,,,,,,,,,,,,,,,,,,0,52,52,3,1,,,,,,,,,,,,,,,,,,,,,,,
,,,,,V3_072,18,Male,2024-11-16_18h35.41.081,jersey_experiment_5_v3,2023.2.2,Win32,84.74576271,,,,,,,,,,,,,,,,1074.3232,1075.876,1075.8761,1078.4877,return,0.6255,,96.484375,,,,,,FBP-OG-81.png,0.43,1.2,39,0.75,,,,,,,,,,,,,,,,,,0,53,53,38,1,,,,,,,,,,,,,,,,,,,,,,,
,,,,,V3_072,18,Male,2024-11-16_18h35.41.081,jersey_experiment_5_v3,2023.2.2,Win32,84.74576271,,,,,,,,,,,,,,,,1078.488,1080.041,1080.041,1082.2526,return,0.706,,75,,,,,,FBP-OG-81.png,0.4,1.2,38,0.75,,,,,,,,,,,,,,,,,,0,54,54,37,1,,,,,,,,,,,,,,,,,,,,,,,
,,,,,V3_072,18,Male,2024-11-16_18h35.41.081,jersey_experiment_5_v3,2023.2.2,Win32,84.74576271,,,,,,,,,,,,,,,,1082.253,1083.5467,1083.5468,1085.0527,return,0.693,,79.296875,,,,,,FBP-PT-81.png,0.4,1.2,23,0.5,,,,,,,,,,,,,,,,,,0,55,55,22,1,,,,,,,,,,,,,,,,,,,,,,,
,,,,,V3_072,18,Male,2024-11-16_18h35.41.081,jersey_experiment_5_v3,2023.2.2,Win32,84.74576271,,,,,,,,,,,,,,,,1085.053,1086.3469,1086.347,1088.5234,return,0.5631,,67.578125,,,,,,FBP-YG-17.png,0.4,1.2,3,0.5,,,,,,,,,,,,,,,,,,0,56,56,2,1,,,,,,,,,,,,,,,,,,,,,,,
,,,,,V3_072,18,Male,2024-11-16_18h35.41.081,jersey_experiment_5_v3,2023.2.2,Win32,84.74576271,,,,,,,,,,,,,,,,1088.5237,1089.8178,1089.8178,1092.406,return,0.8872,,79.42708333,,,,,,FBP-PT-71.png,0.35,1.2,16,0.5,,,,,,,,,,,,,,,,,,0,57,57,15,1,,,,,,,,,,,,,,,,,,,,,,,
,,,,,V3_072,18,Male,2024-11-16_18h35.41.081,jersey_experiment_5_v3,2023.2.2,Win32,84.74576271,,,,,,,,,,,,,,,,1092.4063,1093.9589,1093.959,1095.6884,return,0.766,,77.86458333,,,,,,FBP-OG-71.png,0.37,1.2,32,0.75,,,,,,,,,,,,,,,,,,0,58,58,31,1,,,,,,,,,,,,,,,,,,,,,,,
,,,,,V3_072,18,Male,2024-11-16_18h35.41.081,jersey_experiment_5_v3,2023.2.2,Win32,84.74576271,,,,,,,,,,,,,,,,1095.6887,1096.9826,1096.9826,1099.971,return,1.6398,,79.03645833,,,,,,FBP-RB-71.png,0.4,1.2,48,0.5,,,,,,,,,,,,,,,,,,0,59,59,47,1,,,,,,,,,,,,,,,,,,,,,,,
,,,,,V3_072,18,Male,2024-11-16_18h35.41.081,jersey_experiment_5_v3,2023.2.2,Win32,84.74576271,,,,,,,,,,,,,,,,,,,,,,,,,,,,,,,,,,,,,,,,,,,,,,,,,,,,,,,,1099.9711,1105.3712,return,5.3876,,,,,,,,,,,,,,,,,,,
,,,,,V3_072,18,Male,2024-11-16_18h35.41.081,jersey_experiment_5_v3,2023.2.2,Win32,84.74576271,,,,,,,,,,,,,,,,,,,,,,,,,,,,,,,,,,,,,,,,,,,,,,,,,,,,,,,,,,,,,1105.3713,1112.4773,1,5.0305,return,2.0629,,,,,,,,,,,,
,,,,,V3_072,18,Male,2024-11-16_18h35.41.081,jersey_experiment_5_v3,2023.2.2,Win32,84.74576271,,,,,,,,,,,,,,,,,,,,,,,,,,,,,,,,,,,,,,,,,,,,,,,,,,,,,,,,,,,,,,,,,,,,1112.4773,1153.7972,i believe it was the resizing of people like perspective ,right,37.289,,,,,,
,,,,,V3_072,18,Male,2024-11-16_18h35.41.081,jersey_experiment_5_v3,2023.2.2,Win32,84.74576271,,,,,,,,,,,,,,,,,,,,,,,,,,,,,,,,,,,,,,,,,,,,,,,,,,,,,,,,,,,,,,,,,,,,,,,,,,1153.7973,1160.7733,return,6.9689,