requirements.started,requirements.stopped,key_resp_3.keys,key_resp_3.rt,key_resp_3.duration,Subject ID,Age,Gender,date,expName,psychopyVersion,OS,frameRate,instructions1.started,instructions1.stopped,key_resp.keys,key_resp.rt,key_resp.duration,example.started,example.stopped,enter_2.keys,enter_2.rt,enter_2.duration,instructions2.started,instructions2.stopped,enter_3.keys,enter_3.rt,enter_3.duration,image.started,image.stopped,slider_2.started,slider_2.stopped,next.keys,next.rt,next.duration,slider.response,trial_block_1.thisRepN,trial_block_1.thisTrialN,trial_block_1.thisN,trial_block_1.thisIndex,trial_block_1.ran,Path,Width,Height,Index,Duration,trial_block_2.thisRepN,trial_block_2.thisTrialN,trial_block_2.thisN,trial_block_2.thisIndex,trial_block_2.ran,rest_break.started,rest_break.stopped,end_break.started,end_break.stopped,key_resp_5.keys,key_resp_5.rt,key_resp_5.duration,trial_block_3.thisRepN,trial_block_3.thisTrialN,trial_block_3.thisN,trial_block_3.thisIndex,trial_block_3.ran,trial_block_4.thisRepN,trial_block_4.thisTrialN,trial_block_4.thisN,trial_block_4.thisIndex,trial_block_4.ran,questions_intro.started,questions_intro.stopped,enter_12.keys,enter_12.rt,enter_12.duration,question2.started,question2.stopped,question_doingbest.response,question_doingbest.rt,enter_15.keys,enter_15.rt,enter_15.duration,pattern.started,pattern.stopped,pattern_2.text,enter_17.keys,enter_17.rt,enter_17.duration,thankyou.started,thankyou.stopped,enter_14.keys,enter_14.rt,enter_14.duration
0.0001,10.4875,return,10.4797,,V3_053,21,Female,2024-11-06_16h51.24.423,jersey_experiment_5_v3,2023.2.2,Win32,84.74576271,,,,,,,,,,,,,,,,,,,,,,,,,,,,,,,,,,,,,,,,,,,,,,,,,,,,,,,,,,,,,,,,,,,,,,,,,,,,,,
,,,,,V3_053,21,Female,2024-11-06_16h51.24.423,jersey_experiment_5_v3,2023.2.2,Win32,84.74576271,10.4876,22.7938,return,12.2842,,,,,,,,,,,,,,,,,,,,,,,,,,,,,,,,,,,,,,,,,,,,,,,,,,,,,,,,,,,,,,,,,,,,,,,,,,
,,,,,V3_053,21,Female,2024-11-06_16h51.24.423,jersey_experiment_5_v3,2023.2.2,Win32,84.74576271,,,,,,22.7938,26.9823,return,4.1528,,,,,,,,,,,,,,,,,,,,,,,,,,,,,,,,,,,,,,,,,,,,,,,,,,,,,,,,,,,,,,,,,,,,,
,,,,,V3_053,21,Female,2024-11-06_16h51.24.423,jersey_experiment_5_v3,2023.2.2,Win32,84.74576271,,,,,,,,,,,26.9824,62.7128,return,35.7176,,,,,,,,,,,,,,,,,,,,,,,,,,,,,,,,,,,,,,,,,,,,,,,,,,,,,,,,,,,,,,,,
,,,,,V3_053,21,Female,2024-11-06_16h51.24.423,jersey_experiment_5_v3,2023.2.2,Win32,84.74576271,,,,,,,,,,,,,,,,62.7149,64.2656,64.2657,68.5364,return,0.7093,,50.52083333,0,0,0,5,1,FBP-YG-81.png,0.35,1.2,6,0.75,,,,,,,,,,,,,,,,,,,,,,,,,,,,,,,,,,,,,,,,,,,,,
,,,,,V3_053,21,Female,2024-11-06_16h51.24.423,jersey_experiment_5_v3,2023.2.2,Win32,84.74576271,,,,,,,,,,,,,,,,68.5367,70.0894,70.0895,73.2777,return,1.1216,,98.69791667,0,1,1,4,1,FBP-YG-71.png,0.45,1.2,5,0.75,,,,,,,,,,,,,,,,,,,,,,,,,,,,,,,,,,,,,,,,,,,,,
,,,,,V3_053,21,Female,2024-11-06_16h51.24.423,jersey_experiment_5_v3,2023.2.2,Win32,84.74576271,,,,,,,,,,,,,,,,73.278,74.8307,74.8308,76.772,return,0.6046,,74.609375,0,2,2,7,1,FBP-YG-81.png,0.4,1.2,8,0.75,,,,,,,,,,,,,,,,,,,,,,,,,,,,,,,,,,,,,,,,,,,,,
,,,,,V3_053,21,Female,2024-11-06_16h51.24.423,jersey_experiment_5_v3,2023.2.2,Win32,84.74576271,,,,,,,,,,,,,,,,76.7723,78.3251,78.3251,80.325,return,0.2655,,74.609375,0,3,3,47,1,FBP-RB-17.png,0.4,1.2,48,0.75,,,,,,,,,,,,,,,,,,,,,,,,,,,,,,,,,,,,,,,,,,,,,
,,,,,V3_053,21,Female,2024-11-06_16h51.24.423,jersey_experiment_5_v3,2023.2.2,Win32,84.74576271,,,,,,,,,,,,,,,,80.3253,81.8781,81.8781,83.3017,return,0.2143,,50,0,4,4,6,1,FBP-YG-81.png,0.37,1.2,7,0.75,,,,,,,,,,,,,,,,,,,,,,,,,,,,,,,,,,,,,,,,,,,,,
,,,,,V3_053,21,Female,2024-11-06_16h51.24.423,jersey_experiment_5_v3,2023.2.2,Win32,84.74576271,,,,,,,,,,,,,,,,83.3019,84.8546,84.8547,86.9371,return,0.2146,,49.609375,0,5,5,51,1,FBP-RB-18.png,0.37,1.2,52,0.75,,,,,,,,,,,,,,,,,,,,,,,,,,,,,,,,,,,,,,,,,,,,,
,,,,,V3_053,21,Female,2024-11-06_16h51.24.423,jersey_experiment_5_v3,2023.2.2,Win32,84.74576271,,,,,,,,,,,,,,,,86.9374,88.2312,88.2313,90.4783,return,1.2706,,74.73958333,0,6,6,32,1,FBP-OG-17.png,0.4,1.2,33,0.5,,,,,,,,,,,,,,,,,,,,,,,,,,,,,,,,,,,,,,,,,,,,,
,,,,,V3_053,21,Female,2024-11-06_16h51.24.423,jersey_experiment_5_v3,2023.2.2,Win32,84.74576271,,,,,,,,,,,,,,,,90.4788,91.7725,91.7725,96.9493,return,2.3479,,93.22916667,0,7,7,43,1,FBP-OG-19.png,0.43,1.2,44,0.5,,,,,,,,,,,,,,,,,,,,,,,,,,,,,,,,,,,,,,,,,,,,,
,,,,,V3_053,21,Female,2024-11-06_16h51.24.423,jersey_experiment_5_v3,2023.2.2,Win32,84.74576271,,,,,,,,,,,,,,,,96.9496,98.5023,98.5023,100.2786,return,0.9697,,98.30729167,0,8,8,14,1,FBP-YG-91.png,0.45,1.2,15,0.75,,,,,,,,,,,,,,,,,,,,,,,,,,,,,,,,,,,,,,,,,,,,,
,,,,,V3_053,21,Female,2024-11-06_16h51.24.423,jersey_experiment_5_v3,2023.2.2,Win32,84.74576271,,,,,,,,,,,,,,,,100.2789,101.82,101.8201,104.2201,return,0.1905,,70.3125,0,9,9,27,1,FBP-PT-19.png,0.4,1.2,28,0.75,,,,,,,,,,,,,,,,,,,,,,,,,,,,,,,,,,,,,,,,,,,,,
,,,,,V3_053,21,Female,2024-11-06_16h51.24.423,jersey_experiment_5_v3,2023.2.2,Win32,84.74576271,,,,,,,,,,,,,,,,104.2203,105.5142,105.5143,108.1262,return,0.3922,,52.99479167,0,10,10,37,1,FBP-OG-18.png,0.4,1.2,38,0.5,,,,,,,,,,,,,,,,,,,,,,,,,,,,,,,,,,,,,,,,,,,,,
,,,,,V3_053,21,Female,2024-11-06_16h51.24.423,jersey_experiment_5_v3,2023.2.2,Win32,84.74576271,,,,,,,,,,,,,,,,108.1264,109.6793,109.6794,112.7968,return,0.1417,,72.65625,0,11,11,3,1,FBP-YG-71.png,0.43,1.2,4,0.75,,,,,,,,,,,,,,,,,,,,,,,,,,,,,,,,,,,,,,,,,,,,,
,,,,,V3_053,21,Female,2024-11-06_16h51.24.423,jersey_experiment_5_v3,2023.2.2,Win32,84.74576271,,,,,,,,,,,,,,,,112.797,114.0911,114.0911,115.6441,return,0.4788,,97.13541667,0,12,12,34,1,FBP-OG-17.png,0.45,1.2,35,0.5,,,,,,,,,,,,,,,,,,,,,,,,,,,,,,,,,,,,,,,,,,,,,
,,,,,V3_053,21,Female,2024-11-06_16h51.24.423,jersey_experiment_5_v3,2023.2.2,Win32,84.74576271,,,,,,,,,,,,,,,,115.6444,117.197,117.197,119.4676,return,0.4163,,29.6875,0,13,13,16,1,FBP-PT-17.png,0.37,1.2,17,0.75,,,,,,,,,,,,,,,,,,,,,,,,,,,,,,,,,,,,,,,,,,,,,
,,,,,V3_053,21,Female,2024-11-06_16h51.24.423,jersey_experiment_5_v3,2023.2.2,Win32,84.74576271,,,,,,,,,,,,,,,,119.4678,121.0209,121.0209,122.4915,return,0.2433,,98.828125,0,14,14,19,1,FBP-PT-17.png,0.45,1.2,20,0.75,,,,,,,,,,,,,,,,,,,,,,,,,,,,,,,,,,,,,,,,,,,,,
,,,,,V3_053,21,Female,2024-11-06_16h51.24.423,jersey_experiment_5_v3,2023.2.2,Win32,84.74576271,,,,,,,,,,,,,,,,122.4916,124.0443,124.0444,125.6562,return,0.18,,99.47916667,0,15,15,29,1,FBP-PT-19.png,0.45,1.2,30,0.75,,,,,,,,,,,,,,,,,,,,,,,,,,,,,,,,,,,,,,,,,,,,,
,,,,,V3_053,21,Female,2024-11-06_16h51.24.423,jersey_experiment_5_v3,2023.2.2,Win32,84.74576271,,,,,,,,,,,,,,,,125.6564,127.2093,127.2093,128.2797,return,0.154,,71.09375,0,16,16,58,1,FBP-RB-19.png,0.43,1.2,59,0.75,,,,,,,,,,,,,,,,,,,,,,,,,,,,,,,,,,,,,,,,,,,,,
,,,,,V3_053,21,Female,2024-11-06_16h51.24.423,jersey_experiment_5_v3,2023.2.2,Win32,84.74576271,,,,,,,,,,,,,,,,128.2799,129.5739,129.5739,130.9975,return,0.1939,,24.34895833,0,17,17,40,1,FBP-OG-19.png,0.35,1.2,41,0.5,,,,,,,,,,,,,,,,,,,,,,,,,,,,,,,,,,,,,,,,,,,,,
,,,,,V3_053,21,Female,2024-11-06_16h51.24.423,jersey_experiment_5_v3,2023.2.2,Win32,84.74576271,,,,,,,,,,,,,,,,130.9978,132.5504,132.5504,133.3505,return,0.2523,,24.47916667,0,18,18,55,1,FBP-RB-19.png,0.35,1.2,56,0.75,,,,,,,,,,,,,,,,,,,,,,,,,,,,,,,,,,,,,,,,,,,,,
,,,,,V3_053,21,Female,2024-11-06_16h51.24.423,jersey_experiment_5_v3,2023.2.2,Win32,84.74576271,,,,,,,,,,,,,,,,133.3507,134.9035,134.9035,136.4565,return,0.1427,,58.203125,0,19,19,21,1,FBP-PT-18.png,0.37,1.2,22,0.75,,,,,,,,,,,,,,,,,,,,,,,,,,,,,,,,,,,,,,,,,,,,,
,,,,,V3_053,21,Female,2024-11-06_16h51.24.423,jersey_experiment_5_v3,2023.2.2,Win32,84.74576271,,,,,,,,,,,,,,,,136.4567,138.0096,138.0096,139.4331,return,0.1674,,38.93229167,0,20,20,25,1,FBP-PT-19.png,0.35,1.2,26,0.75,,,,,,,,,,,,,,,,,,,,,,,,,,,,,,,,,,,,,,,,,,,,,
,,,,,V3_053,21,Female,2024-11-06_16h51.24.423,jersey_experiment_5_v3,2023.2.2,Win32,84.74576271,,,,,,,,,,,,,,,,139.4333,140.986,140.9862,142.1155,return,0.1578,,42.96875,0,21,21,50,1,FBP-RB-18.png,0.35,1.2,51,0.75,,,,,,,,,,,,,,,,,,,,,,,,,,,,,,,,,,,,,,,,,,,,,
,,,,,V3_053,21,Female,2024-11-06_16h51.24.423,jersey_experiment_5_v3,2023.2.2,Win32,84.74576271,,,,,,,,,,,,,,,,142.1158,143.6686,143.6686,146.3981,return,0.2354,,76.82291667,0,22,22,52,1,FBP-RB-18.png,0.4,1.2,53,0.75,,,,,,,,,,,,,,,,,,,,,,,,,,,,,,,,,,,,,,,,,,,,,
,,,,,V3_053,21,Female,2024-11-06_16h51.24.423,jersey_experiment_5_v3,2023.2.2,Win32,84.74576271,,,,,,,,,,,,,,,,146.3984,147.6922,147.6922,148.6923,return,0.147,,91.92708333,0,23,23,38,1,FBP-OG-18.png,0.43,1.2,39,0.5,,,,,,,,,,,,,,,,,,,,,,,,,,,,,,,,,,,,,,,,,,,,,
,,,,,V3_053,21,Female,2024-11-06_16h51.24.423,jersey_experiment_5_v3,2023.2.2,Win32,84.74576271,,,,,,,,,,,,,,,,148.6927,150.2455,150.2455,152.2453,return,0.1908,,49.86979167,0,24,24,1,1,FBP-YG-71.png,0.37,1.2,2,0.75,,,,,,,,,,,,,,,,,,,,,,,,,,,,,,,,,,,,,,,,,,,,,
,,,,,V3_053,21,Female,2024-11-06_16h51.24.423,jersey_experiment_5_v3,2023.2.2,Win32,84.74576271,,,,,,,,,,,,,,,,152.2456,153.7986,153.7987,155.2571,return,0.3671,,95.05208333,0,25,25,24,1,FBP-PT-18.png,0.45,1.2,25,0.75,,,,,,,,,,,,,,,,,,,,,,,,,,,,,,,,,,,,,,,,,,,,,
,,,,,V3_053,21,Female,2024-11-06_16h51.24.423,jersey_experiment_5_v3,2023.2.2,Win32,84.74576271,,,,,,,,,,,,,,,,155.2574,156.8103,156.8103,158.2926,return,0.2384,,97.13541667,0,26,26,54,1,FBP-RB-18.png,0.45,1.2,55,0.75,,,,,,,,,,,,,,,,,,,,,,,,,,,,,,,,,,,,,,,,,,,,,
,,,,,V3_053,21,Female,2024-11-06_16h51.24.423,jersey_experiment_5_v3,2023.2.2,Win32,84.74576271,,,,,,,,,,,,,,,,158.2929,159.8457,159.8457,161.3045,return,0.2265,,94.40104167,0,27,27,57,1,FBP-RB-19.png,0.4,1.2,58,0.75,,,,,,,,,,,,,,,,,,,,,,,,,,,,,,,,,,,,,,,,,,,,,
,,,,,V3_053,21,Female,2024-11-06_16h51.24.423,jersey_experiment_5_v3,2023.2.2,Win32,84.74576271,,,,,,,,,,,,,,,,161.3047,162.5985,162.5985,164.4458,return,0.2444,,97.65625,0,28,28,33,1,FBP-OG-17.png,0.43,1.2,34,0.5,,,,,,,,,,,,,,,,,,,,,,,,,,,,,,,,,,,,,,,,,,,,,
,,,,,V3_053,21,Female,2024-11-06_16h51.24.423,jersey_experiment_5_v3,2023.2.2,Win32,84.74576271,,,,,,,,,,,,,,,,164.446,165.9987,165.9988,167.693,return,0.165,,67.70833333,0,29,29,2,1,FBP-YG-71.png,0.4,1.2,3,0.75,,,,,,,,,,,,,,,,,,,,,,,,,,,,,,,,,,,,,,,,,,,,,
,,,,,V3_053,21,Female,2024-11-06_16h51.24.423,jersey_experiment_5_v3,2023.2.2,Win32,84.74576271,,,,,,,,,,,,,,,,167.6933,169.2461,169.2462,170.0578,return,0.1567,,89.84375,0,30,30,23,1,FBP-PT-18.png,0.43,1.2,24,0.75,,,,,,,,,,,,,,,,,,,,,,,,,,,,,,,,,,,,,,,,,,,,,
,,,,,V3_053,21,Female,2024-11-06_16h51.24.423,jersey_experiment_5_v3,2023.2.2,Win32,84.74576271,,,,,,,,,,,,,,,,170.058,171.6108,171.6108,174.2814,return,1.6496,,25.78125,0,31,31,45,1,FBP-RB-17.png,0.35,1.2,46,0.75,,,,,,,,,,,,,,,,,,,,,,,,,,,,,,,,,,,,,,,,,,,,,
,,,,,V3_053,21,Female,2024-11-06_16h51.24.423,jersey_experiment_5_v3,2023.2.2,Win32,84.74576271,,,,,,,,,,,,,,,,174.2817,175.8344,175.8344,177.7522,return,0.2035,,43.48958333,0,32,32,26,1,FBP-PT-19.png,0.37,1.2,27,0.75,,,,,,,,,,,,,,,,,,,,,,,,,,,,,,,,,,,,,,,,,,,,,
,,,,,V3_053,21,Female,2024-11-06_16h51.24.423,jersey_experiment_5_v3,2023.2.2,Win32,84.74576271,,,,,,,,,,,,,,,,177.7525,179.3053,179.3053,180.5522,return,0.1881,,25.65104167,0,33,33,0,1,FBP-YG-71.png,0.35,1.2,1,0.75,,,,,,,,,,,,,,,,,,,,,,,,,,,,,,,,,,,,,,,,,,,,,
,,,,,V3_053,21,Female,2024-11-06_16h51.24.423,jersey_experiment_5_v3,2023.2.2,Win32,84.74576271,,,,,,,,,,,,,,,,180.5524,182.1053,182.1055,183.2229,return,0.099,,72.65625,0,34,34,18,1,FBP-PT-17.png,0.43,1.2,19,0.75,,,,,,,,,,,,,,,,,,,,,,,,,,,,,,,,,,,,,,,,,,,,,
,,,,,V3_053,21,Female,2024-11-06_16h51.24.423,jersey_experiment_5_v3,2023.2.2,Win32,84.74576271,,,,,,,,,,,,,,,,183.2231,184.7761,184.7761,185.5407,return,0.2071,,76.171875,0,35,35,28,1,FBP-PT-19.png,0.43,1.2,29,0.75,,,,,,,,,,,,,,,,,,,,,,,,,,,,,,,,,,,,,,,,,,,,,
,,,,,V3_053,21,Female,2024-11-06_16h51.24.423,jersey_experiment_5_v3,2023.2.2,Win32,84.74576271,,,,,,,,,,,,,,,,185.5409,187.0935,187.0936,187.7172,return,0.2503,,75.26041667,0,36,36,48,1,FBP-RB-17.png,0.43,1.2,49,0.75,,,,,,,,,,,,,,,,,,,,,,,,,,,,,,,,,,,,,,,,,,,,,
,,,,,V3_053,21,Female,2024-11-06_16h51.24.423,jersey_experiment_5_v3,2023.2.2,Win32,84.74576271,,,,,,,,,,,,,,,,187.7175,189.2701,189.2702,190.1879,return,0.118,,89.19270833,0,37,37,59,1,FBP-RB-19.png,0.45,1.2,60,0.75,,,,,,,,,,,,,,,,,,,,,,,,,,,,,,,,,,,,,,,,,,,,,
,,,,,V3_053,21,Female,2024-11-06_16h51.24.423,jersey_experiment_5_v3,2023.2.2,Win32,84.74576271,,,,,,,,,,,,,,,,190.1882,191.7409,191.741,193.635,return,0.1146,,38.02083333,0,38,38,17,1,FBP-PT-17.png,0.4,1.2,18,0.75,,,,,,,,,,,,,,,,,,,,,,,,,,,,,,,,,,,,,,,,,,,,,
,,,,,V3_053,21,Female,2024-11-06_16h51.24.423,jersey_experiment_5_v3,2023.2.2,Win32,84.74576271,,,,,,,,,,,,,,,,193.6352,195.1764,195.1765,197.2116,return,1.0147,,74.609375,0,39,39,9,1,FBP-YG-81.png,0.45,1.2,10,0.75,,,,,,,,,,,,,,,,,,,,,,,,,,,,,,,,,,,,,,,,,,,,,
,,,,,V3_053,21,Female,2024-11-06_16h51.24.423,jersey_experiment_5_v3,2023.2.2,Win32,84.74576271,,,,,,,,,,,,,,,,197.2119,198.5058,198.5059,199.8471,return,0.1342,,19.27083333,0,40,40,36,1,FBP-OG-18.png,0.37,1.2,37,0.5,,,,,,,,,,,,,,,,,,,,,,,,,,,,,,,,,,,,,,,,,,,,,
,,,,,V3_053,21,Female,2024-11-06_16h51.24.423,jersey_experiment_5_v3,2023.2.2,Win32,84.74576271,,,,,,,,,,,,,,,,199.8473,201.4001,201.4002,202.0706,return,0.2017,,19.27083333,0,41,41,10,1,FBP-YG-91.png,0.35,1.2,11,0.75,,,,,,,,,,,,,,,,,,,,,,,,,,,,,,,,,,,,,,,,,,,,,
,,,,,V3_053,21,Female,2024-11-06_16h51.24.423,jersey_experiment_5_v3,2023.2.2,Win32,84.74576271,,,,,,,,,,,,,,,,202.0709,203.6237,203.6237,205.8003,return,0.133,,69.27083333,0,42,42,22,1,FBP-PT-18.png,0.4,1.2,23,0.75,,,,,,,,,,,,,,,,,,,,,,,,,,,,,,,,,,,,,,,,,,,,,
,,,,,V3_053,21,Female,2024-11-06_16h51.24.423,jersey_experiment_5_v3,2023.2.2,Win32,84.74576271,,,,,,,,,,,,,,,,205.8006,207.0944,207.0944,207.6709,return,0.0753,,69.27083333,0,43,43,42,1,FBP-OG-19.png,0.4,1.2,43,0.5,,,,,,,,,,,,,,,,,,,,,,,,,,,,,,,,,,,,,,,,,,,,,
,,,,,V3_053,21,Female,2024-11-06_16h51.24.423,jersey_experiment_5_v3,2023.2.2,Win32,84.74576271,,,,,,,,,,,,,,,,207.6711,209.2123,209.2124,210.4591,return,0.1881,,78.515625,0,44,44,53,1,FBP-RB-18.png,0.43,1.2,54,0.75,,,,,,,,,,,,,,,,,,,,,,,,,,,,,,,,,,,,,,,,,,,,,
,,,,,V3_053,21,Female,2024-11-06_16h51.24.423,jersey_experiment_5_v3,2023.2.2,Win32,84.74576271,,,,,,,,,,,,,,,,210.4593,212.0122,212.0123,212.9417,return,0.1881,,91.66666667,0,45,45,49,1,FBP-RB-17.png,0.45,1.2,50,0.75,,,,,,,,,,,,,,,,,,,,,,,,,,,,,,,,,,,,,,,,,,,,,
,,,,,V3_053,21,Female,2024-11-06_16h51.24.423,jersey_experiment_5_v3,2023.2.2,Win32,84.74576271,,,,,,,,,,,,,,,,212.9419,214.2358,214.2358,217.9772,return,0.4025,,48.828125,0,46,46,31,1,FBP-OG-17.png,0.37,1.2,32,0.5,,,,,,,,,,,,,,,,,,,,,,,,,,,,,,,,,,,,,,,,,,,,,
,,,,,V3_053,21,Female,2024-11-06_16h51.24.423,jersey_experiment_5_v3,2023.2.2,Win32,84.74576271,,,,,,,,,,,,,,,,217.9776,219.5303,219.5303,221.6713,return,0.2267,,76.30208333,0,47,47,8,1,FBP-YG-81.png,0.43,1.2,9,0.75,,,,,,,,,,,,,,,,,,,,,,,,,,,,,,,,,,,,,,,,,,,,,
,,,,,V3_053,21,Female,2024-11-06_16h51.24.423,jersey_experiment_5_v3,2023.2.2,Win32,84.74576271,,,,,,,,,,,,,,,,221.6717,223.2243,223.2244,225.0833,return,0.1264,,48.56770833,0,48,48,12,1,FBP-YG-91.png,0.4,1.2,13,0.75,,,,,,,,,,,,,,,,,,,,,,,,,,,,,,,,,,,,,,,,,,,,,
,,,,,V3_053,21,Female,2024-11-06_16h51.24.423,jersey_experiment_5_v3,2023.2.2,Win32,84.74576271,,,,,,,,,,,,,,,,225.0835,226.6365,226.6365,227.6832,return,0.0908,,28.77604167,0,49,49,20,1,FBP-PT-18.png,0.35,1.2,21,0.75,,,,,,,,,,,,,,,,,,,,,,,,,,,,,,,,,,,,,,,,,,,,,
,,,,,V3_053,21,Female,2024-11-06_16h51.24.423,jersey_experiment_5_v3,2023.2.2,Win32,84.74576271,,,,,,,,,,,,,,,,227.6835,228.9776,228.9776,230.46,return,0.204,,30.59895833,0,50,50,30,1,FBP-OG-17.png,0.35,1.2,31,0.5,,,,,,,,,,,,,,,,,,,,,,,,,,,,,,,,,,,,,,,,,,,,,
,,,,,V3_053,21,Female,2024-11-06_16h51.24.423,jersey_experiment_5_v3,2023.2.2,Win32,84.74576271,,,,,,,,,,,,,,,,230.4602,231.7541,231.7542,233.3542,return,0.141,,42.83854167,0,51,51,41,1,FBP-OG-19.png,0.37,1.2,42,0.5,,,,,,,,,,,,,,,,,,,,,,,,,,,,,,,,,,,,,,,,,,,,,
,,,,,V3_053,21,Female,2024-11-06_16h51.24.423,jersey_experiment_5_v3,2023.2.2,Win32,84.74576271,,,,,,,,,,,,,,,,233.3544,234.9071,234.9072,236.0132,return,0.1803,,30.859375,0,52,52,15,1,FBP-PT-17.png,0.35,1.2,16,0.75,,,,,,,,,,,,,,,,,,,,,,,,,,,,,,,,,,,,,,,,,,,,,
,,,,,V3_053,21,Female,2024-11-06_16h51.24.423,jersey_experiment_5_v3,2023.2.2,Win32,84.74576271,,,,,,,,,,,,,,,,236.0134,237.566,237.566,240.2603,return,0.0855,,49.86979167,0,53,53,11,1,FBP-YG-91.png,0.37,1.2,12,0.75,,,,,,,,,,,,,,,,,,,,,,,,,,,,,,,,,,,,,,,,,,,,,
,,,,,V3_053,21,Female,2024-11-06_16h51.24.423,jersey_experiment_5_v3,2023.2.2,Win32,84.74576271,,,,,,,,,,,,,,,,240.2605,241.8133,241.8133,243.2722,return,0.1918,,26.04166667,0,54,54,46,1,FBP-RB-17.png,0.37,1.2,47,0.75,,,,,,,,,,,,,,,,,,,,,,,,,,,,,,,,,,,,,,,,,,,,,
,,,,,V3_053,21,Female,2024-11-06_16h51.24.423,jersey_experiment_5_v3,2023.2.2,Win32,84.74576271,,,,,,,,,,,,,,,,243.2725,244.5663,244.5664,246.99,return,0.2117,,98.4375,0,55,55,39,1,FBP-OG-18.png,0.45,1.2,40,0.5,,,,,,,,,,,,,,,,,,,,,,,,,,,,,,,,,,,,,,,,,,,,,
,,,,,V3_053,21,Female,2024-11-06_16h51.24.423,jersey_experiment_5_v3,2023.2.2,Win32,84.74576271,,,,,,,,,,,,,,,,246.9902,248.5431,248.5432,249.3665,return,0.0993,,89.84375,0,56,56,13,1,FBP-YG-91.png,0.43,1.2,14,0.75,,,,,,,,,,,,,,,,,,,,,,,,,,,,,,,,,,,,,,,,,,,,,
,,,,,V3_053,21,Female,2024-11-06_16h51.24.423,jersey_experiment_5_v3,2023.2.2,Win32,84.74576271,,,,,,,,,,,,,,,,249.3669,250.6607,250.6608,252.2843,return,0.0547,,84.375,0,57,57,44,1,FBP-OG-19.png,0.45,1.2,45,0.5,,,,,,,,,,,,,,,,,,,,,,,,,,,,,,,,,,,,,,,,,,,,,
,,,,,V3_053,21,Female,2024-11-06_16h51.24.423,jersey_experiment_5_v3,2023.2.2,Win32,84.74576271,,,,,,,,,,,,,,,,252.2846,253.8373,253.8373,256.9903,return,0.1177,,37.76041667,0,58,58,56,1,FBP-RB-19.png,0.37,1.2,57,0.75,,,,,,,,,,,,,,,,,,,,,,,,,,,,,,,,,,,,,,,,,,,,,
,,,,,V3_053,21,Female,2024-11-06_16h51.24.423,jersey_experiment_5_v3,2023.2.2,Win32,84.74576271,,,,,,,,,,,,,,,,256.9906,258.2845,258.2845,259.508,return,0.1118,,24.609375,0,59,59,35,1,FBP-OG-18.png,0.35,1.2,36,0.5,,,,,,,,,,,,,,,,,,,,,,,,,,,,,,,,,,,,,,,,,,,,,
,,,,,V3_053,21,Female,2024-11-06_16h51.24.423,jersey_experiment_5_v3,2023.2.2,Win32,84.74576271,,,,,,,,,,,,,,,,259.5107,261.061,261.061,264.3906,return,0.2521,,86.84895833,,,,,,FBP-YG-18.png,0.43,1.2,9,0.75,0,0,0,8,1,,,,,,,,,,,,,,,,,,,,,,,,,,,,,,,,,,,,,,,,
,,,,,V3_053,21,Female,2024-11-06_16h51.24.423,jersey_experiment_5_v3,2023.2.2,Win32,84.74576271,,,,,,,,,,,,,,,,264.3908,265.6847,265.6847,266.6612,return,0.1712,,86.71875,,,,,,FBP-OG-81.png,0.45,1.2,40,0.5,0,1,1,39,1,,,,,,,,,,,,,,,,,,,,,,,,,,,,,,,,,,,,,,,,
,,,,,V3_053,21,Female,2024-11-06_16h51.24.423,jersey_experiment_5_v3,2023.2.2,Win32,84.74576271,,,,,,,,,,,,,,,,266.6615,267.9554,267.9554,268.5673,return,0.2014,,86.71875,,,,,,FBP-OG-91.png,0.43,1.2,44,0.5,0,2,2,43,1,,,,,,,,,,,,,,,,,,,,,,,,,,,,,,,,,,,,,,,,
,,,,,V3_053,21,Female,2024-11-06_16h51.24.423,jersey_experiment_5_v3,2023.2.2,Win32,84.74576271,,,,,,,,,,,,,,,,268.5675,270.1203,270.1203,271.6732,return,0.0496,,68.22916667,,,,,,FBP-PT-71.png,0.37,1.2,17,0.75,0,3,3,16,1,,,,,,,,,,,,,,,,,,,,,,,,,,,,,,,,,,,,,,,,
,,,,,V3_053,21,Female,2024-11-06_16h51.24.423,jersey_experiment_5_v3,2023.2.2,Win32,84.74576271,,,,,,,,,,,,,,,,271.6735,273.2262,273.2262,274.2498,return,0.2033,,68.22916667,,,,,,FBP-PT-81.png,0.37,1.2,22,0.75,0,4,4,21,1,,,,,,,,,,,,,,,,,,,,,,,,,,,,,,,,,,,,,,,,
,,,,,V3_053,21,Female,2024-11-06_16h51.24.423,jersey_experiment_5_v3,2023.2.2,Win32,84.74576271,,,,,,,,,,,,,,,,274.2501,275.8027,275.8027,277.2615,return,0.094,,85.67708333,,,,,,FBP-RB-91.png,0.45,1.2,60,0.75,0,5,5,59,1,,,,,,,,,,,,,,,,,,,,,,,,,,,,,,,,,,,,,,,,
,,,,,V3_053,21,Female,2024-11-06_16h51.24.423,jersey_experiment_5_v3,2023.2.2,Win32,84.74576271,,,,,,,,,,,,,,,,277.2618,278.5559,278.556,280.3323,return,0.1268,,94.79166667,,,,,,FBP-OG-71.png,0.45,1.2,35,0.5,0,6,6,34,1,,,,,,,,,,,,,,,,,,,,,,,,,,,,,,,,,,,,,,,,
,,,,,V3_053,21,Female,2024-11-06_16h51.24.423,jersey_experiment_5_v3,2023.2.2,Win32,84.74576271,,,,,,,,,,,,,,,,280.3326,281.8855,281.8855,284.5089,return,0.9871,,56.38020833,,,,,,FBP-RB-81.png,0.37,1.2,52,0.75,0,7,7,51,1,,,,,,,,,,,,,,,,,,,,,,,,,,,,,,,,,,,,,,,,
,,,,,V3_053,21,Female,2024-11-06_16h51.24.423,jersey_experiment_5_v3,2023.2.2,Win32,84.74576271,,,,,,,,,,,,,,,,284.5092,286.062,286.062,286.615,return,0.146,,55.46875,,,,,,FBP-RB-91.png,0.37,1.2,57,0.75,0,8,8,56,1,,,,,,,,,,,,,,,,,,,,,,,,,,,,,,,,,,,,,,,,
,,,,,V3_053,21,Female,2024-11-06_16h51.24.423,jersey_experiment_5_v3,2023.2.2,Win32,84.74576271,,,,,,,,,,,,,,,,286.6152,288.1679,288.1679,290.0386,return,0.0875,,76.171875,,,,,,FBP-PT-71.png,0.4,1.2,18,0.75,0,9,9,17,1,,,,,,,,,,,,,,,,,,,,,,,,,,,,,,,,,,,,,,,,
,,,,,V3_053,21,Female,2024-11-06_16h51.24.423,jersey_experiment_5_v3,2023.2.2,Win32,84.74576271,,,,,,,,,,,,,,,,290.0388,291.5917,291.5918,292.5799,return,0.1458,,26.5625,,,,,,FBP-YG-19.png,0.35,1.2,11,0.75,0,10,10,10,1,,,,,,,,,,,,,,,,,,,,,,,,,,,,,,,,,,,,,,,,
,,,,,V3_053,21,Female,2024-11-06_16h51.24.423,jersey_experiment_5_v3,2023.2.2,Win32,84.74576271,,,,,,,,,,,,,,,,292.5801,293.874,293.874,294.98,return,0.028,,63.93229167,,,,,,FBP-OG-91.png,0.4,1.2,43,0.5,0,11,11,42,1,,,,,,,,,,,,,,,,,,,,,,,,,,,,,,,,,,,,,,,,
,,,,,V3_053,21,Female,2024-11-06_16h51.24.423,jersey_experiment_5_v3,2023.2.2,Win32,84.74576271,,,,,,,,,,,,,,,,294.9803,296.533,296.533,298.2977,return,0.1084,,49.73958333,,,,,,FBP-RB-71.png,0.37,1.2,47,0.75,0,12,12,46,1,,,,,,,,,,,,,,,,,,,,,,,,,,,,,,,,,,,,,,,,
,,,,,V3_053,21,Female,2024-11-06_16h51.24.423,jersey_experiment_5_v3,2023.2.2,Win32,84.74576271,,,,,,,,,,,,,,,,298.298,299.8507,299.8507,300.3918,return,0.275,,49.47916667,,,,,,FBP-RB-91.png,0.35,1.2,56,0.75,0,13,13,55,1,,,,,,,,,,,,,,,,,,,,,,,,,,,,,,,,,,,,,,,,
,,,,,V3_053,21,Female,2024-11-06_16h51.24.423,jersey_experiment_5_v3,2023.2.2,Win32,84.74576271,,,,,,,,,,,,,,,,300.3921,301.9449,301.945,303.7214,return,0.0584,,54.296875,,,,,,FBP-YG-18.png,0.37,1.2,7,0.75,0,14,14,6,1,,,,,,,,,,,,,,,,,,,,,,,,,,,,,,,,,,,,,,,,
,,,,,V3_053,21,Female,2024-11-06_16h51.24.423,jersey_experiment_5_v3,2023.2.2,Win32,84.74576271,,,,,,,,,,,,,,,,303.7217,305.2744,305.2744,306.0274,return,0.1281,,46.484375,,,,,,FBP-YG-17.png,0.35,1.2,1,0.75,0,15,15,0,1,,,,,,,,,,,,,,,,,,,,,,,,,,,,,,,,,,,,,,,,
,,,,,V3_053,21,Female,2024-11-06_16h51.24.423,jersey_experiment_5_v3,2023.2.2,Win32,84.74576271,,,,,,,,,,,,,,,,306.0277,307.5806,307.5807,308.9099,return,0.1082,,69.79166667,,,,,,FBP-YG-19.png,0.4,1.2,13,0.75,0,16,16,12,1,,,,,,,,,,,,,,,,,,,,,,,,,,,,,,,,,,,,,,,,
,,,,,V3_053,21,Female,2024-11-06_16h51.24.423,jersey_experiment_5_v3,2023.2.2,Win32,84.74576271,,,,,,,,,,,,,,,,308.9102,310.4627,310.4628,311.6276,return,0.1647,,83.984375,,,,,,FBP-RB-81.png,0.45,1.2,55,0.75,0,17,17,54,1,,,,,,,,,,,,,,,,,,,,,,,,,,,,,,,,,,,,,,,,
,,,,,V3_053,21,Female,2024-11-06_16h51.24.423,jersey_experiment_5_v3,2023.2.2,Win32,84.74576271,,,,,,,,,,,,,,,,311.6278,313.1806,313.1807,315.0043,return,0.2353,,75,,,,,,FBP-YG-19.png,0.37,1.2,12,0.75,0,18,18,11,1,,,,,,,,,,,,,,,,,,,,,,,,,,,,,,,,,,,,,,,,
,,,,,V3_053,21,Female,2024-11-06_16h51.24.423,jersey_experiment_5_v3,2023.2.2,Win32,84.74576271,,,,,,,,,,,,,,,,315.0045,316.5574,316.5575,318.1572,return,0.1649,,98.56770833,,,,,,FBP-PT-91.png,0.45,1.2,30,0.75,0,19,19,29,1,,,,,,,,,,,,,,,,,,,,,,,,,,,,,,,,,,,,,,,,
,,,,,V3_053,21,Female,2024-11-06_16h51.24.423,jersey_experiment_5_v3,2023.2.2,Win32,84.74576271,,,,,,,,,,,,,,,,318.1574,319.7104,319.7105,321.2398,return,0.0861,,73.4375,,,,,,FBP-YG-18.png,0.4,1.2,8,0.75,0,20,20,7,1,,,,,,,,,,,,,,,,,,,,,,,,,,,,,,,,,,,,,,,,
,,,,,V3_053,21,Female,2024-11-06_16h51.24.423,jersey_experiment_5_v3,2023.2.2,Win32,84.74576271,,,,,,,,,,,,,,,,321.24,322.5338,322.5338,325.0162,return,0.1525,,56.90104167,,,,,,FBP-OG-81.png,0.35,1.2,36,0.5,0,21,21,35,1,,,,,,,,,,,,,,,,,,,,,,,,,,,,,,,,,,,,,,,,
,,,,,V3_053,21,Female,2024-11-06_16h51.24.423,jersey_experiment_5_v3,2023.2.2,Win32,84.74576271,,,,,,,,,,,,,,,,325.0164,326.3104,326.3105,327.4751,return,0.1458,,42.31770833,,,,,,FBP-OG-91.png,0.37,1.2,42,0.5,0,22,22,41,1,,,,,,,,,,,,,,,,,,,,,,,,,,,,,,,,,,,,,,,,
,,,,,V3_053,21,Female,2024-11-06_16h51.24.423,jersey_experiment_5_v3,2023.2.2,Win32,84.74576271,,,,,,,,,,,,,,,,327.4754,329.0284,329.0284,330.2989,return,0.1312,,95.96354167,,,,,,FBP-YG-18.png,0.45,1.2,10,0.75,0,23,23,9,1,,,,,,,,,,,,,,,,,,,,,,,,,,,,,,,,,,,,,,,,
,,,,,V3_053,21,Female,2024-11-06_16h51.24.423,jersey_experiment_5_v3,2023.2.2,Win32,84.74576271,,,,,,,,,,,,,,,,330.2992,331.593,331.5931,332.5814,return,0.0261,,35.28645833,,,,,,FBP-OG-91.png,0.35,1.2,41,0.5,0,24,24,40,1,,,,,,,,,,,,,,,,,,,,,,,,,,,,,,,,,,,,,,,,
,,,,,V3_053,21,Female,2024-11-06_16h51.24.423,jersey_experiment_5_v3,2023.2.2,Win32,84.74576271,,,,,,,,,,,,,,,,332.5817,334.1342,334.1342,336.5814,return,0.8043,,83.46354167,,,,,,FBP-PT-81.png,0.4,1.2,23,0.75,0,25,25,22,1,,,,,,,,,,,,,,,,,,,,,,,,,,,,,,,,,,,,,,,,
,,,,,V3_053,21,Female,2024-11-06_16h51.24.423,jersey_experiment_5_v3,2023.2.2,Win32,84.74576271,,,,,,,,,,,,,,,,336.5817,338.1345,338.1345,339.4521,return,0.1076,,95.57291667,,,,,,FBP-RB-81.png,0.43,1.2,54,0.75,0,26,26,53,1,,,,,,,,,,,,,,,,,,,,,,,,,,,,,,,,,,,,,,,,
,,,,,V3_053,21,Female,2024-11-06_16h51.24.423,jersey_experiment_5_v3,2023.2.2,Win32,84.74576271,,,,,,,,,,,,,,,,339.4524,341.0052,341.0053,341.9581,return,0.1704,,76.43229167,,,,,,FBP-PT-91.png,0.4,1.2,28,0.75,0,27,27,27,1,,,,,,,,,,,,,,,,,,,,,,,,,,,,,,,,,,,,,,,,
,,,,,V3_053,21,Female,2024-11-06_16h51.24.423,jersey_experiment_5_v3,2023.2.2,Win32,84.74576271,,,,,,,,,,,,,,,,341.9584,343.5112,343.5112,344.4405,return,0.3532,,76.43229167,,,,,,FBP-PT-91.png,0.37,1.2,27,0.75,0,28,28,26,1,,,,,,,,,,,,,,,,,,,,,,,,,,,,,,,,,,,,,,,,
,,,,,V3_053,21,Female,2024-11-06_16h51.24.423,jersey_experiment_5_v3,2023.2.2,Win32,84.74576271,,,,,,,,,,,,,,,,344.4407,345.9935,345.9936,346.6759,return,0.1843,,76.43229167,,,,,,FBP-PT-81.png,0.35,1.2,21,0.75,0,29,29,20,1,,,,,,,,,,,,,,,,,,,,,,,,,,,,,,,,,,,,,,,,
,,,,,V3_053,21,Female,2024-11-06_16h51.24.423,jersey_experiment_5_v3,2023.2.2,Win32,84.74576271,,,,,,,,,,,,,,,,346.6762,348.2291,348.2291,349.6996,return,0.0651,,94.79166667,,,,,,FBP-RB-91.png,0.43,1.2,59,0.75,0,30,30,58,1,,,,,,,,,,,,,,,,,,,,,,,,,,,,,,,,,,,,,,,,
,,,,,V3_053,21,Female,2024-11-06_16h51.24.423,jersey_experiment_5_v3,2023.2.2,Win32,84.74576271,,,,,,,,,,,,,,,,349.6999,350.9938,350.9938,352.2055,return,0.1412,,86.45833333,,,,,,FBP-OG-71.png,0.43,1.2,34,0.5,0,31,31,33,1,,,,,,,,,,,,,,,,,,,,,,,,,,,,,,,,,,,,,,,,
,,,,,V3_053,21,Female,2024-11-06_16h51.24.423,jersey_experiment_5_v3,2023.2.2,Win32,84.74576271,,,,,,,,,,,,,,,,352.2058,353.7586,353.7586,355.1822,return,0.1178,,25.390625,,,,,,FBP-YG-18.png,0.35,1.2,6,0.75,0,32,32,5,1,,,,,,,,,,,,,,,,,,,,,,,,,,,,,,,,,,,,,,,,
,,,,,V3_053,21,Female,2024-11-06_16h51.24.423,jersey_experiment_5_v3,2023.2.2,Win32,84.74576271,,,,,,,,,,,,,,,,355.1824,356.7353,356.7354,357.8647,return,0.1308,,75.26041667,,,,,,FBP-PT-71.png,0.43,1.2,19,0.75,0,33,33,18,1,,,,,,,,,,,,,,,,,,,,,,,,,,,,,,,,,,,,,,,,
,,,,,V3_053,21,Female,2024-11-06_16h51.24.423,jersey_experiment_5_v3,2023.2.2,Win32,84.74576271,,,,,,,,,,,,,,,,357.8649,359.4177,359.4177,361.0648,return,0.1206,,43.61979167,,,,,,FBP-PT-71.png,0.35,1.2,16,0.75,0,34,34,15,1,,,,,,,,,,,,,,,,,,,,,,,,,,,,,,,,,,,,,,,,
,,,,,V3_053,21,Female,2024-11-06_16h51.24.423,jersey_experiment_5_v3,2023.2.2,Win32,84.74576271,,,,,,,,,,,,,,,,361.065,362.3588,362.3588,363.7001,return,0.0311,,96.484375,,,,,,FBP-OG-91.png,0.45,1.2,45,0.5,0,35,35,44,1,,,,,,,,,,,,,,,,,,,,,,,,,,,,,,,,,,,,,,,,
,,,,,V3_053,21,Female,2024-11-06_16h51.24.423,jersey_experiment_5_v3,2023.2.2,Win32,84.74576271,,,,,,,,,,,,,,,,363.7004,365.2532,365.2533,366.0532,return,0.0772,,74.609375,,,,,,FBP-RB-91.png,0.4,1.2,58,0.75,0,36,36,57,1,,,,,,,,,,,,,,,,,,,,,,,,,,,,,,,,,,,,,,,,
,,,,,V3_053,21,Female,2024-11-06_16h51.24.423,jersey_experiment_5_v3,2023.2.2,Win32,84.74576271,,,,,,,,,,,,,,,,366.0534,367.6061,367.6061,368.1002,return,0.0856,,74.609375,,,,,,FBP-RB-81.png,0.4,1.2,53,0.75,0,37,37,52,1,,,,,,,,,,,,,,,,,,,,,,,,,,,,,,,,,,,,,,,,
,,,,,V3_053,21,Female,2024-11-06_16h51.24.423,jersey_experiment_5_v3,2023.2.2,Win32,84.74576271,,,,,,,,,,,,,,,,368.1005,369.3945,369.3945,369.9238,return,0.1608,,74.609375,,,,,,FBP-OG-81.png,0.4,1.2,38,0.5,0,38,38,37,1,,,,,,,,,,,,,,,,,,,,,,,,,,,,,,,,,,,,,,,,
,,,,,V3_053,21,Female,2024-11-06_16h51.24.423,jersey_experiment_5_v3,2023.2.2,Win32,84.74576271,,,,,,,,,,,,,,,,369.9242,371.4769,371.477,373.5241,return,0.1,,75.91145833,,,,,,FBP-RB-71.png,0.43,1.2,49,0.75,0,39,39,48,1,,,,,,,,,,,,,,,,,,,,,,,,,,,,,,,,,,,,,,,,
,,,,,V3_053,21,Female,2024-11-06_16h51.24.423,jersey_experiment_5_v3,2023.2.2,Win32,84.74576271,,,,,,,,,,,,,,,,373.5242,375.077,375.077,376.1241,return,0.1733,,82.16145833,,,,,,FBP-YG-19.png,0.43,1.2,14,0.75,0,40,40,13,1,,,,,,,,,,,,,,,,,,,,,,,,,,,,,,,,,,,,,,,,
,,,,,V3_053,21,Female,2024-11-06_16h51.24.423,jersey_experiment_5_v3,2023.2.2,Win32,84.74576271,,,,,,,,,,,,,,,,376.1243,377.677,377.6771,378.7007,return,0.0607,,83.85416667,,,,,,FBP-YG-17.png,0.43,1.2,4,0.75,0,41,41,3,1,,,,,,,,,,,,,,,,,,,,,,,,,,,,,,,,,,,,,,,,
,,,,,V3_053,21,Female,2024-11-06_16h51.24.423,jersey_experiment_5_v3,2023.2.2,Win32,84.74576271,,,,,,,,,,,,,,,,378.7009,380.2537,380.2537,381.3713,return,0.1179,,83.72395833,,,,,,FBP-PT-81.png,0.45,1.2,25,0.75,0,42,42,24,1,,,,,,,,,,,,,,,,,,,,,,,,,,,,,,,,,,,,,,,,
,,,,,V3_053,21,Female,2024-11-06_16h51.24.423,jersey_experiment_5_v3,2023.2.2,Win32,84.74576271,,,,,,,,,,,,,,,,381.3715,382.6655,382.6655,385.5715,return,0.7728,,61.84895833,,,,,,FBP-OG-71.png,0.37,1.2,32,0.5,0,43,43,31,1,,,,,,,,,,,,,,,,,,,,,,,,,,,,,,,,,,,,,,,,
,,,,,V3_053,21,Female,2024-11-06_16h51.24.423,jersey_experiment_5_v3,2023.2.2,Win32,84.74576271,,,,,,,,,,,,,,,,385.5717,387.1245,387.1246,388.1951,return,0.1024,,48.4375,,,,,,FBP-RB-71.png,0.35,1.2,46,0.75,0,44,44,45,1,,,,,,,,,,,,,,,,,,,,,,,,,,,,,,,,,,,,,,,,
,,,,,V3_053,21,Female,2024-11-06_16h51.24.423,jersey_experiment_5_v3,2023.2.2,Win32,84.74576271,,,,,,,,,,,,,,,,388.1953,389.7483,389.7484,390.7011,return,0.0373,,93.22916667,,,,,,FBP-YG-19.png,0.45,1.2,15,0.75,0,45,45,14,1,,,,,,,,,,,,,,,,,,,,,,,,,,,,,,,,,,,,,,,,
,,,,,V3_053,21,Female,2024-11-06_16h51.24.423,jersey_experiment_5_v3,2023.2.2,Win32,84.74576271,,,,,,,,,,,,,,,,390.7014,392.2541,392.2541,395.7719,return,1.8449,,91.40625,,,,,,FBP-PT-81.png,0.43,1.2,24,0.75,0,46,46,23,1,,,,,,,,,,,,,,,,,,,,,,,,,,,,,,,,,,,,,,,,
,,,,,V3_053,21,Female,2024-11-06_16h51.24.423,jersey_experiment_5_v3,2023.2.2,Win32,84.74576271,,,,,,,,,,,,,,,,395.7722,397.3249,397.325,400.1955,return,0.1493,,66.40625,,,,,,FBP-YG-17.png,0.37,1.2,2,0.75,0,47,47,1,1,,,,,,,,,,,,,,,,,,,,,,,,,,,,,,,,,,,,,,,,
,,,,,V3_053,21,Female,2024-11-06_16h51.24.423,jersey_experiment_5_v3,2023.2.2,Win32,84.74576271,,,,,,,,,,,,,,,,400.1957,401.7487,401.7487,402.7956,return,0.0944,,43.61979167,,,,,,FBP-PT-91.png,0.35,1.2,26,0.75,0,48,48,25,1,,,,,,,,,,,,,,,,,,,,,,,,,,,,,,,,,,,,,,,,
,,,,,V3_053,21,Female,2024-11-06_16h51.24.423,jersey_experiment_5_v3,2023.2.2,Win32,84.74576271,,,,,,,,,,,,,,,,402.7959,404.0898,404.0898,405.8781,return,0.0744,,75.52083333,,,,,,FBP-OG-71.png,0.4,1.2,33,0.5,0,49,49,32,1,,,,,,,,,,,,,,,,,,,,,,,,,,,,,,,,,,,,,,,,
,,,,,V3_053,21,Female,2024-11-06_16h51.24.423,jersey_experiment_5_v3,2023.2.2,Win32,84.74576271,,,,,,,,,,,,,,,,405.8784,407.4312,407.4313,408.4783,return,0.0471,,98.4375,,,,,,FBP-RB-71.png,0.45,1.2,50,0.75,0,50,50,49,1,,,,,,,,,,,,,,,,,,,,,,,,,,,,,,,,,,,,,,,,
,,,,,V3_053,21,Female,2024-11-06_16h51.24.423,jersey_experiment_5_v3,2023.2.2,Win32,84.74576271,,,,,,,,,,,,,,,,408.4785,410.0313,410.0313,412.0077,return,0.1083,,73.95833333,,,,,,FBP-RB-71.png,0.4,1.2,48,0.75,0,51,51,47,1,,,,,,,,,,,,,,,,,,,,,,,,,,,,,,,,,,,,,,,,
,,,,,V3_053,21,Female,2024-11-06_16h51.24.423,jersey_experiment_5_v3,2023.2.2,Win32,84.74576271,,,,,,,,,,,,,,,,412.008,413.5607,413.5607,414.3725,return,0.2073,,73.828125,,,,,,FBP-PT-91.png,0.43,1.2,29,0.75,0,52,52,28,1,,,,,,,,,,,,,,,,,,,,,,,,,,,,,,,,,,,,,,,,
,,,,,V3_053,21,Female,2024-11-06_16h51.24.423,jersey_experiment_5_v3,2023.2.2,Win32,84.74576271,,,,,,,,,,,,,,,,414.3727,415.6666,415.6667,418.0198,return,0.0902,,60.28645833,,,,,,FBP-OG-81.png,0.37,1.2,37,0.5,0,53,53,36,1,,,,,,,,,,,,,,,,,,,,,,,,,,,,,,,,,,,,,,,,
,,,,,V3_053,21,Female,2024-11-06_16h51.24.423,jersey_experiment_5_v3,2023.2.2,Win32,84.74576271,,,,,,,,,,,,,,,,418.02,419.5728,419.5728,421.7258,return,0.7155,,73.95833333,,,,,,FBP-YG-17.png,0.4,1.2,3,0.75,0,54,54,2,1,,,,,,,,,,,,,,,,,,,,,,,,,,,,,,,,,,,,,,,,
,,,,,V3_053,21,Female,2024-11-06_16h51.24.423,jersey_experiment_5_v3,2023.2.2,Win32,84.74576271,,,,,,,,,,,,,,,,421.7262,423.0199,423.0199,424.267,return,0.2678,,39.58333333,,,,,,FBP-OG-71.png,0.35,1.2,31,0.5,0,55,55,30,1,,,,,,,,,,,,,,,,,,,,,,,,,,,,,,,,,,,,,,,,
,,,,,V3_053,21,Female,2024-11-06_16h51.24.423,jersey_experiment_5_v3,2023.2.2,Win32,84.74576271,,,,,,,,,,,,,,,,424.2672,425.8201,425.8201,426.8201,return,0.0663,,89.97395833,,,,,,FBP-YG-17.png,0.45,1.2,5,0.75,0,56,56,4,1,,,,,,,,,,,,,,,,,,,,,,,,,,,,,,,,,,,,,,,,
,,,,,V3_053,21,Female,2024-11-06_16h51.24.423,jersey_experiment_5_v3,2023.2.2,Win32,84.74576271,,,,,,,,,,,,,,,,426.8203,428.1142,428.1142,428.6437,return,0.1131,,89.58333333,,,,,,FBP-OG-81.png,0.43,1.2,39,0.5,0,57,57,38,1,,,,,,,,,,,,,,,,,,,,,,,,,,,,,,,,,,,,,,,,
,,,,,V3_053,21,Female,2024-11-06_16h51.24.423,jersey_experiment_5_v3,2023.2.2,Win32,84.74576271,,,,,,,,,,,,,,,,428.6439,430.1966,430.1967,431.738,return,0.774,,94.66145833,,,,,,FBP-PT-71.png,0.45,1.2,20,0.75,0,58,58,19,1,,,,,,,,,,,,,,,,,,,,,,,,,,,,,,,,,,,,,,,,
,,,,,V3_053,21,Female,2024-11-06_16h51.24.423,jersey_experiment_5_v3,2023.2.2,Win32,84.74576271,,,,,,,,,,,,,,,,431.7382,433.291,433.291,434.538,return,0.0835,,24.73958333,,,,,,FBP-RB-81.png,0.35,1.2,51,0.75,0,59,59,50,1,,,,,,,,,,,,,,,,,,,,,,,,,,,,,,,,,,,,,,,,
,,,,,V3_053,21,Female,2024-11-06_16h51.24.423,jersey_experiment_5_v3,2023.2.2,Win32,84.74576271,,,,,,,,,,,,,,,,,,,,,,,,,,,,,,,,,,,,,,,434.5382,554.5307,,,,,,,,,,,,,,,,,,,,,,,,,,,,,,,,,,,,,,
,,,,,V3_053,21,Female,2024-11-06_16h51.24.423,jersey_experiment_5_v3,2023.2.2,Win32,84.74576271,,,,,,,,,,,,,,,,,,,,,,,,,,,,,,,,,,,,,,,,,554.5309,557.0838,return,2.5409,,,,,,,,,,,,,,,,,,,,,,,,,,,,,,,,,,
,,,,,V3_053,21,Female,2024-11-06_16h51.24.423,jersey_experiment_5_v3,2023.2.2,Win32,84.74576271,,,,,,,,,,,,,,,,557.0855,558.3777,558.3778,561.178,return,1.2841,,73.95833333,,,,,,FBP-YG-91.png,0.43,1.2,14,0.5,,,,,,,,,,,,,0,0,0,13,1,,,,,,,,,,,,,,,,,,,,,,,,,,,,
,,,,,V3_053,21,Female,2024-11-06_16h51.24.423,jersey_experiment_5_v3,2023.2.2,Win32,84.74576271,,,,,,,,,,,,,,,,561.1782,562.4721,562.4721,564.484,return,0.1956,,74.47916667,,,,,,FBP-PT-18.png,0.45,1.2,25,0.5,,,,,,,,,,,,,0,1,1,24,1,,,,,,,,,,,,,,,,,,,,,,,,,,,,
,,,,,V3_053,21,Female,2024-11-06_16h51.24.423,jersey_experiment_5_v3,2023.2.2,Win32,84.74576271,,,,,,,,,,,,,,,,564.4843,565.7781,565.7781,567.637,return,0.2184,,31.90104167,,,,,,FBP-YG-81.png,0.35,1.2,6,0.5,,,,,,,,,,,,,0,2,2,5,1,,,,,,,,,,,,,,,,,,,,,,,,,,,,
,,,,,V3_053,21,Female,2024-11-06_16h51.24.423,jersey_experiment_5_v3,2023.2.2,Win32,84.74576271,,,,,,,,,,,,,,,,567.6372,568.9312,568.9312,570.8725,return,0.0953,,45.18229167,,,,,,FBP-PT-18.png,0.37,1.2,22,0.5,,,,,,,,,,,,,0,3,3,21,1,,,,,,,,,,,,,,,,,,,,,,,,,,,,
,,,,,V3_053,21,Female,2024-11-06_16h51.24.423,jersey_experiment_5_v3,2023.2.2,Win32,84.74576271,,,,,,,,,,,,,,,,570.8728,572.4254,572.4254,574.1667,return,0.2984,,26.171875,,,,,,FBP-OG-18.png,0.37,1.2,37,0.75,,,,,,,,,,,,,0,4,4,36,1,,,,,,,,,,,,,,,,,,,,,,,,,,,,
,,,,,V3_053,21,Female,2024-11-06_16h51.24.423,jersey_experiment_5_v3,2023.2.2,Win32,84.74576271,,,,,,,,,,,,,,,,574.167,575.4609,575.4609,577.1315,return,0.0271,,65.49479167,,,,,,FBP-PT-17.png,0.4,1.2,18,0.5,,,,,,,,,,,,,0,5,5,17,1,,,,,,,,,,,,,,,,,,,,,,,,,,,,
,,,,,V3_053,21,Female,2024-11-06_16h51.24.423,jersey_experiment_5_v3,2023.2.2,Win32,84.74576271,,,,,,,,,,,,,,,,577.1317,578.6847,578.6847,579.6728,return,0.1883,,82.29166667,,,,,,FBP-OG-17.png,0.43,1.2,34,0.75,,,,,,,,,,,,,0,6,6,33,1,,,,,,,,,,,,,,,,,,,,,,,,,,,,
,,,,,V3_053,21,Female,2024-11-06_16h51.24.423,jersey_experiment_5_v3,2023.2.2,Win32,84.74576271,,,,,,,,,,,,,,,,579.673,581.2257,581.2257,582.6493,return,0.4962,,78.125,,,,,,FBP-OG-19.png,0.43,1.2,44,0.75,,,,,,,,,,,,,0,7,7,43,1,,,,,,,,,,,,,,,,,,,,,,,,,,,,
,,,,,V3_053,21,Female,2024-11-06_16h51.24.423,jersey_experiment_5_v3,2023.2.2,Win32,84.74576271,,,,,,,,,,,,,,,,582.6496,584.2025,584.2025,585.32,return,0.2504,,35.546875,,,,,,FBP-OG-17.png,0.37,1.2,32,0.75,,,,,,,,,,,,,0,8,8,31,1,,,,,,,,,,,,,,,,,,,,,,,,,,,,
,,,,,V3_053,21,Female,2024-11-06_16h51.24.423,jersey_experiment_5_v3,2023.2.2,Win32,84.74576271,,,,,,,,,,,,,,,,585.3203,586.8732,586.8732,588.5201,return,0.4462,,84.89583333,,,,,,FBP-OG-19.png,0.45,1.2,45,0.75,,,,,,,,,,,,,0,9,9,44,1,,,,,,,,,,,,,,,,,,,,,,,,,,,,
,,,,,V3_053,21,Female,2024-11-06_16h51.24.423,jersey_experiment_5_v3,2023.2.2,Win32,84.74576271,,,,,,,,,,,,,,,,588.5204,590.0731,590.0731,591.132,return,0.0154,,68.359375,,,,,,FBP-OG-18.png,0.4,1.2,38,0.75,,,,,,,,,,,,,0,10,10,37,1,,,,,,,,,,,,,,,,,,,,,,,,,,,,
,,,,,V3_053,21,Female,2024-11-06_16h51.24.423,jersey_experiment_5_v3,2023.2.2,Win32,84.74576271,,,,,,,,,,,,,,,,591.1322,592.4262,592.4262,594.0851,return,0.4769,,33.46354167,,,,,,FBP-YG-91.png,0.35,1.2,11,0.5,,,,,,,,,,,,,0,11,11,10,1,,,,,,,,,,,,,,,,,,,,,,,,,,,,
,,,,,V3_053,21,Female,2024-11-06_16h51.24.423,jersey_experiment_5_v3,2023.2.2,Win32,84.74576271,,,,,,,,,,,,,,,,594.0854,595.6382,595.6382,596.8381,return,0.1229,,98.95833333,,,,,,FBP-OG-17.png,0.45,1.2,35,0.75,,,,,,,,,,,,,0,12,12,34,1,,,,,,,,,,,,,,,,,,,,,,,,,,,,
,,,,,V3_053,21,Female,2024-11-06_16h51.24.423,jersey_experiment_5_v3,2023.2.2,Win32,84.74576271,,,,,,,,,,,,,,,,596.8383,598.391,598.391,599.45,return,0.2839,,77.34375,,,,,,FBP-OG-17.png,0.4,1.2,33,0.75,,,,,,,,,,,,,0,13,13,32,1,,,,,,,,,,,,,,,,,,,,,,,,,,,,
,,,,,V3_053,21,Female,2024-11-06_16h51.24.423,jersey_experiment_5_v3,2023.2.2,Win32,84.74576271,,,,,,,,,,,,,,,,599.4502,600.7441,600.7441,602.3794,return,0.2097,,96.875,,,,,,FBP-RB-19.png,0.45,1.2,60,0.5,,,,,,,,,,,,,0,14,14,59,1,,,,,,,,,,,,,,,,,,,,,,,,,,,,
,,,,,V3_053,21,Female,2024-11-06_16h51.24.423,jersey_experiment_5_v3,2023.2.2,Win32,84.74576271,,,,,,,,,,,,,,,,602.3796,603.6736,603.6737,604.8737,return,0.11,,82.68229167,,,,,,FBP-RB-18.png,0.4,1.2,53,0.5,,,,,,,,,,,,,0,15,15,52,1,,,,,,,,,,,,,,,,,,,,,,,,,,,,
,,,,,V3_053,21,Female,2024-11-06_16h51.24.423,jersey_experiment_5_v3,2023.2.2,Win32,84.74576271,,,,,,,,,,,,,,,,604.8739,606.1678,606.1679,611.1914,return,3.755,,54.6875,,,,,,FBP-RB-19.png,0.37,1.2,57,0.5,,,,,,,,,,,,,0,16,16,56,1,,,,,,,,,,,,,,,,,,,,,,,,,,,,
,,,,,V3_053,21,Female,2024-11-06_16h51.24.423,jersey_experiment_5_v3,2023.2.2,Win32,84.74576271,,,,,,,,,,,,,,,,611.1917,612.7445,612.7445,613.7682,return,0.072,,95.05208333,,,,,,FBP-OG-18.png,0.45,1.2,40,0.75,,,,,,,,,,,,,0,17,17,39,1,,,,,,,,,,,,,,,,,,,,,,,,,,,,
,,,,,V3_053,21,Female,2024-11-06_16h51.24.423,jersey_experiment_5_v3,2023.2.2,Win32,84.74576271,,,,,,,,,,,,,,,,613.7684,615.3213,615.3214,616.9565,return,0.1521,,27.08333333,,,,,,FBP-OG-17.png,0.35,1.2,31,0.75,,,,,,,,,,,,,0,18,18,30,1,,,,,,,,,,,,,,,,,,,,,,,,,,,,
,,,,,V3_053,21,Female,2024-11-06_16h51.24.423,jersey_experiment_5_v3,2023.2.2,Win32,84.74576271,,,,,,,,,,,,,,,,616.9568,618.2507,618.2508,619.6389,return,0.0748,,38.80208333,,,,,,FBP-PT-17.png,0.35,1.2,16,0.5,,,,,,,,,,,,,0,19,19,15,1,,,,,,,,,,,,,,,,,,,,,,,,,,,,
,,,,,V3_053,21,Female,2024-11-06_16h51.24.423,jersey_experiment_5_v3,2023.2.2,Win32,84.74576271,,,,,,,,,,,,,,,,619.6393,620.9331,620.9331,622.4507,return,0.1712,,87.5,,,,,,FBP-YG-71.png,0.45,1.2,5,0.5,,,,,,,,,,,,,0,20,20,4,1,,,,,,,,,,,,,,,,,,,,,,,,,,,,
,,,,,V3_053,21,Female,2024-11-06_16h51.24.423,jersey_experiment_5_v3,2023.2.2,Win32,84.74576271,,,,,,,,,,,,,,,,622.4509,623.745,623.745,624.5685,return,0.0853,,92.31770833,,,,,,FBP-PT-19.png,0.45,1.2,30,0.5,,,,,,,,,,,,,0,21,21,29,1,,,,,,,,,,,,,,,,,,,,,,,,,,,,
,,,,,V3_053,21,Female,2024-11-06_16h51.24.423,jersey_experiment_5_v3,2023.2.2,Win32,84.74576271,,,,,,,,,,,,,,,,624.5687,625.8627,625.8627,627.6275,return,0.1886,,61.328125,,,,,,FBP-PT-19.png,0.35,1.2,26,0.5,,,,,,,,,,,,,0,22,22,25,1,,,,,,,,,,,,,,,,,,,,,,,,,,,,
,,,,,V3_053,21,Female,2024-11-06_16h51.24.423,jersey_experiment_5_v3,2023.2.2,Win32,84.74576271,,,,,,,,,,,,,,,,627.6278,628.9216,628.9217,629.9099,return,0.1584,,86.06770833,,,,,,FBP-YG-71.png,0.43,1.2,4,0.5,,,,,,,,,,,,,0,23,23,3,1,,,,,,,,,,,,,,,,,,,,,,,,,,,,
,,,,,V3_053,21,Female,2024-11-06_16h51.24.423,jersey_experiment_5_v3,2023.2.2,Win32,84.74576271,,,,,,,,,,,,,,,,629.9101,631.204,631.2041,632.1335,return,0.053,,68.88020833,,,,,,FBP-YG-71.png,0.4,1.2,3,0.5,,,,,,,,,,,,,0,24,24,2,1,,,,,,,,,,,,,,,,,,,,,,,,,,,,
,,,,,V3_053,21,Female,2024-11-06_16h51.24.423,jersey_experiment_5_v3,2023.2.2,Win32,84.74576271,,,,,,,,,,,,,,,,632.1338,633.4276,633.4276,634.5335,return,0.2027,,72.78645833,,,,,,FBP-YG-81.png,0.4,1.2,8,0.5,,,,,,,,,,,,,0,25,25,7,1,,,,,,,,,,,,,,,,,,,,,,,,,,,,
,,,,,V3_053,21,Female,2024-11-06_16h51.24.423,jersey_experiment_5_v3,2023.2.2,Win32,84.74576271,,,,,,,,,,,,,,,,634.5338,636.0867,636.0867,637.2042,return,0.0037,,61.06770833,,,,,,FBP-OG-18.png,0.35,1.2,36,0.75,,,,,,,,,,,,,0,26,26,35,1,,,,,,,,,,,,,,,,,,,,,,,,,,,,
,,,,,V3_053,21,Female,2024-11-06_16h51.24.423,jersey_experiment_5_v3,2023.2.2,Win32,84.74576271,,,,,,,,,,,,,,,,637.2044,638.4984,638.4985,639.8161,return,0.0723,,75.13020833,,,,,,FBP-YG-91.png,0.4,1.2,13,0.5,,,,,,,,,,,,,0,27,27,12,1,,,,,,,,,,,,,,,,,,,,,,,,,,,,
,,,,,V3_053,21,Female,2024-11-06_16h51.24.423,jersey_experiment_5_v3,2023.2.2,Win32,84.74576271,,,,,,,,,,,,,,,,639.8164,641.1102,641.1103,642.3573,return,0.1196,,68.22916667,,,,,,FBP-RB-18.png,0.35,1.2,51,0.5,,,,,,,,,,,,,0,28,28,50,1,,,,,,,,,,,,,,,,,,,,,,,,,,,,
,,,,,V3_053,21,Female,2024-11-06_16h51.24.423,jersey_experiment_5_v3,2023.2.2,Win32,84.74576271,,,,,,,,,,,,,,,,642.3575,643.6514,643.6515,645.0516,return,0.0578,,32.421875,,,,,,FBP-RB-17.png,0.35,1.2,46,0.5,,,,,,,,,,,,,0,29,29,45,1,,,,,,,,,,,,,,,,,,,,,,,,,,,,
,,,,,V3_053,21,Female,2024-11-06_16h51.24.423,jersey_experiment_5_v3,2023.2.2,Win32,84.74576271,,,,,,,,,,,,,,,,645.0519,646.6048,646.6048,647.8517,return,0.0707,,70.96354167,,,,,,FBP-OG-18.png,0.43,1.2,39,0.75,,,,,,,,,,,,,0,30,30,38,1,,,,,,,,,,,,,,,,,,,,,,,,,,,,
,,,,,V3_053,21,Female,2024-11-06_16h51.24.423,jersey_experiment_5_v3,2023.2.2,Win32,84.74576271,,,,,,,,,,,,,,,,647.852,649.4047,649.4047,651.5812,return,0.2591,,49.73958333,,,,,,FBP-OG-19.png,0.37,1.2,42,0.75,,,,,,,,,,,,,0,31,31,41,1,,,,,,,,,,,,,,,,,,,,,,,,,,,,
,,,,,V3_053,21,Female,2024-11-06_16h51.24.423,jersey_experiment_5_v3,2023.2.2,Win32,84.74576271,,,,,,,,,,,,,,,,651.5814,652.8754,652.8755,653.9931,return,0.2376,,84.24479167,,,,,,FBP-PT-18.png,0.43,1.2,24,0.5,,,,,,,,,,,,,0,32,32,23,1,,,,,,,,,,,,,,,,,,,,,,,,,,,,
,,,,,V3_053,21,Female,2024-11-06_16h51.24.423,jersey_experiment_5_v3,2023.2.2,Win32,84.74576271,,,,,,,,,,,,,,,,653.9933,655.2872,655.2872,656.0755,return,0.0709,,94.921875,,,,,,FBP-RB-17.png,0.43,1.2,49,0.5,,,,,,,,,,,,,0,33,33,48,1,,,,,,,,,,,,,,,,,,,,,,,,,,,,
,,,,,V3_053,21,Female,2024-11-06_16h51.24.423,jersey_experiment_5_v3,2023.2.2,Win32,84.74576271,,,,,,,,,,,,,,,,656.0757,657.3697,657.3698,658.5344,return,0.1931,,75.52083333,,,,,,FBP-RB-19.png,0.4,1.2,58,0.5,,,,,,,,,,,,,0,34,34,57,1,,,,,,,,,,,,,,,,,,,,,,,,,,,,
,,,,,V3_053,21,Female,2024-11-06_16h51.24.423,jersey_experiment_5_v3,2023.2.2,Win32,84.74576271,,,,,,,,,,,,,,,,658.5347,660.0875,660.0875,660.5346,return,0.0751,,75.52083333,,,,,,FBP-OG-19.png,0.4,1.2,43,0.75,,,,,,,,,,,,,0,35,35,42,1,,,,,,,,,,,,,,,,,,,,,,,,,,,,
,,,,,V3_053,21,Female,2024-11-06_16h51.24.423,jersey_experiment_5_v3,2023.2.2,Win32,84.74576271,,,,,,,,,,,,,,,,660.5348,661.8286,661.8287,663.817,return,0.061,,51.5625,,,,,,FBP-YG-91.png,0.37,1.2,12,0.5,,,,,,,,,,,,,0,36,36,11,1,,,,,,,,,,,,,,,,,,,,,,,,,,,,
,,,,,V3_053,21,Female,2024-11-06_16h51.24.423,jersey_experiment_5_v3,2023.2.2,Win32,84.74576271,,,,,,,,,,,,,,,,663.8173,665.1112,665.1112,666.4877,return,0.1448,,49.47916667,,,,,,FBP-PT-19.png,0.37,1.2,27,0.5,,,,,,,,,,,,,0,37,37,26,1,,,,,,,,,,,,,,,,,,,,,,,,,,,,
,,,,,V3_053,21,Female,2024-11-06_16h51.24.423,jersey_experiment_5_v3,2023.2.2,Win32,84.74576271,,,,,,,,,,,,,,,,666.488,667.7818,667.7819,668.3936,return,0.1526,,49.47916667,,,,,,FBP-PT-18.png,0.4,1.2,23,0.5,,,,,,,,,,,,,0,38,38,22,1,,,,,,,,,,,,,,,,,,,,,,,,,,,,
,,,,,V3_053,21,Female,2024-11-06_16h51.24.423,jersey_experiment_5_v3,2023.2.2,Win32,84.74576271,,,,,,,,,,,,,,,,668.394,669.6878,669.6878,670.7231,return,0.0311,,29.296875,,,,,,FBP-PT-18.png,0.35,1.2,21,0.5,,,,,,,,,,,,,0,39,39,20,1,,,,,,,,,,,,,,,,,,,,,,,,,,,,
,,,,,V3_053,21,Female,2024-11-06_16h51.24.423,jersey_experiment_5_v3,2023.2.2,Win32,84.74576271,,,,,,,,,,,,,,,,670.7233,672.0174,672.0174,673.0172,return,0.0841,,49.47916667,,,,,,FBP-PT-19.png,0.4,1.2,28,0.5,,,,,,,,,,,,,0,40,40,27,1,,,,,,,,,,,,,,,,,,,,,,,,,,,,
,,,,,V3_053,21,Female,2024-11-06_16h51.24.423,jersey_experiment_5_v3,2023.2.2,Win32,84.74576271,,,,,,,,,,,,,,,,673.0174,674.3116,674.3116,676.0058,return,0.1201,,28.90625,,,,,,FBP-RB-19.png,0.35,1.2,56,0.5,,,,,,,,,,,,,0,41,41,55,1,,,,,,,,,,,,,,,,,,,,,,,,,,,,
,,,,,V3_053,21,Female,2024-11-06_16h51.24.423,jersey_experiment_5_v3,2023.2.2,Win32,84.74576271,,,,,,,,,,,,,,,,676.0059,677.2999,677.3,678.6176,return,0.0839,,28.64583333,,,,,,FBP-RB-17.png,0.37,1.2,47,0.5,,,,,,,,,,,,,0,42,42,46,1,,,,,,,,,,,,,,,,,,,,,,,,,,,,
,,,,,V3_053,21,Female,2024-11-06_16h51.24.423,jersey_experiment_5_v3,2023.2.2,Win32,84.74576271,,,,,,,,,,,,,,,,678.6179,679.9116,679.9116,681.253,return,0.0183,,74.34895833,,,,,,FBP-RB-17.png,0.45,1.2,50,0.5,,,,,,,,,,,,,0,43,43,49,1,,,,,,,,,,,,,,,,,,,,,,,,,,,,
,,,,,V3_053,21,Female,2024-11-06_16h51.24.423,jersey_experiment_5_v3,2023.2.2,Win32,84.74576271,,,,,,,,,,,,,,,,681.2532,682.5471,682.5471,683.4766,return,0.0167,,50.13020833,,,,,,FBP-YG-71.png,0.35,1.2,1,0.5,,,,,,,,,,,,,0,44,44,0,1,,,,,,,,,,,,,,,,,,,,,,,,,,,,
,,,,,V3_053,21,Female,2024-11-06_16h51.24.423,jersey_experiment_5_v3,2023.2.2,Win32,84.74576271,,,,,,,,,,,,,,,,683.4768,684.7708,684.7708,686.3472,return,0.1648,,73.95833333,,,,,,FBP-RB-17.png,0.4,1.2,48,0.5,,,,,,,,,,,,,0,45,45,47,1,,,,,,,,,,,,,,,,,,,,,,,,,,,,
,,,,,V3_053,21,Female,2024-11-06_16h51.24.423,jersey_experiment_5_v3,2023.2.2,Win32,84.74576271,,,,,,,,,,,,,,,,686.3474,687.6414,687.6415,689.3238,return,0.6354,,84.50520833,,,,,,FBP-YG-91.png,0.45,1.2,15,0.5,,,,,,,,,,,,,0,46,46,14,1,,,,,,,,,,,,,,,,,,,,,,,,,,,,
,,,,,V3_053,21,Female,2024-11-06_16h51.24.423,jersey_experiment_5_v3,2023.2.2,Win32,84.74576271,,,,,,,,,,,,,,,,689.3241,690.618,690.618,691.3827,return,0.0597,,92.96875,,,,,,FBP-YG-81.png,0.45,1.2,10,0.5,,,,,,,,,,,,,0,47,47,9,1,,,,,,,,,,,,,,,,,,,,,,,,,,,,
,,,,,V3_053,21,Female,2024-11-06_16h51.24.423,jersey_experiment_5_v3,2023.2.2,Win32,84.74576271,,,,,,,,,,,,,,,,691.383,692.6769,692.6769,693.2886,return,0.0963,,92.96875,,,,,,FBP-PT-17.png,0.43,1.2,19,0.5,,,,,,,,,,,,,0,48,48,18,1,,,,,,,,,,,,,,,,,,,,,,,,,,,,
,,,,,V3_053,21,Female,2024-11-06_16h51.24.423,jersey_experiment_5_v3,2023.2.2,Win32,84.74576271,,,,,,,,,,,,,,,,693.289,694.5829,694.5829,696.3123,return,1.1679,,96.875,,,,,,FBP-RB-18.png,0.45,1.2,55,0.5,,,,,,,,,,,,,0,49,49,54,1,,,,,,,,,,,,,,,,,,,,,,,,,,,,
,,,,,V3_053,21,Female,2024-11-06_16h51.24.423,jersey_experiment_5_v3,2023.2.2,Win32,84.74576271,,,,,,,,,,,,,,,,696.3126,697.6065,697.6066,698.7241,return,0.031,,74.21875,,,,,,FBP-YG-81.png,0.43,1.2,9,0.5,,,,,,,,,,,,,0,50,50,8,1,,,,,,,,,,,,,,,,,,,,,,,,,,,,
,,,,,V3_053,21,Female,2024-11-06_16h51.24.423,jersey_experiment_5_v3,2023.2.2,Win32,84.74576271,,,,,,,,,,,,,,,,698.7244,700.0182,700.0182,700.5361,return,0.0269,,74.609375,,,,,,FBP-RB-19.png,0.43,1.2,59,0.5,,,,,,,,,,,,,0,51,51,58,1,,,,,,,,,,,,,,,,,,,,,,,,,,,,
,,,,,V3_053,21,Female,2024-11-06_16h51.24.423,jersey_experiment_5_v3,2023.2.2,Win32,84.74576271,,,,,,,,,,,,,,,,700.5364,701.8302,701.8302,702.5948,return,0.1378,,74.609375,,,,,,FBP-PT-19.png,0.43,1.2,29,0.5,,,,,,,,,,,,,0,52,52,28,1,,,,,,,,,,,,,,,,,,,,,,,,,,,,
,,,,,V3_053,21,Female,2024-11-06_16h51.24.423,jersey_experiment_5_v3,2023.2.2,Win32,84.74576271,,,,,,,,,,,,,,,,702.5951,703.889,703.889,705.7832,return,0.0981,,31.77083333,,,,,,FBP-RB-18.png,0.37,1.2,52,0.5,,,,,,,,,,,,,0,53,53,51,1,,,,,,,,,,,,,,,,,,,,,,,,,,,,
,,,,,V3_053,21,Female,2024-11-06_16h51.24.423,jersey_experiment_5_v3,2023.2.2,Win32,84.74576271,,,,,,,,,,,,,,,,705.7834,707.0774,707.0774,708.2539,return,0.0944,,24.609375,,,,,,FBP-YG-81.png,0.37,1.2,7,0.5,,,,,,,,,,,,,0,54,54,6,1,,,,,,,,,,,,,,,,,,,,,,,,,,,,
,,,,,V3_053,21,Female,2024-11-06_16h51.24.423,jersey_experiment_5_v3,2023.2.2,Win32,84.74576271,,,,,,,,,,,,,,,,708.2541,709.548,709.5481,711.3716,return,0.037,,57.03125,,,,,,FBP-RB-18.png,0.43,1.2,54,0.5,,,,,,,,,,,,,0,55,55,53,1,,,,,,,,,,,,,,,,,,,,,,,,,,,,
,,,,,V3_053,21,Female,2024-11-06_16h51.24.423,jersey_experiment_5_v3,2023.2.2,Win32,84.74576271,,,,,,,,,,,,,,,,711.3718,712.666,712.666,713.5483,return,0.1523,,28.77604167,,,,,,FBP-YG-71.png,0.37,1.2,2,0.5,,,,,,,,,,,,,0,56,56,1,1,,,,,,,,,,,,,,,,,,,,,,,,,,,,
,,,,,V3_053,21,Female,2024-11-06_16h51.24.423,jersey_experiment_5_v3,2023.2.2,Win32,84.74576271,,,,,,,,,,,,,,,,713.5485,715.1014,715.1015,716.8779,return,0.8844,,28.64583333,,,,,,FBP-OG-19.png,0.35,1.2,41,0.75,,,,,,,,,,,,,0,57,57,40,1,,,,,,,,,,,,,,,,,,,,,,,,,,,,
,,,,,V3_053,21,Female,2024-11-06_16h51.24.423,jersey_experiment_5_v3,2023.2.2,Win32,84.74576271,,,,,,,,,,,,,,,,716.8781,718.1721,718.1722,719.8424,return,0.0206,,73.95833333,,,,,,FBP-PT-17.png,0.45,1.2,20,0.5,,,,,,,,,,,,,0,58,58,19,1,,,,,,,,,,,,,,,,,,,,,,,,,,,,
,,,,,V3_053,21,Female,2024-11-06_16h51.24.423,jersey_experiment_5_v3,2023.2.2,Win32,84.74576271,,,,,,,,,,,,,,,,719.8426,721.1369,721.1369,722.1015,return,0.0177,,49.21875,,,,,,FBP-PT-17.png,0.37,1.2,17,0.5,,,,,,,,,,,,,0,59,59,16,1,,,,,,,,,,,,,,,,,,,,,,,,,,,,
,,,,,V3_053,21,Female,2024-11-06_16h51.24.423,jersey_experiment_5_v3,2023.2.2,Win32,84.74576271,,,,,,,,,,,,,,,,722.1029,723.3957,723.3957,725.1017,return,0.5495,,56.640625,,,,,,FBP-PT-81.png,0.35,1.2,21,0.5,,,,,,,,,,,,,,,,,,0,0,0,20,1,,,,,,,,,,,,,,,,,,,,,,,
,,,,,V3_053,21,Female,2024-11-06_16h51.24.423,jersey_experiment_5_v3,2023.2.2,Win32,84.74576271,,,,,,,,,,,,,,,,725.102,726.3956,726.3957,728.3252,return,0.5473,,68.359375,,,,,,FBP-YG-19.png,0.4,1.2,13,0.5,,,,,,,,,,,,,,,,,,0,1,1,12,1,,,,,,,,,,,,,,,,,,,,,,,
,,,,,V3_053,21,Female,2024-11-06_16h51.24.423,jersey_experiment_5_v3,2023.2.2,Win32,84.74576271,,,,,,,,,,,,,,,,728.3254,729.6195,729.6195,731.9019,return,0.7607,,78.64583333,,,,,,FBP-RB-71.png,0.43,1.2,49,0.5,,,,,,,,,,,,,,,,,,0,2,2,48,1,,,,,,,,,,,,,,,,,,,,,,,
,,,,,V3_053,21,Female,2024-11-06_16h51.24.423,jersey_experiment_5_v3,2023.2.2,Win32,84.74576271,,,,,,,,,,,,,,,,731.9022,733.196,733.196,734.796,return,0.2928,,39.32291667,,,,,,FBP-RB-71.png,0.35,1.2,46,0.5,,,,,,,,,,,,,,,,,,0,3,3,45,1,,,,,,,,,,,,,,,,,,,,,,,
,,,,,V3_053,21,Female,2024-11-06_16h51.24.423,jersey_experiment_5_v3,2023.2.2,Win32,84.74576271,,,,,,,,,,,,,,,,734.7963,736.0903,736.0903,737.4315,return,0.0509,,89.32291667,,,,,,FBP-RB-81.png,0.45,1.2,55,0.5,,,,,,,,,,,,,,,,,,0,4,4,54,1,,,,,,,,,,,,,,,,,,,,,,,
,,,,,V3_053,21,Female,2024-11-06_16h51.24.423,jersey_experiment_5_v3,2023.2.2,Win32,84.74576271,,,,,,,,,,,,,,,,737.4317,738.7256,738.7257,741.0316,return,0.106,,86.328125,,,,,,FBP-PT-91.png,0.45,1.2,30,0.5,,,,,,,,,,,,,,,,,,0,5,5,29,1,,,,,,,,,,,,,,,,,,,,,,,
,,,,,V3_053,21,Female,2024-11-06_16h51.24.423,jersey_experiment_5_v3,2023.2.2,Win32,84.74576271,,,,,,,,,,,,,,,,741.0318,742.5847,742.5847,744.2435,return,0.0431,,33.33333333,,,,,,FBP-OG-81.png,0.35,1.2,36,0.75,,,,,,,,,,,,,,,,,,0,6,6,35,1,,,,,,,,,,,,,,,,,,,,,,,
,,,,,V3_053,21,Female,2024-11-06_16h51.24.423,jersey_experiment_5_v3,2023.2.2,Win32,84.74576271,,,,,,,,,,,,,,,,744.2438,745.5376,745.5377,748.4554,return,0.3213,,49.609375,,,,,,FBP-YG-18.png,0.35,1.2,6,0.5,,,,,,,,,,,,,,,,,,0,7,7,5,1,,,,,,,,,,,,,,,,,,,,,,,
,,,,,V3_053,21,Female,2024-11-06_16h51.24.423,jersey_experiment_5_v3,2023.2.2,Win32,84.74576271,,,,,,,,,,,,,,,,748.4556,749.7495,749.7496,750.3144,return,0.1412,,49.609375,,,,,,FBP-PT-71.png,0.35,1.2,16,0.5,,,,,,,,,,,,,,,,,,0,8,8,15,1,,,,,,,,,,,,,,,,,,,,,,,
,,,,,V3_053,21,Female,2024-11-06_16h51.24.423,jersey_experiment_5_v3,2023.2.2,Win32,84.74576271,,,,,,,,,,,,,,,,750.3146,751.6085,751.6085,753.3968,return,0.489,,57.55208333,,,,,,FBP-YG-19.png,0.37,1.2,12,0.5,,,,,,,,,,,,,,,,,,0,9,9,11,1,,,,,,,,,,,,,,,,,,,,,,,
,,,,,V3_053,21,Female,2024-11-06_16h51.24.423,jersey_experiment_5_v3,2023.2.2,Win32,84.74576271,,,,,,,,,,,,,,,,753.3971,754.6912,754.6913,755.8205,return,0.0375,,68.22916667,,,,,,FBP-PT-81.png,0.4,1.2,23,0.5,,,,,,,,,,,,,,,,,,0,10,10,22,1,,,,,,,,,,,,,,,,,,,,,,,
,,,,,V3_053,21,Female,2024-11-06_16h51.24.423,jersey_experiment_5_v3,2023.2.2,Win32,84.74576271,,,,,,,,,,,,,,,,755.8206,757.3736,757.3736,758.044,return,0.0099,,92.96875,,,,,,FBP-OG-81.png,0.45,1.2,40,0.75,,,,,,,,,,,,,,,,,,0,11,11,39,1,,,,,,,,,,,,,,,,,,,,,,,
,,,,,V3_053,21,Female,2024-11-06_16h51.24.423,jersey_experiment_5_v3,2023.2.2,Win32,84.74576271,,,,,,,,,,,,,,,,758.0442,759.3381,759.3381,759.9264,return,0.0992,,92.96875,,,,,,FBP-YG-18.png,0.43,1.2,9,0.5,,,,,,,,,,,,,,,,,,0,12,12,8,1,,,,,,,,,,,,,,,,,,,,,,,
,,,,,V3_053,21,Female,2024-11-06_16h51.24.423,jersey_experiment_5_v3,2023.2.2,Win32,84.74576271,,,,,,,,,,,,,,,,759.9266,761.2206,761.2207,761.9147,return,0.3051,,92.96875,,,,,,FBP-RB-81.png,0.43,1.2,54,0.5,,,,,,,,,,,,,,,,,,0,13,13,53,1,,,,,,,,,,,,,,,,,,,,,,,
,,,,,V3_053,21,Female,2024-11-06_16h51.24.423,jersey_experiment_5_v3,2023.2.2,Win32,84.74576271,,,,,,,,,,,,,,,,761.9149,763.2089,763.2089,763.703,return,0.1208,,92.96875,,,,,,FBP-PT-81.png,0.43,1.2,24,0.5,,,,,,,,,,,,,,,,,,0,14,14,23,1,,,,,,,,,,,,,,,,,,,,,,,
,,,,,V3_053,21,Female,2024-11-06_16h51.24.423,jersey_experiment_5_v3,2023.2.2,Win32,84.74576271,,,,,,,,,,,,,,,,763.7032,764.9972,764.9973,765.3973,return,0.0962,,92.96875,,,,,,FBP-YG-17.png,0.43,1.2,4,0.5,,,,,,,,,,,,,,,,,,0,15,15,3,1,,,,,,,,,,,,,,,,,,,,,,,
,,,,,V3_053,21,Female,2024-11-06_16h51.24.423,jersey_experiment_5_v3,2023.2.2,Win32,84.74576271,,,,,,,,,,,,,,,,765.3974,766.6913,766.6914,767.7503,return,0.1676,,91.66666667,,,,,,FBP-RB-71.png,0.45,1.2,50,0.5,,,,,,,,,,,,,,,,,,0,16,16,49,1,,,,,,,,,,,,,,,,,,,,,,,
,,,,,V3_053,21,Female,2024-11-06_16h51.24.423,jersey_experiment_5_v3,2023.2.2,Win32,84.74576271,,,,,,,,,,,,,,,,767.7505,769.3034,769.3034,770.574,return,0.0476,,44.40104167,,,,,,FBP-OG-71.png,0.37,1.2,32,0.75,,,,,,,,,,,,,,,,,,0,17,17,31,1,,,,,,,,,,,,,,,,,,,,,,,
,,,,,V3_053,21,Female,2024-11-06_16h51.24.423,jersey_experiment_5_v3,2023.2.2,Win32,84.74576271,,,,,,,,,,,,,,,,770.5742,771.8679,771.8679,774.2446,return,0.0031,,88.80208333,,,,,,FBP-PT-81.png,0.45,1.2,25,0.5,,,,,,,,,,,,,,,,,,0,18,18,24,1,,,,,,,,,,,,,,,,,,,,,,,
,,,,,V3_053,21,Female,2024-11-06_16h51.24.423,jersey_experiment_5_v3,2023.2.2,Win32,84.74576271,,,,,,,,,,,,,,,,774.2448,775.7978,775.7978,776.3623,return,0.0372,,40.49479167,,,,,,FBP-OG-71.png,0.35,1.2,31,0.75,,,,,,,,,,,,,,,,,,0,19,19,30,1,,,,,,,,,,,,,,,,,,,,,,,
,,,,,V3_053,21,Female,2024-11-06_16h51.24.423,jersey_experiment_5_v3,2023.2.2,Win32,84.74576271,,,,,,,,,,,,,,,,776.3626,777.6564,777.6565,778.6683,return,0.0381,,64.0625,,,,,,FBP-PT-71.png,0.4,1.2,18,0.5,,,,,,,,,,,,,,,,,,0,20,20,17,1,,,,,,,,,,,,,,,,,,,,,,,
,,,,,V3_053,21,Female,2024-11-06_16h51.24.423,jersey_experiment_5_v3,2023.2.2,Win32,84.74576271,,,,,,,,,,,,,,,,778.6685,779.9625,779.9625,780.8919,return,0.0472,,30.46875,,,,,,FBP-YG-17.png,0.37,1.2,2,0.5,,,,,,,,,,,,,,,,,,0,21,21,1,1,,,,,,,,,,,,,,,,,,,,,,,
,,,,,V3_053,21,Female,2024-11-06_16h51.24.423,jersey_experiment_5_v3,2023.2.2,Win32,84.74576271,,,,,,,,,,,,,,,,780.8922,782.1862,782.1862,782.7626,return,0.0387,,32.29166667,,,,,,FBP-PT-71.png,0.37,1.2,17,0.5,,,,,,,,,,,,,,,,,,0,22,22,16,1,,,,,,,,,,,,,,,,,,,,,,,
,,,,,V3_053,21,Female,2024-11-06_16h51.24.423,jersey_experiment_5_v3,2023.2.2,Win32,84.74576271,,,,,,,,,,,,,,,,782.7629,784.0569,784.0569,785.2098,return,0.0919,,76.953125,,,,,,FBP-PT-71.png,0.43,1.2,19,0.5,,,,,,,,,,,,,,,,,,0,23,23,18,1,,,,,,,,,,,,,,,,,,,,,,,
,,,,,V3_053,21,Female,2024-11-06_16h51.24.423,jersey_experiment_5_v3,2023.2.2,Win32,84.74576271,,,,,,,,,,,,,,,,785.2099,786.5038,786.5038,787.2921,return,0.2348,,76.04166667,,,,,,FBP-YG-18.png,0.4,1.2,8,0.5,,,,,,,,,,,,,,,,,,0,24,24,7,1,,,,,,,,,,,,,,,,,,,,,,,
,,,,,V3_053,21,Female,2024-11-06_16h51.24.423,jersey_experiment_5_v3,2023.2.2,Win32,84.74576271,,,,,,,,,,,,,,,,787.2923,788.5863,788.5864,789.4334,return,0.0336,,67.44791667,,,,,,FBP-RB-81.png,0.4,1.2,53,0.5,,,,,,,,,,,,,,,,,,0,25,25,52,1,,,,,,,,,,,,,,,,,,,,,,,
,,,,,V3_053,21,Female,2024-11-06_16h51.24.423,jersey_experiment_5_v3,2023.2.2,Win32,84.74576271,,,,,,,,,,,,,,,,789.4336,790.9864,790.9865,791.6924,return,0.0238,,32.55208333,,,,,,FBP-OG-91.png,0.35,1.2,41,0.75,,,,,,,,,,,,,,,,,,0,26,26,40,1,,,,,,,,,,,,,,,,,,,,,,,
,,,,,V3_053,21,Female,2024-11-06_16h51.24.423,jersey_experiment_5_v3,2023.2.2,Win32,84.74576271,,,,,,,,,,,,,,,,791.6926,792.9865,792.9866,793.8335,return,0.0016,,27.86458333,,,,,,FBP-YG-19.png,0.35,1.2,11,0.5,,,,,,,,,,,,,,,,,,0,27,27,10,1,,,,,,,,,,,,,,,,,,,,,,,
,,,,,V3_053,21,Female,2024-11-06_16h51.24.423,jersey_experiment_5_v3,2023.2.2,Win32,84.74576271,,,,,,,,,,,,,,,,793.8338,795.1278,795.1278,797.9749,return,0.0373,,50,,,,,,FBP-PT-91.png,0.37,1.2,27,0.5,,,,,,,,,,,,,,,,,,0,28,28,26,1,,,,,,,,,,,,,,,,,,,,,,,
,,,,,V3_053,21,Female,2024-11-06_16h51.24.423,jersey_experiment_5_v3,2023.2.2,Win32,84.74576271,,,,,,,,,,,,,,,,797.9752,799.269,799.269,800.8926,return,0.1177,,62.63020833,,,,,,FBP-RB-81.png,0.37,1.2,52,0.5,,,,,,,,,,,,,,,,,,0,29,29,51,1,,,,,,,,,,,,,,,,,,,,,,,
,,,,,V3_053,21,Female,2024-11-06_16h51.24.423,jersey_experiment_5_v3,2023.2.2,Win32,84.74576271,,,,,,,,,,,,,,,,800.893,802.4457,802.4458,803.5162,return,0.4373,,85.28645833,,,,,,FBP-OG-71.png,0.45,1.2,35,0.75,,,,,,,,,,,,,,,,,,0,30,30,34,1,,,,,,,,,,,,,,,,,,,,,,,
,,,,,V3_053,21,Female,2024-11-06_16h51.24.423,jersey_experiment_5_v3,2023.2.2,Win32,84.74576271,,,,,,,,,,,,,,,,803.5164,805.0576,805.0577,805.834,return,0.1527,,41.40625,,,,,,FBP-OG-81.png,0.37,1.2,37,0.75,,,,,,,,,,,,,,,,,,0,31,31,36,1,,,,,,,,,,,,,,,,,,,,,,,
,,,,,V3_053,21,Female,2024-11-06_16h51.24.423,jersey_experiment_5_v3,2023.2.2,Win32,84.74576271,,,,,,,,,,,,,,,,805.8343,807.3871,807.3872,808.6693,return,0.5625,,65.234375,,,,,,FBP-OG-81.png,0.43,1.2,39,0.75,,,,,,,,,,,,,,,,,,0,32,32,38,1,,,,,,,,,,,,,,,,,,,,,,,
,,,,,V3_053,21,Female,2024-11-06_16h51.24.423,jersey_experiment_5_v3,2023.2.2,Win32,84.74576271,,,,,,,,,,,,,,,,808.6695,810.2225,810.2227,811.0812,return,0.1984,,91.92708333,,,,,,FBP-OG-91.png,0.43,1.2,44,0.75,,,,,,,,,,,,,,,,,,0,33,33,43,1,,,,,,,,,,,,,,,,,,,,,,,
,,,,,V3_053,21,Female,2024-11-06_16h51.24.423,jersey_experiment_5_v3,2023.2.2,Win32,84.74576271,,,,,,,,,,,,,,,,811.0814,812.3755,812.3756,813.399,return,0.0867,,34.63541667,,,,,,FBP-RB-91.png,0.35,1.2,56,0.5,,,,,,,,,,,,,,,,,,0,34,34,55,1,,,,,,,,,,,,,,,,,,,,,,,
,,,,,V3_053,21,Female,2024-11-06_16h51.24.423,jersey_experiment_5_v3,2023.2.2,Win32,84.74576271,,,,,,,,,,,,,,,,813.3992,814.6932,814.6932,815.5638,return,0.5093,,34.63541667,,,,,,FBP-RB-81.png,0.35,1.2,51,0.5,,,,,,,,,,,,,,,,,,0,35,35,50,1,,,,,,,,,,,,,,,,,,,,,,,
,,,,,V3_053,21,Female,2024-11-06_16h51.24.423,jersey_experiment_5_v3,2023.2.2,Win32,84.74576271,,,,,,,,,,,,,,,,815.564,816.8578,816.8579,818.4344,return,0.0069,,77.34375,,,,,,FBP-YG-19.png,0.43,1.2,14,0.5,,,,,,,,,,,,,,,,,,0,36,36,13,1,,,,,,,,,,,,,,,,,,,,,,,
,,,,,V3_053,21,Female,2024-11-06_16h51.24.423,jersey_experiment_5_v3,2023.2.2,Win32,84.74576271,,,,,,,,,,,,,,,,818.4346,819.7286,819.7286,820.6463,return,0.0968,,87.63020833,,,,,,FBP-RB-91.png,0.43,1.2,59,0.5,,,,,,,,,,,,,,,,,,0,37,37,58,1,,,,,,,,,,,,,,,,,,,,,,,
,,,,,V3_053,21,Female,2024-11-06_16h51.24.423,jersey_experiment_5_v3,2023.2.2,Win32,84.74576271,,,,,,,,,,,,,,,,820.6465,821.9405,821.9405,822.7758,return,0.0354,,33.72395833,,,,,,FBP-PT-91.png,0.35,1.2,26,0.5,,,,,,,,,,,,,,,,,,0,38,38,25,1,,,,,,,,,,,,,,,,,,,,,,,
,,,,,V3_053,21,Female,2024-11-06_16h51.24.423,jersey_experiment_5_v3,2023.2.2,Win32,84.74576271,,,,,,,,,,,,,,,,822.776,824.3288,824.3289,826.0229,return,0.4047,,87.5,,,,,,FBP-OG-71.png,0.43,1.2,34,0.75,,,,,,,,,,,,,,,,,,0,39,39,33,1,,,,,,,,,,,,,,,,,,,,,,,
,,,,,V3_053,21,Female,2024-11-06_16h51.24.423,jersey_experiment_5_v3,2023.2.2,Win32,84.74576271,,,,,,,,,,,,,,,,826.0231,827.3171,827.3171,829.0113,return,0.0313,,69.66145833,,,,,,FBP-RB-91.png,0.37,1.2,57,0.5,,,,,,,,,,,,,,,,,,0,40,40,56,1,,,,,,,,,,,,,,,,,,,,,,,
,,,,,V3_053,21,Female,2024-11-06_16h51.24.423,jersey_experiment_5_v3,2023.2.2,Win32,84.74576271,,,,,,,,,,,,,,,,829.0115,830.5643,830.5643,831.6114,return,0.0624,,67.31770833,,,,,,FBP-OG-81.png,0.4,1.2,38,0.75,,,,,,,,,,,,,,,,,,0,41,41,37,1,,,,,,,,,,,,,,,,,,,,,,,
,,,,,V3_053,21,Female,2024-11-06_16h51.24.423,jersey_experiment_5_v3,2023.2.2,Win32,84.74576271,,,,,,,,,,,,,,,,831.6116,833.1646,833.1646,835.6704,return,0.1799,,36.84895833,,,,,,FBP-OG-91.png,0.37,1.2,42,0.75,,,,,,,,,,,,,,,,,,0,42,42,41,1,,,,,,,,,,,,,,,,,,,,,,,
,,,,,V3_053,21,Female,2024-11-06_16h51.24.423,jersey_experiment_5_v3,2023.2.2,Win32,84.74576271,,,,,,,,,,,,,,,,835.6706,836.9644,836.9645,837.8942,return,0.0171,,90.75520833,,,,,,FBP-PT-91.png,0.43,1.2,29,0.5,,,,,,,,,,,,,,,,,,0,43,43,28,1,,,,,,,,,,,,,,,,,,,,,,,
,,,,,V3_053,21,Female,2024-11-06_16h51.24.423,jersey_experiment_5_v3,2023.2.2,Win32,84.74576271,,,,,,,,,,,,,,,,837.8944,839.1881,839.1882,840.2587,return,0.4407,,87.890625,,,,,,FBP-YG-19.png,0.45,1.2,15,0.5,,,,,,,,,,,,,,,,,,0,44,44,14,1,,,,,,,,,,,,,,,,,,,,,,,
,,,,,V3_053,21,Female,2024-11-06_16h51.24.423,jersey_experiment_5_v3,2023.2.2,Win32,84.74576271,,,,,,,,,,,,,,,,840.259,841.5529,841.553,842.9647,return,0.1713,,89.58333333,,,,,,FBP-PT-91.png,0.4,1.2,28,0.5,,,,,,,,,,,,,,,,,,0,45,45,27,1,,,,,,,,,,,,,,,,,,,,,,,
,,,,,V3_053,21,Female,2024-11-06_16h51.24.423,jersey_experiment_5_v3,2023.2.2,Win32,84.74576271,,,,,,,,,,,,,,,,842.9649,844.5177,844.5177,845.212,return,0.047,,89.0625,,,,,,FBP-OG-91.png,0.4,1.2,43,0.75,,,,,,,,,,,,,,,,,,0,46,46,42,1,,,,,,,,,,,,,,,,,,,,,,,
,,,,,V3_053,21,Female,2024-11-06_16h51.24.423,jersey_experiment_5_v3,2023.2.2,Win32,84.74576271,,,,,,,,,,,,,,,,845.2122,846.506,846.5061,847.706,return,0.144,,89.453125,,,,,,FBP-PT-71.png,0.45,1.2,20,0.5,,,,,,,,,,,,,,,,,,0,47,47,19,1,,,,,,,,,,,,,,,,,,,,,,,
,,,,,V3_053,21,Female,2024-11-06_16h51.24.423,jersey_experiment_5_v3,2023.2.2,Win32,84.74576271,,,,,,,,,,,,,,,,847.7063,849.2593,849.2594,850.7769,return,0.0139,,77.34375,,,,,,FBP-OG-71.png,0.4,1.2,33,0.75,,,,,,,,,,,,,,,,,,0,48,48,32,1,,,,,,,,,,,,,,,,,,,,,,,
,,,,,V3_053,21,Female,2024-11-06_16h51.24.423,jersey_experiment_5_v3,2023.2.2,Win32,84.74576271,,,,,,,,,,,,,,,,850.7772,852.0712,852.0712,853.3535,return,0.0615,,87.76041667,,,,,,FBP-RB-91.png,0.45,1.2,60,0.5,,,,,,,,,,,,,,,,,,0,49,49,59,1,,,,,,,,,,,,,,,,,,,,,,,
,,,,,V3_053,21,Female,2024-11-06_16h51.24.423,jersey_experiment_5_v3,2023.2.2,Win32,84.74576271,,,,,,,,,,,,,,,,853.3537,854.6477,854.6477,855.4593,return,0.0414,,36.45833333,,,,,,FBP-YG-17.png,0.35,1.2,1,0.5,,,,,,,,,,,,,,,,,,0,50,50,0,1,,,,,,,,,,,,,,,,,,,,,,,
,,,,,V3_053,21,Female,2024-11-06_16h51.24.423,jersey_experiment_5_v3,2023.2.2,Win32,84.74576271,,,,,,,,,,,,,,,,855.4596,856.7535,856.7535,858.1653,return,0.0625,,71.875,,,,,,FBP-RB-91.png,0.4,1.2,58,0.5,,,,,,,,,,,,,,,,,,0,51,51,57,1,,,,,,,,,,,,,,,,,,,,,,,
,,,,,V3_053,21,Female,2024-11-06_16h51.24.423,jersey_experiment_5_v3,2023.2.2,Win32,84.74576271,,,,,,,,,,,,,,,,858.1656,859.4595,859.4595,860.2125,return,0.0405,,84.50520833,,,,,,FBP-YG-17.png,0.45,1.2,5,0.5,,,,,,,,,,,,,,,,,,0,52,52,4,1,,,,,,,,,,,,,,,,,,,,,,,
,,,,,V3_053,21,Female,2024-11-06_16h51.24.423,jersey_experiment_5_v3,2023.2.2,Win32,84.74576271,,,,,,,,,,,,,,,,860.2127,861.5067,861.5067,863.0126,return,0.2657,,29.81770833,,,,,,FBP-RB-71.png,0.37,1.2,47,0.5,,,,,,,,,,,,,,,,,,0,53,53,46,1,,,,,,,,,,,,,,,,,,,,,,,
,,,,,V3_053,21,Female,2024-11-06_16h51.24.423,jersey_experiment_5_v3,2023.2.2,Win32,84.74576271,,,,,,,,,,,,,,,,863.0128,864.5655,864.5656,866.3303,return,0.542,,70.96354167,,,,,,FBP-OG-91.png,0.45,1.2,45,0.75,,,,,,,,,,,,,,,,,,0,54,54,44,1,,,,,,,,,,,,,,,,,,,,,,,
,,,,,V3_053,21,Female,2024-11-06_16h51.24.423,jersey_experiment_5_v3,2023.2.2,Win32,84.74576271,,,,,,,,,,,,,,,,866.3306,867.6245,867.6245,868.8129,return,0.0371,,79.42708333,,,,,,FBP-RB-71.png,0.4,1.2,48,0.5,,,,,,,,,,,,,,,,,,0,55,55,47,1,,,,,,,,,,,,,,,,,,,,,,,
,,,,,V3_053,21,Female,2024-11-06_16h51.24.423,jersey_experiment_5_v3,2023.2.2,Win32,84.74576271,,,,,,,,,,,,,,,,868.8132,870.1069,870.107,871.8953,return,0.0704,,34.50520833,,,,,,FBP-YG-18.png,0.37,1.2,7,0.5,,,,,,,,,,,,,,,,,,0,56,56,6,1,,,,,,,,,,,,,,,,,,,,,,,
,,,,,V3_053,21,Female,2024-11-06_16h51.24.423,jersey_experiment_5_v3,2023.2.2,Win32,84.74576271,,,,,,,,,,,,,,,,871.8956,873.1894,873.1895,874.8718,return,0.1532,,67.1875,,,,,,FBP-YG-17.png,0.4,1.2,3,0.5,,,,,,,,,,,,,,,,,,0,57,57,2,1,,,,,,,,,,,,,,,,,,,,,,,
,,,,,V3_053,21,Female,2024-11-06_16h51.24.423,jersey_experiment_5_v3,2023.2.2,Win32,84.74576271,,,,,,,,,,,,,,,,874.872,876.166,876.166,877.9425,return,0.0638,,69.66145833,,,,,,FBP-PT-81.png,0.37,1.2,22,0.5,,,,,,,,,,,,,,,,,,0,58,58,21,1,,,,,,,,,,,,,,,,,,,,,,,
,,,,,V3_053,21,Female,2024-11-06_16h51.24.423,jersey_experiment_5_v3,2023.2.2,Win32,84.74576271,,,,,,,,,,,,,,,,877.9428,879.2368,879.2368,881.0838,return,0.4004,,87.76041667,,,,,,FBP-YG-18.png,0.45,1.2,10,0.5,,,,,,,,,,,,,,,,,,0,59,59,9,1,,,,,,,,,,,,,,,,,,,,,,,
,,,,,V3_053,21,Female,2024-11-06_16h51.24.423,jersey_experiment_5_v3,2023.2.2,Win32,84.74576271,,,,,,,,,,,,,,,,,,,,,,,,,,,,,,,,,,,,,,,,,,,,,,,,,,,,,,,,881.084,886.3901,return,5.296,,,,,,,,,,,,,,,,,,,
,,,,,V3_053,21,Female,2024-11-06_16h51.24.423,jersey_experiment_5_v3,2023.2.2,Win32,84.74576271,,,,,,,,,,,,,,,,,,,,,,,,,,,,,,,,,,,,,,,,,,,,,,,,,,,,,,,,,,,,,886.3901,890.861,1,2.4682,return,1.992,,,,,,,,,,,,
,,,,,V3_053,21,Female,2024-11-06_16h51.24.423,jersey_experiment_5_v3,2023.2.2,Win32,84.74576271,,,,,,,,,,,,,,,,,,,,,,,,,,,,,,,,,,,,,,,,,,,,,,,,,,,,,,,,,,,,,,,,,,,,890.8611,967.9465,"I thought maybe this study would be about racial bias and perceiving a certain race a different way than another race, also may be about how what we saw right before we made our judgement influenced our judgment.",right,73.004,,,,,,
,,,,,V3_053,21,Female,2024-11-06_16h51.24.423,jersey_experiment_5_v3,2023.2.2,Win32,84.74576271,,,,,,,,,,,,,,,,,,,,,,,,,,,,,,,,,,,,,,,,,,,,,,,,,,,,,,,,,,,,,,,,,,,,,,,,,,967.9466,971.7579,return,3.7998,