requirements.started,requirements.stopped,key_resp_3.keys,key_resp_3.rt,key_resp_3.duration,Subject ID,Age,Gender,date,expName,psychopyVersion,OS,frameRate,instructions1.started,instructions1.stopped,key_resp.keys,key_resp.rt,key_resp.duration,example.started,example.stopped,enter_2.keys,enter_2.rt,enter_2.duration,instructions2.started,instructions2.stopped,enter_3.keys,enter_3.rt,enter_3.duration,image.started,image.stopped,slider_2.started,slider_2.stopped,next.keys,next.rt,next.duration,slider.response,trial_block_1.thisRepN,trial_block_1.thisTrialN,trial_block_1.thisN,trial_block_1.thisIndex,trial_block_1.ran,Path,Width,Height,Index,Duration,trial_block_2.thisRepN,trial_block_2.thisTrialN,trial_block_2.thisN,trial_block_2.thisIndex,trial_block_2.ran,rest_break.started,rest_break.stopped,end_break.started,end_break.stopped,key_resp_5.keys,key_resp_5.rt,key_resp_5.duration,trial_block_3.thisRepN,trial_block_3.thisTrialN,trial_block_3.thisN,trial_block_3.thisIndex,trial_block_3.ran,trial_block_4.thisRepN,trial_block_4.thisTrialN,trial_block_4.thisN,trial_block_4.thisIndex,trial_block_4.ran,questions_intro.started,questions_intro.stopped,enter_12.keys,enter_12.rt,enter_12.duration,question2.started,question2.stopped,question_doingbest.response,question_doingbest.rt,enter_15.keys,enter_15.rt,enter_15.duration,pattern.started,pattern.stopped,pattern_2.text,enter_17.keys,enter_17.rt,enter_17.duration,thankyou.started,thankyou.stopped,enter_14.keys,enter_14.rt,enter_14.duration
0,11.595,return,11.5884,,V3_047,20,Female,2024-11-04_16h46.42.021,jersey_experiment_5_v3,2023.2.2,Win32,85.47008547,,,,,,,,,,,,,,,,,,,,,,,,,,,,,,,,,,,,,,,,,,,,,,,,,,,,,,,,,,,,,,,,,,,,,,,,,,,,,,
,,,,,V3_047,20,Female,2024-11-04_16h46.42.021,jersey_experiment_5_v3,2023.2.2,Win32,85.47008547,11.5951,21.2943,return,9.6877,,,,,,,,,,,,,,,,,,,,,,,,,,,,,,,,,,,,,,,,,,,,,,,,,,,,,,,,,,,,,,,,,,,,,,,,,,
,,,,,V3_047,20,Female,2024-11-04_16h46.42.021,jersey_experiment_5_v3,2023.2.2,Win32,85.47008547,,,,,,21.2944,25.2592,return,3.9296,,,,,,,,,,,,,,,,,,,,,,,,,,,,,,,,,,,,,,,,,,,,,,,,,,,,,,,,,,,,,,,,,,,,,
,,,,,V3_047,20,Female,2024-11-04_16h46.42.021,jersey_experiment_5_v3,2023.2.2,Win32,85.47008547,,,,,,,,,,,25.2593,52.0366,return,26.7616,,,,,,,,,,,,,,,,,,,,,,,,,,,,,,,,,,,,,,,,,,,,,,,,,,,,,,,,,,,,,,,,
,,,,,V3_047,20,Female,2024-11-04_16h46.42.021,jersey_experiment_5_v3,2023.2.2,Win32,85.47008547,,,,,,,,,,,,,,,,52.039,53.5895,53.5895,60.7309,return,2.5383,,25,0,0,0,26,1,FBP-PT-19.png,0.37,1.2,27,0.75,,,,,,,,,,,,,,,,,,,,,,,,,,,,,,,,,,,,,,,,,,,,,
,,,,,V3_047,20,Female,2024-11-04_16h46.42.021,jersey_experiment_5_v3,2023.2.2,Win32,85.47008547,,,,,,,,,,,,,,,,60.7312,62.2839,62.284,67.5194,return,1.5808,,60.41666667,0,1,1,28,1,FBP-PT-19.png,0.43,1.2,29,0.75,,,,,,,,,,,,,,,,,,,,,,,,,,,,,,,,,,,,,,,,,,,,,
,,,,,V3_047,20,Female,2024-11-04_16h46.42.021,jersey_experiment_5_v3,2023.2.2,Win32,85.47008547,,,,,,,,,,,,,,,,67.5197,68.8135,68.8135,72.9431,return,0.942,,74.21875,0,2,2,44,1,FBP-OG-19.png,0.45,1.2,45,0.5,,,,,,,,,,,,,,,,,,,,,,,,,,,,,,,,,,,,,,,,,,,,,
,,,,,V3_047,20,Female,2024-11-04_16h46.42.021,jersey_experiment_5_v3,2023.2.2,Win32,85.47008547,,,,,,,,,,,,,,,,72.9434,74.4961,74.4961,77.9079,return,0.789,,24.08854167,0,3,3,25,1,FBP-PT-19.png,0.35,1.2,26,0.75,,,,,,,,,,,,,,,,,,,,,,,,,,,,,,,,,,,,,,,,,,,,,
,,,,,V3_047,20,Female,2024-11-04_16h46.42.021,jersey_experiment_5_v3,2023.2.2,Win32,85.47008547,,,,,,,,,,,,,,,,77.9082,79.4609,79.461,81.9786,return,0.8317,,24.47916667,0,4,4,20,1,FBP-PT-18.png,0.35,1.2,21,0.75,,,,,,,,,,,,,,,,,,,,,,,,,,,,,,,,,,,,,,,,,,,,,
,,,,,V3_047,20,Female,2024-11-04_16h46.42.021,jersey_experiment_5_v3,2023.2.2,Win32,85.47008547,,,,,,,,,,,,,,,,81.9788,83.273,83.273,87.6025,return,0.8386,,73.69791667,0,5,5,33,1,FBP-OG-17.png,0.43,1.2,34,0.5,,,,,,,,,,,,,,,,,,,,,,,,,,,,,,,,,,,,,,,,,,,,,
,,,,,V3_047,20,Female,2024-11-04_16h46.42.021,jersey_experiment_5_v3,2023.2.2,Win32,85.47008547,,,,,,,,,,,,,,,,87.6027,89.1555,89.1555,91.8379,return,0.6997,,73.56770833,0,6,6,13,1,FBP-YG-91.png,0.43,1.2,14,0.75,,,,,,,,,,,,,,,,,,,,,,,,,,,,,,,,,,,,,,,,,,,,,
,,,,,V3_047,20,Female,2024-11-04_16h46.42.021,jersey_experiment_5_v3,2023.2.2,Win32,85.47008547,,,,,,,,,,,,,,,,91.8382,93.391,93.391,96.8969,return,0.7675,,23.828125,0,7,7,45,1,FBP-RB-17.png,0.35,1.2,46,0.75,,,,,,,,,,,,,,,,,,,,,,,,,,,,,,,,,,,,,,,,,,,,,
,,,,,V3_047,20,Female,2024-11-04_16h46.42.021,jersey_experiment_5_v3,2023.2.2,Win32,85.47008547,,,,,,,,,,,,,,,,96.8972,98.4498,98.4499,102.1559,return,0.7137,,67.05729167,0,8,8,57,1,FBP-RB-19.png,0.4,1.2,58,0.75,,,,,,,,,,,,,,,,,,,,,,,,,,,,,,,,,,,,,,,,,,,,,
,,,,,V3_047,20,Female,2024-11-04_16h46.42.021,jersey_experiment_5_v3,2023.2.2,Win32,85.47008547,,,,,,,,,,,,,,,,102.1562,103.45,103.4501,107.4738,return,0.8121,,26.30208333,0,9,9,31,1,FBP-OG-17.png,0.37,1.2,32,0.5,,,,,,,,,,,,,,,,,,,,,,,,,,,,,,,,,,,,,,,,,,,,,
,,,,,V3_047,20,Female,2024-11-04_16h46.42.021,jersey_experiment_5_v3,2023.2.2,Win32,85.47008547,,,,,,,,,,,,,,,,107.4742,109.0267,109.0267,111.7798,return,0.6354,,25.78125,0,10,10,52,1,FBP-RB-18.png,0.4,1.2,53,0.75,,,,,,,,,,,,,,,,,,,,,,,,,,,,,,,,,,,,,,,,,,,,,
,,,,,V3_047,20,Female,2024-11-04_16h46.42.021,jersey_experiment_5_v3,2023.2.2,Win32,85.47008547,,,,,,,,,,,,,,,,111.78,113.3328,113.3329,115.4034,return,0.7142,,25.78125,0,11,11,5,1,FBP-YG-81.png,0.35,1.2,6,0.75,,,,,,,,,,,,,,,,,,,,,,,,,,,,,,,,,,,,,,,,,,,,,
,,,,,V3_047,20,Female,2024-11-04_16h46.42.021,jersey_experiment_5_v3,2023.2.2,Win32,85.47008547,,,,,,,,,,,,,,,,115.4036,116.6976,116.6976,119.7448,return,0.7302,,25.78125,0,12,12,38,1,FBP-OG-18.png,0.43,1.2,39,0.5,,,,,,,,,,,,,,,,,,,,,,,,,,,,,,,,,,,,,,,,,,,,,
,,,,,V3_047,20,Female,2024-11-04_16h46.42.021,jersey_experiment_5_v3,2023.2.2,Win32,85.47008547,,,,,,,,,,,,,,,,119.7452,121.2978,121.2979,123.5332,return,0.6142,,25.65104167,0,13,13,7,1,FBP-YG-81.png,0.4,1.2,8,0.75,,,,,,,,,,,,,,,,,,,,,,,,,,,,,,,,,,,,,,,,,,,,,
,,,,,V3_047,20,Female,2024-11-04_16h46.42.021,jersey_experiment_5_v3,2023.2.2,Win32,85.47008547,,,,,,,,,,,,,,,,123.5335,125.0862,125.0862,128.6508,return,0.7014,,73.046875,0,14,14,24,1,FBP-PT-18.png,0.45,1.2,25,0.75,,,,,,,,,,,,,,,,,,,,,,,,,,,,,,,,,,,,,,,,,,,,,
,,,,,V3_047,20,Female,2024-11-04_16h46.42.021,jersey_experiment_5_v3,2023.2.2,Win32,85.47008547,,,,,,,,,,,,,,,,128.6511,130.2039,130.2039,133.3335,return,0.7531,,25.78125,0,15,15,21,1,FBP-PT-18.png,0.37,1.2,22,0.75,,,,,,,,,,,,,,,,,,,,,,,,,,,,,,,,,,,,,,,,,,,,,
,,,,,V3_047,20,Female,2024-11-04_16h46.42.021,jersey_experiment_5_v3,2023.2.2,Win32,85.47008547,,,,,,,,,,,,,,,,133.3338,134.8865,134.8866,136.7807,return,0.6147,,25.91145833,0,16,16,0,1,FBP-YG-71.png,0.35,1.2,1,0.75,,,,,,,,,,,,,,,,,,,,,,,,,,,,,,,,,,,,,,,,,,,,,
,,,,,V3_047,20,Female,2024-11-04_16h46.42.021,jersey_experiment_5_v3,2023.2.2,Win32,85.47008547,,,,,,,,,,,,,,,,136.781,138.3337,138.3338,140.1926,return,0.603,,25.91145833,0,17,17,55,1,FBP-RB-19.png,0.35,1.2,56,0.75,,,,,,,,,,,,,,,,,,,,,,,,,,,,,,,,,,,,,,,,,,,,,
,,,,,V3_047,20,Female,2024-11-04_16h46.42.021,jersey_experiment_5_v3,2023.2.2,Win32,85.47008547,,,,,,,,,,,,,,,,140.1929,141.7456,141.7457,144.7222,return,0.7402,,72.91666667,0,18,18,50,1,FBP-RB-18.png,0.35,1.2,51,0.75,,,,,,,,,,,,,,,,,,,,,,,,,,,,,,,,,,,,,,,,,,,,,
,,,,,V3_047,20,Female,2024-11-04_16h46.42.021,jersey_experiment_5_v3,2023.2.2,Win32,85.47008547,,,,,,,,,,,,,,,,144.7225,146.2753,146.2753,148.24,return,0.6745,,73.4375,0,19,19,11,1,FBP-YG-91.png,0.37,1.2,12,0.75,,,,,,,,,,,,,,,,,,,,,,,,,,,,,,,,,,,,,,,,,,,,,
,,,,,V3_047,20,Female,2024-11-04_16h46.42.021,jersey_experiment_5_v3,2023.2.2,Win32,85.47008547,,,,,,,,,,,,,,,,148.2403,149.793,149.793,153.452,return,0.7708,,99.609375,0,20,20,59,1,FBP-RB-19.png,0.45,1.2,60,0.75,,,,,,,,,,,,,,,,,,,,,,,,,,,,,,,,,,,,,,,,,,,,,
,,,,,V3_047,20,Female,2024-11-04_16h46.42.021,jersey_experiment_5_v3,2023.2.2,Win32,85.47008547,,,,,,,,,,,,,,,,153.4523,155.0049,155.0049,159.6285,return,2.5239,,74.73958333,0,21,21,6,1,FBP-YG-81.png,0.37,1.2,7,0.75,,,,,,,,,,,,,,,,,,,,,,,,,,,,,,,,,,,,,,,,,,,,,
,,,,,V3_047,20,Female,2024-11-04_16h46.42.021,jersey_experiment_5_v3,2023.2.2,Win32,85.47008547,,,,,,,,,,,,,,,,159.6287,161.1817,161.1817,164.6524,return,0.7208,,86.19791667,0,22,22,48,1,FBP-RB-17.png,0.43,1.2,49,0.75,,,,,,,,,,,,,,,,,,,,,,,,,,,,,,,,,,,,,,,,,,,,,
,,,,,V3_047,20,Female,2024-11-04_16h46.42.021,jersey_experiment_5_v3,2023.2.2,Win32,85.47008547,,,,,,,,,,,,,,,,164.6526,166.2053,166.2053,168.7819,return,0.6766,,98.828125,0,23,23,54,1,FBP-RB-18.png,0.45,1.2,55,0.75,,,,,,,,,,,,,,,,,,,,,,,,,,,,,,,,,,,,,,,,,,,,,
,,,,,V3_047,20,Female,2024-11-04_16h46.42.021,jersey_experiment_5_v3,2023.2.2,Win32,85.47008547,,,,,,,,,,,,,,,,168.7821,170.076,170.076,171.8408,return,0.7676,,99.08854167,0,24,24,34,1,FBP-OG-17.png,0.45,1.2,35,0.5,,,,,,,,,,,,,,,,,,,,,,,,,,,,,,,,,,,,,,,,,,,,,
,,,,,V3_047,20,Female,2024-11-04_16h46.42.021,jersey_experiment_5_v3,2023.2.2,Win32,85.47008547,,,,,,,,,,,,,,,,171.841,173.3939,173.3939,176.2056,return,0.7196,,99.86979167,0,25,25,58,1,FBP-RB-19.png,0.43,1.2,59,0.75,,,,,,,,,,,,,,,,,,,,,,,,,,,,,,,,,,,,,,,,,,,,,
,,,,,V3_047,20,Female,2024-11-04_16h46.42.021,jersey_experiment_5_v3,2023.2.2,Win32,85.47008547,,,,,,,,,,,,,,,,176.2059,177.7587,177.7587,179.8763,return,0.9751,,89.32291667,0,26,26,8,1,FBP-YG-81.png,0.43,1.2,9,0.75,,,,,,,,,,,,,,,,,,,,,,,,,,,,,,,,,,,,,,,,,,,,,
,,,,,V3_047,20,Female,2024-11-04_16h46.42.021,jersey_experiment_5_v3,2023.2.2,Win32,85.47008547,,,,,,,,,,,,,,,,179.8766,181.4296,181.4297,183.7,return,0.7434,,33.72395833,0,27,27,22,1,FBP-PT-18.png,0.4,1.2,23,0.75,,,,,,,,,,,,,,,,,,,,,,,,,,,,,,,,,,,,,,,,,,,,,
,,,,,V3_047,20,Female,2024-11-04_16h46.42.021,jersey_experiment_5_v3,2023.2.2,Win32,85.47008547,,,,,,,,,,,,,,,,183.7003,185.253,185.253,187.5472,return,0.7141,,64.453125,0,28,28,9,1,FBP-YG-81.png,0.45,1.2,10,0.75,,,,,,,,,,,,,,,,,,,,,,,,,,,,,,,,,,,,,,,,,,,,,
,,,,,V3_047,20,Female,2024-11-04_16h46.42.021,jersey_experiment_5_v3,2023.2.2,Win32,85.47008547,,,,,,,,,,,,,,,,187.5475,189.1002,189.1002,191.618,return,0.8337,,1.432291667,0,29,29,15,1,FBP-PT-17.png,0.35,1.2,16,0.75,,,,,,,,,,,,,,,,,,,,,,,,,,,,,,,,,,,,,,,,,,,,,
,,,,,V3_047,20,Female,2024-11-04_16h46.42.021,jersey_experiment_5_v3,2023.2.2,Win32,85.47008547,,,,,,,,,,,,,,,,191.6182,192.9121,192.9122,195.995,return,0.8427,,31.640625,0,30,30,32,1,FBP-OG-17.png,0.4,1.2,33,0.5,,,,,,,,,,,,,,,,,,,,,,,,,,,,,,,,,,,,,,,,,,,,,
,,,,,V3_047,20,Female,2024-11-04_16h46.42.021,jersey_experiment_5_v3,2023.2.2,Win32,85.47008547,,,,,,,,,,,,,,,,195.9954,197.2888,197.2888,198.83,return,0.6292,,31.77083333,0,31,31,42,1,FBP-OG-19.png,0.4,1.2,43,0.5,,,,,,,,,,,,,,,,,,,,,,,,,,,,,,,,,,,,,,,,,,,,,
,,,,,V3_047,20,Female,2024-11-04_16h46.42.021,jersey_experiment_5_v3,2023.2.2,Win32,85.47008547,,,,,,,,,,,,,,,,198.8303,200.383,200.383,202.3242,return,0.7165,,83.46354167,0,32,32,19,1,FBP-PT-17.png,0.45,1.2,20,0.75,,,,,,,,,,,,,,,,,,,,,,,,,,,,,,,,,,,,,,,,,,,,,
,,,,,V3_047,20,Female,2024-11-04_16h46.42.021,jersey_experiment_5_v3,2023.2.2,Win32,85.47008547,,,,,,,,,,,,,,,,202.3245,203.8772,203.8773,206.9009,return,1.0955,,24.21875,0,33,33,23,1,FBP-PT-18.png,0.43,1.2,24,0.75,,,,,,,,,,,,,,,,,,,,,,,,,,,,,,,,,,,,,,,,,,,,,
,,,,,V3_047,20,Female,2024-11-04_16h46.42.021,jersey_experiment_5_v3,2023.2.2,Win32,85.47008547,,,,,,,,,,,,,,,,206.9012,208.4539,208.454,209.8775,return,0.7155,,23.95833333,0,34,34,17,1,FBP-PT-17.png,0.4,1.2,18,0.75,,,,,,,,,,,,,,,,,,,,,,,,,,,,,,,,,,,,,,,,,,,,,
,,,,,V3_047,20,Female,2024-11-04_16h46.42.021,jersey_experiment_5_v3,2023.2.2,Win32,85.47008547,,,,,,,,,,,,,,,,209.8778,211.4304,211.4305,213.5012,return,0.7208,,79.296875,0,35,35,4,1,FBP-YG-71.png,0.45,1.2,5,0.75,,,,,,,,,,,,,,,,,,,,,,,,,,,,,,,,,,,,,,,,,,,,,
,,,,,V3_047,20,Female,2024-11-04_16h46.42.021,jersey_experiment_5_v3,2023.2.2,Win32,85.47008547,,,,,,,,,,,,,,,,213.5014,215.0543,215.0543,216.866,return,0.637,,24.21875,0,36,36,27,1,FBP-PT-19.png,0.4,1.2,28,0.75,,,,,,,,,,,,,,,,,,,,,,,,,,,,,,,,,,,,,,,,,,,,,
,,,,,V3_047,20,Female,2024-11-04_16h46.42.021,jersey_experiment_5_v3,2023.2.2,Win32,85.47008547,,,,,,,,,,,,,,,,216.8662,218.419,218.419,220.3838,return,0.6855,,83.72395833,0,37,37,53,1,FBP-RB-18.png,0.43,1.2,54,0.75,,,,,,,,,,,,,,,,,,,,,,,,,,,,,,,,,,,,,,,,,,,,,
,,,,,V3_047,20,Female,2024-11-04_16h46.42.021,jersey_experiment_5_v3,2023.2.2,Win32,85.47008547,,,,,,,,,,,,,,,,220.3839,221.9252,221.9252,223.7133,return,0.7183,,21.61458333,0,38,38,16,1,FBP-PT-17.png,0.37,1.2,17,0.75,,,,,,,,,,,,,,,,,,,,,,,,,,,,,,,,,,,,,,,,,,,,,
,,,,,V3_047,20,Female,2024-11-04_16h46.42.021,jersey_experiment_5_v3,2023.2.2,Win32,85.47008547,,,,,,,,,,,,,,,,223.7136,225.0075,225.0075,226.9253,return,0.6772,,8.984375,0,39,39,41,1,FBP-OG-19.png,0.37,1.2,42,0.5,,,,,,,,,,,,,,,,,,,,,,,,,,,,,,,,,,,,,,,,,,,,,
,,,,,V3_047,20,Female,2024-11-04_16h46.42.021,jersey_experiment_5_v3,2023.2.2,Win32,85.47008547,,,,,,,,,,,,,,,,226.9255,228.2192,228.2192,230.3842,return,0.7311,,87.63020833,0,40,40,43,1,FBP-OG-19.png,0.43,1.2,44,0.5,,,,,,,,,,,,,,,,,,,,,,,,,,,,,,,,,,,,,,,,,,,,,
,,,,,V3_047,20,Female,2024-11-04_16h46.42.021,jersey_experiment_5_v3,2023.2.2,Win32,85.47008547,,,,,,,,,,,,,,,,230.3845,231.6784,231.6784,233.9372,return,0.6963,,4.557291667,0,41,41,30,1,FBP-OG-17.png,0.35,1.2,31,0.5,,,,,,,,,,,,,,,,,,,,,,,,,,,,,,,,,,,,,,,,,,,,,
,,,,,V3_047,20,Female,2024-11-04_16h46.42.021,jersey_experiment_5_v3,2023.2.2,Win32,85.47008547,,,,,,,,,,,,,,,,233.9374,235.4901,235.4902,237.7962,return,0.7431,,98.56770833,0,42,42,3,1,FBP-YG-71.png,0.43,1.2,4,0.75,,,,,,,,,,,,,,,,,,,,,,,,,,,,,,,,,,,,,,,,,,,,,
,,,,,V3_047,20,Female,2024-11-04_16h46.42.021,jersey_experiment_5_v3,2023.2.2,Win32,85.47008547,,,,,,,,,,,,,,,,237.7964,239.3492,239.3492,242.0787,return,0.8502,,73.69791667,0,43,43,47,1,FBP-RB-17.png,0.4,1.2,48,0.75,,,,,,,,,,,,,,,,,,,,,,,,,,,,,,,,,,,,,,,,,,,,,
,,,,,V3_047,20,Female,2024-11-04_16h46.42.021,jersey_experiment_5_v3,2023.2.2,Win32,85.47008547,,,,,,,,,,,,,,,,242.0789,243.6317,243.6317,245.7142,return,0.8016,,84.24479167,0,44,44,14,1,FBP-YG-91.png,0.45,1.2,15,0.75,,,,,,,,,,,,,,,,,,,,,,,,,,,,,,,,,,,,,,,,,,,,,
,,,,,V3_047,20,Female,2024-11-04_16h46.42.021,jersey_experiment_5_v3,2023.2.2,Win32,85.47008547,,,,,,,,,,,,,,,,245.7143,247.2672,247.2672,250.1966,return,0.6977,,34.63541667,0,45,45,12,1,FBP-YG-91.png,0.4,1.2,13,0.75,,,,,,,,,,,,,,,,,,,,,,,,,,,,,,,,,,,,,,,,,,,,,
,,,,,V3_047,20,Female,2024-11-04_16h46.42.021,jersey_experiment_5_v3,2023.2.2,Win32,85.47008547,,,,,,,,,,,,,,,,250.1969,251.4908,251.4908,253.5732,return,0.7532,,6.901041667,0,46,46,35,1,FBP-OG-18.png,0.35,1.2,36,0.5,,,,,,,,,,,,,,,,,,,,,,,,,,,,,,,,,,,,,,,,,,,,,
,,,,,V3_047,20,Female,2024-11-04_16h46.42.021,jersey_experiment_5_v3,2023.2.2,Win32,85.47008547,,,,,,,,,,,,,,,,253.5735,254.8673,254.8674,256.4909,return,0.738,,6.901041667,0,47,47,40,1,FBP-OG-19.png,0.35,1.2,41,0.5,,,,,,,,,,,,,,,,,,,,,,,,,,,,,,,,,,,,,,,,,,,,,
,,,,,V3_047,20,Female,2024-11-04_16h46.42.021,jersey_experiment_5_v3,2023.2.2,Win32,85.47008547,,,,,,,,,,,,,,,,256.4911,257.7851,257.7851,259.2793,return,0.6851,,7.421875,0,48,48,36,1,FBP-OG-18.png,0.37,1.2,37,0.5,,,,,,,,,,,,,,,,,,,,,,,,,,,,,,,,,,,,,,,,,,,,,
,,,,,V3_047,20,Female,2024-11-04_16h46.42.021,jersey_experiment_5_v3,2023.2.2,Win32,85.47008547,,,,,,,,,,,,,,,,259.2795,260.8323,260.8323,264.7383,return,0.7065,,49.08854167,0,49,49,51,1,FBP-RB-18.png,0.37,1.2,52,0.75,,,,,,,,,,,,,,,,,,,,,,,,,,,,,,,,,,,,,,,,,,,,,
,,,,,V3_047,20,Female,2024-11-04_16h46.42.021,jersey_experiment_5_v3,2023.2.2,Win32,85.47008547,,,,,,,,,,,,,,,,264.7386,266.2913,266.2913,268.5738,return,0.6997,,55.98958333,0,50,50,10,1,FBP-YG-91.png,0.35,1.2,11,0.75,,,,,,,,,,,,,,,,,,,,,,,,,,,,,,,,,,,,,,,,,,,,,
,,,,,V3_047,20,Female,2024-11-04_16h46.42.021,jersey_experiment_5_v3,2023.2.2,Win32,85.47008547,,,,,,,,,,,,,,,,268.5742,270.1268,270.1268,272.6679,return,0.6176,,68.48958333,0,51,51,56,1,FBP-RB-19.png,0.37,1.2,57,0.75,,,,,,,,,,,,,,,,,,,,,,,,,,,,,,,,,,,,,,,,,,,,,
,,,,,V3_047,20,Female,2024-11-04_16h46.42.021,jersey_experiment_5_v3,2023.2.2,Win32,85.47008547,,,,,,,,,,,,,,,,272.6682,274.221,274.2211,276.2916,return,0.7441,,94.27083333,0,52,52,49,1,FBP-RB-17.png,0.45,1.2,50,0.75,,,,,,,,,,,,,,,,,,,,,,,,,,,,,,,,,,,,,,,,,,,,,
,,,,,V3_047,20,Female,2024-11-04_16h46.42.021,jersey_experiment_5_v3,2023.2.2,Win32,85.47008547,,,,,,,,,,,,,,,,276.292,277.8447,277.8448,279.6212,return,0.6666,,85.80729167,0,53,53,46,1,FBP-RB-17.png,0.37,1.2,47,0.75,,,,,,,,,,,,,,,,,,,,,,,,,,,,,,,,,,,,,,,,,,,,,
,,,,,V3_047,20,Female,2024-11-04_16h46.42.021,jersey_experiment_5_v3,2023.2.2,Win32,85.47008547,,,,,,,,,,,,,,,,279.6215,281.1742,281.1742,283.1037,return,0.7569,,68.88020833,0,54,54,1,1,FBP-YG-71.png,0.37,1.2,2,0.75,,,,,,,,,,,,,,,,,,,,,,,,,,,,,,,,,,,,,,,,,,,,,
,,,,,V3_047,20,Female,2024-11-04_16h46.42.021,jersey_experiment_5_v3,2023.2.2,Win32,85.47008547,,,,,,,,,,,,,,,,283.1039,284.6566,284.6567,287.4919,return,0.8218,,81.51041667,0,55,55,18,1,FBP-PT-17.png,0.43,1.2,19,0.75,,,,,,,,,,,,,,,,,,,,,,,,,,,,,,,,,,,,,,,,,,,,,
,,,,,V3_047,20,Female,2024-11-04_16h46.42.021,jersey_experiment_5_v3,2023.2.2,Win32,85.47008547,,,,,,,,,,,,,,,,287.4922,288.7863,288.7863,290.7511,return,0.7185,,67.05729167,0,56,56,37,1,FBP-OG-18.png,0.4,1.2,38,0.5,,,,,,,,,,,,,,,,,,,,,,,,,,,,,,,,,,,,,,,,,,,,,
,,,,,V3_047,20,Female,2024-11-04_16h46.42.021,jersey_experiment_5_v3,2023.2.2,Win32,85.47008547,,,,,,,,,,,,,,,,290.7513,292.304,292.304,294.2453,return,0.7292,,83.72395833,0,57,57,29,1,FBP-PT-19.png,0.45,1.2,30,0.75,,,,,,,,,,,,,,,,,,,,,,,,,,,,,,,,,,,,,,,,,,,,,
,,,,,V3_047,20,Female,2024-11-04_16h46.42.021,jersey_experiment_5_v3,2023.2.2,Win32,85.47008547,,,,,,,,,,,,,,,,294.2456,295.5394,295.5395,297.1513,return,0.6709,,84.375,0,58,58,39,1,FBP-OG-18.png,0.45,1.2,40,0.5,,,,,,,,,,,,,,,,,,,,,,,,,,,,,,,,,,,,,,,,,,,,,
,,,,,V3_047,20,Female,2024-11-04_16h46.42.021,jersey_experiment_5_v3,2023.2.2,Win32,85.47008547,,,,,,,,,,,,,,,,297.1516,298.7041,298.7042,300.316,return,0.6889,,68.48958333,0,59,59,2,1,FBP-YG-71.png,0.4,1.2,3,0.75,,,,,,,,,,,,,,,,,,,,,,,,,,,,,,,,,,,,,,,,,,,,,
,,,,,V3_047,20,Female,2024-11-04_16h46.42.021,jersey_experiment_5_v3,2023.2.2,Win32,85.47008547,,,,,,,,,,,,,,,,300.318,301.8693,301.8693,303.2927,return,0.6987,,84.11458333,,,,,,FBP-RB-91.png,0.45,1.2,60,0.75,0,0,0,59,1,,,,,,,,,,,,,,,,,,,,,,,,,,,,,,,,,,,,,,,,
,,,,,V3_047,20,Female,2024-11-04_16h46.42.021,jersey_experiment_5_v3,2023.2.2,Win32,85.47008547,,,,,,,,,,,,,,,,303.2929,304.8456,304.8456,306.5634,return,0.6691,,65.36458333,,,,,,FBP-PT-91.png,0.45,1.2,30,0.75,0,1,1,29,1,,,,,,,,,,,,,,,,,,,,,,,,,,,,,,,,,,,,,,,,
,,,,,V3_047,20,Female,2024-11-04_16h46.42.021,jersey_experiment_5_v3,2023.2.2,Win32,85.47008547,,,,,,,,,,,,,,,,306.5636,307.8575,307.8575,309.1402,return,0.6727,,65.36458333,,,,,,FBP-OG-71.png,0.4,1.2,33,0.5,0,2,2,32,1,,,,,,,,,,,,,,,,,,,,,,,,,,,,,,,,,,,,,,,,
,,,,,V3_047,20,Female,2024-11-04_16h46.42.021,jersey_experiment_5_v3,2023.2.2,Win32,85.47008547,,,,,,,,,,,,,,,,309.1406,310.6929,310.693,313.4225,return,1.6741,,38.15104167,,,,,,FBP-PT-91.png,0.43,1.2,29,0.75,0,3,3,28,1,,,,,,,,,,,,,,,,,,,,,,,,,,,,,,,,,,,,,,,,
,,,,,V3_047,20,Female,2024-11-04_16h46.42.021,jersey_experiment_5_v3,2023.2.2,Win32,85.47008547,,,,,,,,,,,,,,,,313.4227,314.9638,314.9638,316.7638,return,0.7119,,8.723958333,,,,,,FBP-RB-81.png,0.35,1.2,51,0.75,0,4,4,50,1,,,,,,,,,,,,,,,,,,,,,,,,,,,,,,,,,,,,,,,,
,,,,,V3_047,20,Female,2024-11-04_16h46.42.021,jersey_experiment_5_v3,2023.2.2,Win32,85.47008547,,,,,,,,,,,,,,,,316.764,318.3167,318.3168,320.1757,return,0.6979,,84.375,,,,,,FBP-RB-81.png,0.4,1.2,53,0.75,0,5,5,52,1,,,,,,,,,,,,,,,,,,,,,,,,,,,,,,,,,,,,,,,,
,,,,,V3_047,20,Female,2024-11-04_16h46.42.021,jersey_experiment_5_v3,2023.2.2,Win32,85.47008547,,,,,,,,,,,,,,,,320.1759,321.47,321.47,323.5994,return,0.6961,,20.703125,,,,,,FBP-OG-81.png,0.37,1.2,37,0.5,0,6,6,36,1,,,,,,,,,,,,,,,,,,,,,,,,,,,,,,,,,,,,,,,,
,,,,,V3_047,20,Female,2024-11-04_16h46.42.021,jersey_experiment_5_v3,2023.2.2,Win32,85.47008547,,,,,,,,,,,,,,,,323.5996,325.1522,325.1523,326.4111,return,0.6159,,20.44270833,,,,,,FBP-PT-91.png,0.4,1.2,28,0.75,0,7,7,27,1,,,,,,,,,,,,,,,,,,,,,,,,,,,,,,,,,,,,,,,,
,,,,,V3_047,20,Female,2024-11-04_16h46.42.021,jersey_experiment_5_v3,2023.2.2,Win32,85.47008547,,,,,,,,,,,,,,,,326.4114,327.7054,327.7054,329.0701,return,0.6996,,20.44270833,,,,,,FBP-OG-91.png,0.4,1.2,43,0.5,0,8,8,42,1,,,,,,,,,,,,,,,,,,,,,,,,,,,,,,,,,,,,,,,,
,,,,,V3_047,20,Female,2024-11-04_16h46.42.021,jersey_experiment_5_v3,2023.2.2,Win32,85.47008547,,,,,,,,,,,,,,,,329.0703,330.6232,330.6232,333.0348,return,0.8087,,63.28125,,,,,,FBP-YG-17.png,0.45,1.2,5,0.75,0,9,9,4,1,,,,,,,,,,,,,,,,,,,,,,,,,,,,,,,,,,,,,,,,
,,,,,V3_047,20,Female,2024-11-04_16h46.42.021,jersey_experiment_5_v3,2023.2.2,Win32,85.47008547,,,,,,,,,,,,,,,,333.0351,334.5881,334.5881,336.1762,return,0.6739,,73.4375,,,,,,FBP-YG-18.png,0.4,1.2,8,0.75,0,10,10,7,1,,,,,,,,,,,,,,,,,,,,,,,,,,,,,,,,,,,,,,,,
,,,,,V3_047,20,Female,2024-11-04_16h46.42.021,jersey_experiment_5_v3,2023.2.2,Win32,85.47008547,,,,,,,,,,,,,,,,336.1763,337.7175,337.7176,339.2351,return,0.6614,,73.4375,,,,,,FBP-RB-91.png,0.35,1.2,56,0.75,0,11,11,55,1,,,,,,,,,,,,,,,,,,,,,,,,,,,,,,,,,,,,,,,,
,,,,,V3_047,20,Female,2024-11-04_16h46.42.021,jersey_experiment_5_v3,2023.2.2,Win32,85.47008547,,,,,,,,,,,,,,,,339.2353,340.5292,340.5292,343.2824,return,0.6575,,22.00520833,,,,,,FBP-OG-81.png,0.4,1.2,38,0.5,0,12,12,37,1,,,,,,,,,,,,,,,,,,,,,,,,,,,,,,,,,,,,,,,,
,,,,,V3_047,20,Female,2024-11-04_16h46.42.021,jersey_experiment_5_v3,2023.2.2,Win32,85.47008547,,,,,,,,,,,,,,,,343.2827,344.8354,344.8354,346.1766,return,0.7053,,22.13541667,,,,,,FBP-YG-17.png,0.37,1.2,2,0.75,0,13,13,1,1,,,,,,,,,,,,,,,,,,,,,,,,,,,,,,,,,,,,,,,,
,,,,,V3_047,20,Female,2024-11-04_16h46.42.021,jersey_experiment_5_v3,2023.2.2,Win32,85.47008547,,,,,,,,,,,,,,,,346.1768,347.7296,347.7296,349.8827,return,0.7957,,73.95833333,,,,,,FBP-YG-19.png,0.45,1.2,15,0.75,0,14,14,14,1,,,,,,,,,,,,,,,,,,,,,,,,,,,,,,,,,,,,,,,,
,,,,,V3_047,20,Female,2024-11-04_16h46.42.021,jersey_experiment_5_v3,2023.2.2,Win32,85.47008547,,,,,,,,,,,,,,,,349.8829,351.1767,351.1767,353.2473,return,0.6505,,30.078125,,,,,,FBP-OG-81.png,0.35,1.2,36,0.5,0,15,15,35,1,,,,,,,,,,,,,,,,,,,,,,,,,,,,,,,,,,,,,,,,
,,,,,V3_047,20,Female,2024-11-04_16h46.42.021,jersey_experiment_5_v3,2023.2.2,Win32,85.47008547,,,,,,,,,,,,,,,,353.2477,354.8004,354.8005,356.2827,return,0.6675,,21.875,,,,,,FBP-YG-19.png,0.35,1.2,11,0.75,0,16,16,10,1,,,,,,,,,,,,,,,,,,,,,,,,,,,,,,,,,,,,,,,,
,,,,,V3_047,20,Female,2024-11-04_16h46.42.021,jersey_experiment_5_v3,2023.2.2,Win32,85.47008547,,,,,,,,,,,,,,,,356.283,357.577,357.5771,359.3299,return,0.7045,,14.19270833,,,,,,FBP-OG-71.png,0.37,1.2,32,0.5,0,17,17,31,1,,,,,,,,,,,,,,,,,,,,,,,,,,,,,,,,,,,,,,,,
,,,,,V3_047,20,Female,2024-11-04_16h46.42.021,jersey_experiment_5_v3,2023.2.2,Win32,85.47008547,,,,,,,,,,,,,,,,359.3301,360.6241,360.6241,362.1653,return,0.6354,,8.333333333,,,,,,FBP-OG-71.png,0.35,1.2,31,0.5,0,18,18,30,1,,,,,,,,,,,,,,,,,,,,,,,,,,,,,,,,,,,,,,,,
,,,,,V3_047,20,Female,2024-11-04_16h46.42.021,jersey_experiment_5_v3,2023.2.2,Win32,85.47008547,,,,,,,,,,,,,,,,362.1656,363.4595,363.4596,365.6008,return,0.6698,,83.984375,,,,,,FBP-OG-81.png,0.43,1.2,39,0.5,0,19,19,38,1,,,,,,,,,,,,,,,,,,,,,,,,,,,,,,,,,,,,,,,,
,,,,,V3_047,20,Female,2024-11-04_16h46.42.021,jersey_experiment_5_v3,2023.2.2,Win32,85.47008547,,,,,,,,,,,,,,,,365.6012,367.1538,367.1538,369.0832,return,0.7378,,12.76041667,,,,,,FBP-PT-91.png,0.35,1.2,26,0.75,0,20,20,25,1,,,,,,,,,,,,,,,,,,,,,,,,,,,,,,,,,,,,,,,,
,,,,,V3_047,20,Female,2024-11-04_16h46.42.021,jersey_experiment_5_v3,2023.2.2,Win32,85.47008547,,,,,,,,,,,,,,,,369.0835,370.6363,370.6364,373.3423,return,0.6503,,37.5,,,,,,FBP-YG-17.png,0.4,1.2,3,0.75,0,21,21,2,1,,,,,,,,,,,,,,,,,,,,,,,,,,,,,,,,,,,,,,,,
,,,,,V3_047,20,Female,2024-11-04_16h46.42.021,jersey_experiment_5_v3,2023.2.2,Win32,85.47008547,,,,,,,,,,,,,,,,373.3426,374.8952,374.8953,377.9542,return,0.7307,,22.39583333,,,,,,FBP-RB-91.png,0.37,1.2,57,0.75,0,22,22,56,1,,,,,,,,,,,,,,,,,,,,,,,,,,,,,,,,,,,,,,,,
,,,,,V3_047,20,Female,2024-11-04_16h46.42.021,jersey_experiment_5_v3,2023.2.2,Win32,85.47008547,,,,,,,,,,,,,,,,377.9545,379.2484,379.2484,381.5307,return,0.7617,,82.29166667,,,,,,FBP-OG-91.png,0.45,1.2,45,0.5,0,23,23,44,1,,,,,,,,,,,,,,,,,,,,,,,,,,,,,,,,,,,,,,,,
,,,,,V3_047,20,Female,2024-11-04_16h46.42.021,jersey_experiment_5_v3,2023.2.2,Win32,85.47008547,,,,,,,,,,,,,,,,381.5309,383.0838,383.0838,384.6603,return,0.6927,,88.80208333,,,,,,FBP-PT-81.png,0.43,1.2,24,0.75,0,24,24,23,1,,,,,,,,,,,,,,,,,,,,,,,,,,,,,,,,,,,,,,,,
,,,,,V3_047,20,Female,2024-11-04_16h46.42.021,jersey_experiment_5_v3,2023.2.2,Win32,85.47008547,,,,,,,,,,,,,,,,384.6606,385.9545,385.9545,387.9664,return,0.7093,,21.484375,,,,,,FBP-OG-91.png,0.37,1.2,42,0.5,0,25,25,41,1,,,,,,,,,,,,,,,,,,,,,,,,,,,,,,,,,,,,,,,,
,,,,,V3_047,20,Female,2024-11-04_16h46.42.021,jersey_experiment_5_v3,2023.2.2,Win32,85.47008547,,,,,,,,,,,,,,,,387.9665,389.2604,389.2605,392.6372,return,2.062,,66.796875,,,,,,FBP-OG-71.png,0.43,1.2,34,0.5,0,26,26,33,1,,,,,,,,,,,,,,,,,,,,,,,,,,,,,,,,,,,,,,,,
,,,,,V3_047,20,Female,2024-11-04_16h46.42.021,jersey_experiment_5_v3,2023.2.2,Win32,85.47008547,,,,,,,,,,,,,,,,392.6376,394.1901,394.1902,396.0373,return,0.7184,,33.85416667,,,,,,FBP-RB-71.png,0.37,1.2,47,0.75,0,27,27,46,1,,,,,,,,,,,,,,,,,,,,,,,,,,,,,,,,,,,,,,,,
,,,,,V3_047,20,Female,2024-11-04_16h46.42.021,jersey_experiment_5_v3,2023.2.2,Win32,85.47008547,,,,,,,,,,,,,,,,396.0375,397.5903,397.5904,399.0372,return,0.6726,,14.71354167,,,,,,FBP-YG-17.png,0.35,1.2,1,0.75,0,28,28,0,1,,,,,,,,,,,,,,,,,,,,,,,,,,,,,,,,,,,,,,,,
,,,,,V3_047,20,Female,2024-11-04_16h46.42.021,jersey_experiment_5_v3,2023.2.2,Win32,85.47008547,,,,,,,,,,,,,,,,399.0376,400.5904,400.5905,401.908,return,0.659,,18.88020833,,,,,,FBP-PT-81.png,0.4,1.2,23,0.75,0,29,29,22,1,,,,,,,,,,,,,,,,,,,,,,,,,,,,,,,,,,,,,,,,
,,,,,V3_047,20,Female,2024-11-04_16h46.42.021,jersey_experiment_5_v3,2023.2.2,Win32,85.47008547,,,,,,,,,,,,,,,,401.9084,403.4612,403.4612,405.0375,return,0.7203,,76.82291667,,,,,,FBP-RB-71.png,0.43,1.2,49,0.75,0,30,30,48,1,,,,,,,,,,,,,,,,,,,,,,,,,,,,,,,,,,,,,,,,
,,,,,V3_047,20,Female,2024-11-04_16h46.42.021,jersey_experiment_5_v3,2023.2.2,Win32,85.47008547,,,,,,,,,,,,,,,,405.0378,406.5906,406.5906,409.6378,return,2.0679,,31.90104167,,,,,,FBP-PT-91.png,0.37,1.2,27,0.75,0,31,31,26,1,,,,,,,,,,,,,,,,,,,,,,,,,,,,,,,,,,,,,,,,
,,,,,V3_047,20,Female,2024-11-04_16h46.42.021,jersey_experiment_5_v3,2023.2.2,Win32,85.47008547,,,,,,,,,,,,,,,,409.6381,411.1909,411.1909,413.2378,return,0.8736,,74.21875,,,,,,FBP-YG-19.png,0.43,1.2,14,0.75,0,32,32,13,1,,,,,,,,,,,,,,,,,,,,,,,,,,,,,,,,,,,,,,,,
,,,,,V3_047,20,Female,2024-11-04_16h46.42.021,jersey_experiment_5_v3,2023.2.2,Win32,85.47008547,,,,,,,,,,,,,,,,413.238,414.7909,414.7909,416.2025,return,0.6423,,74.21875,,,,,,FBP-RB-91.png,0.4,1.2,58,0.75,0,33,33,57,1,,,,,,,,,,,,,,,,,,,,,,,,,,,,,,,,,,,,,,,,
,,,,,V3_047,20,Female,2024-11-04_16h46.42.021,jersey_experiment_5_v3,2023.2.2,Win32,85.47008547,,,,,,,,,,,,,,,,416.2028,417.7556,417.7557,419.4027,return,0.7264,,91.015625,,,,,,FBP-RB-71.png,0.45,1.2,50,0.75,0,34,34,49,1,,,,,,,,,,,,,,,,,,,,,,,,,,,,,,,,,,,,,,,,
,,,,,V3_047,20,Female,2024-11-04_16h46.42.021,jersey_experiment_5_v3,2023.2.2,Win32,85.47008547,,,,,,,,,,,,,,,,419.403,420.9558,420.9559,423.2618,return,0.6844,,65.10416667,,,,,,FBP-RB-71.png,0.35,1.2,46,0.75,0,35,35,45,1,,,,,,,,,,,,,,,,,,,,,,,,,,,,,,,,,,,,,,,,
,,,,,V3_047,20,Female,2024-11-04_16h46.42.021,jersey_experiment_5_v3,2023.2.2,Win32,85.47008547,,,,,,,,,,,,,,,,423.262,424.8148,424.8148,426.4619,return,0.7578,,86.45833333,,,,,,FBP-RB-81.png,0.45,1.2,55,0.75,0,36,36,54,1,,,,,,,,,,,,,,,,,,,,,,,,,,,,,,,,,,,,,,,,
,,,,,V3_047,20,Female,2024-11-04_16h46.42.021,jersey_experiment_5_v3,2023.2.2,Win32,85.47008547,,,,,,,,,,,,,,,,426.4622,428.0148,428.0148,429.2973,return,0.6846,,74.21875,,,,,,FBP-YG-18.png,0.43,1.2,9,0.75,0,37,37,8,1,,,,,,,,,,,,,,,,,,,,,,,,,,,,,,,,,,,,,,,,
,,,,,V3_047,20,Female,2024-11-04_16h46.42.021,jersey_experiment_5_v3,2023.2.2,Win32,85.47008547,,,,,,,,,,,,,,,,429.2975,430.5914,430.5915,432.5798,return,0.745,,83.59375,,,,,,FBP-OG-71.png,0.45,1.2,35,0.5,0,38,38,34,1,,,,,,,,,,,,,,,,,,,,,,,,,,,,,,,,,,,,,,,,
,,,,,V3_047,20,Female,2024-11-04_16h46.42.021,jersey_experiment_5_v3,2023.2.2,Win32,85.47008547,,,,,,,,,,,,,,,,432.5801,434.1327,434.1327,436.2623,return,0.689,,68.61979167,,,,,,FBP-YG-19.png,0.4,1.2,13,0.75,0,39,39,12,1,,,,,,,,,,,,,,,,,,,,,,,,,,,,,,,,,,,,,,,,
,,,,,V3_047,20,Female,2024-11-04_16h46.42.021,jersey_experiment_5_v3,2023.2.2,Win32,85.47008547,,,,,,,,,,,,,,,,436.2625,437.8151,437.8152,440.2859,return,0.7461,,37.109375,,,,,,FBP-PT-71.png,0.43,1.2,19,0.75,0,40,40,18,1,,,,,,,,,,,,,,,,,,,,,,,,,,,,,,,,,,,,,,,,
,,,,,V3_047,20,Female,2024-11-04_16h46.42.021,jersey_experiment_5_v3,2023.2.2,Win32,85.47008547,,,,,,,,,,,,,,,,440.2862,441.8389,441.839,444.6507,return,1.9346,,55.72916667,,,,,,FBP-PT-71.png,0.4,1.2,18,0.75,0,41,41,17,1,,,,,,,,,,,,,,,,,,,,,,,,,,,,,,,,,,,,,,,,
,,,,,V3_047,20,Female,2024-11-04_16h46.42.021,jersey_experiment_5_v3,2023.2.2,Win32,85.47008547,,,,,,,,,,,,,,,,444.6509,446.2037,446.2037,448.0627,return,0.7224,,65.10416667,,,,,,FBP-PT-71.png,0.45,1.2,20,0.75,0,42,42,19,1,,,,,,,,,,,,,,,,,,,,,,,,,,,,,,,,,,,,,,,,
,,,,,V3_047,20,Female,2024-11-04_16h46.42.021,jersey_experiment_5_v3,2023.2.2,Win32,85.47008547,,,,,,,,,,,,,,,,448.0629,449.6155,449.6155,451.3922,return,0.6487,,65.49479167,,,,,,FBP-PT-81.png,0.45,1.2,25,0.75,0,43,43,24,1,,,,,,,,,,,,,,,,,,,,,,,,,,,,,,,,,,,,,,,,
,,,,,V3_047,20,Female,2024-11-04_16h46.42.021,jersey_experiment_5_v3,2023.2.2,Win32,85.47008547,,,,,,,,,,,,,,,,451.3925,452.9452,452.9453,454.8981,return,0.7072,,75.26041667,,,,,,FBP-RB-81.png,0.43,1.2,54,0.75,0,44,44,53,1,,,,,,,,,,,,,,,,,,,,,,,,,,,,,,,,,,,,,,,,
,,,,,V3_047,20,Female,2024-11-04_16h46.42.021,jersey_experiment_5_v3,2023.2.2,Win32,85.47008547,,,,,,,,,,,,,,,,454.8985,456.4513,456.4513,457.6277,return,0.6665,,75,,,,,,FBP-YG-17.png,0.43,1.2,4,0.75,0,45,45,3,1,,,,,,,,,,,,,,,,,,,,,,,,,,,,,,,,,,,,,,,,
,,,,,V3_047,20,Female,2024-11-04_16h46.42.021,jersey_experiment_5_v3,2023.2.2,Win32,85.47008547,,,,,,,,,,,,,,,,457.628,459.1807,459.1807,461.2514,return,0.682,,30.98958333,,,,,,FBP-PT-81.png,0.37,1.2,22,0.75,0,46,46,21,1,,,,,,,,,,,,,,,,,,,,,,,,,,,,,,,,,,,,,,,,
,,,,,V3_047,20,Female,2024-11-04_16h46.42.021,jersey_experiment_5_v3,2023.2.2,Win32,85.47008547,,,,,,,,,,,,,,,,461.2518,462.5455,462.5456,464.0986,return,0.6443,,22.00520833,,,,,,FBP-OG-91.png,0.43,1.2,44,0.5,0,47,47,43,1,,,,,,,,,,,,,,,,,,,,,,,,,,,,,,,,,,,,,,,,
,,,,,V3_047,20,Female,2024-11-04_16h46.42.021,jersey_experiment_5_v3,2023.2.2,Win32,85.47008547,,,,,,,,,,,,,,,,464.0987,465.6516,465.6516,466.981,return,0.6823,,25.390625,,,,,,FBP-PT-81.png,0.35,1.2,21,0.75,0,48,48,20,1,,,,,,,,,,,,,,,,,,,,,,,,,,,,,,,,,,,,,,,,
,,,,,V3_047,20,Female,2024-11-04_16h46.42.021,jersey_experiment_5_v3,2023.2.2,Win32,85.47008547,,,,,,,,,,,,,,,,466.9812,468.534,468.534,469.7929,return,0.7086,,27.21354167,,,,,,FBP-RB-81.png,0.37,1.2,52,0.75,0,49,49,51,1,,,,,,,,,,,,,,,,,,,,,,,,,,,,,,,,,,,,,,,,
,,,,,V3_047,20,Female,2024-11-04_16h46.42.021,jersey_experiment_5_v3,2023.2.2,Win32,85.47008547,,,,,,,,,,,,,,,,469.7931,471.3459,471.3459,472.6988,return,0.7256,,27.21354167,,,,,,FBP-RB-71.png,0.4,1.2,48,0.75,0,50,50,47,1,,,,,,,,,,,,,,,,,,,,,,,,,,,,,,,,,,,,,,,,
,,,,,V3_047,20,Female,2024-11-04_16h46.42.021,jersey_experiment_5_v3,2023.2.2,Win32,85.47008547,,,,,,,,,,,,,,,,472.699,474.2519,474.252,475.6989,return,0.6827,,25.65104167,,,,,,FBP-PT-71.png,0.37,1.2,17,0.75,0,51,51,16,1,,,,,,,,,,,,,,,,,,,,,,,,,,,,,,,,,,,,,,,,
,,,,,V3_047,20,Female,2024-11-04_16h46.42.021,jersey_experiment_5_v3,2023.2.2,Win32,85.47008547,,,,,,,,,,,,,,,,475.6993,477.2519,477.252,478.4637,return,0.7211,,25.26041667,,,,,,FBP-YG-19.png,0.37,1.2,12,0.75,0,52,52,11,1,,,,,,,,,,,,,,,,,,,,,,,,,,,,,,,,,,,,,,,,
,,,,,V3_047,20,Female,2024-11-04_16h46.42.021,jersey_experiment_5_v3,2023.2.2,Win32,85.47008547,,,,,,,,,,,,,,,,478.464,480.0168,480.0168,481.4286,return,0.6355,,25.26041667,,,,,,FBP-YG-18.png,0.35,1.2,6,0.75,0,53,53,5,1,,,,,,,,,,,,,,,,,,,,,,,,,,,,,,,,,,,,,,,,
,,,,,V3_047,20,Female,2024-11-04_16h46.42.021,jersey_experiment_5_v3,2023.2.2,Win32,85.47008547,,,,,,,,,,,,,,,,481.4288,482.7228,482.7229,484.8757,return,0.794,,2.473958333,,,,,,FBP-OG-91.png,0.35,1.2,41,0.5,0,54,54,40,1,,,,,,,,,,,,,,,,,,,,,,,,,,,,,,,,,,,,,,,,
,,,,,V3_047,20,Female,2024-11-04_16h46.42.021,jersey_experiment_5_v3,2023.2.2,Win32,85.47008547,,,,,,,,,,,,,,,,484.876,486.4288,486.4288,487.7465,return,0.6362,,2.34375,,,,,,FBP-PT-71.png,0.35,1.2,16,0.75,0,55,55,15,1,,,,,,,,,,,,,,,,,,,,,,,,,,,,,,,,,,,,,,,,
,,,,,V3_047,20,Female,2024-11-04_16h46.42.021,jersey_experiment_5_v3,2023.2.2,Win32,85.47008547,,,,,,,,,,,,,,,,487.7468,489.2994,489.2996,490.4995,return,0.6455,,2.864583333,,,,,,FBP-YG-18.png,0.37,1.2,7,0.75,0,56,56,6,1,,,,,,,,,,,,,,,,,,,,,,,,,,,,,,,,,,,,,,,,
,,,,,V3_047,20,Female,2024-11-04_16h46.42.021,jersey_experiment_5_v3,2023.2.2,Win32,85.47008547,,,,,,,,,,,,,,,,490.4996,492.0526,492.0526,494.0055,return,0.7139,,63.93229167,,,,,,FBP-RB-91.png,0.43,1.2,59,0.75,0,57,57,58,1,,,,,,,,,,,,,,,,,,,,,,,,,,,,,,,,,,,,,,,,
,,,,,V3_047,20,Female,2024-11-04_16h46.42.021,jersey_experiment_5_v3,2023.2.2,Win32,85.47008547,,,,,,,,,,,,,,,,494.0058,495.5588,495.5588,497.2526,return,0.753,,91.14583333,,,,,,FBP-YG-18.png,0.45,1.2,10,0.75,0,58,58,9,1,,,,,,,,,,,,,,,,,,,,,,,,,,,,,,,,,,,,,,,,
,,,,,V3_047,20,Female,2024-11-04_16h46.42.021,jersey_experiment_5_v3,2023.2.2,Win32,85.47008547,,,,,,,,,,,,,,,,497.2529,498.5468,498.5469,500.7822,return,0.6978,,89.58333333,,,,,,FBP-OG-81.png,0.45,1.2,40,0.5,0,59,59,39,1,,,,,,,,,,,,,,,,,,,,,,,,,,,,,,,,,,,,,,,,
,,,,,V3_047,20,Female,2024-11-04_16h46.42.021,jersey_experiment_5_v3,2023.2.2,Win32,85.47008547,,,,,,,,,,,,,,,,,,,,,,,,,,,,,,,,,,,,,,,500.7825,620.7749,,,,,,,,,,,,,,,,,,,,,,,,,,,,,,,,,,,,,,
,,,,,V3_047,20,Female,2024-11-04_16h46.42.021,jersey_experiment_5_v3,2023.2.2,Win32,85.47008547,,,,,,,,,,,,,,,,,,,,,,,,,,,,,,,,,,,,,,,,,620.7751,623.4223,return,2.6406,,,,,,,,,,,,,,,,,,,,,,,,,,,,,,,,,,
,,,,,V3_047,20,Female,2024-11-04_16h46.42.021,jersey_experiment_5_v3,2023.2.2,Win32,85.47008547,,,,,,,,,,,,,,,,623.4246,624.7162,624.7163,628.081,return,0.7887,,38.28125,,,,,,FBP-YG-81.png,0.37,1.2,7,0.5,,,,,,,,,,,,,0,0,0,6,1,,,,,,,,,,,,,,,,,,,,,,,,,,,,
,,,,,V3_047,20,Female,2024-11-04_16h46.42.021,jersey_experiment_5_v3,2023.2.2,Win32,85.47008547,,,,,,,,,,,,,,,,628.0815,629.6342,629.6342,631.7752,return,0.6708,,74.21875,,,,,,FBP-OG-18.png,0.45,1.2,40,0.75,,,,,,,,,,,,,0,1,1,39,1,,,,,,,,,,,,,,,,,,,,,,,,,,,,
,,,,,V3_047,20,Female,2024-11-04_16h46.42.021,jersey_experiment_5_v3,2023.2.2,Win32,85.47008547,,,,,,,,,,,,,,,,631.7755,633.0694,633.0694,634.7637,return,0.6665,,31.77083333,,,,,,FBP-PT-19.png,0.4,1.2,28,0.5,,,,,,,,,,,,,0,2,2,27,1,,,,,,,,,,,,,,,,,,,,,,,,,,,,
,,,,,V3_047,20,Female,2024-11-04_16h46.42.021,jersey_experiment_5_v3,2023.2.2,Win32,85.47008547,,,,,,,,,,,,,,,,634.7639,636.0578,636.0578,637.4579,return,0.6589,,28.25520833,,,,,,FBP-YG-71.png,0.35,1.2,1,0.5,,,,,,,,,,,,,0,3,3,0,1,,,,,,,,,,,,,,,,,,,,,,,,,,,,
,,,,,V3_047,20,Female,2024-11-04_16h46.42.021,jersey_experiment_5_v3,2023.2.2,Win32,85.47008547,,,,,,,,,,,,,,,,637.4582,638.752,638.752,640.6227,return,0.6479,,73.828125,,,,,,FBP-RB-17.png,0.43,1.2,49,0.5,,,,,,,,,,,,,0,4,4,48,1,,,,,,,,,,,,,,,,,,,,,,,,,,,,
,,,,,V3_047,20,Female,2024-11-04_16h46.42.021,jersey_experiment_5_v3,2023.2.2,Win32,85.47008547,,,,,,,,,,,,,,,,640.6228,641.9168,641.9168,643.2934,return,0.653,,83.984375,,,,,,FBP-PT-18.png,0.45,1.2,25,0.5,,,,,,,,,,,,,0,5,5,24,1,,,,,,,,,,,,,,,,,,,,,,,,,,,,
,,,,,V3_047,20,Female,2024-11-04_16h46.42.021,jersey_experiment_5_v3,2023.2.2,Win32,85.47008547,,,,,,,,,,,,,,,,643.2936,644.5875,644.5876,646.5171,return,0.6819,,31.77083333,,,,,,FBP-RB-17.png,0.35,1.2,46,0.5,,,,,,,,,,,,,0,6,6,45,1,,,,,,,,,,,,,,,,,,,,,,,,,,,,
,,,,,V3_047,20,Female,2024-11-04_16h46.42.021,jersey_experiment_5_v3,2023.2.2,Win32,85.47008547,,,,,,,,,,,,,,,,646.5173,647.8112,647.8112,649.6466,return,0.6518,,73.95833333,,,,,,FBP-RB-19.png,0.45,1.2,60,0.5,,,,,,,,,,,,,0,7,7,59,1,,,,,,,,,,,,,,,,,,,,,,,,,,,,
,,,,,V3_047,20,Female,2024-11-04_16h46.42.021,jersey_experiment_5_v3,2023.2.2,Win32,85.47008547,,,,,,,,,,,,,,,,649.6468,650.9406,650.9406,653.729,return,2.1284,,90.234375,,,,,,FBP-YG-91.png,0.43,1.2,14,0.5,,,,,,,,,,,,,0,8,8,13,1,,,,,,,,,,,,,,,,,,,,,,,,,,,,
,,,,,V3_047,20,Female,2024-11-04_16h46.42.021,jersey_experiment_5_v3,2023.2.2,Win32,85.47008547,,,,,,,,,,,,,,,,653.7293,655.0232,655.0233,658.3998,return,0.7446,,66.14583333,,,,,,FBP-PT-19.png,0.43,1.2,29,0.5,,,,,,,,,,,,,0,9,9,28,1,,,,,,,,,,,,,,,,,,,,,,,,,,,,
,,,,,V3_047,20,Female,2024-11-04_16h46.42.021,jersey_experiment_5_v3,2023.2.2,Win32,85.47008547,,,,,,,,,,,,,,,,658.3999,659.6939,659.6939,661.7647,return,0.6795,,66.66666667,,,,,,FBP-RB-19.png,0.4,1.2,58,0.5,,,,,,,,,,,,,0,10,10,57,1,,,,,,,,,,,,,,,,,,,,,,,,,,,,
,,,,,V3_047,20,Female,2024-11-04_16h46.42.021,jersey_experiment_5_v3,2023.2.2,Win32,85.47008547,,,,,,,,,,,,,,,,661.765,663.0587,663.0588,665.1884,return,0.8003,,31.11979167,,,,,,FBP-PT-18.png,0.4,1.2,23,0.5,,,,,,,,,,,,,0,11,11,22,1,,,,,,,,,,,,,,,,,,,,,,,,,,,,
,,,,,V3_047,20,Female,2024-11-04_16h46.42.021,jersey_experiment_5_v3,2023.2.2,Win32,85.47008547,,,,,,,,,,,,,,,,665.1886,666.4824,666.4825,667.7648,return,0.6237,,30.98958333,,,,,,FBP-RB-18.png,0.35,1.2,51,0.5,,,,,,,,,,,,,0,12,12,50,1,,,,,,,,,,,,,,,,,,,,,,,,,,,,
,,,,,V3_047,20,Female,2024-11-04_16h46.42.021,jersey_experiment_5_v3,2023.2.2,Win32,85.47008547,,,,,,,,,,,,,,,,667.765,669.3062,669.3063,671.6473,return,0.7424,,73.4375,,,,,,FBP-OG-17.png,0.45,1.2,35,0.75,,,,,,,,,,,,,0,13,13,34,1,,,,,,,,,,,,,,,,,,,,,,,,,,,,
,,,,,V3_047,20,Female,2024-11-04_16h46.42.021,jersey_experiment_5_v3,2023.2.2,Win32,85.47008547,,,,,,,,,,,,,,,,671.6476,672.9414,672.9416,675.5534,return,0.6847,,68.48958333,,,,,,FBP-PT-18.png,0.43,1.2,24,0.5,,,,,,,,,,,,,0,14,14,23,1,,,,,,,,,,,,,,,,,,,,,,,,,,,,
,,,,,V3_047,20,Female,2024-11-04_16h46.42.021,jersey_experiment_5_v3,2023.2.2,Win32,85.47008547,,,,,,,,,,,,,,,,675.5537,676.8475,676.8475,678.3535,return,0.7315,,64.84375,,,,,,FBP-YG-91.png,0.4,1.2,13,0.5,,,,,,,,,,,,,0,15,15,12,1,,,,,,,,,,,,,,,,,,,,,,,,,,,,
,,,,,V3_047,20,Female,2024-11-04_16h46.42.021,jersey_experiment_5_v3,2023.2.2,Win32,85.47008547,,,,,,,,,,,,,,,,678.3538,679.6476,679.6477,681.3771,return,0.6978,,84.375,,,,,,FBP-YG-91.png,0.45,1.2,15,0.5,,,,,,,,,,,,,0,16,16,14,1,,,,,,,,,,,,,,,,,,,,,,,,,,,,
,,,,,V3_047,20,Female,2024-11-04_16h46.42.021,jersey_experiment_5_v3,2023.2.2,Win32,85.47008547,,,,,,,,,,,,,,,,681.3773,682.6713,682.6713,684.4007,return,0.685,,68.88020833,,,,,,FBP-PT-17.png,0.4,1.2,18,0.5,,,,,,,,,,,,,0,17,17,17,1,,,,,,,,,,,,,,,,,,,,,,,,,,,,
,,,,,V3_047,20,Female,2024-11-04_16h46.42.021,jersey_experiment_5_v3,2023.2.2,Win32,85.47008547,,,,,,,,,,,,,,,,684.4009,685.6949,685.6949,686.8831,return,0.6511,,68.88020833,,,,,,FBP-RB-19.png,0.37,1.2,57,0.5,,,,,,,,,,,,,0,18,18,56,1,,,,,,,,,,,,,,,,,,,,,,,,,,,,
,,,,,V3_047,20,Female,2024-11-04_16h46.42.021,jersey_experiment_5_v3,2023.2.2,Win32,85.47008547,,,,,,,,,,,,,,,,686.8834,688.4361,688.4362,689.9186,return,0.6517,,34.24479167,,,,,,FBP-OG-17.png,0.4,1.2,33,0.75,,,,,,,,,,,,,0,19,19,32,1,,,,,,,,,,,,,,,,,,,,,,,,,,,,
,,,,,V3_047,20,Female,2024-11-04_16h46.42.021,jersey_experiment_5_v3,2023.2.2,Win32,85.47008547,,,,,,,,,,,,,,,,689.9188,691.2127,691.2127,693.4129,return,0.6827,,78.77604167,,,,,,FBP-YG-71.png,0.45,1.2,5,0.5,,,,,,,,,,,,,0,20,20,4,1,,,,,,,,,,,,,,,,,,,,,,,,,,,,
,,,,,V3_047,20,Female,2024-11-04_16h46.42.021,jersey_experiment_5_v3,2023.2.2,Win32,85.47008547,,,,,,,,,,,,,,,,693.4132,694.7071,694.7071,696.1424,return,0.674,,67.1875,,,,,,FBP-PT-17.png,0.43,1.2,19,0.5,,,,,,,,,,,,,0,21,21,18,1,,,,,,,,,,,,,,,,,,,,,,,,,,,,
,,,,,V3_047,20,Female,2024-11-04_16h46.42.021,jersey_experiment_5_v3,2023.2.2,Win32,85.47008547,,,,,,,,,,,,,,,,696.1426,697.4365,697.4366,698.8014,return,0.6371,,67.578125,,,,,,FBP-RB-18.png,0.43,1.2,54,0.5,,,,,,,,,,,,,0,22,22,53,1,,,,,,,,,,,,,,,,,,,,,,,,,,,,
,,,,,V3_047,20,Female,2024-11-04_16h46.42.021,jersey_experiment_5_v3,2023.2.2,Win32,85.47008547,,,,,,,,,,,,,,,,698.8016,700.0955,700.0955,701.7661,return,0.6668,,40.234375,,,,,,FBP-PT-17.png,0.37,1.2,17,0.5,,,,,,,,,,,,,0,23,23,16,1,,,,,,,,,,,,,,,,,,,,,,,,,,,,
,,,,,V3_047,20,Female,2024-11-04_16h46.42.021,jersey_experiment_5_v3,2023.2.2,Win32,85.47008547,,,,,,,,,,,,,,,,701.7664,703.0603,703.0603,704.9427,return,0.7106,,72.65625,,,,,,FBP-YG-71.png,0.43,1.2,4,0.5,,,,,,,,,,,,,0,24,24,3,1,,,,,,,,,,,,,,,,,,,,,,,,,,,,
,,,,,V3_047,20,Female,2024-11-04_16h46.42.021,jersey_experiment_5_v3,2023.2.2,Win32,85.47008547,,,,,,,,,,,,,,,,704.943,706.2369,706.237,707.5663,return,0.6051,,73.4375,,,,,,FBP-RB-18.png,0.4,1.2,53,0.5,,,,,,,,,,,,,0,25,25,52,1,,,,,,,,,,,,,,,,,,,,,,,,,,,,
,,,,,V3_047,20,Female,2024-11-04_16h46.42.021,jersey_experiment_5_v3,2023.2.2,Win32,85.47008547,,,,,,,,,,,,,,,,707.5665,708.8605,708.8605,711.5665,return,1.5795,,22.00520833,,,,,,FBP-PT-17.png,0.35,1.2,16,0.5,,,,,,,,,,,,,0,26,26,15,1,,,,,,,,,,,,,,,,,,,,,,,,,,,,
,,,,,V3_047,20,Female,2024-11-04_16h46.42.021,jersey_experiment_5_v3,2023.2.2,Win32,85.47008547,,,,,,,,,,,,,,,,711.5668,712.8607,712.8607,714.8489,return,0.6379,,34.89583333,,,,,,FBP-YG-71.png,0.37,1.2,2,0.5,,,,,,,,,,,,,0,27,27,1,1,,,,,,,,,,,,,,,,,,,,,,,,,,,,
,,,,,V3_047,20,Female,2024-11-04_16h46.42.021,jersey_experiment_5_v3,2023.2.2,Win32,85.47008547,,,,,,,,,,,,,,,,714.8492,716.4022,716.4022,717.9784,return,0.7932,,7.03125,,,,,,FBP-OG-17.png,0.35,1.2,31,0.75,,,,,,,,,,,,,0,28,28,30,1,,,,,,,,,,,,,,,,,,,,,,,,,,,,
,,,,,V3_047,20,Female,2024-11-04_16h46.42.021,jersey_experiment_5_v3,2023.2.2,Win32,85.47008547,,,,,,,,,,,,,,,,717.9786,719.5314,719.5315,722.4845,return,0.706,,70.57291667,,,,,,FBP-OG-18.png,0.4,1.2,38,0.75,,,,,,,,,,,,,0,29,29,37,1,,,,,,,,,,,,,,,,,,,,,,,,,,,,
,,,,,V3_047,20,Female,2024-11-04_16h46.42.021,jersey_experiment_5_v3,2023.2.2,Win32,85.47008547,,,,,,,,,,,,,,,,722.4847,723.7787,723.7787,725.8259,return,0.7764,,35.80729167,,,,,,FBP-YG-81.png,0.4,1.2,8,0.5,,,,,,,,,,,,,0,30,30,7,1,,,,,,,,,,,,,,,,,,,,,,,,,,,,
,,,,,V3_047,20,Female,2024-11-04_16h46.42.021,jersey_experiment_5_v3,2023.2.2,Win32,85.47008547,,,,,,,,,,,,,,,,725.826,727.3787,727.3787,728.8141,return,0.6523,,66.015625,,,,,,FBP-OG-19.png,0.4,1.2,43,0.75,,,,,,,,,,,,,0,31,31,42,1,,,,,,,,,,,,,,,,,,,,,,,,,,,,
,,,,,V3_047,20,Female,2024-11-04_16h46.42.021,jersey_experiment_5_v3,2023.2.2,Win32,85.47008547,,,,,,,,,,,,,,,,728.8144,730.1083,730.1083,732.8496,return,0.7312,,87.5,,,,,,FBP-PT-17.png,0.45,1.2,20,0.5,,,,,,,,,,,,,0,32,32,19,1,,,,,,,,,,,,,,,,,,,,,,,,,,,,
,,,,,V3_047,20,Female,2024-11-04_16h46.42.021,jersey_experiment_5_v3,2023.2.2,Win32,85.47008547,,,,,,,,,,,,,,,,732.85,734.4026,734.4026,736.0145,return,0.7461,,90.36458333,,,,,,FBP-OG-19.png,0.45,1.2,45,0.75,,,,,,,,,,,,,0,33,33,44,1,,,,,,,,,,,,,,,,,,,,,,,,,,,,
,,,,,V3_047,20,Female,2024-11-04_16h46.42.021,jersey_experiment_5_v3,2023.2.2,Win32,85.47008547,,,,,,,,,,,,,,,,736.0147,737.3089,737.3089,739.2616,return,0.7563,,30.859375,,,,,,FBP-PT-19.png,0.37,1.2,27,0.5,,,,,,,,,,,,,0,34,34,26,1,,,,,,,,,,,,,,,,,,,,,,,,,,,,
,,,,,V3_047,20,Female,2024-11-04_16h46.42.021,jersey_experiment_5_v3,2023.2.2,Win32,85.47008547,,,,,,,,,,,,,,,,739.2619,740.5558,740.5559,743.9088,return,2.7381,,9.114583333,,,,,,FBP-PT-19.png,0.35,1.2,26,0.5,,,,,,,,,,,,,0,35,35,25,1,,,,,,,,,,,,,,,,,,,,,,,,,,,,
,,,,,V3_047,20,Female,2024-11-04_16h46.42.021,jersey_experiment_5_v3,2023.2.2,Win32,85.47008547,,,,,,,,,,,,,,,,743.9091,745.4618,745.4619,747.0854,return,0.6649,,31.11979167,,,,,,FBP-OG-17.png,0.43,1.2,34,0.75,,,,,,,,,,,,,0,36,36,33,1,,,,,,,,,,,,,,,,,,,,,,,,,,,,
,,,,,V3_047,20,Female,2024-11-04_16h46.42.021,jersey_experiment_5_v3,2023.2.2,Win32,85.47008547,,,,,,,,,,,,,,,,747.0857,748.3796,748.3796,750.3325,return,0.699,,69.66145833,,,,,,FBP-YG-81.png,0.45,1.2,10,0.5,,,,,,,,,,,,,0,37,37,9,1,,,,,,,,,,,,,,,,,,,,,,,,,,,,
,,,,,V3_047,20,Female,2024-11-04_16h46.42.021,jersey_experiment_5_v3,2023.2.2,Win32,85.47008547,,,,,,,,,,,,,,,,750.3328,751.6267,751.6268,753.2503,return,0.7067,,72.78645833,,,,,,FBP-RB-17.png,0.4,1.2,48,0.5,,,,,,,,,,,,,0,38,38,47,1,,,,,,,,,,,,,,,,,,,,,,,,,,,,
,,,,,V3_047,20,Female,2024-11-04_16h46.42.021,jersey_experiment_5_v3,2023.2.2,Win32,85.47008547,,,,,,,,,,,,,,,,753.2506,754.8033,754.8033,756.9916,return,0.6153,,24.609375,,,,,,FBP-OG-18.png,0.37,1.2,37,0.75,,,,,,,,,,,,,0,39,39,36,1,,,,,,,,,,,,,,,,,,,,,,,,,,,,
,,,,,V3_047,20,Female,2024-11-04_16h46.42.021,jersey_experiment_5_v3,2023.2.2,Win32,85.47008547,,,,,,,,,,,,,,,,756.9919,758.5447,758.5447,759.7801,return,0.7057,,25.13020833,,,,,,FBP-OG-18.png,0.35,1.2,36,0.75,,,,,,,,,,,,,0,40,40,35,1,,,,,,,,,,,,,,,,,,,,,,,,,,,,
,,,,,V3_047,20,Female,2024-11-04_16h46.42.021,jersey_experiment_5_v3,2023.2.2,Win32,85.47008547,,,,,,,,,,,,,,,,759.7803,761.0742,761.0742,763.2272,return,0.7374,,82.55208333,,,,,,FBP-YG-81.png,0.43,1.2,9,0.5,,,,,,,,,,,,,0,41,41,8,1,,,,,,,,,,,,,,,,,,,,,,,,,,,,
,,,,,V3_047,20,Female,2024-11-04_16h46.42.021,jersey_experiment_5_v3,2023.2.2,Win32,85.47008547,,,,,,,,,,,,,,,,763.2275,764.5215,764.5215,766.6391,return,0.8042,,12.109375,,,,,,FBP-PT-18.png,0.37,1.2,22,0.5,,,,,,,,,,,,,0,42,42,21,1,,,,,,,,,,,,,,,,,,,,,,,,,,,,
,,,,,V3_047,20,Female,2024-11-04_16h46.42.021,jersey_experiment_5_v3,2023.2.2,Win32,85.47008547,,,,,,,,,,,,,,,,766.6394,767.9333,767.9333,770.204,return,0.9924,,69.921875,,,,,,FBP-YG-71.png,0.4,1.2,3,0.5,,,,,,,,,,,,,0,43,43,2,1,,,,,,,,,,,,,,,,,,,,,,,,,,,,
,,,,,V3_047,20,Female,2024-11-04_16h46.42.021,jersey_experiment_5_v3,2023.2.2,Win32,85.47008547,,,,,,,,,,,,,,,,770.2042,771.498,771.498,773.5335,return,0.6278,,27.99479167,,,,,,FBP-RB-17.png,0.37,1.2,47,0.5,,,,,,,,,,,,,0,44,44,46,1,,,,,,,,,,,,,,,,,,,,,,,,,,,,
,,,,,V3_047,20,Female,2024-11-04_16h46.42.021,jersey_experiment_5_v3,2023.2.2,Win32,85.47008547,,,,,,,,,,,,,,,,773.5337,775.0865,775.0865,776.8278,return,0.69,,89.97395833,,,,,,FBP-OG-18.png,0.43,1.2,39,0.75,,,,,,,,,,,,,0,45,45,38,1,,,,,,,,,,,,,,,,,,,,,,,,,,,,
,,,,,V3_047,20,Female,2024-11-04_16h46.42.021,jersey_experiment_5_v3,2023.2.2,Win32,85.47008547,,,,,,,,,,,,,,,,776.828,778.3807,778.3807,780.8514,return,1.8588,,77.86458333,,,,,,FBP-OG-17.png,0.37,1.2,32,0.75,,,,,,,,,,,,,0,46,46,31,1,,,,,,,,,,,,,,,,,,,,,,,,,,,,
,,,,,V3_047,20,Female,2024-11-04_16h46.42.021,jersey_experiment_5_v3,2023.2.2,Win32,85.47008547,,,,,,,,,,,,,,,,780.8516,782.1456,782.1456,785.0279,return,0.7525,,38.15104167,,,,,,FBP-RB-18.png,0.37,1.2,52,0.5,,,,,,,,,,,,,0,47,47,51,1,,,,,,,,,,,,,,,,,,,,,,,,,,,,
,,,,,V3_047,20,Female,2024-11-04_16h46.42.021,jersey_experiment_5_v3,2023.2.2,Win32,85.47008547,,,,,,,,,,,,,,,,785.0282,786.5812,786.5812,788.0987,return,0.7298,,16.40625,,,,,,FBP-OG-19.png,0.37,1.2,42,0.75,,,,,,,,,,,,,0,48,48,41,1,,,,,,,,,,,,,,,,,,,,,,,,,,,,
,,,,,V3_047,20,Female,2024-11-04_16h46.42.021,jersey_experiment_5_v3,2023.2.2,Win32,85.47008547,,,,,,,,,,,,,,,,788.099,789.6517,789.6518,791.5224,return,0.6847,,70.44270833,,,,,,FBP-OG-19.png,0.43,1.2,44,0.75,,,,,,,,,,,,,0,49,49,43,1,,,,,,,,,,,,,,,,,,,,,,,,,,,,
,,,,,V3_047,20,Female,2024-11-04_16h46.42.021,jersey_experiment_5_v3,2023.2.2,Win32,85.47008547,,,,,,,,,,,,,,,,791.5226,792.8164,792.8165,795.0401,return,0.662,,29.03645833,,,,,,FBP-RB-19.png,0.35,1.2,56,0.5,,,,,,,,,,,,,0,50,50,55,1,,,,,,,,,,,,,,,,,,,,,,,,,,,,
,,,,,V3_047,20,Female,2024-11-04_16h46.42.021,jersey_experiment_5_v3,2023.2.2,Win32,85.47008547,,,,,,,,,,,,,,,,795.0404,796.3342,796.3343,798.6755,return,0.7532,,91.92708333,,,,,,FBP-RB-19.png,0.43,1.2,59,0.5,,,,,,,,,,,,,0,51,51,58,1,,,,,,,,,,,,,,,,,,,,,,,,,,,,
,,,,,V3_047,20,Female,2024-11-04_16h46.42.021,jersey_experiment_5_v3,2023.2.2,Win32,85.47008547,,,,,,,,,,,,,,,,798.6757,799.9698,799.9698,802.2051,return,1.4772,,87.890625,,,,,,FBP-RB-18.png,0.45,1.2,55,0.5,,,,,,,,,,,,,0,52,52,54,1,,,,,,,,,,,,,,,,,,,,,,,,,,,,
,,,,,V3_047,20,Female,2024-11-04_16h46.42.021,jersey_experiment_5_v3,2023.2.2,Win32,85.47008547,,,,,,,,,,,,,,,,802.2053,803.4992,803.4993,805.3581,return,0.605,,30.859375,,,,,,FBP-PT-18.png,0.35,1.2,21,0.5,,,,,,,,,,,,,0,53,53,20,1,,,,,,,,,,,,,,,,,,,,,,,,,,,,
,,,,,V3_047,20,Female,2024-11-04_16h46.42.021,jersey_experiment_5_v3,2023.2.2,Win32,85.47008547,,,,,,,,,,,,,,,,805.3583,806.6524,806.6524,808.6407,return,0.6454,,67.44791667,,,,,,FBP-YG-91.png,0.37,1.2,12,0.5,,,,,,,,,,,,,0,54,54,11,1,,,,,,,,,,,,,,,,,,,,,,,,,,,,
,,,,,V3_047,20,Female,2024-11-04_16h46.42.021,jersey_experiment_5_v3,2023.2.2,Win32,85.47008547,,,,,,,,,,,,,,,,808.641,809.9348,809.9348,811.3936,return,0.7075,,67.83854167,,,,,,FBP-PT-19.png,0.45,1.2,30,0.5,,,,,,,,,,,,,0,55,55,29,1,,,,,,,,,,,,,,,,,,,,,,,,,,,,
,,,,,V3_047,20,Female,2024-11-04_16h46.42.021,jersey_experiment_5_v3,2023.2.2,Win32,85.47008547,,,,,,,,,,,,,,,,811.3939,812.6879,812.6879,814.0056,return,0.6674,,68.22916667,,,,,,FBP-YG-81.png,0.35,1.2,6,0.5,,,,,,,,,,,,,0,56,56,5,1,,,,,,,,,,,,,,,,,,,,,,,,,,,,
,,,,,V3_047,20,Female,2024-11-04_16h46.42.021,jersey_experiment_5_v3,2023.2.2,Win32,85.47008547,,,,,,,,,,,,,,,,814.006,815.5585,815.5586,817.4763,return,0.8136,,33.07291667,,,,,,FBP-OG-19.png,0.35,1.2,41,0.75,,,,,,,,,,,,,0,57,57,40,1,,,,,,,,,,,,,,,,,,,,,,,,,,,,
,,,,,V3_047,20,Female,2024-11-04_16h46.42.021,jersey_experiment_5_v3,2023.2.2,Win32,85.47008547,,,,,,,,,,,,,,,,817.4765,818.7705,818.7705,820.6765,return,0.7427,,73.4375,,,,,,FBP-RB-17.png,0.45,1.2,50,0.5,,,,,,,,,,,,,0,58,58,49,1,,,,,,,,,,,,,,,,,,,,,,,,,,,,
,,,,,V3_047,20,Female,2024-11-04_16h46.42.021,jersey_experiment_5_v3,2023.2.2,Win32,85.47008547,,,,,,,,,,,,,,,,820.6766,821.9705,821.9706,823.4529,return,0.7006,,73.56770833,,,,,,FBP-YG-91.png,0.35,1.2,11,0.5,,,,,,,,,,,,,0,59,59,10,1,,,,,,,,,,,,,,,,,,,,,,,,,,,,
,,,,,V3_047,20,Female,2024-11-04_16h46.42.021,jersey_experiment_5_v3,2023.2.2,Win32,85.47008547,,,,,,,,,,,,,,,,823.4549,824.7472,824.7472,826.253,return,0.6614,,87.5,,,,,,FBP-PT-91.png,0.45,1.2,30,0.5,,,,,,,,,,,,,,,,,,0,0,0,29,1,,,,,,,,,,,,,,,,,,,,,,,
,,,,,V3_047,20,Female,2024-11-04_16h46.42.021,jersey_experiment_5_v3,2023.2.2,Win32,85.47008547,,,,,,,,,,,,,,,,826.2533,827.806,827.806,829.1002,return,0.725,,89.58333333,,,,,,FBP-OG-71.png,0.43,1.2,34,0.75,,,,,,,,,,,,,,,,,,0,1,1,33,1,,,,,,,,,,,,,,,,,,,,,,,
,,,,,V3_047,20,Female,2024-11-04_16h46.42.021,jersey_experiment_5_v3,2023.2.2,Win32,85.47008547,,,,,,,,,,,,,,,,829.1004,830.3944,830.3944,832.465,return,0.7768,,14.84375,,,,,,FBP-PT-71.png,0.35,1.2,16,0.5,,,,,,,,,,,,,,,,,,0,2,2,15,1,,,,,,,,,,,,,,,,,,,,,,,
,,,,,V3_047,20,Female,2024-11-04_16h46.42.021,jersey_experiment_5_v3,2023.2.2,Win32,85.47008547,,,,,,,,,,,,,,,,832.4653,833.7593,833.7593,835.5711,return,0.6806,,61.328125,,,,,,FBP-PT-81.png,0.35,1.2,21,0.5,,,,,,,,,,,,,,,,,,0,3,3,20,1,,,,,,,,,,,,,,,,,,,,,,,
,,,,,V3_047,20,Female,2024-11-04_16h46.42.021,jersey_experiment_5_v3,2023.2.2,Win32,85.47008547,,,,,,,,,,,,,,,,835.5713,836.8653,836.8653,839.5005,return,0.6147,,83.07291667,,,,,,FBP-YG-17.png,0.43,1.2,4,0.5,,,,,,,,,,,,,,,,,,0,4,4,3,1,,,,,,,,,,,,,,,,,,,,,,,
,,,,,V3_047,20,Female,2024-11-04_16h46.42.021,jersey_experiment_5_v3,2023.2.2,Win32,85.47008547,,,,,,,,,,,,,,,,839.5007,840.7948,840.7949,842.8772,return,0.6278,,7.8125,,,,,,FBP-PT-81.png,0.37,1.2,22,0.5,,,,,,,,,,,,,,,,,,0,5,5,21,1,,,,,,,,,,,,,,,,,,,,,,,
,,,,,V3_047,20,Female,2024-11-04_16h46.42.021,jersey_experiment_5_v3,2023.2.2,Win32,85.47008547,,,,,,,,,,,,,,,,842.8775,844.1715,844.1715,845.3127,return,0.6598,,8.59375,,,,,,FBP-PT-91.png,0.37,1.2,27,0.5,,,,,,,,,,,,,,,,,,0,6,6,26,1,,,,,,,,,,,,,,,,,,,,,,,
,,,,,V3_047,20,Female,2024-11-04_16h46.42.021,jersey_experiment_5_v3,2023.2.2,Win32,85.47008547,,,,,,,,,,,,,,,,845.3129,846.6067,846.6067,848.0538,return,0.6456,,8.59375,,,,,,FBP-YG-19.png,0.45,1.2,15,0.5,,,,,,,,,,,,,,,,,,0,7,7,14,1,,,,,,,,,,,,,,,,,,,,,,,
,,,,,V3_047,20,Female,2024-11-04_16h46.42.021,jersey_experiment_5_v3,2023.2.2,Win32,85.47008547,,,,,,,,,,,,,,,,848.054,849.348,849.348,850.9716,return,0.5723,,36.58854167,,,,,,FBP-RB-91.png,0.37,1.2,57,0.5,,,,,,,,,,,,,,,,,,0,8,8,56,1,,,,,,,,,,,,,,,,,,,,,,,
,,,,,V3_047,20,Female,2024-11-04_16h46.42.021,jersey_experiment_5_v3,2023.2.2,Win32,85.47008547,,,,,,,,,,,,,,,,850.972,852.2657,852.2658,854.0306,return,0.72,,88.54166667,,,,,,FBP-RB-91.png,0.45,1.2,60,0.5,,,,,,,,,,,,,,,,,,0,9,9,59,1,,,,,,,,,,,,,,,,,,,,,,,
,,,,,V3_047,20,Female,2024-11-04_16h46.42.021,jersey_experiment_5_v3,2023.2.2,Win32,85.47008547,,,,,,,,,,,,,,,,854.0308,855.3248,855.3248,857.313,return,0.7082,,69.40104167,,,,,,FBP-YG-19.png,0.37,1.2,12,0.5,,,,,,,,,,,,,,,,,,0,10,10,11,1,,,,,,,,,,,,,,,,,,,,,,,
,,,,,V3_047,20,Female,2024-11-04_16h46.42.021,jersey_experiment_5_v3,2023.2.2,Win32,85.47008547,,,,,,,,,,,,,,,,857.3134,858.8661,858.8662,860.3721,return,0.7563,,29.03645833,,,,,,FBP-OG-71.png,0.35,1.2,31,0.75,,,,,,,,,,,,,,,,,,0,11,11,30,1,,,,,,,,,,,,,,,,,,,,,,,
,,,,,V3_047,20,Female,2024-11-04_16h46.42.021,jersey_experiment_5_v3,2023.2.2,Win32,85.47008547,,,,,,,,,,,,,,,,860.3722,861.925,861.925,863.0192,return,0.6436,,27.99479167,,,,,,FBP-OG-91.png,0.37,1.2,42,0.75,,,,,,,,,,,,,,,,,,0,12,12,41,1,,,,,,,,,,,,,,,,,,,,,,,
,,,,,V3_047,20,Female,2024-11-04_16h46.42.021,jersey_experiment_5_v3,2023.2.2,Win32,85.47008547,,,,,,,,,,,,,,,,863.0194,864.5722,864.5723,866.078,return,0.6747,,70.18229167,,,,,,FBP-OG-91.png,0.4,1.2,43,0.75,,,,,,,,,,,,,,,,,,0,13,13,42,1,,,,,,,,,,,,,,,,,,,,,,,
,,,,,V3_047,20,Female,2024-11-04_16h46.42.021,jersey_experiment_5_v3,2023.2.2,Win32,85.47008547,,,,,,,,,,,,,,,,866.0783,867.3722,867.3722,869.0076,return,0.6505,,59.765625,,,,,,FBP-RB-91.png,0.35,1.2,56,0.5,,,,,,,,,,,,,,,,,,0,14,14,55,1,,,,,,,,,,,,,,,,,,,,,,,
,,,,,V3_047,20,Female,2024-11-04_16h46.42.021,jersey_experiment_5_v3,2023.2.2,Win32,85.47008547,,,,,,,,,,,,,,,,869.0078,870.5607,870.5608,872.0666,return,0.7051,,89.453125,,,,,,FBP-OG-71.png,0.45,1.2,35,0.75,,,,,,,,,,,,,,,,,,0,15,15,34,1,,,,,,,,,,,,,,,,,,,,,,,
,,,,,V3_047,20,Female,2024-11-04_16h46.42.021,jersey_experiment_5_v3,2023.2.2,Win32,85.47008547,,,,,,,,,,,,,,,,872.0669,873.3607,873.3607,874.5607,return,0.626,,89.84375,,,,,,FBP-PT-71.png,0.45,1.2,20,0.5,,,,,,,,,,,,,,,,,,0,16,16,19,1,,,,,,,,,,,,,,,,,,,,,,,
,,,,,V3_047,20,Female,2024-11-04_16h46.42.021,jersey_experiment_5_v3,2023.2.2,Win32,85.47008547,,,,,,,,,,,,,,,,874.5609,875.8549,875.8549,877.4431,return,0.6675,,91.53645833,,,,,,FBP-YG-18.png,0.45,1.2,10,0.5,,,,,,,,,,,,,,,,,,0,17,17,9,1,,,,,,,,,,,,,,,,,,,,,,,
,,,,,V3_047,20,Female,2024-11-04_16h46.42.021,jersey_experiment_5_v3,2023.2.2,Win32,85.47008547,,,,,,,,,,,,,,,,877.4434,878.7373,878.7373,880.4433,return,0.679,,67.96875,,,,,,FBP-RB-81.png,0.35,1.2,51,0.5,,,,,,,,,,,,,,,,,,0,18,18,50,1,,,,,,,,,,,,,,,,,,,,,,,
,,,,,V3_047,20,Female,2024-11-04_16h46.42.021,jersey_experiment_5_v3,2023.2.2,Win32,85.47008547,,,,,,,,,,,,,,,,880.4435,881.9963,881.9963,883.4551,return,0.7217,,80.72916667,,,,,,FBP-OG-81.png,0.43,1.2,39,0.75,,,,,,,,,,,,,,,,,,0,19,19,38,1,,,,,,,,,,,,,,,,,,,,,,,
,,,,,V3_047,20,Female,2024-11-04_16h46.42.021,jersey_experiment_5_v3,2023.2.2,Win32,85.47008547,,,,,,,,,,,,,,,,883.4553,884.7493,884.7493,886.1258,return,0.7194,,81.38020833,,,,,,FBP-YG-17.png,0.45,1.2,5,0.5,,,,,,,,,,,,,,,,,,0,20,20,4,1,,,,,,,,,,,,,,,,,,,,,,,
,,,,,V3_047,20,Female,2024-11-04_16h46.42.021,jersey_experiment_5_v3,2023.2.2,Win32,85.47008547,,,,,,,,,,,,,,,,886.126,887.6789,887.6789,889.0906,return,0.6594,,87.23958333,,,,,,FBP-OG-91.png,0.45,1.2,45,0.75,,,,,,,,,,,,,,,,,,0,21,21,44,1,,,,,,,,,,,,,,,,,,,,,,,
,,,,,V3_047,20,Female,2024-11-04_16h46.42.021,jersey_experiment_5_v3,2023.2.2,Win32,85.47008547,,,,,,,,,,,,,,,,889.091,890.3848,890.3848,891.7259,return,0.6281,,93.75,,,,,,FBP-RB-81.png,0.43,1.2,54,0.5,,,,,,,,,,,,,,,,,,0,22,22,53,1,,,,,,,,,,,,,,,,,,,,,,,
,,,,,V3_047,20,Female,2024-11-04_16h46.42.021,jersey_experiment_5_v3,2023.2.2,Win32,85.47008547,,,,,,,,,,,,,,,,891.7262,893.2792,893.2792,895.0085,return,0.7321,,17.96875,,,,,,FBP-OG-81.png,0.35,1.2,36,0.75,,,,,,,,,,,,,,,,,,0,23,23,35,1,,,,,,,,,,,,,,,,,,,,,,,
,,,,,V3_047,20,Female,2024-11-04_16h46.42.021,jersey_experiment_5_v3,2023.2.2,Win32,85.47008547,,,,,,,,,,,,,,,,895.0088,896.3027,896.3028,897.938,return,0.6837,,22.65625,,,,,,FBP-YG-18.png,0.35,1.2,6,0.5,,,,,,,,,,,,,,,,,,0,24,24,5,1,,,,,,,,,,,,,,,,,,,,,,,
,,,,,V3_047,20,Female,2024-11-04_16h46.42.021,jersey_experiment_5_v3,2023.2.2,Win32,85.47008547,,,,,,,,,,,,,,,,897.9381,899.4795,899.4795,901.5499,return,0.6995,,3.645833333,,,,,,FBP-OG-91.png,0.35,1.2,41,0.75,,,,,,,,,,,,,,,,,,0,25,25,40,1,,,,,,,,,,,,,,,,,,,,,,,
,,,,,V3_047,20,Female,2024-11-04_16h46.42.021,jersey_experiment_5_v3,2023.2.2,Win32,85.47008547,,,,,,,,,,,,,,,,901.5501,902.8441,902.8441,905.1501,return,0.6524,,63.02083333,,,,,,FBP-PT-71.png,0.4,1.2,18,0.5,,,,,,,,,,,,,,,,,,0,26,26,17,1,,,,,,,,,,,,,,,,,,,,,,,
,,,,,V3_047,20,Female,2024-11-04_16h46.42.021,jersey_experiment_5_v3,2023.2.2,Win32,85.47008547,,,,,,,,,,,,,,,,905.1504,906.4442,906.4443,908.0443,return,0.7947,,63.93229167,,,,,,FBP-PT-81.png,0.4,1.2,23,0.5,,,,,,,,,,,,,,,,,,0,27,27,22,1,,,,,,,,,,,,,,,,,,,,,,,
,,,,,V3_047,20,Female,2024-11-04_16h46.42.021,jersey_experiment_5_v3,2023.2.2,Win32,85.47008547,,,,,,,,,,,,,,,,908.0445,909.3384,909.3385,911.4208,return,0.83,,36.19791667,,,,,,FBP-PT-91.png,0.35,1.2,26,0.5,,,,,,,,,,,,,,,,,,0,28,28,25,1,,,,,,,,,,,,,,,,,,,,,,,
,,,,,V3_047,20,Female,2024-11-04_16h46.42.021,jersey_experiment_5_v3,2023.2.2,Win32,85.47008547,,,,,,,,,,,,,,,,911.4212,912.7151,912.7151,915.4564,return,0.8624,,66.015625,,,,,,FBP-PT-91.png,0.4,1.2,28,0.5,,,,,,,,,,,,,,,,,,0,29,29,27,1,,,,,,,,,,,,,,,,,,,,,,,
,,,,,V3_047,20,Female,2024-11-04_16h46.42.021,jersey_experiment_5_v3,2023.2.2,Win32,85.47008547,,,,,,,,,,,,,,,,915.4566,916.7505,916.7506,918.5624,return,0.6716,,74.609375,,,,,,FBP-RB-91.png,0.43,1.2,59,0.5,,,,,,,,,,,,,,,,,,0,30,30,58,1,,,,,,,,,,,,,,,,,,,,,,,
,,,,,V3_047,20,Female,2024-11-04_16h46.42.021,jersey_experiment_5_v3,2023.2.2,Win32,85.47008547,,,,,,,,,,,,,,,,918.5627,920.1154,920.1154,921.5155,return,0.7136,,75.390625,,,,,,FBP-OG-91.png,0.43,1.2,44,0.75,,,,,,,,,,,,,,,,,,0,31,31,43,1,,,,,,,,,,,,,,,,,,,,,,,
,,,,,V3_047,20,Female,2024-11-04_16h46.42.021,jersey_experiment_5_v3,2023.2.2,Win32,85.47008547,,,,,,,,,,,,,,,,921.5157,922.8095,922.8096,924.9272,return,0.6949,,59.11458333,,,,,,FBP-YG-19.png,0.35,1.2,11,0.5,,,,,,,,,,,,,,,,,,0,32,32,10,1,,,,,,,,,,,,,,,,,,,,,,,
,,,,,V3_047,20,Female,2024-11-04_16h46.42.021,jersey_experiment_5_v3,2023.2.2,Win32,85.47008547,,,,,,,,,,,,,,,,924.9275,926.2214,926.2215,927.6214,return,0.698,,59.24479167,,,,,,FBP-RB-81.png,0.37,1.2,52,0.5,,,,,,,,,,,,,,,,,,0,33,33,51,1,,,,,,,,,,,,,,,,,,,,,,,
,,,,,V3_047,20,Female,2024-11-04_16h46.42.021,jersey_experiment_5_v3,2023.2.2,Win32,85.47008547,,,,,,,,,,,,,,,,927.6217,928.9157,928.9157,930.5156,return,0.7046,,59.50520833,,,,,,FBP-PT-91.png,0.43,1.2,29,0.5,,,,,,,,,,,,,,,,,,0,34,34,28,1,,,,,,,,,,,,,,,,,,,,,,,
,,,,,V3_047,20,Female,2024-11-04_16h46.42.021,jersey_experiment_5_v3,2023.2.2,Win32,85.47008547,,,,,,,,,,,,,,,,930.5159,931.8099,931.81,934.3159,return,0.8174,,70.18229167,,,,,,FBP-YG-19.png,0.4,1.2,13,0.5,,,,,,,,,,,,,,,,,,0,35,35,12,1,,,,,,,,,,,,,,,,,,,,,,,
,,,,,V3_047,20,Female,2024-11-04_16h46.42.021,jersey_experiment_5_v3,2023.2.2,Win32,85.47008547,,,,,,,,,,,,,,,,934.3161,935.61,935.6101,937.3865,return,0.7263,,82.8125,,,,,,FBP-YG-18.png,0.43,1.2,9,0.5,,,,,,,,,,,,,,,,,,0,36,36,8,1,,,,,,,,,,,,,,,,,,,,,,,
,,,,,V3_047,20,Female,2024-11-04_16h46.42.021,jersey_experiment_5_v3,2023.2.2,Win32,85.47008547,,,,,,,,,,,,,,,,937.3868,938.6807,938.6807,940.316,return,0.6982,,88.54166667,,,,,,FBP-YG-17.png,0.37,1.2,2,0.5,,,,,,,,,,,,,,,,,,0,37,37,1,1,,,,,,,,,,,,,,,,,,,,,,,
,,,,,V3_047,20,Female,2024-11-04_16h46.42.021,jersey_experiment_5_v3,2023.2.2,Win32,85.47008547,,,,,,,,,,,,,,,,940.3163,941.6103,941.6103,943.6456,return,0.6368,,92.83854167,,,,,,FBP-YG-19.png,0.43,1.2,14,0.5,,,,,,,,,,,,,,,,,,0,38,38,13,1,,,,,,,,,,,,,,,,,,,,,,,
,,,,,V3_047,20,Female,2024-11-04_16h46.42.021,jersey_experiment_5_v3,2023.2.2,Win32,85.47008547,,,,,,,,,,,,,,,,943.6458,944.9399,944.94,946.8692,return,0.7063,,38.54166667,,,,,,FBP-PT-71.png,0.37,1.2,17,0.5,,,,,,,,,,,,,,,,,,0,39,39,16,1,,,,,,,,,,,,,,,,,,,,,,,
,,,,,V3_047,20,Female,2024-11-04_16h46.42.021,jersey_experiment_5_v3,2023.2.2,Win32,85.47008547,,,,,,,,,,,,,,,,946.8696,948.1634,948.1635,949.4693,return,0.6414,,38.54166667,,,,,,FBP-RB-71.png,0.37,1.2,47,0.5,,,,,,,,,,,,,,,,,,0,40,40,46,1,,,,,,,,,,,,,,,,,,,,,,,
,,,,,V3_047,20,Female,2024-11-04_16h46.42.021,jersey_experiment_5_v3,2023.2.2,Win32,85.47008547,,,,,,,,,,,,,,,,949.4695,950.7635,950.7636,952.1753,return,0.6259,,41.53645833,,,,,,FBP-YG-18.png,0.37,1.2,7,0.5,,,,,,,,,,,,,,,,,,0,41,41,6,1,,,,,,,,,,,,,,,,,,,,,,,
,,,,,V3_047,20,Female,2024-11-04_16h46.42.021,jersey_experiment_5_v3,2023.2.2,Win32,85.47008547,,,,,,,,,,,,,,,,952.1757,953.4694,953.4695,955.0932,return,0.7061,,66.796875,,,,,,FBP-RB-81.png,0.4,1.2,53,0.5,,,,,,,,,,,,,,,,,,0,42,42,52,1,,,,,,,,,,,,,,,,,,,,,,,
,,,,,V3_047,20,Female,2024-11-04_16h46.42.021,jersey_experiment_5_v3,2023.2.2,Win32,85.47008547,,,,,,,,,,,,,,,,955.0934,956.3871,956.3872,957.8462,return,0.6431,,85.02604167,,,,,,FBP-RB-71.png,0.45,1.2,50,0.5,,,,,,,,,,,,,,,,,,0,43,43,49,1,,,,,,,,,,,,,,,,,,,,,,,
,,,,,V3_047,20,Female,2024-11-04_16h46.42.021,jersey_experiment_5_v3,2023.2.2,Win32,85.47008547,,,,,,,,,,,,,,,,957.8464,959.3992,959.3992,960.6227,return,0.624,,62.36979167,,,,,,FBP-OG-71.png,0.4,1.2,33,0.75,,,,,,,,,,,,,,,,,,0,44,44,32,1,,,,,,,,,,,,,,,,,,,,,,,
,,,,,V3_047,20,Female,2024-11-04_16h46.42.021,jersey_experiment_5_v3,2023.2.2,Win32,85.47008547,,,,,,,,,,,,,,,,960.623,962.1758,962.1758,963.564,return,0.6662,,92.578125,,,,,,FBP-OG-81.png,0.45,1.2,40,0.75,,,,,,,,,,,,,,,,,,0,45,45,39,1,,,,,,,,,,,,,,,,,,,,,,,
,,,,,V3_047,20,Female,2024-11-04_16h46.42.021,jersey_experiment_5_v3,2023.2.2,Win32,85.47008547,,,,,,,,,,,,,,,,963.5643,964.858,964.8581,966.1877,return,0.616,,86.58854167,,,,,,FBP-RB-91.png,0.4,1.2,58,0.5,,,,,,,,,,,,,,,,,,0,46,46,57,1,,,,,,,,,,,,,,,,,,,,,,,
,,,,,V3_047,20,Female,2024-11-04_16h46.42.021,jersey_experiment_5_v3,2023.2.2,Win32,85.47008547,,,,,,,,,,,,,,,,966.1879,967.7408,967.7408,969.5054,return,0.6598,,14.97395833,,,,,,FBP-OG-81.png,0.37,1.2,37,0.75,,,,,,,,,,,,,,,,,,0,47,47,36,1,,,,,,,,,,,,,,,,,,,,,,,
,,,,,V3_047,20,Female,2024-11-04_16h46.42.021,jersey_experiment_5_v3,2023.2.2,Win32,85.47008547,,,,,,,,,,,,,,,,969.5057,970.7996,970.7996,973.3173,return,0.6986,,61.45833333,,,,,,FBP-YG-18.png,0.4,1.2,8,0.5,,,,,,,,,,,,,,,,,,0,48,48,7,1,,,,,,,,,,,,,,,,,,,,,,,
,,,,,V3_047,20,Female,2024-11-04_16h46.42.021,jersey_experiment_5_v3,2023.2.2,Win32,85.47008547,,,,,,,,,,,,,,,,973.3176,974.6115,974.6115,975.7645,return,0.6362,,61.45833333,,,,,,FBP-YG-17.png,0.4,1.2,3,0.5,,,,,,,,,,,,,,,,,,0,49,49,2,1,,,,,,,,,,,,,,,,,,,,,,,
,,,,,V3_047,20,Female,2024-11-04_16h46.42.021,jersey_experiment_5_v3,2023.2.2,Win32,85.47008547,,,,,,,,,,,,,,,,975.7647,977.3173,977.3174,978.5762,return,0.6018,,61.97916667,,,,,,FBP-OG-81.png,0.4,1.2,38,0.75,,,,,,,,,,,,,,,,,,0,50,50,37,1,,,,,,,,,,,,,,,,,,,,,,,
,,,,,V3_047,20,Female,2024-11-04_16h46.42.021,jersey_experiment_5_v3,2023.2.2,Win32,85.47008547,,,,,,,,,,,,,,,,978.5764,979.8705,979.8706,981.5176,return,0.7225,,81.90104167,,,,,,FBP-PT-81.png,0.45,1.2,25,0.5,,,,,,,,,,,,,,,,,,0,51,51,24,1,,,,,,,,,,,,,,,,,,,,,,,
,,,,,V3_047,20,Female,2024-11-04_16h46.42.021,jersey_experiment_5_v3,2023.2.2,Win32,85.47008547,,,,,,,,,,,,,,,,981.5178,982.8118,982.8118,984.2823,return,0.6555,,69.27083333,,,,,,FBP-RB-71.png,0.35,1.2,46,0.5,,,,,,,,,,,,,,,,,,0,52,52,45,1,,,,,,,,,,,,,,,,,,,,,,,
,,,,,V3_047,20,Female,2024-11-04_16h46.42.021,jersey_experiment_5_v3,2023.2.2,Win32,85.47008547,,,,,,,,,,,,,,,,984.2825,985.5765,985.5766,986.9884,return,0.7245,,85.41666667,,,,,,FBP-RB-71.png,0.4,1.2,48,0.5,,,,,,,,,,,,,,,,,,0,53,53,47,1,,,,,,,,,,,,,,,,,,,,,,,
,,,,,V3_047,20,Female,2024-11-04_16h46.42.021,jersey_experiment_5_v3,2023.2.2,Win32,85.47008547,,,,,,,,,,,,,,,,986.9886,988.2826,988.2826,989.718,return,0.7213,,90.10416667,,,,,,FBP-RB-71.png,0.43,1.2,49,0.5,,,,,,,,,,,,,,,,,,0,54,54,48,1,,,,,,,,,,,,,,,,,,,,,,,
,,,,,V3_047,20,Female,2024-11-04_16h46.42.021,jersey_experiment_5_v3,2023.2.2,Win32,85.47008547,,,,,,,,,,,,,,,,989.7182,991.0121,991.0122,992.4592,return,0.7005,,93.61979167,,,,,,FBP-RB-81.png,0.45,1.2,55,0.5,,,,,,,,,,,,,,,,,,0,55,55,54,1,,,,,,,,,,,,,,,,,,,,,,,
,,,,,V3_047,20,Female,2024-11-04_16h46.42.021,jersey_experiment_5_v3,2023.2.2,Win32,85.47008547,,,,,,,,,,,,,,,,992.4594,993.7533,993.7533,995.7062,return,0.7238,,32.68229167,,,,,,FBP-YG-17.png,0.35,1.2,1,0.5,,,,,,,,,,,,,,,,,,0,56,56,0,1,,,,,,,,,,,,,,,,,,,,,,,
,,,,,V3_047,20,Female,2024-11-04_16h46.42.021,jersey_experiment_5_v3,2023.2.2,Win32,85.47008547,,,,,,,,,,,,,,,,995.7064,997.0004,997.0005,999.2124,return,0.5949,,85.41666667,,,,,,FBP-PT-71.png,0.43,1.2,19,0.5,,,,,,,,,,,,,,,,,,0,57,57,18,1,,,,,,,,,,,,,,,,,,,,,,,
,,,,,V3_047,20,Female,2024-11-04_16h46.42.021,jersey_experiment_5_v3,2023.2.2,Win32,85.47008547,,,,,,,,,,,,,,,,999.2127,1000.5065,1000.5066,1001.7771,return,0.6938,,85.41666667,,,,,,FBP-PT-81.png,0.43,1.2,24,0.5,,,,,,,,,,,,,,,,,,0,58,58,23,1,,,,,,,,,,,,,,,,,,,,,,,
,,,,,V3_047,20,Female,2024-11-04_16h46.42.021,jersey_experiment_5_v3,2023.2.2,Win32,85.47008547,,,,,,,,,,,,,,,,1001.7773,1003.3301,1003.3301,1005.0126,return,0.627,,82.16145833,,,,,,FBP-OG-71.png,0.37,1.2,32,0.75,,,,,,,,,,,,,,,,,,0,59,59,31,1,,,,,,,,,,,,,,,,,,,,,,,
,,,,,V3_047,20,Female,2024-11-04_16h46.42.021,jersey_experiment_5_v3,2023.2.2,Win32,85.47008547,,,,,,,,,,,,,,,,,,,,,,,,,,,,,,,,,,,,,,,,,,,,,,,,,,,,,,,,1005.0128,1009.8718,return,4.8506,,,,,,,,,,,,,,,,,,,
,,,,,V3_047,20,Female,2024-11-04_16h46.42.021,jersey_experiment_5_v3,2023.2.2,Win32,85.47008547,,,,,,,,,,,,,,,,,,,,,,,,,,,,,,,,,,,,,,,,,,,,,,,,,,,,,,,,,,,,,1009.8719,1017.331,1,5.6984,return,1.7405,,,,,,,,,,,,
,,,,,V3_047,20,Female,2024-11-04_16h46.42.021,jersey_experiment_5_v3,2023.2.2,Win32,85.47008547,,,,,,,,,,,,,,,,,,,,,,,,,,,,,,,,,,,,,,,,,,,,,,,,,,,,,,,,,,,,,,,,,,,,1017.3311,1075.9101,weight perception on race when then image is becoming bigger or smaller,right,48.51,,,,,,
,,,,,V3_047,20,Female,2024-11-04_16h46.42.021,jersey_experiment_5_v3,2023.2.2,Win32,85.47008547,,,,,,,,,,,,,,,,,,,,,,,,,,,,,,,,,,,,,,,,,,,,,,,,,,,,,,,,,,,,,,,,,,,,,,,,,,1075.9102,1079.4862,return,3.5688,