requirements.started,requirements.stopped,key_resp_3.keys,key_resp_3.rt,key_resp_3.duration,Subject ID,Age,Gender,date,expName,psychopyVersion,OS,frameRate,instructions1.started,instructions1.stopped,key_resp.keys,key_resp.rt,key_resp.duration,example.started,example.stopped,enter_2.keys,enter_2.rt,enter_2.duration,instructions2.started,instructions2.stopped,enter_3.keys,enter_3.rt,enter_3.duration,image.started,image.stopped,slider_2.started,slider_2.stopped,next.keys,next.rt,next.duration,slider.response,trial_block_1.thisRepN,trial_block_1.thisTrialN,trial_block_1.thisN,trial_block_1.thisIndex,trial_block_1.ran,Path,Width,Height,Index,Duration,trial_block_2.thisRepN,trial_block_2.thisTrialN,trial_block_2.thisN,trial_block_2.thisIndex,trial_block_2.ran,rest_break.started,rest_break.stopped,end_break.started,end_break.stopped,key_resp_5.keys,key_resp_5.rt,key_resp_5.duration,trial_block_3.thisRepN,trial_block_3.thisTrialN,trial_block_3.thisN,trial_block_3.thisIndex,trial_block_3.ran,trial_block_4.thisRepN,trial_block_4.thisTrialN,trial_block_4.thisN,trial_block_4.thisIndex,trial_block_4.ran,questions_intro.started,questions_intro.stopped,enter_12.keys,enter_12.rt,enter_12.duration,question2.started,question2.stopped,question_doingbest.response,question_doingbest.rt,enter_15.keys,enter_15.rt,enter_15.duration,pattern.started,pattern.stopped,pattern_2.text,enter_17.keys,enter_17.rt,enter_17.duration,thankyou.started,thankyou.stopped,enter_14.keys,enter_14.rt,enter_14.duration
0,16.0708,return,16.0549,,V3_010,18,female,2024-10-15_15h50.25.944,jersey_experiment_5_v3,2023.2.2,Win32,84.74576271,,,,,,,,,,,,,,,,,,,,,,,,,,,,,,,,,,,,,,,,,,,,,,,,,,,,,,,,,,,,,,,,,,,,,,,,,,,,,,
,,,,,V3_010,18,female,2024-10-15_15h50.25.944,jersey_experiment_5_v3,2023.2.2,Win32,84.74576271,16.0709,26.3534,return,10.2616,,,,,,,,,,,,,,,,,,,,,,,,,,,,,,,,,,,,,,,,,,,,,,,,,,,,,,,,,,,,,,,,,,,,,,,,,,
,,,,,V3_010,18,female,2024-10-15_15h50.25.944,jersey_experiment_5_v3,2023.2.2,Win32,84.74576271,,,,,,26.3535,30.989,return,4.6025,,,,,,,,,,,,,,,,,,,,,,,,,,,,,,,,,,,,,,,,,,,,,,,,,,,,,,,,,,,,,,,,,,,,,
,,,,,V3_010,18,female,2024-10-15_15h50.25.944,jersey_experiment_5_v3,2023.2.2,Win32,84.74576271,,,,,,,,,,,30.9892,50.7426,return,19.7393,,,,,,,,,,,,,,,,,,,,,,,,,,,,,,,,,,,,,,,,,,,,,,,,,,,,,,,,,,,,,,,,
,,,,,V3_010,18,female,2024-10-15_15h50.25.944,jersey_experiment_5_v3,2023.2.2,Win32,84.74576271,,,,,,,,,,,,,,,,50.7451,52.2959,52.2961,61.2842,return,3.402,,75.13020833,0,0,0,23,1,FBP-PT-18.png,0.43,1.2,24,0.75,,,,,,,,,,,,,,,,,,,,,,,,,,,,,,,,,,,,,,,,,,,,,
,,,,,V3_010,18,female,2024-10-15_15h50.25.944,jersey_experiment_5_v3,2023.2.2,Win32,84.74576271,,,,,,,,,,,,,,,,61.2847,62.8371,62.8371,67.6135,return,1.2053,,99.47916667,0,1,1,8,1,FBP-YG-81.png,0.43,1.2,9,0.75,,,,,,,,,,,,,,,,,,,,,,,,,,,,,,,,,,,,,,,,,,,,,
,,,,,V3_010,18,female,2024-10-15_15h50.25.944,jersey_experiment_5_v3,2023.2.2,Win32,84.74576271,,,,,,,,,,,,,,,,67.6139,69.1666,69.1666,71.7432,return,0.2513,,24.609375,0,2,2,25,1,FBP-PT-19.png,0.35,1.2,26,0.75,,,,,,,,,,,,,,,,,,,,,,,,,,,,,,,,,,,,,,,,,,,,,
,,,,,V3_010,18,female,2024-10-15_15h50.25.944,jersey_experiment_5_v3,2023.2.2,Win32,84.74576271,,,,,,,,,,,,,,,,71.7434,73.2963,73.2964,75.0141,return,0.2356,,49.73958333,0,3,3,17,1,FBP-PT-17.png,0.4,1.2,18,0.75,,,,,,,,,,,,,,,,,,,,,,,,,,,,,,,,,,,,,,,,,,,,,
,,,,,V3_010,18,female,2024-10-15_15h50.25.944,jersey_experiment_5_v3,2023.2.2,Win32,84.74576271,,,,,,,,,,,,,,,,75.0145,76.5669,76.567,80.3083,return,1.1057,,99.86979167,0,4,4,19,1,FBP-PT-17.png,0.45,1.2,20,0.75,,,,,,,,,,,,,,,,,,,,,,,,,,,,,,,,,,,,,,,,,,,,,
,,,,,V3_010,18,female,2024-10-15_15h50.25.944,jersey_experiment_5_v3,2023.2.2,Win32,84.74576271,,,,,,,,,,,,,,,,80.3087,81.8612,81.8613,83.3554,return,0.3137,,25.52083333,0,5,5,51,1,FBP-RB-18.png,0.37,1.2,52,0.75,,,,,,,,,,,,,,,,,,,,,,,,,,,,,,,,,,,,,,,,,,,,,
,,,,,V3_010,18,female,2024-10-15_15h50.25.944,jersey_experiment_5_v3,2023.2.2,Win32,84.74576271,,,,,,,,,,,,,,,,83.3558,84.9085,84.9086,92.5322,return,1.4023,,49.86979167,0,6,6,59,1,FBP-RB-19.png,0.45,1.2,60,0.75,,,,,,,,,,,,,,,,,,,,,,,,,,,,,,,,,,,,,,,,,,,,,
,,,,,V3_010,18,female,2024-10-15_15h50.25.944,jersey_experiment_5_v3,2023.2.2,Win32,84.74576271,,,,,,,,,,,,,,,,92.5325,93.8264,93.8264,96.4385,return,0.5683,,87.23958333,0,7,7,44,1,FBP-OG-19.png,0.45,1.2,45,0.5,,,,,,,,,,,,,,,,,,,,,,,,,,,,,,,,,,,,,,,,,,,,,
,,,,,V3_010,18,female,2024-10-15_15h50.25.944,jersey_experiment_5_v3,2023.2.2,Win32,84.74576271,,,,,,,,,,,,,,,,96.4388,97.9911,97.9913,100.5443,return,0.2494,,62.36979167,0,8,8,2,1,FBP-YG-71.png,0.4,1.2,3,0.75,,,,,,,,,,,,,,,,,,,,,,,,,,,,,,,,,,,,,,,,,,,,,
,,,,,V3_010,18,female,2024-10-15_15h50.25.944,jersey_experiment_5_v3,2023.2.2,Win32,84.74576271,,,,,,,,,,,,,,,,100.5446,102.0974,102.0975,104.0149,return,0.8275,,99.21875,0,9,9,4,1,FBP-YG-71.png,0.45,1.2,5,0.75,,,,,,,,,,,,,,,,,,,,,,,,,,,,,,,,,,,,,,,,,,,,,
,,,,,V3_010,18,female,2024-10-15_15h50.25.944,jersey_experiment_5_v3,2023.2.2,Win32,84.74576271,,,,,,,,,,,,,,,,104.0153,105.5682,105.5682,107.8858,return,0.3238,,20.44270833,0,10,10,11,1,FBP-YG-91.png,0.37,1.2,12,0.75,,,,,,,,,,,,,,,,,,,,,,,,,,,,,,,,,,,,,,,,,,,,,
,,,,,V3_010,18,female,2024-10-15_15h50.25.944,jersey_experiment_5_v3,2023.2.2,Win32,84.74576271,,,,,,,,,,,,,,,,107.8862,109.1798,109.1799,111.4859,return,0.2766,,68.48958333,0,11,11,39,1,FBP-OG-18.png,0.45,1.2,40,0.5,,,,,,,,,,,,,,,,,,,,,,,,,,,,,,,,,,,,,,,,,,,,,
,,,,,V3_010,18,female,2024-10-15_15h50.25.944,jersey_experiment_5_v3,2023.2.2,Win32,84.74576271,,,,,,,,,,,,,,,,111.4862,113.0388,113.0388,114.9566,return,0.2655,,40.88541667,0,12,12,50,1,FBP-RB-18.png,0.35,1.2,51,0.75,,,,,,,,,,,,,,,,,,,,,,,,,,,,,,,,,,,,,,,,,,,,,
,,,,,V3_010,18,female,2024-10-15_15h50.25.944,jersey_experiment_5_v3,2023.2.2,Win32,84.74576271,,,,,,,,,,,,,,,,114.9568,116.5096,116.5096,120.0511,return,0.3311,,47.52604167,0,13,13,0,1,FBP-YG-71.png,0.35,1.2,1,0.75,,,,,,,,,,,,,,,,,,,,,,,,,,,,,,,,,,,,,,,,,,,,,
,,,,,V3_010,18,female,2024-10-15_15h50.25.944,jersey_experiment_5_v3,2023.2.2,Win32,84.74576271,,,,,,,,,,,,,,,,120.0515,121.6038,121.604,123.9099,return,0.3401,,89.453125,0,14,14,54,1,FBP-RB-18.png,0.45,1.2,55,0.75,,,,,,,,,,,,,,,,,,,,,,,,,,,,,,,,,,,,,,,,,,,,,
,,,,,V3_010,18,female,2024-10-15_15h50.25.944,jersey_experiment_5_v3,2023.2.2,Win32,84.74576271,,,,,,,,,,,,,,,,123.9104,125.2041,125.2041,127.1334,return,0.3228,,13.41145833,0,15,15,36,1,FBP-OG-18.png,0.37,1.2,37,0.5,,,,,,,,,,,,,,,,,,,,,,,,,,,,,,,,,,,,,,,,,,,,,
,,,,,V3_010,18,female,2024-10-15_15h50.25.944,jersey_experiment_5_v3,2023.2.2,Win32,84.74576271,,,,,,,,,,,,,,,,127.1338,128.4276,128.4277,131.5101,return,0.5517,,60.80729167,0,16,16,33,1,FBP-OG-17.png,0.43,1.2,34,0.5,,,,,,,,,,,,,,,,,,,,,,,,,,,,,,,,,,,,,,,,,,,,,
,,,,,V3_010,18,female,2024-10-15_15h50.25.944,jersey_experiment_5_v3,2023.2.2,Win32,84.74576271,,,,,,,,,,,,,,,,131.5104,133.0632,133.0632,136.9339,return,0.7667,,16.92708333,0,17,17,10,1,FBP-YG-91.png,0.35,1.2,11,0.75,,,,,,,,,,,,,,,,,,,,,,,,,,,,,,,,,,,,,,,,,,,,,
,,,,,V3_010,18,female,2024-10-15_15h50.25.944,jersey_experiment_5_v3,2023.2.2,Win32,84.74576271,,,,,,,,,,,,,,,,136.9342,138.4869,138.4869,140.5341,return,0.2719,,81.38020833,0,18,18,13,1,FBP-YG-91.png,0.43,1.2,14,0.75,,,,,,,,,,,,,,,,,,,,,,,,,,,,,,,,,,,,,,,,,,,,,
,,,,,V3_010,18,female,2024-10-15_15h50.25.944,jersey_experiment_5_v3,2023.2.2,Win32,84.74576271,,,,,,,,,,,,,,,,140.5345,142.087,142.0871,144.5576,return,0.3012,,25.26041667,0,19,19,5,1,FBP-YG-81.png,0.35,1.2,6,0.75,,,,,,,,,,,,,,,,,,,,,,,,,,,,,,,,,,,,,,,,,,,,,
,,,,,V3_010,18,female,2024-10-15_15h50.25.944,jersey_experiment_5_v3,2023.2.2,Win32,84.74576271,,,,,,,,,,,,,,,,144.5579,145.8517,145.8518,147.5107,return,0.4344,,14.0625,0,20,20,31,1,FBP-OG-17.png,0.37,1.2,32,0.5,,,,,,,,,,,,,,,,,,,,,,,,,,,,,,,,,,,,,,,,,,,,,
,,,,,V3_010,18,female,2024-10-15_15h50.25.944,jersey_experiment_5_v3,2023.2.2,Win32,84.74576271,,,,,,,,,,,,,,,,147.511,149.0636,149.0637,151.6639,return,0.4163,,20.3125,0,21,21,6,1,FBP-YG-81.png,0.37,1.2,7,0.75,,,,,,,,,,,,,,,,,,,,,,,,,,,,,,,,,,,,,,,,,,,,,
,,,,,V3_010,18,female,2024-10-15_15h50.25.944,jersey_experiment_5_v3,2023.2.2,Win32,84.74576271,,,,,,,,,,,,,,,,151.6642,152.958,152.958,154.5463,return,0.3321,,24.609375,0,22,22,32,1,FBP-OG-17.png,0.4,1.2,33,0.5,,,,,,,,,,,,,,,,,,,,,,,,,,,,,,,,,,,,,,,,,,,,,
,,,,,V3_010,18,female,2024-10-15_15h50.25.944,jersey_experiment_5_v3,2023.2.2,Win32,84.74576271,,,,,,,,,,,,,,,,154.5467,156.0994,156.0994,160.8642,return,0.85,,43.22916667,0,23,23,20,1,FBP-PT-18.png,0.35,1.2,21,0.75,,,,,,,,,,,,,,,,,,,,,,,,,,,,,,,,,,,,,,,,,,,,,
,,,,,V3_010,18,female,2024-10-15_15h50.25.944,jersey_experiment_5_v3,2023.2.2,Win32,84.74576271,,,,,,,,,,,,,,,,160.8645,162.4172,162.4172,165.6173,return,1.9289,,85.41666667,0,24,24,58,1,FBP-RB-19.png,0.43,1.2,59,0.75,,,,,,,,,,,,,,,,,,,,,,,,,,,,,,,,,,,,,,,,,,,,,
,,,,,V3_010,18,female,2024-10-15_15h50.25.944,jersey_experiment_5_v3,2023.2.2,Win32,84.74576271,,,,,,,,,,,,,,,,165.6176,167.1702,167.1704,170.2409,return,0.8742,,55.98958333,0,25,25,22,1,FBP-PT-18.png,0.4,1.2,23,0.75,,,,,,,,,,,,,,,,,,,,,,,,,,,,,,,,,,,,,,,,,,,,,
,,,,,V3_010,18,female,2024-10-15_15h50.25.944,jersey_experiment_5_v3,2023.2.2,Win32,84.74576271,,,,,,,,,,,,,,,,170.2412,171.5351,171.5351,173.8883,return,0.3568,,27.60416667,0,26,26,41,1,FBP-OG-19.png,0.37,1.2,42,0.5,,,,,,,,,,,,,,,,,,,,,,,,,,,,,,,,,,,,,,,,,,,,,
,,,,,V3_010,18,female,2024-10-15_15h50.25.944,jersey_experiment_5_v3,2023.2.2,Win32,84.74576271,,,,,,,,,,,,,,,,173.8886,175.4412,175.4413,178.9236,return,0.3617,,50.26041667,0,27,27,56,1,FBP-RB-19.png,0.37,1.2,57,0.75,,,,,,,,,,,,,,,,,,,,,,,,,,,,,,,,,,,,,,,,,,,,,
,,,,,V3_010,18,female,2024-10-15_15h50.25.944,jersey_experiment_5_v3,2023.2.2,Win32,84.74576271,,,,,,,,,,,,,,,,178.9239,180.2178,180.2178,183.0414,return,0.403,,30.078125,0,28,28,30,1,FBP-OG-17.png,0.35,1.2,31,0.5,,,,,,,,,,,,,,,,,,,,,,,,,,,,,,,,,,,,,,,,,,,,,
,,,,,V3_010,18,female,2024-10-15_15h50.25.944,jersey_experiment_5_v3,2023.2.2,Win32,84.74576271,,,,,,,,,,,,,,,,183.0417,184.5943,184.5944,187.4301,return,1.4818,,100,0,29,29,29,1,FBP-PT-19.png,0.45,1.2,30,0.75,,,,,,,,,,,,,,,,,,,,,,,,,,,,,,,,,,,,,,,,,,,,,
,,,,,V3_010,18,female,2024-10-15_15h50.25.944,jersey_experiment_5_v3,2023.2.2,Win32,84.74576271,,,,,,,,,,,,,,,,187.4303,188.9831,188.9832,190.8183,return,0.3195,,75.26041667,0,30,30,7,1,FBP-YG-81.png,0.4,1.2,8,0.75,,,,,,,,,,,,,,,,,,,,,,,,,,,,,,,,,,,,,,,,,,,,,
,,,,,V3_010,18,female,2024-10-15_15h50.25.944,jersey_experiment_5_v3,2023.2.2,Win32,84.74576271,,,,,,,,,,,,,,,,190.8185,192.1122,192.1123,195.2301,return,0.2419,,97.00520833,0,31,31,38,1,FBP-OG-18.png,0.43,1.2,39,0.5,,,,,,,,,,,,,,,,,,,,,,,,,,,,,,,,,,,,,,,,,,,,,
,,,,,V3_010,18,female,2024-10-15_15h50.25.944,jersey_experiment_5_v3,2023.2.2,Win32,84.74576271,,,,,,,,,,,,,,,,195.2304,196.7831,196.7831,198.3361,return,0.2866,,85.80729167,0,32,32,12,1,FBP-YG-91.png,0.4,1.2,13,0.75,,,,,,,,,,,,,,,,,,,,,,,,,,,,,,,,,,,,,,,,,,,,,
,,,,,V3_010,18,female,2024-10-15_15h50.25.944,jersey_experiment_5_v3,2023.2.2,Win32,84.74576271,,,,,,,,,,,,,,,,198.3365,199.8892,199.8893,201.8538,return,0.3949,,62.890625,0,33,33,26,1,FBP-PT-19.png,0.37,1.2,27,0.75,,,,,,,,,,,,,,,,,,,,,,,,,,,,,,,,,,,,,,,,,,,,,
,,,,,V3_010,18,female,2024-10-15_15h50.25.944,jersey_experiment_5_v3,2023.2.2,Win32,84.74576271,,,,,,,,,,,,,,,,201.8541,203.1481,203.1482,205.7012,return,0.4706,,94.27083333,0,34,34,43,1,FBP-OG-19.png,0.43,1.2,44,0.5,,,,,,,,,,,,,,,,,,,,,,,,,,,,,,,,,,,,,,,,,,,,,
,,,,,V3_010,18,female,2024-10-15_15h50.25.944,jersey_experiment_5_v3,2023.2.2,Win32,84.74576271,,,,,,,,,,,,,,,,205.7016,207.2542,207.2543,209.3601,return,0.5808,,82.29166667,0,35,35,1,1,FBP-YG-71.png,0.37,1.2,2,0.75,,,,,,,,,,,,,,,,,,,,,,,,,,,,,,,,,,,,,,,,,,,,,
,,,,,V3_010,18,female,2024-10-15_15h50.25.944,jersey_experiment_5_v3,2023.2.2,Win32,84.74576271,,,,,,,,,,,,,,,,209.3604,210.913,210.913,212.6308,return,0.3506,,79.16666667,0,36,36,57,1,FBP-RB-19.png,0.4,1.2,58,0.75,,,,,,,,,,,,,,,,,,,,,,,,,,,,,,,,,,,,,,,,,,,,,
,,,,,V3_010,18,female,2024-10-15_15h50.25.944,jersey_experiment_5_v3,2023.2.2,Win32,84.74576271,,,,,,,,,,,,,,,,212.6311,214.1838,214.1838,216.1486,return,0.2825,,79.94791667,0,37,37,47,1,FBP-RB-17.png,0.4,1.2,48,0.75,,,,,,,,,,,,,,,,,,,,,,,,,,,,,,,,,,,,,,,,,,,,,
,,,,,V3_010,18,female,2024-10-15_15h50.25.944,jersey_experiment_5_v3,2023.2.2,Win32,84.74576271,,,,,,,,,,,,,,,,216.1492,217.7016,217.7017,219.078,return,0.3281,,79.94791667,0,38,38,53,1,FBP-RB-18.png,0.43,1.2,54,0.75,,,,,,,,,,,,,,,,,,,,,,,,,,,,,,,,,,,,,,,,,,,,,
,,,,,V3_010,18,female,2024-10-15_15h50.25.944,jersey_experiment_5_v3,2023.2.2,Win32,84.74576271,,,,,,,,,,,,,,,,219.0783,220.631,220.631,222.1135,return,0.2262,,95.05208333,0,39,39,49,1,FBP-RB-17.png,0.45,1.2,50,0.75,,,,,,,,,,,,,,,,,,,,,,,,,,,,,,,,,,,,,,,,,,,,,
,,,,,V3_010,18,female,2024-10-15_15h50.25.944,jersey_experiment_5_v3,2023.2.2,Win32,84.74576271,,,,,,,,,,,,,,,,222.1138,223.6664,223.6665,226.3371,return,0.4838,,89.84375,0,40,40,18,1,FBP-PT-17.png,0.43,1.2,19,0.75,,,,,,,,,,,,,,,,,,,,,,,,,,,,,,,,,,,,,,,,,,,,,
,,,,,V3_010,18,female,2024-10-15_15h50.25.944,jersey_experiment_5_v3,2023.2.2,Win32,84.74576271,,,,,,,,,,,,,,,,226.3374,227.8902,227.8902,230.1961,return,0.2828,,27.34375,0,41,41,45,1,FBP-RB-17.png,0.35,1.2,46,0.75,,,,,,,,,,,,,,,,,,,,,,,,,,,,,,,,,,,,,,,,,,,,,
,,,,,V3_010,18,female,2024-10-15_15h50.25.944,jersey_experiment_5_v3,2023.2.2,Win32,84.74576271,,,,,,,,,,,,,,,,230.1963,231.4903,231.4903,234.208,return,0.2752,,94.01041667,0,42,42,34,1,FBP-OG-17.png,0.45,1.2,35,0.5,,,,,,,,,,,,,,,,,,,,,,,,,,,,,,,,,,,,,,,,,,,,,
,,,,,V3_010,18,female,2024-10-15_15h50.25.944,jersey_experiment_5_v3,2023.2.2,Win32,84.74576271,,,,,,,,,,,,,,,,234.2083,235.7612,235.7612,236.9728,return,0.2899,,90.10416667,0,43,43,21,1,FBP-PT-18.png,0.37,1.2,22,0.75,,,,,,,,,,,,,,,,,,,,,,,,,,,,,,,,,,,,,,,,,,,,,
,,,,,V3_010,18,female,2024-10-15_15h50.25.944,jersey_experiment_5_v3,2023.2.2,Win32,84.74576271,,,,,,,,,,,,,,,,236.973,238.5257,238.5257,240.6907,return,0.3076,,98.17708333,0,44,44,48,1,FBP-RB-17.png,0.43,1.2,49,0.75,,,,,,,,,,,,,,,,,,,,,,,,,,,,,,,,,,,,,,,,,,,,,
,,,,,V3_010,18,female,2024-10-15_15h50.25.944,jersey_experiment_5_v3,2023.2.2,Win32,84.74576271,,,,,,,,,,,,,,,,240.6911,242.2436,242.2436,244.6201,return,0.573,,93.359375,0,45,45,52,1,FBP-RB-18.png,0.4,1.2,53,0.75,,,,,,,,,,,,,,,,,,,,,,,,,,,,,,,,,,,,,,,,,,,,,
,,,,,V3_010,18,female,2024-10-15_15h50.25.944,jersey_experiment_5_v3,2023.2.2,Win32,84.74576271,,,,,,,,,,,,,,,,244.6204,246.1734,246.1734,249.5031,return,0.7709,,26.82291667,0,46,46,16,1,FBP-PT-17.png,0.37,1.2,17,0.75,,,,,,,,,,,,,,,,,,,,,,,,,,,,,,,,,,,,,,,,,,,,,
,,,,,V3_010,18,female,2024-10-15_15h50.25.944,jersey_experiment_5_v3,2023.2.2,Win32,84.74576271,,,,,,,,,,,,,,,,249.5034,251.0557,251.0557,252.8206,return,0.5316,,93.22916667,0,47,47,24,1,FBP-PT-18.png,0.45,1.2,25,0.75,,,,,,,,,,,,,,,,,,,,,,,,,,,,,,,,,,,,,,,,,,,,,
,,,,,V3_010,18,female,2024-10-15_15h50.25.944,jersey_experiment_5_v3,2023.2.2,Win32,84.74576271,,,,,,,,,,,,,,,,252.821,254.1146,254.1147,257.303,return,1.5534,,60.9375,0,48,48,37,1,FBP-OG-18.png,0.4,1.2,38,0.5,,,,,,,,,,,,,,,,,,,,,,,,,,,,,,,,,,,,,,,,,,,,,
,,,,,V3_010,18,female,2024-10-15_15h50.25.944,jersey_experiment_5_v3,2023.2.2,Win32,84.74576271,,,,,,,,,,,,,,,,257.3033,258.8562,258.8562,260.3384,return,0.4959,,86.06770833,0,49,49,3,1,FBP-YG-71.png,0.43,1.2,4,0.75,,,,,,,,,,,,,,,,,,,,,,,,,,,,,,,,,,,,,,,,,,,,,
,,,,,V3_010,18,female,2024-10-15_15h50.25.944,jersey_experiment_5_v3,2023.2.2,Win32,84.74576271,,,,,,,,,,,,,,,,260.3388,261.6325,261.6327,264.421,return,0.3565,,27.60416667,0,50,50,40,1,FBP-OG-19.png,0.35,1.2,41,0.5,,,,,,,,,,,,,,,,,,,,,,,,,,,,,,,,,,,,,,,,,,,,,
,,,,,V3_010,18,female,2024-10-15_15h50.25.944,jersey_experiment_5_v3,2023.2.2,Win32,84.74576271,,,,,,,,,,,,,,,,264.4213,265.9739,265.974,268.0328,return,0.5797,,93.75,0,51,51,14,1,FBP-YG-91.png,0.45,1.2,15,0.75,,,,,,,,,,,,,,,,,,,,,,,,,,,,,,,,,,,,,,,,,,,,,
,,,,,V3_010,18,female,2024-10-15_15h50.25.944,jersey_experiment_5_v3,2023.2.2,Win32,84.74576271,,,,,,,,,,,,,,,,268.0332,269.586,269.586,273.0918,return,2.1184,,29.94791667,0,52,52,15,1,FBP-PT-17.png,0.35,1.2,16,0.75,,,,,,,,,,,,,,,,,,,,,,,,,,,,,,,,,,,,,,,,,,,,,
,,,,,V3_010,18,female,2024-10-15_15h50.25.944,jersey_experiment_5_v3,2023.2.2,Win32,84.74576271,,,,,,,,,,,,,,,,273.0922,274.6449,274.645,277.139,return,0.3308,,91.14583333,0,53,53,28,1,FBP-PT-19.png,0.43,1.2,29,0.75,,,,,,,,,,,,,,,,,,,,,,,,,,,,,,,,,,,,,,,,,,,,,
,,,,,V3_010,18,female,2024-10-15_15h50.25.944,jersey_experiment_5_v3,2023.2.2,Win32,84.74576271,,,,,,,,,,,,,,,,277.1393,278.6921,278.6922,280.6097,return,0.2833,,75.390625,0,54,54,27,1,FBP-PT-19.png,0.4,1.2,28,0.75,,,,,,,,,,,,,,,,,,,,,,,,,,,,,,,,,,,,,,,,,,,,,
,,,,,V3_010,18,female,2024-10-15_15h50.25.944,jersey_experiment_5_v3,2023.2.2,Win32,84.74576271,,,,,,,,,,,,,,,,280.61,282.1626,282.1627,284.9276,return,0.3811,,56.90104167,0,55,55,46,1,FBP-RB-17.png,0.37,1.2,47,0.75,,,,,,,,,,,,,,,,,,,,,,,,,,,,,,,,,,,,,,,,,,,,,
,,,,,V3_010,18,female,2024-10-15_15h50.25.944,jersey_experiment_5_v3,2023.2.2,Win32,84.74576271,,,,,,,,,,,,,,,,284.928,286.4805,286.4805,289.2218,return,0.4264,,95.57291667,0,56,56,9,1,FBP-YG-81.png,0.45,1.2,10,0.75,,,,,,,,,,,,,,,,,,,,,,,,,,,,,,,,,,,,,,,,,,,,,
,,,,,V3_010,18,female,2024-10-15_15h50.25.944,jersey_experiment_5_v3,2023.2.2,Win32,84.74576271,,,,,,,,,,,,,,,,289.222,290.5162,290.5162,292.8455,return,0.406,,31.25,0,57,57,35,1,FBP-OG-18.png,0.35,1.2,36,0.5,,,,,,,,,,,,,,,,,,,,,,,,,,,,,,,,,,,,,,,,,,,,,
,,,,,V3_010,18,female,2024-10-15_15h50.25.944,jersey_experiment_5_v3,2023.2.2,Win32,84.74576271,,,,,,,,,,,,,,,,292.8458,294.1398,294.1398,295.8456,return,0.3404,,20.703125,0,58,58,42,1,FBP-OG-19.png,0.4,1.2,43,0.5,,,,,,,,,,,,,,,,,,,,,,,,,,,,,,,,,,,,,,,,,,,,,
,,,,,V3_010,18,female,2024-10-15_15h50.25.944,jersey_experiment_5_v3,2023.2.2,Win32,84.74576271,,,,,,,,,,,,,,,,295.846,297.3986,297.3987,300.8457,return,0.5597,,55.72916667,0,59,59,55,1,FBP-RB-19.png,0.35,1.2,56,0.75,,,,,,,,,,,,,,,,,,,,,,,,,,,,,,,,,,,,,,,,,,,,,
,,,,,V3_010,18,female,2024-10-15_15h50.25.944,jersey_experiment_5_v3,2023.2.2,Win32,84.74576271,,,,,,,,,,,,,,,,300.8485,302.3987,302.3988,304.5869,return,0.2664,,70.44270833,,,,,,FBP-YG-18.png,0.35,1.2,6,0.75,0,0,0,5,1,,,,,,,,,,,,,,,,,,,,,,,,,,,,,,,,,,,,,,,,
,,,,,V3_010,18,female,2024-10-15_15h50.25.944,jersey_experiment_5_v3,2023.2.2,Win32,84.74576271,,,,,,,,,,,,,,,,304.5873,306.1402,306.1402,307.4224,return,0.2277,,95.83333333,,,,,,FBP-YG-18.png,0.43,1.2,9,0.75,0,1,1,8,1,,,,,,,,,,,,,,,,,,,,,,,,,,,,,,,,,,,,,,,,
,,,,,V3_010,18,female,2024-10-15_15h50.25.944,jersey_experiment_5_v3,2023.2.2,Win32,84.74576271,,,,,,,,,,,,,,,,307.4227,308.7166,308.7166,329.4704,return,18.9953,,100,,,,,,FBP-OG-91.png,0.45,1.2,45,0.5,0,2,2,44,1,,,,,,,,,,,,,,,,,,,,,,,,,,,,,,,,,,,,,,,,
,,,,,V3_010,18,female,2024-10-15_15h50.25.944,jersey_experiment_5_v3,2023.2.2,Win32,84.74576271,,,,,,,,,,,,,,,,329.4707,331.0233,331.0235,333.5999,return,1.1222,,70.83333333,,,,,,FBP-RB-91.png,0.43,1.2,59,0.75,0,3,3,58,1,,,,,,,,,,,,,,,,,,,,,,,,,,,,,,,,,,,,,,,,
,,,,,V3_010,18,female,2024-10-15_15h50.25.944,jersey_experiment_5_v3,2023.2.2,Win32,84.74576271,,,,,,,,,,,,,,,,333.6001,335.1528,335.1529,337.5177,return,0.7832,,97.39583333,,,,,,FBP-YG-17.png,0.45,1.2,5,0.75,0,4,4,4,1,,,,,,,,,,,,,,,,,,,,,,,,,,,,,,,,,,,,,,,,
,,,,,V3_010,18,female,2024-10-15_15h50.25.944,jersey_experiment_5_v3,2023.2.2,Win32,84.74576271,,,,,,,,,,,,,,,,337.5182,339.0706,339.0706,343.2356,return,1.8364,,61.97916667,,,,,,FBP-RB-91.png,0.35,1.2,56,0.75,0,5,5,55,1,,,,,,,,,,,,,,,,,,,,,,,,,,,,,,,,,,,,,,,,
,,,,,V3_010,18,female,2024-10-15_15h50.25.944,jersey_experiment_5_v3,2023.2.2,Win32,84.74576271,,,,,,,,,,,,,,,,343.236,344.7886,344.7887,347.0709,return,0.2978,,49.609375,,,,,,FBP-PT-81.png,0.37,1.2,22,0.75,0,6,6,21,1,,,,,,,,,,,,,,,,,,,,,,,,,,,,,,,,,,,,,,,,
,,,,,V3_010,18,female,2024-10-15_15h50.25.944,jersey_experiment_5_v3,2023.2.2,Win32,84.74576271,,,,,,,,,,,,,,,,347.0712,348.6239,348.6241,350.7065,return,0.7431,,95.703125,,,,,,FBP-PT-81.png,0.45,1.2,25,0.75,0,7,7,24,1,,,,,,,,,,,,,,,,,,,,,,,,,,,,,,,,,,,,,,,,
,,,,,V3_010,18,female,2024-10-15_15h50.25.944,jersey_experiment_5_v3,2023.2.2,Win32,84.74576271,,,,,,,,,,,,,,,,350.7068,352.2595,352.2595,354.1772,return,0.955,,94.140625,,,,,,FBP-RB-71.png,0.4,1.2,48,0.75,0,8,8,47,1,,,,,,,,,,,,,,,,,,,,,,,,,,,,,,,,,,,,,,,,
,,,,,V3_010,18,female,2024-10-15_15h50.25.944,jersey_experiment_5_v3,2023.2.2,Win32,84.74576271,,,,,,,,,,,,,,,,354.1774,355.7302,355.7303,357.5419,return,0.4106,,6.25,,,,,,FBP-PT-71.png,0.35,1.2,16,0.75,0,9,9,15,1,,,,,,,,,,,,,,,,,,,,,,,,,,,,,,,,,,,,,,,,
,,,,,V3_010,18,female,2024-10-15_15h50.25.944,jersey_experiment_5_v3,2023.2.2,Win32,84.74576271,,,,,,,,,,,,,,,,357.5422,359.0951,359.0951,361.0244,return,0.3329,,21.35416667,,,,,,FBP-PT-81.png,0.4,1.2,23,0.75,0,10,10,22,1,,,,,,,,,,,,,,,,,,,,,,,,,,,,,,,,,,,,,,,,
,,,,,V3_010,18,female,2024-10-15_15h50.25.944,jersey_experiment_5_v3,2023.2.2,Win32,84.74576271,,,,,,,,,,,,,,,,361.0247,362.5776,362.5776,364.3188,return,0.4529,,21.35416667,,,,,,FBP-YG-17.png,0.35,1.2,1,0.75,0,11,11,0,1,,,,,,,,,,,,,,,,,,,,,,,,,,,,,,,,,,,,,,,,
,,,,,V3_010,18,female,2024-10-15_15h50.25.944,jersey_experiment_5_v3,2023.2.2,Win32,84.74576271,,,,,,,,,,,,,,,,364.3191,365.8718,365.8718,367.7188,return,0.3916,,86.45833333,,,,,,FBP-YG-19.png,0.45,1.2,15,0.75,0,12,12,14,1,,,,,,,,,,,,,,,,,,,,,,,,,,,,,,,,,,,,,,,,
,,,,,V3_010,18,female,2024-10-15_15h50.25.944,jersey_experiment_5_v3,2023.2.2,Win32,84.74576271,,,,,,,,,,,,,,,,367.7191,369.2719,369.272,370.7072,return,0.3663,,89.0625,,,,,,FBP-YG-17.png,0.4,1.2,3,0.75,0,13,13,2,1,,,,,,,,,,,,,,,,,,,,,,,,,,,,,,,,,,,,,,,,
,,,,,V3_010,18,female,2024-10-15_15h50.25.944,jersey_experiment_5_v3,2023.2.2,Win32,84.74576271,,,,,,,,,,,,,,,,370.7075,372.2602,372.2602,374.9897,return,0.4761,,58.07291667,,,,,,FBP-RB-81.png,0.37,1.2,52,0.75,0,14,14,51,1,,,,,,,,,,,,,,,,,,,,,,,,,,,,,,,,,,,,,,,,
,,,,,V3_010,18,female,2024-10-15_15h50.25.944,jersey_experiment_5_v3,2023.2.2,Win32,84.74576271,,,,,,,,,,,,,,,,374.99,376.5427,376.5427,377.9075,return,0.3294,,62.76041667,,,,,,FBP-RB-71.png,0.37,1.2,47,0.75,0,15,15,46,1,,,,,,,,,,,,,,,,,,,,,,,,,,,,,,,,,,,,,,,,
,,,,,V3_010,18,female,2024-10-15_15h50.25.944,jersey_experiment_5_v3,2023.2.2,Win32,84.74576271,,,,,,,,,,,,,,,,377.9079,379.2016,379.2016,381.1193,return,0.2749,,91.14583333,,,,,,FBP-OG-71.png,0.43,1.2,34,0.5,0,16,16,33,1,,,,,,,,,,,,,,,,,,,,,,,,,,,,,,,,,,,,,,,,
,,,,,V3_010,18,female,2024-10-15_15h50.25.944,jersey_experiment_5_v3,2023.2.2,Win32,84.74576271,,,,,,,,,,,,,,,,381.1196,382.4136,382.4136,386.3666,return,1.4178,,68.75,,,,,,FBP-OG-91.png,0.35,1.2,41,0.5,0,17,17,40,1,,,,,,,,,,,,,,,,,,,,,,,,,,,,,,,,,,,,,,,,
,,,,,V3_010,18,female,2024-10-15_15h50.25.944,jersey_experiment_5_v3,2023.2.2,Win32,84.74576271,,,,,,,,,,,,,,,,386.367,387.9196,387.9196,389.3078,return,0.2205,,88.671875,,,,,,FBP-RB-81.png,0.43,1.2,54,0.75,0,18,18,53,1,,,,,,,,,,,,,,,,,,,,,,,,,,,,,,,,,,,,,,,,
,,,,,V3_010,18,female,2024-10-15_15h50.25.944,jersey_experiment_5_v3,2023.2.2,Win32,84.74576271,,,,,,,,,,,,,,,,389.3081,390.602,390.602,392.2844,return,0.3487,,59.11458333,,,,,,FBP-OG-71.png,0.35,1.2,31,0.5,0,19,19,30,1,,,,,,,,,,,,,,,,,,,,,,,,,,,,,,,,,,,,,,,,
,,,,,V3_010,18,female,2024-10-15_15h50.25.944,jersey_experiment_5_v3,2023.2.2,Win32,84.74576271,,,,,,,,,,,,,,,,392.2848,393.8374,393.8374,397.4377,return,2.6182,,94.66145833,,,,,,FBP-YG-17.png,0.43,1.2,4,0.75,0,20,20,3,1,,,,,,,,,,,,,,,,,,,,,,,,,,,,,,,,,,,,,,,,
,,,,,V3_010,18,female,2024-10-15_15h50.25.944,jersey_experiment_5_v3,2023.2.2,Win32,84.74576271,,,,,,,,,,,,,,,,397.438,398.9905,398.9906,402.6614,return,1.6921,,73.4375,,,,,,FBP-RB-81.png,0.4,1.2,53,0.75,0,21,21,52,1,,,,,,,,,,,,,,,,,,,,,,,,,,,,,,,,,,,,,,,,
,,,,,V3_010,18,female,2024-10-15_15h50.25.944,jersey_experiment_5_v3,2023.2.2,Win32,84.74576271,,,,,,,,,,,,,,,,402.6617,404.2143,404.2144,406.1908,return,0.5456,,91.796875,,,,,,FBP-PT-91.png,0.43,1.2,29,0.75,0,22,22,28,1,,,,,,,,,,,,,,,,,,,,,,,,,,,,,,,,,,,,,,,,
,,,,,V3_010,18,female,2024-10-15_15h50.25.944,jersey_experiment_5_v3,2023.2.2,Win32,84.74576271,,,,,,,,,,,,,,,,406.1911,407.4851,407.4851,409.7439,return,0.9813,,89.19270833,,,,,,FBP-OG-81.png,0.45,1.2,40,0.5,0,23,23,39,1,,,,,,,,,,,,,,,,,,,,,,,,,,,,,,,,,,,,,,,,
,,,,,V3_010,18,female,2024-10-15_15h50.25.944,jersey_experiment_5_v3,2023.2.2,Win32,84.74576271,,,,,,,,,,,,,,,,409.7442,411.2969,411.297,412.6381,return,0.4179,,92.96875,,,,,,FBP-PT-81.png,0.43,1.2,24,0.75,0,24,24,23,1,,,,,,,,,,,,,,,,,,,,,,,,,,,,,,,,,,,,,,,,
,,,,,V3_010,18,female,2024-10-15_15h50.25.944,jersey_experiment_5_v3,2023.2.2,Win32,84.74576271,,,,,,,,,,,,,,,,412.6384,414.1912,414.1912,416.5559,return,0.9969,,90.75520833,,,,,,FBP-YG-18.png,0.37,1.2,7,0.75,0,25,25,6,1,,,,,,,,,,,,,,,,,,,,,,,,,,,,,,,,,,,,,,,,
,,,,,V3_010,18,female,2024-10-15_15h50.25.944,jersey_experiment_5_v3,2023.2.2,Win32,84.74576271,,,,,,,,,,,,,,,,416.5562,418.1089,418.1089,420.9799,return,1.4231,,57.55208333,,,,,,FBP-RB-91.png,0.37,1.2,57,0.75,0,26,26,56,1,,,,,,,,,,,,,,,,,,,,,,,,,,,,,,,,,,,,,,,,
,,,,,V3_010,18,female,2024-10-15_15h50.25.944,jersey_experiment_5_v3,2023.2.2,Win32,84.74576271,,,,,,,,,,,,,,,,420.9802,422.5328,422.5329,424.8034,return,1.106,,44.140625,,,,,,FBP-PT-91.png,0.37,1.2,27,0.75,0,27,27,26,1,,,,,,,,,,,,,,,,,,,,,,,,,,,,,,,,,,,,,,,,
,,,,,V3_010,18,female,2024-10-15_15h50.25.944,jersey_experiment_5_v3,2023.2.2,Win32,84.74576271,,,,,,,,,,,,,,,,424.8038,426.3563,426.3563,428.1563,return,0.396,,32.8125,,,,,,FBP-YG-17.png,0.37,1.2,2,0.75,0,28,28,1,1,,,,,,,,,,,,,,,,,,,,,,,,,,,,,,,,,,,,,,,,
,,,,,V3_010,18,female,2024-10-15_15h50.25.944,jersey_experiment_5_v3,2023.2.2,Win32,84.74576271,,,,,,,,,,,,,,,,428.1566,429.6979,429.698,432.6035,return,1.5964,,25.52083333,,,,,,FBP-PT-71.png,0.37,1.2,17,0.75,0,29,29,16,1,,,,,,,,,,,,,,,,,,,,,,,,,,,,,,,,,,,,,,,,
,,,,,V3_010,18,female,2024-10-15_15h50.25.944,jersey_experiment_5_v3,2023.2.2,Win32,84.74576271,,,,,,,,,,,,,,,,432.6038,434.1567,434.1567,435.886,return,0.5228,,78.90625,,,,,,FBP-RB-91.png,0.45,1.2,60,0.75,0,30,30,59,1,,,,,,,,,,,,,,,,,,,,,,,,,,,,,,,,,,,,,,,,
,,,,,V3_010,18,female,2024-10-15_15h50.25.944,jersey_experiment_5_v3,2023.2.2,Win32,84.74576271,,,,,,,,,,,,,,,,435.8862,437.4392,437.4393,439.6979,return,0.8857,,87.5,,,,,,FBP-PT-91.png,0.45,1.2,30,0.75,0,31,31,29,1,,,,,,,,,,,,,,,,,,,,,,,,,,,,,,,,,,,,,,,,
,,,,,V3_010,18,female,2024-10-15_15h50.25.944,jersey_experiment_5_v3,2023.2.2,Win32,84.74576271,,,,,,,,,,,,,,,,439.6981,441.2509,441.2509,447.0277,return,3.8124,,50.390625,,,,,,FBP-YG-19.png,0.35,1.2,11,0.75,0,32,32,10,1,,,,,,,,,,,,,,,,,,,,,,,,,,,,,,,,,,,,,,,,
,,,,,V3_010,18,female,2024-10-15_15h50.25.944,jersey_experiment_5_v3,2023.2.2,Win32,84.74576271,,,,,,,,,,,,,,,,447.028,448.5806,448.5807,450.1455,return,0.2263,,95.05208333,,,,,,FBP-PT-71.png,0.45,1.2,20,0.75,0,33,33,19,1,,,,,,,,,,,,,,,,,,,,,,,,,,,,,,,,,,,,,,,,
,,,,,V3_010,18,female,2024-10-15_15h50.25.944,jersey_experiment_5_v3,2023.2.2,Win32,84.74576271,,,,,,,,,,,,,,,,450.1457,451.4394,451.4395,453.9339,return,0.2306,,56.25,,,,,,FBP-OG-91.png,0.4,1.2,43,0.5,0,34,34,42,1,,,,,,,,,,,,,,,,,,,,,,,,,,,,,,,,,,,,,,,,
,,,,,V3_010,18,female,2024-10-15_15h50.25.944,jersey_experiment_5_v3,2023.2.2,Win32,84.74576271,,,,,,,,,,,,,,,,453.9342,455.487,455.4871,457.2516,return,0.9881,,28.25520833,,,,,,FBP-PT-81.png,0.35,1.2,21,0.75,0,35,35,20,1,,,,,,,,,,,,,,,,,,,,,,,,,,,,,,,,,,,,,,,,
,,,,,V3_010,18,female,2024-10-15_15h50.25.944,jersey_experiment_5_v3,2023.2.2,Win32,84.74576271,,,,,,,,,,,,,,,,457.2519,458.5457,458.5457,460.1104,return,0.8295,,37.36979167,,,,,,FBP-OG-71.png,0.37,1.2,32,0.5,0,36,36,31,1,,,,,,,,,,,,,,,,,,,,,,,,,,,,,,,,,,,,,,,,
,,,,,V3_010,18,female,2024-10-15_15h50.25.944,jersey_experiment_5_v3,2023.2.2,Win32,84.74576271,,,,,,,,,,,,,,,,460.1107,461.4046,461.4047,464.4636,return,1.8874,,79.296875,,,,,,FBP-OG-81.png,0.43,1.2,39,0.5,0,37,37,38,1,,,,,,,,,,,,,,,,,,,,,,,,,,,,,,,,,,,,,,,,
,,,,,V3_010,18,female,2024-10-15_15h50.25.944,jersey_experiment_5_v3,2023.2.2,Win32,84.74576271,,,,,,,,,,,,,,,,464.4641,466.0166,466.0166,468.9578,return,0.2654,,91.66666667,,,,,,FBP-RB-81.png,0.45,1.2,55,0.75,0,38,38,54,1,,,,,,,,,,,,,,,,,,,,,,,,,,,,,,,,,,,,,,,,
,,,,,V3_010,18,female,2024-10-15_15h50.25.944,jersey_experiment_5_v3,2023.2.2,Win32,84.74576271,,,,,,,,,,,,,,,,468.9583,470.511,470.5111,472.4522,return,1.025,,63.28125,,,,,,FBP-YG-19.png,0.37,1.2,12,0.75,0,39,39,11,1,,,,,,,,,,,,,,,,,,,,,,,,,,,,,,,,,,,,,,,,
,,,,,V3_010,18,female,2024-10-15_15h50.25.944,jersey_experiment_5_v3,2023.2.2,Win32,84.74576271,,,,,,,,,,,,,,,,472.4524,474.0052,474.0052,475.3111,return,0.7113,,61.97916667,,,,,,FBP-YG-19.png,0.4,1.2,13,0.75,0,40,40,12,1,,,,,,,,,,,,,,,,,,,,,,,,,,,,,,,,,,,,,,,,
,,,,,V3_010,18,female,2024-10-15_15h50.25.944,jersey_experiment_5_v3,2023.2.2,Win32,84.74576271,,,,,,,,,,,,,,,,475.3113,476.6052,476.6052,477.7111,return,0.2875,,71.875,,,,,,FBP-OG-81.png,0.4,1.2,38,0.5,0,41,41,37,1,,,,,,,,,,,,,,,,,,,,,,,,,,,,,,,,,,,,,,,,
,,,,,V3_010,18,female,2024-10-15_15h50.25.944,jersey_experiment_5_v3,2023.2.2,Win32,84.74576271,,,,,,,,,,,,,,,,477.7114,479.2641,479.2642,481.382,return,1.1169,,73.95833333,,,,,,FBP-YG-18.png,0.45,1.2,10,0.75,0,42,42,9,1,,,,,,,,,,,,,,,,,,,,,,,,,,,,,,,,,,,,,,,,
,,,,,V3_010,18,female,2024-10-15_15h50.25.944,jersey_experiment_5_v3,2023.2.2,Win32,84.74576271,,,,,,,,,,,,,,,,481.3826,482.6761,482.6762,484.0526,return,0.3903,,30.078125,,,,,,FBP-OG-81.png,0.35,1.2,36,0.5,0,43,43,35,1,,,,,,,,,,,,,,,,,,,,,,,,,,,,,,,,,,,,,,,,
,,,,,V3_010,18,female,2024-10-15_15h50.25.944,jersey_experiment_5_v3,2023.2.2,Win32,84.74576271,,,,,,,,,,,,,,,,484.0529,485.6058,485.6058,487.4998,return,0.1601,,100,,,,,,FBP-PT-71.png,0.43,1.2,19,0.75,0,44,44,18,1,,,,,,,,,,,,,,,,,,,,,,,,,,,,,,,,,,,,,,,,
,,,,,V3_010,18,female,2024-10-15_15h50.25.944,jersey_experiment_5_v3,2023.2.2,Win32,84.74576271,,,,,,,,,,,,,,,,487.5001,488.7941,488.7942,492.2764,return,2.4561,,46.61458333,,,,,,FBP-OG-71.png,0.4,1.2,33,0.5,0,45,45,32,1,,,,,,,,,,,,,,,,,,,,,,,,,,,,,,,,,,,,,,,,
,,,,,V3_010,18,female,2024-10-15_15h50.25.944,jersey_experiment_5_v3,2023.2.2,Win32,84.74576271,,,,,,,,,,,,,,,,492.2768,493.8294,493.8294,495.4765,return,0.3865,,53.125,,,,,,FBP-YG-18.png,0.4,1.2,8,0.75,0,46,46,7,1,,,,,,,,,,,,,,,,,,,,,,,,,,,,,,,,,,,,,,,,
,,,,,V3_010,18,female,2024-10-15_15h50.25.944,jersey_experiment_5_v3,2023.2.2,Win32,84.74576271,,,,,,,,,,,,,,,,495.4768,497.0295,497.0296,498.9943,return,1.2374,,37.36979167,,,,,,FBP-PT-91.png,0.35,1.2,26,0.75,0,47,47,25,1,,,,,,,,,,,,,,,,,,,,,,,,,,,,,,,,,,,,,,,,
,,,,,V3_010,18,female,2024-10-15_15h50.25.944,jersey_experiment_5_v3,2023.2.2,Win32,84.74576271,,,,,,,,,,,,,,,,498.9947,500.5474,500.5476,502.6415,return,0.9559,,70.96354167,,,,,,FBP-PT-91.png,0.4,1.2,28,0.75,0,48,48,27,1,,,,,,,,,,,,,,,,,,,,,,,,,,,,,,,,,,,,,,,,
,,,,,V3_010,18,female,2024-10-15_15h50.25.944,jersey_experiment_5_v3,2023.2.2,Win32,84.74576271,,,,,,,,,,,,,,,,502.6418,503.9357,503.9357,505.7239,return,0.6426,,27.99479167,,,,,,FBP-OG-91.png,0.37,1.2,42,0.5,0,49,49,41,1,,,,,,,,,,,,,,,,,,,,,,,,,,,,,,,,,,,,,,,,
,,,,,V3_010,18,female,2024-10-15_15h50.25.944,jersey_experiment_5_v3,2023.2.2,Win32,84.74576271,,,,,,,,,,,,,,,,505.7242,507.0181,507.0181,508.4065,return,0.2951,,78.125,,,,,,FBP-OG-91.png,0.43,1.2,44,0.5,0,50,50,43,1,,,,,,,,,,,,,,,,,,,,,,,,,,,,,,,,,,,,,,,,
,,,,,V3_010,18,female,2024-10-15_15h50.25.944,jersey_experiment_5_v3,2023.2.2,Win32,84.74576271,,,,,,,,,,,,,,,,508.4067,509.7006,509.7006,511.0536,return,0.2661,,69.01041667,,,,,,FBP-OG-81.png,0.37,1.2,37,0.5,0,51,51,36,1,,,,,,,,,,,,,,,,,,,,,,,,,,,,,,,,,,,,,,,,
,,,,,V3_010,18,female,2024-10-15_15h50.25.944,jersey_experiment_5_v3,2023.2.2,Win32,84.74576271,,,,,,,,,,,,,,,,511.0539,512.3479,512.3479,513.6537,return,0.4605,,95.96354167,,,,,,FBP-OG-71.png,0.45,1.2,35,0.5,0,52,52,34,1,,,,,,,,,,,,,,,,,,,,,,,,,,,,,,,,,,,,,,,,
,,,,,V3_010,18,female,2024-10-15_15h50.25.944,jersey_experiment_5_v3,2023.2.2,Win32,84.74576271,,,,,,,,,,,,,,,,513.6539,515.207,515.207,517.395,return,1.3415,,45.44270833,,,,,,FBP-RB-81.png,0.35,1.2,51,0.75,0,53,53,50,1,,,,,,,,,,,,,,,,,,,,,,,,,,,,,,,,,,,,,,,,
,,,,,V3_010,18,female,2024-10-15_15h50.25.944,jersey_experiment_5_v3,2023.2.2,Win32,84.74576271,,,,,,,,,,,,,,,,517.3952,518.948,518.948,519.901,return,0.3005,,44.27083333,,,,,,FBP-PT-71.png,0.4,1.2,18,0.75,0,54,54,17,1,,,,,,,,,,,,,,,,,,,,,,,,,,,,,,,,,,,,,,,,
,,,,,V3_010,18,female,2024-10-15_15h50.25.944,jersey_experiment_5_v3,2023.2.2,Win32,84.74576271,,,,,,,,,,,,,,,,519.9013,521.454,521.4541,523.5482,return,0.3143,,52.08333333,,,,,,FBP-RB-91.png,0.4,1.2,58,0.75,0,55,55,57,1,,,,,,,,,,,,,,,,,,,,,,,,,,,,,,,,,,,,,,,,
,,,,,V3_010,18,female,2024-10-15_15h50.25.944,jersey_experiment_5_v3,2023.2.2,Win32,84.74576271,,,,,,,,,,,,,,,,523.5485,525.1012,525.1013,526.5247,return,0.3726,,81.51041667,,,,,,FBP-RB-71.png,0.45,1.2,50,0.75,0,56,56,49,1,,,,,,,,,,,,,,,,,,,,,,,,,,,,,,,,,,,,,,,,
,,,,,V3_010,18,female,2024-10-15_15h50.25.944,jersey_experiment_5_v3,2023.2.2,Win32,84.74576271,,,,,,,,,,,,,,,,526.525,528.0779,528.078,529.9367,return,1.2158,,87.36979167,,,,,,FBP-RB-71.png,0.43,1.2,49,0.75,0,57,57,48,1,,,,,,,,,,,,,,,,,,,,,,,,,,,,,,,,,,,,,,,,
,,,,,V3_010,18,female,2024-10-15_15h50.25.944,jersey_experiment_5_v3,2023.2.2,Win32,84.74576271,,,,,,,,,,,,,,,,529.9369,531.4896,531.4896,532.4308,return,0.3232,,86.58854167,,,,,,FBP-YG-19.png,0.43,1.2,14,0.75,0,58,58,13,1,,,,,,,,,,,,,,,,,,,,,,,,,,,,,,,,,,,,,,,,
,,,,,V3_010,18,female,2024-10-15_15h50.25.944,jersey_experiment_5_v3,2023.2.2,Win32,84.74576271,,,,,,,,,,,,,,,,532.4312,533.984,533.984,536.2197,return,1.4905,,58.46354167,,,,,,FBP-RB-71.png,0.35,1.2,46,0.75,0,59,59,45,1,,,,,,,,,,,,,,,,,,,,,,,,,,,,,,,,,,,,,,,,
,,,,,V3_010,18,female,2024-10-15_15h50.25.944,jersey_experiment_5_v3,2023.2.2,Win32,84.74576271,,,,,,,,,,,,,,,,,,,,,,,,,,,,,,,,,,,,,,,536.22,656.212,,,,,,,,,,,,,,,,,,,,,,,,,,,,,,,,,,,,,,
,,,,,V3_010,18,female,2024-10-15_15h50.25.944,jersey_experiment_5_v3,2023.2.2,Win32,84.74576271,,,,,,,,,,,,,,,,,,,,,,,,,,,,,,,,,,,,,,,,,656.2122,663.7889,return,7.5698,,,,,,,,,,,,,,,,,,,,,,,,,,,,,,,,,,
,,,,,V3_010,18,female,2024-10-15_15h50.25.944,jersey_experiment_5_v3,2023.2.2,Win32,84.74576271,,,,,,,,,,,,,,,,663.7913,665.0828,665.083,670.6125,return,2.2928,,45.18229167,,,,,,FBP-YG-91.png,0.35,1.2,11,0.5,,,,,,,,,,,,,0,0,0,10,1,,,,,,,,,,,,,,,,,,,,,,,,,,,,
,,,,,V3_010,18,female,2024-10-15_15h50.25.944,jersey_experiment_5_v3,2023.2.2,Win32,84.74576271,,,,,,,,,,,,,,,,670.6131,672.1655,672.1655,674.1655,return,0.434,,69.921875,,,,,,FBP-OG-19.png,0.43,1.2,44,0.75,,,,,,,,,,,,,0,1,1,43,1,,,,,,,,,,,,,,,,,,,,,,,,,,,,
,,,,,V3_010,18,female,2024-10-15_15h50.25.944,jersey_experiment_5_v3,2023.2.2,Win32,84.74576271,,,,,,,,,,,,,,,,674.1658,675.4597,675.4597,676.5303,return,0.2492,,63.02083333,,,,,,FBP-PT-17.png,0.4,1.2,18,0.5,,,,,,,,,,,,,0,2,2,17,1,,,,,,,,,,,,,,,,,,,,,,,,,,,,
,,,,,V3_010,18,female,2024-10-15_15h50.25.944,jersey_experiment_5_v3,2023.2.2,Win32,84.74576271,,,,,,,,,,,,,,,,676.5306,677.8244,677.8245,678.9776,return,0.2588,,70.703125,,,,,,FBP-PT-19.png,0.4,1.2,28,0.5,,,,,,,,,,,,,0,3,3,27,1,,,,,,,,,,,,,,,,,,,,,,,,,,,,
,,,,,V3_010,18,female,2024-10-15_15h50.25.944,jersey_experiment_5_v3,2023.2.2,Win32,84.74576271,,,,,,,,,,,,,,,,678.9779,680.2715,680.2716,681.648,return,0.2008,,62.36979167,,,,,,FBP-PT-18.png,0.4,1.2,23,0.5,,,,,,,,,,,,,0,4,4,22,1,,,,,,,,,,,,,,,,,,,,,,,,,,,,
,,,,,V3_010,18,female,2024-10-15_15h50.25.944,jersey_experiment_5_v3,2023.2.2,Win32,84.74576271,,,,,,,,,,,,,,,,681.6482,682.9423,682.9424,683.7307,return,0.1653,,62.36979167,,,,,,FBP-YG-81.png,0.35,1.2,6,0.5,,,,,,,,,,,,,0,5,5,5,1,,,,,,,,,,,,,,,,,,,,,,,,,,,,
,,,,,V3_010,18,female,2024-10-15_15h50.25.944,jersey_experiment_5_v3,2023.2.2,Win32,84.74576271,,,,,,,,,,,,,,,,683.7309,685.2835,685.2835,686.2366,return,0.3254,,62.36979167,,,,,,FBP-OG-18.png,0.35,1.2,36,0.75,,,,,,,,,,,,,0,6,6,35,1,,,,,,,,,,,,,,,,,,,,,,,,,,,,
,,,,,V3_010,18,female,2024-10-15_15h50.25.944,jersey_experiment_5_v3,2023.2.2,Win32,84.74576271,,,,,,,,,,,,,,,,686.2369,687.5307,687.5307,688.5779,return,0.2026,,68.75,,,,,,FBP-RB-18.png,0.45,1.2,55,0.5,,,,,,,,,,,,,0,7,7,54,1,,,,,,,,,,,,,,,,,,,,,,,,,,,,
,,,,,V3_010,18,female,2024-10-15_15h50.25.944,jersey_experiment_5_v3,2023.2.2,Win32,84.74576271,,,,,,,,,,,,,,,,688.5781,689.872,689.8721,690.8956,return,0.1793,,72.265625,,,,,,FBP-RB-18.png,0.43,1.2,54,0.5,,,,,,,,,,,,,0,8,8,53,1,,,,,,,,,,,,,,,,,,,,,,,,,,,,
,,,,,V3_010,18,female,2024-10-15_15h50.25.944,jersey_experiment_5_v3,2023.2.2,Win32,84.74576271,,,,,,,,,,,,,,,,690.8961,692.1898,692.1898,693.4134,return,0.2587,,73.046875,,,,,,FBP-PT-19.png,0.37,1.2,27,0.5,,,,,,,,,,,,,0,9,9,26,1,,,,,,,,,,,,,,,,,,,,,,,,,,,,
,,,,,V3_010,18,female,2024-10-15_15h50.25.944,jersey_experiment_5_v3,2023.2.2,Win32,84.74576271,,,,,,,,,,,,,,,,693.4138,694.7075,694.7075,695.7075,return,0.2643,,79.94791667,,,,,,FBP-RB-19.png,0.43,1.2,59,0.5,,,,,,,,,,,,,0,10,10,58,1,,,,,,,,,,,,,,,,,,,,,,,,,,,,
,,,,,V3_010,18,female,2024-10-15_15h50.25.944,jersey_experiment_5_v3,2023.2.2,Win32,84.74576271,,,,,,,,,,,,,,,,695.7077,697.0017,697.0018,697.8253,return,0.1668,,85.67708333,,,,,,FBP-YG-81.png,0.45,1.2,10,0.5,,,,,,,,,,,,,0,11,11,9,1,,,,,,,,,,,,,,,,,,,,,,,,,,,,
,,,,,V3_010,18,female,2024-10-15_15h50.25.944,jersey_experiment_5_v3,2023.2.2,Win32,84.74576271,,,,,,,,,,,,,,,,697.8256,699.1194,699.1194,700.0488,return,0.2235,,88.15104167,,,,,,FBP-YG-71.png,0.43,1.2,4,0.5,,,,,,,,,,,,,0,12,12,3,1,,,,,,,,,,,,,,,,,,,,,,,,,,,,
,,,,,V3_010,18,female,2024-10-15_15h50.25.944,jersey_experiment_5_v3,2023.2.2,Win32,84.74576271,,,,,,,,,,,,,,,,700.0491,701.343,701.343,702.4136,return,0.1704,,88.15104167,,,,,,FBP-PT-19.png,0.43,1.2,29,0.5,,,,,,,,,,,,,0,13,13,28,1,,,,,,,,,,,,,,,,,,,,,,,,,,,,
,,,,,V3_010,18,female,2024-10-15_15h50.25.944,jersey_experiment_5_v3,2023.2.2,Win32,84.74576271,,,,,,,,,,,,,,,,702.4139,703.7078,703.7079,704.6609,return,0.3291,,88.15104167,,,,,,FBP-RB-17.png,0.35,1.2,46,0.5,,,,,,,,,,,,,0,14,14,45,1,,,,,,,,,,,,,,,,,,,,,,,,,,,,
,,,,,V3_010,18,female,2024-10-15_15h50.25.944,jersey_experiment_5_v3,2023.2.2,Win32,84.74576271,,,,,,,,,,,,,,,,704.6611,706.2138,706.2138,709.0845,return,2.3614,,74.34895833,,,,,,FBP-OG-18.png,0.43,1.2,39,0.75,,,,,,,,,,,,,0,15,15,38,1,,,,,,,,,,,,,,,,,,,,,,,,,,,,
,,,,,V3_010,18,female,2024-10-15_15h50.25.944,jersey_experiment_5_v3,2023.2.2,Win32,84.74576271,,,,,,,,,,,,,,,,709.0849,710.3787,710.3787,711.2493,return,0.2858,,70.3125,,,,,,FBP-PT-17.png,0.35,1.2,16,0.5,,,,,,,,,,,,,0,16,16,15,1,,,,,,,,,,,,,,,,,,,,,,,,,,,,
,,,,,V3_010,18,female,2024-10-15_15h50.25.944,jersey_experiment_5_v3,2023.2.2,Win32,84.74576271,,,,,,,,,,,,,,,,711.2496,712.5435,712.5435,714.4141,return,0.277,,61.328125,,,,,,FBP-YG-71.png,0.4,1.2,3,0.5,,,,,,,,,,,,,0,17,17,2,1,,,,,,,,,,,,,,,,,,,,,,,,,,,,
,,,,,V3_010,18,female,2024-10-15_15h50.25.944,jersey_experiment_5_v3,2023.2.2,Win32,84.74576271,,,,,,,,,,,,,,,,714.4144,715.9671,715.9671,717.4142,return,0.1879,,53.125,,,,,,FBP-OG-18.png,0.4,1.2,38,0.75,,,,,,,,,,,,,0,18,18,37,1,,,,,,,,,,,,,,,,,,,,,,,,,,,,
,,,,,V3_010,18,female,2024-10-15_15h50.25.944,jersey_experiment_5_v3,2023.2.2,Win32,84.74576271,,,,,,,,,,,,,,,,717.4145,718.9672,718.9673,721.7555,return,2.0916,,50,,,,,,FBP-OG-18.png,0.37,1.2,37,0.75,,,,,,,,,,,,,0,19,19,36,1,,,,,,,,,,,,,,,,,,,,,,,,,,,,
,,,,,V3_010,18,female,2024-10-15_15h50.25.944,jersey_experiment_5_v3,2023.2.2,Win32,84.74576271,,,,,,,,,,,,,,,,721.7557,723.0497,723.0497,725.8734,return,1.7092,,51.5625,,,,,,FBP-RB-18.png,0.37,1.2,52,0.5,,,,,,,,,,,,,0,20,20,51,1,,,,,,,,,,,,,,,,,,,,,,,,,,,,
,,,,,V3_010,18,female,2024-10-15_15h50.25.944,jersey_experiment_5_v3,2023.2.2,Win32,84.74576271,,,,,,,,,,,,,,,,725.8736,727.1675,727.1675,728.4499,return,0.32,,59.765625,,,,,,FBP-YG-91.png,0.45,1.2,15,0.5,,,,,,,,,,,,,0,21,21,14,1,,,,,,,,,,,,,,,,,,,,,,,,,,,,
,,,,,V3_010,18,female,2024-10-15_15h50.25.944,jersey_experiment_5_v3,2023.2.2,Win32,84.74576271,,,,,,,,,,,,,,,,728.4502,729.7441,729.7441,730.7088,return,0.1751,,58.59375,,,,,,FBP-RB-19.png,0.37,1.2,57,0.5,,,,,,,,,,,,,0,22,22,56,1,,,,,,,,,,,,,,,,,,,,,,,,,,,,
,,,,,V3_010,18,female,2024-10-15_15h50.25.944,jersey_experiment_5_v3,2023.2.2,Win32,84.74576271,,,,,,,,,,,,,,,,730.7091,732.0029,732.0029,732.8617,return,0.3593,,58.59375,,,,,,FBP-YG-71.png,0.37,1.2,2,0.5,,,,,,,,,,,,,0,23,23,1,1,,,,,,,,,,,,,,,,,,,,,,,,,,,,
,,,,,V3_010,18,female,2024-10-15_15h50.25.944,jersey_experiment_5_v3,2023.2.2,Win32,84.74576271,,,,,,,,,,,,,,,,732.8621,734.4148,734.4149,736.8502,return,0.4495,,35.80729167,,,,,,FBP-OG-17.png,0.35,1.2,31,0.75,,,,,,,,,,,,,0,24,24,30,1,,,,,,,,,,,,,,,,,,,,,,,,,,,,
,,,,,V3_010,18,female,2024-10-15_15h50.25.944,jersey_experiment_5_v3,2023.2.2,Win32,84.74576271,,,,,,,,,,,,,,,,736.8505,738.1444,738.1444,740.5798,return,0.5779,,72.91666667,,,,,,FBP-PT-18.png,0.43,1.2,24,0.5,,,,,,,,,,,,,0,25,25,23,1,,,,,,,,,,,,,,,,,,,,,,,,,,,,
,,,,,V3_010,18,female,2024-10-15_15h50.25.944,jersey_experiment_5_v3,2023.2.2,Win32,84.74576271,,,,,,,,,,,,,,,,740.5801,742.1328,742.1328,744.4505,return,1.824,,40.36458333,,,,,,FBP-OG-19.png,0.4,1.2,43,0.75,,,,,,,,,,,,,0,26,26,42,1,,,,,,,,,,,,,,,,,,,,,,,,,,,,
,,,,,V3_010,18,female,2024-10-15_15h50.25.944,jersey_experiment_5_v3,2023.2.2,Win32,84.74576271,,,,,,,,,,,,,,,,744.4509,745.7446,745.7446,748.133,return,1.2857,,28.77604167,,,,,,FBP-YG-91.png,0.37,1.2,12,0.5,,,,,,,,,,,,,0,27,27,11,1,,,,,,,,,,,,,,,,,,,,,,,,,,,,
,,,,,V3_010,18,female,2024-10-15_15h50.25.944,jersey_experiment_5_v3,2023.2.2,Win32,84.74576271,,,,,,,,,,,,,,,,748.1333,749.6859,749.6859,750.7567,return,0.259,,33.33333333,,,,,,FBP-OG-17.png,0.4,1.2,33,0.75,,,,,,,,,,,,,0,28,28,32,1,,,,,,,,,,,,,,,,,,,,,,,,,,,,
,,,,,V3_010,18,female,2024-10-15_15h50.25.944,jersey_experiment_5_v3,2023.2.2,Win32,84.74576271,,,,,,,,,,,,,,,,750.757,752.0509,752.0509,753.5214,return,0.1798,,72.65625,,,,,,FBP-PT-19.png,0.45,1.2,30,0.5,,,,,,,,,,,,,0,29,29,29,1,,,,,,,,,,,,,,,,,,,,,,,,,,,,
,,,,,V3_010,18,female,2024-10-15_15h50.25.944,jersey_experiment_5_v3,2023.2.2,Win32,84.74576271,,,,,,,,,,,,,,,,753.5217,755.0746,755.0747,756.945,return,1.1333,,29.94791667,,,,,,FBP-OG-19.png,0.37,1.2,42,0.75,,,,,,,,,,,,,0,30,30,41,1,,,,,,,,,,,,,,,,,,,,,,,,,,,,
,,,,,V3_010,18,female,2024-10-15_15h50.25.944,jersey_experiment_5_v3,2023.2.2,Win32,84.74576271,,,,,,,,,,,,,,,,756.9453,758.4983,758.4983,760.4159,return,0.9211,,78.77604167,,,,,,FBP-OG-18.png,0.45,1.2,40,0.75,,,,,,,,,,,,,0,31,31,39,1,,,,,,,,,,,,,,,,,,,,,,,,,,,,
,,,,,V3_010,18,female,2024-10-15_15h50.25.944,jersey_experiment_5_v3,2023.2.2,Win32,84.74576271,,,,,,,,,,,,,,,,760.4161,761.71,761.71,763.6864,return,1.2243,,63.671875,,,,,,FBP-RB-17.png,0.37,1.2,47,0.5,,,,,,,,,,,,,0,32,32,46,1,,,,,,,,,,,,,,,,,,,,,,,,,,,,
,,,,,V3_010,18,female,2024-10-15_15h50.25.944,jersey_experiment_5_v3,2023.2.2,Win32,84.74576271,,,,,,,,,,,,,,,,763.6866,765.2395,765.2395,771.5574,return,2.0112,,45.83333333,,,,,,FBP-OG-19.png,0.45,1.2,45,0.75,,,,,,,,,,,,,0,33,33,44,1,,,,,,,,,,,,,,,,,,,,,,,,,,,,
,,,,,V3_010,18,female,2024-10-15_15h50.25.944,jersey_experiment_5_v3,2023.2.2,Win32,84.74576271,,,,,,,,,,,,,,,,771.5577,772.8515,772.8516,774.0868,return,0.2597,,23.17708333,,,,,,FBP-RB-19.png,0.35,1.2,56,0.5,,,,,,,,,,,,,0,34,34,55,1,,,,,,,,,,,,,,,,,,,,,,,,,,,,
,,,,,V3_010,18,female,2024-10-15_15h50.25.944,jersey_experiment_5_v3,2023.2.2,Win32,84.74576271,,,,,,,,,,,,,,,,774.0871,775.3811,775.3811,777.1105,return,0.3632,,54.03645833,,,,,,FBP-YG-81.png,0.43,1.2,9,0.5,,,,,,,,,,,,,0,35,35,8,1,,,,,,,,,,,,,,,,,,,,,,,,,,,,
,,,,,V3_010,18,female,2024-10-15_15h50.25.944,jersey_experiment_5_v3,2023.2.2,Win32,84.74576271,,,,,,,,,,,,,,,,777.1108,778.4047,778.4047,781.5342,return,1.1225,,49.609375,,,,,,FBP-YG-81.png,0.4,1.2,8,0.5,,,,,,,,,,,,,0,36,36,7,1,,,,,,,,,,,,,,,,,,,,,,,,,,,,
,,,,,V3_010,18,female,2024-10-15_15h50.25.944,jersey_experiment_5_v3,2023.2.2,Win32,84.74576271,,,,,,,,,,,,,,,,781.5345,782.8284,782.8285,783.6639,return,0.2518,,49.609375,,,,,,FBP-RB-19.png,0.4,1.2,58,0.5,,,,,,,,,,,,,0,37,37,57,1,,,,,,,,,,,,,,,,,,,,,,,,,,,,
,,,,,V3_010,18,female,2024-10-15_15h50.25.944,jersey_experiment_5_v3,2023.2.2,Win32,84.74576271,,,,,,,,,,,,,,,,783.6641,784.958,784.958,785.6049,return,0.2221,,49.609375,,,,,,FBP-PT-17.png,0.37,1.2,17,0.5,,,,,,,,,,,,,0,38,38,16,1,,,,,,,,,,,,,,,,,,,,,,,,,,,,
,,,,,V3_010,18,female,2024-10-15_15h50.25.944,jersey_experiment_5_v3,2023.2.2,Win32,84.74576271,,,,,,,,,,,,,,,,785.6051,787.1579,787.1579,788.4168,return,0.2976,,55.20833333,,,,,,FBP-OG-17.png,0.43,1.2,34,0.75,,,,,,,,,,,,,0,39,39,33,1,,,,,,,,,,,,,,,,,,,,,,,,,,,,
,,,,,V3_010,18,female,2024-10-15_15h50.25.944,jersey_experiment_5_v3,2023.2.2,Win32,84.74576271,,,,,,,,,,,,,,,,788.4172,789.711,789.711,790.5464,return,0.2711,,63.671875,,,,,,FBP-PT-17.png,0.43,1.2,19,0.5,,,,,,,,,,,,,0,40,40,18,1,,,,,,,,,,,,,,,,,,,,,,,,,,,,
,,,,,V3_010,18,female,2024-10-15_15h50.25.944,jersey_experiment_5_v3,2023.2.2,Win32,84.74576271,,,,,,,,,,,,,,,,790.5468,791.8406,791.8406,793.7464,return,1.1315,,79.6875,,,,,,FBP-PT-18.png,0.45,1.2,25,0.5,,,,,,,,,,,,,0,41,41,24,1,,,,,,,,,,,,,,,,,,,,,,,,,,,,
,,,,,V3_010,18,female,2024-10-15_15h50.25.944,jersey_experiment_5_v3,2023.2.2,Win32,84.74576271,,,,,,,,,,,,,,,,793.7468,795.0405,795.0406,797.4879,return,1.0738,,14.97395833,,,,,,FBP-PT-19.png,0.35,1.2,26,0.5,,,,,,,,,,,,,0,42,42,25,1,,,,,,,,,,,,,,,,,,,,,,,,,,,,
,,,,,V3_010,18,female,2024-10-15_15h50.25.944,jersey_experiment_5_v3,2023.2.2,Win32,84.74576271,,,,,,,,,,,,,,,,797.4883,798.782,798.782,799.9231,return,0.4241,,14.97395833,,,,,,FBP-YG-81.png,0.37,1.2,7,0.5,,,,,,,,,,,,,0,43,43,6,1,,,,,,,,,,,,,,,,,,,,,,,,,,,,
,,,,,V3_010,18,female,2024-10-15_15h50.25.944,jersey_experiment_5_v3,2023.2.2,Win32,84.74576271,,,,,,,,,,,,,,,,799.9235,801.2173,801.2174,802.6997,return,0.303,,2.34375,,,,,,FBP-RB-18.png,0.35,1.2,51,0.5,,,,,,,,,,,,,0,44,44,50,1,,,,,,,,,,,,,,,,,,,,,,,,,,,,
,,,,,V3_010,18,female,2024-10-15_15h50.25.944,jersey_experiment_5_v3,2023.2.2,Win32,84.74576271,,,,,,,,,,,,,,,,802.7,803.9938,803.9938,807.2646,return,0.2616,,37.5,,,,,,FBP-PT-17.png,0.45,1.2,20,0.5,,,,,,,,,,,,,0,45,45,19,1,,,,,,,,,,,,,,,,,,,,,,,,,,,,
,,,,,V3_010,18,female,2024-10-15_15h50.25.944,jersey_experiment_5_v3,2023.2.2,Win32,84.74576271,,,,,,,,,,,,,,,,807.2648,808.8176,808.8176,812.4178,return,0.4148,,48.4375,,,,,,FBP-OG-17.png,0.45,1.2,35,0.75,,,,,,,,,,,,,0,46,46,34,1,,,,,,,,,,,,,,,,,,,,,,,,,,,,
,,,,,V3_010,18,female,2024-10-15_15h50.25.944,jersey_experiment_5_v3,2023.2.2,Win32,84.74576271,,,,,,,,,,,,,,,,812.4182,813.712,813.7121,815.759,return,0.4042,,54.81770833,,,,,,FBP-RB-17.png,0.43,1.2,49,0.5,,,,,,,,,,,,,0,47,47,48,1,,,,,,,,,,,,,,,,,,,,,,,,,,,,
,,,,,V3_010,18,female,2024-10-15_15h50.25.944,jersey_experiment_5_v3,2023.2.2,Win32,84.74576271,,,,,,,,,,,,,,,,815.7592,817.0532,817.0534,818.9004,return,0.4348,,35.28645833,,,,,,FBP-PT-18.png,0.35,1.2,21,0.5,,,,,,,,,,,,,0,48,48,20,1,,,,,,,,,,,,,,,,,,,,,,,,,,,,
,,,,,V3_010,18,female,2024-10-15_15h50.25.944,jersey_experiment_5_v3,2023.2.2,Win32,84.74576271,,,,,,,,,,,,,,,,818.9007,820.1945,820.1945,823.3239,return,0.42,,63.54166667,,,,,,FBP-YG-91.png,0.43,1.2,14,0.5,,,,,,,,,,,,,0,49,49,13,1,,,,,,,,,,,,,,,,,,,,,,,,,,,,
,,,,,V3_010,18,female,2024-10-15_15h50.25.944,jersey_experiment_5_v3,2023.2.2,Win32,84.74576271,,,,,,,,,,,,,,,,823.3243,824.6183,824.6183,825.8889,return,0.2963,,74.86979167,,,,,,FBP-RB-19.png,0.45,1.2,60,0.5,,,,,,,,,,,,,0,50,50,59,1,,,,,,,,,,,,,,,,,,,,,,,,,,,,
,,,,,V3_010,18,female,2024-10-15_15h50.25.944,jersey_experiment_5_v3,2023.2.2,Win32,84.74576271,,,,,,,,,,,,,,,,825.8894,827.183,827.1831,829.4419,return,1.5086,,76.04166667,,,,,,FBP-YG-91.png,0.4,1.2,13,0.5,,,,,,,,,,,,,0,51,51,12,1,,,,,,,,,,,,,,,,,,,,,,,,,,,,
,,,,,V3_010,18,female,2024-10-15_15h50.25.944,jersey_experiment_5_v3,2023.2.2,Win32,84.74576271,,,,,,,,,,,,,,,,829.4422,830.9951,830.9952,834.0539,return,1.9295,,48.95833333,,,,,,FBP-OG-19.png,0.35,1.2,41,0.75,,,,,,,,,,,,,0,52,52,40,1,,,,,,,,,,,,,,,,,,,,,,,,,,,,
,,,,,V3_010,18,female,2024-10-15_15h50.25.944,jersey_experiment_5_v3,2023.2.2,Win32,84.74576271,,,,,,,,,,,,,,,,834.0542,835.6069,835.6071,836.5126,return,0.2378,,35.41666667,,,,,,FBP-OG-17.png,0.37,1.2,32,0.75,,,,,,,,,,,,,0,53,53,31,1,,,,,,,,,,,,,,,,,,,,,,,,,,,,
,,,,,V3_010,18,female,2024-10-15_15h50.25.944,jersey_experiment_5_v3,2023.2.2,Win32,84.74576271,,,,,,,,,,,,,,,,836.5129,837.8069,837.8069,839.101,return,0.2652,,56.640625,,,,,,FBP-RB-17.png,0.45,1.2,50,0.5,,,,,,,,,,,,,0,54,54,49,1,,,,,,,,,,,,,,,,,,,,,,,,,,,,
,,,,,V3_010,18,female,2024-10-15_15h50.25.944,jersey_experiment_5_v3,2023.2.2,Win32,84.74576271,,,,,,,,,,,,,,,,839.1013,840.3952,840.3953,842.2307,return,0.2127,,47.00520833,,,,,,FBP-YG-71.png,0.35,1.2,1,0.5,,,,,,,,,,,,,0,55,55,0,1,,,,,,,,,,,,,,,,,,,,,,,,,,,,
,,,,,V3_010,18,female,2024-10-15_15h50.25.944,jersey_experiment_5_v3,2023.2.2,Win32,84.74576271,,,,,,,,,,,,,,,,842.2311,843.5248,843.5249,844.1954,return,0.2241,,47.00520833,,,,,,FBP-PT-18.png,0.37,1.2,22,0.5,,,,,,,,,,,,,0,56,56,21,1,,,,,,,,,,,,,,,,,,,,,,,,,,,,
,,,,,V3_010,18,female,2024-10-15_15h50.25.944,jersey_experiment_5_v3,2023.2.2,Win32,84.74576271,,,,,,,,,,,,,,,,844.1957,845.4896,845.4898,847.325,return,0.1831,,91.40625,,,,,,FBP-YG-71.png,0.45,1.2,5,0.5,,,,,,,,,,,,,0,57,57,4,1,,,,,,,,,,,,,,,,,,,,,,,,,,,,
,,,,,V3_010,18,female,2024-10-15_15h50.25.944,jersey_experiment_5_v3,2023.2.2,Win32,84.74576271,,,,,,,,,,,,,,,,847.3255,848.6192,848.6192,849.9721,return,0.4239,,63.671875,,,,,,FBP-RB-18.png,0.4,1.2,53,0.5,,,,,,,,,,,,,0,58,58,52,1,,,,,,,,,,,,,,,,,,,,,,,,,,,,
,,,,,V3_010,18,female,2024-10-15_15h50.25.944,jersey_experiment_5_v3,2023.2.2,Win32,84.74576271,,,,,,,,,,,,,,,,849.9725,851.2662,851.2663,852.6545,return,0.2532,,69.27083333,,,,,,FBP-RB-17.png,0.4,1.2,48,0.5,,,,,,,,,,,,,0,59,59,47,1,,,,,,,,,,,,,,,,,,,,,,,,,,,,
,,,,,V3_010,18,female,2024-10-15_15h50.25.944,jersey_experiment_5_v3,2023.2.2,Win32,84.74576271,,,,,,,,,,,,,,,,852.6563,853.9487,853.9488,855.5252,return,0.2957,,53.77604167,,,,,,FBP-YG-17.png,0.37,1.2,2,0.5,,,,,,,,,,,,,,,,,,0,0,0,1,1,,,,,,,,,,,,,,,,,,,,,,,
,,,,,V3_010,18,female,2024-10-15_15h50.25.944,jersey_experiment_5_v3,2023.2.2,Win32,84.74576271,,,,,,,,,,,,,,,,855.5255,857.0782,857.0783,858.8549,return,0.2696,,73.17708333,,,,,,FBP-OG-81.png,0.43,1.2,39,0.75,,,,,,,,,,,,,,,,,,0,1,1,38,1,,,,,,,,,,,,,,,,,,,,,,,
,,,,,V3_010,18,female,2024-10-15_15h50.25.944,jersey_experiment_5_v3,2023.2.2,Win32,84.74576271,,,,,,,,,,,,,,,,858.8553,860.1489,860.1489,861.8197,return,0.2919,,62.890625,,,,,,FBP-RB-71.png,0.4,1.2,48,0.5,,,,,,,,,,,,,,,,,,0,2,2,47,1,,,,,,,,,,,,,,,,,,,,,,,
,,,,,V3_010,18,female,2024-10-15_15h50.25.944,jersey_experiment_5_v3,2023.2.2,Win32,84.74576271,,,,,,,,,,,,,,,,861.8201,863.1138,863.1139,864.5021,return,0.4336,,56.38020833,,,,,,FBP-PT-81.png,0.35,1.2,21,0.5,,,,,,,,,,,,,,,,,,0,3,3,20,1,,,,,,,,,,,,,,,,,,,,,,,
,,,,,V3_010,18,female,2024-10-15_15h50.25.944,jersey_experiment_5_v3,2023.2.2,Win32,84.74576271,,,,,,,,,,,,,,,,864.5025,865.7961,865.7961,867.6316,return,0.2402,,68.75,,,,,,FBP-YG-19.png,0.43,1.2,14,0.5,,,,,,,,,,,,,,,,,,0,4,4,13,1,,,,,,,,,,,,,,,,,,,,,,,
,,,,,V3_010,18,female,2024-10-15_15h50.25.944,jersey_experiment_5_v3,2023.2.2,Win32,84.74576271,,,,,,,,,,,,,,,,867.6319,868.9258,868.9258,870.3376,return,0.2619,,51.04166667,,,,,,FBP-YG-19.png,0.4,1.2,13,0.5,,,,,,,,,,,,,,,,,,0,5,5,12,1,,,,,,,,,,,,,,,,,,,,,,,
,,,,,V3_010,18,female,2024-10-15_15h50.25.944,jersey_experiment_5_v3,2023.2.2,Win32,84.74576271,,,,,,,,,,,,,,,,870.3378,871.6316,871.6318,873.2201,return,0.3898,,54.16666667,,,,,,FBP-YG-19.png,0.35,1.2,11,0.5,,,,,,,,,,,,,,,,,,0,6,6,10,1,,,,,,,,,,,,,,,,,,,,,,,
,,,,,V3_010,18,female,2024-10-15_15h50.25.944,jersey_experiment_5_v3,2023.2.2,Win32,84.74576271,,,,,,,,,,,,,,,,873.2204,874.7729,874.773,876.1024,return,0.2588,,33.203125,,,,,,FBP-OG-81.png,0.37,1.2,37,0.75,,,,,,,,,,,,,,,,,,0,7,7,36,1,,,,,,,,,,,,,,,,,,,,,,,
,,,,,V3_010,18,female,2024-10-15_15h50.25.944,jersey_experiment_5_v3,2023.2.2,Win32,84.74576271,,,,,,,,,,,,,,,,876.1027,877.3966,877.3967,879.632,return,0.2476,,48.69791667,,,,,,FBP-RB-81.png,0.45,1.2,55,0.5,,,,,,,,,,,,,,,,,,0,8,8,54,1,,,,,,,,,,,,,,,,,,,,,,,
,,,,,V3_010,18,female,2024-10-15_15h50.25.944,jersey_experiment_5_v3,2023.2.2,Win32,84.74576271,,,,,,,,,,,,,,,,879.6324,880.9263,880.9264,882.4204,return,0.2831,,73.17708333,,,,,,FBP-RB-91.png,0.45,1.2,60,0.5,,,,,,,,,,,,,,,,,,0,9,9,59,1,,,,,,,,,,,,,,,,,,,,,,,
,,,,,V3_010,18,female,2024-10-15_15h50.25.944,jersey_experiment_5_v3,2023.2.2,Win32,84.74576271,,,,,,,,,,,,,,,,882.4208,883.7145,883.7146,886.7735,return,1.4955,,28.77604167,,,,,,FBP-RB-71.png,0.35,1.2,46,0.5,,,,,,,,,,,,,,,,,,0,10,10,45,1,,,,,,,,,,,,,,,,,,,,,,,
,,,,,V3_010,18,female,2024-10-15_15h50.25.944,jersey_experiment_5_v3,2023.2.2,Win32,84.74576271,,,,,,,,,,,,,,,,886.7738,888.0676,888.0677,890.0442,return,0.8202,,29.42708333,,,,,,FBP-YG-18.png,0.35,1.2,6,0.5,,,,,,,,,,,,,,,,,,0,11,11,5,1,,,,,,,,,,,,,,,,,,,,,,,
,,,,,V3_010,18,female,2024-10-15_15h50.25.944,jersey_experiment_5_v3,2023.2.2,Win32,84.74576271,,,,,,,,,,,,,,,,890.0444,891.3385,891.3385,892.962,return,0.226,,44.40104167,,,,,,FBP-RB-81.png,0.4,1.2,53,0.5,,,,,,,,,,,,,,,,,,0,12,12,52,1,,,,,,,,,,,,,,,,,,,,,,,
,,,,,V3_010,18,female,2024-10-15_15h50.25.944,jersey_experiment_5_v3,2023.2.2,Win32,84.74576271,,,,,,,,,,,,,,,,892.9625,894.2561,894.2561,896.0444,return,0.185,,68.75,,,,,,FBP-YG-17.png,0.45,1.2,5,0.5,,,,,,,,,,,,,,,,,,0,13,13,4,1,,,,,,,,,,,,,,,,,,,,,,,
,,,,,V3_010,18,female,2024-10-15_15h50.25.944,jersey_experiment_5_v3,2023.2.2,Win32,84.74576271,,,,,,,,,,,,,,,,896.0447,897.5975,897.5975,903.8094,return,0.2604,,50.390625,,,,,,FBP-OG-91.png,0.35,1.2,41,0.75,,,,,,,,,,,,,,,,,,0,14,14,40,1,,,,,,,,,,,,,,,,,,,,,,,
,,,,,V3_010,18,female,2024-10-15_15h50.25.944,jersey_experiment_5_v3,2023.2.2,Win32,84.74576271,,,,,,,,,,,,,,,,903.8096,905.1036,905.1037,907.2919,return,0.8077,,51.953125,,,,,,FBP-YG-17.png,0.4,1.2,3,0.5,,,,,,,,,,,,,,,,,,0,15,15,2,1,,,,,,,,,,,,,,,,,,,,,,,
,,,,,V3_010,18,female,2024-10-15_15h50.25.944,jersey_experiment_5_v3,2023.2.2,Win32,84.74576271,,,,,,,,,,,,,,,,907.2922,908.8449,908.8449,909.9156,return,0.268,,60.28645833,,,,,,FBP-OG-71.png,0.43,1.2,34,0.75,,,,,,,,,,,,,,,,,,0,16,16,33,1,,,,,,,,,,,,,,,,,,,,,,,
,,,,,V3_010,18,female,2024-10-15_15h50.25.944,jersey_experiment_5_v3,2023.2.2,Win32,84.74576271,,,,,,,,,,,,,,,,909.9159,911.2098,911.2098,912.6098,return,0.5205,,87.5,,,,,,FBP-RB-71.png,0.45,1.2,50,0.5,,,,,,,,,,,,,,,,,,0,17,17,49,1,,,,,,,,,,,,,,,,,,,,,,,
,,,,,V3_010,18,female,2024-10-15_15h50.25.944,jersey_experiment_5_v3,2023.2.2,Win32,84.74576271,,,,,,,,,,,,,,,,912.6101,913.9039,913.9039,916.2687,return,0.4187,,46.35416667,,,,,,FBP-YG-19.png,0.37,1.2,12,0.5,,,,,,,,,,,,,,,,,,0,18,18,11,1,,,,,,,,,,,,,,,,,,,,,,,
,,,,,V3_010,18,female,2024-10-15_15h50.25.944,jersey_experiment_5_v3,2023.2.2,Win32,84.74576271,,,,,,,,,,,,,,,,916.269,917.5629,917.5629,920.2571,return,1.733,,24.73958333,,,,,,FBP-PT-91.png,0.35,1.2,26,0.5,,,,,,,,,,,,,,,,,,0,19,19,25,1,,,,,,,,,,,,,,,,,,,,,,,
,,,,,V3_010,18,female,2024-10-15_15h50.25.944,jersey_experiment_5_v3,2023.2.2,Win32,84.74576271,,,,,,,,,,,,,,,,920.2576,921.81,921.8101,925.0572,return,1.6723,,27.34375,,,,,,FBP-OG-81.png,0.4,1.2,38,0.75,,,,,,,,,,,,,,,,,,0,20,20,37,1,,,,,,,,,,,,,,,,,,,,,,,
,,,,,V3_010,18,female,2024-10-15_15h50.25.944,jersey_experiment_5_v3,2023.2.2,Win32,84.74576271,,,,,,,,,,,,,,,,925.0576,926.3514,926.3515,928.3398,return,0.7302,,46.484375,,,,,,FBP-PT-81.png,0.4,1.2,23,0.5,,,,,,,,,,,,,,,,,,0,21,21,22,1,,,,,,,,,,,,,,,,,,,,,,,
,,,,,V3_010,18,female,2024-10-15_15h50.25.944,jersey_experiment_5_v3,2023.2.2,Win32,84.74576271,,,,,,,,,,,,,,,,928.3402,929.6338,929.6338,930.9988,return,0.2121,,50,,,,,,FBP-RB-71.png,0.37,1.2,47,0.5,,,,,,,,,,,,,,,,,,0,22,22,46,1,,,,,,,,,,,,,,,,,,,,,,,
,,,,,V3_010,18,female,2024-10-15_15h50.25.944,jersey_experiment_5_v3,2023.2.2,Win32,84.74576271,,,,,,,,,,,,,,,,930.9991,932.5517,932.5518,933.5164,return,0.2435,,37.109375,,,,,,FBP-OG-81.png,0.35,1.2,36,0.75,,,,,,,,,,,,,,,,,,0,23,23,35,1,,,,,,,,,,,,,,,,,,,,,,,
,,,,,V3_010,18,female,2024-10-15_15h50.25.944,jersey_experiment_5_v3,2023.2.2,Win32,84.74576271,,,,,,,,,,,,,,,,933.5166,934.8107,934.8107,936.6695,return,0.6897,,80.72916667,,,,,,FBP-YG-18.png,0.43,1.2,9,0.5,,,,,,,,,,,,,,,,,,0,24,24,8,1,,,,,,,,,,,,,,,,,,,,,,,
,,,,,V3_010,18,female,2024-10-15_15h50.25.944,jersey_experiment_5_v3,2023.2.2,Win32,84.74576271,,,,,,,,,,,,,,,,936.6699,938.2227,938.2227,939.9048,return,0.2981,,96.875,,,,,,FBP-OG-91.png,0.45,1.2,45,0.75,,,,,,,,,,,,,,,,,,0,25,25,44,1,,,,,,,,,,,,,,,,,,,,,,,
,,,,,V3_010,18,female,2024-10-15_15h50.25.944,jersey_experiment_5_v3,2023.2.2,Win32,84.74576271,,,,,,,,,,,,,,,,939.9051,941.199,941.1991,943.811,return,0.9319,,26.69270833,,,,,,FBP-PT-71.png,0.4,1.2,18,0.5,,,,,,,,,,,,,,,,,,0,26,26,17,1,,,,,,,,,,,,,,,,,,,,,,,
,,,,,V3_010,18,female,2024-10-15_15h50.25.944,jersey_experiment_5_v3,2023.2.2,Win32,84.74576271,,,,,,,,,,,,,,,,943.8112,945.1052,945.1053,948.517,return,2.0134,,24.86979167,,,,,,FBP-YG-17.png,0.35,1.2,1,0.5,,,,,,,,,,,,,,,,,,0,27,27,0,1,,,,,,,,,,,,,,,,,,,,,,,
,,,,,V3_010,18,female,2024-10-15_15h50.25.944,jersey_experiment_5_v3,2023.2.2,Win32,84.74576271,,,,,,,,,,,,,,,,948.5173,949.8111,949.8112,952.5407,return,0.1946,,50.13020833,,,,,,FBP-RB-91.png,0.43,1.2,59,0.5,,,,,,,,,,,,,,,,,,0,28,28,58,1,,,,,,,,,,,,,,,,,,,,,,,
,,,,,V3_010,18,female,2024-10-15_15h50.25.944,jersey_experiment_5_v3,2023.2.2,Win32,84.74576271,,,,,,,,,,,,,,,,952.5411,954.0936,954.0937,955.4703,return,0.242,,72.52604167,,,,,,FBP-OG-91.png,0.4,1.2,43,0.75,,,,,,,,,,,,,,,,,,0,29,29,42,1,,,,,,,,,,,,,,,,,,,,,,,
,,,,,V3_010,18,female,2024-10-15_15h50.25.944,jersey_experiment_5_v3,2023.2.2,Win32,84.74576271,,,,,,,,,,,,,,,,955.4708,956.7642,956.7643,958.1878,return,0.2424,,74.34895833,,,,,,FBP-YG-18.png,0.37,1.2,7,0.5,,,,,,,,,,,,,,,,,,0,30,30,6,1,,,,,,,,,,,,,,,,,,,,,,,
,,,,,V3_010,18,female,2024-10-15_15h50.25.944,jersey_experiment_5_v3,2023.2.2,Win32,84.74576271,,,,,,,,,,,,,,,,958.1881,959.4819,959.482,960.882,return,0.3318,,61.45833333,,,,,,FBP-RB-91.png,0.4,1.2,58,0.5,,,,,,,,,,,,,,,,,,0,31,31,57,1,,,,,,,,,,,,,,,,,,,,,,,
,,,,,V3_010,18,female,2024-10-15_15h50.25.944,jersey_experiment_5_v3,2023.2.2,Win32,84.74576271,,,,,,,,,,,,,,,,960.8823,962.435,962.435,971.6707,return,1.4723,,49.86979167,,,,,,FBP-OG-71.png,0.35,1.2,31,0.75,,,,,,,,,,,,,,,,,,0,32,32,30,1,,,,,,,,,,,,,,,,,,,,,,,
,,,,,V3_010,18,female,2024-10-15_15h50.25.944,jersey_experiment_5_v3,2023.2.2,Win32,84.74576271,,,,,,,,,,,,,,,,971.6712,973.2237,973.2238,985.9419,return,10.8337,,46.74479167,,,,,,FBP-OG-71.png,0.37,1.2,32,0.75,,,,,,,,,,,,,,,,,,0,33,33,31,1,,,,,,,,,,,,,,,,,,,,,,,
,,,,,V3_010,18,female,2024-10-15_15h50.25.944,jersey_experiment_5_v3,2023.2.2,Win32,84.74576271,,,,,,,,,,,,,,,,985.9423,987.2361,987.2362,989.095,return,0.3631,,97.39583333,,,,,,FBP-PT-91.png,0.45,1.2,30,0.5,,,,,,,,,,,,,,,,,,0,34,34,29,1,,,,,,,,,,,,,,,,,,,,,,,
,,,,,V3_010,18,female,2024-10-15_15h50.25.944,jersey_experiment_5_v3,2023.2.2,Win32,84.74576271,,,,,,,,,,,,,,,,989.0953,990.3891,990.3891,991.9421,return,0.3532,,60.546875,,,,,,FBP-PT-81.png,0.37,1.2,22,0.5,,,,,,,,,,,,,,,,,,0,35,35,21,1,,,,,,,,,,,,,,,,,,,,,,,
,,,,,V3_010,18,female,2024-10-15_15h50.25.944,jersey_experiment_5_v3,2023.2.2,Win32,84.74576271,,,,,,,,,,,,,,,,991.9425,993.2362,993.2363,994.2129,return,0.2107,,63.15104167,,,,,,FBP-YG-18.png,0.4,1.2,8,0.5,,,,,,,,,,,,,,,,,,0,36,36,7,1,,,,,,,,,,,,,,,,,,,,,,,
,,,,,V3_010,18,female,2024-10-15_15h50.25.944,jersey_experiment_5_v3,2023.2.2,Win32,84.74576271,,,,,,,,,,,,,,,,994.2136,995.5072,995.5072,996.5776,return,0.2487,,61.71875,,,,,,FBP-PT-91.png,0.37,1.2,27,0.5,,,,,,,,,,,,,,,,,,0,37,37,26,1,,,,,,,,,,,,,,,,,,,,,,,
,,,,,V3_010,18,female,2024-10-15_15h50.25.944,jersey_experiment_5_v3,2023.2.2,Win32,84.74576271,,,,,,,,,,,,,,,,996.5778,997.8716,997.8717,999.8364,return,0.7729,,81.11979167,,,,,,FBP-YG-17.png,0.43,1.2,4,0.5,,,,,,,,,,,,,,,,,,0,38,38,3,1,,,,,,,,,,,,,,,,,,,,,,,
,,,,,V3_010,18,female,2024-10-15_15h50.25.944,jersey_experiment_5_v3,2023.2.2,Win32,84.74576271,,,,,,,,,,,,,,,,999.8368,1001.3895,1001.3896,1002.9425,return,0.1466,,96.22395833,,,,,,FBP-OG-71.png,0.45,1.2,35,0.75,,,,,,,,,,,,,,,,,,0,39,39,34,1,,,,,,,,,,,,,,,,,,,,,,,
,,,,,V3_010,18,female,2024-10-15_15h50.25.944,jersey_experiment_5_v3,2023.2.2,Win32,84.74576271,,,,,,,,,,,,,,,,1002.9429,1004.2368,1004.2368,1005.3426,return,0.3002,,62.890625,,,,,,FBP-PT-71.png,0.37,1.2,17,0.5,,,,,,,,,,,,,,,,,,0,40,40,16,1,,,,,,,,,,,,,,,,,,,,,,,
,,,,,V3_010,18,female,2024-10-15_15h50.25.944,jersey_experiment_5_v3,2023.2.2,Win32,84.74576271,,,,,,,,,,,,,,,,1005.3429,1006.6369,1006.6369,1007.9429,return,0.3067,,86.58854167,,,,,,FBP-PT-81.png,0.43,1.2,24,0.5,,,,,,,,,,,,,,,,,,0,41,41,23,1,,,,,,,,,,,,,,,,,,,,,,,
,,,,,V3_010,18,female,2024-10-15_15h50.25.944,jersey_experiment_5_v3,2023.2.2,Win32,84.74576271,,,,,,,,,,,,,,,,1007.9433,1009.2369,1009.2369,1012.2722,return,0.485,,50.65104167,,,,,,FBP-PT-91.png,0.4,1.2,28,0.5,,,,,,,,,,,,,,,,,,0,42,42,27,1,,,,,,,,,,,,,,,,,,,,,,,
,,,,,V3_010,18,female,2024-10-15_15h50.25.944,jersey_experiment_5_v3,2023.2.2,Win32,84.74576271,,,,,,,,,,,,,,,,1012.2725,1013.5664,1013.5665,1019.0608,return,4.0948,,76.5625,,,,,,FBP-RB-71.png,0.43,1.2,49,0.5,,,,,,,,,,,,,,,,,,0,43,43,48,1,,,,,,,,,,,,,,,,,,,,,,,
,,,,,V3_010,18,female,2024-10-15_15h50.25.944,jersey_experiment_5_v3,2023.2.2,Win32,84.74576271,,,,,,,,,,,,,,,,1019.0612,1020.3548,1020.3549,1022.0962,return,0.3087,,88.02083333,,,,,,FBP-PT-81.png,0.45,1.2,25,0.5,,,,,,,,,,,,,,,,,,0,44,44,24,1,,,,,,,,,,,,,,,,,,,,,,,
,,,,,V3_010,18,female,2024-10-15_15h50.25.944,jersey_experiment_5_v3,2023.2.2,Win32,84.74576271,,,,,,,,,,,,,,,,1022.0965,1023.3904,1023.3904,1024.9079,return,0.1369,,97.65625,,,,,,FBP-YG-18.png,0.45,1.2,10,0.5,,,,,,,,,,,,,,,,,,0,45,45,9,1,,,,,,,,,,,,,,,,,,,,,,,
,,,,,V3_010,18,female,2024-10-15_15h50.25.944,jersey_experiment_5_v3,2023.2.2,Win32,84.74576271,,,,,,,,,,,,,,,,1024.9082,1026.4611,1026.4611,1029.5317,return,0.6426,,83.59375,,,,,,FBP-OG-91.png,0.37,1.2,42,0.75,,,,,,,,,,,,,,,,,,0,46,46,41,1,,,,,,,,,,,,,,,,,,,,,,,
,,,,,V3_010,18,female,2024-10-15_15h50.25.944,jersey_experiment_5_v3,2023.2.2,Win32,84.74576271,,,,,,,,,,,,,,,,1029.532,1031.0849,1031.0849,1033.2024,return,1.4123,,80.20833333,,,,,,FBP-OG-81.png,0.45,1.2,40,0.75,,,,,,,,,,,,,,,,,,0,47,47,39,1,,,,,,,,,,,,,,,,,,,,,,,
,,,,,V3_010,18,female,2024-10-15_15h50.25.944,jersey_experiment_5_v3,2023.2.2,Win32,84.74576271,,,,,,,,,,,,,,,,1033.2027,1034.7555,1034.7556,1036.8144,return,0.8635,,82.16145833,,,,,,FBP-OG-91.png,0.43,1.2,44,0.75,,,,,,,,,,,,,,,,,,0,48,48,43,1,,,,,,,,,,,,,,,,,,,,,,,
,,,,,V3_010,18,female,2024-10-15_15h50.25.944,jersey_experiment_5_v3,2023.2.2,Win32,84.74576271,,,,,,,,,,,,,,,,1036.8146,1038.1085,1038.1086,1039.5321,return,0.2186,,96.09375,,,,,,FBP-YG-19.png,0.45,1.2,15,0.5,,,,,,,,,,,,,,,,,,0,49,49,14,1,,,,,,,,,,,,,,,,,,,,,,,
,,,,,V3_010,18,female,2024-10-15_15h50.25.944,jersey_experiment_5_v3,2023.2.2,Win32,84.74576271,,,,,,,,,,,,,,,,1039.5323,1040.8262,1040.8262,1041.8617,return,0.2361,,97.65625,,,,,,FBP-PT-91.png,0.43,1.2,29,0.5,,,,,,,,,,,,,,,,,,0,50,50,28,1,,,,,,,,,,,,,,,,,,,,,,,
,,,,,V3_010,18,female,2024-10-15_15h50.25.944,jersey_experiment_5_v3,2023.2.2,Win32,84.74576271,,,,,,,,,,,,,,,,1041.862,1043.1558,1043.1559,1045.25,return,0.8612,,27.99479167,,,,,,FBP-RB-81.png,0.35,1.2,51,0.5,,,,,,,,,,,,,,,,,,0,51,51,50,1,,,,,,,,,,,,,,,,,,,,,,,
,,,,,V3_010,18,female,2024-10-15_15h50.25.944,jersey_experiment_5_v3,2023.2.2,Win32,84.74576271,,,,,,,,,,,,,,,,1045.2503,1046.5442,1046.5442,1048.9795,return,0.1999,,45.3125,,,,,,FBP-PT-71.png,0.35,1.2,16,0.5,,,,,,,,,,,,,,,,,,0,52,52,15,1,,,,,,,,,,,,,,,,,,,,,,,
,,,,,V3_010,18,female,2024-10-15_15h50.25.944,jersey_experiment_5_v3,2023.2.2,Win32,84.74576271,,,,,,,,,,,,,,,,1048.9797,1050.2737,1050.2737,1051.2032,return,0.4705,,45.44270833,,,,,,FBP-RB-91.png,0.37,1.2,57,0.5,,,,,,,,,,,,,,,,,,0,53,53,56,1,,,,,,,,,,,,,,,,,,,,,,,
,,,,,V3_010,18,female,2024-10-15_15h50.25.944,jersey_experiment_5_v3,2023.2.2,Win32,84.74576271,,,,,,,,,,,,,,,,1051.2036,1052.4973,1052.4974,1055.7092,return,1.5711,,49.34895833,,,,,,FBP-RB-91.png,0.35,1.2,56,0.5,,,,,,,,,,,,,,,,,,0,54,54,55,1,,,,,,,,,,,,,,,,,,,,,,,
,,,,,V3_010,18,female,2024-10-15_15h50.25.944,jersey_experiment_5_v3,2023.2.2,Win32,84.74576271,,,,,,,,,,,,,,,,1055.7095,1057.0034,1057.0035,1063.239,return,4.4946,,70.57291667,,,,,,FBP-PT-71.png,0.43,1.2,19,0.5,,,,,,,,,,,,,,,,,,0,55,55,18,1,,,,,,,,,,,,,,,,,,,,,,,
,,,,,V3_010,18,female,2024-10-15_15h50.25.944,jersey_experiment_5_v3,2023.2.2,Win32,84.74576271,,,,,,,,,,,,,,,,1063.2394,1064.5331,1064.5332,1067.5803,return,2.3363,,83.85416667,,,,,,FBP-PT-71.png,0.45,1.2,20,0.5,,,,,,,,,,,,,,,,,,0,56,56,19,1,,,,,,,,,,,,,,,,,,,,,,,
,,,,,V3_010,18,female,2024-10-15_15h50.25.944,jersey_experiment_5_v3,2023.2.2,Win32,84.74576271,,,,,,,,,,,,,,,,1067.5805,1068.8743,1068.8743,1070.6627,return,0.2474,,66.796875,,,,,,FBP-RB-81.png,0.37,1.2,52,0.5,,,,,,,,,,,,,,,,,,0,57,57,51,1,,,,,,,,,,,,,,,,,,,,,,,
,,,,,V3_010,18,female,2024-10-15_15h50.25.944,jersey_experiment_5_v3,2023.2.2,Win32,84.74576271,,,,,,,,,,,,,,,,1070.6631,1072.2158,1072.2158,1074.4275,return,0.2561,,72.265625,,,,,,FBP-OG-71.png,0.4,1.2,33,0.75,,,,,,,,,,,,,,,,,,0,58,58,32,1,,,,,,,,,,,,,,,,,,,,,,,
,,,,,V3_010,18,female,2024-10-15_15h50.25.944,jersey_experiment_5_v3,2023.2.2,Win32,84.74576271,,,,,,,,,,,,,,,,1074.4277,1075.7218,1075.7218,1076.6276,return,0.1526,,77.47395833,,,,,,FBP-RB-81.png,0.43,1.2,54,0.5,,,,,,,,,,,,,,,,,,0,59,59,53,1,,,,,,,,,,,,,,,,,,,,,,,
,,,,,V3_010,18,female,2024-10-15_15h50.25.944,jersey_experiment_5_v3,2023.2.2,Win32,84.74576271,,,,,,,,,,,,,,,,,,,,,,,,,,,,,,,,,,,,,,,,,,,,,,,,,,,,,,,,1076.6279,1081.5222,return,4.8833,,,,,,,,,,,,,,,,,,,
,,,,,V3_010,18,female,2024-10-15_15h50.25.944,jersey_experiment_5_v3,2023.2.2,Win32,84.74576271,,,,,,,,,,,,,,,,,,,,,,,,,,,,,,,,,,,,,,,,,,,,,,,,,,,,,,,,,,,,,1081.5224,1094.0991,1,11.1125,return,1.4478,,,,,,,,,,,,
,,,,,V3_010,18,female,2024-10-15_15h50.25.944,jersey_experiment_5_v3,2023.2.2,Win32,84.74576271,,,,,,,,,,,,,,,,,,,,,,,,,,,,,,,,,,,,,,,,,,,,,,,,,,,,,,,,,,,,,,,,,,,,1094.0994,1108.9828,No,right,9.7157,,,,,,
,,,,,V3_010,18,female,2024-10-15_15h50.25.944,jersey_experiment_5_v3,2023.2.2,Win32,84.74576271,,,,,,,,,,,,,,,,,,,,,,,,,,,,,,,,,,,,,,,,,,,,,,,,,,,,,,,,,,,,,,,,,,,,,,,,,,1108.9829,1113.3468,return,4.3508,