requirements.started,requirements.stopped,key_resp_3.keys,key_resp_3.rt,key_resp_3.duration,Subject ID,Age,Gender,date,expName,psychopyVersion,OS,frameRate,instructions1.started,instructions1.stopped,key_resp.keys,key_resp.rt,key_resp.duration,example.started,example.stopped,enter_2.keys,enter_2.rt,enter_2.duration,instructions2.started,instructions2.stopped,enter_3.keys,enter_3.rt,enter_3.duration,image.started,image.stopped,slider_2.started,slider_2.stopped,next.keys,next.rt,next.duration,slider.response,trial_block_1.thisRepN,trial_block_1.thisTrialN,trial_block_1.thisN,trial_block_1.thisIndex,trial_block_1.ran,Path,Width,Height,Index,Duration,trial_block_2.thisRepN,trial_block_2.thisTrialN,trial_block_2.thisN,trial_block_2.thisIndex,trial_block_2.ran,rest_break.started,rest_break.stopped,end_break.started,end_break.stopped,key_resp_5.keys,key_resp_5.rt,key_resp_5.duration,trial_block_3.thisRepN,trial_block_3.thisTrialN,trial_block_3.thisN,trial_block_3.thisIndex,trial_block_3.ran,trial_block_4.thisRepN,trial_block_4.thisTrialN,trial_block_4.thisN,trial_block_4.thisIndex,trial_block_4.ran,questions_intro.started,questions_intro.stopped,enter_12.keys,enter_12.rt,enter_12.duration,question2.started,question2.stopped,question_doingbest.response,question_doingbest.rt,enter_15.keys,enter_15.rt,enter_15.duration,pattern.started,pattern.stopped,pattern_2.text,enter_17.keys,enter_17.rt,enter_17.duration,thankyou.started,thankyou.stopped,enter_14.keys,enter_14.rt,enter_14.duration
0,9.6793,return,9.67,,V3_084,18,Female,2024-11-21_16h16.38.778,jersey_experiment_5_v3,2023.2.2,Win32,85.47008547,,,,,,,,,,,,,,,,,,,,,,,,,,,,,,,,,,,,,,,,,,,,,,,,,,,,,,,,,,,,,,,,,,,,,,,,,,,,,,
,,,,,V3_084,18,Female,2024-11-21_16h16.38.778,jersey_experiment_5_v3,2023.2.2,Win32,85.47008547,9.6793,17.8679,return,8.1714,,,,,,,,,,,,,,,,,,,,,,,,,,,,,,,,,,,,,,,,,,,,,,,,,,,,,,,,,,,,,,,,,,,,,,,,,,
,,,,,V3_084,18,Female,2024-11-21_16h16.38.778,jersey_experiment_5_v3,2023.2.2,Win32,85.47008547,,,,,,17.8679,21.5304,return,3.6441,,,,,,,,,,,,,,,,,,,,,,,,,,,,,,,,,,,,,,,,,,,,,,,,,,,,,,,,,,,,,,,,,,,,,
,,,,,V3_084,18,Female,2024-11-21_16h16.38.778,jersey_experiment_5_v3,2023.2.2,Win32,85.47008547,,,,,,,,,,,21.5304,37.3893,return,15.8444,,,,,,,,,,,,,,,,,,,,,,,,,,,,,,,,,,,,,,,,,,,,,,,,,,,,,,,,,,,,,,,,
,,,,,V3_084,18,Female,2024-11-21_16h16.38.778,jersey_experiment_5_v3,2023.2.2,Win32,85.47008547,,,,,,,,,,,,,,,,37.3907,38.6961,38.6961,46.3982,return,1.4057,,36.06770833,0,0,0,30,1,FBP-OG-17.png,0.35,1.2,31,0.5,,,,,,,,,,,,,,,,,,,,,,,,,,,,,,,,,,,,,,,,,,,,,
,,,,,V3_084,18,Female,2024-11-21_16h16.38.778,jersey_experiment_5_v3,2023.2.2,Win32,85.47008547,,,,,,,,,,,,,,,,46.3985,47.9435,47.9435,52.3985,return,1.4985,,61.19791667,0,1,1,1,1,FBP-YG-71.png,0.37,1.2,2,0.75,,,,,,,,,,,,,,,,,,,,,,,,,,,,,,,,,,,,,,,,,,,,,
,,,,,V3_084,18,Female,2024-11-21_16h16.38.778,jersey_experiment_5_v3,2023.2.2,Win32,85.47008547,,,,,,,,,,,,,,,,52.3988,53.9546,53.9546,60.9433,return,3.8121,,85.80729167,0,2,2,13,1,FBP-YG-91.png,0.43,1.2,14,0.75,,,,,,,,,,,,,,,,,,,,,,,,,,,,,,,,,,,,,,,,,,,,,
,,,,,V3_084,18,Female,2024-11-21_16h16.38.778,jersey_experiment_5_v3,2023.2.2,Win32,85.47008547,,,,,,,,,,,,,,,,60.9434,62.4851,62.4851,69.4529,return,0.6977,,90.88541667,0,3,3,27,1,FBP-PT-19.png,0.4,1.2,28,0.75,,,,,,,,,,,,,,,,,,,,,,,,,,,,,,,,,,,,,,,,,,,,,
,,,,,V3_084,18,Female,2024-11-21_16h16.38.778,jersey_experiment_5_v3,2023.2.2,Win32,85.47008547,,,,,,,,,,,,,,,,69.453,71.0042,71.0043,74.1593,return,0.7791,,93.88020833,0,4,4,3,1,FBP-YG-71.png,0.43,1.2,4,0.75,,,,,,,,,,,,,,,,,,,,,,,,,,,,,,,,,,,,,,,,,,,,,
,,,,,V3_084,18,Female,2024-11-21_16h16.38.778,jersey_experiment_5_v3,2023.2.2,Win32,85.47008547,,,,,,,,,,,,,,,,74.1594,75.7116,75.7116,78.6348,return,0.6078,,99.73958333,0,5,5,14,1,FBP-YG-91.png,0.45,1.2,15,0.75,,,,,,,,,,,,,,,,,,,,,,,,,,,,,,,,,,,,,,,,,,,,,
,,,,,V3_084,18,Female,2024-11-21_16h16.38.778,jersey_experiment_5_v3,2023.2.2,Win32,85.47008547,,,,,,,,,,,,,,,,78.635,80.1801,80.1801,84.4627,return,0.7273,,35.9375,0,6,6,16,1,FBP-PT-17.png,0.37,1.2,17,0.75,,,,,,,,,,,,,,,,,,,,,,,,,,,,,,,,,,,,,,,,,,,,,
,,,,,V3_084,18,Female,2024-11-21_16h16.38.778,jersey_experiment_5_v3,2023.2.2,Win32,85.47008547,,,,,,,,,,,,,,,,84.4629,86.0115,86.0115,88.5293,return,0.7072,,99.47916667,0,7,7,58,1,FBP-RB-19.png,0.43,1.2,59,0.75,,,,,,,,,,,,,,,,,,,,,,,,,,,,,,,,,,,,,,,,,,,,,
,,,,,V3_084,18,Female,2024-11-21_16h16.38.778,jersey_experiment_5_v3,2023.2.2,Win32,85.47008547,,,,,,,,,,,,,,,,88.5295,90.074,90.074,91.9218,return,0.7187,,99.47916667,0,8,8,49,1,FBP-RB-17.png,0.45,1.2,50,0.75,,,,,,,,,,,,,,,,,,,,,,,,,,,,,,,,,,,,,,,,,,,,,
,,,,,V3_084,18,Female,2024-11-21_16h16.38.778,jersey_experiment_5_v3,2023.2.2,Win32,85.47008547,,,,,,,,,,,,,,,,91.922,93.4707,93.4707,98.0655,return,0.674,,61.84895833,0,9,9,57,1,FBP-RB-19.png,0.4,1.2,58,0.75,,,,,,,,,,,,,,,,,,,,,,,,,,,,,,,,,,,,,,,,,,,,,
,,,,,V3_084,18,Female,2024-11-21_16h16.38.778,jersey_experiment_5_v3,2023.2.2,Win32,85.47008547,,,,,,,,,,,,,,,,98.0657,99.6121,99.6121,103.1247,return,0.7295,,74.73958333,0,10,10,53,1,FBP-RB-18.png,0.43,1.2,54,0.75,,,,,,,,,,,,,,,,,,,,,,,,,,,,,,,,,,,,,,,,,,,,,
,,,,,V3_084,18,Female,2024-11-21_16h16.38.778,jersey_experiment_5_v3,2023.2.2,Win32,85.47008547,,,,,,,,,,,,,,,,103.1247,104.4188,104.4188,106.9888,return,0.7941,,24.609375,0,11,11,35,1,FBP-OG-18.png,0.35,1.2,36,0.5,,,,,,,,,,,,,,,,,,,,,,,,,,,,,,,,,,,,,,,,,,,,,
,,,,,V3_084,18,Female,2024-11-21_16h16.38.778,jersey_experiment_5_v3,2023.2.2,Win32,85.47008547,,,,,,,,,,,,,,,,106.989,108.5449,108.5449,110.9772,return,0.6139,,60.9375,0,12,12,22,1,FBP-PT-18.png,0.4,1.2,23,0.75,,,,,,,,,,,,,,,,,,,,,,,,,,,,,,,,,,,,,,,,,,,,,
,,,,,V3_084,18,Female,2024-11-21_16h16.38.778,jersey_experiment_5_v3,2023.2.2,Win32,85.47008547,,,,,,,,,,,,,,,,110.9774,112.5342,112.5342,114.8193,return,0.6381,,75,0,13,13,8,1,FBP-YG-81.png,0.43,1.2,9,0.75,,,,,,,,,,,,,,,,,,,,,,,,,,,,,,,,,,,,,,,,,,,,,
,,,,,V3_084,18,Female,2024-11-21_16h16.38.778,jersey_experiment_5_v3,2023.2.2,Win32,85.47008547,,,,,,,,,,,,,,,,114.8193,116.3655,116.3656,119.9698,return,0.6815,,49.47916667,0,14,14,52,1,FBP-RB-18.png,0.4,1.2,53,0.75,,,,,,,,,,,,,,,,,,,,,,,,,,,,,,,,,,,,,,,,,,,,,
,,,,,V3_084,18,Female,2024-11-21_16h16.38.778,jersey_experiment_5_v3,2023.2.2,Win32,85.47008547,,,,,,,,,,,,,,,,119.97,121.5187,121.5188,123.3603,return,0.7294,,49.47916667,0,15,15,7,1,FBP-YG-81.png,0.4,1.2,8,0.75,,,,,,,,,,,,,,,,,,,,,,,,,,,,,,,,,,,,,,,,,,,,,
,,,,,V3_084,18,Female,2024-11-21_16h16.38.778,jersey_experiment_5_v3,2023.2.2,Win32,85.47008547,,,,,,,,,,,,,,,,123.3605,124.9072,124.9072,127.3073,return,0.8547,,24.86979167,0,16,16,55,1,FBP-RB-19.png,0.35,1.2,56,0.75,,,,,,,,,,,,,,,,,,,,,,,,,,,,,,,,,,,,,,,,,,,,,
,,,,,V3_084,18,Female,2024-11-21_16h16.38.778,jersey_experiment_5_v3,2023.2.2,Win32,85.47008547,,,,,,,,,,,,,,,,127.3075,128.8656,128.8656,131.0775,return,0.673,,99.86979167,0,17,17,28,1,FBP-PT-19.png,0.43,1.2,29,0.75,,,,,,,,,,,,,,,,,,,,,,,,,,,,,,,,,,,,,,,,,,,,,
,,,,,V3_084,18,Female,2024-11-21_16h16.38.778,jersey_experiment_5_v3,2023.2.2,Win32,85.47008547,,,,,,,,,,,,,,,,131.0777,132.6317,132.6317,136.0283,return,0.7144,,24.609375,0,18,18,50,1,FBP-RB-18.png,0.35,1.2,51,0.75,,,,,,,,,,,,,,,,,,,,,,,,,,,,,,,,,,,,,,,,,,,,,
,,,,,V3_084,18,Female,2024-11-21_16h16.38.778,jersey_experiment_5_v3,2023.2.2,Win32,85.47008547,,,,,,,,,,,,,,,,136.0285,137.573,137.573,139.3113,return,0.5855,,74.73958333,0,19,19,18,1,FBP-PT-17.png,0.43,1.2,19,0.75,,,,,,,,,,,,,,,,,,,,,,,,,,,,,,,,,,,,,,,,,,,,,
,,,,,V3_084,18,Female,2024-11-21_16h16.38.778,jersey_experiment_5_v3,2023.2.2,Win32,85.47008547,,,,,,,,,,,,,,,,139.3114,140.8608,140.8608,142.1143,return,0.5799,,74.73958333,0,20,20,2,1,FBP-YG-71.png,0.4,1.2,3,0.75,,,,,,,,,,,,,,,,,,,,,,,,,,,,,,,,,,,,,,,,,,,,,
,,,,,V3_084,18,Female,2024-11-21_16h16.38.778,jersey_experiment_5_v3,2023.2.2,Win32,85.47008547,,,,,,,,,,,,,,,,142.1144,143.4169,143.417,145.7785,return,0.5659,,24.73958333,0,21,21,40,1,FBP-OG-19.png,0.35,1.2,41,0.5,,,,,,,,,,,,,,,,,,,,,,,,,,,,,,,,,,,,,,,,,,,,,
,,,,,V3_084,18,Female,2024-11-21_16h16.38.778,jersey_experiment_5_v3,2023.2.2,Win32,85.47008547,,,,,,,,,,,,,,,,145.7788,147.0766,147.0767,148.9705,return,0.5652,,99.86979167,0,22,22,34,1,FBP-OG-17.png,0.45,1.2,35,0.5,,,,,,,,,,,,,,,,,,,,,,,,,,,,,,,,,,,,,,,,,,,,,
,,,,,V3_084,18,Female,2024-11-21_16h16.38.778,jersey_experiment_5_v3,2023.2.2,Win32,85.47008547,,,,,,,,,,,,,,,,148.9707,150.5148,150.5148,152.1001,return,0.5973,,74.73958333,0,23,23,47,1,FBP-RB-17.png,0.4,1.2,48,0.75,,,,,,,,,,,,,,,,,,,,,,,,,,,,,,,,,,,,,,,,,,,,,
,,,,,V3_084,18,Female,2024-11-21_16h16.38.778,jersey_experiment_5_v3,2023.2.2,Win32,85.47008547,,,,,,,,,,,,,,,,152.1002,153.6441,153.6442,155.3084,return,0.6058,,24.73958333,0,24,24,6,1,FBP-YG-81.png,0.37,1.2,7,0.75,,,,,,,,,,,,,,,,,,,,,,,,,,,,,,,,,,,,,,,,,,,,,
,,,,,V3_084,18,Female,2024-11-21_16h16.38.778,jersey_experiment_5_v3,2023.2.2,Win32,85.47008547,,,,,,,,,,,,,,,,155.3086,156.6025,156.6026,160.5126,return,0.565,,62.109375,0,25,25,32,1,FBP-OG-17.png,0.4,1.2,33,0.5,,,,,,,,,,,,,,,,,,,,,,,,,,,,,,,,,,,,,,,,,,,,,
,,,,,V3_084,18,Female,2024-11-21_16h16.38.778,jersey_experiment_5_v3,2023.2.2,Win32,85.47008547,,,,,,,,,,,,,,,,160.5128,162.0659,162.0659,163.7557,return,0.5123,,74.86979167,0,26,26,12,1,FBP-YG-91.png,0.4,1.2,13,0.75,,,,,,,,,,,,,,,,,,,,,,,,,,,,,,,,,,,,,,,,,,,,,
,,,,,V3_084,18,Female,2024-11-21_16h16.38.778,jersey_experiment_5_v3,2023.2.2,Win32,85.47008547,,,,,,,,,,,,,,,,163.756,165.0498,165.0499,167.9483,return,0.5392,,62.36979167,0,27,27,37,1,FBP-OG-18.png,0.4,1.2,38,0.5,,,,,,,,,,,,,,,,,,,,,,,,,,,,,,,,,,,,,,,,,,,,,
,,,,,V3_084,18,Female,2024-11-21_16h16.38.778,jersey_experiment_5_v3,2023.2.2,Win32,85.47008547,,,,,,,,,,,,,,,,167.9485,169.5036,169.5036,171.0095,return,0.5561,,74.73958333,0,28,28,48,1,FBP-RB-17.png,0.43,1.2,49,0.75,,,,,,,,,,,,,,,,,,,,,,,,,,,,,,,,,,,,,,,,,,,,,
,,,,,V3_084,18,Female,2024-11-21_16h16.38.778,jersey_experiment_5_v3,2023.2.2,Win32,85.47008547,,,,,,,,,,,,,,,,171.0098,172.56,172.56,174.1602,return,0.6591,,99.73958333,0,29,29,29,1,FBP-PT-19.png,0.45,1.2,30,0.75,,,,,,,,,,,,,,,,,,,,,,,,,,,,,,,,,,,,,,,,,,,,,
,,,,,V3_084,18,Female,2024-11-21_16h16.38.778,jersey_experiment_5_v3,2023.2.2,Win32,85.47008547,,,,,,,,,,,,,,,,174.1603,175.4654,175.4654,177.0503,return,0.6312,,99.34895833,0,30,30,44,1,FBP-OG-19.png,0.45,1.2,45,0.5,,,,,,,,,,,,,,,,,,,,,,,,,,,,,,,,,,,,,,,,,,,,,
,,,,,V3_084,18,Female,2024-11-21_16h16.38.778,jersey_experiment_5_v3,2023.2.2,Win32,85.47008547,,,,,,,,,,,,,,,,177.0505,178.5947,178.5947,179.654,return,0.5652,,99.47916667,0,31,31,19,1,FBP-PT-17.png,0.45,1.2,20,0.75,,,,,,,,,,,,,,,,,,,,,,,,,,,,,,,,,,,,,,,,,,,,,
,,,,,V3_084,18,Female,2024-11-21_16h16.38.778,jersey_experiment_5_v3,2023.2.2,Win32,85.47008547,,,,,,,,,,,,,,,,179.6541,180.9628,180.9628,182.0453,return,0.5801,,99.34895833,0,32,32,33,1,FBP-OG-17.png,0.43,1.2,34,0.5,,,,,,,,,,,,,,,,,,,,,,,,,,,,,,,,,,,,,,,,,,,,,
,,,,,V3_084,18,Female,2024-11-21_16h16.38.778,jersey_experiment_5_v3,2023.2.2,Win32,85.47008547,,,,,,,,,,,,,,,,182.0454,183.5958,183.5958,187.5514,return,0.6976,,50.13020833,0,33,33,11,1,FBP-YG-91.png,0.37,1.2,12,0.75,,,,,,,,,,,,,,,,,,,,,,,,,,,,,,,,,,,,,,,,,,,,,
,,,,,V3_084,18,Female,2024-11-21_16h16.38.778,jersey_experiment_5_v3,2023.2.2,Win32,85.47008547,,,,,,,,,,,,,,,,187.5515,189.0977,189.0978,193.5021,return,0.7658,,36.06770833,0,34,34,51,1,FBP-RB-18.png,0.37,1.2,52,0.75,,,,,,,,,,,,,,,,,,,,,,,,,,,,,,,,,,,,,,,,,,,,,
,,,,,V3_084,18,Female,2024-11-21_16h16.38.778,jersey_experiment_5_v3,2023.2.2,Win32,85.47008547,,,,,,,,,,,,,,,,193.5022,195.0549,195.055,196.6577,return,0.6121,,25,0,35,35,25,1,FBP-PT-19.png,0.35,1.2,26,0.75,,,,,,,,,,,,,,,,,,,,,,,,,,,,,,,,,,,,,,,,,,,,,
,,,,,V3_084,18,Female,2024-11-21_16h16.38.778,jersey_experiment_5_v3,2023.2.2,Win32,85.47008547,,,,,,,,,,,,,,,,196.6578,197.9605,197.9605,199.4865,return,0.6286,,24.47916667,0,36,36,36,1,FBP-OG-18.png,0.37,1.2,37,0.5,,,,,,,,,,,,,,,,,,,,,,,,,,,,,,,,,,,,,,,,,,,,,
,,,,,V3_084,18,Female,2024-11-21_16h16.38.778,jersey_experiment_5_v3,2023.2.2,Win32,85.47008547,,,,,,,,,,,,,,,,199.4866,201.0341,201.0342,203.09,return,0.5645,,74.73958333,0,37,37,23,1,FBP-PT-18.png,0.43,1.2,24,0.75,,,,,,,,,,,,,,,,,,,,,,,,,,,,,,,,,,,,,,,,,,,,,
,,,,,V3_084,18,Female,2024-11-21_16h16.38.778,jersey_experiment_5_v3,2023.2.2,Win32,85.47008547,,,,,,,,,,,,,,,,203.0901,204.6344,204.6344,206.6432,return,0.5969,,61.71875,0,38,38,46,1,FBP-RB-17.png,0.37,1.2,47,0.75,,,,,,,,,,,,,,,,,,,,,,,,,,,,,,,,,,,,,,,,,,,,,
,,,,,V3_084,18,Female,2024-11-21_16h16.38.778,jersey_experiment_5_v3,2023.2.2,Win32,85.47008547,,,,,,,,,,,,,,,,206.6434,208.1849,208.1849,210.0777,return,0.5875,,99.609375,0,39,39,54,1,FBP-RB-18.png,0.45,1.2,55,0.75,,,,,,,,,,,,,,,,,,,,,,,,,,,,,,,,,,,,,,,,,,,,,
,,,,,V3_084,18,Female,2024-11-21_16h16.38.778,jersey_experiment_5_v3,2023.2.2,Win32,85.47008547,,,,,,,,,,,,,,,,210.0779,211.6316,211.6316,213.7877,return,1.7415,,99.34895833,0,40,40,4,1,FBP-YG-71.png,0.45,1.2,5,0.75,,,,,,,,,,,,,,,,,,,,,,,,,,,,,,,,,,,,,,,,,,,,,
,,,,,V3_084,18,Female,2024-11-21_16h16.38.778,jersey_experiment_5_v3,2023.2.2,Win32,85.47008547,,,,,,,,,,,,,,,,213.7879,215.0811,215.0811,217.3496,return,0.5653,,74.609375,0,41,41,43,1,FBP-OG-19.png,0.43,1.2,44,0.5,,,,,,,,,,,,,,,,,,,,,,,,,,,,,,,,,,,,,,,,,,,,,
,,,,,V3_084,18,Female,2024-11-21_16h16.38.778,jersey_experiment_5_v3,2023.2.2,Win32,85.47008547,,,,,,,,,,,,,,,,217.3498,218.8989,218.899,222.5579,return,0.5693,,61.97916667,0,42,42,15,1,FBP-PT-17.png,0.35,1.2,16,0.75,,,,,,,,,,,,,,,,,,,,,,,,,,,,,,,,,,,,,,,,,,,,,
,,,,,V3_084,18,Female,2024-11-21_16h16.38.778,jersey_experiment_5_v3,2023.2.2,Win32,85.47008547,,,,,,,,,,,,,,,,222.5581,223.8522,223.8522,224.958,return,0.5455,,61.97916667,0,43,43,42,1,FBP-OG-19.png,0.4,1.2,43,0.5,,,,,,,,,,,,,,,,,,,,,,,,,,,,,,,,,,,,,,,,,,,,,
,,,,,V3_084,18,Female,2024-11-21_16h16.38.778,jersey_experiment_5_v3,2023.2.2,Win32,85.47008547,,,,,,,,,,,,,,,,224.9583,226.5029,226.503,229.5384,return,0.6681,,36.06770833,0,44,44,5,1,FBP-YG-81.png,0.35,1.2,6,0.75,,,,,,,,,,,,,,,,,,,,,,,,,,,,,,,,,,,,,,,,,,,,,
,,,,,V3_084,18,Female,2024-11-21_16h16.38.778,jersey_experiment_5_v3,2023.2.2,Win32,85.47008547,,,,,,,,,,,,,,,,229.5386,230.8471,230.8471,234.1873,return,0.6261,,25,0,45,45,41,1,FBP-OG-19.png,0.37,1.2,42,0.5,,,,,,,,,,,,,,,,,,,,,,,,,,,,,,,,,,,,,,,,,,,,,
,,,,,V3_084,18,Female,2024-11-21_16h16.38.778,jersey_experiment_5_v3,2023.2.2,Win32,85.47008547,,,,,,,,,,,,,,,,234.1875,235.7349,235.7349,237.9387,return,1.115,,37.23958333,0,46,46,56,1,FBP-RB-19.png,0.37,1.2,57,0.75,,,,,,,,,,,,,,,,,,,,,,,,,,,,,,,,,,,,,,,,,,,,,
,,,,,V3_084,18,Female,2024-11-21_16h16.38.778,jersey_experiment_5_v3,2023.2.2,Win32,85.47008547,,,,,,,,,,,,,,,,237.9388,239.4912,239.4912,243.1035,return,2.7183,,62.5,0,47,47,17,1,FBP-PT-17.png,0.4,1.2,18,0.75,,,,,,,,,,,,,,,,,,,,,,,,,,,,,,,,,,,,,,,,,,,,,
,,,,,V3_084,18,Female,2024-11-21_16h16.38.778,jersey_experiment_5_v3,2023.2.2,Win32,85.47008547,,,,,,,,,,,,,,,,243.1037,244.3981,244.3981,247.1859,return,0.6591,,85.15625,0,48,48,38,1,FBP-OG-18.png,0.43,1.2,39,0.5,,,,,,,,,,,,,,,,,,,,,,,,,,,,,,,,,,,,,,,,,,,,,
,,,,,V3_084,18,Female,2024-11-21_16h16.38.778,jersey_experiment_5_v3,2023.2.2,Win32,85.47008547,,,,,,,,,,,,,,,,247.186,248.4798,248.4798,251.186,return,1.5297,,61.328125,0,49,49,31,1,FBP-OG-17.png,0.37,1.2,32,0.5,,,,,,,,,,,,,,,,,,,,,,,,,,,,,,,,,,,,,,,,,,,,,
,,,,,V3_084,18,Female,2024-11-21_16h16.38.778,jersey_experiment_5_v3,2023.2.2,Win32,85.47008547,,,,,,,,,,,,,,,,251.1861,252.7392,252.7392,255.2483,return,0.5801,,49.86979167,0,50,50,10,1,FBP-YG-91.png,0.35,1.2,11,0.75,,,,,,,,,,,,,,,,,,,,,,,,,,,,,,,,,,,,,,,,,,,,,
,,,,,V3_084,18,Female,2024-11-21_16h16.38.778,jersey_experiment_5_v3,2023.2.2,Win32,85.47008547,,,,,,,,,,,,,,,,255.2484,256.7985,256.7986,258.5746,return,0.6122,,99.86979167,0,51,51,9,1,FBP-YG-81.png,0.45,1.2,10,0.75,,,,,,,,,,,,,,,,,,,,,,,,,,,,,,,,,,,,,,,,,,,,,
,,,,,V3_084,18,Female,2024-11-21_16h16.38.778,jersey_experiment_5_v3,2023.2.2,Win32,85.47008547,,,,,,,,,,,,,,,,258.5747,260.1187,260.1188,263.7714,return,0.6544,,37.63020833,0,52,52,20,1,FBP-PT-18.png,0.35,1.2,21,0.75,,,,,,,,,,,,,,,,,,,,,,,,,,,,,,,,,,,,,,,,,,,,,
,,,,,V3_084,18,Female,2024-11-21_16h16.38.778,jersey_experiment_5_v3,2023.2.2,Win32,85.47008547,,,,,,,,,,,,,,,,263.7716,265.3189,265.319,266.8016,return,0.5421,,99.86979167,0,53,53,24,1,FBP-PT-18.png,0.45,1.2,25,0.75,,,,,,,,,,,,,,,,,,,,,,,,,,,,,,,,,,,,,,,,,,,,,
,,,,,V3_084,18,Female,2024-11-21_16h16.38.778,jersey_experiment_5_v3,2023.2.2,Win32,85.47008547,,,,,,,,,,,,,,,,266.8018,268.348,268.348,270.5638,return,0.5537,,61.06770833,0,54,54,0,1,FBP-YG-71.png,0.35,1.2,1,0.75,,,,,,,,,,,,,,,,,,,,,,,,,,,,,,,,,,,,,,,,,,,,,
,,,,,V3_084,18,Female,2024-11-21_16h16.38.778,jersey_experiment_5_v3,2023.2.2,Win32,85.47008547,,,,,,,,,,,,,,,,270.564,272.1128,272.1129,273.2025,return,0.5186,,61.06770833,0,55,55,21,1,FBP-PT-18.png,0.37,1.2,22,0.75,,,,,,,,,,,,,,,,,,,,,,,,,,,,,,,,,,,,,,,,,,,,,
,,,,,V3_084,18,Female,2024-11-21_16h16.38.778,jersey_experiment_5_v3,2023.2.2,Win32,85.47008547,,,,,,,,,,,,,,,,273.2026,274.7482,274.7483,277.7638,return,0.7183,,25.13020833,0,56,56,45,1,FBP-RB-17.png,0.35,1.2,46,0.75,,,,,,,,,,,,,,,,,,,,,,,,,,,,,,,,,,,,,,,,,,,,,
,,,,,V3_084,18,Female,2024-11-21_16h16.38.778,jersey_experiment_5_v3,2023.2.2,Win32,85.47008547,,,,,,,,,,,,,,,,277.7639,279.0695,279.0695,281.8363,return,0.5875,,99.47916667,0,57,57,39,1,FBP-OG-18.png,0.45,1.2,40,0.5,,,,,,,,,,,,,,,,,,,,,,,,,,,,,,,,,,,,,,,,,,,,,
,,,,,V3_084,18,Female,2024-11-21_16h16.38.778,jersey_experiment_5_v3,2023.2.2,Win32,85.47008547,,,,,,,,,,,,,,,,281.8364,283.3878,283.3878,285.367,return,0.5797,,74.73958333,0,58,58,26,1,FBP-PT-19.png,0.37,1.2,27,0.75,,,,,,,,,,,,,,,,,,,,,,,,,,,,,,,,,,,,,,,,,,,,,
,,,,,V3_084,18,Female,2024-11-21_16h16.38.778,jersey_experiment_5_v3,2023.2.2,Win32,85.47008547,,,,,,,,,,,,,,,,285.3671,286.9199,286.9199,288.3872,return,0.5759,,99.73958333,0,59,59,59,1,FBP-RB-19.png,0.45,1.2,60,0.75,,,,,,,,,,,,,,,,,,,,,,,,,,,,,,,,,,,,,,,,,,,,,
,,,,,V3_084,18,Female,2024-11-21_16h16.38.778,jersey_experiment_5_v3,2023.2.2,Win32,85.47008547,,,,,,,,,,,,,,,,288.3884,289.9407,289.9407,291.4076,return,0.6387,,75,,,,,,FBP-RB-91.png,0.35,1.2,56,0.75,0,0,0,55,1,,,,,,,,,,,,,,,,,,,,,,,,,,,,,,,,,,,,,,,,
,,,,,V3_084,18,Female,2024-11-21_16h16.38.778,jersey_experiment_5_v3,2023.2.2,Win32,85.47008547,,,,,,,,,,,,,,,,291.4079,292.966,292.9661,294.6078,return,0.5788,,99.34895833,,,,,,FBP-YG-17.png,0.45,1.2,5,0.75,0,1,1,4,1,,,,,,,,,,,,,,,,,,,,,,,,,,,,,,,,,,,,,,,,
,,,,,V3_084,18,Female,2024-11-21_16h16.38.778,jersey_experiment_5_v3,2023.2.2,Win32,85.47008547,,,,,,,,,,,,,,,,294.6079,296.1524,296.1524,297.5256,return,0.5648,,74.08854167,,,,,,FBP-PT-91.png,0.4,1.2,28,0.75,0,2,2,27,1,,,,,,,,,,,,,,,,,,,,,,,,,,,,,,,,,,,,,,,,
,,,,,V3_084,18,Female,2024-11-21_16h16.38.778,jersey_experiment_5_v3,2023.2.2,Win32,85.47008547,,,,,,,,,,,,,,,,297.5258,299.0851,299.0851,301.0943,return,0.5999,,61.328125,,,,,,FBP-YG-19.png,0.35,1.2,11,0.75,0,3,3,10,1,,,,,,,,,,,,,,,,,,,,,,,,,,,,,,,,,,,,,,,,
,,,,,V3_084,18,Female,2024-11-21_16h16.38.778,jersey_experiment_5_v3,2023.2.2,Win32,85.47008547,,,,,,,,,,,,,,,,301.0944,302.4027,302.4027,304.667,return,0.5374,,99.34895833,,,,,,FBP-OG-81.png,0.43,1.2,39,0.5,0,4,4,38,1,,,,,,,,,,,,,,,,,,,,,,,,,,,,,,,,,,,,,,,,
,,,,,V3_084,18,Female,2024-11-21_16h16.38.778,jersey_experiment_5_v3,2023.2.2,Win32,85.47008547,,,,,,,,,,,,,,,,304.6673,306.2237,306.2237,307.3293,return,0.565,,99.08854167,,,,,,FBP-RB-81.png,0.45,1.2,55,0.75,0,5,5,54,1,,,,,,,,,,,,,,,,,,,,,,,,,,,,,,,,,,,,,,,,
,,,,,V3_084,18,Female,2024-11-21_16h16.38.778,jersey_experiment_5_v3,2023.2.2,Win32,85.47008547,,,,,,,,,,,,,,,,307.3295,308.8711,308.8711,310.6856,return,0.6122,,99.34895833,,,,,,FBP-YG-19.png,0.45,1.2,15,0.75,0,6,6,14,1,,,,,,,,,,,,,,,,,,,,,,,,,,,,,,,,,,,,,,,,
,,,,,V3_084,18,Female,2024-11-21_16h16.38.778,jersey_experiment_5_v3,2023.2.2,Win32,85.47008547,,,,,,,,,,,,,,,,310.6857,312.2361,312.2362,313.8943,return,0.5996,,74.609375,,,,,,FBP-YG-18.png,0.37,1.2,7,0.75,0,7,7,6,1,,,,,,,,,,,,,,,,,,,,,,,,,,,,,,,,,,,,,,,,
,,,,,V3_084,18,Female,2024-11-21_16h16.38.778,jersey_experiment_5_v3,2023.2.2,Win32,85.47008547,,,,,,,,,,,,,,,,313.8944,315.4384,315.4384,320.6239,return,4.1179,,62.36979167,,,,,,FBP-PT-91.png,0.35,1.2,26,0.75,0,8,8,25,1,,,,,,,,,,,,,,,,,,,,,,,,,,,,,,,,,,,,,,,,
,,,,,V3_084,18,Female,2024-11-21_16h16.38.778,jersey_experiment_5_v3,2023.2.2,Win32,85.47008547,,,,,,,,,,,,,,,,320.624,321.9304,321.9305,323.8386,return,0.5411,,99.86979167,,,,,,FBP-OG-71.png,0.43,1.2,34,0.5,0,9,9,33,1,,,,,,,,,,,,,,,,,,,,,,,,,,,,,,,,,,,,,,,,
,,,,,V3_084,18,Female,2024-11-21_16h16.38.778,jersey_experiment_5_v3,2023.2.2,Win32,85.47008547,,,,,,,,,,,,,,,,323.8387,325.1332,325.1333,327.4133,return,0.6568,,61.58854167,,,,,,FBP-OG-81.png,0.37,1.2,37,0.5,0,10,10,36,1,,,,,,,,,,,,,,,,,,,,,,,,,,,,,,,,,,,,,,,,
,,,,,V3_084,18,Female,2024-11-21_16h16.38.778,jersey_experiment_5_v3,2023.2.2,Win32,85.47008547,,,,,,,,,,,,,,,,327.4134,328.9659,328.9659,330.5913,return,0.7287,,74.21875,,,,,,FBP-YG-19.png,0.4,1.2,13,0.75,0,11,11,12,1,,,,,,,,,,,,,,,,,,,,,,,,,,,,,,,,,,,,,,,,
,,,,,V3_084,18,Female,2024-11-21_16h16.38.778,jersey_experiment_5_v3,2023.2.2,Win32,85.47008547,,,,,,,,,,,,,,,,330.5915,332.1426,332.1426,333.8092,return,0.5427,,99.47916667,,,,,,FBP-PT-71.png,0.45,1.2,20,0.75,0,12,12,19,1,,,,,,,,,,,,,,,,,,,,,,,,,,,,,,,,,,,,,,,,
,,,,,V3_084,18,Female,2024-11-21_16h16.38.778,jersey_experiment_5_v3,2023.2.2,Win32,85.47008547,,,,,,,,,,,,,,,,333.8095,335.1076,335.1076,338.5272,return,0.8268,,36.84895833,,,,,,FBP-OG-81.png,0.35,1.2,36,0.5,0,13,13,35,1,,,,,,,,,,,,,,,,,,,,,,,,,,,,,,,,,,,,,,,,
,,,,,V3_084,18,Female,2024-11-21_16h16.38.778,jersey_experiment_5_v3,2023.2.2,Win32,85.47008547,,,,,,,,,,,,,,,,338.5275,340.0748,340.0748,341.8138,return,0.5541,,99.73958333,,,,,,FBP-RB-71.png,0.43,1.2,49,0.75,0,14,14,48,1,,,,,,,,,,,,,,,,,,,,,,,,,,,,,,,,,,,,,,,,
,,,,,V3_084,18,Female,2024-11-21_16h16.38.778,jersey_experiment_5_v3,2023.2.2,Win32,85.47008547,,,,,,,,,,,,,,,,341.8139,343.3626,343.3626,344.3899,return,0.5887,,99.34895833,,,,,,FBP-PT-81.png,0.45,1.2,25,0.75,0,15,15,24,1,,,,,,,,,,,,,,,,,,,,,,,,,,,,,,,,,,,,,,,,
,,,,,V3_084,18,Female,2024-11-21_16h16.38.778,jersey_experiment_5_v3,2023.2.2,Win32,85.47008547,,,,,,,,,,,,,,,,344.39,345.9428,345.9429,347.6602,return,0.5525,,74.47916667,,,,,,FBP-RB-91.png,0.4,1.2,58,0.75,0,16,16,57,1,,,,,,,,,,,,,,,,,,,,,,,,,,,,,,,,,,,,,,,,
,,,,,V3_084,18,Female,2024-11-21_16h16.38.778,jersey_experiment_5_v3,2023.2.2,Win32,85.47008547,,,,,,,,,,,,,,,,347.6603,349.2045,349.2046,352.3901,return,0.612,,98.95833333,,,,,,FBP-YG-17.png,0.43,1.2,4,0.75,0,17,17,3,1,,,,,,,,,,,,,,,,,,,,,,,,,,,,,,,,,,,,,,,,
,,,,,V3_084,18,Female,2024-11-21_16h16.38.778,jersey_experiment_5_v3,2023.2.2,Win32,85.47008547,,,,,,,,,,,,,,,,352.3902,353.6977,353.6977,355.2219,return,0.6121,,74.86979167,,,,,,FBP-OG-91.png,0.4,1.2,43,0.5,0,18,18,42,1,,,,,,,,,,,,,,,,,,,,,,,,,,,,,,,,,,,,,,,,
,,,,,V3_084,18,Female,2024-11-21_16h16.38.778,jersey_experiment_5_v3,2023.2.2,Win32,85.47008547,,,,,,,,,,,,,,,,355.2221,356.7666,356.7666,357.8728,return,0.5654,,74.86979167,,,,,,FBP-PT-71.png,0.4,1.2,18,0.75,0,19,19,17,1,,,,,,,,,,,,,,,,,,,,,,,,,,,,,,,,,,,,,,,,
,,,,,V3_084,18,Female,2024-11-21_16h16.38.778,jersey_experiment_5_v3,2023.2.2,Win32,85.47008547,,,,,,,,,,,,,,,,357.873,359.4252,359.4253,363.4406,return,1.3796,,36.71875,,,,,,FBP-PT-91.png,0.37,1.2,27,0.75,0,20,20,26,1,,,,,,,,,,,,,,,,,,,,,,,,,,,,,,,,,,,,,,,,
,,,,,V3_084,18,Female,2024-11-21_16h16.38.778,jersey_experiment_5_v3,2023.2.2,Win32,85.47008547,,,,,,,,,,,,,,,,363.4409,364.987,364.987,366.5926,return,0.6023,,24.73958333,,,,,,FBP-RB-81.png,0.35,1.2,51,0.75,0,21,21,50,1,,,,,,,,,,,,,,,,,,,,,,,,,,,,,,,,,,,,,,,,
,,,,,V3_084,18,Female,2024-11-21_16h16.38.778,jersey_experiment_5_v3,2023.2.2,Win32,85.47008547,,,,,,,,,,,,,,,,366.5928,367.8965,367.8966,369.8022,return,0.5175,,74.21875,,,,,,FBP-OG-71.png,0.45,1.2,35,0.5,0,22,22,34,1,,,,,,,,,,,,,,,,,,,,,,,,,,,,,,,,,,,,,,,,
,,,,,V3_084,18,Female,2024-11-21_16h16.38.778,jersey_experiment_5_v3,2023.2.2,Win32,85.47008547,,,,,,,,,,,,,,,,369.8023,371.0967,371.0967,372.4761,return,0.5414,,99.34895833,,,,,,FBP-OG-91.png,0.43,1.2,44,0.5,0,23,23,43,1,,,,,,,,,,,,,,,,,,,,,,,,,,,,,,,,,,,,,,,,
,,,,,V3_084,18,Female,2024-11-21_16h16.38.778,jersey_experiment_5_v3,2023.2.2,Win32,85.47008547,,,,,,,,,,,,,,,,372.4762,374.0266,374.0266,376.8506,return,0.5392,,50,,,,,,FBP-RB-71.png,0.35,1.2,46,0.75,0,24,24,45,1,,,,,,,,,,,,,,,,,,,,,,,,,,,,,,,,,,,,,,,,
,,,,,V3_084,18,Female,2024-11-21_16h16.38.778,jersey_experiment_5_v3,2023.2.2,Win32,85.47008547,,,,,,,,,,,,,,,,376.8506,378.4043,378.4043,382.0755,return,2.2964,,61.84895833,,,,,,FBP-YG-18.png,0.4,1.2,8,0.75,0,25,25,7,1,,,,,,,,,,,,,,,,,,,,,,,,,,,,,,,,,,,,,,,,
,,,,,V3_084,18,Female,2024-11-21_16h16.38.778,jersey_experiment_5_v3,2023.2.2,Win32,85.47008547,,,,,,,,,,,,,,,,382.0756,383.3706,383.3706,385.3002,return,0.7681,,25.13020833,,,,,,FBP-OG-71.png,0.37,1.2,32,0.5,0,26,26,31,1,,,,,,,,,,,,,,,,,,,,,,,,,,,,,,,,,,,,,,,,
,,,,,V3_084,18,Female,2024-11-21_16h16.38.778,jersey_experiment_5_v3,2023.2.2,Win32,85.47008547,,,,,,,,,,,,,,,,385.3003,386.5917,386.5917,389.1997,return,0.615,,61.71875,,,,,,FBP-OG-71.png,0.4,1.2,33,0.5,0,27,27,32,1,,,,,,,,,,,,,,,,,,,,,,,,,,,,,,,,,,,,,,,,
,,,,,V3_084,18,Female,2024-11-21_16h16.38.778,jersey_experiment_5_v3,2023.2.2,Win32,85.47008547,,,,,,,,,,,,,,,,389.1999,390.7445,390.7445,392.242,return,0.6272,,74.21875,,,,,,FBP-RB-81.png,0.4,1.2,53,0.75,0,28,28,52,1,,,,,,,,,,,,,,,,,,,,,,,,,,,,,,,,,,,,,,,,
,,,,,V3_084,18,Female,2024-11-21_16h16.38.778,jersey_experiment_5_v3,2023.2.2,Win32,85.47008547,,,,,,,,,,,,,,,,392.2421,393.7881,393.7881,395.557,return,0.6563,,61.328125,,,,,,FBP-PT-81.png,0.4,1.2,23,0.75,0,29,29,22,1,,,,,,,,,,,,,,,,,,,,,,,,,,,,,,,,,,,,,,,,
,,,,,V3_084,18,Female,2024-11-21_16h16.38.778,jersey_experiment_5_v3,2023.2.2,Win32,85.47008547,,,,,,,,,,,,,,,,395.5571,397.1099,397.1099,398.1712,return,0.5799,,61.328125,,,,,,FBP-YG-17.png,0.37,1.2,2,0.75,0,30,30,1,1,,,,,,,,,,,,,,,,,,,,,,,,,,,,,,,,,,,,,,,,
,,,,,V3_084,18,Female,2024-11-21_16h16.38.778,jersey_experiment_5_v3,2023.2.2,Win32,85.47008547,,,,,,,,,,,,,,,,398.1713,399.7177,399.7178,401.2067,return,0.6035,,24.73958333,,,,,,FBP-YG-18.png,0.35,1.2,6,0.75,0,31,31,5,1,,,,,,,,,,,,,,,,,,,,,,,,,,,,,,,,,,,,,,,,
,,,,,V3_084,18,Female,2024-11-21_16h16.38.778,jersey_experiment_5_v3,2023.2.2,Win32,85.47008547,,,,,,,,,,,,,,,,401.2068,402.7565,402.7565,406.3128,return,0.6036,,99.609375,,,,,,FBP-RB-91.png,0.43,1.2,59,0.75,0,32,32,58,1,,,,,,,,,,,,,,,,,,,,,,,,,,,,,,,,,,,,,,,,
,,,,,V3_084,18,Female,2024-11-21_16h16.38.778,jersey_experiment_5_v3,2023.2.2,Win32,85.47008547,,,,,,,,,,,,,,,,406.313,407.8592,407.8593,411.8423,return,3.4827,,86.97916667,,,,,,FBP-RB-71.png,0.45,1.2,50,0.75,0,33,33,49,1,,,,,,,,,,,,,,,,,,,,,,,,,,,,,,,,,,,,,,,,
,,,,,V3_084,18,Female,2024-11-21_16h16.38.778,jersey_experiment_5_v3,2023.2.2,Win32,85.47008547,,,,,,,,,,,,,,,,411.8424,413.3928,413.3928,414.8594,return,0.6312,,74.47916667,,,,,,FBP-YG-17.png,0.4,1.2,3,0.75,0,34,34,2,1,,,,,,,,,,,,,,,,,,,,,,,,,,,,,,,,,,,,,,,,
,,,,,V3_084,18,Female,2024-11-21_16h16.38.778,jersey_experiment_5_v3,2023.2.2,Win32,85.47008547,,,,,,,,,,,,,,,,414.8596,416.4071,416.4071,418.3654,return,0.5585,,24.86979167,,,,,,FBP-RB-71.png,0.37,1.2,47,0.75,0,35,35,46,1,,,,,,,,,,,,,,,,,,,,,,,,,,,,,,,,,,,,,,,,
,,,,,V3_084,18,Female,2024-11-21_16h16.38.778,jersey_experiment_5_v3,2023.2.2,Win32,85.47008547,,,,,,,,,,,,,,,,418.3656,419.9132,419.9132,421.4982,return,0.5884,,62.36979167,,,,,,FBP-RB-71.png,0.4,1.2,48,0.75,0,36,36,47,1,,,,,,,,,,,,,,,,,,,,,,,,,,,,,,,,,,,,,,,,
,,,,,V3_084,18,Female,2024-11-21_16h16.38.778,jersey_experiment_5_v3,2023.2.2,Win32,85.47008547,,,,,,,,,,,,,,,,421.4983,423.0427,423.0427,424.4481,return,0.5678,,99.73958333,,,,,,FBP-PT-91.png,0.45,1.2,30,0.75,0,37,37,29,1,,,,,,,,,,,,,,,,,,,,,,,,,,,,,,,,,,,,,,,,
,,,,,V3_084,18,Female,2024-11-21_16h16.38.778,jersey_experiment_5_v3,2023.2.2,Win32,85.47008547,,,,,,,,,,,,,,,,424.4483,425.7423,425.7423,427.707,return,0.6315,,74.47916667,,,,,,FBP-OG-81.png,0.4,1.2,38,0.5,0,38,38,37,1,,,,,,,,,,,,,,,,,,,,,,,,,,,,,,,,,,,,,,,,
,,,,,V3_084,18,Female,2024-11-21_16h16.38.778,jersey_experiment_5_v3,2023.2.2,Win32,85.47008547,,,,,,,,,,,,,,,,427.7073,429.0045,429.0046,430.5812,return,0.5526,,99.34895833,,,,,,FBP-OG-91.png,0.45,1.2,45,0.5,0,39,39,44,1,,,,,,,,,,,,,,,,,,,,,,,,,,,,,,,,,,,,,,,,
,,,,,V3_084,18,Female,2024-11-21_16h16.38.778,jersey_experiment_5_v3,2023.2.2,Win32,85.47008547,,,,,,,,,,,,,,,,430.5814,432.123,432.123,434.0403,return,0.8475,,24.08854167,,,,,,FBP-PT-71.png,0.35,1.2,16,0.75,0,40,40,15,1,,,,,,,,,,,,,,,,,,,,,,,,,,,,,,,,,,,,,,,,
,,,,,V3_084,18,Female,2024-11-21_16h16.38.778,jersey_experiment_5_v3,2023.2.2,Win32,85.47008547,,,,,,,,,,,,,,,,434.0404,435.5898,435.5898,438.3115,return,0.6952,,25.13020833,,,,,,FBP-YG-17.png,0.35,1.2,1,0.75,0,41,41,0,1,,,,,,,,,,,,,,,,,,,,,,,,,,,,,,,,,,,,,,,,
,,,,,V3_084,18,Female,2024-11-21_16h16.38.778,jersey_experiment_5_v3,2023.2.2,Win32,85.47008547,,,,,,,,,,,,,,,,438.3116,439.8644,439.8644,441.2763,return,0.5538,,74.86979167,,,,,,FBP-YG-19.png,0.43,1.2,14,0.75,0,42,42,13,1,,,,,,,,,,,,,,,,,,,,,,,,,,,,,,,,,,,,,,,,
,,,,,V3_084,18,Female,2024-11-21_16h16.38.778,jersey_experiment_5_v3,2023.2.2,Win32,85.47008547,,,,,,,,,,,,,,,,441.2765,442.8253,442.8253,446.5547,return,0.5847,,49.73958333,,,,,,FBP-YG-19.png,0.37,1.2,12,0.75,0,43,43,11,1,,,,,,,,,,,,,,,,,,,,,,,,,,,,,,,,,,,,,,,,
,,,,,V3_084,18,Female,2024-11-21_16h16.38.778,jersey_experiment_5_v3,2023.2.2,Win32,85.47008547,,,,,,,,,,,,,,,,446.5549,448.1001,448.1001,449.4842,return,0.5346,,74.73958333,,,,,,FBP-RB-91.png,0.45,1.2,60,0.75,0,44,44,59,1,,,,,,,,,,,,,,,,,,,,,,,,,,,,,,,,,,,,,,,,
,,,,,V3_084,18,Female,2024-11-21_16h16.38.778,jersey_experiment_5_v3,2023.2.2,Win32,85.47008547,,,,,,,,,,,,,,,,449.4845,451.0408,451.0409,452.1616,return,0.5802,,74.73958333,,,,,,FBP-PT-91.png,0.43,1.2,29,0.75,0,45,45,28,1,,,,,,,,,,,,,,,,,,,,,,,,,,,,,,,,,,,,,,,,
,,,,,V3_084,18,Female,2024-11-21_16h16.38.778,jersey_experiment_5_v3,2023.2.2,Win32,85.47008547,,,,,,,,,,,,,,,,452.1619,453.7081,453.7081,455.2912,return,0.6271,,25.390625,,,,,,FBP-PT-81.png,0.35,1.2,21,0.75,0,46,46,20,1,,,,,,,,,,,,,,,,,,,,,,,,,,,,,,,,,,,,,,,,
,,,,,V3_084,18,Female,2024-11-21_16h16.38.778,jersey_experiment_5_v3,2023.2.2,Win32,85.47008547,,,,,,,,,,,,,,,,455.2914,456.844,456.8441,458.4612,return,0.5235,,75.26041667,,,,,,FBP-YG-18.png,0.45,1.2,10,0.75,0,47,47,9,1,,,,,,,,,,,,,,,,,,,,,,,,,,,,,,,,,,,,,,,,
,,,,,V3_084,18,Female,2024-11-21_16h16.38.778,jersey_experiment_5_v3,2023.2.2,Win32,85.47008547,,,,,,,,,,,,,,,,458.4614,460.0057,460.0057,461.0067,return,0.5887,,75.26041667,,,,,,FBP-PT-71.png,0.43,1.2,19,0.75,0,48,48,18,1,,,,,,,,,,,,,,,,,,,,,,,,,,,,,,,,,,,,,,,,
,,,,,V3_084,18,Female,2024-11-21_16h16.38.778,jersey_experiment_5_v3,2023.2.2,Win32,85.47008547,,,,,,,,,,,,,,,,461.0068,462.5555,462.5555,463.6656,return,0.5414,,75,,,,,,FBP-RB-81.png,0.43,1.2,54,0.75,0,49,49,53,1,,,,,,,,,,,,,,,,,,,,,,,,,,,,,,,,,,,,,,,,
,,,,,V3_084,18,Female,2024-11-21_16h16.38.778,jersey_experiment_5_v3,2023.2.2,Win32,85.47008547,,,,,,,,,,,,,,,,463.6658,465.2184,465.2185,467.2435,return,0.5314,,49.34895833,,,,,,FBP-PT-81.png,0.37,1.2,22,0.75,0,50,50,21,1,,,,,,,,,,,,,,,,,,,,,,,,,,,,,,,,,,,,,,,,
,,,,,V3_084,18,Female,2024-11-21_16h16.38.778,jersey_experiment_5_v3,2023.2.2,Win32,85.47008547,,,,,,,,,,,,,,,,467.2437,468.791,468.791,471.0304,return,0.5389,,61.328125,,,,,,FBP-PT-81.png,0.43,1.2,24,0.75,0,51,51,23,1,,,,,,,,,,,,,,,,,,,,,,,,,,,,,,,,,,,,,,,,
,,,,,V3_084,18,Female,2024-11-21_16h16.38.778,jersey_experiment_5_v3,2023.2.2,Win32,85.47008547,,,,,,,,,,,,,,,,471.0305,472.3356,472.3357,474.28,return,0.6504,,23.95833333,,,,,,FBP-OG-91.png,0.35,1.2,41,0.5,0,52,52,40,1,,,,,,,,,,,,,,,,,,,,,,,,,,,,,,,,,,,,,,,,
,,,,,V3_084,18,Female,2024-11-21_16h16.38.778,jersey_experiment_5_v3,2023.2.2,Win32,85.47008547,,,,,,,,,,,,,,,,474.2801,475.8265,475.8266,478.2651,return,1.5373,,49.34895833,,,,,,FBP-RB-81.png,0.37,1.2,52,0.75,0,53,53,51,1,,,,,,,,,,,,,,,,,,,,,,,,,,,,,,,,,,,,,,,,
,,,,,V3_084,18,Female,2024-11-21_16h16.38.778,jersey_experiment_5_v3,2023.2.2,Win32,85.47008547,,,,,,,,,,,,,,,,478.2653,479.5595,479.5596,482.1154,return,0.5795,,86.58854167,,,,,,FBP-OG-81.png,0.45,1.2,40,0.5,0,54,54,39,1,,,,,,,,,,,,,,,,,,,,,,,,,,,,,,,,,,,,,,,,
,,,,,V3_084,18,Female,2024-11-21_16h16.38.778,jersey_experiment_5_v3,2023.2.2,Win32,85.47008547,,,,,,,,,,,,,,,,482.1156,483.4086,483.4086,486.7274,return,0.58,,49.47916667,,,,,,FBP-OG-71.png,0.35,1.2,31,0.5,0,55,55,30,1,,,,,,,,,,,,,,,,,,,,,,,,,,,,,,,,,,,,,,,,
,,,,,V3_084,18,Female,2024-11-21_16h16.38.778,jersey_experiment_5_v3,2023.2.2,Win32,85.47008547,,,,,,,,,,,,,,,,486.7276,488.2804,488.2804,489.2925,return,0.5329,,49.47916667,,,,,,FBP-RB-91.png,0.37,1.2,57,0.75,0,56,56,56,1,,,,,,,,,,,,,,,,,,,,,,,,,,,,,,,,,,,,,,,,
,,,,,V3_084,18,Female,2024-11-21_16h16.38.778,jersey_experiment_5_v3,2023.2.2,Win32,85.47008547,,,,,,,,,,,,,,,,489.2927,490.8455,490.8455,492.3275,return,0.5315,,74.86979167,,,,,,FBP-YG-18.png,0.43,1.2,9,0.75,0,57,57,8,1,,,,,,,,,,,,,,,,,,,,,,,,,,,,,,,,,,,,,,,,
,,,,,V3_084,18,Female,2024-11-21_16h16.38.778,jersey_experiment_5_v3,2023.2.2,Win32,85.47008547,,,,,,,,,,,,,,,,492.3276,493.8806,493.8807,495.3248,return,0.5996,,48.95833333,,,,,,FBP-PT-71.png,0.37,1.2,17,0.75,0,58,58,16,1,,,,,,,,,,,,,,,,,,,,,,,,,,,,,,,,,,,,,,,,
,,,,,V3_084,18,Female,2024-11-21_16h16.38.778,jersey_experiment_5_v3,2023.2.2,Win32,85.47008547,,,,,,,,,,,,,,,,495.3249,496.6188,496.6188,497.7721,return,0.588,,49.34895833,,,,,,FBP-OG-91.png,0.37,1.2,42,0.5,0,59,59,41,1,,,,,,,,,,,,,,,,,,,,,,,,,,,,,,,,,,,,,,,,
,,,,,V3_084,18,Female,2024-11-21_16h16.38.778,jersey_experiment_5_v3,2023.2.2,Win32,85.47008547,,,,,,,,,,,,,,,,,,,,,,,,,,,,,,,,,,,,,,,497.7721,617.7667,,,,,,,,,,,,,,,,,,,,,,,,,,,,,,,,,,,,,,
,,,,,V3_084,18,Female,2024-11-21_16h16.38.778,jersey_experiment_5_v3,2023.2.2,Win32,85.47008547,,,,,,,,,,,,,,,,,,,,,,,,,,,,,,,,,,,,,,,,,617.7667,624.6387,return,6.862,,,,,,,,,,,,,,,,,,,,,,,,,,,,,,,,,,
,,,,,V3_084,18,Female,2024-11-21_16h16.38.778,jersey_experiment_5_v3,2023.2.2,Win32,85.47008547,,,,,,,,,,,,,,,,624.6397,625.9329,625.9329,631.0238,return,3.3497,,25.26041667,,,,,,FBP-RB-19.png,0.35,1.2,56,0.5,,,,,,,,,,,,,0,0,0,55,1,,,,,,,,,,,,,,,,,,,,,,,,,,,,
,,,,,V3_084,18,Female,2024-11-21_16h16.38.778,jersey_experiment_5_v3,2023.2.2,Win32,85.47008547,,,,,,,,,,,,,,,,631.0239,632.5772,632.5772,633.7769,return,0.6116,,25.13020833,,,,,,FBP-OG-19.png,0.35,1.2,41,0.75,,,,,,,,,,,,,0,1,1,40,1,,,,,,,,,,,,,,,,,,,,,,,,,,,,
,,,,,V3_084,18,Female,2024-11-21_16h16.38.778,jersey_experiment_5_v3,2023.2.2,Win32,85.47008547,,,,,,,,,,,,,,,,633.7771,635.0712,635.0712,637.413,return,0.9065,,74.86979167,,,,,,FBP-PT-19.png,0.43,1.2,29,0.5,,,,,,,,,,,,,0,2,2,28,1,,,,,,,,,,,,,,,,,,,,,,,,,,,,
,,,,,V3_084,18,Female,2024-11-21_16h16.38.778,jersey_experiment_5_v3,2023.2.2,Win32,85.47008547,,,,,,,,,,,,,,,,637.4132,638.7076,638.7076,639.8249,return,0.527,,74.86979167,,,,,,FBP-RB-19.png,0.45,1.2,60,0.5,,,,,,,,,,,,,0,3,3,59,1,,,,,,,,,,,,,,,,,,,,,,,,,,,,
,,,,,V3_084,18,Female,2024-11-21_16h16.38.778,jersey_experiment_5_v3,2023.2.2,Win32,85.47008547,,,,,,,,,,,,,,,,639.8251,641.1184,641.1184,644.2372,return,0.6011,,12.109375,,,,,,FBP-YG-81.png,0.35,1.2,6,0.5,,,,,,,,,,,,,0,4,4,5,1,,,,,,,,,,,,,,,,,,,,,,,,,,,,
,,,,,V3_084,18,Female,2024-11-21_16h16.38.778,jersey_experiment_5_v3,2023.2.2,Win32,85.47008547,,,,,,,,,,,,,,,,644.2374,645.5339,645.5339,649.7077,return,3.4599,,0,,,,,,FBP-PT-19.png,0.35,1.2,26,0.5,,,,,,,,,,,,,0,5,5,25,1,,,,,,,,,,,,,,,,,,,,,,,,,,,,
,,,,,V3_084,18,Female,2024-11-21_16h16.38.778,jersey_experiment_5_v3,2023.2.2,Win32,85.47008547,,,,,,,,,,,,,,,,649.7078,651.0013,651.0013,660.9783,return,3.6943,,0,,,,,,FBP-PT-18.png,0.35,1.2,21,0.5,,,,,,,,,,,,,0,6,6,20,1,,,,,,,,,,,,,,,,,,,,,,,,,,,,
,,,,,V3_084,18,Female,2024-11-21_16h16.38.778,jersey_experiment_5_v3,2023.2.2,Win32,85.47008547,,,,,,,,,,,,,,,,660.9784,662.2847,662.2847,664.0371,return,0.6353,,75.390625,,,,,,FBP-RB-19.png,0.43,1.2,59,0.5,,,,,,,,,,,,,0,7,7,58,1,,,,,,,,,,,,,,,,,,,,,,,,,,,,
,,,,,V3_084,18,Female,2024-11-21_16h16.38.778,jersey_experiment_5_v3,2023.2.2,Win32,85.47008547,,,,,,,,,,,,,,,,664.0372,665.3397,665.3397,666.664,return,0.6502,,75.26041667,,,,,,FBP-PT-17.png,0.43,1.2,19,0.5,,,,,,,,,,,,,0,8,8,18,1,,,,,,,,,,,,,,,,,,,,,,,,,,,,
,,,,,V3_084,18,Female,2024-11-21_16h16.38.778,jersey_experiment_5_v3,2023.2.2,Win32,85.47008547,,,,,,,,,,,,,,,,666.6642,667.9634,667.9634,669.0255,return,0.5264,,75.13020833,,,,,,FBP-PT-17.png,0.4,1.2,18,0.5,,,,,,,,,,,,,0,9,9,17,1,,,,,,,,,,,,,,,,,,,,,,,,,,,,
,,,,,V3_084,18,Female,2024-11-21_16h16.38.778,jersey_experiment_5_v3,2023.2.2,Win32,85.47008547,,,,,,,,,,,,,,,,669.0256,670.3346,670.3347,672.3669,return,0.5649,,49.73958333,,,,,,FBP-YG-91.png,0.37,1.2,12,0.5,,,,,,,,,,,,,0,10,10,11,1,,,,,,,,,,,,,,,,,,,,,,,,,,,,
,,,,,V3_084,18,Female,2024-11-21_16h16.38.778,jersey_experiment_5_v3,2023.2.2,Win32,85.47008547,,,,,,,,,,,,,,,,672.367,673.9197,673.9197,675.4723,return,0.6671,,73.95833333,,,,,,FBP-OG-19.png,0.4,1.2,43,0.75,,,,,,,,,,,,,0,11,11,42,1,,,,,,,,,,,,,,,,,,,,,,,,,,,,
,,,,,V3_084,18,Female,2024-11-21_16h16.38.778,jersey_experiment_5_v3,2023.2.2,Win32,85.47008547,,,,,,,,,,,,,,,,675.4724,676.7637,676.7638,678.9914,return,0.601,,50.13020833,,,,,,FBP-RB-17.png,0.35,1.2,46,0.5,,,,,,,,,,,,,0,12,12,45,1,,,,,,,,,,,,,,,,,,,,,,,,,,,,
,,,,,V3_084,18,Female,2024-11-21_16h16.38.778,jersey_experiment_5_v3,2023.2.2,Win32,85.47008547,,,,,,,,,,,,,,,,678.9915,680.2878,680.2879,681.9116,return,0.5432,,98.95833333,,,,,,FBP-YG-81.png,0.45,1.2,10,0.5,,,,,,,,,,,,,0,13,13,9,1,,,,,,,,,,,,,,,,,,,,,,,,,,,,
,,,,,V3_084,18,Female,2024-11-21_16h16.38.778,jersey_experiment_5_v3,2023.2.2,Win32,85.47008547,,,,,,,,,,,,,,,,681.9118,683.2031,683.2031,685.5439,return,0.6119,,50.52083333,,,,,,FBP-YG-91.png,0.35,1.2,11,0.5,,,,,,,,,,,,,0,14,14,10,1,,,,,,,,,,,,,,,,,,,,,,,,,,,,
,,,,,V3_084,18,Female,2024-11-21_16h16.38.778,jersey_experiment_5_v3,2023.2.2,Win32,85.47008547,,,,,,,,,,,,,,,,685.5441,686.838,686.838,688.1087,return,0.5414,,75.52083333,,,,,,FBP-YG-81.png,0.4,1.2,8,0.5,,,,,,,,,,,,,0,15,15,7,1,,,,,,,,,,,,,,,,,,,,,,,,,,,,
,,,,,V3_084,18,Female,2024-11-21_16h16.38.778,jersey_experiment_5_v3,2023.2.2,Win32,85.47008547,,,,,,,,,,,,,,,,688.1088,689.6504,689.6505,691.2112,return,0.5372,,99.86979167,,,,,,FBP-OG-19.png,0.45,1.2,45,0.75,,,,,,,,,,,,,0,16,16,44,1,,,,,,,,,,,,,,,,,,,,,,,,,,,,
,,,,,V3_084,18,Female,2024-11-21_16h16.38.778,jersey_experiment_5_v3,2023.2.2,Win32,85.47008547,,,,,,,,,,,,,,,,691.2114,692.7564,692.7565,693.886,return,0.5649,,74.34895833,,,,,,FBP-OG-18.png,0.4,1.2,38,0.75,,,,,,,,,,,,,0,17,17,37,1,,,,,,,,,,,,,,,,,,,,,,,,,,,,
,,,,,V3_084,18,Female,2024-11-21_16h16.38.778,jersey_experiment_5_v3,2023.2.2,Win32,85.47008547,,,,,,,,,,,,,,,,693.8861,695.1909,695.191,696.2391,return,0.5391,,74.34895833,,,,,,FBP-RB-17.png,0.37,1.2,47,0.5,,,,,,,,,,,,,0,18,18,46,1,,,,,,,,,,,,,,,,,,,,,,,,,,,,
,,,,,V3_084,18,Female,2024-11-21_16h16.38.778,jersey_experiment_5_v3,2023.2.2,Win32,85.47008547,,,,,,,,,,,,,,,,696.2392,697.5409,697.541,698.7804,return,0.6005,,74.34895833,,,,,,FBP-YG-71.png,0.4,1.2,3,0.5,,,,,,,,,,,,,0,19,19,2,1,,,,,,,,,,,,,,,,,,,,,,,,,,,,
,,,,,V3_084,18,Female,2024-11-21_16h16.38.778,jersey_experiment_5_v3,2023.2.2,Win32,85.47008547,,,,,,,,,,,,,,,,698.7806,700.3357,700.3357,703.1359,return,2.3448,,50.52083333,,,,,,FBP-OG-17.png,0.37,1.2,32,0.75,,,,,,,,,,,,,0,20,20,31,1,,,,,,,,,,,,,,,,,,,,,,,,,,,,
,,,,,V3_084,18,Female,2024-11-21_16h16.38.778,jersey_experiment_5_v3,2023.2.2,Win32,85.47008547,,,,,,,,,,,,,,,,703.136,704.4295,704.4296,706.4152,return,0.6923,,99.86979167,,,,,,FBP-PT-17.png,0.45,1.2,20,0.5,,,,,,,,,,,,,0,21,21,19,1,,,,,,,,,,,,,,,,,,,,,,,,,,,,
,,,,,V3_084,18,Female,2024-11-21_16h16.38.778,jersey_experiment_5_v3,2023.2.2,Win32,85.47008547,,,,,,,,,,,,,,,,706.4153,707.7094,707.7095,709.4162,return,0.6716,,74.73958333,,,,,,FBP-RB-19.png,0.4,1.2,58,0.5,,,,,,,,,,,,,0,22,22,57,1,,,,,,,,,,,,,,,,,,,,,,,,,,,,
,,,,,V3_084,18,Female,2024-11-21_16h16.38.778,jersey_experiment_5_v3,2023.2.2,Win32,85.47008547,,,,,,,,,,,,,,,,709.4163,710.7211,710.7211,711.7886,return,0.5589,,74.609375,,,,,,FBP-YG-91.png,0.4,1.2,13,0.5,,,,,,,,,,,,,0,23,23,12,1,,,,,,,,,,,,,,,,,,,,,,,,,,,,
,,,,,V3_084,18,Female,2024-11-21_16h16.38.778,jersey_experiment_5_v3,2023.2.2,Win32,85.47008547,,,,,,,,,,,,,,,,711.7888,713.0826,713.0826,716.2509,return,2.3534,,49.73958333,,,,,,FBP-RB-19.png,0.37,1.2,57,0.5,,,,,,,,,,,,,0,24,24,56,1,,,,,,,,,,,,,,,,,,,,,,,,,,,,
,,,,,V3_084,18,Female,2024-11-21_16h16.38.778,jersey_experiment_5_v3,2023.2.2,Win32,85.47008547,,,,,,,,,,,,,,,,716.251,717.5449,717.5449,718.6037,return,0.5646,,49.86979167,,,,,,FBP-YG-81.png,0.37,1.2,7,0.5,,,,,,,,,,,,,0,25,25,6,1,,,,,,,,,,,,,,,,,,,,,,,,,,,,
,,,,,V3_084,18,Female,2024-11-21_16h16.38.778,jersey_experiment_5_v3,2023.2.2,Win32,85.47008547,,,,,,,,,,,,,,,,718.6039,720.1461,720.1461,722.3216,return,0.6591,,75.26041667,,,,,,FBP-OG-18.png,0.43,1.2,39,0.75,,,,,,,,,,,,,0,26,26,38,1,,,,,,,,,,,,,,,,,,,,,,,,,,,,
,,,,,V3_084,18,Female,2024-11-21_16h16.38.778,jersey_experiment_5_v3,2023.2.2,Win32,85.47008547,,,,,,,,,,,,,,,,722.3218,723.875,723.875,726.7579,return,0.565,,61.45833333,,,,,,FBP-OG-18.png,0.37,1.2,37,0.75,,,,,,,,,,,,,0,27,27,36,1,,,,,,,,,,,,,,,,,,,,,,,,,,,,
,,,,,V3_084,18,Female,2024-11-21_16h16.38.778,jersey_experiment_5_v3,2023.2.2,Win32,85.47008547,,,,,,,,,,,,,,,,726.7581,728.0633,728.0634,729.9841,return,0.5796,,36.06770833,,,,,,FBP-PT-19.png,0.37,1.2,27,0.5,,,,,,,,,,,,,0,28,28,26,1,,,,,,,,,,,,,,,,,,,,,,,,,,,,
,,,,,V3_084,18,Female,2024-11-21_16h16.38.778,jersey_experiment_5_v3,2023.2.2,Win32,85.47008547,,,,,,,,,,,,,,,,729.9842,731.2781,731.2781,732.7371,return,0.5416,,74.86979167,,,,,,FBP-YG-71.png,0.43,1.2,4,0.5,,,,,,,,,,,,,0,29,29,3,1,,,,,,,,,,,,,,,,,,,,,,,,,,,,
,,,,,V3_084,18,Female,2024-11-21_16h16.38.778,jersey_experiment_5_v3,2023.2.2,Win32,85.47008547,,,,,,,,,,,,,,,,732.7373,734.0395,734.0395,735.6482,return,0.5555,,99.609375,,,,,,FBP-RB-18.png,0.43,1.2,54,0.5,,,,,,,,,,,,,0,30,30,53,1,,,,,,,,,,,,,,,,,,,,,,,,,,,,
,,,,,V3_084,18,Female,2024-11-21_16h16.38.778,jersey_experiment_5_v3,2023.2.2,Win32,85.47008547,,,,,,,,,,,,,,,,735.6485,737.1929,737.1929,741.8409,return,0.6948,,24.47916667,,,,,,FBP-OG-18.png,0.35,1.2,36,0.75,,,,,,,,,,,,,0,31,31,35,1,,,,,,,,,,,,,,,,,,,,,,,,,,,,
,,,,,V3_084,18,Female,2024-11-21_16h16.38.778,jersey_experiment_5_v3,2023.2.2,Win32,85.47008547,,,,,,,,,,,,,,,,741.8411,743.1426,743.1427,745.373,return,0.6837,,61.58854167,,,,,,FBP-PT-19.png,0.4,1.2,28,0.5,,,,,,,,,,,,,0,32,32,27,1,,,,,,,,,,,,,,,,,,,,,,,,,,,,
,,,,,V3_084,18,Female,2024-11-21_16h16.38.778,jersey_experiment_5_v3,2023.2.2,Win32,85.47008547,,,,,,,,,,,,,,,,745.3732,746.6721,746.6722,748.4487,return,0.5782,,99.47916667,,,,,,FBP-PT-18.png,0.45,1.2,25,0.5,,,,,,,,,,,,,0,33,33,24,1,,,,,,,,,,,,,,,,,,,,,,,,,,,,
,,,,,V3_084,18,Female,2024-11-21_16h16.38.778,jersey_experiment_5_v3,2023.2.2,Win32,85.47008547,,,,,,,,,,,,,,,,748.4489,749.743,749.743,750.8878,return,0.6119,,99.47916667,,,,,,FBP-PT-18.png,0.4,1.2,23,0.5,,,,,,,,,,,,,0,34,34,22,1,,,,,,,,,,,,,,,,,,,,,,,,,,,,
,,,,,V3_084,18,Female,2024-11-21_16h16.38.778,jersey_experiment_5_v3,2023.2.2,Win32,85.47008547,,,,,,,,,,,,,,,,750.8879,752.1947,752.1947,753.8887,return,0.5774,,99.21875,,,,,,FBP-YG-71.png,0.45,1.2,5,0.5,,,,,,,,,,,,,0,35,35,4,1,,,,,,,,,,,,,,,,,,,,,,,,,,,,
,,,,,V3_084,18,Female,2024-11-21_16h16.38.778,jersey_experiment_5_v3,2023.2.2,Win32,85.47008547,,,,,,,,,,,,,,,,753.8887,755.185,755.1851,757.4289,return,0.6118,,49.73958333,,,,,,FBP-PT-18.png,0.37,1.2,22,0.5,,,,,,,,,,,,,0,36,36,21,1,,,,,,,,,,,,,,,,,,,,,,,,,,,,
,,,,,V3_084,18,Female,2024-11-21_16h16.38.778,jersey_experiment_5_v3,2023.2.2,Win32,85.47008547,,,,,,,,,,,,,,,,757.429,758.7234,758.7234,760.3851,return,0.6129,,99.609375,,,,,,FBP-PT-19.png,0.45,1.2,30,0.5,,,,,,,,,,,,,0,37,37,29,1,,,,,,,,,,,,,,,,,,,,,,,,,,,,
,,,,,V3_084,18,Female,2024-11-21_16h16.38.778,jersey_experiment_5_v3,2023.2.2,Win32,85.47008547,,,,,,,,,,,,,,,,760.3853,761.6792,761.6792,764.1552,return,0.6404,,49.34895833,,,,,,FBP-YG-71.png,0.37,1.2,2,0.5,,,,,,,,,,,,,0,38,38,1,1,,,,,,,,,,,,,,,,,,,,,,,,,,,,
,,,,,V3_084,18,Female,2024-11-21_16h16.38.778,jersey_experiment_5_v3,2023.2.2,Win32,85.47008547,,,,,,,,,,,,,,,,764.1555,765.4529,765.4529,767.4765,return,0.6466,,24.34895833,,,,,,FBP-RB-18.png,0.35,1.2,51,0.5,,,,,,,,,,,,,0,39,39,50,1,,,,,,,,,,,,,,,,,,,,,,,,,,,,
,,,,,V3_084,18,Female,2024-11-21_16h16.38.778,jersey_experiment_5_v3,2023.2.2,Win32,85.47008547,,,,,,,,,,,,,,,,767.4766,768.7704,768.7704,770.7002,return,0.6122,,75.26041667,,,,,,FBP-RB-18.png,0.4,1.2,53,0.5,,,,,,,,,,,,,0,40,40,52,1,,,,,,,,,,,,,,,,,,,,,,,,,,,,
,,,,,V3_084,18,Female,2024-11-21_16h16.38.778,jersey_experiment_5_v3,2023.2.2,Win32,85.47008547,,,,,,,,,,,,,,,,770.7003,772.2444,772.2444,774.3322,return,0.6275,,98.828125,,,,,,FBP-OG-18.png,0.45,1.2,40,0.75,,,,,,,,,,,,,0,41,41,39,1,,,,,,,,,,,,,,,,,,,,,,,,,,,,
,,,,,V3_084,18,Female,2024-11-21_16h16.38.778,jersey_experiment_5_v3,2023.2.2,Win32,85.47008547,,,,,,,,,,,,,,,,774.3325,775.6303,775.6303,776.5481,return,0.212,,99.73958333,,,,,,FBP-YG-81.png,0.43,1.2,9,0.5,,,,,,,,,,,,,0,42,42,8,1,,,,,,,,,,,,,,,,,,,,,,,,,,,,
,,,,,V3_084,18,Female,2024-11-21_16h16.38.778,jersey_experiment_5_v3,2023.2.2,Win32,85.47008547,,,,,,,,,,,,,,,,776.5483,778.0968,778.0968,779.3014,return,0.162,,75.26041667,,,,,,FBP-OG-17.png,0.43,1.2,34,0.75,,,,,,,,,,,,,0,43,43,33,1,,,,,,,,,,,,,,,,,,,,,,,,,,,,
,,,,,V3_084,18,Female,2024-11-21_16h16.38.778,jersey_experiment_5_v3,2023.2.2,Win32,85.47008547,,,,,,,,,,,,,,,,779.3017,780.6063,780.6063,781.25,return,0.1664,,73.95833333,,,,,,FBP-RB-17.png,0.4,1.2,48,0.5,,,,,,,,,,,,,0,44,44,47,1,,,,,,,,,,,,,,,,,,,,,,,,,,,,
,,,,,V3_084,18,Female,2024-11-21_16h16.38.778,jersey_experiment_5_v3,2023.2.2,Win32,85.47008547,,,,,,,,,,,,,,,,781.2503,782.8069,782.8069,783.5324,return,0.0883,,74.86979167,,,,,,FBP-OG-19.png,0.43,1.2,44,0.75,,,,,,,,,,,,,0,45,45,43,1,,,,,,,,,,,,,,,,,,,,,,,,,,,,
,,,,,V3_084,18,Female,2024-11-21_16h16.38.778,jersey_experiment_5_v3,2023.2.2,Win32,85.47008547,,,,,,,,,,,,,,,,783.5327,785.0911,785.0911,786.1245,return,0.2323,,50.390625,,,,,,FBP-OG-17.png,0.4,1.2,33,0.75,,,,,,,,,,,,,0,46,46,32,1,,,,,,,,,,,,,,,,,,,,,,,,,,,,
,,,,,V3_084,18,Female,2024-11-21_16h16.38.778,jersey_experiment_5_v3,2023.2.2,Win32,85.47008547,,,,,,,,,,,,,,,,786.1246,787.4214,787.4214,788.5979,return,0.1203,,24.86979167,,,,,,FBP-PT-17.png,0.37,1.2,17,0.5,,,,,,,,,,,,,0,47,47,16,1,,,,,,,,,,,,,,,,,,,,,,,,,,,,
,,,,,V3_084,18,Female,2024-11-21_16h16.38.778,jersey_experiment_5_v3,2023.2.2,Win32,85.47008547,,,,,,,,,,,,,,,,788.5981,789.8901,789.8901,791.2179,return,0.117,,73.828125,,,,,,FBP-RB-17.png,0.45,1.2,50,0.5,,,,,,,,,,,,,0,48,48,49,1,,,,,,,,,,,,,,,,,,,,,,,,,,,,
,,,,,V3_084,18,Female,2024-11-21_16h16.38.778,jersey_experiment_5_v3,2023.2.2,Win32,85.47008547,,,,,,,,,,,,,,,,791.218,792.7603,792.7603,794.2073,return,0.1058,,24.47916667,,,,,,FBP-OG-19.png,0.37,1.2,42,0.75,,,,,,,,,,,,,0,49,49,41,1,,,,,,,,,,,,,,,,,,,,,,,,,,,,
,,,,,V3_084,18,Female,2024-11-21_16h16.38.778,jersey_experiment_5_v3,2023.2.2,Win32,85.47008547,,,,,,,,,,,,,,,,794.2075,795.7597,795.7598,800.1254,return,0.7656,,0.520833333,,,,,,FBP-OG-17.png,0.35,1.2,31,0.75,,,,,,,,,,,,,0,50,50,30,1,,,,,,,,,,,,,,,,,,,,,,,,,,,,
,,,,,V3_084,18,Female,2024-11-21_16h16.38.778,jersey_experiment_5_v3,2023.2.2,Win32,85.47008547,,,,,,,,,,,,,,,,800.1255,801.4274,801.4274,802.881,return,0.1674,,98.95833333,,,,,,FBP-PT-18.png,0.43,1.2,24,0.5,,,,,,,,,,,,,0,51,51,23,1,,,,,,,,,,,,,,,,,,,,,,,,,,,,
,,,,,V3_084,18,Female,2024-11-21_16h16.38.778,jersey_experiment_5_v3,2023.2.2,Win32,85.47008547,,,,,,,,,,,,,,,,802.881,804.1837,804.1837,804.7249,return,0.1648,,98.17708333,,,,,,FBP-YG-91.png,0.45,1.2,15,0.5,,,,,,,,,,,,,0,52,52,14,1,,,,,,,,,,,,,,,,,,,,,,,,,,,,
,,,,,V3_084,18,Female,2024-11-21_16h16.38.778,jersey_experiment_5_v3,2023.2.2,Win32,85.47008547,,,,,,,,,,,,,,,,804.7251,806.0191,806.0191,807.3099,return,0.1345,,25.26041667,,,,,,FBP-YG-71.png,0.35,1.2,1,0.5,,,,,,,,,,,,,0,53,53,0,1,,,,,,,,,,,,,,,,,,,,,,,,,,,,
,,,,,V3_084,18,Female,2024-11-21_16h16.38.778,jersey_experiment_5_v3,2023.2.2,Win32,85.47008547,,,,,,,,,,,,,,,,807.3102,808.8576,808.8576,809.7284,return,0.1328,,75.52083333,,,,,,FBP-OG-17.png,0.45,1.2,35,0.75,,,,,,,,,,,,,0,54,54,34,1,,,,,,,,,,,,,,,,,,,,,,,,,,,,
,,,,,V3_084,18,Female,2024-11-21_16h16.38.778,jersey_experiment_5_v3,2023.2.2,Win32,85.47008547,,,,,,,,,,,,,,,,809.7285,811.0199,811.0199,812.4427,return,0.1648,,98.046875,,,,,,FBP-RB-18.png,0.45,1.2,55,0.5,,,,,,,,,,,,,0,55,55,54,1,,,,,,,,,,,,,,,,,,,,,,,,,,,,
,,,,,V3_084,18,Female,2024-11-21_16h16.38.778,jersey_experiment_5_v3,2023.2.2,Win32,85.47008547,,,,,,,,,,,,,,,,812.4429,813.7373,813.7373,815.5874,return,0.1564,,49.21875,,,,,,FBP-RB-18.png,0.37,1.2,52,0.5,,,,,,,,,,,,,0,56,56,51,1,,,,,,,,,,,,,,,,,,,,,,,,,,,,
,,,,,V3_084,18,Female,2024-11-21_16h16.38.778,jersey_experiment_5_v3,2023.2.2,Win32,85.47008547,,,,,,,,,,,,,,,,815.5876,816.8813,816.8813,817.7496,return,0.0944,,74.34895833,,,,,,FBP-RB-17.png,0.43,1.2,49,0.5,,,,,,,,,,,,,0,57,57,48,1,,,,,,,,,,,,,,,,,,,,,,,,,,,,
,,,,,V3_084,18,Female,2024-11-21_16h16.38.778,jersey_experiment_5_v3,2023.2.2,Win32,85.47008547,,,,,,,,,,,,,,,,817.7498,819.0548,819.0548,819.5851,return,0.1069,,74.34895833,,,,,,FBP-YG-91.png,0.43,1.2,14,0.5,,,,,,,,,,,,,0,58,58,13,1,,,,,,,,,,,,,,,,,,,,,,,,,,,,
,,,,,V3_084,18,Female,2024-11-21_16h16.38.778,jersey_experiment_5_v3,2023.2.2,Win32,85.47008547,,,,,,,,,,,,,,,,819.5851,820.8904,820.8904,822.1458,return,0.0709,,24.34895833,,,,,,FBP-PT-17.png,0.35,1.2,16,0.5,,,,,,,,,,,,,0,59,59,15,1,,,,,,,,,,,,,,,,,,,,,,,,,,,,
,,,,,V3_084,18,Female,2024-11-21_16h16.38.778,jersey_experiment_5_v3,2023.2.2,Win32,85.47008547,,,,,,,,,,,,,,,,822.147,823.4399,823.4399,825.0442,return,0.2097,,49.21875,,,,,,FBP-PT-91.png,0.4,1.2,28,0.5,,,,,,,,,,,,,,,,,,0,0,0,27,1,,,,,,,,,,,,,,,,,,,,,,,
,,,,,V3_084,18,Female,2024-11-21_16h16.38.778,jersey_experiment_5_v3,2023.2.2,Win32,85.47008547,,,,,,,,,,,,,,,,825.0444,826.5929,826.5929,828.1388,return,0.0955,,36.84895833,,,,,,FBP-OG-81.png,0.4,1.2,38,0.75,,,,,,,,,,,,,,,,,,0,1,1,37,1,,,,,,,,,,,,,,,,,,,,,,,
,,,,,V3_084,18,Female,2024-11-21_16h16.38.778,jersey_experiment_5_v3,2023.2.2,Win32,85.47008547,,,,,,,,,,,,,,,,828.139,829.4406,829.4406,831.1252,return,0.0712,,25,,,,,,FBP-YG-19.png,0.37,1.2,12,0.5,,,,,,,,,,,,,,,,,,0,2,2,11,1,,,,,,,,,,,,,,,,,,,,,,,
,,,,,V3_084,18,Female,2024-11-21_16h16.38.778,jersey_experiment_5_v3,2023.2.2,Win32,85.47008547,,,,,,,,,,,,,,,,831.1253,832.4191,832.4191,834.2318,return,0.1181,,74.609375,,,,,,FBP-RB-71.png,0.43,1.2,49,0.5,,,,,,,,,,,,,,,,,,0,3,3,48,1,,,,,,,,,,,,,,,,,,,,,,,
,,,,,V3_084,18,Female,2024-11-21_16h16.38.778,jersey_experiment_5_v3,2023.2.2,Win32,85.47008547,,,,,,,,,,,,,,,,834.232,835.5344,835.5344,836.9144,return,0.1414,,49.47916667,,,,,,FBP-RB-71.png,0.4,1.2,48,0.5,,,,,,,,,,,,,,,,,,0,4,4,47,1,,,,,,,,,,,,,,,,,,,,,,,
,,,,,V3_084,18,Female,2024-11-21_16h16.38.778,jersey_experiment_5_v3,2023.2.2,Win32,85.47008547,,,,,,,,,,,,,,,,836.9146,838.2208,838.2208,839.3849,return,0.1411,,75.13020833,,,,,,FBP-YG-17.png,0.43,1.2,4,0.5,,,,,,,,,,,,,,,,,,0,5,5,3,1,,,,,,,,,,,,,,,,,,,,,,,
,,,,,V3_084,18,Female,2024-11-21_16h16.38.778,jersey_experiment_5_v3,2023.2.2,Win32,85.47008547,,,,,,,,,,,,,,,,839.3851,840.679,840.679,841.7741,return,0.1305,,98.4375,,,,,,FBP-PT-81.png,0.45,1.2,25,0.5,,,,,,,,,,,,,,,,,,0,6,6,24,1,,,,,,,,,,,,,,,,,,,,,,,
,,,,,V3_084,18,Female,2024-11-21_16h16.38.778,jersey_experiment_5_v3,2023.2.2,Win32,85.47008547,,,,,,,,,,,,,,,,841.7743,843.3294,843.3294,844.0435,return,0.0577,,99.08854167,,,,,,FBP-OG-91.png,0.43,1.2,44,0.75,,,,,,,,,,,,,,,,,,0,7,7,43,1,,,,,,,,,,,,,,,,,,,,,,,
,,,,,V3_084,18,Female,2024-11-21_16h16.38.778,jersey_experiment_5_v3,2023.2.2,Win32,85.47008547,,,,,,,,,,,,,,,,844.0436,845.3349,845.3349,848.0441,return,0.0704,,25,,,,,,FBP-YG-18.png,0.35,1.2,6,0.5,,,,,,,,,,,,,,,,,,0,8,8,5,1,,,,,,,,,,,,,,,,,,,,,,,
,,,,,V3_084,18,Female,2024-11-21_16h16.38.778,jersey_experiment_5_v3,2023.2.2,Win32,85.47008547,,,,,,,,,,,,,,,,848.0442,849.597,849.5971,850.7502,return,0.0471,,0.520833333,,,,,,FBP-OG-91.png,0.35,1.2,41,0.75,,,,,,,,,,,,,,,,,,0,9,9,40,1,,,,,,,,,,,,,,,,,,,,,,,
,,,,,V3_084,18,Female,2024-11-21_16h16.38.778,jersey_experiment_5_v3,2023.2.2,Win32,85.47008547,,,,,,,,,,,,,,,,850.7503,852.2946,852.2946,853.3067,return,0.1096,,75.390625,,,,,,FBP-OG-71.png,0.45,1.2,35,0.75,,,,,,,,,,,,,,,,,,0,10,10,34,1,,,,,,,,,,,,,,,,,,,,,,,
,,,,,V3_084,18,Female,2024-11-21_16h16.38.778,jersey_experiment_5_v3,2023.2.2,Win32,85.47008547,,,,,,,,,,,,,,,,853.3067,854.598,854.598,856.3982,return,0.1741,,98.95833333,,,,,,FBP-RB-71.png,0.45,1.2,50,0.5,,,,,,,,,,,,,,,,,,0,11,11,49,1,,,,,,,,,,,,,,,,,,,,,,,
,,,,,V3_084,18,Female,2024-11-21_16h16.38.778,jersey_experiment_5_v3,2023.2.2,Win32,85.47008547,,,,,,,,,,,,,,,,856.3984,857.7064,857.7065,858.7396,return,0.06,,74.34895833,,,,,,FBP-PT-71.png,0.35,1.2,16,0.5,,,,,,,,,,,,,,,,,,0,12,12,15,1,,,,,,,,,,,,,,,,,,,,,,,
,,,,,V3_084,18,Female,2024-11-21_16h16.38.778,jersey_experiment_5_v3,2023.2.2,Win32,85.47008547,,,,,,,,,,,,,,,,858.7397,860.0447,860.0447,861.8245,return,0.1886,,99.34895833,,,,,,FBP-YG-17.png,0.45,1.2,5,0.5,,,,,,,,,,,,,,,,,,0,13,13,4,1,,,,,,,,,,,,,,,,,,,,,,,
,,,,,V3_084,18,Female,2024-11-21_16h16.38.778,jersey_experiment_5_v3,2023.2.2,Win32,85.47008547,,,,,,,,,,,,,,,,861.8246,863.1159,863.1159,864.6482,return,0.1798,,23.69791667,,,,,,FBP-YG-17.png,0.35,1.2,1,0.5,,,,,,,,,,,,,,,,,,0,14,14,0,1,,,,,,,,,,,,,,,,,,,,,,,
,,,,,V3_084,18,Female,2024-11-21_16h16.38.778,jersey_experiment_5_v3,2023.2.2,Win32,85.47008547,,,,,,,,,,,,,,,,864.6483,865.9511,865.9511,867.9187,return,0.2034,,75.52083333,,,,,,FBP-RB-91.png,0.4,1.2,58,0.5,,,,,,,,,,,,,,,,,,0,15,15,57,1,,,,,,,,,,,,,,,,,,,,,,,
,,,,,V3_084,18,Female,2024-11-21_16h16.38.778,jersey_experiment_5_v3,2023.2.2,Win32,85.47008547,,,,,,,,,,,,,,,,867.9189,869.4692,869.4692,870.3401,return,0.0834,,74.73958333,,,,,,FBP-OG-71.png,0.43,1.2,34,0.75,,,,,,,,,,,,,,,,,,0,16,16,33,1,,,,,,,,,,,,,,,,,,,,,,,
,,,,,V3_084,18,Female,2024-11-21_16h16.38.778,jersey_experiment_5_v3,2023.2.2,Win32,85.47008547,,,,,,,,,,,,,,,,870.3403,871.6339,871.6339,872.5627,return,0.0557,,50,,,,,,FBP-RB-91.png,0.37,1.2,57,0.5,,,,,,,,,,,,,,,,,,0,17,17,56,1,,,,,,,,,,,,,,,,,,,,,,,
,,,,,V3_084,18,Female,2024-11-21_16h16.38.778,jersey_experiment_5_v3,2023.2.2,Win32,85.47008547,,,,,,,,,,,,,,,,872.5628,873.8694,873.8694,874.7427,return,0.0945,,73.95833333,,,,,,FBP-YG-18.png,0.43,1.2,9,0.5,,,,,,,,,,,,,,,,,,0,18,18,8,1,,,,,,,,,,,,,,,,,,,,,,,
,,,,,V3_084,18,Female,2024-11-21_16h16.38.778,jersey_experiment_5_v3,2023.2.2,Win32,85.47008547,,,,,,,,,,,,,,,,874.7428,876.045,876.0451,877.919,return,0.1413,,25.65104167,,,,,,FBP-RB-81.png,0.37,1.2,52,0.5,,,,,,,,,,,,,,,,,,0,19,19,51,1,,,,,,,,,,,,,,,,,,,,,,,
,,,,,V3_084,18,Female,2024-11-21_16h16.38.778,jersey_experiment_5_v3,2023.2.2,Win32,85.47008547,,,,,,,,,,,,,,,,877.9191,879.2133,879.2133,881.0101,return,0.1028,,74.47916667,,,,,,FBP-PT-91.png,0.43,1.2,29,0.5,,,,,,,,,,,,,,,,,,0,20,20,28,1,,,,,,,,,,,,,,,,,,,,,,,
,,,,,V3_084,18,Female,2024-11-21_16h16.38.778,jersey_experiment_5_v3,2023.2.2,Win32,85.47008547,,,,,,,,,,,,,,,,881.0103,882.3041,882.3041,883.3758,return,0.1071,,49.34895833,,,,,,FBP-PT-81.png,0.4,1.2,23,0.5,,,,,,,,,,,,,,,,,,0,21,21,22,1,,,,,,,,,,,,,,,,,,,,,,,
,,,,,V3_084,18,Female,2024-11-21_16h16.38.778,jersey_experiment_5_v3,2023.2.2,Win32,85.47008547,,,,,,,,,,,,,,,,883.376,884.6697,884.6697,885.7313,return,0.1204,,25.13020833,,,,,,FBP-PT-71.png,0.37,1.2,17,0.5,,,,,,,,,,,,,,,,,,0,22,22,16,1,,,,,,,,,,,,,,,,,,,,,,,
,,,,,V3_084,18,Female,2024-11-21_16h16.38.778,jersey_experiment_5_v3,2023.2.2,Win32,85.47008547,,,,,,,,,,,,,,,,885.7314,887.281,887.2811,888.1717,return,0.075,,74.08854167,,,,,,FBP-OG-81.png,0.45,1.2,40,0.75,,,,,,,,,,,,,,,,,,0,23,23,39,1,,,,,,,,,,,,,,,,,,,,,,,
,,,,,V3_084,18,Female,2024-11-21_16h16.38.778,jersey_experiment_5_v3,2023.2.2,Win32,85.47008547,,,,,,,,,,,,,,,,888.1718,889.4659,889.466,890.4342,return,0.103,,49.34895833,,,,,,FBP-YG-18.png,0.4,1.2,8,0.5,,,,,,,,,,,,,,,,,,0,24,24,7,1,,,,,,,,,,,,,,,,,,,,,,,
,,,,,V3_084,18,Female,2024-11-21_16h16.38.778,jersey_experiment_5_v3,2023.2.2,Win32,85.47008547,,,,,,,,,,,,,,,,890.4344,891.7282,891.7282,893.8225,return,0.071,,61.45833333,,,,,,FBP-YG-19.png,0.4,1.2,13,0.5,,,,,,,,,,,,,,,,,,0,25,25,12,1,,,,,,,,,,,,,,,,,,,,,,,
,,,,,V3_084,18,Female,2024-11-21_16h16.38.778,jersey_experiment_5_v3,2023.2.2,Win32,85.47008547,,,,,,,,,,,,,,,,893.8226,895.1315,895.1315,897.0611,return,1.168,,98.828125,,,,,,FBP-RB-91.png,0.45,1.2,60,0.5,,,,,,,,,,,,,,,,,,0,26,26,59,1,,,,,,,,,,,,,,,,,,,,,,,
,,,,,V3_084,18,Female,2024-11-21_16h16.38.778,jersey_experiment_5_v3,2023.2.2,Win32,85.47008547,,,,,,,,,,,,,,,,897.0612,898.6116,898.6116,899.3525,return,0.1179,,73.828125,,,,,,FBP-OG-91.png,0.4,1.2,43,0.75,,,,,,,,,,,,,,,,,,0,27,27,42,1,,,,,,,,,,,,,,,,,,,,,,,
,,,,,V3_084,18,Female,2024-11-21_16h16.38.778,jersey_experiment_5_v3,2023.2.2,Win32,85.47008547,,,,,,,,,,,,,,,,899.3526,900.6459,900.6459,901.2705,return,0.1772,,74.08854167,,,,,,FBP-YG-17.png,0.4,1.2,3,0.5,,,,,,,,,,,,,,,,,,0,28,28,2,1,,,,,,,,,,,,,,,,,,,,,,,
,,,,,V3_084,18,Female,2024-11-21_16h16.38.778,jersey_experiment_5_v3,2023.2.2,Win32,85.47008547,,,,,,,,,,,,,,,,901.2707,902.5758,902.5758,903.9167,return,0.1176,,99.21875,,,,,,FBP-YG-19.png,0.45,1.2,15,0.5,,,,,,,,,,,,,,,,,,0,29,29,14,1,,,,,,,,,,,,,,,,,,,,,,,
,,,,,V3_084,18,Female,2024-11-21_16h16.38.778,jersey_experiment_5_v3,2023.2.2,Win32,85.47008547,,,,,,,,,,,,,,,,903.9169,905.4612,905.4612,906.8263,return,0.1093,,49.21875,,,,,,FBP-OG-71.png,0.37,1.2,32,0.75,,,,,,,,,,,,,,,,,,0,30,30,31,1,,,,,,,,,,,,,,,,,,,,,,,
,,,,,V3_084,18,Female,2024-11-21_16h16.38.778,jersey_experiment_5_v3,2023.2.2,Win32,85.47008547,,,,,,,,,,,,,,,,906.8265,908.1288,908.1288,909.0668,return,0.0673,,24.47916667,,,,,,FBP-PT-81.png,0.35,1.2,21,0.5,,,,,,,,,,,,,,,,,,0,31,31,20,1,,,,,,,,,,,,,,,,,,,,,,,
,,,,,V3_084,18,Female,2024-11-21_16h16.38.778,jersey_experiment_5_v3,2023.2.2,Win32,85.47008547,,,,,,,,,,,,,,,,909.0671,910.364,910.364,911.6709,return,0.1154,,74.21875,,,,,,FBP-RB-81.png,0.45,1.2,55,0.5,,,,,,,,,,,,,,,,,,0,32,32,54,1,,,,,,,,,,,,,,,,,,,,,,,
,,,,,V3_084,18,Female,2024-11-21_16h16.38.778,jersey_experiment_5_v3,2023.2.2,Win32,85.47008547,,,,,,,,,,,,,,,,911.6711,912.9674,912.9674,913.4701,return,0.1288,,74.21875,,,,,,FBP-PT-81.png,0.43,1.2,24,0.5,,,,,,,,,,,,,,,,,,0,33,33,23,1,,,,,,,,,,,,,,,,,,,,,,,
,,,,,V3_084,18,Female,2024-11-21_16h16.38.778,jersey_experiment_5_v3,2023.2.2,Win32,85.47008547,,,,,,,,,,,,,,,,913.4703,914.7642,914.7642,915.13,return,0.165,,74.21875,,,,,,FBP-RB-81.png,0.4,1.2,53,0.5,,,,,,,,,,,,,,,,,,0,34,34,52,1,,,,,,,,,,,,,,,,,,,,,,,
,,,,,V3_084,18,Female,2024-11-21_16h16.38.778,jersey_experiment_5_v3,2023.2.2,Win32,85.47008547,,,,,,,,,,,,,,,,915.1302,916.6853,916.6854,918.2703,return,0.0706,,24.47916667,,,,,,FBP-OG-71.png,0.35,1.2,31,0.75,,,,,,,,,,,,,,,,,,0,35,35,30,1,,,,,,,,,,,,,,,,,,,,,,,
,,,,,V3_084,18,Female,2024-11-21_16h16.38.778,jersey_experiment_5_v3,2023.2.2,Win32,85.47008547,,,,,,,,,,,,,,,,918.2705,919.8124,919.8124,920.7089,return,0.0855,,0.390625,,,,,,FBP-OG-81.png,0.35,1.2,36,0.75,,,,,,,,,,,,,,,,,,0,36,36,35,1,,,,,,,,,,,,,,,,,,,,,,,
,,,,,V3_084,18,Female,2024-11-21_16h16.38.778,jersey_experiment_5_v3,2023.2.2,Win32,85.47008547,,,,,,,,,,,,,,,,920.7091,922.003,922.003,923.2032,return,0.1093,,74.34895833,,,,,,FBP-PT-71.png,0.43,1.2,19,0.5,,,,,,,,,,,,,,,,,,0,37,37,18,1,,,,,,,,,,,,,,,,,,,,,,,
,,,,,V3_084,18,Female,2024-11-21_16h16.38.778,jersey_experiment_5_v3,2023.2.2,Win32,85.47008547,,,,,,,,,,,,,,,,923.2034,924.7537,924.7538,925.342,return,0.0594,,99.08854167,,,,,,FBP-OG-91.png,0.45,1.2,45,0.75,,,,,,,,,,,,,,,,,,0,38,38,44,1,,,,,,,,,,,,,,,,,,,,,,,
,,,,,V3_084,18,Female,2024-11-21_16h16.38.778,jersey_experiment_5_v3,2023.2.2,Win32,85.47008547,,,,,,,,,,,,,,,,925.3421,926.6474,926.6475,927.7447,return,0.0733,,25.65104167,,,,,,FBP-RB-91.png,0.35,1.2,56,0.5,,,,,,,,,,,,,,,,,,0,39,39,55,1,,,,,,,,,,,,,,,,,,,,,,,
,,,,,V3_084,18,Female,2024-11-21_16h16.38.778,jersey_experiment_5_v3,2023.2.2,Win32,85.47008547,,,,,,,,,,,,,,,,927.7448,929.0476,929.0477,930.2364,return,0.0833,,50.13020833,,,,,,FBP-PT-91.png,0.37,1.2,27,0.5,,,,,,,,,,,,,,,,,,0,40,40,26,1,,,,,,,,,,,,,,,,,,,,,,,
,,,,,V3_084,18,Female,2024-11-21_16h16.38.778,jersey_experiment_5_v3,2023.2.2,Win32,85.47008547,,,,,,,,,,,,,,,,930.2366,931.5412,931.5412,932.9448,return,0.0388,,50,,,,,,FBP-RB-81.png,0.35,1.2,51,0.5,,,,,,,,,,,,,,,,,,0,41,41,50,1,,,,,,,,,,,,,,,,,,,,,,,
,,,,,V3_084,18,Female,2024-11-21_16h16.38.778,jersey_experiment_5_v3,2023.2.2,Win32,85.47008547,,,,,,,,,,,,,,,,932.9449,934.2363,934.2363,935.5182,return,0.4324,,74.21875,,,,,,FBP-PT-71.png,0.45,1.2,20,0.5,,,,,,,,,,,,,,,,,,0,42,42,19,1,,,,,,,,,,,,,,,,,,,,,,,
,,,,,V3_084,18,Female,2024-11-21_16h16.38.778,jersey_experiment_5_v3,2023.2.2,Win32,85.47008547,,,,,,,,,,,,,,,,935.5183,936.8123,936.8123,937.8837,return,0.0833,,51.171875,,,,,,FBP-RB-71.png,0.37,1.2,47,0.5,,,,,,,,,,,,,,,,,,0,43,43,46,1,,,,,,,,,,,,,,,,,,,,,,,
,,,,,V3_084,18,Female,2024-11-21_16h16.38.778,jersey_experiment_5_v3,2023.2.2,Win32,85.47008547,,,,,,,,,,,,,,,,937.8838,939.1778,939.1778,939.7771,return,0.1052,,50.13020833,,,,,,FBP-YG-18.png,0.37,1.2,7,0.5,,,,,,,,,,,,,,,,,,0,44,44,6,1,,,,,,,,,,,,,,,,,,,,,,,
,,,,,V3_084,18,Female,2024-11-21_16h16.38.778,jersey_experiment_5_v3,2023.2.2,Win32,85.47008547,,,,,,,,,,,,,,,,939.7773,941.0861,941.0862,941.8712,return,0.0557,,74.86979167,,,,,,FBP-YG-18.png,0.45,1.2,10,0.5,,,,,,,,,,,,,,,,,,0,45,45,9,1,,,,,,,,,,,,,,,,,,,,,,,
,,,,,V3_084,18,Female,2024-11-21_16h16.38.778,jersey_experiment_5_v3,2023.2.2,Win32,85.47008547,,,,,,,,,,,,,,,,941.8713,943.1781,943.1781,944.0832,return,0.0943,,75.52083333,,,,,,FBP-RB-81.png,0.43,1.2,54,0.5,,,,,,,,,,,,,,,,,,0,46,46,53,1,,,,,,,,,,,,,,,,,,,,,,,
,,,,,V3_084,18,Female,2024-11-21_16h16.38.778,jersey_experiment_5_v3,2023.2.2,Win32,85.47008547,,,,,,,,,,,,,,,,944.0834,945.3773,945.3773,946.0983,return,0.0474,,98.95833333,,,,,,FBP-YG-19.png,0.43,1.2,14,0.5,,,,,,,,,,,,,,,,,,0,47,47,13,1,,,,,,,,,,,,,,,,,,,,,,,
,,,,,V3_084,18,Female,2024-11-21_16h16.38.778,jersey_experiment_5_v3,2023.2.2,Win32,85.47008547,,,,,,,,,,,,,,,,946.0986,947.3979,947.398,949.1036,return,0.052,,61.06770833,,,,,,FBP-PT-71.png,0.4,1.2,18,0.5,,,,,,,,,,,,,,,,,,0,48,48,17,1,,,,,,,,,,,,,,,,,,,,,,,
,,,,,V3_084,18,Female,2024-11-21_16h16.38.778,jersey_experiment_5_v3,2023.2.2,Win32,85.47008547,,,,,,,,,,,,,,,,949.1039,950.6487,950.6488,951.8395,return,0.1182,,25.26041667,,,,,,FBP-OG-91.png,0.37,1.2,42,0.75,,,,,,,,,,,,,,,,,,0,49,49,41,1,,,,,,,,,,,,,,,,,,,,,,,
,,,,,V3_084,18,Female,2024-11-21_16h16.38.778,jersey_experiment_5_v3,2023.2.2,Win32,85.47008547,,,,,,,,,,,,,,,,951.8396,953.3899,953.3899,955.7681,return,0.1083,,49.609375,,,,,,FBP-OG-71.png,0.4,1.2,33,0.75,,,,,,,,,,,,,,,,,,0,50,50,32,1,,,,,,,,,,,,,,,,,,,,,,,
,,,,,V3_084,18,Female,2024-11-21_16h16.38.778,jersey_experiment_5_v3,2023.2.2,Win32,85.47008547,,,,,,,,,,,,,,,,955.7683,957.0717,957.0717,958.8045,return,0.0387,,86.84895833,,,,,,FBP-PT-91.png,0.45,1.2,30,0.5,,,,,,,,,,,,,,,,,,0,51,51,29,1,,,,,,,,,,,,,,,,,,,,,,,
,,,,,V3_084,18,Female,2024-11-21_16h16.38.778,jersey_experiment_5_v3,2023.2.2,Win32,85.47008547,,,,,,,,,,,,,,,,958.8047,960.1074,960.1074,961.2752,return,0.1093,,85.9375,,,,,,FBP-RB-91.png,0.43,1.2,59,0.5,,,,,,,,,,,,,,,,,,0,52,52,58,1,,,,,,,,,,,,,,,,,,,,,,,
,,,,,V3_084,18,Female,2024-11-21_16h16.38.778,jersey_experiment_5_v3,2023.2.2,Win32,85.47008547,,,,,,,,,,,,,,,,961.2753,962.5692,962.5692,963.933,return,0.1079,,24.08854167,,,,,,FBP-PT-91.png,0.35,1.2,26,0.5,,,,,,,,,,,,,,,,,,0,53,53,25,1,,,,,,,,,,,,,,,,,,,,,,,
,,,,,V3_084,18,Female,2024-11-21_16h16.38.778,jersey_experiment_5_v3,2023.2.2,Win32,85.47008547,,,,,,,,,,,,,,,,963.933,965.4871,965.4871,966.4603,return,0.0706,,24.86979167,,,,,,FBP-OG-81.png,0.37,1.2,37,0.75,,,,,,,,,,,,,,,,,,0,54,54,36,1,,,,,,,,,,,,,,,,,,,,,,,
,,,,,V3_084,18,Female,2024-11-21_16h16.38.778,jersey_experiment_5_v3,2023.2.2,Win32,85.47008547,,,,,,,,,,,,,,,,966.4605,967.7695,967.7695,968.2722,return,0.1288,,25.78125,,,,,,FBP-PT-81.png,0.37,1.2,22,0.5,,,,,,,,,,,,,,,,,,0,55,55,21,1,,,,,,,,,,,,,,,,,,,,,,,
,,,,,V3_084,18,Female,2024-11-21_16h16.38.778,jersey_experiment_5_v3,2023.2.2,Win32,85.47008547,,,,,,,,,,,,,,,,968.2723,969.579,969.579,970.1438,return,0.083,,25.78125,,,,,,FBP-YG-17.png,0.37,1.2,2,0.5,,,,,,,,,,,,,,,,,,0,56,56,1,1,,,,,,,,,,,,,,,,,,,,,,,
,,,,,V3_084,18,Female,2024-11-21_16h16.38.778,jersey_experiment_5_v3,2023.2.2,Win32,85.47008547,,,,,,,,,,,,,,,,970.1439,971.4403,971.4403,971.9515,return,0.1065,,25.78125,,,,,,FBP-YG-19.png,0.35,1.2,11,0.5,,,,,,,,,,,,,,,,,,0,57,57,10,1,,,,,,,,,,,,,,,,,,,,,,,
,,,,,V3_084,18,Female,2024-11-21_16h16.38.778,jersey_experiment_5_v3,2023.2.2,Win32,85.47008547,,,,,,,,,,,,,,,,971.9517,973.2457,973.2458,973.8851,return,0.1415,,25.78125,,,,,,FBP-RB-71.png,0.35,1.2,46,0.5,,,,,,,,,,,,,,,,,,0,58,58,45,1,,,,,,,,,,,,,,,,,,,,,,,
,,,,,V3_084,18,Female,2024-11-21_16h16.38.778,jersey_experiment_5_v3,2023.2.2,Win32,85.47008547,,,,,,,,,,,,,,,,973.8852,975.4405,975.4405,976.3583,return,0.0729,,74.609375,,,,,,FBP-OG-81.png,0.43,1.2,39,0.75,,,,,,,,,,,,,,,,,,0,59,59,38,1,,,,,,,,,,,,,,,,,,,,,,,
,,,,,V3_084,18,Female,2024-11-21_16h16.38.778,jersey_experiment_5_v3,2023.2.2,Win32,85.47008547,,,,,,,,,,,,,,,,,,,,,,,,,,,,,,,,,,,,,,,,,,,,,,,,,,,,,,,,976.3583,982.0814,return,5.71,,,,,,,,,,,,,,,,,,,
,,,,,V3_084,18,Female,2024-11-21_16h16.38.778,jersey_experiment_5_v3,2023.2.2,Win32,85.47008547,,,,,,,,,,,,,,,,,,,,,,,,,,,,,,,,,,,,,,,,,,,,,,,,,,,,,,,,,,,,,982.0814,986.8815,1,3.9852,return,0.7924,,,,,,,,,,,,
,,,,,V3_084,18,Female,2024-11-21_16h16.38.778,jersey_experiment_5_v3,2023.2.2,Win32,85.47008547,,,,,,,,,,,,,,,,,,,,,,,,,,,,,,,,,,,,,,,,,,,,,,,,,,,,,,,,,,,,,,,,,,,,986.8816,1044.6524,"I felt I observed more husky players then slender, so I feel this could possibly be a study about body ideals.",right,52.4842,,,,,,
,,,,,V3_084,18,Female,2024-11-21_16h16.38.778,jersey_experiment_5_v3,2023.2.2,Win32,85.47008547,,,,,,,,,,,,,,,,,,,,,,,,,,,,,,,,,,,,,,,,,,,,,,,,,,,,,,,,,,,,,,,,,,,,,,,,,,1044.6525,1047.452,return,2.7854,