requirements.started,requirements.stopped,key_resp_3.keys,key_resp_3.rt,key_resp_3.duration,Subject ID,Age,Gender,date,expName,psychopyVersion,OS,frameRate,instructions1.started,instructions1.stopped,key_resp.keys,key_resp.rt,key_resp.duration,example.started,example.stopped,enter_2.keys,enter_2.rt,enter_2.duration,instructions2.started,instructions2.stopped,enter_3.keys,enter_3.rt,enter_3.duration,image.started,image.stopped,slider_2.started,slider_2.stopped,next.keys,next.rt,next.duration,slider.response,trial_block_1.thisRepN,trial_block_1.thisTrialN,trial_block_1.thisN,trial_block_1.thisIndex,trial_block_1.ran,Path,Width,Height,Index,Duration,trial_block_2.thisRepN,trial_block_2.thisTrialN,trial_block_2.thisN,trial_block_2.thisIndex,trial_block_2.ran,rest_break.started,rest_break.stopped,end_break.started,end_break.stopped,key_resp_5.keys,key_resp_5.rt,key_resp_5.duration,trial_block_3.thisRepN,trial_block_3.thisTrialN,trial_block_3.thisN,trial_block_3.thisIndex,trial_block_3.ran,trial_block_4.thisRepN,trial_block_4.thisTrialN,trial_block_4.thisN,trial_block_4.thisIndex,trial_block_4.ran,questions_intro.started,questions_intro.stopped,enter_12.keys,enter_12.rt,enter_12.duration,question2.started,question2.stopped,question_doingbest.response,question_doingbest.rt,enter_15.keys,enter_15.rt,enter_15.duration,pattern.started,pattern.stopped,pattern_2.text,enter_17.keys,enter_17.rt,enter_17.duration,thankyou.started,thankyou.stopped,enter_14.keys,enter_14.rt,enter_14.duration
0.0002,22.9881,return,22.9722,,V3_006,18,MALE,2024-10-13_19h28.51.866,jersey_experiment_5_v3,2023.2.2,Win32,59.88023952,,,,,,,,,,,,,,,,,,,,,,,,,,,,,,,,,,,,,,,,,,,,,,,,,,,,,,,,,,,,,,,,,,,,,,,,,,,,,,
,,,,,V3_006,18,MALE,2024-10-13_19h28.51.866,jersey_experiment_5_v3,2023.2.2,Win32,59.88023952,22.9882,38.5054,return,15.5086,,,,,,,,,,,,,,,,,,,,,,,,,,,,,,,,,,,,,,,,,,,,,,,,,,,,,,,,,,,,,,,,,,,,,,,,,,
,,,,,V3_006,18,MALE,2024-10-13_19h28.51.866,jersey_experiment_5_v3,2023.2.2,Win32,59.88023952,,,,,,38.5055,51.4056,return,12.8424,,,,,,,,,,,,,,,,,,,,,,,,,,,,,,,,,,,,,,,,,,,,,,,,,,,,,,,,,,,,,,,,,,,,,
,,,,,V3_006,18,MALE,2024-10-13_19h28.51.866,jersey_experiment_5_v3,2023.2.2,Win32,59.88023952,,,,,,,,,,,51.4057,69.322,return,17.9057,,,,,,,,,,,,,,,,,,,,,,,,,,,,,,,,,,,,,,,,,,,,,,,,,,,,,,,,,,,,,,,,
,,,,,V3_006,18,MALE,2024-10-13_19h28.51.866,jersey_experiment_5_v3,2023.2.2,Win32,59.88023952,,,,,,,,,,,,,,,,69.3402,70.8885,70.8887,86.788,return,8.4664,,77.84722222,0,0,0,54,1,FBP-RB-18.png,0.45,1.2,55,0.75,,,,,,,,,,,,,,,,,,,,,,,,,,,,,,,,,,,,,,,,,,,,,
,,,,,V3_006,18,MALE,2024-10-13_19h28.51.866,jersey_experiment_5_v3,2023.2.2,Win32,59.88023952,,,,,,,,,,,,,,,,86.7883,88.3388,88.3389,101.4715,return,7.2858,,37.84722222,0,1,1,21,1,FBP-PT-18.png,0.37,1.2,22,0.75,,,,,,,,,,,,,,,,,,,,,,,,,,,,,,,,,,,,,,,,,,,,,
,,,,,V3_006,18,MALE,2024-10-13_19h28.51.866,jersey_experiment_5_v3,2023.2.2,Win32,59.88023952,,,,,,,,,,,,,,,,101.4717,103.0215,103.0216,117.7884,return,11.5234,,50.34722222,0,2,2,51,1,FBP-RB-18.png,0.37,1.2,52,0.75,,,,,,,,,,,,,,,,,,,,,,,,,,,,,,,,,,,,,,,,,,,,,
,,,,,V3_006,18,MALE,2024-10-13_19h28.51.866,jersey_experiment_5_v3,2023.2.2,Win32,59.88023952,,,,,,,,,,,,,,,,117.7888,119.3388,119.3389,128.455,return,1.4928,,74.93055556,0,3,3,8,1,FBP-YG-81.png,0.43,1.2,9,0.75,,,,,,,,,,,,,,,,,,,,,,,,,,,,,,,,,,,,,,,,,,,,,
,,,,,V3_006,18,MALE,2024-10-13_19h28.51.866,jersey_experiment_5_v3,2023.2.2,Win32,59.88023952,,,,,,,,,,,,,,,,128.4553,130.0051,130.0052,137.6385,return,4.7505,,91.875,0,4,4,13,1,FBP-YG-91.png,0.43,1.2,14,0.75,,,,,,,,,,,,,,,,,,,,,,,,,,,,,,,,,,,,,,,,,,,,,
,,,,,V3_006,18,MALE,2024-10-13_19h28.51.866,jersey_experiment_5_v3,2023.2.2,Win32,59.88023952,,,,,,,,,,,,,,,,137.6485,139.1884,139.1884,152.456,return,6.5268,,100,0,5,5,59,1,FBP-RB-19.png,0.45,1.2,60,0.75,,,,,,,,,,,,,,,,,,,,,,,,,,,,,,,,,,,,,,,,,,,,,
,,,,,V3_006,18,MALE,2024-10-13_19h28.51.866,jersey_experiment_5_v3,2023.2.2,Win32,59.88023952,,,,,,,,,,,,,,,,152.4564,153.7552,153.7552,166.6057,return,2.7682,,88.19444444,0,6,6,34,1,FBP-OG-17.png,0.45,1.2,35,0.5,,,,,,,,,,,,,,,,,,,,,,,,,,,,,,,,,,,,,,,,,,,,,
,,,,,V3_006,18,MALE,2024-10-13_19h28.51.866,jersey_experiment_5_v3,2023.2.2,Win32,59.88023952,,,,,,,,,,,,,,,,166.6062,168.1552,168.1552,180.9888,return,11.9226,,25,0,7,7,16,1,FBP-PT-17.png,0.37,1.2,17,0.75,,,,,,,,,,,,,,,,,,,,,,,,,,,,,,,,,,,,,,,,,,,,,
,,,,,V3_006,18,MALE,2024-10-13_19h28.51.866,jersey_experiment_5_v3,2023.2.2,Win32,59.88023952,,,,,,,,,,,,,,,,180.9982,182.5395,182.5396,189.3552,return,3.3385,,50.13888889,0,8,8,17,1,FBP-PT-17.png,0.4,1.2,18,0.75,,,,,,,,,,,,,,,,,,,,,,,,,,,,,,,,,,,,,,,,,,,,,
,,,,,V3_006,18,MALE,2024-10-13_19h28.51.866,jersey_experiment_5_v3,2023.2.2,Win32,59.88023952,,,,,,,,,,,,,,,,189.3666,190.6557,190.6557,204.3058,return,0.1858,,1.458333333,0,9,9,30,1,FBP-OG-17.png,0.35,1.2,31,0.5,,,,,,,,,,,,,,,,,,,,,,,,,,,,,,,,,,,,,,,,,,,,,
,,,,,V3_006,18,MALE,2024-10-13_19h28.51.866,jersey_experiment_5_v3,2023.2.2,Win32,59.88023952,,,,,,,,,,,,,,,,204.3063,205.8559,205.856,212.6224,return,1.3367,,0.555555556,0,10,10,55,1,FBP-RB-19.png,0.35,1.2,56,0.75,,,,,,,,,,,,,,,,,,,,,,,,,,,,,,,,,,,,,,,,,,,,,
,,,,,V3_006,18,MALE,2024-10-13_19h28.51.866,jersey_experiment_5_v3,2023.2.2,Win32,59.88023952,,,,,,,,,,,,,,,,212.6228,214.1723,214.1724,223.5395,return,6.503,,87.22222222,0,11,11,9,1,FBP-YG-81.png,0.45,1.2,10,0.75,,,,,,,,,,,,,,,,,,,,,,,,,,,,,,,,,,,,,,,,,,,,,
,,,,,V3_006,18,MALE,2024-10-13_19h28.51.866,jersey_experiment_5_v3,2023.2.2,Win32,59.88023952,,,,,,,,,,,,,,,,223.54,224.8391,224.8391,232.3895,return,2.1816,,38.40277778,0,12,12,35,1,FBP-OG-18.png,0.35,1.2,36,0.5,,,,,,,,,,,,,,,,,,,,,,,,,,,,,,,,,,,,,,,,,,,,,
,,,,,V3_006,18,MALE,2024-10-13_19h28.51.866,jersey_experiment_5_v3,2023.2.2,Win32,59.88023952,,,,,,,,,,,,,,,,232.3898,233.9391,233.9393,248.706,return,1.851,,88.05555556,0,13,13,4,1,FBP-YG-71.png,0.45,1.2,5,0.75,,,,,,,,,,,,,,,,,,,,,,,,,,,,,,,,,,,,,,,,,,,,,
,,,,,V3_006,18,MALE,2024-10-13_19h28.51.866,jersey_experiment_5_v3,2023.2.2,Win32,59.88023952,,,,,,,,,,,,,,,,248.7064,250.2561,250.2562,256.4728,return,0.6264,,87.63888889,0,14,14,14,1,FBP-YG-91.png,0.45,1.2,15,0.75,,,,,,,,,,,,,,,,,,,,,,,,,,,,,,,,,,,,,,,,,,,,,
,,,,,V3_006,18,MALE,2024-10-13_19h28.51.866,jersey_experiment_5_v3,2023.2.2,Win32,59.88023952,,,,,,,,,,,,,,,,256.4732,257.7728,257.7729,264.3397,return,1.2531,,50,0,15,15,41,1,FBP-OG-19.png,0.37,1.2,42,0.5,,,,,,,,,,,,,,,,,,,,,,,,,,,,,,,,,,,,,,,,,,,,,
,,,,,V3_006,18,MALE,2024-10-13_19h28.51.866,jersey_experiment_5_v3,2023.2.2,Win32,59.88023952,,,,,,,,,,,,,,,,264.3403,265.8895,265.8896,273.356,return,4.4402,,25,0,16,16,50,1,FBP-RB-18.png,0.35,1.2,51,0.75,,,,,,,,,,,,,,,,,,,,,,,,,,,,,,,,,,,,,,,,,,,,,
,,,,,V3_006,18,MALE,2024-10-13_19h28.51.866,jersey_experiment_5_v3,2023.2.2,Win32,59.88023952,,,,,,,,,,,,,,,,273.364,274.9064,274.9065,281.0727,return,2.4024,,14.51388889,0,17,17,0,1,FBP-YG-71.png,0.35,1.2,1,0.75,,,,,,,,,,,,,,,,,,,,,,,,,,,,,,,,,,,,,,,,,,,,,
,,,,,V3_006,18,MALE,2024-10-13_19h28.51.866,jersey_experiment_5_v3,2023.2.2,Win32,59.88023952,,,,,,,,,,,,,,,,281.0729,282.623,282.6231,286.2067,return,1.5708,,49.86111111,0,18,18,26,1,FBP-PT-19.png,0.37,1.2,27,0.75,,,,,,,,,,,,,,,,,,,,,,,,,,,,,,,,,,,,,,,,,,,,,
,,,,,V3_006,18,MALE,2024-10-13_19h28.51.866,jersey_experiment_5_v3,2023.2.2,Win32,59.88023952,,,,,,,,,,,,,,,,286.2075,287.756,287.7561,294.7898,return,4.3829,,75.06944444,0,19,19,27,1,FBP-PT-19.png,0.4,1.2,28,0.75,,,,,,,,,,,,,,,,,,,,,,,,,,,,,,,,,,,,,,,,,,,,,
,,,,,V3_006,18,MALE,2024-10-13_19h28.51.866,jersey_experiment_5_v3,2023.2.2,Win32,59.88023952,,,,,,,,,,,,,,,,294.7902,296.3399,296.34,301.673,return,2.359,,82.98611111,0,20,20,23,1,FBP-PT-18.png,0.43,1.2,24,0.75,,,,,,,,,,,,,,,,,,,,,,,,,,,,,,,,,,,,,,,,,,,,,
,,,,,V3_006,18,MALE,2024-10-13_19h28.51.866,jersey_experiment_5_v3,2023.2.2,Win32,59.88023952,,,,,,,,,,,,,,,,301.6734,303.223,303.223,308.9563,return,3.6897,,25.06944444,0,21,21,5,1,FBP-YG-81.png,0.35,1.2,6,0.75,,,,,,,,,,,,,,,,,,,,,,,,,,,,,,,,,,,,,,,,,,,,,
,,,,,V3_006,18,MALE,2024-10-13_19h28.51.866,jersey_experiment_5_v3,2023.2.2,Win32,59.88023952,,,,,,,,,,,,,,,,308.9566,310.2566,310.2567,316.5732,return,2.838,,74.93055556,0,22,22,42,1,FBP-OG-19.png,0.4,1.2,43,0.5,,,,,,,,,,,,,,,,,,,,,,,,,,,,,,,,,,,,,,,,,,,,,
,,,,,V3_006,18,MALE,2024-10-13_19h28.51.866,jersey_experiment_5_v3,2023.2.2,Win32,59.88023952,,,,,,,,,,,,,,,,316.5737,318.1234,318.1235,326.6063,return,6.7372,,88.19444444,0,23,23,7,1,FBP-YG-81.png,0.4,1.2,8,0.75,,,,,,,,,,,,,,,,,,,,,,,,,,,,,,,,,,,,,,,,,,,,,
,,,,,V3_006,18,MALE,2024-10-13_19h28.51.866,jersey_experiment_5_v3,2023.2.2,Win32,59.88023952,,,,,,,,,,,,,,,,326.6067,328.1564,328.1564,335.2731,return,4.341,,75,0,24,24,47,1,FBP-RB-17.png,0.4,1.2,48,0.75,,,,,,,,,,,,,,,,,,,,,,,,,,,,,,,,,,,,,,,,,,,,,
,,,,,V3_006,18,MALE,2024-10-13_19h28.51.866,jersey_experiment_5_v3,2023.2.2,Win32,59.88023952,,,,,,,,,,,,,,,,335.2803,336.8232,336.8233,344.5735,return,2.9387,,25,0,25,25,25,1,FBP-PT-19.png,0.35,1.2,26,0.75,,,,,,,,,,,,,,,,,,,,,,,,,,,,,,,,,,,,,,,,,,,,,
,,,,,V3_006,18,MALE,2024-10-13_19h28.51.866,jersey_experiment_5_v3,2023.2.2,Win32,59.88023952,,,,,,,,,,,,,,,,344.574,346.1234,346.1235,353.6564,return,5.6928,,75,0,26,26,18,1,FBP-PT-17.png,0.43,1.2,19,0.75,,,,,,,,,,,,,,,,,,,,,,,,,,,,,,,,,,,,,,,,,,,,,
,,,,,V3_006,18,MALE,2024-10-13_19h28.51.866,jersey_experiment_5_v3,2023.2.2,Win32,59.88023952,,,,,,,,,,,,,,,,353.6647,355.2066,355.2066,362.94,return,6.1405,,50,0,27,27,46,1,FBP-RB-17.png,0.37,1.2,47,0.75,,,,,,,,,,,,,,,,,,,,,,,,,,,,,,,,,,,,,,,,,,,,,
,,,,,V3_006,18,MALE,2024-10-13_19h28.51.866,jersey_experiment_5_v3,2023.2.2,Win32,59.88023952,,,,,,,,,,,,,,,,362.9478,364.4904,364.4905,368.0904,return,0.692,,87.56944444,0,28,28,3,1,FBP-YG-71.png,0.43,1.2,4,0.75,,,,,,,,,,,,,,,,,,,,,,,,,,,,,,,,,,,,,,,,,,,,,
,,,,,V3_006,18,MALE,2024-10-13_19h28.51.866,jersey_experiment_5_v3,2023.2.2,Win32,59.88023952,,,,,,,,,,,,,,,,368.0909,369.3899,369.39,376.9401,return,2.456,,38.81944444,0,29,29,36,1,FBP-OG-18.png,0.37,1.2,37,0.5,,,,,,,,,,,,,,,,,,,,,,,,,,,,,,,,,,,,,,,,,,,,,
,,,,,V3_006,18,MALE,2024-10-13_19h28.51.866,jersey_experiment_5_v3,2023.2.2,Win32,59.88023952,,,,,,,,,,,,,,,,376.9405,378.4903,378.4903,383.5904,return,2.0531,,50,0,30,30,1,1,FBP-YG-71.png,0.37,1.2,2,0.75,,,,,,,,,,,,,,,,,,,,,,,,,,,,,,,,,,,,,,,,,,,,,
,,,,,V3_006,18,MALE,2024-10-13_19h28.51.866,jersey_experiment_5_v3,2023.2.2,Win32,59.88023952,,,,,,,,,,,,,,,,383.5909,385.1402,385.1402,392.4068,return,4.5603,,75,0,31,31,56,1,FBP-RB-19.png,0.37,1.2,57,0.75,,,,,,,,,,,,,,,,,,,,,,,,,,,,,,,,,,,,,,,,,,,,,
,,,,,V3_006,18,MALE,2024-10-13_19h28.51.866,jersey_experiment_5_v3,2023.2.2,Win32,59.88023952,,,,,,,,,,,,,,,,392.4142,393.9571,393.9571,398.2907,return,3.2839,,11.18055556,0,32,32,45,1,FBP-RB-17.png,0.35,1.2,46,0.75,,,,,,,,,,,,,,,,,,,,,,,,,,,,,,,,,,,,,,,,,,,,,
,,,,,V3_006,18,MALE,2024-10-13_19h28.51.866,jersey_experiment_5_v3,2023.2.2,Win32,59.88023952,,,,,,,,,,,,,,,,398.2914,399.5903,399.5904,403.8737,return,2.7173,,49.93055556,0,33,33,31,1,FBP-OG-17.png,0.37,1.2,32,0.5,,,,,,,,,,,,,,,,,,,,,,,,,,,,,,,,,,,,,,,,,,,,,
,,,,,V3_006,18,MALE,2024-10-13_19h28.51.866,jersey_experiment_5_v3,2023.2.2,Win32,59.88023952,,,,,,,,,,,,,,,,403.8741,405.4235,405.4236,407.7071,return,0.8567,,100,0,34,34,19,1,FBP-PT-17.png,0.45,1.2,20,0.75,,,,,,,,,,,,,,,,,,,,,,,,,,,,,,,,,,,,,,,,,,,,,
,,,,,V3_006,18,MALE,2024-10-13_19h28.51.866,jersey_experiment_5_v3,2023.2.2,Win32,59.88023952,,,,,,,,,,,,,,,,407.7074,409.0072,409.0074,416.007,return,5.5158,,100,0,35,35,38,1,FBP-OG-18.png,0.43,1.2,39,0.5,,,,,,,,,,,,,,,,,,,,,,,,,,,,,,,,,,,,,,,,,,,,,
,,,,,V3_006,18,MALE,2024-10-13_19h28.51.866,jersey_experiment_5_v3,2023.2.2,Win32,59.88023952,,,,,,,,,,,,,,,,416.0073,417.5571,417.5572,422.2908,return,2.5173,,100,0,36,36,24,1,FBP-PT-18.png,0.45,1.2,25,0.75,,,,,,,,,,,,,,,,,,,,,,,,,,,,,,,,,,,,,,,,,,,,,
,,,,,V3_006,18,MALE,2024-10-13_19h28.51.866,jersey_experiment_5_v3,2023.2.2,Win32,59.88023952,,,,,,,,,,,,,,,,422.2912,423.8405,423.8405,429.8406,return,4.9346,,100,0,37,37,49,1,FBP-RB-17.png,0.45,1.2,50,0.75,,,,,,,,,,,,,,,,,,,,,,,,,,,,,,,,,,,,,,,,,,,,,
,,,,,V3_006,18,MALE,2024-10-13_19h28.51.866,jersey_experiment_5_v3,2023.2.2,Win32,59.88023952,,,,,,,,,,,,,,,,429.8497,431.3904,431.3905,435.608,return,0.7281,,50,0,38,38,2,1,FBP-YG-71.png,0.4,1.2,3,0.75,,,,,,,,,,,,,,,,,,,,,,,,,,,,,,,,,,,,,,,,,,,,,
,,,,,V3_006,18,MALE,2024-10-13_19h28.51.866,jersey_experiment_5_v3,2023.2.2,Win32,59.88023952,,,,,,,,,,,,,,,,435.6085,437.157,437.1571,441.0907,return,0.5826,,50.06944444,0,39,39,57,1,FBP-RB-19.png,0.4,1.2,58,0.75,,,,,,,,,,,,,,,,,,,,,,,,,,,,,,,,,,,,,,,,,,,,,
,,,,,V3_006,18,MALE,2024-10-13_19h28.51.866,jersey_experiment_5_v3,2023.2.2,Win32,59.88023952,,,,,,,,,,,,,,,,441.0911,442.6408,442.6408,446.524,return,2.2902,,75,0,40,40,29,1,FBP-PT-19.png,0.45,1.2,30,0.75,,,,,,,,,,,,,,,,,,,,,,,,,,,,,,,,,,,,,,,,,,,,,
,,,,,V3_006,18,MALE,2024-10-13_19h28.51.866,jersey_experiment_5_v3,2023.2.2,Win32,59.88023952,,,,,,,,,,,,,,,,446.5244,447.8238,447.8239,452.857,return,4.1918,,74.86111111,0,41,41,43,1,FBP-OG-19.png,0.43,1.2,44,0.5,,,,,,,,,,,,,,,,,,,,,,,,,,,,,,,,,,,,,,,,,,,,,
,,,,,V3_006,18,MALE,2024-10-13_19h28.51.866,jersey_experiment_5_v3,2023.2.2,Win32,59.88023952,,,,,,,,,,,,,,,,452.8651,454.1574,454.1574,460.1239,return,1.0218,,50.06944444,0,42,42,32,1,FBP-OG-17.png,0.4,1.2,33,0.5,,,,,,,,,,,,,,,,,,,,,,,,,,,,,,,,,,,,,,,,,,,,,
,,,,,V3_006,18,MALE,2024-10-13_19h28.51.866,jersey_experiment_5_v3,2023.2.2,Win32,59.88023952,,,,,,,,,,,,,,,,460.1243,461.6742,461.6742,463.8574,return,0.7167,,50.13888889,0,43,43,12,1,FBP-YG-91.png,0.4,1.2,13,0.75,,,,,,,,,,,,,,,,,,,,,,,,,,,,,,,,,,,,,,,,,,,,,
,,,,,V3_006,18,MALE,2024-10-13_19h28.51.866,jersey_experiment_5_v3,2023.2.2,Win32,59.88023952,,,,,,,,,,,,,,,,463.8579,465.4073,465.4074,468.3576,return,0.8503,,75,0,44,44,53,1,FBP-RB-18.png,0.43,1.2,54,0.75,,,,,,,,,,,,,,,,,,,,,,,,,,,,,,,,,,,,,,,,,,,,,
,,,,,V3_006,18,MALE,2024-10-13_19h28.51.866,jersey_experiment_5_v3,2023.2.2,Win32,59.88023952,,,,,,,,,,,,,,,,468.3581,469.9074,469.9075,477.1908,return,4.9842,,50.41666667,0,45,45,6,1,FBP-YG-81.png,0.37,1.2,7,0.75,,,,,,,,,,,,,,,,,,,,,,,,,,,,,,,,,,,,,,,,,,,,,
,,,,,V3_006,18,MALE,2024-10-13_19h28.51.866,jersey_experiment_5_v3,2023.2.2,Win32,59.88023952,,,,,,,,,,,,,,,,477.1995,478.7408,478.7408,481.3578,return,1.1546,,49.93055556,0,46,46,52,1,FBP-RB-18.png,0.4,1.2,53,0.75,,,,,,,,,,,,,,,,,,,,,,,,,,,,,,,,,,,,,,,,,,,,,
,,,,,V3_006,18,MALE,2024-10-13_19h28.51.866,jersey_experiment_5_v3,2023.2.2,Win32,59.88023952,,,,,,,,,,,,,,,,481.3581,482.6575,482.6575,484.6077,return,0.351,,75.06944444,0,47,47,39,1,FBP-OG-18.png,0.45,1.2,40,0.5,,,,,,,,,,,,,,,,,,,,,,,,,,,,,,,,,,,,,,,,,,,,,
,,,,,V3_006,18,MALE,2024-10-13_19h28.51.866,jersey_experiment_5_v3,2023.2.2,Win32,59.88023952,,,,,,,,,,,,,,,,484.6082,486.1582,486.1582,487.9243,return,0.4511,,25.27777778,0,48,48,20,1,FBP-PT-18.png,0.35,1.2,21,0.75,,,,,,,,,,,,,,,,,,,,,,,,,,,,,,,,,,,,,,,,,,,,,
,,,,,V3_006,18,MALE,2024-10-13_19h28.51.866,jersey_experiment_5_v3,2023.2.2,Win32,59.88023952,,,,,,,,,,,,,,,,487.9247,489.4743,489.4744,491.7574,return,0.7223,,24.93055556,0,49,49,10,1,FBP-YG-91.png,0.35,1.2,11,0.75,,,,,,,,,,,,,,,,,,,,,,,,,,,,,,,,,,,,,,,,,,,,,
,,,,,V3_006,18,MALE,2024-10-13_19h28.51.866,jersey_experiment_5_v3,2023.2.2,Win32,59.88023952,,,,,,,,,,,,,,,,491.7578,493.3079,493.308,496.2744,return,1.0827,,24.93055556,0,50,50,11,1,FBP-YG-91.png,0.37,1.2,12,0.75,,,,,,,,,,,,,,,,,,,,,,,,,,,,,,,,,,,,,,,,,,,,,
,,,,,V3_006,18,MALE,2024-10-13_19h28.51.866,jersey_experiment_5_v3,2023.2.2,Win32,59.88023952,,,,,,,,,,,,,,,,496.275,497.5745,497.5746,501.1079,return,0.1848,,0.833333333,0,51,51,40,1,FBP-OG-19.png,0.35,1.2,41,0.5,,,,,,,,,,,,,,,,,,,,,,,,,,,,,,,,,,,,,,,,,,,,,
,,,,,V3_006,18,MALE,2024-10-13_19h28.51.866,jersey_experiment_5_v3,2023.2.2,Win32,59.88023952,,,,,,,,,,,,,,,,501.1082,502.4077,502.4078,504.9408,return,0.8084,,100,0,52,52,44,1,FBP-OG-19.png,0.45,1.2,45,0.5,,,,,,,,,,,,,,,,,,,,,,,,,,,,,,,,,,,,,,,,,,,,,
,,,,,V3_006,18,MALE,2024-10-13_19h28.51.866,jersey_experiment_5_v3,2023.2.2,Win32,59.88023952,,,,,,,,,,,,,,,,504.9412,506.491,506.491,509.4744,return,0.4339,,87.63888889,0,53,53,48,1,FBP-RB-17.png,0.43,1.2,49,0.75,,,,,,,,,,,,,,,,,,,,,,,,,,,,,,,,,,,,,,,,,,,,,
,,,,,V3_006,18,MALE,2024-10-13_19h28.51.866,jersey_experiment_5_v3,2023.2.2,Win32,59.88023952,,,,,,,,,,,,,,,,509.4749,511.0243,511.0245,514.9909,return,1.9185,,88.125,0,54,54,28,1,FBP-PT-19.png,0.43,1.2,29,0.75,,,,,,,,,,,,,,,,,,,,,,,,,,,,,,,,,,,,,,,,,,,,,
,,,,,V3_006,18,MALE,2024-10-13_19h28.51.866,jersey_experiment_5_v3,2023.2.2,Win32,59.88023952,,,,,,,,,,,,,,,,514.9912,516.5416,516.5417,518.8075,return,0.3918,,50,0,55,55,22,1,FBP-PT-18.png,0.4,1.2,23,0.75,,,,,,,,,,,,,,,,,,,,,,,,,,,,,,,,,,,,,,,,,,,,,
,,,,,V3_006,18,MALE,2024-10-13_19h28.51.866,jersey_experiment_5_v3,2023.2.2,Win32,59.88023952,,,,,,,,,,,,,,,,518.8078,520.358,520.358,523.2915,return,0.9239,,25.48611111,0,56,56,15,1,FBP-PT-17.png,0.35,1.2,16,0.75,,,,,,,,,,,,,,,,,,,,,,,,,,,,,,,,,,,,,,,,,,,,,
,,,,,V3_006,18,MALE,2024-10-13_19h28.51.866,jersey_experiment_5_v3,2023.2.2,Win32,59.88023952,,,,,,,,,,,,,,,,523.2919,524.5911,524.5912,527.9911,return,1.8836,,74.86111111,0,57,57,33,1,FBP-OG-17.png,0.43,1.2,34,0.5,,,,,,,,,,,,,,,,,,,,,,,,,,,,,,,,,,,,,,,,,,,,,
,,,,,V3_006,18,MALE,2024-10-13_19h28.51.866,jersey_experiment_5_v3,2023.2.2,Win32,59.88023952,,,,,,,,,,,,,,,,527.9915,529.2911,529.2911,530.8577,return,0.4587,,74.86111111,0,58,58,37,1,FBP-OG-18.png,0.4,1.2,38,0.5,,,,,,,,,,,,,,,,,,,,,,,,,,,,,,,,,,,,,,,,,,,,,
,,,,,V3_006,18,MALE,2024-10-13_19h28.51.866,jersey_experiment_5_v3,2023.2.2,Win32,59.88023952,,,,,,,,,,,,,,,,530.8581,532.4079,532.408,537.6245,return,2.2426,,81.66666667,0,59,59,58,1,FBP-RB-19.png,0.43,1.2,59,0.75,,,,,,,,,,,,,,,,,,,,,,,,,,,,,,,,,,,,,,,,,,,,,
,,,,,V3_006,18,MALE,2024-10-13_19h28.51.866,jersey_experiment_5_v3,2023.2.2,Win32,59.88023952,,,,,,,,,,,,,,,,537.6327,539.1747,539.1749,542.4582,return,0.5909,,87.91666667,,,,,,FBP-PT-71.png,0.45,1.2,20,0.75,0,0,0,19,1,,,,,,,,,,,,,,,,,,,,,,,,,,,,,,,,,,,,,,,,
,,,,,V3_006,18,MALE,2024-10-13_19h28.51.866,jersey_experiment_5_v3,2023.2.2,Win32,59.88023952,,,,,,,,,,,,,,,,542.4589,544.008,544.0081,549.2081,return,0.2764,,75.34722222,,,,,,FBP-YG-17.png,0.43,1.2,4,0.75,0,1,1,3,1,,,,,,,,,,,,,,,,,,,,,,,,,,,,,,,,,,,,,,,,
,,,,,V3_006,18,MALE,2024-10-13_19h28.51.866,jersey_experiment_5_v3,2023.2.2,Win32,59.88023952,,,,,,,,,,,,,,,,549.2085,550.5079,550.5081,554.3582,return,1.9837,,36.80555556,,,,,,FBP-OG-71.png,0.37,1.2,32,0.5,0,2,2,31,1,,,,,,,,,,,,,,,,,,,,,,,,,,,,,,,,,,,,,,,,
,,,,,V3_006,18,MALE,2024-10-13_19h28.51.866,jersey_experiment_5_v3,2023.2.2,Win32,59.88023952,,,,,,,,,,,,,,,,554.3586,555.9082,555.9083,559.258,return,0.8066,,32.70833333,,,,,,FBP-PT-81.png,0.4,1.2,23,0.75,0,3,3,22,1,,,,,,,,,,,,,,,,,,,,,,,,,,,,,,,,,,,,,,,,
,,,,,V3_006,18,MALE,2024-10-13_19h28.51.866,jersey_experiment_5_v3,2023.2.2,Win32,59.88023952,,,,,,,,,,,,,,,,559.2584,560.8082,560.8084,564.2919,return,0.1372,,62.98611111,,,,,,FBP-YG-18.png,0.43,1.2,9,0.75,0,4,4,8,1,,,,,,,,,,,,,,,,,,,,,,,,,,,,,,,,,,,,,,,,
,,,,,V3_006,18,MALE,2024-10-13_19h28.51.866,jersey_experiment_5_v3,2023.2.2,Win32,59.88023952,,,,,,,,,,,,,,,,564.2923,565.8414,565.8414,576.8582,return,9.0569,,68.40277778,,,,,,FBP-RB-81.png,0.43,1.2,54,0.75,0,5,5,53,1,,,,,,,,,,,,,,,,,,,,,,,,,,,,,,,,,,,,,,,,
,,,,,V3_006,18,MALE,2024-10-13_19h28.51.866,jersey_experiment_5_v3,2023.2.2,Win32,59.88023952,,,,,,,,,,,,,,,,576.8663,578.4081,578.4081,581.2581,return,0.5579,,37.56944444,,,,,,FBP-RB-71.png,0.37,1.2,47,0.75,0,6,6,46,1,,,,,,,,,,,,,,,,,,,,,,,,,,,,,,,,,,,,,,,,
,,,,,V3_006,18,MALE,2024-10-13_19h28.51.866,jersey_experiment_5_v3,2023.2.2,Win32,59.88023952,,,,,,,,,,,,,,,,581.2584,582.8085,582.8086,592.992,return,9.3192,,50,,,,,,FBP-YG-17.png,0.4,1.2,3,0.75,0,7,7,2,1,,,,,,,,,,,,,,,,,,,,,,,,,,,,,,,,,,,,,,,,
,,,,,V3_006,18,MALE,2024-10-13_19h28.51.866,jersey_experiment_5_v3,2023.2.2,Win32,59.88023952,,,,,,,,,,,,,,,,592.9924,594.5422,594.5423,596.4751,return,0.3393,,25.20833333,,,,,,FBP-RB-81.png,0.35,1.2,51,0.75,0,8,8,50,1,,,,,,,,,,,,,,,,,,,,,,,,,,,,,,,,,,,,,,,,
,,,,,V3_006,18,MALE,2024-10-13_19h28.51.866,jersey_experiment_5_v3,2023.2.2,Win32,59.88023952,,,,,,,,,,,,,,,,596.4756,598.0249,598.0249,599.4586,return,0.4676,,100,,,,,,FBP-PT-81.png,0.45,1.2,25,0.75,0,9,9,24,1,,,,,,,,,,,,,,,,,,,,,,,,,,,,,,,,,,,,,,,,
,,,,,V3_006,18,MALE,2024-10-13_19h28.51.866,jersey_experiment_5_v3,2023.2.2,Win32,59.88023952,,,,,,,,,,,,,,,,599.4591,601.0084,601.0084,603.4753,return,0.6996,,49.93055556,,,,,,FBP-RB-81.png,0.4,1.2,53,0.75,0,10,10,52,1,,,,,,,,,,,,,,,,,,,,,,,,,,,,,,,,,,,,,,,,
,,,,,V3_006,18,MALE,2024-10-13_19h28.51.866,jersey_experiment_5_v3,2023.2.2,Win32,59.88023952,,,,,,,,,,,,,,,,603.4757,605.0249,605.0249,607.0918,return,0.8673,,49.79166667,,,,,,FBP-YG-17.png,0.37,1.2,2,0.75,0,11,11,1,1,,,,,,,,,,,,,,,,,,,,,,,,,,,,,,,,,,,,,,,,
,,,,,V3_006,18,MALE,2024-10-13_19h28.51.866,jersey_experiment_5_v3,2023.2.2,Win32,59.88023952,,,,,,,,,,,,,,,,607.0922,608.3916,608.3918,612.3085,return,2.3378,,24.86111111,,,,,,FBP-OG-71.png,0.35,1.2,31,0.5,0,12,12,30,1,,,,,,,,,,,,,,,,,,,,,,,,,,,,,,,,,,,,,,,,
,,,,,V3_006,18,MALE,2024-10-13_19h28.51.866,jersey_experiment_5_v3,2023.2.2,Win32,59.88023952,,,,,,,,,,,,,,,,612.3089,613.8586,613.8588,616.4415,return,0.4103,,88.33333333,,,,,,FBP-YG-18.png,0.45,1.2,10,0.75,0,13,13,9,1,,,,,,,,,,,,,,,,,,,,,,,,,,,,,,,,,,,,,,,,
,,,,,V3_006,18,MALE,2024-10-13_19h28.51.866,jersey_experiment_5_v3,2023.2.2,Win32,59.88023952,,,,,,,,,,,,,,,,616.4417,617.7419,617.742,619.0919,return,0.5863,,100,,,,,,FBP-OG-81.png,0.45,1.2,40,0.5,0,14,14,39,1,,,,,,,,,,,,,,,,,,,,,,,,,,,,,,,,,,,,,,,,
,,,,,V3_006,18,MALE,2024-10-13_19h28.51.866,jersey_experiment_5_v3,2023.2.2,Win32,59.88023952,,,,,,,,,,,,,,,,619.0926,620.6419,620.642,623.8417,return,1.1834,,24.72222222,,,,,,FBP-RB-71.png,0.35,1.2,46,0.75,0,15,15,45,1,,,,,,,,,,,,,,,,,,,,,,,,,,,,,,,,,,,,,,,,
,,,,,V3_006,18,MALE,2024-10-13_19h28.51.866,jersey_experiment_5_v3,2023.2.2,Win32,59.88023952,,,,,,,,,,,,,,,,623.842,625.3919,625.392,627.942,return,0.1666,,24.86111111,,,,,,FBP-RB-91.png,0.35,1.2,56,0.75,0,16,16,55,1,,,,,,,,,,,,,,,,,,,,,,,,,,,,,,,,,,,,,,,,
,,,,,V3_006,18,MALE,2024-10-13_19h28.51.866,jersey_experiment_5_v3,2023.2.2,Win32,59.88023952,,,,,,,,,,,,,,,,627.9423,629.492,629.492,630.8921,return,0.656,,100,,,,,,FBP-PT-91.png,0.43,1.2,29,0.75,0,17,17,28,1,,,,,,,,,,,,,,,,,,,,,,,,,,,,,,,,,,,,,,,,
,,,,,V3_006,18,MALE,2024-10-13_19h28.51.866,jersey_experiment_5_v3,2023.2.2,Win32,59.88023952,,,,,,,,,,,,,,,,630.8926,632.1916,632.1916,635.075,return,0.4499,,25.06944444,,,,,,FBP-OG-81.png,0.37,1.2,37,0.5,0,18,18,36,1,,,,,,,,,,,,,,,,,,,,,,,,,,,,,,,,,,,,,,,,
,,,,,V3_006,18,MALE,2024-10-13_19h28.51.866,jersey_experiment_5_v3,2023.2.2,Win32,59.88023952,,,,,,,,,,,,,,,,635.0755,636.625,636.6251,638.9253,return,0.504,,12.84722222,,,,,,FBP-PT-91.png,0.35,1.2,26,0.75,0,19,19,25,1,,,,,,,,,,,,,,,,,,,,,,,,,,,,,,,,,,,,,,,,
,,,,,V3_006,18,MALE,2024-10-13_19h28.51.866,jersey_experiment_5_v3,2023.2.2,Win32,59.88023952,,,,,,,,,,,,,,,,638.9258,640.4754,640.4754,643.1755,return,1.8105,,100,,,,,,FBP-YG-19.png,0.45,1.2,15,0.75,0,20,20,14,1,,,,,,,,,,,,,,,,,,,,,,,,,,,,,,,,,,,,,,,,
,,,,,V3_006,18,MALE,2024-10-13_19h28.51.866,jersey_experiment_5_v3,2023.2.2,Win32,59.88023952,,,,,,,,,,,,,,,,643.1759,644.7256,644.7259,647.1251,return,1.1171,,99.72222222,,,,,,FBP-YG-17.png,0.45,1.2,5,0.75,0,21,21,4,1,,,,,,,,,,,,,,,,,,,,,,,,,,,,,,,,,,,,,,,,
,,,,,V3_006,18,MALE,2024-10-13_19h28.51.866,jersey_experiment_5_v3,2023.2.2,Win32,59.88023952,,,,,,,,,,,,,,,,647.1255,648.6751,648.6752,650.8588,return,0.4895,,74.86111111,,,,,,FBP-PT-81.png,0.43,1.2,24,0.75,0,22,22,23,1,,,,,,,,,,,,,,,,,,,,,,,,,,,,,,,,,,,,,,,,
,,,,,V3_006,18,MALE,2024-10-13_19h28.51.866,jersey_experiment_5_v3,2023.2.2,Win32,59.88023952,,,,,,,,,,,,,,,,650.8591,652.1587,652.1588,654.1084,return,0.5726,,75,,,,,,FBP-OG-81.png,0.4,1.2,38,0.5,0,23,23,37,1,,,,,,,,,,,,,,,,,,,,,,,,,,,,,,,,,,,,,,,,
,,,,,V3_006,18,MALE,2024-10-13_19h28.51.866,jersey_experiment_5_v3,2023.2.2,Win32,59.88023952,,,,,,,,,,,,,,,,654.1086,655.6587,655.6588,659.3086,return,0.6047,,62.63888889,,,,,,FBP-RB-71.png,0.43,1.2,49,0.75,0,24,24,48,1,,,,,,,,,,,,,,,,,,,,,,,,,,,,,,,,,,,,,,,,
,,,,,V3_006,18,MALE,2024-10-13_19h28.51.866,jersey_experiment_5_v3,2023.2.2,Win32,59.88023952,,,,,,,,,,,,,,,,659.3089,660.6091,660.6092,664.6923,return,0.1858,,13.05555556,,,,,,FBP-OG-91.png,0.35,1.2,41,0.5,0,25,25,40,1,,,,,,,,,,,,,,,,,,,,,,,,,,,,,,,,,,,,,,,,
,,,,,V3_006,18,MALE,2024-10-13_19h28.51.866,jersey_experiment_5_v3,2023.2.2,Win32,59.88023952,,,,,,,,,,,,,,,,664.6927,665.9918,665.9919,668.3588,return,0.5501,,75,,,,,,FBP-OG-71.png,0.45,1.2,35,0.5,0,26,26,34,1,,,,,,,,,,,,,,,,,,,,,,,,,,,,,,,,,,,,,,,,
,,,,,V3_006,18,MALE,2024-10-13_19h28.51.866,jersey_experiment_5_v3,2023.2.2,Win32,59.88023952,,,,,,,,,,,,,,,,668.3592,669.9086,669.9086,673.042,return,0.233,,49.65277778,,,,,,FBP-PT-81.png,0.37,1.2,22,0.75,0,27,27,21,1,,,,,,,,,,,,,,,,,,,,,,,,,,,,,,,,,,,,,,,,
,,,,,V3_006,18,MALE,2024-10-13_19h28.51.866,jersey_experiment_5_v3,2023.2.2,Win32,59.88023952,,,,,,,,,,,,,,,,673.0426,674.5923,674.5923,676.3588,return,0.3347,,24.86111111,,,,,,FBP-YG-18.png,0.35,1.2,6,0.75,0,28,28,5,1,,,,,,,,,,,,,,,,,,,,,,,,,,,,,,,,,,,,,,,,
,,,,,V3_006,18,MALE,2024-10-13_19h28.51.866,jersey_experiment_5_v3,2023.2.2,Win32,59.88023952,,,,,,,,,,,,,,,,676.3592,677.9087,677.9089,679.8923,return,1.0834,,25.06944444,,,,,,FBP-YG-17.png,0.35,1.2,1,0.75,0,29,29,0,1,,,,,,,,,,,,,,,,,,,,,,,,,,,,,,,,,,,,,,,,
,,,,,V3_006,18,MALE,2024-10-13_19h28.51.866,jersey_experiment_5_v3,2023.2.2,Win32,59.88023952,,,,,,,,,,,,,,,,679.8929,681.442,681.4421,683.909,return,0.6504,,75.20833333,,,,,,FBP-YG-19.png,0.43,1.2,14,0.75,0,30,30,13,1,,,,,,,,,,,,,,,,,,,,,,,,,,,,,,,,,,,,,,,,
,,,,,V3_006,18,MALE,2024-10-13_19h28.51.866,jersey_experiment_5_v3,2023.2.2,Win32,59.88023952,,,,,,,,,,,,,,,,683.9095,685.2086,685.2087,687.9757,return,0.5603,,49.93055556,,,,,,FBP-OG-91.png,0.4,1.2,43,0.5,0,31,31,42,1,,,,,,,,,,,,,,,,,,,,,,,,,,,,,,,,,,,,,,,,
,,,,,V3_006,18,MALE,2024-10-13_19h28.51.866,jersey_experiment_5_v3,2023.2.2,Win32,59.88023952,,,,,,,,,,,,,,,,687.976,689.5254,689.5255,692.4922,return,1.7727,,49.93055556,,,,,,FBP-YG-19.png,0.37,1.2,12,0.75,0,32,32,11,1,,,,,,,,,,,,,,,,,,,,,,,,,,,,,,,,,,,,,,,,
,,,,,V3_006,18,MALE,2024-10-13_19h28.51.866,jersey_experiment_5_v3,2023.2.2,Win32,59.88023952,,,,,,,,,,,,,,,,692.4925,694.0428,694.0429,696.3421,return,1.4176,,49.93055556,,,,,,FBP-YG-18.png,0.4,1.2,8,0.75,0,33,33,7,1,,,,,,,,,,,,,,,,,,,,,,,,,,,,,,,,,,,,,,,,
,,,,,V3_006,18,MALE,2024-10-13_19h28.51.866,jersey_experiment_5_v3,2023.2.2,Win32,59.88023952,,,,,,,,,,,,,,,,696.3426,697.8922,697.8923,701.3587,return,0.1201,,55.625,,,,,,FBP-PT-91.png,0.4,1.2,28,0.75,0,34,34,27,1,,,,,,,,,,,,,,,,,,,,,,,,,,,,,,,,,,,,,,,,
,,,,,V3_006,18,MALE,2024-10-13_19h28.51.866,jersey_experiment_5_v3,2023.2.2,Win32,59.88023952,,,,,,,,,,,,,,,,701.3591,702.9089,702.9089,705.1924,return,0.8441,,49.93055556,,,,,,FBP-PT-91.png,0.37,1.2,27,0.75,0,35,35,26,1,,,,,,,,,,,,,,,,,,,,,,,,,,,,,,,,,,,,,,,,
,,,,,V3_006,18,MALE,2024-10-13_19h28.51.866,jersey_experiment_5_v3,2023.2.2,Win32,59.88023952,,,,,,,,,,,,,,,,705.1929,706.4923,706.4923,710.6598,return,2.1684,,50.13888889,,,,,,FBP-OG-71.png,0.4,1.2,33,0.5,0,36,36,32,1,,,,,,,,,,,,,,,,,,,,,,,,,,,,,,,,,,,,,,,,
,,,,,V3_006,18,MALE,2024-10-13_19h28.51.866,jersey_experiment_5_v3,2023.2.2,Win32,59.88023952,,,,,,,,,,,,,,,,710.6604,711.9588,711.9589,717.2922,return,4.1064,,75.06944444,,,,,,FBP-OG-91.png,0.45,1.2,45,0.5,0,37,37,44,1,,,,,,,,,,,,,,,,,,,,,,,,,,,,,,,,,,,,,,,,
,,,,,V3_006,18,MALE,2024-10-13_19h28.51.866,jersey_experiment_5_v3,2023.2.2,Win32,59.88023952,,,,,,,,,,,,,,,,717.2926,718.8425,718.8426,723.6756,return,2.2063,,75,,,,,,FBP-PT-91.png,0.45,1.2,30,0.75,0,38,38,29,1,,,,,,,,,,,,,,,,,,,,,,,,,,,,,,,,,,,,,,,,
,,,,,V3_006,18,MALE,2024-10-13_19h28.51.866,jersey_experiment_5_v3,2023.2.2,Win32,59.88023952,,,,,,,,,,,,,,,,723.6758,725.2259,725.2261,729.1089,return,2.55,,49.86111111,,,,,,FBP-RB-71.png,0.4,1.2,48,0.75,0,39,39,47,1,,,,,,,,,,,,,,,,,,,,,,,,,,,,,,,,,,,,,,,,
,,,,,V3_006,18,MALE,2024-10-13_19h28.51.866,jersey_experiment_5_v3,2023.2.2,Win32,59.88023952,,,,,,,,,,,,,,,,729.1092,730.6591,730.6592,733.1759,return,0.3101,,88.125,,,,,,FBP-RB-71.png,0.45,1.2,50,0.75,0,40,40,49,1,,,,,,,,,,,,,,,,,,,,,,,,,,,,,,,,,,,,,,,,
,,,,,V3_006,18,MALE,2024-10-13_19h28.51.866,jersey_experiment_5_v3,2023.2.2,Win32,59.88023952,,,,,,,,,,,,,,,,733.1763,734.7259,734.726,736.2432,return,0.2177,,50.06944444,,,,,,FBP-RB-91.png,0.4,1.2,58,0.75,0,41,41,57,1,,,,,,,,,,,,,,,,,,,,,,,,,,,,,,,,,,,,,,,,
,,,,,V3_006,18,MALE,2024-10-13_19h28.51.866,jersey_experiment_5_v3,2023.2.2,Win32,59.88023952,,,,,,,,,,,,,,,,736.2436,737.7925,737.7926,739.4095,return,0.4526,,74.86111111,,,,,,FBP-RB-91.png,0.45,1.2,60,0.75,0,42,42,59,1,,,,,,,,,,,,,,,,,,,,,,,,,,,,,,,,,,,,,,,,
,,,,,V3_006,18,MALE,2024-10-13_19h28.51.866,jersey_experiment_5_v3,2023.2.2,Win32,59.88023952,,,,,,,,,,,,,,,,739.41,740.709,740.709,743.1925,return,1.4916,,75.13888889,,,,,,FBP-OG-81.png,0.43,1.2,39,0.5,0,43,43,38,1,,,,,,,,,,,,,,,,,,,,,,,,,,,,,,,,,,,,,,,,
,,,,,V3_006,18,MALE,2024-10-13_19h28.51.866,jersey_experiment_5_v3,2023.2.2,Win32,59.88023952,,,,,,,,,,,,,,,,743.1928,744.4928,744.4929,749.3091,return,3.459,,25.06944444,,,,,,FBP-OG-81.png,0.35,1.2,36,0.5,0,44,44,35,1,,,,,,,,,,,,,,,,,,,,,,,,,,,,,,,,,,,,,,,,
,,,,,V3_006,18,MALE,2024-10-13_19h28.51.866,jersey_experiment_5_v3,2023.2.2,Win32,59.88023952,,,,,,,,,,,,,,,,749.3194,750.8592,750.8593,753.8927,return,1.9028,,74.93055556,,,,,,FBP-RB-81.png,0.45,1.2,55,0.75,0,45,45,54,1,,,,,,,,,,,,,,,,,,,,,,,,,,,,,,,,,,,,,,,,
,,,,,V3_006,18,MALE,2024-10-13_19h28.51.866,jersey_experiment_5_v3,2023.2.2,Win32,59.88023952,,,,,,,,,,,,,,,,753.8931,755.4433,755.4433,757.0927,return,1.0328,,25.06944444,,,,,,FBP-PT-71.png,0.37,1.2,17,0.75,0,46,46,16,1,,,,,,,,,,,,,,,,,,,,,,,,,,,,,,,,,,,,,,,,
,,,,,V3_006,18,MALE,2024-10-13_19h28.51.866,jersey_experiment_5_v3,2023.2.2,Win32,59.88023952,,,,,,,,,,,,,,,,757.0931,758.3925,758.3926,760.8759,return,1.3558,,75.27777778,,,,,,FBP-OG-91.png,0.43,1.2,44,0.5,0,47,47,43,1,,,,,,,,,,,,,,,,,,,,,,,,,,,,,,,,,,,,,,,,
,,,,,V3_006,18,MALE,2024-10-13_19h28.51.866,jersey_experiment_5_v3,2023.2.2,Win32,59.88023952,,,,,,,,,,,,,,,,760.8762,762.1763,762.1763,765.8431,return,1.4486,,75,,,,,,FBP-OG-71.png,0.43,1.2,34,0.5,0,48,48,33,1,,,,,,,,,,,,,,,,,,,,,,,,,,,,,,,,,,,,,,,,
,,,,,V3_006,18,MALE,2024-10-13_19h28.51.866,jersey_experiment_5_v3,2023.2.2,Win32,59.88023952,,,,,,,,,,,,,,,,765.8436,767.3927,767.3927,773.3929,return,1.2839,,25.34722222,,,,,,FBP-PT-71.png,0.35,1.2,16,0.75,0,49,49,15,1,,,,,,,,,,,,,,,,,,,,,,,,,,,,,,,,,,,,,,,,
,,,,,V3_006,18,MALE,2024-10-13_19h28.51.866,jersey_experiment_5_v3,2023.2.2,Win32,59.88023952,,,,,,,,,,,,,,,,773.3932,774.9432,774.9433,777.276,return,1.4532,,25.20833333,,,,,,FBP-YG-19.png,0.35,1.2,11,0.75,0,50,50,10,1,,,,,,,,,,,,,,,,,,,,,,,,,,,,,,,,,,,,,,,,
,,,,,V3_006,18,MALE,2024-10-13_19h28.51.866,jersey_experiment_5_v3,2023.2.2,Win32,59.88023952,,,,,,,,,,,,,,,,777.2763,778.576,778.5761,780.5431,return,0.2195,,50,,,,,,FBP-OG-91.png,0.37,1.2,42,0.5,0,51,51,41,1,,,,,,,,,,,,,,,,,,,,,,,,,,,,,,,,,,,,,,,,
,,,,,V3_006,18,MALE,2024-10-13_19h28.51.866,jersey_experiment_5_v3,2023.2.2,Win32,59.88023952,,,,,,,,,,,,,,,,780.5435,782.0928,782.0929,783.3594,return,0.2032,,50.20833333,,,,,,FBP-PT-71.png,0.4,1.2,18,0.75,0,52,52,17,1,,,,,,,,,,,,,,,,,,,,,,,,,,,,,,,,,,,,,,,,
,,,,,V3_006,18,MALE,2024-10-13_19h28.51.866,jersey_experiment_5_v3,2023.2.2,Win32,59.88023952,,,,,,,,,,,,,,,,783.3597,784.9095,784.9095,786.5767,return,1.3032,,50.20833333,,,,,,FBP-RB-81.png,0.37,1.2,52,0.75,0,53,53,51,1,,,,,,,,,,,,,,,,,,,,,,,,,,,,,,,,,,,,,,,,
,,,,,V3_006,18,MALE,2024-10-13_19h28.51.866,jersey_experiment_5_v3,2023.2.2,Win32,59.88023952,,,,,,,,,,,,,,,,786.5772,788.1268,788.1269,789.9594,return,1.3937,,75,,,,,,FBP-RB-91.png,0.43,1.2,59,0.75,0,54,54,58,1,,,,,,,,,,,,,,,,,,,,,,,,,,,,,,,,,,,,,,,,
,,,,,V3_006,18,MALE,2024-10-13_19h28.51.866,jersey_experiment_5_v3,2023.2.2,Win32,59.88023952,,,,,,,,,,,,,,,,789.9595,791.5095,791.5095,793.7766,return,0.9862,,24.93055556,,,,,,FBP-PT-81.png,0.35,1.2,21,0.75,0,55,55,20,1,,,,,,,,,,,,,,,,,,,,,,,,,,,,,,,,,,,,,,,,
,,,,,V3_006,18,MALE,2024-10-13_19h28.51.866,jersey_experiment_5_v3,2023.2.2,Win32,59.88023952,,,,,,,,,,,,,,,,793.7771,795.3265,795.3265,797.7594,return,1.435,,49.93055556,,,,,,FBP-RB-91.png,0.37,1.2,57,0.75,0,56,56,56,1,,,,,,,,,,,,,,,,,,,,,,,,,,,,,,,,,,,,,,,,
,,,,,V3_006,18,MALE,2024-10-13_19h28.51.866,jersey_experiment_5_v3,2023.2.2,Win32,59.88023952,,,,,,,,,,,,,,,,797.7597,799.3095,799.3096,801.0595,return,0.6347,,100,,,,,,FBP-PT-71.png,0.43,1.2,19,0.75,0,57,57,18,1,,,,,,,,,,,,,,,,,,,,,,,,,,,,,,,,,,,,,,,,
,,,,,V3_006,18,MALE,2024-10-13_19h28.51.866,jersey_experiment_5_v3,2023.2.2,Win32,59.88023952,,,,,,,,,,,,,,,,801.0598,802.6101,802.6101,804.3763,return,0.4095,,74.93055556,,,,,,FBP-YG-19.png,0.4,1.2,13,0.75,0,58,58,12,1,,,,,,,,,,,,,,,,,,,,,,,,,,,,,,,,,,,,,,,,
,,,,,V3_006,18,MALE,2024-10-13_19h28.51.866,jersey_experiment_5_v3,2023.2.2,Win32,59.88023952,,,,,,,,,,,,,,,,804.3768,805.927,805.9271,809.0931,return,1.4012,,50,,,,,,FBP-YG-18.png,0.37,1.2,7,0.75,0,59,59,6,1,,,,,,,,,,,,,,,,,,,,,,,,,,,,,,,,,,,,,,,,
,,,,,V3_006,18,MALE,2024-10-13_19h28.51.866,jersey_experiment_5_v3,2023.2.2,Win32,59.88023952,,,,,,,,,,,,,,,,,,,,,,,,,,,,,,,,,,,,,,,809.0938,929.0944,,,,,,,,,,,,,,,,,,,,,,,,,,,,,,,,,,,,,,
,,,,,V3_006,18,MALE,2024-10-13_19h28.51.866,jersey_experiment_5_v3,2023.2.2,Win32,59.88023952,,,,,,,,,,,,,,,,,,,,,,,,,,,,,,,,,,,,,,,,,929.0944,1002.3616,return,73.2574,,,,,,,,,,,,,,,,,,,,,,,,,,,,,,,,,,
,,,,,V3_006,18,MALE,2024-10-13_19h28.51.866,jersey_experiment_5_v3,2023.2.2,Win32,59.88023952,,,,,,,,,,,,,,,,1002.3791,1003.6779,1003.6781,1006.5277,return,0.2847,,25.06944444,,,,,,FBP-RB-18.png,0.35,1.2,51,0.5,,,,,,,,,,,,,0,0,0,50,1,,,,,,,,,,,,,,,,,,,,,,,,,,,,
,,,,,V3_006,18,MALE,2024-10-13_19h28.51.866,jersey_experiment_5_v3,2023.2.2,Win32,59.88023952,,,,,,,,,,,,,,,,1006.5282,1007.8276,1007.8277,1009.178,return,0.129,,74.86111111,,,,,,FBP-YG-71.png,0.43,1.2,4,0.5,,,,,,,,,,,,,0,1,1,3,1,,,,,,,,,,,,,,,,,,,,,,,,,,,,
,,,,,V3_006,18,MALE,2024-10-13_19h28.51.866,jersey_experiment_5_v3,2023.2.2,Win32,59.88023952,,,,,,,,,,,,,,,,1009.1785,1010.7278,1010.7279,1012.3441,return,0.209,,50.06944444,,,,,,FBP-OG-17.png,0.35,1.2,31,0.75,,,,,,,,,,,,,0,2,2,30,1,,,,,,,,,,,,,,,,,,,,,,,,,,,,
,,,,,V3_006,18,MALE,2024-10-13_19h28.51.866,jersey_experiment_5_v3,2023.2.2,Win32,59.88023952,,,,,,,,,,,,,,,,1012.3443,1013.6441,1013.6443,1014.2113,return,0.1176,,50.06944444,,,,,,FBP-YG-71.png,0.35,1.2,1,0.5,,,,,,,,,,,,,0,3,3,0,1,,,,,,,,,,,,,,,,,,,,,,,,,,,,
,,,,,V3_006,18,MALE,2024-10-13_19h28.51.866,jersey_experiment_5_v3,2023.2.2,Win32,59.88023952,,,,,,,,,,,,,,,,1014.2118,1015.5108,1015.511,1017.0113,return,0.3842,,100,,,,,,FBP-RB-19.png,0.45,1.2,60,0.5,,,,,,,,,,,,,0,4,4,59,1,,,,,,,,,,,,,,,,,,,,,,,,,,,,
,,,,,V3_006,18,MALE,2024-10-13_19h28.51.866,jersey_experiment_5_v3,2023.2.2,Win32,59.88023952,,,,,,,,,,,,,,,,1017.0119,1018.311,1018.3112,1019.9942,return,0.2234,,74.93055556,,,,,,FBP-RB-19.png,0.43,1.2,59,0.5,,,,,,,,,,,,,0,5,5,58,1,,,,,,,,,,,,,,,,,,,,,,,,,,,,
,,,,,V3_006,18,MALE,2024-10-13_19h28.51.866,jersey_experiment_5_v3,2023.2.2,Win32,59.88023952,,,,,,,,,,,,,,,,1019.9944,1021.5445,1021.5446,1022.9781,return,1.0346,,74.93055556,,,,,,FBP-OG-19.png,0.45,1.2,45,0.75,,,,,,,,,,,,,0,6,6,44,1,,,,,,,,,,,,,,,,,,,,,,,,,,,,
,,,,,V3_006,18,MALE,2024-10-13_19h28.51.866,jersey_experiment_5_v3,2023.2.2,Win32,59.88023952,,,,,,,,,,,,,,,,1022.9786,1024.2775,1024.2776,1026.4942,return,0.3387,,24.93055556,,,,,,FBP-PT-17.png,0.35,1.2,16,0.5,,,,,,,,,,,,,0,7,7,15,1,,,,,,,,,,,,,,,,,,,,,,,,,,,,
,,,,,V3_006,18,MALE,2024-10-13_19h28.51.866,jersey_experiment_5_v3,2023.2.2,Win32,59.88023952,,,,,,,,,,,,,,,,1026.4946,1027.7945,1027.7945,1029.911,return,0.9101,,50.13888889,,,,,,FBP-YG-91.png,0.37,1.2,12,0.5,,,,,,,,,,,,,0,8,8,11,1,,,,,,,,,,,,,,,,,,,,,,,,,,,,
,,,,,V3_006,18,MALE,2024-10-13_19h28.51.866,jersey_experiment_5_v3,2023.2.2,Win32,59.88023952,,,,,,,,,,,,,,,,1029.9111,1031.2113,1031.2114,1033.4114,return,0.9171,,50.13888889,,,,,,FBP-RB-18.png,0.37,1.2,52,0.5,,,,,,,,,,,,,0,9,9,51,1,,,,,,,,,,,,,,,,,,,,,,,,,,,,
,,,,,V3_006,18,MALE,2024-10-13_19h28.51.866,jersey_experiment_5_v3,2023.2.2,Win32,59.88023952,,,,,,,,,,,,,,,,1033.4117,1034.7109,1034.711,1037.5278,return,1.0422,,75.13888889,,,,,,FBP-RB-18.png,0.43,1.2,54,0.5,,,,,,,,,,,,,0,10,10,53,1,,,,,,,,,,,,,,,,,,,,,,,,,,,,
,,,,,V3_006,18,MALE,2024-10-13_19h28.51.866,jersey_experiment_5_v3,2023.2.2,Win32,59.88023952,,,,,,,,,,,,,,,,1037.5281,1038.8276,1038.8277,1041.4281,return,0.3834,,24.65277778,,,,,,FBP-RB-19.png,0.35,1.2,56,0.5,,,,,,,,,,,,,0,11,11,55,1,,,,,,,,,,,,,,,,,,,,,,,,,,,,
,,,,,V3_006,18,MALE,2024-10-13_19h28.51.866,jersey_experiment_5_v3,2023.2.2,Win32,59.88023952,,,,,,,,,,,,,,,,1041.4284,1042.7277,1042.7277,1046.8445,return,1.7381,,75,,,,,,FBP-RB-18.png,0.45,1.2,55,0.5,,,,,,,,,,,,,0,12,12,54,1,,,,,,,,,,,,,,,,,,,,,,,,,,,,
,,,,,V3_006,18,MALE,2024-10-13_19h28.51.866,jersey_experiment_5_v3,2023.2.2,Win32,59.88023952,,,,,,,,,,,,,,,,1046.8449,1048.1448,1048.1448,1050.6943,return,0.3938,,50,,,,,,FBP-YG-81.png,0.35,1.2,6,0.5,,,,,,,,,,,,,0,13,13,5,1,,,,,,,,,,,,,,,,,,,,,,,,,,,,
,,,,,V3_006,18,MALE,2024-10-13_19h28.51.866,jersey_experiment_5_v3,2023.2.2,Win32,59.88023952,,,,,,,,,,,,,,,,1050.6946,1051.9943,1051.9943,1054.6445,return,0.2507,,25.13888889,,,,,,FBP-RB-17.png,0.35,1.2,46,0.5,,,,,,,,,,,,,0,14,14,45,1,,,,,,,,,,,,,,,,,,,,,,,,,,,,
,,,,,V3_006,18,MALE,2024-10-13_19h28.51.866,jersey_experiment_5_v3,2023.2.2,Win32,59.88023952,,,,,,,,,,,,,,,,1054.645,1055.9447,1055.9447,1057.4279,return,0.2337,,99.86111111,,,,,,FBP-PT-17.png,0.45,1.2,20,0.5,,,,,,,,,,,,,0,15,15,19,1,,,,,,,,,,,,,,,,,,,,,,,,,,,,
,,,,,V3_006,18,MALE,2024-10-13_19h28.51.866,jersey_experiment_5_v3,2023.2.2,Win32,59.88023952,,,,,,,,,,,,,,,,1057.4282,1058.728,1058.7281,1059.7447,return,0.5358,,100,,,,,,FBP-YG-91.png,0.45,1.2,15,0.5,,,,,,,,,,,,,0,16,16,14,1,,,,,,,,,,,,,,,,,,,,,,,,,,,,
,,,,,V3_006,18,MALE,2024-10-13_19h28.51.866,jersey_experiment_5_v3,2023.2.2,Win32,59.88023952,,,,,,,,,,,,,,,,1059.7451,1061.0445,1061.0446,1062.711,return,0.2772,,74.93055556,,,,,,FBP-PT-19.png,0.43,1.2,29,0.5,,,,,,,,,,,,,0,17,17,28,1,,,,,,,,,,,,,,,,,,,,,,,,,,,,
,,,,,V3_006,18,MALE,2024-10-13_19h28.51.866,jersey_experiment_5_v3,2023.2.2,Win32,59.88023952,,,,,,,,,,,,,,,,1062.7112,1064.2612,1064.2612,1065.4946,return,0.2624,,24.58333333,,,,,,FBP-OG-19.png,0.35,1.2,41,0.75,,,,,,,,,,,,,0,18,18,40,1,,,,,,,,,,,,,,,,,,,,,,,,,,,,
,,,,,V3_006,18,MALE,2024-10-13_19h28.51.866,jersey_experiment_5_v3,2023.2.2,Win32,59.88023952,,,,,,,,,,,,,,,,1065.4948,1066.7945,1066.7945,1068.0947,return,0.2189,,50,,,,,,FBP-RB-17.png,0.4,1.2,48,0.5,,,,,,,,,,,,,0,19,19,47,1,,,,,,,,,,,,,,,,,,,,,,,,,,,,
,,,,,V3_006,18,MALE,2024-10-13_19h28.51.866,jersey_experiment_5_v3,2023.2.2,Win32,59.88023952,,,,,,,,,,,,,,,,1068.0952,1069.3947,1069.3947,1070.745,return,0.9428,,50,,,,,,FBP-YG-71.png,0.4,1.2,3,0.5,,,,,,,,,,,,,0,20,20,2,1,,,,,,,,,,,,,,,,,,,,,,,,,,,,
,,,,,V3_006,18,MALE,2024-10-13_19h28.51.866,jersey_experiment_5_v3,2023.2.2,Win32,59.88023952,,,,,,,,,,,,,,,,1070.7455,1072.0449,1072.045,1074.2279,return,0.1988,,37.91666667,,,,,,FBP-RB-17.png,0.37,1.2,47,0.5,,,,,,,,,,,,,0,21,21,46,1,,,,,,,,,,,,,,,,,,,,,,,,,,,,
,,,,,V3_006,18,MALE,2024-10-13_19h28.51.866,jersey_experiment_5_v3,2023.2.2,Win32,59.88023952,,,,,,,,,,,,,,,,1074.2281,1075.528,1075.528,1077.2781,return,0.1534,,58.33333333,,,,,,FBP-PT-17.png,0.4,1.2,18,0.5,,,,,,,,,,,,,0,22,22,17,1,,,,,,,,,,,,,,,,,,,,,,,,,,,,
,,,,,V3_006,18,MALE,2024-10-13_19h28.51.866,jersey_experiment_5_v3,2023.2.2,Win32,59.88023952,,,,,,,,,,,,,,,,1077.2784,1078.5782,1078.5783,1081.6117,return,1.323,,88.05555556,,,,,,FBP-RB-17.png,0.45,1.2,50,0.5,,,,,,,,,,,,,0,23,23,49,1,,,,,,,,,,,,,,,,,,,,,,,,,,,,
,,,,,V3_006,18,MALE,2024-10-13_19h28.51.866,jersey_experiment_5_v3,2023.2.2,Win32,59.88023952,,,,,,,,,,,,,,,,1081.6121,1083.1613,1083.1615,1086.4782,return,2.201,,58.95833333,,,,,,FBP-OG-17.png,0.4,1.2,33,0.75,,,,,,,,,,,,,0,24,24,32,1,,,,,,,,,,,,,,,,,,,,,,,,,,,,
,,,,,V3_006,18,MALE,2024-10-13_19h28.51.866,jersey_experiment_5_v3,2023.2.2,Win32,59.88023952,,,,,,,,,,,,,,,,1086.4785,1088.0282,1088.0283,1089.0945,return,0.1359,,50.06944444,,,,,,FBP-OG-18.png,0.37,1.2,37,0.75,,,,,,,,,,,,,0,25,25,36,1,,,,,,,,,,,,,,,,,,,,,,,,,,,,
,,,,,V3_006,18,MALE,2024-10-13_19h28.51.866,jersey_experiment_5_v3,2023.2.2,Win32,59.88023952,,,,,,,,,,,,,,,,1089.095,1090.3949,1090.3949,1091.9447,return,0.1231,,74.86111111,,,,,,FBP-PT-18.png,0.43,1.2,24,0.5,,,,,,,,,,,,,0,26,26,23,1,,,,,,,,,,,,,,,,,,,,,,,,,,,,
,,,,,V3_006,18,MALE,2024-10-13_19h28.51.866,jersey_experiment_5_v3,2023.2.2,Win32,59.88023952,,,,,,,,,,,,,,,,1091.9451,1093.2448,1093.2449,1096.6614,return,0.214,,74.93055556,,,,,,FBP-RB-18.png,0.4,1.2,53,0.5,,,,,,,,,,,,,0,27,27,52,1,,,,,,,,,,,,,,,,,,,,,,,,,,,,
,,,,,V3_006,18,MALE,2024-10-13_19h28.51.866,jersey_experiment_5_v3,2023.2.2,Win32,59.88023952,,,,,,,,,,,,,,,,1096.6617,1098.2117,1098.2118,1099.5947,return,0.3904,,49.86111111,,,,,,FBP-OG-19.png,0.37,1.2,42,0.75,,,,,,,,,,,,,0,28,28,41,1,,,,,,,,,,,,,,,,,,,,,,,,,,,,
,,,,,V3_006,18,MALE,2024-10-13_19h28.51.866,jersey_experiment_5_v3,2023.2.2,Win32,59.88023952,,,,,,,,,,,,,,,,1099.5951,1100.8948,1100.8948,1102.5115,return,0.7351,,40.41666667,,,,,,FBP-PT-18.png,0.35,1.2,21,0.5,,,,,,,,,,,,,0,29,29,20,1,,,,,,,,,,,,,,,,,,,,,,,,,,,,
,,,,,V3_006,18,MALE,2024-10-13_19h28.51.866,jersey_experiment_5_v3,2023.2.2,Win32,59.88023952,,,,,,,,,,,,,,,,1102.5119,1103.8114,1103.8115,1105.5612,return,0.0744,,75.06944444,,,,,,FBP-YG-81.png,0.45,1.2,10,0.5,,,,,,,,,,,,,0,30,30,9,1,,,,,,,,,,,,,,,,,,,,,,,,,,,,
,,,,,V3_006,18,MALE,2024-10-13_19h28.51.866,jersey_experiment_5_v3,2023.2.2,Win32,59.88023952,,,,,,,,,,,,,,,,1105.5616,1106.8615,1106.8616,1109.4283,return,0.2162,,82.70833333,,,,,,FBP-YG-81.png,0.43,1.2,9,0.5,,,,,,,,,,,,,0,31,31,8,1,,,,,,,,,,,,,,,,,,,,,,,,,,,,
,,,,,V3_006,18,MALE,2024-10-13_19h28.51.866,jersey_experiment_5_v3,2023.2.2,Win32,59.88023952,,,,,,,,,,,,,,,,1109.4286,1110.7281,1110.7281,1113.7119,return,1.0834,,50.13888889,,,,,,FBP-RB-19.png,0.4,1.2,58,0.5,,,,,,,,,,,,,0,32,32,57,1,,,,,,,,,,,,,,,,,,,,,,,,,,,,
,,,,,V3_006,18,MALE,2024-10-13_19h28.51.866,jersey_experiment_5_v3,2023.2.2,Win32,59.88023952,,,,,,,,,,,,,,,,1113.7122,1115.0116,1115.0117,1116.6121,return,1.2179,,50.13888889,,,,,,FBP-PT-18.png,0.37,1.2,22,0.5,,,,,,,,,,,,,0,33,33,21,1,,,,,,,,,,,,,,,,,,,,,,,,,,,,
,,,,,V3_006,18,MALE,2024-10-13_19h28.51.866,jersey_experiment_5_v3,2023.2.2,Win32,59.88023952,,,,,,,,,,,,,,,,1116.6125,1117.9116,1117.9117,1123.8784,return,2.3525,,42.77777778,,,,,,FBP-YG-91.png,0.35,1.2,11,0.5,,,,,,,,,,,,,0,34,34,10,1,,,,,,,,,,,,,,,,,,,,,,,,,,,,
,,,,,V3_006,18,MALE,2024-10-13_19h28.51.866,jersey_experiment_5_v3,2023.2.2,Win32,59.88023952,,,,,,,,,,,,,,,,1123.8789,1125.4287,1125.4287,1128.2282,return,0.8843,,74.86111111,,,,,,FBP-OG-18.png,0.43,1.2,39,0.75,,,,,,,,,,,,,0,35,35,38,1,,,,,,,,,,,,,,,,,,,,,,,,,,,,
,,,,,V3_006,18,MALE,2024-10-13_19h28.51.866,jersey_experiment_5_v3,2023.2.2,Win32,59.88023952,,,,,,,,,,,,,,,,1128.2286,1129.7784,1129.7786,1131.3617,return,0.0837,,50.13888889,,,,,,FBP-OG-19.png,0.4,1.2,43,0.75,,,,,,,,,,,,,0,36,36,42,1,,,,,,,,,,,,,,,,,,,,,,,,,,,,
,,,,,V3_006,18,MALE,2024-10-13_19h28.51.866,jersey_experiment_5_v3,2023.2.2,Win32,59.88023952,,,,,,,,,,,,,,,,1131.3621,1132.6617,1132.6618,1134.9116,return,1.0848,,50.27777778,,,,,,FBP-YG-91.png,0.4,1.2,13,0.5,,,,,,,,,,,,,0,37,37,12,1,,,,,,,,,,,,,,,,,,,,,,,,,,,,
,,,,,V3_006,18,MALE,2024-10-13_19h28.51.866,jersey_experiment_5_v3,2023.2.2,Win32,59.88023952,,,,,,,,,,,,,,,,1134.912,1136.4617,1136.4618,1138.0949,return,0.0519,,75.06944444,,,,,,FBP-OG-17.png,0.45,1.2,35,0.75,,,,,,,,,,,,,0,38,38,34,1,,,,,,,,,,,,,,,,,,,,,,,,,,,,
,,,,,V3_006,18,MALE,2024-10-13_19h28.51.866,jersey_experiment_5_v3,2023.2.2,Win32,59.88023952,,,,,,,,,,,,,,,,1138.0953,1139.3949,1139.3949,1140.6616,return,0.2329,,75.20833333,,,,,,FBP-PT-19.png,0.45,1.2,30,0.5,,,,,,,,,,,,,0,39,39,29,1,,,,,,,,,,,,,,,,,,,,,,,,,,,,
,,,,,V3_006,18,MALE,2024-10-13_19h28.51.866,jersey_experiment_5_v3,2023.2.2,Win32,59.88023952,,,,,,,,,,,,,,,,1140.6622,1141.9617,1141.9618,1143.5616,return,0.058,,50.06944444,,,,,,FBP-PT-19.png,0.37,1.2,27,0.5,,,,,,,,,,,,,0,40,40,26,1,,,,,,,,,,,,,,,,,,,,,,,,,,,,
,,,,,V3_006,18,MALE,2024-10-13_19h28.51.866,jersey_experiment_5_v3,2023.2.2,Win32,59.88023952,,,,,,,,,,,,,,,,1143.5617,1144.8619,1144.8621,1147.212,return,0.3907,,75.13888889,,,,,,FBP-PT-17.png,0.43,1.2,19,0.5,,,,,,,,,,,,,0,41,41,18,1,,,,,,,,,,,,,,,,,,,,,,,,,,,,
,,,,,V3_006,18,MALE,2024-10-13_19h28.51.866,jersey_experiment_5_v3,2023.2.2,Win32,59.88023952,,,,,,,,,,,,,,,,1147.2123,1148.5117,1148.5118,1151.0784,return,0.844,,49.93055556,,,,,,FBP-YG-81.png,0.37,1.2,7,0.5,,,,,,,,,,,,,0,42,42,6,1,,,,,,,,,,,,,,,,,,,,,,,,,,,,
,,,,,V3_006,18,MALE,2024-10-13_19h28.51.866,jersey_experiment_5_v3,2023.2.2,Win32,59.88023952,,,,,,,,,,,,,,,,1151.0788,1152.3787,1152.3788,1153.9284,return,0.607,,49.93055556,,,,,,FBP-PT-18.png,0.4,1.2,23,0.5,,,,,,,,,,,,,0,43,43,22,1,,,,,,,,,,,,,,,,,,,,,,,,,,,,
,,,,,V3_006,18,MALE,2024-10-13_19h28.51.866,jersey_experiment_5_v3,2023.2.2,Win32,59.88023952,,,,,,,,,,,,,,,,1153.9287,1155.2285,1155.2285,1156.7286,return,0.8613,,49.93055556,,,,,,FBP-RB-19.png,0.37,1.2,57,0.5,,,,,,,,,,,,,0,44,44,56,1,,,,,,,,,,,,,,,,,,,,,,,,,,,,
,,,,,V3_006,18,MALE,2024-10-13_19h28.51.866,jersey_experiment_5_v3,2023.2.2,Win32,59.88023952,,,,,,,,,,,,,,,,1156.729,1158.0285,1158.0286,1164.0619,return,5.1545,,49.93055556,,,,,,FBP-YG-71.png,0.37,1.2,2,0.5,,,,,,,,,,,,,0,45,45,1,1,,,,,,,,,,,,,,,,,,,,,,,,,,,,
,,,,,V3_006,18,MALE,2024-10-13_19h28.51.866,jersey_experiment_5_v3,2023.2.2,Win32,59.88023952,,,,,,,,,,,,,,,,1164.071,1165.3617,1165.3618,1167.1452,return,0.1242,,89.44444444,,,,,,FBP-PT-18.png,0.45,1.2,25,0.5,,,,,,,,,,,,,0,46,46,24,1,,,,,,,,,,,,,,,,,,,,,,,,,,,,
,,,,,V3_006,18,MALE,2024-10-13_19h28.51.866,jersey_experiment_5_v3,2023.2.2,Win32,59.88023952,,,,,,,,,,,,,,,,1167.1457,1168.4458,1168.4459,1169.8457,return,0.0496,,62.01388889,,,,,,FBP-RB-17.png,0.43,1.2,49,0.5,,,,,,,,,,,,,0,47,47,48,1,,,,,,,,,,,,,,,,,,,,,,,,,,,,
,,,,,V3_006,18,MALE,2024-10-13_19h28.51.866,jersey_experiment_5_v3,2023.2.2,Win32,59.88023952,,,,,,,,,,,,,,,,1169.8463,1171.1455,1171.1455,1173.3292,return,0.5006,,75.06944444,,,,,,FBP-YG-71.png,0.45,1.2,5,0.5,,,,,,,,,,,,,0,48,48,4,1,,,,,,,,,,,,,,,,,,,,,,,,,,,,
,,,,,V3_006,18,MALE,2024-10-13_19h28.51.866,jersey_experiment_5_v3,2023.2.2,Win32,59.88023952,,,,,,,,,,,,,,,,1173.3297,1174.8788,1174.8789,1176.9286,return,0.6664,,75.20833333,,,,,,FBP-OG-19.png,0.43,1.2,44,0.75,,,,,,,,,,,,,0,49,49,43,1,,,,,,,,,,,,,,,,,,,,,,,,,,,,
,,,,,V3_006,18,MALE,2024-10-13_19h28.51.866,jersey_experiment_5_v3,2023.2.2,Win32,59.88023952,,,,,,,,,,,,,,,,1176.9291,1178.2285,1178.2286,1180.112,return,0.9352,,50.13888889,,,,,,FBP-YG-81.png,0.4,1.2,8,0.5,,,,,,,,,,,,,0,50,50,7,1,,,,,,,,,,,,,,,,,,,,,,,,,,,,
,,,,,V3_006,18,MALE,2024-10-13_19h28.51.866,jersey_experiment_5_v3,2023.2.2,Win32,59.88023952,,,,,,,,,,,,,,,,1180.1123,1181.4124,1181.4124,1183.2287,return,1.458,,50.13888889,,,,,,FBP-YG-91.png,0.43,1.2,14,0.5,,,,,,,,,,,,,0,51,51,13,1,,,,,,,,,,,,,,,,,,,,,,,,,,,,
,,,,,V3_006,18,MALE,2024-10-13_19h28.51.866,jersey_experiment_5_v3,2023.2.2,Win32,59.88023952,,,,,,,,,,,,,,,,1183.2289,1184.7794,1184.7795,1186.0125,return,1.0582,,50.13888889,,,,,,FBP-OG-18.png,0.4,1.2,38,0.75,,,,,,,,,,,,,0,52,52,37,1,,,,,,,,,,,,,,,,,,,,,,,,,,,,
,,,,,V3_006,18,MALE,2024-10-13_19h28.51.866,jersey_experiment_5_v3,2023.2.2,Win32,59.88023952,,,,,,,,,,,,,,,,1186.0129,1187.3119,1187.312,1189.4786,return,1.644,,50.13888889,,,,,,FBP-PT-19.png,0.4,1.2,28,0.5,,,,,,,,,,,,,0,53,53,27,1,,,,,,,,,,,,,,,,,,,,,,,,,,,,
,,,,,V3_006,18,MALE,2024-10-13_19h28.51.866,jersey_experiment_5_v3,2023.2.2,Win32,59.88023952,,,,,,,,,,,,,,,,1189.4788,1191.0287,1191.0288,1192.0788,return,0.0695,,24.65277778,,,,,,FBP-OG-18.png,0.35,1.2,36,0.75,,,,,,,,,,,,,0,54,54,35,1,,,,,,,,,,,,,,,,,,,,,,,,,,,,
,,,,,V3_006,18,MALE,2024-10-13_19h28.51.866,jersey_experiment_5_v3,2023.2.2,Win32,59.88023952,,,,,,,,,,,,,,,,1192.0792,1193.6288,1193.6288,1195.4786,return,0.7842,,75.20833333,,,,,,FBP-OG-18.png,0.45,1.2,40,0.75,,,,,,,,,,,,,0,55,55,39,1,,,,,,,,,,,,,,,,,,,,,,,,,,,,
,,,,,V3_006,18,MALE,2024-10-13_19h28.51.866,jersey_experiment_5_v3,2023.2.2,Win32,59.88023952,,,,,,,,,,,,,,,,1195.479,1196.7789,1196.779,1199.712,return,0.5176,,38.05555556,,,,,,FBP-PT-17.png,0.37,1.2,17,0.5,,,,,,,,,,,,,0,56,56,16,1,,,,,,,,,,,,,,,,,,,,,,,,,,,,
,,,,,V3_006,18,MALE,2024-10-13_19h28.51.866,jersey_experiment_5_v3,2023.2.2,Win32,59.88023952,,,,,,,,,,,,,,,,1199.7125,1201.262,1201.262,1203.4958,return,0.8269,,50,,,,,,FBP-OG-17.png,0.37,1.2,32,0.75,,,,,,,,,,,,,0,57,57,31,1,,,,,,,,,,,,,,,,,,,,,,,,,,,,
,,,,,V3_006,18,MALE,2024-10-13_19h28.51.866,jersey_experiment_5_v3,2023.2.2,Win32,59.88023952,,,,,,,,,,,,,,,,1203.4962,1205.0457,1205.0457,1206.5124,return,0.1166,,75.20833333,,,,,,FBP-OG-17.png,0.43,1.2,34,0.75,,,,,,,,,,,,,0,58,58,33,1,,,,,,,,,,,,,,,,,,,,,,,,,,,,
,,,,,V3_006,18,MALE,2024-10-13_19h28.51.866,jersey_experiment_5_v3,2023.2.2,Win32,59.88023952,,,,,,,,,,,,,,,,1206.5128,1207.812,1207.8121,1210.0624,return,0.0894,,37.77777778,,,,,,FBP-PT-19.png,0.35,1.2,26,0.5,,,,,,,,,,,,,0,59,59,25,1,,,,,,,,,,,,,,,,,,,,,,,,,,,,
,,,,,V3_006,18,MALE,2024-10-13_19h28.51.866,jersey_experiment_5_v3,2023.2.2,Win32,59.88023952,,,,,,,,,,,,,,,,1210.0656,1211.3625,1211.3626,1213.3621,return,0.2154,,63.05555556,,,,,,FBP-RB-81.png,0.43,1.2,54,0.5,,,,,,,,,,,,,,,,,,0,0,0,53,1,,,,,,,,,,,,,,,,,,,,,,,
,,,,,V3_006,18,MALE,2024-10-13_19h28.51.866,jersey_experiment_5_v3,2023.2.2,Win32,59.88023952,,,,,,,,,,,,,,,,1213.3626,1214.6622,1214.6622,1219.5625,return,3.7561,,50.20833333,,,,,,FBP-RB-81.png,0.35,1.2,51,0.5,,,,,,,,,,,,,,,,,,0,1,1,50,1,,,,,,,,,,,,,,,,,,,,,,,
,,,,,V3_006,18,MALE,2024-10-13_19h28.51.866,jersey_experiment_5_v3,2023.2.2,Win32,59.88023952,,,,,,,,,,,,,,,,1219.5742,1220.8626,1220.8627,1222.3291,return,0.1577,,25.06944444,,,,,,FBP-PT-91.png,0.35,1.2,26,0.5,,,,,,,,,,,,,,,,,,0,2,2,25,1,,,,,,,,,,,,,,,,,,,,,,,
,,,,,V3_006,18,MALE,2024-10-13_19h28.51.866,jersey_experiment_5_v3,2023.2.2,Win32,59.88023952,,,,,,,,,,,,,,,,1222.3294,1223.6289,1223.629,1225.0626,return,0.103,,75.06944444,,,,,,FBP-YG-19.png,0.43,1.2,14,0.5,,,,,,,,,,,,,,,,,,0,3,3,13,1,,,,,,,,,,,,,,,,,,,,,,,
,,,,,V3_006,18,MALE,2024-10-13_19h28.51.866,jersey_experiment_5_v3,2023.2.2,Win32,59.88023952,,,,,,,,,,,,,,,,1225.063,1226.3628,1226.3629,1228.3794,return,0.0733,,63.40277778,,,,,,FBP-PT-71.png,0.4,1.2,18,0.5,,,,,,,,,,,,,,,,,,0,4,4,17,1,,,,,,,,,,,,,,,,,,,,,,,
,,,,,V3_006,18,MALE,2024-10-13_19h28.51.866,jersey_experiment_5_v3,2023.2.2,Win32,59.88023952,,,,,,,,,,,,,,,,1228.3799,1229.6788,1229.6788,1231.3627,return,0.4663,,50.06944444,,,,,,FBP-YG-18.png,0.37,1.2,7,0.5,,,,,,,,,,,,,,,,,,0,5,5,6,1,,,,,,,,,,,,,,,,,,,,,,,
,,,,,V3_006,18,MALE,2024-10-13_19h28.51.866,jersey_experiment_5_v3,2023.2.2,Win32,59.88023952,,,,,,,,,,,,,,,,1231.3632,1232.6623,1232.6624,1234.4789,return,0.1172,,50.13888889,,,,,,FBP-PT-81.png,0.4,1.2,23,0.5,,,,,,,,,,,,,,,,,,0,6,6,22,1,,,,,,,,,,,,,,,,,,,,,,,
,,,,,V3_006,18,MALE,2024-10-13_19h28.51.866,jersey_experiment_5_v3,2023.2.2,Win32,59.88023952,,,,,,,,,,,,,,,,1234.4792,1235.779,1235.779,1237.6957,return,1.2006,,75.20833333,,,,,,FBP-YG-17.png,0.45,1.2,5,0.5,,,,,,,,,,,,,,,,,,0,7,7,4,1,,,,,,,,,,,,,,,,,,,,,,,
,,,,,V3_006,18,MALE,2024-10-13_19h28.51.866,jersey_experiment_5_v3,2023.2.2,Win32,59.88023952,,,,,,,,,,,,,,,,1237.6959,1239.2463,1239.2464,1241.2122,return,0.9064,,50,,,,,,FBP-OG-71.png,0.37,1.2,32,0.75,,,,,,,,,,,,,,,,,,0,8,8,31,1,,,,,,,,,,,,,,,,,,,,,,,
,,,,,V3_006,18,MALE,2024-10-13_19h28.51.866,jersey_experiment_5_v3,2023.2.2,Win32,59.88023952,,,,,,,,,,,,,,,,1241.2128,1242.5127,1242.5128,1244.6955,return,0.4967,,88.33333333,,,,,,FBP-RB-71.png,0.43,1.2,49,0.5,,,,,,,,,,,,,,,,,,0,9,9,48,1,,,,,,,,,,,,,,,,,,,,,,,
,,,,,V3_006,18,MALE,2024-10-13_19h28.51.866,jersey_experiment_5_v3,2023.2.2,Win32,59.88023952,,,,,,,,,,,,,,,,1244.6958,1245.9957,1245.9957,1249.6467,return,0.1384,,61.94444444,,,,,,FBP-RB-91.png,0.37,1.2,57,0.5,,,,,,,,,,,,,,,,,,0,10,10,56,1,,,,,,,,,,,,,,,,,,,,,,,
,,,,,V3_006,18,MALE,2024-10-13_19h28.51.866,jersey_experiment_5_v3,2023.2.2,Win32,59.88023952,,,,,,,,,,,,,,,,1249.6473,1251.1958,1251.1958,1253.6126,return,1.5567,,50.13888889,,,,,,FBP-OG-71.png,0.35,1.2,31,0.75,,,,,,,,,,,,,,,,,,0,11,11,30,1,,,,,,,,,,,,,,,,,,,,,,,
,,,,,V3_006,18,MALE,2024-10-13_19h28.51.866,jersey_experiment_5_v3,2023.2.2,Win32,59.88023952,,,,,,,,,,,,,,,,1253.6129,1254.9127,1254.9128,1256.7627,return,0.4724,,75.13888889,,,,,,FBP-RB-91.png,0.43,1.2,59,0.5,,,,,,,,,,,,,,,,,,0,12,12,58,1,,,,,,,,,,,,,,,,,,,,,,,
,,,,,V3_006,18,MALE,2024-10-13_19h28.51.866,jersey_experiment_5_v3,2023.2.2,Win32,59.88023952,,,,,,,,,,,,,,,,1256.7633,1258.3127,1258.3128,1260.1796,return,0.3849,,50,,,,,,FBP-OG-91.png,0.37,1.2,42,0.75,,,,,,,,,,,,,,,,,,0,13,13,41,1,,,,,,,,,,,,,,,,,,,,,,,
,,,,,V3_006,18,MALE,2024-10-13_19h28.51.866,jersey_experiment_5_v3,2023.2.2,Win32,59.88023952,,,,,,,,,,,,,,,,1260.1802,1261.4793,1261.4794,1268.2466,return,0.0658,,50.20833333,,,,,,FBP-YG-17.png,0.43,1.2,4,0.5,,,,,,,,,,,,,,,,,,0,14,14,3,1,,,,,,,,,,,,,,,,,,,,,,,
,,,,,V3_006,18,MALE,2024-10-13_19h28.51.866,jersey_experiment_5_v3,2023.2.2,Win32,59.88023952,,,,,,,,,,,,,,,,1268.2472,1269.5459,1269.5459,1271.6794,return,0.1179,,38.61111111,,,,,,FBP-RB-71.png,0.35,1.2,46,0.5,,,,,,,,,,,,,,,,,,0,15,15,45,1,,,,,,,,,,,,,,,,,,,,,,,
,,,,,V3_006,18,MALE,2024-10-13_19h28.51.866,jersey_experiment_5_v3,2023.2.2,Win32,59.88023952,,,,,,,,,,,,,,,,1271.6798,1273.2293,1273.2294,1276.963,return,1.682,,55.34722222,,,,,,FBP-OG-91.png,0.4,1.2,43,0.75,,,,,,,,,,,,,,,,,,0,16,16,42,1,,,,,,,,,,,,,,,,,,,,,,,
,,,,,V3_006,18,MALE,2024-10-13_19h28.51.866,jersey_experiment_5_v3,2023.2.2,Win32,59.88023952,,,,,,,,,,,,,,,,1276.9634,1278.2627,1278.2627,1281.3961,return,0.0828,,55.83333333,,,,,,FBP-YG-19.png,0.4,1.2,13,0.5,,,,,,,,,,,,,,,,,,0,17,17,12,1,,,,,,,,,,,,,,,,,,,,,,,
,,,,,V3_006,18,MALE,2024-10-13_19h28.51.866,jersey_experiment_5_v3,2023.2.2,Win32,59.88023952,,,,,,,,,,,,,,,,1281.3966,1282.6958,1282.6959,1287.196,return,3.7923,,50.13888889,,,,,,FBP-YG-19.png,0.37,1.2,12,0.5,,,,,,,,,,,,,,,,,,0,18,18,11,1,,,,,,,,,,,,,,,,,,,,,,,
,,,,,V3_006,18,MALE,2024-10-13_19h28.51.866,jersey_experiment_5_v3,2023.2.2,Win32,59.88023952,,,,,,,,,,,,,,,,1287.2072,1288.7463,1288.7463,1290.5297,return,0.4842,,74.93055556,,,,,,FBP-OG-81.png,0.43,1.2,39,0.75,,,,,,,,,,,,,,,,,,0,19,19,38,1,,,,,,,,,,,,,,,,,,,,,,,
,,,,,V3_006,18,MALE,2024-10-13_19h28.51.866,jersey_experiment_5_v3,2023.2.2,Win32,59.88023952,,,,,,,,,,,,,,,,1290.5304,1292.0792,1292.0793,1293.8625,return,1.1944,,50.13888889,,,,,,FBP-OG-81.png,0.4,1.2,38,0.75,,,,,,,,,,,,,,,,,,0,20,20,37,1,,,,,,,,,,,,,,,,,,,,,,,
,,,,,V3_006,18,MALE,2024-10-13_19h28.51.866,jersey_experiment_5_v3,2023.2.2,Win32,59.88023952,,,,,,,,,,,,,,,,1293.8628,1295.1629,1295.1631,1297.8294,return,1.0825,,50.06944444,,,,,,FBP-YG-18.png,0.4,1.2,8,0.5,,,,,,,,,,,,,,,,,,0,21,21,7,1,,,,,,,,,,,,,,,,,,,,,,,
,,,,,V3_006,18,MALE,2024-10-13_19h28.51.866,jersey_experiment_5_v3,2023.2.2,Win32,59.88023952,,,,,,,,,,,,,,,,1297.8298,1299.1297,1299.1298,1301.2132,return,0.5388,,75,,,,,,FBP-PT-91.png,0.45,1.2,30,0.5,,,,,,,,,,,,,,,,,,0,22,22,29,1,,,,,,,,,,,,,,,,,,,,,,,
,,,,,V3_006,18,MALE,2024-10-13_19h28.51.866,jersey_experiment_5_v3,2023.2.2,Win32,59.88023952,,,,,,,,,,,,,,,,1301.2136,1302.513,1302.5132,1304.9463,return,1.7162,,75,,,,,,FBP-YG-18.png,0.43,1.2,9,0.5,,,,,,,,,,,,,,,,,,0,23,23,8,1,,,,,,,,,,,,,,,,,,,,,,,
,,,,,V3_006,18,MALE,2024-10-13_19h28.51.866,jersey_experiment_5_v3,2023.2.2,Win32,59.88023952,,,,,,,,,,,,,,,,1304.9465,1306.2464,1306.2464,1307.746,return,0.0491,,62.56944444,,,,,,FBP-YG-19.png,0.45,1.2,15,0.5,,,,,,,,,,,,,,,,,,0,24,24,14,1,,,,,,,,,,,,,,,,,,,,,,,
,,,,,V3_006,18,MALE,2024-10-13_19h28.51.866,jersey_experiment_5_v3,2023.2.2,Win32,59.88023952,,,,,,,,,,,,,,,,1307.7464,1309.0462,1309.0463,1311.946,return,1.5725,,75.27777778,,,,,,FBP-RB-81.png,0.45,1.2,55,0.5,,,,,,,,,,,,,,,,,,0,25,25,54,1,,,,,,,,,,,,,,,,,,,,,,,
,,,,,V3_006,18,MALE,2024-10-13_19h28.51.866,jersey_experiment_5_v3,2023.2.2,Win32,59.88023952,,,,,,,,,,,,,,,,1311.9462,1313.2464,1313.2464,1316.3299,return,1.0086,,50,,,,,,FBP-RB-71.png,0.4,1.2,48,0.5,,,,,,,,,,,,,,,,,,0,26,26,47,1,,,,,,,,,,,,,,,,,,,,,,,
,,,,,V3_006,18,MALE,2024-10-13_19h28.51.866,jersey_experiment_5_v3,2023.2.2,Win32,59.88023952,,,,,,,,,,,,,,,,1316.3304,1317.6299,1317.6299,1319.9633,return,0.74,,50.20833333,,,,,,FBP-PT-91.png,0.4,1.2,28,0.5,,,,,,,,,,,,,,,,,,0,27,27,27,1,,,,,,,,,,,,,,,,,,,,,,,
,,,,,V3_006,18,MALE,2024-10-13_19h28.51.866,jersey_experiment_5_v3,2023.2.2,Win32,59.88023952,,,,,,,,,,,,,,,,1319.9638,1321.2628,1321.2628,1324.2627,return,0.8092,,75.06944444,,,,,,FBP-PT-71.png,0.45,1.2,20,0.5,,,,,,,,,,,,,,,,,,0,28,28,19,1,,,,,,,,,,,,,,,,,,,,,,,
,,,,,V3_006,18,MALE,2024-10-13_19h28.51.866,jersey_experiment_5_v3,2023.2.2,Win32,59.88023952,,,,,,,,,,,,,,,,1324.263,1325.8127,1325.8127,1327.8295,return,0.5324,,25,,,,,,FBP-OG-81.png,0.35,1.2,36,0.75,,,,,,,,,,,,,,,,,,0,29,29,35,1,,,,,,,,,,,,,,,,,,,,,,,
,,,,,V3_006,18,MALE,2024-10-13_19h28.51.866,jersey_experiment_5_v3,2023.2.2,Win32,59.88023952,,,,,,,,,,,,,,,,1327.8297,1329.1298,1329.1299,1330.2469,return,0.7184,,24.93055556,,,,,,FBP-PT-81.png,0.35,1.2,21,0.5,,,,,,,,,,,,,,,,,,0,30,30,20,1,,,,,,,,,,,,,,,,,,,,,,,
,,,,,V3_006,18,MALE,2024-10-13_19h28.51.866,jersey_experiment_5_v3,2023.2.2,Win32,59.88023952,,,,,,,,,,,,,,,,1330.2474,1331.7963,1331.7964,1333.18,return,0.5731,,75,,,,,,FBP-OG-71.png,0.43,1.2,34,0.75,,,,,,,,,,,,,,,,,,0,31,31,33,1,,,,,,,,,,,,,,,,,,,,,,,
,,,,,V3_006,18,MALE,2024-10-13_19h28.51.866,jersey_experiment_5_v3,2023.2.2,Win32,59.88023952,,,,,,,,,,,,,,,,1333.1803,1334.73,1334.7301,1336.9131,return,0.2015,,80.90277778,,,,,,FBP-OG-81.png,0.45,1.2,40,0.75,,,,,,,,,,,,,,,,,,0,32,32,39,1,,,,,,,,,,,,,,,,,,,,,,,
,,,,,V3_006,18,MALE,2024-10-13_19h28.51.866,jersey_experiment_5_v3,2023.2.2,Win32,59.88023952,,,,,,,,,,,,,,,,1336.9134,1338.4631,1338.4632,1340.0629,return,0.1531,,88.54166667,,,,,,FBP-OG-91.png,0.43,1.2,44,0.75,,,,,,,,,,,,,,,,,,0,33,33,43,1,,,,,,,,,,,,,,,,,,,,,,,
,,,,,V3_006,18,MALE,2024-10-13_19h28.51.866,jersey_experiment_5_v3,2023.2.2,Win32,59.88023952,,,,,,,,,,,,,,,,1340.0631,1341.3631,1341.3632,1343.5299,return,0.1574,,37.91666667,,,,,,FBP-YG-19.png,0.35,1.2,11,0.5,,,,,,,,,,,,,,,,,,0,34,34,10,1,,,,,,,,,,,,,,,,,,,,,,,
,,,,,V3_006,18,MALE,2024-10-13_19h28.51.866,jersey_experiment_5_v3,2023.2.2,Win32,59.88023952,,,,,,,,,,,,,,,,1343.5306,1344.8297,1344.8297,1346.78,return,0.3719,,75.06944444,,,,,,FBP-RB-71.png,0.45,1.2,50,0.5,,,,,,,,,,,,,,,,,,0,35,35,49,1,,,,,,,,,,,,,,,,,,,,,,,
,,,,,V3_006,18,MALE,2024-10-13_19h28.51.866,jersey_experiment_5_v3,2023.2.2,Win32,59.88023952,,,,,,,,,,,,,,,,1346.7806,1348.0796,1348.0796,1349.4962,return,0.3764,,50,,,,,,FBP-PT-91.png,0.37,1.2,27,0.5,,,,,,,,,,,,,,,,,,0,36,36,26,1,,,,,,,,,,,,,,,,,,,,,,,
,,,,,V3_006,18,MALE,2024-10-13_19h28.51.866,jersey_experiment_5_v3,2023.2.2,Win32,59.88023952,,,,,,,,,,,,,,,,1349.4966,1350.7964,1350.7965,1352.5637,return,0.0499,,25.06944444,,,,,,FBP-YG-18.png,0.35,1.2,6,0.5,,,,,,,,,,,,,,,,,,0,37,37,5,1,,,,,,,,,,,,,,,,,,,,,,,
,,,,,V3_006,18,MALE,2024-10-13_19h28.51.866,jersey_experiment_5_v3,2023.2.2,Win32,59.88023952,,,,,,,,,,,,,,,,1352.5642,1353.8634,1353.8634,1355.7299,return,0.0994,,74.93055556,,,,,,FBP-PT-81.png,0.43,1.2,24,0.5,,,,,,,,,,,,,,,,,,0,38,38,23,1,,,,,,,,,,,,,,,,,,,,,,,
,,,,,V3_006,18,MALE,2024-10-13_19h28.51.866,jersey_experiment_5_v3,2023.2.2,Win32,59.88023952,,,,,,,,,,,,,,,,1355.7303,1357.0303,1357.0303,1358.5635,return,0.2995,,37.36111111,,,,,,FBP-RB-91.png,0.35,1.2,56,0.5,,,,,,,,,,,,,,,,,,0,39,39,55,1,,,,,,,,,,,,,,,,,,,,,,,
,,,,,V3_006,18,MALE,2024-10-13_19h28.51.866,jersey_experiment_5_v3,2023.2.2,Win32,59.88023952,,,,,,,,,,,,,,,,1358.5639,1359.863,1359.8631,1362.047,return,0.1524,,61.94444444,,,,,,FBP-RB-91.png,0.4,1.2,58,0.5,,,,,,,,,,,,,,,,,,0,40,40,57,1,,,,,,,,,,,,,,,,,,,,,,,
,,,,,V3_006,18,MALE,2024-10-13_19h28.51.866,jersey_experiment_5_v3,2023.2.2,Win32,59.88023952,,,,,,,,,,,,,,,,1362.0475,1363.3469,1363.347,1364.5801,return,0.3362,,49.93055556,,,,,,FBP-YG-17.png,0.35,1.2,1,0.5,,,,,,,,,,,,,,,,,,0,41,41,0,1,,,,,,,,,,,,,,,,,,,,,,,
,,,,,V3_006,18,MALE,2024-10-13_19h28.51.866,jersey_experiment_5_v3,2023.2.2,Win32,59.88023952,,,,,,,,,,,,,,,,1364.5806,1365.88,1365.88,1367.0466,return,0.4941,,49.93055556,,,,,,FBP-RB-81.png,0.37,1.2,52,0.5,,,,,,,,,,,,,,,,,,0,42,42,51,1,,,,,,,,,,,,,,,,,,,,,,,
,,,,,V3_006,18,MALE,2024-10-13_19h28.51.866,jersey_experiment_5_v3,2023.2.2,Win32,59.88023952,,,,,,,,,,,,,,,,1367.047,1368.3464,1368.3466,1370.2799,return,0.7127,,88.05555556,,,,,,FBP-YG-18.png,0.45,1.2,10,0.5,,,,,,,,,,,,,,,,,,0,43,43,9,1,,,,,,,,,,,,,,,,,,,,,,,
,,,,,V3_006,18,MALE,2024-10-13_19h28.51.866,jersey_experiment_5_v3,2023.2.2,Win32,59.88023952,,,,,,,,,,,,,,,,1370.2803,1371.8297,1371.8298,1373.3798,return,1.1665,,88.05555556,,,,,,FBP-OG-91.png,0.45,1.2,45,0.75,,,,,,,,,,,,,,,,,,0,44,44,44,1,,,,,,,,,,,,,,,,,,,,,,,
,,,,,V3_006,18,MALE,2024-10-13_19h28.51.866,jersey_experiment_5_v3,2023.2.2,Win32,59.88023952,,,,,,,,,,,,,,,,1373.3802,1374.9305,1374.9306,1378.3807,return,2.2721,,38.54166667,,,,,,FBP-OG-91.png,0.35,1.2,41,0.75,,,,,,,,,,,,,,,,,,0,45,45,40,1,,,,,,,,,,,,,,,,,,,,,,,
,,,,,V3_006,18,MALE,2024-10-13_19h28.51.866,jersey_experiment_5_v3,2023.2.2,Win32,59.88023952,,,,,,,,,,,,,,,,1378.3809,1379.6798,1379.6798,1381.83,return,0.6333,,75,,,,,,FBP-RB-91.png,0.45,1.2,60,0.5,,,,,,,,,,,,,,,,,,0,46,46,59,1,,,,,,,,,,,,,,,,,,,,,,,
,,,,,V3_006,18,MALE,2024-10-13_19h28.51.866,jersey_experiment_5_v3,2023.2.2,Win32,59.88023952,,,,,,,,,,,,,,,,1381.8304,1383.3805,1383.3807,1384.6798,return,0.9258,,75,,,,,,FBP-OG-71.png,0.45,1.2,35,0.75,,,,,,,,,,,,,,,,,,0,47,47,34,1,,,,,,,,,,,,,,,,,,,,,,,
,,,,,V3_006,18,MALE,2024-10-13_19h28.51.866,jersey_experiment_5_v3,2023.2.2,Win32,59.88023952,,,,,,,,,,,,,,,,1384.6801,1385.9798,1385.9798,1389.1967,return,1.7367,,63.33333333,,,,,,FBP-RB-81.png,0.4,1.2,53,0.5,,,,,,,,,,,,,,,,,,0,48,48,52,1,,,,,,,,,,,,,,,,,,,,,,,
,,,,,V3_006,18,MALE,2024-10-13_19h28.51.866,jersey_experiment_5_v3,2023.2.2,Win32,59.88023952,,,,,,,,,,,,,,,,1389.197,1390.7467,1390.7467,1391.1802,return,0.088,,63.54166667,,,,,,FBP-OG-71.png,0.4,1.2,33,0.75,,,,,,,,,,,,,,,,,,0,49,49,32,1,,,,,,,,,,,,,,,,,,,,,,,
,,,,,V3_006,18,MALE,2024-10-13_19h28.51.866,jersey_experiment_5_v3,2023.2.2,Win32,59.88023952,,,,,,,,,,,,,,,,1391.1805,1392.4801,1392.4802,1394.8133,return,0.6552,,75.06944444,,,,,,FBP-PT-81.png,0.45,1.2,25,0.5,,,,,,,,,,,,,,,,,,0,50,50,24,1,,,,,,,,,,,,,,,,,,,,,,,
,,,,,V3_006,18,MALE,2024-10-13_19h28.51.866,jersey_experiment_5_v3,2023.2.2,Win32,59.88023952,,,,,,,,,,,,,,,,1394.8137,1396.1136,1396.1136,1397.1307,return,0.3071,,50.13888889,,,,,,FBP-PT-71.png,0.37,1.2,17,0.5,,,,,,,,,,,,,,,,,,0,51,51,16,1,,,,,,,,,,,,,,,,,,,,,,,
,,,,,V3_006,18,MALE,2024-10-13_19h28.51.866,jersey_experiment_5_v3,2023.2.2,Win32,59.88023952,,,,,,,,,,,,,,,,1397.1313,1398.4301,1398.4301,1400.0969,return,0.5359,,74.72222222,,,,,,FBP-PT-91.png,0.43,1.2,29,0.5,,,,,,,,,,,,,,,,,,0,52,52,28,1,,,,,,,,,,,,,,,,,,,,,,,
,,,,,V3_006,18,MALE,2024-10-13_19h28.51.866,jersey_experiment_5_v3,2023.2.2,Win32,59.88023952,,,,,,,,,,,,,,,,1400.0971,1401.3967,1401.3967,1403.2632,return,0.652,,50,,,,,,FBP-RB-71.png,0.37,1.2,47,0.5,,,,,,,,,,,,,,,,,,0,53,53,46,1,,,,,,,,,,,,,,,,,,,,,,,
,,,,,V3_006,18,MALE,2024-10-13_19h28.51.866,jersey_experiment_5_v3,2023.2.2,Win32,59.88023952,,,,,,,,,,,,,,,,1403.2636,1404.5637,1404.5638,1406.43,return,0.2681,,38.26388889,,,,,,FBP-PT-71.png,0.35,1.2,16,0.5,,,,,,,,,,,,,,,,,,0,54,54,15,1,,,,,,,,,,,,,,,,,,,,,,,
,,,,,V3_006,18,MALE,2024-10-13_19h28.51.866,jersey_experiment_5_v3,2023.2.2,Win32,59.88023952,,,,,,,,,,,,,,,,1406.4303,1407.7305,1407.7306,1409.4136,return,0.5985,,49.72222222,,,,,,FBP-PT-81.png,0.37,1.2,22,0.5,,,,,,,,,,,,,,,,,,0,55,55,21,1,,,,,,,,,,,,,,,,,,,,,,,
,,,,,V3_006,18,MALE,2024-10-13_19h28.51.866,jersey_experiment_5_v3,2023.2.2,Win32,59.88023952,,,,,,,,,,,,,,,,1409.414,1410.9639,1410.964,1412.6967,return,1.0257,,49.86111111,,,,,,FBP-OG-81.png,0.37,1.2,37,0.75,,,,,,,,,,,,,,,,,,0,56,56,36,1,,,,,,,,,,,,,,,,,,,,,,,
,,,,,V3_006,18,MALE,2024-10-13_19h28.51.866,jersey_experiment_5_v3,2023.2.2,Win32,59.88023952,,,,,,,,,,,,,,,,1412.6971,1413.9967,1413.9968,1415.4477,return,0.3939,,50,,,,,,FBP-YG-17.png,0.37,1.2,2,0.5,,,,,,,,,,,,,,,,,,0,57,57,1,1,,,,,,,,,,,,,,,,,,,,,,,
,,,,,V3_006,18,MALE,2024-10-13_19h28.51.866,jersey_experiment_5_v3,2023.2.2,Win32,59.88023952,,,,,,,,,,,,,,,,1415.4481,1416.7467,1416.7467,1418.4138,return,0.2196,,57.08333333,,,,,,FBP-YG-17.png,0.4,1.2,3,0.5,,,,,,,,,,,,,,,,,,0,58,58,2,1,,,,,,,,,,,,,,,,,,,,,,,
,,,,,V3_006,18,MALE,2024-10-13_19h28.51.866,jersey_experiment_5_v3,2023.2.2,Win32,59.88023952,,,,,,,,,,,,,,,,1418.4141,1419.7134,1419.7134,1420.9637,return,0.0657,,65.06944444,,,,,,FBP-PT-71.png,0.43,1.2,19,0.5,,,,,,,,,,,,,,,,,,0,59,59,18,1,,,,,,,,,,,,,,,,,,,,,,,
,,,,,V3_006,18,MALE,2024-10-13_19h28.51.866,jersey_experiment_5_v3,2023.2.2,Win32,59.88023952,,,,,,,,,,,,,,,,,,,,,,,,,,,,,,,,,,,,,,,,,,,,,,,,,,,,,,,,1420.9642,1427.0143,return,6.0304,,,,,,,,,,,,,,,,,,,
,,,,,V3_006,18,MALE,2024-10-13_19h28.51.866,jersey_experiment_5_v3,2023.2.2,Win32,59.88023952,,,,,,,,,,,,,,,,,,,,,,,,,,,,,,,,,,,,,,,,,,,,,,,,,,,,,,,,,,,,,1427.0145,1437.5312,1,8.6577,return,1.8384,,,,,,,,,,,,
,,,,,V3_006,18,MALE,2024-10-13_19h28.51.866,jersey_experiment_5_v3,2023.2.2,Win32,59.88023952,,,,,,,,,,,,,,,,,,,,,,,,,,,,,,,,,,,,,,,,,,,,,,,,,,,,,,,,,,,,,,,,,,,,1437.5315,1513.1274,"At the start I thought it might have to do with the numbers, color of skin, or jersey color. I didn't recognize any patterns except that it seemed like the same people were coming up repeatedly.",right,70.6068,,,,,,
,,,,,V3_006,18,MALE,2024-10-13_19h28.51.866,jersey_experiment_5_v3,2023.2.2,Win32,59.88023952,,,,,,,,,,,,,,,,,,,,,,,,,,,,,,,,,,,,,,,,,,,,,,,,,,,,,,,,,,,,,,,,,,,,,,,,,,1513.1277,1516.2141,return,3.0777,