requirements.started,requirements.stopped,key_resp_3.keys,key_resp_3.rt,key_resp_3.duration,Subject ID,Age,Gender,date,expName,psychopyVersion,OS,frameRate,instructions1.started,instructions1.stopped,key_resp.keys,key_resp.rt,key_resp.duration,example.started,example.stopped,enter_2.keys,enter_2.rt,enter_2.duration,instructions2.started,instructions2.stopped,enter_3.keys,enter_3.rt,enter_3.duration,image.started,image.stopped,slider_2.started,slider_2.stopped,next.keys,next.rt,next.duration,slider.response,trial_block_1.thisRepN,trial_block_1.thisTrialN,trial_block_1.thisN,trial_block_1.thisIndex,trial_block_1.ran,Path,Width,Height,Index,Duration,trial_block_2.thisRepN,trial_block_2.thisTrialN,trial_block_2.thisN,trial_block_2.thisIndex,trial_block_2.ran,rest_break.started,rest_break.stopped,end_break.started,end_break.stopped,key_resp_5.keys,key_resp_5.rt,key_resp_5.duration,trial_block_3.thisRepN,trial_block_3.thisTrialN,trial_block_3.thisN,trial_block_3.thisIndex,trial_block_3.ran,trial_block_4.thisRepN,trial_block_4.thisTrialN,trial_block_4.thisN,trial_block_4.thisIndex,trial_block_4.ran,questions_intro.started,questions_intro.stopped,enter_12.keys,enter_12.rt,enter_12.duration,question2.started,question2.stopped,question_doingbest.response,question_doingbest.rt,enter_15.keys,enter_15.rt,enter_15.duration,pattern.started,pattern.stopped,pattern_2.text,enter_17.keys,enter_17.rt,enter_17.duration,thankyou.started,thankyou.stopped,enter_14.keys,enter_14.rt,enter_14.duration
0.0001,14.2124,return,14.2073,,V3_043,19,Female,2024-11-01_17h01.46.958,jersey_experiment_5_v3,2023.2.2,Win32,84.74576271,,,,,,,,,,,,,,,,,,,,,,,,,,,,,,,,,,,,,,,,,,,,,,,,,,,,,,,,,,,,,,,,,,,,,,,,,,,,,,
,,,,,V3_043,19,Female,2024-11-01_17h01.46.958,jersey_experiment_5_v3,2023.2.2,Win32,84.74576271,14.2125,25.2396,return,11.0122,,,,,,,,,,,,,,,,,,,,,,,,,,,,,,,,,,,,,,,,,,,,,,,,,,,,,,,,,,,,,,,,,,,,,,,,,,
,,,,,V3_043,19,Female,2024-11-01_17h01.46.958,jersey_experiment_5_v3,2023.2.2,Win32,84.74576271,,,,,,25.2396,31.9629,return,6.6883,,,,,,,,,,,,,,,,,,,,,,,,,,,,,,,,,,,,,,,,,,,,,,,,,,,,,,,,,,,,,,,,,,,,,
,,,,,V3_043,19,Female,2024-11-01_17h01.46.958,jersey_experiment_5_v3,2023.2.2,Win32,84.74576271,,,,,,,,,,,31.9631,52.5518,return,20.5734,,,,,,,,,,,,,,,,,,,,,,,,,,,,,,,,,,,,,,,,,,,,,,,,,,,,,,,,,,,,,,,,
,,,,,V3_043,19,Female,2024-11-01_17h01.46.958,jersey_experiment_5_v3,2023.2.2,Win32,84.74576271,,,,,,,,,,,,,,,,52.5557,54.1048,54.105,71.2819,return,6.8755,,74.08854167,0,0,0,28,1,FBP-PT-19.png,0.43,1.2,29,0.75,,,,,,,,,,,,,,,,,,,,,,,,,,,,,,,,,,,,,,,,,,,,,
,,,,,V3_043,19,Female,2024-11-01_17h01.46.958,jersey_experiment_5_v3,2023.2.2,Win32,84.74576271,,,,,,,,,,,,,,,,71.2823,72.8347,72.8347,77.9408,return,2.2982,,25.26041667,0,1,1,15,1,FBP-PT-17.png,0.35,1.2,16,0.75,,,,,,,,,,,,,,,,,,,,,,,,,,,,,,,,,,,,,,,,,,,,,
,,,,,V3_043,19,Female,2024-11-01_17h01.46.958,jersey_experiment_5_v3,2023.2.2,Win32,84.74576271,,,,,,,,,,,,,,,,77.9411,79.4936,79.4937,84.741,return,2.0931,,60.28645833,0,2,2,2,1,FBP-YG-71.png,0.4,1.2,3,0.75,,,,,,,,,,,,,,,,,,,,,,,,,,,,,,,,,,,,,,,,,,,,,
,,,,,V3_043,19,Female,2024-11-01_17h01.46.958,jersey_experiment_5_v3,2023.2.2,Win32,84.74576271,,,,,,,,,,,,,,,,84.7413,86.0352,86.0352,92.8355,return,1.0751,,62.5,0,3,3,37,1,FBP-OG-18.png,0.4,1.2,38,0.5,,,,,,,,,,,,,,,,,,,,,,,,,,,,,,,,,,,,,,,,,,,,,
,,,,,V3_043,19,Female,2024-11-01_17h01.46.958,jersey_experiment_5_v3,2023.2.2,Win32,84.74576271,,,,,,,,,,,,,,,,92.8357,94.3883,94.3884,98.8709,return,1.4603,,28.515625,0,4,4,20,1,FBP-PT-18.png,0.35,1.2,21,0.75,,,,,,,,,,,,,,,,,,,,,,,,,,,,,,,,,,,,,,,,,,,,,
,,,,,V3_043,19,Female,2024-11-01_17h01.46.958,jersey_experiment_5_v3,2023.2.2,Win32,84.74576271,,,,,,,,,,,,,,,,98.8711,100.1651,100.1652,105.5419,return,1.2244,,31.25,0,5,5,30,1,FBP-OG-17.png,0.35,1.2,31,0.5,,,,,,,,,,,,,,,,,,,,,,,,,,,,,,,,,,,,,,,,,,,,,
,,,,,V3_043,19,Female,2024-11-01_17h01.46.958,jersey_experiment_5_v3,2023.2.2,Win32,84.74576271,,,,,,,,,,,,,,,,105.5421,107.0947,107.0947,110.389,return,0.556,,94.40104167,0,6,6,49,1,FBP-RB-17.png,0.45,1.2,50,0.75,,,,,,,,,,,,,,,,,,,,,,,,,,,,,,,,,,,,,,,,,,,,,
,,,,,V3_043,19,Female,2024-11-01_17h01.46.958,jersey_experiment_5_v3,2023.2.2,Win32,84.74576271,,,,,,,,,,,,,,,,110.3893,111.9419,111.942,115.0009,return,1.566,,99.86979167,0,7,7,54,1,FBP-RB-18.png,0.45,1.2,55,0.75,,,,,,,,,,,,,,,,,,,,,,,,,,,,,,,,,,,,,,,,,,,,,
,,,,,V3_043,19,Female,2024-11-01_17h01.46.958,jersey_experiment_5_v3,2023.2.2,Win32,84.74576271,,,,,,,,,,,,,,,,115.001,116.2951,116.2951,119.0129,return,0.6025,,99.47916667,0,8,8,33,1,FBP-OG-17.png,0.43,1.2,34,0.5,,,,,,,,,,,,,,,,,,,,,,,,,,,,,,,,,,,,,,,,,,,,,
,,,,,V3_043,19,Female,2024-11-01_17h01.46.958,jersey_experiment_5_v3,2023.2.2,Win32,84.74576271,,,,,,,,,,,,,,,,119.013,120.5657,120.5657,123.2482,return,0.745,,99.34895833,0,9,9,14,1,FBP-YG-91.png,0.45,1.2,15,0.75,,,,,,,,,,,,,,,,,,,,,,,,,,,,,,,,,,,,,,,,,,,,,
,,,,,V3_043,19,Female,2024-11-01_17h01.46.958,jersey_experiment_5_v3,2023.2.2,Win32,84.74576271,,,,,,,,,,,,,,,,123.2484,124.8013,124.8013,133.0134,return,6.4131,,24.73958333,0,10,10,52,1,FBP-RB-18.png,0.4,1.2,53,0.75,,,,,,,,,,,,,,,,,,,,,,,,,,,,,,,,,,,,,,,,,,,,,
,,,,,V3_043,19,Female,2024-11-01_17h01.46.958,jersey_experiment_5_v3,2023.2.2,Win32,84.74576271,,,,,,,,,,,,,,,,133.0136,134.5663,134.5664,136.9782,return,0.2999,,21.484375,0,11,11,51,1,FBP-RB-18.png,0.37,1.2,52,0.75,,,,,,,,,,,,,,,,,,,,,,,,,,,,,,,,,,,,,,,,,,,,,
,,,,,V3_043,19,Female,2024-11-01_17h01.46.958,jersey_experiment_5_v3,2023.2.2,Win32,84.74576271,,,,,,,,,,,,,,,,136.9784,138.5312,138.5312,142.096,return,0.9963,,83.46354167,0,12,12,58,1,FBP-RB-19.png,0.43,1.2,59,0.75,,,,,,,,,,,,,,,,,,,,,,,,,,,,,,,,,,,,,,,,,,,,,
,,,,,V3_043,19,Female,2024-11-01_17h01.46.958,jersey_experiment_5_v3,2023.2.2,Win32,84.74576271,,,,,,,,,,,,,,,,142.0962,143.3901,143.3902,147.4726,return,0.3486,,10.41666667,0,13,13,40,1,FBP-OG-19.png,0.35,1.2,41,0.5,,,,,,,,,,,,,,,,,,,,,,,,,,,,,,,,,,,,,,,,,,,,,
,,,,,V3_043,19,Female,2024-11-01_17h01.46.958,jersey_experiment_5_v3,2023.2.2,Win32,84.74576271,,,,,,,,,,,,,,,,147.4728,149.0258,149.0258,152.3081,return,0.851,,93.48958333,0,14,14,19,1,FBP-PT-17.png,0.45,1.2,20,0.75,,,,,,,,,,,,,,,,,,,,,,,,,,,,,,,,,,,,,,,,,,,,,
,,,,,V3_043,19,Female,2024-11-01_17h01.46.958,jersey_experiment_5_v3,2023.2.2,Win32,84.74576271,,,,,,,,,,,,,,,,152.3083,153.8611,153.8611,156.1199,return,0.5029,,82.16145833,0,15,15,3,1,FBP-YG-71.png,0.43,1.2,4,0.75,,,,,,,,,,,,,,,,,,,,,,,,,,,,,,,,,,,,,,,,,,,,,
,,,,,V3_043,19,Female,2024-11-01_17h01.46.958,jersey_experiment_5_v3,2023.2.2,Win32,84.74576271,,,,,,,,,,,,,,,,156.1202,157.673,157.673,160.5202,return,0.5652,,86.06770833,0,16,16,12,1,FBP-YG-91.png,0.4,1.2,13,0.75,,,,,,,,,,,,,,,,,,,,,,,,,,,,,,,,,,,,,,,,,,,,,
,,,,,V3_043,19,Female,2024-11-01_17h01.46.958,jersey_experiment_5_v3,2023.2.2,Win32,84.74576271,,,,,,,,,,,,,,,,160.5204,161.8143,161.8144,170.5913,return,4.5582,,32.8125,0,17,17,35,1,FBP-OG-18.png,0.35,1.2,36,0.5,,,,,,,,,,,,,,,,,,,,,,,,,,,,,,,,,,,,,,,,,,,,,
,,,,,V3_043,19,Female,2024-11-01_17h01.46.958,jersey_experiment_5_v3,2023.2.2,Win32,84.74576271,,,,,,,,,,,,,,,,170.5915,172.144,172.1441,176.2973,return,0.3781,,54.6875,0,18,18,26,1,FBP-PT-19.png,0.37,1.2,27,0.75,,,,,,,,,,,,,,,,,,,,,,,,,,,,,,,,,,,,,,,,,,,,,
,,,,,V3_043,19,Female,2024-11-01_17h01.46.958,jersey_experiment_5_v3,2023.2.2,Win32,84.74576271,,,,,,,,,,,,,,,,176.2976,177.5913,177.5914,180.0502,return,0.5941,,72.91666667,0,19,19,43,1,FBP-OG-19.png,0.43,1.2,44,0.5,,,,,,,,,,,,,,,,,,,,,,,,,,,,,,,,,,,,,,,,,,,,,
,,,,,V3_043,19,Female,2024-11-01_17h01.46.958,jersey_experiment_5_v3,2023.2.2,Win32,84.74576271,,,,,,,,,,,,,,,,180.0505,181.5916,181.5917,184.4857,return,0.3063,,36.06770833,0,20,20,55,1,FBP-RB-19.png,0.35,1.2,56,0.75,,,,,,,,,,,,,,,,,,,,,,,,,,,,,,,,,,,,,,,,,,,,,
,,,,,V3_043,19,Female,2024-11-01_17h01.46.958,jersey_experiment_5_v3,2023.2.2,Win32,84.74576271,,,,,,,,,,,,,,,,184.4859,185.7799,185.7799,189.0152,return,0.1888,,72.78645833,0,21,21,32,1,FBP-OG-17.png,0.4,1.2,33,0.5,,,,,,,,,,,,,,,,,,,,,,,,,,,,,,,,,,,,,,,,,,,,,
,,,,,V3_043,19,Female,2024-11-01_17h01.46.958,jersey_experiment_5_v3,2023.2.2,Win32,84.74576271,,,,,,,,,,,,,,,,189.0155,190.5682,190.5684,193.839,return,0.6679,,26.04166667,0,22,22,45,1,FBP-RB-17.png,0.35,1.2,46,0.75,,,,,,,,,,,,,,,,,,,,,,,,,,,,,,,,,,,,,,,,,,,,,
,,,,,V3_043,19,Female,2024-11-01_17h01.46.958,jersey_experiment_5_v3,2023.2.2,Win32,84.74576271,,,,,,,,,,,,,,,,193.8393,195.3919,195.392,198.851,return,0.3424,,85.02604167,0,23,23,48,1,FBP-RB-17.png,0.43,1.2,49,0.75,,,,,,,,,,,,,,,,,,,,,,,,,,,,,,,,,,,,,,,,,,,,,
,,,,,V3_043,19,Female,2024-11-01_17h01.46.958,jersey_experiment_5_v3,2023.2.2,Win32,84.74576271,,,,,,,,,,,,,,,,198.8513,200.1451,200.1452,203.0746,return,1.6983,,75.390625,0,24,24,42,1,FBP-OG-19.png,0.4,1.2,43,0.5,,,,,,,,,,,,,,,,,,,,,,,,,,,,,,,,,,,,,,,,,,,,,
,,,,,V3_043,19,Female,2024-11-01_17h01.46.958,jersey_experiment_5_v3,2023.2.2,Win32,84.74576271,,,,,,,,,,,,,,,,203.0749,204.3688,204.3688,205.7217,return,0.3533,,85.67708333,0,25,25,38,1,FBP-OG-18.png,0.43,1.2,39,0.5,,,,,,,,,,,,,,,,,,,,,,,,,,,,,,,,,,,,,,,,,,,,,
,,,,,V3_043,19,Female,2024-11-01_17h01.46.958,jersey_experiment_5_v3,2023.2.2,Win32,84.74576271,,,,,,,,,,,,,,,,205.7219,207.2747,207.2748,209.1571,return,0.2854,,76.04166667,0,26,26,47,1,FBP-RB-17.png,0.4,1.2,48,0.75,,,,,,,,,,,,,,,,,,,,,,,,,,,,,,,,,,,,,,,,,,,,,
,,,,,V3_043,19,Female,2024-11-01_17h01.46.958,jersey_experiment_5_v3,2023.2.2,Win32,84.74576271,,,,,,,,,,,,,,,,209.1574,210.4513,210.4513,211.9572,return,0.1523,,96.61458333,0,27,27,39,1,FBP-OG-18.png,0.45,1.2,40,0.5,,,,,,,,,,,,,,,,,,,,,,,,,,,,,,,,,,,,,,,,,,,,,
,,,,,V3_043,19,Female,2024-11-01_17h01.46.958,jersey_experiment_5_v3,2023.2.2,Win32,84.74576271,,,,,,,,,,,,,,,,211.9574,213.5104,213.5105,219.3222,return,0.3532,,29.16666667,0,28,28,10,1,FBP-YG-91.png,0.35,1.2,11,0.75,,,,,,,,,,,,,,,,,,,,,,,,,,,,,,,,,,,,,,,,,,,,,
,,,,,V3_043,19,Female,2024-11-01_17h01.46.958,jersey_experiment_5_v3,2023.2.2,Win32,84.74576271,,,,,,,,,,,,,,,,219.3225,220.8753,220.8753,223.2872,return,0.3083,,87.76041667,0,29,29,13,1,FBP-YG-91.png,0.43,1.2,14,0.75,,,,,,,,,,,,,,,,,,,,,,,,,,,,,,,,,,,,,,,,,,,,,
,,,,,V3_043,19,Female,2024-11-01_17h01.46.958,jersey_experiment_5_v3,2023.2.2,Win32,84.74576271,,,,,,,,,,,,,,,,223.2873,224.8401,224.8401,235.1464,return,0.1436,,57.03125,0,30,30,29,1,FBP-PT-19.png,0.45,1.2,30,0.75,,,,,,,,,,,,,,,,,,,,,,,,,,,,,,,,,,,,,,,,,,,,,
,,,,,V3_043,19,Female,2024-11-01_17h01.46.958,jersey_experiment_5_v3,2023.2.2,Win32,84.74576271,,,,,,,,,,,,,,,,235.1466,236.4405,236.4406,238.0523,return,0.2623,,35.15625,0,31,31,31,1,FBP-OG-17.png,0.37,1.2,32,0.5,,,,,,,,,,,,,,,,,,,,,,,,,,,,,,,,,,,,,,,,,,,,,
,,,,,V3_043,19,Female,2024-11-01_17h01.46.958,jersey_experiment_5_v3,2023.2.2,Win32,84.74576271,,,,,,,,,,,,,,,,238.0526,239.6054,239.6054,241.5584,return,0.1291,,61.84895833,0,32,32,27,1,FBP-PT-19.png,0.4,1.2,28,0.75,,,,,,,,,,,,,,,,,,,,,,,,,,,,,,,,,,,,,,,,,,,,,
,,,,,V3_043,19,Female,2024-11-01_17h01.46.958,jersey_experiment_5_v3,2023.2.2,Win32,84.74576271,,,,,,,,,,,,,,,,241.5587,243.1114,243.1114,245.029,return,1.3323,,75,0,33,33,24,1,FBP-PT-18.png,0.45,1.2,25,0.75,,,,,,,,,,,,,,,,,,,,,,,,,,,,,,,,,,,,,,,,,,,,,
,,,,,V3_043,19,Female,2024-11-01_17h01.46.958,jersey_experiment_5_v3,2023.2.2,Win32,84.74576271,,,,,,,,,,,,,,,,245.0293,246.582,246.582,248.3116,return,0.1256,,63.02083333,0,34,34,57,1,FBP-RB-19.png,0.4,1.2,58,0.75,,,,,,,,,,,,,,,,,,,,,,,,,,,,,,,,,,,,,,,,,,,,,
,,,,,V3_043,19,Female,2024-11-01_17h01.46.958,jersey_experiment_5_v3,2023.2.2,Win32,84.74576271,,,,,,,,,,,,,,,,248.3118,249.6057,249.6057,252.5468,return,1.4874,,83.59375,0,35,35,34,1,FBP-OG-17.png,0.45,1.2,35,0.5,,,,,,,,,,,,,,,,,,,,,,,,,,,,,,,,,,,,,,,,,,,,,
,,,,,V3_043,19,Female,2024-11-01_17h01.46.958,jersey_experiment_5_v3,2023.2.2,Win32,84.74576271,,,,,,,,,,,,,,,,252.5471,254.0883,254.0884,256.9941,return,1.4041,,19.66145833,0,36,36,16,1,FBP-PT-17.png,0.37,1.2,17,0.75,,,,,,,,,,,,,,,,,,,,,,,,,,,,,,,,,,,,,,,,,,,,,
,,,,,V3_043,19,Female,2024-11-01_17h01.46.958,jersey_experiment_5_v3,2023.2.2,Win32,84.74576271,,,,,,,,,,,,,,,,256.9944,258.5472,258.5472,260.8178,return,0.2764,,74.609375,0,37,37,4,1,FBP-YG-71.png,0.45,1.2,5,0.75,,,,,,,,,,,,,,,,,,,,,,,,,,,,,,,,,,,,,,,,,,,,,
,,,,,V3_043,19,Female,2024-11-01_17h01.46.958,jersey_experiment_5_v3,2023.2.2,Win32,84.74576271,,,,,,,,,,,,,,,,260.818,262.3708,262.3708,267.0299,return,1.9531,,34.50520833,0,38,38,11,1,FBP-YG-91.png,0.37,1.2,12,0.75,,,,,,,,,,,,,,,,,,,,,,,,,,,,,,,,,,,,,,,,,,,,,
,,,,,V3_043,19,Female,2024-11-01_17h01.46.958,jersey_experiment_5_v3,2023.2.2,Win32,84.74576271,,,,,,,,,,,,,,,,267.0302,268.5829,268.5829,270.7593,return,0.8344,,74.34895833,0,39,39,23,1,FBP-PT-18.png,0.43,1.2,24,0.75,,,,,,,,,,,,,,,,,,,,,,,,,,,,,,,,,,,,,,,,,,,,,
,,,,,V3_043,19,Female,2024-11-01_17h01.46.958,jersey_experiment_5_v3,2023.2.2,Win32,84.74576271,,,,,,,,,,,,,,,,270.7595,272.0535,272.0536,275.4889,return,0.1952,,35.80729167,0,40,40,36,1,FBP-OG-18.png,0.37,1.2,37,0.5,,,,,,,,,,,,,,,,,,,,,,,,,,,,,,,,,,,,,,,,,,,,,
,,,,,V3_043,19,Female,2024-11-01_17h01.46.958,jersey_experiment_5_v3,2023.2.2,Win32,84.74576271,,,,,,,,,,,,,,,,275.4893,277.0419,277.042,281.2538,return,0.1903,,57.03125,0,41,41,7,1,FBP-YG-81.png,0.4,1.2,8,0.75,,,,,,,,,,,,,,,,,,,,,,,,,,,,,,,,,,,,,,,,,,,,,
,,,,,V3_043,19,Female,2024-11-01_17h01.46.958,jersey_experiment_5_v3,2023.2.2,Win32,84.74576271,,,,,,,,,,,,,,,,281.2541,282.8068,282.8068,284.2775,return,0.1786,,31.25,0,42,42,46,1,FBP-RB-17.png,0.37,1.2,47,0.75,,,,,,,,,,,,,,,,,,,,,,,,,,,,,,,,,,,,,,,,,,,,,
,,,,,V3_043,19,Female,2024-11-01_17h01.46.958,jersey_experiment_5_v3,2023.2.2,Win32,84.74576271,,,,,,,,,,,,,,,,284.2778,285.8305,285.8305,287.7481,return,0.1782,,24.86979167,0,43,43,50,1,FBP-RB-18.png,0.35,1.2,51,0.75,,,,,,,,,,,,,,,,,,,,,,,,,,,,,,,,,,,,,,,,,,,,,
,,,,,V3_043,19,Female,2024-11-01_17h01.46.958,jersey_experiment_5_v3,2023.2.2,Win32,84.74576271,,,,,,,,,,,,,,,,287.7484,289.3012,289.3012,290.5483,return,0.2153,,36.58854167,0,44,44,56,1,FBP-RB-19.png,0.37,1.2,57,0.75,,,,,,,,,,,,,,,,,,,,,,,,,,,,,,,,,,,,,,,,,,,,,
,,,,,V3_043,19,Female,2024-11-01_17h01.46.958,jersey_experiment_5_v3,2023.2.2,Win32,84.74576271,,,,,,,,,,,,,,,,290.5486,292.1013,292.1013,295.2426,return,0.3289,,74.609375,0,45,45,9,1,FBP-YG-81.png,0.45,1.2,10,0.75,,,,,,,,,,,,,,,,,,,,,,,,,,,,,,,,,,,,,,,,,,,,,
,,,,,V3_043,19,Female,2024-11-01_17h01.46.958,jersey_experiment_5_v3,2023.2.2,Win32,84.74576271,,,,,,,,,,,,,,,,295.2429,296.7955,296.7956,299.5604,return,0.1885,,23.69791667,0,46,46,5,1,FBP-YG-81.png,0.35,1.2,6,0.75,,,,,,,,,,,,,,,,,,,,,,,,,,,,,,,,,,,,,,,,,,,,,
,,,,,V3_043,19,Female,2024-11-01_17h01.46.958,jersey_experiment_5_v3,2023.2.2,Win32,84.74576271,,,,,,,,,,,,,,,,299.5608,301.1135,301.1136,302.9135,return,0.277,,64.32291667,0,47,47,22,1,FBP-PT-18.png,0.4,1.2,23,0.75,,,,,,,,,,,,,,,,,,,,,,,,,,,,,,,,,,,,,,,,,,,,,
,,,,,V3_043,19,Female,2024-11-01_17h01.46.958,jersey_experiment_5_v3,2023.2.2,Win32,84.74576271,,,,,,,,,,,,,,,,302.9137,304.4664,304.4664,316.7139,return,2.6122,,60.546875,0,48,48,6,1,FBP-YG-81.png,0.37,1.2,7,0.75,,,,,,,,,,,,,,,,,,,,,,,,,,,,,,,,,,,,,,,,,,,,,
,,,,,V3_043,19,Female,2024-11-01_17h01.46.958,jersey_experiment_5_v3,2023.2.2,Win32,84.74576271,,,,,,,,,,,,,,,,316.7142,318.0081,318.0082,321.3612,return,0.2164,,27.47395833,0,49,49,41,1,FBP-OG-19.png,0.37,1.2,42,0.5,,,,,,,,,,,,,,,,,,,,,,,,,,,,,,,,,,,,,,,,,,,,,
,,,,,V3_043,19,Female,2024-11-01_17h01.46.958,jersey_experiment_5_v3,2023.2.2,Win32,84.74576271,,,,,,,,,,,,,,,,321.3615,322.9141,322.9141,326.0203,return,0.8493,,75,0,50,50,8,1,FBP-YG-81.png,0.43,1.2,9,0.75,,,,,,,,,,,,,,,,,,,,,,,,,,,,,,,,,,,,,,,,,,,,,
,,,,,V3_043,19,Female,2024-11-01_17h01.46.958,jersey_experiment_5_v3,2023.2.2,Win32,84.74576271,,,,,,,,,,,,,,,,326.0205,327.5731,327.5732,331.8792,return,0.8157,,61.71875,0,51,51,17,1,FBP-PT-17.png,0.4,1.2,18,0.75,,,,,,,,,,,,,,,,,,,,,,,,,,,,,,,,,,,,,,,,,,,,,
,,,,,V3_043,19,Female,2024-11-01_17h01.46.958,jersey_experiment_5_v3,2023.2.2,Win32,84.74576271,,,,,,,,,,,,,,,,331.8795,333.4322,333.4322,335.5147,return,0.2825,,12.36979167,0,52,52,0,1,FBP-YG-71.png,0.35,1.2,1,0.75,,,,,,,,,,,,,,,,,,,,,,,,,,,,,,,,,,,,,,,,,,,,,
,,,,,V3_043,19,Female,2024-11-01_17h01.46.958,jersey_experiment_5_v3,2023.2.2,Win32,84.74576271,,,,,,,,,,,,,,,,335.5149,337.0675,337.0676,339.2324,return,0.2042,,80.59895833,0,53,53,18,1,FBP-PT-17.png,0.43,1.2,19,0.75,,,,,,,,,,,,,,,,,,,,,,,,,,,,,,,,,,,,,,,,,,,,,
,,,,,V3_043,19,Female,2024-11-01_17h01.46.958,jersey_experiment_5_v3,2023.2.2,Win32,84.74576271,,,,,,,,,,,,,,,,339.2326,340.5266,340.5267,345.6796,return,2.1342,,91.53645833,0,54,54,44,1,FBP-OG-19.png,0.45,1.2,45,0.5,,,,,,,,,,,,,,,,,,,,,,,,,,,,,,,,,,,,,,,,,,,,,
,,,,,V3_043,19,Female,2024-11-01_17h01.46.958,jersey_experiment_5_v3,2023.2.2,Win32,84.74576271,,,,,,,,,,,,,,,,345.6799,347.2327,347.2328,349.1739,return,0.1889,,32.29166667,0,55,55,21,1,FBP-PT-18.png,0.37,1.2,22,0.75,,,,,,,,,,,,,,,,,,,,,,,,,,,,,,,,,,,,,,,,,,,,,
,,,,,V3_043,19,Female,2024-11-01_17h01.46.958,jersey_experiment_5_v3,2023.2.2,Win32,84.74576271,,,,,,,,,,,,,,,,349.1742,350.7153,350.7153,352.1034,return,0.1887,,75.52083333,0,56,56,59,1,FBP-RB-19.png,0.45,1.2,60,0.75,,,,,,,,,,,,,,,,,,,,,,,,,,,,,,,,,,,,,,,,,,,,,
,,,,,V3_043,19,Female,2024-11-01_17h01.46.958,jersey_experiment_5_v3,2023.2.2,Win32,84.74576271,,,,,,,,,,,,,,,,352.1036,353.6449,353.6449,355.7624,return,0.5924,,25.91145833,0,57,57,25,1,FBP-PT-19.png,0.35,1.2,26,0.75,,,,,,,,,,,,,,,,,,,,,,,,,,,,,,,,,,,,,,,,,,,,,
,,,,,V3_043,19,Female,2024-11-01_17h01.46.958,jersey_experiment_5_v3,2023.2.2,Win32,84.74576271,,,,,,,,,,,,,,,,355.7627,357.3154,357.3154,358.9979,return,0.4254,,59.24479167,0,58,58,53,1,FBP-RB-18.png,0.43,1.2,54,0.75,,,,,,,,,,,,,,,,,,,,,,,,,,,,,,,,,,,,,,,,,,,,,
,,,,,V3_043,19,Female,2024-11-01_17h01.46.958,jersey_experiment_5_v3,2023.2.2,Win32,84.74576271,,,,,,,,,,,,,,,,358.9981,360.5508,360.5509,362.3863,return,0.3215,,26.04166667,0,59,59,1,1,FBP-YG-71.png,0.37,1.2,2,0.75,,,,,,,,,,,,,,,,,,,,,,,,,,,,,,,,,,,,,,,,,,,,,
,,,,,V3_043,19,Female,2024-11-01_17h01.46.958,jersey_experiment_5_v3,2023.2.2,Win32,84.74576271,,,,,,,,,,,,,,,,362.3888,363.9392,363.9392,369.7158,return,0.1803,,41.40625,,,,,,FBP-PT-91.png,0.37,1.2,27,0.75,0,0,0,26,1,,,,,,,,,,,,,,,,,,,,,,,,,,,,,,,,,,,,,,,,
,,,,,V3_043,19,Female,2024-11-01_17h01.46.958,jersey_experiment_5_v3,2023.2.2,Win32,84.74576271,,,,,,,,,,,,,,,,369.7163,371.269,371.2691,372.1042,return,0.1282,,58.984375,,,,,,FBP-PT-71.png,0.4,1.2,18,0.75,0,1,1,17,1,,,,,,,,,,,,,,,,,,,,,,,,,,,,,,,,,,,,,,,,
,,,,,V3_043,19,Female,2024-11-01_17h01.46.958,jersey_experiment_5_v3,2023.2.2,Win32,84.74576271,,,,,,,,,,,,,,,,372.1043,373.6572,373.6572,375.8573,return,0.2381,,56.51041667,,,,,,FBP-RB-81.png,0.37,1.2,52,0.75,0,2,2,51,1,,,,,,,,,,,,,,,,,,,,,,,,,,,,,,,,,,,,,,,,
,,,,,V3_043,19,Female,2024-11-01_17h01.46.958,jersey_experiment_5_v3,2023.2.2,Win32,84.74576271,,,,,,,,,,,,,,,,375.8576,377.1513,377.1514,379.1397,return,0.1772,,85.546875,,,,,,FBP-OG-81.png,0.45,1.2,40,0.5,0,3,3,39,1,,,,,,,,,,,,,,,,,,,,,,,,,,,,,,,,,,,,,,,,
,,,,,V3_043,19,Female,2024-11-01_17h01.46.958,jersey_experiment_5_v3,2023.2.2,Win32,84.74576271,,,,,,,,,,,,,,,,379.1399,380.6926,380.6927,384.234,return,1.4983,,75.390625,,,,,,FBP-PT-81.png,0.4,1.2,23,0.75,0,4,4,22,1,,,,,,,,,,,,,,,,,,,,,,,,,,,,,,,,,,,,,,,,
,,,,,V3_043,19,Female,2024-11-01_17h01.46.958,jersey_experiment_5_v3,2023.2.2,Win32,84.74576271,,,,,,,,,,,,,,,,384.2342,385.787,385.7871,387.799,return,0.3537,,90.49479167,,,,,,FBP-PT-91.png,0.43,1.2,29,0.75,0,5,5,28,1,,,,,,,,,,,,,,,,,,,,,,,,,,,,,,,,,,,,,,,,
,,,,,V3_043,19,Female,2024-11-01_17h01.46.958,jersey_experiment_5_v3,2023.2.2,Win32,84.74576271,,,,,,,,,,,,,,,,387.7993,389.3518,389.3519,390.8226,return,0.2982,,89.0625,,,,,,FBP-RB-81.png,0.43,1.2,54,0.75,0,6,6,53,1,,,,,,,,,,,,,,,,,,,,,,,,,,,,,,,,,,,,,,,,
,,,,,V3_043,19,Female,2024-11-01_17h01.46.958,jersey_experiment_5_v3,2023.2.2,Win32,84.74576271,,,,,,,,,,,,,,,,390.8228,392.3756,392.3757,393.5873,return,0.2952,,99.73958333,,,,,,FBP-PT-71.png,0.45,1.2,20,0.75,0,7,7,19,1,,,,,,,,,,,,,,,,,,,,,,,,,,,,,,,,,,,,,,,,
,,,,,V3_043,19,Female,2024-11-01_17h01.46.958,jersey_experiment_5_v3,2023.2.2,Win32,84.74576271,,,,,,,,,,,,,,,,393.5875,394.8815,394.8816,397.5992,return,0.4313,,94.53125,,,,,,FBP-OG-91.png,0.43,1.2,44,0.5,0,8,8,43,1,,,,,,,,,,,,,,,,,,,,,,,,,,,,,,,,,,,,,,,,
,,,,,V3_043,19,Female,2024-11-01_17h01.46.958,jersey_experiment_5_v3,2023.2.2,Win32,84.74576271,,,,,,,,,,,,,,,,397.5995,399.1524,399.1524,402.9641,return,0.4965,,31.51041667,,,,,,FBP-RB-91.png,0.35,1.2,56,0.75,0,9,9,55,1,,,,,,,,,,,,,,,,,,,,,,,,,,,,,,,,,,,,,,,,
,,,,,V3_043,19,Female,2024-11-01_17h01.46.958,jersey_experiment_5_v3,2023.2.2,Win32,84.74576271,,,,,,,,,,,,,,,,402.9644,404.5173,404.5173,406.2229,return,0.1364,,99.609375,,,,,,FBP-PT-91.png,0.45,1.2,30,0.75,0,10,10,29,1,,,,,,,,,,,,,,,,,,,,,,,,,,,,,,,,,,,,,,,,
,,,,,V3_043,19,Female,2024-11-01_17h01.46.958,jersey_experiment_5_v3,2023.2.2,Win32,84.74576271,,,,,,,,,,,,,,,,406.2232,407.7645,407.7645,410.3292,return,0.226,,30.46875,,,,,,FBP-YG-17.png,0.35,1.2,1,0.75,0,11,11,0,1,,,,,,,,,,,,,,,,,,,,,,,,,,,,,,,,,,,,,,,,
,,,,,V3_043,19,Female,2024-11-01_17h01.46.958,jersey_experiment_5_v3,2023.2.2,Win32,84.74576271,,,,,,,,,,,,,,,,410.3294,411.882,411.8822,415.5528,return,0.6402,,62.76041667,,,,,,FBP-YG-17.png,0.4,1.2,3,0.75,0,12,12,2,1,,,,,,,,,,,,,,,,,,,,,,,,,,,,,,,,,,,,,,,,
,,,,,V3_043,19,Female,2024-11-01_17h01.46.958,jersey_experiment_5_v3,2023.2.2,Win32,84.74576271,,,,,,,,,,,,,,,,415.553,417.1057,417.1057,418.4353,return,0.0987,,40.36458333,,,,,,FBP-RB-71.png,0.37,1.2,47,0.75,0,13,13,46,1,,,,,,,,,,,,,,,,,,,,,,,,,,,,,,,,,,,,,,,,
,,,,,V3_043,19,Female,2024-11-01_17h01.46.958,jersey_experiment_5_v3,2023.2.2,Win32,84.74576271,,,,,,,,,,,,,,,,418.4355,419.9883,419.9883,422.3531,return,0.1441,,87.5,,,,,,FBP-YG-18.png,0.45,1.2,10,0.75,0,14,14,9,1,,,,,,,,,,,,,,,,,,,,,,,,,,,,,,,,,,,,,,,,
,,,,,V3_043,19,Female,2024-11-01_17h01.46.958,jersey_experiment_5_v3,2023.2.2,Win32,84.74576271,,,,,,,,,,,,,,,,422.3534,423.6473,423.6474,425.4591,return,0.0635,,76.953125,,,,,,FBP-OG-81.png,0.4,1.2,38,0.5,0,15,15,37,1,,,,,,,,,,,,,,,,,,,,,,,,,,,,,,,,,,,,,,,,
,,,,,V3_043,19,Female,2024-11-01_17h01.46.958,jersey_experiment_5_v3,2023.2.2,Win32,84.74576271,,,,,,,,,,,,,,,,425.4593,427.0122,427.0122,430.1298,return,0.1943,,28.77604167,,,,,,FBP-RB-71.png,0.35,1.2,46,0.75,0,16,16,45,1,,,,,,,,,,,,,,,,,,,,,,,,,,,,,,,,,,,,,,,,
,,,,,V3_043,19,Female,2024-11-01_17h01.46.958,jersey_experiment_5_v3,2023.2.2,Win32,84.74576271,,,,,,,,,,,,,,,,430.13,431.6828,431.6828,432.871,return,0.155,,22.00520833,,,,,,FBP-PT-71.png,0.37,1.2,17,0.75,0,17,17,16,1,,,,,,,,,,,,,,,,,,,,,,,,,,,,,,,,,,,,,,,,
,,,,,V3_043,19,Female,2024-11-01_17h01.46.958,jersey_experiment_5_v3,2023.2.2,Win32,84.74576271,,,,,,,,,,,,,,,,432.8713,434.4242,434.4242,437.2243,return,0.2115,,55.078125,,,,,,FBP-YG-19.png,0.4,1.2,13,0.75,0,18,18,12,1,,,,,,,,,,,,,,,,,,,,,,,,,,,,,,,,,,,,,,,,
,,,,,V3_043,19,Female,2024-11-01_17h01.46.958,jersey_experiment_5_v3,2023.2.2,Win32,84.74576271,,,,,,,,,,,,,,,,437.2246,438.5183,438.5184,440.3066,return,0.1814,,30.46875,,,,,,FBP-OG-71.png,0.35,1.2,31,0.5,0,19,19,30,1,,,,,,,,,,,,,,,,,,,,,,,,,,,,,,,,,,,,,,,,
,,,,,V3_043,19,Female,2024-11-01_17h01.46.958,jersey_experiment_5_v3,2023.2.2,Win32,84.74576271,,,,,,,,,,,,,,,,440.3069,441.8598,441.8599,444.695,return,0.1648,,97.265625,,,,,,FBP-YG-17.png,0.45,1.2,5,0.75,0,20,20,4,1,,,,,,,,,,,,,,,,,,,,,,,,,,,,,,,,,,,,,,,,
,,,,,V3_043,19,Female,2024-11-01_17h01.46.958,jersey_experiment_5_v3,2023.2.2,Win32,84.74576271,,,,,,,,,,,,,,,,444.6953,446.2479,446.248,454.4953,return,3.4085,,48.30729167,,,,,,FBP-YG-17.png,0.37,1.2,2,0.75,0,21,21,1,1,,,,,,,,,,,,,,,,,,,,,,,,,,,,,,,,,,,,,,,,
,,,,,V3_043,19,Female,2024-11-01_17h01.46.958,jersey_experiment_5_v3,2023.2.2,Win32,84.74576271,,,,,,,,,,,,,,,,454.4956,456.0484,456.0485,457.5896,return,0.2374,,56.38020833,,,,,,FBP-RB-91.png,0.37,1.2,57,0.75,0,22,22,56,1,,,,,,,,,,,,,,,,,,,,,,,,,,,,,,,,,,,,,,,,
,,,,,V3_043,19,Female,2024-11-01_17h01.46.958,jersey_experiment_5_v3,2023.2.2,Win32,84.74576271,,,,,,,,,,,,,,,,457.5898,458.8839,458.8839,460.6721,return,0.1727,,41.53645833,,,,,,FBP-OG-91.png,0.35,1.2,41,0.5,0,23,23,40,1,,,,,,,,,,,,,,,,,,,,,,,,,,,,,,,,,,,,,,,,
,,,,,V3_043,19,Female,2024-11-01_17h01.46.958,jersey_experiment_5_v3,2023.2.2,Win32,84.74576271,,,,,,,,,,,,,,,,460.6724,462.2252,462.2252,466.7547,return,3.5933,,70.96354167,,,,,,FBP-RB-91.png,0.43,1.2,59,0.75,0,24,24,58,1,,,,,,,,,,,,,,,,,,,,,,,,,,,,,,,,,,,,,,,,
,,,,,V3_043,19,Female,2024-11-01_17h01.46.958,jersey_experiment_5_v3,2023.2.2,Win32,84.74576271,,,,,,,,,,,,,,,,466.7549,468.3077,468.3077,469.7429,return,0.8674,,61.97916667,,,,,,FBP-RB-81.png,0.4,1.2,53,0.75,0,25,25,52,1,,,,,,,,,,,,,,,,,,,,,,,,,,,,,,,,,,,,,,,,
,,,,,V3_043,19,Female,2024-11-01_17h01.46.958,jersey_experiment_5_v3,2023.2.2,Win32,84.74576271,,,,,,,,,,,,,,,,469.7432,471.2959,471.296,472.943,return,0.1698,,65.75520833,,,,,,FBP-PT-81.png,0.37,1.2,22,0.75,0,26,26,21,1,,,,,,,,,,,,,,,,,,,,,,,,,,,,,,,,,,,,,,,,
,,,,,V3_043,19,Female,2024-11-01_17h01.46.958,jersey_experiment_5_v3,2023.2.2,Win32,84.74576271,,,,,,,,,,,,,,,,472.9433,474.4962,474.4962,476.6492,return,0.1886,,24.47916667,,,,,,FBP-YG-19.png,0.35,1.2,11,0.75,0,27,27,10,1,,,,,,,,,,,,,,,,,,,,,,,,,,,,,,,,,,,,,,,,
,,,,,V3_043,19,Female,2024-11-01_17h01.46.958,jersey_experiment_5_v3,2023.2.2,Win32,84.74576271,,,,,,,,,,,,,,,,476.6494,477.9433,477.9433,481.7786,return,0.8052,,60.67708333,,,,,,FBP-OG-71.png,0.4,1.2,33,0.5,0,28,28,32,1,,,,,,,,,,,,,,,,,,,,,,,,,,,,,,,,,,,,,,,,
,,,,,V3_043,19,Female,2024-11-01_17h01.46.958,jersey_experiment_5_v3,2023.2.2,Win32,84.74576271,,,,,,,,,,,,,,,,481.7788,483.3317,483.3318,485.52,return,0.1589,,80.859375,,,,,,FBP-PT-81.png,0.45,1.2,25,0.75,0,29,29,24,1,,,,,,,,,,,,,,,,,,,,,,,,,,,,,,,,,,,,,,,,
,,,,,V3_043,19,Female,2024-11-01_17h01.46.958,jersey_experiment_5_v3,2023.2.2,Win32,84.74576271,,,,,,,,,,,,,,,,485.5203,487.073,487.0731,488.2966,return,0.2676,,80.859375,,,,,,FBP-RB-91.png,0.4,1.2,58,0.75,0,30,30,57,1,,,,,,,,,,,,,,,,,,,,,,,,,,,,,,,,,,,,,,,,
,,,,,V3_043,19,Female,2024-11-01_17h01.46.958,jersey_experiment_5_v3,2023.2.2,Win32,84.74576271,,,,,,,,,,,,,,,,488.297,489.5907,489.5907,490.9674,return,0.3903,,91.92708333,,,,,,FBP-OG-71.png,0.45,1.2,35,0.5,0,31,31,34,1,,,,,,,,,,,,,,,,,,,,,,,,,,,,,,,,,,,,,,,,
,,,,,V3_043,19,Female,2024-11-01_17h01.46.958,jersey_experiment_5_v3,2023.2.2,Win32,84.74576271,,,,,,,,,,,,,,,,490.9676,492.5203,492.5204,495.3321,return,0.4507,,33.07291667,,,,,,FBP-PT-71.png,0.35,1.2,16,0.75,0,32,32,15,1,,,,,,,,,,,,,,,,,,,,,,,,,,,,,,,,,,,,,,,,
,,,,,V3_043,19,Female,2024-11-01_17h01.46.958,jersey_experiment_5_v3,2023.2.2,Win32,84.74576271,,,,,,,,,,,,,,,,495.3325,496.885,496.8851,498.3558,return,0.0155,,30.859375,,,,,,FBP-PT-81.png,0.35,1.2,21,0.75,0,33,33,20,1,,,,,,,,,,,,,,,,,,,,,,,,,,,,,,,,,,,,,,,,
,,,,,V3_043,19,Female,2024-11-01_17h01.46.958,jersey_experiment_5_v3,2023.2.2,Win32,84.74576271,,,,,,,,,,,,,,,,498.356,499.6499,499.6499,501.3794,return,0.1062,,88.02083333,,,,,,FBP-OG-91.png,0.45,1.2,45,0.5,0,34,34,44,1,,,,,,,,,,,,,,,,,,,,,,,,,,,,,,,,,,,,,,,,
,,,,,V3_043,19,Female,2024-11-01_17h01.46.958,jersey_experiment_5_v3,2023.2.2,Win32,84.74576271,,,,,,,,,,,,,,,,501.3796,502.9324,502.9325,504.2738,return,0.1712,,87.890625,,,,,,FBP-RB-81.png,0.45,1.2,55,0.75,0,35,35,54,1,,,,,,,,,,,,,,,,,,,,,,,,,,,,,,,,,,,,,,,,
,,,,,V3_043,19,Female,2024-11-01_17h01.46.958,jersey_experiment_5_v3,2023.2.2,Win32,84.74576271,,,,,,,,,,,,,,,,504.274,505.5678,505.5678,507.8151,return,0.108,,74.34895833,,,,,,FBP-OG-81.png,0.37,1.2,37,0.5,0,36,36,36,1,,,,,,,,,,,,,,,,,,,,,,,,,,,,,,,,,,,,,,,,
,,,,,V3_043,19,Female,2024-11-01_17h01.46.958,jersey_experiment_5_v3,2023.2.2,Win32,84.74576271,,,,,,,,,,,,,,,,507.8152,509.1091,509.1091,512.5917,return,0.2083,,44.921875,,,,,,FBP-OG-71.png,0.37,1.2,32,0.5,0,37,37,31,1,,,,,,,,,,,,,,,,,,,,,,,,,,,,,,,,,,,,,,,,
,,,,,V3_043,19,Female,2024-11-01_17h01.46.958,jersey_experiment_5_v3,2023.2.2,Win32,84.74576271,,,,,,,,,,,,,,,,512.5919,514.1445,514.1446,517.6035,return,0.1182,,54.16666667,,,,,,FBP-PT-91.png,0.4,1.2,28,0.75,0,38,38,27,1,,,,,,,,,,,,,,,,,,,,,,,,,,,,,,,,,,,,,,,,
,,,,,V3_043,19,Female,2024-11-01_17h01.46.958,jersey_experiment_5_v3,2023.2.2,Win32,84.74576271,,,,,,,,,,,,,,,,517.6038,519.1566,519.1566,521.0743,return,0.1703,,72.13541667,,,,,,FBP-PT-81.png,0.43,1.2,24,0.75,0,39,39,23,1,,,,,,,,,,,,,,,,,,,,,,,,,,,,,,,,,,,,,,,,
,,,,,V3_043,19,Female,2024-11-01_17h01.46.958,jersey_experiment_5_v3,2023.2.2,Win32,84.74576271,,,,,,,,,,,,,,,,521.0745,522.3685,522.3686,523.745,return,0.0974,,73.69791667,,,,,,FBP-OG-71.png,0.43,1.2,34,0.5,0,40,40,33,1,,,,,,,,,,,,,,,,,,,,,,,,,,,,,,,,,,,,,,,,
,,,,,V3_043,19,Female,2024-11-01_17h01.46.958,jersey_experiment_5_v3,2023.2.2,Win32,84.74576271,,,,,,,,,,,,,,,,523.7453,525.2981,525.2981,526.698,return,0.165,,34.89583333,,,,,,FBP-YG-19.png,0.37,1.2,12,0.75,0,41,41,11,1,,,,,,,,,,,,,,,,,,,,,,,,,,,,,,,,,,,,,,,,
,,,,,V3_043,19,Female,2024-11-01_17h01.46.958,jersey_experiment_5_v3,2023.2.2,Win32,84.74576271,,,,,,,,,,,,,,,,526.6982,528.251,528.251,529.6864,return,0.2001,,76.04166667,,,,,,FBP-YG-19.png,0.45,1.2,15,0.75,0,42,42,14,1,,,,,,,,,,,,,,,,,,,,,,,,,,,,,,,,,,,,,,,,
,,,,,V3_043,19,Female,2024-11-01_17h01.46.958,jersey_experiment_5_v3,2023.2.2,Win32,84.74576271,,,,,,,,,,,,,,,,529.6868,531.2393,531.2394,533.6159,return,1.0665,,55.20833333,,,,,,FBP-YG-18.png,0.37,1.2,7,0.75,0,43,43,6,1,,,,,,,,,,,,,,,,,,,,,,,,,,,,,,,,,,,,,,,,
,,,,,V3_043,19,Female,2024-11-01_17h01.46.958,jersey_experiment_5_v3,2023.2.2,Win32,84.74576271,,,,,,,,,,,,,,,,533.6162,534.91,534.91,537.169,return,0.548,,67.578125,,,,,,FBP-OG-91.png,0.4,1.2,43,0.5,0,44,44,42,1,,,,,,,,,,,,,,,,,,,,,,,,,,,,,,,,,,,,,,,,
,,,,,V3_043,19,Female,2024-11-01_17h01.46.958,jersey_experiment_5_v3,2023.2.2,Win32,84.74576271,,,,,,,,,,,,,,,,537.1693,538.7222,538.7223,540.6279,return,0.7902,,85.80729167,,,,,,FBP-RB-71.png,0.43,1.2,49,0.75,0,45,45,48,1,,,,,,,,,,,,,,,,,,,,,,,,,,,,,,,,,,,,,,,,
,,,,,V3_043,19,Female,2024-11-01_17h01.46.958,jersey_experiment_5_v3,2023.2.2,Win32,84.74576271,,,,,,,,,,,,,,,,540.6283,542.1809,542.181,549.0754,return,2.7104,,39.58333333,,,,,,FBP-PT-91.png,0.35,1.2,26,0.75,0,46,46,25,1,,,,,,,,,,,,,,,,,,,,,,,,,,,,,,,,,,,,,,,,
,,,,,V3_043,19,Female,2024-11-01_17h01.46.958,jersey_experiment_5_v3,2023.2.2,Win32,84.74576271,,,,,,,,,,,,,,,,549.0756,550.6283,550.6284,558.1815,return,0.222,,62.890625,,,,,,FBP-YG-18.png,0.4,1.2,8,0.75,0,47,47,7,1,,,,,,,,,,,,,,,,,,,,,,,,,,,,,,,,,,,,,,,,
,,,,,V3_043,19,Female,2024-11-01_17h01.46.958,jersey_experiment_5_v3,2023.2.2,Win32,84.74576271,,,,,,,,,,,,,,,,558.182,559.7346,559.7347,560.8406,return,0.2354,,70.96354167,,,,,,FBP-YG-18.png,0.43,1.2,9,0.75,0,48,48,8,1,,,,,,,,,,,,,,,,,,,,,,,,,,,,,,,,,,,,,,,,
,,,,,V3_043,19,Female,2024-11-01_17h01.46.958,jersey_experiment_5_v3,2023.2.2,Win32,84.74576271,,,,,,,,,,,,,,,,560.8409,562.3934,562.3935,566.5466,return,0.1817,,83.203125,,,,,,FBP-RB-91.png,0.45,1.2,60,0.75,0,49,49,59,1,,,,,,,,,,,,,,,,,,,,,,,,,,,,,,,,,,,,,,,,
,,,,,V3_043,19,Female,2024-11-01_17h01.46.958,jersey_experiment_5_v3,2023.2.2,Win32,84.74576271,,,,,,,,,,,,,,,,566.5468,568.0996,568.0996,569.476,return,0.2466,,87.109375,,,,,,FBP-YG-17.png,0.43,1.2,4,0.75,0,50,50,3,1,,,,,,,,,,,,,,,,,,,,,,,,,,,,,,,,,,,,,,,,
,,,,,V3_043,19,Female,2024-11-01_17h01.46.958,jersey_experiment_5_v3,2023.2.2,Win32,84.74576271,,,,,,,,,,,,,,,,569.4762,570.7702,570.7703,574.6763,return,1.7062,,35.15625,,,,,,FBP-OG-81.png,0.35,1.2,36,0.5,0,51,51,35,1,,,,,,,,,,,,,,,,,,,,,,,,,,,,,,,,,,,,,,,,
,,,,,V3_043,19,Female,2024-11-01_17h01.46.958,jersey_experiment_5_v3,2023.2.2,Win32,84.74576271,,,,,,,,,,,,,,,,574.6767,576.2292,576.2292,579.9351,return,0.734,,32.421875,,,,,,FBP-RB-81.png,0.35,1.2,51,0.75,0,52,52,50,1,,,,,,,,,,,,,,,,,,,,,,,,,,,,,,,,,,,,,,,,
,,,,,V3_043,19,Female,2024-11-01_17h01.46.958,jersey_experiment_5_v3,2023.2.2,Win32,84.74576271,,,,,,,,,,,,,,,,579.9353,581.4881,581.4882,582.9592,return,0.1813,,77.734375,,,,,,FBP-PT-71.png,0.43,1.2,19,0.75,0,53,53,18,1,,,,,,,,,,,,,,,,,,,,,,,,,,,,,,,,,,,,,,,,
,,,,,V3_043,19,Female,2024-11-01_17h01.46.958,jersey_experiment_5_v3,2023.2.2,Win32,84.74576271,,,,,,,,,,,,,,,,582.9595,584.253,584.2531,587.9591,return,0.4144,,86.06770833,,,,,,FBP-OG-81.png,0.43,1.2,39,0.5,0,54,54,38,1,,,,,,,,,,,,,,,,,,,,,,,,,,,,,,,,,,,,,,,,
,,,,,V3_043,19,Female,2024-11-01_17h01.46.958,jersey_experiment_5_v3,2023.2.2,Win32,84.74576271,,,,,,,,,,,,,,,,587.9593,589.2532,589.2533,593.7592,return,0.1829,,57.94270833,,,,,,FBP-OG-91.png,0.37,1.2,42,0.5,0,55,55,41,1,,,,,,,,,,,,,,,,,,,,,,,,,,,,,,,,,,,,,,,,
,,,,,V3_043,19,Female,2024-11-01_17h01.46.958,jersey_experiment_5_v3,2023.2.2,Win32,84.74576271,,,,,,,,,,,,,,,,593.7594,595.3122,595.3124,601.9712,return,5.3928,,71.35416667,,,,,,FBP-YG-19.png,0.43,1.2,14,0.75,0,56,56,13,1,,,,,,,,,,,,,,,,,,,,,,,,,,,,,,,,,,,,,,,,
,,,,,V3_043,19,Female,2024-11-01_17h01.46.958,jersey_experiment_5_v3,2023.2.2,Win32,84.74576271,,,,,,,,,,,,,,,,601.9715,603.5126,603.5126,604.7244,return,0.2709,,70.18229167,,,,,,FBP-RB-71.png,0.4,1.2,48,0.75,0,57,57,47,1,,,,,,,,,,,,,,,,,,,,,,,,,,,,,,,,,,,,,,,,
,,,,,V3_043,19,Female,2024-11-01_17h01.46.958,jersey_experiment_5_v3,2023.2.2,Win32,84.74576271,,,,,,,,,,,,,,,,604.7246,606.2775,606.2775,608.6894,return,0.3115,,88.93229167,,,,,,FBP-RB-71.png,0.45,1.2,50,0.75,0,58,58,49,1,,,,,,,,,,,,,,,,,,,,,,,,,,,,,,,,,,,,,,,,
,,,,,V3_043,19,Female,2024-11-01_17h01.46.958,jersey_experiment_5_v3,2023.2.2,Win32,84.74576271,,,,,,,,,,,,,,,,608.6896,610.2423,610.2424,615.4307,return,2.4582,,25.26041667,,,,,,FBP-YG-18.png,0.35,1.2,6,0.75,0,59,59,5,1,,,,,,,,,,,,,,,,,,,,,,,,,,,,,,,,,,,,,,,,
,,,,,V3_043,19,Female,2024-11-01_17h01.46.958,jersey_experiment_5_v3,2023.2.2,Win32,84.74576271,,,,,,,,,,,,,,,,,,,,,,,,,,,,,,,,,,,,,,,615.4309,735.4235,,,,,,,,,,,,,,,,,,,,,,,,,,,,,,,,,,,,,,
,,,,,V3_043,19,Female,2024-11-01_17h01.46.958,jersey_experiment_5_v3,2023.2.2,Win32,84.74576271,,,,,,,,,,,,,,,,,,,,,,,,,,,,,,,,,,,,,,,,,735.4236,774.8014,return,39.3712,,,,,,,,,,,,,,,,,,,,,,,,,,,,,,,,,,
,,,,,V3_043,19,Female,2024-11-01_17h01.46.958,jersey_experiment_5_v3,2023.2.2,Win32,84.74576271,,,,,,,,,,,,,,,,774.8033,776.0953,776.0954,781.672,return,1.3508,,43.61979167,,,,,,FBP-YG-81.png,0.4,1.2,8,0.5,,,,,,,,,,,,,0,0,0,7,1,,,,,,,,,,,,,,,,,,,,,,,,,,,,
,,,,,V3_043,19,Female,2024-11-01_17h01.46.958,jersey_experiment_5_v3,2023.2.2,Win32,84.74576271,,,,,,,,,,,,,,,,781.6723,783.2252,783.2252,784.3898,return,0.1806,,59.50520833,,,,,,FBP-OG-19.png,0.4,1.2,43,0.75,,,,,,,,,,,,,0,1,1,42,1,,,,,,,,,,,,,,,,,,,,,,,,,,,,
,,,,,V3_043,19,Female,2024-11-01_17h01.46.958,jersey_experiment_5_v3,2023.2.2,Win32,84.74576271,,,,,,,,,,,,,,,,784.3899,785.6839,785.6839,787.378,return,0.8173,,68.22916667,,,,,,FBP-RB-18.png,0.43,1.2,54,0.5,,,,,,,,,,,,,0,2,2,53,1,,,,,,,,,,,,,,,,,,,,,,,,,,,,
,,,,,V3_043,19,Female,2024-11-01_17h01.46.958,jersey_experiment_5_v3,2023.2.2,Win32,84.74576271,,,,,,,,,,,,,,,,787.3782,788.6723,788.6724,790.4373,return,0.7534,,41.015625,,,,,,FBP-RB-18.png,0.35,1.2,51,0.5,,,,,,,,,,,,,0,3,3,50,1,,,,,,,,,,,,,,,,,,,,,,,,,,,,
,,,,,V3_043,19,Female,2024-11-01_17h01.46.958,jersey_experiment_5_v3,2023.2.2,Win32,84.74576271,,,,,,,,,,,,,,,,790.4376,791.9901,791.9901,793.543,return,0.1557,,73.17708333,,,,,,FBP-OG-18.png,0.43,1.2,39,0.75,,,,,,,,,,,,,0,4,4,38,1,,,,,,,,,,,,,,,,,,,,,,,,,,,,
,,,,,V3_043,19,Female,2024-11-01_17h01.46.958,jersey_experiment_5_v3,2023.2.2,Win32,84.74576271,,,,,,,,,,,,,,,,793.5432,794.8373,794.8374,795.9784,return,0.2217,,29.16666667,,,,,,FBP-YG-81.png,0.35,1.2,6,0.5,,,,,,,,,,,,,0,5,5,5,1,,,,,,,,,,,,,,,,,,,,,,,,,,,,
,,,,,V3_043,19,Female,2024-11-01_17h01.46.958,jersey_experiment_5_v3,2023.2.2,Win32,84.74576271,,,,,,,,,,,,,,,,795.9787,797.2725,797.2725,798.4374,return,0.2045,,75,,,,,,FBP-PT-18.png,0.45,1.2,25,0.5,,,,,,,,,,,,,0,6,6,24,1,,,,,,,,,,,,,,,,,,,,,,,,,,,,
,,,,,V3_043,19,Female,2024-11-01_17h01.46.958,jersey_experiment_5_v3,2023.2.2,Win32,84.74576271,,,,,,,,,,,,,,,,798.4377,799.7315,799.7316,803.12,return,1.0622,,52.60416667,,,,,,FBP-PT-19.png,0.37,1.2,27,0.5,,,,,,,,,,,,,0,7,7,26,1,,,,,,,,,,,,,,,,,,,,,,,,,,,,
,,,,,V3_043,19,Female,2024-11-01_17h01.46.958,jersey_experiment_5_v3,2023.2.2,Win32,84.74576271,,,,,,,,,,,,,,,,803.1203,804.414,804.4141,807.8023,return,1.388,,53.77604167,,,,,,FBP-RB-19.png,0.35,1.2,56,0.5,,,,,,,,,,,,,0,8,8,55,1,,,,,,,,,,,,,,,,,,,,,,,,,,,,
,,,,,V3_043,19,Female,2024-11-01_17h01.46.958,jersey_experiment_5_v3,2023.2.2,Win32,84.74576271,,,,,,,,,,,,,,,,807.8025,809.3554,809.3554,811.6966,return,0.2422,,57.94270833,,,,,,FBP-OG-18.png,0.37,1.2,37,0.75,,,,,,,,,,,,,0,9,9,36,1,,,,,,,,,,,,,,,,,,,,,,,,,,,,
,,,,,V3_043,19,Female,2024-11-01_17h01.46.958,jersey_experiment_5_v3,2023.2.2,Win32,84.74576271,,,,,,,,,,,,,,,,811.6967,812.9908,812.9909,814.9792,return,0.4397,,71.875,,,,,,FBP-RB-19.png,0.4,1.2,58,0.5,,,,,,,,,,,,,0,10,10,57,1,,,,,,,,,,,,,,,,,,,,,,,,,,,,
,,,,,V3_043,19,Female,2024-11-01_17h01.46.958,jersey_experiment_5_v3,2023.2.2,Win32,84.74576271,,,,,,,,,,,,,,,,814.9795,816.2733,816.2734,817.7674,return,0.1886,,88.93229167,,,,,,FBP-PT-19.png,0.45,1.2,30,0.5,,,,,,,,,,,,,0,11,11,29,1,,,,,,,,,,,,,,,,,,,,,,,,,,,,
,,,,,V3_043,19,Female,2024-11-01_17h01.46.958,jersey_experiment_5_v3,2023.2.2,Win32,84.74576271,,,,,,,,,,,,,,,,817.7677,819.0615,819.0615,823.5912,return,0.392,,35.15625,,,,,,FBP-PT-17.png,0.37,1.2,17,0.5,,,,,,,,,,,,,0,12,12,16,1,,,,,,,,,,,,,,,,,,,,,,,,,,,,
,,,,,V3_043,19,Female,2024-11-01_17h01.46.958,jersey_experiment_5_v3,2023.2.2,Win32,84.74576271,,,,,,,,,,,,,,,,823.5915,824.8854,824.8855,827.9444,return,0.1642,,62.36979167,,,,,,FBP-YG-91.png,0.4,1.2,13,0.5,,,,,,,,,,,,,0,13,13,12,1,,,,,,,,,,,,,,,,,,,,,,,,,,,,
,,,,,V3_043,19,Female,2024-11-01_17h01.46.958,jersey_experiment_5_v3,2023.2.2,Win32,84.74576271,,,,,,,,,,,,,,,,827.9446,829.4972,829.4973,831.4267,return,0.168,,67.31770833,,,,,,FBP-OG-19.png,0.37,1.2,42,0.75,,,,,,,,,,,,,0,14,14,41,1,,,,,,,,,,,,,,,,,,,,,,,,,,,,
,,,,,V3_043,19,Female,2024-11-01_17h01.46.958,jersey_experiment_5_v3,2023.2.2,Win32,84.74576271,,,,,,,,,,,,,,,,831.4269,832.7209,832.7209,835.8622,return,0.3171,,75.91145833,,,,,,FBP-YG-71.png,0.43,1.2,4,0.5,,,,,,,,,,,,,0,15,15,3,1,,,,,,,,,,,,,,,,,,,,,,,,,,,,
,,,,,V3_043,19,Female,2024-11-01_17h01.46.958,jersey_experiment_5_v3,2023.2.2,Win32,84.74576271,,,,,,,,,,,,,,,,835.8625,837.1564,837.1564,840.4037,return,0.225,,90.75520833,,,,,,FBP-RB-18.png,0.45,1.2,55,0.5,,,,,,,,,,,,,0,16,16,54,1,,,,,,,,,,,,,,,,,,,,,,,,,,,,
,,,,,V3_043,19,Female,2024-11-01_17h01.46.958,jersey_experiment_5_v3,2023.2.2,Win32,84.74576271,,,,,,,,,,,,,,,,840.4041,841.9565,841.9566,842.9332,return,0.1884,,93.75,,,,,,FBP-OG-18.png,0.45,1.2,40,0.75,,,,,,,,,,,,,0,17,17,39,1,,,,,,,,,,,,,,,,,,,,,,,,,,,,
,,,,,V3_043,19,Female,2024-11-01_17h01.46.958,jersey_experiment_5_v3,2023.2.2,Win32,84.74576271,,,,,,,,,,,,,,,,842.9334,844.2271,844.2271,847.0156,return,0.2593,,88.93229167,,,,,,FBP-YG-91.png,0.43,1.2,14,0.5,,,,,,,,,,,,,0,18,18,13,1,,,,,,,,,,,,,,,,,,,,,,,,,,,,
,,,,,V3_043,19,Female,2024-11-01_17h01.46.958,jersey_experiment_5_v3,2023.2.2,Win32,84.74576271,,,,,,,,,,,,,,,,847.0159,848.3098,848.3098,849.2627,return,0.2194,,97.39583333,,,,,,FBP-PT-17.png,0.45,1.2,20,0.5,,,,,,,,,,,,,0,19,19,19,1,,,,,,,,,,,,,,,,,,,,,,,,,,,,
,,,,,V3_043,19,Female,2024-11-01_17h01.46.958,jersey_experiment_5_v3,2023.2.2,Win32,84.74576271,,,,,,,,,,,,,,,,849.263,850.8158,850.8159,855.7924,return,0.2268,,45.57291667,,,,,,FBP-OG-18.png,0.35,1.2,36,0.75,,,,,,,,,,,,,0,20,20,35,1,,,,,,,,,,,,,,,,,,,,,,,,,,,,
,,,,,V3_043,19,Female,2024-11-01_17h01.46.958,jersey_experiment_5_v3,2023.2.2,Win32,84.74576271,,,,,,,,,,,,,,,,855.7928,857.0865,857.0865,860.322,return,0.2527,,45.44270833,,,,,,FBP-YG-81.png,0.37,1.2,7,0.5,,,,,,,,,,,,,0,21,21,6,1,,,,,,,,,,,,,,,,,,,,,,,,,,,,
,,,,,V3_043,19,Female,2024-11-01_17h01.46.958,jersey_experiment_5_v3,2023.2.2,Win32,84.74576271,,,,,,,,,,,,,,,,860.3222,861.6162,861.6162,863.0279,return,0.1564,,38.93229167,,,,,,FBP-RB-17.png,0.37,1.2,47,0.5,,,,,,,,,,,,,0,22,22,46,1,,,,,,,,,,,,,,,,,,,,,,,,,,,,
,,,,,V3_043,19,Female,2024-11-01_17h01.46.958,jersey_experiment_5_v3,2023.2.2,Win32,84.74576271,,,,,,,,,,,,,,,,863.0282,864.3221,864.3222,865.6986,return,0.4753,,72.265625,,,,,,FBP-RB-17.png,0.45,1.2,50,0.5,,,,,,,,,,,,,0,23,23,49,1,,,,,,,,,,,,,,,,,,,,,,,,,,,,
,,,,,V3_043,19,Female,2024-11-01_17h01.46.958,jersey_experiment_5_v3,2023.2.2,Win32,84.74576271,,,,,,,,,,,,,,,,865.6988,866.9928,866.9928,869.0165,return,0.4577,,63.671875,,,,,,FBP-PT-18.png,0.4,1.2,23,0.5,,,,,,,,,,,,,0,24,24,22,1,,,,,,,,,,,,,,,,,,,,,,,,,,,,
,,,,,V3_043,19,Female,2024-11-01_17h01.46.958,jersey_experiment_5_v3,2023.2.2,Win32,84.74576271,,,,,,,,,,,,,,,,869.0168,870.3105,870.3106,873.7342,return,0.1808,,62.76041667,,,,,,FBP-PT-19.png,0.35,1.2,26,0.5,,,,,,,,,,,,,0,25,25,25,1,,,,,,,,,,,,,,,,,,,,,,,,,,,,
,,,,,V3_043,19,Female,2024-11-01_17h01.46.958,jersey_experiment_5_v3,2023.2.2,Win32,84.74576271,,,,,,,,,,,,,,,,873.7345,875.2872,875.2873,878.805,return,0.1202,,67.44791667,,,,,,FBP-OG-17.png,0.4,1.2,33,0.75,,,,,,,,,,,,,0,26,26,32,1,,,,,,,,,,,,,,,,,,,,,,,,,,,,
,,,,,V3_043,19,Female,2024-11-01_17h01.46.958,jersey_experiment_5_v3,2023.2.2,Win32,84.74576271,,,,,,,,,,,,,,,,878.8051,880.3582,880.3583,883.0169,return,1.7644,,40.36458333,,,,,,FBP-OG-19.png,0.35,1.2,41,0.75,,,,,,,,,,,,,0,27,27,40,1,,,,,,,,,,,,,,,,,,,,,,,,,,,,
,,,,,V3_043,19,Female,2024-11-01_17h01.46.958,jersey_experiment_5_v3,2023.2.2,Win32,84.74576271,,,,,,,,,,,,,,,,883.0172,884.3111,884.3111,887.0876,return,0.5365,,66.66666667,,,,,,FBP-RB-17.png,0.4,1.2,48,0.5,,,,,,,,,,,,,0,28,28,47,1,,,,,,,,,,,,,,,,,,,,,,,,,,,,
,,,,,V3_043,19,Female,2024-11-01_17h01.46.958,jersey_experiment_5_v3,2023.2.2,Win32,84.74576271,,,,,,,,,,,,,,,,887.0878,888.6409,888.641,890.3113,return,0.9283,,84.765625,,,,,,FBP-OG-17.png,0.45,1.2,35,0.75,,,,,,,,,,,,,0,29,29,34,1,,,,,,,,,,,,,,,,,,,,,,,,,,,,
,,,,,V3_043,19,Female,2024-11-01_17h01.46.958,jersey_experiment_5_v3,2023.2.2,Win32,84.74576271,,,,,,,,,,,,,,,,890.3115,891.8645,891.8645,894.3233,return,0.7453,,93.61979167,,,,,,FBP-OG-19.png,0.45,1.2,45,0.75,,,,,,,,,,,,,0,30,30,44,1,,,,,,,,,,,,,,,,,,,,,,,,,,,,
,,,,,V3_043,19,Female,2024-11-01_17h01.46.958,jersey_experiment_5_v3,2023.2.2,Win32,84.74576271,,,,,,,,,,,,,,,,894.3235,895.8763,895.8763,896.9351,return,0.2837,,84.11458333,,,,,,FBP-OG-18.png,0.4,1.2,38,0.75,,,,,,,,,,,,,0,31,31,37,1,,,,,,,,,,,,,,,,,,,,,,,,,,,,
,,,,,V3_043,19,Female,2024-11-01_17h01.46.958,jersey_experiment_5_v3,2023.2.2,Win32,84.74576271,,,,,,,,,,,,,,,,896.9353,898.2292,898.2293,899.3588,return,0.3369,,92.31770833,,,,,,FBP-YG-71.png,0.45,1.2,5,0.5,,,,,,,,,,,,,0,32,32,4,1,,,,,,,,,,,,,,,,,,,,,,,,,,,,
,,,,,V3_043,19,Female,2024-11-01_17h01.46.958,jersey_experiment_5_v3,2023.2.2,Win32,84.74576271,,,,,,,,,,,,,,,,899.3591,900.6528,900.6528,902.1117,return,0.2313,,81.640625,,,,,,FBP-RB-18.png,0.4,1.2,53,0.5,,,,,,,,,,,,,0,33,33,52,1,,,,,,,,,,,,,,,,,,,,,,,,,,,,
,,,,,V3_043,19,Female,2024-11-01_17h01.46.958,jersey_experiment_5_v3,2023.2.2,Win32,84.74576271,,,,,,,,,,,,,,,,902.1119,903.4059,903.4059,905.206,return,0.1895,,38.15104167,,,,,,FBP-RB-19.png,0.37,1.2,57,0.5,,,,,,,,,,,,,0,34,34,56,1,,,,,,,,,,,,,,,,,,,,,,,,,,,,
,,,,,V3_043,19,Female,2024-11-01_17h01.46.958,jersey_experiment_5_v3,2023.2.2,Win32,84.74576271,,,,,,,,,,,,,,,,905.2062,906.5002,906.5002,909.1355,return,1.1225,,82.16145833,,,,,,FBP-YG-81.png,0.45,1.2,10,0.5,,,,,,,,,,,,,0,35,35,9,1,,,,,,,,,,,,,,,,,,,,,,,,,,,,
,,,,,V3_043,19,Female,2024-11-01_17h01.46.958,jersey_experiment_5_v3,2023.2.2,Win32,84.74576271,,,,,,,,,,,,,,,,909.1357,910.4296,910.4296,911.9238,return,0.2614,,95.703125,,,,,,FBP-PT-19.png,0.43,1.2,29,0.5,,,,,,,,,,,,,0,36,36,28,1,,,,,,,,,,,,,,,,,,,,,,,,,,,,
,,,,,V3_043,19,Female,2024-11-01_17h01.46.958,jersey_experiment_5_v3,2023.2.2,Win32,84.74576271,,,,,,,,,,,,,,,,911.924,913.2182,913.2182,914.8063,return,0.5525,,39.19270833,,,,,,FBP-PT-17.png,0.35,1.2,16,0.5,,,,,,,,,,,,,0,37,37,15,1,,,,,,,,,,,,,,,,,,,,,,,,,,,,
,,,,,V3_043,19,Female,2024-11-01_17h01.46.958,jersey_experiment_5_v3,2023.2.2,Win32,84.74576271,,,,,,,,,,,,,,,,914.8066,916.1004,916.1005,917.4181,return,0.1181,,74.47916667,,,,,,FBP-PT-17.png,0.43,1.2,19,0.5,,,,,,,,,,,,,0,38,38,18,1,,,,,,,,,,,,,,,,,,,,,,,,,,,,
,,,,,V3_043,19,Female,2024-11-01_17h01.46.958,jersey_experiment_5_v3,2023.2.2,Win32,84.74576271,,,,,,,,,,,,,,,,917.4182,918.7123,918.7123,919.6535,return,0.2611,,74.47916667,,,,,,FBP-RB-17.png,0.43,1.2,49,0.5,,,,,,,,,,,,,0,39,39,48,1,,,,,,,,,,,,,,,,,,,,,,,,,,,,
,,,,,V3_043,19,Female,2024-11-01_17h01.46.958,jersey_experiment_5_v3,2023.2.2,Win32,84.74576271,,,,,,,,,,,,,,,,919.6537,920.9476,920.9477,921.8771,return,0.2279,,74.47916667,,,,,,FBP-PT-18.png,0.43,1.2,24,0.5,,,,,,,,,,,,,0,40,40,23,1,,,,,,,,,,,,,,,,,,,,,,,,,,,,
,,,,,V3_043,19,Female,2024-11-01_17h01.46.958,jersey_experiment_5_v3,2023.2.2,Win32,84.74576271,,,,,,,,,,,,,,,,921.8775,923.1713,923.1714,926.7832,return,0.2674,,54.55729167,,,,,,FBP-YG-71.png,0.4,1.2,3,0.5,,,,,,,,,,,,,0,41,41,2,1,,,,,,,,,,,,,,,,,,,,,,,,,,,,
,,,,,V3_043,19,Female,2024-11-01_17h01.46.958,jersey_experiment_5_v3,2023.2.2,Win32,84.74576271,,,,,,,,,,,,,,,,926.7834,928.0773,928.0773,929.2891,return,0.1413,,74.34895833,,,,,,FBP-RB-19.png,0.43,1.2,59,0.5,,,,,,,,,,,,,0,42,42,58,1,,,,,,,,,,,,,,,,,,,,,,,,,,,,
,,,,,V3_043,19,Female,2024-11-01_17h01.46.958,jersey_experiment_5_v3,2023.2.2,Win32,84.74576271,,,,,,,,,,,,,,,,929.2894,930.5835,930.5835,932.1481,return,0.3563,,40.36458333,,,,,,FBP-YG-71.png,0.35,1.2,1,0.5,,,,,,,,,,,,,0,43,43,0,1,,,,,,,,,,,,,,,,,,,,,,,,,,,,
,,,,,V3_043,19,Female,2024-11-01_17h01.46.958,jersey_experiment_5_v3,2023.2.2,Win32,84.74576271,,,,,,,,,,,,,,,,932.1483,933.7012,933.7012,935.1364,return,0.721,,80.59895833,,,,,,FBP-OG-19.png,0.43,1.2,44,0.75,,,,,,,,,,,,,0,44,44,43,1,,,,,,,,,,,,,,,,,,,,,,,,,,,,
,,,,,V3_043,19,Female,2024-11-01_17h01.46.958,jersey_experiment_5_v3,2023.2.2,Win32,84.74576271,,,,,,,,,,,,,,,,935.1367,936.4306,936.4306,939.4426,return,0.9462,,29.42708333,,,,,,FBP-PT-18.png,0.35,1.2,21,0.5,,,,,,,,,,,,,0,45,45,20,1,,,,,,,,,,,,,,,,,,,,,,,,,,,,
,,,,,V3_043,19,Female,2024-11-01_17h01.46.958,jersey_experiment_5_v3,2023.2.2,Win32,84.74576271,,,,,,,,,,,,,,,,939.4428,940.7367,940.7367,941.8309,return,0.2853,,73.56770833,,,,,,FBP-PT-19.png,0.4,1.2,28,0.5,,,,,,,,,,,,,0,46,46,27,1,,,,,,,,,,,,,,,,,,,,,,,,,,,,
,,,,,V3_043,19,Female,2024-11-01_17h01.46.958,jersey_experiment_5_v3,2023.2.2,Win32,84.74576271,,,,,,,,,,,,,,,,941.8312,943.125,943.1251,952.1489,return,0.4497,,71.09375,,,,,,FBP-PT-17.png,0.4,1.2,18,0.5,,,,,,,,,,,,,0,47,47,17,1,,,,,,,,,,,,,,,,,,,,,,,,,,,,
,,,,,V3_043,19,Female,2024-11-01_17h01.46.958,jersey_experiment_5_v3,2023.2.2,Win32,84.74576271,,,,,,,,,,,,,,,,952.1491,953.7021,953.7021,955.2196,return,0.4963,,27.21354167,,,,,,FBP-OG-17.png,0.35,1.2,31,0.75,,,,,,,,,,,,,0,48,48,30,1,,,,,,,,,,,,,,,,,,,,,,,,,,,,
,,,,,V3_043,19,Female,2024-11-01_17h01.46.958,jersey_experiment_5_v3,2023.2.2,Win32,84.74576271,,,,,,,,,,,,,,,,955.2199,956.5137,956.5137,957.6903,return,0.2506,,27.08333333,,,,,,FBP-RB-18.png,0.37,1.2,52,0.5,,,,,,,,,,,,,0,49,49,51,1,,,,,,,,,,,,,,,,,,,,,,,,,,,,
,,,,,V3_043,19,Female,2024-11-01_17h01.46.958,jersey_experiment_5_v3,2023.2.2,Win32,84.74576271,,,,,,,,,,,,,,,,957.6905,958.9843,958.9844,960.208,return,0.1134,,39.0625,,,,,,FBP-YG-71.png,0.37,1.2,2,0.5,,,,,,,,,,,,,0,50,50,1,1,,,,,,,,,,,,,,,,,,,,,,,,,,,,
,,,,,V3_043,19,Female,2024-11-01_17h01.46.958,jersey_experiment_5_v3,2023.2.2,Win32,84.74576271,,,,,,,,,,,,,,,,960.2082,961.5021,961.5021,962.6316,return,0.1097,,74.73958333,,,,,,FBP-YG-81.png,0.43,1.2,9,0.5,,,,,,,,,,,,,0,51,51,8,1,,,,,,,,,,,,,,,,,,,,,,,,,,,,
,,,,,V3_043,19,Female,2024-11-01_17h01.46.958,jersey_experiment_5_v3,2023.2.2,Win32,84.74576271,,,,,,,,,,,,,,,,962.6318,963.9258,963.9258,966.0082,return,0.6119,,90.88541667,,,,,,FBP-RB-19.png,0.45,1.2,60,0.5,,,,,,,,,,,,,0,52,52,59,1,,,,,,,,,,,,,,,,,,,,,,,,,,,,
,,,,,V3_043,19,Female,2024-11-01_17h01.46.958,jersey_experiment_5_v3,2023.2.2,Win32,84.74576271,,,,,,,,,,,,,,,,966.0084,967.3022,967.3023,969.573,return,0.5789,,18.61979167,,,,,,FBP-RB-17.png,0.35,1.2,46,0.5,,,,,,,,,,,,,0,53,53,45,1,,,,,,,,,,,,,,,,,,,,,,,,,,,,
,,,,,V3_043,19,Female,2024-11-01_17h01.46.958,jersey_experiment_5_v3,2023.2.2,Win32,84.74576271,,,,,,,,,,,,,,,,969.5733,970.8674,970.8674,972.4202,return,0.5563,,73.95833333,,,,,,FBP-YG-91.png,0.45,1.2,15,0.5,,,,,,,,,,,,,0,54,54,14,1,,,,,,,,,,,,,,,,,,,,,,,,,,,,
,,,,,V3_043,19,Female,2024-11-01_17h01.46.958,jersey_experiment_5_v3,2023.2.2,Win32,84.74576271,,,,,,,,,,,,,,,,972.4205,973.9732,973.9733,975.3026,return,0.527,,76.69270833,,,,,,FBP-OG-17.png,0.43,1.2,34,0.75,,,,,,,,,,,,,0,55,55,33,1,,,,,,,,,,,,,,,,,,,,,,,,,,,,
,,,,,V3_043,19,Female,2024-11-01_17h01.46.958,jersey_experiment_5_v3,2023.2.2,Win32,84.74576271,,,,,,,,,,,,,,,,975.3029,976.5968,976.5968,978.9852,return,1.027,,27.60416667,,,,,,FBP-YG-91.png,0.35,1.2,11,0.5,,,,,,,,,,,,,0,56,56,10,1,,,,,,,,,,,,,,,,,,,,,,,,,,,,
,,,,,V3_043,19,Female,2024-11-01_17h01.46.958,jersey_experiment_5_v3,2023.2.2,Win32,84.74576271,,,,,,,,,,,,,,,,978.9854,980.2794,980.2794,982.2089,return,0.5126,,29.6875,,,,,,FBP-PT-18.png,0.37,1.2,22,0.5,,,,,,,,,,,,,0,57,57,21,1,,,,,,,,,,,,,,,,,,,,,,,,,,,,
,,,,,V3_043,19,Female,2024-11-01_17h01.46.958,jersey_experiment_5_v3,2023.2.2,Win32,84.74576271,,,,,,,,,,,,,,,,982.2091,983.5029,983.5029,985.9736,return,0.6803,,54.16666667,,,,,,FBP-YG-91.png,0.37,1.2,12,0.5,,,,,,,,,,,,,0,58,58,11,1,,,,,,,,,,,,,,,,,,,,,,,,,,,,
,,,,,V3_043,19,Female,2024-11-01_17h01.46.958,jersey_experiment_5_v3,2023.2.2,Win32,84.74576271,,,,,,,,,,,,,,,,985.9739,987.5265,987.5266,991.2091,return,0.6578,,55.859375,,,,,,FBP-OG-17.png,0.37,1.2,32,0.75,,,,,,,,,,,,,0,59,59,31,1,,,,,,,,,,,,,,,,,,,,,,,,,,,,
,,,,,V3_043,19,Female,2024-11-01_17h01.46.958,jersey_experiment_5_v3,2023.2.2,Win32,84.74576271,,,,,,,,,,,,,,,,991.211,992.5033,992.5033,998.9624,return,0.6385,,44.27083333,,,,,,FBP-RB-91.png,0.35,1.2,56,0.5,,,,,,,,,,,,,,,,,,0,0,0,55,1,,,,,,,,,,,,,,,,,,,,,,,
,,,,,V3_043,19,Female,2024-11-01_17h01.46.958,jersey_experiment_5_v3,2023.2.2,Win32,84.74576271,,,,,,,,,,,,,,,,998.9627,1000.2565,1000.2565,1002.5978,return,0.7395,,74.73958333,,,,,,FBP-PT-81.png,0.43,1.2,24,0.5,,,,,,,,,,,,,,,,,,0,1,1,23,1,,,,,,,,,,,,,,,,,,,,,,,
,,,,,V3_043,19,Female,2024-11-01_17h01.46.958,jersey_experiment_5_v3,2023.2.2,Win32,84.74576271,,,,,,,,,,,,,,,,1002.5982,1003.8919,1003.8919,1005.7861,return,0.707,,74.73958333,,,,,,FBP-RB-81.png,0.4,1.2,53,0.5,,,,,,,,,,,,,,,,,,0,2,2,52,1,,,,,,,,,,,,,,,,,,,,,,,
,,,,,V3_043,19,Female,2024-11-01_17h01.46.958,jersey_experiment_5_v3,2023.2.2,Win32,84.74576271,,,,,,,,,,,,,,,,1005.7863,1007.3389,1007.339,1011.657,return,0.5982,,34.375,,,,,,FBP-OG-81.png,0.35,1.2,36,0.75,,,,,,,,,,,,,,,,,,0,3,3,35,1,,,,,,,,,,,,,,,,,,,,,,,
,,,,,V3_043,19,Female,2024-11-01_17h01.46.958,jersey_experiment_5_v3,2023.2.2,Win32,84.74576271,,,,,,,,,,,,,,,,1011.6572,1012.9511,1012.9512,1014.9276,return,0.149,,32.68229167,,,,,,FBP-YG-18.png,0.35,1.2,6,0.5,,,,,,,,,,,,,,,,,,0,4,4,5,1,,,,,,,,,,,,,,,,,,,,,,,
,,,,,V3_043,19,Female,2024-11-01_17h01.46.958,jersey_experiment_5_v3,2023.2.2,Win32,84.74576271,,,,,,,,,,,,,,,,1014.9279,1016.2218,1016.2219,1018.9043,return,0.965,,94.01041667,,,,,,FBP-PT-91.png,0.45,1.2,30,0.5,,,,,,,,,,,,,,,,,,0,5,5,29,1,,,,,,,,,,,,,,,,,,,,,,,
,,,,,V3_043,19,Female,2024-11-01_17h01.46.958,jersey_experiment_5_v3,2023.2.2,Win32,84.74576271,,,,,,,,,,,,,,,,1018.9045,1020.1984,1020.1985,1022.6456,return,0.2608,,37.76041667,,,,,,FBP-RB-81.png,0.35,1.2,51,0.5,,,,,,,,,,,,,,,,,,0,6,6,50,1,,,,,,,,,,,,,,,,,,,,,,,
,,,,,V3_043,19,Female,2024-11-01_17h01.46.958,jersey_experiment_5_v3,2023.2.2,Win32,84.74576271,,,,,,,,,,,,,,,,1022.6459,1023.9397,1023.9398,1026.6575,return,0.1906,,92.44791667,,,,,,FBP-RB-71.png,0.45,1.2,50,0.5,,,,,,,,,,,,,,,,,,0,7,7,49,1,,,,,,,,,,,,,,,,,,,,,,,
,,,,,V3_043,19,Female,2024-11-01_17h01.46.958,jersey_experiment_5_v3,2023.2.2,Win32,84.74576271,,,,,,,,,,,,,,,,1026.6578,1027.9516,1027.9516,1032.1518,return,0.1885,,54.6875,,,,,,FBP-RB-71.png,0.35,1.2,46,0.5,,,,,,,,,,,,,,,,,,0,8,8,45,1,,,,,,,,,,,,,,,,,,,,,,,
,,,,,V3_043,19,Female,2024-11-01_17h01.46.958,jersey_experiment_5_v3,2023.2.2,Win32,84.74576271,,,,,,,,,,,,,,,,1032.152,1033.4459,1033.446,1034.7871,return,0.1791,,62.5,,,,,,FBP-YG-18.png,0.37,1.2,7,0.5,,,,,,,,,,,,,,,,,,0,9,9,6,1,,,,,,,,,,,,,,,,,,,,,,,
,,,,,V3_043,19,Female,2024-11-01_17h01.46.958,jersey_experiment_5_v3,2023.2.2,Win32,84.74576271,,,,,,,,,,,,,,,,1034.7874,1036.0813,1036.0814,1037.9521,return,0.1837,,30.98958333,,,,,,FBP-YG-19.png,0.35,1.2,11,0.5,,,,,,,,,,,,,,,,,,0,10,10,10,1,,,,,,,,,,,,,,,,,,,,,,,
,,,,,V3_043,19,Female,2024-11-01_17h01.46.958,jersey_experiment_5_v3,2023.2.2,Win32,84.74576271,,,,,,,,,,,,,,,,1037.9523,1039.2461,1039.2461,1042.2933,return,0.1037,,75.390625,,,,,,FBP-RB-71.png,0.4,1.2,48,0.5,,,,,,,,,,,,,,,,,,0,11,11,47,1,,,,,,,,,,,,,,,,,,,,,,,
,,,,,V3_043,19,Female,2024-11-01_17h01.46.958,jersey_experiment_5_v3,2023.2.2,Win32,84.74576271,,,,,,,,,,,,,,,,1042.2936,1043.5875,1043.5876,1044.7288,return,0.2747,,75.78125,,,,,,FBP-YG-17.png,0.4,1.2,3,0.5,,,,,,,,,,,,,,,,,,0,12,12,2,1,,,,,,,,,,,,,,,,,,,,,,,
,,,,,V3_043,19,Female,2024-11-01_17h01.46.958,jersey_experiment_5_v3,2023.2.2,Win32,84.74576271,,,,,,,,,,,,,,,,1044.7291,1046.2818,1046.2819,1049.4466,return,0.127,,58.72395833,,,,,,FBP-OG-91.png,0.35,1.2,41,0.75,,,,,,,,,,,,,,,,,,0,13,13,40,1,,,,,,,,,,,,,,,,,,,,,,,
,,,,,V3_043,19,Female,2024-11-01_17h01.46.958,jersey_experiment_5_v3,2023.2.2,Win32,84.74576271,,,,,,,,,,,,,,,,1049.447,1050.9996,1050.9996,1052.5054,return,0.2128,,68.22916667,,,,,,FBP-OG-71.png,0.4,1.2,33,0.75,,,,,,,,,,,,,,,,,,0,14,14,32,1,,,,,,,,,,,,,,,,,,,,,,,
,,,,,V3_043,19,Female,2024-11-01_17h01.46.958,jersey_experiment_5_v3,2023.2.2,Win32,84.74576271,,,,,,,,,,,,,,,,1052.5057,1053.7997,1053.7998,1055.0114,return,0.1198,,86.19791667,,,,,,FBP-PT-71.png,0.45,1.2,20,0.5,,,,,,,,,,,,,,,,,,0,15,15,19,1,,,,,,,,,,,,,,,,,,,,,,,
,,,,,V3_043,19,Female,2024-11-01_17h01.46.958,jersey_experiment_5_v3,2023.2.2,Win32,84.74576271,,,,,,,,,,,,,,,,1055.0117,1056.3056,1056.3057,1060.2117,return,0.3216,,61.06770833,,,,,,FBP-PT-81.png,0.35,1.2,21,0.5,,,,,,,,,,,,,,,,,,0,16,16,20,1,,,,,,,,,,,,,,,,,,,,,,,
,,,,,V3_043,19,Female,2024-11-01_17h01.46.958,jersey_experiment_5_v3,2023.2.2,Win32,84.74576271,,,,,,,,,,,,,,,,1060.2119,1061.5058,1061.5058,1063.1412,return,0.271,,91.796875,,,,,,FBP-RB-91.png,0.45,1.2,60,0.5,,,,,,,,,,,,,,,,,,0,17,17,59,1,,,,,,,,,,,,,,,,,,,,,,,
,,,,,V3_043,19,Female,2024-11-01_17h01.46.958,jersey_experiment_5_v3,2023.2.2,Win32,84.74576271,,,,,,,,,,,,,,,,1063.1414,1064.4353,1064.4354,1068.9177,return,0.2027,,75,,,,,,FBP-YG-19.png,0.4,1.2,13,0.5,,,,,,,,,,,,,,,,,,0,18,18,12,1,,,,,,,,,,,,,,,,,,,,,,,
,,,,,V3_043,19,Female,2024-11-01_17h01.46.958,jersey_experiment_5_v3,2023.2.2,Win32,84.74576271,,,,,,,,,,,,,,,,1068.918,1070.2121,1070.2121,1071.671,return,0.1548,,88.41145833,,,,,,FBP-YG-18.png,0.45,1.2,10,0.5,,,,,,,,,,,,,,,,,,0,19,19,9,1,,,,,,,,,,,,,,,,,,,,,,,
,,,,,V3_043,19,Female,2024-11-01_17h01.46.958,jersey_experiment_5_v3,2023.2.2,Win32,84.74576271,,,,,,,,,,,,,,,,1071.6712,1073.224,1073.2241,1073.8474,return,0.2585,,88.41145833,,,,,,FBP-OG-91.png,0.43,1.2,44,0.75,,,,,,,,,,,,,,,,,,0,20,20,43,1,,,,,,,,,,,,,,,,,,,,,,,
,,,,,V3_043,19,Female,2024-11-01_17h01.46.958,jersey_experiment_5_v3,2023.2.2,Win32,84.74576271,,,,,,,,,,,,,,,,1073.8477,1075.4003,1075.4003,1078.1652,return,0.1786,,55.078125,,,,,,FBP-OG-91.png,0.37,1.2,42,0.75,,,,,,,,,,,,,,,,,,0,21,21,41,1,,,,,,,,,,,,,,,,,,,,,,,
,,,,,V3_043,19,Female,2024-11-01_17h01.46.958,jersey_experiment_5_v3,2023.2.2,Win32,84.74576271,,,,,,,,,,,,,,,,1078.1654,1079.4593,1079.4594,1080.73,return,0.2279,,73.046875,,,,,,FBP-PT-91.png,0.43,1.2,29,0.5,,,,,,,,,,,,,,,,,,0,22,22,28,1,,,,,,,,,,,,,,,,,,,,,,,
,,,,,V3_043,19,Female,2024-11-01_17h01.46.958,jersey_experiment_5_v3,2023.2.2,Win32,84.74576271,,,,,,,,,,,,,,,,1080.7302,1082.2831,1082.2832,1086.695,return,0.1884,,83.07291667,,,,,,FBP-OG-81.png,0.43,1.2,39,0.75,,,,,,,,,,,,,,,,,,0,23,23,38,1,,,,,,,,,,,,,,,,,,,,,,,
,,,,,V3_043,19,Female,2024-11-01_17h01.46.958,jersey_experiment_5_v3,2023.2.2,Win32,84.74576271,,,,,,,,,,,,,,,,1086.6951,1087.9892,1087.9892,1089.9185,return,0.197,,42.05729167,,,,,,FBP-PT-81.png,0.37,1.2,22,0.5,,,,,,,,,,,,,,,,,,0,24,24,21,1,,,,,,,,,,,,,,,,,,,,,,,
,,,,,V3_043,19,Female,2024-11-01_17h01.46.958,jersey_experiment_5_v3,2023.2.2,Win32,84.74576271,,,,,,,,,,,,,,,,1089.9188,1091.2128,1091.2128,1092.2483,return,0.2908,,41.796875,,,,,,FBP-YG-19.png,0.37,1.2,12,0.5,,,,,,,,,,,,,,,,,,0,25,25,11,1,,,,,,,,,,,,,,,,,,,,,,,
,,,,,V3_043,19,Female,2024-11-01_17h01.46.958,jersey_experiment_5_v3,2023.2.2,Win32,84.74576271,,,,,,,,,,,,,,,,1092.2486,1093.5422,1093.5423,1094.7894,return,0.2137,,36.328125,,,,,,FBP-RB-91.png,0.4,1.2,58,0.5,,,,,,,,,,,,,,,,,,0,26,26,57,1,,,,,,,,,,,,,,,,,,,,,,,
,,,,,V3_043,19,Female,2024-11-01_17h01.46.958,jersey_experiment_5_v3,2023.2.2,Win32,84.74576271,,,,,,,,,,,,,,,,1094.7896,1096.3423,1096.3423,1098.4836,return,0.1918,,33.59375,,,,,,FBP-OG-71.png,0.35,1.2,31,0.75,,,,,,,,,,,,,,,,,,0,27,27,30,1,,,,,,,,,,,,,,,,,,,,,,,
,,,,,V3_043,19,Female,2024-11-01_17h01.46.958,jersey_experiment_5_v3,2023.2.2,Win32,84.74576271,,,,,,,,,,,,,,,,1098.4839,1099.7778,1099.7778,1101.472,return,0.1485,,74.86979167,,,,,,FBP-YG-17.png,0.43,1.2,4,0.5,,,,,,,,,,,,,,,,,,0,28,28,3,1,,,,,,,,,,,,,,,,,,,,,,,
,,,,,V3_043,19,Female,2024-11-01_17h01.46.958,jersey_experiment_5_v3,2023.2.2,Win32,84.74576271,,,,,,,,,,,,,,,,1101.4722,1102.7662,1102.7662,1104.3898,return,0.2839,,65.625,,,,,,FBP-PT-71.png,0.35,1.2,16,0.5,,,,,,,,,,,,,,,,,,0,29,29,15,1,,,,,,,,,,,,,,,,,,,,,,,
,,,,,V3_043,19,Female,2024-11-01_17h01.46.958,jersey_experiment_5_v3,2023.2.2,Win32,84.74576271,,,,,,,,,,,,,,,,1104.39,1105.6838,1105.6839,1108.3076,return,1.3185,,59.63541667,,,,,,FBP-RB-71.png,0.37,1.2,47,0.5,,,,,,,,,,,,,,,,,,0,30,30,46,1,,,,,,,,,,,,,,,,,,,,,,,
,,,,,V3_043,19,Female,2024-11-01_17h01.46.958,jersey_experiment_5_v3,2023.2.2,Win32,84.74576271,,,,,,,,,,,,,,,,1108.3078,1109.8606,1109.8606,1111.6959,return,0.1456,,74.73958333,,,,,,FBP-OG-91.png,0.45,1.2,45,0.75,,,,,,,,,,,,,,,,,,0,31,31,44,1,,,,,,,,,,,,,,,,,,,,,,,
,,,,,V3_043,19,Female,2024-11-01_17h01.46.958,jersey_experiment_5_v3,2023.2.2,Win32,84.74576271,,,,,,,,,,,,,,,,1111.6962,1112.99,1112.9901,1116.4372,return,0.1768,,45.3125,,,,,,FBP-PT-91.png,0.4,1.2,28,0.5,,,,,,,,,,,,,,,,,,0,32,32,27,1,,,,,,,,,,,,,,,,,,,,,,,
,,,,,V3_043,19,Female,2024-11-01_17h01.46.958,jersey_experiment_5_v3,2023.2.2,Win32,84.74576271,,,,,,,,,,,,,,,,1116.4375,1117.7314,1117.7314,1120.4845,return,0.2012,,57.55208333,,,,,,FBP-PT-81.png,0.4,1.2,23,0.5,,,,,,,,,,,,,,,,,,0,33,33,22,1,,,,,,,,,,,,,,,,,,,,,,,
,,,,,V3_043,19,Female,2024-11-01_17h01.46.958,jersey_experiment_5_v3,2023.2.2,Win32,84.74576271,,,,,,,,,,,,,,,,1120.4847,1121.7786,1121.7786,1126.6494,return,0.0949,,74.34895833,,,,,,FBP-RB-71.png,0.43,1.2,49,0.5,,,,,,,,,,,,,,,,,,0,34,34,48,1,,,,,,,,,,,,,,,,,,,,,,,
,,,,,V3_043,19,Female,2024-11-01_17h01.46.958,jersey_experiment_5_v3,2023.2.2,Win32,84.74576271,,,,,,,,,,,,,,,,1126.6496,1127.9436,1127.9436,1129.473,return,0.1947,,70.96354167,,,,,,FBP-PT-71.png,0.43,1.2,19,0.5,,,,,,,,,,,,,,,,,,0,35,35,18,1,,,,,,,,,,,,,,,,,,,,,,,
,,,,,V3_043,19,Female,2024-11-01_17h01.46.958,jersey_experiment_5_v3,2023.2.2,Win32,84.74576271,,,,,,,,,,,,,,,,1129.4734,1131.0262,1131.0262,1132.0025,return,0.1205,,25.52083333,,,,,,FBP-OG-81.png,0.37,1.2,37,0.75,,,,,,,,,,,,,,,,,,0,36,36,36,1,,,,,,,,,,,,,,,,,,,,,,,
,,,,,V3_043,19,Female,2024-11-01_17h01.46.958,jersey_experiment_5_v3,2023.2.2,Win32,84.74576271,,,,,,,,,,,,,,,,1132.0027,1133.5555,1133.5556,1134.4379,return,0.082,,32.68229167,,,,,,FBP-OG-71.png,0.37,1.2,32,0.75,,,,,,,,,,,,,,,,,,0,37,37,31,1,,,,,,,,,,,,,,,,,,,,,,,
,,,,,V3_043,19,Female,2024-11-01_17h01.46.958,jersey_experiment_5_v3,2023.2.2,Win32,84.74576271,,,,,,,,,,,,,,,,1134.4381,1135.732,1135.732,1139.791,return,1.1118,,75.26041667,,,,,,FBP-RB-81.png,0.45,1.2,55,0.5,,,,,,,,,,,,,,,,,,0,38,38,54,1,,,,,,,,,,,,,,,,,,,,,,,
,,,,,V3_043,19,Female,2024-11-01_17h01.46.958,jersey_experiment_5_v3,2023.2.2,Win32,84.74576271,,,,,,,,,,,,,,,,1139.7912,1141.0852,1141.0852,1143.0264,return,0.711,,67.83854167,,,,,,FBP-PT-71.png,0.4,1.2,18,0.5,,,,,,,,,,,,,,,,,,0,39,39,17,1,,,,,,,,,,,,,,,,,,,,,,,
,,,,,V3_043,19,Female,2024-11-01_17h01.46.958,jersey_experiment_5_v3,2023.2.2,Win32,84.74576271,,,,,,,,,,,,,,,,1143.0267,1144.3205,1144.3205,1146.5325,return,0.1541,,38.671875,,,,,,FBP-YG-17.png,0.35,1.2,1,0.5,,,,,,,,,,,,,,,,,,0,40,40,0,1,,,,,,,,,,,,,,,,,,,,,,,
,,,,,V3_043,19,Female,2024-11-01_17h01.46.958,jersey_experiment_5_v3,2023.2.2,Win32,84.74576271,,,,,,,,,,,,,,,,1146.5327,1148.0855,1148.0855,1150.3914,return,0.1177,,72.13541667,,,,,,FBP-OG-71.png,0.43,1.2,34,0.75,,,,,,,,,,,,,,,,,,0,41,41,33,1,,,,,,,,,,,,,,,,,,,,,,,
,,,,,V3_043,19,Female,2024-11-01_17h01.46.958,jersey_experiment_5_v3,2023.2.2,Win32,84.74576271,,,,,,,,,,,,,,,,1150.3916,1151.9444,1151.9444,1154.1445,return,0.1701,,71.875,,,,,,FBP-OG-91.png,0.4,1.2,43,0.75,,,,,,,,,,,,,,,,,,0,42,42,42,1,,,,,,,,,,,,,,,,,,,,,,,
,,,,,V3_043,19,Female,2024-11-01_17h01.46.958,jersey_experiment_5_v3,2023.2.2,Win32,84.74576271,,,,,,,,,,,,,,,,1154.1448,1155.4387,1155.4387,1156.8151,return,0.1337,,86.06770833,,,,,,FBP-YG-17.png,0.45,1.2,5,0.5,,,,,,,,,,,,,,,,,,0,43,43,4,1,,,,,,,,,,,,,,,,,,,,,,,
,,,,,V3_043,19,Female,2024-11-01_17h01.46.958,jersey_experiment_5_v3,2023.2.2,Win32,84.74576271,,,,,,,,,,,,,,,,1156.8153,1158.1094,1158.1094,1159.9095,return,0.1432,,89.19270833,,,,,,FBP-PT-81.png,0.45,1.2,25,0.5,,,,,,,,,,,,,,,,,,0,44,44,24,1,,,,,,,,,,,,,,,,,,,,,,,
,,,,,V3_043,19,Female,2024-11-01_17h01.46.958,jersey_experiment_5_v3,2023.2.2,Win32,84.74576271,,,,,,,,,,,,,,,,1159.9097,1161.2035,1161.2035,1162.7566,return,0.1079,,78.90625,,,,,,FBP-YG-19.png,0.43,1.2,14,0.5,,,,,,,,,,,,,,,,,,0,45,45,13,1,,,,,,,,,,,,,,,,,,,,,,,
,,,,,V3_043,19,Female,2024-11-01_17h01.46.958,jersey_experiment_5_v3,2023.2.2,Win32,84.74576271,,,,,,,,,,,,,,,,1162.7569,1164.0507,1164.0507,1165.9214,return,0.1237,,29.03645833,,,,,,FBP-RB-91.png,0.37,1.2,57,0.5,,,,,,,,,,,,,,,,,,0,46,46,56,1,,,,,,,,,,,,,,,,,,,,,,,
,,,,,V3_043,19,Female,2024-11-01_17h01.46.958,jersey_experiment_5_v3,2023.2.2,Win32,84.74576271,,,,,,,,,,,,,,,,1165.9218,1167.2156,1167.2156,1170.404,return,0.1415,,57.421875,,,,,,FBP-PT-91.png,0.37,1.2,27,0.5,,,,,,,,,,,,,,,,,,0,47,47,26,1,,,,,,,,,,,,,,,,,,,,,,,
,,,,,V3_043,19,Female,2024-11-01_17h01.46.958,jersey_experiment_5_v3,2023.2.2,Win32,84.74576271,,,,,,,,,,,,,,,,1170.4042,1171.6981,1171.6981,1173.2627,return,0.1732,,36.06770833,,,,,,FBP-PT-91.png,0.35,1.2,26,0.5,,,,,,,,,,,,,,,,,,0,48,48,25,1,,,,,,,,,,,,,,,,,,,,,,,
,,,,,V3_043,19,Female,2024-11-01_17h01.46.958,jersey_experiment_5_v3,2023.2.2,Win32,84.74576271,,,,,,,,,,,,,,,,1173.263,1174.557,1174.557,1175.7688,return,0.0971,,84.765625,,,,,,FBP-RB-81.png,0.43,1.2,54,0.5,,,,,,,,,,,,,,,,,,0,49,49,53,1,,,,,,,,,,,,,,,,,,,,,,,
,,,,,V3_043,19,Female,2024-11-01_17h01.46.958,jersey_experiment_5_v3,2023.2.2,Win32,84.74576271,,,,,,,,,,,,,,,,1175.769,1177.0629,1177.063,1178.863,return,0.0872,,64.0625,,,,,,FBP-YG-18.png,0.4,1.2,8,0.5,,,,,,,,,,,,,,,,,,0,50,50,7,1,,,,,,,,,,,,,,,,,,,,,,,
,,,,,V3_043,19,Female,2024-11-01_17h01.46.958,jersey_experiment_5_v3,2023.2.2,Win32,84.74576271,,,,,,,,,,,,,,,,1178.8632,1180.4161,1180.4162,1182.5808,return,0.1435,,84.63541667,,,,,,FBP-OG-81.png,0.45,1.2,40,0.75,,,,,,,,,,,,,,,,,,0,51,51,39,1,,,,,,,,,,,,,,,,,,,,,,,
,,,,,V3_043,19,Female,2024-11-01_17h01.46.958,jersey_experiment_5_v3,2023.2.2,Win32,84.74576271,,,,,,,,,,,,,,,,1182.5812,1183.875,1183.8751,1186.7693,return,0.1475,,68.75,,,,,,FBP-YG-18.png,0.43,1.2,9,0.5,,,,,,,,,,,,,,,,,,0,52,52,8,1,,,,,,,,,,,,,,,,,,,,,,,
,,,,,V3_043,19,Female,2024-11-01_17h01.46.958,jersey_experiment_5_v3,2023.2.2,Win32,84.74576271,,,,,,,,,,,,,,,,1186.7697,1188.0635,1188.0636,1189.2399,return,0.0942,,75.91145833,,,,,,FBP-YG-19.png,0.45,1.2,15,0.5,,,,,,,,,,,,,,,,,,0,53,53,14,1,,,,,,,,,,,,,,,,,,,,,,,
,,,,,V3_043,19,Female,2024-11-01_17h01.46.958,jersey_experiment_5_v3,2023.2.2,Win32,84.74576271,,,,,,,,,,,,,,,,1189.2402,1190.7929,1190.7929,1191.8871,return,0.2632,,75,,,,,,FBP-OG-71.png,0.45,1.2,35,0.75,,,,,,,,,,,,,,,,,,0,54,54,34,1,,,,,,,,,,,,,,,,,,,,,,,
,,,,,V3_043,19,Female,2024-11-01_17h01.46.958,jersey_experiment_5_v3,2023.2.2,Win32,84.74576271,,,,,,,,,,,,,,,,1191.8874,1193.1812,1193.1813,1199.0756,return,0.0508,,57.421875,,,,,,FBP-YG-17.png,0.37,1.2,2,0.5,,,,,,,,,,,,,,,,,,0,55,55,1,1,,,,,,,,,,,,,,,,,,,,,,,
,,,,,V3_043,19,Female,2024-11-01_17h01.46.958,jersey_experiment_5_v3,2023.2.2,Win32,84.74576271,,,,,,,,,,,,,,,,1199.076,1200.6285,1200.6285,1201.9345,return,0.1853,,39.84375,,,,,,FBP-OG-81.png,0.4,1.2,38,0.75,,,,,,,,,,,,,,,,,,0,56,56,37,1,,,,,,,,,,,,,,,,,,,,,,,
,,,,,V3_043,19,Female,2024-11-01_17h01.46.958,jersey_experiment_5_v3,2023.2.2,Win32,84.74576271,,,,,,,,,,,,,,,,1201.9348,1203.2288,1203.2288,1204.2405,return,0.1209,,34.765625,,,,,,FBP-PT-71.png,0.37,1.2,17,0.5,,,,,,,,,,,,,,,,,,0,57,57,16,1,,,,,,,,,,,,,,,,,,,,,,,
,,,,,V3_043,19,Female,2024-11-01_17h01.46.958,jersey_experiment_5_v3,2023.2.2,Win32,84.74576271,,,,,,,,,,,,,,,,1204.2408,1205.5347,1205.5347,1207.5936,return,0.1969,,67.96875,,,,,,FBP-RB-91.png,0.43,1.2,59,0.5,,,,,,,,,,,,,,,,,,0,58,58,58,1,,,,,,,,,,,,,,,,,,,,,,,
,,,,,V3_043,19,Female,2024-11-01_17h01.46.958,jersey_experiment_5_v3,2023.2.2,Win32,84.74576271,,,,,,,,,,,,,,,,1207.5939,1208.8877,1208.8877,1210.2171,return,0.1786,,37.890625,,,,,,FBP-RB-81.png,0.37,1.2,52,0.5,,,,,,,,,,,,,,,,,,0,59,59,51,1,,,,,,,,,,,,,,,,,,,,,,,
,,,,,V3_043,19,Female,2024-11-01_17h01.46.958,jersey_experiment_5_v3,2023.2.2,Win32,84.74576271,,,,,,,,,,,,,,,,,,,,,,,,,,,,,,,,,,,,,,,,,,,,,,,,,,,,,,,,1210.2174,1217.2412,return,7.0116,,,,,,,,,,,,,,,,,,,
,,,,,V3_043,19,Female,2024-11-01_17h01.46.958,jersey_experiment_5_v3,2023.2.2,Win32,84.74576271,,,,,,,,,,,,,,,,,,,,,,,,,,,,,,,,,,,,,,,,,,,,,,,,,,,,,,,,,,,,,1217.2412,1221.9119,1,3.5673,return,1.0794,,,,,,,,,,,,
,,,,,V3_043,19,Female,2024-11-01_17h01.46.958,jersey_experiment_5_v3,2023.2.2,Win32,84.74576271,,,,,,,,,,,,,,,,,,,,,,,,,,,,,,,,,,,,,,,,,,,,,,,,,,,,,,,,,,,,,,,,,,,,1221.9121,1391.3776,"I assume something around bias, or how seeing one image before another can impact how we view something (seeing a slender example and then neutral, but we may count that as more husky due to the order they were presented in). At times the images seemed to be the really similar in size but in a different skin tone.",right,158.6118,,,,,,
,,,,,V3_043,19,Female,2024-11-01_17h01.46.958,jersey_experiment_5_v3,2023.2.2,Win32,84.74576271,,,,,,,,,,,,,,,,,,,,,,,,,,,,,,,,,,,,,,,,,,,,,,,,,,,,,,,,,,,,,,,,,,,,,,,,,,1391.3777,1408.66,return,17.2732,