requirements.started,requirements.stopped,key_resp_3.keys,key_resp_3.rt,key_resp_3.duration,Subject ID,Age,Gender,date,expName,psychopyVersion,OS,frameRate,instructions1.started,instructions1.stopped,key_resp.keys,key_resp.rt,key_resp.duration,example.started,example.stopped,enter_2.keys,enter_2.rt,enter_2.duration,instructions2.started,instructions2.stopped,enter_3.keys,enter_3.rt,enter_3.duration,image.started,image.stopped,slider_2.started,slider_2.stopped,next.keys,next.rt,next.duration,slider.response,trial_block_1.thisRepN,trial_block_1.thisTrialN,trial_block_1.thisN,trial_block_1.thisIndex,trial_block_1.ran,Path,Width,Height,Index,Duration,trial_block_2.thisRepN,trial_block_2.thisTrialN,trial_block_2.thisN,trial_block_2.thisIndex,trial_block_2.ran,rest_break.started,rest_break.stopped,end_break.started,end_break.stopped,key_resp_5.keys,key_resp_5.rt,key_resp_5.duration,trial_block_3.thisRepN,trial_block_3.thisTrialN,trial_block_3.thisN,trial_block_3.thisIndex,trial_block_3.ran,trial_block_4.thisRepN,trial_block_4.thisTrialN,trial_block_4.thisN,trial_block_4.thisIndex,trial_block_4.ran,questions_intro.started,questions_intro.stopped,enter_12.keys,enter_12.rt,enter_12.duration,question2.started,question2.stopped,question_doingbest.response,question_doingbest.rt,enter_15.keys,enter_15.rt,enter_15.duration,pattern.started,pattern.stopped,pattern_2.text,enter_17.keys,enter_17.rt,enter_17.duration,thankyou.started,thankyou.stopped,enter_14.keys,enter_14.rt,enter_14.duration
1E-04,12.2518,return,12.2452,,V3_028,18,female,2024-10-20_16h34.24.768,jersey_experiment_5_v3,2023.2.2,Win32,84.74576271,,,,,,,,,,,,,,,,,,,,,,,,,,,,,,,,,,,,,,,,,,,,,,,,,,,,,,,,,,,,,,,,,,,,,,,,,,,,,,
,,,,,V3_028,18,female,2024-10-20_16h34.24.768,jersey_experiment_5_v3,2023.2.2,Win32,84.74576271,12.2519,18.8722,return,6.6023,,,,,,,,,,,,,,,,,,,,,,,,,,,,,,,,,,,,,,,,,,,,,,,,,,,,,,,,,,,,,,,,,,,,,,,,,,
,,,,,V3_028,18,female,2024-10-20_16h34.24.768,jersey_experiment_5_v3,2023.2.2,Win32,84.74576271,,,,,,18.8722,24.8608,return,5.9515,,,,,,,,,,,,,,,,,,,,,,,,,,,,,,,,,,,,,,,,,,,,,,,,,,,,,,,,,,,,,,,,,,,,,
,,,,,V3_028,18,female,2024-10-20_16h34.24.768,jersey_experiment_5_v3,2023.2.2,Win32,84.74576271,,,,,,,,,,,24.8609,37.6376,return,12.772,,,,,,,,,,,,,,,,,,,,,,,,,,,,,,,,,,,,,,,,,,,,,,,,,,,,,,,,,,,,,,,,
,,,,,V3_028,18,female,2024-10-20_16h34.24.768,jersey_experiment_5_v3,2023.2.2,Win32,84.74576271,,,,,,,,,,,,,,,,37.6397,38.9316,38.9316,45.4379,return,2.0318,,52.60416667,0,0,0,37,1,FBP-OG-18.png,0.4,1.2,38,0.5,,,,,,,,,,,,,,,,,,,,,,,,,,,,,,,,,,,,,,,,,,,,,
,,,,,V3_028,18,female,2024-10-20_16h34.24.768,jersey_experiment_5_v3,2023.2.2,Win32,84.74576271,,,,,,,,,,,,,,,,45.438,46.9908,46.9909,50.1673,return,1.0422,,74.609375,0,1,1,59,1,FBP-RB-19.png,0.45,1.2,60,0.75,,,,,,,,,,,,,,,,,,,,,,,,,,,,,,,,,,,,,,,,,,,,,
,,,,,V3_028,18,female,2024-10-20_16h34.24.768,jersey_experiment_5_v3,2023.2.2,Win32,84.74576271,,,,,,,,,,,,,,,,50.1676,51.7204,51.7204,55.544,return,0.6296,,74.609375,0,2,2,9,1,FBP-YG-81.png,0.45,1.2,10,0.75,,,,,,,,,,,,,,,,,,,,,,,,,,,,,,,,,,,,,,,,,,,,,
,,,,,V3_028,18,female,2024-10-20_16h34.24.768,jersey_experiment_5_v3,2023.2.2,Win32,84.74576271,,,,,,,,,,,,,,,,55.5442,57.097,57.097,59.4383,return,0.7371,,29.94791667,0,3,3,50,1,FBP-RB-18.png,0.35,1.2,51,0.75,,,,,,,,,,,,,,,,,,,,,,,,,,,,,,,,,,,,,,,,,,,,,
,,,,,V3_028,18,female,2024-10-20_16h34.24.768,jersey_experiment_5_v3,2023.2.2,Win32,84.74576271,,,,,,,,,,,,,,,,59.4384,60.9797,60.9799,63.356,return,0.6823,,79.55729167,0,4,4,8,1,FBP-YG-81.png,0.43,1.2,9,0.75,,,,,,,,,,,,,,,,,,,,,,,,,,,,,,,,,,,,,,,,,,,,,
,,,,,V3_028,18,female,2024-10-20_16h34.24.768,jersey_experiment_5_v3,2023.2.2,Win32,84.74576271,,,,,,,,,,,,,,,,63.3562,64.9091,64.9091,66.7445,return,0.6291,,49.73958333,0,5,5,55,1,FBP-RB-19.png,0.35,1.2,56,0.75,,,,,,,,,,,,,,,,,,,,,,,,,,,,,,,,,,,,,,,,,,,,,
,,,,,V3_028,18,female,2024-10-20_16h34.24.768,jersey_experiment_5_v3,2023.2.2,Win32,84.74576271,,,,,,,,,,,,,,,,66.7447,68.2976,68.2976,70.3799,return,0.7395,,88.54166667,0,6,6,14,1,FBP-YG-91.png,0.45,1.2,15,0.75,,,,,,,,,,,,,,,,,,,,,,,,,,,,,,,,,,,,,,,,,,,,,
,,,,,V3_028,18,female,2024-10-20_16h34.24.768,jersey_experiment_5_v3,2023.2.2,Win32,84.74576271,,,,,,,,,,,,,,,,70.38,71.9328,71.9329,74.4858,return,0.6185,,76.69270833,0,7,7,53,1,FBP-RB-18.png,0.43,1.2,54,0.75,,,,,,,,,,,,,,,,,,,,,,,,,,,,,,,,,,,,,,,,,,,,,
,,,,,V3_028,18,female,2024-10-20_16h34.24.768,jersey_experiment_5_v3,2023.2.2,Win32,84.74576271,,,,,,,,,,,,,,,,74.4861,75.78,75.7801,78.0154,return,0.5886,,82.03125,0,8,8,33,1,FBP-OG-17.png,0.43,1.2,34,0.5,,,,,,,,,,,,,,,,,,,,,,,,,,,,,,,,,,,,,,,,,,,,,
,,,,,V3_028,18,female,2024-10-20_16h34.24.768,jersey_experiment_5_v3,2023.2.2,Win32,84.74576271,,,,,,,,,,,,,,,,78.0155,79.5684,79.5684,81.5451,return,0.6054,,91.14583333,0,9,9,3,1,FBP-YG-71.png,0.43,1.2,4,0.75,,,,,,,,,,,,,,,,,,,,,,,,,,,,,,,,,,,,,,,,,,,,,
,,,,,V3_028,18,female,2024-10-20_16h34.24.768,jersey_experiment_5_v3,2023.2.2,Win32,84.74576271,,,,,,,,,,,,,,,,81.5452,82.8393,82.8393,84.8157,return,0.8127,,49.08854167,0,10,10,35,1,FBP-OG-18.png,0.35,1.2,36,0.5,,,,,,,,,,,,,,,,,,,,,,,,,,,,,,,,,,,,,,,,,,,,,
,,,,,V3_028,18,female,2024-10-20_16h34.24.768,jersey_experiment_5_v3,2023.2.2,Win32,84.74576271,,,,,,,,,,,,,,,,84.8158,86.1099,86.1099,87.8863,return,0.518,,67.31770833,0,11,11,31,1,FBP-OG-17.png,0.37,1.2,32,0.5,,,,,,,,,,,,,,,,,,,,,,,,,,,,,,,,,,,,,,,,,,,,,
,,,,,V3_028,18,female,2024-10-20_16h34.24.768,jersey_experiment_5_v3,2023.2.2,Win32,84.74576271,,,,,,,,,,,,,,,,87.8866,89.4395,89.4396,91.2395,return,0.7348,,99.34895833,0,12,12,17,1,FBP-PT-17.png,0.4,1.2,18,0.75,,,,,,,,,,,,,,,,,,,,,,,,,,,,,,,,,,,,,,,,,,,,,
,,,,,V3_028,18,female,2024-10-20_16h34.24.768,jersey_experiment_5_v3,2023.2.2,Win32,84.74576271,,,,,,,,,,,,,,,,91.2399,92.7927,92.7928,94.9573,return,0.5885,,54.94791667,0,13,13,45,1,FBP-RB-17.png,0.35,1.2,46,0.75,,,,,,,,,,,,,,,,,,,,,,,,,,,,,,,,,,,,,,,,,,,,,
,,,,,V3_028,18,female,2024-10-20_16h34.24.768,jersey_experiment_5_v3,2023.2.2,Win32,84.74576271,,,,,,,,,,,,,,,,94.9576,96.5103,96.5103,97.9927,return,0.5191,,74.609375,0,14,14,57,1,FBP-RB-19.png,0.4,1.2,58,0.75,,,,,,,,,,,,,,,,,,,,,,,,,,,,,,,,,,,,,,,,,,,,,
,,,,,V3_028,18,female,2024-10-20_16h34.24.768,jersey_experiment_5_v3,2023.2.2,Win32,84.74576271,,,,,,,,,,,,,,,,97.9929,99.2868,99.2868,100.9104,return,0.5908,,74.73958333,0,15,15,43,1,FBP-OG-19.png,0.43,1.2,44,0.5,,,,,,,,,,,,,,,,,,,,,,,,,,,,,,,,,,,,,,,,,,,,,
,,,,,V3_028,18,female,2024-10-20_16h34.24.768,jersey_experiment_5_v3,2023.2.2,Win32,84.74576271,,,,,,,,,,,,,,,,100.9107,102.4634,102.4634,104.0399,return,0.5438,,49.47916667,0,16,16,51,1,FBP-RB-18.png,0.37,1.2,52,0.75,,,,,,,,,,,,,,,,,,,,,,,,,,,,,,,,,,,,,,,,,,,,,
,,,,,V3_028,18,female,2024-10-20_16h34.24.768,jersey_experiment_5_v3,2023.2.2,Win32,84.74576271,,,,,,,,,,,,,,,,104.0402,105.5929,105.5929,107.3577,return,0.5884,,64.97395833,0,17,17,28,1,FBP-PT-19.png,0.43,1.2,29,0.75,,,,,,,,,,,,,,,,,,,,,,,,,,,,,,,,,,,,,,,,,,,,,
,,,,,V3_028,18,female,2024-10-20_16h34.24.768,jersey_experiment_5_v3,2023.2.2,Win32,84.74576271,,,,,,,,,,,,,,,,107.358,108.9108,108.9108,110.5813,return,0.6169,,24.08854167,0,18,18,20,1,FBP-PT-18.png,0.35,1.2,21,0.75,,,,,,,,,,,,,,,,,,,,,,,,,,,,,,,,,,,,,,,,,,,,,
,,,,,V3_028,18,female,2024-10-20_16h34.24.768,jersey_experiment_5_v3,2023.2.2,Win32,84.74576271,,,,,,,,,,,,,,,,110.5814,112.1226,112.1226,113.9108,return,0.7703,,32.16145833,0,19,19,25,1,FBP-PT-19.png,0.35,1.2,26,0.75,,,,,,,,,,,,,,,,,,,,,,,,,,,,,,,,,,,,,,,,,,,,,
,,,,,V3_028,18,female,2024-10-20_16h34.24.768,jersey_experiment_5_v3,2023.2.2,Win32,84.74576271,,,,,,,,,,,,,,,,113.911,115.4639,115.4639,116.8287,return,0.5897,,38.02083333,0,20,20,10,1,FBP-YG-91.png,0.35,1.2,11,0.75,,,,,,,,,,,,,,,,,,,,,,,,,,,,,,,,,,,,,,,,,,,,,
,,,,,V3_028,18,female,2024-10-20_16h34.24.768,jersey_experiment_5_v3,2023.2.2,Win32,84.74576271,,,,,,,,,,,,,,,,116.8289,118.1229,118.1229,119.7582,return,0.7665,,70.18229167,0,21,21,39,1,FBP-OG-18.png,0.45,1.2,40,0.5,,,,,,,,,,,,,,,,,,,,,,,,,,,,,,,,,,,,,,,,,,,,,
,,,,,V3_028,18,female,2024-10-20_16h34.24.768,jersey_experiment_5_v3,2023.2.2,Win32,84.74576271,,,,,,,,,,,,,,,,119.7586,121.3114,121.3114,122.6522,return,0.5411,,84.765625,0,22,22,58,1,FBP-RB-19.png,0.43,1.2,59,0.75,,,,,,,,,,,,,,,,,,,,,,,,,,,,,,,,,,,,,,,,,,,,,
,,,,,V3_028,18,female,2024-10-20_16h34.24.768,jersey_experiment_5_v3,2023.2.2,Win32,84.74576271,,,,,,,,,,,,,,,,122.6525,124.2053,124.2054,127.8995,return,2.5576,,77.86458333,0,23,23,24,1,FBP-PT-18.png,0.45,1.2,25,0.75,,,,,,,,,,,,,,,,,,,,,,,,,,,,,,,,,,,,,,,,,,,,,
,,,,,V3_028,18,female,2024-10-20_16h34.24.768,jersey_experiment_5_v3,2023.2.2,Win32,84.74576271,,,,,,,,,,,,,,,,127.8998,129.4526,129.4526,131.1115,return,0.7362,,61.45833333,0,24,24,22,1,FBP-PT-18.png,0.4,1.2,23,0.75,,,,,,,,,,,,,,,,,,,,,,,,,,,,,,,,,,,,,,,,,,,,,
,,,,,V3_028,18,female,2024-10-20_16h34.24.768,jersey_experiment_5_v3,2023.2.2,Win32,84.74576271,,,,,,,,,,,,,,,,131.1117,132.4058,132.4058,133.9939,return,0.6141,,75.13020833,0,25,25,44,1,FBP-OG-19.png,0.45,1.2,45,0.5,,,,,,,,,,,,,,,,,,,,,,,,,,,,,,,,,,,,,,,,,,,,,
,,,,,V3_028,18,female,2024-10-20_16h34.24.768,jersey_experiment_5_v3,2023.2.2,Win32,84.74576271,,,,,,,,,,,,,,,,133.9942,135.5471,135.5472,136.7587,return,0.6036,,48.17708333,0,26,26,1,1,FBP-YG-71.png,0.37,1.2,2,0.75,,,,,,,,,,,,,,,,,,,,,,,,,,,,,,,,,,,,,,,,,,,,,
,,,,,V3_028,18,female,2024-10-20_16h34.24.768,jersey_experiment_5_v3,2023.2.2,Win32,84.74576271,,,,,,,,,,,,,,,,136.759,138.3116,138.3117,139.9825,return,0.9885,,55.72916667,0,27,27,6,1,FBP-YG-81.png,0.37,1.2,7,0.75,,,,,,,,,,,,,,,,,,,,,,,,,,,,,,,,,,,,,,,,,,,,,
,,,,,V3_028,18,female,2024-10-20_16h34.24.768,jersey_experiment_5_v3,2023.2.2,Win32,84.74576271,,,,,,,,,,,,,,,,139.9828,141.5355,141.5355,143.0649,return,0.7223,,83.984375,0,28,28,29,1,FBP-PT-19.png,0.45,1.2,30,0.75,,,,,,,,,,,,,,,,,,,,,,,,,,,,,,,,,,,,,,,,,,,,,
,,,,,V3_028,18,female,2024-10-20_16h34.24.768,jersey_experiment_5_v3,2023.2.2,Win32,84.74576271,,,,,,,,,,,,,,,,143.0652,144.618,144.618,145.7709,return,0.662,,88.15104167,0,29,29,13,1,FBP-YG-91.png,0.43,1.2,14,0.75,,,,,,,,,,,,,,,,,,,,,,,,,,,,,,,,,,,,,,,,,,,,,
,,,,,V3_028,18,female,2024-10-20_16h34.24.768,jersey_experiment_5_v3,2023.2.2,Win32,84.74576271,,,,,,,,,,,,,,,,145.7711,147.065,147.065,148.877,return,0.8797,,31.11979167,0,30,30,30,1,FBP-OG-17.png,0.35,1.2,31,0.5,,,,,,,,,,,,,,,,,,,,,,,,,,,,,,,,,,,,,,,,,,,,,
,,,,,V3_028,18,female,2024-10-20_16h34.24.768,jersey_experiment_5_v3,2023.2.2,Win32,84.74576271,,,,,,,,,,,,,,,,148.877,150.4183,150.4184,152.23,return,0.7495,,74.609375,0,31,31,19,1,FBP-PT-17.png,0.45,1.2,20,0.75,,,,,,,,,,,,,,,,,,,,,,,,,,,,,,,,,,,,,,,,,,,,,
,,,,,V3_028,18,female,2024-10-20_16h34.24.768,jersey_experiment_5_v3,2023.2.2,Win32,84.74576271,,,,,,,,,,,,,,,,152.2302,153.7829,153.7829,154.9359,return,0.6374,,80.59895833,0,32,32,54,1,FBP-RB-18.png,0.45,1.2,55,0.75,,,,,,,,,,,,,,,,,,,,,,,,,,,,,,,,,,,,,,,,,,,,,
,,,,,V3_028,18,female,2024-10-20_16h34.24.768,jersey_experiment_5_v3,2023.2.2,Win32,84.74576271,,,,,,,,,,,,,,,,154.9361,156.489,156.489,158.7361,return,0.6695,,50.26041667,0,33,33,23,1,FBP-PT-18.png,0.43,1.2,24,0.75,,,,,,,,,,,,,,,,,,,,,,,,,,,,,,,,,,,,,,,,,,,,,
,,,,,V3_028,18,female,2024-10-20_16h34.24.768,jersey_experiment_5_v3,2023.2.2,Win32,84.74576271,,,,,,,,,,,,,,,,158.7362,160.2891,160.2892,161.6773,return,0.644,,23.30729167,0,34,34,0,1,FBP-YG-71.png,0.35,1.2,1,0.75,,,,,,,,,,,,,,,,,,,,,,,,,,,,,,,,,,,,,,,,,,,,,
,,,,,V3_028,18,female,2024-10-20_16h34.24.768,jersey_experiment_5_v3,2023.2.2,Win32,84.74576271,,,,,,,,,,,,,,,,161.6775,163.2188,163.2188,164.8539,return,0.6435,,49.73958333,0,35,35,12,1,FBP-YG-91.png,0.4,1.2,13,0.75,,,,,,,,,,,,,,,,,,,,,,,,,,,,,,,,,,,,,,,,,,,,,
,,,,,V3_028,18,female,2024-10-20_16h34.24.768,jersey_experiment_5_v3,2023.2.2,Win32,84.74576271,,,,,,,,,,,,,,,,164.8541,166.4069,166.4069,168.1599,return,0.5424,,24.609375,0,36,36,16,1,FBP-PT-17.png,0.37,1.2,17,0.75,,,,,,,,,,,,,,,,,,,,,,,,,,,,,,,,,,,,,,,,,,,,,
,,,,,V3_028,18,female,2024-10-20_16h34.24.768,jersey_experiment_5_v3,2023.2.2,Win32,84.74576271,,,,,,,,,,,,,,,,168.1601,169.7129,169.713,171.5013,return,0.6042,,37.5,0,37,37,11,1,FBP-YG-91.png,0.37,1.2,12,0.75,,,,,,,,,,,,,,,,,,,,,,,,,,,,,,,,,,,,,,,,,,,,,
,,,,,V3_028,18,female,2024-10-20_16h34.24.768,jersey_experiment_5_v3,2023.2.2,Win32,84.74576271,,,,,,,,,,,,,,,,171.5016,173.0541,173.0542,174.4543,return,0.6509,,36.45833333,0,38,38,15,1,FBP-PT-17.png,0.35,1.2,16,0.75,,,,,,,,,,,,,,,,,,,,,,,,,,,,,,,,,,,,,,,,,,,,,
,,,,,V3_028,18,female,2024-10-20_16h34.24.768,jersey_experiment_5_v3,2023.2.2,Win32,84.74576271,,,,,,,,,,,,,,,,174.4545,175.7485,175.7485,177.125,return,0.562,,30.72916667,0,39,39,40,1,FBP-OG-19.png,0.35,1.2,41,0.5,,,,,,,,,,,,,,,,,,,,,,,,,,,,,,,,,,,,,,,,,,,,,
,,,,,V3_028,18,female,2024-10-20_16h34.24.768,jersey_experiment_5_v3,2023.2.2,Win32,84.74576271,,,,,,,,,,,,,,,,177.1252,178.4191,178.4191,180.031,return,0.6697,,15.75520833,0,40,40,41,1,FBP-OG-19.png,0.37,1.2,42,0.5,,,,,,,,,,,,,,,,,,,,,,,,,,,,,,,,,,,,,,,,,,,,,
,,,,,V3_028,18,female,2024-10-20_16h34.24.768,jersey_experiment_5_v3,2023.2.2,Win32,84.74576271,,,,,,,,,,,,,,,,180.0313,181.5842,181.5843,183.3724,return,0.6607,,25.65104167,0,41,41,56,1,FBP-RB-19.png,0.37,1.2,57,0.75,,,,,,,,,,,,,,,,,,,,,,,,,,,,,,,,,,,,,,,,,,,,,
,,,,,V3_028,18,female,2024-10-20_16h34.24.768,jersey_experiment_5_v3,2023.2.2,Win32,84.74576271,,,,,,,,,,,,,,,,183.3725,184.9253,184.9254,186.396,return,0.6255,,74.47916667,0,42,42,4,1,FBP-YG-71.png,0.45,1.2,5,0.75,,,,,,,,,,,,,,,,,,,,,,,,,,,,,,,,,,,,,,,,,,,,,
,,,,,V3_028,18,female,2024-10-20_16h34.24.768,jersey_experiment_5_v3,2023.2.2,Win32,84.74576271,,,,,,,,,,,,,,,,186.3961,187.9489,187.949,190.5489,return,1.8207,,27.86458333,0,43,43,26,1,FBP-PT-19.png,0.37,1.2,27,0.75,,,,,,,,,,,,,,,,,,,,,,,,,,,,,,,,,,,,,,,,,,,,,
,,,,,V3_028,18,female,2024-10-20_16h34.24.768,jersey_experiment_5_v3,2023.2.2,Win32,84.74576271,,,,,,,,,,,,,,,,190.549,192.0904,192.0905,193.9962,return,0.685,,51.171875,0,44,44,2,1,FBP-YG-71.png,0.4,1.2,3,0.75,,,,,,,,,,,,,,,,,,,,,,,,,,,,,,,,,,,,,,,,,,,,,
,,,,,V3_028,18,female,2024-10-20_16h34.24.768,jersey_experiment_5_v3,2023.2.2,Win32,84.74576271,,,,,,,,,,,,,,,,193.9965,195.5491,195.5492,197.3846,return,0.5431,,36.71875,0,45,45,27,1,FBP-PT-19.png,0.4,1.2,28,0.75,,,,,,,,,,,,,,,,,,,,,,,,,,,,,,,,,,,,,,,,,,,,,
,,,,,V3_028,18,female,2024-10-20_16h34.24.768,jersey_experiment_5_v3,2023.2.2,Win32,84.74576271,,,,,,,,,,,,,,,,197.3848,198.9376,198.9377,200.7965,return,0.6019,,26.953125,0,46,46,21,1,FBP-PT-18.png,0.37,1.2,22,0.75,,,,,,,,,,,,,,,,,,,,,,,,,,,,,,,,,,,,,,,,,,,,,
,,,,,V3_028,18,female,2024-10-20_16h34.24.768,jersey_experiment_5_v3,2023.2.2,Win32,84.74576271,,,,,,,,,,,,,,,,200.7968,202.3496,202.3496,204.2084,return,0.6733,,24.609375,0,47,47,5,1,FBP-YG-81.png,0.35,1.2,6,0.75,,,,,,,,,,,,,,,,,,,,,,,,,,,,,,,,,,,,,,,,,,,,,
,,,,,V3_028,18,female,2024-10-20_16h34.24.768,jersey_experiment_5_v3,2023.2.2,Win32,84.74576271,,,,,,,,,,,,,,,,204.2086,205.7614,205.7614,208.3026,return,0.6083,,58.72395833,0,48,48,49,1,FBP-RB-17.png,0.45,1.2,50,0.75,,,,,,,,,,,,,,,,,,,,,,,,,,,,,,,,,,,,,,,,,,,,,
,,,,,V3_028,18,female,2024-10-20_16h34.24.768,jersey_experiment_5_v3,2023.2.2,Win32,84.74576271,,,,,,,,,,,,,,,,208.3027,209.5968,209.5968,210.9498,return,0.6202,,63.28125,0,49,49,32,1,FBP-OG-17.png,0.4,1.2,33,0.5,,,,,,,,,,,,,,,,,,,,,,,,,,,,,,,,,,,,,,,,,,,,,
,,,,,V3_028,18,female,2024-10-20_16h34.24.768,jersey_experiment_5_v3,2023.2.2,Win32,84.74576271,,,,,,,,,,,,,,,,210.9499,212.5029,212.5029,214.2323,return,0.747,,52.734375,0,50,50,47,1,FBP-RB-17.png,0.4,1.2,48,0.75,,,,,,,,,,,,,,,,,,,,,,,,,,,,,,,,,,,,,,,,,,,,,
,,,,,V3_028,18,female,2024-10-20_16h34.24.768,jersey_experiment_5_v3,2023.2.2,Win32,84.74576271,,,,,,,,,,,,,,,,214.2326,215.7853,215.7853,217.6088,return,0.899,,50.78125,0,51,51,46,1,FBP-RB-17.png,0.37,1.2,47,0.75,,,,,,,,,,,,,,,,,,,,,,,,,,,,,,,,,,,,,,,,,,,,,
,,,,,V3_028,18,female,2024-10-20_16h34.24.768,jersey_experiment_5_v3,2023.2.2,Win32,84.74576271,,,,,,,,,,,,,,,,217.6092,219.1619,219.1619,221.2089,return,1.4716,,53.64583333,0,52,52,18,1,FBP-PT-17.png,0.43,1.2,19,0.75,,,,,,,,,,,,,,,,,,,,,,,,,,,,,,,,,,,,,,,,,,,,,
,,,,,V3_028,18,female,2024-10-20_16h34.24.768,jersey_experiment_5_v3,2023.2.2,Win32,84.74576271,,,,,,,,,,,,,,,,221.2091,222.7503,222.7504,224.9856,return,1.1457,,82.03125,0,53,53,7,1,FBP-YG-81.png,0.4,1.2,8,0.75,,,,,,,,,,,,,,,,,,,,,,,,,,,,,,,,,,,,,,,,,,,,,
,,,,,V3_028,18,female,2024-10-20_16h34.24.768,jersey_experiment_5_v3,2023.2.2,Win32,84.74576271,,,,,,,,,,,,,,,,224.9859,226.2798,226.2799,228.2562,return,0.5679,,58.46354167,0,54,54,42,1,FBP-OG-19.png,0.4,1.2,43,0.5,,,,,,,,,,,,,,,,,,,,,,,,,,,,,,,,,,,,,,,,,,,,,
,,,,,V3_028,18,female,2024-10-20_16h34.24.768,jersey_experiment_5_v3,2023.2.2,Win32,84.74576271,,,,,,,,,,,,,,,,228.2565,229.5503,229.5504,231.1739,return,0.6081,,78.90625,0,55,55,38,1,FBP-OG-18.png,0.43,1.2,39,0.5,,,,,,,,,,,,,,,,,,,,,,,,,,,,,,,,,,,,,,,,,,,,,
,,,,,V3_028,18,female,2024-10-20_16h34.24.768,jersey_experiment_5_v3,2023.2.2,Win32,84.74576271,,,,,,,,,,,,,,,,231.1743,232.7271,232.7271,234.1389,return,0.5562,,83.203125,0,56,56,52,1,FBP-RB-18.png,0.4,1.2,53,0.75,,,,,,,,,,,,,,,,,,,,,,,,,,,,,,,,,,,,,,,,,,,,,
,,,,,V3_028,18,female,2024-10-20_16h34.24.768,jersey_experiment_5_v3,2023.2.2,Win32,84.74576271,,,,,,,,,,,,,,,,234.1391,235.6919,235.6919,237.5037,return,0.5671,,71.35416667,0,57,57,48,1,FBP-RB-17.png,0.43,1.2,49,0.75,,,,,,,,,,,,,,,,,,,,,,,,,,,,,,,,,,,,,,,,,,,,,
,,,,,V3_028,18,female,2024-10-20_16h34.24.768,jersey_experiment_5_v3,2023.2.2,Win32,84.74576271,,,,,,,,,,,,,,,,237.504,238.7979,238.7979,240.5745,return,0.9053,,34.63541667,0,58,58,36,1,FBP-OG-18.png,0.37,1.2,37,0.5,,,,,,,,,,,,,,,,,,,,,,,,,,,,,,,,,,,,,,,,,,,,,
,,,,,V3_028,18,female,2024-10-20_16h34.24.768,jersey_experiment_5_v3,2023.2.2,Win32,84.74576271,,,,,,,,,,,,,,,,240.5749,241.8684,241.8685,243.4805,return,0.6371,,63.93229167,0,59,59,34,1,FBP-OG-17.png,0.45,1.2,35,0.5,,,,,,,,,,,,,,,,,,,,,,,,,,,,,,,,,,,,,,,,,,,,,
,,,,,V3_028,18,female,2024-10-20_16h34.24.768,jersey_experiment_5_v3,2023.2.2,Win32,84.74576271,,,,,,,,,,,,,,,,243.4818,245.0335,245.0335,247.1159,return,1.2825,,49.08854167,,,,,,FBP-PT-71.png,0.35,1.2,16,0.75,0,0,0,15,1,,,,,,,,,,,,,,,,,,,,,,,,,,,,,,,,,,,,,,,,
,,,,,V3_028,18,female,2024-10-20_16h34.24.768,jersey_experiment_5_v3,2023.2.2,Win32,84.74576271,,,,,,,,,,,,,,,,247.1162,248.6688,248.6688,250.1983,return,0.5807,,89.32291667,,,,,,FBP-RB-81.png,0.45,1.2,55,0.75,0,1,1,54,1,,,,,,,,,,,,,,,,,,,,,,,,,,,,,,,,,,,,,,,,
,,,,,V3_028,18,female,2024-10-20_16h34.24.768,jersey_experiment_5_v3,2023.2.2,Win32,84.74576271,,,,,,,,,,,,,,,,250.1986,251.4924,251.4924,253.2455,return,0.5643,,78.125,,,,,,FBP-OG-71.png,0.4,1.2,33,0.5,0,2,2,32,1,,,,,,,,,,,,,,,,,,,,,,,,,,,,,,,,,,,,,,,,
,,,,,V3_028,18,female,2024-10-20_16h34.24.768,jersey_experiment_5_v3,2023.2.2,Win32,84.74576271,,,,,,,,,,,,,,,,253.2458,254.7983,254.7985,256.1043,return,0.7348,,84.50520833,,,,,,FBP-PT-71.png,0.43,1.2,19,0.75,0,3,3,18,1,,,,,,,,,,,,,,,,,,,,,,,,,,,,,,,,,,,,,,,,
,,,,,V3_028,18,female,2024-10-20_16h34.24.768,jersey_experiment_5_v3,2023.2.2,Win32,84.74576271,,,,,,,,,,,,,,,,256.1047,257.6574,257.6574,261.4458,return,3.1145,,51.5625,,,,,,FBP-PT-71.png,0.37,1.2,17,0.75,0,4,4,16,1,,,,,,,,,,,,,,,,,,,,,,,,,,,,,,,,,,,,,,,,
,,,,,V3_028,18,female,2024-10-20_16h34.24.768,jersey_experiment_5_v3,2023.2.2,Win32,84.74576271,,,,,,,,,,,,,,,,261.4461,262.7398,262.7398,264.54,return,0.5574,,7.421875,,,,,,FBP-OG-71.png,0.35,1.2,31,0.5,0,5,5,30,1,,,,,,,,,,,,,,,,,,,,,,,,,,,,,,,,,,,,,,,,
,,,,,V3_028,18,female,2024-10-20_16h34.24.768,jersey_experiment_5_v3,2023.2.2,Win32,84.74576271,,,,,,,,,,,,,,,,264.5401,265.8342,265.8342,267.4694,return,0.6122,,74.21875,,,,,,FBP-OG-71.png,0.45,1.2,35,0.5,0,6,6,34,1,,,,,,,,,,,,,,,,,,,,,,,,,,,,,,,,,,,,,,,,
,,,,,V3_028,18,female,2024-10-20_16h34.24.768,jersey_experiment_5_v3,2023.2.2,Win32,84.74576271,,,,,,,,,,,,,,,,267.4696,269.0224,269.0225,270.8695,return,0.6871,,76.953125,,,,,,FBP-RB-91.png,0.45,1.2,60,0.75,0,7,7,59,1,,,,,,,,,,,,,,,,,,,,,,,,,,,,,,,,,,,,,,,,
,,,,,V3_028,18,female,2024-10-20_16h34.24.768,jersey_experiment_5_v3,2023.2.2,Win32,84.74576271,,,,,,,,,,,,,,,,270.8696,272.4225,272.4226,273.658,return,0.5535,,74.21875,,,,,,FBP-YG-17.png,0.43,1.2,4,0.75,0,8,8,3,1,,,,,,,,,,,,,,,,,,,,,,,,,,,,,,,,,,,,,,,,
,,,,,V3_028,18,female,2024-10-20_16h34.24.768,jersey_experiment_5_v3,2023.2.2,Win32,84.74576271,,,,,,,,,,,,,,,,273.6581,275.1992,275.1993,276.7288,return,0.5669,,91.40625,,,,,,FBP-YG-18.png,0.45,1.2,10,0.75,0,9,9,9,1,,,,,,,,,,,,,,,,,,,,,,,,,,,,,,,,,,,,,,,,
,,,,,V3_028,18,female,2024-10-20_16h34.24.768,jersey_experiment_5_v3,2023.2.2,Win32,84.74576271,,,,,,,,,,,,,,,,276.729,278.2817,278.2818,280.7993,return,1.7442,,55.72916667,,,,,,FBP-YG-19.png,0.4,1.2,13,0.75,0,10,10,12,1,,,,,,,,,,,,,,,,,,,,,,,,,,,,,,,,,,,,,,,,
,,,,,V3_028,18,female,2024-10-20_16h34.24.768,jersey_experiment_5_v3,2023.2.2,Win32,84.74576271,,,,,,,,,,,,,,,,280.7995,282.0936,282.0937,286.2937,return,2.7379,,67.31770833,,,,,,FBP-OG-81.png,0.45,1.2,40,0.5,0,11,11,39,1,,,,,,,,,,,,,,,,,,,,,,,,,,,,,,,,,,,,,,,,
,,,,,V3_028,18,female,2024-10-20_16h34.24.768,jersey_experiment_5_v3,2023.2.2,Win32,84.74576271,,,,,,,,,,,,,,,,286.2939,287.8469,287.847,289.2938,return,0.5338,,23.95833333,,,,,,FBP-YG-19.png,0.35,1.2,11,0.75,0,12,12,10,1,,,,,,,,,,,,,,,,,,,,,,,,,,,,,,,,,,,,,,,,
,,,,,V3_028,18,female,2024-10-20_16h34.24.768,jersey_experiment_5_v3,2023.2.2,Win32,84.74576271,,,,,,,,,,,,,,,,289.2941,290.8471,290.8472,292.3645,return,0.6368,,24.47916667,,,,,,FBP-PT-81.png,0.37,1.2,22,0.75,0,13,13,21,1,,,,,,,,,,,,,,,,,,,,,,,,,,,,,,,,,,,,,,,,
,,,,,V3_028,18,female,2024-10-20_16h34.24.768,jersey_experiment_5_v3,2023.2.2,Win32,84.74576271,,,,,,,,,,,,,,,,292.3647,293.6587,293.6588,295.0824,return,0.6127,,28.90625,,,,,,FBP-OG-91.png,0.37,1.2,42,0.5,0,14,14,41,1,,,,,,,,,,,,,,,,,,,,,,,,,,,,,,,,,,,,,,,,
,,,,,V3_028,18,female,2024-10-20_16h34.24.768,jersey_experiment_5_v3,2023.2.2,Win32,84.74576271,,,,,,,,,,,,,,,,295.0827,296.6353,296.6353,298.3295,return,0.6749,,34.11458333,,,,,,FBP-YG-18.png,0.37,1.2,7,0.75,0,15,15,6,1,,,,,,,,,,,,,,,,,,,,,,,,,,,,,,,,,,,,,,,,
,,,,,V3_028,18,female,2024-10-20_16h34.24.768,jersey_experiment_5_v3,2023.2.2,Win32,84.74576271,,,,,,,,,,,,,,,,298.3298,299.8824,299.8825,301.8354,return,0.8951,,78.25520833,,,,,,FBP-PT-81.png,0.45,1.2,25,0.75,0,16,16,24,1,,,,,,,,,,,,,,,,,,,,,,,,,,,,,,,,,,,,,,,,
,,,,,V3_028,18,female,2024-10-20_16h34.24.768,jersey_experiment_5_v3,2023.2.2,Win32,84.74576271,,,,,,,,,,,,,,,,301.8356,303.3885,303.3885,305.6473,return,1.0806,,57.68229167,,,,,,FBP-YG-18.png,0.4,1.2,8,0.75,0,17,17,7,1,,,,,,,,,,,,,,,,,,,,,,,,,,,,,,,,,,,,,,,,
,,,,,V3_028,18,female,2024-10-20_16h34.24.768,jersey_experiment_5_v3,2023.2.2,Win32,84.74576271,,,,,,,,,,,,,,,,305.6476,306.9415,306.9415,309.2592,return,0.7426,,49.73958333,,,,,,FBP-OG-91.png,0.4,1.2,43,0.5,0,18,18,42,1,,,,,,,,,,,,,,,,,,,,,,,,,,,,,,,,,,,,,,,,
,,,,,V3_028,18,female,2024-10-20_16h34.24.768,jersey_experiment_5_v3,2023.2.2,Win32,84.74576271,,,,,,,,,,,,,,,,309.2595,310.5535,310.5535,312.33,return,0.8237,,77.60416667,,,,,,FBP-OG-71.png,0.43,1.2,34,0.5,0,19,19,33,1,,,,,,,,,,,,,,,,,,,,,,,,,,,,,,,,,,,,,,,,
,,,,,V3_028,18,female,2024-10-20_16h34.24.768,jersey_experiment_5_v3,2023.2.2,Win32,84.74576271,,,,,,,,,,,,,,,,312.3303,313.8832,313.8833,315.4712,return,0.6196,,36.97916667,,,,,,FBP-YG-19.png,0.37,1.2,12,0.75,0,20,20,11,1,,,,,,,,,,,,,,,,,,,,,,,,,,,,,,,,,,,,,,,,
,,,,,V3_028,18,female,2024-10-20_16h34.24.768,jersey_experiment_5_v3,2023.2.2,Win32,84.74576271,,,,,,,,,,,,,,,,315.4714,317.0242,317.0242,318.942,return,0.7456,,47.91666667,,,,,,FBP-PT-81.png,0.4,1.2,23,0.75,0,21,21,22,1,,,,,,,,,,,,,,,,,,,,,,,,,,,,,,,,,,,,,,,,
,,,,,V3_028,18,female,2024-10-20_16h34.24.768,jersey_experiment_5_v3,2023.2.2,Win32,84.74576271,,,,,,,,,,,,,,,,318.9422,320.4951,320.4952,322.648,return,0.6284,,54.42708333,,,,,,FBP-RB-71.png,0.4,1.2,48,0.75,0,22,22,47,1,,,,,,,,,,,,,,,,,,,,,,,,,,,,,,,,,,,,,,,,
,,,,,V3_028,18,female,2024-10-20_16h34.24.768,jersey_experiment_5_v3,2023.2.2,Win32,84.74576271,,,,,,,,,,,,,,,,322.6483,324.2012,324.2012,325.754,return,0.6865,,85.80729167,,,,,,FBP-YG-19.png,0.43,1.2,14,0.75,0,23,23,13,1,,,,,,,,,,,,,,,,,,,,,,,,,,,,,,,,,,,,,,,,
,,,,,V3_028,18,female,2024-10-20_16h34.24.768,jersey_experiment_5_v3,2023.2.2,Win32,84.74576271,,,,,,,,,,,,,,,,325.7543,327.307,327.307,329.0363,return,0.6376,,89.0625,,,,,,FBP-YG-18.png,0.43,1.2,9,0.75,0,24,24,8,1,,,,,,,,,,,,,,,,,,,,,,,,,,,,,,,,,,,,,,,,
,,,,,V3_028,18,female,2024-10-20_16h34.24.768,jersey_experiment_5_v3,2023.2.2,Win32,84.74576271,,,,,,,,,,,,,,,,329.0365,330.3306,330.3307,332.1425,return,0.7538,,27.99479167,,,,,,FBP-OG-91.png,0.35,1.2,41,0.5,0,25,25,40,1,,,,,,,,,,,,,,,,,,,,,,,,,,,,,,,,,,,,,,,,
,,,,,V3_028,18,female,2024-10-20_16h34.24.768,jersey_experiment_5_v3,2023.2.2,Win32,84.74576271,,,,,,,,,,,,,,,,332.1428,333.4368,333.4368,336.378,return,0.732,,91.14583333,,,,,,FBP-OG-91.png,0.45,1.2,45,0.5,0,26,26,44,1,,,,,,,,,,,,,,,,,,,,,,,,,,,,,,,,,,,,,,,,
,,,,,V3_028,18,female,2024-10-20_16h34.24.768,jersey_experiment_5_v3,2023.2.2,Win32,84.74576271,,,,,,,,,,,,,,,,336.3782,337.9308,337.9308,340.2957,return,0.6493,,50.26041667,,,,,,FBP-PT-91.png,0.43,1.2,29,0.75,0,27,27,28,1,,,,,,,,,,,,,,,,,,,,,,,,,,,,,,,,,,,,,,,,
,,,,,V3_028,18,female,2024-10-20_16h34.24.768,jersey_experiment_5_v3,2023.2.2,Win32,84.74576271,,,,,,,,,,,,,,,,340.2959,341.8487,341.8488,345.6959,return,2.6968,,43.75,,,,,,FBP-PT-91.png,0.4,1.2,28,0.75,0,28,28,27,1,,,,,,,,,,,,,,,,,,,,,,,,,,,,,,,,,,,,,,,,
,,,,,V3_028,18,female,2024-10-20_16h34.24.768,jersey_experiment_5_v3,2023.2.2,Win32,84.74576271,,,,,,,,,,,,,,,,345.6962,347.2489,347.2489,349.3078,return,0.6699,,64.84375,,,,,,FBP-PT-91.png,0.45,1.2,30,0.75,0,29,29,29,1,,,,,,,,,,,,,,,,,,,,,,,,,,,,,,,,,,,,,,,,
,,,,,V3_028,18,female,2024-10-20_16h34.24.768,jersey_experiment_5_v3,2023.2.2,Win32,84.74576271,,,,,,,,,,,,,,,,349.3081,350.8608,350.8608,352.8608,return,0.6472,,67.31770833,,,,,,FBP-PT-71.png,0.45,1.2,20,0.75,0,30,30,19,1,,,,,,,,,,,,,,,,,,,,,,,,,,,,,,,,,,,,,,,,
,,,,,V3_028,18,female,2024-10-20_16h34.24.768,jersey_experiment_5_v3,2023.2.2,Win32,84.74576271,,,,,,,,,,,,,,,,352.8611,354.1551,354.1552,355.9786,return,0.7759,,31.640625,,,,,,FBP-OG-81.png,0.37,1.2,37,0.5,0,31,31,36,1,,,,,,,,,,,,,,,,,,,,,,,,,,,,,,,,,,,,,,,,
,,,,,V3_028,18,female,2024-10-20_16h34.24.768,jersey_experiment_5_v3,2023.2.2,Win32,84.74576271,,,,,,,,,,,,,,,,355.9788,357.5316,357.5317,359.7905,return,0.7921,,49.08854167,,,,,,FBP-YG-17.png,0.4,1.2,3,0.75,0,32,32,2,1,,,,,,,,,,,,,,,,,,,,,,,,,,,,,,,,,,,,,,,,
,,,,,V3_028,18,female,2024-10-20_16h34.24.768,jersey_experiment_5_v3,2023.2.2,Win32,84.74576271,,,,,,,,,,,,,,,,359.7907,361.332,361.332,362.6611,return,0.6643,,17.83854167,,,,,,FBP-PT-91.png,0.35,1.2,26,0.75,0,33,33,25,1,,,,,,,,,,,,,,,,,,,,,,,,,,,,,,,,,,,,,,,,
,,,,,V3_028,18,female,2024-10-20_16h34.24.768,jersey_experiment_5_v3,2023.2.2,Win32,84.74576271,,,,,,,,,,,,,,,,362.6614,364.2027,364.2028,367.1203,return,0.706,,59.89583333,,,,,,FBP-RB-91.png,0.43,1.2,59,0.75,0,34,34,58,1,,,,,,,,,,,,,,,,,,,,,,,,,,,,,,,,,,,,,,,,
,,,,,V3_028,18,female,2024-10-20_16h34.24.768,jersey_experiment_5_v3,2023.2.2,Win32,84.74576271,,,,,,,,,,,,,,,,367.1205,368.6733,368.6734,374.6145,return,1.996,,75.65104167,,,,,,FBP-PT-81.png,0.43,1.2,24,0.75,0,35,35,23,1,,,,,,,,,,,,,,,,,,,,,,,,,,,,,,,,,,,,,,,,
,,,,,V3_028,18,female,2024-10-20_16h34.24.768,jersey_experiment_5_v3,2023.2.2,Win32,84.74576271,,,,,,,,,,,,,,,,374.6147,376.1675,376.1675,380.3089,return,2.3975,,25.26041667,,,,,,FBP-RB-91.png,0.37,1.2,57,0.75,0,36,36,56,1,,,,,,,,,,,,,,,,,,,,,,,,,,,,,,,,,,,,,,,,
,,,,,V3_028,18,female,2024-10-20_16h34.24.768,jersey_experiment_5_v3,2023.2.2,Win32,84.74576271,,,,,,,,,,,,,,,,380.309,381.6032,381.6032,383.3561,return,0.7545,,37.63020833,,,,,,FBP-OG-71.png,0.37,1.2,32,0.5,0,37,37,31,1,,,,,,,,,,,,,,,,,,,,,,,,,,,,,,,,,,,,,,,,
,,,,,V3_028,18,female,2024-10-20_16h34.24.768,jersey_experiment_5_v3,2023.2.2,Win32,84.74576271,,,,,,,,,,,,,,,,383.3563,384.9091,384.9091,387.3562,return,0.9038,,72.265625,,,,,,FBP-RB-71.png,0.45,1.2,50,0.75,0,38,38,49,1,,,,,,,,,,,,,,,,,,,,,,,,,,,,,,,,,,,,,,,,
,,,,,V3_028,18,female,2024-10-20_16h34.24.768,jersey_experiment_5_v3,2023.2.2,Win32,84.74576271,,,,,,,,,,,,,,,,387.3565,388.9092,388.9093,390.6976,return,0.6006,,49.609375,,,,,,FBP-YG-17.png,0.37,1.2,2,0.75,0,39,39,1,1,,,,,,,,,,,,,,,,,,,,,,,,,,,,,,,,,,,,,,,,
,,,,,V3_028,18,female,2024-10-20_16h34.24.768,jersey_experiment_5_v3,2023.2.2,Win32,84.74576271,,,,,,,,,,,,,,,,390.698,392.2507,392.2508,393.4976,return,0.6868,,47.91666667,,,,,,FBP-PT-81.png,0.35,1.2,21,0.75,0,40,40,20,1,,,,,,,,,,,,,,,,,,,,,,,,,,,,,,,,,,,,,,,,
,,,,,V3_028,18,female,2024-10-20_16h34.24.768,jersey_experiment_5_v3,2023.2.2,Win32,84.74576271,,,,,,,,,,,,,,,,393.498,395.0507,395.0507,396.5213,return,0.7459,,40.88541667,,,,,,FBP-YG-18.png,0.35,1.2,6,0.75,0,41,41,5,1,,,,,,,,,,,,,,,,,,,,,,,,,,,,,,,,,,,,,,,,
,,,,,V3_028,18,female,2024-10-20_16h34.24.768,jersey_experiment_5_v3,2023.2.2,Win32,84.74576271,,,,,,,,,,,,,,,,396.5216,398.0744,398.0744,399.7568,return,0.8967,,61.71875,,,,,,FBP-PT-71.png,0.4,1.2,18,0.75,0,42,42,17,1,,,,,,,,,,,,,,,,,,,,,,,,,,,,,,,,,,,,,,,,
,,,,,V3_028,18,female,2024-10-20_16h34.24.768,jersey_experiment_5_v3,2023.2.2,Win32,84.74576271,,,,,,,,,,,,,,,,399.7569,401.0509,401.051,402.6627,return,0.8073,,81.640625,,,,,,FBP-OG-81.png,0.43,1.2,39,0.5,0,43,43,38,1,,,,,,,,,,,,,,,,,,,,,,,,,,,,,,,,,,,,,,,,
,,,,,V3_028,18,female,2024-10-20_16h34.24.768,jersey_experiment_5_v3,2023.2.2,Win32,84.74576271,,,,,,,,,,,,,,,,402.6628,404.2156,404.2157,407.9923,return,2.8256,,99.609375,,,,,,FBP-YG-17.png,0.45,1.2,5,0.75,0,44,44,4,1,,,,,,,,,,,,,,,,,,,,,,,,,,,,,,,,,,,,,,,,
,,,,,V3_028,18,female,2024-10-20_16h34.24.768,jersey_experiment_5_v3,2023.2.2,Win32,84.74576271,,,,,,,,,,,,,,,,407.9925,409.5454,409.5455,411.7572,return,0.6744,,61.19791667,,,,,,FBP-RB-91.png,0.35,1.2,56,0.75,0,45,45,55,1,,,,,,,,,,,,,,,,,,,,,,,,,,,,,,,,,,,,,,,,
,,,,,V3_028,18,female,2024-10-20_16h34.24.768,jersey_experiment_5_v3,2023.2.2,Win32,84.74576271,,,,,,,,,,,,,,,,411.7572,413.3101,413.3101,416.8161,return,0.7927,,49.73958333,,,,,,FBP-PT-91.png,0.37,1.2,27,0.75,0,46,46,26,1,,,,,,,,,,,,,,,,,,,,,,,,,,,,,,,,,,,,,,,,
,,,,,V3_028,18,female,2024-10-20_16h34.24.768,jersey_experiment_5_v3,2023.2.2,Win32,84.74576271,,,,,,,,,,,,,,,,416.8163,418.3692,418.3692,419.981,return,0.5659,,50.26041667,,,,,,FBP-RB-71.png,0.37,1.2,47,0.75,0,47,47,46,1,,,,,,,,,,,,,,,,,,,,,,,,,,,,,,,,,,,,,,,,
,,,,,V3_028,18,female,2024-10-20_16h34.24.768,jersey_experiment_5_v3,2023.2.2,Win32,84.74576271,,,,,,,,,,,,,,,,419.9814,421.5339,421.5339,422.8753,return,0.7167,,49.73958333,,,,,,FBP-RB-71.png,0.35,1.2,46,0.75,0,48,48,45,1,,,,,,,,,,,,,,,,,,,,,,,,,,,,,,,,,,,,,,,,
,,,,,V3_028,18,female,2024-10-20_16h34.24.768,jersey_experiment_5_v3,2023.2.2,Win32,84.74576271,,,,,,,,,,,,,,,,422.8755,424.4283,424.4283,426.5576,return,0.7452,,98.828125,,,,,,FBP-YG-19.png,0.45,1.2,15,0.75,0,49,49,14,1,,,,,,,,,,,,,,,,,,,,,,,,,,,,,,,,,,,,,,,,
,,,,,V3_028,18,female,2024-10-20_16h34.24.768,jersey_experiment_5_v3,2023.2.2,Win32,84.74576271,,,,,,,,,,,,,,,,426.5578,428.1108,428.1108,430.5812,return,0.7127,,60.9375,,,,,,FBP-RB-81.png,0.37,1.2,52,0.75,0,50,50,51,1,,,,,,,,,,,,,,,,,,,,,,,,,,,,,,,,,,,,,,,,
,,,,,V3_028,18,female,2024-10-20_16h34.24.768,jersey_experiment_5_v3,2023.2.2,Win32,84.74576271,,,,,,,,,,,,,,,,430.5816,431.8756,431.8756,433.9815,return,0.9888,,51.04166667,,,,,,FBP-OG-81.png,0.4,1.2,38,0.5,0,51,51,37,1,,,,,,,,,,,,,,,,,,,,,,,,,,,,,,,,,,,,,,,,
,,,,,V3_028,18,female,2024-10-20_16h34.24.768,jersey_experiment_5_v3,2023.2.2,Win32,84.74576271,,,,,,,,,,,,,,,,433.9818,435.2758,435.2758,437.6876,return,0.6377,,36.58854167,,,,,,FBP-OG-81.png,0.35,1.2,36,0.5,0,52,52,35,1,,,,,,,,,,,,,,,,,,,,,,,,,,,,,,,,,,,,,,,,
,,,,,V3_028,18,female,2024-10-20_16h34.24.768,jersey_experiment_5_v3,2023.2.2,Win32,84.74576271,,,,,,,,,,,,,,,,437.6878,439.2405,439.2406,441.323,return,0.8816,,50.52083333,,,,,,FBP-RB-81.png,0.35,1.2,51,0.75,0,53,53,50,1,,,,,,,,,,,,,,,,,,,,,,,,,,,,,,,,,,,,,,,,
,,,,,V3_028,18,female,2024-10-20_16h34.24.768,jersey_experiment_5_v3,2023.2.2,Win32,84.74576271,,,,,,,,,,,,,,,,441.3233,442.6172,442.6172,444.5349,return,0.7804,,73.30729167,,,,,,FBP-OG-91.png,0.43,1.2,44,0.5,0,54,54,43,1,,,,,,,,,,,,,,,,,,,,,,,,,,,,,,,,,,,,,,,,
,,,,,V3_028,18,female,2024-10-20_16h34.24.768,jersey_experiment_5_v3,2023.2.2,Win32,84.74576271,,,,,,,,,,,,,,,,444.535,446.0762,446.0762,451.7703,return,0.6262,,25.26041667,,,,,,FBP-YG-17.png,0.35,1.2,1,0.75,0,55,55,0,1,,,,,,,,,,,,,,,,,,,,,,,,,,,,,,,,,,,,,,,,
,,,,,V3_028,18,female,2024-10-20_16h34.24.768,jersey_experiment_5_v3,2023.2.2,Win32,84.74576271,,,,,,,,,,,,,,,,451.7705,453.3118,453.3118,455.147,return,0.705,,50.65104167,,,,,,FBP-RB-81.png,0.4,1.2,53,0.75,0,56,56,52,1,,,,,,,,,,,,,,,,,,,,,,,,,,,,,,,,,,,,,,,,
,,,,,V3_028,18,female,2024-10-20_16h34.24.768,jersey_experiment_5_v3,2023.2.2,Win32,84.74576271,,,,,,,,,,,,,,,,455.1472,456.7002,456.7002,458.6648,return,0.6957,,66.40625,,,,,,FBP-RB-91.png,0.4,1.2,58,0.75,0,57,57,57,1,,,,,,,,,,,,,,,,,,,,,,,,,,,,,,,,,,,,,,,,
,,,,,V3_028,18,female,2024-10-20_16h34.24.768,jersey_experiment_5_v3,2023.2.2,Win32,84.74576271,,,,,,,,,,,,,,,,458.6649,460.2178,460.2179,462.5826,return,1.674,,88.02083333,,,,,,FBP-RB-71.png,0.43,1.2,49,0.75,0,58,58,48,1,,,,,,,,,,,,,,,,,,,,,,,,,,,,,,,,,,,,,,,,
,,,,,V3_028,18,female,2024-10-20_16h34.24.768,jersey_experiment_5_v3,2023.2.2,Win32,84.74576271,,,,,,,,,,,,,,,,462.5829,464.1356,464.1357,467.1593,return,1.7712,,87.109375,,,,,,FBP-RB-81.png,0.43,1.2,54,0.75,0,59,59,53,1,,,,,,,,,,,,,,,,,,,,,,,,,,,,,,,,,,,,,,,,
,,,,,V3_028,18,female,2024-10-20_16h34.24.768,jersey_experiment_5_v3,2023.2.2,Win32,84.74576271,,,,,,,,,,,,,,,,,,,,,,,,,,,,,,,,,,,,,,,467.1594,587.1521,,,,,,,,,,,,,,,,,,,,,,,,,,,,,,,,,,,,,,
,,,,,V3_028,18,female,2024-10-20_16h34.24.768,jersey_experiment_5_v3,2023.2.2,Win32,84.74576271,,,,,,,,,,,,,,,,,,,,,,,,,,,,,,,,,,,,,,,,,587.1522,591.7521,return,4.5932,,,,,,,,,,,,,,,,,,,,,,,,,,,,,,,,,,
,,,,,V3_028,18,female,2024-10-20_16h34.24.768,jersey_experiment_5_v3,2023.2.2,Win32,84.74576271,,,,,,,,,,,,,,,,591.7539,593.0463,593.0464,601.7524,return,2.9466,,74.08854167,,,,,,FBP-RB-18.png,0.45,1.2,55,0.5,,,,,,,,,,,,,0,0,0,54,1,,,,,,,,,,,,,,,,,,,,,,,,,,,,
,,,,,V3_028,18,female,2024-10-20_16h34.24.768,jersey_experiment_5_v3,2023.2.2,Win32,84.74576271,,,,,,,,,,,,,,,,601.7527,603.0465,603.0466,605.0821,return,0.6515,,75,,,,,,FBP-PT-19.png,0.45,1.2,30,0.5,,,,,,,,,,,,,0,1,1,29,1,,,,,,,,,,,,,,,,,,,,,,,,,,,,
,,,,,V3_028,18,female,2024-10-20_16h34.24.768,jersey_experiment_5_v3,2023.2.2,Win32,84.74576271,,,,,,,,,,,,,,,,605.0823,606.3761,606.3762,608.7998,return,0.6116,,49.609375,,,,,,FBP-YG-91.png,0.35,1.2,11,0.5,,,,,,,,,,,,,0,2,2,10,1,,,,,,,,,,,,,,,,,,,,,,,,,,,,
,,,,,V3_028,18,female,2024-10-20_16h34.24.768,jersey_experiment_5_v3,2023.2.2,Win32,84.74576271,,,,,,,,,,,,,,,,608.7999,610.094,610.094,611.9998,return,0.6599,,69.140625,,,,,,FBP-YG-91.png,0.4,1.2,13,0.5,,,,,,,,,,,,,0,3,3,12,1,,,,,,,,,,,,,,,,,,,,,,,,,,,,
,,,,,V3_028,18,female,2024-10-20_16h34.24.768,jersey_experiment_5_v3,2023.2.2,Win32,84.74576271,,,,,,,,,,,,,,,,612.0001,613.5528,613.5529,615.1646,return,0.5973,,68.22916667,,,,,,FBP-OG-18.png,0.37,1.2,37,0.75,,,,,,,,,,,,,0,4,4,36,1,,,,,,,,,,,,,,,,,,,,,,,,,,,,
,,,,,V3_028,18,female,2024-10-20_16h34.24.768,jersey_experiment_5_v3,2023.2.2,Win32,84.74576271,,,,,,,,,,,,,,,,615.1649,616.4589,616.459,618.0943,return,0.7195,,89.19270833,,,,,,FBP-YG-91.png,0.43,1.2,14,0.5,,,,,,,,,,,,,0,5,5,13,1,,,,,,,,,,,,,,,,,,,,,,,,,,,,
,,,,,V3_028,18,female,2024-10-20_16h34.24.768,jersey_experiment_5_v3,2023.2.2,Win32,84.74576271,,,,,,,,,,,,,,,,618.0944,619.3884,619.3885,621.7179,return,1.3139,,63.15104167,,,,,,FBP-YG-71.png,0.37,1.2,2,0.5,,,,,,,,,,,,,0,6,6,1,1,,,,,,,,,,,,,,,,,,,,,,,,,,,,
,,,,,V3_028,18,female,2024-10-20_16h34.24.768,jersey_experiment_5_v3,2023.2.2,Win32,84.74576271,,,,,,,,,,,,,,,,621.7183,623.012,623.0121,625.2005,return,0.6745,,75.13020833,,,,,,FBP-PT-18.png,0.4,1.2,23,0.5,,,,,,,,,,,,,0,7,7,22,1,,,,,,,,,,,,,,,,,,,,,,,,,,,,
,,,,,V3_028,18,female,2024-10-20_16h34.24.768,jersey_experiment_5_v3,2023.2.2,Win32,84.74576271,,,,,,,,,,,,,,,,625.2008,626.4945,626.4946,628.1652,return,0.6877,,74.34895833,,,,,,FBP-RB-18.png,0.4,1.2,53,0.5,,,,,,,,,,,,,0,8,8,52,1,,,,,,,,,,,,,,,,,,,,,,,,,,,,
,,,,,V3_028,18,female,2024-10-20_16h34.24.768,jersey_experiment_5_v3,2023.2.2,Win32,84.74576271,,,,,,,,,,,,,,,,628.1654,629.4595,629.4595,631.2124,return,0.6921,,93.22916667,,,,,,FBP-RB-19.png,0.45,1.2,60,0.5,,,,,,,,,,,,,0,9,9,59,1,,,,,,,,,,,,,,,,,,,,,,,,,,,,
,,,,,V3_028,18,female,2024-10-20_16h34.24.768,jersey_experiment_5_v3,2023.2.2,Win32,84.74576271,,,,,,,,,,,,,,,,631.2126,632.5067,632.5067,634.1184,return,0.6419,,74.47916667,,,,,,FBP-PT-17.png,0.43,1.2,19,0.5,,,,,,,,,,,,,0,10,10,18,1,,,,,,,,,,,,,,,,,,,,,,,,,,,,
,,,,,V3_028,18,female,2024-10-20_16h34.24.768,jersey_experiment_5_v3,2023.2.2,Win32,84.74576271,,,,,,,,,,,,,,,,634.1185,635.4125,635.4126,637.9657,return,1.8465,,99.86979167,,,,,,FBP-PT-17.png,0.45,1.2,20,0.5,,,,,,,,,,,,,0,11,11,19,1,,,,,,,,,,,,,,,,,,,,,,,,,,,,
,,,,,V3_028,18,female,2024-10-20_16h34.24.768,jersey_experiment_5_v3,2023.2.2,Win32,84.74576271,,,,,,,,,,,,,,,,637.9659,639.5188,639.5189,641.1892,return,0.7379,,24.21875,,,,,,FBP-OG-18.png,0.35,1.2,36,0.75,,,,,,,,,,,,,0,12,12,35,1,,,,,,,,,,,,,,,,,,,,,,,,,,,,
,,,,,V3_028,18,female,2024-10-20_16h34.24.768,jersey_experiment_5_v3,2023.2.2,Win32,84.74576271,,,,,,,,,,,,,,,,641.1894,642.4834,642.4835,646.0129,return,0.7541,,74.73958333,,,,,,FBP-PT-18.png,0.45,1.2,25,0.5,,,,,,,,,,,,,0,13,13,24,1,,,,,,,,,,,,,,,,,,,,,,,,,,,,
,,,,,V3_028,18,female,2024-10-20_16h34.24.768,jersey_experiment_5_v3,2023.2.2,Win32,84.74576271,,,,,,,,,,,,,,,,646.0132,647.3072,647.3072,649.9661,return,0.6352,,50.13020833,,,,,,FBP-YG-81.png,0.4,1.2,8,0.5,,,,,,,,,,,,,0,14,14,7,1,,,,,,,,,,,,,,,,,,,,,,,,,,,,
,,,,,V3_028,18,female,2024-10-20_16h34.24.768,jersey_experiment_5_v3,2023.2.2,Win32,84.74576271,,,,,,,,,,,,,,,,649.9663,651.519,651.519,653.5309,return,0.8381,,73.95833333,,,,,,FBP-OG-18.png,0.45,1.2,40,0.75,,,,,,,,,,,,,0,15,15,39,1,,,,,,,,,,,,,,,,,,,,,,,,,,,,
,,,,,V3_028,18,female,2024-10-20_16h34.24.768,jersey_experiment_5_v3,2023.2.2,Win32,84.74576271,,,,,,,,,,,,,,,,653.5312,655.084,655.084,657.0369,return,0.7916,,74.47916667,,,,,,FBP-OG-19.png,0.45,1.2,45,0.75,,,,,,,,,,,,,0,16,16,44,1,,,,,,,,,,,,,,,,,,,,,,,,,,,,
,,,,,V3_028,18,female,2024-10-20_16h34.24.768,jersey_experiment_5_v3,2023.2.2,Win32,84.74576271,,,,,,,,,,,,,,,,657.0372,658.331,658.331,660.3428,return,0.854,,24.73958333,,,,,,FBP-RB-19.png,0.37,1.2,57,0.5,,,,,,,,,,,,,0,17,17,56,1,,,,,,,,,,,,,,,,,,,,,,,,,,,,
,,,,,V3_028,18,female,2024-10-20_16h34.24.768,jersey_experiment_5_v3,2023.2.2,Win32,84.74576271,,,,,,,,,,,,,,,,660.3431,661.637,661.6371,664.4725,return,2.2531,,8.723958333,,,,,,FBP-PT-17.png,0.35,1.2,16,0.5,,,,,,,,,,,,,0,18,18,15,1,,,,,,,,,,,,,,,,,,,,,,,,,,,,
,,,,,V3_028,18,female,2024-10-20_16h34.24.768,jersey_experiment_5_v3,2023.2.2,Win32,84.74576271,,,,,,,,,,,,,,,,664.4727,665.7665,665.7666,667.4843,return,0.7437,,9.635416667,,,,,,FBP-PT-17.png,0.4,1.2,18,0.5,,,,,,,,,,,,,0,19,19,17,1,,,,,,,,,,,,,,,,,,,,,,,,,,,,
,,,,,V3_028,18,female,2024-10-20_16h34.24.768,jersey_experiment_5_v3,2023.2.2,Win32,84.74576271,,,,,,,,,,,,,,,,667.4846,668.7785,668.7785,670.7315,return,0.7296,,34.24479167,,,,,,FBP-RB-19.png,0.4,1.2,58,0.5,,,,,,,,,,,,,0,20,20,57,1,,,,,,,,,,,,,,,,,,,,,,,,,,,,
,,,,,V3_028,18,female,2024-10-20_16h34.24.768,jersey_experiment_5_v3,2023.2.2,Win32,84.74576271,,,,,,,,,,,,,,,,670.7318,672.0257,672.0257,676.1082,return,1.2333,,72.78645833,,,,,,FBP-YG-91.png,0.45,1.2,15,0.5,,,,,,,,,,,,,0,21,21,14,1,,,,,,,,,,,,,,,,,,,,,,,,,,,,
,,,,,V3_028,18,female,2024-10-20_16h34.24.768,jersey_experiment_5_v3,2023.2.2,Win32,84.74576271,,,,,,,,,,,,,,,,676.1085,677.4023,677.4024,680.9201,return,1.6489,,25.390625,,,,,,FBP-RB-18.png,0.37,1.2,52,0.5,,,,,,,,,,,,,0,22,22,51,1,,,,,,,,,,,,,,,,,,,,,,,,,,,,
,,,,,V3_028,18,female,2024-10-20_16h34.24.768,jersey_experiment_5_v3,2023.2.2,Win32,84.74576271,,,,,,,,,,,,,,,,680.9202,682.2142,682.2143,684.0143,return,0.7298,,24.47916667,,,,,,FBP-PT-18.png,0.37,1.2,22,0.5,,,,,,,,,,,,,0,23,23,21,1,,,,,,,,,,,,,,,,,,,,,,,,,,,,
,,,,,V3_028,18,female,2024-10-20_16h34.24.768,jersey_experiment_5_v3,2023.2.2,Win32,84.74576271,,,,,,,,,,,,,,,,684.0145,685.3085,685.3085,687.0968,return,0.6728,,24.609375,,,,,,FBP-PT-19.png,0.35,1.2,26,0.5,,,,,,,,,,,,,0,24,24,25,1,,,,,,,,,,,,,,,,,,,,,,,,,,,,
,,,,,V3_028,18,female,2024-10-20_16h34.24.768,jersey_experiment_5_v3,2023.2.2,Win32,84.74576271,,,,,,,,,,,,,,,,687.097,688.391,688.3911,690.5911,return,0.73,,88.54166667,,,,,,FBP-RB-17.png,0.45,1.2,50,0.5,,,,,,,,,,,,,0,25,25,49,1,,,,,,,,,,,,,,,,,,,,,,,,,,,,
,,,,,V3_028,18,female,2024-10-20_16h34.24.768,jersey_experiment_5_v3,2023.2.2,Win32,84.74576271,,,,,,,,,,,,,,,,690.5914,692.1442,692.1442,696.0853,return,0.6995,,24.73958333,,,,,,FBP-OG-19.png,0.35,1.2,41,0.75,,,,,,,,,,,,,0,26,26,40,1,,,,,,,,,,,,,,,,,,,,,,,,,,,,
,,,,,V3_028,18,female,2024-10-20_16h34.24.768,jersey_experiment_5_v3,2023.2.2,Win32,84.74576271,,,,,,,,,,,,,,,,696.0856,697.3795,697.3795,699.215,return,0.834,,19.140625,,,,,,FBP-PT-18.png,0.35,1.2,21,0.5,,,,,,,,,,,,,0,27,27,20,1,,,,,,,,,,,,,,,,,,,,,,,,,,,,
,,,,,V3_028,18,female,2024-10-20_16h34.24.768,jersey_experiment_5_v3,2023.2.2,Win32,84.74576271,,,,,,,,,,,,,,,,699.2153,700.509,700.5091,703.0622,return,0.9609,,8.984375,,,,,,FBP-YG-71.png,0.35,1.2,1,0.5,,,,,,,,,,,,,0,28,28,0,1,,,,,,,,,,,,,,,,,,,,,,,,,,,,
,,,,,V3_028,18,female,2024-10-20_16h34.24.768,jersey_experiment_5_v3,2023.2.2,Win32,84.74576271,,,,,,,,,,,,,,,,703.0625,704.3566,704.3566,707.1094,return,1.5585,,74.609375,,,,,,FBP-YG-81.png,0.45,1.2,10,0.5,,,,,,,,,,,,,0,29,29,9,1,,,,,,,,,,,,,,,,,,,,,,,,,,,,
,,,,,V3_028,18,female,2024-10-20_16h34.24.768,jersey_experiment_5_v3,2023.2.2,Win32,84.74576271,,,,,,,,,,,,,,,,707.1096,708.4035,708.4035,711.1918,return,0.72,,49.47916667,,,,,,FBP-RB-17.png,0.37,1.2,47,0.5,,,,,,,,,,,,,0,30,30,46,1,,,,,,,,,,,,,,,,,,,,,,,,,,,,
,,,,,V3_028,18,female,2024-10-20_16h34.24.768,jersey_experiment_5_v3,2023.2.2,Win32,84.74576271,,,,,,,,,,,,,,,,711.1921,712.486,712.486,714.7803,return,1.1037,,35.80729167,,,,,,FBP-RB-19.png,0.35,1.2,56,0.5,,,,,,,,,,,,,0,31,31,55,1,,,,,,,,,,,,,,,,,,,,,,,,,,,,
,,,,,V3_028,18,female,2024-10-20_16h34.24.768,jersey_experiment_5_v3,2023.2.2,Win32,84.74576271,,,,,,,,,,,,,,,,714.7806,716.0744,716.0744,718.4392,return,1.3244,,85.28645833,,,,,,FBP-YG-81.png,0.43,1.2,9,0.5,,,,,,,,,,,,,0,32,32,8,1,,,,,,,,,,,,,,,,,,,,,,,,,,,,
,,,,,V3_028,18,female,2024-10-20_16h34.24.768,jersey_experiment_5_v3,2023.2.2,Win32,84.74576271,,,,,,,,,,,,,,,,718.4395,719.7333,719.7334,721.7218,return,0.6599,,50.26041667,,,,,,FBP-YG-81.png,0.35,1.2,6,0.5,,,,,,,,,,,,,0,33,33,5,1,,,,,,,,,,,,,,,,,,,,,,,,,,,,
,,,,,V3_028,18,female,2024-10-20_16h34.24.768,jersey_experiment_5_v3,2023.2.2,Win32,84.74576271,,,,,,,,,,,,,,,,721.7219,723.0157,723.0157,725.957,return,1.9737,,83.59375,,,,,,FBP-YG-71.png,0.43,1.2,4,0.5,,,,,,,,,,,,,0,34,34,3,1,,,,,,,,,,,,,,,,,,,,,,,,,,,,
,,,,,V3_028,18,female,2024-10-20_16h34.24.768,jersey_experiment_5_v3,2023.2.2,Win32,84.74576271,,,,,,,,,,,,,,,,725.9572,727.2513,727.2513,731.2396,return,1.6065,,99.73958333,,,,,,FBP-YG-71.png,0.45,1.2,5,0.5,,,,,,,,,,,,,0,35,35,4,1,,,,,,,,,,,,,,,,,,,,,,,,,,,,
,,,,,V3_028,18,female,2024-10-20_16h34.24.768,jersey_experiment_5_v3,2023.2.2,Win32,84.74576271,,,,,,,,,,,,,,,,731.2399,732.7927,732.7927,735.7104,return,0.5982,,84.63541667,,,,,,FBP-OG-17.png,0.45,1.2,35,0.75,,,,,,,,,,,,,0,36,36,34,1,,,,,,,,,,,,,,,,,,,,,,,,,,,,
,,,,,V3_028,18,female,2024-10-20_16h34.24.768,jersey_experiment_5_v3,2023.2.2,Win32,84.74576271,,,,,,,,,,,,,,,,735.7106,737.0045,737.0046,738.7458,return,0.7207,,29.94791667,,,,,,FBP-PT-17.png,0.37,1.2,17,0.5,,,,,,,,,,,,,0,37,37,16,1,,,,,,,,,,,,,,,,,,,,,,,,,,,,
,,,,,V3_028,18,female,2024-10-20_16h34.24.768,jersey_experiment_5_v3,2023.2.2,Win32,84.74576271,,,,,,,,,,,,,,,,738.746,740.2988,740.2989,741.8048,return,0.7073,,25.390625,,,,,,FBP-OG-17.png,0.37,1.2,32,0.75,,,,,,,,,,,,,0,38,38,31,1,,,,,,,,,,,,,,,,,,,,,,,,,,,,
,,,,,V3_028,18,female,2024-10-20_16h34.24.768,jersey_experiment_5_v3,2023.2.2,Win32,84.74576271,,,,,,,,,,,,,,,,741.8051,743.3577,743.3577,745.2637,return,0.6679,,49.609375,,,,,,FBP-OG-17.png,0.4,1.2,33,0.75,,,,,,,,,,,,,0,39,39,32,1,,,,,,,,,,,,,,,,,,,,,,,,,,,,
,,,,,V3_028,18,female,2024-10-20_16h34.24.768,jersey_experiment_5_v3,2023.2.2,Win32,84.74576271,,,,,,,,,,,,,,,,745.264,746.5579,746.5579,749.958,return,1.8881,,49.609375,,,,,,FBP-RB-17.png,0.4,1.2,48,0.5,,,,,,,,,,,,,0,40,40,47,1,,,,,,,,,,,,,,,,,,,,,,,,,,,,
,,,,,V3_028,18,female,2024-10-20_16h34.24.768,jersey_experiment_5_v3,2023.2.2,Win32,84.74576271,,,,,,,,,,,,,,,,749.9582,751.511,751.511,753.7229,return,0.755,,62.890625,,,,,,FBP-OG-17.png,0.43,1.2,34,0.75,,,,,,,,,,,,,0,41,41,33,1,,,,,,,,,,,,,,,,,,,,,,,,,,,,
,,,,,V3_028,18,female,2024-10-20_16h34.24.768,jersey_experiment_5_v3,2023.2.2,Win32,84.74576271,,,,,,,,,,,,,,,,753.7231,755.2759,755.2759,757.0523,return,0.7076,,63.671875,,,,,,FBP-OG-18.png,0.4,1.2,38,0.75,,,,,,,,,,,,,0,42,42,37,1,,,,,,,,,,,,,,,,,,,,,,,,,,,,
,,,,,V3_028,18,female,2024-10-20_16h34.24.768,jersey_experiment_5_v3,2023.2.2,Win32,84.74576271,,,,,,,,,,,,,,,,757.0526,758.3464,758.3465,759.9584,return,0.7095,,62.23958333,,,,,,FBP-PT-19.png,0.4,1.2,28,0.5,,,,,,,,,,,,,0,43,43,27,1,,,,,,,,,,,,,,,,,,,,,,,,,,,,
,,,,,V3_028,18,female,2024-10-20_16h34.24.768,jersey_experiment_5_v3,2023.2.2,Win32,84.74576271,,,,,,,,,,,,,,,,759.9586,761.2526,761.2526,762.9584,return,0.8236,,48.95833333,,,,,,FBP-RB-18.png,0.35,1.2,51,0.5,,,,,,,,,,,,,0,44,44,50,1,,,,,,,,,,,,,,,,,,,,,,,,,,,,
,,,,,V3_028,18,female,2024-10-20_16h34.24.768,jersey_experiment_5_v3,2023.2.2,Win32,84.74576271,,,,,,,,,,,,,,,,762.9587,764.2526,764.2527,766.0056,return,0.8052,,81.25,,,,,,FBP-RB-17.png,0.43,1.2,49,0.5,,,,,,,,,,,,,0,45,45,48,1,,,,,,,,,,,,,,,,,,,,,,,,,,,,
,,,,,V3_028,18,female,2024-10-20_16h34.24.768,jersey_experiment_5_v3,2023.2.2,Win32,84.74576271,,,,,,,,,,,,,,,,766.0059,767.2998,767.2998,769.0293,return,0.8399,,88.671875,,,,,,FBP-RB-18.png,0.43,1.2,54,0.5,,,,,,,,,,,,,0,46,46,53,1,,,,,,,,,,,,,,,,,,,,,,,,,,,,
,,,,,V3_028,18,female,2024-10-20_16h34.24.768,jersey_experiment_5_v3,2023.2.2,Win32,84.74576271,,,,,,,,,,,,,,,,769.0296,770.5821,770.5822,773.0059,return,0.9182,,49.86979167,,,,,,FBP-OG-17.png,0.35,1.2,31,0.75,,,,,,,,,,,,,0,47,47,30,1,,,,,,,,,,,,,,,,,,,,,,,,,,,,
,,,,,V3_028,18,female,2024-10-20_16h34.24.768,jersey_experiment_5_v3,2023.2.2,Win32,84.74576271,,,,,,,,,,,,,,,,773.0061,774.559,774.559,785.9004,return,2.8569,,75.13020833,,,,,,FBP-OG-18.png,0.43,1.2,39,0.75,,,,,,,,,,,,,0,48,48,38,1,,,,,,,,,,,,,,,,,,,,,,,,,,,,
,,,,,V3_028,18,female,2024-10-20_16h34.24.768,jersey_experiment_5_v3,2023.2.2,Win32,84.74576271,,,,,,,,,,,,,,,,785.9007,787.1946,787.1947,788.7476,return,0.6926,,76.171875,,,,,,FBP-PT-19.png,0.43,1.2,29,0.5,,,,,,,,,,,,,0,49,49,28,1,,,,,,,,,,,,,,,,,,,,,,,,,,,,
,,,,,V3_028,18,female,2024-10-20_16h34.24.768,jersey_experiment_5_v3,2023.2.2,Win32,84.74576271,,,,,,,,,,,,,,,,788.7478,790.0419,790.0419,792.3596,return,0.7003,,48.95833333,,,,,,FBP-YG-91.png,0.37,1.2,12,0.5,,,,,,,,,,,,,0,50,50,11,1,,,,,,,,,,,,,,,,,,,,,,,,,,,,
,,,,,V3_028,18,female,2024-10-20_16h34.24.768,jersey_experiment_5_v3,2023.2.2,Win32,84.74576271,,,,,,,,,,,,,,,,792.3598,793.6538,793.6538,797.9951,return,0.6148,,75.13020833,,,,,,FBP-YG-71.png,0.4,1.2,3,0.5,,,,,,,,,,,,,0,51,51,2,1,,,,,,,,,,,,,,,,,,,,,,,,,,,,
,,,,,V3_028,18,female,2024-10-20_16h34.24.768,jersey_experiment_5_v3,2023.2.2,Win32,84.74576271,,,,,,,,,,,,,,,,797.9955,799.2892,799.2893,801.1129,return,0.7464,,50,,,,,,FBP-PT-19.png,0.37,1.2,27,0.5,,,,,,,,,,,,,0,52,52,26,1,,,,,,,,,,,,,,,,,,,,,,,,,,,,
,,,,,V3_028,18,female,2024-10-20_16h34.24.768,jersey_experiment_5_v3,2023.2.2,Win32,84.74576271,,,,,,,,,,,,,,,,801.1131,802.4069,802.4069,804.7365,return,0.8969,,74.08854167,,,,,,FBP-RB-19.png,0.43,1.2,59,0.5,,,,,,,,,,,,,0,53,53,58,1,,,,,,,,,,,,,,,,,,,,,,,,,,,,
,,,,,V3_028,18,female,2024-10-20_16h34.24.768,jersey_experiment_5_v3,2023.2.2,Win32,84.74576271,,,,,,,,,,,,,,,,804.7367,806.0307,806.0308,808.7131,return,1.4284,,49.34895833,,,,,,FBP-YG-81.png,0.37,1.2,7,0.5,,,,,,,,,,,,,0,54,54,6,1,,,,,,,,,,,,,,,,,,,,,,,,,,,,
,,,,,V3_028,18,female,2024-10-20_16h34.24.768,jersey_experiment_5_v3,2023.2.2,Win32,84.74576271,,,,,,,,,,,,,,,,808.7134,810.2662,810.2662,812.9603,return,0.6832,,61.58854167,,,,,,FBP-OG-19.png,0.4,1.2,43,0.75,,,,,,,,,,,,,0,55,55,42,1,,,,,,,,,,,,,,,,,,,,,,,,,,,,
,,,,,V3_028,18,female,2024-10-20_16h34.24.768,jersey_experiment_5_v3,2023.2.2,Win32,84.74576271,,,,,,,,,,,,,,,,812.9606,814.2545,814.2545,816.2192,return,0.754,,86.19791667,,,,,,FBP-PT-18.png,0.43,1.2,24,0.5,,,,,,,,,,,,,0,56,56,23,1,,,,,,,,,,,,,,,,,,,,,,,,,,,,
,,,,,V3_028,18,female,2024-10-20_16h34.24.768,jersey_experiment_5_v3,2023.2.2,Win32,84.74576271,,,,,,,,,,,,,,,,816.2194,817.7724,817.7724,821.8666,return,0.6977,,40.10416667,,,,,,FBP-OG-19.png,0.37,1.2,42,0.75,,,,,,,,,,,,,0,57,57,41,1,,,,,,,,,,,,,,,,,,,,,,,,,,,,
,,,,,V3_028,18,female,2024-10-20_16h34.24.768,jersey_experiment_5_v3,2023.2.2,Win32,84.74576271,,,,,,,,,,,,,,,,821.8669,823.1606,823.1607,825.0784,return,0.8634,,35.67708333,,,,,,FBP-RB-17.png,0.35,1.2,46,0.5,,,,,,,,,,,,,0,58,58,45,1,,,,,,,,,,,,,,,,,,,,,,,,,,,,
,,,,,V3_028,18,female,2024-10-20_16h34.24.768,jersey_experiment_5_v3,2023.2.2,Win32,84.74576271,,,,,,,,,,,,,,,,825.0787,826.6316,826.6316,828.7256,return,1.2553,,75,,,,,,FBP-OG-19.png,0.43,1.2,44,0.75,,,,,,,,,,,,,0,59,59,43,1,,,,,,,,,,,,,,,,,,,,,,,,,,,,
,,,,,V3_028,18,female,2024-10-20_16h34.24.768,jersey_experiment_5_v3,2023.2.2,Win32,84.74576271,,,,,,,,,,,,,,,,828.7282,830.2786,830.2786,832.9846,return,1.4953,,50.390625,,,,,,FBP-OG-91.png,0.4,1.2,43,0.75,,,,,,,,,,,,,,,,,,0,0,0,42,1,,,,,,,,,,,,,,,,,,,,,,,
,,,,,V3_028,18,female,2024-10-20_16h34.24.768,jersey_experiment_5_v3,2023.2.2,Win32,84.74576271,,,,,,,,,,,,,,,,832.9848,834.5378,834.5378,837.4083,return,0.644,,90.625,,,,,,FBP-OG-81.png,0.45,1.2,40,0.75,,,,,,,,,,,,,,,,,,0,1,1,39,1,,,,,,,,,,,,,,,,,,,,,,,
,,,,,V3_028,18,female,2024-10-20_16h34.24.768,jersey_experiment_5_v3,2023.2.2,Win32,84.74576271,,,,,,,,,,,,,,,,837.4085,838.9498,838.9498,842.1261,return,1.7335,,25,,,,,,FBP-OG-71.png,0.35,1.2,31,0.75,,,,,,,,,,,,,,,,,,0,2,2,30,1,,,,,,,,,,,,,,,,,,,,,,,
,,,,,V3_028,18,female,2024-10-20_16h34.24.768,jersey_experiment_5_v3,2023.2.2,Win32,84.74576271,,,,,,,,,,,,,,,,842.1262,843.4204,843.4205,845.8321,return,0.9102,,87.63020833,,,,,,FBP-YG-18.png,0.45,1.2,10,0.5,,,,,,,,,,,,,,,,,,0,3,3,9,1,,,,,,,,,,,,,,,,,,,,,,,
,,,,,V3_028,18,female,2024-10-20_16h34.24.768,jersey_experiment_5_v3,2023.2.2,Win32,84.74576271,,,,,,,,,,,,,,,,845.8323,847.1262,847.1263,850.5382,return,1.3919,,67.578125,,,,,,FBP-PT-91.png,0.4,1.2,28,0.5,,,,,,,,,,,,,,,,,,0,4,4,27,1,,,,,,,,,,,,,,,,,,,,,,,
,,,,,V3_028,18,female,2024-10-20_16h34.24.768,jersey_experiment_5_v3,2023.2.2,Win32,84.74576271,,,,,,,,,,,,,,,,850.5384,851.8323,851.8324,854.1501,return,0.7729,,75.13020833,,,,,,FBP-PT-81.png,0.45,1.2,25,0.5,,,,,,,,,,,,,,,,,,0,5,5,24,1,,,,,,,,,,,,,,,,,,,,,,,
,,,,,V3_028,18,female,2024-10-20_16h34.24.768,jersey_experiment_5_v3,2023.2.2,Win32,84.74576271,,,,,,,,,,,,,,,,854.1505,855.7034,855.7034,857.5621,return,0.7537,,39.19270833,,,,,,FBP-OG-81.png,0.37,1.2,37,0.75,,,,,,,,,,,,,,,,,,0,6,6,36,1,,,,,,,,,,,,,,,,,,,,,,,
,,,,,V3_028,18,female,2024-10-20_16h34.24.768,jersey_experiment_5_v3,2023.2.2,Win32,84.74576271,,,,,,,,,,,,,,,,857.5623,858.8561,858.8561,862.9739,return,0.7282,,74.47916667,,,,,,FBP-RB-71.png,0.43,1.2,49,0.5,,,,,,,,,,,,,,,,,,0,7,7,48,1,,,,,,,,,,,,,,,,,,,,,,,
,,,,,V3_028,18,female,2024-10-20_16h34.24.768,jersey_experiment_5_v3,2023.2.2,Win32,84.74576271,,,,,,,,,,,,,,,,862.9741,864.2681,864.2681,868.5272,return,2.3679,,49.21875,,,,,,FBP-RB-71.png,0.4,1.2,48,0.5,,,,,,,,,,,,,,,,,,0,8,8,47,1,,,,,,,,,,,,,,,,,,,,,,,
,,,,,V3_028,18,female,2024-10-20_16h34.24.768,jersey_experiment_5_v3,2023.2.2,Win32,84.74576271,,,,,,,,,,,,,,,,868.5275,869.8213,869.8213,871.0801,return,0.5703,,49.47916667,,,,,,FBP-RB-91.png,0.35,1.2,56,0.5,,,,,,,,,,,,,,,,,,0,9,9,55,1,,,,,,,,,,,,,,,,,,,,,,,
,,,,,V3_028,18,female,2024-10-20_16h34.24.768,jersey_experiment_5_v3,2023.2.2,Win32,84.74576271,,,,,,,,,,,,,,,,871.0803,872.3744,872.3744,874.2332,return,0.6871,,79.55729167,,,,,,FBP-YG-18.png,0.43,1.2,9,0.5,,,,,,,,,,,,,,,,,,0,10,10,8,1,,,,,,,,,,,,,,,,,,,,,,,
,,,,,V3_028,18,female,2024-10-20_16h34.24.768,jersey_experiment_5_v3,2023.2.2,Win32,84.74576271,,,,,,,,,,,,,,,,874.2333,875.5274,875.5274,877.5157,return,1.0113,,66.27604167,,,,,,FBP-YG-18.png,0.37,1.2,7,0.5,,,,,,,,,,,,,,,,,,0,11,11,6,1,,,,,,,,,,,,,,,,,,,,,,,
,,,,,V3_028,18,female,2024-10-20_16h34.24.768,jersey_experiment_5_v3,2023.2.2,Win32,84.74576271,,,,,,,,,,,,,,,,877.516,879.0687,879.0687,881.951,return,0.7637,,50,,,,,,FBP-OG-81.png,0.35,1.2,36,0.75,,,,,,,,,,,,,,,,,,0,12,12,35,1,,,,,,,,,,,,,,,,,,,,,,,
,,,,,V3_028,18,female,2024-10-20_16h34.24.768,jersey_experiment_5_v3,2023.2.2,Win32,84.74576271,,,,,,,,,,,,,,,,881.9513,883.2453,883.2454,885.3865,return,1.2035,,74.86979167,,,,,,FBP-RB-91.png,0.45,1.2,60,0.5,,,,,,,,,,,,,,,,,,0,13,13,59,1,,,,,,,,,,,,,,,,,,,,,,,
,,,,,V3_028,18,female,2024-10-20_16h34.24.768,jersey_experiment_5_v3,2023.2.2,Win32,84.74576271,,,,,,,,,,,,,,,,885.3868,886.6807,886.6807,891.8455,return,4.3339,,95.96354167,,,,,,FBP-RB-71.png,0.45,1.2,50,0.5,,,,,,,,,,,,,,,,,,0,14,14,49,1,,,,,,,,,,,,,,,,,,,,,,,
,,,,,V3_028,18,female,2024-10-20_16h34.24.768,jersey_experiment_5_v3,2023.2.2,Win32,84.74576271,,,,,,,,,,,,,,,,891.8456,893.1399,893.1399,895.1635,return,1.3085,,93.359375,,,,,,FBP-RB-81.png,0.45,1.2,55,0.5,,,,,,,,,,,,,,,,,,0,15,15,54,1,,,,,,,,,,,,,,,,,,,,,,,
,,,,,V3_028,18,female,2024-10-20_16h34.24.768,jersey_experiment_5_v3,2023.2.2,Win32,84.74576271,,,,,,,,,,,,,,,,895.1637,896.4577,896.4578,899.6459,return,0.8706,,25,,,,,,FBP-PT-91.png,0.35,1.2,26,0.5,,,,,,,,,,,,,,,,,,0,16,16,25,1,,,,,,,,,,,,,,,,,,,,,,,
,,,,,V3_028,18,female,2024-10-20_16h34.24.768,jersey_experiment_5_v3,2023.2.2,Win32,84.74576271,,,,,,,,,,,,,,,,899.6461,901.1991,901.1992,904.6931,return,1.7939,,61.97916667,,,,,,FBP-OG-81.png,0.43,1.2,39,0.75,,,,,,,,,,,,,,,,,,0,17,17,38,1,,,,,,,,,,,,,,,,,,,,,,,
,,,,,V3_028,18,female,2024-10-20_16h34.24.768,jersey_experiment_5_v3,2023.2.2,Win32,84.74576271,,,,,,,,,,,,,,,,904.6933,905.9874,905.9874,908.3285,return,1.4642,,45.96354167,,,,,,FBP-PT-81.png,0.35,1.2,21,0.5,,,,,,,,,,,,,,,,,,0,18,18,20,1,,,,,,,,,,,,,,,,,,,,,,,
,,,,,V3_028,18,female,2024-10-20_16h34.24.768,jersey_experiment_5_v3,2023.2.2,Win32,84.74576271,,,,,,,,,,,,,,,,908.3287,909.6228,909.6228,911.7523,return,0.6763,,63.93229167,,,,,,FBP-YG-17.png,0.4,1.2,3,0.5,,,,,,,,,,,,,,,,,,0,19,19,2,1,,,,,,,,,,,,,,,,,,,,,,,
,,,,,V3_028,18,female,2024-10-20_16h34.24.768,jersey_experiment_5_v3,2023.2.2,Win32,84.74576271,,,,,,,,,,,,,,,,911.7525,913.0463,913.0464,916.376,return,2.1807,,49.73958333,,,,,,FBP-RB-81.png,0.35,1.2,51,0.5,,,,,,,,,,,,,,,,,,0,20,20,50,1,,,,,,,,,,,,,,,,,,,,,,,
,,,,,V3_028,18,female,2024-10-20_16h34.24.768,jersey_experiment_5_v3,2023.2.2,Win32,84.74576271,,,,,,,,,,,,,,,,916.3762,917.6701,917.6702,920.2232,return,0.7061,,64.58333333,,,,,,FBP-YG-18.png,0.4,1.2,8,0.5,,,,,,,,,,,,,,,,,,0,21,21,7,1,,,,,,,,,,,,,,,,,,,,,,,
,,,,,V3_028,18,female,2024-10-20_16h34.24.768,jersey_experiment_5_v3,2023.2.2,Win32,84.74576271,,,,,,,,,,,,,,,,920.2234,921.5174,921.5174,923.9646,return,0.7321,,76.43229167,,,,,,FBP-PT-71.png,0.43,1.2,19,0.5,,,,,,,,,,,,,,,,,,0,22,22,18,1,,,,,,,,,,,,,,,,,,,,,,,
,,,,,V3_028,18,female,2024-10-20_16h34.24.768,jersey_experiment_5_v3,2023.2.2,Win32,84.74576271,,,,,,,,,,,,,,,,923.9648,925.2585,925.2586,927.1293,return,0.7105,,49.73958333,,,,,,FBP-PT-81.png,0.4,1.2,23,0.5,,,,,,,,,,,,,,,,,,0,23,23,22,1,,,,,,,,,,,,,,,,,,,,,,,
,,,,,V3_028,18,female,2024-10-20_16h34.24.768,jersey_experiment_5_v3,2023.2.2,Win32,84.74576271,,,,,,,,,,,,,,,,927.1295,928.4235,928.4236,933.2236,return,3.9359,,74.34895833,,,,,,FBP-YG-17.png,0.43,1.2,4,0.5,,,,,,,,,,,,,,,,,,0,24,24,3,1,,,,,,,,,,,,,,,,,,,,,,,
,,,,,V3_028,18,female,2024-10-20_16h34.24.768,jersey_experiment_5_v3,2023.2.2,Win32,84.74576271,,,,,,,,,,,,,,,,933.2238,934.5179,934.518,936.7179,return,1.0748,,50.390625,,,,,,FBP-YG-17.png,0.35,1.2,1,0.5,,,,,,,,,,,,,,,,,,0,25,25,0,1,,,,,,,,,,,,,,,,,,,,,,,
,,,,,V3_028,18,female,2024-10-20_16h34.24.768,jersey_experiment_5_v3,2023.2.2,Win32,84.74576271,,,,,,,,,,,,,,,,936.7181,938.2708,938.2709,940.2827,return,0.7196,,37.76041667,,,,,,FBP-OG-71.png,0.37,1.2,32,0.75,,,,,,,,,,,,,,,,,,0,26,26,31,1,,,,,,,,,,,,,,,,,,,,,,,
,,,,,V3_028,18,female,2024-10-20_16h34.24.768,jersey_experiment_5_v3,2023.2.2,Win32,84.74576271,,,,,,,,,,,,,,,,940.2829,941.577,941.577,945.483,return,2.4606,,55.859375,,,,,,FBP-PT-81.png,0.43,1.2,24,0.5,,,,,,,,,,,,,,,,,,0,27,27,23,1,,,,,,,,,,,,,,,,,,,,,,,
,,,,,V3_028,18,female,2024-10-20_16h34.24.768,jersey_experiment_5_v3,2023.2.2,Win32,84.74576271,,,,,,,,,,,,,,,,945.4833,946.7771,946.7771,949.6949,return,1.412,,73.4375,,,,,,FBP-RB-81.png,0.43,1.2,54,0.5,,,,,,,,,,,,,,,,,,0,28,28,53,1,,,,,,,,,,,,,,,,,,,,,,,
,,,,,V3_028,18,female,2024-10-20_16h34.24.768,jersey_experiment_5_v3,2023.2.2,Win32,84.74576271,,,,,,,,,,,,,,,,949.6951,950.989,950.989,953.2479,return,0.8239,,49.86979167,,,,,,FBP-PT-71.png,0.4,1.2,18,0.5,,,,,,,,,,,,,,,,,,0,29,29,17,1,,,,,,,,,,,,,,,,,,,,,,,
,,,,,V3_028,18,female,2024-10-20_16h34.24.768,jersey_experiment_5_v3,2023.2.2,Win32,84.74576271,,,,,,,,,,,,,,,,953.2483,954.5421,954.5422,957.707,return,2.0715,,50,,,,,,FBP-YG-19.png,0.4,1.2,13,0.5,,,,,,,,,,,,,,,,,,0,30,30,12,1,,,,,,,,,,,,,,,,,,,,,,,
,,,,,V3_028,18,female,2024-10-20_16h34.24.768,jersey_experiment_5_v3,2023.2.2,Win32,84.74576271,,,,,,,,,,,,,,,,957.7072,959.0011,959.0012,961.7895,return,2.1261,,50,,,,,,FBP-YG-19.png,0.37,1.2,12,0.5,,,,,,,,,,,,,,,,,,0,31,31,11,1,,,,,,,,,,,,,,,,,,,,,,,
,,,,,V3_028,18,female,2024-10-20_16h34.24.768,jersey_experiment_5_v3,2023.2.2,Win32,84.74576271,,,,,,,,,,,,,,,,961.7898,963.3423,963.3425,965.3426,return,1.2787,,69.66145833,,,,,,FBP-OG-71.png,0.43,1.2,34,0.75,,,,,,,,,,,,,,,,,,0,32,32,33,1,,,,,,,,,,,,,,,,,,,,,,,
,,,,,V3_028,18,female,2024-10-20_16h34.24.768,jersey_experiment_5_v3,2023.2.2,Win32,84.74576271,,,,,,,,,,,,,,,,965.3429,966.8955,966.8955,968.2131,return,0.5971,,86.71875,,,,,,FBP-OG-71.png,0.45,1.2,35,0.75,,,,,,,,,,,,,,,,,,0,33,33,34,1,,,,,,,,,,,,,,,,,,,,,,,
,,,,,V3_028,18,female,2024-10-20_16h34.24.768,jersey_experiment_5_v3,2023.2.2,Win32,84.74576271,,,,,,,,,,,,,,,,968.2132,969.5073,969.5074,970.9545,return,0.674,,50.13020833,,,,,,FBP-PT-71.png,0.35,1.2,16,0.5,,,,,,,,,,,,,,,,,,0,34,34,15,1,,,,,,,,,,,,,,,,,,,,,,,
,,,,,V3_028,18,female,2024-10-20_16h34.24.768,jersey_experiment_5_v3,2023.2.2,Win32,84.74576271,,,,,,,,,,,,,,,,970.9546,972.2487,972.2487,974.4252,return,1.2621,,77.99479167,,,,,,FBP-PT-71.png,0.45,1.2,20,0.5,,,,,,,,,,,,,,,,,,0,35,35,19,1,,,,,,,,,,,,,,,,,,,,,,,
,,,,,V3_028,18,female,2024-10-20_16h34.24.768,jersey_experiment_5_v3,2023.2.2,Win32,84.74576271,,,,,,,,,,,,,,,,974.4256,975.7194,975.7195,978.1194,return,0.6967,,49.609375,,,,,,FBP-RB-71.png,0.37,1.2,47,0.5,,,,,,,,,,,,,,,,,,0,36,36,46,1,,,,,,,,,,,,,,,,,,,,,,,
,,,,,V3_028,18,female,2024-10-20_16h34.24.768,jersey_experiment_5_v3,2023.2.2,Win32,84.74576271,,,,,,,,,,,,,,,,978.1197,979.4136,979.4137,981.6725,return,1.1905,,24.86979167,,,,,,FBP-YG-19.png,0.35,1.2,11,0.5,,,,,,,,,,,,,,,,,,0,37,37,10,1,,,,,,,,,,,,,,,,,,,,,,,
,,,,,V3_028,18,female,2024-10-20_16h34.24.768,jersey_experiment_5_v3,2023.2.2,Win32,84.74576271,,,,,,,,,,,,,,,,981.6726,982.9667,982.9668,985.1197,return,0.7226,,50,,,,,,FBP-PT-71.png,0.37,1.2,17,0.5,,,,,,,,,,,,,,,,,,0,38,38,16,1,,,,,,,,,,,,,,,,,,,,,,,
,,,,,V3_028,18,female,2024-10-20_16h34.24.768,jersey_experiment_5_v3,2023.2.2,Win32,84.74576271,,,,,,,,,,,,,,,,985.12,986.6729,986.6729,988.3317,return,1.0612,,35.546875,,,,,,FBP-OG-91.png,0.35,1.2,41,0.75,,,,,,,,,,,,,,,,,,0,39,39,40,1,,,,,,,,,,,,,,,,,,,,,,,
,,,,,V3_028,18,female,2024-10-20_16h34.24.768,jersey_experiment_5_v3,2023.2.2,Win32,84.74576271,,,,,,,,,,,,,,,,988.332,989.8846,989.8847,991.6141,return,0.8153,,49.47916667,,,,,,FBP-OG-91.png,0.37,1.2,42,0.75,,,,,,,,,,,,,,,,,,0,40,40,41,1,,,,,,,,,,,,,,,,,,,,,,,
,,,,,V3_028,18,female,2024-10-20_16h34.24.768,jersey_experiment_5_v3,2023.2.2,Win32,84.74576271,,,,,,,,,,,,,,,,991.6143,992.9082,992.9083,995.1202,return,1.0132,,95.44270833,,,,,,FBP-YG-17.png,0.45,1.2,5,0.5,,,,,,,,,,,,,,,,,,0,41,41,4,1,,,,,,,,,,,,,,,,,,,,,,,
,,,,,V3_028,18,female,2024-10-20_16h34.24.768,jersey_experiment_5_v3,2023.2.2,Win32,84.74576271,,,,,,,,,,,,,,,,995.1204,996.4142,996.4143,998.3202,return,0.7453,,25.13020833,,,,,,FBP-PT-91.png,0.37,1.2,27,0.5,,,,,,,,,,,,,,,,,,0,42,42,26,1,,,,,,,,,,,,,,,,,,,,,,,
,,,,,V3_028,18,female,2024-10-20_16h34.24.768,jersey_experiment_5_v3,2023.2.2,Win32,84.74576271,,,,,,,,,,,,,,,,998.3204,999.8734,999.8734,1004.5439,return,3.3175,,79.03645833,,,,,,FBP-OG-91.png,0.45,1.2,45,0.75,,,,,,,,,,,,,,,,,,0,43,43,44,1,,,,,,,,,,,,,,,,,,,,,,,
,,,,,V3_028,18,female,2024-10-20_16h34.24.768,jersey_experiment_5_v3,2023.2.2,Win32,84.74576271,,,,,,,,,,,,,,,,1004.5441,1005.8381,1005.8382,1009.0383,return,0.6823,,49.73958333,,,,,,FBP-YG-18.png,0.35,1.2,6,0.5,,,,,,,,,,,,,,,,,,0,44,44,5,1,,,,,,,,,,,,,,,,,,,,,,,
,,,,,V3_028,18,female,2024-10-20_16h34.24.768,jersey_experiment_5_v3,2023.2.2,Win32,84.74576271,,,,,,,,,,,,,,,,1009.0384,1010.3324,1010.3324,1015.6266,return,3.9563,,82.421875,,,,,,FBP-RB-91.png,0.43,1.2,59,0.5,,,,,,,,,,,,,,,,,,0,45,45,58,1,,,,,,,,,,,,,,,,,,,,,,,
,,,,,V3_028,18,female,2024-10-20_16h34.24.768,jersey_experiment_5_v3,2023.2.2,Win32,84.74576271,,,,,,,,,,,,,,,,1015.6268,1016.921,1016.9211,1018.8622,return,0.8157,,49.609375,,,,,,FBP-RB-81.png,0.4,1.2,53,0.5,,,,,,,,,,,,,,,,,,0,46,46,52,1,,,,,,,,,,,,,,,,,,,,,,,
,,,,,V3_028,18,female,2024-10-20_16h34.24.768,jersey_experiment_5_v3,2023.2.2,Win32,84.74576271,,,,,,,,,,,,,,,,1018.8624,1020.1564,1020.1564,1021.968,return,0.6744,,25,,,,,,FBP-YG-17.png,0.37,1.2,2,0.5,,,,,,,,,,,,,,,,,,0,47,47,1,1,,,,,,,,,,,,,,,,,,,,,,,
,,,,,V3_028,18,female,2024-10-20_16h34.24.768,jersey_experiment_5_v3,2023.2.2,Win32,84.74576271,,,,,,,,,,,,,,,,1021.9682,1023.2622,1023.2622,1027.7329,return,3.0795,,50.390625,,,,,,FBP-PT-91.png,0.43,1.2,29,0.5,,,,,,,,,,,,,,,,,,0,48,48,28,1,,,,,,,,,,,,,,,,,,,,,,,
,,,,,V3_028,18,female,2024-10-20_16h34.24.768,jersey_experiment_5_v3,2023.2.2,Win32,84.74576271,,,,,,,,,,,,,,,,1027.7331,1029.2743,1029.2744,1035.7922,return,5.5613,,50.390625,,,,,,FBP-OG-81.png,0.4,1.2,38,0.75,,,,,,,,,,,,,,,,,,0,49,49,37,1,,,,,,,,,,,,,,,,,,,,,,,
,,,,,V3_028,18,female,2024-10-20_16h34.24.768,jersey_experiment_5_v3,2023.2.2,Win32,84.74576271,,,,,,,,,,,,,,,,1035.7924,1037.0864,1037.0865,1038.3571,return,0.7145,,50,,,,,,FBP-RB-91.png,0.37,1.2,57,0.5,,,,,,,,,,,,,,,,,,0,50,50,56,1,,,,,,,,,,,,,,,,,,,,,,,
,,,,,V3_028,18,female,2024-10-20_16h34.24.768,jersey_experiment_5_v3,2023.2.2,Win32,84.74576271,,,,,,,,,,,,,,,,1038.3575,1039.6512,1039.6512,1041.3571,return,0.7286,,66.14583333,,,,,,FBP-RB-91.png,0.4,1.2,58,0.5,,,,,,,,,,,,,,,,,,0,51,51,57,1,,,,,,,,,,,,,,,,,,,,,,,
,,,,,V3_028,18,female,2024-10-20_16h34.24.768,jersey_experiment_5_v3,2023.2.2,Win32,84.74576271,,,,,,,,,,,,,,,,1041.3574,1042.9102,1042.9102,1044.2044,return,0.6724,,66.14583333,,,,,,FBP-OG-71.png,0.4,1.2,33,0.75,,,,,,,,,,,,,,,,,,0,52,52,32,1,,,,,,,,,,,,,,,,,,,,,,,
,,,,,V3_028,18,female,2024-10-20_16h34.24.768,jersey_experiment_5_v3,2023.2.2,Win32,84.74576271,,,,,,,,,,,,,,,,1044.2046,1045.4985,1045.4986,1048.0397,return,0.7239,,25.26041667,,,,,,FBP-PT-81.png,0.37,1.2,22,0.5,,,,,,,,,,,,,,,,,,0,53,53,21,1,,,,,,,,,,,,,,,,,,,,,,,
,,,,,V3_028,18,female,2024-10-20_16h34.24.768,jersey_experiment_5_v3,2023.2.2,Win32,84.74576271,,,,,,,,,,,,,,,,1048.0398,1049.3339,1049.334,1051.3104,return,0.7429,,74.21875,,,,,,FBP-PT-91.png,0.45,1.2,30,0.5,,,,,,,,,,,,,,,,,,0,54,54,29,1,,,,,,,,,,,,,,,,,,,,,,,
,,,,,V3_028,18,female,2024-10-20_16h34.24.768,jersey_experiment_5_v3,2023.2.2,Win32,84.74576271,,,,,,,,,,,,,,,,1051.3106,1052.6046,1052.6047,1054.181,return,0.6406,,99.86979167,,,,,,FBP-YG-19.png,0.45,1.2,15,0.5,,,,,,,,,,,,,,,,,,0,55,55,14,1,,,,,,,,,,,,,,,,,,,,,,,
,,,,,V3_028,18,female,2024-10-20_16h34.24.768,jersey_experiment_5_v3,2023.2.2,Win32,84.74576271,,,,,,,,,,,,,,,,1054.1811,1055.4755,1055.4756,1057.1812,return,0.6941,,49.34895833,,,,,,FBP-RB-81.png,0.37,1.2,52,0.5,,,,,,,,,,,,,,,,,,0,56,56,51,1,,,,,,,,,,,,,,,,,,,,,,,
,,,,,V3_028,18,female,2024-10-20_16h34.24.768,jersey_experiment_5_v3,2023.2.2,Win32,84.74576271,,,,,,,,,,,,,,,,1057.1814,1058.7341,1058.7342,1061.2755,return,1.6109,,68.359375,,,,,,FBP-OG-91.png,0.43,1.2,44,0.75,,,,,,,,,,,,,,,,,,0,57,57,43,1,,,,,,,,,,,,,,,,,,,,,,,
,,,,,V3_028,18,female,2024-10-20_16h34.24.768,jersey_experiment_5_v3,2023.2.2,Win32,84.74576271,,,,,,,,,,,,,,,,1061.2756,1062.5695,1062.5696,1065.958,return,2.0889,,89.58333333,,,,,,FBP-YG-19.png,0.43,1.2,14,0.5,,,,,,,,,,,,,,,,,,0,58,58,13,1,,,,,,,,,,,,,,,,,,,,,,,
,,,,,V3_028,18,female,2024-10-20_16h34.24.768,jersey_experiment_5_v3,2023.2.2,Win32,84.74576271,,,,,,,,,,,,,,,,1065.9582,1067.2523,1067.2524,1069.4993,return,0.9556,,24.34895833,,,,,,FBP-RB-71.png,0.35,1.2,46,0.5,,,,,,,,,,,,,,,,,,0,59,59,45,1,,,,,,,,,,,,,,,,,,,,,,,
,,,,,V3_028,18,female,2024-10-20_16h34.24.768,jersey_experiment_5_v3,2023.2.2,Win32,84.74576271,,,,,,,,,,,,,,,,,,,,,,,,,,,,,,,,,,,,,,,,,,,,,,,,,,,,,,,,1069.4996,1076.1823,return,6.6775,,,,,,,,,,,,,,,,,,,
,,,,,V3_028,18,female,2024-10-20_16h34.24.768,jersey_experiment_5_v3,2023.2.2,Win32,84.74576271,,,,,,,,,,,,,,,,,,,,,,,,,,,,,,,,,,,,,,,,,,,,,,,,,,,,,,,,,,,,,1076.1824,1082.7469,1,5.1342,return,1.4118,,,,,,,,,,,,
,,,,,V3_028,18,female,2024-10-20_16h34.24.768,jersey_experiment_5_v3,2023.2.2,Win32,84.74576271,,,,,,,,,,,,,,,,,,,,,,,,,,,,,,,,,,,,,,,,,,,,,,,,,,,,,,,,,,,,,,,,,,,,1082.7471,1100.2658,jersey color or skin color?,right,10.8363,,,,,,
,,,,,V3_028,18,female,2024-10-20_16h34.24.768,jersey_experiment_5_v3,2023.2.2,Win32,84.74576271,,,,,,,,,,,,,,,,,,,,,,,,,,,,,,,,,,,,,,,,,,,,,,,,,,,,,,,,,,,,,,,,,,,,,,,,,,1100.2659,1102.5596,return,2.2826,