requirements.started,requirements.stopped,key_resp_3.keys,key_resp_3.rt,key_resp_3.duration,Subject ID,Age,Gender,date,expName,psychopyVersion,OS,frameRate,instructions1.started,instructions1.stopped,key_resp.keys,key_resp.rt,key_resp.duration,example.started,example.stopped,enter_2.keys,enter_2.rt,enter_2.duration,instructions2.started,instructions2.stopped,enter_3.keys,enter_3.rt,enter_3.duration,image.started,image.stopped,slider_2.started,slider_2.stopped,next.keys,next.rt,next.duration,slider.response,trial_block_1.thisRepN,trial_block_1.thisTrialN,trial_block_1.thisN,trial_block_1.thisIndex,trial_block_1.ran,Path,Width,Height,Index,Duration,trial_block_2.thisRepN,trial_block_2.thisTrialN,trial_block_2.thisN,trial_block_2.thisIndex,trial_block_2.ran,rest_break.started,rest_break.stopped,end_break.started,end_break.stopped,key_resp_5.keys,key_resp_5.rt,key_resp_5.duration,trial_block_3.thisRepN,trial_block_3.thisTrialN,trial_block_3.thisN,trial_block_3.thisIndex,trial_block_3.ran,trial_block_4.thisRepN,trial_block_4.thisTrialN,trial_block_4.thisN,trial_block_4.thisIndex,trial_block_4.ran,questions_intro.started,questions_intro.stopped,enter_12.keys,enter_12.rt,enter_12.duration,question2.started,question2.stopped,question_doingbest.response,question_doingbest.rt,enter_15.keys,enter_15.rt,enter_15.duration,pattern.started,pattern.stopped,pattern_2.text,enter_17.keys,enter_17.rt,enter_17.duration,thankyou.started,thankyou.stopped,enter_14.keys,enter_14.rt,enter_14.duration
0,19.7247,return,19.7184,,V3_020,18,female,2024-10-17_16h16.44.073,jersey_experiment_5_v3,2023.2.2,Win32,84.74576271,,,,,,,,,,,,,,,,,,,,,,,,,,,,,,,,,,,,,,,,,,,,,,,,,,,,,,,,,,,,,,,,,,,,,,,,,,,,,,
,,,,,V3_020,18,female,2024-10-17_16h16.44.073,jersey_experiment_5_v3,2023.2.2,Win32,84.74576271,19.7247,28.6545,return,8.9103,,,,,,,,,,,,,,,,,,,,,,,,,,,,,,,,,,,,,,,,,,,,,,,,,,,,,,,,,,,,,,,,,,,,,,,,,,
,,,,,V3_020,18,female,2024-10-17_16h16.44.073,jersey_experiment_5_v3,2023.2.2,Win32,84.74576271,,,,,,28.6546,33.7252,return,5.0324,,,,,,,,,,,,,,,,,,,,,,,,,,,,,,,,,,,,,,,,,,,,,,,,,,,,,,,,,,,,,,,,,,,,,
,,,,,V3_020,18,female,2024-10-17_16h16.44.073,jersey_experiment_5_v3,2023.2.2,Win32,84.74576271,,,,,,,,,,,33.7253,56.5731,return,22.8381,,,,,,,,,,,,,,,,,,,,,,,,,,,,,,,,,,,,,,,,,,,,,,,,,,,,,,,,,,,,,,,,
,,,,,V3_020,18,female,2024-10-17_16h16.44.073,jersey_experiment_5_v3,2023.2.2,Win32,84.74576271,,,,,,,,,,,,,,,,56.5754,57.8672,57.8672,67.844,return,2.3997,,29.03645833,0,0,0,35,1,FBP-OG-18.png,0.35,1.2,36,0.5,,,,,,,,,,,,,,,,,,,,,,,,,,,,,,,,,,,,,,,,,,,,,
,,,,,V3_020,18,female,2024-10-17_16h16.44.073,jersey_experiment_5_v3,2023.2.2,Win32,84.74576271,,,,,,,,,,,,,,,,67.8441,69.397,69.3971,74.0443,return,1.4382,,49.609375,0,1,1,53,1,FBP-RB-18.png,0.43,1.2,54,0.75,,,,,,,,,,,,,,,,,,,,,,,,,,,,,,,,,,,,,,,,,,,,,
,,,,,V3_020,18,female,2024-10-17_16h16.44.073,jersey_experiment_5_v3,2023.2.2,Win32,84.74576271,,,,,,,,,,,,,,,,74.0445,75.5973,75.5973,80.8797,return,3.0386,,49.86979167,0,2,2,56,1,FBP-RB-19.png,0.37,1.2,57,0.75,,,,,,,,,,,,,,,,,,,,,,,,,,,,,,,,,,,,,,,,,,,,,
,,,,,V3_020,18,female,2024-10-17_16h16.44.073,jersey_experiment_5_v3,2023.2.2,Win32,84.74576271,,,,,,,,,,,,,,,,80.88,82.4328,82.4329,88.2681,return,1.5211,,60.02604167,0,3,3,4,1,FBP-YG-71.png,0.45,1.2,5,0.75,,,,,,,,,,,,,,,,,,,,,,,,,,,,,,,,,,,,,,,,,,,,,
,,,,,V3_020,18,female,2024-10-17_16h16.44.073,jersey_experiment_5_v3,2023.2.2,Win32,84.74576271,,,,,,,,,,,,,,,,88.2684,89.8212,89.8212,94.045,return,2.1118,,63.41145833,0,4,4,49,1,FBP-RB-17.png,0.45,1.2,50,0.75,,,,,,,,,,,,,,,,,,,,,,,,,,,,,,,,,,,,,,,,,,,,,
,,,,,V3_020,18,female,2024-10-17_16h16.44.073,jersey_experiment_5_v3,2023.2.2,Win32,84.74576271,,,,,,,,,,,,,,,,94.0451,95.5978,95.5979,99.1392,return,0.7769,,64.0625,0,5,5,28,1,FBP-PT-19.png,0.43,1.2,29,0.75,,,,,,,,,,,,,,,,,,,,,,,,,,,,,,,,,,,,,,,,,,,,,
,,,,,V3_020,18,female,2024-10-17_16h16.44.073,jersey_experiment_5_v3,2023.2.2,Win32,84.74576271,,,,,,,,,,,,,,,,99.1394,100.6922,100.6922,104.0924,return,1.2651,,35.02604167,0,6,6,12,1,FBP-YG-91.png,0.4,1.2,13,0.75,,,,,,,,,,,,,,,,,,,,,,,,,,,,,,,,,,,,,,,,,,,,,
,,,,,V3_020,18,female,2024-10-17_16h16.44.073,jersey_experiment_5_v3,2023.2.2,Win32,84.74576271,,,,,,,,,,,,,,,,104.0925,105.6453,105.6453,108.5162,return,1.0966,,25,0,7,7,26,1,FBP-PT-19.png,0.37,1.2,27,0.75,,,,,,,,,,,,,,,,,,,,,,,,,,,,,,,,,,,,,,,,,,,,,
,,,,,V3_020,18,female,2024-10-17_16h16.44.073,jersey_experiment_5_v3,2023.2.2,Win32,84.74576271,,,,,,,,,,,,,,,,108.5165,110.0691,110.0691,115.434,return,0.9934,,65.49479167,0,8,8,29,1,FBP-PT-19.png,0.45,1.2,30,0.75,,,,,,,,,,,,,,,,,,,,,,,,,,,,,,,,,,,,,,,,,,,,,
,,,,,V3_020,18,female,2024-10-17_16h16.44.073,jersey_experiment_5_v3,2023.2.2,Win32,84.74576271,,,,,,,,,,,,,,,,115.4342,116.9869,116.987,120.0812,return,0.8014,,32.8125,0,9,9,55,1,FBP-RB-19.png,0.35,1.2,56,0.75,,,,,,,,,,,,,,,,,,,,,,,,,,,,,,,,,,,,,,,,,,,,,
,,,,,V3_020,18,female,2024-10-17_16h16.44.073,jersey_experiment_5_v3,2023.2.2,Win32,84.74576271,,,,,,,,,,,,,,,,120.0815,121.6342,121.6342,124.7168,return,0.8534,,34.375,0,10,10,50,1,FBP-RB-18.png,0.35,1.2,51,0.75,,,,,,,,,,,,,,,,,,,,,,,,,,,,,,,,,,,,,,,,,,,,,
,,,,,V3_020,18,female,2024-10-17_16h16.44.073,jersey_experiment_5_v3,2023.2.2,Win32,84.74576271,,,,,,,,,,,,,,,,124.717,126.2697,126.2697,130.3522,return,1.7162,,77.86458333,0,11,11,23,1,FBP-PT-18.png,0.43,1.2,24,0.75,,,,,,,,,,,,,,,,,,,,,,,,,,,,,,,,,,,,,,,,,,,,,
,,,,,V3_020,18,female,2024-10-17_16h16.44.073,jersey_experiment_5_v3,2023.2.2,Win32,84.74576271,,,,,,,,,,,,,,,,130.3525,131.6463,131.6464,134.1641,return,0.8972,,47.39583333,0,12,12,41,1,FBP-OG-19.png,0.37,1.2,42,0.5,,,,,,,,,,,,,,,,,,,,,,,,,,,,,,,,,,,,,,,,,,,,,
,,,,,V3_020,18,female,2024-10-17_16h16.44.073,jersey_experiment_5_v3,2023.2.2,Win32,84.74576271,,,,,,,,,,,,,,,,134.1644,135.7172,135.7173,138.3407,return,0.7057,,50,0,13,13,6,1,FBP-YG-81.png,0.37,1.2,7,0.75,,,,,,,,,,,,,,,,,,,,,,,,,,,,,,,,,,,,,,,,,,,,,
,,,,,V3_020,18,female,2024-10-17_16h16.44.073,jersey_experiment_5_v3,2023.2.2,Win32,84.74576271,,,,,,,,,,,,,,,,138.3408,139.8936,139.8936,142.1643,return,0.7767,,70.703125,0,14,14,48,1,FBP-RB-17.png,0.43,1.2,49,0.75,,,,,,,,,,,,,,,,,,,,,,,,,,,,,,,,,,,,,,,,,,,,,
,,,,,V3_020,18,female,2024-10-17_16h16.44.073,jersey_experiment_5_v3,2023.2.2,Win32,84.74576271,,,,,,,,,,,,,,,,142.1644,143.7174,143.7174,145.9644,return,0.9005,,86.328125,0,15,15,54,1,FBP-RB-18.png,0.45,1.2,55,0.75,,,,,,,,,,,,,,,,,,,,,,,,,,,,,,,,,,,,,,,,,,,,,
,,,,,V3_020,18,female,2024-10-17_16h16.44.073,jersey_experiment_5_v3,2023.2.2,Win32,84.74576271,,,,,,,,,,,,,,,,145.9647,147.5176,147.5177,149.9883,return,0.9648,,63.93229167,0,16,16,7,1,FBP-YG-81.png,0.4,1.2,8,0.75,,,,,,,,,,,,,,,,,,,,,,,,,,,,,,,,,,,,,,,,,,,,,
,,,,,V3_020,18,female,2024-10-17_16h16.44.073,jersey_experiment_5_v3,2023.2.2,Win32,84.74576271,,,,,,,,,,,,,,,,149.9885,151.5412,151.5412,153.4825,return,0.8435,,67.83854167,0,17,17,3,1,FBP-YG-71.png,0.43,1.2,4,0.75,,,,,,,,,,,,,,,,,,,,,,,,,,,,,,,,,,,,,,,,,,,,,
,,,,,V3_020,18,female,2024-10-17_16h16.44.073,jersey_experiment_5_v3,2023.2.2,Win32,84.74576271,,,,,,,,,,,,,,,,153.4828,155.0353,155.0354,157.4591,return,0.9333,,29.81770833,0,18,18,15,1,FBP-PT-17.png,0.35,1.2,16,0.75,,,,,,,,,,,,,,,,,,,,,,,,,,,,,,,,,,,,,,,,,,,,,
,,,,,V3_020,18,female,2024-10-17_16h16.44.073,jersey_experiment_5_v3,2023.2.2,Win32,84.74576271,,,,,,,,,,,,,,,,157.4592,159.0121,159.0122,161.5062,return,1.2624,,73.69791667,0,19,19,18,1,FBP-PT-17.png,0.43,1.2,19,0.75,,,,,,,,,,,,,,,,,,,,,,,,,,,,,,,,,,,,,,,,,,,,,
,,,,,V3_020,18,female,2024-10-17_16h16.44.073,jersey_experiment_5_v3,2023.2.2,Win32,84.74576271,,,,,,,,,,,,,,,,161.5064,162.8005,162.8006,165.7301,return,1.1303,,86.97916667,0,20,20,39,1,FBP-OG-18.png,0.45,1.2,40,0.5,,,,,,,,,,,,,,,,,,,,,,,,,,,,,,,,,,,,,,,,,,,,,
,,,,,V3_020,18,female,2024-10-17_16h16.44.073,jersey_experiment_5_v3,2023.2.2,Win32,84.74576271,,,,,,,,,,,,,,,,165.7304,167.2829,167.283,171.1185,return,2.9458,,79.42708333,0,21,21,24,1,FBP-PT-18.png,0.45,1.2,25,0.75,,,,,,,,,,,,,,,,,,,,,,,,,,,,,,,,,,,,,,,,,,,,,
,,,,,V3_020,18,female,2024-10-17_16h16.44.073,jersey_experiment_5_v3,2023.2.2,Win32,84.74576271,,,,,,,,,,,,,,,,171.1187,172.4126,172.4126,174.9068,return,0.6903,,38.671875,0,22,22,31,1,FBP-OG-17.png,0.37,1.2,32,0.5,,,,,,,,,,,,,,,,,,,,,,,,,,,,,,,,,,,,,,,,,,,,,
,,,,,V3_020,18,female,2024-10-17_16h16.44.073,jersey_experiment_5_v3,2023.2.2,Win32,84.74576271,,,,,,,,,,,,,,,,174.907,176.2009,176.201,179.3071,return,1.3255,,84.50520833,0,23,23,33,1,FBP-OG-17.png,0.43,1.2,34,0.5,,,,,,,,,,,,,,,,,,,,,,,,,,,,,,,,,,,,,,,,,,,,,
,,,,,V3_020,18,female,2024-10-17_16h16.44.073,jersey_experiment_5_v3,2023.2.2,Win32,84.74576271,,,,,,,,,,,,,,,,179.3074,180.6011,180.6011,182.6718,return,0.6385,,80.98958333,0,24,24,37,1,FBP-OG-18.png,0.4,1.2,38,0.5,,,,,,,,,,,,,,,,,,,,,,,,,,,,,,,,,,,,,,,,,,,,,
,,,,,V3_020,18,female,2024-10-17_16h16.44.073,jersey_experiment_5_v3,2023.2.2,Win32,84.74576271,,,,,,,,,,,,,,,,182.6721,184.2248,184.2248,186.8485,return,0.8223,,33.46354167,0,25,25,20,1,FBP-PT-18.png,0.35,1.2,21,0.75,,,,,,,,,,,,,,,,,,,,,,,,,,,,,,,,,,,,,,,,,,,,,
,,,,,V3_020,18,female,2024-10-17_16h16.44.073,jersey_experiment_5_v3,2023.2.2,Win32,84.74576271,,,,,,,,,,,,,,,,186.8486,188.1426,188.1427,191.7308,return,1.4589,,29.42708333,0,26,26,30,1,FBP-OG-17.png,0.35,1.2,31,0.5,,,,,,,,,,,,,,,,,,,,,,,,,,,,,,,,,,,,,,,,,,,,,
,,,,,V3_020,18,female,2024-10-17_16h16.44.073,jersey_experiment_5_v3,2023.2.2,Win32,84.74576271,,,,,,,,,,,,,,,,191.731,193.2839,193.2839,195.4723,return,0.7323,,44.79166667,0,27,27,1,1,FBP-YG-71.png,0.37,1.2,2,0.75,,,,,,,,,,,,,,,,,,,,,,,,,,,,,,,,,,,,,,,,,,,,,
,,,,,V3_020,18,female,2024-10-17_16h16.44.073,jersey_experiment_5_v3,2023.2.2,Win32,84.74576271,,,,,,,,,,,,,,,,195.4724,197.0252,197.0253,199.8018,return,0.7617,,53.125,0,28,28,21,1,FBP-PT-18.png,0.37,1.2,22,0.75,,,,,,,,,,,,,,,,,,,,,,,,,,,,,,,,,,,,,,,,,,,,,
,,,,,V3_020,18,female,2024-10-17_16h16.44.073,jersey_experiment_5_v3,2023.2.2,Win32,84.74576271,,,,,,,,,,,,,,,,199.8019,201.3549,201.3549,203.3078,return,0.7939,,69.140625,0,29,29,22,1,FBP-PT-18.png,0.4,1.2,23,0.75,,,,,,,,,,,,,,,,,,,,,,,,,,,,,,,,,,,,,,,,,,,,,
,,,,,V3_020,18,female,2024-10-17_16h16.44.073,jersey_experiment_5_v3,2023.2.2,Win32,84.74576271,,,,,,,,,,,,,,,,203.3082,204.8608,204.8608,207.6961,return,0.6277,,50.13020833,0,30,30,16,1,FBP-PT-17.png,0.37,1.2,17,0.75,,,,,,,,,,,,,,,,,,,,,,,,,,,,,,,,,,,,,,,,,,,,,
,,,,,V3_020,18,female,2024-10-17_16h16.44.073,jersey_experiment_5_v3,2023.2.2,Win32,84.74576271,,,,,,,,,,,,,,,,207.6965,209.2493,209.2493,211.967,return,0.6949,,74.609375,0,31,31,58,1,FBP-RB-19.png,0.43,1.2,59,0.75,,,,,,,,,,,,,,,,,,,,,,,,,,,,,,,,,,,,,,,,,,,,,
,,,,,V3_020,18,female,2024-10-17_16h16.44.073,jersey_experiment_5_v3,2023.2.2,Win32,84.74576271,,,,,,,,,,,,,,,,211.9674,213.2611,213.2611,215.0848,return,0.6062,,90.49479167,0,32,32,44,1,FBP-OG-19.png,0.45,1.2,45,0.5,,,,,,,,,,,,,,,,,,,,,,,,,,,,,,,,,,,,,,,,,,,,,
,,,,,V3_020,18,female,2024-10-17_16h16.44.073,jersey_experiment_5_v3,2023.2.2,Win32,84.74576271,,,,,,,,,,,,,,,,215.085,216.6378,216.6378,218.3672,return,0.647,,88.41145833,0,33,33,14,1,FBP-YG-91.png,0.45,1.2,15,0.75,,,,,,,,,,,,,,,,,,,,,,,,,,,,,,,,,,,,,,,,,,,,,
,,,,,V3_020,18,female,2024-10-17_16h16.44.073,jersey_experiment_5_v3,2023.2.2,Win32,84.74576271,,,,,,,,,,,,,,,,218.3674,219.6613,219.6614,221.085,return,0.7469,,88.54166667,0,34,34,34,1,FBP-OG-17.png,0.45,1.2,35,0.5,,,,,,,,,,,,,,,,,,,,,,,,,,,,,,,,,,,,,,,,,,,,,
,,,,,V3_020,18,female,2024-10-17_16h16.44.073,jersey_experiment_5_v3,2023.2.2,Win32,84.74576271,,,,,,,,,,,,,,,,221.0852,222.3791,222.3791,225.9204,return,2.5042,,85.02604167,0,35,35,38,1,FBP-OG-18.png,0.43,1.2,39,0.5,,,,,,,,,,,,,,,,,,,,,,,,,,,,,,,,,,,,,,,,,,,,,
,,,,,V3_020,18,female,2024-10-17_16h16.44.073,jersey_experiment_5_v3,2023.2.2,Win32,84.74576271,,,,,,,,,,,,,,,,225.9207,227.4735,227.4736,229.6147,return,0.8277,,33.59375,0,36,36,10,1,FBP-YG-91.png,0.35,1.2,11,0.75,,,,,,,,,,,,,,,,,,,,,,,,,,,,,,,,,,,,,,,,,,,,,
,,,,,V3_020,18,female,2024-10-17_16h16.44.073,jersey_experiment_5_v3,2023.2.2,Win32,84.74576271,,,,,,,,,,,,,,,,229.615,231.1676,231.1678,233.1207,return,0.6374,,68.48958333,0,37,37,8,1,FBP-YG-81.png,0.43,1.2,9,0.75,,,,,,,,,,,,,,,,,,,,,,,,,,,,,,,,,,,,,,,,,,,,,
,,,,,V3_020,18,female,2024-10-17_16h16.44.073,jersey_experiment_5_v3,2023.2.2,Win32,84.74576271,,,,,,,,,,,,,,,,233.1209,234.6737,234.6737,236.6385,return,0.8974,,86.71875,0,38,38,59,1,FBP-RB-19.png,0.45,1.2,60,0.75,,,,,,,,,,,,,,,,,,,,,,,,,,,,,,,,,,,,,,,,,,,,,
,,,,,V3_020,18,female,2024-10-17_16h16.44.073,jersey_experiment_5_v3,2023.2.2,Win32,84.74576271,,,,,,,,,,,,,,,,236.6388,238.1914,238.1915,240.4033,return,1.0146,,49.08854167,0,39,39,27,1,FBP-PT-19.png,0.4,1.2,28,0.75,,,,,,,,,,,,,,,,,,,,,,,,,,,,,,,,,,,,,,,,,,,,,
,,,,,V3_020,18,female,2024-10-17_16h16.44.073,jersey_experiment_5_v3,2023.2.2,Win32,84.74576271,,,,,,,,,,,,,,,,240.4036,241.9563,241.9563,244.4269,return,0.9931,,37.63020833,0,40,40,45,1,FBP-RB-17.png,0.35,1.2,46,0.75,,,,,,,,,,,,,,,,,,,,,,,,,,,,,,,,,,,,,,,,,,,,,
,,,,,V3_020,18,female,2024-10-17_16h16.44.073,jersey_experiment_5_v3,2023.2.2,Win32,84.74576271,,,,,,,,,,,,,,,,244.4272,245.98,245.9801,248.0507,return,1.3882,,36.19791667,0,41,41,0,1,FBP-YG-71.png,0.35,1.2,1,0.75,,,,,,,,,,,,,,,,,,,,,,,,,,,,,,,,,,,,,,,,,,,,,
,,,,,V3_020,18,female,2024-10-17_16h16.44.073,jersey_experiment_5_v3,2023.2.2,Win32,84.74576271,,,,,,,,,,,,,,,,248.0508,249.6036,249.6037,251.392,return,0.6509,,39.84375,0,42,42,46,1,FBP-RB-17.png,0.37,1.2,47,0.75,,,,,,,,,,,,,,,,,,,,,,,,,,,,,,,,,,,,,,,,,,,,,
,,,,,V3_020,18,female,2024-10-17_16h16.44.073,jersey_experiment_5_v3,2023.2.2,Win32,84.74576271,,,,,,,,,,,,,,,,251.3922,252.686,252.6861,254.9804,return,0.9259,,75.390625,0,43,43,43,1,FBP-OG-19.png,0.43,1.2,44,0.5,,,,,,,,,,,,,,,,,,,,,,,,,,,,,,,,,,,,,,,,,,,,,
,,,,,V3_020,18,female,2024-10-17_16h16.44.073,jersey_experiment_5_v3,2023.2.2,Win32,84.74576271,,,,,,,,,,,,,,,,254.9808,256.2745,256.2745,257.6158,return,0.6013,,75.78125,0,44,44,42,1,FBP-OG-19.png,0.4,1.2,43,0.5,,,,,,,,,,,,,,,,,,,,,,,,,,,,,,,,,,,,,,,,,,,,,
,,,,,V3_020,18,female,2024-10-17_16h16.44.073,jersey_experiment_5_v3,2023.2.2,Win32,84.74576271,,,,,,,,,,,,,,,,257.6161,259.1689,259.169,261.1688,return,0.7078,,36.97916667,0,45,45,25,1,FBP-PT-19.png,0.35,1.2,26,0.75,,,,,,,,,,,,,,,,,,,,,,,,,,,,,,,,,,,,,,,,,,,,,
,,,,,V3_020,18,female,2024-10-17_16h16.44.073,jersey_experiment_5_v3,2023.2.2,Win32,84.74576271,,,,,,,,,,,,,,,,261.1691,262.463,262.463,264.6396,return,0.9803,,28.77604167,0,46,46,36,1,FBP-OG-18.png,0.37,1.2,37,0.5,,,,,,,,,,,,,,,,,,,,,,,,,,,,,,,,,,,,,,,,,,,,,
,,,,,V3_020,18,female,2024-10-17_16h16.44.073,jersey_experiment_5_v3,2023.2.2,Win32,84.74576271,,,,,,,,,,,,,,,,264.6398,266.1925,266.1926,267.8043,return,0.2416,,91.92708333,0,47,47,19,1,FBP-PT-17.png,0.45,1.2,20,0.75,,,,,,,,,,,,,,,,,,,,,,,,,,,,,,,,,,,,,,,,,,,,,
,,,,,V3_020,18,female,2024-10-17_16h16.44.073,jersey_experiment_5_v3,2023.2.2,Win32,84.74576271,,,,,,,,,,,,,,,,267.8046,269.3573,269.3574,270.3809,return,0.3001,,79.6875,0,48,48,13,1,FBP-YG-91.png,0.43,1.2,14,0.75,,,,,,,,,,,,,,,,,,,,,,,,,,,,,,,,,,,,,,,,,,,,,
,,,,,V3_020,18,female,2024-10-17_16h16.44.073,jersey_experiment_5_v3,2023.2.2,Win32,84.74576271,,,,,,,,,,,,,,,,270.381,271.9339,271.934,272.734,return,0.26,,79.6875,0,49,49,17,1,FBP-PT-17.png,0.4,1.2,18,0.75,,,,,,,,,,,,,,,,,,,,,,,,,,,,,,,,,,,,,,,,,,,,,
,,,,,V3_020,18,female,2024-10-17_16h16.44.073,jersey_experiment_5_v3,2023.2.2,Win32,84.74576271,,,,,,,,,,,,,,,,272.7342,274.287,274.287,275.6163,return,0.1988,,62.36979167,0,50,50,2,1,FBP-YG-71.png,0.4,1.2,3,0.75,,,,,,,,,,,,,,,,,,,,,,,,,,,,,,,,,,,,,,,,,,,,,
,,,,,V3_020,18,female,2024-10-17_16h16.44.073,jersey_experiment_5_v3,2023.2.2,Win32,84.74576271,,,,,,,,,,,,,,,,275.6165,277.1694,277.1694,278.2047,return,0.1705,,56.38020833,0,51,51,11,1,FBP-YG-91.png,0.37,1.2,12,0.75,,,,,,,,,,,,,,,,,,,,,,,,,,,,,,,,,,,,,,,,,,,,,
,,,,,V3_020,18,female,2024-10-17_16h16.44.073,jersey_experiment_5_v3,2023.2.2,Win32,84.74576271,,,,,,,,,,,,,,,,278.2049,279.7461,279.7462,280.946,return,0.238,,75.65104167,0,52,52,9,1,FBP-YG-81.png,0.45,1.2,10,0.75,,,,,,,,,,,,,,,,,,,,,,,,,,,,,,,,,,,,,,,,,,,,,
,,,,,V3_020,18,female,2024-10-17_16h16.44.073,jersey_experiment_5_v3,2023.2.2,Win32,84.74576271,,,,,,,,,,,,,,,,280.9462,282.2402,282.2403,283.4402,return,0.1799,,69.921875,0,53,53,32,1,FBP-OG-17.png,0.4,1.2,33,0.5,,,,,,,,,,,,,,,,,,,,,,,,,,,,,,,,,,,,,,,,,,,,,
,,,,,V3_020,18,female,2024-10-17_16h16.44.073,jersey_experiment_5_v3,2023.2.2,Win32,84.74576271,,,,,,,,,,,,,,,,283.4405,284.9935,284.9937,286.0284,return,0.2162,,48.95833333,0,54,54,5,1,FBP-YG-81.png,0.35,1.2,6,0.75,,,,,,,,,,,,,,,,,,,,,,,,,,,,,,,,,,,,,,,,,,,,,
,,,,,V3_020,18,female,2024-10-17_16h16.44.073,jersey_experiment_5_v3,2023.2.2,Win32,84.74576271,,,,,,,,,,,,,,,,286.0287,287.5815,287.5816,288.3343,return,0.189,,53.90625,0,55,55,57,1,FBP-RB-19.png,0.4,1.2,58,0.75,,,,,,,,,,,,,,,,,,,,,,,,,,,,,,,,,,,,,,,,,,,,,
,,,,,V3_020,18,female,2024-10-17_16h16.44.073,jersey_experiment_5_v3,2023.2.2,Win32,84.74576271,,,,,,,,,,,,,,,,288.3347,289.8876,289.8877,291.0404,return,0.2026,,60.546875,0,56,56,52,1,FBP-RB-18.png,0.4,1.2,53,0.75,,,,,,,,,,,,,,,,,,,,,,,,,,,,,,,,,,,,,,,,,,,,,
,,,,,V3_020,18,female,2024-10-17_16h16.44.073,jersey_experiment_5_v3,2023.2.2,Win32,84.74576271,,,,,,,,,,,,,,,,291.0407,292.5934,292.5935,293.6994,return,0.2113,,63.02083333,0,57,57,47,1,FBP-RB-17.png,0.4,1.2,48,0.75,,,,,,,,,,,,,,,,,,,,,,,,,,,,,,,,,,,,,,,,,,,,,
,,,,,V3_020,18,female,2024-10-17_16h16.44.073,jersey_experiment_5_v3,2023.2.2,Win32,84.74576271,,,,,,,,,,,,,,,,293.6997,295.2525,295.2525,296.2054,return,0.1785,,60.02604167,0,58,58,51,1,FBP-RB-18.png,0.37,1.2,52,0.75,,,,,,,,,,,,,,,,,,,,,,,,,,,,,,,,,,,,,,,,,,,,,
,,,,,V3_020,18,female,2024-10-17_16h16.44.073,jersey_experiment_5_v3,2023.2.2,Win32,84.74576271,,,,,,,,,,,,,,,,296.2056,297.4997,297.4998,299.0525,return,0.1945,,30.46875,0,59,59,40,1,FBP-OG-19.png,0.35,1.2,41,0.5,,,,,,,,,,,,,,,,,,,,,,,,,,,,,,,,,,,,,,,,,,,,,
,,,,,V3_020,18,female,2024-10-17_16h16.44.073,jersey_experiment_5_v3,2023.2.2,Win32,84.74576271,,,,,,,,,,,,,,,,299.0538,300.3467,300.3467,301.4527,return,0.1708,,26.82291667,,,,,,FBP-OG-81.png,0.37,1.2,37,0.5,0,0,0,36,1,,,,,,,,,,,,,,,,,,,,,,,,,,,,,,,,,,,,,,,,
,,,,,V3_020,18,female,2024-10-17_16h16.44.073,jersey_experiment_5_v3,2023.2.2,Win32,84.74576271,,,,,,,,,,,,,,,,301.4532,302.747,302.747,304.1586,return,0.1793,,86.19791667,,,,,,FBP-OG-71.png,0.45,1.2,35,0.5,0,1,1,34,1,,,,,,,,,,,,,,,,,,,,,,,,,,,,,,,,,,,,,,,,
,,,,,V3_020,18,female,2024-10-17_16h16.44.073,jersey_experiment_5_v3,2023.2.2,Win32,84.74576271,,,,,,,,,,,,,,,,304.1589,305.4529,305.4529,306.7352,return,0.2358,,32.29166667,,,,,,FBP-OG-81.png,0.35,1.2,36,0.5,0,2,2,35,1,,,,,,,,,,,,,,,,,,,,,,,,,,,,,,,,,,,,,,,,
,,,,,V3_020,18,female,2024-10-17_16h16.44.073,jersey_experiment_5_v3,2023.2.2,Win32,84.74576271,,,,,,,,,,,,,,,,306.7355,308.0294,308.0295,310.9706,return,1.2064,,49.34895833,,,,,,FBP-OG-71.png,0.37,1.2,32,0.5,0,3,3,31,1,,,,,,,,,,,,,,,,,,,,,,,,,,,,,,,,,,,,,,,,
,,,,,V3_020,18,female,2024-10-17_16h16.44.073,jersey_experiment_5_v3,2023.2.2,Win32,84.74576271,,,,,,,,,,,,,,,,310.9708,312.2647,312.2647,313.6649,return,0.2367,,90.75520833,,,,,,FBP-OG-91.png,0.45,1.2,45,0.5,0,4,4,44,1,,,,,,,,,,,,,,,,,,,,,,,,,,,,,,,,,,,,,,,,
,,,,,V3_020,18,female,2024-10-17_16h16.44.073,jersey_experiment_5_v3,2023.2.2,Win32,84.74576271,,,,,,,,,,,,,,,,313.6651,315.2179,315.2179,316.1237,return,0.1936,,71.875,,,,,,FBP-YG-19.png,0.37,1.2,12,0.75,0,5,5,11,1,,,,,,,,,,,,,,,,,,,,,,,,,,,,,,,,,,,,,,,,
,,,,,V3_020,18,female,2024-10-17_16h16.44.073,jersey_experiment_5_v3,2023.2.2,Win32,84.74576271,,,,,,,,,,,,,,,,316.1238,317.6767,317.6767,319.0415,return,0.2353,,67.44791667,,,,,,FBP-PT-91.png,0.37,1.2,27,0.75,0,6,6,26,1,,,,,,,,,,,,,,,,,,,,,,,,,,,,,,,,,,,,,,,,
,,,,,V3_020,18,female,2024-10-17_16h16.44.073,jersey_experiment_5_v3,2023.2.2,Win32,84.74576271,,,,,,,,,,,,,,,,319.0418,320.5946,320.5946,322.1239,return,0.7949,,78.125,,,,,,FBP-PT-81.png,0.4,1.2,23,0.75,0,7,7,22,1,,,,,,,,,,,,,,,,,,,,,,,,,,,,,,,,,,,,,,,,
,,,,,V3_020,18,female,2024-10-17_16h16.44.073,jersey_experiment_5_v3,2023.2.2,Win32,84.74576271,,,,,,,,,,,,,,,,322.1241,323.6771,323.6771,324.4299,return,0.1419,,79.81770833,,,,,,FBP-YG-19.png,0.43,1.2,14,0.75,0,8,8,13,1,,,,,,,,,,,,,,,,,,,,,,,,,,,,,,,,,,,,,,,,
,,,,,V3_020,18,female,2024-10-17_16h16.44.073,jersey_experiment_5_v3,2023.2.2,Win32,84.74576271,,,,,,,,,,,,,,,,324.4301,325.7242,325.7242,326.5006,return,0.1659,,80.59895833,,,,,,FBP-OG-91.png,0.43,1.2,44,0.5,0,9,9,43,1,,,,,,,,,,,,,,,,,,,,,,,,,,,,,,,,,,,,,,,,
,,,,,V3_020,18,female,2024-10-17_16h16.44.073,jersey_experiment_5_v3,2023.2.2,Win32,84.74576271,,,,,,,,,,,,,,,,326.5008,328.0536,328.0536,329.7479,return,0.1629,,87.5,,,,,,FBP-RB-81.png,0.43,1.2,54,0.75,0,10,10,53,1,,,,,,,,,,,,,,,,,,,,,,,,,,,,,,,,,,,,,,,,
,,,,,V3_020,18,female,2024-10-17_16h16.44.073,jersey_experiment_5_v3,2023.2.2,Win32,84.74576271,,,,,,,,,,,,,,,,329.748,331.3008,331.3009,332.442,return,0.4397,,88.02083333,,,,,,FBP-PT-81.png,0.45,1.2,25,0.75,0,11,11,24,1,,,,,,,,,,,,,,,,,,,,,,,,,,,,,,,,,,,,,,,,
,,,,,V3_020,18,female,2024-10-17_16h16.44.073,jersey_experiment_5_v3,2023.2.2,Win32,84.74576271,,,,,,,,,,,,,,,,332.4422,333.9834,333.9834,335.5009,return,0.1801,,51.82291667,,,,,,FBP-RB-71.png,0.35,1.2,46,0.75,0,12,12,45,1,,,,,,,,,,,,,,,,,,,,,,,,,,,,,,,,,,,,,,,,
,,,,,V3_020,18,female,2024-10-17_16h16.44.073,jersey_experiment_5_v3,2023.2.2,Win32,84.74576271,,,,,,,,,,,,,,,,335.5012,337.054,337.0541,339.2189,return,0.9027,,94.40104167,,,,,,FBP-PT-71.png,0.45,1.2,20,0.75,0,13,13,19,1,,,,,,,,,,,,,,,,,,,,,,,,,,,,,,,,,,,,,,,,
,,,,,V3_020,18,female,2024-10-17_16h16.44.073,jersey_experiment_5_v3,2023.2.2,Win32,84.74576271,,,,,,,,,,,,,,,,339.2191,340.7719,340.7719,343.0189,return,1.008,,87.63020833,,,,,,FBP-RB-81.png,0.45,1.2,55,0.75,0,14,14,54,1,,,,,,,,,,,,,,,,,,,,,,,,,,,,,,,,,,,,,,,,
,,,,,V3_020,18,female,2024-10-17_16h16.44.073,jersey_experiment_5_v3,2023.2.2,Win32,84.74576271,,,,,,,,,,,,,,,,343.0191,344.5721,344.5721,345.5365,return,0.1563,,49.47916667,,,,,,FBP-YG-17.png,0.4,1.2,3,0.75,0,15,15,2,1,,,,,,,,,,,,,,,,,,,,,,,,,,,,,,,,,,,,,,,,
,,,,,V3_020,18,female,2024-10-17_16h16.44.073,jersey_experiment_5_v3,2023.2.2,Win32,84.74576271,,,,,,,,,,,,,,,,345.5368,347.0897,347.0897,348.1603,return,0.1778,,32.16145833,,,,,,FBP-RB-81.png,0.37,1.2,52,0.75,0,16,16,51,1,,,,,,,,,,,,,,,,,,,,,,,,,,,,,,,,,,,,,,,,
,,,,,V3_020,18,female,2024-10-17_16h16.44.073,jersey_experiment_5_v3,2023.2.2,Win32,84.74576271,,,,,,,,,,,,,,,,348.1606,349.7133,349.7133,350.4427,return,0.1965,,34.24479167,,,,,,FBP-PT-81.png,0.35,1.2,21,0.75,0,17,17,20,1,,,,,,,,,,,,,,,,,,,,,,,,,,,,,,,,,,,,,,,,
,,,,,V3_020,18,female,2024-10-17_16h16.44.073,jersey_experiment_5_v3,2023.2.2,Win32,84.74576271,,,,,,,,,,,,,,,,350.443,351.9957,351.9958,352.8662,return,0.1888,,34.24479167,,,,,,FBP-PT-71.png,0.35,1.2,16,0.75,0,18,18,15,1,,,,,,,,,,,,,,,,,,,,,,,,,,,,,,,,,,,,,,,,
,,,,,V3_020,18,female,2024-10-17_16h16.44.073,jersey_experiment_5_v3,2023.2.2,Win32,84.74576271,,,,,,,,,,,,,,,,352.8665,354.4193,354.4193,356.643,return,0.1417,,36.06770833,,,,,,FBP-RB-91.png,0.35,1.2,56,0.75,0,19,19,55,1,,,,,,,,,,,,,,,,,,,,,,,,,,,,,,,,,,,,,,,,
,,,,,V3_020,18,female,2024-10-17_16h16.44.073,jersey_experiment_5_v3,2023.2.2,Win32,84.74576271,,,,,,,,,,,,,,,,356.6432,358.1962,358.1962,359.1842,return,0.189,,24.86979167,,,,,,FBP-YG-17.png,0.35,1.2,1,0.75,0,20,20,0,1,,,,,,,,,,,,,,,,,,,,,,,,,,,,,,,,,,,,,,,,
,,,,,V3_020,18,female,2024-10-17_16h16.44.073,jersey_experiment_5_v3,2023.2.2,Win32,84.74576271,,,,,,,,,,,,,,,,359.1844,360.7373,360.7374,361.7607,return,0.1746,,50.13020833,,,,,,FBP-YG-18.png,0.37,1.2,7,0.75,0,21,21,6,1,,,,,,,,,,,,,,,,,,,,,,,,,,,,,,,,,,,,,,,,
,,,,,V3_020,18,female,2024-10-17_16h16.44.073,jersey_experiment_5_v3,2023.2.2,Win32,84.74576271,,,,,,,,,,,,,,,,361.7609,363.3137,363.3138,364.7726,return,0.2201,,88.671875,,,,,,FBP-PT-91.png,0.45,1.2,30,0.75,0,22,22,29,1,,,,,,,,,,,,,,,,,,,,,,,,,,,,,,,,,,,,,,,,
,,,,,V3_020,18,female,2024-10-17_16h16.44.073,jersey_experiment_5_v3,2023.2.2,Win32,84.74576271,,,,,,,,,,,,,,,,364.7729,366.3256,366.3257,368.1963,return,0.1419,,50.390625,,,,,,FBP-RB-81.png,0.35,1.2,51,0.75,0,23,23,50,1,,,,,,,,,,,,,,,,,,,,,,,,,,,,,,,,,,,,,,,,
,,,,,V3_020,18,female,2024-10-17_16h16.44.073,jersey_experiment_5_v3,2023.2.2,Win32,84.74576271,,,,,,,,,,,,,,,,368.1966,369.7495,369.7495,370.6904,return,0.2127,,77.86458333,,,,,,FBP-PT-81.png,0.43,1.2,24,0.75,0,24,24,23,1,,,,,,,,,,,,,,,,,,,,,,,,,,,,,,,,,,,,,,,,
,,,,,V3_020,18,female,2024-10-17_16h16.44.073,jersey_experiment_5_v3,2023.2.2,Win32,84.74576271,,,,,,,,,,,,,,,,370.6905,371.9847,371.9847,374.2436,return,0.2275,,68.22916667,,,,,,FBP-OG-91.png,0.35,1.2,41,0.5,0,25,25,40,1,,,,,,,,,,,,,,,,,,,,,,,,,,,,,,,,,,,,,,,,
,,,,,V3_020,18,female,2024-10-17_16h16.44.073,jersey_experiment_5_v3,2023.2.2,Win32,84.74576271,,,,,,,,,,,,,,,,374.2438,375.7967,375.7968,376.5966,return,0.1176,,49.34895833,,,,,,FBP-RB-91.png,0.37,1.2,57,0.75,0,26,26,56,1,,,,,,,,,,,,,,,,,,,,,,,,,,,,,,,,,,,,,,,,
,,,,,V3_020,18,female,2024-10-17_16h16.44.073,jersey_experiment_5_v3,2023.2.2,Win32,84.74576271,,,,,,,,,,,,,,,,376.5968,377.8906,377.8906,379.1143,return,0.1847,,37.5,,,,,,FBP-OG-71.png,0.35,1.2,31,0.5,0,27,27,30,1,,,,,,,,,,,,,,,,,,,,,,,,,,,,,,,,,,,,,,,,
,,,,,V3_020,18,female,2024-10-17_16h16.44.073,jersey_experiment_5_v3,2023.2.2,Win32,84.74576271,,,,,,,,,,,,,,,,379.1144,380.6673,380.6674,382.8674,return,0.1178,,73.95833333,,,,,,FBP-YG-18.png,0.45,1.2,10,0.75,0,28,28,9,1,,,,,,,,,,,,,,,,,,,,,,,,,,,,,,,,,,,,,,,,
,,,,,V3_020,18,female,2024-10-17_16h16.44.073,jersey_experiment_5_v3,2023.2.2,Win32,84.74576271,,,,,,,,,,,,,,,,382.8676,384.4204,384.4205,385.0556,return,0.1677,,75,,,,,,FBP-PT-71.png,0.4,1.2,18,0.75,0,29,29,17,1,,,,,,,,,,,,,,,,,,,,,,,,,,,,,,,,,,,,,,,,
,,,,,V3_020,18,female,2024-10-17_16h16.44.073,jersey_experiment_5_v3,2023.2.2,Win32,84.74576271,,,,,,,,,,,,,,,,385.0558,386.5972,386.5972,387.4912,return,0.2044,,86.45833333,,,,,,FBP-RB-91.png,0.45,1.2,60,0.75,0,30,30,59,1,,,,,,,,,,,,,,,,,,,,,,,,,,,,,,,,,,,,,,,,
,,,,,V3_020,18,female,2024-10-17_16h16.44.073,jersey_experiment_5_v3,2023.2.2,Win32,84.74576271,,,,,,,,,,,,,,,,387.4913,389.0442,389.0442,390.8442,return,1.0732,,74.34895833,,,,,,FBP-RB-91.png,0.4,1.2,58,0.75,0,31,31,57,1,,,,,,,,,,,,,,,,,,,,,,,,,,,,,,,,,,,,,,,,
,,,,,V3_020,18,female,2024-10-17_16h16.44.073,jersey_experiment_5_v3,2023.2.2,Win32,84.74576271,,,,,,,,,,,,,,,,390.8445,392.3973,392.3974,393.9855,return,0.2362,,40.10416667,,,,,,FBP-RB-71.png,0.37,1.2,47,0.75,0,32,32,46,1,,,,,,,,,,,,,,,,,,,,,,,,,,,,,,,,,,,,,,,,
,,,,,V3_020,18,female,2024-10-17_16h16.44.073,jersey_experiment_5_v3,2023.2.2,Win32,84.74576271,,,,,,,,,,,,,,,,393.9857,395.5384,395.5384,396.3503,return,0.1537,,40.10416667,,,,,,FBP-PT-71.png,0.37,1.2,17,0.75,0,33,33,16,1,,,,,,,,,,,,,,,,,,,,,,,,,,,,,,,,,,,,,,,,
,,,,,V3_020,18,female,2024-10-17_16h16.44.073,jersey_experiment_5_v3,2023.2.2,Win32,84.74576271,,,,,,,,,,,,,,,,396.3507,397.9033,397.9033,398.7032,return,0.1917,,39.97395833,,,,,,FBP-YG-19.png,0.4,1.2,13,0.75,0,34,34,12,1,,,,,,,,,,,,,,,,,,,,,,,,,,,,,,,,,,,,,,,,
,,,,,V3_020,18,female,2024-10-17_16h16.44.073,jersey_experiment_5_v3,2023.2.2,Win32,84.74576271,,,,,,,,,,,,,,,,398.7035,400.2564,400.2564,402.4799,return,0.2975,,63.671875,,,,,,FBP-PT-91.png,0.4,1.2,28,0.75,0,35,35,27,1,,,,,,,,,,,,,,,,,,,,,,,,,,,,,,,,,,,,,,,,
,,,,,V3_020,18,female,2024-10-17_16h16.44.073,jersey_experiment_5_v3,2023.2.2,Win32,84.74576271,,,,,,,,,,,,,,,,402.4803,404.033,404.033,405.8564,return,0.6441,,74.609375,,,,,,FBP-RB-71.png,0.45,1.2,50,0.75,0,36,36,49,1,,,,,,,,,,,,,,,,,,,,,,,,,,,,,,,,,,,,,,,,
,,,,,V3_020,18,female,2024-10-17_16h16.44.073,jersey_experiment_5_v3,2023.2.2,Win32,84.74576271,,,,,,,,,,,,,,,,405.8566,407.1506,407.1507,408.1859,return,0.1498,,49.86979167,,,,,,FBP-OG-91.png,0.37,1.2,42,0.5,0,37,37,41,1,,,,,,,,,,,,,,,,,,,,,,,,,,,,,,,,,,,,,,,,
,,,,,V3_020,18,female,2024-10-17_16h16.44.073,jersey_experiment_5_v3,2023.2.2,Win32,84.74576271,,,,,,,,,,,,,,,,408.1862,409.739,409.7391,410.4331,return,0.2509,,49.86979167,,,,,,FBP-PT-91.png,0.35,1.2,26,0.75,0,38,38,25,1,,,,,,,,,,,,,,,,,,,,,,,,,,,,,,,,,,,,,,,,
,,,,,V3_020,18,female,2024-10-17_16h16.44.073,jersey_experiment_5_v3,2023.2.2,Win32,84.74576271,,,,,,,,,,,,,,,,410.4333,411.9862,411.9862,413.2098,return,0.2206,,54.94791667,,,,,,FBP-YG-17.png,0.43,1.2,4,0.75,0,39,39,3,1,,,,,,,,,,,,,,,,,,,,,,,,,,,,,,,,,,,,,,,,
,,,,,V3_020,18,female,2024-10-17_16h16.44.073,jersey_experiment_5_v3,2023.2.2,Win32,84.74576271,,,,,,,,,,,,,,,,413.2101,414.7626,414.7627,415.6805,return,0.3789,,54.55729167,,,,,,FBP-RB-71.png,0.4,1.2,48,0.75,0,40,40,47,1,,,,,,,,,,,,,,,,,,,,,,,,,,,,,,,,,,,,,,,,
,,,,,V3_020,18,female,2024-10-17_16h16.44.073,jersey_experiment_5_v3,2023.2.2,Win32,84.74576271,,,,,,,,,,,,,,,,415.6807,417.2336,417.2336,418.1157,return,0.1879,,63.80208333,,,,,,FBP-RB-71.png,0.43,1.2,49,0.75,0,41,41,48,1,,,,,,,,,,,,,,,,,,,,,,,,,,,,,,,,,,,,,,,,
,,,,,V3_020,18,female,2024-10-17_16h16.44.073,jersey_experiment_5_v3,2023.2.2,Win32,84.74576271,,,,,,,,,,,,,,,,418.1159,419.4098,419.4099,421.457,return,0.1768,,62.76041667,,,,,,FBP-OG-81.png,0.4,1.2,38,0.5,0,42,42,37,1,,,,,,,,,,,,,,,,,,,,,,,,,,,,,,,,,,,,,,,,
,,,,,V3_020,18,female,2024-10-17_16h16.44.073,jersey_experiment_5_v3,2023.2.2,Win32,84.74576271,,,,,,,,,,,,,,,,421.4572,422.9985,422.9985,424.269,return,0.1821,,68.61979167,,,,,,FBP-YG-18.png,0.43,1.2,9,0.75,0,43,43,8,1,,,,,,,,,,,,,,,,,,,,,,,,,,,,,,,,,,,,,,,,
,,,,,V3_020,18,female,2024-10-17_16h16.44.073,jersey_experiment_5_v3,2023.2.2,Win32,84.74576271,,,,,,,,,,,,,,,,424.2692,425.5632,425.5633,426.5749,return,0.1669,,65.234375,,,,,,FBP-OG-91.png,0.4,1.2,43,0.5,0,44,44,42,1,,,,,,,,,,,,,,,,,,,,,,,,,,,,,,,,,,,,,,,,
,,,,,V3_020,18,female,2024-10-17_16h16.44.073,jersey_experiment_5_v3,2023.2.2,Win32,84.74576271,,,,,,,,,,,,,,,,426.575,427.869,427.869,428.6103,return,0.1649,,65.10416667,,,,,,FBP-OG-71.png,0.4,1.2,33,0.5,0,45,45,32,1,,,,,,,,,,,,,,,,,,,,,,,,,,,,,,,,,,,,,,,,
,,,,,V3_020,18,female,2024-10-17_16h16.44.073,jersey_experiment_5_v3,2023.2.2,Win32,84.74576271,,,,,,,,,,,,,,,,428.6104,430.1633,430.1633,431.7751,return,0.1575,,67.31770833,,,,,,FBP-YG-17.png,0.45,1.2,5,0.75,0,46,46,4,1,,,,,,,,,,,,,,,,,,,,,,,,,,,,,,,,,,,,,,,,
,,,,,V3_020,18,female,2024-10-17_16h16.44.073,jersey_experiment_5_v3,2023.2.2,Win32,84.74576271,,,,,,,,,,,,,,,,431.7752,433.3281,433.3282,435.2105,return,1.0187,,72.00520833,,,,,,FBP-YG-19.png,0.45,1.2,15,0.75,0,47,47,14,1,,,,,,,,,,,,,,,,,,,,,,,,,,,,,,,,,,,,,,,,
,,,,,V3_020,18,female,2024-10-17_16h16.44.073,jersey_experiment_5_v3,2023.2.2,Win32,84.74576271,,,,,,,,,,,,,,,,435.2107,436.7637,436.7637,438.6577,return,0.4717,,64.453125,,,,,,FBP-RB-91.png,0.43,1.2,59,0.75,0,48,48,58,1,,,,,,,,,,,,,,,,,,,,,,,,,,,,,,,,,,,,,,,,
,,,,,V3_020,18,female,2024-10-17_16h16.44.073,jersey_experiment_5_v3,2023.2.2,Win32,84.74576271,,,,,,,,,,,,,,,,438.658,440.2107,440.2107,441.4225,return,0.2512,,66.14583333,,,,,,FBP-PT-71.png,0.43,1.2,19,0.75,0,49,49,18,1,,,,,,,,,,,,,,,,,,,,,,,,,,,,,,,,,,,,,,,,
,,,,,V3_020,18,female,2024-10-17_16h16.44.073,jersey_experiment_5_v3,2023.2.2,Win32,84.74576271,,,,,,,,,,,,,,,,441.4228,442.7167,442.7168,443.505,return,0.1975,,69.01041667,,,,,,FBP-OG-81.png,0.43,1.2,39,0.5,0,50,50,38,1,,,,,,,,,,,,,,,,,,,,,,,,,,,,,,,,,,,,,,,,
,,,,,V3_020,18,female,2024-10-17_16h16.44.073,jersey_experiment_5_v3,2023.2.2,Win32,84.74576271,,,,,,,,,,,,,,,,443.5051,444.7992,444.7993,445.8109,return,0.212,,72.78645833,,,,,,FBP-OG-81.png,0.45,1.2,40,0.5,0,51,51,39,1,,,,,,,,,,,,,,,,,,,,,,,,,,,,,,,,,,,,,,,,
,,,,,V3_020,18,female,2024-10-17_16h16.44.073,jersey_experiment_5_v3,2023.2.2,Win32,84.74576271,,,,,,,,,,,,,,,,445.8113,447.3641,447.3641,448.6581,return,0.1889,,48.95833333,,,,,,FBP-YG-18.png,0.4,1.2,8,0.75,0,52,52,7,1,,,,,,,,,,,,,,,,,,,,,,,,,,,,,,,,,,,,,,,,
,,,,,V3_020,18,female,2024-10-17_16h16.44.073,jersey_experiment_5_v3,2023.2.2,Win32,84.74576271,,,,,,,,,,,,,,,,448.6582,450.2111,450.2112,450.858,return,0.1958,,50.52083333,,,,,,FBP-RB-81.png,0.4,1.2,53,0.75,0,53,53,52,1,,,,,,,,,,,,,,,,,,,,,,,,,,,,,,,,,,,,,,,,
,,,,,V3_020,18,female,2024-10-17_16h16.44.073,jersey_experiment_5_v3,2023.2.2,Win32,84.74576271,,,,,,,,,,,,,,,,450.8583,452.3996,452.3996,453.3172,return,0.1648,,38.80208333,,,,,,FBP-PT-81.png,0.37,1.2,22,0.75,0,54,54,21,1,,,,,,,,,,,,,,,,,,,,,,,,,,,,,,,,,,,,,,,,
,,,,,V3_020,18,female,2024-10-17_16h16.44.073,jersey_experiment_5_v3,2023.2.2,Win32,84.74576271,,,,,,,,,,,,,,,,453.3174,454.6112,454.6112,456.7526,return,0.1745,,62.890625,,,,,,FBP-OG-71.png,0.43,1.2,34,0.5,0,55,55,33,1,,,,,,,,,,,,,,,,,,,,,,,,,,,,,,,,,,,,,,,,
,,,,,V3_020,18,female,2024-10-17_16h16.44.073,jersey_experiment_5_v3,2023.2.2,Win32,84.74576271,,,,,,,,,,,,,,,,456.7528,458.3055,458.3055,460.5762,return,0.0003,,49.73958333,,,,,,FBP-YG-17.png,0.37,1.2,2,0.75,0,56,56,1,1,,,,,,,,,,,,,,,,,,,,,,,,,,,,,,,,,,,,,,,,
,,,,,V3_020,18,female,2024-10-17_16h16.44.073,jersey_experiment_5_v3,2023.2.2,Win32,84.74576271,,,,,,,,,,,,,,,,460.5763,462.1292,462.1292,463.6116,return,0.2158,,37.23958333,,,,,,FBP-YG-18.png,0.35,1.2,6,0.75,0,57,57,5,1,,,,,,,,,,,,,,,,,,,,,,,,,,,,,,,,,,,,,,,,
,,,,,V3_020,18,female,2024-10-17_16h16.44.073,jersey_experiment_5_v3,2023.2.2,Win32,84.74576271,,,,,,,,,,,,,,,,463.6118,465.1646,465.1647,466.1057,return,0.1955,,32.68229167,,,,,,FBP-YG-19.png,0.35,1.2,11,0.75,0,58,58,10,1,,,,,,,,,,,,,,,,,,,,,,,,,,,,,,,,,,,,,,,,
,,,,,V3_020,18,female,2024-10-17_16h16.44.073,jersey_experiment_5_v3,2023.2.2,Win32,84.74576271,,,,,,,,,,,,,,,,466.1059,467.6588,467.6589,468.9765,return,0.281,,65.10416667,,,,,,FBP-PT-91.png,0.43,1.2,29,0.75,0,59,59,28,1,,,,,,,,,,,,,,,,,,,,,,,,,,,,,,,,,,,,,,,,
,,,,,V3_020,18,female,2024-10-17_16h16.44.073,jersey_experiment_5_v3,2023.2.2,Win32,84.74576271,,,,,,,,,,,,,,,,,,,,,,,,,,,,,,,,,,,,,,,468.9766,588.9693,,,,,,,,,,,,,,,,,,,,,,,,,,,,,,,,,,,,,,
,,,,,V3_020,18,female,2024-10-17_16h16.44.073,jersey_experiment_5_v3,2023.2.2,Win32,84.74576271,,,,,,,,,,,,,,,,,,,,,,,,,,,,,,,,,,,,,,,,,588.9694,590.8753,return,1.9002,,,,,,,,,,,,,,,,,,,,,,,,,,,,,,,,,,
,,,,,V3_020,18,female,2024-10-17_16h16.44.073,jersey_experiment_5_v3,2023.2.2,Win32,84.74576271,,,,,,,,,,,,,,,,590.8776,592.1693,592.1693,595.1225,return,1.5297,,69.140625,,,,,,FBP-RB-17.png,0.43,1.2,49,0.5,,,,,,,,,,,,,0,0,0,48,1,,,,,,,,,,,,,,,,,,,,,,,,,,,,
,,,,,V3_020,18,female,2024-10-17_16h16.44.073,jersey_experiment_5_v3,2023.2.2,Win32,84.74576271,,,,,,,,,,,,,,,,595.1227,596.6754,596.6754,597.6282,return,0.1556,,77.86458333,,,,,,FBP-OG-17.png,0.43,1.2,34,0.75,,,,,,,,,,,,,0,1,1,33,1,,,,,,,,,,,,,,,,,,,,,,,,,,,,
,,,,,V3_020,18,female,2024-10-17_16h16.44.073,jersey_experiment_5_v3,2023.2.2,Win32,84.74576271,,,,,,,,,,,,,,,,597.6283,599.1696,599.1696,601.8992,return,2.3255,,74.34895833,,,,,,FBP-OG-19.png,0.43,1.2,44,0.75,,,,,,,,,,,,,0,2,2,43,1,,,,,,,,,,,,,,,,,,,,,,,,,,,,
,,,,,V3_020,18,female,2024-10-17_16h16.44.073,jersey_experiment_5_v3,2023.2.2,Win32,84.74576271,,,,,,,,,,,,,,,,601.8993,603.1933,603.1933,604.0286,return,0.171,,73.95833333,,,,,,FBP-YG-81.png,0.43,1.2,9,0.5,,,,,,,,,,,,,0,3,3,8,1,,,,,,,,,,,,,,,,,,,,,,,,,,,,
,,,,,V3_020,18,female,2024-10-17_16h16.44.073,jersey_experiment_5_v3,2023.2.2,Win32,84.74576271,,,,,,,,,,,,,,,,604.029,605.3227,605.3229,607.0522,return,0.1437,,61.58854167,,,,,,FBP-RB-19.png,0.43,1.2,59,0.5,,,,,,,,,,,,,0,4,4,58,1,,,,,,,,,,,,,,,,,,,,,,,,,,,,
,,,,,V3_020,18,female,2024-10-17_16h16.44.073,jersey_experiment_5_v3,2023.2.2,Win32,84.74576271,,,,,,,,,,,,,,,,607.0524,608.3462,608.3463,609.7935,return,0.2367,,49.73958333,,,,,,FBP-YG-91.png,0.37,1.2,12,0.5,,,,,,,,,,,,,0,5,5,11,1,,,,,,,,,,,,,,,,,,,,,,,,,,,,
,,,,,V3_020,18,female,2024-10-17_16h16.44.073,jersey_experiment_5_v3,2023.2.2,Win32,84.74576271,,,,,,,,,,,,,,,,609.7937,611.3465,611.3465,612.5583,return,0.1572,,75.26041667,,,,,,FBP-OG-17.png,0.45,1.2,35,0.75,,,,,,,,,,,,,0,6,6,34,1,,,,,,,,,,,,,,,,,,,,,,,,,,,,
,,,,,V3_020,18,female,2024-10-17_16h16.44.073,jersey_experiment_5_v3,2023.2.2,Win32,84.74576271,,,,,,,,,,,,,,,,612.5586,613.8525,613.8525,614.7701,return,0.2256,,75,,,,,,FBP-PT-18.png,0.43,1.2,24,0.5,,,,,,,,,,,,,0,7,7,23,1,,,,,,,,,,,,,,,,,,,,,,,,,,,,
,,,,,V3_020,18,female,2024-10-17_16h16.44.073,jersey_experiment_5_v3,2023.2.2,Win32,84.74576271,,,,,,,,,,,,,,,,614.7703,616.0643,616.0644,617.8291,return,0.1406,,37.5,,,,,,FBP-PT-18.png,0.35,1.2,21,0.5,,,,,,,,,,,,,0,8,8,20,1,,,,,,,,,,,,,,,,,,,,,,,,,,,,
,,,,,V3_020,18,female,2024-10-17_16h16.44.073,jersey_experiment_5_v3,2023.2.2,Win32,84.74576271,,,,,,,,,,,,,,,,617.8293,619.1233,619.1233,619.982,return,0.2949,,37.5,,,,,,FBP-RB-17.png,0.35,1.2,46,0.5,,,,,,,,,,,,,0,9,9,45,1,,,,,,,,,,,,,,,,,,,,,,,,,,,,
,,,,,V3_020,18,female,2024-10-17_16h16.44.073,jersey_experiment_5_v3,2023.2.2,Win32,84.74576271,,,,,,,,,,,,,,,,619.9823,621.5351,621.5351,622.5469,return,0.259,,55.20833333,,,,,,FBP-OG-19.png,0.4,1.2,43,0.75,,,,,,,,,,,,,0,10,10,42,1,,,,,,,,,,,,,,,,,,,,,,,,,,,,
,,,,,V3_020,18,female,2024-10-17_16h16.44.073,jersey_experiment_5_v3,2023.2.2,Win32,84.74576271,,,,,,,,,,,,,,,,622.5472,624.1001,624.1002,625.0057,return,0.2626,,72.13541667,,,,,,FBP-OG-18.png,0.43,1.2,39,0.75,,,,,,,,,,,,,0,11,11,38,1,,,,,,,,,,,,,,,,,,,,,,,,,,,,
,,,,,V3_020,18,female,2024-10-17_16h16.44.073,jersey_experiment_5_v3,2023.2.2,Win32,84.74576271,,,,,,,,,,,,,,,,625.0059,626.3,626.3001,627.1353,return,0.1682,,74.21875,,,,,,FBP-RB-18.png,0.43,1.2,54,0.5,,,,,,,,,,,,,0,12,12,53,1,,,,,,,,,,,,,,,,,,,,,,,,,,,,
,,,,,V3_020,18,female,2024-10-17_16h16.44.073,jersey_experiment_5_v3,2023.2.2,Win32,84.74576271,,,,,,,,,,,,,,,,627.1356,628.4295,628.4296,628.9707,return,0.1249,,73.95833333,,,,,,FBP-RB-18.png,0.4,1.2,53,0.5,,,,,,,,,,,,,0,13,13,52,1,,,,,,,,,,,,,,,,,,,,,,,,,,,,
,,,,,V3_020,18,female,2024-10-17_16h16.44.073,jersey_experiment_5_v3,2023.2.2,Win32,84.74576271,,,,,,,,,,,,,,,,628.9708,630.265,630.265,631.8884,return,0.1905,,63.671875,,,,,,FBP-PT-17.png,0.4,1.2,18,0.5,,,,,,,,,,,,,0,14,14,17,1,,,,,,,,,,,,,,,,,,,,,,,,,,,,
,,,,,V3_020,18,female,2024-10-17_16h16.44.073,jersey_experiment_5_v3,2023.2.2,Win32,84.74576271,,,,,,,,,,,,,,,,631.8887,633.1826,633.1826,634.3709,return,0.1316,,50.390625,,,,,,FBP-PT-19.png,0.4,1.2,28,0.5,,,,,,,,,,,,,0,15,15,27,1,,,,,,,,,,,,,,,,,,,,,,,,,,,,
,,,,,V3_020,18,female,2024-10-17_16h16.44.073,jersey_experiment_5_v3,2023.2.2,Win32,84.74576271,,,,,,,,,,,,,,,,634.3712,635.665,635.665,636.3709,return,0.1414,,50.390625,,,,,,FBP-RB-18.png,0.37,1.2,52,0.5,,,,,,,,,,,,,0,16,16,51,1,,,,,,,,,,,,,,,,,,,,,,,,,,,,
,,,,,V3_020,18,female,2024-10-17_16h16.44.073,jersey_experiment_5_v3,2023.2.2,Win32,84.74576271,,,,,,,,,,,,,,,,636.3712,637.665,637.6651,638.8653,return,0.1894,,36.71875,,,,,,FBP-YG-81.png,0.35,1.2,6,0.5,,,,,,,,,,,,,0,17,17,5,1,,,,,,,,,,,,,,,,,,,,,,,,,,,,
,,,,,V3_020,18,female,2024-10-17_16h16.44.073,jersey_experiment_5_v3,2023.2.2,Win32,84.74576271,,,,,,,,,,,,,,,,638.8655,640.1593,640.1593,641.5712,return,0.1564,,49.21875,,,,,,FBP-RB-19.png,0.37,1.2,57,0.5,,,,,,,,,,,,,0,18,18,56,1,,,,,,,,,,,,,,,,,,,,,,,,,,,,
,,,,,V3_020,18,female,2024-10-17_16h16.44.073,jersey_experiment_5_v3,2023.2.2,Win32,84.74576271,,,,,,,,,,,,,,,,641.5715,642.8653,642.8653,644.2536,return,0.192,,49.08854167,,,,,,FBP-PT-17.png,0.37,1.2,17,0.5,,,,,,,,,,,,,0,19,19,16,1,,,,,,,,,,,,,,,,,,,,,,,,,,,,
,,,,,V3_020,18,female,2024-10-17_16h16.44.073,jersey_experiment_5_v3,2023.2.2,Win32,84.74576271,,,,,,,,,,,,,,,,644.2538,645.8068,645.8068,646.736,return,0.2143,,37.5,,,,,,FBP-OG-19.png,0.35,1.2,41,0.75,,,,,,,,,,,,,0,20,20,40,1,,,,,,,,,,,,,,,,,,,,,,,,,,,,
,,,,,V3_020,18,female,2024-10-17_16h16.44.073,jersey_experiment_5_v3,2023.2.2,Win32,84.74576271,,,,,,,,,,,,,,,,646.7362,648.0303,648.0303,649.395,return,0.1647,,69.66145833,,,,,,FBP-RB-18.png,0.45,1.2,55,0.5,,,,,,,,,,,,,0,21,21,54,1,,,,,,,,,,,,,,,,,,,,,,,,,,,,
,,,,,V3_020,18,female,2024-10-17_16h16.44.073,jersey_experiment_5_v3,2023.2.2,Win32,84.74576271,,,,,,,,,,,,,,,,649.3951,650.9363,650.9363,653.0892,return,0.0801,,62.5,,,,,,FBP-OG-18.png,0.4,1.2,38,0.75,,,,,,,,,,,,,0,22,22,37,1,,,,,,,,,,,,,,,,,,,,,,,,,,,,
,,,,,V3_020,18,female,2024-10-17_16h16.44.073,jersey_experiment_5_v3,2023.2.2,Win32,84.74576271,,,,,,,,,,,,,,,,653.0894,654.3833,654.3834,655.1246,return,0.1179,,66.015625,,,,,,FBP-YG-71.png,0.4,1.2,3,0.5,,,,,,,,,,,,,0,23,23,2,1,,,,,,,,,,,,,,,,,,,,,,,,,,,,
,,,,,V3_020,18,female,2024-10-17_16h16.44.073,jersey_experiment_5_v3,2023.2.2,Win32,84.74576271,,,,,,,,,,,,,,,,655.125,656.6775,656.6776,657.7011,return,0.0941,,74.609375,,,,,,FBP-OG-17.png,0.4,1.2,33,0.75,,,,,,,,,,,,,0,24,24,32,1,,,,,,,,,,,,,,,,,,,,,,,,,,,,
,,,,,V3_020,18,female,2024-10-17_16h16.44.073,jersey_experiment_5_v3,2023.2.2,Win32,84.74576271,,,,,,,,,,,,,,,,657.7014,658.9953,658.9953,660.1131,return,0.2107,,85.02604167,,,,,,FBP-PT-17.png,0.43,1.2,19,0.5,,,,,,,,,,,,,0,25,25,18,1,,,,,,,,,,,,,,,,,,,,,,,,,,,,
,,,,,V3_020,18,female,2024-10-17_16h16.44.073,jersey_experiment_5_v3,2023.2.2,Win32,84.74576271,,,,,,,,,,,,,,,,660.1135,661.4072,661.4073,662.6544,return,0.1336,,58.984375,,,,,,FBP-YG-71.png,0.37,1.2,2,0.5,,,,,,,,,,,,,0,26,26,1,1,,,,,,,,,,,,,,,,,,,,,,,,,,,,
,,,,,V3_020,18,female,2024-10-17_16h16.44.073,jersey_experiment_5_v3,2023.2.2,Win32,84.74576271,,,,,,,,,,,,,,,,662.6546,663.9485,663.9485,664.925,return,0.1232,,50.65104167,,,,,,FBP-PT-19.png,0.37,1.2,27,0.5,,,,,,,,,,,,,0,27,27,26,1,,,,,,,,,,,,,,,,,,,,,,,,,,,,
,,,,,V3_020,18,female,2024-10-17_16h16.44.073,jersey_experiment_5_v3,2023.2.2,Win32,84.74576271,,,,,,,,,,,,,,,,664.9253,666.2191,666.2191,667.5839,return,0.2226,,30.59895833,,,,,,FBP-YG-71.png,0.35,1.2,1,0.5,,,,,,,,,,,,,0,28,28,0,1,,,,,,,,,,,,,,,,,,,,,,,,,,,,
,,,,,V3_020,18,female,2024-10-17_16h16.44.073,jersey_experiment_5_v3,2023.2.2,Win32,84.74576271,,,,,,,,,,,,,,,,667.584,668.878,668.8781,669.6195,return,0.1879,,30.98958333,,,,,,FBP-YG-81.png,0.37,1.2,7,0.5,,,,,,,,,,,,,0,29,29,6,1,,,,,,,,,,,,,,,,,,,,,,,,,,,,
,,,,,V3_020,18,female,2024-10-17_16h16.44.073,jersey_experiment_5_v3,2023.2.2,Win32,84.74576271,,,,,,,,,,,,,,,,669.6198,671.1723,671.1723,675.1723,return,2.4234,,37.109375,,,,,,FBP-OG-18.png,0.37,1.2,37,0.75,,,,,,,,,,,,,0,30,30,36,1,,,,,,,,,,,,,,,,,,,,,,,,,,,,
,,,,,V3_020,18,female,2024-10-17_16h16.44.073,jersey_experiment_5_v3,2023.2.2,Win32,84.74576271,,,,,,,,,,,,,,,,675.1725,676.4665,676.4666,677.4547,return,0.2978,,37.109375,,,,,,FBP-PT-19.png,0.35,1.2,26,0.5,,,,,,,,,,,,,0,31,31,25,1,,,,,,,,,,,,,,,,,,,,,,,,,,,,
,,,,,V3_020,18,female,2024-10-17_16h16.44.073,jersey_experiment_5_v3,2023.2.2,Win32,84.74576271,,,,,,,,,,,,,,,,677.4549,679.0079,679.0079,679.9726,return,0.1907,,50.13020833,,,,,,FBP-OG-19.png,0.37,1.2,42,0.75,,,,,,,,,,,,,0,32,32,41,1,,,,,,,,,,,,,,,,,,,,,,,,,,,,
,,,,,V3_020,18,female,2024-10-17_16h16.44.073,jersey_experiment_5_v3,2023.2.2,Win32,84.74576271,,,,,,,,,,,,,,,,679.9728,681.2668,681.2669,682.2668,return,0.1492,,38.15104167,,,,,,FBP-YG-91.png,0.35,1.2,11,0.5,,,,,,,,,,,,,0,33,33,10,1,,,,,,,,,,,,,,,,,,,,,,,,,,,,
,,,,,V3_020,18,female,2024-10-17_16h16.44.073,jersey_experiment_5_v3,2023.2.2,Win32,84.74576271,,,,,,,,,,,,,,,,682.2671,683.561,683.5611,684.9609,return,0.1336,,68.88020833,,,,,,FBP-YG-71.png,0.43,1.2,4,0.5,,,,,,,,,,,,,0,34,34,3,1,,,,,,,,,,,,,,,,,,,,,,,,,,,,
,,,,,V3_020,18,female,2024-10-17_16h16.44.073,jersey_experiment_5_v3,2023.2.2,Win32,84.74576271,,,,,,,,,,,,,,,,684.961,686.2552,686.2552,687.4082,return,0.0969,,50.13020833,,,,,,FBP-RB-19.png,0.35,1.2,56,0.5,,,,,,,,,,,,,0,35,35,55,1,,,,,,,,,,,,,,,,,,,,,,,,,,,,
,,,,,V3_020,18,female,2024-10-17_16h16.44.073,jersey_experiment_5_v3,2023.2.2,Win32,84.74576271,,,,,,,,,,,,,,,,687.4084,688.7024,688.7024,690.3965,return,0.0967,,37.36979167,,,,,,FBP-RB-18.png,0.35,1.2,51,0.5,,,,,,,,,,,,,0,36,36,50,1,,,,,,,,,,,,,,,,,,,,,,,,,,,,
,,,,,V3_020,18,female,2024-10-17_16h16.44.073,jersey_experiment_5_v3,2023.2.2,Win32,84.74576271,,,,,,,,,,,,,,,,690.3968,691.6906,691.6907,693.2318,return,0.1761,,73.69791667,,,,,,FBP-PT-19.png,0.43,1.2,29,0.5,,,,,,,,,,,,,0,37,37,28,1,,,,,,,,,,,,,,,,,,,,,,,,,,,,
,,,,,V3_020,18,female,2024-10-17_16h16.44.073,jersey_experiment_5_v3,2023.2.2,Win32,84.74576271,,,,,,,,,,,,,,,,693.2321,694.526,694.5261,695.3142,return,0.1806,,75.390625,,,,,,FBP-YG-91.png,0.43,1.2,14,0.5,,,,,,,,,,,,,0,38,38,13,1,,,,,,,,,,,,,,,,,,,,,,,,,,,,
,,,,,V3_020,18,female,2024-10-17_16h16.44.073,jersey_experiment_5_v3,2023.2.2,Win32,84.74576271,,,,,,,,,,,,,,,,695.3145,696.6084,696.6085,697.4556,return,0.1641,,81.51041667,,,,,,FBP-YG-71.png,0.45,1.2,5,0.5,,,,,,,,,,,,,0,39,39,4,1,,,,,,,,,,,,,,,,,,,,,,,,,,,,
,,,,,V3_020,18,female,2024-10-17_16h16.44.073,jersey_experiment_5_v3,2023.2.2,Win32,84.74576271,,,,,,,,,,,,,,,,697.4557,699.0086,699.0087,701.0675,return,0.0862,,49.34895833,,,,,,FBP-OG-17.png,0.37,1.2,32,0.75,,,,,,,,,,,,,0,40,40,31,1,,,,,,,,,,,,,,,,,,,,,,,,,,,,
,,,,,V3_020,18,female,2024-10-17_16h16.44.073,jersey_experiment_5_v3,2023.2.2,Win32,84.74576271,,,,,,,,,,,,,,,,701.0678,702.3617,702.3618,704.35,return,0.1107,,50,,,,,,FBP-RB-17.png,0.4,1.2,48,0.5,,,,,,,,,,,,,0,41,41,47,1,,,,,,,,,,,,,,,,,,,,,,,,,,,,
,,,,,V3_020,18,female,2024-10-17_16h16.44.073,jersey_experiment_5_v3,2023.2.2,Win32,84.74576271,,,,,,,,,,,,,,,,704.3502,705.644,705.6441,707.1383,return,0.2357,,74.609375,,,,,,FBP-PT-17.png,0.45,1.2,20,0.5,,,,,,,,,,,,,0,42,42,19,1,,,,,,,,,,,,,,,,,,,,,,,,,,,,
,,,,,V3_020,18,female,2024-10-17_16h16.44.073,jersey_experiment_5_v3,2023.2.2,Win32,84.74576271,,,,,,,,,,,,,,,,707.1385,708.4325,708.4325,711.2797,return,0.1292,,75.13020833,,,,,,FBP-RB-19.png,0.4,1.2,58,0.5,,,,,,,,,,,,,0,43,43,57,1,,,,,,,,,,,,,,,,,,,,,,,,,,,,
,,,,,V3_020,18,female,2024-10-17_16h16.44.073,jersey_experiment_5_v3,2023.2.2,Win32,84.74576271,,,,,,,,,,,,,,,,711.28,712.5738,712.5738,713.5856,return,0.1421,,91.53645833,,,,,,FBP-YG-81.png,0.45,1.2,10,0.5,,,,,,,,,,,,,0,44,44,9,1,,,,,,,,,,,,,,,,,,,,,,,,,,,,
,,,,,V3_020,18,female,2024-10-17_16h16.44.073,jersey_experiment_5_v3,2023.2.2,Win32,84.74576271,,,,,,,,,,,,,,,,713.5858,714.8797,714.8798,716.1855,return,0.1227,,81.90104167,,,,,,FBP-PT-18.png,0.4,1.2,23,0.5,,,,,,,,,,,,,0,45,45,22,1,,,,,,,,,,,,,,,,,,,,,,,,,,,,
,,,,,V3_020,18,female,2024-10-17_16h16.44.073,jersey_experiment_5_v3,2023.2.2,Win32,84.74576271,,,,,,,,,,,,,,,,716.1857,717.4799,717.4799,718.3504,return,0.1636,,82.8125,,,,,,FBP-YG-91.png,0.45,1.2,15,0.5,,,,,,,,,,,,,0,46,46,14,1,,,,,,,,,,,,,,,,,,,,,,,,,,,,
,,,,,V3_020,18,female,2024-10-17_16h16.44.073,jersey_experiment_5_v3,2023.2.2,Win32,84.74576271,,,,,,,,,,,,,,,,718.3506,719.6447,719.6447,720.9388,return,0.0902,,74.34895833,,,,,,FBP-YG-91.png,0.4,1.2,13,0.5,,,,,,,,,,,,,0,47,47,12,1,,,,,,,,,,,,,,,,,,,,,,,,,,,,
,,,,,V3_020,18,female,2024-10-17_16h16.44.073,jersey_experiment_5_v3,2023.2.2,Win32,84.74576271,,,,,,,,,,,,,,,,720.9389,722.2332,722.2332,723.3272,return,0.1211,,50.91145833,,,,,,FBP-RB-17.png,0.37,1.2,47,0.5,,,,,,,,,,,,,0,48,48,46,1,,,,,,,,,,,,,,,,,,,,,,,,,,,,
,,,,,V3_020,18,female,2024-10-17_16h16.44.073,jersey_experiment_5_v3,2023.2.2,Win32,84.74576271,,,,,,,,,,,,,,,,723.3273,724.6212,724.6213,726.1156,return,0.1414,,47.52604167,,,,,,FBP-PT-18.png,0.37,1.2,22,0.5,,,,,,,,,,,,,0,49,49,21,1,,,,,,,,,,,,,,,,,,,,,,,,,,,,
,,,,,V3_020,18,female,2024-10-17_16h16.44.073,jersey_experiment_5_v3,2023.2.2,Win32,84.74576271,,,,,,,,,,,,,,,,726.1159,727.4097,727.4097,728.6921,return,0.1413,,33.33333333,,,,,,FBP-PT-17.png,0.35,1.2,16,0.5,,,,,,,,,,,,,0,50,50,15,1,,,,,,,,,,,,,,,,,,,,,,,,,,,,
,,,,,V3_020,18,female,2024-10-17_16h16.44.073,jersey_experiment_5_v3,2023.2.2,Win32,84.74576271,,,,,,,,,,,,,,,,728.6923,729.9864,729.9864,731.4567,return,0.1801,,63.15104167,,,,,,FBP-YG-81.png,0.4,1.2,8,0.5,,,,,,,,,,,,,0,51,51,7,1,,,,,,,,,,,,,,,,,,,,,,,,,,,,
,,,,,V3_020,18,female,2024-10-17_16h16.44.073,jersey_experiment_5_v3,2023.2.2,Win32,84.74576271,,,,,,,,,,,,,,,,731.4569,732.7511,732.7511,733.8687,return,0.2252,,79.55729167,,,,,,FBP-RB-19.png,0.45,1.2,60,0.5,,,,,,,,,,,,,0,52,52,59,1,,,,,,,,,,,,,,,,,,,,,,,,,,,,
,,,,,V3_020,18,female,2024-10-17_16h16.44.073,jersey_experiment_5_v3,2023.2.2,Win32,84.74576271,,,,,,,,,,,,,,,,733.8689,735.4218,735.4219,736.61,return,0.1649,,53.125,,,,,,FBP-OG-18.png,0.35,1.2,36,0.75,,,,,,,,,,,,,0,53,53,35,1,,,,,,,,,,,,,,,,,,,,,,,,,,,,
,,,,,V3_020,18,female,2024-10-17_16h16.44.073,jersey_experiment_5_v3,2023.2.2,Win32,84.74576271,,,,,,,,,,,,,,,,736.6102,738.1631,738.1631,740.0926,return,0.9593,,81.90104167,,,,,,FBP-OG-18.png,0.45,1.2,40,0.75,,,,,,,,,,,,,0,54,54,39,1,,,,,,,,,,,,,,,,,,,,,,,,,,,,
,,,,,V3_020,18,female,2024-10-17_16h16.44.073,jersey_experiment_5_v3,2023.2.2,Win32,84.74576271,,,,,,,,,,,,,,,,740.0928,741.6457,741.6458,742.3631,return,0.1017,,84.50520833,,,,,,FBP-OG-19.png,0.45,1.2,45,0.75,,,,,,,,,,,,,0,55,55,44,1,,,,,,,,,,,,,,,,,,,,,,,,,,,,
,,,,,V3_020,18,female,2024-10-17_16h16.44.073,jersey_experiment_5_v3,2023.2.2,Win32,84.74576271,,,,,,,,,,,,,,,,742.3633,743.6573,743.6573,745.1632,return,0.1956,,72.265625,,,,,,FBP-PT-18.png,0.45,1.2,25,0.5,,,,,,,,,,,,,0,56,56,24,1,,,,,,,,,,,,,,,,,,,,,,,,,,,,
,,,,,V3_020,18,female,2024-10-17_16h16.44.073,jersey_experiment_5_v3,2023.2.2,Win32,84.74576271,,,,,,,,,,,,,,,,745.1635,746.7163,746.7163,748.9634,return,0.9418,,41.015625,,,,,,FBP-OG-17.png,0.35,1.2,31,0.75,,,,,,,,,,,,,0,57,57,30,1,,,,,,,,,,,,,,,,,,,,,,,,,,,,
,,,,,V3_020,18,female,2024-10-17_16h16.44.073,jersey_experiment_5_v3,2023.2.2,Win32,84.74576271,,,,,,,,,,,,,,,,748.9635,750.2576,750.2576,751.2928,return,0.1822,,73.69791667,,,,,,FBP-PT-19.png,0.45,1.2,30,0.5,,,,,,,,,,,,,0,58,58,29,1,,,,,,,,,,,,,,,,,,,,,,,,,,,,
,,,,,V3_020,18,female,2024-10-17_16h16.44.073,jersey_experiment_5_v3,2023.2.2,Win32,84.74576271,,,,,,,,,,,,,,,,751.2931,752.5871,752.5871,753.2813,return,0.1759,,73.69791667,,,,,,FBP-RB-17.png,0.45,1.2,50,0.5,,,,,,,,,,,,,0,59,59,49,1,,,,,,,,,,,,,,,,,,,,,,,,,,,,
,,,,,V3_020,18,female,2024-10-17_16h16.44.073,jersey_experiment_5_v3,2023.2.2,Win32,84.74576271,,,,,,,,,,,,,,,,753.2826,754.5753,754.5753,756.0813,return,0.2131,,59.375,,,,,,FBP-PT-81.png,0.37,1.2,22,0.5,,,,,,,,,,,,,,,,,,0,0,0,21,1,,,,,,,,,,,,,,,,,,,,,,,
,,,,,V3_020,18,female,2024-10-17_16h16.44.073,jersey_experiment_5_v3,2023.2.2,Win32,84.74576271,,,,,,,,,,,,,,,,756.0814,757.3755,757.3755,758.1755,return,0.2849,,59.375,,,,,,FBP-YG-17.png,0.4,1.2,3,0.5,,,,,,,,,,,,,,,,,,0,1,1,2,1,,,,,,,,,,,,,,,,,,,,,,,
,,,,,V3_020,18,female,2024-10-17_16h16.44.073,jersey_experiment_5_v3,2023.2.2,Win32,84.74576271,,,,,,,,,,,,,,,,758.1757,759.4697,759.4697,762.0345,return,0.1258,,64.71354167,,,,,,FBP-PT-81.png,0.45,1.2,25,0.5,,,,,,,,,,,,,,,,,,0,2,2,24,1,,,,,,,,,,,,,,,,,,,,,,,
,,,,,V3_020,18,female,2024-10-17_16h16.44.073,jersey_experiment_5_v3,2023.2.2,Win32,84.74576271,,,,,,,,,,,,,,,,762.0348,763.5875,763.5876,764.117,return,0.1436,,66.66666667,,,,,,FBP-OG-91.png,0.43,1.2,44,0.75,,,,,,,,,,,,,,,,,,0,3,3,43,1,,,,,,,,,,,,,,,,,,,,,,,
,,,,,V3_020,18,female,2024-10-17_16h16.44.073,jersey_experiment_5_v3,2023.2.2,Win32,84.74576271,,,,,,,,,,,,,,,,764.1171,765.4111,765.4111,766.3993,return,0.11,,50.390625,,,,,,FBP-YG-18.png,0.35,1.2,6,0.5,,,,,,,,,,,,,,,,,,0,4,4,5,1,,,,,,,,,,,,,,,,,,,,,,,
,,,,,V3_020,18,female,2024-10-17_16h16.44.073,jersey_experiment_5_v3,2023.2.2,Win32,84.74576271,,,,,,,,,,,,,,,,766.3995,767.9523,767.9524,769.7642,return,0.1656,,60.41666667,,,,,,FBP-OG-91.png,0.45,1.2,45,0.75,,,,,,,,,,,,,,,,,,0,5,5,44,1,,,,,,,,,,,,,,,,,,,,,,,
,,,,,V3_020,18,female,2024-10-17_16h16.44.073,jersey_experiment_5_v3,2023.2.2,Win32,84.74576271,,,,,,,,,,,,,,,,769.7644,771.3174,771.3175,772.3407,return,0.293,,37.5,,,,,,FBP-OG-71.png,0.35,1.2,31,0.75,,,,,,,,,,,,,,,,,,0,6,6,30,1,,,,,,,,,,,,,,,,,,,,,,,
,,,,,V3_020,18,female,2024-10-17_16h16.44.073,jersey_experiment_5_v3,2023.2.2,Win32,84.74576271,,,,,,,,,,,,,,,,772.3409,773.6349,773.635,774.9058,return,0.1505,,49.73958333,,,,,,FBP-PT-81.png,0.4,1.2,23,0.5,,,,,,,,,,,,,,,,,,0,7,7,22,1,,,,,,,,,,,,,,,,,,,,,,,
,,,,,V3_020,18,female,2024-10-17_16h16.44.073,jersey_experiment_5_v3,2023.2.2,Win32,84.74576271,,,,,,,,,,,,,,,,774.9061,776.1996,776.1997,777.9645,return,0.5006,,85.41666667,,,,,,FBP-RB-91.png,0.43,1.2,59,0.5,,,,,,,,,,,,,,,,,,0,8,8,58,1,,,,,,,,,,,,,,,,,,,,,,,
,,,,,V3_020,18,female,2024-10-17_16h16.44.073,jersey_experiment_5_v3,2023.2.2,Win32,84.74576271,,,,,,,,,,,,,,,,777.9649,779.2585,779.2586,780.7176,return,0.2245,,74.86979167,,,,,,FBP-YG-18.png,0.43,1.2,9,0.5,,,,,,,,,,,,,,,,,,0,9,9,8,1,,,,,,,,,,,,,,,,,,,,,,,
,,,,,V3_020,18,female,2024-10-17_16h16.44.073,jersey_experiment_5_v3,2023.2.2,Win32,84.74576271,,,,,,,,,,,,,,,,780.7178,782.0117,782.0117,782.7411,return,0.2689,,74.86979167,,,,,,FBP-YG-19.png,0.37,1.2,12,0.5,,,,,,,,,,,,,,,,,,0,10,10,11,1,,,,,,,,,,,,,,,,,,,,,,,
,,,,,V3_020,18,female,2024-10-17_16h16.44.073,jersey_experiment_5_v3,2023.2.2,Win32,84.74576271,,,,,,,,,,,,,,,,782.7413,784.0353,784.0354,784.9883,return,0.23,,74.86979167,,,,,,FBP-RB-81.png,0.4,1.2,53,0.5,,,,,,,,,,,,,,,,,,0,11,11,52,1,,,,,,,,,,,,,,,,,,,,,,,
,,,,,V3_020,18,female,2024-10-17_16h16.44.073,jersey_experiment_5_v3,2023.2.2,Win32,84.74576271,,,,,,,,,,,,,,,,784.9884,786.2823,786.2823,787.2354,return,0.2353,,79.81770833,,,,,,FBP-YG-19.png,0.45,1.2,15,0.5,,,,,,,,,,,,,,,,,,0,12,12,14,1,,,,,,,,,,,,,,,,,,,,,,,
,,,,,V3_020,18,female,2024-10-17_16h16.44.073,jersey_experiment_5_v3,2023.2.2,Win32,84.74576271,,,,,,,,,,,,,,,,787.2355,788.5298,788.5298,789.6119,return,0.3126,,64.32291667,,,,,,FBP-RB-81.png,0.37,1.2,52,0.5,,,,,,,,,,,,,,,,,,0,13,13,51,1,,,,,,,,,,,,,,,,,,,,,,,
,,,,,V3_020,18,female,2024-10-17_16h16.44.073,jersey_experiment_5_v3,2023.2.2,Win32,84.74576271,,,,,,,,,,,,,,,,789.6121,790.906,790.9061,792.2591,return,0.1657,,50.13020833,,,,,,FBP-YG-17.png,0.35,1.2,1,0.5,,,,,,,,,,,,,,,,,,0,14,14,0,1,,,,,,,,,,,,,,,,,,,,,,,
,,,,,V3_020,18,female,2024-10-17_16h16.44.073,jersey_experiment_5_v3,2023.2.2,Win32,84.74576271,,,,,,,,,,,,,,,,792.2593,793.8123,793.8123,794.8945,return,0.2277,,64.71354167,,,,,,FBP-OG-71.png,0.4,1.2,33,0.75,,,,,,,,,,,,,,,,,,0,15,15,32,1,,,,,,,,,,,,,,,,,,,,,,,
,,,,,V3_020,18,female,2024-10-17_16h16.44.073,jersey_experiment_5_v3,2023.2.2,Win32,84.74576271,,,,,,,,,,,,,,,,794.8947,796.4475,796.4475,797.2475,return,0.2033,,64.71354167,,,,,,FBP-OG-81.png,0.37,1.2,37,0.75,,,,,,,,,,,,,,,,,,0,16,16,36,1,,,,,,,,,,,,,,,,,,,,,,,
,,,,,V3_020,18,female,2024-10-17_16h16.44.073,jersey_experiment_5_v3,2023.2.2,Win32,84.74576271,,,,,,,,,,,,,,,,797.2478,798.5415,798.5416,799.8242,return,0.2378,,76.30208333,,,,,,FBP-RB-81.png,0.45,1.2,55,0.5,,,,,,,,,,,,,,,,,,0,17,17,54,1,,,,,,,,,,,,,,,,,,,,,,,
,,,,,V3_020,18,female,2024-10-17_16h16.44.073,jersey_experiment_5_v3,2023.2.2,Win32,84.74576271,,,,,,,,,,,,,,,,799.8243,801.3772,801.3772,803.5067,return,1.2254,,76.171875,,,,,,FBP-OG-71.png,0.45,1.2,35,0.75,,,,,,,,,,,,,,,,,,0,18,18,34,1,,,,,,,,,,,,,,,,,,,,,,,
,,,,,V3_020,18,female,2024-10-17_16h16.44.073,jersey_experiment_5_v3,2023.2.2,Win32,84.74576271,,,,,,,,,,,,,,,,803.5068,804.8007,804.8008,807.7538,return,1.7031,,56.11979167,,,,,,FBP-RB-71.png,0.35,1.2,46,0.5,,,,,,,,,,,,,,,,,,0,19,19,45,1,,,,,,,,,,,,,,,,,,,,,,,
,,,,,V3_020,18,female,2024-10-17_16h16.44.073,jersey_experiment_5_v3,2023.2.2,Win32,84.74576271,,,,,,,,,,,,,,,,807.7541,809.3069,809.3069,810.6716,return,0.4501,,74.47916667,,,,,,FBP-OG-81.png,0.43,1.2,39,0.75,,,,,,,,,,,,,,,,,,0,20,20,38,1,,,,,,,,,,,,,,,,,,,,,,,
,,,,,V3_020,18,female,2024-10-17_16h16.44.073,jersey_experiment_5_v3,2023.2.2,Win32,84.74576271,,,,,,,,,,,,,,,,810.6719,811.9659,811.9659,812.9776,return,0.2441,,74.21875,,,,,,FBP-PT-71.png,0.43,1.2,19,0.5,,,,,,,,,,,,,,,,,,0,21,21,18,1,,,,,,,,,,,,,,,,,,,,,,,
,,,,,V3_020,18,female,2024-10-17_16h16.44.073,jersey_experiment_5_v3,2023.2.2,Win32,84.74576271,,,,,,,,,,,,,,,,812.9779,814.2716,814.2716,815.4364,return,0.1687,,49.609375,,,,,,FBP-PT-71.png,0.35,1.2,16,0.5,,,,,,,,,,,,,,,,,,0,22,22,15,1,,,,,,,,,,,,,,,,,,,,,,,
,,,,,V3_020,18,female,2024-10-17_16h16.44.073,jersey_experiment_5_v3,2023.2.2,Win32,84.74576271,,,,,,,,,,,,,,,,815.4365,816.7307,816.7307,817.6838,return,0.15,,57.421875,,,,,,FBP-PT-91.png,0.37,1.2,27,0.5,,,,,,,,,,,,,,,,,,0,23,23,26,1,,,,,,,,,,,,,,,,,,,,,,,
,,,,,V3_020,18,female,2024-10-17_16h16.44.073,jersey_experiment_5_v3,2023.2.2,Win32,84.74576271,,,,,,,,,,,,,,,,817.6842,819.2366,819.2367,820.3307,return,0.0903,,49.47916667,,,,,,FBP-OG-91.png,0.35,1.2,41,0.75,,,,,,,,,,,,,,,,,,0,24,24,40,1,,,,,,,,,,,,,,,,,,,,,,,
,,,,,V3_020,18,female,2024-10-17_16h16.44.073,jersey_experiment_5_v3,2023.2.2,Win32,84.74576271,,,,,,,,,,,,,,,,820.3309,821.6249,821.6249,822.7777,return,0.1927,,43.88020833,,,,,,FBP-PT-81.png,0.35,1.2,21,0.5,,,,,,,,,,,,,,,,,,0,25,25,20,1,,,,,,,,,,,,,,,,,,,,,,,
,,,,,V3_020,18,female,2024-10-17_16h16.44.073,jersey_experiment_5_v3,2023.2.2,Win32,84.74576271,,,,,,,,,,,,,,,,822.7779,824.0721,824.0722,825.4604,return,0.0721,,49.47916667,,,,,,FBP-YG-17.png,0.37,1.2,2,0.5,,,,,,,,,,,,,,,,,,0,26,26,1,1,,,,,,,,,,,,,,,,,,,,,,,
,,,,,V3_020,18,female,2024-10-17_16h16.44.073,jersey_experiment_5_v3,2023.2.2,Win32,84.74576271,,,,,,,,,,,,,,,,825.4606,826.7546,826.7546,828.4016,return,0.2752,,75,,,,,,FBP-PT-91.png,0.43,1.2,29,0.5,,,,,,,,,,,,,,,,,,0,27,27,28,1,,,,,,,,,,,,,,,,,,,,,,,
,,,,,V3_020,18,female,2024-10-17_16h16.44.073,jersey_experiment_5_v3,2023.2.2,Win32,84.74576271,,,,,,,,,,,,,,,,828.4019,829.6958,829.6959,830.684,return,0.1907,,61.58854167,,,,,,FBP-YG-19.png,0.35,1.2,11,0.5,,,,,,,,,,,,,,,,,,0,28,28,10,1,,,,,,,,,,,,,,,,,,,,,,,
,,,,,V3_020,18,female,2024-10-17_16h16.44.073,jersey_experiment_5_v3,2023.2.2,Win32,84.74576271,,,,,,,,,,,,,,,,830.6841,831.9781,831.9782,832.6843,return,0.1904,,61.58854167,,,,,,FBP-YG-19.png,0.4,1.2,13,0.5,,,,,,,,,,,,,,,,,,0,29,29,12,1,,,,,,,,,,,,,,,,,,,,,,,
,,,,,V3_020,18,female,2024-10-17_16h16.44.073,jersey_experiment_5_v3,2023.2.2,Win32,84.74576271,,,,,,,,,,,,,,,,832.6844,834.2372,834.2372,836.2725,return,0.857,,67.1875,,,,,,FBP-OG-91.png,0.4,1.2,43,0.75,,,,,,,,,,,,,,,,,,0,30,30,42,1,,,,,,,,,,,,,,,,,,,,,,,
,,,,,V3_020,18,female,2024-10-17_16h16.44.073,jersey_experiment_5_v3,2023.2.2,Win32,84.74576271,,,,,,,,,,,,,,,,836.2727,837.5666,837.5667,838.8137,return,0.2013,,80.72916667,,,,,,FBP-YG-17.png,0.45,1.2,5,0.5,,,,,,,,,,,,,,,,,,0,31,31,4,1,,,,,,,,,,,,,,,,,,,,,,,
,,,,,V3_020,18,female,2024-10-17_16h16.44.073,jersey_experiment_5_v3,2023.2.2,Win32,84.74576271,,,,,,,,,,,,,,,,838.814,840.3668,840.3668,841.4726,return,0.1664,,65.75520833,,,,,,FBP-OG-91.png,0.37,1.2,42,0.75,,,,,,,,,,,,,,,,,,0,32,32,41,1,,,,,,,,,,,,,,,,,,,,,,,
,,,,,V3_020,18,female,2024-10-17_16h16.44.073,jersey_experiment_5_v3,2023.2.2,Win32,84.74576271,,,,,,,,,,,,,,,,841.4728,842.7668,842.7668,843.4375,return,0.2289,,65.75520833,,,,,,FBP-RB-91.png,0.35,1.2,56,0.5,,,,,,,,,,,,,,,,,,0,33,33,55,1,,,,,,,,,,,,,,,,,,,,,,,
,,,,,V3_020,18,female,2024-10-17_16h16.44.073,jersey_experiment_5_v3,2023.2.2,Win32,84.74576271,,,,,,,,,,,,,,,,843.4377,844.7316,844.7316,845.614,return,0.1223,,78.515625,,,,,,FBP-YG-19.png,0.43,1.2,14,0.5,,,,,,,,,,,,,,,,,,0,34,34,13,1,,,,,,,,,,,,,,,,,,,,,,,
,,,,,V3_020,18,female,2024-10-17_16h16.44.073,jersey_experiment_5_v3,2023.2.2,Win32,84.74576271,,,,,,,,,,,,,,,,845.6141,846.9082,846.9082,848.0258,return,0.1617,,67.05729167,,,,,,FBP-RB-91.png,0.37,1.2,57,0.5,,,,,,,,,,,,,,,,,,0,35,35,56,1,,,,,,,,,,,,,,,,,,,,,,,
,,,,,V3_020,18,female,2024-10-17_16h16.44.073,jersey_experiment_5_v3,2023.2.2,Win32,84.74576271,,,,,,,,,,,,,,,,848.026,849.579,849.579,850.4847,return,0.2119,,75,,,,,,FBP-OG-71.png,0.43,1.2,34,0.75,,,,,,,,,,,,,,,,,,0,36,36,33,1,,,,,,,,,,,,,,,,,,,,,,,
,,,,,V3_020,18,female,2024-10-17_16h16.44.073,jersey_experiment_5_v3,2023.2.2,Win32,84.74576271,,,,,,,,,,,,,,,,850.4849,851.779,851.7791,852.7672,return,0.1521,,82.29166667,,,,,,FBP-RB-91.png,0.45,1.2,60,0.5,,,,,,,,,,,,,,,,,,0,37,37,59,1,,,,,,,,,,,,,,,,,,,,,,,
,,,,,V3_020,18,female,2024-10-17_16h16.44.073,jersey_experiment_5_v3,2023.2.2,Win32,84.74576271,,,,,,,,,,,,,,,,852.7673,854.0614,854.0614,855.4026,return,0.1568,,69.921875,,,,,,FBP-PT-71.png,0.37,1.2,17,0.5,,,,,,,,,,,,,,,,,,0,38,38,16,1,,,,,,,,,,,,,,,,,,,,,,,
,,,,,V3_020,18,female,2024-10-17_16h16.44.073,jersey_experiment_5_v3,2023.2.2,Win32,84.74576271,,,,,,,,,,,,,,,,855.4029,856.6968,856.6968,857.6145,return,0.1061,,63.671875,,,,,,FBP-YG-18.png,0.4,1.2,8,0.5,,,,,,,,,,,,,,,,,,0,39,39,7,1,,,,,,,,,,,,,,,,,,,,,,,
,,,,,V3_020,18,female,2024-10-17_16h16.44.073,jersey_experiment_5_v3,2023.2.2,Win32,84.74576271,,,,,,,,,,,,,,,,857.6147,858.9086,858.9086,859.7793,return,0.1412,,67.83854167,,,,,,FBP-RB-71.png,0.43,1.2,49,0.5,,,,,,,,,,,,,,,,,,0,40,40,48,1,,,,,,,,,,,,,,,,,,,,,,,
,,,,,V3_020,18,female,2024-10-17_16h16.44.073,jersey_experiment_5_v3,2023.2.2,Win32,84.74576271,,,,,,,,,,,,,,,,859.7795,861.0736,861.0736,862.497,return,0.2487,,67.1875,,,,,,FBP-RB-71.png,0.4,1.2,48,0.5,,,,,,,,,,,,,,,,,,0,41,41,47,1,,,,,,,,,,,,,,,,,,,,,,,
,,,,,V3_020,18,female,2024-10-17_16h16.44.073,jersey_experiment_5_v3,2023.2.2,Win32,84.74576271,,,,,,,,,,,,,,,,862.4973,864.0502,864.0502,864.9558,return,0.1809,,75.78125,,,,,,FBP-OG-81.png,0.45,1.2,40,0.75,,,,,,,,,,,,,,,,,,0,42,42,39,1,,,,,,,,,,,,,,,,,,,,,,,
,,,,,V3_020,18,female,2024-10-17_16h16.44.073,jersey_experiment_5_v3,2023.2.2,Win32,84.74576271,,,,,,,,,,,,,,,,864.956,866.25,866.2501,867.4266,return,0.0941,,70.3125,,,,,,FBP-YG-18.png,0.45,1.2,10,0.5,,,,,,,,,,,,,,,,,,0,43,43,9,1,,,,,,,,,,,,,,,,,,,,,,,
,,,,,V3_020,18,female,2024-10-17_16h16.44.073,jersey_experiment_5_v3,2023.2.2,Win32,84.74576271,,,,,,,,,,,,,,,,867.4269,868.7208,868.7209,870.2855,return,0.1919,,57.421875,,,,,,FBP-RB-81.png,0.35,1.2,51,0.5,,,,,,,,,,,,,,,,,,0,44,44,50,1,,,,,,,,,,,,,,,,,,,,,,,
,,,,,V3_020,18,female,2024-10-17_16h16.44.073,jersey_experiment_5_v3,2023.2.2,Win32,84.74576271,,,,,,,,,,,,,,,,870.2857,871.5797,871.5798,872.5093,return,0.1234,,75.13020833,,,,,,FBP-PT-91.png,0.45,1.2,30,0.5,,,,,,,,,,,,,,,,,,0,45,45,29,1,,,,,,,,,,,,,,,,,,,,,,,
,,,,,V3_020,18,female,2024-10-17_16h16.44.073,jersey_experiment_5_v3,2023.2.2,Win32,84.74576271,,,,,,,,,,,,,,,,872.5096,873.8033,873.8034,874.5562,return,0.3445,,72.52604167,,,,,,FBP-PT-71.png,0.4,1.2,18,0.5,,,,,,,,,,,,,,,,,,0,46,46,17,1,,,,,,,,,,,,,,,,,,,,,,,
,,,,,V3_020,18,female,2024-10-17_16h16.44.073,jersey_experiment_5_v3,2023.2.2,Win32,84.74576271,,,,,,,,,,,,,,,,874.5565,875.8505,875.8505,876.7799,return,0.2147,,50,,,,,,FBP-RB-71.png,0.37,1.2,47,0.5,,,,,,,,,,,,,,,,,,0,47,47,46,1,,,,,,,,,,,,,,,,,,,,,,,
,,,,,V3_020,18,female,2024-10-17_16h16.44.073,jersey_experiment_5_v3,2023.2.2,Win32,84.74576271,,,,,,,,,,,,,,,,876.7801,878.0741,878.0741,879.0387,return,0.1339,,49.47916667,,,,,,FBP-RB-81.png,0.43,1.2,54,0.5,,,,,,,,,,,,,,,,,,0,48,48,53,1,,,,,,,,,,,,,,,,,,,,,,,
,,,,,V3_020,18,female,2024-10-17_16h16.44.073,jersey_experiment_5_v3,2023.2.2,Win32,84.74576271,,,,,,,,,,,,,,,,879.0389,880.592,880.592,881.6037,return,0.1638,,36.97916667,,,,,,FBP-OG-81.png,0.35,1.2,36,0.75,,,,,,,,,,,,,,,,,,0,49,49,35,1,,,,,,,,,,,,,,,,,,,,,,,
,,,,,V3_020,18,female,2024-10-17_16h16.44.073,jersey_experiment_5_v3,2023.2.2,Win32,84.74576271,,,,,,,,,,,,,,,,881.6038,882.8977,882.8978,884.0508,return,0.1572,,50.390625,,,,,,FBP-PT-91.png,0.4,1.2,28,0.5,,,,,,,,,,,,,,,,,,0,50,50,27,1,,,,,,,,,,,,,,,,,,,,,,,
,,,,,V3_020,18,female,2024-10-17_16h16.44.073,jersey_experiment_5_v3,2023.2.2,Win32,84.74576271,,,,,,,,,,,,,,,,884.0509,885.3449,885.3449,886.1332,return,0.1647,,49.73958333,,,,,,FBP-YG-18.png,0.37,1.2,7,0.5,,,,,,,,,,,,,,,,,,0,51,51,6,1,,,,,,,,,,,,,,,,,,,,,,,
,,,,,V3_020,18,female,2024-10-17_16h16.44.073,jersey_experiment_5_v3,2023.2.2,Win32,84.74576271,,,,,,,,,,,,,,,,886.1334,887.4273,887.4273,888.0156,return,0.1679,,49.73958333,,,,,,FBP-PT-91.png,0.35,1.2,26,0.5,,,,,,,,,,,,,,,,,,0,52,52,25,1,,,,,,,,,,,,,,,,,,,,,,,
,,,,,V3_020,18,female,2024-10-17_16h16.44.073,jersey_experiment_5_v3,2023.2.2,Win32,84.74576271,,,,,,,,,,,,,,,,888.016,889.5686,889.5686,890.4628,return,0.1299,,36.84895833,,,,,,FBP-OG-71.png,0.37,1.2,32,0.75,,,,,,,,,,,,,,,,,,0,53,53,31,1,,,,,,,,,,,,,,,,,,,,,,,
,,,,,V3_020,18,female,2024-10-17_16h16.44.073,jersey_experiment_5_v3,2023.2.2,Win32,84.74576271,,,,,,,,,,,,,,,,890.4629,891.7569,891.757,893.7805,return,0.1516,,53.77604167,,,,,,FBP-YG-17.png,0.43,1.2,4,0.5,,,,,,,,,,,,,,,,,,0,54,54,3,1,,,,,,,,,,,,,,,,,,,,,,,
,,,,,V3_020,18,female,2024-10-17_16h16.44.073,jersey_experiment_5_v3,2023.2.2,Win32,84.74576271,,,,,,,,,,,,,,,,893.7808,895.0748,895.0749,896.1099,return,0.1796,,63.28125,,,,,,FBP-PT-71.png,0.45,1.2,20,0.5,,,,,,,,,,,,,,,,,,0,55,55,19,1,,,,,,,,,,,,,,,,,,,,,,,
,,,,,V3_020,18,female,2024-10-17_16h16.44.073,jersey_experiment_5_v3,2023.2.2,Win32,84.74576271,,,,,,,,,,,,,,,,896.1102,897.663,897.663,898.1218,return,0.1693,,63.28125,,,,,,FBP-OG-81.png,0.4,1.2,38,0.75,,,,,,,,,,,,,,,,,,0,56,56,37,1,,,,,,,,,,,,,,,,,,,,,,,
,,,,,V3_020,18,female,2024-10-17_16h16.44.073,jersey_experiment_5_v3,2023.2.2,Win32,84.74576271,,,,,,,,,,,,,,,,898.122,899.4159,899.416,901.6984,return,0.2978,,75.13020833,,,,,,FBP-RB-71.png,0.45,1.2,50,0.5,,,,,,,,,,,,,,,,,,0,57,57,49,1,,,,,,,,,,,,,,,,,,,,,,,
,,,,,V3_020,18,female,2024-10-17_16h16.44.073,jersey_experiment_5_v3,2023.2.2,Win32,84.74576271,,,,,,,,,,,,,,,,901.6986,902.9925,902.9926,904.4986,return,0.1678,,63.671875,,,,,,FBP-RB-91.png,0.4,1.2,58,0.5,,,,,,,,,,,,,,,,,,0,58,58,57,1,,,,,,,,,,,,,,,,,,,,,,,
,,,,,V3_020,18,female,2024-10-17_16h16.44.073,jersey_experiment_5_v3,2023.2.2,Win32,84.74576271,,,,,,,,,,,,,,,,904.4988,905.7927,905.7927,906.734,return,0.1806,,75.13020833,,,,,,FBP-PT-81.png,0.43,1.2,24,0.5,,,,,,,,,,,,,,,,,,0,59,59,23,1,,,,,,,,,,,,,,,,,,,,,,,
,,,,,V3_020,18,female,2024-10-17_16h16.44.073,jersey_experiment_5_v3,2023.2.2,Win32,84.74576271,,,,,,,,,,,,,,,,,,,,,,,,,,,,,,,,,,,,,,,,,,,,,,,,,,,,,,,,906.7342,916.6522,return,9.9117,,,,,,,,,,,,,,,,,,,
,,,,,V3_020,18,female,2024-10-17_16h16.44.073,jersey_experiment_5_v3,2023.2.2,Win32,84.74576271,,,,,,,,,,,,,,,,,,,,,,,,,,,,,,,,,,,,,,,,,,,,,,,,,,,,,,,,,,,,,916.6523,921.9465,1,4.029,return,1.255,,,,,,,,,,,,
,,,,,V3_020,18,female,2024-10-17_16h16.44.073,jersey_experiment_5_v3,2023.2.2,Win32,84.74576271,,,,,,,,,,,,,,,,,,,,,,,,,,,,,,,,,,,,,,,,,,,,,,,,,,,,,,,,,,,,,,,,,,,,921.9465,984.2436,comparing size recognition between people who wear different colors and/or are different race. perception.,right,54.4618,,,,,,
,,,,,V3_020,18,female,2024-10-17_16h16.44.073,jersey_experiment_5_v3,2023.2.2,Win32,84.74576271,,,,,,,,,,,,,,,,,,,,,,,,,,,,,,,,,,,,,,,,,,,,,,,,,,,,,,,,,,,,,,,,,,,,,,,,,,984.2437,988.4194,return,4.1623,