requirements.started,requirements.stopped,key_resp_3.keys,key_resp_3.rt,key_resp_3.duration,Subject ID,Age,Gender,date,expName,psychopyVersion,OS,frameRate,instructions1.started,instructions1.stopped,key_resp.keys,key_resp.rt,key_resp.duration,example.started,example.stopped,enter_2.keys,enter_2.rt,enter_2.duration,instructions2.started,instructions2.stopped,enter_3.keys,enter_3.rt,enter_3.duration,image.started,image.stopped,slider_2.started,slider_2.stopped,next.keys,next.rt,next.duration,slider.response,trial_block_1.thisRepN,trial_block_1.thisTrialN,trial_block_1.thisN,trial_block_1.thisIndex,trial_block_1.ran,Path,Width,Height,Index,Duration,trial_block_2.thisRepN,trial_block_2.thisTrialN,trial_block_2.thisN,trial_block_2.thisIndex,trial_block_2.ran,rest_break.started,rest_break.stopped,end_break.started,end_break.stopped,key_resp_5.keys,key_resp_5.rt,key_resp_5.duration,trial_block_3.thisRepN,trial_block_3.thisTrialN,trial_block_3.thisN,trial_block_3.thisIndex,trial_block_3.ran,trial_block_4.thisRepN,trial_block_4.thisTrialN,trial_block_4.thisN,trial_block_4.thisIndex,trial_block_4.ran,questions_intro.started,questions_intro.stopped,enter_12.keys,enter_12.rt,enter_12.duration,question2.started,question2.stopped,question_doingbest.response,question_doingbest.rt,enter_15.keys,enter_15.rt,enter_15.duration,pattern.started,pattern.stopped,pattern_2.text,enter_17.keys,enter_17.rt,enter_17.duration,thankyou.started,thankyou.stopped,enter_14.keys,enter_14.rt,enter_14.duration
0,17.417,return,17.4074,,V3_041,18,Female,2024-10-30_16h06.07.309,jersey_experiment_5_v3,2023.2.2,Win32,84.74576271,,,,,,,,,,,,,,,,,,,,,,,,,,,,,,,,,,,,,,,,,,,,,,,,,,,,,,,,,,,,,,,,,,,,,,,,,,,,,,
,,,,,V3_041,18,Female,2024-10-30_16h06.07.309,jersey_experiment_5_v3,2023.2.2,Win32,84.74576271,17.4171,27.4439,return,10.0092,,,,,,,,,,,,,,,,,,,,,,,,,,,,,,,,,,,,,,,,,,,,,,,,,,,,,,,,,,,,,,,,,,,,,,,,,,
,,,,,V3_041,18,Female,2024-10-30_16h06.07.309,jersey_experiment_5_v3,2023.2.2,Win32,84.74576271,,,,,,27.4439,36.2647,return,8.7835,,,,,,,,,,,,,,,,,,,,,,,,,,,,,,,,,,,,,,,,,,,,,,,,,,,,,,,,,,,,,,,,,,,,,
,,,,,V3_041,18,Female,2024-10-30_16h06.07.309,jersey_experiment_5_v3,2023.2.2,Win32,84.74576271,,,,,,,,,,,36.2649,62.0538,return,25.7803,,,,,,,,,,,,,,,,,,,,,,,,,,,,,,,,,,,,,,,,,,,,,,,,,,,,,,,,,,,,,,,,
,,,,,V3_041,18,Female,2024-10-30_16h06.07.309,jersey_experiment_5_v3,2023.2.2,Win32,84.74576271,,,,,,,,,,,,,,,,62.0557,63.6072,63.6073,81.8192,return,2.1798,,74.86979167,0,0,0,58,1,FBP-RB-19.png,0.43,1.2,59,0.75,,,,,,,,,,,,,,,,,,,,,,,,,,,,,,,,,,,,,,,,,,,,,
,,,,,V3_041,18,Female,2024-10-30_16h06.07.309,jersey_experiment_5_v3,2023.2.2,Win32,84.74576271,,,,,,,,,,,,,,,,81.8195,83.3722,83.3722,85.9604,return,0.873,,75.26041667,0,1,1,59,1,FBP-RB-19.png,0.45,1.2,60,0.75,,,,,,,,,,,,,,,,,,,,,,,,,,,,,,,,,,,,,,,,,,,,,
,,,,,V3_041,18,Female,2024-10-30_16h06.07.309,jersey_experiment_5_v3,2023.2.2,Win32,84.74576271,,,,,,,,,,,,,,,,85.9608,87.5134,87.5135,91.443,return,1.0773,,75.390625,0,2,2,53,1,FBP-RB-18.png,0.43,1.2,54,0.75,,,,,,,,,,,,,,,,,,,,,,,,,,,,,,,,,,,,,,,,,,,,,
,,,,,V3_041,18,Female,2024-10-30_16h06.07.309,jersey_experiment_5_v3,2023.2.2,Win32,84.74576271,,,,,,,,,,,,,,,,91.4432,92.9962,92.9962,98.3727,return,2.7436,,49.47916667,0,3,3,27,1,FBP-PT-19.png,0.4,1.2,28,0.75,,,,,,,,,,,,,,,,,,,,,,,,,,,,,,,,,,,,,,,,,,,,,
,,,,,V3_041,18,Female,2024-10-30_16h06.07.309,jersey_experiment_5_v3,2023.2.2,Win32,84.74576271,,,,,,,,,,,,,,,,98.373,99.9256,99.9257,103.6552,return,2.2497,,49.47916667,0,4,4,48,1,FBP-RB-17.png,0.43,1.2,49,0.75,,,,,,,,,,,,,,,,,,,,,,,,,,,,,,,,,,,,,,,,,,,,,
,,,,,V3_041,18,Female,2024-10-30_16h06.07.309,jersey_experiment_5_v3,2023.2.2,Win32,84.74576271,,,,,,,,,,,,,,,,103.6555,105.2082,105.2082,109.0789,return,1.156,,24.73958333,0,5,5,55,1,FBP-RB-19.png,0.35,1.2,56,0.75,,,,,,,,,,,,,,,,,,,,,,,,,,,,,,,,,,,,,,,,,,,,,
,,,,,V3_041,18,Female,2024-10-30_16h06.07.309,jersey_experiment_5_v3,2023.2.2,Win32,84.74576271,,,,,,,,,,,,,,,,109.0791,110.6319,110.632,114.4085,return,1.2152,,99.609375,0,6,6,19,1,FBP-PT-17.png,0.45,1.2,20,0.75,,,,,,,,,,,,,,,,,,,,,,,,,,,,,,,,,,,,,,,,,,,,,
,,,,,V3_041,18,Female,2024-10-30_16h06.07.309,jersey_experiment_5_v3,2023.2.2,Win32,84.74576271,,,,,,,,,,,,,,,,114.4087,115.9615,115.9616,120.4088,return,1.0826,,49.86979167,0,7,7,5,1,FBP-YG-81.png,0.35,1.2,6,0.75,,,,,,,,,,,,,,,,,,,,,,,,,,,,,,,,,,,,,,,,,,,,,
,,,,,V3_041,18,Female,2024-10-30_16h06.07.309,jersey_experiment_5_v3,2023.2.2,Win32,84.74576271,,,,,,,,,,,,,,,,120.4093,121.9616,121.9617,125.1384,return,1.0153,,99.08854167,0,8,8,9,1,FBP-YG-81.png,0.45,1.2,10,0.75,,,,,,,,,,,,,,,,,,,,,,,,,,,,,,,,,,,,,,,,,,,,,
,,,,,V3_041,18,Female,2024-10-30_16h06.07.309,jersey_experiment_5_v3,2023.2.2,Win32,84.74576271,,,,,,,,,,,,,,,,125.1386,126.4325,126.4326,128.6797,return,0.9672,,98.95833333,0,9,9,44,1,FBP-OG-19.png,0.45,1.2,45,0.5,,,,,,,,,,,,,,,,,,,,,,,,,,,,,,,,,,,,,,,,,,,,,
,,,,,V3_041,18,Female,2024-10-30_16h06.07.309,jersey_experiment_5_v3,2023.2.2,Win32,84.74576271,,,,,,,,,,,,,,,,128.6799,130.2328,130.2328,133.9269,return,0.8033,,74.86979167,0,10,10,1,1,FBP-YG-71.png,0.37,1.2,2,0.75,,,,,,,,,,,,,,,,,,,,,,,,,,,,,,,,,,,,,,,,,,,,,
,,,,,V3_041,18,Female,2024-10-30_16h06.07.309,jersey_experiment_5_v3,2023.2.2,Win32,84.74576271,,,,,,,,,,,,,,,,133.9272,135.4799,135.48,137.3976,return,0.769,,74.86979167,0,11,11,3,1,FBP-YG-71.png,0.43,1.2,4,0.75,,,,,,,,,,,,,,,,,,,,,,,,,,,,,,,,,,,,,,,,,,,,,
,,,,,V3_041,18,Female,2024-10-30_16h06.07.309,jersey_experiment_5_v3,2023.2.2,Win32,84.74576271,,,,,,,,,,,,,,,,137.3978,138.6918,138.6918,141.9271,return,1.1648,,98.56770833,0,12,12,39,1,FBP-OG-18.png,0.45,1.2,40,0.5,,,,,,,,,,,,,,,,,,,,,,,,,,,,,,,,,,,,,,,,,,,,,
,,,,,V3_041,18,Female,2024-10-30_16h06.07.309,jersey_experiment_5_v3,2023.2.2,Win32,84.74576271,,,,,,,,,,,,,,,,141.9274,143.2214,143.2214,145.6331,return,1.2677,,95.18229167,0,13,13,43,1,FBP-OG-19.png,0.43,1.2,44,0.5,,,,,,,,,,,,,,,,,,,,,,,,,,,,,,,,,,,,,,,,,,,,,
,,,,,V3_041,18,Female,2024-10-30_16h06.07.309,jersey_experiment_5_v3,2023.2.2,Win32,84.74576271,,,,,,,,,,,,,,,,145.6335,146.9274,146.9275,149.057,return,1.0445,,79.42708333,0,14,14,37,1,FBP-OG-18.png,0.4,1.2,38,0.5,,,,,,,,,,,,,,,,,,,,,,,,,,,,,,,,,,,,,,,,,,,,,
,,,,,V3_041,18,Female,2024-10-30_16h06.07.309,jersey_experiment_5_v3,2023.2.2,Win32,84.74576271,,,,,,,,,,,,,,,,149.0573,150.6099,150.61,152.5511,return,0.731,,57.421875,0,15,15,12,1,FBP-YG-91.png,0.4,1.2,13,0.75,,,,,,,,,,,,,,,,,,,,,,,,,,,,,,,,,,,,,,,,,,,,,
,,,,,V3_041,18,Female,2024-10-30_16h06.07.309,jersey_experiment_5_v3,2023.2.2,Win32,84.74576271,,,,,,,,,,,,,,,,152.5514,154.1041,154.1041,156.5984,return,1.1786,,74.609375,0,16,16,23,1,FBP-PT-18.png,0.43,1.2,24,0.75,,,,,,,,,,,,,,,,,,,,,,,,,,,,,,,,,,,,,,,,,,,,,
,,,,,V3_041,18,Female,2024-10-30_16h06.07.309,jersey_experiment_5_v3,2023.2.2,Win32,84.74576271,,,,,,,,,,,,,,,,156.5987,158.1513,158.1514,160.2807,return,0.9894,,35.15625,0,17,17,26,1,FBP-PT-19.png,0.37,1.2,27,0.75,,,,,,,,,,,,,,,,,,,,,,,,,,,,,,,,,,,,,,,,,,,,,
,,,,,V3_041,18,Female,2024-10-30_16h06.07.309,jersey_experiment_5_v3,2023.2.2,Win32,84.74576271,,,,,,,,,,,,,,,,160.2809,161.8221,161.8222,164.7869,return,0.7485,,62.109375,0,18,18,17,1,FBP-PT-17.png,0.4,1.2,18,0.75,,,,,,,,,,,,,,,,,,,,,,,,,,,,,,,,,,,,,,,,,,,,,
,,,,,V3_041,18,Female,2024-10-30_16h06.07.309,jersey_experiment_5_v3,2023.2.2,Win32,84.74576271,,,,,,,,,,,,,,,,164.7872,166.3398,166.3398,168.8693,return,0.9774,,32.16145833,0,19,19,11,1,FBP-YG-91.png,0.37,1.2,12,0.75,,,,,,,,,,,,,,,,,,,,,,,,,,,,,,,,,,,,,,,,,,,,,
,,,,,V3_041,18,Female,2024-10-30_16h06.07.309,jersey_experiment_5_v3,2023.2.2,Win32,84.74576271,,,,,,,,,,,,,,,,168.8696,170.4223,170.4224,173.6694,return,1.0397,,98.828125,0,20,20,4,1,FBP-YG-71.png,0.45,1.2,5,0.75,,,,,,,,,,,,,,,,,,,,,,,,,,,,,,,,,,,,,,,,,,,,,
,,,,,V3_041,18,Female,2024-10-30_16h06.07.309,jersey_experiment_5_v3,2023.2.2,Win32,84.74576271,,,,,,,,,,,,,,,,173.6697,175.2225,175.2225,178.2578,return,0.8418,,49.609375,0,21,21,57,1,FBP-RB-19.png,0.4,1.2,58,0.75,,,,,,,,,,,,,,,,,,,,,,,,,,,,,,,,,,,,,,,,,,,,,
,,,,,V3_041,18,Female,2024-10-30_16h06.07.309,jersey_experiment_5_v3,2023.2.2,Win32,84.74576271,,,,,,,,,,,,,,,,178.2581,179.8109,179.8109,183.7053,return,0.8493,,56.640625,0,22,22,52,1,FBP-RB-18.png,0.4,1.2,53,0.75,,,,,,,,,,,,,,,,,,,,,,,,,,,,,,,,,,,,,,,,,,,,,
,,,,,V3_041,18,Female,2024-10-30_16h06.07.309,jersey_experiment_5_v3,2023.2.2,Win32,84.74576271,,,,,,,,,,,,,,,,183.7055,185.2581,185.2581,188.0111,return,1.4136,,57.29166667,0,23,23,6,1,FBP-YG-81.png,0.37,1.2,7,0.75,,,,,,,,,,,,,,,,,,,,,,,,,,,,,,,,,,,,,,,,,,,,,
,,,,,V3_041,18,Female,2024-10-30_16h06.07.309,jersey_experiment_5_v3,2023.2.2,Win32,84.74576271,,,,,,,,,,,,,,,,188.0114,189.5642,189.5643,192.4232,return,0.8817,,24.34895833,0,24,24,20,1,FBP-PT-18.png,0.35,1.2,21,0.75,,,,,,,,,,,,,,,,,,,,,,,,,,,,,,,,,,,,,,,,,,,,,
,,,,,V3_041,18,Female,2024-10-30_16h06.07.309,jersey_experiment_5_v3,2023.2.2,Win32,84.74576271,,,,,,,,,,,,,,,,192.4235,193.9761,193.9762,197.1409,return,1.4994,,58.85416667,0,25,25,7,1,FBP-YG-81.png,0.4,1.2,8,0.75,,,,,,,,,,,,,,,,,,,,,,,,,,,,,,,,,,,,,,,,,,,,,
,,,,,V3_041,18,Female,2024-10-30_16h06.07.309,jersey_experiment_5_v3,2023.2.2,Win32,84.74576271,,,,,,,,,,,,,,,,197.1412,198.694,198.694,201.7059,return,0.9172,,38.28125,0,26,26,25,1,FBP-PT-19.png,0.35,1.2,26,0.75,,,,,,,,,,,,,,,,,,,,,,,,,,,,,,,,,,,,,,,,,,,,,
,,,,,V3_041,18,Female,2024-10-30_16h06.07.309,jersey_experiment_5_v3,2023.2.2,Win32,84.74576271,,,,,,,,,,,,,,,,201.7062,203.2588,203.2588,211.4945,return,2.0494,,63.15104167,0,27,27,56,1,FBP-RB-19.png,0.37,1.2,57,0.75,,,,,,,,,,,,,,,,,,,,,,,,,,,,,,,,,,,,,,,,,,,,,
,,,,,V3_041,18,Female,2024-10-30_16h06.07.309,jersey_experiment_5_v3,2023.2.2,Win32,84.74576271,,,,,,,,,,,,,,,,211.4948,213.0475,213.0475,215.7298,return,0.8669,,99.609375,0,28,28,24,1,FBP-PT-18.png,0.45,1.2,25,0.75,,,,,,,,,,,,,,,,,,,,,,,,,,,,,,,,,,,,,,,,,,,,,
,,,,,V3_041,18,Female,2024-10-30_16h06.07.309,jersey_experiment_5_v3,2023.2.2,Win32,84.74576271,,,,,,,,,,,,,,,,215.7301,217.2829,217.2829,220.5301,return,1.1494,,74.86979167,0,29,29,47,1,FBP-RB-17.png,0.4,1.2,48,0.75,,,,,,,,,,,,,,,,,,,,,,,,,,,,,,,,,,,,,,,,,,,,,
,,,,,V3_041,18,Female,2024-10-30_16h06.07.309,jersey_experiment_5_v3,2023.2.2,Win32,84.74576271,,,,,,,,,,,,,,,,220.5304,222.0832,222.0832,224.3067,return,0.5797,,86.58854167,0,30,30,13,1,FBP-YG-91.png,0.43,1.2,14,0.75,,,,,,,,,,,,,,,,,,,,,,,,,,,,,,,,,,,,,,,,,,,,,
,,,,,V3_041,18,Female,2024-10-30_16h06.07.309,jersey_experiment_5_v3,2023.2.2,Win32,84.74576271,,,,,,,,,,,,,,,,224.307,225.8596,225.8596,227.6834,return,0.5912,,99.47916667,0,31,31,54,1,FBP-RB-18.png,0.45,1.2,55,0.75,,,,,,,,,,,,,,,,,,,,,,,,,,,,,,,,,,,,,,,,,,,,,
,,,,,V3_041,18,Female,2024-10-30_16h06.07.309,jersey_experiment_5_v3,2023.2.2,Win32,84.74576271,,,,,,,,,,,,,,,,227.6836,228.9775,228.9775,230.5777,return,0.9247,,99.47916667,0,32,32,34,1,FBP-OG-17.png,0.45,1.2,35,0.5,,,,,,,,,,,,,,,,,,,,,,,,,,,,,,,,,,,,,,,,,,,,,
,,,,,V3_041,18,Female,2024-10-30_16h06.07.309,jersey_experiment_5_v3,2023.2.2,Win32,84.74576271,,,,,,,,,,,,,,,,230.5779,231.8715,231.8716,235.307,return,1.3891,,99.47916667,0,33,33,38,1,FBP-OG-18.png,0.43,1.2,39,0.5,,,,,,,,,,,,,,,,,,,,,,,,,,,,,,,,,,,,,,,,,,,,,
,,,,,V3_041,18,Female,2024-10-30_16h06.07.309,jersey_experiment_5_v3,2023.2.2,Win32,84.74576271,,,,,,,,,,,,,,,,235.3073,236.8599,236.86,239.7545,return,0.6723,,97.13541667,0,34,34,28,1,FBP-PT-19.png,0.43,1.2,29,0.75,,,,,,,,,,,,,,,,,,,,,,,,,,,,,,,,,,,,,,,,,,,,,
,,,,,V3_041,18,Female,2024-10-30_16h06.07.309,jersey_experiment_5_v3,2023.2.2,Win32,84.74576271,,,,,,,,,,,,,,,,239.7548,241.3073,241.3073,242.9661,return,0.6725,,92.70833333,0,35,35,18,1,FBP-PT-17.png,0.43,1.2,19,0.75,,,,,,,,,,,,,,,,,,,,,,,,,,,,,,,,,,,,,,,,,,,,,
,,,,,V3_041,18,Female,2024-10-30_16h06.07.309,jersey_experiment_5_v3,2023.2.2,Win32,84.74576271,,,,,,,,,,,,,,,,242.9663,244.5192,244.5193,246.6839,return,0.7399,,75,0,36,36,22,1,FBP-PT-18.png,0.4,1.2,23,0.75,,,,,,,,,,,,,,,,,,,,,,,,,,,,,,,,,,,,,,,,,,,,,
,,,,,V3_041,18,Female,2024-10-30_16h06.07.309,jersey_experiment_5_v3,2023.2.2,Win32,84.74576271,,,,,,,,,,,,,,,,246.6843,248.237,248.2371,251.0959,return,1.1557,,24.86979167,0,37,37,10,1,FBP-YG-91.png,0.35,1.2,11,0.75,,,,,,,,,,,,,,,,,,,,,,,,,,,,,,,,,,,,,,,,,,,,,
,,,,,V3_041,18,Female,2024-10-30_16h06.07.309,jersey_experiment_5_v3,2023.2.2,Win32,84.74576271,,,,,,,,,,,,,,,,251.0963,252.6488,252.6488,256.1784,return,0.7358,,24.73958333,0,38,38,50,1,FBP-RB-18.png,0.35,1.2,51,0.75,,,,,,,,,,,,,,,,,,,,,,,,,,,,,,,,,,,,,,,,,,,,,
,,,,,V3_041,18,Female,2024-10-30_16h06.07.309,jersey_experiment_5_v3,2023.2.2,Win32,84.74576271,,,,,,,,,,,,,,,,256.1787,257.7314,257.7314,260.5669,return,0.626,,49.86979167,0,39,39,2,1,FBP-YG-71.png,0.4,1.2,3,0.75,,,,,,,,,,,,,,,,,,,,,,,,,,,,,,,,,,,,,,,,,,,,,
,,,,,V3_041,18,Female,2024-10-30_16h06.07.309,jersey_experiment_5_v3,2023.2.2,Win32,84.74576271,,,,,,,,,,,,,,,,260.5671,262.1198,262.1199,263.4963,return,0.5403,,49.86979167,0,40,40,21,1,FBP-PT-18.png,0.37,1.2,22,0.75,,,,,,,,,,,,,,,,,,,,,,,,,,,,,,,,,,,,,,,,,,,,,
,,,,,V3_041,18,Female,2024-10-30_16h06.07.309,jersey_experiment_5_v3,2023.2.2,Win32,84.74576271,,,,,,,,,,,,,,,,263.4967,265.0493,265.0493,268.3905,return,0.7546,,37.36979167,0,41,41,51,1,FBP-RB-18.png,0.37,1.2,52,0.75,,,,,,,,,,,,,,,,,,,,,,,,,,,,,,,,,,,,,,,,,,,,,
,,,,,V3_041,18,Female,2024-10-30_16h06.07.309,jersey_experiment_5_v3,2023.2.2,Win32,84.74576271,,,,,,,,,,,,,,,,268.3908,269.6847,269.6848,271.8495,return,0.6505,,24.86979167,0,42,42,40,1,FBP-OG-19.png,0.35,1.2,41,0.5,,,,,,,,,,,,,,,,,,,,,,,,,,,,,,,,,,,,,,,,,,,,,
,,,,,V3_041,18,Female,2024-10-30_16h06.07.309,jersey_experiment_5_v3,2023.2.2,Win32,84.74576271,,,,,,,,,,,,,,,,271.8498,273.1437,273.1438,274.5673,return,0.5907,,24.86979167,0,43,43,35,1,FBP-OG-18.png,0.35,1.2,36,0.5,,,,,,,,,,,,,,,,,,,,,,,,,,,,,,,,,,,,,,,,,,,,,
,,,,,V3_041,18,Female,2024-10-30_16h06.07.309,jersey_experiment_5_v3,2023.2.2,Win32,84.74576271,,,,,,,,,,,,,,,,274.5676,276.1203,276.1204,278.7793,return,0.7158,,24.86979167,0,44,44,15,1,FBP-PT-17.png,0.35,1.2,16,0.75,,,,,,,,,,,,,,,,,,,,,,,,,,,,,,,,,,,,,,,,,,,,,
,,,,,V3_041,18,Female,2024-10-30_16h06.07.309,jersey_experiment_5_v3,2023.2.2,Win32,84.74576271,,,,,,,,,,,,,,,,278.7796,280.3323,280.3324,282.9323,return,0.7232,,74.86979167,0,45,45,8,1,FBP-YG-81.png,0.43,1.2,9,0.75,,,,,,,,,,,,,,,,,,,,,,,,,,,,,,,,,,,,,,,,,,,,,
,,,,,V3_041,18,Female,2024-10-30_16h06.07.309,jersey_experiment_5_v3,2023.2.2,Win32,84.74576271,,,,,,,,,,,,,,,,282.9326,284.4852,284.4852,286.6031,return,0.696,,24.609375,0,46,46,16,1,FBP-PT-17.png,0.37,1.2,17,0.75,,,,,,,,,,,,,,,,,,,,,,,,,,,,,,,,,,,,,,,,,,,,,
,,,,,V3_041,18,Female,2024-10-30_16h06.07.309,jersey_experiment_5_v3,2023.2.2,Win32,84.74576271,,,,,,,,,,,,,,,,286.6035,288.1564,288.1564,291.1443,return,0.7428,,99.34895833,0,47,47,49,1,FBP-RB-17.png,0.45,1.2,50,0.75,,,,,,,,,,,,,,,,,,,,,,,,,,,,,,,,,,,,,,,,,,,,,
,,,,,V3_041,18,Female,2024-10-30_16h06.07.309,jersey_experiment_5_v3,2023.2.2,Win32,84.74576271,,,,,,,,,,,,,,,,291.1446,292.4385,292.4385,294.6973,return,0.6146,,24.609375,0,48,48,31,1,FBP-OG-17.png,0.37,1.2,32,0.5,,,,,,,,,,,,,,,,,,,,,,,,,,,,,,,,,,,,,,,,,,,,,
,,,,,V3_041,18,Female,2024-10-30_16h06.07.309,jersey_experiment_5_v3,2023.2.2,Win32,84.74576271,,,,,,,,,,,,,,,,294.6976,295.9915,295.9916,298.533,return,0.629,,74.86979167,0,49,49,42,1,FBP-OG-19.png,0.4,1.2,43,0.5,,,,,,,,,,,,,,,,,,,,,,,,,,,,,,,,,,,,,,,,,,,,,
,,,,,V3_041,18,Female,2024-10-30_16h06.07.309,jersey_experiment_5_v3,2023.2.2,Win32,84.74576271,,,,,,,,,,,,,,,,298.5332,300.0858,300.0859,302.6272,return,0.7246,,24.609375,0,50,50,45,1,FBP-RB-17.png,0.35,1.2,46,0.75,,,,,,,,,,,,,,,,,,,,,,,,,,,,,,,,,,,,,,,,,,,,,
,,,,,V3_041,18,Female,2024-10-30_16h06.07.309,jersey_experiment_5_v3,2023.2.2,Win32,84.74576271,,,,,,,,,,,,,,,,302.6274,303.9214,303.9214,306.0508,return,0.6503,,74.73958333,0,51,51,32,1,FBP-OG-17.png,0.4,1.2,33,0.5,,,,,,,,,,,,,,,,,,,,,,,,,,,,,,,,,,,,,,,,,,,,,
,,,,,V3_041,18,Female,2024-10-30_16h06.07.309,jersey_experiment_5_v3,2023.2.2,Win32,84.74576271,,,,,,,,,,,,,,,,306.051,307.5926,307.5926,309.4509,return,0.7193,,99.73958333,0,52,52,14,1,FBP-YG-91.png,0.45,1.2,15,0.75,,,,,,,,,,,,,,,,,,,,,,,,,,,,,,,,,,,,,,,,,,,,,
,,,,,V3_041,18,Female,2024-10-30_16h06.07.309,jersey_experiment_5_v3,2023.2.2,Win32,84.74576271,,,,,,,,,,,,,,,,309.4511,311.0039,311.0039,312.251,return,0.6744,,99.73958333,0,53,53,29,1,FBP-PT-19.png,0.45,1.2,30,0.75,,,,,,,,,,,,,,,,,,,,,,,,,,,,,,,,,,,,,,,,,,,,,
,,,,,V3_041,18,Female,2024-10-30_16h06.07.309,jersey_experiment_5_v3,2023.2.2,Win32,84.74576271,,,,,,,,,,,,,,,,312.2512,313.8041,313.8041,316.5689,return,0.8089,,74.86979167,0,54,54,46,1,FBP-RB-17.png,0.37,1.2,47,0.75,,,,,,,,,,,,,,,,,,,,,,,,,,,,,,,,,,,,,,,,,,,,,
,,,,,V3_041,18,Female,2024-10-30_16h06.07.309,jersey_experiment_5_v3,2023.2.2,Win32,84.74576271,,,,,,,,,,,,,,,,316.569,317.8629,317.863,319.9924,return,0.6334,,8.333333333,0,55,55,30,1,FBP-OG-17.png,0.35,1.2,31,0.5,,,,,,,,,,,,,,,,,,,,,,,,,,,,,,,,,,,,,,,,,,,,,
,,,,,V3_041,18,Female,2024-10-30_16h06.07.309,jersey_experiment_5_v3,2023.2.2,Win32,84.74576271,,,,,,,,,,,,,,,,319.9927,321.5453,321.5454,323.7929,return,0.5376,,11.58854167,0,56,56,0,1,FBP-YG-71.png,0.35,1.2,1,0.75,,,,,,,,,,,,,,,,,,,,,,,,,,,,,,,,,,,,,,,,,,,,,
,,,,,V3_041,18,Female,2024-10-30_16h06.07.309,jersey_experiment_5_v3,2023.2.2,Win32,84.74576271,,,,,,,,,,,,,,,,323.7934,325.0866,325.0867,327.5691,return,0.5851,,24.73958333,0,57,57,41,1,FBP-OG-19.png,0.37,1.2,42,0.5,,,,,,,,,,,,,,,,,,,,,,,,,,,,,,,,,,,,,,,,,,,,,
,,,,,V3_041,18,Female,2024-10-30_16h06.07.309,jersey_experiment_5_v3,2023.2.2,Win32,84.74576271,,,,,,,,,,,,,,,,327.5693,328.8635,328.8636,331.3458,return,0.7931,,98.95833333,0,58,58,33,1,FBP-OG-17.png,0.43,1.2,34,0.5,,,,,,,,,,,,,,,,,,,,,,,,,,,,,,,,,,,,,,,,,,,,,
,,,,,V3_041,18,Female,2024-10-30_16h06.07.309,jersey_experiment_5_v3,2023.2.2,Win32,84.74576271,,,,,,,,,,,,,,,,331.3461,332.6401,332.6401,336.2636,return,0.6926,,74.47916667,0,59,59,36,1,FBP-OG-18.png,0.37,1.2,37,0.5,,,,,,,,,,,,,,,,,,,,,,,,,,,,,,,,,,,,,,,,,,,,,
,,,,,V3_041,18,Female,2024-10-30_16h06.07.309,jersey_experiment_5_v3,2023.2.2,Win32,84.74576271,,,,,,,,,,,,,,,,336.2659,337.8167,337.8169,339.7343,return,0.5798,,73.95833333,,,,,,FBP-PT-81.png,0.4,1.2,23,0.75,0,0,0,22,1,,,,,,,,,,,,,,,,,,,,,,,,,,,,,,,,,,,,,,,,
,,,,,V3_041,18,Female,2024-10-30_16h06.07.309,jersey_experiment_5_v3,2023.2.2,Win32,84.74576271,,,,,,,,,,,,,,,,339.7347,341.2758,341.2759,343.111,return,0.6248,,87.109375,,,,,,FBP-RB-81.png,0.4,1.2,53,0.75,0,1,1,52,1,,,,,,,,,,,,,,,,,,,,,,,,,,,,,,,,,,,,,,,,
,,,,,V3_041,18,Female,2024-10-30_16h06.07.309,jersey_experiment_5_v3,2023.2.2,Win32,84.74576271,,,,,,,,,,,,,,,,343.1113,344.4052,344.4052,347.4287,return,0.6155,,12.36979167,,,,,,FBP-OG-71.png,0.35,1.2,31,0.5,0,2,2,30,1,,,,,,,,,,,,,,,,,,,,,,,,,,,,,,,,,,,,,,,,
,,,,,V3_041,18,Female,2024-10-30_16h06.07.309,jersey_experiment_5_v3,2023.2.2,Win32,84.74576271,,,,,,,,,,,,,,,,347.4289,348.723,348.723,351.3347,return,0.7205,,98.69791667,,,,,,FBP-OG-91.png,0.43,1.2,44,0.5,0,3,3,43,1,,,,,,,,,,,,,,,,,,,,,,,,,,,,,,,,,,,,,,,,
,,,,,V3_041,18,Female,2024-10-30_16h06.07.309,jersey_experiment_5_v3,2023.2.2,Win32,84.74576271,,,,,,,,,,,,,,,,351.3349,352.888,352.8881,356.8762,return,0.8708,,12.109375,,,,,,FBP-PT-71.png,0.35,1.2,16,0.75,0,4,4,15,1,,,,,,,,,,,,,,,,,,,,,,,,,,,,,,,,,,,,,,,,
,,,,,V3_041,18,Female,2024-10-30_16h06.07.309,jersey_experiment_5_v3,2023.2.2,Win32,84.74576271,,,,,,,,,,,,,,,,356.8766,358.4293,358.4293,360.8175,return,0.6419,,87.5,,,,,,FBP-RB-71.png,0.43,1.2,49,0.75,0,5,5,48,1,,,,,,,,,,,,,,,,,,,,,,,,,,,,,,,,,,,,,,,,
,,,,,V3_041,18,Female,2024-10-30_16h06.07.309,jersey_experiment_5_v3,2023.2.2,Win32,84.74576271,,,,,,,,,,,,,,,,360.8178,362.3706,362.3706,363.9116,return,0.6456,,99.609375,,,,,,FBP-RB-81.png,0.43,1.2,54,0.75,0,6,6,53,1,,,,,,,,,,,,,,,,,,,,,,,,,,,,,,,,,,,,,,,,
,,,,,V3_041,18,Female,2024-10-30_16h06.07.309,jersey_experiment_5_v3,2023.2.2,Win32,84.74576271,,,,,,,,,,,,,,,,363.9119,365.2059,365.2059,367.8648,return,0.6227,,12.109375,,,,,,FBP-OG-81.png,0.35,1.2,36,0.5,0,7,7,35,1,,,,,,,,,,,,,,,,,,,,,,,,,,,,,,,,,,,,,,,,
,,,,,V3_041,18,Female,2024-10-30_16h06.07.309,jersey_experiment_5_v3,2023.2.2,Win32,84.74576271,,,,,,,,,,,,,,,,367.8651,369.4177,369.4178,371.3355,return,0.5665,,74.47916667,,,,,,FBP-RB-91.png,0.4,1.2,58,0.75,0,8,8,57,1,,,,,,,,,,,,,,,,,,,,,,,,,,,,,,,,,,,,,,,,
,,,,,V3_041,18,Female,2024-10-30_16h06.07.309,jersey_experiment_5_v3,2023.2.2,Win32,84.74576271,,,,,,,,,,,,,,,,371.3358,372.6299,372.6299,376.9004,return,1.1584,,12.63020833,,,,,,FBP-OG-91.png,0.35,1.2,41,0.5,0,9,9,40,1,,,,,,,,,,,,,,,,,,,,,,,,,,,,,,,,,,,,,,,,
,,,,,V3_041,18,Female,2024-10-30_16h06.07.309,jersey_experiment_5_v3,2023.2.2,Win32,84.74576271,,,,,,,,,,,,,,,,376.9006,378.4535,378.4535,380.4535,return,0.5066,,74.609375,,,,,,FBP-PT-71.png,0.43,1.2,19,0.75,0,10,10,18,1,,,,,,,,,,,,,,,,,,,,,,,,,,,,,,,,,,,,,,,,
,,,,,V3_041,18,Female,2024-10-30_16h06.07.309,jersey_experiment_5_v3,2023.2.2,Win32,84.74576271,,,,,,,,,,,,,,,,380.4538,382.0066,382.0066,384.1007,return,0.5228,,74.73958333,,,,,,FBP-YG-19.png,0.43,1.2,14,0.75,0,11,11,13,1,,,,,,,,,,,,,,,,,,,,,,,,,,,,,,,,,,,,,,,,
,,,,,V3_041,18,Female,2024-10-30_16h06.07.309,jersey_experiment_5_v3,2023.2.2,Win32,84.74576271,,,,,,,,,,,,,,,,384.101,385.6538,385.6539,387.442,return,0.5724,,10.15625,,,,,,FBP-PT-91.png,0.35,1.2,26,0.75,0,12,12,25,1,,,,,,,,,,,,,,,,,,,,,,,,,,,,,,,,,,,,,,,,
,,,,,V3_041,18,Female,2024-10-30_16h06.07.309,jersey_experiment_5_v3,2023.2.2,Win32,84.74576271,,,,,,,,,,,,,,,,387.4423,388.7363,388.7363,390.901,return,0.781,,74.08854167,,,,,,FBP-OG-81.png,0.4,1.2,38,0.5,0,13,13,37,1,,,,,,,,,,,,,,,,,,,,,,,,,,,,,,,,,,,,,,,,
,,,,,V3_041,18,Female,2024-10-30_16h06.07.309,jersey_experiment_5_v3,2023.2.2,Win32,84.74576271,,,,,,,,,,,,,,,,390.9012,392.4541,392.4542,394.5128,return,0.6561,,93.61979167,,,,,,FBP-YG-17.png,0.43,1.2,4,0.75,0,14,14,3,1,,,,,,,,,,,,,,,,,,,,,,,,,,,,,,,,,,,,,,,,
,,,,,V3_041,18,Female,2024-10-30_16h06.07.309,jersey_experiment_5_v3,2023.2.2,Win32,84.74576271,,,,,,,,,,,,,,,,394.5131,396.066,396.0661,398.2424,return,0.6038,,24.34895833,,,,,,FBP-PT-71.png,0.37,1.2,17,0.75,0,15,15,16,1,,,,,,,,,,,,,,,,,,,,,,,,,,,,,,,,,,,,,,,,
,,,,,V3_041,18,Female,2024-10-30_16h06.07.309,jersey_experiment_5_v3,2023.2.2,Win32,84.74576271,,,,,,,,,,,,,,,,398.2427,399.7956,399.7956,403.2425,return,1.145,,99.34895833,,,,,,FBP-RB-91.png,0.43,1.2,59,0.75,0,16,16,58,1,,,,,,,,,,,,,,,,,,,,,,,,,,,,,,,,,,,,,,,,
,,,,,V3_041,18,Female,2024-10-30_16h06.07.309,jersey_experiment_5_v3,2023.2.2,Win32,84.74576271,,,,,,,,,,,,,,,,403.2427,404.7957,404.7958,407.7487,return,1.2522,,11.328125,,,,,,FBP-PT-81.png,0.35,1.2,21,0.75,0,17,17,20,1,,,,,,,,,,,,,,,,,,,,,,,,,,,,,,,,,,,,,,,,
,,,,,V3_041,18,Female,2024-10-30_16h06.07.309,jersey_experiment_5_v3,2023.2.2,Win32,84.74576271,,,,,,,,,,,,,,,,407.7489,409.043,409.043,415.5254,return,3.4514,,75.13020833,,,,,,FBP-OG-91.png,0.4,1.2,43,0.5,0,18,18,42,1,,,,,,,,,,,,,,,,,,,,,,,,,,,,,,,,,,,,,,,,
,,,,,V3_041,18,Female,2024-10-30_16h06.07.309,jersey_experiment_5_v3,2023.2.2,Win32,84.74576271,,,,,,,,,,,,,,,,415.5257,416.8196,416.8196,421.7845,return,0.8388,,99.73958333,,,,,,FBP-OG-71.png,0.45,1.2,35,0.5,0,19,19,34,1,,,,,,,,,,,,,,,,,,,,,,,,,,,,,,,,,,,,,,,,
,,,,,V3_041,18,Female,2024-10-30_16h06.07.309,jersey_experiment_5_v3,2023.2.2,Win32,84.74576271,,,,,,,,,,,,,,,,421.7848,423.3376,423.3376,426.4905,return,1.2836,,24.08854167,,,,,,FBP-RB-91.png,0.37,1.2,57,0.75,0,20,20,56,1,,,,,,,,,,,,,,,,,,,,,,,,,,,,,,,,,,,,,,,,
,,,,,V3_041,18,Female,2024-10-30_16h06.07.309,jersey_experiment_5_v3,2023.2.2,Win32,84.74576271,,,,,,,,,,,,,,,,426.4907,428.0318,428.0318,430.1142,return,0.749,,99.21875,,,,,,FBP-YG-17.png,0.45,1.2,5,0.75,0,21,21,4,1,,,,,,,,,,,,,,,,,,,,,,,,,,,,,,,,,,,,,,,,
,,,,,V3_041,18,Female,2024-10-30_16h06.07.309,jersey_experiment_5_v3,2023.2.2,Win32,84.74576271,,,,,,,,,,,,,,,,430.1144,431.6674,431.6674,436.0086,return,0.6836,,87.5,,,,,,FBP-RB-71.png,0.45,1.2,50,0.75,0,22,22,49,1,,,,,,,,,,,,,,,,,,,,,,,,,,,,,,,,,,,,,,,,
,,,,,V3_041,18,Female,2024-10-30_16h06.07.309,jersey_experiment_5_v3,2023.2.2,Win32,84.74576271,,,,,,,,,,,,,,,,436.009,437.3026,437.3026,439.9262,return,0.5568,,94.01041667,,,,,,FBP-OG-91.png,0.45,1.2,45,0.5,0,23,23,44,1,,,,,,,,,,,,,,,,,,,,,,,,,,,,,,,,,,,,,,,,
,,,,,V3_041,18,Female,2024-10-30_16h06.07.309,jersey_experiment_5_v3,2023.2.2,Win32,84.74576271,,,,,,,,,,,,,,,,439.9265,441.4796,441.4796,444.8087,return,0.6128,,49.21875,,,,,,FBP-YG-19.png,0.37,1.2,12,0.75,0,24,24,11,1,,,,,,,,,,,,,,,,,,,,,,,,,,,,,,,,,,,,,,,,
,,,,,V3_041,18,Female,2024-10-30_16h06.07.309,jersey_experiment_5_v3,2023.2.2,Win32,84.74576271,,,,,,,,,,,,,,,,444.8091,446.3618,446.3619,455.5738,return,0.8628,,63.41145833,,,,,,FBP-PT-81.png,0.45,1.2,25,0.75,0,25,25,24,1,,,,,,,,,,,,,,,,,,,,,,,,,,,,,,,,,,,,,,,,
,,,,,V3_041,18,Female,2024-10-30_16h06.07.309,jersey_experiment_5_v3,2023.2.2,Win32,84.74576271,,,,,,,,,,,,,,,,455.5741,457.1268,457.1269,458.9387,return,0.5421,,92.44791667,,,,,,FBP-PT-81.png,0.43,1.2,24,0.75,0,26,26,23,1,,,,,,,,,,,,,,,,,,,,,,,,,,,,,,,,,,,,,,,,
,,,,,V3_041,18,Female,2024-10-30_16h06.07.309,jersey_experiment_5_v3,2023.2.2,Win32,84.74576271,,,,,,,,,,,,,,,,458.9389,460.4803,460.4803,465.1624,return,2.4238,,61.328125,,,,,,FBP-YG-18.png,0.4,1.2,8,0.75,0,27,27,7,1,,,,,,,,,,,,,,,,,,,,,,,,,,,,,,,,,,,,,,,,
,,,,,V3_041,18,Female,2024-10-30_16h06.07.309,jersey_experiment_5_v3,2023.2.2,Win32,84.74576271,,,,,,,,,,,,,,,,465.1627,466.7155,466.7155,469.1625,return,0.5179,,24.609375,,,,,,FBP-RB-71.png,0.37,1.2,47,0.75,0,28,28,46,1,,,,,,,,,,,,,,,,,,,,,,,,,,,,,,,,,,,,,,,,
,,,,,V3_041,18,Female,2024-10-30_16h06.07.309,jersey_experiment_5_v3,2023.2.2,Win32,84.74576271,,,,,,,,,,,,,,,,469.1627,470.7041,470.7041,472.8922,return,0.5546,,50.26041667,,,,,,FBP-PT-71.png,0.4,1.2,18,0.75,0,29,29,17,1,,,,,,,,,,,,,,,,,,,,,,,,,,,,,,,,,,,,,,,,
,,,,,V3_041,18,Female,2024-10-30_16h06.07.309,jersey_experiment_5_v3,2023.2.2,Win32,84.74576271,,,,,,,,,,,,,,,,472.8925,474.4454,474.4454,477.3158,return,0.8725,,86.58854167,,,,,,FBP-PT-91.png,0.45,1.2,30,0.75,0,30,30,29,1,,,,,,,,,,,,,,,,,,,,,,,,,,,,,,,,,,,,,,,,
,,,,,V3_041,18,Female,2024-10-30_16h06.07.309,jersey_experiment_5_v3,2023.2.2,Win32,84.74576271,,,,,,,,,,,,,,,,477.316,478.8573,478.8574,481.7866,return,0.7437,,37.5,,,,,,FBP-YG-19.png,0.35,1.2,11,0.75,0,31,31,10,1,,,,,,,,,,,,,,,,,,,,,,,,,,,,,,,,,,,,,,,,
,,,,,V3_041,18,Female,2024-10-30_16h06.07.309,jersey_experiment_5_v3,2023.2.2,Win32,84.74576271,,,,,,,,,,,,,,,,481.7869,483.3398,483.3398,485.2808,return,0.6676,,36.19791667,,,,,,FBP-RB-71.png,0.35,1.2,46,0.75,0,32,32,45,1,,,,,,,,,,,,,,,,,,,,,,,,,,,,,,,,,,,,,,,,
,,,,,V3_041,18,Female,2024-10-30_16h06.07.309,jersey_experiment_5_v3,2023.2.2,Win32,84.74576271,,,,,,,,,,,,,,,,485.2812,486.5749,486.575,488.7281,return,0.5889,,36.71875,,,,,,FBP-OG-71.png,0.37,1.2,32,0.5,0,33,33,31,1,,,,,,,,,,,,,,,,,,,,,,,,,,,,,,,,,,,,,,,,
,,,,,V3_041,18,Female,2024-10-30_16h06.07.309,jersey_experiment_5_v3,2023.2.2,Win32,84.74576271,,,,,,,,,,,,,,,,488.7283,490.0222,490.0222,492.5988,return,0.6458,,99.609375,,,,,,FBP-OG-81.png,0.45,1.2,40,0.5,0,34,34,39,1,,,,,,,,,,,,,,,,,,,,,,,,,,,,,,,,,,,,,,,,
,,,,,V3_041,18,Female,2024-10-30_16h06.07.309,jersey_experiment_5_v3,2023.2.2,Win32,84.74576271,,,,,,,,,,,,,,,,492.599,494.1404,494.1404,498.8108,return,1.4827,,35.80729167,,,,,,FBP-PT-91.png,0.37,1.2,27,0.75,0,35,35,26,1,,,,,,,,,,,,,,,,,,,,,,,,,,,,,,,,,,,,,,,,
,,,,,V3_041,18,Female,2024-10-30_16h06.07.309,jersey_experiment_5_v3,2023.2.2,Win32,84.74576271,,,,,,,,,,,,,,,,498.8112,500.3635,500.3636,502.2815,return,0.6607,,24.21875,,,,,,FBP-YG-18.png,0.35,1.2,6,0.75,0,36,36,5,1,,,,,,,,,,,,,,,,,,,,,,,,,,,,,,,,,,,,,,,,
,,,,,V3_041,18,Female,2024-10-30_16h06.07.309,jersey_experiment_5_v3,2023.2.2,Win32,84.74576271,,,,,,,,,,,,,,,,502.2817,503.8345,503.8346,505.8817,return,0.6141,,74.47916667,,,,,,FBP-YG-19.png,0.4,1.2,13,0.75,0,37,37,12,1,,,,,,,,,,,,,,,,,,,,,,,,,,,,,,,,,,,,,,,,
,,,,,V3_041,18,Female,2024-10-30_16h06.07.309,jersey_experiment_5_v3,2023.2.2,Win32,84.74576271,,,,,,,,,,,,,,,,505.8818,507.4345,507.4347,509.6818,return,1.1246,,89.0625,,,,,,FBP-PT-91.png,0.43,1.2,29,0.75,0,38,38,28,1,,,,,,,,,,,,,,,,,,,,,,,,,,,,,,,,,,,,,,,,
,,,,,V3_041,18,Female,2024-10-30_16h06.07.309,jersey_experiment_5_v3,2023.2.2,Win32,84.74576271,,,,,,,,,,,,,,,,509.6821,510.9761,510.9761,512.7877,return,0.6749,,24.609375,,,,,,FBP-OG-91.png,0.37,1.2,42,0.5,0,39,39,41,1,,,,,,,,,,,,,,,,,,,,,,,,,,,,,,,,,,,,,,,,
,,,,,V3_041,18,Female,2024-10-30_16h06.07.309,jersey_experiment_5_v3,2023.2.2,Win32,84.74576271,,,,,,,,,,,,,,,,512.7879,514.3409,514.3409,516.5526,return,0.8101,,99.08854167,,,,,,FBP-RB-81.png,0.45,1.2,55,0.75,0,40,40,54,1,,,,,,,,,,,,,,,,,,,,,,,,,,,,,,,,,,,,,,,,
,,,,,V3_041,18,Female,2024-10-30_16h06.07.309,jersey_experiment_5_v3,2023.2.2,Win32,84.74576271,,,,,,,,,,,,,,,,516.5528,517.8467,517.8467,520.4115,return,1.1611,,74.609375,,,,,,FBP-OG-71.png,0.43,1.2,34,0.5,0,41,41,33,1,,,,,,,,,,,,,,,,,,,,,,,,,,,,,,,,,,,,,,,,
,,,,,V3_041,18,Female,2024-10-30_16h06.07.309,jersey_experiment_5_v3,2023.2.2,Win32,84.74576271,,,,,,,,,,,,,,,,520.412,521.7057,521.7058,522.9881,return,0.6618,,74.609375,,,,,,FBP-OG-81.png,0.43,1.2,39,0.5,0,42,42,38,1,,,,,,,,,,,,,,,,,,,,,,,,,,,,,,,,,,,,,,,,
,,,,,V3_041,18,Female,2024-10-30_16h06.07.309,jersey_experiment_5_v3,2023.2.2,Win32,84.74576271,,,,,,,,,,,,,,,,522.9884,524.5413,524.5413,525.9765,return,0.557,,25,,,,,,FBP-PT-81.png,0.37,1.2,22,0.75,0,43,43,21,1,,,,,,,,,,,,,,,,,,,,,,,,,,,,,,,,,,,,,,,,
,,,,,V3_041,18,Female,2024-10-30_16h06.07.309,jersey_experiment_5_v3,2023.2.2,Win32,84.74576271,,,,,,,,,,,,,,,,525.9767,527.5297,527.5297,531.4001,return,0.6135,,33.85416667,,,,,,FBP-RB-71.png,0.4,1.2,48,0.75,0,44,44,47,1,,,,,,,,,,,,,,,,,,,,,,,,,,,,,,,,,,,,,,,,
,,,,,V3_041,18,Female,2024-10-30_16h06.07.309,jersey_experiment_5_v3,2023.2.2,Win32,84.74576271,,,,,,,,,,,,,,,,531.4003,532.9415,532.9415,535.2239,return,0.5433,,29.03645833,,,,,,FBP-YG-18.png,0.37,1.2,7,0.75,0,45,45,6,1,,,,,,,,,,,,,,,,,,,,,,,,,,,,,,,,,,,,,,,,
,,,,,V3_041,18,Female,2024-10-30_16h06.07.309,jersey_experiment_5_v3,2023.2.2,Win32,84.74576271,,,,,,,,,,,,,,,,535.2241,536.7653,536.7653,538.9181,return,0.6357,,74.47916667,,,,,,FBP-YG-19.png,0.45,1.2,15,0.75,0,46,46,14,1,,,,,,,,,,,,,,,,,,,,,,,,,,,,,,,,,,,,,,,,
,,,,,V3_041,18,Female,2024-10-30_16h06.07.309,jersey_experiment_5_v3,2023.2.2,Win32,84.74576271,,,,,,,,,,,,,,,,538.9184,540.4595,540.4596,541.9417,return,0.5763,,75.26041667,,,,,,FBP-YG-18.png,0.43,1.2,9,0.75,0,47,47,8,1,,,,,,,,,,,,,,,,,,,,,,,,,,,,,,,,,,,,,,,,
,,,,,V3_041,18,Female,2024-10-30_16h06.07.309,jersey_experiment_5_v3,2023.2.2,Win32,84.74576271,,,,,,,,,,,,,,,,541.942,543.4946,543.4947,545.3537,return,0.5649,,74.73958333,,,,,,FBP-YG-17.png,0.4,1.2,3,0.75,0,48,48,2,1,,,,,,,,,,,,,,,,,,,,,,,,,,,,,,,,,,,,,,,,
,,,,,V3_041,18,Female,2024-10-30_16h06.07.309,jersey_experiment_5_v3,2023.2.2,Win32,84.74576271,,,,,,,,,,,,,,,,545.3539,546.9067,546.9068,548.9655,return,0.557,,10.80729167,,,,,,FBP-RB-81.png,0.35,1.2,51,0.75,0,49,49,50,1,,,,,,,,,,,,,,,,,,,,,,,,,,,,,,,,,,,,,,,,
,,,,,V3_041,18,Female,2024-10-30_16h06.07.309,jersey_experiment_5_v3,2023.2.2,Win32,84.74576271,,,,,,,,,,,,,,,,548.9658,550.5188,550.5188,552.3891,return,0.695,,11.84895833,,,,,,FBP-RB-81.png,0.37,1.2,52,0.75,0,50,50,51,1,,,,,,,,,,,,,,,,,,,,,,,,,,,,,,,,,,,,,,,,
,,,,,V3_041,18,Female,2024-10-30_16h06.07.309,jersey_experiment_5_v3,2023.2.2,Win32,84.74576271,,,,,,,,,,,,,,,,552.3894,553.6833,553.6833,555.1541,return,0.6164,,12.890625,,,,,,FBP-OG-81.png,0.37,1.2,37,0.5,0,51,51,36,1,,,,,,,,,,,,,,,,,,,,,,,,,,,,,,,,,,,,,,,,
,,,,,V3_041,18,Female,2024-10-30_16h06.07.309,jersey_experiment_5_v3,2023.2.2,Win32,84.74576271,,,,,,,,,,,,,,,,555.1544,556.707,556.707,557.9777,return,0.6109,,12.890625,,,,,,FBP-YG-17.png,0.37,1.2,2,0.75,0,52,52,1,1,,,,,,,,,,,,,,,,,,,,,,,,,,,,,,,,,,,,,,,,
,,,,,V3_041,18,Female,2024-10-30_16h06.07.309,jersey_experiment_5_v3,2023.2.2,Win32,84.74576271,,,,,,,,,,,,,,,,557.9779,559.5305,559.5306,561.5424,return,0.5552,,87.109375,,,,,,FBP-YG-18.png,0.45,1.2,10,0.75,0,53,53,9,1,,,,,,,,,,,,,,,,,,,,,,,,,,,,,,,,,,,,,,,,
,,,,,V3_041,18,Female,2024-10-30_16h06.07.309,jersey_experiment_5_v3,2023.2.2,Win32,84.74576271,,,,,,,,,,,,,,,,561.5428,563.0954,563.0955,566.1073,return,1.399,,15.88541667,,,,,,FBP-YG-17.png,0.35,1.2,1,0.75,0,54,54,0,1,,,,,,,,,,,,,,,,,,,,,,,,,,,,,,,,,,,,,,,,
,,,,,V3_041,18,Female,2024-10-30_16h06.07.309,jersey_experiment_5_v3,2023.2.2,Win32,84.74576271,,,,,,,,,,,,,,,,566.1076,567.4015,567.4016,569.4957,return,0.5548,,49.609375,,,,,,FBP-OG-71.png,0.4,1.2,33,0.5,0,55,55,32,1,,,,,,,,,,,,,,,,,,,,,,,,,,,,,,,,,,,,,,,,
,,,,,V3_041,18,Female,2024-10-30_16h06.07.309,jersey_experiment_5_v3,2023.2.2,Win32,84.74576271,,,,,,,,,,,,,,,,569.4959,571.0488,571.0489,572.4253,return,0.6154,,49.47916667,,,,,,FBP-PT-91.png,0.4,1.2,28,0.75,0,56,56,27,1,,,,,,,,,,,,,,,,,,,,,,,,,,,,,,,,,,,,,,,,
,,,,,V3_041,18,Female,2024-10-30_16h06.07.309,jersey_experiment_5_v3,2023.2.2,Win32,84.74576271,,,,,,,,,,,,,,,,572.4256,573.9783,573.9784,575.6487,return,0.5952,,97.00520833,,,,,,FBP-RB-91.png,0.45,1.2,60,0.75,0,57,57,59,1,,,,,,,,,,,,,,,,,,,,,,,,,,,,,,,,,,,,,,,,
,,,,,V3_041,18,Female,2024-10-30_16h06.07.309,jersey_experiment_5_v3,2023.2.2,Win32,84.74576271,,,,,,,,,,,,,,,,575.649,577.2017,577.2018,578.5666,return,0.7561,,99.86979167,,,,,,FBP-PT-71.png,0.45,1.2,20,0.75,0,58,58,19,1,,,,,,,,,,,,,,,,,,,,,,,,,,,,,,,,,,,,,,,,
,,,,,V3_041,18,Female,2024-10-30_16h06.07.309,jersey_experiment_5_v3,2023.2.2,Win32,84.74576271,,,,,,,,,,,,,,,,578.5669,580.1196,580.1197,583.355,return,1.8926,,24.34895833,,,,,,FBP-RB-91.png,0.35,1.2,56,0.75,0,59,59,55,1,,,,,,,,,,,,,,,,,,,,,,,,,,,,,,,,,,,,,,,,
,,,,,V3_041,18,Female,2024-10-30_16h06.07.309,jersey_experiment_5_v3,2023.2.2,Win32,84.74576271,,,,,,,,,,,,,,,,,,,,,,,,,,,,,,,,,,,,,,,583.3553,703.3477,,,,,,,,,,,,,,,,,,,,,,,,,,,,,,,,,,,,,,
,,,,,V3_041,18,Female,2024-10-30_16h06.07.309,jersey_experiment_5_v3,2023.2.2,Win32,84.74576271,,,,,,,,,,,,,,,,,,,,,,,,,,,,,,,,,,,,,,,,,703.3479,776.0093,return,72.6528,,,,,,,,,,,,,,,,,,,,,,,,,,,,,,,,,,
,,,,,V3_041,18,Female,2024-10-30_16h06.07.309,jersey_experiment_5_v3,2023.2.2,Win32,84.74576271,,,,,,,,,,,,,,,,776.0109,777.3033,777.3034,780.7151,return,0.6989,,10.02604167,,,,,,FBP-RB-18.png,0.35,1.2,51,0.5,,,,,,,,,,,,,0,0,0,50,1,,,,,,,,,,,,,,,,,,,,,,,,,,,,
,,,,,V3_041,18,Female,2024-10-30_16h06.07.309,jersey_experiment_5_v3,2023.2.2,Win32,84.74576271,,,,,,,,,,,,,,,,780.7155,782.2681,782.2682,784.6567,return,0.621,,11.84895833,,,,,,FBP-OG-18.png,0.37,1.2,37,0.75,,,,,,,,,,,,,0,1,1,36,1,,,,,,,,,,,,,,,,,,,,,,,,,,,,
,,,,,V3_041,18,Female,2024-10-30_16h06.07.309,jersey_experiment_5_v3,2023.2.2,Win32,84.74576271,,,,,,,,,,,,,,,,784.657,786.2093,786.2094,789.1861,return,0.5839,,62.36979167,,,,,,FBP-OG-19.png,0.4,1.2,43,0.75,,,,,,,,,,,,,0,2,2,42,1,,,,,,,,,,,,,,,,,,,,,,,,,,,,
,,,,,V3_041,18,Female,2024-10-30_16h06.07.309,jersey_experiment_5_v3,2023.2.2,Win32,84.74576271,,,,,,,,,,,,,,,,789.1863,790.4802,790.4803,792.6802,return,0.5529,,74.21875,,,,,,FBP-YG-81.png,0.43,1.2,9,0.5,,,,,,,,,,,,,0,3,3,8,1,,,,,,,,,,,,,,,,,,,,,,,,,,,,
,,,,,V3_041,18,Female,2024-10-30_16h06.07.309,jersey_experiment_5_v3,2023.2.2,Win32,84.74576271,,,,,,,,,,,,,,,,792.6804,794.2217,794.2218,796.0098,return,0.6049,,25.13020833,,,,,,FBP-OG-18.png,0.35,1.2,36,0.75,,,,,,,,,,,,,0,4,4,35,1,,,,,,,,,,,,,,,,,,,,,,,,,,,,
,,,,,V3_041,18,Female,2024-10-30_16h06.07.309,jersey_experiment_5_v3,2023.2.2,Win32,84.74576271,,,,,,,,,,,,,,,,796.01,797.5513,797.5514,799.2687,return,0.5462,,85.67708333,,,,,,FBP-OG-19.png,0.43,1.2,44,0.75,,,,,,,,,,,,,0,5,5,43,1,,,,,,,,,,,,,,,,,,,,,,,,,,,,
,,,,,V3_041,18,Female,2024-10-30_16h06.07.309,jersey_experiment_5_v3,2023.2.2,Win32,84.74576271,,,,,,,,,,,,,,,,799.269,800.5631,800.5632,802.3866,return,0.6777,,24.08854167,,,,,,FBP-YG-71.png,0.37,1.2,2,0.5,,,,,,,,,,,,,0,6,6,1,1,,,,,,,,,,,,,,,,,,,,,,,,,,,,
,,,,,V3_041,18,Female,2024-10-30_16h06.07.309,jersey_experiment_5_v3,2023.2.2,Win32,84.74576271,,,,,,,,,,,,,,,,802.3868,803.6806,803.6807,805.4807,return,0.6125,,85.41666667,,,,,,FBP-RB-17.png,0.45,1.2,50,0.5,,,,,,,,,,,,,0,7,7,49,1,,,,,,,,,,,,,,,,,,,,,,,,,,,,
,,,,,V3_041,18,Female,2024-10-30_16h06.07.309,jersey_experiment_5_v3,2023.2.2,Win32,84.74576271,,,,,,,,,,,,,,,,805.4811,806.7749,806.7749,808.7632,return,0.5567,,57.8125,,,,,,FBP-RB-17.png,0.4,1.2,48,0.5,,,,,,,,,,,,,0,8,8,47,1,,,,,,,,,,,,,,,,,,,,,,,,,,,,
,,,,,V3_041,18,Female,2024-10-30_16h06.07.309,jersey_experiment_5_v3,2023.2.2,Win32,84.74576271,,,,,,,,,,,,,,,,808.7634,810.0576,810.0576,811.881,return,0.7063,,61.58854167,,,,,,FBP-YG-71.png,0.4,1.2,3,0.5,,,,,,,,,,,,,0,9,9,2,1,,,,,,,,,,,,,,,,,,,,,,,,,,,,
,,,,,V3_041,18,Female,2024-10-30_16h06.07.309,jersey_experiment_5_v3,2023.2.2,Win32,84.74576271,,,,,,,,,,,,,,,,811.8812,813.1752,813.1752,815.4106,return,0.5109,,36.58854167,,,,,,FBP-YG-81.png,0.37,1.2,7,0.5,,,,,,,,,,,,,0,10,10,6,1,,,,,,,,,,,,,,,,,,,,,,,,,,,,
,,,,,V3_041,18,Female,2024-10-30_16h06.07.309,jersey_experiment_5_v3,2023.2.2,Win32,84.74576271,,,,,,,,,,,,,,,,815.4109,816.7048,816.7048,818.2812,return,0.5651,,87.109375,,,,,,FBP-RB-19.png,0.45,1.2,60,0.5,,,,,,,,,,,,,0,11,11,59,1,,,,,,,,,,,,,,,,,,,,,,,,,,,,
,,,,,V3_041,18,Female,2024-10-30_16h06.07.309,jersey_experiment_5_v3,2023.2.2,Win32,84.74576271,,,,,,,,,,,,,,,,818.2815,819.5755,819.5756,821.9402,return,1.0838,,73.828125,,,,,,FBP-YG-71.png,0.43,1.2,4,0.5,,,,,,,,,,,,,0,12,12,3,1,,,,,,,,,,,,,,,,,,,,,,,,,,,,
,,,,,V3_041,18,Female,2024-10-30_16h06.07.309,jersey_experiment_5_v3,2023.2.2,Win32,84.74576271,,,,,,,,,,,,,,,,821.9404,823.2342,823.2342,825.4933,return,0.5651,,13.54166667,,,,,,FBP-RB-19.png,0.37,1.2,57,0.5,,,,,,,,,,,,,0,13,13,56,1,,,,,,,,,,,,,,,,,,,,,,,,,,,,
,,,,,V3_041,18,Female,2024-10-30_16h06.07.309,jersey_experiment_5_v3,2023.2.2,Win32,84.74576271,,,,,,,,,,,,,,,,825.4935,826.7876,826.7876,828.4345,return,0.5689,,25,,,,,,FBP-PT-18.png,0.37,1.2,22,0.5,,,,,,,,,,,,,0,14,14,21,1,,,,,,,,,,,,,,,,,,,,,,,,,,,,
,,,,,V3_041,18,Female,2024-10-30_16h06.07.309,jersey_experiment_5_v3,2023.2.2,Win32,84.74576271,,,,,,,,,,,,,,,,828.4348,829.7287,829.7287,830.9876,return,0.5181,,25,,,,,,FBP-RB-17.png,0.37,1.2,47,0.5,,,,,,,,,,,,,0,15,15,46,1,,,,,,,,,,,,,,,,,,,,,,,,,,,,
,,,,,V3_041,18,Female,2024-10-30_16h06.07.309,jersey_experiment_5_v3,2023.2.2,Win32,84.74576271,,,,,,,,,,,,,,,,830.9878,832.2818,832.2819,834.5641,return,0.5466,,75.26041667,,,,,,FBP-RB-17.png,0.43,1.2,49,0.5,,,,,,,,,,,,,0,16,16,48,1,,,,,,,,,,,,,,,,,,,,,,,,,,,,
,,,,,V3_041,18,Female,2024-10-30_16h06.07.309,jersey_experiment_5_v3,2023.2.2,Win32,84.74576271,,,,,,,,,,,,,,,,834.5643,836.1171,836.1172,838.6818,return,1.3263,,25,,,,,,FBP-OG-19.png,0.37,1.2,42,0.75,,,,,,,,,,,,,0,17,17,41,1,,,,,,,,,,,,,,,,,,,,,,,,,,,,
,,,,,V3_041,18,Female,2024-10-30_16h06.07.309,jersey_experiment_5_v3,2023.2.2,Win32,84.74576271,,,,,,,,,,,,,,,,838.6821,840.2352,840.2352,841.3997,return,0.5549,,26.171875,,,,,,FBP-OG-18.png,0.4,1.2,38,0.75,,,,,,,,,,,,,0,18,18,37,1,,,,,,,,,,,,,,,,,,,,,,,,,,,,
,,,,,V3_041,18,Female,2024-10-30_16h06.07.309,jersey_experiment_5_v3,2023.2.2,Win32,84.74576271,,,,,,,,,,,,,,,,841.4001,842.9527,842.9528,846.3881,return,2.6996,,50.26041667,,,,,,FBP-OG-18.png,0.43,1.2,39,0.75,,,,,,,,,,,,,0,19,19,38,1,,,,,,,,,,,,,,,,,,,,,,,,,,,,
,,,,,V3_041,18,Female,2024-10-30_16h06.07.309,jersey_experiment_5_v3,2023.2.2,Win32,84.74576271,,,,,,,,,,,,,,,,846.3884,847.6824,847.6824,850.0119,return,0.5499,,24.609375,,,,,,FBP-RB-19.png,0.35,1.2,56,0.5,,,,,,,,,,,,,0,20,20,55,1,,,,,,,,,,,,,,,,,,,,,,,,,,,,
,,,,,V3_041,18,Female,2024-10-30_16h06.07.309,jersey_experiment_5_v3,2023.2.2,Win32,84.74576271,,,,,,,,,,,,,,,,850.0122,851.3059,851.3061,853.6707,return,0.6379,,99.34895833,,,,,,FBP-RB-18.png,0.45,1.2,55,0.5,,,,,,,,,,,,,0,21,21,54,1,,,,,,,,,,,,,,,,,,,,,,,,,,,,
,,,,,V3_041,18,Female,2024-10-30_16h06.07.309,jersey_experiment_5_v3,2023.2.2,Win32,84.74576271,,,,,,,,,,,,,,,,853.671,855.224,855.224,856.6002,return,0.6445,,93.359375,,,,,,FBP-OG-19.png,0.45,1.2,45,0.75,,,,,,,,,,,,,0,22,22,44,1,,,,,,,,,,,,,,,,,,,,,,,,,,,,
,,,,,V3_041,18,Female,2024-10-30_16h06.07.309,jersey_experiment_5_v3,2023.2.2,Win32,84.74576271,,,,,,,,,,,,,,,,856.6005,857.8944,857.8944,862.2592,return,2.9705,,11.97916667,,,,,,FBP-RB-17.png,0.35,1.2,46,0.5,,,,,,,,,,,,,0,23,23,45,1,,,,,,,,,,,,,,,,,,,,,,,,,,,,
,,,,,V3_041,18,Female,2024-10-30_16h06.07.309,jersey_experiment_5_v3,2023.2.2,Win32,84.74576271,,,,,,,,,,,,,,,,862.2595,863.5537,863.5537,866.0359,return,0.6409,,74.86979167,,,,,,FBP-PT-19.png,0.43,1.2,29,0.5,,,,,,,,,,,,,0,24,24,28,1,,,,,,,,,,,,,,,,,,,,,,,,,,,,
,,,,,V3_041,18,Female,2024-10-30_16h06.07.309,jersey_experiment_5_v3,2023.2.2,Win32,84.74576271,,,,,,,,,,,,,,,,866.0362,867.3301,867.3301,872.6949,return,1.164,,49.47916667,,,,,,FBP-YG-91.png,0.4,1.2,13,0.5,,,,,,,,,,,,,0,25,25,12,1,,,,,,,,,,,,,,,,,,,,,,,,,,,,
,,,,,V3_041,18,Female,2024-10-30_16h06.07.309,jersey_experiment_5_v3,2023.2.2,Win32,84.74576271,,,,,,,,,,,,,,,,872.6951,873.9892,873.9893,875.801,return,0.5295,,11.328125,,,,,,FBP-YG-81.png,0.35,1.2,6,0.5,,,,,,,,,,,,,0,26,26,5,1,,,,,,,,,,,,,,,,,,,,,,,,,,,,
,,,,,V3_041,18,Female,2024-10-30_16h06.07.309,jersey_experiment_5_v3,2023.2.2,Win32,84.74576271,,,,,,,,,,,,,,,,875.8012,877.0952,877.0953,880.0599,return,0.5752,,75,,,,,,FBP-PT-18.png,0.43,1.2,24,0.5,,,,,,,,,,,,,0,27,27,23,1,,,,,,,,,,,,,,,,,,,,,,,,,,,,
,,,,,V3_041,18,Female,2024-10-30_16h06.07.309,jersey_experiment_5_v3,2023.2.2,Win32,84.74576271,,,,,,,,,,,,,,,,880.0602,881.6129,881.613,884.119,return,1.0599,,86.45833333,,,,,,FBP-OG-17.png,0.45,1.2,35,0.75,,,,,,,,,,,,,0,28,28,34,1,,,,,,,,,,,,,,,,,,,,,,,,,,,,
,,,,,V3_041,18,Female,2024-10-30_16h06.07.309,jersey_experiment_5_v3,2023.2.2,Win32,84.74576271,,,,,,,,,,,,,,,,884.1192,885.672,885.672,887.366,return,0.8015,,87.109375,,,,,,FBP-OG-18.png,0.45,1.2,40,0.75,,,,,,,,,,,,,0,29,29,39,1,,,,,,,,,,,,,,,,,,,,,,,,,,,,
,,,,,V3_041,18,Female,2024-10-30_16h06.07.309,jersey_experiment_5_v3,2023.2.2,Win32,84.74576271,,,,,,,,,,,,,,,,887.3663,888.6602,888.6602,890.2956,return,0.5774,,99.34895833,,,,,,FBP-YG-71.png,0.45,1.2,5,0.5,,,,,,,,,,,,,0,30,30,4,1,,,,,,,,,,,,,,,,,,,,,,,,,,,,
,,,,,V3_041,18,Female,2024-10-30_16h06.07.309,jersey_experiment_5_v3,2023.2.2,Win32,84.74576271,,,,,,,,,,,,,,,,890.2959,891.5899,891.59,893.4956,return,0.6841,,12.890625,,,,,,FBP-YG-91.png,0.35,1.2,11,0.5,,,,,,,,,,,,,0,31,31,10,1,,,,,,,,,,,,,,,,,,,,,,,,,,,,
,,,,,V3_041,18,Female,2024-10-30_16h06.07.309,jersey_experiment_5_v3,2023.2.2,Win32,84.74576271,,,,,,,,,,,,,,,,893.496,894.7899,894.7901,897.1547,return,0.9368,,88.15104167,,,,,,FBP-PT-19.png,0.45,1.2,30,0.5,,,,,,,,,,,,,0,32,32,29,1,,,,,,,,,,,,,,,,,,,,,,,,,,,,
,,,,,V3_041,18,Female,2024-10-30_16h06.07.309,jersey_experiment_5_v3,2023.2.2,Win32,84.74576271,,,,,,,,,,,,,,,,897.1549,898.7078,898.7079,900.4726,return,0.5181,,13.671875,,,,,,FBP-OG-19.png,0.35,1.2,41,0.75,,,,,,,,,,,,,0,33,33,40,1,,,,,,,,,,,,,,,,,,,,,,,,,,,,
,,,,,V3_041,18,Female,2024-10-30_16h06.07.309,jersey_experiment_5_v3,2023.2.2,Win32,84.74576271,,,,,,,,,,,,,,,,900.4729,902.0253,902.0254,904.2492,return,0.6224,,13.93229167,,,,,,FBP-OG-17.png,0.35,1.2,31,0.75,,,,,,,,,,,,,0,34,34,30,1,,,,,,,,,,,,,,,,,,,,,,,,,,,,
,,,,,V3_041,18,Female,2024-10-30_16h06.07.309,jersey_experiment_5_v3,2023.2.2,Win32,84.74576271,,,,,,,,,,,,,,,,904.2495,905.5433,905.5433,909.0962,return,0.5994,,54.94791667,,,,,,FBP-RB-18.png,0.4,1.2,53,0.5,,,,,,,,,,,,,0,35,35,52,1,,,,,,,,,,,,,,,,,,,,,,,,,,,,
,,,,,V3_041,18,Female,2024-10-30_16h06.07.309,jersey_experiment_5_v3,2023.2.2,Win32,84.74576271,,,,,,,,,,,,,,,,909.0964,910.3905,910.3906,912.673,return,0.6438,,56.25,,,,,,FBP-RB-19.png,0.4,1.2,58,0.5,,,,,,,,,,,,,0,36,36,57,1,,,,,,,,,,,,,,,,,,,,,,,,,,,,
,,,,,V3_041,18,Female,2024-10-30_16h06.07.309,jersey_experiment_5_v3,2023.2.2,Win32,84.74576271,,,,,,,,,,,,,,,,912.6732,913.9672,913.9672,917.9084,return,2.7699,,56.25,,,,,,FBP-PT-19.png,0.4,1.2,28,0.5,,,,,,,,,,,,,0,37,37,27,1,,,,,,,,,,,,,,,,,,,,,,,,,,,,
,,,,,V3_041,18,Female,2024-10-30_16h06.07.309,jersey_experiment_5_v3,2023.2.2,Win32,84.74576271,,,,,,,,,,,,,,,,917.9087,919.2027,919.2028,921.8144,return,0.5795,,96.74479167,,,,,,FBP-RB-18.png,0.43,1.2,54,0.5,,,,,,,,,,,,,0,38,38,53,1,,,,,,,,,,,,,,,,,,,,,,,,,,,,
,,,,,V3_041,18,Female,2024-10-30_16h06.07.309,jersey_experiment_5_v3,2023.2.2,Win32,84.74576271,,,,,,,,,,,,,,,,921.8147,923.1087,923.1088,926.5674,return,0.7532,,50.13020833,,,,,,FBP-YG-71.png,0.35,1.2,1,0.5,,,,,,,,,,,,,0,39,39,0,1,,,,,,,,,,,,,,,,,,,,,,,,,,,,
,,,,,V3_041,18,Female,2024-10-30_16h06.07.309,jersey_experiment_5_v3,2023.2.2,Win32,84.74576271,,,,,,,,,,,,,,,,926.5677,927.8617,927.8617,929.1444,return,0.213,,25,,,,,,FBP-PT-18.png,0.35,1.2,21,0.5,,,,,,,,,,,,,0,40,40,20,1,,,,,,,,,,,,,,,,,,,,,,,,,,,,
,,,,,V3_041,18,Female,2024-10-30_16h06.07.309,jersey_experiment_5_v3,2023.2.2,Win32,84.74576271,,,,,,,,,,,,,,,,929.1445,930.4383,930.4383,931.1795,return,0.1564,,25.13020833,,,,,,FBP-PT-19.png,0.37,1.2,27,0.5,,,,,,,,,,,,,0,41,41,26,1,,,,,,,,,,,,,,,,,,,,,,,,,,,,
,,,,,V3_041,18,Female,2024-10-30_16h06.07.309,jersey_experiment_5_v3,2023.2.2,Win32,84.74576271,,,,,,,,,,,,,,,,931.1798,932.4737,932.4737,933.7325,return,0.1801,,74.34895833,,,,,,FBP-YG-91.png,0.43,1.2,14,0.5,,,,,,,,,,,,,0,42,42,13,1,,,,,,,,,,,,,,,,,,,,,,,,,,,,
,,,,,V3_041,18,Female,2024-10-30_16h06.07.309,jersey_experiment_5_v3,2023.2.2,Win32,84.74576271,,,,,,,,,,,,,,,,933.7327,935.0266,935.0266,936.0972,return,0.1379,,89.453125,,,,,,FBP-YG-91.png,0.45,1.2,15,0.5,,,,,,,,,,,,,0,43,43,14,1,,,,,,,,,,,,,,,,,,,,,,,,,,,,
,,,,,V3_041,18,Female,2024-10-30_16h06.07.309,jersey_experiment_5_v3,2023.2.2,Win32,84.74576271,,,,,,,,,,,,,,,,936.0975,937.3915,937.3915,939.0033,return,0.5522,,22.91666667,,,,,,FBP-PT-19.png,0.35,1.2,26,0.5,,,,,,,,,,,,,0,44,44,25,1,,,,,,,,,,,,,,,,,,,,,,,,,,,,
,,,,,V3_041,18,Female,2024-10-30_16h06.07.309,jersey_experiment_5_v3,2023.2.2,Win32,84.74576271,,,,,,,,,,,,,,,,939.0035,940.2976,940.2976,941.6387,return,0.1306,,75.65104167,,,,,,FBP-PT-17.png,0.43,1.2,19,0.5,,,,,,,,,,,,,0,45,45,18,1,,,,,,,,,,,,,,,,,,,,,,,,,,,,
,,,,,V3_041,18,Female,2024-10-30_16h06.07.309,jersey_experiment_5_v3,2023.2.2,Win32,84.74576271,,,,,,,,,,,,,,,,941.6389,942.9329,942.9329,944.9683,return,0.1678,,50.390625,,,,,,FBP-YG-91.png,0.37,1.2,12,0.5,,,,,,,,,,,,,0,46,46,11,1,,,,,,,,,,,,,,,,,,,,,,,,,,,,
,,,,,V3_041,18,Female,2024-10-30_16h06.07.309,jersey_experiment_5_v3,2023.2.2,Win32,84.74576271,,,,,,,,,,,,,,,,944.9684,946.2624,946.2624,947.2977,return,0.1451,,34.375,,,,,,FBP-PT-17.png,0.35,1.2,16,0.5,,,,,,,,,,,,,0,47,47,15,1,,,,,,,,,,,,,,,,,,,,,,,,,,,,
,,,,,V3_041,18,Female,2024-10-30_16h06.07.309,jersey_experiment_5_v3,2023.2.2,Win32,84.74576271,,,,,,,,,,,,,,,,947.298,948.5919,948.5919,949.8507,return,0.2121,,24.73958333,,,,,,FBP-PT-17.png,0.37,1.2,17,0.5,,,,,,,,,,,,,0,48,48,16,1,,,,,,,,,,,,,,,,,,,,,,,,,,,,
,,,,,V3_041,18,Female,2024-10-30_16h06.07.309,jersey_experiment_5_v3,2023.2.2,Win32,84.74576271,,,,,,,,,,,,,,,,949.851,951.4036,951.4037,952.0979,return,0.192,,24.73958333,,,,,,FBP-OG-17.png,0.37,1.2,32,0.75,,,,,,,,,,,,,0,49,49,31,1,,,,,,,,,,,,,,,,,,,,,,,,,,,,
,,,,,V3_041,18,Female,2024-10-30_16h06.07.309,jersey_experiment_5_v3,2023.2.2,Win32,84.74576271,,,,,,,,,,,,,,,,952.0982,953.3921,953.3921,955.851,return,1.5141,,75,,,,,,FBP-YG-81.png,0.4,1.2,8,0.5,,,,,,,,,,,,,0,50,50,7,1,,,,,,,,,,,,,,,,,,,,,,,,,,,,
,,,,,V3_041,18,Female,2024-10-30_16h06.07.309,jersey_experiment_5_v3,2023.2.2,Win32,84.74576271,,,,,,,,,,,,,,,,955.8512,957.404,957.404,958.0511,return,0.1677,,74.08854167,,,,,,FBP-OG-17.png,0.43,1.2,34,0.75,,,,,,,,,,,,,0,51,51,33,1,,,,,,,,,,,,,,,,,,,,,,,,,,,,
,,,,,V3_041,18,Female,2024-10-30_16h06.07.309,jersey_experiment_5_v3,2023.2.2,Win32,84.74576271,,,,,,,,,,,,,,,,958.0513,959.3452,959.3452,960.8277,return,0.163,,25,,,,,,FBP-RB-18.png,0.37,1.2,52,0.5,,,,,,,,,,,,,0,52,52,51,1,,,,,,,,,,,,,,,,,,,,,,,,,,,,
,,,,,V3_041,18,Female,2024-10-30_16h06.07.309,jersey_experiment_5_v3,2023.2.2,Win32,84.74576271,,,,,,,,,,,,,,,,960.828,962.1218,962.1219,963.3337,return,0.1211,,62.23958333,,,,,,FBP-PT-18.png,0.4,1.2,23,0.5,,,,,,,,,,,,,0,53,53,22,1,,,,,,,,,,,,,,,,,,,,,,,,,,,,
,,,,,V3_041,18,Female,2024-10-30_16h06.07.309,jersey_experiment_5_v3,2023.2.2,Win32,84.74576271,,,,,,,,,,,,,,,,963.3338,964.6276,964.6277,966.7102,return,0.1566,,59.765625,,,,,,FBP-PT-17.png,0.4,1.2,18,0.5,,,,,,,,,,,,,0,54,54,17,1,,,,,,,,,,,,,,,,,,,,,,,,,,,,
,,,,,V3_041,18,Female,2024-10-30_16h06.07.309,jersey_experiment_5_v3,2023.2.2,Win32,84.74576271,,,,,,,,,,,,,,,,966.7104,968.0043,968.0043,969.3337,return,0.1768,,74.86979167,,,,,,FBP-PT-18.png,0.45,1.2,25,0.5,,,,,,,,,,,,,0,55,55,24,1,,,,,,,,,,,,,,,,,,,,,,,,,,,,
,,,,,V3_041,18,Female,2024-10-30_16h06.07.309,jersey_experiment_5_v3,2023.2.2,Win32,84.74576271,,,,,,,,,,,,,,,,969.3339,970.6279,970.628,972.0397,return,0.1429,,86.97916667,,,,,,FBP-YG-81.png,0.45,1.2,10,0.5,,,,,,,,,,,,,0,56,56,9,1,,,,,,,,,,,,,,,,,,,,,,,,,,,,
,,,,,V3_041,18,Female,2024-10-30_16h06.07.309,jersey_experiment_5_v3,2023.2.2,Win32,84.74576271,,,,,,,,,,,,,,,,972.04,973.5931,973.5931,975.1221,return,0.0394,,50.13020833,,,,,,FBP-OG-17.png,0.4,1.2,33,0.75,,,,,,,,,,,,,0,57,57,32,1,,,,,,,,,,,,,,,,,,,,,,,,,,,,
,,,,,V3_041,18,Female,2024-10-30_16h06.07.309,jersey_experiment_5_v3,2023.2.2,Win32,84.74576271,,,,,,,,,,,,,,,,975.1224,976.4163,976.4164,977.3812,return,0.1064,,74.73958333,,,,,,FBP-PT-17.png,0.45,1.2,20,0.5,,,,,,,,,,,,,0,58,58,19,1,,,,,,,,,,,,,,,,,,,,,,,,,,,,
,,,,,V3_041,18,Female,2024-10-30_16h06.07.309,jersey_experiment_5_v3,2023.2.2,Win32,84.74576271,,,,,,,,,,,,,,,,977.3815,978.6753,978.6754,979.287,return,0.0967,,74.609375,,,,,,FBP-RB-19.png,0.43,1.2,59,0.5,,,,,,,,,,,,,0,59,59,58,1,,,,,,,,,,,,,,,,,,,,,,,,,,,,
,,,,,V3_041,18,Female,2024-10-30_16h06.07.309,jersey_experiment_5_v3,2023.2.2,Win32,84.74576271,,,,,,,,,,,,,,,,979.2883,980.8401,980.8401,981.4754,return,0.1474,,74.609375,,,,,,FBP-OG-91.png,0.43,1.2,44,0.75,,,,,,,,,,,,,,,,,,0,0,0,43,1,,,,,,,,,,,,,,,,,,,,,,,
,,,,,V3_041,18,Female,2024-10-30_16h06.07.309,jersey_experiment_5_v3,2023.2.2,Win32,84.74576271,,,,,,,,,,,,,,,,981.4758,983.0283,983.0284,983.9461,return,0.1179,,85.41666667,,,,,,FBP-OG-91.png,0.45,1.2,45,0.75,,,,,,,,,,,,,,,,,,0,1,1,44,1,,,,,,,,,,,,,,,,,,,,,,,
,,,,,V3_041,18,Female,2024-10-30_16h06.07.309,jersey_experiment_5_v3,2023.2.2,Win32,84.74576271,,,,,,,,,,,,,,,,983.9464,985.4992,985.4992,986.5461,return,0.16,,24.47916667,,,,,,FBP-OG-71.png,0.37,1.2,32,0.75,,,,,,,,,,,,,,,,,,0,2,2,31,1,,,,,,,,,,,,,,,,,,,,,,,
,,,,,V3_041,18,Female,2024-10-30_16h06.07.309,jersey_experiment_5_v3,2023.2.2,Win32,84.74576271,,,,,,,,,,,,,,,,986.5464,987.8404,987.8404,989.4404,return,0.2648,,74.47916667,,,,,,FBP-PT-81.png,0.43,1.2,24,0.5,,,,,,,,,,,,,,,,,,0,3,3,23,1,,,,,,,,,,,,,,,,,,,,,,,
,,,,,V3_041,18,Female,2024-10-30_16h06.07.309,jersey_experiment_5_v3,2023.2.2,Win32,84.74576271,,,,,,,,,,,,,,,,989.4407,990.7346,990.7347,991.6875,return,0.1751,,74.47916667,,,,,,FBP-YG-18.png,0.43,1.2,9,0.5,,,,,,,,,,,,,,,,,,0,4,4,8,1,,,,,,,,,,,,,,,,,,,,,,,
,,,,,V3_041,18,Female,2024-10-30_16h06.07.309,jersey_experiment_5_v3,2023.2.2,Win32,84.74576271,,,,,,,,,,,,,,,,991.6877,992.9818,992.9818,994.2994,return,0.1414,,25,,,,,,FBP-RB-91.png,0.35,1.2,56,0.5,,,,,,,,,,,,,,,,,,0,5,5,55,1,,,,,,,,,,,,,,,,,,,,,,,
,,,,,V3_041,18,Female,2024-10-30_16h06.07.309,jersey_experiment_5_v3,2023.2.2,Win32,84.74576271,,,,,,,,,,,,,,,,994.2997,995.8527,995.8527,997.1936,return,0.1045,,60.02604167,,,,,,FBP-OG-81.png,0.4,1.2,38,0.75,,,,,,,,,,,,,,,,,,0,6,6,37,1,,,,,,,,,,,,,,,,,,,,,,,
,,,,,V3_041,18,Female,2024-10-30_16h06.07.309,jersey_experiment_5_v3,2023.2.2,Win32,84.74576271,,,,,,,,,,,,,,,,997.1938,998.7351,998.7351,999.5231,return,0.1005,,75.13020833,,,,,,FBP-OG-71.png,0.43,1.2,34,0.75,,,,,,,,,,,,,,,,,,0,7,7,33,1,,,,,,,,,,,,,,,,,,,,,,,
,,,,,V3_041,18,Female,2024-10-30_16h06.07.309,jersey_experiment_5_v3,2023.2.2,Win32,84.74576271,,,,,,,,,,,,,,,,999.5232,1000.8173,1000.8174,1001.9704,return,0.1954,,24.86979167,,,,,,FBP-RB-71.png,0.37,1.2,47,0.5,,,,,,,,,,,,,,,,,,0,8,8,46,1,,,,,,,,,,,,,,,,,,,,,,,
,,,,,V3_041,18,Female,2024-10-30_16h06.07.309,jersey_experiment_5_v3,2023.2.2,Win32,84.74576271,,,,,,,,,,,,,,,,1001.9706,1003.2644,1003.2645,1005.0175,return,0.0941,,50.13020833,,,,,,FBP-RB-91.png,0.4,1.2,58,0.5,,,,,,,,,,,,,,,,,,0,9,9,57,1,,,,,,,,,,,,,,,,,,,,,,,
,,,,,V3_041,18,Female,2024-10-30_16h06.07.309,jersey_experiment_5_v3,2023.2.2,Win32,84.74576271,,,,,,,,,,,,,,,,1005.0177,1006.3115,1006.3116,1008.3471,return,1.0199,,86.71875,,,,,,FBP-PT-71.png,0.43,1.2,19,0.5,,,,,,,,,,,,,,,,,,0,10,10,18,1,,,,,,,,,,,,,,,,,,,,,,,
,,,,,V3_041,18,Female,2024-10-30_16h06.07.309,jersey_experiment_5_v3,2023.2.2,Win32,84.74576271,,,,,,,,,,,,,,,,1008.3473,1009.6413,1009.6414,1011.3826,return,0.3559,,23.56770833,,,,,,FBP-PT-91.png,0.37,1.2,27,0.5,,,,,,,,,,,,,,,,,,0,11,11,26,1,,,,,,,,,,,,,,,,,,,,,,,
,,,,,V3_041,18,Female,2024-10-30_16h06.07.309,jersey_experiment_5_v3,2023.2.2,Win32,84.74576271,,,,,,,,,,,,,,,,1011.3828,1012.6768,1012.6768,1015.7004,return,0.0954,,62.5,,,,,,FBP-PT-71.png,0.4,1.2,18,0.5,,,,,,,,,,,,,,,,,,0,12,12,17,1,,,,,,,,,,,,,,,,,,,,,,,
,,,,,V3_041,18,Female,2024-10-30_16h06.07.309,jersey_experiment_5_v3,2023.2.2,Win32,84.74576271,,,,,,,,,,,,,,,,1015.7007,1016.9943,1016.9944,1018.5003,return,0.1344,,38.28125,,,,,,FBP-YG-17.png,0.37,1.2,2,0.5,,,,,,,,,,,,,,,,,,0,13,13,1,1,,,,,,,,,,,,,,,,,,,,,,,
,,,,,V3_041,18,Female,2024-10-30_16h06.07.309,jersey_experiment_5_v3,2023.2.2,Win32,84.74576271,,,,,,,,,,,,,,,,1018.5006,1019.7946,1019.7947,1021.4886,return,0.7028,,86.06770833,,,,,,FBP-PT-91.png,0.45,1.2,30,0.5,,,,,,,,,,,,,,,,,,0,14,14,29,1,,,,,,,,,,,,,,,,,,,,,,,
,,,,,V3_041,18,Female,2024-10-30_16h06.07.309,jersey_experiment_5_v3,2023.2.2,Win32,84.74576271,,,,,,,,,,,,,,,,1021.4889,1022.7828,1022.7829,1023.8181,return,0.1416,,74.47916667,,,,,,FBP-PT-91.png,0.4,1.2,28,0.5,,,,,,,,,,,,,,,,,,0,15,15,27,1,,,,,,,,,,,,,,,,,,,,,,,
,,,,,V3_041,18,Female,2024-10-30_16h06.07.309,jersey_experiment_5_v3,2023.2.2,Win32,84.74576271,,,,,,,,,,,,,,,,1023.8184,1025.1122,1025.1123,1025.8419,return,0.137,,75,,,,,,FBP-PT-71.png,0.45,1.2,20,0.5,,,,,,,,,,,,,,,,,,0,16,16,19,1,,,,,,,,,,,,,,,,,,,,,,,
,,,,,V3_041,18,Female,2024-10-30_16h06.07.309,jersey_experiment_5_v3,2023.2.2,Win32,84.74576271,,,,,,,,,,,,,,,,1025.8422,1027.1359,1027.1359,1028.4537,return,0.2036,,25.26041667,,,,,,FBP-RB-71.png,0.35,1.2,46,0.5,,,,,,,,,,,,,,,,,,0,17,17,45,1,,,,,,,,,,,,,,,,,,,,,,,
,,,,,V3_041,18,Female,2024-10-30_16h06.07.309,jersey_experiment_5_v3,2023.2.2,Win32,84.74576271,,,,,,,,,,,,,,,,1028.4539,1029.7478,1029.7478,1030.689,return,0.0908,,75.78125,,,,,,FBP-RB-71.png,0.45,1.2,50,0.5,,,,,,,,,,,,,,,,,,0,18,18,49,1,,,,,,,,,,,,,,,,,,,,,,,
,,,,,V3_041,18,Female,2024-10-30_16h06.07.309,jersey_experiment_5_v3,2023.2.2,Win32,84.74576271,,,,,,,,,,,,,,,,1030.6892,1032.2419,1032.2419,1032.7714,return,0.0854,,75.52083333,,,,,,FBP-OG-81.png,0.43,1.2,39,0.75,,,,,,,,,,,,,,,,,,0,19,19,38,1,,,,,,,,,,,,,,,,,,,,,,,
,,,,,V3_041,18,Female,2024-10-30_16h06.07.309,jersey_experiment_5_v3,2023.2.2,Win32,84.74576271,,,,,,,,,,,,,,,,1032.7717,1034.0654,1034.0654,1034.642,return,0.0665,,75.390625,,,,,,FBP-RB-71.png,0.4,1.2,48,0.5,,,,,,,,,,,,,,,,,,0,20,20,47,1,,,,,,,,,,,,,,,,,,,,,,,
,,,,,V3_041,18,Female,2024-10-30_16h06.07.309,jersey_experiment_5_v3,2023.2.2,Win32,84.74576271,,,,,,,,,,,,,,,,1034.6423,1035.9362,1035.9363,1037.0658,return,0.0385,,87.63020833,,,,,,FBP-RB-81.png,0.45,1.2,55,0.5,,,,,,,,,,,,,,,,,,0,21,21,54,1,,,,,,,,,,,,,,,,,,,,,,,
,,,,,V3_041,18,Female,2024-10-30_16h06.07.309,jersey_experiment_5_v3,2023.2.2,Win32,84.74576271,,,,,,,,,,,,,,,,1037.066,1038.6187,1038.6188,1039.3717,return,0.142,,87.109375,,,,,,FBP-OG-81.png,0.45,1.2,40,0.75,,,,,,,,,,,,,,,,,,0,22,22,39,1,,,,,,,,,,,,,,,,,,,,,,,
,,,,,V3_041,18,Female,2024-10-30_16h06.07.309,jersey_experiment_5_v3,2023.2.2,Win32,84.74576271,,,,,,,,,,,,,,,,1039.372,1040.6658,1040.6658,1041.8188,return,0.1545,,74.73958333,,,,,,FBP-PT-81.png,0.4,1.2,23,0.5,,,,,,,,,,,,,,,,,,0,23,23,22,1,,,,,,,,,,,,,,,,,,,,,,,
,,,,,V3_041,18,Female,2024-10-30_16h06.07.309,jersey_experiment_5_v3,2023.2.2,Win32,84.74576271,,,,,,,,,,,,,,,,1041.819,1043.3717,1043.3718,1043.9129,return,0.1671,,74.86979167,,,,,,FBP-OG-91.png,0.4,1.2,43,0.75,,,,,,,,,,,,,,,,,,0,24,24,42,1,,,,,,,,,,,,,,,,,,,,,,,
,,,,,V3_041,18,Female,2024-10-30_16h06.07.309,jersey_experiment_5_v3,2023.2.2,Win32,84.74576271,,,,,,,,,,,,,,,,1043.9131,1045.2073,1045.2073,1046.1602,return,0.1269,,87.23958333,,,,,,FBP-YG-17.png,0.45,1.2,5,0.5,,,,,,,,,,,,,,,,,,0,25,25,4,1,,,,,,,,,,,,,,,,,,,,,,,
,,,,,V3_041,18,Female,2024-10-30_16h06.07.309,jersey_experiment_5_v3,2023.2.2,Win32,84.74576271,,,,,,,,,,,,,,,,1046.1605,1047.4542,1047.4543,1048.725,return,0.2024,,36.19791667,,,,,,FBP-PT-71.png,0.37,1.2,17,0.5,,,,,,,,,,,,,,,,,,0,26,26,16,1,,,,,,,,,,,,,,,,,,,,,,,
,,,,,V3_041,18,Female,2024-10-30_16h06.07.309,jersey_experiment_5_v3,2023.2.2,Win32,84.74576271,,,,,,,,,,,,,,,,1048.7252,1050.0191,1050.0192,1051.0662,return,0.1648,,36.45833333,,,,,,FBP-RB-81.png,0.35,1.2,51,0.5,,,,,,,,,,,,,,,,,,0,27,27,50,1,,,,,,,,,,,,,,,,,,,,,,,
,,,,,V3_041,18,Female,2024-10-30_16h06.07.309,jersey_experiment_5_v3,2023.2.2,Win32,84.74576271,,,,,,,,,,,,,,,,1051.0663,1052.3604,1052.3605,1053.0192,return,0.1636,,38.80208333,,,,,,FBP-RB-81.png,0.37,1.2,52,0.5,,,,,,,,,,,,,,,,,,0,28,28,51,1,,,,,,,,,,,,,,,,,,,,,,,
,,,,,V3_041,18,Female,2024-10-30_16h06.07.309,jersey_experiment_5_v3,2023.2.2,Win32,84.74576271,,,,,,,,,,,,,,,,1053.0195,1054.3133,1054.3133,1055.5958,return,0.1987,,87.23958333,,,,,,FBP-YG-19.png,0.45,1.2,15,0.5,,,,,,,,,,,,,,,,,,0,29,29,14,1,,,,,,,,,,,,,,,,,,,,,,,
,,,,,V3_041,18,Female,2024-10-30_16h06.07.309,jersey_experiment_5_v3,2023.2.2,Win32,84.74576271,,,,,,,,,,,,,,,,1055.5961,1056.89,1056.89,1057.4664,return,0.1314,,85.41666667,,,,,,FBP-PT-81.png,0.45,1.2,25,0.5,,,,,,,,,,,,,,,,,,0,30,30,24,1,,,,,,,,,,,,,,,,,,,,,,,
,,,,,V3_041,18,Female,2024-10-30_16h06.07.309,jersey_experiment_5_v3,2023.2.2,Win32,84.74576271,,,,,,,,,,,,,,,,1057.4667,1059.0078,1059.0079,1061.2077,return,0.0925,,25.13020833,,,,,,FBP-OG-71.png,0.35,1.2,31,0.75,,,,,,,,,,,,,,,,,,0,31,31,30,1,,,,,,,,,,,,,,,,,,,,,,,
,,,,,V3_041,18,Female,2024-10-30_16h06.07.309,jersey_experiment_5_v3,2023.2.2,Win32,84.74576271,,,,,,,,,,,,,,,,1061.208,1062.502,1062.502,1063.4901,return,0.263,,73.56770833,,,,,,FBP-YG-19.png,0.43,1.2,14,0.5,,,,,,,,,,,,,,,,,,0,32,32,13,1,,,,,,,,,,,,,,,,,,,,,,,
,,,,,V3_041,18,Female,2024-10-30_16h06.07.309,jersey_experiment_5_v3,2023.2.2,Win32,84.74576271,,,,,,,,,,,,,,,,1063.4902,1064.7843,1064.7844,1066.008,return,0.157,,25.390625,,,,,,FBP-YG-18.png,0.35,1.2,6,0.5,,,,,,,,,,,,,,,,,,0,33,33,5,1,,,,,,,,,,,,,,,,,,,,,,,
,,,,,V3_041,18,Female,2024-10-30_16h06.07.309,jersey_experiment_5_v3,2023.2.2,Win32,84.74576271,,,,,,,,,,,,,,,,1066.0083,1067.3023,1067.3023,1068.314,return,0.1663,,75.26041667,,,,,,FBP-RB-81.png,0.43,1.2,54,0.5,,,,,,,,,,,,,,,,,,0,34,34,53,1,,,,,,,,,,,,,,,,,,,,,,,
,,,,,V3_041,18,Female,2024-10-30_16h06.07.309,jersey_experiment_5_v3,2023.2.2,Win32,84.74576271,,,,,,,,,,,,,,,,1068.3143,1069.608,1069.6081,1070.2317,return,0.1194,,74.47916667,,,,,,FBP-YG-17.png,0.43,1.2,4,0.5,,,,,,,,,,,,,,,,,,0,35,35,3,1,,,,,,,,,,,,,,,,,,,,,,,
,,,,,V3_041,18,Female,2024-10-30_16h06.07.309,jersey_experiment_5_v3,2023.2.2,Win32,84.74576271,,,,,,,,,,,,,,,,1070.2319,1071.5257,1071.5257,1072.3846,return,0.1015,,88.28125,,,,,,FBP-RB-71.png,0.43,1.2,49,0.5,,,,,,,,,,,,,,,,,,0,36,36,48,1,,,,,,,,,,,,,,,,,,,,,,,
,,,,,V3_041,18,Female,2024-10-30_16h06.07.309,jersey_experiment_5_v3,2023.2.2,Win32,84.74576271,,,,,,,,,,,,,,,,1072.3849,1073.6789,1073.679,1074.7376,return,0.1472,,25.91145833,,,,,,FBP-PT-91.png,0.35,1.2,26,0.5,,,,,,,,,,,,,,,,,,0,37,37,25,1,,,,,,,,,,,,,,,,,,,,,,,
,,,,,V3_041,18,Female,2024-10-30_16h06.07.309,jersey_experiment_5_v3,2023.2.2,Win32,84.74576271,,,,,,,,,,,,,,,,1074.7379,1076.0319,1076.0319,1077.1142,return,0.1312,,75.13020833,,,,,,FBP-RB-91.png,0.43,1.2,59,0.5,,,,,,,,,,,,,,,,,,0,38,38,58,1,,,,,,,,,,,,,,,,,,,,,,,
,,,,,V3_041,18,Female,2024-10-30_16h06.07.309,jersey_experiment_5_v3,2023.2.2,Win32,84.74576271,,,,,,,,,,,,,,,,1077.1144,1078.4083,1078.4084,1081.938,return,0.1137,,39.32291667,,,,,,FBP-YG-19.png,0.37,1.2,12,0.5,,,,,,,,,,,,,,,,,,0,39,39,11,1,,,,,,,,,,,,,,,,,,,,,,,
,,,,,V3_041,18,Female,2024-10-30_16h06.07.309,jersey_experiment_5_v3,2023.2.2,Win32,84.74576271,,,,,,,,,,,,,,,,1081.9383,1083.2321,1083.2322,1085.6204,return,1.1218,,74.86979167,,,,,,FBP-PT-91.png,0.43,1.2,29,0.5,,,,,,,,,,,,,,,,,,0,40,40,28,1,,,,,,,,,,,,,,,,,,,,,,,
,,,,,V3_041,18,Female,2024-10-30_16h06.07.309,jersey_experiment_5_v3,2023.2.2,Win32,84.74576271,,,,,,,,,,,,,,,,1085.6207,1087.1736,1087.1736,1089.2324,return,0.6089,,35.02604167,,,,,,FBP-OG-91.png,0.35,1.2,41,0.75,,,,,,,,,,,,,,,,,,0,41,41,40,1,,,,,,,,,,,,,,,,,,,,,,,
,,,,,V3_041,18,Female,2024-10-30_16h06.07.309,jersey_experiment_5_v3,2023.2.2,Win32,84.74576271,,,,,,,,,,,,,,,,1089.2326,1090.5264,1090.5266,1093.0326,return,0.1659,,25,,,,,,FBP-YG-18.png,0.37,1.2,7,0.5,,,,,,,,,,,,,,,,,,0,42,42,6,1,,,,,,,,,,,,,,,,,,,,,,,
,,,,,V3_041,18,Female,2024-10-30_16h06.07.309,jersey_experiment_5_v3,2023.2.2,Win32,84.74576271,,,,,,,,,,,,,,,,1093.033,1094.3265,1094.3266,1096.0325,return,0.0764,,55.33854167,,,,,,FBP-RB-91.png,0.37,1.2,57,0.5,,,,,,,,,,,,,,,,,,0,43,43,56,1,,,,,,,,,,,,,,,,,,,,,,,
,,,,,V3_041,18,Female,2024-10-30_16h06.07.309,jersey_experiment_5_v3,2023.2.2,Win32,84.74576271,,,,,,,,,,,,,,,,1096.0328,1097.3269,1097.3269,1098.0092,return,0.1332,,62.63020833,,,,,,FBP-YG-19.png,0.4,1.2,13,0.5,,,,,,,,,,,,,,,,,,0,44,44,12,1,,,,,,,,,,,,,,,,,,,,,,,
,,,,,V3_041,18,Female,2024-10-30_16h06.07.309,jersey_experiment_5_v3,2023.2.2,Win32,84.74576271,,,,,,,,,,,,,,,,1098.0094,1099.562,1099.5621,1100.8209,return,0.287,,75.13020833,,,,,,FBP-OG-71.png,0.45,1.2,35,0.75,,,,,,,,,,,,,,,,,,0,45,45,34,1,,,,,,,,,,,,,,,,,,,,,,,
,,,,,V3_041,18,Female,2024-10-30_16h06.07.309,jersey_experiment_5_v3,2023.2.2,Win32,84.74576271,,,,,,,,,,,,,,,,1100.8212,1102.1153,1102.1154,1103.3858,return,0.22,,25.91145833,,,,,,FBP-YG-19.png,0.35,1.2,11,0.5,,,,,,,,,,,,,,,,,,0,46,46,10,1,,,,,,,,,,,,,,,,,,,,,,,
,,,,,V3_041,18,Female,2024-10-30_16h06.07.309,jersey_experiment_5_v3,2023.2.2,Win32,84.74576271,,,,,,,,,,,,,,,,1103.3861,1104.68,1104.68,1105.974,return,0.1446,,62.23958333,,,,,,FBP-YG-18.png,0.4,1.2,8,0.5,,,,,,,,,,,,,,,,,,0,47,47,7,1,,,,,,,,,,,,,,,,,,,,,,,
,,,,,V3_041,18,Female,2024-10-30_16h06.07.309,jersey_experiment_5_v3,2023.2.2,Win32,84.74576271,,,,,,,,,,,,,,,,1105.9743,1107.2682,1107.2683,1108.3152,return,0.1163,,86.19791667,,,,,,FBP-YG-18.png,0.45,1.2,10,0.5,,,,,,,,,,,,,,,,,,0,48,48,9,1,,,,,,,,,,,,,,,,,,,,,,,
,,,,,V3_041,18,Female,2024-10-30_16h06.07.309,jersey_experiment_5_v3,2023.2.2,Win32,84.74576271,,,,,,,,,,,,,,,,1108.3155,1109.8684,1109.8685,1111.0096,return,0.1567,,25.91145833,,,,,,FBP-OG-81.png,0.37,1.2,37,0.75,,,,,,,,,,,,,,,,,,0,49,49,36,1,,,,,,,,,,,,,,,,,,,,,,,
,,,,,V3_041,18,Female,2024-10-30_16h06.07.309,jersey_experiment_5_v3,2023.2.2,Win32,84.74576271,,,,,,,,,,,,,,,,1111.0097,1112.3039,1112.3039,1116.2567,return,2.2913,,63.28125,,,,,,FBP-YG-17.png,0.4,1.2,3,0.5,,,,,,,,,,,,,,,,,,0,50,50,2,1,,,,,,,,,,,,,,,,,,,,,,,
,,,,,V3_041,18,Female,2024-10-30_16h06.07.309,jersey_experiment_5_v3,2023.2.2,Win32,84.74576271,,,,,,,,,,,,,,,,1116.2569,1117.5511,1117.5511,1118.7392,return,0.1121,,87.76041667,,,,,,FBP-RB-91.png,0.45,1.2,60,0.5,,,,,,,,,,,,,,,,,,0,51,51,59,1,,,,,,,,,,,,,,,,,,,,,,,
,,,,,V3_041,18,Female,2024-10-30_16h06.07.309,jersey_experiment_5_v3,2023.2.2,Win32,84.74576271,,,,,,,,,,,,,,,,1118.7393,1120.0336,1120.0336,1121.0924,return,0.1345,,24.08854167,,,,,,FBP-YG-17.png,0.35,1.2,1,0.5,,,,,,,,,,,,,,,,,,0,52,52,0,1,,,,,,,,,,,,,,,,,,,,,,,
,,,,,V3_041,18,Female,2024-10-30_16h06.07.309,jersey_experiment_5_v3,2023.2.2,Win32,84.74576271,,,,,,,,,,,,,,,,1121.0926,1122.6455,1122.6455,1124.0687,return,0.2264,,23.95833333,,,,,,FBP-OG-81.png,0.35,1.2,36,0.75,,,,,,,,,,,,,,,,,,0,53,53,35,1,,,,,,,,,,,,,,,,,,,,,,,
,,,,,V3_041,18,Female,2024-10-30_16h06.07.309,jersey_experiment_5_v3,2023.2.2,Win32,84.74576271,,,,,,,,,,,,,,,,1124.069,1125.3631,1125.3631,1126.5161,return,0.1701,,74.609375,,,,,,FBP-RB-81.png,0.4,1.2,53,0.5,,,,,,,,,,,,,,,,,,0,54,54,52,1,,,,,,,,,,,,,,,,,,,,,,,
,,,,,V3_041,18,Female,2024-10-30_16h06.07.309,jersey_experiment_5_v3,2023.2.2,Win32,84.74576271,,,,,,,,,,,,,,,,1126.5163,1128.069,1128.0691,1130.2926,return,0.1185,,62.5,,,,,,FBP-OG-91.png,0.37,1.2,42,0.75,,,,,,,,,,,,,,,,,,0,55,55,41,1,,,,,,,,,,,,,,,,,,,,,,,
,,,,,V3_041,18,Female,2024-10-30_16h06.07.309,jersey_experiment_5_v3,2023.2.2,Win32,84.74576271,,,,,,,,,,,,,,,,1130.2928,1131.5868,1131.5868,1132.2338,return,0.0236,,62.5,,,,,,FBP-PT-81.png,0.35,1.2,21,0.5,,,,,,,,,,,,,,,,,,0,56,56,20,1,,,,,,,,,,,,,,,,,,,,,,,
,,,,,V3_041,18,Female,2024-10-30_16h06.07.309,jersey_experiment_5_v3,2023.2.2,Win32,84.74576271,,,,,,,,,,,,,,,,1132.2342,1133.5281,1133.5282,1135.281,return,0.875,,62.5,,,,,,FBP-PT-71.png,0.35,1.2,16,0.5,,,,,,,,,,,,,,,,,,0,57,57,15,1,,,,,,,,,,,,,,,,,,,,,,,
,,,,,V3_041,18,Female,2024-10-30_16h06.07.309,jersey_experiment_5_v3,2023.2.2,Win32,84.74576271,,,,,,,,,,,,,,,,1135.2812,1136.575,1136.575,1137.6223,return,0.3327,,62.5,,,,,,FBP-PT-81.png,0.37,1.2,22,0.5,,,,,,,,,,,,,,,,,,0,58,58,21,1,,,,,,,,,,,,,,,,,,,,,,,
,,,,,V3_041,18,Female,2024-10-30_16h06.07.309,jersey_experiment_5_v3,2023.2.2,Win32,84.74576271,,,,,,,,,,,,,,,,1137.6225,1139.1753,1139.1753,1140.034,return,0.0189,,74.86979167,,,,,,FBP-OG-71.png,0.4,1.2,33,0.75,,,,,,,,,,,,,,,,,,0,59,59,32,1,,,,,,,,,,,,,,,,,,,,,,,
,,,,,V3_041,18,Female,2024-10-30_16h06.07.309,jersey_experiment_5_v3,2023.2.2,Win32,84.74576271,,,,,,,,,,,,,,,,,,,,,,,,,,,,,,,,,,,,,,,,,,,,,,,,,,,,,,,,1140.0343,1147.7052,return,7.6606,,,,,,,,,,,,,,,,,,,
,,,,,V3_041,18,Female,2024-10-30_16h06.07.309,jersey_experiment_5_v3,2023.2.2,Win32,84.74576271,,,,,,,,,,,,,,,,,,,,,,,,,,,,,,,,,,,,,,,,,,,,,,,,,,,,,,,,,,,,,1147.7054,1154.8348,1,5.5475,return,1.571,,,,,,,,,,,,
,,,,,V3_041,18,Female,2024-10-30_16h06.07.309,jersey_experiment_5_v3,2023.2.2,Win32,84.74576271,,,,,,,,,,,,,,,,,,,,,,,,,,,,,,,,,,,,,,,,,,,,,,,,,,,,,,,,,,,,,,,,,,,,1154.8349,1301.9704,"I think the study might be on how we view people differently based on race or body shape and how we view them? Some patterns I realized was there would be same body shape but two different football players, but for some reason, they both looked differently.",right,136.1176,,,,,,
,,,,,V3_041,18,Female,2024-10-30_16h06.07.309,jersey_experiment_5_v3,2023.2.2,Win32,84.74576271,,,,,,,,,,,,,,,,,,,,,,,,,,,,,,,,,,,,,,,,,,,,,,,,,,,,,,,,,,,,,,,,,,,,,,,,,,1301.9706,1307.6757,return,5.6922,