requirements.started,requirements.stopped,key_resp_3.keys,key_resp_3.rt,key_resp_3.duration,Subject ID,Age,Gender,date,expName,psychopyVersion,OS,frameRate,instructions1.started,instructions1.stopped,key_resp.keys,key_resp.rt,key_resp.duration,example.started,example.stopped,enter_2.keys,enter_2.rt,enter_2.duration,instructions2.started,instructions2.stopped,enter_3.keys,enter_3.rt,enter_3.duration,image.started,image.stopped,slider_2.started,slider_2.stopped,next.keys,next.rt,next.duration,slider.response,trial_block_1.thisRepN,trial_block_1.thisTrialN,trial_block_1.thisN,trial_block_1.thisIndex,trial_block_1.ran,Path,Width,Height,Index,Duration,trial_block_2.thisRepN,trial_block_2.thisTrialN,trial_block_2.thisN,trial_block_2.thisIndex,trial_block_2.ran,rest_break.started,rest_break.stopped,end_break.started,end_break.stopped,key_resp_5.keys,key_resp_5.rt,key_resp_5.duration,trial_block_3.thisRepN,trial_block_3.thisTrialN,trial_block_3.thisN,trial_block_3.thisIndex,trial_block_3.ran,trial_block_4.thisRepN,trial_block_4.thisTrialN,trial_block_4.thisN,trial_block_4.thisIndex,trial_block_4.ran,questions_intro.started,questions_intro.stopped,enter_12.keys,enter_12.rt,enter_12.duration,question2.started,question2.stopped,question_doingbest.response,question_doingbest.rt,enter_15.keys,enter_15.rt,enter_15.duration,pattern.started,pattern.stopped,pattern_2.text,enter_17.keys,enter_17.rt,enter_17.duration,thankyou.started,thankyou.stopped,enter_14.keys,enter_14.rt,enter_14.duration
0,18.5531,return,18.5444,,V3_087,19,male,2024-11-21_17h14.55.958,jersey_experiment_5_v3,2023.2.2,Win32,84.74576271,,,,,,,,,,,,,,,,,,,,,,,,,,,,,,,,,,,,,,,,,,,,,,,,,,,,,,,,,,,,,,,,,,,,,,,,,,,,,,
,,,,,V3_087,19,male,2024-11-21_17h14.55.958,jersey_experiment_5_v3,2023.2.2,Win32,84.74576271,18.5532,33.5601,return,14.9889,,,,,,,,,,,,,,,,,,,,,,,,,,,,,,,,,,,,,,,,,,,,,,,,,,,,,,,,,,,,,,,,,,,,,,,,,,
,,,,,V3_087,19,male,2024-11-21_17h14.55.958,jersey_experiment_5_v3,2023.2.2,Win32,84.74576271,,,,,,33.5602,41.7069,return,8.1142,,,,,,,,,,,,,,,,,,,,,,,,,,,,,,,,,,,,,,,,,,,,,,,,,,,,,,,,,,,,,,,,,,,,,
,,,,,V3_087,19,male,2024-11-21_17h14.55.958,jersey_experiment_5_v3,2023.2.2,Win32,84.74576271,,,,,,,,,,,41.7071,74.8139,return,33.0937,,,,,,,,,,,,,,,,,,,,,,,,,,,,,,,,,,,,,,,,,,,,,,,,,,,,,,,,,,,,,,,,
,,,,,V3_087,19,male,2024-11-21_17h14.55.958,jersey_experiment_5_v3,2023.2.2,Win32,84.74576271,,,,,,,,,,,,,,,,74.8156,76.367,76.3671,96.6855,return,5.4844,,73.56770833,0,0,0,45,1,FBP-RB-17.png,0.35,1.2,46,0.75,,,,,,,,,,,,,,,,,,,,,,,,,,,,,,,,,,,,,,,,,,,,,
,,,,,V3_087,19,male,2024-11-21_17h14.55.958,jersey_experiment_5_v3,2023.2.2,Win32,84.74576271,,,,,,,,,,,,,,,,96.6858,98.2385,98.2386,107.2389,return,5.3785,,99.609375,0,1,1,21,1,FBP-PT-18.png,0.37,1.2,22,0.75,,,,,,,,,,,,,,,,,,,,,,,,,,,,,,,,,,,,,,,,,,,,,
,,,,,V3_087,19,male,2024-11-21_17h14.55.958,jersey_experiment_5_v3,2023.2.2,Win32,84.74576271,,,,,,,,,,,,,,,,107.2391,108.7918,108.7918,113.4508,return,1.9772,,99.609375,0,2,2,8,1,FBP-YG-81.png,0.43,1.2,9,0.75,,,,,,,,,,,,,,,,,,,,,,,,,,,,,,,,,,,,,,,,,,,,,
,,,,,V3_087,19,male,2024-11-21_17h14.55.958,jersey_experiment_5_v3,2023.2.2,Win32,84.74576271,,,,,,,,,,,,,,,,113.4511,115.0038,115.0038,120.3923,return,2.5684,,49.21875,0,3,3,6,1,FBP-YG-81.png,0.37,1.2,7,0.75,,,,,,,,,,,,,,,,,,,,,,,,,,,,,,,,,,,,,,,,,,,,,
,,,,,V3_087,19,male,2024-11-21_17h14.55.958,jersey_experiment_5_v3,2023.2.2,Win32,84.74576271,,,,,,,,,,,,,,,,120.3925,121.6864,121.6865,133.734,return,3.2764,,89.84375,0,4,4,33,1,FBP-OG-17.png,0.43,1.2,34,0.5,,,,,,,,,,,,,,,,,,,,,,,,,,,,,,,,,,,,,,,,,,,,,
,,,,,V3_087,19,male,2024-11-21_17h14.55.958,jersey_experiment_5_v3,2023.2.2,Win32,84.74576271,,,,,,,,,,,,,,,,133.7342,135.2868,135.2869,141.5461,return,2.6924,,99.47916667,0,5,5,59,1,FBP-RB-19.png,0.45,1.2,60,0.75,,,,,,,,,,,,,,,,,,,,,,,,,,,,,,,,,,,,,,,,,,,,,
,,,,,V3_087,19,male,2024-11-21_17h14.55.958,jersey_experiment_5_v3,2023.2.2,Win32,84.74576271,,,,,,,,,,,,,,,,141.5463,143.099,143.099,149.5934,return,2.4024,,24.47916667,0,6,6,25,1,FBP-PT-19.png,0.35,1.2,26,0.75,,,,,,,,,,,,,,,,,,,,,,,,,,,,,,,,,,,,,,,,,,,,,
,,,,,V3_087,19,male,2024-11-21_17h14.55.958,jersey_experiment_5_v3,2023.2.2,Win32,84.74576271,,,,,,,,,,,,,,,,149.5937,151.1464,151.1465,159.2879,return,4.5451,,93.61979167,0,7,7,23,1,FBP-PT-18.png,0.43,1.2,24,0.75,,,,,,,,,,,,,,,,,,,,,,,,,,,,,,,,,,,,,,,,,,,,,
,,,,,V3_087,19,male,2024-11-21_17h14.55.958,jersey_experiment_5_v3,2023.2.2,Win32,84.74576271,,,,,,,,,,,,,,,,159.2884,160.8409,160.8409,166.2175,return,1.5451,,0.130208333,0,8,8,55,1,FBP-RB-19.png,0.35,1.2,56,0.75,,,,,,,,,,,,,,,,,,,,,,,,,,,,,,,,,,,,,,,,,,,,,
,,,,,V3_087,19,male,2024-11-21_17h14.55.958,jersey_experiment_5_v3,2023.2.2,Win32,84.74576271,,,,,,,,,,,,,,,,166.2177,167.7706,167.7706,173.8766,return,2.2423,,99.47916667,0,9,9,13,1,FBP-YG-91.png,0.43,1.2,14,0.75,,,,,,,,,,,,,,,,,,,,,,,,,,,,,,,,,,,,,,,,,,,,,
,,,,,V3_087,19,male,2024-11-21_17h14.55.958,jersey_experiment_5_v3,2023.2.2,Win32,84.74576271,,,,,,,,,,,,,,,,173.8769,175.4297,175.4297,183.5124,return,2.6506,,74.73958333,0,10,10,53,1,FBP-RB-18.png,0.43,1.2,54,0.75,,,,,,,,,,,,,,,,,,,,,,,,,,,,,,,,,,,,,,,,,,,,,
,,,,,V3_087,19,male,2024-11-21_17h14.55.958,jersey_experiment_5_v3,2023.2.2,Win32,84.74576271,,,,,,,,,,,,,,,,183.5127,185.0652,185.0653,191.8303,return,3.6385,,38.15104167,0,11,11,26,1,FBP-PT-19.png,0.37,1.2,27,0.75,,,,,,,,,,,,,,,,,,,,,,,,,,,,,,,,,,,,,,,,,,,,,
,,,,,V3_087,19,male,2024-11-21_17h14.55.958,jersey_experiment_5_v3,2023.2.2,Win32,84.74576271,,,,,,,,,,,,,,,,191.8306,193.3832,193.3833,199.5131,return,3.3193,,87.109375,0,12,12,17,1,FBP-PT-17.png,0.4,1.2,18,0.75,,,,,,,,,,,,,,,,,,,,,,,,,,,,,,,,,,,,,,,,,,,,,
,,,,,V3_087,19,male,2024-11-21_17h14.55.958,jersey_experiment_5_v3,2023.2.2,Win32,84.74576271,,,,,,,,,,,,,,,,199.5133,201.0659,201.066,204.5838,return,1.4399,,50.52083333,0,13,13,7,1,FBP-YG-81.png,0.4,1.2,8,0.75,,,,,,,,,,,,,,,,,,,,,,,,,,,,,,,,,,,,,,,,,,,,,
,,,,,V3_087,19,male,2024-11-21_17h14.55.958,jersey_experiment_5_v3,2023.2.2,Win32,84.74576271,,,,,,,,,,,,,,,,204.5841,206.1368,206.1368,209.3721,return,1.0378,,99.47916667,0,14,14,54,1,FBP-RB-18.png,0.45,1.2,55,0.75,,,,,,,,,,,,,,,,,,,,,,,,,,,,,,,,,,,,,,,,,,,,,
,,,,,V3_087,19,male,2024-11-21_17h14.55.958,jersey_experiment_5_v3,2023.2.2,Win32,84.74576271,,,,,,,,,,,,,,,,209.3724,210.9252,210.9252,218.7609,return,2.1435,,1.302083333,0,15,15,50,1,FBP-RB-18.png,0.35,1.2,51,0.75,,,,,,,,,,,,,,,,,,,,,,,,,,,,,,,,,,,,,,,,,,,,,
,,,,,V3_087,19,male,2024-11-21_17h14.55.958,jersey_experiment_5_v3,2023.2.2,Win32,84.74576271,,,,,,,,,,,,,,,,218.7611,220.055,220.055,224.7022,return,1.494,,1.041666667,0,16,16,30,1,FBP-OG-17.png,0.35,1.2,31,0.5,,,,,,,,,,,,,,,,,,,,,,,,,,,,,,,,,,,,,,,,,,,,,
,,,,,V3_087,19,male,2024-11-21_17h14.55.958,jersey_experiment_5_v3,2023.2.2,Win32,84.74576271,,,,,,,,,,,,,,,,224.7025,226.2553,226.2553,230.4552,return,1.8282,,74.08854167,0,17,17,52,1,FBP-RB-18.png,0.4,1.2,53,0.75,,,,,,,,,,,,,,,,,,,,,,,,,,,,,,,,,,,,,,,,,,,,,
,,,,,V3_087,19,male,2024-11-21_17h14.55.958,jersey_experiment_5_v3,2023.2.2,Win32,84.74576271,,,,,,,,,,,,,,,,230.4555,231.9966,231.9967,240.9381,return,2.0336,,93.88020833,0,18,18,27,1,FBP-PT-19.png,0.4,1.2,28,0.75,,,,,,,,,,,,,,,,,,,,,,,,,,,,,,,,,,,,,,,,,,,,,
,,,,,V3_087,19,male,2024-11-21_17h14.55.958,jersey_experiment_5_v3,2023.2.2,Win32,84.74576271,,,,,,,,,,,,,,,,240.9384,242.2323,242.2323,245.9148,return,1.3078,,36.06770833,0,19,19,31,1,FBP-OG-17.png,0.37,1.2,32,0.5,,,,,,,,,,,,,,,,,,,,,,,,,,,,,,,,,,,,,,,,,,,,,
,,,,,V3_087,19,male,2024-11-21_17h14.55.958,jersey_experiment_5_v3,2023.2.2,Win32,84.74576271,,,,,,,,,,,,,,,,245.9151,247.4677,247.4678,251.2092,return,1.4592,,24.609375,0,20,20,10,1,FBP-YG-91.png,0.35,1.2,11,0.75,,,,,,,,,,,,,,,,,,,,,,,,,,,,,,,,,,,,,,,,,,,,,
,,,,,V3_087,19,male,2024-11-21_17h14.55.958,jersey_experiment_5_v3,2023.2.2,Win32,84.74576271,,,,,,,,,,,,,,,,251.2094,252.5032,252.5033,255.268,return,1.2627,,24.609375,0,21,21,40,1,FBP-OG-19.png,0.35,1.2,41,0.5,,,,,,,,,,,,,,,,,,,,,,,,,,,,,,,,,,,,,,,,,,,,,
,,,,,V3_087,19,male,2024-11-21_17h14.55.958,jersey_experiment_5_v3,2023.2.2,Win32,84.74576271,,,,,,,,,,,,,,,,255.2683,256.5622,256.5622,261.9271,return,1.7225,,98.69791667,0,22,22,34,1,FBP-OG-17.png,0.45,1.2,35,0.5,,,,,,,,,,,,,,,,,,,,,,,,,,,,,,,,,,,,,,,,,,,,,
,,,,,V3_087,19,male,2024-11-21_17h14.55.958,jersey_experiment_5_v3,2023.2.2,Win32,84.74576271,,,,,,,,,,,,,,,,261.9273,263.2214,263.2214,266.7626,return,1.5216,,98.95833333,0,23,23,43,1,FBP-OG-19.png,0.43,1.2,44,0.5,,,,,,,,,,,,,,,,,,,,,,,,,,,,,,,,,,,,,,,,,,,,,
,,,,,V3_087,19,male,2024-11-21_17h14.55.958,jersey_experiment_5_v3,2023.2.2,Win32,84.74576271,,,,,,,,,,,,,,,,266.7629,268.3156,268.3157,271.5158,return,1.1921,,98.56770833,0,24,24,19,1,FBP-PT-17.png,0.45,1.2,20,0.75,,,,,,,,,,,,,,,,,,,,,,,,,,,,,,,,,,,,,,,,,,,,,
,,,,,V3_087,19,male,2024-11-21_17h14.55.958,jersey_experiment_5_v3,2023.2.2,Win32,84.74576271,,,,,,,,,,,,,,,,271.5161,273.0688,273.0688,277.3983,return,1.4846,,25.390625,0,25,25,0,1,FBP-YG-71.png,0.35,1.2,1,0.75,,,,,,,,,,,,,,,,,,,,,,,,,,,,,,,,,,,,,,,,,,,,,
,,,,,V3_087,19,male,2024-11-21_17h14.55.958,jersey_experiment_5_v3,2023.2.2,Win32,84.74576271,,,,,,,,,,,,,,,,277.3985,278.9512,278.9512,283.3397,return,1.4912,,99.86979167,0,26,26,18,1,FBP-PT-17.png,0.43,1.2,19,0.75,,,,,,,,,,,,,,,,,,,,,,,,,,,,,,,,,,,,,,,,,,,,,
,,,,,V3_087,19,male,2024-11-21_17h14.55.958,jersey_experiment_5_v3,2023.2.2,Win32,84.74576271,,,,,,,,,,,,,,,,283.34,284.6339,284.6339,293.5637,return,6.6364,,95.57291667,0,27,27,39,1,FBP-OG-18.png,0.45,1.2,40,0.5,,,,,,,,,,,,,,,,,,,,,,,,,,,,,,,,,,,,,,,,,,,,,
,,,,,V3_087,19,male,2024-11-21_17h14.55.958,jersey_experiment_5_v3,2023.2.2,Win32,84.74576271,,,,,,,,,,,,,,,,293.5638,295.1167,295.1167,298.7756,return,1.5571,,60.67708333,0,28,28,2,1,FBP-YG-71.png,0.4,1.2,3,0.75,,,,,,,,,,,,,,,,,,,,,,,,,,,,,,,,,,,,,,,,,,,,,
,,,,,V3_087,19,male,2024-11-21_17h14.55.958,jersey_experiment_5_v3,2023.2.2,Win32,84.74576271,,,,,,,,,,,,,,,,298.7758,300.3286,300.3286,303.3404,return,1.0589,,99.47916667,0,29,29,9,1,FBP-YG-81.png,0.45,1.2,10,0.75,,,,,,,,,,,,,,,,,,,,,,,,,,,,,,,,,,,,,,,,,,,,,
,,,,,V3_087,19,male,2024-11-21_17h14.55.958,jersey_experiment_5_v3,2023.2.2,Win32,84.74576271,,,,,,,,,,,,,,,,303.3406,304.6346,304.6347,312.1879,return,1.6712,,34.11458333,0,30,30,36,1,FBP-OG-18.png,0.37,1.2,37,0.5,,,,,,,,,,,,,,,,,,,,,,,,,,,,,,,,,,,,,,,,,,,,,
,,,,,V3_087,19,male,2024-11-21_17h14.55.958,jersey_experiment_5_v3,2023.2.2,Win32,84.74576271,,,,,,,,,,,,,,,,312.1882,313.7409,313.7409,317.9176,return,1.2468,,61.45833333,0,31,31,12,1,FBP-YG-91.png,0.4,1.2,13,0.75,,,,,,,,,,,,,,,,,,,,,,,,,,,,,,,,,,,,,,,,,,,,,
,,,,,V3_087,19,male,2024-11-21_17h14.55.958,jersey_experiment_5_v3,2023.2.2,Win32,84.74576271,,,,,,,,,,,,,,,,317.9178,319.4705,319.4705,322.1176,return,0.9942,,98.828125,0,32,32,14,1,FBP-YG-91.png,0.45,1.2,15,0.75,,,,,,,,,,,,,,,,,,,,,,,,,,,,,,,,,,,,,,,,,,,,,
,,,,,V3_087,19,male,2024-11-21_17h14.55.958,jersey_experiment_5_v3,2023.2.2,Win32,84.74576271,,,,,,,,,,,,,,,,322.1179,323.6706,323.6707,330.7887,return,1.7133,,55.20833333,0,33,33,46,1,FBP-RB-17.png,0.37,1.2,47,0.75,,,,,,,,,,,,,,,,,,,,,,,,,,,,,,,,,,,,,,,,,,,,,
,,,,,V3_087,19,male,2024-11-21_17h14.55.958,jersey_experiment_5_v3,2023.2.2,Win32,84.74576271,,,,,,,,,,,,,,,,330.7889,332.3416,332.3417,336.9418,return,1.5136,,38.41145833,0,34,34,11,1,FBP-YG-91.png,0.37,1.2,12,0.75,,,,,,,,,,,,,,,,,,,,,,,,,,,,,,,,,,,,,,,,,,,,,
,,,,,V3_087,19,male,2024-11-21_17h14.55.958,jersey_experiment_5_v3,2023.2.2,Win32,84.74576271,,,,,,,,,,,,,,,,336.9421,338.4949,338.4949,342.389,return,1.6425,,46.35416667,0,35,35,1,1,FBP-YG-71.png,0.37,1.2,2,0.75,,,,,,,,,,,,,,,,,,,,,,,,,,,,,,,,,,,,,,,,,,,,,
,,,,,V3_087,19,male,2024-11-21_17h14.55.958,jersey_experiment_5_v3,2023.2.2,Win32,84.74576271,,,,,,,,,,,,,,,,342.3892,343.9421,343.9421,347.4481,return,1.3098,,98.4375,0,36,36,49,1,FBP-RB-17.png,0.45,1.2,50,0.75,,,,,,,,,,,,,,,,,,,,,,,,,,,,,,,,,,,,,,,,,,,,,
,,,,,V3_087,19,male,2024-11-21_17h14.55.958,jersey_experiment_5_v3,2023.2.2,Win32,84.74576271,,,,,,,,,,,,,,,,347.4483,349.0011,349.0012,351.8836,return,1.4434,,98.4375,0,37,37,29,1,FBP-PT-19.png,0.45,1.2,30,0.75,,,,,,,,,,,,,,,,,,,,,,,,,,,,,,,,,,,,,,,,,,,,,
,,,,,V3_087,19,male,2024-11-21_17h14.55.958,jersey_experiment_5_v3,2023.2.2,Win32,84.74576271,,,,,,,,,,,,,,,,351.8838,353.1777,353.1778,359.3192,return,3.558,,13.54166667,0,38,38,35,1,FBP-OG-18.png,0.35,1.2,36,0.5,,,,,,,,,,,,,,,,,,,,,,,,,,,,,,,,,,,,,,,,,,,,,
,,,,,V3_087,19,male,2024-11-21_17h14.55.958,jersey_experiment_5_v3,2023.2.2,Win32,84.74576271,,,,,,,,,,,,,,,,359.3195,360.8721,360.8723,383.3671,return,1.5661,,3.385416667,0,39,39,5,1,FBP-YG-81.png,0.35,1.2,6,0.75,,,,,,,,,,,,,,,,,,,,,,,,,,,,,,,,,,,,,,,,,,,,,
,,,,,V3_087,19,male,2024-11-21_17h14.55.958,jersey_experiment_5_v3,2023.2.2,Win32,84.74576271,,,,,,,,,,,,,,,,383.3674,384.6611,384.6611,388.4849,return,1.5716,,96.61458333,0,40,40,44,1,FBP-OG-19.png,0.45,1.2,45,0.5,,,,,,,,,,,,,,,,,,,,,,,,,,,,,,,,,,,,,,,,,,,,,
,,,,,V3_087,19,male,2024-11-21_17h14.55.958,jersey_experiment_5_v3,2023.2.2,Win32,84.74576271,,,,,,,,,,,,,,,,388.4851,389.7791,389.7792,393.944,return,1.4983,,63.80208333,0,41,41,42,1,FBP-OG-19.png,0.4,1.2,43,0.5,,,,,,,,,,,,,,,,,,,,,,,,,,,,,,,,,,,,,,,,,,,,,
,,,,,V3_087,19,male,2024-11-21_17h14.55.958,jersey_experiment_5_v3,2023.2.2,Win32,84.74576271,,,,,,,,,,,,,,,,393.9442,395.497,395.497,399.4854,return,1.4673,,91.14583333,0,42,42,3,1,FBP-YG-71.png,0.43,1.2,4,0.75,,,,,,,,,,,,,,,,,,,,,,,,,,,,,,,,,,,,,,,,,,,,,
,,,,,V3_087,19,male,2024-11-21_17h14.55.958,jersey_experiment_5_v3,2023.2.2,Win32,84.74576271,,,,,,,,,,,,,,,,399.4857,401.0383,401.0383,405.5797,return,2.118,,48.828125,0,43,43,47,1,FBP-RB-17.png,0.4,1.2,48,0.75,,,,,,,,,,,,,,,,,,,,,,,,,,,,,,,,,,,,,,,,,,,,,
,,,,,V3_087,19,male,2024-11-21_17h14.55.958,jersey_experiment_5_v3,2023.2.2,Win32,84.74576271,,,,,,,,,,,,,,,,405.58,407.1328,407.1328,410.7917,return,1.4038,,86.45833333,0,44,44,28,1,FBP-PT-19.png,0.43,1.2,29,0.75,,,,,,,,,,,,,,,,,,,,,,,,,,,,,,,,,,,,,,,,,,,,,
,,,,,V3_087,19,male,2024-11-21_17h14.55.958,jersey_experiment_5_v3,2023.2.2,Win32,84.74576271,,,,,,,,,,,,,,,,410.792,412.3446,412.3446,415.7213,return,1.0955,,25,0,45,45,16,1,FBP-PT-17.png,0.37,1.2,17,0.75,,,,,,,,,,,,,,,,,,,,,,,,,,,,,,,,,,,,,,,,,,,,,
,,,,,V3_087,19,male,2024-11-21_17h14.55.958,jersey_experiment_5_v3,2023.2.2,Win32,84.74576271,,,,,,,,,,,,,,,,415.7216,417.2743,417.2743,421.0038,return,1.412,,8.59375,0,46,46,15,1,FBP-PT-17.png,0.35,1.2,16,0.75,,,,,,,,,,,,,,,,,,,,,,,,,,,,,,,,,,,,,,,,,,,,,
,,,,,V3_087,19,male,2024-11-21_17h14.55.958,jersey_experiment_5_v3,2023.2.2,Win32,84.74576271,,,,,,,,,,,,,,,,421.004,422.5568,422.5569,426.1217,return,1.4612,,32.29166667,0,47,47,56,1,FBP-RB-19.png,0.37,1.2,57,0.75,,,,,,,,,,,,,,,,,,,,,,,,,,,,,,,,,,,,,,,,,,,,,
,,,,,V3_087,19,male,2024-11-21_17h14.55.958,jersey_experiment_5_v3,2023.2.2,Win32,84.74576271,,,,,,,,,,,,,,,,426.122,427.4158,427.4158,432.0513,return,1.6417,,52.47395833,0,48,48,37,1,FBP-OG-18.png,0.4,1.2,38,0.5,,,,,,,,,,,,,,,,,,,,,,,,,,,,,,,,,,,,,,,,,,,,,
,,,,,V3_087,19,male,2024-11-21_17h14.55.958,jersey_experiment_5_v3,2023.2.2,Win32,84.74576271,,,,,,,,,,,,,,,,432.0515,433.6043,433.6044,439.2516,return,3.5614,,97.00520833,0,49,49,24,1,FBP-PT-18.png,0.45,1.2,25,0.75,,,,,,,,,,,,,,,,,,,,,,,,,,,,,,,,,,,,,,,,,,,,,
,,,,,V3_087,19,male,2024-11-21_17h14.55.958,jersey_experiment_5_v3,2023.2.2,Win32,84.74576271,,,,,,,,,,,,,,,,439.252,440.5458,440.5458,444.6284,return,1.2431,,49.609375,0,50,50,32,1,FBP-OG-17.png,0.4,1.2,33,0.5,,,,,,,,,,,,,,,,,,,,,,,,,,,,,,,,,,,,,,,,,,,,,
,,,,,V3_087,19,male,2024-11-21_17h14.55.958,jersey_experiment_5_v3,2023.2.2,Win32,84.74576271,,,,,,,,,,,,,,,,444.6287,446.1813,446.1814,451.4991,return,2.003,,92.96875,0,51,51,48,1,FBP-RB-17.png,0.43,1.2,49,0.75,,,,,,,,,,,,,,,,,,,,,,,,,,,,,,,,,,,,,,,,,,,,,
,,,,,V3_087,19,male,2024-11-21_17h14.55.958,jersey_experiment_5_v3,2023.2.2,Win32,84.74576271,,,,,,,,,,,,,,,,451.4993,453.0522,453.0523,456.4288,return,0.9184,,38.54166667,0,52,52,51,1,FBP-RB-18.png,0.37,1.2,52,0.75,,,,,,,,,,,,,,,,,,,,,,,,,,,,,,,,,,,,,,,,,,,,,
,,,,,V3_087,19,male,2024-11-21_17h14.55.958,jersey_experiment_5_v3,2023.2.2,Win32,84.74576271,,,,,,,,,,,,,,,,456.429,457.9816,457.9816,461.3819,return,1.3355,,75.26041667,0,53,53,58,1,FBP-RB-19.png,0.43,1.2,59,0.75,,,,,,,,,,,,,,,,,,,,,,,,,,,,,,,,,,,,,,,,,,,,,
,,,,,V3_087,19,male,2024-11-21_17h14.55.958,jersey_experiment_5_v3,2023.2.2,Win32,84.74576271,,,,,,,,,,,,,,,,461.3822,462.9348,462.9349,467.2997,return,1.7589,,56.25,0,54,54,57,1,FBP-RB-19.png,0.4,1.2,58,0.75,,,,,,,,,,,,,,,,,,,,,,,,,,,,,,,,,,,,,,,,,,,,,
,,,,,V3_087,19,male,2024-11-21_17h14.55.958,jersey_experiment_5_v3,2023.2.2,Win32,84.74576271,,,,,,,,,,,,,,,,467.2999,468.8526,468.8527,473.4176,return,1.4141,,67.31770833,0,55,55,22,1,FBP-PT-18.png,0.4,1.2,23,0.75,,,,,,,,,,,,,,,,,,,,,,,,,,,,,,,,,,,,,,,,,,,,,
,,,,,V3_087,19,male,2024-11-21_17h14.55.958,jersey_experiment_5_v3,2023.2.2,Win32,84.74576271,,,,,,,,,,,,,,,,473.4179,474.9706,474.9707,479.7708,return,1.0834,,86.45833333,0,56,56,4,1,FBP-YG-71.png,0.45,1.2,5,0.75,,,,,,,,,,,,,,,,,,,,,,,,,,,,,,,,,,,,,,,,,,,,,
,,,,,V3_087,19,male,2024-11-21_17h14.55.958,jersey_experiment_5_v3,2023.2.2,Win32,84.74576271,,,,,,,,,,,,,,,,479.771,481.0649,481.0649,485.6534,return,2.0152,,74.609375,0,57,57,38,1,FBP-OG-18.png,0.43,1.2,39,0.5,,,,,,,,,,,,,,,,,,,,,,,,,,,,,,,,,,,,,,,,,,,,,
,,,,,V3_087,19,male,2024-11-21_17h14.55.958,jersey_experiment_5_v3,2023.2.2,Win32,84.74576271,,,,,,,,,,,,,,,,485.6536,486.9476,486.9476,491.783,return,2.252,,15.49479167,0,58,58,41,1,FBP-OG-19.png,0.37,1.2,42,0.5,,,,,,,,,,,,,,,,,,,,,,,,,,,,,,,,,,,,,,,,,,,,,
,,,,,V3_087,19,male,2024-11-21_17h14.55.958,jersey_experiment_5_v3,2023.2.2,Win32,84.74576271,,,,,,,,,,,,,,,,491.7832,493.3361,493.3361,496.8303,return,0.9414,,9.635416667,0,59,59,20,1,FBP-PT-18.png,0.35,1.2,21,0.75,,,,,,,,,,,,,,,,,,,,,,,,,,,,,,,,,,,,,,,,,,,,,
,,,,,V3_087,19,male,2024-11-21_17h14.55.958,jersey_experiment_5_v3,2023.2.2,Win32,84.74576271,,,,,,,,,,,,,,,,496.8317,498.3833,498.3833,501.9128,return,1.0941,,11.45833333,,,,,,FBP-PT-71.png,0.35,1.2,16,0.75,0,0,0,15,1,,,,,,,,,,,,,,,,,,,,,,,,,,,,,,,,,,,,,,,,
,,,,,V3_087,19,male,2024-11-21_17h14.55.958,jersey_experiment_5_v3,2023.2.2,Win32,84.74576271,,,,,,,,,,,,,,,,501.9131,503.4658,503.466,507.8659,return,1.696,,51.43229167,,,,,,FBP-PT-71.png,0.4,1.2,18,0.75,0,1,1,17,1,,,,,,,,,,,,,,,,,,,,,,,,,,,,,,,,,,,,,,,,
,,,,,V3_087,19,male,2024-11-21_17h14.55.958,jersey_experiment_5_v3,2023.2.2,Win32,84.74576271,,,,,,,,,,,,,,,,507.8662,509.419,509.4191,512.9955,return,1.4519,,48.828125,,,,,,FBP-RB-91.png,0.4,1.2,58,0.75,0,2,2,57,1,,,,,,,,,,,,,,,,,,,,,,,,,,,,,,,,,,,,,,,,
,,,,,V3_087,19,male,2024-11-21_17h14.55.958,jersey_experiment_5_v3,2023.2.2,Win32,84.74576271,,,,,,,,,,,,,,,,512.9958,514.5486,514.5486,517.4546,return,0.8601,,87.23958333,,,,,,FBP-PT-91.png,0.45,1.2,30,0.75,0,3,3,29,1,,,,,,,,,,,,,,,,,,,,,,,,,,,,,,,,,,,,,,,,
,,,,,V3_087,19,male,2024-11-21_17h14.55.958,jersey_experiment_5_v3,2023.2.2,Win32,84.74576271,,,,,,,,,,,,,,,,517.4548,519.0076,519.0076,526.1727,return,1.6944,,29.03645833,,,,,,FBP-YG-18.png,0.37,1.2,7,0.75,0,4,4,6,1,,,,,,,,,,,,,,,,,,,,,,,,,,,,,,,,,,,,,,,,
,,,,,V3_087,19,male,2024-11-21_17h14.55.958,jersey_experiment_5_v3,2023.2.2,Win32,84.74576271,,,,,,,,,,,,,,,,526.173,527.7256,527.7257,531.6552,return,1.8959,,50.390625,,,,,,FBP-YG-17.png,0.4,1.2,3,0.75,0,5,5,2,1,,,,,,,,,,,,,,,,,,,,,,,,,,,,,,,,,,,,,,,,
,,,,,V3_087,19,male,2024-11-21_17h14.55.958,jersey_experiment_5_v3,2023.2.2,Win32,84.74576271,,,,,,,,,,,,,,,,531.6554,532.9494,532.9494,537.5966,return,1.3098,,97.265625,,,,,,FBP-OG-71.png,0.45,1.2,35,0.5,0,6,6,34,1,,,,,,,,,,,,,,,,,,,,,,,,,,,,,,,,,,,,,,,,
,,,,,V3_087,19,male,2024-11-21_17h14.55.958,jersey_experiment_5_v3,2023.2.2,Win32,84.74576271,,,,,,,,,,,,,,,,537.597,539.1496,539.1497,542.6674,return,0.9504,,63.02083333,,,,,,FBP-RB-81.png,0.45,1.2,55,0.75,0,7,7,54,1,,,,,,,,,,,,,,,,,,,,,,,,,,,,,,,,,,,,,,,,
,,,,,V3_087,19,male,2024-11-21_17h14.55.958,jersey_experiment_5_v3,2023.2.2,Win32,84.74576271,,,,,,,,,,,,,,,,542.6677,544.2203,544.2204,548.0558,return,1.4962,,77.47395833,,,,,,FBP-RB-71.png,0.45,1.2,50,0.75,0,8,8,49,1,,,,,,,,,,,,,,,,,,,,,,,,,,,,,,,,,,,,,,,,
,,,,,V3_087,19,male,2024-11-21_17h14.55.958,jersey_experiment_5_v3,2023.2.2,Win32,84.74576271,,,,,,,,,,,,,,,,548.0561,549.6087,549.6088,553.3384,return,1.5065,,24.21875,,,,,,FBP-RB-81.png,0.37,1.2,52,0.75,0,9,9,51,1,,,,,,,,,,,,,,,,,,,,,,,,,,,,,,,,,,,,,,,,
,,,,,V3_087,19,male,2024-11-21_17h14.55.958,jersey_experiment_5_v3,2023.2.2,Win32,84.74576271,,,,,,,,,,,,,,,,553.3386,554.8912,554.8912,558.0679,return,1.2905,,49.34895833,,,,,,FBP-YG-18.png,0.4,1.2,8,0.75,0,10,10,7,1,,,,,,,,,,,,,,,,,,,,,,,,,,,,,,,,,,,,,,,,
,,,,,V3_087,19,male,2024-11-21_17h14.55.958,jersey_experiment_5_v3,2023.2.2,Win32,84.74576271,,,,,,,,,,,,,,,,558.0681,559.6209,559.621,565.9624,return,1.3281,,77.34375,,,,,,FBP-RB-91.png,0.45,1.2,60,0.75,0,11,11,59,1,,,,,,,,,,,,,,,,,,,,,,,,,,,,,,,,,,,,,,,,
,,,,,V3_087,19,male,2024-11-21_17h14.55.958,jersey_experiment_5_v3,2023.2.2,Win32,84.74576271,,,,,,,,,,,,,,,,565.9626,567.5153,567.5153,571.4803,return,1.2242,,90.49479167,,,,,,FBP-PT-81.png,0.45,1.2,25,0.75,0,12,12,24,1,,,,,,,,,,,,,,,,,,,,,,,,,,,,,,,,,,,,,,,,
,,,,,V3_087,19,male,2024-11-21_17h14.55.958,jersey_experiment_5_v3,2023.2.2,Win32,84.74576271,,,,,,,,,,,,,,,,571.4806,573.0333,573.0333,577.3392,return,1.4354,,23.95833333,,,,,,FBP-YG-17.png,0.35,1.2,1,0.75,0,13,13,0,1,,,,,,,,,,,,,,,,,,,,,,,,,,,,,,,,,,,,,,,,
,,,,,V3_087,19,male,2024-11-21_17h14.55.958,jersey_experiment_5_v3,2023.2.2,Win32,84.74576271,,,,,,,,,,,,,,,,577.3395,578.8922,578.8923,582.3748,return,1.0846,,64.71354167,,,,,,FBP-PT-91.png,0.4,1.2,28,0.75,0,14,14,27,1,,,,,,,,,,,,,,,,,,,,,,,,,,,,,,,,,,,,,,,,
,,,,,V3_087,19,male,2024-11-21_17h14.55.958,jersey_experiment_5_v3,2023.2.2,Win32,84.74576271,,,,,,,,,,,,,,,,582.3751,583.9276,583.9277,589.375,return,3.0589,,86.71875,,,,,,FBP-YG-19.png,0.45,1.2,15,0.75,0,15,15,14,1,,,,,,,,,,,,,,,,,,,,,,,,,,,,,,,,,,,,,,,,
,,,,,V3_087,19,male,2024-11-21_17h14.55.958,jersey_experiment_5_v3,2023.2.2,Win32,84.74576271,,,,,,,,,,,,,,,,589.3752,590.9281,590.9281,596.5401,return,2.8155,,64.71354167,,,,,,FBP-PT-81.png,0.4,1.2,23,0.75,0,16,16,22,1,,,,,,,,,,,,,,,,,,,,,,,,,,,,,,,,,,,,,,,,
,,,,,V3_087,19,male,2024-11-21_17h14.55.958,jersey_experiment_5_v3,2023.2.2,Win32,84.74576271,,,,,,,,,,,,,,,,596.5404,597.8342,597.8343,604.6462,return,2.1235,,56.51041667,,,,,,FBP-OG-71.png,0.4,1.2,33,0.5,0,17,17,32,1,,,,,,,,,,,,,,,,,,,,,,,,,,,,,,,,,,,,,,,,
,,,,,V3_087,19,male,2024-11-21_17h14.55.958,jersey_experiment_5_v3,2023.2.2,Win32,84.74576271,,,,,,,,,,,,,,,,604.6465,606.1992,606.1993,610.5523,return,1.604,,64.19270833,,,,,,FBP-YG-18.png,0.43,1.2,9,0.75,0,18,18,8,1,,,,,,,,,,,,,,,,,,,,,,,,,,,,,,,,,,,,,,,,
,,,,,V3_087,19,male,2024-11-21_17h14.55.958,jersey_experiment_5_v3,2023.2.2,Win32,84.74576271,,,,,,,,,,,,,,,,610.5526,612.1052,612.1053,617.2113,return,1.326,,70.44270833,,,,,,FBP-PT-91.png,0.43,1.2,29,0.75,0,19,19,28,1,,,,,,,,,,,,,,,,,,,,,,,,,,,,,,,,,,,,,,,,
,,,,,V3_087,19,male,2024-11-21_17h14.55.958,jersey_experiment_5_v3,2023.2.2,Win32,84.74576271,,,,,,,,,,,,,,,,617.2115,618.5056,618.5056,623.3881,return,0.9074,,91.66666667,,,,,,FBP-OG-91.png,0.45,1.2,45,0.5,0,20,20,44,1,,,,,,,,,,,,,,,,,,,,,,,,,,,,,,,,,,,,,,,,
,,,,,V3_087,19,male,2024-11-21_17h14.55.958,jersey_experiment_5_v3,2023.2.2,Win32,84.74576271,,,,,,,,,,,,,,,,623.3885,624.9412,624.9412,628.7412,return,1.325,,86.97916667,,,,,,FBP-PT-81.png,0.43,1.2,24,0.75,0,21,21,23,1,,,,,,,,,,,,,,,,,,,,,,,,,,,,,,,,,,,,,,,,
,,,,,V3_087,19,male,2024-11-21_17h14.55.958,jersey_experiment_5_v3,2023.2.2,Win32,84.74576271,,,,,,,,,,,,,,,,628.7415,630.0355,630.0356,634.4944,return,1.8742,,12.63020833,,,,,,FBP-OG-71.png,0.35,1.2,31,0.5,0,22,22,30,1,,,,,,,,,,,,,,,,,,,,,,,,,,,,,,,,,,,,,,,,
,,,,,V3_087,19,male,2024-11-21_17h14.55.958,jersey_experiment_5_v3,2023.2.2,Win32,84.74576271,,,,,,,,,,,,,,,,634.4948,636.0473,636.0473,639.9887,return,1.2387,,47.00520833,,,,,,FBP-RB-91.png,0.37,1.2,57,0.75,0,23,23,56,1,,,,,,,,,,,,,,,,,,,,,,,,,,,,,,,,,,,,,,,,
,,,,,V3_087,19,male,2024-11-21_17h14.55.958,jersey_experiment_5_v3,2023.2.2,Win32,84.74576271,,,,,,,,,,,,,,,,639.989,641.5417,641.5417,645.9654,return,1.0825,,71.74479167,,,,,,FBP-RB-81.png,0.43,1.2,54,0.75,0,24,24,53,1,,,,,,,,,,,,,,,,,,,,,,,,,,,,,,,,,,,,,,,,
,,,,,V3_087,19,male,2024-11-21_17h14.55.958,jersey_experiment_5_v3,2023.2.2,Win32,84.74576271,,,,,,,,,,,,,,,,645.9658,647.5184,647.5184,650.9186,return,1.2974,,16.40625,,,,,,FBP-RB-81.png,0.35,1.2,51,0.75,0,25,25,50,1,,,,,,,,,,,,,,,,,,,,,,,,,,,,,,,,,,,,,,,,
,,,,,V3_087,19,male,2024-11-21_17h14.55.958,jersey_experiment_5_v3,2023.2.2,Win32,84.74576271,,,,,,,,,,,,,,,,650.9189,652.2127,652.2128,655.413,return,0.9603,,21.74479167,,,,,,FBP-OG-91.png,0.35,1.2,41,0.5,0,26,26,40,1,,,,,,,,,,,,,,,,,,,,,,,,,,,,,,,,,,,,,,,,
,,,,,V3_087,19,male,2024-11-21_17h14.55.958,jersey_experiment_5_v3,2023.2.2,Win32,84.74576271,,,,,,,,,,,,,,,,655.4131,656.707,656.7071,660.3895,return,0.8172,,74.34895833,,,,,,FBP-OG-71.png,0.43,1.2,34,0.5,0,27,27,33,1,,,,,,,,,,,,,,,,,,,,,,,,,,,,,,,,,,,,,,,,
,,,,,V3_087,19,male,2024-11-21_17h14.55.958,jersey_experiment_5_v3,2023.2.2,Win32,84.74576271,,,,,,,,,,,,,,,,660.3898,661.9424,661.9425,665.6251,return,0.9804,,30.078125,,,,,,FBP-RB-91.png,0.35,1.2,56,0.75,0,28,28,55,1,,,,,,,,,,,,,,,,,,,,,,,,,,,,,,,,,,,,,,,,
,,,,,V3_087,19,male,2024-11-21_17h14.55.958,jersey_experiment_5_v3,2023.2.2,Win32,84.74576271,,,,,,,,,,,,,,,,665.6254,667.178,667.1781,670.3075,return,0.8297,,49.86979167,,,,,,FBP-YG-19.png,0.37,1.2,12,0.75,0,29,29,11,1,,,,,,,,,,,,,,,,,,,,,,,,,,,,,,,,,,,,,,,,
,,,,,V3_087,19,male,2024-11-21_17h14.55.958,jersey_experiment_5_v3,2023.2.2,Win32,84.74576271,,,,,,,,,,,,,,,,670.3077,671.8606,671.8606,675.0137,return,1.4142,,94.40104167,,,,,,FBP-PT-71.png,0.45,1.2,20,0.75,0,30,30,19,1,,,,,,,,,,,,,,,,,,,,,,,,,,,,,,,,,,,,,,,,
,,,,,V3_087,19,male,2024-11-21_17h14.55.958,jersey_experiment_5_v3,2023.2.2,Win32,84.74576271,,,,,,,,,,,,,,,,675.0139,676.3079,676.3079,679.6844,return,0.934,,69.40104167,,,,,,FBP-OG-91.png,0.4,1.2,43,0.5,0,31,31,42,1,,,,,,,,,,,,,,,,,,,,,,,,,,,,,,,,,,,,,,,,
,,,,,V3_087,19,male,2024-11-21_17h14.55.958,jersey_experiment_5_v3,2023.2.2,Win32,84.74576271,,,,,,,,,,,,,,,,679.6847,681.2374,681.2374,685.614,return,1.0357,,74.34895833,,,,,,FBP-RB-71.png,0.43,1.2,49,0.75,0,32,32,48,1,,,,,,,,,,,,,,,,,,,,,,,,,,,,,,,,,,,,,,,,
,,,,,V3_087,19,male,2024-11-21_17h14.55.958,jersey_experiment_5_v3,2023.2.2,Win32,84.74576271,,,,,,,,,,,,,,,,685.6142,687.1671,687.1671,691.2613,return,1.1535,,48.69791667,,,,,,FBP-PT-81.png,0.37,1.2,22,0.75,0,33,33,21,1,,,,,,,,,,,,,,,,,,,,,,,,,,,,,,,,,,,,,,,,
,,,,,V3_087,19,male,2024-11-21_17h14.55.958,jersey_experiment_5_v3,2023.2.2,Win32,84.74576271,,,,,,,,,,,,,,,,691.2616,692.8142,692.8142,695.9792,return,0.9334,,24.34895833,,,,,,FBP-YG-18.png,0.35,1.2,6,0.75,0,34,34,5,1,,,,,,,,,,,,,,,,,,,,,,,,,,,,,,,,,,,,,,,,
,,,,,V3_087,19,male,2024-11-21_17h14.55.958,jersey_experiment_5_v3,2023.2.2,Win32,84.74576271,,,,,,,,,,,,,,,,695.9794,697.5321,697.5321,701.7558,return,1.1766,,75.390625,,,,,,FBP-YG-17.png,0.45,1.2,5,0.75,0,35,35,4,1,,,,,,,,,,,,,,,,,,,,,,,,,,,,,,,,,,,,,,,,
,,,,,V3_087,19,male,2024-11-21_17h14.55.958,jersey_experiment_5_v3,2023.2.2,Win32,84.74576271,,,,,,,,,,,,,,,,701.756,703.05,703.05,707.6737,return,1.2015,,32.8125,,,,,,FBP-OG-81.png,0.35,1.2,36,0.5,0,36,36,35,1,,,,,,,,,,,,,,,,,,,,,,,,,,,,,,,,,,,,,,,,
,,,,,V3_087,19,male,2024-11-21_17h14.55.958,jersey_experiment_5_v3,2023.2.2,Win32,84.74576271,,,,,,,,,,,,,,,,707.674,709.2267,709.2268,711.9916,return,0.7892,,16.66666667,,,,,,FBP-YG-19.png,0.35,1.2,11,0.75,0,37,37,10,1,,,,,,,,,,,,,,,,,,,,,,,,,,,,,,,,,,,,,,,,
,,,,,V3_087,19,male,2024-11-21_17h14.55.958,jersey_experiment_5_v3,2023.2.2,Win32,84.74576271,,,,,,,,,,,,,,,,711.9918,713.5445,713.5445,716.8271,return,1.2851,,71.875,,,,,,FBP-RB-81.png,0.4,1.2,53,0.75,0,38,38,52,1,,,,,,,,,,,,,,,,,,,,,,,,,,,,,,,,,,,,,,,,
,,,,,V3_087,19,male,2024-11-21_17h14.55.958,jersey_experiment_5_v3,2023.2.2,Win32,84.74576271,,,,,,,,,,,,,,,,716.8273,718.1212,718.1213,723.2743,return,1.4511,,61.06770833,,,,,,FBP-OG-71.png,0.37,1.2,32,0.5,0,39,39,31,1,,,,,,,,,,,,,,,,,,,,,,,,,,,,,,,,,,,,,,,,
,,,,,V3_087,19,male,2024-11-21_17h14.55.958,jersey_experiment_5_v3,2023.2.2,Win32,84.74576271,,,,,,,,,,,,,,,,723.2746,724.8273,724.8273,728.8628,return,1.3648,,49.609375,,,,,,FBP-PT-91.png,0.37,1.2,27,0.75,0,40,40,26,1,,,,,,,,,,,,,,,,,,,,,,,,,,,,,,,,,,,,,,,,
,,,,,V3_087,19,male,2024-11-21_17h14.55.958,jersey_experiment_5_v3,2023.2.2,Win32,84.74576271,,,,,,,,,,,,,,,,728.8632,730.157,730.157,733.6747,return,1.2968,,80.98958333,,,,,,FBP-OG-81.png,0.43,1.2,39,0.5,0,41,41,38,1,,,,,,,,,,,,,,,,,,,,,,,,,,,,,,,,,,,,,,,,
,,,,,V3_087,19,male,2024-11-21_17h14.55.958,jersey_experiment_5_v3,2023.2.2,Win32,84.74576271,,,,,,,,,,,,,,,,733.6749,735.2278,735.2278,739.4278,return,1.3355,,83.203125,,,,,,FBP-YG-19.png,0.43,1.2,14,0.75,0,42,42,13,1,,,,,,,,,,,,,,,,,,,,,,,,,,,,,,,,,,,,,,,,
,,,,,V3_087,19,male,2024-11-21_17h14.55.958,jersey_experiment_5_v3,2023.2.2,Win32,84.74576271,,,,,,,,,,,,,,,,739.4281,740.9809,740.9809,744.581,return,1.372,,25.65104167,,,,,,FBP-PT-81.png,0.35,1.2,21,0.75,0,43,43,20,1,,,,,,,,,,,,,,,,,,,,,,,,,,,,,,,,,,,,,,,,
,,,,,V3_087,19,male,2024-11-21_17h14.55.958,jersey_experiment_5_v3,2023.2.2,Win32,84.74576271,,,,,,,,,,,,,,,,744.5812,746.1339,746.134,749.6517,return,1.3849,,44.79166667,,,,,,FBP-RB-71.png,0.37,1.2,47,0.75,0,44,44,46,1,,,,,,,,,,,,,,,,,,,,,,,,,,,,,,,,,,,,,,,,
,,,,,V3_087,19,male,2024-11-21_17h14.55.958,jersey_experiment_5_v3,2023.2.2,Win32,84.74576271,,,,,,,,,,,,,,,,749.652,750.946,750.946,755.6519,return,1.2437,,56.38020833,,,,,,FBP-OG-81.png,0.4,1.2,38,0.5,0,45,45,37,1,,,,,,,,,,,,,,,,,,,,,,,,,,,,,,,,,,,,,,,,
,,,,,V3_087,19,male,2024-11-21_17h14.55.958,jersey_experiment_5_v3,2023.2.2,Win32,84.74576271,,,,,,,,,,,,,,,,755.6522,756.9462,756.9463,759.4287,return,0.8631,,49.86979167,,,,,,FBP-OG-81.png,0.37,1.2,37,0.5,0,46,46,36,1,,,,,,,,,,,,,,,,,,,,,,,,,,,,,,,,,,,,,,,,
,,,,,V3_087,19,male,2024-11-21_17h14.55.958,jersey_experiment_5_v3,2023.2.2,Win32,84.74576271,,,,,,,,,,,,,,,,759.4292,760.9816,760.9817,764.4406,return,1.2042,,79.81770833,,,,,,FBP-PT-71.png,0.43,1.2,19,0.75,0,47,47,18,1,,,,,,,,,,,,,,,,,,,,,,,,,,,,,,,,,,,,,,,,
,,,,,V3_087,19,male,2024-11-21_17h14.55.958,jersey_experiment_5_v3,2023.2.2,Win32,84.74576271,,,,,,,,,,,,,,,,764.4409,765.9935,765.9936,770.0409,return,1.2506,,34.63541667,,,,,,FBP-RB-71.png,0.35,1.2,46,0.75,0,48,48,45,1,,,,,,,,,,,,,,,,,,,,,,,,,,,,,,,,,,,,,,,,
,,,,,V3_087,19,male,2024-11-21_17h14.55.958,jersey_experiment_5_v3,2023.2.2,Win32,84.74576271,,,,,,,,,,,,,,,,770.0411,771.5938,771.5939,774.4527,return,1.0781,,91.40625,,,,,,FBP-YG-18.png,0.45,1.2,10,0.75,0,49,49,9,1,,,,,,,,,,,,,,,,,,,,,,,,,,,,,,,,,,,,,,,,
,,,,,V3_087,19,male,2024-11-21_17h14.55.958,jersey_experiment_5_v3,2023.2.2,Win32,84.74576271,,,,,,,,,,,,,,,,774.4529,776.0057,776.0057,779.3589,return,0.9415,,46.74479167,,,,,,FBP-PT-91.png,0.35,1.2,26,0.75,0,50,50,25,1,,,,,,,,,,,,,,,,,,,,,,,,,,,,,,,,,,,,,,,,
,,,,,V3_087,19,male,2024-11-21_17h14.55.958,jersey_experiment_5_v3,2023.2.2,Win32,84.74576271,,,,,,,,,,,,,,,,779.359,780.9117,780.9117,784.4297,return,1.0352,,74.47916667,,,,,,FBP-RB-91.png,0.43,1.2,59,0.75,0,51,51,58,1,,,,,,,,,,,,,,,,,,,,,,,,,,,,,,,,,,,,,,,,
,,,,,V3_087,19,male,2024-11-21_17h14.55.958,jersey_experiment_5_v3,2023.2.2,Win32,84.74576271,,,,,,,,,,,,,,,,784.4299,785.9826,785.9827,788.9004,return,0.82,,49.47916667,,,,,,FBP-RB-71.png,0.4,1.2,48,0.75,0,52,52,47,1,,,,,,,,,,,,,,,,,,,,,,,,,,,,,,,,,,,,,,,,
,,,,,V3_087,19,male,2024-11-21_17h14.55.958,jersey_experiment_5_v3,2023.2.2,Win32,84.74576271,,,,,,,,,,,,,,,,788.9007,790.4534,790.4535,793.077,return,0.7689,,53.64583333,,,,,,FBP-YG-19.png,0.4,1.2,13,0.75,0,53,53,12,1,,,,,,,,,,,,,,,,,,,,,,,,,,,,,,,,,,,,,,,,
,,,,,V3_087,19,male,2024-11-21_17h14.55.958,jersey_experiment_5_v3,2023.2.2,Win32,84.74576271,,,,,,,,,,,,,,,,793.0773,794.3711,794.3712,797.6773,return,1.2238,,34.11458333,,,,,,FBP-OG-91.png,0.37,1.2,42,0.5,0,54,54,41,1,,,,,,,,,,,,,,,,,,,,,,,,,,,,,,,,,,,,,,,,
,,,,,V3_087,19,male,2024-11-21_17h14.55.958,jersey_experiment_5_v3,2023.2.2,Win32,84.74576271,,,,,,,,,,,,,,,,797.6774,798.9715,798.9715,802.9244,return,1.192,,91.40625,,,,,,FBP-OG-81.png,0.45,1.2,40,0.5,0,55,55,39,1,,,,,,,,,,,,,,,,,,,,,,,,,,,,,,,,,,,,,,,,
,,,,,V3_087,19,male,2024-11-21_17h14.55.958,jersey_experiment_5_v3,2023.2.2,Win32,84.74576271,,,,,,,,,,,,,,,,802.9247,804.2185,804.2186,809.1953,return,1.4208,,72.13541667,,,,,,FBP-OG-91.png,0.43,1.2,44,0.5,0,56,56,43,1,,,,,,,,,,,,,,,,,,,,,,,,,,,,,,,,,,,,,,,,
,,,,,V3_087,19,male,2024-11-21_17h14.55.958,jersey_experiment_5_v3,2023.2.2,Win32,84.74576271,,,,,,,,,,,,,,,,809.1957,810.7481,810.7482,816.7485,return,0.8708,,69.27083333,,,,,,FBP-YG-17.png,0.43,1.2,4,0.75,0,57,57,3,1,,,,,,,,,,,,,,,,,,,,,,,,,,,,,,,,,,,,,,,,
,,,,,V3_087,19,male,2024-11-21_17h14.55.958,jersey_experiment_5_v3,2023.2.2,Win32,84.74576271,,,,,,,,,,,,,,,,816.7487,818.3015,818.3015,822.0546,return,1.0379,,45.83333333,,,,,,FBP-PT-71.png,0.37,1.2,17,0.75,0,58,58,16,1,,,,,,,,,,,,,,,,,,,,,,,,,,,,,,,,,,,,,,,,
,,,,,V3_087,19,male,2024-11-21_17h14.55.958,jersey_experiment_5_v3,2023.2.2,Win32,84.74576271,,,,,,,,,,,,,,,,822.0548,823.6075,823.6075,827.9137,return,1.0507,,49.34895833,,,,,,FBP-YG-17.png,0.37,1.2,2,0.75,0,59,59,1,1,,,,,,,,,,,,,,,,,,,,,,,,,,,,,,,,,,,,,,,,
,,,,,V3_087,19,male,2024-11-21_17h14.55.958,jersey_experiment_5_v3,2023.2.2,Win32,84.74576271,,,,,,,,,,,,,,,,,,,,,,,,,,,,,,,,,,,,,,,827.9138,947.9065,,,,,,,,,,,,,,,,,,,,,,,,,,,,,,,,,,,,,,
,,,,,V3_087,19,male,2024-11-21_17h14.55.958,jersey_experiment_5_v3,2023.2.2,Win32,84.74576271,,,,,,,,,,,,,,,,,,,,,,,,,,,,,,,,,,,,,,,,,947.9065,957.4833,return,9.565,,,,,,,,,,,,,,,,,,,,,,,,,,,,,,,,,,
,,,,,V3_087,19,male,2024-11-21_17h14.55.958,jersey_experiment_5_v3,2023.2.2,Win32,84.74576271,,,,,,,,,,,,,,,,957.4848,958.7776,958.7776,962.0718,return,0.9796,,24.73958333,,,,,,FBP-PT-17.png,0.35,1.2,16,0.5,,,,,,,,,,,,,0,0,0,15,1,,,,,,,,,,,,,,,,,,,,,,,,,,,,
,,,,,V3_087,19,male,2024-11-21_17h14.55.958,jersey_experiment_5_v3,2023.2.2,Win32,84.74576271,,,,,,,,,,,,,,,,962.072,963.3659,963.3659,965.8837,return,0.8563,,34.11458333,,,,,,FBP-PT-19.png,0.37,1.2,27,0.5,,,,,,,,,,,,,0,1,1,26,1,,,,,,,,,,,,,,,,,,,,,,,,,,,,
,,,,,V3_087,19,male,2024-11-21_17h14.55.958,jersey_experiment_5_v3,2023.2.2,Win32,84.74576271,,,,,,,,,,,,,,,,965.884,967.1778,967.1778,970.5544,return,0.8624,,74.73958333,,,,,,FBP-PT-19.png,0.4,1.2,28,0.5,,,,,,,,,,,,,0,2,2,27,1,,,,,,,,,,,,,,,,,,,,,,,,,,,,
,,,,,V3_087,19,male,2024-11-21_17h14.55.958,jersey_experiment_5_v3,2023.2.2,Win32,84.74576271,,,,,,,,,,,,,,,,970.5546,971.8485,971.8485,975.3428,return,1.2943,,81.77083333,,,,,,FBP-YG-71.png,0.43,1.2,4,0.5,,,,,,,,,,,,,0,3,3,3,1,,,,,,,,,,,,,,,,,,,,,,,,,,,,
,,,,,V3_087,19,male,2024-11-21_17h14.55.958,jersey_experiment_5_v3,2023.2.2,Win32,84.74576271,,,,,,,,,,,,,,,,975.343,976.637,976.637,979.9312,return,1.0209,,24.73958333,,,,,,FBP-PT-18.png,0.35,1.2,21,0.5,,,,,,,,,,,,,0,4,4,20,1,,,,,,,,,,,,,,,,,,,,,,,,,,,,
,,,,,V3_087,19,male,2024-11-21_17h14.55.958,jersey_experiment_5_v3,2023.2.2,Win32,84.74576271,,,,,,,,,,,,,,,,979.9314,981.2254,981.2254,985.9784,return,1.0843,,73.17708333,,,,,,FBP-PT-17.png,0.4,1.2,18,0.5,,,,,,,,,,,,,0,5,5,17,1,,,,,,,,,,,,,,,,,,,,,,,,,,,,
,,,,,V3_087,19,male,2024-11-21_17h14.55.958,jersey_experiment_5_v3,2023.2.2,Win32,84.74576271,,,,,,,,,,,,,,,,985.9787,987.2727,987.2727,991.6728,return,0.9769,,16.27604167,,,,,,FBP-RB-17.png,0.35,1.2,46,0.5,,,,,,,,,,,,,0,6,6,45,1,,,,,,,,,,,,,,,,,,,,,,,,,,,,
,,,,,V3_087,19,male,2024-11-21_17h14.55.958,jersey_experiment_5_v3,2023.2.2,Win32,84.74576271,,,,,,,,,,,,,,,,991.673,993.2259,993.226,996.8142,return,1.3177,,33.33333333,,,,,,FBP-OG-18.png,0.35,1.2,36,0.75,,,,,,,,,,,,,0,7,7,35,1,,,,,,,,,,,,,,,,,,,,,,,,,,,,
,,,,,V3_087,19,male,2024-11-21_17h14.55.958,jersey_experiment_5_v3,2023.2.2,Win32,84.74576271,,,,,,,,,,,,,,,,996.8145,998.3672,998.3673,1002.2968,return,1.5791,,96.875,,,,,,FBP-OG-19.png,0.45,1.2,45,0.75,,,,,,,,,,,,,0,8,8,44,1,,,,,,,,,,,,,,,,,,,,,,,,,,,,
,,,,,V3_087,19,male,2024-11-21_17h14.55.958,jersey_experiment_5_v3,2023.2.2,Win32,84.74576271,,,,,,,,,,,,,,,,1002.297,1003.8499,1003.8499,1007.7324,return,1.0316,,25,,,,,,FBP-OG-19.png,0.35,1.2,41,0.75,,,,,,,,,,,,,0,9,9,40,1,,,,,,,,,,,,,,,,,,,,,,,,,,,,
,,,,,V3_087,19,male,2024-11-21_17h14.55.958,jersey_experiment_5_v3,2023.2.2,Win32,84.74576271,,,,,,,,,,,,,,,,1007.7326,1009.0264,1009.0264,1013.109,return,1.4431,,76.30208333,,,,,,FBP-YG-71.png,0.4,1.2,3,0.5,,,,,,,,,,,,,0,10,10,2,1,,,,,,,,,,,,,,,,,,,,,,,,,,,,
,,,,,V3_087,19,male,2024-11-21_17h14.55.958,jersey_experiment_5_v3,2023.2.2,Win32,84.74576271,,,,,,,,,,,,,,,,1013.1092,1014.4031,1014.4033,1017.9327,return,1.1379,,95.703125,,,,,,FBP-RB-19.png,0.43,1.2,59,0.5,,,,,,,,,,,,,0,11,11,58,1,,,,,,,,,,,,,,,,,,,,,,,,,,,,
,,,,,V3_087,19,male,2024-11-21_17h14.55.958,jersey_experiment_5_v3,2023.2.2,Win32,84.74576271,,,,,,,,,,,,,,,,1017.933,1019.2269,1019.2269,1022.78,return,1.0593,,49.609375,,,,,,FBP-YG-71.png,0.37,1.2,2,0.5,,,,,,,,,,,,,0,12,12,1,1,,,,,,,,,,,,,,,,,,,,,,,,,,,,
,,,,,V3_087,19,male,2024-11-21_17h14.55.958,jersey_experiment_5_v3,2023.2.2,Win32,84.74576271,,,,,,,,,,,,,,,,1022.7803,1024.0741,1024.0741,1027.0037,return,0.8219,,62.890625,,,,,,FBP-RB-19.png,0.4,1.2,58,0.5,,,,,,,,,,,,,0,13,13,57,1,,,,,,,,,,,,,,,,,,,,,,,,,,,,
,,,,,V3_087,19,male,2024-11-21_17h14.55.958,jersey_experiment_5_v3,2023.2.2,Win32,84.74576271,,,,,,,,,,,,,,,,1027.0039,1028.2979,1028.2979,1031.5803,return,1.0362,,31.640625,,,,,,FBP-YG-91.png,0.35,1.2,11,0.5,,,,,,,,,,,,,0,14,14,10,1,,,,,,,,,,,,,,,,,,,,,,,,,,,,
,,,,,V3_087,19,male,2024-11-21_17h14.55.958,jersey_experiment_5_v3,2023.2.2,Win32,84.74576271,,,,,,,,,,,,,,,,1031.5806,1032.8744,1032.8744,1035.8864,return,1.0361,,50.65104167,,,,,,FBP-PT-18.png,0.37,1.2,22,0.5,,,,,,,,,,,,,0,15,15,21,1,,,,,,,,,,,,,,,,,,,,,,,,,,,,
,,,,,V3_087,19,male,2024-11-21_17h14.55.958,jersey_experiment_5_v3,2023.2.2,Win32,84.74576271,,,,,,,,,,,,,,,,1035.8867,1037.1805,1037.1806,1041.6748,return,1.6017,,98.17708333,,,,,,FBP-PT-19.png,0.43,1.2,29,0.5,,,,,,,,,,,,,0,16,16,28,1,,,,,,,,,,,,,,,,,,,,,,,,,,,,
,,,,,V3_087,19,male,2024-11-21_17h14.55.958,jersey_experiment_5_v3,2023.2.2,Win32,84.74576271,,,,,,,,,,,,,,,,1041.6751,1042.9689,1042.969,1045.8632,return,0.9701,,85.9375,,,,,,FBP-RB-18.png,0.43,1.2,54,0.5,,,,,,,,,,,,,0,17,17,53,1,,,,,,,,,,,,,,,,,,,,,,,,,,,,
,,,,,V3_087,19,male,2024-11-21_17h14.55.958,jersey_experiment_5_v3,2023.2.2,Win32,84.74576271,,,,,,,,,,,,,,,,1045.8635,1047.4162,1047.4162,1051.4517,return,1.0597,,51.69270833,,,,,,FBP-OG-18.png,0.37,1.2,37,0.75,,,,,,,,,,,,,0,18,18,36,1,,,,,,,,,,,,,,,,,,,,,,,,,,,,
,,,,,V3_087,19,male,2024-11-21_17h14.55.958,jersey_experiment_5_v3,2023.2.2,Win32,84.74576271,,,,,,,,,,,,,,,,1051.4519,1052.7459,1052.7459,1055.7812,return,0.8427,,43.359375,,,,,,FBP-RB-17.png,0.37,1.2,47,0.5,,,,,,,,,,,,,0,19,19,46,1,,,,,,,,,,,,,,,,,,,,,,,,,,,,
,,,,,V3_087,19,male,2024-11-21_17h14.55.958,jersey_experiment_5_v3,2023.2.2,Win32,84.74576271,,,,,,,,,,,,,,,,1055.7815,1057.0754,1057.0754,1060.252,return,1.1542,,76.5625,,,,,,FBP-YG-81.png,0.43,1.2,9,0.5,,,,,,,,,,,,,0,20,20,8,1,,,,,,,,,,,,,,,,,,,,,,,,,,,,
,,,,,V3_087,19,male,2024-11-21_17h14.55.958,jersey_experiment_5_v3,2023.2.2,Win32,84.74576271,,,,,,,,,,,,,,,,1060.2523,1061.5461,1061.5462,1065.511,return,1.982,,92.578125,,,,,,FBP-RB-17.png,0.45,1.2,50,0.5,,,,,,,,,,,,,0,21,21,49,1,,,,,,,,,,,,,,,,,,,,,,,,,,,,
,,,,,V3_087,19,male,2024-11-21_17h14.55.958,jersey_experiment_5_v3,2023.2.2,Win32,84.74576271,,,,,,,,,,,,,,,,1065.5112,1066.8052,1066.8053,1070.1818,return,1.3596,,21.61458333,,,,,,FBP-YG-81.png,0.35,1.2,6,0.5,,,,,,,,,,,,,0,22,22,5,1,,,,,,,,,,,,,,,,,,,,,,,,,,,,
,,,,,V3_087,19,male,2024-11-21_17h14.55.958,jersey_experiment_5_v3,2023.2.2,Win32,84.74576271,,,,,,,,,,,,,,,,1070.1821,1071.4759,1071.476,1075.3231,return,1.6335,,49.47916667,,,,,,FBP-YG-81.png,0.4,1.2,8,0.5,,,,,,,,,,,,,0,23,23,7,1,,,,,,,,,,,,,,,,,,,,,,,,,,,,
,,,,,V3_087,19,male,2024-11-21_17h14.55.958,jersey_experiment_5_v3,2023.2.2,Win32,84.74576271,,,,,,,,,,,,,,,,1075.3234,1076.6173,1076.6173,1081.4058,return,1.9685,,26.04166667,,,,,,FBP-RB-19.png,0.35,1.2,56,0.5,,,,,,,,,,,,,0,24,24,55,1,,,,,,,,,,,,,,,,,,,,,,,,,,,,
,,,,,V3_087,19,male,2024-11-21_17h14.55.958,jersey_experiment_5_v3,2023.2.2,Win32,84.74576271,,,,,,,,,,,,,,,,1081.4061,1082.9586,1082.9586,1085.853,return,0.8703,,36.71875,,,,,,FBP-OG-19.png,0.37,1.2,42,0.75,,,,,,,,,,,,,0,25,25,41,1,,,,,,,,,,,,,,,,,,,,,,,,,,,,
,,,,,V3_087,19,male,2024-11-21_17h14.55.958,jersey_experiment_5_v3,2023.2.2,Win32,84.74576271,,,,,,,,,,,,,,,,1085.8532,1087.1472,1087.1472,1089.8768,return,0.8198,,68.48958333,,,,,,FBP-RB-17.png,0.4,1.2,48,0.5,,,,,,,,,,,,,0,26,26,47,1,,,,,,,,,,,,,,,,,,,,,,,,,,,,
,,,,,V3_087,19,male,2024-11-21_17h14.55.958,jersey_experiment_5_v3,2023.2.2,Win32,84.74576271,,,,,,,,,,,,,,,,1089.877,1091.1709,1091.1709,1093.7709,return,1.0449,,74.86979167,,,,,,FBP-RB-18.png,0.4,1.2,53,0.5,,,,,,,,,,,,,0,27,27,52,1,,,,,,,,,,,,,,,,,,,,,,,,,,,,
,,,,,V3_087,19,male,2024-11-21_17h14.55.958,jersey_experiment_5_v3,2023.2.2,Win32,84.74576271,,,,,,,,,,,,,,,,1093.7712,1095.065,1095.065,1098.0888,return,1.0596,,93.22916667,,,,,,FBP-PT-17.png,0.45,1.2,20,0.5,,,,,,,,,,,,,0,28,28,19,1,,,,,,,,,,,,,,,,,,,,,,,,,,,,
,,,,,V3_087,19,male,2024-11-21_17h14.55.958,jersey_experiment_5_v3,2023.2.2,Win32,84.74576271,,,,,,,,,,,,,,,,1098.0891,1099.6418,1099.6418,1103.4184,return,1.6258,,26.04166667,,,,,,FBP-OG-17.png,0.37,1.2,32,0.75,,,,,,,,,,,,,0,29,29,31,1,,,,,,,,,,,,,,,,,,,,,,,,,,,,
,,,,,V3_087,19,male,2024-11-21_17h14.55.958,jersey_experiment_5_v3,2023.2.2,Win32,84.74576271,,,,,,,,,,,,,,,,1103.4186,1104.9713,1104.9714,1107.5009,return,0.9092,,24.47916667,,,,,,FBP-OG-17.png,0.35,1.2,31,0.75,,,,,,,,,,,,,0,30,30,30,1,,,,,,,,,,,,,,,,,,,,,,,,,,,,
,,,,,V3_087,19,male,2024-11-21_17h14.55.958,jersey_experiment_5_v3,2023.2.2,Win32,84.74576271,,,,,,,,,,,,,,,,1107.5012,1108.795,1108.7951,1112.0422,return,1.0278,,78.125,,,,,,FBP-RB-17.png,0.43,1.2,49,0.5,,,,,,,,,,,,,0,31,31,48,1,,,,,,,,,,,,,,,,,,,,,,,,,,,,
,,,,,V3_087,19,male,2024-11-21_17h14.55.958,jersey_experiment_5_v3,2023.2.2,Win32,84.74576271,,,,,,,,,,,,,,,,1112.0424,1113.3364,1113.3364,1117.6071,return,2.0997,,96.74479167,,,,,,FBP-PT-18.png,0.43,1.2,24,0.5,,,,,,,,,,,,,0,32,32,23,1,,,,,,,,,,,,,,,,,,,,,,,,,,,,
,,,,,V3_087,19,male,2024-11-21_17h14.55.958,jersey_experiment_5_v3,2023.2.2,Win32,84.74576271,,,,,,,,,,,,,,,,1117.6073,1119.1601,1119.1601,1123.5015,return,1.6231,,67.83854167,,,,,,FBP-OG-19.png,0.4,1.2,43,0.75,,,,,,,,,,,,,0,33,33,42,1,,,,,,,,,,,,,,,,,,,,,,,,,,,,
,,,,,V3_087,19,male,2024-11-21_17h14.55.958,jersey_experiment_5_v3,2023.2.2,Win32,84.74576271,,,,,,,,,,,,,,,,1123.5018,1124.7957,1124.7957,1129.1253,return,0.8425,,64.84375,,,,,,FBP-PT-18.png,0.4,1.2,23,0.5,,,,,,,,,,,,,0,34,34,22,1,,,,,,,,,,,,,,,,,,,,,,,,,,,,
,,,,,V3_087,19,male,2024-11-21_17h14.55.958,jersey_experiment_5_v3,2023.2.2,Win32,84.74576271,,,,,,,,,,,,,,,,1129.1255,1130.4194,1130.4194,1133.3254,return,0.9029,,72.78645833,,,,,,FBP-YG-91.png,0.43,1.2,14,0.5,,,,,,,,,,,,,0,35,35,13,1,,,,,,,,,,,,,,,,,,,,,,,,,,,,
,,,,,V3_087,19,male,2024-11-21_17h14.55.958,jersey_experiment_5_v3,2023.2.2,Win32,84.74576271,,,,,,,,,,,,,,,,1133.3257,1134.6196,1134.6196,1137.302,return,0.768,,49.08854167,,,,,,FBP-RB-19.png,0.37,1.2,57,0.5,,,,,,,,,,,,,0,36,36,56,1,,,,,,,,,,,,,,,,,,,,,,,,,,,,
,,,,,V3_087,19,male,2024-11-21_17h14.55.958,jersey_experiment_5_v3,2023.2.2,Win32,84.74576271,,,,,,,,,,,,,,,,1137.3023,1138.5963,1138.5963,1141.2198,return,0.8757,,88.15104167,,,,,,FBP-RB-18.png,0.45,1.2,55,0.5,,,,,,,,,,,,,0,37,37,54,1,,,,,,,,,,,,,,,,,,,,,,,,,,,,
,,,,,V3_087,19,male,2024-11-21_17h14.55.958,jersey_experiment_5_v3,2023.2.2,Win32,84.74576271,,,,,,,,,,,,,,,,1141.2199,1142.7728,1142.7729,1145.0788,return,0.8753,,83.72395833,,,,,,FBP-OG-17.png,0.43,1.2,34,0.75,,,,,,,,,,,,,0,38,38,33,1,,,,,,,,,,,,,,,,,,,,,,,,,,,,
,,,,,V3_087,19,male,2024-11-21_17h14.55.958,jersey_experiment_5_v3,2023.2.2,Win32,84.74576271,,,,,,,,,,,,,,,,1145.079,1146.3729,1146.3729,1149.2554,return,0.7905,,24.73958333,,,,,,FBP-YG-81.png,0.37,1.2,7,0.5,,,,,,,,,,,,,0,39,39,6,1,,,,,,,,,,,,,,,,,,,,,,,,,,,,
,,,,,V3_087,19,male,2024-11-21_17h14.55.958,jersey_experiment_5_v3,2023.2.2,Win32,84.74576271,,,,,,,,,,,,,,,,1149.2556,1150.8084,1150.8085,1153.9027,return,1.3563,,51.43229167,,,,,,FBP-OG-18.png,0.4,1.2,38,0.75,,,,,,,,,,,,,0,40,40,37,1,,,,,,,,,,,,,,,,,,,,,,,,,,,,
,,,,,V3_087,19,male,2024-11-21_17h14.55.958,jersey_experiment_5_v3,2023.2.2,Win32,84.74576271,,,,,,,,,,,,,,,,1153.903,1155.1968,1155.1969,1158.2793,return,0.8963,,20.83333333,,,,,,FBP-YG-71.png,0.35,1.2,1,0.5,,,,,,,,,,,,,0,41,41,0,1,,,,,,,,,,,,,,,,,,,,,,,,,,,,
,,,,,V3_087,19,male,2024-11-21_17h14.55.958,jersey_experiment_5_v3,2023.2.2,Win32,84.74576271,,,,,,,,,,,,,,,,1158.2796,1159.8324,1159.8324,1162.5736,return,1.0433,,96.875,,,,,,FBP-OG-17.png,0.45,1.2,35,0.75,,,,,,,,,,,,,0,42,42,34,1,,,,,,,,,,,,,,,,,,,,,,,,,,,,
,,,,,V3_087,19,male,2024-11-21_17h14.55.958,jersey_experiment_5_v3,2023.2.2,Win32,84.74576271,,,,,,,,,,,,,,,,1162.5738,1164.1266,1164.1266,1167.7502,return,0.9947,,82.16145833,,,,,,FBP-OG-18.png,0.43,1.2,39,0.75,,,,,,,,,,,,,0,43,43,38,1,,,,,,,,,,,,,,,,,,,,,,,,,,,,
,,,,,V3_087,19,male,2024-11-21_17h14.55.958,jersey_experiment_5_v3,2023.2.2,Win32,84.74576271,,,,,,,,,,,,,,,,1167.7505,1169.3033,1169.3033,1172.0916,return,0.8596,,72.265625,,,,,,FBP-OG-17.png,0.4,1.2,33,0.75,,,,,,,,,,,,,0,44,44,32,1,,,,,,,,,,,,,,,,,,,,,,,,,,,,
,,,,,V3_087,19,male,2024-11-21_17h14.55.958,jersey_experiment_5_v3,2023.2.2,Win32,84.74576271,,,,,,,,,,,,,,,,1172.0918,1173.3858,1173.3858,1176.5389,return,1.2243,,24.08854167,,,,,,FBP-PT-19.png,0.35,1.2,26,0.5,,,,,,,,,,,,,0,45,45,25,1,,,,,,,,,,,,,,,,,,,,,,,,,,,,
,,,,,V3_087,19,male,2024-11-21_17h14.55.958,jersey_experiment_5_v3,2023.2.2,Win32,84.74576271,,,,,,,,,,,,,,,,1176.5391,1177.833,1177.8331,1181.3979,return,1.4508,,92.1875,,,,,,FBP-YG-71.png,0.45,1.2,5,0.5,,,,,,,,,,,,,0,46,46,4,1,,,,,,,,,,,,,,,,,,,,,,,,,,,,
,,,,,V3_087,19,male,2024-11-21_17h14.55.958,jersey_experiment_5_v3,2023.2.2,Win32,84.74576271,,,,,,,,,,,,,,,,1181.3981,1182.6919,1182.6919,1185.3392,return,0.9884,,96.875,,,,,,FBP-PT-18.png,0.45,1.2,25,0.5,,,,,,,,,,,,,0,47,47,24,1,,,,,,,,,,,,,,,,,,,,,,,,,,,,
,,,,,V3_087,19,male,2024-11-21_17h14.55.958,jersey_experiment_5_v3,2023.2.2,Win32,84.74576271,,,,,,,,,,,,,,,,1185.3395,1186.6334,1186.6334,1191.21,return,1.1087,,63.671875,,,,,,FBP-YG-91.png,0.4,1.2,13,0.5,,,,,,,,,,,,,0,48,48,12,1,,,,,,,,,,,,,,,,,,,,,,,,,,,,
,,,,,V3_087,19,male,2024-11-21_17h14.55.958,jersey_experiment_5_v3,2023.2.2,Win32,84.74576271,,,,,,,,,,,,,,,,1191.2103,1192.5042,1192.5042,1196.7632,return,1.0602,,86.06770833,,,,,,FBP-PT-17.png,0.43,1.2,19,0.5,,,,,,,,,,,,,0,49,49,18,1,,,,,,,,,,,,,,,,,,,,,,,,,,,,
,,,,,V3_087,19,male,2024-11-21_17h14.55.958,jersey_experiment_5_v3,2023.2.2,Win32,84.74576271,,,,,,,,,,,,,,,,1196.7634,1198.0573,1198.0573,1204.14,return,1.0827,,24.21875,,,,,,FBP-RB-18.png,0.35,1.2,51,0.5,,,,,,,,,,,,,0,50,50,50,1,,,,,,,,,,,,,,,,,,,,,,,,,,,,
,,,,,V3_087,19,male,2024-11-21_17h14.55.958,jersey_experiment_5_v3,2023.2.2,Win32,84.74576271,,,,,,,,,,,,,,,,1204.1402,1205.4341,1205.4342,1212.2345,return,1.5771,,88.41145833,,,,,,FBP-PT-19.png,0.45,1.2,30,0.5,,,,,,,,,,,,,0,51,51,29,1,,,,,,,,,,,,,,,,,,,,,,,,,,,,
,,,,,V3_087,19,male,2024-11-21_17h14.55.958,jersey_experiment_5_v3,2023.2.2,Win32,84.74576271,,,,,,,,,,,,,,,,1212.2348,1213.7872,1213.7872,1217.8463,return,1.0651,,91.14583333,,,,,,FBP-OG-18.png,0.45,1.2,40,0.75,,,,,,,,,,,,,0,52,52,39,1,,,,,,,,,,,,,,,,,,,,,,,,,,,,
,,,,,V3_087,19,male,2024-11-21_17h14.55.958,jersey_experiment_5_v3,2023.2.2,Win32,84.74576271,,,,,,,,,,,,,,,,1217.8466,1219.1405,1219.1405,1224.9877,return,2.073,,89.71354167,,,,,,FBP-YG-81.png,0.45,1.2,10,0.5,,,,,,,,,,,,,0,53,53,9,1,,,,,,,,,,,,,,,,,,,,,,,,,,,,
,,,,,V3_087,19,male,2024-11-21_17h14.55.958,jersey_experiment_5_v3,2023.2.2,Win32,84.74576271,,,,,,,,,,,,,,,,1224.9879,1226.282,1226.2821,1230.1055,return,1.0229,,40.88541667,,,,,,FBP-YG-91.png,0.37,1.2,12,0.5,,,,,,,,,,,,,0,54,54,11,1,,,,,,,,,,,,,,,,,,,,,,,,,,,,
,,,,,V3_087,19,male,2024-11-21_17h14.55.958,jersey_experiment_5_v3,2023.2.2,Win32,84.74576271,,,,,,,,,,,,,,,,1230.1058,1231.3997,1231.3997,1235.9647,return,1.2002,,87.5,,,,,,FBP-YG-91.png,0.45,1.2,15,0.5,,,,,,,,,,,,,0,55,55,14,1,,,,,,,,,,,,,,,,,,,,,,,,,,,,
,,,,,V3_087,19,male,2024-11-21_17h14.55.958,jersey_experiment_5_v3,2023.2.2,Win32,84.74576271,,,,,,,,,,,,,,,,1235.9649,1237.2588,1237.2589,1241.8355,return,0.9308,,88.93229167,,,,,,FBP-RB-19.png,0.45,1.2,60,0.5,,,,,,,,,,,,,0,56,56,59,1,,,,,,,,,,,,,,,,,,,,,,,,,,,,
,,,,,V3_087,19,male,2024-11-21_17h14.55.958,jersey_experiment_5_v3,2023.2.2,Win32,84.74576271,,,,,,,,,,,,,,,,1241.8357,1243.3885,1243.3885,1248.0593,return,3.1779,,77.99479167,,,,,,FBP-OG-19.png,0.43,1.2,44,0.75,,,,,,,,,,,,,0,57,57,43,1,,,,,,,,,,,,,,,,,,,,,,,,,,,,
,,,,,V3_087,19,male,2024-11-21_17h14.55.958,jersey_experiment_5_v3,2023.2.2,Win32,84.74576271,,,,,,,,,,,,,,,,1248.0594,1249.3534,1249.3535,1252.8124,return,1.0592,,50.13020833,,,,,,FBP-PT-17.png,0.37,1.2,17,0.5,,,,,,,,,,,,,0,58,58,16,1,,,,,,,,,,,,,,,,,,,,,,,,,,,,
,,,,,V3_087,19,male,2024-11-21_17h14.55.958,jersey_experiment_5_v3,2023.2.2,Win32,84.74576271,,,,,,,,,,,,,,,,1252.8126,1254.1065,1254.1066,1256.9066,return,0.9743,,33.203125,,,,,,FBP-RB-18.png,0.37,1.2,52,0.5,,,,,,,,,,,,,0,59,59,51,1,,,,,,,,,,,,,,,,,,,,,,,,,,,,
,,,,,V3_087,19,male,2024-11-21_17h14.55.958,jersey_experiment_5_v3,2023.2.2,Win32,84.74576271,,,,,,,,,,,,,,,,1256.9081,1258.4596,1258.4596,1261.848,return,1.7223,,85.67708333,,,,,,FBP-OG-81.png,0.45,1.2,40,0.75,,,,,,,,,,,,,,,,,,0,0,0,39,1,,,,,,,,,,,,,,,,,,,,,,,
,,,,,V3_087,19,male,2024-11-21_17h14.55.958,jersey_experiment_5_v3,2023.2.2,Win32,84.74576271,,,,,,,,,,,,,,,,1261.8483,1263.1422,1263.1422,1266.3423,return,1.3007,,85.80729167,,,,,,FBP-PT-81.png,0.43,1.2,24,0.5,,,,,,,,,,,,,,,,,,0,1,1,23,1,,,,,,,,,,,,,,,,,,,,,,,
,,,,,V3_087,19,male,2024-11-21_17h14.55.958,jersey_experiment_5_v3,2023.2.2,Win32,84.74576271,,,,,,,,,,,,,,,,1266.3425,1267.8952,1267.8953,1272.3307,return,1.5536,,43.88020833,,,,,,FBP-OG-71.png,0.37,1.2,32,0.75,,,,,,,,,,,,,,,,,,0,2,2,31,1,,,,,,,,,,,,,,,,,,,,,,,
,,,,,V3_087,19,male,2024-11-21_17h14.55.958,jersey_experiment_5_v3,2023.2.2,Win32,84.74576271,,,,,,,,,,,,,,,,1272.3309,1273.8838,1273.8838,1277.3192,return,1.4762,,48.828125,,,,,,FBP-OG-81.png,0.35,1.2,36,0.75,,,,,,,,,,,,,,,,,,0,3,3,35,1,,,,,,,,,,,,,,,,,,,,,,,
,,,,,V3_087,19,male,2024-11-21_17h14.55.958,jersey_experiment_5_v3,2023.2.2,Win32,84.74576271,,,,,,,,,,,,,,,,1277.3195,1278.6132,1278.6133,1282.3194,return,1.4913,,70.18229167,,,,,,FBP-YG-19.png,0.43,1.2,14,0.5,,,,,,,,,,,,,,,,,,0,4,4,13,1,,,,,,,,,,,,,,,,,,,,,,,
,,,,,V3_087,19,male,2024-11-21_17h14.55.958,jersey_experiment_5_v3,2023.2.2,Win32,84.74576271,,,,,,,,,,,,,,,,1282.3197,1283.6135,1283.6136,1286.0254,return,0.7211,,74.73958333,,,,,,FBP-RB-91.png,0.4,1.2,58,0.5,,,,,,,,,,,,,,,,,,0,5,5,57,1,,,,,,,,,,,,,,,,,,,,,,,
,,,,,V3_087,19,male,2024-11-21_17h14.55.958,jersey_experiment_5_v3,2023.2.2,Win32,84.74576271,,,,,,,,,,,,,,,,1286.0256,1287.3197,1287.3197,1289.9903,return,0.6975,,40.36458333,,,,,,FBP-RB-91.png,0.35,1.2,56,0.5,,,,,,,,,,,,,,,,,,0,6,6,55,1,,,,,,,,,,,,,,,,,,,,,,,
,,,,,V3_087,19,male,2024-11-21_17h14.55.958,jersey_experiment_5_v3,2023.2.2,Win32,84.74576271,,,,,,,,,,,,,,,,1289.9906,1291.2843,1291.2843,1295.5434,return,1.3229,,58.46354167,,,,,,FBP-PT-81.png,0.45,1.2,25,0.5,,,,,,,,,,,,,,,,,,0,7,7,24,1,,,,,,,,,,,,,,,,,,,,,,,
,,,,,V3_087,19,male,2024-11-21_17h14.55.958,jersey_experiment_5_v3,2023.2.2,Win32,84.74576271,,,,,,,,,,,,,,,,1295.5437,1297.0964,1297.0964,1299.5788,return,1.0269,,73.17708333,,,,,,FBP-OG-91.png,0.4,1.2,43,0.75,,,,,,,,,,,,,,,,,,0,8,8,42,1,,,,,,,,,,,,,,,,,,,,,,,
,,,,,V3_087,19,male,2024-11-21_17h14.55.958,jersey_experiment_5_v3,2023.2.2,Win32,84.74576271,,,,,,,,,,,,,,,,1299.579,1300.8731,1300.8731,1308.1086,return,1.4356,,34.50520833,,,,,,FBP-YG-17.png,0.37,1.2,2,0.5,,,,,,,,,,,,,,,,,,0,9,9,1,1,,,,,,,,,,,,,,,,,,,,,,,
,,,,,V3_087,19,male,2024-11-21_17h14.55.958,jersey_experiment_5_v3,2023.2.2,Win32,84.74576271,,,,,,,,,,,,,,,,1308.1088,1309.6617,1309.6617,1313.0029,return,0.7876,,81.25,,,,,,FBP-OG-91.png,0.43,1.2,44,0.75,,,,,,,,,,,,,,,,,,0,10,10,43,1,,,,,,,,,,,,,,,,,,,,,,,
,,,,,V3_087,19,male,2024-11-21_17h14.55.958,jersey_experiment_5_v3,2023.2.2,Win32,84.74576271,,,,,,,,,,,,,,,,1313.0031,1314.2971,1314.2971,1317.3324,return,0.8553,,82.55208333,,,,,,FBP-RB-81.png,0.4,1.2,53,0.5,,,,,,,,,,,,,,,,,,0,11,11,52,1,,,,,,,,,,,,,,,,,,,,,,,
,,,,,V3_087,19,male,2024-11-21_17h14.55.958,jersey_experiment_5_v3,2023.2.2,Win32,84.74576271,,,,,,,,,,,,,,,,1317.3326,1318.8853,1318.8853,1324.1916,return,1.0949,,83.59375,,,,,,FBP-OG-71.png,0.43,1.2,34,0.75,,,,,,,,,,,,,,,,,,0,12,12,33,1,,,,,,,,,,,,,,,,,,,,,,,
,,,,,V3_087,19,male,2024-11-21_17h14.55.958,jersey_experiment_5_v3,2023.2.2,Win32,84.74576271,,,,,,,,,,,,,,,,1324.192,1325.7447,1325.7447,1328.6506,return,0.9284,,19.79166667,,,,,,FBP-OG-91.png,0.35,1.2,41,0.75,,,,,,,,,,,,,,,,,,0,13,13,40,1,,,,,,,,,,,,,,,,,,,,,,,
,,,,,V3_087,19,male,2024-11-21_17h14.55.958,jersey_experiment_5_v3,2023.2.2,Win32,84.74576271,,,,,,,,,,,,,,,,1328.6508,1329.9447,1329.9447,1333.0036,return,0.6599,,36.19791667,,,,,,FBP-YG-19.png,0.37,1.2,12,0.5,,,,,,,,,,,,,,,,,,0,14,14,11,1,,,,,,,,,,,,,,,,,,,,,,,
,,,,,V3_087,19,male,2024-11-21_17h14.55.958,jersey_experiment_5_v3,2023.2.2,Win32,84.74576271,,,,,,,,,,,,,,,,1333.0038,1334.2978,1334.2978,1337.0508,return,1.0843,,57.94270833,,,,,,FBP-RB-71.png,0.4,1.2,48,0.5,,,,,,,,,,,,,,,,,,0,15,15,47,1,,,,,,,,,,,,,,,,,,,,,,,
,,,,,V3_087,19,male,2024-11-21_17h14.55.958,jersey_experiment_5_v3,2023.2.2,Win32,84.74576271,,,,,,,,,,,,,,,,1337.0511,1338.345,1338.345,1341.0627,return,0.9824,,70.83333333,,,,,,FBP-RB-81.png,0.43,1.2,54,0.5,,,,,,,,,,,,,,,,,,0,16,16,53,1,,,,,,,,,,,,,,,,,,,,,,,
,,,,,V3_087,19,male,2024-11-21_17h14.55.958,jersey_experiment_5_v3,2023.2.2,Win32,84.74576271,,,,,,,,,,,,,,,,1341.063,1342.357,1342.357,1348.7925,return,1.2042,,32.94270833,,,,,,FBP-PT-91.png,0.35,1.2,26,0.5,,,,,,,,,,,,,,,,,,0,17,17,25,1,,,,,,,,,,,,,,,,,,,,,,,
,,,,,V3_087,19,male,2024-11-21_17h14.55.958,jersey_experiment_5_v3,2023.2.2,Win32,84.74576271,,,,,,,,,,,,,,,,1348.793,1350.0866,1350.0867,1354.2163,return,1.2016,,86.45833333,,,,,,FBP-PT-71.png,0.45,1.2,20,0.5,,,,,,,,,,,,,,,,,,0,18,18,19,1,,,,,,,,,,,,,,,,,,,,,,,
,,,,,V3_087,19,male,2024-11-21_17h14.55.958,jersey_experiment_5_v3,2023.2.2,Win32,84.74576271,,,,,,,,,,,,,,,,1354.2165,1355.5105,1355.5105,1358.628,return,1.185,,37.63020833,,,,,,FBP-YG-17.png,0.35,1.2,1,0.5,,,,,,,,,,,,,,,,,,0,19,19,0,1,,,,,,,,,,,,,,,,,,,,,,,
,,,,,V3_087,19,male,2024-11-21_17h14.55.958,jersey_experiment_5_v3,2023.2.2,Win32,84.74576271,,,,,,,,,,,,,,,,1358.6283,1360.1812,1360.1813,1363.6755,return,1.0744,,58.203125,,,,,,FBP-OG-81.png,0.4,1.2,38,0.75,,,,,,,,,,,,,,,,,,0,20,20,37,1,,,,,,,,,,,,,,,,,,,,,,,
,,,,,V3_087,19,male,2024-11-21_17h14.55.958,jersey_experiment_5_v3,2023.2.2,Win32,84.74576271,,,,,,,,,,,,,,,,1363.6757,1364.9696,1364.9696,1369.158,return,1.1096,,92.05729167,,,,,,FBP-RB-81.png,0.45,1.2,55,0.5,,,,,,,,,,,,,,,,,,0,21,21,54,1,,,,,,,,,,,,,,,,,,,,,,,
,,,,,V3_087,19,male,2024-11-21_17h14.55.958,jersey_experiment_5_v3,2023.2.2,Win32,84.74576271,,,,,,,,,,,,,,,,1369.1583,1370.7109,1370.711,1372.4405,return,0.7572,,92.05729167,,,,,,FBP-OG-91.png,0.45,1.2,45,0.75,,,,,,,,,,,,,,,,,,0,22,22,44,1,,,,,,,,,,,,,,,,,,,,,,,
,,,,,V3_087,19,male,2024-11-21_17h14.55.958,jersey_experiment_5_v3,2023.2.2,Win32,84.74576271,,,,,,,,,,,,,,,,1372.4407,1373.7346,1373.7347,1378.7114,return,0.7702,,61.84895833,,,,,,FBP-YG-19.png,0.4,1.2,13,0.5,,,,,,,,,,,,,,,,,,0,23,23,12,1,,,,,,,,,,,,,,,,,,,,,,,
,,,,,V3_087,19,male,2024-11-21_17h14.55.958,jersey_experiment_5_v3,2023.2.2,Win32,84.74576271,,,,,,,,,,,,,,,,1378.7117,1380.2643,1380.2644,1385.0997,return,1.3978,,61.84895833,,,,,,FBP-OG-71.png,0.4,1.2,33,0.75,,,,,,,,,,,,,,,,,,0,24,24,32,1,,,,,,,,,,,,,,,,,,,,,,,
,,,,,V3_087,19,male,2024-11-21_17h14.55.958,jersey_experiment_5_v3,2023.2.2,Win32,84.74576271,,,,,,,,,,,,,,,,1385.1001,1386.394,1386.394,1389.8648,return,1.0133,,82.29166667,,,,,,FBP-YG-19.png,0.45,1.2,15,0.5,,,,,,,,,,,,,,,,,,0,25,25,14,1,,,,,,,,,,,,,,,,,,,,,,,
,,,,,V3_087,19,male,2024-11-21_17h14.55.958,jersey_experiment_5_v3,2023.2.2,Win32,84.74576271,,,,,,,,,,,,,,,,1389.865,1391.1588,1391.1588,1394.0413,return,0.8742,,24.609375,,,,,,FBP-YG-18.png,0.35,1.2,6,0.5,,,,,,,,,,,,,,,,,,0,26,26,5,1,,,,,,,,,,,,,,,,,,,,,,,
,,,,,V3_087,19,male,2024-11-21_17h14.55.958,jersey_experiment_5_v3,2023.2.2,Win32,84.74576271,,,,,,,,,,,,,,,,1394.0416,1395.5943,1395.5944,1399.7357,return,1.2524,,80.33854167,,,,,,FBP-OG-81.png,0.43,1.2,39,0.75,,,,,,,,,,,,,,,,,,0,27,27,38,1,,,,,,,,,,,,,,,,,,,,,,,
,,,,,V3_087,19,male,2024-11-21_17h14.55.958,jersey_experiment_5_v3,2023.2.2,Win32,84.74576271,,,,,,,,,,,,,,,,1399.7359,1401.2887,1401.2887,1405.9125,return,0.8958,,42.96875,,,,,,FBP-OG-81.png,0.37,1.2,37,0.75,,,,,,,,,,,,,,,,,,0,28,28,36,1,,,,,,,,,,,,,,,,,,,,,,,
,,,,,V3_087,19,male,2024-11-21_17h14.55.958,jersey_experiment_5_v3,2023.2.2,Win32,84.74576271,,,,,,,,,,,,,,,,1405.9127,1407.2066,1407.2066,1411.7362,return,1.2283,,61.97916667,,,,,,FBP-YG-17.png,0.43,1.2,4,0.5,,,,,,,,,,,,,,,,,,0,29,29,3,1,,,,,,,,,,,,,,,,,,,,,,,
,,,,,V3_087,19,male,2024-11-21_17h14.55.958,jersey_experiment_5_v3,2023.2.2,Win32,84.74576271,,,,,,,,,,,,,,,,1411.7363,1413.0303,1413.0303,1415.7009,return,0.901,,48.56770833,,,,,,FBP-PT-81.png,0.37,1.2,22,0.5,,,,,,,,,,,,,,,,,,0,30,30,21,1,,,,,,,,,,,,,,,,,,,,,,,
,,,,,V3_087,19,male,2024-11-21_17h14.55.958,jersey_experiment_5_v3,2023.2.2,Win32,84.74576271,,,,,,,,,,,,,,,,1415.7011,1416.9951,1416.9951,1421.6424,return,0.858,,81.25,,,,,,FBP-PT-71.png,0.43,1.2,19,0.5,,,,,,,,,,,,,,,,,,0,31,31,18,1,,,,,,,,,,,,,,,,,,,,,,,
,,,,,V3_087,19,male,2024-11-21_17h14.55.958,jersey_experiment_5_v3,2023.2.2,Win32,84.74576271,,,,,,,,,,,,,,,,1421.6427,1422.9364,1422.9365,1425.7367,return,1.001,,47.52604167,,,,,,FBP-YG-17.png,0.4,1.2,3,0.5,,,,,,,,,,,,,,,,,,0,32,32,2,1,,,,,,,,,,,,,,,,,,,,,,,
,,,,,V3_087,19,male,2024-11-21_17h14.55.958,jersey_experiment_5_v3,2023.2.2,Win32,84.74576271,,,,,,,,,,,,,,,,1425.7369,1427.0307,1427.0308,1431.4663,return,1.0825,,32.68229167,,,,,,FBP-PT-71.png,0.37,1.2,17,0.5,,,,,,,,,,,,,,,,,,0,33,33,16,1,,,,,,,,,,,,,,,,,,,,,,,
,,,,,V3_087,19,male,2024-11-21_17h14.55.958,jersey_experiment_5_v3,2023.2.2,Win32,84.74576271,,,,,,,,,,,,,,,,1431.4666,1433.0193,1433.0193,1436.3018,return,1.3734,,44.921875,,,,,,FBP-OG-91.png,0.37,1.2,42,0.75,,,,,,,,,,,,,,,,,,0,34,34,41,1,,,,,,,,,,,,,,,,,,,,,,,
,,,,,V3_087,19,male,2024-11-21_17h14.55.958,jersey_experiment_5_v3,2023.2.2,Win32,84.74576271,,,,,,,,,,,,,,,,1436.3021,1437.5958,1437.5959,1441.702,return,1.0779,,72.78645833,,,,,,FBP-YG-18.png,0.43,1.2,9,0.5,,,,,,,,,,,,,,,,,,0,35,35,8,1,,,,,,,,,,,,,,,,,,,,,,,
,,,,,V3_087,19,male,2024-11-21_17h14.55.958,jersey_experiment_5_v3,2023.2.2,Win32,84.74576271,,,,,,,,,,,,,,,,1441.7023,1443.255,1443.255,1445.9962,return,1.1302,,94.79166667,,,,,,FBP-OG-71.png,0.45,1.2,35,0.75,,,,,,,,,,,,,,,,,,0,36,36,34,1,,,,,,,,,,,,,,,,,,,,,,,
,,,,,V3_087,19,male,2024-11-21_17h14.55.958,jersey_experiment_5_v3,2023.2.2,Win32,84.74576271,,,,,,,,,,,,,,,,1445.9966,1447.2904,1447.2904,1450.6553,return,0.7378,,48.69791667,,,,,,FBP-RB-81.png,0.35,1.2,51,0.5,,,,,,,,,,,,,,,,,,0,37,37,50,1,,,,,,,,,,,,,,,,,,,,,,,
,,,,,V3_087,19,male,2024-11-21_17h14.55.958,jersey_experiment_5_v3,2023.2.2,Win32,84.74576271,,,,,,,,,,,,,,,,1450.6556,1452.2081,1452.2082,1454.5848,return,0.6865,,36.71875,,,,,,FBP-OG-71.png,0.35,1.2,31,0.75,,,,,,,,,,,,,,,,,,0,38,38,30,1,,,,,,,,,,,,,,,,,,,,,,,
,,,,,V3_087,19,male,2024-11-21_17h14.55.958,jersey_experiment_5_v3,2023.2.2,Win32,84.74576271,,,,,,,,,,,,,,,,1454.5851,1455.879,1455.8791,1459.1027,return,0.9884,,82.16145833,,,,,,FBP-PT-91.png,0.45,1.2,30,0.5,,,,,,,,,,,,,,,,,,0,39,39,29,1,,,,,,,,,,,,,,,,,,,,,,,
,,,,,V3_087,19,male,2024-11-21_17h14.55.958,jersey_experiment_5_v3,2023.2.2,Win32,84.74576271,,,,,,,,,,,,,,,,1459.1029,1460.3968,1460.3968,1463.3263,return,0.941,,82.03125,,,,,,FBP-PT-81.png,0.4,1.2,23,0.5,,,,,,,,,,,,,,,,,,0,40,40,22,1,,,,,,,,,,,,,,,,,,,,,,,
,,,,,V3_087,19,male,2024-11-21_17h14.55.958,jersey_experiment_5_v3,2023.2.2,Win32,84.74576271,,,,,,,,,,,,,,,,1463.3265,1464.6205,1464.6206,1467.6205,return,1.1615,,77.99479167,,,,,,FBP-RB-91.png,0.43,1.2,59,0.5,,,,,,,,,,,,,,,,,,0,41,41,58,1,,,,,,,,,,,,,,,,,,,,,,,
,,,,,V3_087,19,male,2024-11-21_17h14.55.958,jersey_experiment_5_v3,2023.2.2,Win32,84.74576271,,,,,,,,,,,,,,,,1467.6208,1468.9147,1468.9148,1473.3855,return,1.4473,,51.69270833,,,,,,FBP-YG-18.png,0.4,1.2,8,0.5,,,,,,,,,,,,,,,,,,0,42,42,7,1,,,,,,,,,,,,,,,,,,,,,,,
,,,,,V3_087,19,male,2024-11-21_17h14.55.958,jersey_experiment_5_v3,2023.2.2,Win32,84.74576271,,,,,,,,,,,,,,,,1473.3857,1474.6797,1474.6797,1477.6093,return,0.9191,,23.56770833,,,,,,FBP-YG-19.png,0.35,1.2,11,0.5,,,,,,,,,,,,,,,,,,0,43,43,10,1,,,,,,,,,,,,,,,,,,,,,,,
,,,,,V3_087,19,male,2024-11-21_17h14.55.958,jersey_experiment_5_v3,2023.2.2,Win32,84.74576271,,,,,,,,,,,,,,,,1477.6096,1478.9034,1478.9034,1481.6094,return,0.8152,,26.5625,,,,,,FBP-RB-71.png,0.35,1.2,46,0.5,,,,,,,,,,,,,,,,,,0,44,44,45,1,,,,,,,,,,,,,,,,,,,,,,,
,,,,,V3_087,19,male,2024-11-21_17h14.55.958,jersey_experiment_5_v3,2023.2.2,Win32,84.74576271,,,,,,,,,,,,,,,,1481.6097,1482.9036,1482.9036,1485.4801,return,0.9223,,56.25,,,,,,FBP-RB-81.png,0.37,1.2,52,0.5,,,,,,,,,,,,,,,,,,0,45,45,51,1,,,,,,,,,,,,,,,,,,,,,,,
,,,,,V3_087,19,male,2024-11-21_17h14.55.958,jersey_experiment_5_v3,2023.2.2,Win32,84.74576271,,,,,,,,,,,,,,,,1485.4804,1486.7742,1486.7743,1489.0803,return,0.9542,,74.21875,,,,,,FBP-YG-17.png,0.45,1.2,5,0.5,,,,,,,,,,,,,,,,,,0,46,46,4,1,,,,,,,,,,,,,,,,,,,,,,,
,,,,,V3_087,19,male,2024-11-21_17h14.55.958,jersey_experiment_5_v3,2023.2.2,Win32,84.74576271,,,,,,,,,,,,,,,,1489.0806,1490.3744,1490.3745,1493.7981,return,1.2186,,82.03125,,,,,,FBP-YG-18.png,0.45,1.2,10,0.5,,,,,,,,,,,,,,,,,,0,47,47,9,1,,,,,,,,,,,,,,,,,,,,,,,
,,,,,V3_087,19,male,2024-11-21_17h14.55.958,jersey_experiment_5_v3,2023.2.2,Win32,84.74576271,,,,,,,,,,,,,,,,1493.7984,1495.0923,1495.0924,1499.4455,return,1.3717,,85.28645833,,,,,,FBP-RB-71.png,0.43,1.2,49,0.5,,,,,,,,,,,,,,,,,,0,48,48,48,1,,,,,,,,,,,,,,,,,,,,,,,
,,,,,V3_087,19,male,2024-11-21_17h14.55.958,jersey_experiment_5_v3,2023.2.2,Win32,84.74576271,,,,,,,,,,,,,,,,1499.4457,1500.7396,1500.7396,1504.1397,return,1.0835,,93.22916667,,,,,,FBP-PT-91.png,0.43,1.2,29,0.5,,,,,,,,,,,,,,,,,,0,49,49,28,1,,,,,,,,,,,,,,,,,,,,,,,
,,,,,V3_087,19,male,2024-11-21_17h14.55.958,jersey_experiment_5_v3,2023.2.2,Win32,84.74576271,,,,,,,,,,,,,,,,1504.14,1505.4339,1505.4339,1509.4928,return,1.1256,,30.078125,,,,,,FBP-PT-81.png,0.35,1.2,21,0.5,,,,,,,,,,,,,,,,,,0,50,50,20,1,,,,,,,,,,,,,,,,,,,,,,,
,,,,,V3_087,19,male,2024-11-21_17h14.55.958,jersey_experiment_5_v3,2023.2.2,Win32,84.74576271,,,,,,,,,,,,,,,,1509.4931,1510.7871,1510.7871,1514.2931,return,1.1022,,24.73958333,,,,,,FBP-RB-91.png,0.37,1.2,57,0.5,,,,,,,,,,,,,,,,,,0,51,51,56,1,,,,,,,,,,,,,,,,,,,,,,,
,,,,,V3_087,19,male,2024-11-21_17h14.55.958,jersey_experiment_5_v3,2023.2.2,Win32,84.74576271,,,,,,,,,,,,,,,,1514.2933,1515.5873,1515.5873,1518.1521,return,0.9664,,20.83333333,,,,,,FBP-YG-18.png,0.37,1.2,7,0.5,,,,,,,,,,,,,,,,,,0,52,52,6,1,,,,,,,,,,,,,,,,,,,,,,,
,,,,,V3_087,19,male,2024-11-21_17h14.55.958,jersey_experiment_5_v3,2023.2.2,Win32,84.74576271,,,,,,,,,,,,,,,,1518.1523,1519.4462,1519.4462,1523.4346,return,1.1635,,77.21354167,,,,,,FBP-PT-71.png,0.4,1.2,18,0.5,,,,,,,,,,,,,,,,,,0,53,53,17,1,,,,,,,,,,,,,,,,,,,,,,,
,,,,,V3_087,19,male,2024-11-21_17h14.55.958,jersey_experiment_5_v3,2023.2.2,Win32,84.74576271,,,,,,,,,,,,,,,,1523.4349,1524.7286,1524.7287,1531.8467,return,1.1323,,43.09895833,,,,,,FBP-PT-71.png,0.35,1.2,16,0.5,,,,,,,,,,,,,,,,,,0,54,54,15,1,,,,,,,,,,,,,,,,,,,,,,,
,,,,,V3_087,19,male,2024-11-21_17h14.55.958,jersey_experiment_5_v3,2023.2.2,Win32,84.74576271,,,,,,,,,,,,,,,,1531.847,1533.1408,1533.1408,1535.8469,return,0.7943,,79.03645833,,,,,,FBP-PT-91.png,0.4,1.2,28,0.5,,,,,,,,,,,,,,,,,,0,55,55,27,1,,,,,,,,,,,,,,,,,,,,,,,
,,,,,V3_087,19,male,2024-11-21_17h14.55.958,jersey_experiment_5_v3,2023.2.2,Win32,84.74576271,,,,,,,,,,,,,,,,1535.8471,1537.141,1537.141,1539.3176,return,0.6768,,83.59375,,,,,,FBP-RB-71.png,0.45,1.2,50,0.5,,,,,,,,,,,,,,,,,,0,56,56,49,1,,,,,,,,,,,,,,,,,,,,,,,
,,,,,V3_087,19,male,2024-11-21_17h14.55.958,jersey_experiment_5_v3,2023.2.2,Win32,84.74576271,,,,,,,,,,,,,,,,1539.3178,1540.6117,1540.6117,1543.7176,return,1.0033,,89.58333333,,,,,,FBP-RB-91.png,0.45,1.2,60,0.5,,,,,,,,,,,,,,,,,,0,57,57,59,1,,,,,,,,,,,,,,,,,,,,,,,
,,,,,V3_087,19,male,2024-11-21_17h14.55.958,jersey_experiment_5_v3,2023.2.2,Win32,84.74576271,,,,,,,,,,,,,,,,1543.7179,1545.0118,1545.0118,1548.1649,return,0.9021,,44.01041667,,,,,,FBP-RB-71.png,0.37,1.2,47,0.5,,,,,,,,,,,,,,,,,,0,58,58,46,1,,,,,,,,,,,,,,,,,,,,,,,
,,,,,V3_087,19,male,2024-11-21_17h14.55.958,jersey_experiment_5_v3,2023.2.2,Win32,84.74576271,,,,,,,,,,,,,,,,1548.1652,1549.4591,1549.4591,1551.8945,return,0.7798,,36.19791667,,,,,,FBP-PT-91.png,0.37,1.2,27,0.5,,,,,,,,,,,,,,,,,,0,59,59,26,1,,,,,,,,,,,,,,,,,,,,,,,
,,,,,V3_087,19,male,2024-11-21_17h14.55.958,jersey_experiment_5_v3,2023.2.2,Win32,84.74576271,,,,,,,,,,,,,,,,,,,,,,,,,,,,,,,,,,,,,,,,,,,,,,,,,,,,,,,,1551.8945,1563.4478,return,11.5463,,,,,,,,,,,,,,,,,,,
,,,,,V3_087,19,male,2024-11-21_17h14.55.958,jersey_experiment_5_v3,2023.2.2,Win32,84.74576271,,,,,,,,,,,,,,,,,,,,,,,,,,,,,,,,,,,,,,,,,,,,,,,,,,,,,,,,,,,,,1563.4478,1573.7424,1,8.0398,return,2.2352,,,,,,,,,,,,
,,,,,V3_087,19,male,2024-11-21_17h14.55.958,jersey_experiment_5_v3,2023.2.2,Win32,84.74576271,,,,,,,,,,,,,,,,,,,,,,,,,,,,,,,,,,,,,,,,,,,,,,,,,,,,,,,,,,,,,,,,,,,,1573.7425,1681.3589,"I saw some patterns. For example, two football players almost the same size back to back. No, at the moment I don't have an idea of what the study is about.",right,90.0276,,,,,,
,,,,,V3_087,19,male,2024-11-21_17h14.55.958,jersey_experiment_5_v3,2023.2.2,Win32,84.74576271,,,,,,,,,,,,,,,,,,,,,,,,,,,,,,,,,,,,,,,,,,,,,,,,,,,,,,,,,,,,,,,,,,,,,,,,,,1681.3589,1690.9234,return,9.5535,