requirements.started,requirements.stopped,key_resp_3.keys,key_resp_3.rt,key_resp_3.duration,Subject ID,Age,Gender,date,expName,psychopyVersion,OS,frameRate,instructions1.started,instructions1.stopped,key_resp.keys,key_resp.rt,key_resp.duration,example.started,example.stopped,enter_2.keys,enter_2.rt,enter_2.duration,instructions2.started,instructions2.stopped,enter_3.keys,enter_3.rt,enter_3.duration,image.started,image.stopped,slider_2.started,slider_2.stopped,next.keys,next.rt,next.duration,slider.response,trial_block_1.thisRepN,trial_block_1.thisTrialN,trial_block_1.thisN,trial_block_1.thisIndex,trial_block_1.ran,Path,Width,Height,Index,Duration,trial_block_2.thisRepN,trial_block_2.thisTrialN,trial_block_2.thisN,trial_block_2.thisIndex,trial_block_2.ran,rest_break.started,rest_break.stopped,end_break.started,end_break.stopped,key_resp_5.keys,key_resp_5.rt,key_resp_5.duration,trial_block_3.thisRepN,trial_block_3.thisTrialN,trial_block_3.thisN,trial_block_3.thisIndex,trial_block_3.ran,trial_block_4.thisRepN,trial_block_4.thisTrialN,trial_block_4.thisN,trial_block_4.thisIndex,trial_block_4.ran,questions_intro.started,questions_intro.stopped,enter_12.keys,enter_12.rt,enter_12.duration,question2.started,question2.stopped,question_doingbest.response,question_doingbest.rt,enter_15.keys,enter_15.rt,enter_15.duration,pattern.started,pattern.stopped,pattern_2.text,enter_17.keys,enter_17.rt,enter_17.duration,thankyou.started,thankyou.stopped,enter_14.keys,enter_14.rt,enter_14.duration
0.0001,7.9574,return,7.9479,,V3_018,20,Female,2024-10-17_14h17.38.306,jersey_experiment_5_v3,2023.2.2,Win32,84.03361345,,,,,,,,,,,,,,,,,,,,,,,,,,,,,,,,,,,,,,,,,,,,,,,,,,,,,,,,,,,,,,,,,,,,,,,,,,,,,,
,,,,,V3_018,20,Female,2024-10-17_14h17.38.306,jersey_experiment_5_v3,2023.2.2,Win32,84.03361345,7.9575,12.7575,return,4.7761,,,,,,,,,,,,,,,,,,,,,,,,,,,,,,,,,,,,,,,,,,,,,,,,,,,,,,,,,,,,,,,,,,,,,,,,,,
,,,,,V3_018,20,Female,2024-10-17_14h17.38.306,jersey_experiment_5_v3,2023.2.2,Win32,84.03361345,,,,,,12.7577,15.9458,return,3.138,,,,,,,,,,,,,,,,,,,,,,,,,,,,,,,,,,,,,,,,,,,,,,,,,,,,,,,,,,,,,,,,,,,,,
,,,,,V3_018,20,Female,2024-10-17_14h17.38.306,jersey_experiment_5_v3,2023.2.2,Win32,84.03361345,,,,,,,,,,,15.946,30.0405,return,14.0787,,,,,,,,,,,,,,,,,,,,,,,,,,,,,,,,,,,,,,,,,,,,,,,,,,,,,,,,,,,,,,,,
,,,,,V3_018,20,Female,2024-10-17_14h17.38.306,jersey_experiment_5_v3,2023.2.2,Win32,84.03361345,,,,,,,,,,,,,,,,30.0428,31.5934,31.5936,39.5999,return,5.3879,,74.34895833,0,0,0,53,1,FBP-RB-18.png,0.43,1.2,54,0.75,,,,,,,,,,,,,,,,,,,,,,,,,,,,,,,,,,,,,,,,,,,,,
,,,,,V3_018,20,Female,2024-10-17_14h17.38.306,jersey_experiment_5_v3,2023.2.2,Win32,84.03361345,,,,,,,,,,,,,,,,39.6001,40.8995,40.8996,44.1884,return,1.0742,,74.609375,0,1,1,44,1,FBP-OG-19.png,0.45,1.2,45,0.5,,,,,,,,,,,,,,,,,,,,,,,,,,,,,,,,,,,,,,,,,,,,,
,,,,,V3_018,20,Female,2024-10-17_14h17.38.306,jersey_experiment_5_v3,2023.2.2,Win32,84.03361345,,,,,,,,,,,,,,,,44.1887,45.735,45.735,48.1475,return,0.8018,,49.86979167,0,2,2,52,1,FBP-RB-18.png,0.4,1.2,53,0.75,,,,,,,,,,,,,,,,,,,,,,,,,,,,,,,,,,,,,,,,,,,,,
,,,,,V3_018,20,Female,2024-10-17_14h17.38.306,jersey_experiment_5_v3,2023.2.2,Win32,84.03361345,,,,,,,,,,,,,,,,48.1476,49.703,49.703,51.6214,return,0.7033,,25.13020833,0,3,3,55,1,FBP-RB-19.png,0.35,1.2,56,0.75,,,,,,,,,,,,,,,,,,,,,,,,,,,,,,,,,,,,,,,,,,,,,
,,,,,V3_018,20,Female,2024-10-17_14h17.38.306,jersey_experiment_5_v3,2023.2.2,Win32,84.03361345,,,,,,,,,,,,,,,,51.6216,52.9235,52.9235,55.9532,return,1.5443,,75.26041667,0,4,4,33,1,FBP-OG-17.png,0.43,1.2,34,0.5,,,,,,,,,,,,,,,,,,,,,,,,,,,,,,,,,,,,,,,,,,,,,
,,,,,V3_018,20,Female,2024-10-17_14h17.38.306,jersey_experiment_5_v3,2023.2.2,Win32,84.03361345,,,,,,,,,,,,,,,,55.9533,57.5002,57.5002,60.9827,return,0.8801,,74.86979167,0,5,5,7,1,FBP-YG-81.png,0.4,1.2,8,0.75,,,,,,,,,,,,,,,,,,,,,,,,,,,,,,,,,,,,,,,,,,,,,
,,,,,V3_018,20,Female,2024-10-17_14h17.38.306,jersey_experiment_5_v3,2023.2.2,Win32,84.03361345,,,,,,,,,,,,,,,,60.9828,62.2769,62.2769,64.8886,return,0.7533,,74.08854167,0,6,6,38,1,FBP-OG-18.png,0.43,1.2,39,0.5,,,,,,,,,,,,,,,,,,,,,,,,,,,,,,,,,,,,,,,,,,,,,
,,,,,V3_018,20,Female,2024-10-17_14h17.38.306,jersey_experiment_5_v3,2023.2.2,Win32,84.03361345,,,,,,,,,,,,,,,,64.8888,66.4416,66.4417,69.2567,return,1.5767,,89.32291667,0,7,7,9,1,FBP-YG-81.png,0.45,1.2,10,0.75,,,,,,,,,,,,,,,,,,,,,,,,,,,,,,,,,,,,,,,,,,,,,
,,,,,V3_018,20,Female,2024-10-17_14h17.38.306,jersey_experiment_5_v3,2023.2.2,Win32,84.03361345,,,,,,,,,,,,,,,,69.2569,70.8066,70.8066,74.4184,return,1.6524,,88.41145833,0,8,8,24,1,FBP-PT-18.png,0.45,1.2,25,0.75,,,,,,,,,,,,,,,,,,,,,,,,,,,,,,,,,,,,,,,,,,,,,
,,,,,V3_018,20,Female,2024-10-17_14h17.38.306,jersey_experiment_5_v3,2023.2.2,Win32,84.03361345,,,,,,,,,,,,,,,,74.4185,75.9713,75.9714,79.2068,return,1.3178,,74.73958333,0,9,9,47,1,FBP-RB-17.png,0.4,1.2,48,0.75,,,,,,,,,,,,,,,,,,,,,,,,,,,,,,,,,,,,,,,,,,,,,
,,,,,V3_018,20,Female,2024-10-17_14h17.38.306,jersey_experiment_5_v3,2023.2.2,Win32,84.03361345,,,,,,,,,,,,,,,,79.207,80.7598,80.7599,82.6305,return,0.9426,,24.609375,0,10,10,45,1,FBP-RB-17.png,0.35,1.2,46,0.75,,,,,,,,,,,,,,,,,,,,,,,,,,,,,,,,,,,,,,,,,,,,,
,,,,,V3_018,20,Female,2024-10-17_14h17.38.306,jersey_experiment_5_v3,2023.2.2,Win32,84.03361345,,,,,,,,,,,,,,,,82.6306,84.1746,84.1746,86.5601,return,1.4038,,0.130208333,0,11,11,20,1,FBP-PT-18.png,0.35,1.2,21,0.75,,,,,,,,,,,,,,,,,,,,,,,,,,,,,,,,,,,,,,,,,,,,,
,,,,,V3_018,20,Female,2024-10-17_14h17.38.306,jersey_experiment_5_v3,2023.2.2,Win32,84.03361345,,,,,,,,,,,,,,,,86.5603,88.113,88.1131,91.2072,return,1.365,,25.13020833,0,12,12,15,1,FBP-PT-17.png,0.35,1.2,16,0.75,,,,,,,,,,,,,,,,,,,,,,,,,,,,,,,,,,,,,,,,,,,,,
,,,,,V3_018,20,Female,2024-10-17_14h17.38.306,jersey_experiment_5_v3,2023.2.2,Win32,84.03361345,,,,,,,,,,,,,,,,91.2075,92.5044,92.5044,96.1839,return,1.9531,,25.13020833,0,13,13,30,1,FBP-OG-17.png,0.35,1.2,31,0.5,,,,,,,,,,,,,,,,,,,,,,,,,,,,,,,,,,,,,,,,,,,,,
,,,,,V3_018,20,Female,2024-10-17_14h17.38.306,jersey_experiment_5_v3,2023.2.2,Win32,84.03361345,,,,,,,,,,,,,,,,96.1841,97.7281,97.7282,109.6496,return,2.3683,,25,0,14,14,17,1,FBP-PT-17.png,0.4,1.2,18,0.75,,,,,,,,,,,,,,,,,,,,,,,,,,,,,,,,,,,,,,,,,,,,,
,,,,,V3_018,20,Female,2024-10-17_14h17.38.306,jersey_experiment_5_v3,2023.2.2,Win32,84.03361345,,,,,,,,,,,,,,,,109.6497,110.9491,110.9492,114.4906,return,1.2323,,25,0,15,15,40,1,FBP-OG-19.png,0.35,1.2,41,0.5,,,,,,,,,,,,,,,,,,,,,,,,,,,,,,,,,,,,,,,,,,,,,
,,,,,V3_018,20,Female,2024-10-17_14h17.38.306,jersey_experiment_5_v3,2023.2.2,Win32,84.03361345,,,,,,,,,,,,,,,,114.4908,116.0435,116.0435,119.5613,return,1.6005,,25.26041667,0,16,16,10,1,FBP-YG-91.png,0.35,1.2,11,0.75,,,,,,,,,,,,,,,,,,,,,,,,,,,,,,,,,,,,,,,,,,,,,
,,,,,V3_018,20,Female,2024-10-17_14h17.38.306,jersey_experiment_5_v3,2023.2.2,Win32,84.03361345,,,,,,,,,,,,,,,,119.5616,121.1143,121.1143,124.4908,return,1.8354,,25.26041667,0,17,17,1,1,FBP-YG-71.png,0.37,1.2,2,0.75,,,,,,,,,,,,,,,,,,,,,,,,,,,,,,,,,,,,,,,,,,,,,
,,,,,V3_018,20,Female,2024-10-17_14h17.38.306,jersey_experiment_5_v3,2023.2.2,Win32,84.03361345,,,,,,,,,,,,,,,,124.4911,126.0438,126.0439,129.4087,return,2.0306,,87.36979167,0,18,18,13,1,FBP-YG-91.png,0.43,1.2,14,0.75,,,,,,,,,,,,,,,,,,,,,,,,,,,,,,,,,,,,,,,,,,,,,
,,,,,V3_018,20,Female,2024-10-17_14h17.38.306,jersey_experiment_5_v3,2023.2.2,Win32,84.03361345,,,,,,,,,,,,,,,,129.4088,130.9617,130.9617,134.6559,return,1.2873,,50.78125,0,19,19,0,1,FBP-YG-71.png,0.35,1.2,1,0.75,,,,,,,,,,,,,,,,,,,,,,,,,,,,,,,,,,,,,,,,,,,,,
,,,,,V3_018,20,Female,2024-10-17_14h17.38.306,jersey_experiment_5_v3,2023.2.2,Win32,84.03361345,,,,,,,,,,,,,,,,134.656,135.95,135.9501,139.103,return,1.4056,,49.86979167,0,20,20,31,1,FBP-OG-17.png,0.37,1.2,32,0.5,,,,,,,,,,,,,,,,,,,,,,,,,,,,,,,,,,,,,,,,,,,,,
,,,,,V3_018,20,Female,2024-10-17_14h17.38.306,jersey_experiment_5_v3,2023.2.2,Win32,84.03361345,,,,,,,,,,,,,,,,139.1032,140.656,140.656,143.5385,return,1.6489,,99.73958333,0,21,21,14,1,FBP-YG-91.png,0.45,1.2,15,0.75,,,,,,,,,,,,,,,,,,,,,,,,,,,,,,,,,,,,,,,,,,,,,
,,,,,V3_018,20,Female,2024-10-17_14h17.38.306,jersey_experiment_5_v3,2023.2.2,Win32,84.03361345,,,,,,,,,,,,,,,,143.5387,145.0916,145.0916,149.5387,return,1.1463,,88.28125,0,22,22,28,1,FBP-PT-19.png,0.43,1.2,29,0.75,,,,,,,,,,,,,,,,,,,,,,,,,,,,,,,,,,,,,,,,,,,,,
,,,,,V3_018,20,Female,2024-10-17_14h17.38.306,jersey_experiment_5_v3,2023.2.2,Win32,84.03361345,,,,,,,,,,,,,,,,149.539,151.0918,151.0918,154.6331,return,1.6792,,99.21875,0,23,23,3,1,FBP-YG-71.png,0.43,1.2,4,0.75,,,,,,,,,,,,,,,,,,,,,,,,,,,,,,,,,,,,,,,,,,,,,
,,,,,V3_018,20,Female,2024-10-17_14h17.38.306,jersey_experiment_5_v3,2023.2.2,Win32,84.03361345,,,,,,,,,,,,,,,,154.6332,156.1896,156.1896,159.4714,return,1.8203,,74.609375,0,24,24,2,1,FBP-YG-71.png,0.4,1.2,3,0.75,,,,,,,,,,,,,,,,,,,,,,,,,,,,,,,,,,,,,,,,,,,,,
,,,,,V3_018,20,Female,2024-10-17_14h17.38.306,jersey_experiment_5_v3,2023.2.2,Win32,84.03361345,,,,,,,,,,,,,,,,159.4715,160.7628,160.7629,166.7808,return,5.0739,,99.86979167,0,25,25,34,1,FBP-OG-17.png,0.45,1.2,35,0.5,,,,,,,,,,,,,,,,,,,,,,,,,,,,,,,,,,,,,,,,,,,,,
,,,,,V3_018,20,Female,2024-10-17_14h17.38.306,jersey_experiment_5_v3,2023.2.2,Win32,84.03361345,,,,,,,,,,,,,,,,166.781,168.0806,168.0806,171.0572,return,1.3095,,74.86979167,0,26,26,37,1,FBP-OG-18.png,0.4,1.2,38,0.5,,,,,,,,,,,,,,,,,,,,,,,,,,,,,,,,,,,,,,,,,,,,,
,,,,,V3_018,20,Female,2024-10-17_14h17.38.306,jersey_experiment_5_v3,2023.2.2,Win32,84.03361345,,,,,,,,,,,,,,,,171.0574,172.6102,172.6102,175.378,return,1.1765,,24.86979167,0,27,27,5,1,FBP-YG-81.png,0.35,1.2,6,0.75,,,,,,,,,,,,,,,,,,,,,,,,,,,,,,,,,,,,,,,,,,,,,
,,,,,V3_018,20,Female,2024-10-17_14h17.38.306,jersey_experiment_5_v3,2023.2.2,Win32,84.03361345,,,,,,,,,,,,,,,,175.3783,176.681,176.681,179.2693,return,1.1085,,74.609375,0,28,28,43,1,FBP-OG-19.png,0.43,1.2,44,0.5,,,,,,,,,,,,,,,,,,,,,,,,,,,,,,,,,,,,,,,,,,,,,
,,,,,V3_018,20,Female,2024-10-17_14h17.38.306,jersey_experiment_5_v3,2023.2.2,Win32,84.03361345,,,,,,,,,,,,,,,,179.2695,180.5634,180.5635,193.411,return,6.9229,,74.34895833,0,29,29,41,1,FBP-OG-19.png,0.37,1.2,42,0.5,,,,,,,,,,,,,,,,,,,,,,,,,,,,,,,,,,,,,,,,,,,,,
,,,,,V3_018,20,Female,2024-10-17_14h17.38.306,jersey_experiment_5_v3,2023.2.2,Win32,84.03361345,,,,,,,,,,,,,,,,193.4111,194.964,194.964,197.5818,return,0.941,,25,0,30,30,50,1,FBP-RB-18.png,0.35,1.2,51,0.75,,,,,,,,,,,,,,,,,,,,,,,,,,,,,,,,,,,,,,,,,,,,,
,,,,,V3_018,20,Female,2024-10-17_14h17.38.306,jersey_experiment_5_v3,2023.2.2,Win32,84.03361345,,,,,,,,,,,,,,,,197.5819,199.1288,199.1288,200.9055,return,0.7443,,75.26041667,0,31,31,57,1,FBP-RB-19.png,0.4,1.2,58,0.75,,,,,,,,,,,,,,,,,,,,,,,,,,,,,,,,,,,,,,,,,,,,,
,,,,,V3_018,20,Female,2024-10-17_14h17.38.306,jersey_experiment_5_v3,2023.2.2,Win32,84.03361345,,,,,,,,,,,,,,,,200.9056,202.1996,202.1996,204.1761,return,1.3373,,74.86979167,0,32,32,42,1,FBP-OG-19.png,0.4,1.2,43,0.5,,,,,,,,,,,,,,,,,,,,,,,,,,,,,,,,,,,,,,,,,,,,,
,,,,,V3_018,20,Female,2024-10-17_14h17.38.306,jersey_experiment_5_v3,2023.2.2,Win32,84.03361345,,,,,,,,,,,,,,,,204.1762,205.7289,205.7289,208.1001,return,1.0118,,74.86979167,0,33,33,6,1,FBP-YG-81.png,0.37,1.2,7,0.75,,,,,,,,,,,,,,,,,,,,,,,,,,,,,,,,,,,,,,,,,,,,,
,,,,,V3_018,20,Female,2024-10-17_14h17.38.306,jersey_experiment_5_v3,2023.2.2,Win32,84.03361345,,,,,,,,,,,,,,,,208.1002,209.6469,209.6469,211.8884,return,1.2962,,99.21875,0,34,34,58,1,FBP-RB-19.png,0.43,1.2,59,0.75,,,,,,,,,,,,,,,,,,,,,,,,,,,,,,,,,,,,,,,,,,,,,
,,,,,V3_018,20,Female,2024-10-17_14h17.38.306,jersey_experiment_5_v3,2023.2.2,Win32,84.03361345,,,,,,,,,,,,,,,,211.8885,213.4352,213.4352,215.3529,return,1.1445,,99.609375,0,35,35,8,1,FBP-YG-81.png,0.43,1.2,9,0.75,,,,,,,,,,,,,,,,,,,,,,,,,,,,,,,,,,,,,,,,,,,,,
,,,,,V3_018,20,Female,2024-10-17_14h17.38.306,jersey_experiment_5_v3,2023.2.2,Win32,84.03361345,,,,,,,,,,,,,,,,215.3531,216.647,216.6471,219.6532,return,1.1915,,25,0,36,36,35,1,FBP-OG-18.png,0.35,1.2,36,0.5,,,,,,,,,,,,,,,,,,,,,,,,,,,,,,,,,,,,,,,,,,,,,
,,,,,V3_018,20,Female,2024-10-17_14h17.38.306,jersey_experiment_5_v3,2023.2.2,Win32,84.03361345,,,,,,,,,,,,,,,,219.6534,221.2002,221.2002,224.3416,return,1.4354,,25,0,37,37,46,1,FBP-RB-17.png,0.37,1.2,47,0.75,,,,,,,,,,,,,,,,,,,,,,,,,,,,,,,,,,,,,,,,,,,,,
,,,,,V3_018,20,Female,2024-10-17_14h17.38.306,jersey_experiment_5_v3,2023.2.2,Win32,84.03361345,,,,,,,,,,,,,,,,224.3418,225.8944,225.8944,229.6475,return,0.9578,,100,0,38,38,4,1,FBP-YG-71.png,0.45,1.2,5,0.75,,,,,,,,,,,,,,,,,,,,,,,,,,,,,,,,,,,,,,,,,,,,,
,,,,,V3_018,20,Female,2024-10-17_14h17.38.306,jersey_experiment_5_v3,2023.2.2,Win32,84.03361345,,,,,,,,,,,,,,,,229.6477,231.1916,231.1916,233.9771,return,1.6472,,100,0,39,39,59,1,FBP-RB-19.png,0.45,1.2,60,0.75,,,,,,,,,,,,,,,,,,,,,,,,,,,,,,,,,,,,,,,,,,,,,
,,,,,V3_018,20,Female,2024-10-17_14h17.38.306,jersey_experiment_5_v3,2023.2.2,Win32,84.03361345,,,,,,,,,,,,,,,,233.9773,235.5302,235.5302,237.9891,return,1.1917,,74.86979167,0,40,40,11,1,FBP-YG-91.png,0.37,1.2,12,0.75,,,,,,,,,,,,,,,,,,,,,,,,,,,,,,,,,,,,,,,,,,,,,
,,,,,V3_018,20,Female,2024-10-17_14h17.38.306,jersey_experiment_5_v3,2023.2.2,Win32,84.03361345,,,,,,,,,,,,,,,,237.9893,239.5421,239.5421,242.6482,return,1.074,,89.19270833,0,41,41,23,1,FBP-PT-18.png,0.43,1.2,24,0.75,,,,,,,,,,,,,,,,,,,,,,,,,,,,,,,,,,,,,,,,,,,,,
,,,,,V3_018,20,Female,2024-10-17_14h17.38.306,jersey_experiment_5_v3,2023.2.2,Win32,84.03361345,,,,,,,,,,,,,,,,242.6483,244.1953,244.1954,245.8129,return,0.7409,,74.609375,0,42,42,56,1,FBP-RB-19.png,0.37,1.2,57,0.75,,,,,,,,,,,,,,,,,,,,,,,,,,,,,,,,,,,,,,,,,,,,,
,,,,,V3_018,20,Female,2024-10-17_14h17.38.306,jersey_experiment_5_v3,2023.2.2,Win32,84.03361345,,,,,,,,,,,,,,,,245.8131,247.3572,247.3572,248.8368,return,0.7765,,99.47916667,0,43,43,19,1,FBP-PT-17.png,0.45,1.2,20,0.75,,,,,,,,,,,,,,,,,,,,,,,,,,,,,,,,,,,,,,,,,,,,,
,,,,,V3_018,20,Female,2024-10-17_14h17.38.306,jersey_experiment_5_v3,2023.2.2,Win32,84.03361345,,,,,,,,,,,,,,,,248.8369,250.3896,250.3896,251.9839,return,0.5647,,74.47916667,0,44,44,25,1,FBP-PT-19.png,0.35,1.2,26,0.75,,,,,,,,,,,,,,,,,,,,,,,,,,,,,,,,,,,,,,,,,,,,,
,,,,,V3_018,20,Female,2024-10-17_14h17.38.306,jersey_experiment_5_v3,2023.2.2,Win32,84.03361345,,,,,,,,,,,,,,,,251.9841,253.5308,253.5308,255.8956,return,1.9298,,75,0,45,45,27,1,FBP-PT-19.png,0.4,1.2,28,0.75,,,,,,,,,,,,,,,,,,,,,,,,,,,,,,,,,,,,,,,,,,,,,
,,,,,V3_018,20,Female,2024-10-17_14h17.38.306,jersey_experiment_5_v3,2023.2.2,Win32,84.03361345,,,,,,,,,,,,,,,,255.8957,257.4484,257.4485,260.4723,return,0.5971,,100,0,46,46,49,1,FBP-RB-17.png,0.45,1.2,50,0.75,,,,,,,,,,,,,,,,,,,,,,,,,,,,,,,,,,,,,,,,,,,,,
,,,,,V3_018,20,Female,2024-10-17_14h17.38.306,jersey_experiment_5_v3,2023.2.2,Win32,84.03361345,,,,,,,,,,,,,,,,260.4725,262.0254,262.0254,264.6606,return,0.6465,,88.80208333,0,47,47,22,1,FBP-PT-18.png,0.4,1.2,23,0.75,,,,,,,,,,,,,,,,,,,,,,,,,,,,,,,,,,,,,,,,,,,,,
,,,,,V3_018,20,Female,2024-10-17_14h17.38.306,jersey_experiment_5_v3,2023.2.2,Win32,84.03361345,,,,,,,,,,,,,,,,264.6608,266.2136,266.2136,270.4373,return,3.5058,,75.13020833,0,48,48,21,1,FBP-PT-18.png,0.37,1.2,22,0.75,,,,,,,,,,,,,,,,,,,,,,,,,,,,,,,,,,,,,,,,,,,,,
,,,,,V3_018,20,Female,2024-10-17_14h17.38.306,jersey_experiment_5_v3,2023.2.2,Win32,84.03361345,,,,,,,,,,,,,,,,270.4375,271.9844,271.9844,274.1433,return,0.8876,,99.609375,0,49,49,18,1,FBP-PT-17.png,0.43,1.2,19,0.75,,,,,,,,,,,,,,,,,,,,,,,,,,,,,,,,,,,,,,,,,,,,,
,,,,,V3_018,20,Female,2024-10-17_14h17.38.306,jersey_experiment_5_v3,2023.2.2,Win32,84.03361345,,,,,,,,,,,,,,,,274.1434,275.6877,275.6877,277.0438,return,0.6121,,99.34895833,0,50,50,29,1,FBP-PT-19.png,0.45,1.2,30,0.75,,,,,,,,,,,,,,,,,,,,,,,,,,,,,,,,,,,,,,,,,,,,,
,,,,,V3_018,20,Female,2024-10-17_14h17.38.306,jersey_experiment_5_v3,2023.2.2,Win32,84.03361345,,,,,,,,,,,,,,,,277.0439,278.3381,278.3381,280.8023,return,0.7903,,49.609375,0,51,51,36,1,FBP-OG-18.png,0.37,1.2,37,0.5,,,,,,,,,,,,,,,,,,,,,,,,,,,,,,,,,,,,,,,,,,,,,
,,,,,V3_018,20,Female,2024-10-17_14h17.38.306,jersey_experiment_5_v3,2023.2.2,Win32,84.03361345,,,,,,,,,,,,,,,,280.8026,282.0966,282.0966,284.8496,return,0.6652,,63.15104167,0,52,52,32,1,FBP-OG-17.png,0.4,1.2,33,0.5,,,,,,,,,,,,,,,,,,,,,,,,,,,,,,,,,,,,,,,,,,,,,
,,,,,V3_018,20,Female,2024-10-17_14h17.38.306,jersey_experiment_5_v3,2023.2.2,Win32,84.03361345,,,,,,,,,,,,,,,,284.8498,286.4026,286.4027,289.6968,return,2.7921,,74.609375,0,53,53,16,1,FBP-PT-17.png,0.37,1.2,17,0.75,,,,,,,,,,,,,,,,,,,,,,,,,,,,,,,,,,,,,,,,,,,,,
,,,,,V3_018,20,Female,2024-10-17_14h17.38.306,jersey_experiment_5_v3,2023.2.2,Win32,84.03361345,,,,,,,,,,,,,,,,289.697,291.2498,291.2499,293.45,return,0.8446,,100,0,54,54,48,1,FBP-RB-17.png,0.43,1.2,49,0.75,,,,,,,,,,,,,,,,,,,,,,,,,,,,,,,,,,,,,,,,,,,,,
,,,,,V3_018,20,Female,2024-10-17_14h17.38.306,jersey_experiment_5_v3,2023.2.2,Win32,84.03361345,,,,,,,,,,,,,,,,293.4502,294.9955,294.9955,297.0619,return,0.8576,,75,0,55,55,26,1,FBP-PT-19.png,0.37,1.2,27,0.75,,,,,,,,,,,,,,,,,,,,,,,,,,,,,,,,,,,,,,,,,,,,,
,,,,,V3_018,20,Female,2024-10-17_14h17.38.306,jersey_experiment_5_v3,2023.2.2,Win32,84.03361345,,,,,,,,,,,,,,,,297.062,298.356,298.356,300.6266,return,0.7076,,100,0,56,56,39,1,FBP-OG-18.png,0.45,1.2,40,0.5,,,,,,,,,,,,,,,,,,,,,,,,,,,,,,,,,,,,,,,,,,,,,
,,,,,V3_018,20,Female,2024-10-17_14h17.38.306,jersey_experiment_5_v3,2023.2.2,Win32,84.03361345,,,,,,,,,,,,,,,,300.6269,302.1826,302.1826,304.1679,return,0.9884,,100,0,57,57,54,1,FBP-RB-18.png,0.45,1.2,55,0.75,,,,,,,,,,,,,,,,,,,,,,,,,,,,,,,,,,,,,,,,,,,,,
,,,,,V3_018,20,Female,2024-10-17_14h17.38.306,jersey_experiment_5_v3,2023.2.2,Win32,84.03361345,,,,,,,,,,,,,,,,304.1681,305.7209,305.721,307.8152,return,0.8336,,74.73958333,0,58,58,12,1,FBP-YG-91.png,0.4,1.2,13,0.75,,,,,,,,,,,,,,,,,,,,,,,,,,,,,,,,,,,,,,,,,,,,,
,,,,,V3_018,20,Female,2024-10-17_14h17.38.306,jersey_experiment_5_v3,2023.2.2,Win32,84.03361345,,,,,,,,,,,,,,,,307.8153,309.3681,309.3682,311.1564,return,0.9766,,74.73958333,0,59,59,51,1,FBP-RB-18.png,0.37,1.2,52,0.75,,,,,,,,,,,,,,,,,,,,,,,,,,,,,,,,,,,,,,,,,,,,,
,,,,,V3_018,20,Female,2024-10-17_14h17.38.306,jersey_experiment_5_v3,2023.2.2,Win32,84.03361345,,,,,,,,,,,,,,,,311.1582,312.7095,312.7095,314.2977,return,0.7066,,100,,,,,,FBP-RB-71.png,0.45,1.2,50,0.75,0,0,0,49,1,,,,,,,,,,,,,,,,,,,,,,,,,,,,,,,,,,,,,,,,
,,,,,V3_018,20,Female,2024-10-17_14h17.38.306,jersey_experiment_5_v3,2023.2.2,Win32,84.03361345,,,,,,,,,,,,,,,,314.2978,315.839,315.8391,317.6977,return,0.6412,,74.73958333,,,,,,FBP-YG-19.png,0.43,1.2,14,0.75,0,1,1,13,1,,,,,,,,,,,,,,,,,,,,,,,,,,,,,,,,,,,,,,,,
,,,,,V3_018,20,Female,2024-10-17_14h17.38.306,jersey_experiment_5_v3,2023.2.2,Win32,84.03361345,,,,,,,,,,,,,,,,317.6979,319.2509,319.2509,321.4156,return,0.8317,,88.02083333,,,,,,FBP-PT-91.png,0.4,1.2,28,0.75,0,2,2,27,1,,,,,,,,,,,,,,,,,,,,,,,,,,,,,,,,,,,,,,,,
,,,,,V3_018,20,Female,2024-10-17_14h17.38.306,jersey_experiment_5_v3,2023.2.2,Win32,84.03361345,,,,,,,,,,,,,,,,321.4157,322.9686,322.9686,324.5334,return,0.4707,,100,,,,,,FBP-RB-81.png,0.43,1.2,54,0.75,0,3,3,53,1,,,,,,,,,,,,,,,,,,,,,,,,,,,,,,,,,,,,,,,,
,,,,,V3_018,20,Female,2024-10-17_14h17.38.306,jersey_experiment_5_v3,2023.2.2,Win32,84.03361345,,,,,,,,,,,,,,,,324.5336,326.0865,326.0865,328.7101,return,0.684,,75.52083333,,,,,,FBP-RB-91.png,0.4,1.2,58,0.75,0,4,4,57,1,,,,,,,,,,,,,,,,,,,,,,,,,,,,,,,,,,,,,,,,
,,,,,V3_018,20,Female,2024-10-17_14h17.38.306,jersey_experiment_5_v3,2023.2.2,Win32,84.03361345,,,,,,,,,,,,,,,,328.7102,330.263,330.263,332.416,return,0.9606,,75,,,,,,FBP-YG-19.png,0.37,1.2,12,0.75,0,5,5,11,1,,,,,,,,,,,,,,,,,,,,,,,,,,,,,,,,,,,,,,,,
,,,,,V3_018,20,Female,2024-10-17_14h17.38.306,jersey_experiment_5_v3,2023.2.2,Win32,84.03361345,,,,,,,,,,,,,,,,332.4162,333.7102,333.7102,340.9222,return,5.8127,,75,,,,,,FBP-OG-91.png,0.43,1.2,44,0.5,0,6,6,43,1,,,,,,,,,,,,,,,,,,,,,,,,,,,,,,,,,,,,,,,,
,,,,,V3_018,20,Female,2024-10-17_14h17.38.306,jersey_experiment_5_v3,2023.2.2,Win32,84.03361345,,,,,,,,,,,,,,,,340.9224,342.2165,342.2165,344.5459,return,1.0753,,88.41145833,,,,,,FBP-OG-81.png,0.45,1.2,40,0.5,0,7,7,39,1,,,,,,,,,,,,,,,,,,,,,,,,,,,,,,,,,,,,,,,,
,,,,,V3_018,20,Female,2024-10-17_14h17.38.306,jersey_experiment_5_v3,2023.2.2,Win32,84.03361345,,,,,,,,,,,,,,,,344.5462,346.0988,346.0989,347.8932,return,0.6822,,100,,,,,,FBP-YG-18.png,0.45,1.2,10,0.75,0,8,8,9,1,,,,,,,,,,,,,,,,,,,,,,,,,,,,,,,,,,,,,,,,
,,,,,V3_018,20,Female,2024-10-17_14h17.38.306,jersey_experiment_5_v3,2023.2.2,Win32,84.03361345,,,,,,,,,,,,,,,,347.8933,349.1932,349.1932,351.1227,return,0.8492,,99.21875,,,,,,FBP-OG-71.png,0.45,1.2,35,0.5,0,9,9,34,1,,,,,,,,,,,,,,,,,,,,,,,,,,,,,,,,,,,,,,,,
,,,,,V3_018,20,Female,2024-10-17_14h17.38.306,jersey_experiment_5_v3,2023.2.2,Win32,84.03361345,,,,,,,,,,,,,,,,351.1229,352.6757,352.6757,354.5293,return,0.7449,,74.73958333,,,,,,FBP-RB-71.png,0.43,1.2,49,0.75,0,10,10,48,1,,,,,,,,,,,,,,,,,,,,,,,,,,,,,,,,,,,,,,,,
,,,,,V3_018,20,Female,2024-10-17_14h17.38.306,jersey_experiment_5_v3,2023.2.2,Win32,84.03361345,,,,,,,,,,,,,,,,354.5295,356.0756,356.0757,357.9934,return,0.5888,,24.86979167,,,,,,FBP-PT-81.png,0.37,1.2,22,0.75,0,11,11,21,1,,,,,,,,,,,,,,,,,,,,,,,,,,,,,,,,,,,,,,,,
,,,,,V3_018,20,Female,2024-10-17_14h17.38.306,jersey_experiment_5_v3,2023.2.2,Win32,84.03361345,,,,,,,,,,,,,,,,357.9935,359.5465,359.5465,362.1112,return,0.5935,,50.13020833,,,,,,FBP-RB-81.png,0.4,1.2,53,0.75,0,12,12,52,1,,,,,,,,,,,,,,,,,,,,,,,,,,,,,,,,,,,,,,,,
,,,,,V3_018,20,Female,2024-10-17_14h17.38.306,jersey_experiment_5_v3,2023.2.2,Win32,84.03361345,,,,,,,,,,,,,,,,362.1113,363.6642,363.6642,366.4171,return,0.7564,,74.86979167,,,,,,FBP-PT-71.png,0.4,1.2,18,0.75,0,13,13,17,1,,,,,,,,,,,,,,,,,,,,,,,,,,,,,,,,,,,,,,,,
,,,,,V3_018,20,Female,2024-10-17_14h17.38.306,jersey_experiment_5_v3,2023.2.2,Win32,84.03361345,,,,,,,,,,,,,,,,366.4173,367.9703,367.9703,370.182,return,0.8387,,25.26041667,,,,,,FBP-YG-18.png,0.37,1.2,7,0.75,0,14,14,6,1,,,,,,,,,,,,,,,,,,,,,,,,,,,,,,,,,,,,,,,,
,,,,,V3_018,20,Female,2024-10-17_14h17.38.306,jersey_experiment_5_v3,2023.2.2,Win32,84.03361345,,,,,,,,,,,,,,,,370.1822,371.7352,371.7352,373.8645,return,0.8473,,25.26041667,,,,,,FBP-PT-71.png,0.37,1.2,17,0.75,0,15,15,16,1,,,,,,,,,,,,,,,,,,,,,,,,,,,,,,,,,,,,,,,,
,,,,,V3_018,20,Female,2024-10-17_14h17.38.306,jersey_experiment_5_v3,2023.2.2,Win32,84.03361345,,,,,,,,,,,,,,,,373.8647,375.1586,375.1587,376.6557,return,0.6206,,25.26041667,,,,,,FBP-OG-71.png,0.4,1.2,33,0.5,0,16,16,32,1,,,,,,,,,,,,,,,,,,,,,,,,,,,,,,,,,,,,,,,,
,,,,,V3_018,20,Female,2024-10-17_14h17.38.306,jersey_experiment_5_v3,2023.2.2,Win32,84.03361345,,,,,,,,,,,,,,,,376.6559,378.2091,378.2092,380.6766,return,0.6826,,0.130208333,,,,,,FBP-PT-81.png,0.35,1.2,21,0.75,0,17,17,20,1,,,,,,,,,,,,,,,,,,,,,,,,,,,,,,,,,,,,,,,,
,,,,,V3_018,20,Female,2024-10-17_14h17.38.306,jersey_experiment_5_v3,2023.2.2,Win32,84.03361345,,,,,,,,,,,,,,,,380.6767,382.2179,382.2179,383.9355,return,0.5963,,74.73958333,,,,,,FBP-PT-91.png,0.45,1.2,30,0.75,0,18,18,29,1,,,,,,,,,,,,,,,,,,,,,,,,,,,,,,,,,,,,,,,,
,,,,,V3_018,20,Female,2024-10-17_14h17.38.306,jersey_experiment_5_v3,2023.2.2,Win32,84.03361345,,,,,,,,,,,,,,,,383.9358,385.2357,385.2357,388.7891,return,1.506,,0,,,,,,FBP-OG-91.png,0.35,1.2,41,0.5,0,19,19,40,1,,,,,,,,,,,,,,,,,,,,,,,,,,,,,,,,,,,,,,,,
,,,,,V3_018,20,Female,2024-10-17_14h17.38.306,jersey_experiment_5_v3,2023.2.2,Win32,84.03361345,,,,,,,,,,,,,,,,388.7892,390.3357,390.3357,412.866,return,1.532,,0,,,,,,FBP-PT-71.png,0.35,1.2,16,0.75,0,20,20,15,1,,,,,,,,,,,,,,,,,,,,,,,,,,,,,,,,,,,,,,,,
,,,,,V3_018,20,Female,2024-10-17_14h17.38.306,jersey_experiment_5_v3,2023.2.2,Win32,84.03361345,,,,,,,,,,,,,,,,412.8662,414.4134,414.4134,416.8074,return,1.0207,,74.86979167,,,,,,FBP-YG-18.png,0.4,1.2,8,0.75,0,21,21,7,1,,,,,,,,,,,,,,,,,,,,,,,,,,,,,,,,,,,,,,,,
,,,,,V3_018,20,Female,2024-10-17_14h17.38.306,jersey_experiment_5_v3,2023.2.2,Win32,84.03361345,,,,,,,,,,,,,,,,416.8074,418.3487,418.3487,421.755,return,1.2386,,100,,,,,,FBP-YG-17.png,0.43,1.2,4,0.75,0,22,22,3,1,,,,,,,,,,,,,,,,,,,,,,,,,,,,,,,,,,,,,,,,
,,,,,V3_018,20,Female,2024-10-17_14h17.38.306,jersey_experiment_5_v3,2023.2.2,Win32,84.03361345,,,,,,,,,,,,,,,,421.7552,423.3017,423.3017,425.1606,return,1.0591,,100,,,,,,FBP-YG-17.png,0.45,1.2,5,0.75,0,23,23,4,1,,,,,,,,,,,,,,,,,,,,,,,,,,,,,,,,,,,,,,,,
,,,,,V3_018,20,Female,2024-10-17_14h17.38.306,jersey_experiment_5_v3,2023.2.2,Win32,84.03361345,,,,,,,,,,,,,,,,425.1608,426.7137,426.7137,428.996,return,1.024,,75.13020833,,,,,,FBP-YG-19.png,0.4,1.2,13,0.75,0,24,24,12,1,,,,,,,,,,,,,,,,,,,,,,,,,,,,,,,,,,,,,,,,
,,,,,V3_018,20,Female,2024-10-17_14h17.38.306,jersey_experiment_5_v3,2023.2.2,Win32,84.03361345,,,,,,,,,,,,,,,,428.9962,430.549,430.5491,432.3139,return,0.8709,,90.49479167,,,,,,FBP-PT-91.png,0.43,1.2,29,0.75,0,25,25,28,1,,,,,,,,,,,,,,,,,,,,,,,,,,,,,,,,,,,,,,,,
,,,,,V3_018,20,Female,2024-10-17_14h17.38.306,jersey_experiment_5_v3,2023.2.2,Win32,84.03361345,,,,,,,,,,,,,,,,432.314,433.8732,433.8732,435.4905,return,0.7198,,75,,,,,,FBP-RB-71.png,0.4,1.2,48,0.75,0,26,26,47,1,,,,,,,,,,,,,,,,,,,,,,,,,,,,,,,,,,,,,,,,
,,,,,V3_018,20,Female,2024-10-17_14h17.38.306,jersey_experiment_5_v3,2023.2.2,Win32,84.03361345,,,,,,,,,,,,,,,,435.4906,437.0434,437.0434,439.1611,return,0.8088,,25.390625,,,,,,FBP-YG-17.png,0.35,1.2,1,0.75,0,27,27,0,1,,,,,,,,,,,,,,,,,,,,,,,,,,,,,,,,,,,,,,,,
,,,,,V3_018,20,Female,2024-10-17_14h17.38.306,jersey_experiment_5_v3,2023.2.2,Win32,84.03361345,,,,,,,,,,,,,,,,439.1612,440.4553,440.4553,442.2318,return,0.9796,,25.52083333,,,,,,FBP-OG-71.png,0.35,1.2,31,0.5,0,28,28,30,1,,,,,,,,,,,,,,,,,,,,,,,,,,,,,,,,,,,,,,,,
,,,,,V3_018,20,Female,2024-10-17_14h17.38.306,jersey_experiment_5_v3,2023.2.2,Win32,84.03361345,,,,,,,,,,,,,,,,442.232,443.7788,443.7788,446.3613,return,1.5295,,99.86979167,,,,,,FBP-RB-81.png,0.45,1.2,55,0.75,0,29,29,54,1,,,,,,,,,,,,,,,,,,,,,,,,,,,,,,,,,,,,,,,,
,,,,,V3_018,20,Female,2024-10-17_14h17.38.306,jersey_experiment_5_v3,2023.2.2,Win32,84.03361345,,,,,,,,,,,,,,,,446.3615,447.9056,447.9056,449.7026,return,0.731,,24.609375,,,,,,FBP-RB-81.png,0.35,1.2,51,0.75,0,30,30,50,1,,,,,,,,,,,,,,,,,,,,,,,,,,,,,,,,,,,,,,,,
,,,,,V3_018,20,Female,2024-10-17_14h17.38.306,jersey_experiment_5_v3,2023.2.2,Win32,84.03361345,,,,,,,,,,,,,,,,449.7027,451.2557,451.2558,453.4793,return,1.0033,,24.73958333,,,,,,FBP-YG-17.png,0.37,1.2,2,0.75,0,31,31,1,1,,,,,,,,,,,,,,,,,,,,,,,,,,,,,,,,,,,,,,,,
,,,,,V3_018,20,Female,2024-10-17_14h17.38.306,jersey_experiment_5_v3,2023.2.2,Win32,84.03361345,,,,,,,,,,,,,,,,453.4794,455.0266,455.0266,457.6677,return,0.7924,,99.34895833,,,,,,FBP-PT-71.png,0.43,1.2,19,0.75,0,32,32,18,1,,,,,,,,,,,,,,,,,,,,,,,,,,,,,,,,,,,,,,,,
,,,,,V3_018,20,Female,2024-10-17_14h17.38.306,jersey_experiment_5_v3,2023.2.2,Win32,84.03361345,,,,,,,,,,,,,,,,457.6679,459.2207,459.2207,460.7854,return,0.7918,,49.86979167,,,,,,FBP-RB-71.png,0.35,1.2,46,0.75,0,33,33,45,1,,,,,,,,,,,,,,,,,,,,,,,,,,,,,,,,,,,,,,,,
,,,,,V3_018,20,Female,2024-10-17_14h17.38.306,jersey_experiment_5_v3,2023.2.2,Win32,84.03361345,,,,,,,,,,,,,,,,460.7856,462.3384,462.3385,464.3032,return,0.9935,,75.26041667,,,,,,FBP-YG-17.png,0.4,1.2,3,0.75,0,34,34,2,1,,,,,,,,,,,,,,,,,,,,,,,,,,,,,,,,,,,,,,,,
,,,,,V3_018,20,Female,2024-10-17_14h17.38.306,jersey_experiment_5_v3,2023.2.2,Win32,84.03361345,,,,,,,,,,,,,,,,464.3033,465.5974,465.5975,467.8328,return,1.2622,,74.73958333,,,,,,FBP-OG-81.png,0.43,1.2,39,0.5,0,35,35,38,1,,,,,,,,,,,,,,,,,,,,,,,,,,,,,,,,,,,,,,,,
,,,,,V3_018,20,Female,2024-10-17_14h17.38.306,jersey_experiment_5_v3,2023.2.2,Win32,84.03361345,,,,,,,,,,,,,,,,467.833,469.3858,469.3858,471.6599,return,1.3067,,24.609375,,,,,,FBP-RB-91.png,0.35,1.2,56,0.75,0,36,36,55,1,,,,,,,,,,,,,,,,,,,,,,,,,,,,,,,,,,,,,,,,
,,,,,V3_018,20,Female,2024-10-17_14h17.38.306,jersey_experiment_5_v3,2023.2.2,Win32,84.03361345,,,,,,,,,,,,,,,,471.6601,473.2095,473.2095,475.3657,return,0.9416,,0.130208333,,,,,,FBP-YG-19.png,0.35,1.2,11,0.75,0,37,37,10,1,,,,,,,,,,,,,,,,,,,,,,,,,,,,,,,,,,,,,,,,
,,,,,V3_018,20,Female,2024-10-17_14h17.38.306,jersey_experiment_5_v3,2023.2.2,Win32,84.03361345,,,,,,,,,,,,,,,,475.3659,476.9154,476.9154,483.045,return,2.0115,,48.30729167,,,,,,FBP-PT-81.png,0.4,1.2,23,0.75,0,38,38,22,1,,,,,,,,,,,,,,,,,,,,,,,,,,,,,,,,,,,,,,,,
,,,,,V3_018,20,Female,2024-10-17_14h17.38.306,jersey_experiment_5_v3,2023.2.2,Win32,84.03361345,,,,,,,,,,,,,,,,483.0452,484.3392,484.3392,486.5274,return,0.9581,,74.34895833,,,,,,FBP-OG-91.png,0.4,1.2,43,0.5,0,39,39,42,1,,,,,,,,,,,,,,,,,,,,,,,,,,,,,,,,,,,,,,,,
,,,,,V3_018,20,Female,2024-10-17_14h17.38.306,jersey_experiment_5_v3,2023.2.2,Win32,84.03361345,,,,,,,,,,,,,,,,486.5276,487.8216,487.8217,490.0956,return,0.8709,,90.36458333,,,,,,FBP-OG-71.png,0.43,1.2,34,0.5,0,40,40,33,1,,,,,,,,,,,,,,,,,,,,,,,,,,,,,,,,,,,,,,,,
,,,,,V3_018,20,Female,2024-10-17_14h17.38.306,jersey_experiment_5_v3,2023.2.2,Win32,84.03361345,,,,,,,,,,,,,,,,490.0957,491.6455,491.6455,493.3043,return,0.5885,,50.390625,,,,,,FBP-PT-91.png,0.37,1.2,27,0.75,0,41,41,26,1,,,,,,,,,,,,,,,,,,,,,,,,,,,,,,,,,,,,,,,,
,,,,,V3_018,20,Female,2024-10-17_14h17.38.306,jersey_experiment_5_v3,2023.2.2,Win32,84.03361345,,,,,,,,,,,,,,,,493.3045,494.6049,494.6049,497.4519,return,0.7446,,63.41145833,,,,,,FBP-OG-71.png,0.37,1.2,32,0.5,0,42,42,31,1,,,,,,,,,,,,,,,,,,,,,,,,,,,,,,,,,,,,,,,,
,,,,,V3_018,20,Female,2024-10-17_14h17.38.306,jersey_experiment_5_v3,2023.2.2,Win32,84.03361345,,,,,,,,,,,,,,,,497.452,498.9986,498.9986,501.9517,return,1.8786,,50.26041667,,,,,,FBP-RB-71.png,0.37,1.2,47,0.75,0,43,43,46,1,,,,,,,,,,,,,,,,,,,,,,,,,,,,,,,,,,,,,,,,
,,,,,V3_018,20,Female,2024-10-17_14h17.38.306,jersey_experiment_5_v3,2023.2.2,Win32,84.03361345,,,,,,,,,,,,,,,,501.952,503.4989,503.499,505.14,return,0.2627,,38.28125,,,,,,FBP-YG-18.png,0.35,1.2,6,0.75,0,44,44,5,1,,,,,,,,,,,,,,,,,,,,,,,,,,,,,,,,,,,,,,,,
,,,,,V3_018,20,Female,2024-10-17_14h17.38.306,jersey_experiment_5_v3,2023.2.2,Win32,84.03361345,,,,,,,,,,,,,,,,505.1401,506.6989,506.6989,507.955,return,0.4001,,74.609375,,,,,,FBP-RB-91.png,0.43,1.2,59,0.75,0,45,45,58,1,,,,,,,,,,,,,,,,,,,,,,,,,,,,,,,,,,,,,,,,
,,,,,V3_018,20,Female,2024-10-17_14h17.38.306,jersey_experiment_5_v3,2023.2.2,Win32,84.03361345,,,,,,,,,,,,,,,,507.9552,509.5078,509.5078,510.552,return,0.2438,,50.13020833,,,,,,FBP-RB-81.png,0.37,1.2,52,0.75,0,46,46,51,1,,,,,,,,,,,,,,,,,,,,,,,,,,,,,,,,,,,,,,,,
,,,,,V3_018,20,Female,2024-10-17_14h17.38.306,jersey_experiment_5_v3,2023.2.2,Win32,84.03361345,,,,,,,,,,,,,,,,510.5521,511.8461,511.8461,513.0109,return,0.2608,,50.65104167,,,,,,FBP-OG-91.png,0.37,1.2,42,0.5,0,47,47,41,1,,,,,,,,,,,,,,,,,,,,,,,,,,,,,,,,,,,,,,,,
,,,,,V3_018,20,Female,2024-10-17_14h17.38.306,jersey_experiment_5_v3,2023.2.2,Win32,84.03361345,,,,,,,,,,,,,,,,513.0111,514.3049,514.3049,515.3521,return,0.268,,49.609375,,,,,,FBP-OG-81.png,0.37,1.2,37,0.5,0,48,48,36,1,,,,,,,,,,,,,,,,,,,,,,,,,,,,,,,,,,,,,,,,
,,,,,V3_018,20,Female,2024-10-17_14h17.38.306,jersey_experiment_5_v3,2023.2.2,Win32,84.03361345,,,,,,,,,,,,,,,,515.3523,516.8964,516.8964,517.8464,return,0.2236,,73.95833333,,,,,,FBP-RB-91.png,0.37,1.2,57,0.75,0,49,49,56,1,,,,,,,,,,,,,,,,,,,,,,,,,,,,,,,,,,,,,,,,
,,,,,V3_018,20,Female,2024-10-17_14h17.38.306,jersey_experiment_5_v3,2023.2.2,Win32,84.03361345,,,,,,,,,,,,,,,,517.8466,519.4057,519.4058,521.2582,return,0.3297,,100,,,,,,FBP-PT-71.png,0.45,1.2,20,0.75,0,50,50,19,1,,,,,,,,,,,,,,,,,,,,,,,,,,,,,,,,,,,,,,,,
,,,,,V3_018,20,Female,2024-10-17_14h17.38.306,jersey_experiment_5_v3,2023.2.2,Win32,84.03361345,,,,,,,,,,,,,,,,521.2584,522.8025,522.8026,524.3289,return,0.2592,,50.390625,,,,,,FBP-PT-91.png,0.35,1.2,26,0.75,0,51,51,25,1,,,,,,,,,,,,,,,,,,,,,,,,,,,,,,,,,,,,,,,,
,,,,,V3_018,20,Female,2024-10-17_14h17.38.306,jersey_experiment_5_v3,2023.2.2,Win32,84.03361345,,,,,,,,,,,,,,,,524.3291,525.6231,525.6231,526.6114,return,0.4396,,49.86979167,,,,,,FBP-OG-81.png,0.35,1.2,36,0.5,0,52,52,35,1,,,,,,,,,,,,,,,,,,,,,,,,,,,,,,,,,,,,,,,,
,,,,,V3_018,20,Female,2024-10-17_14h17.38.306,jersey_experiment_5_v3,2023.2.2,Win32,84.03361345,,,,,,,,,,,,,,,,526.6115,528.1527,528.1528,529.3676,return,0.2206,,100,,,,,,FBP-PT-81.png,0.43,1.2,24,0.75,0,53,53,23,1,,,,,,,,,,,,,,,,,,,,,,,,,,,,,,,,,,,,,,,,
,,,,,V3_018,20,Female,2024-10-17_14h17.38.306,jersey_experiment_5_v3,2023.2.2,Win32,84.03361345,,,,,,,,,,,,,,,,529.3678,530.9175,530.9175,532.4705,return,0.4233,,99.34895833,,,,,,FBP-PT-81.png,0.45,1.2,25,0.75,0,54,54,24,1,,,,,,,,,,,,,,,,,,,,,,,,,,,,,,,,,,,,,,,,
,,,,,V3_018,20,Female,2024-10-17_14h17.38.306,jersey_experiment_5_v3,2023.2.2,Win32,84.03361345,,,,,,,,,,,,,,,,532.4706,534.0234,534.0234,535.0588,return,0.4256,,99.21875,,,,,,FBP-YG-18.png,0.43,1.2,9,0.75,0,55,55,8,1,,,,,,,,,,,,,,,,,,,,,,,,,,,,,,,,,,,,,,,,
,,,,,V3_018,20,Female,2024-10-17_14h17.38.306,jersey_experiment_5_v3,2023.2.2,Win32,84.03361345,,,,,,,,,,,,,,,,535.0589,536.6116,536.6116,537.4117,return,0.424,,99.21875,,,,,,FBP-YG-19.png,0.45,1.2,15,0.75,0,56,56,14,1,,,,,,,,,,,,,,,,,,,,,,,,,,,,,,,,,,,,,,,,
,,,,,V3_018,20,Female,2024-10-17_14h17.38.306,jersey_experiment_5_v3,2023.2.2,Win32,84.03361345,,,,,,,,,,,,,,,,537.412,538.9648,538.9649,539.8588,return,0.4252,,99.21875,,,,,,FBP-RB-91.png,0.45,1.2,60,0.75,0,57,57,59,1,,,,,,,,,,,,,,,,,,,,,,,,,,,,,,,,,,,,,,,,
,,,,,V3_018,20,Female,2024-10-17_14h17.38.306,jersey_experiment_5_v3,2023.2.2,Win32,84.03361345,,,,,,,,,,,,,,,,539.859,541.1531,541.1531,542.4355,return,0.2717,,75,,,,,,FBP-OG-81.png,0.4,1.2,38,0.5,0,58,58,37,1,,,,,,,,,,,,,,,,,,,,,,,,,,,,,,,,,,,,,,,,
,,,,,V3_018,20,Female,2024-10-17_14h17.38.306,jersey_experiment_5_v3,2023.2.2,Win32,84.03361345,,,,,,,,,,,,,,,,542.4356,543.7296,543.7296,544.965,return,0.3295,,99.21875,,,,,,FBP-OG-91.png,0.45,1.2,45,0.5,0,59,59,44,1,,,,,,,,,,,,,,,,,,,,,,,,,,,,,,,,,,,,,,,,
,,,,,V3_018,20,Female,2024-10-17_14h17.38.306,jersey_experiment_5_v3,2023.2.2,Win32,84.03361345,,,,,,,,,,,,,,,,,,,,,,,,,,,,,,,,,,,,,,,544.9651,664.9579,,,,,,,,,,,,,,,,,,,,,,,,,,,,,,,,,,,,,,
,,,,,V3_018,20,Female,2024-10-17_14h17.38.306,jersey_experiment_5_v3,2023.2.2,Win32,84.03361345,,,,,,,,,,,,,,,,,,,,,,,,,,,,,,,,,,,,,,,,,664.958,705.5238,return,40.5462,,,,,,,,,,,,,,,,,,,,,,,,,,,,,,,,,,
,,,,,V3_018,20,Female,2024-10-17_14h17.38.306,jersey_experiment_5_v3,2023.2.2,Win32,84.03361345,,,,,,,,,,,,,,,,705.5254,706.8179,706.8179,708.9657,return,0.6595,,99.609375,,,,,,FBP-YG-81.png,0.45,1.2,10,0.5,,,,,,,,,,,,,0,0,0,9,1,,,,,,,,,,,,,,,,,,,,,,,,,,,,
,,,,,V3_018,20,Female,2024-10-17_14h17.38.306,jersey_experiment_5_v3,2023.2.2,Win32,84.03361345,,,,,,,,,,,,,,,,708.9659,710.2597,710.2597,711.2064,return,0.1408,,75,,,,,,FBP-PT-17.png,0.4,1.2,18,0.5,,,,,,,,,,,,,0,1,1,17,1,,,,,,,,,,,,,,,,,,,,,,,,,,,,
,,,,,V3_018,20,Female,2024-10-17_14h17.38.306,jersey_experiment_5_v3,2023.2.2,Win32,84.03361345,,,,,,,,,,,,,,,,711.2066,712.5007,712.5007,713.7828,return,0.2359,,75.13020833,,,,,,FBP-YG-71.png,0.4,1.2,3,0.5,,,,,,,,,,,,,0,2,2,2,1,,,,,,,,,,,,,,,,,,,,,,,,,,,,
,,,,,V3_018,20,Female,2024-10-17_14h17.38.306,jersey_experiment_5_v3,2023.2.2,Win32,84.03361345,,,,,,,,,,,,,,,,713.783,715.0771,715.0772,716.2888,return,0.254,,74.86979167,,,,,,FBP-RB-17.png,0.37,1.2,47,0.5,,,,,,,,,,,,,0,3,3,46,1,,,,,,,,,,,,,,,,,,,,,,,,,,,,
,,,,,V3_018,20,Female,2024-10-17_14h17.38.306,jersey_experiment_5_v3,2023.2.2,Win32,84.03361345,,,,,,,,,,,,,,,,716.2889,717.5831,717.5831,718.2773,return,0.2614,,74.86979167,,,,,,FBP-RB-17.png,0.4,1.2,48,0.5,,,,,,,,,,,,,0,4,4,47,1,,,,,,,,,,,,,,,,,,,,,,,,,,,,
,,,,,V3_018,20,Female,2024-10-17_14h17.38.306,jersey_experiment_5_v3,2023.2.2,Win32,84.03361345,,,,,,,,,,,,,,,,718.2773,719.5714,719.5714,720.1126,return,0.2508,,74.86979167,,,,,,FBP-YG-91.png,0.4,1.2,13,0.5,,,,,,,,,,,,,0,5,5,12,1,,,,,,,,,,,,,,,,,,,,,,,,,,,,
,,,,,V3_018,20,Female,2024-10-17_14h17.38.306,jersey_experiment_5_v3,2023.2.2,Win32,84.03361345,,,,,,,,,,,,,,,,720.1127,721.6656,721.6656,722.2599,return,0.2503,,74.86979167,,,,,,FBP-OG-17.png,0.4,1.2,33,0.75,,,,,,,,,,,,,0,6,6,32,1,,,,,,,,,,,,,,,,,,,,,,,,,,,,
,,,,,V3_018,20,Female,2024-10-17_14h17.38.306,jersey_experiment_5_v3,2023.2.2,Win32,84.03361345,,,,,,,,,,,,,,,,722.26,723.5596,723.5597,725.1364,return,0.1842,,99.73958333,,,,,,FBP-YG-71.png,0.43,1.2,4,0.5,,,,,,,,,,,,,0,7,7,3,1,,,,,,,,,,,,,,,,,,,,,,,,,,,,
,,,,,V3_018,20,Female,2024-10-17_14h17.38.306,jersey_experiment_5_v3,2023.2.2,Win32,84.03361345,,,,,,,,,,,,,,,,725.1364,726.4339,726.4339,728.0957,return,0.1886,,99.73958333,,,,,,FBP-RB-17.png,0.45,1.2,50,0.5,,,,,,,,,,,,,0,8,8,49,1,,,,,,,,,,,,,,,,,,,,,,,,,,,,
,,,,,V3_018,20,Female,2024-10-17_14h17.38.306,jersey_experiment_5_v3,2023.2.2,Win32,84.03361345,,,,,,,,,,,,,,,,728.0958,729.3894,729.3894,731.3041,return,0.2202,,24.609375,,,,,,FBP-RB-19.png,0.35,1.2,56,0.5,,,,,,,,,,,,,0,9,9,55,1,,,,,,,,,,,,,,,,,,,,,,,,,,,,
,,,,,V3_018,20,Female,2024-10-17_14h17.38.306,jersey_experiment_5_v3,2023.2.2,Win32,84.03361345,,,,,,,,,,,,,,,,731.3043,732.5955,732.5955,733.7954,return,0.2275,,24.86979167,,,,,,FBP-YG-91.png,0.37,1.2,12,0.5,,,,,,,,,,,,,0,10,10,11,1,,,,,,,,,,,,,,,,,,,,,,,,,,,,
,,,,,V3_018,20,Female,2024-10-17_14h17.38.306,jersey_experiment_5_v3,2023.2.2,Win32,84.03361345,,,,,,,,,,,,,,,,733.7956,735.0896,735.0897,735.7131,return,0.2653,,23.95833333,,,,,,FBP-PT-18.png,0.37,1.2,22,0.5,,,,,,,,,,,,,0,11,11,21,1,,,,,,,,,,,,,,,,,,,,,,,,,,,,
,,,,,V3_018,20,Female,2024-10-17_14h17.38.306,jersey_experiment_5_v3,2023.2.2,Win32,84.03361345,,,,,,,,,,,,,,,,735.7133,737.0073,737.0073,738.5368,return,0.2439,,0.260416667,,,,,,FBP-PT-17.png,0.35,1.2,16,0.5,,,,,,,,,,,,,0,12,12,15,1,,,,,,,,,,,,,,,,,,,,,,,,,,,,
,,,,,V3_018,20,Female,2024-10-17_14h17.38.306,jersey_experiment_5_v3,2023.2.2,Win32,84.03361345,,,,,,,,,,,,,,,,738.5372,739.8309,739.8309,741.1604,return,0.3532,,24.73958333,,,,,,FBP-RB-18.png,0.37,1.2,52,0.5,,,,,,,,,,,,,0,13,13,51,1,,,,,,,,,,,,,,,,,,,,,,,,,,,,
,,,,,V3_018,20,Female,2024-10-17_14h17.38.306,jersey_experiment_5_v3,2023.2.2,Win32,84.03361345,,,,,,,,,,,,,,,,741.1606,742.7166,742.7166,743.6664,return,0.1701,,75,,,,,,FBP-OG-19.png,0.4,1.2,43,0.75,,,,,,,,,,,,,0,14,14,42,1,,,,,,,,,,,,,,,,,,,,,,,,,,,,
,,,,,V3_018,20,Female,2024-10-17_14h17.38.306,jersey_experiment_5_v3,2023.2.2,Win32,84.03361345,,,,,,,,,,,,,,,,743.6666,744.9667,744.9667,746.0077,return,0.5092,,75.390625,,,,,,FBP-YG-81.png,0.4,1.2,8,0.5,,,,,,,,,,,,,0,15,15,7,1,,,,,,,,,,,,,,,,,,,,,,,,,,,,
,,,,,V3_018,20,Female,2024-10-17_14h17.38.306,jersey_experiment_5_v3,2023.2.2,Win32,84.03361345,,,,,,,,,,,,,,,,746.0078,747.5553,747.5553,750.2667,return,1.0115,,100,,,,,,FBP-OG-19.png,0.43,1.2,44,0.75,,,,,,,,,,,,,0,16,16,43,1,,,,,,,,,,,,,,,,,,,,,,,,,,,,
,,,,,V3_018,20,Female,2024-10-17_14h17.38.306,jersey_experiment_5_v3,2023.2.2,Win32,84.03361345,,,,,,,,,,,,,,,,750.2668,751.5637,751.5637,753.0314,return,0.3296,,75.13020833,,,,,,FBP-PT-17.png,0.37,1.2,17,0.5,,,,,,,,,,,,,0,17,17,16,1,,,,,,,,,,,,,,,,,,,,,,,,,,,,
,,,,,V3_018,20,Female,2024-10-17_14h17.38.306,jersey_experiment_5_v3,2023.2.2,Win32,84.03361345,,,,,,,,,,,,,,,,753.0315,754.3256,754.3256,755.6551,return,0.9093,,75.26041667,,,,,,FBP-YG-81.png,0.37,1.2,7,0.5,,,,,,,,,,,,,0,18,18,6,1,,,,,,,,,,,,,,,,,,,,,,,,,,,,
,,,,,V3_018,20,Female,2024-10-17_14h17.38.306,jersey_experiment_5_v3,2023.2.2,Win32,84.03361345,,,,,,,,,,,,,,,,755.6553,756.9492,756.9493,758.3141,return,0.2271,,99.73958333,,,,,,FBP-PT-19.png,0.43,1.2,29,0.5,,,,,,,,,,,,,0,19,19,28,1,,,,,,,,,,,,,,,,,,,,,,,,,,,,
,,,,,V3_018,20,Female,2024-10-17_14h17.38.306,jersey_experiment_5_v3,2023.2.2,Win32,84.03361345,,,,,,,,,,,,,,,,758.3141,759.6112,759.6112,761.0551,return,0.2907,,99.73958333,,,,,,FBP-RB-18.png,0.45,1.2,55,0.5,,,,,,,,,,,,,0,20,20,54,1,,,,,,,,,,,,,,,,,,,,,,,,,,,,
,,,,,V3_018,20,Female,2024-10-17_14h17.38.306,jersey_experiment_5_v3,2023.2.2,Win32,84.03361345,,,,,,,,,,,,,,,,761.0552,762.3494,762.3494,763.7965,return,0.4386,,99.34895833,,,,,,FBP-PT-18.png,0.45,1.2,25,0.5,,,,,,,,,,,,,0,21,21,24,1,,,,,,,,,,,,,,,,,,,,,,,,,,,,
,,,,,V3_018,20,Female,2024-10-17_14h17.38.306,jersey_experiment_5_v3,2023.2.2,Win32,84.03361345,,,,,,,,,,,,,,,,763.7966,765.3527,765.3527,766.5967,return,0.1798,,25.13020833,,,,,,FBP-OG-19.png,0.37,1.2,42,0.75,,,,,,,,,,,,,0,22,22,41,1,,,,,,,,,,,,,,,,,,,,,,,,,,,,
,,,,,V3_018,20,Female,2024-10-17_14h17.38.306,jersey_experiment_5_v3,2023.2.2,Win32,84.03361345,,,,,,,,,,,,,,,,766.5969,768.1442,768.1442,769.2352,return,0.1263,,75,,,,,,FBP-OG-17.png,0.43,1.2,34,0.75,,,,,,,,,,,,,0,23,23,33,1,,,,,,,,,,,,,,,,,,,,,,,,,,,,
,,,,,V3_018,20,Female,2024-10-17_14h17.38.306,jersey_experiment_5_v3,2023.2.2,Win32,84.03361345,,,,,,,,,,,,,,,,769.2353,770.5293,770.5293,771.5732,return,0.1673,,24.609375,,,,,,FBP-YG-91.png,0.35,1.2,11,0.5,,,,,,,,,,,,,0,24,24,10,1,,,,,,,,,,,,,,,,,,,,,,,,,,,,
,,,,,V3_018,20,Female,2024-10-17_14h17.38.306,jersey_experiment_5_v3,2023.2.2,Win32,84.03361345,,,,,,,,,,,,,,,,771.5734,772.8736,772.8736,773.8793,return,0.1651,,75,,,,,,FBP-RB-19.png,0.4,1.2,58,0.5,,,,,,,,,,,,,0,25,25,57,1,,,,,,,,,,,,,,,,,,,,,,,,,,,,
,,,,,V3_018,20,Female,2024-10-17_14h17.38.306,jersey_experiment_5_v3,2023.2.2,Win32,84.03361345,,,,,,,,,,,,,,,,773.8794,775.1794,775.1795,776.144,return,0.1087,,87.890625,,,,,,FBP-RB-17.png,0.43,1.2,49,0.5,,,,,,,,,,,,,0,26,26,48,1,,,,,,,,,,,,,,,,,,,,,,,,,,,,
,,,,,V3_018,20,Female,2024-10-17_14h17.38.306,jersey_experiment_5_v3,2023.2.2,Win32,84.03361345,,,,,,,,,,,,,,,,776.1442,777.6913,777.6913,780.0089,return,0.2015,,24.86979167,,,,,,FBP-OG-17.png,0.35,1.2,31,0.75,,,,,,,,,,,,,0,27,27,30,1,,,,,,,,,,,,,,,,,,,,,,,,,,,,
,,,,,V3_018,20,Female,2024-10-17_14h17.38.306,jersey_experiment_5_v3,2023.2.2,Win32,84.03361345,,,,,,,,,,,,,,,,780.0091,781.303,781.303,784.3855,return,0.3004,,90.234375,,,,,,FBP-YG-91.png,0.45,1.2,15,0.5,,,,,,,,,,,,,0,28,28,14,1,,,,,,,,,,,,,,,,,,,,,,,,,,,,
,,,,,V3_018,20,Female,2024-10-17_14h17.38.306,jersey_experiment_5_v3,2023.2.2,Win32,84.03361345,,,,,,,,,,,,,,,,784.3858,785.6799,785.68,787.0445,return,0.2505,,89.0625,,,,,,FBP-PT-17.png,0.43,1.2,19,0.5,,,,,,,,,,,,,0,29,29,18,1,,,,,,,,,,,,,,,,,,,,,,,,,,,,
,,,,,V3_018,20,Female,2024-10-17_14h17.38.306,jersey_experiment_5_v3,2023.2.2,Win32,84.03361345,,,,,,,,,,,,,,,,787.0446,788.3414,788.3414,791.4447,return,0.1415,,49.73958333,,,,,,FBP-YG-71.png,0.35,1.2,1,0.5,,,,,,,,,,,,,0,30,30,0,1,,,,,,,,,,,,,,,,,,,,,,,,,,,,
,,,,,V3_018,20,Female,2024-10-17_14h17.38.306,jersey_experiment_5_v3,2023.2.2,Win32,84.03361345,,,,,,,,,,,,,,,,791.4448,792.7418,792.7418,793.927,return,0.2602,,99.73958333,,,,,,FBP-RB-19.png,0.43,1.2,59,0.5,,,,,,,,,,,,,0,31,31,58,1,,,,,,,,,,,,,,,,,,,,,,,,,,,,
,,,,,V3_018,20,Female,2024-10-17_14h17.38.306,jersey_experiment_5_v3,2023.2.2,Win32,84.03361345,,,,,,,,,,,,,,,,793.9272,795.4802,795.4802,797.0447,return,0.2355,,99.73958333,,,,,,FBP-OG-18.png,0.4,1.2,38,0.75,,,,,,,,,,,,,0,32,32,37,1,,,,,,,,,,,,,,,,,,,,,,,,,,,,
,,,,,V3_018,20,Female,2024-10-17_14h17.38.306,jersey_experiment_5_v3,2023.2.2,Win32,84.03361345,,,,,,,,,,,,,,,,797.0449,798.3388,798.3389,798.9625,return,0.2961,,99.73958333,,,,,,FBP-YG-91.png,0.43,1.2,14,0.5,,,,,,,,,,,,,0,33,33,13,1,,,,,,,,,,,,,,,,,,,,,,,,,,,,
,,,,,V3_018,20,Female,2024-10-17_14h17.38.306,jersey_experiment_5_v3,2023.2.2,Win32,84.03361345,,,,,,,,,,,,,,,,798.9626,800.5217,800.5217,802.9923,return,0.8944,,75.26041667,,,,,,FBP-OG-17.png,0.37,1.2,32,0.75,,,,,,,,,,,,,0,34,34,31,1,,,,,,,,,,,,,,,,,,,,,,,,,,,,
,,,,,V3_018,20,Female,2024-10-17_14h17.38.306,jersey_experiment_5_v3,2023.2.2,Win32,84.03361345,,,,,,,,,,,,,,,,802.9924,804.2922,804.2922,807.1393,return,0.2834,,99.34895833,,,,,,FBP-PT-17.png,0.45,1.2,20,0.5,,,,,,,,,,,,,0,35,35,19,1,,,,,,,,,,,,,,,,,,,,,,,,,,,,
,,,,,V3_018,20,Female,2024-10-17_14h17.38.306,jersey_experiment_5_v3,2023.2.2,Win32,84.03361345,,,,,,,,,,,,,,,,807.1395,808.6952,808.6953,813.1042,return,3.7338,,99.47916667,,,,,,FBP-OG-19.png,0.45,1.2,45,0.75,,,,,,,,,,,,,0,36,36,44,1,,,,,,,,,,,,,,,,,,,,,,,,,,,,
,,,,,V3_018,20,Female,2024-10-17_14h17.38.306,jersey_experiment_5_v3,2023.2.2,Win32,84.03361345,,,,,,,,,,,,,,,,813.1044,814.3985,814.3985,817.2337,return,0.3707,,89.32291667,,,,,,FBP-RB-18.png,0.4,1.2,53,0.5,,,,,,,,,,,,,0,37,37,52,1,,,,,,,,,,,,,,,,,,,,,,,,,,,,
,,,,,V3_018,20,Female,2024-10-17_14h17.38.306,jersey_experiment_5_v3,2023.2.2,Win32,84.03361345,,,,,,,,,,,,,,,,817.2339,818.7868,818.7868,822.6811,return,1.5147,,62.109375,,,,,,FBP-OG-18.png,0.35,1.2,36,0.75,,,,,,,,,,,,,0,38,38,35,1,,,,,,,,,,,,,,,,,,,,,,,,,,,,
,,,,,V3_018,20,Female,2024-10-17_14h17.38.306,jersey_experiment_5_v3,2023.2.2,Win32,84.03361345,,,,,,,,,,,,,,,,822.6812,823.9812,823.9812,825.4812,return,0.2198,,100,,,,,,FBP-PT-19.png,0.45,1.2,30,0.5,,,,,,,,,,,,,0,39,39,29,1,,,,,,,,,,,,,,,,,,,,,,,,,,,,
,,,,,V3_018,20,Female,2024-10-17_14h17.38.306,jersey_experiment_5_v3,2023.2.2,Win32,84.03361345,,,,,,,,,,,,,,,,825.4814,827.0343,827.0343,828.2875,return,0.1651,,74.47916667,,,,,,FBP-OG-18.png,0.37,1.2,37,0.75,,,,,,,,,,,,,0,40,40,36,1,,,,,,,,,,,,,,,,,,,,,,,,,,,,
,,,,,V3_018,20,Female,2024-10-17_14h17.38.306,jersey_experiment_5_v3,2023.2.2,Win32,84.03361345,,,,,,,,,,,,,,,,828.2877,829.8343,829.8343,832.1701,return,0.9887,,50.13020833,,,,,,FBP-OG-19.png,0.35,1.2,41,0.75,,,,,,,,,,,,,0,41,41,40,1,,,,,,,,,,,,,,,,,,,,,,,,,,,,
,,,,,V3_018,20,Female,2024-10-17_14h17.38.306,jersey_experiment_5_v3,2023.2.2,Win32,84.03361345,,,,,,,,,,,,,,,,832.1703,833.4697,833.4697,834.2932,return,0.2039,,49.609375,,,,,,FBP-PT-18.png,0.35,1.2,21,0.5,,,,,,,,,,,,,0,42,42,20,1,,,,,,,,,,,,,,,,,,,,,,,,,,,,
,,,,,V3_018,20,Female,2024-10-17_14h17.38.306,jersey_experiment_5_v3,2023.2.2,Win32,84.03361345,,,,,,,,,,,,,,,,834.2934,835.5874,835.5874,836.705,return,0.1561,,74.609375,,,,,,FBP-PT-18.png,0.4,1.2,23,0.5,,,,,,,,,,,,,0,43,43,22,1,,,,,,,,,,,,,,,,,,,,,,,,,,,,
,,,,,V3_018,20,Female,2024-10-17_14h17.38.306,jersey_experiment_5_v3,2023.2.2,Win32,84.03361345,,,,,,,,,,,,,,,,836.7051,837.9993,837.9993,839.2968,return,0.1771,,24.47916667,,,,,,FBP-PT-19.png,0.35,1.2,26,0.5,,,,,,,,,,,,,0,44,44,25,1,,,,,,,,,,,,,,,,,,,,,,,,,,,,
,,,,,V3_018,20,Female,2024-10-17_14h17.38.306,jersey_experiment_5_v3,2023.2.2,Win32,84.03361345,,,,,,,,,,,,,,,,839.297,840.5994,840.5994,842.1053,return,0.3278,,99.73958333,,,,,,FBP-RB-19.png,0.45,1.2,60,0.5,,,,,,,,,,,,,0,45,45,59,1,,,,,,,,,,,,,,,,,,,,,,,,,,,,
,,,,,V3_018,20,Female,2024-10-17_14h17.38.306,jersey_experiment_5_v3,2023.2.2,Win32,84.03361345,,,,,,,,,,,,,,,,842.1055,843.3994,843.3994,845.1524,return,0.2274,,100,,,,,,FBP-PT-19.png,0.4,1.2,28,0.5,,,,,,,,,,,,,0,46,46,27,1,,,,,,,,,,,,,,,,,,,,,,,,,,,,
,,,,,V3_018,20,Female,2024-10-17_14h17.38.306,jersey_experiment_5_v3,2023.2.2,Win32,84.03361345,,,,,,,,,,,,,,,,845.1525,846.4528,846.4528,848.1055,return,0.188,,25.390625,,,,,,FBP-YG-81.png,0.35,1.2,6,0.5,,,,,,,,,,,,,0,47,47,5,1,,,,,,,,,,,,,,,,,,,,,,,,,,,,
,,,,,V3_018,20,Female,2024-10-17_14h17.38.306,jersey_experiment_5_v3,2023.2.2,Win32,84.03361345,,,,,,,,,,,,,,,,848.1057,849.3997,849.3998,850.835,return,0.2371,,75,,,,,,FBP-YG-81.png,0.43,1.2,9,0.5,,,,,,,,,,,,,0,48,48,8,1,,,,,,,,,,,,,,,,,,,,,,,,,,,,
,,,,,V3_018,20,Female,2024-10-17_14h17.38.306,jersey_experiment_5_v3,2023.2.2,Win32,84.03361345,,,,,,,,,,,,,,,,850.8352,852.3823,852.3823,853.9879,return,0.2837,,89.0625,,,,,,FBP-OG-18.png,0.43,1.2,39,0.75,,,,,,,,,,,,,0,49,49,38,1,,,,,,,,,,,,,,,,,,,,,,,,,,,,
,,,,,V3_018,20,Female,2024-10-17_14h17.38.306,jersey_experiment_5_v3,2023.2.2,Win32,84.03361345,,,,,,,,,,,,,,,,853.988,855.2822,855.2822,856.8,return,0.1961,,74.86979167,,,,,,FBP-RB-19.png,0.37,1.2,57,0.5,,,,,,,,,,,,,0,50,50,56,1,,,,,,,,,,,,,,,,,,,,,,,,,,,,
,,,,,V3_018,20,Female,2024-10-17_14h17.38.306,jersey_experiment_5_v3,2023.2.2,Win32,84.03361345,,,,,,,,,,,,,,,,856.8001,858.3442,858.3442,859.3709,return,0.2031,,89.0625,,,,,,FBP-OG-18.png,0.45,1.2,40,0.75,,,,,,,,,,,,,0,51,51,39,1,,,,,,,,,,,,,,,,,,,,,,,,,,,,
,,,,,V3_018,20,Female,2024-10-17_14h17.38.306,jersey_experiment_5_v3,2023.2.2,Win32,84.03361345,,,,,,,,,,,,,,,,859.371,860.665,860.665,861.906,return,0.2643,,74.73958333,,,,,,FBP-RB-17.png,0.35,1.2,46,0.5,,,,,,,,,,,,,0,52,52,45,1,,,,,,,,,,,,,,,,,,,,,,,,,,,,
,,,,,V3_018,20,Female,2024-10-17_14h17.38.306,jersey_experiment_5_v3,2023.2.2,Win32,84.03361345,,,,,,,,,,,,,,,,861.9062,863.2001,863.2002,865.5532,return,0.8622,,74.86979167,,,,,,FBP-PT-18.png,0.43,1.2,24,0.5,,,,,,,,,,,,,0,53,53,23,1,,,,,,,,,,,,,,,,,,,,,,,,,,,,
,,,,,V3_018,20,Female,2024-10-17_14h17.38.306,jersey_experiment_5_v3,2023.2.2,Win32,84.03361345,,,,,,,,,,,,,,,,865.5534,866.8474,866.8474,868.2122,return,0.3419,,74.609375,,,,,,FBP-YG-71.png,0.37,1.2,2,0.5,,,,,,,,,,,,,0,54,54,1,1,,,,,,,,,,,,,,,,,,,,,,,,,,,,
,,,,,V3_018,20,Female,2024-10-17_14h17.38.306,jersey_experiment_5_v3,2023.2.2,Win32,84.03361345,,,,,,,,,,,,,,,,868.2123,869.5121,869.5121,870.6661,return,0.2595,,99.73958333,,,,,,FBP-YG-71.png,0.45,1.2,5,0.5,,,,,,,,,,,,,0,55,55,4,1,,,,,,,,,,,,,,,,,,,,,,,,,,,,
,,,,,V3_018,20,Female,2024-10-17_14h17.38.306,jersey_experiment_5_v3,2023.2.2,Win32,84.03361345,,,,,,,,,,,,,,,,870.6661,871.9652,871.9652,872.9095,return,0.1886,,100,,,,,,FBP-RB-18.png,0.43,1.2,54,0.5,,,,,,,,,,,,,0,56,56,53,1,,,,,,,,,,,,,,,,,,,,,,,,,,,,
,,,,,V3_018,20,Female,2024-10-17_14h17.38.306,jersey_experiment_5_v3,2023.2.2,Win32,84.03361345,,,,,,,,,,,,,,,,872.9096,874.4595,874.4595,875.471,return,0.2405,,100,,,,,,FBP-OG-17.png,0.45,1.2,35,0.75,,,,,,,,,,,,,0,57,57,34,1,,,,,,,,,,,,,,,,,,,,,,,,,,,,
,,,,,V3_018,20,Female,2024-10-17_14h17.38.306,jersey_experiment_5_v3,2023.2.2,Win32,84.03361345,,,,,,,,,,,,,,,,875.4712,876.7654,876.7654,877.7479,return,0.2117,,74.47916667,,,,,,FBP-PT-19.png,0.37,1.2,27,0.5,,,,,,,,,,,,,0,58,58,26,1,,,,,,,,,,,,,,,,,,,,,,,,,,,,
,,,,,V3_018,20,Female,2024-10-17_14h17.38.306,jersey_experiment_5_v3,2023.2.2,Win32,84.03361345,,,,,,,,,,,,,,,,877.748,879.0422,879.0422,881.6479,return,0.1811,,75.13020833,,,,,,FBP-RB-18.png,0.35,1.2,51,0.5,,,,,,,,,,,,,0,59,59,50,1,,,,,,,,,,,,,,,,,,,,,,,,,,,,
,,,,,V3_018,20,Female,2024-10-17_14h17.38.306,jersey_experiment_5_v3,2023.2.2,Win32,84.03361345,,,,,,,,,,,,,,,,881.6497,882.942,882.942,885.1422,return,0.3057,,88.41145833,,,,,,FBP-YG-17.png,0.43,1.2,4,0.5,,,,,,,,,,,,,,,,,,0,0,0,3,1,,,,,,,,,,,,,,,,,,,,,,,
,,,,,V3_018,20,Female,2024-10-17_14h17.38.306,jersey_experiment_5_v3,2023.2.2,Win32,84.03361345,,,,,,,,,,,,,,,,885.1424,886.4363,886.4363,887.6631,return,0.197,,74.86979167,,,,,,FBP-PT-71.png,0.37,1.2,17,0.5,,,,,,,,,,,,,,,,,,0,1,1,16,1,,,,,,,,,,,,,,,,,,,,,,,
,,,,,V3_018,20,Female,2024-10-17_14h17.38.306,jersey_experiment_5_v3,2023.2.2,Win32,84.03361345,,,,,,,,,,,,,,,,887.6632,888.9723,888.9723,890.2717,return,0.8901,,75.26041667,,,,,,FBP-YG-17.png,0.37,1.2,2,0.5,,,,,,,,,,,,,,,,,,0,2,2,1,1,,,,,,,,,,,,,,,,,,,,,,,
,,,,,V3_018,20,Female,2024-10-17_14h17.38.306,jersey_experiment_5_v3,2023.2.2,Win32,84.03361345,,,,,,,,,,,,,,,,890.2718,891.5688,891.5689,892.566,return,0.4723,,75.26041667,,,,,,FBP-RB-81.png,0.35,1.2,51,0.5,,,,,,,,,,,,,,,,,,0,3,3,50,1,,,,,,,,,,,,,,,,,,,,,,,
,,,,,V3_018,20,Female,2024-10-17_14h17.38.306,jersey_experiment_5_v3,2023.2.2,Win32,84.03361345,,,,,,,,,,,,,,,,892.5661,894.119,894.119,896.4367,return,0.2268,,49.47916667,,,,,,FBP-OG-91.png,0.35,1.2,41,0.75,,,,,,,,,,,,,,,,,,0,4,4,40,1,,,,,,,,,,,,,,,,,,,,,,,
,,,,,V3_018,20,Female,2024-10-17_14h17.38.306,jersey_experiment_5_v3,2023.2.2,Win32,84.03361345,,,,,,,,,,,,,,,,896.4369,897.9841,897.9841,898.825,return,0.1262,,50.13020833,,,,,,FBP-OG-81.png,0.37,1.2,37,0.75,,,,,,,,,,,,,,,,,,0,5,5,36,1,,,,,,,,,,,,,,,,,,,,,,,
,,,,,V3_018,20,Female,2024-10-17_14h17.38.306,jersey_experiment_5_v3,2023.2.2,Win32,84.03361345,,,,,,,,,,,,,,,,898.8252,900.1255,900.1256,901.2839,return,0.2514,,24.609375,,,,,,FBP-PT-81.png,0.35,1.2,21,0.5,,,,,,,,,,,,,,,,,,0,6,6,20,1,,,,,,,,,,,,,,,,,,,,,,,
,,,,,V3_018,20,Female,2024-10-17_14h17.38.306,jersey_experiment_5_v3,2023.2.2,Win32,84.03361345,,,,,,,,,,,,,,,,901.2841,902.8401,902.8401,904.0314,return,0.1563,,75.13020833,,,,,,FBP-OG-91.png,0.4,1.2,43,0.75,,,,,,,,,,,,,,,,,,0,7,7,42,1,,,,,,,,,,,,,,,,,,,,,,,
,,,,,V3_018,20,Female,2024-10-17_14h17.38.306,jersey_experiment_5_v3,2023.2.2,Win32,84.03361345,,,,,,,,,,,,,,,,904.0315,905.331,905.3311,906.3076,return,0.1067,,75,,,,,,FBP-PT-91.png,0.37,1.2,27,0.5,,,,,,,,,,,,,,,,,,0,8,8,26,1,,,,,,,,,,,,,,,,,,,,,,,
,,,,,V3_018,20,Female,2024-10-17_14h17.38.306,jersey_experiment_5_v3,2023.2.2,Win32,84.03361345,,,,,,,,,,,,,,,,906.3078,907.8491,907.8491,908.6902,return,0.188,,75,,,,,,FBP-OG-71.png,0.37,1.2,32,0.75,,,,,,,,,,,,,,,,,,0,9,9,31,1,,,,,,,,,,,,,,,,,,,,,,,
,,,,,V3_018,20,Female,2024-10-17_14h17.38.306,jersey_experiment_5_v3,2023.2.2,Win32,84.03361345,,,,,,,,,,,,,,,,908.6903,909.9931,909.9931,911.2961,return,0.2279,,99.47916667,,,,,,FBP-YG-19.png,0.43,1.2,14,0.5,,,,,,,,,,,,,,,,,,0,10,10,13,1,,,,,,,,,,,,,,,,,,,,,,,
,,,,,V3_018,20,Female,2024-10-17_14h17.38.306,jersey_experiment_5_v3,2023.2.2,Win32,84.03361345,,,,,,,,,,,,,,,,911.2962,912.5902,912.5902,913.4255,return,0.4415,,99.34895833,,,,,,FBP-YG-19.png,0.4,1.2,13,0.5,,,,,,,,,,,,,,,,,,0,11,11,12,1,,,,,,,,,,,,,,,,,,,,,,,
,,,,,V3_018,20,Female,2024-10-17_14h17.38.306,jersey_experiment_5_v3,2023.2.2,Win32,84.03361345,,,,,,,,,,,,,,,,913.4256,914.7197,914.7198,916.0406,return,0.1502,,74.34895833,,,,,,FBP-RB-81.png,0.37,1.2,52,0.5,,,,,,,,,,,,,,,,,,0,12,12,51,1,,,,,,,,,,,,,,,,,,,,,,,
,,,,,V3_018,20,Female,2024-10-17_14h17.38.306,jersey_experiment_5_v3,2023.2.2,Win32,84.03361345,,,,,,,,,,,,,,,,916.0408,917.5931,917.5932,918.432,return,0.1184,,100,,,,,,FBP-OG-81.png,0.45,1.2,40,0.75,,,,,,,,,,,,,,,,,,0,13,13,39,1,,,,,,,,,,,,,,,,,,,,,,,
,,,,,V3_018,20,Female,2024-10-17_14h17.38.306,jersey_experiment_5_v3,2023.2.2,Win32,84.03361345,,,,,,,,,,,,,,,,918.4322,919.7316,919.7316,920.7232,return,0.1501,,100,,,,,,FBP-YG-17.png,0.45,1.2,5,0.5,,,,,,,,,,,,,,,,,,0,14,14,4,1,,,,,,,,,,,,,,,,,,,,,,,
,,,,,V3_018,20,Female,2024-10-17_14h17.38.306,jersey_experiment_5_v3,2023.2.2,Win32,84.03361345,,,,,,,,,,,,,,,,920.7233,922.0323,922.0323,922.9114,return,0.1501,,100,,,,,,FBP-RB-91.png,0.45,1.2,60,0.5,,,,,,,,,,,,,,,,,,0,15,15,59,1,,,,,,,,,,,,,,,,,,,,,,,
,,,,,V3_018,20,Female,2024-10-17_14h17.38.306,jersey_experiment_5_v3,2023.2.2,Win32,84.03361345,,,,,,,,,,,,,,,,922.9116,924.2202,924.2202,925.4259,return,0.2849,,87.63020833,,,,,,FBP-PT-81.png,0.43,1.2,24,0.5,,,,,,,,,,,,,,,,,,0,16,16,23,1,,,,,,,,,,,,,,,,,,,,,,,
,,,,,V3_018,20,Female,2024-10-17_14h17.38.306,jersey_experiment_5_v3,2023.2.2,Win32,84.03361345,,,,,,,,,,,,,,,,925.4261,926.7233,926.7233,929.5084,return,1.8149,,87.5,,,,,,FBP-RB-91.png,0.4,1.2,58,0.5,,,,,,,,,,,,,,,,,,0,17,17,57,1,,,,,,,,,,,,,,,,,,,,,,,
,,,,,V3_018,20,Female,2024-10-17_14h17.38.306,jersey_experiment_5_v3,2023.2.2,Win32,84.03361345,,,,,,,,,,,,,,,,929.5086,930.8028,930.8028,933.2733,return,0.197,,49.609375,,,,,,FBP-YG-18.png,0.35,1.2,6,0.5,,,,,,,,,,,,,,,,,,0,18,18,5,1,,,,,,,,,,,,,,,,,,,,,,,
,,,,,V3_018,20,Female,2024-10-17_14h17.38.306,jersey_experiment_5_v3,2023.2.2,Win32,84.03361345,,,,,,,,,,,,,,,,933.2735,934.5675,934.5675,940.7913,return,5.0507,,75.390625,,,,,,FBP-RB-91.png,0.43,1.2,59,0.5,,,,,,,,,,,,,,,,,,0,19,19,58,1,,,,,,,,,,,,,,,,,,,,,,,
,,,,,V3_018,20,Female,2024-10-17_14h17.38.306,jersey_experiment_5_v3,2023.2.2,Win32,84.03361345,,,,,,,,,,,,,,,,940.7915,942.0855,942.0855,943.909,return,0.7321,,49.47916667,,,,,,FBP-YG-17.png,0.35,1.2,1,0.5,,,,,,,,,,,,,,,,,,0,20,20,0,1,,,,,,,,,,,,,,,,,,,,,,,
,,,,,V3_018,20,Female,2024-10-17_14h17.38.306,jersey_experiment_5_v3,2023.2.2,Win32,84.03361345,,,,,,,,,,,,,,,,943.9092,945.2096,945.2096,946.6268,return,0.1901,,99.21875,,,,,,FBP-YG-18.png,0.43,1.2,9,0.5,,,,,,,,,,,,,,,,,,0,21,21,8,1,,,,,,,,,,,,,,,,,,,,,,,
,,,,,V3_018,20,Female,2024-10-17_14h17.38.306,jersey_experiment_5_v3,2023.2.2,Win32,84.03361345,,,,,,,,,,,,,,,,946.627,948.1798,948.1798,949.5563,return,0.1765,,50.65104167,,,,,,FBP-OG-71.png,0.35,1.2,31,0.75,,,,,,,,,,,,,,,,,,0,22,22,30,1,,,,,,,,,,,,,,,,,,,,,,,
,,,,,V3_018,20,Female,2024-10-17_14h17.38.306,jersey_experiment_5_v3,2023.2.2,Win32,84.03361345,,,,,,,,,,,,,,,,949.5566,951.1007,951.1007,951.9447,return,0.1326,,75.26041667,,,,,,FBP-OG-81.png,0.4,1.2,38,0.75,,,,,,,,,,,,,,,,,,0,23,23,37,1,,,,,,,,,,,,,,,,,,,,,,,
,,,,,V3_018,20,Female,2024-10-17_14h17.38.306,jersey_experiment_5_v3,2023.2.2,Win32,84.03361345,,,,,,,,,,,,,,,,951.9448,953.2388,953.2388,954.3682,return,0.1455,,74.86979167,,,,,,FBP-RB-81.png,0.4,1.2,53,0.5,,,,,,,,,,,,,,,,,,0,24,24,52,1,,,,,,,,,,,,,,,,,,,,,,,
,,,,,V3_018,20,Female,2024-10-17_14h17.38.306,jersey_experiment_5_v3,2023.2.2,Win32,84.03361345,,,,,,,,,,,,,,,,954.3683,955.6624,955.6624,956.6742,return,0.0964,,100,,,,,,FBP-PT-91.png,0.45,1.2,30,0.5,,,,,,,,,,,,,,,,,,0,25,25,29,1,,,,,,,,,,,,,,,,,,,,,,,
,,,,,V3_018,20,Female,2024-10-17_14h17.38.306,jersey_experiment_5_v3,2023.2.2,Win32,84.03361345,,,,,,,,,,,,,,,,956.6744,958.2303,958.2303,958.9684,return,0.1502,,100,,,,,,FBP-OG-71.png,0.45,1.2,35,0.75,,,,,,,,,,,,,,,,,,0,26,26,34,1,,,,,,,,,,,,,,,,,,,,,,,
,,,,,V3_018,20,Female,2024-10-17_14h17.38.306,jersey_experiment_5_v3,2023.2.2,Win32,84.03361345,,,,,,,,,,,,,,,,958.9685,960.2626,960.2627,961.5449,return,0.2589,,87.63020833,,,,,,FBP-YG-17.png,0.4,1.2,3,0.5,,,,,,,,,,,,,,,,,,0,27,27,2,1,,,,,,,,,,,,,,,,,,,,,,,
,,,,,V3_018,20,Female,2024-10-17_14h17.38.306,jersey_experiment_5_v3,2023.2.2,Win32,84.03361345,,,,,,,,,,,,,,,,961.5452,962.839,962.8391,964.4745,return,0.8083,,74.609375,,,,,,FBP-PT-81.png,0.37,1.2,22,0.5,,,,,,,,,,,,,,,,,,0,28,28,21,1,,,,,,,,,,,,,,,,,,,,,,,
,,,,,V3_018,20,Female,2024-10-17_14h17.38.306,jersey_experiment_5_v3,2023.2.2,Win32,84.03361345,,,,,,,,,,,,,,,,964.4747,965.7685,965.7685,966.7452,return,0.2121,,75.52083333,,,,,,FBP-PT-71.png,0.43,1.2,19,0.5,,,,,,,,,,,,,,,,,,0,29,29,18,1,,,,,,,,,,,,,,,,,,,,,,,
,,,,,V3_018,20,Female,2024-10-17_14h17.38.306,jersey_experiment_5_v3,2023.2.2,Win32,84.03361345,,,,,,,,,,,,,,,,966.7453,968.2981,968.2981,969.8277,return,0.8948,,88.28125,,,,,,FBP-OG-71.png,0.43,1.2,34,0.75,,,,,,,,,,,,,,,,,,0,30,30,33,1,,,,,,,,,,,,,,,,,,,,,,,
,,,,,V3_018,20,Female,2024-10-17_14h17.38.306,jersey_experiment_5_v3,2023.2.2,Win32,84.03361345,,,,,,,,,,,,,,,,969.8278,971.1217,971.1217,973.11,return,0.2691,,88.41145833,,,,,,FBP-PT-71.png,0.4,1.2,18,0.5,,,,,,,,,,,,,,,,,,0,31,31,17,1,,,,,,,,,,,,,,,,,,,,,,,
,,,,,V3_018,20,Female,2024-10-17_14h17.38.306,jersey_experiment_5_v3,2023.2.2,Win32,84.03361345,,,,,,,,,,,,,,,,973.1102,974.6513,974.6513,976.3016,return,0.8795,,88.28125,,,,,,FBP-OG-91.png,0.43,1.2,44,0.75,,,,,,,,,,,,,,,,,,0,32,32,43,1,,,,,,,,,,,,,,,,,,,,,,,
,,,,,V3_018,20,Female,2024-10-17_14h17.38.306,jersey_experiment_5_v3,2023.2.2,Win32,84.03361345,,,,,,,,,,,,,,,,976.3017,977.6044,977.6045,978.322,return,0.3702,,87.76041667,,,,,,FBP-RB-71.png,0.37,1.2,47,0.5,,,,,,,,,,,,,,,,,,0,33,33,46,1,,,,,,,,,,,,,,,,,,,,,,,
,,,,,V3_018,20,Female,2024-10-17_14h17.38.306,jersey_experiment_5_v3,2023.2.2,Win32,84.03361345,,,,,,,,,,,,,,,,978.3222,979.6191,979.6191,980.999,return,0.2122,,50,,,,,,FBP-PT-91.png,0.35,1.2,26,0.5,,,,,,,,,,,,,,,,,,0,34,34,25,1,,,,,,,,,,,,,,,,,,,,,,,
,,,,,V3_018,20,Female,2024-10-17_14h17.38.306,jersey_experiment_5_v3,2023.2.2,Win32,84.03361345,,,,,,,,,,,,,,,,980.9992,982.2928,982.2929,983.1928,return,0.1323,,100,,,,,,FBP-RB-81.png,0.45,1.2,55,0.5,,,,,,,,,,,,,,,,,,0,35,35,54,1,,,,,,,,,,,,,,,,,,,,,,,
,,,,,V3_018,20,Female,2024-10-17_14h17.38.306,jersey_experiment_5_v3,2023.2.2,Win32,84.03361345,,,,,,,,,,,,,,,,983.1931,984.4869,984.4869,985.3843,return,0.1032,,100,,,,,,FBP-YG-18.png,0.45,1.2,10,0.5,,,,,,,,,,,,,,,,,,0,36,36,9,1,,,,,,,,,,,,,,,,,,,,,,,
,,,,,V3_018,20,Female,2024-10-17_14h17.38.306,jersey_experiment_5_v3,2023.2.2,Win32,84.03361345,,,,,,,,,,,,,,,,985.3845,986.687,986.687,988.3106,return,0.3303,,75,,,,,,FBP-RB-91.png,0.37,1.2,57,0.5,,,,,,,,,,,,,,,,,,0,37,37,56,1,,,,,,,,,,,,,,,,,,,,,,,
,,,,,V3_018,20,Female,2024-10-17_14h17.38.306,jersey_experiment_5_v3,2023.2.2,Win32,84.03361345,,,,,,,,,,,,,,,,988.3108,989.6048,989.6048,991.4871,return,0.2051,,88.41145833,,,,,,FBP-YG-18.png,0.4,1.2,8,0.5,,,,,,,,,,,,,,,,,,0,38,38,7,1,,,,,,,,,,,,,,,,,,,,,,,
,,,,,V3_018,20,Female,2024-10-17_14h17.38.306,jersey_experiment_5_v3,2023.2.2,Win32,84.03361345,,,,,,,,,,,,,,,,991.4873,992.7875,992.7875,993.5507,return,0.1512,,100,,,,,,FBP-PT-91.png,0.43,1.2,29,0.5,,,,,,,,,,,,,,,,,,0,39,39,28,1,,,,,,,,,,,,,,,,,,,,,,,
,,,,,V3_018,20,Female,2024-10-17_14h17.38.306,jersey_experiment_5_v3,2023.2.2,Win32,84.03361345,,,,,,,,,,,,,,,,993.5509,994.8432,994.8432,996.0404,return,0.1179,,74.86979167,,,,,,FBP-RB-71.png,0.35,1.2,46,0.5,,,,,,,,,,,,,,,,,,0,40,40,45,1,,,,,,,,,,,,,,,,,,,,,,,
,,,,,V3_018,20,Female,2024-10-17_14h17.38.306,jersey_experiment_5_v3,2023.2.2,Win32,84.03361345,,,,,,,,,,,,,,,,996.0406,997.3344,997.3345,998.111,return,0.4207,,74.86979167,,,,,,FBP-YG-18.png,0.37,1.2,7,0.5,,,,,,,,,,,,,,,,,,0,41,41,6,1,,,,,,,,,,,,,,,,,,,,,,,
,,,,,V3_018,20,Female,2024-10-17_14h17.38.306,jersey_experiment_5_v3,2023.2.2,Win32,84.03361345,,,,,,,,,,,,,,,,998.1111,999.4052,999.4053,1000.1347,return,0.1565,,100,,,,,,FBP-RB-71.png,0.45,1.2,50,0.5,,,,,,,,,,,,,,,,,,0,42,42,49,1,,,,,,,,,,,,,,,,,,,,,,,
,,,,,V3_018,20,Female,2024-10-17_14h17.38.306,jersey_experiment_5_v3,2023.2.2,Win32,84.03361345,,,,,,,,,,,,,,,,1000.1348,1001.4319,1001.4319,1002.3878,return,0.1883,,75,,,,,,FBP-RB-91.png,0.35,1.2,56,0.5,,,,,,,,,,,,,,,,,,0,43,43,55,1,,,,,,,,,,,,,,,,,,,,,,,
,,,,,V3_018,20,Female,2024-10-17_14h17.38.306,jersey_experiment_5_v3,2023.2.2,Win32,84.03361345,,,,,,,,,,,,,,,,1002.388,1003.6875,1003.6877,1005.6877,return,1.2243,,88.28125,,,,,,FBP-RB-71.png,0.4,1.2,48,0.5,,,,,,,,,,,,,,,,,,0,44,44,47,1,,,,,,,,,,,,,,,,,,,,,,,
,,,,,V3_018,20,Female,2024-10-17_14h17.38.306,jersey_experiment_5_v3,2023.2.2,Win32,84.03361345,,,,,,,,,,,,,,,,1005.6879,1006.9821,1006.9821,1007.4644,return,0.1414,,100,,,,,,FBP-PT-81.png,0.45,1.2,25,0.5,,,,,,,,,,,,,,,,,,0,45,45,24,1,,,,,,,,,,,,,,,,,,,,,,,
,,,,,V3_018,20,Female,2024-10-17_14h17.38.306,jersey_experiment_5_v3,2023.2.2,Win32,84.03361345,,,,,,,,,,,,,,,,1007.4647,1009.0087,1009.0087,1011.7468,return,0.178,,100,,,,,,FBP-OG-81.png,0.43,1.2,39,0.75,,,,,,,,,,,,,,,,,,0,46,46,38,1,,,,,,,,,,,,,,,,,,,,,,,
,,,,,V3_018,20,Female,2024-10-17_14h17.38.306,jersey_experiment_5_v3,2023.2.2,Win32,84.03361345,,,,,,,,,,,,,,,,1011.7469,1013.041,1013.041,1014.8589,return,0.6587,,88.93229167,,,,,,FBP-PT-81.png,0.4,1.2,23,0.5,,,,,,,,,,,,,,,,,,0,47,47,22,1,,,,,,,,,,,,,,,,,,,,,,,
,,,,,V3_018,20,Female,2024-10-17_14h17.38.306,jersey_experiment_5_v3,2023.2.2,Win32,84.03361345,,,,,,,,,,,,,,,,1014.859,1016.1588,1016.1589,1016.7884,return,0.1412,,100,,,,,,FBP-RB-81.png,0.43,1.2,54,0.5,,,,,,,,,,,,,,,,,,0,48,48,53,1,,,,,,,,,,,,,,,,,,,,,,,
,,,,,V3_018,20,Female,2024-10-17_14h17.38.306,jersey_experiment_5_v3,2023.2.2,Win32,84.03361345,,,,,,,,,,,,,,,,1016.7886,1018.3354,1018.3354,1020.1706,return,0.1648,,74.86979167,,,,,,FBP-OG-81.png,0.35,1.2,36,0.75,,,,,,,,,,,,,,,,,,0,49,49,35,1,,,,,,,,,,,,,,,,,,,,,,,
,,,,,V3_018,20,Female,2024-10-17_14h17.38.306,jersey_experiment_5_v3,2023.2.2,Win32,84.03361345,,,,,,,,,,,,,,,,1020.1708,1021.4707,1021.4708,1022.4916,return,0.071,,100,,,,,,FBP-RB-71.png,0.43,1.2,49,0.5,,,,,,,,,,,,,,,,,,0,50,50,48,1,,,,,,,,,,,,,,,,,,,,,,,
,,,,,V3_018,20,Female,2024-10-17_14h17.38.306,jersey_experiment_5_v3,2023.2.2,Win32,84.03361345,,,,,,,,,,,,,,,,1022.4917,1023.7855,1023.7855,1024.9943,return,0.1231,,100,,,,,,FBP-PT-91.png,0.4,1.2,28,0.5,,,,,,,,,,,,,,,,,,0,51,51,27,1,,,,,,,,,,,,,,,,,,,,,,,
,,,,,V3_018,20,Female,2024-10-17_14h17.38.306,jersey_experiment_5_v3,2023.2.2,Win32,84.03361345,,,,,,,,,,,,,,,,1024.9944,1026.2946,1026.2946,1028.1121,return,0.2309,,50,,,,,,FBP-YG-19.png,0.35,1.2,11,0.5,,,,,,,,,,,,,,,,,,0,52,52,10,1,,,,,,,,,,,,,,,,,,,,,,,
,,,,,V3_018,20,Female,2024-10-17_14h17.38.306,jersey_experiment_5_v3,2023.2.2,Win32,84.03361345,,,,,,,,,,,,,,,,1028.1123,1029.6651,1029.6651,1030.9304,return,0.142,,100,,,,,,FBP-OG-91.png,0.45,1.2,45,0.75,,,,,,,,,,,,,,,,,,0,53,53,44,1,,,,,,,,,,,,,,,,,,,,,,,
,,,,,V3_018,20,Female,2024-10-17_14h17.38.306,jersey_experiment_5_v3,2023.2.2,Win32,84.03361345,,,,,,,,,,,,,,,,1030.9306,1032.477,1032.477,1046.2304,return,1.1986,,75,,,,,,FBP-OG-91.png,0.37,1.2,42,0.75,,,,,,,,,,,,,,,,,,0,54,54,41,1,,,,,,,,,,,,,,,,,,,,,,,
,,,,,V3_018,20,Female,2024-10-17_14h17.38.306,jersey_experiment_5_v3,2023.2.2,Win32,84.03361345,,,,,,,,,,,,,,,,1046.2306,1047.5246,1047.5247,1051.4659,return,2.2913,,24.73958333,,,,,,FBP-PT-71.png,0.35,1.2,16,0.5,,,,,,,,,,,,,,,,,,0,55,55,15,1,,,,,,,,,,,,,,,,,,,,,,,
,,,,,V3_018,20,Female,2024-10-17_14h17.38.306,jersey_experiment_5_v3,2023.2.2,Win32,84.03361345,,,,,,,,,,,,,,,,1051.466,1052.7603,1052.7603,1053.975,return,0.1266,,100,,,,,,FBP-YG-19.png,0.45,1.2,15,0.5,,,,,,,,,,,,,,,,,,0,56,56,14,1,,,,,,,,,,,,,,,,,,,,,,,
,,,,,V3_018,20,Female,2024-10-17_14h17.38.306,jersey_experiment_5_v3,2023.2.2,Win32,84.03361345,,,,,,,,,,,,,,,,1053.9752,1055.2837,1055.2838,1056.019,return,0.119,,100,,,,,,FBP-PT-71.png,0.45,1.2,20,0.5,,,,,,,,,,,,,,,,,,0,57,57,19,1,,,,,,,,,,,,,,,,,,,,,,,
,,,,,V3_018,20,Female,2024-10-17_14h17.38.306,jersey_experiment_5_v3,2023.2.2,Win32,84.03361345,,,,,,,,,,,,,,,,1056.0192,1057.572,1057.5721,1058.8661,return,0.2997,,75.13020833,,,,,,FBP-OG-71.png,0.4,1.2,33,0.75,,,,,,,,,,,,,,,,,,0,58,58,32,1,,,,,,,,,,,,,,,,,,,,,,,
,,,,,V3_018,20,Female,2024-10-17_14h17.38.306,jersey_experiment_5_v3,2023.2.2,Win32,84.03361345,,,,,,,,,,,,,,,,1058.8663,1060.1604,1060.1605,1062.5015,return,0.2139,,50.26041667,,,,,,FBP-YG-19.png,0.37,1.2,12,0.5,,,,,,,,,,,,,,,,,,0,59,59,11,1,,,,,,,,,,,,,,,,,,,,,,,
,,,,,V3_018,20,Female,2024-10-17_14h17.38.306,jersey_experiment_5_v3,2023.2.2,Win32,84.03361345,,,,,,,,,,,,,,,,,,,,,,,,,,,,,,,,,,,,,,,,,,,,,,,,,,,,,,,,1062.5016,1066.0902,return,3.5679,,,,,,,,,,,,,,,,,,,
,,,,,V3_018,20,Female,2024-10-17_14h17.38.306,jersey_experiment_5_v3,2023.2.2,Win32,84.03361345,,,,,,,,,,,,,,,,,,,,,,,,,,,,,,,,,,,,,,,,,,,,,,,,,,,,,,,,,,,,,1066.0902,1069.9726,1,2.5822,return,1.2856,,,,,,,,,,,,
,,,,,V3_018,20,Female,2024-10-17_14h17.38.306,jersey_experiment_5_v3,2023.2.2,Win32,84.03361345,,,,,,,,,,,,,,,,,,,,,,,,,,,,,,,,,,,,,,,,,,,,,,,,,,,,,,,,,,,,,,,,,,,,1069.9727,1099.3419,The relationship between race and physical masculinity,right,24.1975,,,,,,
,,,,,V3_018,20,Female,2024-10-17_14h17.38.306,jersey_experiment_5_v3,2023.2.2,Win32,84.03361345,,,,,,,,,,,,,,,,,,,,,,,,,,,,,,,,,,,,,,,,,,,,,,,,,,,,,,,,,,,,,,,,,,,,,,,,,,1099.342,1101.8561,return,2.4984,