requirements.started,requirements.stopped,key_resp_3.keys,key_resp_3.rt,key_resp_3.duration,Subject ID,Age,Gender,date,expName,psychopyVersion,OS,frameRate,instructions1.started,instructions1.stopped,key_resp.keys,key_resp.rt,key_resp.duration,example.started,example.stopped,enter_2.keys,enter_2.rt,enter_2.duration,instructions2.started,instructions2.stopped,enter_3.keys,enter_3.rt,enter_3.duration,image.started,image.stopped,slider_2.started,slider_2.stopped,next.keys,next.rt,next.duration,slider.response,trial_block_1.thisRepN,trial_block_1.thisTrialN,trial_block_1.thisN,trial_block_1.thisIndex,trial_block_1.ran,Path,Width,Height,Index,Duration,trial_block_2.thisRepN,trial_block_2.thisTrialN,trial_block_2.thisN,trial_block_2.thisIndex,trial_block_2.ran,rest_break.started,rest_break.stopped,end_break.started,end_break.stopped,key_resp_5.keys,key_resp_5.rt,key_resp_5.duration,trial_block_3.thisRepN,trial_block_3.thisTrialN,trial_block_3.thisN,trial_block_3.thisIndex,trial_block_3.ran,trial_block_4.thisRepN,trial_block_4.thisTrialN,trial_block_4.thisN,trial_block_4.thisIndex,trial_block_4.ran,questions_intro.started,questions_intro.stopped,enter_12.keys,enter_12.rt,enter_12.duration,question2.started,question2.stopped,question_doingbest.response,question_doingbest.rt,enter_15.keys,enter_15.rt,enter_15.duration,pattern.started,pattern.stopped,pattern_2.text,enter_17.keys,enter_17.rt,enter_17.duration,thankyou.started,thankyou.stopped,enter_14.keys,enter_14.rt,enter_14.duration
0.0003,21.5673,return,21.5475,,V3_003,21,Female,2024-10-13_15h00.44.064,jersey_experiment_5_v3,2023.2.2,Win32,60.24096386,,,,,,,,,,,,,,,,,,,,,,,,,,,,,,,,,,,,,,,,,,,,,,,,,,,,,,,,,,,,,,,,,,,,,,,,,,,,,,
,,,,,V3_003,21,Female,2024-10-13_15h00.44.064,jersey_experiment_5_v3,2023.2.2,Win32,60.24096386,21.5674,30.484,return,8.8992,,,,,,,,,,,,,,,,,,,,,,,,,,,,,,,,,,,,,,,,,,,,,,,,,,,,,,,,,,,,,,,,,,,,,,,,,,
,,,,,V3_003,21,Female,2024-10-13_15h00.44.064,jersey_experiment_5_v3,2023.2.2,Win32,60.24096386,,,,,,30.4842,37.6002,return,7.044,,,,,,,,,,,,,,,,,,,,,,,,,,,,,,,,,,,,,,,,,,,,,,,,,,,,,,,,,,,,,,,,,,,,,
,,,,,V3_003,21,Female,2024-10-13_15h00.44.064,jersey_experiment_5_v3,2023.2.2,Win32,60.24096386,,,,,,,,,,,37.6004,69.4003,return,31.7922,,,,,,,,,,,,,,,,,,,,,,,,,,,,,,,,,,,,,,,,,,,,,,,,,,,,,,,,,,,,,,,,
,,,,,V3_003,21,Female,2024-10-13_15h00.44.064,jersey_experiment_5_v3,2023.2.2,Win32,60.24096386,,,,,,,,,,,,,,,,69.4115,70.9508,70.9508,79.8502,return,4.0094,,24.65277778,0,0,0,10,1,FBP-YG-91.png,0.35,1.2,11,0.75,,,,,,,,,,,,,,,,,,,,,,,,,,,,,,,,,,,,,,,,,,,,,
,,,,,V3_003,21,Female,2024-10-13_15h00.44.064,jersey_experiment_5_v3,2023.2.2,Win32,60.24096386,,,,,,,,,,,,,,,,79.8609,81.1498,81.1499,84.1832,return,1.279,,25,0,1,1,41,1,FBP-OG-19.png,0.37,1.2,42,0.5,,,,,,,,,,,,,,,,,,,,,,,,,,,,,,,,,,,,,,,,,,,,,
,,,,,V3_003,21,Female,2024-10-13_15h00.44.064,jersey_experiment_5_v3,2023.2.2,Win32,60.24096386,,,,,,,,,,,,,,,,84.1834,85.4832,85.4832,88.2837,return,1.172,,75.13888889,0,2,2,34,1,FBP-OG-17.png,0.45,1.2,35,0.5,,,,,,,,,,,,,,,,,,,,,,,,,,,,,,,,,,,,,,,,,,,,,
,,,,,V3_003,21,Female,2024-10-13_15h00.44.064,jersey_experiment_5_v3,2023.2.2,Win32,60.24096386,,,,,,,,,,,,,,,,88.2842,89.8334,89.8334,92.167,return,0.729,,25.27777778,0,3,3,0,1,FBP-YG-71.png,0.35,1.2,1,0.75,,,,,,,,,,,,,,,,,,,,,,,,,,,,,,,,,,,,,,,,,,,,,
,,,,,V3_003,21,Female,2024-10-13_15h00.44.064,jersey_experiment_5_v3,2023.2.2,Win32,60.24096386,,,,,,,,,,,,,,,,92.1674,93.7166,93.7167,99.0668,return,2.0577,,50.13888889,0,4,4,27,1,FBP-PT-19.png,0.4,1.2,28,0.75,,,,,,,,,,,,,,,,,,,,,,,,,,,,,,,,,,,,,,,,,,,,,
,,,,,V3_003,21,Female,2024-10-13_15h00.44.064,jersey_experiment_5_v3,2023.2.2,Win32,60.24096386,,,,,,,,,,,,,,,,99.067,100.367,100.3671,102.25,return,0.6047,,25.20833333,0,5,5,30,1,FBP-OG-17.png,0.35,1.2,31,0.5,,,,,,,,,,,,,,,,,,,,,,,,,,,,,,,,,,,,,,,,,,,,,
,,,,,V3_003,21,Female,2024-10-13_15h00.44.064,jersey_experiment_5_v3,2023.2.2,Win32,60.24096386,,,,,,,,,,,,,,,,102.2502,103.8004,103.8004,107.7667,return,2.8436,,75,0,6,6,17,1,FBP-PT-17.png,0.4,1.2,18,0.75,,,,,,,,,,,,,,,,,,,,,,,,,,,,,,,,,,,,,,,,,,,,,
,,,,,V3_003,21,Female,2024-10-13_15h00.44.064,jersey_experiment_5_v3,2023.2.2,Win32,60.24096386,,,,,,,,,,,,,,,,107.7671,109.3171,109.3171,118.1341,return,5.118,,88.125,0,7,7,13,1,FBP-YG-91.png,0.43,1.2,14,0.75,,,,,,,,,,,,,,,,,,,,,,,,,,,,,,,,,,,,,,,,,,,,,
,,,,,V3_003,21,Female,2024-10-13_15h00.44.064,jersey_experiment_5_v3,2023.2.2,Win32,60.24096386,,,,,,,,,,,,,,,,118.1438,119.6835,119.6836,122.1171,return,0.8164,,74.65277778,0,8,8,52,1,FBP-RB-18.png,0.4,1.2,53,0.75,,,,,,,,,,,,,,,,,,,,,,,,,,,,,,,,,,,,,,,,,,,,,
,,,,,V3_003,21,Female,2024-10-13_15h00.44.064,jersey_experiment_5_v3,2023.2.2,Win32,60.24096386,,,,,,,,,,,,,,,,122.1176,123.6673,123.6673,128.2673,return,0.8071,,24.79166667,0,9,9,22,1,FBP-PT-18.png,0.4,1.2,23,0.75,,,,,,,,,,,,,,,,,,,,,,,,,,,,,,,,,,,,,,,,,,,,,
,,,,,V3_003,21,Female,2024-10-13_15h00.44.064,jersey_experiment_5_v3,2023.2.2,Win32,60.24096386,,,,,,,,,,,,,,,,128.2676,129.8171,129.8171,131.5171,return,0.5222,,24.93055556,0,10,10,1,1,FBP-YG-71.png,0.37,1.2,2,0.75,,,,,,,,,,,,,,,,,,,,,,,,,,,,,,,,,,,,,,,,,,,,,
,,,,,V3_003,21,Female,2024-10-13_15h00.44.064,jersey_experiment_5_v3,2023.2.2,Win32,60.24096386,,,,,,,,,,,,,,,,131.5174,133.0672,133.0672,135.0006,return,0.6768,,74.86111111,0,11,11,7,1,FBP-YG-81.png,0.4,1.2,8,0.75,,,,,,,,,,,,,,,,,,,,,,,,,,,,,,,,,,,,,,,,,,,,,
,,,,,V3_003,21,Female,2024-10-13_15h00.44.064,jersey_experiment_5_v3,2023.2.2,Win32,60.24096386,,,,,,,,,,,,,,,,135.001,136.3004,136.3005,138.0006,return,0.5025,,25.20833333,0,12,12,31,1,FBP-OG-17.png,0.37,1.2,32,0.5,,,,,,,,,,,,,,,,,,,,,,,,,,,,,,,,,,,,,,,,,,,,,
,,,,,V3_003,21,Female,2024-10-13_15h00.44.064,jersey_experiment_5_v3,2023.2.2,Win32,60.24096386,,,,,,,,,,,,,,,,138.0008,139.5504,139.5505,141.0505,return,0.525,,24.93055556,0,13,13,11,1,FBP-YG-91.png,0.37,1.2,12,0.75,,,,,,,,,,,,,,,,,,,,,,,,,,,,,,,,,,,,,,,,,,,,,
,,,,,V3_003,21,Female,2024-10-13_15h00.44.064,jersey_experiment_5_v3,2023.2.2,Win32,60.24096386,,,,,,,,,,,,,,,,141.0509,142.6005,142.6005,144.4672,return,0.6344,,10.76388889,0,14,14,55,1,FBP-RB-19.png,0.35,1.2,56,0.75,,,,,,,,,,,,,,,,,,,,,,,,,,,,,,,,,,,,,,,,,,,,,
,,,,,V3_003,21,Female,2024-10-13_15h00.44.064,jersey_experiment_5_v3,2023.2.2,Win32,60.24096386,,,,,,,,,,,,,,,,144.4676,146.0174,146.0174,148.7173,return,0.9058,,77.22222222,0,15,15,28,1,FBP-PT-19.png,0.43,1.2,29,0.75,,,,,,,,,,,,,,,,,,,,,,,,,,,,,,,,,,,,,,,,,,,,,
,,,,,V3_003,21,Female,2024-10-13_15h00.44.064,jersey_experiment_5_v3,2023.2.2,Win32,60.24096386,,,,,,,,,,,,,,,,148.7176,150.2676,150.2676,152.384,return,0.7855,,93.75,0,16,16,53,1,FBP-RB-18.png,0.43,1.2,54,0.75,,,,,,,,,,,,,,,,,,,,,,,,,,,,,,,,,,,,,,,,,,,,,
,,,,,V3_003,21,Female,2024-10-13_15h00.44.064,jersey_experiment_5_v3,2023.2.2,Win32,60.24096386,,,,,,,,,,,,,,,,152.3845,153.6839,153.684,156.2841,return,0.5734,,25.41666667,0,17,17,36,1,FBP-OG-18.png,0.37,1.2,37,0.5,,,,,,,,,,,,,,,,,,,,,,,,,,,,,,,,,,,,,,,,,,,,,
,,,,,V3_003,21,Female,2024-10-13_15h00.44.064,jersey_experiment_5_v3,2023.2.2,Win32,60.24096386,,,,,,,,,,,,,,,,156.2846,157.8336,157.8337,161.334,return,0.6667,,99.72222222,0,18,18,9,1,FBP-YG-81.png,0.45,1.2,10,0.75,,,,,,,,,,,,,,,,,,,,,,,,,,,,,,,,,,,,,,,,,,,,,
,,,,,V3_003,21,Female,2024-10-13_15h00.44.064,jersey_experiment_5_v3,2023.2.2,Win32,60.24096386,,,,,,,,,,,,,,,,161.3344,162.8838,162.8839,164.7839,return,0.519,,74.79166667,0,19,19,23,1,FBP-PT-18.png,0.43,1.2,24,0.75,,,,,,,,,,,,,,,,,,,,,,,,,,,,,,,,,,,,,,,,,,,,,
,,,,,V3_003,21,Female,2024-10-13_15h00.44.064,jersey_experiment_5_v3,2023.2.2,Win32,60.24096386,,,,,,,,,,,,,,,,164.7843,166.084,166.0841,169.7342,return,0.6323,,87.98611111,0,20,20,44,1,FBP-OG-19.png,0.45,1.2,45,0.5,,,,,,,,,,,,,,,,,,,,,,,,,,,,,,,,,,,,,,,,,,,,,
,,,,,V3_003,21,Female,2024-10-13_15h00.44.064,jersey_experiment_5_v3,2023.2.2,Win32,60.24096386,,,,,,,,,,,,,,,,169.7347,171.034,171.0341,181.5507,return,7.2203,,38.26388889,0,21,21,32,1,FBP-OG-17.png,0.4,1.2,33,0.5,,,,,,,,,,,,,,,,,,,,,,,,,,,,,,,,,,,,,,,,,,,,,
,,,,,V3_003,21,Female,2024-10-13_15h00.44.064,jersey_experiment_5_v3,2023.2.2,Win32,60.24096386,,,,,,,,,,,,,,,,181.5634,182.8678,182.8679,199.734,return,0.6621,,58.19444444,0,22,22,39,1,FBP-OG-18.png,0.45,1.2,40,0.5,,,,,,,,,,,,,,,,,,,,,,,,,,,,,,,,,,,,,,,,,,,,,
,,,,,V3_003,21,Female,2024-10-13_15h00.44.064,jersey_experiment_5_v3,2023.2.2,Win32,60.24096386,,,,,,,,,,,,,,,,199.7343,201.2842,201.2843,203.2176,return,0.5658,,24.79166667,0,23,23,21,1,FBP-PT-18.png,0.37,1.2,22,0.75,,,,,,,,,,,,,,,,,,,,,,,,,,,,,,,,,,,,,,,,,,,,,
,,,,,V3_003,21,Female,2024-10-13_15h00.44.064,jersey_experiment_5_v3,2023.2.2,Win32,60.24096386,,,,,,,,,,,,,,,,203.2181,204.7676,204.7677,206.1841,return,0.3455,,25.20833333,0,24,24,51,1,FBP-RB-18.png,0.37,1.2,52,0.75,,,,,,,,,,,,,,,,,,,,,,,,,,,,,,,,,,,,,,,,,,,,,
,,,,,V3_003,21,Female,2024-10-13_15h00.44.064,jersey_experiment_5_v3,2023.2.2,Win32,60.24096386,,,,,,,,,,,,,,,,206.1844,207.7341,207.7341,208.9842,return,0.3765,,74.93055556,0,25,25,48,1,FBP-RB-17.png,0.43,1.2,49,0.75,,,,,,,,,,,,,,,,,,,,,,,,,,,,,,,,,,,,,,,,,,,,,
,,,,,V3_003,21,Female,2024-10-13_15h00.44.064,jersey_experiment_5_v3,2023.2.2,Win32,60.24096386,,,,,,,,,,,,,,,,208.9847,210.5344,210.5346,211.8177,return,0.2764,,24.79166667,0,26,26,26,1,FBP-PT-19.png,0.37,1.2,27,0.75,,,,,,,,,,,,,,,,,,,,,,,,,,,,,,,,,,,,,,,,,,,,,
,,,,,V3_003,21,Female,2024-10-13_15h00.44.064,jersey_experiment_5_v3,2023.2.2,Win32,60.24096386,,,,,,,,,,,,,,,,211.8182,213.3678,213.3678,214.8341,return,0.451,,74.65277778,0,27,27,29,1,FBP-PT-19.png,0.45,1.2,30,0.75,,,,,,,,,,,,,,,,,,,,,,,,,,,,,,,,,,,,,,,,,,,,,
,,,,,V3_003,21,Female,2024-10-13_15h00.44.064,jersey_experiment_5_v3,2023.2.2,Win32,60.24096386,,,,,,,,,,,,,,,,214.8346,216.134,216.1342,217.901,return,0.4217,,7.986111111,0,28,28,40,1,FBP-OG-19.png,0.35,1.2,41,0.5,,,,,,,,,,,,,,,,,,,,,,,,,,,,,,,,,,,,,,,,,,,,,
,,,,,V3_003,21,Female,2024-10-13_15h00.44.064,jersey_experiment_5_v3,2023.2.2,Win32,60.24096386,,,,,,,,,,,,,,,,217.9014,219.4509,219.451,221.0006,return,0.1581,,25.13888889,0,29,29,20,1,FBP-PT-18.png,0.35,1.2,21,0.75,,,,,,,,,,,,,,,,,,,,,,,,,,,,,,,,,,,,,,,,,,,,,
,,,,,V3_003,21,Female,2024-10-13_15h00.44.064,jersey_experiment_5_v3,2023.2.2,Win32,60.24096386,,,,,,,,,,,,,,,,221.001,222.5511,222.5511,228.3009,return,0.5556,,89.51388889,0,30,30,8,1,FBP-YG-81.png,0.43,1.2,9,0.75,,,,,,,,,,,,,,,,,,,,,,,,,,,,,,,,,,,,,,,,,,,,,
,,,,,V3_003,21,Female,2024-10-13_15h00.44.064,jersey_experiment_5_v3,2023.2.2,Win32,60.24096386,,,,,,,,,,,,,,,,228.3013,229.8512,229.8513,232.4344,return,0.3012,,82.01388889,0,31,31,54,1,FBP-RB-18.png,0.45,1.2,55,0.75,,,,,,,,,,,,,,,,,,,,,,,,,,,,,,,,,,,,,,,,,,,,,
,,,,,V3_003,21,Female,2024-10-13_15h00.44.064,jersey_experiment_5_v3,2023.2.2,Win32,60.24096386,,,,,,,,,,,,,,,,232.4346,233.7349,233.7351,235.0174,return,0.2082,,76.73611111,0,32,32,43,1,FBP-OG-19.png,0.43,1.2,44,0.5,,,,,,,,,,,,,,,,,,,,,,,,,,,,,,,,,,,,,,,,,,,,,
,,,,,V3_003,21,Female,2024-10-13_15h00.44.064,jersey_experiment_5_v3,2023.2.2,Win32,60.24096386,,,,,,,,,,,,,,,,235.0178,236.5679,236.568,238.201,return,0.4598,,81.45833333,0,33,33,18,1,FBP-PT-17.png,0.43,1.2,19,0.75,,,,,,,,,,,,,,,,,,,,,,,,,,,,,,,,,,,,,,,,,,,,,
,,,,,V3_003,21,Female,2024-10-13_15h00.44.064,jersey_experiment_5_v3,2023.2.2,Win32,60.24096386,,,,,,,,,,,,,,,,238.2014,239.7511,239.7512,240.6344,return,0.1091,,94.44444444,0,34,34,24,1,FBP-PT-18.png,0.45,1.2,25,0.75,,,,,,,,,,,,,,,,,,,,,,,,,,,,,,,,,,,,,,,,,,,,,
,,,,,V3_003,21,Female,2024-10-13_15h00.44.064,jersey_experiment_5_v3,2023.2.2,Win32,60.24096386,,,,,,,,,,,,,,,,240.6346,241.9342,241.9342,242.9845,return,0.0267,,82.77777778,0,35,35,38,1,FBP-OG-18.png,0.43,1.2,39,0.5,,,,,,,,,,,,,,,,,,,,,,,,,,,,,,,,,,,,,,,,,,,,,
,,,,,V3_003,21,Female,2024-10-13_15h00.44.064,jersey_experiment_5_v3,2023.2.2,Win32,60.24096386,,,,,,,,,,,,,,,,242.9849,244.5349,244.535,245.7676,return,0.3632,,23.75,0,36,36,56,1,FBP-RB-19.png,0.37,1.2,57,0.75,,,,,,,,,,,,,,,,,,,,,,,,,,,,,,,,,,,,,,,,,,,,,
,,,,,V3_003,21,Female,2024-10-13_15h00.44.064,jersey_experiment_5_v3,2023.2.2,Win32,60.24096386,,,,,,,,,,,,,,,,245.7679,247.318,247.318,249.1845,return,0.4349,,70.97222222,0,37,37,2,1,FBP-YG-71.png,0.4,1.2,3,0.75,,,,,,,,,,,,,,,,,,,,,,,,,,,,,,,,,,,,,,,,,,,,,
,,,,,V3_003,21,Female,2024-10-13_15h00.44.064,jersey_experiment_5_v3,2023.2.2,Win32,60.24096386,,,,,,,,,,,,,,,,249.185,250.7344,250.7345,252.7177,return,0.4715,,72.56944444,0,38,38,47,1,FBP-RB-17.png,0.4,1.2,48,0.75,,,,,,,,,,,,,,,,,,,,,,,,,,,,,,,,,,,,,,,,,,,,,
,,,,,V3_003,21,Female,2024-10-13_15h00.44.064,jersey_experiment_5_v3,2023.2.2,Win32,60.24096386,,,,,,,,,,,,,,,,252.7181,254.2675,254.2676,256.2176,return,0.4919,,65.76388889,0,39,39,57,1,FBP-RB-19.png,0.4,1.2,58,0.75,,,,,,,,,,,,,,,,,,,,,,,,,,,,,,,,,,,,,,,,,,,,,
,,,,,V3_003,21,Female,2024-10-13_15h00.44.064,jersey_experiment_5_v3,2023.2.2,Win32,60.24096386,,,,,,,,,,,,,,,,256.2181,257.7678,257.7678,259.4344,return,0.542,,74.65277778,0,40,40,3,1,FBP-YG-71.png,0.43,1.2,4,0.75,,,,,,,,,,,,,,,,,,,,,,,,,,,,,,,,,,,,,,,,,,,,,
,,,,,V3_003,21,Female,2024-10-13_15h00.44.064,jersey_experiment_5_v3,2023.2.2,Win32,60.24096386,,,,,,,,,,,,,,,,259.4348,260.9849,260.985,263.8846,return,1.4729,,18.26388889,0,41,41,5,1,FBP-YG-81.png,0.35,1.2,6,0.75,,,,,,,,,,,,,,,,,,,,,,,,,,,,,,,,,,,,,,,,,,,,,
,,,,,V3_003,21,Female,2024-10-13_15h00.44.064,jersey_experiment_5_v3,2023.2.2,Win32,60.24096386,,,,,,,,,,,,,,,,263.885,265.1843,265.1844,270.5178,return,3.4131,,65.69444444,0,42,42,42,1,FBP-OG-19.png,0.4,1.2,43,0.5,,,,,,,,,,,,,,,,,,,,,,,,,,,,,,,,,,,,,,,,,,,,,
,,,,,V3_003,21,Female,2024-10-13_15h00.44.064,jersey_experiment_5_v3,2023.2.2,Win32,60.24096386,,,,,,,,,,,,,,,,270.5182,272.068,272.068,273.4847,return,0.4231,,75.06944444,0,43,43,19,1,FBP-PT-17.png,0.45,1.2,20,0.75,,,,,,,,,,,,,,,,,,,,,,,,,,,,,,,,,,,,,,,,,,,,,
,,,,,V3_003,21,Female,2024-10-13_15h00.44.064,jersey_experiment_5_v3,2023.2.2,Win32,60.24096386,,,,,,,,,,,,,,,,273.4852,275.0349,275.0351,278.4014,return,2.1353,,40.90277778,0,44,44,6,1,FBP-YG-81.png,0.37,1.2,7,0.75,,,,,,,,,,,,,,,,,,,,,,,,,,,,,,,,,,,,,,,,,,,,,
,,,,,V3_003,21,Female,2024-10-13_15h00.44.064,jersey_experiment_5_v3,2023.2.2,Win32,60.24096386,,,,,,,,,,,,,,,,278.4016,279.9517,279.9518,281.6345,return,0.5503,,24.23611111,0,45,45,15,1,FBP-PT-17.png,0.35,1.2,16,0.75,,,,,,,,,,,,,,,,,,,,,,,,,,,,,,,,,,,,,,,,,,,,,
,,,,,V3_003,21,Female,2024-10-13_15h00.44.064,jersey_experiment_5_v3,2023.2.2,Win32,60.24096386,,,,,,,,,,,,,,,,281.6348,283.185,283.185,284.9018,return,0.4643,,74.65277778,0,46,46,12,1,FBP-YG-91.png,0.4,1.2,13,0.75,,,,,,,,,,,,,,,,,,,,,,,,,,,,,,,,,,,,,,,,,,,,,
,,,,,V3_003,21,Female,2024-10-13_15h00.44.064,jersey_experiment_5_v3,2023.2.2,Win32,60.24096386,,,,,,,,,,,,,,,,284.902,286.4515,286.4517,288.1181,return,0.4627,,25.34722222,0,47,47,50,1,FBP-RB-18.png,0.35,1.2,51,0.75,,,,,,,,,,,,,,,,,,,,,,,,,,,,,,,,,,,,,,,,,,,,,
,,,,,V3_003,21,Female,2024-10-13_15h00.44.064,jersey_experiment_5_v3,2023.2.2,Win32,60.24096386,,,,,,,,,,,,,,,,288.1183,289.4177,289.4178,291.1181,return,0.3887,,74.79166667,0,48,48,33,1,FBP-OG-17.png,0.43,1.2,34,0.5,,,,,,,,,,,,,,,,,,,,,,,,,,,,,,,,,,,,,,,,,,,,,
,,,,,V3_003,21,Female,2024-10-13_15h00.44.064,jersey_experiment_5_v3,2023.2.2,Win32,60.24096386,,,,,,,,,,,,,,,,291.1185,292.4179,292.4179,293.9015,return,0.3051,,25.13888889,0,49,49,35,1,FBP-OG-18.png,0.35,1.2,36,0.5,,,,,,,,,,,,,,,,,,,,,,,,,,,,,,,,,,,,,,,,,,,,,
,,,,,V3_003,21,Female,2024-10-13_15h00.44.064,jersey_experiment_5_v3,2023.2.2,Win32,60.24096386,,,,,,,,,,,,,,,,293.9018,295.4516,295.4518,296.7524,return,0.5203,,83.75,0,50,50,58,1,FBP-RB-19.png,0.43,1.2,59,0.75,,,,,,,,,,,,,,,,,,,,,,,,,,,,,,,,,,,,,,,,,,,,,
,,,,,V3_003,21,Female,2024-10-13_15h00.44.064,jersey_experiment_5_v3,2023.2.2,Win32,60.24096386,,,,,,,,,,,,,,,,296.7529,298.3015,298.3015,299.518,return,0.4213,,88.54166667,0,51,51,49,1,FBP-RB-17.png,0.45,1.2,50,0.75,,,,,,,,,,,,,,,,,,,,,,,,,,,,,,,,,,,,,,,,,,,,,
,,,,,V3_003,21,Female,2024-10-13_15h00.44.064,jersey_experiment_5_v3,2023.2.2,Win32,60.24096386,,,,,,,,,,,,,,,,299.5185,301.0683,301.0683,302.4179,return,0.5344,,88.68055556,0,52,52,4,1,FBP-YG-71.png,0.45,1.2,5,0.75,,,,,,,,,,,,,,,,,,,,,,,,,,,,,,,,,,,,,,,,,,,,,
,,,,,V3_003,21,Female,2024-10-13_15h00.44.064,jersey_experiment_5_v3,2023.2.2,Win32,60.24096386,,,,,,,,,,,,,,,,302.4183,303.9683,303.9683,305.6849,return,0.4673,,25.13888889,0,53,53,25,1,FBP-PT-19.png,0.35,1.2,26,0.75,,,,,,,,,,,,,,,,,,,,,,,,,,,,,,,,,,,,,,,,,,,,,
,,,,,V3_003,21,Female,2024-10-13_15h00.44.064,jersey_experiment_5_v3,2023.2.2,Win32,60.24096386,,,,,,,,,,,,,,,,305.6853,307.235,307.235,308.835,return,0.5166,,25.55555556,0,54,54,45,1,FBP-RB-17.png,0.35,1.2,46,0.75,,,,,,,,,,,,,,,,,,,,,,,,,,,,,,,,,,,,,,,,,,,,,
,,,,,V3_003,21,Female,2024-10-13_15h00.44.064,jersey_experiment_5_v3,2023.2.2,Win32,60.24096386,,,,,,,,,,,,,,,,308.8355,310.3848,310.3848,311.8347,return,0.3745,,74.93055556,0,55,55,14,1,FBP-YG-91.png,0.45,1.2,15,0.75,,,,,,,,,,,,,,,,,,,,,,,,,,,,,,,,,,,,,,,,,,,,,
,,,,,V3_003,21,Female,2024-10-13_15h00.44.064,jersey_experiment_5_v3,2023.2.2,Win32,60.24096386,,,,,,,,,,,,,,,,311.8351,313.3847,313.3847,314.6519,return,0.3735,,74.86111111,0,56,56,59,1,FBP-RB-19.png,0.45,1.2,60,0.75,,,,,,,,,,,,,,,,,,,,,,,,,,,,,,,,,,,,,,,,,,,,,
,,,,,V3_003,21,Female,2024-10-13_15h00.44.064,jersey_experiment_5_v3,2023.2.2,Win32,60.24096386,,,,,,,,,,,,,,,,314.6524,315.9516,315.9517,317.569,return,0.4197,,73.95833333,0,57,57,37,1,FBP-OG-18.png,0.4,1.2,38,0.5,,,,,,,,,,,,,,,,,,,,,,,,,,,,,,,,,,,,,,,,,,,,,
,,,,,V3_003,21,Female,2024-10-13_15h00.44.064,jersey_experiment_5_v3,2023.2.2,Win32,60.24096386,,,,,,,,,,,,,,,,317.5697,319.1184,319.1185,320.1513,return,0.3274,,24.375,0,58,58,16,1,FBP-PT-17.png,0.37,1.2,17,0.75,,,,,,,,,,,,,,,,,,,,,,,,,,,,,,,,,,,,,,,,,,,,,
,,,,,V3_003,21,Female,2024-10-13_15h00.44.064,jersey_experiment_5_v3,2023.2.2,Win32,60.24096386,,,,,,,,,,,,,,,,320.1516,321.7015,321.7015,323.2848,return,0.4352,,24.65277778,0,59,59,46,1,FBP-RB-17.png,0.37,1.2,47,0.75,,,,,,,,,,,,,,,,,,,,,,,,,,,,,,,,,,,,,,,,,,,,,
,,,,,V3_003,21,Female,2024-10-13_15h00.44.064,jersey_experiment_5_v3,2023.2.2,Win32,60.24096386,,,,,,,,,,,,,,,,323.29,324.8351,324.8351,330.8349,return,0.7498,,57.98611111,,,,,,FBP-RB-81.png,0.37,1.2,52,0.75,0,0,0,51,1,,,,,,,,,,,,,,,,,,,,,,,,,,,,,,,,,,,,,,,,
,,,,,V3_003,21,Female,2024-10-13_15h00.44.064,jersey_experiment_5_v3,2023.2.2,Win32,60.24096386,,,,,,,,,,,,,,,,330.8353,332.3849,332.385,333.8017,return,0.2922,,74.86111111,,,,,,FBP-YG-17.png,0.45,1.2,5,0.75,0,1,1,4,1,,,,,,,,,,,,,,,,,,,,,,,,,,,,,,,,,,,,,,,,
,,,,,V3_003,21,Female,2024-10-13_15h00.44.064,jersey_experiment_5_v3,2023.2.2,Win32,60.24096386,,,,,,,,,,,,,,,,333.8021,335.1017,335.1017,337.2854,return,0.6845,,75.13888889,,,,,,FBP-OG-71.png,0.43,1.2,34,0.5,0,2,2,33,1,,,,,,,,,,,,,,,,,,,,,,,,,,,,,,,,,,,,,,,,
,,,,,V3_003,21,Female,2024-10-13_15h00.44.064,jersey_experiment_5_v3,2023.2.2,Win32,60.24096386,,,,,,,,,,,,,,,,337.286,338.5853,338.5853,340.1681,return,0.3433,,75.06944444,,,,,,FBP-OG-81.png,0.43,1.2,39,0.5,0,3,3,38,1,,,,,,,,,,,,,,,,,,,,,,,,,,,,,,,,,,,,,,,,
,,,,,V3_003,21,Female,2024-10-13_15h00.44.064,jersey_experiment_5_v3,2023.2.2,Win32,60.24096386,,,,,,,,,,,,,,,,340.1686,341.7185,341.7186,343.0684,return,0.5242,,75.13888889,,,,,,FBP-RB-71.png,0.43,1.2,49,0.75,0,4,4,48,1,,,,,,,,,,,,,,,,,,,,,,,,,,,,,,,,,,,,,,,,
,,,,,V3_003,21,Female,2024-10-13_15h00.44.064,jersey_experiment_5_v3,2023.2.2,Win32,60.24096386,,,,,,,,,,,,,,,,343.0689,344.6185,344.6185,345.7186,return,0.296,,75.20833333,,,,,,FBP-PT-71.png,0.4,1.2,18,0.75,0,5,5,17,1,,,,,,,,,,,,,,,,,,,,,,,,,,,,,,,,,,,,,,,,
,,,,,V3_003,21,Female,2024-10-13_15h00.44.064,jersey_experiment_5_v3,2023.2.2,Win32,60.24096386,,,,,,,,,,,,,,,,345.7189,347.2682,347.2682,348.7353,return,0.4033,,74.86111111,,,,,,FBP-PT-71.png,0.45,1.2,20,0.75,0,6,6,19,1,,,,,,,,,,,,,,,,,,,,,,,,,,,,,,,,,,,,,,,,
,,,,,V3_003,21,Female,2024-10-13_15h00.44.064,jersey_experiment_5_v3,2023.2.2,Win32,60.24096386,,,,,,,,,,,,,,,,348.7359,350.0353,350.0354,353.4858,return,0.4407,,45.55555556,,,,,,FBP-OG-71.png,0.37,1.2,32,0.5,0,7,7,31,1,,,,,,,,,,,,,,,,,,,,,,,,,,,,,,,,,,,,,,,,
,,,,,V3_003,21,Female,2024-10-13_15h00.44.064,jersey_experiment_5_v3,2023.2.2,Win32,60.24096386,,,,,,,,,,,,,,,,353.4862,355.0354,355.0355,355.9354,return,0.2207,,74.86111111,,,,,,FBP-PT-81.png,0.45,1.2,25,0.75,0,8,8,24,1,,,,,,,,,,,,,,,,,,,,,,,,,,,,,,,,,,,,,,,,
,,,,,V3_003,21,Female,2024-10-13_15h00.44.064,jersey_experiment_5_v3,2023.2.2,Win32,60.24096386,,,,,,,,,,,,,,,,355.9358,357.2352,357.2354,358.8351,return,0.4181,,25.83333333,,,,,,FBP-OG-71.png,0.35,1.2,31,0.5,0,9,9,30,1,,,,,,,,,,,,,,,,,,,,,,,,,,,,,,,,,,,,,,,,
,,,,,V3_003,21,Female,2024-10-13_15h00.44.064,jersey_experiment_5_v3,2023.2.2,Win32,60.24096386,,,,,,,,,,,,,,,,358.8354,360.3855,360.3855,361.5021,return,0.2395,,74.44444444,,,,,,FBP-PT-91.png,0.43,1.2,29,0.75,0,10,10,28,1,,,,,,,,,,,,,,,,,,,,,,,,,,,,,,,,,,,,,,,,
,,,,,V3_003,21,Female,2024-10-13_15h00.44.064,jersey_experiment_5_v3,2023.2.2,Win32,60.24096386,,,,,,,,,,,,,,,,361.5024,363.052,363.0521,364.4692,return,0.335,,80.06944444,,,,,,FBP-RB-81.png,0.45,1.2,55,0.75,0,11,11,54,1,,,,,,,,,,,,,,,,,,,,,,,,,,,,,,,,,,,,,,,,
,,,,,V3_003,21,Female,2024-10-13_15h00.44.064,jersey_experiment_5_v3,2023.2.2,Win32,60.24096386,,,,,,,,,,,,,,,,364.4698,366.0186,366.0187,368.3519,return,1.585,,24.65277778,,,,,,FBP-YG-17.png,0.35,1.2,1,0.75,0,12,12,0,1,,,,,,,,,,,,,,,,,,,,,,,,,,,,,,,,,,,,,,,,
,,,,,V3_003,21,Female,2024-10-13_15h00.44.064,jersey_experiment_5_v3,2023.2.2,Win32,60.24096386,,,,,,,,,,,,,,,,368.3524,369.9017,369.9019,371.1186,return,0.3872,,74.51388889,,,,,,FBP-RB-71.png,0.4,1.2,48,0.75,0,13,13,47,1,,,,,,,,,,,,,,,,,,,,,,,,,,,,,,,,,,,,,,,,
,,,,,V3_003,21,Female,2024-10-13_15h00.44.064,jersey_experiment_5_v3,2023.2.2,Win32,60.24096386,,,,,,,,,,,,,,,,371.119,372.6685,372.6686,373.7683,return,0.3097,,78.54166667,,,,,,FBP-RB-91.png,0.43,1.2,59,0.75,0,14,14,58,1,,,,,,,,,,,,,,,,,,,,,,,,,,,,,,,,,,,,,,,,
,,,,,V3_003,21,Female,2024-10-13_15h00.44.064,jersey_experiment_5_v3,2023.2.2,Win32,60.24096386,,,,,,,,,,,,,,,,373.7688,375.3188,375.3189,377.2518,return,0.683,,80.90277778,,,,,,FBP-PT-81.png,0.4,1.2,23,0.75,0,15,15,22,1,,,,,,,,,,,,,,,,,,,,,,,,,,,,,,,,,,,,,,,,
,,,,,V3_003,21,Female,2024-10-13_15h00.44.064,jersey_experiment_5_v3,2023.2.2,Win32,60.24096386,,,,,,,,,,,,,,,,377.2522,378.8022,378.8023,380.0019,return,0.3351,,25.20833333,,,,,,FBP-PT-81.png,0.35,1.2,21,0.75,0,16,16,20,1,,,,,,,,,,,,,,,,,,,,,,,,,,,,,,,,,,,,,,,,
,,,,,V3_003,21,Female,2024-10-13_15h00.44.064,jersey_experiment_5_v3,2023.2.2,Win32,60.24096386,,,,,,,,,,,,,,,,380.0023,381.5521,381.5521,383.3352,return,0.4445,,24.58333333,,,,,,FBP-RB-71.png,0.35,1.2,46,0.75,0,17,17,45,1,,,,,,,,,,,,,,,,,,,,,,,,,,,,,,,,,,,,,,,,
,,,,,V3_003,21,Female,2024-10-13_15h00.44.064,jersey_experiment_5_v3,2023.2.2,Win32,60.24096386,,,,,,,,,,,,,,,,383.3357,384.8854,384.8855,386.8356,return,0.3171,,72.29166667,,,,,,FBP-YG-18.png,0.45,1.2,10,0.75,0,18,18,9,1,,,,,,,,,,,,,,,,,,,,,,,,,,,,,,,,,,,,,,,,
,,,,,V3_003,21,Female,2024-10-13_15h00.44.064,jersey_experiment_5_v3,2023.2.2,Win32,60.24096386,,,,,,,,,,,,,,,,386.8362,388.3853,388.3855,390.2186,return,0.4917,,75.13888889,,,,,,FBP-PT-81.png,0.43,1.2,24,0.75,0,19,19,23,1,,,,,,,,,,,,,,,,,,,,,,,,,,,,,,,,,,,,,,,,
,,,,,V3_003,21,Female,2024-10-13_15h00.44.064,jersey_experiment_5_v3,2023.2.2,Win32,60.24096386,,,,,,,,,,,,,,,,390.2189,391.7688,391.7689,395.002,return,1.4089,,60.55555556,,,,,,FBP-YG-19.png,0.4,1.2,13,0.75,0,20,20,12,1,,,,,,,,,,,,,,,,,,,,,,,,,,,,,,,,,,,,,,,,
,,,,,V3_003,21,Female,2024-10-13_15h00.44.064,jersey_experiment_5_v3,2023.2.2,Win32,60.24096386,,,,,,,,,,,,,,,,395.0024,396.3022,396.3022,397.8688,return,0.2717,,75.13888889,,,,,,FBP-OG-91.png,0.43,1.2,44,0.5,0,21,21,43,1,,,,,,,,,,,,,,,,,,,,,,,,,,,,,,,,,,,,,,,,
,,,,,V3_003,21,Female,2024-10-13_15h00.44.064,jersey_experiment_5_v3,2023.2.2,Win32,60.24096386,,,,,,,,,,,,,,,,397.8692,399.1689,399.1689,400.4524,return,0.2512,,74.65277778,,,,,,FBP-OG-71.png,0.4,1.2,33,0.5,0,22,22,32,1,,,,,,,,,,,,,,,,,,,,,,,,,,,,,,,,,,,,,,,,
,,,,,V3_003,21,Female,2024-10-13_15h00.44.064,jersey_experiment_5_v3,2023.2.2,Win32,60.24096386,,,,,,,,,,,,,,,,400.4527,402.0021,402.0022,404.1853,return,0.4418,,25.34722222,,,,,,FBP-PT-71.png,0.35,1.2,16,0.75,0,23,23,15,1,,,,,,,,,,,,,,,,,,,,,,,,,,,,,,,,,,,,,,,,
,,,,,V3_003,21,Female,2024-10-13_15h00.44.064,jersey_experiment_5_v3,2023.2.2,Win32,60.24096386,,,,,,,,,,,,,,,,404.1858,405.4856,405.4857,409.936,return,1.6528,,58.88888889,,,,,,FBP-OG-81.png,0.37,1.2,37,0.5,0,24,24,36,1,,,,,,,,,,,,,,,,,,,,,,,,,,,,,,,,,,,,,,,,
,,,,,V3_003,21,Female,2024-10-13_15h00.44.064,jersey_experiment_5_v3,2023.2.2,Win32,60.24096386,,,,,,,,,,,,,,,,409.9363,411.486,411.4861,412.5852,return,0.3414,,24.65277778,,,,,,FBP-YG-18.png,0.35,1.2,6,0.75,0,25,25,5,1,,,,,,,,,,,,,,,,,,,,,,,,,,,,,,,,,,,,,,,,
,,,,,V3_003,21,Female,2024-10-13_15h00.44.064,jersey_experiment_5_v3,2023.2.2,Win32,60.24096386,,,,,,,,,,,,,,,,412.5855,414.1356,414.1356,415.1358,return,0.2186,,74.93055556,,,,,,FBP-PT-91.png,0.4,1.2,28,0.75,0,26,26,27,1,,,,,,,,,,,,,,,,,,,,,,,,,,,,,,,,,,,,,,,,
,,,,,V3_003,21,Female,2024-10-13_15h00.44.064,jersey_experiment_5_v3,2023.2.2,Win32,60.24096386,,,,,,,,,,,,,,,,415.1362,416.6856,416.6857,418.8856,return,0.5628,,53.47222222,,,,,,FBP-RB-91.png,0.35,1.2,56,0.75,0,27,27,55,1,,,,,,,,,,,,,,,,,,,,,,,,,,,,,,,,,,,,,,,,
,,,,,V3_003,21,Female,2024-10-13_15h00.44.064,jersey_experiment_5_v3,2023.2.2,Win32,60.24096386,,,,,,,,,,,,,,,,418.8859,420.1859,420.1861,421.5689,return,0.2509,,54.79166667,,,,,,FBP-OG-91.png,0.35,1.2,41,0.5,0,28,28,40,1,,,,,,,,,,,,,,,,,,,,,,,,,,,,,,,,,,,,,,,,
,,,,,V3_003,21,Female,2024-10-13_15h00.44.064,jersey_experiment_5_v3,2023.2.2,Win32,60.24096386,,,,,,,,,,,,,,,,421.5693,423.1192,423.1193,424.9021,return,0.2792,,56.04166667,,,,,,FBP-YG-19.png,0.35,1.2,11,0.75,0,29,29,10,1,,,,,,,,,,,,,,,,,,,,,,,,,,,,,,,,,,,,,,,,
,,,,,V3_003,21,Female,2024-10-13_15h00.44.064,jersey_experiment_5_v3,2023.2.2,Win32,60.24096386,,,,,,,,,,,,,,,,424.9026,426.2027,426.2028,427.4854,return,0.2044,,74.09722222,,,,,,FBP-OG-91.png,0.45,1.2,45,0.5,0,30,30,44,1,,,,,,,,,,,,,,,,,,,,,,,,,,,,,,,,,,,,,,,,
,,,,,V3_003,21,Female,2024-10-13_15h00.44.064,jersey_experiment_5_v3,2023.2.2,Win32,60.24096386,,,,,,,,,,,,,,,,427.4858,429.0356,429.0356,434.0357,return,0.3672,,53.54166667,,,,,,FBP-PT-81.png,0.37,1.2,22,0.75,0,31,31,21,1,,,,,,,,,,,,,,,,,,,,,,,,,,,,,,,,,,,,,,,,
,,,,,V3_003,21,Female,2024-10-13_15h00.44.064,jersey_experiment_5_v3,2023.2.2,Win32,60.24096386,,,,,,,,,,,,,,,,434.0361,435.5858,435.5859,436.7525,return,0.1024,,62.15277778,,,,,,FBP-YG-17.png,0.4,1.2,3,0.75,0,32,32,2,1,,,,,,,,,,,,,,,,,,,,,,,,,,,,,,,,,,,,,,,,
,,,,,V3_003,21,Female,2024-10-13_15h00.44.064,jersey_experiment_5_v3,2023.2.2,Win32,60.24096386,,,,,,,,,,,,,,,,436.7531,438.0528,438.0529,439.302,return,0.1617,,61.45833333,,,,,,FBP-OG-81.png,0.4,1.2,38,0.5,0,33,33,37,1,,,,,,,,,,,,,,,,,,,,,,,,,,,,,,,,,,,,,,,,
,,,,,V3_003,21,Female,2024-10-13_15h00.44.064,jersey_experiment_5_v3,2023.2.2,Win32,60.24096386,,,,,,,,,,,,,,,,439.3022,440.8522,440.8522,441.7522,return,0.1115,,62.08333333,,,,,,FBP-PT-91.png,0.37,1.2,27,0.75,0,34,34,26,1,,,,,,,,,,,,,,,,,,,,,,,,,,,,,,,,,,,,,,,,
,,,,,V3_003,21,Female,2024-10-13_15h00.44.064,jersey_experiment_5_v3,2023.2.2,Win32,60.24096386,,,,,,,,,,,,,,,,441.7526,443.3025,443.3026,444.3693,return,0.0854,,65,,,,,,FBP-YG-17.png,0.37,1.2,2,0.75,0,35,35,1,1,,,,,,,,,,,,,,,,,,,,,,,,,,,,,,,,,,,,,,,,
,,,,,V3_003,21,Female,2024-10-13_15h00.44.064,jersey_experiment_5_v3,2023.2.2,Win32,60.24096386,,,,,,,,,,,,,,,,444.3697,445.6693,445.6694,447.5024,return,0.188,,74.86111111,,,,,,FBP-OG-91.png,0.4,1.2,43,0.5,0,36,36,42,1,,,,,,,,,,,,,,,,,,,,,,,,,,,,,,,,,,,,,,,,
,,,,,V3_003,21,Female,2024-10-13_15h00.44.064,jersey_experiment_5_v3,2023.2.2,Win32,60.24096386,,,,,,,,,,,,,,,,447.5028,449.0525,449.0525,449.8523,return,0.1716,,75,,,,,,FBP-RB-91.png,0.4,1.2,58,0.75,0,37,37,57,1,,,,,,,,,,,,,,,,,,,,,,,,,,,,,,,,,,,,,,,,
,,,,,V3_003,21,Female,2024-10-13_15h00.44.064,jersey_experiment_5_v3,2023.2.2,Win32,60.24096386,,,,,,,,,,,,,,,,449.8527,451.4026,451.4026,452.5357,return,0.1274,,75.625,,,,,,FBP-RB-81.png,0.35,1.2,51,0.75,0,38,38,50,1,,,,,,,,,,,,,,,,,,,,,,,,,,,,,,,,,,,,,,,,
,,,,,V3_003,21,Female,2024-10-13_15h00.44.064,jersey_experiment_5_v3,2023.2.2,Win32,60.24096386,,,,,,,,,,,,,,,,452.5362,454.0858,454.0859,455.0023,return,0.1602,,77.98611111,,,,,,FBP-YG-19.png,0.45,1.2,15,0.75,0,39,39,14,1,,,,,,,,,,,,,,,,,,,,,,,,,,,,,,,,,,,,,,,,
,,,,,V3_003,21,Female,2024-10-13_15h00.44.064,jersey_experiment_5_v3,2023.2.2,Win32,60.24096386,,,,,,,,,,,,,,,,455.0028,456.5523,456.5524,457.5193,return,0.2038,,80.55555556,,,,,,FBP-RB-81.png,0.4,1.2,53,0.75,0,40,40,52,1,,,,,,,,,,,,,,,,,,,,,,,,,,,,,,,,,,,,,,,,
,,,,,V3_003,21,Female,2024-10-13_15h00.44.064,jersey_experiment_5_v3,2023.2.2,Win32,60.24096386,,,,,,,,,,,,,,,,457.5198,459.0694,459.0695,460.3194,return,0.3034,,79.09722222,,,,,,FBP-YG-18.png,0.43,1.2,9,0.75,0,41,41,8,1,,,,,,,,,,,,,,,,,,,,,,,,,,,,,,,,,,,,,,,,
,,,,,V3_003,21,Female,2024-10-13_15h00.44.064,jersey_experiment_5_v3,2023.2.2,Win32,60.24096386,,,,,,,,,,,,,,,,460.3198,461.8695,461.8696,463.236,return,0.2502,,75.625,,,,,,FBP-RB-71.png,0.37,1.2,47,0.75,0,42,42,46,1,,,,,,,,,,,,,,,,,,,,,,,,,,,,,,,,,,,,,,,,
,,,,,V3_003,21,Female,2024-10-13_15h00.44.064,jersey_experiment_5_v3,2023.2.2,Win32,60.24096386,,,,,,,,,,,,,,,,463.2366,464.786,464.7861,465.6024,return,0.1521,,73.54166667,,,,,,FBP-YG-18.png,0.4,1.2,8,0.75,0,43,43,7,1,,,,,,,,,,,,,,,,,,,,,,,,,,,,,,,,,,,,,,,,
,,,,,V3_003,21,Female,2024-10-13_15h00.44.064,jersey_experiment_5_v3,2023.2.2,Win32,60.24096386,,,,,,,,,,,,,,,,465.6028,467.1525,467.1525,468.0694,return,0.2162,,77.70833333,,,,,,FBP-YG-17.png,0.43,1.2,4,0.75,0,44,44,3,1,,,,,,,,,,,,,,,,,,,,,,,,,,,,,,,,,,,,,,,,
,,,,,V3_003,21,Female,2024-10-13_15h00.44.064,jersey_experiment_5_v3,2023.2.2,Win32,60.24096386,,,,,,,,,,,,,,,,468.0699,469.369,469.3691,472.5862,return,0.1053,,53.125,,,,,,FBP-OG-91.png,0.37,1.2,42,0.5,0,45,45,41,1,,,,,,,,,,,,,,,,,,,,,,,,,,,,,,,,,,,,,,,,
,,,,,V3_003,21,Female,2024-10-13_15h00.44.064,jersey_experiment_5_v3,2023.2.2,Win32,60.24096386,,,,,,,,,,,,,,,,472.587,473.8859,473.886,475.0361,return,0.1228,,25.97222222,,,,,,FBP-OG-81.png,0.35,1.2,36,0.5,0,46,46,35,1,,,,,,,,,,,,,,,,,,,,,,,,,,,,,,,,,,,,,,,,
,,,,,V3_003,21,Female,2024-10-13_15h00.44.064,jersey_experiment_5_v3,2023.2.2,Win32,60.24096386,,,,,,,,,,,,,,,,475.0367,476.3361,476.3361,477.6526,return,0.0659,,74.86111111,,,,,,FBP-OG-81.png,0.45,1.2,40,0.5,0,47,47,39,1,,,,,,,,,,,,,,,,,,,,,,,,,,,,,,,,,,,,,,,,
,,,,,V3_003,21,Female,2024-10-13_15h00.44.064,jersey_experiment_5_v3,2023.2.2,Win32,60.24096386,,,,,,,,,,,,,,,,477.653,479.2025,479.2026,480.1361,return,0.2602,,80.41666667,,,,,,FBP-RB-91.png,0.45,1.2,60,0.75,0,48,48,59,1,,,,,,,,,,,,,,,,,,,,,,,,,,,,,,,,,,,,,,,,
,,,,,V3_003,21,Female,2024-10-13_15h00.44.064,jersey_experiment_5_v3,2023.2.2,Win32,60.24096386,,,,,,,,,,,,,,,,480.1364,481.6868,481.6869,482.8191,return,0.084,,27.22222222,,,,,,FBP-PT-91.png,0.35,1.2,26,0.75,0,49,49,25,1,,,,,,,,,,,,,,,,,,,,,,,,,,,,,,,,,,,,,,,,
,,,,,V3_003,21,Female,2024-10-13_15h00.44.064,jersey_experiment_5_v3,2023.2.2,Win32,60.24096386,,,,,,,,,,,,,,,,482.8195,484.3691,484.3692,485.3359,return,0.0593,,75,,,,,,FBP-PT-71.png,0.43,1.2,19,0.75,0,50,50,18,1,,,,,,,,,,,,,,,,,,,,,,,,,,,,,,,,,,,,,,,,
,,,,,V3_003,21,Female,2024-10-13_15h00.44.064,jersey_experiment_5_v3,2023.2.2,Win32,60.24096386,,,,,,,,,,,,,,,,485.3364,486.8862,486.8863,488.453,return,0.8162,,80.83333333,,,,,,FBP-YG-19.png,0.43,1.2,14,0.75,0,51,51,13,1,,,,,,,,,,,,,,,,,,,,,,,,,,,,,,,,,,,,,,,,
,,,,,V3_003,21,Female,2024-10-13_15h00.44.064,jersey_experiment_5_v3,2023.2.2,Win32,60.24096386,,,,,,,,,,,,,,,,488.4533,490.003,490.0031,491.2026,return,0.152,,79.30555556,,,,,,FBP-RB-71.png,0.45,1.2,50,0.75,0,52,52,49,1,,,,,,,,,,,,,,,,,,,,,,,,,,,,,,,,,,,,,,,,
,,,,,V3_003,21,Female,2024-10-13_15h00.44.064,jersey_experiment_5_v3,2023.2.2,Win32,60.24096386,,,,,,,,,,,,,,,,491.203,492.7529,492.753,494.27,return,0.1723,,26.66666667,,,,,,FBP-YG-19.png,0.37,1.2,12,0.75,0,53,53,11,1,,,,,,,,,,,,,,,,,,,,,,,,,,,,,,,,,,,,,,,,
,,,,,V3_003,21,Female,2024-10-13_15h00.44.064,jersey_experiment_5_v3,2023.2.2,Win32,60.24096386,,,,,,,,,,,,,,,,494.2704,495.5694,495.5695,496.8863,return,0.0663,,85.34722222,,,,,,FBP-OG-71.png,0.45,1.2,35,0.5,0,54,54,34,1,,,,,,,,,,,,,,,,,,,,,,,,,,,,,,,,,,,,,,,,
,,,,,V3_003,21,Female,2024-10-13_15h00.44.064,jersey_experiment_5_v3,2023.2.2,Win32,60.24096386,,,,,,,,,,,,,,,,496.8866,498.4364,498.4365,499.4028,return,0.1074,,25.13888889,,,,,,FBP-YG-18.png,0.37,1.2,7,0.75,0,55,55,6,1,,,,,,,,,,,,,,,,,,,,,,,,,,,,,,,,,,,,,,,,
,,,,,V3_003,21,Female,2024-10-13_15h00.44.064,jersey_experiment_5_v3,2023.2.2,Win32,60.24096386,,,,,,,,,,,,,,,,499.403,500.9525,500.9526,501.8362,return,0.0725,,88.75,,,,,,FBP-PT-91.png,0.45,1.2,30,0.75,0,56,56,29,1,,,,,,,,,,,,,,,,,,,,,,,,,,,,,,,,,,,,,,,,
,,,,,V3_003,21,Female,2024-10-13_15h00.44.064,jersey_experiment_5_v3,2023.2.2,Win32,60.24096386,,,,,,,,,,,,,,,,501.8366,503.386,503.3861,505.7196,return,0.0438,,40.20833333,,,,,,FBP-RB-91.png,0.37,1.2,57,0.75,0,57,57,56,1,,,,,,,,,,,,,,,,,,,,,,,,,,,,,,,,,,,,,,,,
,,,,,V3_003,21,Female,2024-10-13_15h00.44.064,jersey_experiment_5_v3,2023.2.2,Win32,60.24096386,,,,,,,,,,,,,,,,505.72,507.27,507.2701,508.1865,return,0.1249,,75.27777778,,,,,,FBP-RB-81.png,0.43,1.2,54,0.75,0,58,58,53,1,,,,,,,,,,,,,,,,,,,,,,,,,,,,,,,,,,,,,,,,
,,,,,V3_003,21,Female,2024-10-13_15h00.44.064,jersey_experiment_5_v3,2023.2.2,Win32,60.24096386,,,,,,,,,,,,,,,,508.1872,509.7359,509.7359,511.3361,return,0.1273,,35.83333333,,,,,,FBP-PT-71.png,0.37,1.2,17,0.75,0,59,59,16,1,,,,,,,,,,,,,,,,,,,,,,,,,,,,,,,,,,,,,,,,
,,,,,V3_003,21,Female,2024-10-13_15h00.44.064,jersey_experiment_5_v3,2023.2.2,Win32,60.24096386,,,,,,,,,,,,,,,,,,,,,,,,,,,,,,,,,,,,,,,511.3369,631.3374,,,,,,,,,,,,,,,,,,,,,,,,,,,,,,,,,,,,,,
,,,,,V3_003,21,Female,2024-10-13_15h00.44.064,jersey_experiment_5_v3,2023.2.2,Win32,60.24096386,,,,,,,,,,,,,,,,,,,,,,,,,,,,,,,,,,,,,,,,,631.3374,669.0214,return,37.6729,,,,,,,,,,,,,,,,,,,,,,,,,,,,,,,,,,
,,,,,V3_003,21,Female,2024-10-13_15h00.44.064,jersey_experiment_5_v3,2023.2.2,Win32,60.24096386,,,,,,,,,,,,,,,,669.036,670.3376,670.3376,675.5374,return,1.5182,,25.20833333,,,,,,FBP-PT-19.png,0.37,1.2,27,0.5,,,,,,,,,,,,,0,0,0,26,1,,,,,,,,,,,,,,,,,,,,,,,,,,,,
,,,,,V3_003,21,Female,2024-10-13_15h00.44.064,jersey_experiment_5_v3,2023.2.2,Win32,60.24096386,,,,,,,,,,,,,,,,675.538,676.8376,676.8377,678.3706,return,0.3359,,75.34722222,,,,,,FBP-RB-19.png,0.45,1.2,60,0.5,,,,,,,,,,,,,0,1,1,59,1,,,,,,,,,,,,,,,,,,,,,,,,,,,,
,,,,,V3_003,21,Female,2024-10-13_15h00.44.064,jersey_experiment_5_v3,2023.2.2,Win32,60.24096386,,,,,,,,,,,,,,,,678.3711,679.671,679.6711,680.7872,return,0.0676,,25.41666667,,,,,,FBP-RB-17.png,0.35,1.2,46,0.5,,,,,,,,,,,,,0,2,2,45,1,,,,,,,,,,,,,,,,,,,,,,,,,,,,
,,,,,V3_003,21,Female,2024-10-13_15h00.44.064,jersey_experiment_5_v3,2023.2.2,Win32,60.24096386,,,,,,,,,,,,,,,,680.7875,682.087,682.0871,682.9372,return,0.0426,,75.06944444,,,,,,FBP-PT-17.png,0.45,1.2,20,0.5,,,,,,,,,,,,,0,3,3,19,1,,,,,,,,,,,,,,,,,,,,,,,,,,,,
,,,,,V3_003,21,Female,2024-10-13_15h00.44.064,jersey_experiment_5_v3,2023.2.2,Win32,60.24096386,,,,,,,,,,,,,,,,682.9377,684.2372,684.2373,685.4206,return,0.0217,,75.27777778,,,,,,FBP-YG-81.png,0.43,1.2,9,0.5,,,,,,,,,,,,,0,4,4,8,1,,,,,,,,,,,,,,,,,,,,,,,,,,,,
,,,,,V3_003,21,Female,2024-10-13_15h00.44.064,jersey_experiment_5_v3,2023.2.2,Win32,60.24096386,,,,,,,,,,,,,,,,685.4211,686.9708,686.9709,688.1537,return,0.1246,,24.93055556,,,,,,FBP-OG-19.png,0.37,1.2,42,0.75,,,,,,,,,,,,,0,5,5,41,1,,,,,,,,,,,,,,,,,,,,,,,,,,,,
,,,,,V3_003,21,Female,2024-10-13_15h00.44.064,jersey_experiment_5_v3,2023.2.2,Win32,60.24096386,,,,,,,,,,,,,,,,688.1539,689.454,689.4541,690.7539,return,0.1842,,74.93055556,,,,,,FBP-RB-19.png,0.4,1.2,58,0.5,,,,,,,,,,,,,0,6,6,57,1,,,,,,,,,,,,,,,,,,,,,,,,,,,,
,,,,,V3_003,21,Female,2024-10-13_15h00.44.064,jersey_experiment_5_v3,2023.2.2,Win32,60.24096386,,,,,,,,,,,,,,,,690.7543,692.0541,692.0542,693.5374,return,0.2185,,25.625,,,,,,FBP-PT-19.png,0.35,1.2,26,0.5,,,,,,,,,,,,,0,7,7,25,1,,,,,,,,,,,,,,,,,,,,,,,,,,,,
,,,,,V3_003,21,Female,2024-10-13_15h00.44.064,jersey_experiment_5_v3,2023.2.2,Win32,60.24096386,,,,,,,,,,,,,,,,693.5378,694.8373,694.8375,696.3542,return,0.3674,,74.86111111,,,,,,FBP-PT-18.png,0.4,1.2,23,0.5,,,,,,,,,,,,,0,8,8,22,1,,,,,,,,,,,,,,,,,,,,,,,,,,,,
,,,,,V3_003,21,Female,2024-10-13_15h00.44.064,jersey_experiment_5_v3,2023.2.2,Win32,60.24096386,,,,,,,,,,,,,,,,696.3547,697.9042,697.9042,699.1541,return,0.2331,,79.02777778,,,,,,FBP-OG-17.png,0.45,1.2,35,0.75,,,,,,,,,,,,,0,9,9,34,1,,,,,,,,,,,,,,,,,,,,,,,,,,,,
,,,,,V3_003,21,Female,2024-10-13_15h00.44.064,jersey_experiment_5_v3,2023.2.2,Win32,60.24096386,,,,,,,,,,,,,,,,699.1545,700.454,700.454,701.2873,return,0.1608,,78.95833333,,,,,,FBP-YG-71.png,0.45,1.2,5,0.5,,,,,,,,,,,,,0,10,10,4,1,,,,,,,,,,,,,,,,,,,,,,,,,,,,
,,,,,V3_003,21,Female,2024-10-13_15h00.44.064,jersey_experiment_5_v3,2023.2.2,Win32,60.24096386,,,,,,,,,,,,,,,,701.2877,702.8371,702.8372,704.0704,return,0.1949,,67.84722222,,,,,,FBP-OG-17.png,0.4,1.2,33,0.75,,,,,,,,,,,,,0,11,11,32,1,,,,,,,,,,,,,,,,,,,,,,,,,,,,
,,,,,V3_003,21,Female,2024-10-13_15h00.44.064,jersey_experiment_5_v3,2023.2.2,Win32,60.24096386,,,,,,,,,,,,,,,,704.0707,705.6206,705.6206,707.1208,return,0.3859,,26.66666667,,,,,,FBP-OG-19.png,0.35,1.2,41,0.75,,,,,,,,,,,,,0,12,12,40,1,,,,,,,,,,,,,,,,,,,,,,,,,,,,
,,,,,V3_003,21,Female,2024-10-13_15h00.44.064,jersey_experiment_5_v3,2023.2.2,Win32,60.24096386,,,,,,,,,,,,,,,,707.1211,708.671,708.6711,710.0379,return,0.1609,,24.51388889,,,,,,FBP-OG-17.png,0.35,1.2,31,0.75,,,,,,,,,,,,,0,13,13,30,1,,,,,,,,,,,,,,,,,,,,,,,,,,,,
,,,,,V3_003,21,Female,2024-10-13_15h00.44.064,jersey_experiment_5_v3,2023.2.2,Win32,60.24096386,,,,,,,,,,,,,,,,710.0384,711.3375,711.3375,712.5874,return,0.1238,,25.27777778,,,,,,FBP-RB-19.png,0.35,1.2,56,0.5,,,,,,,,,,,,,0,14,14,55,1,,,,,,,,,,,,,,,,,,,,,,,,,,,,
,,,,,V3_003,21,Female,2024-10-13_15h00.44.064,jersey_experiment_5_v3,2023.2.2,Win32,60.24096386,,,,,,,,,,,,,,,,712.5877,713.8875,713.8875,715.2873,return,0.0923,,74.65277778,,,,,,FBP-YG-81.png,0.45,1.2,10,0.5,,,,,,,,,,,,,0,15,15,9,1,,,,,,,,,,,,,,,,,,,,,,,,,,,,
,,,,,V3_003,21,Female,2024-10-13_15h00.44.064,jersey_experiment_5_v3,2023.2.2,Win32,60.24096386,,,,,,,,,,,,,,,,715.2877,716.5873,716.5875,717.5708,return,0.1344,,74.72222222,,,,,,FBP-PT-18.png,0.45,1.2,25,0.5,,,,,,,,,,,,,0,16,16,24,1,,,,,,,,,,,,,,,,,,,,,,,,,,,,
,,,,,V3_003,21,Female,2024-10-13_15h00.44.064,jersey_experiment_5_v3,2023.2.2,Win32,60.24096386,,,,,,,,,,,,,,,,717.5712,718.8708,718.8709,720.1708,return,0.2077,,68.68055556,,,,,,FBP-YG-71.png,0.37,1.2,2,0.5,,,,,,,,,,,,,0,17,17,1,1,,,,,,,,,,,,,,,,,,,,,,,,,,,,
,,,,,V3_003,21,Female,2024-10-13_15h00.44.064,jersey_experiment_5_v3,2023.2.2,Win32,60.24096386,,,,,,,,,,,,,,,,720.171,721.4712,721.4714,722.5545,return,0.1088,,75.13888889,,,,,,FBP-PT-19.png,0.45,1.2,30,0.5,,,,,,,,,,,,,0,18,18,29,1,,,,,,,,,,,,,,,,,,,,,,,,,,,,
,,,,,V3_003,21,Female,2024-10-13_15h00.44.064,jersey_experiment_5_v3,2023.2.2,Win32,60.24096386,,,,,,,,,,,,,,,,722.555,723.8541,723.8541,728.2542,return,1.5033,,50,,,,,,FBP-YG-81.png,0.37,1.2,7,0.5,,,,,,,,,,,,,0,19,19,6,1,,,,,,,,,,,,,,,,,,,,,,,,,,,,
,,,,,V3_003,21,Female,2024-10-13_15h00.44.064,jersey_experiment_5_v3,2023.2.2,Win32,60.24096386,,,,,,,,,,,,,,,,728.2547,729.8042,729.8043,731.5714,return,0.0852,,60.34722222,,,,,,FBP-OG-18.png,0.4,1.2,38,0.75,,,,,,,,,,,,,0,20,20,37,1,,,,,,,,,,,,,,,,,,,,,,,,,,,,
,,,,,V3_003,21,Female,2024-10-13_15h00.44.064,jersey_experiment_5_v3,2023.2.2,Win32,60.24096386,,,,,,,,,,,,,,,,731.5719,732.8713,732.8714,734.0211,return,0.1835,,36.18055556,,,,,,FBP-YG-71.png,0.35,1.2,1,0.5,,,,,,,,,,,,,0,21,21,0,1,,,,,,,,,,,,,,,,,,,,,,,,,,,,
,,,,,V3_003,21,Female,2024-10-13_15h00.44.064,jersey_experiment_5_v3,2023.2.2,Win32,60.24096386,,,,,,,,,,,,,,,,734.0216,735.5714,735.5715,736.5709,return,0.0737,,75.13888889,,,,,,FBP-OG-18.png,0.45,1.2,40,0.75,,,,,,,,,,,,,0,22,22,39,1,,,,,,,,,,,,,,,,,,,,,,,,,,,,
,,,,,V3_003,21,Female,2024-10-13_15h00.44.064,jersey_experiment_5_v3,2023.2.2,Win32,60.24096386,,,,,,,,,,,,,,,,736.5713,737.8715,737.8716,738.9541,return,0.0736,,35,,,,,,FBP-PT-18.png,0.37,1.2,22,0.5,,,,,,,,,,,,,0,23,23,21,1,,,,,,,,,,,,,,,,,,,,,,,,,,,,
,,,,,V3_003,21,Female,2024-10-13_15h00.44.064,jersey_experiment_5_v3,2023.2.2,Win32,60.24096386,,,,,,,,,,,,,,,,738.9545,740.2541,740.2542,741.9547,return,0.2667,,36.11111111,,,,,,FBP-RB-18.png,0.35,1.2,51,0.5,,,,,,,,,,,,,0,24,24,50,1,,,,,,,,,,,,,,,,,,,,,,,,,,,,
,,,,,V3_003,21,Female,2024-10-13_15h00.44.064,jersey_experiment_5_v3,2023.2.2,Win32,60.24096386,,,,,,,,,,,,,,,,741.955,743.2546,743.2548,746.2379,return,0.0884,,60.97222222,,,,,,FBP-RB-17.png,0.37,1.2,47,0.5,,,,,,,,,,,,,0,25,25,46,1,,,,,,,,,,,,,,,,,,,,,,,,,,,,
,,,,,V3_003,21,Female,2024-10-13_15h00.44.064,jersey_experiment_5_v3,2023.2.2,Win32,60.24096386,,,,,,,,,,,,,,,,746.2383,747.7879,747.788,748.9042,return,0.1765,,75.48611111,,,,,,FBP-OG-19.png,0.45,1.2,45,0.75,,,,,,,,,,,,,0,26,26,44,1,,,,,,,,,,,,,,,,,,,,,,,,,,,,
,,,,,V3_003,21,Female,2024-10-13_15h00.44.064,jersey_experiment_5_v3,2023.2.2,Win32,60.24096386,,,,,,,,,,,,,,,,748.9048,750.2048,750.205,753.5042,return,0.1683,,74.375,,,,,,FBP-YG-91.png,0.4,1.2,13,0.5,,,,,,,,,,,,,0,27,27,12,1,,,,,,,,,,,,,,,,,,,,,,,,,,,,
,,,,,V3_003,21,Female,2024-10-13_15h00.44.064,jersey_experiment_5_v3,2023.2.2,Win32,60.24096386,,,,,,,,,,,,,,,,753.5045,755.0545,755.0546,755.988,return,0.1358,,75.27777778,,,,,,FBP-OG-19.png,0.4,1.2,43,0.75,,,,,,,,,,,,,0,28,28,42,1,,,,,,,,,,,,,,,,,,,,,,,,,,,,
,,,,,V3_003,21,Female,2024-10-13_15h00.44.064,jersey_experiment_5_v3,2023.2.2,Win32,60.24096386,,,,,,,,,,,,,,,,755.9884,757.538,757.5381,759.1211,return,0.551,,34.72222222,,,,,,FBP-OG-18.png,0.37,1.2,37,0.75,,,,,,,,,,,,,0,29,29,36,1,,,,,,,,,,,,,,,,,,,,,,,,,,,,
,,,,,V3_003,21,Female,2024-10-13_15h00.44.064,jersey_experiment_5_v3,2023.2.2,Win32,60.24096386,,,,,,,,,,,,,,,,759.1215,760.4209,760.421,763.088,return,0.1357,,74.58333333,,,,,,FBP-RB-17.png,0.45,1.2,50,0.5,,,,,,,,,,,,,0,30,30,49,1,,,,,,,,,,,,,,,,,,,,,,,,,,,,
,,,,,V3_003,21,Female,2024-10-13_15h00.44.064,jersey_experiment_5_v3,2023.2.2,Win32,60.24096386,,,,,,,,,,,,,,,,763.0883,764.3881,764.3882,765.6541,return,0.1947,,24.23611111,,,,,,FBP-PT-17.png,0.35,1.2,16,0.5,,,,,,,,,,,,,0,31,31,15,1,,,,,,,,,,,,,,,,,,,,,,,,,,,,
,,,,,V3_003,21,Female,2024-10-13_15h00.44.064,jersey_experiment_5_v3,2023.2.2,Win32,60.24096386,,,,,,,,,,,,,,,,765.6544,766.9545,766.9546,768.6547,return,0.0705,,24.86111111,,,,,,FBP-YG-91.png,0.37,1.2,12,0.5,,,,,,,,,,,,,0,32,32,11,1,,,,,,,,,,,,,,,,,,,,,,,,,,,,
,,,,,V3_003,21,Female,2024-10-13_15h00.44.064,jersey_experiment_5_v3,2023.2.2,Win32,60.24096386,,,,,,,,,,,,,,,,768.655,769.9545,769.9545,772.6711,return,1.2864,,67.08333333,,,,,,FBP-YG-91.png,0.43,1.2,14,0.5,,,,,,,,,,,,,0,33,33,13,1,,,,,,,,,,,,,,,,,,,,,,,,,,,,
,,,,,V3_003,21,Female,2024-10-13_15h00.44.064,jersey_experiment_5_v3,2023.2.2,Win32,60.24096386,,,,,,,,,,,,,,,,772.6715,773.9713,773.9714,778.6879,return,0.1712,,54.09722222,,,,,,FBP-RB-18.png,0.37,1.2,52,0.5,,,,,,,,,,,,,0,34,34,51,1,,,,,,,,,,,,,,,,,,,,,,,,,,,,
,,,,,V3_003,21,Female,2024-10-13_15h00.44.064,jersey_experiment_5_v3,2023.2.2,Win32,60.24096386,,,,,,,,,,,,,,,,778.6883,779.9882,779.9883,782.2047,return,0.1058,,71.875,,,,,,FBP-YG-71.png,0.43,1.2,4,0.5,,,,,,,,,,,,,0,35,35,3,1,,,,,,,,,,,,,,,,,,,,,,,,,,,,
,,,,,V3_003,21,Female,2024-10-13_15h00.44.064,jersey_experiment_5_v3,2023.2.2,Win32,60.24096386,,,,,,,,,,,,,,,,782.2051,783.5046,783.5047,784.4211,return,0.1807,,74.86111111,,,,,,FBP-RB-19.png,0.43,1.2,59,0.5,,,,,,,,,,,,,0,36,36,58,1,,,,,,,,,,,,,,,,,,,,,,,,,,,,
,,,,,V3_003,21,Female,2024-10-13_15h00.44.064,jersey_experiment_5_v3,2023.2.2,Win32,60.24096386,,,,,,,,,,,,,,,,784.4213,785.7213,785.7215,787.6213,return,0.2965,,25.55555556,,,,,,FBP-YG-91.png,0.35,1.2,11,0.5,,,,,,,,,,,,,0,37,37,10,1,,,,,,,,,,,,,,,,,,,,,,,,,,,,
,,,,,V3_003,21,Female,2024-10-13_15h00.44.064,jersey_experiment_5_v3,2023.2.2,Win32,60.24096386,,,,,,,,,,,,,,,,787.6215,788.921,788.921,790.7381,return,0.1515,,63.19444444,,,,,,FBP-RB-17.png,0.4,1.2,48,0.5,,,,,,,,,,,,,0,38,38,47,1,,,,,,,,,,,,,,,,,,,,,,,,,,,,
,,,,,V3_003,21,Female,2024-10-13_15h00.44.064,jersey_experiment_5_v3,2023.2.2,Win32,60.24096386,,,,,,,,,,,,,,,,790.7385,792.0379,792.038,793.671,return,0.5947,,75.55555556,,,,,,FBP-PT-17.png,0.43,1.2,19,0.5,,,,,,,,,,,,,0,39,39,18,1,,,,,,,,,,,,,,,,,,,,,,,,,,,,
,,,,,V3_003,21,Female,2024-10-13_15h00.44.064,jersey_experiment_5_v3,2023.2.2,Win32,60.24096386,,,,,,,,,,,,,,,,793.6713,795.2215,795.2217,796.1379,return,0.2413,,74.09722222,,,,,,FBP-OG-18.png,0.43,1.2,39,0.75,,,,,,,,,,,,,0,40,40,38,1,,,,,,,,,,,,,,,,,,,,,,,,,,,,
,,,,,V3_003,21,Female,2024-10-13_15h00.44.064,jersey_experiment_5_v3,2023.2.2,Win32,60.24096386,,,,,,,,,,,,,,,,796.1383,797.4379,797.4379,798.2716,return,0.0364,,74.93055556,,,,,,FBP-YG-71.png,0.4,1.2,3,0.5,,,,,,,,,,,,,0,41,41,2,1,,,,,,,,,,,,,,,,,,,,,,,,,,,,
,,,,,V3_003,21,Female,2024-10-13_15h00.44.064,jersey_experiment_5_v3,2023.2.2,Win32,60.24096386,,,,,,,,,,,,,,,,798.272,799.5715,799.5715,800.5045,return,0.1763,,79.79166667,,,,,,FBP-YG-91.png,0.45,1.2,15,0.5,,,,,,,,,,,,,0,42,42,14,1,,,,,,,,,,,,,,,,,,,,,,,,,,,,
,,,,,V3_003,21,Female,2024-10-13_15h00.44.064,jersey_experiment_5_v3,2023.2.2,Win32,60.24096386,,,,,,,,,,,,,,,,800.505,801.8046,801.8047,802.538,return,0.0579,,79.65277778,,,,,,FBP-RB-18.png,0.45,1.2,55,0.5,,,,,,,,,,,,,0,43,43,54,1,,,,,,,,,,,,,,,,,,,,,,,,,,,,
,,,,,V3_003,21,Female,2024-10-13_15h00.44.064,jersey_experiment_5_v3,2023.2.2,Win32,60.24096386,,,,,,,,,,,,,,,,802.5386,803.8379,803.838,804.8045,return,0.1006,,67.22222222,,,,,,FBP-PT-19.png,0.4,1.2,28,0.5,,,,,,,,,,,,,0,44,44,27,1,,,,,,,,,,,,,,,,,,,,,,,,,,,,
,,,,,V3_003,21,Female,2024-10-13_15h00.44.064,jersey_experiment_5_v3,2023.2.2,Win32,60.24096386,,,,,,,,,,,,,,,,804.8047,806.3547,806.3547,807.0546,return,0.0864,,67.56944444,,,,,,FBP-OG-19.png,0.43,1.2,44,0.75,,,,,,,,,,,,,0,45,45,43,1,,,,,,,,,,,,,,,,,,,,,,,,,,,,
,,,,,V3_003,21,Female,2024-10-13_15h00.44.064,jersey_experiment_5_v3,2023.2.2,Win32,60.24096386,,,,,,,,,,,,,,,,807.0549,808.3547,808.3548,809.7215,return,0.1247,,74.65277778,,,,,,FBP-PT-18.png,0.43,1.2,24,0.5,,,,,,,,,,,,,0,46,46,23,1,,,,,,,,,,,,,,,,,,,,,,,,,,,,
,,,,,V3_003,21,Female,2024-10-13_15h00.44.064,jersey_experiment_5_v3,2023.2.2,Win32,60.24096386,,,,,,,,,,,,,,,,809.722,811.0213,811.0213,813.2545,return,0.1276,,67.77777778,,,,,,FBP-RB-17.png,0.43,1.2,49,0.5,,,,,,,,,,,,,0,47,47,48,1,,,,,,,,,,,,,,,,,,,,,,,,,,,,
,,,,,V3_003,21,Female,2024-10-13_15h00.44.064,jersey_experiment_5_v3,2023.2.2,Win32,60.24096386,,,,,,,,,,,,,,,,813.2548,814.5546,814.5547,817.0214,return,0.2546,,43.05555556,,,,,,FBP-YG-81.png,0.35,1.2,6,0.5,,,,,,,,,,,,,0,48,48,5,1,,,,,,,,,,,,,,,,,,,,,,,,,,,,
,,,,,V3_003,21,Female,2024-10-13_15h00.44.064,jersey_experiment_5_v3,2023.2.2,Win32,60.24096386,,,,,,,,,,,,,,,,817.0218,818.3216,818.3216,819.7047,return,0.0754,,72.01388889,,,,,,FBP-PT-19.png,0.43,1.2,29,0.5,,,,,,,,,,,,,0,49,49,28,1,,,,,,,,,,,,,,,,,,,,,,,,,,,,
,,,,,V3_003,21,Female,2024-10-13_15h00.44.064,jersey_experiment_5_v3,2023.2.2,Win32,60.24096386,,,,,,,,,,,,,,,,819.7053,821.2554,821.2554,821.8718,return,0.0527,,66.875,,,,,,FBP-OG-17.png,0.43,1.2,34,0.75,,,,,,,,,,,,,0,50,50,33,1,,,,,,,,,,,,,,,,,,,,,,,,,,,,
,,,,,V3_003,21,Female,2024-10-13_15h00.44.064,jersey_experiment_5_v3,2023.2.2,Win32,60.24096386,,,,,,,,,,,,,,,,821.8724,823.1714,823.1715,824.4214,return,0.1328,,74.30555556,,,,,,FBP-RB-18.png,0.43,1.2,54,0.5,,,,,,,,,,,,,0,51,51,53,1,,,,,,,,,,,,,,,,,,,,,,,,,,,,
,,,,,V3_003,21,Female,2024-10-13_15h00.44.064,jersey_experiment_5_v3,2023.2.2,Win32,60.24096386,,,,,,,,,,,,,,,,824.422,825.7213,825.7214,827.9884,return,0.1503,,30.97222222,,,,,,FBP-RB-19.png,0.37,1.2,57,0.5,,,,,,,,,,,,,0,52,52,56,1,,,,,,,,,,,,,,,,,,,,,,,,,,,,
,,,,,V3_003,21,Female,2024-10-13_15h00.44.064,jersey_experiment_5_v3,2023.2.2,Win32,60.24096386,,,,,,,,,,,,,,,,827.9891,829.2923,829.2924,830.7381,return,0.1175,,24.93055556,,,,,,FBP-PT-17.png,0.37,1.2,17,0.5,,,,,,,,,,,,,0,53,53,16,1,,,,,,,,,,,,,,,,,,,,,,,,,,,,
,,,,,V3_003,21,Female,2024-10-13_15h00.44.064,jersey_experiment_5_v3,2023.2.2,Win32,60.24096386,,,,,,,,,,,,,,,,830.7386,832.2883,832.2883,833.2216,return,0.1469,,24.72222222,,,,,,FBP-OG-18.png,0.35,1.2,36,0.75,,,,,,,,,,,,,0,54,54,35,1,,,,,,,,,,,,,,,,,,,,,,,,,,,,
,,,,,V3_003,21,Female,2024-10-13_15h00.44.064,jersey_experiment_5_v3,2023.2.2,Win32,60.24096386,,,,,,,,,,,,,,,,833.2219,834.5216,834.5218,836.3549,return,0.2008,,63.26388889,,,,,,FBP-YG-81.png,0.4,1.2,8,0.5,,,,,,,,,,,,,0,55,55,7,1,,,,,,,,,,,,,,,,,,,,,,,,,,,,
,,,,,V3_003,21,Female,2024-10-13_15h00.44.064,jersey_experiment_5_v3,2023.2.2,Win32,60.24096386,,,,,,,,,,,,,,,,836.3554,837.6545,837.6546,838.8719,return,0.1109,,40,,,,,,FBP-PT-18.png,0.35,1.2,21,0.5,,,,,,,,,,,,,0,56,56,20,1,,,,,,,,,,,,,,,,,,,,,,,,,,,,
,,,,,V3_003,21,Female,2024-10-13_15h00.44.064,jersey_experiment_5_v3,2023.2.2,Win32,60.24096386,,,,,,,,,,,,,,,,838.8725,840.4215,840.4216,843.3049,return,0.1257,,29.09722222,,,,,,FBP-OG-17.png,0.37,1.2,32,0.75,,,,,,,,,,,,,0,57,57,31,1,,,,,,,,,,,,,,,,,,,,,,,,,,,,
,,,,,V3_003,21,Female,2024-10-13_15h00.44.064,jersey_experiment_5_v3,2023.2.2,Win32,60.24096386,,,,,,,,,,,,,,,,843.3053,844.6048,844.6049,845.9882,return,0.1547,,65.55555556,,,,,,FBP-PT-17.png,0.4,1.2,18,0.5,,,,,,,,,,,,,0,58,58,17,1,,,,,,,,,,,,,,,,,,,,,,,,,,,,
,,,,,V3_003,21,Female,2024-10-13_15h00.44.064,jersey_experiment_5_v3,2023.2.2,Win32,60.24096386,,,,,,,,,,,,,,,,845.9885,847.2884,847.2884,848.405,return,0.0839,,69.65277778,,,,,,FBP-RB-18.png,0.4,1.2,53,0.5,,,,,,,,,,,,,0,59,59,52,1,,,,,,,,,,,,,,,,,,,,,,,,,,,,
,,,,,V3_003,21,Female,2024-10-13_15h00.44.064,jersey_experiment_5_v3,2023.2.2,Win32,60.24096386,,,,,,,,,,,,,,,,848.4082,849.7048,849.7049,850.8718,return,0.2271,,74.86111111,,,,,,FBP-YG-18.png,0.45,1.2,10,0.5,,,,,,,,,,,,,,,,,,0,0,0,9,1,,,,,,,,,,,,,,,,,,,,,,,
,,,,,V3_003,21,Female,2024-10-13_15h00.44.064,jersey_experiment_5_v3,2023.2.2,Win32,60.24096386,,,,,,,,,,,,,,,,850.8723,852.1716,852.1717,852.7382,return,0.0842,,74.79166667,,,,,,FBP-RB-91.png,0.43,1.2,59,0.5,,,,,,,,,,,,,,,,,,0,1,1,58,1,,,,,,,,,,,,,,,,,,,,,,,
,,,,,V3_003,21,Female,2024-10-13_15h00.44.064,jersey_experiment_5_v3,2023.2.2,Win32,60.24096386,,,,,,,,,,,,,,,,852.7385,854.0384,854.0385,854.838,return,0.2954,,74.72222222,,,,,,FBP-YG-17.png,0.43,1.2,4,0.5,,,,,,,,,,,,,,,,,,0,2,2,3,1,,,,,,,,,,,,,,,,,,,,,,,
,,,,,V3_003,21,Female,2024-10-13_15h00.44.064,jersey_experiment_5_v3,2023.2.2,Win32,60.24096386,,,,,,,,,,,,,,,,854.8383,856.1385,856.1386,856.8883,return,0.2266,,74.51388889,,,,,,FBP-RB-71.png,0.4,1.2,48,0.5,,,,,,,,,,,,,,,,,,0,3,3,47,1,,,,,,,,,,,,,,,,,,,,,,,
,,,,,V3_003,21,Female,2024-10-13_15h00.44.064,jersey_experiment_5_v3,2023.2.2,Win32,60.24096386,,,,,,,,,,,,,,,,856.8886,858.1885,858.1886,858.8884,return,0.21,,74.51388889,,,,,,FBP-RB-91.png,0.4,1.2,58,0.5,,,,,,,,,,,,,,,,,,0,4,4,57,1,,,,,,,,,,,,,,,,,,,,,,,
,,,,,V3_003,21,Female,2024-10-13_15h00.44.064,jersey_experiment_5_v3,2023.2.2,Win32,60.24096386,,,,,,,,,,,,,,,,858.8888,860.1885,860.1886,861.3215,return,0.1584,,65.27777778,,,,,,FBP-YG-17.png,0.37,1.2,2,0.5,,,,,,,,,,,,,,,,,,0,5,5,1,1,,,,,,,,,,,,,,,,,,,,,,,
,,,,,V3_003,21,Female,2024-10-13_15h00.44.064,jersey_experiment_5_v3,2023.2.2,Win32,60.24096386,,,,,,,,,,,,,,,,861.3219,862.8726,862.8727,863.8549,return,0.121,,75.06944444,,,,,,FBP-OG-91.png,0.45,1.2,45,0.75,,,,,,,,,,,,,,,,,,0,6,6,44,1,,,,,,,,,,,,,,,,,,,,,,,
,,,,,V3_003,21,Female,2024-10-13_15h00.44.064,jersey_experiment_5_v3,2023.2.2,Win32,60.24096386,,,,,,,,,,,,,,,,863.8551,865.405,865.4051,865.9719,return,0.1674,,74.65277778,,,,,,FBP-OG-81.png,0.43,1.2,39,0.75,,,,,,,,,,,,,,,,,,0,7,7,38,1,,,,,,,,,,,,,,,,,,,,,,,
,,,,,V3_003,21,Female,2024-10-13_15h00.44.064,jersey_experiment_5_v3,2023.2.2,Win32,60.24096386,,,,,,,,,,,,,,,,865.9722,867.5221,867.5221,868.6054,return,0.1381,,39.58333333,,,,,,FBP-OG-91.png,0.37,1.2,42,0.75,,,,,,,,,,,,,,,,,,0,8,8,41,1,,,,,,,,,,,,,,,,,,,,,,,
,,,,,V3_003,21,Female,2024-10-13_15h00.44.064,jersey_experiment_5_v3,2023.2.2,Win32,60.24096386,,,,,,,,,,,,,,,,868.6057,870.1554,870.1555,871.0883,return,0.0838,,24.65277778,,,,,,FBP-OG-81.png,0.35,1.2,36,0.75,,,,,,,,,,,,,,,,,,0,9,9,35,1,,,,,,,,,,,,,,,,,,,,,,,
,,,,,V3_003,21,Female,2024-10-13_15h00.44.064,jersey_experiment_5_v3,2023.2.2,Win32,60.24096386,,,,,,,,,,,,,,,,871.0885,872.6386,872.6386,873.2884,return,0.2105,,24.58333333,,,,,,FBP-OG-91.png,0.35,1.2,41,0.75,,,,,,,,,,,,,,,,,,0,10,10,40,1,,,,,,,,,,,,,,,,,,,,,,,
,,,,,V3_003,21,Female,2024-10-13_15h00.44.064,jersey_experiment_5_v3,2023.2.2,Win32,60.24096386,,,,,,,,,,,,,,,,873.2888,874.8387,874.8387,876.3718,return,0.1511,,61.52777778,,,,,,FBP-OG-81.png,0.4,1.2,38,0.75,,,,,,,,,,,,,,,,,,0,11,11,37,1,,,,,,,,,,,,,,,,,,,,,,,
,,,,,V3_003,21,Female,2024-10-13_15h00.44.064,jersey_experiment_5_v3,2023.2.2,Win32,60.24096386,,,,,,,,,,,,,,,,876.3721,877.6717,877.6717,878.5553,return,0.1238,,69.16666667,,,,,,FBP-RB-71.png,0.43,1.2,49,0.5,,,,,,,,,,,,,,,,,,0,12,12,48,1,,,,,,,,,,,,,,,,,,,,,,,
,,,,,V3_003,21,Female,2024-10-13_15h00.44.064,jersey_experiment_5_v3,2023.2.2,Win32,60.24096386,,,,,,,,,,,,,,,,878.5556,879.8552,879.8553,880.8053,return,0.0667,,54.79166667,,,,,,FBP-PT-91.png,0.37,1.2,27,0.5,,,,,,,,,,,,,,,,,,0,13,13,26,1,,,,,,,,,,,,,,,,,,,,,,,
,,,,,V3_003,21,Female,2024-10-13_15h00.44.064,jersey_experiment_5_v3,2023.2.2,Win32,60.24096386,,,,,,,,,,,,,,,,880.8057,882.1057,882.1057,883.1719,return,0.1185,,33.19444444,,,,,,FBP-PT-81.png,0.35,1.2,21,0.5,,,,,,,,,,,,,,,,,,0,14,14,20,1,,,,,,,,,,,,,,,,,,,,,,,
,,,,,V3_003,21,Female,2024-10-13_15h00.44.064,jersey_experiment_5_v3,2023.2.2,Win32,60.24096386,,,,,,,,,,,,,,,,883.1723,884.4716,884.4716,885.555,return,0.1003,,42.5,,,,,,FBP-YG-19.png,0.37,1.2,12,0.5,,,,,,,,,,,,,,,,,,0,15,15,11,1,,,,,,,,,,,,,,,,,,,,,,,
,,,,,V3_003,21,Female,2024-10-13_15h00.44.064,jersey_experiment_5_v3,2023.2.2,Win32,60.24096386,,,,,,,,,,,,,,,,885.5553,886.8553,886.8553,888.0219,return,0.2445,,57.77777778,,,,,,FBP-RB-81.png,0.37,1.2,52,0.5,,,,,,,,,,,,,,,,,,0,16,16,51,1,,,,,,,,,,,,,,,,,,,,,,,
,,,,,V3_003,21,Female,2024-10-13_15h00.44.064,jersey_experiment_5_v3,2023.2.2,Win32,60.24096386,,,,,,,,,,,,,,,,888.0222,889.572,889.5722,890.2053,return,0.1382,,62.22222222,,,,,,FBP-OG-91.png,0.4,1.2,43,0.75,,,,,,,,,,,,,,,,,,0,17,17,42,1,,,,,,,,,,,,,,,,,,,,,,,
,,,,,V3_003,21,Female,2024-10-13_15h00.44.064,jersey_experiment_5_v3,2023.2.2,Win32,60.24096386,,,,,,,,,,,,,,,,890.2057,891.755,891.7552,893.2882,return,0.3097,,33.88888889,,,,,,FBP-OG-81.png,0.37,1.2,37,0.75,,,,,,,,,,,,,,,,,,0,18,18,36,1,,,,,,,,,,,,,,,,,,,,,,,
,,,,,V3_003,21,Female,2024-10-13_15h00.44.064,jersey_experiment_5_v3,2023.2.2,Win32,60.24096386,,,,,,,,,,,,,,,,893.2884,894.5884,894.5885,895.7888,return,0.1719,,24.16666667,,,,,,FBP-YG-19.png,0.35,1.2,11,0.5,,,,,,,,,,,,,,,,,,0,19,19,10,1,,,,,,,,,,,,,,,,,,,,,,,
,,,,,V3_003,21,Female,2024-10-13_15h00.44.064,jersey_experiment_5_v3,2023.2.2,Win32,60.24096386,,,,,,,,,,,,,,,,895.7894,897.0885,897.0886,898.1385,return,0.1919,,63.05555556,,,,,,FBP-YG-18.png,0.37,1.2,7,0.5,,,,,,,,,,,,,,,,,,0,20,20,6,1,,,,,,,,,,,,,,,,,,,,,,,
,,,,,V3_003,21,Female,2024-10-13_15h00.44.064,jersey_experiment_5_v3,2023.2.2,Win32,60.24096386,,,,,,,,,,,,,,,,898.139,899.4392,899.4393,900.639,return,0.036,,70.69444444,,,,,,FBP-PT-81.png,0.4,1.2,23,0.5,,,,,,,,,,,,,,,,,,0,21,21,22,1,,,,,,,,,,,,,,,,,,,,,,,
,,,,,V3_003,21,Female,2024-10-13_15h00.44.064,jersey_experiment_5_v3,2023.2.2,Win32,60.24096386,,,,,,,,,,,,,,,,900.6393,901.9386,901.9388,902.9219,return,0.1592,,74.79166667,,,,,,FBP-YG-17.png,0.4,1.2,3,0.5,,,,,,,,,,,,,,,,,,0,22,22,2,1,,,,,,,,,,,,,,,,,,,,,,,
,,,,,V3_003,21,Female,2024-10-13_15h00.44.064,jersey_experiment_5_v3,2023.2.2,Win32,60.24096386,,,,,,,,,,,,,,,,902.9222,904.2218,904.2218,907.3553,return,0.3741,,35.69444444,,,,,,FBP-PT-91.png,0.35,1.2,26,0.5,,,,,,,,,,,,,,,,,,0,23,23,25,1,,,,,,,,,,,,,,,,,,,,,,,
,,,,,V3_003,21,Female,2024-10-13_15h00.44.064,jersey_experiment_5_v3,2023.2.2,Win32,60.24096386,,,,,,,,,,,,,,,,907.3556,908.6553,908.6554,912.0887,return,0.1093,,70.97222222,,,,,,FBP-RB-91.png,0.45,1.2,60,0.5,,,,,,,,,,,,,,,,,,0,24,24,59,1,,,,,,,,,,,,,,,,,,,,,,,
,,,,,V3_003,21,Female,2024-10-13_15h00.44.064,jersey_experiment_5_v3,2023.2.2,Win32,60.24096386,,,,,,,,,,,,,,,,912.0893,913.3888,913.3888,914.2054,return,0.1211,,74.86111111,,,,,,FBP-PT-81.png,0.43,1.2,24,0.5,,,,,,,,,,,,,,,,,,0,25,25,23,1,,,,,,,,,,,,,,,,,,,,,,,
,,,,,V3_003,21,Female,2024-10-13_15h00.44.064,jersey_experiment_5_v3,2023.2.2,Win32,60.24096386,,,,,,,,,,,,,,,,914.2058,915.5059,915.5059,916.0889,return,0.0756,,74.79166667,,,,,,FBP-YG-17.png,0.45,1.2,5,0.5,,,,,,,,,,,,,,,,,,0,26,26,4,1,,,,,,,,,,,,,,,,,,,,,,,
,,,,,V3_003,21,Female,2024-10-13_15h00.44.064,jersey_experiment_5_v3,2023.2.2,Win32,60.24096386,,,,,,,,,,,,,,,,916.0893,917.3889,917.3891,918.272,return,0.3773,,74.79166667,,,,,,FBP-YG-18.png,0.43,1.2,9,0.5,,,,,,,,,,,,,,,,,,0,27,27,8,1,,,,,,,,,,,,,,,,,,,,,,,
,,,,,V3_003,21,Female,2024-10-13_15h00.44.064,jersey_experiment_5_v3,2023.2.2,Win32,60.24096386,,,,,,,,,,,,,,,,918.2724,919.5721,919.5721,920.6889,return,0.2345,,77.5,,,,,,FBP-PT-71.png,0.43,1.2,19,0.5,,,,,,,,,,,,,,,,,,0,28,28,18,1,,,,,,,,,,,,,,,,,,,,,,,
,,,,,V3_003,21,Female,2024-10-13_15h00.44.064,jersey_experiment_5_v3,2023.2.2,Win32,60.24096386,,,,,,,,,,,,,,,,920.6892,921.989,921.9891,922.6222,return,0.0892,,78.75,,,,,,FBP-PT-81.png,0.45,1.2,25,0.5,,,,,,,,,,,,,,,,,,0,29,29,24,1,,,,,,,,,,,,,,,,,,,,,,,
,,,,,V3_003,21,Female,2024-10-13_15h00.44.064,jersey_experiment_5_v3,2023.2.2,Win32,60.24096386,,,,,,,,,,,,,,,,922.6225,923.9221,923.9221,924.9052,return,0.1247,,78.75,,,,,,FBP-RB-71.png,0.45,1.2,50,0.5,,,,,,,,,,,,,,,,,,0,30,30,49,1,,,,,,,,,,,,,,,,,,,,,,,
,,,,,V3_003,21,Female,2024-10-13_15h00.44.064,jersey_experiment_5_v3,2023.2.2,Win32,60.24096386,,,,,,,,,,,,,,,,924.9055,926.2054,926.2055,927.9222,return,0.1677,,62.36111111,,,,,,FBP-RB-91.png,0.37,1.2,57,0.5,,,,,,,,,,,,,,,,,,0,31,31,56,1,,,,,,,,,,,,,,,,,,,,,,,
,,,,,V3_003,21,Female,2024-10-13_15h00.44.064,jersey_experiment_5_v3,2023.2.2,Win32,60.24096386,,,,,,,,,,,,,,,,927.9227,929.2222,929.2223,930.3891,return,0.1177,,24.72222222,,,,,,FBP-RB-81.png,0.35,1.2,51,0.5,,,,,,,,,,,,,,,,,,0,32,32,50,1,,,,,,,,,,,,,,,,,,,,,,,
,,,,,V3_003,21,Female,2024-10-13_15h00.44.064,jersey_experiment_5_v3,2023.2.2,Win32,60.24096386,,,,,,,,,,,,,,,,930.3898,931.6887,931.6888,933.5055,return,0.1318,,74.65277778,,,,,,FBP-PT-91.png,0.43,1.2,29,0.5,,,,,,,,,,,,,,,,,,0,33,33,28,1,,,,,,,,,,,,,,,,,,,,,,,
,,,,,V3_003,21,Female,2024-10-13_15h00.44.064,jersey_experiment_5_v3,2023.2.2,Win32,60.24096386,,,,,,,,,,,,,,,,933.506,934.8056,934.8056,936.2555,return,0.2847,,30.83333333,,,,,,FBP-RB-71.png,0.35,1.2,46,0.5,,,,,,,,,,,,,,,,,,0,34,34,45,1,,,,,,,,,,,,,,,,,,,,,,,
,,,,,V3_003,21,Female,2024-10-13_15h00.44.064,jersey_experiment_5_v3,2023.2.2,Win32,60.24096386,,,,,,,,,,,,,,,,936.2558,937.5555,937.5555,938.8388,return,0.0955,,68.05555556,,,,,,FBP-RB-81.png,0.43,1.2,54,0.5,,,,,,,,,,,,,,,,,,0,35,35,53,1,,,,,,,,,,,,,,,,,,,,,,,
,,,,,V3_003,21,Female,2024-10-13_15h00.44.064,jersey_experiment_5_v3,2023.2.2,Win32,60.24096386,,,,,,,,,,,,,,,,938.8392,940.1387,940.1387,941.4226,return,0.0884,,74.93055556,,,,,,FBP-YG-19.png,0.45,1.2,15,0.5,,,,,,,,,,,,,,,,,,0,36,36,14,1,,,,,,,,,,,,,,,,,,,,,,,
,,,,,V3_003,21,Female,2024-10-13_15h00.44.064,jersey_experiment_5_v3,2023.2.2,Win32,60.24096386,,,,,,,,,,,,,,,,941.423,942.9722,942.9723,944.1388,return,0.1064,,66.11111111,,,,,,FBP-OG-91.png,0.43,1.2,44,0.75,,,,,,,,,,,,,,,,,,0,37,37,43,1,,,,,,,,,,,,,,,,,,,,,,,
,,,,,V3_003,21,Female,2024-10-13_15h00.44.064,jersey_experiment_5_v3,2023.2.2,Win32,60.24096386,,,,,,,,,,,,,,,,944.1391,945.4389,945.439,946.8386,return,0.177,,24.51388889,,,,,,FBP-PT-71.png,0.35,1.2,16,0.5,,,,,,,,,,,,,,,,,,0,38,38,15,1,,,,,,,,,,,,,,,,,,,,,,,
,,,,,V3_003,21,Female,2024-10-13_15h00.44.064,jersey_experiment_5_v3,2023.2.2,Win32,60.24096386,,,,,,,,,,,,,,,,946.8389,948.3895,948.3895,949.5387,return,0.1326,,71.59722222,,,,,,FBP-OG-81.png,0.45,1.2,40,0.75,,,,,,,,,,,,,,,,,,0,39,39,39,1,,,,,,,,,,,,,,,,,,,,,,,
,,,,,V3_003,21,Female,2024-10-13_15h00.44.064,jersey_experiment_5_v3,2023.2.2,Win32,60.24096386,,,,,,,,,,,,,,,,949.539,950.8391,950.8391,951.8723,return,0.1347,,74.51388889,,,,,,FBP-RB-81.png,0.45,1.2,55,0.5,,,,,,,,,,,,,,,,,,0,40,40,54,1,,,,,,,,,,,,,,,,,,,,,,,
,,,,,V3_003,21,Female,2024-10-13_15h00.44.064,jersey_experiment_5_v3,2023.2.2,Win32,60.24096386,,,,,,,,,,,,,,,,951.8727,953.1721,953.1722,954.0557,return,0.0938,,75.13888889,,,,,,FBP-PT-91.png,0.45,1.2,30,0.5,,,,,,,,,,,,,,,,,,0,41,41,29,1,,,,,,,,,,,,,,,,,,,,,,,
,,,,,V3_003,21,Female,2024-10-13_15h00.44.064,jersey_experiment_5_v3,2023.2.2,Win32,60.24096386,,,,,,,,,,,,,,,,954.0561,955.3557,955.3557,956.6553,return,0.121,,30,,,,,,FBP-RB-91.png,0.35,1.2,56,0.5,,,,,,,,,,,,,,,,,,0,42,42,55,1,,,,,,,,,,,,,,,,,,,,,,,
,,,,,V3_003,21,Female,2024-10-13_15h00.44.064,jersey_experiment_5_v3,2023.2.2,Win32,60.24096386,,,,,,,,,,,,,,,,956.6556,958.2056,958.2056,959.1889,return,0.0825,,25.13888889,,,,,,FBP-OG-71.png,0.37,1.2,32,0.75,,,,,,,,,,,,,,,,,,0,43,43,31,1,,,,,,,,,,,,,,,,,,,,,,,
,,,,,V3_003,21,Female,2024-10-13_15h00.44.064,jersey_experiment_5_v3,2023.2.2,Win32,60.24096386,,,,,,,,,,,,,,,,959.1893,960.4888,960.4888,961.5725,return,0.0666,,25.06944444,,,,,,FBP-YG-17.png,0.35,1.2,1,0.5,,,,,,,,,,,,,,,,,,0,44,44,0,1,,,,,,,,,,,,,,,,,,,,,,,
,,,,,V3_003,21,Female,2024-10-13_15h00.44.064,jersey_experiment_5_v3,2023.2.2,Win32,60.24096386,,,,,,,,,,,,,,,,961.5729,962.8724,962.8724,964.0554,return,0.0596,,65.69444444,,,,,,FBP-RB-81.png,0.4,1.2,53,0.5,,,,,,,,,,,,,,,,,,0,45,45,52,1,,,,,,,,,,,,,,,,,,,,,,,
,,,,,V3_003,21,Female,2024-10-13_15h00.44.064,jersey_experiment_5_v3,2023.2.2,Win32,60.24096386,,,,,,,,,,,,,,,,964.0558,965.3555,965.3555,968.1894,return,0.0578,,60.90277778,,,,,,FBP-PT-71.png,0.37,1.2,17,0.5,,,,,,,,,,,,,,,,,,0,46,46,16,1,,,,,,,,,,,,,,,,,,,,,,,
,,,,,V3_003,21,Female,2024-10-13_15h00.44.064,jersey_experiment_5_v3,2023.2.2,Win32,60.24096386,,,,,,,,,,,,,,,,968.19,969.489,969.489,970.4055,return,0.0806,,72.84722222,,,,,,FBP-PT-71.png,0.45,1.2,20,0.5,,,,,,,,,,,,,,,,,,0,47,47,19,1,,,,,,,,,,,,,,,,,,,,,,,
,,,,,V3_003,21,Female,2024-10-13_15h00.44.064,jersey_experiment_5_v3,2023.2.2,Win32,60.24096386,,,,,,,,,,,,,,,,970.4057,971.9557,971.9558,973.2226,return,0.1284,,30.69444444,,,,,,FBP-OG-71.png,0.35,1.2,31,0.75,,,,,,,,,,,,,,,,,,0,48,48,30,1,,,,,,,,,,,,,,,,,,,,,,,
,,,,,V3_003,21,Female,2024-10-13_15h00.44.064,jersey_experiment_5_v3,2023.2.2,Win32,60.24096386,,,,,,,,,,,,,,,,973.223,974.5223,974.5224,975.2555,return,0.0761,,29.86111111,,,,,,FBP-YG-18.png,0.35,1.2,6,0.5,,,,,,,,,,,,,,,,,,0,49,49,5,1,,,,,,,,,,,,,,,,,,,,,,,
,,,,,V3_003,21,Female,2024-10-13_15h00.44.064,jersey_experiment_5_v3,2023.2.2,Win32,60.24096386,,,,,,,,,,,,,,,,975.2558,976.5557,976.5558,977.6557,return,0.0932,,69.30555556,,,,,,FBP-PT-91.png,0.4,1.2,28,0.5,,,,,,,,,,,,,,,,,,0,50,50,27,1,,,,,,,,,,,,,,,,,,,,,,,
,,,,,V3_003,21,Female,2024-10-13_15h00.44.064,jersey_experiment_5_v3,2023.2.2,Win32,60.24096386,,,,,,,,,,,,,,,,977.6562,979.2063,979.2064,979.8224,return,0.0034,,72.70833333,,,,,,FBP-OG-71.png,0.43,1.2,34,0.75,,,,,,,,,,,,,,,,,,0,51,51,33,1,,,,,,,,,,,,,,,,,,,,,,,
,,,,,V3_003,21,Female,2024-10-13_15h00.44.064,jersey_experiment_5_v3,2023.2.2,Win32,60.24096386,,,,,,,,,,,,,,,,979.8227,981.1227,981.1228,981.889,return,0.0838,,74.93055556,,,,,,FBP-YG-19.png,0.43,1.2,14,0.5,,,,,,,,,,,,,,,,,,0,52,52,13,1,,,,,,,,,,,,,,,,,,,,,,,
,,,,,V3_003,21,Female,2024-10-13_15h00.44.064,jersey_experiment_5_v3,2023.2.2,Win32,60.24096386,,,,,,,,,,,,,,,,981.8892,983.1897,983.1897,984.2394,return,0.0355,,33.40277778,,,,,,FBP-PT-81.png,0.37,1.2,22,0.5,,,,,,,,,,,,,,,,,,0,53,53,21,1,,,,,,,,,,,,,,,,,,,,,,,
,,,,,V3_003,21,Female,2024-10-13_15h00.44.064,jersey_experiment_5_v3,2023.2.2,Win32,60.24096386,,,,,,,,,,,,,,,,984.2398,985.5388,985.5388,986.7722,return,0.1156,,33.47222222,,,,,,FBP-RB-71.png,0.37,1.2,47,0.5,,,,,,,,,,,,,,,,,,0,54,54,46,1,,,,,,,,,,,,,,,,,,,,,,,
,,,,,V3_003,21,Female,2024-10-13_15h00.44.064,jersey_experiment_5_v3,2023.2.2,Win32,60.24096386,,,,,,,,,,,,,,,,986.7726,988.0724,988.0725,989.0893,return,0.1506,,69.79166667,,,,,,FBP-YG-19.png,0.4,1.2,13,0.5,,,,,,,,,,,,,,,,,,0,55,55,12,1,,,,,,,,,,,,,,,,,,,,,,,
,,,,,V3_003,21,Female,2024-10-13_15h00.44.064,jersey_experiment_5_v3,2023.2.2,Win32,60.24096386,,,,,,,,,,,,,,,,989.0896,990.3895,990.3895,991.2059,return,0.312,,69.44444444,,,,,,FBP-PT-71.png,0.4,1.2,18,0.5,,,,,,,,,,,,,,,,,,0,56,56,17,1,,,,,,,,,,,,,,,,,,,,,,,
,,,,,V3_003,21,Female,2024-10-13_15h00.44.064,jersey_experiment_5_v3,2023.2.2,Win32,60.24096386,,,,,,,,,,,,,,,,991.2063,992.7559,992.7559,993.4059,return,0.1045,,75.13888889,,,,,,FBP-OG-71.png,0.45,1.2,35,0.75,,,,,,,,,,,,,,,,,,0,57,57,34,1,,,,,,,,,,,,,,,,,,,,,,,
,,,,,V3_003,21,Female,2024-10-13_15h00.44.064,jersey_experiment_5_v3,2023.2.2,Win32,60.24096386,,,,,,,,,,,,,,,,993.4062,994.7063,994.7063,995.3893,return,0.1211,,74.51388889,,,,,,FBP-YG-18.png,0.4,1.2,8,0.5,,,,,,,,,,,,,,,,,,0,58,58,7,1,,,,,,,,,,,,,,,,,,,,,,,
,,,,,V3_003,21,Female,2024-10-13_15h00.44.064,jersey_experiment_5_v3,2023.2.2,Win32,60.24096386,,,,,,,,,,,,,,,,995.3897,996.9393,996.9395,997.9392,return,0.2155,,73.81944444,,,,,,FBP-OG-71.png,0.4,1.2,33,0.75,,,,,,,,,,,,,,,,,,0,59,59,32,1,,,,,,,,,,,,,,,,,,,,,,,
,,,,,V3_003,21,Female,2024-10-13_15h00.44.064,jersey_experiment_5_v3,2023.2.2,Win32,60.24096386,,,,,,,,,,,,,,,,,,,,,,,,,,,,,,,,,,,,,,,,,,,,,,,,,,,,,,,,997.94,1004.4068,return,6.4479,,,,,,,,,,,,,,,,,,,
,,,,,V3_003,21,Female,2024-10-13_15h00.44.064,jersey_experiment_5_v3,2023.2.2,Win32,60.24096386,,,,,,,,,,,,,,,,,,,,,,,,,,,,,,,,,,,,,,,,,,,,,,,,,,,,,,,,,,,,,1004.407,1009.6892,1,4.0482,return,1.2061,,,,,,,,,,,,
,,,,,V3_003,21,Female,2024-10-13_15h00.44.064,jersey_experiment_5_v3,2023.2.2,Win32,60.24096386,,,,,,,,,,,,,,,,,,,,,,,,,,,,,,,,,,,,,,,,,,,,,,,,,,,,,,,,,,,,,,,,,,,,1009.6894,1152.5536,"Whether your response to husky versus slender changes based on the images given to you previously or based on patters in the images presented. I do not think I recognized any specific patterns that I could explain, but could feel that there were patterns throughout the experiment",right,135.0193,,,,,,
,,,,,V3_003,21,Female,2024-10-13_15h00.44.064,jersey_experiment_5_v3,2023.2.2,Win32,60.24096386,,,,,,,,,,,,,,,,,,,,,,,,,,,,,,,,,,,,,,,,,,,,,,,,,,,,,,,,,,,,,,,,,,,,,,,,,,1152.5538,1170.5078,return,17.9409,