requirements.started,requirements.stopped,key_resp_3.keys,key_resp_3.rt,key_resp_3.duration,Subject ID,Age,Gender,date,expName,psychopyVersion,OS,frameRate,instructions1.started,instructions1.stopped,key_resp.keys,key_resp.rt,key_resp.duration,example.started,example.stopped,enter_2.keys,enter_2.rt,enter_2.duration,instructions2.started,instructions2.stopped,enter_3.keys,enter_3.rt,enter_3.duration,image.started,image.stopped,slider_2.started,slider_2.stopped,next.keys,next.rt,next.duration,slider.response,trial_block_1.thisRepN,trial_block_1.thisTrialN,trial_block_1.thisN,trial_block_1.thisIndex,trial_block_1.ran,Path,Width,Height,Index,Duration,trial_block_2.thisRepN,trial_block_2.thisTrialN,trial_block_2.thisN,trial_block_2.thisIndex,trial_block_2.ran,rest_break.started,rest_break.stopped,end_break.started,end_break.stopped,key_resp_5.keys,key_resp_5.rt,key_resp_5.duration,trial_block_3.thisRepN,trial_block_3.thisTrialN,trial_block_3.thisN,trial_block_3.thisIndex,trial_block_3.ran,trial_block_4.thisRepN,trial_block_4.thisTrialN,trial_block_4.thisN,trial_block_4.thisIndex,trial_block_4.ran,questions_intro.started,questions_intro.stopped,enter_12.keys,enter_12.rt,enter_12.duration,question2.started,question2.stopped,question_doingbest.response,question_doingbest.rt,enter_15.keys,enter_15.rt,enter_15.duration,pattern.started,pattern.stopped,pattern_2.text,enter_17.keys,enter_17.rt,enter_17.duration,thankyou.started,thankyou.stopped,enter_14.keys,enter_14.rt,enter_14.duration
0,7.987,return,7.9824,,V3_079,20,Female,2024-11-20_16h03.06.484,jersey_experiment_5_v3,2023.2.2,Win32,85.47008547,,,,,,,,,,,,,,,,,,,,,,,,,,,,,,,,,,,,,,,,,,,,,,,,,,,,,,,,,,,,,,,,,,,,,,,,,,,,,,
,,,,,V3_079,20,Female,2024-11-20_16h03.06.484,jersey_experiment_5_v3,2023.2.2,Win32,85.47008547,7.9871,21.8192,return,13.8204,,,,,,,,,,,,,,,,,,,,,,,,,,,,,,,,,,,,,,,,,,,,,,,,,,,,,,,,,,,,,,,,,,,,,,,,,,
,,,,,V3_079,20,Female,2024-11-20_16h03.06.484,jersey_experiment_5_v3,2023.2.2,Win32,85.47008547,,,,,,21.8193,25.9369,return,4.0819,,,,,,,,,,,,,,,,,,,,,,,,,,,,,,,,,,,,,,,,,,,,,,,,,,,,,,,,,,,,,,,,,,,,,
,,,,,V3_079,20,Female,2024-11-20_16h03.06.484,jersey_experiment_5_v3,2023.2.2,Win32,85.47008547,,,,,,,,,,,25.937,41.3493,return,15.3968,,,,,,,,,,,,,,,,,,,,,,,,,,,,,,,,,,,,,,,,,,,,,,,,,,,,,,,,,,,,,,,,
,,,,,V3_079,20,Female,2024-11-20_16h03.06.484,jersey_experiment_5_v3,2023.2.2,Win32,85.47008547,,,,,,,,,,,,,,,,41.3531,42.6551,42.6553,48.3731,return,2.8205,,74.73958333,0,0,0,34,1,FBP-OG-17.png,0.45,1.2,35,0.5,,,,,,,,,,,,,,,,,,,,,,,,,,,,,,,,,,,,,,,,,,,,,
,,,,,V3_079,20,Female,2024-11-20_16h03.06.484,jersey_experiment_5_v3,2023.2.2,Win32,85.47008547,,,,,,,,,,,,,,,,48.3736,49.6671,49.6671,53.2436,return,0.5692,,50,0,1,1,41,1,FBP-OG-19.png,0.37,1.2,42,0.5,,,,,,,,,,,,,,,,,,,,,,,,,,,,,,,,,,,,,,,,,,,,,
,,,,,V3_079,20,Female,2024-11-20_16h03.06.484,jersey_experiment_5_v3,2023.2.2,Win32,85.47008547,,,,,,,,,,,,,,,,53.2438,54.5377,54.5379,56.8319,return,0.2862,,87.890625,0,2,2,44,1,FBP-OG-19.png,0.45,1.2,45,0.5,,,,,,,,,,,,,,,,,,,,,,,,,,,,,,,,,,,,,,,,,,,,,
,,,,,V3_079,20,Female,2024-11-20_16h03.06.484,jersey_experiment_5_v3,2023.2.2,Win32,85.47008547,,,,,,,,,,,,,,,,56.8322,58.385,58.385,60.3498,return,0.4263,,25,0,3,3,45,1,FBP-RB-17.png,0.35,1.2,46,0.75,,,,,,,,,,,,,,,,,,,,,,,,,,,,,,,,,,,,,,,,,,,,,
,,,,,V3_079,20,Female,2024-11-20_16h03.06.484,jersey_experiment_5_v3,2023.2.2,Win32,85.47008547,,,,,,,,,,,,,,,,60.3501,61.9028,61.9029,63.3499,return,0.1649,,25.390625,0,4,4,1,1,FBP-YG-71.png,0.37,1.2,2,0.75,,,,,,,,,,,,,,,,,,,,,,,,,,,,,,,,,,,,,,,,,,,,,
,,,,,V3_079,20,Female,2024-11-20_16h03.06.484,jersey_experiment_5_v3,2023.2.2,Win32,85.47008547,,,,,,,,,,,,,,,,63.3503,64.9029,64.9031,67.1384,return,0.2605,,99.86979167,0,5,5,59,1,FBP-RB-19.png,0.45,1.2,60,0.75,,,,,,,,,,,,,,,,,,,,,,,,,,,,,,,,,,,,,,,,,,,,,
,,,,,V3_079,20,Female,2024-11-20_16h03.06.484,jersey_experiment_5_v3,2023.2.2,Win32,85.47008547,,,,,,,,,,,,,,,,67.1386,68.6911,68.6911,72.8208,return,0.14,,65.75520833,0,6,6,2,1,FBP-YG-71.png,0.4,1.2,3,0.75,,,,,,,,,,,,,,,,,,,,,,,,,,,,,,,,,,,,,,,,,,,,,
,,,,,V3_079,20,Female,2024-11-20_16h03.06.484,jersey_experiment_5_v3,2023.2.2,Win32,85.47008547,,,,,,,,,,,,,,,,72.821,74.3623,74.3623,75.7622,return,0.1568,,88.02083333,0,7,7,23,1,FBP-PT-18.png,0.43,1.2,24,0.75,,,,,,,,,,,,,,,,,,,,,,,,,,,,,,,,,,,,,,,,,,,,,
,,,,,V3_079,20,Female,2024-11-20_16h03.06.484,jersey_experiment_5_v3,2023.2.2,Win32,85.47008547,,,,,,,,,,,,,,,,75.7624,77.3152,77.3152,78.1621,return,0.142,,88.02083333,0,8,8,4,1,FBP-YG-71.png,0.45,1.2,5,0.75,,,,,,,,,,,,,,,,,,,,,,,,,,,,,,,,,,,,,,,,,,,,,
,,,,,V3_079,20,Female,2024-11-20_16h03.06.484,jersey_experiment_5_v3,2023.2.2,Win32,85.47008547,,,,,,,,,,,,,,,,78.1623,79.7152,79.7153,80.3976,return,0.1463,,88.02083333,0,9,9,53,1,FBP-RB-18.png,0.43,1.2,54,0.75,,,,,,,,,,,,,,,,,,,,,,,,,,,,,,,,,,,,,,,,,,,,,
,,,,,V3_079,20,Female,2024-11-20_16h03.06.484,jersey_experiment_5_v3,2023.2.2,Win32,85.47008547,,,,,,,,,,,,,,,,80.3979,81.9505,81.9507,84.9389,return,1.2915,,30.078125,0,10,10,51,1,FBP-RB-18.png,0.37,1.2,52,0.75,,,,,,,,,,,,,,,,,,,,,,,,,,,,,,,,,,,,,,,,,,,,,
,,,,,V3_079,20,Female,2024-11-20_16h03.06.484,jersey_experiment_5_v3,2023.2.2,Win32,85.47008547,,,,,,,,,,,,,,,,84.9391,86.492,86.4921,87.7743,return,0.2026,,17.31770833,0,11,11,20,1,FBP-PT-18.png,0.35,1.2,21,0.75,,,,,,,,,,,,,,,,,,,,,,,,,,,,,,,,,,,,,,,,,,,,,
,,,,,V3_079,20,Female,2024-11-20_16h03.06.484,jersey_experiment_5_v3,2023.2.2,Win32,85.47008547,,,,,,,,,,,,,,,,87.7745,89.0684,89.0684,89.8919,return,0.0005,,16.796875,0,12,12,35,1,FBP-OG-18.png,0.35,1.2,36,0.5,,,,,,,,,,,,,,,,,,,,,,,,,,,,,,,,,,,,,,,,,,,,,
,,,,,V3_079,20,Female,2024-11-20_16h03.06.484,jersey_experiment_5_v3,2023.2.2,Win32,85.47008547,,,,,,,,,,,,,,,,89.8922,91.4335,91.4336,93.7392,return,0.0756,,97.91666667,0,13,13,29,1,FBP-PT-19.png,0.45,1.2,30,0.75,,,,,,,,,,,,,,,,,,,,,,,,,,,,,,,,,,,,,,,,,,,,,
,,,,,V3_079,20,Female,2024-11-20_16h03.06.484,jersey_experiment_5_v3,2023.2.2,Win32,85.47008547,,,,,,,,,,,,,,,,93.7394,95.0334,95.0334,96.9276,return,0.522,,73.95833333,0,14,14,42,1,FBP-OG-19.png,0.4,1.2,43,0.5,,,,,,,,,,,,,,,,,,,,,,,,,,,,,,,,,,,,,,,,,,,,,
,,,,,V3_079,20,Female,2024-11-20_16h03.06.484,jersey_experiment_5_v3,2023.2.2,Win32,85.47008547,,,,,,,,,,,,,,,,96.9278,98.4806,98.4807,100.7513,return,0.0499,,38.80208333,0,15,15,55,1,FBP-RB-19.png,0.35,1.2,56,0.75,,,,,,,,,,,,,,,,,,,,,,,,,,,,,,,,,,,,,,,,,,,,,
,,,,,V3_079,20,Female,2024-11-20_16h03.06.484,jersey_experiment_5_v3,2023.2.2,Win32,85.47008547,,,,,,,,,,,,,,,,100.7515,102.3044,102.3045,103.7748,return,0.0522,,97.00520833,0,16,16,28,1,FBP-PT-19.png,0.43,1.2,29,0.75,,,,,,,,,,,,,,,,,,,,,,,,,,,,,,,,,,,,,,,,,,,,,
,,,,,V3_079,20,Female,2024-11-20_16h03.06.484,jersey_experiment_5_v3,2023.2.2,Win32,85.47008547,,,,,,,,,,,,,,,,103.7751,105.3279,105.3279,105.9514,return,0.1809,,98.69791667,0,17,17,48,1,FBP-RB-17.png,0.43,1.2,49,0.75,,,,,,,,,,,,,,,,,,,,,,,,,,,,,,,,,,,,,,,,,,,,,
,,,,,V3_079,20,Female,2024-11-20_16h03.06.484,jersey_experiment_5_v3,2023.2.2,Win32,85.47008547,,,,,,,,,,,,,,,,105.9517,107.5046,107.5047,109.1045,return,0.047,,49.609375,0,18,18,11,1,FBP-YG-91.png,0.37,1.2,12,0.75,,,,,,,,,,,,,,,,,,,,,,,,,,,,,,,,,,,,,,,,,,,,,
,,,,,V3_079,20,Female,2024-11-20_16h03.06.484,jersey_experiment_5_v3,2023.2.2,Win32,85.47008547,,,,,,,,,,,,,,,,109.1048,110.6575,110.6575,111.8457,return,0.0709,,44.27083333,0,19,19,26,1,FBP-PT-19.png,0.37,1.2,27,0.75,,,,,,,,,,,,,,,,,,,,,,,,,,,,,,,,,,,,,,,,,,,,,
,,,,,V3_079,20,Female,2024-11-20_16h03.06.484,jersey_experiment_5_v3,2023.2.2,Win32,85.47008547,,,,,,,,,,,,,,,,111.846,113.3989,113.3989,114.14,return,0.1374,,24.86979167,0,20,20,0,1,FBP-YG-71.png,0.35,1.2,1,0.75,,,,,,,,,,,,,,,,,,,,,,,,,,,,,,,,,,,,,,,,,,,,,
,,,,,V3_079,20,Female,2024-11-20_16h03.06.484,jersey_experiment_5_v3,2023.2.2,Win32,85.47008547,,,,,,,,,,,,,,,,114.1402,115.4342,115.4343,116.8341,return,0.0959,,98.95833333,0,21,21,38,1,FBP-OG-18.png,0.43,1.2,39,0.5,,,,,,,,,,,,,,,,,,,,,,,,,,,,,,,,,,,,,,,,,,,,,
,,,,,V3_079,20,Female,2024-11-20_16h03.06.484,jersey_experiment_5_v3,2023.2.2,Win32,85.47008547,,,,,,,,,,,,,,,,116.8343,118.3872,118.3872,119.9989,return,0.0718,,49.73958333,0,22,22,25,1,FBP-PT-19.png,0.35,1.2,26,0.75,,,,,,,,,,,,,,,,,,,,,,,,,,,,,,,,,,,,,,,,,,,,,
,,,,,V3_079,20,Female,2024-11-20_16h03.06.484,jersey_experiment_5_v3,2023.2.2,Win32,85.47008547,,,,,,,,,,,,,,,,119.9992,121.5521,121.5521,123.4226,return,0.2524,,99.47916667,0,23,23,54,1,FBP-RB-18.png,0.45,1.2,55,0.75,,,,,,,,,,,,,,,,,,,,,,,,,,,,,,,,,,,,,,,,,,,,,
,,,,,V3_079,20,Female,2024-11-20_16h03.06.484,jersey_experiment_5_v3,2023.2.2,Win32,85.47008547,,,,,,,,,,,,,,,,123.423,124.7169,124.717,125.8933,return,0.1884,,88.41145833,0,24,24,37,1,FBP-OG-18.png,0.4,1.2,38,0.5,,,,,,,,,,,,,,,,,,,,,,,,,,,,,,,,,,,,,,,,,,,,,
,,,,,V3_079,20,Female,2024-11-20_16h03.06.484,jersey_experiment_5_v3,2023.2.2,Win32,85.47008547,,,,,,,,,,,,,,,,125.8937,127.4465,127.4465,128.4701,return,0.1168,,43.75,0,25,25,10,1,FBP-YG-91.png,0.35,1.2,11,0.75,,,,,,,,,,,,,,,,,,,,,,,,,,,,,,,,,,,,,,,,,,,,,
,,,,,V3_079,20,Female,2024-11-20_16h03.06.484,jersey_experiment_5_v3,2023.2.2,Win32,85.47008547,,,,,,,,,,,,,,,,128.4703,130.0229,130.0229,130.5171,return,0.0601,,47.39583333,0,26,26,46,1,FBP-RB-17.png,0.37,1.2,47,0.75,,,,,,,,,,,,,,,,,,,,,,,,,,,,,,,,,,,,,,,,,,,,,
,,,,,V3_079,20,Female,2024-11-20_16h03.06.484,jersey_experiment_5_v3,2023.2.2,Win32,85.47008547,,,,,,,,,,,,,,,,130.5172,131.8112,131.8112,133.6347,return,0.519,,65.88541667,0,27,27,31,1,FBP-OG-17.png,0.37,1.2,32,0.5,,,,,,,,,,,,,,,,,,,,,,,,,,,,,,,,,,,,,,,,,,,,,
,,,,,V3_079,20,Female,2024-11-20_16h03.06.484,jersey_experiment_5_v3,2023.2.2,Win32,85.47008547,,,,,,,,,,,,,,,,133.635,134.929,134.929,136.7408,return,0.8109,,35.80729167,0,28,28,30,1,FBP-OG-17.png,0.35,1.2,31,0.5,,,,,,,,,,,,,,,,,,,,,,,,,,,,,,,,,,,,,,,,,,,,,
,,,,,V3_079,20,Female,2024-11-20_16h03.06.484,jersey_experiment_5_v3,2023.2.2,Win32,85.47008547,,,,,,,,,,,,,,,,136.7412,138.0349,138.035,139.5056,return,0.156,,99.21875,0,29,29,33,1,FBP-OG-17.png,0.43,1.2,34,0.5,,,,,,,,,,,,,,,,,,,,,,,,,,,,,,,,,,,,,,,,,,,,,
,,,,,V3_079,20,Female,2024-11-20_16h03.06.484,jersey_experiment_5_v3,2023.2.2,Win32,85.47008547,,,,,,,,,,,,,,,,139.5058,141.0586,141.0586,142.7409,return,0.1177,,51.30208333,0,30,30,50,1,FBP-RB-18.png,0.35,1.2,51,0.75,,,,,,,,,,,,,,,,,,,,,,,,,,,,,,,,,,,,,,,,,,,,,
,,,,,V3_079,20,Female,2024-11-20_16h03.06.484,jersey_experiment_5_v3,2023.2.2,Win32,85.47008547,,,,,,,,,,,,,,,,142.7413,144.2941,144.2941,144.9764,return,0.0507,,74.47916667,0,31,31,17,1,FBP-PT-17.png,0.4,1.2,18,0.75,,,,,,,,,,,,,,,,,,,,,,,,,,,,,,,,,,,,,,,,,,,,,
,,,,,V3_079,20,Female,2024-11-20_16h03.06.484,jersey_experiment_5_v3,2023.2.2,Win32,85.47008547,,,,,,,,,,,,,,,,144.9767,146.2705,146.2706,149.7883,return,1.1723,,50.13020833,0,32,32,40,1,FBP-OG-19.png,0.35,1.2,41,0.5,,,,,,,,,,,,,,,,,,,,,,,,,,,,,,,,,,,,,,,,,,,,,
,,,,,V3_079,20,Female,2024-11-20_16h03.06.484,jersey_experiment_5_v3,2023.2.2,Win32,85.47008547,,,,,,,,,,,,,,,,149.7885,151.3412,151.3413,151.7295,return,0.1069,,50.13020833,0,33,33,6,1,FBP-YG-81.png,0.37,1.2,7,0.75,,,,,,,,,,,,,,,,,,,,,,,,,,,,,,,,,,,,,,,,,,,,,
,,,,,V3_079,20,Female,2024-11-20_16h03.06.484,jersey_experiment_5_v3,2023.2.2,Win32,85.47008547,,,,,,,,,,,,,,,,151.7298,153.2826,153.2827,154.3178,return,0.2179,,99.609375,0,34,34,49,1,FBP-RB-17.png,0.45,1.2,50,0.75,,,,,,,,,,,,,,,,,,,,,,,,,,,,,,,,,,,,,,,,,,,,,
,,,,,V3_079,20,Female,2024-11-20_16h03.06.484,jersey_experiment_5_v3,2023.2.2,Win32,85.47008547,,,,,,,,,,,,,,,,154.318,155.8709,155.871,156.8356,return,0.0568,,87.76041667,0,35,35,47,1,FBP-RB-17.png,0.4,1.2,48,0.75,,,,,,,,,,,,,,,,,,,,,,,,,,,,,,,,,,,,,,,,,,,,,
,,,,,V3_079,20,Female,2024-11-20_16h03.06.484,jersey_experiment_5_v3,2023.2.2,Win32,85.47008547,,,,,,,,,,,,,,,,156.8359,158.3887,158.3887,158.918,return,0.1191,,87.76041667,0,36,36,18,1,FBP-PT-17.png,0.43,1.2,19,0.75,,,,,,,,,,,,,,,,,,,,,,,,,,,,,,,,,,,,,,,,,,,,,
,,,,,V3_079,20,Female,2024-11-20_16h03.06.484,jersey_experiment_5_v3,2023.2.2,Win32,85.47008547,,,,,,,,,,,,,,,,158.9183,160.4712,160.4712,161.6122,return,0.055,,74.86979167,0,37,37,21,1,FBP-PT-18.png,0.37,1.2,22,0.75,,,,,,,,,,,,,,,,,,,,,,,,,,,,,,,,,,,,,,,,,,,,,
,,,,,V3_079,20,Female,2024-11-20_16h03.06.484,jersey_experiment_5_v3,2023.2.2,Win32,85.47008547,,,,,,,,,,,,,,,,161.6123,163.1538,163.1538,164.0124,return,0.0317,,69.40104167,0,38,38,56,1,FBP-RB-19.png,0.37,1.2,57,0.75,,,,,,,,,,,,,,,,,,,,,,,,,,,,,,,,,,,,,,,,,,,,,
,,,,,V3_079,20,Female,2024-11-20_16h03.06.484,jersey_experiment_5_v3,2023.2.2,Win32,85.47008547,,,,,,,,,,,,,,,,164.0126,165.5655,165.5656,166.3889,return,0.094,,99.73958333,0,39,39,9,1,FBP-YG-81.png,0.45,1.2,10,0.75,,,,,,,,,,,,,,,,,,,,,,,,,,,,,,,,,,,,,,,,,,,,,
,,,,,V3_079,20,Female,2024-11-20_16h03.06.484,jersey_experiment_5_v3,2023.2.2,Win32,85.47008547,,,,,,,,,,,,,,,,166.3892,167.9418,167.9419,168.4125,return,0.1251,,99.73958333,0,40,40,14,1,FBP-YG-91.png,0.45,1.2,15,0.75,,,,,,,,,,,,,,,,,,,,,,,,,,,,,,,,,,,,,,,,,,,,,
,,,,,V3_079,20,Female,2024-11-20_16h03.06.484,jersey_experiment_5_v3,2023.2.2,Win32,85.47008547,,,,,,,,,,,,,,,,168.4128,169.9655,169.9655,170.4479,return,0.1414,,99.73958333,0,41,41,19,1,FBP-PT-17.png,0.45,1.2,20,0.75,,,,,,,,,,,,,,,,,,,,,,,,,,,,,,,,,,,,,,,,,,,,,
,,,,,V3_079,20,Female,2024-11-20_16h03.06.484,jersey_experiment_5_v3,2023.2.2,Win32,85.47008547,,,,,,,,,,,,,,,,170.4482,172.0011,172.0011,173.6129,return,0.0414,,39.71354167,0,42,42,16,1,FBP-PT-17.png,0.37,1.2,17,0.75,,,,,,,,,,,,,,,,,,,,,,,,,,,,,,,,,,,,,,,,,,,,,
,,,,,V3_079,20,Female,2024-11-20_16h03.06.484,jersey_experiment_5_v3,2023.2.2,Win32,85.47008547,,,,,,,,,,,,,,,,173.6131,175.1658,175.1659,175.7657,return,0.1212,,48.56770833,0,43,43,22,1,FBP-PT-18.png,0.4,1.2,23,0.75,,,,,,,,,,,,,,,,,,,,,,,,,,,,,,,,,,,,,,,,,,,,,
,,,,,V3_079,20,Female,2024-11-20_16h03.06.484,jersey_experiment_5_v3,2023.2.2,Win32,85.47008547,,,,,,,,,,,,,,,,175.7658,177.3187,177.3188,177.9188,return,0.1101,,48.56770833,0,44,44,27,1,FBP-PT-19.png,0.4,1.2,28,0.75,,,,,,,,,,,,,,,,,,,,,,,,,,,,,,,,,,,,,,,,,,,,,
,,,,,V3_079,20,Female,2024-11-20_16h03.06.484,jersey_experiment_5_v3,2023.2.2,Win32,85.47008547,,,,,,,,,,,,,,,,177.919,179.4724,179.4724,180.3423,return,0.0473,,75,0,45,45,8,1,FBP-YG-81.png,0.43,1.2,9,0.75,,,,,,,,,,,,,,,,,,,,,,,,,,,,,,,,,,,,,,,,,,,,,
,,,,,V3_079,20,Female,2024-11-20_16h03.06.484,jersey_experiment_5_v3,2023.2.2,Win32,85.47008547,,,,,,,,,,,,,,,,180.3426,181.8953,181.8954,183.2014,return,0.0231,,80.20833333,0,46,46,13,1,FBP-YG-91.png,0.43,1.2,14,0.75,,,,,,,,,,,,,,,,,,,,,,,,,,,,,,,,,,,,,,,,,,,,,
,,,,,V3_079,20,Female,2024-11-20_16h03.06.484,jersey_experiment_5_v3,2023.2.2,Win32,85.47008547,,,,,,,,,,,,,,,,183.2016,184.7543,184.7543,185.3778,return,0.0258,,74.47916667,0,47,47,12,1,FBP-YG-91.png,0.4,1.2,13,0.75,,,,,,,,,,,,,,,,,,,,,,,,,,,,,,,,,,,,,,,,,,,,,
,,,,,V3_079,20,Female,2024-11-20_16h03.06.484,jersey_experiment_5_v3,2023.2.2,Win32,85.47008547,,,,,,,,,,,,,,,,185.378,186.9309,186.9309,187.5545,return,0.0135,,87.23958333,0,48,48,3,1,FBP-YG-71.png,0.43,1.2,4,0.75,,,,,,,,,,,,,,,,,,,,,,,,,,,,,,,,,,,,,,,,,,,,,
,,,,,V3_079,20,Female,2024-11-20_16h03.06.484,jersey_experiment_5_v3,2023.2.2,Win32,85.47008547,,,,,,,,,,,,,,,,187.5548,189.1075,189.1076,189.5311,return,0.008,,75,0,49,49,57,1,FBP-RB-19.png,0.4,1.2,58,0.75,,,,,,,,,,,,,,,,,,,,,,,,,,,,,,,,,,,,,,,,,,,,,
,,,,,V3_079,20,Female,2024-11-20_16h03.06.484,jersey_experiment_5_v3,2023.2.2,Win32,85.47008547,,,,,,,,,,,,,,,,189.5313,190.825,190.8251,193.3781,return,0.0018,,49.86979167,0,50,50,36,1,FBP-OG-18.png,0.37,1.2,37,0.5,,,,,,,,,,,,,,,,,,,,,,,,,,,,,,,,,,,,,,,,,,,,,
,,,,,V3_079,20,Female,2024-11-20_16h03.06.484,jersey_experiment_5_v3,2023.2.2,Win32,85.47008547,,,,,,,,,,,,,,,,193.3785,194.9312,194.9313,195.8606,return,0.0364,,90.234375,0,51,51,58,1,FBP-RB-19.png,0.43,1.2,59,0.75,,,,,,,,,,,,,,,,,,,,,,,,,,,,,,,,,,,,,,,,,,,,,
,,,,,V3_079,20,Female,2024-11-20_16h03.06.484,jersey_experiment_5_v3,2023.2.2,Win32,85.47008547,,,,,,,,,,,,,,,,195.8608,197.1546,197.1547,198.2607,return,0.1168,,98.828125,0,52,52,39,1,FBP-OG-18.png,0.45,1.2,40,0.5,,,,,,,,,,,,,,,,,,,,,,,,,,,,,,,,,,,,,,,,,,,,,
,,,,,V3_079,20,Female,2024-11-20_16h03.06.484,jersey_experiment_5_v3,2023.2.2,Win32,85.47008547,,,,,,,,,,,,,,,,198.2609,199.5547,199.5548,200.2843,return,0.0432,,89.453125,0,53,53,43,1,FBP-OG-19.png,0.43,1.2,44,0.5,,,,,,,,,,,,,,,,,,,,,,,,,,,,,,,,,,,,,,,,,,,,,
,,,,,V3_079,20,Female,2024-11-20_16h03.06.484,jersey_experiment_5_v3,2023.2.2,Win32,85.47008547,,,,,,,,,,,,,,,,200.2846,201.5785,201.5785,202.8607,return,0.0155,,75,0,54,54,32,1,FBP-OG-17.png,0.4,1.2,33,0.5,,,,,,,,,,,,,,,,,,,,,,,,,,,,,,,,,,,,,,,,,,,,,
,,,,,V3_079,20,Female,2024-11-20_16h03.06.484,jersey_experiment_5_v3,2023.2.2,Win32,85.47008547,,,,,,,,,,,,,,,,202.8609,204.4022,204.4022,206.1785,return,0.6919,,75,0,55,55,7,1,FBP-YG-81.png,0.4,1.2,8,0.75,,,,,,,,,,,,,,,,,,,,,,,,,,,,,,,,,,,,,,,,,,,,,
,,,,,V3_079,20,Female,2024-11-20_16h03.06.484,jersey_experiment_5_v3,2023.2.2,Win32,85.47008547,,,,,,,,,,,,,,,,206.1787,207.7201,207.7202,208.7316,return,0.2084,,99.47916667,0,56,56,24,1,FBP-PT-18.png,0.45,1.2,25,0.75,,,,,,,,,,,,,,,,,,,,,,,,,,,,,,,,,,,,,,,,,,,,,
,,,,,V3_079,20,Female,2024-11-20_16h03.06.484,jersey_experiment_5_v3,2023.2.2,Win32,85.47008547,,,,,,,,,,,,,,,,208.7318,210.2846,210.2846,211.3434,return,0.1235,,75.390625,0,57,57,52,1,FBP-RB-18.png,0.4,1.2,53,0.75,,,,,,,,,,,,,,,,,,,,,,,,,,,,,,,,,,,,,,,,,,,,,
,,,,,V3_079,20,Female,2024-11-20_16h03.06.484,jersey_experiment_5_v3,2023.2.2,Win32,85.47008547,,,,,,,,,,,,,,,,211.3436,212.8966,212.8967,214.4025,return,0.1089,,27.86458333,0,58,58,5,1,FBP-YG-81.png,0.35,1.2,6,0.75,,,,,,,,,,,,,,,,,,,,,,,,,,,,,,,,,,,,,,,,,,,,,
,,,,,V3_079,20,Female,2024-11-20_16h03.06.484,jersey_experiment_5_v3,2023.2.2,Win32,85.47008547,,,,,,,,,,,,,,,,214.4027,215.9554,215.9554,216.8201,return,0.0945,,21.09375,0,59,59,15,1,FBP-PT-17.png,0.35,1.2,16,0.75,,,,,,,,,,,,,,,,,,,,,,,,,,,,,,,,,,,,,,,,,,,,,
,,,,,V3_079,20,Female,2024-11-20_16h03.06.484,jersey_experiment_5_v3,2023.2.2,Win32,85.47008547,,,,,,,,,,,,,,,,216.8217,218.3708,218.3708,219.5004,return,0.2483,,49.73958333,,,,,,FBP-PT-91.png,0.4,1.2,28,0.75,0,0,0,27,1,,,,,,,,,,,,,,,,,,,,,,,,,,,,,,,,,,,,,,,,
,,,,,V3_079,20,Female,2024-11-20_16h03.06.484,jersey_experiment_5_v3,2023.2.2,Win32,85.47008547,,,,,,,,,,,,,,,,219.5007,221.0555,221.0555,223.1499,return,0.0856,,33.984375,,,,,,FBP-YG-18.png,0.37,1.2,7,0.75,0,1,1,6,1,,,,,,,,,,,,,,,,,,,,,,,,,,,,,,,,,,,,,,,,
,,,,,V3_079,20,Female,2024-11-20_16h03.06.484,jersey_experiment_5_v3,2023.2.2,Win32,85.47008547,,,,,,,,,,,,,,,,223.1501,224.703,224.703,225.5323,return,0.0777,,74.609375,,,,,,FBP-RB-91.png,0.43,1.2,59,0.75,0,2,2,58,1,,,,,,,,,,,,,,,,,,,,,,,,,,,,,,,,,,,,,,,,
,,,,,V3_079,20,Female,2024-11-20_16h03.06.484,jersey_experiment_5_v3,2023.2.2,Win32,85.47008547,,,,,,,,,,,,,,,,225.5326,227.0796,227.0797,228.0146,return,0.062,,30.078125,,,,,,FBP-RB-71.png,0.35,1.2,46,0.75,0,3,3,45,1,,,,,,,,,,,,,,,,,,,,,,,,,,,,,,,,,,,,,,,,
,,,,,V3_079,20,Female,2024-11-20_16h03.06.484,jersey_experiment_5_v3,2023.2.2,Win32,85.47008547,,,,,,,,,,,,,,,,228.0149,229.5589,229.5589,230.5387,return,0.1327,,98.828125,,,,,,FBP-RB-71.png,0.45,1.2,50,0.75,0,4,4,49,1,,,,,,,,,,,,,,,,,,,,,,,,,,,,,,,,,,,,,,,,
,,,,,V3_079,20,Female,2024-11-20_16h03.06.484,jersey_experiment_5_v3,2023.2.2,Win32,85.47008547,,,,,,,,,,,,,,,,230.5388,232.0855,232.0855,233.1831,return,0.683,,97.00520833,,,,,,FBP-RB-81.png,0.45,1.2,55,0.75,0,5,5,54,1,,,,,,,,,,,,,,,,,,,,,,,,,,,,,,,,,,,,,,,,
,,,,,V3_079,20,Female,2024-11-20_16h03.06.484,jersey_experiment_5_v3,2023.2.2,Win32,85.47008547,,,,,,,,,,,,,,,,233.1832,234.7357,234.7358,236.4894,return,0.1156,,41.015625,,,,,,FBP-RB-81.png,0.35,1.2,51,0.75,0,6,6,50,1,,,,,,,,,,,,,,,,,,,,,,,,,,,,,,,,,,,,,,,,
,,,,,V3_079,20,Female,2024-11-20_16h03.06.484,jersey_experiment_5_v3,2023.2.2,Win32,85.47008547,,,,,,,,,,,,,,,,236.4895,238.0448,238.0448,239.4419,return,0.6918,,93.88020833,,,,,,FBP-YG-17.png,0.45,1.2,5,0.75,0,7,7,4,1,,,,,,,,,,,,,,,,,,,,,,,,,,,,,,,,,,,,,,,,
,,,,,V3_079,20,Female,2024-11-20_16h03.06.484,jersey_experiment_5_v3,2023.2.2,Win32,85.47008547,,,,,,,,,,,,,,,,239.442,240.7445,240.7446,242.0426,return,0.1156,,30.078125,,,,,,FBP-OG-81.png,0.35,1.2,36,0.5,0,8,8,35,1,,,,,,,,,,,,,,,,,,,,,,,,,,,,,,,,,,,,,,,,
,,,,,V3_079,20,Female,2024-11-20_16h03.06.484,jersey_experiment_5_v3,2023.2.2,Win32,85.47008547,,,,,,,,,,,,,,,,242.0428,243.339,243.339,244.5949,return,0.0707,,99.73958333,,,,,,FBP-OG-81.png,0.43,1.2,39,0.5,0,9,9,38,1,,,,,,,,,,,,,,,,,,,,,,,,,,,,,,,,,,,,,,,,
,,,,,V3_079,20,Female,2024-11-20_16h03.06.484,jersey_experiment_5_v3,2023.2.2,Win32,85.47008547,,,,,,,,,,,,,,,,244.595,246.1481,246.1481,247.0805,return,0.1798,,94.66145833,,,,,,FBP-PT-81.png,0.45,1.2,25,0.75,0,10,10,24,1,,,,,,,,,,,,,,,,,,,,,,,,,,,,,,,,,,,,,,,,
,,,,,V3_079,20,Female,2024-11-20_16h03.06.484,jersey_experiment_5_v3,2023.2.2,Win32,85.47008547,,,,,,,,,,,,,,,,247.0807,248.631,248.631,250.1717,return,0.612,,20.83333333,,,,,,FBP-YG-18.png,0.35,1.2,6,0.75,0,11,11,5,1,,,,,,,,,,,,,,,,,,,,,,,,,,,,,,,,,,,,,,,,
,,,,,V3_079,20,Female,2024-11-20_16h03.06.484,jersey_experiment_5_v3,2023.2.2,Win32,85.47008547,,,,,,,,,,,,,,,,250.1719,251.4657,251.4657,252.9099,return,0.0879,,69.79166667,,,,,,FBP-OG-71.png,0.43,1.2,34,0.5,0,12,12,33,1,,,,,,,,,,,,,,,,,,,,,,,,,,,,,,,,,,,,,,,,
,,,,,V3_079,20,Female,2024-11-20_16h03.06.484,jersey_experiment_5_v3,2023.2.2,Win32,85.47008547,,,,,,,,,,,,,,,,252.9101,254.4543,254.4544,255.2627,return,0.1314,,91.66666667,,,,,,FBP-YG-18.png,0.43,1.2,9,0.75,0,13,13,8,1,,,,,,,,,,,,,,,,,,,,,,,,,,,,,,,,,,,,,,,,
,,,,,V3_079,20,Female,2024-11-20_16h03.06.484,jersey_experiment_5_v3,2023.2.2,Win32,85.47008547,,,,,,,,,,,,,,,,255.2629,256.807,256.8071,258.2896,return,0.0325,,75.52083333,,,,,,FBP-PT-71.png,0.4,1.2,18,0.75,0,14,14,17,1,,,,,,,,,,,,,,,,,,,,,,,,,,,,,,,,,,,,,,,,
,,,,,V3_079,20,Female,2024-11-20_16h03.06.484,jersey_experiment_5_v3,2023.2.2,Win32,85.47008547,,,,,,,,,,,,,,,,258.2898,259.8342,259.8342,260.2104,return,0.072,,75.390625,,,,,,FBP-PT-81.png,0.4,1.2,23,0.75,0,15,15,22,1,,,,,,,,,,,,,,,,,,,,,,,,,,,,,,,,,,,,,,,,
,,,,,V3_079,20,Female,2024-11-20_16h03.06.484,jersey_experiment_5_v3,2023.2.2,Win32,85.47008547,,,,,,,,,,,,,,,,260.2105,261.7571,261.7571,262.2395,return,0.0719,,75.390625,,,,,,FBP-YG-17.png,0.4,1.2,3,0.75,0,16,16,2,1,,,,,,,,,,,,,,,,,,,,,,,,,,,,,,,,,,,,,,,,
,,,,,V3_079,20,Female,2024-11-20_16h03.06.484,jersey_experiment_5_v3,2023.2.2,Win32,85.47008547,,,,,,,,,,,,,,,,262.2397,263.7844,263.7845,264.69,return,0.0475,,32.03125,,,,,,FBP-YG-19.png,0.37,1.2,12,0.75,0,17,17,11,1,,,,,,,,,,,,,,,,,,,,,,,,,,,,,,,,,,,,,,,,
,,,,,V3_079,20,Female,2024-11-20_16h03.06.484,jersey_experiment_5_v3,2023.2.2,Win32,85.47008547,,,,,,,,,,,,,,,,264.6902,265.9987,265.9987,266.5251,return,0.0099,,33.07291667,,,,,,FBP-OG-91.png,0.4,1.2,43,0.5,0,18,18,42,1,,,,,,,,,,,,,,,,,,,,,,,,,,,,,,,,,,,,,,,,
,,,,,V3_079,20,Female,2024-11-20_16h03.06.484,jersey_experiment_5_v3,2023.2.2,Win32,85.47008547,,,,,,,,,,,,,,,,266.5252,268.067,268.067,268.5141,return,0.0359,,14.32291667,,,,,,FBP-RB-91.png,0.37,1.2,57,0.75,0,19,19,56,1,,,,,,,,,,,,,,,,,,,,,,,,,,,,,,,,,,,,,,,,
,,,,,V3_079,20,Female,2024-11-20_16h03.06.484,jersey_experiment_5_v3,2023.2.2,Win32,85.47008547,,,,,,,,,,,,,,,,268.5143,270.0671,270.0671,270.5254,return,0.0708,,14.58333333,,,,,,FBP-PT-71.png,0.37,1.2,17,0.75,0,20,20,16,1,,,,,,,,,,,,,,,,,,,,,,,,,,,,,,,,,,,,,,,,
,,,,,V3_079,20,Female,2024-11-20_16h03.06.484,jersey_experiment_5_v3,2023.2.2,Win32,85.47008547,,,,,,,,,,,,,,,,270.5255,272.0696,272.0696,272.5721,return,0.1522,,14.453125,,,,,,FBP-PT-81.png,0.37,1.2,22,0.75,0,21,21,21,1,,,,,,,,,,,,,,,,,,,,,,,,,,,,,,,,,,,,,,,,
,,,,,V3_079,20,Female,2024-11-20_16h03.06.484,jersey_experiment_5_v3,2023.2.2,Win32,85.47008547,,,,,,,,,,,,,,,,272.5723,273.8663,273.8664,274.4914,return,0.0926,,14.453125,,,,,,FBP-OG-81.png,0.37,1.2,37,0.5,0,22,22,36,1,,,,,,,,,,,,,,,,,,,,,,,,,,,,,,,,,,,,,,,,
,,,,,V3_079,20,Female,2024-11-20_16h03.06.484,jersey_experiment_5_v3,2023.2.2,Win32,85.47008547,,,,,,,,,,,,,,,,274.4916,276.0438,276.0439,277.3577,return,0.0768,,85.80729167,,,,,,FBP-YG-19.png,0.43,1.2,14,0.75,0,23,23,13,1,,,,,,,,,,,,,,,,,,,,,,,,,,,,,,,,,,,,,,,,
,,,,,V3_079,20,Female,2024-11-20_16h03.06.484,jersey_experiment_5_v3,2023.2.2,Win32,85.47008547,,,,,,,,,,,,,,,,277.358,278.6553,278.6553,279.3378,return,0.1403,,90.88541667,,,,,,FBP-OG-91.png,0.43,1.2,44,0.5,0,24,24,43,1,,,,,,,,,,,,,,,,,,,,,,,,,,,,,,,,,,,,,,,,
,,,,,V3_079,20,Female,2024-11-20_16h03.06.484,jersey_experiment_5_v3,2023.2.2,Win32,85.47008547,,,,,,,,,,,,,,,,279.338,280.8916,280.8916,281.3963,return,0.1512,,91.015625,,,,,,FBP-RB-81.png,0.43,1.2,54,0.75,0,25,25,53,1,,,,,,,,,,,,,,,,,,,,,,,,,,,,,,,,,,,,,,,,
,,,,,V3_079,20,Female,2024-11-20_16h03.06.484,jersey_experiment_5_v3,2023.2.2,Win32,85.47008547,,,,,,,,,,,,,,,,281.3964,282.6903,282.6903,284.3525,return,0.0261,,29.16666667,,,,,,FBP-OG-71.png,0.37,1.2,32,0.5,0,26,26,31,1,,,,,,,,,,,,,,,,,,,,,,,,,,,,,,,,,,,,,,,,
,,,,,V3_079,20,Female,2024-11-20_16h03.06.484,jersey_experiment_5_v3,2023.2.2,Win32,85.47008547,,,,,,,,,,,,,,,,284.3526,285.8992,285.8992,287.1847,return,0.0707,,75.65104167,,,,,,FBP-YG-17.png,0.43,1.2,4,0.75,0,27,27,3,1,,,,,,,,,,,,,,,,,,,,,,,,,,,,,,,,,,,,,,,,
,,,,,V3_079,20,Female,2024-11-20_16h03.06.484,jersey_experiment_5_v3,2023.2.2,Win32,85.47008547,,,,,,,,,,,,,,,,287.1848,288.4792,288.4792,289.3621,return,0.107,,17.31770833,,,,,,FBP-OG-91.png,0.35,1.2,41,0.5,0,28,28,40,1,,,,,,,,,,,,,,,,,,,,,,,,,,,,,,,,,,,,,,,,
,,,,,V3_079,20,Female,2024-11-20_16h03.06.484,jersey_experiment_5_v3,2023.2.2,Win32,85.47008547,,,,,,,,,,,,,,,,289.3623,290.9148,290.915,292.6362,return,0.0719,,73.95833333,,,,,,FBP-YG-19.png,0.4,1.2,13,0.75,0,29,29,12,1,,,,,,,,,,,,,,,,,,,,,,,,,,,,,,,,,,,,,,,,
,,,,,V3_079,20,Female,2024-11-20_16h03.06.484,jersey_experiment_5_v3,2023.2.2,Win32,85.47008547,,,,,,,,,,,,,,,,292.6363,294.1865,294.1865,295.5231,return,0.0338,,31.38020833,,,,,,FBP-YG-19.png,0.35,1.2,11,0.75,0,30,30,10,1,,,,,,,,,,,,,,,,,,,,,,,,,,,,,,,,,,,,,,,,
,,,,,V3_079,20,Female,2024-11-20_16h03.06.484,jersey_experiment_5_v3,2023.2.2,Win32,85.47008547,,,,,,,,,,,,,,,,295.5233,297.0761,297.0762,298.4237,return,0.0969,,31.38020833,,,,,,FBP-PT-71.png,0.35,1.2,16,0.75,0,31,31,15,1,,,,,,,,,,,,,,,,,,,,,,,,,,,,,,,,,,,,,,,,
,,,,,V3_079,20,Female,2024-11-20_16h03.06.484,jersey_experiment_5_v3,2023.2.2,Win32,85.47008547,,,,,,,,,,,,,,,,298.4239,299.9742,299.9743,300.8174,return,0.0731,,16.53645833,,,,,,FBP-RB-91.png,0.35,1.2,56,0.75,0,32,32,55,1,,,,,,,,,,,,,,,,,,,,,,,,,,,,,,,,,,,,,,,,
,,,,,V3_079,20,Female,2024-11-20_16h03.06.484,jersey_experiment_5_v3,2023.2.2,Win32,85.47008547,,,,,,,,,,,,,,,,300.8177,302.3617,302.3618,303.1532,return,0.0623,,96.484375,,,,,,FBP-YG-18.png,0.45,1.2,10,0.75,0,33,33,9,1,,,,,,,,,,,,,,,,,,,,,,,,,,,,,,,,,,,,,,,,
,,,,,V3_079,20,Female,2024-11-20_16h03.06.484,jersey_experiment_5_v3,2023.2.2,Win32,85.47008547,,,,,,,,,,,,,,,,303.1533,304.7051,304.7052,305.9996,return,0.023,,40.10416667,,,,,,FBP-YG-17.png,0.37,1.2,2,0.75,0,34,34,1,1,,,,,,,,,,,,,,,,,,,,,,,,,,,,,,,,,,,,,,,,
,,,,,V3_079,20,Female,2024-11-20_16h03.06.484,jersey_experiment_5_v3,2023.2.2,Win32,85.47008547,,,,,,,,,,,,,,,,305.9998,307.5531,307.5531,308.7288,return,0.0698,,83.33333333,,,,,,FBP-YG-19.png,0.45,1.2,15,0.75,0,35,35,14,1,,,,,,,,,,,,,,,,,,,,,,,,,,,,,,,,,,,,,,,,
,,,,,V3_079,20,Female,2024-11-20_16h03.06.484,jersey_experiment_5_v3,2023.2.2,Win32,85.47008547,,,,,,,,,,,,,,,,308.729,310.0238,310.0238,310.9403,return,0.0607,,92.44791667,,,,,,FBP-OG-91.png,0.45,1.2,45,0.5,0,36,36,44,1,,,,,,,,,,,,,,,,,,,,,,,,,,,,,,,,,,,,,,,,
,,,,,V3_079,20,Female,2024-11-20_16h03.06.484,jersey_experiment_5_v3,2023.2.2,Win32,85.47008547,,,,,,,,,,,,,,,,310.9405,312.4884,312.4884,314.2208,return,0.0086,,91.66666667,,,,,,FBP-RB-91.png,0.4,1.2,58,0.75,0,37,37,57,1,,,,,,,,,,,,,,,,,,,,,,,,,,,,,,,,,,,,,,,,
,,,,,V3_079,20,Female,2024-11-20_16h03.06.484,jersey_experiment_5_v3,2023.2.2,Win32,85.47008547,,,,,,,,,,,,,,,,314.221,315.7657,315.7657,317.5155,return,0.5764,,91.27604167,,,,,,FBP-PT-71.png,0.43,1.2,19,0.75,0,38,38,18,1,,,,,,,,,,,,,,,,,,,,,,,,,,,,,,,,,,,,,,,,
,,,,,V3_079,20,Female,2024-11-20_16h03.06.484,jersey_experiment_5_v3,2023.2.2,Win32,85.47008547,,,,,,,,,,,,,,,,317.5157,319.0682,319.0682,319.6226,return,0.2014,,91.27604167,,,,,,FBP-RB-71.png,0.43,1.2,49,0.75,0,39,39,48,1,,,,,,,,,,,,,,,,,,,,,,,,,,,,,,,,,,,,,,,,
,,,,,V3_079,20,Female,2024-11-20_16h03.06.484,jersey_experiment_5_v3,2023.2.2,Win32,85.47008547,,,,,,,,,,,,,,,,319.6228,320.9184,320.9184,323.0535,return,0.932,,23.828125,,,,,,FBP-OG-71.png,0.35,1.2,31,0.5,0,40,40,30,1,,,,,,,,,,,,,,,,,,,,,,,,,,,,,,,,,,,,,,,,
,,,,,V3_079,20,Female,2024-11-20_16h03.06.484,jersey_experiment_5_v3,2023.2.2,Win32,85.47008547,,,,,,,,,,,,,,,,323.0538,324.3477,324.3478,324.9893,return,0.1798,,24.21875,,,,,,FBP-OG-81.png,0.4,1.2,38,0.5,0,41,41,37,1,,,,,,,,,,,,,,,,,,,,,,,,,,,,,,,,,,,,,,,,
,,,,,V3_079,20,Female,2024-11-20_16h03.06.484,jersey_experiment_5_v3,2023.2.2,Win32,85.47008547,,,,,,,,,,,,,,,,324.9895,326.5421,326.5422,327.5831,return,0.0722,,94.79166667,,,,,,FBP-RB-91.png,0.45,1.2,60,0.75,0,42,42,59,1,,,,,,,,,,,,,,,,,,,,,,,,,,,,,,,,,,,,,,,,
,,,,,V3_079,20,Female,2024-11-20_16h03.06.484,jersey_experiment_5_v3,2023.2.2,Win32,85.47008547,,,,,,,,,,,,,,,,327.5833,329.128,329.1281,330.2365,return,0.0386,,25.390625,,,,,,FBP-PT-81.png,0.35,1.2,21,0.75,0,43,43,20,1,,,,,,,,,,,,,,,,,,,,,,,,,,,,,,,,,,,,,,,,
,,,,,V3_079,20,Female,2024-11-20_16h03.06.484,jersey_experiment_5_v3,2023.2.2,Win32,85.47008547,,,,,,,,,,,,,,,,330.2366,331.7833,331.7834,333.3745,return,0.6825,,83.07291667,,,,,,FBP-PT-81.png,0.43,1.2,24,0.75,0,44,44,23,1,,,,,,,,,,,,,,,,,,,,,,,,,,,,,,,,,,,,,,,,
,,,,,V3_079,20,Female,2024-11-20_16h03.06.484,jersey_experiment_5_v3,2023.2.2,Win32,85.47008547,,,,,,,,,,,,,,,,333.3747,334.9179,334.9179,335.5631,return,0.2829,,86.45833333,,,,,,FBP-PT-91.png,0.45,1.2,30,0.75,0,45,45,29,1,,,,,,,,,,,,,,,,,,,,,,,,,,,,,,,,,,,,,,,,
,,,,,V3_079,20,Female,2024-11-20_16h03.06.484,jersey_experiment_5_v3,2023.2.2,Win32,85.47008547,,,,,,,,,,,,,,,,335.5633,337.1129,337.113,337.7403,return,0.1774,,87.63020833,,,,,,FBP-PT-91.png,0.43,1.2,29,0.75,0,46,46,28,1,,,,,,,,,,,,,,,,,,,,,,,,,,,,,,,,,,,,,,,,
,,,,,V3_079,20,Female,2024-11-20_16h03.06.484,jersey_experiment_5_v3,2023.2.2,Win32,85.47008547,,,,,,,,,,,,,,,,337.7404,339.0455,339.0456,339.8358,return,0.0481,,90.625,,,,,,FBP-OG-71.png,0.45,1.2,35,0.5,0,47,47,34,1,,,,,,,,,,,,,,,,,,,,,,,,,,,,,,,,,,,,,,,,
,,,,,V3_079,20,Female,2024-11-20_16h03.06.484,jersey_experiment_5_v3,2023.2.2,Win32,85.47008547,,,,,,,,,,,,,,,,339.8359,341.3837,341.3837,343.9954,return,0.5495,,33.46354167,,,,,,FBP-PT-91.png,0.37,1.2,27,0.75,0,48,48,26,1,,,,,,,,,,,,,,,,,,,,,,,,,,,,,,,,,,,,,,,,
,,,,,V3_079,20,Female,2024-11-20_16h03.06.484,jersey_experiment_5_v3,2023.2.2,Win32,85.47008547,,,,,,,,,,,,,,,,343.9956,345.2947,345.2947,346.5604,return,0.6154,,36.97916667,,,,,,FBP-OG-71.png,0.4,1.2,33,0.5,0,49,49,32,1,,,,,,,,,,,,,,,,,,,,,,,,,,,,,,,,,,,,,,,,
,,,,,V3_079,20,Female,2024-11-20_16h03.06.484,jersey_experiment_5_v3,2023.2.2,Win32,85.47008547,,,,,,,,,,,,,,,,346.5605,348.1133,348.1134,350.2372,return,0.3683,,37.36979167,,,,,,FBP-RB-71.png,0.4,1.2,48,0.75,0,50,50,47,1,,,,,,,,,,,,,,,,,,,,,,,,,,,,,,,,,,,,,,,,
,,,,,V3_079,20,Female,2024-11-20_16h03.06.484,jersey_experiment_5_v3,2023.2.2,Win32,85.47008547,,,,,,,,,,,,,,,,350.2374,351.7878,351.7878,352.2463,return,0.1293,,38.80208333,,,,,,FBP-RB-81.png,0.4,1.2,53,0.75,0,51,51,52,1,,,,,,,,,,,,,,,,,,,,,,,,,,,,,,,,,,,,,,,,
,,,,,V3_079,20,Female,2024-11-20_16h03.06.484,jersey_experiment_5_v3,2023.2.2,Win32,85.47008547,,,,,,,,,,,,,,,,352.2464,353.7894,353.7895,355.0547,return,0.0634,,90.88541667,,,,,,FBP-PT-71.png,0.45,1.2,20,0.75,0,52,52,19,1,,,,,,,,,,,,,,,,,,,,,,,,,,,,,,,,,,,,,,,,
,,,,,V3_079,20,Female,2024-11-20_16h03.06.484,jersey_experiment_5_v3,2023.2.2,Win32,85.47008547,,,,,,,,,,,,,,,,355.0549,356.5991,356.5991,358.0665,return,0.0251,,41.14583333,,,,,,FBP-RB-81.png,0.37,1.2,52,0.75,0,53,53,51,1,,,,,,,,,,,,,,,,,,,,,,,,,,,,,,,,,,,,,,,,
,,,,,V3_079,20,Female,2024-11-20_16h03.06.484,jersey_experiment_5_v3,2023.2.2,Win32,85.47008547,,,,,,,,,,,,,,,,358.0667,359.6257,359.6257,360.2934,return,0.1178,,20.44270833,,,,,,FBP-YG-17.png,0.35,1.2,1,0.75,0,54,54,0,1,,,,,,,,,,,,,,,,,,,,,,,,,,,,,,,,,,,,,,,,
,,,,,V3_079,20,Female,2024-11-20_16h03.06.484,jersey_experiment_5_v3,2023.2.2,Win32,85.47008547,,,,,,,,,,,,,,,,360.2936,361.5875,361.5875,362.8956,return,0.1081,,87.109375,,,,,,FBP-OG-81.png,0.45,1.2,40,0.5,0,55,55,39,1,,,,,,,,,,,,,,,,,,,,,,,,,,,,,,,,,,,,,,,,
,,,,,V3_079,20,Female,2024-11-20_16h03.06.484,jersey_experiment_5_v3,2023.2.2,Win32,85.47008547,,,,,,,,,,,,,,,,362.8958,364.4433,364.4433,365.455,return,0.1807,,76.69270833,,,,,,FBP-RB-71.png,0.37,1.2,47,0.75,0,56,56,46,1,,,,,,,,,,,,,,,,,,,,,,,,,,,,,,,,,,,,,,,,
,,,,,V3_079,20,Female,2024-11-20_16h03.06.484,jersey_experiment_5_v3,2023.2.2,Win32,85.47008547,,,,,,,,,,,,,,,,365.4553,367.0117,367.0117,368.1291,return,0.1762,,76.171875,,,,,,FBP-YG-18.png,0.4,1.2,8,0.75,0,57,57,7,1,,,,,,,,,,,,,,,,,,,,,,,,,,,,,,,,,,,,,,,,
,,,,,V3_079,20,Female,2024-11-20_16h03.06.484,jersey_experiment_5_v3,2023.2.2,Win32,85.47008547,,,,,,,,,,,,,,,,368.1292,369.6733,369.6734,370.9759,return,0.0817,,25.65104167,,,,,,FBP-PT-91.png,0.35,1.2,26,0.75,0,58,58,25,1,,,,,,,,,,,,,,,,,,,,,,,,,,,,,,,,,,,,,,,,
,,,,,V3_079,20,Female,2024-11-20_16h03.06.484,jersey_experiment_5_v3,2023.2.2,Win32,85.47008547,,,,,,,,,,,,,,,,370.9761,372.27,372.27,372.7558,return,0.1412,,25.65104167,,,,,,FBP-OG-91.png,0.37,1.2,42,0.5,0,59,59,41,1,,,,,,,,,,,,,,,,,,,,,,,,,,,,,,,,,,,,,,,,
,,,,,V3_079,20,Female,2024-11-20_16h03.06.484,jersey_experiment_5_v3,2023.2.2,Win32,85.47008547,,,,,,,,,,,,,,,,,,,,,,,,,,,,,,,,,,,,,,,372.756,492.7591,,,,,,,,,,,,,,,,,,,,,,,,,,,,,,,,,,,,,,
,,,,,V3_079,20,Female,2024-11-20_16h03.06.484,jersey_experiment_5_v3,2023.2.2,Win32,85.47008547,,,,,,,,,,,,,,,,,,,,,,,,,,,,,,,,,,,,,,,,,492.7592,495.3016,return,2.5327,,,,,,,,,,,,,,,,,,,,,,,,,,,,,,,,,,
,,,,,V3_079,20,Female,2024-11-20_16h03.06.484,jersey_experiment_5_v3,2023.2.2,Win32,85.47008547,,,,,,,,,,,,,,,,495.3028,496.6043,496.6043,498.1307,return,0.3689,,94.53125,,,,,,FBP-RB-17.png,0.43,1.2,49,0.5,,,,,,,,,,,,,0,0,0,48,1,,,,,,,,,,,,,,,,,,,,,,,,,,,,
,,,,,V3_079,20,Female,2024-11-20_16h03.06.484,jersey_experiment_5_v3,2023.2.2,Win32,85.47008547,,,,,,,,,,,,,,,,498.131,499.4278,499.4278,500.7073,return,0.2458,,75.91145833,,,,,,FBP-RB-19.png,0.4,1.2,58,0.5,,,,,,,,,,,,,0,1,1,57,1,,,,,,,,,,,,,,,,,,,,,,,,,,,,
,,,,,V3_079,20,Female,2024-11-20_16h03.06.484,jersey_experiment_5_v3,2023.2.2,Win32,85.47008547,,,,,,,,,,,,,,,,500.7075,502.0051,502.0051,503.8193,return,0.1087,,72.65625,,,,,,FBP-PT-18.png,0.37,1.2,22,0.5,,,,,,,,,,,,,0,2,2,21,1,,,,,,,,,,,,,,,,,,,,,,,,,,,,
,,,,,V3_079,20,Female,2024-11-20_16h03.06.484,jersey_experiment_5_v3,2023.2.2,Win32,85.47008547,,,,,,,,,,,,,,,,503.8194,505.3662,505.3662,506.4132,return,0.5833,,72.91666667,,,,,,FBP-OG-18.png,0.4,1.2,38,0.75,,,,,,,,,,,,,0,3,3,37,1,,,,,,,,,,,,,,,,,,,,,,,,,,,,
,,,,,V3_079,20,Female,2024-11-20_16h03.06.484,jersey_experiment_5_v3,2023.2.2,Win32,85.47008547,,,,,,,,,,,,,,,,506.4135,507.7105,507.7105,508.8167,return,0.1032,,25.390625,,,,,,FBP-YG-81.png,0.35,1.2,6,0.5,,,,,,,,,,,,,0,4,4,5,1,,,,,,,,,,,,,,,,,,,,,,,,,,,,
,,,,,V3_079,20,Female,2024-11-20_16h03.06.484,jersey_experiment_5_v3,2023.2.2,Win32,85.47008547,,,,,,,,,,,,,,,,508.8168,510.1254,510.1255,511.7816,return,0.0796,,73.046875,,,,,,FBP-RB-17.png,0.4,1.2,48,0.5,,,,,,,,,,,,,0,5,5,47,1,,,,,,,,,,,,,,,,,,,,,,,,,,,,
,,,,,V3_079,20,Female,2024-11-20_16h03.06.484,jersey_experiment_5_v3,2023.2.2,Win32,85.47008547,,,,,,,,,,,,,,,,511.7817,513.3256,513.3257,514.0606,return,0.0765,,25.52083333,,,,,,FBP-OG-18.png,0.35,1.2,36,0.75,,,,,,,,,,,,,0,6,6,35,1,,,,,,,,,,,,,,,,,,,,,,,,,,,,
,,,,,V3_079,20,Female,2024-11-20_16h03.06.484,jersey_experiment_5_v3,2023.2.2,Win32,85.47008547,,,,,,,,,,,,,,,,514.0608,515.3549,515.3549,515.8757,return,0.0586,,25.26041667,,,,,,FBP-RB-19.png,0.37,1.2,57,0.5,,,,,,,,,,,,,0,7,7,56,1,,,,,,,,,,,,,,,,,,,,,,,,,,,,
,,,,,V3_079,20,Female,2024-11-20_16h03.06.484,jersey_experiment_5_v3,2023.2.2,Win32,85.47008547,,,,,,,,,,,,,,,,515.8759,517.1783,517.1783,519.3346,return,1.2945,,30.59895833,,,,,,FBP-YG-71.png,0.4,1.2,3,0.5,,,,,,,,,,,,,0,8,8,2,1,,,,,,,,,,,,,,,,,,,,,,,,,,,,
,,,,,V3_079,20,Female,2024-11-20_16h03.06.484,jersey_experiment_5_v3,2023.2.2,Win32,85.47008547,,,,,,,,,,,,,,,,519.3348,520.6436,520.6436,521.3497,return,0.1413,,13.41145833,,,,,,FBP-PT-19.png,0.35,1.2,26,0.5,,,,,,,,,,,,,0,9,9,25,1,,,,,,,,,,,,,,,,,,,,,,,,,,,,
,,,,,V3_079,20,Female,2024-11-20_16h03.06.484,jersey_experiment_5_v3,2023.2.2,Win32,85.47008547,,,,,,,,,,,,,,,,521.3499,522.6524,522.6524,523.8446,return,0.0629,,96.61458333,,,,,,FBP-YG-81.png,0.45,1.2,10,0.5,,,,,,,,,,,,,0,10,10,9,1,,,,,,,,,,,,,,,,,,,,,,,,,,,,
,,,,,V3_079,20,Female,2024-11-20_16h03.06.484,jersey_experiment_5_v3,2023.2.2,Win32,85.47008547,,,,,,,,,,,,,,,,523.8448,525.1466,525.1466,526.323,return,0.2936,,94.27083333,,,,,,FBP-YG-71.png,0.45,1.2,5,0.5,,,,,,,,,,,,,0,11,11,4,1,,,,,,,,,,,,,,,,,,,,,,,,,,,,
,,,,,V3_079,20,Female,2024-11-20_16h03.06.484,jersey_experiment_5_v3,2023.2.2,Win32,85.47008547,,,,,,,,,,,,,,,,526.3232,527.876,527.876,530.6295,return,0.3065,,39.453125,,,,,,FBP-OG-17.png,0.35,1.2,31,0.75,,,,,,,,,,,,,0,12,12,30,1,,,,,,,,,,,,,,,,,,,,,,,,,,,,
,,,,,V3_079,20,Female,2024-11-20_16h03.06.484,jersey_experiment_5_v3,2023.2.2,Win32,85.47008547,,,,,,,,,,,,,,,,530.6298,531.9232,531.9233,532.9005,return,0.0831,,23.828125,,,,,,FBP-PT-18.png,0.35,1.2,21,0.5,,,,,,,,,,,,,0,13,13,20,1,,,,,,,,,,,,,,,,,,,,,,,,,,,,
,,,,,V3_079,20,Female,2024-11-20_16h03.06.484,jersey_experiment_5_v3,2023.2.2,Win32,85.47008547,,,,,,,,,,,,,,,,532.9007,534.197,534.1971,535.3266,return,0.0968,,96.22395833,,,,,,FBP-RB-18.png,0.45,1.2,55,0.5,,,,,,,,,,,,,0,14,14,54,1,,,,,,,,,,,,,,,,,,,,,,,,,,,,
,,,,,V3_079,20,Female,2024-11-20_16h03.06.484,jersey_experiment_5_v3,2023.2.2,Win32,85.47008547,,,,,,,,,,,,,,,,535.3268,536.8733,536.8734,538.6204,return,0.7914,,74.34895833,,,,,,FBP-OG-19.png,0.4,1.2,43,0.75,,,,,,,,,,,,,0,15,15,42,1,,,,,,,,,,,,,,,,,,,,,,,,,,,,
,,,,,V3_079,20,Female,2024-11-20_16h03.06.484,jersey_experiment_5_v3,2023.2.2,Win32,85.47008547,,,,,,,,,,,,,,,,538.6206,539.9149,539.9149,540.7205,return,0.1213,,93.48958333,,,,,,FBP-RB-19.png,0.45,1.2,60,0.5,,,,,,,,,,,,,0,16,16,59,1,,,,,,,,,,,,,,,,,,,,,,,,,,,,
,,,,,V3_079,20,Female,2024-11-20_16h03.06.484,jersey_experiment_5_v3,2023.2.2,Win32,85.47008547,,,,,,,,,,,,,,,,540.7208,542.0177,542.0177,542.5558,return,0.0436,,92.578125,,,,,,FBP-PT-18.png,0.43,1.2,24,0.5,,,,,,,,,,,,,0,17,17,23,1,,,,,,,,,,,,,,,,,,,,,,,,,,,,
,,,,,V3_079,20,Female,2024-11-20_16h03.06.484,jersey_experiment_5_v3,2023.2.2,Win32,85.47008547,,,,,,,,,,,,,,,,542.5561,543.85,543.85,544.442,return,0.0794,,94.27083333,,,,,,FBP-RB-17.png,0.45,1.2,50,0.5,,,,,,,,,,,,,0,18,18,49,1,,,,,,,,,,,,,,,,,,,,,,,,,,,,
,,,,,V3_079,20,Female,2024-11-20_16h03.06.484,jersey_experiment_5_v3,2023.2.2,Win32,85.47008547,,,,,,,,,,,,,,,,544.442,545.7355,545.7356,547.1248,return,0.0717,,26.30208333,,,,,,FBP-RB-19.png,0.35,1.2,56,0.5,,,,,,,,,,,,,0,19,19,55,1,,,,,,,,,,,,,,,,,,,,,,,,,,,,
,,,,,V3_079,20,Female,2024-11-20_16h03.06.484,jersey_experiment_5_v3,2023.2.2,Win32,85.47008547,,,,,,,,,,,,,,,,547.1249,548.6683,548.6683,550.0502,return,0.4723,,90.234375,,,,,,FBP-OG-19.png,0.43,1.2,44,0.75,,,,,,,,,,,,,0,20,20,43,1,,,,,,,,,,,,,,,,,,,,,,,,,,,,
,,,,,V3_079,20,Female,2024-11-20_16h03.06.484,jersey_experiment_5_v3,2023.2.2,Win32,85.47008547,,,,,,,,,,,,,,,,550.0504,551.3481,551.3481,552.3327,return,0.0544,,35.80729167,,,,,,FBP-RB-18.png,0.35,1.2,51,0.5,,,,,,,,,,,,,0,21,21,50,1,,,,,,,,,,,,,,,,,,,,,,,,,,,,
,,,,,V3_079,20,Female,2024-11-20_16h03.06.484,jersey_experiment_5_v3,2023.2.2,Win32,85.47008547,,,,,,,,,,,,,,,,552.3329,553.6268,553.6269,554.5122,return,0.0322,,38.54166667,,,,,,FBP-YG-91.png,0.37,1.2,12,0.5,,,,,,,,,,,,,0,22,22,11,1,,,,,,,,,,,,,,,,,,,,,,,,,,,,
,,,,,V3_079,20,Female,2024-11-20_16h03.06.484,jersey_experiment_5_v3,2023.2.2,Win32,85.47008547,,,,,,,,,,,,,,,,554.5124,556.0543,556.0544,556.8329,return,0.1174,,87.109375,,,,,,FBP-OG-17.png,0.45,1.2,35,0.75,,,,,,,,,,,,,0,23,23,34,1,,,,,,,,,,,,,,,,,,,,,,,,,,,,
,,,,,V3_079,20,Female,2024-11-20_16h03.06.484,jersey_experiment_5_v3,2023.2.2,Win32,85.47008547,,,,,,,,,,,,,,,,556.833,558.1359,558.1359,558.5917,return,0.0985,,90.88541667,,,,,,FBP-PT-17.png,0.45,1.2,20,0.5,,,,,,,,,,,,,0,24,24,19,1,,,,,,,,,,,,,,,,,,,,,,,,,,,,
,,,,,V3_079,20,Female,2024-11-20_16h03.06.484,jersey_experiment_5_v3,2023.2.2,Win32,85.47008547,,,,,,,,,,,,,,,,558.592,559.8908,559.8909,560.8799,return,0.141,,75.65104167,,,,,,FBP-PT-19.png,0.4,1.2,28,0.5,,,,,,,,,,,,,0,25,25,27,1,,,,,,,,,,,,,,,,,,,,,,,,,,,,
,,,,,V3_079,20,Female,2024-11-20_16h03.06.484,jersey_experiment_5_v3,2023.2.2,Win32,85.47008547,,,,,,,,,,,,,,,,560.8801,562.1744,562.1744,563.1008,return,0.0347,,74.47916667,,,,,,FBP-YG-91.png,0.43,1.2,14,0.5,,,,,,,,,,,,,0,26,26,13,1,,,,,,,,,,,,,,,,,,,,,,,,,,,,
,,,,,V3_079,20,Female,2024-11-20_16h03.06.484,jersey_experiment_5_v3,2023.2.2,Win32,85.47008547,,,,,,,,,,,,,,,,563.101,564.4098,564.4098,565.7983,return,0.0857,,58.984375,,,,,,FBP-PT-19.png,0.37,1.2,27,0.5,,,,,,,,,,,,,0,27,27,26,1,,,,,,,,,,,,,,,,,,,,,,,,,,,,
,,,,,V3_079,20,Female,2024-11-20_16h03.06.484,jersey_experiment_5_v3,2023.2.2,Win32,85.47008547,,,,,,,,,,,,,,,,565.7984,567.1012,567.1012,567.7725,return,0.0678,,75.26041667,,,,,,FBP-YG-71.png,0.43,1.2,4,0.5,,,,,,,,,,,,,0,28,28,3,1,,,,,,,,,,,,,,,,,,,,,,,,,,,,
,,,,,V3_079,20,Female,2024-11-20_16h03.06.484,jersey_experiment_5_v3,2023.2.2,Win32,85.47008547,,,,,,,,,,,,,,,,567.7726,569.0686,569.0686,569.6315,return,0.118,,75.26041667,,,,,,FBP-YG-91.png,0.4,1.2,13,0.5,,,,,,,,,,,,,0,29,29,12,1,,,,,,,,,,,,,,,,,,,,,,,,,,,,
,,,,,V3_079,20,Female,2024-11-20_16h03.06.484,jersey_experiment_5_v3,2023.2.2,Win32,85.47008547,,,,,,,,,,,,,,,,569.6316,570.9365,570.9366,571.7516,return,0.1205,,88.02083333,,,,,,FBP-PT-18.png,0.45,1.2,25,0.5,,,,,,,,,,,,,0,30,30,24,1,,,,,,,,,,,,,,,,,,,,,,,,,,,,
,,,,,V3_079,20,Female,2024-11-20_16h03.06.484,jersey_experiment_5_v3,2023.2.2,Win32,85.47008547,,,,,,,,,,,,,,,,571.7517,573.0542,573.0542,574.0787,return,0.1071,,83.07291667,,,,,,FBP-PT-17.png,0.4,1.2,18,0.5,,,,,,,,,,,,,0,31,31,17,1,,,,,,,,,,,,,,,,,,,,,,,,,,,,
,,,,,V3_079,20,Female,2024-11-20_16h03.06.484,jersey_experiment_5_v3,2023.2.2,Win32,85.47008547,,,,,,,,,,,,,,,,574.0788,575.3806,575.3806,577.2105,return,0.0858,,80.078125,,,,,,FBP-YG-81.png,0.4,1.2,8,0.5,,,,,,,,,,,,,0,32,32,7,1,,,,,,,,,,,,,,,,,,,,,,,,,,,,
,,,,,V3_079,20,Female,2024-11-20_16h03.06.484,jersey_experiment_5_v3,2023.2.2,Win32,85.47008547,,,,,,,,,,,,,,,,577.2106,578.7609,578.7609,579.3728,return,0.1303,,93.359375,,,,,,FBP-OG-18.png,0.45,1.2,40,0.75,,,,,,,,,,,,,0,33,33,39,1,,,,,,,,,,,,,,,,,,,,,,,,,,,,
,,,,,V3_079,20,Female,2024-11-20_16h03.06.484,jersey_experiment_5_v3,2023.2.2,Win32,85.47008547,,,,,,,,,,,,,,,,579.373,580.6687,580.6688,581.6277,return,0.1259,,83.203125,,,,,,FBP-PT-19.png,0.43,1.2,29,0.5,,,,,,,,,,,,,0,34,34,28,1,,,,,,,,,,,,,,,,,,,,,,,,,,,,
,,,,,V3_079,20,Female,2024-11-20_16h03.06.484,jersey_experiment_5_v3,2023.2.2,Win32,85.47008547,,,,,,,,,,,,,,,,581.628,582.9219,582.922,583.9867,return,0.0715,,80.59895833,,,,,,FBP-RB-18.png,0.37,1.2,52,0.5,,,,,,,,,,,,,0,35,35,51,1,,,,,,,,,,,,,,,,,,,,,,,,,,,,
,,,,,V3_079,20,Female,2024-11-20_16h03.06.484,jersey_experiment_5_v3,2023.2.2,Win32,85.47008547,,,,,,,,,,,,,,,,583.9868,585.5397,585.5397,585.9727,return,0.0712,,83.984375,,,,,,FBP-OG-18.png,0.43,1.2,39,0.75,,,,,,,,,,,,,0,36,36,38,1,,,,,,,,,,,,,,,,,,,,,,,,,,,,
,,,,,V3_079,20,Female,2024-11-20_16h03.06.484,jersey_experiment_5_v3,2023.2.2,Win32,85.47008547,,,,,,,,,,,,,,,,585.9729,587.5141,587.5141,588.6516,return,0.0675,,76.04166667,,,,,,FBP-OG-17.png,0.4,1.2,33,0.75,,,,,,,,,,,,,0,37,37,32,1,,,,,,,,,,,,,,,,,,,,,,,,,,,,
,,,,,V3_079,20,Female,2024-11-20_16h03.06.484,jersey_experiment_5_v3,2023.2.2,Win32,85.47008547,,,,,,,,,,,,,,,,588.6518,589.9458,589.9459,590.5499,return,0.0003,,81.38020833,,,,,,FBP-RB-18.png,0.43,1.2,54,0.5,,,,,,,,,,,,,0,38,38,53,1,,,,,,,,,,,,,,,,,,,,,,,,,,,,
,,,,,V3_079,20,Female,2024-11-20_16h03.06.484,jersey_experiment_5_v3,2023.2.2,Win32,85.47008547,,,,,,,,,,,,,,,,590.55,591.8551,591.8551,593.7462,return,0.0492,,59.24479167,,,,,,FBP-RB-17.png,0.35,1.2,46,0.5,,,,,,,,,,,,,0,39,39,45,1,,,,,,,,,,,,,,,,,,,,,,,,,,,,
,,,,,V3_079,20,Female,2024-11-20_16h03.06.484,jersey_experiment_5_v3,2023.2.2,Win32,85.47008547,,,,,,,,,,,,,,,,593.7465,595.0442,595.0442,596.0198,return,0.1415,,83.07291667,,,,,,FBP-RB-19.png,0.43,1.2,59,0.5,,,,,,,,,,,,,0,40,40,58,1,,,,,,,,,,,,,,,,,,,,,,,,,,,,
,,,,,V3_079,20,Female,2024-11-20_16h03.06.484,jersey_experiment_5_v3,2023.2.2,Win32,85.47008547,,,,,,,,,,,,,,,,596.02,597.5638,597.5638,598.1847,return,0.2592,,93.88020833,,,,,,FBP-OG-19.png,0.45,1.2,45,0.75,,,,,,,,,,,,,0,41,41,44,1,,,,,,,,,,,,,,,,,,,,,,,,,,,,
,,,,,V3_079,20,Female,2024-11-20_16h03.06.484,jersey_experiment_5_v3,2023.2.2,Win32,85.47008547,,,,,,,,,,,,,,,,598.1848,599.4924,599.4924,600.1265,return,0.0684,,94.40104167,,,,,,FBP-YG-91.png,0.45,1.2,15,0.5,,,,,,,,,,,,,0,42,42,14,1,,,,,,,,,,,,,,,,,,,,,,,,,,,,
,,,,,V3_079,20,Female,2024-11-20_16h03.06.484,jersey_experiment_5_v3,2023.2.2,Win32,85.47008547,,,,,,,,,,,,,,,,600.1266,601.4318,601.4319,602.3967,return,0.0474,,74.609375,,,,,,FBP-RB-17.png,0.37,1.2,47,0.5,,,,,,,,,,,,,0,43,43,46,1,,,,,,,,,,,,,,,,,,,,,,,,,,,,
,,,,,V3_079,20,Female,2024-11-20_16h03.06.484,jersey_experiment_5_v3,2023.2.2,Win32,85.47008547,,,,,,,,,,,,,,,,602.3968,603.7046,603.7046,604.2794,return,0.0327,,74.609375,,,,,,FBP-PT-17.png,0.37,1.2,17,0.5,,,,,,,,,,,,,0,44,44,16,1,,,,,,,,,,,,,,,,,,,,,,,,,,,,
,,,,,V3_079,20,Female,2024-11-20_16h03.06.484,jersey_experiment_5_v3,2023.2.2,Win32,85.47008547,,,,,,,,,,,,,,,,604.2795,605.5732,605.5732,606.3026,return,0.0577,,88.02083333,,,,,,FBP-RB-18.png,0.4,1.2,53,0.5,,,,,,,,,,,,,0,45,45,52,1,,,,,,,,,,,,,,,,,,,,,,,,,,,,
,,,,,V3_079,20,Female,2024-11-20_16h03.06.484,jersey_experiment_5_v3,2023.2.2,Win32,85.47008547,,,,,,,,,,,,,,,,606.3027,607.5966,607.5966,608.4289,return,0.016,,75.78125,,,,,,FBP-YG-71.png,0.37,1.2,2,0.5,,,,,,,,,,,,,0,46,46,1,1,,,,,,,,,,,,,,,,,,,,,,,,,,,,
,,,,,V3_079,20,Female,2024-11-20_16h03.06.484,jersey_experiment_5_v3,2023.2.2,Win32,85.47008547,,,,,,,,,,,,,,,,608.4292,609.7231,609.7231,611.0943,return,0.0005,,50.390625,,,,,,FBP-YG-71.png,0.35,1.2,1,0.5,,,,,,,,,,,,,0,47,47,0,1,,,,,,,,,,,,,,,,,,,,,,,,,,,,
,,,,,V3_079,20,Female,2024-11-20_16h03.06.484,jersey_experiment_5_v3,2023.2.2,Win32,85.47008547,,,,,,,,,,,,,,,,611.0943,612.3883,612.3883,613.1885,return,0.0005,,90.36458333,,,,,,FBP-PT-19.png,0.45,1.2,30,0.5,,,,,,,,,,,,,0,48,48,29,1,,,,,,,,,,,,,,,,,,,,,,,,,,,,
,,,,,V3_079,20,Female,2024-11-20_16h03.06.484,jersey_experiment_5_v3,2023.2.2,Win32,85.47008547,,,,,,,,,,,,,,,,613.1887,614.4823,614.4823,616.3156,return,0.0004,,69.140625,,,,,,FBP-YG-81.png,0.37,1.2,7,0.5,,,,,,,,,,,,,0,49,49,6,1,,,,,,,,,,,,,,,,,,,,,,,,,,,,
,,,,,V3_079,20,Female,2024-11-20_16h03.06.484,jersey_experiment_5_v3,2023.2.2,Win32,85.47008547,,,,,,,,,,,,,,,,616.3157,617.6175,617.6175,618.5469,return,0.0722,,75.26041667,,,,,,FBP-PT-18.png,0.4,1.2,23,0.5,,,,,,,,,,,,,0,50,50,22,1,,,,,,,,,,,,,,,,,,,,,,,,,,,,
,,,,,V3_079,20,Female,2024-11-20_16h03.06.484,jersey_experiment_5_v3,2023.2.2,Win32,85.47008547,,,,,,,,,,,,,,,,618.5472,620.091,620.0911,620.6561,return,0.1177,,39.32291667,,,,,,FBP-OG-17.png,0.37,1.2,32,0.75,,,,,,,,,,,,,0,51,51,31,1,,,,,,,,,,,,,,,,,,,,,,,,,,,,
,,,,,V3_079,20,Female,2024-11-20_16h03.06.484,jersey_experiment_5_v3,2023.2.2,Win32,85.47008547,,,,,,,,,,,,,,,,620.6562,621.9651,621.9651,622.5151,return,0.1032,,36.84895833,,,,,,FBP-PT-17.png,0.35,1.2,16,0.5,,,,,,,,,,,,,0,52,52,15,1,,,,,,,,,,,,,,,,,,,,,,,,,,,,
,,,,,V3_079,20,Female,2024-11-20_16h03.06.484,jersey_experiment_5_v3,2023.2.2,Win32,85.47008547,,,,,,,,,,,,,,,,622.5152,624.0592,624.0592,625.5977,return,0.7065,,86.58854167,,,,,,FBP-OG-17.png,0.43,1.2,34,0.75,,,,,,,,,,,,,0,53,53,33,1,,,,,,,,,,,,,,,,,,,,,,,,,,,,
,,,,,V3_079,20,Female,2024-11-20_16h03.06.484,jersey_experiment_5_v3,2023.2.2,Win32,85.47008547,,,,,,,,,,,,,,,,625.5978,626.9064,626.9064,627.9651,return,0.0385,,84.375,,,,,,FBP-PT-17.png,0.43,1.2,19,0.5,,,,,,,,,,,,,0,54,54,18,1,,,,,,,,,,,,,,,,,,,,,,,,,,,,
,,,,,V3_079,20,Female,2024-11-20_16h03.06.484,jersey_experiment_5_v3,2023.2.2,Win32,85.47008547,,,,,,,,,,,,,,,,627.9653,629.512,629.5121,630.5623,return,0.0473,,41.015625,,,,,,FBP-OG-19.png,0.35,1.2,41,0.75,,,,,,,,,,,,,0,55,55,40,1,,,,,,,,,,,,,,,,,,,,,,,,,,,,
,,,,,V3_079,20,Female,2024-11-20_16h03.06.484,jersey_experiment_5_v3,2023.2.2,Win32,85.47008547,,,,,,,,,,,,,,,,630.5624,632.1055,632.1055,632.4122,return,0.0257,,40.88541667,,,,,,FBP-OG-18.png,0.37,1.2,37,0.75,,,,,,,,,,,,,0,56,56,36,1,,,,,,,,,,,,,,,,,,,,,,,,,,,,
,,,,,V3_079,20,Female,2024-11-20_16h03.06.484,jersey_experiment_5_v3,2023.2.2,Win32,85.47008547,,,,,,,,,,,,,,,,632.4123,633.7155,633.7155,635.257,return,0.1065,,67.83854167,,,,,,FBP-YG-81.png,0.43,1.2,9,0.5,,,,,,,,,,,,,0,57,57,8,1,,,,,,,,,,,,,,,,,,,,,,,,,,,,
,,,,,V3_079,20,Female,2024-11-20_16h03.06.484,jersey_experiment_5_v3,2023.2.2,Win32,85.47008547,,,,,,,,,,,,,,,,635.2572,636.81,636.8101,637.3288,return,0.0369,,66.14583333,,,,,,FBP-OG-19.png,0.37,1.2,42,0.75,,,,,,,,,,,,,0,58,58,41,1,,,,,,,,,,,,,,,,,,,,,,,,,,,,
,,,,,V3_079,20,Female,2024-11-20_16h03.06.484,jersey_experiment_5_v3,2023.2.2,Win32,85.47008547,,,,,,,,,,,,,,,,637.329,638.6334,638.6334,639.4235,return,0.0697,,32.03125,,,,,,FBP-YG-91.png,0.35,1.2,11,0.5,,,,,,,,,,,,,0,59,59,10,1,,,,,,,,,,,,,,,,,,,,,,,,,,,,
,,,,,V3_079,20,Female,2024-11-20_16h03.06.484,jersey_experiment_5_v3,2023.2.2,Win32,85.47008547,,,,,,,,,,,,,,,,639.4247,640.7273,640.7273,641.8234,return,0.0843,,49.73958333,,,,,,FBP-YG-17.png,0.4,1.2,3,0.5,,,,,,,,,,,,,,,,,,0,0,0,2,1,,,,,,,,,,,,,,,,,,,,,,,
,,,,,V3_079,20,Female,2024-11-20_16h03.06.484,jersey_experiment_5_v3,2023.2.2,Win32,85.47008547,,,,,,,,,,,,,,,,641.8236,643.1163,643.1163,643.7289,return,0.0479,,49.73958333,,,,,,FBP-PT-71.png,0.4,1.2,18,0.5,,,,,,,,,,,,,,,,,,0,1,1,17,1,,,,,,,,,,,,,,,,,,,,,,,
,,,,,V3_079,20,Female,2024-11-20_16h03.06.484,jersey_experiment_5_v3,2023.2.2,Win32,85.47008547,,,,,,,,,,,,,,,,643.7291,645.0304,645.0304,646.3423,return,0.0857,,64.84375,,,,,,FBP-RB-91.png,0.43,1.2,59,0.5,,,,,,,,,,,,,,,,,,0,2,2,58,1,,,,,,,,,,,,,,,,,,,,,,,
,,,,,V3_079,20,Female,2024-11-20_16h03.06.484,jersey_experiment_5_v3,2023.2.2,Win32,85.47008547,,,,,,,,,,,,,,,,646.3424,647.6364,647.6365,648.6539,return,0.5826,,77.60416667,,,,,,FBP-YG-18.png,0.45,1.2,10,0.5,,,,,,,,,,,,,,,,,,0,3,3,9,1,,,,,,,,,,,,,,,,,,,,,,,
,,,,,V3_079,20,Female,2024-11-20_16h03.06.484,jersey_experiment_5_v3,2023.2.2,Win32,85.47008547,,,,,,,,,,,,,,,,648.6541,649.9481,649.9482,650.9161,return,0.199,,78.77604167,,,,,,FBP-YG-19.png,0.43,1.2,14,0.5,,,,,,,,,,,,,,,,,,0,4,4,13,1,,,,,,,,,,,,,,,,,,,,,,,
,,,,,V3_079,20,Female,2024-11-20_16h03.06.484,jersey_experiment_5_v3,2023.2.2,Win32,85.47008547,,,,,,,,,,,,,,,,650.9162,652.4578,652.4579,654.2489,return,0.0623,,35.9375,,,,,,FBP-OG-81.png,0.37,1.2,37,0.75,,,,,,,,,,,,,,,,,,0,5,5,36,1,,,,,,,,,,,,,,,,,,,,,,,
,,,,,V3_079,20,Female,2024-11-20_16h03.06.484,jersey_experiment_5_v3,2023.2.2,Win32,85.47008547,,,,,,,,,,,,,,,,654.249,655.5483,655.5483,656.5601,return,0.0718,,75,,,,,,FBP-YG-18.png,0.4,1.2,8,0.5,,,,,,,,,,,,,,,,,,0,6,6,7,1,,,,,,,,,,,,,,,,,,,,,,,
,,,,,V3_079,20,Female,2024-11-20_16h03.06.484,jersey_experiment_5_v3,2023.2.2,Win32,85.47008547,,,,,,,,,,,,,,,,656.5604,658.1075,658.1075,658.9132,return,0.0271,,63.28125,,,,,,FBP-OG-71.png,0.37,1.2,32,0.75,,,,,,,,,,,,,,,,,,0,7,7,31,1,,,,,,,,,,,,,,,,,,,,,,,
,,,,,V3_079,20,Female,2024-11-20_16h03.06.484,jersey_experiment_5_v3,2023.2.2,Win32,85.47008547,,,,,,,,,,,,,,,,658.9135,660.2074,660.2074,660.725,return,0.0613,,63.28125,,,,,,FBP-RB-81.png,0.37,1.2,52,0.5,,,,,,,,,,,,,,,,,,0,8,8,51,1,,,,,,,,,,,,,,,,,,,,,,,
,,,,,V3_079,20,Female,2024-11-20_16h03.06.484,jersey_experiment_5_v3,2023.2.2,Win32,85.47008547,,,,,,,,,,,,,,,,660.7253,662.2699,662.2699,662.5603,return,0.0158,,63.02083333,,,,,,FBP-OG-81.png,0.35,1.2,36,0.75,,,,,,,,,,,,,,,,,,0,9,9,35,1,,,,,,,,,,,,,,,,,,,,,,,
,,,,,V3_079,20,Female,2024-11-20_16h03.06.484,jersey_experiment_5_v3,2023.2.2,Win32,85.47008547,,,,,,,,,,,,,,,,662.5605,663.8543,663.8544,664.4845,return,0.1647,,63.02083333,,,,,,FBP-RB-71.png,0.37,1.2,47,0.5,,,,,,,,,,,,,,,,,,0,10,10,46,1,,,,,,,,,,,,,,,,,,,,,,,
,,,,,V3_079,20,Female,2024-11-20_16h03.06.484,jersey_experiment_5_v3,2023.2.2,Win32,85.47008547,,,,,,,,,,,,,,,,664.4846,665.7784,665.7784,667.3081,return,0.1565,,42.44791667,,,,,,FBP-YG-17.png,0.35,1.2,1,0.5,,,,,,,,,,,,,,,,,,0,11,11,0,1,,,,,,,,,,,,,,,,,,,,,,,
,,,,,V3_079,20,Female,2024-11-20_16h03.06.484,jersey_experiment_5_v3,2023.2.2,Win32,85.47008547,,,,,,,,,,,,,,,,667.3082,668.611,668.611,669.1669,return,0.0622,,42.1875,,,,,,FBP-YG-18.png,0.37,1.2,7,0.5,,,,,,,,,,,,,,,,,,0,12,12,6,1,,,,,,,,,,,,,,,,,,,,,,,
,,,,,V3_079,20,Female,2024-11-20_16h03.06.484,jersey_experiment_5_v3,2023.2.2,Win32,85.47008547,,,,,,,,,,,,,,,,669.167,670.72,670.72,671.2702,return,0.0005,,63.671875,,,,,,FBP-OG-91.png,0.43,1.2,44,0.75,,,,,,,,,,,,,,,,,,0,13,13,43,1,,,,,,,,,,,,,,,,,,,,,,,
,,,,,V3_079,20,Female,2024-11-20_16h03.06.484,jersey_experiment_5_v3,2023.2.2,Win32,85.47008547,,,,,,,,,,,,,,,,671.2704,672.5725,672.5726,673.6614,return,0.097,,35.02604167,,,,,,FBP-PT-71.png,0.35,1.2,16,0.5,,,,,,,,,,,,,,,,,,0,14,14,15,1,,,,,,,,,,,,,,,,,,,,,,,
,,,,,V3_079,20,Female,2024-11-20_16h03.06.484,jersey_experiment_5_v3,2023.2.2,Win32,85.47008547,,,,,,,,,,,,,,,,673.6615,674.9641,674.9642,675.7609,return,0.1809,,35.02604167,,,,,,FBP-YG-19.png,0.37,1.2,12,0.5,,,,,,,,,,,,,,,,,,0,15,15,11,1,,,,,,,,,,,,,,,,,,,,,,,
,,,,,V3_079,20,Female,2024-11-20_16h03.06.484,jersey_experiment_5_v3,2023.2.2,Win32,85.47008547,,,,,,,,,,,,,,,,675.7612,677.3051,677.3051,681.9055,return,0.151,,35.41666667,,,,,,FBP-OG-71.png,0.4,1.2,33,0.75,,,,,,,,,,,,,,,,,,0,16,16,32,1,,,,,,,,,,,,,,,,,,,,,,,
,,,,,V3_079,20,Female,2024-11-20_16h03.06.484,jersey_experiment_5_v3,2023.2.2,Win32,85.47008547,,,,,,,,,,,,,,,,681.9057,683.1994,683.1994,684.2586,return,0.118,,87.36979167,,,,,,FBP-PT-81.png,0.45,1.2,25,0.5,,,,,,,,,,,,,,,,,,0,17,17,24,1,,,,,,,,,,,,,,,,,,,,,,,
,,,,,V3_079,20,Female,2024-11-20_16h03.06.484,jersey_experiment_5_v3,2023.2.2,Win32,85.47008547,,,,,,,,,,,,,,,,684.2589,685.5526,685.5526,686.8831,return,0.1772,,30.078125,,,,,,FBP-YG-19.png,0.35,1.2,11,0.5,,,,,,,,,,,,,,,,,,0,18,18,10,1,,,,,,,,,,,,,,,,,,,,,,,
,,,,,V3_079,20,Female,2024-11-20_16h03.06.484,jersey_experiment_5_v3,2023.2.2,Win32,85.47008547,,,,,,,,,,,,,,,,686.8832,688.1792,688.1793,689.0436,return,0.0952,,49.86979167,,,,,,FBP-YG-19.png,0.4,1.2,13,0.5,,,,,,,,,,,,,,,,,,0,19,19,12,1,,,,,,,,,,,,,,,,,,,,,,,
,,,,,V3_079,20,Female,2024-11-20_16h03.06.484,jersey_experiment_5_v3,2023.2.2,Win32,85.47008547,,,,,,,,,,,,,,,,689.0438,690.3437,690.3438,690.847,return,0.1032,,41.015625,,,,,,FBP-RB-81.png,0.35,1.2,51,0.5,,,,,,,,,,,,,,,,,,0,20,20,50,1,,,,,,,,,,,,,,,,,,,,,,,
,,,,,V3_079,20,Female,2024-11-20_16h03.06.484,jersey_experiment_5_v3,2023.2.2,Win32,85.47008547,,,,,,,,,,,,,,,,690.8471,692.3888,692.3888,693.1766,return,0.056,,90.234375,,,,,,FBP-OG-91.png,0.45,1.2,45,0.75,,,,,,,,,,,,,,,,,,0,21,21,44,1,,,,,,,,,,,,,,,,,,,,,,,
,,,,,V3_079,20,Female,2024-11-20_16h03.06.484,jersey_experiment_5_v3,2023.2.2,Win32,85.47008547,,,,,,,,,,,,,,,,693.1767,694.4707,694.4708,695.3884,return,0.5179,,90.234375,,,,,,FBP-RB-91.png,0.45,1.2,60,0.5,,,,,,,,,,,,,,,,,,0,22,22,59,1,,,,,,,,,,,,,,,,,,,,,,,
,,,,,V3_079,20,Female,2024-11-20_16h03.06.484,jersey_experiment_5_v3,2023.2.2,Win32,85.47008547,,,,,,,,,,,,,,,,695.3885,696.6825,696.6826,697.6863,return,0.0159,,37.76041667,,,,,,FBP-RB-71.png,0.35,1.2,46,0.5,,,,,,,,,,,,,,,,,,0,23,23,45,1,,,,,,,,,,,,,,,,,,,,,,,
,,,,,V3_079,20,Female,2024-11-20_16h03.06.484,jersey_experiment_5_v3,2023.2.2,Win32,85.47008547,,,,,,,,,,,,,,,,697.6865,699.2361,699.2361,700.415,return,0.0387,,86.06770833,,,,,,FBP-OG-71.png,0.45,1.2,35,0.75,,,,,,,,,,,,,,,,,,0,24,24,34,1,,,,,,,,,,,,,,,,,,,,,,,
,,,,,V3_079,20,Female,2024-11-20_16h03.06.484,jersey_experiment_5_v3,2023.2.2,Win32,85.47008547,,,,,,,,,,,,,,,,700.4151,701.7092,701.7092,702.743,return,0.0716,,73.95833333,,,,,,FBP-RB-81.png,0.4,1.2,53,0.5,,,,,,,,,,,,,,,,,,0,25,25,52,1,,,,,,,,,,,,,,,,,,,,,,,
,,,,,V3_079,20,Female,2024-11-20_16h03.06.484,jersey_experiment_5_v3,2023.2.2,Win32,85.47008547,,,,,,,,,,,,,,,,702.7432,704.0475,704.0475,704.565,return,0.0819,,76.171875,,,,,,FBP-RB-81.png,0.43,1.2,54,0.5,,,,,,,,,,,,,,,,,,0,26,26,53,1,,,,,,,,,,,,,,,,,,,,,,,
,,,,,V3_079,20,Female,2024-11-20_16h03.06.484,jersey_experiment_5_v3,2023.2.2,Win32,85.47008547,,,,,,,,,,,,,,,,704.5652,705.8739,705.8739,706.7503,return,0.0177,,86.58854167,,,,,,FBP-YG-19.png,0.45,1.2,15,0.5,,,,,,,,,,,,,,,,,,0,27,27,14,1,,,,,,,,,,,,,,,,,,,,,,,
,,,,,V3_079,20,Female,2024-11-20_16h03.06.484,jersey_experiment_5_v3,2023.2.2,Win32,85.47008547,,,,,,,,,,,,,,,,706.7506,708.0474,708.0475,709.6601,return,0.8833,,84.63541667,,,,,,FBP-RB-71.png,0.4,1.2,48,0.5,,,,,,,,,,,,,,,,,,0,28,28,47,1,,,,,,,,,,,,,,,,,,,,,,,
,,,,,V3_079,20,Female,2024-11-20_16h03.06.484,jersey_experiment_5_v3,2023.2.2,Win32,85.47008547,,,,,,,,,,,,,,,,709.6602,710.9555,710.9555,712.5655,return,0.0585,,50.52083333,,,,,,FBP-YG-17.png,0.37,1.2,2,0.5,,,,,,,,,,,,,,,,,,0,29,29,1,1,,,,,,,,,,,,,,,,,,,,,,,
,,,,,V3_079,20,Female,2024-11-20_16h03.06.484,jersey_experiment_5_v3,2023.2.2,Win32,85.47008547,,,,,,,,,,,,,,,,712.5657,713.8722,713.8722,714.7898,return,0.0597,,39.84375,,,,,,FBP-YG-18.png,0.35,1.2,6,0.5,,,,,,,,,,,,,,,,,,0,30,30,5,1,,,,,,,,,,,,,,,,,,,,,,,
,,,,,V3_079,20,Female,2024-11-20_16h03.06.484,jersey_experiment_5_v3,2023.2.2,Win32,85.47008547,,,,,,,,,,,,,,,,714.7898,716.3388,716.339,716.7742,return,0.0626,,38.28125,,,,,,FBP-OG-91.png,0.35,1.2,41,0.75,,,,,,,,,,,,,,,,,,0,31,31,40,1,,,,,,,,,,,,,,,,,,,,,,,
,,,,,V3_079,20,Female,2024-11-20_16h03.06.484,jersey_experiment_5_v3,2023.2.2,Win32,85.47008547,,,,,,,,,,,,,,,,716.7744,718.0709,718.071,720.9657,return,1.6239,,73.4375,,,,,,FBP-PT-71.png,0.43,1.2,19,0.5,,,,,,,,,,,,,,,,,,0,32,32,18,1,,,,,,,,,,,,,,,,,,,,,,,
,,,,,V3_079,20,Female,2024-11-20_16h03.06.484,jersey_experiment_5_v3,2023.2.2,Win32,85.47008547,,,,,,,,,,,,,,,,720.9659,722.2745,722.2746,723.1155,return,0.1498,,73.4375,,,,,,FBP-YG-17.png,0.43,1.2,4,0.5,,,,,,,,,,,,,,,,,,0,33,33,3,1,,,,,,,,,,,,,,,,,,,,,,,
,,,,,V3_079,20,Female,2024-11-20_16h03.06.484,jersey_experiment_5_v3,2023.2.2,Win32,85.47008547,,,,,,,,,,,,,,,,723.1158,724.4097,724.4098,724.9339,return,0.0734,,74.609375,,,,,,FBP-PT-91.png,0.43,1.2,29,0.5,,,,,,,,,,,,,,,,,,0,34,34,28,1,,,,,,,,,,,,,,,,,,,,,,,
,,,,,V3_079,20,Female,2024-11-20_16h03.06.484,jersey_experiment_5_v3,2023.2.2,Win32,85.47008547,,,,,,,,,,,,,,,,724.934,726.2366,726.2366,728.5566,return,0.6968,,63.54166667,,,,,,FBP-PT-71.png,0.37,1.2,17,0.5,,,,,,,,,,,,,,,,,,0,35,35,16,1,,,,,,,,,,,,,,,,,,,,,,,
,,,,,V3_079,20,Female,2024-11-20_16h03.06.484,jersey_experiment_5_v3,2023.2.2,Win32,85.47008547,,,,,,,,,,,,,,,,728.5567,729.86,729.86,730.6499,return,0.0838,,62.23958333,,,,,,FBP-PT-91.png,0.4,1.2,28,0.5,,,,,,,,,,,,,,,,,,0,36,36,27,1,,,,,,,,,,,,,,,,,,,,,,,
,,,,,V3_079,20,Female,2024-11-20_16h03.06.484,jersey_experiment_5_v3,2023.2.2,Win32,85.47008547,,,,,,,,,,,,,,,,730.65,731.9513,731.9514,732.6369,return,0.3622,,62.23958333,,,,,,FBP-PT-71.png,0.45,1.2,20,0.5,,,,,,,,,,,,,,,,,,0,37,37,19,1,,,,,,,,,,,,,,,,,,,,,,,
,,,,,V3_079,20,Female,2024-11-20_16h03.06.484,jersey_experiment_5_v3,2023.2.2,Win32,85.47008547,,,,,,,,,,,,,,,,732.6371,733.9307,733.9308,734.4253,return,0.1056,,62.23958333,,,,,,FBP-PT-81.png,0.43,1.2,24,0.5,,,,,,,,,,,,,,,,,,0,38,38,23,1,,,,,,,,,,,,,,,,,,,,,,,
,,,,,V3_079,20,Female,2024-11-20_16h03.06.484,jersey_experiment_5_v3,2023.2.2,Win32,85.47008547,,,,,,,,,,,,,,,,734.4255,735.7339,735.7339,736.7677,return,0.5074,,63.93229167,,,,,,FBP-RB-91.png,0.4,1.2,58,0.5,,,,,,,,,,,,,,,,,,0,39,39,57,1,,,,,,,,,,,,,,,,,,,,,,,
,,,,,V3_079,20,Female,2024-11-20_16h03.06.484,jersey_experiment_5_v3,2023.2.2,Win32,85.47008547,,,,,,,,,,,,,,,,736.7679,738.0634,738.0634,738.4962,return,0.0947,,63.93229167,,,,,,FBP-PT-81.png,0.4,1.2,23,0.5,,,,,,,,,,,,,,,,,,0,40,40,22,1,,,,,,,,,,,,,,,,,,,,,,,
,,,,,V3_079,20,Female,2024-11-20_16h03.06.484,jersey_experiment_5_v3,2023.2.2,Win32,85.47008547,,,,,,,,,,,,,,,,738.4964,740.0388,740.0388,741.0757,return,0.1654,,63.93229167,,,,,,FBP-OG-81.png,0.4,1.2,38,0.75,,,,,,,,,,,,,,,,,,0,41,41,37,1,,,,,,,,,,,,,,,,,,,,,,,
,,,,,V3_079,20,Female,2024-11-20_16h03.06.484,jersey_experiment_5_v3,2023.2.2,Win32,85.47008547,,,,,,,,,,,,,,,,741.0759,742.378,742.3781,743.3431,return,0.1029,,59.11458333,,,,,,FBP-PT-91.png,0.37,1.2,27,0.5,,,,,,,,,,,,,,,,,,0,42,42,26,1,,,,,,,,,,,,,,,,,,,,,,,
,,,,,V3_079,20,Female,2024-11-20_16h03.06.484,jersey_experiment_5_v3,2023.2.2,Win32,85.47008547,,,,,,,,,,,,,,,,743.3432,744.6371,744.6372,745.6254,return,0.1411,,89.453125,,,,,,FBP-RB-71.png,0.45,1.2,50,0.5,,,,,,,,,,,,,,,,,,0,43,43,49,1,,,,,,,,,,,,,,,,,,,,,,,
,,,,,V3_079,20,Female,2024-11-20_16h03.06.484,jersey_experiment_5_v3,2023.2.2,Win32,85.47008547,,,,,,,,,,,,,,,,745.6256,746.9197,746.9198,747.6021,return,0.2824,,88.15104167,,,,,,FBP-PT-91.png,0.45,1.2,30,0.5,,,,,,,,,,,,,,,,,,0,44,44,29,1,,,,,,,,,,,,,,,,,,,,,,,
,,,,,V3_079,20,Female,2024-11-20_16h03.06.484,jersey_experiment_5_v3,2023.2.2,Win32,85.47008547,,,,,,,,,,,,,,,,747.6023,748.8959,748.896,752.1322,return,1.1185,,76.04166667,,,,,,FBP-RB-91.png,0.35,1.2,56,0.5,,,,,,,,,,,,,,,,,,0,45,45,55,1,,,,,,,,,,,,,,,,,,,,,,,
,,,,,V3_079,20,Female,2024-11-20_16h03.06.484,jersey_experiment_5_v3,2023.2.2,Win32,85.47008547,,,,,,,,,,,,,,,,752.1323,753.6815,753.6815,755.4737,return,1.1744,,81.640625,,,,,,FBP-OG-81.png,0.43,1.2,39,0.75,,,,,,,,,,,,,,,,,,0,46,46,38,1,,,,,,,,,,,,,,,,,,,,,,,
,,,,,V3_079,20,Female,2024-11-20_16h03.06.484,jersey_experiment_5_v3,2023.2.2,Win32,85.47008547,,,,,,,,,,,,,,,,755.4739,756.7788,756.7788,758.1817,return,0.2499,,45.3125,,,,,,FBP-PT-81.png,0.35,1.2,21,0.5,,,,,,,,,,,,,,,,,,0,47,47,20,1,,,,,,,,,,,,,,,,,,,,,,,
,,,,,V3_079,20,Female,2024-11-20_16h03.06.484,jersey_experiment_5_v3,2023.2.2,Win32,85.47008547,,,,,,,,,,,,,,,,758.182,759.7288,759.7288,760.5406,return,0.1372,,32.55208333,,,,,,FBP-OG-71.png,0.35,1.2,31,0.75,,,,,,,,,,,,,,,,,,0,48,48,30,1,,,,,,,,,,,,,,,,,,,,,,,
,,,,,V3_079,20,Female,2024-11-20_16h03.06.484,jersey_experiment_5_v3,2023.2.2,Win32,85.47008547,,,,,,,,,,,,,,,,760.5408,761.8376,761.8376,762.8734,return,0.1032,,74.21875,,,,,,FBP-YG-18.png,0.43,1.2,9,0.5,,,,,,,,,,,,,,,,,,0,49,49,8,1,,,,,,,,,,,,,,,,,,,,,,,
,,,,,V3_079,20,Female,2024-11-20_16h03.06.484,jersey_experiment_5_v3,2023.2.2,Win32,85.47008547,,,,,,,,,,,,,,,,762.8734,764.4175,764.4175,764.7682,return,0.0832,,79.81770833,,,,,,FBP-OG-81.png,0.45,1.2,40,0.75,,,,,,,,,,,,,,,,,,0,50,50,39,1,,,,,,,,,,,,,,,,,,,,,,,
,,,,,V3_079,20,Female,2024-11-20_16h03.06.484,jersey_experiment_5_v3,2023.2.2,Win32,85.47008547,,,,,,,,,,,,,,,,764.7683,766.0618,766.0618,767.1797,return,0.1413,,29.16666667,,,,,,FBP-PT-91.png,0.35,1.2,26,0.5,,,,,,,,,,,,,,,,,,0,51,51,25,1,,,,,,,,,,,,,,,,,,,,,,,
,,,,,V3_079,20,Female,2024-11-20_16h03.06.484,jersey_experiment_5_v3,2023.2.2,Win32,85.47008547,,,,,,,,,,,,,,,,767.1798,768.4733,768.4734,770.5763,return,0.5328,,77.734375,,,,,,FBP-RB-71.png,0.43,1.2,49,0.5,,,,,,,,,,,,,,,,,,0,52,52,48,1,,,,,,,,,,,,,,,,,,,,,,,
,,,,,V3_079,20,Female,2024-11-20_16h03.06.484,jersey_experiment_5_v3,2023.2.2,Win32,85.47008547,,,,,,,,,,,,,,,,770.5765,771.8761,771.8761,772.8972,return,0.2217,,50.65104167,,,,,,FBP-PT-81.png,0.37,1.2,22,0.5,,,,,,,,,,,,,,,,,,0,53,53,21,1,,,,,,,,,,,,,,,,,,,,,,,
,,,,,V3_079,20,Female,2024-11-20_16h03.06.484,jersey_experiment_5_v3,2023.2.2,Win32,85.47008547,,,,,,,,,,,,,,,,772.8974,774.1918,774.1918,774.9881,return,0.0425,,78.90625,,,,,,FBP-RB-81.png,0.45,1.2,55,0.5,,,,,,,,,,,,,,,,,,0,54,54,54,1,,,,,,,,,,,,,,,,,,,,,,,
,,,,,V3_079,20,Female,2024-11-20_16h03.06.484,jersey_experiment_5_v3,2023.2.2,Win32,85.47008547,,,,,,,,,,,,,,,,774.9882,776.2856,776.2856,777.4385,return,0.5648,,80.859375,,,,,,FBP-YG-17.png,0.45,1.2,5,0.5,,,,,,,,,,,,,,,,,,0,55,55,4,1,,,,,,,,,,,,,,,,,,,,,,,
,,,,,V3_079,20,Female,2024-11-20_16h03.06.484,jersey_experiment_5_v3,2023.2.2,Win32,85.47008547,,,,,,,,,,,,,,,,777.4387,778.7446,778.7447,780.1124,return,0.2035,,50,,,,,,FBP-RB-91.png,0.37,1.2,57,0.5,,,,,,,,,,,,,,,,,,0,56,56,56,1,,,,,,,,,,,,,,,,,,,,,,,
,,,,,V3_079,20,Female,2024-11-20_16h03.06.484,jersey_experiment_5_v3,2023.2.2,Win32,85.47008547,,,,,,,,,,,,,,,,780.1125,781.6673,781.6673,783.2652,return,0.4856,,51.04166667,,,,,,FBP-OG-91.png,0.37,1.2,42,0.75,,,,,,,,,,,,,,,,,,0,57,57,41,1,,,,,,,,,,,,,,,,,,,,,,,
,,,,,V3_079,20,Female,2024-11-20_16h03.06.484,jersey_experiment_5_v3,2023.2.2,Win32,85.47008547,,,,,,,,,,,,,,,,783.2653,784.8156,784.8156,785.3884,return,0.195,,50.13020833,,,,,,FBP-OG-91.png,0.4,1.2,43,0.75,,,,,,,,,,,,,,,,,,0,58,58,42,1,,,,,,,,,,,,,,,,,,,,,,,
,,,,,V3_079,20,Female,2024-11-20_16h03.06.484,jersey_experiment_5_v3,2023.2.2,Win32,85.47008547,,,,,,,,,,,,,,,,785.3887,786.9334,786.9334,788.4657,return,0.2037,,81.640625,,,,,,FBP-OG-71.png,0.43,1.2,34,0.75,,,,,,,,,,,,,,,,,,0,59,59,33,1,,,,,,,,,,,,,,,,,,,,,,,
,,,,,V3_079,20,Female,2024-11-20_16h03.06.484,jersey_experiment_5_v3,2023.2.2,Win32,85.47008547,,,,,,,,,,,,,,,,,,,,,,,,,,,,,,,,,,,,,,,,,,,,,,,,,,,,,,,,788.4658,793.853,return,5.3789,,,,,,,,,,,,,,,,,,,
,,,,,V3_079,20,Female,2024-11-20_16h03.06.484,jersey_experiment_5_v3,2023.2.2,Win32,85.47008547,,,,,,,,,,,,,,,,,,,,,,,,,,,,,,,,,,,,,,,,,,,,,,,,,,,,,,,,,,,,,793.853,798.2862,1,3.6864,return,0.7293,,,,,,,,,,,,
,,,,,V3_079,20,Female,2024-11-20_16h03.06.484,jersey_experiment_5_v3,2023.2.2,Win32,85.47008547,,,,,,,,,,,,,,,,,,,,,,,,,,,,,,,,,,,,,,,,,,,,,,,,,,,,,,,,,,,,,,,,,,,,798.2863,844.1827,I had a very brief idea from reading the consent form. I didn't recognize any patterns specifically.,right,36.4839,,,,,,
,,,,,V3_079,20,Female,2024-11-20_16h03.06.484,jersey_experiment_5_v3,2023.2.2,Win32,85.47008547,,,,,,,,,,,,,,,,,,,,,,,,,,,,,,,,,,,,,,,,,,,,,,,,,,,,,,,,,,,,,,,,,,,,,,,,,,844.1828,847.1244,return,2.9302,