requirements.started,requirements.stopped,key_resp_3.keys,key_resp_3.rt,key_resp_3.duration,Subject ID,Age,Gender,date,expName,psychopyVersion,OS,frameRate,instructions1.started,instructions1.stopped,key_resp.keys,key_resp.rt,key_resp.duration,example.started,example.stopped,enter_2.keys,enter_2.rt,enter_2.duration,instructions2.started,instructions2.stopped,enter_3.keys,enter_3.rt,enter_3.duration,image.started,image.stopped,slider_2.started,slider_2.stopped,next.keys,next.rt,next.duration,slider.response,trial_block_1.thisRepN,trial_block_1.thisTrialN,trial_block_1.thisN,trial_block_1.thisIndex,trial_block_1.ran,Path,Width,Height,Index,Duration,trial_block_2.thisRepN,trial_block_2.thisTrialN,trial_block_2.thisN,trial_block_2.thisIndex,trial_block_2.ran,rest_break.started,rest_break.stopped,end_break.started,end_break.stopped,key_resp_5.keys,key_resp_5.rt,key_resp_5.duration,trial_block_3.thisRepN,trial_block_3.thisTrialN,trial_block_3.thisN,trial_block_3.thisIndex,trial_block_3.ran,trial_block_4.thisRepN,trial_block_4.thisTrialN,trial_block_4.thisN,trial_block_4.thisIndex,trial_block_4.ran,questions_intro.started,questions_intro.stopped,enter_12.keys,enter_12.rt,enter_12.duration,question2.started,question2.stopped,question_doingbest.response,question_doingbest.rt,enter_15.keys,enter_15.rt,enter_15.duration,pattern.started,pattern.stopped,pattern_2.text,enter_17.keys,enter_17.rt,enter_17.duration,thankyou.started,thankyou.stopped,enter_14.keys,enter_14.rt,enter_14.duration
1E-04,14.6668,return,14.6594,,V3_029,20,Male,2024-10-21_13h17.20.632,jersey_experiment_5_v3,2023.2.2,Win32,85.47008547,,,,,,,,,,,,,,,,,,,,,,,,,,,,,,,,,,,,,,,,,,,,,,,,,,,,,,,,,,,,,,,,,,,,,,,,,,,,,,
,,,,,V3_029,20,Male,2024-10-21_13h17.20.632,jersey_experiment_5_v3,2023.2.2,Win32,85.47008547,14.6669,25.3847,return,10.6981,,,,,,,,,,,,,,,,,,,,,,,,,,,,,,,,,,,,,,,,,,,,,,,,,,,,,,,,,,,,,,,,,,,,,,,,,,
,,,,,V3_029,20,Male,2024-10-21_13h17.20.632,jersey_experiment_5_v3,2023.2.2,Win32,85.47008547,,,,,,25.3848,32.1378,return,6.7172,,,,,,,,,,,,,,,,,,,,,,,,,,,,,,,,,,,,,,,,,,,,,,,,,,,,,,,,,,,,,,,,,,,,,
,,,,,V3_029,20,Male,2024-10-21_13h17.20.632,jersey_experiment_5_v3,2023.2.2,Win32,85.47008547,,,,,,,,,,,32.1379,49.9973,return,17.8378,,,,,,,,,,,,,,,,,,,,,,,,,,,,,,,,,,,,,,,,,,,,,,,,,,,,,,,,,,,,,,,,
,,,,,V3_029,20,Male,2024-10-21_13h17.20.632,jersey_experiment_5_v3,2023.2.2,Win32,85.47008547,,,,,,,,,,,,,,,,49.9994,51.5502,51.5502,61.7859,return,6.4065,,68.359375,0,0,0,2,1,FBP-YG-71.png,0.4,1.2,3,0.75,,,,,,,,,,,,,,,,,,,,,,,,,,,,,,,,,,,,,,,,,,,,,
,,,,,V3_029,20,Male,2024-10-21_13h17.20.632,jersey_experiment_5_v3,2023.2.2,Win32,85.47008547,,,,,,,,,,,,,,,,61.7861,63.3388,63.3388,65.2094,return,0.3346,,74.609375,0,1,1,49,1,FBP-RB-17.png,0.45,1.2,50,0.75,,,,,,,,,,,,,,,,,,,,,,,,,,,,,,,,,,,,,,,,,,,,,
,,,,,V3_029,20,Male,2024-10-21_13h17.20.632,jersey_experiment_5_v3,2023.2.2,Win32,85.47008547,,,,,,,,,,,,,,,,65.2097,66.5035,66.5036,68.3862,return,0.4386,,44.01041667,0,2,2,36,1,FBP-OG-18.png,0.37,1.2,37,0.5,,,,,,,,,,,,,,,,,,,,,,,,,,,,,,,,,,,,,,,,,,,,,
,,,,,V3_029,20,Male,2024-10-21_13h17.20.632,jersey_experiment_5_v3,2023.2.2,Win32,85.47008547,,,,,,,,,,,,,,,,68.3864,69.6803,69.6803,73.457,return,2.4076,,49.86979167,0,3,3,32,1,FBP-OG-17.png,0.4,1.2,33,0.5,,,,,,,,,,,,,,,,,,,,,,,,,,,,,,,,,,,,,,,,,,,,,
,,,,,V3_029,20,Male,2024-10-21_13h17.20.632,jersey_experiment_5_v3,2023.2.2,Win32,85.47008547,,,,,,,,,,,,,,,,73.4574,74.7511,74.7512,79.0805,return,2.3004,,58.203125,0,4,4,39,1,FBP-OG-18.png,0.45,1.2,40,0.5,,,,,,,,,,,,,,,,,,,,,,,,,,,,,,,,,,,,,,,,,,,,,
,,,,,V3_029,20,Male,2024-10-21_13h17.20.632,jersey_experiment_5_v3,2023.2.2,Win32,85.47008547,,,,,,,,,,,,,,,,79.0808,80.6336,80.6336,84.1513,return,1.7226,,40.625,0,5,5,0,1,FBP-YG-71.png,0.35,1.2,1,0.75,,,,,,,,,,,,,,,,,,,,,,,,,,,,,,,,,,,,,,,,,,,,,
,,,,,V3_029,20,Male,2024-10-21_13h17.20.632,jersey_experiment_5_v3,2023.2.2,Win32,85.47008547,,,,,,,,,,,,,,,,84.1516,85.7044,85.7044,88.7282,return,1.737,,40.625,0,6,6,10,1,FBP-YG-91.png,0.35,1.2,11,0.75,,,,,,,,,,,,,,,,,,,,,,,,,,,,,,,,,,,,,,,,,,,,,
,,,,,V3_029,20,Male,2024-10-21_13h17.20.632,jersey_experiment_5_v3,2023.2.2,Win32,85.47008547,,,,,,,,,,,,,,,,88.7284,90.2811,90.2811,94.5048,return,2.3248,,75.13020833,0,7,7,59,1,FBP-RB-19.png,0.45,1.2,60,0.75,,,,,,,,,,,,,,,,,,,,,,,,,,,,,,,,,,,,,,,,,,,,,
,,,,,V3_029,20,Male,2024-10-21_13h17.20.632,jersey_experiment_5_v3,2023.2.2,Win32,85.47008547,,,,,,,,,,,,,,,,94.505,96.0577,96.0578,99.5049,return,1.7885,,74.86979167,0,8,8,23,1,FBP-PT-18.png,0.43,1.2,24,0.75,,,,,,,,,,,,,,,,,,,,,,,,,,,,,,,,,,,,,,,,,,,,,
,,,,,V3_029,20,Male,2024-10-21_13h17.20.632,jersey_experiment_5_v3,2023.2.2,Win32,85.47008547,,,,,,,,,,,,,,,,99.5052,100.799,100.7991,105.611,return,2.2137,,70.3125,0,9,9,44,1,FBP-OG-19.png,0.45,1.2,45,0.5,,,,,,,,,,,,,,,,,,,,,,,,,,,,,,,,,,,,,,,,,,,,,
,,,,,V3_029,20,Male,2024-10-21_13h17.20.632,jersey_experiment_5_v3,2023.2.2,Win32,85.47008547,,,,,,,,,,,,,,,,105.6113,107.164,107.164,110.1286,return,1.3202,,28.38541667,0,10,10,45,1,FBP-RB-17.png,0.35,1.2,46,0.75,,,,,,,,,,,,,,,,,,,,,,,,,,,,,,,,,,,,,,,,,,,,,
,,,,,V3_029,20,Male,2024-10-21_13h17.20.632,jersey_experiment_5_v3,2023.2.2,Win32,85.47008547,,,,,,,,,,,,,,,,110.1289,111.6819,111.6819,114.3996,return,0.7849,,87.23958333,0,11,11,22,1,FBP-PT-18.png,0.4,1.2,23,0.75,,,,,,,,,,,,,,,,,,,,,,,,,,,,,,,,,,,,,,,,,,,,,
,,,,,V3_029,20,Male,2024-10-21_13h17.20.632,jersey_experiment_5_v3,2023.2.2,Win32,85.47008547,,,,,,,,,,,,,,,,114.3999,115.6937,115.6938,118.5763,return,1.2631,,83.07291667,0,12,12,30,1,FBP-OG-17.png,0.35,1.2,31,0.5,,,,,,,,,,,,,,,,,,,,,,,,,,,,,,,,,,,,,,,,,,,,,
,,,,,V3_029,20,Male,2024-10-21_13h17.20.632,jersey_experiment_5_v3,2023.2.2,Win32,85.47008547,,,,,,,,,,,,,,,,118.5764,119.8703,119.8703,122.5057,return,1.3222,,94.921875,0,13,13,38,1,FBP-OG-18.png,0.43,1.2,39,0.5,,,,,,,,,,,,,,,,,,,,,,,,,,,,,,,,,,,,,,,,,,,,,
,,,,,V3_029,20,Male,2024-10-21_13h17.20.632,jersey_experiment_5_v3,2023.2.2,Win32,85.47008547,,,,,,,,,,,,,,,,122.5059,124.0586,124.0587,126.6705,return,1.2622,,94.140625,0,14,14,18,1,FBP-PT-17.png,0.43,1.2,19,0.75,,,,,,,,,,,,,,,,,,,,,,,,,,,,,,,,,,,,,,,,,,,,,
,,,,,V3_029,20,Male,2024-10-21_13h17.20.632,jersey_experiment_5_v3,2023.2.2,Win32,85.47008547,,,,,,,,,,,,,,,,126.6707,128.2119,128.212,131.2709,return,1.6416,,68.88020833,0,15,15,1,1,FBP-YG-71.png,0.37,1.2,2,0.75,,,,,,,,,,,,,,,,,,,,,,,,,,,,,,,,,,,,,,,,,,,,,
,,,,,V3_029,20,Male,2024-10-21_13h17.20.632,jersey_experiment_5_v3,2023.2.2,Win32,85.47008547,,,,,,,,,,,,,,,,131.2713,132.8237,132.8238,137.7886,return,2.4739,,63.93229167,0,16,16,57,1,FBP-RB-19.png,0.4,1.2,58,0.75,,,,,,,,,,,,,,,,,,,,,,,,,,,,,,,,,,,,,,,,,,,,,
,,,,,V3_029,20,Male,2024-10-21_13h17.20.632,jersey_experiment_5_v3,2023.2.2,Win32,85.47008547,,,,,,,,,,,,,,,,137.7889,139.3416,139.3417,142.3534,return,1.6473,,72.52604167,0,17,17,58,1,FBP-RB-19.png,0.43,1.2,59,0.75,,,,,,,,,,,,,,,,,,,,,,,,,,,,,,,,,,,,,,,,,,,,,
,,,,,V3_029,20,Male,2024-10-21_13h17.20.632,jersey_experiment_5_v3,2023.2.2,Win32,85.47008547,,,,,,,,,,,,,,,,142.3537,143.9065,143.9066,146.7774,return,0.7465,,74.08854167,0,18,18,4,1,FBP-YG-71.png,0.45,1.2,5,0.75,,,,,,,,,,,,,,,,,,,,,,,,,,,,,,,,,,,,,,,,,,,,,
,,,,,V3_029,20,Male,2024-10-21_13h17.20.632,jersey_experiment_5_v3,2023.2.2,Win32,85.47008547,,,,,,,,,,,,,,,,146.7776,148.3302,148.3302,150.5068,return,1.3192,,71.875,0,19,19,56,1,FBP-RB-19.png,0.37,1.2,57,0.75,,,,,,,,,,,,,,,,,,,,,,,,,,,,,,,,,,,,,,,,,,,,,
,,,,,V3_029,20,Male,2024-10-21_13h17.20.632,jersey_experiment_5_v3,2023.2.2,Win32,85.47008547,,,,,,,,,,,,,,,,150.507,152.0597,152.0598,156.2246,return,0.5443,,71.875,0,20,20,12,1,FBP-YG-91.png,0.4,1.2,13,0.75,,,,,,,,,,,,,,,,,,,,,,,,,,,,,,,,,,,,,,,,,,,,,
,,,,,V3_029,20,Male,2024-10-21_13h17.20.632,jersey_experiment_5_v3,2023.2.2,Win32,85.47008547,,,,,,,,,,,,,,,,156.2247,157.7775,157.7776,159.5542,return,1.0121,,67.05729167,0,21,21,6,1,FBP-YG-81.png,0.37,1.2,7,0.75,,,,,,,,,,,,,,,,,,,,,,,,,,,,,,,,,,,,,,,,,,,,,
,,,,,V3_029,20,Male,2024-10-21_13h17.20.632,jersey_experiment_5_v3,2023.2.2,Win32,85.47008547,,,,,,,,,,,,,,,,159.5544,160.8484,160.8484,161.9307,return,0.3346,,99.609375,0,22,22,34,1,FBP-OG-17.png,0.45,1.2,35,0.5,,,,,,,,,,,,,,,,,,,,,,,,,,,,,,,,,,,,,,,,,,,,,
,,,,,V3_029,20,Male,2024-10-21_13h17.20.632,jersey_experiment_5_v3,2023.2.2,Win32,85.47008547,,,,,,,,,,,,,,,,161.9309,163.4721,163.4722,165.3074,return,0.4166,,98.828125,0,23,23,8,1,FBP-YG-81.png,0.43,1.2,9,0.75,,,,,,,,,,,,,,,,,,,,,,,,,,,,,,,,,,,,,,,,,,,,,
,,,,,V3_029,20,Male,2024-10-21_13h17.20.632,jersey_experiment_5_v3,2023.2.2,Win32,85.47008547,,,,,,,,,,,,,,,,165.3076,166.6016,166.6016,168.7192,return,0.3055,,66.53645833,0,24,24,42,1,FBP-OG-19.png,0.4,1.2,43,0.5,,,,,,,,,,,,,,,,,,,,,,,,,,,,,,,,,,,,,,,,,,,,,
,,,,,V3_029,20,Male,2024-10-21_13h17.20.632,jersey_experiment_5_v3,2023.2.2,Win32,85.47008547,,,,,,,,,,,,,,,,168.7194,170.0134,170.0135,171.4958,return,0.2416,,55.98958333,0,25,25,41,1,FBP-OG-19.png,0.37,1.2,42,0.5,,,,,,,,,,,,,,,,,,,,,,,,,,,,,,,,,,,,,,,,,,,,,
,,,,,V3_029,20,Male,2024-10-21_13h17.20.632,jersey_experiment_5_v3,2023.2.2,Win32,85.47008547,,,,,,,,,,,,,,,,171.4959,173.0488,173.0488,174.2017,return,0.4973,,77.99479167,0,26,26,48,1,FBP-RB-17.png,0.43,1.2,49,0.75,,,,,,,,,,,,,,,,,,,,,,,,,,,,,,,,,,,,,,,,,,,,,
,,,,,V3_029,20,Male,2024-10-21_13h17.20.632,jersey_experiment_5_v3,2023.2.2,Win32,85.47008547,,,,,,,,,,,,,,,,174.202,175.496,175.496,176.5195,return,0.2909,,85.80729167,0,27,27,43,1,FBP-OG-19.png,0.43,1.2,44,0.5,,,,,,,,,,,,,,,,,,,,,,,,,,,,,,,,,,,,,,,,,,,,,
,,,,,V3_029,20,Male,2024-10-21_13h17.20.632,jersey_experiment_5_v3,2023.2.2,Win32,85.47008547,,,,,,,,,,,,,,,,176.5197,178.0726,178.0727,179.7433,return,0.8092,,90.49479167,0,28,28,19,1,FBP-PT-17.png,0.45,1.2,20,0.75,,,,,,,,,,,,,,,,,,,,,,,,,,,,,,,,,,,,,,,,,,,,,
,,,,,V3_029,20,Male,2024-10-21_13h17.20.632,jersey_experiment_5_v3,2023.2.2,Win32,85.47008547,,,,,,,,,,,,,,,,179.7436,181.2961,181.2961,182.6729,return,0.261,,49.73958333,0,29,29,46,1,FBP-RB-17.png,0.37,1.2,47,0.75,,,,,,,,,,,,,,,,,,,,,,,,,,,,,,,,,,,,,,,,,,,,,
,,,,,V3_029,20,Male,2024-10-21_13h17.20.632,jersey_experiment_5_v3,2023.2.2,Win32,85.47008547,,,,,,,,,,,,,,,,182.6732,183.9667,183.9668,185.4728,return,0.4604,,50.13020833,0,30,30,31,1,FBP-OG-17.png,0.37,1.2,32,0.5,,,,,,,,,,,,,,,,,,,,,,,,,,,,,,,,,,,,,,,,,,,,,
,,,,,V3_029,20,Male,2024-10-21_13h17.20.632,jersey_experiment_5_v3,2023.2.2,Win32,85.47008547,,,,,,,,,,,,,,,,185.4731,187.0258,187.0259,189.5672,return,1.8022,,76.5625,0,31,31,28,1,FBP-PT-19.png,0.43,1.2,29,0.75,,,,,,,,,,,,,,,,,,,,,,,,,,,,,,,,,,,,,,,,,,,,,
,,,,,V3_029,20,Male,2024-10-21_13h17.20.632,jersey_experiment_5_v3,2023.2.2,Win32,85.47008547,,,,,,,,,,,,,,,,189.5674,191.1202,191.1203,192.826,return,0.3694,,62.109375,0,32,32,7,1,FBP-YG-81.png,0.4,1.2,8,0.75,,,,,,,,,,,,,,,,,,,,,,,,,,,,,,,,,,,,,,,,,,,,,
,,,,,V3_029,20,Male,2024-10-21_13h17.20.632,jersey_experiment_5_v3,2023.2.2,Win32,85.47008547,,,,,,,,,,,,,,,,192.8262,194.379,194.379,195.4378,return,0.355,,62.63020833,0,33,33,26,1,FBP-PT-19.png,0.37,1.2,27,0.75,,,,,,,,,,,,,,,,,,,,,,,,,,,,,,,,,,,,,,,,,,,,,
,,,,,V3_029,20,Male,2024-10-21_13h17.20.632,jersey_experiment_5_v3,2023.2.2,Win32,85.47008547,,,,,,,,,,,,,,,,195.4381,196.9909,196.9909,198.0968,return,0.457,,62.76041667,0,34,34,21,1,FBP-PT-18.png,0.37,1.2,22,0.75,,,,,,,,,,,,,,,,,,,,,,,,,,,,,,,,,,,,,,,,,,,,,
,,,,,V3_029,20,Male,2024-10-21_13h17.20.632,jersey_experiment_5_v3,2023.2.2,Win32,85.47008547,,,,,,,,,,,,,,,,198.097,199.6497,199.6498,201.2147,return,0.7546,,62.76041667,0,35,35,15,1,FBP-PT-17.png,0.35,1.2,16,0.75,,,,,,,,,,,,,,,,,,,,,,,,,,,,,,,,,,,,,,,,,,,,,
,,,,,V3_029,20,Male,2024-10-21_13h17.20.632,jersey_experiment_5_v3,2023.2.2,Win32,85.47008547,,,,,,,,,,,,,,,,201.2149,202.7676,202.7676,203.9794,return,0.2744,,71.61458333,0,36,36,52,1,FBP-RB-18.png,0.4,1.2,53,0.75,,,,,,,,,,,,,,,,,,,,,,,,,,,,,,,,,,,,,,,,,,,,,
,,,,,V3_029,20,Male,2024-10-21_13h17.20.632,jersey_experiment_5_v3,2023.2.2,Win32,85.47008547,,,,,,,,,,,,,,,,203.9796,205.5323,205.5323,206.4972,return,0.1963,,74.609375,0,37,37,14,1,FBP-YG-91.png,0.45,1.2,15,0.75,,,,,,,,,,,,,,,,,,,,,,,,,,,,,,,,,,,,,,,,,,,,,
,,,,,V3_029,20,Male,2024-10-21_13h17.20.632,jersey_experiment_5_v3,2023.2.2,Win32,85.47008547,,,,,,,,,,,,,,,,206.4974,208.0502,208.0502,209.7913,return,0.6593,,77.734375,0,38,38,53,1,FBP-RB-18.png,0.43,1.2,54,0.75,,,,,,,,,,,,,,,,,,,,,,,,,,,,,,,,,,,,,,,,,,,,,
,,,,,V3_029,20,Male,2024-10-21_13h17.20.632,jersey_experiment_5_v3,2023.2.2,Win32,85.47008547,,,,,,,,,,,,,,,,209.7916,211.3443,211.3443,212.3443,return,0.278,,71.09375,0,39,39,3,1,FBP-YG-71.png,0.43,1.2,4,0.75,,,,,,,,,,,,,,,,,,,,,,,,,,,,,,,,,,,,,,,,,,,,,
,,,,,V3_029,20,Male,2024-10-21_13h17.20.632,jersey_experiment_5_v3,2023.2.2,Win32,85.47008547,,,,,,,,,,,,,,,,212.3446,213.8973,213.8973,215.7682,return,0.1491,,50,0,40,40,16,1,FBP-PT-17.png,0.37,1.2,17,0.75,,,,,,,,,,,,,,,,,,,,,,,,,,,,,,,,,,,,,,,,,,,,,
,,,,,V3_029,20,Male,2024-10-21_13h17.20.632,jersey_experiment_5_v3,2023.2.2,Win32,85.47008547,,,,,,,,,,,,,,,,215.7684,217.321,217.3211,218.5447,return,0.2119,,50.13020833,0,41,41,50,1,FBP-RB-18.png,0.35,1.2,51,0.75,,,,,,,,,,,,,,,,,,,,,,,,,,,,,,,,,,,,,,,,,,,,,
,,,,,V3_029,20,Male,2024-10-21_13h17.20.632,jersey_experiment_5_v3,2023.2.2,Win32,85.47008547,,,,,,,,,,,,,,,,218.545,219.8387,219.8387,221.3682,return,0.2664,,49.47916667,0,42,42,37,1,FBP-OG-18.png,0.4,1.2,38,0.5,,,,,,,,,,,,,,,,,,,,,,,,,,,,,,,,,,,,,,,,,,,,,
,,,,,V3_029,20,Male,2024-10-21_13h17.20.632,jersey_experiment_5_v3,2023.2.2,Win32,85.47008547,,,,,,,,,,,,,,,,221.3684,222.9212,222.9212,225.6978,return,2.1499,,64.0625,0,43,43,13,1,FBP-YG-91.png,0.43,1.2,14,0.75,,,,,,,,,,,,,,,,,,,,,,,,,,,,,,,,,,,,,,,,,,,,,
,,,,,V3_029,20,Male,2024-10-21_13h17.20.632,jersey_experiment_5_v3,2023.2.2,Win32,85.47008547,,,,,,,,,,,,,,,,225.6981,226.992,226.992,228.7801,return,0.2457,,70.57291667,0,44,44,33,1,FBP-OG-17.png,0.43,1.2,34,0.5,,,,,,,,,,,,,,,,,,,,,,,,,,,,,,,,,,,,,,,,,,,,,
,,,,,V3_029,20,Male,2024-10-21_13h17.20.632,jersey_experiment_5_v3,2023.2.2,Win32,85.47008547,,,,,,,,,,,,,,,,228.7804,230.3334,230.3334,232.3336,return,0.2852,,61.71875,0,45,45,27,1,FBP-PT-19.png,0.4,1.2,28,0.75,,,,,,,,,,,,,,,,,,,,,,,,,,,,,,,,,,,,,,,,,,,,,
,,,,,V3_029,20,Male,2024-10-21_13h17.20.632,jersey_experiment_5_v3,2023.2.2,Win32,85.47008547,,,,,,,,,,,,,,,,232.3339,233.8865,233.8866,234.7336,return,0.2015,,63.671875,0,46,46,9,1,FBP-YG-81.png,0.45,1.2,10,0.75,,,,,,,,,,,,,,,,,,,,,,,,,,,,,,,,,,,,,,,,,,,,,
,,,,,V3_029,20,Male,2024-10-21_13h17.20.632,jersey_experiment_5_v3,2023.2.2,Win32,85.47008547,,,,,,,,,,,,,,,,234.7339,236.2866,236.2866,237.3453,return,0.3166,,63.80208333,0,47,47,25,1,FBP-PT-19.png,0.35,1.2,26,0.75,,,,,,,,,,,,,,,,,,,,,,,,,,,,,,,,,,,,,,,,,,,,,
,,,,,V3_029,20,Male,2024-10-21_13h17.20.632,jersey_experiment_5_v3,2023.2.2,Win32,85.47008547,,,,,,,,,,,,,,,,237.3456,238.8984,238.8985,239.8394,return,0.3298,,64.32291667,0,48,48,11,1,FBP-YG-91.png,0.37,1.2,12,0.75,,,,,,,,,,,,,,,,,,,,,,,,,,,,,,,,,,,,,,,,,,,,,
,,,,,V3_029,20,Male,2024-10-21_13h17.20.632,jersey_experiment_5_v3,2023.2.2,Win32,85.47008547,,,,,,,,,,,,,,,,239.8396,241.3924,241.3925,244.6631,return,0.5116,,48.69791667,0,49,49,47,1,FBP-RB-17.png,0.4,1.2,48,0.75,,,,,,,,,,,,,,,,,,,,,,,,,,,,,,,,,,,,,,,,,,,,,
,,,,,V3_029,20,Male,2024-10-21_13h17.20.632,jersey_experiment_5_v3,2023.2.2,Win32,85.47008547,,,,,,,,,,,,,,,,244.6633,246.2161,246.2161,248.1694,return,0.3127,,93.88020833,0,50,50,54,1,FBP-RB-18.png,0.45,1.2,55,0.75,,,,,,,,,,,,,,,,,,,,,,,,,,,,,,,,,,,,,,,,,,,,,
,,,,,V3_029,20,Male,2024-10-21_13h17.20.632,jersey_experiment_5_v3,2023.2.2,Win32,85.47008547,,,,,,,,,,,,,,,,248.1696,249.4632,249.4633,251.7106,return,0.2492,,48.56770833,0,51,51,40,1,FBP-OG-19.png,0.35,1.2,41,0.5,,,,,,,,,,,,,,,,,,,,,,,,,,,,,,,,,,,,,,,,,,,,,
,,,,,V3_029,20,Male,2024-10-21_13h17.20.632,jersey_experiment_5_v3,2023.2.2,Win32,85.47008547,,,,,,,,,,,,,,,,251.7108,253.2635,253.2635,254.2164,return,0.1807,,75.26041667,0,52,52,17,1,FBP-PT-17.png,0.4,1.2,18,0.75,,,,,,,,,,,,,,,,,,,,,,,,,,,,,,,,,,,,,,,,,,,,,
,,,,,V3_029,20,Male,2024-10-21_13h17.20.632,jersey_experiment_5_v3,2023.2.2,Win32,85.47008547,,,,,,,,,,,,,,,,254.2167,255.5106,255.5107,256.4755,return,0.1558,,23.69791667,0,53,53,35,1,FBP-OG-18.png,0.35,1.2,36,0.5,,,,,,,,,,,,,,,,,,,,,,,,,,,,,,,,,,,,,,,,,,,,,
,,,,,V3_029,20,Male,2024-10-21_13h17.20.632,jersey_experiment_5_v3,2023.2.2,Win32,85.47008547,,,,,,,,,,,,,,,,256.4758,258.0282,258.0283,259.8873,return,0.0814,,49.609375,0,54,54,55,1,FBP-RB-19.png,0.35,1.2,56,0.75,,,,,,,,,,,,,,,,,,,,,,,,,,,,,,,,,,,,,,,,,,,,,
,,,,,V3_029,20,Male,2024-10-21_13h17.20.632,jersey_experiment_5_v3,2023.2.2,Win32,85.47008547,,,,,,,,,,,,,,,,259.8876,261.4402,261.4402,262.5697,return,0.2417,,74.73958333,0,55,55,51,1,FBP-RB-18.png,0.37,1.2,52,0.75,,,,,,,,,,,,,,,,,,,,,,,,,,,,,,,,,,,,,,,,,,,,,
,,,,,V3_029,20,Male,2024-10-21_13h17.20.632,jersey_experiment_5_v3,2023.2.2,Win32,85.47008547,,,,,,,,,,,,,,,,262.5701,264.1226,264.1227,265.9816,return,0.1278,,66.27604167,0,56,56,20,1,FBP-PT-18.png,0.35,1.2,21,0.75,,,,,,,,,,,,,,,,,,,,,,,,,,,,,,,,,,,,,,,,,,,,,
,,,,,V3_029,20,Male,2024-10-21_13h17.20.632,jersey_experiment_5_v3,2023.2.2,Win32,85.47008547,,,,,,,,,,,,,,,,265.9819,267.5346,267.5347,268.1229,return,0.0385,,66.27604167,0,57,57,5,1,FBP-YG-81.png,0.35,1.2,6,0.75,,,,,,,,,,,,,,,,,,,,,,,,,,,,,,,,,,,,,,,,,,,,,
,,,,,V3_029,20,Male,2024-10-21_13h17.20.632,jersey_experiment_5_v3,2023.2.2,Win32,85.47008547,,,,,,,,,,,,,,,,268.1231,269.6759,269.6759,271.0172,return,0.1793,,99.08854167,0,58,58,29,1,FBP-PT-19.png,0.45,1.2,30,0.75,,,,,,,,,,,,,,,,,,,,,,,,,,,,,,,,,,,,,,,,,,,,,
,,,,,V3_029,20,Male,2024-10-21_13h17.20.632,jersey_experiment_5_v3,2023.2.2,Win32,85.47008547,,,,,,,,,,,,,,,,271.0175,272.5702,272.5703,273.5702,return,0.2146,,99.21875,0,59,59,24,1,FBP-PT-18.png,0.45,1.2,25,0.75,,,,,,,,,,,,,,,,,,,,,,,,,,,,,,,,,,,,,,,,,,,,,
,,,,,V3_029,20,Male,2024-10-21_13h17.20.632,jersey_experiment_5_v3,2023.2.2,Win32,85.47008547,,,,,,,,,,,,,,,,273.5721,275.1232,275.1233,276.2174,return,0.0876,,99.47916667,,,,,,FBP-RB-91.png,0.45,1.2,60,0.75,0,0,0,59,1,,,,,,,,,,,,,,,,,,,,,,,,,,,,,,,,,,,,,,,,
,,,,,V3_029,20,Male,2024-10-21_13h17.20.632,jersey_experiment_5_v3,2023.2.2,Win32,85.47008547,,,,,,,,,,,,,,,,276.2176,277.7704,277.7704,279.0644,return,0.2663,,50.390625,,,,,,FBP-RB-71.png,0.35,1.2,46,0.75,0,1,1,45,1,,,,,,,,,,,,,,,,,,,,,,,,,,,,,,,,,,,,,,,,
,,,,,V3_029,20,Male,2024-10-21_13h17.20.632,jersey_experiment_5_v3,2023.2.2,Win32,85.47008547,,,,,,,,,,,,,,,,279.0646,280.3585,280.3585,281.7117,return,0.1896,,74.21875,,,,,,FBP-OG-81.png,0.43,1.2,39,0.5,0,2,2,38,1,,,,,,,,,,,,,,,,,,,,,,,,,,,,,,,,,,,,,,,,
,,,,,V3_029,20,Male,2024-10-21_13h17.20.632,jersey_experiment_5_v3,2023.2.2,Win32,85.47008547,,,,,,,,,,,,,,,,281.7119,283.2646,283.2647,284.4177,return,0.6052,,88.28125,,,,,,FBP-PT-91.png,0.4,1.2,28,0.75,0,3,3,27,1,,,,,,,,,,,,,,,,,,,,,,,,,,,,,,,,,,,,,,,,
,,,,,V3_029,20,Male,2024-10-21_13h17.20.632,jersey_experiment_5_v3,2023.2.2,Win32,85.47008547,,,,,,,,,,,,,,,,284.4179,285.7118,285.7118,287.8414,return,1.1863,,69.140625,,,,,,FBP-OG-91.png,0.35,1.2,41,0.5,0,4,4,40,1,,,,,,,,,,,,,,,,,,,,,,,,,,,,,,,,,,,,,,,,
,,,,,V3_029,20,Male,2024-10-21_13h17.20.632,jersey_experiment_5_v3,2023.2.2,Win32,85.47008547,,,,,,,,,,,,,,,,287.8416,289.3942,289.3943,291.7944,return,0.9882,,63.28125,,,,,,FBP-PT-81.png,0.37,1.2,22,0.75,0,5,5,21,1,,,,,,,,,,,,,,,,,,,,,,,,,,,,,,,,,,,,,,,,
,,,,,V3_029,20,Male,2024-10-21_13h17.20.632,jersey_experiment_5_v3,2023.2.2,Win32,85.47008547,,,,,,,,,,,,,,,,291.7947,293.0885,293.0885,295.9357,return,0.1652,,66.015625,,,,,,FBP-OG-91.png,0.43,1.2,44,0.5,0,6,6,43,1,,,,,,,,,,,,,,,,,,,,,,,,,,,,,,,,,,,,,,,,
,,,,,V3_029,20,Male,2024-10-21_13h17.20.632,jersey_experiment_5_v3,2023.2.2,Win32,85.47008547,,,,,,,,,,,,,,,,295.936,297.4888,297.4888,299.0419,return,0.3383,,58.203125,,,,,,FBP-YG-17.png,0.35,1.2,1,0.75,0,7,7,0,1,,,,,,,,,,,,,,,,,,,,,,,,,,,,,,,,,,,,,,,,
,,,,,V3_029,20,Male,2024-10-21_13h17.20.632,jersey_experiment_5_v3,2023.2.2,Win32,85.47008547,,,,,,,,,,,,,,,,299.0421,300.5947,300.5947,301.8183,return,0.2495,,73.17708333,,,,,,FBP-PT-81.png,0.35,1.2,21,0.75,0,8,8,20,1,,,,,,,,,,,,,,,,,,,,,,,,,,,,,,,,,,,,,,,,
,,,,,V3_029,20,Male,2024-10-21_13h17.20.632,jersey_experiment_5_v3,2023.2.2,Win32,85.47008547,,,,,,,,,,,,,,,,301.8186,303.3712,303.3713,305.5831,return,1.35,,86.97916667,,,,,,FBP-YG-18.png,0.43,1.2,9,0.75,0,9,9,8,1,,,,,,,,,,,,,,,,,,,,,,,,,,,,,,,,,,,,,,,,
,,,,,V3_029,20,Male,2024-10-21_13h17.20.632,jersey_experiment_5_v3,2023.2.2,Win32,85.47008547,,,,,,,,,,,,,,,,305.5834,306.8773,306.8773,308.0773,return,0.3862,,88.41145833,,,,,,FBP-OG-81.png,0.45,1.2,40,0.5,0,10,10,39,1,,,,,,,,,,,,,,,,,,,,,,,,,,,,,,,,,,,,,,,,
,,,,,V3_029,20,Male,2024-10-21_13h17.20.632,jersey_experiment_5_v3,2023.2.2,Win32,85.47008547,,,,,,,,,,,,,,,,308.0776,309.6303,309.6303,311.4421,return,0.2669,,68.88020833,,,,,,FBP-YG-19.png,0.4,1.2,13,0.75,0,11,11,12,1,,,,,,,,,,,,,,,,,,,,,,,,,,,,,,,,,,,,,,,,
,,,,,V3_029,20,Male,2024-10-21_13h17.20.632,jersey_experiment_5_v3,2023.2.2,Win32,85.47008547,,,,,,,,,,,,,,,,311.4424,312.9951,312.9951,314.1718,return,0.297,,98.828125,,,,,,FBP-YG-18.png,0.45,1.2,10,0.75,0,12,12,9,1,,,,,,,,,,,,,,,,,,,,,,,,,,,,,,,,,,,,,,,,
,,,,,V3_029,20,Male,2024-10-21_13h17.20.632,jersey_experiment_5_v3,2023.2.2,Win32,85.47008547,,,,,,,,,,,,,,,,314.1721,315.7247,315.7247,317.2659,return,0.3669,,26.04166667,,,,,,FBP-RB-81.png,0.35,1.2,51,0.75,0,13,13,50,1,,,,,,,,,,,,,,,,,,,,,,,,,,,,,,,,,,,,,,,,
,,,,,V3_029,20,Male,2024-10-21_13h17.20.632,jersey_experiment_5_v3,2023.2.2,Win32,85.47008547,,,,,,,,,,,,,,,,317.2662,318.8188,318.8188,320.3365,return,0.2664,,35.41666667,,,,,,FBP-YG-18.png,0.35,1.2,6,0.75,0,14,14,5,1,,,,,,,,,,,,,,,,,,,,,,,,,,,,,,,,,,,,,,,,
,,,,,V3_029,20,Male,2024-10-21_13h17.20.632,jersey_experiment_5_v3,2023.2.2,Win32,85.47008547,,,,,,,,,,,,,,,,320.3367,321.8895,321.8896,322.8071,return,0.2205,,75.13020833,,,,,,FBP-YG-17.png,0.45,1.2,5,0.75,0,15,15,4,1,,,,,,,,,,,,,,,,,,,,,,,,,,,,,,,,,,,,,,,,
,,,,,V3_029,20,Male,2024-10-21_13h17.20.632,jersey_experiment_5_v3,2023.2.2,Win32,85.47008547,,,,,,,,,,,,,,,,322.8073,324.3603,324.3603,325.1956,return,0.2978,,74.21875,,,,,,FBP-PT-81.png,0.4,1.2,23,0.75,0,16,16,22,1,,,,,,,,,,,,,,,,,,,,,,,,,,,,,,,,,,,,,,,,
,,,,,V3_029,20,Male,2024-10-21_13h17.20.632,jersey_experiment_5_v3,2023.2.2,Win32,85.47008547,,,,,,,,,,,,,,,,325.1958,326.7486,326.7487,328.0429,return,0.2521,,50.78125,,,,,,FBP-YG-19.png,0.35,1.2,11,0.75,0,17,17,10,1,,,,,,,,,,,,,,,,,,,,,,,,,,,,,,,,,,,,,,,,
,,,,,V3_029,20,Male,2024-10-21_13h17.20.632,jersey_experiment_5_v3,2023.2.2,Win32,85.47008547,,,,,,,,,,,,,,,,328.0431,329.5958,329.5958,332.537,return,1.6418,,50.65104167,,,,,,FBP-RB-81.png,0.37,1.2,52,0.75,0,18,18,51,1,,,,,,,,,,,,,,,,,,,,,,,,,,,,,,,,,,,,,,,,
,,,,,V3_029,20,Male,2024-10-21_13h17.20.632,jersey_experiment_5_v3,2023.2.2,Win32,85.47008547,,,,,,,,,,,,,,,,332.5373,334.0901,334.0901,336.5136,return,1.2238,,37.890625,,,,,,FBP-YG-17.png,0.37,1.2,2,0.75,0,19,19,1,1,,,,,,,,,,,,,,,,,,,,,,,,,,,,,,,,,,,,,,,,
,,,,,V3_029,20,Male,2024-10-21_13h17.20.632,jersey_experiment_5_v3,2023.2.2,Win32,85.47008547,,,,,,,,,,,,,,,,336.5139,337.8078,337.808,340.5373,return,0.5357,,60.41666667,,,,,,FBP-OG-91.png,0.4,1.2,43,0.5,0,20,20,42,1,,,,,,,,,,,,,,,,,,,,,,,,,,,,,,,,,,,,,,,,
,,,,,V3_029,20,Male,2024-10-21_13h17.20.632,jersey_experiment_5_v3,2023.2.2,Win32,85.47008547,,,,,,,,,,,,,,,,340.5375,341.8314,341.8315,343.808,return,0.1865,,60.546875,,,,,,FBP-OG-71.png,0.4,1.2,33,0.5,0,21,21,32,1,,,,,,,,,,,,,,,,,,,,,,,,,,,,,,,,,,,,,,,,
,,,,,V3_029,20,Male,2024-10-21_13h17.20.632,jersey_experiment_5_v3,2023.2.2,Win32,85.47008547,,,,,,,,,,,,,,,,343.8082,345.1023,345.1023,346.5845,return,0.7251,,62.23958333,,,,,,FBP-OG-81.png,0.35,1.2,36,0.5,0,22,22,35,1,,,,,,,,,,,,,,,,,,,,,,,,,,,,,,,,,,,,,,,,
,,,,,V3_029,20,Male,2024-10-21_13h17.20.632,jersey_experiment_5_v3,2023.2.2,Win32,85.47008547,,,,,,,,,,,,,,,,346.5849,348.1377,348.1378,352.5377,return,1.9472,,57.03125,,,,,,FBP-RB-71.png,0.37,1.2,47,0.75,0,23,23,46,1,,,,,,,,,,,,,,,,,,,,,,,,,,,,,,,,,,,,,,,,
,,,,,V3_029,20,Male,2024-10-21_13h17.20.632,jersey_experiment_5_v3,2023.2.2,Win32,85.47008547,,,,,,,,,,,,,,,,352.5379,353.8318,353.8318,355.2438,return,0.2621,,87.76041667,,,,,,FBP-OG-91.png,0.45,1.2,45,0.5,0,24,24,44,1,,,,,,,,,,,,,,,,,,,,,,,,,,,,,,,,,,,,,,,,
,,,,,V3_029,20,Male,2024-10-21_13h17.20.632,jersey_experiment_5_v3,2023.2.2,Win32,85.47008547,,,,,,,,,,,,,,,,355.244,356.7966,356.7967,358.3027,return,0.3059,,85.67708333,,,,,,FBP-RB-91.png,0.4,1.2,58,0.75,0,25,25,57,1,,,,,,,,,,,,,,,,,,,,,,,,,,,,,,,,,,,,,,,,
,,,,,V3_029,20,Male,2024-10-21_13h17.20.632,jersey_experiment_5_v3,2023.2.2,Win32,85.47008547,,,,,,,,,,,,,,,,358.3028,359.8557,359.8558,361.0323,return,0.2625,,87.36979167,,,,,,FBP-RB-71.png,0.4,1.2,48,0.75,0,26,26,47,1,,,,,,,,,,,,,,,,,,,,,,,,,,,,,,,,,,,,,,,,
,,,,,V3_029,20,Male,2024-10-21_13h17.20.632,jersey_experiment_5_v3,2023.2.2,Win32,85.47008547,,,,,,,,,,,,,,,,361.0326,362.5851,362.5852,364.1029,return,0.2308,,64.97395833,,,,,,FBP-YG-19.png,0.37,1.2,12,0.75,0,27,27,11,1,,,,,,,,,,,,,,,,,,,,,,,,,,,,,,,,,,,,,,,,
,,,,,V3_029,20,Male,2024-10-21_13h17.20.632,jersey_experiment_5_v3,2023.2.2,Win32,85.47008547,,,,,,,,,,,,,,,,364.1031,365.656,365.6561,367.0794,return,0.185,,45.703125,,,,,,FBP-PT-71.png,0.37,1.2,17,0.75,0,28,28,16,1,,,,,,,,,,,,,,,,,,,,,,,,,,,,,,,,,,,,,,,,
,,,,,V3_029,20,Male,2024-10-21_13h17.20.632,jersey_experiment_5_v3,2023.2.2,Win32,85.47008547,,,,,,,,,,,,,,,,367.0797,368.6324,368.6324,370.9738,return,1.6328,,37.109375,,,,,,FBP-PT-91.png,0.37,1.2,27,0.75,0,29,29,26,1,,,,,,,,,,,,,,,,,,,,,,,,,,,,,,,,,,,,,,,,
,,,,,V3_029,20,Male,2024-10-21_13h17.20.632,jersey_experiment_5_v3,2023.2.2,Win32,85.47008547,,,,,,,,,,,,,,,,370.9741,372.2679,372.268,374.4562,return,0.4171,,37.23958333,,,,,,FBP-OG-71.png,0.37,1.2,32,0.5,0,30,30,31,1,,,,,,,,,,,,,,,,,,,,,,,,,,,,,,,,,,,,,,,,
,,,,,V3_029,20,Male,2024-10-21_13h17.20.632,jersey_experiment_5_v3,2023.2.2,Win32,85.47008547,,,,,,,,,,,,,,,,374.4564,376.0093,376.0094,377.3742,return,0.1665,,60.546875,,,,,,FBP-PT-71.png,0.4,1.2,18,0.75,0,31,31,17,1,,,,,,,,,,,,,,,,,,,,,,,,,,,,,,,,,,,,,,,,
,,,,,V3_029,20,Male,2024-10-21_13h17.20.632,jersey_experiment_5_v3,2023.2.2,Win32,85.47008547,,,,,,,,,,,,,,,,377.3745,378.6681,378.6681,379.833,return,0.5128,,61.71875,,,,,,FBP-OG-81.png,0.4,1.2,38,0.5,0,32,32,37,1,,,,,,,,,,,,,,,,,,,,,,,,,,,,,,,,,,,,,,,,
,,,,,V3_029,20,Male,2024-10-21_13h17.20.632,jersey_experiment_5_v3,2023.2.2,Win32,85.47008547,,,,,,,,,,,,,,,,379.8332,381.3859,381.3859,386.6214,return,3.2816,,62.23958333,,,,,,FBP-YG-17.png,0.4,1.2,3,0.75,0,33,33,2,1,,,,,,,,,,,,,,,,,,,,,,,,,,,,,,,,,,,,,,,,
,,,,,V3_029,20,Male,2024-10-21_13h17.20.632,jersey_experiment_5_v3,2023.2.2,Win32,85.47008547,,,,,,,,,,,,,,,,386.6216,388.1744,388.1745,390.2803,return,0.9922,,92.44791667,,,,,,FBP-PT-91.png,0.45,1.2,30,0.75,0,34,34,29,1,,,,,,,,,,,,,,,,,,,,,,,,,,,,,,,,,,,,,,,,
,,,,,V3_029,20,Male,2024-10-21_13h17.20.632,jersey_experiment_5_v3,2023.2.2,Win32,85.47008547,,,,,,,,,,,,,,,,390.2806,391.5745,391.5746,393.9511,return,0.2358,,89.0625,,,,,,FBP-OG-71.png,0.45,1.2,35,0.5,0,35,35,34,1,,,,,,,,,,,,,,,,,,,,,,,,,,,,,,,,,,,,,,,,
,,,,,V3_029,20,Male,2024-10-21_13h17.20.632,jersey_experiment_5_v3,2023.2.2,Win32,85.47008547,,,,,,,,,,,,,,,,393.9512,395.504,395.504,397.1631,return,0.1226,,58.85416667,,,,,,FBP-PT-91.png,0.35,1.2,26,0.75,0,36,36,25,1,,,,,,,,,,,,,,,,,,,,,,,,,,,,,,,,,,,,,,,,
,,,,,V3_029,20,Male,2024-10-21_13h17.20.632,jersey_experiment_5_v3,2023.2.2,Win32,85.47008547,,,,,,,,,,,,,,,,397.1633,398.4571,398.4572,400.1042,return,0.5331,,59.89583333,,,,,,FBP-OG-91.png,0.37,1.2,42,0.5,0,37,37,41,1,,,,,,,,,,,,,,,,,,,,,,,,,,,,,,,,,,,,,,,,
,,,,,V3_029,20,Male,2024-10-21_13h17.20.632,jersey_experiment_5_v3,2023.2.2,Win32,85.47008547,,,,,,,,,,,,,,,,400.1044,401.6573,401.6573,402.5867,return,0.3093,,74.609375,,,,,,FBP-RB-71.png,0.43,1.2,49,0.75,0,38,38,48,1,,,,,,,,,,,,,,,,,,,,,,,,,,,,,,,,,,,,,,,,
,,,,,V3_029,20,Male,2024-10-21_13h17.20.632,jersey_experiment_5_v3,2023.2.2,Win32,85.47008547,,,,,,,,,,,,,,,,402.587,403.8809,403.8809,404.7633,return,0.0988,,79.296875,,,,,,FBP-OG-71.png,0.43,1.2,34,0.5,0,39,39,33,1,,,,,,,,,,,,,,,,,,,,,,,,,,,,,,,,,,,,,,,,
,,,,,V3_029,20,Male,2024-10-21_13h17.20.632,jersey_experiment_5_v3,2023.2.2,Win32,85.47008547,,,,,,,,,,,,,,,,404.7634,406.3046,406.3047,408.0928,return,1.2001,,89.19270833,,,,,,FBP-PT-81.png,0.45,1.2,25,0.75,0,40,40,24,1,,,,,,,,,,,,,,,,,,,,,,,,,,,,,,,,,,,,,,,,
,,,,,V3_029,20,Male,2024-10-21_13h17.20.632,jersey_experiment_5_v3,2023.2.2,Win32,85.47008547,,,,,,,,,,,,,,,,408.0929,409.6342,409.6342,410.6223,return,0.4597,,97.265625,,,,,,FBP-RB-71.png,0.45,1.2,50,0.75,0,41,41,49,1,,,,,,,,,,,,,,,,,,,,,,,,,,,,,,,,,,,,,,,,
,,,,,V3_029,20,Male,2024-10-21_13h17.20.632,jersey_experiment_5_v3,2023.2.2,Win32,85.47008547,,,,,,,,,,,,,,,,410.6225,412.1754,412.1754,413.5639,return,0.0748,,71.74479167,,,,,,FBP-RB-81.png,0.4,1.2,53,0.75,0,42,42,52,1,,,,,,,,,,,,,,,,,,,,,,,,,,,,,,,,,,,,,,,,
,,,,,V3_029,20,Male,2024-10-21_13h17.20.632,jersey_experiment_5_v3,2023.2.2,Win32,85.47008547,,,,,,,,,,,,,,,,413.5642,415.1167,415.1167,417.3402,return,0.097,,59.375,,,,,,FBP-PT-71.png,0.35,1.2,16,0.75,0,43,43,15,1,,,,,,,,,,,,,,,,,,,,,,,,,,,,,,,,,,,,,,,,
,,,,,V3_029,20,Male,2024-10-21_13h17.20.632,jersey_experiment_5_v3,2023.2.2,Win32,85.47008547,,,,,,,,,,,,,,,,417.3403,418.8933,418.8934,419.6109,return,0.0992,,77.08333333,,,,,,FBP-RB-91.png,0.43,1.2,59,0.75,0,44,44,58,1,,,,,,,,,,,,,,,,,,,,,,,,,,,,,,,,,,,,,,,,
,,,,,V3_029,20,Male,2024-10-21_13h17.20.632,jersey_experiment_5_v3,2023.2.2,Win32,85.47008547,,,,,,,,,,,,,,,,419.6112,421.1639,421.1639,422.4933,return,0.7554,,70.96354167,,,,,,FBP-RB-81.png,0.45,1.2,55,0.75,0,45,45,54,1,,,,,,,,,,,,,,,,,,,,,,,,,,,,,,,,,,,,,,,,
,,,,,V3_029,20,Male,2024-10-21_13h17.20.632,jersey_experiment_5_v3,2023.2.2,Win32,85.47008547,,,,,,,,,,,,,,,,422.4935,424.0464,424.0464,424.8465,return,0.0622,,57.68229167,,,,,,FBP-RB-91.png,0.35,1.2,56,0.75,0,46,46,55,1,,,,,,,,,,,,,,,,,,,,,,,,,,,,,,,,,,,,,,,,
,,,,,V3_029,20,Male,2024-10-21_13h17.20.632,jersey_experiment_5_v3,2023.2.2,Win32,85.47008547,,,,,,,,,,,,,,,,424.8466,426.3994,426.3994,428.3289,return,0.2653,,74.73958333,,,,,,FBP-RB-81.png,0.43,1.2,54,0.75,0,47,47,53,1,,,,,,,,,,,,,,,,,,,,,,,,,,,,,,,,,,,,,,,,
,,,,,V3_029,20,Male,2024-10-21_13h17.20.632,jersey_experiment_5_v3,2023.2.2,Win32,85.47008547,,,,,,,,,,,,,,,,428.3291,429.8819,429.8819,431.6819,return,1.059,,86.06770833,,,,,,FBP-PT-71.png,0.45,1.2,20,0.75,0,48,48,19,1,,,,,,,,,,,,,,,,,,,,,,,,,,,,,,,,,,,,,,,,
,,,,,V3_029,20,Male,2024-10-21_13h17.20.632,jersey_experiment_5_v3,2023.2.2,Win32,85.47008547,,,,,,,,,,,,,,,,431.6821,433.2348,433.2349,434.8468,return,1.035,,86.58854167,,,,,,FBP-PT-91.png,0.43,1.2,29,0.75,0,49,49,28,1,,,,,,,,,,,,,,,,,,,,,,,,,,,,,,,,,,,,,,,,
,,,,,V3_029,20,Male,2024-10-21_13h17.20.632,jersey_experiment_5_v3,2023.2.2,Win32,85.47008547,,,,,,,,,,,,,,,,434.847,436.3997,436.3997,438.9293,return,0.764,,56.51041667,,,,,,FBP-RB-91.png,0.37,1.2,57,0.75,0,50,50,56,1,,,,,,,,,,,,,,,,,,,,,,,,,,,,,,,,,,,,,,,,
,,,,,V3_029,20,Male,2024-10-21_13h17.20.632,jersey_experiment_5_v3,2023.2.2,Win32,85.47008547,,,,,,,,,,,,,,,,438.9297,440.4822,440.4823,441.6,return,0.3058,,69.140625,,,,,,FBP-YG-19.png,0.43,1.2,14,0.75,0,51,51,13,1,,,,,,,,,,,,,,,,,,,,,,,,,,,,,,,,,,,,,,,,
,,,,,V3_029,20,Male,2024-10-21_13h17.20.632,jersey_experiment_5_v3,2023.2.2,Win32,85.47008547,,,,,,,,,,,,,,,,441.6003,443.153,443.1531,445.553,return,1.0374,,61.58854167,,,,,,FBP-YG-17.png,0.43,1.2,4,0.75,0,52,52,3,1,,,,,,,,,,,,,,,,,,,,,,,,,,,,,,,,,,,,,,,,
,,,,,V3_029,20,Male,2024-10-21_13h17.20.632,jersey_experiment_5_v3,2023.2.2,Win32,85.47008547,,,,,,,,,,,,,,,,445.5532,447.1059,447.106,448.6472,return,0.5028,,70.57291667,,,,,,FBP-PT-81.png,0.43,1.2,24,0.75,0,53,53,23,1,,,,,,,,,,,,,,,,,,,,,,,,,,,,,,,,,,,,,,,,
,,,,,V3_029,20,Male,2024-10-21_13h17.20.632,jersey_experiment_5_v3,2023.2.2,Win32,85.47008547,,,,,,,,,,,,,,,,448.6474,450.2002,450.2002,452.6003,return,1.3254,,55.859375,,,,,,FBP-YG-18.png,0.4,1.2,8,0.75,0,54,54,7,1,,,,,,,,,,,,,,,,,,,,,,,,,,,,,,,,,,,,,,,,
,,,,,V3_029,20,Male,2024-10-21_13h17.20.632,jersey_experiment_5_v3,2023.2.2,Win32,85.47008547,,,,,,,,,,,,,,,,452.6006,454.1533,454.1533,455.3417,return,0.1331,,61.71875,,,,,,FBP-YG-19.png,0.45,1.2,15,0.75,0,55,55,14,1,,,,,,,,,,,,,,,,,,,,,,,,,,,,,,,,,,,,,,,,
,,,,,V3_029,20,Male,2024-10-21_13h17.20.632,jersey_experiment_5_v3,2023.2.2,Win32,85.47008547,,,,,,,,,,,,,,,,455.342,456.8946,456.8947,458.0947,return,0.6365,,55.20833333,,,,,,FBP-YG-18.png,0.37,1.2,7,0.75,0,56,56,6,1,,,,,,,,,,,,,,,,,,,,,,,,,,,,,,,,,,,,,,,,
,,,,,V3_029,20,Male,2024-10-21_13h17.20.632,jersey_experiment_5_v3,2023.2.2,Win32,85.47008547,,,,,,,,,,,,,,,,458.0948,459.3888,459.3889,461.6242,return,0.4902,,56.640625,,,,,,FBP-OG-81.png,0.37,1.2,37,0.5,0,57,57,36,1,,,,,,,,,,,,,,,,,,,,,,,,,,,,,,,,,,,,,,,,
,,,,,V3_029,20,Male,2024-10-21_13h17.20.632,jersey_experiment_5_v3,2023.2.2,Win32,85.47008547,,,,,,,,,,,,,,,,461.6245,462.9182,462.9183,464.3654,return,0.5301,,57.68229167,,,,,,FBP-OG-71.png,0.35,1.2,31,0.5,0,58,58,30,1,,,,,,,,,,,,,,,,,,,,,,,,,,,,,,,,,,,,,,,,
,,,,,V3_029,20,Male,2024-10-21_13h17.20.632,jersey_experiment_5_v3,2023.2.2,Win32,85.47008547,,,,,,,,,,,,,,,,464.3657,465.9185,465.9186,467.201,return,0.3216,,74.609375,,,,,,FBP-PT-71.png,0.43,1.2,19,0.75,0,59,59,18,1,,,,,,,,,,,,,,,,,,,,,,,,,,,,,,,,,,,,,,,,
,,,,,V3_029,20,Male,2024-10-21_13h17.20.632,jersey_experiment_5_v3,2023.2.2,Win32,85.47008547,,,,,,,,,,,,,,,,,,,,,,,,,,,,,,,,,,,,,,,467.2012,587.1937,,,,,,,,,,,,,,,,,,,,,,,,,,,,,,,,,,,,,,
,,,,,V3_029,20,Male,2024-10-21_13h17.20.632,jersey_experiment_5_v3,2023.2.2,Win32,85.47008547,,,,,,,,,,,,,,,,,,,,,,,,,,,,,,,,,,,,,,,,,587.1938,588.876,return,1.6704,,,,,,,,,,,,,,,,,,,,,,,,,,,,,,,,,,
,,,,,V3_029,20,Male,2024-10-21_13h17.20.632,jersey_experiment_5_v3,2023.2.2,Win32,85.47008547,,,,,,,,,,,,,,,,588.8778,590.4291,590.4291,592.3702,return,0.6353,,75.13020833,,,,,,FBP-OG-18.png,0.45,1.2,40,0.75,,,,,,,,,,,,,0,0,0,39,1,,,,,,,,,,,,,,,,,,,,,,,,,,,,
,,,,,V3_029,20,Male,2024-10-21_13h17.20.632,jersey_experiment_5_v3,2023.2.2,Win32,85.47008547,,,,,,,,,,,,,,,,592.3705,593.9233,593.9233,595.8526,return,1.3753,,62.23958333,,,,,,FBP-OG-19.png,0.43,1.2,44,0.75,,,,,,,,,,,,,0,1,1,43,1,,,,,,,,,,,,,,,,,,,,,,,,,,,,
,,,,,V3_029,20,Male,2024-10-21_13h17.20.632,jersey_experiment_5_v3,2023.2.2,Win32,85.47008547,,,,,,,,,,,,,,,,595.8528,597.147,597.1471,598.1705,return,0.0959,,75.91145833,,,,,,FBP-PT-18.png,0.45,1.2,25,0.5,,,,,,,,,,,,,0,2,2,24,1,,,,,,,,,,,,,,,,,,,,,,,,,,,,
,,,,,V3_029,20,Male,2024-10-21_13h17.20.632,jersey_experiment_5_v3,2023.2.2,Win32,85.47008547,,,,,,,,,,,,,,,,598.1708,599.4645,599.4645,600.2057,return,0.1067,,64.453125,,,,,,FBP-RB-17.png,0.43,1.2,49,0.5,,,,,,,,,,,,,0,3,3,48,1,,,,,,,,,,,,,,,,,,,,,,,,,,,,
,,,,,V3_029,20,Male,2024-10-21_13h17.20.632,jersey_experiment_5_v3,2023.2.2,Win32,85.47008547,,,,,,,,,,,,,,,,600.206,601.7472,601.7472,602.559,return,0.106,,50,,,,,,FBP-OG-17.png,0.37,1.2,32,0.75,,,,,,,,,,,,,0,4,4,31,1,,,,,,,,,,,,,,,,,,,,,,,,,,,,
,,,,,V3_029,20,Male,2024-10-21_13h17.20.632,jersey_experiment_5_v3,2023.2.2,Win32,85.47008547,,,,,,,,,,,,,,,,602.5592,603.853,603.853,604.6648,return,0.0659,,62.890625,,,,,,FBP-RB-18.png,0.4,1.2,53,0.5,,,,,,,,,,,,,0,5,5,52,1,,,,,,,,,,,,,,,,,,,,,,,,,,,,
,,,,,V3_029,20,Male,2024-10-21_13h17.20.632,jersey_experiment_5_v3,2023.2.2,Win32,85.47008547,,,,,,,,,,,,,,,,604.6651,605.959,605.959,606.3943,return,0.029,,62.63020833,,,,,,FBP-RB-17.png,0.4,1.2,48,0.5,,,,,,,,,,,,,0,6,6,47,1,,,,,,,,,,,,,,,,,,,,,,,,,,,,
,,,,,V3_029,20,Male,2024-10-21_13h17.20.632,jersey_experiment_5_v3,2023.2.2,Win32,85.47008547,,,,,,,,,,,,,,,,606.3945,607.9473,607.9473,608.3472,return,0.0381,,57.68229167,,,,,,FBP-OG-19.png,0.37,1.2,42,0.75,,,,,,,,,,,,,0,7,7,41,1,,,,,,,,,,,,,,,,,,,,,,,,,,,,
,,,,,V3_029,20,Male,2024-10-21_13h17.20.632,jersey_experiment_5_v3,2023.2.2,Win32,85.47008547,,,,,,,,,,,,,,,,608.3475,609.6415,609.6415,610.218,return,0.0882,,59.11458333,,,,,,FBP-YG-81.png,0.37,1.2,7,0.5,,,,,,,,,,,,,0,8,8,6,1,,,,,,,,,,,,,,,,,,,,,,,,,,,,
,,,,,V3_029,20,Male,2024-10-21_13h17.20.632,jersey_experiment_5_v3,2023.2.2,Win32,85.47008547,,,,,,,,,,,,,,,,610.2182,611.5121,611.5121,612.7592,return,0.4674,,84.375,,,,,,FBP-RB-18.png,0.45,1.2,55,0.5,,,,,,,,,,,,,0,9,9,54,1,,,,,,,,,,,,,,,,,,,,,,,,,,,,
,,,,,V3_029,20,Male,2024-10-21_13h17.20.632,jersey_experiment_5_v3,2023.2.2,Win32,85.47008547,,,,,,,,,,,,,,,,612.7594,614.3122,614.3122,614.877,return,0.0473,,67.578125,,,,,,FBP-OG-18.png,0.37,1.2,37,0.75,,,,,,,,,,,,,0,10,10,36,1,,,,,,,,,,,,,,,,,,,,,,,,,,,,
,,,,,V3_029,20,Male,2024-10-21_13h17.20.632,jersey_experiment_5_v3,2023.2.2,Win32,85.47008547,,,,,,,,,,,,,,,,614.8772,616.1711,616.1712,617.7124,return,0.7399,,74.609375,,,,,,FBP-YG-91.png,0.43,1.2,14,0.5,,,,,,,,,,,,,0,11,11,13,1,,,,,,,,,,,,,,,,,,,,,,,,,,,,
,,,,,V3_029,20,Male,2024-10-21_13h17.20.632,jersey_experiment_5_v3,2023.2.2,Win32,85.47008547,,,,,,,,,,,,,,,,617.7127,619.0065,619.0065,620.2655,return,0.3008,,49.21875,,,,,,FBP-RB-18.png,0.35,1.2,51,0.5,,,,,,,,,,,,,0,12,12,50,1,,,,,,,,,,,,,,,,,,,,,,,,,,,,
,,,,,V3_029,20,Male,2024-10-21_13h17.20.632,jersey_experiment_5_v3,2023.2.2,Win32,85.47008547,,,,,,,,,,,,,,,,620.2657,621.5595,621.5596,623.2655,return,0.7177,,63.15104167,,,,,,FBP-PT-19.png,0.4,1.2,28,0.5,,,,,,,,,,,,,0,13,13,27,1,,,,,,,,,,,,,,,,,,,,,,,,,,,,
,,,,,V3_029,20,Male,2024-10-21_13h17.20.632,jersey_experiment_5_v3,2023.2.2,Win32,85.47008547,,,,,,,,,,,,,,,,623.2658,624.5598,624.5599,625.7833,return,0.0894,,82.8125,,,,,,FBP-YG-91.png,0.45,1.2,15,0.5,,,,,,,,,,,,,0,14,14,14,1,,,,,,,,,,,,,,,,,,,,,,,,,,,,
,,,,,V3_029,20,Male,2024-10-21_13h17.20.632,jersey_experiment_5_v3,2023.2.2,Win32,85.47008547,,,,,,,,,,,,,,,,625.7835,627.0773,627.0774,628.0305,return,0.1074,,95.96354167,,,,,,FBP-PT-17.png,0.45,1.2,20,0.5,,,,,,,,,,,,,0,15,15,19,1,,,,,,,,,,,,,,,,,,,,,,,,,,,,
,,,,,V3_029,20,Male,2024-10-21_13h17.20.632,jersey_experiment_5_v3,2023.2.2,Win32,85.47008547,,,,,,,,,,,,,,,,628.0307,629.3245,629.3247,630.4423,return,0.1702,,51.171875,,,,,,FBP-RB-17.png,0.37,1.2,47,0.5,,,,,,,,,,,,,0,16,16,46,1,,,,,,,,,,,,,,,,,,,,,,,,,,,,
,,,,,V3_029,20,Male,2024-10-21_13h17.20.632,jersey_experiment_5_v3,2023.2.2,Win32,85.47008547,,,,,,,,,,,,,,,,630.4425,631.7363,631.7363,634.2542,return,0.1266,,62.5,,,,,,FBP-PT-19.png,0.37,1.2,27,0.5,,,,,,,,,,,,,0,17,17,26,1,,,,,,,,,,,,,,,,,,,,,,,,,,,,
,,,,,V3_029,20,Male,2024-10-21_13h17.20.632,jersey_experiment_5_v3,2023.2.2,Win32,85.47008547,,,,,,,,,,,,,,,,634.2546,635.8072,635.8072,637.2896,return,0.1003,,81.25,,,,,,FBP-OG-17.png,0.43,1.2,34,0.75,,,,,,,,,,,,,0,18,18,33,1,,,,,,,,,,,,,,,,,,,,,,,,,,,,
,,,,,V3_029,20,Male,2024-10-21_13h17.20.632,jersey_experiment_5_v3,2023.2.2,Win32,85.47008547,,,,,,,,,,,,,,,,637.2899,638.5838,638.5839,640.7957,return,0.4513,,61.45833333,,,,,,FBP-PT-18.png,0.35,1.2,21,0.5,,,,,,,,,,,,,0,19,19,20,1,,,,,,,,,,,,,,,,,,,,,,,,,,,,
,,,,,V3_029,20,Male,2024-10-21_13h17.20.632,jersey_experiment_5_v3,2023.2.2,Win32,85.47008547,,,,,,,,,,,,,,,,640.7959,642.0896,642.0897,642.878,return,0.0631,,68.09895833,,,,,,FBP-PT-17.png,0.37,1.2,17,0.5,,,,,,,,,,,,,0,20,20,16,1,,,,,,,,,,,,,,,,,,,,,,,,,,,,
,,,,,V3_029,20,Male,2024-10-21_13h17.20.632,jersey_experiment_5_v3,2023.2.2,Win32,85.47008547,,,,,,,,,,,,,,,,642.8783,644.431,644.431,645.3253,return,0.1426,,86.45833333,,,,,,FBP-OG-19.png,0.45,1.2,45,0.75,,,,,,,,,,,,,0,21,21,44,1,,,,,,,,,,,,,,,,,,,,,,,,,,,,
,,,,,V3_029,20,Male,2024-10-21_13h17.20.632,jersey_experiment_5_v3,2023.2.2,Win32,85.47008547,,,,,,,,,,,,,,,,645.3255,646.6194,646.6194,647.8547,return,0.3539,,65.10416667,,,,,,FBP-YG-71.png,0.37,1.2,2,0.5,,,,,,,,,,,,,0,22,22,1,1,,,,,,,,,,,,,,,,,,,,,,,,,,,,
,,,,,V3_029,20,Male,2024-10-21_13h17.20.632,jersey_experiment_5_v3,2023.2.2,Win32,85.47008547,,,,,,,,,,,,,,,,647.8549,649.4076,649.4076,650.1371,return,0.2261,,74.21875,,,,,,FBP-OG-18.png,0.43,1.2,39,0.75,,,,,,,,,,,,,0,23,23,38,1,,,,,,,,,,,,,,,,,,,,,,,,,,,,
,,,,,V3_029,20,Male,2024-10-21_13h17.20.632,jersey_experiment_5_v3,2023.2.2,Win32,85.47008547,,,,,,,,,,,,,,,,650.1372,651.4313,651.4313,652.443,return,0.1692,,74.609375,,,,,,FBP-YG-71.png,0.43,1.2,4,0.5,,,,,,,,,,,,,0,24,24,3,1,,,,,,,,,,,,,,,,,,,,,,,,,,,,
,,,,,V3_029,20,Male,2024-10-21_13h17.20.632,jersey_experiment_5_v3,2023.2.2,Win32,85.47008547,,,,,,,,,,,,,,,,652.4434,653.9962,653.9963,654.8785,return,0.2361,,85.9375,,,,,,FBP-OG-17.png,0.45,1.2,35,0.75,,,,,,,,,,,,,0,25,25,34,1,,,,,,,,,,,,,,,,,,,,,,,,,,,,
,,,,,V3_029,20,Male,2024-10-21_13h17.20.632,jersey_experiment_5_v3,2023.2.2,Win32,85.47008547,,,,,,,,,,,,,,,,654.8788,656.1725,656.1726,657.7257,return,0.0862,,49.86979167,,,,,,FBP-YG-81.png,0.35,1.2,6,0.5,,,,,,,,,,,,,0,26,26,5,1,,,,,,,,,,,,,,,,,,,,,,,,,,,,
,,,,,V3_029,20,Male,2024-10-21_13h17.20.632,jersey_experiment_5_v3,2023.2.2,Win32,85.47008547,,,,,,,,,,,,,,,,657.7259,659.2788,659.2788,660.3139,return,0.5188,,38.41145833,,,,,,FBP-OG-17.png,0.35,1.2,31,0.75,,,,,,,,,,,,,0,27,27,30,1,,,,,,,,,,,,,,,,,,,,,,,,,,,,
,,,,,V3_029,20,Male,2024-10-21_13h17.20.632,jersey_experiment_5_v3,2023.2.2,Win32,85.47008547,,,,,,,,,,,,,,,,660.3142,661.867,661.8671,663.2788,return,0.6592,,38.41145833,,,,,,FBP-OG-19.png,0.35,1.2,41,0.75,,,,,,,,,,,,,0,28,28,40,1,,,,,,,,,,,,,,,,,,,,,,,,,,,,
,,,,,V3_029,20,Male,2024-10-21_13h17.20.632,jersey_experiment_5_v3,2023.2.2,Win32,85.47008547,,,,,,,,,,,,,,,,663.2791,664.5729,664.573,665.5142,return,0.073,,74.86979167,,,,,,FBP-PT-17.png,0.43,1.2,19,0.5,,,,,,,,,,,,,0,29,29,18,1,,,,,,,,,,,,,,,,,,,,,,,,,,,,
,,,,,V3_029,20,Male,2024-10-21_13h17.20.632,jersey_experiment_5_v3,2023.2.2,Win32,85.47008547,,,,,,,,,,,,,,,,665.5145,666.8085,666.8085,668.2201,return,0.5807,,73.56770833,,,,,,FBP-PT-18.png,0.43,1.2,24,0.5,,,,,,,,,,,,,0,30,30,23,1,,,,,,,,,,,,,,,,,,,,,,,,,,,,
,,,,,V3_029,20,Male,2024-10-21_13h17.20.632,jersey_experiment_5_v3,2023.2.2,Win32,85.47008547,,,,,,,,,,,,,,,,668.2204,669.7732,669.7732,672.5732,return,0.2271,,63.28125,,,,,,FBP-OG-18.png,0.4,1.2,38,0.75,,,,,,,,,,,,,0,31,31,37,1,,,,,,,,,,,,,,,,,,,,,,,,,,,,
,,,,,V3_029,20,Male,2024-10-21_13h17.20.632,jersey_experiment_5_v3,2023.2.2,Win32,85.47008547,,,,,,,,,,,,,,,,672.5733,673.8673,673.8674,675.1146,return,0.2287,,74.08854167,,,,,,FBP-RB-19.png,0.37,1.2,57,0.5,,,,,,,,,,,,,0,32,32,56,1,,,,,,,,,,,,,,,,,,,,,,,,,,,,
,,,,,V3_029,20,Male,2024-10-21_13h17.20.632,jersey_experiment_5_v3,2023.2.2,Win32,85.47008547,,,,,,,,,,,,,,,,675.1148,676.6677,676.6677,680.0912,return,0.3187,,75.26041667,,,,,,FBP-OG-19.png,0.4,1.2,43,0.75,,,,,,,,,,,,,0,33,33,42,1,,,,,,,,,,,,,,,,,,,,,,,,,,,,
,,,,,V3_029,20,Male,2024-10-21_13h17.20.632,jersey_experiment_5_v3,2023.2.2,Win32,85.47008547,,,,,,,,,,,,,,,,680.0913,681.3854,681.3854,683.3736,return,0.474,,99.34895833,,,,,,FBP-PT-19.png,0.45,1.2,30,0.5,,,,,,,,,,,,,0,34,34,29,1,,,,,,,,,,,,,,,,,,,,,,,,,,,,
,,,,,V3_029,20,Male,2024-10-21_13h17.20.632,jersey_experiment_5_v3,2023.2.2,Win32,85.47008547,,,,,,,,,,,,,,,,683.3738,684.6678,684.6679,688.8092,return,2.4652,,50.390625,,,,,,FBP-RB-17.png,0.35,1.2,46,0.5,,,,,,,,,,,,,0,35,35,45,1,,,,,,,,,,,,,,,,,,,,,,,,,,,,
,,,,,V3_029,20,Male,2024-10-21_13h17.20.632,jersey_experiment_5_v3,2023.2.2,Win32,85.47008547,,,,,,,,,,,,,,,,688.8095,690.1033,690.1035,692.3976,return,1.061,,95.57291667,,,,,,FBP-RB-17.png,0.45,1.2,50,0.5,,,,,,,,,,,,,0,36,36,49,1,,,,,,,,,,,,,,,,,,,,,,,,,,,,
,,,,,V3_029,20,Male,2024-10-21_13h17.20.632,jersey_experiment_5_v3,2023.2.2,Win32,85.47008547,,,,,,,,,,,,,,,,692.3979,693.6917,693.6918,695.6565,return,0.2861,,74.73958333,,,,,,FBP-YG-81.png,0.43,1.2,9,0.5,,,,,,,,,,,,,0,37,37,8,1,,,,,,,,,,,,,,,,,,,,,,,,,,,,
,,,,,V3_029,20,Male,2024-10-21_13h17.20.632,jersey_experiment_5_v3,2023.2.2,Win32,85.47008547,,,,,,,,,,,,,,,,695.6568,696.9506,696.9506,698.586,return,0.2723,,74.86979167,,,,,,FBP-YG-91.png,0.4,1.2,13,0.5,,,,,,,,,,,,,0,38,38,12,1,,,,,,,,,,,,,,,,,,,,,,,,,,,,
,,,,,V3_029,20,Male,2024-10-21_13h17.20.632,jersey_experiment_5_v3,2023.2.2,Win32,85.47008547,,,,,,,,,,,,,,,,698.5863,699.8801,699.8802,701.8684,return,0.3788,,63.02083333,,,,,,FBP-PT-19.png,0.35,1.2,26,0.5,,,,,,,,,,,,,0,39,39,25,1,,,,,,,,,,,,,,,,,,,,,,,,,,,,
,,,,,V3_029,20,Male,2024-10-21_13h17.20.632,jersey_experiment_5_v3,2023.2.2,Win32,85.47008547,,,,,,,,,,,,,,,,701.8686,703.1627,703.1627,705.0802,return,0.1359,,88.02083333,,,,,,FBP-YG-71.png,0.45,1.2,5,0.5,,,,,,,,,,,,,0,40,40,4,1,,,,,,,,,,,,,,,,,,,,,,,,,,,,
,,,,,V3_029,20,Male,2024-10-21_13h17.20.632,jersey_experiment_5_v3,2023.2.2,Win32,85.47008547,,,,,,,,,,,,,,,,705.0805,706.3745,706.3745,707.9158,return,0.071,,38.28125,,,,,,FBP-PT-17.png,0.35,1.2,16,0.5,,,,,,,,,,,,,0,41,41,15,1,,,,,,,,,,,,,,,,,,,,,,,,,,,,
,,,,,V3_029,20,Male,2024-10-21_13h17.20.632,jersey_experiment_5_v3,2023.2.2,Win32,85.47008547,,,,,,,,,,,,,,,,707.9161,709.21,709.2101,710.6217,return,0.1572,,61.328125,,,,,,FBP-YG-91.png,0.35,1.2,11,0.5,,,,,,,,,,,,,0,42,42,10,1,,,,,,,,,,,,,,,,,,,,,,,,,,,,
,,,,,V3_029,20,Male,2024-10-21_13h17.20.632,jersey_experiment_5_v3,2023.2.2,Win32,85.47008547,,,,,,,,,,,,,,,,710.622,711.9159,711.916,712.8571,return,0.0527,,74.08854167,,,,,,FBP-RB-18.png,0.43,1.2,54,0.5,,,,,,,,,,,,,0,43,43,53,1,,,,,,,,,,,,,,,,,,,,,,,,,,,,
,,,,,V3_029,20,Male,2024-10-21_13h17.20.632,jersey_experiment_5_v3,2023.2.2,Win32,85.47008547,,,,,,,,,,,,,,,,712.8574,714.1512,714.1513,716.4925,return,0.1076,,79.81770833,,,,,,FBP-RB-19.png,0.43,1.2,59,0.5,,,,,,,,,,,,,0,44,44,58,1,,,,,,,,,,,,,,,,,,,,,,,,,,,,
,,,,,V3_029,20,Male,2024-10-21_13h17.20.632,jersey_experiment_5_v3,2023.2.2,Win32,85.47008547,,,,,,,,,,,,,,,,716.4927,717.7866,717.7868,718.6691,return,0.0718,,72.00520833,,,,,,FBP-RB-18.png,0.37,1.2,52,0.5,,,,,,,,,,,,,0,45,45,51,1,,,,,,,,,,,,,,,,,,,,,,,,,,,,
,,,,,V3_029,20,Male,2024-10-21_13h17.20.632,jersey_experiment_5_v3,2023.2.2,Win32,85.47008547,,,,,,,,,,,,,,,,718.6694,720.2221,720.2222,721.8693,return,0.0726,,75,,,,,,FBP-OG-18.png,0.35,1.2,36,0.75,,,,,,,,,,,,,0,46,46,35,1,,,,,,,,,,,,,,,,,,,,,,,,,,,,
,,,,,V3_029,20,Male,2024-10-21_13h17.20.632,jersey_experiment_5_v3,2023.2.2,Win32,85.47008547,,,,,,,,,,,,,,,,721.8695,723.1634,723.1635,723.9987,return,0.0583,,75,,,,,,FBP-YG-71.png,0.35,1.2,1,0.5,,,,,,,,,,,,,0,47,47,0,1,,,,,,,,,,,,,,,,,,,,,,,,,,,,
,,,,,V3_029,20,Male,2024-10-21_13h17.20.632,jersey_experiment_5_v3,2023.2.2,Win32,85.47008547,,,,,,,,,,,,,,,,723.999,725.2928,725.2928,725.8693,return,0.0609,,75,,,,,,FBP-PT-18.png,0.37,1.2,22,0.5,,,,,,,,,,,,,0,48,48,21,1,,,,,,,,,,,,,,,,,,,,,,,,,,,,
,,,,,V3_029,20,Male,2024-10-21_13h17.20.632,jersey_experiment_5_v3,2023.2.2,Win32,85.47008547,,,,,,,,,,,,,,,,725.8697,727.1635,727.1636,727.8695,return,0.0718,,90.49479167,,,,,,FBP-RB-19.png,0.45,1.2,60,0.5,,,,,,,,,,,,,0,49,49,59,1,,,,,,,,,,,,,,,,,,,,,,,,,,,,
,,,,,V3_029,20,Male,2024-10-21_13h17.20.632,jersey_experiment_5_v3,2023.2.2,Win32,85.47008547,,,,,,,,,,,,,,,,727.8698,729.1636,729.1637,730.1753,return,0.0708,,95.44270833,,,,,,FBP-PT-17.png,0.4,1.2,18,0.5,,,,,,,,,,,,,0,50,50,17,1,,,,,,,,,,,,,,,,,,,,,,,,,,,,
,,,,,V3_029,20,Male,2024-10-21_13h17.20.632,jersey_experiment_5_v3,2023.2.2,Win32,85.47008547,,,,,,,,,,,,,,,,730.1756,731.4696,731.4696,732.2225,return,0.0604,,88.671875,,,,,,FBP-RB-19.png,0.4,1.2,58,0.5,,,,,,,,,,,,,0,51,51,57,1,,,,,,,,,,,,,,,,,,,,,,,,,,,,
,,,,,V3_029,20,Male,2024-10-21_13h17.20.632,jersey_experiment_5_v3,2023.2.2,Win32,85.47008547,,,,,,,,,,,,,,,,732.2227,733.5167,733.5167,734.4462,return,0.0345,,92.31770833,,,,,,FBP-YG-81.png,0.45,1.2,10,0.5,,,,,,,,,,,,,0,52,52,9,1,,,,,,,,,,,,,,,,,,,,,,,,,,,,
,,,,,V3_029,20,Male,2024-10-21_13h17.20.632,jersey_experiment_5_v3,2023.2.2,Win32,85.47008547,,,,,,,,,,,,,,,,734.4463,735.7403,735.7403,736.3639,return,0.1333,,87.76041667,,,,,,FBP-YG-71.png,0.4,1.2,3,0.5,,,,,,,,,,,,,0,53,53,2,1,,,,,,,,,,,,,,,,,,,,,,,,,,,,
,,,,,V3_029,20,Male,2024-10-21_13h17.20.632,jersey_experiment_5_v3,2023.2.2,Win32,85.47008547,,,,,,,,,,,,,,,,736.3642,737.658,737.6581,739.1287,return,0.0641,,75.78125,,,,,,FBP-YG-91.png,0.37,1.2,12,0.5,,,,,,,,,,,,,0,54,54,11,1,,,,,,,,,,,,,,,,,,,,,,,,,,,,
,,,,,V3_029,20,Male,2024-10-21_13h17.20.632,jersey_experiment_5_v3,2023.2.2,Win32,85.47008547,,,,,,,,,,,,,,,,739.1289,740.4228,740.4228,741.1053,return,0.0784,,84.765625,,,,,,FBP-PT-19.png,0.43,1.2,29,0.5,,,,,,,,,,,,,0,55,55,28,1,,,,,,,,,,,,,,,,,,,,,,,,,,,,
,,,,,V3_029,20,Male,2024-10-21_13h17.20.632,jersey_experiment_5_v3,2023.2.2,Win32,85.47008547,,,,,,,,,,,,,,,,741.1055,742.3992,742.3993,743.0347,return,0.202,,84.89583333,,,,,,FBP-PT-18.png,0.4,1.2,23,0.5,,,,,,,,,,,,,0,56,56,22,1,,,,,,,,,,,,,,,,,,,,,,,,,,,,
,,,,,V3_029,20,Male,2024-10-21_13h17.20.632,jersey_experiment_5_v3,2023.2.2,Win32,85.47008547,,,,,,,,,,,,,,,,743.035,744.3288,744.3289,745.6936,return,0.0595,,84.24479167,,,,,,FBP-RB-19.png,0.35,1.2,56,0.5,,,,,,,,,,,,,0,57,57,55,1,,,,,,,,,,,,,,,,,,,,,,,,,,,,
,,,,,V3_029,20,Male,2024-10-21_13h17.20.632,jersey_experiment_5_v3,2023.2.2,Win32,85.47008547,,,,,,,,,,,,,,,,745.6939,747.2466,747.2466,748.0113,return,0.2514,,85.15625,,,,,,FBP-OG-17.png,0.4,1.2,33,0.75,,,,,,,,,,,,,0,58,58,32,1,,,,,,,,,,,,,,,,,,,,,,,,,,,,
,,,,,V3_029,20,Male,2024-10-21_13h17.20.632,jersey_experiment_5_v3,2023.2.2,Win32,85.47008547,,,,,,,,,,,,,,,,748.0117,749.3054,749.3054,751.8233,return,2.0861,,67.44791667,,,,,,FBP-YG-81.png,0.4,1.2,8,0.5,,,,,,,,,,,,,0,59,59,7,1,,,,,,,,,,,,,,,,,,,,,,,,,,,,
,,,,,V3_029,20,Male,2024-10-21_13h17.20.632,jersey_experiment_5_v3,2023.2.2,Win32,85.47008547,,,,,,,,,,,,,,,,751.8255,753.3764,753.3764,754.0587,return,0.1107,,50.52083333,,,,,,FBP-OG-71.png,0.35,1.2,31,0.75,,,,,,,,,,,,,,,,,,0,0,0,30,1,,,,,,,,,,,,,,,,,,,,,,,
,,,,,V3_029,20,Male,2024-10-21_13h17.20.632,jersey_experiment_5_v3,2023.2.2,Win32,85.47008547,,,,,,,,,,,,,,,,754.059,755.3527,755.3528,756.1881,return,0.2153,,76.171875,,,,,,FBP-PT-91.png,0.45,1.2,30,0.5,,,,,,,,,,,,,,,,,,0,1,1,29,1,,,,,,,,,,,,,,,,,,,,,,,
,,,,,V3_029,20,Male,2024-10-21_13h17.20.632,jersey_experiment_5_v3,2023.2.2,Win32,85.47008547,,,,,,,,,,,,,,,,756.1883,757.4824,757.4825,758.5292,return,0.4607,,61.328125,,,,,,FBP-PT-91.png,0.37,1.2,27,0.5,,,,,,,,,,,,,,,,,,0,2,2,26,1,,,,,,,,,,,,,,,,,,,,,,,
,,,,,V3_029,20,Male,2024-10-21_13h17.20.632,jersey_experiment_5_v3,2023.2.2,Win32,85.47008547,,,,,,,,,,,,,,,,758.5295,759.8236,759.8236,760.9765,return,0.4366,,61.71875,,,,,,FBP-RB-81.png,0.4,1.2,53,0.5,,,,,,,,,,,,,,,,,,0,3,3,52,1,,,,,,,,,,,,,,,,,,,,,,,
,,,,,V3_029,20,Male,2024-10-21_13h17.20.632,jersey_experiment_5_v3,2023.2.2,Win32,85.47008547,,,,,,,,,,,,,,,,760.9767,762.5296,762.5296,765.8357,return,2.9322,,53.38541667,,,,,,FBP-OG-71.png,0.4,1.2,33,0.75,,,,,,,,,,,,,,,,,,0,4,4,32,1,,,,,,,,,,,,,,,,,,,,,,,
,,,,,V3_029,20,Male,2024-10-21_13h17.20.632,jersey_experiment_5_v3,2023.2.2,Win32,85.47008547,,,,,,,,,,,,,,,,765.8359,767.1297,767.1297,768.3181,return,0.4944,,47.13541667,,,,,,FBP-PT-81.png,0.35,1.2,21,0.5,,,,,,,,,,,,,,,,,,0,5,5,20,1,,,,,,,,,,,,,,,,,,,,,,,
,,,,,V3_029,20,Male,2024-10-21_13h17.20.632,jersey_experiment_5_v3,2023.2.2,Win32,85.47008547,,,,,,,,,,,,,,,,768.3184,769.6122,769.6122,770.8947,return,0.3775,,60.02604167,,,,,,FBP-YG-18.png,0.37,1.2,7,0.5,,,,,,,,,,,,,,,,,,0,6,6,6,1,,,,,,,,,,,,,,,,,,,,,,,
,,,,,V3_029,20,Male,2024-10-21_13h17.20.632,jersey_experiment_5_v3,2023.2.2,Win32,85.47008547,,,,,,,,,,,,,,,,770.8949,772.1887,772.1887,772.8123,return,0.0624,,60.02604167,,,,,,FBP-RB-91.png,0.35,1.2,56,0.5,,,,,,,,,,,,,,,,,,0,7,7,55,1,,,,,,,,,,,,,,,,,,,,,,,
,,,,,V3_029,20,Male,2024-10-21_13h17.20.632,jersey_experiment_5_v3,2023.2.2,Win32,85.47008547,,,,,,,,,,,,,,,,772.8126,774.3654,774.3654,774.8948,return,0.0718,,60.02604167,,,,,,FBP-OG-91.png,0.37,1.2,42,0.75,,,,,,,,,,,,,,,,,,0,8,8,41,1,,,,,,,,,,,,,,,,,,,,,,,
,,,,,V3_029,20,Male,2024-10-21_13h17.20.632,jersey_experiment_5_v3,2023.2.2,Win32,85.47008547,,,,,,,,,,,,,,,,774.8951,776.189,776.189,776.9771,return,0.0835,,67.31770833,,,,,,FBP-YG-18.png,0.4,1.2,8,0.5,,,,,,,,,,,,,,,,,,0,9,9,7,1,,,,,,,,,,,,,,,,,,,,,,,
,,,,,V3_029,20,Male,2024-10-21_13h17.20.632,jersey_experiment_5_v3,2023.2.2,Win32,85.47008547,,,,,,,,,,,,,,,,776.9772,778.2713,778.2713,778.8949,return,0.0349,,76.5625,,,,,,FBP-PT-71.png,0.43,1.2,19,0.5,,,,,,,,,,,,,,,,,,0,10,10,18,1,,,,,,,,,,,,,,,,,,,,,,,
,,,,,V3_029,20,Male,2024-10-21_13h17.20.632,jersey_experiment_5_v3,2023.2.2,Win32,85.47008547,,,,,,,,,,,,,,,,778.8952,780.1891,780.1892,781.5773,return,0.6181,,64.58333333,,,,,,FBP-YG-17.png,0.35,1.2,1,0.5,,,,,,,,,,,,,,,,,,0,11,11,0,1,,,,,,,,,,,,,,,,,,,,,,,
,,,,,V3_029,20,Male,2024-10-21_13h17.20.632,jersey_experiment_5_v3,2023.2.2,Win32,85.47008547,,,,,,,,,,,,,,,,781.5777,783.1303,783.1303,784.8127,return,0.0851,,61.71875,,,,,,FBP-OG-71.png,0.37,1.2,32,0.75,,,,,,,,,,,,,,,,,,0,12,12,31,1,,,,,,,,,,,,,,,,,,,,,,,
,,,,,V3_029,20,Male,2024-10-21_13h17.20.632,jersey_experiment_5_v3,2023.2.2,Win32,85.47008547,,,,,,,,,,,,,,,,784.813,786.1068,786.1069,787.307,return,0.0505,,61.84895833,,,,,,FBP-YG-18.png,0.35,1.2,6,0.5,,,,,,,,,,,,,,,,,,0,13,13,5,1,,,,,,,,,,,,,,,,,,,,,,,
,,,,,V3_029,20,Male,2024-10-21_13h17.20.632,jersey_experiment_5_v3,2023.2.2,Win32,85.47008547,,,,,,,,,,,,,,,,787.3073,788.601,788.6011,789.0835,return,0.015,,61.84895833,,,,,,FBP-YG-19.png,0.35,1.2,11,0.5,,,,,,,,,,,,,,,,,,0,14,14,10,1,,,,,,,,,,,,,,,,,,,,,,,
,,,,,V3_029,20,Male,2024-10-21_13h17.20.632,jersey_experiment_5_v3,2023.2.2,Win32,85.47008547,,,,,,,,,,,,,,,,789.0837,790.3775,790.3776,792.5189,return,0.9736,,68.88020833,,,,,,FBP-RB-71.png,0.4,1.2,48,0.5,,,,,,,,,,,,,,,,,,0,15,15,47,1,,,,,,,,,,,,,,,,,,,,,,,
,,,,,V3_029,20,Male,2024-10-21_13h17.20.632,jersey_experiment_5_v3,2023.2.2,Win32,85.47008547,,,,,,,,,,,,,,,,792.5191,793.813,793.8131,794.6014,return,0.0756,,75.13020833,,,,,,FBP-YG-17.png,0.43,1.2,4,0.5,,,,,,,,,,,,,,,,,,0,16,16,3,1,,,,,,,,,,,,,,,,,,,,,,,
,,,,,V3_029,20,Male,2024-10-21_13h17.20.632,jersey_experiment_5_v3,2023.2.2,Win32,85.47008547,,,,,,,,,,,,,,,,794.6016,795.8956,795.8956,796.9542,return,0.3699,,67.83854167,,,,,,FBP-YG-17.png,0.37,1.2,2,0.5,,,,,,,,,,,,,,,,,,0,17,17,1,1,,,,,,,,,,,,,,,,,,,,,,,
,,,,,V3_029,20,Male,2024-10-21_13h17.20.632,jersey_experiment_5_v3,2023.2.2,Win32,85.47008547,,,,,,,,,,,,,,,,796.9544,798.2485,798.2486,798.8602,return,0.0945,,81.25,,,,,,FBP-RB-81.png,0.45,1.2,55,0.5,,,,,,,,,,,,,,,,,,0,18,18,54,1,,,,,,,,,,,,,,,,,,,,,,,
,,,,,V3_029,20,Male,2024-10-21_13h17.20.632,jersey_experiment_5_v3,2023.2.2,Win32,85.47008547,,,,,,,,,,,,,,,,798.8605,800.4133,800.4134,802.2251,return,1.074,,77.47395833,,,,,,FBP-OG-91.png,0.43,1.2,44,0.75,,,,,,,,,,,,,,,,,,0,19,19,43,1,,,,,,,,,,,,,,,,,,,,,,,
,,,,,V3_029,20,Male,2024-10-21_13h17.20.632,jersey_experiment_5_v3,2023.2.2,Win32,85.47008547,,,,,,,,,,,,,,,,802.2253,803.5193,803.5193,804.2489,return,0.1365,,78.77604167,,,,,,FBP-PT-81.png,0.43,1.2,24,0.5,,,,,,,,,,,,,,,,,,0,20,20,23,1,,,,,,,,,,,,,,,,,,,,,,,
,,,,,V3_029,20,Male,2024-10-21_13h17.20.632,jersey_experiment_5_v3,2023.2.2,Win32,85.47008547,,,,,,,,,,,,,,,,804.2491,805.8019,805.8019,806.3783,return,0.0527,,62.63020833,,,,,,FBP-OG-91.png,0.35,1.2,41,0.75,,,,,,,,,,,,,,,,,,0,21,21,40,1,,,,,,,,,,,,,,,,,,,,,,,
,,,,,V3_029,20,Male,2024-10-21_13h17.20.632,jersey_experiment_5_v3,2023.2.2,Win32,85.47008547,,,,,,,,,,,,,,,,806.3784,807.6723,807.6723,808.4253,return,0.0534,,67.31770833,,,,,,FBP-RB-91.png,0.37,1.2,57,0.5,,,,,,,,,,,,,,,,,,0,22,22,56,1,,,,,,,,,,,,,,,,,,,,,,,
,,,,,V3_029,20,Male,2024-10-21_13h17.20.632,jersey_experiment_5_v3,2023.2.2,Win32,85.47008547,,,,,,,,,,,,,,,,808.4254,809.7195,809.7195,810.1548,return,0.048,,66.40625,,,,,,FBP-YG-19.png,0.4,1.2,13,0.5,,,,,,,,,,,,,,,,,,0,23,23,12,1,,,,,,,,,,,,,,,,,,,,,,,
,,,,,V3_029,20,Male,2024-10-21_13h17.20.632,jersey_experiment_5_v3,2023.2.2,Win32,85.47008547,,,,,,,,,,,,,,,,810.1551,811.4489,811.4489,812.1903,return,0.3075,,59.765625,,,,,,FBP-YG-19.png,0.37,1.2,12,0.5,,,,,,,,,,,,,,,,,,0,24,24,11,1,,,,,,,,,,,,,,,,,,,,,,,
,,,,,V3_029,20,Male,2024-10-21_13h17.20.632,jersey_experiment_5_v3,2023.2.2,Win32,85.47008547,,,,,,,,,,,,,,,,812.1905,813.4844,813.4844,814.8492,return,0.1984,,74.609375,,,,,,FBP-RB-71.png,0.45,1.2,50,0.5,,,,,,,,,,,,,,,,,,0,25,25,49,1,,,,,,,,,,,,,,,,,,,,,,,
,,,,,V3_029,20,Male,2024-10-21_13h17.20.632,jersey_experiment_5_v3,2023.2.2,Win32,85.47008547,,,,,,,,,,,,,,,,814.8494,816.1433,816.1433,819.1316,return,2.0277,,74.609375,,,,,,FBP-RB-81.png,0.43,1.2,54,0.5,,,,,,,,,,,,,,,,,,0,26,26,53,1,,,,,,,,,,,,,,,,,,,,,,,
,,,,,V3_029,20,Male,2024-10-21_13h17.20.632,jersey_experiment_5_v3,2023.2.2,Win32,85.47008547,,,,,,,,,,,,,,,,819.1318,820.6847,820.6848,822.2966,return,0.0973,,87.36979167,,,,,,FBP-OG-71.png,0.45,1.2,35,0.75,,,,,,,,,,,,,,,,,,0,27,27,34,1,,,,,,,,,,,,,,,,,,,,,,,
,,,,,V3_029,20,Male,2024-10-21_13h17.20.632,jersey_experiment_5_v3,2023.2.2,Win32,85.47008547,,,,,,,,,,,,,,,,822.297,823.5907,823.5907,828.7321,return,4.3566,,62.109375,,,,,,FBP-RB-71.png,0.35,1.2,46,0.5,,,,,,,,,,,,,,,,,,0,28,28,45,1,,,,,,,,,,,,,,,,,,,,,,,
,,,,,V3_029,20,Male,2024-10-21_13h17.20.632,jersey_experiment_5_v3,2023.2.2,Win32,85.47008547,,,,,,,,,,,,,,,,828.7324,830.0262,830.0262,831.0734,return,0.0942,,73.828125,,,,,,FBP-PT-91.png,0.43,1.2,29,0.5,,,,,,,,,,,,,,,,,,0,29,29,28,1,,,,,,,,,,,,,,,,,,,,,,,
,,,,,V3_029,20,Male,2024-10-21_13h17.20.632,jersey_experiment_5_v3,2023.2.2,Win32,85.47008547,,,,,,,,,,,,,,,,831.0735,832.3675,832.3675,832.9556,return,0.0962,,73.95833333,,,,,,FBP-PT-71.png,0.4,1.2,18,0.5,,,,,,,,,,,,,,,,,,0,30,30,17,1,,,,,,,,,,,,,,,,,,,,,,,
,,,,,V3_029,20,Male,2024-10-21_13h17.20.632,jersey_experiment_5_v3,2023.2.2,Win32,85.47008547,,,,,,,,,,,,,,,,832.9559,834.2499,834.25,835.3558,return,0.049,,50.65104167,,,,,,FBP-PT-71.png,0.37,1.2,17,0.5,,,,,,,,,,,,,,,,,,0,31,31,16,1,,,,,,,,,,,,,,,,,,,,,,,
,,,,,V3_029,20,Male,2024-10-21_13h17.20.632,jersey_experiment_5_v3,2023.2.2,Win32,85.47008547,,,,,,,,,,,,,,,,835.356,836.9089,836.9089,837.4382,return,0.1193,,61.71875,,,,,,FBP-OG-71.png,0.43,1.2,34,0.75,,,,,,,,,,,,,,,,,,0,32,32,33,1,,,,,,,,,,,,,,,,,,,,,,,
,,,,,V3_029,20,Male,2024-10-21_13h17.20.632,jersey_experiment_5_v3,2023.2.2,Win32,85.47008547,,,,,,,,,,,,,,,,837.4386,838.7325,838.7325,839.3677,return,0.0551,,74.609375,,,,,,FBP-PT-81.png,0.45,1.2,25,0.5,,,,,,,,,,,,,,,,,,0,33,33,24,1,,,,,,,,,,,,,,,,,,,,,,,
,,,,,V3_029,20,Male,2024-10-21_13h17.20.632,jersey_experiment_5_v3,2023.2.2,Win32,85.47008547,,,,,,,,,,,,,,,,839.3679,840.6618,840.6619,841.4031,return,0.0399,,62.76041667,,,,,,FBP-RB-81.png,0.37,1.2,52,0.5,,,,,,,,,,,,,,,,,,0,34,34,51,1,,,,,,,,,,,,,,,,,,,,,,,
,,,,,V3_029,20,Male,2024-10-21_13h17.20.632,jersey_experiment_5_v3,2023.2.2,Win32,85.47008547,,,,,,,,,,,,,,,,841.4033,842.6972,842.6973,843.7091,return,0.3788,,74.21875,,,,,,FBP-RB-91.png,0.45,1.2,60,0.5,,,,,,,,,,,,,,,,,,0,35,35,59,1,,,,,,,,,,,,,,,,,,,,,,,
,,,,,V3_029,20,Male,2024-10-21_13h17.20.632,jersey_experiment_5_v3,2023.2.2,Win32,85.47008547,,,,,,,,,,,,,,,,843.7093,845.0032,845.0033,846.0622,return,0.0495,,74.73958333,,,,,,FBP-YG-19.png,0.43,1.2,14,0.5,,,,,,,,,,,,,,,,,,0,36,36,13,1,,,,,,,,,,,,,,,,,,,,,,,
,,,,,V3_029,20,Male,2024-10-21_13h17.20.632,jersey_experiment_5_v3,2023.2.2,Win32,85.47008547,,,,,,,,,,,,,,,,846.0623,847.3563,847.3563,847.7445,return,0.0575,,74.73958333,,,,,,FBP-YG-18.png,0.43,1.2,9,0.5,,,,,,,,,,,,,,,,,,0,37,37,8,1,,,,,,,,,,,,,,,,,,,,,,,
,,,,,V3_029,20,Male,2024-10-21_13h17.20.632,jersey_experiment_5_v3,2023.2.2,Win32,85.47008547,,,,,,,,,,,,,,,,847.7447,849.2976,849.2976,849.7916,return,0.3767,,62.36979167,,,,,,FBP-OG-91.png,0.4,1.2,43,0.75,,,,,,,,,,,,,,,,,,0,38,38,42,1,,,,,,,,,,,,,,,,,,,,,,,
,,,,,V3_029,20,Male,2024-10-21_13h17.20.632,jersey_experiment_5_v3,2023.2.2,Win32,85.47008547,,,,,,,,,,,,,,,,849.7919,851.0858,851.0859,852.027,return,0.0516,,60.80729167,,,,,,FBP-PT-81.png,0.37,1.2,22,0.5,,,,,,,,,,,,,,,,,,0,39,39,21,1,,,,,,,,,,,,,,,,,,,,,,,
,,,,,V3_029,20,Male,2024-10-21_13h17.20.632,jersey_experiment_5_v3,2023.2.2,Win32,85.47008547,,,,,,,,,,,,,,,,852.0272,853.3212,853.3212,853.98,return,0.0979,,61.84895833,,,,,,FBP-RB-81.png,0.35,1.2,51,0.5,,,,,,,,,,,,,,,,,,0,40,40,50,1,,,,,,,,,,,,,,,,,,,,,,,
,,,,,V3_029,20,Male,2024-10-21_13h17.20.632,jersey_experiment_5_v3,2023.2.2,Win32,85.47008547,,,,,,,,,,,,,,,,853.9802,855.533,855.5331,856.1565,return,0.1324,,75.65104167,,,,,,FBP-OG-91.png,0.45,1.2,45,0.75,,,,,,,,,,,,,,,,,,0,41,41,44,1,,,,,,,,,,,,,,,,,,,,,,,
,,,,,V3_029,20,Male,2024-10-21_13h17.20.632,jersey_experiment_5_v3,2023.2.2,Win32,85.47008547,,,,,,,,,,,,,,,,856.1569,857.4506,857.4507,857.7213,return,0.0383,,75.65104167,,,,,,FBP-PT-81.png,0.4,1.2,23,0.5,,,,,,,,,,,,,,,,,,0,42,42,22,1,,,,,,,,,,,,,,,,,,,,,,,
,,,,,V3_029,20,Male,2024-10-21_13h17.20.632,jersey_experiment_5_v3,2023.2.2,Win32,85.47008547,,,,,,,,,,,,,,,,857.7216,859.2742,859.2743,859.6978,return,0.0955,,75.65104167,,,,,,FBP-OG-81.png,0.37,1.2,37,0.75,,,,,,,,,,,,,,,,,,0,43,43,36,1,,,,,,,,,,,,,,,,,,,,,,,
,,,,,V3_029,20,Male,2024-10-21_13h17.20.632,jersey_experiment_5_v3,2023.2.2,Win32,85.47008547,,,,,,,,,,,,,,,,859.698,860.9921,860.9922,861.3451,return,0.0472,,75.65104167,,,,,,FBP-RB-91.png,0.4,1.2,58,0.5,,,,,,,,,,,,,,,,,,0,44,44,57,1,,,,,,,,,,,,,,,,,,,,,,,
,,,,,V3_029,20,Male,2024-10-21_13h17.20.632,jersey_experiment_5_v3,2023.2.2,Win32,85.47008547,,,,,,,,,,,,,,,,861.3453,862.898,862.8981,863.9686,return,0.0391,,75.26041667,,,,,,FBP-OG-81.png,0.43,1.2,39,0.75,,,,,,,,,,,,,,,,,,0,45,45,38,1,,,,,,,,,,,,,,,,,,,,,,,
,,,,,V3_029,20,Male,2024-10-21_13h17.20.632,jersey_experiment_5_v3,2023.2.2,Win32,85.47008547,,,,,,,,,,,,,,,,863.9689,865.2628,865.2628,866.3805,return,0.2153,,71.09375,,,,,,FBP-PT-91.png,0.4,1.2,28,0.5,,,,,,,,,,,,,,,,,,0,46,46,27,1,,,,,,,,,,,,,,,,,,,,,,,
,,,,,V3_029,20,Male,2024-10-21_13h17.20.632,jersey_experiment_5_v3,2023.2.2,Win32,85.47008547,,,,,,,,,,,,,,,,866.3808,867.6747,867.6748,868.7687,return,0.1415,,77.47395833,,,,,,FBP-RB-71.png,0.43,1.2,49,0.5,,,,,,,,,,,,,,,,,,0,47,47,48,1,,,,,,,,,,,,,,,,,,,,,,,
,,,,,V3_029,20,Male,2024-10-21_13h17.20.632,jersey_experiment_5_v3,2023.2.2,Win32,85.47008547,,,,,,,,,,,,,,,,868.769,870.063,870.063,870.5219,return,0.0763,,79.55729167,,,,,,FBP-YG-17.png,0.45,1.2,5,0.5,,,,,,,,,,,,,,,,,,0,48,48,4,1,,,,,,,,,,,,,,,,,,,,,,,
,,,,,V3_029,20,Male,2024-10-21_13h17.20.632,jersey_experiment_5_v3,2023.2.2,Win32,85.47008547,,,,,,,,,,,,,,,,870.5221,871.816,871.816,872.9101,return,0.5806,,81.640625,,,,,,FBP-YG-19.png,0.45,1.2,15,0.5,,,,,,,,,,,,,,,,,,0,49,49,14,1,,,,,,,,,,,,,,,,,,,,,,,
,,,,,V3_029,20,Male,2024-10-21_13h17.20.632,jersey_experiment_5_v3,2023.2.2,Win32,85.47008547,,,,,,,,,,,,,,,,872.9104,874.4632,874.4633,876.5103,return,1.4829,,74.21875,,,,,,FBP-OG-81.png,0.4,1.2,38,0.75,,,,,,,,,,,,,,,,,,0,50,50,37,1,,,,,,,,,,,,,,,,,,,,,,,
,,,,,V3_029,20,Male,2024-10-21_13h17.20.632,jersey_experiment_5_v3,2023.2.2,Win32,85.47008547,,,,,,,,,,,,,,,,876.5106,877.8045,877.8046,878.6632,return,0.0887,,65.10416667,,,,,,FBP-RB-91.png,0.43,1.2,59,0.5,,,,,,,,,,,,,,,,,,0,51,51,58,1,,,,,,,,,,,,,,,,,,,,,,,
,,,,,V3_029,20,Male,2024-10-21_13h17.20.632,jersey_experiment_5_v3,2023.2.2,Win32,85.47008547,,,,,,,,,,,,,,,,878.6636,880.2164,880.2165,880.8868,return,0.146,,75.26041667,,,,,,FBP-OG-81.png,0.45,1.2,40,0.75,,,,,,,,,,,,,,,,,,0,52,52,39,1,,,,,,,,,,,,,,,,,,,,,,,
,,,,,V3_029,20,Male,2024-10-21_13h17.20.632,jersey_experiment_5_v3,2023.2.2,Win32,85.47008547,,,,,,,,,,,,,,,,880.887,882.4401,882.4403,883.2164,return,0.3659,,66.40625,,,,,,FBP-OG-81.png,0.35,1.2,36,0.75,,,,,,,,,,,,,,,,,,0,53,53,35,1,,,,,,,,,,,,,,,,,,,,,,,
,,,,,V3_029,20,Male,2024-10-21_13h17.20.632,jersey_experiment_5_v3,2023.2.2,Win32,85.47008547,,,,,,,,,,,,,,,,883.2167,884.5104,884.5105,885.5105,return,0.0799,,88.02083333,,,,,,FBP-PT-71.png,0.45,1.2,20,0.5,,,,,,,,,,,,,,,,,,0,54,54,19,1,,,,,,,,,,,,,,,,,,,,,,,
,,,,,V3_029,20,Male,2024-10-21_13h17.20.632,jersey_experiment_5_v3,2023.2.2,Win32,85.47008547,,,,,,,,,,,,,,,,885.5107,886.8048,886.8048,887.6283,return,0.0738,,88.54166667,,,,,,FBP-YG-18.png,0.45,1.2,10,0.5,,,,,,,,,,,,,,,,,,0,55,55,9,1,,,,,,,,,,,,,,,,,,,,,,,
,,,,,V3_029,20,Male,2024-10-21_13h17.20.632,jersey_experiment_5_v3,2023.2.2,Win32,85.47008547,,,,,,,,,,,,,,,,887.6286,888.9225,888.9225,890.3813,return,0.3189,,76.953125,,,,,,FBP-YG-17.png,0.4,1.2,3,0.5,,,,,,,,,,,,,,,,,,0,56,56,2,1,,,,,,,,,,,,,,,,,,,,,,,
,,,,,V3_029,20,Male,2024-10-21_13h17.20.632,jersey_experiment_5_v3,2023.2.2,Win32,85.47008547,,,,,,,,,,,,,,,,890.3816,891.6755,891.6755,892.9109,return,0.2595,,75.390625,,,,,,FBP-PT-91.png,0.35,1.2,26,0.5,,,,,,,,,,,,,,,,,,0,57,57,25,1,,,,,,,,,,,,,,,,,,,,,,,
,,,,,V3_029,20,Male,2024-10-21_13h17.20.632,jersey_experiment_5_v3,2023.2.2,Win32,85.47008547,,,,,,,,,,,,,,,,892.9112,894.2051,894.2052,895.1463,return,0.5349,,87.76041667,,,,,,FBP-RB-71.png,0.37,1.2,47,0.5,,,,,,,,,,,,,,,,,,0,58,58,46,1,,,,,,,,,,,,,,,,,,,,,,,
,,,,,V3_029,20,Male,2024-10-21_13h17.20.632,jersey_experiment_5_v3,2023.2.2,Win32,85.47008547,,,,,,,,,,,,,,,,895.1466,896.4405,896.4406,897.1346,return,0.0565,,81.51041667,,,,,,FBP-PT-71.png,0.35,1.2,16,0.5,,,,,,,,,,,,,,,,,,0,59,59,15,1,,,,,,,,,,,,,,,,,,,,,,,
,,,,,V3_029,20,Male,2024-10-21_13h17.20.632,jersey_experiment_5_v3,2023.2.2,Win32,85.47008547,,,,,,,,,,,,,,,,,,,,,,,,,,,,,,,,,,,,,,,,,,,,,,,,,,,,,,,,897.1348,903.3114,return,6.1646,,,,,,,,,,,,,,,,,,,
,,,,,V3_029,20,Male,2024-10-21_13h17.20.632,jersey_experiment_5_v3,2023.2.2,Win32,85.47008547,,,,,,,,,,,,,,,,,,,,,,,,,,,,,,,,,,,,,,,,,,,,,,,,,,,,,,,,,,,,,903.3116,906.9704,1,2.7914,return,0.8523,,,,,,,,,,,,
,,,,,V3_029,20,Male,2024-10-21_13h17.20.632,jersey_experiment_5_v3,2023.2.2,Win32,85.47008547,,,,,,,,,,,,,,,,,,,,,,,,,,,,,,,,,,,,,,,,,,,,,,,,,,,,,,,,,,,,,,,,,,,,906.9705,927.2893,No clue :p,right,10.4649,,,,,,
,,,,,V3_029,20,Male,2024-10-21_13h17.20.632,jersey_experiment_5_v3,2023.2.2,Win32,85.47008547,,,,,,,,,,,,,,,,,,,,,,,,,,,,,,,,,,,,,,,,,,,,,,,,,,,,,,,,,,,,,,,,,,,,,,,,,,927.2894,930.6889,return,3.384,