requirements.started,requirements.stopped,key_resp_3.keys,key_resp_3.rt,key_resp_3.duration,Subject ID,Age,Gender,date,expName,psychopyVersion,OS,frameRate,instructions1.started,instructions1.stopped,key_resp.keys,key_resp.rt,key_resp.duration,example.started,example.stopped,enter_2.keys,enter_2.rt,enter_2.duration,instructions2.started,instructions2.stopped,enter_3.keys,enter_3.rt,enter_3.duration,image.started,image.stopped,slider_2.started,slider_2.stopped,next.keys,next.rt,next.duration,slider.response,trial_block_1.thisRepN,trial_block_1.thisTrialN,trial_block_1.thisN,trial_block_1.thisIndex,trial_block_1.ran,Path,Width,Height,Index,Duration,trial_block_2.thisRepN,trial_block_2.thisTrialN,trial_block_2.thisN,trial_block_2.thisIndex,trial_block_2.ran,rest_break.started,rest_break.stopped,end_break.started,end_break.stopped,key_resp_5.keys,key_resp_5.rt,key_resp_5.duration,trial_block_3.thisRepN,trial_block_3.thisTrialN,trial_block_3.thisN,trial_block_3.thisIndex,trial_block_3.ran,trial_block_4.thisRepN,trial_block_4.thisTrialN,trial_block_4.thisN,trial_block_4.thisIndex,trial_block_4.ran,questions_intro.started,questions_intro.stopped,enter_12.keys,enter_12.rt,enter_12.duration,question2.started,question2.stopped,question_doingbest.response,question_doingbest.rt,enter_15.keys,enter_15.rt,enter_15.duration,pattern.started,pattern.stopped,pattern_2.text,enter_17.keys,enter_17.rt,enter_17.duration,thankyou.started,thankyou.stopped,enter_14.keys,enter_14.rt,enter_14.duration
0,12.7315,return,12.7183,,V3_049,19,Female,2024-11-05_15h50.11.472,jersey_experiment_5_v3,2023.2.2,Win32,84.03361345,,,,,,,,,,,,,,,,,,,,,,,,,,,,,,,,,,,,,,,,,,,,,,,,,,,,,,,,,,,,,,,,,,,,,,,,,,,,,,
,,,,,V3_049,19,Female,2024-11-05_15h50.11.472,jersey_experiment_5_v3,2023.2.2,Win32,84.03361345,12.7317,18.5822,return,5.8354,,,,,,,,,,,,,,,,,,,,,,,,,,,,,,,,,,,,,,,,,,,,,,,,,,,,,,,,,,,,,,,,,,,,,,,,,,
,,,,,V3_049,19,Female,2024-11-05_15h50.11.472,jersey_experiment_5_v3,2023.2.2,Win32,84.03361345,,,,,,18.5823,23.3202,return,4.7039,,,,,,,,,,,,,,,,,,,,,,,,,,,,,,,,,,,,,,,,,,,,,,,,,,,,,,,,,,,,,,,,,,,,,
,,,,,V3_049,19,Female,2024-11-05_15h50.11.472,jersey_experiment_5_v3,2023.2.2,Win32,84.03361345,,,,,,,,,,,23.3203,40.1561,return,16.8225,,,,,,,,,,,,,,,,,,,,,,,,,,,,,,,,,,,,,,,,,,,,,,,,,,,,,,,,,,,,,,,,
,,,,,V3_049,19,Female,2024-11-05_15h50.11.472,jersey_experiment_5_v3,2023.2.2,Win32,84.03361345,,,,,,,,,,,,,,,,40.1582,41.7088,41.709,57.9685,return,4.3194,,74.73958333,0,0,0,1,1,FBP-YG-71.png,0.37,1.2,2,0.75,,,,,,,,,,,,,,,,,,,,,,,,,,,,,,,,,,,,,,,,,,,,,
,,,,,V3_049,19,Female,2024-11-05_15h50.11.472,jersey_experiment_5_v3,2023.2.2,Win32,84.03361345,,,,,,,,,,,,,,,,57.9689,59.2625,59.2625,62.545,return,1.211,,25,0,1,1,38,1,FBP-OG-18.png,0.43,1.2,39,0.5,,,,,,,,,,,,,,,,,,,,,,,,,,,,,,,,,,,,,,,,,,,,,
,,,,,V3_049,19,Female,2024-11-05_15h50.11.472,jersey_experiment_5_v3,2023.2.2,Win32,84.03361345,,,,,,,,,,,,,,,,62.5454,64.098,64.0981,64.9568,return,0.1176,,24.609375,0,2,2,51,1,FBP-RB-18.png,0.37,1.2,52,0.75,,,,,,,,,,,,,,,,,,,,,,,,,,,,,,,,,,,,,,,,,,,,,
,,,,,V3_049,19,Female,2024-11-05_15h50.11.472,jersey_experiment_5_v3,2023.2.2,Win32,84.03361345,,,,,,,,,,,,,,,,64.9572,66.5098,66.5099,67.2393,return,0.1365,,26.43229167,0,3,3,15,1,FBP-PT-17.png,0.35,1.2,16,0.75,,,,,,,,,,,,,,,,,,,,,,,,,,,,,,,,,,,,,,,,,,,,,
,,,,,V3_049,19,Female,2024-11-05_15h50.11.472,jersey_experiment_5_v3,2023.2.2,Win32,84.03361345,,,,,,,,,,,,,,,,67.2395,68.7923,68.7923,70.4865,return,0.114,,55.078125,0,4,4,58,1,FBP-RB-19.png,0.43,1.2,59,0.75,,,,,,,,,,,,,,,,,,,,,,,,,,,,,,,,,,,,,,,,,,,,,
,,,,,V3_049,19,Female,2024-11-05_15h50.11.472,jersey_experiment_5_v3,2023.2.2,Win32,84.03361345,,,,,,,,,,,,,,,,70.4866,72.0393,72.0394,73.3572,return,0.4615,,41.40625,0,5,5,52,1,FBP-RB-18.png,0.4,1.2,53,0.75,,,,,,,,,,,,,,,,,,,,,,,,,,,,,,,,,,,,,,,,,,,,,
,,,,,V3_049,19,Female,2024-11-05_15h50.11.472,jersey_experiment_5_v3,2023.2.2,Win32,84.03361345,,,,,,,,,,,,,,,,73.3574,74.6513,74.6514,75.7925,return,0.1985,,39.453125,0,6,6,32,1,FBP-OG-17.png,0.4,1.2,33,0.5,,,,,,,,,,,,,,,,,,,,,,,,,,,,,,,,,,,,,,,,,,,,,
,,,,,V3_049,19,Female,2024-11-05_15h50.11.472,jersey_experiment_5_v3,2023.2.2,Win32,84.03361345,,,,,,,,,,,,,,,,75.7927,77.3455,77.3455,79.3102,return,0.2277,,67.05729167,0,7,7,9,1,FBP-YG-81.png,0.45,1.2,10,0.75,,,,,,,,,,,,,,,,,,,,,,,,,,,,,,,,,,,,,,,,,,,,,
,,,,,V3_049,19,Female,2024-11-05_15h50.11.472,jersey_experiment_5_v3,2023.2.2,Win32,84.03361345,,,,,,,,,,,,,,,,79.3106,80.8634,80.8634,81.8044,return,0.1548,,40.36458333,0,8,8,6,1,FBP-YG-81.png,0.37,1.2,7,0.75,,,,,,,,,,,,,,,,,,,,,,,,,,,,,,,,,,,,,,,,,,,,,
,,,,,V3_049,19,Female,2024-11-05_15h50.11.472,jersey_experiment_5_v3,2023.2.2,Win32,84.03361345,,,,,,,,,,,,,,,,81.8045,83.3576,83.3576,85.64,return,1.5243,,40.625,0,9,9,25,1,FBP-PT-19.png,0.35,1.2,26,0.75,,,,,,,,,,,,,,,,,,,,,,,,,,,,,,,,,,,,,,,,,,,,,
,,,,,V3_049,19,Female,2024-11-05_15h50.11.472,jersey_experiment_5_v3,2023.2.2,Win32,84.03361345,,,,,,,,,,,,,,,,85.6403,87.1931,87.1931,88.2635,return,0.1481,,65.234375,0,10,10,59,1,FBP-RB-19.png,0.45,1.2,60,0.75,,,,,,,,,,,,,,,,,,,,,,,,,,,,,,,,,,,,,,,,,,,,,
,,,,,V3_049,19,Female,2024-11-05_15h50.11.472,jersey_experiment_5_v3,2023.2.2,Win32,84.03361345,,,,,,,,,,,,,,,,88.2639,89.8165,89.8165,91.0872,return,0.1264,,57.68229167,0,11,11,48,1,FBP-RB-17.png,0.43,1.2,49,0.75,,,,,,,,,,,,,,,,,,,,,,,,,,,,,,,,,,,,,,,,,,,,,
,,,,,V3_049,19,Female,2024-11-05_15h50.11.472,jersey_experiment_5_v3,2023.2.2,Win32,84.03361345,,,,,,,,,,,,,,,,91.0875,92.6402,92.6402,93.8637,return,0.1345,,56.51041667,0,12,12,54,1,FBP-RB-18.png,0.45,1.2,55,0.75,,,,,,,,,,,,,,,,,,,,,,,,,,,,,,,,,,,,,,,,,,,,,
,,,,,V3_049,19,Female,2024-11-05_15h50.11.472,jersey_experiment_5_v3,2023.2.2,Win32,84.03361345,,,,,,,,,,,,,,,,93.864,95.4054,95.4054,96.464,return,0.2373,,39.32291667,0,13,13,16,1,FBP-PT-17.png,0.37,1.2,17,0.75,,,,,,,,,,,,,,,,,,,,,,,,,,,,,,,,,,,,,,,,,,,,,
,,,,,V3_049,19,Female,2024-11-05_15h50.11.472,jersey_experiment_5_v3,2023.2.2,Win32,84.03361345,,,,,,,,,,,,,,,,96.4641,97.7581,97.7581,99.1816,return,0.2438,,66.40625,0,14,14,43,1,FBP-OG-19.png,0.43,1.2,44,0.5,,,,,,,,,,,,,,,,,,,,,,,,,,,,,,,,,,,,,,,,,,,,,
,,,,,V3_049,19,Female,2024-11-05_15h50.11.472,jersey_experiment_5_v3,2023.2.2,Win32,84.03361345,,,,,,,,,,,,,,,,99.1818,100.7231,100.7231,101.7582,return,0.0701,,60.80729167,0,15,15,18,1,FBP-PT-17.png,0.43,1.2,19,0.75,,,,,,,,,,,,,,,,,,,,,,,,,,,,,,,,,,,,,,,,,,,,,
,,,,,V3_049,19,Female,2024-11-05_15h50.11.472,jersey_experiment_5_v3,2023.2.2,Win32,84.03361345,,,,,,,,,,,,,,,,101.7585,103.3112,103.3112,104.3935,return,0.1189,,62.36979167,0,16,16,8,1,FBP-YG-81.png,0.43,1.2,9,0.75,,,,,,,,,,,,,,,,,,,,,,,,,,,,,,,,,,,,,,,,,,,,,
,,,,,V3_049,19,Female,2024-11-05_15h50.11.472,jersey_experiment_5_v3,2023.2.2,Win32,84.03361345,,,,,,,,,,,,,,,,104.3937,105.9467,105.9467,106.8878,return,0.1206,,35.67708333,0,17,17,45,1,FBP-RB-17.png,0.35,1.2,46,0.75,,,,,,,,,,,,,,,,,,,,,,,,,,,,,,,,,,,,,,,,,,,,,
,,,,,V3_049,19,Female,2024-11-05_15h50.11.472,jersey_experiment_5_v3,2023.2.2,Win32,84.03361345,,,,,,,,,,,,,,,,106.888,108.4291,108.4293,109.2291,return,0.1043,,38.02083333,0,18,18,21,1,FBP-PT-18.png,0.37,1.2,22,0.75,,,,,,,,,,,,,,,,,,,,,,,,,,,,,,,,,,,,,,,,,,,,,
,,,,,V3_049,19,Female,2024-11-05_15h50.11.472,jersey_experiment_5_v3,2023.2.2,Win32,84.03361345,,,,,,,,,,,,,,,,109.2293,110.7821,110.7822,111.5586,return,0.1022,,67.70833333,0,19,19,7,1,FBP-YG-81.png,0.4,1.2,8,0.75,,,,,,,,,,,,,,,,,,,,,,,,,,,,,,,,,,,,,,,,,,,,,
,,,,,V3_049,19,Female,2024-11-05_15h50.11.472,jersey_experiment_5_v3,2023.2.2,Win32,84.03361345,,,,,,,,,,,,,,,,111.5588,113.1117,113.1117,114.182,return,0.2637,,80.078125,0,20,20,4,1,FBP-YG-71.png,0.45,1.2,5,0.75,,,,,,,,,,,,,,,,,,,,,,,,,,,,,,,,,,,,,,,,,,,,,
,,,,,V3_049,19,Female,2024-11-05_15h50.11.472,jersey_experiment_5_v3,2023.2.2,Win32,84.03361345,,,,,,,,,,,,,,,,114.1823,115.4763,115.4764,116.7352,return,0.2354,,86.58854167,0,21,21,44,1,FBP-OG-19.png,0.45,1.2,45,0.5,,,,,,,,,,,,,,,,,,,,,,,,,,,,,,,,,,,,,,,,,,,,,
,,,,,V3_049,19,Female,2024-11-05_15h50.11.472,jersey_experiment_5_v3,2023.2.2,Win32,84.03361345,,,,,,,,,,,,,,,,116.7354,118.2882,118.2883,119.6413,return,0.0877,,49.47916667,0,22,22,22,1,FBP-PT-18.png,0.4,1.2,23,0.75,,,,,,,,,,,,,,,,,,,,,,,,,,,,,,,,,,,,,,,,,,,,,
,,,,,V3_049,19,Female,2024-11-05_15h50.11.472,jersey_experiment_5_v3,2023.2.2,Win32,84.03361345,,,,,,,,,,,,,,,,119.6415,121.1944,121.1944,122.1121,return,0.1181,,30.20833333,0,23,23,11,1,FBP-YG-91.png,0.37,1.2,12,0.75,,,,,,,,,,,,,,,,,,,,,,,,,,,,,,,,,,,,,,,,,,,,,
,,,,,V3_049,19,Female,2024-11-05_15h50.11.472,jersey_experiment_5_v3,2023.2.2,Win32,84.03361345,,,,,,,,,,,,,,,,122.1124,123.6651,123.6651,124.359,return,0.0412,,28.77604167,0,24,24,50,1,FBP-RB-18.png,0.35,1.2,51,0.75,,,,,,,,,,,,,,,,,,,,,,,,,,,,,,,,,,,,,,,,,,,,,
,,,,,V3_049,19,Female,2024-11-05_15h50.11.472,jersey_experiment_5_v3,2023.2.2,Win32,84.03361345,,,,,,,,,,,,,,,,124.3593,125.9122,125.9122,126.9708,return,0.1308,,73.95833333,0,25,25,23,1,FBP-PT-18.png,0.43,1.2,24,0.75,,,,,,,,,,,,,,,,,,,,,,,,,,,,,,,,,,,,,,,,,,,,,
,,,,,V3_049,19,Female,2024-11-05_15h50.11.472,jersey_experiment_5_v3,2023.2.2,Win32,84.03361345,,,,,,,,,,,,,,,,126.9711,128.5239,128.5239,129.4297,return,0.0912,,73.69791667,0,26,26,29,1,FBP-PT-19.png,0.45,1.2,30,0.75,,,,,,,,,,,,,,,,,,,,,,,,,,,,,,,,,,,,,,,,,,,,,
,,,,,V3_049,19,Female,2024-11-05_15h50.11.472,jersey_experiment_5_v3,2023.2.2,Win32,84.03361345,,,,,,,,,,,,,,,,129.4299,130.9828,130.9828,132.3005,return,0.0727,,48.69791667,0,27,27,2,1,FBP-YG-71.png,0.4,1.2,3,0.75,,,,,,,,,,,,,,,,,,,,,,,,,,,,,,,,,,,,,,,,,,,,,
,,,,,V3_049,19,Female,2024-11-05_15h50.11.472,jersey_experiment_5_v3,2023.2.2,Win32,84.03361345,,,,,,,,,,,,,,,,132.3007,133.8535,133.8535,134.7829,return,0.0314,,54.03645833,0,28,28,57,1,FBP-RB-19.png,0.4,1.2,58,0.75,,,,,,,,,,,,,,,,,,,,,,,,,,,,,,,,,,,,,,,,,,,,,
,,,,,V3_049,19,Female,2024-11-05_15h50.11.472,jersey_experiment_5_v3,2023.2.2,Win32,84.03361345,,,,,,,,,,,,,,,,134.7831,136.0772,136.0772,136.9712,return,0.1444,,31.77083333,0,29,29,40,1,FBP-OG-19.png,0.35,1.2,41,0.5,,,,,,,,,,,,,,,,,,,,,,,,,,,,,,,,,,,,,,,,,,,,,
,,,,,V3_049,19,Female,2024-11-05_15h50.11.472,jersey_experiment_5_v3,2023.2.2,Win32,84.03361345,,,,,,,,,,,,,,,,136.9715,138.2655,138.2656,139.1007,return,0.0842,,31.51041667,0,30,30,36,1,FBP-OG-18.png,0.37,1.2,37,0.5,,,,,,,,,,,,,,,,,,,,,,,,,,,,,,,,,,,,,,,,,,,,,
,,,,,V3_049,19,Female,2024-11-05_15h50.11.472,jersey_experiment_5_v3,2023.2.2,Win32,84.03361345,,,,,,,,,,,,,,,,139.101,140.6537,140.6538,141.1832,return,0.0559,,30.33854167,0,31,31,5,1,FBP-YG-81.png,0.35,1.2,6,0.75,,,,,,,,,,,,,,,,,,,,,,,,,,,,,,,,,,,,,,,,,,,,,
,,,,,V3_049,19,Female,2024-11-05_15h50.11.472,jersey_experiment_5_v3,2023.2.2,Win32,84.03361345,,,,,,,,,,,,,,,,141.1834,142.7362,142.7363,143.4655,return,0.1562,,55.98958333,0,32,32,27,1,FBP-PT-19.png,0.4,1.2,28,0.75,,,,,,,,,,,,,,,,,,,,,,,,,,,,,,,,,,,,,,,,,,,,,
,,,,,V3_049,19,Female,2024-11-05_15h50.11.472,jersey_experiment_5_v3,2023.2.2,Win32,84.03361345,,,,,,,,,,,,,,,,143.4658,145.0185,145.0186,147.207,return,0.3705,,63.15104167,0,33,33,3,1,FBP-YG-71.png,0.43,1.2,4,0.75,,,,,,,,,,,,,,,,,,,,,,,,,,,,,,,,,,,,,,,,,,,,,
,,,,,V3_049,19,Female,2024-11-05_15h50.11.472,jersey_experiment_5_v3,2023.2.2,Win32,84.03361345,,,,,,,,,,,,,,,,147.2072,148.76,148.7601,150.0305,return,0.0808,,55.46875,0,34,34,17,1,FBP-PT-17.png,0.4,1.2,18,0.75,,,,,,,,,,,,,,,,,,,,,,,,,,,,,,,,,,,,,,,,,,,,,
,,,,,V3_049,19,Female,2024-11-05_15h50.11.472,jersey_experiment_5_v3,2023.2.2,Win32,84.03361345,,,,,,,,,,,,,,,,150.0306,151.3249,151.325,152.0894,return,0.0738,,29.81770833,0,35,35,31,1,FBP-OG-17.png,0.37,1.2,32,0.5,,,,,,,,,,,,,,,,,,,,,,,,,,,,,,,,,,,,,,,,,,,,,
,,,,,V3_049,19,Female,2024-11-05_15h50.11.472,jersey_experiment_5_v3,2023.2.2,Win32,84.03361345,,,,,,,,,,,,,,,,152.0896,153.6426,153.6427,154.619,return,0.132,,74.21875,0,36,36,49,1,FBP-RB-17.png,0.45,1.2,50,0.75,,,,,,,,,,,,,,,,,,,,,,,,,,,,,,,,,,,,,,,,,,,,,
,,,,,V3_049,19,Female,2024-11-05_15h50.11.472,jersey_experiment_5_v3,2023.2.2,Win32,84.03361345,,,,,,,,,,,,,,,,154.6192,156.1718,156.1718,157.4075,return,0.0866,,25.91145833,0,37,37,10,1,FBP-YG-91.png,0.35,1.2,11,0.75,,,,,,,,,,,,,,,,,,,,,,,,,,,,,,,,,,,,,,,,,,,,,
,,,,,V3_049,19,Female,2024-11-05_15h50.11.472,jersey_experiment_5_v3,2023.2.2,Win32,84.03361345,,,,,,,,,,,,,,,,157.4077,158.7014,158.7014,160.0073,return,0.0878,,73.4375,0,38,38,34,1,FBP-OG-17.png,0.45,1.2,35,0.5,,,,,,,,,,,,,,,,,,,,,,,,,,,,,,,,,,,,,,,,,,,,,
,,,,,V3_049,19,Female,2024-11-05_15h50.11.472,jersey_experiment_5_v3,2023.2.2,Win32,84.03361345,,,,,,,,,,,,,,,,160.0075,161.3015,161.3016,162.1251,return,0.025,,25.26041667,0,39,39,35,1,FBP-OG-18.png,0.35,1.2,36,0.5,,,,,,,,,,,,,,,,,,,,,,,,,,,,,,,,,,,,,,,,,,,,,
,,,,,V3_049,19,Female,2024-11-05_15h50.11.472,jersey_experiment_5_v3,2023.2.2,Win32,84.03361345,,,,,,,,,,,,,,,,162.1254,163.4192,163.4193,164.5016,return,0.0423,,23.95833333,0,40,40,41,1,FBP-OG-19.png,0.37,1.2,42,0.5,,,,,,,,,,,,,,,,,,,,,,,,,,,,,,,,,,,,,,,,,,,,,
,,,,,V3_049,19,Female,2024-11-05_15h50.11.472,jersey_experiment_5_v3,2023.2.2,Win32,84.03361345,,,,,,,,,,,,,,,,164.502,166.0548,166.0549,168.0547,return,0.1564,,24.21875,0,41,41,0,1,FBP-YG-71.png,0.35,1.2,1,0.75,,,,,,,,,,,,,,,,,,,,,,,,,,,,,,,,,,,,,,,,,,,,,
,,,,,V3_049,19,Female,2024-11-05_15h50.11.472,jersey_experiment_5_v3,2023.2.2,Win32,84.03361345,,,,,,,,,,,,,,,,168.0549,169.3489,169.3489,170.5372,return,0.0966,,73.30729167,0,42,42,33,1,FBP-OG-17.png,0.43,1.2,34,0.5,,,,,,,,,,,,,,,,,,,,,,,,,,,,,,,,,,,,,,,,,,,,,
,,,,,V3_049,19,Female,2024-11-05_15h50.11.472,jersey_experiment_5_v3,2023.2.2,Win32,84.03361345,,,,,,,,,,,,,,,,170.5374,172.0903,172.0904,173.6784,return,0.1257,,24.08854167,0,43,43,46,1,FBP-RB-17.png,0.37,1.2,47,0.75,,,,,,,,,,,,,,,,,,,,,,,,,,,,,,,,,,,,,,,,,,,,,
,,,,,V3_049,19,Female,2024-11-05_15h50.11.472,jersey_experiment_5_v3,2023.2.2,Win32,84.03361345,,,,,,,,,,,,,,,,173.6786,175.2314,175.2315,176.1609,return,0.0732,,72.65625,0,44,44,13,1,FBP-YG-91.png,0.43,1.2,14,0.75,,,,,,,,,,,,,,,,,,,,,,,,,,,,,,,,,,,,,,,,,,,,,
,,,,,V3_049,19,Female,2024-11-05_15h50.11.472,jersey_experiment_5_v3,2023.2.2,Win32,84.03361345,,,,,,,,,,,,,,,,176.1611,177.455,177.455,178.7021,return,0.0943,,28.125,0,45,45,42,1,FBP-OG-19.png,0.4,1.2,43,0.5,,,,,,,,,,,,,,,,,,,,,,,,,,,,,,,,,,,,,,,,,,,,,
,,,,,V3_049,19,Female,2024-11-05_15h50.11.472,jersey_experiment_5_v3,2023.2.2,Win32,84.03361345,,,,,,,,,,,,,,,,178.7023,180.2554,180.2554,181.0199,return,0.1203,,75.52083333,0,46,46,19,1,FBP-PT-17.png,0.45,1.2,20,0.75,,,,,,,,,,,,,,,,,,,,,,,,,,,,,,,,,,,,,,,,,,,,,
,,,,,V3_049,19,Female,2024-11-05_15h50.11.472,jersey_experiment_5_v3,2023.2.2,Win32,84.03361345,,,,,,,,,,,,,,,,181.0202,182.5731,182.5731,183.6436,return,0.0862,,25,0,47,47,20,1,FBP-PT-18.png,0.35,1.2,21,0.75,,,,,,,,,,,,,,,,,,,,,,,,,,,,,,,,,,,,,,,,,,,,,
,,,,,V3_049,19,Female,2024-11-05_15h50.11.472,jersey_experiment_5_v3,2023.2.2,Win32,84.03361345,,,,,,,,,,,,,,,,183.6439,185.1964,185.1965,186.3141,return,0.1083,,74.86979167,0,48,48,28,1,FBP-PT-19.png,0.43,1.2,29,0.75,,,,,,,,,,,,,,,,,,,,,,,,,,,,,,,,,,,,,,,,,,,,,
,,,,,V3_049,19,Female,2024-11-05_15h50.11.472,jersey_experiment_5_v3,2023.2.2,Win32,84.03361345,,,,,,,,,,,,,,,,186.3144,187.8673,187.8673,188.938,return,0.0869,,25.78125,0,49,49,55,1,FBP-RB-19.png,0.35,1.2,56,0.75,,,,,,,,,,,,,,,,,,,,,,,,,,,,,,,,,,,,,,,,,,,,,
,,,,,V3_049,19,Female,2024-11-05_15h50.11.472,jersey_experiment_5_v3,2023.2.2,Win32,84.03361345,,,,,,,,,,,,,,,,188.9382,190.4909,190.4909,191.5145,return,0.1527,,74.73958333,0,50,50,14,1,FBP-YG-91.png,0.45,1.2,15,0.75,,,,,,,,,,,,,,,,,,,,,,,,,,,,,,,,,,,,,,,,,,,,,
,,,,,V3_049,19,Female,2024-11-05_15h50.11.472,jersey_experiment_5_v3,2023.2.2,Win32,84.03361345,,,,,,,,,,,,,,,,191.5147,193.0675,193.0675,193.8203,return,0.1055,,74.47916667,0,51,51,53,1,FBP-RB-18.png,0.43,1.2,54,0.75,,,,,,,,,,,,,,,,,,,,,,,,,,,,,,,,,,,,,,,,,,,,,
,,,,,V3_049,19,Female,2024-11-05_15h50.11.472,jersey_experiment_5_v3,2023.2.2,Win32,84.03361345,,,,,,,,,,,,,,,,193.8206,195.1146,195.1146,197.1499,return,1.2609,,76.953125,0,52,52,39,1,FBP-OG-18.png,0.45,1.2,40,0.5,,,,,,,,,,,,,,,,,,,,,,,,,,,,,,,,,,,,,,,,,,,,,
,,,,,V3_049,19,Female,2024-11-05_15h50.11.472,jersey_experiment_5_v3,2023.2.2,Win32,84.03361345,,,,,,,,,,,,,,,,197.1502,198.703,198.703,200.6206,return,0.5298,,36.97916667,0,53,53,12,1,FBP-YG-91.png,0.4,1.2,13,0.75,,,,,,,,,,,,,,,,,,,,,,,,,,,,,,,,,,,,,,,,,,,,,
,,,,,V3_049,19,Female,2024-11-05_15h50.11.472,jersey_experiment_5_v3,2023.2.2,Win32,84.03361345,,,,,,,,,,,,,,,,200.6209,202.1737,202.1737,202.8913,return,0.0863,,36.97916667,0,54,54,56,1,FBP-RB-19.png,0.37,1.2,57,0.75,,,,,,,,,,,,,,,,,,,,,,,,,,,,,,,,,,,,,,,,,,,,,
,,,,,V3_049,19,Female,2024-11-05_15h50.11.472,jersey_experiment_5_v3,2023.2.2,Win32,84.03361345,,,,,,,,,,,,,,,,202.8915,204.4444,204.4444,205.5267,return,0.1456,,93.75,0,55,55,24,1,FBP-PT-18.png,0.45,1.2,25,0.75,,,,,,,,,,,,,,,,,,,,,,,,,,,,,,,,,,,,,,,,,,,,,
,,,,,V3_049,19,Female,2024-11-05_15h50.11.472,jersey_experiment_5_v3,2023.2.2,Win32,84.03361345,,,,,,,,,,,,,,,,205.5269,206.8209,206.821,208.0798,return,0.1025,,36.71875,0,56,56,30,1,FBP-OG-17.png,0.35,1.2,31,0.5,,,,,,,,,,,,,,,,,,,,,,,,,,,,,,,,,,,,,,,,,,,,,
,,,,,V3_049,19,Female,2024-11-05_15h50.11.472,jersey_experiment_5_v3,2023.2.2,Win32,84.03361345,,,,,,,,,,,,,,,,208.0802,209.633,209.633,210.5739,return,0.2119,,41.27604167,0,57,57,47,1,FBP-RB-17.png,0.4,1.2,48,0.75,,,,,,,,,,,,,,,,,,,,,,,,,,,,,,,,,,,,,,,,,,,,,
,,,,,V3_049,19,Female,2024-11-05_15h50.11.472,jersey_experiment_5_v3,2023.2.2,Win32,84.03361345,,,,,,,,,,,,,,,,210.5743,212.1271,212.1271,212.9504,return,0.0864,,36.19791667,0,58,58,26,1,FBP-PT-19.png,0.37,1.2,27,0.75,,,,,,,,,,,,,,,,,,,,,,,,,,,,,,,,,,,,,,,,,,,,,
,,,,,V3_049,19,Female,2024-11-05_15h50.11.472,jersey_experiment_5_v3,2023.2.2,Win32,84.03361345,,,,,,,,,,,,,,,,212.9507,214.2447,214.2447,215.1506,return,0.0471,,41.015625,0,59,59,37,1,FBP-OG-18.png,0.4,1.2,38,0.5,,,,,,,,,,,,,,,,,,,,,,,,,,,,,,,,,,,,,,,,,,,,,
,,,,,V3_049,19,Female,2024-11-05_15h50.11.472,jersey_experiment_5_v3,2023.2.2,Win32,84.03361345,,,,,,,,,,,,,,,,215.1525,216.7036,216.7037,217.3741,return,0.0236,,40.10416667,,,,,,FBP-YG-17.png,0.37,1.2,2,0.75,0,0,0,1,1,,,,,,,,,,,,,,,,,,,,,,,,,,,,,,,,,,,,,,,,
,,,,,V3_049,19,Female,2024-11-05_15h50.11.472,jersey_experiment_5_v3,2023.2.2,Win32,84.03361345,,,,,,,,,,,,,,,,217.3744,218.6684,218.6685,220.1743,return,0.3851,,40.36458333,,,,,,FBP-OG-71.png,0.35,1.2,31,0.5,0,1,1,30,1,,,,,,,,,,,,,,,,,,,,,,,,,,,,,,,,,,,,,,,,
,,,,,V3_049,19,Female,2024-11-05_15h50.11.472,jersey_experiment_5_v3,2023.2.2,Win32,84.03361345,,,,,,,,,,,,,,,,220.1745,221.7273,221.7274,222.6685,return,0.0255,,53.77604167,,,,,,FBP-RB-81.png,0.4,1.2,53,0.75,0,2,2,52,1,,,,,,,,,,,,,,,,,,,,,,,,,,,,,,,,,,,,,,,,
,,,,,V3_049,19,Female,2024-11-05_15h50.11.472,jersey_experiment_5_v3,2023.2.2,Win32,84.03361345,,,,,,,,,,,,,,,,222.6687,224.2099,224.2099,225.0215,return,0.1419,,74.34895833,,,,,,FBP-YG-19.png,0.43,1.2,14,0.75,0,3,3,13,1,,,,,,,,,,,,,,,,,,,,,,,,,,,,,,,,,,,,,,,,
,,,,,V3_049,19,Female,2024-11-05_15h50.11.472,jersey_experiment_5_v3,2023.2.2,Win32,84.03361345,,,,,,,,,,,,,,,,225.0217,226.5629,226.563,227.4216,return,0.0821,,39.0625,,,,,,FBP-YG-18.png,0.35,1.2,6,0.75,0,4,4,5,1,,,,,,,,,,,,,,,,,,,,,,,,,,,,,,,,,,,,,,,,
,,,,,V3_049,19,Female,2024-11-05_15h50.11.472,jersey_experiment_5_v3,2023.2.2,Win32,84.03361345,,,,,,,,,,,,,,,,227.4218,228.9747,228.9747,230.104,return,0.124,,75.91145833,,,,,,FBP-YG-17.png,0.43,1.2,4,0.75,0,5,5,3,1,,,,,,,,,,,,,,,,,,,,,,,,,,,,,,,,,,,,,,,,
,,,,,V3_049,19,Female,2024-11-05_15h50.11.472,jersey_experiment_5_v3,2023.2.2,Win32,84.03361345,,,,,,,,,,,,,,,,230.1043,231.657,231.6571,233.0336,return,0.0947,,99.73958333,,,,,,FBP-RB-71.png,0.45,1.2,50,0.75,0,6,6,49,1,,,,,,,,,,,,,,,,,,,,,,,,,,,,,,,,,,,,,,,,
,,,,,V3_049,19,Female,2024-11-05_15h50.11.472,jersey_experiment_5_v3,2023.2.2,Win32,84.03361345,,,,,,,,,,,,,,,,233.0338,234.5865,234.5866,235.2571,return,0.1935,,98.4375,,,,,,FBP-YG-18.png,0.45,1.2,10,0.75,0,7,7,9,1,,,,,,,,,,,,,,,,,,,,,,,,,,,,,,,,,,,,,,,,
,,,,,V3_049,19,Female,2024-11-05_15h50.11.472,jersey_experiment_5_v3,2023.2.2,Win32,84.03361345,,,,,,,,,,,,,,,,235.2574,236.8102,236.8102,237.5514,return,0.1102,,98.30729167,,,,,,FBP-YG-17.png,0.45,1.2,5,0.75,0,8,8,4,1,,,,,,,,,,,,,,,,,,,,,,,,,,,,,,,,,,,,,,,,
,,,,,V3_049,19,Female,2024-11-05_15h50.11.472,jersey_experiment_5_v3,2023.2.2,Win32,84.03361345,,,,,,,,,,,,,,,,237.5516,239.1043,239.1044,240.3044,return,0.1415,,98.30729167,,,,,,FBP-PT-91.png,0.43,1.2,29,0.75,0,9,9,28,1,,,,,,,,,,,,,,,,,,,,,,,,,,,,,,,,,,,,,,,,
,,,,,V3_049,19,Female,2024-11-05_15h50.11.472,jersey_experiment_5_v3,2023.2.2,Win32,84.03361345,,,,,,,,,,,,,,,,240.3045,241.5988,241.5989,243.1633,return,0.0973,,65.234375,,,,,,FBP-OG-71.png,0.4,1.2,33,0.5,0,10,10,32,1,,,,,,,,,,,,,,,,,,,,,,,,,,,,,,,,,,,,,,,,
,,,,,V3_049,19,Female,2024-11-05_15h50.11.472,jersey_experiment_5_v3,2023.2.2,Win32,84.03361345,,,,,,,,,,,,,,,,243.1636,244.7165,244.7166,246.0222,return,0.2788,,99.47916667,,,,,,FBP-YG-19.png,0.45,1.2,15,0.75,0,11,11,14,1,,,,,,,,,,,,,,,,,,,,,,,,,,,,,,,,,,,,,,,,
,,,,,V3_049,19,Female,2024-11-05_15h50.11.472,jersey_experiment_5_v3,2023.2.2,Win32,84.03361345,,,,,,,,,,,,,,,,246.0225,247.3164,247.3164,248.3754,return,0.1231,,41.27604167,,,,,,FBP-OG-81.png,0.4,1.2,38,0.5,0,12,12,37,1,,,,,,,,,,,,,,,,,,,,,,,,,,,,,,,,,,,,,,,,
,,,,,V3_049,19,Female,2024-11-05_15h50.11.472,jersey_experiment_5_v3,2023.2.2,Win32,84.03361345,,,,,,,,,,,,,,,,248.3755,249.9284,249.9285,250.846,return,0.2126,,24.34895833,,,,,,FBP-RB-81.png,0.35,1.2,51,0.75,0,13,13,50,1,,,,,,,,,,,,,,,,,,,,,,,,,,,,,,,,,,,,,,,,
,,,,,V3_049,19,Female,2024-11-05_15h50.11.472,jersey_experiment_5_v3,2023.2.2,Win32,84.03361345,,,,,,,,,,,,,,,,250.8462,252.3993,252.3993,253.0345,return,0.1807,,19.921875,,,,,,FBP-PT-91.png,0.37,1.2,27,0.75,0,14,14,26,1,,,,,,,,,,,,,,,,,,,,,,,,,,,,,,,,,,,,,,,,
,,,,,V3_049,19,Female,2024-11-05_15h50.11.472,jersey_experiment_5_v3,2023.2.2,Win32,84.03361345,,,,,,,,,,,,,,,,253.0346,254.5875,254.5875,255.3285,return,0.0788,,75.26041667,,,,,,FBP-PT-81.png,0.43,1.2,24,0.75,0,15,15,23,1,,,,,,,,,,,,,,,,,,,,,,,,,,,,,,,,,,,,,,,,
,,,,,V3_049,19,Female,2024-11-05_15h50.11.472,jersey_experiment_5_v3,2023.2.2,Win32,84.03361345,,,,,,,,,,,,,,,,255.3288,256.6227,256.6228,258.0463,return,0.1339,,25.52083333,,,,,,FBP-OG-81.png,0.35,1.2,36,0.5,0,16,16,35,1,,,,,,,,,,,,,,,,,,,,,,,,,,,,,,,,,,,,,,,,
,,,,,V3_049,19,Female,2024-11-05_15h50.11.472,jersey_experiment_5_v3,2023.2.2,Win32,84.03361345,,,,,,,,,,,,,,,,258.0465,259.5994,259.5994,260.7522,return,0.1657,,97.65625,,,,,,FBP-PT-71.png,0.45,1.2,20,0.75,0,17,17,19,1,,,,,,,,,,,,,,,,,,,,,,,,,,,,,,,,,,,,,,,,
,,,,,V3_049,19,Female,2024-11-05_15h50.11.472,jersey_experiment_5_v3,2023.2.2,Win32,84.03361345,,,,,,,,,,,,,,,,260.7524,262.3053,262.3053,263.3405,return,0.2108,,97.78645833,,,,,,FBP-RB-81.png,0.45,1.2,55,0.75,0,18,18,54,1,,,,,,,,,,,,,,,,,,,,,,,,,,,,,,,,,,,,,,,,
,,,,,V3_049,19,Female,2024-11-05_15h50.11.472,jersey_experiment_5_v3,2023.2.2,Win32,84.03361345,,,,,,,,,,,,,,,,263.3407,264.8819,264.882,265.7289,return,0.0818,,38.93229167,,,,,,FBP-PT-91.png,0.35,1.2,26,0.75,0,19,19,25,1,,,,,,,,,,,,,,,,,,,,,,,,,,,,,,,,,,,,,,,,
,,,,,V3_049,19,Female,2024-11-05_15h50.11.472,jersey_experiment_5_v3,2023.2.2,Win32,84.03361345,,,,,,,,,,,,,,,,265.7291,267.282,267.282,268.2466,return,0.2059,,43.61979167,,,,,,FBP-YG-19.png,0.37,1.2,12,0.75,0,20,20,11,1,,,,,,,,,,,,,,,,,,,,,,,,,,,,,,,,,,,,,,,,
,,,,,V3_049,19,Female,2024-11-05_15h50.11.472,jersey_experiment_5_v3,2023.2.2,Win32,84.03361345,,,,,,,,,,,,,,,,268.2469,269.7996,269.7997,270.7291,return,0.1214,,75.390625,,,,,,FBP-YG-17.png,0.4,1.2,3,0.75,0,21,21,2,1,,,,,,,,,,,,,,,,,,,,,,,,,,,,,,,,,,,,,,,,
,,,,,V3_049,19,Female,2024-11-05_15h50.11.472,jersey_experiment_5_v3,2023.2.2,Win32,84.03361345,,,,,,,,,,,,,,,,270.7293,272.282,272.2821,273.0468,return,0.1124,,84.11458333,,,,,,FBP-RB-81.png,0.43,1.2,54,0.75,0,22,22,53,1,,,,,,,,,,,,,,,,,,,,,,,,,,,,,,,,,,,,,,,,
,,,,,V3_049,19,Female,2024-11-05_15h50.11.472,jersey_experiment_5_v3,2023.2.2,Win32,84.03361345,,,,,,,,,,,,,,,,273.0471,274.5999,274.6,275.9176,return,0.1268,,73.95833333,,,,,,FBP-YG-18.png,0.4,1.2,8,0.75,0,23,23,7,1,,,,,,,,,,,,,,,,,,,,,,,,,,,,,,,,,,,,,,,,
,,,,,V3_049,19,Female,2024-11-05_15h50.11.472,jersey_experiment_5_v3,2023.2.2,Win32,84.03361345,,,,,,,,,,,,,,,,275.9177,277.2117,277.2117,278.9176,return,0.1377,,41.92708333,,,,,,FBP-OG-71.png,0.37,1.2,32,0.5,0,24,24,31,1,,,,,,,,,,,,,,,,,,,,,,,,,,,,,,,,,,,,,,,,
,,,,,V3_049,19,Female,2024-11-05_15h50.11.472,jersey_experiment_5_v3,2023.2.2,Win32,84.03361345,,,,,,,,,,,,,,,,278.9178,280.4709,280.4709,281.3765,return,0.1022,,99.34895833,,,,,,FBP-RB-71.png,0.43,1.2,49,0.75,0,25,25,48,1,,,,,,,,,,,,,,,,,,,,,,,,,,,,,,,,,,,,,,,,
,,,,,V3_049,19,Female,2024-11-05_15h50.11.472,jersey_experiment_5_v3,2023.2.2,Win32,84.03361345,,,,,,,,,,,,,,,,281.3769,282.6707,282.6707,283.6002,return,0.1549,,97.13541667,,,,,,FBP-OG-81.png,0.43,1.2,39,0.5,0,26,26,38,1,,,,,,,,,,,,,,,,,,,,,,,,,,,,,,,,,,,,,,,,
,,,,,V3_049,19,Female,2024-11-05_15h50.11.472,jersey_experiment_5_v3,2023.2.2,Win32,84.03361345,,,,,,,,,,,,,,,,283.6003,285.1532,285.1532,285.7061,return,0.0849,,92.44791667,,,,,,FBP-PT-71.png,0.4,1.2,18,0.75,0,27,27,17,1,,,,,,,,,,,,,,,,,,,,,,,,,,,,,,,,,,,,,,,,
,,,,,V3_049,19,Female,2024-11-05_15h50.11.472,jersey_experiment_5_v3,2023.2.2,Win32,84.03361345,,,,,,,,,,,,,,,,285.7063,287.2592,287.2592,288.3297,return,0.1103,,45.96354167,,,,,,FBP-PT-81.png,0.35,1.2,21,0.75,0,28,28,20,1,,,,,,,,,,,,,,,,,,,,,,,,,,,,,,,,,,,,,,,,
,,,,,V3_049,19,Female,2024-11-05_15h50.11.472,jersey_experiment_5_v3,2023.2.2,Win32,84.03361345,,,,,,,,,,,,,,,,288.3299,289.8827,289.8827,290.6946,return,0.1727,,40.88541667,,,,,,FBP-PT-81.png,0.37,1.2,22,0.75,0,29,29,21,1,,,,,,,,,,,,,,,,,,,,,,,,,,,,,,,,,,,,,,,,
,,,,,V3_049,19,Female,2024-11-05_15h50.11.472,jersey_experiment_5_v3,2023.2.2,Win32,84.03361345,,,,,,,,,,,,,,,,290.6948,292.2477,292.2477,293.4946,return,0.5019,,25.65104167,,,,,,FBP-RB-71.png,0.35,1.2,46,0.75,0,30,30,45,1,,,,,,,,,,,,,,,,,,,,,,,,,,,,,,,,,,,,,,,,
,,,,,V3_049,19,Female,2024-11-05_15h50.11.472,jersey_experiment_5_v3,2023.2.2,Win32,84.03361345,,,,,,,,,,,,,,,,293.4949,295.0477,295.0477,296.0124,return,0.1524,,99.86979167,,,,,,FBP-RB-91.png,0.43,1.2,59,0.75,0,31,31,58,1,,,,,,,,,,,,,,,,,,,,,,,,,,,,,,,,,,,,,,,,
,,,,,V3_049,19,Female,2024-11-05_15h50.11.472,jersey_experiment_5_v3,2023.2.2,Win32,84.03361345,,,,,,,,,,,,,,,,296.0127,297.3065,297.3066,298.8243,return,0.0965,,99.609375,,,,,,FBP-OG-91.png,0.45,1.2,45,0.5,0,32,32,44,1,,,,,,,,,,,,,,,,,,,,,,,,,,,,,,,,,,,,,,,,
,,,,,V3_049,19,Female,2024-11-05_15h50.11.472,jersey_experiment_5_v3,2023.2.2,Win32,84.03361345,,,,,,,,,,,,,,,,298.8244,300.1185,300.1185,300.8008,return,0.0969,,99.08854167,,,,,,FBP-OG-91.png,0.4,1.2,43,0.5,0,33,33,42,1,,,,,,,,,,,,,,,,,,,,,,,,,,,,,,,,,,,,,,,,
,,,,,V3_049,19,Female,2024-11-05_15h50.11.472,jersey_experiment_5_v3,2023.2.2,Win32,84.03361345,,,,,,,,,,,,,,,,300.8009,302.0949,302.0949,302.5185,return,0.0533,,99.08854167,,,,,,FBP-OG-71.png,0.45,1.2,35,0.5,0,34,34,34,1,,,,,,,,,,,,,,,,,,,,,,,,,,,,,,,,,,,,,,,,
,,,,,V3_049,19,Female,2024-11-05_15h50.11.472,jersey_experiment_5_v3,2023.2.2,Win32,84.03361345,,,,,,,,,,,,,,,,302.5188,304.0715,304.0716,304.5892,return,0.1335,,99.08854167,,,,,,FBP-PT-81.png,0.45,1.2,25,0.75,0,35,35,24,1,,,,,,,,,,,,,,,,,,,,,,,,,,,,,,,,,,,,,,,,
,,,,,V3_049,19,Female,2024-11-05_15h50.11.472,jersey_experiment_5_v3,2023.2.2,Win32,84.03361345,,,,,,,,,,,,,,,,304.5894,306.142,306.1421,306.7657,return,0.1026,,99.08854167,,,,,,FBP-PT-81.png,0.4,1.2,23,0.75,0,36,36,22,1,,,,,,,,,,,,,,,,,,,,,,,,,,,,,,,,,,,,,,,,
,,,,,V3_049,19,Female,2024-11-05_15h50.11.472,jersey_experiment_5_v3,2023.2.2,Win32,84.03361345,,,,,,,,,,,,,,,,306.7659,308.3187,308.3188,309.7894,return,0.0843,,74.21875,,,,,,FBP-RB-71.png,0.4,1.2,48,0.75,0,37,37,47,1,,,,,,,,,,,,,,,,,,,,,,,,,,,,,,,,,,,,,,,,
,,,,,V3_049,19,Female,2024-11-05_15h50.11.472,jersey_experiment_5_v3,2023.2.2,Win32,84.03361345,,,,,,,,,,,,,,,,309.7897,311.3424,311.3424,312.5189,return,0.1604,,25.65104167,,,,,,FBP-RB-81.png,0.37,1.2,52,0.75,0,38,38,51,1,,,,,,,,,,,,,,,,,,,,,,,,,,,,,,,,,,,,,,,,
,,,,,V3_049,19,Female,2024-11-05_15h50.11.472,jersey_experiment_5_v3,2023.2.2,Win32,84.03361345,,,,,,,,,,,,,,,,312.5191,313.8131,313.8131,315.1306,return,0.1571,,25,,,,,,FBP-OG-81.png,0.37,1.2,37,0.5,0,39,39,36,1,,,,,,,,,,,,,,,,,,,,,,,,,,,,,,,,,,,,,,,,
,,,,,V3_049,19,Female,2024-11-05_15h50.11.472,jersey_experiment_5_v3,2023.2.2,Win32,84.03361345,,,,,,,,,,,,,,,,315.1309,316.6837,316.6837,317.1895,return,0.1592,,24.86979167,,,,,,FBP-YG-18.png,0.37,1.2,7,0.75,0,40,40,6,1,,,,,,,,,,,,,,,,,,,,,,,,,,,,,,,,,,,,,,,,
,,,,,V3_049,19,Female,2024-11-05_15h50.11.472,jersey_experiment_5_v3,2023.2.2,Win32,84.03361345,,,,,,,,,,,,,,,,317.1897,318.4839,318.4839,320.2838,return,0.1552,,75.52083333,,,,,,FBP-OG-91.png,0.43,1.2,44,0.5,0,41,41,43,1,,,,,,,,,,,,,,,,,,,,,,,,,,,,,,,,,,,,,,,,
,,,,,V3_049,19,Female,2024-11-05_15h50.11.472,jersey_experiment_5_v3,2023.2.2,Win32,84.03361345,,,,,,,,,,,,,,,,320.2841,321.8371,321.8372,323.0017,return,0.1223,,26.69270833,,,,,,FBP-RB-91.png,0.37,1.2,57,0.75,0,42,42,56,1,,,,,,,,,,,,,,,,,,,,,,,,,,,,,,,,,,,,,,,,
,,,,,V3_049,19,Female,2024-11-05_15h50.11.472,jersey_experiment_5_v3,2023.2.2,Win32,84.03361345,,,,,,,,,,,,,,,,323.002,324.5546,324.5547,327.1428,return,0.1015,,0.260416667,,,,,,FBP-RB-91.png,0.35,1.2,56,0.75,0,43,43,55,1,,,,,,,,,,,,,,,,,,,,,,,,,,,,,,,,,,,,,,,,
,,,,,V3_049,19,Female,2024-11-05_15h50.11.472,jersey_experiment_5_v3,2023.2.2,Win32,84.03361345,,,,,,,,,,,,,,,,327.1432,328.4371,328.4371,329.3547,return,0.1682,,0.651041667,,,,,,FBP-OG-91.png,0.37,1.2,42,0.5,0,44,44,41,1,,,,,,,,,,,,,,,,,,,,,,,,,,,,,,,,,,,,,,,,
,,,,,V3_049,19,Female,2024-11-05_15h50.11.472,jersey_experiment_5_v3,2023.2.2,Win32,84.03361345,,,,,,,,,,,,,,,,329.355,330.9077,330.9078,331.4843,return,0.1551,,0.911458333,,,,,,FBP-YG-17.png,0.35,1.2,1,0.75,0,45,45,0,1,,,,,,,,,,,,,,,,,,,,,,,,,,,,,,,,,,,,,,,,
,,,,,V3_049,19,Female,2024-11-05_15h50.11.472,jersey_experiment_5_v3,2023.2.2,Win32,84.03361345,,,,,,,,,,,,,,,,331.4845,333.0371,333.0371,334.049,return,0.2331,,0.911458333,,,,,,FBP-RB-71.png,0.37,1.2,47,0.75,0,46,46,46,1,,,,,,,,,,,,,,,,,,,,,,,,,,,,,,,,,,,,,,,,
,,,,,V3_049,19,Female,2024-11-05_15h50.11.472,jersey_experiment_5_v3,2023.2.2,Win32,84.03361345,,,,,,,,,,,,,,,,334.0491,335.3432,335.3432,337.4962,return,0.1333,,99.609375,,,,,,FBP-OG-71.png,0.43,1.2,34,0.5,0,47,47,33,1,,,,,,,,,,,,,,,,,,,,,,,,,,,,,,,,,,,,,,,,
,,,,,V3_049,19,Female,2024-11-05_15h50.11.472,jersey_experiment_5_v3,2023.2.2,Win32,84.03361345,,,,,,,,,,,,,,,,337.4964,339.0491,339.0492,339.5432,return,0.1485,,99.34895833,,,,,,FBP-PT-91.png,0.45,1.2,30,0.75,0,48,48,29,1,,,,,,,,,,,,,,,,,,,,,,,,,,,,,,,,,,,,,,,,
,,,,,V3_049,19,Female,2024-11-05_15h50.11.472,jersey_experiment_5_v3,2023.2.2,Win32,84.03361345,,,,,,,,,,,,,,,,339.5434,341.0848,341.0849,342.614,return,0.1377,,49.73958333,,,,,,FBP-YG-19.png,0.35,1.2,11,0.75,0,49,49,10,1,,,,,,,,,,,,,,,,,,,,,,,,,,,,,,,,,,,,,,,,
,,,,,V3_049,19,Female,2024-11-05_15h50.11.472,jersey_experiment_5_v3,2023.2.2,Win32,84.03361345,,,,,,,,,,,,,,,,342.6143,344.1672,344.1673,344.7317,return,0.0622,,74.609375,,,,,,FBP-RB-91.png,0.4,1.2,58,0.75,0,50,50,57,1,,,,,,,,,,,,,,,,,,,,,,,,,,,,,,,,,,,,,,,,
,,,,,V3_049,19,Female,2024-11-05_15h50.11.472,jersey_experiment_5_v3,2023.2.2,Win32,84.03361345,,,,,,,,,,,,,,,,344.732,346.0259,346.0259,347.2967,return,0.2815,,50,,,,,,FBP-OG-91.png,0.35,1.2,41,0.5,0,51,51,40,1,,,,,,,,,,,,,,,,,,,,,,,,,,,,,,,,,,,,,,,,
,,,,,V3_049,19,Female,2024-11-05_15h50.11.472,jersey_experiment_5_v3,2023.2.2,Win32,84.03361345,,,,,,,,,,,,,,,,347.2968,348.8497,348.8497,350.379,return,0.1331,,99.609375,,,,,,FBP-RB-91.png,0.45,1.2,60,0.75,0,52,52,59,1,,,,,,,,,,,,,,,,,,,,,,,,,,,,,,,,,,,,,,,,
,,,,,V3_049,19,Female,2024-11-05_15h50.11.472,jersey_experiment_5_v3,2023.2.2,Win32,84.03361345,,,,,,,,,,,,,,,,350.3791,351.9205,351.9206,353.6146,return,0.881,,99.08854167,,,,,,FBP-YG-18.png,0.43,1.2,9,0.75,0,53,53,8,1,,,,,,,,,,,,,,,,,,,,,,,,,,,,,,,,,,,,,,,,
,,,,,V3_049,19,Female,2024-11-05_15h50.11.472,jersey_experiment_5_v3,2023.2.2,Win32,84.03361345,,,,,,,,,,,,,,,,353.6148,355.1674,355.1674,355.7676,return,0.1679,,99.609375,,,,,,FBP-PT-91.png,0.4,1.2,28,0.75,0,54,54,27,1,,,,,,,,,,,,,,,,,,,,,,,,,,,,,,,,,,,,,,,,
,,,,,V3_049,19,Female,2024-11-05_15h50.11.472,jersey_experiment_5_v3,2023.2.2,Win32,84.03361345,,,,,,,,,,,,,,,,355.7678,357.3206,357.3206,358.497,return,0.1331,,75.78125,,,,,,FBP-YG-19.png,0.4,1.2,13,0.75,0,55,55,12,1,,,,,,,,,,,,,,,,,,,,,,,,,,,,,,,,,,,,,,,,
,,,,,V3_049,19,Female,2024-11-05_15h50.11.472,jersey_experiment_5_v3,2023.2.2,Win32,84.03361345,,,,,,,,,,,,,,,,358.4973,359.7912,359.7912,361.2383,return,0.1493,,99.34895833,,,,,,FBP-OG-81.png,0.45,1.2,40,0.5,0,56,56,39,1,,,,,,,,,,,,,,,,,,,,,,,,,,,,,,,,,,,,,,,,
,,,,,V3_049,19,Female,2024-11-05_15h50.11.472,jersey_experiment_5_v3,2023.2.2,Win32,84.03361345,,,,,,,,,,,,,,,,361.2384,362.7911,362.7911,363.3442,return,0.1311,,99.08854167,,,,,,FBP-PT-71.png,0.43,1.2,19,0.75,0,57,57,18,1,,,,,,,,,,,,,,,,,,,,,,,,,,,,,,,,,,,,,,,,
,,,,,V3_049,19,Female,2024-11-05_15h50.11.472,jersey_experiment_5_v3,2023.2.2,Win32,84.03361345,,,,,,,,,,,,,,,,363.3445,364.8971,364.8971,366.4738,return,0.1191,,31.77083333,,,,,,FBP-PT-71.png,0.37,1.2,17,0.75,0,58,58,16,1,,,,,,,,,,,,,,,,,,,,,,,,,,,,,,,,,,,,,,,,
,,,,,V3_049,19,Female,2024-11-05_15h50.11.472,jersey_experiment_5_v3,2023.2.2,Win32,84.03361345,,,,,,,,,,,,,,,,366.4741,368.0269,368.0269,368.768,return,0.0708,,24.47916667,,,,,,FBP-PT-71.png,0.35,1.2,16,0.75,0,59,59,15,1,,,,,,,,,,,,,,,,,,,,,,,,,,,,,,,,,,,,,,,,
,,,,,V3_049,19,Female,2024-11-05_15h50.11.472,jersey_experiment_5_v3,2023.2.2,Win32,84.03361345,,,,,,,,,,,,,,,,,,,,,,,,,,,,,,,,,,,,,,,368.7682,488.7608,,,,,,,,,,,,,,,,,,,,,,,,,,,,,,,,,,,,,,
,,,,,V3_049,19,Female,2024-11-05_15h50.11.472,jersey_experiment_5_v3,2023.2.2,Win32,84.03361345,,,,,,,,,,,,,,,,,,,,,,,,,,,,,,,,,,,,,,,,,488.7609,490.6314,return,1.8651,,,,,,,,,,,,,,,,,,,,,,,,,,,,,,,,,,
,,,,,V3_049,19,Female,2024-11-05_15h50.11.472,jersey_experiment_5_v3,2023.2.2,Win32,84.03361345,,,,,,,,,,,,,,,,490.6331,492.1843,492.1844,494.9726,return,1.5068,,74.34895833,,,,,,FBP-OG-18.png,0.45,1.2,40,0.75,,,,,,,,,,,,,0,0,0,39,1,,,,,,,,,,,,,,,,,,,,,,,,,,,,
,,,,,V3_049,19,Female,2024-11-05_15h50.11.472,jersey_experiment_5_v3,2023.2.2,Win32,84.03361345,,,,,,,,,,,,,,,,494.9729,496.267,496.267,497.1139,return,0.0946,,23.69791667,,,,,,FBP-PT-18.png,0.4,1.2,23,0.5,,,,,,,,,,,,,0,1,1,22,1,,,,,,,,,,,,,,,,,,,,,,,,,,,,
,,,,,V3_049,19,Female,2024-11-05_15h50.11.472,jersey_experiment_5_v3,2023.2.2,Win32,84.03361345,,,,,,,,,,,,,,,,497.1141,498.4082,498.4082,499.2787,return,0.4229,,25.13020833,,,,,,FBP-YG-81.png,0.37,1.2,7,0.5,,,,,,,,,,,,,0,2,2,6,1,,,,,,,,,,,,,,,,,,,,,,,,,,,,
,,,,,V3_049,19,Female,2024-11-05_15h50.11.472,jersey_experiment_5_v3,2023.2.2,Win32,84.03361345,,,,,,,,,,,,,,,,499.2789,500.5727,500.5728,501.0552,return,0.1416,,25.13020833,,,,,,FBP-RB-19.png,0.35,1.2,56,0.5,,,,,,,,,,,,,0,3,3,55,1,,,,,,,,,,,,,,,,,,,,,,,,,,,,
,,,,,V3_049,19,Female,2024-11-05_15h50.11.472,jersey_experiment_5_v3,2023.2.2,Win32,84.03361345,,,,,,,,,,,,,,,,501.0554,502.3495,502.3495,505.2435,return,1.5556,,74.21875,,,,,,FBP-RB-17.png,0.45,1.2,50,0.5,,,,,,,,,,,,,0,4,4,49,1,,,,,,,,,,,,,,,,,,,,,,,,,,,,
,,,,,V3_049,19,Female,2024-11-05_15h50.11.472,jersey_experiment_5_v3,2023.2.2,Win32,84.03361345,,,,,,,,,,,,,,,,505.2439,506.5376,506.5377,508.0084,return,0.3549,,23.4375,,,,,,FBP-PT-17.png,0.37,1.2,17,0.5,,,,,,,,,,,,,0,5,5,16,1,,,,,,,,,,,,,,,,,,,,,,,,,,,,
,,,,,V3_049,19,Female,2024-11-05_15h50.11.472,jersey_experiment_5_v3,2023.2.2,Win32,84.03361345,,,,,,,,,,,,,,,,508.0087,509.3025,509.3026,509.9615,return,0.2043,,26.30208333,,,,,,FBP-RB-18.png,0.37,1.2,52,0.5,,,,,,,,,,,,,0,6,6,51,1,,,,,,,,,,,,,,,,,,,,,,,,,,,,
,,,,,V3_049,19,Female,2024-11-05_15h50.11.472,jersey_experiment_5_v3,2023.2.2,Win32,84.03361345,,,,,,,,,,,,,,,,509.9617,511.2557,511.2557,513.1969,return,0.3072,,99.86979167,,,,,,FBP-PT-17.png,0.45,1.2,20,0.5,,,,,,,,,,,,,0,7,7,19,1,,,,,,,,,,,,,,,,,,,,,,,,,,,,
,,,,,V3_049,19,Female,2024-11-05_15h50.11.472,jersey_experiment_5_v3,2023.2.2,Win32,84.03361345,,,,,,,,,,,,,,,,513.1971,514.491,514.4911,515.597,return,0.1264,,23.828125,,,,,,FBP-PT-19.png,0.35,1.2,26,0.5,,,,,,,,,,,,,0,8,8,25,1,,,,,,,,,,,,,,,,,,,,,,,,,,,,
,,,,,V3_049,19,Female,2024-11-05_15h50.11.472,jersey_experiment_5_v3,2023.2.2,Win32,84.03361345,,,,,,,,,,,,,,,,515.5974,516.8913,516.8913,518.7971,return,0.3069,,99.21875,,,,,,FBP-YG-71.png,0.43,1.2,4,0.5,,,,,,,,,,,,,0,9,9,3,1,,,,,,,,,,,,,,,,,,,,,,,,,,,,
,,,,,V3_049,19,Female,2024-11-05_15h50.11.472,jersey_experiment_5_v3,2023.2.2,Win32,84.03361345,,,,,,,,,,,,,,,,518.7973,520.3501,520.3502,521.5972,return,0.1896,,24.21875,,,,,,FBP-OG-18.png,0.35,1.2,36,0.75,,,,,,,,,,,,,0,10,10,35,1,,,,,,,,,,,,,,,,,,,,,,,,,,,,
,,,,,V3_049,19,Female,2024-11-05_15h50.11.472,jersey_experiment_5_v3,2023.2.2,Win32,84.03361345,,,,,,,,,,,,,,,,521.5974,522.8914,522.8914,524.0561,return,0.0515,,25.78125,,,,,,FBP-YG-91.png,0.37,1.2,12,0.5,,,,,,,,,,,,,0,11,11,11,1,,,,,,,,,,,,,,,,,,,,,,,,,,,,
,,,,,V3_049,19,Female,2024-11-05_15h50.11.472,jersey_experiment_5_v3,2023.2.2,Win32,84.03361345,,,,,,,,,,,,,,,,524.0563,525.3503,525.3504,526.2797,return,0.1947,,97.13541667,,,,,,FBP-PT-17.png,0.43,1.2,19,0.5,,,,,,,,,,,,,0,12,12,18,1,,,,,,,,,,,,,,,,,,,,,,,,,,,,
,,,,,V3_049,19,Female,2024-11-05_15h50.11.472,jersey_experiment_5_v3,2023.2.2,Win32,84.03361345,,,,,,,,,,,,,,,,526.28,527.574,527.574,528.574,return,0.1783,,97.91666667,,,,,,FBP-RB-17.png,0.43,1.2,49,0.5,,,,,,,,,,,,,0,13,13,48,1,,,,,,,,,,,,,,,,,,,,,,,,,,,,
,,,,,V3_049,19,Female,2024-11-05_15h50.11.472,jersey_experiment_5_v3,2023.2.2,Win32,84.03361345,,,,,,,,,,,,,,,,528.5743,529.8681,529.8681,531.9622,return,0.1805,,99.47916667,,,,,,FBP-PT-18.png,0.45,1.2,25,0.5,,,,,,,,,,,,,0,14,14,24,1,,,,,,,,,,,,,,,,,,,,,,,,,,,,
,,,,,V3_049,19,Female,2024-11-05_15h50.11.472,jersey_experiment_5_v3,2023.2.2,Win32,84.03361345,,,,,,,,,,,,,,,,531.9624,533.2564,533.2564,535.5153,return,0.0852,,24.86979167,,,,,,FBP-PT-18.png,0.35,1.2,21,0.5,,,,,,,,,,,,,0,15,15,20,1,,,,,,,,,,,,,,,,,,,,,,,,,,,,
,,,,,V3_049,19,Female,2024-11-05_15h50.11.472,jersey_experiment_5_v3,2023.2.2,Win32,84.03361345,,,,,,,,,,,,,,,,535.5154,536.8093,536.8094,537.3388,return,0.121,,24.86979167,,,,,,FBP-RB-17.png,0.35,1.2,46,0.5,,,,,,,,,,,,,0,16,16,45,1,,,,,,,,,,,,,,,,,,,,,,,,,,,,
,,,,,V3_049,19,Female,2024-11-05_15h50.11.472,jersey_experiment_5_v3,2023.2.2,Win32,84.03361345,,,,,,,,,,,,,,,,537.3391,538.8918,538.8918,539.2802,return,0.046,,24.86979167,,,,,,FBP-OG-17.png,0.35,1.2,31,0.75,,,,,,,,,,,,,0,17,17,30,1,,,,,,,,,,,,,,,,,,,,,,,,,,,,
,,,,,V3_049,19,Female,2024-11-05_15h50.11.472,jersey_experiment_5_v3,2023.2.2,Win32,84.03361345,,,,,,,,,,,,,,,,539.2804,540.5744,540.5744,542.8214,return,0.2207,,99.08854167,,,,,,FBP-RB-18.png,0.45,1.2,55,0.5,,,,,,,,,,,,,0,18,18,54,1,,,,,,,,,,,,,,,,,,,,,,,,,,,,
,,,,,V3_049,19,Female,2024-11-05_15h50.11.472,jersey_experiment_5_v3,2023.2.2,Win32,84.03361345,,,,,,,,,,,,,,,,542.8216,544.3746,544.3746,546.3745,return,0.4077,,98.95833333,,,,,,FBP-OG-19.png,0.45,1.2,45,0.75,,,,,,,,,,,,,0,19,19,44,1,,,,,,,,,,,,,,,,,,,,,,,,,,,,
,,,,,V3_049,19,Female,2024-11-05_15h50.11.472,jersey_experiment_5_v3,2023.2.2,Win32,84.03361345,,,,,,,,,,,,,,,,546.3748,547.6689,547.6689,548.9276,return,0.1168,,24.609375,,,,,,FBP-RB-19.png,0.37,1.2,57,0.5,,,,,,,,,,,,,0,20,20,56,1,,,,,,,,,,,,,,,,,,,,,,,,,,,,
,,,,,V3_049,19,Female,2024-11-05_15h50.11.472,jersey_experiment_5_v3,2023.2.2,Win32,84.03361345,,,,,,,,,,,,,,,,548.9278,550.4806,550.4807,551.0217,return,0.1416,,24.609375,,,,,,FBP-OG-18.png,0.37,1.2,37,0.75,,,,,,,,,,,,,0,21,21,36,1,,,,,,,,,,,,,,,,,,,,,,,,,,,,
,,,,,V3_049,19,Female,2024-11-05_15h50.11.472,jersey_experiment_5_v3,2023.2.2,Win32,84.03361345,,,,,,,,,,,,,,,,551.0219,552.3159,552.316,553.9513,return,0.212,,74.47916667,,,,,,FBP-RB-17.png,0.4,1.2,48,0.5,,,,,,,,,,,,,0,22,22,47,1,,,,,,,,,,,,,,,,,,,,,,,,,,,,
,,,,,V3_049,19,Female,2024-11-05_15h50.11.472,jersey_experiment_5_v3,2023.2.2,Win32,84.03361345,,,,,,,,,,,,,,,,553.9515,555.2455,555.2455,556.9748,return,0.3079,,74.08854167,,,,,,FBP-RB-19.png,0.4,1.2,58,0.5,,,,,,,,,,,,,0,23,23,57,1,,,,,,,,,,,,,,,,,,,,,,,,,,,,
,,,,,V3_049,19,Female,2024-11-05_15h50.11.472,jersey_experiment_5_v3,2023.2.2,Win32,84.03361345,,,,,,,,,,,,,,,,556.9751,558.2692,558.2692,559.3044,return,0.0746,,75.13020833,,,,,,FBP-RB-19.png,0.43,1.2,59,0.5,,,,,,,,,,,,,0,24,24,58,1,,,,,,,,,,,,,,,,,,,,,,,,,,,,
,,,,,V3_049,19,Female,2024-11-05_15h50.11.472,jersey_experiment_5_v3,2023.2.2,Win32,84.03361345,,,,,,,,,,,,,,,,559.3046,560.5988,560.5988,561.9045,return,0.0943,,23.828125,,,,,,FBP-YG-91.png,0.35,1.2,11,0.5,,,,,,,,,,,,,0,25,25,10,1,,,,,,,,,,,,,,,,,,,,,,,,,,,,
,,,,,V3_049,19,Female,2024-11-05_15h50.11.472,jersey_experiment_5_v3,2023.2.2,Win32,84.03361345,,,,,,,,,,,,,,,,561.9048,563.1988,563.1988,564.6457,return,0.1379,,75.52083333,,,,,,FBP-YG-91.png,0.4,1.2,13,0.5,,,,,,,,,,,,,0,26,26,12,1,,,,,,,,,,,,,,,,,,,,,,,,,,,,
,,,,,V3_049,19,Female,2024-11-05_15h50.11.472,jersey_experiment_5_v3,2023.2.2,Win32,84.03361345,,,,,,,,,,,,,,,,564.646,566.1988,566.1989,566.7518,return,0.1413,,75.52083333,,,,,,FBP-OG-17.png,0.43,1.2,34,0.75,,,,,,,,,,,,,0,27,27,33,1,,,,,,,,,,,,,,,,,,,,,,,,,,,,
,,,,,V3_049,19,Female,2024-11-05_15h50.11.472,jersey_experiment_5_v3,2023.2.2,Win32,84.03361345,,,,,,,,,,,,,,,,566.7521,568.0461,568.0461,568.7518,return,0.1413,,75,,,,,,FBP-YG-71.png,0.4,1.2,3,0.5,,,,,,,,,,,,,0,28,28,2,1,,,,,,,,,,,,,,,,,,,,,,,,,,,,
,,,,,V3_049,19,Female,2024-11-05_15h50.11.472,jersey_experiment_5_v3,2023.2.2,Win32,84.03361345,,,,,,,,,,,,,,,,568.7521,570.0459,570.0459,571.1283,return,0.1234,,85.41666667,,,,,,FBP-RB-18.png,0.43,1.2,54,0.5,,,,,,,,,,,,,0,29,29,53,1,,,,,,,,,,,,,,,,,,,,,,,,,,,,
,,,,,V3_049,19,Female,2024-11-05_15h50.11.472,jersey_experiment_5_v3,2023.2.2,Win32,84.03361345,,,,,,,,,,,,,,,,571.1286,572.6814,572.6814,573.3755,return,0.0448,,99.34895833,,,,,,FBP-OG-17.png,0.45,1.2,35,0.75,,,,,,,,,,,,,0,30,30,34,1,,,,,,,,,,,,,,,,,,,,,,,,,,,,
,,,,,V3_049,19,Female,2024-11-05_15h50.11.472,jersey_experiment_5_v3,2023.2.2,Win32,84.03361345,,,,,,,,,,,,,,,,573.3757,574.6697,574.6697,575.1755,return,0.1006,,99.34895833,,,,,,FBP-YG-91.png,0.45,1.2,15,0.5,,,,,,,,,,,,,0,31,31,14,1,,,,,,,,,,,,,,,,,,,,,,,,,,,,
,,,,,V3_049,19,Female,2024-11-05_15h50.11.472,jersey_experiment_5_v3,2023.2.2,Win32,84.03361345,,,,,,,,,,,,,,,,575.1758,576.4698,576.4698,577.3875,return,0.1068,,76.43229167,,,,,,FBP-PT-17.png,0.4,1.2,18,0.5,,,,,,,,,,,,,0,32,32,17,1,,,,,,,,,,,,,,,,,,,,,,,,,,,,
,,,,,V3_049,19,Female,2024-11-05_15h50.11.472,jersey_experiment_5_v3,2023.2.2,Win32,84.03361345,,,,,,,,,,,,,,,,577.3877,578.6815,578.6816,579.6934,return,0.1056,,24.47916667,,,,,,FBP-PT-18.png,0.37,1.2,22,0.5,,,,,,,,,,,,,0,33,33,21,1,,,,,,,,,,,,,,,,,,,,,,,,,,,,
,,,,,V3_049,19,Female,2024-11-05_15h50.11.472,jersey_experiment_5_v3,2023.2.2,Win32,84.03361345,,,,,,,,,,,,,,,,579.6936,580.9875,580.9876,582.1523,return,0.0731,,97.52604167,,,,,,FBP-PT-19.png,0.45,1.2,30,0.5,,,,,,,,,,,,,0,34,34,29,1,,,,,,,,,,,,,,,,,,,,,,,,,,,,
,,,,,V3_049,19,Female,2024-11-05_15h50.11.472,jersey_experiment_5_v3,2023.2.2,Win32,84.03361345,,,,,,,,,,,,,,,,582.1526,583.4466,583.4466,585.0701,return,0.0962,,74.47916667,,,,,,FBP-RB-18.png,0.4,1.2,53,0.5,,,,,,,,,,,,,0,35,35,52,1,,,,,,,,,,,,,,,,,,,,,,,,,,,,
,,,,,V3_049,19,Female,2024-11-05_15h50.11.472,jersey_experiment_5_v3,2023.2.2,Win32,84.03361345,,,,,,,,,,,,,,,,585.0704,586.3642,586.3642,587.5526,return,0.7141,,74.47916667,,,,,,FBP-PT-19.png,0.4,1.2,28,0.5,,,,,,,,,,,,,0,36,36,27,1,,,,,,,,,,,,,,,,,,,,,,,,,,,,
,,,,,V3_049,19,Female,2024-11-05_15h50.11.472,jersey_experiment_5_v3,2023.2.2,Win32,84.03361345,,,,,,,,,,,,,,,,587.5528,588.8467,588.8468,589.7177,return,0.0796,,98.828125,,,,,,FBP-YG-91.png,0.43,1.2,14,0.5,,,,,,,,,,,,,0,37,37,13,1,,,,,,,,,,,,,,,,,,,,,,,,,,,,
,,,,,V3_049,19,Female,2024-11-05_15h50.11.472,jersey_experiment_5_v3,2023.2.2,Win32,84.03361345,,,,,,,,,,,,,,,,589.7179,591.2704,591.2704,591.9761,return,0.0381,,75,,,,,,FBP-OG-19.png,0.4,1.2,43,0.75,,,,,,,,,,,,,0,38,38,42,1,,,,,,,,,,,,,,,,,,,,,,,,,,,,
,,,,,V3_049,19,Female,2024-11-05_15h50.11.472,jersey_experiment_5_v3,2023.2.2,Win32,84.03361345,,,,,,,,,,,,,,,,591.9764,593.5294,593.5294,594.1173,return,0.0894,,75.390625,,,,,,FBP-OG-19.png,0.43,1.2,44,0.75,,,,,,,,,,,,,0,39,39,43,1,,,,,,,,,,,,,,,,,,,,,,,,,,,,
,,,,,V3_049,19,Female,2024-11-05_15h50.11.472,jersey_experiment_5_v3,2023.2.2,Win32,84.03361345,,,,,,,,,,,,,,,,594.1176,595.4117,595.4117,596.6353,return,0.0502,,24.08854167,,,,,,FBP-YG-81.png,0.35,1.2,6,0.5,,,,,,,,,,,,,0,40,40,5,1,,,,,,,,,,,,,,,,,,,,,,,,,,,,
,,,,,V3_049,19,Female,2024-11-05_15h50.11.472,jersey_experiment_5_v3,2023.2.2,Win32,84.03361345,,,,,,,,,,,,,,,,596.6355,598.1882,598.1882,599.8235,return,0.0607,,73.56770833,,,,,,FBP-OG-17.png,0.4,1.2,33,0.75,,,,,,,,,,,,,0,41,41,32,1,,,,,,,,,,,,,,,,,,,,,,,,,,,,
,,,,,V3_049,19,Female,2024-11-05_15h50.11.472,jersey_experiment_5_v3,2023.2.2,Win32,84.03361345,,,,,,,,,,,,,,,,599.8237,601.1178,601.1179,602.2356,return,0.0596,,23.828125,,,,,,FBP-RB-18.png,0.35,1.2,51,0.5,,,,,,,,,,,,,0,42,42,50,1,,,,,,,,,,,,,,,,,,,,,,,,,,,,
,,,,,V3_049,19,Female,2024-11-05_15h50.11.472,jersey_experiment_5_v3,2023.2.2,Win32,84.03361345,,,,,,,,,,,,,,,,602.2359,603.7884,603.7885,605.1179,return,0.1193,,73.4375,,,,,,FBP-OG-18.png,0.4,1.2,38,0.75,,,,,,,,,,,,,0,43,43,37,1,,,,,,,,,,,,,,,,,,,,,,,,,,,,
,,,,,V3_049,19,Female,2024-11-05_15h50.11.472,jersey_experiment_5_v3,2023.2.2,Win32,84.03361345,,,,,,,,,,,,,,,,605.1182,606.412,606.4121,607.0239,return,0.1649,,74.08854167,,,,,,FBP-YG-81.png,0.45,1.2,10,0.5,,,,,,,,,,,,,0,44,44,9,1,,,,,,,,,,,,,,,,,,,,,,,,,,,,
,,,,,V3_049,19,Female,2024-11-05_15h50.11.472,jersey_experiment_5_v3,2023.2.2,Win32,84.03361345,,,,,,,,,,,,,,,,607.0242,608.3181,608.3181,609.3181,return,0.0787,,98.17708333,,,,,,FBP-PT-18.png,0.43,1.2,24,0.5,,,,,,,,,,,,,0,45,45,23,1,,,,,,,,,,,,,,,,,,,,,,,,,,,,
,,,,,V3_049,19,Female,2024-11-05_15h50.11.472,jersey_experiment_5_v3,2023.2.2,Win32,84.03361345,,,,,,,,,,,,,,,,609.3183,610.6122,610.6122,612.8005,return,0.0943,,73.56770833,,,,,,FBP-PT-17.png,0.35,1.2,16,0.5,,,,,,,,,,,,,0,46,46,15,1,,,,,,,,,,,,,,,,,,,,,,,,,,,,
,,,,,V3_049,19,Female,2024-11-05_15h50.11.472,jersey_experiment_5_v3,2023.2.2,Win32,84.03361345,,,,,,,,,,,,,,,,612.8008,614.3536,614.3537,615.2947,return,0.0787,,23.69791667,,,,,,FBP-OG-19.png,0.35,1.2,41,0.75,,,,,,,,,,,,,0,47,47,40,1,,,,,,,,,,,,,,,,,,,,,,,,,,,,
,,,,,V3_049,19,Female,2024-11-05_15h50.11.472,jersey_experiment_5_v3,2023.2.2,Win32,84.03361345,,,,,,,,,,,,,,,,615.2949,616.589,616.5891,617.6947,return,0.118,,74.08854167,,,,,,FBP-YG-81.png,0.4,1.2,8,0.5,,,,,,,,,,,,,0,48,48,7,1,,,,,,,,,,,,,,,,,,,,,,,,,,,,
,,,,,V3_049,19,Female,2024-11-05_15h50.11.472,jersey_experiment_5_v3,2023.2.2,Win32,84.03361345,,,,,,,,,,,,,,,,617.6951,618.9891,618.9891,619.9772,return,0.0831,,99.47916667,,,,,,FBP-RB-19.png,0.45,1.2,60,0.5,,,,,,,,,,,,,0,49,49,59,1,,,,,,,,,,,,,,,,,,,,,,,,,,,,
,,,,,V3_049,19,Female,2024-11-05_15h50.11.472,jersey_experiment_5_v3,2023.2.2,Win32,84.03361345,,,,,,,,,,,,,,,,619.9774,621.2715,621.2716,622.6714,return,0.1103,,74.73958333,,,,,,FBP-RB-17.png,0.37,1.2,47,0.5,,,,,,,,,,,,,0,50,50,46,1,,,,,,,,,,,,,,,,,,,,,,,,,,,,
,,,,,V3_049,19,Female,2024-11-05_15h50.11.472,jersey_experiment_5_v3,2023.2.2,Win32,84.03361345,,,,,,,,,,,,,,,,622.6716,624.2128,624.2128,625.2246,return,0.0292,,22.78645833,,,,,,FBP-OG-17.png,0.37,1.2,32,0.75,,,,,,,,,,,,,0,51,51,31,1,,,,,,,,,,,,,,,,,,,,,,,,,,,,
,,,,,V3_049,19,Female,2024-11-05_15h50.11.472,jersey_experiment_5_v3,2023.2.2,Win32,84.03361345,,,,,,,,,,,,,,,,625.2247,626.7776,626.7776,628.5188,return,0.1353,,98.95833333,,,,,,FBP-OG-18.png,0.43,1.2,39,0.75,,,,,,,,,,,,,0,52,52,38,1,,,,,,,,,,,,,,,,,,,,,,,,,,,,
,,,,,V3_049,19,Female,2024-11-05_15h50.11.472,jersey_experiment_5_v3,2023.2.2,Win32,84.03361345,,,,,,,,,,,,,,,,628.5191,629.8129,629.8129,631.1424,return,0.1473,,99.73958333,,,,,,FBP-YG-71.png,0.45,1.2,5,0.5,,,,,,,,,,,,,0,53,53,4,1,,,,,,,,,,,,,,,,,,,,,,,,,,,,
,,,,,V3_049,19,Female,2024-11-05_15h50.11.472,jersey_experiment_5_v3,2023.2.2,Win32,84.03361345,,,,,,,,,,,,,,,,631.1426,632.4365,632.4366,634.1661,return,0.0644,,74.609375,,,,,,FBP-YG-71.png,0.37,1.2,2,0.5,,,,,,,,,,,,,0,54,54,1,1,,,,,,,,,,,,,,,,,,,,,,,,,,,,
,,,,,V3_049,19,Female,2024-11-05_15h50.11.472,jersey_experiment_5_v3,2023.2.2,Win32,84.03361345,,,,,,,,,,,,,,,,634.1664,635.4603,635.4603,637.1897,return,0.2086,,24.86979167,,,,,,FBP-YG-71.png,0.35,1.2,1,0.5,,,,,,,,,,,,,0,55,55,0,1,,,,,,,,,,,,,,,,,,,,,,,,,,,,
,,,,,V3_049,19,Female,2024-11-05_15h50.11.472,jersey_experiment_5_v3,2023.2.2,Win32,84.03361345,,,,,,,,,,,,,,,,637.1899,638.4838,638.4838,639.5428,return,0.1137,,24.609375,,,,,,FBP-PT-19.png,0.37,1.2,27,0.5,,,,,,,,,,,,,0,56,56,26,1,,,,,,,,,,,,,,,,,,,,,,,,,,,,
,,,,,V3_049,19,Female,2024-11-05_15h50.11.472,jersey_experiment_5_v3,2023.2.2,Win32,84.03361345,,,,,,,,,,,,,,,,639.543,640.837,640.837,642.0605,return,0.1178,,98.828125,,,,,,FBP-PT-19.png,0.43,1.2,29,0.5,,,,,,,,,,,,,0,57,57,28,1,,,,,,,,,,,,,,,,,,,,,,,,,,,,
,,,,,V3_049,19,Female,2024-11-05_15h50.11.472,jersey_experiment_5_v3,2023.2.2,Win32,84.03361345,,,,,,,,,,,,,,,,642.0607,643.6134,643.6135,644.9075,return,0.1666,,25.390625,,,,,,FBP-OG-19.png,0.37,1.2,42,0.75,,,,,,,,,,,,,0,58,58,41,1,,,,,,,,,,,,,,,,,,,,,,,,,,,,
,,,,,V3_049,19,Female,2024-11-05_15h50.11.472,jersey_experiment_5_v3,2023.2.2,Win32,84.03361345,,,,,,,,,,,,,,,,644.9077,646.2017,646.2017,647.7901,return,0.1649,,99.73958333,,,,,,FBP-YG-81.png,0.43,1.2,9,0.5,,,,,,,,,,,,,0,59,59,8,1,,,,,,,,,,,,,,,,,,,,,,,,,,,,
,,,,,V3_049,19,Female,2024-11-05_15h50.11.472,jersey_experiment_5_v3,2023.2.2,Win32,84.03361345,,,,,,,,,,,,,,,,647.7917,649.0842,649.0843,650.249,return,0.1659,,99.47916667,,,,,,FBP-RB-91.png,0.45,1.2,60,0.5,,,,,,,,,,,,,,,,,,0,0,0,59,1,,,,,,,,,,,,,,,,,,,,,,,
,,,,,V3_049,19,Female,2024-11-05_15h50.11.472,jersey_experiment_5_v3,2023.2.2,Win32,84.03361345,,,,,,,,,,,,,,,,650.2493,651.5431,651.5431,652.7902,return,0.2627,,98.17708333,,,,,,FBP-RB-81.png,0.4,1.2,53,0.5,,,,,,,,,,,,,,,,,,0,1,1,52,1,,,,,,,,,,,,,,,,,,,,,,,
,,,,,V3_049,19,Female,2024-11-05_15h50.11.472,jersey_experiment_5_v3,2023.2.2,Win32,84.03361345,,,,,,,,,,,,,,,,652.7905,654.0844,654.0845,655.1197,return,0.0946,,27.47395833,,,,,,FBP-PT-81.png,0.35,1.2,21,0.5,,,,,,,,,,,,,,,,,,0,2,2,20,1,,,,,,,,,,,,,,,,,,,,,,,
,,,,,V3_049,19,Female,2024-11-05_15h50.11.472,jersey_experiment_5_v3,2023.2.2,Win32,84.03361345,,,,,,,,,,,,,,,,655.12,656.4137,656.4138,657.1433,return,0.2615,,24.609375,,,,,,FBP-YG-19.png,0.37,1.2,12,0.5,,,,,,,,,,,,,,,,,,0,3,3,11,1,,,,,,,,,,,,,,,,,,,,,,,
,,,,,V3_049,19,Female,2024-11-05_15h50.11.472,jersey_experiment_5_v3,2023.2.2,Win32,84.03361345,,,,,,,,,,,,,,,,657.1435,658.6963,658.6963,659.4023,return,0.1336,,24.609375,,,,,,FBP-OG-81.png,0.35,1.2,36,0.75,,,,,,,,,,,,,,,,,,0,4,4,35,1,,,,,,,,,,,,,,,,,,,,,,,
,,,,,V3_049,19,Female,2024-11-05_15h50.11.472,jersey_experiment_5_v3,2023.2.2,Win32,84.03361345,,,,,,,,,,,,,,,,659.4026,660.6966,660.6966,661.967,return,0.1438,,97.52604167,,,,,,FBP-PT-81.png,0.43,1.2,24,0.5,,,,,,,,,,,,,,,,,,0,5,5,23,1,,,,,,,,,,,,,,,,,,,,,,,
,,,,,V3_049,19,Female,2024-11-05_15h50.11.472,jersey_experiment_5_v3,2023.2.2,Win32,84.03361345,,,,,,,,,,,,,,,,661.9673,663.5201,663.5201,664.4613,return,0.1572,,75.26041667,,,,,,FBP-OG-81.png,0.4,1.2,38,0.75,,,,,,,,,,,,,,,,,,0,6,6,37,1,,,,,,,,,,,,,,,,,,,,,,,
,,,,,V3_049,19,Female,2024-11-05_15h50.11.472,jersey_experiment_5_v3,2023.2.2,Win32,84.03361345,,,,,,,,,,,,,,,,664.4615,665.7553,665.7554,666.6495,return,0.1423,,93.88020833,,,,,,FBP-YG-17.png,0.43,1.2,4,0.5,,,,,,,,,,,,,,,,,,0,7,7,3,1,,,,,,,,,,,,,,,,,,,,,,,
,,,,,V3_049,19,Female,2024-11-05_15h50.11.472,jersey_experiment_5_v3,2023.2.2,Win32,84.03361345,,,,,,,,,,,,,,,,666.6498,667.9438,667.9439,668.7674,return,0.18,,74.47916667,,,,,,FBP-PT-91.png,0.35,1.2,26,0.5,,,,,,,,,,,,,,,,,,0,8,8,25,1,,,,,,,,,,,,,,,,,,,,,,,
,,,,,V3_049,19,Female,2024-11-05_15h50.11.472,jersey_experiment_5_v3,2023.2.2,Win32,84.03361345,,,,,,,,,,,,,,,,668.7675,670.0613,670.0614,670.9202,return,0.1079,,24.609375,,,,,,FBP-RB-71.png,0.37,1.2,47,0.5,,,,,,,,,,,,,,,,,,0,9,9,46,1,,,,,,,,,,,,,,,,,,,,,,,
,,,,,V3_049,19,Female,2024-11-05_15h50.11.472,jersey_experiment_5_v3,2023.2.2,Win32,84.03361345,,,,,,,,,,,,,,,,670.9206,672.2145,672.2146,673.2969,return,0.1636,,99.34895833,,,,,,FBP-RB-81.png,0.45,1.2,55,0.5,,,,,,,,,,,,,,,,,,0,10,10,54,1,,,,,,,,,,,,,,,,,,,,,,,
,,,,,V3_049,19,Female,2024-11-05_15h50.11.472,jersey_experiment_5_v3,2023.2.2,Win32,84.03361345,,,,,,,,,,,,,,,,673.2971,674.5909,674.591,675.1676,return,0.1409,,97.78645833,,,,,,FBP-PT-81.png,0.4,1.2,23,0.5,,,,,,,,,,,,,,,,,,0,11,11,22,1,,,,,,,,,,,,,,,,,,,,,,,
,,,,,V3_049,19,Female,2024-11-05_15h50.11.472,jersey_experiment_5_v3,2023.2.2,Win32,84.03361345,,,,,,,,,,,,,,,,675.1678,676.4618,676.4618,677.1911,return,0.0424,,25.91145833,,,,,,FBP-RB-81.png,0.35,1.2,51,0.5,,,,,,,,,,,,,,,,,,0,12,12,50,1,,,,,,,,,,,,,,,,,,,,,,,
,,,,,V3_049,19,Female,2024-11-05_15h50.11.472,jersey_experiment_5_v3,2023.2.2,Win32,84.03361345,,,,,,,,,,,,,,,,677.1912,678.7441,678.7442,679.2382,return,0.145,,25.91145833,,,,,,FBP-OG-71.png,0.35,1.2,31,0.75,,,,,,,,,,,,,,,,,,0,13,13,30,1,,,,,,,,,,,,,,,,,,,,,,,
,,,,,V3_049,19,Female,2024-11-05_15h50.11.472,jersey_experiment_5_v3,2023.2.2,Win32,84.03361345,,,,,,,,,,,,,,,,679.2384,680.5326,680.5327,682.2853,return,0.0333,,74.73958333,,,,,,FBP-RB-91.png,0.43,1.2,59,0.5,,,,,,,,,,,,,,,,,,0,14,14,58,1,,,,,,,,,,,,,,,,,,,,,,,
,,,,,V3_049,19,Female,2024-11-05_15h50.11.472,jersey_experiment_5_v3,2023.2.2,Win32,84.03361345,,,,,,,,,,,,,,,,682.2855,683.8268,683.8268,684.7443,return,0.0647,,25,,,,,,FBP-OG-91.png,0.35,1.2,41,0.75,,,,,,,,,,,,,,,,,,0,15,15,40,1,,,,,,,,,,,,,,,,,,,,,,,
,,,,,V3_049,19,Female,2024-11-05_15h50.11.472,jersey_experiment_5_v3,2023.2.2,Win32,84.03361345,,,,,,,,,,,,,,,,684.7446,686.2974,686.2974,687.0503,return,0.0729,,73.95833333,,,,,,FBP-OG-71.png,0.43,1.2,34,0.75,,,,,,,,,,,,,,,,,,0,16,16,33,1,,,,,,,,,,,,,,,,,,,,,,,
,,,,,V3_049,19,Female,2024-11-05_15h50.11.472,jersey_experiment_5_v3,2023.2.2,Win32,84.03361345,,,,,,,,,,,,,,,,687.0505,688.3446,688.3446,689.4033,return,0.0467,,74.86979167,,,,,,FBP-PT-81.png,0.45,1.2,25,0.5,,,,,,,,,,,,,,,,,,0,17,17,24,1,,,,,,,,,,,,,,,,,,,,,,,
,,,,,V3_049,19,Female,2024-11-05_15h50.11.472,jersey_experiment_5_v3,2023.2.2,Win32,84.03361345,,,,,,,,,,,,,,,,689.4035,690.6977,690.6977,691.6857,return,0.0666,,25.65104167,,,,,,FBP-YG-18.png,0.35,1.2,6,0.5,,,,,,,,,,,,,,,,,,0,18,18,5,1,,,,,,,,,,,,,,,,,,,,,,,
,,,,,V3_049,19,Female,2024-11-05_15h50.11.472,jersey_experiment_5_v3,2023.2.2,Win32,84.03361345,,,,,,,,,,,,,,,,691.6859,692.98,692.98,694.2859,return,0.6355,,26.30208333,,,,,,FBP-PT-81.png,0.37,1.2,22,0.5,,,,,,,,,,,,,,,,,,0,19,19,21,1,,,,,,,,,,,,,,,,,,,,,,,
,,,,,V3_049,19,Female,2024-11-05_15h50.11.472,jersey_experiment_5_v3,2023.2.2,Win32,84.03361345,,,,,,,,,,,,,,,,694.2862,695.5801,695.5801,696.6978,return,0.1435,,23.4375,,,,,,FBP-RB-71.png,0.35,1.2,46,0.5,,,,,,,,,,,,,,,,,,0,20,20,45,1,,,,,,,,,,,,,,,,,,,,,,,
,,,,,V3_049,19,Female,2024-11-05_15h50.11.472,jersey_experiment_5_v3,2023.2.2,Win32,84.03361345,,,,,,,,,,,,,,,,696.6979,698.2509,698.251,699.6743,return,0.3192,,75.390625,,,,,,FBP-OG-91.png,0.4,1.2,43,0.75,,,,,,,,,,,,,,,,,,0,21,21,42,1,,,,,,,,,,,,,,,,,,,,,,,
,,,,,V3_049,19,Female,2024-11-05_15h50.11.472,jersey_experiment_5_v3,2023.2.2,Win32,84.03361345,,,,,,,,,,,,,,,,699.6746,700.9686,700.9686,702.1332,return,0.0678,,24.08854167,,,,,,FBP-PT-71.png,0.35,1.2,16,0.5,,,,,,,,,,,,,,,,,,0,22,22,15,1,,,,,,,,,,,,,,,,,,,,,,,
,,,,,V3_049,19,Female,2024-11-05_15h50.11.472,jersey_experiment_5_v3,2023.2.2,Win32,84.03361345,,,,,,,,,,,,,,,,702.1335,703.4275,703.4276,704.6862,return,0.2822,,75.52083333,,,,,,FBP-PT-91.png,0.4,1.2,28,0.5,,,,,,,,,,,,,,,,,,0,23,23,27,1,,,,,,,,,,,,,,,,,,,,,,,
,,,,,V3_049,19,Female,2024-11-05_15h50.11.472,jersey_experiment_5_v3,2023.2.2,Win32,84.03361345,,,,,,,,,,,,,,,,704.6864,705.9804,705.9805,707.051,return,0.2029,,25.65104167,,,,,,FBP-PT-91.png,0.37,1.2,27,0.5,,,,,,,,,,,,,,,,,,0,24,24,26,1,,,,,,,,,,,,,,,,,,,,,,,
,,,,,V3_049,19,Female,2024-11-05_15h50.11.472,jersey_experiment_5_v3,2023.2.2,Win32,84.03361345,,,,,,,,,,,,,,,,707.0512,708.3452,708.3452,708.9688,return,0.0995,,23.828125,,,,,,FBP-YG-19.png,0.35,1.2,11,0.5,,,,,,,,,,,,,,,,,,0,25,25,10,1,,,,,,,,,,,,,,,,,,,,,,,
,,,,,V3_049,19,Female,2024-11-05_15h50.11.472,jersey_experiment_5_v3,2023.2.2,Win32,84.03361345,,,,,,,,,,,,,,,,708.969,710.2629,710.2629,712.1689,return,0.2641,,99.08854167,,,,,,FBP-PT-71.png,0.43,1.2,19,0.5,,,,,,,,,,,,,,,,,,0,26,26,18,1,,,,,,,,,,,,,,,,,,,,,,,
,,,,,V3_049,19,Female,2024-11-05_15h50.11.472,jersey_experiment_5_v3,2023.2.2,Win32,84.03361345,,,,,,,,,,,,,,,,712.1692,713.4632,713.4632,714.1572,return,0.2101,,99.21875,,,,,,FBP-PT-71.png,0.45,1.2,20,0.5,,,,,,,,,,,,,,,,,,0,27,27,19,1,,,,,,,,,,,,,,,,,,,,,,,
,,,,,V3_049,19,Female,2024-11-05_15h50.11.472,jersey_experiment_5_v3,2023.2.2,Win32,84.03361345,,,,,,,,,,,,,,,,714.1574,715.4515,715.4516,716.616,return,0.3824,,22.78645833,,,,,,FBP-YG-18.png,0.37,1.2,7,0.5,,,,,,,,,,,,,,,,,,0,28,28,6,1,,,,,,,,,,,,,,,,,,,,,,,
,,,,,V3_049,19,Female,2024-11-05_15h50.11.472,jersey_experiment_5_v3,2023.2.2,Win32,84.03361345,,,,,,,,,,,,,,,,716.6162,718.1692,718.1692,719.6631,return,0.1891,,75.65104167,,,,,,FBP-OG-71.png,0.4,1.2,33,0.75,,,,,,,,,,,,,,,,,,0,29,29,32,1,,,,,,,,,,,,,,,,,,,,,,,
,,,,,V3_049,19,Female,2024-11-05_15h50.11.472,jersey_experiment_5_v3,2023.2.2,Win32,84.03361345,,,,,,,,,,,,,,,,719.6634,720.9575,720.9576,721.7928,return,0.1648,,99.08854167,,,,,,FBP-RB-71.png,0.43,1.2,49,0.5,,,,,,,,,,,,,,,,,,0,30,30,48,1,,,,,,,,,,,,,,,,,,,,,,,
,,,,,V3_049,19,Female,2024-11-05_15h50.11.472,jersey_experiment_5_v3,2023.2.2,Win32,84.03361345,,,,,,,,,,,,,,,,721.793,723.087,723.0871,724.3929,return,0.1427,,24.08854167,,,,,,FBP-YG-17.png,0.35,1.2,1,0.5,,,,,,,,,,,,,,,,,,0,31,31,0,1,,,,,,,,,,,,,,,,,,,,,,,
,,,,,V3_049,19,Female,2024-11-05_15h50.11.472,jersey_experiment_5_v3,2023.2.2,Win32,84.03361345,,,,,,,,,,,,,,,,724.3931,725.687,725.6871,726.6518,return,0.1876,,76.43229167,,,,,,FBP-YG-17.png,0.4,1.2,3,0.5,,,,,,,,,,,,,,,,,,0,32,32,2,1,,,,,,,,,,,,,,,,,,,,,,,
,,,,,V3_049,19,Female,2024-11-05_15h50.11.472,jersey_experiment_5_v3,2023.2.2,Win32,84.03361345,,,,,,,,,,,,,,,,726.652,727.946,727.946,728.5225,return,0.1447,,75.26041667,,,,,,FBP-YG-19.png,0.4,1.2,13,0.5,,,,,,,,,,,,,,,,,,0,33,33,12,1,,,,,,,,,,,,,,,,,,,,,,,
,,,,,V3_049,19,Female,2024-11-05_15h50.11.472,jersey_experiment_5_v3,2023.2.2,Win32,84.03361345,,,,,,,,,,,,,,,,728.5228,729.8165,729.8166,730.7932,return,0.0268,,24.609375,,,,,,FBP-RB-91.png,0.35,1.2,56,0.5,,,,,,,,,,,,,,,,,,0,34,34,55,1,,,,,,,,,,,,,,,,,,,,,,,
,,,,,V3_049,19,Female,2024-11-05_15h50.11.472,jersey_experiment_5_v3,2023.2.2,Win32,84.03361345,,,,,,,,,,,,,,,,730.7934,732.3463,732.3463,733.5814,return,0.2359,,98.95833333,,,,,,FBP-OG-81.png,0.45,1.2,40,0.75,,,,,,,,,,,,,,,,,,0,35,35,39,1,,,,,,,,,,,,,,,,,,,,,,,
,,,,,V3_049,19,Female,2024-11-05_15h50.11.472,jersey_experiment_5_v3,2023.2.2,Win32,84.03361345,,,,,,,,,,,,,,,,733.5817,735.1346,735.1347,736.0874,return,0.1364,,21.875,,,,,,FBP-OG-81.png,0.37,1.2,37,0.75,,,,,,,,,,,,,,,,,,0,36,36,36,1,,,,,,,,,,,,,,,,,,,,,,,
,,,,,V3_049,19,Female,2024-11-05_15h50.11.472,jersey_experiment_5_v3,2023.2.2,Win32,84.03361345,,,,,,,,,,,,,,,,736.0877,737.3816,737.3816,737.8639,return,0.1708,,25.78125,,,,,,FBP-RB-91.png,0.37,1.2,57,0.5,,,,,,,,,,,,,,,,,,0,37,37,56,1,,,,,,,,,,,,,,,,,,,,,,,
,,,,,V3_049,19,Female,2024-11-05_15h50.11.472,jersey_experiment_5_v3,2023.2.2,Win32,84.03361345,,,,,,,,,,,,,,,,737.864,739.1582,739.1583,740.3581,return,0.2433,,98.56770833,,,,,,FBP-YG-19.png,0.45,1.2,15,0.5,,,,,,,,,,,,,,,,,,0,38,38,14,1,,,,,,,,,,,,,,,,,,,,,,,
,,,,,V3_049,19,Female,2024-11-05_15h50.11.472,jersey_experiment_5_v3,2023.2.2,Win32,84.03361345,,,,,,,,,,,,,,,,740.3585,741.6523,741.6524,743.0405,return,0.1278,,76.5625,,,,,,FBP-PT-71.png,0.37,1.2,17,0.5,,,,,,,,,,,,,,,,,,0,39,39,16,1,,,,,,,,,,,,,,,,,,,,,,,
,,,,,V3_049,19,Female,2024-11-05_15h50.11.472,jersey_experiment_5_v3,2023.2.2,Win32,84.03361345,,,,,,,,,,,,,,,,743.0407,744.3347,744.3347,745.3818,return,0.1376,,99.21875,,,,,,FBP-PT-91.png,0.43,1.2,29,0.5,,,,,,,,,,,,,,,,,,0,40,40,28,1,,,,,,,,,,,,,,,,,,,,,,,
,,,,,V3_049,19,Female,2024-11-05_15h50.11.472,jersey_experiment_5_v3,2023.2.2,Win32,84.03361345,,,,,,,,,,,,,,,,745.3821,746.6763,746.6763,748.3584,return,0.0389,,99.34895833,,,,,,FBP-YG-18.png,0.4,1.2,8,0.5,,,,,,,,,,,,,,,,,,0,41,41,7,1,,,,,,,,,,,,,,,,,,,,,,,
,,,,,V3_049,19,Female,2024-11-05_15h50.11.472,jersey_experiment_5_v3,2023.2.2,Win32,84.03361345,,,,,,,,,,,,,,,,748.3587,749.6527,749.6527,751.2409,return,0.0956,,73.56770833,,,,,,FBP-RB-81.png,0.37,1.2,52,0.5,,,,,,,,,,,,,,,,,,0,42,42,51,1,,,,,,,,,,,,,,,,,,,,,,,
,,,,,V3_049,19,Female,2024-11-05_15h50.11.472,jersey_experiment_5_v3,2023.2.2,Win32,84.03361345,,,,,,,,,,,,,,,,751.2411,752.5351,752.5351,753.1351,return,0.1522,,73.30729167,,,,,,FBP-RB-71.png,0.4,1.2,48,0.5,,,,,,,,,,,,,,,,,,0,43,43,47,1,,,,,,,,,,,,,,,,,,,,,,,
,,,,,V3_049,19,Female,2024-11-05_15h50.11.472,jersey_experiment_5_v3,2023.2.2,Win32,84.03361345,,,,,,,,,,,,,,,,753.1353,754.4292,754.4292,755.4881,return,0.0558,,99.609375,,,,,,FBP-YG-17.png,0.45,1.2,5,0.5,,,,,,,,,,,,,,,,,,0,44,44,4,1,,,,,,,,,,,,,,,,,,,,,,,
,,,,,V3_049,19,Female,2024-11-05_15h50.11.472,jersey_experiment_5_v3,2023.2.2,Win32,84.03361345,,,,,,,,,,,,,,,,755.4883,756.7823,756.7823,758.1706,return,0.1211,,75.65104167,,,,,,FBP-PT-71.png,0.4,1.2,18,0.5,,,,,,,,,,,,,,,,,,0,45,45,17,1,,,,,,,,,,,,,,,,,,,,,,,
,,,,,V3_049,19,Female,2024-11-05_15h50.11.472,jersey_experiment_5_v3,2023.2.2,Win32,84.03361345,,,,,,,,,,,,,,,,758.1709,759.4648,759.4649,760.7353,return,0.306,,98.046875,,,,,,FBP-YG-18.png,0.45,1.2,10,0.5,,,,,,,,,,,,,,,,,,0,46,46,9,1,,,,,,,,,,,,,,,,,,,,,,,
,,,,,V3_049,19,Female,2024-11-05_15h50.11.472,jersey_experiment_5_v3,2023.2.2,Win32,84.03361345,,,,,,,,,,,,,,,,760.7356,762.0297,762.0297,763.0885,return,0.0709,,24.47916667,,,,,,FBP-YG-17.png,0.37,1.2,2,0.5,,,,,,,,,,,,,,,,,,0,47,47,1,1,,,,,,,,,,,,,,,,,,,,,,,
,,,,,V3_049,19,Female,2024-11-05_15h50.11.472,jersey_experiment_5_v3,2023.2.2,Win32,84.03361345,,,,,,,,,,,,,,,,763.0888,764.6416,764.6416,765.4179,return,0.0848,,74.609375,,,,,,FBP-OG-91.png,0.43,1.2,44,0.75,,,,,,,,,,,,,,,,,,0,48,48,43,1,,,,,,,,,,,,,,,,,,,,,,,
,,,,,V3_049,19,Female,2024-11-05_15h50.11.472,jersey_experiment_5_v3,2023.2.2,Win32,84.03361345,,,,,,,,,,,,,,,,765.4181,766.7121,766.7121,767.312,return,0.048,,73.046875,,,,,,FBP-YG-19.png,0.43,1.2,14,0.5,,,,,,,,,,,,,,,,,,0,49,49,13,1,,,,,,,,,,,,,,,,,,,,,,,
,,,,,V3_049,19,Female,2024-11-05_15h50.11.472,jersey_experiment_5_v3,2023.2.2,Win32,84.03361345,,,,,,,,,,,,,,,,767.3122,768.865,768.865,769.465,return,0.1562,,73.95833333,,,,,,FBP-OG-91.png,0.45,1.2,45,0.75,,,,,,,,,,,,,,,,,,0,50,50,44,1,,,,,,,,,,,,,,,,,,,,,,,
,,,,,V3_049,19,Female,2024-11-05_15h50.11.472,jersey_experiment_5_v3,2023.2.2,Win32,84.03361345,,,,,,,,,,,,,,,,769.4653,771.0181,771.0182,772.8888,return,0.0875,,74.73958333,,,,,,FBP-OG-71.png,0.45,1.2,35,0.75,,,,,,,,,,,,,,,,,,0,51,51,34,1,,,,,,,,,,,,,,,,,,,,,,,
,,,,,V3_049,19,Female,2024-11-05_15h50.11.472,jersey_experiment_5_v3,2023.2.2,Win32,84.03361345,,,,,,,,,,,,,,,,772.8891,774.1829,774.183,774.7476,return,0.1082,,74.08854167,,,,,,FBP-RB-81.png,0.43,1.2,54,0.5,,,,,,,,,,,,,,,,,,0,52,52,53,1,,,,,,,,,,,,,,,,,,,,,,,
,,,,,V3_049,19,Female,2024-11-05_15h50.11.472,jersey_experiment_5_v3,2023.2.2,Win32,84.03361345,,,,,,,,,,,,,,,,774.7479,776.0418,776.0419,776.8065,return,0.1116,,74.08854167,,,,,,FBP-PT-91.png,0.45,1.2,30,0.5,,,,,,,,,,,,,,,,,,0,53,53,29,1,,,,,,,,,,,,,,,,,,,,,,,
,,,,,V3_049,19,Female,2024-11-05_15h50.11.472,jersey_experiment_5_v3,2023.2.2,Win32,84.03361345,,,,,,,,,,,,,,,,776.8068,778.3597,778.3598,779.8302,return,0.1374,,24.34895833,,,,,,FBP-OG-71.png,0.37,1.2,32,0.75,,,,,,,,,,,,,,,,,,0,54,54,31,1,,,,,,,,,,,,,,,,,,,,,,,
,,,,,V3_049,19,Female,2024-11-05_15h50.11.472,jersey_experiment_5_v3,2023.2.2,Win32,84.03361345,,,,,,,,,,,,,,,,779.8305,781.1242,781.1243,783.4303,return,0.09,,74.609375,,,,,,FBP-RB-91.png,0.4,1.2,58,0.5,,,,,,,,,,,,,,,,,,0,55,55,57,1,,,,,,,,,,,,,,,,,,,,,,,
,,,,,V3_049,19,Female,2024-11-05_15h50.11.472,jersey_experiment_5_v3,2023.2.2,Win32,84.03361345,,,,,,,,,,,,,,,,783.4306,784.9835,784.9835,785.8305,return,0.0297,,24.609375,,,,,,FBP-OG-91.png,0.37,1.2,42,0.75,,,,,,,,,,,,,,,,,,0,56,56,41,1,,,,,,,,,,,,,,,,,,,,,,,
,,,,,V3_049,19,Female,2024-11-05_15h50.11.472,jersey_experiment_5_v3,2023.2.2,Win32,84.03361345,,,,,,,,,,,,,,,,785.8308,787.1247,787.1247,788.5364,return,0.12,,74.86979167,,,,,,FBP-RB-71.png,0.45,1.2,50,0.5,,,,,,,,,,,,,,,,,,0,57,57,49,1,,,,,,,,,,,,,,,,,,,,,,,
,,,,,V3_049,19,Female,2024-11-05_15h50.11.472,jersey_experiment_5_v3,2023.2.2,Win32,84.03361345,,,,,,,,,,,,,,,,788.5366,790.0893,790.0894,790.5365,return,0.145,,74.86979167,,,,,,FBP-OG-81.png,0.43,1.2,39,0.75,,,,,,,,,,,,,,,,,,0,58,58,38,1,,,,,,,,,,,,,,,,,,,,,,,
,,,,,V3_049,19,Female,2024-11-05_15h50.11.472,jersey_experiment_5_v3,2023.2.2,Win32,84.03361345,,,,,,,,,,,,,,,,790.5368,791.8307,791.8307,792.2189,return,0.2149,,74.609375,,,,,,FBP-YG-18.png,0.43,1.2,9,0.5,,,,,,,,,,,,,,,,,,0,59,59,8,1,,,,,,,,,,,,,,,,,,,,,,,
,,,,,V3_049,19,Female,2024-11-05_15h50.11.472,jersey_experiment_5_v3,2023.2.2,Win32,84.03361345,,,,,,,,,,,,,,,,,,,,,,,,,,,,,,,,,,,,,,,,,,,,,,,,,,,,,,,,792.2191,798.3016,return,6.0706,,,,,,,,,,,,,,,,,,,
,,,,,V3_049,19,Female,2024-11-05_15h50.11.472,jersey_experiment_5_v3,2023.2.2,Win32,84.03361345,,,,,,,,,,,,,,,,,,,,,,,,,,,,,,,,,,,,,,,,,,,,,,,,,,,,,,,,,,,,,798.3017,803.8311,1,3.983,return,1.5343,,,,,,,,,,,,
,,,,,V3_049,19,Female,2024-11-05_15h50.11.472,jersey_experiment_5_v3,2023.2.2,Win32,84.03361345,,,,,,,,,,,,,,,,,,,,,,,,,,,,,,,,,,,,,,,,,,,,,,,,,,,,,,,,,,,,,,,,,,,,803.8313,908.2005,"to see whether we distinguished the football players as husky or not , no patterns were recognized.",right,94.0645,,,,,,
,,,,,V3_049,19,Female,2024-11-05_15h50.11.472,jersey_experiment_5_v3,2023.2.2,Win32,84.03361345,,,,,,,,,,,,,,,,,,,,,,,,,,,,,,,,,,,,,,,,,,,,,,,,,,,,,,,,,,,,,,,,,,,,,,,,,,908.2006,911.6235,return,3.4145,