requirements.started,requirements.stopped,key_resp_3.keys,key_resp_3.rt,key_resp_3.duration,Subject ID,Age,Gender,date,expName,psychopyVersion,OS,frameRate,instructions1.started,instructions1.stopped,key_resp.keys,key_resp.rt,key_resp.duration,example.started,example.stopped,enter_2.keys,enter_2.rt,enter_2.duration,instructions2.started,instructions2.stopped,enter_3.keys,enter_3.rt,enter_3.duration,image.started,image.stopped,slider_2.started,slider_2.stopped,next.keys,next.rt,next.duration,slider.response,trial_block_1.thisRepN,trial_block_1.thisTrialN,trial_block_1.thisN,trial_block_1.thisIndex,trial_block_1.ran,Path,Width,Height,Index,Duration,trial_block_2.thisRepN,trial_block_2.thisTrialN,trial_block_2.thisN,trial_block_2.thisIndex,trial_block_2.ran,rest_break.started,rest_break.stopped,end_break.started,end_break.stopped,key_resp_5.keys,key_resp_5.rt,key_resp_5.duration,trial_block_3.thisRepN,trial_block_3.thisTrialN,trial_block_3.thisN,trial_block_3.thisIndex,trial_block_3.ran,trial_block_4.thisRepN,trial_block_4.thisTrialN,trial_block_4.thisN,trial_block_4.thisIndex,trial_block_4.ran,questions_intro.started,questions_intro.stopped,enter_12.keys,enter_12.rt,enter_12.duration,question2.started,question2.stopped,question_doingbest.response,question_doingbest.rt,enter_15.keys,enter_15.rt,enter_15.duration,pattern.started,pattern.stopped,pattern_2.text,enter_17.keys,enter_17.rt,enter_17.duration,thankyou.started,thankyou.stopped,enter_14.keys,enter_14.rt,enter_14.duration
0,10.2778,return,10.27,,V3_039,21,Female,2024-10-28_16h22.18.174,jersey_experiment_5_v3,2023.2.2,Win32,84.74576271,,,,,,,,,,,,,,,,,,,,,,,,,,,,,,,,,,,,,,,,,,,,,,,,,,,,,,,,,,,,,,,,,,,,,,,,,,,,,,
,,,,,V3_039,21,Female,2024-10-28_16h22.18.174,jersey_experiment_5_v3,2023.2.2,Win32,84.74576271,10.278,17.6559,return,7.363,,,,,,,,,,,,,,,,,,,,,,,,,,,,,,,,,,,,,,,,,,,,,,,,,,,,,,,,,,,,,,,,,,,,,,,,,,
,,,,,V3_039,21,Female,2024-10-28_16h22.18.174,jersey_experiment_5_v3,2023.2.2,Win32,84.74576271,,,,,,17.656,21.1102,return,3.4216,,,,,,,,,,,,,,,,,,,,,,,,,,,,,,,,,,,,,,,,,,,,,,,,,,,,,,,,,,,,,,,,,,,,,
,,,,,V3_039,21,Female,2024-10-28_16h22.18.174,jersey_experiment_5_v3,2023.2.2,Win32,84.74576271,,,,,,,,,,,21.1103,34.7107,return,13.588,,,,,,,,,,,,,,,,,,,,,,,,,,,,,,,,,,,,,,,,,,,,,,,,,,,,,,,,,,,,,,,,
,,,,,V3_039,21,Female,2024-10-28_16h22.18.174,jersey_experiment_5_v3,2023.2.2,Win32,84.74576271,,,,,,,,,,,,,,,,34.7147,36.2637,36.2638,50.0203,return,11.3418,,32.8125,0,0,0,45,1,FBP-RB-17.png,0.35,1.2,46,0.75,,,,,,,,,,,,,,,,,,,,,,,,,,,,,,,,,,,,,,,,,,,,,
,,,,,V3_039,21,Female,2024-10-28_16h22.18.174,jersey_experiment_5_v3,2023.2.2,Win32,84.74576271,,,,,,,,,,,,,,,,50.0206,51.3289,51.3289,53.2673,return,0.7292,,58.59375,0,1,1,39,1,FBP-OG-18.png,0.45,1.2,40,0.5,,,,,,,,,,,,,,,,,,,,,,,,,,,,,,,,,,,,,,,,,,,,,
,,,,,V3_039,21,Female,2024-10-28_16h22.18.174,jersey_experiment_5_v3,2023.2.2,Win32,84.74576271,,,,,,,,,,,,,,,,53.2674,54.8205,54.8206,56.0826,return,0.4155,,61.97916667,0,2,2,54,1,FBP-RB-18.png,0.45,1.2,55,0.75,,,,,,,,,,,,,,,,,,,,,,,,,,,,,,,,,,,,,,,,,,,,,
,,,,,V3_039,21,Female,2024-10-28_16h22.18.174,jersey_experiment_5_v3,2023.2.2,Win32,84.74576271,,,,,,,,,,,,,,,,56.0827,57.6355,57.6356,60.5535,return,0.4626,,70.96354167,0,3,3,7,1,FBP-YG-81.png,0.4,1.2,8,0.75,,,,,,,,,,,,,,,,,,,,,,,,,,,,,,,,,,,,,,,,,,,,,
,,,,,V3_039,21,Female,2024-10-28_16h22.18.174,jersey_experiment_5_v3,2023.2.2,Win32,84.74576271,,,,,,,,,,,,,,,,60.5536,62.0997,62.0998,63.8794,return,0.871,,69.53125,0,4,4,52,1,FBP-RB-18.png,0.4,1.2,53,0.75,,,,,,,,,,,,,,,,,,,,,,,,,,,,,,,,,,,,,,,,,,,,,
,,,,,V3_039,21,Female,2024-10-28_16h22.18.174,jersey_experiment_5_v3,2023.2.2,Win32,84.74576271,,,,,,,,,,,,,,,,63.8796,65.4242,65.4242,66.8682,return,0.5419,,78.64583333,0,5,5,24,1,FBP-PT-18.png,0.45,1.2,25,0.75,,,,,,,,,,,,,,,,,,,,,,,,,,,,,,,,,,,,,,,,,,,,,
,,,,,V3_039,21,Female,2024-10-28_16h22.18.174,jersey_experiment_5_v3,2023.2.2,Win32,84.74576271,,,,,,,,,,,,,,,,66.8684,68.4125,68.4125,70.2949,return,0.6508,,42.05729167,0,6,6,1,1,FBP-YG-71.png,0.37,1.2,2,0.75,,,,,,,,,,,,,,,,,,,,,,,,,,,,,,,,,,,,,,,,,,,,,
,,,,,V3_039,21,Female,2024-10-28_16h22.18.174,jersey_experiment_5_v3,2023.2.2,Win32,84.74576271,,,,,,,,,,,,,,,,70.2951,71.8478,71.8478,74.0126,return,0.2118,,61.06770833,0,7,7,26,1,FBP-PT-19.png,0.37,1.2,27,0.75,,,,,,,,,,,,,,,,,,,,,,,,,,,,,,,,,,,,,,,,,,,,,
,,,,,V3_039,21,Female,2024-10-28_16h22.18.174,jersey_experiment_5_v3,2023.2.2,Win32,84.74576271,,,,,,,,,,,,,,,,74.0127,75.315,75.3151,76.1772,return,0.2267,,61.06770833,0,8,8,35,1,FBP-OG-18.png,0.35,1.2,36,0.5,,,,,,,,,,,,,,,,,,,,,,,,,,,,,,,,,,,,,,,,,,,,,
,,,,,V3_039,21,Female,2024-10-28_16h22.18.174,jersey_experiment_5_v3,2023.2.2,Win32,84.74576271,,,,,,,,,,,,,,,,76.1773,77.7304,77.7304,78.6951,return,0.2355,,74.47916667,0,9,9,23,1,FBP-PT-18.png,0.43,1.2,24,0.75,,,,,,,,,,,,,,,,,,,,,,,,,,,,,,,,,,,,,,,,,,,,,
,,,,,V3_039,21,Female,2024-10-28_16h22.18.174,jersey_experiment_5_v3,2023.2.2,Win32,84.74576271,,,,,,,,,,,,,,,,78.6952,80.248,80.2481,81.0248,return,0.2744,,76.30208333,0,10,10,8,1,FBP-YG-81.png,0.43,1.2,9,0.75,,,,,,,,,,,,,,,,,,,,,,,,,,,,,,,,,,,,,,,,,,,,,
,,,,,V3_039,21,Female,2024-10-28_16h22.18.174,jersey_experiment_5_v3,2023.2.2,Win32,84.74576271,,,,,,,,,,,,,,,,81.0249,82.5776,82.5776,84.7271,return,0.1259,,49.73958333,0,11,11,11,1,FBP-YG-91.png,0.37,1.2,12,0.75,,,,,,,,,,,,,,,,,,,,,,,,,,,,,,,,,,,,,,,,,,,,,
,,,,,V3_039,21,Female,2024-10-28_16h22.18.174,jersey_experiment_5_v3,2023.2.2,Win32,84.74576271,,,,,,,,,,,,,,,,84.7273,86.2724,86.2724,87.5424,return,0.3918,,89.71354167,0,12,12,59,1,FBP-RB-19.png,0.45,1.2,60,0.75,,,,,,,,,,,,,,,,,,,,,,,,,,,,,,,,,,,,,,,,,,,,,
,,,,,V3_039,21,Female,2024-10-28_16h22.18.174,jersey_experiment_5_v3,2023.2.2,Win32,84.74576271,,,,,,,,,,,,,,,,87.5427,88.8361,88.8361,90.4922,return,0.188,,25.65104167,0,13,13,30,1,FBP-OG-17.png,0.35,1.2,31,0.5,,,,,,,,,,,,,,,,,,,,,,,,,,,,,,,,,,,,,,,,,,,,,
,,,,,V3_039,21,Female,2024-10-28_16h22.18.174,jersey_experiment_5_v3,2023.2.2,Win32,84.74576271,,,,,,,,,,,,,,,,90.4923,91.7863,91.7863,93.2837,return,0.2589,,77.34375,0,14,14,43,1,FBP-OG-19.png,0.43,1.2,44,0.5,,,,,,,,,,,,,,,,,,,,,,,,,,,,,,,,,,,,,,,,,,,,,
,,,,,V3_039,21,Female,2024-10-28_16h22.18.174,jersey_experiment_5_v3,2023.2.2,Win32,84.74576271,,,,,,,,,,,,,,,,93.2838,94.8373,94.8373,95.6136,return,0.1334,,80.859375,0,15,15,49,1,FBP-RB-17.png,0.45,1.2,50,0.75,,,,,,,,,,,,,,,,,,,,,,,,,,,,,,,,,,,,,,,,,,,,,
,,,,,V3_039,21,Female,2024-10-28_16h22.18.174,jersey_experiment_5_v3,2023.2.2,Win32,84.74576271,,,,,,,,,,,,,,,,95.6137,97.1662,97.1662,98.0134,return,0.2273,,68.75,0,16,16,22,1,FBP-PT-18.png,0.4,1.2,23,0.75,,,,,,,,,,,,,,,,,,,,,,,,,,,,,,,,,,,,,,,,,,,,,
,,,,,V3_039,21,Female,2024-10-28_16h22.18.174,jersey_experiment_5_v3,2023.2.2,Win32,84.74576271,,,,,,,,,,,,,,,,98.0135,99.5666,99.5666,100.3665,return,0.1408,,81.51041667,0,17,17,28,1,FBP-PT-19.png,0.43,1.2,29,0.75,,,,,,,,,,,,,,,,,,,,,,,,,,,,,,,,,,,,,,,,,,,,,
,,,,,V3_039,21,Female,2024-10-28_16h22.18.174,jersey_experiment_5_v3,2023.2.2,Win32,84.74576271,,,,,,,,,,,,,,,,100.3666,101.6689,101.6689,103.222,return,0.5181,,38.15104167,0,18,18,40,1,FBP-OG-19.png,0.35,1.2,41,0.5,,,,,,,,,,,,,,,,,,,,,,,,,,,,,,,,,,,,,,,,,,,,,
,,,,,V3_039,21,Female,2024-10-28_16h22.18.174,jersey_experiment_5_v3,2023.2.2,Win32,84.74576271,,,,,,,,,,,,,,,,103.2221,104.5159,104.5159,105.8099,return,0.1964,,92.578125,0,19,19,34,1,FBP-OG-17.png,0.45,1.2,35,0.5,,,,,,,,,,,,,,,,,,,,,,,,,,,,,,,,,,,,,,,,,,,,,
,,,,,V3_039,21,Female,2024-10-28_16h22.18.174,jersey_experiment_5_v3,2023.2.2,Win32,84.74576271,,,,,,,,,,,,,,,,105.81,107.3549,107.3549,108.202,return,0.1565,,76.69270833,0,20,20,2,1,FBP-YG-71.png,0.4,1.2,3,0.75,,,,,,,,,,,,,,,,,,,,,,,,,,,,,,,,,,,,,,,,,,,,,
,,,,,V3_039,21,Female,2024-10-28_16h22.18.174,jersey_experiment_5_v3,2023.2.2,Win32,84.74576271,,,,,,,,,,,,,,,,108.2021,109.5045,109.5045,110.6813,return,0.3619,,59.24479167,0,21,21,31,1,FBP-OG-17.png,0.37,1.2,32,0.5,,,,,,,,,,,,,,,,,,,,,,,,,,,,,,,,,,,,,,,,,,,,,
,,,,,V3_039,21,Female,2024-10-28_16h22.18.174,jersey_experiment_5_v3,2023.2.2,Win32,84.74576271,,,,,,,,,,,,,,,,110.6815,112.2257,112.2257,113.0492,return,0.165,,76.5625,0,22,22,18,1,FBP-PT-17.png,0.43,1.2,19,0.75,,,,,,,,,,,,,,,,,,,,,,,,,,,,,,,,,,,,,,,,,,,,,
,,,,,V3_039,21,Female,2024-10-28_16h22.18.174,jersey_experiment_5_v3,2023.2.2,Win32,84.74576271,,,,,,,,,,,,,,,,113.0493,114.6021,114.6021,115.5434,return,0.2505,,54.55729167,0,23,23,51,1,FBP-RB-18.png,0.37,1.2,52,0.75,,,,,,,,,,,,,,,,,,,,,,,,,,,,,,,,,,,,,,,,,,,,,
,,,,,V3_039,21,Female,2024-10-28_16h22.18.174,jersey_experiment_5_v3,2023.2.2,Win32,84.74576271,,,,,,,,,,,,,,,,115.5436,116.8371,116.8371,117.764,return,0.2123,,52.86458333,0,24,24,41,1,FBP-OG-19.png,0.37,1.2,42,0.5,,,,,,,,,,,,,,,,,,,,,,,,,,,,,,,,,,,,,,,,,,,,,
,,,,,V3_039,21,Female,2024-10-28_16h22.18.174,jersey_experiment_5_v3,2023.2.2,Win32,84.74576271,,,,,,,,,,,,,,,,117.7641,119.0578,119.0579,120.1318,return,0.1331,,48.56770833,0,25,25,36,1,FBP-OG-18.png,0.37,1.2,37,0.5,,,,,,,,,,,,,,,,,,,,,,,,,,,,,,,,,,,,,,,,,,,,,
,,,,,V3_039,21,Female,2024-10-28_16h22.18.174,jersey_experiment_5_v3,2023.2.2,Win32,84.74576271,,,,,,,,,,,,,,,,120.1321,121.6847,121.6847,122.8195,return,0.2061,,94.79166667,0,26,26,4,1,FBP-YG-71.png,0.45,1.2,5,0.75,,,,,,,,,,,,,,,,,,,,,,,,,,,,,,,,,,,,,,,,,,,,,
,,,,,V3_039,21,Female,2024-10-28_16h22.18.174,jersey_experiment_5_v3,2023.2.2,Win32,84.74576271,,,,,,,,,,,,,,,,122.8197,124.3757,124.3758,125.2465,return,0.1181,,98.046875,0,27,27,9,1,FBP-YG-81.png,0.45,1.2,10,0.75,,,,,,,,,,,,,,,,,,,,,,,,,,,,,,,,,,,,,,,,,,,,,
,,,,,V3_039,21,Female,2024-10-28_16h22.18.174,jersey_experiment_5_v3,2023.2.2,Win32,84.74576271,,,,,,,,,,,,,,,,125.2467,126.7911,126.7912,127.9256,return,0.0404,,71.61458333,0,28,28,27,1,FBP-PT-19.png,0.4,1.2,28,0.75,,,,,,,,,,,,,,,,,,,,,,,,,,,,,,,,,,,,,,,,,,,,,
,,,,,V3_039,21,Female,2024-10-28_16h22.18.174,jersey_experiment_5_v3,2023.2.2,Win32,84.74576271,,,,,,,,,,,,,,,,127.9257,129.4735,129.4735,130.3441,return,0.0391,,53.25520833,0,29,29,50,1,FBP-RB-18.png,0.35,1.2,51,0.75,,,,,,,,,,,,,,,,,,,,,,,,,,,,,,,,,,,,,,,,,,,,,
,,,,,V3_039,21,Female,2024-10-28_16h22.18.174,jersey_experiment_5_v3,2023.2.2,Win32,84.74576271,,,,,,,,,,,,,,,,130.3442,131.8968,131.8969,132.885,return,0.0623,,86.19791667,0,30,30,48,1,FBP-RB-17.png,0.43,1.2,49,0.75,,,,,,,,,,,,,,,,,,,,,,,,,,,,,,,,,,,,,,,,,,,,,
,,,,,V3_039,21,Female,2024-10-28_16h22.18.174,jersey_experiment_5_v3,2023.2.2,Win32,84.74576271,,,,,,,,,,,,,,,,132.8852,134.438,134.438,135.8972,return,0.0626,,64.19270833,0,31,31,10,1,FBP-YG-91.png,0.35,1.2,11,0.75,,,,,,,,,,,,,,,,,,,,,,,,,,,,,,,,,,,,,,,,,,,,,
,,,,,V3_039,21,Female,2024-10-28_16h22.18.174,jersey_experiment_5_v3,2023.2.2,Win32,84.74576271,,,,,,,,,,,,,,,,135.8973,137.4504,137.4504,138.1173,return,0.1261,,79.42708333,0,32,32,47,1,FBP-RB-17.png,0.4,1.2,48,0.75,,,,,,,,,,,,,,,,,,,,,,,,,,,,,,,,,,,,,,,,,,,,,
,,,,,V3_039,21,Female,2024-10-28_16h22.18.174,jersey_experiment_5_v3,2023.2.2,Win32,84.74576271,,,,,,,,,,,,,,,,138.1174,139.4266,139.4266,140.094,return,0.0324,,80.20833333,0,33,33,42,1,FBP-OG-19.png,0.4,1.2,43,0.5,,,,,,,,,,,,,,,,,,,,,,,,,,,,,,,,,,,,,,,,,,,,,
,,,,,V3_039,21,Female,2024-10-28_16h22.18.174,jersey_experiment_5_v3,2023.2.2,Win32,84.74576271,,,,,,,,,,,,,,,,140.0942,141.6388,141.6388,142.6824,return,0.0797,,56.11979167,0,34,34,15,1,FBP-PT-17.png,0.35,1.2,16,0.75,,,,,,,,,,,,,,,,,,,,,,,,,,,,,,,,,,,,,,,,,,,,,
,,,,,V3_039,21,Female,2024-10-28_16h22.18.174,jersey_experiment_5_v3,2023.2.2,Win32,84.74576271,,,,,,,,,,,,,,,,142.6825,144.2266,144.2267,145.3647,return,0.0551,,95.3125,0,35,35,58,1,FBP-RB-19.png,0.43,1.2,59,0.75,,,,,,,,,,,,,,,,,,,,,,,,,,,,,,,,,,,,,,,,,,,,,
,,,,,V3_039,21,Female,2024-10-28_16h22.18.174,jersey_experiment_5_v3,2023.2.2,Win32,84.74576271,,,,,,,,,,,,,,,,145.3648,146.918,146.9181,148.1616,return,0.0197,,53.38541667,0,36,36,55,1,FBP-RB-19.png,0.35,1.2,56,0.75,,,,,,,,,,,,,,,,,,,,,,,,,,,,,,,,,,,,,,,,,,,,,
,,,,,V3_039,21,Female,2024-10-28_16h22.18.174,jersey_experiment_5_v3,2023.2.2,Win32,84.74576271,,,,,,,,,,,,,,,,148.1618,149.7178,149.7179,150.6825,return,0.1733,,54.42708333,0,37,37,56,1,FBP-RB-19.png,0.37,1.2,57,0.75,,,,,,,,,,,,,,,,,,,,,,,,,,,,,,,,,,,,,,,,,,,,,
,,,,,V3_039,21,Female,2024-10-28_16h22.18.174,jersey_experiment_5_v3,2023.2.2,Win32,84.74576271,,,,,,,,,,,,,,,,150.6826,152.2354,152.2354,153.1534,return,0.1417,,63.28125,0,38,38,46,1,FBP-RB-17.png,0.37,1.2,47,0.75,,,,,,,,,,,,,,,,,,,,,,,,,,,,,,,,,,,,,,,,,,,,,
,,,,,V3_039,21,Female,2024-10-28_16h22.18.174,jersey_experiment_5_v3,2023.2.2,Win32,84.74576271,,,,,,,,,,,,,,,,153.1536,154.6978,154.6979,155.4509,return,0.039,,56.25,0,39,39,20,1,FBP-PT-18.png,0.35,1.2,21,0.75,,,,,,,,,,,,,,,,,,,,,,,,,,,,,,,,,,,,,,,,,,,,,
,,,,,V3_039,21,Female,2024-10-28_16h22.18.174,jersey_experiment_5_v3,2023.2.2,Win32,84.74576271,,,,,,,,,,,,,,,,155.451,157.0037,157.0038,157.9384,return,0.0863,,87.36979167,0,40,40,13,1,FBP-YG-91.png,0.43,1.2,14,0.75,,,,,,,,,,,,,,,,,,,,,,,,,,,,,,,,,,,,,,,,,,,,,
,,,,,V3_039,21,Female,2024-10-28_16h22.18.174,jersey_experiment_5_v3,2023.2.2,Win32,84.74576271,,,,,,,,,,,,,,,,157.9387,159.4827,159.4827,160.1335,return,0.0392,,72.91666667,0,41,41,21,1,FBP-PT-18.png,0.37,1.2,22,0.75,,,,,,,,,,,,,,,,,,,,,,,,,,,,,,,,,,,,,,,,,,,,,
,,,,,V3_039,21,Female,2024-10-28_16h22.18.174,jersey_experiment_5_v3,2023.2.2,Win32,84.74576271,,,,,,,,,,,,,,,,160.1335,161.6862,161.6862,162.2041,return,0.0003,,69.79166667,0,42,42,5,1,FBP-YG-81.png,0.35,1.2,6,0.75,,,,,,,,,,,,,,,,,,,,,,,,,,,,,,,,,,,,,,,,,,,,,
,,,,,V3_039,21,Female,2024-10-28_16h22.18.174,jersey_experiment_5_v3,2023.2.2,Win32,84.74576271,,,,,,,,,,,,,,,,162.2042,163.4977,163.4977,164.5571,return,0.0389,,93.359375,0,43,43,38,1,FBP-OG-18.png,0.43,1.2,39,0.5,,,,,,,,,,,,,,,,,,,,,,,,,,,,,,,,,,,,,,,,,,,,,
,,,,,V3_039,21,Female,2024-10-28_16h22.18.174,jersey_experiment_5_v3,2023.2.2,Win32,84.74576271,,,,,,,,,,,,,,,,164.5572,165.8592,165.8592,166.6092,return,0.0197,,97.65625,0,44,44,44,1,FBP-OG-19.png,0.45,1.2,45,0.5,,,,,,,,,,,,,,,,,,,,,,,,,,,,,,,,,,,,,,,,,,,,,
,,,,,V3_039,21,Female,2024-10-28_16h22.18.174,jersey_experiment_5_v3,2023.2.2,Win32,84.74576271,,,,,,,,,,,,,,,,166.6094,168.1571,168.1572,169.0746,return,0.3447,,92.578125,0,45,45,57,1,FBP-RB-19.png,0.4,1.2,58,0.75,,,,,,,,,,,,,,,,,,,,,,,,,,,,,,,,,,,,,,,,,,,,,
,,,,,V3_039,21,Female,2024-10-28_16h22.18.174,jersey_experiment_5_v3,2023.2.2,Win32,84.74576271,,,,,,,,,,,,,,,,169.0748,170.6278,170.6278,171.2328,return,0.1968,,92.83854167,0,46,46,12,1,FBP-YG-91.png,0.4,1.2,13,0.75,,,,,,,,,,,,,,,,,,,,,,,,,,,,,,,,,,,,,,,,,,,,,
,,,,,V3_039,21,Female,2024-10-28_16h22.18.174,jersey_experiment_5_v3,2023.2.2,Win32,84.74576271,,,,,,,,,,,,,,,,171.233,172.7922,172.7922,173.5689,return,0.0387,,95.96354167,0,47,47,53,1,FBP-RB-18.png,0.43,1.2,54,0.75,,,,,,,,,,,,,,,,,,,,,,,,,,,,,,,,,,,,,,,,,,,,,
,,,,,V3_039,21,Female,2024-10-28_16h22.18.174,jersey_experiment_5_v3,2023.2.2,Win32,84.74576271,,,,,,,,,,,,,,,,173.5689,175.1155,175.1155,175.7573,return,0.015,,95.83333333,0,48,48,29,1,FBP-PT-19.png,0.45,1.2,30,0.75,,,,,,,,,,,,,,,,,,,,,,,,,,,,,,,,,,,,,,,,,,,,,
,,,,,V3_039,21,Female,2024-10-28_16h22.18.174,jersey_experiment_5_v3,2023.2.2,Win32,84.74576271,,,,,,,,,,,,,,,,175.7575,177.3106,177.3106,178.8397,return,0.1648,,62.36979167,0,49,49,16,1,FBP-PT-17.png,0.37,1.2,17,0.75,,,,,,,,,,,,,,,,,,,,,,,,,,,,,,,,,,,,,,,,,,,,,
,,,,,V3_039,21,Female,2024-10-28_16h22.18.174,jersey_experiment_5_v3,2023.2.2,Win32,84.74576271,,,,,,,,,,,,,,,,178.8399,180.3861,180.3862,181.3981,return,0.0272,,75.52083333,0,50,50,17,1,FBP-PT-17.png,0.4,1.2,18,0.75,,,,,,,,,,,,,,,,,,,,,,,,,,,,,,,,,,,,,,,,,,,,,
,,,,,V3_039,21,Female,2024-10-28_16h22.18.174,jersey_experiment_5_v3,2023.2.2,Win32,84.74576271,,,,,,,,,,,,,,,,181.3983,182.9424,182.9424,184.9109,return,0.8708,,43.22916667,0,51,51,25,1,FBP-PT-19.png,0.35,1.2,26,0.75,,,,,,,,,,,,,,,,,,,,,,,,,,,,,,,,,,,,,,,,,,,,,
,,,,,V3_039,21,Female,2024-10-28_16h22.18.174,jersey_experiment_5_v3,2023.2.2,Win32,84.74576271,,,,,,,,,,,,,,,,184.911,186.2047,186.2047,187.5222,return,0.0622,,50.52083333,0,52,52,37,1,FBP-OG-18.png,0.4,1.2,38,0.5,,,,,,,,,,,,,,,,,,,,,,,,,,,,,,,,,,,,,,,,,,,,,
,,,,,V3_039,21,Female,2024-10-28_16h22.18.174,jersey_experiment_5_v3,2023.2.2,Win32,84.74576271,,,,,,,,,,,,,,,,187.5224,189.0761,189.0761,190.5344,return,0.4002,,95.3125,0,53,53,14,1,FBP-YG-91.png,0.45,1.2,15,0.75,,,,,,,,,,,,,,,,,,,,,,,,,,,,,,,,,,,,,,,,,,,,,
,,,,,V3_039,21,Female,2024-10-28_16h22.18.174,jersey_experiment_5_v3,2023.2.2,Win32,84.74576271,,,,,,,,,,,,,,,,190.5345,192.0876,192.0877,193.2925,return,0.2035,,50.91145833,0,54,54,6,1,FBP-YG-81.png,0.37,1.2,7,0.75,,,,,,,,,,,,,,,,,,,,,,,,,,,,,,,,,,,,,,,,,,,,,
,,,,,V3_039,21,Female,2024-10-28_16h22.18.174,jersey_experiment_5_v3,2023.2.2,Win32,84.74576271,,,,,,,,,,,,,,,,193.2927,194.8404,194.8404,196.1583,return,0.086,,92.44791667,0,55,55,3,1,FBP-YG-71.png,0.43,1.2,4,0.75,,,,,,,,,,,,,,,,,,,,,,,,,,,,,,,,,,,,,,,,,,,,,
,,,,,V3_039,21,Female,2024-10-28_16h22.18.174,jersey_experiment_5_v3,2023.2.2,Win32,84.74576271,,,,,,,,,,,,,,,,196.1584,197.4608,197.4608,198.5329,return,0.116,,75.390625,0,56,56,32,1,FBP-OG-17.png,0.4,1.2,33,0.5,,,,,,,,,,,,,,,,,,,,,,,,,,,,,,,,,,,,,,,,,,,,,
,,,,,V3_039,21,Female,2024-10-28_16h22.18.174,jersey_experiment_5_v3,2023.2.2,Win32,84.74576271,,,,,,,,,,,,,,,,198.5331,199.834,199.834,200.5988,return,0.0113,,80.859375,0,57,57,33,1,FBP-OG-17.png,0.43,1.2,34,0.5,,,,,,,,,,,,,,,,,,,,,,,,,,,,,,,,,,,,,,,,,,,,,
,,,,,V3_039,21,Female,2024-10-28_16h22.18.174,jersey_experiment_5_v3,2023.2.2,Win32,84.74576271,,,,,,,,,,,,,,,,200.599,202.1431,202.1431,203.6493,return,0.7617,,41.66666667,0,58,58,0,1,FBP-YG-71.png,0.35,1.2,1,0.75,,,,,,,,,,,,,,,,,,,,,,,,,,,,,,,,,,,,,,,,,,,,,
,,,,,V3_039,21,Female,2024-10-28_16h22.18.174,jersey_experiment_5_v3,2023.2.2,Win32,84.74576271,,,,,,,,,,,,,,,,203.6494,205.2054,205.2054,206.4055,return,0.1649,,97.65625,0,59,59,19,1,FBP-PT-17.png,0.45,1.2,20,0.75,,,,,,,,,,,,,,,,,,,,,,,,,,,,,,,,,,,,,,,,,,,,,
,,,,,V3_039,21,Female,2024-10-28_16h22.18.174,jersey_experiment_5_v3,2023.2.2,Win32,84.74576271,,,,,,,,,,,,,,,,206.4069,207.7082,207.7083,208.8696,return,0.1771,,45.05208333,,,,,,FBP-OG-81.png,0.37,1.2,37,0.5,0,0,0,36,1,,,,,,,,,,,,,,,,,,,,,,,,,,,,,,,,,,,,,,,,
,,,,,V3_039,21,Female,2024-10-28_16h22.18.174,jersey_experiment_5_v3,2023.2.2,Win32,84.74576271,,,,,,,,,,,,,,,,208.8699,210.4226,210.4226,211.2998,return,0.0856,,46.61458333,,,,,,FBP-RB-81.png,0.37,1.2,52,0.75,0,1,1,51,1,,,,,,,,,,,,,,,,,,,,,,,,,,,,,,,,,,,,,,,,
,,,,,V3_039,21,Female,2024-10-28_16h22.18.174,jersey_experiment_5_v3,2023.2.2,Win32,84.74576271,,,,,,,,,,,,,,,,211.2999,212.6022,212.6022,214.0345,return,0.3012,,26.30208333,,,,,,FBP-OG-91.png,0.35,1.2,41,0.5,0,2,2,40,1,,,,,,,,,,,,,,,,,,,,,,,,,,,,,,,,,,,,,,,,
,,,,,V3_039,21,Female,2024-10-28_16h22.18.174,jersey_experiment_5_v3,2023.2.2,Win32,84.74576271,,,,,,,,,,,,,,,,214.0347,215.5907,215.5908,216.2411,return,0.2272,,27.47395833,,,,,,FBP-PT-71.png,0.35,1.2,16,0.75,0,3,3,15,1,,,,,,,,,,,,,,,,,,,,,,,,,,,,,,,,,,,,,,,,
,,,,,V3_039,21,Female,2024-10-28_16h22.18.174,jersey_experiment_5_v3,2023.2.2,Win32,84.74576271,,,,,,,,,,,,,,,,216.2413,217.794,217.7941,219.0934,return,0.2368,,94.40104167,,,,,,FBP-RB-81.png,0.4,1.2,53,0.75,0,4,4,52,1,,,,,,,,,,,,,,,,,,,,,,,,,,,,,,,,,,,,,,,,
,,,,,V3_039,21,Female,2024-10-28_16h22.18.174,jersey_experiment_5_v3,2023.2.2,Win32,84.74576271,,,,,,,,,,,,,,,,219.0937,220.3908,220.3908,222.3355,return,1.2708,,75.13020833,,,,,,FBP-OG-91.png,0.4,1.2,43,0.5,0,5,5,42,1,,,,,,,,,,,,,,,,,,,,,,,,,,,,,,,,,,,,,,,,
,,,,,V3_039,21,Female,2024-10-28_16h22.18.174,jersey_experiment_5_v3,2023.2.2,Win32,84.74576271,,,,,,,,,,,,,,,,222.3358,223.882,223.882,224.4772,return,0.1655,,74.73958333,,,,,,FBP-PT-91.png,0.37,1.2,27,0.75,0,6,6,26,1,,,,,,,,,,,,,,,,,,,,,,,,,,,,,,,,,,,,,,,,
,,,,,V3_039,21,Female,2024-10-28_16h22.18.174,jersey_experiment_5_v3,2023.2.2,Win32,84.74576271,,,,,,,,,,,,,,,,224.4774,226.0299,226.0299,226.7828,return,0.0154,,97.13541667,,,,,,FBP-YG-17.png,0.45,1.2,5,0.75,0,7,7,4,1,,,,,,,,,,,,,,,,,,,,,,,,,,,,,,,,,,,,,,,,
,,,,,V3_039,21,Female,2024-10-28_16h22.18.174,jersey_experiment_5_v3,2023.2.2,Win32,84.74576271,,,,,,,,,,,,,,,,226.7829,228.3357,228.3357,229.2149,return,0.15,,73.69791667,,,,,,FBP-RB-71.png,0.37,1.2,47,0.75,0,8,8,46,1,,,,,,,,,,,,,,,,,,,,,,,,,,,,,,,,,,,,,,,,
,,,,,V3_039,21,Female,2024-10-28_16h22.18.174,jersey_experiment_5_v3,2023.2.2,Win32,84.74576271,,,,,,,,,,,,,,,,229.215,230.7677,230.7677,232.5646,return,1.1581,,77.60416667,,,,,,FBP-YG-18.png,0.4,1.2,8,0.75,0,9,9,7,1,,,,,,,,,,,,,,,,,,,,,,,,,,,,,,,,,,,,,,,,
,,,,,V3_039,21,Female,2024-10-28_16h22.18.174,jersey_experiment_5_v3,2023.2.2,Win32,84.74576271,,,,,,,,,,,,,,,,232.5648,233.8587,233.8587,236.0537,return,0.0155,,48.30729167,,,,,,FBP-OG-71.png,0.35,1.2,31,0.5,0,10,10,30,1,,,,,,,,,,,,,,,,,,,,,,,,,,,,,,,,,,,,,,,,
,,,,,V3_039,21,Female,2024-10-28_16h22.18.174,jersey_experiment_5_v3,2023.2.2,Win32,84.74576271,,,,,,,,,,,,,,,,236.0539,237.6063,237.6064,238.2891,return,0.1565,,46.74479167,,,,,,FBP-RB-71.png,0.35,1.2,46,0.75,0,11,11,45,1,,,,,,,,,,,,,,,,,,,,,,,,,,,,,,,,,,,,,,,,
,,,,,V3_039,21,Female,2024-10-28_16h22.18.174,jersey_experiment_5_v3,2023.2.2,Win32,84.74576271,,,,,,,,,,,,,,,,238.2892,239.5815,239.5815,240.2507,return,0.1502,,46.09375,,,,,,FBP-OG-91.png,0.37,1.2,42,0.5,0,12,12,41,1,,,,,,,,,,,,,,,,,,,,,,,,,,,,,,,,,,,,,,,,
,,,,,V3_039,21,Female,2024-10-28_16h22.18.174,jersey_experiment_5_v3,2023.2.2,Win32,84.74576271,,,,,,,,,,,,,,,,240.2508,241.5596,241.5597,242.7598,return,0.0237,,96.74479167,,,,,,FBP-OG-81.png,0.45,1.2,40,0.5,0,13,13,39,1,,,,,,,,,,,,,,,,,,,,,,,,,,,,,,,,,,,,,,,,
,,,,,V3_039,21,Female,2024-10-28_16h22.18.174,jersey_experiment_5_v3,2023.2.2,Win32,84.74576271,,,,,,,,,,,,,,,,242.7599,244.3127,244.3128,245.4889,return,0.1175,,45.703125,,,,,,FBP-PT-81.png,0.35,1.2,21,0.75,0,14,14,20,1,,,,,,,,,,,,,,,,,,,,,,,,,,,,,,,,,,,,,,,,
,,,,,V3_039,21,Female,2024-10-28_16h22.18.174,jersey_experiment_5_v3,2023.2.2,Win32,84.74576271,,,,,,,,,,,,,,,,245.4891,247.0421,247.0421,247.577,return,0.1058,,44.79166667,,,,,,FBP-PT-91.png,0.35,1.2,26,0.75,0,15,15,25,1,,,,,,,,,,,,,,,,,,,,,,,,,,,,,,,,,,,,,,,,
,,,,,V3_039,21,Female,2024-10-28_16h22.18.174,jersey_experiment_5_v3,2023.2.2,Win32,84.74576271,,,,,,,,,,,,,,,,247.5771,249.1215,249.1216,250.1568,return,0.0323,,97.65625,,,,,,FBP-PT-91.png,0.43,1.2,29,0.75,0,16,16,28,1,,,,,,,,,,,,,,,,,,,,,,,,,,,,,,,,,,,,,,,,
,,,,,V3_039,21,Female,2024-10-28_16h22.18.174,jersey_experiment_5_v3,2023.2.2,Win32,84.74576271,,,,,,,,,,,,,,,,250.1569,251.4507,251.4508,252.3065,return,0.0542,,98.69791667,,,,,,FBP-OG-71.png,0.45,1.2,35,0.5,0,17,17,34,1,,,,,,,,,,,,,,,,,,,,,,,,,,,,,,,,,,,,,,,,
,,,,,V3_039,21,Female,2024-10-28_16h22.18.174,jersey_experiment_5_v3,2023.2.2,Win32,84.74576271,,,,,,,,,,,,,,,,252.3067,253.8509,253.8509,255.0042,return,0.0473,,75.26041667,,,,,,FBP-YG-17.png,0.37,1.2,2,0.75,0,18,18,1,1,,,,,,,,,,,,,,,,,,,,,,,,,,,,,,,,,,,,,,,,
,,,,,V3_039,21,Female,2024-10-28_16h22.18.174,jersey_experiment_5_v3,2023.2.2,Win32,84.74576271,,,,,,,,,,,,,,,,255.0044,256.5485,256.5485,257.1536,return,0.0397,,75.91145833,,,,,,FBP-RB-91.png,0.4,1.2,58,0.75,0,19,19,57,1,,,,,,,,,,,,,,,,,,,,,,,,,,,,,,,,,,,,,,,,
,,,,,V3_039,21,Female,2024-10-28_16h22.18.174,jersey_experiment_5_v3,2023.2.2,Win32,84.74576271,,,,,,,,,,,,,,,,257.1538,258.4543,258.4543,259.5924,return,0.0709,,97.78645833,,,,,,FBP-OG-91.png,0.45,1.2,45,0.5,0,20,20,44,1,,,,,,,,,,,,,,,,,,,,,,,,,,,,,,,,,,,,,,,,
,,,,,V3_039,21,Female,2024-10-28_16h22.18.174,jersey_experiment_5_v3,2023.2.2,Win32,84.74576271,,,,,,,,,,,,,,,,259.5925,261.1369,261.1369,263.2009,return,0.0791,,49.609375,,,,,,FBP-YG-19.png,0.35,1.2,11,0.75,0,21,21,10,1,,,,,,,,,,,,,,,,,,,,,,,,,,,,,,,,,,,,,,,,
,,,,,V3_039,21,Female,2024-10-28_16h22.18.174,jersey_experiment_5_v3,2023.2.2,Win32,84.74576271,,,,,,,,,,,,,,,,263.2011,264.7455,264.7455,265.2783,return,0.1332,,49.609375,,,,,,FBP-RB-91.png,0.35,1.2,56,0.75,0,22,22,55,1,,,,,,,,,,,,,,,,,,,,,,,,,,,,,,,,,,,,,,,,
,,,,,V3_039,21,Female,2024-10-28_16h22.18.174,jersey_experiment_5_v3,2023.2.2,Win32,84.74576271,,,,,,,,,,,,,,,,265.2784,266.8311,266.8311,267.3002,return,0.1782,,49.47916667,,,,,,FBP-RB-81.png,0.35,1.2,51,0.75,0,23,23,50,1,,,,,,,,,,,,,,,,,,,,,,,,,,,,,,,,,,,,,,,,
,,,,,V3_039,21,Female,2024-10-28_16h22.18.174,jersey_experiment_5_v3,2023.2.2,Win32,84.74576271,,,,,,,,,,,,,,,,267.3003,268.8556,268.8556,269.7579,return,0.0004,,97.39583333,,,,,,FBP-PT-71.png,0.45,1.2,20,0.75,0,24,24,19,1,,,,,,,,,,,,,,,,,,,,,,,,,,,,,,,,,,,,,,,,
,,,,,V3_039,21,Female,2024-10-28_16h22.18.174,jersey_experiment_5_v3,2023.2.2,Win32,84.74576271,,,,,,,,,,,,,,,,269.758,271.0516,271.0516,271.8197,return,0.1653,,91.015625,,,,,,FBP-OG-81.png,0.4,1.2,38,0.5,0,25,25,37,1,,,,,,,,,,,,,,,,,,,,,,,,,,,,,,,,,,,,,,,,
,,,,,V3_039,21,Female,2024-10-28_16h22.18.174,jersey_experiment_5_v3,2023.2.2,Win32,84.74576271,,,,,,,,,,,,,,,,271.8199,273.366,273.3661,274.0323,return,0.0245,,90.36458333,,,,,,FBP-PT-71.png,0.37,1.2,17,0.75,0,26,26,16,1,,,,,,,,,,,,,,,,,,,,,,,,,,,,,,,,,,,,,,,,
,,,,,V3_039,21,Female,2024-10-28_16h22.18.174,jersey_experiment_5_v3,2023.2.2,Win32,84.74576271,,,,,,,,,,,,,,,,274.0325,275.585,275.585,276.3846,return,0.0386,,85.80729167,,,,,,FBP-PT-81.png,0.4,1.2,23,0.75,0,27,27,22,1,,,,,,,,,,,,,,,,,,,,,,,,,,,,,,,,,,,,,,,,
,,,,,V3_039,21,Female,2024-10-28_16h22.18.174,jersey_experiment_5_v3,2023.2.2,Win32,84.74576271,,,,,,,,,,,,,,,,276.3847,277.9308,277.9309,278.5345,return,0.0946,,85.41666667,,,,,,FBP-PT-71.png,0.4,1.2,18,0.75,0,28,28,17,1,,,,,,,,,,,,,,,,,,,,,,,,,,,,,,,,,,,,,,,,
,,,,,V3_039,21,Female,2024-10-28_16h22.18.174,jersey_experiment_5_v3,2023.2.2,Win32,84.74576271,,,,,,,,,,,,,,,,278.5345,280.084,280.0841,280.6605,return,0.0843,,85.28645833,,,,,,FBP-YG-17.png,0.4,1.2,3,0.75,0,29,29,2,1,,,,,,,,,,,,,,,,,,,,,,,,,,,,,,,,,,,,,,,,
,,,,,V3_039,21,Female,2024-10-28_16h22.18.174,jersey_experiment_5_v3,2023.2.2,Win32,84.74576271,,,,,,,,,,,,,,,,280.6607,282.205,282.205,283.0135,return,0.1689,,89.453125,,,,,,FBP-RB-81.png,0.45,1.2,55,0.75,0,30,30,54,1,,,,,,,,,,,,,,,,,,,,,,,,,,,,,,,,,,,,,,,,
,,,,,V3_039,21,Female,2024-10-28_16h22.18.174,jersey_experiment_5_v3,2023.2.2,Win32,84.74576271,,,,,,,,,,,,,,,,283.0137,284.5577,284.5577,286.9967,return,1.8508,,75.26041667,,,,,,FBP-YG-17.png,0.35,1.2,1,0.75,0,31,31,0,1,,,,,,,,,,,,,,,,,,,,,,,,,,,,,,,,,,,,,,,,
,,,,,V3_039,21,Female,2024-10-28_16h22.18.174,jersey_experiment_5_v3,2023.2.2,Win32,84.74576271,,,,,,,,,,,,,,,,286.9968,288.5433,288.5434,289.3969,return,0.0239,,75,,,,,,FBP-PT-81.png,0.37,1.2,22,0.75,0,32,32,21,1,,,,,,,,,,,,,,,,,,,,,,,,,,,,,,,,,,,,,,,,
,,,,,V3_039,21,Female,2024-10-28_16h22.18.174,jersey_experiment_5_v3,2023.2.2,Win32,84.74576271,,,,,,,,,,,,,,,,289.3971,290.6994,290.6994,291.75,return,0.024,,79.94791667,,,,,,FBP-OG-71.png,0.43,1.2,34,0.5,0,33,33,33,1,,,,,,,,,,,,,,,,,,,,,,,,,,,,,,,,,,,,,,,,
,,,,,V3_039,21,Female,2024-10-28_16h22.18.174,jersey_experiment_5_v3,2023.2.2,Win32,84.74576271,,,,,,,,,,,,,,,,291.7501,293.3027,293.3028,294.291,return,0.062,,74.86979167,,,,,,FBP-PT-91.png,0.4,1.2,28,0.75,0,34,34,27,1,,,,,,,,,,,,,,,,,,,,,,,,,,,,,,,,,,,,,,,,
,,,,,V3_039,21,Female,2024-10-28_16h22.18.174,jersey_experiment_5_v3,2023.2.2,Win32,84.74576271,,,,,,,,,,,,,,,,294.291,295.5939,295.5939,296.8022,return,0.6746,,77.08333333,,,,,,FBP-OG-91.png,0.43,1.2,44,0.5,0,35,35,43,1,,,,,,,,,,,,,,,,,,,,,,,,,,,,,,,,,,,,,,,,
,,,,,V3_039,21,Female,2024-10-28_16h22.18.174,jersey_experiment_5_v3,2023.2.2,Win32,84.74576271,,,,,,,,,,,,,,,,296.8024,298.3469,298.3469,298.8408,return,0.0576,,79.03645833,,,,,,FBP-PT-71.png,0.43,1.2,19,0.75,0,36,36,18,1,,,,,,,,,,,,,,,,,,,,,,,,,,,,,,,,,,,,,,,,
,,,,,V3_039,21,Female,2024-10-28_16h22.18.174,jersey_experiment_5_v3,2023.2.2,Win32,84.74576271,,,,,,,,,,,,,,,,298.841,300.3858,300.3858,300.9352,return,0.0324,,85.02604167,,,,,,FBP-RB-91.png,0.45,1.2,60,0.75,0,37,37,59,1,,,,,,,,,,,,,,,,,,,,,,,,,,,,,,,,,,,,,,,,
,,,,,V3_039,21,Female,2024-10-28_16h22.18.174,jersey_experiment_5_v3,2023.2.2,Win32,84.74576271,,,,,,,,,,,,,,,,300.9354,302.4795,302.4795,303.4763,return,0.0557,,49.86979167,,,,,,FBP-YG-18.png,0.35,1.2,6,0.75,0,38,38,5,1,,,,,,,,,,,,,,,,,,,,,,,,,,,,,,,,,,,,,,,,
,,,,,V3_039,21,Female,2024-10-28_16h22.18.174,jersey_experiment_5_v3,2023.2.2,Win32,84.74576271,,,,,,,,,,,,,,,,303.4764,305.021,305.021,306.0178,return,0.0004,,94.66145833,,,,,,FBP-RB-91.png,0.43,1.2,59,0.75,0,39,39,58,1,,,,,,,,,,,,,,,,,,,,,,,,,,,,,,,,,,,,,,,,
,,,,,V3_039,21,Female,2024-10-28_16h22.18.174,jersey_experiment_5_v3,2023.2.2,Win32,84.74576271,,,,,,,,,,,,,,,,306.018,307.3114,307.3114,309.2561,return,0.274,,87.36979167,,,,,,FBP-OG-81.png,0.43,1.2,39,0.5,0,40,40,38,1,,,,,,,,,,,,,,,,,,,,,,,,,,,,,,,,,,,,,,,,
,,,,,V3_039,21,Female,2024-10-28_16h22.18.174,jersey_experiment_5_v3,2023.2.2,Win32,84.74576271,,,,,,,,,,,,,,,,309.2562,310.8089,310.809,311.4733,return,0.2318,,87.890625,,,,,,FBP-PT-81.png,0.43,1.2,24,0.75,0,41,41,23,1,,,,,,,,,,,,,,,,,,,,,,,,,,,,,,,,,,,,,,,,
,,,,,V3_039,21,Female,2024-10-28_16h22.18.174,jersey_experiment_5_v3,2023.2.2,Win32,84.74576271,,,,,,,,,,,,,,,,311.4735,312.7706,312.7706,314.786,return,0.1416,,58.46354167,,,,,,FBP-OG-71.png,0.37,1.2,32,0.5,0,42,42,31,1,,,,,,,,,,,,,,,,,,,,,,,,,,,,,,,,,,,,,,,,
,,,,,V3_039,21,Female,2024-10-28_16h22.18.174,jersey_experiment_5_v3,2023.2.2,Win32,84.74576271,,,,,,,,,,,,,,,,314.7861,316.3388,316.3388,317.4265,return,0.1686,,90.234375,,,,,,FBP-YG-18.png,0.45,1.2,10,0.75,0,43,43,9,1,,,,,,,,,,,,,,,,,,,,,,,,,,,,,,,,,,,,,,,,
,,,,,V3_039,21,Female,2024-10-28_16h22.18.174,jersey_experiment_5_v3,2023.2.2,Win32,84.74576271,,,,,,,,,,,,,,,,317.4267,318.9741,318.9742,319.5627,return,0.0004,,90.88541667,,,,,,FBP-PT-91.png,0.45,1.2,30,0.75,0,44,44,29,1,,,,,,,,,,,,,,,,,,,,,,,,,,,,,,,,,,,,,,,,
,,,,,V3_039,21,Female,2024-10-28_16h22.18.174,jersey_experiment_5_v3,2023.2.2,Win32,84.74576271,,,,,,,,,,,,,,,,319.5628,321.1155,321.1156,322.4335,return,0.6745,,49.21875,,,,,,FBP-YG-19.png,0.37,1.2,12,0.75,0,45,45,11,1,,,,,,,,,,,,,,,,,,,,,,,,,,,,,,,,,,,,,,,,
,,,,,V3_039,21,Female,2024-10-28_16h22.18.174,jersey_experiment_5_v3,2023.2.2,Win32,84.74576271,,,,,,,,,,,,,,,,322.4337,323.9864,323.9864,324.9797,return,0.041,,96.09375,,,,,,FBP-YG-19.png,0.45,1.2,15,0.75,0,46,46,14,1,,,,,,,,,,,,,,,,,,,,,,,,,,,,,,,,,,,,,,,,
,,,,,V3_039,21,Female,2024-10-28_16h22.18.174,jersey_experiment_5_v3,2023.2.2,Win32,84.74576271,,,,,,,,,,,,,,,,324.98,326.5281,326.5282,327.5092,return,0.0984,,50.52083333,,,,,,FBP-YG-18.png,0.37,1.2,7,0.75,0,47,47,6,1,,,,,,,,,,,,,,,,,,,,,,,,,,,,,,,,,,,,,,,,
,,,,,V3_039,21,Female,2024-10-28_16h22.18.174,jersey_experiment_5_v3,2023.2.2,Win32,84.74576271,,,,,,,,,,,,,,,,327.5095,329.0694,329.0694,330.2772,return,0.3292,,95.05208333,,,,,,FBP-YG-17.png,0.43,1.2,4,0.75,0,48,48,3,1,,,,,,,,,,,,,,,,,,,,,,,,,,,,,,,,,,,,,,,,
,,,,,V3_039,21,Female,2024-10-28_16h22.18.174,jersey_experiment_5_v3,2023.2.2,Win32,84.74576271,,,,,,,,,,,,,,,,330.2774,331.8218,331.8218,332.7243,return,0.055,,95.44270833,,,,,,FBP-RB-71.png,0.45,1.2,50,0.75,0,49,49,49,1,,,,,,,,,,,,,,,,,,,,,,,,,,,,,,,,,,,,,,,,
,,,,,V3_039,21,Female,2024-10-28_16h22.18.174,jersey_experiment_5_v3,2023.2.2,Win32,84.74576271,,,,,,,,,,,,,,,,332.7245,334.2691,334.2691,335.1482,return,0.1413,,73.17708333,,,,,,FBP-RB-71.png,0.4,1.2,48,0.75,0,50,50,47,1,,,,,,,,,,,,,,,,,,,,,,,,,,,,,,,,,,,,,,,,
,,,,,V3_039,21,Female,2024-10-28_16h22.18.174,jersey_experiment_5_v3,2023.2.2,Win32,84.74576271,,,,,,,,,,,,,,,,335.1484,336.6924,336.6924,337.3364,return,0.0941,,94.53125,,,,,,FBP-YG-19.png,0.43,1.2,14,0.75,0,51,51,13,1,,,,,,,,,,,,,,,,,,,,,,,,,,,,,,,,,,,,,,,,
,,,,,V3_039,21,Female,2024-10-28_16h22.18.174,jersey_experiment_5_v3,2023.2.2,Win32,84.74576271,,,,,,,,,,,,,,,,337.3365,338.8892,338.8893,339.4626,return,0.1292,,94.40104167,,,,,,FBP-RB-81.png,0.43,1.2,54,0.75,0,52,52,53,1,,,,,,,,,,,,,,,,,,,,,,,,,,,,,,,,,,,,,,,,
,,,,,V3_039,21,Female,2024-10-28_16h22.18.174,jersey_experiment_5_v3,2023.2.2,Win32,84.74576271,,,,,,,,,,,,,,,,339.4629,340.7567,340.7567,342.0509,return,0.1093,,74.86979167,,,,,,FBP-OG-71.png,0.4,1.2,33,0.5,0,53,53,32,1,,,,,,,,,,,,,,,,,,,,,,,,,,,,,,,,,,,,,,,,
,,,,,V3_039,21,Female,2024-10-28_16h22.18.174,jersey_experiment_5_v3,2023.2.2,Win32,84.74576271,,,,,,,,,,,,,,,,342.0512,343.3514,343.3514,344.254,return,0.141,,49.73958333,,,,,,FBP-OG-81.png,0.35,1.2,36,0.5,0,54,54,35,1,,,,,,,,,,,,,,,,,,,,,,,,,,,,,,,,,,,,,,,,
,,,,,V3_039,21,Female,2024-10-28_16h22.18.174,jersey_experiment_5_v3,2023.2.2,Win32,84.74576271,,,,,,,,,,,,,,,,344.2542,345.7989,345.799,346.5985,return,0.0622,,92.578125,,,,,,FBP-PT-81.png,0.45,1.2,25,0.75,0,55,55,24,1,,,,,,,,,,,,,,,,,,,,,,,,,,,,,,,,,,,,,,,,
,,,,,V3_039,21,Female,2024-10-28_16h22.18.174,jersey_experiment_5_v3,2023.2.2,Win32,84.74576271,,,,,,,,,,,,,,,,346.5986,348.152,348.1521,349.172,return,0.1499,,76.82291667,,,,,,FBP-YG-19.png,0.4,1.2,13,0.75,0,56,56,12,1,,,,,,,,,,,,,,,,,,,,,,,,,,,,,,,,,,,,,,,,
,,,,,V3_039,21,Female,2024-10-28_16h22.18.174,jersey_experiment_5_v3,2023.2.2,Win32,84.74576271,,,,,,,,,,,,,,,,349.1722,350.7251,350.7252,352.8663,return,1.4826,,90.625,,,,,,FBP-RB-71.png,0.43,1.2,49,0.75,0,57,57,48,1,,,,,,,,,,,,,,,,,,,,,,,,,,,,,,,,,,,,,,,,
,,,,,V3_039,21,Female,2024-10-28_16h22.18.174,jersey_experiment_5_v3,2023.2.2,Win32,84.74576271,,,,,,,,,,,,,,,,352.8665,354.4106,354.4106,355.172,return,0.1027,,75.26041667,,,,,,FBP-YG-18.png,0.43,1.2,9,0.75,0,58,58,8,1,,,,,,,,,,,,,,,,,,,,,,,,,,,,,,,,,,,,,,,,
,,,,,V3_039,21,Female,2024-10-28_16h22.18.174,jersey_experiment_5_v3,2023.2.2,Win32,84.74576271,,,,,,,,,,,,,,,,355.1722,356.7168,356.7169,357.4462,return,0.0709,,50.13020833,,,,,,FBP-RB-91.png,0.37,1.2,57,0.75,0,59,59,56,1,,,,,,,,,,,,,,,,,,,,,,,,,,,,,,,,,,,,,,,,
,,,,,V3_039,21,Female,2024-10-28_16h22.18.174,jersey_experiment_5_v3,2023.2.2,Win32,84.74576271,,,,,,,,,,,,,,,,,,,,,,,,,,,,,,,,,,,,,,,357.4464,477.4503,,,,,,,,,,,,,,,,,,,,,,,,,,,,,,,,,,,,,,
,,,,,V3_039,21,Female,2024-10-28_16h22.18.174,jersey_experiment_5_v3,2023.2.2,Win32,84.74576271,,,,,,,,,,,,,,,,,,,,,,,,,,,,,,,,,,,,,,,,,477.4503,481.3181,return,3.8589,,,,,,,,,,,,,,,,,,,,,,,,,,,,,,,,,,
,,,,,V3_039,21,Female,2024-10-28_16h22.18.174,jersey_experiment_5_v3,2023.2.2,Win32,84.74576271,,,,,,,,,,,,,,,,481.3198,482.6123,482.6123,484.0476,return,0.2204,,50.52083333,,,,,,FBP-YG-71.png,0.4,1.2,3,0.5,,,,,,,,,,,,,0,0,0,2,1,,,,,,,,,,,,,,,,,,,,,,,,,,,,
,,,,,V3_039,21,Female,2024-10-28_16h22.18.174,jersey_experiment_5_v3,2023.2.2,Win32,84.74576271,,,,,,,,,,,,,,,,484.0478,485.592,485.5921,487.1216,return,0.0709,,71.22395833,,,,,,FBP-OG-18.png,0.43,1.2,39,0.75,,,,,,,,,,,,,0,1,1,38,1,,,,,,,,,,,,,,,,,,,,,,,,,,,,
,,,,,V3_039,21,Female,2024-10-28_16h22.18.174,jersey_experiment_5_v3,2023.2.2,Win32,84.74576271,,,,,,,,,,,,,,,,487.1217,488.4157,488.4158,489.0039,return,0.0625,,83.203125,,,,,,FBP-PT-18.png,0.43,1.2,24,0.5,,,,,,,,,,,,,0,2,2,23,1,,,,,,,,,,,,,,,,,,,,,,,,,,,,
,,,,,V3_039,21,Female,2024-10-28_16h22.18.174,jersey_experiment_5_v3,2023.2.2,Win32,84.74576271,,,,,,,,,,,,,,,,489.0041,490.298,490.298,490.7305,return,0.071,,83.203125,,,,,,FBP-PT-19.png,0.4,1.2,28,0.5,,,,,,,,,,,,,0,3,3,27,1,,,,,,,,,,,,,,,,,,,,,,,,,,,,
,,,,,V3_039,21,Female,2024-10-28_16h22.18.174,jersey_experiment_5_v3,2023.2.2,Win32,84.74576271,,,,,,,,,,,,,,,,490.7307,492.0246,492.0247,492.5624,return,0.0191,,87.63020833,,,,,,FBP-YG-81.png,0.45,1.2,10,0.5,,,,,,,,,,,,,0,4,4,9,1,,,,,,,,,,,,,,,,,,,,,,,,,,,,
,,,,,V3_039,21,Female,2024-10-28_16h22.18.174,jersey_experiment_5_v3,2023.2.2,Win32,84.74576271,,,,,,,,,,,,,,,,492.5625,493.8564,493.8565,494.3455,return,0.0389,,87.63020833,,,,,,FBP-YG-91.png,0.43,1.2,14,0.5,,,,,,,,,,,,,0,5,5,13,1,,,,,,,,,,,,,,,,,,,,,,,,,,,,
,,,,,V3_039,21,Female,2024-10-28_16h22.18.174,jersey_experiment_5_v3,2023.2.2,Win32,84.74576271,,,,,,,,,,,,,,,,494.3458,495.8979,495.8979,496.4008,return,0.1263,,87.63020833,,,,,,FBP-OG-17.png,0.43,1.2,34,0.75,,,,,,,,,,,,,0,6,6,33,1,,,,,,,,,,,,,,,,,,,,,,,,,,,,
,,,,,V3_039,21,Female,2024-10-28_16h22.18.174,jersey_experiment_5_v3,2023.2.2,Win32,84.74576271,,,,,,,,,,,,,,,,496.401,497.9537,497.9537,498.7069,return,0.2117,,87.63020833,,,,,,FBP-OG-19.png,0.45,1.2,45,0.75,,,,,,,,,,,,,0,7,7,44,1,,,,,,,,,,,,,,,,,,,,,,,,,,,,
,,,,,V3_039,21,Female,2024-10-28_16h22.18.174,jersey_experiment_5_v3,2023.2.2,Win32,84.74576271,,,,,,,,,,,,,,,,498.7071,500.2514,500.2514,501.5544,return,0.1649,,51.171875,,,,,,FBP-OG-18.png,0.4,1.2,38,0.75,,,,,,,,,,,,,0,8,8,37,1,,,,,,,,,,,,,,,,,,,,,,,,,,,,
,,,,,V3_039,21,Female,2024-10-28_16h22.18.174,jersey_experiment_5_v3,2023.2.2,Win32,84.74576271,,,,,,,,,,,,,,,,501.5546,502.8481,502.8482,503.3575,return,0.0239,,50.78125,,,,,,FBP-YG-81.png,0.37,1.2,7,0.5,,,,,,,,,,,,,0,9,9,6,1,,,,,,,,,,,,,,,,,,,,,,,,,,,,
,,,,,V3_039,21,Female,2024-10-28_16h22.18.174,jersey_experiment_5_v3,2023.2.2,Win32,84.74576271,,,,,,,,,,,,,,,,503.3577,504.6516,504.6516,505.1221,return,0.109,,50.78125,,,,,,FBP-PT-17.png,0.37,1.2,17,0.5,,,,,,,,,,,,,0,10,10,16,1,,,,,,,,,,,,,,,,,,,,,,,,,,,,
,,,,,V3_039,21,Female,2024-10-28_16h22.18.174,jersey_experiment_5_v3,2023.2.2,Win32,84.74576271,,,,,,,,,,,,,,,,505.1223,506.4249,506.4249,507.8283,return,0.2034,,75.52083333,,,,,,FBP-PT-17.png,0.45,1.2,20,0.5,,,,,,,,,,,,,0,11,11,19,1,,,,,,,,,,,,,,,,,,,,,,,,,,,,
,,,,,V3_039,21,Female,2024-10-28_16h22.18.174,jersey_experiment_5_v3,2023.2.2,Win32,84.74576271,,,,,,,,,,,,,,,,507.8284,509.3812,509.3812,510.4403,return,0.0004,,25.13020833,,,,,,FBP-OG-19.png,0.35,1.2,41,0.75,,,,,,,,,,,,,0,12,12,40,1,,,,,,,,,,,,,,,,,,,,,,,,,,,,
,,,,,V3_039,21,Female,2024-10-28_16h22.18.174,jersey_experiment_5_v3,2023.2.2,Win32,84.74576271,,,,,,,,,,,,,,,,510.4403,511.7341,511.7341,512.8488,return,0.0004,,98.30729167,,,,,,FBP-RB-17.png,0.45,1.2,50,0.5,,,,,,,,,,,,,0,13,13,49,1,,,,,,,,,,,,,,,,,,,,,,,,,,,,
,,,,,V3_039,21,Female,2024-10-28_16h22.18.174,jersey_experiment_5_v3,2023.2.2,Win32,84.74576271,,,,,,,,,,,,,,,,512.8489,514.1513,514.1513,515.1939,return,0.0237,,49.609375,,,,,,FBP-PT-18.png,0.37,1.2,22,0.5,,,,,,,,,,,,,0,14,14,21,1,,,,,,,,,,,,,,,,,,,,,,,,,,,,
,,,,,V3_039,21,Female,2024-10-28_16h22.18.174,jersey_experiment_5_v3,2023.2.2,Win32,84.74576271,,,,,,,,,,,,,,,,515.1941,516.4956,516.4957,517.1697,return,0.0707,,43.88020833,,,,,,FBP-RB-18.png,0.35,1.2,51,0.5,,,,,,,,,,,,,0,15,15,50,1,,,,,,,,,,,,,,,,,,,,,,,,,,,,
,,,,,V3_039,21,Female,2024-10-28_16h22.18.174,jersey_experiment_5_v3,2023.2.2,Win32,84.74576271,,,,,,,,,,,,,,,,517.1699,518.464,518.464,519.0759,return,0.0004,,81.51041667,,,,,,FBP-PT-17.png,0.43,1.2,19,0.5,,,,,,,,,,,,,0,16,16,18,1,,,,,,,,,,,,,,,,,,,,,,,,,,,,
,,,,,V3_039,21,Female,2024-10-28_16h22.18.174,jersey_experiment_5_v3,2023.2.2,Win32,84.74576271,,,,,,,,,,,,,,,,519.0759,520.6283,520.6284,520.9817,return,0.1803,,81.51041667,,,,,,FBP-OG-19.png,0.4,1.2,43,0.75,,,,,,,,,,,,,0,17,17,42,1,,,,,,,,,,,,,,,,,,,,,,,,,,,,
,,,,,V3_039,21,Female,2024-10-28_16h22.18.174,jersey_experiment_5_v3,2023.2.2,Win32,84.74576271,,,,,,,,,,,,,,,,520.9819,522.2758,522.2758,523.1465,return,0.0153,,50,,,,,,FBP-YG-71.png,0.35,1.2,1,0.5,,,,,,,,,,,,,0,18,18,0,1,,,,,,,,,,,,,,,,,,,,,,,,,,,,
,,,,,V3_039,21,Female,2024-10-28_16h22.18.174,jersey_experiment_5_v3,2023.2.2,Win32,84.74576271,,,,,,,,,,,,,,,,523.1466,524.6995,524.6995,525.5701,return,0.1331,,76.5625,,,,,,FBP-OG-19.png,0.43,1.2,44,0.75,,,,,,,,,,,,,0,19,19,43,1,,,,,,,,,,,,,,,,,,,,,,,,,,,,
,,,,,V3_039,21,Female,2024-10-28_16h22.18.174,jersey_experiment_5_v3,2023.2.2,Win32,84.74576271,,,,,,,,,,,,,,,,525.5702,527.1229,527.123,527.7666,return,0.0709,,51.04166667,,,,,,FBP-OG-18.png,0.37,1.2,37,0.75,,,,,,,,,,,,,0,20,20,36,1,,,,,,,,,,,,,,,,,,,,,,,,,,,,
,,,,,V3_039,21,Female,2024-10-28_16h22.18.174,jersey_experiment_5_v3,2023.2.2,Win32,84.74576271,,,,,,,,,,,,,,,,527.7668,529.0612,529.0613,529.876,return,0.0389,,89.19270833,,,,,,FBP-RB-17.png,0.43,1.2,49,0.5,,,,,,,,,,,,,0,21,21,48,1,,,,,,,,,,,,,,,,,,,,,,,,,,,,
,,,,,V3_039,21,Female,2024-10-28_16h22.18.174,jersey_experiment_5_v3,2023.2.2,Win32,84.74576271,,,,,,,,,,,,,,,,529.8761,531.17,531.1701,533.7349,return,2.0859,,88.41145833,,,,,,FBP-YG-81.png,0.43,1.2,9,0.5,,,,,,,,,,,,,0,22,22,8,1,,,,,,,,,,,,,,,,,,,,,,,,,,,,
,,,,,V3_039,21,Female,2024-10-28_16h22.18.174,jersey_experiment_5_v3,2023.2.2,Win32,84.74576271,,,,,,,,,,,,,,,,533.7349,535.0291,535.0291,536.073,return,0.0944,,25.65104167,,,,,,FBP-YG-91.png,0.35,1.2,11,0.5,,,,,,,,,,,,,0,23,23,10,1,,,,,,,,,,,,,,,,,,,,,,,,,,,,
,,,,,V3_039,21,Female,2024-10-28_16h22.18.174,jersey_experiment_5_v3,2023.2.2,Win32,84.74576271,,,,,,,,,,,,,,,,536.0732,537.3821,537.3821,538.1199,return,0.0791,,25.52083333,,,,,,FBP-RB-17.png,0.35,1.2,46,0.5,,,,,,,,,,,,,0,24,24,45,1,,,,,,,,,,,,,,,,,,,,,,,,,,,,
,,,,,V3_039,21,Female,2024-10-28_16h22.18.174,jersey_experiment_5_v3,2023.2.2,Win32,84.74576271,,,,,,,,,,,,,,,,538.12,539.4141,539.4142,540.0412,return,0.0472,,25.52083333,,,,,,FBP-PT-17.png,0.35,1.2,16,0.5,,,,,,,,,,,,,0,25,25,15,1,,,,,,,,,,,,,,,,,,,,,,,,,,,,
,,,,,V3_039,21,Female,2024-10-28_16h22.18.174,jersey_experiment_5_v3,2023.2.2,Win32,84.74576271,,,,,,,,,,,,,,,,540.0413,541.3437,541.3438,542.2531,return,0.0154,,49.73958333,,,,,,FBP-RB-18.png,0.4,1.2,53,0.5,,,,,,,,,,,,,0,26,26,52,1,,,,,,,,,,,,,,,,,,,,,,,,,,,,
,,,,,V3_039,21,Female,2024-10-28_16h22.18.174,jersey_experiment_5_v3,2023.2.2,Win32,84.74576271,,,,,,,,,,,,,,,,542.2532,543.5471,543.5471,544.8415,return,0.8623,,49.73958333,,,,,,FBP-PT-19.png,0.37,1.2,27,0.5,,,,,,,,,,,,,0,27,27,26,1,,,,,,,,,,,,,,,,,,,,,,,,,,,,
,,,,,V3_039,21,Female,2024-10-28_16h22.18.174,jersey_experiment_5_v3,2023.2.2,Win32,84.74576271,,,,,,,,,,,,,,,,544.8417,546.1439,546.1439,546.8414,return,0.0388,,66.53645833,,,,,,FBP-YG-81.png,0.4,1.2,8,0.5,,,,,,,,,,,,,0,28,28,7,1,,,,,,,,,,,,,,,,,,,,,,,,,,,,
,,,,,V3_039,21,Female,2024-10-28_16h22.18.174,jersey_experiment_5_v3,2023.2.2,Win32,84.74576271,,,,,,,,,,,,,,,,546.8415,548.1438,548.1439,548.6536,return,0.0005,,70.3125,,,,,,FBP-PT-18.png,0.4,1.2,23,0.5,,,,,,,,,,,,,0,29,29,22,1,,,,,,,,,,,,,,,,,,,,,,,,,,,,
,,,,,V3_039,21,Female,2024-10-28_16h22.18.174,jersey_experiment_5_v3,2023.2.2,Win32,84.74576271,,,,,,,,,,,,,,,,548.6537,549.9558,549.9558,551.0586,return,0.7248,,64.71354167,,,,,,FBP-YG-81.png,0.35,1.2,6,0.5,,,,,,,,,,,,,0,30,30,5,1,,,,,,,,,,,,,,,,,,,,,,,,,,,,
,,,,,V3_039,21,Female,2024-10-28_16h22.18.174,jersey_experiment_5_v3,2023.2.2,Win32,84.74576271,,,,,,,,,,,,,,,,551.0588,552.3558,552.3558,552.8653,return,0.1333,,64.71354167,,,,,,FBP-RB-18.png,0.37,1.2,52,0.5,,,,,,,,,,,,,0,31,31,51,1,,,,,,,,,,,,,,,,,,,,,,,,,,,,
,,,,,V3_039,21,Female,2024-10-28_16h22.18.174,jersey_experiment_5_v3,2023.2.2,Win32,84.74576271,,,,,,,,,,,,,,,,552.8655,554.1646,554.1647,555.3529,return,0.096,,77.60416667,,,,,,FBP-PT-18.png,0.45,1.2,25,0.5,,,,,,,,,,,,,0,32,32,24,1,,,,,,,,,,,,,,,,,,,,,,,,,,,,
,,,,,V3_039,21,Female,2024-10-28_16h22.18.174,jersey_experiment_5_v3,2023.2.2,Win32,84.74576271,,,,,,,,,,,,,,,,555.3531,556.6533,556.6534,557.1948,return,0.039,,80.20833333,,,,,,FBP-RB-18.png,0.43,1.2,54,0.5,,,,,,,,,,,,,0,33,33,53,1,,,,,,,,,,,,,,,,,,,,,,,,,,,,
,,,,,V3_039,21,Female,2024-10-28_16h22.18.174,jersey_experiment_5_v3,2023.2.2,Win32,84.74576271,,,,,,,,,,,,,,,,557.1949,558.741,558.7411,559.077,return,0.1407,,82.03125,,,,,,FBP-OG-17.png,0.4,1.2,33,0.75,,,,,,,,,,,,,0,34,34,32,1,,,,,,,,,,,,,,,,,,,,,,,,,,,,
,,,,,V3_039,21,Female,2024-10-28_16h22.18.174,jersey_experiment_5_v3,2023.2.2,Win32,84.74576271,,,,,,,,,,,,,,,,559.0771,560.6306,560.6306,561.18,return,0.0939,,69.40104167,,,,,,FBP-OG-17.png,0.37,1.2,32,0.75,,,,,,,,,,,,,0,35,35,31,1,,,,,,,,,,,,,,,,,,,,,,,,,,,,
,,,,,V3_039,21,Female,2024-10-28_16h22.18.174,jersey_experiment_5_v3,2023.2.2,Win32,84.74576271,,,,,,,,,,,,,,,,561.1803,562.4741,562.4741,563.306,return,0.165,,91.27604167,,,,,,FBP-YG-91.png,0.45,1.2,15,0.5,,,,,,,,,,,,,0,36,36,14,1,,,,,,,,,,,,,,,,,,,,,,,,,,,,
,,,,,V3_039,21,Female,2024-10-28_16h22.18.174,jersey_experiment_5_v3,2023.2.2,Win32,84.74576271,,,,,,,,,,,,,,,,563.3063,564.8502,564.8502,565.5951,return,0.1329,,75,,,,,,FBP-OG-19.png,0.37,1.2,42,0.75,,,,,,,,,,,,,0,37,37,41,1,,,,,,,,,,,,,,,,,,,,,,,,,,,,
,,,,,V3_039,21,Female,2024-10-28_16h22.18.174,jersey_experiment_5_v3,2023.2.2,Win32,84.74576271,,,,,,,,,,,,,,,,565.5952,566.8893,566.8893,568.5129,return,0.8155,,49.34895833,,,,,,FBP-PT-19.png,0.35,1.2,26,0.5,,,,,,,,,,,,,0,38,38,25,1,,,,,,,,,,,,,,,,,,,,,,,,,,,,
,,,,,V3_039,21,Female,2024-10-28_16h22.18.174,jersey_experiment_5_v3,2023.2.2,Win32,84.74576271,,,,,,,,,,,,,,,,568.513,570.0658,570.0658,570.7533,return,0.0992,,35.546875,,,,,,FBP-OG-18.png,0.35,1.2,36,0.75,,,,,,,,,,,,,0,39,39,35,1,,,,,,,,,,,,,,,,,,,,,,,,,,,,
,,,,,V3_039,21,Female,2024-10-28_16h22.18.174,jersey_experiment_5_v3,2023.2.2,Win32,84.74576271,,,,,,,,,,,,,,,,570.7535,572.3012,572.3012,573.0154,return,0.1175,,89.453125,,,,,,FBP-OG-17.png,0.45,1.2,35,0.75,,,,,,,,,,,,,0,40,40,34,1,,,,,,,,,,,,,,,,,,,,,,,,,,,,
,,,,,V3_039,21,Female,2024-10-28_16h22.18.174,jersey_experiment_5_v3,2023.2.2,Win32,84.74576271,,,,,,,,,,,,,,,,573.0155,574.3182,574.3182,575.0777,return,0.2589,,85.80729167,,,,,,FBP-YG-91.png,0.4,1.2,13,0.5,,,,,,,,,,,,,0,41,41,12,1,,,,,,,,,,,,,,,,,,,,,,,,,,,,
,,,,,V3_039,21,Female,2024-10-28_16h22.18.174,jersey_experiment_5_v3,2023.2.2,Win32,84.74576271,,,,,,,,,,,,,,,,575.0779,576.3717,576.3717,576.8746,return,0.0323,,92.70833333,,,,,,FBP-RB-18.png,0.45,1.2,55,0.5,,,,,,,,,,,,,0,42,42,54,1,,,,,,,,,,,,,,,,,,,,,,,,,,,,
,,,,,V3_039,21,Female,2024-10-28_16h22.18.174,jersey_experiment_5_v3,2023.2.2,Win32,84.74576271,,,,,,,,,,,,,,,,576.8747,578.1838,578.1838,579.1486,return,0.0155,,75.390625,,,,,,FBP-PT-17.png,0.4,1.2,18,0.5,,,,,,,,,,,,,0,43,43,17,1,,,,,,,,,,,,,,,,,,,,,,,,,,,,
,,,,,V3_039,21,Female,2024-10-28_16h22.18.174,jersey_experiment_5_v3,2023.2.2,Win32,84.74576271,,,,,,,,,,,,,,,,579.1487,580.4509,580.4509,581.463,return,0.0475,,34.63541667,,,,,,FBP-RB-19.png,0.35,1.2,56,0.5,,,,,,,,,,,,,0,44,44,55,1,,,,,,,,,,,,,,,,,,,,,,,,,,,,
,,,,,V3_039,21,Female,2024-10-28_16h22.18.174,jersey_experiment_5_v3,2023.2.2,Win32,84.74576271,,,,,,,,,,,,,,,,581.4632,582.7568,582.7568,583.6193,return,0.0387,,91.015625,,,,,,FBP-YG-71.png,0.43,1.2,4,0.5,,,,,,,,,,,,,0,45,45,3,1,,,,,,,,,,,,,,,,,,,,,,,,,,,,
,,,,,V3_039,21,Female,2024-10-28_16h22.18.174,jersey_experiment_5_v3,2023.2.2,Win32,84.74576271,,,,,,,,,,,,,,,,583.6194,584.9132,584.9133,586.09,return,0.0389,,25.13020833,,,,,,FBP-PT-18.png,0.35,1.2,21,0.5,,,,,,,,,,,,,0,46,46,20,1,,,,,,,,,,,,,,,,,,,,,,,,,,,,
,,,,,V3_039,21,Female,2024-10-28_16h22.18.174,jersey_experiment_5_v3,2023.2.2,Win32,84.74576271,,,,,,,,,,,,,,,,586.0901,587.3925,587.3925,588.3017,return,0.0858,,84.50520833,,,,,,FBP-RB-19.png,0.37,1.2,57,0.5,,,,,,,,,,,,,0,47,47,56,1,,,,,,,,,,,,,,,,,,,,,,,,,,,,
,,,,,V3_039,21,Female,2024-10-28_16h22.18.174,jersey_experiment_5_v3,2023.2.2,Win32,84.74576271,,,,,,,,,,,,,,,,588.3019,589.8548,589.8548,590.8667,return,0.0857,,92.70833333,,,,,,FBP-OG-18.png,0.45,1.2,40,0.75,,,,,,,,,,,,,0,48,48,39,1,,,,,,,,,,,,,,,,,,,,,,,,,,,,
,,,,,V3_039,21,Female,2024-10-28_16h22.18.174,jersey_experiment_5_v3,2023.2.2,Win32,84.74576271,,,,,,,,,,,,,,,,590.8667,592.4195,592.4195,594.8669,return,0.9095,,50,,,,,,FBP-OG-17.png,0.35,1.2,31,0.75,,,,,,,,,,,,,0,49,49,30,1,,,,,,,,,,,,,,,,,,,,,,,,,,,,
,,,,,V3_039,21,Female,2024-10-28_16h22.18.174,jersey_experiment_5_v3,2023.2.2,Win32,84.74576271,,,,,,,,,,,,,,,,594.8671,596.1608,596.1609,596.9222,return,0.032,,94.79166667,,,,,,FBP-RB-19.png,0.45,1.2,60,0.5,,,,,,,,,,,,,0,50,50,59,1,,,,,,,,,,,,,,,,,,,,,,,,,,,,
,,,,,V3_039,21,Female,2024-10-28_16h22.18.174,jersey_experiment_5_v3,2023.2.2,Win32,84.74576271,,,,,,,,,,,,,,,,596.9223,598.2316,598.2317,598.9696,return,0.0323,,75.52083333,,,,,,FBP-YG-91.png,0.37,1.2,12,0.5,,,,,,,,,,,,,0,51,51,11,1,,,,,,,,,,,,,,,,,,,,,,,,,,,,
,,,,,V3_039,21,Female,2024-10-28_16h22.18.174,jersey_experiment_5_v3,2023.2.2,Win32,84.74576271,,,,,,,,,,,,,,,,598.9698,600.2635,600.2635,600.9377,return,0.0154,,95.703125,,,,,,FBP-RB-19.png,0.43,1.2,59,0.5,,,,,,,,,,,,,0,52,52,58,1,,,,,,,,,,,,,,,,,,,,,,,,,,,,
,,,,,V3_039,21,Female,2024-10-28_16h22.18.174,jersey_experiment_5_v3,2023.2.2,Win32,84.74576271,,,,,,,,,,,,,,,,600.9378,602.2399,602.2399,602.9931,return,0.0709,,97.00520833,,,,,,FBP-PT-19.png,0.45,1.2,30,0.5,,,,,,,,,,,,,0,53,53,29,1,,,,,,,,,,,,,,,,,,,,,,,,,,,,
,,,,,V3_039,21,Female,2024-10-28_16h22.18.174,jersey_experiment_5_v3,2023.2.2,Win32,84.74576271,,,,,,,,,,,,,,,,602.9932,604.2871,604.2872,604.837,return,0.075,,96.74479167,,,,,,FBP-RB-19.png,0.4,1.2,58,0.5,,,,,,,,,,,,,0,54,54,57,1,,,,,,,,,,,,,,,,,,,,,,,,,,,,
,,,,,V3_039,21,Female,2024-10-28_16h22.18.174,jersey_experiment_5_v3,2023.2.2,Win32,84.74576271,,,,,,,,,,,,,,,,604.8372,606.1377,606.1377,606.7579,return,0.0238,,75.52083333,,,,,,FBP-RB-17.png,0.37,1.2,47,0.5,,,,,,,,,,,,,0,55,55,46,1,,,,,,,,,,,,,,,,,,,,,,,,,,,,
,,,,,V3_039,21,Female,2024-10-28_16h22.18.174,jersey_experiment_5_v3,2023.2.2,Win32,84.74576271,,,,,,,,,,,,,,,,606.758,608.0521,608.0521,609.926,return,1.2471,,91.66666667,,,,,,FBP-RB-17.png,0.4,1.2,48,0.5,,,,,,,,,,,,,0,56,56,47,1,,,,,,,,,,,,,,,,,,,,,,,,,,,,
,,,,,V3_039,21,Female,2024-10-28_16h22.18.174,jersey_experiment_5_v3,2023.2.2,Win32,84.74576271,,,,,,,,,,,,,,,,609.9261,611.2201,611.2201,612.0674,return,0.0238,,74.73958333,,,,,,FBP-YG-71.png,0.37,1.2,2,0.5,,,,,,,,,,,,,0,57,57,1,1,,,,,,,,,,,,,,,,,,,,,,,,,,,,
,,,,,V3_039,21,Female,2024-10-28_16h22.18.174,jersey_experiment_5_v3,2023.2.2,Win32,84.74576271,,,,,,,,,,,,,,,,612.0675,613.37,613.37,614.2169,return,0.1885,,95.57291667,,,,,,FBP-PT-19.png,0.43,1.2,29,0.5,,,,,,,,,,,,,0,58,58,28,1,,,,,,,,,,,,,,,,,,,,,,,,,,,,
,,,,,V3_039,21,Female,2024-10-28_16h22.18.174,jersey_experiment_5_v3,2023.2.2,Win32,84.74576271,,,,,,,,,,,,,,,,614.217,615.526,615.5261,616.0527,return,0.0238,,96.22395833,,,,,,FBP-YG-71.png,0.45,1.2,5,0.5,,,,,,,,,,,,,0,59,59,4,1,,,,,,,,,,,,,,,,,,,,,,,,,,,,
,,,,,V3_039,21,Female,2024-10-28_16h22.18.174,jersey_experiment_5_v3,2023.2.2,Win32,84.74576271,,,,,,,,,,,,,,,,616.0539,617.3467,617.3468,618.7265,return,0.1412,,51.171875,,,,,,FBP-YG-18.png,0.35,1.2,6,0.5,,,,,,,,,,,,,,,,,,0,0,0,5,1,,,,,,,,,,,,,,,,,,,,,,,
,,,,,V3_039,21,Female,2024-10-28_16h22.18.174,jersey_experiment_5_v3,2023.2.2,Win32,84.74576271,,,,,,,,,,,,,,,,618.7266,620.2799,620.2799,621.1117,return,0.0242,,36.58854167,,,,,,FBP-OG-71.png,0.35,1.2,31,0.75,,,,,,,,,,,,,,,,,,0,1,1,30,1,,,,,,,,,,,,,,,,,,,,,,,
,,,,,V3_039,21,Female,2024-10-28_16h22.18.174,jersey_experiment_5_v3,2023.2.2,Win32,84.74576271,,,,,,,,,,,,,,,,621.1119,622.4054,622.4054,623.7149,return,0.0623,,85.546875,,,,,,FBP-PT-81.png,0.43,1.2,24,0.5,,,,,,,,,,,,,,,,,,0,2,2,23,1,,,,,,,,,,,,,,,,,,,,,,,
,,,,,V3_039,21,Female,2024-10-28_16h22.18.174,jersey_experiment_5_v3,2023.2.2,Win32,84.74576271,,,,,,,,,,,,,,,,623.7151,625.0088,625.0088,627.073,return,0.0788,,50.78125,,,,,,FBP-YG-19.png,0.37,1.2,12,0.5,,,,,,,,,,,,,,,,,,0,3,3,11,1,,,,,,,,,,,,,,,,,,,,,,,
,,,,,V3_039,21,Female,2024-10-28_16h22.18.174,jersey_experiment_5_v3,2023.2.2,Win32,84.74576271,,,,,,,,,,,,,,,,627.0732,628.3737,628.3738,629.3619,return,0.2823,,50,,,,,,FBP-YG-17.png,0.35,1.2,1,0.5,,,,,,,,,,,,,,,,,,0,4,4,0,1,,,,,,,,,,,,,,,,,,,,,,,
,,,,,V3_039,21,Female,2024-10-28_16h22.18.174,jersey_experiment_5_v3,2023.2.2,Win32,84.74576271,,,,,,,,,,,,,,,,629.3621,630.9086,630.9086,631.3942,return,0.0323,,50,,,,,,FBP-OG-91.png,0.35,1.2,41,0.75,,,,,,,,,,,,,,,,,,0,5,5,40,1,,,,,,,,,,,,,,,,,,,,,,,
,,,,,V3_039,21,Female,2024-10-28_16h22.18.174,jersey_experiment_5_v3,2023.2.2,Win32,84.74576271,,,,,,,,,,,,,,,,631.3943,632.9383,632.9383,633.8648,return,0.0316,,74.08854167,,,,,,FBP-OG-91.png,0.4,1.2,43,0.75,,,,,,,,,,,,,,,,,,0,6,6,42,1,,,,,,,,,,,,,,,,,,,,,,,
,,,,,V3_039,21,Female,2024-10-28_16h22.18.174,jersey_experiment_5_v3,2023.2.2,Win32,84.74576271,,,,,,,,,,,,,,,,633.8649,635.1738,635.1738,636.05,return,0.0191,,71.484375,,,,,,FBP-RB-71.png,0.37,1.2,47,0.5,,,,,,,,,,,,,,,,,,0,7,7,46,1,,,,,,,,,,,,,,,,,,,,,,,
,,,,,V3_039,21,Female,2024-10-28_16h22.18.174,jersey_experiment_5_v3,2023.2.2,Win32,84.74576271,,,,,,,,,,,,,,,,636.0502,637.3472,637.3472,638.4853,return,0.6633,,71.74479167,,,,,,FBP-YG-17.png,0.37,1.2,2,0.5,,,,,,,,,,,,,,,,,,0,8,8,1,1,,,,,,,,,,,,,,,,,,,,,,,
,,,,,V3_039,21,Female,2024-10-28_16h22.18.174,jersey_experiment_5_v3,2023.2.2,Win32,84.74576271,,,,,,,,,,,,,,,,638.4855,640.0447,640.0447,640.7507,return,0.2826,,71.74479167,,,,,,FBP-OG-81.png,0.37,1.2,37,0.75,,,,,,,,,,,,,,,,,,0,9,9,36,1,,,,,,,,,,,,,,,,,,,,,,,
,,,,,V3_039,21,Female,2024-10-28_16h22.18.174,jersey_experiment_5_v3,2023.2.2,Win32,84.74576271,,,,,,,,,,,,,,,,640.7509,642.0447,642.0447,643.3946,return,0.1647,,71.74479167,,,,,,FBP-RB-71.png,0.35,1.2,46,0.5,,,,,,,,,,,,,,,,,,0,10,10,45,1,,,,,,,,,,,,,,,,,,,,,,,
,,,,,V3_039,21,Female,2024-10-28_16h22.18.174,jersey_experiment_5_v3,2023.2.2,Win32,84.74576271,,,,,,,,,,,,,,,,643.3948,644.9475,644.9475,645.6772,return,0.1416,,71.61458333,,,,,,FBP-OG-91.png,0.37,1.2,42,0.75,,,,,,,,,,,,,,,,,,0,11,11,41,1,,,,,,,,,,,,,,,,,,,,,,,
,,,,,V3_039,21,Female,2024-10-28_16h22.18.174,jersey_experiment_5_v3,2023.2.2,Win32,84.74576271,,,,,,,,,,,,,,,,645.6772,646.9711,646.9711,647.7865,return,0.0944,,83.33333333,,,,,,FBP-PT-71.png,0.43,1.2,19,0.5,,,,,,,,,,,,,,,,,,0,12,12,18,1,,,,,,,,,,,,,,,,,,,,,,,
,,,,,V3_039,21,Female,2024-10-28_16h22.18.174,jersey_experiment_5_v3,2023.2.2,Win32,84.74576271,,,,,,,,,,,,,,,,647.7867,649.3327,649.3328,651.0421,return,0.0004,,77.60416667,,,,,,FBP-OG-81.png,0.4,1.2,38,0.75,,,,,,,,,,,,,,,,,,0,13,13,37,1,,,,,,,,,,,,,,,,,,,,,,,
,,,,,V3_039,21,Female,2024-10-28_16h22.18.174,jersey_experiment_5_v3,2023.2.2,Win32,84.74576271,,,,,,,,,,,,,,,,651.0422,652.3446,652.3447,652.901,return,0.0796,,77.60416667,,,,,,FBP-PT-81.png,0.4,1.2,23,0.5,,,,,,,,,,,,,,,,,,0,14,14,22,1,,,,,,,,,,,,,,,,,,,,,,,
,,,,,V3_039,21,Female,2024-10-28_16h22.18.174,jersey_experiment_5_v3,2023.2.2,Win32,84.74576271,,,,,,,,,,,,,,,,652.9012,654.4541,654.4541,655.0573,return,0.0393,,92.44791667,,,,,,FBP-OG-81.png,0.43,1.2,39,0.75,,,,,,,,,,,,,,,,,,0,15,15,38,1,,,,,,,,,,,,,,,,,,,,,,,
,,,,,V3_039,21,Female,2024-10-28_16h22.18.174,jersey_experiment_5_v3,2023.2.2,Win32,84.74576271,,,,,,,,,,,,,,,,655.0574,656.351,656.3511,657.066,return,0.1417,,96.35416667,,,,,,FBP-YG-19.png,0.45,1.2,15,0.5,,,,,,,,,,,,,,,,,,0,16,16,14,1,,,,,,,,,,,,,,,,,,,,,,,
,,,,,V3_039,21,Female,2024-10-28_16h22.18.174,jersey_experiment_5_v3,2023.2.2,Win32,84.74576271,,,,,,,,,,,,,,,,657.0661,658.3597,658.3598,659.3633,return,0.0625,,74.86979167,,,,,,FBP-PT-71.png,0.35,1.2,16,0.5,,,,,,,,,,,,,,,,,,0,17,17,15,1,,,,,,,,,,,,,,,,,,,,,,,
,,,,,V3_039,21,Female,2024-10-28_16h22.18.174,jersey_experiment_5_v3,2023.2.2,Win32,84.74576271,,,,,,,,,,,,,,,,659.3633,660.6556,660.6556,661.1986,return,0.0241,,79.6875,,,,,,FBP-YG-18.png,0.4,1.2,8,0.5,,,,,,,,,,,,,,,,,,0,18,18,7,1,,,,,,,,,,,,,,,,,,,,,,,
,,,,,V3_039,21,Female,2024-10-28_16h22.18.174,jersey_experiment_5_v3,2023.2.2,Win32,84.74576271,,,,,,,,,,,,,,,,661.1987,662.745,662.7451,663.3632,return,0.0618,,70.05208333,,,,,,FBP-OG-81.png,0.35,1.2,36,0.75,,,,,,,,,,,,,,,,,,0,19,19,35,1,,,,,,,,,,,,,,,,,,,,,,,
,,,,,V3_039,21,Female,2024-10-28_16h22.18.174,jersey_experiment_5_v3,2023.2.2,Win32,84.74576271,,,,,,,,,,,,,,,,663.3634,664.9167,664.9167,665.8191,return,0.3381,,95.3125,,,,,,FBP-OG-71.png,0.45,1.2,35,0.75,,,,,,,,,,,,,,,,,,0,20,20,34,1,,,,,,,,,,,,,,,,,,,,,,,
,,,,,V3_039,21,Female,2024-10-28_16h22.18.174,jersey_experiment_5_v3,2023.2.2,Win32,84.74576271,,,,,,,,,,,,,,,,665.8193,667.3634,667.3634,667.8891,return,0.1878,,95.703125,,,,,,FBP-OG-91.png,0.45,1.2,45,0.75,,,,,,,,,,,,,,,,,,0,21,21,44,1,,,,,,,,,,,,,,,,,,,,,,,
,,,,,V3_039,21,Female,2024-10-28_16h22.18.174,jersey_experiment_5_v3,2023.2.2,Win32,84.74576271,,,,,,,,,,,,,,,,667.8892,669.1805,669.1806,671.1988,return,0.0857,,76.69270833,,,,,,FBP-PT-71.png,0.4,1.2,18,0.5,,,,,,,,,,,,,,,,,,0,22,22,17,1,,,,,,,,,,,,,,,,,,,,,,,
,,,,,V3_039,21,Female,2024-10-28_16h22.18.174,jersey_experiment_5_v3,2023.2.2,Win32,84.74576271,,,,,,,,,,,,,,,,671.199,672.4928,672.4929,674.3218,return,0.1572,,49.609375,,,,,,FBP-PT-91.png,0.37,1.2,27,0.5,,,,,,,,,,,,,,,,,,0,23,23,26,1,,,,,,,,,,,,,,,,,,,,,,,
,,,,,V3_039,21,Female,2024-10-28_16h22.18.174,jersey_experiment_5_v3,2023.2.2,Win32,84.74576271,,,,,,,,,,,,,,,,674.3221,675.616,675.616,676.5454,return,0.0047,,49.47916667,,,,,,FBP-RB-81.png,0.37,1.2,52,0.5,,,,,,,,,,,,,,,,,,0,24,24,51,1,,,,,,,,,,,,,,,,,,,,,,,
,,,,,V3_039,21,Female,2024-10-28_16h22.18.174,jersey_experiment_5_v3,2023.2.2,Win32,84.74576271,,,,,,,,,,,,,,,,676.5456,677.8426,677.8427,678.7573,return,0.1664,,58.85416667,,,,,,FBP-YG-19.png,0.4,1.2,13,0.5,,,,,,,,,,,,,,,,,,0,25,25,12,1,,,,,,,,,,,,,,,,,,,,,,,
,,,,,V3_039,21,Female,2024-10-28_16h22.18.174,jersey_experiment_5_v3,2023.2.2,Win32,84.74576271,,,,,,,,,,,,,,,,678.7575,680.0546,680.0546,680.6429,return,0.0085,,74.21875,,,,,,FBP-YG-19.png,0.43,1.2,14,0.5,,,,,,,,,,,,,,,,,,0,26,26,13,1,,,,,,,,,,,,,,,,,,,,,,,
,,,,,V3_039,21,Female,2024-10-28_16h22.18.174,jersey_experiment_5_v3,2023.2.2,Win32,84.74576271,,,,,,,,,,,,,,,,680.6431,681.9374,681.9374,682.2816,return,0.015,,74.609375,,,,,,FBP-YG-18.png,0.43,1.2,9,0.5,,,,,,,,,,,,,,,,,,0,27,27,8,1,,,,,,,,,,,,,,,,,,,,,,,
,,,,,V3_039,21,Female,2024-10-28_16h22.18.174,jersey_experiment_5_v3,2023.2.2,Win32,84.74576271,,,,,,,,,,,,,,,,682.2818,683.5843,683.5844,685.1053,return,1.1683,,74.609375,,,,,,FBP-RB-91.png,0.4,1.2,58,0.5,,,,,,,,,,,,,,,,,,0,28,28,57,1,,,,,,,,,,,,,,,,,,,,,,,
,,,,,V3_039,21,Female,2024-10-28_16h22.18.174,jersey_experiment_5_v3,2023.2.2,Win32,84.74576271,,,,,,,,,,,,,,,,685.1054,686.6584,686.6584,687.3172,return,0.0149,,86.58854167,,,,,,FBP-OG-81.png,0.45,1.2,40,0.75,,,,,,,,,,,,,,,,,,0,29,29,39,1,,,,,,,,,,,,,,,,,,,,,,,
,,,,,V3_039,21,Female,2024-10-28_16h22.18.174,jersey_experiment_5_v3,2023.2.2,Win32,84.74576271,,,,,,,,,,,,,,,,687.3174,688.6197,688.6198,689.349,return,0.2437,,94.921875,,,,,,FBP-RB-71.png,0.45,1.2,50,0.5,,,,,,,,,,,,,,,,,,0,30,30,49,1,,,,,,,,,,,,,,,,,,,,,,,
,,,,,V3_039,21,Female,2024-10-28_16h22.18.174,jersey_experiment_5_v3,2023.2.2,Win32,84.74576271,,,,,,,,,,,,,,,,689.3491,690.8939,690.8939,691.6554,return,0.1501,,76.953125,,,,,,FBP-OG-71.png,0.4,1.2,33,0.75,,,,,,,,,,,,,,,,,,0,31,31,32,1,,,,,,,,,,,,,,,,,,,,,,,
,,,,,V3_039,21,Female,2024-10-28_16h22.18.174,jersey_experiment_5_v3,2023.2.2,Win32,84.74576271,,,,,,,,,,,,,,,,691.6555,692.9496,692.9496,693.8116,return,0.3293,,76.82291667,,,,,,FBP-RB-71.png,0.4,1.2,48,0.5,,,,,,,,,,,,,,,,,,0,32,32,47,1,,,,,,,,,,,,,,,,,,,,,,,
,,,,,V3_039,21,Female,2024-10-28_16h22.18.174,jersey_experiment_5_v3,2023.2.2,Win32,84.74576271,,,,,,,,,,,,,,,,693.8117,695.106,695.106,696.3145,return,0.0561,,50,,,,,,FBP-PT-81.png,0.37,1.2,22,0.5,,,,,,,,,,,,,,,,,,0,33,33,21,1,,,,,,,,,,,,,,,,,,,,,,,
,,,,,V3_039,21,Female,2024-10-28_16h22.18.174,jersey_experiment_5_v3,2023.2.2,Win32,84.74576271,,,,,,,,,,,,,,,,696.3147,697.6083,697.6084,699.2232,return,1.2387,,50,,,,,,FBP-RB-81.png,0.35,1.2,51,0.5,,,,,,,,,,,,,,,,,,0,34,34,50,1,,,,,,,,,,,,,,,,,,,,,,,
,,,,,V3_039,21,Female,2024-10-28_16h22.18.174,jersey_experiment_5_v3,2023.2.2,Win32,84.74576271,,,,,,,,,,,,,,,,699.2233,700.5183,700.5183,701.3968,return,0.024,,94.53125,,,,,,FBP-RB-71.png,0.43,1.2,49,0.5,,,,,,,,,,,,,,,,,,0,35,35,48,1,,,,,,,,,,,,,,,,,,,,,,,
,,,,,V3_039,21,Female,2024-10-28_16h22.18.174,jersey_experiment_5_v3,2023.2.2,Win32,84.74576271,,,,,,,,,,,,,,,,701.397,702.706,702.706,704.7765,return,1.4119,,95.3125,,,,,,FBP-RB-91.png,0.45,1.2,60,0.5,,,,,,,,,,,,,,,,,,0,36,36,59,1,,,,,,,,,,,,,,,,,,,,,,,
,,,,,V3_039,21,Female,2024-10-28_16h22.18.174,jersey_experiment_5_v3,2023.2.2,Win32,84.74576271,,,,,,,,,,,,,,,,704.7766,706.3297,706.3297,707.0354,return,0.0622,,79.42708333,,,,,,FBP-OG-71.png,0.43,1.2,34,0.75,,,,,,,,,,,,,,,,,,0,37,37,33,1,,,,,,,,,,,,,,,,,,,,,,,
,,,,,V3_039,21,Female,2024-10-28_16h22.18.174,jersey_experiment_5_v3,2023.2.2,Win32,84.74576271,,,,,,,,,,,,,,,,707.0356,708.3291,708.3291,708.9183,return,0.1881,,79.16666667,,,,,,FBP-PT-91.png,0.43,1.2,29,0.5,,,,,,,,,,,,,,,,,,0,38,38,28,1,,,,,,,,,,,,,,,,,,,,,,,
,,,,,V3_039,21,Female,2024-10-28_16h22.18.174,jersey_experiment_5_v3,2023.2.2,Win32,84.74576271,,,,,,,,,,,,,,,,708.9185,710.2118,710.2118,710.9415,return,0.1414,,79.81770833,,,,,,FBP-RB-81.png,0.45,1.2,55,0.5,,,,,,,,,,,,,,,,,,0,39,39,54,1,,,,,,,,,,,,,,,,,,,,,,,
,,,,,V3_039,21,Female,2024-10-28_16h22.18.174,jersey_experiment_5_v3,2023.2.2,Win32,84.74576271,,,,,,,,,,,,,,,,710.9416,712.244,712.244,713.8762,return,0.0137,,62.890625,,,,,,FBP-YG-19.png,0.35,1.2,11,0.5,,,,,,,,,,,,,,,,,,0,40,40,10,1,,,,,,,,,,,,,,,,,,,,,,,
,,,,,V3_039,21,Female,2024-10-28_16h22.18.174,jersey_experiment_5_v3,2023.2.2,Win32,84.74576271,,,,,,,,,,,,,,,,713.8765,715.1769,715.177,715.8911,return,0.032,,84.63541667,,,,,,FBP-PT-81.png,0.45,1.2,25,0.5,,,,,,,,,,,,,,,,,,0,41,41,24,1,,,,,,,,,,,,,,,,,,,,,,,
,,,,,V3_039,21,Female,2024-10-28_16h22.18.174,jersey_experiment_5_v3,2023.2.2,Win32,84.74576271,,,,,,,,,,,,,,,,715.8912,717.1855,717.1855,718.1824,return,0.5294,,84.765625,,,,,,FBP-YG-17.png,0.45,1.2,5,0.5,,,,,,,,,,,,,,,,,,0,42,42,4,1,,,,,,,,,,,,,,,,,,,,,,,
,,,,,V3_039,21,Female,2024-10-28_16h22.18.174,jersey_experiment_5_v3,2023.2.2,Win32,84.74576271,,,,,,,,,,,,,,,,718.1826,719.7269,719.7269,720.3156,return,0.0004,,84.89583333,,,,,,FBP-OG-91.png,0.43,1.2,44,0.75,,,,,,,,,,,,,,,,,,0,43,43,43,1,,,,,,,,,,,,,,,,,,,,,,,
,,,,,V3_039,21,Female,2024-10-28_16h22.18.174,jersey_experiment_5_v3,2023.2.2,Win32,84.74576271,,,,,,,,,,,,,,,,720.3159,721.6096,721.6096,722.2597,return,0.0004,,60.67708333,,,,,,FBP-RB-91.png,0.35,1.2,56,0.5,,,,,,,,,,,,,,,,,,0,44,44,55,1,,,,,,,,,,,,,,,,,,,,,,,
,,,,,V3_039,21,Female,2024-10-28_16h22.18.174,jersey_experiment_5_v3,2023.2.2,Win32,84.74576271,,,,,,,,,,,,,,,,722.2599,723.5539,723.5539,724.3541,return,0.0711,,86.19791667,,,,,,FBP-RB-81.png,0.43,1.2,54,0.5,,,,,,,,,,,,,,,,,,0,45,45,53,1,,,,,,,,,,,,,,,,,,,,,,,
,,,,,V3_039,21,Female,2024-10-28_16h22.18.174,jersey_experiment_5_v3,2023.2.2,Win32,84.74576271,,,,,,,,,,,,,,,,724.3543,725.6479,725.648,726.4484,return,0.0235,,49.34895833,,,,,,FBP-PT-81.png,0.35,1.2,21,0.5,,,,,,,,,,,,,,,,,,0,46,46,20,1,,,,,,,,,,,,,,,,,,,,,,,
,,,,,V3_039,21,Female,2024-10-28_16h22.18.174,jersey_experiment_5_v3,2023.2.2,Win32,84.74576271,,,,,,,,,,,,,,,,726.4485,727.7423,727.7423,728.5036,return,0.0237,,74.47916667,,,,,,FBP-RB-91.png,0.43,1.2,59,0.5,,,,,,,,,,,,,,,,,,0,47,47,58,1,,,,,,,,,,,,,,,,,,,,,,,
,,,,,V3_039,21,Female,2024-10-28_16h22.18.174,jersey_experiment_5_v3,2023.2.2,Win32,84.74576271,,,,,,,,,,,,,,,,728.5037,729.8128,729.8128,731.8924,return,1.3888,,50.26041667,,,,,,FBP-PT-71.png,0.37,1.2,17,0.5,,,,,,,,,,,,,,,,,,0,48,48,16,1,,,,,,,,,,,,,,,,,,,,,,,
,,,,,V3_039,21,Female,2024-10-28_16h22.18.174,jersey_experiment_5_v3,2023.2.2,Win32,84.74576271,,,,,,,,,,,,,,,,731.8925,733.1863,733.1863,734.0096,return,0.0321,,56.51041667,,,,,,FBP-PT-91.png,0.4,1.2,28,0.5,,,,,,,,,,,,,,,,,,0,49,49,27,1,,,,,,,,,,,,,,,,,,,,,,,
,,,,,V3_039,21,Female,2024-10-28_16h22.18.174,jersey_experiment_5_v3,2023.2.2,Win32,84.74576271,,,,,,,,,,,,,,,,734.0098,735.3037,735.3037,735.9544,return,0.0004,,71.22395833,,,,,,FBP-RB-81.png,0.4,1.2,53,0.5,,,,,,,,,,,,,,,,,,0,50,50,52,1,,,,,,,,,,,,,,,,,,,,,,,
,,,,,V3_039,21,Female,2024-10-28_16h22.18.174,jersey_experiment_5_v3,2023.2.2,Win32,84.74576271,,,,,,,,,,,,,,,,735.9545,737.249,737.249,738.0015,return,0.1181,,75.390625,,,,,,FBP-PT-91.png,0.45,1.2,30,0.5,,,,,,,,,,,,,,,,,,0,51,51,29,1,,,,,,,,,,,,,,,,,,,,,,,
,,,,,V3_039,21,Female,2024-10-28_16h22.18.174,jersey_experiment_5_v3,2023.2.2,Win32,84.74576271,,,,,,,,,,,,,,,,738.0017,739.2955,739.2955,740.7159,return,0.9648,,79.94791667,,,,,,FBP-YG-18.png,0.45,1.2,10,0.5,,,,,,,,,,,,,,,,,,0,52,52,9,1,,,,,,,,,,,,,,,,,,,,,,,
,,,,,V3_039,21,Female,2024-10-28_16h22.18.174,jersey_experiment_5_v3,2023.2.2,Win32,84.74576271,,,,,,,,,,,,,,,,740.716,742.2604,742.2604,743.5075,return,0.0388,,50.78125,,,,,,FBP-OG-71.png,0.37,1.2,32,0.75,,,,,,,,,,,,,,,,,,0,53,53,31,1,,,,,,,,,,,,,,,,,,,,,,,
,,,,,V3_039,21,Female,2024-10-28_16h22.18.174,jersey_experiment_5_v3,2023.2.2,Win32,84.74576271,,,,,,,,,,,,,,,,743.5076,744.8101,744.8101,745.8453,return,0.0472,,56.11979167,,,,,,FBP-YG-17.png,0.4,1.2,3,0.5,,,,,,,,,,,,,,,,,,0,54,54,2,1,,,,,,,,,,,,,,,,,,,,,,,
,,,,,V3_039,21,Female,2024-10-28_16h22.18.174,jersey_experiment_5_v3,2023.2.2,Win32,84.74576271,,,,,,,,,,,,,,,,745.8454,747.1546,747.1546,748.0339,return,0.1498,,50.52083333,,,,,,FBP-PT-91.png,0.35,1.2,26,0.5,,,,,,,,,,,,,,,,,,0,55,55,25,1,,,,,,,,,,,,,,,,,,,,,,,
,,,,,V3_039,21,Female,2024-10-28_16h22.18.174,jersey_experiment_5_v3,2023.2.2,Win32,84.74576271,,,,,,,,,,,,,,,,748.0341,749.3428,749.3429,750.7869,return,0.6913,,52.99479167,,,,,,FBP-RB-91.png,0.37,1.2,57,0.5,,,,,,,,,,,,,,,,,,0,56,56,56,1,,,,,,,,,,,,,,,,,,,,,,,
,,,,,V3_039,21,Female,2024-10-28_16h22.18.174,jersey_experiment_5_v3,2023.2.2,Win32,84.74576271,,,,,,,,,,,,,,,,750.7871,752.0808,752.0808,752.6927,return,0.1414,,53.25520833,,,,,,FBP-YG-18.png,0.37,1.2,7,0.5,,,,,,,,,,,,,,,,,,0,57,57,6,1,,,,,,,,,,,,,,,,,,,,,,,
,,,,,V3_039,21,Female,2024-10-28_16h22.18.174,jersey_experiment_5_v3,2023.2.2,Win32,84.74576271,,,,,,,,,,,,,,,,752.6928,753.9954,753.9954,754.8021,return,0.0708,,63.15104167,,,,,,FBP-YG-17.png,0.43,1.2,4,0.5,,,,,,,,,,,,,,,,,,0,58,58,3,1,,,,,,,,,,,,,,,,,,,,,,,
,,,,,V3_039,21,Female,2024-10-28_16h22.18.174,jersey_experiment_5_v3,2023.2.2,Win32,84.74576271,,,,,,,,,,,,,,,,754.8023,756.096,756.0961,756.5901,return,0.1329,,64.32291667,,,,,,FBP-PT-71.png,0.45,1.2,20,0.5,,,,,,,,,,,,,,,,,,0,59,59,19,1,,,,,,,,,,,,,,,,,,,,,,,
,,,,,V3_039,21,Female,2024-10-28_16h22.18.174,jersey_experiment_5_v3,2023.2.2,Win32,84.74576271,,,,,,,,,,,,,,,,,,,,,,,,,,,,,,,,,,,,,,,,,,,,,,,,,,,,,,,,756.5902,762.5671,return,5.9683,,,,,,,,,,,,,,,,,,,
,,,,,V3_039,21,Female,2024-10-28_16h22.18.174,jersey_experiment_5_v3,2023.2.2,Win32,84.74576271,,,,,,,,,,,,,,,,,,,,,,,,,,,,,,,,,,,,,,,,,,,,,,,,,,,,,,,,,,,,,762.5671,765.7521,1,2.1647,return,1.0115,,,,,,,,,,,,
,,,,,V3_039,21,Female,2024-10-28_16h22.18.174,jersey_experiment_5_v3,2023.2.2,Win32,84.74576271,,,,,,,,,,,,,,,,,,,,,,,,,,,,,,,,,,,,,,,,,,,,,,,,,,,,,,,,,,,,,,,,,,,,765.7521,854.9792,"The study could be about how individual's perceive others' size. I also noticed the only items in the task were a white football player and a Black football player, so the experiment could have something to do with race as factor that could influence one's perception of size.",right,83.4143,,,,,,
,,,,,V3_039,21,Female,2024-10-28_16h22.18.174,jersey_experiment_5_v3,2023.2.2,Win32,84.74576271,,,,,,,,,,,,,,,,,,,,,,,,,,,,,,,,,,,,,,,,,,,,,,,,,,,,,,,,,,,,,,,,,,,,,,,,,,854.9793,857.912,return,2.9177,