requirements.started,requirements.stopped,key_resp_3.keys,key_resp_3.rt,key_resp_3.duration,Subject ID,Age,Gender,date,expName,psychopyVersion,OS,frameRate,instructions1.started,instructions1.stopped,key_resp.keys,key_resp.rt,key_resp.duration,example.started,example.stopped,enter_2.keys,enter_2.rt,enter_2.duration,instructions2.started,instructions2.stopped,enter_3.keys,enter_3.rt,enter_3.duration,image.started,image.stopped,slider_2.started,slider_2.stopped,next.keys,next.rt,next.duration,slider.response,trial_block_1.thisRepN,trial_block_1.thisTrialN,trial_block_1.thisN,trial_block_1.thisIndex,trial_block_1.ran,Path,Width,Height,Index,Duration,trial_block_2.thisRepN,trial_block_2.thisTrialN,trial_block_2.thisN,trial_block_2.thisIndex,trial_block_2.ran,rest_break.started,rest_break.stopped,end_break.started,end_break.stopped,key_resp_5.keys,key_resp_5.rt,key_resp_5.duration,trial_block_3.thisRepN,trial_block_3.thisTrialN,trial_block_3.thisN,trial_block_3.thisIndex,trial_block_3.ran,trial_block_4.thisRepN,trial_block_4.thisTrialN,trial_block_4.thisN,trial_block_4.thisIndex,trial_block_4.ran,questions_intro.started,questions_intro.stopped,enter_12.keys,enter_12.rt,enter_12.duration,question2.started,question2.stopped,question_doingbest.response,question_doingbest.rt,enter_15.keys,enter_15.rt,enter_15.duration,pattern.started,pattern.stopped,pattern_2.text,enter_17.keys,enter_17.rt,enter_17.duration,thankyou.started,thankyou.stopped,enter_14.keys,enter_14.rt,enter_14.duration
0.0002,10.2145,return,10.2083,,V3_099,19,F,2025-02-04_14h34.12.399,jersey_experiment_5_v3,2023.2.2,Win32,85.47008547,,,,,,,,,,,,,,,,,,,,,,,,,,,,,,,,,,,,,,,,,,,,,,,,,,,,,,,,,,,,,,,,,,,,,,,,,,,,,,
,,,,,V3_099,19,F,2025-02-04_14h34.12.399,jersey_experiment_5_v3,2023.2.2,Win32,85.47008547,10.2145,17.4346,return,7.2018,,,,,,,,,,,,,,,,,,,,,,,,,,,,,,,,,,,,,,,,,,,,,,,,,,,,,,,,,,,,,,,,,,,,,,,,,,
,,,,,V3_099,19,F,2025-02-04_14h34.12.399,jersey_experiment_5_v3,2023.2.2,Win32,85.47008547,,,,,,17.4348,24.0257,return,6.5573,,,,,,,,,,,,,,,,,,,,,,,,,,,,,,,,,,,,,,,,,,,,,,,,,,,,,,,,,,,,,,,,,,,,,
,,,,,V3_099,19,F,2025-02-04_14h34.12.399,jersey_experiment_5_v3,2023.2.2,Win32,85.47008547,,,,,,,,,,,24.0258,35.6234,return,11.5841,,,,,,,,,,,,,,,,,,,,,,,,,,,,,,,,,,,,,,,,,,,,,,,,,,,,,,,,,,,,,,,,
,,,,,V3_099,19,F,2025-02-04_14h34.12.399,jersey_experiment_5_v3,2023.2.2,Win32,85.47008547,,,,,,,,,,,,,,,,35.6255,36.9211,36.9211,56.3772,return,1.7361,,62.109375,0,0,0,36,1,FBP-OG-18.png,0.37,1.2,37,0.5,,,,,,,,,,,,,,,,,,,,,,,,,,,,,,,,,,,,,,,,,,,,,
,,,,,V3_099,19,F,2025-02-04_14h34.12.399,jersey_experiment_5_v3,2023.2.2,Win32,85.47008547,,,,,,,,,,,,,,,,56.3776,57.9301,57.9301,63.9197,return,0.6683,,71.61458333,0,1,1,57,1,FBP-RB-19.png,0.4,1.2,58,0.75,,,,,,,,,,,,,,,,,,,,,,,,,,,,,,,,,,,,,,,,,,,,,
,,,,,V3_099,19,F,2025-02-04_14h34.12.399,jersey_experiment_5_v3,2023.2.2,Win32,85.47008547,,,,,,,,,,,,,,,,63.9199,65.4714,65.4715,68.5305,return,0.3763,,66.53645833,0,2,2,59,1,FBP-RB-19.png,0.45,1.2,60,0.75,,,,,,,,,,,,,,,,,,,,,,,,,,,,,,,,,,,,,,,,,,,,,
,,,,,V3_099,19,F,2025-02-04_14h34.12.399,jersey_experiment_5_v3,2023.2.2,Win32,85.47008547,,,,,,,,,,,,,,,,68.5308,69.8247,69.8247,73.2485,return,0.3451,,66.14583333,0,3,3,32,1,FBP-OG-17.png,0.4,1.2,33,0.5,,,,,,,,,,,,,,,,,,,,,,,,,,,,,,,,,,,,,,,,,,,,,
,,,,,V3_099,19,F,2025-02-04_14h34.12.399,jersey_experiment_5_v3,2023.2.2,Win32,85.47008547,,,,,,,,,,,,,,,,73.2487,74.8014,74.8015,78.9074,return,0.321,,59.24479167,0,4,4,26,1,FBP-PT-19.png,0.37,1.2,27,0.75,,,,,,,,,,,,,,,,,,,,,,,,,,,,,,,,,,,,,,,,,,,,,
,,,,,V3_099,19,F,2025-02-04_14h34.12.399,jersey_experiment_5_v3,2023.2.2,Win32,85.47008547,,,,,,,,,,,,,,,,78.9077,80.4604,80.4605,83.3429,return,0.4008,,79.94791667,0,5,5,13,1,FBP-YG-91.png,0.43,1.2,14,0.75,,,,,,,,,,,,,,,,,,,,,,,,,,,,,,,,,,,,,,,,,,,,,
,,,,,V3_099,19,F,2025-02-04_14h34.12.399,jersey_experiment_5_v3,2023.2.2,Win32,85.47008547,,,,,,,,,,,,,,,,83.3431,84.8959,84.896,90.9079,return,0.9802,,78.90625,0,6,6,54,1,FBP-RB-18.png,0.45,1.2,55,0.75,,,,,,,,,,,,,,,,,,,,,,,,,,,,,,,,,,,,,,,,,,,,,
,,,,,V3_099,19,F,2025-02-04_14h34.12.399,jersey_experiment_5_v3,2023.2.2,Win32,85.47008547,,,,,,,,,,,,,,,,90.9082,92.2021,92.2022,95.4375,return,0.4365,,71.35416667,0,7,7,42,1,FBP-OG-19.png,0.4,1.2,43,0.5,,,,,,,,,,,,,,,,,,,,,,,,,,,,,,,,,,,,,,,,,,,,,
,,,,,V3_099,19,F,2025-02-04_14h34.12.399,jersey_experiment_5_v3,2023.2.2,Win32,85.47008547,,,,,,,,,,,,,,,,95.4378,96.9904,96.9905,101.6493,return,0.4471,,74.21875,0,8,8,4,1,FBP-YG-71.png,0.45,1.2,5,0.75,,,,,,,,,,,,,,,,,,,,,,,,,,,,,,,,,,,,,,,,,,,,,
,,,,,V3_099,19,F,2025-02-04_14h34.12.399,jersey_experiment_5_v3,2023.2.2,Win32,85.47008547,,,,,,,,,,,,,,,,101.6496,103.2023,103.2024,105.4378,return,0.2137,,74.08854167,0,9,9,18,1,FBP-PT-17.png,0.43,1.2,19,0.75,,,,,,,,,,,,,,,,,,,,,,,,,,,,,,,,,,,,,,,,,,,,,
,,,,,V3_099,19,F,2025-02-04_14h34.12.399,jersey_experiment_5_v3,2023.2.2,Win32,85.47008547,,,,,,,,,,,,,,,,105.438,106.9907,106.9908,111.485,return,0.5291,,78.125,0,10,10,3,1,FBP-YG-71.png,0.43,1.2,4,0.75,,,,,,,,,,,,,,,,,,,,,,,,,,,,,,,,,,,,,,,,,,,,,
,,,,,V3_099,19,F,2025-02-04_14h34.12.399,jersey_experiment_5_v3,2023.2.2,Win32,85.47008547,,,,,,,,,,,,,,,,111.4852,112.7793,112.7793,116.45,return,0.2678,,61.97916667,0,11,11,35,1,FBP-OG-18.png,0.35,1.2,36,0.5,,,,,,,,,,,,,,,,,,,,,,,,,,,,,,,,,,,,,,,,,,,,,
,,,,,V3_099,19,F,2025-02-04_14h34.12.399,jersey_experiment_5_v3,2023.2.2,Win32,85.47008547,,,,,,,,,,,,,,,,116.4503,118.003,118.003,120.8736,return,0.2177,,71.22395833,0,12,12,24,1,FBP-PT-18.png,0.45,1.2,25,0.75,,,,,,,,,,,,,,,,,,,,,,,,,,,,,,,,,,,,,,,,,,,,,
,,,,,V3_099,19,F,2025-02-04_14h34.12.399,jersey_experiment_5_v3,2023.2.2,Win32,85.47008547,,,,,,,,,,,,,,,,120.8739,122.4267,122.4267,124.8504,return,0.362,,81.77083333,0,13,13,9,1,FBP-YG-81.png,0.45,1.2,10,0.75,,,,,,,,,,,,,,,,,,,,,,,,,,,,,,,,,,,,,,,,,,,,,
,,,,,V3_099,19,F,2025-02-04_14h34.12.399,jersey_experiment_5_v3,2023.2.2,Win32,85.47008547,,,,,,,,,,,,,,,,124.8506,126.4034,126.4034,129.0741,return,0.2484,,72.265625,0,14,14,27,1,FBP-PT-19.png,0.4,1.2,28,0.75,,,,,,,,,,,,,,,,,,,,,,,,,,,,,,,,,,,,,,,,,,,,,
,,,,,V3_099,19,F,2025-02-04_14h34.12.399,jersey_experiment_5_v3,2023.2.2,Win32,85.47008547,,,,,,,,,,,,,,,,129.0743,130.3682,130.3683,132.6506,return,0.2607,,84.765625,0,15,15,33,1,FBP-OG-17.png,0.43,1.2,34,0.5,,,,,,,,,,,,,,,,,,,,,,,,,,,,,,,,,,,,,,,,,,,,,
,,,,,V3_099,19,F,2025-02-04_14h34.12.399,jersey_experiment_5_v3,2023.2.2,Win32,85.47008547,,,,,,,,,,,,,,,,132.6509,134.2035,134.2035,138.0978,return,0.2915,,70.05208333,0,16,16,21,1,FBP-PT-18.png,0.37,1.2,22,0.75,,,,,,,,,,,,,,,,,,,,,,,,,,,,,,,,,,,,,,,,,,,,,
,,,,,V3_099,19,F,2025-02-04_14h34.12.399,jersey_experiment_5_v3,2023.2.2,Win32,85.47008547,,,,,,,,,,,,,,,,138.098,139.6392,139.6392,143.8393,return,2.4005,,70.18229167,0,17,17,28,1,FBP-PT-19.png,0.43,1.2,29,0.75,,,,,,,,,,,,,,,,,,,,,,,,,,,,,,,,,,,,,,,,,,,,,
,,,,,V3_099,19,F,2025-02-04_14h34.12.399,jersey_experiment_5_v3,2023.2.2,Win32,85.47008547,,,,,,,,,,,,,,,,143.8396,145.1335,145.1335,148.3805,return,0.2238,,89.58333333,0,18,18,44,1,FBP-OG-19.png,0.45,1.2,45,0.5,,,,,,,,,,,,,,,,,,,,,,,,,,,,,,,,,,,,,,,,,,,,,
,,,,,V3_099,19,F,2025-02-04_14h34.12.399,jersey_experiment_5_v3,2023.2.2,Win32,85.47008547,,,,,,,,,,,,,,,,148.3808,149.6747,149.6748,153.8161,return,0.1807,,87.36979167,0,19,19,39,1,FBP-OG-18.png,0.45,1.2,40,0.5,,,,,,,,,,,,,,,,,,,,,,,,,,,,,,,,,,,,,,,,,,,,,
,,,,,V3_099,19,F,2025-02-04_14h34.12.399,jersey_experiment_5_v3,2023.2.2,Win32,85.47008547,,,,,,,,,,,,,,,,153.8164,155.3692,155.3692,157.5693,return,0.2364,,58.59375,0,20,20,56,1,FBP-RB-19.png,0.37,1.2,57,0.75,,,,,,,,,,,,,,,,,,,,,,,,,,,,,,,,,,,,,,,,,,,,,
,,,,,V3_099,19,F,2025-02-04_14h34.12.399,jersey_experiment_5_v3,2023.2.2,Win32,85.47008547,,,,,,,,,,,,,,,,157.5695,159.1222,159.1222,162.0166,return,1.5213,,66.92708333,0,21,21,12,1,FBP-YG-91.png,0.4,1.2,13,0.75,,,,,,,,,,,,,,,,,,,,,,,,,,,,,,,,,,,,,,,,,,,,,
,,,,,V3_099,19,F,2025-02-04_14h34.12.399,jersey_experiment_5_v3,2023.2.2,Win32,85.47008547,,,,,,,,,,,,,,,,162.0167,163.5695,163.5695,167.9342,return,1.0604,,64.453125,0,22,22,16,1,FBP-PT-17.png,0.37,1.2,17,0.75,,,,,,,,,,,,,,,,,,,,,,,,,,,,,,,,,,,,,,,,,,,,,
,,,,,V3_099,19,F,2025-02-04_14h34.12.399,jersey_experiment_5_v3,2023.2.2,Win32,85.47008547,,,,,,,,,,,,,,,,167.9345,169.4873,169.4874,173.1697,return,1.4751,,76.04166667,0,23,23,49,1,FBP-RB-17.png,0.45,1.2,50,0.75,,,,,,,,,,,,,,,,,,,,,,,,,,,,,,,,,,,,,,,,,,,,,
,,,,,V3_099,19,F,2025-02-04_14h34.12.399,jersey_experiment_5_v3,2023.2.2,Win32,85.47008547,,,,,,,,,,,,,,,,173.1699,174.4639,174.464,176.6994,return,0.3071,,80.46875,0,24,24,43,1,FBP-OG-19.png,0.43,1.2,44,0.5,,,,,,,,,,,,,,,,,,,,,,,,,,,,,,,,,,,,,,,,,,,,,
,,,,,V3_099,19,F,2025-02-04_14h34.12.399,jersey_experiment_5_v3,2023.2.2,Win32,85.47008547,,,,,,,,,,,,,,,,176.6996,178.2522,178.2522,181.7701,return,0.2176,,67.1875,0,25,25,46,1,FBP-RB-17.png,0.37,1.2,47,0.75,,,,,,,,,,,,,,,,,,,,,,,,,,,,,,,,,,,,,,,,,,,,,
,,,,,V3_099,19,F,2025-02-04_14h34.12.399,jersey_experiment_5_v3,2023.2.2,Win32,85.47008547,,,,,,,,,,,,,,,,181.7704,183.3232,183.3232,185.3584,return,0.2731,,61.328125,0,26,26,20,1,FBP-PT-18.png,0.35,1.2,21,0.75,,,,,,,,,,,,,,,,,,,,,,,,,,,,,,,,,,,,,,,,,,,,,
,,,,,V3_099,19,F,2025-02-04_14h34.12.399,jersey_experiment_5_v3,2023.2.2,Win32,85.47008547,,,,,,,,,,,,,,,,185.3586,186.9115,186.9116,188.5704,return,0.1233,,72.39583333,0,27,27,23,1,FBP-PT-18.png,0.43,1.2,24,0.75,,,,,,,,,,,,,,,,,,,,,,,,,,,,,,,,,,,,,,,,,,,,,
,,,,,V3_099,19,F,2025-02-04_14h34.12.399,jersey_experiment_5_v3,2023.2.2,Win32,85.47008547,,,,,,,,,,,,,,,,188.5705,190.1118,190.1119,192.0882,return,0.2549,,81.38020833,0,28,28,29,1,FBP-PT-19.png,0.45,1.2,30,0.75,,,,,,,,,,,,,,,,,,,,,,,,,,,,,,,,,,,,,,,,,,,,,
,,,,,V3_099,19,F,2025-02-04_14h34.12.399,jersey_experiment_5_v3,2023.2.2,Win32,85.47008547,,,,,,,,,,,,,,,,192.0885,193.6411,193.6412,197.3942,return,0.2428,,66.796875,0,29,29,11,1,FBP-YG-91.png,0.37,1.2,12,0.75,,,,,,,,,,,,,,,,,,,,,,,,,,,,,,,,,,,,,,,,,,,,,
,,,,,V3_099,19,F,2025-02-04_14h34.12.399,jersey_experiment_5_v3,2023.2.2,Win32,85.47008547,,,,,,,,,,,,,,,,197.3944,198.9472,198.9472,200.6062,return,0.2369,,82.68229167,0,30,30,48,1,FBP-RB-17.png,0.43,1.2,49,0.75,,,,,,,,,,,,,,,,,,,,,,,,,,,,,,,,,,,,,,,,,,,,,
,,,,,V3_099,19,F,2025-02-04_14h34.12.399,jersey_experiment_5_v3,2023.2.2,Win32,85.47008547,,,,,,,,,,,,,,,,200.6064,201.9003,201.9004,207.9828,return,0.2679,,55.46875,0,31,31,41,1,FBP-OG-19.png,0.37,1.2,42,0.5,,,,,,,,,,,,,,,,,,,,,,,,,,,,,,,,,,,,,,,,,,,,,
,,,,,V3_099,19,F,2025-02-04_14h34.12.399,jersey_experiment_5_v3,2023.2.2,Win32,85.47008547,,,,,,,,,,,,,,,,207.9831,209.5358,209.5358,212.9361,return,0.3727,,63.54166667,0,32,32,51,1,FBP-RB-18.png,0.37,1.2,52,0.75,,,,,,,,,,,,,,,,,,,,,,,,,,,,,,,,,,,,,,,,,,,,,
,,,,,V3_099,19,F,2025-02-04_14h34.12.399,jersey_experiment_5_v3,2023.2.2,Win32,85.47008547,,,,,,,,,,,,,,,,212.9362,214.2301,214.2302,216.3009,return,0.2975,,90.49479167,0,33,33,34,1,FBP-OG-17.png,0.45,1.2,35,0.5,,,,,,,,,,,,,,,,,,,,,,,,,,,,,,,,,,,,,,,,,,,,,
,,,,,V3_099,19,F,2025-02-04_14h34.12.399,jersey_experiment_5_v3,2023.2.2,Win32,85.47008547,,,,,,,,,,,,,,,,216.3011,217.854,217.8541,219.6186,return,0.3217,,70.83333333,0,34,34,6,1,FBP-YG-81.png,0.37,1.2,7,0.75,,,,,,,,,,,,,,,,,,,,,,,,,,,,,,,,,,,,,,,,,,,,,
,,,,,V3_099,19,F,2025-02-04_14h34.12.399,jersey_experiment_5_v3,2023.2.2,Win32,85.47008547,,,,,,,,,,,,,,,,219.6188,220.9128,220.9129,224.513,return,0.256,,91.015625,0,35,35,38,1,FBP-OG-18.png,0.43,1.2,39,0.5,,,,,,,,,,,,,,,,,,,,,,,,,,,,,,,,,,,,,,,,,,,,,
,,,,,V3_099,19,F,2025-02-04_14h34.12.399,jersey_experiment_5_v3,2023.2.2,Win32,85.47008547,,,,,,,,,,,,,,,,224.5131,226.0658,226.0659,229.4425,return,0.2353,,86.84895833,0,36,36,53,1,FBP-RB-18.png,0.43,1.2,54,0.75,,,,,,,,,,,,,,,,,,,,,,,,,,,,,,,,,,,,,,,,,,,,,
,,,,,V3_099,19,F,2025-02-04_14h34.12.399,jersey_experiment_5_v3,2023.2.2,Win32,85.47008547,,,,,,,,,,,,,,,,229.4427,230.9955,230.9956,234.6192,return,0.2483,,79.81770833,0,37,37,47,1,FBP-RB-17.png,0.4,1.2,48,0.75,,,,,,,,,,,,,,,,,,,,,,,,,,,,,,,,,,,,,,,,,,,,,
,,,,,V3_099,19,F,2025-02-04_14h34.12.399,jersey_experiment_5_v3,2023.2.2,Win32,85.47008547,,,,,,,,,,,,,,,,234.6194,236.1722,236.1723,241.3606,return,0.3982,,62.63020833,0,38,38,45,1,FBP-RB-17.png,0.35,1.2,46,0.75,,,,,,,,,,,,,,,,,,,,,,,,,,,,,,,,,,,,,,,,,,,,,
,,,,,V3_099,19,F,2025-02-04_14h34.12.399,jersey_experiment_5_v3,2023.2.2,Win32,85.47008547,,,,,,,,,,,,,,,,241.3609,242.9136,242.9136,247.3254,return,0.4808,,66.40625,0,39,39,2,1,FBP-YG-71.png,0.4,1.2,3,0.75,,,,,,,,,,,,,,,,,,,,,,,,,,,,,,,,,,,,,,,,,,,,,
,,,,,V3_099,19,F,2025-02-04_14h34.12.399,jersey_experiment_5_v3,2023.2.2,Win32,85.47008547,,,,,,,,,,,,,,,,247.3256,248.6196,248.6197,251.2903,return,0.2134,,59.50520833,0,40,40,31,1,FBP-OG-17.png,0.37,1.2,32,0.5,,,,,,,,,,,,,,,,,,,,,,,,,,,,,,,,,,,,,,,,,,,,,
,,,,,V3_099,19,F,2025-02-04_14h34.12.399,jersey_experiment_5_v3,2023.2.2,Win32,85.47008547,,,,,,,,,,,,,,,,251.2906,252.8435,252.8435,254.6316,return,0.2788,,57.29166667,0,41,41,25,1,FBP-PT-19.png,0.35,1.2,26,0.75,,,,,,,,,,,,,,,,,,,,,,,,,,,,,,,,,,,,,,,,,,,,,
,,,,,V3_099,19,F,2025-02-04_14h34.12.399,jersey_experiment_5_v3,2023.2.2,Win32,85.47008547,,,,,,,,,,,,,,,,254.6319,256.1847,256.1847,261.2319,return,0.2504,,54.55729167,0,42,42,55,1,FBP-RB-19.png,0.35,1.2,56,0.75,,,,,,,,,,,,,,,,,,,,,,,,,,,,,,,,,,,,,,,,,,,,,
,,,,,V3_099,19,F,2025-02-04_14h34.12.399,jersey_experiment_5_v3,2023.2.2,Win32,85.47008547,,,,,,,,,,,,,,,,261.2321,262.785,262.785,265.0204,return,0.2596,,59.89583333,0,43,43,17,1,FBP-PT-17.png,0.4,1.2,18,0.75,,,,,,,,,,,,,,,,,,,,,,,,,,,,,,,,,,,,,,,,,,,,,
,,,,,V3_099,19,F,2025-02-04_14h34.12.399,jersey_experiment_5_v3,2023.2.2,Win32,85.47008547,,,,,,,,,,,,,,,,265.0206,266.5733,266.5734,269.4086,return,0.2222,,55.859375,0,44,44,0,1,FBP-YG-71.png,0.35,1.2,1,0.75,,,,,,,,,,,,,,,,,,,,,,,,,,,,,,,,,,,,,,,,,,,,,
,,,,,V3_099,19,F,2025-02-04_14h34.12.399,jersey_experiment_5_v3,2023.2.2,Win32,85.47008547,,,,,,,,,,,,,,,,269.4089,270.7029,270.7029,275.3618,return,1.5531,,61.71875,0,45,45,37,1,FBP-OG-18.png,0.4,1.2,38,0.5,,,,,,,,,,,,,,,,,,,,,,,,,,,,,,,,,,,,,,,,,,,,,
,,,,,V3_099,19,F,2025-02-04_14h34.12.399,jersey_experiment_5_v3,2023.2.2,Win32,85.47008547,,,,,,,,,,,,,,,,275.3621,276.9148,276.9149,278.1865,return,0.1946,,55.20833333,0,46,46,1,1,FBP-YG-71.png,0.37,1.2,2,0.75,,,,,,,,,,,,,,,,,,,,,,,,,,,,,,,,,,,,,,,,,,,,,
,,,,,V3_099,19,F,2025-02-04_14h34.12.399,jersey_experiment_5_v3,2023.2.2,Win32,85.47008547,,,,,,,,,,,,,,,,278.1868,279.7386,279.7386,281.0797,return,0.1105,,69.01041667,0,47,47,19,1,FBP-PT-17.png,0.45,1.2,20,0.75,,,,,,,,,,,,,,,,,,,,,,,,,,,,,,,,,,,,,,,,,,,,,
,,,,,V3_099,19,F,2025-02-04_14h34.12.399,jersey_experiment_5_v3,2023.2.2,Win32,85.47008547,,,,,,,,,,,,,,,,281.08,282.6327,282.6328,284.0329,return,0.2129,,57.8125,0,48,48,5,1,FBP-YG-81.png,0.35,1.2,6,0.75,,,,,,,,,,,,,,,,,,,,,,,,,,,,,,,,,,,,,,,,,,,,,
,,,,,V3_099,19,F,2025-02-04_14h34.12.399,jersey_experiment_5_v3,2023.2.2,Win32,85.47008547,,,,,,,,,,,,,,,,284.0332,285.5858,285.5858,287.1036,return,0.4472,,54.81770833,0,49,49,50,1,FBP-RB-18.png,0.35,1.2,51,0.75,,,,,,,,,,,,,,,,,,,,,,,,,,,,,,,,,,,,,,,,,,,,,
,,,,,V3_099,19,F,2025-02-04_14h34.12.399,jersey_experiment_5_v3,2023.2.2,Win32,85.47008547,,,,,,,,,,,,,,,,287.1038,288.6565,288.6566,291.1862,return,0.2358,,66.14583333,0,50,50,22,1,FBP-PT-18.png,0.4,1.2,23,0.75,,,,,,,,,,,,,,,,,,,,,,,,,,,,,,,,,,,,,,,,,,,,,
,,,,,V3_099,19,F,2025-02-04_14h34.12.399,jersey_experiment_5_v3,2023.2.2,Win32,85.47008547,,,,,,,,,,,,,,,,291.1864,292.739,292.739,295.5862,return,1.6369,,62.5,0,51,51,52,1,FBP-RB-18.png,0.4,1.2,53,0.75,,,,,,,,,,,,,,,,,,,,,,,,,,,,,,,,,,,,,,,,,,,,,
,,,,,V3_099,19,F,2025-02-04_14h34.12.399,jersey_experiment_5_v3,2023.2.2,Win32,85.47008547,,,,,,,,,,,,,,,,295.5864,297.1392,297.1392,301.2336,return,0.226,,76.30208333,0,52,52,14,1,FBP-YG-91.png,0.45,1.2,15,0.75,,,,,,,,,,,,,,,,,,,,,,,,,,,,,,,,,,,,,,,,,,,,,
,,,,,V3_099,19,F,2025-02-04_14h34.12.399,jersey_experiment_5_v3,2023.2.2,Win32,85.47008547,,,,,,,,,,,,,,,,301.2338,302.5276,302.5277,304.5747,return,0.5558,,56.11979167,0,53,53,40,1,FBP-OG-19.png,0.35,1.2,41,0.5,,,,,,,,,,,,,,,,,,,,,,,,,,,,,,,,,,,,,,,,,,,,,
,,,,,V3_099,19,F,2025-02-04_14h34.12.399,jersey_experiment_5_v3,2023.2.2,Win32,85.47008547,,,,,,,,,,,,,,,,304.5749,306.1277,306.1277,313.9753,return,0.2209,,58.984375,0,54,54,7,1,FBP-YG-81.png,0.4,1.2,8,0.75,,,,,,,,,,,,,,,,,,,,,,,,,,,,,,,,,,,,,,,,,,,,,
,,,,,V3_099,19,F,2025-02-04_14h34.12.399,jersey_experiment_5_v3,2023.2.2,Win32,85.47008547,,,,,,,,,,,,,,,,313.9756,315.5281,315.5282,320.6224,return,2.1098,,59.63541667,0,55,55,10,1,FBP-YG-91.png,0.35,1.2,11,0.75,,,,,,,,,,,,,,,,,,,,,,,,,,,,,,,,,,,,,,,,,,,,,
,,,,,V3_099,19,F,2025-02-04_14h34.12.399,jersey_experiment_5_v3,2023.2.2,Win32,85.47008547,,,,,,,,,,,,,,,,320.6227,322.1754,322.1754,323.999,return,0.2126,,67.96875,0,56,56,58,1,FBP-RB-19.png,0.43,1.2,59,0.75,,,,,,,,,,,,,,,,,,,,,,,,,,,,,,,,,,,,,,,,,,,,,
,,,,,V3_099,19,F,2025-02-04_14h34.12.399,jersey_experiment_5_v3,2023.2.2,Win32,85.47008547,,,,,,,,,,,,,,,,323.9991,325.5519,325.5521,329.1992,return,0.2933,,75.390625,0,57,57,8,1,FBP-YG-81.png,0.43,1.2,9,0.75,,,,,,,,,,,,,,,,,,,,,,,,,,,,,,,,,,,,,,,,,,,,,
,,,,,V3_099,19,F,2025-02-04_14h34.12.399,jersey_experiment_5_v3,2023.2.2,Win32,85.47008547,,,,,,,,,,,,,,,,329.1996,330.7522,330.7522,336.8584,return,3.0297,,72.78645833,0,58,58,15,1,FBP-PT-17.png,0.35,1.2,16,0.75,,,,,,,,,,,,,,,,,,,,,,,,,,,,,,,,,,,,,,,,,,,,,
,,,,,V3_099,19,F,2025-02-04_14h34.12.399,jersey_experiment_5_v3,2023.2.2,Win32,85.47008547,,,,,,,,,,,,,,,,336.8586,338.1526,338.1526,339.8584,return,0.1739,,63.93229167,0,59,59,30,1,FBP-OG-17.png,0.35,1.2,31,0.5,,,,,,,,,,,,,,,,,,,,,,,,,,,,,,,,,,,,,,,,,,,,,
,,,,,V3_099,19,F,2025-02-04_14h34.12.399,jersey_experiment_5_v3,2023.2.2,Win32,85.47008547,,,,,,,,,,,,,,,,339.8605,341.4114,341.4115,343.0704,return,0.329,,63.28125,,,,,,FBP-RB-81.png,0.4,1.2,53,0.75,0,0,0,52,1,,,,,,,,,,,,,,,,,,,,,,,,,,,,,,,,,,,,,,,,
,,,,,V3_099,19,F,2025-02-04_14h34.12.399,jersey_experiment_5_v3,2023.2.2,Win32,85.47008547,,,,,,,,,,,,,,,,343.0706,344.6232,344.6233,346.2705,return,0.2586,,78.64583333,,,,,,FBP-YG-17.png,0.43,1.2,4,0.75,0,1,1,3,1,,,,,,,,,,,,,,,,,,,,,,,,,,,,,,,,,,,,,,,,
,,,,,V3_099,19,F,2025-02-04_14h34.12.399,jersey_experiment_5_v3,2023.2.2,Win32,85.47008547,,,,,,,,,,,,,,,,346.2707,347.8235,347.8235,349.8236,return,0.2109,,76.171875,,,,,,FBP-PT-71.png,0.37,1.2,17,0.75,0,2,2,16,1,,,,,,,,,,,,,,,,,,,,,,,,,,,,,,,,,,,,,,,,
,,,,,V3_099,19,F,2025-02-04_14h34.12.399,jersey_experiment_5_v3,2023.2.2,Win32,85.47008547,,,,,,,,,,,,,,,,349.8239,351.3766,351.3766,353.4237,return,0.282,,76.69270833,,,,,,FBP-PT-81.png,0.4,1.2,23,0.75,0,3,3,22,1,,,,,,,,,,,,,,,,,,,,,,,,,,,,,,,,,,,,,,,,
,,,,,V3_099,19,F,2025-02-04_14h34.12.399,jersey_experiment_5_v3,2023.2.2,Win32,85.47008547,,,,,,,,,,,,,,,,353.424,354.9767,354.9767,357.2238,return,0.2289,,80.33854167,,,,,,FBP-YG-18.png,0.4,1.2,8,0.75,0,4,4,7,1,,,,,,,,,,,,,,,,,,,,,,,,,,,,,,,,,,,,,,,,
,,,,,V3_099,19,F,2025-02-04_14h34.12.399,jersey_experiment_5_v3,2023.2.2,Win32,85.47008547,,,,,,,,,,,,,,,,357.2241,358.7768,358.7768,361.7534,return,0.2144,,77.60416667,,,,,,FBP-RB-91.png,0.37,1.2,57,0.75,0,5,5,56,1,,,,,,,,,,,,,,,,,,,,,,,,,,,,,,,,,,,,,,,,
,,,,,V3_099,19,F,2025-02-04_14h34.12.399,jersey_experiment_5_v3,2023.2.2,Win32,85.47008547,,,,,,,,,,,,,,,,361.7537,363.3065,363.3065,365.33,return,0.2112,,69.53125,,,,,,FBP-RB-71.png,0.35,1.2,46,0.75,0,6,6,45,1,,,,,,,,,,,,,,,,,,,,,,,,,,,,,,,,,,,,,,,,
,,,,,V3_099,19,F,2025-02-04_14h34.12.399,jersey_experiment_5_v3,2023.2.2,Win32,85.47008547,,,,,,,,,,,,,,,,365.3302,366.6242,366.6243,372.0007,return,1.5619,,72.91666667,,,,,,FBP-OG-91.png,0.37,1.2,42,0.5,0,7,7,41,1,,,,,,,,,,,,,,,,,,,,,,,,,,,,,,,,,,,,,,,,
,,,,,V3_099,19,F,2025-02-04_14h34.12.399,jersey_experiment_5_v3,2023.2.2,Win32,85.47008547,,,,,,,,,,,,,,,,372.0009,373.2949,373.2949,377.6245,return,0.4543,,84.50520833,,,,,,FBP-OG-71.png,0.4,1.2,33,0.5,0,8,8,32,1,,,,,,,,,,,,,,,,,,,,,,,,,,,,,,,,,,,,,,,,
,,,,,V3_099,19,F,2025-02-04_14h34.12.399,jersey_experiment_5_v3,2023.2.2,Win32,85.47008547,,,,,,,,,,,,,,,,377.6246,378.9187,378.9187,381.3423,return,1.1658,,89.0625,,,,,,FBP-OG-81.png,0.45,1.2,40,0.5,0,9,9,39,1,,,,,,,,,,,,,,,,,,,,,,,,,,,,,,,,,,,,,,,,
,,,,,V3_099,19,F,2025-02-04_14h34.12.399,jersey_experiment_5_v3,2023.2.2,Win32,85.47008547,,,,,,,,,,,,,,,,381.3425,382.6366,382.6366,383.9189,return,0.1434,,91.796875,,,,,,FBP-OG-71.png,0.45,1.2,35,0.5,0,10,10,34,1,,,,,,,,,,,,,,,,,,,,,,,,,,,,,,,,,,,,,,,,
,,,,,V3_099,19,F,2025-02-04_14h34.12.399,jersey_experiment_5_v3,2023.2.2,Win32,85.47008547,,,,,,,,,,,,,,,,383.919,385.213,385.2131,389.7779,return,0.187,,71.35416667,,,,,,FBP-OG-81.png,0.4,1.2,38,0.5,0,11,11,37,1,,,,,,,,,,,,,,,,,,,,,,,,,,,,,,,,,,,,,,,,
,,,,,V3_099,19,F,2025-02-04_14h34.12.399,jersey_experiment_5_v3,2023.2.2,Win32,85.47008547,,,,,,,,,,,,,,,,389.7781,391.3309,391.3309,396.0722,return,0.1341,,72.00520833,,,,,,FBP-YG-18.png,0.43,1.2,9,0.75,0,12,12,8,1,,,,,,,,,,,,,,,,,,,,,,,,,,,,,,,,,,,,,,,,
,,,,,V3_099,19,F,2025-02-04_14h34.12.399,jersey_experiment_5_v3,2023.2.2,Win32,85.47008547,,,,,,,,,,,,,,,,396.0723,397.6252,397.6253,399.2606,return,0.2147,,83.07291667,,,,,,FBP-YG-19.png,0.43,1.2,14,0.75,0,13,13,13,1,,,,,,,,,,,,,,,,,,,,,,,,,,,,,,,,,,,,,,,,
,,,,,V3_099,19,F,2025-02-04_14h34.12.399,jersey_experiment_5_v3,2023.2.2,Win32,85.47008547,,,,,,,,,,,,,,,,399.2608,400.8137,400.8137,404.0138,return,0.3197,,78.125,,,,,,FBP-RB-81.png,0.43,1.2,54,0.75,0,14,14,53,1,,,,,,,,,,,,,,,,,,,,,,,,,,,,,,,,,,,,,,,,
,,,,,V3_099,19,F,2025-02-04_14h34.12.399,jersey_experiment_5_v3,2023.2.2,Win32,85.47008547,,,,,,,,,,,,,,,,404.0139,405.5667,405.5668,407.8257,return,0.2248,,85.546875,,,,,,FBP-PT-81.png,0.45,1.2,25,0.75,0,15,15,24,1,,,,,,,,,,,,,,,,,,,,,,,,,,,,,,,,,,,,,,,,
,,,,,V3_099,19,F,2025-02-04_14h34.12.399,jersey_experiment_5_v3,2023.2.2,Win32,85.47008547,,,,,,,,,,,,,,,,407.826,409.3787,409.3787,411.0494,return,0.1701,,63.41145833,,,,,,FBP-YG-19.png,0.35,1.2,11,0.75,0,16,16,10,1,,,,,,,,,,,,,,,,,,,,,,,,,,,,,,,,,,,,,,,,
,,,,,V3_099,19,F,2025-02-04_14h34.12.399,jersey_experiment_5_v3,2023.2.2,Win32,85.47008547,,,,,,,,,,,,,,,,411.0495,412.6023,412.6023,415.3437,return,0.3404,,60.15625,,,,,,FBP-PT-91.png,0.37,1.2,27,0.75,0,17,17,26,1,,,,,,,,,,,,,,,,,,,,,,,,,,,,,,,,,,,,,,,,
,,,,,V3_099,19,F,2025-02-04_14h34.12.399,jersey_experiment_5_v3,2023.2.2,Win32,85.47008547,,,,,,,,,,,,,,,,415.3439,416.6377,416.6377,418.6497,return,0.2395,,72.13541667,,,,,,FBP-OG-91.png,0.45,1.2,45,0.5,0,18,18,44,1,,,,,,,,,,,,,,,,,,,,,,,,,,,,,,,,,,,,,,,,
,,,,,V3_099,19,F,2025-02-04_14h34.12.399,jersey_experiment_5_v3,2023.2.2,Win32,85.47008547,,,,,,,,,,,,,,,,418.6499,420.2026,420.2026,422.4027,return,0.4704,,58.46354167,,,,,,FBP-RB-71.png,0.37,1.2,47,0.75,0,19,19,46,1,,,,,,,,,,,,,,,,,,,,,,,,,,,,,,,,,,,,,,,,
,,,,,V3_099,19,F,2025-02-04_14h34.12.399,jersey_experiment_5_v3,2023.2.2,Win32,85.47008547,,,,,,,,,,,,,,,,422.403,423.9557,423.9557,427.85,return,0.2635,,68.61979167,,,,,,FBP-PT-91.png,0.4,1.2,28,0.75,0,20,20,27,1,,,,,,,,,,,,,,,,,,,,,,,,,,,,,,,,,,,,,,,,
,,,,,V3_099,19,F,2025-02-04_14h34.12.399,jersey_experiment_5_v3,2023.2.2,Win32,85.47008547,,,,,,,,,,,,,,,,427.8503,429.4031,429.4031,430.9679,return,0.2745,,55.59895833,,,,,,FBP-PT-91.png,0.35,1.2,26,0.75,0,21,21,25,1,,,,,,,,,,,,,,,,,,,,,,,,,,,,,,,,,,,,,,,,
,,,,,V3_099,19,F,2025-02-04_14h34.12.399,jersey_experiment_5_v3,2023.2.2,Win32,85.47008547,,,,,,,,,,,,,,,,430.9681,432.2618,432.2618,433.5209,return,0.1413,,54.16666667,,,,,,FBP-OG-91.png,0.35,1.2,41,0.5,0,22,22,40,1,,,,,,,,,,,,,,,,,,,,,,,,,,,,,,,,,,,,,,,,
,,,,,V3_099,19,F,2025-02-04_14h34.12.399,jersey_experiment_5_v3,2023.2.2,Win32,85.47008547,,,,,,,,,,,,,,,,433.5212,435.0739,435.0739,438.3915,return,0.2659,,54.03645833,,,,,,FBP-RB-81.png,0.37,1.2,52,0.75,0,23,23,51,1,,,,,,,,,,,,,,,,,,,,,,,,,,,,,,,,,,,,,,,,
,,,,,V3_099,19,F,2025-02-04_14h34.12.399,jersey_experiment_5_v3,2023.2.2,Win32,85.47008547,,,,,,,,,,,,,,,,438.3918,439.9447,439.9447,441.6153,return,0.4486,,64.71354167,,,,,,FBP-YG-19.png,0.37,1.2,12,0.75,0,24,24,11,1,,,,,,,,,,,,,,,,,,,,,,,,,,,,,,,,,,,,,,,,
,,,,,V3_099,19,F,2025-02-04_14h34.12.399,jersey_experiment_5_v3,2023.2.2,Win32,85.47008547,,,,,,,,,,,,,,,,441.6156,443.1683,443.1683,444.0978,return,0.1971,,64.71354167,,,,,,FBP-YG-19.png,0.4,1.2,13,0.75,0,25,25,12,1,,,,,,,,,,,,,,,,,,,,,,,,,,,,,,,,,,,,,,,,
,,,,,V3_099,19,F,2025-02-04_14h34.12.399,jersey_experiment_5_v3,2023.2.2,Win32,85.47008547,,,,,,,,,,,,,,,,444.098,445.6507,445.6508,447.9919,return,0.3338,,64.84375,,,,,,FBP-YG-18.png,0.37,1.2,7,0.75,0,26,26,6,1,,,,,,,,,,,,,,,,,,,,,,,,,,,,,,,,,,,,,,,,
,,,,,V3_099,19,F,2025-02-04_14h34.12.399,jersey_experiment_5_v3,2023.2.2,Win32,85.47008547,,,,,,,,,,,,,,,,447.9921,449.545,449.545,452.498,return,0.3069,,65.234375,,,,,,FBP-PT-71.png,0.35,1.2,16,0.75,0,27,27,15,1,,,,,,,,,,,,,,,,,,,,,,,,,,,,,,,,,,,,,,,,
,,,,,V3_099,19,F,2025-02-04_14h34.12.399,jersey_experiment_5_v3,2023.2.2,Win32,85.47008547,,,,,,,,,,,,,,,,452.4982,454.0509,454.051,455.1805,return,0.153,,65.36458333,,,,,,FBP-YG-17.png,0.4,1.2,3,0.75,0,28,28,2,1,,,,,,,,,,,,,,,,,,,,,,,,,,,,,,,,,,,,,,,,
,,,,,V3_099,19,F,2025-02-04_14h34.12.399,jersey_experiment_5_v3,2023.2.2,Win32,85.47008547,,,,,,,,,,,,,,,,455.1807,456.7335,456.7336,459.7572,return,0.1566,,65.75520833,,,,,,FBP-RB-91.png,0.35,1.2,56,0.75,0,29,29,55,1,,,,,,,,,,,,,,,,,,,,,,,,,,,,,,,,,,,,,,,,
,,,,,V3_099,19,F,2025-02-04_14h34.12.399,jersey_experiment_5_v3,2023.2.2,Win32,85.47008547,,,,,,,,,,,,,,,,459.7575,461.3101,461.3101,463.2984,return,0.4793,,65.49479167,,,,,,FBP-YG-17.png,0.37,1.2,2,0.75,0,30,30,1,1,,,,,,,,,,,,,,,,,,,,,,,,,,,,,,,,,,,,,,,,
,,,,,V3_099,19,F,2025-02-04_14h34.12.399,jersey_experiment_5_v3,2023.2.2,Win32,85.47008547,,,,,,,,,,,,,,,,463.2985,464.8514,464.8514,466.5691,return,1.1597,,60.67708333,,,,,,FBP-RB-81.png,0.35,1.2,51,0.75,0,31,31,50,1,,,,,,,,,,,,,,,,,,,,,,,,,,,,,,,,,,,,,,,,
,,,,,V3_099,19,F,2025-02-04_14h34.12.399,jersey_experiment_5_v3,2023.2.2,Win32,85.47008547,,,,,,,,,,,,,,,,466.5693,468.1221,468.1221,469.6751,return,0.2724,,60.02604167,,,,,,FBP-PT-81.png,0.35,1.2,21,0.75,0,32,32,20,1,,,,,,,,,,,,,,,,,,,,,,,,,,,,,,,,,,,,,,,,
,,,,,V3_099,19,F,2025-02-04_14h34.12.399,jersey_experiment_5_v3,2023.2.2,Win32,85.47008547,,,,,,,,,,,,,,,,469.6754,471.228,471.2281,473.7928,return,0.1972,,77.08333333,,,,,,FBP-YG-19.png,0.45,1.2,15,0.75,0,33,33,14,1,,,,,,,,,,,,,,,,,,,,,,,,,,,,,,,,,,,,,,,,
,,,,,V3_099,19,F,2025-02-04_14h34.12.399,jersey_experiment_5_v3,2023.2.2,Win32,85.47008547,,,,,,,,,,,,,,,,473.7931,475.3458,475.3458,476.9107,return,0.1328,,82.55208333,,,,,,FBP-PT-71.png,0.45,1.2,20,0.75,0,34,34,19,1,,,,,,,,,,,,,,,,,,,,,,,,,,,,,,,,,,,,,,,,
,,,,,V3_099,19,F,2025-02-04_14h34.12.399,jersey_experiment_5_v3,2023.2.2,Win32,85.47008547,,,,,,,,,,,,,,,,476.9109,478.205,478.205,480.5933,return,0.1735,,78.90625,,,,,,FBP-OG-91.png,0.43,1.2,44,0.5,0,35,35,43,1,,,,,,,,,,,,,,,,,,,,,,,,,,,,,,,,,,,,,,,,
,,,,,V3_099,19,F,2025-02-04_14h34.12.399,jersey_experiment_5_v3,2023.2.2,Win32,85.47008547,,,,,,,,,,,,,,,,480.5934,481.8873,481.8873,483.1228,return,0.225,,78.77604167,,,,,,FBP-OG-81.png,0.43,1.2,39,0.5,0,36,36,38,1,,,,,,,,,,,,,,,,,,,,,,,,,,,,,,,,,,,,,,,,
,,,,,V3_099,19,F,2025-02-04_14h34.12.399,jersey_experiment_5_v3,2023.2.2,Win32,85.47008547,,,,,,,,,,,,,,,,483.1231,484.417,484.417,486.6052,return,0.8723,,60.28645833,,,,,,FBP-OG-71.png,0.35,1.2,31,0.5,0,37,37,30,1,,,,,,,,,,,,,,,,,,,,,,,,,,,,,,,,,,,,,,,,
,,,,,V3_099,19,F,2025-02-04_14h34.12.399,jersey_experiment_5_v3,2023.2.2,Win32,85.47008547,,,,,,,,,,,,,,,,486.6055,488.1582,488.1582,490.0288,return,0.3323,,83.203125,,,,,,FBP-YG-18.png,0.45,1.2,10,0.75,0,38,38,9,1,,,,,,,,,,,,,,,,,,,,,,,,,,,,,,,,,,,,,,,,
,,,,,V3_099,19,F,2025-02-04_14h34.12.399,jersey_experiment_5_v3,2023.2.2,Win32,85.47008547,,,,,,,,,,,,,,,,490.029,491.323,491.3231,493.7232,return,0.2012,,55.46875,,,,,,FBP-OG-71.png,0.37,1.2,32,0.5,0,39,39,31,1,,,,,,,,,,,,,,,,,,,,,,,,,,,,,,,,,,,,,,,,
,,,,,V3_099,19,F,2025-02-04_14h34.12.399,jersey_experiment_5_v3,2023.2.2,Win32,85.47008547,,,,,,,,,,,,,,,,493.7234,495.0172,495.0172,496.7939,return,0.2137,,79.55729167,,,,,,FBP-OG-71.png,0.43,1.2,34,0.5,0,40,40,33,1,,,,,,,,,,,,,,,,,,,,,,,,,,,,,,,,,,,,,,,,
,,,,,V3_099,19,F,2025-02-04_14h34.12.399,jersey_experiment_5_v3,2023.2.2,Win32,85.47008547,,,,,,,,,,,,,,,,496.7941,498.088,498.0881,501.5821,return,0.1664,,79.94791667,,,,,,FBP-OG-91.png,0.4,1.2,43,0.5,0,41,41,42,1,,,,,,,,,,,,,,,,,,,,,,,,,,,,,,,,,,,,,,,,
,,,,,V3_099,19,F,2025-02-04_14h34.12.399,jersey_experiment_5_v3,2023.2.2,Win32,85.47008547,,,,,,,,,,,,,,,,501.5824,503.1352,503.1353,504.8647,return,0.4157,,71.484375,,,,,,FBP-PT-71.png,0.4,1.2,18,0.75,0,42,42,17,1,,,,,,,,,,,,,,,,,,,,,,,,,,,,,,,,,,,,,,,,
,,,,,V3_099,19,F,2025-02-04_14h34.12.399,jersey_experiment_5_v3,2023.2.2,Win32,85.47008547,,,,,,,,,,,,,,,,504.865,506.1589,506.159,507.2177,return,0.2045,,71.875,,,,,,FBP-OG-81.png,0.37,1.2,37,0.5,0,43,43,36,1,,,,,,,,,,,,,,,,,,,,,,,,,,,,,,,,,,,,,,,,
,,,,,V3_099,19,F,2025-02-04_14h34.12.399,jersey_experiment_5_v3,2023.2.2,Win32,85.47008547,,,,,,,,,,,,,,,,507.218,508.7708,508.7708,510.0648,return,0.3686,,76.30208333,,,,,,FBP-RB-91.png,0.4,1.2,58,0.75,0,44,44,57,1,,,,,,,,,,,,,,,,,,,,,,,,,,,,,,,,,,,,,,,,
,,,,,V3_099,19,F,2025-02-04_14h34.12.399,jersey_experiment_5_v3,2023.2.2,Win32,85.47008547,,,,,,,,,,,,,,,,510.0652,511.618,511.618,512.7826,return,0.3543,,61.84895833,,,,,,FBP-YG-17.png,0.35,1.2,1,0.75,0,45,45,0,1,,,,,,,,,,,,,,,,,,,,,,,,,,,,,,,,,,,,,,,,
,,,,,V3_099,19,F,2025-02-04_14h34.12.399,jersey_experiment_5_v3,2023.2.2,Win32,85.47008547,,,,,,,,,,,,,,,,512.7828,514.3242,514.3242,516.0417,return,0.2619,,86.84895833,,,,,,FBP-PT-81.png,0.43,1.2,24,0.75,0,46,46,23,1,,,,,,,,,,,,,,,,,,,,,,,,,,,,,,,,,,,,,,,,
,,,,,V3_099,19,F,2025-02-04_14h34.12.399,jersey_experiment_5_v3,2023.2.2,Win32,85.47008547,,,,,,,,,,,,,,,,516.0419,517.5946,517.5946,519.1947,return,0.3938,,91.92708333,,,,,,FBP-RB-81.png,0.45,1.2,55,0.75,0,47,47,54,1,,,,,,,,,,,,,,,,,,,,,,,,,,,,,,,,,,,,,,,,
,,,,,V3_099,19,F,2025-02-04_14h34.12.399,jersey_experiment_5_v3,2023.2.2,Win32,85.47008547,,,,,,,,,,,,,,,,519.1948,520.7477,520.7478,521.7712,return,0.1931,,88.93229167,,,,,,FBP-RB-71.png,0.43,1.2,49,0.75,0,48,48,48,1,,,,,,,,,,,,,,,,,,,,,,,,,,,,,,,,,,,,,,,,
,,,,,V3_099,19,F,2025-02-04_14h34.12.399,jersey_experiment_5_v3,2023.2.2,Win32,85.47008547,,,,,,,,,,,,,,,,521.7715,523.3242,523.3242,524.6184,return,0.3899,,85.9375,,,,,,FBP-RB-71.png,0.4,1.2,48,0.75,0,49,49,47,1,,,,,,,,,,,,,,,,,,,,,,,,,,,,,,,,,,,,,,,,
,,,,,V3_099,19,F,2025-02-04_14h34.12.399,jersey_experiment_5_v3,2023.2.2,Win32,85.47008547,,,,,,,,,,,,,,,,524.6187,526.1713,526.1714,527.6891,return,1.0154,,91.27604167,,,,,,FBP-PT-71.png,0.43,1.2,19,0.75,0,50,50,18,1,,,,,,,,,,,,,,,,,,,,,,,,,,,,,,,,,,,,,,,,
,,,,,V3_099,19,F,2025-02-04_14h34.12.399,jersey_experiment_5_v3,2023.2.2,Win32,85.47008547,,,,,,,,,,,,,,,,527.6893,529.2421,529.2421,532.0187,return,1.8249,,68.48958333,,,,,,FBP-PT-81.png,0.37,1.2,22,0.75,0,51,51,21,1,,,,,,,,,,,,,,,,,,,,,,,,,,,,,,,,,,,,,,,,
,,,,,V3_099,19,F,2025-02-04_14h34.12.399,jersey_experiment_5_v3,2023.2.2,Win32,85.47008547,,,,,,,,,,,,,,,,532.0189,533.5719,533.5719,534.56,return,0.1799,,80.078125,,,,,,FBP-YG-17.png,0.45,1.2,5,0.75,0,52,52,4,1,,,,,,,,,,,,,,,,,,,,,,,,,,,,,,,,,,,,,,,,
,,,,,V3_099,19,F,2025-02-04_14h34.12.399,jersey_experiment_5_v3,2023.2.2,Win32,85.47008547,,,,,,,,,,,,,,,,534.5603,535.8542,535.8542,540.3131,return,3.2071,,57.55208333,,,,,,FBP-OG-81.png,0.35,1.2,36,0.5,0,53,53,35,1,,,,,,,,,,,,,,,,,,,,,,,,,,,,,,,,,,,,,,,,
,,,,,V3_099,19,F,2025-02-04_14h34.12.399,jersey_experiment_5_v3,2023.2.2,Win32,85.47008547,,,,,,,,,,,,,,,,540.3134,541.866,541.8661,543.7722,return,0.8509,,54.94791667,,,,,,FBP-YG-18.png,0.35,1.2,6,0.75,0,54,54,5,1,,,,,,,,,,,,,,,,,,,,,,,,,,,,,,,,,,,,,,,,
,,,,,V3_099,19,F,2025-02-04_14h34.12.399,jersey_experiment_5_v3,2023.2.2,Win32,85.47008547,,,,,,,,,,,,,,,,543.7724,545.3252,545.3252,547.8546,return,1.0335,,70.96354167,,,,,,FBP-RB-91.png,0.43,1.2,59,0.75,0,55,55,58,1,,,,,,,,,,,,,,,,,,,,,,,,,,,,,,,,,,,,,,,,
,,,,,V3_099,19,F,2025-02-04_14h34.12.399,jersey_experiment_5_v3,2023.2.2,Win32,85.47008547,,,,,,,,,,,,,,,,547.8549,549.4077,549.4077,550.6548,return,0.2037,,71.74479167,,,,,,FBP-PT-91.png,0.43,1.2,29,0.75,0,56,56,28,1,,,,,,,,,,,,,,,,,,,,,,,,,,,,,,,,,,,,,,,,
,,,,,V3_099,19,F,2025-02-04_14h34.12.399,jersey_experiment_5_v3,2023.2.2,Win32,85.47008547,,,,,,,,,,,,,,,,550.655,552.2077,552.2077,555.0901,return,1.8705,,83.984375,,,,,,FBP-RB-71.png,0.45,1.2,50,0.75,0,57,57,49,1,,,,,,,,,,,,,,,,,,,,,,,,,,,,,,,,,,,,,,,,
,,,,,V3_099,19,F,2025-02-04_14h34.12.399,jersey_experiment_5_v3,2023.2.2,Win32,85.47008547,,,,,,,,,,,,,,,,555.0905,556.6432,556.6433,557.3373,return,0.1833,,83.984375,,,,,,FBP-PT-91.png,0.45,1.2,30,0.75,0,58,58,29,1,,,,,,,,,,,,,,,,,,,,,,,,,,,,,,,,,,,,,,,,
,,,,,V3_099,19,F,2025-02-04_14h34.12.399,jersey_experiment_5_v3,2023.2.2,Win32,85.47008547,,,,,,,,,,,,,,,,557.3375,558.8902,558.8903,559.7257,return,0.3789,,83.984375,,,,,,FBP-RB-91.png,0.45,1.2,60,0.75,0,59,59,59,1,,,,,,,,,,,,,,,,,,,,,,,,,,,,,,,,,,,,,,,,
,,,,,V3_099,19,F,2025-02-04_14h34.12.399,jersey_experiment_5_v3,2023.2.2,Win32,85.47008547,,,,,,,,,,,,,,,,,,,,,,,,,,,,,,,,,,,,,,,559.7258,679.7187,,,,,,,,,,,,,,,,,,,,,,,,,,,,,,,,,,,,,,
,,,,,V3_099,19,F,2025-02-04_14h34.12.399,jersey_experiment_5_v3,2023.2.2,Win32,85.47008547,,,,,,,,,,,,,,,,,,,,,,,,,,,,,,,,,,,,,,,,,679.7188,697.7429,return,18.0149,,,,,,,,,,,,,,,,,,,,,,,,,,,,,,,,,,
,,,,,V3_099,19,F,2025-02-04_14h34.12.399,jersey_experiment_5_v3,2023.2.2,Win32,85.47008547,,,,,,,,,,,,,,,,697.7445,699.0367,699.0368,704.1547,return,1.6996,,62.63020833,,,,,,FBP-RB-19.png,0.43,1.2,59,0.5,,,,,,,,,,,,,0,0,0,58,1,,,,,,,,,,,,,,,,,,,,,,,,,,,,
,,,,,V3_099,19,F,2025-02-04_14h34.12.399,jersey_experiment_5_v3,2023.2.2,Win32,85.47008547,,,,,,,,,,,,,,,,704.155,705.449,705.449,707.0372,return,0.1413,,74.21875,,,,,,FBP-PT-17.png,0.45,1.2,20,0.5,,,,,,,,,,,,,0,1,1,19,1,,,,,,,,,,,,,,,,,,,,,,,,,,,,
,,,,,V3_099,19,F,2025-02-04_14h34.12.399,jersey_experiment_5_v3,2023.2.2,Win32,85.47008547,,,,,,,,,,,,,,,,707.0374,708.3312,708.3313,710.8137,return,1.8224,,58.33333333,,,,,,FBP-YG-71.png,0.35,1.2,1,0.5,,,,,,,,,,,,,0,2,2,0,1,,,,,,,,,,,,,,,,,,,,,,,,,,,,
,,,,,V3_099,19,F,2025-02-04_14h34.12.399,jersey_experiment_5_v3,2023.2.2,Win32,85.47008547,,,,,,,,,,,,,,,,710.814,712.3668,712.3668,713.4021,return,0.1789,,58.07291667,,,,,,FBP-OG-17.png,0.35,1.2,31,0.75,,,,,,,,,,,,,0,3,3,30,1,,,,,,,,,,,,,,,,,,,,,,,,,,,,
,,,,,V3_099,19,F,2025-02-04_14h34.12.399,jersey_experiment_5_v3,2023.2.2,Win32,85.47008547,,,,,,,,,,,,,,,,713.4024,714.6962,714.6963,716.8258,return,1.5004,,70.44270833,,,,,,FBP-RB-17.png,0.4,1.2,48,0.5,,,,,,,,,,,,,0,4,4,47,1,,,,,,,,,,,,,,,,,,,,,,,,,,,,
,,,,,V3_099,19,F,2025-02-04_14h34.12.399,jersey_experiment_5_v3,2023.2.2,Win32,85.47008547,,,,,,,,,,,,,,,,716.826,718.3789,718.379,719.5316,return,0.121,,68.359375,,,,,,FBP-OG-18.png,0.37,1.2,37,0.75,,,,,,,,,,,,,0,5,5,36,1,,,,,,,,,,,,,,,,,,,,,,,,,,,,
,,,,,V3_099,19,F,2025-02-04_14h34.12.399,jersey_experiment_5_v3,2023.2.2,Win32,85.47008547,,,,,,,,,,,,,,,,719.532,720.8259,720.8259,721.6612,return,0.1284,,66.796875,,,,,,FBP-YG-81.png,0.37,1.2,7,0.5,,,,,,,,,,,,,0,6,6,6,1,,,,,,,,,,,,,,,,,,,,,,,,,,,,
,,,,,V3_099,19,F,2025-02-04_14h34.12.399,jersey_experiment_5_v3,2023.2.2,Win32,85.47008547,,,,,,,,,,,,,,,,721.6614,722.9553,722.9554,723.9789,return,0.37,,63.02083333,,,,,,FBP-RB-17.png,0.35,1.2,46,0.5,,,,,,,,,,,,,0,7,7,45,1,,,,,,,,,,,,,,,,,,,,,,,,,,,,
,,,,,V3_099,19,F,2025-02-04_14h34.12.399,jersey_experiment_5_v3,2023.2.2,Win32,85.47008547,,,,,,,,,,,,,,,,723.9792,725.2732,725.2732,725.932,return,0.2277,,61.84895833,,,,,,FBP-YG-91.png,0.35,1.2,11,0.5,,,,,,,,,,,,,0,8,8,10,1,,,,,,,,,,,,,,,,,,,,,,,,,,,,
,,,,,V3_099,19,F,2025-02-04_14h34.12.399,jersey_experiment_5_v3,2023.2.2,Win32,85.47008547,,,,,,,,,,,,,,,,725.9323,727.2261,727.2261,729.0968,return,0.8859,,93.22916667,,,,,,FBP-RB-19.png,0.45,1.2,60,0.5,,,,,,,,,,,,,0,9,9,59,1,,,,,,,,,,,,,,,,,,,,,,,,,,,,
,,,,,V3_099,19,F,2025-02-04_14h34.12.399,jersey_experiment_5_v3,2023.2.2,Win32,85.47008547,,,,,,,,,,,,,,,,729.097,730.3909,730.391,731.4851,return,0.1336,,92.44791667,,,,,,FBP-YG-71.png,0.45,1.2,5,0.5,,,,,,,,,,,,,0,10,10,4,1,,,,,,,,,,,,,,,,,,,,,,,,,,,,
,,,,,V3_099,19,F,2025-02-04_14h34.12.399,jersey_experiment_5_v3,2023.2.2,Win32,85.47008547,,,,,,,,,,,,,,,,731.4853,732.7793,732.7793,733.6263,return,0.193,,91.53645833,,,,,,FBP-PT-19.png,0.43,1.2,29,0.5,,,,,,,,,,,,,0,11,11,28,1,,,,,,,,,,,,,,,,,,,,,,,,,,,,
,,,,,V3_099,19,F,2025-02-04_14h34.12.399,jersey_experiment_5_v3,2023.2.2,Win32,85.47008547,,,,,,,,,,,,,,,,733.6266,734.9208,734.9208,736.297,return,0.1325,,79.6875,,,,,,FBP-PT-19.png,0.37,1.2,27,0.5,,,,,,,,,,,,,0,12,12,26,1,,,,,,,,,,,,,,,,,,,,,,,,,,,,
,,,,,V3_099,19,F,2025-02-04_14h34.12.399,jersey_experiment_5_v3,2023.2.2,Win32,85.47008547,,,,,,,,,,,,,,,,736.2973,737.8501,737.8501,738.5088,return,0.1778,,92.1875,,,,,,FBP-OG-18.png,0.45,1.2,40,0.75,,,,,,,,,,,,,0,13,13,39,1,,,,,,,,,,,,,,,,,,,,,,,,,,,,
,,,,,V3_099,19,F,2025-02-04_14h34.12.399,jersey_experiment_5_v3,2023.2.2,Win32,85.47008547,,,,,,,,,,,,,,,,738.509,739.8031,739.8031,741.7914,return,1.2964,,71.61458333,,,,,,FBP-PT-17.png,0.35,1.2,16,0.5,,,,,,,,,,,,,0,14,14,15,1,,,,,,,,,,,,,,,,,,,,,,,,,,,,
,,,,,V3_099,19,F,2025-02-04_14h34.12.399,jersey_experiment_5_v3,2023.2.2,Win32,85.47008547,,,,,,,,,,,,,,,,741.7916,743.0857,743.0857,743.8503,return,0.2177,,71.09375,,,,,,FBP-PT-19.png,0.35,1.2,26,0.5,,,,,,,,,,,,,0,15,15,25,1,,,,,,,,,,,,,,,,,,,,,,,,,,,,
,,,,,V3_099,19,F,2025-02-04_14h34.12.399,jersey_experiment_5_v3,2023.2.2,Win32,85.47008547,,,,,,,,,,,,,,,,743.8505,745.1444,745.1445,746.827,return,0.7315,,89.97395833,,,,,,FBP-YG-91.png,0.45,1.2,15,0.5,,,,,,,,,,,,,0,16,16,14,1,,,,,,,,,,,,,,,,,,,,,,,,,,,,
,,,,,V3_099,19,F,2025-02-04_14h34.12.399,jersey_experiment_5_v3,2023.2.2,Win32,85.47008547,,,,,,,,,,,,,,,,746.8272,748.3799,748.38,751.474,return,1.703,,69.79166667,,,,,,FBP-OG-19.png,0.4,1.2,43,0.75,,,,,,,,,,,,,0,17,17,42,1,,,,,,,,,,,,,,,,,,,,,,,,,,,,
,,,,,V3_099,19,F,2025-02-04_14h34.12.399,jersey_experiment_5_v3,2023.2.2,Win32,85.47008547,,,,,,,,,,,,,,,,751.4742,752.7682,752.7682,753.7449,return,0.1416,,72.00520833,,,,,,FBP-YG-81.png,0.4,1.2,8,0.5,,,,,,,,,,,,,0,18,18,7,1,,,,,,,,,,,,,,,,,,,,,,,,,,,,
,,,,,V3_099,19,F,2025-02-04_14h34.12.399,jersey_experiment_5_v3,2023.2.2,Win32,85.47008547,,,,,,,,,,,,,,,,753.7451,755.0388,755.0388,756.5684,return,0.7489,,64.32291667,,,,,,FBP-YG-91.png,0.37,1.2,12,0.5,,,,,,,,,,,,,0,19,19,11,1,,,,,,,,,,,,,,,,,,,,,,,,,,,,
,,,,,V3_099,19,F,2025-02-04_14h34.12.399,jersey_experiment_5_v3,2023.2.2,Win32,85.47008547,,,,,,,,,,,,,,,,756.5687,758.1217,758.1217,759.8155,return,0.2168,,66.40625,,,,,,FBP-OG-18.png,0.4,1.2,38,0.75,,,,,,,,,,,,,0,20,20,37,1,,,,,,,,,,,,,,,,,,,,,,,,,,,,
,,,,,V3_099,19,F,2025-02-04_14h34.12.399,jersey_experiment_5_v3,2023.2.2,Win32,85.47008547,,,,,,,,,,,,,,,,759.8158,761.1098,761.1099,762.0746,return,0.1821,,74.609375,,,,,,FBP-YG-71.png,0.43,1.2,4,0.5,,,,,,,,,,,,,0,21,21,3,1,,,,,,,,,,,,,,,,,,,,,,,,,,,,
,,,,,V3_099,19,F,2025-02-04_14h34.12.399,jersey_experiment_5_v3,2023.2.2,Win32,85.47008547,,,,,,,,,,,,,,,,762.0748,763.3686,763.3687,764.2865,return,0.226,,77.21354167,,,,,,FBP-RB-17.png,0.45,1.2,50,0.5,,,,,,,,,,,,,0,22,22,49,1,,,,,,,,,,,,,,,,,,,,,,,,,,,,
,,,,,V3_099,19,F,2025-02-04_14h34.12.399,jersey_experiment_5_v3,2023.2.2,Win32,85.47008547,,,,,,,,,,,,,,,,764.2866,765.5806,765.5806,766.6511,return,0.1547,,71.484375,,,,,,FBP-RB-18.png,0.4,1.2,53,0.5,,,,,,,,,,,,,0,23,23,52,1,,,,,,,,,,,,,,,,,,,,,,,,,,,,
,,,,,V3_099,19,F,2025-02-04_14h34.12.399,jersey_experiment_5_v3,2023.2.2,Win32,85.47008547,,,,,,,,,,,,,,,,766.6513,767.9453,767.9453,769.0159,return,0.1221,,68.22916667,,,,,,FBP-RB-19.png,0.37,1.2,57,0.5,,,,,,,,,,,,,0,24,24,56,1,,,,,,,,,,,,,,,,,,,,,,,,,,,,
,,,,,V3_099,19,F,2025-02-04_14h34.12.399,jersey_experiment_5_v3,2023.2.2,Win32,85.47008547,,,,,,,,,,,,,,,,769.0162,770.3102,770.3102,771.9455,return,0.2741,,85.546875,,,,,,FBP-PT-18.png,0.4,1.2,23,0.5,,,,,,,,,,,,,0,25,25,22,1,,,,,,,,,,,,,,,,,,,,,,,,,,,,
,,,,,V3_099,19,F,2025-02-04_14h34.12.399,jersey_experiment_5_v3,2023.2.2,Win32,85.47008547,,,,,,,,,,,,,,,,771.9457,773.2396,773.2396,774.0162,return,0.2205,,69.01041667,,,,,,FBP-PT-17.png,0.37,1.2,17,0.5,,,,,,,,,,,,,0,26,26,16,1,,,,,,,,,,,,,,,,,,,,,,,,,,,,
,,,,,V3_099,19,F,2025-02-04_14h34.12.399,jersey_experiment_5_v3,2023.2.2,Win32,85.47008547,,,,,,,,,,,,,,,,774.0164,775.3102,775.3103,776.2515,return,0.1307,,69.53125,,,,,,FBP-RB-17.png,0.37,1.2,47,0.5,,,,,,,,,,,,,0,27,27,46,1,,,,,,,,,,,,,,,,,,,,,,,,,,,,
,,,,,V3_099,19,F,2025-02-04_14h34.12.399,jersey_experiment_5_v3,2023.2.2,Win32,85.47008547,,,,,,,,,,,,,,,,776.2518,777.8045,777.8045,780.3459,return,1.4418,,62.63020833,,,,,,FBP-OG-19.png,0.37,1.2,42,0.75,,,,,,,,,,,,,0,28,28,41,1,,,,,,,,,,,,,,,,,,,,,,,,,,,,
,,,,,V3_099,19,F,2025-02-04_14h34.12.399,jersey_experiment_5_v3,2023.2.2,Win32,85.47008547,,,,,,,,,,,,,,,,780.346,781.6399,781.6399,783.0988,return,0.7194,,74.34895833,,,,,,FBP-RB-17.png,0.43,1.2,49,0.5,,,,,,,,,,,,,0,29,29,48,1,,,,,,,,,,,,,,,,,,,,,,,,,,,,
,,,,,V3_099,19,F,2025-02-04_14h34.12.399,jersey_experiment_5_v3,2023.2.2,Win32,85.47008547,,,,,,,,,,,,,,,,783.0991,784.393,784.3931,785.3931,return,0.1658,,81.25,,,,,,FBP-PT-17.png,0.43,1.2,19,0.5,,,,,,,,,,,,,0,30,30,18,1,,,,,,,,,,,,,,,,,,,,,,,,,,,,
,,,,,V3_099,19,F,2025-02-04_14h34.12.399,jersey_experiment_5_v3,2023.2.2,Win32,85.47008547,,,,,,,,,,,,,,,,785.3933,786.9462,786.9462,787.6637,return,0.2357,,83.72395833,,,,,,FBP-OG-19.png,0.45,1.2,45,0.75,,,,,,,,,,,,,0,31,31,44,1,,,,,,,,,,,,,,,,,,,,,,,,,,,,
,,,,,V3_099,19,F,2025-02-04_14h34.12.399,jersey_experiment_5_v3,2023.2.2,Win32,85.47008547,,,,,,,,,,,,,,,,787.664,788.9578,788.9579,790.1463,return,0.2364,,58.33333333,,,,,,FBP-PT-18.png,0.35,1.2,21,0.5,,,,,,,,,,,,,0,32,32,20,1,,,,,,,,,,,,,,,,,,,,,,,,,,,,
,,,,,V3_099,19,F,2025-02-04_14h34.12.399,jersey_experiment_5_v3,2023.2.2,Win32,85.47008547,,,,,,,,,,,,,,,,790.1464,791.4403,791.4403,792.4287,return,0.1802,,64.58333333,,,,,,FBP-PT-17.png,0.4,1.2,18,0.5,,,,,,,,,,,,,0,33,33,17,1,,,,,,,,,,,,,,,,,,,,,,,,,,,,
,,,,,V3_099,19,F,2025-02-04_14h34.12.399,jersey_experiment_5_v3,2023.2.2,Win32,85.47008547,,,,,,,,,,,,,,,,792.429,793.9818,793.9819,795.523,return,1.0903,,91.015625,,,,,,FBP-OG-17.png,0.45,1.2,35,0.75,,,,,,,,,,,,,0,34,34,34,1,,,,,,,,,,,,,,,,,,,,,,,,,,,,
,,,,,V3_099,19,F,2025-02-04_14h34.12.399,jersey_experiment_5_v3,2023.2.2,Win32,85.47008547,,,,,,,,,,,,,,,,795.5232,796.8171,796.8171,797.6405,return,0.1255,,63.41145833,,,,,,FBP-RB-18.png,0.37,1.2,52,0.5,,,,,,,,,,,,,0,35,35,51,1,,,,,,,,,,,,,,,,,,,,,,,,,,,,
,,,,,V3_099,19,F,2025-02-04_14h34.12.399,jersey_experiment_5_v3,2023.2.2,Win32,85.47008547,,,,,,,,,,,,,,,,797.6407,799.182,799.182,799.7465,return,0.1335,,66.015625,,,,,,FBP-OG-19.png,0.35,1.2,41,0.75,,,,,,,,,,,,,0,36,36,40,1,,,,,,,,,,,,,,,,,,,,,,,,,,,,
,,,,,V3_099,19,F,2025-02-04_14h34.12.399,jersey_experiment_5_v3,2023.2.2,Win32,85.47008547,,,,,,,,,,,,,,,,799.7468,801.2995,801.2995,802.029,return,0.1173,,67.578125,,,,,,FBP-OG-17.png,0.4,1.2,33,0.75,,,,,,,,,,,,,0,37,37,32,1,,,,,,,,,,,,,,,,,,,,,,,,,,,,
,,,,,V3_099,19,F,2025-02-04_14h34.12.399,jersey_experiment_5_v3,2023.2.2,Win32,85.47008547,,,,,,,,,,,,,,,,802.0293,803.3231,803.3232,804.4408,return,0.1485,,91.53645833,,,,,,FBP-YG-81.png,0.45,1.2,10,0.5,,,,,,,,,,,,,0,38,38,9,1,,,,,,,,,,,,,,,,,,,,,,,,,,,,
,,,,,V3_099,19,F,2025-02-04_14h34.12.399,jersey_experiment_5_v3,2023.2.2,Win32,85.47008547,,,,,,,,,,,,,,,,804.441,805.9939,805.9941,808.1705,return,1.1559,,65.234375,,,,,,FBP-OG-18.png,0.43,1.2,39,0.75,,,,,,,,,,,,,0,39,39,38,1,,,,,,,,,,,,,,,,,,,,,,,,,,,,
,,,,,V3_099,19,F,2025-02-04_14h34.12.399,jersey_experiment_5_v3,2023.2.2,Win32,85.47008547,,,,,,,,,,,,,,,,808.1708,809.4646,809.4647,810.0764,return,0.1331,,61.84895833,,,,,,FBP-YG-71.png,0.4,1.2,3,0.5,,,,,,,,,,,,,0,40,40,2,1,,,,,,,,,,,,,,,,,,,,,,,,,,,,
,,,,,V3_099,19,F,2025-02-04_14h34.12.399,jersey_experiment_5_v3,2023.2.2,Win32,85.47008547,,,,,,,,,,,,,,,,810.0767,811.3708,811.3708,812.1941,return,0.0857,,92.31770833,,,,,,FBP-PT-19.png,0.45,1.2,30,0.5,,,,,,,,,,,,,0,41,41,29,1,,,,,,,,,,,,,,,,,,,,,,,,,,,,
,,,,,V3_099,19,F,2025-02-04_14h34.12.399,jersey_experiment_5_v3,2023.2.2,Win32,85.47008547,,,,,,,,,,,,,,,,812.1943,813.4883,813.4883,815.0176,return,0.4415,,70.57291667,,,,,,FBP-PT-18.png,0.37,1.2,22,0.5,,,,,,,,,,,,,0,42,42,21,1,,,,,,,,,,,,,,,,,,,,,,,,,,,,
,,,,,V3_099,19,F,2025-02-04_14h34.12.399,jersey_experiment_5_v3,2023.2.2,Win32,85.47008547,,,,,,,,,,,,,,,,815.0179,816.5708,816.571,818.0649,return,0.918,,88.54166667,,,,,,FBP-OG-17.png,0.43,1.2,34,0.75,,,,,,,,,,,,,0,43,43,33,1,,,,,,,,,,,,,,,,,,,,,,,,,,,,
,,,,,V3_099,19,F,2025-02-04_14h34.12.399,jersey_experiment_5_v3,2023.2.2,Win32,85.47008547,,,,,,,,,,,,,,,,818.0651,819.3592,819.3592,820.9239,return,0.5808,,90.36458333,,,,,,FBP-YG-81.png,0.43,1.2,9,0.5,,,,,,,,,,,,,0,44,44,8,1,,,,,,,,,,,,,,,,,,,,,,,,,,,,
,,,,,V3_099,19,F,2025-02-04_14h34.12.399,jersey_experiment_5_v3,2023.2.2,Win32,85.47008547,,,,,,,,,,,,,,,,820.9241,822.2181,822.2182,823.9946,return,1.0175,,68.75,,,,,,FBP-RB-19.png,0.4,1.2,58,0.5,,,,,,,,,,,,,0,45,45,57,1,,,,,,,,,,,,,,,,,,,,,,,,,,,,
,,,,,V3_099,19,F,2025-02-04_14h34.12.399,jersey_experiment_5_v3,2023.2.2,Win32,85.47008547,,,,,,,,,,,,,,,,823.9947,825.2889,825.289,826.0652,return,0.1648,,55.859375,,,,,,FBP-YG-81.png,0.35,1.2,6,0.5,,,,,,,,,,,,,0,46,46,5,1,,,,,,,,,,,,,,,,,,,,,,,,,,,,
,,,,,V3_099,19,F,2025-02-04_14h34.12.399,jersey_experiment_5_v3,2023.2.2,Win32,85.47008547,,,,,,,,,,,,,,,,826.0653,827.3593,827.3594,828.7594,return,0.138,,90.75520833,,,,,,FBP-PT-18.png,0.45,1.2,25,0.5,,,,,,,,,,,,,0,47,47,24,1,,,,,,,,,,,,,,,,,,,,,,,,,,,,
,,,,,V3_099,19,F,2025-02-04_14h34.12.399,jersey_experiment_5_v3,2023.2.2,Win32,85.47008547,,,,,,,,,,,,,,,,828.7596,830.0535,830.0535,831.042,return,0.1789,,93.61979167,,,,,,FBP-PT-18.png,0.43,1.2,24,0.5,,,,,,,,,,,,,0,48,48,23,1,,,,,,,,,,,,,,,,,,,,,,,,,,,,
,,,,,V3_099,19,F,2025-02-04_14h34.12.399,jersey_experiment_5_v3,2023.2.2,Win32,85.47008547,,,,,,,,,,,,,,,,831.0422,832.3362,832.3362,833.7948,return,0.5334,,80.859375,,,,,,FBP-PT-19.png,0.4,1.2,28,0.5,,,,,,,,,,,,,0,49,49,27,1,,,,,,,,,,,,,,,,,,,,,,,,,,,,
,,,,,V3_099,19,F,2025-02-04_14h34.12.399,jersey_experiment_5_v3,2023.2.2,Win32,85.47008547,,,,,,,,,,,,,,,,833.7951,835.3481,835.3482,836.1949,return,0.3687,,85.80729167,,,,,,FBP-OG-19.png,0.43,1.2,44,0.75,,,,,,,,,,,,,0,50,50,43,1,,,,,,,,,,,,,,,,,,,,,,,,,,,,
,,,,,V3_099,19,F,2025-02-04_14h34.12.399,jersey_experiment_5_v3,2023.2.2,Win32,85.47008547,,,,,,,,,,,,,,,,836.1952,837.4891,837.4891,838.3362,return,0.19,,66.66666667,,,,,,FBP-RB-19.png,0.35,1.2,56,0.5,,,,,,,,,,,,,0,51,51,55,1,,,,,,,,,,,,,,,,,,,,,,,,,,,,
,,,,,V3_099,19,F,2025-02-04_14h34.12.399,jersey_experiment_5_v3,2023.2.2,Win32,85.47008547,,,,,,,,,,,,,,,,838.3364,839.8893,839.8893,841.1951,return,0.3654,,60.41666667,,,,,,FBP-OG-18.png,0.35,1.2,36,0.75,,,,,,,,,,,,,0,52,52,35,1,,,,,,,,,,,,,,,,,,,,,,,,,,,,
,,,,,V3_099,19,F,2025-02-04_14h34.12.399,jersey_experiment_5_v3,2023.2.2,Win32,85.47008547,,,,,,,,,,,,,,,,841.1951,842.7367,842.7367,844.1834,return,0.4664,,57.55208333,,,,,,FBP-OG-17.png,0.37,1.2,32,0.75,,,,,,,,,,,,,0,53,53,31,1,,,,,,,,,,,,,,,,,,,,,,,,,,,,
,,,,,V3_099,19,F,2025-02-04_14h34.12.399,jersey_experiment_5_v3,2023.2.2,Win32,85.47008547,,,,,,,,,,,,,,,,844.1837,845.4776,845.4777,847.0072,return,0.2599,,88.02083333,,,,,,FBP-RB-18.png,0.45,1.2,55,0.5,,,,,,,,,,,,,0,54,54,54,1,,,,,,,,,,,,,,,,,,,,,,,,,,,,
,,,,,V3_099,19,F,2025-02-04_14h34.12.399,jersey_experiment_5_v3,2023.2.2,Win32,85.47008547,,,,,,,,,,,,,,,,847.0075,848.3013,848.3014,849.5839,return,0.2824,,87.109375,,,,,,FBP-YG-91.png,0.4,1.2,13,0.5,,,,,,,,,,,,,0,55,55,12,1,,,,,,,,,,,,,,,,,,,,,,,,,,,,
,,,,,V3_099,19,F,2025-02-04_14h34.12.399,jersey_experiment_5_v3,2023.2.2,Win32,85.47008547,,,,,,,,,,,,,,,,849.584,850.878,850.878,851.9133,return,0.2413,,61.19791667,,,,,,FBP-RB-18.png,0.35,1.2,51,0.5,,,,,,,,,,,,,0,56,56,50,1,,,,,,,,,,,,,,,,,,,,,,,,,,,,
,,,,,V3_099,19,F,2025-02-04_14h34.12.399,jersey_experiment_5_v3,2023.2.2,Win32,85.47008547,,,,,,,,,,,,,,,,851.9135,853.2073,853.2074,853.984,return,0.1621,,59.24479167,,,,,,FBP-YG-71.png,0.37,1.2,2,0.5,,,,,,,,,,,,,0,57,57,1,1,,,,,,,,,,,,,,,,,,,,,,,,,,,,
,,,,,V3_099,19,F,2025-02-04_14h34.12.399,jersey_experiment_5_v3,2023.2.2,Win32,85.47008547,,,,,,,,,,,,,,,,853.9842,855.2782,855.2783,856.2193,return,0.0725,,87.5,,,,,,FBP-YG-91.png,0.43,1.2,14,0.5,,,,,,,,,,,,,0,58,58,13,1,,,,,,,,,,,,,,,,,,,,,,,,,,,,
,,,,,V3_099,19,F,2025-02-04_14h34.12.399,jersey_experiment_5_v3,2023.2.2,Win32,85.47008547,,,,,,,,,,,,,,,,856.2195,857.5135,857.5136,858.3488,return,0.1295,,91.53645833,,,,,,FBP-RB-18.png,0.43,1.2,54,0.5,,,,,,,,,,,,,0,59,59,53,1,,,,,,,,,,,,,,,,,,,,,,,,,,,,
,,,,,V3_099,19,F,2025-02-04_14h34.12.399,jersey_experiment_5_v3,2023.2.2,Win32,85.47008547,,,,,,,,,,,,,,,,858.35,859.6431,859.6431,860.6902,return,0.1202,,63.15104167,,,,,,FBP-PT-91.png,0.37,1.2,27,0.5,,,,,,,,,,,,,,,,,,0,0,0,26,1,,,,,,,,,,,,,,,,,,,,,,,
,,,,,V3_099,19,F,2025-02-04_14h34.12.399,jersey_experiment_5_v3,2023.2.2,Win32,85.47008547,,,,,,,,,,,,,,,,860.6904,861.9844,861.9845,863.0431,return,0.0942,,91.14583333,,,,,,FBP-PT-91.png,0.45,1.2,30,0.5,,,,,,,,,,,,,,,,,,0,1,1,29,1,,,,,,,,,,,,,,,,,,,,,,,
,,,,,V3_099,19,F,2025-02-04_14h34.12.399,jersey_experiment_5_v3,2023.2.2,Win32,85.47008547,,,,,,,,,,,,,,,,863.0433,864.3373,864.3374,865.6078,return,0.0907,,70.83333333,,,,,,FBP-YG-17.png,0.43,1.2,4,0.5,,,,,,,,,,,,,,,,,,0,2,2,3,1,,,,,,,,,,,,,,,,,,,,,,,
,,,,,V3_099,19,F,2025-02-04_14h34.12.399,jersey_experiment_5_v3,2023.2.2,Win32,85.47008547,,,,,,,,,,,,,,,,865.608,866.9019,866.9019,868.0668,return,0.0809,,55.859375,,,,,,FBP-YG-17.png,0.35,1.2,1,0.5,,,,,,,,,,,,,,,,,,0,3,3,0,1,,,,,,,,,,,,,,,,,,,,,,,
,,,,,V3_099,19,F,2025-02-04_14h34.12.399,jersey_experiment_5_v3,2023.2.2,Win32,85.47008547,,,,,,,,,,,,,,,,868.067,869.3611,869.3611,870.4787,return,0.3207,,92.44791667,,,,,,FBP-PT-71.png,0.45,1.2,20,0.5,,,,,,,,,,,,,,,,,,0,4,4,19,1,,,,,,,,,,,,,,,,,,,,,,,
,,,,,V3_099,19,F,2025-02-04_14h34.12.399,jersey_experiment_5_v3,2023.2.2,Win32,85.47008547,,,,,,,,,,,,,,,,870.4789,872.0317,872.0317,873.0081,return,0.1051,,57.421875,,,,,,FBP-OG-91.png,0.35,1.2,41,0.75,,,,,,,,,,,,,,,,,,0,5,5,40,1,,,,,,,,,,,,,,,,,,,,,,,
,,,,,V3_099,19,F,2025-02-04_14h34.12.399,jersey_experiment_5_v3,2023.2.2,Win32,85.47008547,,,,,,,,,,,,,,,,873.0084,874.3024,874.3024,875.0907,return,0.1151,,69.921875,,,,,,FBP-RB-91.png,0.4,1.2,58,0.5,,,,,,,,,,,,,,,,,,0,6,6,57,1,,,,,,,,,,,,,,,,,,,,,,,
,,,,,V3_099,19,F,2025-02-04_14h34.12.399,jersey_experiment_5_v3,2023.2.2,Win32,85.47008547,,,,,,,,,,,,,,,,875.091,876.3849,876.385,878.3378,return,0.1072,,71.22395833,,,,,,FBP-PT-71.png,0.4,1.2,18,0.5,,,,,,,,,,,,,,,,,,0,7,7,17,1,,,,,,,,,,,,,,,,,,,,,,,
,,,,,V3_099,19,F,2025-02-04_14h34.12.399,jersey_experiment_5_v3,2023.2.2,Win32,85.47008547,,,,,,,,,,,,,,,,878.338,879.6321,879.6322,880.479,return,0.1093,,59.11458333,,,,,,FBP-YG-18.png,0.35,1.2,6,0.5,,,,,,,,,,,,,,,,,,0,8,8,5,1,,,,,,,,,,,,,,,,,,,,,,,
,,,,,V3_099,19,F,2025-02-04_14h34.12.399,jersey_experiment_5_v3,2023.2.2,Win32,85.47008547,,,,,,,,,,,,,,,,880.4793,882.0322,882.0323,882.538,return,0.1238,,57.421875,,,,,,FBP-OG-91.png,0.37,1.2,42,0.75,,,,,,,,,,,,,,,,,,0,9,9,41,1,,,,,,,,,,,,,,,,,,,,,,,
,,,,,V3_099,19,F,2025-02-04_14h34.12.399,jersey_experiment_5_v3,2023.2.2,Win32,85.47008547,,,,,,,,,,,,,,,,882.5382,883.8322,883.8322,884.8086,return,0.3493,,80.078125,,,,,,FBP-PT-81.png,0.45,1.2,25,0.5,,,,,,,,,,,,,,,,,,0,10,10,24,1,,,,,,,,,,,,,,,,,,,,,,,
,,,,,V3_099,19,F,2025-02-04_14h34.12.399,jersey_experiment_5_v3,2023.2.2,Win32,85.47008547,,,,,,,,,,,,,,,,884.8089,886.1028,886.1028,886.9734,return,0.0936,,80.98958333,,,,,,FBP-RB-71.png,0.43,1.2,49,0.5,,,,,,,,,,,,,,,,,,0,11,11,48,1,,,,,,,,,,,,,,,,,,,,,,,
,,,,,V3_099,19,F,2025-02-04_14h34.12.399,jersey_experiment_5_v3,2023.2.2,Win32,85.47008547,,,,,,,,,,,,,,,,886.9736,888.2677,888.2678,888.8911,return,0.1538,,68.09895833,,,,,,FBP-PT-81.png,0.37,1.2,22,0.5,,,,,,,,,,,,,,,,,,0,12,12,21,1,,,,,,,,,,,,,,,,,,,,,,,
,,,,,V3_099,19,F,2025-02-04_14h34.12.399,jersey_experiment_5_v3,2023.2.2,Win32,85.47008547,,,,,,,,,,,,,,,,888.8913,890.4442,890.4442,891.1499,return,0.2699,,66.27604167,,,,,,FBP-OG-71.png,0.4,1.2,33,0.75,,,,,,,,,,,,,,,,,,0,13,13,32,1,,,,,,,,,,,,,,,,,,,,,,,
,,,,,V3_099,19,F,2025-02-04_14h34.12.399,jersey_experiment_5_v3,2023.2.2,Win32,85.47008547,,,,,,,,,,,,,,,,891.1501,892.4441,892.4442,894.8914,return,1.0489,,83.984375,,,,,,FBP-YG-19.png,0.45,1.2,15,0.5,,,,,,,,,,,,,,,,,,0,14,14,14,1,,,,,,,,,,,,,,,,,,,,,,,
,,,,,V3_099,19,F,2025-02-04_14h34.12.399,jersey_experiment_5_v3,2023.2.2,Win32,85.47008547,,,,,,,,,,,,,,,,894.8916,896.1854,896.1854,897.3384,return,0.194,,87.63020833,,,,,,FBP-RB-91.png,0.43,1.2,59,0.5,,,,,,,,,,,,,,,,,,0,15,15,58,1,,,,,,,,,,,,,,,,,,,,,,,
,,,,,V3_099,19,F,2025-02-04_14h34.12.399,jersey_experiment_5_v3,2023.2.2,Win32,85.47008547,,,,,,,,,,,,,,,,897.3386,898.6327,898.6327,899.5622,return,0.1118,,68.359375,,,,,,FBP-YG-18.png,0.37,1.2,7,0.5,,,,,,,,,,,,,,,,,,0,16,16,6,1,,,,,,,,,,,,,,,,,,,,,,,
,,,,,V3_099,19,F,2025-02-04_14h34.12.399,jersey_experiment_5_v3,2023.2.2,Win32,85.47008547,,,,,,,,,,,,,,,,899.5625,901.1153,901.1153,902.2798,return,0.2059,,90.10416667,,,,,,FBP-OG-71.png,0.45,1.2,35,0.75,,,,,,,,,,,,,,,,,,0,17,17,34,1,,,,,,,,,,,,,,,,,,,,,,,
,,,,,V3_099,19,F,2025-02-04_14h34.12.399,jersey_experiment_5_v3,2023.2.2,Win32,85.47008547,,,,,,,,,,,,,,,,902.2801,903.574,903.5741,904.5271,return,0.1327,,58.33333333,,,,,,FBP-YG-19.png,0.35,1.2,11,0.5,,,,,,,,,,,,,,,,,,0,18,18,10,1,,,,,,,,,,,,,,,,,,,,,,,
,,,,,V3_099,19,F,2025-02-04_14h34.12.399,jersey_experiment_5_v3,2023.2.2,Win32,85.47008547,,,,,,,,,,,,,,,,904.5274,905.8213,905.8213,907.0566,return,0.1646,,64.453125,,,,,,FBP-RB-81.png,0.35,1.2,51,0.5,,,,,,,,,,,,,,,,,,0,19,19,50,1,,,,,,,,,,,,,,,,,,,,,,,
,,,,,V3_099,19,F,2025-02-04_14h34.12.399,jersey_experiment_5_v3,2023.2.2,Win32,85.47008547,,,,,,,,,,,,,,,,907.0567,908.3506,908.3507,909.4096,return,0.1519,,77.21354167,,,,,,FBP-RB-81.png,0.43,1.2,54,0.5,,,,,,,,,,,,,,,,,,0,20,20,53,1,,,,,,,,,,,,,,,,,,,,,,,
,,,,,V3_099,19,F,2025-02-04_14h34.12.399,jersey_experiment_5_v3,2023.2.2,Win32,85.47008547,,,,,,,,,,,,,,,,909.4099,910.7037,910.7037,912.492,return,0.5071,,88.671875,,,,,,FBP-YG-17.png,0.4,1.2,3,0.5,,,,,,,,,,,,,,,,,,0,21,21,2,1,,,,,,,,,,,,,,,,,,,,,,,
,,,,,V3_099,19,F,2025-02-04_14h34.12.399,jersey_experiment_5_v3,2023.2.2,Win32,85.47008547,,,,,,,,,,,,,,,,912.4922,914.0451,914.0452,915.1863,return,0.1674,,72.13541667,,,,,,FBP-OG-91.png,0.4,1.2,43,0.75,,,,,,,,,,,,,,,,,,0,22,22,42,1,,,,,,,,,,,,,,,,,,,,,,,
,,,,,V3_099,19,F,2025-02-04_14h34.12.399,jersey_experiment_5_v3,2023.2.2,Win32,85.47008547,,,,,,,,,,,,,,,,915.1865,916.7393,916.7393,917.5159,return,0.1662,,53.515625,,,,,,FBP-OG-71.png,0.35,1.2,31,0.75,,,,,,,,,,,,,,,,,,0,23,23,30,1,,,,,,,,,,,,,,,,,,,,,,,
,,,,,V3_099,19,F,2025-02-04_14h34.12.399,jersey_experiment_5_v3,2023.2.2,Win32,85.47008547,,,,,,,,,,,,,,,,917.516,918.8099,918.81,920.5393,return,0.2481,,52.86458333,,,,,,FBP-YG-17.png,0.37,1.2,2,0.5,,,,,,,,,,,,,,,,,,0,24,24,1,1,,,,,,,,,,,,,,,,,,,,,,,
,,,,,V3_099,19,F,2025-02-04_14h34.12.399,jersey_experiment_5_v3,2023.2.2,Win32,85.47008547,,,,,,,,,,,,,,,,920.5396,922.0807,922.0807,923.6925,return,0.0744,,78.77604167,,,,,,FBP-OG-91.png,0.43,1.2,44,0.75,,,,,,,,,,,,,,,,,,0,25,25,43,1,,,,,,,,,,,,,,,,,,,,,,,
,,,,,V3_099,19,F,2025-02-04_14h34.12.399,jersey_experiment_5_v3,2023.2.2,Win32,85.47008547,,,,,,,,,,,,,,,,923.6927,924.9866,924.9866,926.3043,return,0.6825,,74.47916667,,,,,,FBP-RB-81.png,0.37,1.2,52,0.5,,,,,,,,,,,,,,,,,,0,26,26,51,1,,,,,,,,,,,,,,,,,,,,,,,
,,,,,V3_099,19,F,2025-02-04_14h34.12.399,jersey_experiment_5_v3,2023.2.2,Win32,85.47008547,,,,,,,,,,,,,,,,926.3045,927.5984,927.5985,928.7514,return,0.2123,,91.796875,,,,,,FBP-PT-81.png,0.43,1.2,24,0.5,,,,,,,,,,,,,,,,,,0,27,27,23,1,,,,,,,,,,,,,,,,,,,,,,,
,,,,,V3_099,19,F,2025-02-04_14h34.12.399,jersey_experiment_5_v3,2023.2.2,Win32,85.47008547,,,,,,,,,,,,,,,,928.7516,930.2929,930.2929,932.2575,return,0.6916,,69.53125,,,,,,FBP-OG-71.png,0.37,1.2,32,0.75,,,,,,,,,,,,,,,,,,0,28,28,31,1,,,,,,,,,,,,,,,,,,,,,,,
,,,,,V3_099,19,F,2025-02-04_14h34.12.399,jersey_experiment_5_v3,2023.2.2,Win32,85.47008547,,,,,,,,,,,,,,,,932.2578,933.5517,933.5517,934.5753,return,0.1414,,80.98958333,,,,,,FBP-RB-81.png,0.45,1.2,55,0.5,,,,,,,,,,,,,,,,,,0,29,29,54,1,,,,,,,,,,,,,,,,,,,,,,,
,,,,,V3_099,19,F,2025-02-04_14h34.12.399,jersey_experiment_5_v3,2023.2.2,Win32,85.47008547,,,,,,,,,,,,,,,,934.5756,935.8695,935.8695,937.5166,return,0.1182,,85.546875,,,,,,FBP-RB-71.png,0.35,1.2,46,0.5,,,,,,,,,,,,,,,,,,0,30,30,45,1,,,,,,,,,,,,,,,,,,,,,,,
,,,,,V3_099,19,F,2025-02-04_14h34.12.399,jersey_experiment_5_v3,2023.2.2,Win32,85.47008547,,,,,,,,,,,,,,,,937.5168,939.0696,939.0696,939.8107,return,0.1648,,85.15625,,,,,,FBP-OG-81.png,0.4,1.2,38,0.75,,,,,,,,,,,,,,,,,,0,31,31,37,1,,,,,,,,,,,,,,,,,,,,,,,
,,,,,V3_099,19,F,2025-02-04_14h34.12.399,jersey_experiment_5_v3,2023.2.2,Win32,85.47008547,,,,,,,,,,,,,,,,939.811,941.3637,941.3637,942.2343,return,0.2506,,76.5625,,,,,,FBP-OG-81.png,0.37,1.2,37,0.75,,,,,,,,,,,,,,,,,,0,32,32,36,1,,,,,,,,,,,,,,,,,,,,,,,
,,,,,V3_099,19,F,2025-02-04_14h34.12.399,jersey_experiment_5_v3,2023.2.2,Win32,85.47008547,,,,,,,,,,,,,,,,942.2346,943.5285,943.5285,944.811,return,0.2602,,94.40104167,,,,,,FBP-PT-71.png,0.43,1.2,19,0.5,,,,,,,,,,,,,,,,,,0,33,33,18,1,,,,,,,,,,,,,,,,,,,,,,,
,,,,,V3_099,19,F,2025-02-04_14h34.12.399,jersey_experiment_5_v3,2023.2.2,Win32,85.47008547,,,,,,,,,,,,,,,,944.8112,946.1051,946.1051,950.5052,return,1.7447,,72.13541667,,,,,,FBP-RB-71.png,0.37,1.2,47,0.5,,,,,,,,,,,,,,,,,,0,34,34,46,1,,,,,,,,,,,,,,,,,,,,,,,
,,,,,V3_099,19,F,2025-02-04_14h34.12.399,jersey_experiment_5_v3,2023.2.2,Win32,85.47008547,,,,,,,,,,,,,,,,950.5054,952.0583,952.0583,952.7642,return,0.1185,,80.59895833,,,,,,FBP-OG-91.png,0.45,1.2,45,0.75,,,,,,,,,,,,,,,,,,0,35,35,44,1,,,,,,,,,,,,,,,,,,,,,,,
,,,,,V3_099,19,F,2025-02-04_14h34.12.399,jersey_experiment_5_v3,2023.2.2,Win32,85.47008547,,,,,,,,,,,,,,,,952.7645,954.0584,954.0584,955.3289,return,0.5657,,72.78645833,,,,,,FBP-PT-81.png,0.4,1.2,23,0.5,,,,,,,,,,,,,,,,,,0,36,36,22,1,,,,,,,,,,,,,,,,,,,,,,,
,,,,,V3_099,19,F,2025-02-04_14h34.12.399,jersey_experiment_5_v3,2023.2.2,Win32,85.47008547,,,,,,,,,,,,,,,,955.3291,956.8821,956.8821,958.9407,return,0.8741,,69.921875,,,,,,FBP-OG-71.png,0.43,1.2,34,0.75,,,,,,,,,,,,,,,,,,0,37,37,33,1,,,,,,,,,,,,,,,,,,,,,,,
,,,,,V3_099,19,F,2025-02-04_14h34.12.399,jersey_experiment_5_v3,2023.2.2,Win32,85.47008547,,,,,,,,,,,,,,,,958.9409,960.2349,960.235,961.2468,return,0.0717,,65.36458333,,,,,,FBP-PT-81.png,0.35,1.2,21,0.5,,,,,,,,,,,,,,,,,,0,38,38,20,1,,,,,,,,,,,,,,,,,,,,,,,
,,,,,V3_099,19,F,2025-02-04_14h34.12.399,jersey_experiment_5_v3,2023.2.2,Win32,85.47008547,,,,,,,,,,,,,,,,961.247,962.5409,962.5411,964,return,0.809,,62.63020833,,,,,,FBP-PT-91.png,0.35,1.2,26,0.5,,,,,,,,,,,,,,,,,,0,39,39,25,1,,,,,,,,,,,,,,,,,,,,,,,
,,,,,V3_099,19,F,2025-02-04_14h34.12.399,jersey_experiment_5_v3,2023.2.2,Win32,85.47008547,,,,,,,,,,,,,,,,964.0002,965.2942,965.2942,966.047,return,0.0563,,70.703125,,,,,,FBP-YG-19.png,0.43,1.2,14,0.5,,,,,,,,,,,,,,,,,,0,40,40,13,1,,,,,,,,,,,,,,,,,,,,,,,
,,,,,V3_099,19,F,2025-02-04_14h34.12.399,jersey_experiment_5_v3,2023.2.2,Win32,85.47008547,,,,,,,,,,,,,,,,966.0472,967.6002,967.6002,968.753,return,0.1883,,54.6875,,,,,,FBP-OG-81.png,0.35,1.2,36,0.75,,,,,,,,,,,,,,,,,,0,41,41,35,1,,,,,,,,,,,,,,,,,,,,,,,
,,,,,V3_099,19,F,2025-02-04_14h34.12.399,jersey_experiment_5_v3,2023.2.2,Win32,85.47008547,,,,,,,,,,,,,,,,968.7532,970.0471,970.0472,971.153,return,0.1885,,53.90625,,,,,,FBP-YG-19.png,0.37,1.2,12,0.5,,,,,,,,,,,,,,,,,,0,42,42,11,1,,,,,,,,,,,,,,,,,,,,,,,
,,,,,V3_099,19,F,2025-02-04_14h34.12.399,jersey_experiment_5_v3,2023.2.2,Win32,85.47008547,,,,,,,,,,,,,,,,971.1533,972.4472,972.4473,973.7533,return,0.1915,,58.203125,,,,,,FBP-RB-91.png,0.37,1.2,57,0.5,,,,,,,,,,,,,,,,,,0,43,43,56,1,,,,,,,,,,,,,,,,,,,,,,,
,,,,,V3_099,19,F,2025-02-04_14h34.12.399,jersey_experiment_5_v3,2023.2.2,Win32,85.47008547,,,,,,,,,,,,,,,,973.7535,975.0474,975.0474,976.1299,return,0.2038,,58.33333333,,,,,,FBP-RB-91.png,0.35,1.2,56,0.5,,,,,,,,,,,,,,,,,,0,44,44,55,1,,,,,,,,,,,,,,,,,,,,,,,
,,,,,V3_099,19,F,2025-02-04_14h34.12.399,jersey_experiment_5_v3,2023.2.2,Win32,85.47008547,,,,,,,,,,,,,,,,976.1301,977.4239,977.4239,978.8829,return,0.2115,,54.6875,,,,,,FBP-PT-71.png,0.37,1.2,17,0.5,,,,,,,,,,,,,,,,,,0,45,45,16,1,,,,,,,,,,,,,,,,,,,,,,,
,,,,,V3_099,19,F,2025-02-04_14h34.12.399,jersey_experiment_5_v3,2023.2.2,Win32,85.47008547,,,,,,,,,,,,,,,,978.8831,980.177,980.1771,981.9064,return,0.5886,,59.89583333,,,,,,FBP-RB-71.png,0.4,1.2,48,0.5,,,,,,,,,,,,,,,,,,0,46,46,47,1,,,,,,,,,,,,,,,,,,,,,,,
,,,,,V3_099,19,F,2025-02-04_14h34.12.399,jersey_experiment_5_v3,2023.2.2,Win32,85.47008547,,,,,,,,,,,,,,,,981.9067,983.2005,983.2006,985.0007,return,0.9922,,79.81770833,,,,,,FBP-RB-91.png,0.45,1.2,60,0.5,,,,,,,,,,,,,,,,,,0,47,47,59,1,,,,,,,,,,,,,,,,,,,,,,,
,,,,,V3_099,19,F,2025-02-04_14h34.12.399,jersey_experiment_5_v3,2023.2.2,Win32,85.47008547,,,,,,,,,,,,,,,,985.0009,986.2948,986.2949,987.6949,return,0.2447,,83.33333333,,,,,,FBP-YG-17.png,0.45,1.2,5,0.5,,,,,,,,,,,,,,,,,,0,48,48,4,1,,,,,,,,,,,,,,,,,,,,,,,
,,,,,V3_099,19,F,2025-02-04_14h34.12.399,jersey_experiment_5_v3,2023.2.2,Win32,85.47008547,,,,,,,,,,,,,,,,987.6952,988.989,988.989,991.6481,return,1.4828,,76.82291667,,,,,,FBP-PT-91.png,0.4,1.2,28,0.5,,,,,,,,,,,,,,,,,,0,49,49,27,1,,,,,,,,,,,,,,,,,,,,,,,
,,,,,V3_099,19,F,2025-02-04_14h34.12.399,jersey_experiment_5_v3,2023.2.2,Win32,85.47008547,,,,,,,,,,,,,,,,991.6482,992.9423,992.9424,994.2834,return,0.1308,,74.609375,,,,,,FBP-RB-81.png,0.4,1.2,53,0.5,,,,,,,,,,,,,,,,,,0,50,50,52,1,,,,,,,,,,,,,,,,,,,,,,,
,,,,,V3_099,19,F,2025-02-04_14h34.12.399,jersey_experiment_5_v3,2023.2.2,Win32,85.47008547,,,,,,,,,,,,,,,,994.2836,995.5776,995.5776,996.907,return,0.6521,,82.68229167,,,,,,FBP-RB-71.png,0.45,1.2,50,0.5,,,,,,,,,,,,,,,,,,0,51,51,49,1,,,,,,,,,,,,,,,,,,,,,,,
,,,,,V3_099,19,F,2025-02-04_14h34.12.399,jersey_experiment_5_v3,2023.2.2,Win32,85.47008547,,,,,,,,,,,,,,,,996.9072,998.2012,998.2013,999.3071,return,0.1817,,70.05208333,,,,,,FBP-PT-71.png,0.35,1.2,16,0.5,,,,,,,,,,,,,,,,,,0,52,52,15,1,,,,,,,,,,,,,,,,,,,,,,,
,,,,,V3_099,19,F,2025-02-04_14h34.12.399,jersey_experiment_5_v3,2023.2.2,Win32,85.47008547,,,,,,,,,,,,,,,,999.3073,1000.86,1000.8601,1002.8249,return,0.2899,,73.69791667,,,,,,FBP-OG-81.png,0.43,1.2,39,0.75,,,,,,,,,,,,,,,,,,0,53,53,38,1,,,,,,,,,,,,,,,,,,,,,,,
,,,,,V3_099,19,F,2025-02-04_14h34.12.399,jersey_experiment_5_v3,2023.2.2,Win32,85.47008547,,,,,,,,,,,,,,,,1002.8252,1004.378,1004.378,1006.0603,return,0.1567,,87.76041667,,,,,,FBP-OG-81.png,0.45,1.2,40,0.75,,,,,,,,,,,,,,,,,,0,54,54,39,1,,,,,,,,,,,,,,,,,,,,,,,
,,,,,V3_099,19,F,2025-02-04_14h34.12.399,jersey_experiment_5_v3,2023.2.2,Win32,85.47008547,,,,,,,,,,,,,,,,1006.0605,1007.3547,1007.3547,1008.4721,return,0.2905,,89.58333333,,,,,,FBP-YG-18.png,0.43,1.2,9,0.5,,,,,,,,,,,,,,,,,,0,55,55,8,1,,,,,,,,,,,,,,,,,,,,,,,
,,,,,V3_099,19,F,2025-02-04_14h34.12.399,jersey_experiment_5_v3,2023.2.2,Win32,85.47008547,,,,,,,,,,,,,,,,1008.4723,1009.7662,1009.7663,1011.6136,return,0.6498,,89.97395833,,,,,,FBP-PT-91.png,0.43,1.2,29,0.5,,,,,,,,,,,,,,,,,,0,56,56,28,1,,,,,,,,,,,,,,,,,,,,,,,
,,,,,V3_099,19,F,2025-02-04_14h34.12.399,jersey_experiment_5_v3,2023.2.2,Win32,85.47008547,,,,,,,,,,,,,,,,1011.6137,1012.9076,1012.9077,1015.5196,return,0.0858,,75,,,,,,FBP-YG-18.png,0.4,1.2,8,0.5,,,,,,,,,,,,,,,,,,0,57,57,7,1,,,,,,,,,,,,,,,,,,,,,,,
,,,,,V3_099,19,F,2025-02-04_14h34.12.399,jersey_experiment_5_v3,2023.2.2,Win32,85.47008547,,,,,,,,,,,,,,,,1015.5197,1016.8137,1016.8137,1017.8724,return,0.3526,,83.07291667,,,,,,FBP-YG-18.png,0.45,1.2,10,0.5,,,,,,,,,,,,,,,,,,0,58,58,9,1,,,,,,,,,,,,,,,,,,,,,,,
,,,,,V3_099,19,F,2025-02-04_14h34.12.399,jersey_experiment_5_v3,2023.2.2,Win32,85.47008547,,,,,,,,,,,,,,,,1017.8727,1019.1668,1019.1668,1021.0491,return,0.8976,,72.91666667,,,,,,FBP-YG-19.png,0.4,1.2,13,0.5,,,,,,,,,,,,,,,,,,0,59,59,12,1,,,,,,,,,,,,,,,,,,,,,,,
,,,,,V3_099,19,F,2025-02-04_14h34.12.399,jersey_experiment_5_v3,2023.2.2,Win32,85.47008547,,,,,,,,,,,,,,,,,,,,,,,,,,,,,,,,,,,,,,,,,,,,,,,,,,,,,,,,1021.0493,1024.673,return,3.6105,,,,,,,,,,,,,,,,,,,
,,,,,V3_099,19,F,2025-02-04_14h34.12.399,jersey_experiment_5_v3,2023.2.2,Win32,85.47008547,,,,,,,,,,,,,,,,,,,,,,,,,,,,,,,,,,,,,,,,,,,,,,,,,,,,,,,,,,,,,1024.6731,1034.6381,1,9.0421,return,0.9075,,,,,,,,,,,,
,,,,,V3_099,19,F,2025-02-04_14h34.12.399,jersey_experiment_5_v3,2023.2.2,Win32,85.47008547,,,,,,,,,,,,,,,,,,,,,,,,,,,,,,,,,,,,,,,,,,,,,,,,,,,,,,,,,,,,,,,,,,,,1034.6382,1070.7693,"race, body proportions, jersey colors",right,31.4916,,,,,,
,,,,,V3_099,19,F,2025-02-04_14h34.12.399,jersey_experiment_5_v3,2023.2.2,Win32,85.47008547,,,,,,,,,,,,,,,,,,,,,,,,,,,,,,,,,,,,,,,,,,,,,,,,,,,,,,,,,,,,,,,,,,,,,,,,,,1070.7694,1072.8984,return,2.119,