requirements.started,requirements.stopped,key_resp_3.keys,key_resp_3.rt,key_resp_3.duration,Subject ID,Age,Gender,date,expName,psychopyVersion,OS,frameRate,instructions1.started,instructions1.stopped,key_resp.keys,key_resp.rt,key_resp.duration,example.started,example.stopped,enter_2.keys,enter_2.rt,enter_2.duration,instructions2.started,instructions2.stopped,enter_3.keys,enter_3.rt,enter_3.duration,image.started,image.stopped,slider_2.started,slider_2.stopped,next.keys,next.rt,next.duration,slider.response,trial_block_1.thisRepN,trial_block_1.thisTrialN,trial_block_1.thisN,trial_block_1.thisIndex,trial_block_1.ran,Path,Width,Height,Index,Duration,trial_block_2.thisRepN,trial_block_2.thisTrialN,trial_block_2.thisN,trial_block_2.thisIndex,trial_block_2.ran,rest_break.started,rest_break.stopped,end_break.started,end_break.stopped,key_resp_5.keys,key_resp_5.rt,key_resp_5.duration,trial_block_3.thisRepN,trial_block_3.thisTrialN,trial_block_3.thisN,trial_block_3.thisIndex,trial_block_3.ran,trial_block_4.thisRepN,trial_block_4.thisTrialN,trial_block_4.thisN,trial_block_4.thisIndex,trial_block_4.ran,questions_intro.started,questions_intro.stopped,enter_12.keys,enter_12.rt,enter_12.duration,question2.started,question2.stopped,question_doingbest.response,question_doingbest.rt,enter_15.keys,enter_15.rt,enter_15.duration,pattern.started,pattern.stopped,pattern_2.text,enter_17.keys,enter_17.rt,enter_17.duration,thankyou.started,thankyou.stopped,enter_14.keys,enter_14.rt,enter_14.duration
0.0001,11.5747,return,11.5709,,V3_095,22,female,2025-01-30_15h56.38.480,jersey_experiment_5_v3,2023.2.2,Win32,84.74576271,,,,,,,,,,,,,,,,,,,,,,,,,,,,,,,,,,,,,,,,,,,,,,,,,,,,,,,,,,,,,,,,,,,,,,,,,,,,,,
,,,,,V3_095,22,female,2025-01-30_15h56.38.480,jersey_experiment_5_v3,2023.2.2,Win32,84.74576271,11.5747,20.83,return,9.2465,,,,,,,,,,,,,,,,,,,,,,,,,,,,,,,,,,,,,,,,,,,,,,,,,,,,,,,,,,,,,,,,,,,,,,,,,,
,,,,,V3_095,22,female,2025-01-30_15h56.38.480,jersey_experiment_5_v3,2023.2.2,Win32,84.74576271,,,,,,20.83,26.2102,return,5.3486,,,,,,,,,,,,,,,,,,,,,,,,,,,,,,,,,,,,,,,,,,,,,,,,,,,,,,,,,,,,,,,,,,,,,
,,,,,V3_095,22,female,2025-01-30_15h56.38.480,jersey_experiment_5_v3,2023.2.2,Win32,84.74576271,,,,,,,,,,,26.2102,45.1342,return,18.9125,,,,,,,,,,,,,,,,,,,,,,,,,,,,,,,,,,,,,,,,,,,,,,,,,,,,,,,,,,,,,,,,
,,,,,V3_095,22,female,2025-01-30_15h56.38.480,jersey_experiment_5_v3,2023.2.2,Win32,84.74576271,,,,,,,,,,,,,,,,45.1357,46.69,46.69,60.5114,return,2.4634,,24.609375,0,0,0,20,1,FBP-PT-18.png,0.35,1.2,21,0.75,,,,,,,,,,,,,,,,,,,,,,,,,,,,,,,,,,,,,,,,,,,,,
,,,,,V3_095,22,female,2025-01-30_15h56.38.480,jersey_experiment_5_v3,2023.2.2,Win32,84.74576271,,,,,,,,,,,,,,,,60.5117,62.0644,62.0644,68.4765,return,1.7695,,51.30208333,0,1,1,58,1,FBP-RB-19.png,0.43,1.2,59,0.75,,,,,,,,,,,,,,,,,,,,,,,,,,,,,,,,,,,,,,,,,,,,,
,,,,,V3_095,22,female,2025-01-30_15h56.38.480,jersey_experiment_5_v3,2023.2.2,Win32,84.74576271,,,,,,,,,,,,,,,,68.4768,70.0293,70.0294,74.4178,return,2.7877,,74.86979167,0,2,2,17,1,FBP-PT-17.png,0.4,1.2,18,0.75,,,,,,,,,,,,,,,,,,,,,,,,,,,,,,,,,,,,,,,,,,,,,
,,,,,V3_095,22,female,2025-01-30_15h56.38.480,jersey_experiment_5_v3,2023.2.2,Win32,84.74576271,,,,,,,,,,,,,,,,74.418,75.9706,75.9707,79.7591,return,1.5113,,45.05208333,0,3,3,11,1,FBP-YG-91.png,0.37,1.2,12,0.75,,,,,,,,,,,,,,,,,,,,,,,,,,,,,,,,,,,,,,,,,,,,,
,,,,,V3_095,22,female,2025-01-30_15h56.38.480,jersey_experiment_5_v3,2023.2.2,Win32,84.74576271,,,,,,,,,,,,,,,,79.7592,81.3122,81.3122,84.371,return,1.1309,,31.640625,0,4,4,5,1,FBP-YG-81.png,0.35,1.2,6,0.75,,,,,,,,,,,,,,,,,,,,,,,,,,,,,,,,,,,,,,,,,,,,,
,,,,,V3_095,22,female,2025-01-30_15h56.38.480,jersey_experiment_5_v3,2023.2.2,Win32,84.74576271,,,,,,,,,,,,,,,,84.3712,85.6652,85.6652,88.9241,return,1.7464,,23.17708333,0,5,5,35,1,FBP-OG-18.png,0.35,1.2,36,0.5,,,,,,,,,,,,,,,,,,,,,,,,,,,,,,,,,,,,,,,,,,,,,
,,,,,V3_095,22,female,2025-01-30_15h56.38.480,jersey_experiment_5_v3,2023.2.2,Win32,84.74576271,,,,,,,,,,,,,,,,88.9244,90.2183,90.2184,92.383,return,0.8877,,19.66145833,0,6,6,30,1,FBP-OG-17.png,0.35,1.2,31,0.5,,,,,,,,,,,,,,,,,,,,,,,,,,,,,,,,,,,,,,,,,,,,,
,,,,,V3_095,22,female,2025-01-30_15h56.38.480,jersey_experiment_5_v3,2023.2.2,Win32,84.74576271,,,,,,,,,,,,,,,,92.3833,93.9361,93.9361,96.4069,return,1.0731,,66.53645833,0,7,7,57,1,FBP-RB-19.png,0.4,1.2,58,0.75,,,,,,,,,,,,,,,,,,,,,,,,,,,,,,,,,,,,,,,,,,,,,
,,,,,V3_095,22,female,2025-01-30_15h56.38.480,jersey_experiment_5_v3,2023.2.2,Win32,84.74576271,,,,,,,,,,,,,,,,96.4071,97.96,97.96,99.9834,return,0.9582,,47.78645833,0,8,8,15,1,FBP-PT-17.png,0.35,1.2,16,0.75,,,,,,,,,,,,,,,,,,,,,,,,,,,,,,,,,,,,,,,,,,,,,
,,,,,V3_095,22,female,2025-01-30_15h56.38.480,jersey_experiment_5_v3,2023.2.2,Win32,84.74576271,,,,,,,,,,,,,,,,99.9837,101.2778,101.2778,103.3131,return,0.8742,,76.04166667,0,9,9,38,1,FBP-OG-18.png,0.43,1.2,39,0.5,,,,,,,,,,,,,,,,,,,,,,,,,,,,,,,,,,,,,,,,,,,,,
,,,,,V3_095,22,female,2025-01-30_15h56.38.480,jersey_experiment_5_v3,2023.2.2,Win32,84.74576271,,,,,,,,,,,,,,,,103.3136,104.8661,104.8661,106.5954,return,0.8137,,68.48958333,0,10,10,45,1,FBP-RB-17.png,0.35,1.2,46,0.75,,,,,,,,,,,,,,,,,,,,,,,,,,,,,,,,,,,,,,,,,,,,,
,,,,,V3_095,22,female,2025-01-30_15h56.38.480,jersey_experiment_5_v3,2023.2.2,Win32,84.74576271,,,,,,,,,,,,,,,,106.5957,108.1486,108.1486,109.9013,return,0.9247,,86.58854167,0,11,11,7,1,FBP-YG-81.png,0.4,1.2,8,0.75,,,,,,,,,,,,,,,,,,,,,,,,,,,,,,,,,,,,,,,,,,,,,
,,,,,V3_095,22,female,2025-01-30_15h56.38.480,jersey_experiment_5_v3,2023.2.2,Win32,84.74576271,,,,,,,,,,,,,,,,109.9016,111.4546,111.4546,113.7721,return,0.8908,,78.77604167,0,12,12,21,1,FBP-PT-18.png,0.37,1.2,22,0.75,,,,,,,,,,,,,,,,,,,,,,,,,,,,,,,,,,,,,,,,,,,,,
,,,,,V3_095,22,female,2025-01-30_15h56.38.480,jersey_experiment_5_v3,2023.2.2,Win32,84.74576271,,,,,,,,,,,,,,,,113.7723,115.0663,115.0663,116.8311,return,0.864,,78.77604167,0,13,13,36,1,FBP-OG-18.png,0.37,1.2,37,0.5,,,,,,,,,,,,,,,,,,,,,,,,,,,,,,,,,,,,,,,,,,,,,
,,,,,V3_095,22,female,2025-01-30_15h56.38.480,jersey_experiment_5_v3,2023.2.2,Win32,84.74576271,,,,,,,,,,,,,,,,116.8313,118.3842,118.3843,120.0313,return,0.8982,,85.28645833,0,14,14,46,1,FBP-RB-17.png,0.37,1.2,47,0.75,,,,,,,,,,,,,,,,,,,,,,,,,,,,,,,,,,,,,,,,,,,,,
,,,,,V3_095,22,female,2025-01-30_15h56.38.480,jersey_experiment_5_v3,2023.2.2,Win32,84.74576271,,,,,,,,,,,,,,,,120.0317,121.3256,121.3257,123.6196,return,0.8326,,71.74479167,0,15,15,31,1,FBP-OG-17.png,0.37,1.2,32,0.5,,,,,,,,,,,,,,,,,,,,,,,,,,,,,,,,,,,,,,,,,,,,,
,,,,,V3_095,22,female,2025-01-30_15h56.38.480,jersey_experiment_5_v3,2023.2.2,Win32,84.74576271,,,,,,,,,,,,,,,,123.6198,124.9139,124.9139,127.0196,return,0.7128,,94.53125,0,16,16,43,1,FBP-OG-19.png,0.43,1.2,44,0.5,,,,,,,,,,,,,,,,,,,,,,,,,,,,,,,,,,,,,,,,,,,,,
,,,,,V3_095,22,female,2025-01-30_15h56.38.480,jersey_experiment_5_v3,2023.2.2,Win32,84.74576271,,,,,,,,,,,,,,,,127.0199,128.5727,128.5728,130.5609,return,0.8034,,63.54166667,0,17,17,25,1,FBP-PT-19.png,0.35,1.2,26,0.75,,,,,,,,,,,,,,,,,,,,,,,,,,,,,,,,,,,,,,,,,,,,,
,,,,,V3_095,22,female,2025-01-30_15h56.38.480,jersey_experiment_5_v3,2023.2.2,Win32,84.74576271,,,,,,,,,,,,,,,,130.5611,132.114,132.114,134.0319,return,0.7778,,90.88541667,0,18,18,47,1,FBP-RB-17.png,0.4,1.2,48,0.75,,,,,,,,,,,,,,,,,,,,,,,,,,,,,,,,,,,,,,,,,,,,,
,,,,,V3_095,22,female,2025-01-30_15h56.38.480,jersey_experiment_5_v3,2023.2.2,Win32,84.74576271,,,,,,,,,,,,,,,,134.032,135.5847,135.5847,137.3025,return,0.7651,,99.73958333,0,19,19,59,1,FBP-RB-19.png,0.45,1.2,60,0.75,,,,,,,,,,,,,,,,,,,,,,,,,,,,,,,,,,,,,,,,,,,,,
,,,,,V3_095,22,female,2025-01-30_15h56.38.480,jersey_experiment_5_v3,2023.2.2,Win32,84.74576271,,,,,,,,,,,,,,,,137.3028,138.8556,138.8556,140.3025,return,0.7928,,97.265625,0,20,20,52,1,FBP-RB-18.png,0.4,1.2,53,0.75,,,,,,,,,,,,,,,,,,,,,,,,,,,,,,,,,,,,,,,,,,,,,
,,,,,V3_095,22,female,2025-01-30_15h56.38.480,jersey_experiment_5_v3,2023.2.2,Win32,84.74576271,,,,,,,,,,,,,,,,140.3027,141.5968,141.5968,143.1969,return,0.6901,,94.53125,0,21,21,33,1,FBP-OG-17.png,0.43,1.2,34,0.5,,,,,,,,,,,,,,,,,,,,,,,,,,,,,,,,,,,,,,,,,,,,,
,,,,,V3_095,22,female,2025-01-30_15h56.38.480,jersey_experiment_5_v3,2023.2.2,Win32,84.74576271,,,,,,,,,,,,,,,,143.197,144.7498,144.7498,146.1733,return,0.7485,,99.08854167,0,22,22,19,1,FBP-PT-17.png,0.45,1.2,20,0.75,,,,,,,,,,,,,,,,,,,,,,,,,,,,,,,,,,,,,,,,,,,,,
,,,,,V3_095,22,female,2025-01-30_15h56.38.480,jersey_experiment_5_v3,2023.2.2,Win32,84.74576271,,,,,,,,,,,,,,,,146.1735,147.7264,147.7264,149.0206,return,0.7022,,99.47916667,0,23,23,28,1,FBP-PT-19.png,0.43,1.2,29,0.75,,,,,,,,,,,,,,,,,,,,,,,,,,,,,,,,,,,,,,,,,,,,,
,,,,,V3_095,22,female,2025-01-30_15h56.38.480,jersey_experiment_5_v3,2023.2.2,Win32,84.74576271,,,,,,,,,,,,,,,,149.0208,150.3146,150.3146,153.0677,return,0.9381,,99.47916667,0,24,24,44,1,FBP-OG-19.png,0.45,1.2,45,0.5,,,,,,,,,,,,,,,,,,,,,,,,,,,,,,,,,,,,,,,,,,,,,
,,,,,V3_095,22,female,2025-01-30_15h56.38.480,jersey_experiment_5_v3,2023.2.2,Win32,84.74576271,,,,,,,,,,,,,,,,153.0681,154.3619,154.3619,155.9384,return,0.9165,,99.08854167,0,25,25,34,1,FBP-OG-17.png,0.45,1.2,35,0.5,,,,,,,,,,,,,,,,,,,,,,,,,,,,,,,,,,,,,,,,,,,,,
,,,,,V3_095,22,female,2025-01-30_15h56.38.480,jersey_experiment_5_v3,2023.2.2,Win32,84.74576271,,,,,,,,,,,,,,,,155.9387,157.4915,157.4916,160.0211,return,0.7372,,45.703125,0,26,26,50,1,FBP-RB-18.png,0.35,1.2,51,0.75,,,,,,,,,,,,,,,,,,,,,,,,,,,,,,,,,,,,,,,,,,,,,
,,,,,V3_095,22,female,2025-01-30_15h56.38.480,jersey_experiment_5_v3,2023.2.2,Win32,84.74576271,,,,,,,,,,,,,,,,160.0214,161.5741,161.5742,163.1858,return,0.6373,,53.125,0,27,27,6,1,FBP-YG-81.png,0.37,1.2,7,0.75,,,,,,,,,,,,,,,,,,,,,,,,,,,,,,,,,,,,,,,,,,,,,
,,,,,V3_095,22,female,2025-01-30_15h56.38.480,jersey_experiment_5_v3,2023.2.2,Win32,84.74576271,,,,,,,,,,,,,,,,163.1861,164.739,164.7391,166.4683,return,0.6693,,74.08854167,0,28,28,24,1,FBP-PT-18.png,0.45,1.2,25,0.75,,,,,,,,,,,,,,,,,,,,,,,,,,,,,,,,,,,,,,,,,,,,,
,,,,,V3_095,22,female,2025-01-30_15h56.38.480,jersey_experiment_5_v3,2023.2.2,Win32,84.74576271,,,,,,,,,,,,,,,,166.4687,168.0214,168.0214,169.7744,return,0.6064,,62.890625,0,29,29,16,1,FBP-PT-17.png,0.37,1.2,17,0.75,,,,,,,,,,,,,,,,,,,,,,,,,,,,,,,,,,,,,,,,,,,,,
,,,,,V3_095,22,female,2025-01-30_15h56.38.480,jersey_experiment_5_v3,2023.2.2,Win32,84.74576271,,,,,,,,,,,,,,,,169.7747,171.3272,171.3273,172.645,return,0.5889,,69.140625,0,30,30,51,1,FBP-RB-18.png,0.37,1.2,52,0.75,,,,,,,,,,,,,,,,,,,,,,,,,,,,,,,,,,,,,,,,,,,,,
,,,,,V3_095,22,female,2025-01-30_15h56.38.480,jersey_experiment_5_v3,2023.2.2,Win32,84.74576271,,,,,,,,,,,,,,,,172.6452,174.1982,174.1983,175.4214,return,0.5705,,77.99479167,0,31,31,22,1,FBP-PT-18.png,0.4,1.2,23,0.75,,,,,,,,,,,,,,,,,,,,,,,,,,,,,,,,,,,,,,,,,,,,,
,,,,,V3_095,22,female,2025-01-30_15h56.38.480,jersey_experiment_5_v3,2023.2.2,Win32,84.74576271,,,,,,,,,,,,,,,,175.4217,176.9745,176.9745,178.4216,return,0.6221,,94.66145833,0,32,32,4,1,FBP-YG-71.png,0.45,1.2,5,0.75,,,,,,,,,,,,,,,,,,,,,,,,,,,,,,,,,,,,,,,,,,,,,
,,,,,V3_095,22,female,2025-01-30_15h56.38.480,jersey_experiment_5_v3,2023.2.2,Win32,84.74576271,,,,,,,,,,,,,,,,178.4219,179.9746,179.9747,181.916,return,0.7598,,58.85416667,0,33,33,0,1,FBP-YG-71.png,0.35,1.2,1,0.75,,,,,,,,,,,,,,,,,,,,,,,,,,,,,,,,,,,,,,,,,,,,,
,,,,,V3_095,22,female,2025-01-30_15h56.38.480,jersey_experiment_5_v3,2023.2.2,Win32,84.74576271,,,,,,,,,,,,,,,,181.9164,183.4691,183.4692,185.4454,return,0.7287,,95.3125,0,34,34,23,1,FBP-PT-18.png,0.43,1.2,24,0.75,,,,,,,,,,,,,,,,,,,,,,,,,,,,,,,,,,,,,,,,,,,,,
,,,,,V3_095,22,female,2025-01-30_15h56.38.480,jersey_experiment_5_v3,2023.2.2,Win32,84.74576271,,,,,,,,,,,,,,,,185.4457,186.9986,186.9986,188.4691,return,0.5997,,99.609375,0,35,35,54,1,FBP-RB-18.png,0.45,1.2,55,0.75,,,,,,,,,,,,,,,,,,,,,,,,,,,,,,,,,,,,,,,,,,,,,
,,,,,V3_095,22,female,2025-01-30_15h56.38.480,jersey_experiment_5_v3,2023.2.2,Win32,84.74576271,,,,,,,,,,,,,,,,188.4694,189.7633,189.7633,191.6692,return,0.6589,,76.04166667,0,36,36,32,1,FBP-OG-17.png,0.4,1.2,33,0.5,,,,,,,,,,,,,,,,,,,,,,,,,,,,,,,,,,,,,,,,,,,,,
,,,,,V3_095,22,female,2025-01-30_15h56.38.480,jersey_experiment_5_v3,2023.2.2,Win32,84.74576271,,,,,,,,,,,,,,,,191.6695,193.2226,193.2226,196.1987,return,0.7683,,64.71354167,0,37,37,1,1,FBP-YG-71.png,0.37,1.2,2,0.75,,,,,,,,,,,,,,,,,,,,,,,,,,,,,,,,,,,,,,,,,,,,,
,,,,,V3_095,22,female,2025-01-30_15h56.38.480,jersey_experiment_5_v3,2023.2.2,Win32,84.74576271,,,,,,,,,,,,,,,,196.199,197.493,197.493,199.5518,return,0.8282,,67.70833333,0,38,38,40,1,FBP-OG-19.png,0.35,1.2,41,0.5,,,,,,,,,,,,,,,,,,,,,,,,,,,,,,,,,,,,,,,,,,,,,
,,,,,V3_095,22,female,2025-01-30_15h56.38.480,jersey_experiment_5_v3,2023.2.2,Win32,84.74576271,,,,,,,,,,,,,,,,199.5521,200.8462,200.8462,204.6109,return,0.5899,,53.77604167,0,39,39,41,1,FBP-OG-19.png,0.37,1.2,42,0.5,,,,,,,,,,,,,,,,,,,,,,,,,,,,,,,,,,,,,,,,,,,,,
,,,,,V3_095,22,female,2025-01-30_15h56.38.480,jersey_experiment_5_v3,2023.2.2,Win32,84.74576271,,,,,,,,,,,,,,,,204.6113,206.1639,206.164,207.7877,return,0.7148,,74.73958333,0,40,40,12,1,FBP-YG-91.png,0.4,1.2,13,0.75,,,,,,,,,,,,,,,,,,,,,,,,,,,,,,,,,,,,,,,,,,,,,
,,,,,V3_095,22,female,2025-01-30_15h56.38.480,jersey_experiment_5_v3,2023.2.2,Win32,84.74576271,,,,,,,,,,,,,,,,207.7879,209.3406,209.3407,212.8817,return,2.6603,,78.90625,0,41,41,53,1,FBP-RB-18.png,0.43,1.2,54,0.75,,,,,,,,,,,,,,,,,,,,,,,,,,,,,,,,,,,,,,,,,,,,,
,,,,,V3_095,22,female,2025-01-30_15h56.38.480,jersey_experiment_5_v3,2023.2.2,Win32,84.74576271,,,,,,,,,,,,,,,,212.8819,214.4234,214.4235,215.9407,return,0.5418,,84.63541667,0,42,42,3,1,FBP-YG-71.png,0.43,1.2,4,0.75,,,,,,,,,,,,,,,,,,,,,,,,,,,,,,,,,,,,,,,,,,,,,
,,,,,V3_095,22,female,2025-01-30_15h56.38.480,jersey_experiment_5_v3,2023.2.2,Win32,84.74576271,,,,,,,,,,,,,,,,215.941,217.2349,217.2351,218.7172,return,0.4659,,72.00520833,0,43,43,37,1,FBP-OG-18.png,0.4,1.2,38,0.5,,,,,,,,,,,,,,,,,,,,,,,,,,,,,,,,,,,,,,,,,,,,,
,,,,,V3_095,22,female,2025-01-30_15h56.38.480,jersey_experiment_5_v3,2023.2.2,Win32,84.74576271,,,,,,,,,,,,,,,,218.7175,220.2706,220.2706,221.3292,return,0.3921,,82.421875,0,44,44,27,1,FBP-PT-19.png,0.4,1.2,28,0.75,,,,,,,,,,,,,,,,,,,,,,,,,,,,,,,,,,,,,,,,,,,,,
,,,,,V3_095,22,female,2025-01-30_15h56.38.480,jersey_experiment_5_v3,2023.2.2,Win32,84.74576271,,,,,,,,,,,,,,,,221.3295,222.8822,222.8823,223.741,return,0.3134,,91.27604167,0,45,45,8,1,FBP-YG-81.png,0.43,1.2,9,0.75,,,,,,,,,,,,,,,,,,,,,,,,,,,,,,,,,,,,,,,,,,,,,
,,,,,V3_095,22,female,2025-01-30_15h56.38.480,jersey_experiment_5_v3,2023.2.2,Win32,84.74576271,,,,,,,,,,,,,,,,223.7413,225.2941,225.2942,226.6118,return,0.3303,,55.859375,0,46,46,56,1,FBP-RB-19.png,0.37,1.2,57,0.75,,,,,,,,,,,,,,,,,,,,,,,,,,,,,,,,,,,,,,,,,,,,,
,,,,,V3_095,22,female,2025-01-30_15h56.38.480,jersey_experiment_5_v3,2023.2.2,Win32,84.74576271,,,,,,,,,,,,,,,,226.612,228.1532,228.1533,229.3884,return,0.2302,,94.01041667,0,47,47,14,1,FBP-YG-91.png,0.45,1.2,15,0.75,,,,,,,,,,,,,,,,,,,,,,,,,,,,,,,,,,,,,,,,,,,,,
,,,,,V3_095,22,female,2025-01-30_15h56.38.480,jersey_experiment_5_v3,2023.2.2,Win32,84.74576271,,,,,,,,,,,,,,,,229.3887,230.6825,230.6825,231.7767,return,0.2508,,96.22395833,0,48,48,39,1,FBP-OG-18.png,0.45,1.2,40,0.5,,,,,,,,,,,,,,,,,,,,,,,,,,,,,,,,,,,,,,,,,,,,,
,,,,,V3_095,22,female,2025-01-30_15h56.38.480,jersey_experiment_5_v3,2023.2.2,Win32,84.74576271,,,,,,,,,,,,,,,,231.7769,233.0708,233.0708,234.3415,return,0.2123,,89.32291667,0,49,49,42,1,FBP-OG-19.png,0.4,1.2,43,0.5,,,,,,,,,,,,,,,,,,,,,,,,,,,,,,,,,,,,,,,,,,,,,
,,,,,V3_095,22,female,2025-01-30_15h56.38.480,jersey_experiment_5_v3,2023.2.2,Win32,84.74576271,,,,,,,,,,,,,,,,234.3417,235.8944,235.8945,236.9298,return,0.2735,,99.21875,0,50,50,49,1,FBP-RB-17.png,0.45,1.2,50,0.75,,,,,,,,,,,,,,,,,,,,,,,,,,,,,,,,,,,,,,,,,,,,,
,,,,,V3_095,22,female,2025-01-30_15h56.38.480,jersey_experiment_5_v3,2023.2.2,Win32,84.74576271,,,,,,,,,,,,,,,,236.9301,238.4829,238.4831,239.8357,return,0.2674,,99.86979167,0,51,51,9,1,FBP-YG-81.png,0.45,1.2,10,0.75,,,,,,,,,,,,,,,,,,,,,,,,,,,,,,,,,,,,,,,,,,,,,
,,,,,V3_095,22,female,2025-01-30_15h56.38.480,jersey_experiment_5_v3,2023.2.2,Win32,84.74576271,,,,,,,,,,,,,,,,239.8359,241.3886,241.3886,242.8359,return,0.2102,,95.05208333,0,52,52,18,1,FBP-PT-17.png,0.43,1.2,19,0.75,,,,,,,,,,,,,,,,,,,,,,,,,,,,,,,,,,,,,,,,,,,,,
,,,,,V3_095,22,female,2025-01-30_15h56.38.480,jersey_experiment_5_v3,2023.2.2,Win32,84.74576271,,,,,,,,,,,,,,,,242.8361,244.389,244.3891,245.6361,return,0.1885,,56.90104167,0,53,53,10,1,FBP-YG-91.png,0.35,1.2,11,0.75,,,,,,,,,,,,,,,,,,,,,,,,,,,,,,,,,,,,,,,,,,,,,
,,,,,V3_095,22,female,2025-01-30_15h56.38.480,jersey_experiment_5_v3,2023.2.2,Win32,84.74576271,,,,,,,,,,,,,,,,245.6363,247.1892,247.1893,248.1302,return,0.2256,,75.65104167,0,54,54,13,1,FBP-YG-91.png,0.43,1.2,14,0.75,,,,,,,,,,,,,,,,,,,,,,,,,,,,,,,,,,,,,,,,,,,,,
,,,,,V3_095,22,female,2025-01-30_15h56.38.480,jersey_experiment_5_v3,2023.2.2,Win32,84.74576271,,,,,,,,,,,,,,,,248.1305,249.6833,249.6833,250.4832,return,0.2801,,69.40104167,0,55,55,26,1,FBP-PT-19.png,0.37,1.2,27,0.75,,,,,,,,,,,,,,,,,,,,,,,,,,,,,,,,,,,,,,,,,,,,,
,,,,,V3_095,22,female,2025-01-30_15h56.38.480,jersey_experiment_5_v3,2023.2.2,Win32,84.74576271,,,,,,,,,,,,,,,,250.4835,252.0362,252.0362,252.9658,return,0.2704,,71.74479167,0,56,56,2,1,FBP-YG-71.png,0.4,1.2,3,0.75,,,,,,,,,,,,,,,,,,,,,,,,,,,,,,,,,,,,,,,,,,,,,
,,,,,V3_095,22,female,2025-01-30_15h56.38.480,jersey_experiment_5_v3,2023.2.2,Win32,84.74576271,,,,,,,,,,,,,,,,252.9662,254.5187,254.5187,255.8129,return,0.2354,,83.85416667,0,57,57,48,1,FBP-RB-17.png,0.43,1.2,49,0.75,,,,,,,,,,,,,,,,,,,,,,,,,,,,,,,,,,,,,,,,,,,,,
,,,,,V3_095,22,female,2025-01-30_15h56.38.480,jersey_experiment_5_v3,2023.2.2,Win32,84.74576271,,,,,,,,,,,,,,,,255.8132,257.3658,257.3659,258.3188,return,0.1671,,58.203125,0,58,58,55,1,FBP-RB-19.png,0.35,1.2,56,0.75,,,,,,,,,,,,,,,,,,,,,,,,,,,,,,,,,,,,,,,,,,,,,
,,,,,V3_095,22,female,2025-01-30_15h56.38.480,jersey_experiment_5_v3,2023.2.2,Win32,84.74576271,,,,,,,,,,,,,,,,258.319,259.8719,259.872,260.6718,return,0.1446,,93.09895833,0,59,59,29,1,FBP-PT-19.png,0.45,1.2,30,0.75,,,,,,,,,,,,,,,,,,,,,,,,,,,,,,,,,,,,,,,,,,,,,
,,,,,V3_095,22,female,2025-01-30_15h56.38.480,jersey_experiment_5_v3,2023.2.2,Win32,84.74576271,,,,,,,,,,,,,,,,260.6731,262.2249,262.2249,262.8367,return,0.165,,89.0625,,,,,,FBP-RB-81.png,0.4,1.2,53,0.75,0,0,0,52,1,,,,,,,,,,,,,,,,,,,,,,,,,,,,,,,,,,,,,,,,
,,,,,V3_095,22,female,2025-01-30_15h56.38.480,jersey_experiment_5_v3,2023.2.2,Win32,84.74576271,,,,,,,,,,,,,,,,262.8369,264.3897,264.3897,265.2013,return,0.2384,,94.53125,,,,,,FBP-YG-17.png,0.43,1.2,4,0.75,0,1,1,3,1,,,,,,,,,,,,,,,,,,,,,,,,,,,,,,,,,,,,,,,,
,,,,,V3_095,22,female,2025-01-30_15h56.38.480,jersey_experiment_5_v3,2023.2.2,Win32,84.74576271,,,,,,,,,,,,,,,,265.2015,266.4956,266.4956,267.2839,return,0.2371,,90.36458333,,,,,,FBP-OG-81.png,0.43,1.2,39,0.5,0,2,2,38,1,,,,,,,,,,,,,,,,,,,,,,,,,,,,,,,,,,,,,,,,
,,,,,V3_095,22,female,2025-01-30_15h56.38.480,jersey_experiment_5_v3,2023.2.2,Win32,84.74576271,,,,,,,,,,,,,,,,267.2842,268.8369,268.8369,269.5075,return,0.1768,,96.09375,,,,,,FBP-RB-91.png,0.43,1.2,59,0.75,0,3,3,58,1,,,,,,,,,,,,,,,,,,,,,,,,,,,,,,,,,,,,,,,,
,,,,,V3_095,22,female,2025-01-30_15h56.38.480,jersey_experiment_5_v3,2023.2.2,Win32,84.74576271,,,,,,,,,,,,,,,,269.5078,271.0605,271.0606,272.5781,return,0.2265,,75.78125,,,,,,FBP-RB-91.png,0.37,1.2,57,0.75,0,4,4,56,1,,,,,,,,,,,,,,,,,,,,,,,,,,,,,,,,,,,,,,,,
,,,,,V3_095,22,female,2025-01-30_15h56.38.480,jersey_experiment_5_v3,2023.2.2,Win32,84.74576271,,,,,,,,,,,,,,,,272.5784,274.1311,274.1311,274.884,return,0.1545,,77.99479167,,,,,,FBP-PT-91.png,0.4,1.2,28,0.75,0,5,5,27,1,,,,,,,,,,,,,,,,,,,,,,,,,,,,,,,,,,,,,,,,
,,,,,V3_095,22,female,2025-01-30_15h56.38.480,jersey_experiment_5_v3,2023.2.2,Win32,84.74576271,,,,,,,,,,,,,,,,274.8843,276.4371,276.4372,277.2136,return,0.1916,,70.44270833,,,,,,FBP-YG-18.png,0.37,1.2,7,0.75,0,6,6,6,1,,,,,,,,,,,,,,,,,,,,,,,,,,,,,,,,,,,,,,,,
,,,,,V3_095,22,female,2025-01-30_15h56.38.480,jersey_experiment_5_v3,2023.2.2,Win32,84.74576271,,,,,,,,,,,,,,,,277.2138,278.7668,278.7668,279.3901,return,0.1947,,73.046875,,,,,,FBP-PT-91.png,0.43,1.2,29,0.75,0,7,7,28,1,,,,,,,,,,,,,,,,,,,,,,,,,,,,,,,,,,,,,,,,
,,,,,V3_095,22,female,2025-01-30_15h56.38.480,jersey_experiment_5_v3,2023.2.2,Win32,84.74576271,,,,,,,,,,,,,,,,279.3903,280.9431,280.9432,281.8609,return,0.1753,,57.03125,,,,,,FBP-YG-19.png,0.35,1.2,11,0.75,0,8,8,10,1,,,,,,,,,,,,,,,,,,,,,,,,,,,,,,,,,,,,,,,,
,,,,,V3_095,22,female,2025-01-30_15h56.38.480,jersey_experiment_5_v3,2023.2.2,Win32,84.74576271,,,,,,,,,,,,,,,,281.8611,283.155,283.1551,284.3198,return,0.1812,,74.34895833,,,,,,FBP-OG-91.png,0.45,1.2,45,0.5,0,9,9,44,1,,,,,,,,,,,,,,,,,,,,,,,,,,,,,,,,,,,,,,,,
,,,,,V3_095,22,female,2025-01-30_15h56.38.480,jersey_experiment_5_v3,2023.2.2,Win32,84.74576271,,,,,,,,,,,,,,,,284.32,285.873,285.873,286.7318,return,0.1739,,55.33854167,,,,,,FBP-PT-81.png,0.35,1.2,21,0.75,0,10,10,20,1,,,,,,,,,,,,,,,,,,,,,,,,,,,,,,,,,,,,,,,,
,,,,,V3_095,22,female,2025-01-30_15h56.38.480,jersey_experiment_5_v3,2023.2.2,Win32,84.74576271,,,,,,,,,,,,,,,,286.7322,288.2848,288.2848,289.1082,return,0.1652,,72.265625,,,,,,FBP-PT-81.png,0.43,1.2,24,0.75,0,11,11,23,1,,,,,,,,,,,,,,,,,,,,,,,,,,,,,,,,,,,,,,,,
,,,,,V3_095,22,female,2025-01-30_15h56.38.480,jersey_experiment_5_v3,2023.2.2,Win32,84.74576271,,,,,,,,,,,,,,,,289.1085,290.661,290.6611,291.5317,return,0.1972,,88.28125,,,,,,FBP-PT-91.png,0.45,1.2,30,0.75,0,12,12,29,1,,,,,,,,,,,,,,,,,,,,,,,,,,,,,,,,,,,,,,,,
,,,,,V3_095,22,female,2025-01-30_15h56.38.480,jersey_experiment_5_v3,2023.2.2,Win32,84.74576271,,,,,,,,,,,,,,,,291.532,293.0859,293.0859,294.179,return,0.1871,,88.28125,,,,,,FBP-YG-19.png,0.45,1.2,15,0.75,0,13,13,14,1,,,,,,,,,,,,,,,,,,,,,,,,,,,,,,,,,,,,,,,,
,,,,,V3_095,22,female,2025-01-30_15h56.38.480,jersey_experiment_5_v3,2023.2.2,Win32,84.74576271,,,,,,,,,,,,,,,,294.1792,295.7321,295.7321,296.6262,return,0.2025,,60.80729167,,,,,,FBP-YG-18.png,0.35,1.2,6,0.75,0,14,14,5,1,,,,,,,,,,,,,,,,,,,,,,,,,,,,,,,,,,,,,,,,
,,,,,V3_095,22,female,2025-01-30_15h56.38.480,jersey_experiment_5_v3,2023.2.2,Win32,84.74576271,,,,,,,,,,,,,,,,296.6265,298.1791,298.1792,299.0732,return,0.1797,,67.70833333,,,,,,FBP-YG-19.png,0.37,1.2,12,0.75,0,15,15,11,1,,,,,,,,,,,,,,,,,,,,,,,,,,,,,,,,,,,,,,,,
,,,,,V3_095,22,female,2025-01-30_15h56.38.480,jersey_experiment_5_v3,2023.2.2,Win32,84.74576271,,,,,,,,,,,,,,,,299.0736,300.6265,300.6266,301.6616,return,0.1238,,94.40104167,,,,,,FBP-PT-71.png,0.45,1.2,20,0.75,0,16,16,19,1,,,,,,,,,,,,,,,,,,,,,,,,,,,,,,,,,,,,,,,,
,,,,,V3_095,22,female,2025-01-30_15h56.38.480,jersey_experiment_5_v3,2023.2.2,Win32,84.74576271,,,,,,,,,,,,,,,,301.6617,303.2031,303.2031,303.8735,return,0.2031,,86.45833333,,,,,,FBP-YG-19.png,0.4,1.2,13,0.75,0,17,17,12,1,,,,,,,,,,,,,,,,,,,,,,,,,,,,,,,,,,,,,,,,
,,,,,V3_095,22,female,2025-01-30_15h56.38.480,jersey_experiment_5_v3,2023.2.2,Win32,84.74576271,,,,,,,,,,,,,,,,303.8739,305.4265,305.4265,306.2619,return,0.1987,,77.34375,,,,,,FBP-YG-17.png,0.35,1.2,1,0.75,0,18,18,0,1,,,,,,,,,,,,,,,,,,,,,,,,,,,,,,,,,,,,,,,,
,,,,,V3_095,22,female,2025-01-30_15h56.38.480,jersey_experiment_5_v3,2023.2.2,Win32,84.74576271,,,,,,,,,,,,,,,,306.2622,307.8149,307.8149,308.6266,return,0.1433,,93.88020833,,,,,,FBP-RB-81.png,0.43,1.2,54,0.75,0,19,19,53,1,,,,,,,,,,,,,,,,,,,,,,,,,,,,,,,,,,,,,,,,
,,,,,V3_095,22,female,2025-01-30_15h56.38.480,jersey_experiment_5_v3,2023.2.2,Win32,84.74576271,,,,,,,,,,,,,,,,308.6269,310.1796,310.1796,311.2032,return,0.1535,,79.16666667,,,,,,FBP-PT-81.png,0.4,1.2,23,0.75,0,20,20,22,1,,,,,,,,,,,,,,,,,,,,,,,,,,,,,,,,,,,,,,,,
,,,,,V3_095,22,female,2025-01-30_15h56.38.480,jersey_experiment_5_v3,2023.2.2,Win32,84.74576271,,,,,,,,,,,,,,,,311.2034,312.7562,312.7562,313.7092,return,0.1604,,57.68229167,,,,,,FBP-PT-71.png,0.35,1.2,16,0.75,0,21,21,15,1,,,,,,,,,,,,,,,,,,,,,,,,,,,,,,,,,,,,,,,,
,,,,,V3_095,22,female,2025-01-30_15h56.38.480,jersey_experiment_5_v3,2023.2.2,Win32,84.74576271,,,,,,,,,,,,,,,,313.7095,315.2624,315.2625,316.1327,return,0.1777,,73.56770833,,,,,,FBP-RB-71.png,0.45,1.2,50,0.75,0,22,22,49,1,,,,,,,,,,,,,,,,,,,,,,,,,,,,,,,,,,,,,,,,
,,,,,V3_095,22,female,2025-01-30_15h56.38.480,jersey_experiment_5_v3,2023.2.2,Win32,84.74576271,,,,,,,,,,,,,,,,316.133,317.427,317.427,318.274,return,0.1318,,68.61979167,,,,,,FBP-OG-91.png,0.43,1.2,44,0.5,0,23,23,43,1,,,,,,,,,,,,,,,,,,,,,,,,,,,,,,,,,,,,,,,,
,,,,,V3_095,22,female,2025-01-30_15h56.38.480,jersey_experiment_5_v3,2023.2.2,Win32,84.74576271,,,,,,,,,,,,,,,,318.2742,319.5682,319.5682,320.5446,return,0.1555,,59.89583333,,,,,,FBP-OG-91.png,0.4,1.2,43,0.5,0,24,24,42,1,,,,,,,,,,,,,,,,,,,,,,,,,,,,,,,,,,,,,,,,
,,,,,V3_095,22,female,2025-01-30_15h56.38.480,jersey_experiment_5_v3,2023.2.2,Win32,84.74576271,,,,,,,,,,,,,,,,320.5449,322.0978,322.0978,322.9331,return,0.1782,,66.92708333,,,,,,FBP-PT-81.png,0.45,1.2,25,0.75,0,25,25,24,1,,,,,,,,,,,,,,,,,,,,,,,,,,,,,,,,,,,,,,,,
,,,,,V3_095,22,female,2025-01-30_15h56.38.480,jersey_experiment_5_v3,2023.2.2,Win32,84.74576271,,,,,,,,,,,,,,,,322.9334,324.4859,324.4859,325.3802,return,0.1802,,54.16666667,,,,,,FBP-PT-71.png,0.37,1.2,17,0.75,0,26,26,16,1,,,,,,,,,,,,,,,,,,,,,,,,,,,,,,,,,,,,,,,,
,,,,,V3_095,22,female,2025-01-30_15h56.38.480,jersey_experiment_5_v3,2023.2.2,Win32,84.74576271,,,,,,,,,,,,,,,,325.3805,326.9333,326.9334,327.6038,return,0.1762,,49.21875,,,,,,FBP-PT-91.png,0.37,1.2,27,0.75,0,27,27,26,1,,,,,,,,,,,,,,,,,,,,,,,,,,,,,,,,,,,,,,,,
,,,,,V3_095,22,female,2025-01-30_15h56.38.480,jersey_experiment_5_v3,2023.2.2,Win32,84.74576271,,,,,,,,,,,,,,,,327.6039,328.8979,328.8979,329.5569,return,0.1647,,45.57291667,,,,,,FBP-OG-91.png,0.37,1.2,42,0.5,0,28,28,41,1,,,,,,,,,,,,,,,,,,,,,,,,,,,,,,,,,,,,,,,,
,,,,,V3_095,22,female,2025-01-30_15h56.38.480,jersey_experiment_5_v3,2023.2.2,Win32,84.74576271,,,,,,,,,,,,,,,,329.5571,331.11,331.11,331.8039,return,0.1616,,72.52604167,,,,,,FBP-RB-81.png,0.45,1.2,55,0.75,0,29,29,54,1,,,,,,,,,,,,,,,,,,,,,,,,,,,,,,,,,,,,,,,,
,,,,,V3_095,22,female,2025-01-30_15h56.38.480,jersey_experiment_5_v3,2023.2.2,Win32,84.74576271,,,,,,,,,,,,,,,,331.8042,333.0981,333.0982,334.1453,return,0.2153,,53.64583333,,,,,,FBP-OG-81.png,0.37,1.2,37,0.5,0,30,30,36,1,,,,,,,,,,,,,,,,,,,,,,,,,,,,,,,,,,,,,,,,
,,,,,V3_095,22,female,2025-01-30_15h56.38.480,jersey_experiment_5_v3,2023.2.2,Win32,84.74576271,,,,,,,,,,,,,,,,334.1455,335.6983,335.6983,336.5923,return,0.2242,,74.609375,,,,,,FBP-RB-91.png,0.45,1.2,60,0.75,0,31,31,59,1,,,,,,,,,,,,,,,,,,,,,,,,,,,,,,,,,,,,,,,,
,,,,,V3_095,22,female,2025-01-30_15h56.38.480,jersey_experiment_5_v3,2023.2.2,Win32,84.74576271,,,,,,,,,,,,,,,,336.5926,338.1455,338.1456,338.7807,return,0.1961,,67.70833333,,,,,,FBP-YG-18.png,0.4,1.2,8,0.75,0,32,32,7,1,,,,,,,,,,,,,,,,,,,,,,,,,,,,,,,,,,,,,,,,
,,,,,V3_095,22,female,2025-01-30_15h56.38.480,jersey_experiment_5_v3,2023.2.2,Win32,84.74576271,,,,,,,,,,,,,,,,338.7808,340.322,340.322,341.1572,return,0.1883,,42.31770833,,,,,,FBP-RB-71.png,0.35,1.2,46,0.75,0,33,33,45,1,,,,,,,,,,,,,,,,,,,,,,,,,,,,,,,,,,,,,,,,
,,,,,V3_095,22,female,2025-01-30_15h56.38.480,jersey_experiment_5_v3,2023.2.2,Win32,84.74576271,,,,,,,,,,,,,,,,341.1574,342.4514,342.4514,343.3456,return,0.1782,,26.69270833,,,,,,FBP-OG-81.png,0.35,1.2,36,0.5,0,34,34,35,1,,,,,,,,,,,,,,,,,,,,,,,,,,,,,,,,,,,,,,,,
,,,,,V3_095,22,female,2025-01-30_15h56.38.480,jersey_experiment_5_v3,2023.2.2,Win32,84.74576271,,,,,,,,,,,,,,,,343.3458,344.8986,344.8987,345.8044,return,0.1722,,55.078125,,,,,,FBP-RB-71.png,0.4,1.2,48,0.75,0,35,35,47,1,,,,,,,,,,,,,,,,,,,,,,,,,,,,,,,,,,,,,,,,
,,,,,V3_095,22,female,2025-01-30_15h56.38.480,jersey_experiment_5_v3,2023.2.2,Win32,84.74576271,,,,,,,,,,,,,,,,345.8047,347.3577,347.3578,348.134,return,0.1538,,59.50520833,,,,,,FBP-RB-71.png,0.37,1.2,47,0.75,0,36,36,46,1,,,,,,,,,,,,,,,,,,,,,,,,,,,,,,,,,,,,,,,,
,,,,,V3_095,22,female,2025-01-30_15h56.38.480,jersey_experiment_5_v3,2023.2.2,Win32,84.74576271,,,,,,,,,,,,,,,,348.1343,349.6869,349.687,350.5105,return,0.1929,,50.390625,,,,,,FBP-RB-91.png,0.4,1.2,58,0.75,0,37,37,57,1,,,,,,,,,,,,,,,,,,,,,,,,,,,,,,,,,,,,,,,,
,,,,,V3_095,22,female,2025-01-30_15h56.38.480,jersey_experiment_5_v3,2023.2.2,Win32,84.74576271,,,,,,,,,,,,,,,,350.5109,351.8047,351.8048,352.7107,return,0.1651,,70.18229167,,,,,,FBP-OG-71.png,0.45,1.2,35,0.5,0,38,38,34,1,,,,,,,,,,,,,,,,,,,,,,,,,,,,,,,,,,,,,,,,
,,,,,V3_095,22,female,2025-01-30_15h56.38.480,jersey_experiment_5_v3,2023.2.2,Win32,84.74576271,,,,,,,,,,,,,,,,352.7108,354.0049,354.0049,354.6518,return,0.1945,,67.578125,,,,,,FBP-OG-81.png,0.4,1.2,38,0.5,0,39,39,37,1,,,,,,,,,,,,,,,,,,,,,,,,,,,,,,,,,,,,,,,,
,,,,,V3_095,22,female,2025-01-30_15h56.38.480,jersey_experiment_5_v3,2023.2.2,Win32,84.74576271,,,,,,,,,,,,,,,,354.652,356.205,356.2051,356.7814,return,0.1567,,84.11458333,,,,,,FBP-YG-17.png,0.45,1.2,5,0.75,0,40,40,4,1,,,,,,,,,,,,,,,,,,,,,,,,,,,,,,,,,,,,,,,,
,,,,,V3_095,22,female,2025-01-30_15h56.38.480,jersey_experiment_5_v3,2023.2.2,Win32,84.74576271,,,,,,,,,,,,,,,,356.7815,358.0756,358.0756,358.7814,return,0.2189,,84.11458333,,,,,,FBP-OG-71.png,0.4,1.2,33,0.5,0,41,41,32,1,,,,,,,,,,,,,,,,,,,,,,,,,,,,,,,,,,,,,,,,
,,,,,V3_095,22,female,2025-01-30_15h56.38.480,jersey_experiment_5_v3,2023.2.2,Win32,84.74576271,,,,,,,,,,,,,,,,358.7817,360.0756,360.0756,361.1698,return,0.166,,38.15104167,,,,,,FBP-OG-71.png,0.35,1.2,31,0.5,0,42,42,30,1,,,,,,,,,,,,,,,,,,,,,,,,,,,,,,,,,,,,,,,,
,,,,,V3_095,22,female,2025-01-30_15h56.38.480,jersey_experiment_5_v3,2023.2.2,Win32,84.74576271,,,,,,,,,,,,,,,,361.1701,362.4641,362.4642,363.2521,return,0.1283,,60.02604167,,,,,,FBP-OG-81.png,0.45,1.2,40,0.5,0,43,43,39,1,,,,,,,,,,,,,,,,,,,,,,,,,,,,,,,,,,,,,,,,
,,,,,V3_095,22,female,2025-01-30_15h56.38.480,jersey_experiment_5_v3,2023.2.2,Win32,84.74576271,,,,,,,,,,,,,,,,363.2524,364.8052,364.8053,365.6522,return,0.1884,,50,,,,,,FBP-YG-17.png,0.37,1.2,2,0.75,0,44,44,1,1,,,,,,,,,,,,,,,,,,,,,,,,,,,,,,,,,,,,,,,,
,,,,,V3_095,22,female,2025-01-30_15h56.38.480,jersey_experiment_5_v3,2023.2.2,Win32,84.74576271,,,,,,,,,,,,,,,,365.6526,367.2051,367.2051,368.0759,return,0.1734,,56.11979167,,,,,,FBP-RB-81.png,0.37,1.2,52,0.75,0,45,45,51,1,,,,,,,,,,,,,,,,,,,,,,,,,,,,,,,,,,,,,,,,
,,,,,V3_095,22,female,2025-01-30_15h56.38.480,jersey_experiment_5_v3,2023.2.2,Win32,84.74576271,,,,,,,,,,,,,,,,368.0761,369.6291,369.6291,370.3702,return,0.2025,,39.0625,,,,,,FBP-PT-91.png,0.35,1.2,26,0.75,0,46,46,25,1,,,,,,,,,,,,,,,,,,,,,,,,,,,,,,,,,,,,,,,,
,,,,,V3_095,22,female,2025-01-30_15h56.38.480,jersey_experiment_5_v3,2023.2.2,Win32,84.74576271,,,,,,,,,,,,,,,,370.3705,371.9234,371.9234,372.6408,return,0.1685,,75.390625,,,,,,FBP-RB-71.png,0.43,1.2,49,0.75,0,47,47,48,1,,,,,,,,,,,,,,,,,,,,,,,,,,,,,,,,,,,,,,,,
,,,,,V3_095,22,female,2025-01-30_15h56.38.480,jersey_experiment_5_v3,2023.2.2,Win32,84.74576271,,,,,,,,,,,,,,,,372.641,374.1822,374.1823,374.8055,return,0.1884,,80.98958333,,,,,,FBP-PT-71.png,0.43,1.2,19,0.75,0,48,48,18,1,,,,,,,,,,,,,,,,,,,,,,,,,,,,,,,,,,,,,,,,
,,,,,V3_095,22,female,2025-01-30_15h56.38.480,jersey_experiment_5_v3,2023.2.2,Win32,84.74576271,,,,,,,,,,,,,,,,374.8059,376.0997,376.0997,376.735,return,0.1231,,84.765625,,,,,,FBP-OG-71.png,0.43,1.2,34,0.5,0,49,49,33,1,,,,,,,,,,,,,,,,,,,,,,,,,,,,,,,,,,,,,,,,
,,,,,V3_095,22,female,2025-01-30_15h56.38.480,jersey_experiment_5_v3,2023.2.2,Win32,84.74576271,,,,,,,,,,,,,,,,376.7352,378.2764,378.2765,379.0998,return,0.1934,,49.47916667,,,,,,FBP-RB-81.png,0.35,1.2,51,0.75,0,50,50,50,1,,,,,,,,,,,,,,,,,,,,,,,,,,,,,,,,,,,,,,,,
,,,,,V3_095,22,female,2025-01-30_15h56.38.480,jersey_experiment_5_v3,2023.2.2,Win32,84.74576271,,,,,,,,,,,,,,,,379.1,380.653,380.6531,381.3588,return,0.1458,,71.484375,,,,,,FBP-YG-17.png,0.4,1.2,3,0.75,0,51,51,2,1,,,,,,,,,,,,,,,,,,,,,,,,,,,,,,,,,,,,,,,,
,,,,,V3_095,22,female,2025-01-30_15h56.38.480,jersey_experiment_5_v3,2023.2.2,Win32,84.74576271,,,,,,,,,,,,,,,,381.3591,382.912,382.912,383.5352,return,0.1937,,45.703125,,,,,,FBP-RB-91.png,0.35,1.2,56,0.75,0,52,52,55,1,,,,,,,,,,,,,,,,,,,,,,,,,,,,,,,,,,,,,,,,
,,,,,V3_095,22,female,2025-01-30_15h56.38.480,jersey_experiment_5_v3,2023.2.2,Win32,84.74576271,,,,,,,,,,,,,,,,383.5354,385.0884,385.0885,385.5824,return,0.1792,,57.29166667,,,,,,FBP-PT-71.png,0.4,1.2,18,0.75,0,53,53,17,1,,,,,,,,,,,,,,,,,,,,,,,,,,,,,,,,,,,,,,,,
,,,,,V3_095,22,female,2025-01-30_15h56.38.480,jersey_experiment_5_v3,2023.2.2,Win32,84.74576271,,,,,,,,,,,,,,,,385.5827,387.1355,387.1355,388.3708,return,0.2019,,48.828125,,,,,,FBP-PT-81.png,0.37,1.2,22,0.75,0,54,54,21,1,,,,,,,,,,,,,,,,,,,,,,,,,,,,,,,,,,,,,,,,
,,,,,V3_095,22,female,2025-01-30_15h56.38.480,jersey_experiment_5_v3,2023.2.2,Win32,84.74576271,,,,,,,,,,,,,,,,388.3711,389.665,389.6651,390.3239,return,0.1892,,42.578125,,,,,,FBP-OG-71.png,0.37,1.2,32,0.5,0,55,55,31,1,,,,,,,,,,,,,,,,,,,,,,,,,,,,,,,,,,,,,,,,
,,,,,V3_095,22,female,2025-01-30_15h56.38.480,jersey_experiment_5_v3,2023.2.2,Win32,84.74576271,,,,,,,,,,,,,,,,390.3242,391.877,391.8771,392.8768,return,0.1726,,71.61458333,,,,,,FBP-YG-18.png,0.43,1.2,9,0.75,0,56,56,8,1,,,,,,,,,,,,,,,,,,,,,,,,,,,,,,,,,,,,,,,,
,,,,,V3_095,22,female,2025-01-30_15h56.38.480,jersey_experiment_5_v3,2023.2.2,Win32,84.74576271,,,,,,,,,,,,,,,,392.877,394.1712,394.1712,395.1828,return,0.1338,,32.8125,,,,,,FBP-OG-91.png,0.35,1.2,41,0.5,0,57,57,40,1,,,,,,,,,,,,,,,,,,,,,,,,,,,,,,,,,,,,,,,,
,,,,,V3_095,22,female,2025-01-30_15h56.38.480,jersey_experiment_5_v3,2023.2.2,Win32,84.74576271,,,,,,,,,,,,,,,,395.1831,396.7358,396.7359,397.5478,return,0.1857,,84.765625,,,,,,FBP-YG-18.png,0.45,1.2,10,0.75,0,58,58,9,1,,,,,,,,,,,,,,,,,,,,,,,,,,,,,,,,,,,,,,,,
,,,,,V3_095,22,female,2025-01-30_15h56.38.480,jersey_experiment_5_v3,2023.2.2,Win32,84.74576271,,,,,,,,,,,,,,,,397.548,399.1008,399.1008,400.1241,return,0.1733,,88.80208333,,,,,,FBP-YG-19.png,0.43,1.2,14,0.75,0,59,59,13,1,,,,,,,,,,,,,,,,,,,,,,,,,,,,,,,,,,,,,,,,
,,,,,V3_095,22,female,2025-01-30_15h56.38.480,jersey_experiment_5_v3,2023.2.2,Win32,84.74576271,,,,,,,,,,,,,,,,,,,,,,,,,,,,,,,,,,,,,,,400.1242,520.1171,,,,,,,,,,,,,,,,,,,,,,,,,,,,,,,,,,,,,,
,,,,,V3_095,22,female,2025-01-30_15h56.38.480,jersey_experiment_5_v3,2023.2.2,Win32,84.74576271,,,,,,,,,,,,,,,,,,,,,,,,,,,,,,,,,,,,,,,,,520.1171,524.6584,return,4.5302,,,,,,,,,,,,,,,,,,,,,,,,,,,,,,,,,,
,,,,,V3_095,22,female,2025-01-30_15h56.38.480,jersey_experiment_5_v3,2023.2.2,Win32,84.74576271,,,,,,,,,,,,,,,,524.6597,525.9527,525.9528,529.0587,return,0.8464,,21.484375,,,,,,FBP-YG-81.png,0.35,1.2,6,0.5,,,,,,,,,,,,,0,0,0,5,1,,,,,,,,,,,,,,,,,,,,,,,,,,,,
,,,,,V3_095,22,female,2025-01-30_15h56.38.480,jersey_experiment_5_v3,2023.2.2,Win32,84.74576271,,,,,,,,,,,,,,,,529.0591,530.6115,530.6115,531.388,return,0.1485,,9.765625,,,,,,FBP-OG-17.png,0.35,1.2,31,0.75,,,,,,,,,,,,,0,1,1,30,1,,,,,,,,,,,,,,,,,,,,,,,,,,,,
,,,,,V3_095,22,female,2025-01-30_15h56.38.480,jersey_experiment_5_v3,2023.2.2,Win32,84.74576271,,,,,,,,,,,,,,,,531.3882,532.6822,532.6823,534.4352,return,0.2923,,70.57291667,,,,,,FBP-YG-81.png,0.43,1.2,9,0.5,,,,,,,,,,,,,0,2,2,8,1,,,,,,,,,,,,,,,,,,,,,,,,,,,,
,,,,,V3_095,22,female,2025-01-30_15h56.38.480,jersey_experiment_5_v3,2023.2.2,Win32,84.74576271,,,,,,,,,,,,,,,,534.4354,535.7294,535.7294,536.9293,return,0.1527,,84.765625,,,,,,FBP-RB-18.png,0.45,1.2,55,0.5,,,,,,,,,,,,,0,3,3,54,1,,,,,,,,,,,,,,,,,,,,,,,,,,,,
,,,,,V3_095,22,female,2025-01-30_15h56.38.480,jersey_experiment_5_v3,2023.2.2,Win32,84.74576271,,,,,,,,,,,,,,,,536.9296,538.2236,538.2237,539.3293,return,0.1763,,28.77604167,,,,,,FBP-RB-19.png,0.35,1.2,56,0.5,,,,,,,,,,,,,0,4,4,55,1,,,,,,,,,,,,,,,,,,,,,,,,,,,,
,,,,,V3_095,22,female,2025-01-30_15h56.38.480,jersey_experiment_5_v3,2023.2.2,Win32,84.74576271,,,,,,,,,,,,,,,,539.3295,540.6237,540.6237,541.7884,return,0.2403,,70.83333333,,,,,,FBP-RB-17.png,0.45,1.2,50,0.5,,,,,,,,,,,,,0,5,5,49,1,,,,,,,,,,,,,,,,,,,,,,,,,,,,
,,,,,V3_095,22,female,2025-01-30_15h56.38.480,jersey_experiment_5_v3,2023.2.2,Win32,84.74576271,,,,,,,,,,,,,,,,541.7887,543.3415,543.3416,544.2236,return,0.1536,,41.015625,,,,,,FBP-OG-19.png,0.37,1.2,42,0.75,,,,,,,,,,,,,0,6,6,41,1,,,,,,,,,,,,,,,,,,,,,,,,,,,,
,,,,,V3_095,22,female,2025-01-30_15h56.38.480,jersey_experiment_5_v3,2023.2.2,Win32,84.74576271,,,,,,,,,,,,,,,,544.2239,545.518,545.5181,546.3178,return,0.1561,,69.27083333,,,,,,FBP-RB-19.png,0.45,1.2,60,0.5,,,,,,,,,,,,,0,7,7,59,1,,,,,,,,,,,,,,,,,,,,,,,,,,,,
,,,,,V3_095,22,female,2025-01-30_15h56.38.480,jersey_experiment_5_v3,2023.2.2,Win32,84.74576271,,,,,,,,,,,,,,,,546.3181,547.6121,547.6121,548.3888,return,0.1886,,52.734375,,,,,,FBP-YG-91.png,0.4,1.2,13,0.5,,,,,,,,,,,,,0,8,8,12,1,,,,,,,,,,,,,,,,,,,,,,,,,,,,
,,,,,V3_095,22,female,2025-01-30_15h56.38.480,jersey_experiment_5_v3,2023.2.2,Win32,84.74576271,,,,,,,,,,,,,,,,548.3891,549.6828,549.6828,550.6946,return,0.165,,31.38020833,,,,,,FBP-PT-17.png,0.35,1.2,16,0.5,,,,,,,,,,,,,0,9,9,15,1,,,,,,,,,,,,,,,,,,,,,,,,,,,,
,,,,,V3_095,22,female,2025-01-30_15h56.38.480,jersey_experiment_5_v3,2023.2.2,Win32,84.74576271,,,,,,,,,,,,,,,,550.6949,552.2477,552.2478,552.9417,return,0.1948,,91.27604167,,,,,,FBP-OG-17.png,0.45,1.2,35,0.75,,,,,,,,,,,,,0,10,10,34,1,,,,,,,,,,,,,,,,,,,,,,,,,,,,
,,,,,V3_095,22,female,2025-01-30_15h56.38.480,jersey_experiment_5_v3,2023.2.2,Win32,84.74576271,,,,,,,,,,,,,,,,552.942,554.2359,554.2359,555.5889,return,0.1883,,86.97916667,,,,,,FBP-YG-71.png,0.43,1.2,4,0.5,,,,,,,,,,,,,0,11,11,3,1,,,,,,,,,,,,,,,,,,,,,,,,,,,,
,,,,,V3_095,22,female,2025-01-30_15h56.38.480,jersey_experiment_5_v3,2023.2.2,Win32,84.74576271,,,,,,,,,,,,,,,,555.5891,557.1421,557.1422,557.836,return,0.1936,,80.859375,,,,,,FBP-OG-19.png,0.4,1.2,43,0.75,,,,,,,,,,,,,0,12,12,42,1,,,,,,,,,,,,,,,,,,,,,,,,,,,,
,,,,,V3_095,22,female,2025-01-30_15h56.38.480,jersey_experiment_5_v3,2023.2.2,Win32,84.74576271,,,,,,,,,,,,,,,,557.8362,559.1304,559.1305,559.9421,return,0.199,,40.625,,,,,,FBP-PT-19.png,0.35,1.2,26,0.5,,,,,,,,,,,,,0,13,13,25,1,,,,,,,,,,,,,,,,,,,,,,,,,,,,
,,,,,V3_095,22,female,2025-01-30_15h56.38.480,jersey_experiment_5_v3,2023.2.2,Win32,84.74576271,,,,,,,,,,,,,,,,559.9422,561.236,561.236,561.942,return,0.1528,,56.77083333,,,,,,FBP-YG-71.png,0.37,1.2,2,0.5,,,,,,,,,,,,,0,14,14,1,1,,,,,,,,,,,,,,,,,,,,,,,,,,,,
,,,,,V3_095,22,female,2025-01-30_15h56.38.480,jersey_experiment_5_v3,2023.2.2,Win32,84.74576271,,,,,,,,,,,,,,,,561.9423,563.2364,563.2364,563.9655,return,0.1952,,67.05729167,,,,,,FBP-RB-18.png,0.4,1.2,53,0.5,,,,,,,,,,,,,0,15,15,52,1,,,,,,,,,,,,,,,,,,,,,,,,,,,,
,,,,,V3_095,22,female,2025-01-30_15h56.38.480,jersey_experiment_5_v3,2023.2.2,Win32,84.74576271,,,,,,,,,,,,,,,,563.9657,565.2598,565.2599,566.4833,return,0.1764,,48.828125,,,,,,FBP-YG-91.png,0.37,1.2,12,0.5,,,,,,,,,,,,,0,16,16,11,1,,,,,,,,,,,,,,,,,,,,,,,,,,,,
,,,,,V3_095,22,female,2025-01-30_15h56.38.480,jersey_experiment_5_v3,2023.2.2,Win32,84.74576271,,,,,,,,,,,,,,,,566.4835,567.7775,567.7776,568.5777,return,0.1555,,64.71354167,,,,,,FBP-RB-18.png,0.43,1.2,54,0.5,,,,,,,,,,,,,0,17,17,53,1,,,,,,,,,,,,,,,,,,,,,,,,,,,,
,,,,,V3_095,22,female,2025-01-30_15h56.38.480,jersey_experiment_5_v3,2023.2.2,Win32,84.74576271,,,,,,,,,,,,,,,,568.578,569.8717,569.8718,570.7545,return,0.1789,,69.40104167,,,,,,FBP-PT-18.png,0.43,1.2,24,0.5,,,,,,,,,,,,,0,18,18,23,1,,,,,,,,,,,,,,,,,,,,,,,,,,,,
,,,,,V3_095,22,female,2025-01-30_15h56.38.480,jersey_experiment_5_v3,2023.2.2,Win32,84.74576271,,,,,,,,,,,,,,,,570.7548,572.0486,572.0486,573.0601,return,0.1639,,53.125,,,,,,FBP-PT-17.png,0.37,1.2,17,0.5,,,,,,,,,,,,,0,19,19,16,1,,,,,,,,,,,,,,,,,,,,,,,,,,,,
,,,,,V3_095,22,female,2025-01-30_15h56.38.480,jersey_experiment_5_v3,2023.2.2,Win32,84.74576271,,,,,,,,,,,,,,,,573.0604,574.3543,574.3544,575.4369,return,0.2429,,72.39583333,,,,,,FBP-YG-71.png,0.45,1.2,5,0.5,,,,,,,,,,,,,0,20,20,4,1,,,,,,,,,,,,,,,,,,,,,,,,,,,,
,,,,,V3_095,22,female,2025-01-30_15h56.38.480,jersey_experiment_5_v3,2023.2.2,Win32,84.74576271,,,,,,,,,,,,,,,,575.4371,576.9898,576.9898,577.5192,return,0.1702,,77.99479167,,,,,,FBP-OG-19.png,0.45,1.2,45,0.75,,,,,,,,,,,,,0,21,21,44,1,,,,,,,,,,,,,,,,,,,,,,,,,,,,
,,,,,V3_095,22,female,2025-01-30_15h56.38.480,jersey_experiment_5_v3,2023.2.2,Win32,84.74576271,,,,,,,,,,,,,,,,577.5194,578.8133,578.8134,579.3781,return,0.1312,,81.11979167,,,,,,FBP-PT-19.png,0.45,1.2,30,0.5,,,,,,,,,,,,,0,22,22,29,1,,,,,,,,,,,,,,,,,,,,,,,,,,,,
,,,,,V3_095,22,female,2025-01-30_15h56.38.480,jersey_experiment_5_v3,2023.2.2,Win32,84.74576271,,,,,,,,,,,,,,,,579.3783,580.6723,580.6723,581.5899,return,0.1733,,81.11979167,,,,,,FBP-RB-17.png,0.4,1.2,48,0.5,,,,,,,,,,,,,0,23,23,47,1,,,,,,,,,,,,,,,,,,,,,,,,,,,,
,,,,,V3_095,22,female,2025-01-30_15h56.38.480,jersey_experiment_5_v3,2023.2.2,Win32,84.74576271,,,,,,,,,,,,,,,,581.5901,582.8842,582.8843,583.9664,return,0.171,,45.05208333,,,,,,FBP-PT-18.png,0.37,1.2,22,0.5,,,,,,,,,,,,,0,24,24,21,1,,,,,,,,,,,,,,,,,,,,,,,,,,,,
,,,,,V3_095,22,female,2025-01-30_15h56.38.480,jersey_experiment_5_v3,2023.2.2,Win32,84.74576271,,,,,,,,,,,,,,,,583.9666,585.2607,585.2607,586.0842,return,0.1181,,66.40625,,,,,,FBP-PT-17.png,0.45,1.2,20,0.5,,,,,,,,,,,,,0,25,25,19,1,,,,,,,,,,,,,,,,,,,,,,,,,,,,
,,,,,V3_095,22,female,2025-01-30_15h56.38.480,jersey_experiment_5_v3,2023.2.2,Win32,84.74576271,,,,,,,,,,,,,,,,586.0844,587.3784,587.3784,588.3902,return,0.1647,,47.00520833,,,,,,FBP-YG-81.png,0.37,1.2,7,0.5,,,,,,,,,,,,,0,26,26,6,1,,,,,,,,,,,,,,,,,,,,,,,,,,,,
,,,,,V3_095,22,female,2025-01-30_15h56.38.480,jersey_experiment_5_v3,2023.2.2,Win32,84.74576271,,,,,,,,,,,,,,,,588.3905,589.6842,589.6843,591.1197,return,0.0756,,32.421875,,,,,,FBP-RB-19.png,0.37,1.2,57,0.5,,,,,,,,,,,,,0,27,27,56,1,,,,,,,,,,,,,,,,,,,,,,,,,,,,
,,,,,V3_095,22,female,2025-01-30_15h56.38.480,jersey_experiment_5_v3,2023.2.2,Win32,84.74576271,,,,,,,,,,,,,,,,591.1199,592.414,592.4141,593.3903,return,0.1912,,67.05729167,,,,,,FBP-YG-91.png,0.43,1.2,14,0.5,,,,,,,,,,,,,0,28,28,13,1,,,,,,,,,,,,,,,,,,,,,,,,,,,,
,,,,,V3_095,22,female,2025-01-30_15h56.38.480,jersey_experiment_5_v3,2023.2.2,Win32,84.74576271,,,,,,,,,,,,,,,,593.3905,594.6845,594.6845,595.2963,return,0.1914,,67.05729167,,,,,,FBP-RB-19.png,0.4,1.2,58,0.5,,,,,,,,,,,,,0,29,29,57,1,,,,,,,,,,,,,,,,,,,,,,,,,,,,
,,,,,V3_095,22,female,2025-01-30_15h56.38.480,jersey_experiment_5_v3,2023.2.2,Win32,84.74576271,,,,,,,,,,,,,,,,595.2966,596.5905,596.5906,597.2611,return,0.1803,,82.16145833,,,,,,FBP-YG-91.png,0.45,1.2,15,0.5,,,,,,,,,,,,,0,30,30,14,1,,,,,,,,,,,,,,,,,,,,,,,,,,,,
,,,,,V3_095,22,female,2025-01-30_15h56.38.480,jersey_experiment_5_v3,2023.2.2,Win32,84.74576271,,,,,,,,,,,,,,,,597.2613,598.5555,598.5555,599.6494,return,0.1567,,58.984375,,,,,,FBP-RB-17.png,0.37,1.2,47,0.5,,,,,,,,,,,,,0,31,31,46,1,,,,,,,,,,,,,,,,,,,,,,,,,,,,
,,,,,V3_095,22,female,2025-01-30_15h56.38.480,jersey_experiment_5_v3,2023.2.2,Win32,84.74576271,,,,,,,,,,,,,,,,599.6496,601.1908,601.1908,602.5318,return,0.636,,77.60416667,,,,,,FBP-OG-19.png,0.43,1.2,44,0.75,,,,,,,,,,,,,0,32,32,43,1,,,,,,,,,,,,,,,,,,,,,,,,,,,,
,,,,,V3_095,22,female,2025-01-30_15h56.38.480,jersey_experiment_5_v3,2023.2.2,Win32,84.74576271,,,,,,,,,,,,,,,,602.532,603.8262,603.8262,604.7555,return,0.2037,,37.63020833,,,,,,FBP-YG-71.png,0.35,1.2,1,0.5,,,,,,,,,,,,,0,33,33,0,1,,,,,,,,,,,,,,,,,,,,,,,,,,,,
,,,,,V3_095,22,female,2025-01-30_15h56.38.480,jersey_experiment_5_v3,2023.2.2,Win32,84.74576271,,,,,,,,,,,,,,,,604.7558,606.3084,606.3085,606.979,return,0.2134,,33.72395833,,,,,,FBP-OG-17.png,0.4,1.2,33,0.75,,,,,,,,,,,,,0,34,34,32,1,,,,,,,,,,,,,,,,,,,,,,,,,,,,
,,,,,V3_095,22,female,2025-01-30_15h56.38.480,jersey_experiment_5_v3,2023.2.2,Win32,84.74576271,,,,,,,,,,,,,,,,606.9793,608.2733,608.2733,609.2613,return,0.172,,24.47916667,,,,,,FBP-YG-91.png,0.35,1.2,11,0.5,,,,,,,,,,,,,0,35,35,10,1,,,,,,,,,,,,,,,,,,,,,,,,,,,,
,,,,,V3_095,22,female,2025-01-30_15h56.38.480,jersey_experiment_5_v3,2023.2.2,Win32,84.74576271,,,,,,,,,,,,,,,,609.2616,610.8147,610.8147,612.3205,return,0.2008,,56.77083333,,,,,,FBP-OG-18.png,0.45,1.2,40,0.75,,,,,,,,,,,,,0,36,36,39,1,,,,,,,,,,,,,,,,,,,,,,,,,,,,
,,,,,V3_095,22,female,2025-01-30_15h56.38.480,jersey_experiment_5_v3,2023.2.2,Win32,84.74576271,,,,,,,,,,,,,,,,612.3208,613.6145,613.6145,614.8382,return,0.2678,,74.86979167,,,,,,FBP-YG-81.png,0.45,1.2,10,0.5,,,,,,,,,,,,,0,37,37,9,1,,,,,,,,,,,,,,,,,,,,,,,,,,,,
,,,,,V3_095,22,female,2025-01-30_15h56.38.480,jersey_experiment_5_v3,2023.2.2,Win32,84.74576271,,,,,,,,,,,,,,,,614.8384,616.1324,616.1325,616.7324,return,0.1957,,76.82291667,,,,,,FBP-PT-18.png,0.45,1.2,25,0.5,,,,,,,,,,,,,0,38,38,24,1,,,,,,,,,,,,,,,,,,,,,,,,,,,,
,,,,,V3_095,22,female,2025-01-30_15h56.38.480,jersey_experiment_5_v3,2023.2.2,Win32,84.74576271,,,,,,,,,,,,,,,,616.7325,618.0265,618.0266,619.2384,return,0.5047,,76.82291667,,,,,,FBP-PT-19.png,0.43,1.2,29,0.5,,,,,,,,,,,,,0,39,39,28,1,,,,,,,,,,,,,,,,,,,,,,,,,,,,
,,,,,V3_095,22,female,2025-01-30_15h56.38.480,jersey_experiment_5_v3,2023.2.2,Win32,84.74576271,,,,,,,,,,,,,,,,619.2387,620.5327,620.5327,622.062,return,0.1716,,24.73958333,,,,,,FBP-PT-18.png,0.35,1.2,21,0.5,,,,,,,,,,,,,0,40,40,20,1,,,,,,,,,,,,,,,,,,,,,,,,,,,,
,,,,,V3_095,22,female,2025-01-30_15h56.38.480,jersey_experiment_5_v3,2023.2.2,Win32,84.74576271,,,,,,,,,,,,,,,,622.0623,623.3564,623.3565,624.3093,return,0.2249,,42.1875,,,,,,FBP-PT-17.png,0.4,1.2,18,0.5,,,,,,,,,,,,,0,41,41,17,1,,,,,,,,,,,,,,,,,,,,,,,,,,,,
,,,,,V3_095,22,female,2025-01-30_15h56.38.480,jersey_experiment_5_v3,2023.2.2,Win32,84.74576271,,,,,,,,,,,,,,,,624.3095,625.8622,625.8622,626.4622,return,0.1712,,34.375,,,,,,FBP-OG-17.png,0.37,1.2,32,0.75,,,,,,,,,,,,,0,42,42,31,1,,,,,,,,,,,,,,,,,,,,,,,,,,,,
,,,,,V3_095,22,female,2025-01-30_15h56.38.480,jersey_experiment_5_v3,2023.2.2,Win32,84.74576271,,,,,,,,,,,,,,,,626.4624,627.7564,627.7565,628.7212,return,0.3179,,45.44270833,,,,,,FBP-PT-17.png,0.43,1.2,19,0.5,,,,,,,,,,,,,0,43,43,18,1,,,,,,,,,,,,,,,,,,,,,,,,,,,,
,,,,,V3_095,22,female,2025-01-30_15h56.38.480,jersey_experiment_5_v3,2023.2.2,Win32,84.74576271,,,,,,,,,,,,,,,,628.7213,630.0151,630.0152,631.1095,return,0.272,,51.82291667,,,,,,FBP-YG-81.png,0.4,1.2,8,0.5,,,,,,,,,,,,,0,44,44,7,1,,,,,,,,,,,,,,,,,,,,,,,,,,,,
,,,,,V3_095,22,female,2025-01-30_15h56.38.480,jersey_experiment_5_v3,2023.2.2,Win32,84.74576271,,,,,,,,,,,,,,,,631.1097,632.4036,632.4037,633.6624,return,0.2181,,41.14583333,,,,,,FBP-RB-18.png,0.35,1.2,51,0.5,,,,,,,,,,,,,0,45,45,50,1,,,,,,,,,,,,,,,,,,,,,,,,,,,,
,,,,,V3_095,22,female,2025-01-30_15h56.38.480,jersey_experiment_5_v3,2023.2.2,Win32,84.74576271,,,,,,,,,,,,,,,,633.6626,634.9566,634.9567,635.7096,return,0.172,,45.57291667,,,,,,FBP-PT-18.png,0.4,1.2,23,0.5,,,,,,,,,,,,,0,46,46,22,1,,,,,,,,,,,,,,,,,,,,,,,,,,,,
,,,,,V3_095,22,female,2025-01-30_15h56.38.480,jersey_experiment_5_v3,2023.2.2,Win32,84.74576271,,,,,,,,,,,,,,,,635.7099,637.0036,637.0037,638.0156,return,0.4995,,45.57291667,,,,,,FBP-RB-18.png,0.37,1.2,52,0.5,,,,,,,,,,,,,0,47,47,51,1,,,,,,,,,,,,,,,,,,,,,,,,,,,,
,,,,,V3_095,22,female,2025-01-30_15h56.38.480,jersey_experiment_5_v3,2023.2.2,Win32,84.74576271,,,,,,,,,,,,,,,,638.0158,639.5685,639.5686,640.5922,return,0.1659,,48.69791667,,,,,,FBP-OG-18.png,0.4,1.2,38,0.75,,,,,,,,,,,,,0,48,48,37,1,,,,,,,,,,,,,,,,,,,,,,,,,,,,
,,,,,V3_095,22,female,2025-01-30_15h56.38.480,jersey_experiment_5_v3,2023.2.2,Win32,84.74576271,,,,,,,,,,,,,,,,640.5925,641.8864,641.8865,642.9098,return,0.1714,,68.61979167,,,,,,FBP-RB-17.png,0.43,1.2,49,0.5,,,,,,,,,,,,,0,49,49,48,1,,,,,,,,,,,,,,,,,,,,,,,,,,,,
,,,,,V3_095,22,female,2025-01-30_15h56.38.480,jersey_experiment_5_v3,2023.2.2,Win32,84.74576271,,,,,,,,,,,,,,,,642.9099,644.2041,644.2042,644.9923,return,0.1572,,65.234375,,,,,,FBP-YG-71.png,0.4,1.2,3,0.5,,,,,,,,,,,,,0,50,50,2,1,,,,,,,,,,,,,,,,,,,,,,,,,,,,
,,,,,V3_095,22,female,2025-01-30_15h56.38.480,jersey_experiment_5_v3,2023.2.2,Win32,84.74576271,,,,,,,,,,,,,,,,644.9926,646.2865,646.2866,647.6982,return,0.2112,,65.234375,,,,,,FBP-PT-19.png,0.4,1.2,28,0.5,,,,,,,,,,,,,0,51,51,27,1,,,,,,,,,,,,,,,,,,,,,,,,,,,,
,,,,,V3_095,22,female,2025-01-30_15h56.38.480,jersey_experiment_5_v3,2023.2.2,Win32,84.74576271,,,,,,,,,,,,,,,,647.6985,649.2515,649.2515,649.9102,return,0.1659,,44.921875,,,,,,FBP-OG-18.png,0.37,1.2,37,0.75,,,,,,,,,,,,,0,52,52,36,1,,,,,,,,,,,,,,,,,,,,,,,,,,,,
,,,,,V3_095,22,female,2025-01-30_15h56.38.480,jersey_experiment_5_v3,2023.2.2,Win32,84.74576271,,,,,,,,,,,,,,,,649.9104,651.4632,651.4632,652.5574,return,0.478,,38.15104167,,,,,,FBP-OG-18.png,0.35,1.2,36,0.75,,,,,,,,,,,,,0,53,53,35,1,,,,,,,,,,,,,,,,,,,,,,,,,,,,
,,,,,V3_095,22,female,2025-01-30_15h56.38.480,jersey_experiment_5_v3,2023.2.2,Win32,84.74576271,,,,,,,,,,,,,,,,652.5576,653.8514,653.8514,654.8278,return,0.1854,,32.03125,,,,,,FBP-PT-19.png,0.37,1.2,27,0.5,,,,,,,,,,,,,0,54,54,26,1,,,,,,,,,,,,,,,,,,,,,,,,,,,,
,,,,,V3_095,22,female,2025-01-30_15h56.38.480,jersey_experiment_5_v3,2023.2.2,Win32,84.74576271,,,,,,,,,,,,,,,,654.8281,656.3694,656.3694,657.4634,return,0.1782,,69.40104167,,,,,,FBP-OG-18.png,0.43,1.2,39,0.75,,,,,,,,,,,,,0,55,55,38,1,,,,,,,,,,,,,,,,,,,,,,,,,,,,
,,,,,V3_095,22,female,2025-01-30_15h56.38.480,jersey_experiment_5_v3,2023.2.2,Win32,84.74576271,,,,,,,,,,,,,,,,657.4638,658.7575,658.7575,659.6282,return,0.1616,,80.859375,,,,,,FBP-RB-19.png,0.43,1.2,59,0.5,,,,,,,,,,,,,0,56,56,58,1,,,,,,,,,,,,,,,,,,,,,,,,,,,,
,,,,,V3_095,22,female,2025-01-30_15h56.38.480,jersey_experiment_5_v3,2023.2.2,Win32,84.74576271,,,,,,,,,,,,,,,,659.6284,660.9225,660.9225,661.8282,return,0.1652,,59.375,,,,,,FBP-RB-17.png,0.35,1.2,46,0.5,,,,,,,,,,,,,0,57,57,45,1,,,,,,,,,,,,,,,,,,,,,,,,,,,,
,,,,,V3_095,22,female,2025-01-30_15h56.38.480,jersey_experiment_5_v3,2023.2.2,Win32,84.74576271,,,,,,,,,,,,,,,,661.8285,663.3813,663.3814,664.0517,return,0.1561,,68.22916667,,,,,,FBP-OG-17.png,0.43,1.2,34,0.75,,,,,,,,,,,,,0,58,58,33,1,,,,,,,,,,,,,,,,,,,,,,,,,,,,
,,,,,V3_095,22,female,2025-01-30_15h56.38.480,jersey_experiment_5_v3,2023.2.2,Win32,84.74576271,,,,,,,,,,,,,,,,664.0521,665.6049,665.605,666.5579,return,0.1246,,26.04166667,,,,,,FBP-OG-19.png,0.35,1.2,41,0.75,,,,,,,,,,,,,0,59,59,40,1,,,,,,,,,,,,,,,,,,,,,,,,,,,,
,,,,,V3_095,22,female,2025-01-30_15h56.38.480,jersey_experiment_5_v3,2023.2.2,Win32,84.74576271,,,,,,,,,,,,,,,,666.5591,667.8521,667.8521,668.5108,return,0.1785,,26.04166667,,,,,,FBP-RB-81.png,0.37,1.2,52,0.5,,,,,,,,,,,,,,,,,,0,0,0,51,1,,,,,,,,,,,,,,,,,,,,,,,
,,,,,V3_095,22,female,2025-01-30_15h56.38.480,jersey_experiment_5_v3,2023.2.2,Win32,84.74576271,,,,,,,,,,,,,,,,668.5112,669.805,669.805,670.4639,return,0.1933,,29.296875,,,,,,FBP-PT-81.png,0.37,1.2,22,0.5,,,,,,,,,,,,,,,,,,0,1,1,21,1,,,,,,,,,,,,,,,,,,,,,,,
,,,,,V3_095,22,female,2025-01-30_15h56.38.480,jersey_experiment_5_v3,2023.2.2,Win32,84.74576271,,,,,,,,,,,,,,,,670.4641,671.758,671.7581,672.5934,return,0.1326,,39.0625,,,,,,FBP-PT-91.png,0.4,1.2,28,0.5,,,,,,,,,,,,,,,,,,0,2,2,27,1,,,,,,,,,,,,,,,,,,,,,,,
,,,,,V3_095,22,female,2025-01-30_15h56.38.480,jersey_experiment_5_v3,2023.2.2,Win32,84.74576271,,,,,,,,,,,,,,,,672.5936,673.8875,673.8875,674.9463,return,0.2024,,49.609375,,,,,,FBP-RB-81.png,0.4,1.2,53,0.5,,,,,,,,,,,,,,,,,,0,3,3,52,1,,,,,,,,,,,,,,,,,,,,,,,
,,,,,V3_095,22,female,2025-01-30_15h56.38.480,jersey_experiment_5_v3,2023.2.2,Win32,84.74576271,,,,,,,,,,,,,,,,674.9466,676.2406,676.2406,677.0288,return,0.1277,,44.27083333,,,,,,FBP-PT-91.png,0.37,1.2,27,0.5,,,,,,,,,,,,,,,,,,0,4,4,26,1,,,,,,,,,,,,,,,,,,,,,,,
,,,,,V3_095,22,female,2025-01-30_15h56.38.480,jersey_experiment_5_v3,2023.2.2,Win32,84.74576271,,,,,,,,,,,,,,,,677.029,678.3229,678.3229,679.2055,return,0.1166,,33.59375,,,,,,FBP-YG-19.png,0.4,1.2,13,0.5,,,,,,,,,,,,,,,,,,0,5,5,12,1,,,,,,,,,,,,,,,,,,,,,,,
,,,,,V3_095,22,female,2025-01-30_15h56.38.480,jersey_experiment_5_v3,2023.2.2,Win32,84.74576271,,,,,,,,,,,,,,,,679.2056,680.4995,680.4996,681.0408,return,0.0628,,39.453125,,,,,,FBP-PT-81.png,0.4,1.2,23,0.5,,,,,,,,,,,,,,,,,,0,6,6,22,1,,,,,,,,,,,,,,,,,,,,,,,
,,,,,V3_095,22,female,2025-01-30_15h56.38.480,jersey_experiment_5_v3,2023.2.2,Win32,84.74576271,,,,,,,,,,,,,,,,681.0411,682.3349,682.3349,683.782,return,0.6203,,48.95833333,,,,,,FBP-PT-71.png,0.43,1.2,19,0.5,,,,,,,,,,,,,,,,,,0,7,7,18,1,,,,,,,,,,,,,,,,,,,,,,,
,,,,,V3_095,22,female,2025-01-30_15h56.38.480,jersey_experiment_5_v3,2023.2.2,Win32,84.74576271,,,,,,,,,,,,,,,,683.7822,685.0761,685.0762,686.0057,return,0.1666,,25.52083333,,,,,,FBP-RB-91.png,0.35,1.2,56,0.5,,,,,,,,,,,,,,,,,,0,8,8,55,1,,,,,,,,,,,,,,,,,,,,,,,
,,,,,V3_095,22,female,2025-01-30_15h56.38.480,jersey_experiment_5_v3,2023.2.2,Win32,84.74576271,,,,,,,,,,,,,,,,686.006,687.2996,687.2997,688.6057,return,0.1951,,48.4375,,,,,,FBP-RB-71.png,0.4,1.2,48,0.5,,,,,,,,,,,,,,,,,,0,9,9,47,1,,,,,,,,,,,,,,,,,,,,,,,
,,,,,V3_095,22,female,2025-01-30_15h56.38.480,jersey_experiment_5_v3,2023.2.2,Win32,84.74576271,,,,,,,,,,,,,,,,688.606,689.8999,689.8999,690.8059,return,0.1545,,73.828125,,,,,,FBP-PT-91.png,0.45,1.2,30,0.5,,,,,,,,,,,,,,,,,,0,10,10,29,1,,,,,,,,,,,,,,,,,,,,,,,
,,,,,V3_095,22,female,2025-01-30_15h56.38.480,jersey_experiment_5_v3,2023.2.2,Win32,84.74576271,,,,,,,,,,,,,,,,690.8061,692.0999,692.1,692.7705,return,0.1753,,73.828125,,,,,,FBP-RB-91.png,0.4,1.2,58,0.5,,,,,,,,,,,,,,,,,,0,11,11,57,1,,,,,,,,,,,,,,,,,,,,,,,
,,,,,V3_095,22,female,2025-01-30_15h56.38.480,jersey_experiment_5_v3,2023.2.2,Win32,84.74576271,,,,,,,,,,,,,,,,692.7708,694.0648,694.0649,695.1235,return,0.2365,,50.91145833,,,,,,FBP-RB-71.png,0.37,1.2,47,0.5,,,,,,,,,,,,,,,,,,0,12,12,46,1,,,,,,,,,,,,,,,,,,,,,,,
,,,,,V3_095,22,female,2025-01-30_15h56.38.480,jersey_experiment_5_v3,2023.2.2,Win32,84.74576271,,,,,,,,,,,,,,,,695.1237,696.6766,696.6767,697.359,return,0.3221,,50.91145833,,,,,,FBP-OG-81.png,0.4,1.2,38,0.75,,,,,,,,,,,,,,,,,,0,13,13,37,1,,,,,,,,,,,,,,,,,,,,,,,
,,,,,V3_095,22,female,2025-01-30_15h56.38.480,jersey_experiment_5_v3,2023.2.2,Win32,84.74576271,,,,,,,,,,,,,,,,697.3593,698.9122,698.9123,699.6768,return,0.1139,,36.19791667,,,,,,FBP-OG-81.png,0.37,1.2,37,0.75,,,,,,,,,,,,,,,,,,0,14,14,36,1,,,,,,,,,,,,,,,,,,,,,,,
,,,,,V3_095,22,female,2025-01-30_15h56.38.480,jersey_experiment_5_v3,2023.2.2,Win32,84.74576271,,,,,,,,,,,,,,,,699.6771,700.971,700.971,702.3003,return,0.1364,,88.80208333,,,,,,FBP-RB-71.png,0.45,1.2,50,0.5,,,,,,,,,,,,,,,,,,0,15,15,49,1,,,,,,,,,,,,,,,,,,,,,,,
,,,,,V3_095,22,female,2025-01-30_15h56.38.480,jersey_experiment_5_v3,2023.2.2,Win32,84.74576271,,,,,,,,,,,,,,,,702.3005,703.5947,703.5947,704.3005,return,0.0872,,63.41145833,,,,,,FBP-RB-91.png,0.37,1.2,57,0.5,,,,,,,,,,,,,,,,,,0,16,16,56,1,,,,,,,,,,,,,,,,,,,,,,,
,,,,,V3_095,22,female,2025-01-30_15h56.38.480,jersey_experiment_5_v3,2023.2.2,Win32,84.74576271,,,,,,,,,,,,,,,,704.3006,705.5946,705.5946,706.4536,return,0.2127,,75.390625,,,,,,FBP-RB-91.png,0.43,1.2,59,0.5,,,,,,,,,,,,,,,,,,0,17,17,58,1,,,,,,,,,,,,,,,,,,,,,,,
,,,,,V3_095,22,female,2025-01-30_15h56.38.480,jersey_experiment_5_v3,2023.2.2,Win32,84.74576271,,,,,,,,,,,,,,,,706.4537,708.0064,708.0064,708.6419,return,0.2031,,74.86979167,,,,,,FBP-OG-81.png,0.43,1.2,39,0.75,,,,,,,,,,,,,,,,,,0,18,18,38,1,,,,,,,,,,,,,,,,,,,,,,,
,,,,,V3_095,22,female,2025-01-30_15h56.38.480,jersey_experiment_5_v3,2023.2.2,Win32,84.74576271,,,,,,,,,,,,,,,,708.6422,709.936,709.936,710.5948,return,0.1076,,57.421875,,,,,,FBP-YG-19.png,0.37,1.2,12,0.5,,,,,,,,,,,,,,,,,,0,19,19,11,1,,,,,,,,,,,,,,,,,,,,,,,
,,,,,V3_095,22,female,2025-01-30_15h56.38.480,jersey_experiment_5_v3,2023.2.2,Win32,84.74576271,,,,,,,,,,,,,,,,710.595,711.8889,711.8891,712.9479,return,0.1565,,89.32291667,,,,,,FBP-YG-18.png,0.45,1.2,10,0.5,,,,,,,,,,,,,,,,,,0,20,20,9,1,,,,,,,,,,,,,,,,,,,,,,,
,,,,,V3_095,22,female,2025-01-30_15h56.38.480,jersey_experiment_5_v3,2023.2.2,Win32,84.74576271,,,,,,,,,,,,,,,,712.9482,714.242,714.2421,715.1479,return,0.1589,,53.25520833,,,,,,FBP-YG-19.png,0.35,1.2,11,0.5,,,,,,,,,,,,,,,,,,0,21,21,10,1,,,,,,,,,,,,,,,,,,,,,,,
,,,,,V3_095,22,female,2025-01-30_15h56.38.480,jersey_experiment_5_v3,2023.2.2,Win32,84.74576271,,,,,,,,,,,,,,,,715.1481,716.442,716.442,717.3953,return,0.2016,,49.609375,,,,,,FBP-PT-91.png,0.35,1.2,26,0.5,,,,,,,,,,,,,,,,,,0,22,22,25,1,,,,,,,,,,,,,,,,,,,,,,,
,,,,,V3_095,22,female,2025-01-30_15h56.38.480,jersey_experiment_5_v3,2023.2.2,Win32,84.74576271,,,,,,,,,,,,,,,,717.3955,718.6892,718.6892,719.7718,return,0.1855,,75.13020833,,,,,,FBP-PT-81.png,0.43,1.2,24,0.5,,,,,,,,,,,,,,,,,,0,23,23,23,1,,,,,,,,,,,,,,,,,,,,,,,
,,,,,V3_095,22,female,2025-01-30_15h56.38.480,jersey_experiment_5_v3,2023.2.2,Win32,84.74576271,,,,,,,,,,,,,,,,719.772,721.0659,721.0659,722.1249,return,0.1459,,28.515625,,,,,,FBP-YG-17.png,0.35,1.2,1,0.5,,,,,,,,,,,,,,,,,,0,24,24,0,1,,,,,,,,,,,,,,,,,,,,,,,
,,,,,V3_095,22,female,2025-01-30_15h56.38.480,jersey_experiment_5_v3,2023.2.2,Win32,84.74576271,,,,,,,,,,,,,,,,722.1251,723.4188,723.4189,724.2542,return,0.1482,,60.67708333,,,,,,FBP-YG-17.png,0.4,1.2,3,0.5,,,,,,,,,,,,,,,,,,0,25,25,2,1,,,,,,,,,,,,,,,,,,,,,,,
,,,,,V3_095,22,female,2025-01-30_15h56.38.480,jersey_experiment_5_v3,2023.2.2,Win32,84.74576271,,,,,,,,,,,,,,,,724.2544,725.807,725.8072,726.3366,return,0.0477,,62.63020833,,,,,,FBP-OG-91.png,0.43,1.2,44,0.75,,,,,,,,,,,,,,,,,,0,26,26,43,1,,,,,,,,,,,,,,,,,,,,,,,
,,,,,V3_095,22,female,2025-01-30_15h56.38.480,jersey_experiment_5_v3,2023.2.2,Win32,84.74576271,,,,,,,,,,,,,,,,726.3369,727.6308,727.6308,728.4307,return,0.1203,,69.140625,,,,,,FBP-RB-71.png,0.43,1.2,49,0.5,,,,,,,,,,,,,,,,,,0,27,27,48,1,,,,,,,,,,,,,,,,,,,,,,,
,,,,,V3_095,22,female,2025-01-30_15h56.38.480,jersey_experiment_5_v3,2023.2.2,Win32,84.74576271,,,,,,,,,,,,,,,,728.431,729.725,729.725,730.5957,return,0.1415,,52.86458333,,,,,,FBP-PT-71.png,0.37,1.2,17,0.5,,,,,,,,,,,,,,,,,,0,28,28,16,1,,,,,,,,,,,,,,,,,,,,,,,
,,,,,V3_095,22,female,2025-01-30_15h56.38.480,jersey_experiment_5_v3,2023.2.2,Win32,84.74576271,,,,,,,,,,,,,,,,730.5959,731.8897,731.8897,732.678,return,0.1414,,39.97395833,,,,,,FBP-RB-81.png,0.35,1.2,51,0.5,,,,,,,,,,,,,,,,,,0,29,29,50,1,,,,,,,,,,,,,,,,,,,,,,,
,,,,,V3_095,22,female,2025-01-30_15h56.38.480,jersey_experiment_5_v3,2023.2.2,Win32,84.74576271,,,,,,,,,,,,,,,,732.6782,733.9723,733.9723,734.7721,return,0.1286,,81.51041667,,,,,,FBP-YG-17.png,0.45,1.2,5,0.5,,,,,,,,,,,,,,,,,,0,30,30,4,1,,,,,,,,,,,,,,,,,,,,,,,
,,,,,V3_095,22,female,2025-01-30_15h56.38.480,jersey_experiment_5_v3,2023.2.2,Win32,84.74576271,,,,,,,,,,,,,,,,734.7724,736.0664,736.0665,736.6428,return,0.0708,,86.06770833,,,,,,FBP-YG-19.png,0.45,1.2,15,0.5,,,,,,,,,,,,,,,,,,0,31,31,14,1,,,,,,,,,,,,,,,,,,,,,,,
,,,,,V3_095,22,female,2025-01-30_15h56.38.480,jersey_experiment_5_v3,2023.2.2,Win32,84.74576271,,,,,,,,,,,,,,,,736.6431,737.937,737.937,738.4783,return,0.0184,,65.49479167,,,,,,FBP-YG-18.png,0.4,1.2,8,0.5,,,,,,,,,,,,,,,,,,0,32,32,7,1,,,,,,,,,,,,,,,,,,,,,,,
,,,,,V3_095,22,female,2025-01-30_15h56.38.480,jersey_experiment_5_v3,2023.2.2,Win32,84.74576271,,,,,,,,,,,,,,,,738.4786,739.7725,739.7725,740.2312,return,0.2225,,65.49479167,,,,,,FBP-YG-17.png,0.37,1.2,2,0.5,,,,,,,,,,,,,,,,,,0,33,33,1,1,,,,,,,,,,,,,,,,,,,,,,,
,,,,,V3_095,22,female,2025-01-30_15h56.38.480,jersey_experiment_5_v3,2023.2.2,Win32,84.74576271,,,,,,,,,,,,,,,,740.2316,741.526,741.526,742.3373,return,0.1564,,90.88541667,,,,,,FBP-RB-81.png,0.43,1.2,54,0.5,,,,,,,,,,,,,,,,,,0,34,34,53,1,,,,,,,,,,,,,,,,,,,,,,,
,,,,,V3_095,22,female,2025-01-30_15h56.38.480,jersey_experiment_5_v3,2023.2.2,Win32,84.74576271,,,,,,,,,,,,,,,,742.3375,743.8902,743.8902,744.6901,return,0.1187,,34.375,,,,,,FBP-OG-71.png,0.35,1.2,31,0.75,,,,,,,,,,,,,,,,,,0,35,35,30,1,,,,,,,,,,,,,,,,,,,,,,,
,,,,,V3_095,22,female,2025-01-30_15h56.38.480,jersey_experiment_5_v3,2023.2.2,Win32,84.74576271,,,,,,,,,,,,,,,,744.6904,746.2433,746.2433,746.8668,return,0.214,,37.36979167,,,,,,FBP-OG-91.png,0.4,1.2,43,0.75,,,,,,,,,,,,,,,,,,0,36,36,42,1,,,,,,,,,,,,,,,,,,,,,,,
,,,,,V3_095,22,female,2025-01-30_15h56.38.480,jersey_experiment_5_v3,2023.2.2,Win32,84.74576271,,,,,,,,,,,,,,,,746.8671,748.4197,748.4198,749.0786,return,0.1752,,23.828125,,,,,,FBP-OG-81.png,0.35,1.2,36,0.75,,,,,,,,,,,,,,,,,,0,37,37,35,1,,,,,,,,,,,,,,,,,,,,,,,
,,,,,V3_095,22,female,2025-01-30_15h56.38.480,jersey_experiment_5_v3,2023.2.2,Win32,84.74576271,,,,,,,,,,,,,,,,749.0789,750.3728,750.3728,751.2316,return,0.098,,39.58333333,,,,,,FBP-PT-81.png,0.35,1.2,21,0.5,,,,,,,,,,,,,,,,,,0,38,38,20,1,,,,,,,,,,,,,,,,,,,,,,,
,,,,,V3_095,22,female,2025-01-30_15h56.38.480,jersey_experiment_5_v3,2023.2.2,Win32,84.74576271,,,,,,,,,,,,,,,,751.2318,752.5258,752.5258,753.3257,return,0.1448,,68.359375,,,,,,FBP-RB-91.png,0.45,1.2,60,0.5,,,,,,,,,,,,,,,,,,0,39,39,59,1,,,,,,,,,,,,,,,,,,,,,,,
,,,,,V3_095,22,female,2025-01-30_15h56.38.480,jersey_experiment_5_v3,2023.2.2,Win32,84.74576271,,,,,,,,,,,,,,,,753.326,754.8789,754.879,755.6199,return,0.1052,,50,,,,,,FBP-OG-71.png,0.37,1.2,32,0.75,,,,,,,,,,,,,,,,,,0,40,40,31,1,,,,,,,,,,,,,,,,,,,,,,,
,,,,,V3_095,22,female,2025-01-30_15h56.38.480,jersey_experiment_5_v3,2023.2.2,Win32,84.74576271,,,,,,,,,,,,,,,,755.6202,756.9142,756.9142,757.5496,return,0.125,,64.84375,,,,,,FBP-PT-91.png,0.43,1.2,29,0.5,,,,,,,,,,,,,,,,,,0,41,41,28,1,,,,,,,,,,,,,,,,,,,,,,,
,,,,,V3_095,22,female,2025-01-30_15h56.38.480,jersey_experiment_5_v3,2023.2.2,Win32,84.74576271,,,,,,,,,,,,,,,,757.5498,758.8436,758.8436,759.6672,return,0.153,,72.00520833,,,,,,FBP-YG-19.png,0.43,1.2,14,0.5,,,,,,,,,,,,,,,,,,0,42,42,13,1,,,,,,,,,,,,,,,,,,,,,,,
,,,,,V3_095,22,female,2025-01-30_15h56.38.480,jersey_experiment_5_v3,2023.2.2,Win32,84.74576271,,,,,,,,,,,,,,,,759.6676,760.9614,760.9614,761.6673,return,0.1296,,50,,,,,,FBP-YG-18.png,0.37,1.2,7,0.5,,,,,,,,,,,,,,,,,,0,43,43,6,1,,,,,,,,,,,,,,,,,,,,,,,
,,,,,V3_095,22,female,2025-01-30_15h56.38.480,jersey_experiment_5_v3,2023.2.2,Win32,84.74576271,,,,,,,,,,,,,,,,761.6676,762.9616,762.9617,763.7498,return,0.1648,,63.02083333,,,,,,FBP-PT-71.png,0.4,1.2,18,0.5,,,,,,,,,,,,,,,,,,0,44,44,17,1,,,,,,,,,,,,,,,,,,,,,,,
,,,,,V3_095,22,female,2025-01-30_15h56.38.480,jersey_experiment_5_v3,2023.2.2,Win32,84.74576271,,,,,,,,,,,,,,,,763.75,765.3029,765.3029,765.9028,return,0.1707,,75.78125,,,,,,FBP-OG-91.png,0.45,1.2,45,0.75,,,,,,,,,,,,,,,,,,0,45,45,44,1,,,,,,,,,,,,,,,,,,,,,,,
,,,,,V3_095,22,female,2025-01-30_15h56.38.480,jersey_experiment_5_v3,2023.2.2,Win32,84.74576271,,,,,,,,,,,,,,,,765.9032,767.1971,767.1972,767.8912,return,0.178,,85.9375,,,,,,FBP-YG-18.png,0.43,1.2,9,0.5,,,,,,,,,,,,,,,,,,0,46,46,8,1,,,,,,,,,,,,,,,,,,,,,,,
,,,,,V3_095,22,female,2025-01-30_15h56.38.480,jersey_experiment_5_v3,2023.2.2,Win32,84.74576271,,,,,,,,,,,,,,,,767.8914,769.1853,769.1854,770.0325,return,0.2277,,44.79166667,,,,,,FBP-YG-18.png,0.35,1.2,6,0.5,,,,,,,,,,,,,,,,,,0,47,47,5,1,,,,,,,,,,,,,,,,,,,,,,,
,,,,,V3_095,22,female,2025-01-30_15h56.38.480,jersey_experiment_5_v3,2023.2.2,Win32,84.74576271,,,,,,,,,,,,,,,,770.0328,771.5853,771.5853,772.1502,return,0.2016,,42.05729167,,,,,,FBP-OG-71.png,0.4,1.2,33,0.75,,,,,,,,,,,,,,,,,,0,48,48,32,1,,,,,,,,,,,,,,,,,,,,,,,
,,,,,V3_095,22,female,2025-01-30_15h56.38.480,jersey_experiment_5_v3,2023.2.2,Win32,84.74576271,,,,,,,,,,,,,,,,772.1504,773.4443,773.4443,774.209,return,0.2027,,93.22916667,,,,,,FBP-RB-81.png,0.45,1.2,55,0.5,,,,,,,,,,,,,,,,,,0,49,49,54,1,,,,,,,,,,,,,,,,,,,,,,,
,,,,,V3_095,22,female,2025-01-30_15h56.38.480,jersey_experiment_5_v3,2023.2.2,Win32,84.74576271,,,,,,,,,,,,,,,,774.2093,775.762,775.7621,776.5502,return,0.1644,,93.359375,,,,,,FBP-OG-71.png,0.45,1.2,35,0.75,,,,,,,,,,,,,,,,,,0,50,50,34,1,,,,,,,,,,,,,,,,,,,,,,,
,,,,,V3_095,22,female,2025-01-30_15h56.38.480,jersey_experiment_5_v3,2023.2.2,Win32,84.74576271,,,,,,,,,,,,,,,,776.5507,777.8446,777.8447,778.6681,return,0.1959,,48.4375,,,,,,FBP-PT-71.png,0.35,1.2,16,0.5,,,,,,,,,,,,,,,,,,0,51,51,15,1,,,,,,,,,,,,,,,,,,,,,,,
,,,,,V3_095,22,female,2025-01-30_15h56.38.480,jersey_experiment_5_v3,2023.2.2,Win32,84.74576271,,,,,,,,,,,,,,,,778.6683,779.9624,779.9624,780.7858,return,0.237,,77.34375,,,,,,FBP-PT-81.png,0.45,1.2,25,0.5,,,,,,,,,,,,,,,,,,0,52,52,24,1,,,,,,,,,,,,,,,,,,,,,,,
,,,,,V3_095,22,female,2025-01-30_15h56.38.480,jersey_experiment_5_v3,2023.2.2,Win32,84.74576271,,,,,,,,,,,,,,,,780.7861,782.3388,782.3388,783.1269,return,0.1647,,23.95833333,,,,,,FBP-OG-91.png,0.35,1.2,41,0.75,,,,,,,,,,,,,,,,,,0,53,53,40,1,,,,,,,,,,,,,,,,,,,,,,,
,,,,,V3_095,22,female,2025-01-30_15h56.38.480,jersey_experiment_5_v3,2023.2.2,Win32,84.74576271,,,,,,,,,,,,,,,,783.1271,784.4212,784.4213,785.0917,return,0.1893,,63.02083333,,,,,,FBP-YG-17.png,0.43,1.2,4,0.5,,,,,,,,,,,,,,,,,,0,54,54,3,1,,,,,,,,,,,,,,,,,,,,,,,
,,,,,V3_095,22,female,2025-01-30_15h56.38.480,jersey_experiment_5_v3,2023.2.2,Win32,84.74576271,,,,,,,,,,,,,,,,785.0919,786.6332,786.6332,787.4447,return,0.165,,27.86458333,,,,,,FBP-OG-91.png,0.37,1.2,42,0.75,,,,,,,,,,,,,,,,,,0,55,55,41,1,,,,,,,,,,,,,,,,,,,,,,,
,,,,,V3_095,22,female,2025-01-30_15h56.38.480,jersey_experiment_5_v3,2023.2.2,Win32,84.74576271,,,,,,,,,,,,,,,,787.4449,788.7391,788.7391,789.9037,return,0.2249,,23.30729167,,,,,,FBP-RB-71.png,0.35,1.2,46,0.5,,,,,,,,,,,,,,,,,,0,56,56,45,1,,,,,,,,,,,,,,,,,,,,,,,
,,,,,V3_095,22,female,2025-01-30_15h56.38.480,jersey_experiment_5_v3,2023.2.2,Win32,84.74576271,,,,,,,,,,,,,,,,789.9039,791.4568,791.457,792.4684,return,0.1762,,64.19270833,,,,,,FBP-OG-81.png,0.45,1.2,40,0.75,,,,,,,,,,,,,,,,,,0,57,57,39,1,,,,,,,,,,,,,,,,,,,,,,,
,,,,,V3_095,22,female,2025-01-30_15h56.38.480,jersey_experiment_5_v3,2023.2.2,Win32,84.74576271,,,,,,,,,,,,,,,,792.4686,793.7626,793.7627,794.5746,return,0.1594,,76.69270833,,,,,,FBP-PT-71.png,0.45,1.2,20,0.5,,,,,,,,,,,,,,,,,,0,58,58,19,1,,,,,,,,,,,,,,,,,,,,,,,
,,,,,V3_095,22,female,2025-01-30_15h56.38.480,jersey_experiment_5_v3,2023.2.2,Win32,84.74576271,,,,,,,,,,,,,,,,794.5748,796.1275,796.1275,796.9628,return,0.1772,,79.81770833,,,,,,FBP-OG-71.png,0.43,1.2,34,0.75,,,,,,,,,,,,,,,,,,0,59,59,33,1,,,,,,,,,,,,,,,,,,,,,,,
,,,,,V3_095,22,female,2025-01-30_15h56.38.480,jersey_experiment_5_v3,2023.2.2,Win32,84.74576271,,,,,,,,,,,,,,,,,,,,,,,,,,,,,,,,,,,,,,,,,,,,,,,,,,,,,,,,796.9629,803.4571,return,6.4831,,,,,,,,,,,,,,,,,,,
,,,,,V3_095,22,female,2025-01-30_15h56.38.480,jersey_experiment_5_v3,2023.2.2,Win32,84.74576271,,,,,,,,,,,,,,,,,,,,,,,,,,,,,,,,,,,,,,,,,,,,,,,,,,,,,,,,,,,,,803.4571,812.7045,1,7.6904,return,1.542,,,,,,,,,,,,
,,,,,V3_095,22,female,2025-01-30_15h56.38.480,jersey_experiment_5_v3,2023.2.2,Win32,84.74576271,,,,,,,,,,,,,,,,,,,,,,,,,,,,,,,,,,,,,,,,,,,,,,,,,,,,,,,,,,,,,,,,,,,,812.7045,858.2131,I think this experiment is about varying perception of body size depending on one's race usually based on skin color. ,right,41.1404,,,,,,
,,,,,V3_095,22,female,2025-01-30_15h56.38.480,jersey_experiment_5_v3,2023.2.2,Win32,84.74576271,,,,,,,,,,,,,,,,,,,,,,,,,,,,,,,,,,,,,,,,,,,,,,,,,,,,,,,,,,,,,,,,,,,,,,,,,,858.2131,862.5184,return,4.2908,