requirements.started,requirements.stopped,key_resp_3.keys,key_resp_3.rt,key_resp_3.duration,Subject ID,Age,Gender,date,expName,psychopyVersion,OS,frameRate,instructions1.started,instructions1.stopped,key_resp.keys,key_resp.rt,key_resp.duration,example.started,example.stopped,enter_2.keys,enter_2.rt,enter_2.duration,instructions2.started,instructions2.stopped,enter_3.keys,enter_3.rt,enter_3.duration,image.started,image.stopped,slider_2.started,slider_2.stopped,next.keys,next.rt,next.duration,slider.response,trial_block_1.thisRepN,trial_block_1.thisTrialN,trial_block_1.thisN,trial_block_1.thisIndex,trial_block_1.ran,Path,Width,Height,Index,Duration,trial_block_2.thisRepN,trial_block_2.thisTrialN,trial_block_2.thisN,trial_block_2.thisIndex,trial_block_2.ran,rest_break.started,rest_break.stopped,end_break.started,end_break.stopped,key_resp_5.keys,key_resp_5.rt,key_resp_5.duration,trial_block_3.thisRepN,trial_block_3.thisTrialN,trial_block_3.thisN,trial_block_3.thisIndex,trial_block_3.ran,trial_block_4.thisRepN,trial_block_4.thisTrialN,trial_block_4.thisN,trial_block_4.thisIndex,trial_block_4.ran,questions_intro.started,questions_intro.stopped,enter_12.keys,enter_12.rt,enter_12.duration,question2.started,question2.stopped,question_doingbest.response,question_doingbest.rt,enter_15.keys,enter_15.rt,enter_15.duration,pattern.started,pattern.stopped,pattern_2.text,enter_17.keys,enter_17.rt,enter_17.duration,thankyou.started,thankyou.stopped,enter_14.keys,enter_14.rt,enter_14.duration
0.0001,8.8841,return,8.879,,V3_108,21,Female,2025-02-06_15h30.04.077,jersey_experiment_5_v3,2023.2.2,Win32,85.47008547,,,,,,,,,,,,,,,,,,,,,,,,,,,,,,,,,,,,,,,,,,,,,,,,,,,,,,,,,,,,,,,,,,,,,,,,,,,,,,
,,,,,V3_108,21,Female,2025-02-06_15h30.04.077,jersey_experiment_5_v3,2023.2.2,Win32,85.47008547,8.8841,16.625,return,7.7266,,,,,,,,,,,,,,,,,,,,,,,,,,,,,,,,,,,,,,,,,,,,,,,,,,,,,,,,,,,,,,,,,,,,,,,,,,
,,,,,V3_108,21,Female,2025-02-06_15h30.04.077,jersey_experiment_5_v3,2023.2.2,Win32,85.47008547,,,,,,16.6251,21.3986,return,4.7379,,,,,,,,,,,,,,,,,,,,,,,,,,,,,,,,,,,,,,,,,,,,,,,,,,,,,,,,,,,,,,,,,,,,,
,,,,,V3_108,21,Female,2025-02-06_15h30.04.077,jersey_experiment_5_v3,2023.2.2,Win32,85.47008547,,,,,,,,,,,21.3987,42.7877,return,21.3786,,,,,,,,,,,,,,,,,,,,,,,,,,,,,,,,,,,,,,,,,,,,,,,,,,,,,,,,,,,,,,,,
,,,,,V3_108,21,Female,2025-02-06_15h30.04.077,jersey_experiment_5_v3,2023.2.2,Win32,85.47008547,,,,,,,,,,,,,,,,42.7901,44.3404,44.3405,58.8822,return,9.8122,,67.96875,0,0,0,14,1,FBP-YG-91.png,0.45,1.2,15,0.75,,,,,,,,,,,,,,,,,,,,,,,,,,,,,,,,,,,,,,,,,,,,,
,,,,,V3_108,21,Female,2025-02-06_15h30.04.077,jersey_experiment_5_v3,2023.2.2,Win32,85.47008547,,,,,,,,,,,,,,,,58.8825,60.4352,60.4353,69.1414,return,1.2937,,60.67708333,0,1,1,29,1,FBP-PT-19.png,0.45,1.2,30,0.75,,,,,,,,,,,,,,,,,,,,,,,,,,,,,,,,,,,,,,,,,,,,,
,,,,,V3_108,21,Female,2025-02-06_15h30.04.077,jersey_experiment_5_v3,2023.2.2,Win32,85.47008547,,,,,,,,,,,,,,,,69.1417,70.4356,70.4356,76.8476,return,1.7218,,31.640625,0,2,2,30,1,FBP-OG-17.png,0.35,1.2,31,0.5,,,,,,,,,,,,,,,,,,,,,,,,,,,,,,,,,,,,,,,,,,,,,
,,,,,V3_108,21,Female,2025-02-06_15h30.04.077,jersey_experiment_5_v3,2023.2.2,Win32,85.47008547,,,,,,,,,,,,,,,,76.8479,78.4004,78.4005,85.2597,return,1.3951,,80.33854167,0,3,3,49,1,FBP-RB-17.png,0.45,1.2,50,0.75,,,,,,,,,,,,,,,,,,,,,,,,,,,,,,,,,,,,,,,,,,,,,
,,,,,V3_108,21,Female,2025-02-06_15h30.04.077,jersey_experiment_5_v3,2023.2.2,Win32,85.47008547,,,,,,,,,,,,,,,,85.2599,86.8127,86.8127,91.8245,return,1.0266,,60.15625,0,4,4,24,1,FBP-PT-18.png,0.45,1.2,25,0.75,,,,,,,,,,,,,,,,,,,,,,,,,,,,,,,,,,,,,,,,,,,,,
,,,,,V3_108,21,Female,2025-02-06_15h30.04.077,jersey_experiment_5_v3,2023.2.2,Win32,85.47008547,,,,,,,,,,,,,,,,91.8248,93.3775,93.3775,101.6836,return,6.2127,,14.19270833,0,5,5,15,1,FBP-PT-17.png,0.35,1.2,16,0.75,,,,,,,,,,,,,,,,,,,,,,,,,,,,,,,,,,,,,,,,,,,,,
,,,,,V3_108,21,Female,2025-02-06_15h30.04.077,jersey_experiment_5_v3,2023.2.2,Win32,85.47008547,,,,,,,,,,,,,,,,101.684,103.2366,103.2366,107.1545,return,1.9176,,3.645833333,0,6,6,5,1,FBP-YG-81.png,0.35,1.2,6,0.75,,,,,,,,,,,,,,,,,,,,,,,,,,,,,,,,,,,,,,,,,,,,,
,,,,,V3_108,21,Female,2025-02-06_15h30.04.077,jersey_experiment_5_v3,2023.2.2,Win32,85.47008547,,,,,,,,,,,,,,,,107.1548,108.4487,108.4489,117.3078,return,2.1373,,68.359375,0,7,7,38,1,FBP-OG-18.png,0.43,1.2,39,0.5,,,,,,,,,,,,,,,,,,,,,,,,,,,,,,,,,,,,,,,,,,,,,
,,,,,V3_108,21,Female,2025-02-06_15h30.04.077,jersey_experiment_5_v3,2023.2.2,Win32,85.47008547,,,,,,,,,,,,,,,,117.3082,118.6019,118.602,124.7198,return,3.1791,,88.54166667,0,8,8,44,1,FBP-OG-19.png,0.45,1.2,45,0.5,,,,,,,,,,,,,,,,,,,,,,,,,,,,,,,,,,,,,,,,,,,,,
,,,,,V3_108,21,Female,2025-02-06_15h30.04.077,jersey_experiment_5_v3,2023.2.2,Win32,85.47008547,,,,,,,,,,,,,,,,124.72,126.2728,126.2729,137.438,return,5.4737,,54.296875,0,9,9,27,1,FBP-PT-19.png,0.4,1.2,28,0.75,,,,,,,,,,,,,,,,,,,,,,,,,,,,,,,,,,,,,,,,,,,,,
,,,,,V3_108,21,Female,2025-02-06_15h30.04.077,jersey_experiment_5_v3,2023.2.2,Win32,85.47008547,,,,,,,,,,,,,,,,137.4384,138.9911,138.9911,152.768,return,2.118,,60.02604167,0,10,10,57,1,FBP-RB-19.png,0.4,1.2,58,0.75,,,,,,,,,,,,,,,,,,,,,,,,,,,,,,,,,,,,,,,,,,,,,
,,,,,V3_108,21,Female,2025-02-06_15h30.04.077,jersey_experiment_5_v3,2023.2.2,Win32,85.47008547,,,,,,,,,,,,,,,,152.7683,154.3209,154.3209,163.0506,return,2.7373,,89.453125,0,11,11,19,1,FBP-PT-17.png,0.45,1.2,20,0.75,,,,,,,,,,,,,,,,,,,,,,,,,,,,,,,,,,,,,,,,,,,,,
,,,,,V3_108,21,Female,2025-02-06_15h30.04.077,jersey_experiment_5_v3,2023.2.2,Win32,85.47008547,,,,,,,,,,,,,,,,163.0509,164.6037,164.6038,172.0627,return,4.2758,,90.625,0,12,12,59,1,FBP-RB-19.png,0.45,1.2,60,0.75,,,,,,,,,,,,,,,,,,,,,,,,,,,,,,,,,,,,,,,,,,,,,
,,,,,V3_108,21,Female,2025-02-06_15h30.04.077,jersey_experiment_5_v3,2023.2.2,Win32,85.47008547,,,,,,,,,,,,,,,,172.063,173.6047,173.6047,182.0043,return,2.8237,,86.97916667,0,13,13,23,1,FBP-PT-18.png,0.43,1.2,24,0.75,,,,,,,,,,,,,,,,,,,,,,,,,,,,,,,,,,,,,,,,,,,,,
,,,,,V3_108,21,Female,2025-02-06_15h30.04.077,jersey_experiment_5_v3,2023.2.2,Win32,85.47008547,,,,,,,,,,,,,,,,182.0047,183.2983,183.2984,188.334,return,2.1235,,93.88020833,0,14,14,39,1,FBP-OG-18.png,0.45,1.2,40,0.5,,,,,,,,,,,,,,,,,,,,,,,,,,,,,,,,,,,,,,,,,,,,,
,,,,,V3_108,21,Female,2025-02-06_15h30.04.077,jersey_experiment_5_v3,2023.2.2,Win32,85.47008547,,,,,,,,,,,,,,,,188.3342,189.8871,189.8871,195.0282,return,1.5902,,83.984375,0,15,15,28,1,FBP-PT-19.png,0.43,1.2,29,0.75,,,,,,,,,,,,,,,,,,,,,,,,,,,,,,,,,,,,,,,,,,,,,
,,,,,V3_108,21,Female,2025-02-06_15h30.04.077,jersey_experiment_5_v3,2023.2.2,Win32,85.47008547,,,,,,,,,,,,,,,,195.0286,196.3225,196.3225,205.2051,return,5.0828,,28.90625,0,16,16,36,1,FBP-OG-18.png,0.37,1.2,37,0.5,,,,,,,,,,,,,,,,,,,,,,,,,,,,,,,,,,,,,,,,,,,,,
,,,,,V3_108,21,Female,2025-02-06_15h30.04.077,jersey_experiment_5_v3,2023.2.2,Win32,85.47008547,,,,,,,,,,,,,,,,205.2055,206.7582,206.7583,215.5232,return,1.4353,,30.20833333,0,17,17,17,1,FBP-PT-17.png,0.4,1.2,18,0.75,,,,,,,,,,,,,,,,,,,,,,,,,,,,,,,,,,,,,,,,,,,,,
,,,,,V3_108,21,Female,2025-02-06_15h30.04.077,jersey_experiment_5_v3,2023.2.2,Win32,85.47008547,,,,,,,,,,,,,,,,215.5235,217.0762,217.0762,231.1708,return,10.6354,,53.25520833,0,18,18,3,1,FBP-YG-71.png,0.43,1.2,4,0.75,,,,,,,,,,,,,,,,,,,,,,,,,,,,,,,,,,,,,,,,,,,,,
,,,,,V3_108,21,Female,2025-02-06_15h30.04.077,jersey_experiment_5_v3,2023.2.2,Win32,85.47008547,,,,,,,,,,,,,,,,231.1711,232.7238,232.7238,237.7241,return,2.158,,22.265625,0,19,19,51,1,FBP-RB-18.png,0.37,1.2,52,0.75,,,,,,,,,,,,,,,,,,,,,,,,,,,,,,,,,,,,,,,,,,,,,
,,,,,V3_108,21,Female,2025-02-06_15h30.04.077,jersey_experiment_5_v3,2023.2.2,Win32,85.47008547,,,,,,,,,,,,,,,,237.7243,239.277,239.2771,244.642,return,2.8838,,5.078125,0,20,20,20,1,FBP-PT-18.png,0.35,1.2,21,0.75,,,,,,,,,,,,,,,,,,,,,,,,,,,,,,,,,,,,,,,,,,,,,
,,,,,V3_108,21,Female,2025-02-06_15h30.04.077,jersey_experiment_5_v3,2023.2.2,Win32,85.47008547,,,,,,,,,,,,,,,,244.6422,246.1948,246.1948,250.1245,return,1.7954,,4.817708333,0,21,21,25,1,FBP-PT-19.png,0.35,1.2,26,0.75,,,,,,,,,,,,,,,,,,,,,,,,,,,,,,,,,,,,,,,,,,,,,
,,,,,V3_108,21,Female,2025-02-06_15h30.04.077,jersey_experiment_5_v3,2023.2.2,Win32,85.47008547,,,,,,,,,,,,,,,,250.1247,251.6774,251.6774,256.9717,return,1.69,,10.9375,0,22,22,11,1,FBP-YG-91.png,0.37,1.2,12,0.75,,,,,,,,,,,,,,,,,,,,,,,,,,,,,,,,,,,,,,,,,,,,,
,,,,,V3_108,21,Female,2025-02-06_15h30.04.077,jersey_experiment_5_v3,2023.2.2,Win32,85.47008547,,,,,,,,,,,,,,,,256.9718,258.5246,258.5247,266.3484,return,4.4766,,12.76041667,0,23,23,1,1,FBP-YG-71.png,0.37,1.2,2,0.75,,,,,,,,,,,,,,,,,,,,,,,,,,,,,,,,,,,,,,,,,,,,,
,,,,,V3_108,21,Female,2025-02-06_15h30.04.077,jersey_experiment_5_v3,2023.2.2,Win32,85.47008547,,,,,,,,,,,,,,,,266.3487,267.9015,267.9015,271.8077,return,1.4983,,85.9375,0,24,24,18,1,FBP-PT-17.png,0.43,1.2,19,0.75,,,,,,,,,,,,,,,,,,,,,,,,,,,,,,,,,,,,,,,,,,,,,
,,,,,V3_108,21,Female,2025-02-06_15h30.04.077,jersey_experiment_5_v3,2023.2.2,Win32,85.47008547,,,,,,,,,,,,,,,,271.8079,273.3606,273.3606,277.5372,return,0.9202,,75.26041667,0,25,25,22,1,FBP-PT-18.png,0.4,1.2,23,0.75,,,,,,,,,,,,,,,,,,,,,,,,,,,,,,,,,,,,,,,,,,,,,
,,,,,V3_108,21,Female,2025-02-06_15h30.04.077,jersey_experiment_5_v3,2023.2.2,Win32,85.47008547,,,,,,,,,,,,,,,,277.5374,279.0901,279.0903,285.5963,return,4.9474,,97.39583333,0,26,26,4,1,FBP-YG-71.png,0.45,1.2,5,0.75,,,,,,,,,,,,,,,,,,,,,,,,,,,,,,,,,,,,,,,,,,,,,
,,,,,V3_108,21,Female,2025-02-06_15h30.04.077,jersey_experiment_5_v3,2023.2.2,Win32,85.47008547,,,,,,,,,,,,,,,,285.5965,287.1493,287.1494,291.0435,return,1.3045,,95.3125,0,27,27,54,1,FBP-RB-18.png,0.45,1.2,55,0.75,,,,,,,,,,,,,,,,,,,,,,,,,,,,,,,,,,,,,,,,,,,,,
,,,,,V3_108,21,Female,2025-02-06_15h30.04.077,jersey_experiment_5_v3,2023.2.2,Win32,85.47008547,,,,,,,,,,,,,,,,291.0439,292.3377,292.3377,297.4909,return,1.9407,,36.97916667,0,28,28,40,1,FBP-OG-19.png,0.35,1.2,41,0.5,,,,,,,,,,,,,,,,,,,,,,,,,,,,,,,,,,,,,,,,,,,,,
,,,,,V3_108,21,Female,2025-02-06_15h30.04.077,jersey_experiment_5_v3,2023.2.2,Win32,85.47008547,,,,,,,,,,,,,,,,297.4912,299.0439,299.0439,305.8559,return,1.4829,,21.484375,0,29,29,10,1,FBP-YG-91.png,0.35,1.2,11,0.75,,,,,,,,,,,,,,,,,,,,,,,,,,,,,,,,,,,,,,,,,,,,,
,,,,,V3_108,21,Female,2025-02-06_15h30.04.077,jersey_experiment_5_v3,2023.2.2,Win32,85.47008547,,,,,,,,,,,,,,,,305.8562,307.1499,307.15,310.7031,return,1.2981,,31.25,0,30,30,41,1,FBP-OG-19.png,0.37,1.2,42,0.5,,,,,,,,,,,,,,,,,,,,,,,,,,,,,,,,,,,,,,,,,,,,,
,,,,,V3_108,21,Female,2025-02-06_15h30.04.077,jersey_experiment_5_v3,2023.2.2,Win32,85.47008547,,,,,,,,,,,,,,,,310.7034,312.256,312.2561,318.9152,return,3.8268,,38.41145833,0,31,31,16,1,FBP-PT-17.png,0.37,1.2,17,0.75,,,,,,,,,,,,,,,,,,,,,,,,,,,,,,,,,,,,,,,,,,,,,
,,,,,V3_108,21,Female,2025-02-06_15h30.04.077,jersey_experiment_5_v3,2023.2.2,Win32,85.47008547,,,,,,,,,,,,,,,,318.9155,320.4681,320.4682,325.1154,return,1.3822,,47.91666667,0,32,32,2,1,FBP-YG-71.png,0.4,1.2,3,0.75,,,,,,,,,,,,,,,,,,,,,,,,,,,,,,,,,,,,,,,,,,,,,
,,,,,V3_108,21,Female,2025-02-06_15h30.04.077,jersey_experiment_5_v3,2023.2.2,Win32,85.47008547,,,,,,,,,,,,,,,,325.1156,326.6683,326.6684,331.245,return,2.0184,,41.796875,0,33,33,56,1,FBP-RB-19.png,0.37,1.2,57,0.75,,,,,,,,,,,,,,,,,,,,,,,,,,,,,,,,,,,,,,,,,,,,,
,,,,,V3_108,21,Female,2025-02-06_15h30.04.077,jersey_experiment_5_v3,2023.2.2,Win32,85.47008547,,,,,,,,,,,,,,,,331.2453,332.5392,332.5393,337.9982,return,3.3924,,94.66145833,0,34,34,34,1,FBP-OG-17.png,0.45,1.2,35,0.5,,,,,,,,,,,,,,,,,,,,,,,,,,,,,,,,,,,,,,,,,,,,,
,,,,,V3_108,21,Female,2025-02-06_15h30.04.077,jersey_experiment_5_v3,2023.2.2,Win32,85.47008547,,,,,,,,,,,,,,,,337.9985,339.5511,339.5512,346.128,return,1.4481,,29.6875,0,35,35,46,1,FBP-RB-17.png,0.37,1.2,47,0.75,,,,,,,,,,,,,,,,,,,,,,,,,,,,,,,,,,,,,,,,,,,,,
,,,,,V3_108,21,Female,2025-02-06_15h30.04.077,jersey_experiment_5_v3,2023.2.2,Win32,85.47008547,,,,,,,,,,,,,,,,346.1284,347.681,347.681,352.6929,return,1.9057,,62.890625,0,36,36,47,1,FBP-RB-17.png,0.4,1.2,48,0.75,,,,,,,,,,,,,,,,,,,,,,,,,,,,,,,,,,,,,,,,,,,,,
,,,,,V3_108,21,Female,2025-02-06_15h30.04.077,jersey_experiment_5_v3,2023.2.2,Win32,85.47008547,,,,,,,,,,,,,,,,352.6932,354.2459,354.246,359.2343,return,1.9074,,22.65625,0,37,37,50,1,FBP-RB-18.png,0.35,1.2,51,0.75,,,,,,,,,,,,,,,,,,,,,,,,,,,,,,,,,,,,,,,,,,,,,
,,,,,V3_108,21,Female,2025-02-06_15h30.04.077,jersey_experiment_5_v3,2023.2.2,Win32,85.47008547,,,,,,,,,,,,,,,,359.2345,360.7873,360.7873,367.7875,return,4.02,,88.80208333,0,38,38,48,1,FBP-RB-17.png,0.43,1.2,49,0.75,,,,,,,,,,,,,,,,,,,,,,,,,,,,,,,,,,,,,,,,,,,,,
,,,,,V3_108,21,Female,2025-02-06_15h30.04.077,jersey_experiment_5_v3,2023.2.2,Win32,85.47008547,,,,,,,,,,,,,,,,367.7879,369.0818,369.0819,372.2346,return,0.9618,,93.61979167,0,39,39,33,1,FBP-OG-17.png,0.43,1.2,34,0.5,,,,,,,,,,,,,,,,,,,,,,,,,,,,,,,,,,,,,,,,,,,,,
,,,,,V3_108,21,Female,2025-02-06_15h30.04.077,jersey_experiment_5_v3,2023.2.2,Win32,85.47008547,,,,,,,,,,,,,,,,372.2349,373.7878,373.7878,377.9996,return,0.9807,,44.79166667,0,40,40,26,1,FBP-PT-19.png,0.37,1.2,27,0.75,,,,,,,,,,,,,,,,,,,,,,,,,,,,,,,,,,,,,,,,,,,,,
,,,,,V3_108,21,Female,2025-02-06_15h30.04.077,jersey_experiment_5_v3,2023.2.2,Win32,85.47008547,,,,,,,,,,,,,,,,377.9999,379.5525,379.5526,384.6705,return,1.7228,,86.45833333,0,41,41,58,1,FBP-RB-19.png,0.43,1.2,59,0.75,,,,,,,,,,,,,,,,,,,,,,,,,,,,,,,,,,,,,,,,,,,,,
,,,,,V3_108,21,Female,2025-02-06_15h30.04.077,jersey_experiment_5_v3,2023.2.2,Win32,85.47008547,,,,,,,,,,,,,,,,384.6707,385.9646,385.9647,391.7297,return,1.2366,,39.0625,0,42,42,35,1,FBP-OG-18.png,0.35,1.2,36,0.5,,,,,,,,,,,,,,,,,,,,,,,,,,,,,,,,,,,,,,,,,,,,,
,,,,,V3_108,21,Female,2025-02-06_15h30.04.077,jersey_experiment_5_v3,2023.2.2,Win32,85.47008547,,,,,,,,,,,,,,,,391.73,393.2825,393.2826,399.7887,return,2.2775,,63.671875,0,43,43,7,1,FBP-YG-81.png,0.4,1.2,8,0.75,,,,,,,,,,,,,,,,,,,,,,,,,,,,,,,,,,,,,,,,,,,,,
,,,,,V3_108,21,Female,2025-02-06_15h30.04.077,jersey_experiment_5_v3,2023.2.2,Win32,85.47008547,,,,,,,,,,,,,,,,399.7889,401.0829,401.0829,405.6361,return,2.3632,,68.88020833,0,44,44,32,1,FBP-OG-17.png,0.4,1.2,33,0.5,,,,,,,,,,,,,,,,,,,,,,,,,,,,,,,,,,,,,,,,,,,,,
,,,,,V3_108,21,Female,2025-02-06_15h30.04.077,jersey_experiment_5_v3,2023.2.2,Win32,85.47008547,,,,,,,,,,,,,,,,405.6365,407.1889,407.189,414.3069,return,0.8604,,32.94270833,0,45,45,0,1,FBP-YG-71.png,0.35,1.2,1,0.75,,,,,,,,,,,,,,,,,,,,,,,,,,,,,,,,,,,,,,,,,,,,,
,,,,,V3_108,21,Female,2025-02-06_15h30.04.077,jersey_experiment_5_v3,2023.2.2,Win32,85.47008547,,,,,,,,,,,,,,,,414.3071,415.8598,415.8599,420.9424,return,2.0731,,79.81770833,0,46,46,13,1,FBP-YG-91.png,0.43,1.2,14,0.75,,,,,,,,,,,,,,,,,,,,,,,,,,,,,,,,,,,,,,,,,,,,,
,,,,,V3_108,21,Female,2025-02-06_15h30.04.077,jersey_experiment_5_v3,2023.2.2,Win32,85.47008547,,,,,,,,,,,,,,,,420.9427,422.2365,422.2366,426.4838,return,0.9414,,69.01041667,0,47,47,37,1,FBP-OG-18.png,0.4,1.2,38,0.5,,,,,,,,,,,,,,,,,,,,,,,,,,,,,,,,,,,,,,,,,,,,,
,,,,,V3_108,21,Female,2025-02-06_15h30.04.077,jersey_experiment_5_v3,2023.2.2,Win32,85.47008547,,,,,,,,,,,,,,,,426.4841,428.0368,428.0368,432.084,return,0.9414,,46.74479167,0,48,48,21,1,FBP-PT-18.png,0.37,1.2,22,0.75,,,,,,,,,,,,,,,,,,,,,,,,,,,,,,,,,,,,,,,,,,,,,
,,,,,V3_108,21,Female,2025-02-06_15h30.04.077,jersey_experiment_5_v3,2023.2.2,Win32,85.47008547,,,,,,,,,,,,,,,,432.0845,433.6372,433.6372,437.8137,return,1.166,,72.265625,0,49,49,53,1,FBP-RB-18.png,0.43,1.2,54,0.75,,,,,,,,,,,,,,,,,,,,,,,,,,,,,,,,,,,,,,,,,,,,,
,,,,,V3_108,21,Female,2025-02-06_15h30.04.077,jersey_experiment_5_v3,2023.2.2,Win32,85.47008547,,,,,,,,,,,,,,,,437.814,439.1078,439.1079,443.6962,return,1.074,,61.97916667,0,50,50,42,1,FBP-OG-19.png,0.4,1.2,43,0.5,,,,,,,,,,,,,,,,,,,,,,,,,,,,,,,,,,,,,,,,,,,,,
,,,,,V3_108,21,Female,2025-02-06_15h30.04.077,jersey_experiment_5_v3,2023.2.2,Win32,85.47008547,,,,,,,,,,,,,,,,443.6964,445.2492,445.2493,449.7905,return,1.0992,,94.79166667,0,51,51,9,1,FBP-YG-81.png,0.45,1.2,10,0.75,,,,,,,,,,,,,,,,,,,,,,,,,,,,,,,,,,,,,,,,,,,,,
,,,,,V3_108,21,Female,2025-02-06_15h30.04.077,jersey_experiment_5_v3,2023.2.2,Win32,85.47008547,,,,,,,,,,,,,,,,449.7907,451.3436,451.3436,456.603,return,1.0684,,75,0,52,52,52,1,FBP-RB-18.png,0.4,1.2,53,0.75,,,,,,,,,,,,,,,,,,,,,,,,,,,,,,,,,,,,,,,,,,,,,
,,,,,V3_108,21,Female,2025-02-06_15h30.04.077,jersey_experiment_5_v3,2023.2.2,Win32,85.47008547,,,,,,,,,,,,,,,,456.6034,457.8967,457.8967,466.0618,return,4.5556,,78.515625,0,53,53,43,1,FBP-OG-19.png,0.43,1.2,44,0.5,,,,,,,,,,,,,,,,,,,,,,,,,,,,,,,,,,,,,,,,,,,,,
,,,,,V3_108,21,Female,2025-02-06_15h30.04.077,jersey_experiment_5_v3,2023.2.2,Win32,85.47008547,,,,,,,,,,,,,,,,466.0621,467.6148,467.6148,474.4973,return,2.5796,,25.65104167,0,54,54,55,1,FBP-RB-19.png,0.35,1.2,56,0.75,,,,,,,,,,,,,,,,,,,,,,,,,,,,,,,,,,,,,,,,,,,,,
,,,,,V3_108,21,Female,2025-02-06_15h30.04.077,jersey_experiment_5_v3,2023.2.2,Win32,85.47008547,,,,,,,,,,,,,,,,474.4976,476.0504,476.0504,480.0976,return,1.5307,,66.015625,0,55,55,12,1,FBP-YG-91.png,0.4,1.2,13,0.75,,,,,,,,,,,,,,,,,,,,,,,,,,,,,,,,,,,,,,,,,,,,,
,,,,,V3_108,21,Female,2025-02-06_15h30.04.077,jersey_experiment_5_v3,2023.2.2,Win32,85.47008547,,,,,,,,,,,,,,,,480.0979,481.6504,481.6504,484.7682,return,0.7328,,45.05208333,0,56,56,6,1,FBP-YG-81.png,0.37,1.2,7,0.75,,,,,,,,,,,,,,,,,,,,,,,,,,,,,,,,,,,,,,,,,,,,,
,,,,,V3_108,21,Female,2025-02-06_15h30.04.077,jersey_experiment_5_v3,2023.2.2,Win32,85.47008547,,,,,,,,,,,,,,,,484.7685,486.0625,486.0625,494.3332,return,0.9918,,47.265625,0,57,57,31,1,FBP-OG-17.png,0.37,1.2,32,0.5,,,,,,,,,,,,,,,,,,,,,,,,,,,,,,,,,,,,,,,,,,,,,
,,,,,V3_108,21,Female,2025-02-06_15h30.04.077,jersey_experiment_5_v3,2023.2.2,Win32,85.47008547,,,,,,,,,,,,,,,,494.3336,495.8863,495.8863,499.6042,return,1.3794,,29.296875,0,58,58,45,1,FBP-RB-17.png,0.35,1.2,46,0.75,,,,,,,,,,,,,,,,,,,,,,,,,,,,,,,,,,,,,,,,,,,,,
,,,,,V3_108,21,Female,2025-02-06_15h30.04.077,jersey_experiment_5_v3,2023.2.2,Win32,85.47008547,,,,,,,,,,,,,,,,499.6045,501.1572,501.1572,510.428,return,3.1488,,75.26041667,0,59,59,8,1,FBP-YG-81.png,0.43,1.2,9,0.75,,,,,,,,,,,,,,,,,,,,,,,,,,,,,,,,,,,,,,,,,,,,,
,,,,,V3_108,21,Female,2025-02-06_15h30.04.077,jersey_experiment_5_v3,2023.2.2,Win32,85.47008547,,,,,,,,,,,,,,,,510.4301,511.981,511.9811,516.7812,return,1.3471,,68.61979167,,,,,,FBP-RB-81.png,0.4,1.2,53,0.75,0,0,0,52,1,,,,,,,,,,,,,,,,,,,,,,,,,,,,,,,,,,,,,,,,
,,,,,V3_108,21,Female,2025-02-06_15h30.04.077,jersey_experiment_5_v3,2023.2.2,Win32,85.47008547,,,,,,,,,,,,,,,,516.7816,518.3341,518.3342,523.205,return,0.7209,,72.13541667,,,,,,FBP-RB-91.png,0.4,1.2,58,0.75,0,1,1,57,1,,,,,,,,,,,,,,,,,,,,,,,,,,,,,,,,,,,,,,,,
,,,,,V3_108,21,Female,2025-02-06_15h30.04.077,jersey_experiment_5_v3,2023.2.2,Win32,85.47008547,,,,,,,,,,,,,,,,523.2053,524.758,524.758,528.5463,return,0.8394,,30.98958333,,,,,,FBP-YG-19.png,0.35,1.2,11,0.75,0,2,2,10,1,,,,,,,,,,,,,,,,,,,,,,,,,,,,,,,,,,,,,,,,
,,,,,V3_108,21,Female,2025-02-06_15h30.04.077,jersey_experiment_5_v3,2023.2.2,Win32,85.47008547,,,,,,,,,,,,,,,,528.5466,530.0993,530.0994,538.4055,return,0.5626,,51.5625,,,,,,FBP-YG-18.png,0.37,1.2,7,0.75,0,3,3,6,1,,,,,,,,,,,,,,,,,,,,,,,,,,,,,,,,,,,,,,,,
,,,,,V3_108,21,Female,2025-02-06_15h30.04.077,jersey_experiment_5_v3,2023.2.2,Win32,85.47008547,,,,,,,,,,,,,,,,538.4059,539.9586,539.9586,543.2058,return,0.9883,,79.81770833,,,,,,FBP-RB-91.png,0.43,1.2,59,0.75,0,4,4,58,1,,,,,,,,,,,,,,,,,,,,,,,,,,,,,,,,,,,,,,,,
,,,,,V3_108,21,Female,2025-02-06_15h30.04.077,jersey_experiment_5_v3,2023.2.2,Win32,85.47008547,,,,,,,,,,,,,,,,543.2062,544.7588,544.7589,548.5471,return,1.4581,,94.79166667,,,,,,FBP-PT-81.png,0.45,1.2,25,0.75,0,5,5,24,1,,,,,,,,,,,,,,,,,,,,,,,,,,,,,,,,,,,,,,,,
,,,,,V3_108,21,Female,2025-02-06_15h30.04.077,jersey_experiment_5_v3,2023.2.2,Win32,85.47008547,,,,,,,,,,,,,,,,548.5475,550.1001,550.1001,555.665,return,1.6131,,62.890625,,,,,,FBP-YG-19.png,0.4,1.2,13,0.75,0,6,6,12,1,,,,,,,,,,,,,,,,,,,,,,,,,,,,,,,,,,,,,,,,
,,,,,V3_108,21,Female,2025-02-06_15h30.04.077,jersey_experiment_5_v3,2023.2.2,Win32,85.47008547,,,,,,,,,,,,,,,,555.6652,557.218,557.2182,566.8536,return,3.5939,,82.03125,,,,,,FBP-PT-91.png,0.43,1.2,29,0.75,0,7,7,28,1,,,,,,,,,,,,,,,,,,,,,,,,,,,,,,,,,,,,,,,,
,,,,,V3_108,21,Female,2025-02-06_15h30.04.077,jersey_experiment_5_v3,2023.2.2,Win32,85.47008547,,,,,,,,,,,,,,,,566.8539,568.1479,568.1479,571.2539,return,0.847,,92.1875,,,,,,FBP-OG-91.png,0.45,1.2,45,0.5,0,8,8,44,1,,,,,,,,,,,,,,,,,,,,,,,,,,,,,,,,,,,,,,,,
,,,,,V3_108,21,Female,2025-02-06_15h30.04.077,jersey_experiment_5_v3,2023.2.2,Win32,85.47008547,,,,,,,,,,,,,,,,571.2542,572.8069,572.8069,577.9481,return,1.0429,,52.60416667,,,,,,FBP-PT-71.png,0.37,1.2,17,0.75,0,9,9,16,1,,,,,,,,,,,,,,,,,,,,,,,,,,,,,,,,,,,,,,,,
,,,,,V3_108,21,Female,2025-02-06_15h30.04.077,jersey_experiment_5_v3,2023.2.2,Win32,85.47008547,,,,,,,,,,,,,,,,577.9484,579.2423,579.2423,584.9719,return,1.6768,,62.76041667,,,,,,FBP-OG-91.png,0.43,1.2,44,0.5,0,10,10,43,1,,,,,,,,,,,,,,,,,,,,,,,,,,,,,,,,,,,,,,,,
,,,,,V3_108,21,Female,2025-02-06_15h30.04.077,jersey_experiment_5_v3,2023.2.2,Win32,85.47008547,,,,,,,,,,,,,,,,584.9722,586.525,586.525,591.1369,return,0.5905,,46.61458333,,,,,,FBP-PT-81.png,0.37,1.2,22,0.75,0,11,11,21,1,,,,,,,,,,,,,,,,,,,,,,,,,,,,,,,,,,,,,,,,
,,,,,V3_108,21,Female,2025-02-06_15h30.04.077,jersey_experiment_5_v3,2023.2.2,Win32,85.47008547,,,,,,,,,,,,,,,,591.1372,592.6897,592.6898,596.0194,return,0.7063,,78.515625,,,,,,FBP-YG-17.png,0.43,1.2,4,0.75,0,12,12,3,1,,,,,,,,,,,,,,,,,,,,,,,,,,,,,,,,,,,,,,,,
,,,,,V3_108,21,Female,2025-02-06_15h30.04.077,jersey_experiment_5_v3,2023.2.2,Win32,85.47008547,,,,,,,,,,,,,,,,596.0196,597.3135,597.3136,600.8785,return,1.2737,,82.94270833,,,,,,FBP-OG-71.png,0.43,1.2,34,0.5,0,13,13,33,1,,,,,,,,,,,,,,,,,,,,,,,,,,,,,,,,,,,,,,,,
,,,,,V3_108,21,Female,2025-02-06_15h30.04.077,jersey_experiment_5_v3,2023.2.2,Win32,85.47008547,,,,,,,,,,,,,,,,600.8788,602.4313,602.4313,607.5376,return,0.8844,,27.734375,,,,,,FBP-PT-91.png,0.35,1.2,26,0.75,0,14,14,25,1,,,,,,,,,,,,,,,,,,,,,,,,,,,,,,,,,,,,,,,,
,,,,,V3_108,21,Female,2025-02-06_15h30.04.077,jersey_experiment_5_v3,2023.2.2,Win32,85.47008547,,,,,,,,,,,,,,,,607.5379,609.0905,609.0906,612.5617,return,0.8106,,22.00520833,,,,,,FBP-PT-71.png,0.35,1.2,16,0.75,0,15,15,15,1,,,,,,,,,,,,,,,,,,,,,,,,,,,,,,,,,,,,,,,,
,,,,,V3_108,21,Female,2025-02-06_15h30.04.077,jersey_experiment_5_v3,2023.2.2,Win32,85.47008547,,,,,,,,,,,,,,,,612.5619,614.1142,614.1142,617.3966,return,1.0108,,84.50520833,,,,,,FBP-RB-91.png,0.45,1.2,60,0.75,0,16,16,59,1,,,,,,,,,,,,,,,,,,,,,,,,,,,,,,,,,,,,,,,,
,,,,,V3_108,21,Female,2025-02-06_15h30.04.077,jersey_experiment_5_v3,2023.2.2,Win32,85.47008547,,,,,,,,,,,,,,,,617.397,618.6909,618.691,621.7968,return,1.0123,,38.93229167,,,,,,FBP-OG-91.png,0.35,1.2,41,0.5,0,17,17,40,1,,,,,,,,,,,,,,,,,,,,,,,,,,,,,,,,,,,,,,,,
,,,,,V3_108,21,Female,2025-02-06_15h30.04.077,jersey_experiment_5_v3,2023.2.2,Win32,85.47008547,,,,,,,,,,,,,,,,621.7971,623.091,623.0911,627.3618,return,0.7784,,53.64583333,,,,,,FBP-OG-81.png,0.4,1.2,38,0.5,0,18,18,37,1,,,,,,,,,,,,,,,,,,,,,,,,,,,,,,,,,,,,,,,,
,,,,,V3_108,21,Female,2025-02-06_15h30.04.077,jersey_experiment_5_v3,2023.2.2,Win32,85.47008547,,,,,,,,,,,,,,,,627.362,628.9147,628.9148,632.2091,return,1.0018,,90.88541667,,,,,,FBP-YG-19.png,0.45,1.2,15,0.75,0,19,19,14,1,,,,,,,,,,,,,,,,,,,,,,,,,,,,,,,,,,,,,,,,
,,,,,V3_108,21,Female,2025-02-06_15h30.04.077,jersey_experiment_5_v3,2023.2.2,Win32,85.47008547,,,,,,,,,,,,,,,,632.2093,633.7621,633.7621,640.88,return,2.7448,,47.13541667,,,,,,FBP-RB-91.png,0.35,1.2,56,0.75,0,20,20,55,1,,,,,,,,,,,,,,,,,,,,,,,,,,,,,,,,,,,,,,,,
,,,,,V3_108,21,Female,2025-02-06_15h30.04.077,jersey_experiment_5_v3,2023.2.2,Win32,85.47008547,,,,,,,,,,,,,,,,640.8803,642.4328,642.4329,650.0684,return,2.4945,,90.625,,,,,,FBP-PT-81.png,0.43,1.2,24,0.75,0,21,21,23,1,,,,,,,,,,,,,,,,,,,,,,,,,,,,,,,,,,,,,,,,
,,,,,V3_108,21,Female,2025-02-06_15h30.04.077,jersey_experiment_5_v3,2023.2.2,Win32,85.47008547,,,,,,,,,,,,,,,,650.0688,651.6214,651.6215,655.6685,return,0.6826,,63.80208333,,,,,,FBP-PT-91.png,0.4,1.2,28,0.75,0,22,22,27,1,,,,,,,,,,,,,,,,,,,,,,,,,,,,,,,,,,,,,,,,
,,,,,V3_108,21,Female,2025-02-06_15h30.04.077,jersey_experiment_5_v3,2023.2.2,Win32,85.47008547,,,,,,,,,,,,,,,,655.6689,657.2217,657.2217,660.5868,return,1.0445,,37.5,,,,,,FBP-RB-71.png,0.37,1.2,47,0.75,0,23,23,46,1,,,,,,,,,,,,,,,,,,,,,,,,,,,,,,,,,,,,,,,,
,,,,,V3_108,21,Female,2025-02-06_15h30.04.077,jersey_experiment_5_v3,2023.2.2,Win32,85.47008547,,,,,,,,,,,,,,,,660.587,662.1394,662.1396,664.8691,return,0.9177,,31.51041667,,,,,,FBP-RB-91.png,0.37,1.2,57,0.75,0,24,24,56,1,,,,,,,,,,,,,,,,,,,,,,,,,,,,,,,,,,,,,,,,
,,,,,V3_108,21,Female,2025-02-06_15h30.04.077,jersey_experiment_5_v3,2023.2.2,Win32,85.47008547,,,,,,,,,,,,,,,,664.8692,666.422,666.422,669.9045,return,1.3299,,25.78125,,,,,,FBP-RB-71.png,0.35,1.2,46,0.75,0,25,25,45,1,,,,,,,,,,,,,,,,,,,,,,,,,,,,,,,,,,,,,,,,
,,,,,V3_108,21,Female,2025-02-06_15h30.04.077,jersey_experiment_5_v3,2023.2.2,Win32,85.47008547,,,,,,,,,,,,,,,,669.9047,671.1987,671.1987,676.0106,return,0.9384,,82.55208333,,,,,,FBP-OG-81.png,0.43,1.2,39,0.5,0,26,26,38,1,,,,,,,,,,,,,,,,,,,,,,,,,,,,,,,,,,,,,,,,
,,,,,V3_108,21,Female,2025-02-06_15h30.04.077,jersey_experiment_5_v3,2023.2.2,Win32,85.47008547,,,,,,,,,,,,,,,,676.0109,677.3047,677.3048,680.9284,return,1.0736,,11.06770833,,,,,,FBP-OG-71.png,0.35,1.2,31,0.5,0,27,27,30,1,,,,,,,,,,,,,,,,,,,,,,,,,,,,,,,,,,,,,,,,
,,,,,V3_108,21,Female,2025-02-06_15h30.04.077,jersey_experiment_5_v3,2023.2.2,Win32,85.47008547,,,,,,,,,,,,,,,,680.9287,682.4814,682.4815,688.07,return,1.3652,,85.9375,,,,,,FBP-RB-71.png,0.45,1.2,50,0.75,0,28,28,49,1,,,,,,,,,,,,,,,,,,,,,,,,,,,,,,,,,,,,,,,,
,,,,,V3_108,21,Female,2025-02-06_15h30.04.077,jersey_experiment_5_v3,2023.2.2,Win32,85.47008547,,,,,,,,,,,,,,,,688.0704,689.6229,689.6229,692.2582,return,0.9659,,93.359375,,,,,,FBP-YG-18.png,0.45,1.2,10,0.75,0,29,29,9,1,,,,,,,,,,,,,,,,,,,,,,,,,,,,,,,,,,,,,,,,
,,,,,V3_108,21,Female,2025-02-06_15h30.04.077,jersey_experiment_5_v3,2023.2.2,Win32,85.47008547,,,,,,,,,,,,,,,,692.2585,693.8113,693.8113,696.7642,return,0.7485,,79.94791667,,,,,,FBP-YG-19.png,0.43,1.2,14,0.75,0,30,30,13,1,,,,,,,,,,,,,,,,,,,,,,,,,,,,,,,,,,,,,,,,
,,,,,V3_108,21,Female,2025-02-06_15h30.04.077,jersey_experiment_5_v3,2023.2.2,Win32,85.47008547,,,,,,,,,,,,,,,,696.7645,698.3172,698.3173,701.7644,return,0.7852,,65.88541667,,,,,,FBP-YG-18.png,0.4,1.2,8,0.75,0,31,31,7,1,,,,,,,,,,,,,,,,,,,,,,,,,,,,,,,,,,,,,,,,
,,,,,V3_108,21,Female,2025-02-06_15h30.04.077,jersey_experiment_5_v3,2023.2.2,Win32,85.47008547,,,,,,,,,,,,,,,,701.7646,703.3176,703.3176,706.4941,return,0.6876,,37.63020833,,,,,,FBP-PT-91.png,0.37,1.2,27,0.75,0,32,32,26,1,,,,,,,,,,,,,,,,,,,,,,,,,,,,,,,,,,,,,,,,
,,,,,V3_108,21,Female,2025-02-06_15h30.04.077,jersey_experiment_5_v3,2023.2.2,Win32,85.47008547,,,,,,,,,,,,,,,,706.4943,708.0471,708.0471,710.7059,return,0.7643,,25.65104167,,,,,,FBP-YG-18.png,0.35,1.2,6,0.75,0,33,33,5,1,,,,,,,,,,,,,,,,,,,,,,,,,,,,,,,,,,,,,,,,
,,,,,V3_108,21,Female,2025-02-06_15h30.04.077,jersey_experiment_5_v3,2023.2.2,Win32,85.47008547,,,,,,,,,,,,,,,,710.7062,712.2589,712.259,716.765,return,3.1477,,89.58333333,,,,,,FBP-PT-91.png,0.45,1.2,30,0.75,0,34,34,29,1,,,,,,,,,,,,,,,,,,,,,,,,,,,,,,,,,,,,,,,,
,,,,,V3_108,21,Female,2025-02-06_15h30.04.077,jersey_experiment_5_v3,2023.2.2,Win32,85.47008547,,,,,,,,,,,,,,,,716.7653,718.318,718.3181,720.5887,return,0.7703,,59.89583333,,,,,,FBP-RB-71.png,0.4,1.2,48,0.75,0,35,35,47,1,,,,,,,,,,,,,,,,,,,,,,,,,,,,,,,,,,,,,,,,
,,,,,V3_108,21,Female,2025-02-06_15h30.04.077,jersey_experiment_5_v3,2023.2.2,Win32,85.47008547,,,,,,,,,,,,,,,,720.5889,722.1417,722.1418,724.2829,return,0.7936,,53.38541667,,,,,,FBP-PT-71.png,0.4,1.2,18,0.75,0,36,36,17,1,,,,,,,,,,,,,,,,,,,,,,,,,,,,,,,,,,,,,,,,
,,,,,V3_108,21,Female,2025-02-06_15h30.04.077,jersey_experiment_5_v3,2023.2.2,Win32,85.47008547,,,,,,,,,,,,,,,,724.2831,725.5772,725.5772,727.5655,return,0.8183,,56.640625,,,,,,FBP-OG-71.png,0.4,1.2,33,0.5,0,37,37,32,1,,,,,,,,,,,,,,,,,,,,,,,,,,,,,,,,,,,,,,,,
,,,,,V3_108,21,Female,2025-02-06_15h30.04.077,jersey_experiment_5_v3,2023.2.2,Win32,85.47008547,,,,,,,,,,,,,,,,727.5658,729.1184,729.1185,733.0834,return,2.3017,,28.125,,,,,,FBP-YG-17.png,0.37,1.2,2,0.75,0,38,38,1,1,,,,,,,,,,,,,,,,,,,,,,,,,,,,,,,,,,,,,,,,
,,,,,V3_108,21,Female,2025-02-06_15h30.04.077,jersey_experiment_5_v3,2023.2.2,Win32,85.47008547,,,,,,,,,,,,,,,,733.0836,734.6362,734.6364,738.6836,return,2.3018,,12.76041667,,,,,,FBP-YG-17.png,0.35,1.2,1,0.75,0,39,39,0,1,,,,,,,,,,,,,,,,,,,,,,,,,,,,,,,,,,,,,,,,
,,,,,V3_108,21,Female,2025-02-06_15h30.04.077,jersey_experiment_5_v3,2023.2.2,Win32,85.47008547,,,,,,,,,,,,,,,,738.684,740.2364,740.2365,748.3192,return,4.4512,,77.99479167,,,,,,FBP-PT-71.png,0.45,1.2,20,0.75,0,40,40,19,1,,,,,,,,,,,,,,,,,,,,,,,,,,,,,,,,,,,,,,,,
,,,,,V3_108,21,Female,2025-02-06_15h30.04.077,jersey_experiment_5_v3,2023.2.2,Win32,85.47008547,,,,,,,,,,,,,,,,748.3194,749.6134,749.6134,753.4722,return,1.0738,,21.74479167,,,,,,FBP-OG-81.png,0.35,1.2,36,0.5,0,41,41,35,1,,,,,,,,,,,,,,,,,,,,,,,,,,,,,,,,,,,,,,,,
,,,,,V3_108,21,Female,2025-02-06_15h30.04.077,jersey_experiment_5_v3,2023.2.2,Win32,85.47008547,,,,,,,,,,,,,,,,753.4725,754.7664,754.7664,759.1078,return,1.2351,,82.03125,,,,,,FBP-OG-81.png,0.45,1.2,40,0.5,0,42,42,39,1,,,,,,,,,,,,,,,,,,,,,,,,,,,,,,,,,,,,,,,,
,,,,,V3_108,21,Female,2025-02-06_15h30.04.077,jersey_experiment_5_v3,2023.2.2,Win32,85.47008547,,,,,,,,,,,,,,,,759.1081,760.6608,760.6608,764.5314,return,0.8024,,85.41666667,,,,,,FBP-RB-81.png,0.43,1.2,54,0.75,0,43,43,53,1,,,,,,,,,,,,,,,,,,,,,,,,,,,,,,,,,,,,,,,,
,,,,,V3_108,21,Female,2025-02-06_15h30.04.077,jersey_experiment_5_v3,2023.2.2,Win32,85.47008547,,,,,,,,,,,,,,,,764.5317,765.8255,765.8256,768.367,return,1.1461,,90.75520833,,,,,,FBP-OG-71.png,0.45,1.2,35,0.5,0,44,44,34,1,,,,,,,,,,,,,,,,,,,,,,,,,,,,,,,,,,,,,,,,
,,,,,V3_108,21,Female,2025-02-06_15h30.04.077,jersey_experiment_5_v3,2023.2.2,Win32,85.47008547,,,,,,,,,,,,,,,,768.3672,769.9199,769.9199,772.7553,return,0.8474,,25,,,,,,FBP-RB-81.png,0.37,1.2,52,0.75,0,45,45,51,1,,,,,,,,,,,,,,,,,,,,,,,,,,,,,,,,,,,,,,,,
,,,,,V3_108,21,Female,2025-02-06_15h30.04.077,jersey_experiment_5_v3,2023.2.2,Win32,85.47008547,,,,,,,,,,,,,,,,772.7555,774.3083,774.3084,778.779,return,2.8167,,46.74479167,,,,,,FBP-PT-81.png,0.4,1.2,23,0.75,0,46,46,22,1,,,,,,,,,,,,,,,,,,,,,,,,,,,,,,,,,,,,,,,,
,,,,,V3_108,21,Female,2025-02-06_15h30.04.077,jersey_experiment_5_v3,2023.2.2,Win32,85.47008547,,,,,,,,,,,,,,,,778.7795,780.3321,780.3321,782.7321,return,0.7133,,58.46354167,,,,,,FBP-YG-18.png,0.43,1.2,9,0.75,0,47,47,8,1,,,,,,,,,,,,,,,,,,,,,,,,,,,,,,,,,,,,,,,,
,,,,,V3_108,21,Female,2025-02-06_15h30.04.077,jersey_experiment_5_v3,2023.2.2,Win32,85.47008547,,,,,,,,,,,,,,,,782.7325,784.2852,784.2852,786.4265,return,0.7017,,83.984375,,,,,,FBP-YG-17.png,0.45,1.2,5,0.75,0,48,48,4,1,,,,,,,,,,,,,,,,,,,,,,,,,,,,,,,,,,,,,,,,
,,,,,V3_108,21,Female,2025-02-06_15h30.04.077,jersey_experiment_5_v3,2023.2.2,Win32,85.47008547,,,,,,,,,,,,,,,,786.4268,787.7206,787.7206,792.3325,return,0.6658,,44.921875,,,,,,FBP-OG-91.png,0.4,1.2,43,0.5,0,49,49,42,1,,,,,,,,,,,,,,,,,,,,,,,,,,,,,,,,,,,,,,,,
,,,,,V3_108,21,Female,2025-02-06_15h30.04.077,jersey_experiment_5_v3,2023.2.2,Win32,85.47008547,,,,,,,,,,,,,,,,792.3327,793.8856,793.8856,796.3797,return,0.8546,,77.34375,,,,,,FBP-RB-81.png,0.45,1.2,55,0.75,0,50,50,54,1,,,,,,,,,,,,,,,,,,,,,,,,,,,,,,,,,,,,,,,,
,,,,,V3_108,21,Female,2025-02-06_15h30.04.077,jersey_experiment_5_v3,2023.2.2,Win32,85.47008547,,,,,,,,,,,,,,,,796.38,797.6739,797.6739,804.4623,return,0.8278,,61.84895833,,,,,,FBP-OG-71.png,0.37,1.2,32,0.5,0,51,51,31,1,,,,,,,,,,,,,,,,,,,,,,,,,,,,,,,,,,,,,,,,
,,,,,V3_108,21,Female,2025-02-06_15h30.04.077,jersey_experiment_5_v3,2023.2.2,Win32,85.47008547,,,,,,,,,,,,,,,,804.4626,806.0156,806.0156,809.1095,return,0.3535,,84.375,,,,,,FBP-RB-71.png,0.43,1.2,49,0.75,0,52,52,48,1,,,,,,,,,,,,,,,,,,,,,,,,,,,,,,,,,,,,,,,,
,,,,,V3_108,21,Female,2025-02-06_15h30.04.077,jersey_experiment_5_v3,2023.2.2,Win32,85.47008547,,,,,,,,,,,,,,,,809.1097,810.6626,810.6627,813.404,return,0.2645,,56.90104167,,,,,,FBP-YG-17.png,0.4,1.2,3,0.75,0,53,53,2,1,,,,,,,,,,,,,,,,,,,,,,,,,,,,,,,,,,,,,,,,
,,,,,V3_108,21,Female,2025-02-06_15h30.04.077,jersey_experiment_5_v3,2023.2.2,Win32,85.47008547,,,,,,,,,,,,,,,,813.4043,814.9568,814.9568,818.4629,return,1.2266,,7.161458333,,,,,,FBP-PT-81.png,0.35,1.2,21,0.75,0,54,54,20,1,,,,,,,,,,,,,,,,,,,,,,,,,,,,,,,,,,,,,,,,
,,,,,V3_108,21,Female,2025-02-06_15h30.04.077,jersey_experiment_5_v3,2023.2.2,Win32,85.47008547,,,,,,,,,,,,,,,,818.4631,819.757,819.7571,821.263,return,0.0737,,4.947916667,,,,,,FBP-OG-81.png,0.37,1.2,37,0.5,0,55,55,36,1,,,,,,,,,,,,,,,,,,,,,,,,,,,,,,,,,,,,,,,,
,,,,,V3_108,21,Female,2025-02-06_15h30.04.077,jersey_experiment_5_v3,2023.2.2,Win32,85.47008547,,,,,,,,,,,,,,,,821.2633,822.816,822.816,825.7455,return,0.9066,,58.72395833,,,,,,FBP-PT-71.png,0.43,1.2,19,0.75,0,56,56,18,1,,,,,,,,,,,,,,,,,,,,,,,,,,,,,,,,,,,,,,,,
,,,,,V3_108,21,Female,2025-02-06_15h30.04.077,jersey_experiment_5_v3,2023.2.2,Win32,85.47008547,,,,,,,,,,,,,,,,825.7458,827.0396,827.0397,830.0752,return,0.2284,,23.4375,,,,,,FBP-OG-91.png,0.37,1.2,42,0.5,0,57,57,41,1,,,,,,,,,,,,,,,,,,,,,,,,,,,,,,,,,,,,,,,,
,,,,,V3_108,21,Female,2025-02-06_15h30.04.077,jersey_experiment_5_v3,2023.2.2,Win32,85.47008547,,,,,,,,,,,,,,,,830.0754,831.6281,831.6281,833.9693,return,0.7906,,10.9375,,,,,,FBP-RB-81.png,0.35,1.2,51,0.75,0,58,58,50,1,,,,,,,,,,,,,,,,,,,,,,,,,,,,,,,,,,,,,,,,
,,,,,V3_108,21,Female,2025-02-06_15h30.04.077,jersey_experiment_5_v3,2023.2.2,Win32,85.47008547,,,,,,,,,,,,,,,,833.9697,835.5222,835.5222,838.3578,return,1.3414,,26.82291667,,,,,,FBP-YG-19.png,0.37,1.2,12,0.75,0,59,59,11,1,,,,,,,,,,,,,,,,,,,,,,,,,,,,,,,,,,,,,,,,
,,,,,V3_108,21,Female,2025-02-06_15h30.04.077,jersey_experiment_5_v3,2023.2.2,Win32,85.47008547,,,,,,,,,,,,,,,,,,,,,,,,,,,,,,,,,,,,,,,838.3581,958.3505,,,,,,,,,,,,,,,,,,,,,,,,,,,,,,,,,,,,,,
,,,,,V3_108,21,Female,2025-02-06_15h30.04.077,jersey_experiment_5_v3,2023.2.2,Win32,85.47008547,,,,,,,,,,,,,,,,,,,,,,,,,,,,,,,,,,,,,,,,,958.3507,963.1861,return,4.8241,,,,,,,,,,,,,,,,,,,,,,,,,,,,,,,,,,
,,,,,V3_108,21,Female,2025-02-06_15h30.04.077,jersey_experiment_5_v3,2023.2.2,Win32,85.47008547,,,,,,,,,,,,,,,,963.1887,964.48,964.4801,967.9389,return,1.1386,,66.66666667,,,,,,FBP-YG-91.png,0.45,1.2,15,0.5,,,,,,,,,,,,,0,0,0,14,1,,,,,,,,,,,,,,,,,,,,,,,,,,,,
,,,,,V3_108,21,Female,2025-02-06_15h30.04.077,jersey_experiment_5_v3,2023.2.2,Win32,85.47008547,,,,,,,,,,,,,,,,967.9393,969.2331,969.2332,971.598,return,0.946,,82.421875,,,,,,FBP-YG-71.png,0.45,1.2,5,0.5,,,,,,,,,,,,,0,1,1,4,1,,,,,,,,,,,,,,,,,,,,,,,,,,,,
,,,,,V3_108,21,Female,2025-02-06_15h30.04.077,jersey_experiment_5_v3,2023.2.2,Win32,85.47008547,,,,,,,,,,,,,,,,971.5982,972.8921,972.8921,975.857,return,0.7324,,28.90625,,,,,,FBP-RB-18.png,0.37,1.2,52,0.5,,,,,,,,,,,,,0,2,2,51,1,,,,,,,,,,,,,,,,,,,,,,,,,,,,
,,,,,V3_108,21,Female,2025-02-06_15h30.04.077,jersey_experiment_5_v3,2023.2.2,Win32,85.47008547,,,,,,,,,,,,,,,,975.8573,977.4098,977.4099,980.6102,return,0.6124,,74.609375,,,,,,FBP-OG-17.png,0.43,1.2,34,0.75,,,,,,,,,,,,,0,3,3,33,1,,,,,,,,,,,,,,,,,,,,,,,,,,,,
,,,,,V3_108,21,Female,2025-02-06_15h30.04.077,jersey_experiment_5_v3,2023.2.2,Win32,85.47008547,,,,,,,,,,,,,,,,980.6106,981.9042,981.9042,984.7043,return,0.7293,,20.3125,,,,,,FBP-PT-17.png,0.35,1.2,16,0.5,,,,,,,,,,,,,0,4,4,15,1,,,,,,,,,,,,,,,,,,,,,,,,,,,,
,,,,,V3_108,21,Female,2025-02-06_15h30.04.077,jersey_experiment_5_v3,2023.2.2,Win32,85.47008547,,,,,,,,,,,,,,,,984.7046,985.9985,985.9986,989.4927,return,1.6709,,16.14583333,,,,,,FBP-PT-19.png,0.35,1.2,26,0.5,,,,,,,,,,,,,0,5,5,25,1,,,,,,,,,,,,,,,,,,,,,,,,,,,,
,,,,,V3_108,21,Female,2025-02-06_15h30.04.077,jersey_experiment_5_v3,2023.2.2,Win32,85.47008547,,,,,,,,,,,,,,,,989.4929,990.7868,990.7868,993.3333,return,0.823,,80.98958333,,,,,,FBP-YG-91.png,0.43,1.2,14,0.5,,,,,,,,,,,,,0,6,6,13,1,,,,,,,,,,,,,,,,,,,,,,,,,,,,
,,,,,V3_108,21,Female,2025-02-06_15h30.04.077,jersey_experiment_5_v3,2023.2.2,Win32,85.47008547,,,,,,,,,,,,,,,,993.3335,994.6373,994.6373,996.7165,return,0.7223,,85.9375,,,,,,FBP-PT-19.png,0.43,1.2,29,0.5,,,,,,,,,,,,,0,7,7,28,1,,,,,,,,,,,,,,,,,,,,,,,,,,,,
,,,,,V3_108,21,Female,2025-02-06_15h30.04.077,jersey_experiment_5_v3,2023.2.2,Win32,85.47008547,,,,,,,,,,,,,,,,996.7167,998.0106,998.0106,1001.8501,return,2.2011,,60.546875,,,,,,FBP-RB-19.png,0.4,1.2,58,0.5,,,,,,,,,,,,,0,8,8,57,1,,,,,,,,,,,,,,,,,,,,,,,,,,,,
,,,,,V3_108,21,Female,2025-02-06_15h30.04.077,jersey_experiment_5_v3,2023.2.2,Win32,85.47008547,,,,,,,,,,,,,,,,1001.8502,1003.1451,1003.1451,1006.0463,return,0.721,,19.53125,,,,,,FBP-RB-17.png,0.35,1.2,46,0.5,,,,,,,,,,,,,0,9,9,45,1,,,,,,,,,,,,,,,,,,,,,,,,,,,,
,,,,,V3_108,21,Female,2025-02-06_15h30.04.077,jersey_experiment_5_v3,2023.2.2,Win32,85.47008547,,,,,,,,,,,,,,,,1006.0466,1007.3434,1007.3434,1010.0263,return,0.8477,,89.453125,,,,,,FBP-PT-18.png,0.45,1.2,25,0.5,,,,,,,,,,,,,0,10,10,24,1,,,,,,,,,,,,,,,,,,,,,,,,,,,,
,,,,,V3_108,21,Female,2025-02-06_15h30.04.077,jersey_experiment_5_v3,2023.2.2,Win32,85.47008547,,,,,,,,,,,,,,,,1010.0265,1011.3325,1011.3326,1014.6282,return,0.682,,84.765625,,,,,,FBP-RB-17.png,0.45,1.2,50,0.5,,,,,,,,,,,,,0,11,11,49,1,,,,,,,,,,,,,,,,,,,,,,,,,,,,
,,,,,V3_108,21,Female,2025-02-06_15h30.04.077,jersey_experiment_5_v3,2023.2.2,Win32,85.47008547,,,,,,,,,,,,,,,,1014.6283,1015.9322,1015.9322,1018.7205,return,0.7749,,40.49479167,,,,,,FBP-RB-19.png,0.37,1.2,57,0.5,,,,,,,,,,,,,0,12,12,56,1,,,,,,,,,,,,,,,,,,,,,,,,,,,,
,,,,,V3_108,21,Female,2025-02-06_15h30.04.077,jersey_experiment_5_v3,2023.2.2,Win32,85.47008547,,,,,,,,,,,,,,,,1018.7207,1020.0172,1020.0173,1022.4155,return,0.7419,,67.96875,,,,,,FBP-RB-19.png,0.43,1.2,59,0.5,,,,,,,,,,,,,0,13,13,58,1,,,,,,,,,,,,,,,,,,,,,,,,,,,,
,,,,,V3_108,21,Female,2025-02-06_15h30.04.077,jersey_experiment_5_v3,2023.2.2,Win32,85.47008547,,,,,,,,,,,,,,,,1022.4156,1023.9647,1023.9647,1027.0765,return,0.6973,,32.03125,,,,,,FBP-OG-18.png,0.35,1.2,36,0.75,,,,,,,,,,,,,0,14,14,35,1,,,,,,,,,,,,,,,,,,,,,,,,,,,,
,,,,,V3_108,21,Female,2025-02-06_15h30.04.077,jersey_experiment_5_v3,2023.2.2,Win32,85.47008547,,,,,,,,,,,,,,,,1027.0767,1028.3766,1028.3766,1031.0287,return,0.8375,,30.59895833,,,,,,FBP-YG-71.png,0.37,1.2,2,0.5,,,,,,,,,,,,,0,15,15,1,1,,,,,,,,,,,,,,,,,,,,,,,,,,,,
,,,,,V3_108,21,Female,2025-02-06_15h30.04.077,jersey_experiment_5_v3,2023.2.2,Win32,85.47008547,,,,,,,,,,,,,,,,1031.0288,1032.3327,1032.3328,1035.1242,return,0.7443,,32.8125,,,,,,FBP-RB-17.png,0.37,1.2,47,0.5,,,,,,,,,,,,,0,16,16,46,1,,,,,,,,,,,,,,,,,,,,,,,,,,,,
,,,,,V3_108,21,Female,2025-02-06_15h30.04.077,jersey_experiment_5_v3,2023.2.2,Win32,85.47008547,,,,,,,,,,,,,,,,1035.1243,1036.4184,1036.4184,1040.333,return,2.103,,87.890625,,,,,,FBP-YG-81.png,0.45,1.2,10,0.5,,,,,,,,,,,,,0,17,17,9,1,,,,,,,,,,,,,,,,,,,,,,,,,,,,
,,,,,V3_108,21,Female,2025-02-06_15h30.04.077,jersey_experiment_5_v3,2023.2.2,Win32,85.47008547,,,,,,,,,,,,,,,,1040.3332,1041.886,1041.886,1044.4656,return,0.6851,,70.44270833,,,,,,FBP-OG-18.png,0.4,1.2,38,0.75,,,,,,,,,,,,,0,18,18,37,1,,,,,,,,,,,,,,,,,,,,,,,,,,,,
,,,,,V3_108,21,Female,2025-02-06_15h30.04.077,jersey_experiment_5_v3,2023.2.2,Win32,85.47008547,,,,,,,,,,,,,,,,1044.4658,1045.7654,1045.7654,1048.2766,return,0.6731,,93.48958333,,,,,,FBP-RB-19.png,0.45,1.2,60,0.5,,,,,,,,,,,,,0,19,19,59,1,,,,,,,,,,,,,,,,,,,,,,,,,,,,
,,,,,V3_108,21,Female,2025-02-06_15h30.04.077,jersey_experiment_5_v3,2023.2.2,Win32,85.47008547,,,,,,,,,,,,,,,,1048.2768,1049.5772,1049.5773,1052.1578,return,0.7757,,80.72916667,,,,,,FBP-PT-17.png,0.43,1.2,19,0.5,,,,,,,,,,,,,0,20,20,18,1,,,,,,,,,,,,,,,,,,,,,,,,,,,,
,,,,,V3_108,21,Female,2025-02-06_15h30.04.077,jersey_experiment_5_v3,2023.2.2,Win32,85.47008547,,,,,,,,,,,,,,,,1052.1579,1053.453,1053.4531,1055.9482,return,0.7766,,86.58854167,,,,,,FBP-RB-18.png,0.45,1.2,55,0.5,,,,,,,,,,,,,0,21,21,54,1,,,,,,,,,,,,,,,,,,,,,,,,,,,,
,,,,,V3_108,21,Female,2025-02-06_15h30.04.077,jersey_experiment_5_v3,2023.2.2,Win32,85.47008547,,,,,,,,,,,,,,,,1055.9484,1057.2514,1057.2514,1060.3577,return,1.2797,,68.09895833,,,,,,FBP-YG-91.png,0.4,1.2,13,0.5,,,,,,,,,,,,,0,22,22,12,1,,,,,,,,,,,,,,,,,,,,,,,,,,,,
,,,,,V3_108,21,Female,2025-02-06_15h30.04.077,jersey_experiment_5_v3,2023.2.2,Win32,85.47008547,,,,,,,,,,,,,,,,1060.3578,1061.6634,1061.6634,1065.7073,return,0.596,,52.34375,,,,,,FBP-RB-17.png,0.4,1.2,48,0.5,,,,,,,,,,,,,0,23,23,47,1,,,,,,,,,,,,,,,,,,,,,,,,,,,,
,,,,,V3_108,21,Female,2025-02-06_15h30.04.077,jersey_experiment_5_v3,2023.2.2,Win32,85.47008547,,,,,,,,,,,,,,,,1065.7075,1067.0014,1067.0014,1069.0721,return,0.6851,,40.10416667,,,,,,FBP-RB-18.png,0.35,1.2,51,0.5,,,,,,,,,,,,,0,24,24,50,1,,,,,,,,,,,,,,,,,,,,,,,,,,,,
,,,,,V3_108,21,Female,2025-02-06_15h30.04.077,jersey_experiment_5_v3,2023.2.2,Win32,85.47008547,,,,,,,,,,,,,,,,1069.0723,1070.6165,1070.6165,1072.7966,return,0.6593,,78.515625,,,,,,FBP-OG-19.png,0.45,1.2,45,0.75,,,,,,,,,,,,,0,25,25,44,1,,,,,,,,,,,,,,,,,,,,,,,,,,,,
,,,,,V3_108,21,Female,2025-02-06_15h30.04.077,jersey_experiment_5_v3,2023.2.2,Win32,85.47008547,,,,,,,,,,,,,,,,1072.7967,1074.0885,1074.0885,1077.0406,return,0.5522,,41.27604167,,,,,,FBP-PT-19.png,0.4,1.2,28,0.5,,,,,,,,,,,,,0,26,26,27,1,,,,,,,,,,,,,,,,,,,,,,,,,,,,
,,,,,V3_108,21,Female,2025-02-06_15h30.04.077,jersey_experiment_5_v3,2023.2.2,Win32,85.47008547,,,,,,,,,,,,,,,,1077.0408,1078.5934,1078.5934,1082.0757,return,1.4918,,39.32291667,,,,,,FBP-OG-18.png,0.37,1.2,37,0.75,,,,,,,,,,,,,0,27,27,36,1,,,,,,,,,,,,,,,,,,,,,,,,,,,,
,,,,,V3_108,21,Female,2025-02-06_15h30.04.077,jersey_experiment_5_v3,2023.2.2,Win32,85.47008547,,,,,,,,,,,,,,,,1082.0759,1083.6285,1083.6285,1087.8643,return,0.9739,,79.94791667,,,,,,FBP-OG-17.png,0.45,1.2,35,0.75,,,,,,,,,,,,,0,28,28,34,1,,,,,,,,,,,,,,,,,,,,,,,,,,,,
,,,,,V3_108,21,Female,2025-02-06_15h30.04.077,jersey_experiment_5_v3,2023.2.2,Win32,85.47008547,,,,,,,,,,,,,,,,1087.8645,1089.1585,1089.1586,1091.8091,return,0.9653,,69.53125,,,,,,FBP-RB-17.png,0.43,1.2,49,0.5,,,,,,,,,,,,,0,29,29,48,1,,,,,,,,,,,,,,,,,,,,,,,,,,,,
,,,,,V3_108,21,Female,2025-02-06_15h30.04.077,jersey_experiment_5_v3,2023.2.2,Win32,85.47008547,,,,,,,,,,,,,,,,1091.8092,1093.1015,1093.1015,1097.1263,return,0.638,,49.08854167,,,,,,FBP-PT-17.png,0.4,1.2,18,0.5,,,,,,,,,,,,,0,30,30,17,1,,,,,,,,,,,,,,,,,,,,,,,,,,,,
,,,,,V3_108,21,Female,2025-02-06_15h30.04.077,jersey_experiment_5_v3,2023.2.2,Win32,85.47008547,,,,,,,,,,,,,,,,1097.1265,1098.6779,1098.6779,1101.791,return,1.7669,,73.56770833,,,,,,FBP-OG-19.png,0.43,1.2,44,0.75,,,,,,,,,,,,,0,31,31,43,1,,,,,,,,,,,,,,,,,,,,,,,,,,,,
,,,,,V3_108,21,Female,2025-02-06_15h30.04.077,jersey_experiment_5_v3,2023.2.2,Win32,85.47008547,,,,,,,,,,,,,,,,1101.7912,1103.0883,1103.0883,1105.4734,return,0.5901,,42.83854167,,,,,,FBP-PT-18.png,0.37,1.2,22,0.5,,,,,,,,,,,,,0,32,32,21,1,,,,,,,,,,,,,,,,,,,,,,,,,,,,
,,,,,V3_108,21,Female,2025-02-06_15h30.04.077,jersey_experiment_5_v3,2023.2.2,Win32,85.47008547,,,,,,,,,,,,,,,,1105.4736,1106.7712,1106.7712,1109.1025,return,0.6582,,55.20833333,,,,,,FBP-PT-18.png,0.4,1.2,23,0.5,,,,,,,,,,,,,0,33,33,22,1,,,,,,,,,,,,,,,,,,,,,,,,,,,,
,,,,,V3_108,21,Female,2025-02-06_15h30.04.077,jersey_experiment_5_v3,2023.2.2,Win32,85.47008547,,,,,,,,,,,,,,,,1109.1026,1110.3963,1110.3963,1113.7127,return,0.8831,,68.22916667,,,,,,FBP-PT-19.png,0.45,1.2,30,0.5,,,,,,,,,,,,,0,34,34,29,1,,,,,,,,,,,,,,,,,,,,,,,,,,,,
,,,,,V3_108,21,Female,2025-02-06_15h30.04.077,jersey_experiment_5_v3,2023.2.2,Win32,85.47008547,,,,,,,,,,,,,,,,1113.7127,1115.0075,1115.0076,1118.1615,return,0.5168,,53.77604167,,,,,,FBP-PT-18.png,0.35,1.2,21,0.5,,,,,,,,,,,,,0,35,35,20,1,,,,,,,,,,,,,,,,,,,,,,,,,,,,
,,,,,V3_108,21,Female,2025-02-06_15h30.04.077,jersey_experiment_5_v3,2023.2.2,Win32,85.47008547,,,,,,,,,,,,,,,,1118.1616,1119.7093,1119.7093,1121.4858,return,0.6534,,41.796875,,,,,,FBP-OG-19.png,0.37,1.2,42,0.75,,,,,,,,,,,,,0,36,36,41,1,,,,,,,,,,,,,,,,,,,,,,,,,,,,
,,,,,V3_108,21,Female,2025-02-06_15h30.04.077,jersey_experiment_5_v3,2023.2.2,Win32,85.47008547,,,,,,,,,,,,,,,,1121.4861,1122.7799,1122.78,1126.9094,return,0.9468,,47.78645833,,,,,,FBP-RB-18.png,0.4,1.2,53,0.5,,,,,,,,,,,,,0,37,37,52,1,,,,,,,,,,,,,,,,,,,,,,,,,,,,
,,,,,V3_108,21,Female,2025-02-06_15h30.04.077,jersey_experiment_5_v3,2023.2.2,Win32,85.47008547,,,,,,,,,,,,,,,,1126.9098,1128.2089,1128.2089,1131.0308,return,1.7537,,55.72916667,,,,,,FBP-YG-71.png,0.4,1.2,3,0.5,,,,,,,,,,,,,0,38,38,2,1,,,,,,,,,,,,,,,,,,,,,,,,,,,,
,,,,,V3_108,21,Female,2025-02-06_15h30.04.077,jersey_experiment_5_v3,2023.2.2,Win32,85.47008547,,,,,,,,,,,,,,,,1131.031,1132.3365,1132.3365,1136.2425,return,1.6815,,44.40104167,,,,,,FBP-PT-19.png,0.37,1.2,27,0.5,,,,,,,,,,,,,0,39,39,26,1,,,,,,,,,,,,,,,,,,,,,,,,,,,,
,,,,,V3_108,21,Female,2025-02-06_15h30.04.077,jersey_experiment_5_v3,2023.2.2,Win32,85.47008547,,,,,,,,,,,,,,,,1136.2427,1137.5511,1137.5511,1140.8446,return,0.1552,,28.125,,,,,,FBP-RB-19.png,0.35,1.2,56,0.5,,,,,,,,,,,,,0,40,40,55,1,,,,,,,,,,,,,,,,,,,,,,,,,,,,
,,,,,V3_108,21,Female,2025-02-06_15h30.04.077,jersey_experiment_5_v3,2023.2.2,Win32,85.47008547,,,,,,,,,,,,,,,,1140.8448,1142.1394,1142.1394,1144.1636,return,0.5329,,29.42708333,,,,,,FBP-YG-91.png,0.37,1.2,12,0.5,,,,,,,,,,,,,0,41,41,11,1,,,,,,,,,,,,,,,,,,,,,,,,,,,,
,,,,,V3_108,21,Female,2025-02-06_15h30.04.077,jersey_experiment_5_v3,2023.2.2,Win32,85.47008547,,,,,,,,,,,,,,,,1144.1638,1145.7165,1145.7165,1147.599,return,0.3781,,62.76041667,,,,,,FBP-OG-17.png,0.4,1.2,33,0.75,,,,,,,,,,,,,0,42,42,32,1,,,,,,,,,,,,,,,,,,,,,,,,,,,,
,,,,,V3_108,21,Female,2025-02-06_15h30.04.077,jersey_experiment_5_v3,2023.2.2,Win32,85.47008547,,,,,,,,,,,,,,,,1147.5992,1148.9018,1148.9018,1151.2281,return,0.1478,,54.16666667,,,,,,FBP-PT-17.png,0.37,1.2,17,0.5,,,,,,,,,,,,,0,43,43,16,1,,,,,,,,,,,,,,,,,,,,,,,,,,,,
,,,,,V3_108,21,Female,2025-02-06_15h30.04.077,jersey_experiment_5_v3,2023.2.2,Win32,85.47008547,,,,,,,,,,,,,,,,1151.2284,1152.7754,1152.7754,1154.517,return,0.4624,,76.04166667,,,,,,FBP-OG-18.png,0.43,1.2,39,0.75,,,,,,,,,,,,,0,44,44,38,1,,,,,,,,,,,,,,,,,,,,,,,,,,,,
,,,,,V3_108,21,Female,2025-02-06_15h30.04.077,jersey_experiment_5_v3,2023.2.2,Win32,85.47008547,,,,,,,,,,,,,,,,1154.5172,1155.8196,1155.8196,1158.399,return,0.9556,,53.515625,,,,,,FBP-YG-81.png,0.37,1.2,7,0.5,,,,,,,,,,,,,0,45,45,6,1,,,,,,,,,,,,,,,,,,,,,,,,,,,,
,,,,,V3_108,21,Female,2025-02-06_15h30.04.077,jersey_experiment_5_v3,2023.2.2,Win32,85.47008547,,,,,,,,,,,,,,,,1158.3991,1159.6909,1159.6909,1161.9814,return,0.2163,,70.05208333,,,,,,FBP-PT-18.png,0.43,1.2,24,0.5,,,,,,,,,,,,,0,46,46,23,1,,,,,,,,,,,,,,,,,,,,,,,,,,,,
,,,,,V3_108,21,Female,2025-02-06_15h30.04.077,jersey_experiment_5_v3,2023.2.2,Win32,85.47008547,,,,,,,,,,,,,,,,1161.9816,1163.5374,1163.5374,1165.4348,return,0.3559,,77.08333333,,,,,,FBP-OG-18.png,0.45,1.2,40,0.75,,,,,,,,,,,,,0,47,47,39,1,,,,,,,,,,,,,,,,,,,,,,,,,,,,
,,,,,V3_108,21,Female,2025-02-06_15h30.04.077,jersey_experiment_5_v3,2023.2.2,Win32,85.47008547,,,,,,,,,,,,,,,,1165.4349,1166.7265,1166.7265,1168.1732,return,0.3064,,80.46875,,,,,,FBP-YG-71.png,0.43,1.2,4,0.5,,,,,,,,,,,,,0,48,48,3,1,,,,,,,,,,,,,,,,,,,,,,,,,,,,
,,,,,V3_108,21,Female,2025-02-06_15h30.04.077,jersey_experiment_5_v3,2023.2.2,Win32,85.47008547,,,,,,,,,,,,,,,,1168.1735,1169.4794,1169.4794,1171.5762,return,0.3769,,42.70833333,,,,,,FBP-YG-91.png,0.35,1.2,11,0.5,,,,,,,,,,,,,0,49,49,10,1,,,,,,,,,,,,,,,,,,,,,,,,,,,,
,,,,,V3_108,21,Female,2025-02-06_15h30.04.077,jersey_experiment_5_v3,2023.2.2,Win32,85.47008547,,,,,,,,,,,,,,,,1171.5765,1173.1229,1173.1229,1175.1144,return,0.2591,,50.390625,,,,,,FBP-OG-19.png,0.4,1.2,43,0.75,,,,,,,,,,,,,0,50,50,42,1,,,,,,,,,,,,,,,,,,,,,,,,,,,,
,,,,,V3_108,21,Female,2025-02-06_15h30.04.077,jersey_experiment_5_v3,2023.2.2,Win32,85.47008547,,,,,,,,,,,,,,,,1175.1146,1176.4223,1176.4223,1178.6565,return,0.3185,,25.91145833,,,,,,FBP-YG-71.png,0.35,1.2,1,0.5,,,,,,,,,,,,,0,51,51,0,1,,,,,,,,,,,,,,,,,,,,,,,,,,,,
,,,,,V3_108,21,Female,2025-02-06_15h30.04.077,jersey_experiment_5_v3,2023.2.2,Win32,85.47008547,,,,,,,,,,,,,,,,1178.6566,1180.2117,1180.2117,1181.8566,return,0.201,,23.4375,,,,,,FBP-OG-19.png,0.35,1.2,41,0.75,,,,,,,,,,,,,0,52,52,40,1,,,,,,,,,,,,,,,,,,,,,,,,,,,,
,,,,,V3_108,21,Female,2025-02-06_15h30.04.077,jersey_experiment_5_v3,2023.2.2,Win32,85.47008547,,,,,,,,,,,,,,,,1181.8567,1183.1619,1183.1619,1184.586,return,0.0128,,24.21875,,,,,,FBP-YG-81.png,0.35,1.2,6,0.5,,,,,,,,,,,,,0,53,53,5,1,,,,,,,,,,,,,,,,,,,,,,,,,,,,
,,,,,V3_108,21,Female,2025-02-06_15h30.04.077,jersey_experiment_5_v3,2023.2.2,Win32,85.47008547,,,,,,,,,,,,,,,,1184.5861,1186.1403,1186.1403,1187.468,return,0.3063,,32.94270833,,,,,,FBP-OG-17.png,0.37,1.2,32,0.75,,,,,,,,,,,,,0,54,54,31,1,,,,,,,,,,,,,,,,,,,,,,,,,,,,
,,,,,V3_108,21,Female,2025-02-06_15h30.04.077,jersey_experiment_5_v3,2023.2.2,Win32,85.47008547,,,,,,,,,,,,,,,,1187.4682,1189.0207,1189.0207,1190.2884,return,0.2512,,29.55729167,,,,,,FBP-OG-17.png,0.35,1.2,31,0.75,,,,,,,,,,,,,0,55,55,30,1,,,,,,,,,,,,,,,,,,,,,,,,,,,,
,,,,,V3_108,21,Female,2025-02-06_15h30.04.077,jersey_experiment_5_v3,2023.2.2,Win32,85.47008547,,,,,,,,,,,,,,,,1190.2885,1191.5825,1191.5825,1193.9826,return,0.981,,75.65104167,,,,,,FBP-YG-81.png,0.4,1.2,8,0.5,,,,,,,,,,,,,0,56,56,7,1,,,,,,,,,,,,,,,,,,,,,,,,,,,,
,,,,,V3_108,21,Female,2025-02-06_15h30.04.077,jersey_experiment_5_v3,2023.2.2,Win32,85.47008547,,,,,,,,,,,,,,,,1193.9828,1195.2768,1195.2768,1196.704,return,0.4361,,89.32291667,,,,,,FBP-PT-17.png,0.45,1.2,20,0.5,,,,,,,,,,,,,0,57,57,19,1,,,,,,,,,,,,,,,,,,,,,,,,,,,,
,,,,,V3_108,21,Female,2025-02-06_15h30.04.077,jersey_experiment_5_v3,2023.2.2,Win32,85.47008547,,,,,,,,,,,,,,,,1196.7041,1198.001,1198.001,1199.3886,return,0.4246,,92.578125,,,,,,FBP-YG-81.png,0.43,1.2,9,0.5,,,,,,,,,,,,,0,58,58,8,1,,,,,,,,,,,,,,,,,,,,,,,,,,,,
,,,,,V3_108,21,Female,2025-02-06_15h30.04.077,jersey_experiment_5_v3,2023.2.2,Win32,85.47008547,,,,,,,,,,,,,,,,1199.3887,1200.682,1200.682,1201.7271,return,0.2824,,94.66145833,,,,,,FBP-RB-18.png,0.43,1.2,54,0.5,,,,,,,,,,,,,0,59,59,53,1,,,,,,,,,,,,,,,,,,,,,,,,,,,,
,,,,,V3_108,21,Female,2025-02-06_15h30.04.077,jersey_experiment_5_v3,2023.2.2,Win32,85.47008547,,,,,,,,,,,,,,,,1201.7288,1203.0342,1203.0342,1205.5625,return,0.1981,,35.546875,,,,,,FBP-PT-91.png,0.37,1.2,27,0.5,,,,,,,,,,,,,,,,,,0,0,0,26,1,,,,,,,,,,,,,,,,,,,,,,,
,,,,,V3_108,21,Female,2025-02-06_15h30.04.077,jersey_experiment_5_v3,2023.2.2,Win32,85.47008547,,,,,,,,,,,,,,,,1205.5626,1206.8569,1206.8569,1209.1628,return,0.165,,79.42708333,,,,,,FBP-PT-81.png,0.45,1.2,25,0.5,,,,,,,,,,,,,,,,,,0,1,1,24,1,,,,,,,,,,,,,,,,,,,,,,,
,,,,,V3_108,21,Female,2025-02-06_15h30.04.077,jersey_experiment_5_v3,2023.2.2,Win32,85.47008547,,,,,,,,,,,,,,,,1209.163,1210.4697,1210.4698,1212.8809,return,0.4243,,32.03125,,,,,,FBP-PT-91.png,0.35,1.2,26,0.5,,,,,,,,,,,,,,,,,,0,2,2,25,1,,,,,,,,,,,,,,,,,,,,,,,
,,,,,V3_108,21,Female,2025-02-06_15h30.04.077,jersey_experiment_5_v3,2023.2.2,Win32,85.47008547,,,,,,,,,,,,,,,,1212.8811,1214.1746,1214.1746,1215.9394,return,0.0943,,52.08333333,,,,,,FBP-PT-81.png,0.4,1.2,23,0.5,,,,,,,,,,,,,,,,,,0,3,3,22,1,,,,,,,,,,,,,,,,,,,,,,,
,,,,,V3_108,21,Female,2025-02-06_15h30.04.077,jersey_experiment_5_v3,2023.2.2,Win32,85.47008547,,,,,,,,,,,,,,,,1215.9396,1217.2421,1217.2423,1219.3517,return,0.3535,,85.41666667,,,,,,FBP-PT-91.png,0.43,1.2,29,0.5,,,,,,,,,,,,,,,,,,0,4,4,28,1,,,,,,,,,,,,,,,,,,,,,,,
,,,,,V3_108,21,Female,2025-02-06_15h30.04.077,jersey_experiment_5_v3,2023.2.2,Win32,85.47008547,,,,,,,,,,,,,,,,1219.3518,1220.6592,1220.6592,1223.6307,return,0.1814,,49.21875,,,,,,FBP-RB-81.png,0.37,1.2,52,0.5,,,,,,,,,,,,,,,,,,0,5,5,51,1,,,,,,,,,,,,,,,,,,,,,,,
,,,,,V3_108,21,Female,2025-02-06_15h30.04.077,jersey_experiment_5_v3,2023.2.2,Win32,85.47008547,,,,,,,,,,,,,,,,1223.631,1224.9281,1224.9281,1230.3167,return,0.3535,,70.96354167,,,,,,FBP-RB-71.png,0.4,1.2,48,0.5,,,,,,,,,,,,,,,,,,0,6,6,47,1,,,,,,,,,,,,,,,,,,,,,,,
,,,,,V3_108,21,Female,2025-02-06_15h30.04.077,jersey_experiment_5_v3,2023.2.2,Win32,85.47008547,,,,,,,,,,,,,,,,1230.3168,1231.6256,1231.6256,1233.6108,return,0.4712,,82.8125,,,,,,FBP-RB-81.png,0.43,1.2,54,0.5,,,,,,,,,,,,,,,,,,0,7,7,53,1,,,,,,,,,,,,,,,,,,,,,,,
,,,,,V3_108,21,Female,2025-02-06_15h30.04.077,jersey_experiment_5_v3,2023.2.2,Win32,85.47008547,,,,,,,,,,,,,,,,1233.6109,1234.9179,1234.9179,1236.99,return,0.4003,,46.22395833,,,,,,FBP-YG-19.png,0.37,1.2,12,0.5,,,,,,,,,,,,,,,,,,0,8,8,11,1,,,,,,,,,,,,,,,,,,,,,,,
,,,,,V3_108,21,Female,2025-02-06_15h30.04.077,jersey_experiment_5_v3,2023.2.2,Win32,85.47008547,,,,,,,,,,,,,,,,1236.9901,1238.5413,1238.5413,1241.2241,return,1.284,,64.84375,,,,,,FBP-OG-91.png,0.43,1.2,44,0.75,,,,,,,,,,,,,,,,,,0,9,9,43,1,,,,,,,,,,,,,,,,,,,,,,,
,,,,,V3_108,21,Female,2025-02-06_15h30.04.077,jersey_experiment_5_v3,2023.2.2,Win32,85.47008547,,,,,,,,,,,,,,,,1241.2242,1242.5287,1242.5287,1244.2358,return,0.3278,,41.40625,,,,,,FBP-YG-18.png,0.37,1.2,7,0.5,,,,,,,,,,,,,,,,,,0,10,10,6,1,,,,,,,,,,,,,,,,,,,,,,,
,,,,,V3_108,21,Female,2025-02-06_15h30.04.077,jersey_experiment_5_v3,2023.2.2,Win32,85.47008547,,,,,,,,,,,,,,,,1244.2359,1245.7845,1245.7845,1247.6115,return,0.3297,,31.11979167,,,,,,FBP-OG-81.png,0.35,1.2,36,0.75,,,,,,,,,,,,,,,,,,0,11,11,35,1,,,,,,,,,,,,,,,,,,,,,,,
,,,,,V3_108,21,Female,2025-02-06_15h30.04.077,jersey_experiment_5_v3,2023.2.2,Win32,85.47008547,,,,,,,,,,,,,,,,1247.6116,1248.9056,1248.9056,1252.1999,return,0.9741,,72.265625,,,,,,FBP-YG-18.png,0.43,1.2,9,0.5,,,,,,,,,,,,,,,,,,0,12,12,8,1,,,,,,,,,,,,,,,,,,,,,,,
,,,,,V3_108,21,Female,2025-02-06_15h30.04.077,jersey_experiment_5_v3,2023.2.2,Win32,85.47008547,,,,,,,,,,,,,,,,1252.2,1253.7436,1253.7436,1258.403,return,0.8476,,48.046875,,,,,,FBP-OG-71.png,0.37,1.2,32,0.75,,,,,,,,,,,,,,,,,,0,13,13,31,1,,,,,,,,,,,,,,,,,,,,,,,
,,,,,V3_108,21,Female,2025-02-06_15h30.04.077,jersey_experiment_5_v3,2023.2.2,Win32,85.47008547,,,,,,,,,,,,,,,,1258.4032,1259.6964,1259.6964,1261.7417,return,0.154,,32.94270833,,,,,,FBP-YG-17.png,0.37,1.2,2,0.5,,,,,,,,,,,,,,,,,,0,14,14,1,1,,,,,,,,,,,,,,,,,,,,,,,
,,,,,V3_108,21,Female,2025-02-06_15h30.04.077,jersey_experiment_5_v3,2023.2.2,Win32,85.47008547,,,,,,,,,,,,,,,,1261.7419,1263.047,1263.047,1264.4355,return,0.2207,,42.70833333,,,,,,FBP-YG-18.png,0.4,1.2,8,0.5,,,,,,,,,,,,,,,,,,0,15,15,7,1,,,,,,,,,,,,,,,,,,,,,,,
,,,,,V3_108,21,Female,2025-02-06_15h30.04.077,jersey_experiment_5_v3,2023.2.2,Win32,85.47008547,,,,,,,,,,,,,,,,1264.4356,1265.9882,1265.9882,1267.109,return,0.2827,,34.63541667,,,,,,FBP-OG-81.png,0.37,1.2,37,0.75,,,,,,,,,,,,,,,,,,0,16,16,36,1,,,,,,,,,,,,,,,,,,,,,,,
,,,,,V3_108,21,Female,2025-02-06_15h30.04.077,jersey_experiment_5_v3,2023.2.2,Win32,85.47008547,,,,,,,,,,,,,,,,1267.1091,1268.6601,1268.6601,1270.3853,return,0.6127,,75.52083333,,,,,,FBP-OG-71.png,0.43,1.2,34,0.75,,,,,,,,,,,,,,,,,,0,17,17,33,1,,,,,,,,,,,,,,,,,,,,,,,
,,,,,V3_108,21,Female,2025-02-06_15h30.04.077,jersey_experiment_5_v3,2023.2.2,Win32,85.47008547,,,,,,,,,,,,,,,,1270.3856,1271.6826,1271.6826,1274.3182,return,1.4211,,41.27604167,,,,,,FBP-YG-18.png,0.35,1.2,6,0.5,,,,,,,,,,,,,,,,,,0,18,18,5,1,,,,,,,,,,,,,,,,,,,,,,,
,,,,,V3_108,21,Female,2025-02-06_15h30.04.077,jersey_experiment_5_v3,2023.2.2,Win32,85.47008547,,,,,,,,,,,,,,,,1274.3183,1275.6122,1275.6122,1277.1329,return,0.3085,,89.97395833,,,,,,FBP-PT-91.png,0.45,1.2,30,0.5,,,,,,,,,,,,,,,,,,0,19,19,29,1,,,,,,,,,,,,,,,,,,,,,,,
,,,,,V3_108,21,Female,2025-02-06_15h30.04.077,jersey_experiment_5_v3,2023.2.2,Win32,85.47008547,,,,,,,,,,,,,,,,1277.1331,1278.4268,1278.4268,1281.021,return,0.6293,,66.27604167,,,,,,FBP-PT-91.png,0.4,1.2,28,0.5,,,,,,,,,,,,,,,,,,0,20,20,27,1,,,,,,,,,,,,,,,,,,,,,,,
,,,,,V3_108,21,Female,2025-02-06_15h30.04.077,jersey_experiment_5_v3,2023.2.2,Win32,85.47008547,,,,,,,,,,,,,,,,1281.0213,1282.3152,1282.3152,1283.5859,return,0.1573,,94.01041667,,,,,,FBP-RB-81.png,0.45,1.2,55,0.5,,,,,,,,,,,,,,,,,,0,21,21,54,1,,,,,,,,,,,,,,,,,,,,,,,
,,,,,V3_108,21,Female,2025-02-06_15h30.04.077,jersey_experiment_5_v3,2023.2.2,Win32,85.47008547,,,,,,,,,,,,,,,,1283.5862,1284.8831,1284.8832,1286.0919,return,0.18,,78.77604167,,,,,,FBP-YG-19.png,0.45,1.2,15,0.5,,,,,,,,,,,,,,,,,,0,22,22,14,1,,,,,,,,,,,,,,,,,,,,,,,
,,,,,V3_108,21,Female,2025-02-06_15h30.04.077,jersey_experiment_5_v3,2023.2.2,Win32,85.47008547,,,,,,,,,,,,,,,,1286.0921,1287.6363,1287.6363,1288.6249,return,0.341,,88.671875,,,,,,FBP-OG-81.png,0.45,1.2,40,0.75,,,,,,,,,,,,,,,,,,0,23,23,39,1,,,,,,,,,,,,,,,,,,,,,,,
,,,,,V3_108,21,Female,2025-02-06_15h30.04.077,jersey_experiment_5_v3,2023.2.2,Win32,85.47008547,,,,,,,,,,,,,,,,1288.625,1289.9308,1289.9308,1292.2568,return,0.3317,,32.55208333,,,,,,FBP-RB-91.png,0.37,1.2,57,0.5,,,,,,,,,,,,,,,,,,0,24,24,56,1,,,,,,,,,,,,,,,,,,,,,,,
,,,,,V3_108,21,Female,2025-02-06_15h30.04.077,jersey_experiment_5_v3,2023.2.2,Win32,85.47008547,,,,,,,,,,,,,,,,1292.2571,1293.5508,1293.5509,1295.179,return,0.3304,,57.16145833,,,,,,FBP-PT-71.png,0.43,1.2,19,0.5,,,,,,,,,,,,,,,,,,0,25,25,18,1,,,,,,,,,,,,,,,,,,,,,,,
,,,,,V3_108,21,Female,2025-02-06_15h30.04.077,jersey_experiment_5_v3,2023.2.2,Win32,85.47008547,,,,,,,,,,,,,,,,1295.1791,1296.7277,1296.7278,1298.5453,return,0.5901,,74.47916667,,,,,,FBP-OG-81.png,0.43,1.2,39,0.75,,,,,,,,,,,,,,,,,,0,26,26,38,1,,,,,,,,,,,,,,,,,,,,,,,
,,,,,V3_108,21,Female,2025-02-06_15h30.04.077,jersey_experiment_5_v3,2023.2.2,Win32,85.47008547,,,,,,,,,,,,,,,,1298.5455,1299.8393,1299.8393,1303.1575,return,1.8974,,49.47916667,,,,,,FBP-YG-17.png,0.4,1.2,3,0.5,,,,,,,,,,,,,,,,,,0,27,27,2,1,,,,,,,,,,,,,,,,,,,,,,,
,,,,,V3_108,21,Female,2025-02-06_15h30.04.077,jersey_experiment_5_v3,2023.2.2,Win32,85.47008547,,,,,,,,,,,,,,,,1303.1577,1304.4505,1304.4505,1306.1456,return,0.2254,,67.70833333,,,,,,FBP-RB-71.png,0.43,1.2,49,0.5,,,,,,,,,,,,,,,,,,0,28,28,48,1,,,,,,,,,,,,,,,,,,,,,,,
,,,,,V3_108,21,Female,2025-02-06_15h30.04.077,jersey_experiment_5_v3,2023.2.2,Win32,85.47008547,,,,,,,,,,,,,,,,1306.1457,1307.6925,1307.6925,1309.2045,return,0.4148,,82.29166667,,,,,,FBP-OG-91.png,0.45,1.2,45,0.75,,,,,,,,,,,,,,,,,,0,29,29,44,1,,,,,,,,,,,,,,,,,,,,,,,
,,,,,V3_108,21,Female,2025-02-06_15h30.04.077,jersey_experiment_5_v3,2023.2.2,Win32,85.47008547,,,,,,,,,,,,,,,,1309.2046,1310.7516,1310.7516,1312.8521,return,0.3065,,76.171875,,,,,,FBP-OG-71.png,0.45,1.2,35,0.75,,,,,,,,,,,,,,,,,,0,30,30,34,1,,,,,,,,,,,,,,,,,,,,,,,
,,,,,V3_108,21,Female,2025-02-06_15h30.04.077,jersey_experiment_5_v3,2023.2.2,Win32,85.47008547,,,,,,,,,,,,,,,,1312.8523,1314.3987,1314.3988,1317.0695,return,0.276,,52.08333333,,,,,,FBP-OG-71.png,0.4,1.2,33,0.75,,,,,,,,,,,,,,,,,,0,31,31,32,1,,,,,,,,,,,,,,,,,,,,,,,
,,,,,V3_108,21,Female,2025-02-06_15h30.04.077,jersey_experiment_5_v3,2023.2.2,Win32,85.47008547,,,,,,,,,,,,,,,,1317.0697,1318.6254,1318.6254,1319.9793,return,0.3187,,46.35416667,,,,,,FBP-OG-81.png,0.4,1.2,38,0.75,,,,,,,,,,,,,,,,,,0,32,32,37,1,,,,,,,,,,,,,,,,,,,,,,,
,,,,,V3_108,21,Female,2025-02-06_15h30.04.077,jersey_experiment_5_v3,2023.2.2,Win32,85.47008547,,,,,,,,,,,,,,,,1319.9795,1321.2757,1321.2758,1324.8037,return,1.7893,,19.01041667,,,,,,FBP-RB-81.png,0.35,1.2,51,0.5,,,,,,,,,,,,,,,,,,0,33,33,50,1,,,,,,,,,,,,,,,,,,,,,,,
,,,,,V3_108,21,Female,2025-02-06_15h30.04.077,jersey_experiment_5_v3,2023.2.2,Win32,85.47008547,,,,,,,,,,,,,,,,1324.8038,1326.1082,1326.1083,1328.1442,return,0.5412,,35.15625,,,,,,FBP-RB-81.png,0.4,1.2,53,0.5,,,,,,,,,,,,,,,,,,0,34,34,52,1,,,,,,,,,,,,,,,,,,,,,,,
,,,,,V3_108,21,Female,2025-02-06_15h30.04.077,jersey_experiment_5_v3,2023.2.2,Win32,85.47008547,,,,,,,,,,,,,,,,1328.1444,1329.4494,1329.4494,1332.0267,return,0.1533,,45.3125,,,,,,FBP-RB-91.png,0.4,1.2,58,0.5,,,,,,,,,,,,,,,,,,0,35,35,57,1,,,,,,,,,,,,,,,,,,,,,,,
,,,,,V3_108,21,Female,2025-02-06_15h30.04.077,jersey_experiment_5_v3,2023.2.2,Win32,85.47008547,,,,,,,,,,,,,,,,1332.0268,1333.5759,1333.576,1335.7237,return,0.1663,,28.38541667,,,,,,FBP-OG-91.png,0.37,1.2,42,0.75,,,,,,,,,,,,,,,,,,0,36,36,41,1,,,,,,,,,,,,,,,,,,,,,,,
,,,,,V3_108,21,Female,2025-02-06_15h30.04.077,jersey_experiment_5_v3,2023.2.2,Win32,85.47008547,,,,,,,,,,,,,,,,1335.7239,1337.0232,1337.0232,1338.109,return,0.2358,,18.359375,,,,,,FBP-YG-19.png,0.35,1.2,11,0.5,,,,,,,,,,,,,,,,,,0,37,37,10,1,,,,,,,,,,,,,,,,,,,,,,,
,,,,,V3_108,21,Female,2025-02-06_15h30.04.077,jersey_experiment_5_v3,2023.2.2,Win32,85.47008547,,,,,,,,,,,,,,,,1338.1092,1339.4028,1339.4028,1340.9916,return,0.2479,,87.5,,,,,,FBP-RB-91.png,0.43,1.2,59,0.5,,,,,,,,,,,,,,,,,,0,38,38,58,1,,,,,,,,,,,,,,,,,,,,,,,
,,,,,V3_108,21,Female,2025-02-06_15h30.04.077,jersey_experiment_5_v3,2023.2.2,Win32,85.47008547,,,,,,,,,,,,,,,,1340.9917,1342.2937,1342.2938,1343.6617,return,0.6825,,91.92708333,,,,,,FBP-YG-17.png,0.45,1.2,5,0.5,,,,,,,,,,,,,,,,,,0,39,39,4,1,,,,,,,,,,,,,,,,,,,,,,,
,,,,,V3_108,21,Female,2025-02-06_15h30.04.077,jersey_experiment_5_v3,2023.2.2,Win32,85.47008547,,,,,,,,,,,,,,,,1343.6618,1344.9563,1344.9563,1347.0505,return,0.6222,,37.5,,,,,,FBP-PT-71.png,0.37,1.2,17,0.5,,,,,,,,,,,,,,,,,,0,40,40,16,1,,,,,,,,,,,,,,,,,,,,,,,
,,,,,V3_108,21,Female,2025-02-06_15h30.04.077,jersey_experiment_5_v3,2023.2.2,Win32,85.47008547,,,,,,,,,,,,,,,,1347.0507,1348.5945,1348.5945,1349.5564,return,0.1857,,42.44791667,,,,,,FBP-OG-91.png,0.4,1.2,43,0.75,,,,,,,,,,,,,,,,,,0,41,41,42,1,,,,,,,,,,,,,,,,,,,,,,,
,,,,,V3_108,21,Female,2025-02-06_15h30.04.077,jersey_experiment_5_v3,2023.2.2,Win32,85.47008547,,,,,,,,,,,,,,,,1349.5565,1350.8617,1350.8617,1352.4943,return,0.5312,,39.84375,,,,,,FBP-PT-81.png,0.37,1.2,22,0.5,,,,,,,,,,,,,,,,,,0,42,42,21,1,,,,,,,,,,,,,,,,,,,,,,,
,,,,,V3_108,21,Female,2025-02-06_15h30.04.077,jersey_experiment_5_v3,2023.2.2,Win32,85.47008547,,,,,,,,,,,,,,,,1352.4945,1353.7884,1353.7884,1355.8734,return,0.5024,,81.640625,,,,,,FBP-RB-71.png,0.45,1.2,50,0.5,,,,,,,,,,,,,,,,,,0,43,43,49,1,,,,,,,,,,,,,,,,,,,,,,,
,,,,,V3_108,21,Female,2025-02-06_15h30.04.077,jersey_experiment_5_v3,2023.2.2,Win32,85.47008547,,,,,,,,,,,,,,,,1355.8735,1357.1681,1357.1681,1358.6827,return,0.2297,,90.234375,,,,,,FBP-PT-71.png,0.45,1.2,20,0.5,,,,,,,,,,,,,,,,,,0,44,44,19,1,,,,,,,,,,,,,,,,,,,,,,,
,,,,,V3_108,21,Female,2025-02-06_15h30.04.077,jersey_experiment_5_v3,2023.2.2,Win32,85.47008547,,,,,,,,,,,,,,,,1358.683,1360.2272,1360.2272,1363.9684,return,0.7533,,30.46875,,,,,,FBP-OG-71.png,0.35,1.2,31,0.75,,,,,,,,,,,,,,,,,,0,45,45,30,1,,,,,,,,,,,,,,,,,,,,,,,
,,,,,V3_108,21,Female,2025-02-06_15h30.04.077,jersey_experiment_5_v3,2023.2.2,Win32,85.47008547,,,,,,,,,,,,,,,,1363.9687,1365.2628,1365.2628,1367.8243,return,0.8718,,12.76041667,,,,,,FBP-YG-17.png,0.35,1.2,1,0.5,,,,,,,,,,,,,,,,,,0,46,46,0,1,,,,,,,,,,,,,,,,,,,,,,,
,,,,,V3_108,21,Female,2025-02-06_15h30.04.077,jersey_experiment_5_v3,2023.2.2,Win32,85.47008547,,,,,,,,,,,,,,,,1367.8245,1369.1216,1369.1216,1374.2041,return,3.4678,,76.953125,,,,,,FBP-RB-91.png,0.45,1.2,60,0.5,,,,,,,,,,,,,,,,,,0,47,47,59,1,,,,,,,,,,,,,,,,,,,,,,,
,,,,,V3_108,21,Female,2025-02-06_15h30.04.077,jersey_experiment_5_v3,2023.2.2,Win32,85.47008547,,,,,,,,,,,,,,,,1374.2043,1375.5102,1375.5103,1378.5015,return,0.659,,53.38541667,,,,,,FBP-YG-19.png,0.4,1.2,13,0.5,,,,,,,,,,,,,,,,,,0,48,48,12,1,,,,,,,,,,,,,,,,,,,,,,,
,,,,,V3_108,21,Female,2025-02-06_15h30.04.077,jersey_experiment_5_v3,2023.2.2,Win32,85.47008547,,,,,,,,,,,,,,,,1378.5017,1379.8041,1379.8041,1384.0166,return,0.6125,,53.77604167,,,,,,FBP-PT-71.png,0.4,1.2,18,0.5,,,,,,,,,,,,,,,,,,0,49,49,17,1,,,,,,,,,,,,,,,,,,,,,,,
,,,,,V3_108,21,Female,2025-02-06_15h30.04.077,jersey_experiment_5_v3,2023.2.2,Win32,85.47008547,,,,,,,,,,,,,,,,1384.0167,1385.3106,1385.3106,1388.04,return,0.6591,,59.11458333,,,,,,FBP-YG-19.png,0.43,1.2,14,0.5,,,,,,,,,,,,,,,,,,0,50,50,13,1,,,,,,,,,,,,,,,,,,,,,,,
,,,,,V3_108,21,Female,2025-02-06_15h30.04.077,jersey_experiment_5_v3,2023.2.2,Win32,85.47008547,,,,,,,,,,,,,,,,1388.0401,1389.3339,1389.334,1391.772,return,1.0263,,32.03125,,,,,,FBP-RB-71.png,0.35,1.2,46,0.5,,,,,,,,,,,,,,,,,,0,51,51,45,1,,,,,,,,,,,,,,,,,,,,,,,
,,,,,V3_108,21,Female,2025-02-06_15h30.04.077,jersey_experiment_5_v3,2023.2.2,Win32,85.47008547,,,,,,,,,,,,,,,,1391.7721,1393.0662,1393.0662,1395.6136,return,0.6995,,22.39583333,,,,,,FBP-RB-91.png,0.35,1.2,56,0.5,,,,,,,,,,,,,,,,,,0,52,52,55,1,,,,,,,,,,,,,,,,,,,,,,,
,,,,,V3_108,21,Female,2025-02-06_15h30.04.077,jersey_experiment_5_v3,2023.2.2,Win32,85.47008547,,,,,,,,,,,,,,,,1395.6138,1396.9078,1396.9078,1398.9112,return,0.7631,,26.30208333,,,,,,FBP-RB-71.png,0.37,1.2,47,0.5,,,,,,,,,,,,,,,,,,0,53,53,46,1,,,,,,,,,,,,,,,,,,,,,,,
,,,,,V3_108,21,Female,2025-02-06_15h30.04.077,jersey_experiment_5_v3,2023.2.2,Win32,85.47008547,,,,,,,,,,,,,,,,1398.9113,1400.205,1400.2051,1402.6889,return,0.9076,,73.17708333,,,,,,FBP-PT-81.png,0.43,1.2,24,0.5,,,,,,,,,,,,,,,,,,0,54,54,23,1,,,,,,,,,,,,,,,,,,,,,,,
,,,,,V3_108,21,Female,2025-02-06_15h30.04.077,jersey_experiment_5_v3,2023.2.2,Win32,85.47008547,,,,,,,,,,,,,,,,1402.689,1403.9821,1403.9822,1406.0963,return,0.7401,,81.640625,,,,,,FBP-YG-18.png,0.45,1.2,10,0.5,,,,,,,,,,,,,,,,,,0,55,55,9,1,,,,,,,,,,,,,,,,,,,,,,,
,,,,,V3_108,21,Female,2025-02-06_15h30.04.077,jersey_experiment_5_v3,2023.2.2,Win32,85.47008547,,,,,,,,,,,,,,,,1406.0965,1407.3938,1407.3939,1410.3199,return,1.5453,,69.27083333,,,,,,FBP-YG-17.png,0.43,1.2,4,0.5,,,,,,,,,,,,,,,,,,0,56,56,3,1,,,,,,,,,,,,,,,,,,,,,,,
,,,,,V3_108,21,Female,2025-02-06_15h30.04.077,jersey_experiment_5_v3,2023.2.2,Win32,85.47008547,,,,,,,,,,,,,,,,1410.3202,1411.617,1411.617,1416.4174,return,3.2945,,35.546875,,,,,,FBP-PT-71.png,0.35,1.2,16,0.5,,,,,,,,,,,,,,,,,,0,57,57,15,1,,,,,,,,,,,,,,,,,,,,,,,
,,,,,V3_108,21,Female,2025-02-06_15h30.04.077,jersey_experiment_5_v3,2023.2.2,Win32,85.47008547,,,,,,,,,,,,,,,,1416.4176,1417.7115,1417.7115,1420.4648,return,1.4594,,26.30208333,,,,,,FBP-PT-81.png,0.35,1.2,21,0.5,,,,,,,,,,,,,,,,,,0,58,58,20,1,,,,,,,,,,,,,,,,,,,,,,,
,,,,,V3_108,21,Female,2025-02-06_15h30.04.077,jersey_experiment_5_v3,2023.2.2,Win32,85.47008547,,,,,,,,,,,,,,,,1420.4649,1422.0172,1422.0172,1424.3123,return,1.0243,,22.65625,,,,,,FBP-OG-91.png,0.35,1.2,41,0.75,,,,,,,,,,,,,,,,,,0,59,59,40,1,,,,,,,,,,,,,,,,,,,,,,,
,,,,,V3_108,21,Female,2025-02-06_15h30.04.077,jersey_experiment_5_v3,2023.2.2,Win32,85.47008547,,,,,,,,,,,,,,,,,,,,,,,,,,,,,,,,,,,,,,,,,,,,,,,,,,,,,,,,1424.3125,1427.7593,return,3.4357,,,,,,,,,,,,,,,,,,,
,,,,,V3_108,21,Female,2025-02-06_15h30.04.077,jersey_experiment_5_v3,2023.2.2,Win32,85.47008547,,,,,,,,,,,,,,,,,,,,,,,,,,,,,,,,,,,,,,,,,,,,,,,,,,,,,,,,,,,,,1427.7594,1432.7004,1,3.3165,return,1.6084,,,,,,,,,,,,
,,,,,V3_108,21,Female,2025-02-06_15h30.04.077,jersey_experiment_5_v3,2023.2.2,Win32,85.47008547,,,,,,,,,,,,,,,,,,,,,,,,,,,,,,,,,,,,,,,,,,,,,,,,,,,,,,,,,,,,,,,,,,,,1432.7005,1459.3458,Numbers & colors related to perception,right,18.2381,,,,,,
,,,,,V3_108,21,Female,2025-02-06_15h30.04.077,jersey_experiment_5_v3,2023.2.2,Win32,85.47008547,,,,,,,,,,,,,,,,,,,,,,,,,,,,,,,,,,,,,,,,,,,,,,,,,,,,,,,,,,,,,,,,,,,,,,,,,,1459.3459,1462.7957,return,3.4354,