requirements.started,requirements.stopped,key_resp_3.keys,key_resp_3.rt,key_resp_3.duration,Subject ID,Age,Gender,date,expName,psychopyVersion,OS,frameRate,instructions1.started,instructions1.stopped,key_resp.keys,key_resp.rt,key_resp.duration,example.started,example.stopped,enter_2.keys,enter_2.rt,enter_2.duration,instructions2.started,instructions2.stopped,enter_3.keys,enter_3.rt,enter_3.duration,image.started,image.stopped,slider_2.started,slider_2.stopped,next.keys,next.rt,next.duration,slider.response,trial_block_1.thisRepN,trial_block_1.thisTrialN,trial_block_1.thisN,trial_block_1.thisIndex,trial_block_1.ran,Path,Width,Height,Index,Duration,trial_block_2.thisRepN,trial_block_2.thisTrialN,trial_block_2.thisN,trial_block_2.thisIndex,trial_block_2.ran,rest_break.started,rest_break.stopped,end_break.started,end_break.stopped,key_resp_5.keys,key_resp_5.rt,key_resp_5.duration,trial_block_3.thisRepN,trial_block_3.thisTrialN,trial_block_3.thisN,trial_block_3.thisIndex,trial_block_3.ran,trial_block_4.thisRepN,trial_block_4.thisTrialN,trial_block_4.thisN,trial_block_4.thisIndex,trial_block_4.ran,questions_intro.started,questions_intro.stopped,enter_12.keys,enter_12.rt,enter_12.duration,question2.started,question2.stopped,question_doingbest.response,question_doingbest.rt,enter_15.keys,enter_15.rt,enter_15.duration,pattern.started,pattern.stopped,pattern_2.text,enter_17.keys,enter_17.rt,enter_17.duration,thankyou.started,thankyou.stopped,enter_14.keys,enter_14.rt,enter_14.duration
0,8.5982,return,8.5938,,V3_100,20,Female,2025-02-04_14h58.22.548,jersey_experiment_5_v3,2023.2.2,Win32,84.74576271,,,,,,,,,,,,,,,,,,,,,,,,,,,,,,,,,,,,,,,,,,,,,,,,,,,,,,,,,,,,,,,,,,,,,,,,,,,,,,
,,,,,V3_100,20,Female,2025-02-04_14h58.22.548,jersey_experiment_5_v3,2023.2.2,Win32,84.74576271,8.5983,28.9396,return,20.3304,,,,,,,,,,,,,,,,,,,,,,,,,,,,,,,,,,,,,,,,,,,,,,,,,,,,,,,,,,,,,,,,,,,,,,,,,,
,,,,,V3_100,20,Female,2025-02-04_14h58.22.548,jersey_experiment_5_v3,2023.2.2,Win32,84.74576271,,,,,,28.9398,33.2184,return,4.2441,,,,,,,,,,,,,,,,,,,,,,,,,,,,,,,,,,,,,,,,,,,,,,,,,,,,,,,,,,,,,,,,,,,,,
,,,,,V3_100,20,Female,2025-02-04_14h58.22.548,jersey_experiment_5_v3,2023.2.2,Win32,84.74576271,,,,,,,,,,,33.2185,50.2544,return,17.0304,,,,,,,,,,,,,,,,,,,,,,,,,,,,,,,,,,,,,,,,,,,,,,,,,,,,,,,,,,,,,,,,
,,,,,V3_100,20,Female,2025-02-04_14h58.22.548,jersey_experiment_5_v3,2023.2.2,Win32,84.74576271,,,,,,,,,,,,,,,,50.2565,51.8073,51.8074,68.008,return,12.9184,,74.34895833,0,0,0,49,1,FBP-RB-17.png,0.45,1.2,50,0.75,,,,,,,,,,,,,,,,,,,,,,,,,,,,,,,,,,,,,,,,,,,,,
,,,,,V3_100,20,Female,2025-02-04_14h58.22.548,jersey_experiment_5_v3,2023.2.2,Win32,84.74576271,,,,,,,,,,,,,,,,68.0083,69.5609,69.561,72.7727,return,1.1556,,99.34895833,0,1,1,59,1,FBP-RB-19.png,0.45,1.2,60,0.75,,,,,,,,,,,,,,,,,,,,,,,,,,,,,,,,,,,,,,,,,,,,,
,,,,,V3_100,20,Female,2025-02-04_14h58.22.548,jersey_experiment_5_v3,2023.2.2,Win32,84.74576271,,,,,,,,,,,,,,,,72.7729,74.3256,74.3257,77.0083,return,1.0294,,99.609375,0,2,2,14,1,FBP-YG-91.png,0.45,1.2,15,0.75,,,,,,,,,,,,,,,,,,,,,,,,,,,,,,,,,,,,,,,,,,,,,
,,,,,V3_100,20,Female,2025-02-04_14h58.22.548,jersey_experiment_5_v3,2023.2.2,Win32,84.74576271,,,,,,,,,,,,,,,,77.0086,78.5611,78.5611,81.8321,return,1.0089,,25,0,3,3,0,1,FBP-YG-71.png,0.35,1.2,1,0.75,,,,,,,,,,,,,,,,,,,,,,,,,,,,,,,,,,,,,,,,,,,,,
,,,,,V3_100,20,Female,2025-02-04_14h58.22.548,jersey_experiment_5_v3,2023.2.2,Win32,84.74576271,,,,,,,,,,,,,,,,81.8324,83.3849,83.385,86.6087,return,1.9234,,90.75520833,0,4,4,58,1,FBP-RB-19.png,0.43,1.2,59,0.75,,,,,,,,,,,,,,,,,,,,,,,,,,,,,,,,,,,,,,,,,,,,,
,,,,,V3_100,20,Female,2025-02-04_14h58.22.548,jersey_experiment_5_v3,2023.2.2,Win32,84.74576271,,,,,,,,,,,,,,,,86.6089,88.1616,88.1617,90.8559,return,1.0674,,49.73958333,0,5,5,16,1,FBP-PT-17.png,0.37,1.2,17,0.75,,,,,,,,,,,,,,,,,,,,,,,,,,,,,,,,,,,,,,,,,,,,,
,,,,,V3_100,20,Female,2025-02-04_14h58.22.548,jersey_experiment_5_v3,2023.2.2,Win32,84.74576271,,,,,,,,,,,,,,,,90.8561,92.4087,92.4088,97.8325,return,3.9937,,36.58854167,0,6,6,15,1,FBP-PT-17.png,0.35,1.2,16,0.75,,,,,,,,,,,,,,,,,,,,,,,,,,,,,,,,,,,,,,,,,,,,,
,,,,,V3_100,20,Female,2025-02-04_14h58.22.548,jersey_experiment_5_v3,2023.2.2,Win32,84.74576271,,,,,,,,,,,,,,,,97.8327,99.3855,99.3855,102.0561,return,1.093,,58.984375,0,7,7,20,1,FBP-PT-18.png,0.35,1.2,21,0.75,,,,,,,,,,,,,,,,,,,,,,,,,,,,,,,,,,,,,,,,,,,,,
,,,,,V3_100,20,Female,2025-02-04_14h58.22.548,jersey_experiment_5_v3,2023.2.2,Win32,84.74576271,,,,,,,,,,,,,,,,102.0564,103.6092,103.6092,104.8211,return,0.518,,59.11458333,0,8,8,55,1,FBP-RB-19.png,0.35,1.2,56,0.75,,,,,,,,,,,,,,,,,,,,,,,,,,,,,,,,,,,,,,,,,,,,,
,,,,,V3_100,20,Female,2025-02-04_14h58.22.548,jersey_experiment_5_v3,2023.2.2,Win32,84.74576271,,,,,,,,,,,,,,,,104.8213,106.3741,106.3742,108.7976,return,1.1583,,91.92708333,0,9,9,57,1,FBP-RB-19.png,0.4,1.2,58,0.75,,,,,,,,,,,,,,,,,,,,,,,,,,,,,,,,,,,,,,,,,,,,,
,,,,,V3_100,20,Female,2025-02-04_14h58.22.548,jersey_experiment_5_v3,2023.2.2,Win32,84.74576271,,,,,,,,,,,,,,,,108.7979,110.351,110.351,120.163,return,3.1554,,47.78645833,0,10,10,10,1,FBP-YG-91.png,0.35,1.2,11,0.75,,,,,,,,,,,,,,,,,,,,,,,,,,,,,,,,,,,,,,,,,,,,,
,,,,,V3_100,20,Female,2025-02-04_14h58.22.548,jersey_experiment_5_v3,2023.2.2,Win32,84.74576271,,,,,,,,,,,,,,,,120.1632,121.7159,121.7159,126.0455,return,2.8209,,94.01041667,0,11,11,17,1,FBP-PT-17.png,0.4,1.2,18,0.75,,,,,,,,,,,,,,,,,,,,,,,,,,,,,,,,,,,,,,,,,,,,,
,,,,,V3_100,20,Female,2025-02-04_14h58.22.548,jersey_experiment_5_v3,2023.2.2,Win32,84.74576271,,,,,,,,,,,,,,,,126.0457,127.5985,127.5985,130.6457,return,0.7401,,46.61458333,0,12,12,25,1,FBP-PT-19.png,0.35,1.2,26,0.75,,,,,,,,,,,,,,,,,,,,,,,,,,,,,,,,,,,,,,,,,,,,,
,,,,,V3_100,20,Female,2025-02-04_14h58.22.548,jersey_experiment_5_v3,2023.2.2,Win32,84.74576271,,,,,,,,,,,,,,,,130.646,132.1987,132.1988,134.5516,return,0.6461,,99.86979167,0,13,13,3,1,FBP-YG-71.png,0.43,1.2,4,0.75,,,,,,,,,,,,,,,,,,,,,,,,,,,,,,,,,,,,,,,,,,,,,
,,,,,V3_100,20,Female,2025-02-04_14h58.22.548,jersey_experiment_5_v3,2023.2.2,Win32,84.74576271,,,,,,,,,,,,,,,,134.5519,136.1046,136.1047,142.3285,return,4.1911,,99.47916667,0,14,14,23,1,FBP-PT-18.png,0.43,1.2,24,0.75,,,,,,,,,,,,,,,,,,,,,,,,,,,,,,,,,,,,,,,,,,,,,
,,,,,V3_100,20,Female,2025-02-04_14h58.22.548,jersey_experiment_5_v3,2023.2.2,Win32,84.74576271,,,,,,,,,,,,,,,,142.3286,143.6225,143.6226,145.7168,return,0.5099,,99.34895833,0,15,15,38,1,FBP-OG-18.png,0.43,1.2,39,0.5,,,,,,,,,,,,,,,,,,,,,,,,,,,,,,,,,,,,,,,,,,,,,
,,,,,V3_100,20,Female,2025-02-04_14h58.22.548,jersey_experiment_5_v3,2023.2.2,Win32,84.74576271,,,,,,,,,,,,,,,,145.7169,147.2696,147.2697,148.9757,return,0.5007,,99.73958333,0,16,16,29,1,FBP-PT-19.png,0.45,1.2,30,0.75,,,,,,,,,,,,,,,,,,,,,,,,,,,,,,,,,,,,,,,,,,,,,
,,,,,V3_100,20,Female,2025-02-04_14h58.22.548,jersey_experiment_5_v3,2023.2.2,Win32,84.74576271,,,,,,,,,,,,,,,,148.9759,150.5286,150.5286,155.2346,return,3.1568,,24.08854167,0,17,17,45,1,FBP-RB-17.png,0.35,1.2,46,0.75,,,,,,,,,,,,,,,,,,,,,,,,,,,,,,,,,,,,,,,,,,,,,
,,,,,V3_100,20,Female,2025-02-04_14h58.22.548,jersey_experiment_5_v3,2023.2.2,Win32,84.74576271,,,,,,,,,,,,,,,,155.235,156.5289,156.5289,158.3878,return,0.3085,,27.08333333,0,18,18,41,1,FBP-OG-19.png,0.37,1.2,42,0.5,,,,,,,,,,,,,,,,,,,,,,,,,,,,,,,,,,,,,,,,,,,,,
,,,,,V3_100,20,Female,2025-02-04_14h58.22.548,jersey_experiment_5_v3,2023.2.2,Win32,84.74576271,,,,,,,,,,,,,,,,158.3881,159.941,159.9411,162.9292,return,1.8736,,95.83333333,0,19,19,13,1,FBP-YG-91.png,0.43,1.2,14,0.75,,,,,,,,,,,,,,,,,,,,,,,,,,,,,,,,,,,,,,,,,,,,,
,,,,,V3_100,20,Female,2025-02-04_14h58.22.548,jersey_experiment_5_v3,2023.2.2,Win32,84.74576271,,,,,,,,,,,,,,,,162.9295,164.4821,164.4821,166.2705,return,0.3689,,29.55729167,0,20,20,26,1,FBP-PT-19.png,0.37,1.2,27,0.75,,,,,,,,,,,,,,,,,,,,,,,,,,,,,,,,,,,,,,,,,,,,,
,,,,,V3_100,20,Female,2025-02-04_14h58.22.548,jersey_experiment_5_v3,2023.2.2,Win32,84.74576271,,,,,,,,,,,,,,,,166.2707,167.8234,167.8235,169.6709,return,0.2617,,26.953125,0,21,21,51,1,FBP-RB-18.png,0.37,1.2,52,0.75,,,,,,,,,,,,,,,,,,,,,,,,,,,,,,,,,,,,,,,,,,,,,
,,,,,V3_100,20,Female,2025-02-04_14h58.22.548,jersey_experiment_5_v3,2023.2.2,Win32,84.74576271,,,,,,,,,,,,,,,,169.6711,171.2238,171.2238,172.8825,return,0.6271,,75.65104167,0,22,22,12,1,FBP-YG-91.png,0.4,1.2,13,0.75,,,,,,,,,,,,,,,,,,,,,,,,,,,,,,,,,,,,,,,,,,,,,
,,,,,V3_100,20,Female,2025-02-04_14h58.22.548,jersey_experiment_5_v3,2023.2.2,Win32,84.74576271,,,,,,,,,,,,,,,,172.8827,174.1767,174.1768,175.5886,return,0.2252,,99.609375,0,23,23,39,1,FBP-OG-18.png,0.45,1.2,40,0.5,,,,,,,,,,,,,,,,,,,,,,,,,,,,,,,,,,,,,,,,,,,,,
,,,,,V3_100,20,Female,2025-02-04_14h58.22.548,jersey_experiment_5_v3,2023.2.2,Win32,84.74576271,,,,,,,,,,,,,,,,175.5887,176.8826,176.8827,179.577,return,0.2595,,63.15104167,0,24,24,37,1,FBP-OG-18.png,0.4,1.2,38,0.5,,,,,,,,,,,,,,,,,,,,,,,,,,,,,,,,,,,,,,,,,,,,,
,,,,,V3_100,20,Female,2025-02-04_14h58.22.548,jersey_experiment_5_v3,2023.2.2,Win32,84.74576271,,,,,,,,,,,,,,,,179.5773,181.1299,181.1299,182.8006,return,0.2413,,67.31770833,0,25,25,27,1,FBP-PT-19.png,0.4,1.2,28,0.75,,,,,,,,,,,,,,,,,,,,,,,,,,,,,,,,,,,,,,,,,,,,,
,,,,,V3_100,20,Female,2025-02-04_14h58.22.548,jersey_experiment_5_v3,2023.2.2,Win32,84.74576271,,,,,,,,,,,,,,,,182.8009,184.0946,184.0946,185.6359,return,0.5649,,97.52604167,0,26,26,43,1,FBP-OG-19.png,0.43,1.2,44,0.5,,,,,,,,,,,,,,,,,,,,,,,,,,,,,,,,,,,,,,,,,,,,,
,,,,,V3_100,20,Female,2025-02-04_14h58.22.548,jersey_experiment_5_v3,2023.2.2,Win32,84.74576271,,,,,,,,,,,,,,,,185.6362,186.9301,186.9302,187.9184,return,0.193,,99.86979167,0,27,27,34,1,FBP-OG-17.png,0.45,1.2,35,0.5,,,,,,,,,,,,,,,,,,,,,,,,,,,,,,,,,,,,,,,,,,,,,
,,,,,V3_100,20,Female,2025-02-04_14h58.22.548,jersey_experiment_5_v3,2023.2.2,Win32,84.74576271,,,,,,,,,,,,,,,,187.9187,189.4713,189.4714,193.2833,return,2.1873,,46.875,0,28,28,11,1,FBP-YG-91.png,0.37,1.2,12,0.75,,,,,,,,,,,,,,,,,,,,,,,,,,,,,,,,,,,,,,,,,,,,,
,,,,,V3_100,20,Female,2025-02-04_14h58.22.548,jersey_experiment_5_v3,2023.2.2,Win32,84.74576271,,,,,,,,,,,,,,,,193.2837,194.5773,194.5774,197.1423,return,1.2624,,39.0625,0,29,29,31,1,FBP-OG-17.png,0.37,1.2,32,0.5,,,,,,,,,,,,,,,,,,,,,,,,,,,,,,,,,,,,,,,,,,,,,
,,,,,V3_100,20,Female,2025-02-04_14h58.22.548,jersey_experiment_5_v3,2023.2.2,Win32,84.74576271,,,,,,,,,,,,,,,,197.1425,198.6953,198.6954,201.766,return,1.3035,,57.94270833,0,30,30,7,1,FBP-YG-81.png,0.4,1.2,8,0.75,,,,,,,,,,,,,,,,,,,,,,,,,,,,,,,,,,,,,,,,,,,,,
,,,,,V3_100,20,Female,2025-02-04_14h58.22.548,jersey_experiment_5_v3,2023.2.2,Win32,84.74576271,,,,,,,,,,,,,,,,201.7663,203.3189,203.3189,207.4956,return,1.2364,,39.453125,0,31,31,6,1,FBP-YG-81.png,0.37,1.2,7,0.75,,,,,,,,,,,,,,,,,,,,,,,,,,,,,,,,,,,,,,,,,,,,,
,,,,,V3_100,20,Female,2025-02-04_14h58.22.548,jersey_experiment_5_v3,2023.2.2,Win32,84.74576271,,,,,,,,,,,,,,,,207.4958,209.0486,209.0486,210.8839,return,0.752,,36.84895833,0,32,32,1,1,FBP-YG-71.png,0.37,1.2,2,0.75,,,,,,,,,,,,,,,,,,,,,,,,,,,,,,,,,,,,,,,,,,,,,
,,,,,V3_100,20,Female,2025-02-04_14h58.22.548,jersey_experiment_5_v3,2023.2.2,Win32,84.74576271,,,,,,,,,,,,,,,,210.8842,212.437,212.437,215.2017,return,1.0011,,61.71875,0,33,33,2,1,FBP-YG-71.png,0.4,1.2,3,0.75,,,,,,,,,,,,,,,,,,,,,,,,,,,,,,,,,,,,,,,,,,,,,
,,,,,V3_100,20,Female,2025-02-04_14h58.22.548,jersey_experiment_5_v3,2023.2.2,Win32,84.74576271,,,,,,,,,,,,,,,,215.202,216.7547,216.7547,218.9784,return,1.1215,,80.33854167,0,34,34,28,1,FBP-PT-19.png,0.43,1.2,29,0.75,,,,,,,,,,,,,,,,,,,,,,,,,,,,,,,,,,,,,,,,,,,,,
,,,,,V3_100,20,Female,2025-02-04_14h58.22.548,jersey_experiment_5_v3,2023.2.2,Win32,84.74576271,,,,,,,,,,,,,,,,218.9786,220.5314,220.5314,221.9197,return,0.2537,,96.875,0,35,35,18,1,FBP-PT-17.png,0.43,1.2,19,0.75,,,,,,,,,,,,,,,,,,,,,,,,,,,,,,,,,,,,,,,,,,,,,
,,,,,V3_100,20,Female,2025-02-04_14h58.22.548,jersey_experiment_5_v3,2023.2.2,Win32,84.74576271,,,,,,,,,,,,,,,,221.92,223.2137,223.2139,225.0257,return,0.45,,7.552083333,0,36,36,35,1,FBP-OG-18.png,0.35,1.2,36,0.5,,,,,,,,,,,,,,,,,,,,,,,,,,,,,,,,,,,,,,,,,,,,,
,,,,,V3_100,20,Female,2025-02-04_14h58.22.548,jersey_experiment_5_v3,2023.2.2,Win32,84.74576271,,,,,,,,,,,,,,,,225.0259,226.3198,226.3199,227.767,return,0.2589,,5.598958333,0,37,37,40,1,FBP-OG-19.png,0.35,1.2,41,0.5,,,,,,,,,,,,,,,,,,,,,,,,,,,,,,,,,,,,,,,,,,,,,
,,,,,V3_100,20,Female,2025-02-04_14h58.22.548,jersey_experiment_5_v3,2023.2.2,Win32,84.74576271,,,,,,,,,,,,,,,,227.7672,229.3199,229.3199,230.7554,return,0.3794,,50,0,38,38,22,1,FBP-PT-18.png,0.4,1.2,23,0.75,,,,,,,,,,,,,,,,,,,,,,,,,,,,,,,,,,,,,,,,,,,,,
,,,,,V3_100,20,Female,2025-02-04_14h58.22.548,jersey_experiment_5_v3,2023.2.2,Win32,84.74576271,,,,,,,,,,,,,,,,230.7556,232.3082,232.3082,233.6143,return,0.2397,,49.73958333,0,39,39,52,1,FBP-RB-18.png,0.4,1.2,53,0.75,,,,,,,,,,,,,,,,,,,,,,,,,,,,,,,,,,,,,,,,,,,,,
,,,,,V3_100,20,Female,2025-02-04_14h58.22.548,jersey_experiment_5_v3,2023.2.2,Win32,84.74576271,,,,,,,,,,,,,,,,233.6146,235.1674,235.1674,236.7908,return,0.7062,,24.34895833,0,40,40,5,1,FBP-YG-81.png,0.35,1.2,6,0.75,,,,,,,,,,,,,,,,,,,,,,,,,,,,,,,,,,,,,,,,,,,,,
,,,,,V3_100,20,Female,2025-02-04_14h58.22.548,jersey_experiment_5_v3,2023.2.2,Win32,84.74576271,,,,,,,,,,,,,,,,236.7911,238.344,238.344,240.1791,return,0.3538,,98.95833333,0,41,41,24,1,FBP-PT-18.png,0.45,1.2,25,0.75,,,,,,,,,,,,,,,,,,,,,,,,,,,,,,,,,,,,,,,,,,,,,
,,,,,V3_100,20,Female,2025-02-04_14h58.22.548,jersey_experiment_5_v3,2023.2.2,Win32,84.74576271,,,,,,,,,,,,,,,,240.1794,241.4733,241.4733,242.4615,return,0.185,,99.73958333,0,42,42,44,1,FBP-OG-19.png,0.45,1.2,45,0.5,,,,,,,,,,,,,,,,,,,,,,,,,,,,,,,,,,,,,,,,,,,,,
,,,,,V3_100,20,Female,2025-02-04_14h58.22.548,jersey_experiment_5_v3,2023.2.2,Win32,84.74576271,,,,,,,,,,,,,,,,242.4617,244.0147,244.0148,245.6854,return,0.4704,,24.86979167,0,43,43,50,1,FBP-RB-18.png,0.35,1.2,51,0.75,,,,,,,,,,,,,,,,,,,,,,,,,,,,,,,,,,,,,,,,,,,,,
,,,,,V3_100,20,Female,2025-02-04_14h58.22.548,jersey_experiment_5_v3,2023.2.2,Win32,84.74576271,,,,,,,,,,,,,,,,245.6857,246.9794,246.9794,248.6737,return,0.4953,,24.73958333,0,44,44,30,1,FBP-OG-17.png,0.35,1.2,31,0.5,,,,,,,,,,,,,,,,,,,,,,,,,,,,,,,,,,,,,,,,,,,,,
,,,,,V3_100,20,Female,2025-02-04_14h58.22.548,jersey_experiment_5_v3,2023.2.2,Win32,84.74576271,,,,,,,,,,,,,,,,248.6739,250.2266,250.2266,251.6031,return,0.3325,,99.21875,0,45,45,9,1,FBP-YG-81.png,0.45,1.2,10,0.75,,,,,,,,,,,,,,,,,,,,,,,,,,,,,,,,,,,,,,,,,,,,,
,,,,,V3_100,20,Female,2025-02-04_14h58.22.548,jersey_experiment_5_v3,2023.2.2,Win32,84.74576271,,,,,,,,,,,,,,,,251.6035,253.1561,253.1562,254.5328,return,0.4627,,99.21875,0,46,46,19,1,FBP-PT-17.png,0.45,1.2,20,0.75,,,,,,,,,,,,,,,,,,,,,,,,,,,,,,,,,,,,,,,,,,,,,
,,,,,V3_100,20,Female,2025-02-04_14h58.22.548,jersey_experiment_5_v3,2023.2.2,Win32,84.74576271,,,,,,,,,,,,,,,,254.533,256.0857,256.0857,257.2505,return,0.3177,,99.86979167,0,47,47,53,1,FBP-RB-18.png,0.43,1.2,54,0.75,,,,,,,,,,,,,,,,,,,,,,,,,,,,,,,,,,,,,,,,,,,,,
,,,,,V3_100,20,Female,2025-02-04_14h58.22.548,jersey_experiment_5_v3,2023.2.2,Win32,84.74576271,,,,,,,,,,,,,,,,257.2508,258.5446,258.5446,261.1683,return,0.9434,,25.390625,0,48,48,36,1,FBP-OG-18.png,0.37,1.2,37,0.5,,,,,,,,,,,,,,,,,,,,,,,,,,,,,,,,,,,,,,,,,,,,,
,,,,,V3_100,20,Female,2025-02-04_14h58.22.548,jersey_experiment_5_v3,2023.2.2,Win32,84.74576271,,,,,,,,,,,,,,,,261.1685,262.4624,262.4624,264.9802,return,1.31,,49.86979167,0,49,49,42,1,FBP-OG-19.png,0.4,1.2,43,0.5,,,,,,,,,,,,,,,,,,,,,,,,,,,,,,,,,,,,,,,,,,,,,
,,,,,V3_100,20,Female,2025-02-04_14h58.22.548,jersey_experiment_5_v3,2023.2.2,Win32,84.74576271,,,,,,,,,,,,,,,,264.9804,266.5331,266.5331,267.9215,return,0.2521,,25,0,50,50,21,1,FBP-PT-18.png,0.37,1.2,22,0.75,,,,,,,,,,,,,,,,,,,,,,,,,,,,,,,,,,,,,,,,,,,,,
,,,,,V3_100,20,Female,2025-02-04_14h58.22.548,jersey_experiment_5_v3,2023.2.2,Win32,84.74576271,,,,,,,,,,,,,,,,267.9218,269.4746,269.4746,270.7451,return,0.4017,,74.21875,0,51,51,8,1,FBP-YG-81.png,0.43,1.2,9,0.75,,,,,,,,,,,,,,,,,,,,,,,,,,,,,,,,,,,,,,,,,,,,,
,,,,,V3_100,20,Female,2025-02-04_14h58.22.548,jersey_experiment_5_v3,2023.2.2,Win32,84.74576271,,,,,,,,,,,,,,,,270.7454,272.0393,272.0393,274.1335,return,0.401,,73.828125,0,52,52,33,1,FBP-OG-17.png,0.43,1.2,34,0.5,,,,,,,,,,,,,,,,,,,,,,,,,,,,,,,,,,,,,,,,,,,,,
,,,,,V3_100,20,Female,2025-02-04_14h58.22.548,jersey_experiment_5_v3,2023.2.2,Win32,84.74576271,,,,,,,,,,,,,,,,274.1337,275.4276,275.4276,277.1925,return,0.2043,,49.609375,0,53,53,32,1,FBP-OG-17.png,0.4,1.2,33,0.5,,,,,,,,,,,,,,,,,,,,,,,,,,,,,,,,,,,,,,,,,,,,,
,,,,,V3_100,20,Female,2025-02-04_14h58.22.548,jersey_experiment_5_v3,2023.2.2,Win32,84.74576271,,,,,,,,,,,,,,,,277.1927,278.7454,278.7454,280.7335,return,0.5601,,37.23958333,0,54,54,56,1,FBP-RB-19.png,0.37,1.2,57,0.75,,,,,,,,,,,,,,,,,,,,,,,,,,,,,,,,,,,,,,,,,,,,,
,,,,,V3_100,20,Female,2025-02-04_14h58.22.548,jersey_experiment_5_v3,2023.2.2,Win32,84.74576271,,,,,,,,,,,,,,,,280.7338,282.2866,282.2866,283.6984,return,0.357,,75.26041667,0,55,55,48,1,FBP-RB-17.png,0.43,1.2,49,0.75,,,,,,,,,,,,,,,,,,,,,,,,,,,,,,,,,,,,,,,,,,,,,
,,,,,V3_100,20,Female,2025-02-04_14h58.22.548,jersey_experiment_5_v3,2023.2.2,Win32,84.74576271,,,,,,,,,,,,,,,,283.6986,285.2515,285.2515,287.0397,return,0.7462,,23.69791667,0,56,56,46,1,FBP-RB-17.png,0.37,1.2,47,0.75,,,,,,,,,,,,,,,,,,,,,,,,,,,,,,,,,,,,,,,,,,,,,
,,,,,V3_100,20,Female,2025-02-04_14h58.22.548,jersey_experiment_5_v3,2023.2.2,Win32,84.74576271,,,,,,,,,,,,,,,,287.04,288.5813,288.5813,290.9577,return,0.5936,,99.609375,0,57,57,54,1,FBP-RB-18.png,0.45,1.2,55,0.75,,,,,,,,,,,,,,,,,,,,,,,,,,,,,,,,,,,,,,,,,,,,,
,,,,,V3_100,20,Female,2025-02-04_14h58.22.548,jersey_experiment_5_v3,2023.2.2,Win32,84.74576271,,,,,,,,,,,,,,,,290.9579,292.5106,292.5107,294.0989,return,0.3414,,99.34895833,0,58,58,4,1,FBP-YG-71.png,0.45,1.2,5,0.75,,,,,,,,,,,,,,,,,,,,,,,,,,,,,,,,,,,,,,,,,,,,,
,,,,,V3_100,20,Female,2025-02-04_14h58.22.548,jersey_experiment_5_v3,2023.2.2,Win32,84.74576271,,,,,,,,,,,,,,,,294.0991,295.6518,295.652,297.5109,return,0.3402,,50.13020833,0,59,59,47,1,FBP-RB-17.png,0.4,1.2,48,0.75,,,,,,,,,,,,,,,,,,,,,,,,,,,,,,,,,,,,,,,,,,,,,
,,,,,V3_100,20,Female,2025-02-04_14h58.22.548,jersey_experiment_5_v3,2023.2.2,Win32,84.74576271,,,,,,,,,,,,,,,,297.5134,299.0637,299.0638,301.0169,return,0.6195,,50,,,,,,FBP-YG-18.png,0.4,1.2,8,0.75,0,0,0,7,1,,,,,,,,,,,,,,,,,,,,,,,,,,,,,,,,,,,,,,,,
,,,,,V3_100,20,Female,2025-02-04_14h58.22.548,jersey_experiment_5_v3,2023.2.2,Win32,84.74576271,,,,,,,,,,,,,,,,301.0171,302.3108,302.3108,304.558,return,0.5142,,87.63020833,,,,,,FBP-OG-81.png,0.43,1.2,39,0.5,0,1,1,38,1,,,,,,,,,,,,,,,,,,,,,,,,,,,,,,,,,,,,,,,,
,,,,,V3_100,20,Female,2025-02-04_14h58.22.548,jersey_experiment_5_v3,2023.2.2,Win32,84.74576271,,,,,,,,,,,,,,,,304.5583,305.8521,305.8522,309.076,return,1.7094,,24.609375,,,,,,FBP-OG-81.png,0.37,1.2,37,0.5,0,2,2,36,1,,,,,,,,,,,,,,,,,,,,,,,,,,,,,,,,,,,,,,,,
,,,,,V3_100,20,Female,2025-02-04_14h58.22.548,jersey_experiment_5_v3,2023.2.2,Win32,84.74576271,,,,,,,,,,,,,,,,309.0762,310.6292,310.6292,312.1936,return,0.4378,,49.47916667,,,,,,FBP-PT-91.png,0.4,1.2,28,0.75,0,3,3,27,1,,,,,,,,,,,,,,,,,,,,,,,,,,,,,,,,,,,,,,,,
,,,,,V3_100,20,Female,2025-02-04_14h58.22.548,jersey_experiment_5_v3,2023.2.2,Win32,84.74576271,,,,,,,,,,,,,,,,312.1939,313.7466,313.7467,316.0879,return,0.3052,,24.34895833,,,,,,FBP-YG-17.png,0.35,1.2,1,0.75,0,4,4,0,1,,,,,,,,,,,,,,,,,,,,,,,,,,,,,,,,,,,,,,,,
,,,,,V3_100,20,Female,2025-02-04_14h58.22.548,jersey_experiment_5_v3,2023.2.2,Win32,84.74576271,,,,,,,,,,,,,,,,316.0882,317.6296,317.6297,318.9588,return,0.2861,,99.86979167,,,,,,FBP-YG-17.png,0.45,1.2,5,0.75,0,5,5,4,1,,,,,,,,,,,,,,,,,,,,,,,,,,,,,,,,,,,,,,,,
,,,,,V3_100,20,Female,2025-02-04_14h58.22.548,jersey_experiment_5_v3,2023.2.2,Win32,84.74576271,,,,,,,,,,,,,,,,318.959,320.5118,320.5119,321.8764,return,0.3926,,24.86979167,,,,,,FBP-RB-91.png,0.37,1.2,57,0.75,0,6,6,56,1,,,,,,,,,,,,,,,,,,,,,,,,,,,,,,,,,,,,,,,,
,,,,,V3_100,20,Female,2025-02-04_14h58.22.548,jersey_experiment_5_v3,2023.2.2,Win32,84.74576271,,,,,,,,,,,,,,,,321.8767,323.4294,323.4294,326.9825,return,0.4029,,99.73958333,,,,,,FBP-YG-19.png,0.43,1.2,14,0.75,0,7,7,13,1,,,,,,,,,,,,,,,,,,,,,,,,,,,,,,,,,,,,,,,,
,,,,,V3_100,20,Female,2025-02-04_14h58.22.548,jersey_experiment_5_v3,2023.2.2,Win32,84.74576271,,,,,,,,,,,,,,,,326.9828,328.5356,328.5356,330.3239,return,0.3306,,24.73958333,,,,,,FBP-YG-18.png,0.35,1.2,6,0.75,0,8,8,5,1,,,,,,,,,,,,,,,,,,,,,,,,,,,,,,,,,,,,,,,,
,,,,,V3_100,20,Female,2025-02-04_14h58.22.548,jersey_experiment_5_v3,2023.2.2,Win32,84.74576271,,,,,,,,,,,,,,,,330.3241,331.618,331.618,333.1358,return,0.3908,,25.13020833,,,,,,FBP-OG-91.png,0.35,1.2,41,0.5,0,9,9,40,1,,,,,,,,,,,,,,,,,,,,,,,,,,,,,,,,,,,,,,,,
,,,,,V3_100,20,Female,2025-02-04_14h58.22.548,jersey_experiment_5_v3,2023.2.2,Win32,84.74576271,,,,,,,,,,,,,,,,333.136,334.6889,334.6889,336.1359,return,0.188,,49.47916667,,,,,,FBP-RB-91.png,0.4,1.2,58,0.75,0,10,10,57,1,,,,,,,,,,,,,,,,,,,,,,,,,,,,,,,,,,,,,,,,
,,,,,V3_100,20,Female,2025-02-04_14h58.22.548,jersey_experiment_5_v3,2023.2.2,Win32,84.74576271,,,,,,,,,,,,,,,,336.1361,337.43,337.43,338.7123,return,0.1974,,74.34895833,,,,,,FBP-OG-71.png,0.43,1.2,34,0.5,0,11,11,33,1,,,,,,,,,,,,,,,,,,,,,,,,,,,,,,,,,,,,,,,,
,,,,,V3_100,20,Female,2025-02-04_14h58.22.548,jersey_experiment_5_v3,2023.2.2,Win32,84.74576271,,,,,,,,,,,,,,,,338.7125,340.2653,340.2653,341.23,return,0.1363,,49.47916667,,,,,,FBP-YG-18.png,0.37,1.2,7,0.75,0,12,12,6,1,,,,,,,,,,,,,,,,,,,,,,,,,,,,,,,,,,,,,,,,
,,,,,V3_100,20,Female,2025-02-04_14h58.22.548,jersey_experiment_5_v3,2023.2.2,Win32,84.74576271,,,,,,,,,,,,,,,,341.2303,342.7832,342.7833,344.6773,return,0.2838,,99.86979167,,,,,,FBP-PT-81.png,0.43,1.2,24,0.75,0,13,13,23,1,,,,,,,,,,,,,,,,,,,,,,,,,,,,,,,,,,,,,,,,
,,,,,V3_100,20,Female,2025-02-04_14h58.22.548,jersey_experiment_5_v3,2023.2.2,Win32,84.74576271,,,,,,,,,,,,,,,,344.6775,346.2303,346.2303,347.3362,return,0.368,,99.73958333,,,,,,FBP-RB-81.png,0.45,1.2,55,0.75,0,14,14,54,1,,,,,,,,,,,,,,,,,,,,,,,,,,,,,,,,,,,,,,,,
,,,,,V3_100,20,Female,2025-02-04_14h58.22.548,jersey_experiment_5_v3,2023.2.2,Win32,84.74576271,,,,,,,,,,,,,,,,347.3365,348.8892,348.8893,349.8891,return,0.2169,,99.609375,,,,,,FBP-RB-91.png,0.45,1.2,60,0.75,0,15,15,59,1,,,,,,,,,,,,,,,,,,,,,,,,,,,,,,,,,,,,,,,,
,,,,,V3_100,20,Female,2025-02-04_14h58.22.548,jersey_experiment_5_v3,2023.2.2,Win32,84.74576271,,,,,,,,,,,,,,,,349.8894,351.4421,351.4422,354.9012,return,2.0013,,36.19791667,,,,,,FBP-RB-81.png,0.37,1.2,52,0.75,0,16,16,51,1,,,,,,,,,,,,,,,,,,,,,,,,,,,,,,,,,,,,,,,,
,,,,,V3_100,20,Female,2025-02-04_14h58.22.548,jersey_experiment_5_v3,2023.2.2,Win32,84.74576271,,,,,,,,,,,,,,,,354.9015,356.4543,356.4543,357.6541,return,0.1885,,99.609375,,,,,,FBP-PT-71.png,0.43,1.2,19,0.75,0,17,17,18,1,,,,,,,,,,,,,,,,,,,,,,,,,,,,,,,,,,,,,,,,
,,,,,V3_100,20,Female,2025-02-04_14h58.22.548,jersey_experiment_5_v3,2023.2.2,Win32,84.74576271,,,,,,,,,,,,,,,,357.6544,358.9484,358.9484,362.384,return,0.1715,,24.609375,,,,,,FBP-OG-91.png,0.37,1.2,42,0.5,0,18,18,41,1,,,,,,,,,,,,,,,,,,,,,,,,,,,,,,,,,,,,,,,,
,,,,,V3_100,20,Female,2025-02-04_14h58.22.548,jersey_experiment_5_v3,2023.2.2,Win32,84.74576271,,,,,,,,,,,,,,,,362.3843,363.937,363.937,364.9134,return,0.1897,,25,,,,,,FBP-RB-91.png,0.35,1.2,56,0.75,0,19,19,55,1,,,,,,,,,,,,,,,,,,,,,,,,,,,,,,,,,,,,,,,,
,,,,,V3_100,20,Female,2025-02-04_14h58.22.548,jersey_experiment_5_v3,2023.2.2,Win32,84.74576271,,,,,,,,,,,,,,,,364.9137,366.4666,366.4666,367.6194,return,0.1431,,24.47916667,,,,,,FBP-PT-71.png,0.35,1.2,16,0.75,0,20,20,15,1,,,,,,,,,,,,,,,,,,,,,,,,,,,,,,,,,,,,,,,,
,,,,,V3_100,20,Female,2025-02-04_14h58.22.548,jersey_experiment_5_v3,2023.2.2,Win32,84.74576271,,,,,,,,,,,,,,,,367.6197,369.1723,369.1723,370.9019,return,0.3065,,24.47916667,,,,,,FBP-YG-19.png,0.37,1.2,12,0.75,0,21,21,11,1,,,,,,,,,,,,,,,,,,,,,,,,,,,,,,,,,,,,,,,,
,,,,,V3_100,20,Female,2025-02-04_14h58.22.548,jersey_experiment_5_v3,2023.2.2,Win32,84.74576271,,,,,,,,,,,,,,,,370.9021,372.196,372.1961,374.6079,return,1.2181,,99.21875,,,,,,FBP-OG-71.png,0.45,1.2,35,0.5,0,22,22,34,1,,,,,,,,,,,,,,,,,,,,,,,,,,,,,,,,,,,,,,,,
,,,,,V3_100,20,Female,2025-02-04_14h58.22.548,jersey_experiment_5_v3,2023.2.2,Win32,84.74576271,,,,,,,,,,,,,,,,374.6082,376.1611,376.1611,377.4787,return,0.1644,,99.47916667,,,,,,FBP-YG-18.png,0.45,1.2,10,0.75,0,23,23,9,1,,,,,,,,,,,,,,,,,,,,,,,,,,,,,,,,,,,,,,,,
,,,,,V3_100,20,Female,2025-02-04_14h58.22.548,jersey_experiment_5_v3,2023.2.2,Win32,84.74576271,,,,,,,,,,,,,,,,377.4789,379.0316,379.0317,381.2786,return,1.0194,,99.47916667,,,,,,FBP-RB-91.png,0.43,1.2,59,0.75,0,24,24,58,1,,,,,,,,,,,,,,,,,,,,,,,,,,,,,,,,,,,,,,,,
,,,,,V3_100,20,Female,2025-02-04_14h58.22.548,jersey_experiment_5_v3,2023.2.2,Win32,84.74576271,,,,,,,,,,,,,,,,381.2789,382.5728,382.5729,384.4082,return,0.612,,25.13020833,,,,,,FBP-OG-71.png,0.35,1.2,31,0.5,0,25,25,30,1,,,,,,,,,,,,,,,,,,,,,,,,,,,,,,,,,,,,,,,,
,,,,,V3_100,20,Female,2025-02-04_14h58.22.548,jersey_experiment_5_v3,2023.2.2,Win32,84.74576271,,,,,,,,,,,,,,,,384.4084,385.7024,385.7024,386.7849,return,0.2026,,49.08854167,,,,,,FBP-OG-91.png,0.4,1.2,43,0.5,0,26,26,42,1,,,,,,,,,,,,,,,,,,,,,,,,,,,,,,,,,,,,,,,,
,,,,,V3_100,20,Female,2025-02-04_14h58.22.548,jersey_experiment_5_v3,2023.2.2,Win32,84.74576271,,,,,,,,,,,,,,,,386.7851,388.338,388.338,389.1733,return,0.1883,,23.95833333,,,,,,FBP-RB-71.png,0.35,1.2,46,0.75,0,27,27,45,1,,,,,,,,,,,,,,,,,,,,,,,,,,,,,,,,,,,,,,,,
,,,,,V3_100,20,Female,2025-02-04_14h58.22.548,jersey_experiment_5_v3,2023.2.2,Win32,84.74576271,,,,,,,,,,,,,,,,389.1735,390.4673,390.4673,391.8084,return,0.1199,,99.73958333,,,,,,FBP-OG-81.png,0.45,1.2,40,0.5,0,28,28,39,1,,,,,,,,,,,,,,,,,,,,,,,,,,,,,,,,,,,,,,,,
,,,,,V3_100,20,Female,2025-02-04_14h58.22.548,jersey_experiment_5_v3,2023.2.2,Win32,84.74576271,,,,,,,,,,,,,,,,391.8087,393.3615,393.3616,394.6439,return,0.1907,,75.52083333,,,,,,FBP-PT-81.png,0.4,1.2,23,0.75,0,29,29,22,1,,,,,,,,,,,,,,,,,,,,,,,,,,,,,,,,,,,,,,,,
,,,,,V3_100,20,Female,2025-02-04_14h58.22.548,jersey_experiment_5_v3,2023.2.2,Win32,84.74576271,,,,,,,,,,,,,,,,394.6442,396.1972,396.1973,398.291,return,0.1914,,49.86979167,,,,,,FBP-PT-91.png,0.37,1.2,27,0.75,0,30,30,26,1,,,,,,,,,,,,,,,,,,,,,,,,,,,,,,,,,,,,,,,,
,,,,,V3_100,20,Female,2025-02-04_14h58.22.548,jersey_experiment_5_v3,2023.2.2,Win32,84.74576271,,,,,,,,,,,,,,,,398.2912,399.8323,399.8324,401.2206,return,0.1897,,73.828125,,,,,,FBP-RB-81.png,0.43,1.2,54,0.75,0,31,31,53,1,,,,,,,,,,,,,,,,,,,,,,,,,,,,,,,,,,,,,,,,
,,,,,V3_100,20,Female,2025-02-04_14h58.22.548,jersey_experiment_5_v3,2023.2.2,Win32,84.74576271,,,,,,,,,,,,,,,,401.2209,402.7736,402.7737,404.8326,return,0.2023,,24.47916667,,,,,,FBP-YG-17.png,0.37,1.2,2,0.75,0,32,32,1,1,,,,,,,,,,,,,,,,,,,,,,,,,,,,,,,,,,,,,,,,
,,,,,V3_100,20,Female,2025-02-04_14h58.22.548,jersey_experiment_5_v3,2023.2.2,Win32,84.74576271,,,,,,,,,,,,,,,,404.8328,406.3854,406.3855,407.7151,return,0.1571,,49.47916667,,,,,,FBP-RB-81.png,0.4,1.2,53,0.75,0,33,33,52,1,,,,,,,,,,,,,,,,,,,,,,,,,,,,,,,,,,,,,,,,
,,,,,V3_100,20,Female,2025-02-04_14h58.22.548,jersey_experiment_5_v3,2023.2.2,Win32,84.74576271,,,,,,,,,,,,,,,,407.7153,409.2679,409.268,412.2327,return,1.6475,,81.38020833,,,,,,FBP-YG-17.png,0.43,1.2,4,0.75,0,34,34,3,1,,,,,,,,,,,,,,,,,,,,,,,,,,,,,,,,,,,,,,,,
,,,,,V3_100,20,Female,2025-02-04_14h58.22.548,jersey_experiment_5_v3,2023.2.2,Win32,84.74576271,,,,,,,,,,,,,,,,412.233,413.7858,413.7859,415.1976,return,0.1694,,74.609375,,,,,,FBP-RB-71.png,0.4,1.2,48,0.75,0,35,35,47,1,,,,,,,,,,,,,,,,,,,,,,,,,,,,,,,,,,,,,,,,
,,,,,V3_100,20,Female,2025-02-04_14h58.22.548,jersey_experiment_5_v3,2023.2.2,Win32,84.74576271,,,,,,,,,,,,,,,,415.1976,416.7506,416.7507,418.1626,return,0.1421,,25.26041667,,,,,,FBP-PT-81.png,0.35,1.2,21,0.75,0,36,36,20,1,,,,,,,,,,,,,,,,,,,,,,,,,,,,,,,,,,,,,,,,
,,,,,V3_100,20,Female,2025-02-04_14h58.22.548,jersey_experiment_5_v3,2023.2.2,Win32,84.74576271,,,,,,,,,,,,,,,,418.1627,419.4565,419.4565,421.7626,return,0.2143,,63.93229167,,,,,,FBP-OG-81.png,0.4,1.2,38,0.5,0,37,37,37,1,,,,,,,,,,,,,,,,,,,,,,,,,,,,,,,,,,,,,,,,
,,,,,V3_100,20,Female,2025-02-04_14h58.22.548,jersey_experiment_5_v3,2023.2.2,Win32,84.74576271,,,,,,,,,,,,,,,,421.7629,423.3155,423.3156,426.2804,return,1.8016,,81.38020833,,,,,,FBP-PT-71.png,0.4,1.2,18,0.75,0,38,38,17,1,,,,,,,,,,,,,,,,,,,,,,,,,,,,,,,,,,,,,,,,
,,,,,V3_100,20,Female,2025-02-04_14h58.22.548,jersey_experiment_5_v3,2023.2.2,Win32,84.74576271,,,,,,,,,,,,,,,,426.2807,427.8335,427.8335,430.1747,return,0.3919,,99.34895833,,,,,,FBP-YG-19.png,0.45,1.2,15,0.75,0,39,39,14,1,,,,,,,,,,,,,,,,,,,,,,,,,,,,,,,,,,,,,,,,
,,,,,V3_100,20,Female,2025-02-04_14h58.22.548,jersey_experiment_5_v3,2023.2.2,Win32,84.74576271,,,,,,,,,,,,,,,,430.175,431.7279,431.7279,432.9511,return,0.3295,,99.73958333,,,,,,FBP-RB-71.png,0.45,1.2,50,0.75,0,40,40,49,1,,,,,,,,,,,,,,,,,,,,,,,,,,,,,,,,,,,,,,,,
,,,,,V3_100,20,Female,2025-02-04_14h58.22.548,jersey_experiment_5_v3,2023.2.2,Win32,84.74576271,,,,,,,,,,,,,,,,432.9514,434.2454,434.2454,435.7632,return,0.298,,28.125,,,,,,FBP-OG-71.png,0.37,1.2,32,0.5,0,41,41,31,1,,,,,,,,,,,,,,,,,,,,,,,,,,,,,,,,,,,,,,,,
,,,,,V3_100,20,Female,2025-02-04_14h58.22.548,jersey_experiment_5_v3,2023.2.2,Win32,84.74576271,,,,,,,,,,,,,,,,435.7634,437.3163,437.3163,438.5986,return,0.2123,,28.77604167,,,,,,FBP-PT-81.png,0.37,1.2,22,0.75,0,42,42,21,1,,,,,,,,,,,,,,,,,,,,,,,,,,,,,,,,,,,,,,,,
,,,,,V3_100,20,Female,2025-02-04_14h58.22.548,jersey_experiment_5_v3,2023.2.2,Win32,84.74576271,,,,,,,,,,,,,,,,438.5988,440.1514,440.1514,442.8339,return,1.1337,,100,,,,,,FBP-RB-71.png,0.43,1.2,49,0.75,0,43,43,48,1,,,,,,,,,,,,,,,,,,,,,,,,,,,,,,,,,,,,,,,,
,,,,,V3_100,20,Female,2025-02-04_14h58.22.548,jersey_experiment_5_v3,2023.2.2,Win32,84.74576271,,,,,,,,,,,,,,,,442.8341,444.3868,444.3869,445.9753,return,0.2012,,27.60416667,,,,,,FBP-RB-71.png,0.37,1.2,47,0.75,0,44,44,46,1,,,,,,,,,,,,,,,,,,,,,,,,,,,,,,,,,,,,,,,,
,,,,,V3_100,20,Female,2025-02-04_14h58.22.548,jersey_experiment_5_v3,2023.2.2,Win32,84.74576271,,,,,,,,,,,,,,,,445.9755,447.5283,447.5283,450.1049,return,0.2217,,5.729166667,,,,,,FBP-YG-19.png,0.35,1.2,11,0.75,0,45,45,10,1,,,,,,,,,,,,,,,,,,,,,,,,,,,,,,,,,,,,,,,,
,,,,,V3_100,20,Female,2025-02-04_14h58.22.548,jersey_experiment_5_v3,2023.2.2,Win32,84.74576271,,,,,,,,,,,,,,,,450.1052,451.658,451.6581,453.9756,return,1.2614,,13.28125,,,,,,FBP-RB-81.png,0.35,1.2,51,0.75,0,46,46,50,1,,,,,,,,,,,,,,,,,,,,,,,,,,,,,,,,,,,,,,,,
,,,,,V3_100,20,Female,2025-02-04_14h58.22.548,jersey_experiment_5_v3,2023.2.2,Win32,84.74576271,,,,,,,,,,,,,,,,453.9759,455.5288,455.5288,456.7052,return,0.2617,,14.0625,,,,,,FBP-PT-91.png,0.35,1.2,26,0.75,0,47,47,25,1,,,,,,,,,,,,,,,,,,,,,,,,,,,,,,,,,,,,,,,,
,,,,,V3_100,20,Female,2025-02-04_14h58.22.548,jersey_experiment_5_v3,2023.2.2,Win32,84.74576271,,,,,,,,,,,,,,,,456.7055,458.2581,458.2582,459.6228,return,0.2957,,99.73958333,,,,,,FBP-PT-71.png,0.45,1.2,20,0.75,0,48,48,19,1,,,,,,,,,,,,,,,,,,,,,,,,,,,,,,,,,,,,,,,,
,,,,,V3_100,20,Female,2025-02-04_14h58.22.548,jersey_experiment_5_v3,2023.2.2,Win32,84.74576271,,,,,,,,,,,,,,,,459.6231,461.1758,461.1759,462.2936,return,0.1499,,99.86979167,,,,,,FBP-YG-17.png,0.4,1.2,3,0.75,0,49,49,2,1,,,,,,,,,,,,,,,,,,,,,,,,,,,,,,,,,,,,,,,,
,,,,,V3_100,20,Female,2025-02-04_14h58.22.548,jersey_experiment_5_v3,2023.2.2,Win32,84.74576271,,,,,,,,,,,,,,,,462.2938,463.8466,463.8466,464.6112,return,0.2814,,99.86979167,,,,,,FBP-PT-81.png,0.45,1.2,25,0.75,0,50,50,24,1,,,,,,,,,,,,,,,,,,,,,,,,,,,,,,,,,,,,,,,,
,,,,,V3_100,20,Female,2025-02-04_14h58.22.548,jersey_experiment_5_v3,2023.2.2,Win32,84.74576271,,,,,,,,,,,,,,,,464.6115,466.1643,466.1643,467.7761,return,0.2266,,49.86979167,,,,,,FBP-PT-71.png,0.37,1.2,17,0.75,0,51,51,16,1,,,,,,,,,,,,,,,,,,,,,,,,,,,,,,,,,,,,,,,,
,,,,,V3_100,20,Female,2025-02-04_14h58.22.548,jersey_experiment_5_v3,2023.2.2,Win32,84.74576271,,,,,,,,,,,,,,,,467.7763,469.329,469.3291,471.4703,return,0.3375,,99.47916667,,,,,,FBP-PT-91.png,0.45,1.2,30,0.75,0,52,52,29,1,,,,,,,,,,,,,,,,,,,,,,,,,,,,,,,,,,,,,,,,
,,,,,V3_100,20,Female,2025-02-04_14h58.22.548,jersey_experiment_5_v3,2023.2.2,Win32,84.74576271,,,,,,,,,,,,,,,,471.4705,473.0234,473.0234,474.3764,return,0.2342,,99.73958333,,,,,,FBP-YG-19.png,0.4,1.2,13,0.75,0,53,53,12,1,,,,,,,,,,,,,,,,,,,,,,,,,,,,,,,,,,,,,,,,
,,,,,V3_100,20,Female,2025-02-04_14h58.22.548,jersey_experiment_5_v3,2023.2.2,Win32,84.74576271,,,,,,,,,,,,,,,,474.3766,475.6705,475.6705,477.3765,return,1.0963,,98.95833333,,,,,,FBP-OG-91.png,0.43,1.2,44,0.5,0,54,54,43,1,,,,,,,,,,,,,,,,,,,,,,,,,,,,,,,,,,,,,,,,
,,,,,V3_100,20,Female,2025-02-04_14h58.22.548,jersey_experiment_5_v3,2023.2.2,Win32,84.74576271,,,,,,,,,,,,,,,,477.3767,478.9294,478.9295,479.7529,return,0.306,,99.21875,,,,,,FBP-PT-91.png,0.43,1.2,29,0.75,0,55,55,28,1,,,,,,,,,,,,,,,,,,,,,,,,,,,,,,,,,,,,,,,,
,,,,,V3_100,20,Female,2025-02-04_14h58.22.548,jersey_experiment_5_v3,2023.2.2,Win32,84.74576271,,,,,,,,,,,,,,,,479.7533,481.0473,481.0473,483.2473,return,1.1487,,82.94270833,,,,,,FBP-OG-71.png,0.4,1.2,33,0.5,0,56,56,32,1,,,,,,,,,,,,,,,,,,,,,,,,,,,,,,,,,,,,,,,,
,,,,,V3_100,20,Female,2025-02-04_14h58.22.548,jersey_experiment_5_v3,2023.2.2,Win32,84.74576271,,,,,,,,,,,,,,,,483.2474,484.8003,484.8004,486.5651,return,0.9564,,79.296875,,,,,,FBP-YG-18.png,0.43,1.2,9,0.75,0,57,57,8,1,,,,,,,,,,,,,,,,,,,,,,,,,,,,,,,,,,,,,,,,
,,,,,V3_100,20,Female,2025-02-04_14h58.22.548,jersey_experiment_5_v3,2023.2.2,Win32,84.74576271,,,,,,,,,,,,,,,,486.5653,487.8592,487.8592,489.4946,return,0.2439,,99.21875,,,,,,FBP-OG-91.png,0.45,1.2,45,0.5,0,58,58,44,1,,,,,,,,,,,,,,,,,,,,,,,,,,,,,,,,,,,,,,,,
,,,,,V3_100,20,Female,2025-02-04_14h58.22.548,jersey_experiment_5_v3,2023.2.2,Win32,84.74576271,,,,,,,,,,,,,,,,489.4949,490.7887,490.7888,492.2125,return,0.2574,,24.609375,,,,,,FBP-OG-81.png,0.35,1.2,36,0.5,0,59,59,35,1,,,,,,,,,,,,,,,,,,,,,,,,,,,,,,,,,,,,,,,,
,,,,,V3_100,20,Female,2025-02-04_14h58.22.548,jersey_experiment_5_v3,2023.2.2,Win32,84.74576271,,,,,,,,,,,,,,,,,,,,,,,,,,,,,,,,,,,,,,,492.2126,612.2114,,,,,,,,,,,,,,,,,,,,,,,,,,,,,,,,,,,,,,
,,,,,V3_100,20,Female,2025-02-04_14h58.22.548,jersey_experiment_5_v3,2023.2.2,Win32,84.74576271,,,,,,,,,,,,,,,,,,,,,,,,,,,,,,,,,,,,,,,,,612.2115,613.9348,return,1.7131,,,,,,,,,,,,,,,,,,,,,,,,,,,,,,,,,,
,,,,,V3_100,20,Female,2025-02-04_14h58.22.548,jersey_experiment_5_v3,2023.2.2,Win32,84.74576271,,,,,,,,,,,,,,,,613.9365,615.2288,615.2288,618.0795,return,0.9032,,24.73958333,,,,,,FBP-PT-18.png,0.35,1.2,21,0.5,,,,,,,,,,,,,0,0,0,20,1,,,,,,,,,,,,,,,,,,,,,,,,,,,,
,,,,,V3_100,20,Female,2025-02-04_14h58.22.548,jersey_experiment_5_v3,2023.2.2,Win32,84.74576271,,,,,,,,,,,,,,,,618.0797,619.3733,619.3733,620.8795,return,0.1736,,11.97916667,,,,,,FBP-RB-18.png,0.35,1.2,51,0.5,,,,,,,,,,,,,0,1,1,50,1,,,,,,,,,,,,,,,,,,,,,,,,,,,,
,,,,,V3_100,20,Female,2025-02-04_14h58.22.548,jersey_experiment_5_v3,2023.2.2,Win32,84.74576271,,,,,,,,,,,,,,,,620.8797,622.4238,622.4238,624.1034,return,0.6593,,49.34895833,,,,,,FBP-OG-17.png,0.4,1.2,33,0.75,,,,,,,,,,,,,0,2,2,32,1,,,,,,,,,,,,,,,,,,,,,,,,,,,,
,,,,,V3_100,20,Female,2025-02-04_14h58.22.548,jersey_experiment_5_v3,2023.2.2,Win32,84.74576271,,,,,,,,,,,,,,,,624.1035,625.3973,625.3973,628.7041,return,0.1861,,74.86979167,,,,,,FBP-PT-18.png,0.45,1.2,25,0.5,,,,,,,,,,,,,0,3,3,24,1,,,,,,,,,,,,,,,,,,,,,,,,,,,,
,,,,,V3_100,20,Female,2025-02-04_14h58.22.548,jersey_experiment_5_v3,2023.2.2,Win32,84.74576271,,,,,,,,,,,,,,,,628.7042,630.257,630.2571,632.189,return,0.7305,,49.609375,,,,,,FBP-OG-18.png,0.4,1.2,38,0.75,,,,,,,,,,,,,0,4,4,37,1,,,,,,,,,,,,,,,,,,,,,,,,,,,,
,,,,,V3_100,20,Female,2025-02-04_14h58.22.548,jersey_experiment_5_v3,2023.2.2,Win32,84.74576271,,,,,,,,,,,,,,,,632.1892,633.4916,633.4916,634.8462,return,0.1783,,99.47916667,,,,,,FBP-RB-18.png,0.45,1.2,55,0.5,,,,,,,,,,,,,0,5,5,54,1,,,,,,,,,,,,,,,,,,,,,,,,,,,,
,,,,,V3_100,20,Female,2025-02-04_14h58.22.548,jersey_experiment_5_v3,2023.2.2,Win32,84.74576271,,,,,,,,,,,,,,,,634.8464,636.1506,636.1506,638.4799,return,0.4473,,99.21875,,,,,,FBP-PT-18.png,0.43,1.2,24,0.5,,,,,,,,,,,,,0,6,6,23,1,,,,,,,,,,,,,,,,,,,,,,,,,,,,
,,,,,V3_100,20,Female,2025-02-04_14h58.22.548,jersey_experiment_5_v3,2023.2.2,Win32,84.74576271,,,,,,,,,,,,,,,,638.4801,640.022,640.022,642.5275,return,0.7063,,36.58854167,,,,,,FBP-OG-18.png,0.37,1.2,37,0.75,,,,,,,,,,,,,0,7,7,36,1,,,,,,,,,,,,,,,,,,,,,,,,,,,,
,,,,,V3_100,20,Female,2025-02-04_14h58.22.548,jersey_experiment_5_v3,2023.2.2,Win32,84.74576271,,,,,,,,,,,,,,,,642.5277,643.8212,643.8213,645.4106,return,0.1886,,99.73958333,,,,,,FBP-YG-81.png,0.45,1.2,10,0.5,,,,,,,,,,,,,0,8,8,9,1,,,,,,,,,,,,,,,,,,,,,,,,,,,,
,,,,,V3_100,20,Female,2025-02-04_14h58.22.548,jersey_experiment_5_v3,2023.2.2,Win32,84.74576271,,,,,,,,,,,,,,,,645.4106,646.707,646.707,648.7866,return,0.2677,,37.890625,,,,,,FBP-RB-19.png,0.37,1.2,57,0.5,,,,,,,,,,,,,0,9,9,56,1,,,,,,,,,,,,,,,,,,,,,,,,,,,,
,,,,,V3_100,20,Female,2025-02-04_14h58.22.548,jersey_experiment_5_v3,2023.2.2,Win32,84.74576271,,,,,,,,,,,,,,,,648.7867,650.3307,650.3308,651.889,return,0.205,,88.02083333,,,,,,FBP-OG-19.png,0.43,1.2,44,0.75,,,,,,,,,,,,,0,10,10,43,1,,,,,,,,,,,,,,,,,,,,,,,,,,,,
,,,,,V3_100,20,Female,2025-02-04_14h58.22.548,jersey_experiment_5_v3,2023.2.2,Win32,84.74576271,,,,,,,,,,,,,,,,651.8892,653.1863,653.1864,654.5277,return,0.1885,,25.13020833,,,,,,FBP-YG-91.png,0.35,1.2,11,0.5,,,,,,,,,,,,,0,11,11,10,1,,,,,,,,,,,,,,,,,,,,,,,,,,,,
,,,,,V3_100,20,Female,2025-02-04_14h58.22.548,jersey_experiment_5_v3,2023.2.2,Win32,84.74576271,,,,,,,,,,,,,,,,654.5279,655.8357,655.8357,656.99,return,0.1675,,24.34895833,,,,,,FBP-PT-17.png,0.35,1.2,16,0.5,,,,,,,,,,,,,0,12,12,15,1,,,,,,,,,,,,,,,,,,,,,,,,,,,,
,,,,,V3_100,20,Female,2025-02-04_14h58.22.548,jersey_experiment_5_v3,2023.2.2,Win32,84.74576271,,,,,,,,,,,,,,,,656.9901,658.2925,658.2926,659.8362,return,0.1641,,49.86979167,,,,,,FBP-YG-71.png,0.37,1.2,2,0.5,,,,,,,,,,,,,0,13,13,1,1,,,,,,,,,,,,,,,,,,,,,,,,,,,,
,,,,,V3_100,20,Female,2025-02-04_14h58.22.548,jersey_experiment_5_v3,2023.2.2,Win32,84.74576271,,,,,,,,,,,,,,,,659.8363,661.3836,661.3836,662.3404,return,0.2827,,50.26041667,,,,,,FBP-OG-19.png,0.37,1.2,42,0.75,,,,,,,,,,,,,0,14,14,41,1,,,,,,,,,,,,,,,,,,,,,,,,,,,,
,,,,,V3_100,20,Female,2025-02-04_14h58.22.548,jersey_experiment_5_v3,2023.2.2,Win32,84.74576271,,,,,,,,,,,,,,,,662.3406,663.6489,663.6489,666.8343,return,0.6358,,79.42708333,,,,,,FBP-RB-18.png,0.4,1.2,53,0.5,,,,,,,,,,,,,0,15,15,52,1,,,,,,,,,,,,,,,,,,,,,,,,,,,,
,,,,,V3_100,20,Female,2025-02-04_14h58.22.548,jersey_experiment_5_v3,2023.2.2,Win32,84.74576271,,,,,,,,,,,,,,,,666.8344,668.1275,668.1275,669.5166,return,0.1414,,99.609375,,,,,,FBP-PT-19.png,0.45,1.2,30,0.5,,,,,,,,,,,,,0,16,16,29,1,,,,,,,,,,,,,,,,,,,,,,,,,,,,
,,,,,V3_100,20,Female,2025-02-04_14h58.22.548,jersey_experiment_5_v3,2023.2.2,Win32,84.74576271,,,,,,,,,,,,,,,,669.5167,670.8106,670.8106,672.4703,return,0.3418,,50.26041667,,,,,,FBP-PT-19.png,0.4,1.2,28,0.5,,,,,,,,,,,,,0,17,17,27,1,,,,,,,,,,,,,,,,,,,,,,,,,,,,
,,,,,V3_100,20,Female,2025-02-04_14h58.22.548,jersey_experiment_5_v3,2023.2.2,Win32,84.74576271,,,,,,,,,,,,,,,,672.4705,673.7753,673.7754,674.9177,return,0.2952,,49.73958333,,,,,,FBP-PT-17.png,0.4,1.2,18,0.5,,,,,,,,,,,,,0,18,18,17,1,,,,,,,,,,,,,,,,,,,,,,,,,,,,
,,,,,V3_100,20,Female,2025-02-04_14h58.22.548,jersey_experiment_5_v3,2023.2.2,Win32,84.74576271,,,,,,,,,,,,,,,,674.9178,676.214,676.214,677.8935,return,0.2123,,99.21875,,,,,,FBP-YG-71.png,0.45,1.2,5,0.5,,,,,,,,,,,,,0,19,19,4,1,,,,,,,,,,,,,,,,,,,,,,,,,,,,
,,,,,V3_100,20,Female,2025-02-04_14h58.22.548,jersey_experiment_5_v3,2023.2.2,Win32,84.74576271,,,,,,,,,,,,,,,,677.8936,679.2023,679.2023,680.5908,return,0.3082,,74.08854167,,,,,,FBP-YG-81.png,0.4,1.2,8,0.5,,,,,,,,,,,,,0,20,20,7,1,,,,,,,,,,,,,,,,,,,,,,,,,,,,
,,,,,V3_100,20,Female,2025-02-04_14h58.22.548,jersey_experiment_5_v3,2023.2.2,Win32,84.74576271,,,,,,,,,,,,,,,,680.5909,682.1436,682.1437,683.5767,return,0.3423,,99.73958333,,,,,,FBP-OG-18.png,0.43,1.2,39,0.75,,,,,,,,,,,,,0,21,21,38,1,,,,,,,,,,,,,,,,,,,,,,,,,,,,
,,,,,V3_100,20,Female,2025-02-04_14h58.22.548,jersey_experiment_5_v3,2023.2.2,Win32,84.74576271,,,,,,,,,,,,,,,,683.5768,684.8706,684.8706,686.4266,return,0.1888,,24.47916667,,,,,,FBP-RB-19.png,0.35,1.2,56,0.5,,,,,,,,,,,,,0,22,22,55,1,,,,,,,,,,,,,,,,,,,,,,,,,,,,
,,,,,V3_100,20,Female,2025-02-04_14h58.22.548,jersey_experiment_5_v3,2023.2.2,Win32,84.74576271,,,,,,,,,,,,,,,,686.4267,687.7191,687.7192,689.4696,return,0.4578,,99.34895833,,,,,,FBP-RB-19.png,0.45,1.2,60,0.5,,,,,,,,,,,,,0,23,23,59,1,,,,,,,,,,,,,,,,,,,,,,,,,,,,
,,,,,V3_100,20,Female,2025-02-04_14h58.22.548,jersey_experiment_5_v3,2023.2.2,Win32,84.74576271,,,,,,,,,,,,,,,,689.4698,690.7638,690.7639,692.1142,return,0.2036,,50.13020833,,,,,,FBP-YG-71.png,0.4,1.2,3,0.5,,,,,,,,,,,,,0,24,24,2,1,,,,,,,,,,,,,,,,,,,,,,,,,,,,
,,,,,V3_100,20,Female,2025-02-04_14h58.22.548,jersey_experiment_5_v3,2023.2.2,Win32,84.74576271,,,,,,,,,,,,,,,,692.1145,693.4082,693.4083,695.094,return,0.2826,,99.47916667,,,,,,FBP-YG-81.png,0.43,1.2,9,0.5,,,,,,,,,,,,,0,25,25,8,1,,,,,,,,,,,,,,,,,,,,,,,,,,,,
,,,,,V3_100,20,Female,2025-02-04_14h58.22.548,jersey_experiment_5_v3,2023.2.2,Win32,84.74576271,,,,,,,,,,,,,,,,695.0941,696.3881,696.3881,698.2857,return,0.1673,,15.49479167,,,,,,FBP-YG-81.png,0.35,1.2,6,0.5,,,,,,,,,,,,,0,26,26,5,1,,,,,,,,,,,,,,,,,,,,,,,,,,,,
,,,,,V3_100,20,Female,2025-02-04_14h58.22.548,jersey_experiment_5_v3,2023.2.2,Win32,84.74576271,,,,,,,,,,,,,,,,698.2859,699.5884,699.5884,702.7885,return,1.9385,,24.86979167,,,,,,FBP-YG-91.png,0.37,1.2,12,0.5,,,,,,,,,,,,,0,27,27,11,1,,,,,,,,,,,,,,,,,,,,,,,,,,,,
,,,,,V3_100,20,Female,2025-02-04_14h58.22.548,jersey_experiment_5_v3,2023.2.2,Win32,84.74576271,,,,,,,,,,,,,,,,702.7886,704.0975,704.0976,705.9069,return,0.06,,24.73958333,,,,,,FBP-PT-17.png,0.37,1.2,17,0.5,,,,,,,,,,,,,0,28,28,16,1,,,,,,,,,,,,,,,,,,,,,,,,,,,,
,,,,,V3_100,20,Female,2025-02-04_14h58.22.548,jersey_experiment_5_v3,2023.2.2,Win32,84.74576271,,,,,,,,,,,,,,,,705.9072,707.2033,707.2033,708.66,return,0.3417,,50.52083333,,,,,,FBP-RB-17.png,0.4,1.2,48,0.5,,,,,,,,,,,,,0,29,29,47,1,,,,,,,,,,,,,,,,,,,,,,,,,,,,
,,,,,V3_100,20,Female,2025-02-04_14h58.22.548,jersey_experiment_5_v3,2023.2.2,Win32,84.74576271,,,,,,,,,,,,,,,,708.6601,709.9649,709.9649,711.3064,return,0.2356,,50.52083333,,,,,,FBP-PT-18.png,0.37,1.2,22,0.5,,,,,,,,,,,,,0,30,30,21,1,,,,,,,,,,,,,,,,,,,,,,,,,,,,
,,,,,V3_100,20,Female,2025-02-04_14h58.22.548,jersey_experiment_5_v3,2023.2.2,Win32,84.74576271,,,,,,,,,,,,,,,,711.3065,712.8508,712.8508,714.0126,return,0.1652,,49.34895833,,,,,,FBP-OG-19.png,0.4,1.2,43,0.75,,,,,,,,,,,,,0,31,31,42,1,,,,,,,,,,,,,,,,,,,,,,,,,,,,
,,,,,V3_100,20,Female,2025-02-04_14h58.22.548,jersey_experiment_5_v3,2023.2.2,Win32,84.74576271,,,,,,,,,,,,,,,,714.0128,715.3214,715.3214,717.5546,return,1.0334,,74.73958333,,,,,,FBP-PT-18.png,0.4,1.2,23,0.5,,,,,,,,,,,,,0,32,32,22,1,,,,,,,,,,,,,,,,,,,,,,,,,,,,
,,,,,V3_100,20,Female,2025-02-04_14h58.22.548,jersey_experiment_5_v3,2023.2.2,Win32,84.74576271,,,,,,,,,,,,,,,,717.5547,718.8486,718.8487,721.0395,return,0.2267,,99.73958333,,,,,,FBP-YG-91.png,0.45,1.2,15,0.5,,,,,,,,,,,,,0,33,33,14,1,,,,,,,,,,,,,,,,,,,,,,,,,,,,
,,,,,V3_100,20,Female,2025-02-04_14h58.22.548,jersey_experiment_5_v3,2023.2.2,Win32,84.74576271,,,,,,,,,,,,,,,,721.0395,722.5907,722.5907,723.9573,return,0.2268,,37.36979167,,,,,,FBP-OG-17.png,0.37,1.2,32,0.75,,,,,,,,,,,,,0,34,34,31,1,,,,,,,,,,,,,,,,,,,,,,,,,,,,
,,,,,V3_100,20,Female,2025-02-04_14h58.22.548,jersey_experiment_5_v3,2023.2.2,Win32,84.74576271,,,,,,,,,,,,,,,,723.9575,725.2512,725.2512,726.8213,return,0.1512,,99.86979167,,,,,,FBP-RB-19.png,0.43,1.2,59,0.5,,,,,,,,,,,,,0,35,35,58,1,,,,,,,,,,,,,,,,,,,,,,,,,,,,
,,,,,V3_100,20,Female,2025-02-04_14h58.22.548,jersey_experiment_5_v3,2023.2.2,Win32,84.74576271,,,,,,,,,,,,,,,,726.8215,728.1219,728.1219,730.2484,return,0.8945,,36.84895833,,,,,,FBP-RB-17.png,0.35,1.2,46,0.5,,,,,,,,,,,,,0,36,36,45,1,,,,,,,,,,,,,,,,,,,,,,,,,,,,
,,,,,V3_100,20,Female,2025-02-04_14h58.22.548,jersey_experiment_5_v3,2023.2.2,Win32,84.74576271,,,,,,,,,,,,,,,,730.2486,731.5574,731.5574,733.1189,return,0.1882,,88.28125,,,,,,FBP-YG-91.png,0.43,1.2,14,0.5,,,,,,,,,,,,,0,37,37,13,1,,,,,,,,,,,,,,,,,,,,,,,,,,,,
,,,,,V3_100,20,Female,2025-02-04_14h58.22.548,jersey_experiment_5_v3,2023.2.2,Win32,84.74576271,,,,,,,,,,,,,,,,733.119,734.4133,734.4133,735.551,return,0.2759,,88.41145833,,,,,,FBP-YG-91.png,0.4,1.2,13,0.5,,,,,,,,,,,,,0,38,38,12,1,,,,,,,,,,,,,,,,,,,,,,,,,,,,
,,,,,V3_100,20,Female,2025-02-04_14h58.22.548,jersey_experiment_5_v3,2023.2.2,Win32,84.74576271,,,,,,,,,,,,,,,,735.5513,737.0957,737.0957,738.6257,return,0.2209,,36.06770833,,,,,,FBP-OG-18.png,0.35,1.2,36,0.75,,,,,,,,,,,,,0,39,39,35,1,,,,,,,,,,,,,,,,,,,,,,,,,,,,
,,,,,V3_100,20,Female,2025-02-04_14h58.22.548,jersey_experiment_5_v3,2023.2.2,Win32,84.74576271,,,,,,,,,,,,,,,,738.6259,739.9277,739.9277,741.5511,return,0.4774,,30.33854167,,,,,,FBP-PT-19.png,0.35,1.2,26,0.5,,,,,,,,,,,,,0,40,40,25,1,,,,,,,,,,,,,,,,,,,,,,,,,,,,
,,,,,V3_100,20,Female,2025-02-04_14h58.22.548,jersey_experiment_5_v3,2023.2.2,Win32,84.74576271,,,,,,,,,,,,,,,,741.5513,743.1108,743.1108,745.0727,return,0.3063,,33.07291667,,,,,,FBP-OG-17.png,0.35,1.2,31,0.75,,,,,,,,,,,,,0,41,41,30,1,,,,,,,,,,,,,,,,,,,,,,,,,,,,
,,,,,V3_100,20,Female,2025-02-04_14h58.22.548,jersey_experiment_5_v3,2023.2.2,Win32,84.74576271,,,,,,,,,,,,,,,,745.073,746.379,746.379,747.7319,return,0.2124,,49.73958333,,,,,,FBP-RB-18.png,0.37,1.2,52,0.5,,,,,,,,,,,,,0,42,42,51,1,,,,,,,,,,,,,,,,,,,,,,,,,,,,
,,,,,V3_100,20,Female,2025-02-04_14h58.22.548,jersey_experiment_5_v3,2023.2.2,Win32,84.74576271,,,,,,,,,,,,,,,,747.7319,749.0378,749.0378,750.923,return,0.4955,,23.30729167,,,,,,FBP-YG-71.png,0.35,1.2,1,0.5,,,,,,,,,,,,,0,43,43,0,1,,,,,,,,,,,,,,,,,,,,,,,,,,,,
,,,,,V3_100,20,Female,2025-02-04_14h58.22.548,jersey_experiment_5_v3,2023.2.2,Win32,84.74576271,,,,,,,,,,,,,,,,750.9232,752.217,752.217,753.5348,return,0.2506,,73.95833333,,,,,,FBP-YG-71.png,0.43,1.2,4,0.5,,,,,,,,,,,,,0,44,44,3,1,,,,,,,,,,,,,,,,,,,,,,,,,,,,
,,,,,V3_100,20,Female,2025-02-04_14h58.22.548,jersey_experiment_5_v3,2023.2.2,Win32,84.74576271,,,,,,,,,,,,,,,,753.5349,754.8288,754.8288,756.014,return,0.3624,,74.86979167,,,,,,FBP-RB-17.png,0.43,1.2,49,0.5,,,,,,,,,,,,,0,45,45,48,1,,,,,,,,,,,,,,,,,,,,,,,,,,,,
,,,,,V3_100,20,Female,2025-02-04_14h58.22.548,jersey_experiment_5_v3,2023.2.2,Win32,84.74576271,,,,,,,,,,,,,,,,756.0142,757.3079,757.308,758.7909,return,0.1887,,37.76041667,,,,,,FBP-YG-81.png,0.37,1.2,7,0.5,,,,,,,,,,,,,0,46,46,6,1,,,,,,,,,,,,,,,,,,,,,,,,,,,,
,,,,,V3_100,20,Female,2025-02-04_14h58.22.548,jersey_experiment_5_v3,2023.2.2,Win32,84.74576271,,,,,,,,,,,,,,,,758.7911,760.0997,760.0997,761.5336,return,0.249,,99.86979167,,,,,,FBP-PT-17.png,0.45,1.2,20,0.5,,,,,,,,,,,,,0,47,47,19,1,,,,,,,,,,,,,,,,,,,,,,,,,,,,
,,,,,V3_100,20,Female,2025-02-04_14h58.22.548,jersey_experiment_5_v3,2023.2.2,Win32,84.74576271,,,,,,,,,,,,,,,,761.5338,762.8376,762.8376,764.0697,return,0.3072,,99.21875,,,,,,FBP-PT-17.png,0.43,1.2,19,0.5,,,,,,,,,,,,,0,48,48,18,1,,,,,,,,,,,,,,,,,,,,,,,,,,,,
,,,,,V3_100,20,Female,2025-02-04_14h58.22.548,jersey_experiment_5_v3,2023.2.2,Win32,84.74576271,,,,,,,,,,,,,,,,764.0699,765.3679,765.3679,766.9708,return,0.2506,,49.609375,,,,,,FBP-RB-19.png,0.4,1.2,58,0.5,,,,,,,,,,,,,0,49,49,57,1,,,,,,,,,,,,,,,,,,,,,,,,,,,,
,,,,,V3_100,20,Female,2025-02-04_14h58.22.548,jersey_experiment_5_v3,2023.2.2,Win32,84.74576271,,,,,,,,,,,,,,,,766.971,768.273,768.2731,769.1678,return,0.1885,,39.0625,,,,,,FBP-PT-19.png,0.37,1.2,27,0.5,,,,,,,,,,,,,0,50,50,26,1,,,,,,,,,,,,,,,,,,,,,,,,,,,,
,,,,,V3_100,20,Female,2025-02-04_14h58.22.548,jersey_experiment_5_v3,2023.2.2,Win32,84.74576271,,,,,,,,,,,,,,,,769.1679,770.4617,770.4617,771.7943,return,0.1886,,80.859375,,,,,,FBP-RB-18.png,0.43,1.2,54,0.5,,,,,,,,,,,,,0,51,51,53,1,,,,,,,,,,,,,,,,,,,,,,,,,,,,
,,,,,V3_100,20,Female,2025-02-04_14h58.22.548,jersey_experiment_5_v3,2023.2.2,Win32,84.74576271,,,,,,,,,,,,,,,,771.7945,773.0872,773.0872,774.0296,return,0.1674,,99.609375,,,,,,FBP-RB-17.png,0.45,1.2,50,0.5,,,,,,,,,,,,,0,52,52,49,1,,,,,,,,,,,,,,,,,,,,,,,,,,,,
,,,,,V3_100,20,Female,2025-02-04_14h58.22.548,jersey_experiment_5_v3,2023.2.2,Win32,84.74576271,,,,,,,,,,,,,,,,774.0297,775.5825,775.5825,776.1644,return,0.107,,99.609375,,,,,,FBP-OG-19.png,0.45,1.2,45,0.75,,,,,,,,,,,,,0,53,53,44,1,,,,,,,,,,,,,,,,,,,,,,,,,,,,
,,,,,V3_100,20,Female,2025-02-04_14h58.22.548,jersey_experiment_5_v3,2023.2.2,Win32,84.74576271,,,,,,,,,,,,,,,,776.1646,777.4585,777.4585,778.6416,return,0.0939,,40.625,,,,,,FBP-RB-17.png,0.37,1.2,47,0.5,,,,,,,,,,,,,0,54,54,46,1,,,,,,,,,,,,,,,,,,,,,,,,,,,,
,,,,,V3_100,20,Female,2025-02-04_14h58.22.548,jersey_experiment_5_v3,2023.2.2,Win32,84.74576271,,,,,,,,,,,,,,,,778.6417,779.9443,779.9443,781.5998,return,0.1005,,99.73958333,,,,,,FBP-PT-19.png,0.43,1.2,29,0.5,,,,,,,,,,,,,0,55,55,28,1,,,,,,,,,,,,,,,,,,,,,,,,,,,,
,,,,,V3_100,20,Female,2025-02-04_14h58.22.548,jersey_experiment_5_v3,2023.2.2,Win32,84.74576271,,,,,,,,,,,,,,,,781.6,783.1442,783.1443,785.8631,return,0.1886,,30.859375,,,,,,FBP-OG-19.png,0.35,1.2,41,0.75,,,,,,,,,,,,,0,56,56,40,1,,,,,,,,,,,,,,,,,,,,,,,,,,,,
,,,,,V3_100,20,Female,2025-02-04_14h58.22.548,jersey_experiment_5_v3,2023.2.2,Win32,84.74576271,,,,,,,,,,,,,,,,785.8632,787.4183,787.4183,788.8985,return,0.201,,99.73958333,,,,,,FBP-OG-17.png,0.45,1.2,35,0.75,,,,,,,,,,,,,0,57,57,34,1,,,,,,,,,,,,,,,,,,,,,,,,,,,,
,,,,,V3_100,20,Female,2025-02-04_14h58.22.548,jersey_experiment_5_v3,2023.2.2,Win32,84.74576271,,,,,,,,,,,,,,,,788.8987,790.454,790.4541,791.733,return,0.2119,,99.73958333,,,,,,FBP-OG-18.png,0.45,1.2,40,0.75,,,,,,,,,,,,,0,58,58,39,1,,,,,,,,,,,,,,,,,,,,,,,,,,,,
,,,,,V3_100,20,Female,2025-02-04_14h58.22.548,jersey_experiment_5_v3,2023.2.2,Win32,84.74576271,,,,,,,,,,,,,,,,791.7331,793.2748,793.2748,795.3768,return,0.6997,,99.609375,,,,,,FBP-OG-17.png,0.43,1.2,34,0.75,,,,,,,,,,,,,0,59,59,33,1,,,,,,,,,,,,,,,,,,,,,,,,,,,,
,,,,,V3_100,20,Female,2025-02-04_14h58.22.548,jersey_experiment_5_v3,2023.2.2,Win32,84.74576271,,,,,,,,,,,,,,,,795.3785,796.9233,796.9234,797.7952,return,0.3447,,99.08854167,,,,,,FBP-OG-91.png,0.45,1.2,45,0.75,,,,,,,,,,,,,,,,,,0,0,0,44,1,,,,,,,,,,,,,,,,,,,,,,,
,,,,,V3_100,20,Female,2025-02-04_14h58.22.548,jersey_experiment_5_v3,2023.2.2,Win32,84.74576271,,,,,,,,,,,,,,,,797.7954,799.3457,799.3458,800.852,return,0.2007,,50.390625,,,,,,FBP-OG-91.png,0.4,1.2,43,0.75,,,,,,,,,,,,,,,,,,0,1,1,42,1,,,,,,,,,,,,,,,,,,,,,,,
,,,,,V3_100,20,Female,2025-02-04_14h58.22.548,jersey_experiment_5_v3,2023.2.2,Win32,84.74576271,,,,,,,,,,,,,,,,800.8521,802.4047,802.4047,803.513,return,0.1895,,98.95833333,,,,,,FBP-OG-71.png,0.43,1.2,34,0.75,,,,,,,,,,,,,,,,,,0,2,2,33,1,,,,,,,,,,,,,,,,,,,,,,,
,,,,,V3_100,20,Female,2025-02-04_14h58.22.548,jersey_experiment_5_v3,2023.2.2,Win32,84.74576271,,,,,,,,,,,,,,,,803.5131,804.807,804.807,806.3184,return,0.1012,,49.47916667,,,,,,FBP-YG-18.png,0.4,1.2,8,0.5,,,,,,,,,,,,,,,,,,0,3,3,7,1,,,,,,,,,,,,,,,,,,,,,,,
,,,,,V3_100,20,Female,2025-02-04_14h58.22.548,jersey_experiment_5_v3,2023.2.2,Win32,84.74576271,,,,,,,,,,,,,,,,806.3187,807.6127,807.6127,809.49,return,0.9888,,49.609375,,,,,,FBP-PT-71.png,0.37,1.2,17,0.5,,,,,,,,,,,,,,,,,,0,4,4,16,1,,,,,,,,,,,,,,,,,,,,,,,
,,,,,V3_100,20,Female,2025-02-04_14h58.22.548,jersey_experiment_5_v3,2023.2.2,Win32,84.74576271,,,,,,,,,,,,,,,,809.4901,811.0402,811.0402,812.8758,return,0.3421,,99.86979167,,,,,,FBP-OG-81.png,0.45,1.2,40,0.75,,,,,,,,,,,,,,,,,,0,5,5,39,1,,,,,,,,,,,,,,,,,,,,,,,
,,,,,V3_100,20,Female,2025-02-04_14h58.22.548,jersey_experiment_5_v3,2023.2.2,Win32,84.74576271,,,,,,,,,,,,,,,,812.8759,814.1809,814.1809,815.3487,return,0.1798,,99.34895833,,,,,,FBP-RB-71.png,0.45,1.2,50,0.5,,,,,,,,,,,,,,,,,,0,6,6,49,1,,,,,,,,,,,,,,,,,,,,,,,
,,,,,V3_100,20,Female,2025-02-04_14h58.22.548,jersey_experiment_5_v3,2023.2.2,Win32,84.74576271,,,,,,,,,,,,,,,,815.3488,816.8993,816.8993,818.1488,return,0.7059,,99.86979167,,,,,,FBP-OG-81.png,0.43,1.2,39,0.75,,,,,,,,,,,,,,,,,,0,7,7,38,1,,,,,,,,,,,,,,,,,,,,,,,
,,,,,V3_100,20,Female,2025-02-04_14h58.22.548,jersey_experiment_5_v3,2023.2.2,Win32,84.74576271,,,,,,,,,,,,,,,,818.149,819.6997,819.6997,820.6051,return,0.127,,49.86979167,,,,,,FBP-OG-91.png,0.37,1.2,42,0.75,,,,,,,,,,,,,,,,,,0,8,8,41,1,,,,,,,,,,,,,,,,,,,,,,,
,,,,,V3_100,20,Female,2025-02-04_14h58.22.548,jersey_experiment_5_v3,2023.2.2,Win32,84.74576271,,,,,,,,,,,,,,,,820.6052,821.8987,821.8987,823.2015,return,0.1782,,99.47916667,,,,,,FBP-YG-17.png,0.43,1.2,4,0.5,,,,,,,,,,,,,,,,,,0,9,9,3,1,,,,,,,,,,,,,,,,,,,,,,,
,,,,,V3_100,20,Female,2025-02-04_14h58.22.548,jersey_experiment_5_v3,2023.2.2,Win32,84.74576271,,,,,,,,,,,,,,,,823.2017,824.4956,824.4956,826.5345,return,0.1886,,38.41145833,,,,,,FBP-RB-91.png,0.35,1.2,56,0.5,,,,,,,,,,,,,,,,,,0,10,10,55,1,,,,,,,,,,,,,,,,,,,,,,,
,,,,,V3_100,20,Female,2025-02-04_14h58.22.548,jersey_experiment_5_v3,2023.2.2,Win32,84.74576271,,,,,,,,,,,,,,,,826.5346,827.8281,827.8282,828.8307,return,0.2581,,39.0625,,,,,,FBP-YG-18.png,0.35,1.2,6,0.5,,,,,,,,,,,,,,,,,,0,11,11,5,1,,,,,,,,,,,,,,,,,,,,,,,
,,,,,V3_100,20,Female,2025-02-04_14h58.22.548,jersey_experiment_5_v3,2023.2.2,Win32,84.74576271,,,,,,,,,,,,,,,,828.8309,830.1345,830.1345,832.3142,return,0.1886,,32.16145833,,,,,,FBP-PT-81.png,0.35,1.2,21,0.5,,,,,,,,,,,,,,,,,,0,12,12,20,1,,,,,,,,,,,,,,,,,,,,,,,
,,,,,V3_100,20,Female,2025-02-04_14h58.22.548,jersey_experiment_5_v3,2023.2.2,Win32,84.74576271,,,,,,,,,,,,,,,,832.3143,833.8671,833.8671,835.7113,return,0.1413,,99.609375,,,,,,FBP-OG-71.png,0.45,1.2,35,0.75,,,,,,,,,,,,,,,,,,0,13,13,34,1,,,,,,,,,,,,,,,,,,,,,,,
,,,,,V3_100,20,Female,2025-02-04_14h58.22.548,jersey_experiment_5_v3,2023.2.2,Win32,84.74576271,,,,,,,,,,,,,,,,835.7113,837.0045,837.0046,838.5786,return,0.0964,,74.86979167,,,,,,FBP-YG-17.png,0.4,1.2,3,0.5,,,,,,,,,,,,,,,,,,0,14,14,2,1,,,,,,,,,,,,,,,,,,,,,,,
,,,,,V3_100,20,Female,2025-02-04_14h58.22.548,jersey_experiment_5_v3,2023.2.2,Win32,84.74576271,,,,,,,,,,,,,,,,838.5788,839.8727,839.8727,841.75,return,0.2614,,99.21875,,,,,,FBP-YG-18.png,0.45,1.2,10,0.5,,,,,,,,,,,,,,,,,,0,15,15,9,1,,,,,,,,,,,,,,,,,,,,,,,
,,,,,V3_100,20,Female,2025-02-04_14h58.22.548,jersey_experiment_5_v3,2023.2.2,Win32,84.74576271,,,,,,,,,,,,,,,,841.7501,843.0414,843.0414,844.43,return,0.2096,,50,,,,,,FBP-RB-71.png,0.37,1.2,47,0.5,,,,,,,,,,,,,,,,,,0,16,16,46,1,,,,,,,,,,,,,,,,,,,,,,,
,,,,,V3_100,20,Female,2025-02-04_14h58.22.548,jersey_experiment_5_v3,2023.2.2,Win32,84.74576271,,,,,,,,,,,,,,,,844.4301,845.7264,845.7265,846.7671,return,0.1924,,99.609375,,,,,,FBP-YG-19.png,0.43,1.2,14,0.5,,,,,,,,,,,,,,,,,,0,17,17,13,1,,,,,,,,,,,,,,,,,,,,,,,
,,,,,V3_100,20,Female,2025-02-04_14h58.22.548,jersey_experiment_5_v3,2023.2.2,Win32,84.74576271,,,,,,,,,,,,,,,,846.7672,848.0644,848.0644,850.1789,return,0.2266,,99.47916667,,,,,,FBP-PT-71.png,0.45,1.2,20,0.5,,,,,,,,,,,,,,,,,,0,18,18,19,1,,,,,,,,,,,,,,,,,,,,,,,
,,,,,V3_100,20,Female,2025-02-04_14h58.22.548,jersey_experiment_5_v3,2023.2.2,Win32,84.74576271,,,,,,,,,,,,,,,,850.179,851.4729,851.473,854.3673,return,0.1127,,49.609375,,,,,,FBP-PT-71.png,0.4,1.2,18,0.5,,,,,,,,,,,,,,,,,,0,19,19,17,1,,,,,,,,,,,,,,,,,,,,,,,
,,,,,V3_100,20,Female,2025-02-04_14h58.22.548,jersey_experiment_5_v3,2023.2.2,Win32,84.74576271,,,,,,,,,,,,,,,,854.3676,855.6615,855.6615,856.5259,return,0.1552,,49.609375,,,,,,FBP-YG-19.png,0.37,1.2,12,0.5,,,,,,,,,,,,,,,,,,0,20,20,11,1,,,,,,,,,,,,,,,,,,,,,,,
,,,,,V3_100,20,Female,2025-02-04_14h58.22.548,jersey_experiment_5_v3,2023.2.2,Win32,84.74576271,,,,,,,,,,,,,,,,856.5262,857.821,857.821,859.5388,return,0.2355,,30.46875,,,,,,FBP-PT-91.png,0.35,1.2,26,0.5,,,,,,,,,,,,,,,,,,0,21,21,25,1,,,,,,,,,,,,,,,,,,,,,,,
,,,,,V3_100,20,Female,2025-02-04_14h58.22.548,jersey_experiment_5_v3,2023.2.2,Win32,84.74576271,,,,,,,,,,,,,,,,859.5389,860.8304,860.8304,862.1947,return,0.1299,,49.47916667,,,,,,FBP-RB-91.png,0.4,1.2,58,0.5,,,,,,,,,,,,,,,,,,0,22,22,57,1,,,,,,,,,,,,,,,,,,,,,,,
,,,,,V3_100,20,Female,2025-02-04_14h58.22.548,jersey_experiment_5_v3,2023.2.2,Win32,84.74576271,,,,,,,,,,,,,,,,862.1949,863.4918,863.4918,866.3208,return,0.2612,,31.11979167,,,,,,FBP-PT-71.png,0.35,1.2,16,0.5,,,,,,,,,,,,,,,,,,0,23,23,15,1,,,,,,,,,,,,,,,,,,,,,,,
,,,,,V3_100,20,Female,2025-02-04_14h58.22.548,jersey_experiment_5_v3,2023.2.2,Win32,84.74576271,,,,,,,,,,,,,,,,866.321,867.6181,867.6181,869.383,return,0.244,,99.34895833,,,,,,FBP-RB-81.png,0.43,1.2,54,0.5,,,,,,,,,,,,,,,,,,0,24,24,53,1,,,,,,,,,,,,,,,,,,,,,,,
,,,,,V3_100,20,Female,2025-02-04_14h58.22.548,jersey_experiment_5_v3,2023.2.2,Win32,84.74576271,,,,,,,,,,,,,,,,869.3832,870.9274,870.9274,872.0075,return,0.092,,49.73958333,,,,,,FBP-OG-81.png,0.37,1.2,37,0.75,,,,,,,,,,,,,,,,,,0,25,25,36,1,,,,,,,,,,,,,,,,,,,,,,,
,,,,,V3_100,20,Female,2025-02-04_14h58.22.548,jersey_experiment_5_v3,2023.2.2,Win32,84.74576271,,,,,,,,,,,,,,,,872.0077,873.3039,873.304,875.326,return,0.3665,,99.21875,,,,,,FBP-PT-91.png,0.45,1.2,30,0.5,,,,,,,,,,,,,,,,,,0,26,26,29,1,,,,,,,,,,,,,,,,,,,,,,,
,,,,,V3_100,20,Female,2025-02-04_14h58.22.548,jersey_experiment_5_v3,2023.2.2,Win32,84.74576271,,,,,,,,,,,,,,,,875.3262,876.6305,876.6305,878.7161,return,0.9415,,49.47916667,,,,,,FBP-RB-71.png,0.4,1.2,48,0.5,,,,,,,,,,,,,,,,,,0,27,27,47,1,,,,,,,,,,,,,,,,,,,,,,,
,,,,,V3_100,20,Female,2025-02-04_14h58.22.548,jersey_experiment_5_v3,2023.2.2,Win32,84.74576271,,,,,,,,,,,,,,,,878.7162,880.0188,880.0188,881.374,return,0.2112,,50,,,,,,FBP-YG-17.png,0.37,1.2,2,0.5,,,,,,,,,,,,,,,,,,0,28,28,1,1,,,,,,,,,,,,,,,,,,,,,,,
,,,,,V3_100,20,Female,2025-02-04_14h58.22.548,jersey_experiment_5_v3,2023.2.2,Win32,84.74576271,,,,,,,,,,,,,,,,881.3742,882.6778,882.6779,883.8222,return,0.1564,,74.86979167,,,,,,FBP-RB-81.png,0.4,1.2,53,0.5,,,,,,,,,,,,,,,,,,0,29,29,52,1,,,,,,,,,,,,,,,,,,,,,,,
,,,,,V3_100,20,Female,2025-02-04_14h58.22.548,jersey_experiment_5_v3,2023.2.2,Win32,84.74576271,,,,,,,,,,,,,,,,883.8223,885.115,885.115,887.8782,return,0.1269,,38.671875,,,,,,FBP-YG-17.png,0.35,1.2,1,0.5,,,,,,,,,,,,,,,,,,0,30,30,0,1,,,,,,,,,,,,,,,,,,,,,,,
,,,,,V3_100,20,Female,2025-02-04_14h58.22.548,jersey_experiment_5_v3,2023.2.2,Win32,84.74576271,,,,,,,,,,,,,,,,887.8784,889.1719,889.1719,890.804,return,0.411,,99.08854167,,,,,,FBP-YG-17.png,0.45,1.2,5,0.5,,,,,,,,,,,,,,,,,,0,31,31,4,1,,,,,,,,,,,,,,,,,,,,,,,
,,,,,V3_100,20,Female,2025-02-04_14h58.22.548,jersey_experiment_5_v3,2023.2.2,Win32,84.74576271,,,,,,,,,,,,,,,,890.8043,892.1045,892.1045,893.0446,return,0.1166,,49.08854167,,,,,,FBP-PT-81.png,0.37,1.2,22,0.5,,,,,,,,,,,,,,,,,,0,32,32,21,1,,,,,,,,,,,,,,,,,,,,,,,
,,,,,V3_100,20,Female,2025-02-04_14h58.22.548,jersey_experiment_5_v3,2023.2.2,Win32,84.74576271,,,,,,,,,,,,,,,,893.0448,894.34,894.34,896.584,return,0.1287,,36.97916667,,,,,,FBP-YG-19.png,0.35,1.2,11,0.5,,,,,,,,,,,,,,,,,,0,33,33,10,1,,,,,,,,,,,,,,,,,,,,,,,
,,,,,V3_100,20,Female,2025-02-04_14h58.22.548,jersey_experiment_5_v3,2023.2.2,Win32,84.74576271,,,,,,,,,,,,,,,,896.5841,898.1283,898.1283,900.2228,return,0.1675,,32.8125,,,,,,FBP-OG-81.png,0.35,1.2,36,0.75,,,,,,,,,,,,,,,,,,0,34,34,35,1,,,,,,,,,,,,,,,,,,,,,,,
,,,,,V3_100,20,Female,2025-02-04_14h58.22.548,jersey_experiment_5_v3,2023.2.2,Win32,84.74576271,,,,,,,,,,,,,,,,900.2229,901.5167,901.5167,903.2669,return,0.2358,,33.59375,,,,,,FBP-RB-71.png,0.35,1.2,46,0.5,,,,,,,,,,,,,,,,,,0,35,35,45,1,,,,,,,,,,,,,,,,,,,,,,,
,,,,,V3_100,20,Female,2025-02-04_14h58.22.548,jersey_experiment_5_v3,2023.2.2,Win32,84.74576271,,,,,,,,,,,,,,,,903.267,904.5733,904.5734,906.467,return,0.1972,,93.359375,,,,,,FBP-YG-19.png,0.45,1.2,15,0.5,,,,,,,,,,,,,,,,,,0,36,36,14,1,,,,,,,,,,,,,,,,,,,,,,,
,,,,,V3_100,20,Female,2025-02-04_14h58.22.548,jersey_experiment_5_v3,2023.2.2,Win32,84.74576271,,,,,,,,,,,,,,,,906.4671,908.0197,908.0197,909.8786,return,0.2588,,49.86979167,,,,,,FBP-OG-71.png,0.37,1.2,32,0.75,,,,,,,,,,,,,,,,,,0,37,37,31,1,,,,,,,,,,,,,,,,,,,,,,,
,,,,,V3_100,20,Female,2025-02-04_14h58.22.548,jersey_experiment_5_v3,2023.2.2,Win32,84.74576271,,,,,,,,,,,,,,,,909.8787,911.1729,911.173,913.6795,return,0.7037,,99.86979167,,,,,,FBP-RB-91.png,0.45,1.2,60,0.5,,,,,,,,,,,,,,,,,,0,38,38,59,1,,,,,,,,,,,,,,,,,,,,,,,
,,,,,V3_100,20,Female,2025-02-04_14h58.22.548,jersey_experiment_5_v3,2023.2.2,Win32,84.74576271,,,,,,,,,,,,,,,,913.6796,914.976,914.9761,916.315,return,0.1625,,99.609375,,,,,,FBP-RB-71.png,0.43,1.2,49,0.5,,,,,,,,,,,,,,,,,,0,39,39,48,1,,,,,,,,,,,,,,,,,,,,,,,
,,,,,V3_100,20,Female,2025-02-04_14h58.22.548,jersey_experiment_5_v3,2023.2.2,Win32,84.74576271,,,,,,,,,,,,,,,,916.3151,917.6201,917.6201,918.4438,return,0.2123,,99.609375,,,,,,FBP-PT-81.png,0.45,1.2,25,0.5,,,,,,,,,,,,,,,,,,0,40,40,24,1,,,,,,,,,,,,,,,,,,,,,,,
,,,,,V3_100,20,Female,2025-02-04_14h58.22.548,jersey_experiment_5_v3,2023.2.2,Win32,84.74576271,,,,,,,,,,,,,,,,918.444,919.7378,919.7378,920.8824,return,0.5204,,99.609375,,,,,,FBP-PT-91.png,0.43,1.2,29,0.5,,,,,,,,,,,,,,,,,,0,41,41,28,1,,,,,,,,,,,,,,,,,,,,,,,
,,,,,V3_100,20,Female,2025-02-04_14h58.22.548,jersey_experiment_5_v3,2023.2.2,Win32,84.74576271,,,,,,,,,,,,,,,,920.8825,922.1765,922.1766,924.7501,return,0.1739,,99.86979167,,,,,,FBP-RB-81.png,0.45,1.2,55,0.5,,,,,,,,,,,,,,,,,,0,42,42,54,1,,,,,,,,,,,,,,,,,,,,,,,
,,,,,V3_100,20,Female,2025-02-04_14h58.22.548,jersey_experiment_5_v3,2023.2.2,Win32,84.74576271,,,,,,,,,,,,,,,,924.7503,926.0441,926.0442,927.3533,return,0.1414,,43.22916667,,,,,,FBP-YG-18.png,0.37,1.2,7,0.5,,,,,,,,,,,,,,,,,,0,43,43,6,1,,,,,,,,,,,,,,,,,,,,,,,
,,,,,V3_100,20,Female,2025-02-04_14h58.22.548,jersey_experiment_5_v3,2023.2.2,Win32,84.74576271,,,,,,,,,,,,,,,,927.3534,928.6461,928.6461,929.7467,return,0.1795,,50,,,,,,FBP-PT-91.png,0.4,1.2,28,0.5,,,,,,,,,,,,,,,,,,0,44,44,27,1,,,,,,,,,,,,,,,,,,,,,,,
,,,,,V3_100,20,Female,2025-02-04_14h58.22.548,jersey_experiment_5_v3,2023.2.2,Win32,84.74576271,,,,,,,,,,,,,,,,929.7469,931.0408,931.0408,932.5995,return,0.273,,50.13020833,,,,,,FBP-RB-81.png,0.37,1.2,52,0.5,,,,,,,,,,,,,,,,,,0,45,45,51,1,,,,,,,,,,,,,,,,,,,,,,,
,,,,,V3_100,20,Female,2025-02-04_14h58.22.548,jersey_experiment_5_v3,2023.2.2,Win32,84.74576271,,,,,,,,,,,,,,,,932.5996,933.9029,933.9029,934.8594,return,0.1564,,34.765625,,,,,,FBP-RB-81.png,0.35,1.2,51,0.5,,,,,,,,,,,,,,,,,,0,46,46,50,1,,,,,,,,,,,,,,,,,,,,,,,
,,,,,V3_100,20,Female,2025-02-04_14h58.22.548,jersey_experiment_5_v3,2023.2.2,Win32,84.74576271,,,,,,,,,,,,,,,,934.8595,936.4123,936.4123,937.3525,return,0.1788,,74.21875,,,,,,FBP-OG-91.png,0.43,1.2,44,0.75,,,,,,,,,,,,,,,,,,0,47,47,43,1,,,,,,,,,,,,,,,,,,,,,,,
,,,,,V3_100,20,Female,2025-02-04_14h58.22.548,jersey_experiment_5_v3,2023.2.2,Win32,84.74576271,,,,,,,,,,,,,,,,937.3526,938.6564,938.6564,939.9654,return,0.0858,,86.19791667,,,,,,FBP-YG-18.png,0.43,1.2,9,0.5,,,,,,,,,,,,,,,,,,0,48,48,8,1,,,,,,,,,,,,,,,,,,,,,,,
,,,,,V3_100,20,Female,2025-02-04_14h58.22.548,jersey_experiment_5_v3,2023.2.2,Win32,84.74576271,,,,,,,,,,,,,,,,939.9655,941.2593,941.2593,942.8176,return,0.19,,88.41145833,,,,,,FBP-PT-71.png,0.43,1.2,19,0.5,,,,,,,,,,,,,,,,,,0,49,49,18,1,,,,,,,,,,,,,,,,,,,,,,,
,,,,,V3_100,20,Female,2025-02-04_14h58.22.548,jersey_experiment_5_v3,2023.2.2,Win32,84.74576271,,,,,,,,,,,,,,,,942.8178,944.1152,944.1152,945.3538,return,0.1798,,87.76041667,,,,,,FBP-PT-81.png,0.43,1.2,24,0.5,,,,,,,,,,,,,,,,,,0,50,50,23,1,,,,,,,,,,,,,,,,,,,,,,,
,,,,,V3_100,20,Female,2025-02-04_14h58.22.548,jersey_experiment_5_v3,2023.2.2,Win32,84.74576271,,,,,,,,,,,,,,,,945.3539,946.6567,946.6567,948.7185,return,0.909,,50.52083333,,,,,,FBP-PT-91.png,0.37,1.2,27,0.5,,,,,,,,,,,,,,,,,,0,51,51,26,1,,,,,,,,,,,,,,,,,,,,,,,
,,,,,V3_100,20,Female,2025-02-04_14h58.22.548,jersey_experiment_5_v3,2023.2.2,Win32,84.74576271,,,,,,,,,,,,,,,,948.7186,950.2704,950.2705,951.234,return,0.1157,,49.609375,,,,,,FBP-OG-81.png,0.4,1.2,38,0.75,,,,,,,,,,,,,,,,,,0,52,52,37,1,,,,,,,,,,,,,,,,,,,,,,,
,,,,,V3_100,20,Female,2025-02-04_14h58.22.548,jersey_experiment_5_v3,2023.2.2,Win32,84.74576271,,,,,,,,,,,,,,,,951.2341,952.7869,952.7869,955.0099,return,0.1758,,64.71354167,,,,,,FBP-OG-71.png,0.4,1.2,33,0.75,,,,,,,,,,,,,,,,,,0,53,53,32,1,,,,,,,,,,,,,,,,,,,,,,,
,,,,,V3_100,20,Female,2025-02-04_14h58.22.548,jersey_experiment_5_v3,2023.2.2,Win32,84.74576271,,,,,,,,,,,,,,,,955.01,956.3037,956.3037,957.528,return,0.1293,,50.13020833,,,,,,FBP-PT-81.png,0.4,1.2,23,0.5,,,,,,,,,,,,,,,,,,0,54,54,22,1,,,,,,,,,,,,,,,,,,,,,,,
,,,,,V3_100,20,Female,2025-02-04_14h58.22.548,jersey_experiment_5_v3,2023.2.2,Win32,84.74576271,,,,,,,,,,,,,,,,957.5282,958.8218,958.8218,961.5192,return,0.3294,,34.24479167,,,,,,FBP-RB-91.png,0.37,1.2,57,0.5,,,,,,,,,,,,,,,,,,0,55,55,56,1,,,,,,,,,,,,,,,,,,,,,,,
,,,,,V3_100,20,Female,2025-02-04_14h58.22.548,jersey_experiment_5_v3,2023.2.2,Win32,84.74576271,,,,,,,,,,,,,,,,961.5193,963.0719,963.0719,963.731,return,0.0855,,24.73958333,,,,,,FBP-OG-71.png,0.35,1.2,31,0.75,,,,,,,,,,,,,,,,,,0,56,56,30,1,,,,,,,,,,,,,,,,,,,,,,,
,,,,,V3_100,20,Female,2025-02-04_14h58.22.548,jersey_experiment_5_v3,2023.2.2,Win32,84.74576271,,,,,,,,,,,,,,,,963.7311,965.0338,965.0338,967.0018,return,0.7769,,49.47916667,,,,,,FBP-YG-19.png,0.4,1.2,13,0.5,,,,,,,,,,,,,,,,,,0,57,57,12,1,,,,,,,,,,,,,,,,,,,,,,,
,,,,,V3_100,20,Female,2025-02-04_14h58.22.548,jersey_experiment_5_v3,2023.2.2,Win32,84.74576271,,,,,,,,,,,,,,,,967.002,968.5521,968.5521,969.7785,return,0.0624,,24.86979167,,,,,,FBP-OG-91.png,0.35,1.2,41,0.75,,,,,,,,,,,,,,,,,,0,58,58,40,1,,,,,,,,,,,,,,,,,,,,,,,
,,,,,V3_100,20,Female,2025-02-04_14h58.22.548,jersey_experiment_5_v3,2023.2.2,Win32,84.74576271,,,,,,,,,,,,,,,,969.7786,971.0811,971.0811,972.9401,return,0.1887,,74.73958333,,,,,,FBP-RB-91.png,0.43,1.2,59,0.5,,,,,,,,,,,,,,,,,,0,59,59,58,1,,,,,,,,,,,,,,,,,,,,,,,
,,,,,V3_100,20,Female,2025-02-04_14h58.22.548,jersey_experiment_5_v3,2023.2.2,Win32,84.74576271,,,,,,,,,,,,,,,,,,,,,,,,,,,,,,,,,,,,,,,,,,,,,,,,,,,,,,,,972.9402,986.9764,return,14.0239,,,,,,,,,,,,,,,,,,,
,,,,,V3_100,20,Female,2025-02-04_14h58.22.548,jersey_experiment_5_v3,2023.2.2,Win32,84.74576271,,,,,,,,,,,,,,,,,,,,,,,,,,,,,,,,,,,,,,,,,,,,,,,,,,,,,,,,,,,,,986.9764,991.2145,1,2.8813,return,1.3439,,,,,,,,,,,,
,,,,,V3_100,20,Female,2025-02-04_14h58.22.548,jersey_experiment_5_v3,2023.2.2,Win32,84.74576271,,,,,,,,,,,,,,,,,,,,,,,,,,,,,,,,,,,,,,,,,,,,,,,,,,,,,,,,,,,,,,,,,,,,991.2146,1030.0625,"red and green coloring, more vibrant colors which made it harder to adapt to the next color",right,34.3795,,,,,,
,,,,,V3_100,20,Female,2025-02-04_14h58.22.548,jersey_experiment_5_v3,2023.2.2,Win32,84.74576271,,,,,,,,,,,,,,,,,,,,,,,,,,,,,,,,,,,,,,,,,,,,,,,,,,,,,,,,,,,,,,,,,,,,,,,,,,1030.0625,1032.4374,return,2.3656,