requirements.started,requirements.stopped,key_resp_3.keys,key_resp_3.rt,key_resp_3.duration,Subject ID,Age,Gender,date,expName,psychopyVersion,OS,frameRate,instructions1.started,instructions1.stopped,key_resp.keys,key_resp.rt,key_resp.duration,example.started,example.stopped,enter_2.keys,enter_2.rt,enter_2.duration,instructions2.started,instructions2.stopped,enter_3.keys,enter_3.rt,enter_3.duration,image.started,image.stopped,slider_2.started,slider_2.stopped,next.keys,next.rt,next.duration,slider.response,trial_block_1.thisRepN,trial_block_1.thisTrialN,trial_block_1.thisN,trial_block_1.thisIndex,trial_block_1.ran,Path,Width,Height,Index,Duration,trial_block_2.thisRepN,trial_block_2.thisTrialN,trial_block_2.thisN,trial_block_2.thisIndex,trial_block_2.ran,rest_break.started,rest_break.stopped,end_break.started,end_break.stopped,key_resp_5.keys,key_resp_5.rt,key_resp_5.duration,trial_block_3.thisRepN,trial_block_3.thisTrialN,trial_block_3.thisN,trial_block_3.thisIndex,trial_block_3.ran,trial_block_4.thisRepN,trial_block_4.thisTrialN,trial_block_4.thisN,trial_block_4.thisIndex,trial_block_4.ran,questions_intro.started,questions_intro.stopped,enter_12.keys,enter_12.rt,enter_12.duration,question2.started,question2.stopped,question_doingbest.response,question_doingbest.rt,enter_15.keys,enter_15.rt,enter_15.duration,pattern.started,pattern.stopped,pattern_2.text,enter_17.keys,enter_17.rt,enter_17.duration,thankyou.started,thankyou.stopped,enter_14.keys,enter_14.rt,enter_14.duration
0.0001,10.2691,return,10.2641,,V3_104,18,F,2025-02-06_13h41.38.922,jersey_experiment_5_v3,2023.2.2,Win32,85.47008547,,,,,,,,,,,,,,,,,,,,,,,,,,,,,,,,,,,,,,,,,,,,,,,,,,,,,,,,,,,,,,,,,,,,,,,,,,,,,,
,,,,,V3_104,18,F,2025-02-06_13h41.38.922,jersey_experiment_5_v3,2023.2.2,Win32,85.47008547,10.2691,20.1482,return,9.8662,,,,,,,,,,,,,,,,,,,,,,,,,,,,,,,,,,,,,,,,,,,,,,,,,,,,,,,,,,,,,,,,,,,,,,,,,,
,,,,,V3_104,18,F,2025-02-06_13h41.38.922,jersey_experiment_5_v3,2023.2.2,Win32,85.47008547,,,,,,20.1483,23.419,return,3.2327,,,,,,,,,,,,,,,,,,,,,,,,,,,,,,,,,,,,,,,,,,,,,,,,,,,,,,,,,,,,,,,,,,,,,
,,,,,V3_104,18,F,2025-02-06_13h41.38.922,jersey_experiment_5_v3,2023.2.2,Win32,85.47008547,,,,,,,,,,,23.4191,47.8786,return,24.4507,,,,,,,,,,,,,,,,,,,,,,,,,,,,,,,,,,,,,,,,,,,,,,,,,,,,,,,,,,,,,,,,
,,,,,V3_104,18,F,2025-02-06_13h41.38.922,jersey_experiment_5_v3,2023.2.2,Win32,85.47008547,,,,,,,,,,,,,,,,47.8814,49.4318,49.4319,57.5967,return,5.6602,,50.26041667,0,0,0,48,1,FBP-RB-17.png,0.43,1.2,49,0.75,,,,,,,,,,,,,,,,,,,,,,,,,,,,,,,,,,,,,,,,,,,,,
,,,,,V3_104,18,F,2025-02-06_13h41.38.922,jersey_experiment_5_v3,2023.2.2,Win32,85.47008547,,,,,,,,,,,,,,,,57.597,59.1494,59.1495,61.8201,return,0.8327,,74.34895833,0,1,1,18,1,FBP-PT-17.png,0.43,1.2,19,0.75,,,,,,,,,,,,,,,,,,,,,,,,,,,,,,,,,,,,,,,,,,,,,
,,,,,V3_104,18,F,2025-02-06_13h41.38.922,jersey_experiment_5_v3,2023.2.2,Win32,85.47008547,,,,,,,,,,,,,,,,61.8204,63.3731,63.3732,65.3497,return,1.1906,,74.34895833,0,2,2,2,1,FBP-YG-71.png,0.4,1.2,3,0.75,,,,,,,,,,,,,,,,,,,,,,,,,,,,,,,,,,,,,,,,,,,,,
,,,,,V3_104,18,F,2025-02-06_13h41.38.922,jersey_experiment_5_v3,2023.2.2,Win32,85.47008547,,,,,,,,,,,,,,,,65.3499,66.9027,66.9028,69.6675,return,1.5968,,99.609375,0,3,3,49,1,FBP-RB-17.png,0.45,1.2,50,0.75,,,,,,,,,,,,,,,,,,,,,,,,,,,,,,,,,,,,,,,,,,,,,
,,,,,V3_104,18,F,2025-02-06_13h41.38.922,jersey_experiment_5_v3,2023.2.2,Win32,85.47008547,,,,,,,,,,,,,,,,69.6677,71.2205,71.2205,72.6912,return,0.6773,,98.69791667,0,4,4,52,1,FBP-RB-18.png,0.4,1.2,53,0.75,,,,,,,,,,,,,,,,,,,,,,,,,,,,,,,,,,,,,,,,,,,,,
,,,,,V3_104,18,F,2025-02-06_13h41.38.922,jersey_experiment_5_v3,2023.2.2,Win32,85.47008547,,,,,,,,,,,,,,,,72.6914,74.244,74.2442,76.8207,return,1.0297,,24.34895833,0,5,5,21,1,FBP-PT-18.png,0.37,1.2,22,0.75,,,,,,,,,,,,,,,,,,,,,,,,,,,,,,,,,,,,,,,,,,,,,
,,,,,V3_104,18,F,2025-02-06_13h41.38.922,jersey_experiment_5_v3,2023.2.2,Win32,85.47008547,,,,,,,,,,,,,,,,76.8209,78.3737,78.3737,80.5855,return,0.732,,99.47916667,0,6,6,19,1,FBP-PT-17.png,0.45,1.2,20,0.75,,,,,,,,,,,,,,,,,,,,,,,,,,,,,,,,,,,,,,,,,,,,,
,,,,,V3_104,18,F,2025-02-06_13h41.38.922,jersey_experiment_5_v3,2023.2.2,Win32,85.47008547,,,,,,,,,,,,,,,,80.5859,82.1386,82.1386,83.762,return,0.5853,,74.73958333,0,7,7,57,1,FBP-RB-19.png,0.4,1.2,58,0.75,,,,,,,,,,,,,,,,,,,,,,,,,,,,,,,,,,,,,,,,,,,,,
,,,,,V3_104,18,F,2025-02-06_13h41.38.922,jersey_experiment_5_v3,2023.2.2,Win32,85.47008547,,,,,,,,,,,,,,,,83.7621,85.315,85.315,88.5975,return,0.4998,,49.47916667,0,8,8,56,1,FBP-RB-19.png,0.37,1.2,57,0.75,,,,,,,,,,,,,,,,,,,,,,,,,,,,,,,,,,,,,,,,,,,,,
,,,,,V3_104,18,F,2025-02-06_13h41.38.922,jersey_experiment_5_v3,2023.2.2,Win32,85.47008547,,,,,,,,,,,,,,,,88.5976,90.1506,90.1506,92.0683,return,0.5365,,0.260416667,0,9,9,5,1,FBP-YG-81.png,0.35,1.2,6,0.75,,,,,,,,,,,,,,,,,,,,,,,,,,,,,,,,,,,,,,,,,,,,,
,,,,,V3_104,18,F,2025-02-06_13h41.38.922,jersey_experiment_5_v3,2023.2.2,Win32,85.47008547,,,,,,,,,,,,,,,,92.0685,93.3627,93.3627,95.6684,return,0.889,,99.21875,0,10,10,32,1,FBP-OG-17.png,0.4,1.2,33,0.5,,,,,,,,,,,,,,,,,,,,,,,,,,,,,,,,,,,,,,,,,,,,,
,,,,,V3_104,18,F,2025-02-06_13h41.38.922,jersey_experiment_5_v3,2023.2.2,Win32,85.47008547,,,,,,,,,,,,,,,,95.6686,97.2214,97.2214,101.1627,return,2.5419,,25.13020833,0,11,11,10,1,FBP-YG-91.png,0.35,1.2,11,0.75,,,,,,,,,,,,,,,,,,,,,,,,,,,,,,,,,,,,,,,,,,,,,
,,,,,V3_104,18,F,2025-02-06_13h41.38.922,jersey_experiment_5_v3,2023.2.2,Win32,85.47008547,,,,,,,,,,,,,,,,101.1628,102.7041,102.7041,105.1628,return,0.7875,,99.73958333,0,12,12,29,1,FBP-PT-19.png,0.45,1.2,30,0.75,,,,,,,,,,,,,,,,,,,,,,,,,,,,,,,,,,,,,,,,,,,,,
,,,,,V3_104,18,F,2025-02-06_13h41.38.922,jersey_experiment_5_v3,2023.2.2,Win32,85.47008547,,,,,,,,,,,,,,,,105.163,106.716,106.7161,116.6691,return,0.518,,1.432291667,0,13,13,50,1,FBP-RB-18.png,0.35,1.2,51,0.75,,,,,,,,,,,,,,,,,,,,,,,,,,,,,,,,,,,,,,,,,,,,,
,,,,,V3_104,18,F,2025-02-06_13h41.38.922,jersey_experiment_5_v3,2023.2.2,Win32,85.47008547,,,,,,,,,,,,,,,,116.6693,118.2222,118.2223,120.3634,return,0.7065,,99.86979167,0,14,14,54,1,FBP-RB-18.png,0.45,1.2,55,0.75,,,,,,,,,,,,,,,,,,,,,,,,,,,,,,,,,,,,,,,,,,,,,
,,,,,V3_104,18,F,2025-02-06_13h41.38.922,jersey_experiment_5_v3,2023.2.2,Win32,85.47008547,,,,,,,,,,,,,,,,120.3636,121.9165,121.9167,125.6342,return,1.5003,,12.36979167,0,15,15,6,1,FBP-YG-81.png,0.37,1.2,7,0.75,,,,,,,,,,,,,,,,,,,,,,,,,,,,,,,,,,,,,,,,,,,,,
,,,,,V3_104,18,F,2025-02-06_13h41.38.922,jersey_experiment_5_v3,2023.2.2,Win32,85.47008547,,,,,,,,,,,,,,,,125.6343,127.1871,127.1872,130.2109,return,0.5846,,0.130208333,0,16,16,20,1,FBP-PT-18.png,0.35,1.2,21,0.75,,,,,,,,,,,,,,,,,,,,,,,,,,,,,,,,,,,,,,,,,,,,,
,,,,,V3_104,18,F,2025-02-06_13h41.38.922,jersey_experiment_5_v3,2023.2.2,Win32,85.47008547,,,,,,,,,,,,,,,,130.2111,131.7638,131.7639,134.3285,return,0.6031,,50.13020833,0,17,17,15,1,FBP-PT-17.png,0.35,1.2,16,0.75,,,,,,,,,,,,,,,,,,,,,,,,,,,,,,,,,,,,,,,,,,,,,
,,,,,V3_104,18,F,2025-02-06_13h41.38.922,jersey_experiment_5_v3,2023.2.2,Win32,85.47008547,,,,,,,,,,,,,,,,134.3288,135.8816,135.8816,145.2348,return,0.4083,,1.041666667,0,18,18,45,1,FBP-RB-17.png,0.35,1.2,46,0.75,,,,,,,,,,,,,,,,,,,,,,,,,,,,,,,,,,,,,,,,,,,,,
,,,,,V3_104,18,F,2025-02-06_13h41.38.922,jersey_experiment_5_v3,2023.2.2,Win32,85.47008547,,,,,,,,,,,,,,,,145.2351,146.7879,146.7879,149.5173,return,0.7621,,99.47916667,0,19,19,7,1,FBP-YG-81.png,0.4,1.2,8,0.75,,,,,,,,,,,,,,,,,,,,,,,,,,,,,,,,,,,,,,,,,,,,,
,,,,,V3_104,18,F,2025-02-06_13h41.38.922,jersey_experiment_5_v3,2023.2.2,Win32,85.47008547,,,,,,,,,,,,,,,,149.5175,151.0706,151.0706,155.9764,return,0.603,,63.28125,0,20,20,26,1,FBP-PT-19.png,0.37,1.2,27,0.75,,,,,,,,,,,,,,,,,,,,,,,,,,,,,,,,,,,,,,,,,,,,,
,,,,,V3_104,18,F,2025-02-06_13h41.38.922,jersey_experiment_5_v3,2023.2.2,Win32,85.47008547,,,,,,,,,,,,,,,,155.9766,157.5297,157.5297,160.2001,return,1.1564,,89.97395833,0,21,21,22,1,FBP-PT-18.png,0.4,1.2,23,0.75,,,,,,,,,,,,,,,,,,,,,,,,,,,,,,,,,,,,,,,,,,,,,
,,,,,V3_104,18,F,2025-02-06_13h41.38.922,jersey_experiment_5_v3,2023.2.2,Win32,85.47008547,,,,,,,,,,,,,,,,160.2002,161.4943,161.4943,163.0591,return,0.5145,,99.86979167,0,22,22,42,1,FBP-OG-19.png,0.4,1.2,43,0.5,,,,,,,,,,,,,,,,,,,,,,,,,,,,,,,,,,,,,,,,,,,,,
,,,,,V3_104,18,F,2025-02-06_13h41.38.922,jersey_experiment_5_v3,2023.2.2,Win32,85.47008547,,,,,,,,,,,,,,,,163.0592,164.612,164.6121,166.059,return,0.4235,,99.73958333,0,23,23,24,1,FBP-PT-18.png,0.45,1.2,25,0.75,,,,,,,,,,,,,,,,,,,,,,,,,,,,,,,,,,,,,,,,,,,,,
,,,,,V3_104,18,F,2025-02-06_13h41.38.922,jersey_experiment_5_v3,2023.2.2,Win32,85.47008547,,,,,,,,,,,,,,,,166.0592,167.612,167.612,168.7062,return,0.4681,,99.73958333,0,24,24,59,1,FBP-RB-19.png,0.45,1.2,60,0.75,,,,,,,,,,,,,,,,,,,,,,,,,,,,,,,,,,,,,,,,,,,,,
,,,,,V3_104,18,F,2025-02-06_13h41.38.922,jersey_experiment_5_v3,2023.2.2,Win32,85.47008547,,,,,,,,,,,,,,,,168.7064,170.2593,170.2593,172.2592,return,0.5606,,88.80208333,0,25,25,53,1,FBP-RB-18.png,0.43,1.2,54,0.75,,,,,,,,,,,,,,,,,,,,,,,,,,,,,,,,,,,,,,,,,,,,,
,,,,,V3_104,18,F,2025-02-06_13h41.38.922,jersey_experiment_5_v3,2023.2.2,Win32,85.47008547,,,,,,,,,,,,,,,,172.2594,173.8123,173.8123,177.2712,return,1.3333,,84.89583333,0,26,26,28,1,FBP-PT-19.png,0.43,1.2,29,0.75,,,,,,,,,,,,,,,,,,,,,,,,,,,,,,,,,,,,,,,,,,,,,
,,,,,V3_104,18,F,2025-02-06_13h41.38.922,jersey_experiment_5_v3,2023.2.2,Win32,85.47008547,,,,,,,,,,,,,,,,177.2715,178.8242,178.8242,182.742,return,0.3433,,58.203125,0,27,27,1,1,FBP-YG-71.png,0.37,1.2,2,0.75,,,,,,,,,,,,,,,,,,,,,,,,,,,,,,,,,,,,,,,,,,,,,
,,,,,V3_104,18,F,2025-02-06_13h41.38.922,jersey_experiment_5_v3,2023.2.2,Win32,85.47008547,,,,,,,,,,,,,,,,182.7423,184.2949,184.2949,185.7538,return,0.4248,,24.609375,0,28,28,0,1,FBP-YG-71.png,0.35,1.2,1,0.75,,,,,,,,,,,,,,,,,,,,,,,,,,,,,,,,,,,,,,,,,,,,,
,,,,,V3_104,18,F,2025-02-06_13h41.38.922,jersey_experiment_5_v3,2023.2.2,Win32,85.47008547,,,,,,,,,,,,,,,,185.754,187.307,187.3071,189.4481,return,0.5548,,88.54166667,0,29,29,3,1,FBP-YG-71.png,0.43,1.2,4,0.75,,,,,,,,,,,,,,,,,,,,,,,,,,,,,,,,,,,,,,,,,,,,,
,,,,,V3_104,18,F,2025-02-06_13h41.38.922,jersey_experiment_5_v3,2023.2.2,Win32,85.47008547,,,,,,,,,,,,,,,,189.4483,190.7423,190.7423,192.6482,return,0.4031,,10.28645833,0,30,30,35,1,FBP-OG-18.png,0.35,1.2,36,0.5,,,,,,,,,,,,,,,,,,,,,,,,,,,,,,,,,,,,,,,,,,,,,
,,,,,V3_104,18,F,2025-02-06_13h41.38.922,jersey_experiment_5_v3,2023.2.2,Win32,85.47008547,,,,,,,,,,,,,,,,192.6484,194.2012,194.2012,195.6835,return,0.8183,,10.28645833,0,31,31,16,1,FBP-PT-17.png,0.37,1.2,17,0.75,,,,,,,,,,,,,,,,,,,,,,,,,,,,,,,,,,,,,,,,,,,,,
,,,,,V3_104,18,F,2025-02-06_13h41.38.922,jersey_experiment_5_v3,2023.2.2,Win32,85.47008547,,,,,,,,,,,,,,,,195.6837,197.2366,197.2366,199.2366,return,0.4766,,89.0625,0,32,32,12,1,FBP-YG-91.png,0.4,1.2,13,0.75,,,,,,,,,,,,,,,,,,,,,,,,,,,,,,,,,,,,,,,,,,,,,
,,,,,V3_104,18,F,2025-02-06_13h41.38.922,jersey_experiment_5_v3,2023.2.2,Win32,85.47008547,,,,,,,,,,,,,,,,199.2368,200.7898,200.7899,203.5427,return,0.5786,,99.609375,0,33,33,58,1,FBP-RB-19.png,0.43,1.2,59,0.75,,,,,,,,,,,,,,,,,,,,,,,,,,,,,,,,,,,,,,,,,,,,,
,,,,,V3_104,18,F,2025-02-06_13h41.38.922,jersey_experiment_5_v3,2023.2.2,Win32,85.47008547,,,,,,,,,,,,,,,,203.5429,205.0958,205.0958,206.9781,return,0.7619,,99.34895833,0,34,34,23,1,FBP-PT-18.png,0.43,1.2,24,0.75,,,,,,,,,,,,,,,,,,,,,,,,,,,,,,,,,,,,,,,,,,,,,
,,,,,V3_104,18,F,2025-02-06_13h41.38.922,jersey_experiment_5_v3,2023.2.2,Win32,85.47008547,,,,,,,,,,,,,,,,206.9783,208.2723,208.2724,211.0489,return,0.5543,,0.130208333,0,35,35,41,1,FBP-OG-19.png,0.37,1.2,42,0.5,,,,,,,,,,,,,,,,,,,,,,,,,,,,,,,,,,,,,,,,,,,,,
,,,,,V3_104,18,F,2025-02-06_13h41.38.922,jersey_experiment_5_v3,2023.2.2,Win32,85.47008547,,,,,,,,,,,,,,,,211.049,212.343,212.343,214.4372,return,0.5473,,99.73958333,0,36,36,39,1,FBP-OG-18.png,0.45,1.2,40,0.5,,,,,,,,,,,,,,,,,,,,,,,,,,,,,,,,,,,,,,,,,,,,,
,,,,,V3_104,18,F,2025-02-06_13h41.38.922,jersey_experiment_5_v3,2023.2.2,Win32,85.47008547,,,,,,,,,,,,,,,,214.4373,215.9904,215.9904,217.8138,return,0.6053,,74.86979167,0,37,37,9,1,FBP-YG-81.png,0.45,1.2,10,0.75,,,,,,,,,,,,,,,,,,,,,,,,,,,,,,,,,,,,,,,,,,,,,
,,,,,V3_104,18,F,2025-02-06_13h41.38.922,jersey_experiment_5_v3,2023.2.2,Win32,85.47008547,,,,,,,,,,,,,,,,217.8139,219.3552,219.3553,221.1433,return,0.6628,,24.73958333,0,38,38,55,1,FBP-RB-19.png,0.35,1.2,56,0.75,,,,,,,,,,,,,,,,,,,,,,,,,,,,,,,,,,,,,,,,,,,,,
,,,,,V3_104,18,F,2025-02-06_13h41.38.922,jersey_experiment_5_v3,2023.2.2,Win32,85.47008547,,,,,,,,,,,,,,,,221.1435,222.6964,222.6964,227.1907,return,2.439,,52.734375,0,39,39,46,1,FBP-RB-17.png,0.37,1.2,47,0.75,,,,,,,,,,,,,,,,,,,,,,,,,,,,,,,,,,,,,,,,,,,,,
,,,,,V3_104,18,F,2025-02-06_13h41.38.922,jersey_experiment_5_v3,2023.2.2,Win32,85.47008547,,,,,,,,,,,,,,,,227.1909,228.4849,228.4849,231.3083,return,1.2713,,90.234375,0,40,40,34,1,FBP-OG-17.png,0.45,1.2,35,0.5,,,,,,,,,,,,,,,,,,,,,,,,,,,,,,,,,,,,,,,,,,,,,
,,,,,V3_104,18,F,2025-02-06_13h41.38.922,jersey_experiment_5_v3,2023.2.2,Win32,85.47008547,,,,,,,,,,,,,,,,231.3085,232.6026,232.6026,235.5908,return,0.6397,,94.40104167,0,41,41,44,1,FBP-OG-19.png,0.45,1.2,45,0.5,,,,,,,,,,,,,,,,,,,,,,,,,,,,,,,,,,,,,,,,,,,,,
,,,,,V3_104,18,F,2025-02-06_13h41.38.922,jersey_experiment_5_v3,2023.2.2,Win32,85.47008547,,,,,,,,,,,,,,,,235.591,236.885,236.885,240.6617,return,1.8765,,66.015625,0,42,42,37,1,FBP-OG-18.png,0.4,1.2,38,0.5,,,,,,,,,,,,,,,,,,,,,,,,,,,,,,,,,,,,,,,,,,,,,
,,,,,V3_104,18,F,2025-02-06_13h41.38.922,jersey_experiment_5_v3,2023.2.2,Win32,85.47008547,,,,,,,,,,,,,,,,240.6619,242.2147,242.2147,251.3091,return,1.752,,61.45833333,0,43,43,11,1,FBP-YG-91.png,0.37,1.2,12,0.75,,,,,,,,,,,,,,,,,,,,,,,,,,,,,,,,,,,,,,,,,,,,,
,,,,,V3_104,18,F,2025-02-06_13h41.38.922,jersey_experiment_5_v3,2023.2.2,Win32,85.47008547,,,,,,,,,,,,,,,,251.3093,252.8623,252.8623,254.6151,return,0.6385,,99.86979167,0,44,44,8,1,FBP-YG-81.png,0.43,1.2,9,0.75,,,,,,,,,,,,,,,,,,,,,,,,,,,,,,,,,,,,,,,,,,,,,
,,,,,V3_104,18,F,2025-02-06_13h41.38.922,jersey_experiment_5_v3,2023.2.2,Win32,85.47008547,,,,,,,,,,,,,,,,254.6152,256.1681,256.1681,260.8271,return,0.7059,,54.6875,0,45,45,17,1,FBP-PT-17.png,0.4,1.2,18,0.75,,,,,,,,,,,,,,,,,,,,,,,,,,,,,,,,,,,,,,,,,,,,,
,,,,,V3_104,18,F,2025-02-06_13h41.38.922,jersey_experiment_5_v3,2023.2.2,Win32,85.47008547,,,,,,,,,,,,,,,,260.8273,262.1212,262.1212,263.8624,return,0.5092,,75,0,46,46,33,1,FBP-OG-17.png,0.43,1.2,34,0.5,,,,,,,,,,,,,,,,,,,,,,,,,,,,,,,,,,,,,,,,,,,,,
,,,,,V3_104,18,F,2025-02-06_13h41.38.922,jersey_experiment_5_v3,2023.2.2,Win32,85.47008547,,,,,,,,,,,,,,,,263.8626,265.4038,265.4038,268.2274,return,0.4404,,74.73958333,0,47,47,13,1,FBP-YG-91.png,0.43,1.2,14,0.75,,,,,,,,,,,,,,,,,,,,,,,,,,,,,,,,,,,,,,,,,,,,,
,,,,,V3_104,18,F,2025-02-06_13h41.38.922,jersey_experiment_5_v3,2023.2.2,Win32,85.47008547,,,,,,,,,,,,,,,,268.2276,269.7803,269.7803,272.3568,return,0.5927,,24.86979167,0,48,48,25,1,FBP-PT-19.png,0.35,1.2,26,0.75,,,,,,,,,,,,,,,,,,,,,,,,,,,,,,,,,,,,,,,,,,,,,
,,,,,V3_104,18,F,2025-02-06_13h41.38.922,jersey_experiment_5_v3,2023.2.2,Win32,85.47008547,,,,,,,,,,,,,,,,272.357,273.91,273.91,276.5688,return,0.626,,88.54166667,0,49,49,47,1,FBP-RB-17.png,0.4,1.2,48,0.75,,,,,,,,,,,,,,,,,,,,,,,,,,,,,,,,,,,,,,,,,,,,,
,,,,,V3_104,18,F,2025-02-06_13h41.38.922,jersey_experiment_5_v3,2023.2.2,Win32,85.47008547,,,,,,,,,,,,,,,,276.5689,277.8631,277.8631,281.4044,return,0.4475,,49.86979167,0,50,50,30,1,FBP-OG-17.png,0.35,1.2,31,0.5,,,,,,,,,,,,,,,,,,,,,,,,,,,,,,,,,,,,,,,,,,,,,
,,,,,V3_104,18,F,2025-02-06_13h41.38.922,jersey_experiment_5_v3,2023.2.2,Win32,85.47008547,,,,,,,,,,,,,,,,281.4045,282.9572,282.9572,283.7691,return,0.3214,,49.86979167,0,51,51,51,1,FBP-RB-18.png,0.37,1.2,52,0.75,,,,,,,,,,,,,,,,,,,,,,,,,,,,,,,,,,,,,,,,,,,,,
,,,,,V3_104,18,F,2025-02-06_13h41.38.922,jersey_experiment_5_v3,2023.2.2,Win32,85.47008547,,,,,,,,,,,,,,,,283.7693,285.0632,285.0632,289.0987,return,2.5271,,12.5,0,52,52,40,1,FBP-OG-19.png,0.35,1.2,41,0.5,,,,,,,,,,,,,,,,,,,,,,,,,,,,,,,,,,,,,,,,,,,,,
,,,,,V3_104,18,F,2025-02-06_13h41.38.922,jersey_experiment_5_v3,2023.2.2,Win32,85.47008547,,,,,,,,,,,,,,,,289.0988,290.3928,290.3929,292.2753,return,0.6904,,99.86979167,0,53,53,43,1,FBP-OG-19.png,0.43,1.2,44,0.5,,,,,,,,,,,,,,,,,,,,,,,,,,,,,,,,,,,,,,,,,,,,,
,,,,,V3_104,18,F,2025-02-06_13h41.38.922,jersey_experiment_5_v3,2023.2.2,Win32,85.47008547,,,,,,,,,,,,,,,,292.2754,293.5694,293.5694,295.571,return,0.6458,,24.73958333,0,54,54,31,1,FBP-OG-17.png,0.37,1.2,32,0.5,,,,,,,,,,,,,,,,,,,,,,,,,,,,,,,,,,,,,,,,,,,,,
,,,,,V3_104,18,F,2025-02-06_13h41.38.922,jersey_experiment_5_v3,2023.2.2,Win32,85.47008547,,,,,,,,,,,,,,,,295.5712,297.1226,297.1226,298.7931,return,0.6006,,99.73958333,0,55,55,4,1,FBP-YG-71.png,0.45,1.2,5,0.75,,,,,,,,,,,,,,,,,,,,,,,,,,,,,,,,,,,,,,,,,,,,,
,,,,,V3_104,18,F,2025-02-06_13h41.38.922,jersey_experiment_5_v3,2023.2.2,Win32,85.47008547,,,,,,,,,,,,,,,,298.7933,300.3462,300.3463,301.4168,return,0.59,,99.21875,0,56,56,14,1,FBP-YG-91.png,0.45,1.2,15,0.75,,,,,,,,,,,,,,,,,,,,,,,,,,,,,,,,,,,,,,,,,,,,,
,,,,,V3_104,18,F,2025-02-06_13h41.38.922,jersey_experiment_5_v3,2023.2.2,Win32,85.47008547,,,,,,,,,,,,,,,,301.417,302.9698,302.9698,304.6757,return,0.7838,,74.73958333,0,57,57,27,1,FBP-PT-19.png,0.4,1.2,28,0.75,,,,,,,,,,,,,,,,,,,,,,,,,,,,,,,,,,,,,,,,,,,,,
,,,,,V3_104,18,F,2025-02-06_13h41.38.922,jersey_experiment_5_v3,2023.2.2,Win32,85.47008547,,,,,,,,,,,,,,,,304.6758,305.9698,305.9698,306.9818,return,0.4611,,74.73958333,0,58,58,38,1,FBP-OG-18.png,0.43,1.2,39,0.5,,,,,,,,,,,,,,,,,,,,,,,,,,,,,,,,,,,,,,,,,,,,,
,,,,,V3_104,18,F,2025-02-06_13h41.38.922,jersey_experiment_5_v3,2023.2.2,Win32,85.47008547,,,,,,,,,,,,,,,,306.9821,308.2758,308.2758,310.0995,return,0.6382,,50,0,59,59,36,1,FBP-OG-18.png,0.37,1.2,37,0.5,,,,,,,,,,,,,,,,,,,,,,,,,,,,,,,,,,,,,,,,,,,,,
,,,,,V3_104,18,F,2025-02-06_13h41.38.922,jersey_experiment_5_v3,2023.2.2,Win32,85.47008547,,,,,,,,,,,,,,,,310.1015,311.6526,311.6526,313.029,return,0.4065,,25,,,,,,FBP-PT-81.png,0.37,1.2,22,0.75,0,0,0,21,1,,,,,,,,,,,,,,,,,,,,,,,,,,,,,,,,,,,,,,,,
,,,,,V3_104,18,F,2025-02-06_13h41.38.922,jersey_experiment_5_v3,2023.2.2,Win32,85.47008547,,,,,,,,,,,,,,,,313.0292,314.5821,314.5821,316.0291,return,0.5549,,99.86979167,,,,,,FBP-PT-91.png,0.43,1.2,29,0.75,0,1,1,28,1,,,,,,,,,,,,,,,,,,,,,,,,,,,,,,,,,,,,,,,,
,,,,,V3_104,18,F,2025-02-06_13h41.38.922,jersey_experiment_5_v3,2023.2.2,Win32,85.47008547,,,,,,,,,,,,,,,,316.0294,317.5821,317.5822,324.0293,return,4.6983,,99.34895833,,,,,,FBP-RB-71.png,0.45,1.2,50,0.75,0,2,2,49,1,,,,,,,,,,,,,,,,,,,,,,,,,,,,,,,,,,,,,,,,
,,,,,V3_104,18,F,2025-02-06_13h41.38.922,jersey_experiment_5_v3,2023.2.2,Win32,85.47008547,,,,,,,,,,,,,,,,324.0294,325.5825,325.5825,328.712,return,0.3678,,61.328125,,,,,,FBP-YG-17.png,0.4,1.2,3,0.75,0,3,3,2,1,,,,,,,,,,,,,,,,,,,,,,,,,,,,,,,,,,,,,,,,
,,,,,V3_104,18,F,2025-02-06_13h41.38.922,jersey_experiment_5_v3,2023.2.2,Win32,85.47008547,,,,,,,,,,,,,,,,328.7123,330.0061,330.0062,331.6178,return,0.6917,,99.08854167,,,,,,FBP-OG-91.png,0.45,1.2,45,0.5,0,4,4,44,1,,,,,,,,,,,,,,,,,,,,,,,,,,,,,,,,,,,,,,,,
,,,,,V3_104,18,F,2025-02-06_13h41.38.922,jersey_experiment_5_v3,2023.2.2,Win32,85.47008547,,,,,,,,,,,,,,,,331.6182,332.9181,332.9181,334.5977,return,0.5181,,49.73958333,,,,,,FBP-OG-71.png,0.4,1.2,33,0.5,0,5,5,32,1,,,,,,,,,,,,,,,,,,,,,,,,,,,,,,,,,,,,,,,,
,,,,,V3_104,18,F,2025-02-06_13h41.38.922,jersey_experiment_5_v3,2023.2.2,Win32,85.47008547,,,,,,,,,,,,,,,,334.5978,336.1419,336.1419,339.0345,return,0.5426,,56.640625,,,,,,FBP-RB-81.png,0.4,1.2,53,0.75,0,6,6,52,1,,,,,,,,,,,,,,,,,,,,,,,,,,,,,,,,,,,,,,,,
,,,,,V3_104,18,F,2025-02-06_13h41.38.922,jersey_experiment_5_v3,2023.2.2,Win32,85.47008547,,,,,,,,,,,,,,,,339.0346,340.5867,340.5867,341.9391,return,0.4473,,75,,,,,,FBP-RB-81.png,0.43,1.2,54,0.75,0,7,7,53,1,,,,,,,,,,,,,,,,,,,,,,,,,,,,,,,,,,,,,,,,
,,,,,V3_104,18,F,2025-02-06_13h41.38.922,jersey_experiment_5_v3,2023.2.2,Win32,85.47008547,,,,,,,,,,,,,,,,341.9392,343.4815,343.4815,346.8001,return,0.8228,,65.625,,,,,,FBP-YG-18.png,0.4,1.2,8,0.75,0,8,8,7,1,,,,,,,,,,,,,,,,,,,,,,,,,,,,,,,,,,,,,,,,
,,,,,V3_104,18,F,2025-02-06_13h41.38.922,jersey_experiment_5_v3,2023.2.2,Win32,85.47008547,,,,,,,,,,,,,,,,346.8002,348.104,348.104,349.6539,return,0.5343,,23.828125,,,,,,FBP-OG-81.png,0.35,1.2,36,0.5,0,9,9,35,1,,,,,,,,,,,,,,,,,,,,,,,,,,,,,,,,,,,,,,,,
,,,,,V3_104,18,F,2025-02-06_13h41.38.922,jersey_experiment_5_v3,2023.2.2,Win32,85.47008547,,,,,,,,,,,,,,,,349.6542,350.9512,350.9512,355.5073,return,2.9561,,10.67708333,,,,,,FBP-OG-91.png,0.37,1.2,42,0.5,0,10,10,41,1,,,,,,,,,,,,,,,,,,,,,,,,,,,,,,,,,,,,,,,,
,,,,,V3_104,18,F,2025-02-06_13h41.38.922,jersey_experiment_5_v3,2023.2.2,Win32,85.47008547,,,,,,,,,,,,,,,,355.5075,357.059,357.059,358.8103,return,0.5884,,0.260416667,,,,,,FBP-PT-71.png,0.35,1.2,16,0.75,0,11,11,15,1,,,,,,,,,,,,,,,,,,,,,,,,,,,,,,,,,,,,,,,,
,,,,,V3_104,18,F,2025-02-06_13h41.38.922,jersey_experiment_5_v3,2023.2.2,Win32,85.47008547,,,,,,,,,,,,,,,,358.8105,360.3542,360.3542,361.4307,return,0.6009,,0.130208333,,,,,,FBP-RB-91.png,0.35,1.2,56,0.75,0,12,12,55,1,,,,,,,,,,,,,,,,,,,,,,,,,,,,,,,,,,,,,,,,
,,,,,V3_104,18,F,2025-02-06_13h41.38.922,jersey_experiment_5_v3,2023.2.2,Win32,85.47008547,,,,,,,,,,,,,,,,361.4309,362.975,362.975,364.9754,return,0.5279,,75.26041667,,,,,,FBP-RB-71.png,0.4,1.2,48,0.75,0,13,13,47,1,,,,,,,,,,,,,,,,,,,,,,,,,,,,,,,,,,,,,,,,
,,,,,V3_104,18,F,2025-02-06_13h41.38.922,jersey_experiment_5_v3,2023.2.2,Win32,85.47008547,,,,,,,,,,,,,,,,364.9756,366.5199,366.52,368.1988,return,0.6203,,99.47916667,,,,,,FBP-RB-91.png,0.45,1.2,60,0.75,0,14,14,59,1,,,,,,,,,,,,,,,,,,,,,,,,,,,,,,,,,,,,,,,,
,,,,,V3_104,18,F,2025-02-06_13h41.38.922,jersey_experiment_5_v3,2023.2.2,Win32,85.47008547,,,,,,,,,,,,,,,,368.199,369.7419,369.7419,374.7769,return,0.6251,,0.651041667,,,,,,FBP-PT-91.png,0.35,1.2,26,0.75,0,15,15,25,1,,,,,,,,,,,,,,,,,,,,,,,,,,,,,,,,,,,,,,,,
,,,,,V3_104,18,F,2025-02-06_13h41.38.922,jersey_experiment_5_v3,2023.2.2,Win32,85.47008547,,,,,,,,,,,,,,,,374.777,376.3297,376.3297,378.1959,return,0.395,,75,,,,,,FBP-PT-71.png,0.4,1.2,18,0.75,0,16,16,17,1,,,,,,,,,,,,,,,,,,,,,,,,,,,,,,,,,,,,,,,,
,,,,,V3_104,18,F,2025-02-06_13h41.38.922,jersey_experiment_5_v3,2023.2.2,Win32,85.47008547,,,,,,,,,,,,,,,,378.1962,379.7433,379.7434,381.8939,return,0.3381,,24.73958333,,,,,,FBP-YG-17.png,0.35,1.2,1,0.75,0,17,17,0,1,,,,,,,,,,,,,,,,,,,,,,,,,,,,,,,,,,,,,,,,
,,,,,V3_104,18,F,2025-02-06_13h41.38.922,jersey_experiment_5_v3,2023.2.2,Win32,85.47008547,,,,,,,,,,,,,,,,381.894,383.2022,383.2022,385.8614,return,0.4252,,69.66145833,,,,,,FBP-OG-81.png,0.4,1.2,38,0.5,0,18,18,37,1,,,,,,,,,,,,,,,,,,,,,,,,,,,,,,,,,,,,,,,,
,,,,,V3_104,18,F,2025-02-06_13h41.38.922,jersey_experiment_5_v3,2023.2.2,Win32,85.47008547,,,,,,,,,,,,,,,,385.8616,387.4132,387.4133,392.9765,return,0.5033,,32.29166667,,,,,,FBP-PT-81.png,0.35,1.2,21,0.75,0,19,19,20,1,,,,,,,,,,,,,,,,,,,,,,,,,,,,,,,,,,,,,,,,
,,,,,V3_104,18,F,2025-02-06_13h41.38.922,jersey_experiment_5_v3,2023.2.2,Win32,85.47008547,,,,,,,,,,,,,,,,392.9767,394.27,394.27,396.1764,return,0.362,,74.609375,,,,,,FBP-OG-91.png,0.43,1.2,44,0.5,0,20,20,43,1,,,,,,,,,,,,,,,,,,,,,,,,,,,,,,,,,,,,,,,,
,,,,,V3_104,18,F,2025-02-06_13h41.38.922,jersey_experiment_5_v3,2023.2.2,Win32,85.47008547,,,,,,,,,,,,,,,,396.1766,397.4841,397.4841,398.7884,return,0.3175,,24.86979167,,,,,,FBP-OG-71.png,0.37,1.2,32,0.5,0,21,21,31,1,,,,,,,,,,,,,,,,,,,,,,,,,,,,,,,,,,,,,,,,
,,,,,V3_104,18,F,2025-02-06_13h41.38.922,jersey_experiment_5_v3,2023.2.2,Win32,85.47008547,,,,,,,,,,,,,,,,398.7885,400.3311,400.3312,402.2439,return,0.9232,,90.49479167,,,,,,FBP-YG-18.png,0.45,1.2,10,0.75,0,22,22,9,1,,,,,,,,,,,,,,,,,,,,,,,,,,,,,,,,,,,,,,,,
,,,,,V3_104,18,F,2025-02-06_13h41.38.922,jersey_experiment_5_v3,2023.2.2,Win32,85.47008547,,,,,,,,,,,,,,,,402.2442,403.8004,403.8004,407.4472,return,0.9886,,58.59375,,,,,,FBP-PT-91.png,0.37,1.2,27,0.75,0,23,23,26,1,,,,,,,,,,,,,,,,,,,,,,,,,,,,,,,,,,,,,,,,
,,,,,V3_104,18,F,2025-02-06_13h41.38.922,jersey_experiment_5_v3,2023.2.2,Win32,85.47008547,,,,,,,,,,,,,,,,407.4474,408.9916,408.9917,414.3887,return,3.5299,,0,,,,,,FBP-RB-71.png,0.35,1.2,46,0.75,0,24,24,45,1,,,,,,,,,,,,,,,,,,,,,,,,,,,,,,,,,,,,,,,,
,,,,,V3_104,18,F,2025-02-06_13h41.38.922,jersey_experiment_5_v3,2023.2.2,Win32,85.47008547,,,,,,,,,,,,,,,,414.3889,415.9301,415.9301,418.0506,return,0.5796,,87.109375,,,,,,FBP-PT-81.png,0.43,1.2,24,0.75,0,25,25,23,1,,,,,,,,,,,,,,,,,,,,,,,,,,,,,,,,,,,,,,,,
,,,,,V3_104,18,F,2025-02-06_13h41.38.922,jersey_experiment_5_v3,2023.2.2,Win32,85.47008547,,,,,,,,,,,,,,,,418.0507,419.6008,419.6008,421.1421,return,0.683,,99.34895833,,,,,,FBP-RB-91.png,0.43,1.2,59,0.75,0,26,26,58,1,,,,,,,,,,,,,,,,,,,,,,,,,,,,,,,,,,,,,,,,
,,,,,V3_104,18,F,2025-02-06_13h41.38.922,jersey_experiment_5_v3,2023.2.2,Win32,85.47008547,,,,,,,,,,,,,,,,421.1423,422.686,422.6861,424.6627,return,0.3792,,24.86979167,,,,,,FBP-PT-91.png,0.4,1.2,28,0.75,0,27,27,27,1,,,,,,,,,,,,,,,,,,,,,,,,,,,,,,,,,,,,,,,,
,,,,,V3_104,18,F,2025-02-06_13h41.38.922,jersey_experiment_5_v3,2023.2.2,Win32,85.47008547,,,,,,,,,,,,,,,,424.6628,426.2144,426.2144,428.1303,return,0.6826,,98.69791667,,,,,,FBP-RB-71.png,0.43,1.2,49,0.75,0,28,28,48,1,,,,,,,,,,,,,,,,,,,,,,,,,,,,,,,,,,,,,,,,
,,,,,V3_104,18,F,2025-02-06_13h41.38.922,jersey_experiment_5_v3,2023.2.2,Win32,85.47008547,,,,,,,,,,,,,,,,428.1305,429.4245,429.4246,433.6018,return,0.4928,,82.8125,,,,,,FBP-OG-81.png,0.43,1.2,39,0.5,0,29,29,38,1,,,,,,,,,,,,,,,,,,,,,,,,,,,,,,,,,,,,,,,,
,,,,,V3_104,18,F,2025-02-06_13h41.38.922,jersey_experiment_5_v3,2023.2.2,Win32,85.47008547,,,,,,,,,,,,,,,,433.602,435.1576,435.1576,436.7796,return,0.4374,,23.828125,,,,,,FBP-RB-71.png,0.37,1.2,47,0.75,0,30,30,46,1,,,,,,,,,,,,,,,,,,,,,,,,,,,,,,,,,,,,,,,,
,,,,,V3_104,18,F,2025-02-06_13h41.38.922,jersey_experiment_5_v3,2023.2.2,Win32,85.47008547,,,,,,,,,,,,,,,,436.7798,438.3335,438.3335,440.6099,return,0.3706,,0.520833333,,,,,,FBP-YG-18.png,0.35,1.2,6,0.75,0,31,31,5,1,,,,,,,,,,,,,,,,,,,,,,,,,,,,,,,,,,,,,,,,
,,,,,V3_104,18,F,2025-02-06_13h41.38.922,jersey_experiment_5_v3,2023.2.2,Win32,85.47008547,,,,,,,,,,,,,,,,440.6102,442.1537,442.1537,443.3692,return,0.3445,,0.130208333,,,,,,FBP-RB-81.png,0.35,1.2,51,0.75,0,32,32,50,1,,,,,,,,,,,,,,,,,,,,,,,,,,,,,,,,,,,,,,,,
,,,,,V3_104,18,F,2025-02-06_13h41.38.922,jersey_experiment_5_v3,2023.2.2,Win32,85.47008547,,,,,,,,,,,,,,,,443.3694,444.6633,444.6633,445.9196,return,0.3064,,0.651041667,,,,,,FBP-OG-71.png,0.35,1.2,31,0.5,0,33,33,30,1,,,,,,,,,,,,,,,,,,,,,,,,,,,,,,,,,,,,,,,,
,,,,,V3_104,18,F,2025-02-06_13h41.38.922,jersey_experiment_5_v3,2023.2.2,Win32,85.47008547,,,,,,,,,,,,,,,,445.9198,447.469,447.4691,449.4101,return,0.6202,,73.828125,,,,,,FBP-YG-19.png,0.43,1.2,14,0.75,0,34,34,13,1,,,,,,,,,,,,,,,,,,,,,,,,,,,,,,,,,,,,,,,,
,,,,,V3_104,18,F,2025-02-06_13h41.38.922,jersey_experiment_5_v3,2023.2.2,Win32,85.47008547,,,,,,,,,,,,,,,,449.4103,450.9546,450.9546,453.5869,return,1.4079,,25.78125,,,,,,FBP-PT-81.png,0.4,1.2,23,0.75,0,35,35,22,1,,,,,,,,,,,,,,,,,,,,,,,,,,,,,,,,,,,,,,,,
,,,,,V3_104,18,F,2025-02-06_13h41.38.922,jersey_experiment_5_v3,2023.2.2,Win32,85.47008547,,,,,,,,,,,,,,,,453.5871,455.133,455.1331,457.9753,return,0.4503,,13.28125,,,,,,FBP-YG-19.png,0.35,1.2,11,0.75,0,36,36,10,1,,,,,,,,,,,,,,,,,,,,,,,,,,,,,,,,,,,,,,,,
,,,,,V3_104,18,F,2025-02-06_13h41.38.922,jersey_experiment_5_v3,2023.2.2,Win32,85.47008547,,,,,,,,,,,,,,,,457.9756,459.5206,459.5206,461.5284,return,0.4369,,89.453125,,,,,,FBP-YG-19.png,0.45,1.2,15,0.75,0,37,37,14,1,,,,,,,,,,,,,,,,,,,,,,,,,,,,,,,,,,,,,,,,
,,,,,V3_104,18,F,2025-02-06_13h41.38.922,jersey_experiment_5_v3,2023.2.2,Win32,85.47008547,,,,,,,,,,,,,,,,461.5286,463.0726,463.0726,464.2879,return,0.4151,,99.609375,,,,,,FBP-PT-71.png,0.45,1.2,20,0.75,0,38,38,19,1,,,,,,,,,,,,,,,,,,,,,,,,,,,,,,,,,,,,,,,,
,,,,,V3_104,18,F,2025-02-06_13h41.38.922,jersey_experiment_5_v3,2023.2.2,Win32,85.47008547,,,,,,,,,,,,,,,,464.2881,465.8386,465.8386,467.4646,return,0.4242,,50.26041667,,,,,,FBP-YG-18.png,0.37,1.2,7,0.75,0,39,39,6,1,,,,,,,,,,,,,,,,,,,,,,,,,,,,,,,,,,,,,,,,
,,,,,V3_104,18,F,2025-02-06_13h41.38.922,jersey_experiment_5_v3,2023.2.2,Win32,85.47008547,,,,,,,,,,,,,,,,467.4648,468.758,468.758,473.2986,return,2.3905,,90.88541667,,,,,,FBP-OG-71.png,0.43,1.2,34,0.5,0,40,40,33,1,,,,,,,,,,,,,,,,,,,,,,,,,,,,,,,,,,,,,,,,
,,,,,V3_104,18,F,2025-02-06_13h41.38.922,jersey_experiment_5_v3,2023.2.2,Win32,85.47008547,,,,,,,,,,,,,,,,473.2988,474.5939,474.5939,476.027,return,0.4833,,99.86979167,,,,,,FBP-OG-81.png,0.45,1.2,40,0.5,0,41,41,39,1,,,,,,,,,,,,,,,,,,,,,,,,,,,,,,,,,,,,,,,,
,,,,,V3_104,18,F,2025-02-06_13h41.38.922,jersey_experiment_5_v3,2023.2.2,Win32,85.47008547,,,,,,,,,,,,,,,,476.0272,477.3322,477.3323,479.6035,return,0.4363,,50.13020833,,,,,,FBP-OG-91.png,0.4,1.2,43,0.5,0,42,42,42,1,,,,,,,,,,,,,,,,,,,,,,,,,,,,,,,,,,,,,,,,
,,,,,V3_104,18,F,2025-02-06_13h41.38.922,jersey_experiment_5_v3,2023.2.2,Win32,85.47008547,,,,,,,,,,,,,,,,479.6037,481.1575,481.1575,483.9578,return,1.1669,,62.63020833,,,,,,FBP-RB-81.png,0.37,1.2,52,0.75,0,43,43,51,1,,,,,,,,,,,,,,,,,,,,,,,,,,,,,,,,,,,,,,,,
,,,,,V3_104,18,F,2025-02-06_13h41.38.922,jersey_experiment_5_v3,2023.2.2,Win32,85.47008547,,,,,,,,,,,,,,,,483.958,485.5057,485.5058,486.6646,return,0.3442,,64.58333333,,,,,,FBP-YG-17.png,0.37,1.2,2,0.75,0,44,44,1,1,,,,,,,,,,,,,,,,,,,,,,,,,,,,,,,,,,,,,,,,
,,,,,V3_104,18,F,2025-02-06_13h41.38.922,jersey_experiment_5_v3,2023.2.2,Win32,85.47008547,,,,,,,,,,,,,,,,486.6648,488.2117,488.2118,489.1206,return,0.3529,,64.58333333,,,,,,FBP-RB-91.png,0.37,1.2,57,0.75,0,45,45,56,1,,,,,,,,,,,,,,,,,,,,,,,,,,,,,,,,,,,,,,,,
,,,,,V3_104,18,F,2025-02-06_13h41.38.922,jersey_experiment_5_v3,2023.2.2,Win32,85.47008547,,,,,,,,,,,,,,,,489.1208,490.6652,490.6652,491.6995,return,0.2965,,87.63020833,,,,,,FBP-YG-18.png,0.43,1.2,9,0.75,0,46,46,8,1,,,,,,,,,,,,,,,,,,,,,,,,,,,,,,,,,,,,,,,,
,,,,,V3_104,18,F,2025-02-06_13h41.38.922,jersey_experiment_5_v3,2023.2.2,Win32,85.47008547,,,,,,,,,,,,,,,,491.6996,493.2521,493.2521,494.7566,return,0.4829,,99.609375,,,,,,FBP-PT-91.png,0.45,1.2,30,0.75,0,47,47,29,1,,,,,,,,,,,,,,,,,,,,,,,,,,,,,,,,,,,,,,,,
,,,,,V3_104,18,F,2025-02-06_13h41.38.922,jersey_experiment_5_v3,2023.2.2,Win32,85.47008547,,,,,,,,,,,,,,,,494.7567,496.3123,496.3123,497.3093,return,0.3148,,99.73958333,,,,,,FBP-YG-17.png,0.43,1.2,4,0.75,0,48,48,3,1,,,,,,,,,,,,,,,,,,,,,,,,,,,,,,,,,,,,,,,,
,,,,,V3_104,18,F,2025-02-06_13h41.38.922,jersey_experiment_5_v3,2023.2.2,Win32,85.47008547,,,,,,,,,,,,,,,,497.3095,498.8621,498.8621,499.5808,return,0.3047,,99.73958333,,,,,,FBP-PT-81.png,0.45,1.2,25,0.75,0,49,49,24,1,,,,,,,,,,,,,,,,,,,,,,,,,,,,,,,,,,,,,,,,
,,,,,V3_104,18,F,2025-02-06_13h41.38.922,jersey_experiment_5_v3,2023.2.2,Win32,85.47008547,,,,,,,,,,,,,,,,499.5809,500.8759,500.876,504.6889,return,0.4385,,25.26041667,,,,,,FBP-OG-91.png,0.35,1.2,41,0.5,0,50,50,40,1,,,,,,,,,,,,,,,,,,,,,,,,,,,,,,,,,,,,,,,,
,,,,,V3_104,18,F,2025-02-06_13h41.38.922,jersey_experiment_5_v3,2023.2.2,Win32,85.47008547,,,,,,,,,,,,,,,,504.6891,506.2392,506.2392,508.5951,return,0.9888,,24.73958333,,,,,,FBP-PT-71.png,0.37,1.2,17,0.75,0,51,51,16,1,,,,,,,,,,,,,,,,,,,,,,,,,,,,,,,,,,,,,,,,
,,,,,V3_104,18,F,2025-02-06_13h41.38.922,jersey_experiment_5_v3,2023.2.2,Win32,85.47008547,,,,,,,,,,,,,,,,508.5951,510.1458,510.1458,511.6832,return,0.4665,,99.73958333,,,,,,FBP-YG-17.png,0.45,1.2,5,0.75,0,52,52,4,1,,,,,,,,,,,,,,,,,,,,,,,,,,,,,,,,,,,,,,,,
,,,,,V3_104,18,F,2025-02-06_13h41.38.922,jersey_experiment_5_v3,2023.2.2,Win32,85.47008547,,,,,,,,,,,,,,,,511.6834,513.2391,513.2391,515.0275,return,0.6351,,48.56770833,,,,,,FBP-RB-91.png,0.4,1.2,58,0.75,0,53,53,57,1,,,,,,,,,,,,,,,,,,,,,,,,,,,,,,,,,,,,,,,,
,,,,,V3_104,18,F,2025-02-06_13h41.38.922,jersey_experiment_5_v3,2023.2.2,Win32,85.47008547,,,,,,,,,,,,,,,,515.0277,516.5807,516.5807,518.1337,return,0.3856,,49.609375,,,,,,FBP-YG-19.png,0.4,1.2,13,0.75,0,54,54,12,1,,,,,,,,,,,,,,,,,,,,,,,,,,,,,,,,,,,,,,,,
,,,,,V3_104,18,F,2025-02-06_13h41.38.922,jersey_experiment_5_v3,2023.2.2,Win32,85.47008547,,,,,,,,,,,,,,,,518.1339,519.4276,519.4276,520.9574,return,0.5182,,99.609375,,,,,,FBP-OG-71.png,0.45,1.2,35,0.5,0,55,55,34,1,,,,,,,,,,,,,,,,,,,,,,,,,,,,,,,,,,,,,,,,
,,,,,V3_104,18,F,2025-02-06_13h41.38.922,jersey_experiment_5_v3,2023.2.2,Win32,85.47008547,,,,,,,,,,,,,,,,520.9575,522.2661,522.2661,526.1016,return,0.5651,,10.80729167,,,,,,FBP-OG-81.png,0.37,1.2,37,0.5,0,56,56,36,1,,,,,,,,,,,,,,,,,,,,,,,,,,,,,,,,,,,,,,,,
,,,,,V3_104,18,F,2025-02-06_13h41.38.922,jersey_experiment_5_v3,2023.2.2,Win32,85.47008547,,,,,,,,,,,,,,,,526.1018,527.6484,527.6484,530.1251,return,0.6144,,6.25,,,,,,FBP-YG-19.png,0.37,1.2,12,0.75,0,57,57,11,1,,,,,,,,,,,,,,,,,,,,,,,,,,,,,,,,,,,,,,,,
,,,,,V3_104,18,F,2025-02-06_13h41.38.922,jersey_experiment_5_v3,2023.2.2,Win32,85.47008547,,,,,,,,,,,,,,,,530.1253,531.6783,531.6783,533.3698,return,0.4919,,99.34895833,,,,,,FBP-RB-81.png,0.45,1.2,55,0.75,0,58,58,54,1,,,,,,,,,,,,,,,,,,,,,,,,,,,,,,,,,,,,,,,,
,,,,,V3_104,18,F,2025-02-06_13h41.38.922,jersey_experiment_5_v3,2023.2.2,Win32,85.47008547,,,,,,,,,,,,,,,,533.37,534.9229,534.9229,536.2877,return,0.5303,,99.73958333,,,,,,FBP-PT-71.png,0.43,1.2,19,0.75,0,59,59,18,1,,,,,,,,,,,,,,,,,,,,,,,,,,,,,,,,,,,,,,,,
,,,,,V3_104,18,F,2025-02-06_13h41.38.922,jersey_experiment_5_v3,2023.2.2,Win32,85.47008547,,,,,,,,,,,,,,,,,,,,,,,,,,,,,,,,,,,,,,,536.2878,656.2955,,,,,,,,,,,,,,,,,,,,,,,,,,,,,,,,,,,,,,
,,,,,V3_104,18,F,2025-02-06_13h41.38.922,jersey_experiment_5_v3,2023.2.2,Win32,85.47008547,,,,,,,,,,,,,,,,,,,,,,,,,,,,,,,,,,,,,,,,,656.2956,662.6652,return,6.3547,,,,,,,,,,,,,,,,,,,,,,,,,,,,,,,,,,
,,,,,V3_104,18,F,2025-02-06_13h41.38.922,jersey_experiment_5_v3,2023.2.2,Win32,85.47008547,,,,,,,,,,,,,,,,662.667,663.9653,663.9653,667.1743,return,0.9291,,75.13020833,,,,,,FBP-RB-19.png,0.43,1.2,59,0.5,,,,,,,,,,,,,0,0,0,58,1,,,,,,,,,,,,,,,,,,,,,,,,,,,,
,,,,,V3_104,18,F,2025-02-06_13h41.38.922,jersey_experiment_5_v3,2023.2.2,Win32,85.47008547,,,,,,,,,,,,,,,,667.1746,668.482,668.482,670.1153,return,0.7296,,73.828125,,,,,,FBP-RB-17.png,0.43,1.2,49,0.5,,,,,,,,,,,,,0,1,1,48,1,,,,,,,,,,,,,,,,,,,,,,,,,,,,
,,,,,V3_104,18,F,2025-02-06_13h41.38.922,jersey_experiment_5_v3,2023.2.2,Win32,85.47008547,,,,,,,,,,,,,,,,670.1155,671.6595,671.6595,673.4941,return,1.0027,,74.47916667,,,,,,FBP-OG-19.png,0.4,1.2,43,0.75,,,,,,,,,,,,,0,2,2,42,1,,,,,,,,,,,,,,,,,,,,,,,,,,,,
,,,,,V3_104,18,F,2025-02-06_13h41.38.922,jersey_experiment_5_v3,2023.2.2,Win32,85.47008547,,,,,,,,,,,,,,,,673.4943,674.7982,674.7982,677.7987,return,0.5864,,24.86979167,,,,,,FBP-YG-91.png,0.35,1.2,11,0.5,,,,,,,,,,,,,0,3,3,10,1,,,,,,,,,,,,,,,,,,,,,,,,,,,,
,,,,,V3_104,18,F,2025-02-06_13h41.38.922,jersey_experiment_5_v3,2023.2.2,Win32,85.47008547,,,,,,,,,,,,,,,,677.7989,679.0935,679.0935,680.8106,return,0.2813,,50.26041667,,,,,,FBP-RB-19.png,0.4,1.2,58,0.5,,,,,,,,,,,,,0,4,4,57,1,,,,,,,,,,,,,,,,,,,,,,,,,,,,
,,,,,V3_104,18,F,2025-02-06_13h41.38.922,jersey_experiment_5_v3,2023.2.2,Win32,85.47008547,,,,,,,,,,,,,,,,680.8108,682.1159,682.1159,682.8456,return,0.2937,,50,,,,,,FBP-PT-19.png,0.4,1.2,28,0.5,,,,,,,,,,,,,0,5,5,27,1,,,,,,,,,,,,,,,,,,,,,,,,,,,,
,,,,,V3_104,18,F,2025-02-06_13h41.38.922,jersey_experiment_5_v3,2023.2.2,Win32,85.47008547,,,,,,,,,,,,,,,,682.8457,684.1543,684.1543,685.752,return,0.3656,,25.390625,,,,,,FBP-YG-71.png,0.37,1.2,2,0.5,,,,,,,,,,,,,0,6,6,1,1,,,,,,,,,,,,,,,,,,,,,,,,,,,,
,,,,,V3_104,18,F,2025-02-06_13h41.38.922,jersey_experiment_5_v3,2023.2.2,Win32,85.47008547,,,,,,,,,,,,,,,,685.7522,687.0474,687.0474,689.3954,return,1.5838,,50,,,,,,FBP-RB-17.png,0.4,1.2,48,0.5,,,,,,,,,,,,,0,7,7,47,1,,,,,,,,,,,,,,,,,,,,,,,,,,,,
,,,,,V3_104,18,F,2025-02-06_13h41.38.922,jersey_experiment_5_v3,2023.2.2,Win32,85.47008547,,,,,,,,,,,,,,,,689.3957,690.6896,690.6896,692.5014,return,0.6278,,50.26041667,,,,,,FBP-YG-91.png,0.4,1.2,13,0.5,,,,,,,,,,,,,0,8,8,12,1,,,,,,,,,,,,,,,,,,,,,,,,,,,,
,,,,,V3_104,18,F,2025-02-06_13h41.38.922,jersey_experiment_5_v3,2023.2.2,Win32,85.47008547,,,,,,,,,,,,,,,,692.5017,694.0456,694.0456,695.3075,return,0.4149,,74.609375,,,,,,FBP-OG-18.png,0.45,1.2,40,0.75,,,,,,,,,,,,,0,9,9,39,1,,,,,,,,,,,,,,,,,,,,,,,,,,,,
,,,,,V3_104,18,F,2025-02-06_13h41.38.922,jersey_experiment_5_v3,2023.2.2,Win32,85.47008547,,,,,,,,,,,,,,,,695.3077,696.8611,696.8612,697.917,return,0.389,,99.609375,,,,,,FBP-OG-17.png,0.45,1.2,35,0.75,,,,,,,,,,,,,0,10,10,34,1,,,,,,,,,,,,,,,,,,,,,,,,,,,,
,,,,,V3_104,18,F,2025-02-06_13h41.38.922,jersey_experiment_5_v3,2023.2.2,Win32,85.47008547,,,,,,,,,,,,,,,,697.9172,699.4701,699.4701,703.1878,return,0.6477,,0.390625,,,,,,FBP-OG-18.png,0.35,1.2,36,0.75,,,,,,,,,,,,,0,11,11,35,1,,,,,,,,,,,,,,,,,,,,,,,,,,,,
,,,,,V3_104,18,F,2025-02-06_13h41.38.922,jersey_experiment_5_v3,2023.2.2,Win32,85.47008547,,,,,,,,,,,,,,,,703.1879,704.7404,704.7404,706.2782,return,0.6834,,6.119791667,,,,,,FBP-OG-17.png,0.37,1.2,32,0.75,,,,,,,,,,,,,0,12,12,31,1,,,,,,,,,,,,,,,,,,,,,,,,,,,,
,,,,,V3_104,18,F,2025-02-06_13h41.38.922,jersey_experiment_5_v3,2023.2.2,Win32,85.47008547,,,,,,,,,,,,,,,,706.2785,707.5757,707.5757,708.9875,return,0.3401,,99.47916667,,,,,,FBP-YG-81.png,0.43,1.2,9,0.5,,,,,,,,,,,,,0,13,13,8,1,,,,,,,,,,,,,,,,,,,,,,,,,,,,
,,,,,V3_104,18,F,2025-02-06_13h41.38.922,jersey_experiment_5_v3,2023.2.2,Win32,85.47008547,,,,,,,,,,,,,,,,708.9876,710.2816,710.2816,711.5188,return,0.5183,,99.47916667,,,,,,FBP-PT-17.png,0.45,1.2,20,0.5,,,,,,,,,,,,,0,14,14,19,1,,,,,,,,,,,,,,,,,,,,,,,,,,,,
,,,,,V3_104,18,F,2025-02-06_13h41.38.922,jersey_experiment_5_v3,2023.2.2,Win32,85.47008547,,,,,,,,,,,,,,,,711.5189,712.8228,712.8228,714.694,return,0.3034,,24.73958333,,,,,,FBP-RB-17.png,0.35,1.2,46,0.5,,,,,,,,,,,,,0,15,15,45,1,,,,,,,,,,,,,,,,,,,,,,,,,,,,
,,,,,V3_104,18,F,2025-02-06_13h41.38.922,jersey_experiment_5_v3,2023.2.2,Win32,85.47008547,,,,,,,,,,,,,,,,714.6942,715.9994,715.9995,717.2839,return,0.2728,,25.26041667,,,,,,FBP-YG-71.png,0.35,1.2,1,0.5,,,,,,,,,,,,,0,16,16,0,1,,,,,,,,,,,,,,,,,,,,,,,,,,,,
,,,,,V3_104,18,F,2025-02-06_13h41.38.922,jersey_experiment_5_v3,2023.2.2,Win32,85.47008547,,,,,,,,,,,,,,,,717.2841,718.8375,718.8376,720.8355,return,0.5067,,91.92708333,,,,,,FBP-OG-19.png,0.45,1.2,45,0.75,,,,,,,,,,,,,0,17,17,44,1,,,,,,,,,,,,,,,,,,,,,,,,,,,,
,,,,,V3_104,18,F,2025-02-06_13h41.38.922,jersey_experiment_5_v3,2023.2.2,Win32,85.47008547,,,,,,,,,,,,,,,,720.8356,722.1309,722.131,723.506,return,0.283,,75.26041667,,,,,,FBP-YG-71.png,0.4,1.2,3,0.5,,,,,,,,,,,,,0,18,18,2,1,,,,,,,,,,,,,,,,,,,,,,,,,,,,
,,,,,V3_104,18,F,2025-02-06_13h41.38.922,jersey_experiment_5_v3,2023.2.2,Win32,85.47008547,,,,,,,,,,,,,,,,723.5062,725.0488,725.0489,726.2587,return,0.2591,,50.13020833,,,,,,FBP-OG-19.png,0.37,1.2,42,0.75,,,,,,,,,,,,,0,19,19,41,1,,,,,,,,,,,,,,,,,,,,,,,,,,,,
,,,,,V3_104,18,F,2025-02-06_13h41.38.922,jersey_experiment_5_v3,2023.2.2,Win32,85.47008547,,,,,,,,,,,,,,,,726.2588,727.8118,727.8118,729.4738,return,0.4003,,25.65104167,,,,,,FBP-OG-18.png,0.37,1.2,37,0.75,,,,,,,,,,,,,0,20,20,36,1,,,,,,,,,,,,,,,,,,,,,,,,,,,,
,,,,,V3_104,18,F,2025-02-06_13h41.38.922,jersey_experiment_5_v3,2023.2.2,Win32,85.47008547,,,,,,,,,,,,,,,,729.4739,731.0204,731.0205,733.365,return,0.6828,,92.70833333,,,,,,FBP-OG-17.png,0.43,1.2,34,0.75,,,,,,,,,,,,,0,21,21,33,1,,,,,,,,,,,,,,,,,,,,,,,,,,,,
,,,,,V3_104,18,F,2025-02-06_13h41.38.922,jersey_experiment_5_v3,2023.2.2,Win32,85.47008547,,,,,,,,,,,,,,,,733.3651,734.9067,734.9067,737.1264,return,0.9424,,99.609375,,,,,,FBP-OG-18.png,0.43,1.2,39,0.75,,,,,,,,,,,,,0,22,22,38,1,,,,,,,,,,,,,,,,,,,,,,,,,,,,
,,,,,V3_104,18,F,2025-02-06_13h41.38.922,jersey_experiment_5_v3,2023.2.2,Win32,85.47008547,,,,,,,,,,,,,,,,737.1267,738.4238,738.4238,739.8741,return,0.2739,,24.609375,,,,,,FBP-PT-17.png,0.37,1.2,17,0.5,,,,,,,,,,,,,0,23,23,16,1,,,,,,,,,,,,,,,,,,,,,,,,,,,,
,,,,,V3_104,18,F,2025-02-06_13h41.38.922,jersey_experiment_5_v3,2023.2.2,Win32,85.47008547,,,,,,,,,,,,,,,,739.8742,741.427,741.427,742.8209,return,0.3234,,74.609375,,,,,,FBP-OG-17.png,0.4,1.2,33,0.75,,,,,,,,,,,,,0,24,24,32,1,,,,,,,,,,,,,,,,,,,,,,,,,,,,
,,,,,V3_104,18,F,2025-02-06_13h41.38.922,jersey_experiment_5_v3,2023.2.2,Win32,85.47008547,,,,,,,,,,,,,,,,742.8212,744.118,744.118,745.3185,return,0.386,,99.08854167,,,,,,FBP-YG-91.png,0.45,1.2,15,0.5,,,,,,,,,,,,,0,25,25,14,1,,,,,,,,,,,,,,,,,,,,,,,,,,,,
,,,,,V3_104,18,F,2025-02-06_13h41.38.922,jersey_experiment_5_v3,2023.2.2,Win32,85.47008547,,,,,,,,,,,,,,,,745.3187,746.6122,746.6122,747.6601,return,0.28,,25.91145833,,,,,,FBP-PT-18.png,0.35,1.2,21,0.5,,,,,,,,,,,,,0,26,26,20,1,,,,,,,,,,,,,,,,,,,,,,,,,,,,
,,,,,V3_104,18,F,2025-02-06_13h41.38.922,jersey_experiment_5_v3,2023.2.2,Win32,85.47008547,,,,,,,,,,,,,,,,747.6602,748.9655,748.9656,749.8747,return,0.2743,,50.13020833,,,,,,FBP-RB-19.png,0.35,1.2,56,0.5,,,,,,,,,,,,,0,27,27,55,1,,,,,,,,,,,,,,,,,,,,,,,,,,,,
,,,,,V3_104,18,F,2025-02-06_13h41.38.922,jersey_experiment_5_v3,2023.2.2,Win32,85.47008547,,,,,,,,,,,,,,,,749.8749,751.1673,751.1673,752.531,return,0.5303,,75.13020833,,,,,,FBP-PT-18.png,0.43,1.2,24,0.5,,,,,,,,,,,,,0,28,28,23,1,,,,,,,,,,,,,,,,,,,,,,,,,,,,
,,,,,V3_104,18,F,2025-02-06_13h41.38.922,jersey_experiment_5_v3,2023.2.2,Win32,85.47008547,,,,,,,,,,,,,,,,752.5312,753.8265,753.8265,755.3558,return,0.4843,,93.09895833,,,,,,FBP-YG-71.png,0.43,1.2,4,0.5,,,,,,,,,,,,,0,29,29,3,1,,,,,,,,,,,,,,,,,,,,,,,,,,,,
,,,,,V3_104,18,F,2025-02-06_13h41.38.922,jersey_experiment_5_v3,2023.2.2,Win32,85.47008547,,,,,,,,,,,,,,,,755.3559,756.6491,756.6492,757.9307,return,0.4949,,99.21875,,,,,,FBP-PT-17.png,0.43,1.2,19,0.5,,,,,,,,,,,,,0,30,30,18,1,,,,,,,,,,,,,,,,,,,,,,,,,,,,
,,,,,V3_104,18,F,2025-02-06_13h41.38.922,jersey_experiment_5_v3,2023.2.2,Win32,85.47008547,,,,,,,,,,,,,,,,757.9309,759.2391,759.2391,762.0246,return,0.8003,,0.130208333,,,,,,FBP-RB-18.png,0.35,1.2,51,0.5,,,,,,,,,,,,,0,31,31,50,1,,,,,,,,,,,,,,,,,,,,,,,,,,,,
,,,,,V3_104,18,F,2025-02-06_13h41.38.922,jersey_experiment_5_v3,2023.2.2,Win32,85.47008547,,,,,,,,,,,,,,,,762.0248,763.3322,763.3323,764.8606,return,0.2946,,75,,,,,,FBP-PT-18.png,0.4,1.2,23,0.5,,,,,,,,,,,,,0,32,32,22,1,,,,,,,,,,,,,,,,,,,,,,,,,,,,
,,,,,V3_104,18,F,2025-02-06_13h41.38.922,jersey_experiment_5_v3,2023.2.2,Win32,85.47008547,,,,,,,,,,,,,,,,764.8607,766.1659,766.1659,767.4371,return,0.3066,,99.73958333,,,,,,FBP-RB-18.png,0.43,1.2,54,0.5,,,,,,,,,,,,,0,33,33,53,1,,,,,,,,,,,,,,,,,,,,,,,,,,,,
,,,,,V3_104,18,F,2025-02-06_13h41.38.922,jersey_experiment_5_v3,2023.2.2,Win32,85.47008547,,,,,,,,,,,,,,,,767.4373,768.7456,768.7456,773.2146,return,2.4368,,0.260416667,,,,,,FBP-PT-19.png,0.35,1.2,26,0.5,,,,,,,,,,,,,0,34,34,25,1,,,,,,,,,,,,,,,,,,,,,,,,,,,,
,,,,,V3_104,18,F,2025-02-06_13h41.38.922,jersey_experiment_5_v3,2023.2.2,Win32,85.47008547,,,,,,,,,,,,,,,,773.2147,774.5191,774.5192,777.0603,return,0.3295,,0.260416667,,,,,,FBP-PT-18.png,0.37,1.2,22,0.5,,,,,,,,,,,,,0,35,35,21,1,,,,,,,,,,,,,,,,,,,,,,,,,,,,
,,,,,V3_104,18,F,2025-02-06_13h41.38.922,jersey_experiment_5_v3,2023.2.2,Win32,85.47008547,,,,,,,,,,,,,,,,777.0605,778.3547,778.3547,780.4727,return,1.1299,,76.04166667,,,,,,FBP-YG-91.png,0.43,1.2,14,0.5,,,,,,,,,,,,,0,36,36,13,1,,,,,,,,,,,,,,,,,,,,,,,,,,,,
,,,,,V3_104,18,F,2025-02-06_13h41.38.922,jersey_experiment_5_v3,2023.2.2,Win32,85.47008547,,,,,,,,,,,,,,,,780.4728,781.7668,781.7668,782.8256,return,0.2911,,74.73958333,,,,,,FBP-PT-19.png,0.43,1.2,29,0.5,,,,,,,,,,,,,0,37,37,28,1,,,,,,,,,,,,,,,,,,,,,,,,,,,,
,,,,,V3_104,18,F,2025-02-06_13h41.38.922,jersey_experiment_5_v3,2023.2.2,Win32,85.47008547,,,,,,,,,,,,,,,,782.8258,784.3783,784.3784,785.1925,return,0.3527,,74.73958333,,,,,,FBP-OG-19.png,0.43,1.2,44,0.75,,,,,,,,,,,,,0,38,38,43,1,,,,,,,,,,,,,,,,,,,,,,,,,,,,
,,,,,V3_104,18,F,2025-02-06_13h41.38.922,jersey_experiment_5_v3,2023.2.2,Win32,85.47008547,,,,,,,,,,,,,,,,785.1927,786.4848,786.4848,787.8511,return,0.2964,,49.86979167,,,,,,FBP-PT-19.png,0.37,1.2,27,0.5,,,,,,,,,,,,,0,39,39,26,1,,,,,,,,,,,,,,,,,,,,,,,,,,,,
,,,,,V3_104,18,F,2025-02-06_13h41.38.922,jersey_experiment_5_v3,2023.2.2,Win32,85.47008547,,,,,,,,,,,,,,,,787.8512,789.3989,789.399,790.6846,return,0.3153,,0.520833333,,,,,,FBP-OG-19.png,0.35,1.2,41,0.75,,,,,,,,,,,,,0,40,40,40,1,,,,,,,,,,,,,,,,,,,,,,,,,,,,
,,,,,V3_104,18,F,2025-02-06_13h41.38.922,jersey_experiment_5_v3,2023.2.2,Win32,85.47008547,,,,,,,,,,,,,,,,790.6848,791.9925,791.9925,793.453,return,0.3087,,99.47916667,,,,,,FBP-PT-18.png,0.45,1.2,25,0.5,,,,,,,,,,,,,0,41,41,24,1,,,,,,,,,,,,,,,,,,,,,,,,,,,,
,,,,,V3_104,18,F,2025-02-06_13h41.38.922,jersey_experiment_5_v3,2023.2.2,Win32,85.47008547,,,,,,,,,,,,,,,,793.4532,794.7461,794.7462,796.5351,return,0.3917,,99.73958333,,,,,,FBP-RB-19.png,0.45,1.2,60,0.5,,,,,,,,,,,,,0,42,42,59,1,,,,,,,,,,,,,,,,,,,,,,,,,,,,
,,,,,V3_104,18,F,2025-02-06_13h41.38.922,jersey_experiment_5_v3,2023.2.2,Win32,85.47008547,,,,,,,,,,,,,,,,796.5352,797.8377,797.8377,798.6751,return,0.2728,,99.47916667,,,,,,FBP-PT-19.png,0.45,1.2,30,0.5,,,,,,,,,,,,,0,43,43,29,1,,,,,,,,,,,,,,,,,,,,,,,,,,,,
,,,,,V3_104,18,F,2025-02-06_13h41.38.922,jersey_experiment_5_v3,2023.2.2,Win32,85.47008547,,,,,,,,,,,,,,,,798.6753,799.9704,799.9704,801.6497,return,0.2826,,49.21875,,,,,,FBP-PT-17.png,0.4,1.2,18,0.5,,,,,,,,,,,,,0,44,44,17,1,,,,,,,,,,,,,,,,,,,,,,,,,,,,
,,,,,V3_104,18,F,2025-02-06_13h41.38.922,jersey_experiment_5_v3,2023.2.2,Win32,85.47008547,,,,,,,,,,,,,,,,801.6499,802.9562,802.9562,804.3915,return,0.2822,,63.02083333,,,,,,FBP-YG-81.png,0.4,1.2,8,0.5,,,,,,,,,,,,,0,45,45,7,1,,,,,,,,,,,,,,,,,,,,,,,,,,,,
,,,,,V3_104,18,F,2025-02-06_13h41.38.922,jersey_experiment_5_v3,2023.2.2,Win32,85.47008547,,,,,,,,,,,,,,,,804.3915,805.6967,805.6968,809.3209,return,2.1184,,50.65104167,,,,,,FBP-RB-19.png,0.37,1.2,57,0.5,,,,,,,,,,,,,0,46,46,56,1,,,,,,,,,,,,,,,,,,,,,,,,,,,,
,,,,,V3_104,18,F,2025-02-06_13h41.38.922,jersey_experiment_5_v3,2023.2.2,Win32,85.47008547,,,,,,,,,,,,,,,,809.321,810.8628,810.8629,811.6265,return,0.3296,,50.13020833,,,,,,FBP-OG-18.png,0.4,1.2,38,0.75,,,,,,,,,,,,,0,47,47,37,1,,,,,,,,,,,,,,,,,,,,,,,,,,,,
,,,,,V3_104,18,F,2025-02-06_13h41.38.922,jersey_experiment_5_v3,2023.2.2,Win32,85.47008547,,,,,,,,,,,,,,,,811.6267,812.9344,812.9344,814.3058,return,0.5144,,99.73958333,,,,,,FBP-YG-81.png,0.45,1.2,10,0.5,,,,,,,,,,,,,0,48,48,9,1,,,,,,,,,,,,,,,,,,,,,,,,,,,,
,,,,,V3_104,18,F,2025-02-06_13h41.38.922,jersey_experiment_5_v3,2023.2.2,Win32,85.47008547,,,,,,,,,,,,,,,,814.306,815.6035,815.6035,817.1945,return,0.8619,,75.91145833,,,,,,FBP-RB-18.png,0.4,1.2,53,0.5,,,,,,,,,,,,,0,49,49,52,1,,,,,,,,,,,,,,,,,,,,,,,,,,,,
,,,,,V3_104,18,F,2025-02-06_13h41.38.922,jersey_experiment_5_v3,2023.2.2,Win32,85.47008547,,,,,,,,,,,,,,,,817.1947,818.4976,818.4976,821.2181,return,1.2236,,49.34895833,,,,,,FBP-RB-18.png,0.37,1.2,52,0.5,,,,,,,,,,,,,0,50,50,51,1,,,,,,,,,,,,,,,,,,,,,,,,,,,,
,,,,,V3_104,18,F,2025-02-06_13h41.38.922,jersey_experiment_5_v3,2023.2.2,Win32,85.47008547,,,,,,,,,,,,,,,,821.2183,822.5099,822.5099,823.412,return,0.2645,,74.609375,,,,,,FBP-RB-18.png,0.45,1.2,55,0.5,,,,,,,,,,,,,0,51,51,54,1,,,,,,,,,,,,,,,,,,,,,,,,,,,,
,,,,,V3_104,18,F,2025-02-06_13h41.38.922,jersey_experiment_5_v3,2023.2.2,Win32,85.47008547,,,,,,,,,,,,,,,,823.4123,824.7092,824.7092,825.7918,return,0.5261,,99.609375,,,,,,FBP-RB-17.png,0.45,1.2,50,0.5,,,,,,,,,,,,,0,52,52,49,1,,,,,,,,,,,,,,,,,,,,,,,,,,,,
,,,,,V3_104,18,F,2025-02-06_13h41.38.922,jersey_experiment_5_v3,2023.2.2,Win32,85.47008547,,,,,,,,,,,,,,,,825.7919,827.0982,827.0982,830.4879,return,1.0257,,25.78125,,,,,,FBP-RB-17.png,0.37,1.2,47,0.5,,,,,,,,,,,,,0,53,53,46,1,,,,,,,,,,,,,,,,,,,,,,,,,,,,
,,,,,V3_104,18,F,2025-02-06_13h41.38.922,jersey_experiment_5_v3,2023.2.2,Win32,85.47008547,,,,,,,,,,,,,,,,830.488,831.7808,831.7808,832.7063,return,0.3022,,25.52083333,,,,,,FBP-YG-81.png,0.35,1.2,6,0.5,,,,,,,,,,,,,0,54,54,5,1,,,,,,,,,,,,,,,,,,,,,,,,,,,,
,,,,,V3_104,18,F,2025-02-06_13h41.38.922,jersey_experiment_5_v3,2023.2.2,Win32,85.47008547,,,,,,,,,,,,,,,,832.7066,834.0006,834.0006,835.8778,return,0.3683,,25.52083333,,,,,,FBP-YG-81.png,0.37,1.2,7,0.5,,,,,,,,,,,,,0,55,55,6,1,,,,,,,,,,,,,,,,,,,,,,,,,,,,
,,,,,V3_104,18,F,2025-02-06_13h41.38.922,jersey_experiment_5_v3,2023.2.2,Win32,85.47008547,,,,,,,,,,,,,,,,835.8781,837.1706,837.1706,838.5301,return,0.2906,,75.13020833,,,,,,FBP-YG-71.png,0.45,1.2,5,0.5,,,,,,,,,,,,,0,56,56,4,1,,,,,,,,,,,,,,,,,,,,,,,,,,,,
,,,,,V3_104,18,F,2025-02-06_13h41.38.922,jersey_experiment_5_v3,2023.2.2,Win32,85.47008547,,,,,,,,,,,,,,,,838.5304,840.0744,840.0744,841.2649,return,0.3298,,24.34895833,,,,,,FBP-OG-17.png,0.35,1.2,31,0.75,,,,,,,,,,,,,0,57,57,30,1,,,,,,,,,,,,,,,,,,,,,,,,,,,,
,,,,,V3_104,18,F,2025-02-06_13h41.38.922,jersey_experiment_5_v3,2023.2.2,Win32,85.47008547,,,,,,,,,,,,,,,,841.2651,842.5573,842.5573,844.7003,return,0.3069,,50.26041667,,,,,,FBP-YG-91.png,0.37,1.2,12,0.5,,,,,,,,,,,,,0,58,58,11,1,,,,,,,,,,,,,,,,,,,,,,,,,,,,
,,,,,V3_104,18,F,2025-02-06_13h41.38.922,jersey_experiment_5_v3,2023.2.2,Win32,85.47008547,,,,,,,,,,,,,,,,844.7005,845.9952,845.9952,848.3462,return,0.248,,24.73958333,,,,,,FBP-PT-17.png,0.35,1.2,16,0.5,,,,,,,,,,,,,0,59,59,15,1,,,,,,,,,,,,,,,,,,,,,,,,,,,,
,,,,,V3_104,18,F,2025-02-06_13h41.38.922,jersey_experiment_5_v3,2023.2.2,Win32,85.47008547,,,,,,,,,,,,,,,,848.3475,849.6515,849.6515,850.6398,return,0.2827,,24.86979167,,,,,,FBP-RB-71.png,0.35,1.2,46,0.5,,,,,,,,,,,,,,,,,,0,0,0,45,1,,,,,,,,,,,,,,,,,,,,,,,
,,,,,V3_104,18,F,2025-02-06_13h41.38.922,jersey_experiment_5_v3,2023.2.2,Win32,85.47008547,,,,,,,,,,,,,,,,850.6401,852.1927,852.1927,853.6665,return,0.2976,,61.328125,,,,,,FBP-OG-71.png,0.4,1.2,33,0.75,,,,,,,,,,,,,,,,,,0,1,1,32,1,,,,,,,,,,,,,,,,,,,,,,,
,,,,,V3_104,18,F,2025-02-06_13h41.38.922,jersey_experiment_5_v3,2023.2.2,Win32,85.47008547,,,,,,,,,,,,,,,,853.6667,855.2132,855.2132,859.8068,return,0.2815,,49.73958333,,,,,,FBP-OG-71.png,0.35,1.2,31,0.75,,,,,,,,,,,,,,,,,,0,2,2,30,1,,,,,,,,,,,,,,,,,,,,,,,
,,,,,V3_104,18,F,2025-02-06_13h41.38.922,jersey_experiment_5_v3,2023.2.2,Win32,85.47008547,,,,,,,,,,,,,,,,859.8069,861.1105,861.1105,862.405,return,0.2937,,74.609375,,,,,,FBP-RB-71.png,0.4,1.2,48,0.5,,,,,,,,,,,,,,,,,,0,3,3,47,1,,,,,,,,,,,,,,,,,,,,,,,
,,,,,V3_104,18,F,2025-02-06_13h41.38.922,jersey_experiment_5_v3,2023.2.2,Win32,85.47008547,,,,,,,,,,,,,,,,862.4052,863.6987,863.6988,864.9665,return,0.495,,99.47916667,,,,,,FBP-RB-71.png,0.43,1.2,49,0.5,,,,,,,,,,,,,,,,,,0,4,4,48,1,,,,,,,,,,,,,,,,,,,,,,,
,,,,,V3_104,18,F,2025-02-06_13h41.38.922,jersey_experiment_5_v3,2023.2.2,Win32,85.47008547,,,,,,,,,,,,,,,,864.9667,866.2643,866.2643,868.9143,return,0.6507,,50.91145833,,,,,,FBP-YG-19.png,0.35,1.2,11,0.5,,,,,,,,,,,,,,,,,,0,5,5,10,1,,,,,,,,,,,,,,,,,,,,,,,
,,,,,V3_104,18,F,2025-02-06_13h41.38.922,jersey_experiment_5_v3,2023.2.2,Win32,85.47008547,,,,,,,,,,,,,,,,868.9144,870.2168,870.2168,872.3719,return,0.4376,,99.34895833,,,,,,FBP-YG-18.png,0.43,1.2,9,0.5,,,,,,,,,,,,,,,,,,0,6,6,8,1,,,,,,,,,,,,,,,,,,,,,,,
,,,,,V3_104,18,F,2025-02-06_13h41.38.922,jersey_experiment_5_v3,2023.2.2,Win32,85.47008547,,,,,,,,,,,,,,,,872.372,873.6757,873.6758,874.4426,return,0.3286,,99.08854167,,,,,,FBP-PT-91.png,0.43,1.2,29,0.5,,,,,,,,,,,,,,,,,,0,7,7,28,1,,,,,,,,,,,,,,,,,,,,,,,
,,,,,V3_104,18,F,2025-02-06_13h41.38.922,jersey_experiment_5_v3,2023.2.2,Win32,85.47008547,,,,,,,,,,,,,,,,874.4428,875.7352,875.7353,877.3144,return,0.2739,,49.609375,,,,,,FBP-PT-81.png,0.35,1.2,21,0.5,,,,,,,,,,,,,,,,,,0,8,8,20,1,,,,,,,,,,,,,,,,,,,,,,,
,,,,,V3_104,18,F,2025-02-06_13h41.38.922,jersey_experiment_5_v3,2023.2.2,Win32,85.47008547,,,,,,,,,,,,,,,,877.3145,878.8673,878.8673,880.1144,return,0.3305,,99.08854167,,,,,,FBP-OG-91.png,0.43,1.2,44,0.75,,,,,,,,,,,,,,,,,,0,9,9,43,1,,,,,,,,,,,,,,,,,,,,,,,
,,,,,V3_104,18,F,2025-02-06_13h41.38.922,jersey_experiment_5_v3,2023.2.2,Win32,85.47008547,,,,,,,,,,,,,,,,880.1144,881.6611,881.6611,883.0964,return,0.3656,,74.34895833,,,,,,FBP-OG-71.png,0.43,1.2,34,0.75,,,,,,,,,,,,,,,,,,0,10,10,33,1,,,,,,,,,,,,,,,,,,,,,,,
,,,,,V3_104,18,F,2025-02-06_13h41.38.922,jersey_experiment_5_v3,2023.2.2,Win32,85.47008547,,,,,,,,,,,,,,,,883.0966,884.6407,884.6407,885.6528,return,0.3533,,95.05208333,,,,,,FBP-OG-81.png,0.43,1.2,39,0.75,,,,,,,,,,,,,,,,,,0,11,11,38,1,,,,,,,,,,,,,,,,,,,,,,,
,,,,,V3_104,18,F,2025-02-06_13h41.38.922,jersey_experiment_5_v3,2023.2.2,Win32,85.47008547,,,,,,,,,,,,,,,,885.6529,886.961,886.961,888.6849,return,0.9416,,95.05208333,,,,,,FBP-PT-71.png,0.43,1.2,19,0.5,,,,,,,,,,,,,,,,,,0,12,12,18,1,,,,,,,,,,,,,,,,,,,,,,,
,,,,,V3_104,18,F,2025-02-06_13h41.38.922,jersey_experiment_5_v3,2023.2.2,Win32,85.47008547,,,,,,,,,,,,,,,,888.6852,889.9824,889.9825,891.3474,return,0.4104,,23.828125,,,,,,FBP-PT-71.png,0.35,1.2,16,0.5,,,,,,,,,,,,,,,,,,0,13,13,15,1,,,,,,,,,,,,,,,,,,,,,,,
,,,,,V3_104,18,F,2025-02-06_13h41.38.922,jersey_experiment_5_v3,2023.2.2,Win32,85.47008547,,,,,,,,,,,,,,,,891.3476,892.6414,892.6414,893.5006,return,0.3422,,24.08854167,,,,,,FBP-YG-19.png,0.37,1.2,12,0.5,,,,,,,,,,,,,,,,,,0,14,14,11,1,,,,,,,,,,,,,,,,,,,,,,,
,,,,,V3_104,18,F,2025-02-06_13h41.38.922,jersey_experiment_5_v3,2023.2.2,Win32,85.47008547,,,,,,,,,,,,,,,,893.5009,894.7961,894.7961,896.1467,return,0.47,,0.520833333,,,,,,FBP-RB-81.png,0.35,1.2,51,0.5,,,,,,,,,,,,,,,,,,0,15,15,50,1,,,,,,,,,,,,,,,,,,,,,,,
,,,,,V3_104,18,F,2025-02-06_13h41.38.922,jersey_experiment_5_v3,2023.2.2,Win32,85.47008547,,,,,,,,,,,,,,,,896.1468,897.4382,897.4382,898.3119,return,0.3882,,0.520833333,,,,,,FBP-YG-17.png,0.35,1.2,1,0.5,,,,,,,,,,,,,,,,,,0,16,16,0,1,,,,,,,,,,,,,,,,,,,,,,,
,,,,,V3_104,18,F,2025-02-06_13h41.38.922,jersey_experiment_5_v3,2023.2.2,Win32,85.47008547,,,,,,,,,,,,,,,,898.312,899.6059,899.606,901.4416,return,0.3384,,99.34895833,,,,,,FBP-RB-91.png,0.45,1.2,60,0.5,,,,,,,,,,,,,,,,,,0,17,17,59,1,,,,,,,,,,,,,,,,,,,,,,,
,,,,,V3_104,18,F,2025-02-06_13h41.38.922,jersey_experiment_5_v3,2023.2.2,Win32,85.47008547,,,,,,,,,,,,,,,,901.4417,902.7444,902.7444,903.4787,return,0.3303,,99.73958333,,,,,,FBP-YG-17.png,0.43,1.2,4,0.5,,,,,,,,,,,,,,,,,,0,18,18,3,1,,,,,,,,,,,,,,,,,,,,,,,
,,,,,V3_104,18,F,2025-02-06_13h41.38.922,jersey_experiment_5_v3,2023.2.2,Win32,85.47008547,,,,,,,,,,,,,,,,903.4789,904.7831,904.7831,907.1593,return,0.3768,,49.21875,,,,,,FBP-YG-19.png,0.4,1.2,13,0.5,,,,,,,,,,,,,,,,,,0,19,19,12,1,,,,,,,,,,,,,,,,,,,,,,,
,,,,,V3_104,18,F,2025-02-06_13h41.38.922,jersey_experiment_5_v3,2023.2.2,Win32,85.47008547,,,,,,,,,,,,,,,,907.1595,908.4535,908.4536,914.933,return,5.0175,,99.47916667,,,,,,FBP-PT-71.png,0.45,1.2,20,0.5,,,,,,,,,,,,,,,,,,0,20,20,19,1,,,,,,,,,,,,,,,,,,,,,,,
,,,,,V3_104,18,F,2025-02-06_13h41.38.922,jersey_experiment_5_v3,2023.2.2,Win32,85.47008547,,,,,,,,,,,,,,,,914.9332,916.227,916.227,917.6541,return,0.3535,,50,,,,,,FBP-YG-18.png,0.4,1.2,8,0.5,,,,,,,,,,,,,,,,,,0,21,21,7,1,,,,,,,,,,,,,,,,,,,,,,,
,,,,,V3_104,18,F,2025-02-06_13h41.38.922,jersey_experiment_5_v3,2023.2.2,Win32,85.47008547,,,,,,,,,,,,,,,,917.6542,918.96,918.96,919.6776,return,0.2913,,49.86979167,,,,,,FBP-YG-17.png,0.37,1.2,2,0.5,,,,,,,,,,,,,,,,,,0,22,22,1,1,,,,,,,,,,,,,,,,,,,,,,,
,,,,,V3_104,18,F,2025-02-06_13h41.38.922,jersey_experiment_5_v3,2023.2.2,Win32,85.47008547,,,,,,,,,,,,,,,,919.6777,921.2194,921.2194,922.219,return,0.3145,,23.69791667,,,,,,FBP-OG-71.png,0.37,1.2,32,0.75,,,,,,,,,,,,,,,,,,0,23,23,31,1,,,,,,,,,,,,,,,,,,,,,,,
,,,,,V3_104,18,F,2025-02-06_13h41.38.922,jersey_experiment_5_v3,2023.2.2,Win32,85.47008547,,,,,,,,,,,,,,,,922.2191,923.5131,923.5132,925.6545,return,0.5184,,85.02604167,,,,,,FBP-YG-17.png,0.45,1.2,5,0.5,,,,,,,,,,,,,,,,,,0,24,24,4,1,,,,,,,,,,,,,,,,,,,,,,,
,,,,,V3_104,18,F,2025-02-06_13h41.38.922,jersey_experiment_5_v3,2023.2.2,Win32,85.47008547,,,,,,,,,,,,,,,,925.6546,926.9613,926.9613,928.1251,return,0.3163,,99.21875,,,,,,FBP-YG-19.png,0.45,1.2,15,0.5,,,,,,,,,,,,,,,,,,0,25,25,14,1,,,,,,,,,,,,,,,,,,,,,,,
,,,,,V3_104,18,F,2025-02-06_13h41.38.922,jersey_experiment_5_v3,2023.2.2,Win32,85.47008547,,,,,,,,,,,,,,,,928.1253,929.4189,929.4189,931.7632,return,0.3207,,66.53645833,,,,,,FBP-RB-81.png,0.4,1.2,53,0.5,,,,,,,,,,,,,,,,,,0,26,26,52,1,,,,,,,,,,,,,,,,,,,,,,,
,,,,,V3_104,18,F,2025-02-06_13h41.38.922,jersey_experiment_5_v3,2023.2.2,Win32,85.47008547,,,,,,,,,,,,,,,,931.7633,933.057,933.057,935.5131,return,0.2677,,75,,,,,,FBP-PT-91.png,0.45,1.2,30,0.5,,,,,,,,,,,,,,,,,,0,27,27,29,1,,,,,,,,,,,,,,,,,,,,,,,
,,,,,V3_104,18,F,2025-02-06_13h41.38.922,jersey_experiment_5_v3,2023.2.2,Win32,85.47008547,,,,,,,,,,,,,,,,935.5133,936.8213,936.8214,937.875,return,0.3467,,99.08854167,,,,,,FBP-RB-91.png,0.43,1.2,59,0.5,,,,,,,,,,,,,,,,,,0,28,28,58,1,,,,,,,,,,,,,,,,,,,,,,,
,,,,,V3_104,18,F,2025-02-06_13h41.38.922,jersey_experiment_5_v3,2023.2.2,Win32,85.47008547,,,,,,,,,,,,,,,,937.8752,939.4194,939.4194,940.7047,return,0.3915,,50.65104167,,,,,,FBP-OG-91.png,0.35,1.2,41,0.75,,,,,,,,,,,,,,,,,,0,29,29,40,1,,,,,,,,,,,,,,,,,,,,,,,
,,,,,V3_104,18,F,2025-02-06_13h41.38.922,jersey_experiment_5_v3,2023.2.2,Win32,85.47008547,,,,,,,,,,,,,,,,940.7049,941.9978,941.9978,942.845,return,0.3434,,50.78125,,,,,,FBP-RB-91.png,0.4,1.2,58,0.5,,,,,,,,,,,,,,,,,,0,30,30,57,1,,,,,,,,,,,,,,,,,,,,,,,
,,,,,V3_104,18,F,2025-02-06_13h41.38.922,jersey_experiment_5_v3,2023.2.2,Win32,85.47008547,,,,,,,,,,,,,,,,942.8451,944.1383,944.1383,945.4165,return,0.2507,,88.80208333,,,,,,FBP-RB-81.png,0.45,1.2,55,0.5,,,,,,,,,,,,,,,,,,0,31,31,54,1,,,,,,,,,,,,,,,,,,,,,,,
,,,,,V3_104,18,F,2025-02-06_13h41.38.922,jersey_experiment_5_v3,2023.2.2,Win32,85.47008547,,,,,,,,,,,,,,,,945.4167,946.7138,946.7138,947.8283,return,0.2733,,25.13020833,,,,,,FBP-PT-91.png,0.37,1.2,27,0.5,,,,,,,,,,,,,,,,,,0,32,32,26,1,,,,,,,,,,,,,,,,,,,,,,,
,,,,,V3_104,18,F,2025-02-06_13h41.38.922,jersey_experiment_5_v3,2023.2.2,Win32,85.47008547,,,,,,,,,,,,,,,,947.8286,949.3725,949.3725,950.1813,return,0.2402,,0.260416667,,,,,,FBP-OG-81.png,0.35,1.2,36,0.75,,,,,,,,,,,,,,,,,,0,33,33,35,1,,,,,,,,,,,,,,,,,,,,,,,
,,,,,V3_104,18,F,2025-02-06_13h41.38.922,jersey_experiment_5_v3,2023.2.2,Win32,85.47008547,,,,,,,,,,,,,,,,950.1816,951.4796,951.4796,952.2099,return,0.3304,,0.911458333,,,,,,FBP-PT-91.png,0.35,1.2,26,0.5,,,,,,,,,,,,,,,,,,0,34,34,25,1,,,,,,,,,,,,,,,,,,,,,,,
,,,,,V3_104,18,F,2025-02-06_13h41.38.922,jersey_experiment_5_v3,2023.2.2,Win32,85.47008547,,,,,,,,,,,,,,,,952.2101,953.5028,953.5028,954.973,return,0.2828,,99.34895833,,,,,,FBP-PT-81.png,0.43,1.2,24,0.5,,,,,,,,,,,,,,,,,,0,35,35,23,1,,,,,,,,,,,,,,,,,,,,,,,
,,,,,V3_104,18,F,2025-02-06_13h41.38.922,jersey_experiment_5_v3,2023.2.2,Win32,85.47008547,,,,,,,,,,,,,,,,954.973,956.2672,956.2672,957.4433,return,0.2589,,50,,,,,,FBP-PT-81.png,0.37,1.2,22,0.5,,,,,,,,,,,,,,,,,,0,36,36,21,1,,,,,,,,,,,,,,,,,,,,,,,
,,,,,V3_104,18,F,2025-02-06_13h41.38.922,jersey_experiment_5_v3,2023.2.2,Win32,85.47008547,,,,,,,,,,,,,,,,957.4434,958.7513,958.7514,959.4201,return,0.2588,,50,,,,,,FBP-RB-91.png,0.37,1.2,57,0.5,,,,,,,,,,,,,,,,,,0,37,37,56,1,,,,,,,,,,,,,,,,,,,,,,,
,,,,,V3_104,18,F,2025-02-06_13h41.38.922,jersey_experiment_5_v3,2023.2.2,Win32,85.47008547,,,,,,,,,,,,,,,,959.4202,960.729,960.729,961.3732,return,0.2702,,50,,,,,,FBP-PT-91.png,0.4,1.2,28,0.5,,,,,,,,,,,,,,,,,,0,38,38,27,1,,,,,,,,,,,,,,,,,,,,,,,
,,,,,V3_104,18,F,2025-02-06_13h41.38.922,jersey_experiment_5_v3,2023.2.2,Win32,85.47008547,,,,,,,,,,,,,,,,961.3734,962.6672,962.6672,964.1027,return,0.2592,,26.04166667,,,,,,FBP-RB-71.png,0.37,1.2,47,0.5,,,,,,,,,,,,,,,,,,0,39,39,46,1,,,,,,,,,,,,,,,,,,,,,,,
,,,,,V3_104,18,F,2025-02-06_13h41.38.922,jersey_experiment_5_v3,2023.2.2,Win32,85.47008547,,,,,,,,,,,,,,,,964.1029,965.3968,965.3968,967.9762,return,0.6142,,99.34895833,,,,,,FBP-RB-81.png,0.43,1.2,54,0.5,,,,,,,,,,,,,,,,,,0,40,40,53,1,,,,,,,,,,,,,,,,,,,,,,,
,,,,,V3_104,18,F,2025-02-06_13h41.38.922,jersey_experiment_5_v3,2023.2.2,Win32,85.47008547,,,,,,,,,,,,,,,,967.9764,969.5281,969.5282,970.7585,return,0.2751,,49.47916667,,,,,,FBP-OG-91.png,0.37,1.2,42,0.75,,,,,,,,,,,,,,,,,,0,41,41,41,1,,,,,,,,,,,,,,,,,,,,,,,
,,,,,V3_104,18,F,2025-02-06_13h41.38.922,jersey_experiment_5_v3,2023.2.2,Win32,85.47008547,,,,,,,,,,,,,,,,970.7588,972.3145,972.3145,973.8592,return,0.306,,74.73958333,,,,,,FBP-OG-91.png,0.4,1.2,43,0.75,,,,,,,,,,,,,,,,,,0,42,42,42,1,,,,,,,,,,,,,,,,,,,,,,,
,,,,,V3_104,18,F,2025-02-06_13h41.38.922,jersey_experiment_5_v3,2023.2.2,Win32,85.47008547,,,,,,,,,,,,,,,,973.8594,975.1617,975.1617,976.4795,return,0.269,,50,,,,,,FBP-PT-71.png,0.37,1.2,17,0.5,,,,,,,,,,,,,,,,,,0,43,43,16,1,,,,,,,,,,,,,,,,,,,,,,,
,,,,,V3_104,18,F,2025-02-06_13h41.38.922,jersey_experiment_5_v3,2023.2.2,Win32,85.47008547,,,,,,,,,,,,,,,,976.4797,977.774,977.774,978.8562,return,0.2454,,74.86979167,,,,,,FBP-YG-17.png,0.4,1.2,3,0.5,,,,,,,,,,,,,,,,,,0,44,44,2,1,,,,,,,,,,,,,,,,,,,,,,,
,,,,,V3_104,18,F,2025-02-06_13h41.38.922,jersey_experiment_5_v3,2023.2.2,Win32,85.47008547,,,,,,,,,,,,,,,,978.8563,980.1502,980.1502,981.6217,return,0.6717,,98.30729167,,,,,,FBP-PT-81.png,0.45,1.2,25,0.5,,,,,,,,,,,,,,,,,,0,45,45,24,1,,,,,,,,,,,,,,,,,,,,,,,
,,,,,V3_104,18,F,2025-02-06_13h41.38.922,jersey_experiment_5_v3,2023.2.2,Win32,85.47008547,,,,,,,,,,,,,,,,981.6218,982.9175,982.9175,984.2439,return,0.2584,,24.47916667,,,,,,FBP-YG-18.png,0.35,1.2,6,0.5,,,,,,,,,,,,,,,,,,0,46,46,5,1,,,,,,,,,,,,,,,,,,,,,,,
,,,,,V3_104,18,F,2025-02-06_13h41.38.922,jersey_experiment_5_v3,2023.2.2,Win32,85.47008547,,,,,,,,,,,,,,,,984.244,985.7876,985.7876,987.2476,return,0.2267,,99.73958333,,,,,,FBP-OG-81.png,0.45,1.2,40,0.75,,,,,,,,,,,,,,,,,,0,47,47,39,1,,,,,,,,,,,,,,,,,,,,,,,
,,,,,V3_104,18,F,2025-02-06_13h41.38.922,jersey_experiment_5_v3,2023.2.2,Win32,85.47008547,,,,,,,,,,,,,,,,987.2477,988.5506,988.5506,989.8918,return,0.3297,,50,,,,,,FBP-PT-71.png,0.4,1.2,18,0.5,,,,,,,,,,,,,,,,,,0,48,48,17,1,,,,,,,,,,,,,,,,,,,,,,,
,,,,,V3_104,18,F,2025-02-06_13h41.38.922,jersey_experiment_5_v3,2023.2.2,Win32,85.47008547,,,,,,,,,,,,,,,,989.8919,991.4349,991.4349,992.9037,return,0.4004,,99.609375,,,,,,FBP-OG-91.png,0.45,1.2,45,0.75,,,,,,,,,,,,,,,,,,0,49,49,44,1,,,,,,,,,,,,,,,,,,,,,,,
,,,,,V3_104,18,F,2025-02-06_13h41.38.922,jersey_experiment_5_v3,2023.2.2,Win32,85.47008547,,,,,,,,,,,,,,,,992.9039,994.1977,994.1977,995.6805,return,0.3064,,75.390625,,,,,,FBP-YG-19.png,0.43,1.2,14,0.5,,,,,,,,,,,,,,,,,,0,50,50,13,1,,,,,,,,,,,,,,,,,,,,,,,
,,,,,V3_104,18,F,2025-02-06_13h41.38.922,jersey_experiment_5_v3,2023.2.2,Win32,85.47008547,,,,,,,,,,,,,,,,995.6806,996.9746,996.9747,998.9042,return,0.3301,,99.21875,,,,,,FBP-YG-18.png,0.45,1.2,10,0.5,,,,,,,,,,,,,,,,,,0,51,51,9,1,,,,,,,,,,,,,,,,,,,,,,,
,,,,,V3_104,18,F,2025-02-06_13h41.38.922,jersey_experiment_5_v3,2023.2.2,Win32,85.47008547,,,,,,,,,,,,,,,,998.9043,1000.2111,1000.2111,1001.1866,return,0.5269,,99.08854167,,,,,,FBP-RB-71.png,0.45,1.2,50,0.5,,,,,,,,,,,,,,,,,,0,52,52,49,1,,,,,,,,,,,,,,,,,,,,,,,
,,,,,V3_104,18,F,2025-02-06_13h41.38.922,jersey_experiment_5_v3,2023.2.2,Win32,85.47008547,,,,,,,,,,,,,,,,1001.1867,1002.7287,1002.7287,1004.0539,return,0.333,,75.390625,,,,,,FBP-OG-81.png,0.4,1.2,38,0.75,,,,,,,,,,,,,,,,,,0,53,53,37,1,,,,,,,,,,,,,,,,,,,,,,,
,,,,,V3_104,18,F,2025-02-06_13h41.38.922,jersey_experiment_5_v3,2023.2.2,Win32,85.47008547,,,,,,,,,,,,,,,,1004.0541,1005.3483,1005.3483,1006.8696,return,0.3753,,25,,,,,,FBP-RB-91.png,0.35,1.2,56,0.5,,,,,,,,,,,,,,,,,,0,54,54,55,1,,,,,,,,,,,,,,,,,,,,,,,
,,,,,V3_104,18,F,2025-02-06_13h41.38.922,jersey_experiment_5_v3,2023.2.2,Win32,85.47008547,,,,,,,,,,,,,,,,1006.8698,1008.4222,1008.4222,1009.7984,return,0.3534,,98.69791667,,,,,,FBP-OG-71.png,0.45,1.2,35,0.75,,,,,,,,,,,,,,,,,,0,55,55,34,1,,,,,,,,,,,,,,,,,,,,,,,
,,,,,V3_104,18,F,2025-02-06_13h41.38.922,jersey_experiment_5_v3,2023.2.2,Win32,85.47008547,,,,,,,,,,,,,,,,1009.7985,1011.3409,1011.3409,1012.5955,return,0.2633,,24.86979167,,,,,,FBP-OG-81.png,0.37,1.2,37,0.75,,,,,,,,,,,,,,,,,,0,56,56,36,1,,,,,,,,,,,,,,,,,,,,,,,
,,,,,V3_104,18,F,2025-02-06_13h41.38.922,jersey_experiment_5_v3,2023.2.2,Win32,85.47008547,,,,,,,,,,,,,,,,1012.5957,1013.8924,1013.8924,1015.2339,return,0.4708,,48.95833333,,,,,,FBP-PT-81.png,0.4,1.2,23,0.5,,,,,,,,,,,,,,,,,,0,57,57,22,1,,,,,,,,,,,,,,,,,,,,,,,
,,,,,V3_104,18,F,2025-02-06_13h41.38.922,jersey_experiment_5_v3,2023.2.2,Win32,85.47008547,,,,,,,,,,,,,,,,1015.2341,1016.5403,1016.5403,1017.8352,return,0.2954,,48.95833333,,,,,,FBP-YG-18.png,0.37,1.2,7,0.5,,,,,,,,,,,,,,,,,,0,58,58,6,1,,,,,,,,,,,,,,,,,,,,,,,
,,,,,V3_104,18,F,2025-02-06_13h41.38.922,jersey_experiment_5_v3,2023.2.2,Win32,85.47008547,,,,,,,,,,,,,,,,1017.8354,1019.131,1019.1311,1020.7252,return,0.3349,,23.95833333,,,,,,FBP-RB-81.png,0.37,1.2,52,0.5,,,,,,,,,,,,,,,,,,0,59,59,51,1,,,,,,,,,,,,,,,,,,,,,,,
,,,,,V3_104,18,F,2025-02-06_13h41.38.922,jersey_experiment_5_v3,2023.2.2,Win32,85.47008547,,,,,,,,,,,,,,,,,,,,,,,,,,,,,,,,,,,,,,,,,,,,,,,,,,,,,,,,1020.7253,1029.5553,return,8.8153,,,,,,,,,,,,,,,,,,,
,,,,,V3_104,18,F,2025-02-06_13h41.38.922,jersey_experiment_5_v3,2023.2.2,Win32,85.47008547,,,,,,,,,,,,,,,,,,,,,,,,,,,,,,,,,,,,,,,,,,,,,,,,,,,,,,,,,,,,,1029.5553,1035.4117,1,4.776,return,1.0711,,,,,,,,,,,,
,,,,,V3_104,18,F,2025-02-06_13h41.38.922,jersey_experiment_5_v3,2023.2.2,Win32,85.47008547,,,,,,,,,,,,,,,,,,,,,,,,,,,,,,,,,,,,,,,,,,,,,,,,,,,,,,,,,,,,,,,,,,,,1035.4117,1155.3724,I do not know what this study was about but I did recognize that there was multiple times where I classified the football player as the same size many times in a row. It also seemed easier to tell the size of a football player in a red jersey opposed to a green jersey. ,right,102.2762,,,,,,
,,,,,V3_104,18,F,2025-02-06_13h41.38.922,jersey_experiment_5_v3,2023.2.2,Win32,85.47008547,,,,,,,,,,,,,,,,,,,,,,,,,,,,,,,,,,,,,,,,,,,,,,,,,,,,,,,,,,,,,,,,,,,,,,,,,,1155.3725,1161.1538,return,5.7729,