requirements.started,requirements.stopped,key_resp_3.keys,key_resp_3.rt,key_resp_3.duration,Subject ID,Age,Gender,date,expName,psychopyVersion,OS,frameRate,instructions1.started,instructions1.stopped,key_resp.keys,key_resp.rt,key_resp.duration,example.started,example.stopped,enter_2.keys,enter_2.rt,enter_2.duration,instructions2.started,instructions2.stopped,enter_3.keys,enter_3.rt,enter_3.duration,image.started,image.stopped,slider_2.started,slider_2.stopped,next.keys,next.rt,next.duration,slider.response,trial_block_1.thisRepN,trial_block_1.thisTrialN,trial_block_1.thisN,trial_block_1.thisIndex,trial_block_1.ran,Path,Width,Height,Index,Duration,trial_block_2.thisRepN,trial_block_2.thisTrialN,trial_block_2.thisN,trial_block_2.thisIndex,trial_block_2.ran,rest_break.started,rest_break.stopped,end_break.started,end_break.stopped,key_resp_5.keys,key_resp_5.rt,key_resp_5.duration,trial_block_3.thisRepN,trial_block_3.thisTrialN,trial_block_3.thisN,trial_block_3.thisIndex,trial_block_3.ran,trial_block_4.thisRepN,trial_block_4.thisTrialN,trial_block_4.thisN,trial_block_4.thisIndex,trial_block_4.ran,questions_intro.started,questions_intro.stopped,enter_12.keys,enter_12.rt,enter_12.duration,question2.started,question2.stopped,question_doingbest.response,question_doingbest.rt,enter_15.keys,enter_15.rt,enter_15.duration,pattern.started,pattern.stopped,pattern_2.text,enter_17.keys,enter_17.rt,enter_17.duration,thankyou.started,thankyou.stopped,enter_14.keys,enter_14.rt,enter_14.duration
0.0001,6.707,return,6.7022,,V3_109,18,female,2025-02-06_16h00.47.863,jersey_experiment_5_v3,2023.2.2,Win32,85.47008547,,,,,,,,,,,,,,,,,,,,,,,,,,,,,,,,,,,,,,,,,,,,,,,,,,,,,,,,,,,,,,,,,,,,,,,,,,,,,,
,,,,,V3_109,18,female,2025-02-06_16h00.47.863,jersey_experiment_5_v3,2023.2.2,Win32,85.47008547,6.7071,12.8568,return,6.1306,,,,,,,,,,,,,,,,,,,,,,,,,,,,,,,,,,,,,,,,,,,,,,,,,,,,,,,,,,,,,,,,,,,,,,,,,,
,,,,,V3_109,18,female,2025-02-06_16h00.47.863,jersey_experiment_5_v3,2023.2.2,Win32,85.47008547,,,,,,12.8569,17.5629,return,4.6647,,,,,,,,,,,,,,,,,,,,,,,,,,,,,,,,,,,,,,,,,,,,,,,,,,,,,,,,,,,,,,,,,,,,,
,,,,,V3_109,18,female,2025-02-06_16h00.47.863,jersey_experiment_5_v3,2023.2.2,Win32,85.47008547,,,,,,,,,,,17.5631,30.4691,return,12.8949,,,,,,,,,,,,,,,,,,,,,,,,,,,,,,,,,,,,,,,,,,,,,,,,,,,,,,,,,,,,,,,,
,,,,,V3_109,18,female,2025-02-06_16h00.47.863,jersey_experiment_5_v3,2023.2.2,Win32,85.47008547,,,,,,,,,,,,,,,,30.4713,32.0222,32.0222,42.8107,return,2.0343,,49.47916667,0,0,0,45,1,FBP-RB-17.png,0.35,1.2,46,0.75,,,,,,,,,,,,,,,,,,,,,,,,,,,,,,,,,,,,,,,,,,,,,
,,,,,V3_109,18,female,2025-02-06_16h00.47.863,jersey_experiment_5_v3,2023.2.2,Win32,85.47008547,,,,,,,,,,,,,,,,42.8111,44.3637,44.3637,48.0579,return,1.4355,,75.65104167,0,1,1,7,1,FBP-YG-81.png,0.4,1.2,8,0.75,,,,,,,,,,,,,,,,,,,,,,,,,,,,,,,,,,,,,,,,,,,,,
,,,,,V3_109,18,female,2025-02-06_16h00.47.863,jersey_experiment_5_v3,2023.2.2,Win32,85.47008547,,,,,,,,,,,,,,,,48.0581,49.6109,49.611,53.8349,return,2.4008,,73.17708333,0,2,2,52,1,FBP-RB-18.png,0.4,1.2,53,0.75,,,,,,,,,,,,,,,,,,,,,,,,,,,,,,,,,,,,,,,,,,,,,
,,,,,V3_109,18,female,2025-02-06_16h00.47.863,jersey_experiment_5_v3,2023.2.2,Win32,85.47008547,,,,,,,,,,,,,,,,53.8351,55.3878,55.3879,58.5171,return,0.9206,,89.97395833,0,3,3,19,1,FBP-PT-17.png,0.45,1.2,20,0.75,,,,,,,,,,,,,,,,,,,,,,,,,,,,,,,,,,,,,,,,,,,,,
,,,,,V3_109,18,female,2025-02-06_16h00.47.863,jersey_experiment_5_v3,2023.2.2,Win32,85.47008547,,,,,,,,,,,,,,,,58.5174,60.0702,60.0702,62.0588,return,0.7166,,77.60416667,0,4,4,3,1,FBP-YG-71.png,0.43,1.2,4,0.75,,,,,,,,,,,,,,,,,,,,,,,,,,,,,,,,,,,,,,,,,,,,,
,,,,,V3_109,18,female,2025-02-06_16h00.47.863,jersey_experiment_5_v3,2023.2.2,Win32,85.47008547,,,,,,,,,,,,,,,,62.0592,63.6115,63.6115,66.6823,return,1.2364,,27.60416667,0,5,5,5,1,FBP-YG-81.png,0.35,1.2,6,0.75,,,,,,,,,,,,,,,,,,,,,,,,,,,,,,,,,,,,,,,,,,,,,
,,,,,V3_109,18,female,2025-02-06_16h00.47.863,jersey_experiment_5_v3,2023.2.2,Win32,85.47008547,,,,,,,,,,,,,,,,66.6828,68.2352,68.2353,72.2354,return,1.6475,,60.41666667,0,6,6,22,1,FBP-PT-18.png,0.4,1.2,23,0.75,,,,,,,,,,,,,,,,,,,,,,,,,,,,,,,,,,,,,,,,,,,,,
,,,,,V3_109,18,female,2025-02-06_16h00.47.863,jersey_experiment_5_v3,2023.2.2,Win32,85.47008547,,,,,,,,,,,,,,,,72.2356,73.7883,73.7883,76.8708,return,1.249,,80.98958333,0,7,7,58,1,FBP-RB-19.png,0.43,1.2,59,0.75,,,,,,,,,,,,,,,,,,,,,,,,,,,,,,,,,,,,,,,,,,,,,
,,,,,V3_109,18,female,2025-02-06_16h00.47.863,jersey_experiment_5_v3,2023.2.2,Win32,85.47008547,,,,,,,,,,,,,,,,76.8711,78.4238,78.4238,81.2357,return,1.041,,72.00520833,0,8,8,12,1,FBP-YG-91.png,0.4,1.2,13,0.75,,,,,,,,,,,,,,,,,,,,,,,,,,,,,,,,,,,,,,,,,,,,,
,,,,,V3_109,18,female,2025-02-06_16h00.47.863,jersey_experiment_5_v3,2023.2.2,Win32,85.47008547,,,,,,,,,,,,,,,,81.2359,82.5297,82.5298,85.7654,return,1.0746,,86.328125,0,9,9,39,1,FBP-OG-18.png,0.45,1.2,40,0.5,,,,,,,,,,,,,,,,,,,,,,,,,,,,,,,,,,,,,,,,,,,,,
,,,,,V3_109,18,female,2025-02-06_16h00.47.863,jersey_experiment_5_v3,2023.2.2,Win32,85.47008547,,,,,,,,,,,,,,,,85.7657,87.3184,87.3184,90.5184,return,1.4028,,29.6875,0,10,10,6,1,FBP-YG-81.png,0.37,1.2,7,0.75,,,,,,,,,,,,,,,,,,,,,,,,,,,,,,,,,,,,,,,,,,,,,
,,,,,V3_109,18,female,2025-02-06_16h00.47.863,jersey_experiment_5_v3,2023.2.2,Win32,85.47008547,,,,,,,,,,,,,,,,90.5187,91.8126,91.8126,93.8479,return,0.8358,,27.08333333,0,11,11,41,1,FBP-OG-19.png,0.37,1.2,42,0.5,,,,,,,,,,,,,,,,,,,,,,,,,,,,,,,,,,,,,,,,,,,,,
,,,,,V3_109,18,female,2025-02-06_16h00.47.863,jersey_experiment_5_v3,2023.2.2,Win32,85.47008547,,,,,,,,,,,,,,,,93.8481,95.1421,95.1421,97.6363,return,0.7346,,75,0,12,12,33,1,FBP-OG-17.png,0.43,1.2,34,0.5,,,,,,,,,,,,,,,,,,,,,,,,,,,,,,,,,,,,,,,,,,,,,
,,,,,V3_109,18,female,2025-02-06_16h00.47.863,jersey_experiment_5_v3,2023.2.2,Win32,85.47008547,,,,,,,,,,,,,,,,97.6366,99.1894,99.1894,101.154,return,0.7832,,25.91145833,0,13,13,46,1,FBP-RB-17.png,0.37,1.2,47,0.75,,,,,,,,,,,,,,,,,,,,,,,,,,,,,,,,,,,,,,,,,,,,,
,,,,,V3_109,18,female,2025-02-06_16h00.47.863,jersey_experiment_5_v3,2023.2.2,Win32,85.47008547,,,,,,,,,,,,,,,,101.1542,102.6955,102.6956,105.413,return,0.6981,,92.578125,0,14,14,29,1,FBP-PT-19.png,0.45,1.2,30,0.75,,,,,,,,,,,,,,,,,,,,,,,,,,,,,,,,,,,,,,,,,,,,,
,,,,,V3_109,18,female,2025-02-06_16h00.47.863,jersey_experiment_5_v3,2023.2.2,Win32,85.47008547,,,,,,,,,,,,,,,,105.4132,106.9544,106.9545,108.625,return,0.654,,50.91145833,0,15,15,2,1,FBP-YG-71.png,0.4,1.2,3,0.75,,,,,,,,,,,,,,,,,,,,,,,,,,,,,,,,,,,,,,,,,,,,,
,,,,,V3_109,18,female,2025-02-06_16h00.47.863,jersey_experiment_5_v3,2023.2.2,Win32,85.47008547,,,,,,,,,,,,,,,,108.6253,109.919,109.919,113.3545,return,0.6121,,52.86458333,0,16,16,34,1,FBP-OG-17.png,0.45,1.2,35,0.5,,,,,,,,,,,,,,,,,,,,,,,,,,,,,,,,,,,,,,,,,,,,,
,,,,,V3_109,18,female,2025-02-06_16h00.47.863,jersey_experiment_5_v3,2023.2.2,Win32,85.47008547,,,,,,,,,,,,,,,,113.3549,114.6488,114.6488,116.3428,return,0.6482,,30.33854167,0,17,17,37,1,FBP-OG-18.png,0.4,1.2,38,0.5,,,,,,,,,,,,,,,,,,,,,,,,,,,,,,,,,,,,,,,,,,,,,
,,,,,V3_109,18,female,2025-02-06_16h00.47.863,jersey_experiment_5_v3,2023.2.2,Win32,85.47008547,,,,,,,,,,,,,,,,116.3432,117.8958,117.8959,122.7314,return,3.1074,,49.609375,0,18,18,47,1,FBP-RB-17.png,0.4,1.2,48,0.75,,,,,,,,,,,,,,,,,,,,,,,,,,,,,,,,,,,,,,,,,,,,,
,,,,,V3_109,18,female,2025-02-06_16h00.47.863,jersey_experiment_5_v3,2023.2.2,Win32,85.47008547,,,,,,,,,,,,,,,,122.7316,124.0254,124.0254,126.1784,return,0.6997,,81.38020833,0,19,19,44,1,FBP-OG-19.png,0.45,1.2,45,0.5,,,,,,,,,,,,,,,,,,,,,,,,,,,,,,,,,,,,,,,,,,,,,
,,,,,V3_109,18,female,2025-02-06_16h00.47.863,jersey_experiment_5_v3,2023.2.2,Win32,85.47008547,,,,,,,,,,,,,,,,126.1788,127.7315,127.7315,129.6257,return,0.7193,,67.83854167,0,20,20,48,1,FBP-RB-17.png,0.43,1.2,49,0.75,,,,,,,,,,,,,,,,,,,,,,,,,,,,,,,,,,,,,,,,,,,,,
,,,,,V3_109,18,female,2025-02-06_16h00.47.863,jersey_experiment_5_v3,2023.2.2,Win32,85.47008547,,,,,,,,,,,,,,,,129.626,131.1787,131.1788,133.9318,return,0.8957,,67.31770833,0,21,21,23,1,FBP-PT-18.png,0.43,1.2,24,0.75,,,,,,,,,,,,,,,,,,,,,,,,,,,,,,,,,,,,,,,,,,,,,
,,,,,V3_109,18,female,2025-02-06_16h00.47.863,jersey_experiment_5_v3,2023.2.2,Win32,85.47008547,,,,,,,,,,,,,,,,133.932,135.226,135.226,138.4378,return,1.5432,,30.46875,0,22,22,30,1,FBP-OG-17.png,0.35,1.2,31,0.5,,,,,,,,,,,,,,,,,,,,,,,,,,,,,,,,,,,,,,,,,,,,,
,,,,,V3_109,18,female,2025-02-06_16h00.47.863,jersey_experiment_5_v3,2023.2.2,Win32,85.47008547,,,,,,,,,,,,,,,,138.4381,139.9907,139.9908,143.2263,return,0.9416,,53.77604167,0,23,23,17,1,FBP-PT-17.png,0.4,1.2,18,0.75,,,,,,,,,,,,,,,,,,,,,,,,,,,,,,,,,,,,,,,,,,,,,
,,,,,V3_109,18,female,2025-02-06_16h00.47.863,jersey_experiment_5_v3,2023.2.2,Win32,85.47008547,,,,,,,,,,,,,,,,143.2266,144.5202,144.5203,147.4148,return,1.2614,,77.47395833,0,24,24,43,1,FBP-OG-19.png,0.43,1.2,44,0.5,,,,,,,,,,,,,,,,,,,,,,,,,,,,,,,,,,,,,,,,,,,,,
,,,,,V3_109,18,female,2025-02-06_16h00.47.863,jersey_experiment_5_v3,2023.2.2,Win32,85.47008547,,,,,,,,,,,,,,,,147.4151,148.7086,148.7087,151.2263,return,1.0033,,24.609375,0,25,25,31,1,FBP-OG-17.png,0.37,1.2,32,0.5,,,,,,,,,,,,,,,,,,,,,,,,,,,,,,,,,,,,,,,,,,,,,
,,,,,V3_109,18,female,2025-02-06_16h00.47.863,jersey_experiment_5_v3,2023.2.2,Win32,85.47008547,,,,,,,,,,,,,,,,151.2266,152.7793,152.7793,154.7089,return,0.91,,34.11458333,0,26,26,51,1,FBP-RB-18.png,0.37,1.2,52,0.75,,,,,,,,,,,,,,,,,,,,,,,,,,,,,,,,,,,,,,,,,,,,,
,,,,,V3_109,18,female,2025-02-06_16h00.47.863,jersey_experiment_5_v3,2023.2.2,Win32,85.47008547,,,,,,,,,,,,,,,,154.7092,156.262,156.262,158.7561,return,0.8742,,73.56770833,0,27,27,54,1,FBP-RB-18.png,0.45,1.2,55,0.75,,,,,,,,,,,,,,,,,,,,,,,,,,,,,,,,,,,,,,,,,,,,,
,,,,,V3_109,18,female,2025-02-06_16h00.47.863,jersey_experiment_5_v3,2023.2.2,Win32,85.47008547,,,,,,,,,,,,,,,,158.7564,160.0503,160.0504,162.0268,return,0.8142,,23.95833333,0,28,28,35,1,FBP-OG-18.png,0.35,1.2,36,0.5,,,,,,,,,,,,,,,,,,,,,,,,,,,,,,,,,,,,,,,,,,,,,
,,,,,V3_109,18,female,2025-02-06_16h00.47.863,jersey_experiment_5_v3,2023.2.2,Win32,85.47008547,,,,,,,,,,,,,,,,162.0271,163.5799,163.58,166.9329,return,0.828,,41.40625,0,29,29,1,1,FBP-YG-71.png,0.37,1.2,2,0.75,,,,,,,,,,,,,,,,,,,,,,,,,,,,,,,,,,,,,,,,,,,,,
,,,,,V3_109,18,female,2025-02-06_16h00.47.863,jersey_experiment_5_v3,2023.2.2,Win32,85.47008547,,,,,,,,,,,,,,,,166.9332,168.4859,168.486,170.6037,return,0.7171,,75.13020833,0,30,30,59,1,FBP-RB-19.png,0.45,1.2,60,0.75,,,,,,,,,,,,,,,,,,,,,,,,,,,,,,,,,,,,,,,,,,,,,
,,,,,V3_109,18,female,2025-02-06_16h00.47.863,jersey_experiment_5_v3,2023.2.2,Win32,85.47008547,,,,,,,,,,,,,,,,170.604,172.1566,172.1567,173.4273,return,0.6987,,74.609375,0,31,31,8,1,FBP-YG-81.png,0.43,1.2,9,0.75,,,,,,,,,,,,,,,,,,,,,,,,,,,,,,,,,,,,,,,,,,,,,
,,,,,V3_109,18,female,2025-02-06_16h00.47.863,jersey_experiment_5_v3,2023.2.2,Win32,85.47008547,,,,,,,,,,,,,,,,173.4276,174.9803,174.9803,176.1686,return,0.6955,,74.34895833,0,32,32,9,1,FBP-YG-81.png,0.45,1.2,10,0.75,,,,,,,,,,,,,,,,,,,,,,,,,,,,,,,,,,,,,,,,,,,,,
,,,,,V3_109,18,female,2025-02-06_16h00.47.863,jersey_experiment_5_v3,2023.2.2,Win32,85.47008547,,,,,,,,,,,,,,,,176.1689,177.7215,177.7215,179.5217,return,0.7934,,73.95833333,0,33,33,14,1,FBP-YG-91.png,0.45,1.2,15,0.75,,,,,,,,,,,,,,,,,,,,,,,,,,,,,,,,,,,,,,,,,,,,,
,,,,,V3_109,18,female,2025-02-06_16h00.47.863,jersey_experiment_5_v3,2023.2.2,Win32,85.47008547,,,,,,,,,,,,,,,,179.5221,181.0746,181.0747,182.8394,return,0.6606,,78.38541667,0,34,34,18,1,FBP-PT-17.png,0.43,1.2,19,0.75,,,,,,,,,,,,,,,,,,,,,,,,,,,,,,,,,,,,,,,,,,,,,
,,,,,V3_109,18,female,2025-02-06_16h00.47.863,jersey_experiment_5_v3,2023.2.2,Win32,85.47008547,,,,,,,,,,,,,,,,182.8396,184.1339,184.134,185.3689,return,0.7065,,79.42708333,0,35,35,38,1,FBP-OG-18.png,0.43,1.2,39,0.5,,,,,,,,,,,,,,,,,,,,,,,,,,,,,,,,,,,,,,,,,,,,,
,,,,,V3_109,18,female,2025-02-06_16h00.47.863,jersey_experiment_5_v3,2023.2.2,Win32,85.47008547,,,,,,,,,,,,,,,,185.3692,186.6632,186.6632,189.8988,return,1.9857,,51.43229167,0,36,36,42,1,FBP-OG-19.png,0.4,1.2,43,0.5,,,,,,,,,,,,,,,,,,,,,,,,,,,,,,,,,,,,,,,,,,,,,
,,,,,V3_109,18,female,2025-02-06_16h00.47.863,jersey_experiment_5_v3,2023.2.2,Win32,85.47008547,,,,,,,,,,,,,,,,189.8992,191.4514,191.4515,193.075,return,0.7462,,28.125,0,37,37,20,1,FBP-PT-18.png,0.35,1.2,21,0.75,,,,,,,,,,,,,,,,,,,,,,,,,,,,,,,,,,,,,,,,,,,,,
,,,,,V3_109,18,female,2025-02-06_16h00.47.863,jersey_experiment_5_v3,2023.2.2,Win32,85.47008547,,,,,,,,,,,,,,,,193.0755,194.628,194.6282,196.8869,return,0.6612,,70.96354167,0,38,38,53,1,FBP-RB-18.png,0.43,1.2,54,0.75,,,,,,,,,,,,,,,,,,,,,,,,,,,,,,,,,,,,,,,,,,,,,
,,,,,V3_109,18,female,2025-02-06_16h00.47.863,jersey_experiment_5_v3,2023.2.2,Win32,85.47008547,,,,,,,,,,,,,,,,196.8873,198.4399,198.44,200.4753,return,0.7915,,25.52083333,0,39,39,55,1,FBP-RB-19.png,0.35,1.2,56,0.75,,,,,,,,,,,,,,,,,,,,,,,,,,,,,,,,,,,,,,,,,,,,,
,,,,,V3_109,18,female,2025-02-06_16h00.47.863,jersey_experiment_5_v3,2023.2.2,Win32,85.47008547,,,,,,,,,,,,,,,,200.4755,202.0284,202.0284,206.3461,return,1.0928,,57.94270833,0,40,40,57,1,FBP-RB-19.png,0.4,1.2,58,0.75,,,,,,,,,,,,,,,,,,,,,,,,,,,,,,,,,,,,,,,,,,,,,
,,,,,V3_109,18,female,2025-02-06_16h00.47.863,jersey_experiment_5_v3,2023.2.2,Win32,85.47008547,,,,,,,,,,,,,,,,206.3464,207.8992,207.8992,209.911,return,0.7997,,24.34895833,0,41,41,10,1,FBP-YG-91.png,0.35,1.2,11,0.75,,,,,,,,,,,,,,,,,,,,,,,,,,,,,,,,,,,,,,,,,,,,,
,,,,,V3_109,18,female,2025-02-06_16h00.47.863,jersey_experiment_5_v3,2023.2.2,Win32,85.47008547,,,,,,,,,,,,,,,,209.9112,211.464,211.4641,213.4288,return,0.7913,,92.578125,0,42,42,49,1,FBP-RB-17.png,0.45,1.2,50,0.75,,,,,,,,,,,,,,,,,,,,,,,,,,,,,,,,,,,,,,,,,,,,,
,,,,,V3_109,18,female,2025-02-06_16h00.47.863,jersey_experiment_5_v3,2023.2.2,Win32,85.47008547,,,,,,,,,,,,,,,,213.4292,214.9818,214.9818,216.4171,return,0.6905,,93.88020833,0,43,43,24,1,FBP-PT-18.png,0.45,1.2,25,0.75,,,,,,,,,,,,,,,,,,,,,,,,,,,,,,,,,,,,,,,,,,,,,
,,,,,V3_109,18,female,2025-02-06_16h00.47.863,jersey_experiment_5_v3,2023.2.2,Win32,85.47008547,,,,,,,,,,,,,,,,216.4173,217.97,217.9701,220.2761,return,0.8523,,30.20833333,0,44,44,0,1,FBP-YG-71.png,0.35,1.2,1,0.75,,,,,,,,,,,,,,,,,,,,,,,,,,,,,,,,,,,,,,,,,,,,,
,,,,,V3_109,18,female,2025-02-06_16h00.47.863,jersey_experiment_5_v3,2023.2.2,Win32,85.47008547,,,,,,,,,,,,,,,,220.2763,221.8293,221.8293,223.9468,return,0.7636,,45.44270833,0,45,45,15,1,FBP-PT-17.png,0.35,1.2,16,0.75,,,,,,,,,,,,,,,,,,,,,,,,,,,,,,,,,,,,,,,,,,,,,
,,,,,V3_109,18,female,2025-02-06_16h00.47.863,jersey_experiment_5_v3,2023.2.2,Win32,85.47008547,,,,,,,,,,,,,,,,223.947,225.2409,225.241,227.1587,return,0.7906,,48.95833333,0,46,46,36,1,FBP-OG-18.png,0.37,1.2,37,0.5,,,,,,,,,,,,,,,,,,,,,,,,,,,,,,,,,,,,,,,,,,,,,
,,,,,V3_109,18,female,2025-02-06_16h00.47.863,jersey_experiment_5_v3,2023.2.2,Win32,85.47008547,,,,,,,,,,,,,,,,227.1589,228.7117,228.7117,230.0882,return,0.7301,,49.08854167,0,47,47,11,1,FBP-YG-91.png,0.37,1.2,12,0.75,,,,,,,,,,,,,,,,,,,,,,,,,,,,,,,,,,,,,,,,,,,,,
,,,,,V3_109,18,female,2025-02-06_16h00.47.863,jersey_experiment_5_v3,2023.2.2,Win32,85.47008547,,,,,,,,,,,,,,,,230.0886,231.6411,231.6412,233.2883,return,0.8244,,51.953125,0,48,48,26,1,FBP-PT-19.png,0.37,1.2,27,0.75,,,,,,,,,,,,,,,,,,,,,,,,,,,,,,,,,,,,,,,,,,,,,
,,,,,V3_109,18,female,2025-02-06_16h00.47.863,jersey_experiment_5_v3,2023.2.2,Win32,85.47008547,,,,,,,,,,,,,,,,233.2886,234.8413,234.8414,236.1945,return,0.6775,,55.20833333,0,49,49,56,1,FBP-RB-19.png,0.37,1.2,57,0.75,,,,,,,,,,,,,,,,,,,,,,,,,,,,,,,,,,,,,,,,,,,,,
,,,,,V3_109,18,female,2025-02-06_16h00.47.863,jersey_experiment_5_v3,2023.2.2,Win32,85.47008547,,,,,,,,,,,,,,,,236.1948,237.7473,237.7473,239.3827,return,0.6849,,51.69270833,0,50,50,50,1,FBP-RB-18.png,0.35,1.2,51,0.75,,,,,,,,,,,,,,,,,,,,,,,,,,,,,,,,,,,,,,,,,,,,,
,,,,,V3_109,18,female,2025-02-06_16h00.47.863,jersey_experiment_5_v3,2023.2.2,Win32,85.47008547,,,,,,,,,,,,,,,,239.3831,240.9357,240.9357,242.7944,return,0.7165,,72.91666667,0,51,51,28,1,FBP-PT-19.png,0.43,1.2,29,0.75,,,,,,,,,,,,,,,,,,,,,,,,,,,,,,,,,,,,,,,,,,,,,
,,,,,V3_109,18,female,2025-02-06_16h00.47.863,jersey_experiment_5_v3,2023.2.2,Win32,85.47008547,,,,,,,,,,,,,,,,242.7948,244.3476,244.3477,246.1829,return,0.7554,,77.86458333,0,52,52,13,1,FBP-YG-91.png,0.43,1.2,14,0.75,,,,,,,,,,,,,,,,,,,,,,,,,,,,,,,,,,,,,,,,,,,,,
,,,,,V3_109,18,female,2025-02-06_16h00.47.863,jersey_experiment_5_v3,2023.2.2,Win32,85.47008547,,,,,,,,,,,,,,,,246.1833,247.4772,247.4772,250.1478,return,0.7808,,72.39583333,0,53,53,32,1,FBP-OG-17.png,0.4,1.2,33,0.5,,,,,,,,,,,,,,,,,,,,,,,,,,,,,,,,,,,,,,,,,,,,,
,,,,,V3_109,18,female,2025-02-06_16h00.47.863,jersey_experiment_5_v3,2023.2.2,Win32,85.47008547,,,,,,,,,,,,,,,,250.1481,251.4419,251.442,255.4657,return,2.226,,39.32291667,0,54,54,40,1,FBP-OG-19.png,0.35,1.2,41,0.5,,,,,,,,,,,,,,,,,,,,,,,,,,,,,,,,,,,,,,,,,,,,,
,,,,,V3_109,18,female,2025-02-06_16h00.47.863,jersey_experiment_5_v3,2023.2.2,Win32,85.47008547,,,,,,,,,,,,,,,,255.466,257.0187,257.0188,259.0421,return,0.8422,,85.41666667,0,55,55,4,1,FBP-YG-71.png,0.45,1.2,5,0.75,,,,,,,,,,,,,,,,,,,,,,,,,,,,,,,,,,,,,,,,,,,,,
,,,,,V3_109,18,female,2025-02-06_16h00.47.863,jersey_experiment_5_v3,2023.2.2,Win32,85.47008547,,,,,,,,,,,,,,,,259.0423,260.5954,260.5954,262.5011,return,0.7692,,75.13020833,0,56,56,27,1,FBP-PT-19.png,0.4,1.2,28,0.75,,,,,,,,,,,,,,,,,,,,,,,,,,,,,,,,,,,,,,,,,,,,,
,,,,,V3_109,18,female,2025-02-06_16h00.47.863,jersey_experiment_5_v3,2023.2.2,Win32,85.47008547,,,,,,,,,,,,,,,,262.5014,264.0542,264.0542,266.1718,return,0.789,,49.609375,0,57,57,21,1,FBP-PT-18.png,0.37,1.2,22,0.75,,,,,,,,,,,,,,,,,,,,,,,,,,,,,,,,,,,,,,,,,,,,,
,,,,,V3_109,18,female,2025-02-06_16h00.47.863,jersey_experiment_5_v3,2023.2.2,Win32,85.47008547,,,,,,,,,,,,,,,,266.172,267.7249,267.7249,269.6661,return,0.7367,,58.203125,0,58,58,16,1,FBP-PT-17.png,0.37,1.2,17,0.75,,,,,,,,,,,,,,,,,,,,,,,,,,,,,,,,,,,,,,,,,,,,,
,,,,,V3_109,18,female,2025-02-06_16h00.47.863,jersey_experiment_5_v3,2023.2.2,Win32,85.47008547,,,,,,,,,,,,,,,,269.6664,271.2191,271.2192,273.3839,return,0.66,,49.21875,0,59,59,25,1,FBP-PT-19.png,0.35,1.2,26,0.75,,,,,,,,,,,,,,,,,,,,,,,,,,,,,,,,,,,,,,,,,,,,,
,,,,,V3_109,18,female,2025-02-06_16h00.47.863,jersey_experiment_5_v3,2023.2.2,Win32,85.47008547,,,,,,,,,,,,,,,,273.3871,274.9369,274.9369,277.4429,return,0.7004,,45.83333333,,,,,,FBP-RB-71.png,0.35,1.2,46,0.75,0,0,0,45,1,,,,,,,,,,,,,,,,,,,,,,,,,,,,,,,,,,,,,,,,
,,,,,V3_109,18,female,2025-02-06_16h00.47.863,jersey_experiment_5_v3,2023.2.2,Win32,85.47008547,,,,,,,,,,,,,,,,277.4432,278.9961,278.9961,281.09,return,0.7484,,68.88020833,,,,,,FBP-YG-18.png,0.4,1.2,8,0.75,0,1,1,7,1,,,,,,,,,,,,,,,,,,,,,,,,,,,,,,,,,,,,,,,,
,,,,,V3_109,18,female,2025-02-06_16h00.47.863,jersey_experiment_5_v3,2023.2.2,Win32,85.47008547,,,,,,,,,,,,,,,,281.0904,282.6432,282.6433,284.102,return,0.7442,,80.859375,,,,,,FBP-YG-19.png,0.43,1.2,14,0.75,0,2,2,13,1,,,,,,,,,,,,,,,,,,,,,,,,,,,,,,,,,,,,,,,,
,,,,,V3_109,18,female,2025-02-06_16h00.47.863,jersey_experiment_5_v3,2023.2.2,Win32,85.47008547,,,,,,,,,,,,,,,,284.1022,285.396,285.3961,287.1256,return,0.7802,,74.73958333,,,,,,FBP-OG-81.png,0.4,1.2,38,0.5,0,3,3,37,1,,,,,,,,,,,,,,,,,,,,,,,,,,,,,,,,,,,,,,,,
,,,,,V3_109,18,female,2025-02-06_16h00.47.863,jersey_experiment_5_v3,2023.2.2,Win32,85.47008547,,,,,,,,,,,,,,,,287.1259,288.6786,288.6787,290.6083,return,0.715,,44.53125,,,,,,FBP-PT-71.png,0.35,1.2,16,0.75,0,4,4,15,1,,,,,,,,,,,,,,,,,,,,,,,,,,,,,,,,,,,,,,,,
,,,,,V3_109,18,female,2025-02-06_16h00.47.863,jersey_experiment_5_v3,2023.2.2,Win32,85.47008547,,,,,,,,,,,,,,,,290.6085,291.9022,291.9023,294.9494,return,0.8022,,74.609375,,,,,,FBP-OG-91.png,0.4,1.2,43,0.5,0,5,5,42,1,,,,,,,,,,,,,,,,,,,,,,,,,,,,,,,,,,,,,,,,
,,,,,V3_109,18,female,2025-02-06_16h00.47.863,jersey_experiment_5_v3,2023.2.2,Win32,85.47008547,,,,,,,,,,,,,,,,294.9498,296.5023,296.5024,299.4672,return,0.7049,,62.23958333,,,,,,FBP-YG-18.png,0.37,1.2,7,0.75,0,6,6,6,1,,,,,,,,,,,,,,,,,,,,,,,,,,,,,,,,,,,,,,,,
,,,,,V3_109,18,female,2025-02-06_16h00.47.863,jersey_experiment_5_v3,2023.2.2,Win32,85.47008547,,,,,,,,,,,,,,,,299.4676,301.0203,301.0203,303.7379,return,0.7296,,55.72916667,,,,,,FBP-PT-71.png,0.37,1.2,17,0.75,0,7,7,16,1,,,,,,,,,,,,,,,,,,,,,,,,,,,,,,,,,,,,,,,,
,,,,,V3_109,18,female,2025-02-06_16h00.47.863,jersey_experiment_5_v3,2023.2.2,Win32,85.47008547,,,,,,,,,,,,,,,,303.7383,305.291,305.2911,307.0911,return,0.7002,,44.53125,,,,,,FBP-RB-81.png,0.35,1.2,51,0.75,0,8,8,50,1,,,,,,,,,,,,,,,,,,,,,,,,,,,,,,,,,,,,,,,,
,,,,,V3_109,18,female,2025-02-06_16h00.47.863,jersey_experiment_5_v3,2023.2.2,Win32,85.47008547,,,,,,,,,,,,,,,,307.0914,308.3852,308.3853,310.3383,return,0.665,,88.671875,,,,,,FBP-OG-71.png,0.45,1.2,35,0.5,0,9,9,34,1,,,,,,,,,,,,,,,,,,,,,,,,,,,,,,,,,,,,,,,,
,,,,,V3_109,18,female,2025-02-06_16h00.47.863,jersey_experiment_5_v3,2023.2.2,Win32,85.47008547,,,,,,,,,,,,,,,,310.3385,311.8912,311.8913,313.2912,return,0.6215,,92.70833333,,,,,,FBP-RB-71.png,0.45,1.2,50,0.75,0,10,10,49,1,,,,,,,,,,,,,,,,,,,,,,,,,,,,,,,,,,,,,,,,
,,,,,V3_109,18,female,2025-02-06_16h00.47.863,jersey_experiment_5_v3,2023.2.2,Win32,85.47008547,,,,,,,,,,,,,,,,313.2915,314.8442,314.8442,318.7268,return,2.6481,,74.73958333,,,,,,FBP-RB-91.png,0.4,1.2,58,0.75,0,11,11,57,1,,,,,,,,,,,,,,,,,,,,,,,,,,,,,,,,,,,,,,,,
,,,,,V3_109,18,female,2025-02-06_16h00.47.863,jersey_experiment_5_v3,2023.2.2,Win32,85.47008547,,,,,,,,,,,,,,,,318.7272,320.2799,320.2799,321.9624,return,0.6722,,88.80208333,,,,,,FBP-PT-71.png,0.45,1.2,20,0.75,0,12,12,19,1,,,,,,,,,,,,,,,,,,,,,,,,,,,,,,,,,,,,,,,,
,,,,,V3_109,18,female,2025-02-06_16h00.47.863,jersey_experiment_5_v3,2023.2.2,Win32,85.47008547,,,,,,,,,,,,,,,,321.9626,323.5154,323.5154,325.9623,return,0.752,,42.44791667,,,,,,FBP-YG-17.png,0.37,1.2,2,0.75,0,13,13,1,1,,,,,,,,,,,,,,,,,,,,,,,,,,,,,,,,,,,,,,,,
,,,,,V3_109,18,female,2025-02-06_16h00.47.863,jersey_experiment_5_v3,2023.2.2,Win32,85.47008547,,,,,,,,,,,,,,,,325.9626,327.5155,327.5156,329.1741,return,0.6486,,38.41145833,,,,,,FBP-RB-91.png,0.35,1.2,56,0.75,0,14,14,55,1,,,,,,,,,,,,,,,,,,,,,,,,,,,,,,,,,,,,,,,,
,,,,,V3_109,18,female,2025-02-06_16h00.47.863,jersey_experiment_5_v3,2023.2.2,Win32,85.47008547,,,,,,,,,,,,,,,,329.1743,330.7275,330.7276,332.8214,return,0.7211,,72.65625,,,,,,FBP-YG-19.png,0.45,1.2,15,0.75,0,15,15,14,1,,,,,,,,,,,,,,,,,,,,,,,,,,,,,,,,,,,,,,,,
,,,,,V3_109,18,female,2025-02-06_16h00.47.863,jersey_experiment_5_v3,2023.2.2,Win32,85.47008547,,,,,,,,,,,,,,,,332.8217,334.3744,334.3744,336.4568,return,0.8154,,50.78125,,,,,,FBP-PT-91.png,0.37,1.2,27,0.75,0,16,16,26,1,,,,,,,,,,,,,,,,,,,,,,,,,,,,,,,,,,,,,,,,
,,,,,V3_109,18,female,2025-02-06_16h00.47.863,jersey_experiment_5_v3,2023.2.2,Win32,85.47008547,,,,,,,,,,,,,,,,336.457,337.7509,337.7509,339.704,return,0.6958,,57.03125,,,,,,FBP-OG-91.png,0.37,1.2,42,0.5,0,17,17,41,1,,,,,,,,,,,,,,,,,,,,,,,,,,,,,,,,,,,,,,,,
,,,,,V3_109,18,female,2025-02-06_16h00.47.863,jersey_experiment_5_v3,2023.2.2,Win32,85.47008547,,,,,,,,,,,,,,,,339.7043,340.9982,340.9982,342.3747,return,0.6614,,62.5,,,,,,FBP-OG-81.png,0.37,1.2,37,0.5,0,18,18,36,1,,,,,,,,,,,,,,,,,,,,,,,,,,,,,,,,,,,,,,,,
,,,,,V3_109,18,female,2025-02-06_16h00.47.863,jersey_experiment_5_v3,2023.2.2,Win32,85.47008547,,,,,,,,,,,,,,,,342.3749,343.9277,343.9278,345.363,return,0.7911,,61.97916667,,,,,,FBP-YG-19.png,0.4,1.2,13,0.75,0,19,19,12,1,,,,,,,,,,,,,,,,,,,,,,,,,,,,,,,,,,,,,,,,
,,,,,V3_109,18,female,2025-02-06_16h00.47.863,jersey_experiment_5_v3,2023.2.2,Win32,85.47008547,,,,,,,,,,,,,,,,345.3632,346.916,346.9161,349.3161,return,0.805,,76.171875,,,,,,FBP-PT-81.png,0.45,1.2,25,0.75,0,20,20,24,1,,,,,,,,,,,,,,,,,,,,,,,,,,,,,,,,,,,,,,,,
,,,,,V3_109,18,female,2025-02-06_16h00.47.863,jersey_experiment_5_v3,2023.2.2,Win32,85.47008547,,,,,,,,,,,,,,,,349.3164,350.8691,350.8693,352.9868,return,0.81,,73.046875,,,,,,FBP-PT-81.png,0.4,1.2,23,0.75,0,21,21,22,1,,,,,,,,,,,,,,,,,,,,,,,,,,,,,,,,,,,,,,,,
,,,,,V3_109,18,female,2025-02-06_16h00.47.863,jersey_experiment_5_v3,2023.2.2,Win32,85.47008547,,,,,,,,,,,,,,,,352.9871,354.5398,354.5399,356.5164,return,0.6724,,89.0625,,,,,,FBP-RB-81.png,0.45,1.2,55,0.75,0,22,22,54,1,,,,,,,,,,,,,,,,,,,,,,,,,,,,,,,,,,,,,,,,
,,,,,V3_109,18,female,2025-02-06_16h00.47.863,jersey_experiment_5_v3,2023.2.2,Win32,85.47008547,,,,,,,,,,,,,,,,356.5167,358.0695,358.0696,360.6341,return,0.8336,,52.47395833,,,,,,FBP-RB-91.png,0.37,1.2,57,0.75,0,23,23,56,1,,,,,,,,,,,,,,,,,,,,,,,,,,,,,,,,,,,,,,,,
,,,,,V3_109,18,female,2025-02-06_16h00.47.863,jersey_experiment_5_v3,2023.2.2,Win32,85.47008547,,,,,,,,,,,,,,,,360.6344,362.1872,362.1872,364.1049,return,0.8001,,67.578125,,,,,,FBP-YG-18.png,0.43,1.2,9,0.75,0,24,24,8,1,,,,,,,,,,,,,,,,,,,,,,,,,,,,,,,,,,,,,,,,
,,,,,V3_109,18,female,2025-02-06_16h00.47.863,jersey_experiment_5_v3,2023.2.2,Win32,85.47008547,,,,,,,,,,,,,,,,364.1053,365.3991,365.3991,367.058,return,0.7,,76.69270833,,,,,,FBP-OG-81.png,0.45,1.2,40,0.5,0,25,25,39,1,,,,,,,,,,,,,,,,,,,,,,,,,,,,,,,,,,,,,,,,
,,,,,V3_109,18,female,2025-02-06_16h00.47.863,jersey_experiment_5_v3,2023.2.2,Win32,85.47008547,,,,,,,,,,,,,,,,367.0582,368.6112,368.6112,370.6816,return,0.7062,,58.33333333,,,,,,FBP-PT-71.png,0.4,1.2,18,0.75,0,26,26,17,1,,,,,,,,,,,,,,,,,,,,,,,,,,,,,,,,,,,,,,,,
,,,,,V3_109,18,female,2025-02-06_16h00.47.863,jersey_experiment_5_v3,2023.2.2,Win32,85.47008547,,,,,,,,,,,,,,,,370.6819,372.2347,372.2347,373.6818,return,0.6415,,73.56770833,,,,,,FBP-PT-91.png,0.43,1.2,29,0.75,0,27,27,28,1,,,,,,,,,,,,,,,,,,,,,,,,,,,,,,,,,,,,,,,,
,,,,,V3_109,18,female,2025-02-06_16h00.47.863,jersey_experiment_5_v3,2023.2.2,Win32,85.47008547,,,,,,,,,,,,,,,,373.6822,374.9759,374.976,377.1289,return,0.7061,,49.73958333,,,,,,FBP-OG-71.png,0.37,1.2,32,0.5,0,28,28,31,1,,,,,,,,,,,,,,,,,,,,,,,,,,,,,,,,,,,,,,,,
,,,,,V3_109,18,female,2025-02-06_16h00.47.863,jersey_experiment_5_v3,2023.2.2,Win32,85.47008547,,,,,,,,,,,,,,,,377.1291,378.6821,378.6821,380.388,return,0.6993,,44.40104167,,,,,,FBP-PT-81.png,0.35,1.2,21,0.75,0,29,29,20,1,,,,,,,,,,,,,,,,,,,,,,,,,,,,,,,,,,,,,,,,
,,,,,V3_109,18,female,2025-02-06_16h00.47.863,jersey_experiment_5_v3,2023.2.2,Win32,85.47008547,,,,,,,,,,,,,,,,380.3883,381.6819,381.682,383.1056,return,0.643,,43.88020833,,,,,,FBP-OG-81.png,0.35,1.2,36,0.5,0,30,30,35,1,,,,,,,,,,,,,,,,,,,,,,,,,,,,,,,,,,,,,,,,
,,,,,V3_109,18,female,2025-02-06_16h00.47.863,jersey_experiment_5_v3,2023.2.2,Win32,85.47008547,,,,,,,,,,,,,,,,383.1058,384.3996,384.3996,386.0703,return,0.6616,,66.14583333,,,,,,FBP-OG-81.png,0.43,1.2,39,0.5,0,31,31,38,1,,,,,,,,,,,,,,,,,,,,,,,,,,,,,,,,,,,,,,,,
,,,,,V3_109,18,female,2025-02-06_16h00.47.863,jersey_experiment_5_v3,2023.2.2,Win32,85.47008547,,,,,,,,,,,,,,,,386.0705,387.6233,387.6234,389.5411,return,0.638,,52.60416667,,,,,,FBP-RB-71.png,0.37,1.2,47,0.75,0,32,32,46,1,,,,,,,,,,,,,,,,,,,,,,,,,,,,,,,,,,,,,,,,
,,,,,V3_109,18,female,2025-02-06_16h00.47.863,jersey_experiment_5_v3,2023.2.2,Win32,85.47008547,,,,,,,,,,,,,,,,389.5414,390.8352,390.8353,392.6353,return,0.6695,,68.88020833,,,,,,FBP-OG-71.png,0.43,1.2,34,0.5,0,33,33,33,1,,,,,,,,,,,,,,,,,,,,,,,,,,,,,,,,,,,,,,,,
,,,,,V3_109,18,female,2025-02-06_16h00.47.863,jersey_experiment_5_v3,2023.2.2,Win32,85.47008547,,,,,,,,,,,,,,,,392.6355,394.1884,394.1884,396.106,return,0.6981,,51.30208333,,,,,,FBP-RB-81.png,0.37,1.2,52,0.75,0,34,34,51,1,,,,,,,,,,,,,,,,,,,,,,,,,,,,,,,,,,,,,,,,
,,,,,V3_109,18,female,2025-02-06_16h00.47.863,jersey_experiment_5_v3,2023.2.2,Win32,85.47008547,,,,,,,,,,,,,,,,396.1062,397.6474,397.6475,399.8826,return,0.6911,,76.171875,,,,,,FBP-RB-71.png,0.43,1.2,49,0.75,0,35,35,48,1,,,,,,,,,,,,,,,,,,,,,,,,,,,,,,,,,,,,,,,,
,,,,,V3_109,18,female,2025-02-06_16h00.47.863,jersey_experiment_5_v3,2023.2.2,Win32,85.47008547,,,,,,,,,,,,,,,,399.8828,401.4358,401.4358,403.4477,return,0.638,,50.91145833,,,,,,FBP-PT-81.png,0.37,1.2,22,0.75,0,36,36,21,1,,,,,,,,,,,,,,,,,,,,,,,,,,,,,,,,,,,,,,,,
,,,,,V3_109,18,female,2025-02-06_16h00.47.863,jersey_experiment_5_v3,2023.2.2,Win32,85.47008547,,,,,,,,,,,,,,,,403.448,405.0008,405.0008,406.2947,return,0.6037,,60.02604167,,,,,,FBP-RB-81.png,0.4,1.2,53,0.75,0,37,37,52,1,,,,,,,,,,,,,,,,,,,,,,,,,,,,,,,,,,,,,,,,
,,,,,V3_109,18,female,2025-02-06_16h00.47.863,jersey_experiment_5_v3,2023.2.2,Win32,85.47008547,,,,,,,,,,,,,,,,406.295,407.8477,407.8478,409.0948,return,0.673,,73.828125,,,,,,FBP-PT-81.png,0.43,1.2,24,0.75,0,38,38,23,1,,,,,,,,,,,,,,,,,,,,,,,,,,,,,,,,,,,,,,,,
,,,,,V3_109,18,female,2025-02-06_16h00.47.863,jersey_experiment_5_v3,2023.2.2,Win32,85.47008547,,,,,,,,,,,,,,,,409.0952,410.6478,410.6478,412.0714,return,0.7078,,77.734375,,,,,,FBP-RB-71.png,0.4,1.2,48,0.75,0,39,39,47,1,,,,,,,,,,,,,,,,,,,,,,,,,,,,,,,,,,,,,,,,
,,,,,V3_109,18,female,2025-02-06_16h00.47.863,jersey_experiment_5_v3,2023.2.2,Win32,85.47008547,,,,,,,,,,,,,,,,412.0716,413.6243,413.6244,415.2244,return,0.6476,,91.14583333,,,,,,FBP-RB-91.png,0.45,1.2,60,0.75,0,40,40,59,1,,,,,,,,,,,,,,,,,,,,,,,,,,,,,,,,,,,,,,,,
,,,,,V3_109,18,female,2025-02-06_16h00.47.863,jersey_experiment_5_v3,2023.2.2,Win32,85.47008547,,,,,,,,,,,,,,,,415.2247,416.5186,416.5186,419.0598,return,0.7448,,40.36458333,,,,,,FBP-OG-91.png,0.35,1.2,41,0.5,0,41,41,40,1,,,,,,,,,,,,,,,,,,,,,,,,,,,,,,,,,,,,,,,,
,,,,,V3_109,18,female,2025-02-06_16h00.47.863,jersey_experiment_5_v3,2023.2.2,Win32,85.47008547,,,,,,,,,,,,,,,,419.06,420.613,420.6131,422.1305,return,0.6885,,40.625,,,,,,FBP-YG-19.png,0.37,1.2,12,0.75,0,42,42,11,1,,,,,,,,,,,,,,,,,,,,,,,,,,,,,,,,,,,,,,,,
,,,,,V3_109,18,female,2025-02-06_16h00.47.863,jersey_experiment_5_v3,2023.2.2,Win32,85.47008547,,,,,,,,,,,,,,,,422.1308,423.6835,423.6836,424.9779,return,0.6782,,40.49479167,,,,,,FBP-YG-19.png,0.35,1.2,11,0.75,0,43,43,10,1,,,,,,,,,,,,,,,,,,,,,,,,,,,,,,,,,,,,,,,,
,,,,,V3_109,18,female,2025-02-06_16h00.47.863,jersey_experiment_5_v3,2023.2.2,Win32,85.47008547,,,,,,,,,,,,,,,,424.9781,426.5309,426.5309,428.1546,return,0.6591,,59.89583333,,,,,,FBP-YG-17.png,0.4,1.2,3,0.75,0,44,44,2,1,,,,,,,,,,,,,,,,,,,,,,,,,,,,,,,,,,,,,,,,
,,,,,V3_109,18,female,2025-02-06_16h00.47.863,jersey_experiment_5_v3,2023.2.2,Win32,85.47008547,,,,,,,,,,,,,,,,428.1548,429.7074,429.7075,431.1899,return,0.6738,,75.65104167,,,,,,FBP-YG-17.png,0.43,1.2,4,0.75,0,45,45,3,1,,,,,,,,,,,,,,,,,,,,,,,,,,,,,,,,,,,,,,,,
,,,,,V3_109,18,female,2025-02-06_16h00.47.863,jersey_experiment_5_v3,2023.2.2,Win32,85.47008547,,,,,,,,,,,,,,,,431.1901,432.4839,432.4839,433.8016,return,0.6581,,78.125,,,,,,FBP-OG-91.png,0.43,1.2,44,0.5,0,46,46,43,1,,,,,,,,,,,,,,,,,,,,,,,,,,,,,,,,,,,,,,,,
,,,,,V3_109,18,female,2025-02-06_16h00.47.863,jersey_experiment_5_v3,2023.2.2,Win32,85.47008547,,,,,,,,,,,,,,,,433.8019,435.3547,435.3547,436.9664,return,0.685,,45.96354167,,,,,,FBP-YG-18.png,0.35,1.2,6,0.75,0,47,47,5,1,,,,,,,,,,,,,,,,,,,,,,,,,,,,,,,,,,,,,,,,
,,,,,V3_109,18,female,2025-02-06_16h00.47.863,jersey_experiment_5_v3,2023.2.2,Win32,85.47008547,,,,,,,,,,,,,,,,436.9666,438.5196,438.5196,439.9547,return,0.6054,,74.47916667,,,,,,FBP-YG-17.png,0.45,1.2,5,0.75,0,48,48,4,1,,,,,,,,,,,,,,,,,,,,,,,,,,,,,,,,,,,,,,,,
,,,,,V3_109,18,female,2025-02-06_16h00.47.863,jersey_experiment_5_v3,2023.2.2,Win32,85.47008547,,,,,,,,,,,,,,,,439.955,441.2489,441.249,443.3667,return,0.6482,,34.50520833,,,,,,FBP-OG-71.png,0.35,1.2,31,0.5,0,49,49,30,1,,,,,,,,,,,,,,,,,,,,,,,,,,,,,,,,,,,,,,,,
,,,,,V3_109,18,female,2025-02-06_16h00.47.863,jersey_experiment_5_v3,2023.2.2,Win32,85.47008547,,,,,,,,,,,,,,,,443.3672,444.9201,444.9202,446.6257,return,0.6412,,65.234375,,,,,,FBP-YG-18.png,0.45,1.2,10,0.75,0,50,50,9,1,,,,,,,,,,,,,,,,,,,,,,,,,,,,,,,,,,,,,,,,
,,,,,V3_109,18,female,2025-02-06_16h00.47.863,jersey_experiment_5_v3,2023.2.2,Win32,85.47008547,,,,,,,,,,,,,,,,446.6259,448.1788,448.1789,449.6256,return,0.7062,,33.46354167,,,,,,FBP-YG-17.png,0.35,1.2,1,0.75,0,51,51,0,1,,,,,,,,,,,,,,,,,,,,,,,,,,,,,,,,,,,,,,,,
,,,,,V3_109,18,female,2025-02-06_16h00.47.863,jersey_experiment_5_v3,2023.2.2,Win32,85.47008547,,,,,,,,,,,,,,,,449.6259,451.1789,451.179,452.7788,return,0.706,,30.59895833,,,,,,FBP-PT-91.png,0.35,1.2,26,0.75,0,52,52,25,1,,,,,,,,,,,,,,,,,,,,,,,,,,,,,,,,,,,,,,,,
,,,,,V3_109,18,female,2025-02-06_16h00.47.863,jersey_experiment_5_v3,2023.2.2,Win32,85.47008547,,,,,,,,,,,,,,,,452.779,454.3319,454.3319,455.9789,return,0.6353,,59.89583333,,,,,,FBP-PT-91.png,0.4,1.2,28,0.75,0,53,53,27,1,,,,,,,,,,,,,,,,,,,,,,,,,,,,,,,,,,,,,,,,
,,,,,V3_109,18,female,2025-02-06_16h00.47.863,jersey_experiment_5_v3,2023.2.2,Win32,85.47008547,,,,,,,,,,,,,,,,455.9793,457.532,457.5321,459.273,return,0.7062,,86.58854167,,,,,,FBP-RB-91.png,0.43,1.2,59,0.75,0,54,54,58,1,,,,,,,,,,,,,,,,,,,,,,,,,,,,,,,,,,,,,,,,
,,,,,V3_109,18,female,2025-02-06_16h00.47.863,jersey_experiment_5_v3,2023.2.2,Win32,85.47008547,,,,,,,,,,,,,,,,459.2733,460.8261,460.8262,462.2495,return,0.6979,,92.578125,,,,,,FBP-PT-71.png,0.43,1.2,19,0.75,0,55,55,18,1,,,,,,,,,,,,,,,,,,,,,,,,,,,,,,,,,,,,,,,,
,,,,,V3_109,18,female,2025-02-06_16h00.47.863,jersey_experiment_5_v3,2023.2.2,Win32,85.47008547,,,,,,,,,,,,,,,,462.2498,463.8027,463.8027,465.0969,return,0.6724,,96.875,,,,,,FBP-PT-91.png,0.45,1.2,30,0.75,0,56,56,29,1,,,,,,,,,,,,,,,,,,,,,,,,,,,,,,,,,,,,,,,,
,,,,,V3_109,18,female,2025-02-06_16h00.47.863,jersey_experiment_5_v3,2023.2.2,Win32,85.47008547,,,,,,,,,,,,,,,,465.0972,466.391,466.391,468.4383,return,0.6742,,78.38541667,,,,,,FBP-OG-71.png,0.4,1.2,33,0.5,0,57,57,32,1,,,,,,,,,,,,,,,,,,,,,,,,,,,,,,,,,,,,,,,,
,,,,,V3_109,18,female,2025-02-06_16h00.47.863,jersey_experiment_5_v3,2023.2.2,Win32,85.47008547,,,,,,,,,,,,,,,,468.4385,469.7323,469.7323,471.2498,return,0.7922,,72.65625,,,,,,FBP-OG-91.png,0.45,1.2,45,0.5,0,58,58,44,1,,,,,,,,,,,,,,,,,,,,,,,,,,,,,,,,,,,,,,,,
,,,,,V3_109,18,female,2025-02-06_16h00.47.863,jersey_experiment_5_v3,2023.2.2,Win32,85.47008547,,,,,,,,,,,,,,,,471.2501,472.803,472.803,474.6972,return,0.8838,,66.14583333,,,,,,FBP-RB-81.png,0.43,1.2,54,0.75,0,59,59,53,1,,,,,,,,,,,,,,,,,,,,,,,,,,,,,,,,,,,,,,,,
,,,,,V3_109,18,female,2025-02-06_16h00.47.863,jersey_experiment_5_v3,2023.2.2,Win32,85.47008547,,,,,,,,,,,,,,,,,,,,,,,,,,,,,,,,,,,,,,,474.6974,594.6901,,,,,,,,,,,,,,,,,,,,,,,,,,,,,,,,,,,,,,
,,,,,V3_109,18,female,2025-02-06_16h00.47.863,jersey_experiment_5_v3,2023.2.2,Win32,85.47008547,,,,,,,,,,,,,,,,,,,,,,,,,,,,,,,,,,,,,,,,,594.6904,637.7387,return,43.0364,,,,,,,,,,,,,,,,,,,,,,,,,,,,,,,,,,
,,,,,V3_109,18,female,2025-02-06_16h00.47.863,jersey_experiment_5_v3,2023.2.2,Win32,85.47008547,,,,,,,,,,,,,,,,637.7405,639.0327,639.0327,641.4095,return,0.9136,,53.64583333,,,,,,FBP-RB-17.png,0.4,1.2,48,0.5,,,,,,,,,,,,,0,0,0,47,1,,,,,,,,,,,,,,,,,,,,,,,,,,,,
,,,,,V3_109,18,female,2025-02-06_16h00.47.863,jersey_experiment_5_v3,2023.2.2,Win32,85.47008547,,,,,,,,,,,,,,,,641.4097,642.7033,642.7033,644.727,return,0.9099,,38.93229167,,,,,,FBP-YG-71.png,0.35,1.2,1,0.5,,,,,,,,,,,,,0,1,1,0,1,,,,,,,,,,,,,,,,,,,,,,,,,,,,
,,,,,V3_109,18,female,2025-02-06_16h00.47.863,jersey_experiment_5_v3,2023.2.2,Win32,85.47008547,,,,,,,,,,,,,,,,644.7272,646.28,646.2801,648.7742,return,0.8852,,71.22395833,,,,,,FBP-OG-19.png,0.43,1.2,44,0.75,,,,,,,,,,,,,0,2,2,43,1,,,,,,,,,,,,,,,,,,,,,,,,,,,,
,,,,,V3_109,18,female,2025-02-06_16h00.47.863,jersey_experiment_5_v3,2023.2.2,Win32,85.47008547,,,,,,,,,,,,,,,,648.7744,650.0684,650.0685,651.9861,return,0.8305,,91.53645833,,,,,,FBP-PT-18.png,0.45,1.2,25,0.5,,,,,,,,,,,,,0,3,3,24,1,,,,,,,,,,,,,,,,,,,,,,,,,,,,
,,,,,V3_109,18,female,2025-02-06_16h00.47.863,jersey_experiment_5_v3,2023.2.2,Win32,85.47008547,,,,,,,,,,,,,,,,651.9864,653.2802,653.2802,654.6449,return,0.7445,,92.31770833,,,,,,FBP-YG-91.png,0.45,1.2,15,0.5,,,,,,,,,,,,,0,4,4,14,1,,,,,,,,,,,,,,,,,,,,,,,,,,,,
,,,,,V3_109,18,female,2025-02-06_16h00.47.863,jersey_experiment_5_v3,2023.2.2,Win32,85.47008547,,,,,,,,,,,,,,,,654.6452,655.9394,655.9394,657.6099,return,0.7393,,86.58854167,,,,,,FBP-RB-19.png,0.45,1.2,60,0.5,,,,,,,,,,,,,0,5,5,59,1,,,,,,,,,,,,,,,,,,,,,,,,,,,,
,,,,,V3_109,18,female,2025-02-06_16h00.47.863,jersey_experiment_5_v3,2023.2.2,Win32,85.47008547,,,,,,,,,,,,,,,,657.6102,659.1628,659.1628,662.1629,return,2.2644,,77.47395833,,,,,,FBP-OG-17.png,0.45,1.2,35,0.75,,,,,,,,,,,,,0,6,6,34,1,,,,,,,,,,,,,,,,,,,,,,,,,,,,
,,,,,V3_109,18,female,2025-02-06_16h00.47.863,jersey_experiment_5_v3,2023.2.2,Win32,85.47008547,,,,,,,,,,,,,,,,662.1632,663.4571,663.4572,665.316,return,0.8037,,63.80208333,,,,,,FBP-RB-18.png,0.43,1.2,54,0.5,,,,,,,,,,,,,0,7,7,53,1,,,,,,,,,,,,,,,,,,,,,,,,,,,,
,,,,,V3_109,18,female,2025-02-06_16h00.47.863,jersey_experiment_5_v3,2023.2.2,Win32,85.47008547,,,,,,,,,,,,,,,,665.3163,666.6101,666.6101,668.9162,return,0.7225,,59.375,,,,,,FBP-RB-17.png,0.43,1.2,49,0.5,,,,,,,,,,,,,0,8,8,48,1,,,,,,,,,,,,,,,,,,,,,,,,,,,,
,,,,,V3_109,18,female,2025-02-06_16h00.47.863,jersey_experiment_5_v3,2023.2.2,Win32,85.47008547,,,,,,,,,,,,,,,,668.9164,670.2103,670.2104,672.2809,return,0.79,,74.21875,,,,,,FBP-YG-71.png,0.45,1.2,5,0.5,,,,,,,,,,,,,0,9,9,4,1,,,,,,,,,,,,,,,,,,,,,,,,,,,,
,,,,,V3_109,18,female,2025-02-06_16h00.47.863,jersey_experiment_5_v3,2023.2.2,Win32,85.47008547,,,,,,,,,,,,,,,,672.2812,673.5751,673.5753,675.0457,return,0.7095,,77.99479167,,,,,,FBP-YG-81.png,0.43,1.2,9,0.5,,,,,,,,,,,,,0,10,10,8,1,,,,,,,,,,,,,,,,,,,,,,,,,,,,
,,,,,V3_109,18,female,2025-02-06_16h00.47.863,jersey_experiment_5_v3,2023.2.2,Win32,85.47008547,,,,,,,,,,,,,,,,675.0459,676.34,676.3401,678.5165,return,0.8497,,36.84895833,,,,,,FBP-YG-91.png,0.4,1.2,13,0.5,,,,,,,,,,,,,0,11,11,12,1,,,,,,,,,,,,,,,,,,,,,,,,,,,,
,,,,,V3_109,18,female,2025-02-06_16h00.47.863,jersey_experiment_5_v3,2023.2.2,Win32,85.47008547,,,,,,,,,,,,,,,,678.5168,679.8107,679.8107,681.6106,return,0.7164,,36.84895833,,,,,,FBP-RB-18.png,0.4,1.2,53,0.5,,,,,,,,,,,,,0,12,12,52,1,,,,,,,,,,,,,,,,,,,,,,,,,,,,
,,,,,V3_109,18,female,2025-02-06_16h00.47.863,jersey_experiment_5_v3,2023.2.2,Win32,85.47008547,,,,,,,,,,,,,,,,681.6109,682.9049,682.9049,684.6461,return,0.8137,,43.61979167,,,,,,FBP-YG-81.png,0.4,1.2,8,0.5,,,,,,,,,,,,,0,13,13,7,1,,,,,,,,,,,,,,,,,,,,,,,,,,,,
,,,,,V3_109,18,female,2025-02-06_16h00.47.863,jersey_experiment_5_v3,2023.2.2,Win32,85.47008547,,,,,,,,,,,,,,,,684.6465,686.1991,686.1991,688.3287,return,0.8485,,26.04166667,,,,,,FBP-OG-19.png,0.35,1.2,41,0.75,,,,,,,,,,,,,0,14,14,40,1,,,,,,,,,,,,,,,,,,,,,,,,,,,,
,,,,,V3_109,18,female,2025-02-06_16h00.47.863,jersey_experiment_5_v3,2023.2.2,Win32,85.47008547,,,,,,,,,,,,,,,,688.3289,689.8817,689.8818,691.6699,return,0.7071,,49.609375,,,,,,FBP-OG-18.png,0.4,1.2,38,0.75,,,,,,,,,,,,,0,15,15,37,1,,,,,,,,,,,,,,,,,,,,,,,,,,,,
,,,,,V3_109,18,female,2025-02-06_16h00.47.863,jersey_experiment_5_v3,2023.2.2,Win32,85.47008547,,,,,,,,,,,,,,,,691.6701,692.9642,692.9642,694.7054,return,0.7255,,36.97916667,,,,,,FBP-PT-19.png,0.37,1.2,27,0.5,,,,,,,,,,,,,0,16,16,26,1,,,,,,,,,,,,,,,,,,,,,,,,,,,,
,,,,,V3_109,18,female,2025-02-06_16h00.47.863,jersey_experiment_5_v3,2023.2.2,Win32,85.47008547,,,,,,,,,,,,,,,,694.7056,695.9994,695.9995,698.1054,return,0.6356,,75.52083333,,,,,,FBP-RB-18.png,0.45,1.2,55,0.5,,,,,,,,,,,,,0,17,17,54,1,,,,,,,,,,,,,,,,,,,,,,,,,,,,
,,,,,V3_109,18,female,2025-02-06_16h00.47.863,jersey_experiment_5_v3,2023.2.2,Win32,85.47008547,,,,,,,,,,,,,,,,698.1057,699.3996,699.3997,701.1292,return,0.6957,,58.07291667,,,,,,FBP-PT-17.png,0.4,1.2,18,0.5,,,,,,,,,,,,,0,18,18,17,1,,,,,,,,,,,,,,,,,,,,,,,,,,,,
,,,,,V3_109,18,female,2025-02-06_16h00.47.863,jersey_experiment_5_v3,2023.2.2,Win32,85.47008547,,,,,,,,,,,,,,,,701.1294,702.682,702.6821,704.3528,return,0.7126,,34.375,,,,,,FBP-OG-19.png,0.37,1.2,42,0.75,,,,,,,,,,,,,0,19,19,41,1,,,,,,,,,,,,,,,,,,,,,,,,,,,,
,,,,,V3_109,18,female,2025-02-06_16h00.47.863,jersey_experiment_5_v3,2023.2.2,Win32,85.47008547,,,,,,,,,,,,,,,,704.3531,705.6469,705.647,707.1764,return,0.7044,,44.53125,,,,,,FBP-RB-17.png,0.37,1.2,47,0.5,,,,,,,,,,,,,0,20,20,46,1,,,,,,,,,,,,,,,,,,,,,,,,,,,,
,,,,,V3_109,18,female,2025-02-06_16h00.47.863,jersey_experiment_5_v3,2023.2.2,Win32,85.47008547,,,,,,,,,,,,,,,,707.1767,708.7293,708.7294,710.1647,return,0.6985,,40.234375,,,,,,FBP-OG-17.png,0.37,1.2,32,0.75,,,,,,,,,,,,,0,21,21,31,1,,,,,,,,,,,,,,,,,,,,,,,,,,,,
,,,,,V3_109,18,female,2025-02-06_16h00.47.863,jersey_experiment_5_v3,2023.2.2,Win32,85.47008547,,,,,,,,,,,,,,,,710.1649,711.7178,711.7179,713.6237,return,0.7292,,73.30729167,,,,,,FBP-OG-18.png,0.45,1.2,40,0.75,,,,,,,,,,,,,0,22,22,39,1,,,,,,,,,,,,,,,,,,,,,,,,,,,,
,,,,,V3_109,18,female,2025-02-06_16h00.47.863,jersey_experiment_5_v3,2023.2.2,Win32,85.47008547,,,,,,,,,,,,,,,,713.624,714.9177,714.9177,717.0473,return,0.7546,,46.61458333,,,,,,FBP-PT-18.png,0.35,1.2,21,0.5,,,,,,,,,,,,,0,23,23,20,1,,,,,,,,,,,,,,,,,,,,,,,,,,,,
,,,,,V3_109,18,female,2025-02-06_16h00.47.863,jersey_experiment_5_v3,2023.2.2,Win32,85.47008547,,,,,,,,,,,,,,,,717.0476,718.3414,718.3415,720.518,return,0.7675,,66.40625,,,,,,FBP-PT-17.png,0.45,1.2,20,0.5,,,,,,,,,,,,,0,24,24,19,1,,,,,,,,,,,,,,,,,,,,,,,,,,,,
,,,,,V3_109,18,female,2025-02-06_16h00.47.863,jersey_experiment_5_v3,2023.2.2,Win32,85.47008547,,,,,,,,,,,,,,,,720.5183,722.071,722.071,723.4121,return,0.6387,,68.22916667,,,,,,FBP-OG-17.png,0.43,1.2,34,0.75,,,,,,,,,,,,,0,25,25,33,1,,,,,,,,,,,,,,,,,,,,,,,,,,,,
,,,,,V3_109,18,female,2025-02-06_16h00.47.863,jersey_experiment_5_v3,2023.2.2,Win32,85.47008547,,,,,,,,,,,,,,,,723.4125,724.9538,724.9539,726.4711,return,0.6825,,76.953125,,,,,,FBP-OG-19.png,0.45,1.2,45,0.75,,,,,,,,,,,,,0,26,26,44,1,,,,,,,,,,,,,,,,,,,,,,,,,,,,
,,,,,V3_109,18,female,2025-02-06_16h00.47.863,jersey_experiment_5_v3,2023.2.2,Win32,85.47008547,,,,,,,,,,,,,,,,726.4714,727.7653,727.7653,729.7301,return,0.8069,,33.203125,,,,,,FBP-RB-18.png,0.35,1.2,51,0.5,,,,,,,,,,,,,0,27,27,50,1,,,,,,,,,,,,,,,,,,,,,,,,,,,,
,,,,,V3_109,18,female,2025-02-06_16h00.47.863,jersey_experiment_5_v3,2023.2.2,Win32,85.47008547,,,,,,,,,,,,,,,,729.7302,731.2717,731.2717,733.5774,return,0.7783,,48.4375,,,,,,FBP-OG-19.png,0.4,1.2,43,0.75,,,,,,,,,,,,,0,28,28,42,1,,,,,,,,,,,,,,,,,,,,,,,,,,,,
,,,,,V3_109,18,female,2025-02-06_16h00.47.863,jersey_experiment_5_v3,2023.2.2,Win32,85.47008547,,,,,,,,,,,,,,,,733.5777,734.8714,734.8714,736.7421,return,0.8027,,43.75,,,,,,FBP-YG-91.png,0.37,1.2,12,0.5,,,,,,,,,,,,,0,29,29,11,1,,,,,,,,,,,,,,,,,,,,,,,,,,,,
,,,,,V3_109,18,female,2025-02-06_16h00.47.863,jersey_experiment_5_v3,2023.2.2,Win32,85.47008547,,,,,,,,,,,,,,,,736.7424,738.0362,738.0362,739.6364,return,0.7574,,40.88541667,,,,,,FBP-YG-71.png,0.37,1.2,2,0.5,,,,,,,,,,,,,0,30,30,1,1,,,,,,,,,,,,,,,,,,,,,,,,,,,,
,,,,,V3_109,18,female,2025-02-06_16h00.47.863,jersey_experiment_5_v3,2023.2.2,Win32,85.47008547,,,,,,,,,,,,,,,,739.6366,740.9306,740.9306,742.8365,return,0.7676,,68.61979167,,,,,,FBP-PT-19.png,0.45,1.2,30,0.5,,,,,,,,,,,,,0,31,31,29,1,,,,,,,,,,,,,,,,,,,,,,,,,,,,
,,,,,V3_109,18,female,2025-02-06_16h00.47.863,jersey_experiment_5_v3,2023.2.2,Win32,85.47008547,,,,,,,,,,,,,,,,742.8369,744.1306,744.1307,746.1072,return,0.7856,,35.80729167,,,,,,FBP-RB-17.png,0.35,1.2,46,0.5,,,,,,,,,,,,,0,32,32,45,1,,,,,,,,,,,,,,,,,,,,,,,,,,,,
,,,,,V3_109,18,female,2025-02-06_16h00.47.863,jersey_experiment_5_v3,2023.2.2,Win32,85.47008547,,,,,,,,,,,,,,,,746.1075,747.6602,747.6602,749.4017,return,0.8003,,28.25520833,,,,,,FBP-OG-18.png,0.35,1.2,36,0.75,,,,,,,,,,,,,0,33,33,35,1,,,,,,,,,,,,,,,,,,,,,,,,,,,,
,,,,,V3_109,18,female,2025-02-06_16h00.47.863,jersey_experiment_5_v3,2023.2.2,Win32,85.47008547,,,,,,,,,,,,,,,,749.402,750.6956,750.6956,752.3427,return,0.8126,,26.04166667,,,,,,FBP-PT-17.png,0.35,1.2,16,0.5,,,,,,,,,,,,,0,34,34,15,1,,,,,,,,,,,,,,,,,,,,,,,,,,,,
,,,,,V3_109,18,female,2025-02-06_16h00.47.863,jersey_experiment_5_v3,2023.2.2,Win32,85.47008547,,,,,,,,,,,,,,,,752.343,753.6369,753.6369,755.4015,return,0.7767,,26.953125,,,,,,FBP-YG-81.png,0.37,1.2,7,0.5,,,,,,,,,,,,,0,35,35,6,1,,,,,,,,,,,,,,,,,,,,,,,,,,,,
,,,,,V3_109,18,female,2025-02-06_16h00.47.863,jersey_experiment_5_v3,2023.2.2,Win32,85.47008547,,,,,,,,,,,,,,,,755.4019,756.9547,756.9548,758.8371,return,0.8278,,45.05208333,,,,,,FBP-OG-17.png,0.4,1.2,33,0.75,,,,,,,,,,,,,0,36,36,32,1,,,,,,,,,,,,,,,,,,,,,,,,,,,,
,,,,,V3_109,18,female,2025-02-06_16h00.47.863,jersey_experiment_5_v3,2023.2.2,Win32,85.47008547,,,,,,,,,,,,,,,,758.8375,760.1314,760.1314,762.0725,return,0.7901,,73.95833333,,,,,,FBP-PT-17.png,0.43,1.2,19,0.5,,,,,,,,,,,,,0,37,37,18,1,,,,,,,,,,,,,,,,,,,,,,,,,,,,
,,,,,V3_109,18,female,2025-02-06_16h00.47.863,jersey_experiment_5_v3,2023.2.2,Win32,85.47008547,,,,,,,,,,,,,,,,762.0727,763.3666,763.3667,765.1079,return,0.6755,,45.57291667,,,,,,FBP-YG-71.png,0.4,1.2,3,0.5,,,,,,,,,,,,,0,38,38,2,1,,,,,,,,,,,,,,,,,,,,,,,,,,,,
,,,,,V3_109,18,female,2025-02-06_16h00.47.863,jersey_experiment_5_v3,2023.2.2,Win32,85.47008547,,,,,,,,,,,,,,,,765.1081,766.402,766.4021,768.0021,return,0.6538,,71.22395833,,,,,,FBP-YG-71.png,0.43,1.2,4,0.5,,,,,,,,,,,,,0,39,39,3,1,,,,,,,,,,,,,,,,,,,,,,,,,,,,
,,,,,V3_109,18,female,2025-02-06_16h00.47.863,jersey_experiment_5_v3,2023.2.2,Win32,85.47008547,,,,,,,,,,,,,,,,768.0024,769.2962,769.2962,771.3786,return,0.8298,,29.42708333,,,,,,FBP-PT-19.png,0.35,1.2,26,0.5,,,,,,,,,,,,,0,40,40,25,1,,,,,,,,,,,,,,,,,,,,,,,,,,,,
,,,,,V3_109,18,female,2025-02-06_16h00.47.863,jersey_experiment_5_v3,2023.2.2,Win32,85.47008547,,,,,,,,,,,,,,,,771.3788,772.9318,772.9319,774.226,return,0.7704,,43.61979167,,,,,,FBP-OG-17.png,0.35,1.2,31,0.75,,,,,,,,,,,,,0,41,41,30,1,,,,,,,,,,,,,,,,,,,,,,,,,,,,
,,,,,V3_109,18,female,2025-02-06_16h00.47.863,jersey_experiment_5_v3,2023.2.2,Win32,85.47008547,,,,,,,,,,,,,,,,774.2262,775.52,775.52,777.6848,return,0.8277,,38.671875,,,,,,FBP-YG-81.png,0.35,1.2,6,0.5,,,,,,,,,,,,,0,42,42,5,1,,,,,,,,,,,,,,,,,,,,,,,,,,,,
,,,,,V3_109,18,female,2025-02-06_16h00.47.863,jersey_experiment_5_v3,2023.2.2,Win32,85.47008547,,,,,,,,,,,,,,,,777.6851,778.979,778.9791,780.5555,return,0.8003,,41.14583333,,,,,,FBP-YG-91.png,0.35,1.2,11,0.5,,,,,,,,,,,,,0,43,43,10,1,,,,,,,,,,,,,,,,,,,,,,,,,,,,
,,,,,V3_109,18,female,2025-02-06_16h00.47.863,jersey_experiment_5_v3,2023.2.2,Win32,85.47008547,,,,,,,,,,,,,,,,780.5557,781.8496,781.8496,783.5909,return,0.8021,,32.8125,,,,,,FBP-PT-18.png,0.37,1.2,22,0.5,,,,,,,,,,,,,0,44,44,21,1,,,,,,,,,,,,,,,,,,,,,,,,,,,,
,,,,,V3_109,18,female,2025-02-06_16h00.47.863,jersey_experiment_5_v3,2023.2.2,Win32,85.47008547,,,,,,,,,,,,,,,,783.591,785.1439,785.144,786.8498,return,0.7114,,78.25520833,,,,,,FBP-OG-18.png,0.43,1.2,39,0.75,,,,,,,,,,,,,0,45,45,38,1,,,,,,,,,,,,,,,,,,,,,,,,,,,,
,,,,,V3_109,18,female,2025-02-06_16h00.47.863,jersey_experiment_5_v3,2023.2.2,Win32,85.47008547,,,,,,,,,,,,,,,,786.8501,788.144,788.1441,789.9205,return,0.7378,,64.19270833,,,,,,FBP-RB-18.png,0.37,1.2,52,0.5,,,,,,,,,,,,,0,46,46,51,1,,,,,,,,,,,,,,,,,,,,,,,,,,,,
,,,,,V3_109,18,female,2025-02-06_16h00.47.863,jersey_experiment_5_v3,2023.2.2,Win32,85.47008547,,,,,,,,,,,,,,,,789.9207,791.2147,791.2149,792.65,return,0.6901,,84.63541667,,,,,,FBP-RB-19.png,0.43,1.2,59,0.5,,,,,,,,,,,,,0,47,47,58,1,,,,,,,,,,,,,,,,,,,,,,,,,,,,
,,,,,V3_109,18,female,2025-02-06_16h00.47.863,jersey_experiment_5_v3,2023.2.2,Win32,85.47008547,,,,,,,,,,,,,,,,792.6503,793.9442,793.9443,795.8736,return,0.7236,,36.71875,,,,,,FBP-RB-19.png,0.37,1.2,57,0.5,,,,,,,,,,,,,0,48,48,56,1,,,,,,,,,,,,,,,,,,,,,,,,,,,,
,,,,,V3_109,18,female,2025-02-06_16h00.47.863,jersey_experiment_5_v3,2023.2.2,Win32,85.47008547,,,,,,,,,,,,,,,,795.874,797.1679,797.1679,800.7682,return,0.9267,,74.86979167,,,,,,FBP-PT-19.png,0.43,1.2,29,0.5,,,,,,,,,,,,,0,49,49,28,1,,,,,,,,,,,,,,,,,,,,,,,,,,,,
,,,,,V3_109,18,female,2025-02-06_16h00.47.863,jersey_experiment_5_v3,2023.2.2,Win32,85.47008547,,,,,,,,,,,,,,,,800.7684,802.0622,802.0623,804.4976,return,0.9603,,30.33854167,,,,,,FBP-RB-19.png,0.35,1.2,56,0.5,,,,,,,,,,,,,0,50,50,55,1,,,,,,,,,,,,,,,,,,,,,,,,,,,,
,,,,,V3_109,18,female,2025-02-06_16h00.47.863,jersey_experiment_5_v3,2023.2.2,Win32,85.47008547,,,,,,,,,,,,,,,,804.4979,805.7916,805.7916,807.5212,return,0.7946,,58.72395833,,,,,,FBP-PT-18.png,0.4,1.2,23,0.5,,,,,,,,,,,,,0,51,51,22,1,,,,,,,,,,,,,,,,,,,,,,,,,,,,
,,,,,V3_109,18,female,2025-02-06_16h00.47.863,jersey_experiment_5_v3,2023.2.2,Win32,85.47008547,,,,,,,,,,,,,,,,807.5214,808.8154,808.8154,810.4037,return,0.6612,,77.34375,,,,,,FBP-YG-91.png,0.43,1.2,14,0.5,,,,,,,,,,,,,0,52,52,13,1,,,,,,,,,,,,,,,,,,,,,,,,,,,,
,,,,,V3_109,18,female,2025-02-06_16h00.47.863,jersey_experiment_5_v3,2023.2.2,Win32,85.47008547,,,,,,,,,,,,,,,,810.4039,811.6978,811.6978,813.5214,return,0.7476,,40.10416667,,,,,,FBP-RB-19.png,0.4,1.2,58,0.5,,,,,,,,,,,,,0,53,53,57,1,,,,,,,,,,,,,,,,,,,,,,,,,,,,
,,,,,V3_109,18,female,2025-02-06_16h00.47.863,jersey_experiment_5_v3,2023.2.2,Win32,85.47008547,,,,,,,,,,,,,,,,813.5217,814.8155,814.8156,817.204,return,0.8167,,38.41145833,,,,,,FBP-PT-19.png,0.4,1.2,28,0.5,,,,,,,,,,,,,0,54,54,27,1,,,,,,,,,,,,,,,,,,,,,,,,,,,,
,,,,,V3_109,18,female,2025-02-06_16h00.47.863,jersey_experiment_5_v3,2023.2.2,Win32,85.47008547,,,,,,,,,,,,,,,,817.2042,818.4981,818.4981,820.1218,return,0.7431,,66.796875,,,,,,FBP-RB-17.png,0.45,1.2,50,0.5,,,,,,,,,,,,,0,55,55,49,1,,,,,,,,,,,,,,,,,,,,,,,,,,,,
,,,,,V3_109,18,female,2025-02-06_16h00.47.863,jersey_experiment_5_v3,2023.2.2,Win32,85.47008547,,,,,,,,,,,,,,,,820.1221,821.4158,821.4159,823.0746,return,0.7931,,55.46875,,,,,,FBP-PT-18.png,0.43,1.2,24,0.5,,,,,,,,,,,,,0,56,56,23,1,,,,,,,,,,,,,,,,,,,,,,,,,,,,
,,,,,V3_109,18,female,2025-02-06_16h00.47.863,jersey_experiment_5_v3,2023.2.2,Win32,85.47008547,,,,,,,,,,,,,,,,823.0748,824.3691,824.3692,825.9926,return,0.7299,,35.02604167,,,,,,FBP-PT-17.png,0.37,1.2,17,0.5,,,,,,,,,,,,,0,57,57,16,1,,,,,,,,,,,,,,,,,,,,,,,,,,,,
,,,,,V3_109,18,female,2025-02-06_16h00.47.863,jersey_experiment_5_v3,2023.2.2,Win32,85.47008547,,,,,,,,,,,,,,,,825.993,827.5457,827.5457,829.7926,return,0.8069,,37.36979167,,,,,,FBP-OG-18.png,0.37,1.2,37,0.75,,,,,,,,,,,,,0,58,58,36,1,,,,,,,,,,,,,,,,,,,,,,,,,,,,
,,,,,V3_109,18,female,2025-02-06_16h00.47.863,jersey_experiment_5_v3,2023.2.2,Win32,85.47008547,,,,,,,,,,,,,,,,829.7928,831.0868,831.0868,834.2399,return,0.8207,,68.22916667,,,,,,FBP-YG-81.png,0.45,1.2,10,0.5,,,,,,,,,,,,,0,59,59,9,1,,,,,,,,,,,,,,,,,,,,,,,,,,,,
,,,,,V3_109,18,female,2025-02-06_16h00.47.863,jersey_experiment_5_v3,2023.2.2,Win32,85.47008547,,,,,,,,,,,,,,,,834.2417,835.534,835.5341,837.2164,return,0.7704,,55.20833333,,,,,,FBP-YG-18.png,0.4,1.2,8,0.5,,,,,,,,,,,,,,,,,,0,0,0,7,1,,,,,,,,,,,,,,,,,,,,,,,
,,,,,V3_109,18,female,2025-02-06_16h00.47.863,jersey_experiment_5_v3,2023.2.2,Win32,85.47008547,,,,,,,,,,,,,,,,837.2168,838.5106,838.5107,840.3694,return,0.8188,,37.5,,,,,,FBP-PT-91.png,0.35,1.2,26,0.5,,,,,,,,,,,,,,,,,,0,1,1,25,1,,,,,,,,,,,,,,,,,,,,,,,
,,,,,V3_109,18,female,2025-02-06_16h00.47.863,jersey_experiment_5_v3,2023.2.2,Win32,85.47008547,,,,,,,,,,,,,,,,840.3697,841.6637,841.6638,843.2167,return,0.7014,,45.05208333,,,,,,FBP-RB-71.png,0.37,1.2,47,0.5,,,,,,,,,,,,,,,,,,0,2,2,46,1,,,,,,,,,,,,,,,,,,,,,,,
,,,,,V3_109,18,female,2025-02-06_16h00.47.863,jersey_experiment_5_v3,2023.2.2,Win32,85.47008547,,,,,,,,,,,,,,,,843.2171,844.77,844.77,846.2168,return,0.6826,,41.53645833,,,,,,FBP-OG-71.png,0.4,1.2,33,0.75,,,,,,,,,,,,,,,,,,0,3,3,32,1,,,,,,,,,,,,,,,,,,,,,,,
,,,,,V3_109,18,female,2025-02-06_16h00.47.863,jersey_experiment_5_v3,2023.2.2,Win32,85.47008547,,,,,,,,,,,,,,,,846.2172,847.7698,847.7699,849.2403,return,0.6591,,38.54166667,,,,,,FBP-OG-81.png,0.4,1.2,38,0.75,,,,,,,,,,,,,,,,,,0,4,4,37,1,,,,,,,,,,,,,,,,,,,,,,,
,,,,,V3_109,18,female,2025-02-06_16h00.47.863,jersey_experiment_5_v3,2023.2.2,Win32,85.47008547,,,,,,,,,,,,,,,,849.2407,850.5347,850.5347,851.864,return,0.638,,51.69270833,,,,,,FBP-RB-71.png,0.4,1.2,48,0.5,,,,,,,,,,,,,,,,,,0,5,5,47,1,,,,,,,,,,,,,,,,,,,,,,,
,,,,,V3_109,18,female,2025-02-06_16h00.47.863,jersey_experiment_5_v3,2023.2.2,Win32,85.47008547,,,,,,,,,,,,,,,,851.8642,853.1583,853.1583,854.5817,return,0.615,,74.86979167,,,,,,FBP-RB-81.png,0.45,1.2,55,0.5,,,,,,,,,,,,,,,,,,0,6,6,54,1,,,,,,,,,,,,,,,,,,,,,,,
,,,,,V3_109,18,female,2025-02-06_16h00.47.863,jersey_experiment_5_v3,2023.2.2,Win32,85.47008547,,,,,,,,,,,,,,,,854.5819,855.8759,855.8759,857.2877,return,0.6363,,63.41145833,,,,,,FBP-YG-17.png,0.4,1.2,3,0.5,,,,,,,,,,,,,,,,,,0,7,7,2,1,,,,,,,,,,,,,,,,,,,,,,,
,,,,,V3_109,18,female,2025-02-06_16h00.47.863,jersey_experiment_5_v3,2023.2.2,Win32,85.47008547,,,,,,,,,,,,,,,,857.2881,858.5819,858.5819,860.1467,return,0.6061,,75.390625,,,,,,FBP-YG-17.png,0.43,1.2,4,0.5,,,,,,,,,,,,,,,,,,0,8,8,3,1,,,,,,,,,,,,,,,,,,,,,,,
,,,,,V3_109,18,female,2025-02-06_16h00.47.863,jersey_experiment_5_v3,2023.2.2,Win32,85.47008547,,,,,,,,,,,,,,,,860.1469,861.6997,861.6998,863.2409,return,0.6591,,84.24479167,,,,,,FBP-OG-71.png,0.45,1.2,35,0.75,,,,,,,,,,,,,,,,,,0,9,9,34,1,,,,,,,,,,,,,,,,,,,,,,,
,,,,,V3_109,18,female,2025-02-06_16h00.47.863,jersey_experiment_5_v3,2023.2.2,Win32,85.47008547,,,,,,,,,,,,,,,,863.2411,864.535,864.5351,866.3233,return,0.7217,,63.02083333,,,,,,FBP-RB-81.png,0.43,1.2,54,0.5,,,,,,,,,,,,,,,,,,0,10,10,53,1,,,,,,,,,,,,,,,,,,,,,,,
,,,,,V3_109,18,female,2025-02-06_16h00.47.863,jersey_experiment_5_v3,2023.2.2,Win32,85.47008547,,,,,,,,,,,,,,,,866.3236,867.6176,867.6176,871.5706,return,2.7942,,73.95833333,,,,,,FBP-RB-71.png,0.45,1.2,50,0.5,,,,,,,,,,,,,,,,,,0,11,11,49,1,,,,,,,,,,,,,,,,,,,,,,,
,,,,,V3_109,18,female,2025-02-06_16h00.47.863,jersey_experiment_5_v3,2023.2.2,Win32,85.47008547,,,,,,,,,,,,,,,,871.5708,873.1238,873.1238,874.7708,return,0.7705,,37.36979167,,,,,,FBP-OG-91.png,0.4,1.2,43,0.75,,,,,,,,,,,,,,,,,,0,12,12,42,1,,,,,,,,,,,,,,,,,,,,,,,
,,,,,V3_109,18,female,2025-02-06_16h00.47.863,jersey_experiment_5_v3,2023.2.2,Win32,85.47008547,,,,,,,,,,,,,,,,874.771,876.0649,876.0649,878.3472,return,0.8237,,75,,,,,,FBP-PT-81.png,0.45,1.2,25,0.5,,,,,,,,,,,,,,,,,,0,13,13,24,1,,,,,,,,,,,,,,,,,,,,,,,
,,,,,V3_109,18,female,2025-02-06_16h00.47.863,jersey_experiment_5_v3,2023.2.2,Win32,85.47008547,,,,,,,,,,,,,,,,878.3476,879.6417,879.6417,882.1357,return,0.8348,,29.296875,,,,,,FBP-PT-71.png,0.4,1.2,18,0.5,,,,,,,,,,,,,,,,,,0,14,14,17,1,,,,,,,,,,,,,,,,,,,,,,,
,,,,,V3_109,18,female,2025-02-06_16h00.47.863,jersey_experiment_5_v3,2023.2.2,Win32,85.47008547,,,,,,,,,,,,,,,,882.136,883.4298,883.4299,885.5594,return,0.8132,,66.92708333,,,,,,FBP-PT-71.png,0.45,1.2,20,0.5,,,,,,,,,,,,,,,,,,0,15,15,19,1,,,,,,,,,,,,,,,,,,,,,,,
,,,,,V3_109,18,female,2025-02-06_16h00.47.863,jersey_experiment_5_v3,2023.2.2,Win32,85.47008547,,,,,,,,,,,,,,,,885.5597,886.8537,886.8538,888.7596,return,0.8248,,32.421875,,,,,,FBP-PT-91.png,0.4,1.2,28,0.5,,,,,,,,,,,,,,,,,,0,16,16,27,1,,,,,,,,,,,,,,,,,,,,,,,
,,,,,V3_109,18,female,2025-02-06_16h00.47.863,jersey_experiment_5_v3,2023.2.2,Win32,85.47008547,,,,,,,,,,,,,,,,888.7598,890.0536,890.0537,891.6419,return,0.788,,36.97916667,,,,,,FBP-YG-19.png,0.43,1.2,14,0.5,,,,,,,,,,,,,,,,,,0,17,17,13,1,,,,,,,,,,,,,,,,,,,,,,,
,,,,,V3_109,18,female,2025-02-06_16h00.47.863,jersey_experiment_5_v3,2023.2.2,Win32,85.47008547,,,,,,,,,,,,,,,,891.6422,893.195,893.1951,894.795,return,0.8086,,29.6875,,,,,,FBP-OG-71.png,0.37,1.2,32,0.75,,,,,,,,,,,,,,,,,,0,18,18,31,1,,,,,,,,,,,,,,,,,,,,,,,
,,,,,V3_109,18,female,2025-02-06_16h00.47.863,jersey_experiment_5_v3,2023.2.2,Win32,85.47008547,,,,,,,,,,,,,,,,894.7953,896.0894,896.0894,897.9246,return,0.7574,,36.58854167,,,,,,FBP-YG-17.png,0.35,1.2,1,0.5,,,,,,,,,,,,,,,,,,0,19,19,0,1,,,,,,,,,,,,,,,,,,,,,,,
,,,,,V3_109,18,female,2025-02-06_16h00.47.863,jersey_experiment_5_v3,2023.2.2,Win32,85.47008547,,,,,,,,,,,,,,,,897.9248,899.2186,899.2186,900.7599,return,0.6716,,40.625,,,,,,FBP-YG-17.png,0.37,1.2,2,0.5,,,,,,,,,,,,,,,,,,0,20,20,1,1,,,,,,,,,,,,,,,,,,,,,,,
,,,,,V3_109,18,female,2025-02-06_16h00.47.863,jersey_experiment_5_v3,2023.2.2,Win32,85.47008547,,,,,,,,,,,,,,,,900.7603,902.0541,902.0542,903.9249,return,0.7203,,44.01041667,,,,,,FBP-RB-91.png,0.4,1.2,58,0.5,,,,,,,,,,,,,,,,,,0,21,21,57,1,,,,,,,,,,,,,,,,,,,,,,,
,,,,,V3_109,18,female,2025-02-06_16h00.47.863,jersey_experiment_5_v3,2023.2.2,Win32,85.47008547,,,,,,,,,,,,,,,,903.9251,905.4777,905.4777,907.2191,return,0.712,,51.04166667,,,,,,FBP-OG-81.png,0.43,1.2,39,0.75,,,,,,,,,,,,,,,,,,0,22,22,38,1,,,,,,,,,,,,,,,,,,,,,,,
,,,,,V3_109,18,female,2025-02-06_16h00.47.863,jersey_experiment_5_v3,2023.2.2,Win32,85.47008547,,,,,,,,,,,,,,,,907.2195,908.5132,908.5132,910.372,return,0.8372,,37.109375,,,,,,FBP-RB-81.png,0.37,1.2,52,0.5,,,,,,,,,,,,,,,,,,0,23,23,51,1,,,,,,,,,,,,,,,,,,,,,,,
,,,,,V3_109,18,female,2025-02-06_16h00.47.863,jersey_experiment_5_v3,2023.2.2,Win32,85.47008547,,,,,,,,,,,,,,,,910.3722,911.9135,911.9135,913.3134,return,0.6769,,64.32291667,,,,,,FBP-OG-91.png,0.43,1.2,44,0.75,,,,,,,,,,,,,,,,,,0,24,24,43,1,,,,,,,,,,,,,,,,,,,,,,,
,,,,,V3_109,18,female,2025-02-06_16h00.47.863,jersey_experiment_5_v3,2023.2.2,Win32,85.47008547,,,,,,,,,,,,,,,,913.3136,914.6075,914.6076,916.5135,return,0.8179,,48.046875,,,,,,FBP-PT-91.png,0.43,1.2,29,0.5,,,,,,,,,,,,,,,,,,0,25,25,28,1,,,,,,,,,,,,,,,,,,,,,,,
,,,,,V3_109,18,female,2025-02-06_16h00.47.863,jersey_experiment_5_v3,2023.2.2,Win32,85.47008547,,,,,,,,,,,,,,,,916.5137,917.8077,917.8077,919.843,return,0.9222,,37.5,,,,,,FBP-PT-71.png,0.37,1.2,17,0.5,,,,,,,,,,,,,,,,,,0,26,26,16,1,,,,,,,,,,,,,,,,,,,,,,,
,,,,,V3_109,18,female,2025-02-06_16h00.47.863,jersey_experiment_5_v3,2023.2.2,Win32,85.47008547,,,,,,,,,,,,,,,,919.8432,921.1371,921.1372,923.0903,return,0.83,,37.76041667,,,,,,FBP-RB-91.png,0.37,1.2,57,0.5,,,,,,,,,,,,,,,,,,0,27,27,56,1,,,,,,,,,,,,,,,,,,,,,,,
,,,,,V3_109,18,female,2025-02-06_16h00.47.863,jersey_experiment_5_v3,2023.2.2,Win32,85.47008547,,,,,,,,,,,,,,,,923.0905,924.3844,924.3844,926.8433,return,0.7399,,60.546875,,,,,,FBP-YG-18.png,0.43,1.2,9,0.5,,,,,,,,,,,,,,,,,,0,28,28,8,1,,,,,,,,,,,,,,,,,,,,,,,
,,,,,V3_109,18,female,2025-02-06_16h00.47.863,jersey_experiment_5_v3,2023.2.2,Win32,85.47008547,,,,,,,,,,,,,,,,926.8435,928.3847,928.3847,929.9727,return,0.7571,,38.15104167,,,,,,FBP-OG-91.png,0.35,1.2,41,0.75,,,,,,,,,,,,,,,,,,0,29,29,40,1,,,,,,,,,,,,,,,,,,,,,,,
,,,,,V3_109,18,female,2025-02-06_16h00.47.863,jersey_experiment_5_v3,2023.2.2,Win32,85.47008547,,,,,,,,,,,,,,,,929.9729,931.2669,931.2669,933.1376,return,0.7485,,63.15104167,,,,,,FBP-PT-91.png,0.45,1.2,30,0.5,,,,,,,,,,,,,,,,,,0,30,30,29,1,,,,,,,,,,,,,,,,,,,,,,,
,,,,,V3_109,18,female,2025-02-06_16h00.47.863,jersey_experiment_5_v3,2023.2.2,Win32,85.47008547,,,,,,,,,,,,,,,,933.1379,934.6906,934.6907,937.0437,return,0.8981,,27.99479167,,,,,,FBP-OG-71.png,0.35,1.2,31,0.75,,,,,,,,,,,,,,,,,,0,31,31,30,1,,,,,,,,,,,,,,,,,,,,,,,
,,,,,V3_109,18,female,2025-02-06_16h00.47.863,jersey_experiment_5_v3,2023.2.2,Win32,85.47008547,,,,,,,,,,,,,,,,937.0439,938.5967,938.5968,940.1027,return,0.7669,,23.56770833,,,,,,FBP-OG-81.png,0.37,1.2,37,0.75,,,,,,,,,,,,,,,,,,0,32,32,36,1,,,,,,,,,,,,,,,,,,,,,,,
,,,,,V3_109,18,female,2025-02-06_16h00.47.863,jersey_experiment_5_v3,2023.2.2,Win32,85.47008547,,,,,,,,,,,,,,,,940.1029,941.3966,941.3967,943.0908,return,0.7706,,32.68229167,,,,,,FBP-YG-18.png,0.37,1.2,7,0.5,,,,,,,,,,,,,,,,,,0,33,33,6,1,,,,,,,,,,,,,,,,,,,,,,,
,,,,,V3_109,18,female,2025-02-06_16h00.47.863,jersey_experiment_5_v3,2023.2.2,Win32,85.47008547,,,,,,,,,,,,,,,,943.0911,944.385,944.3851,946.1616,return,0.7215,,41.40625,,,,,,FBP-PT-91.png,0.37,1.2,27,0.5,,,,,,,,,,,,,,,,,,0,34,34,26,1,,,,,,,,,,,,,,,,,,,,,,,
,,,,,V3_109,18,female,2025-02-06_16h00.47.863,jersey_experiment_5_v3,2023.2.2,Win32,85.47008547,,,,,,,,,,,,,,,,946.162,947.4558,947.4558,949.0559,return,0.7386,,50,,,,,,FBP-RB-81.png,0.4,1.2,53,0.5,,,,,,,,,,,,,,,,,,0,35,35,52,1,,,,,,,,,,,,,,,,,,,,,,,
,,,,,V3_109,18,female,2025-02-06_16h00.47.863,jersey_experiment_5_v3,2023.2.2,Win32,85.47008547,,,,,,,,,,,,,,,,949.0563,950.35,950.3501,952.1618,return,0.7234,,67.44791667,,,,,,FBP-PT-81.png,0.43,1.2,24,0.5,,,,,,,,,,,,,,,,,,0,36,36,23,1,,,,,,,,,,,,,,,,,,,,,,,
,,,,,V3_109,18,female,2025-02-06_16h00.47.863,jersey_experiment_5_v3,2023.2.2,Win32,85.47008547,,,,,,,,,,,,,,,,952.1621,953.456,953.456,955.1736,return,0.7324,,78.38541667,,,,,,FBP-YG-17.png,0.45,1.2,5,0.5,,,,,,,,,,,,,,,,,,0,37,37,4,1,,,,,,,,,,,,,,,,,,,,,,,
,,,,,V3_109,18,female,2025-02-06_16h00.47.863,jersey_experiment_5_v3,2023.2.2,Win32,85.47008547,,,,,,,,,,,,,,,,955.1739,956.4679,956.4679,958.6443,return,0.6753,,85.546875,,,,,,FBP-RB-91.png,0.45,1.2,60,0.5,,,,,,,,,,,,,,,,,,0,38,38,59,1,,,,,,,,,,,,,,,,,,,,,,,
,,,,,V3_109,18,female,2025-02-06_16h00.47.863,jersey_experiment_5_v3,2023.2.2,Win32,85.47008547,,,,,,,,,,,,,,,,958.6446,959.9384,959.9385,961.7034,return,0.59,,38.671875,,,,,,FBP-RB-81.png,0.35,1.2,51,0.5,,,,,,,,,,,,,,,,,,0,39,39,50,1,,,,,,,,,,,,,,,,,,,,,,,
,,,,,V3_109,18,female,2025-02-06_16h00.47.863,jersey_experiment_5_v3,2023.2.2,Win32,85.47008547,,,,,,,,,,,,,,,,961.7036,963.2565,963.2565,964.6329,return,0.5885,,64.97395833,,,,,,FBP-OG-91.png,0.45,1.2,45,0.75,,,,,,,,,,,,,,,,,,0,40,40,44,1,,,,,,,,,,,,,,,,,,,,,,,
,,,,,V3_109,18,female,2025-02-06_16h00.47.863,jersey_experiment_5_v3,2023.2.2,Win32,85.47008547,,,,,,,,,,,,,,,,964.6331,965.9271,965.9271,967.2212,return,0.4978,,47.00520833,,,,,,FBP-PT-81.png,0.4,1.2,23,0.5,,,,,,,,,,,,,,,,,,0,41,41,22,1,,,,,,,,,,,,,,,,,,,,,,,
,,,,,V3_109,18,female,2025-02-06_16h00.47.863,jersey_experiment_5_v3,2023.2.2,Win32,85.47008547,,,,,,,,,,,,,,,,967.2215,968.5152,968.5152,969.8919,return,0.5342,,65.49479167,,,,,,FBP-PT-71.png,0.43,1.2,19,0.5,,,,,,,,,,,,,,,,,,0,42,42,18,1,,,,,,,,,,,,,,,,,,,,,,,
,,,,,V3_109,18,female,2025-02-06_16h00.47.863,jersey_experiment_5_v3,2023.2.2,Win32,85.47008547,,,,,,,,,,,,,,,,969.8922,971.4451,971.4452,972.7272,return,0.5507,,32.55208333,,,,,,FBP-OG-81.png,0.35,1.2,36,0.75,,,,,,,,,,,,,,,,,,0,43,43,35,1,,,,,,,,,,,,,,,,,,,,,,,
,,,,,V3_109,18,female,2025-02-06_16h00.47.863,jersey_experiment_5_v3,2023.2.2,Win32,85.47008547,,,,,,,,,,,,,,,,972.7276,974.0216,974.0216,975.2686,return,0.5925,,34.50520833,,,,,,FBP-PT-81.png,0.35,1.2,21,0.5,,,,,,,,,,,,,,,,,,0,44,44,20,1,,,,,,,,,,,,,,,,,,,,,,,
,,,,,V3_109,18,female,2025-02-06_16h00.47.863,jersey_experiment_5_v3,2023.2.2,Win32,85.47008547,,,,,,,,,,,,,,,,975.2689,976.8217,976.8217,978.0334,return,0.6181,,34.765625,,,,,,FBP-OG-91.png,0.37,1.2,42,0.75,,,,,,,,,,,,,,,,,,0,45,45,41,1,,,,,,,,,,,,,,,,,,,,,,,
,,,,,V3_109,18,female,2025-02-06_16h00.47.863,jersey_experiment_5_v3,2023.2.2,Win32,85.47008547,,,,,,,,,,,,,,,,978.0336,979.5865,979.5866,980.657,return,0.5124,,56.640625,,,,,,FBP-OG-71.png,0.43,1.2,34,0.75,,,,,,,,,,,,,,,,,,0,46,46,33,1,,,,,,,,,,,,,,,,,,,,,,,
,,,,,V3_109,18,female,2025-02-06_16h00.47.863,jersey_experiment_5_v3,2023.2.2,Win32,85.47008547,,,,,,,,,,,,,,,,980.6573,981.9513,981.9513,983.1041,return,0.5127,,40.234375,,,,,,FBP-YG-18.png,0.35,1.2,6,0.5,,,,,,,,,,,,,,,,,,0,47,47,5,1,,,,,,,,,,,,,,,,,,,,,,,
,,,,,V3_109,18,female,2025-02-06_16h00.47.863,jersey_experiment_5_v3,2023.2.2,Win32,85.47008547,,,,,,,,,,,,,,,,983.1044,984.3982,984.3983,985.716,return,0.6034,,48.56770833,,,,,,FBP-YG-19.png,0.35,1.2,11,0.5,,,,,,,,,,,,,,,,,,0,48,48,10,1,,,,,,,,,,,,,,,,,,,,,,,
,,,,,V3_109,18,female,2025-02-06_16h00.47.863,jersey_experiment_5_v3,2023.2.2,Win32,85.47008547,,,,,,,,,,,,,,,,985.7163,987.0103,987.0103,988.4101,return,0.5559,,63.93229167,,,,,,FBP-YG-19.png,0.4,1.2,13,0.5,,,,,,,,,,,,,,,,,,0,49,49,12,1,,,,,,,,,,,,,,,,,,,,,,,
,,,,,V3_109,18,female,2025-02-06_16h00.47.863,jersey_experiment_5_v3,2023.2.2,Win32,85.47008547,,,,,,,,,,,,,,,,988.4104,989.7044,989.7044,990.9516,return,0.531,,75.91145833,,,,,,FBP-RB-91.png,0.43,1.2,59,0.5,,,,,,,,,,,,,,,,,,0,50,50,58,1,,,,,,,,,,,,,,,,,,,,,,,
,,,,,V3_109,18,female,2025-02-06_16h00.47.863,jersey_experiment_5_v3,2023.2.2,Win32,85.47008547,,,,,,,,,,,,,,,,990.9517,992.2457,992.2458,993.2575,return,0.5305,,78.25520833,,,,,,FBP-RB-71.png,0.43,1.2,49,0.5,,,,,,,,,,,,,,,,,,0,51,51,48,1,,,,,,,,,,,,,,,,,,,,,,,
,,,,,V3_109,18,female,2025-02-06_16h00.47.863,jersey_experiment_5_v3,2023.2.2,Win32,85.47008547,,,,,,,,,,,,,,,,993.2577,994.5516,994.5516,996.0811,return,0.5696,,38.80208333,,,,,,FBP-RB-91.png,0.35,1.2,56,0.5,,,,,,,,,,,,,,,,,,0,52,52,55,1,,,,,,,,,,,,,,,,,,,,,,,
,,,,,V3_109,18,female,2025-02-06_16h00.47.863,jersey_experiment_5_v3,2023.2.2,Win32,85.47008547,,,,,,,,,,,,,,,,996.0813,997.3753,997.3753,998.634,return,0.5647,,53.90625,,,,,,FBP-PT-81.png,0.37,1.2,22,0.5,,,,,,,,,,,,,,,,,,0,53,53,21,1,,,,,,,,,,,,,,,,,,,,,,,
,,,,,V3_109,18,female,2025-02-06_16h00.47.863,jersey_experiment_5_v3,2023.2.2,Win32,85.47008547,,,,,,,,,,,,,,,,998.6343,999.9282,999.9283,1001.6695,return,1.0149,,49.73958333,,,,,,FBP-YG-19.png,0.37,1.2,12,0.5,,,,,,,,,,,,,,,,,,0,54,54,11,1,,,,,,,,,,,,,,,,,,,,,,,
,,,,,V3_109,18,female,2025-02-06_16h00.47.863,jersey_experiment_5_v3,2023.2.2,Win32,85.47008547,,,,,,,,,,,,,,,,1001.6699,1003.2227,1003.2227,1004.352,return,0.5354,,71.22395833,,,,,,FBP-OG-81.png,0.45,1.2,40,0.75,,,,,,,,,,,,,,,,,,0,55,55,39,1,,,,,,,,,,,,,,,,,,,,,,,
,,,,,V3_109,18,female,2025-02-06_16h00.47.863,jersey_experiment_5_v3,2023.2.2,Win32,85.47008547,,,,,,,,,,,,,,,,1004.3523,1005.6462,1005.6463,1006.9286,return,0.5141,,45.83333333,,,,,,FBP-RB-71.png,0.35,1.2,46,0.5,,,,,,,,,,,,,,,,,,0,56,56,45,1,,,,,,,,,,,,,,,,,,,,,,,
,,,,,V3_109,18,female,2025-02-06_16h00.47.863,jersey_experiment_5_v3,2023.2.2,Win32,85.47008547,,,,,,,,,,,,,,,,1006.9289,1008.2226,1008.2227,1009.8463,return,0.6606,,69.79166667,,,,,,FBP-YG-19.png,0.45,1.2,15,0.5,,,,,,,,,,,,,,,,,,0,57,57,14,1,,,,,,,,,,,,,,,,,,,,,,,
,,,,,V3_109,18,female,2025-02-06_16h00.47.863,jersey_experiment_5_v3,2023.2.2,Win32,85.47008547,,,,,,,,,,,,,,,,1009.8466,1011.1405,1011.1405,1012.3877,return,0.5224,,78.25520833,,,,,,FBP-YG-18.png,0.45,1.2,10,0.5,,,,,,,,,,,,,,,,,,0,58,58,9,1,,,,,,,,,,,,,,,,,,,,,,,
,,,,,V3_109,18,female,2025-02-06_16h00.47.863,jersey_experiment_5_v3,2023.2.2,Win32,85.47008547,,,,,,,,,,,,,,,,1012.3879,1013.6819,1013.6819,1016.7289,return,2.3606,,40.234375,,,,,,FBP-PT-71.png,0.35,1.2,16,0.5,,,,,,,,,,,,,,,,,,0,59,59,15,1,,,,,,,,,,,,,,,,,,,,,,,
,,,,,V3_109,18,female,2025-02-06_16h00.47.863,jersey_experiment_5_v3,2023.2.2,Win32,85.47008547,,,,,,,,,,,,,,,,,,,,,,,,,,,,,,,,,,,,,,,,,,,,,,,,,,,,,,,,1016.7291,1021.541,return,4.8007,,,,,,,,,,,,,,,,,,,
,,,,,V3_109,18,female,2025-02-06_16h00.47.863,jersey_experiment_5_v3,2023.2.2,Win32,85.47008547,,,,,,,,,,,,,,,,,,,,,,,,,,,,,,,,,,,,,,,,,,,,,,,,,,,,,,,,,,,,,1021.5412,1026.1175,1,3.1382,return,1.4233,,,,,,,,,,,,
,,,,,V3_109,18,female,2025-02-06_16h00.47.863,jersey_experiment_5_v3,2023.2.2,Win32,85.47008547,,,,,,,,,,,,,,,,,,,,,,,,,,,,,,,,,,,,,,,,,,,,,,,,,,,,,,,,,,,,,,,,,,,,1026.1177,1060.2138,Maybe related to the color of the jersey or the skin color of the football players,right,25.3307,,,,,,
,,,,,V3_109,18,female,2025-02-06_16h00.47.863,jersey_experiment_5_v3,2023.2.2,Win32,85.47008547,,,,,,,,,,,,,,,,,,,,,,,,,,,,,,,,,,,,,,,,,,,,,,,,,,,,,,,,,,,,,,,,,,,,,,,,,,1060.2139,1063.2366,return,3.012,