requirements.started,requirements.stopped,key_resp_3.keys,key_resp_3.rt,key_resp_3.duration,Subject ID,Age,Gender,date,expName,psychopyVersion,OS,frameRate,instructions1.started,instructions1.stopped,key_resp.keys,key_resp.rt,key_resp.duration,example.started,example.stopped,enter_2.keys,enter_2.rt,enter_2.duration,instructions2.started,instructions2.stopped,enter_3.keys,enter_3.rt,enter_3.duration,image.started,image.stopped,slider_2.started,slider_2.stopped,next.keys,next.rt,next.duration,slider.response,trial_block_1.thisRepN,trial_block_1.thisTrialN,trial_block_1.thisN,trial_block_1.thisIndex,trial_block_1.ran,Path,Width,Height,Index,Duration,trial_block_2.thisRepN,trial_block_2.thisTrialN,trial_block_2.thisN,trial_block_2.thisIndex,trial_block_2.ran,rest_break.started,rest_break.stopped,end_break.started,end_break.stopped,key_resp_5.keys,key_resp_5.rt,key_resp_5.duration,trial_block_3.thisRepN,trial_block_3.thisTrialN,trial_block_3.thisN,trial_block_3.thisIndex,trial_block_3.ran,trial_block_4.thisRepN,trial_block_4.thisTrialN,trial_block_4.thisN,trial_block_4.thisIndex,trial_block_4.ran,questions_intro.started,questions_intro.stopped,enter_12.keys,enter_12.rt,enter_12.duration,question2.started,question2.stopped,question_doingbest.response,question_doingbest.rt,enter_15.keys,enter_15.rt,enter_15.duration,pattern.started,pattern.stopped,pattern_2.text,enter_17.keys,enter_17.rt,enter_17.duration,thankyou.started,thankyou.stopped,enter_14.keys,enter_14.rt,enter_14.duration
0,2.4127,return,2.4103,,V3_054,19,F,2024-11-07_16h23.18.011,jersey_experiment_5_v3,2023.2.2,Win32,85.47008547,,,,,,,,,,,,,,,,,,,,,,,,,,,,,,,,,,,,,,,,,,,,,,,,,,,,,,,,,,,,,,,,,,,,,,,,,,,,,,
,,,,,V3_054,19,F,2024-11-07_16h23.18.011,jersey_experiment_5_v3,2023.2.2,Win32,85.47008547,2.4128,3.2832,return,0.8615,,,,,,,,,,,,,,,,,,,,,,,,,,,,,,,,,,,,,,,,,,,,,,,,,,,,,,,,,,,,,,,,,,,,,,,,,,
,,,,,V3_054,19,F,2024-11-07_16h23.18.011,jersey_experiment_5_v3,2023.2.2,Win32,85.47008547,,,,,,3.2833,4.2774,return,0.9599,,,,,,,,,,,,,,,,,,,,,,,,,,,,,,,,,,,,,,,,,,,,,,,,,,,,,,,,,,,,,,,,,,,,,
,,,,,V3_054,19,F,2024-11-07_16h23.18.011,jersey_experiment_5_v3,2023.2.2,Win32,85.47008547,,,,,,,,,,,4.2774,4.7008,return,0.4176,,,,,,,,,,,,,,,,,,,,,,,,,,,,,,,,,,,,,,,,,,,,,,,,,,,,,,,,,,,,,,,,
,,,,,V3_054,19,F,2024-11-07_16h23.18.011,jersey_experiment_5_v3,2023.2.2,Win32,85.47008547,,,,,,,,,,,,,,,,4.7023,6.2539,6.254,19.5839,return,3.9186,,74.73958333,0,0,0,23,1,FBP-PT-18.png,0.43,1.2,24,0.75,,,,,,,,,,,,,,,,,,,,,,,,,,,,,,,,,,,,,,,,,,,,,
,,,,,V3_054,19,F,2024-11-07_16h23.18.011,jersey_experiment_5_v3,2023.2.2,Win32,85.47008547,,,,,,,,,,,,,,,,19.5842,21.1369,21.1369,24.0193,return,0.698,,99.47916667,0,1,1,3,1,FBP-YG-71.png,0.43,1.2,4,0.75,,,,,,,,,,,,,,,,,,,,,,,,,,,,,,,,,,,,,,,,,,,,,
,,,,,V3_054,19,F,2024-11-07_16h23.18.011,jersey_experiment_5_v3,2023.2.2,Win32,85.47008547,,,,,,,,,,,,,,,,24.0196,25.3134,25.3135,28.1253,return,1.4185,,49.47916667,0,2,2,40,1,FBP-OG-19.png,0.35,1.2,41,0.5,,,,,,,,,,,,,,,,,,,,,,,,,,,,,,,,,,,,,,,,,,,,,
,,,,,V3_054,19,F,2024-11-07_16h23.18.011,jersey_experiment_5_v3,2023.2.2,Win32,85.47008547,,,,,,,,,,,,,,,,28.1255,29.6782,29.6783,31.4901,return,0.5773,,99.47916667,0,3,3,8,1,FBP-YG-81.png,0.43,1.2,9,0.75,,,,,,,,,,,,,,,,,,,,,,,,,,,,,,,,,,,,,,,,,,,,,
,,,,,V3_054,19,F,2024-11-07_16h23.18.011,jersey_experiment_5_v3,2023.2.2,Win32,85.47008547,,,,,,,,,,,,,,,,31.4906,33.0431,33.0433,34.8784,return,0.8857,,49.08854167,0,4,4,25,1,FBP-PT-19.png,0.35,1.2,26,0.75,,,,,,,,,,,,,,,,,,,,,,,,,,,,,,,,,,,,,,,,,,,,,
,,,,,V3_054,19,F,2024-11-07_16h23.18.011,jersey_experiment_5_v3,2023.2.2,Win32,85.47008547,,,,,,,,,,,,,,,,34.8787,36.4316,36.4317,41.4082,return,2.3221,,79.42708333,0,5,5,1,1,FBP-YG-71.png,0.37,1.2,2,0.75,,,,,,,,,,,,,,,,,,,,,,,,,,,,,,,,,,,,,,,,,,,,,
,,,,,V3_054,19,F,2024-11-07_16h23.18.011,jersey_experiment_5_v3,2023.2.2,Win32,85.47008547,,,,,,,,,,,,,,,,41.4084,42.7023,42.7023,45.3965,return,1.1062,,94.79166667,0,6,6,44,1,FBP-OG-19.png,0.45,1.2,45,0.5,,,,,,,,,,,,,,,,,,,,,,,,,,,,,,,,,,,,,,,,,,,,,
,,,,,V3_054,19,F,2024-11-07_16h23.18.011,jersey_experiment_5_v3,2023.2.2,Win32,85.47008547,,,,,,,,,,,,,,,,45.3968,46.9497,46.9498,49.8436,return,0.9886,,29.55729167,0,7,7,20,1,FBP-PT-18.png,0.35,1.2,21,0.75,,,,,,,,,,,,,,,,,,,,,,,,,,,,,,,,,,,,,,,,,,,,,
,,,,,V3_054,19,F,2024-11-07_16h23.18.011,jersey_experiment_5_v3,2023.2.2,Win32,85.47008547,,,,,,,,,,,,,,,,49.844,51.138,51.138,53.9027,return,0.6289,,77.21354167,0,8,8,38,1,FBP-OG-18.png,0.43,1.2,39,0.5,,,,,,,,,,,,,,,,,,,,,,,,,,,,,,,,,,,,,,,,,,,,,
,,,,,V3_054,19,F,2024-11-07_16h23.18.011,jersey_experiment_5_v3,2023.2.2,Win32,85.47008547,,,,,,,,,,,,,,,,53.9029,55.4557,55.4558,57.6322,return,0.7565,,27.99479167,0,9,9,0,1,FBP-YG-71.png,0.35,1.2,1,0.75,,,,,,,,,,,,,,,,,,,,,,,,,,,,,,,,,,,,,,,,,,,,,
,,,,,V3_054,19,F,2024-11-07_16h23.18.011,jersey_experiment_5_v3,2023.2.2,Win32,85.47008547,,,,,,,,,,,,,,,,57.6326,59.1854,59.1854,60.9028,return,0.5886,,83.46354167,0,10,10,29,1,FBP-PT-19.png,0.45,1.2,30,0.75,,,,,,,,,,,,,,,,,,,,,,,,,,,,,,,,,,,,,,,,,,,,,
,,,,,V3_054,19,F,2024-11-07_16h23.18.011,jersey_experiment_5_v3,2023.2.2,Win32,85.47008547,,,,,,,,,,,,,,,,60.903,62.4443,62.4444,64.9149,return,0.6097,,32.68229167,0,11,11,51,1,FBP-RB-18.png,0.37,1.2,52,0.75,,,,,,,,,,,,,,,,,,,,,,,,,,,,,,,,,,,,,,,,,,,,,
,,,,,V3_054,19,F,2024-11-07_16h23.18.011,jersey_experiment_5_v3,2023.2.2,Win32,85.47008547,,,,,,,,,,,,,,,,64.9152,66.4679,66.468,70.1622,return,0.6019,,53.125,0,12,12,16,1,FBP-PT-17.png,0.37,1.2,17,0.75,,,,,,,,,,,,,,,,,,,,,,,,,,,,,,,,,,,,,,,,,,,,,
,,,,,V3_054,19,F,2024-11-07_16h23.18.011,jersey_experiment_5_v3,2023.2.2,Win32,85.47008547,,,,,,,,,,,,,,,,70.1625,71.4565,71.4565,74.5622,return,0.533,,59.11458333,0,13,13,31,1,FBP-OG-17.png,0.37,1.2,32,0.5,,,,,,,,,,,,,,,,,,,,,,,,,,,,,,,,,,,,,,,,,,,,,
,,,,,V3_054,19,F,2024-11-07_16h23.18.011,jersey_experiment_5_v3,2023.2.2,Win32,85.47008547,,,,,,,,,,,,,,,,74.5625,76.1153,76.1154,77.7742,return,0.6512,,97.39583333,0,14,14,49,1,FBP-RB-17.png,0.45,1.2,50,0.75,,,,,,,,,,,,,,,,,,,,,,,,,,,,,,,,,,,,,,,,,,,,,
,,,,,V3_054,19,F,2024-11-07_16h23.18.011,jersey_experiment_5_v3,2023.2.2,Win32,85.47008547,,,,,,,,,,,,,,,,77.7745,79.0683,79.0683,81.4684,return,0.6193,,79.16666667,0,15,15,32,1,FBP-OG-17.png,0.4,1.2,33,0.5,,,,,,,,,,,,,,,,,,,,,,,,,,,,,,,,,,,,,,,,,,,,,
,,,,,V3_054,19,F,2024-11-07_16h23.18.011,jersey_experiment_5_v3,2023.2.2,Win32,85.47008547,,,,,,,,,,,,,,,,81.4687,83.0216,83.0216,85.3746,return,0.557,,49.609375,0,16,16,21,1,FBP-PT-18.png,0.37,1.2,22,0.75,,,,,,,,,,,,,,,,,,,,,,,,,,,,,,,,,,,,,,,,,,,,,
,,,,,V3_054,19,F,2024-11-07_16h23.18.011,jersey_experiment_5_v3,2023.2.2,Win32,85.47008547,,,,,,,,,,,,,,,,85.3749,86.9275,86.9275,89.151,return,0.604,,85.02604167,0,17,17,13,1,FBP-YG-91.png,0.43,1.2,14,0.75,,,,,,,,,,,,,,,,,,,,,,,,,,,,,,,,,,,,,,,,,,,,,
,,,,,V3_054,19,F,2024-11-07_16h23.18.011,jersey_experiment_5_v3,2023.2.2,Win32,85.47008547,,,,,,,,,,,,,,,,89.1512,90.7041,90.7042,92.61,return,0.6593,,98.17708333,0,18,18,24,1,FBP-PT-18.png,0.45,1.2,25,0.75,,,,,,,,,,,,,,,,,,,,,,,,,,,,,,,,,,,,,,,,,,,,,
,,,,,V3_054,19,F,2024-11-07_16h23.18.011,jersey_experiment_5_v3,2023.2.2,Win32,85.47008547,,,,,,,,,,,,,,,,92.6103,93.9043,93.9043,95.8925,return,0.5656,,81.25,0,19,19,43,1,FBP-OG-19.png,0.43,1.2,44,0.5,,,,,,,,,,,,,,,,,,,,,,,,,,,,,,,,,,,,,,,,,,,,,
,,,,,V3_054,19,F,2024-11-07_16h23.18.011,jersey_experiment_5_v3,2023.2.2,Win32,85.47008547,,,,,,,,,,,,,,,,95.8927,97.4457,97.4457,99.2692,return,0.6572,,91.27604167,0,20,20,18,1,FBP-PT-17.png,0.43,1.2,19,0.75,,,,,,,,,,,,,,,,,,,,,,,,,,,,,,,,,,,,,,,,,,,,,
,,,,,V3_054,19,F,2024-11-07_16h23.18.011,jersey_experiment_5_v3,2023.2.2,Win32,85.47008547,,,,,,,,,,,,,,,,99.2694,100.8221,100.8221,102.5281,return,0.5558,,34.63541667,0,21,21,6,1,FBP-YG-81.png,0.37,1.2,7,0.75,,,,,,,,,,,,,,,,,,,,,,,,,,,,,,,,,,,,,,,,,,,,,
,,,,,V3_054,19,F,2024-11-07_16h23.18.011,jersey_experiment_5_v3,2023.2.2,Win32,85.47008547,,,,,,,,,,,,,,,,102.5283,103.8223,103.8223,105.4928,return,0.5275,,97.13541667,0,22,22,34,1,FBP-OG-17.png,0.45,1.2,35,0.5,,,,,,,,,,,,,,,,,,,,,,,,,,,,,,,,,,,,,,,,,,,,,
,,,,,V3_054,19,F,2024-11-07_16h23.18.011,jersey_experiment_5_v3,2023.2.2,Win32,85.47008547,,,,,,,,,,,,,,,,105.4932,107.046,107.0461,108.5635,return,0.5861,,97.65625,0,23,23,59,1,FBP-RB-19.png,0.45,1.2,60,0.75,,,,,,,,,,,,,,,,,,,,,,,,,,,,,,,,,,,,,,,,,,,,,
,,,,,V3_054,19,F,2024-11-07_16h23.18.011,jersey_experiment_5_v3,2023.2.2,Win32,85.47008547,,,,,,,,,,,,,,,,108.5637,109.8578,109.8579,112.1879,return,0.5615,,32.68229167,0,24,24,41,1,FBP-OG-19.png,0.37,1.2,42,0.5,,,,,,,,,,,,,,,,,,,,,,,,,,,,,,,,,,,,,,,,,,,,,
,,,,,V3_054,19,F,2024-11-07_16h23.18.011,jersey_experiment_5_v3,2023.2.2,Win32,85.47008547,,,,,,,,,,,,,,,,112.1882,113.7403,113.7403,116.5404,return,0.548,,56.38020833,0,25,25,17,1,FBP-PT-17.png,0.4,1.2,18,0.75,,,,,,,,,,,,,,,,,,,,,,,,,,,,,,,,,,,,,,,,,,,,,
,,,,,V3_054,19,F,2024-11-07_16h23.18.011,jersey_experiment_5_v3,2023.2.2,Win32,85.47008547,,,,,,,,,,,,,,,,116.5406,118.0934,118.0934,120.1874,return,0.5933,,19.66145833,0,26,26,56,1,FBP-RB-19.png,0.37,1.2,57,0.75,,,,,,,,,,,,,,,,,,,,,,,,,,,,,,,,,,,,,,,,,,,,,
,,,,,V3_054,19,F,2024-11-07_16h23.18.011,jersey_experiment_5_v3,2023.2.2,Win32,85.47008547,,,,,,,,,,,,,,,,120.1877,121.7406,121.7407,123.2346,return,0.5525,,92.44791667,0,27,27,19,1,FBP-PT-17.png,0.45,1.2,20,0.75,,,,,,,,,,,,,,,,,,,,,,,,,,,,,,,,,,,,,,,,,,,,,
,,,,,V3_054,19,F,2024-11-07_16h23.18.011,jersey_experiment_5_v3,2023.2.2,Win32,85.47008547,,,,,,,,,,,,,,,,123.2349,124.5289,124.529,126.3642,return,0.6045,,48.69791667,0,28,28,36,1,FBP-OG-18.png,0.37,1.2,37,0.5,,,,,,,,,,,,,,,,,,,,,,,,,,,,,,,,,,,,,,,,,,,,,
,,,,,V3_054,19,F,2024-11-07_16h23.18.011,jersey_experiment_5_v3,2023.2.2,Win32,85.47008547,,,,,,,,,,,,,,,,126.3644,127.9173,127.9173,129.3408,return,0.5477,,85.546875,0,29,29,4,1,FBP-YG-71.png,0.45,1.2,5,0.75,,,,,,,,,,,,,,,,,,,,,,,,,,,,,,,,,,,,,,,,,,,,,
,,,,,V3_054,19,F,2024-11-07_16h23.18.011,jersey_experiment_5_v3,2023.2.2,Win32,85.47008547,,,,,,,,,,,,,,,,129.341,130.8938,130.8938,133.141,return,0.575,,67.44791667,0,30,30,57,1,FBP-RB-19.png,0.4,1.2,58,0.75,,,,,,,,,,,,,,,,,,,,,,,,,,,,,,,,,,,,,,,,,,,,,
,,,,,V3_054,19,F,2024-11-07_16h23.18.011,jersey_experiment_5_v3,2023.2.2,Win32,85.47008547,,,,,,,,,,,,,,,,133.1412,134.6938,134.6938,136.5646,return,0.5329,,94.921875,0,31,31,54,1,FBP-RB-18.png,0.45,1.2,55,0.75,,,,,,,,,,,,,,,,,,,,,,,,,,,,,,,,,,,,,,,,,,,,,
,,,,,V3_054,19,F,2024-11-07_16h23.18.011,jersey_experiment_5_v3,2023.2.2,Win32,85.47008547,,,,,,,,,,,,,,,,136.5649,138.1178,138.1178,140.3647,return,0.5248,,57.03125,0,32,32,12,1,FBP-YG-91.png,0.4,1.2,13,0.75,,,,,,,,,,,,,,,,,,,,,,,,,,,,,,,,,,,,,,,,,,,,,
,,,,,V3_054,19,F,2024-11-07_16h23.18.011,jersey_experiment_5_v3,2023.2.2,Win32,85.47008547,,,,,,,,,,,,,,,,140.3649,141.6589,141.659,143.2001,return,0.5571,,86.06770833,0,33,33,39,1,FBP-OG-18.png,0.45,1.2,40,0.5,,,,,,,,,,,,,,,,,,,,,,,,,,,,,,,,,,,,,,,,,,,,,
,,,,,V3_054,19,F,2024-11-07_16h23.18.011,jersey_experiment_5_v3,2023.2.2,Win32,85.47008547,,,,,,,,,,,,,,,,143.2003,144.7533,144.7533,147.1532,return,0.6031,,44.921875,0,34,34,11,1,FBP-YG-91.png,0.37,1.2,12,0.75,,,,,,,,,,,,,,,,,,,,,,,,,,,,,,,,,,,,,,,,,,,,,
,,,,,V3_054,19,F,2024-11-07_16h23.18.011,jersey_experiment_5_v3,2023.2.2,Win32,85.47008547,,,,,,,,,,,,,,,,147.1534,148.7062,148.7062,152.0828,return,0.575,,65.234375,0,35,35,47,1,FBP-RB-17.png,0.4,1.2,48,0.75,,,,,,,,,,,,,,,,,,,,,,,,,,,,,,,,,,,,,,,,,,,,,
,,,,,V3_054,19,F,2024-11-07_16h23.18.011,jersey_experiment_5_v3,2023.2.2,Win32,85.47008547,,,,,,,,,,,,,,,,152.0832,153.6359,153.636,155.9652,return,0.6294,,17.578125,0,36,36,55,1,FBP-RB-19.png,0.35,1.2,56,0.75,,,,,,,,,,,,,,,,,,,,,,,,,,,,,,,,,,,,,,,,,,,,,
,,,,,V3_054,19,F,2024-11-07_16h23.18.011,jersey_experiment_5_v3,2023.2.2,Win32,85.47008547,,,,,,,,,,,,,,,,155.9654,157.5068,157.5068,159.6595,return,0.6907,,3.125,0,37,37,15,1,FBP-PT-17.png,0.35,1.2,16,0.75,,,,,,,,,,,,,,,,,,,,,,,,,,,,,,,,,,,,,,,,,,,,,
,,,,,V3_054,19,F,2024-11-07_16h23.18.011,jersey_experiment_5_v3,2023.2.2,Win32,85.47008547,,,,,,,,,,,,,,,,159.6597,160.9538,160.9538,163.5891,return,1.4937,,5.989583333,0,38,38,35,1,FBP-OG-18.png,0.35,1.2,36,0.5,,,,,,,,,,,,,,,,,,,,,,,,,,,,,,,,,,,,,,,,,,,,,
,,,,,V3_054,19,F,2024-11-07_16h23.18.011,jersey_experiment_5_v3,2023.2.2,Win32,85.47008547,,,,,,,,,,,,,,,,163.5894,165.1422,165.1423,168.3658,return,0.6999,,99.34895833,0,39,39,9,1,FBP-YG-81.png,0.45,1.2,10,0.75,,,,,,,,,,,,,,,,,,,,,,,,,,,,,,,,,,,,,,,,,,,,,
,,,,,V3_054,19,F,2024-11-07_16h23.18.011,jersey_experiment_5_v3,2023.2.2,Win32,85.47008547,,,,,,,,,,,,,,,,168.3661,169.66,169.66,171.507,return,0.6832,,81.11979167,0,40,40,42,1,FBP-OG-19.png,0.4,1.2,43,0.5,,,,,,,,,,,,,,,,,,,,,,,,,,,,,,,,,,,,,,,,,,,,,
,,,,,V3_054,19,F,2024-11-07_16h23.18.011,jersey_experiment_5_v3,2023.2.2,Win32,85.47008547,,,,,,,,,,,,,,,,171.5073,172.8012,172.8012,175.4366,return,0.7725,,17.96875,0,41,41,30,1,FBP-OG-17.png,0.35,1.2,31,0.5,,,,,,,,,,,,,,,,,,,,,,,,,,,,,,,,,,,,,,,,,,,,,
,,,,,V3_054,19,F,2024-11-07_16h23.18.011,jersey_experiment_5_v3,2023.2.2,Win32,85.47008547,,,,,,,,,,,,,,,,175.4368,176.9895,176.9895,179.2837,return,0.763,,90.625,0,42,42,7,1,FBP-YG-81.png,0.4,1.2,8,0.75,,,,,,,,,,,,,,,,,,,,,,,,,,,,,,,,,,,,,,,,,,,,,
,,,,,V3_054,19,F,2024-11-07_16h23.18.011,jersey_experiment_5_v3,2023.2.2,Win32,85.47008547,,,,,,,,,,,,,,,,179.284,180.8369,180.8369,182.4486,return,0.5326,,95.96354167,0,43,43,58,1,FBP-RB-19.png,0.43,1.2,59,0.75,,,,,,,,,,,,,,,,,,,,,,,,,,,,,,,,,,,,,,,,,,,,,
,,,,,V3_054,19,F,2024-11-07_16h23.18.011,jersey_experiment_5_v3,2023.2.2,Win32,85.47008547,,,,,,,,,,,,,,,,182.449,184.0018,184.0018,185.8252,return,0.5542,,94.53125,0,44,44,53,1,FBP-RB-18.png,0.43,1.2,54,0.75,,,,,,,,,,,,,,,,,,,,,,,,,,,,,,,,,,,,,,,,,,,,,
,,,,,V3_054,19,F,2024-11-07_16h23.18.011,jersey_experiment_5_v3,2023.2.2,Win32,85.47008547,,,,,,,,,,,,,,,,185.8255,187.3784,187.3784,188.9899,return,0.6297,,95.703125,0,45,45,48,1,FBP-RB-17.png,0.43,1.2,49,0.75,,,,,,,,,,,,,,,,,,,,,,,,,,,,,,,,,,,,,,,,,,,,,
,,,,,V3_054,19,F,2024-11-07_16h23.18.011,jersey_experiment_5_v3,2023.2.2,Win32,85.47008547,,,,,,,,,,,,,,,,188.9902,190.2843,190.2844,192.0019,return,0.531,,96.09375,0,46,46,33,1,FBP-OG-17.png,0.43,1.2,34,0.5,,,,,,,,,,,,,,,,,,,,,,,,,,,,,,,,,,,,,,,,,,,,,
,,,,,V3_054,19,F,2024-11-07_16h23.18.011,jersey_experiment_5_v3,2023.2.2,Win32,85.47008547,,,,,,,,,,,,,,,,192.0021,193.296,193.2961,196.0373,return,0.6354,,77.47395833,0,47,47,37,1,FBP-OG-18.png,0.4,1.2,38,0.5,,,,,,,,,,,,,,,,,,,,,,,,,,,,,,,,,,,,,,,,,,,,,
,,,,,V3_054,19,F,2024-11-07_16h23.18.011,jersey_experiment_5_v3,2023.2.2,Win32,85.47008547,,,,,,,,,,,,,,,,196.0377,197.5905,197.5906,200.7905,return,0.5528,,42.578125,0,48,48,46,1,FBP-RB-17.png,0.37,1.2,47,0.75,,,,,,,,,,,,,,,,,,,,,,,,,,,,,,,,,,,,,,,,,,,,,
,,,,,V3_054,19,F,2024-11-07_16h23.18.011,jersey_experiment_5_v3,2023.2.2,Win32,85.47008547,,,,,,,,,,,,,,,,200.7907,202.3435,202.3436,204.2258,return,0.5985,,57.94270833,0,49,49,27,1,FBP-PT-19.png,0.4,1.2,28,0.75,,,,,,,,,,,,,,,,,,,,,,,,,,,,,,,,,,,,,,,,,,,,,
,,,,,V3_054,19,F,2024-11-07_16h23.18.011,jersey_experiment_5_v3,2023.2.2,Win32,85.47008547,,,,,,,,,,,,,,,,204.226,205.7789,205.7789,207.3906,return,0.652,,14.84375,0,50,50,10,1,FBP-YG-91.png,0.35,1.2,11,0.75,,,,,,,,,,,,,,,,,,,,,,,,,,,,,,,,,,,,,,,,,,,,,
,,,,,V3_054,19,F,2024-11-07_16h23.18.011,jersey_experiment_5_v3,2023.2.2,Win32,85.47008547,,,,,,,,,,,,,,,,207.3909,208.9438,208.9438,210.9084,return,0.643,,5.46875,0,51,51,5,1,FBP-YG-81.png,0.35,1.2,6,0.75,,,,,,,,,,,,,,,,,,,,,,,,,,,,,,,,,,,,,,,,,,,,,
,,,,,V3_054,19,F,2024-11-07_16h23.18.011,jersey_experiment_5_v3,2023.2.2,Win32,85.47008547,,,,,,,,,,,,,,,,210.9087,212.4616,212.4616,214.6614,return,0.9185,,0.78125,0,52,52,45,1,FBP-RB-17.png,0.35,1.2,46,0.75,,,,,,,,,,,,,,,,,,,,,,,,,,,,,,,,,,,,,,,,,,,,,
,,,,,V3_054,19,F,2024-11-07_16h23.18.011,jersey_experiment_5_v3,2023.2.2,Win32,85.47008547,,,,,,,,,,,,,,,,214.6616,216.2147,216.2148,217.7087,return,0.6057,,99.86979167,0,53,53,14,1,FBP-YG-91.png,0.45,1.2,15,0.75,,,,,,,,,,,,,,,,,,,,,,,,,,,,,,,,,,,,,,,,,,,,,
,,,,,V3_054,19,F,2024-11-07_16h23.18.011,jersey_experiment_5_v3,2023.2.2,Win32,85.47008547,,,,,,,,,,,,,,,,217.7089,219.2618,219.2618,222.956,return,0.6905,,43.61979167,0,54,54,26,1,FBP-PT-19.png,0.37,1.2,27,0.75,,,,,,,,,,,,,,,,,,,,,,,,,,,,,,,,,,,,,,,,,,,,,
,,,,,V3_054,19,F,2024-11-07_16h23.18.011,jersey_experiment_5_v3,2023.2.2,Win32,85.47008547,,,,,,,,,,,,,,,,222.9562,224.5091,224.5092,226.2856,return,0.5934,,15.10416667,0,55,55,50,1,FBP-RB-18.png,0.35,1.2,51,0.75,,,,,,,,,,,,,,,,,,,,,,,,,,,,,,,,,,,,,,,,,,,,,
,,,,,V3_054,19,F,2024-11-07_16h23.18.011,jersey_experiment_5_v3,2023.2.2,Win32,85.47008547,,,,,,,,,,,,,,,,226.2858,227.8386,227.8387,229.8857,return,0.6634,,69.40104167,0,56,56,52,1,FBP-RB-18.png,0.4,1.2,53,0.75,,,,,,,,,,,,,,,,,,,,,,,,,,,,,,,,,,,,,,,,,,,,,
,,,,,V3_054,19,F,2024-11-07_16h23.18.011,jersey_experiment_5_v3,2023.2.2,Win32,85.47008547,,,,,,,,,,,,,,,,229.8859,231.4388,231.4388,233.027,return,0.5886,,82.421875,0,57,57,2,1,FBP-YG-71.png,0.4,1.2,3,0.75,,,,,,,,,,,,,,,,,,,,,,,,,,,,,,,,,,,,,,,,,,,,,
,,,,,V3_054,19,F,2024-11-07_16h23.18.011,jersey_experiment_5_v3,2023.2.2,Win32,85.47008547,,,,,,,,,,,,,,,,233.0272,234.58,234.5801,236.733,return,0.6642,,95.3125,0,58,58,28,1,FBP-PT-19.png,0.43,1.2,29,0.75,,,,,,,,,,,,,,,,,,,,,,,,,,,,,,,,,,,,,,,,,,,,,
,,,,,V3_054,19,F,2024-11-07_16h23.18.011,jersey_experiment_5_v3,2023.2.2,Win32,85.47008547,,,,,,,,,,,,,,,,236.7332,238.286,238.286,239.6508,return,0.5871,,90.10416667,0,59,59,22,1,FBP-PT-18.png,0.4,1.2,23,0.75,,,,,,,,,,,,,,,,,,,,,,,,,,,,,,,,,,,,,,,,,,,,,
,,,,,V3_054,19,F,2024-11-07_16h23.18.011,jersey_experiment_5_v3,2023.2.2,Win32,85.47008547,,,,,,,,,,,,,,,,239.6522,240.945,240.945,242.4978,return,0.5907,,97.39583333,,,,,,FBP-OG-91.png,0.43,1.2,44,0.5,0,0,0,43,1,,,,,,,,,,,,,,,,,,,,,,,,,,,,,,,,,,,,,,,,
,,,,,V3_054,19,F,2024-11-07_16h23.18.011,jersey_experiment_5_v3,2023.2.2,Win32,85.47008547,,,,,,,,,,,,,,,,242.4982,244.0509,244.0511,245.7803,return,0.6692,,4.296875,,,,,,FBP-PT-81.png,0.35,1.2,21,0.75,0,1,1,20,1,,,,,,,,,,,,,,,,,,,,,,,,,,,,,,,,,,,,,,,,
,,,,,V3_054,19,F,2024-11-07_16h23.18.011,jersey_experiment_5_v3,2023.2.2,Win32,85.47008547,,,,,,,,,,,,,,,,245.7807,247.3335,247.3335,250.0275,return,0.6554,,99.21875,,,,,,FBP-YG-17.png,0.45,1.2,5,0.75,0,2,2,4,1,,,,,,,,,,,,,,,,,,,,,,,,,,,,,,,,,,,,,,,,
,,,,,V3_054,19,F,2024-11-07_16h23.18.011,jersey_experiment_5_v3,2023.2.2,Win32,85.47008547,,,,,,,,,,,,,,,,250.0277,251.3217,251.3218,253.9572,return,0.6591,,1.171875,,,,,,FBP-OG-71.png,0.35,1.2,31,0.5,0,3,3,30,1,,,,,,,,,,,,,,,,,,,,,,,,,,,,,,,,,,,,,,,,
,,,,,V3_054,19,F,2024-11-07_16h23.18.011,jersey_experiment_5_v3,2023.2.2,Win32,85.47008547,,,,,,,,,,,,,,,,253.9574,255.5102,255.5103,260.3338,return,0.616,,95.703125,,,,,,FBP-YG-19.png,0.45,1.2,15,0.75,0,4,4,14,1,,,,,,,,,,,,,,,,,,,,,,,,,,,,,,,,,,,,,,,,
,,,,,V3_054,19,F,2024-11-07_16h23.18.011,jersey_experiment_5_v3,2023.2.2,Win32,85.47008547,,,,,,,,,,,,,,,,260.3341,261.8871,261.8871,263.5575,return,0.5873,,99.21875,,,,,,FBP-YG-18.png,0.45,1.2,10,0.75,0,5,5,9,1,,,,,,,,,,,,,,,,,,,,,,,,,,,,,,,,,,,,,,,,
,,,,,V3_054,19,F,2024-11-07_16h23.18.011,jersey_experiment_5_v3,2023.2.2,Win32,85.47008547,,,,,,,,,,,,,,,,263.5579,265.1106,265.1107,268.2401,return,0.6113,,65.36458333,,,,,,FBP-PT-81.png,0.4,1.2,23,0.75,0,6,6,22,1,,,,,,,,,,,,,,,,,,,,,,,,,,,,,,,,,,,,,,,,
,,,,,V3_054,19,F,2024-11-07_16h23.18.011,jersey_experiment_5_v3,2023.2.2,Win32,85.47008547,,,,,,,,,,,,,,,,268.2404,269.7932,269.7932,271.5814,return,0.6649,,28.125,,,,,,FBP-YG-18.png,0.37,1.2,7,0.75,0,7,7,6,1,,,,,,,,,,,,,,,,,,,,,,,,,,,,,,,,,,,,,,,,
,,,,,V3_054,19,F,2024-11-07_16h23.18.011,jersey_experiment_5_v3,2023.2.2,Win32,85.47008547,,,,,,,,,,,,,,,,271.5816,273.1345,273.1346,276.0051,return,0.613,,71.09375,,,,,,FBP-YG-19.png,0.4,1.2,13,0.75,0,8,8,12,1,,,,,,,,,,,,,,,,,,,,,,,,,,,,,,,,,,,,,,,,
,,,,,V3_054,19,F,2024-11-07_16h23.18.011,jersey_experiment_5_v3,2023.2.2,Win32,85.47008547,,,,,,,,,,,,,,,,276.0054,277.558,277.5581,279.3815,return,0.6354,,42.1875,,,,,,FBP-YG-18.png,0.4,1.2,8,0.75,0,9,9,7,1,,,,,,,,,,,,,,,,,,,,,,,,,,,,,,,,,,,,,,,,
,,,,,V3_054,19,F,2024-11-07_16h23.18.011,jersey_experiment_5_v3,2023.2.2,Win32,85.47008547,,,,,,,,,,,,,,,,279.3819,280.9345,280.9346,282.9582,return,0.6513,,76.69270833,,,,,,FBP-PT-71.png,0.4,1.2,18,0.75,0,10,10,17,1,,,,,,,,,,,,,,,,,,,,,,,,,,,,,,,,,,,,,,,,
,,,,,V3_054,19,F,2024-11-07_16h23.18.011,jersey_experiment_5_v3,2023.2.2,Win32,85.47008547,,,,,,,,,,,,,,,,282.9585,284.5111,284.5111,286.2878,return,0.6511,,89.97395833,,,,,,FBP-YG-19.png,0.43,1.2,14,0.75,0,11,11,13,1,,,,,,,,,,,,,,,,,,,,,,,,,,,,,,,,,,,,,,,,
,,,,,V3_054,19,F,2024-11-07_16h23.18.011,jersey_experiment_5_v3,2023.2.2,Win32,85.47008547,,,,,,,,,,,,,,,,286.2881,287.8409,287.8409,289.6643,return,0.6264,,96.74479167,,,,,,FBP-PT-91.png,0.45,1.2,30,0.75,0,12,12,29,1,,,,,,,,,,,,,,,,,,,,,,,,,,,,,,,,,,,,,,,,
,,,,,V3_054,19,F,2024-11-07_16h23.18.011,jersey_experiment_5_v3,2023.2.2,Win32,85.47008547,,,,,,,,,,,,,,,,289.6645,291.2173,291.2173,292.8645,return,0.6263,,86.97916667,,,,,,FBP-PT-91.png,0.43,1.2,29,0.75,0,13,13,28,1,,,,,,,,,,,,,,,,,,,,,,,,,,,,,,,,,,,,,,,,
,,,,,V3_054,19,F,2024-11-07_16h23.18.011,jersey_experiment_5_v3,2023.2.2,Win32,85.47008547,,,,,,,,,,,,,,,,292.8648,294.4176,294.4176,296.594,return,0.6591,,55.98958333,,,,,,FBP-RB-91.png,0.4,1.2,58,0.75,0,14,14,57,1,,,,,,,,,,,,,,,,,,,,,,,,,,,,,,,,,,,,,,,,
,,,,,V3_054,19,F,2024-11-07_16h23.18.011,jersey_experiment_5_v3,2023.2.2,Win32,85.47008547,,,,,,,,,,,,,,,,296.5942,298.147,298.147,300.1235,return,0.7259,,25.78125,,,,,,FBP-PT-91.png,0.35,1.2,26,0.75,0,15,15,25,1,,,,,,,,,,,,,,,,,,,,,,,,,,,,,,,,,,,,,,,,
,,,,,V3_054,19,F,2024-11-07_16h23.18.011,jersey_experiment_5_v3,2023.2.2,Win32,85.47008547,,,,,,,,,,,,,,,,300.1237,301.6767,301.6767,303.3589,return,0.6639,,24.34895833,,,,,,FBP-RB-81.png,0.37,1.2,52,0.75,0,16,16,51,1,,,,,,,,,,,,,,,,,,,,,,,,,,,,,,,,,,,,,,,,
,,,,,V3_054,19,F,2024-11-07_16h23.18.011,jersey_experiment_5_v3,2023.2.2,Win32,85.47008547,,,,,,,,,,,,,,,,303.3593,304.9121,304.9121,306.9002,return,0.6357,,9.635416667,,,,,,FBP-YG-18.png,0.35,1.2,6,0.75,0,17,17,5,1,,,,,,,,,,,,,,,,,,,,,,,,,,,,,,,,,,,,,,,,
,,,,,V3_054,19,F,2024-11-07_16h23.18.011,jersey_experiment_5_v3,2023.2.2,Win32,85.47008547,,,,,,,,,,,,,,,,306.9005,308.4533,308.4534,310.2887,return,0.614,,6.119791667,,,,,,FBP-PT-71.png,0.35,1.2,16,0.75,0,18,18,15,1,,,,,,,,,,,,,,,,,,,,,,,,,,,,,,,,,,,,,,,,
,,,,,V3_054,19,F,2024-11-07_16h23.18.011,jersey_experiment_5_v3,2023.2.2,Win32,85.47008547,,,,,,,,,,,,,,,,310.2889,311.8417,311.8417,313.7006,return,0.8134,,89.0625,,,,,,FBP-RB-71.png,0.45,1.2,50,0.75,0,19,19,49,1,,,,,,,,,,,,,,,,,,,,,,,,,,,,,,,,,,,,,,,,
,,,,,V3_054,19,F,2024-11-07_16h23.18.011,jersey_experiment_5_v3,2023.2.2,Win32,85.47008547,,,,,,,,,,,,,,,,313.7009,315.2538,315.2538,317.8066,return,0.7107,,59.11458333,,,,,,FBP-RB-81.png,0.4,1.2,53,0.75,0,20,20,52,1,,,,,,,,,,,,,,,,,,,,,,,,,,,,,,,,,,,,,,,,
,,,,,V3_054,19,F,2024-11-07_16h23.18.011,jersey_experiment_5_v3,2023.2.2,Win32,85.47008547,,,,,,,,,,,,,,,,317.8069,319.3597,319.3597,321.3244,return,0.6311,,45.3125,,,,,,FBP-PT-91.png,0.37,1.2,27,0.75,0,21,21,26,1,,,,,,,,,,,,,,,,,,,,,,,,,,,,,,,,,,,,,,,,
,,,,,V3_054,19,F,2024-11-07_16h23.18.011,jersey_experiment_5_v3,2023.2.2,Win32,85.47008547,,,,,,,,,,,,,,,,321.3247,322.8774,322.8775,324.4303,return,0.6526,,38.28125,,,,,,FBP-PT-71.png,0.37,1.2,17,0.75,0,22,22,16,1,,,,,,,,,,,,,,,,,,,,,,,,,,,,,,,,,,,,,,,,
,,,,,V3_054,19,F,2024-11-07_16h23.18.011,jersey_experiment_5_v3,2023.2.2,Win32,85.47008547,,,,,,,,,,,,,,,,324.4305,325.9835,325.9835,330.207,return,0.7109,,47.65625,,,,,,FBP-RB-71.png,0.4,1.2,48,0.75,0,23,23,47,1,,,,,,,,,,,,,,,,,,,,,,,,,,,,,,,,,,,,,,,,
,,,,,V3_054,19,F,2024-11-07_16h23.18.011,jersey_experiment_5_v3,2023.2.2,Win32,85.47008547,,,,,,,,,,,,,,,,330.2074,331.5013,331.5013,333.2542,return,0.5876,,91.66666667,,,,,,FBP-OG-71.png,0.43,1.2,34,0.5,0,24,24,33,1,,,,,,,,,,,,,,,,,,,,,,,,,,,,,,,,,,,,,,,,
,,,,,V3_054,19,F,2024-11-07_16h23.18.011,jersey_experiment_5_v3,2023.2.2,Win32,85.47008547,,,,,,,,,,,,,,,,333.2545,334.8074,334.8075,336.4778,return,0.5928,,83.85416667,,,,,,FBP-YG-18.png,0.43,1.2,9,0.75,0,25,25,8,1,,,,,,,,,,,,,,,,,,,,,,,,,,,,,,,,,,,,,,,,
,,,,,V3_054,19,F,2024-11-07_16h23.18.011,jersey_experiment_5_v3,2023.2.2,Win32,85.47008547,,,,,,,,,,,,,,,,336.4782,338.031,338.031,339.5486,return,0.6191,,99.21875,,,,,,FBP-RB-91.png,0.45,1.2,60,0.75,0,26,26,59,1,,,,,,,,,,,,,,,,,,,,,,,,,,,,,,,,,,,,,,,,
,,,,,V3_054,19,F,2024-11-07_16h23.18.011,jersey_experiment_5_v3,2023.2.2,Win32,85.47008547,,,,,,,,,,,,,,,,339.5487,341.1014,341.1015,343.09,return,0.6254,,0.260416667,,,,,,FBP-RB-81.png,0.35,1.2,51,0.75,0,27,27,50,1,,,,,,,,,,,,,,,,,,,,,,,,,,,,,,,,,,,,,,,,
,,,,,V3_054,19,F,2024-11-07_16h23.18.011,jersey_experiment_5_v3,2023.2.2,Win32,85.47008547,,,,,,,,,,,,,,,,343.0902,344.3841,344.3842,346.0193,return,0.6357,,2.083333333,,,,,,FBP-OG-81.png,0.35,1.2,36,0.5,0,28,28,35,1,,,,,,,,,,,,,,,,,,,,,,,,,,,,,,,,,,,,,,,,
,,,,,V3_054,19,F,2024-11-07_16h23.18.011,jersey_experiment_5_v3,2023.2.2,Win32,85.47008547,,,,,,,,,,,,,,,,346.0197,347.3136,347.3136,349.2194,return,0.6355,,49.73958333,,,,,,FBP-OG-71.png,0.4,1.2,33,0.5,0,29,29,32,1,,,,,,,,,,,,,,,,,,,,,,,,,,,,,,,,,,,,,,,,
,,,,,V3_054,19,F,2024-11-07_16h23.18.011,jersey_experiment_5_v3,2023.2.2,Win32,85.47008547,,,,,,,,,,,,,,,,349.2196,350.5135,350.5136,352.7255,return,0.7381,,83.33333333,,,,,,FBP-OG-81.png,0.45,1.2,40,0.5,0,30,30,39,1,,,,,,,,,,,,,,,,,,,,,,,,,,,,,,,,,,,,,,,,
,,,,,V3_054,19,F,2024-11-07_16h23.18.011,jersey_experiment_5_v3,2023.2.2,Win32,85.47008547,,,,,,,,,,,,,,,,352.7258,354.0198,354.0199,356.1609,return,0.6383,,77.734375,,,,,,FBP-OG-91.png,0.4,1.2,43,0.5,0,31,31,42,1,,,,,,,,,,,,,,,,,,,,,,,,,,,,,,,,,,,,,,,,
,,,,,V3_054,19,F,2024-11-07_16h23.18.011,jersey_experiment_5_v3,2023.2.2,Win32,85.47008547,,,,,,,,,,,,,,,,356.1612,357.714,357.714,359.361,return,0.6717,,8.854166667,,,,,,FBP-RB-91.png,0.35,1.2,56,0.75,0,32,32,55,1,,,,,,,,,,,,,,,,,,,,,,,,,,,,,,,,,,,,,,,,
,,,,,V3_054,19,F,2024-11-07_16h23.18.011,jersey_experiment_5_v3,2023.2.2,Win32,85.47008547,,,,,,,,,,,,,,,,359.3612,360.9143,360.9143,362.5612,return,0.6487,,3.645833333,,,,,,FBP-YG-19.png,0.37,1.2,12,0.75,0,33,33,11,1,,,,,,,,,,,,,,,,,,,,,,,,,,,,,,,,,,,,,,,,
,,,,,V3_054,19,F,2024-11-07_16h23.18.011,jersey_experiment_5_v3,2023.2.2,Win32,85.47008547,,,,,,,,,,,,,,,,362.5614,364.1142,364.1143,365.5378,return,0.6337,,45.05208333,,,,,,FBP-YG-17.png,0.4,1.2,3,0.75,0,34,34,2,1,,,,,,,,,,,,,,,,,,,,,,,,,,,,,,,,,,,,,,,,
,,,,,V3_054,19,F,2024-11-07_16h23.18.011,jersey_experiment_5_v3,2023.2.2,Win32,85.47008547,,,,,,,,,,,,,,,,365.5381,367.0908,367.0908,368.3379,return,0.5904,,16.015625,,,,,,FBP-PT-81.png,0.37,1.2,22,0.75,0,35,35,21,1,,,,,,,,,,,,,,,,,,,,,,,,,,,,,,,,,,,,,,,,
,,,,,V3_054,19,F,2024-11-07_16h23.18.011,jersey_experiment_5_v3,2023.2.2,Win32,85.47008547,,,,,,,,,,,,,,,,368.3381,369.891,369.891,371.5498,return,0.6281,,95.3125,,,,,,FBP-PT-81.png,0.45,1.2,25,0.75,0,36,36,24,1,,,,,,,,,,,,,,,,,,,,,,,,,,,,,,,,,,,,,,,,
,,,,,V3_054,19,F,2024-11-07_16h23.18.011,jersey_experiment_5_v3,2023.2.2,Win32,85.47008547,,,,,,,,,,,,,,,,371.55,372.8439,372.844,374.6556,return,0.71,,86.97916667,,,,,,FBP-OG-81.png,0.43,1.2,39,0.5,0,37,37,38,1,,,,,,,,,,,,,,,,,,,,,,,,,,,,,,,,,,,,,,,,
,,,,,V3_054,19,F,2024-11-07_16h23.18.011,jersey_experiment_5_v3,2023.2.2,Win32,85.47008547,,,,,,,,,,,,,,,,374.6559,376.2088,376.2088,377.7617,return,0.5984,,99.86979167,,,,,,FBP-RB-81.png,0.45,1.2,55,0.75,0,38,38,54,1,,,,,,,,,,,,,,,,,,,,,,,,,,,,,,,,,,,,,,,,
,,,,,V3_054,19,F,2024-11-07_16h23.18.011,jersey_experiment_5_v3,2023.2.2,Win32,85.47008547,,,,,,,,,,,,,,,,377.762,379.056,379.056,381.409,return,0.6618,,32.8125,,,,,,FBP-OG-71.png,0.37,1.2,32,0.5,0,39,39,31,1,,,,,,,,,,,,,,,,,,,,,,,,,,,,,,,,,,,,,,,,
,,,,,V3_054,19,F,2024-11-07_16h23.18.011,jersey_experiment_5_v3,2023.2.2,Win32,85.47008547,,,,,,,,,,,,,,,,381.4092,382.9621,382.9621,384.7739,return,0.6827,,56.25,,,,,,FBP-RB-81.png,0.43,1.2,54,0.75,0,40,40,53,1,,,,,,,,,,,,,,,,,,,,,,,,,,,,,,,,,,,,,,,,
,,,,,V3_054,19,F,2024-11-07_16h23.18.011,jersey_experiment_5_v3,2023.2.2,Win32,85.47008547,,,,,,,,,,,,,,,,384.7742,386.068,386.068,387.6679,return,0.6354,,51.43229167,,,,,,FBP-OG-81.png,0.4,1.2,38,0.5,0,41,41,37,1,,,,,,,,,,,,,,,,,,,,,,,,,,,,,,,,,,,,,,,,
,,,,,V3_054,19,F,2024-11-07_16h23.18.011,jersey_experiment_5_v3,2023.2.2,Win32,85.47008547,,,,,,,,,,,,,,,,387.6681,389.2211,389.2211,391.2328,return,0.6984,,94.01041667,,,,,,FBP-PT-71.png,0.43,1.2,19,0.75,0,42,42,18,1,,,,,,,,,,,,,,,,,,,,,,,,,,,,,,,,,,,,,,,,
,,,,,V3_054,19,F,2024-11-07_16h23.18.011,jersey_experiment_5_v3,2023.2.2,Win32,85.47008547,,,,,,,,,,,,,,,,391.2331,392.5269,392.5269,394.033,return,0.6586,,99.08854167,,,,,,FBP-OG-71.png,0.45,1.2,35,0.5,0,43,43,34,1,,,,,,,,,,,,,,,,,,,,,,,,,,,,,,,,,,,,,,,,
,,,,,V3_054,19,F,2024-11-07_16h23.18.011,jersey_experiment_5_v3,2023.2.2,Win32,85.47008547,,,,,,,,,,,,,,,,394.0333,395.5859,395.5859,397.3742,return,0.6761,,0.911458333,,,,,,FBP-YG-19.png,0.35,1.2,11,0.75,0,44,44,10,1,,,,,,,,,,,,,,,,,,,,,,,,,,,,,,,,,,,,,,,,
,,,,,V3_054,19,F,2024-11-07_16h23.18.011,jersey_experiment_5_v3,2023.2.2,Win32,85.47008547,,,,,,,,,,,,,,,,397.3745,398.9272,398.9272,400.4332,return,0.6344,,0.260416667,,,,,,FBP-RB-71.png,0.35,1.2,46,0.75,0,45,45,45,1,,,,,,,,,,,,,,,,,,,,,,,,,,,,,,,,,,,,,,,,
,,,,,V3_054,19,F,2024-11-07_16h23.18.011,jersey_experiment_5_v3,2023.2.2,Win32,85.47008547,,,,,,,,,,,,,,,,400.4335,401.9863,401.9864,403.5744,return,0.635,,98.69791667,,,,,,FBP-PT-81.png,0.43,1.2,24,0.75,0,46,46,23,1,,,,,,,,,,,,,,,,,,,,,,,,,,,,,,,,,,,,,,,,
,,,,,V3_054,19,F,2024-11-07_16h23.18.011,jersey_experiment_5_v3,2023.2.2,Win32,85.47008547,,,,,,,,,,,,,,,,403.5747,405.1276,405.1276,406.6452,return,0.602,,51.04166667,,,,,,FBP-PT-91.png,0.4,1.2,28,0.75,0,47,47,27,1,,,,,,,,,,,,,,,,,,,,,,,,,,,,,,,,,,,,,,,,
,,,,,V3_054,19,F,2024-11-07_16h23.18.011,jersey_experiment_5_v3,2023.2.2,Win32,85.47008547,,,,,,,,,,,,,,,,406.6455,408.1982,408.1982,410.2453,return,0.6103,,86.58854167,,,,,,FBP-RB-91.png,0.43,1.2,59,0.75,0,48,48,58,1,,,,,,,,,,,,,,,,,,,,,,,,,,,,,,,,,,,,,,,,
,,,,,V3_054,19,F,2024-11-07_16h23.18.011,jersey_experiment_5_v3,2023.2.2,Win32,85.47008547,,,,,,,,,,,,,,,,410.2456,411.5395,411.5395,414.6926,return,0.6582,,1.692708333,,,,,,FBP-OG-81.png,0.37,1.2,37,0.5,0,49,49,36,1,,,,,,,,,,,,,,,,,,,,,,,,,,,,,,,,,,,,,,,,
,,,,,V3_054,19,F,2024-11-07_16h23.18.011,jersey_experiment_5_v3,2023.2.2,Win32,85.47008547,,,,,,,,,,,,,,,,414.6929,416.2457,416.2457,418.0691,return,0.7624,,11.06770833,,,,,,FBP-YG-17.png,0.37,1.2,2,0.75,0,50,50,1,1,,,,,,,,,,,,,,,,,,,,,,,,,,,,,,,,,,,,,,,,
,,,,,V3_054,19,F,2024-11-07_16h23.18.011,jersey_experiment_5_v3,2023.2.2,Win32,85.47008547,,,,,,,,,,,,,,,,418.0693,419.3632,419.3633,421.0222,return,0.6627,,5.078125,,,,,,FBP-OG-91.png,0.35,1.2,41,0.5,0,51,51,40,1,,,,,,,,,,,,,,,,,,,,,,,,,,,,,,,,,,,,,,,,
,,,,,V3_054,19,F,2024-11-07_16h23.18.011,jersey_experiment_5_v3,2023.2.2,Win32,85.47008547,,,,,,,,,,,,,,,,421.0224,422.5753,422.5753,424.1163,return,0.7531,,24.73958333,,,,,,FBP-RB-91.png,0.37,1.2,57,0.75,0,52,52,56,1,,,,,,,,,,,,,,,,,,,,,,,,,,,,,,,,,,,,,,,,
,,,,,V3_054,19,F,2024-11-07_16h23.18.011,jersey_experiment_5_v3,2023.2.2,Win32,85.47008547,,,,,,,,,,,,,,,,424.1167,425.6694,425.6695,427.5871,return,0.7666,,92.44791667,,,,,,FBP-PT-71.png,0.45,1.2,20,0.75,0,53,53,19,1,,,,,,,,,,,,,,,,,,,,,,,,,,,,,,,,,,,,,,,,
,,,,,V3_054,19,F,2024-11-07_16h23.18.011,jersey_experiment_5_v3,2023.2.2,Win32,85.47008547,,,,,,,,,,,,,,,,427.5874,429.1403,429.1403,431.0225,return,0.7229,,2.734375,,,,,,FBP-YG-17.png,0.35,1.2,1,0.75,0,54,54,0,1,,,,,,,,,,,,,,,,,,,,,,,,,,,,,,,,,,,,,,,,
,,,,,V3_054,19,F,2024-11-07_16h23.18.011,jersey_experiment_5_v3,2023.2.2,Win32,85.47008547,,,,,,,,,,,,,,,,431.0228,432.3167,432.3168,434.3051,return,0.6488,,96.61458333,,,,,,FBP-OG-91.png,0.45,1.2,45,0.5,0,55,55,44,1,,,,,,,,,,,,,,,,,,,,,,,,,,,,,,,,,,,,,,,,
,,,,,V3_054,19,F,2024-11-07_16h23.18.011,jersey_experiment_5_v3,2023.2.2,Win32,85.47008547,,,,,,,,,,,,,,,,434.3053,435.858,435.858,437.6346,return,0.6354,,80.859375,,,,,,FBP-YG-17.png,0.43,1.2,4,0.75,0,56,56,3,1,,,,,,,,,,,,,,,,,,,,,,,,,,,,,,,,,,,,,,,,
,,,,,V3_054,19,F,2024-11-07_16h23.18.011,jersey_experiment_5_v3,2023.2.2,Win32,85.47008547,,,,,,,,,,,,,,,,437.6348,439.1876,439.1876,440.7994,return,0.5789,,84.89583333,,,,,,FBP-RB-71.png,0.43,1.2,49,0.75,0,57,57,48,1,,,,,,,,,,,,,,,,,,,,,,,,,,,,,,,,,,,,,,,,
,,,,,V3_054,19,F,2024-11-07_16h23.18.011,jersey_experiment_5_v3,2023.2.2,Win32,85.47008547,,,,,,,,,,,,,,,,440.7997,442.0937,442.0937,443.6935,return,0.6523,,50.65104167,,,,,,FBP-OG-91.png,0.37,1.2,42,0.5,0,58,58,41,1,,,,,,,,,,,,,,,,,,,,,,,,,,,,,,,,,,,,,,,,
,,,,,V3_054,19,F,2024-11-07_16h23.18.011,jersey_experiment_5_v3,2023.2.2,Win32,85.47008547,,,,,,,,,,,,,,,,443.6938,445.2468,445.2469,447.7761,return,1.8745,,40.234375,,,,,,FBP-RB-71.png,0.37,1.2,47,0.75,0,59,59,46,1,,,,,,,,,,,,,,,,,,,,,,,,,,,,,,,,,,,,,,,,
,,,,,V3_054,19,F,2024-11-07_16h23.18.011,jersey_experiment_5_v3,2023.2.2,Win32,85.47008547,,,,,,,,,,,,,,,,,,,,,,,,,,,,,,,,,,,,,,,447.7762,567.7689,,,,,,,,,,,,,,,,,,,,,,,,,,,,,,,,,,,,,,
,,,,,V3_054,19,F,2024-11-07_16h23.18.011,jersey_experiment_5_v3,2023.2.2,Win32,85.47008547,,,,,,,,,,,,,,,,,,,,,,,,,,,,,,,,,,,,,,,,,567.7691,572.9925,return,5.2112,,,,,,,,,,,,,,,,,,,,,,,,,,,,,,,,,,
,,,,,V3_054,19,F,2024-11-07_16h23.18.011,jersey_experiment_5_v3,2023.2.2,Win32,85.47008547,,,,,,,,,,,,,,,,572.9946,574.2867,574.2867,578.1574,return,0.9695,,38.02083333,,,,,,FBP-RB-19.png,0.37,1.2,57,0.5,,,,,,,,,,,,,0,0,0,56,1,,,,,,,,,,,,,,,,,,,,,,,,,,,,
,,,,,V3_054,19,F,2024-11-07_16h23.18.011,jersey_experiment_5_v3,2023.2.2,Win32,85.47008547,,,,,,,,,,,,,,,,578.1577,579.4515,579.4515,581.934,return,0.641,,56.51041667,,,,,,FBP-YG-81.png,0.4,1.2,8,0.5,,,,,,,,,,,,,0,1,1,7,1,,,,,,,,,,,,,,,,,,,,,,,,,,,,
,,,,,V3_054,19,F,2024-11-07_16h23.18.011,jersey_experiment_5_v3,2023.2.2,Win32,85.47008547,,,,,,,,,,,,,,,,581.9343,583.228,583.2281,584.8635,return,0.6039,,26.5625,,,,,,FBP-RB-19.png,0.35,1.2,56,0.5,,,,,,,,,,,,,0,2,2,55,1,,,,,,,,,,,,,,,,,,,,,,,,,,,,
,,,,,V3_054,19,F,2024-11-07_16h23.18.011,jersey_experiment_5_v3,2023.2.2,Win32,85.47008547,,,,,,,,,,,,,,,,584.8637,586.1576,586.1576,588.3343,return,0.6273,,86.71875,,,,,,FBP-PT-18.png,0.45,1.2,25,0.5,,,,,,,,,,,,,0,3,3,24,1,,,,,,,,,,,,,,,,,,,,,,,,,,,,
,,,,,V3_054,19,F,2024-11-07_16h23.18.011,jersey_experiment_5_v3,2023.2.2,Win32,85.47008547,,,,,,,,,,,,,,,,588.3345,589.6285,589.6285,592.1108,return,0.6048,,36.97916667,,,,,,FBP-YG-81.png,0.37,1.2,7,0.5,,,,,,,,,,,,,0,4,4,6,1,,,,,,,,,,,,,,,,,,,,,,,,,,,,
,,,,,V3_054,19,F,2024-11-07_16h23.18.011,jersey_experiment_5_v3,2023.2.2,Win32,85.47008547,,,,,,,,,,,,,,,,592.1111,593.4052,593.4052,596.6052,return,0.5934,,88.28125,,,,,,FBP-PT-19.png,0.43,1.2,29,0.5,,,,,,,,,,,,,0,5,5,28,1,,,,,,,,,,,,,,,,,,,,,,,,,,,,
,,,,,V3_054,19,F,2024-11-07_16h23.18.011,jersey_experiment_5_v3,2023.2.2,Win32,85.47008547,,,,,,,,,,,,,,,,596.6055,597.8994,597.8995,599.57,return,0.5862,,96.35416667,,,,,,FBP-YG-81.png,0.43,1.2,9,0.5,,,,,,,,,,,,,0,6,6,8,1,,,,,,,,,,,,,,,,,,,,,,,,,,,,
,,,,,V3_054,19,F,2024-11-07_16h23.18.011,jersey_experiment_5_v3,2023.2.2,Win32,85.47008547,,,,,,,,,,,,,,,,599.5702,600.8643,600.8643,602.6406,return,0.6014,,97.13541667,,,,,,FBP-YG-91.png,0.43,1.2,14,0.5,,,,,,,,,,,,,0,7,7,13,1,,,,,,,,,,,,,,,,,,,,,,,,,,,,
,,,,,V3_054,19,F,2024-11-07_16h23.18.011,jersey_experiment_5_v3,2023.2.2,Win32,85.47008547,,,,,,,,,,,,,,,,602.6408,603.9348,603.9349,606.0996,return,0.6592,,52.08333333,,,,,,FBP-RB-19.png,0.4,1.2,58,0.5,,,,,,,,,,,,,0,8,8,57,1,,,,,,,,,,,,,,,,,,,,,,,,,,,,
,,,,,V3_054,19,F,2024-11-07_16h23.18.011,jersey_experiment_5_v3,2023.2.2,Win32,85.47008547,,,,,,,,,,,,,,,,606.0999,607.3936,607.3937,609.3114,return,0.6043,,67.05729167,,,,,,FBP-YG-91.png,0.4,1.2,13,0.5,,,,,,,,,,,,,0,9,9,12,1,,,,,,,,,,,,,,,,,,,,,,,,,,,,
,,,,,V3_054,19,F,2024-11-07_16h23.18.011,jersey_experiment_5_v3,2023.2.2,Win32,85.47008547,,,,,,,,,,,,,,,,609.3117,610.6059,610.6059,612.688,return,0.6492,,80.859375,,,,,,FBP-RB-17.png,0.43,1.2,49,0.5,,,,,,,,,,,,,0,10,10,48,1,,,,,,,,,,,,,,,,,,,,,,,,,,,,
,,,,,V3_054,19,F,2024-11-07_16h23.18.011,jersey_experiment_5_v3,2023.2.2,Win32,85.47008547,,,,,,,,,,,,,,,,612.6883,613.9824,613.9824,616.1587,return,0.6598,,12.109375,,,,,,FBP-RB-17.png,0.35,1.2,46,0.5,,,,,,,,,,,,,0,11,11,45,1,,,,,,,,,,,,,,,,,,,,,,,,,,,,
,,,,,V3_054,19,F,2024-11-07_16h23.18.011,jersey_experiment_5_v3,2023.2.2,Win32,85.47008547,,,,,,,,,,,,,,,,616.159,617.4532,617.4532,621.2648,return,0.7068,,99.73958333,,,,,,FBP-YG-81.png,0.45,1.2,10,0.5,,,,,,,,,,,,,0,12,12,9,1,,,,,,,,,,,,,,,,,,,,,,,,,,,,
,,,,,V3_054,19,F,2024-11-07_16h23.18.011,jersey_experiment_5_v3,2023.2.2,Win32,85.47008547,,,,,,,,,,,,,,,,621.2651,622.8179,622.8179,624.3825,return,0.5933,,99.34895833,,,,,,FBP-OG-19.png,0.45,1.2,45,0.75,,,,,,,,,,,,,0,13,13,44,1,,,,,,,,,,,,,,,,,,,,,,,,,,,,
,,,,,V3_054,19,F,2024-11-07_16h23.18.011,jersey_experiment_5_v3,2023.2.2,Win32,85.47008547,,,,,,,,,,,,,,,,624.3828,625.9355,625.9356,627.4415,return,0.6137,,97.65625,,,,,,FBP-OG-19.png,0.43,1.2,44,0.75,,,,,,,,,,,,,0,14,14,43,1,,,,,,,,,,,,,,,,,,,,,,,,,,,,
,,,,,V3_054,19,F,2024-11-07_16h23.18.011,jersey_experiment_5_v3,2023.2.2,Win32,85.47008547,,,,,,,,,,,,,,,,627.4417,628.7358,628.7358,630.6887,return,0.6246,,13.671875,,,,,,FBP-PT-18.png,0.37,1.2,22,0.5,,,,,,,,,,,,,0,15,15,21,1,,,,,,,,,,,,,,,,,,,,,,,,,,,,
,,,,,V3_054,19,F,2024-11-07_16h23.18.011,jersey_experiment_5_v3,2023.2.2,Win32,85.47008547,,,,,,,,,,,,,,,,630.6891,631.9829,631.9829,633.9359,return,0.6493,,56.51041667,,,,,,FBP-RB-17.png,0.4,1.2,48,0.5,,,,,,,,,,,,,0,16,16,47,1,,,,,,,,,,,,,,,,,,,,,,,,,,,,
,,,,,V3_054,19,F,2024-11-07_16h23.18.011,jersey_experiment_5_v3,2023.2.2,Win32,85.47008547,,,,,,,,,,,,,,,,633.9363,635.2302,635.2302,636.8066,return,0.5413,,92.31770833,,,,,,FBP-YG-91.png,0.45,1.2,15,0.5,,,,,,,,,,,,,0,17,17,14,1,,,,,,,,,,,,,,,,,,,,,,,,,,,,
,,,,,V3_054,19,F,2024-11-07_16h23.18.011,jersey_experiment_5_v3,2023.2.2,Win32,85.47008547,,,,,,,,,,,,,,,,636.8068,638.1007,638.1008,639.6654,return,0.5907,,90.88541667,,,,,,FBP-YG-71.png,0.4,1.2,3,0.5,,,,,,,,,,,,,0,18,18,2,1,,,,,,,,,,,,,,,,,,,,,,,,,,,,
,,,,,V3_054,19,F,2024-11-07_16h23.18.011,jersey_experiment_5_v3,2023.2.2,Win32,85.47008547,,,,,,,,,,,,,,,,639.6656,640.9599,640.9599,642.7832,return,0.6634,,7.942708333,,,,,,FBP-PT-17.png,0.35,1.2,16,0.5,,,,,,,,,,,,,0,19,19,15,1,,,,,,,,,,,,,,,,,,,,,,,,,,,,
,,,,,V3_054,19,F,2024-11-07_16h23.18.011,jersey_experiment_5_v3,2023.2.2,Win32,85.47008547,,,,,,,,,,,,,,,,642.7836,644.0776,644.0776,645.5951,return,0.5714,,89.32291667,,,,,,FBP-RB-19.png,0.43,1.2,59,0.5,,,,,,,,,,,,,0,20,20,58,1,,,,,,,,,,,,,,,,,,,,,,,,,,,,
,,,,,V3_054,19,F,2024-11-07_16h23.18.011,jersey_experiment_5_v3,2023.2.2,Win32,85.47008547,,,,,,,,,,,,,,,,645.5953,647.1483,647.1483,649.0071,return,0.675,,1.5625,,,,,,FBP-OG-18.png,0.37,1.2,37,0.75,,,,,,,,,,,,,0,21,21,36,1,,,,,,,,,,,,,,,,,,,,,,,,,,,,
,,,,,V3_054,19,F,2024-11-07_16h23.18.011,jersey_experiment_5_v3,2023.2.2,Win32,85.47008547,,,,,,,,,,,,,,,,649.0073,650.3013,650.3013,652.2188,return,0.5579,,32.16145833,,,,,,FBP-YG-91.png,0.37,1.2,12,0.5,,,,,,,,,,,,,0,22,22,11,1,,,,,,,,,,,,,,,,,,,,,,,,,,,,
,,,,,V3_054,19,F,2024-11-07_16h23.18.011,jersey_experiment_5_v3,2023.2.2,Win32,85.47008547,,,,,,,,,,,,,,,,652.2191,653.5131,653.5131,655.3955,return,0.659,,2.604166667,,,,,,FBP-PT-19.png,0.35,1.2,26,0.5,,,,,,,,,,,,,0,23,23,25,1,,,,,,,,,,,,,,,,,,,,,,,,,,,,
,,,,,V3_054,19,F,2024-11-07_16h23.18.011,jersey_experiment_5_v3,2023.2.2,Win32,85.47008547,,,,,,,,,,,,,,,,655.3958,656.6896,656.6896,658.3721,return,0.6123,,9.114583333,,,,,,FBP-YG-71.png,0.35,1.2,1,0.5,,,,,,,,,,,,,0,24,24,0,1,,,,,,,,,,,,,,,,,,,,,,,,,,,,
,,,,,V3_054,19,F,2024-11-07_16h23.18.011,jersey_experiment_5_v3,2023.2.2,Win32,85.47008547,,,,,,,,,,,,,,,,658.3723,659.9253,659.9253,661.3722,return,0.629,,40.36458333,,,,,,FBP-OG-19.png,0.37,1.2,42,0.75,,,,,,,,,,,,,0,25,25,41,1,,,,,,,,,,,,,,,,,,,,,,,,,,,,
,,,,,V3_054,19,F,2024-11-07_16h23.18.011,jersey_experiment_5_v3,2023.2.2,Win32,85.47008547,,,,,,,,,,,,,,,,661.3725,662.9253,662.9254,664.7253,return,0.682,,52.99479167,,,,,,FBP-OG-19.png,0.4,1.2,43,0.75,,,,,,,,,,,,,0,26,26,42,1,,,,,,,,,,,,,,,,,,,,,,,,,,,,
,,,,,V3_054,19,F,2024-11-07_16h23.18.011,jersey_experiment_5_v3,2023.2.2,Win32,85.47008547,,,,,,,,,,,,,,,,664.7255,666.2785,666.2785,668.3019,return,0.6293,,80.33854167,,,,,,FBP-OG-18.png,0.43,1.2,39,0.75,,,,,,,,,,,,,0,27,27,38,1,,,,,,,,,,,,,,,,,,,,,,,,,,,,
,,,,,V3_054,19,F,2024-11-07_16h23.18.011,jersey_experiment_5_v3,2023.2.2,Win32,85.47008547,,,,,,,,,,,,,,,,668.3022,669.5963,669.5963,671.9491,return,0.5693,,58.46354167,,,,,,FBP-RB-18.png,0.4,1.2,53,0.5,,,,,,,,,,,,,0,28,28,52,1,,,,,,,,,,,,,,,,,,,,,,,,,,,,
,,,,,V3_054,19,F,2024-11-07_16h23.18.011,jersey_experiment_5_v3,2023.2.2,Win32,85.47008547,,,,,,,,,,,,,,,,671.9494,673.2433,673.2433,674.9727,return,0.5951,,47.52604167,,,,,,FBP-PT-19.png,0.37,1.2,27,0.5,,,,,,,,,,,,,0,29,29,26,1,,,,,,,,,,,,,,,,,,,,,,,,,,,,
,,,,,V3_054,19,F,2024-11-07_16h23.18.011,jersey_experiment_5_v3,2023.2.2,Win32,85.47008547,,,,,,,,,,,,,,,,674.9729,676.5258,676.5258,677.8668,return,0.6078,,67.578125,,,,,,FBP-OG-18.png,0.4,1.2,38,0.75,,,,,,,,,,,,,0,30,30,37,1,,,,,,,,,,,,,,,,,,,,,,,,,,,,
,,,,,V3_054,19,F,2024-11-07_16h23.18.011,jersey_experiment_5_v3,2023.2.2,Win32,85.47008547,,,,,,,,,,,,,,,,677.8671,679.1612,679.1613,680.3493,return,0.5917,,58.46354167,,,,,,FBP-PT-17.png,0.4,1.2,18,0.5,,,,,,,,,,,,,0,31,31,17,1,,,,,,,,,,,,,,,,,,,,,,,,,,,,
,,,,,V3_054,19,F,2024-11-07_16h23.18.011,jersey_experiment_5_v3,2023.2.2,Win32,85.47008547,,,,,,,,,,,,,,,,680.3495,681.6436,681.6436,684.5025,return,0.5985,,32.55208333,,,,,,FBP-RB-18.png,0.37,1.2,52,0.5,,,,,,,,,,,,,0,32,32,51,1,,,,,,,,,,,,,,,,,,,,,,,,,,,,
,,,,,V3_054,19,F,2024-11-07_16h23.18.011,jersey_experiment_5_v3,2023.2.2,Win32,85.47008547,,,,,,,,,,,,,,,,684.5028,685.7967,685.7968,687.5377,return,0.5988,,98.046875,,,,,,FBP-RB-18.png,0.45,1.2,55,0.5,,,,,,,,,,,,,0,33,33,54,1,,,,,,,,,,,,,,,,,,,,,,,,,,,,
,,,,,V3_054,19,F,2024-11-07_16h23.18.011,jersey_experiment_5_v3,2023.2.2,Win32,85.47008547,,,,,,,,,,,,,,,,687.538,688.8322,688.8322,690.4204,return,0.5864,,99.609375,,,,,,FBP-RB-19.png,0.45,1.2,60,0.5,,,,,,,,,,,,,0,34,34,59,1,,,,,,,,,,,,,,,,,,,,,,,,,,,,
,,,,,V3_054,19,F,2024-11-07_16h23.18.011,jersey_experiment_5_v3,2023.2.2,Win32,85.47008547,,,,,,,,,,,,,,,,690.4207,691.9736,691.9736,694.4321,return,0.8034,,13.671875,,,,,,FBP-OG-17.png,0.4,1.2,33,0.75,,,,,,,,,,,,,0,35,35,32,1,,,,,,,,,,,,,,,,,,,,,,,,,,,,
,,,,,V3_054,19,F,2024-11-07_16h23.18.011,jersey_experiment_5_v3,2023.2.2,Win32,85.47008547,,,,,,,,,,,,,,,,694.4323,695.9737,695.9738,697.597,return,0.6399,,1.953125,,,,,,FBP-OG-18.png,0.35,1.2,36,0.75,,,,,,,,,,,,,0,36,36,35,1,,,,,,,,,,,,,,,,,,,,,,,,,,,,
,,,,,V3_054,19,F,2024-11-07_16h23.18.011,jersey_experiment_5_v3,2023.2.2,Win32,85.47008547,,,,,,,,,,,,,,,,697.5973,699.1385,699.1385,706.2563,return,1.6233,,0.260416667,,,,,,FBP-OG-17.png,0.35,1.2,31,0.75,,,,,,,,,,,,,0,37,37,30,1,,,,,,,,,,,,,,,,,,,,,,,,,,,,
,,,,,V3_054,19,F,2024-11-07_16h23.18.011,jersey_experiment_5_v3,2023.2.2,Win32,85.47008547,,,,,,,,,,,,,,,,706.2565,707.5506,707.5506,709.8917,return,0.7874,,99.86979167,,,,,,FBP-RB-17.png,0.45,1.2,50,0.5,,,,,,,,,,,,,0,38,38,49,1,,,,,,,,,,,,,,,,,,,,,,,,,,,,
,,,,,V3_054,19,F,2024-11-07_16h23.18.011,jersey_experiment_5_v3,2023.2.2,Win32,85.47008547,,,,,,,,,,,,,,,,709.8919,711.4448,711.4448,712.8799,return,0.6002,,8.333333333,,,,,,FBP-OG-19.png,0.35,1.2,41,0.75,,,,,,,,,,,,,0,39,39,40,1,,,,,,,,,,,,,,,,,,,,,,,,,,,,
,,,,,V3_054,19,F,2024-11-07_16h23.18.011,jersey_experiment_5_v3,2023.2.2,Win32,85.47008547,,,,,,,,,,,,,,,,712.8802,714.1744,714.1744,716.0213,return,0.6601,,92.1875,,,,,,FBP-PT-17.png,0.43,1.2,19,0.5,,,,,,,,,,,,,0,40,40,18,1,,,,,,,,,,,,,,,,,,,,,,,,,,,,
,,,,,V3_054,19,F,2024-11-07_16h23.18.011,jersey_experiment_5_v3,2023.2.2,Win32,85.47008547,,,,,,,,,,,,,,,,716.0216,717.3156,717.3156,718.9978,return,0.659,,45.3125,,,,,,FBP-PT-17.png,0.37,1.2,17,0.5,,,,,,,,,,,,,0,41,41,16,1,,,,,,,,,,,,,,,,,,,,,,,,,,,,
,,,,,V3_054,19,F,2024-11-07_16h23.18.011,jersey_experiment_5_v3,2023.2.2,Win32,85.47008547,,,,,,,,,,,,,,,,718.9982,720.2922,720.2923,722.5981,return,0.5887,,66.015625,,,,,,FBP-PT-18.png,0.4,1.2,23,0.5,,,,,,,,,,,,,0,42,42,22,1,,,,,,,,,,,,,,,,,,,,,,,,,,,,
,,,,,V3_054,19,F,2024-11-07_16h23.18.011,jersey_experiment_5_v3,2023.2.2,Win32,85.47008547,,,,,,,,,,,,,,,,722.5984,723.8924,723.8924,725.5863,return,0.6131,,83.46354167,,,,,,FBP-YG-71.png,0.43,1.2,4,0.5,,,,,,,,,,,,,0,43,43,3,1,,,,,,,,,,,,,,,,,,,,,,,,,,,,
,,,,,V3_054,19,F,2024-11-07_16h23.18.011,jersey_experiment_5_v3,2023.2.2,Win32,85.47008547,,,,,,,,,,,,,,,,725.5866,727.1395,727.1395,728.6571,return,0.6037,,96.875,,,,,,FBP-OG-18.png,0.45,1.2,40,0.75,,,,,,,,,,,,,0,44,44,39,1,,,,,,,,,,,,,,,,,,,,,,,,,,,,
,,,,,V3_054,19,F,2024-11-07_16h23.18.011,jersey_experiment_5_v3,2023.2.2,Win32,85.47008547,,,,,,,,,,,,,,,,728.6573,729.9514,729.9514,732.3513,return,0.6043,,32.421875,,,,,,FBP-YG-71.png,0.37,1.2,2,0.5,,,,,,,,,,,,,0,45,45,1,1,,,,,,,,,,,,,,,,,,,,,,,,,,,,
,,,,,V3_054,19,F,2024-11-07_16h23.18.011,jersey_experiment_5_v3,2023.2.2,Win32,85.47008547,,,,,,,,,,,,,,,,732.3517,733.6454,733.6455,736.022,return,0.6504,,6.510416667,,,,,,FBP-PT-18.png,0.35,1.2,21,0.5,,,,,,,,,,,,,0,46,46,20,1,,,,,,,,,,,,,,,,,,,,,,,,,,,,
,,,,,V3_054,19,F,2024-11-07_16h23.18.011,jersey_experiment_5_v3,2023.2.2,Win32,85.47008547,,,,,,,,,,,,,,,,736.0222,737.5752,737.5753,740.9281,return,0.5775,,91.53645833,,,,,,FBP-OG-17.png,0.45,1.2,35,0.75,,,,,,,,,,,,,0,47,47,34,1,,,,,,,,,,,,,,,,,,,,,,,,,,,,
,,,,,V3_054,19,F,2024-11-07_16h23.18.011,jersey_experiment_5_v3,2023.2.2,Win32,85.47008547,,,,,,,,,,,,,,,,740.9283,742.2223,742.2223,744.5753,return,0.6961,,99.08854167,,,,,,FBP-PT-19.png,0.45,1.2,30,0.5,,,,,,,,,,,,,0,48,48,29,1,,,,,,,,,,,,,,,,,,,,,,,,,,,,
,,,,,V3_054,19,F,2024-11-07_16h23.18.011,jersey_experiment_5_v3,2023.2.2,Win32,85.47008547,,,,,,,,,,,,,,,,744.5756,745.8695,745.8696,749.2814,return,2.5985,,6.25,,,,,,FBP-RB-18.png,0.35,1.2,51,0.5,,,,,,,,,,,,,0,49,49,50,1,,,,,,,,,,,,,,,,,,,,,,,,,,,,
,,,,,V3_054,19,F,2024-11-07_16h23.18.011,jersey_experiment_5_v3,2023.2.2,Win32,85.47008547,,,,,,,,,,,,,,,,749.2817,750.5757,750.5757,752.258,return,0.6142,,7.682291667,,,,,,FBP-YG-81.png,0.35,1.2,6,0.5,,,,,,,,,,,,,0,50,50,5,1,,,,,,,,,,,,,,,,,,,,,,,,,,,,
,,,,,V3_054,19,F,2024-11-07_16h23.18.011,jersey_experiment_5_v3,2023.2.2,Win32,85.47008547,,,,,,,,,,,,,,,,752.2582,753.5522,753.5522,755.1639,return,0.5958,,97.39583333,,,,,,FBP-YG-71.png,0.45,1.2,5,0.5,,,,,,,,,,,,,0,51,51,4,1,,,,,,,,,,,,,,,,,,,,,,,,,,,,
,,,,,V3_054,19,F,2024-11-07_16h23.18.011,jersey_experiment_5_v3,2023.2.2,Win32,85.47008547,,,,,,,,,,,,,,,,755.1641,756.4583,756.4584,759.4699,return,0.9467,,99.21875,,,,,,FBP-RB-18.png,0.43,1.2,54,0.5,,,,,,,,,,,,,0,52,52,53,1,,,,,,,,,,,,,,,,,,,,,,,,,,,,
,,,,,V3_054,19,F,2024-11-07_16h23.18.011,jersey_experiment_5_v3,2023.2.2,Win32,85.47008547,,,,,,,,,,,,,,,,759.4702,760.7642,760.7642,762.7407,return,0.6693,,4.6875,,,,,,FBP-YG-91.png,0.35,1.2,11,0.5,,,,,,,,,,,,,0,53,53,10,1,,,,,,,,,,,,,,,,,,,,,,,,,,,,
,,,,,V3_054,19,F,2024-11-07_16h23.18.011,jersey_experiment_5_v3,2023.2.2,Win32,85.47008547,,,,,,,,,,,,,,,,762.741,764.0348,764.0349,765.7878,return,0.6161,,19.921875,,,,,,FBP-RB-17.png,0.37,1.2,47,0.5,,,,,,,,,,,,,0,54,54,46,1,,,,,,,,,,,,,,,,,,,,,,,,,,,,
,,,,,V3_054,19,F,2024-11-07_16h23.18.011,jersey_experiment_5_v3,2023.2.2,Win32,85.47008547,,,,,,,,,,,,,,,,765.7881,767.082,767.082,769.0349,return,0.6901,,98.828125,,,,,,FBP-PT-17.png,0.45,1.2,20,0.5,,,,,,,,,,,,,0,55,55,19,1,,,,,,,,,,,,,,,,,,,,,,,,,,,,
,,,,,V3_054,19,F,2024-11-07_16h23.18.011,jersey_experiment_5_v3,2023.2.2,Win32,85.47008547,,,,,,,,,,,,,,,,769.0352,770.3294,770.3295,771.8939,return,0.5882,,82.03125,,,,,,FBP-PT-19.png,0.4,1.2,28,0.5,,,,,,,,,,,,,0,56,56,27,1,,,,,,,,,,,,,,,,,,,,,,,,,,,,
,,,,,V3_054,19,F,2024-11-07_16h23.18.011,jersey_experiment_5_v3,2023.2.2,Win32,85.47008547,,,,,,,,,,,,,,,,771.8941,773.447,773.447,777.1412,return,2.4323,,37.63020833,,,,,,FBP-OG-17.png,0.37,1.2,32,0.75,,,,,,,,,,,,,0,57,57,31,1,,,,,,,,,,,,,,,,,,,,,,,,,,,,
,,,,,V3_054,19,F,2024-11-07_16h23.18.011,jersey_experiment_5_v3,2023.2.2,Win32,85.47008547,,,,,,,,,,,,,,,,777.1416,778.6944,778.6944,780.0472,return,0.5674,,95.3125,,,,,,FBP-OG-17.png,0.43,1.2,34,0.75,,,,,,,,,,,,,0,58,58,33,1,,,,,,,,,,,,,,,,,,,,,,,,,,,,
,,,,,V3_054,19,F,2024-11-07_16h23.18.011,jersey_experiment_5_v3,2023.2.2,Win32,85.47008547,,,,,,,,,,,,,,,,780.0475,781.3414,781.3415,782.7537,return,0.5177,,93.22916667,,,,,,FBP-PT-18.png,0.43,1.2,24,0.5,,,,,,,,,,,,,0,59,59,23,1,,,,,,,,,,,,,,,,,,,,,,,,,,,,
,,,,,V3_054,19,F,2024-11-07_16h23.18.011,jersey_experiment_5_v3,2023.2.2,Win32,85.47008547,,,,,,,,,,,,,,,,782.7551,784.3062,784.3062,785.8945,return,0.5415,,87.23958333,,,,,,FBP-OG-91.png,0.43,1.2,44,0.75,,,,,,,,,,,,,,,,,,0,0,0,43,1,,,,,,,,,,,,,,,,,,,,,,,
,,,,,V3_054,19,F,2024-11-07_16h23.18.011,jersey_experiment_5_v3,2023.2.2,Win32,85.47008547,,,,,,,,,,,,,,,,785.8953,787.1886,787.1887,788.7182,return,0.7348,,95.3125,,,,,,FBP-RB-81.png,0.45,1.2,55,0.5,,,,,,,,,,,,,,,,,,0,1,1,54,1,,,,,,,,,,,,,,,,,,,,,,,
,,,,,V3_054,19,F,2024-11-07_16h23.18.011,jersey_experiment_5_v3,2023.2.2,Win32,85.47008547,,,,,,,,,,,,,,,,788.7184,790.0124,790.0124,791.2947,return,0.5576,,94.40104167,,,,,,FBP-PT-81.png,0.43,1.2,24,0.5,,,,,,,,,,,,,,,,,,0,2,2,23,1,,,,,,,,,,,,,,,,,,,,,,,
,,,,,V3_054,19,F,2024-11-07_16h23.18.011,jersey_experiment_5_v3,2023.2.2,Win32,85.47008547,,,,,,,,,,,,,,,,791.295,792.5888,792.5888,793.9418,return,0.5416,,94.40104167,,,,,,FBP-PT-91.png,0.45,1.2,30,0.5,,,,,,,,,,,,,,,,,,0,3,3,29,1,,,,,,,,,,,,,,,,,,,,,,,
,,,,,V3_054,19,F,2024-11-07_16h23.18.011,jersey_experiment_5_v3,2023.2.2,Win32,85.47008547,,,,,,,,,,,,,,,,793.9422,795.2359,795.236,797.2949,return,0.6282,,21.875,,,,,,FBP-YG-19.png,0.35,1.2,11,0.5,,,,,,,,,,,,,,,,,,0,4,4,10,1,,,,,,,,,,,,,,,,,,,,,,,
,,,,,V3_054,19,F,2024-11-07_16h23.18.011,jersey_experiment_5_v3,2023.2.2,Win32,85.47008547,,,,,,,,,,,,,,,,797.2952,798.589,798.5891,800.2362,return,0.5706,,77.99479167,,,,,,FBP-PT-91.png,0.43,1.2,29,0.5,,,,,,,,,,,,,,,,,,0,5,5,28,1,,,,,,,,,,,,,,,,,,,,,,,
,,,,,V3_054,19,F,2024-11-07_16h23.18.011,jersey_experiment_5_v3,2023.2.2,Win32,85.47008547,,,,,,,,,,,,,,,,800.2365,801.7893,801.7894,803.1657,return,0.594,,84.89583333,,,,,,FBP-OG-81.png,0.45,1.2,40,0.75,,,,,,,,,,,,,,,,,,0,6,6,39,1,,,,,,,,,,,,,,,,,,,,,,,
,,,,,V3_054,19,F,2024-11-07_16h23.18.011,jersey_experiment_5_v3,2023.2.2,Win32,85.47008547,,,,,,,,,,,,,,,,803.166,804.4599,804.4599,806.3423,return,0.573,,10.9375,,,,,,FBP-PT-71.png,0.35,1.2,16,0.5,,,,,,,,,,,,,,,,,,0,7,7,15,1,,,,,,,,,,,,,,,,,,,,,,,
,,,,,V3_054,19,F,2024-11-07_16h23.18.011,jersey_experiment_5_v3,2023.2.2,Win32,85.47008547,,,,,,,,,,,,,,,,806.3426,807.6365,807.6365,809.2364,return,0.5515,,79.42708333,,,,,,FBP-YG-17.png,0.45,1.2,5,0.5,,,,,,,,,,,,,,,,,,0,8,8,4,1,,,,,,,,,,,,,,,,,,,,,,,
,,,,,V3_054,19,F,2024-11-07_16h23.18.011,jersey_experiment_5_v3,2023.2.2,Win32,85.47008547,,,,,,,,,,,,,,,,809.2367,810.5307,810.5307,812.4955,return,0.6278,,22.265625,,,,,,FBP-YG-17.png,0.37,1.2,2,0.5,,,,,,,,,,,,,,,,,,0,9,9,1,1,,,,,,,,,,,,,,,,,,,,,,,
,,,,,V3_054,19,F,2024-11-07_16h23.18.011,jersey_experiment_5_v3,2023.2.2,Win32,85.47008547,,,,,,,,,,,,,,,,812.4957,813.7896,813.7896,815.6956,return,0.802,,7.161458333,,,,,,FBP-PT-81.png,0.37,1.2,22,0.5,,,,,,,,,,,,,,,,,,0,10,10,21,1,,,,,,,,,,,,,,,,,,,,,,,
,,,,,V3_054,19,F,2024-11-07_16h23.18.011,jersey_experiment_5_v3,2023.2.2,Win32,85.47008547,,,,,,,,,,,,,,,,815.6959,816.9898,816.9899,818.7192,return,0.6632,,86.58854167,,,,,,FBP-YG-19.png,0.45,1.2,15,0.5,,,,,,,,,,,,,,,,,,0,11,11,14,1,,,,,,,,,,,,,,,,,,,,,,,
,,,,,V3_054,19,F,2024-11-07_16h23.18.011,jersey_experiment_5_v3,2023.2.2,Win32,85.47008547,,,,,,,,,,,,,,,,818.7195,820.2723,820.2724,821.6958,return,0.5901,,28.25520833,,,,,,FBP-OG-71.png,0.35,1.2,31,0.75,,,,,,,,,,,,,,,,,,0,12,12,30,1,,,,,,,,,,,,,,,,,,,,,,,
,,,,,V3_054,19,F,2024-11-07_16h23.18.011,jersey_experiment_5_v3,2023.2.2,Win32,85.47008547,,,,,,,,,,,,,,,,821.6961,822.99,822.99,824.4134,return,0.6258,,14.0625,,,,,,FBP-RB-81.png,0.35,1.2,51,0.5,,,,,,,,,,,,,,,,,,0,13,13,50,1,,,,,,,,,,,,,,,,,,,,,,,
,,,,,V3_054,19,F,2024-11-07_16h23.18.011,jersey_experiment_5_v3,2023.2.2,Win32,85.47008547,,,,,,,,,,,,,,,,824.4137,825.7077,825.7078,827.8373,return,0.5911,,39.97395833,,,,,,FBP-RB-71.png,0.37,1.2,47,0.5,,,,,,,,,,,,,,,,,,0,14,14,46,1,,,,,,,,,,,,,,,,,,,,,,,
,,,,,V3_054,19,F,2024-11-07_16h23.18.011,jersey_experiment_5_v3,2023.2.2,Win32,85.47008547,,,,,,,,,,,,,,,,827.8375,829.1315,829.1316,831.7549,return,0.5813,,69.66145833,,,,,,FBP-RB-81.png,0.43,1.2,54,0.5,,,,,,,,,,,,,,,,,,0,15,15,53,1,,,,,,,,,,,,,,,,,,,,,,,
,,,,,V3_054,19,F,2024-11-07_16h23.18.011,jersey_experiment_5_v3,2023.2.2,Win32,85.47008547,,,,,,,,,,,,,,,,831.7551,833.0493,833.0493,834.7081,return,0.6116,,59.63541667,,,,,,FBP-PT-91.png,0.37,1.2,27,0.5,,,,,,,,,,,,,,,,,,0,16,16,26,1,,,,,,,,,,,,,,,,,,,,,,,
,,,,,V3_054,19,F,2024-11-07_16h23.18.011,jersey_experiment_5_v3,2023.2.2,Win32,85.47008547,,,,,,,,,,,,,,,,834.7083,836.0022,836.0022,838.014,return,0.7218,,70.57291667,,,,,,FBP-RB-91.png,0.4,1.2,58,0.5,,,,,,,,,,,,,,,,,,0,17,17,57,1,,,,,,,,,,,,,,,,,,,,,,,
,,,,,V3_054,19,F,2024-11-07_16h23.18.011,jersey_experiment_5_v3,2023.2.2,Win32,85.47008547,,,,,,,,,,,,,,,,838.0142,839.3085,839.3085,840.8376,return,0.6825,,94.140625,,,,,,FBP-YG-18.png,0.45,1.2,10,0.5,,,,,,,,,,,,,,,,,,0,18,18,9,1,,,,,,,,,,,,,,,,,,,,,,,
,,,,,V3_054,19,F,2024-11-07_16h23.18.011,jersey_experiment_5_v3,2023.2.2,Win32,85.47008547,,,,,,,,,,,,,,,,840.8378,842.1319,842.1319,844.6142,return,0.6512,,36.45833333,,,,,,FBP-RB-81.png,0.4,1.2,53,0.5,,,,,,,,,,,,,,,,,,0,19,19,52,1,,,,,,,,,,,,,,,,,,,,,,,
,,,,,V3_054,19,F,2024-11-07_16h23.18.011,jersey_experiment_5_v3,2023.2.2,Win32,85.47008547,,,,,,,,,,,,,,,,844.6145,845.9084,845.9085,847.4144,return,0.5806,,25.390625,,,,,,FBP-RB-81.png,0.37,1.2,52,0.5,,,,,,,,,,,,,,,,,,0,20,20,51,1,,,,,,,,,,,,,,,,,,,,,,,
,,,,,V3_054,19,F,2024-11-07_16h23.18.011,jersey_experiment_5_v3,2023.2.2,Win32,85.47008547,,,,,,,,,,,,,,,,847.4147,848.9674,848.9674,850.8969,return,0.5642,,22.91666667,,,,,,FBP-OG-71.png,0.37,1.2,32,0.75,,,,,,,,,,,,,,,,,,0,21,21,31,1,,,,,,,,,,,,,,,,,,,,,,,
,,,,,V3_054,19,F,2024-11-07_16h23.18.011,jersey_experiment_5_v3,2023.2.2,Win32,85.47008547,,,,,,,,,,,,,,,,850.8972,852.4501,852.4502,853.9792,return,0.5846,,94.53125,,,,,,FBP-OG-91.png,0.45,1.2,45,0.75,,,,,,,,,,,,,,,,,,0,22,22,44,1,,,,,,,,,,,,,,,,,,,,,,,
,,,,,V3_054,19,F,2024-11-07_16h23.18.011,jersey_experiment_5_v3,2023.2.2,Win32,85.47008547,,,,,,,,,,,,,,,,853.9795,855.5325,855.5326,857.1323,return,0.5935,,25.390625,,,,,,FBP-OG-91.png,0.4,1.2,43,0.75,,,,,,,,,,,,,,,,,,0,23,23,42,1,,,,,,,,,,,,,,,,,,,,,,,
,,,,,V3_054,19,F,2024-11-07_16h23.18.011,jersey_experiment_5_v3,2023.2.2,Win32,85.47008547,,,,,,,,,,,,,,,,857.1326,858.6856,858.6856,860.462,return,0.6173,,69.921875,,,,,,FBP-OG-71.png,0.43,1.2,34,0.75,,,,,,,,,,,,,,,,,,0,24,24,33,1,,,,,,,,,,,,,,,,,,,,,,,
,,,,,V3_054,19,F,2024-11-07_16h23.18.011,jersey_experiment_5_v3,2023.2.2,Win32,85.47008547,,,,,,,,,,,,,,,,860.4623,861.756,861.7562,863.3444,return,0.6031,,2.604166667,,,,,,FBP-PT-91.png,0.35,1.2,26,0.5,,,,,,,,,,,,,,,,,,0,25,25,25,1,,,,,,,,,,,,,,,,,,,,,,,
,,,,,V3_054,19,F,2024-11-07_16h23.18.011,jersey_experiment_5_v3,2023.2.2,Win32,85.47008547,,,,,,,,,,,,,,,,863.3446,864.8976,864.8976,866.4033,return,0.5548,,12.36979167,,,,,,FBP-OG-81.png,0.37,1.2,37,0.75,,,,,,,,,,,,,,,,,,0,26,26,36,1,,,,,,,,,,,,,,,,,,,,,,,
,,,,,V3_054,19,F,2024-11-07_16h23.18.011,jersey_experiment_5_v3,2023.2.2,Win32,85.47008547,,,,,,,,,,,,,,,,866.4036,867.6975,867.6975,869.0269,return,0.5047,,11.58854167,,,,,,FBP-YG-19.png,0.37,1.2,12,0.5,,,,,,,,,,,,,,,,,,0,27,27,11,1,,,,,,,,,,,,,,,,,,,,,,,
,,,,,V3_054,19,F,2024-11-07_16h23.18.011,jersey_experiment_5_v3,2023.2.2,Win32,85.47008547,,,,,,,,,,,,,,,,869.0272,870.3212,870.3212,871.5565,return,0.5778,,4.166666667,,,,,,FBP-YG-17.png,0.35,1.2,1,0.5,,,,,,,,,,,,,,,,,,0,28,28,0,1,,,,,,,,,,,,,,,,,,,,,,,
,,,,,V3_054,19,F,2024-11-07_16h23.18.011,jersey_experiment_5_v3,2023.2.2,Win32,85.47008547,,,,,,,,,,,,,,,,871.5567,872.8506,872.8507,881.9569,return,1.333,,0.260416667,,,,,,FBP-YG-18.png,0.35,1.2,6,0.5,,,,,,,,,,,,,,,,,,0,29,29,5,1,,,,,,,,,,,,,,,,,,,,,,,
,,,,,V3_054,19,F,2024-11-07_16h23.18.011,jersey_experiment_5_v3,2023.2.2,Win32,85.47008547,,,,,,,,,,,,,,,,881.9572,883.2511,883.2511,885.0746,return,0.5999,,79.03645833,,,,,,FBP-RB-91.png,0.45,1.2,60,0.5,,,,,,,,,,,,,,,,,,0,30,30,59,1,,,,,,,,,,,,,,,,,,,,,,,
,,,,,V3_054,19,F,2024-11-07_16h23.18.011,jersey_experiment_5_v3,2023.2.2,Win32,85.47008547,,,,,,,,,,,,,,,,885.0749,886.3689,886.3689,887.6512,return,0.5568,,80.33854167,,,,,,FBP-PT-71.png,0.4,1.2,18,0.5,,,,,,,,,,,,,,,,,,0,31,31,17,1,,,,,,,,,,,,,,,,,,,,,,,
,,,,,V3_054,19,F,2024-11-07_16h23.18.011,jersey_experiment_5_v3,2023.2.2,Win32,85.47008547,,,,,,,,,,,,,,,,887.6515,888.9455,888.9455,890.3572,return,0.5797,,83.46354167,,,,,,FBP-PT-71.png,0.43,1.2,19,0.5,,,,,,,,,,,,,,,,,,0,32,32,18,1,,,,,,,,,,,,,,,,,,,,,,,
,,,,,V3_054,19,F,2024-11-07_16h23.18.011,jersey_experiment_5_v3,2023.2.2,Win32,85.47008547,,,,,,,,,,,,,,,,890.3574,891.6514,891.6514,893.7456,return,0.5547,,63.80208333,,,,,,FBP-YG-18.png,0.4,1.2,8,0.5,,,,,,,,,,,,,,,,,,0,33,33,7,1,,,,,,,,,,,,,,,,,,,,,,,
,,,,,V3_054,19,F,2024-11-07_16h23.18.011,jersey_experiment_5_v3,2023.2.2,Win32,85.47008547,,,,,,,,,,,,,,,,893.7458,895.0397,895.0397,896.6868,return,0.6045,,82.8125,,,,,,FBP-YG-18.png,0.43,1.2,9,0.5,,,,,,,,,,,,,,,,,,0,34,34,8,1,,,,,,,,,,,,,,,,,,,,,,,
,,,,,V3_054,19,F,2024-11-07_16h23.18.011,jersey_experiment_5_v3,2023.2.2,Win32,85.47008547,,,,,,,,,,,,,,,,896.687,898.24,898.24,900.3693,return,0.576,,20.3125,,,,,,FBP-OG-91.png,0.35,1.2,41,0.75,,,,,,,,,,,,,,,,,,0,35,35,40,1,,,,,,,,,,,,,,,,,,,,,,,
,,,,,V3_054,19,F,2024-11-07_16h23.18.011,jersey_experiment_5_v3,2023.2.2,Win32,85.47008547,,,,,,,,,,,,,,,,900.3696,901.6634,901.6635,903.3575,return,0.594,,88.02083333,,,,,,FBP-RB-71.png,0.43,1.2,49,0.5,,,,,,,,,,,,,,,,,,0,36,36,48,1,,,,,,,,,,,,,,,,,,,,,,,
,,,,,V3_054,19,F,2024-11-07_16h23.18.011,jersey_experiment_5_v3,2023.2.2,Win32,85.47008547,,,,,,,,,,,,,,,,903.3578,904.6517,904.6518,908.7342,return,1.6405,,94.66145833,,,,,,FBP-RB-91.png,0.43,1.2,59,0.5,,,,,,,,,,,,,,,,,,0,37,37,58,1,,,,,,,,,,,,,,,,,,,,,,,
,,,,,V3_054,19,F,2024-11-07_16h23.18.011,jersey_experiment_5_v3,2023.2.2,Win32,85.47008547,,,,,,,,,,,,,,,,908.7345,910.0285,910.0285,911.8756,return,0.7395,,5.989583333,,,,,,FBP-RB-91.png,0.37,1.2,57,0.5,,,,,,,,,,,,,,,,,,0,38,38,56,1,,,,,,,,,,,,,,,,,,,,,,,
,,,,,V3_054,19,F,2024-11-07_16h23.18.011,jersey_experiment_5_v3,2023.2.2,Win32,85.47008547,,,,,,,,,,,,,,,,911.8758,913.1697,913.1697,917.7228,return,0.7732,,63.41145833,,,,,,FBP-YG-19.png,0.4,1.2,13,0.5,,,,,,,,,,,,,,,,,,0,39,39,12,1,,,,,,,,,,,,,,,,,,,,,,,
,,,,,V3_054,19,F,2024-11-07_16h23.18.011,jersey_experiment_5_v3,2023.2.2,Win32,85.47008547,,,,,,,,,,,,,,,,917.7231,919.0171,919.0171,920.5582,return,0.721,,85.02604167,,,,,,FBP-YG-17.png,0.43,1.2,4,0.5,,,,,,,,,,,,,,,,,,0,40,40,3,1,,,,,,,,,,,,,,,,,,,,,,,
,,,,,V3_054,19,F,2024-11-07_16h23.18.011,jersey_experiment_5_v3,2023.2.2,Win32,85.47008547,,,,,,,,,,,,,,,,920.5586,921.8524,921.8526,924.3232,return,0.5885,,36.58854167,,,,,,FBP-PT-81.png,0.4,1.2,23,0.5,,,,,,,,,,,,,,,,,,0,41,41,22,1,,,,,,,,,,,,,,,,,,,,,,,
,,,,,V3_054,19,F,2024-11-07_16h23.18.011,jersey_experiment_5_v3,2023.2.2,Win32,85.47008547,,,,,,,,,,,,,,,,924.3236,925.8763,925.8763,927.4409,return,0.5789,,79.03645833,,,,,,FBP-OG-81.png,0.43,1.2,39,0.75,,,,,,,,,,,,,,,,,,0,42,42,38,1,,,,,,,,,,,,,,,,,,,,,,,
,,,,,V3_054,19,F,2024-11-07_16h23.18.011,jersey_experiment_5_v3,2023.2.2,Win32,85.47008547,,,,,,,,,,,,,,,,927.4411,928.994,928.9941,930.1822,return,0.5497,,54.42708333,,,,,,FBP-OG-71.png,0.4,1.2,33,0.75,,,,,,,,,,,,,,,,,,0,43,43,32,1,,,,,,,,,,,,,,,,,,,,,,,
,,,,,V3_054,19,F,2024-11-07_16h23.18.011,jersey_experiment_5_v3,2023.2.2,Win32,85.47008547,,,,,,,,,,,,,,,,930.1824,931.4763,931.4764,933.0529,return,0.6052,,18.48958333,,,,,,FBP-YG-18.png,0.37,1.2,7,0.5,,,,,,,,,,,,,,,,,,0,44,44,6,1,,,,,,,,,,,,,,,,,,,,,,,
,,,,,V3_054,19,F,2024-11-07_16h23.18.011,jersey_experiment_5_v3,2023.2.2,Win32,85.47008547,,,,,,,,,,,,,,,,933.0532,934.606,934.6061,936.0059,return,0.5416,,94.53125,,,,,,FBP-OG-71.png,0.45,1.2,35,0.75,,,,,,,,,,,,,,,,,,0,45,45,34,1,,,,,,,,,,,,,,,,,,,,,,,
,,,,,V3_054,19,F,2024-11-07_16h23.18.011,jersey_experiment_5_v3,2023.2.2,Win32,85.47008547,,,,,,,,,,,,,,,,936.0062,937.3,937.3001,938.7002,return,0.5251,,95.96354167,,,,,,FBP-PT-81.png,0.45,1.2,25,0.5,,,,,,,,,,,,,,,,,,0,46,46,24,1,,,,,,,,,,,,,,,,,,,,,,,
,,,,,V3_054,19,F,2024-11-07_16h23.18.011,jersey_experiment_5_v3,2023.2.2,Win32,85.47008547,,,,,,,,,,,,,,,,938.7004,939.9943,939.9943,942.4649,return,0.6142,,9.765625,,,,,,FBP-RB-71.png,0.35,1.2,46,0.5,,,,,,,,,,,,,,,,,,0,47,47,45,1,,,,,,,,,,,,,,,,,,,,,,,
,,,,,V3_054,19,F,2024-11-07_16h23.18.011,jersey_experiment_5_v3,2023.2.2,Win32,85.47008547,,,,,,,,,,,,,,,,942.4652,943.7591,943.7591,945.3709,return,0.5615,,93.359375,,,,,,FBP-PT-71.png,0.45,1.2,20,0.5,,,,,,,,,,,,,,,,,,0,48,48,19,1,,,,,,,,,,,,,,,,,,,,,,,
,,,,,V3_054,19,F,2024-11-07_16h23.18.011,jersey_experiment_5_v3,2023.2.2,Win32,85.47008547,,,,,,,,,,,,,,,,945.3712,946.6652,946.6653,948.3475,return,0.6431,,97.39583333,,,,,,FBP-RB-71.png,0.45,1.2,50,0.5,,,,,,,,,,,,,,,,,,0,49,49,49,1,,,,,,,,,,,,,,,,,,,,,,,
,,,,,V3_054,19,F,2024-11-07_16h23.18.011,jersey_experiment_5_v3,2023.2.2,Win32,85.47008547,,,,,,,,,,,,,,,,948.3478,949.9005,949.9006,952.3242,return,0.6221,,7.161458333,,,,,,FBP-OG-81.png,0.35,1.2,36,0.75,,,,,,,,,,,,,,,,,,0,50,50,35,1,,,,,,,,,,,,,,,,,,,,,,,
,,,,,V3_054,19,F,2024-11-07_16h23.18.011,jersey_experiment_5_v3,2023.2.2,Win32,85.47008547,,,,,,,,,,,,,,,,952.3245,953.6183,953.6183,955.7595,return,0.5784,,57.55208333,,,,,,FBP-PT-91.png,0.4,1.2,28,0.5,,,,,,,,,,,,,,,,,,0,51,51,27,1,,,,,,,,,,,,,,,,,,,,,,,
,,,,,V3_054,19,F,2024-11-07_16h23.18.011,jersey_experiment_5_v3,2023.2.2,Win32,85.47008547,,,,,,,,,,,,,,,,955.7598,957.3126,957.3126,958.6068,return,0.6265,,30.59895833,,,,,,FBP-OG-91.png,0.37,1.2,42,0.75,,,,,,,,,,,,,,,,,,0,52,52,41,1,,,,,,,,,,,,,,,,,,,,,,,
,,,,,V3_054,19,F,2024-11-07_16h23.18.011,jersey_experiment_5_v3,2023.2.2,Win32,85.47008547,,,,,,,,,,,,,,,,958.6072,959.9009,959.901,961.5715,return,0.5883,,78.515625,,,,,,FBP-YG-19.png,0.43,1.2,14,0.5,,,,,,,,,,,,,,,,,,0,53,53,13,1,,,,,,,,,,,,,,,,,,,,,,,
,,,,,V3_054,19,F,2024-11-07_16h23.18.011,jersey_experiment_5_v3,2023.2.2,Win32,85.47008547,,,,,,,,,,,,,,,,961.5718,962.8658,962.8659,964.7012,return,0.6181,,10.41666667,,,,,,FBP-PT-81.png,0.35,1.2,21,0.5,,,,,,,,,,,,,,,,,,0,54,54,20,1,,,,,,,,,,,,,,,,,,,,,,,
,,,,,V3_054,19,F,2024-11-07_16h23.18.011,jersey_experiment_5_v3,2023.2.2,Win32,85.47008547,,,,,,,,,,,,,,,,964.7015,966.2543,966.2544,968.1249,return,0.9124,,45.703125,,,,,,FBP-OG-81.png,0.4,1.2,38,0.75,,,,,,,,,,,,,,,,,,0,55,55,37,1,,,,,,,,,,,,,,,,,,,,,,,
,,,,,V3_054,19,F,2024-11-07_16h23.18.011,jersey_experiment_5_v3,2023.2.2,Win32,85.47008547,,,,,,,,,,,,,,,,968.1251,969.4188,969.4188,971.6427,return,0.6206,,57.55208333,,,,,,FBP-RB-71.png,0.4,1.2,48,0.5,,,,,,,,,,,,,,,,,,0,56,56,47,1,,,,,,,,,,,,,,,,,,,,,,,
,,,,,V3_054,19,F,2024-11-07_16h23.18.011,jersey_experiment_5_v3,2023.2.2,Win32,85.47008547,,,,,,,,,,,,,,,,971.6429,972.9367,972.9368,975.2779,return,1.5231,,27.60416667,,,,,,FBP-RB-91.png,0.35,1.2,56,0.5,,,,,,,,,,,,,,,,,,0,57,57,55,1,,,,,,,,,,,,,,,,,,,,,,,
,,,,,V3_054,19,F,2024-11-07_16h23.18.011,jersey_experiment_5_v3,2023.2.2,Win32,85.47008547,,,,,,,,,,,,,,,,975.2781,976.5719,976.572,978.2781,return,0.5885,,24.86979167,,,,,,FBP-PT-71.png,0.37,1.2,17,0.5,,,,,,,,,,,,,,,,,,0,58,58,16,1,,,,,,,,,,,,,,,,,,,,,,,
,,,,,V3_054,19,F,2024-11-07_16h23.18.011,jersey_experiment_5_v3,2023.2.2,Win32,85.47008547,,,,,,,,,,,,,,,,978.2784,979.5722,979.5723,981.2782,return,0.5582,,73.69791667,,,,,,FBP-YG-17.png,0.4,1.2,3,0.5,,,,,,,,,,,,,,,,,,0,59,59,2,1,,,,,,,,,,,,,,,,,,,,,,,
,,,,,V3_054,19,F,2024-11-07_16h23.18.011,jersey_experiment_5_v3,2023.2.2,Win32,85.47008547,,,,,,,,,,,,,,,,,,,,,,,,,,,,,,,,,,,,,,,,,,,,,,,,,,,,,,,,981.2784,986.2903,return,5.001,,,,,,,,,,,,,,,,,,,
,,,,,V3_054,19,F,2024-11-07_16h23.18.011,jersey_experiment_5_v3,2023.2.2,Win32,85.47008547,,,,,,,,,,,,,,,,,,,,,,,,,,,,,,,,,,,,,,,,,,,,,,,,,,,,,,,,,,,,,986.2904,990.1256,1,2.4183,return,1.4049,,,,,,,,,,,,
,,,,,V3_054,19,F,2024-11-07_16h23.18.011,jersey_experiment_5_v3,2023.2.2,Win32,85.47008547,,,,,,,,,,,,,,,,,,,,,,,,,,,,,,,,,,,,,,,,,,,,,,,,,,,,,,,,,,,,,,,,,,,,990.1258,1029.4251,it could be about perceptions of size and race,right,22.4245,,,,,,
,,,,,V3_054,19,F,2024-11-07_16h23.18.011,jersey_experiment_5_v3,2023.2.2,Win32,85.47008547,,,,,,,,,,,,,,,,,,,,,,,,,,,,,,,,,,,,,,,,,,,,,,,,,,,,,,,,,,,,,,,,,,,,,,,,,,1029.4251,1034.4026,return,4.9631,