requirements.started,requirements.stopped,key_resp_3.keys,key_resp_3.rt,key_resp_3.duration,Subject ID,Age,Gender,date,expName,psychopyVersion,OS,frameRate,instructions1.started,instructions1.stopped,key_resp.keys,key_resp.rt,key_resp.duration,example.started,example.stopped,enter_2.keys,enter_2.rt,enter_2.duration,instructions2.started,instructions2.stopped,enter_3.keys,enter_3.rt,enter_3.duration,image.started,image.stopped,slider_2.started,slider_2.stopped,next.keys,next.rt,next.duration,slider.response,trial_block_1.thisRepN,trial_block_1.thisTrialN,trial_block_1.thisN,trial_block_1.thisIndex,trial_block_1.ran,Path,Width,Height,Index,Duration,trial_block_2.thisRepN,trial_block_2.thisTrialN,trial_block_2.thisN,trial_block_2.thisIndex,trial_block_2.ran,rest_break.started,rest_break.stopped,end_break.started,end_break.stopped,key_resp_5.keys,key_resp_5.rt,key_resp_5.duration,trial_block_3.thisRepN,trial_block_3.thisTrialN,trial_block_3.thisN,trial_block_3.thisIndex,trial_block_3.ran,trial_block_4.thisRepN,trial_block_4.thisTrialN,trial_block_4.thisN,trial_block_4.thisIndex,trial_block_4.ran,questions_intro.started,questions_intro.stopped,enter_12.keys,enter_12.rt,enter_12.duration,question2.started,question2.stopped,question_doingbest.response,question_doingbest.rt,enter_15.keys,enter_15.rt,enter_15.duration,pattern.started,pattern.stopped,pattern_2.text,enter_17.keys,enter_17.rt,enter_17.duration,thankyou.started,thankyou.stopped,enter_14.keys,enter_14.rt,enter_14.duration
0.0001,18.3886,return,18.3845,,V3_103,20,Female,2025-02-04_16h34.57.956,jersey_experiment_5_v3,2023.2.2,Win32,84.74576271,,,,,,,,,,,,,,,,,,,,,,,,,,,,,,,,,,,,,,,,,,,,,,,,,,,,,,,,,,,,,,,,,,,,,,,,,,,,,,
,,,,,V3_103,20,Female,2025-02-04_16h34.57.956,jersey_experiment_5_v3,2023.2.2,Win32,84.74576271,18.3887,31.0895,return,12.6903,,,,,,,,,,,,,,,,,,,,,,,,,,,,,,,,,,,,,,,,,,,,,,,,,,,,,,,,,,,,,,,,,,,,,,,,,,
,,,,,V3_103,20,Female,2025-02-04_16h34.57.956,jersey_experiment_5_v3,2023.2.2,Win32,84.74576271,,,,,,31.0896,39.4309,return,8.3028,,,,,,,,,,,,,,,,,,,,,,,,,,,,,,,,,,,,,,,,,,,,,,,,,,,,,,,,,,,,,,,,,,,,,
,,,,,V3_103,20,Female,2025-02-04_16h34.57.956,jersey_experiment_5_v3,2023.2.2,Win32,84.74576271,,,,,,,,,,,39.4309,78.0557,return,38.6129,,,,,,,,,,,,,,,,,,,,,,,,,,,,,,,,,,,,,,,,,,,,,,,,,,,,,,,,,,,,,,,,
,,,,,V3_103,20,Female,2025-02-04_16h34.57.956,jersey_experiment_5_v3,2023.2.2,Win32,84.74576271,,,,,,,,,,,,,,,,78.0578,79.6088,79.6088,87.4798,return,3.4034,,74.34895833,0,0,0,14,1,FBP-YG-91.png,0.45,1.2,15,0.75,,,,,,,,,,,,,,,,,,,,,,,,,,,,,,,,,,,,,,,,,,,,,
,,,,,V3_103,20,Female,2025-02-04_16h34.57.956,jersey_experiment_5_v3,2023.2.2,Win32,84.74576271,,,,,,,,,,,,,,,,87.4801,89.0327,89.0327,94.5505,return,1.5322,,50,0,1,1,19,1,FBP-PT-17.png,0.45,1.2,20,0.75,,,,,,,,,,,,,,,,,,,,,,,,,,,,,,,,,,,,,,,,,,,,,
,,,,,V3_103,20,Female,2025-02-04_16h34.57.956,jersey_experiment_5_v3,2023.2.2,Win32,84.74576271,,,,,,,,,,,,,,,,94.5508,96.1034,96.1035,100.5977,return,1.5172,,75.52083333,0,2,2,18,1,FBP-PT-17.png,0.43,1.2,19,0.75,,,,,,,,,,,,,,,,,,,,,,,,,,,,,,,,,,,,,,,,,,,,,
,,,,,V3_103,20,Female,2025-02-04_16h34.57.956,jersey_experiment_5_v3,2023.2.2,Win32,84.74576271,,,,,,,,,,,,,,,,100.598,102.1508,102.1509,106.8098,return,2.3061,,74.34895833,0,3,3,53,1,FBP-RB-18.png,0.43,1.2,54,0.75,,,,,,,,,,,,,,,,,,,,,,,,,,,,,,,,,,,,,,,,,,,,,
,,,,,V3_103,20,Female,2025-02-04_16h34.57.956,jersey_experiment_5_v3,2023.2.2,Win32,84.74576271,,,,,,,,,,,,,,,,106.81,108.3627,108.3627,113.1394,return,2.8873,,24.86979167,0,4,4,0,1,FBP-YG-71.png,0.35,1.2,1,0.75,,,,,,,,,,,,,,,,,,,,,,,,,,,,,,,,,,,,,,,,,,,,,
,,,,,V3_103,20,Female,2025-02-04_16h34.57.956,jersey_experiment_5_v3,2023.2.2,Win32,84.74576271,,,,,,,,,,,,,,,,113.1396,114.4335,114.4336,118.4337,return,2.1725,,24.73958333,0,5,5,31,1,FBP-OG-17.png,0.37,1.2,32,0.5,,,,,,,,,,,,,,,,,,,,,,,,,,,,,,,,,,,,,,,,,,,,,
,,,,,V3_103,20,Female,2025-02-04_16h34.57.956,jersey_experiment_5_v3,2023.2.2,Win32,84.74576271,,,,,,,,,,,,,,,,118.4339,119.9867,119.9868,123.4456,return,1.8965,,0.390625,0,6,6,10,1,FBP-YG-91.png,0.35,1.2,11,0.75,,,,,,,,,,,,,,,,,,,,,,,,,,,,,,,,,,,,,,,,,,,,,
,,,,,V3_103,20,Female,2025-02-04_16h34.57.956,jersey_experiment_5_v3,2023.2.2,Win32,84.74576271,,,,,,,,,,,,,,,,123.4459,124.9986,124.9986,129.0813,return,1.2008,,99.34895833,0,7,7,57,1,FBP-RB-19.png,0.4,1.2,58,0.75,,,,,,,,,,,,,,,,,,,,,,,,,,,,,,,,,,,,,,,,,,,,,
,,,,,V3_103,20,Female,2025-02-04_16h34.57.956,jersey_experiment_5_v3,2023.2.2,Win32,84.74576271,,,,,,,,,,,,,,,,129.0816,130.6342,130.6342,133.6814,return,0.8552,,50.65104167,0,8,8,56,1,FBP-RB-19.png,0.37,1.2,57,0.75,,,,,,,,,,,,,,,,,,,,,,,,,,,,,,,,,,,,,,,,,,,,,
,,,,,V3_103,20,Female,2025-02-04_16h34.57.956,jersey_experiment_5_v3,2023.2.2,Win32,84.74576271,,,,,,,,,,,,,,,,133.6816,135.2343,135.2344,137.9403,return,1.0724,,73.828125,0,9,9,21,1,FBP-PT-18.png,0.37,1.2,22,0.75,,,,,,,,,,,,,,,,,,,,,,,,,,,,,,,,,,,,,,,,,,,,,
,,,,,V3_103,20,Female,2025-02-04_16h34.57.956,jersey_experiment_5_v3,2023.2.2,Win32,84.74576271,,,,,,,,,,,,,,,,137.9407,139.2344,139.2344,142.6112,return,0.899,,98.69791667,0,10,10,33,1,FBP-OG-17.png,0.43,1.2,34,0.5,,,,,,,,,,,,,,,,,,,,,,,,,,,,,,,,,,,,,,,,,,,,,
,,,,,V3_103,20,Female,2025-02-04_16h34.57.956,jersey_experiment_5_v3,2023.2.2,Win32,84.74576271,,,,,,,,,,,,,,,,142.6115,143.9054,143.9055,146.1288,return,0.8318,,50.390625,0,11,11,35,1,FBP-OG-18.png,0.35,1.2,36,0.5,,,,,,,,,,,,,,,,,,,,,,,,,,,,,,,,,,,,,,,,,,,,,
,,,,,V3_103,20,Female,2025-02-04_16h34.57.956,jersey_experiment_5_v3,2023.2.2,Win32,84.74576271,,,,,,,,,,,,,,,,146.129,147.423,147.423,149.9878,return,0.9778,,73.95833333,0,12,12,38,1,FBP-OG-18.png,0.43,1.2,39,0.5,,,,,,,,,,,,,,,,,,,,,,,,,,,,,,,,,,,,,,,,,,,,,
,,,,,V3_103,20,Female,2025-02-04_16h34.57.956,jersey_experiment_5_v3,2023.2.2,Win32,84.74576271,,,,,,,,,,,,,,,,149.988,151.282,151.282,153.682,return,1.3249,,51.171875,0,13,13,30,1,FBP-OG-17.png,0.35,1.2,31,0.5,,,,,,,,,,,,,,,,,,,,,,,,,,,,,,,,,,,,,,,,,,,,,
,,,,,V3_103,20,Female,2025-02-04_16h34.57.956,jersey_experiment_5_v3,2023.2.2,Win32,84.74576271,,,,,,,,,,,,,,,,153.6823,155.235,155.235,157.5059,return,0.9604,,74.47916667,0,14,14,7,1,FBP-YG-81.png,0.4,1.2,8,0.75,,,,,,,,,,,,,,,,,,,,,,,,,,,,,,,,,,,,,,,,,,,,,
,,,,,V3_103,20,Female,2025-02-04_16h34.57.956,jersey_experiment_5_v3,2023.2.2,Win32,84.74576271,,,,,,,,,,,,,,,,157.5061,158.8,158.8,161.106,return,0.8659,,50,0,15,15,40,1,FBP-OG-19.png,0.35,1.2,41,0.5,,,,,,,,,,,,,,,,,,,,,,,,,,,,,,,,,,,,,,,,,,,,,
,,,,,V3_103,20,Female,2025-02-04_16h34.57.956,jersey_experiment_5_v3,2023.2.2,Win32,84.74576271,,,,,,,,,,,,,,,,161.1062,162.659,162.6592,165.3178,return,1.0513,,74.34895833,0,16,16,13,1,FBP-YG-91.png,0.43,1.2,14,0.75,,,,,,,,,,,,,,,,,,,,,,,,,,,,,,,,,,,,,,,,,,,,,
,,,,,V3_103,20,Female,2025-02-04_16h34.57.956,jersey_experiment_5_v3,2023.2.2,Win32,84.74576271,,,,,,,,,,,,,,,,165.3181,166.8709,166.8709,170.9651,return,1.1688,,74.609375,0,17,17,47,1,FBP-RB-17.png,0.4,1.2,48,0.75,,,,,,,,,,,,,,,,,,,,,,,,,,,,,,,,,,,,,,,,,,,,,
,,,,,V3_103,20,Female,2025-02-04_16h34.57.956,jersey_experiment_5_v3,2023.2.2,Win32,84.74576271,,,,,,,,,,,,,,,,170.9654,172.5181,172.5181,175.6242,return,1.0828,,75.65104167,0,18,18,22,1,FBP-PT-18.png,0.4,1.2,23,0.75,,,,,,,,,,,,,,,,,,,,,,,,,,,,,,,,,,,,,,,,,,,,,
,,,,,V3_103,20,Female,2025-02-04_16h34.57.956,jersey_experiment_5_v3,2023.2.2,Win32,84.74576271,,,,,,,,,,,,,,,,175.6244,177.177,177.1771,179.1302,return,0.813,,99.86979167,0,19,19,54,1,FBP-RB-18.png,0.45,1.2,55,0.75,,,,,,,,,,,,,,,,,,,,,,,,,,,,,,,,,,,,,,,,,,,,,
,,,,,V3_103,20,Female,2025-02-04_16h34.57.956,jersey_experiment_5_v3,2023.2.2,Win32,84.74576271,,,,,,,,,,,,,,,,179.1304,180.4242,180.4242,184.3421,return,1.0727,,75.13020833,0,20,20,42,1,FBP-OG-19.png,0.4,1.2,43,0.5,,,,,,,,,,,,,,,,,,,,,,,,,,,,,,,,,,,,,,,,,,,,,
,,,,,V3_103,20,Female,2025-02-04_16h34.57.956,jersey_experiment_5_v3,2023.2.2,Win32,84.74576271,,,,,,,,,,,,,,,,184.3423,185.895,185.8951,187.6363,return,0.8991,,74.73958333,0,21,21,12,1,FBP-YG-91.png,0.4,1.2,13,0.75,,,,,,,,,,,,,,,,,,,,,,,,,,,,,,,,,,,,,,,,,,,,,
,,,,,V3_103,20,Female,2025-02-04_16h34.57.956,jersey_experiment_5_v3,2023.2.2,Win32,84.74576271,,,,,,,,,,,,,,,,187.6366,189.1893,189.1893,191.0952,return,0.9667,,74.609375,0,22,22,8,1,FBP-YG-81.png,0.43,1.2,9,0.75,,,,,,,,,,,,,,,,,,,,,,,,,,,,,,,,,,,,,,,,,,,,,
,,,,,V3_103,20,Female,2025-02-04_16h34.57.956,jersey_experiment_5_v3,2023.2.2,Win32,84.74576271,,,,,,,,,,,,,,,,191.0955,192.6483,192.6483,195.7071,return,1.2949,,24.86979167,0,23,23,45,1,FBP-RB-17.png,0.35,1.2,46,0.75,,,,,,,,,,,,,,,,,,,,,,,,,,,,,,,,,,,,,,,,,,,,,
,,,,,V3_103,20,Female,2025-02-04_16h34.57.956,jersey_experiment_5_v3,2023.2.2,Win32,84.74576271,,,,,,,,,,,,,,,,195.7074,197.0013,197.0014,200.2016,return,1.9531,,98.30729167,0,24,24,44,1,FBP-OG-19.png,0.45,1.2,45,0.5,,,,,,,,,,,,,,,,,,,,,,,,,,,,,,,,,,,,,,,,,,,,,
,,,,,V3_103,20,Female,2025-02-04_16h34.57.956,jersey_experiment_5_v3,2023.2.2,Win32,84.74576271,,,,,,,,,,,,,,,,200.2018,201.7544,201.7544,203.9311,return,0.8954,,98.69791667,0,25,25,9,1,FBP-YG-81.png,0.45,1.2,10,0.75,,,,,,,,,,,,,,,,,,,,,,,,,,,,,,,,,,,,,,,,,,,,,
,,,,,V3_103,20,Female,2025-02-04_16h34.57.956,jersey_experiment_5_v3,2023.2.2,Win32,84.74576271,,,,,,,,,,,,,,,,203.9313,205.4843,205.4843,215.2727,return,7.8813,,66.53645833,0,26,26,27,1,FBP-PT-19.png,0.4,1.2,28,0.75,,,,,,,,,,,,,,,,,,,,,,,,,,,,,,,,,,,,,,,,,,,,,
,,,,,V3_103,20,Female,2025-02-04_16h34.57.956,jersey_experiment_5_v3,2023.2.2,Win32,84.74576271,,,,,,,,,,,,,,,,215.2729,216.8257,216.8257,223.0613,return,4.7061,,63.80208333,0,27,27,23,1,FBP-PT-18.png,0.43,1.2,24,0.75,,,,,,,,,,,,,,,,,,,,,,,,,,,,,,,,,,,,,,,,,,,,,
,,,,,V3_103,20,Female,2025-02-04_16h34.57.956,jersey_experiment_5_v3,2023.2.2,Win32,84.74576271,,,,,,,,,,,,,,,,223.0615,224.6144,224.6145,230.8851,return,1.3926,,35.15625,0,28,28,55,1,FBP-RB-19.png,0.35,1.2,56,0.75,,,,,,,,,,,,,,,,,,,,,,,,,,,,,,,,,,,,,,,,,,,,,
,,,,,V3_103,20,Female,2025-02-04_16h34.57.956,jersey_experiment_5_v3,2023.2.2,Win32,84.74576271,,,,,,,,,,,,,,,,230.8852,232.179,232.179,236.1676,return,1.0344,,87.890625,0,29,29,39,1,FBP-OG-18.png,0.45,1.2,40,0.5,,,,,,,,,,,,,,,,,,,,,,,,,,,,,,,,,,,,,,,,,,,,,
,,,,,V3_103,20,Female,2025-02-04_16h34.57.956,jersey_experiment_5_v3,2023.2.2,Win32,84.74576271,,,,,,,,,,,,,,,,236.1678,237.7206,237.7206,244.0267,return,1.0847,,78.515625,0,30,30,3,1,FBP-YG-71.png,0.43,1.2,4,0.75,,,,,,,,,,,,,,,,,,,,,,,,,,,,,,,,,,,,,,,,,,,,,
,,,,,V3_103,20,Female,2025-02-04_16h34.57.956,jersey_experiment_5_v3,2023.2.2,Win32,84.74576271,,,,,,,,,,,,,,,,244.0269,245.5796,245.5797,249.8975,return,0.9489,,70.57291667,0,31,31,52,1,FBP-RB-18.png,0.4,1.2,53,0.75,,,,,,,,,,,,,,,,,,,,,,,,,,,,,,,,,,,,,,,,,,,,,
,,,,,V3_103,20,Female,2025-02-04_16h34.57.956,jersey_experiment_5_v3,2023.2.2,Win32,84.74576271,,,,,,,,,,,,,,,,249.8978,251.4507,251.4507,255.4153,return,0.8235,,45.96354167,0,32,32,6,1,FBP-YG-81.png,0.37,1.2,7,0.75,,,,,,,,,,,,,,,,,,,,,,,,,,,,,,,,,,,,,,,,,,,,,
,,,,,V3_103,20,Female,2025-02-04_16h34.57.956,jersey_experiment_5_v3,2023.2.2,Win32,84.74576271,,,,,,,,,,,,,,,,255.4155,256.7095,256.7096,261.5214,return,2.2903,,67.31770833,0,33,33,43,1,FBP-OG-19.png,0.43,1.2,44,0.5,,,,,,,,,,,,,,,,,,,,,,,,,,,,,,,,,,,,,,,,,,,,,
,,,,,V3_103,20,Female,2025-02-04_16h34.57.956,jersey_experiment_5_v3,2023.2.2,Win32,84.74576271,,,,,,,,,,,,,,,,261.5218,263.0747,263.0747,268.6511,return,0.7617,,60.02604167,0,34,34,1,1,FBP-YG-71.png,0.37,1.2,2,0.75,,,,,,,,,,,,,,,,,,,,,,,,,,,,,,,,,,,,,,,,,,,,,
,,,,,V3_103,20,Female,2025-02-04_16h34.57.956,jersey_experiment_5_v3,2023.2.2,Win32,84.74576271,,,,,,,,,,,,,,,,268.6513,270.2041,270.2042,272.9219,return,1.0133,,79.16666667,0,35,35,46,1,FBP-RB-17.png,0.37,1.2,47,0.75,,,,,,,,,,,,,,,,,,,,,,,,,,,,,,,,,,,,,,,,,,,,,
,,,,,V3_103,20,Female,2025-02-04_16h34.57.956,jersey_experiment_5_v3,2023.2.2,Win32,84.74576271,,,,,,,,,,,,,,,,272.9221,274.475,274.475,276.5925,return,0.8311,,90.36458333,0,36,36,24,1,FBP-PT-18.png,0.45,1.2,25,0.75,,,,,,,,,,,,,,,,,,,,,,,,,,,,,,,,,,,,,,,,,,,,,
,,,,,V3_103,20,Female,2025-02-04_16h34.57.956,jersey_experiment_5_v3,2023.2.2,Win32,84.74576271,,,,,,,,,,,,,,,,276.5928,278.1457,278.1457,283.2048,return,0.9663,,50.78125,0,37,37,51,1,FBP-RB-18.png,0.37,1.2,52,0.75,,,,,,,,,,,,,,,,,,,,,,,,,,,,,,,,,,,,,,,,,,,,,
,,,,,V3_103,20,Female,2025-02-04_16h34.57.956,jersey_experiment_5_v3,2023.2.2,Win32,84.74576271,,,,,,,,,,,,,,,,283.2051,284.7576,284.7577,287.2989,return,1.0401,,44.66145833,0,38,38,11,1,FBP-YG-91.png,0.37,1.2,12,0.75,,,,,,,,,,,,,,,,,,,,,,,,,,,,,,,,,,,,,,,,,,,,,
,,,,,V3_103,20,Female,2025-02-04_16h34.57.956,jersey_experiment_5_v3,2023.2.2,Win32,84.74576271,,,,,,,,,,,,,,,,287.2991,288.8521,288.8521,292.4167,return,1.9378,,40.88541667,0,39,39,5,1,FBP-YG-81.png,0.35,1.2,6,0.75,,,,,,,,,,,,,,,,,,,,,,,,,,,,,,,,,,,,,,,,,,,,,
,,,,,V3_103,20,Female,2025-02-04_16h34.57.956,jersey_experiment_5_v3,2023.2.2,Win32,84.74576271,,,,,,,,,,,,,,,,292.4169,293.9698,293.9699,301.0641,return,4.8859,,56.77083333,0,40,40,16,1,FBP-PT-17.png,0.37,1.2,17,0.75,,,,,,,,,,,,,,,,,,,,,,,,,,,,,,,,,,,,,,,,,,,,,
,,,,,V3_103,20,Female,2025-02-04_16h34.57.956,jersey_experiment_5_v3,2023.2.2,Win32,84.74576271,,,,,,,,,,,,,,,,301.0643,302.6172,302.6173,305.0289,return,1.3218,,60.41666667,0,41,41,26,1,FBP-PT-19.png,0.37,1.2,27,0.75,,,,,,,,,,,,,,,,,,,,,,,,,,,,,,,,,,,,,,,,,,,,,
,,,,,V3_103,20,Female,2025-02-04_16h34.57.956,jersey_experiment_5_v3,2023.2.2,Win32,84.74576271,,,,,,,,,,,,,,,,305.0291,306.5819,306.5819,309.7469,return,0.9916,,64.97395833,0,42,42,48,1,FBP-RB-17.png,0.43,1.2,49,0.75,,,,,,,,,,,,,,,,,,,,,,,,,,,,,,,,,,,,,,,,,,,,,
,,,,,V3_103,20,Female,2025-02-04_16h34.57.956,jersey_experiment_5_v3,2023.2.2,Win32,84.74576271,,,,,,,,,,,,,,,,309.7471,311.2999,311.2999,315.2058,return,0.98,,81.640625,0,43,43,49,1,FBP-RB-17.png,0.45,1.2,50,0.75,,,,,,,,,,,,,,,,,,,,,,,,,,,,,,,,,,,,,,,,,,,,,
,,,,,V3_103,20,Female,2025-02-04_16h34.57.956,jersey_experiment_5_v3,2023.2.2,Win32,84.74576271,,,,,,,,,,,,,,,,315.206,316.5,316.5,319.2531,return,0.8396,,42.44791667,0,44,44,36,1,FBP-OG-18.png,0.37,1.2,37,0.5,,,,,,,,,,,,,,,,,,,,,,,,,,,,,,,,,,,,,,,,,,,,,
,,,,,V3_103,20,Female,2025-02-04_16h34.57.956,jersey_experiment_5_v3,2023.2.2,Win32,84.74576271,,,,,,,,,,,,,,,,319.2533,320.5473,320.5473,323.3944,return,0.9226,,69.140625,0,45,45,34,1,FBP-OG-17.png,0.45,1.2,35,0.5,,,,,,,,,,,,,,,,,,,,,,,,,,,,,,,,,,,,,,,,,,,,,
,,,,,V3_103,20,Female,2025-02-04_16h34.57.956,jersey_experiment_5_v3,2023.2.2,Win32,84.74576271,,,,,,,,,,,,,,,,323.3947,324.6885,324.6887,328.6887,return,1.4882,,52.60416667,0,46,46,41,1,FBP-OG-19.png,0.37,1.2,42,0.5,,,,,,,,,,,,,,,,,,,,,,,,,,,,,,,,,,,,,,,,,,,,,
,,,,,V3_103,20,Female,2025-02-04_16h34.57.956,jersey_experiment_5_v3,2023.2.2,Win32,84.74576271,,,,,,,,,,,,,,,,328.6889,329.9829,329.9829,332.8066,return,1.1088,,56.25,0,47,47,32,1,FBP-OG-17.png,0.4,1.2,33,0.5,,,,,,,,,,,,,,,,,,,,,,,,,,,,,,,,,,,,,,,,,,,,,
,,,,,V3_103,20,Female,2025-02-04_16h34.57.956,jersey_experiment_5_v3,2023.2.2,Win32,84.74576271,,,,,,,,,,,,,,,,332.8069,334.3596,334.3597,337.3832,return,0.9304,,55.46875,0,48,48,17,1,FBP-PT-17.png,0.4,1.2,18,0.75,,,,,,,,,,,,,,,,,,,,,,,,,,,,,,,,,,,,,,,,,,,,,
,,,,,V3_103,20,Female,2025-02-04_16h34.57.956,jersey_experiment_5_v3,2023.2.2,Win32,84.74576271,,,,,,,,,,,,,,,,337.3834,338.9361,338.9362,343.2657,return,1.6428,,76.82291667,0,49,49,58,1,FBP-RB-19.png,0.43,1.2,59,0.75,,,,,,,,,,,,,,,,,,,,,,,,,,,,,,,,,,,,,,,,,,,,,
,,,,,V3_103,20,Female,2025-02-04_16h34.57.956,jersey_experiment_5_v3,2023.2.2,Win32,84.74576271,,,,,,,,,,,,,,,,343.2659,344.5598,344.5598,349.1249,return,1.8746,,56.38020833,0,50,50,37,1,FBP-OG-18.png,0.4,1.2,38,0.5,,,,,,,,,,,,,,,,,,,,,,,,,,,,,,,,,,,,,,,,,,,,,
,,,,,V3_103,20,Female,2025-02-04_16h34.57.956,jersey_experiment_5_v3,2023.2.2,Win32,84.74576271,,,,,,,,,,,,,,,,349.1253,350.678,350.6781,353.4309,return,0.8863,,72.52604167,0,51,51,29,1,FBP-PT-19.png,0.45,1.2,30,0.75,,,,,,,,,,,,,,,,,,,,,,,,,,,,,,,,,,,,,,,,,,,,,
,,,,,V3_103,20,Female,2025-02-04_16h34.57.956,jersey_experiment_5_v3,2023.2.2,Win32,84.74576271,,,,,,,,,,,,,,,,353.4311,354.9839,354.984,358.6662,return,0.9885,,37.5,0,52,52,20,1,FBP-PT-18.png,0.35,1.2,21,0.75,,,,,,,,,,,,,,,,,,,,,,,,,,,,,,,,,,,,,,,,,,,,,
,,,,,V3_103,20,Female,2025-02-04_16h34.57.956,jersey_experiment_5_v3,2023.2.2,Win32,84.74576271,,,,,,,,,,,,,,,,358.6664,360.2195,360.2195,366.1606,return,4.6323,,71.61458333,0,53,53,59,1,FBP-RB-19.png,0.45,1.2,60,0.75,,,,,,,,,,,,,,,,,,,,,,,,,,,,,,,,,,,,,,,,,,,,,
,,,,,V3_103,20,Female,2025-02-04_16h34.57.956,jersey_experiment_5_v3,2023.2.2,Win32,84.74576271,,,,,,,,,,,,,,,,366.1609,367.7137,367.7137,370.5374,return,1.3408,,70.96354167,0,54,54,2,1,FBP-YG-71.png,0.4,1.2,3,0.75,,,,,,,,,,,,,,,,,,,,,,,,,,,,,,,,,,,,,,,,,,,,,
,,,,,V3_103,20,Female,2025-02-04_16h34.57.956,jersey_experiment_5_v3,2023.2.2,Win32,84.74576271,,,,,,,,,,,,,,,,370.5376,372.0904,372.0904,375.6669,return,1.5945,,78.90625,0,55,55,28,1,FBP-PT-19.png,0.43,1.2,29,0.75,,,,,,,,,,,,,,,,,,,,,,,,,,,,,,,,,,,,,,,,,,,,,
,,,,,V3_103,20,Female,2025-02-04_16h34.57.956,jersey_experiment_5_v3,2023.2.2,Win32,84.74576271,,,,,,,,,,,,,,,,375.6671,377.2201,377.2202,382.1849,return,2.0391,,41.796875,0,56,56,25,1,FBP-PT-19.png,0.35,1.2,26,0.75,,,,,,,,,,,,,,,,,,,,,,,,,,,,,,,,,,,,,,,,,,,,,
,,,,,V3_103,20,Female,2025-02-04_16h34.57.956,jersey_experiment_5_v3,2023.2.2,Win32,84.74576271,,,,,,,,,,,,,,,,382.1852,383.7379,383.738,389.4322,return,2.0368,,54.81770833,0,57,57,15,1,FBP-PT-17.png,0.35,1.2,16,0.75,,,,,,,,,,,,,,,,,,,,,,,,,,,,,,,,,,,,,,,,,,,,,
,,,,,V3_103,20,Female,2025-02-04_16h34.57.956,jersey_experiment_5_v3,2023.2.2,Win32,84.74576271,,,,,,,,,,,,,,,,389.4324,390.9852,390.9852,393.9265,return,1.647,,49.08854167,0,58,58,50,1,FBP-RB-18.png,0.35,1.2,51,0.75,,,,,,,,,,,,,,,,,,,,,,,,,,,,,,,,,,,,,,,,,,,,,
,,,,,V3_103,20,Female,2025-02-04_16h34.57.956,jersey_experiment_5_v3,2023.2.2,Win32,84.74576271,,,,,,,,,,,,,,,,393.9267,395.4796,395.4796,398.5619,return,0.969,,77.21354167,0,59,59,4,1,FBP-YG-71.png,0.45,1.2,5,0.75,,,,,,,,,,,,,,,,,,,,,,,,,,,,,,,,,,,,,,,,,,,,,
,,,,,V3_103,20,Female,2025-02-04_16h34.57.956,jersey_experiment_5_v3,2023.2.2,Win32,84.74576271,,,,,,,,,,,,,,,,398.5638,399.8563,399.8563,402.9387,return,1.5679,,71.484375,,,,,,FBP-OG-71.png,0.4,1.2,33,0.5,0,0,0,32,1,,,,,,,,,,,,,,,,,,,,,,,,,,,,,,,,,,,,,,,,
,,,,,V3_103,20,Female,2025-02-04_16h34.57.956,jersey_experiment_5_v3,2023.2.2,Win32,84.74576271,,,,,,,,,,,,,,,,402.939,404.4917,404.4917,408.7271,return,2.7903,,54.42708333,,,,,,FBP-RB-81.png,0.37,1.2,52,0.75,0,1,1,51,1,,,,,,,,,,,,,,,,,,,,,,,,,,,,,,,,,,,,,,,,
,,,,,V3_103,20,Female,2025-02-04_16h34.57.956,jersey_experiment_5_v3,2023.2.2,Win32,84.74576271,,,,,,,,,,,,,,,,408.7273,410.28,410.28,415.0566,return,0.8675,,57.16145833,,,,,,FBP-PT-91.png,0.37,1.2,27,0.75,0,2,2,26,1,,,,,,,,,,,,,,,,,,,,,,,,,,,,,,,,,,,,,,,,
,,,,,V3_103,20,Female,2025-02-04_16h34.57.956,jersey_experiment_5_v3,2023.2.2,Win32,84.74576271,,,,,,,,,,,,,,,,415.0569,416.6097,416.6098,418.7157,return,1.0669,,58.33333333,,,,,,FBP-PT-71.png,0.35,1.2,16,0.75,0,3,3,15,1,,,,,,,,,,,,,,,,,,,,,,,,,,,,,,,,,,,,,,,,
,,,,,V3_103,20,Female,2025-02-04_16h34.57.956,jersey_experiment_5_v3,2023.2.2,Win32,84.74576271,,,,,,,,,,,,,,,,418.7159,420.0099,420.0099,422.5509,return,1.0219,,51.30208333,,,,,,FBP-OG-81.png,0.35,1.2,36,0.5,0,4,4,35,1,,,,,,,,,,,,,,,,,,,,,,,,,,,,,,,,,,,,,,,,
,,,,,V3_103,20,Female,2025-02-04_16h34.57.956,jersey_experiment_5_v3,2023.2.2,Win32,84.74576271,,,,,,,,,,,,,,,,422.5512,424.1041,424.1041,427.2573,return,1.2563,,94.921875,,,,,,FBP-PT-71.png,0.43,1.2,19,0.75,0,5,5,18,1,,,,,,,,,,,,,,,,,,,,,,,,,,,,,,,,,,,,,,,,
,,,,,V3_103,20,Female,2025-02-04_16h34.57.956,jersey_experiment_5_v3,2023.2.2,Win32,84.74576271,,,,,,,,,,,,,,,,427.2575,428.8102,428.8103,430.6573,return,0.8754,,97.65625,,,,,,FBP-RB-81.png,0.45,1.2,55,0.75,0,6,6,54,1,,,,,,,,,,,,,,,,,,,,,,,,,,,,,,,,,,,,,,,,
,,,,,V3_103,20,Female,2025-02-04_16h34.57.956,jersey_experiment_5_v3,2023.2.2,Win32,84.74576271,,,,,,,,,,,,,,,,430.6576,432.2103,432.2103,435.128,return,1.176,,66.796875,,,,,,FBP-PT-91.png,0.35,1.2,26,0.75,0,7,7,25,1,,,,,,,,,,,,,,,,,,,,,,,,,,,,,,,,,,,,,,,,
,,,,,V3_103,20,Female,2025-02-04_16h34.57.956,jersey_experiment_5_v3,2023.2.2,Win32,84.74576271,,,,,,,,,,,,,,,,435.1282,436.681,436.681,438.8223,return,1.0382,,63.28125,,,,,,FBP-PT-71.png,0.4,1.2,18,0.75,0,8,8,17,1,,,,,,,,,,,,,,,,,,,,,,,,,,,,,,,,,,,,,,,,
,,,,,V3_103,20,Female,2025-02-04_16h34.57.956,jersey_experiment_5_v3,2023.2.2,Win32,84.74576271,,,,,,,,,,,,,,,,438.8225,440.1165,440.1165,443.2695,return,1.2248,,74.86979167,,,,,,FBP-OG-81.png,0.43,1.2,39,0.5,0,9,9,38,1,,,,,,,,,,,,,,,,,,,,,,,,,,,,,,,,,,,,,,,,
,,,,,V3_103,20,Female,2025-02-04_16h34.57.956,jersey_experiment_5_v3,2023.2.2,Win32,84.74576271,,,,,,,,,,,,,,,,443.2698,444.8225,444.8226,446.9638,return,0.8751,,84.63541667,,,,,,FBP-YG-17.png,0.45,1.2,5,0.75,0,10,10,4,1,,,,,,,,,,,,,,,,,,,,,,,,,,,,,,,,,,,,,,,,
,,,,,V3_103,20,Female,2025-02-04_16h34.57.956,jersey_experiment_5_v3,2023.2.2,Win32,84.74576271,,,,,,,,,,,,,,,,446.964,448.2579,448.258,450.1992,return,0.9533,,85.02604167,,,,,,FBP-OG-91.png,0.45,1.2,45,0.5,0,11,11,44,1,,,,,,,,,,,,,,,,,,,,,,,,,,,,,,,,,,,,,,,,
,,,,,V3_103,20,Female,2025-02-04_16h34.57.956,jersey_experiment_5_v3,2023.2.2,Win32,84.74576271,,,,,,,,,,,,,,,,450.1995,451.7521,451.7521,454.1169,return,1.2482,,84.24479167,,,,,,FBP-RB-91.png,0.43,1.2,59,0.75,0,12,12,58,1,,,,,,,,,,,,,,,,,,,,,,,,,,,,,,,,,,,,,,,,
,,,,,V3_103,20,Female,2025-02-04_16h34.57.956,jersey_experiment_5_v3,2023.2.2,Win32,84.74576271,,,,,,,,,,,,,,,,454.1172,455.67,455.67,459.6231,return,1.1514,,51.69270833,,,,,,FBP-RB-71.png,0.37,1.2,47,0.75,0,13,13,46,1,,,,,,,,,,,,,,,,,,,,,,,,,,,,,,,,,,,,,,,,
,,,,,V3_103,20,Female,2025-02-04_16h34.57.956,jersey_experiment_5_v3,2023.2.2,Win32,84.74576271,,,,,,,,,,,,,,,,459.6234,461.1762,461.1762,464.1174,return,1.5686,,81.90104167,,,,,,FBP-YG-18.png,0.45,1.2,10,0.75,0,14,14,9,1,,,,,,,,,,,,,,,,,,,,,,,,,,,,,,,,,,,,,,,,
,,,,,V3_103,20,Female,2025-02-04_16h34.57.956,jersey_experiment_5_v3,2023.2.2,Win32,84.74576271,,,,,,,,,,,,,,,,464.1177,465.6705,465.6705,468.2941,return,0.8976,,83.984375,,,,,,FBP-RB-91.png,0.4,1.2,58,0.75,0,15,15,57,1,,,,,,,,,,,,,,,,,,,,,,,,,,,,,,,,,,,,,,,,
,,,,,V3_103,20,Female,2025-02-04_16h34.57.956,jersey_experiment_5_v3,2023.2.2,Win32,84.74576271,,,,,,,,,,,,,,,,468.2943,469.847,469.8471,474.212,return,2.1457,,80.20833333,,,,,,FBP-PT-81.png,0.4,1.2,23,0.75,0,16,16,22,1,,,,,,,,,,,,,,,,,,,,,,,,,,,,,,,,,,,,,,,,
,,,,,V3_103,20,Female,2025-02-04_16h34.57.956,jersey_experiment_5_v3,2023.2.2,Win32,84.74576271,,,,,,,,,,,,,,,,474.2123,475.7649,475.7649,479.1886,return,1.6127,,80.20833333,,,,,,FBP-RB-71.png,0.43,1.2,49,0.75,0,17,17,48,1,,,,,,,,,,,,,,,,,,,,,,,,,,,,,,,,,,,,,,,,
,,,,,V3_103,20,Female,2025-02-04_16h34.57.956,jersey_experiment_5_v3,2023.2.2,Win32,84.74576271,,,,,,,,,,,,,,,,479.1888,480.7415,480.7415,483.6006,return,1.1816,,86.328125,,,,,,FBP-YG-19.png,0.43,1.2,14,0.75,0,18,18,13,1,,,,,,,,,,,,,,,,,,,,,,,,,,,,,,,,,,,,,,,,
,,,,,V3_103,20,Female,2025-02-04_16h34.57.956,jersey_experiment_5_v3,2023.2.2,Win32,84.74576271,,,,,,,,,,,,,,,,483.6008,484.8946,484.8946,488.6361,return,1.6632,,67.05729167,,,,,,FBP-OG-81.png,0.37,1.2,37,0.5,0,19,19,36,1,,,,,,,,,,,,,,,,,,,,,,,,,,,,,,,,,,,,,,,,
,,,,,V3_103,20,Female,2025-02-04_16h34.57.956,jersey_experiment_5_v3,2023.2.2,Win32,84.74576271,,,,,,,,,,,,,,,,488.6363,490.189,490.189,493.0009,return,1.9878,,86.19791667,,,,,,FBP-PT-81.png,0.45,1.2,25,0.75,0,20,20,24,1,,,,,,,,,,,,,,,,,,,,,,,,,,,,,,,,,,,,,,,,
,,,,,V3_103,20,Female,2025-02-04_16h34.57.956,jersey_experiment_5_v3,2023.2.2,Win32,84.74576271,,,,,,,,,,,,,,,,493.0011,494.554,494.5541,499.6011,return,3.2201,,48.30729167,,,,,,FBP-YG-18.png,0.37,1.2,7,0.75,0,21,21,6,1,,,,,,,,,,,,,,,,,,,,,,,,,,,,,,,,,,,,,,,,
,,,,,V3_103,20,Female,2025-02-04_16h34.57.956,jersey_experiment_5_v3,2023.2.2,Win32,84.74576271,,,,,,,,,,,,,,,,499.6013,501.1542,501.1543,504.0247,return,1.0258,,46.61458333,,,,,,FBP-PT-71.png,0.37,1.2,17,0.75,0,22,22,16,1,,,,,,,,,,,,,,,,,,,,,,,,,,,,,,,,,,,,,,,,
,,,,,V3_103,20,Female,2025-02-04_16h34.57.956,jersey_experiment_5_v3,2023.2.2,Win32,84.74576271,,,,,,,,,,,,,,,,504.0249,505.319,505.319,508.519,return,1.1523,,77.21354167,,,,,,FBP-OG-81.png,0.45,1.2,40,0.5,0,23,23,39,1,,,,,,,,,,,,,,,,,,,,,,,,,,,,,,,,,,,,,,,,
,,,,,V3_103,20,Female,2025-02-04_16h34.57.956,jersey_experiment_5_v3,2023.2.2,Win32,84.74576271,,,,,,,,,,,,,,,,508.5193,509.8133,509.8133,514.1311,return,2.1715,,27.21354167,,,,,,FBP-OG-91.png,0.35,1.2,41,0.5,0,24,24,40,1,,,,,,,,,,,,,,,,,,,,,,,,,,,,,,,,,,,,,,,,
,,,,,V3_103,20,Female,2025-02-04_16h34.57.956,jersey_experiment_5_v3,2023.2.2,Win32,84.74576271,,,,,,,,,,,,,,,,514.1314,515.684,515.6841,519.2371,return,1.8162,,45.57291667,,,,,,FBP-YG-17.png,0.37,1.2,2,0.75,0,25,25,1,1,,,,,,,,,,,,,,,,,,,,,,,,,,,,,,,,,,,,,,,,
,,,,,V3_103,20,Female,2025-02-04_16h34.57.956,jersey_experiment_5_v3,2023.2.2,Win32,84.74576271,,,,,,,,,,,,,,,,519.2373,520.7902,520.7902,523.4255,return,0.9106,,64.32291667,,,,,,FBP-YG-18.png,0.4,1.2,8,0.75,0,26,26,7,1,,,,,,,,,,,,,,,,,,,,,,,,,,,,,,,,,,,,,,,,
,,,,,V3_103,20,Female,2025-02-04_16h34.57.956,jersey_experiment_5_v3,2023.2.2,Win32,84.74576271,,,,,,,,,,,,,,,,523.4258,524.9786,524.9786,527.2492,return,1.126,,45.703125,,,,,,FBP-RB-91.png,0.37,1.2,57,0.75,0,27,27,56,1,,,,,,,,,,,,,,,,,,,,,,,,,,,,,,,,,,,,,,,,
,,,,,V3_103,20,Female,2025-02-04_16h34.57.956,jersey_experiment_5_v3,2023.2.2,Win32,84.74576271,,,,,,,,,,,,,,,,527.2494,528.8023,528.8023,531.0728,return,0.9496,,80.46875,,,,,,FBP-RB-81.png,0.43,1.2,54,0.75,0,28,28,53,1,,,,,,,,,,,,,,,,,,,,,,,,,,,,,,,,,,,,,,,,
,,,,,V3_103,20,Female,2025-02-04_16h34.57.956,jersey_experiment_5_v3,2023.2.2,Win32,84.74576271,,,,,,,,,,,,,,,,531.073,532.6259,532.6259,534.6612,return,0.8469,,86.84895833,,,,,,FBP-RB-91.png,0.45,1.2,60,0.75,0,29,29,59,1,,,,,,,,,,,,,,,,,,,,,,,,,,,,,,,,,,,,,,,,
,,,,,V3_103,20,Female,2025-02-04_16h34.57.956,jersey_experiment_5_v3,2023.2.2,Win32,84.74576271,,,,,,,,,,,,,,,,534.6614,535.9555,535.9555,538.6261,return,1.5925,,70.96354167,,,,,,FBP-OG-91.png,0.37,1.2,42,0.5,0,30,30,41,1,,,,,,,,,,,,,,,,,,,,,,,,,,,,,,,,,,,,,,,,
,,,,,V3_103,20,Female,2025-02-04_16h34.57.956,jersey_experiment_5_v3,2023.2.2,Win32,84.74576271,,,,,,,,,,,,,,,,538.6263,539.9204,539.9205,542.8851,return,0.8748,,73.95833333,,,,,,FBP-OG-71.png,0.43,1.2,34,0.5,0,31,31,33,1,,,,,,,,,,,,,,,,,,,,,,,,,,,,,,,,,,,,,,,,
,,,,,V3_103,20,Female,2025-02-04_16h34.57.956,jersey_experiment_5_v3,2023.2.2,Win32,84.74576271,,,,,,,,,,,,,,,,542.8853,544.4382,544.4383,546.65,return,1.1762,,77.99479167,,,,,,FBP-YG-17.png,0.4,1.2,3,0.75,0,32,32,2,1,,,,,,,,,,,,,,,,,,,,,,,,,,,,,,,,,,,,,,,,
,,,,,V3_103,20,Female,2025-02-04_16h34.57.956,jersey_experiment_5_v3,2023.2.2,Win32,84.74576271,,,,,,,,,,,,,,,,546.6502,548.2031,548.2031,552.9207,return,3.5562,,81.51041667,,,,,,FBP-PT-81.png,0.37,1.2,22,0.75,0,33,33,21,1,,,,,,,,,,,,,,,,,,,,,,,,,,,,,,,,,,,,,,,,
,,,,,V3_103,20,Female,2025-02-04_16h34.57.956,jersey_experiment_5_v3,2023.2.2,Win32,84.74576271,,,,,,,,,,,,,,,,552.921,554.2149,554.2151,556.9562,return,1.3653,,88.15104167,,,,,,FBP-OG-71.png,0.45,1.2,35,0.5,0,34,34,34,1,,,,,,,,,,,,,,,,,,,,,,,,,,,,,,,,,,,,,,,,
,,,,,V3_103,20,Female,2025-02-04_16h34.57.956,jersey_experiment_5_v3,2023.2.2,Win32,84.74576271,,,,,,,,,,,,,,,,556.9564,558.5092,558.5093,561.4976,return,1.1771,,77.47395833,,,,,,FBP-YG-18.png,0.43,1.2,9,0.75,0,35,35,8,1,,,,,,,,,,,,,,,,,,,,,,,,,,,,,,,,,,,,,,,,
,,,,,V3_103,20,Female,2025-02-04_16h34.57.956,jersey_experiment_5_v3,2023.2.2,Win32,84.74576271,,,,,,,,,,,,,,,,561.4978,563.0506,563.0506,565.8741,return,1.3252,,26.5625,,,,,,FBP-RB-71.png,0.35,1.2,46,0.75,0,36,36,45,1,,,,,,,,,,,,,,,,,,,,,,,,,,,,,,,,,,,,,,,,
,,,,,V3_103,20,Female,2025-02-04_16h34.57.956,jersey_experiment_5_v3,2023.2.2,Win32,84.74576271,,,,,,,,,,,,,,,,565.8744,567.4272,567.4272,571.192,return,1.0601,,35.02604167,,,,,,FBP-YG-17.png,0.35,1.2,1,0.75,0,37,37,0,1,,,,,,,,,,,,,,,,,,,,,,,,,,,,,,,,,,,,,,,,
,,,,,V3_103,20,Female,2025-02-04_16h34.57.956,jersey_experiment_5_v3,2023.2.2,Win32,84.74576271,,,,,,,,,,,,,,,,571.1922,572.745,572.7451,575.1452,return,1.5766,,26.953125,,,,,,FBP-RB-81.png,0.35,1.2,51,0.75,0,38,38,50,1,,,,,,,,,,,,,,,,,,,,,,,,,,,,,,,,,,,,,,,,
,,,,,V3_103,20,Female,2025-02-04_16h34.57.956,jersey_experiment_5_v3,2023.2.2,Win32,84.74576271,,,,,,,,,,,,,,,,575.1455,576.6981,576.6981,580.4394,return,1.202,,51.69270833,,,,,,FBP-RB-71.png,0.4,1.2,48,0.75,0,39,39,47,1,,,,,,,,,,,,,,,,,,,,,,,,,,,,,,,,,,,,,,,,
,,,,,V3_103,20,Female,2025-02-04_16h34.57.956,jersey_experiment_5_v3,2023.2.2,Win32,84.74576271,,,,,,,,,,,,,,,,580.4396,581.9924,581.9925,585.1574,return,1.9688,,35.546875,,,,,,FBP-RB-91.png,0.35,1.2,56,0.75,0,40,40,55,1,,,,,,,,,,,,,,,,,,,,,,,,,,,,,,,,,,,,,,,,
,,,,,V3_103,20,Female,2025-02-04_16h34.57.956,jersey_experiment_5_v3,2023.2.2,Win32,84.74576271,,,,,,,,,,,,,,,,585.1576,586.7104,586.7104,590.2162,return,0.9661,,77.60416667,,,,,,FBP-YG-17.png,0.43,1.2,4,0.75,0,41,41,3,1,,,,,,,,,,,,,,,,,,,,,,,,,,,,,,,,,,,,,,,,
,,,,,V3_103,20,Female,2025-02-04_16h34.57.956,jersey_experiment_5_v3,2023.2.2,Win32,84.74576271,,,,,,,,,,,,,,,,590.2165,591.5105,591.5105,595.7461,return,1.0782,,49.73958333,,,,,,FBP-OG-71.png,0.35,1.2,31,0.5,0,42,42,30,1,,,,,,,,,,,,,,,,,,,,,,,,,,,,,,,,,,,,,,,,
,,,,,V3_103,20,Female,2025-02-04_16h34.57.956,jersey_experiment_5_v3,2023.2.2,Win32,84.74576271,,,,,,,,,,,,,,,,595.7463,597.2989,597.2989,601.6402,return,1.7293,,61.71875,,,,,,FBP-YG-19.png,0.35,1.2,11,0.75,0,43,43,10,1,,,,,,,,,,,,,,,,,,,,,,,,,,,,,,,,,,,,,,,,
,,,,,V3_103,20,Female,2025-02-04_16h34.57.956,jersey_experiment_5_v3,2023.2.2,Win32,84.74576271,,,,,,,,,,,,,,,,601.6405,603.1932,603.1933,606.2522,return,1.0674,,86.06770833,,,,,,FBP-PT-91.png,0.45,1.2,30,0.75,0,44,44,29,1,,,,,,,,,,,,,,,,,,,,,,,,,,,,,,,,,,,,,,,,
,,,,,V3_103,20,Female,2025-02-04_16h34.57.956,jersey_experiment_5_v3,2023.2.2,Win32,84.74576271,,,,,,,,,,,,,,,,606.2524,607.8051,607.8052,611.8406,return,1.9347,,88.02083333,,,,,,FBP-PT-71.png,0.45,1.2,20,0.75,0,45,45,19,1,,,,,,,,,,,,,,,,,,,,,,,,,,,,,,,,,,,,,,,,
,,,,,V3_103,20,Female,2025-02-04_16h34.57.956,jersey_experiment_5_v3,2023.2.2,Win32,84.74576271,,,,,,,,,,,,,,,,611.8408,613.3819,613.3819,615.1585,return,1.1529,,87.109375,,,,,,FBP-RB-71.png,0.45,1.2,50,0.75,0,46,46,49,1,,,,,,,,,,,,,,,,,,,,,,,,,,,,,,,,,,,,,,,,
,,,,,V3_103,20,Female,2025-02-04_16h34.57.956,jersey_experiment_5_v3,2023.2.2,Win32,84.74576271,,,,,,,,,,,,,,,,615.1588,616.7114,616.7115,619.3704,return,1.0275,,78.38541667,,,,,,FBP-PT-91.png,0.43,1.2,29,0.75,0,47,47,28,1,,,,,,,,,,,,,,,,,,,,,,,,,,,,,,,,,,,,,,,,
,,,,,V3_103,20,Female,2025-02-04_16h34.57.956,jersey_experiment_5_v3,2023.2.2,Win32,84.74576271,,,,,,,,,,,,,,,,619.3706,620.9233,620.9233,623.2529,return,1.1927,,88.15104167,,,,,,FBP-YG-19.png,0.45,1.2,15,0.75,0,48,48,14,1,,,,,,,,,,,,,,,,,,,,,,,,,,,,,,,,,,,,,,,,
,,,,,V3_103,20,Female,2025-02-04_16h34.57.956,jersey_experiment_5_v3,2023.2.2,Win32,84.74576271,,,,,,,,,,,,,,,,623.2531,624.5469,624.547,627.1,return,0.928,,75.65104167,,,,,,FBP-OG-81.png,0.4,1.2,38,0.5,0,49,49,37,1,,,,,,,,,,,,,,,,,,,,,,,,,,,,,,,,,,,,,,,,
,,,,,V3_103,20,Female,2025-02-04_16h34.57.956,jersey_experiment_5_v3,2023.2.2,Win32,84.74576271,,,,,,,,,,,,,,,,627.1002,628.6414,628.6414,631.959,return,2.2034,,76.82291667,,,,,,FBP-PT-91.png,0.4,1.2,28,0.75,0,50,50,27,1,,,,,,,,,,,,,,,,,,,,,,,,,,,,,,,,,,,,,,,,
,,,,,V3_103,20,Female,2025-02-04_16h34.57.956,jersey_experiment_5_v3,2023.2.2,Win32,84.74576271,,,,,,,,,,,,,,,,631.9592,633.5121,633.5122,636.1828,return,1.2025,,77.99479167,,,,,,FBP-RB-81.png,0.4,1.2,53,0.75,0,51,51,52,1,,,,,,,,,,,,,,,,,,,,,,,,,,,,,,,,,,,,,,,,
,,,,,V3_103,20,Female,2025-02-04_16h34.57.956,jersey_experiment_5_v3,2023.2.2,Win32,84.74576271,,,,,,,,,,,,,,,,636.1831,637.4769,637.4769,639.7358,return,1.3278,,74.609375,,,,,,FBP-OG-91.png,0.43,1.2,44,0.5,0,52,52,43,1,,,,,,,,,,,,,,,,,,,,,,,,,,,,,,,,,,,,,,,,
,,,,,V3_103,20,Female,2025-02-04_16h34.57.956,jersey_experiment_5_v3,2023.2.2,Win32,84.74576271,,,,,,,,,,,,,,,,639.7361,641.03,641.03,643.2183,return,0.8382,,49.609375,,,,,,FBP-OG-71.png,0.37,1.2,32,0.5,0,53,53,31,1,,,,,,,,,,,,,,,,,,,,,,,,,,,,,,,,,,,,,,,,
,,,,,V3_103,20,Female,2025-02-04_16h34.57.956,jersey_experiment_5_v3,2023.2.2,Win32,84.74576271,,,,,,,,,,,,,,,,643.2185,644.7714,644.7714,647.5597,return,1.1298,,34.24479167,,,,,,FBP-YG-18.png,0.35,1.2,6,0.75,0,54,54,5,1,,,,,,,,,,,,,,,,,,,,,,,,,,,,,,,,,,,,,,,,
,,,,,V3_103,20,Female,2025-02-04_16h34.57.956,jersey_experiment_5_v3,2023.2.2,Win32,84.74576271,,,,,,,,,,,,,,,,647.56,649.1129,649.1129,651.6187,return,0.9479,,32.16145833,,,,,,FBP-PT-81.png,0.35,1.2,21,0.75,0,55,55,20,1,,,,,,,,,,,,,,,,,,,,,,,,,,,,,,,,,,,,,,,,
,,,,,V3_103,20,Female,2025-02-04_16h34.57.956,jersey_experiment_5_v3,2023.2.2,Win32,84.74576271,,,,,,,,,,,,,,,,651.6189,653.1717,653.1718,656.2778,return,1.0705,,48.56770833,,,,,,FBP-YG-19.png,0.37,1.2,12,0.75,0,56,56,11,1,,,,,,,,,,,,,,,,,,,,,,,,,,,,,,,,,,,,,,,,
,,,,,V3_103,20,Female,2025-02-04_16h34.57.956,jersey_experiment_5_v3,2023.2.2,Win32,84.74576271,,,,,,,,,,,,,,,,656.278,657.8306,657.8306,660.3132,return,0.9165,,75.26041667,,,,,,FBP-PT-81.png,0.43,1.2,24,0.75,0,57,57,23,1,,,,,,,,,,,,,,,,,,,,,,,,,,,,,,,,,,,,,,,,
,,,,,V3_103,20,Female,2025-02-04_16h34.57.956,jersey_experiment_5_v3,2023.2.2,Win32,84.74576271,,,,,,,,,,,,,,,,660.3134,661.6072,661.6072,664.7955,return,1.4917,,69.40104167,,,,,,FBP-OG-91.png,0.4,1.2,43,0.5,0,58,58,42,1,,,,,,,,,,,,,,,,,,,,,,,,,,,,,,,,,,,,,,,,
,,,,,V3_103,20,Female,2025-02-04_16h34.57.956,jersey_experiment_5_v3,2023.2.2,Win32,84.74576271,,,,,,,,,,,,,,,,664.7957,666.3369,666.337,669.0193,return,1.0829,,69.01041667,,,,,,FBP-YG-19.png,0.4,1.2,13,0.75,0,59,59,12,1,,,,,,,,,,,,,,,,,,,,,,,,,,,,,,,,,,,,,,,,
,,,,,V3_103,20,Female,2025-02-04_16h34.57.956,jersey_experiment_5_v3,2023.2.2,Win32,84.74576271,,,,,,,,,,,,,,,,,,,,,,,,,,,,,,,,,,,,,,,669.0195,789.0123,,,,,,,,,,,,,,,,,,,,,,,,,,,,,,,,,,,,,,
,,,,,V3_103,20,Female,2025-02-04_16h34.57.956,jersey_experiment_5_v3,2023.2.2,Win32,84.74576271,,,,,,,,,,,,,,,,,,,,,,,,,,,,,,,,,,,,,,,,,789.0126,822.6842,return,33.6541,,,,,,,,,,,,,,,,,,,,,,,,,,,,,,,,,,
,,,,,V3_103,20,Female,2025-02-04_16h34.57.956,jersey_experiment_5_v3,2023.2.2,Win32,84.74576271,,,,,,,,,,,,,,,,822.6859,823.9781,823.9783,827.3077,return,1.2149,,51.04166667,,,,,,FBP-YG-71.png,0.37,1.2,2,0.5,,,,,,,,,,,,,0,0,0,1,1,,,,,,,,,,,,,,,,,,,,,,,,,,,,
,,,,,V3_103,20,Female,2025-02-04_16h34.57.956,jersey_experiment_5_v3,2023.2.2,Win32,84.74576271,,,,,,,,,,,,,,,,827.308,828.602,828.602,831.8492,return,2.0626,,60.9375,,,,,,FBP-YG-71.png,0.4,1.2,3,0.5,,,,,,,,,,,,,0,1,1,2,1,,,,,,,,,,,,,,,,,,,,,,,,,,,,
,,,,,V3_103,20,Female,2025-02-04_16h34.57.956,jersey_experiment_5_v3,2023.2.2,Win32,84.74576271,,,,,,,,,,,,,,,,831.8494,833.1432,833.1432,835.1433,return,0.9209,,38.93229167,,,,,,FBP-RB-19.png,0.35,1.2,56,0.5,,,,,,,,,,,,,0,2,2,55,1,,,,,,,,,,,,,,,,,,,,,,,,,,,,
,,,,,V3_103,20,Female,2025-02-04_16h34.57.956,jersey_experiment_5_v3,2023.2.2,Win32,84.74576271,,,,,,,,,,,,,,,,835.1434,836.4375,836.4375,838.4728,return,1.0829,,57.421875,,,,,,FBP-PT-17.png,0.37,1.2,17,0.5,,,,,,,,,,,,,0,3,3,16,1,,,,,,,,,,,,,,,,,,,,,,,,,,,,
,,,,,V3_103,20,Female,2025-02-04_16h34.57.956,jersey_experiment_5_v3,2023.2.2,Win32,84.74576271,,,,,,,,,,,,,,,,838.4731,839.7669,839.7669,841.4729,return,0.9225,,47.265625,,,,,,FBP-YG-71.png,0.35,1.2,1,0.5,,,,,,,,,,,,,0,4,4,0,1,,,,,,,,,,,,,,,,,,,,,,,,,,,,
,,,,,V3_103,20,Female,2025-02-04_16h34.57.956,jersey_experiment_5_v3,2023.2.2,Win32,84.74576271,,,,,,,,,,,,,,,,841.4731,843.0261,843.0262,845.5909,return,1.0979,,83.07291667,,,,,,FBP-OG-18.png,0.4,1.2,38,0.75,,,,,,,,,,,,,0,5,5,37,1,,,,,,,,,,,,,,,,,,,,,,,,,,,,
,,,,,V3_103,20,Female,2025-02-04_16h34.57.956,jersey_experiment_5_v3,2023.2.2,Win32,84.74576271,,,,,,,,,,,,,,,,845.5911,847.1439,847.1439,849.0026,return,1.0128,,97.78645833,,,,,,FBP-OG-18.png,0.45,1.2,40,0.75,,,,,,,,,,,,,0,6,6,39,1,,,,,,,,,,,,,,,,,,,,,,,,,,,,
,,,,,V3_103,20,Female,2025-02-04_16h34.57.956,jersey_experiment_5_v3,2023.2.2,Win32,84.74576271,,,,,,,,,,,,,,,,849.0028,850.2969,850.2969,852.9558,return,0.9621,,76.69270833,,,,,,FBP-YG-91.png,0.4,1.2,13,0.5,,,,,,,,,,,,,0,7,7,12,1,,,,,,,,,,,,,,,,,,,,,,,,,,,,
,,,,,V3_103,20,Female,2025-02-04_16h34.57.956,jersey_experiment_5_v3,2023.2.2,Win32,84.74576271,,,,,,,,,,,,,,,,852.956,854.25,854.25,855.8263,return,0.8047,,85.80729167,,,,,,FBP-RB-17.png,0.4,1.2,48,0.5,,,,,,,,,,,,,0,8,8,47,1,,,,,,,,,,,,,,,,,,,,,,,,,,,,
,,,,,V3_103,20,Female,2025-02-04_16h34.57.956,jersey_experiment_5_v3,2023.2.2,Win32,84.74576271,,,,,,,,,,,,,,,,855.8266,857.1207,857.1207,859.3794,return,0.9905,,76.04166667,,,,,,FBP-RB-18.png,0.4,1.2,53,0.5,,,,,,,,,,,,,0,9,9,52,1,,,,,,,,,,,,,,,,,,,,,,,,,,,,
,,,,,V3_103,20,Female,2025-02-04_16h34.57.956,jersey_experiment_5_v3,2023.2.2,Win32,84.74576271,,,,,,,,,,,,,,,,859.3797,860.6737,860.6737,862.3797,return,0.8944,,86.84895833,,,,,,FBP-PT-17.png,0.4,1.2,18,0.5,,,,,,,,,,,,,0,10,10,17,1,,,,,,,,,,,,,,,,,,,,,,,,,,,,
,,,,,V3_103,20,Female,2025-02-04_16h34.57.956,jersey_experiment_5_v3,2023.2.2,Win32,84.74576271,,,,,,,,,,,,,,,,862.38,863.6737,863.6738,865.9092,return,0.8752,,83.33333333,,,,,,FBP-RB-19.png,0.4,1.2,58,0.5,,,,,,,,,,,,,0,11,11,57,1,,,,,,,,,,,,,,,,,,,,,,,,,,,,
,,,,,V3_103,20,Female,2025-02-04_16h34.57.956,jersey_experiment_5_v3,2023.2.2,Win32,84.74576271,,,,,,,,,,,,,,,,865.9094,867.2034,867.2034,870.9565,return,2.6716,,75,,,,,,FBP-YG-81.png,0.37,1.2,7,0.5,,,,,,,,,,,,,0,12,12,6,1,,,,,,,,,,,,,,,,,,,,,,,,,,,,
,,,,,V3_103,20,Female,2025-02-04_16h34.57.956,jersey_experiment_5_v3,2023.2.2,Win32,84.74576271,,,,,,,,,,,,,,,,870.9567,872.2508,872.2508,876.3213,return,3.2523,,96.74479167,,,,,,FBP-RB-18.png,0.43,1.2,54,0.5,,,,,,,,,,,,,0,13,13,53,1,,,,,,,,,,,,,,,,,,,,,,,,,,,,
,,,,,V3_103,20,Female,2025-02-04_16h34.57.956,jersey_experiment_5_v3,2023.2.2,Win32,84.74576271,,,,,,,,,,,,,,,,876.3215,877.6154,877.6154,879.4627,return,1.0227,,97.91666667,,,,,,FBP-YG-71.png,0.43,1.2,4,0.5,,,,,,,,,,,,,0,14,14,3,1,,,,,,,,,,,,,,,,,,,,,,,,,,,,
,,,,,V3_103,20,Female,2025-02-04_16h34.57.956,jersey_experiment_5_v3,2023.2.2,Win32,84.74576271,,,,,,,,,,,,,,,,879.463,880.7569,880.757,883.4745,return,1.0412,,98.56770833,,,,,,FBP-PT-18.png,0.45,1.2,25,0.5,,,,,,,,,,,,,0,15,15,24,1,,,,,,,,,,,,,,,,,,,,,,,,,,,,
,,,,,V3_103,20,Female,2025-02-04_16h34.57.956,jersey_experiment_5_v3,2023.2.2,Win32,84.74576271,,,,,,,,,,,,,,,,883.4747,884.7687,884.7687,886.5688,return,0.8094,,86.45833333,,,,,,FBP-YG-91.png,0.45,1.2,15,0.5,,,,,,,,,,,,,0,16,16,14,1,,,,,,,,,,,,,,,,,,,,,,,,,,,,
,,,,,V3_103,20,Female,2025-02-04_16h34.57.956,jersey_experiment_5_v3,2023.2.2,Win32,84.74576271,,,,,,,,,,,,,,,,886.5691,888.1218,888.1219,889.9571,return,0.8749,,86.328125,,,,,,FBP-OG-17.png,0.43,1.2,34,0.75,,,,,,,,,,,,,0,17,17,33,1,,,,,,,,,,,,,,,,,,,,,,,,,,,,
,,,,,V3_103,20,Female,2025-02-04_16h34.57.956,jersey_experiment_5_v3,2023.2.2,Win32,84.74576271,,,,,,,,,,,,,,,,889.9575,891.5102,891.5103,896.7927,return,3.7557,,16.14583333,,,,,,FBP-OG-18.png,0.37,1.2,37,0.75,,,,,,,,,,,,,0,18,18,36,1,,,,,,,,,,,,,,,,,,,,,,,,,,,,
,,,,,V3_103,20,Female,2025-02-04_16h34.57.956,jersey_experiment_5_v3,2023.2.2,Win32,84.74576271,,,,,,,,,,,,,,,,896.7929,898.3459,898.3459,901.3929,return,1.5851,,47.91666667,,,,,,FBP-OG-17.png,0.4,1.2,33,0.75,,,,,,,,,,,,,0,19,19,32,1,,,,,,,,,,,,,,,,,,,,,,,,,,,,
,,,,,V3_103,20,Female,2025-02-04_16h34.57.956,jersey_experiment_5_v3,2023.2.2,Win32,84.74576271,,,,,,,,,,,,,,,,901.3932,902.6871,902.6871,904.9812,return,1.1455,,87.63020833,,,,,,FBP-RB-19.png,0.45,1.2,60,0.5,,,,,,,,,,,,,0,20,20,59,1,,,,,,,,,,,,,,,,,,,,,,,,,,,,
,,,,,V3_103,20,Female,2025-02-04_16h34.57.956,jersey_experiment_5_v3,2023.2.2,Win32,84.74576271,,,,,,,,,,,,,,,,904.9814,906.2755,906.2756,908.652,return,1.2945,,52.34375,,,,,,FBP-PT-18.png,0.37,1.2,22,0.5,,,,,,,,,,,,,0,21,21,21,1,,,,,,,,,,,,,,,,,,,,,,,,,,,,
,,,,,V3_103,20,Female,2025-02-04_16h34.57.956,jersey_experiment_5_v3,2023.2.2,Win32,84.74576271,,,,,,,,,,,,,,,,908.6523,909.9461,909.9461,912.3463,return,1.2858,,32.03125,,,,,,FBP-RB-18.png,0.37,1.2,52,0.5,,,,,,,,,,,,,0,22,22,51,1,,,,,,,,,,,,,,,,,,,,,,,,,,,,
,,,,,V3_103,20,Female,2025-02-04_16h34.57.956,jersey_experiment_5_v3,2023.2.2,Win32,84.74576271,,,,,,,,,,,,,,,,912.3465,913.8877,913.8877,916.5934,return,1.1698,,81.90104167,,,,,,FBP-OG-19.png,0.45,1.2,45,0.75,,,,,,,,,,,,,0,23,23,44,1,,,,,,,,,,,,,,,,,,,,,,,,,,,,
,,,,,V3_103,20,Female,2025-02-04_16h34.57.956,jersey_experiment_5_v3,2023.2.2,Win32,84.74576271,,,,,,,,,,,,,,,,916.5935,917.8878,917.8879,922.0878,return,2.9316,,41.66666667,,,,,,FBP-PT-17.png,0.35,1.2,16,0.5,,,,,,,,,,,,,0,24,24,15,1,,,,,,,,,,,,,,,,,,,,,,,,,,,,
,,,,,V3_103,20,Female,2025-02-04_16h34.57.956,jersey_experiment_5_v3,2023.2.2,Win32,84.74576271,,,,,,,,,,,,,,,,922.0881,923.3819,923.382,925.4761,return,0.9207,,26.69270833,,,,,,FBP-YG-91.png,0.35,1.2,11,0.5,,,,,,,,,,,,,0,25,25,10,1,,,,,,,,,,,,,,,,,,,,,,,,,,,,
,,,,,V3_103,20,Female,2025-02-04_16h34.57.956,jersey_experiment_5_v3,2023.2.2,Win32,84.74576271,,,,,,,,,,,,,,,,925.4762,926.7703,926.7703,928.9704,return,1.1062,,73.30729167,,,,,,FBP-YG-91.png,0.43,1.2,14,0.5,,,,,,,,,,,,,0,26,26,13,1,,,,,,,,,,,,,,,,,,,,,,,,,,,,
,,,,,V3_103,20,Female,2025-02-04_16h34.57.956,jersey_experiment_5_v3,2023.2.2,Win32,84.74576271,,,,,,,,,,,,,,,,928.9706,930.2646,930.2647,933.2765,return,1.2365,,40.10416667,,,,,,FBP-RB-17.png,0.35,1.2,46,0.5,,,,,,,,,,,,,0,27,27,45,1,,,,,,,,,,,,,,,,,,,,,,,,,,,,
,,,,,V3_103,20,Female,2025-02-04_16h34.57.956,jersey_experiment_5_v3,2023.2.2,Win32,84.74576271,,,,,,,,,,,,,,,,933.2767,934.8295,934.8296,937.2413,return,0.941,,88.671875,,,,,,FBP-OG-18.png,0.43,1.2,39,0.75,,,,,,,,,,,,,0,28,28,38,1,,,,,,,,,,,,,,,,,,,,,,,,,,,,
,,,,,V3_103,20,Female,2025-02-04_16h34.57.956,jersey_experiment_5_v3,2023.2.2,Win32,84.74576271,,,,,,,,,,,,,,,,937.2416,938.7944,938.7945,942.818,return,2.5488,,57.8125,,,,,,FBP-OG-19.png,0.4,1.2,43,0.75,,,,,,,,,,,,,0,29,29,42,1,,,,,,,,,,,,,,,,,,,,,,,,,,,,
,,,,,V3_103,20,Female,2025-02-04_16h34.57.956,jersey_experiment_5_v3,2023.2.2,Win32,84.74576271,,,,,,,,,,,,,,,,942.8182,944.1121,944.1121,949.1477,return,3.6718,,54.81770833,,,,,,FBP-PT-18.png,0.35,1.2,21,0.5,,,,,,,,,,,,,0,30,30,20,1,,,,,,,,,,,,,,,,,,,,,,,,,,,,
,,,,,V3_103,20,Female,2025-02-04_16h34.57.956,jersey_experiment_5_v3,2023.2.2,Win32,84.74576271,,,,,,,,,,,,,,,,949.1479,950.4418,950.4419,953.8185,return,1.3803,,76.171875,,,,,,FBP-PT-18.png,0.43,1.2,24,0.5,,,,,,,,,,,,,0,31,31,23,1,,,,,,,,,,,,,,,,,,,,,,,,,,,,
,,,,,V3_103,20,Female,2025-02-04_16h34.57.956,jersey_experiment_5_v3,2023.2.2,Win32,84.74576271,,,,,,,,,,,,,,,,953.8187,955.1126,955.1127,958.9481,return,2.3939,,47.78645833,,,,,,FBP-PT-19.png,0.37,1.2,27,0.5,,,,,,,,,,,,,0,32,32,26,1,,,,,,,,,,,,,,,,,,,,,,,,,,,,
,,,,,V3_103,20,Female,2025-02-04_16h34.57.956,jersey_experiment_5_v3,2023.2.2,Win32,84.74576271,,,,,,,,,,,,,,,,958.9483,960.2423,960.2423,962.9364,return,1.0366,,76.953125,,,,,,FBP-PT-17.png,0.43,1.2,19,0.5,,,,,,,,,,,,,0,33,33,18,1,,,,,,,,,,,,,,,,,,,,,,,,,,,,
,,,,,V3_103,20,Female,2025-02-04_16h34.57.956,jersey_experiment_5_v3,2023.2.2,Win32,84.74576271,,,,,,,,,,,,,,,,962.9366,964.2305,964.2305,967.913,return,2.5084,,54.81770833,,,,,,FBP-YG-81.png,0.4,1.2,8,0.5,,,,,,,,,,,,,0,34,34,7,1,,,,,,,,,,,,,,,,,,,,,,,,,,,,
,,,,,V3_103,20,Female,2025-02-04_16h34.57.956,jersey_experiment_5_v3,2023.2.2,Win32,84.74576271,,,,,,,,,,,,,,,,967.9134,969.2073,969.2074,971.4191,return,0.8133,,88.28125,,,,,,FBP-RB-17.png,0.45,1.2,50,0.5,,,,,,,,,,,,,0,35,35,49,1,,,,,,,,,,,,,,,,,,,,,,,,,,,,
,,,,,V3_103,20,Female,2025-02-04_16h34.57.956,jersey_experiment_5_v3,2023.2.2,Win32,84.74576271,,,,,,,,,,,,,,,,971.4193,972.7134,972.7134,975.7133,return,1.593,,50.26041667,,,,,,FBP-RB-19.png,0.37,1.2,57,0.5,,,,,,,,,,,,,0,36,36,56,1,,,,,,,,,,,,,,,,,,,,,,,,,,,,
,,,,,V3_103,20,Female,2025-02-04_16h34.57.956,jersey_experiment_5_v3,2023.2.2,Win32,84.74576271,,,,,,,,,,,,,,,,975.7136,977.0076,977.0077,979.137,return,0.8437,,88.54166667,,,,,,FBP-RB-18.png,0.45,1.2,55,0.5,,,,,,,,,,,,,0,37,37,54,1,,,,,,,,,,,,,,,,,,,,,,,,,,,,
,,,,,V3_103,20,Female,2025-02-04_16h34.57.956,jersey_experiment_5_v3,2023.2.2,Win32,84.74576271,,,,,,,,,,,,,,,,979.1372,980.4313,980.4313,983.5372,return,2.051,,81.51041667,,,,,,FBP-RB-17.png,0.43,1.2,49,0.5,,,,,,,,,,,,,0,38,38,48,1,,,,,,,,,,,,,,,,,,,,,,,,,,,,
,,,,,V3_103,20,Female,2025-02-04_16h34.57.956,jersey_experiment_5_v3,2023.2.2,Win32,84.74576271,,,,,,,,,,,,,,,,983.5374,985.0904,985.0905,988.1138,return,1.3492,,38.93229167,,,,,,FBP-OG-18.png,0.35,1.2,36,0.75,,,,,,,,,,,,,0,39,39,35,1,,,,,,,,,,,,,,,,,,,,,,,,,,,,
,,,,,V3_103,20,Female,2025-02-04_16h34.57.956,jersey_experiment_5_v3,2023.2.2,Win32,84.74576271,,,,,,,,,,,,,,,,988.1141,989.408,989.408,991.5611,return,0.8859,,50.78125,,,,,,FBP-PT-19.png,0.35,1.2,26,0.5,,,,,,,,,,,,,0,40,40,25,1,,,,,,,,,,,,,,,,,,,,,,,,,,,,
,,,,,V3_103,20,Female,2025-02-04_16h34.57.956,jersey_experiment_5_v3,2023.2.2,Win32,84.74576271,,,,,,,,,,,,,,,,991.5613,992.8551,992.8552,995.7023,return,1.2463,,80.20833333,,,,,,FBP-RB-19.png,0.43,1.2,59,0.5,,,,,,,,,,,,,0,41,41,58,1,,,,,,,,,,,,,,,,,,,,,,,,,,,,
,,,,,V3_103,20,Female,2025-02-04_16h34.57.956,jersey_experiment_5_v3,2023.2.2,Win32,84.74576271,,,,,,,,,,,,,,,,995.7026,996.9966,996.9966,998.8084,return,0.8856,,88.80208333,,,,,,FBP-YG-81.png,0.43,1.2,9,0.5,,,,,,,,,,,,,0,42,42,8,1,,,,,,,,,,,,,,,,,,,,,,,,,,,,
,,,,,V3_103,20,Female,2025-02-04_16h34.57.956,jersey_experiment_5_v3,2023.2.2,Win32,84.74576271,,,,,,,,,,,,,,,,998.8086,1000.1024,1000.1025,1001.9144,return,0.8614,,87.890625,,,,,,FBP-YG-71.png,0.45,1.2,5,0.5,,,,,,,,,,,,,0,43,43,4,1,,,,,,,,,,,,,,,,,,,,,,,,,,,,
,,,,,V3_103,20,Female,2025-02-04_16h34.57.956,jersey_experiment_5_v3,2023.2.2,Win32,84.74576271,,,,,,,,,,,,,,,,1001.9147,1003.2086,1003.2086,1005.185,return,0.9848,,86.45833333,,,,,,FBP-PT-19.png,0.43,1.2,29,0.5,,,,,,,,,,,,,0,44,44,28,1,,,,,,,,,,,,,,,,,,,,,,,,,,,,
,,,,,V3_103,20,Female,2025-02-04_16h34.57.956,jersey_experiment_5_v3,2023.2.2,Win32,84.74576271,,,,,,,,,,,,,,,,1005.1852,1006.7381,1006.7382,1009.2205,return,0.8287,,73.17708333,,,,,,FBP-OG-19.png,0.43,1.2,44,0.75,,,,,,,,,,,,,0,45,45,43,1,,,,,,,,,,,,,,,,,,,,,,,,,,,,
,,,,,V3_103,20,Female,2025-02-04_16h34.57.956,jersey_experiment_5_v3,2023.2.2,Win32,84.74576271,,,,,,,,,,,,,,,,1009.2207,1010.5147,1010.5147,1012.5619,return,0.9093,,84.50520833,,,,,,FBP-YG-81.png,0.45,1.2,10,0.5,,,,,,,,,,,,,0,46,46,9,1,,,,,,,,,,,,,,,,,,,,,,,,,,,,
,,,,,V3_103,20,Female,2025-02-04_16h34.57.956,jersey_experiment_5_v3,2023.2.2,Win32,84.74576271,,,,,,,,,,,,,,,,1012.5621,1013.8561,1013.8561,1018.7856,return,3.8405,,22.65625,,,,,,FBP-YG-81.png,0.35,1.2,6,0.5,,,,,,,,,,,,,0,47,47,5,1,,,,,,,,,,,,,,,,,,,,,,,,,,,,
,,,,,V3_103,20,Female,2025-02-04_16h34.57.956,jersey_experiment_5_v3,2023.2.2,Win32,84.74576271,,,,,,,,,,,,,,,,1018.7858,1020.0798,1020.0798,1022.5623,return,1.0426,,67.44791667,,,,,,FBP-PT-19.png,0.4,1.2,28,0.5,,,,,,,,,,,,,0,48,48,27,1,,,,,,,,,,,,,,,,,,,,,,,,,,,,
,,,,,V3_103,20,Female,2025-02-04_16h34.57.956,jersey_experiment_5_v3,2023.2.2,Win32,84.74576271,,,,,,,,,,,,,,,,1022.5625,1023.8563,1023.8564,1029.139,return,3.6503,,49.609375,,,,,,FBP-RB-17.png,0.37,1.2,47,0.5,,,,,,,,,,,,,0,49,49,46,1,,,,,,,,,,,,,,,,,,,,,,,,,,,,
,,,,,V3_103,20,Female,2025-02-04_16h34.57.956,jersey_experiment_5_v3,2023.2.2,Win32,84.74576271,,,,,,,,,,,,,,,,1029.1392,1030.6803,1030.6804,1035.6333,return,2.5922,,53.64583333,,,,,,FBP-OG-17.png,0.35,1.2,31,0.75,,,,,,,,,,,,,0,50,50,30,1,,,,,,,,,,,,,,,,,,,,,,,,,,,,
,,,,,V3_103,20,Female,2025-02-04_16h34.57.956,jersey_experiment_5_v3,2023.2.2,Win32,84.74576271,,,,,,,,,,,,,,,,1035.6334,1036.9276,1036.9277,1039.057,return,1.0677,,80.078125,,,,,,FBP-PT-18.png,0.4,1.2,23,0.5,,,,,,,,,,,,,0,51,51,22,1,,,,,,,,,,,,,,,,,,,,,,,,,,,,
,,,,,V3_103,20,Female,2025-02-04_16h34.57.956,jersey_experiment_5_v3,2023.2.2,Win32,84.74576271,,,,,,,,,,,,,,,,1039.0572,1040.351,1040.3512,1042.2569,return,1.0547,,46.09375,,,,,,FBP-RB-18.png,0.35,1.2,51,0.5,,,,,,,,,,,,,0,52,52,50,1,,,,,,,,,,,,,,,,,,,,,,,,,,,,
,,,,,V3_103,20,Female,2025-02-04_16h34.57.956,jersey_experiment_5_v3,2023.2.2,Win32,84.74576271,,,,,,,,,,,,,,,,1042.2572,1043.8102,1043.8102,1046.7867,return,0.945,,54.03645833,,,,,,FBP-OG-19.png,0.35,1.2,41,0.75,,,,,,,,,,,,,0,53,53,40,1,,,,,,,,,,,,,,,,,,,,,,,,,,,,
,,,,,V3_103,20,Female,2025-02-04_16h34.57.956,jersey_experiment_5_v3,2023.2.2,Win32,84.74576271,,,,,,,,,,,,,,,,1046.7869,1048.3398,1048.3398,1051.7397,return,0.895,,50.91145833,,,,,,FBP-OG-17.png,0.37,1.2,32,0.75,,,,,,,,,,,,,0,54,54,31,1,,,,,,,,,,,,,,,,,,,,,,,,,,,,
,,,,,V3_103,20,Female,2025-02-04_16h34.57.956,jersey_experiment_5_v3,2023.2.2,Win32,84.74576271,,,,,,,,,,,,,,,,1051.74,1053.2928,1053.2928,1055.9871,return,1.03,,53.125,,,,,,FBP-OG-19.png,0.37,1.2,42,0.75,,,,,,,,,,,,,0,55,55,41,1,,,,,,,,,,,,,,,,,,,,,,,,,,,,
,,,,,V3_103,20,Female,2025-02-04_16h34.57.956,jersey_experiment_5_v3,2023.2.2,Win32,84.74576271,,,,,,,,,,,,,,,,1055.9873,1057.5402,1057.5403,1059.9638,return,1.0094,,86.45833333,,,,,,FBP-OG-17.png,0.45,1.2,35,0.75,,,,,,,,,,,,,0,56,56,34,1,,,,,,,,,,,,,,,,,,,,,,,,,,,,
,,,,,V3_103,20,Female,2025-02-04_16h34.57.956,jersey_experiment_5_v3,2023.2.2,Win32,84.74576271,,,,,,,,,,,,,,,,1059.964,1061.258,1061.2581,1063.4579,return,1.0665,,48.69791667,,,,,,FBP-YG-91.png,0.37,1.2,12,0.5,,,,,,,,,,,,,0,57,57,11,1,,,,,,,,,,,,,,,,,,,,,,,,,,,,
,,,,,V3_103,20,Female,2025-02-04_16h34.57.956,jersey_experiment_5_v3,2023.2.2,Win32,84.74576271,,,,,,,,,,,,,,,,1063.4581,1064.7519,1064.752,1067.2345,return,1.2895,,80.859375,,,,,,FBP-PT-17.png,0.45,1.2,20,0.5,,,,,,,,,,,,,0,58,58,19,1,,,,,,,,,,,,,,,,,,,,,,,,,,,,
,,,,,V3_103,20,Female,2025-02-04_16h34.57.956,jersey_experiment_5_v3,2023.2.2,Win32,84.74576271,,,,,,,,,,,,,,,,1067.2347,1068.5286,1068.5286,1070.1289,return,0.9383,,89.19270833,,,,,,FBP-PT-19.png,0.45,1.2,30,0.5,,,,,,,,,,,,,0,59,59,29,1,,,,,,,,,,,,,,,,,,,,,,,,,,,,
,,,,,V3_103,20,Female,2025-02-04_16h34.57.956,jersey_experiment_5_v3,2023.2.2,Win32,84.74576271,,,,,,,,,,,,,,,,1070.1305,1071.4229,1071.4229,1075.0938,return,2.2045,,52.34375,,,,,,FBP-RB-91.png,0.37,1.2,57,0.5,,,,,,,,,,,,,,,,,,0,0,0,56,1,,,,,,,,,,,,,,,,,,,,,,,
,,,,,V3_103,20,Female,2025-02-04_16h34.57.956,jersey_experiment_5_v3,2023.2.2,Win32,84.74576271,,,,,,,,,,,,,,,,1075.0941,1076.6468,1076.6469,1078.7409,return,1.1069,,70.96354167,,,,,,FBP-OG-91.png,0.43,1.2,44,0.75,,,,,,,,,,,,,,,,,,0,1,1,43,1,,,,,,,,,,,,,,,,,,,,,,,
,,,,,V3_103,20,Female,2025-02-04_16h34.57.956,jersey_experiment_5_v3,2023.2.2,Win32,84.74576271,,,,,,,,,,,,,,,,1078.7411,1080.2938,1080.2938,1082.2587,return,0.8861,,74.08854167,,,,,,FBP-OG-81.png,0.4,1.2,38,0.75,,,,,,,,,,,,,,,,,,0,2,2,37,1,,,,,,,,,,,,,,,,,,,,,,,
,,,,,V3_103,20,Female,2025-02-04_16h34.57.956,jersey_experiment_5_v3,2023.2.2,Win32,84.74576271,,,,,,,,,,,,,,,,1082.2588,1083.5528,1083.5528,1085.4823,return,1.1062,,80.859375,,,,,,FBP-YG-17.png,0.43,1.2,4,0.5,,,,,,,,,,,,,,,,,,0,3,3,3,1,,,,,,,,,,,,,,,,,,,,,,,
,,,,,V3_103,20,Female,2025-02-04_16h34.57.956,jersey_experiment_5_v3,2023.2.2,Win32,84.74576271,,,,,,,,,,,,,,,,1085.4825,1086.7765,1086.7765,1088.6472,return,0.8473,,85.15625,,,,,,FBP-PT-91.png,0.45,1.2,30,0.5,,,,,,,,,,,,,,,,,,0,4,4,29,1,,,,,,,,,,,,,,,,,,,,,,,
,,,,,V3_103,20,Female,2025-02-04_16h34.57.956,jersey_experiment_5_v3,2023.2.2,Win32,84.74576271,,,,,,,,,,,,,,,,1088.6474,1089.9413,1089.9414,1093.1061,return,1.9686,,39.97395833,,,,,,FBP-RB-91.png,0.35,1.2,56,0.5,,,,,,,,,,,,,,,,,,0,5,5,55,1,,,,,,,,,,,,,,,,,,,,,,,
,,,,,V3_103,20,Female,2025-02-04_16h34.57.956,jersey_experiment_5_v3,2023.2.2,Win32,84.74576271,,,,,,,,,,,,,,,,1093.1063,1094.4002,1094.4003,1096.5299,return,1.008,,79.94791667,,,,,,FBP-RB-91.png,0.4,1.2,58,0.5,,,,,,,,,,,,,,,,,,0,6,6,57,1,,,,,,,,,,,,,,,,,,,,,,,
,,,,,V3_103,20,Female,2025-02-04_16h34.57.956,jersey_experiment_5_v3,2023.2.2,Win32,84.74576271,,,,,,,,,,,,,,,,1096.53,1098.0829,1098.0829,1101.1418,return,1.0382,,56.25,,,,,,FBP-OG-91.png,0.37,1.2,42,0.75,,,,,,,,,,,,,,,,,,0,7,7,41,1,,,,,,,,,,,,,,,,,,,,,,,
,,,,,V3_103,20,Female,2025-02-04_16h34.57.956,jersey_experiment_5_v3,2023.2.2,Win32,84.74576271,,,,,,,,,,,,,,,,1101.142,1102.6949,1102.6949,1104.7301,return,1.2709,,66.015625,,,,,,FBP-OG-71.png,0.37,1.2,32,0.75,,,,,,,,,,,,,,,,,,0,8,8,31,1,,,,,,,,,,,,,,,,,,,,,,,
,,,,,V3_103,20,Female,2025-02-04_16h34.57.956,jersey_experiment_5_v3,2023.2.2,Win32,84.74576271,,,,,,,,,,,,,,,,1104.7303,1106.0244,1106.0245,1108.3066,return,1.2152,,50.91145833,,,,,,FBP-PT-91.png,0.37,1.2,27,0.5,,,,,,,,,,,,,,,,,,0,9,9,26,1,,,,,,,,,,,,,,,,,,,,,,,
,,,,,V3_103,20,Female,2025-02-04_16h34.57.956,jersey_experiment_5_v3,2023.2.2,Win32,84.74576271,,,,,,,,,,,,,,,,1108.3069,1109.6008,1109.6008,1111.7774,return,0.9472,,87.36979167,,,,,,FBP-PT-81.png,0.45,1.2,25,0.5,,,,,,,,,,,,,,,,,,0,10,10,24,1,,,,,,,,,,,,,,,,,,,,,,,
,,,,,V3_103,20,Female,2025-02-04_16h34.57.956,jersey_experiment_5_v3,2023.2.2,Win32,84.74576271,,,,,,,,,,,,,,,,1111.7777,1113.0716,1113.0717,1117.9424,return,3.2943,,64.453125,,,,,,FBP-YG-17.png,0.45,1.2,5,0.5,,,,,,,,,,,,,,,,,,0,11,11,4,1,,,,,,,,,,,,,,,,,,,,,,,
,,,,,V3_103,20,Female,2025-02-04_16h34.57.956,jersey_experiment_5_v3,2023.2.2,Win32,84.74576271,,,,,,,,,,,,,,,,1117.9427,1119.2367,1119.2368,1123.2013,return,2.7692,,52.47395833,,,,,,FBP-PT-71.png,0.37,1.2,17,0.5,,,,,,,,,,,,,,,,,,0,12,12,16,1,,,,,,,,,,,,,,,,,,,,,,,
,,,,,V3_103,20,Female,2025-02-04_16h34.57.956,jersey_experiment_5_v3,2023.2.2,Win32,84.74576271,,,,,,,,,,,,,,,,1123.2015,1124.4955,1124.4956,1126.5545,return,1.049,,90.10416667,,,,,,FBP-PT-71.png,0.45,1.2,20,0.5,,,,,,,,,,,,,,,,,,0,13,13,19,1,,,,,,,,,,,,,,,,,,,,,,,
,,,,,V3_103,20,Female,2025-02-04_16h34.57.956,jersey_experiment_5_v3,2023.2.2,Win32,84.74576271,,,,,,,,,,,,,,,,1126.5548,1127.8487,1127.8488,1130.0252,return,0.8788,,76.953125,,,,,,FBP-RB-91.png,0.43,1.2,59,0.5,,,,,,,,,,,,,,,,,,0,14,14,58,1,,,,,,,,,,,,,,,,,,,,,,,
,,,,,V3_103,20,Female,2025-02-04_16h34.57.956,jersey_experiment_5_v3,2023.2.2,Win32,84.74576271,,,,,,,,,,,,,,,,1130.0254,1131.3193,1131.3193,1133.6372,return,1.1222,,44.79166667,,,,,,FBP-YG-18.png,0.35,1.2,6,0.5,,,,,,,,,,,,,,,,,,0,15,15,5,1,,,,,,,,,,,,,,,,,,,,,,,
,,,,,V3_103,20,Female,2025-02-04_16h34.57.956,jersey_experiment_5_v3,2023.2.2,Win32,84.74576271,,,,,,,,,,,,,,,,1133.6373,1135.19,1135.19,1137.1431,return,0.8467,,45.703125,,,,,,FBP-OG-91.png,0.35,1.2,41,0.75,,,,,,,,,,,,,,,,,,0,16,16,40,1,,,,,,,,,,,,,,,,,,,,,,,
,,,,,V3_103,20,Female,2025-02-04_16h34.57.956,jersey_experiment_5_v3,2023.2.2,Win32,84.74576271,,,,,,,,,,,,,,,,1137.1434,1138.4373,1138.4373,1141.0609,return,1.6604,,45.96354167,,,,,,FBP-YG-17.png,0.35,1.2,1,0.5,,,,,,,,,,,,,,,,,,0,17,17,0,1,,,,,,,,,,,,,,,,,,,,,,,
,,,,,V3_103,20,Female,2025-02-04_16h34.57.956,jersey_experiment_5_v3,2023.2.2,Win32,84.74576271,,,,,,,,,,,,,,,,1141.0611,1142.355,1142.355,1144.5786,return,1.0306,,51.30208333,,,,,,FBP-PT-81.png,0.35,1.2,21,0.5,,,,,,,,,,,,,,,,,,0,18,18,20,1,,,,,,,,,,,,,,,,,,,,,,,
,,,,,V3_103,20,Female,2025-02-04_16h34.57.956,jersey_experiment_5_v3,2023.2.2,Win32,84.74576271,,,,,,,,,,,,,,,,1144.579,1145.8728,1145.8728,1147.5788,return,0.9415,,59.50520833,,,,,,FBP-PT-81.png,0.4,1.2,23,0.5,,,,,,,,,,,,,,,,,,0,19,19,22,1,,,,,,,,,,,,,,,,,,,,,,,
,,,,,V3_103,20,Female,2025-02-04_16h34.57.956,jersey_experiment_5_v3,2023.2.2,Win32,84.74576271,,,,,,,,,,,,,,,,1147.5791,1149.1317,1149.1317,1150.979,return,1.0382,,59.765625,,,,,,FBP-OG-81.png,0.37,1.2,37,0.75,,,,,,,,,,,,,,,,,,0,20,20,36,1,,,,,,,,,,,,,,,,,,,,,,,
,,,,,V3_103,20,Female,2025-02-04_16h34.57.956,jersey_experiment_5_v3,2023.2.2,Win32,84.74576271,,,,,,,,,,,,,,,,1150.9792,1152.2729,1152.273,1154.3555,return,0.8375,,66.53645833,,,,,,FBP-YG-19.png,0.4,1.2,13,0.5,,,,,,,,,,,,,,,,,,0,21,21,12,1,,,,,,,,,,,,,,,,,,,,,,,
,,,,,V3_103,20,Female,2025-02-04_16h34.57.956,jersey_experiment_5_v3,2023.2.2,Win32,84.74576271,,,,,,,,,,,,,,,,1154.3556,1155.6496,1155.6496,1157.7321,return,1.0056,,64.84375,,,,,,FBP-PT-81.png,0.37,1.2,22,0.5,,,,,,,,,,,,,,,,,,0,22,22,21,1,,,,,,,,,,,,,,,,,,,,,,,
,,,,,V3_103,20,Female,2025-02-04_16h34.57.956,jersey_experiment_5_v3,2023.2.2,Win32,84.74576271,,,,,,,,,,,,,,,,1157.7324,1159.2851,1159.2851,1161.2381,return,0.9332,,57.8125,,,,,,FBP-OG-91.png,0.4,1.2,43,0.75,,,,,,,,,,,,,,,,,,0,23,23,42,1,,,,,,,,,,,,,,,,,,,,,,,
,,,,,V3_103,20,Female,2025-02-04_16h34.57.956,jersey_experiment_5_v3,2023.2.2,Win32,84.74576271,,,,,,,,,,,,,,,,1161.2384,1162.5323,1162.5323,1165.4618,return,1.0159,,77.60416667,,,,,,FBP-RB-71.png,0.45,1.2,50,0.5,,,,,,,,,,,,,,,,,,0,24,24,49,1,,,,,,,,,,,,,,,,,,,,,,,
,,,,,V3_103,20,Female,2025-02-04_16h34.57.956,jersey_experiment_5_v3,2023.2.2,Win32,84.74576271,,,,,,,,,,,,,,,,1165.462,1167.0032,1167.0033,1168.4502,return,0.8628,,79.03645833,,,,,,FBP-OG-81.png,0.45,1.2,40,0.75,,,,,,,,,,,,,,,,,,0,25,25,39,1,,,,,,,,,,,,,,,,,,,,,,,
,,,,,V3_103,20,Female,2025-02-04_16h34.57.956,jersey_experiment_5_v3,2023.2.2,Win32,84.74576271,,,,,,,,,,,,,,,,1168.4504,1169.7442,1169.7443,1172.4739,return,0.9029,,57.03125,,,,,,FBP-YG-19.png,0.37,1.2,12,0.5,,,,,,,,,,,,,,,,,,0,26,26,11,1,,,,,,,,,,,,,,,,,,,,,,,
,,,,,V3_103,20,Female,2025-02-04_16h34.57.956,jersey_experiment_5_v3,2023.2.2,Win32,84.74576271,,,,,,,,,,,,,,,,1172.4742,1173.7681,1173.7681,1175.9917,return,0.826,,53.77604167,,,,,,FBP-RB-81.png,0.4,1.2,53,0.5,,,,,,,,,,,,,,,,,,0,27,27,52,1,,,,,,,,,,,,,,,,,,,,,,,
,,,,,V3_103,20,Female,2025-02-04_16h34.57.956,jersey_experiment_5_v3,2023.2.2,Win32,84.74576271,,,,,,,,,,,,,,,,1175.9919,1177.5447,1177.5447,1180.6152,return,1.4142,,72.91666667,,,,,,FBP-OG-81.png,0.43,1.2,39,0.75,,,,,,,,,,,,,,,,,,0,28,28,38,1,,,,,,,,,,,,,,,,,,,,,,,
,,,,,V3_103,20,Female,2025-02-04_16h34.57.956,jersey_experiment_5_v3,2023.2.2,Win32,84.74576271,,,,,,,,,,,,,,,,1180.6154,1182.1568,1182.1568,1183.9449,return,0.8622,,77.21354167,,,,,,FBP-OG-71.png,0.45,1.2,35,0.75,,,,,,,,,,,,,,,,,,0,29,29,34,1,,,,,,,,,,,,,,,,,,,,,,,
,,,,,V3_103,20,Female,2025-02-04_16h34.57.956,jersey_experiment_5_v3,2023.2.2,Win32,84.74576271,,,,,,,,,,,,,,,,1183.9452,1185.239,1185.2391,1187.0039,return,0.9654,,80.98958333,,,,,,FBP-RB-81.png,0.45,1.2,55,0.5,,,,,,,,,,,,,,,,,,0,30,30,54,1,,,,,,,,,,,,,,,,,,,,,,,
,,,,,V3_103,20,Female,2025-02-04_16h34.57.956,jersey_experiment_5_v3,2023.2.2,Win32,84.74576271,,,,,,,,,,,,,,,,1187.0041,1188.298,1188.298,1190.204,return,0.9309,,78.25520833,,,,,,FBP-PT-91.png,0.4,1.2,28,0.5,,,,,,,,,,,,,,,,,,0,31,31,27,1,,,,,,,,,,,,,,,,,,,,,,,
,,,,,V3_103,20,Female,2025-02-04_16h34.57.956,jersey_experiment_5_v3,2023.2.2,Win32,84.74576271,,,,,,,,,,,,,,,,1190.2043,1191.4983,1191.4983,1193.6274,return,0.8943,,55.859375,,,,,,FBP-RB-81.png,0.37,1.2,52,0.5,,,,,,,,,,,,,,,,,,0,32,32,51,1,,,,,,,,,,,,,,,,,,,,,,,
,,,,,V3_103,20,Female,2025-02-04_16h34.57.956,jersey_experiment_5_v3,2023.2.2,Win32,84.74576271,,,,,,,,,,,,,,,,1193.6277,1194.9218,1194.9218,1197.6984,return,0.9251,,71.61458333,,,,,,FBP-PT-91.png,0.43,1.2,29,0.5,,,,,,,,,,,,,,,,,,0,33,33,28,1,,,,,,,,,,,,,,,,,,,,,,,
,,,,,V3_103,20,Female,2025-02-04_16h34.57.956,jersey_experiment_5_v3,2023.2.2,Win32,84.74576271,,,,,,,,,,,,,,,,1197.6986,1199.2513,1199.2514,1200.828,return,0.8803,,82.94270833,,,,,,FBP-OG-91.png,0.45,1.2,45,0.75,,,,,,,,,,,,,,,,,,0,34,34,44,1,,,,,,,,,,,,,,,,,,,,,,,
,,,,,V3_103,20,Female,2025-02-04_16h34.57.956,jersey_experiment_5_v3,2023.2.2,Win32,84.74576271,,,,,,,,,,,,,,,,1200.8281,1202.381,1202.381,1204.4868,return,0.9323,,65.234375,,,,,,FBP-OG-71.png,0.35,1.2,31,0.75,,,,,,,,,,,,,,,,,,0,35,35,30,1,,,,,,,,,,,,,,,,,,,,,,,
,,,,,V3_103,20,Female,2025-02-04_16h34.57.956,jersey_experiment_5_v3,2023.2.2,Win32,84.74576271,,,,,,,,,,,,,,,,1204.4871,1205.7809,1205.781,1207.9223,return,0.8901,,84.89583333,,,,,,FBP-RB-71.png,0.43,1.2,49,0.5,,,,,,,,,,,,,,,,,,0,36,36,48,1,,,,,,,,,,,,,,,,,,,,,,,
,,,,,V3_103,20,Female,2025-02-04_16h34.57.956,jersey_experiment_5_v3,2023.2.2,Win32,84.74576271,,,,,,,,,,,,,,,,1207.9225,1209.2164,1209.2164,1211.993,return,1.0364,,71.74479167,,,,,,FBP-RB-71.png,0.4,1.2,48,0.5,,,,,,,,,,,,,,,,,,0,37,37,47,1,,,,,,,,,,,,,,,,,,,,,,,
,,,,,V3_103,20,Female,2025-02-04_16h34.57.956,jersey_experiment_5_v3,2023.2.2,Win32,84.74576271,,,,,,,,,,,,,,,,1211.9932,1213.2872,1213.2873,1215.2991,return,0.9008,,86.71875,,,,,,FBP-RB-81.png,0.35,1.2,51,0.5,,,,,,,,,,,,,,,,,,0,38,38,50,1,,,,,,,,,,,,,,,,,,,,,,,
,,,,,V3_103,20,Female,2025-02-04_16h34.57.956,jersey_experiment_5_v3,2023.2.2,Win32,84.74576271,,,,,,,,,,,,,,,,1215.2993,1216.5932,1216.5932,1218.6167,return,0.8322,,82.03125,,,,,,FBP-YG-18.png,0.37,1.2,7,0.5,,,,,,,,,,,,,,,,,,0,39,39,6,1,,,,,,,,,,,,,,,,,,,,,,,
,,,,,V3_103,20,Female,2025-02-04_16h34.57.956,jersey_experiment_5_v3,2023.2.2,Win32,84.74576271,,,,,,,,,,,,,,,,1218.617,1219.9109,1219.9109,1221.6522,return,1.0268,,84.375,,,,,,FBP-PT-81.png,0.43,1.2,24,0.5,,,,,,,,,,,,,,,,,,0,40,40,23,1,,,,,,,,,,,,,,,,,,,,,,,
,,,,,V3_103,20,Female,2025-02-04_16h34.57.956,jersey_experiment_5_v3,2023.2.2,Win32,84.74576271,,,,,,,,,,,,,,,,1221.6524,1222.9464,1222.9464,1224.7465,return,0.9201,,86.19791667,,,,,,FBP-YG-19.png,0.45,1.2,15,0.5,,,,,,,,,,,,,,,,,,0,41,41,14,1,,,,,,,,,,,,,,,,,,,,,,,
,,,,,V3_103,20,Female,2025-02-04_16h34.57.956,jersey_experiment_5_v3,2023.2.2,Win32,84.74576271,,,,,,,,,,,,,,,,1224.7468,1226.0405,1226.0406,1228.4054,return,0.9217,,57.29166667,,,,,,FBP-PT-91.png,0.35,1.2,26,0.5,,,,,,,,,,,,,,,,,,0,42,42,25,1,,,,,,,,,,,,,,,,,,,,,,,
,,,,,V3_103,20,Female,2025-02-04_16h34.57.956,jersey_experiment_5_v3,2023.2.2,Win32,84.74576271,,,,,,,,,,,,,,,,1228.4057,1229.9585,1229.9585,1232.1937,return,1.0513,,68.48958333,,,,,,FBP-OG-71.png,0.4,1.2,33,0.75,,,,,,,,,,,,,,,,,,0,43,43,32,1,,,,,,,,,,,,,,,,,,,,,,,
,,,,,V3_103,20,Female,2025-02-04_16h34.57.956,jersey_experiment_5_v3,2023.2.2,Win32,84.74576271,,,,,,,,,,,,,,,,1232.1941,1233.4879,1233.4879,1235.4293,return,0.9108,,78.64583333,,,,,,FBP-YG-19.png,0.43,1.2,14,0.5,,,,,,,,,,,,,,,,,,0,44,44,13,1,,,,,,,,,,,,,,,,,,,,,,,
,,,,,V3_103,20,Female,2025-02-04_16h34.57.956,jersey_experiment_5_v3,2023.2.2,Win32,84.74576271,,,,,,,,,,,,,,,,1235.4295,1236.7234,1236.7234,1238.547,return,0.9804,,85.02604167,,,,,,FBP-YG-18.png,0.45,1.2,10,0.5,,,,,,,,,,,,,,,,,,0,45,45,9,1,,,,,,,,,,,,,,,,,,,,,,,
,,,,,V3_103,20,Female,2025-02-04_16h34.57.956,jersey_experiment_5_v3,2023.2.2,Win32,84.74576271,,,,,,,,,,,,,,,,1238.5473,1239.8411,1239.8412,1241.5235,return,1.0532,,86.58854167,,,,,,FBP-PT-71.png,0.43,1.2,19,0.5,,,,,,,,,,,,,,,,,,0,46,46,18,1,,,,,,,,,,,,,,,,,,,,,,,
,,,,,V3_103,20,Female,2025-02-04_16h34.57.956,jersey_experiment_5_v3,2023.2.2,Win32,84.74576271,,,,,,,,,,,,,,,,1241.5238,1242.8178,1242.8178,1244.7,return,0.9806,,83.46354167,,,,,,FBP-YG-18.png,0.43,1.2,9,0.5,,,,,,,,,,,,,,,,,,0,47,47,8,1,,,,,,,,,,,,,,,,,,,,,,,
,,,,,V3_103,20,Female,2025-02-04_16h34.57.956,jersey_experiment_5_v3,2023.2.2,Win32,84.74576271,,,,,,,,,,,,,,,,1244.7003,1245.9943,1245.9943,1248.4885,return,1.2692,,49.08854167,,,,,,FBP-RB-71.png,0.37,1.2,47,0.5,,,,,,,,,,,,,,,,,,0,48,48,46,1,,,,,,,,,,,,,,,,,,,,,,,
,,,,,V3_103,20,Female,2025-02-04_16h34.57.956,jersey_experiment_5_v3,2023.2.2,Win32,84.74576271,,,,,,,,,,,,,,,,1248.4888,1249.7827,1249.7827,1251.8298,return,0.8155,,53.125,,,,,,FBP-RB-71.png,0.35,1.2,46,0.5,,,,,,,,,,,,,,,,,,0,49,49,45,1,,,,,,,,,,,,,,,,,,,,,,,
,,,,,V3_103,20,Female,2025-02-04_16h34.57.956,jersey_experiment_5_v3,2023.2.2,Win32,84.74576271,,,,,,,,,,,,,,,,1251.8301,1253.1239,1253.124,1255.1712,return,1.0066,,75.13020833,,,,,,FBP-PT-71.png,0.4,1.2,18,0.5,,,,,,,,,,,,,,,,,,0,50,50,17,1,,,,,,,,,,,,,,,,,,,,,,,
,,,,,V3_103,20,Female,2025-02-04_16h34.57.956,jersey_experiment_5_v3,2023.2.2,Win32,84.74576271,,,,,,,,,,,,,,,,1255.1715,1256.4653,1256.4654,1259.1712,return,1.0302,,71.74479167,,,,,,FBP-PT-71.png,0.35,1.2,16,0.5,,,,,,,,,,,,,,,,,,0,51,51,15,1,,,,,,,,,,,,,,,,,,,,,,,
,,,,,V3_103,20,Female,2025-02-04_16h34.57.956,jersey_experiment_5_v3,2023.2.2,Win32,84.74576271,,,,,,,,,,,,,,,,1259.1714,1260.4654,1260.4654,1262.8421,return,0.9796,,90.49479167,,,,,,FBP-RB-81.png,0.43,1.2,54,0.5,,,,,,,,,,,,,,,,,,0,52,52,53,1,,,,,,,,,,,,,,,,,,,,,,,
,,,,,V3_103,20,Female,2025-02-04_16h34.57.956,jersey_experiment_5_v3,2023.2.2,Win32,84.74576271,,,,,,,,,,,,,,,,1262.8423,1264.395,1264.3951,1267.654,return,2.2627,,81.51041667,,,,,,FBP-OG-71.png,0.43,1.2,34,0.75,,,,,,,,,,,,,,,,,,0,53,53,33,1,,,,,,,,,,,,,,,,,,,,,,,
,,,,,V3_103,20,Female,2025-02-04_16h34.57.956,jersey_experiment_5_v3,2023.2.2,Win32,84.74576271,,,,,,,,,,,,,,,,1267.6543,1268.948,1268.9481,1270.9717,return,0.9423,,78.38541667,,,,,,FBP-YG-17.png,0.4,1.2,3,0.5,,,,,,,,,,,,,,,,,,0,54,54,2,1,,,,,,,,,,,,,,,,,,,,,,,
,,,,,V3_103,20,Female,2025-02-04_16h34.57.956,jersey_experiment_5_v3,2023.2.2,Win32,84.74576271,,,,,,,,,,,,,,,,1270.972,1272.266,1272.2661,1274.3483,return,0.8476,,76.5625,,,,,,FBP-YG-18.png,0.4,1.2,8,0.5,,,,,,,,,,,,,,,,,,0,55,55,7,1,,,,,,,,,,,,,,,,,,,,,,,
,,,,,V3_103,20,Female,2025-02-04_16h34.57.956,jersey_experiment_5_v3,2023.2.2,Win32,84.74576271,,,,,,,,,,,,,,,,1274.3486,1275.9014,1275.9014,1278.5131,return,1.1115,,51.171875,,,,,,FBP-OG-81.png,0.35,1.2,36,0.75,,,,,,,,,,,,,,,,,,0,56,56,35,1,,,,,,,,,,,,,,,,,,,,,,,
,,,,,V3_103,20,Female,2025-02-04_16h34.57.956,jersey_experiment_5_v3,2023.2.2,Win32,84.74576271,,,,,,,,,,,,,,,,1278.5133,1279.8074,1279.8075,1282.0545,return,0.9315,,86.71875,,,,,,FBP-RB-91.png,0.45,1.2,60,0.5,,,,,,,,,,,,,,,,,,0,57,57,59,1,,,,,,,,,,,,,,,,,,,,,,,
,,,,,V3_103,20,Female,2025-02-04_16h34.57.956,jersey_experiment_5_v3,2023.2.2,Win32,84.74576271,,,,,,,,,,,,,,,,1282.0548,1283.3486,1283.3488,1285.4194,return,0.951,,75.91145833,,,,,,FBP-YG-17.png,0.37,1.2,2,0.5,,,,,,,,,,,,,,,,,,0,58,58,1,1,,,,,,,,,,,,,,,,,,,,,,,
,,,,,V3_103,20,Female,2025-02-04_16h34.57.956,jersey_experiment_5_v3,2023.2.2,Win32,84.74576271,,,,,,,,,,,,,,,,1285.4196,1286.7134,1286.7136,1288.643,return,0.9243,,76.69270833,,,,,,FBP-YG-19.png,0.35,1.2,11,0.5,,,,,,,,,,,,,,,,,,0,59,59,10,1,,,,,,,,,,,,,,,,,,,,,,,
,,,,,V3_103,20,Female,2025-02-04_16h34.57.956,jersey_experiment_5_v3,2023.2.2,Win32,84.74576271,,,,,,,,,,,,,,,,,,,,,,,,,,,,,,,,,,,,,,,,,,,,,,,,,,,,,,,,1288.6432,1302.9967,return,14.3439,,,,,,,,,,,,,,,,,,,
,,,,,V3_103,20,Female,2025-02-04_16h34.57.956,jersey_experiment_5_v3,2023.2.2,Win32,84.74576271,,,,,,,,,,,,,,,,,,,,,,,,,,,,,,,,,,,,,,,,,,,,,,,,,,,,,,,,,,,,,1302.9968,1311.6441,1,6.7356,return,1.8978,,,,,,,,,,,,
,,,,,V3_103,20,Female,2025-02-04_16h34.57.956,jersey_experiment_5_v3,2023.2.2,Win32,84.74576271,,,,,,,,,,,,,,,,,,,,,,,,,,,,,,,,,,,,,,,,,,,,,,,,,,,,,,,,,,,,,,,,,,,,1311.6443,1409.0367,The study could be about whether people are consistent in what they think is correct and whether they can stay consistent the whole time.,right,86.9668,,,,,,
,,,,,V3_103,20,Female,2025-02-04_16h34.57.956,jersey_experiment_5_v3,2023.2.2,Win32,84.74576271,,,,,,,,,,,,,,,,,,,,,,,,,,,,,,,,,,,,,,,,,,,,,,,,,,,,,,,,,,,,,,,,,,,,,,,,,,1409.0368,1416.601,return,7.5517,