requirements.started,requirements.stopped,key_resp_3.keys,key_resp_3.rt,key_resp_3.duration,Subject ID,Age,Gender,date,expName,psychopyVersion,OS,frameRate,instructions1.started,instructions1.stopped,key_resp.keys,key_resp.rt,key_resp.duration,example.started,example.stopped,enter_2.keys,enter_2.rt,enter_2.duration,instructions2.started,instructions2.stopped,enter_3.keys,enter_3.rt,enter_3.duration,image.started,image.stopped,slider_2.started,slider_2.stopped,next.keys,next.rt,next.duration,slider.response,trial_block_1.thisRepN,trial_block_1.thisTrialN,trial_block_1.thisN,trial_block_1.thisIndex,trial_block_1.ran,Path,Width,Height,Index,Duration,trial_block_2.thisRepN,trial_block_2.thisTrialN,trial_block_2.thisN,trial_block_2.thisIndex,trial_block_2.ran,rest_break.started,rest_break.stopped,end_break.started,end_break.stopped,key_resp_5.keys,key_resp_5.rt,key_resp_5.duration,trial_block_3.thisRepN,trial_block_3.thisTrialN,trial_block_3.thisN,trial_block_3.thisIndex,trial_block_3.ran,trial_block_4.thisRepN,trial_block_4.thisTrialN,trial_block_4.thisN,trial_block_4.thisIndex,trial_block_4.ran,questions_intro.started,questions_intro.stopped,enter_12.keys,enter_12.rt,enter_12.duration,question2.started,question2.stopped,question_doingbest.response,question_doingbest.rt,enter_15.keys,enter_15.rt,enter_15.duration,pattern.started,pattern.stopped,pattern_2.text,enter_17.keys,enter_17.rt,enter_17.duration,thankyou.started,thankyou.stopped,enter_14.keys,enter_14.rt,enter_14.duration
0.0002,13.3484,return,13.3413,,V3_106,18,female,2025-02-06_14h34.19.497,jersey_experiment_5_v3,2023.2.2,Win32,84.74576271,,,,,,,,,,,,,,,,,,,,,,,,,,,,,,,,,,,,,,,,,,,,,,,,,,,,,,,,,,,,,,,,,,,,,,,,,,,,,,
,,,,,V3_106,18,female,2025-02-06_14h34.19.497,jersey_experiment_5_v3,2023.2.2,Win32,84.74576271,13.3485,20.9719,return,7.6099,,,,,,,,,,,,,,,,,,,,,,,,,,,,,,,,,,,,,,,,,,,,,,,,,,,,,,,,,,,,,,,,,,,,,,,,,,
,,,,,V3_106,18,female,2025-02-06_14h34.19.497,jersey_experiment_5_v3,2023.2.2,Win32,84.74576271,,,,,,20.9719,25.7487,return,4.7577,,,,,,,,,,,,,,,,,,,,,,,,,,,,,,,,,,,,,,,,,,,,,,,,,,,,,,,,,,,,,,,,,,,,,
,,,,,V3_106,18,female,2025-02-06_14h34.19.497,jersey_experiment_5_v3,2023.2.2,Win32,84.74576271,,,,,,,,,,,25.7488,40.7981,return,15.0341,,,,,,,,,,,,,,,,,,,,,,,,,,,,,,,,,,,,,,,,,,,,,,,,,,,,,,,,,,,,,,,,
,,,,,V3_106,18,female,2025-02-06_14h34.19.497,jersey_experiment_5_v3,2023.2.2,Win32,84.74576271,,,,,,,,,,,,,,,,40.8,42.3459,42.3459,65.2761,return,3.1839,,26.04166667,0,0,0,59,1,FBP-RB-19.png,0.45,1.2,60,0.75,,,,,,,,,,,,,,,,,,,,,,,,,,,,,,,,,,,,,,,,,,,,,
,,,,,V3_106,18,female,2025-02-06_14h34.19.497,jersey_experiment_5_v3,2023.2.2,Win32,84.74576271,,,,,,,,,,,,,,,,65.2764,66.5703,66.5704,70.7853,return,2.221,,49.08854167,0,1,1,43,1,FBP-OG-19.png,0.43,1.2,44,0.5,,,,,,,,,,,,,,,,,,,,,,,,,,,,,,,,,,,,,,,,,,,,,
,,,,,V3_106,18,female,2025-02-06_14h34.19.497,jersey_experiment_5_v3,2023.2.2,Win32,84.74576271,,,,,,,,,,,,,,,,70.7854,72.3294,72.3294,74.8005,return,0.7553,,74.609375,0,2,2,7,1,FBP-YG-81.png,0.4,1.2,8,0.75,,,,,,,,,,,,,,,,,,,,,,,,,,,,,,,,,,,,,,,,,,,,,
,,,,,V3_106,18,female,2025-02-06_14h34.19.497,jersey_experiment_5_v3,2023.2.2,Win32,84.74576271,,,,,,,,,,,,,,,,74.8006,76.3532,76.3533,79.2295,return,1.0883,,24.609375,0,3,3,20,1,FBP-PT-18.png,0.35,1.2,21,0.75,,,,,,,,,,,,,,,,,,,,,,,,,,,,,,,,,,,,,,,,,,,,,
,,,,,V3_106,18,female,2025-02-06_14h34.19.497,jersey_experiment_5_v3,2023.2.2,Win32,84.74576271,,,,,,,,,,,,,,,,79.2298,80.5236,80.5237,82.8932,return,0.39,,49.34895833,0,4,4,35,1,FBP-OG-18.png,0.35,1.2,36,0.5,,,,,,,,,,,,,,,,,,,,,,,,,,,,,,,,,,,,,,,,,,,,,
,,,,,V3_106,18,female,2025-02-06_14h34.19.497,jersey_experiment_5_v3,2023.2.2,Win32,84.74576271,,,,,,,,,,,,,,,,82.8933,84.4457,84.4457,85.8919,return,0.4942,,49.34895833,0,5,5,21,1,FBP-PT-18.png,0.37,1.2,22,0.75,,,,,,,,,,,,,,,,,,,,,,,,,,,,,,,,,,,,,,,,,,,,,
,,,,,V3_106,18,female,2025-02-06_14h34.19.497,jersey_experiment_5_v3,2023.2.2,Win32,84.74576271,,,,,,,,,,,,,,,,85.8921,87.4447,87.4447,88.8299,return,0.4177,,49.34895833,0,6,6,55,1,FBP-RB-19.png,0.35,1.2,56,0.75,,,,,,,,,,,,,,,,,,,,,,,,,,,,,,,,,,,,,,,,,,,,,
,,,,,V3_106,18,female,2025-02-06_14h34.19.497,jersey_experiment_5_v3,2023.2.2,Win32,84.74576271,,,,,,,,,,,,,,,,88.8301,90.3753,90.3753,94.9982,return,1.3887,,25,0,7,7,52,1,FBP-RB-18.png,0.4,1.2,53,0.75,,,,,,,,,,,,,,,,,,,,,,,,,,,,,,,,,,,,,,,,,,,,,
,,,,,V3_106,18,female,2025-02-06_14h34.19.497,jersey_experiment_5_v3,2023.2.2,Win32,84.74576271,,,,,,,,,,,,,,,,94.9984,96.2919,96.292,103.9776,return,3.8131,,74.609375,0,8,8,31,1,FBP-OG-17.png,0.37,1.2,32,0.5,,,,,,,,,,,,,,,,,,,,,,,,,,,,,,,,,,,,,,,,,,,,,
,,,,,V3_106,18,female,2025-02-06_14h34.19.497,jersey_experiment_5_v3,2023.2.2,Win32,84.74576271,,,,,,,,,,,,,,,,103.9777,105.5245,105.5246,108.9129,return,1.6503,,51.953125,0,9,9,0,1,FBP-YG-71.png,0.35,1.2,1,0.75,,,,,,,,,,,,,,,,,,,,,,,,,,,,,,,,,,,,,,,,,,,,,
,,,,,V3_106,18,female,2025-02-06_14h34.19.497,jersey_experiment_5_v3,2023.2.2,Win32,84.74576271,,,,,,,,,,,,,,,,108.9132,110.4575,110.4575,113.2778,return,1.1092,,77.08333333,0,10,10,14,1,FBP-YG-91.png,0.45,1.2,15,0.75,,,,,,,,,,,,,,,,,,,,,,,,,,,,,,,,,,,,,,,,,,,,,
,,,,,V3_106,18,female,2025-02-06_14h34.19.497,jersey_experiment_5_v3,2023.2.2,Win32,84.74576271,,,,,,,,,,,,,,,,113.2781,114.5754,114.5754,116.0707,return,0.6252,,74.08854167,0,11,11,36,1,FBP-OG-18.png,0.37,1.2,37,0.5,,,,,,,,,,,,,,,,,,,,,,,,,,,,,,,,,,,,,,,,,,,,,
,,,,,V3_106,18,female,2025-02-06_14h34.19.497,jersey_experiment_5_v3,2023.2.2,Win32,84.74576271,,,,,,,,,,,,,,,,116.0709,117.6192,117.6192,119.5521,return,0.6242,,25.390625,0,12,12,27,1,FBP-PT-19.png,0.4,1.2,28,0.75,,,,,,,,,,,,,,,,,,,,,,,,,,,,,,,,,,,,,,,,,,,,,
,,,,,V3_106,18,female,2025-02-06_14h34.19.497,jersey_experiment_5_v3,2023.2.2,Win32,84.74576271,,,,,,,,,,,,,,,,119.5522,121.105,121.105,126.8704,return,2.954,,74.86979167,0,13,13,2,1,FBP-YG-71.png,0.4,1.2,3,0.75,,,,,,,,,,,,,,,,,,,,,,,,,,,,,,,,,,,,,,,,,,,,,
,,,,,V3_106,18,female,2025-02-06_14h34.19.497,jersey_experiment_5_v3,2023.2.2,Win32,84.74576271,,,,,,,,,,,,,,,,126.8705,128.1659,128.1659,131.6236,return,2.3893,,62.76041667,0,14,14,37,1,FBP-OG-18.png,0.4,1.2,38,0.5,,,,,,,,,,,,,,,,,,,,,,,,,,,,,,,,,,,,,,,,,,,,,
,,,,,V3_106,18,female,2025-02-06_14h34.19.497,jersey_experiment_5_v3,2023.2.2,Win32,84.74576271,,,,,,,,,,,,,,,,131.6238,133.1726,133.1727,137.2261,return,0.3679,,49.86979167,0,15,15,4,1,FBP-YG-71.png,0.45,1.2,5,0.75,,,,,,,,,,,,,,,,,,,,,,,,,,,,,,,,,,,,,,,,,,,,,
,,,,,V3_106,18,female,2025-02-06_14h34.19.497,jersey_experiment_5_v3,2023.2.2,Win32,84.74576271,,,,,,,,,,,,,,,,137.2262,138.7765,138.7765,140.7026,return,0.2029,,0.130208333,0,16,16,26,1,FBP-PT-19.png,0.37,1.2,27,0.75,,,,,,,,,,,,,,,,,,,,,,,,,,,,,,,,,,,,,,,,,,,,,
,,,,,V3_106,18,female,2025-02-06_14h34.19.497,jersey_experiment_5_v3,2023.2.2,Win32,84.74576271,,,,,,,,,,,,,,,,140.7028,142.2465,142.2465,144.8946,return,0.352,,24.73958333,0,17,17,45,1,FBP-RB-17.png,0.35,1.2,46,0.75,,,,,,,,,,,,,,,,,,,,,,,,,,,,,,,,,,,,,,,,,,,,,
,,,,,V3_106,18,female,2025-02-06_14h34.19.497,jersey_experiment_5_v3,2023.2.2,Win32,84.74576271,,,,,,,,,,,,,,,,144.8948,146.4437,146.4437,149.4145,return,1.3797,,25,0,18,18,1,1,FBP-YG-71.png,0.37,1.2,2,0.75,,,,,,,,,,,,,,,,,,,,,,,,,,,,,,,,,,,,,,,,,,,,,
,,,,,V3_106,18,female,2025-02-06_14h34.19.497,jersey_experiment_5_v3,2023.2.2,Win32,84.74576271,,,,,,,,,,,,,,,,149.4147,150.9674,150.9674,154.3066,return,0.965,,72.52604167,0,19,19,57,1,FBP-RB-19.png,0.4,1.2,58,0.75,,,,,,,,,,,,,,,,,,,,,,,,,,,,,,,,,,,,,,,,,,,,,
,,,,,V3_106,18,female,2025-02-06_14h34.19.497,jersey_experiment_5_v3,2023.2.2,Win32,84.74576271,,,,,,,,,,,,,,,,154.3067,155.8557,155.8557,158.8021,return,0.3434,,99.34895833,0,20,20,6,1,FBP-YG-81.png,0.37,1.2,7,0.75,,,,,,,,,,,,,,,,,,,,,,,,,,,,,,,,,,,,,,,,,,,,,
,,,,,V3_106,18,female,2025-02-06_14h34.19.497,jersey_experiment_5_v3,2023.2.2,Win32,84.74576271,,,,,,,,,,,,,,,,158.8023,160.1062,160.1062,161.6976,return,0.4485,,51.69270833,0,21,21,34,1,FBP-OG-17.png,0.45,1.2,35,0.5,,,,,,,,,,,,,,,,,,,,,,,,,,,,,,,,,,,,,,,,,,,,,
,,,,,V3_106,18,female,2025-02-06_14h34.19.497,jersey_experiment_5_v3,2023.2.2,Win32,84.74576271,,,,,,,,,,,,,,,,161.6977,163.2486,163.2486,164.7972,return,0.6187,,50.65104167,0,22,22,18,1,FBP-PT-17.png,0.43,1.2,19,0.75,,,,,,,,,,,,,,,,,,,,,,,,,,,,,,,,,,,,,,,,,,,,,
,,,,,V3_106,18,female,2025-02-06_14h34.19.497,jersey_experiment_5_v3,2023.2.2,Win32,84.74576271,,,,,,,,,,,,,,,,164.7974,166.3388,166.3389,167.9554,return,0.2602,,74.609375,0,23,23,23,1,FBP-PT-18.png,0.43,1.2,24,0.75,,,,,,,,,,,,,,,,,,,,,,,,,,,,,,,,,,,,,,,,,,,,,
,,,,,V3_106,18,female,2025-02-06_14h34.19.497,jersey_experiment_5_v3,2023.2.2,Win32,84.74576271,,,,,,,,,,,,,,,,167.9557,169.5034,169.5034,170.4728,return,0.3751,,74.21875,0,24,24,29,1,FBP-PT-19.png,0.45,1.2,30,0.75,,,,,,,,,,,,,,,,,,,,,,,,,,,,,,,,,,,,,,,,,,,,,
,,,,,V3_106,18,female,2025-02-06_14h34.19.497,jersey_experiment_5_v3,2023.2.2,Win32,84.74576271,,,,,,,,,,,,,,,,170.473,172.021,172.021,172.9073,return,0.2593,,74.21875,0,25,25,17,1,FBP-PT-17.png,0.4,1.2,18,0.75,,,,,,,,,,,,,,,,,,,,,,,,,,,,,,,,,,,,,,,,,,,,,
,,,,,V3_106,18,female,2025-02-06_14h34.19.497,jersey_experiment_5_v3,2023.2.2,Win32,84.74576271,,,,,,,,,,,,,,,,172.9075,174.4505,174.4506,175.7452,return,0.165,,25.390625,0,26,26,56,1,FBP-RB-19.png,0.37,1.2,57,0.75,,,,,,,,,,,,,,,,,,,,,,,,,,,,,,,,,,,,,,,,,,,,,
,,,,,V3_106,18,female,2025-02-06_14h34.19.497,jersey_experiment_5_v3,2023.2.2,Win32,84.74576271,,,,,,,,,,,,,,,,175.7453,177.0448,177.0449,178.3507,return,0.1107,,25.91145833,0,27,27,30,1,FBP-OG-17.png,0.35,1.2,31,0.5,,,,,,,,,,,,,,,,,,,,,,,,,,,,,,,,,,,,,,,,,,,,,
,,,,,V3_106,18,female,2025-02-06_14h34.19.497,jersey_experiment_5_v3,2023.2.2,Win32,84.74576271,,,,,,,,,,,,,,,,178.351,179.8949,179.895,181.2275,return,0.2498,,24.34895833,0,28,28,46,1,FBP-RB-17.png,0.37,1.2,47,0.75,,,,,,,,,,,,,,,,,,,,,,,,,,,,,,,,,,,,,,,,,,,,,
,,,,,V3_106,18,female,2025-02-06_14h34.19.497,jersey_experiment_5_v3,2023.2.2,Win32,84.74576271,,,,,,,,,,,,,,,,181.2276,182.7788,182.7788,184.4594,return,0.282,,50.78125,0,29,29,58,1,FBP-RB-19.png,0.43,1.2,59,0.75,,,,,,,,,,,,,,,,,,,,,,,,,,,,,,,,,,,,,,,,,,,,,
,,,,,V3_106,18,female,2025-02-06_14h34.19.497,jersey_experiment_5_v3,2023.2.2,Win32,84.74576271,,,,,,,,,,,,,,,,184.4595,186.0134,186.0134,187.2132,return,0.575,,50.78125,0,30,30,9,1,FBP-YG-81.png,0.45,1.2,10,0.75,,,,,,,,,,,,,,,,,,,,,,,,,,,,,,,,,,,,,,,,,,,,,
,,,,,V3_106,18,female,2025-02-06_14h34.19.497,jersey_experiment_5_v3,2023.2.2,Win32,84.74576271,,,,,,,,,,,,,,,,187.2134,188.7572,188.7573,190.6632,return,0.2378,,0.260416667,0,31,31,50,1,FBP-RB-18.png,0.35,1.2,51,0.75,,,,,,,,,,,,,,,,,,,,,,,,,,,,,,,,,,,,,,,,,,,,,
,,,,,V3_106,18,female,2025-02-06_14h34.19.497,jersey_experiment_5_v3,2023.2.2,Win32,84.74576271,,,,,,,,,,,,,,,,190.6633,192.2154,192.2154,193.6132,return,0.2355,,74.73958333,0,32,32,24,1,FBP-PT-18.png,0.45,1.2,25,0.75,,,,,,,,,,,,,,,,,,,,,,,,,,,,,,,,,,,,,,,,,,,,,
,,,,,V3_106,18,female,2025-02-06_14h34.19.497,jersey_experiment_5_v3,2023.2.2,Win32,84.74576271,,,,,,,,,,,,,,,,193.6134,195.1662,195.1662,196.8976,return,0.3903,,50,0,33,33,22,1,FBP-PT-18.png,0.4,1.2,23,0.75,,,,,,,,,,,,,,,,,,,,,,,,,,,,,,,,,,,,,,,,,,,,,
,,,,,V3_106,18,female,2025-02-06_14h34.19.497,jersey_experiment_5_v3,2023.2.2,Win32,84.74576271,,,,,,,,,,,,,,,,196.8977,198.4456,198.4456,199.2755,return,0.3088,,50,0,34,34,16,1,FBP-PT-17.png,0.37,1.2,17,0.75,,,,,,,,,,,,,,,,,,,,,,,,,,,,,,,,,,,,,,,,,,,,,
,,,,,V3_106,18,female,2025-02-06_14h34.19.497,jersey_experiment_5_v3,2023.2.2,Win32,84.74576271,,,,,,,,,,,,,,,,199.2756,200.827,200.827,202.5673,return,0.4932,,50,0,35,35,13,1,FBP-YG-91.png,0.43,1.2,14,0.75,,,,,,,,,,,,,,,,,,,,,,,,,,,,,,,,,,,,,,,,,,,,,
,,,,,V3_106,18,female,2025-02-06_14h34.19.497,jersey_experiment_5_v3,2023.2.2,Win32,84.74576271,,,,,,,,,,,,,,,,202.5676,204.1221,204.1222,205.3686,return,0.3903,,50,0,36,36,25,1,FBP-PT-19.png,0.35,1.2,26,0.75,,,,,,,,,,,,,,,,,,,,,,,,,,,,,,,,,,,,,,,,,,,,,
,,,,,V3_106,18,female,2025-02-06_14h34.19.497,jersey_experiment_5_v3,2023.2.2,Win32,84.74576271,,,,,,,,,,,,,,,,205.3687,206.9194,206.9195,210.8519,return,2.753,,43.61979167,0,37,37,11,1,FBP-YG-91.png,0.37,1.2,12,0.75,,,,,,,,,,,,,,,,,,,,,,,,,,,,,,,,,,,,,,,,,,,,,
,,,,,V3_106,18,female,2025-02-06_14h34.19.497,jersey_experiment_5_v3,2023.2.2,Win32,84.74576271,,,,,,,,,,,,,,,,210.8521,212.146,212.146,213.1321,return,0.2949,,43.61979167,0,38,38,41,1,FBP-OG-19.png,0.37,1.2,42,0.5,,,,,,,,,,,,,,,,,,,,,,,,,,,,,,,,,,,,,,,,,,,,,
,,,,,V3_106,18,female,2025-02-06_14h34.19.497,jersey_experiment_5_v3,2023.2.2,Win32,84.74576271,,,,,,,,,,,,,,,,213.1322,214.4373,214.4374,215.3404,return,0.3372,,43.61979167,0,39,39,39,1,FBP-OG-18.png,0.45,1.2,40,0.5,,,,,,,,,,,,,,,,,,,,,,,,,,,,,,,,,,,,,,,,,,,,,
,,,,,V3_106,18,female,2025-02-06_14h34.19.497,jersey_experiment_5_v3,2023.2.2,Win32,84.74576271,,,,,,,,,,,,,,,,215.3406,216.6387,216.6388,218.0752,return,0.2347,,73.56770833,0,40,40,32,1,FBP-OG-17.png,0.4,1.2,33,0.5,,,,,,,,,,,,,,,,,,,,,,,,,,,,,,,,,,,,,,,,,,,,,
,,,,,V3_106,18,female,2025-02-06_14h34.19.497,jersey_experiment_5_v3,2023.2.2,Win32,84.74576271,,,,,,,,,,,,,,,,218.0753,219.3698,219.3698,221.07,return,0.1356,,52.99479167,0,41,41,33,1,FBP-OG-17.png,0.43,1.2,34,0.5,,,,,,,,,,,,,,,,,,,,,,,,,,,,,,,,,,,,,,,,,,,,,
,,,,,V3_106,18,female,2025-02-06_14h34.19.497,jersey_experiment_5_v3,2023.2.2,Win32,84.74576271,,,,,,,,,,,,,,,,221.0702,222.6162,222.6163,223.6269,return,0.3039,,52.99479167,0,42,42,10,1,FBP-YG-91.png,0.35,1.2,11,0.75,,,,,,,,,,,,,,,,,,,,,,,,,,,,,,,,,,,,,,,,,,,,,
,,,,,V3_106,18,female,2025-02-06_14h34.19.497,jersey_experiment_5_v3,2023.2.2,Win32,84.74576271,,,,,,,,,,,,,,,,223.627,225.1821,225.1821,227.1172,return,0.2774,,24.34895833,0,43,43,5,1,FBP-YG-81.png,0.35,1.2,6,0.75,,,,,,,,,,,,,,,,,,,,,,,,,,,,,,,,,,,,,,,,,,,,,
,,,,,V3_106,18,female,2025-02-06_14h34.19.497,jersey_experiment_5_v3,2023.2.2,Win32,84.74576271,,,,,,,,,,,,,,,,227.1175,228.6732,228.6732,231.4504,return,0.127,,74.47916667,0,44,44,51,1,FBP-RB-18.png,0.37,1.2,52,0.75,,,,,,,,,,,,,,,,,,,,,,,,,,,,,,,,,,,,,,,,,,,,,
,,,,,V3_106,18,female,2025-02-06_14h34.19.497,jersey_experiment_5_v3,2023.2.2,Win32,84.74576271,,,,,,,,,,,,,,,,231.4505,233.0029,233.0029,234.5696,return,0.1638,,49.86979167,0,45,45,49,1,FBP-RB-17.png,0.45,1.2,50,0.75,,,,,,,,,,,,,,,,,,,,,,,,,,,,,,,,,,,,,,,,,,,,,
,,,,,V3_106,18,female,2025-02-06_14h34.19.497,jersey_experiment_5_v3,2023.2.2,Win32,84.74576271,,,,,,,,,,,,,,,,234.5698,236.1209,236.1209,236.8352,return,0.1806,,49.73958333,0,46,46,53,1,FBP-RB-18.png,0.43,1.2,54,0.75,,,,,,,,,,,,,,,,,,,,,,,,,,,,,,,,,,,,,,,,,,,,,
,,,,,V3_106,18,female,2025-02-06_14h34.19.497,jersey_experiment_5_v3,2023.2.2,Win32,84.74576271,,,,,,,,,,,,,,,,236.8355,238.3912,238.3912,240.2738,return,0.1871,,24.47916667,0,47,47,48,1,FBP-RB-17.png,0.43,1.2,49,0.75,,,,,,,,,,,,,,,,,,,,,,,,,,,,,,,,,,,,,,,,,,,,,
,,,,,V3_106,18,female,2025-02-06_14h34.19.497,jersey_experiment_5_v3,2023.2.2,Win32,84.74576271,,,,,,,,,,,,,,,,240.2739,241.5764,241.5764,245.4638,return,0.0929,,74.86979167,0,48,48,40,1,FBP-OG-19.png,0.35,1.2,41,0.5,,,,,,,,,,,,,,,,,,,,,,,,,,,,,,,,,,,,,,,,,,,,,
,,,,,V3_106,18,female,2025-02-06_14h34.19.497,jersey_experiment_5_v3,2023.2.2,Win32,84.74576271,,,,,,,,,,,,,,,,245.4639,246.7596,246.7596,247.6623,return,0.2442,,71.09375,0,49,49,38,1,FBP-OG-18.png,0.43,1.2,39,0.5,,,,,,,,,,,,,,,,,,,,,,,,,,,,,,,,,,,,,,,,,,,,,
,,,,,V3_106,18,female,2025-02-06_14h34.19.497,jersey_experiment_5_v3,2023.2.2,Win32,84.74576271,,,,,,,,,,,,,,,,247.6625,248.9723,248.9723,250.7651,return,0.1596,,51.171875,0,50,50,44,1,FBP-OG-19.png,0.45,1.2,45,0.5,,,,,,,,,,,,,,,,,,,,,,,,,,,,,,,,,,,,,,,,,,,,,
,,,,,V3_106,18,female,2025-02-06_14h34.19.497,jersey_experiment_5_v3,2023.2.2,Win32,84.74576271,,,,,,,,,,,,,,,,250.7655,252.3125,252.3125,253.4393,return,0.1405,,41.40625,0,51,51,15,1,FBP-PT-17.png,0.35,1.2,16,0.75,,,,,,,,,,,,,,,,,,,,,,,,,,,,,,,,,,,,,,,,,,,,,
,,,,,V3_106,18,female,2025-02-06_14h34.19.497,jersey_experiment_5_v3,2023.2.2,Win32,84.74576271,,,,,,,,,,,,,,,,253.4393,254.9922,254.9922,256.0124,return,0.0662,,62.23958333,0,52,52,19,1,FBP-PT-17.png,0.45,1.2,20,0.75,,,,,,,,,,,,,,,,,,,,,,,,,,,,,,,,,,,,,,,,,,,,,
,,,,,V3_106,18,female,2025-02-06_14h34.19.497,jersey_experiment_5_v3,2023.2.2,Win32,84.74576271,,,,,,,,,,,,,,,,256.0126,257.5686,257.5686,258.6749,return,0.0943,,73.95833333,0,53,53,8,1,FBP-YG-81.png,0.43,1.2,9,0.75,,,,,,,,,,,,,,,,,,,,,,,,,,,,,,,,,,,,,,,,,,,,,
,,,,,V3_106,18,female,2025-02-06_14h34.19.497,jersey_experiment_5_v3,2023.2.2,Win32,84.74576271,,,,,,,,,,,,,,,,258.675,260.2164,260.2164,263.3722,return,0.2596,,0.520833333,0,54,54,54,1,FBP-RB-18.png,0.45,1.2,55,0.75,,,,,,,,,,,,,,,,,,,,,,,,,,,,,,,,,,,,,,,,,,,,,
,,,,,V3_106,18,female,2025-02-06_14h34.19.497,jersey_experiment_5_v3,2023.2.2,Win32,84.74576271,,,,,,,,,,,,,,,,263.3722,264.9235,264.9235,268.4542,return,0.3531,,0.651041667,0,55,55,47,1,FBP-RB-17.png,0.4,1.2,48,0.75,,,,,,,,,,,,,,,,,,,,,,,,,,,,,,,,,,,,,,,,,,,,,
,,,,,V3_106,18,female,2025-02-06_14h34.19.497,jersey_experiment_5_v3,2023.2.2,Win32,84.74576271,,,,,,,,,,,,,,,,268.4543,270.0009,270.001,273.2129,return,0.5474,,99.609375,0,56,56,28,1,FBP-PT-19.png,0.43,1.2,29,0.75,,,,,,,,,,,,,,,,,,,,,,,,,,,,,,,,,,,,,,,,,,,,,
,,,,,V3_106,18,female,2025-02-06_14h34.19.497,jersey_experiment_5_v3,2023.2.2,Win32,84.74576271,,,,,,,,,,,,,,,,273.213,274.7577,274.7577,276.7189,return,0.2756,,99.609375,0,57,57,12,1,FBP-YG-91.png,0.4,1.2,13,0.75,,,,,,,,,,,,,,,,,,,,,,,,,,,,,,,,,,,,,,,,,,,,,
,,,,,V3_106,18,female,2025-02-06_14h34.19.497,jersey_experiment_5_v3,2023.2.2,Win32,84.74576271,,,,,,,,,,,,,,,,276.7192,278.0162,278.0162,278.7131,return,0.2139,,99.609375,0,58,58,42,1,FBP-OG-19.png,0.4,1.2,43,0.5,,,,,,,,,,,,,,,,,,,,,,,,,,,,,,,,,,,,,,,,,,,,,
,,,,,V3_106,18,female,2025-02-06_14h34.19.497,jersey_experiment_5_v3,2023.2.2,Win32,84.74576271,,,,,,,,,,,,,,,,278.7132,280.2602,280.2602,281.0602,return,0.2352,,99.609375,0,59,59,3,1,FBP-YG-71.png,0.43,1.2,4,0.75,,,,,,,,,,,,,,,,,,,,,,,,,,,,,,,,,,,,,,,,,,,,,
,,,,,V3_106,18,female,2025-02-06_14h34.19.497,jersey_experiment_5_v3,2023.2.2,Win32,84.74576271,,,,,,,,,,,,,,,,281.062,282.6194,282.6194,283.1931,return,0.118,,99.609375,,,,,,FBP-RB-81.png,0.45,1.2,55,0.75,0,0,0,54,1,,,,,,,,,,,,,,,,,,,,,,,,,,,,,,,,,,,,,,,,
,,,,,V3_106,18,female,2025-02-06_14h34.19.497,jersey_experiment_5_v3,2023.2.2,Win32,84.74576271,,,,,,,,,,,,,,,,283.1932,284.7369,284.737,286.3694,return,0.0472,,49.34895833,,,,,,FBP-PT-91.png,0.35,1.2,26,0.75,0,1,1,25,1,,,,,,,,,,,,,,,,,,,,,,,,,,,,,,,,,,,,,,,,
,,,,,V3_106,18,female,2025-02-06_14h34.19.497,jersey_experiment_5_v3,2023.2.2,Win32,84.74576271,,,,,,,,,,,,,,,,286.3695,287.9193,287.9194,288.9313,return,0.165,,25.13020833,,,,,,FBP-PT-81.png,0.4,1.2,23,0.75,0,2,2,22,1,,,,,,,,,,,,,,,,,,,,,,,,,,,,,,,,,,,,,,,,
,,,,,V3_106,18,female,2025-02-06_14h34.19.497,jersey_experiment_5_v3,2023.2.2,Win32,84.74576271,,,,,,,,,,,,,,,,288.9315,290.2284,290.2285,291.5697,return,0.1651,,99.86979167,,,,,,FBP-OG-81.png,0.43,1.2,39,0.5,0,3,3,38,1,,,,,,,,,,,,,,,,,,,,,,,,,,,,,,,,,,,,,,,,
,,,,,V3_106,18,female,2025-02-06_14h34.19.497,jersey_experiment_5_v3,2023.2.2,Win32,84.74576271,,,,,,,,,,,,,,,,291.5698,293.1195,293.1195,294.158,return,0.2678,,99.609375,,,,,,FBP-PT-71.png,0.4,1.2,18,0.75,0,4,4,17,1,,,,,,,,,,,,,,,,,,,,,,,,,,,,,,,,,,,,,,,,
,,,,,V3_106,18,female,2025-02-06_14h34.19.497,jersey_experiment_5_v3,2023.2.2,Win32,84.74576271,,,,,,,,,,,,,,,,294.1582,295.4609,295.4609,296.1902,return,0.2646,,99.609375,,,,,,FBP-OG-81.png,0.37,1.2,37,0.5,0,5,5,36,1,,,,,,,,,,,,,,,,,,,,,,,,,,,,,,,,,,,,,,,,
,,,,,V3_106,18,female,2025-02-06_14h34.19.497,jersey_experiment_5_v3,2023.2.2,Win32,84.74576271,,,,,,,,,,,,,,,,296.1904,297.7347,297.7347,298.7667,return,0.1456,,74.73958333,,,,,,FBP-RB-71.png,0.35,1.2,46,0.75,0,6,6,45,1,,,,,,,,,,,,,,,,,,,,,,,,,,,,,,,,,,,,,,,,
,,,,,V3_106,18,female,2025-02-06_14h34.19.497,jersey_experiment_5_v3,2023.2.2,Win32,84.74576271,,,,,,,,,,,,,,,,298.7669,300.0644,300.0644,302.9904,return,1.3467,,99.08854167,,,,,,FBP-OG-81.png,0.45,1.2,40,0.5,0,7,7,39,1,,,,,,,,,,,,,,,,,,,,,,,,,,,,,,,,,,,,,,,,
,,,,,V3_106,18,female,2025-02-06_14h34.19.497,jersey_experiment_5_v3,2023.2.2,Win32,84.74576271,,,,,,,,,,,,,,,,302.9905,304.5353,304.5354,306.1589,return,0.3149,,49.609375,,,,,,FBP-PT-81.png,0.35,1.2,21,0.75,0,8,8,20,1,,,,,,,,,,,,,,,,,,,,,,,,,,,,,,,,,,,,,,,,
,,,,,V3_106,18,female,2025-02-06_14h34.19.497,jersey_experiment_5_v3,2023.2.2,Win32,84.74576271,,,,,,,,,,,,,,,,306.1591,307.7028,307.7028,309.1672,return,0.3223,,25.91145833,,,,,,FBP-YG-18.png,0.37,1.2,7,0.75,0,9,9,6,1,,,,,,,,,,,,,,,,,,,,,,,,,,,,,,,,,,,,,,,,
,,,,,V3_106,18,female,2025-02-06_14h34.19.497,jersey_experiment_5_v3,2023.2.2,Win32,84.74576271,,,,,,,,,,,,,,,,309.1673,310.7201,310.7201,312.2207,return,0.1414,,0.78125,,,,,,FBP-YG-19.png,0.43,1.2,14,0.75,0,10,10,13,1,,,,,,,,,,,,,,,,,,,,,,,,,,,,,,,,,,,,,,,,
,,,,,V3_106,18,female,2025-02-06_14h34.19.497,jersey_experiment_5_v3,2023.2.2,Win32,84.74576271,,,,,,,,,,,,,,,,312.2208,313.7712,313.7713,315.4907,return,0.2027,,74.609375,,,,,,FBP-RB-91.png,0.35,1.2,56,0.75,0,11,11,55,1,,,,,,,,,,,,,,,,,,,,,,,,,,,,,,,,,,,,,,,,
,,,,,V3_106,18,female,2025-02-06_14h34.19.497,jersey_experiment_5_v3,2023.2.2,Win32,84.74576271,,,,,,,,,,,,,,,,315.4909,317.038,317.038,318.0178,return,0.4001,,60.67708333,,,,,,FBP-YG-19.png,0.35,1.2,11,0.75,0,12,12,10,1,,,,,,,,,,,,,,,,,,,,,,,,,,,,,,,,,,,,,,,,
,,,,,V3_106,18,female,2025-02-06_14h34.19.497,jersey_experiment_5_v3,2023.2.2,Win32,84.74576271,,,,,,,,,,,,,,,,318.018,319.5595,319.5595,321.1475,return,0.211,,99.21875,,,,,,FBP-PT-71.png,0.45,1.2,20,0.75,0,13,13,19,1,,,,,,,,,,,,,,,,,,,,,,,,,,,,,,,,,,,,,,,,
,,,,,V3_106,18,female,2025-02-06_14h34.19.497,jersey_experiment_5_v3,2023.2.2,Win32,84.74576271,,,,,,,,,,,,,,,,321.1478,322.6914,322.6914,324.3859,return,0.4028,,8.203125,,,,,,FBP-RB-91.png,0.37,1.2,57,0.75,0,14,14,56,1,,,,,,,,,,,,,,,,,,,,,,,,,,,,,,,,,,,,,,,,
,,,,,V3_106,18,female,2025-02-06_14h34.19.497,jersey_experiment_5_v3,2023.2.2,Win32,84.74576271,,,,,,,,,,,,,,,,324.386,325.9389,325.939,327.3358,return,0.3382,,50.26041667,,,,,,FBP-YG-19.png,0.37,1.2,12,0.75,0,15,15,11,1,,,,,,,,,,,,,,,,,,,,,,,,,,,,,,,,,,,,,,,,
,,,,,V3_106,18,female,2025-02-06_14h34.19.497,jersey_experiment_5_v3,2023.2.2,Win32,84.74576271,,,,,,,,,,,,,,,,327.336,328.8887,328.8887,330.8183,return,0.3297,,75.91145833,,,,,,FBP-YG-18.png,0.35,1.2,6,0.75,0,16,16,5,1,,,,,,,,,,,,,,,,,,,,,,,,,,,,,,,,,,,,,,,,
,,,,,V3_106,18,female,2025-02-06_14h34.19.497,jersey_experiment_5_v3,2023.2.2,Win32,84.74576271,,,,,,,,,,,,,,,,330.8184,332.1123,332.1123,334.3336,return,0.5535,,99.34895833,,,,,,FBP-OG-71.png,0.43,1.2,34,0.5,0,17,17,33,1,,,,,,,,,,,,,,,,,,,,,,,,,,,,,,,,,,,,,,,,
,,,,,V3_106,18,female,2025-02-06_14h34.19.497,jersey_experiment_5_v3,2023.2.2,Win32,84.74576271,,,,,,,,,,,,,,,,334.3338,335.886,335.886,339.133,return,0.2658,,9.635416667,,,,,,FBP-RB-81.png,0.35,1.2,51,0.75,0,18,18,50,1,,,,,,,,,,,,,,,,,,,,,,,,,,,,,,,,,,,,,,,,
,,,,,V3_106,18,female,2025-02-06_14h34.19.497,jersey_experiment_5_v3,2023.2.2,Win32,84.74576271,,,,,,,,,,,,,,,,339.1332,340.6891,340.6891,342.2069,return,0.3151,,49.34895833,,,,,,FBP-PT-91.png,0.4,1.2,28,0.75,0,19,19,27,1,,,,,,,,,,,,,,,,,,,,,,,,,,,,,,,,,,,,,,,,
,,,,,V3_106,18,female,2025-02-06_14h34.19.497,jersey_experiment_5_v3,2023.2.2,Win32,84.74576271,,,,,,,,,,,,,,,,342.2071,343.7489,343.7489,344.8861,return,0.4734,,75.390625,,,,,,FBP-YG-17.png,0.37,1.2,2,0.75,0,20,20,1,1,,,,,,,,,,,,,,,,,,,,,,,,,,,,,,,,,,,,,,,,
,,,,,V3_106,18,female,2025-02-06_14h34.19.497,jersey_experiment_5_v3,2023.2.2,Win32,84.74576271,,,,,,,,,,,,,,,,344.8863,346.1804,346.1804,348.7717,return,0.5413,,99.47916667,,,,,,FBP-OG-71.png,0.35,1.2,31,0.5,0,21,21,30,1,,,,,,,,,,,,,,,,,,,,,,,,,,,,,,,,,,,,,,,,
,,,,,V3_106,18,female,2025-02-06_14h34.19.497,jersey_experiment_5_v3,2023.2.2,Win32,84.74576271,,,,,,,,,,,,,,,,348.7718,350.3215,350.3216,351.0745,return,0.285,,99.34895833,,,,,,FBP-PT-71.png,0.35,1.2,16,0.75,0,22,22,15,1,,,,,,,,,,,,,,,,,,,,,,,,,,,,,,,,,,,,,,,,
,,,,,V3_106,18,female,2025-02-06_14h34.19.497,jersey_experiment_5_v3,2023.2.2,Win32,84.74576271,,,,,,,,,,,,,,,,351.0747,352.6307,352.6307,354.6864,return,0.2959,,75,,,,,,FBP-RB-91.png,0.45,1.2,60,0.75,0,23,23,59,1,,,,,,,,,,,,,,,,,,,,,,,,,,,,,,,,,,,,,,,,
,,,,,V3_106,18,female,2025-02-06_14h34.19.497,jersey_experiment_5_v3,2023.2.2,Win32,84.74576271,,,,,,,,,,,,,,,,354.6866,356.2308,356.2308,356.9038,return,0.2495,,74.73958333,,,,,,FBP-RB-71.png,0.43,1.2,49,0.75,0,24,24,48,1,,,,,,,,,,,,,,,,,,,,,,,,,,,,,,,,,,,,,,,,
,,,,,V3_106,18,female,2025-02-06_14h34.19.497,jersey_experiment_5_v3,2023.2.2,Win32,84.74576271,,,,,,,,,,,,,,,,356.904,358.4513,358.4513,359.8672,return,0.1542,,99.21875,,,,,,FBP-YG-17.png,0.45,1.2,5,0.75,0,25,25,4,1,,,,,,,,,,,,,,,,,,,,,,,,,,,,,,,,,,,,,,,,
,,,,,V3_106,18,female,2025-02-06_14h34.19.497,jersey_experiment_5_v3,2023.2.2,Win32,84.74576271,,,,,,,,,,,,,,,,359.8673,361.42,361.42,362.4278,return,0.1131,,99.08854167,,,,,,FBP-PT-71.png,0.43,1.2,19,0.75,0,26,26,18,1,,,,,,,,,,,,,,,,,,,,,,,,,,,,,,,,,,,,,,,,
,,,,,V3_106,18,female,2025-02-06_14h34.19.497,jersey_experiment_5_v3,2023.2.2,Win32,84.74576271,,,,,,,,,,,,,,,,362.428,363.722,363.7221,364.4046,return,0.1754,,98.828125,,,,,,FBP-OG-91.png,0.45,1.2,45,0.5,0,27,27,44,1,,,,,,,,,,,,,,,,,,,,,,,,,,,,,,,,,,,,,,,,
,,,,,V3_106,18,female,2025-02-06_14h34.19.497,jersey_experiment_5_v3,2023.2.2,Win32,84.74576271,,,,,,,,,,,,,,,,364.4046,365.9488,365.9489,366.7644,return,0.1418,,48.69791667,,,,,,FBP-YG-17.png,0.35,1.2,1,0.75,0,28,28,0,1,,,,,,,,,,,,,,,,,,,,,,,,,,,,,,,,,,,,,,,,
,,,,,V3_106,18,female,2025-02-06_14h34.19.497,jersey_experiment_5_v3,2023.2.2,Win32,84.74576271,,,,,,,,,,,,,,,,366.7645,368.0635,368.0635,369.0516,return,0.1375,,74.73958333,,,,,,FBP-OG-91.png,0.37,1.2,42,0.5,0,29,29,41,1,,,,,,,,,,,,,,,,,,,,,,,,,,,,,,,,,,,,,,,,
,,,,,V3_106,18,female,2025-02-06_14h34.19.497,jersey_experiment_5_v3,2023.2.2,Win32,84.74576271,,,,,,,,,,,,,,,,369.0519,370.349,370.349,371.2752,return,0.1115,,61.84895833,,,,,,FBP-OG-91.png,0.4,1.2,43,0.5,0,30,30,42,1,,,,,,,,,,,,,,,,,,,,,,,,,,,,,,,,,,,,,,,,
,,,,,V3_106,18,female,2025-02-06_14h34.19.497,jersey_experiment_5_v3,2023.2.2,Win32,84.74576271,,,,,,,,,,,,,,,,371.2754,372.834,372.834,373.8048,return,0.1682,,82.94270833,,,,,,FBP-PT-81.png,0.37,1.2,22,0.75,0,31,31,21,1,,,,,,,,,,,,,,,,,,,,,,,,,,,,,,,,,,,,,,,,
,,,,,V3_106,18,female,2025-02-06_14h34.19.497,jersey_experiment_5_v3,2023.2.2,Win32,84.74576271,,,,,,,,,,,,,,,,373.8051,375.0989,375.099,375.7527,return,0.2507,,82.94270833,,,,,,FBP-OG-71.png,0.37,1.2,32,0.5,0,32,32,31,1,,,,,,,,,,,,,,,,,,,,,,,,,,,,,,,,,,,,,,,,
,,,,,V3_106,18,female,2025-02-06_14h34.19.497,jersey_experiment_5_v3,2023.2.2,Win32,84.74576271,,,,,,,,,,,,,,,,375.7529,377.2992,377.2992,379.1384,return,0.1885,,99.47916667,,,,,,FBP-RB-71.png,0.37,1.2,47,0.75,0,33,33,46,1,,,,,,,,,,,,,,,,,,,,,,,,,,,,,,,,,,,,,,,,
,,,,,V3_106,18,female,2025-02-06_14h34.19.497,jersey_experiment_5_v3,2023.2.2,Win32,84.74576271,,,,,,,,,,,,,,,,379.1386,380.6873,380.6873,381.311,return,0.1455,,99.34895833,,,,,,FBP-PT-81.png,0.43,1.2,24,0.75,0,34,34,23,1,,,,,,,,,,,,,,,,,,,,,,,,,,,,,,,,,,,,,,,,
,,,,,V3_106,18,female,2025-02-06_14h34.19.497,jersey_experiment_5_v3,2023.2.2,Win32,84.74576271,,,,,,,,,,,,,,,,381.3112,382.8639,382.8639,383.5156,return,0.0926,,99.34895833,,,,,,FBP-YG-19.png,0.45,1.2,15,0.75,0,35,35,14,1,,,,,,,,,,,,,,,,,,,,,,,,,,,,,,,,,,,,,,,,
,,,,,V3_106,18,female,2025-02-06_14h34.19.497,jersey_experiment_5_v3,2023.2.2,Win32,84.74576271,,,,,,,,,,,,,,,,383.5157,384.817,384.8171,385.6671,return,0.3862,,99.34895833,,,,,,FBP-OG-71.png,0.4,1.2,33,0.5,0,36,36,32,1,,,,,,,,,,,,,,,,,,,,,,,,,,,,,,,,,,,,,,,,
,,,,,V3_106,18,female,2025-02-06_14h34.19.497,jersey_experiment_5_v3,2023.2.2,Win32,84.74576271,,,,,,,,,,,,,,,,385.6672,387.2202,387.2202,388.3733,return,0.5651,,99.34895833,,,,,,FBP-RB-91.png,0.4,1.2,58,0.75,0,37,37,57,1,,,,,,,,,,,,,,,,,,,,,,,,,,,,,,,,,,,,,,,,
,,,,,V3_106,18,female,2025-02-06_14h34.19.497,jersey_experiment_5_v3,2023.2.2,Win32,84.74576271,,,,,,,,,,,,,,,,388.3735,389.6673,389.6673,391.9348,return,1.511,,99.21875,,,,,,FBP-OG-71.png,0.45,1.2,35,0.5,0,38,38,34,1,,,,,,,,,,,,,,,,,,,,,,,,,,,,,,,,,,,,,,,,
,,,,,V3_106,18,female,2025-02-06_14h34.19.497,jersey_experiment_5_v3,2023.2.2,Win32,84.74576271,,,,,,,,,,,,,,,,391.935,393.4941,393.4941,394.4205,return,0.3061,,99.21875,,,,,,FBP-PT-81.png,0.45,1.2,25,0.75,0,39,39,24,1,,,,,,,,,,,,,,,,,,,,,,,,,,,,,,,,,,,,,,,,
,,,,,V3_106,18,female,2025-02-06_14h34.19.497,jersey_experiment_5_v3,2023.2.2,Win32,84.74576271,,,,,,,,,,,,,,,,394.4207,395.9733,395.9734,397.2914,return,0.2592,,50.65104167,,,,,,FBP-PT-91.png,0.37,1.2,27,0.75,0,40,40,26,1,,,,,,,,,,,,,,,,,,,,,,,,,,,,,,,,,,,,,,,,
,,,,,V3_106,18,female,2025-02-06_14h34.19.497,jersey_experiment_5_v3,2023.2.2,Win32,84.74576271,,,,,,,,,,,,,,,,397.2916,398.8331,398.8331,400.5116,return,0.3324,,50.13020833,,,,,,FBP-YG-18.png,0.4,1.2,8,0.75,0,41,41,7,1,,,,,,,,,,,,,,,,,,,,,,,,,,,,,,,,,,,,,,,,
,,,,,V3_106,18,female,2025-02-06_14h34.19.497,jersey_experiment_5_v3,2023.2.2,Win32,84.74576271,,,,,,,,,,,,,,,,400.5117,402.0566,402.0566,403.5,return,0.1223,,99.86979167,,,,,,FBP-YG-19.png,0.4,1.2,13,0.75,0,42,42,12,1,,,,,,,,,,,,,,,,,,,,,,,,,,,,,,,,,,,,,,,,
,,,,,V3_106,18,female,2025-02-06_14h34.19.497,jersey_experiment_5_v3,2023.2.2,Win32,84.74576271,,,,,,,,,,,,,,,,403.5,405.0477,405.0477,405.9707,return,0.1668,,99.34895833,,,,,,FBP-RB-71.png,0.45,1.2,50,0.75,0,43,43,49,1,,,,,,,,,,,,,,,,,,,,,,,,,,,,,,,,,,,,,,,,
,,,,,V3_106,18,female,2025-02-06_14h34.19.497,jersey_experiment_5_v3,2023.2.2,Win32,84.74576271,,,,,,,,,,,,,,,,405.9708,407.5237,407.5237,408.1622,return,0.2232,,98.69791667,,,,,,FBP-RB-81.png,0.4,1.2,53,0.75,0,44,44,52,1,,,,,,,,,,,,,,,,,,,,,,,,,,,,,,,,,,,,,,,,
,,,,,V3_106,18,female,2025-02-06_14h34.19.497,jersey_experiment_5_v3,2023.2.2,Win32,84.74576271,,,,,,,,,,,,,,,,408.1623,409.7151,409.7151,410.8919,return,0.2941,,99.609375,,,,,,FBP-YG-17.png,0.43,1.2,4,0.75,0,45,45,3,1,,,,,,,,,,,,,,,,,,,,,,,,,,,,,,,,,,,,,,,,
,,,,,V3_106,18,female,2025-02-06_14h34.19.497,jersey_experiment_5_v3,2023.2.2,Win32,84.74576271,,,,,,,,,,,,,,,,410.8921,412.186,412.186,415.6808,return,1.9273,,25.26041667,,,,,,FBP-OG-91.png,0.35,1.2,41,0.5,0,46,46,40,1,,,,,,,,,,,,,,,,,,,,,,,,,,,,,,,,,,,,,,,,
,,,,,V3_106,18,female,2025-02-06_14h34.19.497,jersey_experiment_5_v3,2023.2.2,Win32,84.74576271,,,,,,,,,,,,,,,,415.6809,417.2301,417.2301,419.536,return,0.6728,,99.609375,,,,,,FBP-PT-91.png,0.45,1.2,30,0.75,0,47,47,29,1,,,,,,,,,,,,,,,,,,,,,,,,,,,,,,,,,,,,,,,,
,,,,,V3_106,18,female,2025-02-06_14h34.19.497,jersey_experiment_5_v3,2023.2.2,Win32,84.74576271,,,,,,,,,,,,,,,,419.5365,421.089,421.0891,422.3242,return,0.0858,,74.08854167,,,,,,FBP-RB-81.png,0.43,1.2,54,0.75,0,48,48,53,1,,,,,,,,,,,,,,,,,,,,,,,,,,,,,,,,,,,,,,,,
,,,,,V3_106,18,female,2025-02-06_14h34.19.497,jersey_experiment_5_v3,2023.2.2,Win32,84.74576271,,,,,,,,,,,,,,,,422.3244,423.8774,423.8775,424.8776,return,0.1007,,75.52083333,,,,,,FBP-PT-71.png,0.37,1.2,17,0.75,0,49,49,16,1,,,,,,,,,,,,,,,,,,,,,,,,,,,,,,,,,,,,,,,,
,,,,,V3_106,18,female,2025-02-06_14h34.19.497,jersey_experiment_5_v3,2023.2.2,Win32,84.74576271,,,,,,,,,,,,,,,,424.8778,426.4304,426.4305,427.9362,return,0.1534,,99.86979167,,,,,,FBP-YG-18.png,0.45,1.2,10,0.75,0,50,50,9,1,,,,,,,,,,,,,,,,,,,,,,,,,,,,,,,,,,,,,,,,
,,,,,V3_106,18,female,2025-02-06_14h34.19.497,jersey_experiment_5_v3,2023.2.2,Win32,84.74576271,,,,,,,,,,,,,,,,427.9365,429.2306,429.2306,430.1248,return,0.2901,,84.50520833,,,,,,FBP-OG-81.png,0.35,1.2,36,0.5,0,51,51,35,1,,,,,,,,,,,,,,,,,,,,,,,,,,,,,,,,,,,,,,,,
,,,,,V3_106,18,female,2025-02-06_14h34.19.497,jersey_experiment_5_v3,2023.2.2,Win32,84.74576271,,,,,,,,,,,,,,,,430.1251,431.6778,431.6778,432.56,return,0.1572,,75.390625,,,,,,FBP-RB-91.png,0.43,1.2,59,0.75,0,52,52,58,1,,,,,,,,,,,,,,,,,,,,,,,,,,,,,,,,,,,,,,,,
,,,,,V3_106,18,female,2025-02-06_14h34.19.497,jersey_experiment_5_v3,2023.2.2,Win32,84.74576271,,,,,,,,,,,,,,,,432.5603,434.1132,434.1133,435.2307,return,0.147,,99.08854167,,,,,,FBP-RB-81.png,0.37,1.2,52,0.75,0,53,53,51,1,,,,,,,,,,,,,,,,,,,,,,,,,,,,,,,,,,,,,,,,
,,,,,V3_106,18,female,2025-02-06_14h34.19.497,jersey_experiment_5_v3,2023.2.2,Win32,84.74576271,,,,,,,,,,,,,,,,435.2309,436.7836,436.7837,437.8425,return,0.1772,,74.47916667,,,,,,FBP-YG-17.png,0.4,1.2,3,0.75,0,54,54,2,1,,,,,,,,,,,,,,,,,,,,,,,,,,,,,,,,,,,,,,,,
,,,,,V3_106,18,female,2025-02-06_14h34.19.497,jersey_experiment_5_v3,2023.2.2,Win32,84.74576271,,,,,,,,,,,,,,,,437.8428,439.3955,439.3955,440.172,return,0.1833,,76.30208333,,,,,,FBP-RB-71.png,0.4,1.2,48,0.75,0,55,55,47,1,,,,,,,,,,,,,,,,,,,,,,,,,,,,,,,,,,,,,,,,
,,,,,V3_106,18,female,2025-02-06_14h34.19.497,jersey_experiment_5_v3,2023.2.2,Win32,84.74576271,,,,,,,,,,,,,,,,440.1723,441.7251,441.7251,443.231,return,0.2164,,75.26041667,,,,,,FBP-PT-91.png,0.43,1.2,29,0.75,0,56,56,28,1,,,,,,,,,,,,,,,,,,,,,,,,,,,,,,,,,,,,,,,,
,,,,,V3_106,18,female,2025-02-06_14h34.19.497,jersey_experiment_5_v3,2023.2.2,Win32,84.74576271,,,,,,,,,,,,,,,,443.2314,444.7841,444.7841,445.8074,return,0.167,,99.47916667,,,,,,FBP-YG-18.png,0.43,1.2,9,0.75,0,57,57,8,1,,,,,,,,,,,,,,,,,,,,,,,,,,,,,,,,,,,,,,,,
,,,,,V3_106,18,female,2025-02-06_14h34.19.497,jersey_experiment_5_v3,2023.2.2,Win32,84.74576271,,,,,,,,,,,,,,,,445.8077,447.1018,447.1018,448.1135,return,0.2028,,98.30729167,,,,,,FBP-OG-91.png,0.43,1.2,44,0.5,0,58,58,43,1,,,,,,,,,,,,,,,,,,,,,,,,,,,,,,,,,,,,,,,,
,,,,,V3_106,18,female,2025-02-06_14h34.19.497,jersey_experiment_5_v3,2023.2.2,Win32,84.74576271,,,,,,,,,,,,,,,,448.1138,449.4078,449.4079,450.1962,return,0.2124,,90.49479167,,,,,,FBP-OG-81.png,0.4,1.2,38,0.5,0,59,59,37,1,,,,,,,,,,,,,,,,,,,,,,,,,,,,,,,,,,,,,,,,
,,,,,V3_106,18,female,2025-02-06_14h34.19.497,jersey_experiment_5_v3,2023.2.2,Win32,84.74576271,,,,,,,,,,,,,,,,,,,,,,,,,,,,,,,,,,,,,,,450.1965,570.1887,,,,,,,,,,,,,,,,,,,,,,,,,,,,,,,,,,,,,,
,,,,,V3_106,18,female,2025-02-06_14h34.19.497,jersey_experiment_5_v3,2023.2.2,Win32,84.74576271,,,,,,,,,,,,,,,,,,,,,,,,,,,,,,,,,,,,,,,,,570.1887,574.0358,return,3.835,,,,,,,,,,,,,,,,,,,,,,,,,,,,,,,,,,
,,,,,V3_106,18,female,2025-02-06_14h34.19.497,jersey_experiment_5_v3,2023.2.2,Win32,84.74576271,,,,,,,,,,,,,,,,574.0389,575.3415,575.3416,584.3657,return,0.9949,,84.765625,,,,,,FBP-PT-18.png,0.4,1.2,23,0.5,,,,,,,,,,,,,0,0,0,22,1,,,,,,,,,,,,,,,,,,,,,,,,,,,,
,,,,,V3_106,18,female,2025-02-06_14h34.19.497,jersey_experiment_5_v3,2023.2.2,Win32,84.74576271,,,,,,,,,,,,,,,,584.366,585.9186,585.9186,592.9894,return,5.8651,,49.73958333,,,,,,FBP-OG-18.png,0.43,1.2,39,0.75,,,,,,,,,,,,,0,1,1,38,1,,,,,,,,,,,,,,,,,,,,,,,,,,,,
,,,,,V3_106,18,female,2025-02-06_14h34.19.497,jersey_experiment_5_v3,2023.2.2,Win32,84.74576271,,,,,,,,,,,,,,,,592.9897,594.2836,594.2836,598.7896,return,3.0698,,58.203125,,,,,,FBP-RB-19.png,0.4,1.2,58,0.5,,,,,,,,,,,,,0,2,2,57,1,,,,,,,,,,,,,,,,,,,,,,,,,,,,
,,,,,V3_106,18,female,2025-02-06_14h34.19.497,jersey_experiment_5_v3,2023.2.2,Win32,84.74576271,,,,,,,,,,,,,,,,598.7901,600.0838,600.0838,610.7076,return,0.8601,,63.02083333,,,,,,FBP-RB-19.png,0.37,1.2,57,0.5,,,,,,,,,,,,,0,3,3,56,1,,,,,,,,,,,,,,,,,,,,,,,,,,,,
,,,,,V3_106,18,female,2025-02-06_14h34.19.497,jersey_experiment_5_v3,2023.2.2,Win32,84.74576271,,,,,,,,,,,,,,,,610.7078,612.2606,612.2608,618.9432,return,3.628,,50.390625,,,,,,FBP-OG-19.png,0.45,1.2,45,0.75,,,,,,,,,,,,,0,4,4,44,1,,,,,,,,,,,,,,,,,,,,,,,,,,,,
,,,,,V3_106,18,female,2025-02-06_14h34.19.497,jersey_experiment_5_v3,2023.2.2,Win32,84.74576271,,,,,,,,,,,,,,,,618.9435,620.2374,620.2375,626.1083,return,1.0906,,87.890625,,,,,,FBP-YG-81.png,0.4,1.2,8,0.5,,,,,,,,,,,,,0,5,5,7,1,,,,,,,,,,,,,,,,,,,,,,,,,,,,
,,,,,V3_106,18,female,2025-02-06_14h34.19.497,jersey_experiment_5_v3,2023.2.2,Win32,84.74576271,,,,,,,,,,,,,,,,626.1085,627.4025,627.4025,632.2613,return,0.8375,,64.84375,,,,,,FBP-YG-71.png,0.37,1.2,2,0.5,,,,,,,,,,,,,0,6,6,1,1,,,,,,,,,,,,,,,,,,,,,,,,,,,,
,,,,,V3_106,18,female,2025-02-06_14h34.19.497,jersey_experiment_5_v3,2023.2.2,Win32,84.74576271,,,,,,,,,,,,,,,,632.2616,633.8144,633.8144,639.8145,return,0.7202,,65.625,,,,,,FBP-OG-18.png,0.35,1.2,36,0.75,,,,,,,,,,,,,0,7,7,35,1,,,,,,,,,,,,,,,,,,,,,,,,,,,,
,,,,,V3_106,18,female,2025-02-06_14h34.19.497,jersey_experiment_5_v3,2023.2.2,Win32,84.74576271,,,,,,,,,,,,,,,,639.8147,641.109,641.109,644.6383,return,1.0767,,51.82291667,,,,,,FBP-PT-17.png,0.37,1.2,17,0.5,,,,,,,,,,,,,0,8,8,16,1,,,,,,,,,,,,,,,,,,,,,,,,,,,,
,,,,,V3_106,18,female,2025-02-06_14h34.19.497,jersey_experiment_5_v3,2023.2.2,Win32,84.74576271,,,,,,,,,,,,,,,,644.6386,645.9325,645.9325,648.9443,return,1.4275,,51.04166667,,,,,,FBP-PT-17.png,0.4,1.2,18,0.5,,,,,,,,,,,,,0,9,9,17,1,,,,,,,,,,,,,,,,,,,,,,,,,,,,
,,,,,V3_106,18,female,2025-02-06_14h34.19.497,jersey_experiment_5_v3,2023.2.2,Win32,84.74576271,,,,,,,,,,,,,,,,648.9447,650.2387,650.2388,651.462,return,0.3052,,74.34895833,,,,,,FBP-PT-17.png,0.35,1.2,16,0.5,,,,,,,,,,,,,0,10,10,15,1,,,,,,,,,,,,,,,,,,,,,,,,,,,,
,,,,,V3_106,18,female,2025-02-06_14h34.19.497,jersey_experiment_5_v3,2023.2.2,Win32,84.74576271,,,,,,,,,,,,,,,,651.4624,652.7564,652.7565,653.9092,return,0.3659,,53.515625,,,,,,FBP-YG-91.png,0.35,1.2,11,0.5,,,,,,,,,,,,,0,11,11,10,1,,,,,,,,,,,,,,,,,,,,,,,,,,,,
,,,,,V3_106,18,female,2025-02-06_14h34.19.497,jersey_experiment_5_v3,2023.2.2,Win32,84.74576271,,,,,,,,,,,,,,,,653.9094,655.4507,655.4507,656.6622,return,0.094,,99.34895833,,,,,,FBP-OG-17.png,0.43,1.2,34,0.75,,,,,,,,,,,,,0,12,12,33,1,,,,,,,,,,,,,,,,,,,,,,,,,,,,
,,,,,V3_106,18,female,2025-02-06_14h34.19.497,jersey_experiment_5_v3,2023.2.2,Win32,84.74576271,,,,,,,,,,,,,,,,656.6625,657.9563,657.9563,658.5335,return,0.1414,,99.08854167,,,,,,FBP-PT-18.png,0.43,1.2,24,0.5,,,,,,,,,,,,,0,13,13,23,1,,,,,,,,,,,,,,,,,,,,,,,,,,,,
,,,,,V3_106,18,female,2025-02-06_14h34.19.497,jersey_experiment_5_v3,2023.2.2,Win32,84.74576271,,,,,,,,,,,,,,,,658.5335,659.8271,659.8272,660.3565,return,0.1404,,98.69791667,,,,,,FBP-PT-19.png,0.35,1.2,26,0.5,,,,,,,,,,,,,0,14,14,25,1,,,,,,,,,,,,,,,,,,,,,,,,,,,,
,,,,,V3_106,18,female,2025-02-06_14h34.19.497,jersey_experiment_5_v3,2023.2.2,Win32,84.74576271,,,,,,,,,,,,,,,,660.3569,661.9094,661.9094,662.5095,return,0.1949,,98.69791667,,,,,,FBP-OG-17.png,0.45,1.2,35,0.75,,,,,,,,,,,,,0,15,15,34,1,,,,,,,,,,,,,,,,,,,,,,,,,,,,
,,,,,V3_106,18,female,2025-02-06_14h34.19.497,jersey_experiment_5_v3,2023.2.2,Win32,84.74576271,,,,,,,,,,,,,,,,662.5097,664.0625,664.0625,664.6861,return,0.1699,,98.56770833,,,,,,FBP-OG-17.png,0.35,1.2,31,0.75,,,,,,,,,,,,,0,16,16,30,1,,,,,,,,,,,,,,,,,,,,,,,,,,,,
,,,,,V3_106,18,female,2025-02-06_14h34.19.497,jersey_experiment_5_v3,2023.2.2,Win32,84.74576271,,,,,,,,,,,,,,,,664.6863,665.9804,665.9805,666.6744,return,0.1902,,98.56770833,,,,,,FBP-PT-18.png,0.35,1.2,21,0.5,,,,,,,,,,,,,0,17,17,20,1,,,,,,,,,,,,,,,,,,,,,,,,,,,,
,,,,,V3_106,18,female,2025-02-06_14h34.19.497,jersey_experiment_5_v3,2023.2.2,Win32,84.74576271,,,,,,,,,,,,,,,,666.6746,667.9685,667.9685,668.7568,return,0.0601,,98.4375,,,,,,FBP-PT-17.png,0.45,1.2,20,0.5,,,,,,,,,,,,,0,18,18,19,1,,,,,,,,,,,,,,,,,,,,,,,,,,,,
,,,,,V3_106,18,female,2025-02-06_14h34.19.497,jersey_experiment_5_v3,2023.2.2,Win32,84.74576271,,,,,,,,,,,,,,,,668.757,670.3096,670.3097,671.3452,return,0.0704,,75.78125,,,,,,FBP-OG-18.png,0.37,1.2,37,0.75,,,,,,,,,,,,,0,19,19,36,1,,,,,,,,,,,,,,,,,,,,,,,,,,,,
,,,,,V3_106,18,female,2025-02-06_14h34.19.497,jersey_experiment_5_v3,2023.2.2,Win32,84.74576271,,,,,,,,,,,,,,,,671.3454,672.6393,672.6394,673.2158,return,0.2036,,75.13020833,,,,,,FBP-PT-19.png,0.37,1.2,27,0.5,,,,,,,,,,,,,0,20,20,26,1,,,,,,,,,,,,,,,,,,,,,,,,,,,,
,,,,,V3_106,18,female,2025-02-06_14h34.19.497,jersey_experiment_5_v3,2023.2.2,Win32,84.74576271,,,,,,,,,,,,,,,,673.216,674.7688,674.7689,675.3805,return,0.1642,,75.13020833,,,,,,FBP-OG-19.png,0.35,1.2,41,0.75,,,,,,,,,,,,,0,21,21,40,1,,,,,,,,,,,,,,,,,,,,,,,,,,,,
,,,,,V3_106,18,female,2025-02-06_14h34.19.497,jersey_experiment_5_v3,2023.2.2,Win32,84.74576271,,,,,,,,,,,,,,,,675.3807,676.6748,676.6748,677.31,return,0.1945,,75.13020833,,,,,,FBP-PT-19.png,0.45,1.2,30,0.5,,,,,,,,,,,,,0,22,22,29,1,,,,,,,,,,,,,,,,,,,,,,,,,,,,
,,,,,V3_106,18,female,2025-02-06_14h34.19.497,jersey_experiment_5_v3,2023.2.2,Win32,84.74576271,,,,,,,,,,,,,,,,677.3105,678.6043,678.6043,680.4515,return,1.2359,,98.56770833,,,,,,FBP-YG-71.png,0.43,1.2,4,0.5,,,,,,,,,,,,,0,23,23,3,1,,,,,,,,,,,,,,,,,,,,,,,,,,,,
,,,,,V3_106,18,female,2025-02-06_14h34.19.497,jersey_experiment_5_v3,2023.2.2,Win32,84.74576271,,,,,,,,,,,,,,,,680.4517,681.7454,681.7455,683.0867,return,0.2526,,99.609375,,,,,,FBP-RB-17.png,0.45,1.2,50,0.5,,,,,,,,,,,,,0,24,24,49,1,,,,,,,,,,,,,,,,,,,,,,,,,,,,
,,,,,V3_106,18,female,2025-02-06_14h34.19.497,jersey_experiment_5_v3,2023.2.2,Win32,84.74576271,,,,,,,,,,,,,,,,683.0869,684.3811,684.3811,685.6163,return,0.0738,,50.78125,,,,,,FBP-RB-17.png,0.37,1.2,47,0.5,,,,,,,,,,,,,0,25,25,46,1,,,,,,,,,,,,,,,,,,,,,,,,,,,,
,,,,,V3_106,18,female,2025-02-06_14h34.19.497,jersey_experiment_5_v3,2023.2.2,Win32,84.74576271,,,,,,,,,,,,,,,,685.6165,686.9107,686.9107,688.3221,return,0.1065,,99.86979167,,,,,,FBP-YG-91.png,0.45,1.2,15,0.5,,,,,,,,,,,,,0,26,26,14,1,,,,,,,,,,,,,,,,,,,,,,,,,,,,
,,,,,V3_106,18,female,2025-02-06_14h34.19.497,jersey_experiment_5_v3,2023.2.2,Win32,84.74576271,,,,,,,,,,,,,,,,688.3224,689.6164,689.6164,690.7225,return,0.402,,99.08854167,,,,,,FBP-PT-17.png,0.43,1.2,19,0.5,,,,,,,,,,,,,0,27,27,18,1,,,,,,,,,,,,,,,,,,,,,,,,,,,,
,,,,,V3_106,18,female,2025-02-06_14h34.19.497,jersey_experiment_5_v3,2023.2.2,Win32,84.74576271,,,,,,,,,,,,,,,,690.7227,692.0169,692.017,692.6753,return,0.1889,,98.95833333,,,,,,FBP-YG-91.png,0.43,1.2,14,0.5,,,,,,,,,,,,,0,28,28,13,1,,,,,,,,,,,,,,,,,,,,,,,,,,,,
,,,,,V3_106,18,female,2025-02-06_14h34.19.497,jersey_experiment_5_v3,2023.2.2,Win32,84.74576271,,,,,,,,,,,,,,,,692.6756,694.2283,694.2284,695.2637,return,0.0989,,74.73958333,,,,,,FBP-OG-18.png,0.4,1.2,38,0.75,,,,,,,,,,,,,0,29,29,37,1,,,,,,,,,,,,,,,,,,,,,,,,,,,,
,,,,,V3_106,18,female,2025-02-06_14h34.19.497,jersey_experiment_5_v3,2023.2.2,Win32,84.74576271,,,,,,,,,,,,,,,,695.2639,696.5579,696.558,697.4519,return,0.0423,,77.08333333,,,,,,FBP-YG-71.png,0.4,1.2,3,0.5,,,,,,,,,,,,,0,30,30,2,1,,,,,,,,,,,,,,,,,,,,,,,,,,,,
,,,,,V3_106,18,female,2025-02-06_14h34.19.497,jersey_experiment_5_v3,2023.2.2,Win32,84.74576271,,,,,,,,,,,,,,,,697.4521,698.7461,698.7462,700.405,return,0.2134,,99.73958333,,,,,,FBP-RB-17.png,0.43,1.2,49,0.5,,,,,,,,,,,,,0,31,31,48,1,,,,,,,,,,,,,,,,,,,,,,,,,,,,
,,,,,V3_106,18,female,2025-02-06_14h34.19.497,jersey_experiment_5_v3,2023.2.2,Win32,84.74576271,,,,,,,,,,,,,,,,700.4053,701.6992,701.6993,702.8992,return,0.048,,49.73958333,,,,,,FBP-RB-19.png,0.35,1.2,56,0.5,,,,,,,,,,,,,0,32,32,55,1,,,,,,,,,,,,,,,,,,,,,,,,,,,,
,,,,,V3_106,18,female,2025-02-06_14h34.19.497,jersey_experiment_5_v3,2023.2.2,Win32,84.74576271,,,,,,,,,,,,,,,,702.8994,704.1933,704.1934,704.77,return,0.1538,,50.13020833,,,,,,FBP-RB-17.png,0.4,1.2,48,0.5,,,,,,,,,,,,,0,33,33,47,1,,,,,,,,,,,,,,,,,,,,,,,,,,,,
,,,,,V3_106,18,female,2025-02-06_14h34.19.497,jersey_experiment_5_v3,2023.2.2,Win32,84.74576271,,,,,,,,,,,,,,,,704.7703,706.064,706.064,706.5111,return,0.0051,,50.13020833,,,,,,FBP-RB-18.png,0.35,1.2,51,0.5,,,,,,,,,,,,,0,34,34,50,1,,,,,,,,,,,,,,,,,,,,,,,,,,,,
,,,,,V3_106,18,female,2025-02-06_14h34.19.497,jersey_experiment_5_v3,2023.2.2,Win32,84.74576271,,,,,,,,,,,,,,,,706.5114,707.8053,707.8053,709.0289,return,0.0812,,98.4375,,,,,,FBP-RB-18.png,0.45,1.2,55,0.5,,,,,,,,,,,,,0,35,35,54,1,,,,,,,,,,,,,,,,,,,,,,,,,,,,
,,,,,V3_106,18,female,2025-02-06_14h34.19.497,jersey_experiment_5_v3,2023.2.2,Win32,84.74576271,,,,,,,,,,,,,,,,709.0291,710.582,710.5821,711.488,return,0.0154,,49.34895833,,,,,,FBP-OG-19.png,0.4,1.2,43,0.75,,,,,,,,,,,,,0,36,36,42,1,,,,,,,,,,,,,,,,,,,,,,,,,,,,
,,,,,V3_106,18,female,2025-02-06_14h34.19.497,jersey_experiment_5_v3,2023.2.2,Win32,84.74576271,,,,,,,,,,,,,,,,711.4882,712.782,712.782,714.1466,return,0.0615,,50.52083333,,,,,,FBP-YG-81.png,0.35,1.2,6,0.5,,,,,,,,,,,,,0,37,37,5,1,,,,,,,,,,,,,,,,,,,,,,,,,,,,
,,,,,V3_106,18,female,2025-02-06_14h34.19.497,jersey_experiment_5_v3,2023.2.2,Win32,84.74576271,,,,,,,,,,,,,,,,714.1469,715.4408,715.4409,716.5938,return,0.0854,,74.86979167,,,,,,FBP-PT-19.png,0.4,1.2,28,0.5,,,,,,,,,,,,,0,38,38,27,1,,,,,,,,,,,,,,,,,,,,,,,,,,,,
,,,,,V3_106,18,female,2025-02-06_14h34.19.497,jersey_experiment_5_v3,2023.2.2,Win32,84.74576271,,,,,,,,,,,,,,,,716.5941,717.8881,717.8881,718.4056,return,0.1653,,74.86979167,,,,,,FBP-RB-18.png,0.37,1.2,52,0.5,,,,,,,,,,,,,0,39,39,51,1,,,,,,,,,,,,,,,,,,,,,,,,,,,,
,,,,,V3_106,18,female,2025-02-06_14h34.19.497,jersey_experiment_5_v3,2023.2.2,Win32,84.74576271,,,,,,,,,,,,,,,,718.4059,719.7,719.7,720.6765,return,0.0556,,74.73958333,,,,,,FBP-RB-18.png,0.4,1.2,53,0.5,,,,,,,,,,,,,0,40,40,52,1,,,,,,,,,,,,,,,,,,,,,,,,,,,,
,,,,,V3_106,18,female,2025-02-06_14h34.19.497,jersey_experiment_5_v3,2023.2.2,Win32,84.74576271,,,,,,,,,,,,,,,,720.6767,721.9704,721.9706,722.8648,return,0.0506,,51.69270833,,,,,,FBP-RB-18.png,0.43,1.2,54,0.5,,,,,,,,,,,,,0,41,41,53,1,,,,,,,,,,,,,,,,,,,,,,,,,,,,
,,,,,V3_106,18,female,2025-02-06_14h34.19.497,jersey_experiment_5_v3,2023.2.2,Win32,84.74576271,,,,,,,,,,,,,,,,722.865,724.4179,724.4179,725.2767,return,0.0666,,99.21875,,,,,,FBP-OG-18.png,0.45,1.2,40,0.75,,,,,,,,,,,,,0,42,42,39,1,,,,,,,,,,,,,,,,,,,,,,,,,,,,
,,,,,V3_106,18,female,2025-02-06_14h34.19.497,jersey_experiment_5_v3,2023.2.2,Win32,84.74576271,,,,,,,,,,,,,,,,725.2769,726.571,726.5711,728.9003,return,0.1156,,50.26041667,,,,,,FBP-YG-71.png,0.35,1.2,1,0.5,,,,,,,,,,,,,0,43,43,0,1,,,,,,,,,,,,,,,,,,,,,,,,,,,,
,,,,,V3_106,18,female,2025-02-06_14h34.19.497,jersey_experiment_5_v3,2023.2.2,Win32,84.74576271,,,,,,,,,,,,,,,,728.9007,730.1944,730.1944,730.7238,return,0.0559,,50.91145833,,,,,,FBP-RB-17.png,0.35,1.2,46,0.5,,,,,,,,,,,,,0,44,44,45,1,,,,,,,,,,,,,,,,,,,,,,,,,,,,
,,,,,V3_106,18,female,2025-02-06_14h34.19.497,jersey_experiment_5_v3,2023.2.2,Win32,84.74576271,,,,,,,,,,,,,,,,730.724,732.2768,732.2768,732.9829,return,0.0709,,51.30208333,,,,,,FBP-OG-17.png,0.4,1.2,33,0.75,,,,,,,,,,,,,0,45,45,32,1,,,,,,,,,,,,,,,,,,,,,,,,,,,,
,,,,,V3_106,18,female,2025-02-06_14h34.19.497,jersey_experiment_5_v3,2023.2.2,Win32,84.74576271,,,,,,,,,,,,,,,,732.9832,734.5356,734.5357,735.2299,return,0.0652,,48.69791667,,,,,,FBP-OG-19.png,0.37,1.2,42,0.75,,,,,,,,,,,,,0,46,46,41,1,,,,,,,,,,,,,,,,,,,,,,,,,,,,
,,,,,V3_106,18,female,2025-02-06_14h34.19.497,jersey_experiment_5_v3,2023.2.2,Win32,84.74576271,,,,,,,,,,,,,,,,735.2302,736.5239,736.5239,737.83,return,0.259,,49.609375,,,,,,FBP-PT-18.png,0.37,1.2,22,0.5,,,,,,,,,,,,,0,47,47,21,1,,,,,,,,,,,,,,,,,,,,,,,,,,,,
,,,,,V3_106,18,female,2025-02-06_14h34.19.497,jersey_experiment_5_v3,2023.2.2,Win32,84.74576271,,,,,,,,,,,,,,,,737.8303,739.3829,739.3829,741.6771,return,0.1599,,99.73958333,,,,,,FBP-OG-19.png,0.43,1.2,44,0.75,,,,,,,,,,,,,0,48,48,43,1,,,,,,,,,,,,,,,,,,,,,,,,,,,,
,,,,,V3_106,18,female,2025-02-06_14h34.19.497,jersey_experiment_5_v3,2023.2.2,Win32,84.74576271,,,,,,,,,,,,,,,,741.6774,742.9714,742.9714,743.9715,return,0.1031,,49.609375,,,,,,FBP-YG-81.png,0.45,1.2,10,0.5,,,,,,,,,,,,,0,49,49,9,1,,,,,,,,,,,,,,,,,,,,,,,,,,,,
,,,,,V3_106,18,female,2025-02-06_14h34.19.497,jersey_experiment_5_v3,2023.2.2,Win32,84.74576271,,,,,,,,,,,,,,,,743.9717,745.2656,745.2657,746.7717,return,0.3065,,99.73958333,,,,,,FBP-YG-71.png,0.45,1.2,5,0.5,,,,,,,,,,,,,0,50,50,4,1,,,,,,,,,,,,,,,,,,,,,,,,,,,,
,,,,,V3_106,18,female,2025-02-06_14h34.19.497,jersey_experiment_5_v3,2023.2.2,Win32,84.74576271,,,,,,,,,,,,,,,,746.7719,748.0657,748.0658,749.2657,return,0.1054,,75.390625,,,,,,FBP-YG-91.png,0.4,1.2,13,0.5,,,,,,,,,,,,,0,51,51,12,1,,,,,,,,,,,,,,,,,,,,,,,,,,,,
,,,,,V3_106,18,female,2025-02-06_14h34.19.497,jersey_experiment_5_v3,2023.2.2,Win32,84.74576271,,,,,,,,,,,,,,,,749.266,750.5597,750.5597,752.1715,return,0.1851,,99.08854167,,,,,,FBP-YG-81.png,0.43,1.2,9,0.5,,,,,,,,,,,,,0,52,52,8,1,,,,,,,,,,,,,,,,,,,,,,,,,,,,
,,,,,V3_106,18,female,2025-02-06_14h34.19.497,jersey_experiment_5_v3,2023.2.2,Win32,84.74576271,,,,,,,,,,,,,,,,752.1718,753.4658,753.4658,754.1247,return,0.0893,,98.56770833,,,,,,FBP-YG-91.png,0.37,1.2,12,0.5,,,,,,,,,,,,,0,53,53,11,1,,,,,,,,,,,,,,,,,,,,,,,,,,,,
,,,,,V3_106,18,female,2025-02-06_14h34.19.497,jersey_experiment_5_v3,2023.2.2,Win32,84.74576271,,,,,,,,,,,,,,,,754.1248,755.4189,755.419,756.1129,return,0.2022,,98.4375,,,,,,FBP-PT-18.png,0.45,1.2,25,0.5,,,,,,,,,,,,,0,54,54,24,1,,,,,,,,,,,,,,,,,,,,,,,,,,,,
,,,,,V3_106,18,female,2025-02-06_14h34.19.497,jersey_experiment_5_v3,2023.2.2,Win32,84.74576271,,,,,,,,,,,,,,,,756.1131,757.4071,757.4072,767.3133,return,0.2022,,86.71875,,,,,,FBP-PT-19.png,0.43,1.2,29,0.5,,,,,,,,,,,,,0,55,55,28,1,,,,,,,,,,,,,,,,,,,,,,,,,,,,
,,,,,V3_106,18,female,2025-02-06_14h34.19.497,jersey_experiment_5_v3,2023.2.2,Win32,84.74576271,,,,,,,,,,,,,,,,767.3136,768.6075,768.6075,769.7135,return,0.1308,,99.34895833,,,,,,FBP-RB-19.png,0.45,1.2,60,0.5,,,,,,,,,,,,,0,56,56,59,1,,,,,,,,,,,,,,,,,,,,,,,,,,,,
,,,,,V3_106,18,female,2025-02-06_14h34.19.497,jersey_experiment_5_v3,2023.2.2,Win32,84.74576271,,,,,,,,,,,,,,,,769.7138,771.0076,771.0077,772.1489,return,0.1179,,48.95833333,,,,,,FBP-YG-81.png,0.37,1.2,7,0.5,,,,,,,,,,,,,0,57,57,6,1,,,,,,,,,,,,,,,,,,,,,,,,,,,,
,,,,,V3_106,18,female,2025-02-06_14h34.19.497,jersey_experiment_5_v3,2023.2.2,Win32,84.74576271,,,,,,,,,,,,,,,,772.1492,773.4431,773.4431,775.5019,return,0.2181,,99.34895833,,,,,,FBP-RB-19.png,0.43,1.2,59,0.5,,,,,,,,,,,,,0,58,58,58,1,,,,,,,,,,,,,,,,,,,,,,,,,,,,
,,,,,V3_106,18,female,2025-02-06_14h34.19.497,jersey_experiment_5_v3,2023.2.2,Win32,84.74576271,,,,,,,,,,,,,,,,775.5022,777.055,777.0551,778.2787,return,0.1522,,24.08854167,,,,,,FBP-OG-17.png,0.37,1.2,32,0.75,,,,,,,,,,,,,0,59,59,31,1,,,,,,,,,,,,,,,,,,,,,,,,,,,,
,,,,,V3_106,18,female,2025-02-06_14h34.19.497,jersey_experiment_5_v3,2023.2.2,Win32,84.74576271,,,,,,,,,,,,,,,,778.2799,779.8316,779.8316,781.1845,return,0.1913,,99.34895833,,,,,,FBP-OG-71.png,0.45,1.2,35,0.75,,,,,,,,,,,,,,,,,,0,0,0,34,1,,,,,,,,,,,,,,,,,,,,,,,
,,,,,V3_106,18,female,2025-02-06_14h34.19.497,jersey_experiment_5_v3,2023.2.2,Win32,84.74576271,,,,,,,,,,,,,,,,781.1848,782.4787,782.4787,783.0433,return,0.0826,,99.08854167,,,,,,FBP-YG-18.png,0.45,1.2,10,0.5,,,,,,,,,,,,,,,,,,0,1,1,9,1,,,,,,,,,,,,,,,,,,,,,,,
,,,,,V3_106,18,female,2025-02-06_14h34.19.497,jersey_experiment_5_v3,2023.2.2,Win32,84.74576271,,,,,,,,,,,,,,,,783.0437,784.3375,784.3375,784.9727,return,0.2404,,98.828125,,,,,,FBP-RB-81.png,0.35,1.2,51,0.5,,,,,,,,,,,,,,,,,,0,2,2,50,1,,,,,,,,,,,,,,,,,,,,,,,
,,,,,V3_106,18,female,2025-02-06_14h34.19.497,jersey_experiment_5_v3,2023.2.2,Win32,84.74576271,,,,,,,,,,,,,,,,784.9731,786.2669,786.2669,787.6318,return,0.0971,,99.08854167,,,,,,FBP-RB-81.png,0.45,1.2,55,0.5,,,,,,,,,,,,,,,,,,0,3,3,54,1,,,,,,,,,,,,,,,,,,,,,,,
,,,,,V3_106,18,female,2025-02-06_14h34.19.497,jersey_experiment_5_v3,2023.2.2,Win32,84.74576271,,,,,,,,,,,,,,,,787.6321,789.1849,789.1849,790.5495,return,0.2354,,99.08854167,,,,,,FBP-OG-71.png,0.43,1.2,34,0.75,,,,,,,,,,,,,,,,,,0,4,4,33,1,,,,,,,,,,,,,,,,,,,,,,,
,,,,,V3_106,18,female,2025-02-06_14h34.19.497,jersey_experiment_5_v3,2023.2.2,Win32,84.74576271,,,,,,,,,,,,,,,,790.5497,791.8436,791.8436,793.2319,return,0.2043,,74.609375,,,,,,FBP-YG-17.png,0.45,1.2,5,0.5,,,,,,,,,,,,,,,,,,0,5,5,4,1,,,,,,,,,,,,,,,,,,,,,,,
,,,,,V3_106,18,female,2025-02-06_14h34.19.497,jersey_experiment_5_v3,2023.2.2,Win32,84.74576271,,,,,,,,,,,,,,,,793.2322,794.7852,794.7852,796.2909,return,0.1306,,0.520833333,,,,,,FBP-OG-71.png,0.37,1.2,32,0.75,,,,,,,,,,,,,,,,,,0,6,6,31,1,,,,,,,,,,,,,,,,,,,,,,,
,,,,,V3_106,18,female,2025-02-06_14h34.19.497,jersey_experiment_5_v3,2023.2.2,Win32,84.74576271,,,,,,,,,,,,,,,,796.2911,797.5851,797.5851,798.7851,return,0.0859,,99.73958333,,,,,,FBP-PT-91.png,0.43,1.2,29,0.5,,,,,,,,,,,,,,,,,,0,7,7,28,1,,,,,,,,,,,,,,,,,,,,,,,
,,,,,V3_106,18,female,2025-02-06_14h34.19.497,jersey_experiment_5_v3,2023.2.2,Win32,84.74576271,,,,,,,,,,,,,,,,798.7854,800.0795,800.0795,801.2911,return,0.1269,,99.47916667,,,,,,FBP-RB-91.png,0.45,1.2,60,0.5,,,,,,,,,,,,,,,,,,0,8,8,59,1,,,,,,,,,,,,,,,,,,,,,,,
,,,,,V3_106,18,female,2025-02-06_14h34.19.497,jersey_experiment_5_v3,2023.2.2,Win32,84.74576271,,,,,,,,,,,,,,,,801.2914,802.5855,802.5855,803.6323,return,0.1097,,74.73958333,,,,,,FBP-YG-19.png,0.37,1.2,12,0.5,,,,,,,,,,,,,,,,,,0,9,9,11,1,,,,,,,,,,,,,,,,,,,,,,,
,,,,,V3_106,18,female,2025-02-06_14h34.19.497,jersey_experiment_5_v3,2023.2.2,Win32,84.74576271,,,,,,,,,,,,,,,,803.6327,804.9264,804.9265,806.2913,return,0.2614,,75.52083333,,,,,,FBP-YG-18.png,0.43,1.2,9,0.5,,,,,,,,,,,,,,,,,,0,10,10,8,1,,,,,,,,,,,,,,,,,,,,,,,
,,,,,V3_106,18,female,2025-02-06_14h34.19.497,jersey_experiment_5_v3,2023.2.2,Win32,84.74576271,,,,,,,,,,,,,,,,806.2916,807.5854,807.5854,810.4678,return,0.7877,,99.08854167,,,,,,FBP-RB-81.png,0.43,1.2,54,0.5,,,,,,,,,,,,,,,,,,0,11,11,53,1,,,,,,,,,,,,,,,,,,,,,,,
,,,,,V3_106,18,female,2025-02-06_14h34.19.497,jersey_experiment_5_v3,2023.2.2,Win32,84.74576271,,,,,,,,,,,,,,,,810.4681,811.7622,811.7622,812.8329,return,0.1444,,75,,,,,,FBP-RB-81.png,0.37,1.2,52,0.5,,,,,,,,,,,,,,,,,,0,12,12,51,1,,,,,,,,,,,,,,,,,,,,,,,
,,,,,V3_106,18,female,2025-02-06_14h34.19.497,jersey_experiment_5_v3,2023.2.2,Win32,84.74576271,,,,,,,,,,,,,,,,812.8331,814.3859,814.3859,815.2209,return,0.1039,,50.13020833,,,,,,FBP-OG-71.png,0.35,1.2,31,0.75,,,,,,,,,,,,,,,,,,0,13,13,30,1,,,,,,,,,,,,,,,,,,,,,,,
,,,,,V3_106,18,female,2025-02-06_14h34.19.497,jersey_experiment_5_v3,2023.2.2,Win32,84.74576271,,,,,,,,,,,,,,,,815.2213,816.5152,816.5152,817.5151,return,0.0678,,98.56770833,,,,,,FBP-PT-71.png,0.43,1.2,19,0.5,,,,,,,,,,,,,,,,,,0,14,14,18,1,,,,,,,,,,,,,,,,,,,,,,,
,,,,,V3_106,18,female,2025-02-06_14h34.19.497,jersey_experiment_5_v3,2023.2.2,Win32,84.74576271,,,,,,,,,,,,,,,,817.5154,818.8096,818.8096,819.5036,return,0.0518,,74.86979167,,,,,,FBP-YG-19.png,0.35,1.2,11,0.5,,,,,,,,,,,,,,,,,,0,15,15,10,1,,,,,,,,,,,,,,,,,,,,,,,
,,,,,V3_106,18,female,2025-02-06_14h34.19.497,jersey_experiment_5_v3,2023.2.2,Win32,84.74576271,,,,,,,,,,,,,,,,819.5038,821.0567,821.0567,821.8684,return,0.0669,,98.17708333,,,,,,FBP-OG-81.png,0.4,1.2,38,0.75,,,,,,,,,,,,,,,,,,0,16,16,37,1,,,,,,,,,,,,,,,,,,,,,,,
,,,,,V3_106,18,female,2025-02-06_14h34.19.497,jersey_experiment_5_v3,2023.2.2,Win32,84.74576271,,,,,,,,,,,,,,,,821.8686,823.1627,823.1627,823.9977,return,0.0171,,97.91666667,,,,,,FBP-RB-81.png,0.4,1.2,53,0.5,,,,,,,,,,,,,,,,,,0,17,17,52,1,,,,,,,,,,,,,,,,,,,,,,,
,,,,,V3_106,18,female,2025-02-06_14h34.19.497,jersey_experiment_5_v3,2023.2.2,Win32,84.74576271,,,,,,,,,,,,,,,,823.9979,825.5506,825.5507,826.6214,return,0.1236,,99.86979167,,,,,,FBP-OG-81.png,0.43,1.2,39,0.75,,,,,,,,,,,,,,,,,,0,18,18,38,1,,,,,,,,,,,,,,,,,,,,,,,
,,,,,V3_106,18,female,2025-02-06_14h34.19.497,jersey_experiment_5_v3,2023.2.2,Win32,84.74576271,,,,,,,,,,,,,,,,826.6217,827.9157,827.9157,828.9403,return,0.1279,,26.171875,,,,,,FBP-RB-71.png,0.35,1.2,46,0.5,,,,,,,,,,,,,,,,,,0,19,19,45,1,,,,,,,,,,,,,,,,,,,,,,,
,,,,,V3_106,18,female,2025-02-06_14h34.19.497,jersey_experiment_5_v3,2023.2.2,Win32,84.74576271,,,,,,,,,,,,,,,,828.9405,830.2333,830.2333,831.9745,return,0.1026,,99.34895833,,,,,,FBP-YG-19.png,0.43,1.2,14,0.5,,,,,,,,,,,,,,,,,,0,20,20,13,1,,,,,,,,,,,,,,,,,,,,,,,
,,,,,V3_106,18,female,2025-02-06_14h34.19.497,jersey_experiment_5_v3,2023.2.2,Win32,84.74576271,,,,,,,,,,,,,,,,831.9748,833.2686,833.2686,833.8099,return,0.0958,,99.34895833,,,,,,FBP-YG-19.png,0.4,1.2,13,0.5,,,,,,,,,,,,,,,,,,0,21,21,12,1,,,,,,,,,,,,,,,,,,,,,,,
,,,,,V3_106,18,female,2025-02-06_14h34.19.497,jersey_experiment_5_v3,2023.2.2,Win32,84.74576271,,,,,,,,,,,,,,,,833.8102,835.3629,835.3629,836.0335,return,0.1555,,99.21875,,,,,,FBP-OG-81.png,0.45,1.2,40,0.75,,,,,,,,,,,,,,,,,,0,22,22,39,1,,,,,,,,,,,,,,,,,,,,,,,
,,,,,V3_106,18,female,2025-02-06_14h34.19.497,jersey_experiment_5_v3,2023.2.2,Win32,84.74576271,,,,,,,,,,,,,,,,836.0339,837.3276,837.3277,837.9042,return,0.1323,,99.08854167,,,,,,FBP-YG-19.png,0.45,1.2,15,0.5,,,,,,,,,,,,,,,,,,0,23,23,14,1,,,,,,,,,,,,,,,,,,,,,,,
,,,,,V3_106,18,female,2025-02-06_14h34.19.497,jersey_experiment_5_v3,2023.2.2,Win32,84.74576271,,,,,,,,,,,,,,,,837.9045,839.4572,839.4573,840.1395,return,0.0557,,74.47916667,,,,,,FBP-OG-91.png,0.37,1.2,42,0.75,,,,,,,,,,,,,,,,,,0,24,24,41,1,,,,,,,,,,,,,,,,,,,,,,,
,,,,,V3_106,18,female,2025-02-06_14h34.19.497,jersey_experiment_5_v3,2023.2.2,Win32,84.74576271,,,,,,,,,,,,,,,,840.1397,841.6926,841.6927,842.3867,return,0.0712,,98.828125,,,,,,FBP-OG-91.png,0.45,1.2,45,0.75,,,,,,,,,,,,,,,,,,0,25,25,44,1,,,,,,,,,,,,,,,,,,,,,,,
,,,,,V3_106,18,female,2025-02-06_14h34.19.497,jersey_experiment_5_v3,2023.2.2,Win32,84.74576271,,,,,,,,,,,,,,,,842.3869,843.6808,843.6809,845.1397,return,0.6241,,98.828125,,,,,,FBP-PT-91.png,0.45,1.2,30,0.5,,,,,,,,,,,,,,,,,,0,26,26,29,1,,,,,,,,,,,,,,,,,,,,,,,
,,,,,V3_106,18,female,2025-02-06_14h34.19.497,jersey_experiment_5_v3,2023.2.2,Win32,84.74576271,,,,,,,,,,,,,,,,845.1401,846.4339,846.4339,849.0693,return,2.1233,,1.822916667,,,,,,FBP-PT-91.png,0.35,1.2,26,0.5,,,,,,,,,,,,,,,,,,0,27,27,25,1,,,,,,,,,,,,,,,,,,,,,,,
,,,,,V3_106,18,female,2025-02-06_14h34.19.497,jersey_experiment_5_v3,2023.2.2,Win32,84.74576271,,,,,,,,,,,,,,,,849.0695,850.3635,850.3635,851.9634,return,0.1254,,98.95833333,,,,,,FBP-RB-71.png,0.43,1.2,49,0.5,,,,,,,,,,,,,,,,,,0,28,28,48,1,,,,,,,,,,,,,,,,,,,,,,,
,,,,,V3_106,18,female,2025-02-06_14h34.19.497,jersey_experiment_5_v3,2023.2.2,Win32,84.74576271,,,,,,,,,,,,,,,,851.9636,853.2577,853.2578,854.4931,return,0.0541,,49.21875,,,,,,FBP-PT-81.png,0.35,1.2,21,0.5,,,,,,,,,,,,,,,,,,0,29,29,20,1,,,,,,,,,,,,,,,,,,,,,,,
,,,,,V3_106,18,female,2025-02-06_14h34.19.497,jersey_experiment_5_v3,2023.2.2,Win32,84.74576271,,,,,,,,,,,,,,,,854.4933,856.046,856.0461,856.646,return,0.1202,,48.30729167,,,,,,FBP-OG-91.png,0.4,1.2,43,0.75,,,,,,,,,,,,,,,,,,0,30,30,42,1,,,,,,,,,,,,,,,,,,,,,,,
,,,,,V3_106,18,female,2025-02-06_14h34.19.497,jersey_experiment_5_v3,2023.2.2,Win32,84.74576271,,,,,,,,,,,,,,,,856.6463,857.9402,857.9402,859.3877,return,0.0905,,75,,,,,,FBP-RB-91.png,0.4,1.2,58,0.5,,,,,,,,,,,,,,,,,,0,31,31,57,1,,,,,,,,,,,,,,,,,,,,,,,
,,,,,V3_106,18,female,2025-02-06_14h34.19.497,jersey_experiment_5_v3,2023.2.2,Win32,84.74576271,,,,,,,,,,,,,,,,859.388,860.6814,860.6815,862.0344,return,0.2026,,99.86979167,,,,,,FBP-PT-71.png,0.4,1.2,18,0.5,,,,,,,,,,,,,,,,,,0,32,32,17,1,,,,,,,,,,,,,,,,,,,,,,,
,,,,,V3_106,18,female,2025-02-06_14h34.19.497,jersey_experiment_5_v3,2023.2.2,Win32,84.74576271,,,,,,,,,,,,,,,,862.0346,863.3287,863.3287,863.9639,return,0.1485,,99.86979167,,,,,,FBP-RB-91.png,0.43,1.2,59,0.5,,,,,,,,,,,,,,,,,,0,33,33,58,1,,,,,,,,,,,,,,,,,,,,,,,
,,,,,V3_106,18,female,2025-02-06_14h34.19.497,jersey_experiment_5_v3,2023.2.2,Win32,84.74576271,,,,,,,,,,,,,,,,863.9641,865.2582,865.2583,865.9169,return,0.1132,,99.86979167,,,,,,FBP-RB-71.png,0.37,1.2,47,0.5,,,,,,,,,,,,,,,,,,0,34,34,46,1,,,,,,,,,,,,,,,,,,,,,,,
,,,,,V3_106,18,female,2025-02-06_14h34.19.497,jersey_experiment_5_v3,2023.2.2,Win32,84.74576271,,,,,,,,,,,,,,,,865.9171,867.47,867.47,868.1171,return,0.1266,,99.86979167,,,,,,FBP-OG-81.png,0.35,1.2,36,0.75,,,,,,,,,,,,,,,,,,0,35,35,35,1,,,,,,,,,,,,,,,,,,,,,,,
,,,,,V3_106,18,female,2025-02-06_14h34.19.497,jersey_experiment_5_v3,2023.2.2,Win32,84.74576271,,,,,,,,,,,,,,,,868.1174,869.4111,869.4112,871.6938,return,0.1009,,0.130208333,,,,,,FBP-RB-91.png,0.35,1.2,56,0.5,,,,,,,,,,,,,,,,,,0,36,36,55,1,,,,,,,,,,,,,,,,,,,,,,,
,,,,,V3_106,18,female,2025-02-06_14h34.19.497,jersey_experiment_5_v3,2023.2.2,Win32,84.74576271,,,,,,,,,,,,,,,,871.6942,872.9878,872.9879,874.9878,return,0.1731,,99.21875,,,,,,FBP-PT-81.png,0.43,1.2,24,0.5,,,,,,,,,,,,,,,,,,0,37,37,23,1,,,,,,,,,,,,,,,,,,,,,,,
,,,,,V3_106,18,female,2025-02-06_14h34.19.497,jersey_experiment_5_v3,2023.2.2,Win32,84.74576271,,,,,,,,,,,,,,,,874.9881,876.282,876.282,876.8467,return,0.0758,,99.21875,,,,,,FBP-PT-81.png,0.4,1.2,23,0.5,,,,,,,,,,,,,,,,,,0,38,38,22,1,,,,,,,,,,,,,,,,,,,,,,,
,,,,,V3_106,18,female,2025-02-06_14h34.19.497,jersey_experiment_5_v3,2023.2.2,Win32,84.74576271,,,,,,,,,,,,,,,,876.8469,878.141,878.141,879.4115,return,0.0704,,75.52083333,,,,,,FBP-PT-71.png,0.37,1.2,17,0.5,,,,,,,,,,,,,,,,,,0,39,39,16,1,,,,,,,,,,,,,,,,,,,,,,,
,,,,,V3_106,18,female,2025-02-06_14h34.19.497,jersey_experiment_5_v3,2023.2.2,Win32,84.74576271,,,,,,,,,,,,,,,,879.4118,880.7061,880.7061,882.3529,return,0.0975,,75.26041667,,,,,,FBP-YG-17.png,0.4,1.2,3,0.5,,,,,,,,,,,,,,,,,,0,40,40,2,1,,,,,,,,,,,,,,,,,,,,,,,
,,,,,V3_106,18,female,2025-02-06_14h34.19.497,jersey_experiment_5_v3,2023.2.2,Win32,84.74576271,,,,,,,,,,,,,,,,882.3531,883.6469,883.647,885.0707,return,0.1821,,98.4375,,,,,,FBP-RB-71.png,0.45,1.2,50,0.5,,,,,,,,,,,,,,,,,,0,41,41,49,1,,,,,,,,,,,,,,,,,,,,,,,
,,,,,V3_106,18,female,2025-02-06_14h34.19.497,jersey_experiment_5_v3,2023.2.2,Win32,84.74576271,,,,,,,,,,,,,,,,885.071,886.3648,886.365,887.2353,return,0.037,,75.26041667,,,,,,FBP-PT-81.png,0.37,1.2,22,0.5,,,,,,,,,,,,,,,,,,0,42,42,21,1,,,,,,,,,,,,,,,,,,,,,,,
,,,,,V3_106,18,female,2025-02-06_14h34.19.497,jersey_experiment_5_v3,2023.2.2,Win32,84.74576271,,,,,,,,,,,,,,,,887.2356,888.7882,888.7884,889.2001,return,0.1451,,75.13020833,,,,,,FBP-OG-71.png,0.4,1.2,33,0.75,,,,,,,,,,,,,,,,,,0,43,43,32,1,,,,,,,,,,,,,,,,,,,,,,,
,,,,,V3_106,18,female,2025-02-06_14h34.19.497,jersey_experiment_5_v3,2023.2.2,Win32,84.74576271,,,,,,,,,,,,,,,,889.2004,890.4948,890.4948,890.8826,return,0.1318,,75.13020833,,,,,,FBP-RB-71.png,0.4,1.2,48,0.5,,,,,,,,,,,,,,,,,,0,44,44,47,1,,,,,,,,,,,,,,,,,,,,,,,
,,,,,V3_106,18,female,2025-02-06_14h34.19.497,jersey_experiment_5_v3,2023.2.2,Win32,84.74576271,,,,,,,,,,,,,,,,890.8829,892.4356,892.4356,893.0592,return,0.2467,,75.13020833,,,,,,FBP-OG-81.png,0.37,1.2,37,0.75,,,,,,,,,,,,,,,,,,0,45,45,36,1,,,,,,,,,,,,,,,,,,,,,,,
,,,,,V3_106,18,female,2025-02-06_14h34.19.497,jersey_experiment_5_v3,2023.2.2,Win32,84.74576271,,,,,,,,,,,,,,,,893.0596,894.6123,894.6123,895.3888,return,0.0312,,51.82291667,,,,,,FBP-OG-91.png,0.35,1.2,41,0.75,,,,,,,,,,,,,,,,,,0,46,46,40,1,,,,,,,,,,,,,,,,,,,,,,,
,,,,,V3_106,18,female,2025-02-06_14h34.19.497,jersey_experiment_5_v3,2023.2.2,Win32,84.74576271,,,,,,,,,,,,,,,,895.3892,896.6828,896.6829,897.824,return,0.0161,,23.69791667,,,,,,FBP-PT-91.png,0.37,1.2,27,0.5,,,,,,,,,,,,,,,,,,0,47,47,26,1,,,,,,,,,,,,,,,,,,,,,,,
,,,,,V3_106,18,female,2025-02-06_14h34.19.497,jersey_experiment_5_v3,2023.2.2,Win32,84.74576271,,,,,,,,,,,,,,,,897.8242,899.1183,899.1183,901.6007,return,0.2621,,99.73958333,,,,,,FBP-PT-81.png,0.45,1.2,25,0.5,,,,,,,,,,,,,,,,,,0,48,48,24,1,,,,,,,,,,,,,,,,,,,,,,,
,,,,,V3_106,18,female,2025-02-06_14h34.19.497,jersey_experiment_5_v3,2023.2.2,Win32,84.74576271,,,,,,,,,,,,,,,,901.601,902.895,902.895,903.9419,return,0.071,,75.26041667,,,,,,FBP-YG-17.png,0.35,1.2,1,0.5,,,,,,,,,,,,,,,,,,0,49,49,0,1,,,,,,,,,,,,,,,,,,,,,,,
,,,,,V3_106,18,female,2025-02-06_14h34.19.497,jersey_experiment_5_v3,2023.2.2,Win32,84.74576271,,,,,,,,,,,,,,,,903.9421,905.2359,905.236,905.789,return,0.1248,,75.13020833,,,,,,FBP-YG-18.png,0.35,1.2,6,0.5,,,,,,,,,,,,,,,,,,0,50,50,5,1,,,,,,,,,,,,,,,,,,,,,,,
,,,,,V3_106,18,female,2025-02-06_14h34.19.497,jersey_experiment_5_v3,2023.2.2,Win32,84.74576271,,,,,,,,,,,,,,,,905.7893,907.0831,907.0832,908.1891,return,0.0775,,98.69791667,,,,,,FBP-PT-71.png,0.45,1.2,20,0.5,,,,,,,,,,,,,,,,,,0,51,51,19,1,,,,,,,,,,,,,,,,,,,,,,,
,,,,,V3_106,18,female,2025-02-06_14h34.19.497,jersey_experiment_5_v3,2023.2.2,Win32,84.74576271,,,,,,,,,,,,,,,,908.1894,909.4833,909.4834,911.6481,return,0.4041,,98.828125,,,,,,FBP-YG-17.png,0.43,1.2,4,0.5,,,,,,,,,,,,,,,,,,0,52,52,3,1,,,,,,,,,,,,,,,,,,,,,,,
,,,,,V3_106,18,female,2025-02-06_14h34.19.497,jersey_experiment_5_v3,2023.2.2,Win32,84.74576271,,,,,,,,,,,,,,,,911.6484,912.9423,912.9424,913.7894,return,0.0776,,75.13020833,,,,,,FBP-YG-18.png,0.4,1.2,8,0.5,,,,,,,,,,,,,,,,,,0,53,53,7,1,,,,,,,,,,,,,,,,,,,,,,,
,,,,,V3_106,18,female,2025-02-06_14h34.19.497,jersey_experiment_5_v3,2023.2.2,Win32,84.74576271,,,,,,,,,,,,,,,,913.7895,915.3308,915.3309,917.0132,return,0.1515,,75.390625,,,,,,FBP-OG-91.png,0.43,1.2,44,0.75,,,,,,,,,,,,,,,,,,0,54,54,43,1,,,,,,,,,,,,,,,,,,,,,,,
,,,,,V3_106,18,female,2025-02-06_14h34.19.497,jersey_experiment_5_v3,2023.2.2,Win32,84.74576271,,,,,,,,,,,,,,,,917.0135,918.3074,918.3075,919.1658,return,0.1225,,82.55208333,,,,,,FBP-RB-91.png,0.37,1.2,57,0.5,,,,,,,,,,,,,,,,,,0,55,55,56,1,,,,,,,,,,,,,,,,,,,,,,,
,,,,,V3_106,18,female,2025-02-06_14h34.19.497,jersey_experiment_5_v3,2023.2.2,Win32,84.74576271,,,,,,,,,,,,,,,,919.1661,920.4601,920.4601,921.6955,return,0.2967,,98.69791667,,,,,,FBP-PT-91.png,0.4,1.2,28,0.5,,,,,,,,,,,,,,,,,,0,56,56,27,1,,,,,,,,,,,,,,,,,,,,,,,
,,,,,V3_106,18,female,2025-02-06_14h34.19.497,jersey_experiment_5_v3,2023.2.2,Win32,84.74576271,,,,,,,,,,,,,,,,921.6958,922.9898,922.9898,924.2721,return,0.0625,,49.47916667,,,,,,FBP-PT-71.png,0.35,1.2,16,0.5,,,,,,,,,,,,,,,,,,0,57,57,15,1,,,,,,,,,,,,,,,,,,,,,,,
,,,,,V3_106,18,female,2025-02-06_14h34.19.497,jersey_experiment_5_v3,2023.2.2,Win32,84.74576271,,,,,,,,,,,,,,,,924.2723,925.5664,925.5664,927.0251,return,0.0487,,74.21875,,,,,,FBP-YG-17.png,0.37,1.2,2,0.5,,,,,,,,,,,,,,,,,,0,58,58,1,1,,,,,,,,,,,,,,,,,,,,,,,
,,,,,V3_106,18,female,2025-02-06_14h34.19.497,jersey_experiment_5_v3,2023.2.2,Win32,84.74576271,,,,,,,,,,,,,,,,927.0254,928.3193,928.3194,928.8957,return,0.0516,,75.390625,,,,,,FBP-YG-18.png,0.37,1.2,7,0.5,,,,,,,,,,,,,,,,,,0,59,59,6,1,,,,,,,,,,,,,,,,,,,,,,,
,,,,,V3_106,18,female,2025-02-06_14h34.19.497,jersey_experiment_5_v3,2023.2.2,Win32,84.74576271,,,,,,,,,,,,,,,,,,,,,,,,,,,,,,,,,,,,,,,,,,,,,,,,,,,,,,,,928.8958,935.8726,return,6.9658,,,,,,,,,,,,,,,,,,,
,,,,,V3_106,18,female,2025-02-06_14h34.19.497,jersey_experiment_5_v3,2023.2.2,Win32,84.74576271,,,,,,,,,,,,,,,,,,,,,,,,,,,,,,,,,,,,,,,,,,,,,,,,,,,,,,,,,,,,,935.8728,940.9553,1,4.266,return,0.8052,,,,,,,,,,,,
,,,,,V3_106,18,female,2025-02-06_14h34.19.497,jersey_experiment_5_v3,2023.2.2,Win32,84.74576271,,,,,,,,,,,,,,,,,,,,,,,,,,,,,,,,,,,,,,,,,,,,,,,,,,,,,,,,,,,,,,,,,,,,940.9554,965.6155,being able to determine figures,right,20.1203,,,,,,
,,,,,V3_106,18,female,2025-02-06_14h34.19.497,jersey_experiment_5_v3,2023.2.2,Win32,84.74576271,,,,,,,,,,,,,,,,,,,,,,,,,,,,,,,,,,,,,,,,,,,,,,,,,,,,,,,,,,,,,,,,,,,,,,,,,,965.6156,970.5799,return,4.9509,