requirements.started,requirements.stopped,key_resp_3.keys,key_resp_3.rt,key_resp_3.duration,Subject ID,Age,Gender,date,expName,psychopyVersion,OS,frameRate,instructions1.started,instructions1.stopped,key_resp.keys,key_resp.rt,key_resp.duration,example.started,example.stopped,enter_2.keys,enter_2.rt,enter_2.duration,instructions2.started,instructions2.stopped,enter_3.keys,enter_3.rt,enter_3.duration,image.started,image.stopped,slider_2.started,slider_2.stopped,next.keys,next.rt,next.duration,slider.response,trial_block_1.thisRepN,trial_block_1.thisTrialN,trial_block_1.thisN,trial_block_1.thisIndex,trial_block_1.ran,Path,Width,Height,Index,Duration,trial_block_2.thisRepN,trial_block_2.thisTrialN,trial_block_2.thisN,trial_block_2.thisIndex,trial_block_2.ran,rest_break.started,rest_break.stopped,end_break.started,end_break.stopped,key_resp_5.keys,key_resp_5.rt,key_resp_5.duration,trial_block_3.thisRepN,trial_block_3.thisTrialN,trial_block_3.thisN,trial_block_3.thisIndex,trial_block_3.ran,trial_block_4.thisRepN,trial_block_4.thisTrialN,trial_block_4.thisN,trial_block_4.thisIndex,trial_block_4.ran,questions_intro.started,questions_intro.stopped,enter_12.keys,enter_12.rt,enter_12.duration,question2.started,question2.stopped,question_doingbest.response,question_doingbest.rt,enter_15.keys,enter_15.rt,enter_15.duration,pattern.started,pattern.stopped,pattern_2.text,enter_17.keys,enter_17.rt,enter_17.duration,thankyou.started,thankyou.stopped,enter_14.keys,enter_14.rt,enter_14.duration
0,11.49,return,11.4861,,V3_102,22,F,2025-02-04_16h01.12.091,jersey_experiment_5_v3,2023.2.2,Win32,85.47008547,,,,,,,,,,,,,,,,,,,,,,,,,,,,,,,,,,,,,,,,,,,,,,,,,,,,,,,,,,,,,,,,,,,,,,,,,,,,,,
,,,,,V3_102,22,F,2025-02-04_16h01.12.091,jersey_experiment_5_v3,2023.2.2,Win32,85.47008547,11.49,20.4102,return,8.9095,,,,,,,,,,,,,,,,,,,,,,,,,,,,,,,,,,,,,,,,,,,,,,,,,,,,,,,,,,,,,,,,,,,,,,,,,,
,,,,,V3_102,22,F,2025-02-04_16h01.12.091,jersey_experiment_5_v3,2023.2.2,Win32,85.47008547,,,,,,20.4103,24.1214,return,3.6814,,,,,,,,,,,,,,,,,,,,,,,,,,,,,,,,,,,,,,,,,,,,,,,,,,,,,,,,,,,,,,,,,,,,,
,,,,,V3_102,22,F,2025-02-04_16h01.12.091,jersey_experiment_5_v3,2023.2.2,Win32,85.47008547,,,,,,,,,,,24.1215,49.5459,return,25.4138,,,,,,,,,,,,,,,,,,,,,,,,,,,,,,,,,,,,,,,,,,,,,,,,,,,,,,,,,,,,,,,,
,,,,,V3_102,22,F,2025-02-04_16h01.12.091,jersey_experiment_5_v3,2023.2.2,Win32,85.47008547,,,,,,,,,,,,,,,,49.5481,51.0989,51.0989,59.111,return,2.558,,24.609375,0,0,0,15,1,FBP-PT-17.png,0.35,1.2,16,0.75,,,,,,,,,,,,,,,,,,,,,,,,,,,,,,,,,,,,,,,,,,,,,
,,,,,V3_102,22,F,2025-02-04_16h01.12.091,jersey_experiment_5_v3,2023.2.2,Win32,85.47008547,,,,,,,,,,,,,,,,59.1112,60.405,60.4051,64.6523,return,1.1527,,50.26041667,0,1,1,30,1,FBP-OG-17.png,0.35,1.2,31,0.5,,,,,,,,,,,,,,,,,,,,,,,,,,,,,,,,,,,,,,,,,,,,,
,,,,,V3_102,22,F,2025-02-04_16h01.12.091,jersey_experiment_5_v3,2023.2.2,Win32,85.47008547,,,,,,,,,,,,,,,,64.6525,65.9464,65.9464,69.3349,return,1.3606,,75.26041667,0,2,2,33,1,FBP-OG-17.png,0.43,1.2,34,0.5,,,,,,,,,,,,,,,,,,,,,,,,,,,,,,,,,,,,,,,,,,,,,
,,,,,V3_102,22,F,2025-02-04_16h01.12.091,jersey_experiment_5_v3,2023.2.2,Win32,85.47008547,,,,,,,,,,,,,,,,69.3351,70.8876,70.8877,75.8644,return,0.3668,,99.609375,0,3,3,28,1,FBP-PT-19.png,0.43,1.2,29,0.75,,,,,,,,,,,,,,,,,,,,,,,,,,,,,,,,,,,,,,,,,,,,,
,,,,,V3_102,22,F,2025-02-04_16h01.12.091,jersey_experiment_5_v3,2023.2.2,Win32,85.47008547,,,,,,,,,,,,,,,,75.8647,77.4173,77.4174,81.2763,return,0.2609,,24.73958333,0,4,4,1,1,FBP-YG-71.png,0.37,1.2,2,0.75,,,,,,,,,,,,,,,,,,,,,,,,,,,,,,,,,,,,,,,,,,,,,
,,,,,V3_102,22,F,2025-02-04_16h01.12.091,jersey_experiment_5_v3,2023.2.2,Win32,85.47008547,,,,,,,,,,,,,,,,81.2765,82.8294,82.8294,84.7589,return,0.5956,,50.26041667,0,5,5,22,1,FBP-PT-18.png,0.4,1.2,23,0.75,,,,,,,,,,,,,,,,,,,,,,,,,,,,,,,,,,,,,,,,,,,,,
,,,,,V3_102,22,F,2025-02-04_16h01.12.091,jersey_experiment_5_v3,2023.2.2,Win32,85.47008547,,,,,,,,,,,,,,,,84.7592,86.3118,86.3118,89.9004,return,1.7433,,75.26041667,0,6,6,27,1,FBP-PT-19.png,0.4,1.2,28,0.75,,,,,,,,,,,,,,,,,,,,,,,,,,,,,,,,,,,,,,,,,,,,,
,,,,,V3_102,22,F,2025-02-04_16h01.12.091,jersey_experiment_5_v3,2023.2.2,Win32,85.47008547,,,,,,,,,,,,,,,,89.9006,91.1945,91.1945,94.5358,return,0.3009,,61.45833333,0,7,7,36,1,FBP-OG-18.png,0.37,1.2,37,0.5,,,,,,,,,,,,,,,,,,,,,,,,,,,,,,,,,,,,,,,,,,,,,
,,,,,V3_102,22,F,2025-02-04_16h01.12.091,jersey_experiment_5_v3,2023.2.2,Win32,85.47008547,,,,,,,,,,,,,,,,94.536,96.0887,96.0888,97.1358,return,0.2913,,61.45833333,0,8,8,11,1,FBP-YG-91.png,0.37,1.2,12,0.75,,,,,,,,,,,,,,,,,,,,,,,,,,,,,,,,,,,,,,,,,,,,,
,,,,,V3_102,22,F,2025-02-04_16h01.12.091,jersey_experiment_5_v3,2023.2.2,Win32,85.47008547,,,,,,,,,,,,,,,,97.1361,98.6888,98.6889,99.7829,return,0.3485,,61.45833333,0,9,9,46,1,FBP-RB-17.png,0.37,1.2,47,0.75,,,,,,,,,,,,,,,,,,,,,,,,,,,,,,,,,,,,,,,,,,,,,
,,,,,V3_102,22,F,2025-02-04_16h01.12.091,jersey_experiment_5_v3,2023.2.2,Win32,85.47008547,,,,,,,,,,,,,,,,99.7833,101.3359,101.3359,103.6419,return,0.2362,,49.73958333,0,10,10,20,1,FBP-PT-18.png,0.35,1.2,21,0.75,,,,,,,,,,,,,,,,,,,,,,,,,,,,,,,,,,,,,,,,,,,,,
,,,,,V3_102,22,F,2025-02-04_16h01.12.091,jersey_experiment_5_v3,2023.2.2,Win32,85.47008547,,,,,,,,,,,,,,,,103.6422,105.1948,105.1948,106.8303,return,0.4242,,49.73958333,0,11,11,55,1,FBP-RB-19.png,0.35,1.2,56,0.75,,,,,,,,,,,,,,,,,,,,,,,,,,,,,,,,,,,,,,,,,,,,,
,,,,,V3_102,22,F,2025-02-04_16h01.12.091,jersey_experiment_5_v3,2023.2.2,Win32,85.47008547,,,,,,,,,,,,,,,,106.8304,108.3832,108.3833,110.8539,return,0.6754,,76.69270833,0,12,12,12,1,FBP-YG-91.png,0.4,1.2,13,0.75,,,,,,,,,,,,,,,,,,,,,,,,,,,,,,,,,,,,,,,,,,,,,
,,,,,V3_102,22,F,2025-02-04_16h01.12.091,jersey_experiment_5_v3,2023.2.2,Win32,85.47008547,,,,,,,,,,,,,,,,110.8541,112.4068,112.4069,114.313,return,0.4396,,62.5,0,13,13,0,1,FBP-YG-71.png,0.35,1.2,1,0.75,,,,,,,,,,,,,,,,,,,,,,,,,,,,,,,,,,,,,,,,,,,,,
,,,,,V3_102,22,F,2025-02-04_16h01.12.091,jersey_experiment_5_v3,2023.2.2,Win32,85.47008547,,,,,,,,,,,,,,,,114.3133,115.8659,115.8659,118.0071,return,0.8864,,98.95833333,0,14,14,14,1,FBP-YG-91.png,0.45,1.2,15,0.75,,,,,,,,,,,,,,,,,,,,,,,,,,,,,,,,,,,,,,,,,,,,,
,,,,,V3_102,22,F,2025-02-04_16h01.12.091,jersey_experiment_5_v3,2023.2.2,Win32,85.47008547,,,,,,,,,,,,,,,,118.0074,119.3014,119.3014,121.4543,return,0.2144,,45.703125,0,15,15,35,1,FBP-OG-18.png,0.35,1.2,36,0.5,,,,,,,,,,,,,,,,,,,,,,,,,,,,,,,,,,,,,,,,,,,,,
,,,,,V3_102,22,F,2025-02-04_16h01.12.091,jersey_experiment_5_v3,2023.2.2,Win32,85.47008547,,,,,,,,,,,,,,,,121.4545,122.7485,122.7487,124.3603,return,0.2965,,75.390625,0,16,16,34,1,FBP-OG-17.png,0.45,1.2,35,0.5,,,,,,,,,,,,,,,,,,,,,,,,,,,,,,,,,,,,,,,,,,,,,
,,,,,V3_102,22,F,2025-02-04_16h01.12.091,jersey_experiment_5_v3,2023.2.2,Win32,85.47008547,,,,,,,,,,,,,,,,124.3605,125.9134,125.9135,127.4193,return,0.5079,,75.390625,0,17,17,48,1,FBP-RB-17.png,0.43,1.2,49,0.75,,,,,,,,,,,,,,,,,,,,,,,,,,,,,,,,,,,,,,,,,,,,,
,,,,,V3_102,22,F,2025-02-04_16h01.12.091,jersey_experiment_5_v3,2023.2.2,Win32,85.47008547,,,,,,,,,,,,,,,,127.4196,128.9723,128.9723,131.4077,return,1.0147,,49.21875,0,18,18,26,1,FBP-PT-19.png,0.37,1.2,27,0.75,,,,,,,,,,,,,,,,,,,,,,,,,,,,,,,,,,,,,,,,,,,,,
,,,,,V3_102,22,F,2025-02-04_16h01.12.091,jersey_experiment_5_v3,2023.2.2,Win32,85.47008547,,,,,,,,,,,,,,,,131.4079,132.9492,132.9493,134.702,return,0.6814,,69.66145833,0,19,19,57,1,FBP-RB-19.png,0.4,1.2,58,0.75,,,,,,,,,,,,,,,,,,,,,,,,,,,,,,,,,,,,,,,,,,,,,
,,,,,V3_102,22,F,2025-02-04_16h01.12.091,jersey_experiment_5_v3,2023.2.2,Win32,85.47008547,,,,,,,,,,,,,,,,134.7022,136.2549,136.255,138.1609,return,1.0285,,83.85416667,0,20,20,54,1,FBP-RB-18.png,0.45,1.2,55,0.75,,,,,,,,,,,,,,,,,,,,,,,,,,,,,,,,,,,,,,,,,,,,,
,,,,,V3_102,22,F,2025-02-04_16h01.12.091,jersey_experiment_5_v3,2023.2.2,Win32,85.47008547,,,,,,,,,,,,,,,,138.1613,139.714,139.714,141.6551,return,0.5719,,57.8125,0,21,21,2,1,FBP-YG-71.png,0.4,1.2,3,0.75,,,,,,,,,,,,,,,,,,,,,,,,,,,,,,,,,,,,,,,,,,,,,
,,,,,V3_102,22,F,2025-02-04_16h01.12.091,jersey_experiment_5_v3,2023.2.2,Win32,85.47008547,,,,,,,,,,,,,,,,141.6553,142.9492,142.9493,145.8789,return,0.709,,76.30208333,0,22,22,44,1,FBP-OG-19.png,0.45,1.2,45,0.5,,,,,,,,,,,,,,,,,,,,,,,,,,,,,,,,,,,,,,,,,,,,,
,,,,,V3_102,22,F,2025-02-04_16h01.12.091,jersey_experiment_5_v3,2023.2.2,Win32,85.47008547,,,,,,,,,,,,,,,,145.8791,147.4318,147.4318,149.2554,return,0.5118,,74.21875,0,23,23,18,1,FBP-PT-17.png,0.43,1.2,19,0.75,,,,,,,,,,,,,,,,,,,,,,,,,,,,,,,,,,,,,,,,,,,,,
,,,,,V3_102,22,F,2025-02-04_16h01.12.091,jersey_experiment_5_v3,2023.2.2,Win32,85.47008547,,,,,,,,,,,,,,,,149.2557,150.5495,150.5496,152.8909,return,0.7534,,56.38020833,0,24,24,42,1,FBP-OG-19.png,0.4,1.2,43,0.5,,,,,,,,,,,,,,,,,,,,,,,,,,,,,,,,,,,,,,,,,,,,,
,,,,,V3_102,22,F,2025-02-04_16h01.12.091,jersey_experiment_5_v3,2023.2.2,Win32,85.47008547,,,,,,,,,,,,,,,,152.8911,154.4438,154.4439,156.7145,return,0.9921,,49.73958333,0,25,25,45,1,FBP-RB-17.png,0.35,1.2,46,0.75,,,,,,,,,,,,,,,,,,,,,,,,,,,,,,,,,,,,,,,,,,,,,
,,,,,V3_102,22,F,2025-02-04_16h01.12.091,jersey_experiment_5_v3,2023.2.2,Win32,85.47008547,,,,,,,,,,,,,,,,156.7148,158.0087,158.0087,163.5619,return,1.3309,,49.609375,0,26,26,31,1,FBP-OG-17.png,0.37,1.2,32,0.5,,,,,,,,,,,,,,,,,,,,,,,,,,,,,,,,,,,,,,,,,,,,,
,,,,,V3_102,22,F,2025-02-04_16h01.12.091,jersey_experiment_5_v3,2023.2.2,Win32,85.47008547,,,,,,,,,,,,,,,,163.5623,165.1148,165.1148,166.8092,return,0.2876,,92.31770833,0,27,27,29,1,FBP-PT-19.png,0.45,1.2,30,0.75,,,,,,,,,,,,,,,,,,,,,,,,,,,,,,,,,,,,,,,,,,,,,
,,,,,V3_102,22,F,2025-02-04_16h01.12.091,jersey_experiment_5_v3,2023.2.2,Win32,85.47008547,,,,,,,,,,,,,,,,166.8094,168.362,168.3621,169.6445,return,0.2122,,80.859375,0,28,28,17,1,FBP-PT-17.png,0.4,1.2,18,0.75,,,,,,,,,,,,,,,,,,,,,,,,,,,,,,,,,,,,,,,,,,,,,
,,,,,V3_102,22,F,2025-02-04_16h01.12.091,jersey_experiment_5_v3,2023.2.2,Win32,85.47008547,,,,,,,,,,,,,,,,169.6447,171.1975,171.1975,173.021,return,0.2452,,49.21875,0,29,29,5,1,FBP-YG-81.png,0.35,1.2,6,0.75,,,,,,,,,,,,,,,,,,,,,,,,,,,,,,,,,,,,,,,,,,,,,
,,,,,V3_102,22,F,2025-02-04_16h01.12.091,jersey_experiment_5_v3,2023.2.2,Win32,85.47008547,,,,,,,,,,,,,,,,173.0214,174.5741,174.5741,176.7035,return,0.6806,,99.21875,0,30,30,4,1,FBP-YG-71.png,0.45,1.2,5,0.75,,,,,,,,,,,,,,,,,,,,,,,,,,,,,,,,,,,,,,,,,,,,,
,,,,,V3_102,22,F,2025-02-04_16h01.12.091,jersey_experiment_5_v3,2023.2.2,Win32,85.47008547,,,,,,,,,,,,,,,,176.7038,177.9977,177.9977,179.9154,return,0.5205,,74.86979167,0,31,31,37,1,FBP-OG-18.png,0.4,1.2,38,0.5,,,,,,,,,,,,,,,,,,,,,,,,,,,,,,,,,,,,,,,,,,,,,
,,,,,V3_102,22,F,2025-02-04_16h01.12.091,jersey_experiment_5_v3,2023.2.2,Win32,85.47008547,,,,,,,,,,,,,,,,179.9155,181.2097,181.2098,183.6567,return,1.0732,,93.61979167,0,32,32,39,1,FBP-OG-18.png,0.45,1.2,40,0.5,,,,,,,,,,,,,,,,,,,,,,,,,,,,,,,,,,,,,,,,,,,,,
,,,,,V3_102,22,F,2025-02-04_16h01.12.091,jersey_experiment_5_v3,2023.2.2,Win32,85.47008547,,,,,,,,,,,,,,,,183.6569,185.2096,185.2097,187.3039,return,0.6416,,23.828125,0,33,33,25,1,FBP-PT-19.png,0.35,1.2,26,0.75,,,,,,,,,,,,,,,,,,,,,,,,,,,,,,,,,,,,,,,,,,,,,
,,,,,V3_102,22,F,2025-02-04_16h01.12.091,jersey_experiment_5_v3,2023.2.2,Win32,85.47008547,,,,,,,,,,,,,,,,187.3041,188.8567,188.8568,190.7748,return,0.3492,,17.83854167,0,34,34,10,1,FBP-YG-91.png,0.35,1.2,11,0.75,,,,,,,,,,,,,,,,,,,,,,,,,,,,,,,,,,,,,,,,,,,,,
,,,,,V3_102,22,F,2025-02-04_16h01.12.091,jersey_experiment_5_v3,2023.2.2,Win32,85.47008547,,,,,,,,,,,,,,,,190.775,192.3276,192.3276,194.0453,return,0.3298,,7.03125,0,35,35,21,1,FBP-PT-18.png,0.37,1.2,22,0.75,,,,,,,,,,,,,,,,,,,,,,,,,,,,,,,,,,,,,,,,,,,,,
,,,,,V3_102,22,F,2025-02-04_16h01.12.091,jersey_experiment_5_v3,2023.2.2,Win32,85.47008547,,,,,,,,,,,,,,,,194.0457,195.3395,195.3395,197.7397,return,0.2505,,25.13020833,0,36,36,41,1,FBP-OG-19.png,0.37,1.2,42,0.5,,,,,,,,,,,,,,,,,,,,,,,,,,,,,,,,,,,,,,,,,,,,,
,,,,,V3_102,22,F,2025-02-04_16h01.12.091,jersey_experiment_5_v3,2023.2.2,Win32,85.47008547,,,,,,,,,,,,,,,,197.74,199.2926,199.2927,202.1752,return,1.8354,,28.515625,0,37,37,51,1,FBP-RB-18.png,0.37,1.2,52,0.75,,,,,,,,,,,,,,,,,,,,,,,,,,,,,,,,,,,,,,,,,,,,,
,,,,,V3_102,22,F,2025-02-04_16h01.12.091,jersey_experiment_5_v3,2023.2.2,Win32,85.47008547,,,,,,,,,,,,,,,,202.1755,203.7282,203.7282,205.3987,return,0.243,,77.99479167,0,38,38,13,1,FBP-YG-91.png,0.43,1.2,14,0.75,,,,,,,,,,,,,,,,,,,,,,,,,,,,,,,,,,,,,,,,,,,,,
,,,,,V3_102,22,F,2025-02-04_16h01.12.091,jersey_experiment_5_v3,2023.2.2,Win32,85.47008547,,,,,,,,,,,,,,,,205.399,206.9519,206.9519,210.8108,return,2.9059,,99.34895833,0,39,39,49,1,FBP-RB-17.png,0.45,1.2,50,0.75,,,,,,,,,,,,,,,,,,,,,,,,,,,,,,,,,,,,,,,,,,,,,
,,,,,V3_102,22,F,2025-02-04_16h01.12.091,jersey_experiment_5_v3,2023.2.2,Win32,85.47008547,,,,,,,,,,,,,,,,210.811,212.3637,212.3637,214.0226,return,0.5137,,74.609375,0,40,40,9,1,FBP-YG-81.png,0.45,1.2,10,0.75,,,,,,,,,,,,,,,,,,,,,,,,,,,,,,,,,,,,,,,,,,,,,
,,,,,V3_102,22,F,2025-02-04_16h01.12.091,jersey_experiment_5_v3,2023.2.2,Win32,85.47008547,,,,,,,,,,,,,,,,214.0228,215.5757,215.5757,217.5168,return,0.9429,,78.77604167,0,41,41,52,1,FBP-RB-18.png,0.4,1.2,53,0.75,,,,,,,,,,,,,,,,,,,,,,,,,,,,,,,,,,,,,,,,,,,,,
,,,,,V3_102,22,F,2025-02-04_16h01.12.091,jersey_experiment_5_v3,2023.2.2,Win32,85.47008547,,,,,,,,,,,,,,,,217.517,219.0583,219.0583,220.4112,return,0.3328,,24.609375,0,42,42,50,1,FBP-RB-18.png,0.35,1.2,51,0.75,,,,,,,,,,,,,,,,,,,,,,,,,,,,,,,,,,,,,,,,,,,,,
,,,,,V3_102,22,F,2025-02-04_16h01.12.091,jersey_experiment_5_v3,2023.2.2,Win32,85.47008547,,,,,,,,,,,,,,,,220.4114,221.9641,221.9641,223.4699,return,0.2203,,74.47916667,0,43,43,23,1,FBP-PT-18.png,0.43,1.2,24,0.75,,,,,,,,,,,,,,,,,,,,,,,,,,,,,,,,,,,,,,,,,,,,,
,,,,,V3_102,22,F,2025-02-04_16h01.12.091,jersey_experiment_5_v3,2023.2.2,Win32,85.47008547,,,,,,,,,,,,,,,,223.4702,225.0229,225.023,227.0936,return,0.3143,,70.44270833,0,44,44,8,1,FBP-YG-81.png,0.43,1.2,9,0.75,,,,,,,,,,,,,,,,,,,,,,,,,,,,,,,,,,,,,,,,,,,,,
,,,,,V3_102,22,F,2025-02-04_16h01.12.091,jersey_experiment_5_v3,2023.2.2,Win32,85.47008547,,,,,,,,,,,,,,,,227.0938,228.6466,228.6466,229.9644,return,0.2372,,50.26041667,0,45,45,7,1,FBP-YG-81.png,0.4,1.2,8,0.75,,,,,,,,,,,,,,,,,,,,,,,,,,,,,,,,,,,,,,,,,,,,,
,,,,,V3_102,22,F,2025-02-04_16h01.12.091,jersey_experiment_5_v3,2023.2.2,Win32,85.47008547,,,,,,,,,,,,,,,,229.9646,231.5173,231.5175,233.0233,return,0.4811,,74.47916667,0,46,46,59,1,FBP-RB-19.png,0.45,1.2,60,0.75,,,,,,,,,,,,,,,,,,,,,,,,,,,,,,,,,,,,,,,,,,,,,
,,,,,V3_102,22,F,2025-02-04_16h01.12.091,jersey_experiment_5_v3,2023.2.2,Win32,85.47008547,,,,,,,,,,,,,,,,233.0236,234.3173,234.3173,236.4586,return,0.4836,,37.890625,0,47,47,32,1,FBP-OG-17.png,0.4,1.2,33,0.5,,,,,,,,,,,,,,,,,,,,,,,,,,,,,,,,,,,,,,,,,,,,,
,,,,,V3_102,22,F,2025-02-04_16h01.12.091,jersey_experiment_5_v3,2023.2.2,Win32,85.47008547,,,,,,,,,,,,,,,,236.459,238.0117,238.0117,239.3175,return,0.2195,,36.97916667,0,48,48,47,1,FBP-RB-17.png,0.4,1.2,48,0.75,,,,,,,,,,,,,,,,,,,,,,,,,,,,,,,,,,,,,,,,,,,,,
,,,,,V3_102,22,F,2025-02-04_16h01.12.091,jersey_experiment_5_v3,2023.2.2,Win32,85.47008547,,,,,,,,,,,,,,,,239.3177,240.859,240.859,242.3765,return,0.2145,,70.05208333,0,49,49,58,1,FBP-RB-19.png,0.43,1.2,59,0.75,,,,,,,,,,,,,,,,,,,,,,,,,,,,,,,,,,,,,,,,,,,,,
,,,,,V3_102,22,F,2025-02-04_16h01.12.091,jersey_experiment_5_v3,2023.2.2,Win32,85.47008547,,,,,,,,,,,,,,,,242.3767,243.9295,243.9296,245.8944,return,0.5256,,75.78125,0,50,50,53,1,FBP-RB-18.png,0.43,1.2,54,0.75,,,,,,,,,,,,,,,,,,,,,,,,,,,,,,,,,,,,,,,,,,,,,
,,,,,V3_102,22,F,2025-02-04_16h01.12.091,jersey_experiment_5_v3,2023.2.2,Win32,85.47008547,,,,,,,,,,,,,,,,245.8947,247.4472,247.4473,248.9886,return,0.3289,,49.73958333,0,51,51,16,1,FBP-PT-17.png,0.37,1.2,17,0.75,,,,,,,,,,,,,,,,,,,,,,,,,,,,,,,,,,,,,,,,,,,,,
,,,,,V3_102,22,F,2025-02-04_16h01.12.091,jersey_experiment_5_v3,2023.2.2,Win32,85.47008547,,,,,,,,,,,,,,,,248.9889,250.5416,250.5417,251.6711,return,0.2544,,75,0,52,52,3,1,FBP-YG-71.png,0.43,1.2,4,0.75,,,,,,,,,,,,,,,,,,,,,,,,,,,,,,,,,,,,,,,,,,,,,
,,,,,V3_102,22,F,2025-02-04_16h01.12.091,jersey_experiment_5_v3,2023.2.2,Win32,85.47008547,,,,,,,,,,,,,,,,251.6714,253.2243,253.2243,255.3889,return,0.3505,,35.67708333,0,53,53,6,1,FBP-YG-81.png,0.37,1.2,7,0.75,,,,,,,,,,,,,,,,,,,,,,,,,,,,,,,,,,,,,,,,,,,,,
,,,,,V3_102,22,F,2025-02-04_16h01.12.091,jersey_experiment_5_v3,2023.2.2,Win32,85.47008547,,,,,,,,,,,,,,,,255.3892,256.6831,256.6832,257.836,return,0.2258,,75.13020833,0,54,54,38,1,FBP-OG-18.png,0.43,1.2,39,0.5,,,,,,,,,,,,,,,,,,,,,,,,,,,,,,,,,,,,,,,,,,,,,
,,,,,V3_102,22,F,2025-02-04_16h01.12.091,jersey_experiment_5_v3,2023.2.2,Win32,85.47008547,,,,,,,,,,,,,,,,257.8362,259.3891,259.3892,261.2244,return,0.2533,,95.05208333,0,55,55,24,1,FBP-PT-18.png,0.45,1.2,25,0.75,,,,,,,,,,,,,,,,,,,,,,,,,,,,,,,,,,,,,,,,,,,,,
,,,,,V3_102,22,F,2025-02-04_16h01.12.091,jersey_experiment_5_v3,2023.2.2,Win32,85.47008547,,,,,,,,,,,,,,,,261.2247,262.7774,262.7774,263.942,return,0.22,,91.27604167,0,56,56,19,1,FBP-PT-17.png,0.45,1.2,20,0.75,,,,,,,,,,,,,,,,,,,,,,,,,,,,,,,,,,,,,,,,,,,,,
,,,,,V3_102,22,F,2025-02-04_16h01.12.091,jersey_experiment_5_v3,2023.2.2,Win32,85.47008547,,,,,,,,,,,,,,,,263.9423,265.4951,265.4952,267.2246,return,0.3328,,24.609375,0,57,57,56,1,FBP-RB-19.png,0.37,1.2,57,0.75,,,,,,,,,,,,,,,,,,,,,,,,,,,,,,,,,,,,,,,,,,,,,
,,,,,V3_102,22,F,2025-02-04_16h01.12.091,jersey_experiment_5_v3,2023.2.2,Win32,85.47008547,,,,,,,,,,,,,,,,267.2248,268.5187,268.5188,271.719,return,0.2856,,0.78125,0,58,58,40,1,FBP-OG-19.png,0.35,1.2,41,0.5,,,,,,,,,,,,,,,,,,,,,,,,,,,,,,,,,,,,,,,,,,,,,
,,,,,V3_102,22,F,2025-02-04_16h01.12.091,jersey_experiment_5_v3,2023.2.2,Win32,85.47008547,,,,,,,,,,,,,,,,271.7191,273.013,273.0131,275.2956,return,0.2827,,50.26041667,0,59,59,43,1,FBP-OG-19.png,0.43,1.2,44,0.5,,,,,,,,,,,,,,,,,,,,,,,,,,,,,,,,,,,,,,,,,,,,,
,,,,,V3_102,22,F,2025-02-04_16h01.12.091,jersey_experiment_5_v3,2023.2.2,Win32,85.47008547,,,,,,,,,,,,,,,,275.2974,276.8485,276.8485,279.0723,return,0.5417,,88.80208333,,,,,,FBP-RB-81.png,0.45,1.2,55,0.75,0,0,0,54,1,,,,,,,,,,,,,,,,,,,,,,,,,,,,,,,,,,,,,,,,
,,,,,V3_102,22,F,2025-02-04_16h01.12.091,jersey_experiment_5_v3,2023.2.2,Win32,85.47008547,,,,,,,,,,,,,,,,279.0726,280.625,280.6251,283.5898,return,0.3465,,49.47916667,,,,,,FBP-PT-81.png,0.4,1.2,23,0.75,0,1,1,22,1,,,,,,,,,,,,,,,,,,,,,,,,,,,,,,,,,,,,,,,,
,,,,,V3_102,22,F,2025-02-04_16h01.12.091,jersey_experiment_5_v3,2023.2.2,Win32,85.47008547,,,,,,,,,,,,,,,,283.5901,284.884,284.8841,286.3194,return,0.2356,,78.90625,,,,,,FBP-OG-91.png,0.45,1.2,45,0.5,0,2,2,44,1,,,,,,,,,,,,,,,,,,,,,,,,,,,,,,,,,,,,,,,,
,,,,,V3_102,22,F,2025-02-04_16h01.12.091,jersey_experiment_5_v3,2023.2.2,Win32,85.47008547,,,,,,,,,,,,,,,,286.3196,287.8726,287.8726,290.3313,return,1.3796,,52.86458333,,,,,,FBP-PT-71.png,0.4,1.2,18,0.75,0,3,3,17,1,,,,,,,,,,,,,,,,,,,,,,,,,,,,,,,,,,,,,,,,
,,,,,V3_102,22,F,2025-02-04_16h01.12.091,jersey_experiment_5_v3,2023.2.2,Win32,85.47008547,,,,,,,,,,,,,,,,290.3315,291.6255,291.6255,293.0726,return,0.198,,49.609375,,,,,,FBP-OG-81.png,0.37,1.2,37,0.5,0,4,4,36,1,,,,,,,,,,,,,,,,,,,,,,,,,,,,,,,,,,,,,,,,
,,,,,V3_102,22,F,2025-02-04_16h01.12.091,jersey_experiment_5_v3,2023.2.2,Win32,85.47008547,,,,,,,,,,,,,,,,293.0728,294.3669,294.3669,298.2022,return,1.6984,,75.65104167,,,,,,FBP-OG-71.png,0.45,1.2,35,0.5,0,5,5,34,1,,,,,,,,,,,,,,,,,,,,,,,,,,,,,,,,,,,,,,,,
,,,,,V3_102,22,F,2025-02-04_16h01.12.091,jersey_experiment_5_v3,2023.2.2,Win32,85.47008547,,,,,,,,,,,,,,,,298.2024,299.7554,299.7554,301.9906,return,0.3608,,34.50520833,,,,,,FBP-YG-18.png,0.35,1.2,6,0.75,0,6,6,5,1,,,,,,,,,,,,,,,,,,,,,,,,,,,,,,,,,,,,,,,,
,,,,,V3_102,22,F,2025-02-04_16h01.12.091,jersey_experiment_5_v3,2023.2.2,Win32,85.47008547,,,,,,,,,,,,,,,,301.9909,303.5435,303.5436,305.3553,return,0.249,,48.828125,,,,,,FBP-RB-91.png,0.37,1.2,57,0.75,0,7,7,56,1,,,,,,,,,,,,,,,,,,,,,,,,,,,,,,,,,,,,,,,,
,,,,,V3_102,22,F,2025-02-04_16h01.12.091,jersey_experiment_5_v3,2023.2.2,Win32,85.47008547,,,,,,,,,,,,,,,,305.3556,306.9084,306.9085,308.7674,return,0.2591,,60.67708333,,,,,,FBP-PT-91.png,0.4,1.2,28,0.75,0,8,8,27,1,,,,,,,,,,,,,,,,,,,,,,,,,,,,,,,,,,,,,,,,
,,,,,V3_102,22,F,2025-02-04_16h01.12.091,jersey_experiment_5_v3,2023.2.2,Win32,85.47008547,,,,,,,,,,,,,,,,308.7675,310.3203,310.3203,312.238,return,0.2599,,72.00520833,,,,,,FBP-PT-91.png,0.43,1.2,29,0.75,0,9,9,28,1,,,,,,,,,,,,,,,,,,,,,,,,,,,,,,,,,,,,,,,,
,,,,,V3_102,22,F,2025-02-04_16h01.12.091,jersey_experiment_5_v3,2023.2.2,Win32,85.47008547,,,,,,,,,,,,,,,,312.2382,313.7913,313.7913,315.0853,return,0.2825,,84.11458333,,,,,,FBP-YG-17.png,0.45,1.2,5,0.75,0,10,10,4,1,,,,,,,,,,,,,,,,,,,,,,,,,,,,,,,,,,,,,,,,
,,,,,V3_102,22,F,2025-02-04_16h01.12.091,jersey_experiment_5_v3,2023.2.2,Win32,85.47008547,,,,,,,,,,,,,,,,315.0855,316.6383,316.6383,317.9208,return,0.1991,,82.8125,,,,,,FBP-RB-91.png,0.45,1.2,60,0.75,0,11,11,59,1,,,,,,,,,,,,,,,,,,,,,,,,,,,,,,,,,,,,,,,,
,,,,,V3_102,22,F,2025-02-04_16h01.12.091,jersey_experiment_5_v3,2023.2.2,Win32,85.47008547,,,,,,,,,,,,,,,,317.921,319.4736,319.4736,322.0384,return,0.1808,,72.78645833,,,,,,FBP-PT-71.png,0.43,1.2,19,0.75,0,12,12,18,1,,,,,,,,,,,,,,,,,,,,,,,,,,,,,,,,,,,,,,,,
,,,,,V3_102,22,F,2025-02-04_16h01.12.091,jersey_experiment_5_v3,2023.2.2,Win32,85.47008547,,,,,,,,,,,,,,,,322.0386,323.3325,323.3326,325.1207,return,0.2225,,61.58854167,,,,,,FBP-OG-81.png,0.43,1.2,39,0.5,0,13,13,38,1,,,,,,,,,,,,,,,,,,,,,,,,,,,,,,,,,,,,,,,,
,,,,,V3_102,22,F,2025-02-04_16h01.12.091,jersey_experiment_5_v3,2023.2.2,Win32,85.47008547,,,,,,,,,,,,,,,,325.121,326.6739,326.6739,329.9446,return,0.9707,,62.890625,,,,,,FBP-YG-17.png,0.43,1.2,4,0.75,0,14,14,3,1,,,,,,,,,,,,,,,,,,,,,,,,,,,,,,,,,,,,,,,,
,,,,,V3_102,22,F,2025-02-04_16h01.12.091,jersey_experiment_5_v3,2023.2.2,Win32,85.47008547,,,,,,,,,,,,,,,,329.9448,331.4977,331.4978,333.6625,return,0.1883,,9.114583333,,,,,,FBP-PT-81.png,0.35,1.2,21,0.75,0,15,15,20,1,,,,,,,,,,,,,,,,,,,,,,,,,,,,,,,,,,,,,,,,
,,,,,V3_102,22,F,2025-02-04_16h01.12.091,jersey_experiment_5_v3,2023.2.2,Win32,85.47008547,,,,,,,,,,,,,,,,333.6626,334.9565,334.9565,336.4858,return,0.2203,,27.08333333,,,,,,FBP-OG-71.png,0.4,1.2,33,0.5,0,16,16,32,1,,,,,,,,,,,,,,,,,,,,,,,,,,,,,,,,,,,,,,,,
,,,,,V3_102,22,F,2025-02-04_16h01.12.091,jersey_experiment_5_v3,2023.2.2,Win32,85.47008547,,,,,,,,,,,,,,,,336.4861,337.7802,337.7802,339.1803,return,0.2107,,0.390625,,,,,,FBP-OG-81.png,0.35,1.2,36,0.5,0,17,17,35,1,,,,,,,,,,,,,,,,,,,,,,,,,,,,,,,,,,,,,,,,
,,,,,V3_102,22,F,2025-02-04_16h01.12.091,jersey_experiment_5_v3,2023.2.2,Win32,85.47008547,,,,,,,,,,,,,,,,339.1806,340.7334,340.7334,341.7098,return,0.1417,,1.041666667,,,,,,FBP-YG-18.png,0.37,1.2,7,0.75,0,18,18,6,1,,,,,,,,,,,,,,,,,,,,,,,,,,,,,,,,,,,,,,,,
,,,,,V3_102,22,F,2025-02-04_16h01.12.091,jersey_experiment_5_v3,2023.2.2,Win32,85.47008547,,,,,,,,,,,,,,,,341.71,343.2629,343.2629,344.3099,return,0.3027,,0.390625,,,,,,FBP-RB-71.png,0.35,1.2,46,0.75,0,19,19,45,1,,,,,,,,,,,,,,,,,,,,,,,,,,,,,,,,,,,,,,,,
,,,,,V3_102,22,F,2025-02-04_16h01.12.091,jersey_experiment_5_v3,2023.2.2,Win32,85.47008547,,,,,,,,,,,,,,,,344.3101,345.8629,345.8629,347.51,return,0.2408,,30.33854167,,,,,,FBP-RB-81.png,0.37,1.2,52,0.75,0,20,20,51,1,,,,,,,,,,,,,,,,,,,,,,,,,,,,,,,,,,,,,,,,
,,,,,V3_102,22,F,2025-02-04_16h01.12.091,jersey_experiment_5_v3,2023.2.2,Win32,85.47008547,,,,,,,,,,,,,,,,347.5103,349.0628,349.0629,350.569,return,0.2293,,50.13020833,,,,,,FBP-YG-18.png,0.4,1.2,8,0.75,0,21,21,7,1,,,,,,,,,,,,,,,,,,,,,,,,,,,,,,,,,,,,,,,,
,,,,,V3_102,22,F,2025-02-04_16h01.12.091,jersey_experiment_5_v3,2023.2.2,Win32,85.47008547,,,,,,,,,,,,,,,,350.5692,351.8631,351.8632,353.6395,return,0.2999,,99.47916667,,,,,,FBP-OG-71.png,0.43,1.2,34,0.5,0,22,22,33,1,,,,,,,,,,,,,,,,,,,,,,,,,,,,,,,,,,,,,,,,
,,,,,V3_102,22,F,2025-02-04_16h01.12.091,jersey_experiment_5_v3,2023.2.2,Win32,85.47008547,,,,,,,,,,,,,,,,353.6397,354.9337,354.9338,356.3809,return,0.2603,,33.07291667,,,,,,FBP-OG-91.png,0.35,1.2,41,0.5,0,23,23,40,1,,,,,,,,,,,,,,,,,,,,,,,,,,,,,,,,,,,,,,,,
,,,,,V3_102,22,F,2025-02-04_16h01.12.091,jersey_experiment_5_v3,2023.2.2,Win32,85.47008547,,,,,,,,,,,,,,,,356.3812,357.6752,357.6752,358.8753,return,0.2973,,95.96354167,,,,,,FBP-OG-81.png,0.45,1.2,40,0.5,0,24,24,39,1,,,,,,,,,,,,,,,,,,,,,,,,,,,,,,,,,,,,,,,,
,,,,,V3_102,22,F,2025-02-04_16h01.12.091,jersey_experiment_5_v3,2023.2.2,Win32,85.47008547,,,,,,,,,,,,,,,,358.8755,360.4281,360.4281,363.1693,return,0.9177,,41.796875,,,,,,FBP-PT-91.png,0.35,1.2,26,0.75,0,25,25,25,1,,,,,,,,,,,,,,,,,,,,,,,,,,,,,,,,,,,,,,,,
,,,,,V3_102,22,F,2025-02-04_16h01.12.091,jersey_experiment_5_v3,2023.2.2,Win32,85.47008547,,,,,,,,,,,,,,,,363.1696,364.7223,364.7224,369.1108,return,1.1729,,39.58333333,,,,,,FBP-YG-19.png,0.37,1.2,12,0.75,0,26,26,11,1,,,,,,,,,,,,,,,,,,,,,,,,,,,,,,,,,,,,,,,,
,,,,,V3_102,22,F,2025-02-04_16h01.12.091,jersey_experiment_5_v3,2023.2.2,Win32,85.47008547,,,,,,,,,,,,,,,,369.1111,370.6638,370.6638,373.3344,return,0.4551,,92.05729167,,,,,,FBP-YG-19.png,0.43,1.2,14,0.75,0,27,27,13,1,,,,,,,,,,,,,,,,,,,,,,,,,,,,,,,,,,,,,,,,
,,,,,V3_102,22,F,2025-02-04_16h01.12.091,jersey_experiment_5_v3,2023.2.2,Win32,85.47008547,,,,,,,,,,,,,,,,373.3345,374.8875,374.8876,376.8642,return,0.2356,,96.22395833,,,,,,FBP-PT-91.png,0.45,1.2,30,0.75,0,28,28,29,1,,,,,,,,,,,,,,,,,,,,,,,,,,,,,,,,,,,,,,,,
,,,,,V3_102,22,F,2025-02-04_16h01.12.091,jersey_experiment_5_v3,2023.2.2,Win32,85.47008547,,,,,,,,,,,,,,,,376.8644,378.4169,378.417,380.6053,return,0.307,,74.34895833,,,,,,FBP-RB-71.png,0.4,1.2,48,0.75,0,29,29,47,1,,,,,,,,,,,,,,,,,,,,,,,,,,,,,,,,,,,,,,,,
,,,,,V3_102,22,F,2025-02-04_16h01.12.091,jersey_experiment_5_v3,2023.2.2,Win32,85.47008547,,,,,,,,,,,,,,,,380.6055,382.1582,382.1584,383.4996,return,0.202,,49.609375,,,,,,FBP-RB-81.png,0.35,1.2,51,0.75,0,30,30,50,1,,,,,,,,,,,,,,,,,,,,,,,,,,,,,,,,,,,,,,,,
,,,,,V3_102,22,F,2025-02-04_16h01.12.091,jersey_experiment_5_v3,2023.2.2,Win32,85.47008547,,,,,,,,,,,,,,,,383.4999,385.0525,385.0526,385.888,return,0.2269,,49.73958333,,,,,,FBP-PT-81.png,0.37,1.2,22,0.75,0,31,31,21,1,,,,,,,,,,,,,,,,,,,,,,,,,,,,,,,,,,,,,,,,
,,,,,V3_102,22,F,2025-02-04_16h01.12.091,jersey_experiment_5_v3,2023.2.2,Win32,85.47008547,,,,,,,,,,,,,,,,385.8881,387.4409,387.4409,388.6645,return,0.2166,,57.29166667,,,,,,FBP-RB-91.png,0.4,1.2,58,0.75,0,32,32,57,1,,,,,,,,,,,,,,,,,,,,,,,,,,,,,,,,,,,,,,,,
,,,,,V3_102,22,F,2025-02-04_16h01.12.091,jersey_experiment_5_v3,2023.2.2,Win32,85.47008547,,,,,,,,,,,,,,,,388.6648,389.9586,389.9587,391.7588,return,0.1979,,26.30208333,,,,,,FBP-OG-71.png,0.35,1.2,31,0.5,0,33,33,30,1,,,,,,,,,,,,,,,,,,,,,,,,,,,,,,,,,,,,,,,,
,,,,,V3_102,22,F,2025-02-04_16h01.12.091,jersey_experiment_5_v3,2023.2.2,Win32,85.47008547,,,,,,,,,,,,,,,,391.7591,393.3118,393.3119,395.0529,return,0.5756,,68.22916667,,,,,,FBP-YG-19.png,0.4,1.2,13,0.75,0,34,34,12,1,,,,,,,,,,,,,,,,,,,,,,,,,,,,,,,,,,,,,,,,
,,,,,V3_102,22,F,2025-02-04_16h01.12.091,jersey_experiment_5_v3,2023.2.2,Win32,85.47008547,,,,,,,,,,,,,,,,395.0532,396.3471,396.3471,397.6296,return,0.225,,75.52083333,,,,,,FBP-OG-91.png,0.43,1.2,44,0.5,0,35,35,43,1,,,,,,,,,,,,,,,,,,,,,,,,,,,,,,,,,,,,,,,,
,,,,,V3_102,22,F,2025-02-04_16h01.12.091,jersey_experiment_5_v3,2023.2.2,Win32,85.47008547,,,,,,,,,,,,,,,,397.6298,399.1827,399.1827,400.312,return,0.1594,,87.23958333,,,,,,FBP-PT-81.png,0.45,1.2,25,0.75,0,36,36,24,1,,,,,,,,,,,,,,,,,,,,,,,,,,,,,,,,,,,,,,,,
,,,,,V3_102,22,F,2025-02-04_16h01.12.091,jersey_experiment_5_v3,2023.2.2,Win32,85.47008547,,,,,,,,,,,,,,,,400.3122,401.865,401.865,402.924,return,0.2128,,87.109375,,,,,,FBP-RB-71.png,0.43,1.2,49,0.75,0,37,37,48,1,,,,,,,,,,,,,,,,,,,,,,,,,,,,,,,,,,,,,,,,
,,,,,V3_102,22,F,2025-02-04_16h01.12.091,jersey_experiment_5_v3,2023.2.2,Win32,85.47008547,,,,,,,,,,,,,,,,402.9243,404.477,404.4771,405.5004,return,0.1539,,50.390625,,,,,,FBP-RB-71.png,0.37,1.2,47,0.75,0,38,38,46,1,,,,,,,,,,,,,,,,,,,,,,,,,,,,,,,,,,,,,,,,
,,,,,V3_102,22,F,2025-02-04_16h01.12.091,jersey_experiment_5_v3,2023.2.2,Win32,85.47008547,,,,,,,,,,,,,,,,405.5006,407.0533,407.0534,410.3593,return,1.11,,45.44270833,,,,,,FBP-PT-91.png,0.37,1.2,27,0.75,0,39,39,26,1,,,,,,,,,,,,,,,,,,,,,,,,,,,,,,,,,,,,,,,,
,,,,,V3_102,22,F,2025-02-04_16h01.12.091,jersey_experiment_5_v3,2023.2.2,Win32,85.47008547,,,,,,,,,,,,,,,,410.3596,411.9125,411.9125,413.0537,return,0.3383,,84.24479167,,,,,,FBP-PT-71.png,0.45,1.2,20,0.75,0,40,40,19,1,,,,,,,,,,,,,,,,,,,,,,,,,,,,,,,,,,,,,,,,
,,,,,V3_102,22,F,2025-02-04_16h01.12.091,jersey_experiment_5_v3,2023.2.2,Win32,85.47008547,,,,,,,,,,,,,,,,413.0539,414.6066,414.6067,416.0421,return,0.5329,,23.95833333,,,,,,FBP-PT-71.png,0.35,1.2,16,0.75,0,41,41,15,1,,,,,,,,,,,,,,,,,,,,,,,,,,,,,,,,,,,,,,,,
,,,,,V3_102,22,F,2025-02-04_16h01.12.091,jersey_experiment_5_v3,2023.2.2,Win32,85.47008547,,,,,,,,,,,,,,,,416.0422,417.3361,417.3361,418.7951,return,0.2965,,35.15625,,,,,,FBP-OG-71.png,0.37,1.2,32,0.5,0,42,42,31,1,,,,,,,,,,,,,,,,,,,,,,,,,,,,,,,,,,,,,,,,
,,,,,V3_102,22,F,2025-02-04_16h01.12.091,jersey_experiment_5_v3,2023.2.2,Win32,85.47008547,,,,,,,,,,,,,,,,418.7954,420.3481,420.3481,421.4187,return,0.2373,,38.671875,,,,,,FBP-YG-17.png,0.35,1.2,1,0.75,0,43,43,0,1,,,,,,,,,,,,,,,,,,,,,,,,,,,,,,,,,,,,,,,,
,,,,,V3_102,22,F,2025-02-04_16h01.12.091,jersey_experiment_5_v3,2023.2.2,Win32,85.47008547,,,,,,,,,,,,,,,,421.4189,422.9717,422.9718,424.2069,return,0.2356,,62.36979167,,,,,,FBP-RB-81.png,0.4,1.2,53,0.75,0,44,44,52,1,,,,,,,,,,,,,,,,,,,,,,,,,,,,,,,,,,,,,,,,
,,,,,V3_102,22,F,2025-02-04_16h01.12.091,jersey_experiment_5_v3,2023.2.2,Win32,85.47008547,,,,,,,,,,,,,,,,424.2072,425.7602,425.7602,426.6777,return,0.2209,,50,,,,,,FBP-YG-19.png,0.35,1.2,11,0.75,0,45,45,10,1,,,,,,,,,,,,,,,,,,,,,,,,,,,,,,,,,,,,,,,,
,,,,,V3_102,22,F,2025-02-04_16h01.12.091,jersey_experiment_5_v3,2023.2.2,Win32,85.47008547,,,,,,,,,,,,,,,,426.678,427.9719,427.9719,429.1836,return,0.4857,,50,,,,,,FBP-OG-91.png,0.37,1.2,42,0.5,0,46,46,41,1,,,,,,,,,,,,,,,,,,,,,,,,,,,,,,,,,,,,,,,,
,,,,,V3_102,22,F,2025-02-04_16h01.12.091,jersey_experiment_5_v3,2023.2.2,Win32,85.47008547,,,,,,,,,,,,,,,,429.1838,430.7366,430.7367,432.3603,return,0.3711,,24.21875,,,,,,FBP-PT-71.png,0.37,1.2,17,0.75,0,47,47,16,1,,,,,,,,,,,,,,,,,,,,,,,,,,,,,,,,,,,,,,,,
,,,,,V3_102,22,F,2025-02-04_16h01.12.091,jersey_experiment_5_v3,2023.2.2,Win32,85.47008547,,,,,,,,,,,,,,,,432.3605,433.9133,433.9134,434.9603,return,0.2466,,77.47395833,,,,,,FBP-YG-18.png,0.43,1.2,9,0.75,0,48,48,8,1,,,,,,,,,,,,,,,,,,,,,,,,,,,,,,,,,,,,,,,,
,,,,,V3_102,22,F,2025-02-04_16h01.12.091,jersey_experiment_5_v3,2023.2.2,Win32,85.47008547,,,,,,,,,,,,,,,,434.9605,436.5132,436.5133,439.4076,return,0.7382,,74.86979167,,,,,,FBP-PT-81.png,0.43,1.2,24,0.75,0,49,49,23,1,,,,,,,,,,,,,,,,,,,,,,,,,,,,,,,,,,,,,,,,
,,,,,V3_102,22,F,2025-02-04_16h01.12.091,jersey_experiment_5_v3,2023.2.2,Win32,85.47008547,,,,,,,,,,,,,,,,439.4078,440.9604,440.9605,442.8548,return,0.6399,,92.05729167,,,,,,FBP-RB-71.png,0.45,1.2,50,0.75,0,50,50,49,1,,,,,,,,,,,,,,,,,,,,,,,,,,,,,,,,,,,,,,,,
,,,,,V3_102,22,F,2025-02-04_16h01.12.091,jersey_experiment_5_v3,2023.2.2,Win32,85.47008547,,,,,,,,,,,,,,,,442.855,444.4079,444.4079,445.7018,return,0.428,,92.578125,,,,,,FBP-YG-19.png,0.45,1.2,15,0.75,0,51,51,14,1,,,,,,,,,,,,,,,,,,,,,,,,,,,,,,,,,,,,,,,,
,,,,,V3_102,22,F,2025-02-04_16h01.12.091,jersey_experiment_5_v3,2023.2.2,Win32,85.47008547,,,,,,,,,,,,,,,,445.702,446.996,446.9961,449.255,return,0.2653,,62.109375,,,,,,FBP-OG-81.png,0.4,1.2,38,0.5,0,52,52,37,1,,,,,,,,,,,,,,,,,,,,,,,,,,,,,,,,,,,,,,,,
,,,,,V3_102,22,F,2025-02-04_16h01.12.091,jersey_experiment_5_v3,2023.2.2,Win32,85.47008547,,,,,,,,,,,,,,,,449.2552,450.8079,450.8079,452.808,return,0.5677,,94.27083333,,,,,,FBP-RB-91.png,0.43,1.2,59,0.75,0,53,53,58,1,,,,,,,,,,,,,,,,,,,,,,,,,,,,,,,,,,,,,,,,
,,,,,V3_102,22,F,2025-02-04_16h01.12.091,jersey_experiment_5_v3,2023.2.2,Win32,85.47008547,,,,,,,,,,,,,,,,452.8082,454.1022,454.1023,456.6788,return,0.5488,,51.04166667,,,,,,FBP-OG-91.png,0.4,1.2,43,0.5,0,54,54,42,1,,,,,,,,,,,,,,,,,,,,,,,,,,,,,,,,,,,,,,,,
,,,,,V3_102,22,F,2025-02-04_16h01.12.091,jersey_experiment_5_v3,2023.2.2,Win32,85.47008547,,,,,,,,,,,,,,,,456.679,458.2202,458.2203,459.3024,return,0.2315,,74.34895833,,,,,,FBP-YG-18.png,0.45,1.2,10,0.75,0,55,55,9,1,,,,,,,,,,,,,,,,,,,,,,,,,,,,,,,,,,,,,,,,
,,,,,V3_102,22,F,2025-02-04_16h01.12.091,jersey_experiment_5_v3,2023.2.2,Win32,85.47008547,,,,,,,,,,,,,,,,459.3026,460.8554,460.8555,462.7614,return,1.0522,,50,,,,,,FBP-RB-91.png,0.35,1.2,56,0.75,0,56,56,55,1,,,,,,,,,,,,,,,,,,,,,,,,,,,,,,,,,,,,,,,,
,,,,,V3_102,22,F,2025-02-04_16h01.12.091,jersey_experiment_5_v3,2023.2.2,Win32,85.47008547,,,,,,,,,,,,,,,,462.7617,464.3145,464.3146,465.7027,return,0.1925,,75.52083333,,,,,,FBP-RB-81.png,0.43,1.2,54,0.75,0,57,57,53,1,,,,,,,,,,,,,,,,,,,,,,,,,,,,,,,,,,,,,,,,
,,,,,V3_102,22,F,2025-02-04_16h01.12.091,jersey_experiment_5_v3,2023.2.2,Win32,85.47008547,,,,,,,,,,,,,,,,465.7029,467.2558,467.2558,468.6676,return,0.1567,,69.40104167,,,,,,FBP-YG-17.png,0.4,1.2,3,0.75,0,58,58,2,1,,,,,,,,,,,,,,,,,,,,,,,,,,,,,,,,,,,,,,,,
,,,,,V3_102,22,F,2025-02-04_16h01.12.091,jersey_experiment_5_v3,2023.2.2,Win32,85.47008547,,,,,,,,,,,,,,,,468.6679,470.2204,470.2204,471.3852,return,0.2017,,54.55729167,,,,,,FBP-YG-17.png,0.37,1.2,2,0.75,0,59,59,1,1,,,,,,,,,,,,,,,,,,,,,,,,,,,,,,,,,,,,,,,,
,,,,,V3_102,22,F,2025-02-04_16h01.12.091,jersey_experiment_5_v3,2023.2.2,Win32,85.47008547,,,,,,,,,,,,,,,,,,,,,,,,,,,,,,,,,,,,,,,471.3854,591.3782,,,,,,,,,,,,,,,,,,,,,,,,,,,,,,,,,,,,,,
,,,,,V3_102,22,F,2025-02-04_16h01.12.091,jersey_experiment_5_v3,2023.2.2,Win32,85.47008547,,,,,,,,,,,,,,,,,,,,,,,,,,,,,,,,,,,,,,,,,591.3783,594.5194,return,3.1355,,,,,,,,,,,,,,,,,,,,,,,,,,,,,,,,,,
,,,,,V3_102,22,F,2025-02-04_16h01.12.091,jersey_experiment_5_v3,2023.2.2,Win32,85.47008547,,,,,,,,,,,,,,,,594.521,595.8135,595.8135,600.6843,return,2.1043,,36.19791667,,,,,,FBP-PT-17.png,0.4,1.2,18,0.5,,,,,,,,,,,,,0,0,0,17,1,,,,,,,,,,,,,,,,,,,,,,,,,,,,
,,,,,V3_102,22,F,2025-02-04_16h01.12.091,jersey_experiment_5_v3,2023.2.2,Win32,85.47008547,,,,,,,,,,,,,,,,600.6844,601.9784,601.9784,603.3433,return,0.2354,,61.84895833,,,,,,FBP-RB-19.png,0.43,1.2,59,0.5,,,,,,,,,,,,,0,1,1,58,1,,,,,,,,,,,,,,,,,,,,,,,,,,,,
,,,,,V3_102,22,F,2025-02-04_16h01.12.091,jersey_experiment_5_v3,2023.2.2,Win32,85.47008547,,,,,,,,,,,,,,,,603.3435,604.8963,604.8963,606.2492,return,0.1898,,0.520833333,,,,,,FBP-OG-19.png,0.35,1.2,41,0.75,,,,,,,,,,,,,0,2,2,40,1,,,,,,,,,,,,,,,,,,,,,,,,,,,,
,,,,,V3_102,22,F,2025-02-04_16h01.12.091,jersey_experiment_5_v3,2023.2.2,Win32,85.47008547,,,,,,,,,,,,,,,,606.2495,607.5434,607.5435,608.9082,return,0.2109,,99.609375,,,,,,FBP-RB-19.png,0.45,1.2,60,0.5,,,,,,,,,,,,,0,3,3,59,1,,,,,,,,,,,,,,,,,,,,,,,,,,,,
,,,,,V3_102,22,F,2025-02-04_16h01.12.091,jersey_experiment_5_v3,2023.2.2,Win32,85.47008547,,,,,,,,,,,,,,,,608.9086,610.2023,610.2024,611.9317,return,0.2006,,24.609375,,,,,,FBP-YG-81.png,0.37,1.2,7,0.5,,,,,,,,,,,,,0,4,4,6,1,,,,,,,,,,,,,,,,,,,,,,,,,,,,
,,,,,V3_102,22,F,2025-02-04_16h01.12.091,jersey_experiment_5_v3,2023.2.2,Win32,85.47008547,,,,,,,,,,,,,,,,611.932,613.226,613.226,614.6496,return,0.2051,,68.61979167,,,,,,FBP-YG-81.png,0.43,1.2,9,0.5,,,,,,,,,,,,,0,5,5,8,1,,,,,,,,,,,,,,,,,,,,,,,,,,,,
,,,,,V3_102,22,F,2025-02-04_16h01.12.091,jersey_experiment_5_v3,2023.2.2,Win32,85.47008547,,,,,,,,,,,,,,,,614.6497,616.2026,616.2026,618.1436,return,0.2591,,31.51041667,,,,,,FBP-OG-18.png,0.37,1.2,37,0.75,,,,,,,,,,,,,0,6,6,36,1,,,,,,,,,,,,,,,,,,,,,,,,,,,,
,,,,,V3_102,22,F,2025-02-04_16h01.12.091,jersey_experiment_5_v3,2023.2.2,Win32,85.47008547,,,,,,,,,,,,,,,,618.1438,619.438,619.438,620.9204,return,0.2415,,75.52083333,,,,,,FBP-PT-19.png,0.43,1.2,29,0.5,,,,,,,,,,,,,0,7,7,28,1,,,,,,,,,,,,,,,,,,,,,,,,,,,,
,,,,,V3_102,22,F,2025-02-04_16h01.12.091,jersey_experiment_5_v3,2023.2.2,Win32,85.47008547,,,,,,,,,,,,,,,,620.9207,622.2144,622.2145,623.9911,return,0.2642,,27.734375,,,,,,FBP-PT-18.png,0.35,1.2,21,0.5,,,,,,,,,,,,,0,8,8,20,1,,,,,,,,,,,,,,,,,,,,,,,,,,,,
,,,,,V3_102,22,F,2025-02-04_16h01.12.091,jersey_experiment_5_v3,2023.2.2,Win32,85.47008547,,,,,,,,,,,,,,,,623.9913,625.544,625.5441,627.7442,return,0.8087,,58.33333333,,,,,,FBP-OG-19.png,0.4,1.2,43,0.75,,,,,,,,,,,,,0,9,9,42,1,,,,,,,,,,,,,,,,,,,,,,,,,,,,
,,,,,V3_102,22,F,2025-02-04_16h01.12.091,jersey_experiment_5_v3,2023.2.2,Win32,85.47008547,,,,,,,,,,,,,,,,627.7443,629.297,629.2971,630.9206,return,0.6959,,62.890625,,,,,,FBP-OG-17.png,0.4,1.2,33,0.75,,,,,,,,,,,,,0,10,10,32,1,,,,,,,,,,,,,,,,,,,,,,,,,,,,
,,,,,V3_102,22,F,2025-02-04_16h01.12.091,jersey_experiment_5_v3,2023.2.2,Win32,85.47008547,,,,,,,,,,,,,,,,630.9209,632.2148,632.2149,633.6149,return,0.2359,,49.73958333,,,,,,FBP-RB-19.png,0.35,1.2,56,0.5,,,,,,,,,,,,,0,11,11,55,1,,,,,,,,,,,,,,,,,,,,,,,,,,,,
,,,,,V3_102,22,F,2025-02-04_16h01.12.091,jersey_experiment_5_v3,2023.2.2,Win32,85.47008547,,,,,,,,,,,,,,,,633.6151,635.1682,635.1682,636.4741,return,0.2009,,81.25,,,,,,FBP-OG-17.png,0.43,1.2,34,0.75,,,,,,,,,,,,,0,12,12,33,1,,,,,,,,,,,,,,,,,,,,,,,,,,,,
,,,,,V3_102,22,F,2025-02-04_16h01.12.091,jersey_experiment_5_v3,2023.2.2,Win32,85.47008547,,,,,,,,,,,,,,,,636.4743,637.768,637.768,639.4151,return,0.1573,,92.05729167,,,,,,FBP-YG-71.png,0.45,1.2,5,0.5,,,,,,,,,,,,,0,13,13,4,1,,,,,,,,,,,,,,,,,,,,,,,,,,,,
,,,,,V3_102,22,F,2025-02-04_16h01.12.091,jersey_experiment_5_v3,2023.2.2,Win32,85.47008547,,,,,,,,,,,,,,,,639.4154,640.7093,640.7093,642.1212,return,0.1467,,69.79166667,,,,,,FBP-RB-17.png,0.4,1.2,48,0.5,,,,,,,,,,,,,0,14,14,47,1,,,,,,,,,,,,,,,,,,,,,,,,,,,,
,,,,,V3_102,22,F,2025-02-04_16h01.12.091,jersey_experiment_5_v3,2023.2.2,Win32,85.47008547,,,,,,,,,,,,,,,,642.1214,643.4153,643.4153,644.3683,return,0.095,,69.66145833,,,,,,FBP-RB-18.png,0.4,1.2,53,0.5,,,,,,,,,,,,,0,15,15,52,1,,,,,,,,,,,,,,,,,,,,,,,,,,,,
,,,,,V3_102,22,F,2025-02-04_16h01.12.091,jersey_experiment_5_v3,2023.2.2,Win32,85.47008547,,,,,,,,,,,,,,,,644.3685,645.9211,645.9212,647.7448,return,0.6906,,44.921875,,,,,,FBP-OG-17.png,0.37,1.2,32,0.75,,,,,,,,,,,,,0,16,16,31,1,,,,,,,,,,,,,,,,,,,,,,,,,,,,
,,,,,V3_102,22,F,2025-02-04_16h01.12.091,jersey_experiment_5_v3,2023.2.2,Win32,85.47008547,,,,,,,,,,,,,,,,647.7451,649.039,649.039,652.1215,return,1.7228,,69.66145833,,,,,,FBP-PT-19.png,0.4,1.2,28,0.5,,,,,,,,,,,,,0,17,17,27,1,,,,,,,,,,,,,,,,,,,,,,,,,,,,
,,,,,V3_102,22,F,2025-02-04_16h01.12.091,jersey_experiment_5_v3,2023.2.2,Win32,85.47008547,,,,,,,,,,,,,,,,652.1217,653.4156,653.4156,654.8275,return,0.1995,,53.515625,,,,,,FBP-YG-91.png,0.37,1.2,12,0.5,,,,,,,,,,,,,0,18,18,11,1,,,,,,,,,,,,,,,,,,,,,,,,,,,,
,,,,,V3_102,22,F,2025-02-04_16h01.12.091,jersey_experiment_5_v3,2023.2.2,Win32,85.47008547,,,,,,,,,,,,,,,,654.8277,656.1216,656.1216,657.8865,return,0.2592,,30.33854167,,,,,,FBP-RB-18.png,0.35,1.2,51,0.5,,,,,,,,,,,,,0,19,19,50,1,,,,,,,,,,,,,,,,,,,,,,,,,,,,
,,,,,V3_102,22,F,2025-02-04_16h01.12.091,jersey_experiment_5_v3,2023.2.2,Win32,85.47008547,,,,,,,,,,,,,,,,657.8868,659.4395,659.4395,660.5571,return,0.2748,,79.16666667,,,,,,FBP-OG-19.png,0.43,1.2,44,0.75,,,,,,,,,,,,,0,20,20,43,1,,,,,,,,,,,,,,,,,,,,,,,,,,,,
,,,,,V3_102,22,F,2025-02-04_16h01.12.091,jersey_experiment_5_v3,2023.2.2,Win32,85.47008547,,,,,,,,,,,,,,,,660.5573,661.8516,661.8516,663.1336,return,0.2359,,44.66145833,,,,,,FBP-PT-19.png,0.37,1.2,27,0.5,,,,,,,,,,,,,0,21,21,26,1,,,,,,,,,,,,,,,,,,,,,,,,,,,,
,,,,,V3_102,22,F,2025-02-04_16h01.12.091,jersey_experiment_5_v3,2023.2.2,Win32,85.47008547,,,,,,,,,,,,,,,,663.1338,664.6752,664.6752,665.8161,return,0.2186,,32.8125,,,,,,FBP-OG-19.png,0.37,1.2,42,0.75,,,,,,,,,,,,,0,22,22,41,1,,,,,,,,,,,,,,,,,,,,,,,,,,,,
,,,,,V3_102,22,F,2025-02-04_16h01.12.091,jersey_experiment_5_v3,2023.2.2,Win32,85.47008547,,,,,,,,,,,,,,,,665.8165,667.1105,667.1105,668.3339,return,0.1974,,79.55729167,,,,,,FBP-YG-81.png,0.45,1.2,10,0.5,,,,,,,,,,,,,0,23,23,9,1,,,,,,,,,,,,,,,,,,,,,,,,,,,,
,,,,,V3_102,22,F,2025-02-04_16h01.12.091,jersey_experiment_5_v3,2023.2.2,Win32,85.47008547,,,,,,,,,,,,,,,,668.3341,669.6279,669.6279,670.7929,return,0.2059,,81.640625,,,,,,FBP-YG-91.png,0.43,1.2,14,0.5,,,,,,,,,,,,,0,24,24,13,1,,,,,,,,,,,,,,,,,,,,,,,,,,,,
,,,,,V3_102,22,F,2025-02-04_16h01.12.091,jersey_experiment_5_v3,2023.2.2,Win32,85.47008547,,,,,,,,,,,,,,,,670.7931,672.0869,672.0869,673.4635,return,0.2294,,73.95833333,,,,,,FBP-RB-18.png,0.43,1.2,54,0.5,,,,,,,,,,,,,0,25,25,53,1,,,,,,,,,,,,,,,,,,,,,,,,,,,,
,,,,,V3_102,22,F,2025-02-04_16h01.12.091,jersey_experiment_5_v3,2023.2.2,Win32,85.47008547,,,,,,,,,,,,,,,,673.4637,674.7576,674.7577,676.9931,return,0.2435,,65.75520833,,,,,,FBP-PT-18.png,0.4,1.2,23,0.5,,,,,,,,,,,,,0,26,26,22,1,,,,,,,,,,,,,,,,,,,,,,,,,,,,
,,,,,V3_102,22,F,2025-02-04_16h01.12.091,jersey_experiment_5_v3,2023.2.2,Win32,85.47008547,,,,,,,,,,,,,,,,676.9933,678.2871,678.2871,679.24,return,0.1905,,74.609375,,,,,,FBP-PT-17.png,0.43,1.2,19,0.5,,,,,,,,,,,,,0,27,27,18,1,,,,,,,,,,,,,,,,,,,,,,,,,,,,
,,,,,V3_102,22,F,2025-02-04_16h01.12.091,jersey_experiment_5_v3,2023.2.2,Win32,85.47008547,,,,,,,,,,,,,,,,679.2403,680.7816,680.7817,681.6874,return,0.1448,,82.94270833,,,,,,FBP-OG-18.png,0.45,1.2,40,0.75,,,,,,,,,,,,,0,28,28,39,1,,,,,,,,,,,,,,,,,,,,,,,,,,,,
,,,,,V3_102,22,F,2025-02-04_16h01.12.091,jersey_experiment_5_v3,2023.2.2,Win32,85.47008547,,,,,,,,,,,,,,,,681.6876,682.9814,682.9815,684.3816,return,0.2205,,52.60416667,,,,,,FBP-RB-17.png,0.37,1.2,47,0.5,,,,,,,,,,,,,0,29,29,46,1,,,,,,,,,,,,,,,,,,,,,,,,,,,,
,,,,,V3_102,22,F,2025-02-04_16h01.12.091,jersey_experiment_5_v3,2023.2.2,Win32,85.47008547,,,,,,,,,,,,,,,,684.3819,685.9345,685.9347,687.5817,return,0.1739,,28.515625,,,,,,FBP-OG-18.png,0.35,1.2,36,0.75,,,,,,,,,,,,,0,30,30,35,1,,,,,,,,,,,,,,,,,,,,,,,,,,,,
,,,,,V3_102,22,F,2025-02-04_16h01.12.091,jersey_experiment_5_v3,2023.2.2,Win32,85.47008547,,,,,,,,,,,,,,,,687.5819,688.8759,688.876,690.076,return,0.1284,,79.296875,,,,,,FBP-PT-18.png,0.45,1.2,25,0.5,,,,,,,,,,,,,0,31,31,24,1,,,,,,,,,,,,,,,,,,,,,,,,,,,,
,,,,,V3_102,22,F,2025-02-04_16h01.12.091,jersey_experiment_5_v3,2023.2.2,Win32,85.47008547,,,,,,,,,,,,,,,,690.0763,691.37,691.37,692.8173,return,0.2982,,95.83333333,,,,,,FBP-RB-17.png,0.45,1.2,50,0.5,,,,,,,,,,,,,0,32,32,49,1,,,,,,,,,,,,,,,,,,,,,,,,,,,,
,,,,,V3_102,22,F,2025-02-04_16h01.12.091,jersey_experiment_5_v3,2023.2.2,Win32,85.47008547,,,,,,,,,,,,,,,,692.8176,694.1114,694.1114,695.9351,return,0.2116,,94.40104167,,,,,,FBP-YG-91.png,0.45,1.2,15,0.5,,,,,,,,,,,,,0,33,33,14,1,,,,,,,,,,,,,,,,,,,,,,,,,,,,
,,,,,V3_102,22,F,2025-02-04_16h01.12.091,jersey_experiment_5_v3,2023.2.2,Win32,85.47008547,,,,,,,,,,,,,,,,695.9353,697.2291,697.2293,698.6528,return,0.2274,,17.31770833,,,,,,FBP-PT-19.png,0.35,1.2,26,0.5,,,,,,,,,,,,,0,34,34,25,1,,,,,,,,,,,,,,,,,,,,,,,,,,,,
,,,,,V3_102,22,F,2025-02-04_16h01.12.091,jersey_experiment_5_v3,2023.2.2,Win32,85.47008547,,,,,,,,,,,,,,,,698.653,699.9468,699.9469,701.2294,return,0.1985,,11.328125,,,,,,FBP-YG-81.png,0.35,1.2,6,0.5,,,,,,,,,,,,,0,35,35,5,1,,,,,,,,,,,,,,,,,,,,,,,,,,,,
,,,,,V3_102,22,F,2025-02-04_16h01.12.091,jersey_experiment_5_v3,2023.2.2,Win32,85.47008547,,,,,,,,,,,,,,,,701.2296,702.5234,702.5234,704.0647,return,0.2154,,68.359375,,,,,,FBP-PT-18.png,0.43,1.2,24,0.5,,,,,,,,,,,,,0,36,36,23,1,,,,,,,,,,,,,,,,,,,,,,,,,,,,
,,,,,V3_102,22,F,2025-02-04_16h01.12.091,jersey_experiment_5_v3,2023.2.2,Win32,85.47008547,,,,,,,,,,,,,,,,704.0649,705.3589,705.3589,706.6177,return,0.1931,,86.45833333,,,,,,FBP-PT-17.png,0.45,1.2,20,0.5,,,,,,,,,,,,,0,37,37,19,1,,,,,,,,,,,,,,,,,,,,,,,,,,,,
,,,,,V3_102,22,F,2025-02-04_16h01.12.091,jersey_experiment_5_v3,2023.2.2,Win32,85.47008547,,,,,,,,,,,,,,,,706.6178,707.9119,707.9119,709.3237,return,0.1675,,61.06770833,,,,,,FBP-YG-71.png,0.37,1.2,2,0.5,,,,,,,,,,,,,0,38,38,1,1,,,,,,,,,,,,,,,,,,,,,,,,,,,,
,,,,,V3_102,22,F,2025-02-04_16h01.12.091,jersey_experiment_5_v3,2023.2.2,Win32,85.47008547,,,,,,,,,,,,,,,,709.3239,710.6178,710.6178,711.9121,return,0.2185,,86.71875,,,,,,FBP-PT-19.png,0.45,1.2,30,0.5,,,,,,,,,,,,,0,39,39,29,1,,,,,,,,,,,,,,,,,,,,,,,,,,,,
,,,,,V3_102,22,F,2025-02-04_16h01.12.091,jersey_experiment_5_v3,2023.2.2,Win32,85.47008547,,,,,,,,,,,,,,,,711.9124,713.2061,713.2061,714.6652,return,0.1789,,38.15104167,,,,,,FBP-YG-91.png,0.35,1.2,11,0.5,,,,,,,,,,,,,0,40,40,10,1,,,,,,,,,,,,,,,,,,,,,,,,,,,,
,,,,,V3_102,22,F,2025-02-04_16h01.12.091,jersey_experiment_5_v3,2023.2.2,Win32,85.47008547,,,,,,,,,,,,,,,,714.6654,715.9594,715.9594,717.0888,return,0.2355,,87.36979167,,,,,,FBP-RB-18.png,0.45,1.2,55,0.5,,,,,,,,,,,,,0,41,41,54,1,,,,,,,,,,,,,,,,,,,,,,,,,,,,
,,,,,V3_102,22,F,2025-02-04_16h01.12.091,jersey_experiment_5_v3,2023.2.2,Win32,85.47008547,,,,,,,,,,,,,,,,717.0891,718.3828,718.383,719.9595,return,0.1484,,36.71875,,,,,,FBP-PT-17.png,0.37,1.2,17,0.5,,,,,,,,,,,,,0,42,42,16,1,,,,,,,,,,,,,,,,,,,,,,,,,,,,
,,,,,V3_102,22,F,2025-02-04_16h01.12.091,jersey_experiment_5_v3,2023.2.2,Win32,85.47008547,,,,,,,,,,,,,,,,719.9597,721.5124,721.5124,722.5242,return,0.2484,,51.04166667,,,,,,FBP-OG-18.png,0.4,1.2,38,0.75,,,,,,,,,,,,,0,43,43,37,1,,,,,,,,,,,,,,,,,,,,,,,,,,,,
,,,,,V3_102,22,F,2025-02-04_16h01.12.091,jersey_experiment_5_v3,2023.2.2,Win32,85.47008547,,,,,,,,,,,,,,,,722.5244,723.8183,723.8184,725.6654,return,0.157,,49.47916667,,,,,,FBP-PT-17.png,0.35,1.2,16,0.5,,,,,,,,,,,,,0,44,44,15,1,,,,,,,,,,,,,,,,,,,,,,,,,,,,
,,,,,V3_102,22,F,2025-02-04_16h01.12.091,jersey_experiment_5_v3,2023.2.2,Win32,85.47008547,,,,,,,,,,,,,,,,725.6656,726.9598,726.9598,728.6068,return,0.1804,,59.63541667,,,,,,FBP-YG-81.png,0.4,1.2,8,0.5,,,,,,,,,,,,,0,45,45,7,1,,,,,,,,,,,,,,,,,,,,,,,,,,,,
,,,,,V3_102,22,F,2025-02-04_16h01.12.091,jersey_experiment_5_v3,2023.2.2,Win32,85.47008547,,,,,,,,,,,,,,,,728.6071,729.901,729.9011,731.207,return,0.182,,76.43229167,,,,,,FBP-RB-17.png,0.43,1.2,49,0.5,,,,,,,,,,,,,0,46,46,48,1,,,,,,,,,,,,,,,,,,,,,,,,,,,,
,,,,,V3_102,22,F,2025-02-04_16h01.12.091,jersey_experiment_5_v3,2023.2.2,Win32,85.47008547,,,,,,,,,,,,,,,,731.2072,732.5011,732.5011,734.7482,return,0.1563,,57.03125,,,,,,FBP-YG-71.png,0.4,1.2,3,0.5,,,,,,,,,,,,,0,47,47,2,1,,,,,,,,,,,,,,,,,,,,,,,,,,,,
,,,,,V3_102,22,F,2025-02-04_16h01.12.091,jersey_experiment_5_v3,2023.2.2,Win32,85.47008547,,,,,,,,,,,,,,,,734.7484,736.0424,736.0424,737.4189,return,0.1301,,58.46354167,,,,,,FBP-RB-18.png,0.37,1.2,52,0.5,,,,,,,,,,,,,0,48,48,51,1,,,,,,,,,,,,,,,,,,,,,,,,,,,,
,,,,,V3_102,22,F,2025-02-04_16h01.12.091,jersey_experiment_5_v3,2023.2.2,Win32,85.47008547,,,,,,,,,,,,,,,,737.4193,738.9719,738.9719,740.1603,return,0.236,,78.77604167,,,,,,FBP-OG-19.png,0.45,1.2,45,0.75,,,,,,,,,,,,,0,49,49,44,1,,,,,,,,,,,,,,,,,,,,,,,,,,,,
,,,,,V3_102,22,F,2025-02-04_16h01.12.091,jersey_experiment_5_v3,2023.2.2,Win32,85.47008547,,,,,,,,,,,,,,,,740.1605,741.4544,741.4544,744.5133,return,1.2621,,61.84895833,,,,,,FBP-RB-19.png,0.37,1.2,57,0.5,,,,,,,,,,,,,0,50,50,56,1,,,,,,,,,,,,,,,,,,,,,,,,,,,,
,,,,,V3_102,22,F,2025-02-04_16h01.12.091,jersey_experiment_5_v3,2023.2.2,Win32,85.47008547,,,,,,,,,,,,,,,,744.5135,745.8074,745.8074,747.2429,return,0.1804,,75.390625,,,,,,FBP-YG-71.png,0.43,1.2,4,0.5,,,,,,,,,,,,,0,51,51,3,1,,,,,,,,,,,,,,,,,,,,,,,,,,,,
,,,,,V3_102,22,F,2025-02-04_16h01.12.091,jersey_experiment_5_v3,2023.2.2,Win32,85.47008547,,,,,,,,,,,,,,,,747.2431,748.537,748.5371,749.7723,return,0.1436,,49.86979167,,,,,,FBP-YG-71.png,0.35,1.2,1,0.5,,,,,,,,,,,,,0,52,52,0,1,,,,,,,,,,,,,,,,,,,,,,,,,,,,
,,,,,V3_102,22,F,2025-02-04_16h01.12.091,jersey_experiment_5_v3,2023.2.2,Win32,85.47008547,,,,,,,,,,,,,,,,749.7724,751.3254,751.3255,753.6077,return,1.2151,,39.58333333,,,,,,FBP-OG-17.png,0.35,1.2,31,0.75,,,,,,,,,,,,,0,53,53,30,1,,,,,,,,,,,,,,,,,,,,,,,,,,,,
,,,,,V3_102,22,F,2025-02-04_16h01.12.091,jersey_experiment_5_v3,2023.2.2,Win32,85.47008547,,,,,,,,,,,,,,,,753.608,754.9019,754.902,756.4078,return,0.1331,,29.296875,,,,,,FBP-RB-17.png,0.35,1.2,46,0.5,,,,,,,,,,,,,0,54,54,45,1,,,,,,,,,,,,,,,,,,,,,,,,,,,,
,,,,,V3_102,22,F,2025-02-04_16h01.12.091,jersey_experiment_5_v3,2023.2.2,Win32,85.47008547,,,,,,,,,,,,,,,,756.408,757.7022,757.7022,758.8433,return,0.1562,,58.33333333,,,,,,FBP-RB-19.png,0.4,1.2,58,0.5,,,,,,,,,,,,,0,55,55,57,1,,,,,,,,,,,,,,,,,,,,,,,,,,,,
,,,,,V3_102,22,F,2025-02-04_16h01.12.091,jersey_experiment_5_v3,2023.2.2,Win32,85.47008547,,,,,,,,,,,,,,,,758.8435,760.3964,760.3964,761.5493,return,0.2347,,76.69270833,,,,,,FBP-OG-18.png,0.43,1.2,39,0.75,,,,,,,,,,,,,0,56,56,38,1,,,,,,,,,,,,,,,,,,,,,,,,,,,,
,,,,,V3_102,22,F,2025-02-04_16h01.12.091,jersey_experiment_5_v3,2023.2.2,Win32,85.47008547,,,,,,,,,,,,,,,,761.5495,763.1024,763.1024,764.1375,return,0.2136,,94.01041667,,,,,,FBP-OG-17.png,0.45,1.2,35,0.75,,,,,,,,,,,,,0,57,57,34,1,,,,,,,,,,,,,,,,,,,,,,,,,,,,
,,,,,V3_102,22,F,2025-02-04_16h01.12.091,jersey_experiment_5_v3,2023.2.2,Win32,85.47008547,,,,,,,,,,,,,,,,764.1377,765.4317,765.4317,766.7261,return,0.1942,,52.21354167,,,,,,FBP-PT-18.png,0.37,1.2,22,0.5,,,,,,,,,,,,,0,58,58,21,1,,,,,,,,,,,,,,,,,,,,,,,,,,,,
,,,,,V3_102,22,F,2025-02-04_16h01.12.091,jersey_experiment_5_v3,2023.2.2,Win32,85.47008547,,,,,,,,,,,,,,,,766.7263,768.02,768.0201,769.279,return,0.1883,,63.02083333,,,,,,FBP-YG-91.png,0.4,1.2,13,0.5,,,,,,,,,,,,,0,59,59,12,1,,,,,,,,,,,,,,,,,,,,,,,,,,,,
,,,,,V3_102,22,F,2025-02-04_16h01.12.091,jersey_experiment_5_v3,2023.2.2,Win32,85.47008547,,,,,,,,,,,,,,,,769.2806,770.8321,770.8321,772.4085,return,0.203,,75.26041667,,,,,,FBP-OG-91.png,0.43,1.2,44,0.75,,,,,,,,,,,,,,,,,,0,0,0,43,1,,,,,,,,,,,,,,,,,,,,,,,
,,,,,V3_102,22,F,2025-02-04_16h01.12.091,jersey_experiment_5_v3,2023.2.2,Win32,85.47008547,,,,,,,,,,,,,,,,772.4087,773.7025,773.7025,775.0202,return,0.1437,,86.58854167,,,,,,FBP-YG-18.png,0.45,1.2,10,0.5,,,,,,,,,,,,,,,,,,0,1,1,9,1,,,,,,,,,,,,,,,,,,,,,,,
,,,,,V3_102,22,F,2025-02-04_16h01.12.091,jersey_experiment_5_v3,2023.2.2,Win32,85.47008547,,,,,,,,,,,,,,,,775.0206,776.3145,776.3145,778.2676,return,0.1054,,65.36458333,,,,,,FBP-YG-17.png,0.4,1.2,3,0.5,,,,,,,,,,,,,,,,,,0,2,2,2,1,,,,,,,,,,,,,,,,,,,,,,,
,,,,,V3_102,22,F,2025-02-04_16h01.12.091,jersey_experiment_5_v3,2023.2.2,Win32,85.47008547,,,,,,,,,,,,,,,,778.2677,779.8205,779.8206,780.9386,return,0.1341,,35.9375,,,,,,FBP-OG-71.png,0.35,1.2,31,0.75,,,,,,,,,,,,,,,,,,0,3,3,30,1,,,,,,,,,,,,,,,,,,,,,,,
,,,,,V3_102,22,F,2025-02-04_16h01.12.091,jersey_experiment_5_v3,2023.2.2,Win32,85.47008547,,,,,,,,,,,,,,,,780.9389,782.2324,782.2324,786.1383,return,0.1659,,50,,,,,,FBP-YG-17.png,0.37,1.2,2,0.5,,,,,,,,,,,,,,,,,,0,4,4,1,1,,,,,,,,,,,,,,,,,,,,,,,
,,,,,V3_102,22,F,2025-02-04_16h01.12.091,jersey_experiment_5_v3,2023.2.2,Win32,85.47008547,,,,,,,,,,,,,,,,786.1386,787.6916,787.6916,790.4797,return,1.5383,,72.91666667,,,,,,FBP-OG-81.png,0.43,1.2,39,0.75,,,,,,,,,,,,,,,,,,0,5,5,38,1,,,,,,,,,,,,,,,,,,,,,,,
,,,,,V3_102,22,F,2025-02-04_16h01.12.091,jersey_experiment_5_v3,2023.2.2,Win32,85.47008547,,,,,,,,,,,,,,,,790.4799,791.7739,791.774,794.974,return,1.3266,,27.734375,,,,,,FBP-PT-81.png,0.37,1.2,22,0.5,,,,,,,,,,,,,,,,,,0,6,6,21,1,,,,,,,,,,,,,,,,,,,,,,,
,,,,,V3_102,22,F,2025-02-04_16h01.12.091,jersey_experiment_5_v3,2023.2.2,Win32,85.47008547,,,,,,,,,,,,,,,,794.9743,796.2681,796.2681,798.3507,return,0.8237,,93.88020833,,,,,,FBP-PT-81.png,0.45,1.2,25,0.5,,,,,,,,,,,,,,,,,,0,7,7,24,1,,,,,,,,,,,,,,,,,,,,,,,
,,,,,V3_102,22,F,2025-02-04_16h01.12.091,jersey_experiment_5_v3,2023.2.2,Win32,85.47008547,,,,,,,,,,,,,,,,798.3509,799.6448,799.6449,802.0095,return,0.8521,,49.73958333,,,,,,FBP-RB-91.png,0.37,1.2,57,0.5,,,,,,,,,,,,,,,,,,0,8,8,56,1,,,,,,,,,,,,,,,,,,,,,,,
,,,,,V3_102,22,F,2025-02-04_16h01.12.091,jersey_experiment_5_v3,2023.2.2,Win32,85.47008547,,,,,,,,,,,,,,,,802.0096,803.3038,803.3039,807.4686,return,0.881,,99.609375,,,,,,FBP-RB-81.png,0.45,1.2,55,0.5,,,,,,,,,,,,,,,,,,0,9,9,54,1,,,,,,,,,,,,,,,,,,,,,,,
,,,,,V3_102,22,F,2025-02-04_16h01.12.091,jersey_experiment_5_v3,2023.2.2,Win32,85.47008547,,,,,,,,,,,,,,,,807.4689,808.7627,808.7628,811.0804,return,0.7003,,24.08854167,,,,,,FBP-RB-71.png,0.35,1.2,46,0.5,,,,,,,,,,,,,,,,,,0,10,10,45,1,,,,,,,,,,,,,,,,,,,,,,,
,,,,,V3_102,22,F,2025-02-04_16h01.12.091,jersey_experiment_5_v3,2023.2.2,Win32,85.47008547,,,,,,,,,,,,,,,,811.0807,812.3746,812.3747,813.9748,return,0.8039,,24.86979167,,,,,,FBP-PT-71.png,0.37,1.2,17,0.5,,,,,,,,,,,,,,,,,,0,11,11,16,1,,,,,,,,,,,,,,,,,,,,,,,
,,,,,V3_102,22,F,2025-02-04_16h01.12.091,jersey_experiment_5_v3,2023.2.2,Win32,85.47008547,,,,,,,,,,,,,,,,813.975,815.2689,815.269,817.1277,return,0.7481,,12.23958333,,,,,,FBP-RB-91.png,0.35,1.2,56,0.5,,,,,,,,,,,,,,,,,,0,12,12,55,1,,,,,,,,,,,,,,,,,,,,,,,
,,,,,V3_102,22,F,2025-02-04_16h01.12.091,jersey_experiment_5_v3,2023.2.2,Win32,85.47008547,,,,,,,,,,,,,,,,817.1279,818.422,818.4221,820.5279,return,1.0438,,62.109375,,,,,,FBP-YG-18.png,0.43,1.2,9,0.5,,,,,,,,,,,,,,,,,,0,13,13,8,1,,,,,,,,,,,,,,,,,,,,,,,
,,,,,V3_102,22,F,2025-02-04_16h01.12.091,jersey_experiment_5_v3,2023.2.2,Win32,85.47008547,,,,,,,,,,,,,,,,820.5281,821.8221,821.8222,823.481,return,0.6997,,49.73958333,,,,,,FBP-RB-71.png,0.37,1.2,47,0.5,,,,,,,,,,,,,,,,,,0,14,14,46,1,,,,,,,,,,,,,,,,,,,,,,,
,,,,,V3_102,22,F,2025-02-04_16h01.12.091,jersey_experiment_5_v3,2023.2.2,Win32,85.47008547,,,,,,,,,,,,,,,,823.4812,824.7752,824.7752,827.4812,return,1.5465,,66.92708333,,,,,,FBP-RB-81.png,0.4,1.2,53,0.5,,,,,,,,,,,,,,,,,,0,15,15,52,1,,,,,,,,,,,,,,,,,,,,,,,
,,,,,V3_102,22,F,2025-02-04_16h01.12.091,jersey_experiment_5_v3,2023.2.2,Win32,85.47008547,,,,,,,,,,,,,,,,827.4814,829.0342,829.0342,830.9048,return,0.7675,,74.86979167,,,,,,FBP-OG-71.png,0.45,1.2,35,0.75,,,,,,,,,,,,,,,,,,0,16,16,34,1,,,,,,,,,,,,,,,,,,,,,,,
,,,,,V3_102,22,F,2025-02-04_16h01.12.091,jersey_experiment_5_v3,2023.2.2,Win32,85.47008547,,,,,,,,,,,,,,,,830.9051,832.1988,832.1989,833.8226,return,0.659,,61.71875,,,,,,FBP-YG-18.png,0.35,1.2,6,0.5,,,,,,,,,,,,,,,,,,0,17,17,5,1,,,,,,,,,,,,,,,,,,,,,,,
,,,,,V3_102,22,F,2025-02-04_16h01.12.091,jersey_experiment_5_v3,2023.2.2,Win32,85.47008547,,,,,,,,,,,,,,,,833.8228,835.1167,835.1167,837.3404,return,0.6968,,72.65625,,,,,,FBP-YG-19.png,0.4,1.2,13,0.5,,,,,,,,,,,,,,,,,,0,18,18,12,1,,,,,,,,,,,,,,,,,,,,,,,
,,,,,V3_102,22,F,2025-02-04_16h01.12.091,jersey_experiment_5_v3,2023.2.2,Win32,85.47008547,,,,,,,,,,,,,,,,837.3406,838.6345,838.6345,840.6816,return,0.7699,,87.76041667,,,,,,FBP-RB-91.png,0.43,1.2,59,0.5,,,,,,,,,,,,,,,,,,0,19,19,58,1,,,,,,,,,,,,,,,,,,,,,,,
,,,,,V3_102,22,F,2025-02-04_16h01.12.091,jersey_experiment_5_v3,2023.2.2,Win32,85.47008547,,,,,,,,,,,,,,,,840.682,842.2347,842.2348,843.3759,return,0.6462,,87.890625,,,,,,FBP-OG-81.png,0.45,1.2,40,0.75,,,,,,,,,,,,,,,,,,0,20,20,39,1,,,,,,,,,,,,,,,,,,,,,,,
,,,,,V3_102,22,F,2025-02-04_16h01.12.091,jersey_experiment_5_v3,2023.2.2,Win32,85.47008547,,,,,,,,,,,,,,,,843.3761,844.67,844.6701,847.0465,return,0.7142,,61.19791667,,,,,,FBP-YG-17.png,0.35,1.2,1,0.5,,,,,,,,,,,,,,,,,,0,21,21,0,1,,,,,,,,,,,,,,,,,,,,,,,
,,,,,V3_102,22,F,2025-02-04_16h01.12.091,jersey_experiment_5_v3,2023.2.2,Win32,85.47008547,,,,,,,,,,,,,,,,847.0467,848.5997,848.5997,850.6702,return,0.6908,,38.93229167,,,,,,FBP-OG-81.png,0.35,1.2,36,0.75,,,,,,,,,,,,,,,,,,0,22,22,35,1,,,,,,,,,,,,,,,,,,,,,,,
,,,,,V3_102,22,F,2025-02-04_16h01.12.091,jersey_experiment_5_v3,2023.2.2,Win32,85.47008547,,,,,,,,,,,,,,,,850.6704,851.9643,851.9644,854.0115,return,0.6937,,75.390625,,,,,,FBP-RB-71.png,0.43,1.2,49,0.5,,,,,,,,,,,,,,,,,,0,23,23,48,1,,,,,,,,,,,,,,,,,,,,,,,
,,,,,V3_102,22,F,2025-02-04_16h01.12.091,jersey_experiment_5_v3,2023.2.2,Win32,85.47008547,,,,,,,,,,,,,,,,854.0117,855.3057,855.3057,857.1176,return,0.7305,,91.53645833,,,,,,FBP-YG-17.png,0.43,1.2,4,0.5,,,,,,,,,,,,,,,,,,0,24,24,3,1,,,,,,,,,,,,,,,,,,,,,,,
,,,,,V3_102,22,F,2025-02-04_16h01.12.091,jersey_experiment_5_v3,2023.2.2,Win32,85.47008547,,,,,,,,,,,,,,,,857.1178,858.4116,858.4116,859.8471,return,0.6772,,92.05729167,,,,,,FBP-PT-91.png,0.43,1.2,29,0.5,,,,,,,,,,,,,,,,,,0,25,25,28,1,,,,,,,,,,,,,,,,,,,,,,,
,,,,,V3_102,22,F,2025-02-04_16h01.12.091,jersey_experiment_5_v3,2023.2.2,Win32,85.47008547,,,,,,,,,,,,,,,,859.8473,861.1413,861.1413,862.2471,return,0.6192,,92.05729167,,,,,,FBP-PT-81.png,0.43,1.2,24,0.5,,,,,,,,,,,,,,,,,,0,26,26,23,1,,,,,,,,,,,,,,,,,,,,,,,
,,,,,V3_102,22,F,2025-02-04_16h01.12.091,jersey_experiment_5_v3,2023.2.2,Win32,85.47008547,,,,,,,,,,,,,,,,862.2474,863.5414,863.5414,865.3885,return,0.7065,,93.61979167,,,,,,FBP-YG-19.png,0.45,1.2,15,0.5,,,,,,,,,,,,,,,,,,0,27,27,14,1,,,,,,,,,,,,,,,,,,,,,,,
,,,,,V3_102,22,F,2025-02-04_16h01.12.091,jersey_experiment_5_v3,2023.2.2,Win32,85.47008547,,,,,,,,,,,,,,,,865.3887,866.9416,866.9416,868.9887,return,0.731,,19.66145833,,,,,,FBP-OG-91.png,0.35,1.2,41,0.75,,,,,,,,,,,,,,,,,,0,28,28,40,1,,,,,,,,,,,,,,,,,,,,,,,
,,,,,V3_102,22,F,2025-02-04_16h01.12.091,jersey_experiment_5_v3,2023.2.2,Win32,85.47008547,,,,,,,,,,,,,,,,868.9889,870.2828,870.2828,873.0005,return,0.6738,,69.79166667,,,,,,FBP-RB-71.png,0.4,1.2,48,0.5,,,,,,,,,,,,,,,,,,0,29,29,47,1,,,,,,,,,,,,,,,,,,,,,,,
,,,,,V3_102,22,F,2025-02-04_16h01.12.091,jersey_experiment_5_v3,2023.2.2,Win32,85.47008547,,,,,,,,,,,,,,,,873.0008,874.5536,874.5537,875.9183,return,0.6121,,99.73958333,,,,,,FBP-OG-91.png,0.45,1.2,45,0.75,,,,,,,,,,,,,,,,,,0,30,30,44,1,,,,,,,,,,,,,,,,,,,,,,,
,,,,,V3_102,22,F,2025-02-04_16h01.12.091,jersey_experiment_5_v3,2023.2.2,Win32,85.47008547,,,,,,,,,,,,,,,,875.9185,877.2123,877.2123,881.2596,return,0.8502,,63.54166667,,,,,,FBP-RB-81.png,0.35,1.2,51,0.5,,,,,,,,,,,,,,,,,,0,31,31,50,1,,,,,,,,,,,,,,,,,,,,,,,
,,,,,V3_102,22,F,2025-02-04_16h01.12.091,jersey_experiment_5_v3,2023.2.2,Win32,85.47008547,,,,,,,,,,,,,,,,881.2598,882.5539,882.5539,884.9186,return,0.773,,45.83333333,,,,,,FBP-PT-91.png,0.35,1.2,26,0.5,,,,,,,,,,,,,,,,,,0,32,32,25,1,,,,,,,,,,,,,,,,,,,,,,,
,,,,,V3_102,22,F,2025-02-04_16h01.12.091,jersey_experiment_5_v3,2023.2.2,Win32,85.47008547,,,,,,,,,,,,,,,,884.9188,886.4716,886.4717,890.3777,return,1.7909,,62.36979167,,,,,,FBP-OG-81.png,0.4,1.2,38,0.75,,,,,,,,,,,,,,,,,,0,33,33,37,1,,,,,,,,,,,,,,,,,,,,,,,
,,,,,V3_102,22,F,2025-02-04_16h01.12.091,jersey_experiment_5_v3,2023.2.2,Win32,85.47008547,,,,,,,,,,,,,,,,890.3779,891.6719,891.6719,894.766,return,0.7378,,66.92708333,,,,,,FBP-PT-71.png,0.43,1.2,19,0.5,,,,,,,,,,,,,,,,,,0,34,34,18,1,,,,,,,,,,,,,,,,,,,,,,,
,,,,,V3_102,22,F,2025-02-04_16h01.12.091,jersey_experiment_5_v3,2023.2.2,Win32,85.47008547,,,,,,,,,,,,,,,,894.7663,896.0602,896.0603,897.8014,return,0.7668,,75.390625,,,,,,FBP-RB-91.png,0.4,1.2,58,0.5,,,,,,,,,,,,,,,,,,0,35,35,57,1,,,,,,,,,,,,,,,,,,,,,,,
,,,,,V3_102,22,F,2025-02-04_16h01.12.091,jersey_experiment_5_v3,2023.2.2,Win32,85.47008547,,,,,,,,,,,,,,,,897.8017,899.0956,899.0957,902.0958,return,0.7685,,50.26041667,,,,,,FBP-PT-81.png,0.35,1.2,21,0.5,,,,,,,,,,,,,,,,,,0,36,36,20,1,,,,,,,,,,,,,,,,,,,,,,,
,,,,,V3_102,22,F,2025-02-04_16h01.12.091,jersey_experiment_5_v3,2023.2.2,Win32,85.47008547,,,,,,,,,,,,,,,,902.096,903.39,903.39,905.9783,return,1.028,,62.76041667,,,,,,FBP-PT-71.png,0.4,1.2,18,0.5,,,,,,,,,,,,,,,,,,0,37,37,17,1,,,,,,,,,,,,,,,,,,,,,,,
,,,,,V3_102,22,F,2025-02-04_16h01.12.091,jersey_experiment_5_v3,2023.2.2,Win32,85.47008547,,,,,,,,,,,,,,,,905.9785,907.2725,907.2725,909.0959,return,0.7362,,54.55729167,,,,,,FBP-YG-19.png,0.37,1.2,12,0.5,,,,,,,,,,,,,,,,,,0,38,38,11,1,,,,,,,,,,,,,,,,,,,,,,,
,,,,,V3_102,22,F,2025-02-04_16h01.12.091,jersey_experiment_5_v3,2023.2.2,Win32,85.47008547,,,,,,,,,,,,,,,,909.0963,910.3902,910.3902,912.4491,return,0.9779,,93.61979167,,,,,,FBP-YG-17.png,0.45,1.2,5,0.5,,,,,,,,,,,,,,,,,,0,39,39,4,1,,,,,,,,,,,,,,,,,,,,,,,
,,,,,V3_102,22,F,2025-02-04_16h01.12.091,jersey_experiment_5_v3,2023.2.2,Win32,85.47008547,,,,,,,,,,,,,,,,912.4494,914.0021,914.0022,917.3199,return,1.9715,,70.57291667,,,,,,FBP-OG-91.png,0.4,1.2,43,0.75,,,,,,,,,,,,,,,,,,0,40,40,42,1,,,,,,,,,,,,,,,,,,,,,,,
,,,,,V3_102,22,F,2025-02-04_16h01.12.091,jersey_experiment_5_v3,2023.2.2,Win32,85.47008547,,,,,,,,,,,,,,,,917.3202,918.6139,918.614,920.6729,return,0.7853,,72.91666667,,,,,,FBP-PT-91.png,0.4,1.2,28,0.5,,,,,,,,,,,,,,,,,,0,41,41,27,1,,,,,,,,,,,,,,,,,,,,,,,
,,,,,V3_102,22,F,2025-02-04_16h01.12.091,jersey_experiment_5_v3,2023.2.2,Win32,85.47008547,,,,,,,,,,,,,,,,920.6732,921.967,921.967,923.9435,return,0.7677,,51.69270833,,,,,,FBP-YG-18.png,0.37,1.2,7,0.5,,,,,,,,,,,,,,,,,,0,42,42,6,1,,,,,,,,,,,,,,,,,,,,,,,
,,,,,V3_102,22,F,2025-02-04_16h01.12.091,jersey_experiment_5_v3,2023.2.2,Win32,85.47008547,,,,,,,,,,,,,,,,923.9438,925.2377,925.2377,926.9672,return,0.6656,,46.74479167,,,,,,FBP-YG-19.png,0.35,1.2,11,0.5,,,,,,,,,,,,,,,,,,0,43,43,10,1,,,,,,,,,,,,,,,,,,,,,,,
,,,,,V3_102,22,F,2025-02-04_16h01.12.091,jersey_experiment_5_v3,2023.2.2,Win32,85.47008547,,,,,,,,,,,,,,,,926.9675,928.5202,928.5202,930.332,return,0.6858,,50.91145833,,,,,,FBP-OG-71.png,0.4,1.2,33,0.75,,,,,,,,,,,,,,,,,,0,44,44,32,1,,,,,,,,,,,,,,,,,,,,,,,
,,,,,V3_102,22,F,2025-02-04_16h01.12.091,jersey_experiment_5_v3,2023.2.2,Win32,85.47008547,,,,,,,,,,,,,,,,930.3324,931.8852,931.8852,933.5323,return,0.7053,,48.17708333,,,,,,FBP-OG-91.png,0.37,1.2,42,0.75,,,,,,,,,,,,,,,,,,0,45,45,41,1,,,,,,,,,,,,,,,,,,,,,,,
,,,,,V3_102,22,F,2025-02-04_16h01.12.091,jersey_experiment_5_v3,2023.2.2,Win32,85.47008547,,,,,,,,,,,,,,,,933.5326,934.8264,934.8264,937.5323,return,0.6974,,79.94791667,,,,,,FBP-PT-71.png,0.45,1.2,20,0.5,,,,,,,,,,,,,,,,,,0,46,46,19,1,,,,,,,,,,,,,,,,,,,,,,,
,,,,,V3_102,22,F,2025-02-04_16h01.12.091,jersey_experiment_5_v3,2023.2.2,Win32,85.47008547,,,,,,,,,,,,,,,,937.5326,938.8267,938.8267,940.7207,return,0.7158,,80.72916667,,,,,,FBP-YG-19.png,0.43,1.2,14,0.5,,,,,,,,,,,,,,,,,,0,47,47,13,1,,,,,,,,,,,,,,,,,,,,,,,
,,,,,V3_102,22,F,2025-02-04_16h01.12.091,jersey_experiment_5_v3,2023.2.2,Win32,85.47008547,,,,,,,,,,,,,,,,940.721,942.0148,942.0149,943.709,return,0.7077,,92.83854167,,,,,,FBP-RB-71.png,0.45,1.2,50,0.5,,,,,,,,,,,,,,,,,,0,48,48,49,1,,,,,,,,,,,,,,,,,,,,,,,
,,,,,V3_102,22,F,2025-02-04_16h01.12.091,jersey_experiment_5_v3,2023.2.2,Win32,85.47008547,,,,,,,,,,,,,,,,943.7093,945.2505,945.2506,947.2974,return,0.6976,,24.47916667,,,,,,FBP-OG-71.png,0.37,1.2,32,0.75,,,,,,,,,,,,,,,,,,0,49,49,31,1,,,,,,,,,,,,,,,,,,,,,,,
,,,,,V3_102,22,F,2025-02-04_16h01.12.091,jersey_experiment_5_v3,2023.2.2,Win32,85.47008547,,,,,,,,,,,,,,,,947.2977,948.5917,948.5917,951.4387,return,1.1454,,43.61979167,,,,,,FBP-RB-81.png,0.37,1.2,52,0.5,,,,,,,,,,,,,,,,,,0,50,50,51,1,,,,,,,,,,,,,,,,,,,,,,,
,,,,,V3_102,22,F,2025-02-04_16h01.12.091,jersey_experiment_5_v3,2023.2.2,Win32,85.47008547,,,,,,,,,,,,,,,,951.439,952.9918,952.9918,955.4506,return,0.6158,,32.421875,,,,,,FBP-OG-81.png,0.37,1.2,37,0.75,,,,,,,,,,,,,,,,,,0,51,51,36,1,,,,,,,,,,,,,,,,,,,,,,,
,,,,,V3_102,22,F,2025-02-04_16h01.12.091,jersey_experiment_5_v3,2023.2.2,Win32,85.47008547,,,,,,,,,,,,,,,,955.4509,956.7449,956.745,959.9685,return,2.0084,,55.078125,,,,,,FBP-YG-18.png,0.4,1.2,8,0.5,,,,,,,,,,,,,,,,,,0,52,52,7,1,,,,,,,,,,,,,,,,,,,,,,,
,,,,,V3_102,22,F,2025-02-04_16h01.12.091,jersey_experiment_5_v3,2023.2.2,Win32,85.47008547,,,,,,,,,,,,,,,,959.9686,961.2626,961.2627,963.0629,return,0.7096,,73.046875,,,,,,FBP-RB-81.png,0.43,1.2,54,0.5,,,,,,,,,,,,,,,,,,0,53,53,53,1,,,,,,,,,,,,,,,,,,,,,,,
,,,,,V3_102,22,F,2025-02-04_16h01.12.091,jersey_experiment_5_v3,2023.2.2,Win32,85.47008547,,,,,,,,,,,,,,,,963.0631,964.3569,964.357,965.91,return,0.6559,,88.41145833,,,,,,FBP-PT-91.png,0.45,1.2,30,0.5,,,,,,,,,,,,,,,,,,0,54,54,29,1,,,,,,,,,,,,,,,,,,,,,,,
,,,,,V3_102,22,F,2025-02-04_16h01.12.091,jersey_experiment_5_v3,2023.2.2,Win32,85.47008547,,,,,,,,,,,,,,,,965.9102,967.2041,967.2041,969.1099,return,0.6644,,53.38541667,,,,,,FBP-PT-81.png,0.4,1.2,23,0.5,,,,,,,,,,,,,,,,,,0,55,55,22,1,,,,,,,,,,,,,,,,,,,,,,,
,,,,,V3_102,22,F,2025-02-04_16h01.12.091,jersey_experiment_5_v3,2023.2.2,Win32,85.47008547,,,,,,,,,,,,,,,,969.1101,970.4044,970.4045,972.1924,return,0.7687,,24.34895833,,,,,,FBP-PT-71.png,0.35,1.2,16,0.5,,,,,,,,,,,,,,,,,,0,56,56,15,1,,,,,,,,,,,,,,,,,,,,,,,
,,,,,V3_102,22,F,2025-02-04_16h01.12.091,jersey_experiment_5_v3,2023.2.2,Win32,85.47008547,,,,,,,,,,,,,,,,972.1927,973.4866,973.4866,975.5456,return,0.7113,,82.94270833,,,,,,FBP-RB-91.png,0.45,1.2,60,0.5,,,,,,,,,,,,,,,,,,0,57,57,59,1,,,,,,,,,,,,,,,,,,,,,,,
,,,,,V3_102,22,F,2025-02-04_16h01.12.091,jersey_experiment_5_v3,2023.2.2,Win32,85.47008547,,,,,,,,,,,,,,,,975.5459,976.8396,976.8397,978.7103,return,0.7106,,33.46354167,,,,,,FBP-PT-91.png,0.37,1.2,27,0.5,,,,,,,,,,,,,,,,,,0,58,58,26,1,,,,,,,,,,,,,,,,,,,,,,,
,,,,,V3_102,22,F,2025-02-04_16h01.12.091,jersey_experiment_5_v3,2023.2.2,Win32,85.47008547,,,,,,,,,,,,,,,,978.7106,980.2636,980.2636,981.9928,return,0.853,,72.39583333,,,,,,FBP-OG-71.png,0.43,1.2,34,0.75,,,,,,,,,,,,,,,,,,0,59,59,33,1,,,,,,,,,,,,,,,,,,,,,,,
,,,,,V3_102,22,F,2025-02-04_16h01.12.091,jersey_experiment_5_v3,2023.2.2,Win32,85.47008547,,,,,,,,,,,,,,,,,,,,,,,,,,,,,,,,,,,,,,,,,,,,,,,,,,,,,,,,981.9931,989.911,return,7.9109,,,,,,,,,,,,,,,,,,,
,,,,,V3_102,22,F,2025-02-04_16h01.12.091,jersey_experiment_5_v3,2023.2.2,Win32,85.47008547,,,,,,,,,,,,,,,,,,,,,,,,,,,,,,,,,,,,,,,,,,,,,,,,,,,,,,,,,,,,,989.9112,999.3232,1,8.0065,return,1.3884,,,,,,,,,,,,
,,,,,V3_102,22,F,2025-02-04_16h01.12.091,jersey_experiment_5_v3,2023.2.2,Win32,85.47008547,,,,,,,,,,,,,,,,,,,,,,,,,,,,,,,,,,,,,,,,,,,,,,,,,,,,,,,,,,,,,,,,,,,,999.3233,1082.2564,"I have no idea what the study is about, but I noticed that the features being changed between trials were body size, skin color, jersey color, and jersey number. I thought that maybe there was a pattern with the jersey numbers but I wasn't sure.",right,72.8342,,,,,,
,,,,,V3_102,22,F,2025-02-04_16h01.12.091,jersey_experiment_5_v3,2023.2.2,Win32,85.47008547,,,,,,,,,,,,,,,,,,,,,,,,,,,,,,,,,,,,,,,,,,,,,,,,,,,,,,,,,,,,,,,,,,,,,,,,,,1082.2565,1087.6912,return,5.424,