requirements.started,requirements.stopped,key_resp_3.keys,key_resp_3.rt,key_resp_3.duration,Subject ID,Age,Gender,date,expName,psychopyVersion,OS,frameRate,instructions1.started,instructions1.stopped,key_resp.keys,key_resp.rt,key_resp.duration,example.started,example.stopped,enter_2.keys,enter_2.rt,enter_2.duration,instructions2.started,instructions2.stopped,enter_3.keys,enter_3.rt,enter_3.duration,image.started,image.stopped,slider_2.started,slider_2.stopped,next.keys,next.rt,next.duration,slider.response,trial_block_1.thisRepN,trial_block_1.thisTrialN,trial_block_1.thisN,trial_block_1.thisIndex,trial_block_1.ran,Path,Width,Height,Index,Duration,trial_block_2.thisRepN,trial_block_2.thisTrialN,trial_block_2.thisN,trial_block_2.thisIndex,trial_block_2.ran,rest_break.started,rest_break.stopped,end_break.started,end_break.stopped,key_resp_5.keys,key_resp_5.rt,key_resp_5.duration,trial_block_3.thisRepN,trial_block_3.thisTrialN,trial_block_3.thisN,trial_block_3.thisIndex,trial_block_3.ran,trial_block_4.thisRepN,trial_block_4.thisTrialN,trial_block_4.thisN,trial_block_4.thisIndex,trial_block_4.ran,questions_intro.started,questions_intro.stopped,enter_12.keys,enter_12.rt,enter_12.duration,question2.started,question2.stopped,question_doingbest.response,question_doingbest.rt,enter_15.keys,enter_15.rt,enter_15.duration,pattern.started,pattern.stopped,pattern_2.text,enter_17.keys,enter_17.rt,enter_17.duration,thankyou.started,thankyou.stopped,enter_14.keys,enter_14.rt,enter_14.duration
0,7.0449,return,7.0385,,V3_101,23,M,2025-02-04_15h28.55.338,jersey_experiment_5_v3,2023.2.2,Win32,84.74576271,,,,,,,,,,,,,,,,,,,,,,,,,,,,,,,,,,,,,,,,,,,,,,,,,,,,,,,,,,,,,,,,,,,,,,,,,,,,,,
,,,,,V3_101,23,M,2025-02-04_15h28.55.338,jersey_experiment_5_v3,2023.2.2,Win32,84.74576271,7.045,22.5367,return,15.4833,,,,,,,,,,,,,,,,,,,,,,,,,,,,,,,,,,,,,,,,,,,,,,,,,,,,,,,,,,,,,,,,,,,,,,,,,,
,,,,,V3_101,23,M,2025-02-04_15h28.55.338,jersey_experiment_5_v3,2023.2.2,Win32,84.74576271,,,,,,22.5367,30.9099,return,8.3502,,,,,,,,,,,,,,,,,,,,,,,,,,,,,,,,,,,,,,,,,,,,,,,,,,,,,,,,,,,,,,,,,,,,,
,,,,,V3_101,23,M,2025-02-04_15h28.55.338,jersey_experiment_5_v3,2023.2.2,Win32,84.74576271,,,,,,,,,,,30.91,44.4563,return,13.5282,,,,,,,,,,,,,,,,,,,,,,,,,,,,,,,,,,,,,,,,,,,,,,,,,,,,,,,,,,,,,,,,
,,,,,V3_101,23,M,2025-02-04_15h28.55.338,jersey_experiment_5_v3,2023.2.2,Win32,84.74576271,,,,,,,,,,,,,,,,44.4583,46.0044,46.0045,60.6085,return,8.4008,,86.84895833,0,0,0,22,1,FBP-PT-18.png,0.4,1.2,23,0.75,,,,,,,,,,,,,,,,,,,,,,,,,,,,,,,,,,,,,,,,,,,,,
,,,,,V3_101,23,M,2025-02-04_15h28.55.338,jersey_experiment_5_v3,2023.2.2,Win32,84.74576271,,,,,,,,,,,,,,,,60.6086,62.1614,62.1614,64.9267,return,0.9539,,87.23958333,0,1,1,18,1,FBP-PT-17.png,0.43,1.2,19,0.75,,,,,,,,,,,,,,,,,,,,,,,,,,,,,,,,,,,,,,,,,,,,,
,,,,,V3_101,23,M,2025-02-04_15h28.55.338,jersey_experiment_5_v3,2023.2.2,Win32,84.74576271,,,,,,,,,,,,,,,,64.9269,66.4821,66.4821,70.7498,return,1.8701,,86.328125,0,2,2,57,1,FBP-RB-19.png,0.4,1.2,58,0.75,,,,,,,,,,,,,,,,,,,,,,,,,,,,,,,,,,,,,,,,,,,,,
,,,,,V3_101,23,M,2025-02-04_15h28.55.338,jersey_experiment_5_v3,2023.2.2,Win32,84.74576271,,,,,,,,,,,,,,,,70.7499,72.3028,72.3028,75.5887,return,1.1557,,87.23958333,0,3,3,56,1,FBP-RB-19.png,0.37,1.2,57,0.75,,,,,,,,,,,,,,,,,,,,,,,,,,,,,,,,,,,,,,,,,,,,,
,,,,,V3_101,23,M,2025-02-04_15h28.55.338,jersey_experiment_5_v3,2023.2.2,Win32,84.74576271,,,,,,,,,,,,,,,,75.5889,77.135,77.135,80.068,return,0.6938,,90.75520833,0,4,4,20,1,FBP-PT-18.png,0.35,1.2,21,0.75,,,,,,,,,,,,,,,,,,,,,,,,,,,,,,,,,,,,,,,,,,,,,
,,,,,V3_101,23,M,2025-02-04_15h28.55.338,jersey_experiment_5_v3,2023.2.2,Win32,84.74576271,,,,,,,,,,,,,,,,80.0682,81.6208,81.6208,86.6567,return,2.6124,,87.890625,0,5,5,25,1,FBP-PT-19.png,0.35,1.2,26,0.75,,,,,,,,,,,,,,,,,,,,,,,,,,,,,,,,,,,,,,,,,,,,,
,,,,,V3_101,23,M,2025-02-04_15h28.55.338,jersey_experiment_5_v3,2023.2.2,Win32,84.74576271,,,,,,,,,,,,,,,,86.6568,87.9504,87.9504,94.1238,return,4.2642,,93.09895833,0,6,6,41,1,FBP-OG-19.png,0.37,1.2,42,0.5,,,,,,,,,,,,,,,,,,,,,,,,,,,,,,,,,,,,,,,,,,,,,
,,,,,V3_101,23,M,2025-02-04_15h28.55.338,jersey_experiment_5_v3,2023.2.2,Win32,84.74576271,,,,,,,,,,,,,,,,94.124,95.6807,95.6808,100.8127,return,3.1913,,88.15104167,0,7,7,51,1,FBP-RB-18.png,0.37,1.2,52,0.75,,,,,,,,,,,,,,,,,,,,,,,,,,,,,,,,,,,,,,,,,,,,,
,,,,,V3_101,23,M,2025-02-04_15h28.55.338,jersey_experiment_5_v3,2023.2.2,Win32,84.74576271,,,,,,,,,,,,,,,,100.8128,102.3595,102.3596,104.5596,return,0.7454,,90.234375,0,8,8,6,1,FBP-YG-81.png,0.37,1.2,7,0.75,,,,,,,,,,,,,,,,,,,,,,,,,,,,,,,,,,,,,,,,,,,,,
,,,,,V3_101,23,M,2025-02-04_15h28.55.338,jersey_experiment_5_v3,2023.2.2,Win32,84.74576271,,,,,,,,,,,,,,,,104.5598,106.1157,106.1157,107.9043,return,0.5416,,98.828125,0,9,9,24,1,FBP-PT-18.png,0.45,1.2,25,0.75,,,,,,,,,,,,,,,,,,,,,,,,,,,,,,,,,,,,,,,,,,,,,
,,,,,V3_101,23,M,2025-02-04_15h28.55.338,jersey_experiment_5_v3,2023.2.2,Win32,84.74576271,,,,,,,,,,,,,,,,107.9044,109.1982,109.1983,111.8186,return,0.6888,,79.81770833,0,10,10,40,1,FBP-OG-19.png,0.35,1.2,41,0.5,,,,,,,,,,,,,,,,,,,,,,,,,,,,,,,,,,,,,,,,,,,,,
,,,,,V3_101,23,M,2025-02-04_15h28.55.338,jersey_experiment_5_v3,2023.2.2,Win32,84.74576271,,,,,,,,,,,,,,,,111.8188,113.363,113.363,117.152,return,2.4588,,93.359375,0,11,11,12,1,FBP-YG-91.png,0.4,1.2,13,0.75,,,,,,,,,,,,,,,,,,,,,,,,,,,,,,,,,,,,,,,,,,,,,
,,,,,V3_101,23,M,2025-02-04_15h28.55.338,jersey_experiment_5_v3,2023.2.2,Win32,84.74576271,,,,,,,,,,,,,,,,117.1521,118.7048,118.7048,120.4459,return,0.5883,,98.828125,0,12,12,29,1,FBP-PT-19.png,0.45,1.2,30,0.75,,,,,,,,,,,,,,,,,,,,,,,,,,,,,,,,,,,,,,,,,,,,,
,,,,,V3_101,23,M,2025-02-04_15h28.55.338,jersey_experiment_5_v3,2023.2.2,Win32,84.74576271,,,,,,,,,,,,,,,,120.446,121.7397,121.7398,123.3527,return,0.5776,,98.828125,0,13,13,42,1,FBP-OG-19.png,0.4,1.2,43,0.5,,,,,,,,,,,,,,,,,,,,,,,,,,,,,,,,,,,,,,,,,,,,,
,,,,,V3_101,23,M,2025-02-04_15h28.55.338,jersey_experiment_5_v3,2023.2.2,Win32,84.74576271,,,,,,,,,,,,,,,,123.3527,124.9079,124.9079,128.6343,return,2.3533,,69.27083333,0,14,14,45,1,FBP-RB-17.png,0.35,1.2,46,0.75,,,,,,,,,,,,,,,,,,,,,,,,,,,,,,,,,,,,,,,,,,,,,
,,,,,V3_101,23,M,2025-02-04_15h28.55.338,jersey_experiment_5_v3,2023.2.2,Win32,84.74576271,,,,,,,,,,,,,,,,128.6344,130.184,130.1841,132.1641,return,0.6207,,88.02083333,0,15,15,7,1,FBP-YG-81.png,0.4,1.2,8,0.75,,,,,,,,,,,,,,,,,,,,,,,,,,,,,,,,,,,,,,,,,,,,,
,,,,,V3_101,23,M,2025-02-04_15h28.55.338,jersey_experiment_5_v3,2023.2.2,Win32,84.74576271,,,,,,,,,,,,,,,,132.1642,133.7166,133.7167,135.3724,return,0.5926,,90.625,0,16,16,26,1,FBP-PT-19.png,0.37,1.2,27,0.75,,,,,,,,,,,,,,,,,,,,,,,,,,,,,,,,,,,,,,,,,,,,,
,,,,,V3_101,23,M,2025-02-04_15h28.55.338,jersey_experiment_5_v3,2023.2.2,Win32,84.74576271,,,,,,,,,,,,,,,,135.3727,136.9255,136.9255,138.765,return,0.5389,,99.609375,0,17,17,49,1,FBP-RB-17.png,0.45,1.2,50,0.75,,,,,,,,,,,,,,,,,,,,,,,,,,,,,,,,,,,,,,,,,,,,,
,,,,,V3_101,23,M,2025-02-04_15h28.55.338,jersey_experiment_5_v3,2023.2.2,Win32,84.74576271,,,,,,,,,,,,,,,,138.7652,140.3202,140.3202,142.9554,return,1.262,,92.05729167,0,18,18,46,1,FBP-RB-17.png,0.37,1.2,47,0.75,,,,,,,,,,,,,,,,,,,,,,,,,,,,,,,,,,,,,,,,,,,,,
,,,,,V3_101,23,M,2025-02-04_15h28.55.338,jersey_experiment_5_v3,2023.2.2,Win32,84.74576271,,,,,,,,,,,,,,,,142.9556,144.5022,144.5022,147.6469,return,0.6827,,99.86979167,0,19,19,59,1,FBP-RB-19.png,0.45,1.2,60,0.75,,,,,,,,,,,,,,,,,,,,,,,,,,,,,,,,,,,,,,,,,,,,,
,,,,,V3_101,23,M,2025-02-04_15h28.55.338,jersey_experiment_5_v3,2023.2.2,Win32,84.74576271,,,,,,,,,,,,,,,,147.647,149.1912,149.1912,153.3411,return,2.8709,,89.32291667,0,20,20,11,1,FBP-YG-91.png,0.37,1.2,12,0.75,,,,,,,,,,,,,,,,,,,,,,,,,,,,,,,,,,,,,,,,,,,,,
,,,,,V3_101,23,M,2025-02-04_15h28.55.338,jersey_experiment_5_v3,2023.2.2,Win32,84.74576271,,,,,,,,,,,,,,,,153.3413,154.6349,154.635,156.9799,return,0.6506,,99.73958333,0,21,21,44,1,FBP-OG-19.png,0.45,1.2,45,0.5,,,,,,,,,,,,,,,,,,,,,,,,,,,,,,,,,,,,,,,,,,,,,
,,,,,V3_101,23,M,2025-02-04_15h28.55.338,jersey_experiment_5_v3,2023.2.2,Win32,84.74576271,,,,,,,,,,,,,,,,156.98,158.2739,158.274,161.1299,return,1.5384,,94.66145833,0,22,22,32,1,FBP-OG-17.png,0.4,1.2,33,0.5,,,,,,,,,,,,,,,,,,,,,,,,,,,,,,,,,,,,,,,,,,,,,
,,,,,V3_101,23,M,2025-02-04_15h28.55.338,jersey_experiment_5_v3,2023.2.2,Win32,84.74576271,,,,,,,,,,,,,,,,161.13,162.4237,162.4237,164.7685,return,0.6146,,99.34895833,0,23,23,33,1,FBP-OG-17.png,0.43,1.2,34,0.5,,,,,,,,,,,,,,,,,,,,,,,,,,,,,,,,,,,,,,,,,,,,,
,,,,,V3_101,23,M,2025-02-04_15h28.55.338,jersey_experiment_5_v3,2023.2.2,Win32,84.74576271,,,,,,,,,,,,,,,,164.7686,166.0712,166.0712,168.4475,return,0.8,,87.63020833,0,24,24,36,1,FBP-OG-18.png,0.37,1.2,37,0.5,,,,,,,,,,,,,,,,,,,,,,,,,,,,,,,,,,,,,,,,,,,,,
,,,,,V3_101,23,M,2025-02-04_15h28.55.338,jersey_experiment_5_v3,2023.2.2,Win32,84.74576271,,,,,,,,,,,,,,,,168.4476,169.9896,169.9896,172.8147,return,1.6144,,70.44270833,0,25,25,10,1,FBP-YG-91.png,0.35,1.2,11,0.75,,,,,,,,,,,,,,,,,,,,,,,,,,,,,,,,,,,,,,,,,,,,,
,,,,,V3_101,23,M,2025-02-04_15h28.55.338,jersey_experiment_5_v3,2023.2.2,Win32,84.74576271,,,,,,,,,,,,,,,,172.8148,174.1086,174.1087,176.2361,return,0.565,,91.015625,0,26,26,37,1,FBP-OG-18.png,0.4,1.2,38,0.5,,,,,,,,,,,,,,,,,,,,,,,,,,,,,,,,,,,,,,,,,,,,,
,,,,,V3_101,23,M,2025-02-04_15h28.55.338,jersey_experiment_5_v3,2023.2.2,Win32,84.74576271,,,,,,,,,,,,,,,,176.2363,177.7781,177.7781,179.6094,return,0.6279,,76.953125,0,27,27,0,1,FBP-YG-71.png,0.35,1.2,1,0.75,,,,,,,,,,,,,,,,,,,,,,,,,,,,,,,,,,,,,,,,,,,,,
,,,,,V3_101,23,M,2025-02-04_15h28.55.338,jersey_experiment_5_v3,2023.2.2,Win32,84.74576271,,,,,,,,,,,,,,,,179.6097,180.9077,180.9077,182.3307,return,0.6231,,83.46354167,0,28,28,35,1,FBP-OG-18.png,0.35,1.2,36,0.5,,,,,,,,,,,,,,,,,,,,,,,,,,,,,,,,,,,,,,,,,,,,,
,,,,,V3_101,23,M,2025-02-04_15h28.55.338,jersey_experiment_5_v3,2023.2.2,Win32,84.74576271,,,,,,,,,,,,,,,,182.3308,183.6247,183.6247,185.0514,return,0.5673,,92.96875,0,29,29,43,1,FBP-OG-19.png,0.43,1.2,44,0.5,,,,,,,,,,,,,,,,,,,,,,,,,,,,,,,,,,,,,,,,,,,,,
,,,,,V3_101,23,M,2025-02-04_15h28.55.338,jersey_experiment_5_v3,2023.2.2,Win32,84.74576271,,,,,,,,,,,,,,,,185.0516,186.6019,186.6019,187.9694,return,0.886,,100,0,30,30,54,1,FBP-RB-18.png,0.45,1.2,55,0.75,,,,,,,,,,,,,,,,,,,,,,,,,,,,,,,,,,,,,,,,,,,,,
,,,,,V3_101,23,M,2025-02-04_15h28.55.338,jersey_experiment_5_v3,2023.2.2,Win32,84.74576271,,,,,,,,,,,,,,,,187.9695,189.5198,189.5199,191.0839,return,0.8474,,81.38020833,0,31,31,52,1,FBP-RB-18.png,0.4,1.2,53,0.75,,,,,,,,,,,,,,,,,,,,,,,,,,,,,,,,,,,,,,,,,,,,,
,,,,,V3_101,23,M,2025-02-04_15h28.55.338,jersey_experiment_5_v3,2023.2.2,Win32,84.74576271,,,,,,,,,,,,,,,,191.084,192.6369,192.6369,194.81,return,1.5215,,81.640625,0,32,32,1,1,FBP-YG-71.png,0.37,1.2,2,0.75,,,,,,,,,,,,,,,,,,,,,,,,,,,,,,,,,,,,,,,,,,,,,
,,,,,V3_101,23,M,2025-02-04_15h28.55.338,jersey_experiment_5_v3,2023.2.2,Win32,84.74576271,,,,,,,,,,,,,,,,194.8103,196.3695,196.3695,199.0219,return,0.9293,,78.64583333,0,33,33,50,1,FBP-RB-18.png,0.35,1.2,51,0.75,,,,,,,,,,,,,,,,,,,,,,,,,,,,,,,,,,,,,,,,,,,,,
,,,,,V3_101,23,M,2025-02-04_15h28.55.338,jersey_experiment_5_v3,2023.2.2,Win32,84.74576271,,,,,,,,,,,,,,,,199.0222,200.5664,200.5664,202.3675,return,0.5304,,94.921875,0,34,34,3,1,FBP-YG-71.png,0.43,1.2,4,0.75,,,,,,,,,,,,,,,,,,,,,,,,,,,,,,,,,,,,,,,,,,,,,
,,,,,V3_101,23,M,2025-02-04_15h28.55.338,jersey_experiment_5_v3,2023.2.2,Win32,84.74576271,,,,,,,,,,,,,,,,202.3676,203.6727,203.6728,205.5551,return,0.5292,,95.57291667,0,35,35,38,1,FBP-OG-18.png,0.43,1.2,39,0.5,,,,,,,,,,,,,,,,,,,,,,,,,,,,,,,,,,,,,,,,,,,,,
,,,,,V3_101,23,M,2025-02-04_15h28.55.338,jersey_experiment_5_v3,2023.2.2,Win32,84.74576271,,,,,,,,,,,,,,,,205.5552,207.1081,207.1081,208.3935,return,0.5327,,100,0,36,36,14,1,FBP-YG-91.png,0.45,1.2,15,0.75,,,,,,,,,,,,,,,,,,,,,,,,,,,,,,,,,,,,,,,,,,,,,
,,,,,V3_101,23,M,2025-02-04_15h28.55.338,jersey_experiment_5_v3,2023.2.2,Win32,84.74576271,,,,,,,,,,,,,,,,208.3937,209.6962,209.6962,212.14,return,1.24,,78.90625,0,37,37,31,1,FBP-OG-17.png,0.37,1.2,32,0.5,,,,,,,,,,,,,,,,,,,,,,,,,,,,,,,,,,,,,,,,,,,,,
,,,,,V3_101,23,M,2025-02-04_15h28.55.338,jersey_experiment_5_v3,2023.2.2,Win32,84.74576271,,,,,,,,,,,,,,,,212.1402,213.6963,213.6963,215.8697,return,1.283,,86.328125,0,38,38,21,1,FBP-PT-18.png,0.37,1.2,22,0.75,,,,,,,,,,,,,,,,,,,,,,,,,,,,,,,,,,,,,,,,,,,,,
,,,,,V3_101,23,M,2025-02-04_15h28.55.338,jersey_experiment_5_v3,2023.2.2,Win32,84.74576271,,,,,,,,,,,,,,,,215.8698,217.4142,217.4142,219.4851,return,0.8712,,95.703125,0,39,39,13,1,FBP-YG-91.png,0.43,1.2,14,0.75,,,,,,,,,,,,,,,,,,,,,,,,,,,,,,,,,,,,,,,,,,,,,
,,,,,V3_101,23,M,2025-02-04_15h28.55.338,jersey_experiment_5_v3,2023.2.2,Win32,84.74576271,,,,,,,,,,,,,,,,219.4853,221.0284,221.0285,223.5792,return,0.5884,,96.484375,0,40,40,58,1,FBP-RB-19.png,0.43,1.2,59,0.75,,,,,,,,,,,,,,,,,,,,,,,,,,,,,,,,,,,,,,,,,,,,,
,,,,,V3_101,23,M,2025-02-04_15h28.55.338,jersey_experiment_5_v3,2023.2.2,Win32,84.74576271,,,,,,,,,,,,,,,,223.5794,225.1233,225.1233,226.8168,return,0.565,,78.64583333,0,41,41,16,1,FBP-PT-17.png,0.37,1.2,17,0.75,,,,,,,,,,,,,,,,,,,,,,,,,,,,,,,,,,,,,,,,,,,,,
,,,,,V3_101,23,M,2025-02-04_15h28.55.338,jersey_experiment_5_v3,2023.2.2,Win32,84.74576271,,,,,,,,,,,,,,,,226.8169,228.3642,228.3642,230.3878,return,0.8947,,63.15104167,0,42,42,15,1,FBP-PT-17.png,0.35,1.2,16,0.75,,,,,,,,,,,,,,,,,,,,,,,,,,,,,,,,,,,,,,,,,,,,,
,,,,,V3_101,23,M,2025-02-04_15h28.55.338,jersey_experiment_5_v3,2023.2.2,Win32,84.74576271,,,,,,,,,,,,,,,,230.388,231.9407,231.9408,233.5685,return,0.507,,87.23958333,0,43,43,17,1,FBP-PT-17.png,0.4,1.2,18,0.75,,,,,,,,,,,,,,,,,,,,,,,,,,,,,,,,,,,,,,,,,,,,,
,,,,,V3_101,23,M,2025-02-04_15h28.55.338,jersey_experiment_5_v3,2023.2.2,Win32,84.74576271,,,,,,,,,,,,,,,,233.5686,235.1174,235.1175,236.521,return,0.5034,,94.66145833,0,44,44,9,1,FBP-YG-81.png,0.45,1.2,10,0.75,,,,,,,,,,,,,,,,,,,,,,,,,,,,,,,,,,,,,,,,,,,,,
,,,,,V3_101,23,M,2025-02-04_15h28.55.338,jersey_experiment_5_v3,2023.2.2,Win32,84.74576271,,,,,,,,,,,,,,,,236.5211,238.0705,238.0705,239.5325,return,0.5525,,99.47916667,0,45,45,4,1,FBP-YG-71.png,0.45,1.2,5,0.75,,,,,,,,,,,,,,,,,,,,,,,,,,,,,,,,,,,,,,,,,,,,,
,,,,,V3_101,23,M,2025-02-04_15h28.55.338,jersey_experiment_5_v3,2023.2.2,Win32,84.74576271,,,,,,,,,,,,,,,,239.5327,240.827,240.8271,242.7005,return,1.0738,,100,0,46,46,39,1,FBP-OG-18.png,0.45,1.2,40,0.5,,,,,,,,,,,,,,,,,,,,,,,,,,,,,,,,,,,,,,,,,,,,,
,,,,,V3_101,23,M,2025-02-04_15h28.55.338,jersey_experiment_5_v3,2023.2.2,Win32,84.74576271,,,,,,,,,,,,,,,,242.7007,244.2534,244.2535,245.7127,return,0.544,,91.27604167,0,47,47,53,1,FBP-RB-18.png,0.43,1.2,54,0.75,,,,,,,,,,,,,,,,,,,,,,,,,,,,,,,,,,,,,,,,,,,,,
,,,,,V3_101,23,M,2025-02-04_15h28.55.338,jersey_experiment_5_v3,2023.2.2,Win32,84.74576271,,,,,,,,,,,,,,,,245.7128,247.2589,247.259,248.8356,return,0.518,,93.359375,0,48,48,2,1,FBP-YG-71.png,0.4,1.2,3,0.75,,,,,,,,,,,,,,,,,,,,,,,,,,,,,,,,,,,,,,,,,,,,,
,,,,,V3_101,23,M,2025-02-04_15h28.55.338,jersey_experiment_5_v3,2023.2.2,Win32,84.74576271,,,,,,,,,,,,,,,,248.8358,250.1362,250.1362,251.5099,return,0.6208,,100,0,49,49,34,1,FBP-OG-17.png,0.45,1.2,35,0.5,,,,,,,,,,,,,,,,,,,,,,,,,,,,,,,,,,,,,,,,,,,,,
,,,,,V3_101,23,M,2025-02-04_15h28.55.338,jersey_experiment_5_v3,2023.2.2,Win32,84.74576271,,,,,,,,,,,,,,,,251.5101,253.0626,253.0626,255.7688,return,1.3998,,40.234375,0,50,50,55,1,FBP-RB-19.png,0.35,1.2,56,0.75,,,,,,,,,,,,,,,,,,,,,,,,,,,,,,,,,,,,,,,,,,,,,
,,,,,V3_101,23,M,2025-02-04_15h28.55.338,jersey_experiment_5_v3,2023.2.2,Win32,84.74576271,,,,,,,,,,,,,,,,255.769,257.3214,257.3214,260.189,return,2.1929,,37.76041667,0,51,51,5,1,FBP-YG-81.png,0.35,1.2,6,0.75,,,,,,,,,,,,,,,,,,,,,,,,,,,,,,,,,,,,,,,,,,,,,
,,,,,V3_101,23,M,2025-02-04_15h28.55.338,jersey_experiment_5_v3,2023.2.2,Win32,84.74576271,,,,,,,,,,,,,,,,260.1892,261.7452,261.7452,264.8193,return,1.992,,87.23958333,0,52,52,8,1,FBP-YG-81.png,0.43,1.2,9,0.75,,,,,,,,,,,,,,,,,,,,,,,,,,,,,,,,,,,,,,,,,,,,,
,,,,,V3_101,23,M,2025-02-04_15h28.55.338,jersey_experiment_5_v3,2023.2.2,Win32,84.74576271,,,,,,,,,,,,,,,,264.8194,266.3722,266.3723,267.3581,return,0.1415,,66.92708333,0,53,53,47,1,FBP-RB-17.png,0.4,1.2,48,0.75,,,,,,,,,,,,,,,,,,,,,,,,,,,,,,,,,,,,,,,,,,,,,
,,,,,V3_101,23,M,2025-02-04_15h28.55.338,jersey_experiment_5_v3,2023.2.2,Win32,84.74576271,,,,,,,,,,,,,,,,267.3582,268.9071,268.9071,270.1583,return,0.6568,,86.328125,0,54,54,28,1,FBP-PT-19.png,0.43,1.2,29,0.75,,,,,,,,,,,,,,,,,,,,,,,,,,,,,,,,,,,,,,,,,,,,,
,,,,,V3_101,23,M,2025-02-04_15h28.55.338,jersey_experiment_5_v3,2023.2.2,Win32,84.74576271,,,,,,,,,,,,,,,,270.1584,271.7071,271.7072,272.8902,return,0.591,,78.64583333,0,55,55,23,1,FBP-PT-18.png,0.43,1.2,24,0.75,,,,,,,,,,,,,,,,,,,,,,,,,,,,,,,,,,,,,,,,,,,,,
,,,,,V3_101,23,M,2025-02-04_15h28.55.338,jersey_experiment_5_v3,2023.2.2,Win32,84.74576271,,,,,,,,,,,,,,,,272.8903,274.4365,274.4366,276.7308,return,1.6733,,76.69270833,0,56,56,48,1,FBP-RB-17.png,0.43,1.2,49,0.75,,,,,,,,,,,,,,,,,,,,,,,,,,,,,,,,,,,,,,,,,,,,,
,,,,,V3_101,23,M,2025-02-04_15h28.55.338,jersey_experiment_5_v3,2023.2.2,Win32,84.74576271,,,,,,,,,,,,,,,,276.731,278.0283,278.0283,278.9583,return,0.0683,,60.02604167,0,57,57,30,1,FBP-OG-17.png,0.35,1.2,31,0.5,,,,,,,,,,,,,,,,,,,,,,,,,,,,,,,,,,,,,,,,,,,,,
,,,,,V3_101,23,M,2025-02-04_15h28.55.338,jersey_experiment_5_v3,2023.2.2,Win32,84.74576271,,,,,,,,,,,,,,,,278.9585,280.5113,280.5113,281.7697,return,0.0584,,77.734375,0,58,58,27,1,FBP-PT-19.png,0.4,1.2,28,0.75,,,,,,,,,,,,,,,,,,,,,,,,,,,,,,,,,,,,,,,,,,,,,
,,,,,V3_101,23,M,2025-02-04_15h28.55.338,jersey_experiment_5_v3,2023.2.2,Win32,84.74576271,,,,,,,,,,,,,,,,281.7698,283.3139,283.3139,285.1344,return,1.2333,,96.09375,0,59,59,19,1,FBP-PT-17.png,0.45,1.2,20,0.75,,,,,,,,,,,,,,,,,,,,,,,,,,,,,,,,,,,,,,,,,,,,,
,,,,,V3_101,23,M,2025-02-04_15h28.55.338,jersey_experiment_5_v3,2023.2.2,Win32,84.74576271,,,,,,,,,,,,,,,,285.1362,286.6877,286.6877,287.2648,return,0.1777,,99.34895833,,,,,,FBP-PT-91.png,0.43,1.2,29,0.75,0,0,0,28,1,,,,,,,,,,,,,,,,,,,,,,,,,,,,,,,,,,,,,,,,
,,,,,V3_101,23,M,2025-02-04_15h28.55.338,jersey_experiment_5_v3,2023.2.2,Win32,84.74576271,,,,,,,,,,,,,,,,287.2649,288.8191,288.8192,289.5346,return,0.103,,70.05208333,,,,,,FBP-RB-91.png,0.37,1.2,57,0.75,0,1,1,56,1,,,,,,,,,,,,,,,,,,,,,,,,,,,,,,,,,,,,,,,,
,,,,,V3_101,23,M,2025-02-04_15h28.55.338,jersey_experiment_5_v3,2023.2.2,Win32,84.74576271,,,,,,,,,,,,,,,,289.5347,290.8286,290.8286,292.3733,return,0.9799,,62.36979167,,,,,,FBP-OG-71.png,0.37,1.2,32,0.5,0,2,2,31,1,,,,,,,,,,,,,,,,,,,,,,,,,,,,,,,,,,,,,,,,
,,,,,V3_101,23,M,2025-02-04_15h28.55.338,jersey_experiment_5_v3,2023.2.2,Win32,84.74576271,,,,,,,,,,,,,,,,292.3734,293.9198,293.9198,294.7262,return,0.0474,,62.890625,,,,,,FBP-PT-71.png,0.4,1.2,18,0.75,0,3,3,17,1,,,,,,,,,,,,,,,,,,,,,,,,,,,,,,,,,,,,,,,,
,,,,,V3_101,23,M,2025-02-04_15h28.55.338,jersey_experiment_5_v3,2023.2.2,Win32,84.74576271,,,,,,,,,,,,,,,,294.7264,296.279,296.279,297.3471,return,0.5292,,85.546875,,,,,,FBP-YG-18.png,0.45,1.2,10,0.75,0,4,4,9,1,,,,,,,,,,,,,,,,,,,,,,,,,,,,,,,,,,,,,,,,
,,,,,V3_101,23,M,2025-02-04_15h28.55.338,jersey_experiment_5_v3,2023.2.2,Win32,84.74576271,,,,,,,,,,,,,,,,297.3472,298.9,298.9,300.7345,return,0.7873,,67.70833333,,,,,,FBP-PT-81.png,0.35,1.2,21,0.75,0,5,5,20,1,,,,,,,,,,,,,,,,,,,,,,,,,,,,,,,,,,,,,,,,
,,,,,V3_101,23,M,2025-02-04_15h28.55.338,jersey_experiment_5_v3,2023.2.2,Win32,84.74576271,,,,,,,,,,,,,,,,300.7346,302.2792,302.2792,303.0879,return,0.4112,,59.375,,,,,,FBP-YG-17.png,0.37,1.2,2,0.75,0,6,6,1,1,,,,,,,,,,,,,,,,,,,,,,,,,,,,,,,,,,,,,,,,
,,,,,V3_101,23,M,2025-02-04_15h28.55.338,jersey_experiment_5_v3,2023.2.2,Win32,84.74576271,,,,,,,,,,,,,,,,303.0881,304.631,304.631,305.214,return,0.1205,,59.375,,,,,,FBP-RB-91.png,0.35,1.2,56,0.75,0,7,7,55,1,,,,,,,,,,,,,,,,,,,,,,,,,,,,,,,,,,,,,,,,
,,,,,V3_101,23,M,2025-02-04_15h28.55.338,jersey_experiment_5_v3,2023.2.2,Win32,84.74576271,,,,,,,,,,,,,,,,305.2142,306.5083,306.5084,306.947,return,0.0707,,59.375,,,,,,FBP-OG-81.png,0.37,1.2,37,0.5,0,8,8,36,1,,,,,,,,,,,,,,,,,,,,,,,,,,,,,,,,,,,,,,,,
,,,,,V3_101,23,M,2025-02-04_15h28.55.338,jersey_experiment_5_v3,2023.2.2,Win32,84.74576271,,,,,,,,,,,,,,,,306.9471,308.5,308.5,309.0496,return,0.1571,,59.375,,,,,,FBP-YG-17.png,0.4,1.2,3,0.75,0,9,9,2,1,,,,,,,,,,,,,,,,,,,,,,,,,,,,,,,,,,,,,,,,
,,,,,V3_101,23,M,2025-02-04_15h28.55.338,jersey_experiment_5_v3,2023.2.2,Win32,84.74576271,,,,,,,,,,,,,,,,309.0498,310.3478,310.3478,310.9231,return,0.1754,,59.375,,,,,,FBP-OG-91.png,0.37,1.2,42,0.5,0,10,10,41,1,,,,,,,,,,,,,,,,,,,,,,,,,,,,,,,,,,,,,,,,
,,,,,V3_101,23,M,2025-02-04_15h28.55.338,jersey_experiment_5_v3,2023.2.2,Win32,84.74576271,,,,,,,,,,,,,,,,310.9232,312.2327,312.2327,312.8211,return,0.18,,59.375,,,,,,FBP-OG-81.png,0.4,1.2,38,0.5,0,11,11,37,1,,,,,,,,,,,,,,,,,,,,,,,,,,,,,,,,,,,,,,,,
,,,,,V3_101,23,M,2025-02-04_15h28.55.338,jersey_experiment_5_v3,2023.2.2,Win32,84.74576271,,,,,,,,,,,,,,,,312.8212,314.3675,314.3675,315.3236,return,0.0086,,64.0625,,,,,,FBP-PT-81.png,0.43,1.2,24,0.75,0,12,12,23,1,,,,,,,,,,,,,,,,,,,,,,,,,,,,,,,,,,,,,,,,
,,,,,V3_101,23,M,2025-02-04_15h28.55.338,jersey_experiment_5_v3,2023.2.2,Win32,84.74576271,,,,,,,,,,,,,,,,315.3237,316.8768,316.8769,318.139,return,0.7448,,62.5,,,,,,FBP-YG-18.png,0.37,1.2,7,0.75,0,13,13,6,1,,,,,,,,,,,,,,,,,,,,,,,,,,,,,,,,,,,,,,,,
,,,,,V3_101,23,M,2025-02-04_15h28.55.338,jersey_experiment_5_v3,2023.2.2,Win32,84.74576271,,,,,,,,,,,,,,,,318.1391,319.433,319.433,320.9626,return,0.591,,90.234375,,,,,,FBP-OG-71.png,0.43,1.2,34,0.5,0,14,14,33,1,,,,,,,,,,,,,,,,,,,,,,,,,,,,,,,,,,,,,,,,
,,,,,V3_101,23,M,2025-02-04_15h28.55.338,jersey_experiment_5_v3,2023.2.2,Win32,84.74576271,,,,,,,,,,,,,,,,320.9628,322.5129,322.5129,325.0031,return,2.1817,,77.60416667,,,,,,FBP-PT-91.png,0.35,1.2,26,0.75,0,15,15,25,1,,,,,,,,,,,,,,,,,,,,,,,,,,,,,,,,,,,,,,,,
,,,,,V3_101,23,M,2025-02-04_15h28.55.338,jersey_experiment_5_v3,2023.2.2,Win32,84.74576271,,,,,,,,,,,,,,,,325.0034,326.3038,326.3039,328.3957,return,1.3071,,100,,,,,,FBP-OG-81.png,0.45,1.2,40,0.5,0,16,16,39,1,,,,,,,,,,,,,,,,,,,,,,,,,,,,,,,,,,,,,,,,
,,,,,V3_101,23,M,2025-02-04_15h28.55.338,jersey_experiment_5_v3,2023.2.2,Win32,84.74576271,,,,,,,,,,,,,,,,328.3959,329.9485,329.9485,330.962,return,0.1318,,98.17708333,,,,,,FBP-RB-71.png,0.45,1.2,50,0.75,0,17,17,49,1,,,,,,,,,,,,,,,,,,,,,,,,,,,,,,,,,,,,,,,,
,,,,,V3_101,23,M,2025-02-04_15h28.55.338,jersey_experiment_5_v3,2023.2.2,Win32,84.74576271,,,,,,,,,,,,,,,,330.9621,332.5134,332.5135,334.0153,return,0.9538,,83.203125,,,,,,FBP-PT-71.png,0.37,1.2,17,0.75,0,18,18,16,1,,,,,,,,,,,,,,,,,,,,,,,,,,,,,,,,,,,,,,,,
,,,,,V3_101,23,M,2025-02-04_15h28.55.338,jersey_experiment_5_v3,2023.2.2,Win32,84.74576271,,,,,,,,,,,,,,,,334.0156,335.316,335.316,335.9831,return,0.2227,,80.46875,,,,,,FBP-OG-81.png,0.43,1.2,39,0.5,0,19,19,38,1,,,,,,,,,,,,,,,,,,,,,,,,,,,,,,,,,,,,,,,,
,,,,,V3_101,23,M,2025-02-04_15h28.55.338,jersey_experiment_5_v3,2023.2.2,Win32,84.74576271,,,,,,,,,,,,,,,,335.9833,337.2924,337.2924,338.2859,return,0.5185,,92.83854167,,,,,,FBP-OG-71.png,0.45,1.2,35,0.5,0,20,20,34,1,,,,,,,,,,,,,,,,,,,,,,,,,,,,,,,,,,,,,,,,
,,,,,V3_101,23,M,2025-02-04_15h28.55.338,jersey_experiment_5_v3,2023.2.2,Win32,84.74576271,,,,,,,,,,,,,,,,338.2861,339.8423,339.8423,341.7162,return,0.8734,,80.46875,,,,,,FBP-RB-81.png,0.4,1.2,53,0.75,0,21,21,52,1,,,,,,,,,,,,,,,,,,,,,,,,,,,,,,,,,,,,,,,,
,,,,,V3_101,23,M,2025-02-04_15h28.55.338,jersey_experiment_5_v3,2023.2.2,Win32,84.74576271,,,,,,,,,,,,,,,,341.7164,343.2668,343.2668,343.69,return,0.0593,,92.05729167,,,,,,FBP-PT-71.png,0.45,1.2,20,0.75,0,22,22,19,1,,,,,,,,,,,,,,,,,,,,,,,,,,,,,,,,,,,,,,,,
,,,,,V3_101,23,M,2025-02-04_15h28.55.338,jersey_experiment_5_v3,2023.2.2,Win32,84.74576271,,,,,,,,,,,,,,,,343.6902,344.9869,344.9869,346.1016,return,0.081,,78.90625,,,,,,FBP-OG-91.png,0.4,1.2,43,0.5,0,23,23,42,1,,,,,,,,,,,,,,,,,,,,,,,,,,,,,,,,,,,,,,,,
,,,,,V3_101,23,M,2025-02-04_15h28.55.338,jersey_experiment_5_v3,2023.2.2,Win32,84.74576271,,,,,,,,,,,,,,,,346.1018,347.3956,347.3956,348.1251,return,0.0559,,61.97916667,,,,,,FBP-OG-81.png,0.35,1.2,36,0.5,0,24,24,35,1,,,,,,,,,,,,,,,,,,,,,,,,,,,,,,,,,,,,,,,,
,,,,,V3_101,23,M,2025-02-04_15h28.55.338,jersey_experiment_5_v3,2023.2.2,Win32,84.74576271,,,,,,,,,,,,,,,,348.1251,349.6673,349.6673,350.0698,return,0.039,,58.33333333,,,,,,FBP-PT-71.png,0.35,1.2,16,0.75,0,25,25,15,1,,,,,,,,,,,,,,,,,,,,,,,,,,,,,,,,,,,,,,,,
,,,,,V3_101,23,M,2025-02-04_15h28.55.338,jersey_experiment_5_v3,2023.2.2,Win32,84.74576271,,,,,,,,,,,,,,,,350.0699,351.6159,351.6159,352.9614,return,0.0834,,69.140625,,,,,,FBP-YG-19.png,0.4,1.2,13,0.75,0,26,26,12,1,,,,,,,,,,,,,,,,,,,,,,,,,,,,,,,,,,,,,,,,
,,,,,V3_101,23,M,2025-02-04_15h28.55.338,jersey_experiment_5_v3,2023.2.2,Win32,84.74576271,,,,,,,,,,,,,,,,352.9616,354.514,354.514,355.1606,return,0.0004,,63.80208333,,,,,,FBP-RB-91.png,0.4,1.2,58,0.75,0,27,27,57,1,,,,,,,,,,,,,,,,,,,,,,,,,,,,,,,,,,,,,,,,
,,,,,V3_101,23,M,2025-02-04_15h28.55.338,jersey_experiment_5_v3,2023.2.2,Win32,84.74576271,,,,,,,,,,,,,,,,355.1607,356.7138,356.7138,357.4433,return,0.0351,,55.72916667,,,,,,FBP-RB-71.png,0.35,1.2,46,0.75,0,28,28,45,1,,,,,,,,,,,,,,,,,,,,,,,,,,,,,,,,,,,,,,,,
,,,,,V3_101,23,M,2025-02-04_15h28.55.338,jersey_experiment_5_v3,2023.2.2,Win32,84.74576271,,,,,,,,,,,,,,,,357.4434,358.9874,358.9874,359.9029,return,0.0212,,94.01041667,,,,,,FBP-RB-91.png,0.45,1.2,60,0.75,0,29,29,59,1,,,,,,,,,,,,,,,,,,,,,,,,,,,,,,,,,,,,,,,,
,,,,,V3_101,23,M,2025-02-04_15h28.55.338,jersey_experiment_5_v3,2023.2.2,Win32,84.74576271,,,,,,,,,,,,,,,,359.9031,361.4555,361.4556,363.8988,return,1.9442,,69.79166667,,,,,,FBP-YG-18.png,0.4,1.2,8,0.75,0,30,30,7,1,,,,,,,,,,,,,,,,,,,,,,,,,,,,,,,,,,,,,,,,
,,,,,V3_101,23,M,2025-02-04_15h28.55.338,jersey_experiment_5_v3,2023.2.2,Win32,84.74576271,,,,,,,,,,,,,,,,363.899,365.1929,365.1929,366.1643,return,0.0735,,96.74479167,,,,,,FBP-OG-91.png,0.45,1.2,45,0.5,0,31,31,44,1,,,,,,,,,,,,,,,,,,,,,,,,,,,,,,,,,,,,,,,,
,,,,,V3_101,23,M,2025-02-04_15h28.55.338,jersey_experiment_5_v3,2023.2.2,Win32,84.74576271,,,,,,,,,,,,,,,,366.1645,367.4559,367.4559,368.1966,return,0.082,,68.09895833,,,,,,FBP-OG-71.png,0.35,1.2,31,0.5,0,32,32,30,1,,,,,,,,,,,,,,,,,,,,,,,,,,,,,,,,,,,,,,,,
,,,,,V3_101,23,M,2025-02-04_15h28.55.338,jersey_experiment_5_v3,2023.2.2,Win32,84.74576271,,,,,,,,,,,,,,,,368.1967,369.7408,369.7408,370.7612,return,0.4583,,76.5625,,,,,,FBP-PT-81.png,0.4,1.2,23,0.75,0,33,33,22,1,,,,,,,,,,,,,,,,,,,,,,,,,,,,,,,,,,,,,,,,
,,,,,V3_101,23,M,2025-02-04_15h28.55.338,jersey_experiment_5_v3,2023.2.2,Win32,84.74576271,,,,,,,,,,,,,,,,370.7613,372.3032,372.3032,373.3858,return,0.5303,,90.49479167,,,,,,FBP-YG-18.png,0.43,1.2,9,0.75,0,34,34,8,1,,,,,,,,,,,,,,,,,,,,,,,,,,,,,,,,,,,,,,,,
,,,,,V3_101,23,M,2025-02-04_15h28.55.338,jersey_experiment_5_v3,2023.2.2,Win32,84.74576271,,,,,,,,,,,,,,,,373.3859,374.9345,374.9346,375.8404,return,0.2731,,97.265625,,,,,,FBP-PT-91.png,0.45,1.2,30,0.75,0,35,35,29,1,,,,,,,,,,,,,,,,,,,,,,,,,,,,,,,,,,,,,,,,
,,,,,V3_101,23,M,2025-02-04_15h28.55.338,jersey_experiment_5_v3,2023.2.2,Win32,84.74576271,,,,,,,,,,,,,,,,375.8407,377.3856,377.3857,378.7294,return,0.7532,,74.609375,,,,,,FBP-RB-71.png,0.37,1.2,47,0.75,0,36,36,46,1,,,,,,,,,,,,,,,,,,,,,,,,,,,,,,,,,,,,,,,,
,,,,,V3_101,23,M,2025-02-04_15h28.55.338,jersey_experiment_5_v3,2023.2.2,Win32,84.74576271,,,,,,,,,,,,,,,,378.7294,380.28,380.28,382.0326,return,1.3293,,83.46354167,,,,,,FBP-RB-71.png,0.4,1.2,48,0.75,0,37,37,47,1,,,,,,,,,,,,,,,,,,,,,,,,,,,,,,,,,,,,,,,,
,,,,,V3_101,23,M,2025-02-04_15h28.55.338,jersey_experiment_5_v3,2023.2.2,Win32,84.74576271,,,,,,,,,,,,,,,,382.0327,383.5765,383.5766,383.9856,return,0.0797,,87.109375,,,,,,FBP-RB-81.png,0.43,1.2,54,0.75,0,38,38,53,1,,,,,,,,,,,,,,,,,,,,,,,,,,,,,,,,,,,,,,,,
,,,,,V3_101,23,M,2025-02-04_15h28.55.338,jersey_experiment_5_v3,2023.2.2,Win32,84.74576271,,,,,,,,,,,,,,,,383.9857,385.5296,385.5296,386.0289,return,0.1114,,76.69270833,,,,,,FBP-PT-91.png,0.37,1.2,27,0.75,0,39,39,26,1,,,,,,,,,,,,,,,,,,,,,,,,,,,,,,,,,,,,,,,,
,,,,,V3_101,23,M,2025-02-04_15h28.55.338,jersey_experiment_5_v3,2023.2.2,Win32,84.74576271,,,,,,,,,,,,,,,,386.0292,387.5853,387.5853,388.0936,return,0.0005,,76.5625,,,,,,FBP-PT-81.png,0.37,1.2,22,0.75,0,40,40,21,1,,,,,,,,,,,,,,,,,,,,,,,,,,,,,,,,,,,,,,,,
,,,,,V3_101,23,M,2025-02-04_15h28.55.338,jersey_experiment_5_v3,2023.2.2,Win32,84.74576271,,,,,,,,,,,,,,,,388.0936,389.6474,389.6474,390.362,return,0.3856,,92.31770833,,,,,,FBP-RB-81.png,0.45,1.2,55,0.75,0,41,41,54,1,,,,,,,,,,,,,,,,,,,,,,,,,,,,,,,,,,,,,,,,
,,,,,V3_101,23,M,2025-02-04_15h28.55.338,jersey_experiment_5_v3,2023.2.2,Win32,84.74576271,,,,,,,,,,,,,,,,390.3622,391.9148,391.9149,392.2679,return,0.035,,94.140625,,,,,,FBP-RB-71.png,0.43,1.2,49,0.75,0,42,42,48,1,,,,,,,,,,,,,,,,,,,,,,,,,,,,,,,,,,,,,,,,
,,,,,V3_101,23,M,2025-02-04_15h28.55.338,jersey_experiment_5_v3,2023.2.2,Win32,84.74576271,,,,,,,,,,,,,,,,392.268,393.8097,393.8097,394.8218,return,0.6098,,77.99479167,,,,,,FBP-YG-19.png,0.37,1.2,12,0.75,0,43,43,11,1,,,,,,,,,,,,,,,,,,,,,,,,,,,,,,,,,,,,,,,,
,,,,,V3_101,23,M,2025-02-04_15h28.55.338,jersey_experiment_5_v3,2023.2.2,Win32,84.74576271,,,,,,,,,,,,,,,,394.822,396.3745,396.3745,396.9118,return,0.0809,,68.359375,,,,,,FBP-YG-18.png,0.35,1.2,6,0.75,0,44,44,5,1,,,,,,,,,,,,,,,,,,,,,,,,,,,,,,,,,,,,,,,,
,,,,,V3_101,23,M,2025-02-04_15h28.55.338,jersey_experiment_5_v3,2023.2.2,Win32,84.74576271,,,,,,,,,,,,,,,,396.9119,398.4565,398.4565,398.8096,return,0.0113,,66.53645833,,,,,,FBP-RB-81.png,0.35,1.2,51,0.75,0,45,45,50,1,,,,,,,,,,,,,,,,,,,,,,,,,,,,,,,,,,,,,,,,
,,,,,V3_101,23,M,2025-02-04_15h28.55.338,jersey_experiment_5_v3,2023.2.2,Win32,84.74576271,,,,,,,,,,,,,,,,398.8098,400.3511,400.3511,400.8008,return,0.0475,,72.91666667,,,,,,FBP-PT-91.png,0.4,1.2,28,0.75,0,46,46,27,1,,,,,,,,,,,,,,,,,,,,,,,,,,,,,,,,,,,,,,,,
,,,,,V3_101,23,M,2025-02-04_15h28.55.338,jersey_experiment_5_v3,2023.2.2,Win32,84.74576271,,,,,,,,,,,,,,,,400.801,402.3536,402.3536,402.6589,return,0.0144,,73.828125,,,,,,FBP-RB-81.png,0.37,1.2,52,0.75,0,47,47,51,1,,,,,,,,,,,,,,,,,,,,,,,,,,,,,,,,,,,,,,,,
,,,,,V3_101,23,M,2025-02-04_15h28.55.338,jersey_experiment_5_v3,2023.2.2,Win32,84.74576271,,,,,,,,,,,,,,,,402.659,404.2101,404.2102,404.715,return,0.0705,,62.890625,,,,,,FBP-YG-19.png,0.35,1.2,11,0.75,0,48,48,10,1,,,,,,,,,,,,,,,,,,,,,,,,,,,,,,,,,,,,,,,,
,,,,,V3_101,23,M,2025-02-04_15h28.55.338,jersey_experiment_5_v3,2023.2.2,Win32,84.74576271,,,,,,,,,,,,,,,,404.7152,406.2598,406.2598,407.0212,return,0.0465,,91.40625,,,,,,FBP-RB-91.png,0.43,1.2,59,0.75,0,49,49,58,1,,,,,,,,,,,,,,,,,,,,,,,,,,,,,,,,,,,,,,,,
,,,,,V3_101,23,M,2025-02-04_15h28.55.338,jersey_experiment_5_v3,2023.2.2,Win32,84.74576271,,,,,,,,,,,,,,,,407.0214,408.3155,408.3155,409.507,return,0.638,,90.88541667,,,,,,FBP-OG-71.png,0.4,1.2,33,0.5,0,50,50,32,1,,,,,,,,,,,,,,,,,,,,,,,,,,,,,,,,,,,,,,,,
,,,,,V3_101,23,M,2025-02-04_15h28.55.338,jersey_experiment_5_v3,2023.2.2,Win32,84.74576271,,,,,,,,,,,,,,,,409.5072,410.8011,410.8012,411.6013,return,0.1563,,72.00520833,,,,,,FBP-OG-91.png,0.35,1.2,41,0.5,0,51,51,40,1,,,,,,,,,,,,,,,,,,,,,,,,,,,,,,,,,,,,,,,,
,,,,,V3_101,23,M,2025-02-04_15h28.55.338,jersey_experiment_5_v3,2023.2.2,Win32,84.74576271,,,,,,,,,,,,,,,,411.6014,413.1517,413.1517,413.6332,return,0.0814,,89.0625,,,,,,FBP-PT-71.png,0.43,1.2,19,0.75,0,52,52,18,1,,,,,,,,,,,,,,,,,,,,,,,,,,,,,,,,,,,,,,,,
,,,,,V3_101,23,M,2025-02-04_15h28.55.338,jersey_experiment_5_v3,2023.2.2,Win32,84.74576271,,,,,,,,,,,,,,,,413.6334,415.1754,415.1754,415.7276,return,0.1649,,93.88020833,,,,,,FBP-YG-17.png,0.45,1.2,5,0.75,0,53,53,4,1,,,,,,,,,,,,,,,,,,,,,,,,,,,,,,,,,,,,,,,,
,,,,,V3_101,23,M,2025-02-04_15h28.55.338,jersey_experiment_5_v3,2023.2.2,Win32,84.74576271,,,,,,,,,,,,,,,,415.7276,417.0366,417.0366,417.9543,return,0.0263,,87.109375,,,,,,FBP-OG-91.png,0.43,1.2,44,0.5,0,54,54,43,1,,,,,,,,,,,,,,,,,,,,,,,,,,,,,,,,,,,,,,,,
,,,,,V3_101,23,M,2025-02-04_15h28.55.338,jersey_experiment_5_v3,2023.2.2,Win32,84.74576271,,,,,,,,,,,,,,,,417.9545,419.5049,419.5049,419.9285,return,0.0472,,94.140625,,,,,,FBP-YG-19.png,0.45,1.2,15,0.75,0,55,55,14,1,,,,,,,,,,,,,,,,,,,,,,,,,,,,,,,,,,,,,,,,
,,,,,V3_101,23,M,2025-02-04_15h28.55.338,jersey_experiment_5_v3,2023.2.2,Win32,84.74576271,,,,,,,,,,,,,,,,419.9286,421.4813,421.4814,421.9992,return,0.0598,,82.55208333,,,,,,FBP-YG-19.png,0.43,1.2,14,0.75,0,56,56,13,1,,,,,,,,,,,,,,,,,,,,,,,,,,,,,,,,,,,,,,,,
,,,,,V3_101,23,M,2025-02-04_15h28.55.338,jersey_experiment_5_v3,2023.2.2,Win32,84.74576271,,,,,,,,,,,,,,,,421.9993,423.5546,423.5546,424.1599,return,0.0485,,80.98958333,,,,,,FBP-YG-17.png,0.43,1.2,4,0.75,0,57,57,3,1,,,,,,,,,,,,,,,,,,,,,,,,,,,,,,,,,,,,,,,,
,,,,,V3_101,23,M,2025-02-04_15h28.55.338,jersey_experiment_5_v3,2023.2.2,Win32,84.74576271,,,,,,,,,,,,,,,,424.16,425.7043,425.7043,426.128,return,0.0239,,68.61979167,,,,,,FBP-YG-17.png,0.35,1.2,1,0.75,0,58,58,0,1,,,,,,,,,,,,,,,,,,,,,,,,,,,,,,,,,,,,,,,,
,,,,,V3_101,23,M,2025-02-04_15h28.55.338,jersey_experiment_5_v3,2023.2.2,Win32,84.74576271,,,,,,,,,,,,,,,,426.1282,427.6722,427.6723,428.1044,return,0.0345,,83.46354167,,,,,,FBP-PT-81.png,0.45,1.2,25,0.75,0,59,59,24,1,,,,,,,,,,,,,,,,,,,,,,,,,,,,,,,,,,,,,,,,
,,,,,V3_101,23,M,2025-02-04_15h28.55.338,jersey_experiment_5_v3,2023.2.2,Win32,84.74576271,,,,,,,,,,,,,,,,,,,,,,,,,,,,,,,,,,,,,,,428.1045,548.0981,,,,,,,,,,,,,,,,,,,,,,,,,,,,,,,,,,,,,,
,,,,,V3_101,23,M,2025-02-04_15h28.55.338,jersey_experiment_5_v3,2023.2.2,Win32,84.74576271,,,,,,,,,,,,,,,,,,,,,,,,,,,,,,,,,,,,,,,,,548.0981,648.0571,return,99.9478,,,,,,,,,,,,,,,,,,,,,,,,,,,,,,,,,,
,,,,,V3_101,23,M,2025-02-04_15h28.55.338,jersey_experiment_5_v3,2023.2.2,Win32,84.74576271,,,,,,,,,,,,,,,,648.0588,649.6101,649.6101,651.0037,return,0.7339,,84.50520833,,,,,,FBP-OG-17.png,0.43,1.2,34,0.75,,,,,,,,,,,,,0,0,0,33,1,,,,,,,,,,,,,,,,,,,,,,,,,,,,
,,,,,V3_101,23,M,2025-02-04_15h28.55.338,jersey_experiment_5_v3,2023.2.2,Win32,84.74576271,,,,,,,,,,,,,,,,651.004,652.3015,652.3016,652.8081,return,0.0831,,76.69270833,,,,,,FBP-YG-91.png,0.37,1.2,12,0.5,,,,,,,,,,,,,0,1,1,11,1,,,,,,,,,,,,,,,,,,,,,,,,,,,,
,,,,,V3_101,23,M,2025-02-04_15h28.55.338,jersey_experiment_5_v3,2023.2.2,Win32,84.74576271,,,,,,,,,,,,,,,,652.8082,654.1045,654.1045,654.9731,return,0.0004,,94.40104167,,,,,,FBP-YG-71.png,0.45,1.2,5,0.5,,,,,,,,,,,,,0,2,2,4,1,,,,,,,,,,,,,,,,,,,,,,,,,,,,
,,,,,V3_101,23,M,2025-02-04_15h28.55.338,jersey_experiment_5_v3,2023.2.2,Win32,84.74576271,,,,,,,,,,,,,,,,654.9732,656.2693,656.2694,656.7486,return,0.1748,,94.40104167,,,,,,FBP-PT-19.png,0.45,1.2,30,0.5,,,,,,,,,,,,,0,3,3,29,1,,,,,,,,,,,,,,,,,,,,,,,,,,,,
,,,,,V3_101,23,M,2025-02-04_15h28.55.338,jersey_experiment_5_v3,2023.2.2,Win32,84.74576271,,,,,,,,,,,,,,,,656.7487,658.0427,658.0427,658.9048,return,0.0945,,94.921875,,,,,,FBP-RB-18.png,0.43,1.2,54,0.5,,,,,,,,,,,,,0,4,4,53,1,,,,,,,,,,,,,,,,,,,,,,,,,,,,
,,,,,V3_101,23,M,2025-02-04_15h28.55.338,jersey_experiment_5_v3,2023.2.2,Win32,84.74576271,,,,,,,,,,,,,,,,658.9049,660.4553,660.4553,661.2319,return,0.5173,,81.640625,,,,,,FBP-OG-19.png,0.37,1.2,42,0.75,,,,,,,,,,,,,0,5,5,41,1,,,,,,,,,,,,,,,,,,,,,,,,,,,,
,,,,,V3_101,23,M,2025-02-04_15h28.55.338,jersey_experiment_5_v3,2023.2.2,Win32,84.74576271,,,,,,,,,,,,,,,,661.232,662.5265,662.5265,663.6333,return,0.7671,,75.65104167,,,,,,FBP-PT-18.png,0.37,1.2,22,0.5,,,,,,,,,,,,,0,6,6,21,1,,,,,,,,,,,,,,,,,,,,,,,,,,,,
,,,,,V3_101,23,M,2025-02-04_15h28.55.338,jersey_experiment_5_v3,2023.2.2,Win32,84.74576271,,,,,,,,,,,,,,,,663.6335,664.9284,664.9284,665.3522,return,0.0734,,76.04166667,,,,,,FBP-RB-17.png,0.4,1.2,48,0.5,,,,,,,,,,,,,0,7,7,47,1,,,,,,,,,,,,,,,,,,,,,,,,,,,,
,,,,,V3_101,23,M,2025-02-04_15h28.55.338,jersey_experiment_5_v3,2023.2.2,Win32,84.74576271,,,,,,,,,,,,,,,,665.3523,666.6545,666.6546,667.0867,return,0.0729,,69.27083333,,,,,,FBP-PT-19.png,0.35,1.2,26,0.5,,,,,,,,,,,,,0,8,8,25,1,,,,,,,,,,,,,,,,,,,,,,,,,,,,
,,,,,V3_101,23,M,2025-02-04_15h28.55.338,jersey_experiment_5_v3,2023.2.2,Win32,84.74576271,,,,,,,,,,,,,,,,667.087,668.3809,668.381,669.4045,return,0.4258,,87.63020833,,,,,,FBP-YG-71.png,0.43,1.2,4,0.5,,,,,,,,,,,,,0,9,9,3,1,,,,,,,,,,,,,,,,,,,,,,,,,,,,
,,,,,V3_101,23,M,2025-02-04_15h28.55.338,jersey_experiment_5_v3,2023.2.2,Win32,84.74576271,,,,,,,,,,,,,,,,669.4047,670.7024,670.7024,671.1406,return,0.0945,,80.078125,,,,,,FBP-PT-18.png,0.4,1.2,23,0.5,,,,,,,,,,,,,0,10,10,22,1,,,,,,,,,,,,,,,,,,,,,,,,,,,,
,,,,,V3_101,23,M,2025-02-04_15h28.55.338,jersey_experiment_5_v3,2023.2.2,Win32,84.74576271,,,,,,,,,,,,,,,,671.1408,672.4431,672.4432,672.8323,return,0.0599,,74.21875,,,,,,FBP-YG-71.png,0.35,1.2,1,0.5,,,,,,,,,,,,,0,11,11,0,1,,,,,,,,,,,,,,,,,,,,,,,,,,,,
,,,,,V3_101,23,M,2025-02-04_15h28.55.338,jersey_experiment_5_v3,2023.2.2,Win32,84.74576271,,,,,,,,,,,,,,,,672.8324,674.1372,674.1372,674.6435,return,0.1855,,83.85416667,,,,,,FBP-YG-81.png,0.4,1.2,8,0.5,,,,,,,,,,,,,0,12,12,7,1,,,,,,,,,,,,,,,,,,,,,,,,,,,,
,,,,,V3_101,23,M,2025-02-04_15h28.55.338,jersey_experiment_5_v3,2023.2.2,Win32,84.74576271,,,,,,,,,,,,,,,,674.6436,675.9494,675.9495,676.7028,return,0.3774,,69.921875,,,,,,FBP-YG-81.png,0.35,1.2,6,0.5,,,,,,,,,,,,,0,13,13,5,1,,,,,,,,,,,,,,,,,,,,,,,,,,,,
,,,,,V3_101,23,M,2025-02-04_15h28.55.338,jersey_experiment_5_v3,2023.2.2,Win32,84.74576271,,,,,,,,,,,,,,,,676.703,677.996,677.9961,679.1729,return,0.6828,,79.81770833,,,,,,FBP-PT-19.png,0.4,1.2,28,0.5,,,,,,,,,,,,,0,14,14,27,1,,,,,,,,,,,,,,,,,,,,,,,,,,,,
,,,,,V3_101,23,M,2025-02-04_15h28.55.338,jersey_experiment_5_v3,2023.2.2,Win32,84.74576271,,,,,,,,,,,,,,,,679.1731,680.7172,680.7173,681.0208,return,0.1155,,65.75520833,,,,,,FBP-OG-19.png,0.35,1.2,41,0.75,,,,,,,,,,,,,0,15,15,40,1,,,,,,,,,,,,,,,,,,,,,,,,,,,,
,,,,,V3_101,23,M,2025-02-04_15h28.55.338,jersey_experiment_5_v3,2023.2.2,Win32,84.74576271,,,,,,,,,,,,,,,,681.0209,682.5735,682.5736,683.1411,return,0.0857,,90.10416667,,,,,,FBP-OG-18.png,0.45,1.2,40,0.75,,,,,,,,,,,,,0,16,16,39,1,,,,,,,,,,,,,,,,,,,,,,,,,,,,
,,,,,V3_101,23,M,2025-02-04_15h28.55.338,jersey_experiment_5_v3,2023.2.2,Win32,84.74576271,,,,,,,,,,,,,,,,683.1413,684.4435,684.4435,685.1263,return,0.0943,,94.921875,,,,,,FBP-YG-91.png,0.45,1.2,15,0.5,,,,,,,,,,,,,0,17,17,14,1,,,,,,,,,,,,,,,,,,,,,,,,,,,,
,,,,,V3_101,23,M,2025-02-04_15h28.55.338,jersey_experiment_5_v3,2023.2.2,Win32,84.74576271,,,,,,,,,,,,,,,,685.1265,686.4201,686.4202,687.0555,return,0.0474,,80.078125,,,,,,FBP-YG-91.png,0.35,1.2,11,0.5,,,,,,,,,,,,,0,18,18,10,1,,,,,,,,,,,,,,,,,,,,,,,,,,,,
,,,,,V3_101,23,M,2025-02-04_15h28.55.338,jersey_experiment_5_v3,2023.2.2,Win32,84.74576271,,,,,,,,,,,,,,,,687.0556,688.3496,688.3497,689.5026,return,0.7768,,80.078125,,,,,,FBP-YG-71.png,0.37,1.2,2,0.5,,,,,,,,,,,,,0,19,19,1,1,,,,,,,,,,,,,,,,,,,,,,,,,,,,
,,,,,V3_101,23,M,2025-02-04_15h28.55.338,jersey_experiment_5_v3,2023.2.2,Win32,84.74576271,,,,,,,,,,,,,,,,689.5028,690.7967,690.7967,691.3039,return,0.0832,,78.125,,,,,,FBP-PT-17.png,0.37,1.2,17,0.5,,,,,,,,,,,,,0,20,20,16,1,,,,,,,,,,,,,,,,,,,,,,,,,,,,
,,,,,V3_101,23,M,2025-02-04_15h28.55.338,jersey_experiment_5_v3,2023.2.2,Win32,84.74576271,,,,,,,,,,,,,,,,691.3041,692.6085,692.6085,692.9296,return,0.0151,,78.25520833,,,,,,FBP-RB-18.png,0.35,1.2,51,0.5,,,,,,,,,,,,,0,21,21,50,1,,,,,,,,,,,,,,,,,,,,,,,,,,,,
,,,,,V3_101,23,M,2025-02-04_15h28.55.338,jersey_experiment_5_v3,2023.2.2,Win32,84.74576271,,,,,,,,,,,,,,,,692.9297,694.2237,694.2237,694.829,return,0.0599,,90.49479167,,,,,,FBP-RB-17.png,0.43,1.2,49,0.5,,,,,,,,,,,,,0,22,22,48,1,,,,,,,,,,,,,,,,,,,,,,,,,,,,
,,,,,V3_101,23,M,2025-02-04_15h28.55.338,jersey_experiment_5_v3,2023.2.2,Win32,84.74576271,,,,,,,,,,,,,,,,694.8292,696.1296,696.1296,697.539,return,0.5537,,95.18229167,,,,,,FBP-RB-17.png,0.45,1.2,50,0.5,,,,,,,,,,,,,0,23,23,49,1,,,,,,,,,,,,,,,,,,,,,,,,,,,,
,,,,,V3_101,23,M,2025-02-04_15h28.55.338,jersey_experiment_5_v3,2023.2.2,Win32,84.74576271,,,,,,,,,,,,,,,,697.5392,699.0943,699.0943,700.6561,return,0.0238,,91.92708333,,,,,,FBP-OG-18.png,0.43,1.2,39,0.75,,,,,,,,,,,,,0,24,24,38,1,,,,,,,,,,,,,,,,,,,,,,,,,,,,
,,,,,V3_101,23,M,2025-02-04_15h28.55.338,jersey_experiment_5_v3,2023.2.2,Win32,84.74576271,,,,,,,,,,,,,,,,700.6562,701.9503,701.9504,702.4352,return,0.1085,,87.76041667,,,,,,FBP-RB-18.png,0.4,1.2,53,0.5,,,,,,,,,,,,,0,25,25,52,1,,,,,,,,,,,,,,,,,,,,,,,,,,,,
,,,,,V3_101,23,M,2025-02-04_15h28.55.338,jersey_experiment_5_v3,2023.2.2,Win32,84.74576271,,,,,,,,,,,,,,,,702.4354,703.9824,703.9824,704.5748,return,0.0004,,77.47395833,,,,,,FBP-OG-17.png,0.37,1.2,32,0.75,,,,,,,,,,,,,0,26,26,31,1,,,,,,,,,,,,,,,,,,,,,,,,,,,,
,,,,,V3_101,23,M,2025-02-04_15h28.55.338,jersey_experiment_5_v3,2023.2.2,Win32,84.74576271,,,,,,,,,,,,,,,,704.5749,705.8712,705.8712,707.2916,return,0.7534,,94.53125,,,,,,FBP-PT-18.png,0.45,1.2,25,0.5,,,,,,,,,,,,,0,27,27,24,1,,,,,,,,,,,,,,,,,,,,,,,,,,,,
,,,,,V3_101,23,M,2025-02-04_15h28.55.338,jersey_experiment_5_v3,2023.2.2,Win32,84.74576271,,,,,,,,,,,,,,,,707.2917,708.6005,708.6005,709.1183,return,0.1188,,93.75,,,,,,FBP-RB-18.png,0.45,1.2,55,0.5,,,,,,,,,,,,,0,28,28,54,1,,,,,,,,,,,,,,,,,,,,,,,,,,,,
,,,,,V3_101,23,M,2025-02-04_15h28.55.338,jersey_experiment_5_v3,2023.2.2,Win32,84.74576271,,,,,,,,,,,,,,,,709.1184,710.4122,710.4122,711.3391,return,0.1058,,79.6875,,,,,,FBP-YG-71.png,0.4,1.2,3,0.5,,,,,,,,,,,,,0,29,29,2,1,,,,,,,,,,,,,,,,,,,,,,,,,,,,
,,,,,V3_101,23,M,2025-02-04_15h28.55.338,jersey_experiment_5_v3,2023.2.2,Win32,84.74576271,,,,,,,,,,,,,,,,711.3393,712.6328,712.6328,713.4481,return,0.0859,,91.53645833,,,,,,FBP-PT-17.png,0.45,1.2,20,0.5,,,,,,,,,,,,,0,30,30,19,1,,,,,,,,,,,,,,,,,,,,,,,,,,,,
,,,,,V3_101,23,M,2025-02-04_15h28.55.338,jersey_experiment_5_v3,2023.2.2,Win32,84.74576271,,,,,,,,,,,,,,,,713.4482,714.9985,714.9985,715.307,return,0.0476,,93.48958333,,,,,,FBP-OG-17.png,0.45,1.2,35,0.75,,,,,,,,,,,,,0,31,31,34,1,,,,,,,,,,,,,,,,,,,,,,,,,,,,
,,,,,V3_101,23,M,2025-02-04_15h28.55.338,jersey_experiment_5_v3,2023.2.2,Win32,84.74576271,,,,,,,,,,,,,,,,715.3073,716.6063,716.6063,717.7768,return,0.0701,,80.078125,,,,,,FBP-PT-17.png,0.4,1.2,18,0.5,,,,,,,,,,,,,0,32,32,17,1,,,,,,,,,,,,,,,,,,,,,,,,,,,,
,,,,,V3_101,23,M,2025-02-04_15h28.55.338,jersey_experiment_5_v3,2023.2.2,Win32,84.74576271,,,,,,,,,,,,,,,,717.7769,719.0717,719.0717,719.6365,return,0.0389,,68.09895833,,,,,,FBP-RB-17.png,0.37,1.2,47,0.5,,,,,,,,,,,,,0,33,33,46,1,,,,,,,,,,,,,,,,,,,,,,,,,,,,
,,,,,V3_101,23,M,2025-02-04_15h28.55.338,jersey_experiment_5_v3,2023.2.2,Win32,84.74576271,,,,,,,,,,,,,,,,719.6366,720.9391,720.9391,721.8953,return,0.5797,,65.625,,,,,,FBP-PT-18.png,0.35,1.2,21,0.5,,,,,,,,,,,,,0,34,34,20,1,,,,,,,,,,,,,,,,,,,,,,,,,,,,
,,,,,V3_101,23,M,2025-02-04_15h28.55.338,jersey_experiment_5_v3,2023.2.2,Win32,84.74576271,,,,,,,,,,,,,,,,721.8955,723.4483,723.4483,724.3402,return,0.7421,,61.06770833,,,,,,FBP-OG-17.png,0.35,1.2,31,0.75,,,,,,,,,,,,,0,35,35,30,1,,,,,,,,,,,,,,,,,,,,,,,,,,,,
,,,,,V3_101,23,M,2025-02-04_15h28.55.338,jersey_experiment_5_v3,2023.2.2,Win32,84.74576271,,,,,,,,,,,,,,,,724.3403,725.645,725.6451,726.9864,return,0.6356,,88.02083333,,,,,,FBP-RB-19.png,0.43,1.2,59,0.5,,,,,,,,,,,,,0,36,36,58,1,,,,,,,,,,,,,,,,,,,,,,,,,,,,
,,,,,V3_101,23,M,2025-02-04_15h28.55.338,jersey_experiment_5_v3,2023.2.2,Win32,84.74576271,,,,,,,,,,,,,,,,726.9866,728.2805,728.2805,729.6926,return,0.753,,75.52083333,,,,,,FBP-PT-19.png,0.37,1.2,27,0.5,,,,,,,,,,,,,0,37,37,26,1,,,,,,,,,,,,,,,,,,,,,,,,,,,,
,,,,,V3_101,23,M,2025-02-04_15h28.55.338,jersey_experiment_5_v3,2023.2.2,Win32,84.74576271,,,,,,,,,,,,,,,,729.6926,730.9866,730.9866,731.611,return,0.0214,,88.54166667,,,,,,FBP-PT-19.png,0.43,1.2,29,0.5,,,,,,,,,,,,,0,38,38,28,1,,,,,,,,,,,,,,,,,,,,,,,,,,,,
,,,,,V3_101,23,M,2025-02-04_15h28.55.338,jersey_experiment_5_v3,2023.2.2,Win32,84.74576271,,,,,,,,,,,,,,,,731.6112,732.905,732.905,733.6126,return,0.0229,,93.09895833,,,,,,FBP-PT-18.png,0.43,1.2,24,0.5,,,,,,,,,,,,,0,39,39,23,1,,,,,,,,,,,,,,,,,,,,,,,,,,,,
,,,,,V3_101,23,M,2025-02-04_15h28.55.338,jersey_experiment_5_v3,2023.2.2,Win32,84.74576271,,,,,,,,,,,,,,,,733.6127,734.9075,734.9076,735.5991,return,0.0005,,82.03125,,,,,,FBP-RB-19.png,0.4,1.2,58,0.5,,,,,,,,,,,,,0,40,40,57,1,,,,,,,,,,,,,,,,,,,,,,,,,,,,
,,,,,V3_101,23,M,2025-02-04_15h28.55.338,jersey_experiment_5_v3,2023.2.2,Win32,84.74576271,,,,,,,,,,,,,,,,735.5992,737.143,737.143,737.776,return,0.1626,,81.90104167,,,,,,FBP-OG-19.png,0.4,1.2,43,0.75,,,,,,,,,,,,,0,41,41,42,1,,,,,,,,,,,,,,,,,,,,,,,,,,,,
,,,,,V3_101,23,M,2025-02-04_15h28.55.338,jersey_experiment_5_v3,2023.2.2,Win32,84.74576271,,,,,,,,,,,,,,,,737.7761,739.081,739.081,740.3406,return,0.0594,,86.328125,,,,,,FBP-YG-91.png,0.4,1.2,13,0.5,,,,,,,,,,,,,0,42,42,12,1,,,,,,,,,,,,,,,,,,,,,,,,,,,,
,,,,,V3_101,23,M,2025-02-04_15h28.55.338,jersey_experiment_5_v3,2023.2.2,Win32,84.74576271,,,,,,,,,,,,,,,,740.3408,741.6377,741.6378,742.1526,return,0.0684,,75.65104167,,,,,,FBP-YG-81.png,0.37,1.2,7,0.5,,,,,,,,,,,,,0,43,43,6,1,,,,,,,,,,,,,,,,,,,,,,,,,,,,
,,,,,V3_101,23,M,2025-02-04_15h28.55.338,jersey_experiment_5_v3,2023.2.2,Win32,84.74576271,,,,,,,,,,,,,,,,742.1528,743.4479,743.4479,743.9992,return,0.0548,,72.13541667,,,,,,FBP-RB-18.png,0.37,1.2,52,0.5,,,,,,,,,,,,,0,44,44,51,1,,,,,,,,,,,,,,,,,,,,,,,,,,,,
,,,,,V3_101,23,M,2025-02-04_15h28.55.338,jersey_experiment_5_v3,2023.2.2,Win32,84.74576271,,,,,,,,,,,,,,,,743.9993,745.5408,745.5408,746.2259,return,0.0475,,92.83854167,,,,,,FBP-OG-19.png,0.45,1.2,45,0.75,,,,,,,,,,,,,0,45,45,44,1,,,,,,,,,,,,,,,,,,,,,,,,,,,,
,,,,,V3_101,23,M,2025-02-04_15h28.55.338,jersey_experiment_5_v3,2023.2.2,Win32,84.74576271,,,,,,,,,,,,,,,,746.2261,747.5197,747.5198,748.8116,return,0.5649,,60.546875,,,,,,FBP-RB-17.png,0.35,1.2,46,0.5,,,,,,,,,,,,,0,46,46,45,1,,,,,,,,,,,,,,,,,,,,,,,,,,,,
,,,,,V3_101,23,M,2025-02-04_15h28.55.338,jersey_experiment_5_v3,2023.2.2,Win32,84.74576271,,,,,,,,,,,,,,,,748.8117,750.3644,750.3644,751.5997,return,0.6127,,73.30729167,,,,,,FBP-OG-17.png,0.4,1.2,33,0.75,,,,,,,,,,,,,0,47,47,32,1,,,,,,,,,,,,,,,,,,,,,,,,,,,,
,,,,,V3_101,23,M,2025-02-04_15h28.55.338,jersey_experiment_5_v3,2023.2.2,Win32,84.74576271,,,,,,,,,,,,,,,,751.5998,753.1442,753.1442,754.3521,return,0.0708,,64.71354167,,,,,,FBP-OG-18.png,0.37,1.2,37,0.75,,,,,,,,,,,,,0,48,48,36,1,,,,,,,,,,,,,,,,,,,,,,,,,,,,
,,,,,V3_101,23,M,2025-02-04_15h28.55.338,jersey_experiment_5_v3,2023.2.2,Win32,84.74576271,,,,,,,,,,,,,,,,754.3522,755.6612,755.6612,756.9725,return,0.5311,,66.27604167,,,,,,FBP-RB-19.png,0.37,1.2,57,0.5,,,,,,,,,,,,,0,49,49,56,1,,,,,,,,,,,,,,,,,,,,,,,,,,,,
,,,,,V3_101,23,M,2025-02-04_15h28.55.338,jersey_experiment_5_v3,2023.2.2,Win32,84.74576271,,,,,,,,,,,,,,,,756.9727,758.2667,758.2667,759.3725,return,0.6251,,64.84375,,,,,,FBP-PT-17.png,0.35,1.2,16,0.5,,,,,,,,,,,,,0,50,50,15,1,,,,,,,,,,,,,,,,,,,,,,,,,,,,
,,,,,V3_101,23,M,2025-02-04_15h28.55.338,jersey_experiment_5_v3,2023.2.2,Win32,84.74576271,,,,,,,,,,,,,,,,759.3727,760.9295,760.9295,761.9204,return,0.0262,,76.04166667,,,,,,FBP-OG-18.png,0.4,1.2,38,0.75,,,,,,,,,,,,,0,51,51,37,1,,,,,,,,,,,,,,,,,,,,,,,,,,,,
,,,,,V3_101,23,M,2025-02-04_15h28.55.338,jersey_experiment_5_v3,2023.2.2,Win32,84.74576271,,,,,,,,,,,,,,,,761.9206,763.2231,763.2231,763.777,return,0.1072,,69.27083333,,,,,,FBP-RB-19.png,0.35,1.2,56,0.5,,,,,,,,,,,,,0,52,52,55,1,,,,,,,,,,,,,,,,,,,,,,,,,,,,
,,,,,V3_101,23,M,2025-02-04_15h28.55.338,jersey_experiment_5_v3,2023.2.2,Win32,84.74576271,,,,,,,,,,,,,,,,763.7771,765.3297,765.3297,766.0123,return,0.1415,,89.0625,,,,,,FBP-OG-19.png,0.43,1.2,44,0.75,,,,,,,,,,,,,0,53,53,43,1,,,,,,,,,,,,,,,,,,,,,,,,,,,,
,,,,,V3_101,23,M,2025-02-04_15h28.55.338,jersey_experiment_5_v3,2023.2.2,Win32,84.74576271,,,,,,,,,,,,,,,,766.0125,767.5651,767.5651,768.2241,return,0.13,,74.86979167,,,,,,FBP-OG-18.png,0.35,1.2,36,0.75,,,,,,,,,,,,,0,54,54,35,1,,,,,,,,,,,,,,,,,,,,,,,,,,,,
,,,,,V3_101,23,M,2025-02-04_15h28.55.338,jersey_experiment_5_v3,2023.2.2,Win32,84.74576271,,,,,,,,,,,,,,,,768.2243,769.5294,769.5294,770.7529,return,0.1054,,90.49479167,,,,,,FBP-YG-91.png,0.43,1.2,14,0.5,,,,,,,,,,,,,0,55,55,13,1,,,,,,,,,,,,,,,,,,,,,,,,,,,,
,,,,,V3_101,23,M,2025-02-04_15h28.55.338,jersey_experiment_5_v3,2023.2.2,Win32,84.74576271,,,,,,,,,,,,,,,,770.7531,772.0468,772.0468,773.003,return,0.0387,,86.06770833,,,,,,FBP-YG-81.png,0.43,1.2,9,0.5,,,,,,,,,,,,,0,56,56,8,1,,,,,,,,,,,,,,,,,,,,,,,,,,,,
,,,,,V3_101,23,M,2025-02-04_15h28.55.338,jersey_experiment_5_v3,2023.2.2,Win32,84.74576271,,,,,,,,,,,,,,,,773.0032,774.2974,774.2975,774.9562,return,0.0857,,91.40625,,,,,,FBP-RB-19.png,0.45,1.2,60,0.5,,,,,,,,,,,,,0,57,57,59,1,,,,,,,,,,,,,,,,,,,,,,,,,,,,
,,,,,V3_101,23,M,2025-02-04_15h28.55.338,jersey_experiment_5_v3,2023.2.2,Win32,84.74576271,,,,,,,,,,,,,,,,774.9562,776.2485,776.2485,776.7657,return,0.0214,,87.890625,,,,,,FBP-PT-17.png,0.43,1.2,19,0.5,,,,,,,,,,,,,0,58,58,18,1,,,,,,,,,,,,,,,,,,,,,,,,,,,,
,,,,,V3_101,23,M,2025-02-04_15h28.55.338,jersey_experiment_5_v3,2023.2.2,Win32,84.74576271,,,,,,,,,,,,,,,,776.7658,778.0597,778.0597,778.6825,return,0.0792,,91.66666667,,,,,,FBP-YG-81.png,0.45,1.2,10,0.5,,,,,,,,,,,,,0,59,59,9,1,,,,,,,,,,,,,,,,,,,,,,,,,,,,
,,,,,V3_101,23,M,2025-02-04_15h28.55.338,jersey_experiment_5_v3,2023.2.2,Win32,84.74576271,,,,,,,,,,,,,,,,778.6835,779.9766,779.9766,781.3413,return,0.8473,,80.33854167,,,,,,FBP-PT-91.png,0.37,1.2,27,0.5,,,,,,,,,,,,,,,,,,0,0,0,26,1,,,,,,,,,,,,,,,,,,,,,,,
,,,,,V3_101,23,M,2025-02-04_15h28.55.338,jersey_experiment_5_v3,2023.2.2,Win32,84.74576271,,,,,,,,,,,,,,,,781.3415,782.8943,782.8943,783.7305,return,0.0833,,75.390625,,,,,,FBP-OG-81.png,0.37,1.2,37,0.75,,,,,,,,,,,,,,,,,,0,1,1,36,1,,,,,,,,,,,,,,,,,,,,,,,
,,,,,V3_101,23,M,2025-02-04_15h28.55.338,jersey_experiment_5_v3,2023.2.2,Win32,84.74576271,,,,,,,,,,,,,,,,783.7306,785.0354,785.0355,785.577,return,0.0708,,81.51041667,,,,,,FBP-PT-91.png,0.4,1.2,28,0.5,,,,,,,,,,,,,,,,,,0,2,2,27,1,,,,,,,,,,,,,,,,,,,,,,,
,,,,,V3_101,23,M,2025-02-04_15h28.55.338,jersey_experiment_5_v3,2023.2.2,Win32,84.74576271,,,,,,,,,,,,,,,,785.5772,786.8836,786.8836,787.4351,return,0.0468,,90.75520833,,,,,,FBP-RB-91.png,0.45,1.2,60,0.5,,,,,,,,,,,,,,,,,,0,3,3,59,1,,,,,,,,,,,,,,,,,,,,,,,
,,,,,V3_101,23,M,2025-02-04_15h28.55.338,jersey_experiment_5_v3,2023.2.2,Win32,84.74576271,,,,,,,,,,,,,,,,787.4353,788.9887,788.9888,789.3855,return,0.0423,,91.796875,,,,,,FBP-OG-91.png,0.45,1.2,45,0.75,,,,,,,,,,,,,,,,,,0,4,4,44,1,,,,,,,,,,,,,,,,,,,,,,,
,,,,,V3_101,23,M,2025-02-04_15h28.55.338,jersey_experiment_5_v3,2023.2.2,Win32,84.74576271,,,,,,,,,,,,,,,,789.3857,790.6827,790.6828,792.3452,return,0.9328,,65.88541667,,,,,,FBP-RB-91.png,0.35,1.2,56,0.5,,,,,,,,,,,,,,,,,,0,5,5,55,1,,,,,,,,,,,,,,,,,,,,,,,
,,,,,V3_101,23,M,2025-02-04_15h28.55.338,jersey_experiment_5_v3,2023.2.2,Win32,84.74576271,,,,,,,,,,,,,,,,792.3453,793.6391,793.6391,794.3302,return,0.0238,,91.66666667,,,,,,FBP-PT-71.png,0.43,1.2,19,0.5,,,,,,,,,,,,,,,,,,0,6,6,18,1,,,,,,,,,,,,,,,,,,,,,,,
,,,,,V3_101,23,M,2025-02-04_15h28.55.338,jersey_experiment_5_v3,2023.2.2,Win32,84.74576271,,,,,,,,,,,,,,,,794.3303,795.6393,795.6393,796.51,return,0.4153,,80.078125,,,,,,FBP-PT-71.png,0.4,1.2,18,0.5,,,,,,,,,,,,,,,,,,0,7,7,17,1,,,,,,,,,,,,,,,,,,,,,,,
,,,,,V3_101,23,M,2025-02-04_15h28.55.338,jersey_experiment_5_v3,2023.2.2,Win32,84.74576271,,,,,,,,,,,,,,,,796.5103,797.813,797.813,798.722,return,0.4623,,88.41145833,,,,,,FBP-YG-17.png,0.43,1.2,4,0.5,,,,,,,,,,,,,,,,,,0,8,8,3,1,,,,,,,,,,,,,,,,,,,,,,,
,,,,,V3_101,23,M,2025-02-04_15h28.55.338,jersey_experiment_5_v3,2023.2.2,Win32,84.74576271,,,,,,,,,,,,,,,,798.722,800.2723,800.2724,801.1455,return,0.0861,,69.79166667,,,,,,FBP-OG-91.png,0.35,1.2,41,0.75,,,,,,,,,,,,,,,,,,0,9,9,40,1,,,,,,,,,,,,,,,,,,,,,,,
,,,,,V3_101,23,M,2025-02-04_15h28.55.338,jersey_experiment_5_v3,2023.2.2,Win32,84.74576271,,,,,,,,,,,,,,,,801.1457,802.4395,802.4395,803.5507,return,0.5208,,85.15625,,,,,,FBP-RB-81.png,0.43,1.2,54,0.5,,,,,,,,,,,,,,,,,,0,10,10,53,1,,,,,,,,,,,,,,,,,,,,,,,
,,,,,V3_101,23,M,2025-02-04_15h28.55.338,jersey_experiment_5_v3,2023.2.2,Win32,84.74576271,,,,,,,,,,,,,,,,803.551,805.107,805.1071,805.9775,return,0.4708,,79.6875,,,,,,FBP-OG-81.png,0.4,1.2,38,0.75,,,,,,,,,,,,,,,,,,0,11,11,37,1,,,,,,,,,,,,,,,,,,,,,,,
,,,,,V3_101,23,M,2025-02-04_15h28.55.338,jersey_experiment_5_v3,2023.2.2,Win32,84.74576271,,,,,,,,,,,,,,,,805.9777,807.2856,807.2856,807.9509,return,0.2984,,76.69270833,,,,,,FBP-YG-19.png,0.4,1.2,13,0.5,,,,,,,,,,,,,,,,,,0,12,12,12,1,,,,,,,,,,,,,,,,,,,,,,,
,,,,,V3_101,23,M,2025-02-04_15h28.55.338,jersey_experiment_5_v3,2023.2.2,Win32,84.74576271,,,,,,,,,,,,,,,,807.9512,809.2481,809.2481,811.9459,return,1.8851,,91.27604167,,,,,,FBP-YG-18.png,0.45,1.2,10,0.5,,,,,,,,,,,,,,,,,,0,13,13,9,1,,,,,,,,,,,,,,,,,,,,,,,
,,,,,V3_101,23,M,2025-02-04_15h28.55.338,jersey_experiment_5_v3,2023.2.2,Win32,84.74576271,,,,,,,,,,,,,,,,811.946,813.4988,813.4988,814.2019,return,0.3033,,79.03645833,,,,,,FBP-OG-71.png,0.4,1.2,33,0.75,,,,,,,,,,,,,,,,,,0,14,14,32,1,,,,,,,,,,,,,,,,,,,,,,,
,,,,,V3_101,23,M,2025-02-04_15h28.55.338,jersey_experiment_5_v3,2023.2.2,Win32,84.74576271,,,,,,,,,,,,,,,,814.202,815.4964,815.4964,816.3933,return,0.4387,,63.28125,,,,,,FBP-YG-19.png,0.35,1.2,11,0.5,,,,,,,,,,,,,,,,,,0,15,15,10,1,,,,,,,,,,,,,,,,,,,,,,,
,,,,,V3_101,23,M,2025-02-04_15h28.55.338,jersey_experiment_5_v3,2023.2.2,Win32,84.74576271,,,,,,,,,,,,,,,,816.3934,817.9436,817.9437,818.6495,return,0.036,,58.203125,,,,,,FBP-OG-71.png,0.35,1.2,31,0.75,,,,,,,,,,,,,,,,,,0,16,16,30,1,,,,,,,,,,,,,,,,,,,,,,,
,,,,,V3_101,23,M,2025-02-04_15h28.55.338,jersey_experiment_5_v3,2023.2.2,Win32,84.74576271,,,,,,,,,,,,,,,,818.6497,820.2023,820.2023,820.5898,return,0.2114,,55.98958333,,,,,,FBP-OG-71.png,0.37,1.2,32,0.75,,,,,,,,,,,,,,,,,,0,17,17,31,1,,,,,,,,,,,,,,,,,,,,,,,
,,,,,V3_101,23,M,2025-02-04_15h28.55.338,jersey_experiment_5_v3,2023.2.2,Win32,84.74576271,,,,,,,,,,,,,,,,820.59,821.884,821.884,824.5564,return,1.5666,,95.3125,,,,,,FBP-PT-91.png,0.45,1.2,30,0.5,,,,,,,,,,,,,,,,,,0,18,18,29,1,,,,,,,,,,,,,,,,,,,,,,,
,,,,,V3_101,23,M,2025-02-04_15h28.55.338,jersey_experiment_5_v3,2023.2.2,Win32,84.74576271,,,,,,,,,,,,,,,,824.5565,825.8501,825.8501,826.7674,return,0.0932,,94.66145833,,,,,,FBP-YG-19.png,0.45,1.2,15,0.5,,,,,,,,,,,,,,,,,,0,19,19,14,1,,,,,,,,,,,,,,,,,,,,,,,
,,,,,V3_101,23,M,2025-02-04_15h28.55.338,jersey_experiment_5_v3,2023.2.2,Win32,84.74576271,,,,,,,,,,,,,,,,826.7675,828.3202,828.3202,828.8725,return,0.0348,,84.89583333,,,,,,FBP-OG-81.png,0.43,1.2,39,0.75,,,,,,,,,,,,,,,,,,0,20,20,38,1,,,,,,,,,,,,,,,,,,,,,,,
,,,,,V3_101,23,M,2025-02-04_15h28.55.338,jersey_experiment_5_v3,2023.2.2,Win32,84.74576271,,,,,,,,,,,,,,,,828.8726,830.1667,830.1667,831.0373,return,0.0346,,83.07291667,,,,,,FBP-YG-18.png,0.43,1.2,9,0.5,,,,,,,,,,,,,,,,,,0,21,21,8,1,,,,,,,,,,,,,,,,,,,,,,,
,,,,,V3_101,23,M,2025-02-04_15h28.55.338,jersey_experiment_5_v3,2023.2.2,Win32,84.74576271,,,,,,,,,,,,,,,,831.0374,832.3317,832.3317,832.9319,return,0.0209,,75,,,,,,FBP-YG-18.png,0.37,1.2,7,0.5,,,,,,,,,,,,,,,,,,0,22,22,6,1,,,,,,,,,,,,,,,,,,,,,,,
,,,,,V3_101,23,M,2025-02-04_15h28.55.338,jersey_experiment_5_v3,2023.2.2,Win32,84.74576271,,,,,,,,,,,,,,,,832.9321,834.2378,834.2378,834.5905,return,0.0708,,76.171875,,,,,,FBP-PT-81.png,0.4,1.2,23,0.5,,,,,,,,,,,,,,,,,,0,23,23,22,1,,,,,,,,,,,,,,,,,,,,,,,
,,,,,V3_101,23,M,2025-02-04_15h28.55.338,jersey_experiment_5_v3,2023.2.2,Win32,84.74576271,,,,,,,,,,,,,,,,834.5907,836.1325,836.1325,836.559,return,0.0389,,91.92708333,,,,,,FBP-OG-71.png,0.45,1.2,35,0.75,,,,,,,,,,,,,,,,,,0,24,24,34,1,,,,,,,,,,,,,,,,,,,,,,,
,,,,,V3_101,23,M,2025-02-04_15h28.55.338,jersey_experiment_5_v3,2023.2.2,Win32,84.74576271,,,,,,,,,,,,,,,,836.5592,837.8528,837.8528,838.4496,return,0.0324,,76.82291667,,,,,,FBP-RB-91.png,0.37,1.2,57,0.5,,,,,,,,,,,,,,,,,,0,25,25,56,1,,,,,,,,,,,,,,,,,,,,,,,
,,,,,V3_101,23,M,2025-02-04_15h28.55.338,jersey_experiment_5_v3,2023.2.2,Win32,84.74576271,,,,,,,,,,,,,,,,838.4498,839.7438,839.7439,840.45,return,0.1415,,73.56770833,,,,,,FBP-PT-81.png,0.35,1.2,21,0.5,,,,,,,,,,,,,,,,,,0,26,26,20,1,,,,,,,,,,,,,,,,,,,,,,,
,,,,,V3_101,23,M,2025-02-04_15h28.55.338,jersey_experiment_5_v3,2023.2.2,Win32,84.74576271,,,,,,,,,,,,,,,,840.4501,841.7588,841.7588,842.4172,return,0.062,,90.234375,,,,,,FBP-PT-91.png,0.43,1.2,29,0.5,,,,,,,,,,,,,,,,,,0,27,27,28,1,,,,,,,,,,,,,,,,,,,,,,,
,,,,,V3_101,23,M,2025-02-04_15h28.55.338,jersey_experiment_5_v3,2023.2.2,Win32,84.74576271,,,,,,,,,,,,,,,,842.4173,843.9705,843.9706,844.5565,return,0.0209,,69.40104167,,,,,,FBP-OG-81.png,0.35,1.2,36,0.75,,,,,,,,,,,,,,,,,,0,28,28,35,1,,,,,,,,,,,,,,,,,,,,,,,
,,,,,V3_101,23,M,2025-02-04_15h28.55.338,jersey_experiment_5_v3,2023.2.2,Win32,84.74576271,,,,,,,,,,,,,,,,844.5565,845.8613,845.8613,846.3919,return,0.0596,,66.27604167,,,,,,FBP-YG-19.png,0.37,1.2,12,0.5,,,,,,,,,,,,,,,,,,0,29,29,11,1,,,,,,,,,,,,,,,,,,,,,,,
,,,,,V3_101,23,M,2025-02-04_15h28.55.338,jersey_experiment_5_v3,2023.2.2,Win32,84.74576271,,,,,,,,,,,,,,,,846.392,847.6968,847.6968,848.3238,return,0.0152,,60.546875,,,,,,FBP-PT-91.png,0.35,1.2,26,0.5,,,,,,,,,,,,,,,,,,0,30,30,25,1,,,,,,,,,,,,,,,,,,,,,,,
,,,,,V3_101,23,M,2025-02-04_15h28.55.338,jersey_experiment_5_v3,2023.2.2,Win32,84.74576271,,,,,,,,,,,,,,,,848.3239,849.6176,849.6177,850.2348,return,0.1121,,88.93229167,,,,,,FBP-RB-71.png,0.43,1.2,49,0.5,,,,,,,,,,,,,,,,,,0,31,31,48,1,,,,,,,,,,,,,,,,,,,,,,,
,,,,,V3_101,23,M,2025-02-04_15h28.55.338,jersey_experiment_5_v3,2023.2.2,Win32,84.74576271,,,,,,,,,,,,,,,,850.235,851.5322,851.5322,852.1408,return,0.0868,,73.17708333,,,,,,FBP-YG-18.png,0.35,1.2,6,0.5,,,,,,,,,,,,,,,,,,0,32,32,5,1,,,,,,,,,,,,,,,,,,,,,,,
,,,,,V3_101,23,M,2025-02-04_15h28.55.338,jersey_experiment_5_v3,2023.2.2,Win32,84.74576271,,,,,,,,,,,,,,,,852.141,853.6884,853.6885,854.2979,return,0.0359,,92.70833333,,,,,,FBP-OG-81.png,0.45,1.2,40,0.75,,,,,,,,,,,,,,,,,,0,33,33,39,1,,,,,,,,,,,,,,,,,,,,,,,
,,,,,V3_101,23,M,2025-02-04_15h28.55.338,jersey_experiment_5_v3,2023.2.2,Win32,84.74576271,,,,,,,,,,,,,,,,854.2981,855.5921,855.5921,856.1594,return,0.0474,,91.66666667,,,,,,FBP-PT-71.png,0.45,1.2,20,0.5,,,,,,,,,,,,,,,,,,0,34,34,19,1,,,,,,,,,,,,,,,,,,,,,,,
,,,,,V3_101,23,M,2025-02-04_15h28.55.338,jersey_experiment_5_v3,2023.2.2,Win32,84.74576271,,,,,,,,,,,,,,,,856.1596,857.4522,857.4523,859.0856,return,0.259,,67.83854167,,,,,,FBP-YG-17.png,0.35,1.2,1,0.5,,,,,,,,,,,,,,,,,,0,35,35,0,1,,,,,,,,,,,,,,,,,,,,,,,
,,,,,V3_101,23,M,2025-02-04_15h28.55.338,jersey_experiment_5_v3,2023.2.2,Win32,84.74576271,,,,,,,,,,,,,,,,859.0856,860.3797,860.3797,860.8738,return,0.0819,,89.453125,,,,,,FBP-PT-81.png,0.43,1.2,24,0.5,,,,,,,,,,,,,,,,,,0,36,36,23,1,,,,,,,,,,,,,,,,,,,,,,,
,,,,,V3_101,23,M,2025-02-04_15h28.55.338,jersey_experiment_5_v3,2023.2.2,Win32,84.74576271,,,,,,,,,,,,,,,,860.874,862.1829,862.183,862.5765,return,0.0366,,83.07291667,,,,,,FBP-YG-17.png,0.4,1.2,3,0.5,,,,,,,,,,,,,,,,,,0,37,37,2,1,,,,,,,,,,,,,,,,,,,,,,,
,,,,,V3_101,23,M,2025-02-04_15h28.55.338,jersey_experiment_5_v3,2023.2.2,Win32,84.74576271,,,,,,,,,,,,,,,,862.5767,863.8743,863.8743,864.3944,return,0.0147,,94.01041667,,,,,,FBP-RB-71.png,0.45,1.2,50,0.5,,,,,,,,,,,,,,,,,,0,38,38,49,1,,,,,,,,,,,,,,,,,,,,,,,
,,,,,V3_101,23,M,2025-02-04_15h28.55.338,jersey_experiment_5_v3,2023.2.2,Win32,84.74576271,,,,,,,,,,,,,,,,864.3946,865.9477,865.9477,867.1767,return,0.938,,76.43229167,,,,,,FBP-OG-91.png,0.37,1.2,42,0.75,,,,,,,,,,,,,,,,,,0,39,39,41,1,,,,,,,,,,,,,,,,,,,,,,,
,,,,,V3_101,23,M,2025-02-04_15h28.55.338,jersey_experiment_5_v3,2023.2.2,Win32,84.74576271,,,,,,,,,,,,,,,,867.1769,868.474,868.4741,869.8988,return,0.8452,,84.11458333,,,,,,FBP-RB-91.png,0.4,1.2,58,0.5,,,,,,,,,,,,,,,,,,0,40,40,57,1,,,,,,,,,,,,,,,,,,,,,,,
,,,,,V3_101,23,M,2025-02-04_15h28.55.338,jersey_experiment_5_v3,2023.2.2,Win32,84.74576271,,,,,,,,,,,,,,,,869.899,871.1951,871.1952,871.6508,return,0.0705,,92.83854167,,,,,,FBP-RB-81.png,0.45,1.2,55,0.5,,,,,,,,,,,,,,,,,,0,41,41,54,1,,,,,,,,,,,,,,,,,,,,,,,
,,,,,V3_101,23,M,2025-02-04_15h28.55.338,jersey_experiment_5_v3,2023.2.2,Win32,84.74576271,,,,,,,,,,,,,,,,871.651,872.9451,872.9452,873.3454,return,0.0563,,80.59895833,,,,,,FBP-RB-81.png,0.35,1.2,51,0.5,,,,,,,,,,,,,,,,,,0,42,42,50,1,,,,,,,,,,,,,,,,,,,,,,,
,,,,,V3_101,23,M,2025-02-04_15h28.55.338,jersey_experiment_5_v3,2023.2.2,Win32,84.74576271,,,,,,,,,,,,,,,,873.3455,874.6475,874.6476,875.3888,return,0.1352,,77.08333333,,,,,,FBP-PT-71.png,0.37,1.2,17,0.5,,,,,,,,,,,,,,,,,,0,43,43,16,1,,,,,,,,,,,,,,,,,,,,,,,
,,,,,V3_101,23,M,2025-02-04_15h28.55.338,jersey_experiment_5_v3,2023.2.2,Win32,84.74576271,,,,,,,,,,,,,,,,875.389,876.9462,876.9463,877.436,return,0.1456,,89.58333333,,,,,,FBP-OG-71.png,0.43,1.2,34,0.75,,,,,,,,,,,,,,,,,,0,44,44,33,1,,,,,,,,,,,,,,,,,,,,,,,
,,,,,V3_101,23,M,2025-02-04_15h28.55.338,jersey_experiment_5_v3,2023.2.2,Win32,84.74576271,,,,,,,,,,,,,,,,877.4362,878.7301,878.7301,879.4309,return,0.1416,,94.53125,,,,,,FBP-YG-17.png,0.45,1.2,5,0.5,,,,,,,,,,,,,,,,,,0,45,45,4,1,,,,,,,,,,,,,,,,,,,,,,,
,,,,,V3_101,23,M,2025-02-04_15h28.55.338,jersey_experiment_5_v3,2023.2.2,Win32,84.74576271,,,,,,,,,,,,,,,,879.431,880.7248,880.7248,881.3452,return,0.0793,,78.515625,,,,,,FBP-PT-71.png,0.35,1.2,16,0.5,,,,,,,,,,,,,,,,,,0,46,46,15,1,,,,,,,,,,,,,,,,,,,,,,,
,,,,,V3_101,23,M,2025-02-04_15h28.55.338,jersey_experiment_5_v3,2023.2.2,Win32,84.74576271,,,,,,,,,,,,,,,,881.3453,882.6394,882.6394,883.2126,return,0.0751,,75.390625,,,,,,FBP-RB-71.png,0.35,1.2,46,0.5,,,,,,,,,,,,,,,,,,0,47,47,45,1,,,,,,,,,,,,,,,,,,,,,,,
,,,,,V3_101,23,M,2025-02-04_15h28.55.338,jersey_experiment_5_v3,2023.2.2,Win32,84.74576271,,,,,,,,,,,,,,,,883.2128,884.5132,884.5133,884.9111,return,0.0216,,87.63020833,,,,,,FBP-YG-18.png,0.4,1.2,8,0.5,,,,,,,,,,,,,,,,,,0,48,48,7,1,,,,,,,,,,,,,,,,,,,,,,,
,,,,,V3_101,23,M,2025-02-04_15h28.55.338,jersey_experiment_5_v3,2023.2.2,Win32,84.74576271,,,,,,,,,,,,,,,,884.9112,886.2067,886.2067,886.7303,return,0.1127,,92.96875,,,,,,FBP-YG-19.png,0.43,1.2,14,0.5,,,,,,,,,,,,,,,,,,0,49,49,13,1,,,,,,,,,,,,,,,,,,,,,,,
,,,,,V3_101,23,M,2025-02-04_15h28.55.338,jersey_experiment_5_v3,2023.2.2,Win32,84.74576271,,,,,,,,,,,,,,,,886.7305,888.0248,888.0248,888.4899,return,0.0005,,96.875,,,,,,FBP-PT-81.png,0.45,1.2,25,0.5,,,,,,,,,,,,,,,,,,0,50,50,24,1,,,,,,,,,,,,,,,,,,,,,,,
,,,,,V3_101,23,M,2025-02-04_15h28.55.338,jersey_experiment_5_v3,2023.2.2,Win32,84.74576271,,,,,,,,,,,,,,,,888.4902,889.7841,889.7841,891.0777,return,0.8146,,75.65104167,,,,,,FBP-PT-81.png,0.37,1.2,22,0.5,,,,,,,,,,,,,,,,,,0,51,51,21,1,,,,,,,,,,,,,,,,,,,,,,,
,,,,,V3_101,23,M,2025-02-04_15h28.55.338,jersey_experiment_5_v3,2023.2.2,Win32,84.74576271,,,,,,,,,,,,,,,,891.0779,892.3723,892.3724,893.0774,return,0.0958,,75,,,,,,FBP-RB-71.png,0.37,1.2,47,0.5,,,,,,,,,,,,,,,,,,0,52,52,46,1,,,,,,,,,,,,,,,,,,,,,,,
,,,,,V3_101,23,M,2025-02-04_15h28.55.338,jersey_experiment_5_v3,2023.2.2,Win32,84.74576271,,,,,,,,,,,,,,,,893.0776,894.6313,894.6313,895.0549,return,0.1203,,88.54166667,,,,,,FBP-OG-91.png,0.43,1.2,44,0.75,,,,,,,,,,,,,,,,,,0,53,53,43,1,,,,,,,,,,,,,,,,,,,,,,,
,,,,,V3_101,23,M,2025-02-04_15h28.55.338,jersey_experiment_5_v3,2023.2.2,Win32,84.74576271,,,,,,,,,,,,,,,,895.0551,896.6078,896.6078,897.1702,return,0.2096,,87.890625,,,,,,FBP-OG-91.png,0.4,1.2,43,0.75,,,,,,,,,,,,,,,,,,0,54,54,42,1,,,,,,,,,,,,,,,,,,,,,,,
,,,,,V3_101,23,M,2025-02-04_15h28.55.338,jersey_experiment_5_v3,2023.2.2,Win32,84.74576271,,,,,,,,,,,,,,,,897.1703,898.4752,898.4752,900.3256,return,0.9566,,81.640625,,,,,,FBP-RB-71.png,0.4,1.2,48,0.5,,,,,,,,,,,,,,,,,,0,55,55,47,1,,,,,,,,,,,,,,,,,,,,,,,
,,,,,V3_101,23,M,2025-02-04_15h28.55.338,jersey_experiment_5_v3,2023.2.2,Win32,84.74576271,,,,,,,,,,,,,,,,900.3258,901.6281,901.6282,903.6174,return,1.1422,,75.26041667,,,,,,FBP-YG-17.png,0.37,1.2,2,0.5,,,,,,,,,,,,,,,,,,0,56,56,1,1,,,,,,,,,,,,,,,,,,,,,,,
,,,,,V3_101,23,M,2025-02-04_15h28.55.338,jersey_experiment_5_v3,2023.2.2,Win32,84.74576271,,,,,,,,,,,,,,,,903.6176,904.9228,904.9229,905.3847,return,0.1092,,80.98958333,,,,,,FBP-RB-81.png,0.4,1.2,53,0.5,,,,,,,,,,,,,,,,,,0,57,57,52,1,,,,,,,,,,,,,,,,,,,,,,,
,,,,,V3_101,23,M,2025-02-04_15h28.55.338,jersey_experiment_5_v3,2023.2.2,Win32,84.74576271,,,,,,,,,,,,,,,,905.3849,906.6874,906.6874,907.832,return,0.5802,,72.78645833,,,,,,FBP-RB-81.png,0.37,1.2,52,0.5,,,,,,,,,,,,,,,,,,0,58,58,51,1,,,,,,,,,,,,,,,,,,,,,,,
,,,,,V3_101,23,M,2025-02-04_15h28.55.338,jersey_experiment_5_v3,2023.2.2,Win32,84.74576271,,,,,,,,,,,,,,,,907.8322,909.1258,909.1258,910.429,return,0.8005,,88.15104167,,,,,,FBP-RB-91.png,0.43,1.2,59,0.5,,,,,,,,,,,,,,,,,,0,59,59,58,1,,,,,,,,,,,,,,,,,,,,,,,
,,,,,V3_101,23,M,2025-02-04_15h28.55.338,jersey_experiment_5_v3,2023.2.2,Win32,84.74576271,,,,,,,,,,,,,,,,,,,,,,,,,,,,,,,,,,,,,,,,,,,,,,,,,,,,,,,,910.429,913.9585,return,3.5171,,,,,,,,,,,,,,,,,,,
,,,,,V3_101,23,M,2025-02-04_15h28.55.338,jersey_experiment_5_v3,2023.2.2,Win32,84.74576271,,,,,,,,,,,,,,,,,,,,,,,,,,,,,,,,,,,,,,,,,,,,,,,,,,,,,,,,,,,,,913.9586,917.6912,1,2.675,return,1.0379,,,,,,,,,,,,
,,,,,V3_101,23,M,2025-02-04_15h28.55.338,jersey_experiment_5_v3,2023.2.2,Win32,84.74576271,,,,,,,,,,,,,,,,,,,,,,,,,,,,,,,,,,,,,,,,,,,,,,,,,,,,,,,,,,,,,,,,,,,,917.6913,1008.5887,I feel it may have been a study about how I assigned ratings relative to the trial immediately preceding it.,right,70.1931,,,,,,
,,,,,V3_101,23,M,2025-02-04_15h28.55.338,jersey_experiment_5_v3,2023.2.2,Win32,84.74576271,,,,,,,,,,,,,,,,,,,,,,,,,,,,,,,,,,,,,,,,,,,,,,,,,,,,,,,,,,,,,,,,,,,,,,,,,,1008.5888,1012.3513,return,3.754,