requirements.started,requirements.stopped,key_resp_3.keys,key_resp_3.rt,key_resp_3.duration,Subject ID,Age,Gender,date,expName,psychopyVersion,OS,frameRate,instructions1.started,instructions1.stopped,key_resp.keys,key_resp.rt,key_resp.duration,example.started,example.stopped,enter_2.keys,enter_2.rt,enter_2.duration,instructions2.started,instructions2.stopped,enter_3.keys,enter_3.rt,enter_3.duration,image.started,image.stopped,slider_2.started,slider_2.stopped,next.keys,next.rt,next.duration,slider.response,trial_block_1.thisRepN,trial_block_1.thisTrialN,trial_block_1.thisN,trial_block_1.thisIndex,trial_block_1.ran,Path,Width,Height,Index,Duration,trial_block_2.thisRepN,trial_block_2.thisTrialN,trial_block_2.thisN,trial_block_2.thisIndex,trial_block_2.ran,rest_break.started,rest_break.stopped,end_break.started,end_break.stopped,key_resp_5.keys,key_resp_5.rt,key_resp_5.duration,trial_block_3.thisRepN,trial_block_3.thisTrialN,trial_block_3.thisN,trial_block_3.thisIndex,trial_block_3.ran,trial_block_4.thisRepN,trial_block_4.thisTrialN,trial_block_4.thisN,trial_block_4.thisIndex,trial_block_4.ran,questions_intro.started,questions_intro.stopped,enter_12.keys,enter_12.rt,enter_12.duration,question2.started,question2.stopped,question_doingbest.response,question_doingbest.rt,enter_15.keys,enter_15.rt,enter_15.duration,pattern.started,pattern.stopped,pattern_2.text,enter_17.keys,enter_17.rt,enter_17.duration,thankyou.started,thankyou.stopped,enter_14.keys,enter_14.rt,enter_14.duration
0,9.849,return,9.8434,,V3_110,20,Female,2025-02-06_16h32.34.027,jersey_experiment_5_v3,2023.2.2,Win32,84.74576271,,,,,,,,,,,,,,,,,,,,,,,,,,,,,,,,,,,,,,,,,,,,,,,,,,,,,,,,,,,,,,,,,,,,,,,,,,,,,,
,,,,,V3_110,20,Female,2025-02-06_16h32.34.027,jersey_experiment_5_v3,2023.2.2,Win32,84.74576271,9.849,18.0281,return,8.1649,,,,,,,,,,,,,,,,,,,,,,,,,,,,,,,,,,,,,,,,,,,,,,,,,,,,,,,,,,,,,,,,,,,,,,,,,,
,,,,,V3_110,20,Female,2025-02-06_16h32.34.027,jersey_experiment_5_v3,2023.2.2,Win32,84.74576271,,,,,,18.0282,23.1518,return,5.0916,,,,,,,,,,,,,,,,,,,,,,,,,,,,,,,,,,,,,,,,,,,,,,,,,,,,,,,,,,,,,,,,,,,,,
,,,,,V3_110,20,Female,2025-02-06_16h32.34.027,jersey_experiment_5_v3,2023.2.2,Win32,84.74576271,,,,,,,,,,,23.1519,47.0704,return,23.901,,,,,,,,,,,,,,,,,,,,,,,,,,,,,,,,,,,,,,,,,,,,,,,,,,,,,,,,,,,,,,,,
,,,,,V3_110,20,Female,2025-02-06_16h32.34.027,jersey_experiment_5_v3,2023.2.2,Win32,84.74576271,,,,,,,,,,,,,,,,47.0726,48.6176,48.6176,94.2249,return,12.9572,,74.86979167,0,0,0,27,1,FBP-PT-19.png,0.4,1.2,28,0.75,,,,,,,,,,,,,,,,,,,,,,,,,,,,,,,,,,,,,,,,,,,,,
,,,,,V3_110,20,Female,2025-02-06_16h32.34.027,jersey_experiment_5_v3,2023.2.2,Win32,84.74576271,,,,,,,,,,,,,,,,94.2253,95.778,95.778,103.5899,return,0.9173,,49.21875,0,1,1,51,1,FBP-RB-18.png,0.37,1.2,52,0.75,,,,,,,,,,,,,,,,,,,,,,,,,,,,,,,,,,,,,,,,,,,,,
,,,,,V3_110,20,Female,2025-02-06_16h32.34.027,jersey_experiment_5_v3,2023.2.2,Win32,84.74576271,,,,,,,,,,,,,,,,103.5902,105.1427,105.1428,109.3077,return,2.0447,,75.26041667,0,2,2,23,1,FBP-PT-18.png,0.43,1.2,24,0.75,,,,,,,,,,,,,,,,,,,,,,,,,,,,,,,,,,,,,,,,,,,,,
,,,,,V3_110,20,Female,2025-02-06_16h32.34.027,jersey_experiment_5_v3,2023.2.2,Win32,84.74576271,,,,,,,,,,,,,,,,109.308,110.8606,110.8606,113.3666,return,1.044,,74.47916667,0,3,3,58,1,FBP-RB-19.png,0.43,1.2,59,0.75,,,,,,,,,,,,,,,,,,,,,,,,,,,,,,,,,,,,,,,,,,,,,
,,,,,V3_110,20,Female,2025-02-06_16h32.34.027,jersey_experiment_5_v3,2023.2.2,Win32,84.74576271,,,,,,,,,,,,,,,,113.3668,114.9196,114.9197,117.1316,return,0.715,,74.47916667,0,4,4,13,1,FBP-YG-91.png,0.43,1.2,14,0.75,,,,,,,,,,,,,,,,,,,,,,,,,,,,,,,,,,,,,,,,,,,,,
,,,,,V3_110,20,Female,2025-02-06_16h32.34.027,jersey_experiment_5_v3,2023.2.2,Win32,84.74576271,,,,,,,,,,,,,,,,117.1319,118.6845,118.6845,121.1081,return,0.8344,,74.47916667,0,5,5,12,1,FBP-YG-91.png,0.4,1.2,13,0.75,,,,,,,,,,,,,,,,,,,,,,,,,,,,,,,,,,,,,,,,,,,,,
,,,,,V3_110,20,Female,2025-02-06_16h32.34.027,jersey_experiment_5_v3,2023.2.2,Win32,84.74576271,,,,,,,,,,,,,,,,121.1084,122.403,122.403,125.1201,return,0.7329,,25,0,6,6,35,1,FBP-OG-18.png,0.35,1.2,36,0.5,,,,,,,,,,,,,,,,,,,,,,,,,,,,,,,,,,,,,,,,,,,,,
,,,,,V3_110,20,Female,2025-02-06_16h32.34.027,jersey_experiment_5_v3,2023.2.2,Win32,84.74576271,,,,,,,,,,,,,,,,125.1203,126.6729,126.673,130.0849,return,1.8016,,73.828125,0,7,7,57,1,FBP-RB-19.png,0.4,1.2,58,0.75,,,,,,,,,,,,,,,,,,,,,,,,,,,,,,,,,,,,,,,,,,,,,
,,,,,V3_110,20,Female,2025-02-06_16h32.34.027,jersey_experiment_5_v3,2023.2.2,Win32,84.74576271,,,,,,,,,,,,,,,,130.0852,131.6379,131.638,133.4146,return,0.7883,,74.34895833,0,8,8,0,1,FBP-YG-71.png,0.35,1.2,1,0.75,,,,,,,,,,,,,,,,,,,,,,,,,,,,,,,,,,,,,,,,,,,,,
,,,,,V3_110,20,Female,2025-02-06_16h32.34.027,jersey_experiment_5_v3,2023.2.2,Win32,84.74576271,,,,,,,,,,,,,,,,133.4148,134.9676,134.9677,137.4381,return,0.8539,,74.609375,0,9,9,16,1,FBP-PT-17.png,0.37,1.2,17,0.75,,,,,,,,,,,,,,,,,,,,,,,,,,,,,,,,,,,,,,,,,,,,,
,,,,,V3_110,20,Female,2025-02-06_16h32.34.027,jersey_experiment_5_v3,2023.2.2,Win32,84.74576271,,,,,,,,,,,,,,,,137.4384,138.9911,138.9912,141.7912,return,0.8996,,25,0,10,10,15,1,FBP-PT-17.png,0.35,1.2,16,0.75,,,,,,,,,,,,,,,,,,,,,,,,,,,,,,,,,,,,,,,,,,,,,
,,,,,V3_110,20,Female,2025-02-06_16h32.34.027,jersey_experiment_5_v3,2023.2.2,Win32,84.74576271,,,,,,,,,,,,,,,,141.7917,143.0857,143.0857,147.2151,return,0.8965,,99.86979167,0,11,11,43,1,FBP-OG-19.png,0.43,1.2,44,0.5,,,,,,,,,,,,,,,,,,,,,,,,,,,,,,,,,,,,,,,,,,,,,
,,,,,V3_110,20,Female,2025-02-06_16h32.34.027,jersey_experiment_5_v3,2023.2.2,Win32,84.74576271,,,,,,,,,,,,,,,,147.2153,148.5091,148.5091,150.5798,return,0.9315,,99.86979167,0,12,12,34,1,FBP-OG-17.png,0.45,1.2,35,0.5,,,,,,,,,,,,,,,,,,,,,,,,,,,,,,,,,,,,,,,,,,,,,
,,,,,V3_110,20,Female,2025-02-06_16h32.34.027,jersey_experiment_5_v3,2023.2.2,Win32,84.74576271,,,,,,,,,,,,,,,,150.58,152.1327,152.1327,154.3211,return,0.9566,,74.34895833,0,13,13,56,1,FBP-RB-19.png,0.37,1.2,57,0.75,,,,,,,,,,,,,,,,,,,,,,,,,,,,,,,,,,,,,,,,,,,,,
,,,,,V3_110,20,Female,2025-02-06_16h32.34.027,jersey_experiment_5_v3,2023.2.2,Win32,84.74576271,,,,,,,,,,,,,,,,154.3214,155.874,155.8741,158.7213,return,0.896,,99.47916667,0,14,14,3,1,FBP-YG-71.png,0.43,1.2,4,0.75,,,,,,,,,,,,,,,,,,,,,,,,,,,,,,,,,,,,,,,,,,,,,
,,,,,V3_110,20,Female,2025-02-06_16h32.34.027,jersey_experiment_5_v3,2023.2.2,Win32,84.74576271,,,,,,,,,,,,,,,,158.7217,160.0155,160.0155,163.6155,return,0.8171,,50.52083333,0,15,15,31,1,FBP-OG-17.png,0.37,1.2,32,0.5,,,,,,,,,,,,,,,,,,,,,,,,,,,,,,,,,,,,,,,,,,,,,
,,,,,V3_110,20,Female,2025-02-06_16h32.34.027,jersey_experiment_5_v3,2023.2.2,Win32,84.74576271,,,,,,,,,,,,,,,,163.6158,165.1569,165.157,167.0392,return,0.9094,,99.47916667,0,16,16,4,1,FBP-YG-71.png,0.45,1.2,5,0.75,,,,,,,,,,,,,,,,,,,,,,,,,,,,,,,,,,,,,,,,,,,,,
,,,,,V3_110,20,Female,2025-02-06_16h32.34.027,jersey_experiment_5_v3,2023.2.2,Win32,84.74576271,,,,,,,,,,,,,,,,167.0395,168.5922,168.5922,170.7099,return,0.7062,,50,0,17,17,21,1,FBP-PT-18.png,0.37,1.2,22,0.75,,,,,,,,,,,,,,,,,,,,,,,,,,,,,,,,,,,,,,,,,,,,,
,,,,,V3_110,20,Female,2025-02-06_16h32.34.027,jersey_experiment_5_v3,2023.2.2,Win32,84.74576271,,,,,,,,,,,,,,,,170.7103,172.2629,172.263,175.9807,return,0.8637,,99.73958333,0,18,18,54,1,FBP-RB-18.png,0.45,1.2,55,0.75,,,,,,,,,,,,,,,,,,,,,,,,,,,,,,,,,,,,,,,,,,,,,
,,,,,V3_110,20,Female,2025-02-06_16h32.34.027,jersey_experiment_5_v3,2023.2.2,Win32,84.74576271,,,,,,,,,,,,,,,,175.981,177.5337,177.5338,180.2868,return,1.4987,,49.08854167,0,19,19,22,1,FBP-PT-18.png,0.4,1.2,23,0.75,,,,,,,,,,,,,,,,,,,,,,,,,,,,,,,,,,,,,,,,,,,,,
,,,,,V3_110,20,Female,2025-02-06_16h32.34.027,jersey_experiment_5_v3,2023.2.2,Win32,84.74576271,,,,,,,,,,,,,,,,180.2871,181.5809,181.581,183.0045,return,0.7362,,50.26041667,0,20,20,41,1,FBP-OG-19.png,0.37,1.2,42,0.5,,,,,,,,,,,,,,,,,,,,,,,,,,,,,,,,,,,,,,,,,,,,,
,,,,,V3_110,20,Female,2025-02-06_16h32.34.027,jersey_experiment_5_v3,2023.2.2,Win32,84.74576271,,,,,,,,,,,,,,,,183.0048,184.5573,184.5573,185.981,return,0.7135,,49.86979167,0,21,21,46,1,FBP-RB-17.png,0.37,1.2,47,0.75,,,,,,,,,,,,,,,,,,,,,,,,,,,,,,,,,,,,,,,,,,,,,
,,,,,V3_110,20,Female,2025-02-06_16h32.34.027,jersey_experiment_5_v3,2023.2.2,Win32,84.74576271,,,,,,,,,,,,,,,,185.9814,187.5341,187.5341,190.0282,return,1.4672,,75.65104167,0,22,22,17,1,FBP-PT-17.png,0.4,1.2,18,0.75,,,,,,,,,,,,,,,,,,,,,,,,,,,,,,,,,,,,,,,,,,,,,
,,,,,V3_110,20,Female,2025-02-06_16h32.34.027,jersey_experiment_5_v3,2023.2.2,Win32,84.74576271,,,,,,,,,,,,,,,,190.0284,191.5813,191.5814,193.9107,return,0.9055,,49.21875,0,23,23,45,1,FBP-RB-17.png,0.35,1.2,46,0.75,,,,,,,,,,,,,,,,,,,,,,,,,,,,,,,,,,,,,,,,,,,,,
,,,,,V3_110,20,Female,2025-02-06_16h32.34.027,jersey_experiment_5_v3,2023.2.2,Win32,84.74576271,,,,,,,,,,,,,,,,193.911,195.4637,195.4638,197.3579,return,0.9936,,50,0,24,24,1,1,FBP-YG-71.png,0.37,1.2,2,0.75,,,,,,,,,,,,,,,,,,,,,,,,,,,,,,,,,,,,,,,,,,,,,
,,,,,V3_110,20,Female,2025-02-06_16h32.34.027,jersey_experiment_5_v3,2023.2.2,Win32,84.74576271,,,,,,,,,,,,,,,,197.3582,198.9111,198.9112,201.6287,return,1.7357,,99.86979167,0,25,25,29,1,FBP-PT-19.png,0.45,1.2,30,0.75,,,,,,,,,,,,,,,,,,,,,,,,,,,,,,,,,,,,,,,,,,,,,
,,,,,V3_110,20,Female,2025-02-06_16h32.34.027,jersey_experiment_5_v3,2023.2.2,Win32,84.74576271,,,,,,,,,,,,,,,,201.629,202.9229,202.923,207.4525,return,1.6434,,50,0,26,26,40,1,FBP-OG-19.png,0.35,1.2,41,0.5,,,,,,,,,,,,,,,,,,,,,,,,,,,,,,,,,,,,,,,,,,,,,
,,,,,V3_110,20,Female,2025-02-06_16h32.34.027,jersey_experiment_5_v3,2023.2.2,Win32,84.74576271,,,,,,,,,,,,,,,,207.4528,208.7466,208.7467,210.3584,return,0.9527,,50,0,27,27,42,1,FBP-OG-19.png,0.4,1.2,43,0.5,,,,,,,,,,,,,,,,,,,,,,,,,,,,,,,,,,,,,,,,,,,,,
,,,,,V3_110,20,Female,2025-02-06_16h32.34.027,jersey_experiment_5_v3,2023.2.2,Win32,84.74576271,,,,,,,,,,,,,,,,210.3589,211.9114,211.9115,217.0881,return,0.9557,,50,0,28,28,10,1,FBP-YG-91.png,0.35,1.2,11,0.75,,,,,,,,,,,,,,,,,,,,,,,,,,,,,,,,,,,,,,,,,,,,,
,,,,,V3_110,20,Female,2025-02-06_16h32.34.027,jersey_experiment_5_v3,2023.2.2,Win32,84.74576271,,,,,,,,,,,,,,,,217.0884,218.6411,218.6411,222.6294,return,0.6958,,99.47916667,0,29,29,8,1,FBP-YG-81.png,0.43,1.2,9,0.75,,,,,,,,,,,,,,,,,,,,,,,,,,,,,,,,,,,,,,,,,,,,,
,,,,,V3_110,20,Female,2025-02-06_16h32.34.027,jersey_experiment_5_v3,2023.2.2,Win32,84.74576271,,,,,,,,,,,,,,,,222.6297,223.9236,223.9236,225.7826,return,0.6338,,74.86979167,0,30,30,36,1,FBP-OG-18.png,0.37,1.2,37,0.5,,,,,,,,,,,,,,,,,,,,,,,,,,,,,,,,,,,,,,,,,,,,,
,,,,,V3_110,20,Female,2025-02-06_16h32.34.027,jersey_experiment_5_v3,2023.2.2,Win32,84.74576271,,,,,,,,,,,,,,,,225.7828,227.3359,227.3359,229.3122,return,1.1459,,99.47916667,0,31,31,24,1,FBP-PT-18.png,0.45,1.2,25,0.75,,,,,,,,,,,,,,,,,,,,,,,,,,,,,,,,,,,,,,,,,,,,,
,,,,,V3_110,20,Female,2025-02-06_16h32.34.027,jersey_experiment_5_v3,2023.2.2,Win32,84.74576271,,,,,,,,,,,,,,,,229.3126,230.6061,230.6062,231.9827,return,0.8059,,99.47916667,0,32,32,38,1,FBP-OG-18.png,0.43,1.2,39,0.5,,,,,,,,,,,,,,,,,,,,,,,,,,,,,,,,,,,,,,,,,,,,,
,,,,,V3_110,20,Female,2025-02-06_16h32.34.027,jersey_experiment_5_v3,2023.2.2,Win32,84.74576271,,,,,,,,,,,,,,,,231.983,233.5357,233.5358,234.9827,return,0.8622,,99.47916667,0,33,33,52,1,FBP-RB-18.png,0.4,1.2,53,0.75,,,,,,,,,,,,,,,,,,,,,,,,,,,,,,,,,,,,,,,,,,,,,
,,,,,V3_110,20,Female,2025-02-06_16h32.34.027,jersey_experiment_5_v3,2023.2.2,Win32,84.74576271,,,,,,,,,,,,,,,,234.983,236.277,236.2771,237.4889,return,0.6391,,98.95833333,0,34,34,39,1,FBP-OG-18.png,0.45,1.2,40,0.5,,,,,,,,,,,,,,,,,,,,,,,,,,,,,,,,,,,,,,,,,,,,,
,,,,,V3_110,20,Female,2025-02-06_16h32.34.027,jersey_experiment_5_v3,2023.2.2,Win32,84.74576271,,,,,,,,,,,,,,,,237.4892,239.0418,239.0419,240.7244,return,0.6591,,99.73958333,0,35,35,14,1,FBP-YG-91.png,0.45,1.2,15,0.75,,,,,,,,,,,,,,,,,,,,,,,,,,,,,,,,,,,,,,,,,,,,,
,,,,,V3_110,20,Female,2025-02-06_16h32.34.027,jersey_experiment_5_v3,2023.2.2,Win32,84.74576271,,,,,,,,,,,,,,,,240.7247,242.2772,242.2772,243.7596,return,0.7226,,99.73958333,0,36,36,59,1,FBP-RB-19.png,0.45,1.2,60,0.75,,,,,,,,,,,,,,,,,,,,,,,,,,,,,,,,,,,,,,,,,,,,,
,,,,,V3_110,20,Female,2025-02-06_16h32.34.027,jersey_experiment_5_v3,2023.2.2,Win32,84.74576271,,,,,,,,,,,,,,,,243.7599,245.3125,245.3127,248.6892,return,0.6387,,75.13020833,0,37,37,2,1,FBP-YG-71.png,0.4,1.2,3,0.75,,,,,,,,,,,,,,,,,,,,,,,,,,,,,,,,,,,,,,,,,,,,,
,,,,,V3_110,20,Female,2025-02-06_16h32.34.027,jersey_experiment_5_v3,2023.2.2,Win32,84.74576271,,,,,,,,,,,,,,,,248.6895,250.2422,250.2423,252.2774,return,0.612,,50.26041667,0,38,38,50,1,FBP-RB-18.png,0.35,1.2,51,0.75,,,,,,,,,,,,,,,,,,,,,,,,,,,,,,,,,,,,,,,,,,,,,
,,,,,V3_110,20,Female,2025-02-06_16h32.34.027,jersey_experiment_5_v3,2023.2.2,Win32,84.74576271,,,,,,,,,,,,,,,,252.2778,253.8192,253.8192,255.4894,return,0.6147,,99.21875,0,39,39,49,1,FBP-RB-17.png,0.45,1.2,50,0.75,,,,,,,,,,,,,,,,,,,,,,,,,,,,,,,,,,,,,,,,,,,,,
,,,,,V3_110,20,Female,2025-02-06_16h32.34.027,jersey_experiment_5_v3,2023.2.2,Win32,84.74576271,,,,,,,,,,,,,,,,255.4897,256.7836,256.7837,259.1014,return,1.3236,,24.86979167,0,40,40,30,1,FBP-OG-17.png,0.35,1.2,31,0.5,,,,,,,,,,,,,,,,,,,,,,,,,,,,,,,,,,,,,,,,,,,,,
,,,,,V3_110,20,Female,2025-02-06_16h32.34.027,jersey_experiment_5_v3,2023.2.2,Win32,84.74576271,,,,,,,,,,,,,,,,259.1016,260.643,260.6431,262.7251,return,0.7192,,25.52083333,0,41,41,26,1,FBP-PT-19.png,0.37,1.2,27,0.75,,,,,,,,,,,,,,,,,,,,,,,,,,,,,,,,,,,,,,,,,,,,,
,,,,,V3_110,20,Female,2025-02-06_16h32.34.027,jersey_experiment_5_v3,2023.2.2,Win32,84.74576271,,,,,,,,,,,,,,,,262.7253,264.2782,264.2782,266.5959,return,1.0595,,25.390625,0,42,42,6,1,FBP-YG-81.png,0.37,1.2,7,0.75,,,,,,,,,,,,,,,,,,,,,,,,,,,,,,,,,,,,,,,,,,,,,
,,,,,V3_110,20,Female,2025-02-06_16h32.34.027,jersey_experiment_5_v3,2023.2.2,Win32,84.74576271,,,,,,,,,,,,,,,,266.5962,268.1488,268.1488,270.3725,return,0.6855,,75.390625,0,43,43,48,1,FBP-RB-17.png,0.43,1.2,49,0.75,,,,,,,,,,,,,,,,,,,,,,,,,,,,,,,,,,,,,,,,,,,,,
,,,,,V3_110,20,Female,2025-02-06_16h32.34.027,jersey_experiment_5_v3,2023.2.2,Win32,84.74576271,,,,,,,,,,,,,,,,270.3727,271.6666,271.6666,273.396,return,0.717,,99.86979167,0,44,44,33,1,FBP-OG-17.png,0.43,1.2,34,0.5,,,,,,,,,,,,,,,,,,,,,,,,,,,,,,,,,,,,,,,,,,,,,
,,,,,V3_110,20,Female,2025-02-06_16h32.34.027,jersey_experiment_5_v3,2023.2.2,Win32,84.74576271,,,,,,,,,,,,,,,,273.3963,274.9491,274.9492,276.2784,return,0.7919,,99.86979167,0,45,45,9,1,FBP-YG-81.png,0.45,1.2,10,0.75,,,,,,,,,,,,,,,,,,,,,,,,,,,,,,,,,,,,,,,,,,,,,
,,,,,V3_110,20,Female,2025-02-06_16h32.34.027,jersey_experiment_5_v3,2023.2.2,Win32,84.74576271,,,,,,,,,,,,,,,,276.2787,277.8314,277.8316,280.3257,return,0.9182,,23.828125,0,46,46,20,1,FBP-PT-18.png,0.35,1.2,21,0.75,,,,,,,,,,,,,,,,,,,,,,,,,,,,,,,,,,,,,,,,,,,,,
,,,,,V3_110,20,Female,2025-02-06_16h32.34.027,jersey_experiment_5_v3,2023.2.2,Win32,84.74576271,,,,,,,,,,,,,,,,280.326,281.8786,281.8786,285.3141,return,1.4343,,74.34895833,0,47,47,7,1,FBP-YG-81.png,0.4,1.2,8,0.75,,,,,,,,,,,,,,,,,,,,,,,,,,,,,,,,,,,,,,,,,,,,,
,,,,,V3_110,20,Female,2025-02-06_16h32.34.027,jersey_experiment_5_v3,2023.2.2,Win32,84.74576271,,,,,,,,,,,,,,,,285.3145,286.8671,286.8671,288.8319,return,0.8756,,99.73958333,0,48,48,28,1,FBP-PT-19.png,0.43,1.2,29,0.75,,,,,,,,,,,,,,,,,,,,,,,,,,,,,,,,,,,,,,,,,,,,,
,,,,,V3_110,20,Female,2025-02-06_16h32.34.027,jersey_experiment_5_v3,2023.2.2,Win32,84.74576271,,,,,,,,,,,,,,,,288.8321,290.3849,290.3849,292.4791,return,0.6644,,99.21875,0,49,49,53,1,FBP-RB-18.png,0.43,1.2,54,0.75,,,,,,,,,,,,,,,,,,,,,,,,,,,,,,,,,,,,,,,,,,,,,
,,,,,V3_110,20,Female,2025-02-06_16h32.34.027,jersey_experiment_5_v3,2023.2.2,Win32,84.74576271,,,,,,,,,,,,,,,,292.4793,294.0322,294.0322,298.4322,return,3.346,,75.13020833,0,50,50,47,1,FBP-RB-17.png,0.4,1.2,48,0.75,,,,,,,,,,,,,,,,,,,,,,,,,,,,,,,,,,,,,,,,,,,,,
,,,,,V3_110,20,Female,2025-02-06_16h32.34.027,jersey_experiment_5_v3,2023.2.2,Win32,84.74576271,,,,,,,,,,,,,,,,298.4327,299.9854,299.9854,301.5387,return,0.6847,,99.609375,0,51,51,19,1,FBP-PT-17.png,0.45,1.2,20,0.75,,,,,,,,,,,,,,,,,,,,,,,,,,,,,,,,,,,,,,,,,,,,,
,,,,,V3_110,20,Female,2025-02-06_16h32.34.027,jersey_experiment_5_v3,2023.2.2,Win32,84.74576271,,,,,,,,,,,,,,,,301.539,302.8324,302.8324,304.1619,return,0.7792,,99.73958333,0,52,52,37,1,FBP-OG-18.png,0.4,1.2,38,0.5,,,,,,,,,,,,,,,,,,,,,,,,,,,,,,,,,,,,,,,,,,,,,
,,,,,V3_110,20,Female,2025-02-06_16h32.34.027,jersey_experiment_5_v3,2023.2.2,Win32,84.74576271,,,,,,,,,,,,,,,,304.1621,305.7149,305.7149,307.6796,return,0.7578,,25.52083333,0,53,53,25,1,FBP-PT-19.png,0.35,1.2,26,0.75,,,,,,,,,,,,,,,,,,,,,,,,,,,,,,,,,,,,,,,,,,,,,
,,,,,V3_110,20,Female,2025-02-06_16h32.34.027,jersey_experiment_5_v3,2023.2.2,Win32,84.74576271,,,,,,,,,,,,,,,,307.68,309.2326,309.2327,310.774,return,0.695,,25.26041667,0,54,54,5,1,FBP-YG-81.png,0.35,1.2,6,0.75,,,,,,,,,,,,,,,,,,,,,,,,,,,,,,,,,,,,,,,,,,,,,
,,,,,V3_110,20,Female,2025-02-06_16h32.34.027,jersey_experiment_5_v3,2023.2.2,Win32,84.74576271,,,,,,,,,,,,,,,,310.7742,312.3268,312.3269,313.4093,return,0.6032,,25,0,55,55,11,1,FBP-YG-91.png,0.37,1.2,12,0.75,,,,,,,,,,,,,,,,,,,,,,,,,,,,,,,,,,,,,,,,,,,,,
,,,,,V3_110,20,Female,2025-02-06_16h32.34.027,jersey_experiment_5_v3,2023.2.2,Win32,84.74576271,,,,,,,,,,,,,,,,313.4095,314.7033,314.7034,318.48,return,0.5694,,25,0,56,56,32,1,FBP-OG-17.png,0.4,1.2,33,0.5,,,,,,,,,,,,,,,,,,,,,,,,,,,,,,,,,,,,,,,,,,,,,
,,,,,V3_110,20,Female,2025-02-06_16h32.34.027,jersey_experiment_5_v3,2023.2.2,Win32,84.74576271,,,,,,,,,,,,,,,,318.4802,320.0332,320.0333,321.8919,return,0.7875,,99.21875,0,57,57,18,1,FBP-PT-17.png,0.43,1.2,19,0.75,,,,,,,,,,,,,,,,,,,,,,,,,,,,,,,,,,,,,,,,,,,,,
,,,,,V3_110,20,Female,2025-02-06_16h32.34.027,jersey_experiment_5_v3,2023.2.2,Win32,84.74576271,,,,,,,,,,,,,,,,321.8923,323.1861,323.1861,325.4452,return,0.7298,,99.73958333,0,58,58,44,1,FBP-OG-19.png,0.45,1.2,45,0.5,,,,,,,,,,,,,,,,,,,,,,,,,,,,,,,,,,,,,,,,,,,,,
,,,,,V3_110,20,Female,2025-02-06_16h32.34.027,jersey_experiment_5_v3,2023.2.2,Win32,84.74576271,,,,,,,,,,,,,,,,325.4455,326.9981,326.9981,328.7155,return,0.7619,,25.52083333,0,59,59,55,1,FBP-RB-19.png,0.35,1.2,56,0.75,,,,,,,,,,,,,,,,,,,,,,,,,,,,,,,,,,,,,,,,,,,,,
,,,,,V3_110,20,Female,2025-02-06_16h32.34.027,jersey_experiment_5_v3,2023.2.2,Win32,84.74576271,,,,,,,,,,,,,,,,328.7174,330.0101,330.0101,331.5746,return,0.6722,,24.21875,,,,,,FBP-OG-91.png,0.35,1.2,41,0.5,0,0,0,40,1,,,,,,,,,,,,,,,,,,,,,,,,,,,,,,,,,,,,,,,,
,,,,,V3_110,20,Female,2025-02-06_16h32.34.027,jersey_experiment_5_v3,2023.2.2,Win32,84.74576271,,,,,,,,,,,,,,,,331.5749,333.1277,333.1277,335.0924,return,0.8787,,99.609375,,,,,,FBP-RB-71.png,0.45,1.2,50,0.75,0,1,1,49,1,,,,,,,,,,,,,,,,,,,,,,,,,,,,,,,,,,,,,,,,
,,,,,V3_110,20,Female,2025-02-06_16h32.34.027,jersey_experiment_5_v3,2023.2.2,Win32,84.74576271,,,,,,,,,,,,,,,,335.0927,336.6453,336.6453,338.2102,return,0.7671,,98.828125,,,,,,FBP-PT-91.png,0.43,1.2,29,0.75,0,2,2,28,1,,,,,,,,,,,,,,,,,,,,,,,,,,,,,,,,,,,,,,,,
,,,,,V3_110,20,Female,2025-02-06_16h32.34.027,jersey_experiment_5_v3,2023.2.2,Win32,84.74576271,,,,,,,,,,,,,,,,338.2105,339.5043,339.5043,343.3632,return,1.6598,,99.86979167,,,,,,FBP-OG-81.png,0.43,1.2,39,0.5,0,3,3,38,1,,,,,,,,,,,,,,,,,,,,,,,,,,,,,,,,,,,,,,,,
,,,,,V3_110,20,Female,2025-02-06_16h32.34.027,jersey_experiment_5_v3,2023.2.2,Win32,84.74576271,,,,,,,,,,,,,,,,343.3636,344.9164,344.9165,346.481,return,0.72,,25.52083333,,,,,,FBP-PT-81.png,0.35,1.2,21,0.75,0,4,4,20,1,,,,,,,,,,,,,,,,,,,,,,,,,,,,,,,,,,,,,,,,
,,,,,V3_110,20,Female,2025-02-06_16h32.34.027,jersey_experiment_5_v3,2023.2.2,Win32,84.74576271,,,,,,,,,,,,,,,,346.4813,348.0341,348.0341,349.3753,return,0.7222,,25,,,,,,FBP-PT-91.png,0.37,1.2,27,0.75,0,5,5,26,1,,,,,,,,,,,,,,,,,,,,,,,,,,,,,,,,,,,,,,,,
,,,,,V3_110,20,Female,2025-02-06_16h32.34.027,jersey_experiment_5_v3,2023.2.2,Win32,84.74576271,,,,,,,,,,,,,,,,349.3756,350.9283,350.9283,353.5519,return,0.6858,,99.73958333,,,,,,FBP-YG-19.png,0.45,1.2,15,0.75,0,6,6,14,1,,,,,,,,,,,,,,,,,,,,,,,,,,,,,,,,,,,,,,,,
,,,,,V3_110,20,Female,2025-02-06_16h32.34.027,jersey_experiment_5_v3,2023.2.2,Win32,84.74576271,,,,,,,,,,,,,,,,353.5522,355.1048,355.1048,356.7168,return,0.652,,75.52083333,,,,,,FBP-RB-71.png,0.37,1.2,47,0.75,0,7,7,46,1,,,,,,,,,,,,,,,,,,,,,,,,,,,,,,,,,,,,,,,,
,,,,,V3_110,20,Female,2025-02-06_16h32.34.027,jersey_experiment_5_v3,2023.2.2,Win32,84.74576271,,,,,,,,,,,,,,,,356.717,358.2696,358.2697,359.5637,return,0.8196,,75.52083333,,,,,,FBP-RB-91.png,0.37,1.2,57,0.75,0,8,8,56,1,,,,,,,,,,,,,,,,,,,,,,,,,,,,,,,,,,,,,,,,
,,,,,V3_110,20,Female,2025-02-06_16h32.34.027,jersey_experiment_5_v3,2023.2.2,Win32,84.74576271,,,,,,,,,,,,,,,,359.564,360.858,360.858,366.5172,return,2.0361,,24.86979167,,,,,,FBP-OG-81.png,0.35,1.2,36,0.5,0,9,9,35,1,,,,,,,,,,,,,,,,,,,,,,,,,,,,,,,,,,,,,,,,
,,,,,V3_110,20,Female,2025-02-06_16h32.34.027,jersey_experiment_5_v3,2023.2.2,Win32,84.74576271,,,,,,,,,,,,,,,,366.5175,368.0701,368.0701,375.1409,return,0.7384,,74.47916667,,,,,,FBP-RB-91.png,0.43,1.2,59,0.75,0,10,10,58,1,,,,,,,,,,,,,,,,,,,,,,,,,,,,,,,,,,,,,,,,
,,,,,V3_110,20,Female,2025-02-06_16h32.34.027,jersey_experiment_5_v3,2023.2.2,Win32,84.74576271,,,,,,,,,,,,,,,,375.1413,376.4349,376.435,378.0939,return,0.8528,,75.52083333,,,,,,FBP-OG-91.png,0.45,1.2,45,0.5,0,11,11,44,1,,,,,,,,,,,,,,,,,,,,,,,,,,,,,,,,,,,,,,,,
,,,,,V3_110,20,Female,2025-02-06_16h32.34.027,jersey_experiment_5_v3,2023.2.2,Win32,84.74576271,,,,,,,,,,,,,,,,378.0943,379.6471,379.6471,380.294,return,0.1412,,75,,,,,,FBP-YG-18.png,0.4,1.2,8,0.75,0,12,12,7,1,,,,,,,,,,,,,,,,,,,,,,,,,,,,,,,,,,,,,,,,
,,,,,V3_110,20,Female,2025-02-06_16h32.34.027,jersey_experiment_5_v3,2023.2.2,Win32,84.74576271,,,,,,,,,,,,,,,,380.2943,381.8471,381.8472,382.353,return,0.1429,,75,,,,,,FBP-RB-91.png,0.4,1.2,58,0.75,0,13,13,57,1,,,,,,,,,,,,,,,,,,,,,,,,,,,,,,,,,,,,,,,,
,,,,,V3_110,20,Female,2025-02-06_16h32.34.027,jersey_experiment_5_v3,2023.2.2,Win32,84.74576271,,,,,,,,,,,,,,,,382.3532,383.6471,383.6471,384.3177,return,0.1586,,75,,,,,,FBP-OG-81.png,0.37,1.2,37,0.5,0,14,14,36,1,,,,,,,,,,,,,,,,,,,,,,,,,,,,,,,,,,,,,,,,
,,,,,V3_110,20,Female,2025-02-06_16h32.34.027,jersey_experiment_5_v3,2023.2.2,Win32,84.74576271,,,,,,,,,,,,,,,,384.318,385.8707,385.8708,387.4708,return,0.3207,,24.73958333,,,,,,FBP-PT-71.png,0.37,1.2,17,0.75,0,15,15,16,1,,,,,,,,,,,,,,,,,,,,,,,,,,,,,,,,,,,,,,,,
,,,,,V3_110,20,Female,2025-02-06_16h32.34.027,jersey_experiment_5_v3,2023.2.2,Win32,84.74576271,,,,,,,,,,,,,,,,387.471,389.0238,389.0238,390.165,return,0.1543,,74.609375,,,,,,FBP-YG-18.png,0.43,1.2,9,0.75,0,16,16,8,1,,,,,,,,,,,,,,,,,,,,,,,,,,,,,,,,,,,,,,,,
,,,,,V3_110,20,Female,2025-02-06_16h32.34.027,jersey_experiment_5_v3,2023.2.2,Win32,84.74576271,,,,,,,,,,,,,,,,390.1652,391.718,391.7181,393.1655,return,0.1721,,75.52083333,,,,,,FBP-PT-81.png,0.43,1.2,24,0.75,0,17,17,23,1,,,,,,,,,,,,,,,,,,,,,,,,,,,,,,,,,,,,,,,,
,,,,,V3_110,20,Female,2025-02-06_16h32.34.027,jersey_experiment_5_v3,2023.2.2,Win32,84.74576271,,,,,,,,,,,,,,,,393.1657,394.4591,394.4591,394.9417,return,0.1216,,75.52083333,,,,,,FBP-OG-71.png,0.37,1.2,32,0.5,0,18,18,31,1,,,,,,,,,,,,,,,,,,,,,,,,,,,,,,,,,,,,,,,,
,,,,,V3_110,20,Female,2025-02-06_16h32.34.027,jersey_experiment_5_v3,2023.2.2,Win32,84.74576271,,,,,,,,,,,,,,,,394.942,396.4946,396.4946,397.1535,return,0.1795,,75.52083333,,,,,,FBP-PT-81.png,0.45,1.2,25,0.75,0,19,19,24,1,,,,,,,,,,,,,,,,,,,,,,,,,,,,,,,,,,,,,,,,
,,,,,V3_110,20,Female,2025-02-06_16h32.34.027,jersey_experiment_5_v3,2023.2.2,Win32,84.74576271,,,,,,,,,,,,,,,,397.1538,398.6951,398.6951,401.7772,return,0.2708,,25.390625,,,,,,FBP-YG-18.png,0.37,1.2,7,0.75,0,20,20,6,1,,,,,,,,,,,,,,,,,,,,,,,,,,,,,,,,,,,,,,,,
,,,,,V3_110,20,Female,2025-02-06_16h32.34.027,jersey_experiment_5_v3,2023.2.2,Win32,84.74576271,,,,,,,,,,,,,,,,401.7776,403.3303,403.3304,404.1772,return,0.1208,,25.13020833,,,,,,FBP-YG-17.png,0.35,1.2,1,0.75,0,21,21,0,1,,,,,,,,,,,,,,,,,,,,,,,,,,,,,,,,,,,,,,,,
,,,,,V3_110,20,Female,2025-02-06_16h32.34.027,jersey_experiment_5_v3,2023.2.2,Win32,84.74576271,,,,,,,,,,,,,,,,404.1775,405.7303,405.7303,406.3186,return,0.1311,,25.26041667,,,,,,FBP-PT-81.png,0.37,1.2,22,0.75,0,22,22,21,1,,,,,,,,,,,,,,,,,,,,,,,,,,,,,,,,,,,,,,,,
,,,,,V3_110,20,Female,2025-02-06_16h32.34.027,jersey_experiment_5_v3,2023.2.2,Win32,84.74576271,,,,,,,,,,,,,,,,406.319,407.8716,407.8716,409.0363,return,0.2168,,74.08854167,,,,,,FBP-PT-71.png,0.4,1.2,18,0.75,0,23,23,17,1,,,,,,,,,,,,,,,,,,,,,,,,,,,,,,,,,,,,,,,,
,,,,,V3_110,20,Female,2025-02-06_16h32.34.027,jersey_experiment_5_v3,2023.2.2,Win32,84.74576271,,,,,,,,,,,,,,,,409.0365,410.5892,410.5892,411.3775,return,0.1675,,75.52083333,,,,,,FBP-YG-19.png,0.37,1.2,12,0.75,0,24,24,11,1,,,,,,,,,,,,,,,,,,,,,,,,,,,,,,,,,,,,,,,,
,,,,,V3_110,20,Female,2025-02-06_16h32.34.027,jersey_experiment_5_v3,2023.2.2,Win32,84.74576271,,,,,,,,,,,,,,,,411.3779,412.9306,412.9306,413.5659,return,0.195,,75.52083333,,,,,,FBP-YG-19.png,0.4,1.2,13,0.75,0,25,25,12,1,,,,,,,,,,,,,,,,,,,,,,,,,,,,,,,,,,,,,,,,
,,,,,V3_110,20,Female,2025-02-06_16h32.34.027,jersey_experiment_5_v3,2023.2.2,Win32,84.74576271,,,,,,,,,,,,,,,,413.5663,415.119,415.1191,415.6953,return,0.1921,,75.52083333,,,,,,FBP-YG-18.png,0.35,1.2,6,0.75,0,26,26,5,1,,,,,,,,,,,,,,,,,,,,,,,,,,,,,,,,,,,,,,,,
,,,,,V3_110,20,Female,2025-02-06_16h32.34.027,jersey_experiment_5_v3,2023.2.2,Win32,84.74576271,,,,,,,,,,,,,,,,415.6956,416.9894,416.9894,417.5895,return,0.1886,,75.52083333,,,,,,FBP-OG-91.png,0.37,1.2,42,0.5,0,27,27,41,1,,,,,,,,,,,,,,,,,,,,,,,,,,,,,,,,,,,,,,,,
,,,,,V3_110,20,Female,2025-02-06_16h32.34.027,jersey_experiment_5_v3,2023.2.2,Win32,84.74576271,,,,,,,,,,,,,,,,417.5898,419.1426,419.1426,420.3895,return,0.1752,,99.34895833,,,,,,FBP-PT-91.png,0.45,1.2,30,0.75,0,28,28,29,1,,,,,,,,,,,,,,,,,,,,,,,,,,,,,,,,,,,,,,,,
,,,,,V3_110,20,Female,2025-02-06_16h32.34.027,jersey_experiment_5_v3,2023.2.2,Win32,84.74576271,,,,,,,,,,,,,,,,420.39,421.6846,421.6847,422.6838,return,0.1492,,74.08854167,,,,,,FBP-OG-71.png,0.35,1.2,31,0.5,0,29,29,30,1,,,,,,,,,,,,,,,,,,,,,,,,,,,,,,,,,,,,,,,,
,,,,,V3_110,20,Female,2025-02-06_16h32.34.027,jersey_experiment_5_v3,2023.2.2,Win32,84.74576271,,,,,,,,,,,,,,,,422.6839,424.2368,424.2368,426.6605,return,0.131,,75.26041667,,,,,,FBP-PT-71.png,0.35,1.2,16,0.75,0,30,30,15,1,,,,,,,,,,,,,,,,,,,,,,,,,,,,,,,,,,,,,,,,
,,,,,V3_110,20,Female,2025-02-06_16h32.34.027,jersey_experiment_5_v3,2023.2.2,Win32,84.74576271,,,,,,,,,,,,,,,,426.6607,428.2135,428.2135,429.543,return,0.1651,,25.91145833,,,,,,FBP-RB-91.png,0.35,1.2,56,0.75,0,31,31,55,1,,,,,,,,,,,,,,,,,,,,,,,,,,,,,,,,,,,,,,,,
,,,,,V3_110,20,Female,2025-02-06_16h32.34.027,jersey_experiment_5_v3,2023.2.2,Win32,84.74576271,,,,,,,,,,,,,,,,429.5432,431.0963,431.0964,431.7783,return,0.2,,25.390625,,,,,,FBP-RB-81.png,0.35,1.2,51,0.75,0,32,32,50,1,,,,,,,,,,,,,,,,,,,,,,,,,,,,,,,,,,,,,,,,
,,,,,V3_110,20,Female,2025-02-06_16h32.34.027,jersey_experiment_5_v3,2023.2.2,Win32,84.74576271,,,,,,,,,,,,,,,,431.7787,433.3317,433.3318,434.6607,return,0.1871,,98.828125,,,,,,FBP-RB-81.png,0.45,1.2,55,0.75,0,33,33,54,1,,,,,,,,,,,,,,,,,,,,,,,,,,,,,,,,,,,,,,,,
,,,,,V3_110,20,Female,2025-02-06_16h32.34.027,jersey_experiment_5_v3,2023.2.2,Win32,84.74576271,,,,,,,,,,,,,,,,434.661,436.2139,436.214,437.0609,return,0.1417,,74.86979167,,,,,,FBP-PT-91.png,0.35,1.2,26,0.75,0,34,34,25,1,,,,,,,,,,,,,,,,,,,,,,,,,,,,,,,,,,,,,,,,
,,,,,V3_110,20,Female,2025-02-06_16h32.34.027,jersey_experiment_5_v3,2023.2.2,Win32,84.74576271,,,,,,,,,,,,,,,,437.0612,438.6139,438.614,439.4138,return,0.1863,,99.34895833,,,,,,FBP-RB-91.png,0.45,1.2,60,0.75,0,35,35,59,1,,,,,,,,,,,,,,,,,,,,,,,,,,,,,,,,,,,,,,,,
,,,,,V3_110,20,Female,2025-02-06_16h32.34.027,jersey_experiment_5_v3,2023.2.2,Win32,84.74576271,,,,,,,,,,,,,,,,439.414,440.9668,440.9669,441.8727,return,0.226,,99.34895833,,,,,,FBP-YG-17.png,0.4,1.2,3,0.75,0,36,36,2,1,,,,,,,,,,,,,,,,,,,,,,,,,,,,,,,,,,,,,,,,
,,,,,V3_110,20,Female,2025-02-06_16h32.34.027,jersey_experiment_5_v3,2023.2.2,Win32,84.74576271,,,,,,,,,,,,,,,,441.873,443.4257,443.4258,444.214,return,0.4125,,99.34895833,,,,,,FBP-YG-17.png,0.45,1.2,5,0.75,0,37,37,4,1,,,,,,,,,,,,,,,,,,,,,,,,,,,,,,,,,,,,,,,,
,,,,,V3_110,20,Female,2025-02-06_16h32.34.027,jersey_experiment_5_v3,2023.2.2,Win32,84.74576271,,,,,,,,,,,,,,,,444.2143,445.7557,445.7558,446.3199,return,0.1928,,99.34895833,,,,,,FBP-RB-71.png,0.43,1.2,49,0.75,0,38,38,48,1,,,,,,,,,,,,,,,,,,,,,,,,,,,,,,,,,,,,,,,,
,,,,,V3_110,20,Female,2025-02-06_16h32.34.027,jersey_experiment_5_v3,2023.2.2,Win32,84.74576271,,,,,,,,,,,,,,,,446.3201,447.8729,447.873,450.6142,return,1.7185,,75.91145833,,,,,,FBP-PT-81.png,0.4,1.2,23,0.75,0,39,39,22,1,,,,,,,,,,,,,,,,,,,,,,,,,,,,,,,,,,,,,,,,
,,,,,V3_110,20,Female,2025-02-06_16h32.34.027,jersey_experiment_5_v3,2023.2.2,Win32,84.74576271,,,,,,,,,,,,,,,,450.6145,452.1672,452.1673,453.0615,return,0.1415,,74.609375,,,,,,FBP-RB-81.png,0.37,1.2,52,0.75,0,40,40,51,1,,,,,,,,,,,,,,,,,,,,,,,,,,,,,,,,,,,,,,,,
,,,,,V3_110,20,Female,2025-02-06_16h32.34.027,jersey_experiment_5_v3,2023.2.2,Win32,84.74576271,,,,,,,,,,,,,,,,453.0617,454.3555,454.3555,455.0615,return,0.2267,,74.609375,,,,,,FBP-OG-91.png,0.43,1.2,44,0.5,0,41,41,43,1,,,,,,,,,,,,,,,,,,,,,,,,,,,,,,,,,,,,,,,,
,,,,,V3_110,20,Female,2025-02-06_16h32.34.027,jersey_experiment_5_v3,2023.2.2,Win32,84.74576271,,,,,,,,,,,,,,,,455.0618,456.3556,456.3556,458.1323,return,0.2826,,98.95833333,,,,,,FBP-OG-71.png,0.43,1.2,34,0.5,0,42,42,33,1,,,,,,,,,,,,,,,,,,,,,,,,,,,,,,,,,,,,,,,,
,,,,,V3_110,20,Female,2025-02-06_16h32.34.027,jersey_experiment_5_v3,2023.2.2,Win32,84.74576271,,,,,,,,,,,,,,,,458.1326,459.4262,459.4263,460.1793,return,0.3074,,98.95833333,,,,,,FBP-OG-81.png,0.45,1.2,40,0.5,0,43,43,39,1,,,,,,,,,,,,,,,,,,,,,,,,,,,,,,,,,,,,,,,,
,,,,,V3_110,20,Female,2025-02-06_16h32.34.027,jersey_experiment_5_v3,2023.2.2,Win32,84.74576271,,,,,,,,,,,,,,,,460.1795,461.7327,461.7328,462.45,return,0.3055,,98.95833333,,,,,,FBP-RB-71.png,0.4,1.2,48,0.75,0,44,44,47,1,,,,,,,,,,,,,,,,,,,,,,,,,,,,,,,,,,,,,,,,
,,,,,V3_110,20,Female,2025-02-06_16h32.34.027,jersey_experiment_5_v3,2023.2.2,Win32,84.74576271,,,,,,,,,,,,,,,,462.4502,463.7442,463.7442,464.5324,return,0.2001,,98.95833333,,,,,,FBP-OG-71.png,0.4,1.2,33,0.5,0,45,45,32,1,,,,,,,,,,,,,,,,,,,,,,,,,,,,,,,,,,,,,,,,
,,,,,V3_110,20,Female,2025-02-06_16h32.34.027,jersey_experiment_5_v3,2023.2.2,Win32,84.74576271,,,,,,,,,,,,,,,,464.5327,465.8265,465.8265,466.4619,return,0.2532,,98.95833333,,,,,,FBP-OG-71.png,0.45,1.2,35,0.5,0,46,46,34,1,,,,,,,,,,,,,,,,,,,,,,,,,,,,,,,,,,,,,,,,
,,,,,V3_110,20,Female,2025-02-06_16h32.34.027,jersey_experiment_5_v3,2023.2.2,Win32,84.74576271,,,,,,,,,,,,,,,,466.4622,468.0149,468.015,468.709,return,0.2601,,98.95833333,,,,,,FBP-RB-81.png,0.43,1.2,54,0.75,0,47,47,53,1,,,,,,,,,,,,,,,,,,,,,,,,,,,,,,,,,,,,,,,,
,,,,,V3_110,20,Female,2025-02-06_16h32.34.027,jersey_experiment_5_v3,2023.2.2,Win32,84.74576271,,,,,,,,,,,,,,,,468.7093,470.262,470.2621,470.8622,return,0.181,,98.95833333,,,,,,FBP-YG-17.png,0.43,1.2,4,0.75,0,48,48,3,1,,,,,,,,,,,,,,,,,,,,,,,,,,,,,,,,,,,,,,,,
,,,,,V3_110,20,Female,2025-02-06_16h32.34.027,jersey_experiment_5_v3,2023.2.2,Win32,84.74576271,,,,,,,,,,,,,,,,470.8625,472.415,472.4151,473.0386,return,0.2142,,98.95833333,,,,,,FBP-PT-71.png,0.43,1.2,19,0.75,0,49,49,18,1,,,,,,,,,,,,,,,,,,,,,,,,,,,,,,,,,,,,,,,,
,,,,,V3_110,20,Female,2025-02-06_16h32.34.027,jersey_experiment_5_v3,2023.2.2,Win32,84.74576271,,,,,,,,,,,,,,,,473.0389,474.5916,474.5916,475.4623,return,0.2476,,98.95833333,,,,,,FBP-PT-91.png,0.4,1.2,28,0.75,0,50,50,27,1,,,,,,,,,,,,,,,,,,,,,,,,,,,,,,,,,,,,,,,,
,,,,,V3_110,20,Female,2025-02-06_16h32.34.027,jersey_experiment_5_v3,2023.2.2,Win32,84.74576271,,,,,,,,,,,,,,,,475.4626,476.7564,476.7564,477.7094,return,0.266,,98.95833333,,,,,,FBP-OG-81.png,0.4,1.2,38,0.5,0,51,51,37,1,,,,,,,,,,,,,,,,,,,,,,,,,,,,,,,,,,,,,,,,
,,,,,V3_110,20,Female,2025-02-06_16h32.34.027,jersey_experiment_5_v3,2023.2.2,Win32,84.74576271,,,,,,,,,,,,,,,,477.7096,479.2623,479.2624,482.4156,return,1.0405,,99.86979167,,,,,,FBP-YG-19.png,0.43,1.2,14,0.75,0,52,52,13,1,,,,,,,,,,,,,,,,,,,,,,,,,,,,,,,,,,,,,,,,
,,,,,V3_110,20,Female,2025-02-06_16h32.34.027,jersey_experiment_5_v3,2023.2.2,Win32,84.74576271,,,,,,,,,,,,,,,,482.416,483.9686,483.9686,485.5096,return,0.5876,,24.47916667,,,,,,FBP-YG-17.png,0.37,1.2,2,0.75,0,53,53,1,1,,,,,,,,,,,,,,,,,,,,,,,,,,,,,,,,,,,,,,,,
,,,,,V3_110,20,Female,2025-02-06_16h32.34.027,jersey_experiment_5_v3,2023.2.2,Win32,84.74576271,,,,,,,,,,,,,,,,485.5099,487.0626,487.0627,488.1098,return,0.1951,,24.86979167,,,,,,FBP-YG-19.png,0.35,1.2,11,0.75,0,54,54,10,1,,,,,,,,,,,,,,,,,,,,,,,,,,,,,,,,,,,,,,,,
,,,,,V3_110,20,Female,2025-02-06_16h32.34.027,jersey_experiment_5_v3,2023.2.2,Win32,84.74576271,,,,,,,,,,,,,,,,488.1101,489.6627,489.6627,491.804,return,0.1496,,99.73958333,,,,,,FBP-PT-71.png,0.45,1.2,20,0.75,0,55,55,19,1,,,,,,,,,,,,,,,,,,,,,,,,,,,,,,,,,,,,,,,,
,,,,,V3_110,20,Female,2025-02-06_16h32.34.027,jersey_experiment_5_v3,2023.2.2,Win32,84.74576271,,,,,,,,,,,,,,,,491.8043,493.3571,493.3571,495.2158,return,0.9694,,75.26041667,,,,,,FBP-RB-81.png,0.4,1.2,53,0.75,0,56,56,52,1,,,,,,,,,,,,,,,,,,,,,,,,,,,,,,,,,,,,,,,,
,,,,,V3_110,20,Female,2025-02-06_16h32.34.027,jersey_experiment_5_v3,2023.2.2,Win32,84.74576271,,,,,,,,,,,,,,,,495.2161,496.7689,496.769,498.2747,return,0.3311,,76.04166667,,,,,,FBP-RB-71.png,0.35,1.2,46,0.75,0,57,57,45,1,,,,,,,,,,,,,,,,,,,,,,,,,,,,,,,,,,,,,,,,
,,,,,V3_110,20,Female,2025-02-06_16h32.34.027,jersey_experiment_5_v3,2023.2.2,Win32,84.74576271,,,,,,,,,,,,,,,,498.275,499.569,499.5691,500.5455,return,0.2265,,76.04166667,,,,,,FBP-OG-91.png,0.4,1.2,43,0.5,0,58,58,42,1,,,,,,,,,,,,,,,,,,,,,,,,,,,,,,,,,,,,,,,,
,,,,,V3_110,20,Female,2025-02-06_16h32.34.027,jersey_experiment_5_v3,2023.2.2,Win32,84.74576271,,,,,,,,,,,,,,,,500.5457,502.0987,502.0987,503.122,return,0.2254,,99.73958333,,,,,,FBP-YG-18.png,0.45,1.2,10,0.75,0,59,59,9,1,,,,,,,,,,,,,,,,,,,,,,,,,,,,,,,,,,,,,,,,
,,,,,V3_110,20,Female,2025-02-06_16h32.34.027,jersey_experiment_5_v3,2023.2.2,Win32,84.74576271,,,,,,,,,,,,,,,,,,,,,,,,,,,,,,,,,,,,,,,503.1222,623.1149,,,,,,,,,,,,,,,,,,,,,,,,,,,,,,,,,,,,,,
,,,,,V3_110,20,Female,2025-02-06_16h32.34.027,jersey_experiment_5_v3,2023.2.2,Win32,84.74576271,,,,,,,,,,,,,,,,,,,,,,,,,,,,,,,,,,,,,,,,,623.1149,628.7973,return,5.6768,,,,,,,,,,,,,,,,,,,,,,,,,,,,,,,,,,
,,,,,V3_110,20,Female,2025-02-06_16h32.34.027,jersey_experiment_5_v3,2023.2.2,Win32,84.74576271,,,,,,,,,,,,,,,,628.7988,630.3503,630.3503,638.8448,return,1.9138,,25.52083333,,,,,,FBP-OG-18.png,0.37,1.2,37,0.75,,,,,,,,,,,,,0,0,0,36,1,,,,,,,,,,,,,,,,,,,,,,,,,,,,
,,,,,V3_110,20,Female,2025-02-06_16h32.34.027,jersey_experiment_5_v3,2023.2.2,Win32,84.74576271,,,,,,,,,,,,,,,,638.8451,640.3976,640.3977,642.5156,return,0.754,,98.95833333,,,,,,FBP-OG-17.png,0.45,1.2,35,0.75,,,,,,,,,,,,,0,1,1,34,1,,,,,,,,,,,,,,,,,,,,,,,,,,,,
,,,,,V3_110,20,Female,2025-02-06_16h32.34.027,jersey_experiment_5_v3,2023.2.2,Win32,84.74576271,,,,,,,,,,,,,,,,642.5159,643.8095,643.8096,646.8451,return,1.5134,,24.73958333,,,,,,FBP-YG-91.png,0.35,1.2,11,0.5,,,,,,,,,,,,,0,2,2,10,1,,,,,,,,,,,,,,,,,,,,,,,,,,,,
,,,,,V3_110,20,Female,2025-02-06_16h32.34.027,jersey_experiment_5_v3,2023.2.2,Win32,84.74576271,,,,,,,,,,,,,,,,646.8454,648.1392,648.1393,649.551,return,0.1463,,24.86979167,,,,,,FBP-PT-19.png,0.35,1.2,26,0.5,,,,,,,,,,,,,0,3,3,25,1,,,,,,,,,,,,,,,,,,,,,,,,,,,,
,,,,,V3_110,20,Female,2025-02-06_16h32.34.027,jersey_experiment_5_v3,2023.2.2,Win32,84.74576271,,,,,,,,,,,,,,,,649.5512,650.8451,650.8451,653.857,return,0.2007,,99.34895833,,,,,,FBP-YG-81.png,0.43,1.2,9,0.5,,,,,,,,,,,,,0,4,4,8,1,,,,,,,,,,,,,,,,,,,,,,,,,,,,
,,,,,V3_110,20,Female,2025-02-06_16h32.34.027,jersey_experiment_5_v3,2023.2.2,Win32,84.74576271,,,,,,,,,,,,,,,,653.8573,655.1513,655.1513,655.7159,return,0.1652,,98.95833333,,,,,,FBP-RB-19.png,0.43,1.2,59,0.5,,,,,,,,,,,,,0,5,5,58,1,,,,,,,,,,,,,,,,,,,,,,,,,,,,
,,,,,V3_110,20,Female,2025-02-06_16h32.34.027,jersey_experiment_5_v3,2023.2.2,Win32,84.74576271,,,,,,,,,,,,,,,,655.7162,657.01,657.0101,658.1395,return,0.2079,,74.08854167,,,,,,FBP-PT-17.png,0.4,1.2,18,0.5,,,,,,,,,,,,,0,6,6,17,1,,,,,,,,,,,,,,,,,,,,,,,,,,,,
,,,,,V3_110,20,Female,2025-02-06_16h32.34.027,jersey_experiment_5_v3,2023.2.2,Win32,84.74576271,,,,,,,,,,,,,,,,658.1399,659.4338,659.4338,661.0101,return,0.1904,,99.08854167,,,,,,FBP-PT-17.png,0.45,1.2,20,0.5,,,,,,,,,,,,,0,7,7,19,1,,,,,,,,,,,,,,,,,,,,,,,,,,,,
,,,,,V3_110,20,Female,2025-02-06_16h32.34.027,jersey_experiment_5_v3,2023.2.2,Win32,84.74576271,,,,,,,,,,,,,,,,661.0104,662.3044,662.3044,663.2926,return,0.1804,,74.86979167,,,,,,FBP-PT-19.png,0.37,1.2,27,0.5,,,,,,,,,,,,,0,8,8,26,1,,,,,,,,,,,,,,,,,,,,,,,,,,,,
,,,,,V3_110,20,Female,2025-02-06_16h32.34.027,jersey_experiment_5_v3,2023.2.2,Win32,84.74576271,,,,,,,,,,,,,,,,663.2928,664.834,664.8341,665.9162,return,0.2168,,25.13020833,,,,,,FBP-OG-17.png,0.35,1.2,31,0.75,,,,,,,,,,,,,0,9,9,30,1,,,,,,,,,,,,,,,,,,,,,,,,,,,,
,,,,,V3_110,20,Female,2025-02-06_16h32.34.027,jersey_experiment_5_v3,2023.2.2,Win32,84.74576271,,,,,,,,,,,,,,,,665.9165,667.2105,667.2105,667.9869,return,0.1308,,25.26041667,,,,,,FBP-PT-18.png,0.37,1.2,22,0.5,,,,,,,,,,,,,0,10,10,21,1,,,,,,,,,,,,,,,,,,,,,,,,,,,,
,,,,,V3_110,20,Female,2025-02-06_16h32.34.027,jersey_experiment_5_v3,2023.2.2,Win32,84.74576271,,,,,,,,,,,,,,,,667.9872,669.2811,669.2812,670.4458,return,0.1721,,74.47916667,,,,,,FBP-PT-18.png,0.43,1.2,24,0.5,,,,,,,,,,,,,0,11,11,23,1,,,,,,,,,,,,,,,,,,,,,,,,,,,,
,,,,,V3_110,20,Female,2025-02-06_16h32.34.027,jersey_experiment_5_v3,2023.2.2,Win32,84.74576271,,,,,,,,,,,,,,,,670.4461,671.7401,671.7401,673.7637,return,0.2126,,99.21875,,,,,,FBP-YG-91.png,0.43,1.2,14,0.5,,,,,,,,,,,,,0,12,12,13,1,,,,,,,,,,,,,,,,,,,,,,,,,,,,
,,,,,V3_110,20,Female,2025-02-06_16h32.34.027,jersey_experiment_5_v3,2023.2.2,Win32,84.74576271,,,,,,,,,,,,,,,,673.7639,675.0577,675.0578,677.4461,return,0.8844,,25.26041667,,,,,,FBP-RB-18.png,0.37,1.2,52,0.5,,,,,,,,,,,,,0,13,13,51,1,,,,,,,,,,,,,,,,,,,,,,,,,,,,
,,,,,V3_110,20,Female,2025-02-06_16h32.34.027,jersey_experiment_5_v3,2023.2.2,Win32,84.74576271,,,,,,,,,,,,,,,,677.4463,678.9991,678.9992,680.1404,return,0.1492,,74.21875,,,,,,FBP-OG-19.png,0.43,1.2,44,0.75,,,,,,,,,,,,,0,14,14,43,1,,,,,,,,,,,,,,,,,,,,,,,,,,,,
,,,,,V3_110,20,Female,2025-02-06_16h32.34.027,jersey_experiment_5_v3,2023.2.2,Win32,84.74576271,,,,,,,,,,,,,,,,680.1406,681.4345,681.4346,683.3287,return,0.1674,,25,,,,,,FBP-RB-17.png,0.37,1.2,47,0.5,,,,,,,,,,,,,0,15,15,46,1,,,,,,,,,,,,,,,,,,,,,,,,,,,,
,,,,,V3_110,20,Female,2025-02-06_16h32.34.027,jersey_experiment_5_v3,2023.2.2,Win32,84.74576271,,,,,,,,,,,,,,,,683.3289,684.6229,684.6229,685.964,return,0.1376,,75.13020833,,,,,,FBP-RB-19.png,0.4,1.2,58,0.5,,,,,,,,,,,,,0,16,16,57,1,,,,,,,,,,,,,,,,,,,,,,,,,,,,
,,,,,V3_110,20,Female,2025-02-06_16h32.34.027,jersey_experiment_5_v3,2023.2.2,Win32,84.74576271,,,,,,,,,,,,,,,,685.9642,687.5171,687.5171,689.4937,return,0.1911,,75,,,,,,FBP-OG-19.png,0.4,1.2,43,0.75,,,,,,,,,,,,,0,17,17,42,1,,,,,,,,,,,,,,,,,,,,,,,,,,,,
,,,,,V3_110,20,Female,2025-02-06_16h32.34.027,jersey_experiment_5_v3,2023.2.2,Win32,84.74576271,,,,,,,,,,,,,,,,689.494,690.7877,690.7877,692.5877,return,0.2765,,98.69791667,,,,,,FBP-PT-18.png,0.45,1.2,25,0.5,,,,,,,,,,,,,0,18,18,24,1,,,,,,,,,,,,,,,,,,,,,,,,,,,,
,,,,,V3_110,20,Female,2025-02-06_16h32.34.027,jersey_experiment_5_v3,2023.2.2,Win32,84.74576271,,,,,,,,,,,,,,,,692.588,693.882,693.8821,696.5174,return,0.2119,,25.26041667,,,,,,FBP-YG-71.png,0.35,1.2,1,0.5,,,,,,,,,,,,,0,19,19,0,1,,,,,,,,,,,,,,,,,,,,,,,,,,,,
,,,,,V3_110,20,Female,2025-02-06_16h32.34.027,jersey_experiment_5_v3,2023.2.2,Win32,84.74576271,,,,,,,,,,,,,,,,696.5177,698.059,698.059,699.2822,return,0.1658,,74.73958333,,,,,,FBP-OG-17.png,0.43,1.2,34,0.75,,,,,,,,,,,,,0,20,20,33,1,,,,,,,,,,,,,,,,,,,,,,,,,,,,
,,,,,V3_110,20,Female,2025-02-06_16h32.34.027,jersey_experiment_5_v3,2023.2.2,Win32,84.74576271,,,,,,,,,,,,,,,,699.2825,700.8352,700.8353,702.1881,return,0.2673,,99.21875,,,,,,FBP-OG-18.png,0.45,1.2,40,0.75,,,,,,,,,,,,,0,21,21,39,1,,,,,,,,,,,,,,,,,,,,,,,,,,,,
,,,,,V3_110,20,Female,2025-02-06_16h32.34.027,jersey_experiment_5_v3,2023.2.2,Win32,84.74576271,,,,,,,,,,,,,,,,702.1884,703.4823,703.4823,704.1883,return,0.1964,,99.21875,,,,,,FBP-RB-18.png,0.43,1.2,54,0.5,,,,,,,,,,,,,0,22,22,53,1,,,,,,,,,,,,,,,,,,,,,,,,,,,,
,,,,,V3_110,20,Female,2025-02-06_16h32.34.027,jersey_experiment_5_v3,2023.2.2,Win32,84.74576271,,,,,,,,,,,,,,,,704.1886,705.7412,705.7413,706.8001,return,0.1457,,74.609375,,,,,,FBP-OG-17.png,0.4,1.2,33,0.75,,,,,,,,,,,,,0,23,23,32,1,,,,,,,,,,,,,,,,,,,,,,,,,,,,
,,,,,V3_110,20,Female,2025-02-06_16h32.34.027,jersey_experiment_5_v3,2023.2.2,Win32,84.74576271,,,,,,,,,,,,,,,,706.8004,708.0943,708.0943,708.6237,return,0.213,,74.609375,,,,,,FBP-RB-19.png,0.37,1.2,57,0.5,,,,,,,,,,,,,0,24,24,56,1,,,,,,,,,,,,,,,,,,,,,,,,,,,,
,,,,,V3_110,20,Female,2025-02-06_16h32.34.027,jersey_experiment_5_v3,2023.2.2,Win32,84.74576271,,,,,,,,,,,,,,,,708.6238,709.918,709.918,711.2596,return,0.1857,,24.73958333,,,,,,FBP-PT-17.png,0.35,1.2,16,0.5,,,,,,,,,,,,,0,25,25,15,1,,,,,,,,,,,,,,,,,,,,,,,,,,,,
,,,,,V3_110,20,Female,2025-02-06_16h32.34.027,jersey_experiment_5_v3,2023.2.2,Win32,84.74576271,,,,,,,,,,,,,,,,711.2599,712.5532,712.5533,713.7181,return,0.1413,,75.13020833,,,,,,FBP-RB-18.png,0.4,1.2,53,0.5,,,,,,,,,,,,,0,26,26,52,1,,,,,,,,,,,,,,,,,,,,,,,,,,,,
,,,,,V3_110,20,Female,2025-02-06_16h32.34.027,jersey_experiment_5_v3,2023.2.2,Win32,84.74576271,,,,,,,,,,,,,,,,713.7184,715.2709,715.271,715.7181,return,0.1413,,75.13020833,,,,,,FBP-OG-19.png,0.37,1.2,42,0.75,,,,,,,,,,,,,0,27,27,41,1,,,,,,,,,,,,,,,,,,,,,,,,,,,,
,,,,,V3_110,20,Female,2025-02-06_16h32.34.027,jersey_experiment_5_v3,2023.2.2,Win32,84.74576271,,,,,,,,,,,,,,,,715.7184,717.0122,717.0122,718.0476,return,0.0754,,75,,,,,,FBP-PT-19.png,0.43,1.2,29,0.5,,,,,,,,,,,,,0,28,28,28,1,,,,,,,,,,,,,,,,,,,,,,,,,,,,
,,,,,V3_110,20,Female,2025-02-06_16h32.34.027,jersey_experiment_5_v3,2023.2.2,Win32,84.74576271,,,,,,,,,,,,,,,,718.0479,719.3418,719.3418,719.8241,return,0.1571,,75,,,,,,FBP-YG-81.png,0.4,1.2,8,0.5,,,,,,,,,,,,,0,29,29,7,1,,,,,,,,,,,,,,,,,,,,,,,,,,,,
,,,,,V3_110,20,Female,2025-02-06_16h32.34.027,jersey_experiment_5_v3,2023.2.2,Win32,84.74576271,,,,,,,,,,,,,,,,719.8244,721.1184,721.1184,721.5654,return,0.1237,,75,,,,,,FBP-YG-91.png,0.4,1.2,13,0.5,,,,,,,,,,,,,0,30,30,12,1,,,,,,,,,,,,,,,,,,,,,,,,,,,,
,,,,,V3_110,20,Female,2025-02-06_16h32.34.027,jersey_experiment_5_v3,2023.2.2,Win32,84.74576271,,,,,,,,,,,,,,,,721.5657,722.8595,722.8595,723.683,return,0.1393,,75,,,,,,FBP-YG-91.png,0.37,1.2,12,0.5,,,,,,,,,,,,,0,31,31,11,1,,,,,,,,,,,,,,,,,,,,,,,,,,,,
,,,,,V3_110,20,Female,2025-02-06_16h32.34.027,jersey_experiment_5_v3,2023.2.2,Win32,84.74576271,,,,,,,,,,,,,,,,723.6832,724.9772,724.9773,726.6127,return,0.7635,,100,,,,,,FBP-YG-71.png,0.43,1.2,4,0.5,,,,,,,,,,,,,0,32,32,3,1,,,,,,,,,,,,,,,,,,,,,,,,,,,,
,,,,,V3_110,20,Female,2025-02-06_16h32.34.027,jersey_experiment_5_v3,2023.2.2,Win32,84.74576271,,,,,,,,,,,,,,,,726.6131,727.9068,727.9068,728.989,return,0.0653,,24.609375,,,,,,FBP-PT-18.png,0.35,1.2,21,0.5,,,,,,,,,,,,,0,33,33,20,1,,,,,,,,,,,,,,,,,,,,,,,,,,,,
,,,,,V3_110,20,Female,2025-02-06_16h32.34.027,jersey_experiment_5_v3,2023.2.2,Win32,84.74576271,,,,,,,,,,,,,,,,728.9894,730.2833,730.2834,730.9892,return,0.1363,,24.73958333,,,,,,FBP-YG-71.png,0.37,1.2,2,0.5,,,,,,,,,,,,,0,34,34,1,1,,,,,,,,,,,,,,,,,,,,,,,,,,,,
,,,,,V3_110,20,Female,2025-02-06_16h32.34.027,jersey_experiment_5_v3,2023.2.2,Win32,84.74576271,,,,,,,,,,,,,,,,730.9895,732.5308,732.5308,733.4833,return,0.1034,,75.13020833,,,,,,FBP-OG-18.png,0.43,1.2,39,0.75,,,,,,,,,,,,,0,35,35,38,1,,,,,,,,,,,,,,,,,,,,,,,,,,,,
,,,,,V3_110,20,Female,2025-02-06_16h32.34.027,jersey_experiment_5_v3,2023.2.2,Win32,84.74576271,,,,,,,,,,,,,,,,733.4835,734.7777,734.7778,736.6248,return,0.1567,,99.47916667,,,,,,FBP-RB-18.png,0.45,1.2,55,0.5,,,,,,,,,,,,,0,36,36,54,1,,,,,,,,,,,,,,,,,,,,,,,,,,,,
,,,,,V3_110,20,Female,2025-02-06_16h32.34.027,jersey_experiment_5_v3,2023.2.2,Win32,84.74576271,,,,,,,,,,,,,,,,736.625,737.9188,737.9189,740.3189,return,0.1217,,74.08854167,,,,,,FBP-PT-19.png,0.4,1.2,28,0.5,,,,,,,,,,,,,0,37,37,27,1,,,,,,,,,,,,,,,,,,,,,,,,,,,,
,,,,,V3_110,20,Female,2025-02-06_16h32.34.027,jersey_experiment_5_v3,2023.2.2,Win32,84.74576271,,,,,,,,,,,,,,,,740.3192,741.6131,741.6132,742.178,return,0.1557,,75,,,,,,FBP-RB-19.png,0.45,1.2,60,0.5,,,,,,,,,,,,,0,38,38,59,1,,,,,,,,,,,,,,,,,,,,,,,,,,,,
,,,,,V3_110,20,Female,2025-02-06_16h32.34.027,jersey_experiment_5_v3,2023.2.2,Win32,84.74576271,,,,,,,,,,,,,,,,742.1783,743.472,743.4721,744.1898,return,0.1582,,75,,,,,,FBP-RB-17.png,0.35,1.2,46,0.5,,,,,,,,,,,,,0,39,39,45,1,,,,,,,,,,,,,,,,,,,,,,,,,,,,
,,,,,V3_110,20,Female,2025-02-06_16h32.34.027,jersey_experiment_5_v3,2023.2.2,Win32,84.74576271,,,,,,,,,,,,,,,,744.1901,745.7314,745.7314,746.5428,return,0.1559,,99.34895833,,,,,,FBP-OG-19.png,0.45,1.2,45,0.75,,,,,,,,,,,,,0,40,40,44,1,,,,,,,,,,,,,,,,,,,,,,,,,,,,
,,,,,V3_110,20,Female,2025-02-06_16h32.34.027,jersey_experiment_5_v3,2023.2.2,Win32,84.74576271,,,,,,,,,,,,,,,,746.5433,747.8369,747.837,748.9429,return,0.0759,,74.86979167,,,,,,FBP-RB-17.png,0.4,1.2,48,0.5,,,,,,,,,,,,,0,41,41,47,1,,,,,,,,,,,,,,,,,,,,,,,,,,,,
,,,,,V3_110,20,Female,2025-02-06_16h32.34.027,jersey_experiment_5_v3,2023.2.2,Win32,84.74576271,,,,,,,,,,,,,,,,748.9431,750.2371,750.2371,751.3313,return,0.107,,99.609375,,,,,,FBP-YG-71.png,0.45,1.2,5,0.5,,,,,,,,,,,,,0,42,42,4,1,,,,,,,,,,,,,,,,,,,,,,,,,,,,
,,,,,V3_110,20,Female,2025-02-06_16h32.34.027,jersey_experiment_5_v3,2023.2.2,Win32,84.74576271,,,,,,,,,,,,,,,,751.3317,752.6253,752.6254,753.9314,return,0.1117,,74.609375,,,,,,FBP-PT-18.png,0.4,1.2,23,0.5,,,,,,,,,,,,,0,43,43,22,1,,,,,,,,,,,,,,,,,,,,,,,,,,,,
,,,,,V3_110,20,Female,2025-02-06_16h32.34.027,jersey_experiment_5_v3,2023.2.2,Win32,84.74576271,,,,,,,,,,,,,,,,753.9316,755.2256,755.2257,756.7666,return,0.6848,,99.21875,,,,,,FBP-YG-91.png,0.45,1.2,15,0.5,,,,,,,,,,,,,0,44,44,14,1,,,,,,,,,,,,,,,,,,,,,,,,,,,,
,,,,,V3_110,20,Female,2025-02-06_16h32.34.027,jersey_experiment_5_v3,2023.2.2,Win32,84.74576271,,,,,,,,,,,,,,,,756.7669,758.0609,758.0609,759.2845,return,0.3049,,25.390625,,,,,,FBP-RB-19.png,0.35,1.2,56,0.5,,,,,,,,,,,,,0,45,45,55,1,,,,,,,,,,,,,,,,,,,,,,,,,,,,
,,,,,V3_110,20,Female,2025-02-06_16h32.34.027,jersey_experiment_5_v3,2023.2.2,Win32,84.74576271,,,,,,,,,,,,,,,,759.2849,760.8373,760.8374,761.508,return,0.2119,,25.13020833,,,,,,FBP-OG-17.png,0.37,1.2,32,0.75,,,,,,,,,,,,,0,46,46,31,1,,,,,,,,,,,,,,,,,,,,,,,,,,,,
,,,,,V3_110,20,Female,2025-02-06_16h32.34.027,jersey_experiment_5_v3,2023.2.2,Win32,84.74576271,,,,,,,,,,,,,,,,761.5083,762.8021,762.8022,767.1199,return,0.6277,,75.52083333,,,,,,FBP-RB-17.png,0.43,1.2,49,0.5,,,,,,,,,,,,,0,47,47,48,1,,,,,,,,,,,,,,,,,,,,,,,,,,,,
,,,,,V3_110,20,Female,2025-02-06_16h32.34.027,jersey_experiment_5_v3,2023.2.2,Win32,84.74576271,,,,,,,,,,,,,,,,767.1202,768.4141,768.4142,769.8261,return,0.0866,,99.86979167,,,,,,FBP-YG-81.png,0.45,1.2,10,0.5,,,,,,,,,,,,,0,48,48,9,1,,,,,,,,,,,,,,,,,,,,,,,,,,,,
,,,,,V3_110,20,Female,2025-02-06_16h32.34.027,jersey_experiment_5_v3,2023.2.2,Win32,84.74576271,,,,,,,,,,,,,,,,769.8263,771.1202,771.1202,774.1556,return,0.1147,,99.73958333,,,,,,FBP-RB-17.png,0.45,1.2,50,0.5,,,,,,,,,,,,,0,49,49,49,1,,,,,,,,,,,,,,,,,,,,,,,,,,,,
,,,,,V3_110,20,Female,2025-02-06_16h32.34.027,jersey_experiment_5_v3,2023.2.2,Win32,84.74576271,,,,,,,,,,,,,,,,774.1559,775.7085,775.7085,776.9086,return,0.3124,,99.73958333,,,,,,FBP-OG-18.png,0.4,1.2,38,0.75,,,,,,,,,,,,,0,50,50,37,1,,,,,,,,,,,,,,,,,,,,,,,,,,,,
,,,,,V3_110,20,Female,2025-02-06_16h32.34.027,jersey_experiment_5_v3,2023.2.2,Win32,84.74576271,,,,,,,,,,,,,,,,776.9089,778.2028,778.2028,778.9439,return,0.2012,,99.73958333,,,,,,FBP-PT-19.png,0.45,1.2,30,0.5,,,,,,,,,,,,,0,51,51,29,1,,,,,,,,,,,,,,,,,,,,,,,,,,,,
,,,,,V3_110,20,Female,2025-02-06_16h32.34.027,jersey_experiment_5_v3,2023.2.2,Win32,84.74576271,,,,,,,,,,,,,,,,778.9441,780.2381,780.2381,781.9793,return,0.1973,,76.04166667,,,,,,FBP-YG-71.png,0.4,1.2,3,0.5,,,,,,,,,,,,,0,52,52,2,1,,,,,,,,,,,,,,,,,,,,,,,,,,,,
,,,,,V3_110,20,Female,2025-02-06_16h32.34.027,jersey_experiment_5_v3,2023.2.2,Win32,84.74576271,,,,,,,,,,,,,,,,781.9796,783.2735,783.2735,785.8149,return,1.2473,,24.47916667,,,,,,FBP-PT-17.png,0.37,1.2,17,0.5,,,,,,,,,,,,,0,53,53,16,1,,,,,,,,,,,,,,,,,,,,,,,,,,,,
,,,,,V3_110,20,Female,2025-02-06_16h32.34.027,jersey_experiment_5_v3,2023.2.2,Win32,84.74576271,,,,,,,,,,,,,,,,785.8152,787.3677,787.3677,790.3797,return,1.2662,,24.86979167,,,,,,FBP-OG-18.png,0.35,1.2,36,0.75,,,,,,,,,,,,,0,54,54,35,1,,,,,,,,,,,,,,,,,,,,,,,,,,,,
,,,,,V3_110,20,Female,2025-02-06_16h32.34.027,jersey_experiment_5_v3,2023.2.2,Win32,84.74576271,,,,,,,,,,,,,,,,790.3799,791.9327,791.9327,795.2504,return,2.0126,,25,,,,,,FBP-OG-19.png,0.35,1.2,41,0.75,,,,,,,,,,,,,0,55,55,40,1,,,,,,,,,,,,,,,,,,,,,,,,,,,,
,,,,,V3_110,20,Female,2025-02-06_16h32.34.027,jersey_experiment_5_v3,2023.2.2,Win32,84.74576271,,,,,,,,,,,,,,,,795.2507,796.5445,796.5445,799.4622,return,0.6694,,25.26041667,,,,,,FBP-YG-81.png,0.37,1.2,7,0.5,,,,,,,,,,,,,0,56,56,6,1,,,,,,,,,,,,,,,,,,,,,,,,,,,,
,,,,,V3_110,20,Female,2025-02-06_16h32.34.027,jersey_experiment_5_v3,2023.2.2,Win32,84.74576271,,,,,,,,,,,,,,,,799.4624,800.7565,800.7565,803.2036,return,0.6829,,24.34895833,,,,,,FBP-YG-81.png,0.35,1.2,6,0.5,,,,,,,,,,,,,0,57,57,5,1,,,,,,,,,,,,,,,,,,,,,,,,,,,,
,,,,,V3_110,20,Female,2025-02-06_16h32.34.027,jersey_experiment_5_v3,2023.2.2,Win32,84.74576271,,,,,,,,,,,,,,,,803.2039,804.4977,804.4978,807.698,return,0.6469,,75.26041667,,,,,,FBP-PT-17.png,0.43,1.2,19,0.5,,,,,,,,,,,,,0,58,58,18,1,,,,,,,,,,,,,,,,,,,,,,,,,,,,
,,,,,V3_110,20,Female,2025-02-06_16h32.34.027,jersey_experiment_5_v3,2023.2.2,Win32,84.74576271,,,,,,,,,,,,,,,,807.6984,808.9922,808.9923,810.7569,return,0.612,,25.26041667,,,,,,FBP-RB-18.png,0.35,1.2,51,0.5,,,,,,,,,,,,,0,59,59,50,1,,,,,,,,,,,,,,,,,,,,,,,,,,,,
,,,,,V3_110,20,Female,2025-02-06_16h32.34.027,jersey_experiment_5_v3,2023.2.2,Win32,84.74576271,,,,,,,,,,,,,,,,810.7582,812.051,812.0511,814.5335,return,1.5771,,25.65104167,,,,,,FBP-RB-71.png,0.35,1.2,46,0.5,,,,,,,,,,,,,,,,,,0,0,0,45,1,,,,,,,,,,,,,,,,,,,,,,,
,,,,,V3_110,20,Female,2025-02-06_16h32.34.027,jersey_experiment_5_v3,2023.2.2,Win32,84.74576271,,,,,,,,,,,,,,,,814.5337,815.8276,815.8276,819.3337,return,0.7442,,74.609375,,,,,,FBP-YG-19.png,0.4,1.2,13,0.5,,,,,,,,,,,,,,,,,,0,1,1,12,1,,,,,,,,,,,,,,,,,,,,,,,
,,,,,V3_110,20,Female,2025-02-06_16h32.34.027,jersey_experiment_5_v3,2023.2.2,Win32,84.74576271,,,,,,,,,,,,,,,,819.3339,820.6279,820.6279,822.7691,return,0.6136,,74.73958333,,,,,,FBP-RB-71.png,0.4,1.2,48,0.5,,,,,,,,,,,,,,,,,,0,2,2,47,1,,,,,,,,,,,,,,,,,,,,,,,
,,,,,V3_110,20,Female,2025-02-06_16h32.34.027,jersey_experiment_5_v3,2023.2.2,Win32,84.74576271,,,,,,,,,,,,,,,,822.7693,824.0632,824.0632,825.5691,return,0.6736,,75,,,,,,FBP-RB-71.png,0.45,1.2,50,0.5,,,,,,,,,,,,,,,,,,0,3,3,49,1,,,,,,,,,,,,,,,,,,,,,,,
,,,,,V3_110,20,Female,2025-02-06_16h32.34.027,jersey_experiment_5_v3,2023.2.2,Win32,84.74576271,,,,,,,,,,,,,,,,825.5694,827.1222,827.1222,833.8399,return,1.0979,,49.73958333,,,,,,FBP-OG-81.png,0.4,1.2,38,0.75,,,,,,,,,,,,,,,,,,0,4,4,37,1,,,,,,,,,,,,,,,,,,,,,,,
,,,,,V3_110,20,Female,2025-02-06_16h32.34.027,jersey_experiment_5_v3,2023.2.2,Win32,84.74576271,,,,,,,,,,,,,,,,833.8402,835.393,835.3932,836.5578,return,0.2174,,50.52083333,,,,,,FBP-OG-91.png,0.37,1.2,42,0.75,,,,,,,,,,,,,,,,,,0,5,5,41,1,,,,,,,,,,,,,,,,,,,,,,,
,,,,,V3_110,20,Female,2025-02-06_16h32.34.027,jersey_experiment_5_v3,2023.2.2,Win32,84.74576271,,,,,,,,,,,,,,,,836.5581,837.852,837.852,840.5345,return,1.3453,,25.91145833,,,,,,FBP-RB-81.png,0.35,1.2,51,0.5,,,,,,,,,,,,,,,,,,0,6,6,50,1,,,,,,,,,,,,,,,,,,,,,,,
,,,,,V3_110,20,Female,2025-02-06_16h32.34.027,jersey_experiment_5_v3,2023.2.2,Win32,84.74576271,,,,,,,,,,,,,,,,840.5348,842.0874,842.0875,843.9346,return,0.2965,,74.08854167,,,,,,FBP-OG-91.png,0.4,1.2,43,0.75,,,,,,,,,,,,,,,,,,0,7,7,42,1,,,,,,,,,,,,,,,,,,,,,,,
,,,,,V3_110,20,Female,2025-02-06_16h32.34.027,jersey_experiment_5_v3,2023.2.2,Win32,84.74576271,,,,,,,,,,,,,,,,843.9348,845.4876,845.4877,847.0524,return,0.6784,,76.171875,,,,,,FBP-OG-81.png,0.43,1.2,39,0.75,,,,,,,,,,,,,,,,,,0,8,8,38,1,,,,,,,,,,,,,,,,,,,,,,,
,,,,,V3_110,20,Female,2025-02-06_16h32.34.027,jersey_experiment_5_v3,2023.2.2,Win32,84.74576271,,,,,,,,,,,,,,,,847.0526,848.3466,848.3466,849.8877,return,0.3338,,98.95833333,,,,,,FBP-YG-17.png,0.43,1.2,4,0.5,,,,,,,,,,,,,,,,,,0,9,9,3,1,,,,,,,,,,,,,,,,,,,,,,,
,,,,,V3_110,20,Female,2025-02-06_16h32.34.027,jersey_experiment_5_v3,2023.2.2,Win32,84.74576271,,,,,,,,,,,,,,,,849.8881,851.1819,851.182,851.9702,return,0.0949,,99.47916667,,,,,,FBP-RB-71.png,0.43,1.2,49,0.5,,,,,,,,,,,,,,,,,,0,10,10,48,1,,,,,,,,,,,,,,,,,,,,,,,
,,,,,V3_110,20,Female,2025-02-06_16h32.34.027,jersey_experiment_5_v3,2023.2.2,Win32,84.74576271,,,,,,,,,,,,,,,,851.9705,853.2643,853.2644,856.5821,return,1.5534,,50.52083333,,,,,,FBP-PT-81.png,0.35,1.2,21,0.5,,,,,,,,,,,,,,,,,,0,11,11,20,1,,,,,,,,,,,,,,,,,,,,,,,
,,,,,V3_110,20,Female,2025-02-06_16h32.34.027,jersey_experiment_5_v3,2023.2.2,Win32,84.74576271,,,,,,,,,,,,,,,,856.5824,857.8764,857.8764,858.9471,return,0.1297,,50.390625,,,,,,FBP-PT-71.png,0.4,1.2,18,0.5,,,,,,,,,,,,,,,,,,0,12,12,17,1,,,,,,,,,,,,,,,,,,,,,,,
,,,,,V3_110,20,Female,2025-02-06_16h32.34.027,jersey_experiment_5_v3,2023.2.2,Win32,84.74576271,,,,,,,,,,,,,,,,858.9474,860.241,860.241,862.2529,return,0.2895,,99.609375,,,,,,FBP-RB-91.png,0.43,1.2,59,0.5,,,,,,,,,,,,,,,,,,0,13,13,58,1,,,,,,,,,,,,,,,,,,,,,,,
,,,,,V3_110,20,Female,2025-02-06_16h32.34.027,jersey_experiment_5_v3,2023.2.2,Win32,84.74576271,,,,,,,,,,,,,,,,862.2532,863.547,863.5471,864.1469,return,0.1423,,99.34895833,,,,,,FBP-PT-71.png,0.45,1.2,20,0.5,,,,,,,,,,,,,,,,,,0,14,14,19,1,,,,,,,,,,,,,,,,,,,,,,,
,,,,,V3_110,20,Female,2025-02-06_16h32.34.027,jersey_experiment_5_v3,2023.2.2,Win32,84.74576271,,,,,,,,,,,,,,,,864.1472,865.4413,865.4413,866.1942,return,0.2242,,99.34895833,,,,,,FBP-YG-19.png,0.43,1.2,14,0.5,,,,,,,,,,,,,,,,,,0,15,15,13,1,,,,,,,,,,,,,,,,,,,,,,,
,,,,,V3_110,20,Female,2025-02-06_16h32.34.027,jersey_experiment_5_v3,2023.2.2,Win32,84.74576271,,,,,,,,,,,,,,,,866.1946,867.7471,867.7472,868.4767,return,0.2901,,99.34895833,,,,,,FBP-OG-91.png,0.45,1.2,45,0.75,,,,,,,,,,,,,,,,,,0,16,16,44,1,,,,,,,,,,,,,,,,,,,,,,,
,,,,,V3_110,20,Female,2025-02-06_16h32.34.027,jersey_experiment_5_v3,2023.2.2,Win32,84.74576271,,,,,,,,,,,,,,,,868.4769,869.7707,869.7708,870.7473,return,0.3737,,99.34895833,,,,,,FBP-PT-71.png,0.43,1.2,19,0.5,,,,,,,,,,,,,,,,,,0,17,17,18,1,,,,,,,,,,,,,,,,,,,,,,,
,,,,,V3_110,20,Female,2025-02-06_16h32.34.027,jersey_experiment_5_v3,2023.2.2,Win32,84.74576271,,,,,,,,,,,,,,,,870.7475,872.3004,872.3004,873.6534,return,0.1283,,24.73958333,,,,,,FBP-OG-71.png,0.37,1.2,32,0.75,,,,,,,,,,,,,,,,,,0,18,18,31,1,,,,,,,,,,,,,,,,,,,,,,,
,,,,,V3_110,20,Female,2025-02-06_16h32.34.027,jersey_experiment_5_v3,2023.2.2,Win32,84.74576271,,,,,,,,,,,,,,,,873.6536,874.9476,874.9476,875.5006,return,0.1476,,25.13020833,,,,,,FBP-PT-71.png,0.37,1.2,17,0.5,,,,,,,,,,,,,,,,,,0,19,19,16,1,,,,,,,,,,,,,,,,,,,,,,,
,,,,,V3_110,20,Female,2025-02-06_16h32.34.027,jersey_experiment_5_v3,2023.2.2,Win32,84.74576271,,,,,,,,,,,,,,,,875.5009,876.7945,876.7946,878.0653,return,0.0721,,74.34895833,,,,,,FBP-RB-91.png,0.45,1.2,60,0.5,,,,,,,,,,,,,,,,,,0,20,20,59,1,,,,,,,,,,,,,,,,,,,,,,,
,,,,,V3_110,20,Female,2025-02-06_16h32.34.027,jersey_experiment_5_v3,2023.2.2,Win32,84.74576271,,,,,,,,,,,,,,,,878.0655,879.3593,879.3594,880.7359,return,0.2632,,99.609375,,,,,,FBP-YG-19.png,0.45,1.2,15,0.5,,,,,,,,,,,,,,,,,,0,21,21,14,1,,,,,,,,,,,,,,,,,,,,,,,
,,,,,V3_110,20,Female,2025-02-06_16h32.34.027,jersey_experiment_5_v3,2023.2.2,Win32,84.74576271,,,,,,,,,,,,,,,,880.7362,882.0301,882.0301,883.4889,return,0.2001,,24.86979167,,,,,,FBP-RB-91.png,0.35,1.2,56,0.5,,,,,,,,,,,,,,,,,,0,22,22,55,1,,,,,,,,,,,,,,,,,,,,,,,
,,,,,V3_110,20,Female,2025-02-06_16h32.34.027,jersey_experiment_5_v3,2023.2.2,Win32,84.74576271,,,,,,,,,,,,,,,,883.4892,884.7832,884.7833,886.1596,return,0.1662,,74.21875,,,,,,FBP-YG-18.png,0.43,1.2,9,0.5,,,,,,,,,,,,,,,,,,0,23,23,8,1,,,,,,,,,,,,,,,,,,,,,,,
,,,,,V3_110,20,Female,2025-02-06_16h32.34.027,jersey_experiment_5_v3,2023.2.2,Win32,84.74576271,,,,,,,,,,,,,,,,886.1599,887.4539,887.4539,888.8068,return,0.1413,,25.26041667,,,,,,FBP-PT-71.png,0.35,1.2,16,0.5,,,,,,,,,,,,,,,,,,0,24,24,15,1,,,,,,,,,,,,,,,,,,,,,,,
,,,,,V3_110,20,Female,2025-02-06_16h32.34.027,jersey_experiment_5_v3,2023.2.2,Win32,84.74576271,,,,,,,,,,,,,,,,888.8071,890.1011,890.1012,890.7364,return,0.2458,,25.26041667,,,,,,FBP-YG-19.png,0.35,1.2,11,0.5,,,,,,,,,,,,,,,,,,0,25,25,10,1,,,,,,,,,,,,,,,,,,,,,,,
,,,,,V3_110,20,Female,2025-02-06_16h32.34.027,jersey_experiment_5_v3,2023.2.2,Win32,84.74576271,,,,,,,,,,,,,,,,890.7367,892.0305,892.0305,892.9246,return,0.2429,,25.26041667,,,,,,FBP-PT-91.png,0.37,1.2,27,0.5,,,,,,,,,,,,,,,,,,0,26,26,26,1,,,,,,,,,,,,,,,,,,,,,,,
,,,,,V3_110,20,Female,2025-02-06_16h32.34.027,jersey_experiment_5_v3,2023.2.2,Win32,84.74576271,,,,,,,,,,,,,,,,892.9249,894.4778,894.4778,896.9247,return,0.1957,,99.609375,,,,,,FBP-OG-71.png,0.45,1.2,35,0.75,,,,,,,,,,,,,,,,,,0,27,27,34,1,,,,,,,,,,,,,,,,,,,,,,,
,,,,,V3_110,20,Female,2025-02-06_16h32.34.027,jersey_experiment_5_v3,2023.2.2,Win32,84.74576271,,,,,,,,,,,,,,,,896.925,898.2191,898.2191,898.9013,return,0.0584,,74.609375,,,,,,FBP-RB-91.png,0.4,1.2,58,0.5,,,,,,,,,,,,,,,,,,0,28,28,57,1,,,,,,,,,,,,,,,,,,,,,,,
,,,,,V3_110,20,Female,2025-02-06_16h32.34.027,jersey_experiment_5_v3,2023.2.2,Win32,84.74576271,,,,,,,,,,,,,,,,898.9015,900.1954,900.1955,901.5485,return,0.1136,,49.08854167,,,,,,FBP-RB-81.png,0.37,1.2,52,0.5,,,,,,,,,,,,,,,,,,0,29,29,51,1,,,,,,,,,,,,,,,,,,,,,,,
,,,,,V3_110,20,Female,2025-02-06_16h32.34.027,jersey_experiment_5_v3,2023.2.2,Win32,84.74576271,,,,,,,,,,,,,,,,901.5487,903.1016,903.1016,903.925,return,0.2125,,75.78125,,,,,,FBP-OG-91.png,0.43,1.2,44,0.75,,,,,,,,,,,,,,,,,,0,30,30,43,1,,,,,,,,,,,,,,,,,,,,,,,
,,,,,V3_110,20,Female,2025-02-06_16h32.34.027,jersey_experiment_5_v3,2023.2.2,Win32,84.74576271,,,,,,,,,,,,,,,,903.9253,905.2199,905.2199,907.7252,return,0.5013,,99.73958333,,,,,,FBP-YG-18.png,0.45,1.2,10,0.5,,,,,,,,,,,,,,,,,,0,31,31,9,1,,,,,,,,,,,,,,,,,,,,,,,
,,,,,V3_110,20,Female,2025-02-06_16h32.34.027,jersey_experiment_5_v3,2023.2.2,Win32,84.74576271,,,,,,,,,,,,,,,,907.7255,909.2783,909.2783,910.1958,return,0.1057,,24.73958333,,,,,,FBP-OG-71.png,0.35,1.2,31,0.75,,,,,,,,,,,,,,,,,,0,32,32,30,1,,,,,,,,,,,,,,,,,,,,,,,
,,,,,V3_110,20,Female,2025-02-06_16h32.34.027,jersey_experiment_5_v3,2023.2.2,Win32,84.74576271,,,,,,,,,,,,,,,,910.1961,911.49,911.49,911.9959,return,0.1718,,25.26041667,,,,,,FBP-RB-71.png,0.37,1.2,47,0.5,,,,,,,,,,,,,,,,,,0,33,33,46,1,,,,,,,,,,,,,,,,,,,,,,,
,,,,,V3_110,20,Female,2025-02-06_16h32.34.027,jersey_experiment_5_v3,2023.2.2,Win32,84.74576271,,,,,,,,,,,,,,,,911.9961,913.29,913.29,913.7254,return,0.2892,,25.26041667,,,,,,FBP-YG-17.png,0.37,1.2,2,0.5,,,,,,,,,,,,,,,,,,0,34,34,1,1,,,,,,,,,,,,,,,,,,,,,,,
,,,,,V3_110,20,Female,2025-02-06_16h32.34.027,jersey_experiment_5_v3,2023.2.2,Win32,84.74576271,,,,,,,,,,,,,,,,913.7257,915.0196,915.0197,915.5726,return,0.2019,,25.26041667,,,,,,FBP-PT-91.png,0.35,1.2,26,0.5,,,,,,,,,,,,,,,,,,0,35,35,25,1,,,,,,,,,,,,,,,,,,,,,,,
,,,,,V3_110,20,Female,2025-02-06_16h32.34.027,jersey_experiment_5_v3,2023.2.2,Win32,84.74576271,,,,,,,,,,,,,,,,915.5729,916.8666,916.8667,917.349,return,0.1415,,25.390625,,,,,,FBP-YG-17.png,0.35,1.2,1,0.5,,,,,,,,,,,,,,,,,,0,36,36,0,1,,,,,,,,,,,,,,,,,,,,,,,
,,,,,V3_110,20,Female,2025-02-06_16h32.34.027,jersey_experiment_5_v3,2023.2.2,Win32,84.74576271,,,,,,,,,,,,,,,,917.3492,918.6433,918.6433,919.7728,return,0.1958,,74.73958333,,,,,,FBP-PT-91.png,0.43,1.2,29,0.5,,,,,,,,,,,,,,,,,,0,37,37,28,1,,,,,,,,,,,,,,,,,,,,,,,
,,,,,V3_110,20,Female,2025-02-06_16h32.34.027,jersey_experiment_5_v3,2023.2.2,Win32,84.74576271,,,,,,,,,,,,,,,,919.773,921.0668,921.0669,921.6198,return,0.1074,,74.73958333,,,,,,FBP-RB-81.png,0.4,1.2,53,0.5,,,,,,,,,,,,,,,,,,0,38,38,52,1,,,,,,,,,,,,,,,,,,,,,,,
,,,,,V3_110,20,Female,2025-02-06_16h32.34.027,jersey_experiment_5_v3,2023.2.2,Win32,84.74576271,,,,,,,,,,,,,,,,921.6201,923.1728,923.1729,924.9022,return,0.1415,,98.828125,,,,,,FBP-OG-71.png,0.43,1.2,34,0.75,,,,,,,,,,,,,,,,,,0,39,39,33,1,,,,,,,,,,,,,,,,,,,,,,,
,,,,,V3_110,20,Female,2025-02-06_16h32.34.027,jersey_experiment_5_v3,2023.2.2,Win32,84.74576271,,,,,,,,,,,,,,,,924.9026,926.1963,926.1963,927.7023,return,0.1044,,24.73958333,,,,,,FBP-YG-18.png,0.35,1.2,6,0.5,,,,,,,,,,,,,,,,,,0,40,40,5,1,,,,,,,,,,,,,,,,,,,,,,,
,,,,,V3_110,20,Female,2025-02-06_16h32.34.027,jersey_experiment_5_v3,2023.2.2,Win32,84.74576271,,,,,,,,,,,,,,,,927.7028,928.9965,928.9966,930.4789,return,0.1464,,25.26041667,,,,,,FBP-YG-18.png,0.4,1.2,8,0.5,,,,,,,,,,,,,,,,,,0,41,41,7,1,,,,,,,,,,,,,,,,,,,,,,,
,,,,,V3_110,20,Female,2025-02-06_16h32.34.027,jersey_experiment_5_v3,2023.2.2,Win32,84.74576271,,,,,,,,,,,,,,,,930.4791,931.7733,931.7734,933.2319,return,0.1786,,73.56770833,,,,,,FBP-RB-81.png,0.45,1.2,55,0.5,,,,,,,,,,,,,,,,,,0,42,42,54,1,,,,,,,,,,,,,,,,,,,,,,,
,,,,,V3_110,20,Female,2025-02-06_16h32.34.027,jersey_experiment_5_v3,2023.2.2,Win32,84.74576271,,,,,,,,,,,,,,,,933.2321,934.785,934.7851,935.7971,return,0.2591,,25.52083333,,,,,,FBP-OG-81.png,0.35,1.2,36,0.75,,,,,,,,,,,,,,,,,,0,43,43,35,1,,,,,,,,,,,,,,,,,,,,,,,
,,,,,V3_110,20,Female,2025-02-06_16h32.34.027,jersey_experiment_5_v3,2023.2.2,Win32,84.74576271,,,,,,,,,,,,,,,,935.7975,937.091,937.091,938.2088,return,0.2983,,74.73958333,,,,,,FBP-PT-81.png,0.43,1.2,24,0.5,,,,,,,,,,,,,,,,,,0,44,44,23,1,,,,,,,,,,,,,,,,,,,,,,,
,,,,,V3_110,20,Female,2025-02-06_16h32.34.027,jersey_experiment_5_v3,2023.2.2,Win32,84.74576271,,,,,,,,,,,,,,,,938.2089,939.7616,939.7616,940.8793,return,0.1225,,24.86979167,,,,,,FBP-OG-91.png,0.35,1.2,41,0.75,,,,,,,,,,,,,,,,,,0,45,45,40,1,,,,,,,,,,,,,,,,,,,,,,,
,,,,,V3_110,20,Female,2025-02-06_16h32.34.027,jersey_experiment_5_v3,2023.2.2,Win32,84.74576271,,,,,,,,,,,,,,,,940.8796,942.1736,942.1736,942.7029,return,0.1112,,25.26041667,,,,,,FBP-PT-81.png,0.4,1.2,23,0.5,,,,,,,,,,,,,,,,,,0,46,46,22,1,,,,,,,,,,,,,,,,,,,,,,,
,,,,,V3_110,20,Female,2025-02-06_16h32.34.027,jersey_experiment_5_v3,2023.2.2,Win32,84.74576271,,,,,,,,,,,,,,,,942.7032,943.997,943.9971,946.3736,return,0.1189,,74.609375,,,,,,FBP-YG-17.png,0.4,1.2,3,0.5,,,,,,,,,,,,,,,,,,0,47,47,2,1,,,,,,,,,,,,,,,,,,,,,,,
,,,,,V3_110,20,Female,2025-02-06_16h32.34.027,jersey_experiment_5_v3,2023.2.2,Win32,84.74576271,,,,,,,,,,,,,,,,946.3739,947.6677,947.6679,950.3031,return,0.4402,,74.609375,,,,,,FBP-YG-18.png,0.37,1.2,7,0.5,,,,,,,,,,,,,,,,,,0,48,48,6,1,,,,,,,,,,,,,,,,,,,,,,,
,,,,,V3_110,20,Female,2025-02-06_16h32.34.027,jersey_experiment_5_v3,2023.2.2,Win32,84.74576271,,,,,,,,,,,,,,,,950.3034,951.5974,951.5974,953.2326,return,0.0033,,74.609375,,,,,,FBP-RB-81.png,0.43,1.2,54,0.5,,,,,,,,,,,,,,,,,,0,49,49,53,1,,,,,,,,,,,,,,,,,,,,,,,
,,,,,V3_110,20,Female,2025-02-06_16h32.34.027,jersey_experiment_5_v3,2023.2.2,Win32,84.74576271,,,,,,,,,,,,,,,,953.2328,954.5268,954.5268,955.7739,return,0.0617,,24.609375,,,,,,FBP-RB-91.png,0.37,1.2,57,0.5,,,,,,,,,,,,,,,,,,0,50,50,56,1,,,,,,,,,,,,,,,,,,,,,,,
,,,,,V3_110,20,Female,2025-02-06_16h32.34.027,jersey_experiment_5_v3,2023.2.2,Win32,84.74576271,,,,,,,,,,,,,,,,955.7742,957.068,957.0681,957.5741,return,0.1314,,24.609375,,,,,,FBP-YG-19.png,0.37,1.2,12,0.5,,,,,,,,,,,,,,,,,,0,51,51,11,1,,,,,,,,,,,,,,,,,,,,,,,
,,,,,V3_110,20,Female,2025-02-06_16h32.34.027,jersey_experiment_5_v3,2023.2.2,Win32,84.74576271,,,,,,,,,,,,,,,,957.5744,959.1271,959.1272,959.6332,return,0.1077,,24.609375,,,,,,FBP-OG-81.png,0.37,1.2,37,0.75,,,,,,,,,,,,,,,,,,0,52,52,36,1,,,,,,,,,,,,,,,,,,,,,,,
,,,,,V3_110,20,Female,2025-02-06_16h32.34.027,jersey_experiment_5_v3,2023.2.2,Win32,84.74576271,,,,,,,,,,,,,,,,959.6334,960.927,960.9271,961.4919,return,0.2199,,24.609375,,,,,,FBP-PT-81.png,0.37,1.2,22,0.5,,,,,,,,,,,,,,,,,,0,53,53,21,1,,,,,,,,,,,,,,,,,,,,,,,
,,,,,V3_110,20,Female,2025-02-06_16h32.34.027,jersey_experiment_5_v3,2023.2.2,Win32,84.74576271,,,,,,,,,,,,,,,,961.4921,962.7861,962.7861,964.5626,return,0.6596,,74.73958333,,,,,,FBP-PT-91.png,0.45,1.2,30,0.5,,,,,,,,,,,,,,,,,,0,54,54,29,1,,,,,,,,,,,,,,,,,,,,,,,
,,,,,V3_110,20,Female,2025-02-06_16h32.34.027,jersey_experiment_5_v3,2023.2.2,Win32,84.74576271,,,,,,,,,,,,,,,,964.5628,965.8566,965.8567,966.8215,return,0.0944,,99.609375,,,,,,FBP-YG-17.png,0.45,1.2,5,0.5,,,,,,,,,,,,,,,,,,0,55,55,4,1,,,,,,,,,,,,,,,,,,,,,,,
,,,,,V3_110,20,Female,2025-02-06_16h32.34.027,jersey_experiment_5_v3,2023.2.2,Win32,84.74576271,,,,,,,,,,,,,,,,966.8218,968.1155,968.1155,969.5746,return,0.0235,,99.86979167,,,,,,FBP-PT-91.png,0.4,1.2,28,0.5,,,,,,,,,,,,,,,,,,0,56,56,27,1,,,,,,,,,,,,,,,,,,,,,,,
,,,,,V3_110,20,Female,2025-02-06_16h32.34.027,jersey_experiment_5_v3,2023.2.2,Win32,84.74576271,,,,,,,,,,,,,,,,969.5748,971.1275,971.1276,971.8922,return,0.0812,,99.609375,,,,,,FBP-OG-81.png,0.45,1.2,40,0.75,,,,,,,,,,,,,,,,,,0,57,57,39,1,,,,,,,,,,,,,,,,,,,,,,,
,,,,,V3_110,20,Female,2025-02-06_16h32.34.027,jersey_experiment_5_v3,2023.2.2,Win32,84.74576271,,,,,,,,,,,,,,,,971.8924,973.1864,973.1864,973.6805,return,0.1304,,99.609375,,,,,,FBP-PT-81.png,0.45,1.2,25,0.5,,,,,,,,,,,,,,,,,,0,58,58,24,1,,,,,,,,,,,,,,,,,,,,,,,
,,,,,V3_110,20,Female,2025-02-06_16h32.34.027,jersey_experiment_5_v3,2023.2.2,Win32,84.74576271,,,,,,,,,,,,,,,,973.6807,975.2335,975.2335,975.8454,return,0.151,,99.47916667,,,,,,FBP-OG-71.png,0.4,1.2,33,0.75,,,,,,,,,,,,,,,,,,0,59,59,32,1,,,,,,,,,,,,,,,,,,,,,,,
,,,,,V3_110,20,Female,2025-02-06_16h32.34.027,jersey_experiment_5_v3,2023.2.2,Win32,84.74576271,,,,,,,,,,,,,,,,,,,,,,,,,,,,,,,,,,,,,,,,,,,,,,,,,,,,,,,,975.8456,981.9045,return,6.0475,,,,,,,,,,,,,,,,,,,
,,,,,V3_110,20,Female,2025-02-06_16h32.34.027,jersey_experiment_5_v3,2023.2.2,Win32,84.74576271,,,,,,,,,,,,,,,,,,,,,,,,,,,,,,,,,,,,,,,,,,,,,,,,,,,,,,,,,,,,,981.9047,988.0695,1,5.4343,return,0.7168,,,,,,,,,,,,
,,,,,V3_110,20,Female,2025-02-06_16h32.34.027,jersey_experiment_5_v3,2023.2.2,Win32,84.74576271,,,,,,,,,,,,,,,,,,,,,,,,,,,,,,,,,,,,,,,,,,,,,,,,,,,,,,,,,,,,,,,,,,,,988.0697,1166.0798,"I think the study is about perception and how objects become blurred in comparison when they aren't right next to each other. After a while, the size of the football players became indistinctive to me and I couldn't tell if they were actually larger than one another or if my eyes were just playing tricks on me. ",right,157.0263,,,,,,
,,,,,V3_110,20,Female,2025-02-06_16h32.34.027,jersey_experiment_5_v3,2023.2.2,Win32,84.74576271,,,,,,,,,,,,,,,,,,,,,,,,,,,,,,,,,,,,,,,,,,,,,,,,,,,,,,,,,,,,,,,,,,,,,,,,,,1166.0799,1169.4678,return,3.3734,