requirements.started,requirements.stopped,key_resp_3.keys,key_resp_3.rt,key_resp_3.duration,Subject ID,Age,Gender,date,expName,psychopyVersion,OS,frameRate,instructions1.started,instructions1.stopped,key_resp.keys,key_resp.rt,key_resp.duration,example.started,example.stopped,enter_2.keys,enter_2.rt,enter_2.duration,instructions2.started,instructions2.stopped,enter_3.keys,enter_3.rt,enter_3.duration,image.started,image.stopped,slider_2.started,slider_2.stopped,next.keys,next.rt,next.duration,slider.response,trial_block_1.thisRepN,trial_block_1.thisTrialN,trial_block_1.thisN,trial_block_1.thisIndex,trial_block_1.ran,Path,Width,Height,Index,Duration,trial_block_2.thisRepN,trial_block_2.thisTrialN,trial_block_2.thisN,trial_block_2.thisIndex,trial_block_2.ran,rest_break.started,rest_break.stopped,end_break.started,end_break.stopped,key_resp_5.keys,key_resp_5.rt,key_resp_5.duration,trial_block_3.thisRepN,trial_block_3.thisTrialN,trial_block_3.thisN,trial_block_3.thisIndex,trial_block_3.ran,trial_block_4.thisRepN,trial_block_4.thisTrialN,trial_block_4.thisN,trial_block_4.thisIndex,trial_block_4.ran,questions_intro.started,questions_intro.stopped,enter_12.keys,enter_12.rt,enter_12.duration,question2.started,question2.stopped,question_doingbest.response,question_doingbest.rt,enter_15.keys,enter_15.rt,enter_15.duration,pattern.started,pattern.stopped,pattern_2.text,enter_17.keys,enter_17.rt,enter_17.duration,thankyou.started,thankyou.stopped,enter_14.keys,enter_14.rt,enter_14.duration
0,13.3747,return,13.3708,,V3_105,19,F,2025-02-06_14h02.12.037,jersey_experiment_5_v3,2023.2.2,Win32,85.47008547,,,,,,,,,,,,,,,,,,,,,,,,,,,,,,,,,,,,,,,,,,,,,,,,,,,,,,,,,,,,,,,,,,,,,,,,,,,,,,
,,,,,V3_105,19,F,2025-02-06_14h02.12.037,jersey_experiment_5_v3,2023.2.2,Win32,85.47008547,13.3748,23.2824,return,9.8975,,,,,,,,,,,,,,,,,,,,,,,,,,,,,,,,,,,,,,,,,,,,,,,,,,,,,,,,,,,,,,,,,,,,,,,,,,
,,,,,V3_105,19,F,2025-02-06_14h02.12.037,jersey_experiment_5_v3,2023.2.2,Win32,85.47008547,,,,,,23.2826,29.4766,return,6.1648,,,,,,,,,,,,,,,,,,,,,,,,,,,,,,,,,,,,,,,,,,,,,,,,,,,,,,,,,,,,,,,,,,,,,
,,,,,V3_105,19,F,2025-02-06_14h02.12.037,jersey_experiment_5_v3,2023.2.2,Win32,85.47008547,,,,,,,,,,,29.4767,61.019,return,31.528,,,,,,,,,,,,,,,,,,,,,,,,,,,,,,,,,,,,,,,,,,,,,,,,,,,,,,,,,,,,,,,,
,,,,,V3_105,19,F,2025-02-06_14h02.12.037,jersey_experiment_5_v3,2023.2.2,Win32,85.47008547,,,,,,,,,,,,,,,,61.0226,62.5717,62.5717,79.337,return,9.9195,,50.390625,0,0,0,16,1,FBP-PT-17.png,0.37,1.2,17,0.75,,,,,,,,,,,,,,,,,,,,,,,,,,,,,,,,,,,,,,,,,,,,,
,,,,,V3_105,19,F,2025-02-06_14h02.12.037,jersey_experiment_5_v3,2023.2.2,Win32,85.47008547,,,,,,,,,,,,,,,,79.3373,80.6313,80.6314,82.9488,return,0.933,,74.609375,0,1,1,31,1,FBP-OG-17.png,0.37,1.2,32,0.5,,,,,,,,,,,,,,,,,,,,,,,,,,,,,,,,,,,,,,,,,,,,,
,,,,,V3_105,19,F,2025-02-06_14h02.12.037,jersey_experiment_5_v3,2023.2.2,Win32,85.47008547,,,,,,,,,,,,,,,,82.9491,84.5019,84.5019,87.4667,return,0.8103,,64.97395833,0,2,2,50,1,FBP-RB-18.png,0.35,1.2,51,0.75,,,,,,,,,,,,,,,,,,,,,,,,,,,,,,,,,,,,,,,,,,,,,
,,,,,V3_105,19,F,2025-02-06_14h02.12.037,jersey_experiment_5_v3,2023.2.2,Win32,85.47008547,,,,,,,,,,,,,,,,87.4669,88.7607,88.7608,91.3022,return,0.592,,86.84895833,0,3,3,39,1,FBP-OG-18.png,0.45,1.2,40,0.5,,,,,,,,,,,,,,,,,,,,,,,,,,,,,,,,,,,,,,,,,,,,,
,,,,,V3_105,19,F,2025-02-06_14h02.12.037,jersey_experiment_5_v3,2023.2.2,Win32,85.47008547,,,,,,,,,,,,,,,,91.3026,92.8552,92.8553,97.1259,return,1.6393,,62.23958333,0,4,4,15,1,FBP-PT-17.png,0.35,1.2,16,0.75,,,,,,,,,,,,,,,,,,,,,,,,,,,,,,,,,,,,,,,,,,,,,
,,,,,V3_105,19,F,2025-02-06_14h02.12.037,jersey_experiment_5_v3,2023.2.2,Win32,85.47008547,,,,,,,,,,,,,,,,97.1263,98.6788,98.6789,101.7025,return,0.4976,,67.578125,0,5,5,6,1,FBP-YG-81.png,0.37,1.2,7,0.75,,,,,,,,,,,,,,,,,,,,,,,,,,,,,,,,,,,,,,,,,,,,,
,,,,,V3_105,19,F,2025-02-06_14h02.12.037,jersey_experiment_5_v3,2023.2.2,Win32,85.47008547,,,,,,,,,,,,,,,,101.7029,102.9966,102.9967,104.4084,return,0.5194,,73.95833333,0,6,6,36,1,FBP-OG-18.png,0.37,1.2,37,0.5,,,,,,,,,,,,,,,,,,,,,,,,,,,,,,,,,,,,,,,,,,,,,
,,,,,V3_105,19,F,2025-02-06_14h02.12.037,jersey_experiment_5_v3,2023.2.2,Win32,85.47008547,,,,,,,,,,,,,,,,104.4085,105.9614,105.9615,107.9849,return,0.3964,,94.53125,0,7,7,14,1,FBP-YG-91.png,0.45,1.2,15,0.75,,,,,,,,,,,,,,,,,,,,,,,,,,,,,,,,,,,,,,,,,,,,,
,,,,,V3_105,19,F,2025-02-06_14h02.12.037,jersey_experiment_5_v3,2023.2.2,Win32,85.47008547,,,,,,,,,,,,,,,,107.9854,109.5379,109.538,112.3381,return,0.4164,,66.40625,0,8,8,21,1,FBP-PT-18.png,0.37,1.2,22,0.75,,,,,,,,,,,,,,,,,,,,,,,,,,,,,,,,,,,,,,,,,,,,,
,,,,,V3_105,19,F,2025-02-06_14h02.12.037,jersey_experiment_5_v3,2023.2.2,Win32,85.47008547,,,,,,,,,,,,,,,,112.3383,113.6322,113.6323,115.35,return,0.3804,,91.015625,0,9,9,38,1,FBP-OG-18.png,0.43,1.2,39,0.5,,,,,,,,,,,,,,,,,,,,,,,,,,,,,,,,,,,,,,,,,,,,,
,,,,,V3_105,19,F,2025-02-06_14h02.12.037,jersey_experiment_5_v3,2023.2.2,Win32,85.47008547,,,,,,,,,,,,,,,,115.3502,116.903,116.903,117.6088,return,0.2127,,91.015625,0,10,10,13,1,FBP-YG-91.png,0.43,1.2,14,0.75,,,,,,,,,,,,,,,,,,,,,,,,,,,,,,,,,,,,,,,,,,,,,
,,,,,V3_105,19,F,2025-02-06_14h02.12.037,jersey_experiment_5_v3,2023.2.2,Win32,85.47008547,,,,,,,,,,,,,,,,117.6091,119.1619,119.1619,119.715,return,0.171,,91.015625,0,11,11,9,1,FBP-YG-81.png,0.45,1.2,10,0.75,,,,,,,,,,,,,,,,,,,,,,,,,,,,,,,,,,,,,,,,,,,,,
,,,,,V3_105,19,F,2025-02-06_14h02.12.037,jersey_experiment_5_v3,2023.2.2,Win32,85.47008547,,,,,,,,,,,,,,,,119.7152,121.2679,121.2679,123.0914,return,0.3914,,93.61979167,0,12,12,19,1,FBP-PT-17.png,0.45,1.2,20,0.75,,,,,,,,,,,,,,,,,,,,,,,,,,,,,,,,,,,,,,,,,,,,,
,,,,,V3_105,19,F,2025-02-06_14h02.12.037,jersey_experiment_5_v3,2023.2.2,Win32,85.47008547,,,,,,,,,,,,,,,,123.0917,124.3856,124.3856,129.2093,return,0.7298,,69.79166667,0,13,13,41,1,FBP-OG-19.png,0.37,1.2,42,0.5,,,,,,,,,,,,,,,,,,,,,,,,,,,,,,,,,,,,,,,,,,,,,
,,,,,V3_105,19,F,2025-02-06_14h02.12.037,jersey_experiment_5_v3,2023.2.2,Win32,85.47008547,,,,,,,,,,,,,,,,129.2096,130.5036,130.5036,132.9036,return,1.1553,,39.0625,0,14,14,30,1,FBP-OG-17.png,0.35,1.2,31,0.5,,,,,,,,,,,,,,,,,,,,,,,,,,,,,,,,,,,,,,,,,,,,,
,,,,,V3_105,19,F,2025-02-06_14h02.12.037,jersey_experiment_5_v3,2023.2.2,Win32,85.47008547,,,,,,,,,,,,,,,,132.9038,134.4567,134.4567,135.8801,return,0.3061,,30.98958333,0,15,15,45,1,FBP-RB-17.png,0.35,1.2,46,0.75,,,,,,,,,,,,,,,,,,,,,,,,,,,,,,,,,,,,,,,,,,,,,
,,,,,V3_105,19,F,2025-02-06_14h02.12.037,jersey_experiment_5_v3,2023.2.2,Win32,85.47008547,,,,,,,,,,,,,,,,135.8805,137.4331,137.4332,139.7392,return,0.39,,58.203125,0,16,16,52,1,FBP-RB-18.png,0.4,1.2,53,0.75,,,,,,,,,,,,,,,,,,,,,,,,,,,,,,,,,,,,,,,,,,,,,
,,,,,V3_105,19,F,2025-02-06_14h02.12.037,jersey_experiment_5_v3,2023.2.2,Win32,85.47008547,,,,,,,,,,,,,,,,139.7397,141.2921,141.2922,144.61,return,0.349,,61.45833333,0,17,17,1,1,FBP-YG-71.png,0.37,1.2,2,0.75,,,,,,,,,,,,,,,,,,,,,,,,,,,,,,,,,,,,,,,,,,,,,
,,,,,V3_105,19,F,2025-02-06_14h02.12.037,jersey_experiment_5_v3,2023.2.2,Win32,85.47008547,,,,,,,,,,,,,,,,144.6102,146.1631,146.1632,147.7041,return,0.3546,,75.390625,0,18,18,28,1,FBP-PT-19.png,0.43,1.2,29,0.75,,,,,,,,,,,,,,,,,,,,,,,,,,,,,,,,,,,,,,,,,,,,,
,,,,,V3_105,19,F,2025-02-06_14h02.12.037,jersey_experiment_5_v3,2023.2.2,Win32,85.47008547,,,,,,,,,,,,,,,,147.7044,148.9983,148.9983,150.2808,return,0.3529,,89.32291667,0,19,19,43,1,FBP-OG-19.png,0.43,1.2,44,0.5,,,,,,,,,,,,,,,,,,,,,,,,,,,,,,,,,,,,,,,,,,,,,
,,,,,V3_105,19,F,2025-02-06_14h02.12.037,jersey_experiment_5_v3,2023.2.2,Win32,85.47008547,,,,,,,,,,,,,,,,150.281,151.8339,151.834,152.9042,return,0.2133,,93.359375,0,20,20,23,1,FBP-PT-18.png,0.43,1.2,24,0.75,,,,,,,,,,,,,,,,,,,,,,,,,,,,,,,,,,,,,,,,,,,,,
,,,,,V3_105,19,F,2025-02-06_14h02.12.037,jersey_experiment_5_v3,2023.2.2,Win32,85.47008547,,,,,,,,,,,,,,,,152.9044,154.4458,154.4458,156.9634,return,1.7461,,72.91666667,0,21,21,51,1,FBP-RB-18.png,0.37,1.2,52,0.75,,,,,,,,,,,,,,,,,,,,,,,,,,,,,,,,,,,,,,,,,,,,,
,,,,,V3_105,19,F,2025-02-06_14h02.12.037,jersey_experiment_5_v3,2023.2.2,Win32,85.47008547,,,,,,,,,,,,,,,,156.9636,158.5164,158.5164,159.587,return,0.1948,,79.42708333,0,22,22,57,1,FBP-RB-19.png,0.4,1.2,58,0.75,,,,,,,,,,,,,,,,,,,,,,,,,,,,,,,,,,,,,,,,,,,,,
,,,,,V3_105,19,F,2025-02-06_14h02.12.037,jersey_experiment_5_v3,2023.2.2,Win32,85.47008547,,,,,,,,,,,,,,,,159.5873,161.1287,161.1287,161.9283,return,0.1544,,89.32291667,0,23,23,54,1,FBP-RB-18.png,0.45,1.2,55,0.75,,,,,,,,,,,,,,,,,,,,,,,,,,,,,,,,,,,,,,,,,,,,,
,,,,,V3_105,19,F,2025-02-06_14h02.12.037,jersey_experiment_5_v3,2023.2.2,Win32,85.47008547,,,,,,,,,,,,,,,,161.9285,163.4811,163.4811,166.4695,return,0.2984,,86.45833333,0,24,24,2,1,FBP-YG-71.png,0.4,1.2,3,0.75,,,,,,,,,,,,,,,,,,,,,,,,,,,,,,,,,,,,,,,,,,,,,
,,,,,V3_105,19,F,2025-02-06_14h02.12.037,jersey_experiment_5_v3,2023.2.2,Win32,85.47008547,,,,,,,,,,,,,,,,166.4697,168.0109,168.011,168.8814,return,0.3141,,92.70833333,0,25,25,29,1,FBP-PT-19.png,0.45,1.2,30,0.75,,,,,,,,,,,,,,,,,,,,,,,,,,,,,,,,,,,,,,,,,,,,,
,,,,,V3_105,19,F,2025-02-06_14h02.12.037,jersey_experiment_5_v3,2023.2.2,Win32,85.47008547,,,,,,,,,,,,,,,,168.8817,170.4343,170.4344,171.3521,return,0.224,,89.58333333,0,26,26,53,1,FBP-RB-18.png,0.43,1.2,54,0.75,,,,,,,,,,,,,,,,,,,,,,,,,,,,,,,,,,,,,,,,,,,,,
,,,,,V3_105,19,F,2025-02-06_14h02.12.037,jersey_experiment_5_v3,2023.2.2,Win32,85.47008547,,,,,,,,,,,,,,,,171.3523,172.905,172.905,175.9051,return,0.1147,,70.3125,0,27,27,11,1,FBP-YG-91.png,0.37,1.2,12,0.75,,,,,,,,,,,,,,,,,,,,,,,,,,,,,,,,,,,,,,,,,,,,,
,,,,,V3_105,19,F,2025-02-06_14h02.12.037,jersey_experiment_5_v3,2023.2.2,Win32,85.47008547,,,,,,,,,,,,,,,,175.9053,177.4583,177.4584,178.47,return,0.1801,,57.421875,0,28,28,25,1,FBP-PT-19.png,0.35,1.2,26,0.75,,,,,,,,,,,,,,,,,,,,,,,,,,,,,,,,,,,,,,,,,,,,,
,,,,,V3_105,19,F,2025-02-06_14h02.12.037,jersey_experiment_5_v3,2023.2.2,Win32,85.47008547,,,,,,,,,,,,,,,,178.4703,180.0231,180.0232,181.7641,return,0.2527,,83.85416667,0,29,29,59,1,FBP-RB-19.png,0.45,1.2,60,0.75,,,,,,,,,,,,,,,,,,,,,,,,,,,,,,,,,,,,,,,,,,,,,
,,,,,V3_105,19,F,2025-02-06_14h02.12.037,jersey_experiment_5_v3,2023.2.2,Win32,85.47008547,,,,,,,,,,,,,,,,181.7645,183.3174,183.3175,184.329,return,0.26,,91.40625,0,30,30,3,1,FBP-YG-71.png,0.43,1.2,4,0.75,,,,,,,,,,,,,,,,,,,,,,,,,,,,,,,,,,,,,,,,,,,,,
,,,,,V3_105,19,F,2025-02-06_14h02.12.037,jersey_experiment_5_v3,2023.2.2,Win32,85.47008547,,,,,,,,,,,,,,,,184.3292,185.882,185.8821,187.6585,return,0.1752,,87.109375,0,31,31,12,1,FBP-YG-91.png,0.4,1.2,13,0.75,,,,,,,,,,,,,,,,,,,,,,,,,,,,,,,,,,,,,,,,,,,,,
,,,,,V3_105,19,F,2025-02-06_14h02.12.037,jersey_experiment_5_v3,2023.2.2,Win32,85.47008547,,,,,,,,,,,,,,,,187.6589,189.2,189.2,190.953,return,0.3642,,48.046875,0,32,32,0,1,FBP-YG-71.png,0.35,1.2,1,0.75,,,,,,,,,,,,,,,,,,,,,,,,,,,,,,,,,,,,,,,,,,,,,
,,,,,V3_105,19,F,2025-02-06_14h02.12.037,jersey_experiment_5_v3,2023.2.2,Win32,85.47008547,,,,,,,,,,,,,,,,190.9533,192.506,192.5061,193.8941,return,0.3568,,38.54166667,0,33,33,20,1,FBP-PT-18.png,0.35,1.2,21,0.75,,,,,,,,,,,,,,,,,,,,,,,,,,,,,,,,,,,,,,,,,,,,,
,,,,,V3_105,19,F,2025-02-06_14h02.12.037,jersey_experiment_5_v3,2023.2.2,Win32,85.47008547,,,,,,,,,,,,,,,,193.8943,195.4471,195.4471,196.7413,return,0.2972,,28.90625,0,34,34,27,1,FBP-PT-19.png,0.4,1.2,28,0.75,,,,,,,,,,,,,,,,,,,,,,,,,,,,,,,,,,,,,,,,,,,,,
,,,,,V3_105,19,F,2025-02-06_14h02.12.037,jersey_experiment_5_v3,2023.2.2,Win32,85.47008547,,,,,,,,,,,,,,,,196.7416,198.2942,198.2942,199.4942,return,0.2476,,58.203125,0,35,35,22,1,FBP-PT-18.png,0.4,1.2,23,0.75,,,,,,,,,,,,,,,,,,,,,,,,,,,,,,,,,,,,,,,,,,,,,
,,,,,V3_105,19,F,2025-02-06_14h02.12.037,jersey_experiment_5_v3,2023.2.2,Win32,85.47008547,,,,,,,,,,,,,,,,199.4945,201.0473,201.0474,203.0356,return,0.9882,,75.13020833,0,36,36,4,1,FBP-YG-71.png,0.45,1.2,5,0.75,,,,,,,,,,,,,,,,,,,,,,,,,,,,,,,,,,,,,,,,,,,,,
,,,,,V3_105,19,F,2025-02-06_14h02.12.037,jersey_experiment_5_v3,2023.2.2,Win32,85.47008547,,,,,,,,,,,,,,,,203.036,204.5886,204.5886,205.6593,return,0.1414,,83.59375,0,37,37,58,1,FBP-RB-19.png,0.43,1.2,59,0.75,,,,,,,,,,,,,,,,,,,,,,,,,,,,,,,,,,,,,,,,,,,,,
,,,,,V3_105,19,F,2025-02-06_14h02.12.037,jersey_experiment_5_v3,2023.2.2,Win32,85.47008547,,,,,,,,,,,,,,,,205.6596,206.9534,206.9534,208.1063,return,0.1884,,70.44270833,0,38,38,32,1,FBP-OG-17.png,0.4,1.2,33,0.5,,,,,,,,,,,,,,,,,,,,,,,,,,,,,,,,,,,,,,,,,,,,,
,,,,,V3_105,19,F,2025-02-06_14h02.12.037,jersey_experiment_5_v3,2023.2.2,Win32,85.47008547,,,,,,,,,,,,,,,,208.1066,209.6594,209.6594,210.636,return,0.5884,,70.44270833,0,39,39,47,1,FBP-RB-17.png,0.4,1.2,48,0.75,,,,,,,,,,,,,,,,,,,,,,,,,,,,,,,,,,,,,,,,,,,,,
,,,,,V3_105,19,F,2025-02-06_14h02.12.037,jersey_experiment_5_v3,2023.2.2,Win32,85.47008547,,,,,,,,,,,,,,,,210.6361,212.189,212.1891,212.7891,return,0.099,,74.86979167,0,40,40,48,1,FBP-RB-17.png,0.43,1.2,49,0.75,,,,,,,,,,,,,,,,,,,,,,,,,,,,,,,,,,,,,,,,,,,,,
,,,,,V3_105,19,F,2025-02-06_14h02.12.037,jersey_experiment_5_v3,2023.2.2,Win32,85.47008547,,,,,,,,,,,,,,,,212.7895,214.0831,214.0831,214.8832,return,0.2421,,71.35416667,0,41,41,42,1,FBP-OG-19.png,0.4,1.2,43,0.5,,,,,,,,,,,,,,,,,,,,,,,,,,,,,,,,,,,,,,,,,,,,,
,,,,,V3_105,19,F,2025-02-06_14h02.12.037,jersey_experiment_5_v3,2023.2.2,Win32,85.47008547,,,,,,,,,,,,,,,,214.8835,216.436,216.4361,218.3774,return,0.1626,,62.63020833,0,42,42,46,1,FBP-RB-17.png,0.37,1.2,47,0.75,,,,,,,,,,,,,,,,,,,,,,,,,,,,,,,,,,,,,,,,,,,,,
,,,,,V3_105,19,F,2025-02-06_14h02.12.037,jersey_experiment_5_v3,2023.2.2,Win32,85.47008547,,,,,,,,,,,,,,,,218.3777,219.9302,219.9302,221.848,return,0.5195,,90.36458333,0,43,43,24,1,FBP-PT-18.png,0.45,1.2,25,0.75,,,,,,,,,,,,,,,,,,,,,,,,,,,,,,,,,,,,,,,,,,,,,
,,,,,V3_105,19,F,2025-02-06_14h02.12.037,jersey_experiment_5_v3,2023.2.2,Win32,85.47008547,,,,,,,,,,,,,,,,221.8482,223.1423,223.1423,225.672,return,0.2036,,50.52083333,0,44,44,40,1,FBP-OG-19.png,0.35,1.2,41,0.5,,,,,,,,,,,,,,,,,,,,,,,,,,,,,,,,,,,,,,,,,,,,,
,,,,,V3_105,19,F,2025-02-06_14h02.12.037,jersey_experiment_5_v3,2023.2.2,Win32,85.47008547,,,,,,,,,,,,,,,,225.6722,227.2246,227.2247,228.6482,return,0.4823,,33.85416667,0,45,45,55,1,FBP-RB-19.png,0.35,1.2,56,0.75,,,,,,,,,,,,,,,,,,,,,,,,,,,,,,,,,,,,,,,,,,,,,
,,,,,V3_105,19,F,2025-02-06_14h02.12.037,jersey_experiment_5_v3,2023.2.2,Win32,85.47008547,,,,,,,,,,,,,,,,228.6485,230.2014,230.2014,232.4013,return,1.16,,28.38541667,0,46,46,26,1,FBP-PT-19.png,0.37,1.2,27,0.75,,,,,,,,,,,,,,,,,,,,,,,,,,,,,,,,,,,,,,,,,,,,,
,,,,,V3_105,19,F,2025-02-06_14h02.12.037,jersey_experiment_5_v3,2023.2.2,Win32,85.47008547,,,,,,,,,,,,,,,,232.4014,233.6956,233.6956,235.4132,return,0.1815,,92.578125,0,47,47,34,1,FBP-OG-17.png,0.45,1.2,35,0.5,,,,,,,,,,,,,,,,,,,,,,,,,,,,,,,,,,,,,,,,,,,,,
,,,,,V3_105,19,F,2025-02-06_14h02.12.037,jersey_experiment_5_v3,2023.2.2,Win32,85.47008547,,,,,,,,,,,,,,,,235.4135,236.7075,236.7075,238.1077,return,0.2356,,97.265625,0,48,48,44,1,FBP-OG-19.png,0.45,1.2,45,0.5,,,,,,,,,,,,,,,,,,,,,,,,,,,,,,,,,,,,,,,,,,,,,
,,,,,V3_105,19,F,2025-02-06_14h02.12.037,jersey_experiment_5_v3,2023.2.2,Win32,85.47008547,,,,,,,,,,,,,,,,238.1079,239.6605,239.6606,240.6605,return,0.262,,87.63020833,0,49,49,18,1,FBP-PT-17.png,0.43,1.2,19,0.75,,,,,,,,,,,,,,,,,,,,,,,,,,,,,,,,,,,,,,,,,,,,,
,,,,,V3_105,19,F,2025-02-06_14h02.12.037,jersey_experiment_5_v3,2023.2.2,Win32,85.47008547,,,,,,,,,,,,,,,,240.6608,242.2134,242.2135,243.2841,return,0.3455,,88.671875,0,50,50,49,1,FBP-RB-17.png,0.45,1.2,50,0.75,,,,,,,,,,,,,,,,,,,,,,,,,,,,,,,,,,,,,,,,,,,,,
,,,,,V3_105,19,F,2025-02-06_14h02.12.037,jersey_experiment_5_v3,2023.2.2,Win32,85.47008547,,,,,,,,,,,,,,,,243.2842,244.8256,244.8257,247.2843,return,0.628,,52.734375,0,51,51,56,1,FBP-RB-19.png,0.37,1.2,57,0.75,,,,,,,,,,,,,,,,,,,,,,,,,,,,,,,,,,,,,,,,,,,,,
,,,,,V3_105,19,F,2025-02-06_14h02.12.037,jersey_experiment_5_v3,2023.2.2,Win32,85.47008547,,,,,,,,,,,,,,,,247.2846,248.8375,248.8375,249.7197,return,0.3048,,62.109375,0,52,52,7,1,FBP-YG-81.png,0.4,1.2,8,0.75,,,,,,,,,,,,,,,,,,,,,,,,,,,,,,,,,,,,,,,,,,,,,
,,,,,V3_105,19,F,2025-02-06_14h02.12.037,jersey_experiment_5_v3,2023.2.2,Win32,85.47008547,,,,,,,,,,,,,,,,249.7199,251.0137,251.0138,251.7551,return,0.1648,,73.69791667,0,53,53,37,1,FBP-OG-18.png,0.4,1.2,38,0.5,,,,,,,,,,,,,,,,,,,,,,,,,,,,,,,,,,,,,,,,,,,,,
,,,,,V3_105,19,F,2025-02-06_14h02.12.037,jersey_experiment_5_v3,2023.2.2,Win32,85.47008547,,,,,,,,,,,,,,,,251.7554,253.3081,253.3081,254.4851,return,0.3922,,37.109375,0,54,54,5,1,FBP-YG-81.png,0.35,1.2,6,0.75,,,,,,,,,,,,,,,,,,,,,,,,,,,,,,,,,,,,,,,,,,,,,
,,,,,V3_105,19,F,2025-02-06_14h02.12.037,jersey_experiment_5_v3,2023.2.2,Win32,85.47008547,,,,,,,,,,,,,,,,254.4854,256.0377,256.0378,256.8846,return,0.1811,,67.44791667,0,55,55,8,1,FBP-YG-81.png,0.43,1.2,9,0.75,,,,,,,,,,,,,,,,,,,,,,,,,,,,,,,,,,,,,,,,,,,,,
,,,,,V3_105,19,F,2025-02-06_14h02.12.037,jersey_experiment_5_v3,2023.2.2,Win32,85.47008547,,,,,,,,,,,,,,,,256.8848,258.1788,258.1788,259.1907,return,0.1913,,29.55729167,0,56,56,35,1,FBP-OG-18.png,0.35,1.2,36,0.5,,,,,,,,,,,,,,,,,,,,,,,,,,,,,,,,,,,,,,,,,,,,,
,,,,,V3_105,19,F,2025-02-06_14h02.12.037,jersey_experiment_5_v3,2023.2.2,Win32,85.47008547,,,,,,,,,,,,,,,,259.1909,260.7437,260.7437,261.8261,return,0.2668,,26.82291667,0,57,57,17,1,FBP-PT-17.png,0.4,1.2,18,0.75,,,,,,,,,,,,,,,,,,,,,,,,,,,,,,,,,,,,,,,,,,,,,
,,,,,V3_105,19,F,2025-02-06_14h02.12.037,jersey_experiment_5_v3,2023.2.2,Win32,85.47008547,,,,,,,,,,,,,,,,261.8263,263.3791,263.3791,264.885,return,0.3665,,22.00520833,0,58,58,10,1,FBP-YG-91.png,0.35,1.2,11,0.75,,,,,,,,,,,,,,,,,,,,,,,,,,,,,,,,,,,,,,,,,,,,,
,,,,,V3_105,19,F,2025-02-06_14h02.12.037,jersey_experiment_5_v3,2023.2.2,Win32,85.47008547,,,,,,,,,,,,,,,,264.8853,266.179,266.1791,267.4497,return,0.2827,,63.671875,0,59,59,33,1,FBP-OG-17.png,0.43,1.2,34,0.5,,,,,,,,,,,,,,,,,,,,,,,,,,,,,,,,,,,,,,,,,,,,,
,,,,,V3_105,19,F,2025-02-06_14h02.12.037,jersey_experiment_5_v3,2023.2.2,Win32,85.47008547,,,,,,,,,,,,,,,,267.4517,269.0027,269.0028,270.3087,return,0.2865,,73.95833333,,,,,,FBP-PT-91.png,0.43,1.2,29,0.75,0,0,0,28,1,,,,,,,,,,,,,,,,,,,,,,,,,,,,,,,,,,,,,,,,
,,,,,V3_105,19,F,2025-02-06_14h02.12.037,jersey_experiment_5_v3,2023.2.2,Win32,85.47008547,,,,,,,,,,,,,,,,270.309,271.8618,271.8618,272.9793,return,0.2183,,37.109375,,,,,,FBP-YG-18.png,0.35,1.2,6,0.75,0,1,1,5,1,,,,,,,,,,,,,,,,,,,,,,,,,,,,,,,,,,,,,,,,
,,,,,V3_105,19,F,2025-02-06_14h02.12.037,jersey_experiment_5_v3,2023.2.2,Win32,85.47008547,,,,,,,,,,,,,,,,272.9797,274.5326,274.5326,275.2735,return,0.2489,,79.296875,,,,,,FBP-PT-91.png,0.45,1.2,30,0.75,0,2,2,29,1,,,,,,,,,,,,,,,,,,,,,,,,,,,,,,,,,,,,,,,,
,,,,,V3_105,19,F,2025-02-06_14h02.12.037,jersey_experiment_5_v3,2023.2.2,Win32,85.47008547,,,,,,,,,,,,,,,,275.2738,276.5676,276.5676,279.8973,return,0.1966,,49.47916667,,,,,,FBP-OG-81.png,0.37,1.2,37,0.5,0,3,3,36,1,,,,,,,,,,,,,,,,,,,,,,,,,,,,,,,,,,,,,,,,
,,,,,V3_105,19,F,2025-02-06_14h02.12.037,jersey_experiment_5_v3,2023.2.2,Win32,85.47008547,,,,,,,,,,,,,,,,279.8975,281.4505,281.4505,282.1561,return,0.1886,,70.57291667,,,,,,FBP-RB-71.png,0.4,1.2,48,0.75,0,4,4,47,1,,,,,,,,,,,,,,,,,,,,,,,,,,,,,,,,,,,,,,,,
,,,,,V3_105,19,F,2025-02-06_14h02.12.037,jersey_experiment_5_v3,2023.2.2,Win32,85.47008547,,,,,,,,,,,,,,,,282.1564,283.7091,283.7093,284.2974,return,0.2229,,70.57291667,,,,,,FBP-RB-71.png,0.43,1.2,49,0.75,0,5,5,48,1,,,,,,,,,,,,,,,,,,,,,,,,,,,,,,,,,,,,,,,,
,,,,,V3_105,19,F,2025-02-06_14h02.12.037,jersey_experiment_5_v3,2023.2.2,Win32,85.47008547,,,,,,,,,,,,,,,,284.2977,285.8506,285.8506,288.9327,return,2.1226,,40.234375,,,,,,FBP-PT-91.png,0.37,1.2,27,0.75,0,6,6,26,1,,,,,,,,,,,,,,,,,,,,,,,,,,,,,,,,,,,,,,,,
,,,,,V3_105,19,F,2025-02-06_14h02.12.037,jersey_experiment_5_v3,2023.2.2,Win32,85.47008547,,,,,,,,,,,,,,,,288.933,290.4859,290.4859,291.6859,return,0.4274,,50.26041667,,,,,,FBP-PT-91.png,0.4,1.2,28,0.75,0,7,7,27,1,,,,,,,,,,,,,,,,,,,,,,,,,,,,,,,,,,,,,,,,
,,,,,V3_105,19,F,2025-02-06_14h02.12.037,jersey_experiment_5_v3,2023.2.2,Win32,85.47008547,,,,,,,,,,,,,,,,291.6861,293.2273,293.2274,294.1684,return,0.235,,29.94791667,,,,,,FBP-YG-17.png,0.35,1.2,1,0.75,0,8,8,0,1,,,,,,,,,,,,,,,,,,,,,,,,,,,,,,,,,,,,,,,,
,,,,,V3_105,19,F,2025-02-06_14h02.12.037,jersey_experiment_5_v3,2023.2.2,Win32,85.47008547,,,,,,,,,,,,,,,,294.1686,295.4624,295.4625,297.4743,return,1.1702,,76.04166667,,,,,,FBP-OG-71.png,0.43,1.2,34,0.5,0,9,9,33,1,,,,,,,,,,,,,,,,,,,,,,,,,,,,,,,,,,,,,,,,
,,,,,V3_105,19,F,2025-02-06_14h02.12.037,jersey_experiment_5_v3,2023.2.2,Win32,85.47008547,,,,,,,,,,,,,,,,297.4745,299.0157,299.0157,299.6509,return,0.1687,,91.015625,,,,,,FBP-YG-17.png,0.45,1.2,5,0.75,0,10,10,4,1,,,,,,,,,,,,,,,,,,,,,,,,,,,,,,,,,,,,,,,,
,,,,,V3_105,19,F,2025-02-06_14h02.12.037,jersey_experiment_5_v3,2023.2.2,Win32,85.47008547,,,,,,,,,,,,,,,,299.6512,301.204,301.2042,303.5453,return,1.3519,,48.17708333,,,,,,FBP-PT-81.png,0.4,1.2,23,0.75,0,11,11,22,1,,,,,,,,,,,,,,,,,,,,,,,,,,,,,,,,,,,,,,,,
,,,,,V3_105,19,F,2025-02-06_14h02.12.037,jersey_experiment_5_v3,2023.2.2,Win32,85.47008547,,,,,,,,,,,,,,,,303.5455,305.0982,305.0982,306.7218,return,1.0068,,33.33333333,,,,,,FBP-RB-81.png,0.37,1.2,52,0.75,0,12,12,51,1,,,,,,,,,,,,,,,,,,,,,,,,,,,,,,,,,,,,,,,,
,,,,,V3_105,19,F,2025-02-06_14h02.12.037,jersey_experiment_5_v3,2023.2.2,Win32,85.47008547,,,,,,,,,,,,,,,,306.7221,308.016,308.016,309.2864,return,0.4031,,22.52604167,,,,,,FBP-OG-71.png,0.35,1.2,31,0.5,0,13,13,30,1,,,,,,,,,,,,,,,,,,,,,,,,,,,,,,,,,,,,,,,,
,,,,,V3_105,19,F,2025-02-06_14h02.12.037,jersey_experiment_5_v3,2023.2.2,Win32,85.47008547,,,,,,,,,,,,,,,,309.2868,310.8397,310.8397,311.7337,return,0.2157,,78.38541667,,,,,,FBP-YG-17.png,0.43,1.2,4,0.75,0,14,14,3,1,,,,,,,,,,,,,,,,,,,,,,,,,,,,,,,,,,,,,,,,
,,,,,V3_105,19,F,2025-02-06_14h02.12.037,jersey_experiment_5_v3,2023.2.2,Win32,85.47008547,,,,,,,,,,,,,,,,311.734,313.2869,313.2869,314.1454,return,0.4906,,83.46354167,,,,,,FBP-YG-18.png,0.4,1.2,8,0.75,0,15,15,7,1,,,,,,,,,,,,,,,,,,,,,,,,,,,,,,,,,,,,,,,,
,,,,,V3_105,19,F,2025-02-06_14h02.12.037,jersey_experiment_5_v3,2023.2.2,Win32,85.47008547,,,,,,,,,,,,,,,,314.1457,315.6986,315.6986,316.3104,return,0.2503,,82.94270833,,,,,,FBP-RB-91.png,0.4,1.2,58,0.75,0,16,16,57,1,,,,,,,,,,,,,,,,,,,,,,,,,,,,,,,,,,,,,,,,
,,,,,V3_105,19,F,2025-02-06_14h02.12.037,jersey_experiment_5_v3,2023.2.2,Win32,85.47008547,,,,,,,,,,,,,,,,316.3106,317.8634,317.8635,319.0281,return,0.1703,,89.84375,,,,,,FBP-YG-19.png,0.45,1.2,15,0.75,0,17,17,14,1,,,,,,,,,,,,,,,,,,,,,,,,,,,,,,,,,,,,,,,,
,,,,,V3_105,19,F,2025-02-06_14h02.12.037,jersey_experiment_5_v3,2023.2.2,Win32,85.47008547,,,,,,,,,,,,,,,,319.0283,320.5812,320.5812,321.9928,return,0.3303,,89.97395833,,,,,,FBP-YG-19.png,0.43,1.2,14,0.75,0,18,18,13,1,,,,,,,,,,,,,,,,,,,,,,,,,,,,,,,,,,,,,,,,
,,,,,V3_105,19,F,2025-02-06_14h02.12.037,jersey_experiment_5_v3,2023.2.2,Win32,85.47008547,,,,,,,,,,,,,,,,321.9931,323.2872,323.2873,324.5459,return,0.3959,,42.31770833,,,,,,FBP-OG-91.png,0.35,1.2,41,0.5,0,19,19,40,1,,,,,,,,,,,,,,,,,,,,,,,,,,,,,,,,,,,,,,,,
,,,,,V3_105,19,F,2025-02-06_14h02.12.037,jersey_experiment_5_v3,2023.2.2,Win32,85.47008547,,,,,,,,,,,,,,,,324.5462,325.8401,325.8401,326.7695,return,0.1966,,29.296875,,,,,,FBP-OG-81.png,0.35,1.2,36,0.5,0,20,20,35,1,,,,,,,,,,,,,,,,,,,,,,,,,,,,,,,,,,,,,,,,
,,,,,V3_105,19,F,2025-02-06_14h02.12.037,jersey_experiment_5_v3,2023.2.2,Win32,85.47008547,,,,,,,,,,,,,,,,326.7697,328.3111,328.3112,329.1579,return,0.1686,,75.78125,,,,,,FBP-RB-71.png,0.45,1.2,50,0.75,0,21,21,49,1,,,,,,,,,,,,,,,,,,,,,,,,,,,,,,,,,,,,,,,,
,,,,,V3_105,19,F,2025-02-06_14h02.12.037,jersey_experiment_5_v3,2023.2.2,Win32,85.47008547,,,,,,,,,,,,,,,,329.1582,330.7109,330.711,331.3814,return,0.156,,29.42708333,,,,,,FBP-PT-71.png,0.35,1.2,16,0.75,0,22,22,15,1,,,,,,,,,,,,,,,,,,,,,,,,,,,,,,,,,,,,,,,,
,,,,,V3_105,19,F,2025-02-06_14h02.12.037,jersey_experiment_5_v3,2023.2.2,Win32,85.47008547,,,,,,,,,,,,,,,,331.3816,332.9228,332.9228,333.5699,return,0.1127,,28.25520833,,,,,,FBP-PT-91.png,0.35,1.2,26,0.75,0,23,23,25,1,,,,,,,,,,,,,,,,,,,,,,,,,,,,,,,,,,,,,,,,
,,,,,V3_105,19,F,2025-02-06_14h02.12.037,jersey_experiment_5_v3,2023.2.2,Win32,85.47008547,,,,,,,,,,,,,,,,333.5702,335.1229,335.123,335.7699,return,0.1545,,75.52083333,,,,,,FBP-YG-18.png,0.45,1.2,10,0.75,0,24,24,9,1,,,,,,,,,,,,,,,,,,,,,,,,,,,,,,,,,,,,,,,,
,,,,,V3_105,19,F,2025-02-06_14h02.12.037,jersey_experiment_5_v3,2023.2.2,Win32,85.47008547,,,,,,,,,,,,,,,,335.7702,337.3231,337.3232,338.1229,return,0.1872,,61.84895833,,,,,,FBP-YG-17.png,0.4,1.2,3,0.75,0,25,25,2,1,,,,,,,,,,,,,,,,,,,,,,,,,,,,,,,,,,,,,,,,
,,,,,V3_105,19,F,2025-02-06_14h02.12.037,jersey_experiment_5_v3,2023.2.2,Win32,85.47008547,,,,,,,,,,,,,,,,338.1232,339.6761,339.6761,340.4054,return,0.0945,,50.390625,,,,,,FBP-RB-71.png,0.37,1.2,47,0.75,0,26,26,46,1,,,,,,,,,,,,,,,,,,,,,,,,,,,,,,,,,,,,,,,,
,,,,,V3_105,19,F,2025-02-06_14h02.12.037,jersey_experiment_5_v3,2023.2.2,Win32,85.47008547,,,,,,,,,,,,,,,,340.4056,341.9468,341.9469,342.4172,return,0.1605,,50.390625,,,,,,FBP-RB-91.png,0.35,1.2,56,0.75,0,27,27,55,1,,,,,,,,,,,,,,,,,,,,,,,,,,,,,,,,,,,,,,,,
,,,,,V3_105,19,F,2025-02-06_14h02.12.037,jersey_experiment_5_v3,2023.2.2,Win32,85.47008547,,,,,,,,,,,,,,,,342.4174,343.9702,343.9702,344.8409,return,0.1057,,46.875,,,,,,FBP-RB-81.png,0.35,1.2,51,0.75,0,28,28,50,1,,,,,,,,,,,,,,,,,,,,,,,,,,,,,,,,,,,,,,,,
,,,,,V3_105,19,F,2025-02-06_14h02.12.037,jersey_experiment_5_v3,2023.2.2,Win32,85.47008547,,,,,,,,,,,,,,,,344.8411,346.135,346.1351,346.9468,return,0.0756,,61.97916667,,,,,,FBP-OG-71.png,0.4,1.2,33,0.5,0,29,29,32,1,,,,,,,,,,,,,,,,,,,,,,,,,,,,,,,,,,,,,,,,
,,,,,V3_105,19,F,2025-02-06_14h02.12.037,jersey_experiment_5_v3,2023.2.2,Win32,85.47008547,,,,,,,,,,,,,,,,346.947,348.4998,348.4999,348.935,return,0.1076,,67.578125,,,,,,FBP-PT-81.png,0.35,1.2,21,0.75,0,30,30,20,1,,,,,,,,,,,,,,,,,,,,,,,,,,,,,,,,,,,,,,,,
,,,,,V3_105,19,F,2025-02-06_14h02.12.037,jersey_experiment_5_v3,2023.2.2,Win32,85.47008547,,,,,,,,,,,,,,,,348.9352,350.2293,350.2293,351.0175,return,0.1302,,74.21875,,,,,,FBP-OG-81.png,0.4,1.2,38,0.5,0,31,31,37,1,,,,,,,,,,,,,,,,,,,,,,,,,,,,,,,,,,,,,,,,
,,,,,V3_105,19,F,2025-02-06_14h02.12.037,jersey_experiment_5_v3,2023.2.2,Win32,85.47008547,,,,,,,,,,,,,,,,351.0177,352.5705,352.5706,353.1,return,0.1416,,80.20833333,,,,,,FBP-YG-19.png,0.37,1.2,12,0.75,0,32,32,11,1,,,,,,,,,,,,,,,,,,,,,,,,,,,,,,,,,,,,,,,,
,,,,,V3_105,19,F,2025-02-06_14h02.12.037,jersey_experiment_5_v3,2023.2.2,Win32,85.47008547,,,,,,,,,,,,,,,,353.1002,354.6529,354.653,356.5824,return,0.2948,,73.56770833,,,,,,FBP-YG-17.png,0.37,1.2,2,0.75,0,33,33,1,1,,,,,,,,,,,,,,,,,,,,,,,,,,,,,,,,,,,,,,,,
,,,,,V3_105,19,F,2025-02-06_14h02.12.037,jersey_experiment_5_v3,2023.2.2,Win32,85.47008547,,,,,,,,,,,,,,,,356.5827,357.8767,357.8768,358.759,return,0.3056,,62.23958333,,,,,,FBP-OG-91.png,0.4,1.2,43,0.5,0,34,34,42,1,,,,,,,,,,,,,,,,,,,,,,,,,,,,,,,,,,,,,,,,
,,,,,V3_105,19,F,2025-02-06_14h02.12.037,jersey_experiment_5_v3,2023.2.2,Win32,85.47008547,,,,,,,,,,,,,,,,358.7592,360.3123,360.3123,361.0302,return,0.1551,,79.296875,,,,,,FBP-PT-81.png,0.43,1.2,24,0.75,0,35,35,23,1,,,,,,,,,,,,,,,,,,,,,,,,,,,,,,,,,,,,,,,,
,,,,,V3_105,19,F,2025-02-06_14h02.12.037,jersey_experiment_5_v3,2023.2.2,Win32,85.47008547,,,,,,,,,,,,,,,,361.0304,362.5826,362.5826,363.3945,return,0.1365,,73.95833333,,,,,,FBP-YG-19.png,0.4,1.2,13,0.75,0,36,36,12,1,,,,,,,,,,,,,,,,,,,,,,,,,,,,,,,,,,,,,,,,
,,,,,V3_105,19,F,2025-02-06_14h02.12.037,jersey_experiment_5_v3,2023.2.2,Win32,85.47008547,,,,,,,,,,,,,,,,363.3947,364.6886,364.6886,365.8416,return,0.1374,,71.484375,,,,,,FBP-OG-91.png,0.37,1.2,42,0.5,0,37,37,41,1,,,,,,,,,,,,,,,,,,,,,,,,,,,,,,,,,,,,,,,,
,,,,,V3_105,19,F,2025-02-06_14h02.12.037,jersey_experiment_5_v3,2023.2.2,Win32,85.47008547,,,,,,,,,,,,,,,,365.8419,367.3946,367.3946,368.4418,return,0.1029,,50.91145833,,,,,,FBP-RB-71.png,0.35,1.2,46,0.75,0,38,38,45,1,,,,,,,,,,,,,,,,,,,,,,,,,,,,,,,,,,,,,,,,
,,,,,V3_105,19,F,2025-02-06_14h02.12.037,jersey_experiment_5_v3,2023.2.2,Win32,85.47008547,,,,,,,,,,,,,,,,368.4422,369.9946,369.9947,370.9358,return,0.1769,,75.65104167,,,,,,FBP-PT-71.png,0.4,1.2,18,0.75,0,39,39,17,1,,,,,,,,,,,,,,,,,,,,,,,,,,,,,,,,,,,,,,,,
,,,,,V3_105,19,F,2025-02-06_14h02.12.037,jersey_experiment_5_v3,2023.2.2,Win32,85.47008547,,,,,,,,,,,,,,,,370.936,372.4889,372.489,375.7831,return,2.1909,,56.38020833,,,,,,FBP-PT-71.png,0.37,1.2,17,0.75,0,40,40,16,1,,,,,,,,,,,,,,,,,,,,,,,,,,,,,,,,,,,,,,,,
,,,,,V3_105,19,F,2025-02-06_14h02.12.037,jersey_experiment_5_v3,2023.2.2,Win32,85.47008547,,,,,,,,,,,,,,,,375.7835,377.3362,377.3363,378.0891,return,0.1513,,41.27604167,,,,,,FBP-YG-19.png,0.35,1.2,11,0.75,0,41,41,10,1,,,,,,,,,,,,,,,,,,,,,,,,,,,,,,,,,,,,,,,,
,,,,,V3_105,19,F,2025-02-06_14h02.12.037,jersey_experiment_5_v3,2023.2.2,Win32,85.47008547,,,,,,,,,,,,,,,,378.0893,379.6421,379.6421,380.6422,return,0.1705,,54.55729167,,,,,,FBP-RB-81.png,0.4,1.2,53,0.75,0,42,42,52,1,,,,,,,,,,,,,,,,,,,,,,,,,,,,,,,,,,,,,,,,
,,,,,V3_105,19,F,2025-02-06_14h02.12.037,jersey_experiment_5_v3,2023.2.2,Win32,85.47008547,,,,,,,,,,,,,,,,380.6425,381.9362,381.9363,382.7598,return,0.1669,,83.85416667,,,,,,FBP-OG-71.png,0.45,1.2,35,0.5,0,43,43,34,1,,,,,,,,,,,,,,,,,,,,,,,,,,,,,,,,,,,,,,,,
,,,,,V3_105,19,F,2025-02-06_14h02.12.037,jersey_experiment_5_v3,2023.2.2,Win32,85.47008547,,,,,,,,,,,,,,,,382.7601,384.3012,384.3013,385.1481,return,0.2825,,92.578125,,,,,,FBP-RB-91.png,0.43,1.2,59,0.75,0,44,44,58,1,,,,,,,,,,,,,,,,,,,,,,,,,,,,,,,,,,,,,,,,
,,,,,V3_105,19,F,2025-02-06_14h02.12.037,jersey_experiment_5_v3,2023.2.2,Win32,85.47008547,,,,,,,,,,,,,,,,385.1483,386.7015,386.7016,387.4423,return,0.1839,,99.08854167,,,,,,FBP-RB-81.png,0.43,1.2,54,0.75,0,45,45,53,1,,,,,,,,,,,,,,,,,,,,,,,,,,,,,,,,,,,,,,,,
,,,,,V3_105,19,F,2025-02-06_14h02.12.037,jersey_experiment_5_v3,2023.2.2,Win32,85.47008547,,,,,,,,,,,,,,,,387.4426,388.9956,388.9957,389.5954,return,0.1649,,73.30729167,,,,,,FBP-RB-91.png,0.37,1.2,57,0.75,0,46,46,56,1,,,,,,,,,,,,,,,,,,,,,,,,,,,,,,,,,,,,,,,,
,,,,,V3_105,19,F,2025-02-06_14h02.12.037,jersey_experiment_5_v3,2023.2.2,Win32,85.47008547,,,,,,,,,,,,,,,,389.5957,391.1485,391.1486,392.3368,return,0.5734,,64.71354167,,,,,,FBP-YG-18.png,0.37,1.2,7,0.75,0,47,47,6,1,,,,,,,,,,,,,,,,,,,,,,,,,,,,,,,,,,,,,,,,
,,,,,V3_105,19,F,2025-02-06_14h02.12.037,jersey_experiment_5_v3,2023.2.2,Win32,85.47008547,,,,,,,,,,,,,,,,392.337,393.8896,393.8897,398.6193,return,3.1279,,71.35416667,,,,,,FBP-PT-81.png,0.45,1.2,25,0.75,0,48,48,24,1,,,,,,,,,,,,,,,,,,,,,,,,,,,,,,,,,,,,,,,,
,,,,,V3_105,19,F,2025-02-06_14h02.12.037,jersey_experiment_5_v3,2023.2.2,Win32,85.47008547,,,,,,,,,,,,,,,,398.6195,399.9134,399.9135,401.9958,return,0.2354,,69.01041667,,,,,,FBP-OG-81.png,0.45,1.2,40,0.5,0,49,49,39,1,,,,,,,,,,,,,,,,,,,,,,,,,,,,,,,,,,,,,,,,
,,,,,V3_105,19,F,2025-02-06_14h02.12.037,jersey_experiment_5_v3,2023.2.2,Win32,85.47008547,,,,,,,,,,,,,,,,401.9961,403.5489,403.5489,405.1254,return,0.1308,,90.10416667,,,,,,FBP-RB-81.png,0.45,1.2,55,0.75,0,50,50,54,1,,,,,,,,,,,,,,,,,,,,,,,,,,,,,,,,,,,,,,,,
,,,,,V3_105,19,F,2025-02-06_14h02.12.037,jersey_experiment_5_v3,2023.2.2,Win32,85.47008547,,,,,,,,,,,,,,,,405.1256,406.6783,406.6784,407.3019,return,0.1801,,86.06770833,,,,,,FBP-YG-18.png,0.43,1.2,9,0.75,0,51,51,8,1,,,,,,,,,,,,,,,,,,,,,,,,,,,,,,,,,,,,,,,,
,,,,,V3_105,19,F,2025-02-06_14h02.12.037,jersey_experiment_5_v3,2023.2.2,Win32,85.47008547,,,,,,,,,,,,,,,,407.3021,408.8549,408.855,409.4433,return,0.2379,,83.72395833,,,,,,FBP-PT-71.png,0.43,1.2,19,0.75,0,52,52,18,1,,,,,,,,,,,,,,,,,,,,,,,,,,,,,,,,,,,,,,,,
,,,,,V3_105,19,F,2025-02-06_14h02.12.037,jersey_experiment_5_v3,2023.2.2,Win32,85.47008547,,,,,,,,,,,,,,,,409.4436,410.7373,410.7374,411.5373,return,0.3262,,83.72395833,,,,,,FBP-OG-91.png,0.45,1.2,45,0.5,0,53,53,44,1,,,,,,,,,,,,,,,,,,,,,,,,,,,,,,,,,,,,,,,,
,,,,,V3_105,19,F,2025-02-06_14h02.12.037,jersey_experiment_5_v3,2023.2.2,Win32,85.47008547,,,,,,,,,,,,,,,,411.5376,413.0904,413.0905,413.7609,return,0.1263,,91.66666667,,,,,,FBP-RB-91.png,0.45,1.2,60,0.75,0,54,54,59,1,,,,,,,,,,,,,,,,,,,,,,,,,,,,,,,,,,,,,,,,
,,,,,V3_105,19,F,2025-02-06_14h02.12.037,jersey_experiment_5_v3,2023.2.2,Win32,85.47008547,,,,,,,,,,,,,,,,413.7611,415.0552,415.0552,417.1848,return,0.4917,,41.14583333,,,,,,FBP-OG-71.png,0.37,1.2,32,0.5,0,55,55,31,1,,,,,,,,,,,,,,,,,,,,,,,,,,,,,,,,,,,,,,,,
,,,,,V3_105,19,F,2025-02-06_14h02.12.037,jersey_experiment_5_v3,2023.2.2,Win32,85.47008547,,,,,,,,,,,,,,,,417.185,418.4788,418.4789,420.5377,return,1.2577,,48.828125,,,,,,FBP-OG-91.png,0.43,1.2,44,0.5,0,56,56,43,1,,,,,,,,,,,,,,,,,,,,,,,,,,,,,,,,,,,,,,,,
,,,,,V3_105,19,F,2025-02-06_14h02.12.037,jersey_experiment_5_v3,2023.2.2,Win32,85.47008547,,,,,,,,,,,,,,,,420.538,422.0907,422.0907,422.7262,return,0.0745,,29.81770833,,,,,,FBP-PT-81.png,0.37,1.2,22,0.75,0,57,57,21,1,,,,,,,,,,,,,,,,,,,,,,,,,,,,,,,,,,,,,,,,
,,,,,V3_105,19,F,2025-02-06_14h02.12.037,jersey_experiment_5_v3,2023.2.2,Win32,85.47008547,,,,,,,,,,,,,,,,422.7263,424.0202,424.0202,426.3615,return,0.6591,,67.83854167,,,,,,FBP-OG-81.png,0.43,1.2,39,0.5,0,58,58,38,1,,,,,,,,,,,,,,,,,,,,,,,,,,,,,,,,,,,,,,,,
,,,,,V3_105,19,F,2025-02-06_14h02.12.037,jersey_experiment_5_v3,2023.2.2,Win32,85.47008547,,,,,,,,,,,,,,,,426.3617,427.9146,427.9147,428.4909,return,0.1177,,82.68229167,,,,,,FBP-PT-71.png,0.45,1.2,20,0.75,0,59,59,19,1,,,,,,,,,,,,,,,,,,,,,,,,,,,,,,,,,,,,,,,,
,,,,,V3_105,19,F,2025-02-06_14h02.12.037,jersey_experiment_5_v3,2023.2.2,Win32,85.47008547,,,,,,,,,,,,,,,,,,,,,,,,,,,,,,,,,,,,,,,428.4912,548.4839,,,,,,,,,,,,,,,,,,,,,,,,,,,,,,,,,,,,,,
,,,,,V3_105,19,F,2025-02-06_14h02.12.037,jersey_experiment_5_v3,2023.2.2,Win32,85.47008547,,,,,,,,,,,,,,,,,,,,,,,,,,,,,,,,,,,,,,,,,548.484,552.7896,return,4.2965,,,,,,,,,,,,,,,,,,,,,,,,,,,,,,,,,,
,,,,,V3_105,19,F,2025-02-06_14h02.12.037,jersey_experiment_5_v3,2023.2.2,Win32,85.47008547,,,,,,,,,,,,,,,,552.7913,554.0838,554.0839,556.331,return,0.1885,,64.58333333,,,,,,FBP-YG-91.png,0.4,1.2,13,0.5,,,,,,,,,,,,,0,0,0,12,1,,,,,,,,,,,,,,,,,,,,,,,,,,,,
,,,,,V3_105,19,F,2025-02-06_14h02.12.037,jersey_experiment_5_v3,2023.2.2,Win32,85.47008547,,,,,,,,,,,,,,,,556.3313,557.8842,557.8842,558.4839,return,0.1822,,44.53125,,,,,,FBP-OG-18.png,0.35,1.2,36,0.75,,,,,,,,,,,,,0,1,1,35,1,,,,,,,,,,,,,,,,,,,,,,,,,,,,
,,,,,V3_105,19,F,2025-02-06_14h02.12.037,jersey_experiment_5_v3,2023.2.2,Win32,85.47008547,,,,,,,,,,,,,,,,558.4841,559.7784,559.7784,561.4136,return,0.8747,,73.69791667,,,,,,FBP-PT-17.png,0.43,1.2,19,0.5,,,,,,,,,,,,,0,2,2,18,1,,,,,,,,,,,,,,,,,,,,,,,,,,,,
,,,,,V3_105,19,F,2025-02-06_14h02.12.037,jersey_experiment_5_v3,2023.2.2,Win32,85.47008547,,,,,,,,,,,,,,,,561.4138,562.7077,562.7077,564.0724,return,0.2,,51.82291667,,,,,,FBP-PT-18.png,0.4,1.2,23,0.5,,,,,,,,,,,,,0,3,3,22,1,,,,,,,,,,,,,,,,,,,,,,,,,,,,
,,,,,V3_105,19,F,2025-02-06_14h02.12.037,jersey_experiment_5_v3,2023.2.2,Win32,85.47008547,,,,,,,,,,,,,,,,564.0726,565.3665,565.3666,566.2136,return,0.2156,,45.44270833,,,,,,FBP-RB-17.png,0.37,1.2,47,0.5,,,,,,,,,,,,,0,4,4,46,1,,,,,,,,,,,,,,,,,,,,,,,,,,,,
,,,,,V3_105,19,F,2025-02-06_14h02.12.037,jersey_experiment_5_v3,2023.2.2,Win32,85.47008547,,,,,,,,,,,,,,,,566.2139,567.5079,567.5079,568.273,return,0.1386,,37.23958333,,,,,,FBP-PT-17.png,0.35,1.2,16,0.5,,,,,,,,,,,,,0,5,5,15,1,,,,,,,,,,,,,,,,,,,,,,,,,,,,
,,,,,V3_105,19,F,2025-02-06_14h02.12.037,jersey_experiment_5_v3,2023.2.2,Win32,85.47008547,,,,,,,,,,,,,,,,568.2732,569.5667,569.5667,570.508,return,0.1894,,27.99479167,,,,,,FBP-YG-81.png,0.37,1.2,7,0.5,,,,,,,,,,,,,0,6,6,6,1,,,,,,,,,,,,,,,,,,,,,,,,,,,,
,,,,,V3_105,19,F,2025-02-06_14h02.12.037,jersey_experiment_5_v3,2023.2.2,Win32,85.47008547,,,,,,,,,,,,,,,,570.5082,572.0494,572.0495,573.4138,return,0.1448,,82.94270833,,,,,,FBP-OG-19.png,0.45,1.2,45,0.75,,,,,,,,,,,,,0,7,7,44,1,,,,,,,,,,,,,,,,,,,,,,,,,,,,
,,,,,V3_105,19,F,2025-02-06_14h02.12.037,jersey_experiment_5_v3,2023.2.2,Win32,85.47008547,,,,,,,,,,,,,,,,573.414,574.7082,574.7082,575.8139,return,0.1448,,80.33854167,,,,,,FBP-YG-71.png,0.43,1.2,4,0.5,,,,,,,,,,,,,0,8,8,3,1,,,,,,,,,,,,,,,,,,,,,,,,,,,,
,,,,,V3_105,19,F,2025-02-06_14h02.12.037,jersey_experiment_5_v3,2023.2.2,Win32,85.47008547,,,,,,,,,,,,,,,,575.8142,577.3672,577.3673,578.2612,return,0.0753,,80.98958333,,,,,,FBP-OG-17.png,0.43,1.2,34,0.75,,,,,,,,,,,,,0,9,9,33,1,,,,,,,,,,,,,,,,,,,,,,,,,,,,
,,,,,V3_105,19,F,2025-02-06_14h02.12.037,jersey_experiment_5_v3,2023.2.2,Win32,85.47008547,,,,,,,,,,,,,,,,578.2616,579.5554,579.5554,580.8026,return,0.1099,,91.66666667,,,,,,FBP-PT-19.png,0.45,1.2,30,0.5,,,,,,,,,,,,,0,10,10,29,1,,,,,,,,,,,,,,,,,,,,,,,,,,,,
,,,,,V3_105,19,F,2025-02-06_14h02.12.037,jersey_experiment_5_v3,2023.2.2,Win32,85.47008547,,,,,,,,,,,,,,,,580.8028,582.0967,582.0967,583.8024,return,0.9643,,46.61458333,,,,,,FBP-YG-71.png,0.35,1.2,1,0.5,,,,,,,,,,,,,0,11,11,0,1,,,,,,,,,,,,,,,,,,,,,,,,,,,,
,,,,,V3_105,19,F,2025-02-06_14h02.12.037,jersey_experiment_5_v3,2023.2.2,Win32,85.47008547,,,,,,,,,,,,,,,,583.8028,585.3555,585.3556,586.0733,return,0.0802,,42.44791667,,,,,,FBP-OG-19.png,0.35,1.2,41,0.75,,,,,,,,,,,,,0,12,12,40,1,,,,,,,,,,,,,,,,,,,,,,,,,,,,
,,,,,V3_105,19,F,2025-02-06_14h02.12.037,jersey_experiment_5_v3,2023.2.2,Win32,85.47008547,,,,,,,,,,,,,,,,586.0735,587.3675,587.3675,587.897,return,0.0701,,39.32291667,,,,,,FBP-PT-17.png,0.37,1.2,17,0.5,,,,,,,,,,,,,0,13,13,16,1,,,,,,,,,,,,,,,,,,,,,,,,,,,,
,,,,,V3_105,19,F,2025-02-06_14h02.12.037,jersey_experiment_5_v3,2023.2.2,Win32,85.47008547,,,,,,,,,,,,,,,,587.8972,589.1909,589.191,589.8616,return,0.1322,,61.71875,,,,,,FBP-RB-17.png,0.4,1.2,48,0.5,,,,,,,,,,,,,0,14,14,47,1,,,,,,,,,,,,,,,,,,,,,,,,,,,,
,,,,,V3_105,19,F,2025-02-06_14h02.12.037,jersey_experiment_5_v3,2023.2.2,Win32,85.47008547,,,,,,,,,,,,,,,,589.8618,591.1558,591.1559,591.9792,return,0.0811,,43.48958333,,,,,,FBP-YG-91.png,0.35,1.2,11,0.5,,,,,,,,,,,,,0,15,15,10,1,,,,,,,,,,,,,,,,,,,,,,,,,,,,
,,,,,V3_105,19,F,2025-02-06_14h02.12.037,jersey_experiment_5_v3,2023.2.2,Win32,85.47008547,,,,,,,,,,,,,,,,591.9795,593.2735,593.2736,594.2264,return,0.0763,,76.171875,,,,,,FBP-RB-18.png,0.43,1.2,54,0.5,,,,,,,,,,,,,0,16,16,53,1,,,,,,,,,,,,,,,,,,,,,,,,,,,,
,,,,,V3_105,19,F,2025-02-06_14h02.12.037,jersey_experiment_5_v3,2023.2.2,Win32,85.47008547,,,,,,,,,,,,,,,,594.2266,595.5206,595.5206,596.0854,return,0.0249,,80.59895833,,,,,,FBP-RB-18.png,0.45,1.2,55,0.5,,,,,,,,,,,,,0,17,17,54,1,,,,,,,,,,,,,,,,,,,,,,,,,,,,
,,,,,V3_105,19,F,2025-02-06_14h02.12.037,jersey_experiment_5_v3,2023.2.2,Win32,85.47008547,,,,,,,,,,,,,,,,596.0857,597.3795,597.3795,600.4266,return,0.5647,,72.13541667,,,,,,FBP-PT-19.png,0.43,1.2,29,0.5,,,,,,,,,,,,,0,18,18,28,1,,,,,,,,,,,,,,,,,,,,,,,,,,,,
,,,,,V3_105,19,F,2025-02-06_14h02.12.037,jersey_experiment_5_v3,2023.2.2,Win32,85.47008547,,,,,,,,,,,,,,,,600.4269,601.7209,601.721,602.9444,return,0.5841,,34.11458333,,,,,,FBP-YG-71.png,0.37,1.2,2,0.5,,,,,,,,,,,,,0,19,19,1,1,,,,,,,,,,,,,,,,,,,,,,,,,,,,
,,,,,V3_105,19,F,2025-02-06_14h02.12.037,jersey_experiment_5_v3,2023.2.2,Win32,85.47008547,,,,,,,,,,,,,,,,602.9446,604.4974,604.4974,605.5917,return,0.0865,,48.828125,,,,,,FBP-OG-18.png,0.4,1.2,38,0.75,,,,,,,,,,,,,0,20,20,37,1,,,,,,,,,,,,,,,,,,,,,,,,,,,,
,,,,,V3_105,19,F,2025-02-06_14h02.12.037,jersey_experiment_5_v3,2023.2.2,Win32,85.47008547,,,,,,,,,,,,,,,,605.5919,606.8858,606.8859,609.3329,return,0.0485,,45.57291667,,,,,,FBP-RB-17.png,0.35,1.2,46,0.5,,,,,,,,,,,,,0,21,21,45,1,,,,,,,,,,,,,,,,,,,,,,,,,,,,
,,,,,V3_105,19,F,2025-02-06_14h02.12.037,jersey_experiment_5_v3,2023.2.2,Win32,85.47008547,,,,,,,,,,,,,,,,609.3332,610.6271,610.6271,611.286,return,0.0724,,74.73958333,,,,,,FBP-YG-91.png,0.45,1.2,15,0.5,,,,,,,,,,,,,0,22,22,14,1,,,,,,,,,,,,,,,,,,,,,,,,,,,,
,,,,,V3_105,19,F,2025-02-06_14h02.12.037,jersey_experiment_5_v3,2023.2.2,Win32,85.47008547,,,,,,,,,,,,,,,,611.2863,612.8391,612.8391,613.286,return,0.0712,,49.609375,,,,,,FBP-OG-18.png,0.37,1.2,37,0.75,,,,,,,,,,,,,0,23,23,36,1,,,,,,,,,,,,,,,,,,,,,,,,,,,,
,,,,,V3_105,19,F,2025-02-06_14h02.12.037,jersey_experiment_5_v3,2023.2.2,Win32,85.47008547,,,,,,,,,,,,,,,,613.2863,614.58,614.5801,615.2507,return,0.1245,,43.61979167,,,,,,FBP-RB-19.png,0.35,1.2,56,0.5,,,,,,,,,,,,,0,24,24,55,1,,,,,,,,,,,,,,,,,,,,,,,,,,,,
,,,,,V3_105,19,F,2025-02-06_14h02.12.037,jersey_experiment_5_v3,2023.2.2,Win32,85.47008547,,,,,,,,,,,,,,,,615.2509,616.5449,616.5449,618.0744,return,0.0579,,71.61458333,,,,,,FBP-RB-19.png,0.45,1.2,60,0.5,,,,,,,,,,,,,0,25,25,59,1,,,,,,,,,,,,,,,,,,,,,,,,,,,,
,,,,,V3_105,19,F,2025-02-06_14h02.12.037,jersey_experiment_5_v3,2023.2.2,Win32,85.47008547,,,,,,,,,,,,,,,,618.0747,619.6274,619.6274,620.0979,return,0.0409,,52.47395833,,,,,,FBP-OG-19.png,0.4,1.2,43,0.75,,,,,,,,,,,,,0,26,26,42,1,,,,,,,,,,,,,,,,,,,,,,,,,,,,
,,,,,V3_105,19,F,2025-02-06_14h02.12.037,jersey_experiment_5_v3,2023.2.2,Win32,85.47008547,,,,,,,,,,,,,,,,620.0981,621.3922,621.3922,623.8275,return,0.0047,,53.38541667,,,,,,FBP-PT-19.png,0.4,1.2,28,0.5,,,,,,,,,,,,,0,27,27,27,1,,,,,,,,,,,,,,,,,,,,,,,,,,,,
,,,,,V3_105,19,F,2025-02-06_14h02.12.037,jersey_experiment_5_v3,2023.2.2,Win32,85.47008547,,,,,,,,,,,,,,,,623.8278,625.1216,625.1217,625.9689,return,0.4205,,68.88020833,,,,,,FBP-YG-91.png,0.43,1.2,14,0.5,,,,,,,,,,,,,0,28,28,13,1,,,,,,,,,,,,,,,,,,,,,,,,,,,,
,,,,,V3_105,19,F,2025-02-06_14h02.12.037,jersey_experiment_5_v3,2023.2.2,Win32,85.47008547,,,,,,,,,,,,,,,,625.9691,627.2629,627.263,629.0277,return,0.4047,,42.83854167,,,,,,FBP-YG-81.png,0.35,1.2,6,0.5,,,,,,,,,,,,,0,29,29,5,1,,,,,,,,,,,,,,,,,,,,,,,,,,,,
,,,,,V3_105,19,F,2025-02-06_14h02.12.037,jersey_experiment_5_v3,2023.2.2,Win32,85.47008547,,,,,,,,,,,,,,,,629.028,630.3222,630.3222,630.8514,return,0.0637,,40.625,,,,,,FBP-PT-18.png,0.37,1.2,22,0.5,,,,,,,,,,,,,0,30,30,21,1,,,,,,,,,,,,,,,,,,,,,,,,,,,,
,,,,,V3_105,19,F,2025-02-06_14h02.12.037,jersey_experiment_5_v3,2023.2.2,Win32,85.47008547,,,,,,,,,,,,,,,,630.8517,632.1455,632.1455,632.7102,return,0.0739,,57.55208333,,,,,,FBP-RB-17.png,0.43,1.2,49,0.5,,,,,,,,,,,,,0,31,31,48,1,,,,,,,,,,,,,,,,,,,,,,,,,,,,
,,,,,V3_105,19,F,2025-02-06_14h02.12.037,jersey_experiment_5_v3,2023.2.2,Win32,85.47008547,,,,,,,,,,,,,,,,632.7104,634.0045,634.0045,634.6515,return,0.0366,,45.44270833,,,,,,FBP-PT-19.png,0.35,1.2,26,0.5,,,,,,,,,,,,,0,32,32,25,1,,,,,,,,,,,,,,,,,,,,,,,,,,,,
,,,,,V3_105,19,F,2025-02-06_14h02.12.037,jersey_experiment_5_v3,2023.2.2,Win32,85.47008547,,,,,,,,,,,,,,,,634.6518,636.2046,636.2046,636.828,return,0.0351,,68.09895833,,,,,,FBP-OG-18.png,0.43,1.2,39,0.75,,,,,,,,,,,,,0,33,33,38,1,,,,,,,,,,,,,,,,,,,,,,,,,,,,
,,,,,V3_105,19,F,2025-02-06_14h02.12.037,jersey_experiment_5_v3,2023.2.2,Win32,85.47008547,,,,,,,,,,,,,,,,636.8282,638.1222,638.1223,639.0164,return,0.4721,,77.86458333,,,,,,FBP-PT-17.png,0.45,1.2,20,0.5,,,,,,,,,,,,,0,34,34,19,1,,,,,,,,,,,,,,,,,,,,,,,,,,,,
,,,,,V3_105,19,F,2025-02-06_14h02.12.037,jersey_experiment_5_v3,2023.2.2,Win32,85.47008547,,,,,,,,,,,,,,,,639.0166,640.3105,640.3106,640.6634,return,0.0582,,77.734375,,,,,,FBP-PT-17.png,0.4,1.2,18,0.5,,,,,,,,,,,,,0,35,35,17,1,,,,,,,,,,,,,,,,,,,,,,,,,,,,
,,,,,V3_105,19,F,2025-02-06_14h02.12.037,jersey_experiment_5_v3,2023.2.2,Win32,85.47008547,,,,,,,,,,,,,,,,640.6637,642.2164,642.2164,642.8046,return,0.0518,,77.60416667,,,,,,FBP-OG-17.png,0.45,1.2,35,0.75,,,,,,,,,,,,,0,36,36,34,1,,,,,,,,,,,,,,,,,,,,,,,,,,,,
,,,,,V3_105,19,F,2025-02-06_14h02.12.037,jersey_experiment_5_v3,2023.2.2,Win32,85.47008547,,,,,,,,,,,,,,,,642.8048,644.0989,644.099,644.7225,return,0.0189,,81.77083333,,,,,,FBP-YG-81.png,0.45,1.2,10,0.5,,,,,,,,,,,,,0,37,37,9,1,,,,,,,,,,,,,,,,,,,,,,,,,,,,
,,,,,V3_105,19,F,2025-02-06_14h02.12.037,jersey_experiment_5_v3,2023.2.2,Win32,85.47008547,,,,,,,,,,,,,,,,644.7228,646.2756,646.2756,647.1932,return,0.1388,,60.02604167,,,,,,FBP-OG-17.png,0.4,1.2,33,0.75,,,,,,,,,,,,,0,38,38,32,1,,,,,,,,,,,,,,,,,,,,,,,,,,,,
,,,,,V3_105,19,F,2025-02-06_14h02.12.037,jersey_experiment_5_v3,2023.2.2,Win32,85.47008547,,,,,,,,,,,,,,,,647.1934,648.7462,648.7462,649.3342,return,0.0622,,44.66145833,,,,,,FBP-OG-17.png,0.37,1.2,32,0.75,,,,,,,,,,,,,0,39,39,31,1,,,,,,,,,,,,,,,,,,,,,,,,,,,,
,,,,,V3_105,19,F,2025-02-06_14h02.12.037,jersey_experiment_5_v3,2023.2.2,Win32,85.47008547,,,,,,,,,,,,,,,,649.3345,650.6286,650.6286,651.7226,return,0.1415,,51.30208333,,,,,,FBP-RB-19.png,0.4,1.2,58,0.5,,,,,,,,,,,,,0,40,40,57,1,,,,,,,,,,,,,,,,,,,,,,,,,,,,
,,,,,V3_105,19,F,2025-02-06_14h02.12.037,jersey_experiment_5_v3,2023.2.2,Win32,85.47008547,,,,,,,,,,,,,,,,651.723,653.2757,653.2757,654.9464,return,0.159,,46.74479167,,,,,,FBP-OG-19.png,0.37,1.2,42,0.75,,,,,,,,,,,,,0,41,41,41,1,,,,,,,,,,,,,,,,,,,,,,,,,,,,
,,,,,V3_105,19,F,2025-02-06_14h02.12.037,jersey_experiment_5_v3,2023.2.2,Win32,85.47008547,,,,,,,,,,,,,,,,654.9466,656.2406,656.2406,656.7582,return,0.1447,,46.875,,,,,,FBP-YG-91.png,0.37,1.2,12,0.5,,,,,,,,,,,,,0,42,42,11,1,,,,,,,,,,,,,,,,,,,,,,,,,,,,
,,,,,V3_105,19,F,2025-02-06_14h02.12.037,jersey_experiment_5_v3,2023.2.2,Win32,85.47008547,,,,,,,,,,,,,,,,656.7586,658.0523,658.0523,658.9347,return,0.0956,,29.6875,,,,,,FBP-RB-18.png,0.35,1.2,51,0.5,,,,,,,,,,,,,0,43,43,50,1,,,,,,,,,,,,,,,,,,,,,,,,,,,,
,,,,,V3_105,19,F,2025-02-06_14h02.12.037,jersey_experiment_5_v3,2023.2.2,Win32,85.47008547,,,,,,,,,,,,,,,,658.9349,660.2291,660.2291,660.9937,return,0.1727,,69.66145833,,,,,,FBP-PT-18.png,0.45,1.2,25,0.5,,,,,,,,,,,,,0,44,44,24,1,,,,,,,,,,,,,,,,,,,,,,,,,,,,
,,,,,V3_105,19,F,2025-02-06_14h02.12.037,jersey_experiment_5_v3,2023.2.2,Win32,85.47008547,,,,,,,,,,,,,,,,660.9939,662.2877,662.2877,662.9231,return,0.1494,,69.53125,,,,,,FBP-PT-18.png,0.43,1.2,24,0.5,,,,,,,,,,,,,0,45,45,23,1,,,,,,,,,,,,,,,,,,,,,,,,,,,,
,,,,,V3_105,19,F,2025-02-06_14h02.12.037,jersey_experiment_5_v3,2023.2.2,Win32,85.47008547,,,,,,,,,,,,,,,,662.9233,664.4763,664.4763,665.241,return,0.0605,,28.90625,,,,,,FBP-OG-17.png,0.35,1.2,31,0.75,,,,,,,,,,,,,0,46,46,30,1,,,,,,,,,,,,,,,,,,,,,,,,,,,,
,,,,,V3_105,19,F,2025-02-06_14h02.12.037,jersey_experiment_5_v3,2023.2.2,Win32,85.47008547,,,,,,,,,,,,,,,,665.2412,666.5351,666.5352,667.7351,return,0.0269,,82.8125,,,,,,FBP-YG-71.png,0.45,1.2,5,0.5,,,,,,,,,,,,,0,47,47,4,1,,,,,,,,,,,,,,,,,,,,,,,,,,,,
,,,,,V3_105,19,F,2025-02-06_14h02.12.037,jersey_experiment_5_v3,2023.2.2,Win32,85.47008547,,,,,,,,,,,,,,,,667.7353,669.0292,669.0292,669.6998,return,0.0764,,32.421875,,,,,,FBP-RB-18.png,0.37,1.2,52,0.5,,,,,,,,,,,,,0,48,48,51,1,,,,,,,,,,,,,,,,,,,,,,,,,,,,
,,,,,V3_105,19,F,2025-02-06_14h02.12.037,jersey_experiment_5_v3,2023.2.2,Win32,85.47008547,,,,,,,,,,,,,,,,669.7001,670.9942,670.9943,672.4646,return,0.1145,,70.18229167,,,,,,FBP-RB-19.png,0.43,1.2,59,0.5,,,,,,,,,,,,,0,49,49,58,1,,,,,,,,,,,,,,,,,,,,,,,,,,,,
,,,,,V3_105,19,F,2025-02-06_14h02.12.037,jersey_experiment_5_v3,2023.2.2,Win32,85.47008547,,,,,,,,,,,,,,,,672.4648,673.7591,673.7591,674.7945,return,0.1173,,28.515625,,,,,,FBP-RB-19.png,0.37,1.2,57,0.5,,,,,,,,,,,,,0,50,50,56,1,,,,,,,,,,,,,,,,,,,,,,,,,,,,
,,,,,V3_105,19,F,2025-02-06_14h02.12.037,jersey_experiment_5_v3,2023.2.2,Win32,85.47008547,,,,,,,,,,,,,,,,674.7947,676.0883,676.0883,676.8179,return,0.1375,,26.171875,,,,,,FBP-PT-18.png,0.35,1.2,21,0.5,,,,,,,,,,,,,0,51,51,20,1,,,,,,,,,,,,,,,,,,,,,,,,,,,,
,,,,,V3_105,19,F,2025-02-06_14h02.12.037,jersey_experiment_5_v3,2023.2.2,Win32,85.47008547,,,,,,,,,,,,,,,,676.8181,678.3707,678.3708,679.9473,return,0.1868,,67.05729167,,,,,,FBP-OG-18.png,0.45,1.2,40,0.75,,,,,,,,,,,,,0,52,52,39,1,,,,,,,,,,,,,,,,,,,,,,,,,,,,
,,,,,V3_105,19,F,2025-02-06_14h02.12.037,jersey_experiment_5_v3,2023.2.2,Win32,85.47008547,,,,,,,,,,,,,,,,679.9476,681.5003,681.5003,682.0649,return,0.29,,67.05729167,,,,,,FBP-OG-19.png,0.43,1.2,44,0.75,,,,,,,,,,,,,0,53,53,43,1,,,,,,,,,,,,,,,,,,,,,,,,,,,,
,,,,,V3_105,19,F,2025-02-06_14h02.12.037,jersey_experiment_5_v3,2023.2.2,Win32,85.47008547,,,,,,,,,,,,,,,,682.0651,683.3591,683.3593,684.1827,return,0.1793,,68.88020833,,,,,,FBP-RB-18.png,0.4,1.2,53,0.5,,,,,,,,,,,,,0,54,54,52,1,,,,,,,,,,,,,,,,,,,,,,,,,,,,
,,,,,V3_105,19,F,2025-02-06_14h02.12.037,jersey_experiment_5_v3,2023.2.2,Win32,85.47008547,,,,,,,,,,,,,,,,684.1828,685.4771,685.4771,686.3241,return,0.1221,,39.19270833,,,,,,FBP-PT-19.png,0.37,1.2,27,0.5,,,,,,,,,,,,,0,55,55,26,1,,,,,,,,,,,,,,,,,,,,,,,,,,,,
,,,,,V3_105,19,F,2025-02-06_14h02.12.037,jersey_experiment_5_v3,2023.2.2,Win32,85.47008547,,,,,,,,,,,,,,,,686.3244,687.6182,687.6183,688.6886,return,0.1361,,51.5625,,,,,,FBP-YG-71.png,0.4,1.2,3,0.5,,,,,,,,,,,,,0,56,56,2,1,,,,,,,,,,,,,,,,,,,,,,,,,,,,
,,,,,V3_105,19,F,2025-02-06_14h02.12.037,jersey_experiment_5_v3,2023.2.2,Win32,85.47008547,,,,,,,,,,,,,,,,688.6888,689.9829,689.983,690.9829,return,0.1084,,72.13541667,,,,,,FBP-YG-81.png,0.4,1.2,8,0.5,,,,,,,,,,,,,0,57,57,7,1,,,,,,,,,,,,,,,,,,,,,,,,,,,,
,,,,,V3_105,19,F,2025-02-06_14h02.12.037,jersey_experiment_5_v3,2023.2.2,Win32,85.47008547,,,,,,,,,,,,,,,,690.9832,692.277,692.2771,693.4301,return,0.3915,,81.38020833,,,,,,FBP-RB-17.png,0.45,1.2,50,0.5,,,,,,,,,,,,,0,58,58,49,1,,,,,,,,,,,,,,,,,,,,,,,,,,,,
,,,,,V3_105,19,F,2025-02-06_14h02.12.037,jersey_experiment_5_v3,2023.2.2,Win32,85.47008547,,,,,,,,,,,,,,,,693.4304,694.7242,694.7243,695.9478,return,0.2733,,85.67708333,,,,,,FBP-YG-81.png,0.43,1.2,9,0.5,,,,,,,,,,,,,0,59,59,8,1,,,,,,,,,,,,,,,,,,,,,,,,,,,,
,,,,,V3_105,19,F,2025-02-06_14h02.12.037,jersey_experiment_5_v3,2023.2.2,Win32,85.47008547,,,,,,,,,,,,,,,,695.9492,697.2421,697.2422,698.4539,return,0.5539,,77.99479167,,,,,,FBP-RB-71.png,0.43,1.2,49,0.5,,,,,,,,,,,,,,,,,,0,0,0,48,1,,,,,,,,,,,,,,,,,,,,,,,
,,,,,V3_105,19,F,2025-02-06_14h02.12.037,jersey_experiment_5_v3,2023.2.2,Win32,85.47008547,,,,,,,,,,,,,,,,698.4543,699.748,699.7481,701.4186,return,0.8947,,38.93229167,,,,,,FBP-YG-18.png,0.37,1.2,7,0.5,,,,,,,,,,,,,,,,,,0,1,1,6,1,,,,,,,,,,,,,,,,,,,,,,,
,,,,,V3_105,19,F,2025-02-06_14h02.12.037,jersey_experiment_5_v3,2023.2.2,Win32,85.47008547,,,,,,,,,,,,,,,,701.419,702.7128,702.7128,703.2539,return,0.083,,38.93229167,,,,,,FBP-RB-71.png,0.37,1.2,47,0.5,,,,,,,,,,,,,,,,,,0,2,2,46,1,,,,,,,,,,,,,,,,,,,,,,,
,,,,,V3_105,19,F,2025-02-06_14h02.12.037,jersey_experiment_5_v3,2023.2.2,Win32,85.47008547,,,,,,,,,,,,,,,,703.2544,704.5482,704.5483,705.5953,return,0.5887,,32.55208333,,,,,,FBP-YG-17.png,0.37,1.2,2,0.5,,,,,,,,,,,,,,,,,,0,3,3,1,1,,,,,,,,,,,,,,,,,,,,,,,
,,,,,V3_105,19,F,2025-02-06_14h02.12.037,jersey_experiment_5_v3,2023.2.2,Win32,85.47008547,,,,,,,,,,,,,,,,705.5956,706.8894,706.8894,708.8071,return,1.0953,,63.54166667,,,,,,FBP-YG-17.png,0.45,1.2,5,0.5,,,,,,,,,,,,,,,,,,0,4,4,4,1,,,,,,,,,,,,,,,,,,,,,,,
,,,,,V3_105,19,F,2025-02-06_14h02.12.037,jersey_experiment_5_v3,2023.2.2,Win32,85.47008547,,,,,,,,,,,,,,,,708.8074,710.3603,710.3603,711.1132,return,0.1291,,50.65104167,,,,,,FBP-OG-91.png,0.4,1.2,43,0.75,,,,,,,,,,,,,,,,,,0,5,5,42,1,,,,,,,,,,,,,,,,,,,,,,,
,,,,,V3_105,19,F,2025-02-06_14h02.12.037,jersey_experiment_5_v3,2023.2.2,Win32,85.47008547,,,,,,,,,,,,,,,,711.1133,712.4074,712.4074,712.9367,return,0.0376,,50.26041667,,,,,,FBP-PT-91.png,0.37,1.2,27,0.5,,,,,,,,,,,,,,,,,,0,6,6,26,1,,,,,,,,,,,,,,,,,,,,,,,
,,,,,V3_105,19,F,2025-02-06_14h02.12.037,jersey_experiment_5_v3,2023.2.2,Win32,85.47008547,,,,,,,,,,,,,,,,712.937,714.4897,714.4898,715.0308,return,0.0476,,55.33854167,,,,,,FBP-OG-91.png,0.45,1.2,45,0.75,,,,,,,,,,,,,,,,,,0,7,7,44,1,,,,,,,,,,,,,,,,,,,,,,,
,,,,,V3_105,19,F,2025-02-06_14h02.12.037,jersey_experiment_5_v3,2023.2.2,Win32,85.47008547,,,,,,,,,,,,,,,,715.0311,716.3251,716.3251,717.1957,return,0.1106,,55.33854167,,,,,,FBP-YG-19.png,0.45,1.2,15,0.5,,,,,,,,,,,,,,,,,,0,8,8,14,1,,,,,,,,,,,,,,,,,,,,,,,
,,,,,V3_105,19,F,2025-02-06_14h02.12.037,jersey_experiment_5_v3,2023.2.2,Win32,85.47008547,,,,,,,,,,,,,,,,717.196,718.49,718.49,719.1135,return,0.1413,,42.44791667,,,,,,FBP-YG-19.png,0.35,1.2,11,0.5,,,,,,,,,,,,,,,,,,0,9,9,10,1,,,,,,,,,,,,,,,,,,,,,,,
,,,,,V3_105,19,F,2025-02-06_14h02.12.037,jersey_experiment_5_v3,2023.2.2,Win32,85.47008547,,,,,,,,,,,,,,,,719.1138,720.4083,720.4083,720.8662,return,0.0999,,34.765625,,,,,,FBP-RB-91.png,0.37,1.2,57,0.5,,,,,,,,,,,,,,,,,,0,10,10,56,1,,,,,,,,,,,,,,,,,,,,,,,
,,,,,V3_105,19,F,2025-02-06_14h02.12.037,jersey_experiment_5_v3,2023.2.2,Win32,85.47008547,,,,,,,,,,,,,,,,720.8665,722.1606,722.1606,722.5135,return,0.0665,,34.765625,,,,,,FBP-PT-71.png,0.35,1.2,16,0.5,,,,,,,,,,,,,,,,,,0,11,11,15,1,,,,,,,,,,,,,,,,,,,,,,,
,,,,,V3_105,19,F,2025-02-06_14h02.12.037,jersey_experiment_5_v3,2023.2.2,Win32,85.47008547,,,,,,,,,,,,,,,,722.5137,723.8079,723.8079,724.4547,return,0.1059,,74.609375,,,,,,FBP-RB-71.png,0.45,1.2,50,0.5,,,,,,,,,,,,,,,,,,0,12,12,49,1,,,,,,,,,,,,,,,,,,,,,,,
,,,,,V3_105,19,F,2025-02-06_14h02.12.037,jersey_experiment_5_v3,2023.2.2,Win32,85.47008547,,,,,,,,,,,,,,,,724.4549,725.9963,725.9963,727.043,return,0.1582,,50.65104167,,,,,,FBP-OG-91.png,0.35,1.2,41,0.75,,,,,,,,,,,,,,,,,,0,13,13,40,1,,,,,,,,,,,,,,,,,,,,,,,
,,,,,V3_105,19,F,2025-02-06_14h02.12.037,jersey_experiment_5_v3,2023.2.2,Win32,85.47008547,,,,,,,,,,,,,,,,727.0432,728.3372,728.3372,730.2315,return,1.0126,,64.453125,,,,,,FBP-PT-81.png,0.4,1.2,23,0.5,,,,,,,,,,,,,,,,,,0,14,14,22,1,,,,,,,,,,,,,,,,,,,,,,,
,,,,,V3_105,19,F,2025-02-06_14h02.12.037,jersey_experiment_5_v3,2023.2.2,Win32,85.47008547,,,,,,,,,,,,,,,,730.2318,731.5256,731.5256,732.0904,return,0.1658,,74.73958333,,,,,,FBP-YG-19.png,0.43,1.2,14,0.5,,,,,,,,,,,,,,,,,,0,15,15,13,1,,,,,,,,,,,,,,,,,,,,,,,
,,,,,V3_105,19,F,2025-02-06_14h02.12.037,jersey_experiment_5_v3,2023.2.2,Win32,85.47008547,,,,,,,,,,,,,,,,732.0906,733.3846,733.3846,734.4551,return,0.5201,,43.75,,,,,,FBP-YG-18.png,0.35,1.2,6,0.5,,,,,,,,,,,,,,,,,,0,16,16,5,1,,,,,,,,,,,,,,,,,,,,,,,
,,,,,V3_105,19,F,2025-02-06_14h02.12.037,jersey_experiment_5_v3,2023.2.2,Win32,85.47008547,,,,,,,,,,,,,,,,734.4554,735.7498,735.7499,737.0434,return,0.7693,,53.90625,,,,,,FBP-PT-71.png,0.37,1.2,17,0.5,,,,,,,,,,,,,,,,,,0,17,17,16,1,,,,,,,,,,,,,,,,,,,,,,,
,,,,,V3_105,19,F,2025-02-06_14h02.12.037,jersey_experiment_5_v3,2023.2.2,Win32,85.47008547,,,,,,,,,,,,,,,,737.0436,738.3377,738.3378,739.3142,return,0.4899,,47.52604167,,,,,,FBP-PT-81.png,0.35,1.2,21,0.5,,,,,,,,,,,,,,,,,,0,18,18,20,1,,,,,,,,,,,,,,,,,,,,,,,
,,,,,V3_105,19,F,2025-02-06_14h02.12.037,jersey_experiment_5_v3,2023.2.2,Win32,85.47008547,,,,,,,,,,,,,,,,739.3145,740.6084,740.6085,741.2438,return,0.2129,,75,,,,,,FBP-RB-81.png,0.43,1.2,54,0.5,,,,,,,,,,,,,,,,,,0,19,19,53,1,,,,,,,,,,,,,,,,,,,,,,,
,,,,,V3_105,19,F,2025-02-06_14h02.12.037,jersey_experiment_5_v3,2023.2.2,Win32,85.47008547,,,,,,,,,,,,,,,,741.244,742.5377,742.5377,743.1731,return,0.2043,,87.36979167,,,,,,FBP-PT-91.png,0.45,1.2,30,0.5,,,,,,,,,,,,,,,,,,0,20,20,29,1,,,,,,,,,,,,,,,,,,,,,,,
,,,,,V3_105,19,F,2025-02-06_14h02.12.037,jersey_experiment_5_v3,2023.2.2,Win32,85.47008547,,,,,,,,,,,,,,,,743.1733,744.4673,744.4673,747.4323,return,1.176,,61.97916667,,,,,,FBP-RB-81.png,0.37,1.2,52,0.5,,,,,,,,,,,,,,,,,,0,21,21,51,1,,,,,,,,,,,,,,,,,,,,,,,
,,,,,V3_105,19,F,2025-02-06_14h02.12.037,jersey_experiment_5_v3,2023.2.2,Win32,85.47008547,,,,,,,,,,,,,,,,747.4325,748.7263,748.7263,749.6086,return,0.4087,,50.78125,,,,,,FBP-PT-81.png,0.37,1.2,22,0.5,,,,,,,,,,,,,,,,,,0,22,22,21,1,,,,,,,,,,,,,,,,,,,,,,,
,,,,,V3_105,19,F,2025-02-06_14h02.12.037,jersey_experiment_5_v3,2023.2.2,Win32,85.47008547,,,,,,,,,,,,,,,,749.6089,750.9029,750.9029,752.1383,return,0.8362,,77.60416667,,,,,,FBP-RB-81.png,0.45,1.2,55,0.5,,,,,,,,,,,,,,,,,,0,23,23,54,1,,,,,,,,,,,,,,,,,,,,,,,
,,,,,V3_105,19,F,2025-02-06_14h02.12.037,jersey_experiment_5_v3,2023.2.2,Win32,85.47008547,,,,,,,,,,,,,,,,752.1386,753.4323,753.4323,754.4559,return,0.1518,,50.52083333,,,,,,FBP-PT-91.png,0.35,1.2,26,0.5,,,,,,,,,,,,,,,,,,0,24,24,25,1,,,,,,,,,,,,,,,,,,,,,,,
,,,,,V3_105,19,F,2025-02-06_14h02.12.037,jersey_experiment_5_v3,2023.2.2,Win32,85.47008547,,,,,,,,,,,,,,,,754.4562,755.7501,755.7502,756.6442,return,0.1804,,50.52083333,,,,,,FBP-YG-18.png,0.4,1.2,8,0.5,,,,,,,,,,,,,,,,,,0,25,25,7,1,,,,,,,,,,,,,,,,,,,,,,,
,,,,,V3_105,19,F,2025-02-06_14h02.12.037,jersey_experiment_5_v3,2023.2.2,Win32,85.47008547,,,,,,,,,,,,,,,,756.6445,757.9384,757.9384,758.762,return,0.1285,,51.43229167,,,,,,FBP-RB-91.png,0.43,1.2,59,0.5,,,,,,,,,,,,,,,,,,0,26,26,58,1,,,,,,,,,,,,,,,,,,,,,,,
,,,,,V3_105,19,F,2025-02-06_14h02.12.037,jersey_experiment_5_v3,2023.2.2,Win32,85.47008547,,,,,,,,,,,,,,,,758.7621,760.0561,760.0562,761.1855,return,0.3844,,51.43229167,,,,,,FBP-PT-71.png,0.4,1.2,18,0.5,,,,,,,,,,,,,,,,,,0,27,27,17,1,,,,,,,,,,,,,,,,,,,,,,,
,,,,,V3_105,19,F,2025-02-06_14h02.12.037,jersey_experiment_5_v3,2023.2.2,Win32,85.47008547,,,,,,,,,,,,,,,,761.1858,762.4798,762.4798,763.3032,return,0.1776,,60.80729167,,,,,,FBP-YG-18.png,0.43,1.2,9,0.5,,,,,,,,,,,,,,,,,,0,28,28,8,1,,,,,,,,,,,,,,,,,,,,,,,
,,,,,V3_105,19,F,2025-02-06_14h02.12.037,jersey_experiment_5_v3,2023.2.2,Win32,85.47008547,,,,,,,,,,,,,,,,763.3036,764.8562,764.8563,765.3151,return,0.0417,,48.95833333,,,,,,FBP-OG-71.png,0.37,1.2,32,0.75,,,,,,,,,,,,,,,,,,0,29,29,31,1,,,,,,,,,,,,,,,,,,,,,,,
,,,,,V3_105,19,F,2025-02-06_14h02.12.037,jersey_experiment_5_v3,2023.2.2,Win32,85.47008547,,,,,,,,,,,,,,,,765.3154,766.6093,766.6093,766.9975,return,0.0623,,49.34895833,,,,,,FBP-RB-81.png,0.4,1.2,53,0.5,,,,,,,,,,,,,,,,,,0,30,30,52,1,,,,,,,,,,,,,,,,,,,,,,,
,,,,,V3_105,19,F,2025-02-06_14h02.12.037,jersey_experiment_5_v3,2023.2.2,Win32,85.47008547,,,,,,,,,,,,,,,,766.9978,768.5509,768.5509,769.1269,return,0.1186,,49.34895833,,,,,,FBP-OG-91.png,0.37,1.2,42,0.75,,,,,,,,,,,,,,,,,,0,31,31,41,1,,,,,,,,,,,,,,,,,,,,,,,
,,,,,V3_105,19,F,2025-02-06_14h02.12.037,jersey_experiment_5_v3,2023.2.2,Win32,85.47008547,,,,,,,,,,,,,,,,769.1272,770.4211,770.4212,771.6684,return,0.2053,,62.36979167,,,,,,FBP-YG-17.png,0.43,1.2,4,0.5,,,,,,,,,,,,,,,,,,0,32,32,3,1,,,,,,,,,,,,,,,,,,,,,,,
,,,,,V3_105,19,F,2025-02-06_14h02.12.037,jersey_experiment_5_v3,2023.2.2,Win32,85.47008547,,,,,,,,,,,,,,,,771.6686,773.2213,773.2213,773.8448,return,0.4518,,69.40104167,,,,,,FBP-OG-71.png,0.43,1.2,34,0.75,,,,,,,,,,,,,,,,,,0,33,33,33,1,,,,,,,,,,,,,,,,,,,,,,,
,,,,,V3_105,19,F,2025-02-06_14h02.12.037,jersey_experiment_5_v3,2023.2.2,Win32,85.47008547,,,,,,,,,,,,,,,,773.845,775.1391,775.1391,775.6566,return,0.1657,,80.59895833,,,,,,FBP-PT-71.png,0.45,1.2,20,0.5,,,,,,,,,,,,,,,,,,0,34,34,19,1,,,,,,,,,,,,,,,,,,,,,,,
,,,,,V3_105,19,F,2025-02-06_14h02.12.037,jersey_experiment_5_v3,2023.2.2,Win32,85.47008547,,,,,,,,,,,,,,,,775.657,776.9508,776.9509,777.5156,return,0.165,,80.59895833,,,,,,FBP-PT-91.png,0.43,1.2,29,0.5,,,,,,,,,,,,,,,,,,0,35,35,28,1,,,,,,,,,,,,,,,,,,,,,,,
,,,,,V3_105,19,F,2025-02-06_14h02.12.037,jersey_experiment_5_v3,2023.2.2,Win32,85.47008547,,,,,,,,,,,,,,,,777.516,778.8098,778.8099,779.7391,return,0.296,,46.09375,,,,,,FBP-YG-19.png,0.4,1.2,13,0.5,,,,,,,,,,,,,,,,,,0,36,36,12,1,,,,,,,,,,,,,,,,,,,,,,,
,,,,,V3_105,19,F,2025-02-06_14h02.12.037,jersey_experiment_5_v3,2023.2.2,Win32,85.47008547,,,,,,,,,,,,,,,,779.7393,781.2921,781.2921,782.1863,return,0.1173,,49.08854167,,,,,,FBP-OG-71.png,0.4,1.2,33,0.75,,,,,,,,,,,,,,,,,,0,37,37,32,1,,,,,,,,,,,,,,,,,,,,,,,
,,,,,V3_105,19,F,2025-02-06_14h02.12.037,jersey_experiment_5_v3,2023.2.2,Win32,85.47008547,,,,,,,,,,,,,,,,782.1867,783.4804,783.4805,784.3629,return,0.0319,,75,,,,,,FBP-PT-81.png,0.45,1.2,25,0.5,,,,,,,,,,,,,,,,,,0,38,38,24,1,,,,,,,,,,,,,,,,,,,,,,,
,,,,,V3_105,19,F,2025-02-06_14h02.12.037,jersey_experiment_5_v3,2023.2.2,Win32,85.47008547,,,,,,,,,,,,,,,,784.3631,785.6571,785.6572,786.3159,return,0.0944,,38.671875,,,,,,FBP-RB-91.png,0.4,1.2,58,0.5,,,,,,,,,,,,,,,,,,0,39,39,57,1,,,,,,,,,,,,,,,,,,,,,,,
,,,,,V3_105,19,F,2025-02-06_14h02.12.037,jersey_experiment_5_v3,2023.2.2,Win32,85.47008547,,,,,,,,,,,,,,,,786.3162,787.6101,787.6101,788.5161,return,0.2291,,46.22395833,,,,,,FBP-YG-17.png,0.4,1.2,3,0.5,,,,,,,,,,,,,,,,,,0,40,40,2,1,,,,,,,,,,,,,,,,,,,,,,,
,,,,,V3_105,19,F,2025-02-06_14h02.12.037,jersey_experiment_5_v3,2023.2.2,Win32,85.47008547,,,,,,,,,,,,,,,,788.5163,790.0691,790.0693,790.9162,return,0.146,,25.390625,,,,,,FBP-OG-71.png,0.35,1.2,31,0.75,,,,,,,,,,,,,,,,,,0,41,41,30,1,,,,,,,,,,,,,,,,,,,,,,,
,,,,,V3_105,19,F,2025-02-06_14h02.12.037,jersey_experiment_5_v3,2023.2.2,Win32,85.47008547,,,,,,,,,,,,,,,,790.9165,792.2104,792.2104,793.8104,return,0.7484,,74.47916667,,,,,,FBP-RB-91.png,0.45,1.2,60,0.5,,,,,,,,,,,,,,,,,,0,42,42,59,1,,,,,,,,,,,,,,,,,,,,,,,
,,,,,V3_105,19,F,2025-02-06_14h02.12.037,jersey_experiment_5_v3,2023.2.2,Win32,85.47008547,,,,,,,,,,,,,,,,793.8106,795.1044,795.1045,795.9396,return,0.1102,,50.91145833,,,,,,FBP-PT-91.png,0.4,1.2,28,0.5,,,,,,,,,,,,,,,,,,0,43,43,27,1,,,,,,,,,,,,,,,,,,,,,,,
,,,,,V3_105,19,F,2025-02-06_14h02.12.037,jersey_experiment_5_v3,2023.2.2,Win32,85.47008547,,,,,,,,,,,,,,,,795.9399,797.2341,797.2343,797.8811,return,0.0466,,36.45833333,,,,,,FBP-YG-17.png,0.35,1.2,1,0.5,,,,,,,,,,,,,,,,,,0,44,44,0,1,,,,,,,,,,,,,,,,,,,,,,,
,,,,,V3_105,19,F,2025-02-06_14h02.12.037,jersey_experiment_5_v3,2023.2.2,Win32,85.47008547,,,,,,,,,,,,,,,,797.8813,799.4341,799.4342,800.3045,return,0.2088,,69.40104167,,,,,,FBP-OG-91.png,0.43,1.2,44,0.75,,,,,,,,,,,,,,,,,,0,45,45,43,1,,,,,,,,,,,,,,,,,,,,,,,
,,,,,V3_105,19,F,2025-02-06_14h02.12.037,jersey_experiment_5_v3,2023.2.2,Win32,85.47008547,,,,,,,,,,,,,,,,800.3048,801.8578,801.8579,802.8577,return,0.0578,,26.30208333,,,,,,FBP-OG-81.png,0.35,1.2,36,0.75,,,,,,,,,,,,,,,,,,0,46,46,35,1,,,,,,,,,,,,,,,,,,,,,,,
,,,,,V3_105,19,F,2025-02-06_14h02.12.037,jersey_experiment_5_v3,2023.2.2,Win32,85.47008547,,,,,,,,,,,,,,,,802.858,804.4108,804.4109,805.1754,return,0.1895,,48.30729167,,,,,,FBP-OG-71.png,0.45,1.2,35,0.75,,,,,,,,,,,,,,,,,,0,47,47,34,1,,,,,,,,,,,,,,,,,,,,,,,
,,,,,V3_105,19,F,2025-02-06_14h02.12.037,jersey_experiment_5_v3,2023.2.2,Win32,85.47008547,,,,,,,,,,,,,,,,805.1756,806.4696,806.4697,807.0463,return,0.0976,,31.77083333,,,,,,FBP-RB-81.png,0.35,1.2,51,0.5,,,,,,,,,,,,,,,,,,0,48,48,50,1,,,,,,,,,,,,,,,,,,,,,,,
,,,,,V3_105,19,F,2025-02-06_14h02.12.037,jersey_experiment_5_v3,2023.2.2,Win32,85.47008547,,,,,,,,,,,,,,,,807.0466,808.3403,808.3403,809.0344,return,0.1412,,40.49479167,,,,,,FBP-YG-19.png,0.37,1.2,12,0.5,,,,,,,,,,,,,,,,,,0,49,49,11,1,,,,,,,,,,,,,,,,,,,,,,,
,,,,,V3_105,19,F,2025-02-06_14h02.12.037,jersey_experiment_5_v3,2023.2.2,Win32,85.47008547,,,,,,,,,,,,,,,,809.0347,810.3285,810.3286,810.8815,return,0.0549,,32.16145833,,,,,,FBP-RB-71.png,0.4,1.2,48,0.5,,,,,,,,,,,,,,,,,,0,50,50,47,1,,,,,,,,,,,,,,,,,,,,,,,
,,,,,V3_105,19,F,2025-02-06_14h02.12.037,jersey_experiment_5_v3,2023.2.2,Win32,85.47008547,,,,,,,,,,,,,,,,810.8818,812.4345,812.4346,812.952,return,0.1188,,35.546875,,,,,,FBP-OG-81.png,0.37,1.2,37,0.75,,,,,,,,,,,,,,,,,,0,51,51,36,1,,,,,,,,,,,,,,,,,,,,,,,
,,,,,V3_105,19,F,2025-02-06_14h02.12.037,jersey_experiment_5_v3,2023.2.2,Win32,85.47008547,,,,,,,,,,,,,,,,812.9523,814.5053,814.5053,815.2346,return,0.1334,,59.765625,,,,,,FBP-OG-81.png,0.43,1.2,39,0.75,,,,,,,,,,,,,,,,,,0,52,52,38,1,,,,,,,,,,,,,,,,,,,,,,,
,,,,,V3_105,19,F,2025-02-06_14h02.12.037,jersey_experiment_5_v3,2023.2.2,Win32,85.47008547,,,,,,,,,,,,,,,,815.2349,816.5288,816.5288,817.5876,return,0.4852,,68.88020833,,,,,,FBP-PT-71.png,0.43,1.2,19,0.5,,,,,,,,,,,,,,,,,,0,53,53,18,1,,,,,,,,,,,,,,,,,,,,,,,
,,,,,V3_105,19,F,2025-02-06_14h02.12.037,jersey_experiment_5_v3,2023.2.2,Win32,85.47008547,,,,,,,,,,,,,,,,817.5879,818.8818,818.8819,819.5408,return,0.2035,,82.03125,,,,,,FBP-YG-18.png,0.45,1.2,10,0.5,,,,,,,,,,,,,,,,,,0,54,54,9,1,,,,,,,,,,,,,,,,,,,,,,,
,,,,,V3_105,19,F,2025-02-06_14h02.12.037,jersey_experiment_5_v3,2023.2.2,Win32,85.47008547,,,,,,,,,,,,,,,,819.541,820.8348,820.8349,821.4349,return,0.1409,,78.90625,,,,,,FBP-PT-81.png,0.43,1.2,24,0.5,,,,,,,,,,,,,,,,,,0,55,55,23,1,,,,,,,,,,,,,,,,,,,,,,,
,,,,,V3_105,19,F,2025-02-06_14h02.12.037,jersey_experiment_5_v3,2023.2.2,Win32,85.47008547,,,,,,,,,,,,,,,,821.4352,822.9879,822.988,823.5879,return,0.1937,,79.81770833,,,,,,FBP-OG-81.png,0.45,1.2,40,0.75,,,,,,,,,,,,,,,,,,0,56,56,39,1,,,,,,,,,,,,,,,,,,,,,,,
,,,,,V3_105,19,F,2025-02-06_14h02.12.037,jersey_experiment_5_v3,2023.2.2,Win32,85.47008547,,,,,,,,,,,,,,,,823.5881,825.1409,825.141,825.788,return,0.2582,,75.26041667,,,,,,FBP-OG-81.png,0.4,1.2,38,0.75,,,,,,,,,,,,,,,,,,0,57,57,37,1,,,,,,,,,,,,,,,,,,,,,,,
,,,,,V3_105,19,F,2025-02-06_14h02.12.037,jersey_experiment_5_v3,2023.2.2,Win32,85.47008547,,,,,,,,,,,,,,,,825.7883,827.0822,827.0822,828.1175,return,0.157,,37.23958333,,,,,,FBP-RB-91.png,0.35,1.2,56,0.5,,,,,,,,,,,,,,,,,,0,58,58,55,1,,,,,,,,,,,,,,,,,,,,,,,
,,,,,V3_105,19,F,2025-02-06_14h02.12.037,jersey_experiment_5_v3,2023.2.2,Win32,85.47008547,,,,,,,,,,,,,,,,828.1177,829.4115,829.4117,830.341,return,0.6161,,30.078125,,,,,,FBP-RB-71.png,0.35,1.2,46,0.5,,,,,,,,,,,,,,,,,,0,59,59,45,1,,,,,,,,,,,,,,,,,,,,,,,
,,,,,V3_105,19,F,2025-02-06_14h02.12.037,jersey_experiment_5_v3,2023.2.2,Win32,85.47008547,,,,,,,,,,,,,,,,,,,,,,,,,,,,,,,,,,,,,,,,,,,,,,,,,,,,,,,,830.3413,835.059,return,4.7097,,,,,,,,,,,,,,,,,,,
,,,,,V3_105,19,F,2025-02-06_14h02.12.037,jersey_experiment_5_v3,2023.2.2,Win32,85.47008547,,,,,,,,,,,,,,,,,,,,,,,,,,,,,,,,,,,,,,,,,,,,,,,,,,,,,,,,,,,,,835.0591,840.3534,1,3.6448,return,1.6424,,,,,,,,,,,,
,,,,,V3_105,19,F,2025-02-06_14h02.12.037,jersey_experiment_5_v3,2023.2.2,Win32,85.47008547,,,,,,,,,,,,,,,,,,,,,,,,,,,,,,,,,,,,,,,,,,,,,,,,,,,,,,,,,,,,,,,,,,,,840.3536,932.2049,"I think I started to associate the bright red and darker green with husky players and the bright green and the orange with neutral to slender players. I think the study could be about how we perceive and interact with color. I think it could also evaluate bias, because the players also had different skin tones.",right,77.4934,,,,,,
,,,,,V3_105,19,F,2025-02-06_14h02.12.037,jersey_experiment_5_v3,2023.2.2,Win32,85.47008547,,,,,,,,,,,,,,,,,,,,,,,,,,,,,,,,,,,,,,,,,,,,,,,,,,,,,,,,,,,,,,,,,,,,,,,,,,932.205,935.9099,return,3.694,