requirements.started,requirements.stopped,key_resp_3.keys,key_resp_3.rt,key_resp_3.duration,Subject ID,Age,Gender,date,expName,psychopyVersion,OS,frameRate,instructions1.started,instructions1.stopped,key_resp.keys,key_resp.rt,key_resp.duration,example.started,example.stopped,enter_2.keys,enter_2.rt,enter_2.duration,instructions2.started,instructions2.stopped,enter_3.keys,enter_3.rt,enter_3.duration,image.started,image.stopped,slider_2.started,slider_2.stopped,next.keys,next.rt,next.duration,slider.response,trial_block_1.thisRepN,trial_block_1.thisTrialN,trial_block_1.thisN,trial_block_1.thisIndex,trial_block_1.ran,Path,Width,Height,Index,Duration,trial_block_2.thisRepN,trial_block_2.thisTrialN,trial_block_2.thisN,trial_block_2.thisIndex,trial_block_2.ran,rest_break.started,rest_break.stopped,end_break.started,end_break.stopped,key_resp_5.keys,key_resp_5.rt,key_resp_5.duration,trial_block_3.thisRepN,trial_block_3.thisTrialN,trial_block_3.thisN,trial_block_3.thisIndex,trial_block_3.ran,trial_block_4.thisRepN,trial_block_4.thisTrialN,trial_block_4.thisN,trial_block_4.thisIndex,trial_block_4.ran,questions_intro.started,questions_intro.stopped,enter_12.keys,enter_12.rt,enter_12.duration,question2.started,question2.stopped,question_doingbest.response,question_doingbest.rt,enter_15.keys,enter_15.rt,enter_15.duration,pattern.started,pattern.stopped,pattern_2.text,enter_17.keys,enter_17.rt,enter_17.duration,thankyou.started,thankyou.stopped,enter_14.keys,enter_14.rt,enter_14.duration
0,6.9141,return,6.9073,,V3_107,18,Female,2025-02-06_14h56.16.845,jersey_experiment_5_v3,2023.2.2,Win32,84.74576271,,,,,,,,,,,,,,,,,,,,,,,,,,,,,,,,,,,,,,,,,,,,,,,,,,,,,,,,,,,,,,,,,,,,,,,,,,,,,,
,,,,,V3_107,18,Female,2025-02-06_14h56.16.845,jersey_experiment_5_v3,2023.2.2,Win32,84.74576271,6.9141,19.5818,return,12.6589,,,,,,,,,,,,,,,,,,,,,,,,,,,,,,,,,,,,,,,,,,,,,,,,,,,,,,,,,,,,,,,,,,,,,,,,,,
,,,,,V3_107,18,Female,2025-02-06_14h56.16.845,jersey_experiment_5_v3,2023.2.2,Win32,84.74576271,,,,,,19.5819,24.7029,return,5.0906,,,,,,,,,,,,,,,,,,,,,,,,,,,,,,,,,,,,,,,,,,,,,,,,,,,,,,,,,,,,,,,,,,,,,
,,,,,V3_107,18,Female,2025-02-06_14h56.16.845,jersey_experiment_5_v3,2023.2.2,Win32,84.74576271,,,,,,,,,,,24.7029,42.1365,return,17.4246,,,,,,,,,,,,,,,,,,,,,,,,,,,,,,,,,,,,,,,,,,,,,,,,,,,,,,,,,,,,,,,,
,,,,,V3_107,18,Female,2025-02-06_14h56.16.845,jersey_experiment_5_v3,2023.2.2,Win32,84.74576271,,,,,,,,,,,,,,,,42.1385,43.6857,43.6857,59.3923,return,2.722,,51.43229167,0,0,0,28,1,FBP-PT-19.png,0.43,1.2,29,0.75,,,,,,,,,,,,,,,,,,,,,,,,,,,,,,,,,,,,,,,,,,,,,
,,,,,V3_107,18,Female,2025-02-06_14h56.16.845,jersey_experiment_5_v3,2023.2.2,Win32,84.74576271,,,,,,,,,,,,,,,,59.3926,60.9452,60.9452,64.8042,return,0.7915,,70.05208333,0,1,1,29,1,FBP-PT-19.png,0.45,1.2,30,0.75,,,,,,,,,,,,,,,,,,,,,,,,,,,,,,,,,,,,,,,,,,,,,
,,,,,V3_107,18,Female,2025-02-06_14h56.16.845,jersey_experiment_5_v3,2023.2.2,Win32,84.74576271,,,,,,,,,,,,,,,,64.8045,66.3571,66.3572,71.2278,return,2.3345,,24.609375,0,2,2,11,1,FBP-YG-91.png,0.37,1.2,12,0.75,,,,,,,,,,,,,,,,,,,,,,,,,,,,,,,,,,,,,,,,,,,,,
,,,,,V3_107,18,Female,2025-02-06_14h56.16.845,jersey_experiment_5_v3,2023.2.2,Win32,84.74576271,,,,,,,,,,,,,,,,71.228,72.7809,72.7809,76.4986,return,0.5564,,70.44270833,0,3,3,13,1,FBP-YG-91.png,0.43,1.2,14,0.75,,,,,,,,,,,,,,,,,,,,,,,,,,,,,,,,,,,,,,,,,,,,,
,,,,,V3_107,18,Female,2025-02-06_14h56.16.845,jersey_experiment_5_v3,2023.2.2,Win32,84.74576271,,,,,,,,,,,,,,,,76.4989,77.7928,77.7929,81.2753,return,1.6086,,20.18229167,0,4,4,30,1,FBP-OG-17.png,0.35,1.2,31,0.5,,,,,,,,,,,,,,,,,,,,,,,,,,,,,,,,,,,,,,,,,,,,,
,,,,,V3_107,18,Female,2025-02-06_14h56.16.845,jersey_experiment_5_v3,2023.2.2,Win32,84.74576271,,,,,,,,,,,,,,,,81.2755,82.5695,82.5695,87.0519,return,2.3142,,18.61979167,0,5,5,31,1,FBP-OG-17.png,0.37,1.2,32,0.5,,,,,,,,,,,,,,,,,,,,,,,,,,,,,,,,,,,,,,,,,,,,,
,,,,,V3_107,18,Female,2025-02-06_14h56.16.845,jersey_experiment_5_v3,2023.2.2,Win32,84.74576271,,,,,,,,,,,,,,,,87.0522,88.605,88.605,91.6521,return,0.9535,,10.546875,0,6,6,55,1,FBP-RB-19.png,0.35,1.2,56,0.75,,,,,,,,,,,,,,,,,,,,,,,,,,,,,,,,,,,,,,,,,,,,,
,,,,,V3_107,18,Female,2025-02-06_14h56.16.845,jersey_experiment_5_v3,2023.2.2,Win32,84.74576271,,,,,,,,,,,,,,,,91.6524,93.2051,93.2052,97.6053,return,0.9312,,43.22916667,0,7,7,46,1,FBP-RB-17.png,0.37,1.2,47,0.75,,,,,,,,,,,,,,,,,,,,,,,,,,,,,,,,,,,,,,,,,,,,,
,,,,,V3_107,18,Female,2025-02-06_14h56.16.845,jersey_experiment_5_v3,2023.2.2,Win32,84.74576271,,,,,,,,,,,,,,,,97.6057,99.1583,99.1584,102.2526,return,0.7471,,68.22916667,0,8,8,2,1,FBP-YG-71.png,0.4,1.2,3,0.75,,,,,,,,,,,,,,,,,,,,,,,,,,,,,,,,,,,,,,,,,,,,,
,,,,,V3_107,18,Female,2025-02-06_14h56.16.845,jersey_experiment_5_v3,2023.2.2,Win32,84.74576271,,,,,,,,,,,,,,,,102.2529,103.8055,103.8056,106.2056,return,1.0995,,77.08333333,0,9,9,17,1,FBP-PT-17.png,0.4,1.2,18,0.75,,,,,,,,,,,,,,,,,,,,,,,,,,,,,,,,,,,,,,,,,,,,,
,,,,,V3_107,18,Female,2025-02-06_14h56.16.845,jersey_experiment_5_v3,2023.2.2,Win32,84.74576271,,,,,,,,,,,,,,,,106.2059,107.7587,107.7587,110.8646,return,1.0259,,90.49479167,0,10,10,24,1,FBP-PT-18.png,0.45,1.2,25,0.75,,,,,,,,,,,,,,,,,,,,,,,,,,,,,,,,,,,,,,,,,,,,,
,,,,,V3_107,18,Female,2025-02-06_14h56.16.845,jersey_experiment_5_v3,2023.2.2,Win32,84.74576271,,,,,,,,,,,,,,,,110.8648,112.1587,112.1588,115.2059,return,1.5061,,50.13020833,0,11,11,32,1,FBP-OG-17.png,0.4,1.2,33,0.5,,,,,,,,,,,,,,,,,,,,,,,,,,,,,,,,,,,,,,,,,,,,,
,,,,,V3_107,18,Female,2025-02-06_14h56.16.845,jersey_experiment_5_v3,2023.2.2,Win32,84.74576271,,,,,,,,,,,,,,,,115.2062,116.7589,116.7589,119.3119,return,1.251,,75.13020833,0,12,12,48,1,FBP-RB-17.png,0.43,1.2,49,0.75,,,,,,,,,,,,,,,,,,,,,,,,,,,,,,,,,,,,,,,,,,,,,
,,,,,V3_107,18,Female,2025-02-06_14h56.16.845,jersey_experiment_5_v3,2023.2.2,Win32,84.74576271,,,,,,,,,,,,,,,,119.3122,120.6061,120.6063,123.1473,return,1.3143,,95.703125,0,13,13,44,1,FBP-OG-19.png,0.45,1.2,45,0.5,,,,,,,,,,,,,,,,,,,,,,,,,,,,,,,,,,,,,,,,,,,,,
,,,,,V3_107,18,Female,2025-02-06_14h56.16.845,jersey_experiment_5_v3,2023.2.2,Win32,84.74576271,,,,,,,,,,,,,,,,123.1476,124.7004,124.7004,127.4417,return,0.6024,,31.38020833,0,14,14,26,1,FBP-PT-19.png,0.37,1.2,27,0.75,,,,,,,,,,,,,,,,,,,,,,,,,,,,,,,,,,,,,,,,,,,,,
,,,,,V3_107,18,Female,2025-02-06_14h56.16.845,jersey_experiment_5_v3,2023.2.2,Win32,84.74576271,,,,,,,,,,,,,,,,127.442,128.7358,128.7358,131.3477,return,0.6326,,12.890625,0,15,15,35,1,FBP-OG-18.png,0.35,1.2,36,0.5,,,,,,,,,,,,,,,,,,,,,,,,,,,,,,,,,,,,,,,,,,,,,
,,,,,V3_107,18,Female,2025-02-06_14h56.16.845,jersey_experiment_5_v3,2023.2.2,Win32,84.74576271,,,,,,,,,,,,,,,,131.3479,132.9006,132.9007,137.0891,return,2.9797,,58.59375,0,16,16,27,1,FBP-PT-19.png,0.4,1.2,28,0.75,,,,,,,,,,,,,,,,,,,,,,,,,,,,,,,,,,,,,,,,,,,,,
,,,,,V3_107,18,Female,2025-02-06_14h56.16.845,jersey_experiment_5_v3,2023.2.2,Win32,84.74576271,,,,,,,,,,,,,,,,137.0894,138.6421,138.6421,141.3129,return,0.9446,,79.6875,0,17,17,23,1,FBP-PT-18.png,0.43,1.2,24,0.75,,,,,,,,,,,,,,,,,,,,,,,,,,,,,,,,,,,,,,,,,,,,,
,,,,,V3_107,18,Female,2025-02-06_14h56.16.845,jersey_experiment_5_v3,2023.2.2,Win32,84.74576271,,,,,,,,,,,,,,,,141.3132,142.8659,142.866,146.6541,return,0.9354,,94.53125,0,18,18,54,1,FBP-RB-18.png,0.45,1.2,55,0.75,,,,,,,,,,,,,,,,,,,,,,,,,,,,,,,,,,,,,,,,,,,,,
,,,,,V3_107,18,Female,2025-02-06_14h56.16.845,jersey_experiment_5_v3,2023.2.2,Win32,84.74576271,,,,,,,,,,,,,,,,146.6544,148.2072,148.2072,151.5368,return,1.333,,99.73958333,0,19,19,9,1,FBP-YG-81.png,0.45,1.2,10,0.75,,,,,,,,,,,,,,,,,,,,,,,,,,,,,,,,,,,,,,,,,,,,,
,,,,,V3_107,18,Female,2025-02-06_14h56.16.845,jersey_experiment_5_v3,2023.2.2,Win32,84.74576271,,,,,,,,,,,,,,,,151.5372,153.0899,153.0899,159.0781,return,4.7873,,72.65625,0,20,20,53,1,FBP-RB-18.png,0.43,1.2,54,0.75,,,,,,,,,,,,,,,,,,,,,,,,,,,,,,,,,,,,,,,,,,,,,
,,,,,V3_107,18,Female,2025-02-06_14h56.16.845,jersey_experiment_5_v3,2023.2.2,Win32,84.74576271,,,,,,,,,,,,,,,,159.0785,160.6311,160.6312,163.1372,return,1.332,,80.33854167,0,21,21,58,1,FBP-RB-19.png,0.43,1.2,59,0.75,,,,,,,,,,,,,,,,,,,,,,,,,,,,,,,,,,,,,,,,,,,,,
,,,,,V3_107,18,Female,2025-02-06_14h56.16.845,jersey_experiment_5_v3,2023.2.2,Win32,84.74576271,,,,,,,,,,,,,,,,163.1374,164.6901,164.6902,167.0077,return,0.7811,,41.27604167,0,22,22,57,1,FBP-RB-19.png,0.4,1.2,58,0.75,,,,,,,,,,,,,,,,,,,,,,,,,,,,,,,,,,,,,,,,,,,,,
,,,,,V3_107,18,Female,2025-02-06_14h56.16.845,jersey_experiment_5_v3,2023.2.2,Win32,84.74576271,,,,,,,,,,,,,,,,167.008,168.5609,168.561,171.4198,return,1.3848,,24.47916667,0,23,23,21,1,FBP-PT-18.png,0.37,1.2,22,0.75,,,,,,,,,,,,,,,,,,,,,,,,,,,,,,,,,,,,,,,,,,,,,
,,,,,V3_107,18,Female,2025-02-06_14h56.16.845,jersey_experiment_5_v3,2023.2.2,Win32,84.74576271,,,,,,,,,,,,,,,,171.42,172.9613,172.9613,176.22,return,2.1613,,83.984375,0,24,24,19,1,FBP-PT-17.png,0.45,1.2,20,0.75,,,,,,,,,,,,,,,,,,,,,,,,,,,,,,,,,,,,,,,,,,,,,
,,,,,V3_107,18,Female,2025-02-06_14h56.16.845,jersey_experiment_5_v3,2023.2.2,Win32,84.74576271,,,,,,,,,,,,,,,,176.2202,177.7729,177.773,180.1729,return,0.5131,,96.484375,0,25,25,4,1,FBP-YG-71.png,0.45,1.2,5,0.75,,,,,,,,,,,,,,,,,,,,,,,,,,,,,,,,,,,,,,,,,,,,,
,,,,,V3_107,18,Female,2025-02-06_14h56.16.845,jersey_experiment_5_v3,2023.2.2,Win32,84.74576271,,,,,,,,,,,,,,,,180.1732,181.7262,181.7262,184.2556,return,1.134,,15.75520833,0,26,26,1,1,FBP-YG-71.png,0.37,1.2,2,0.75,,,,,,,,,,,,,,,,,,,,,,,,,,,,,,,,,,,,,,,,,,,,,
,,,,,V3_107,18,Female,2025-02-06_14h56.16.845,jersey_experiment_5_v3,2023.2.2,Win32,84.74576271,,,,,,,,,,,,,,,,184.2559,185.8086,185.8086,188.3263,return,1.3648,,50.65104167,0,27,27,52,1,FBP-RB-18.png,0.4,1.2,53,0.75,,,,,,,,,,,,,,,,,,,,,,,,,,,,,,,,,,,,,,,,,,,,,
,,,,,V3_107,18,Female,2025-02-06_14h56.16.845,jersey_experiment_5_v3,2023.2.2,Win32,84.74576271,,,,,,,,,,,,,,,,188.3265,189.8794,189.8795,191.7499,return,0.7431,,11.19791667,0,28,28,45,1,FBP-RB-17.png,0.35,1.2,46,0.75,,,,,,,,,,,,,,,,,,,,,,,,,,,,,,,,,,,,,,,,,,,,,
,,,,,V3_107,18,Female,2025-02-06_14h56.16.845,jersey_experiment_5_v3,2023.2.2,Win32,84.74576271,,,,,,,,,,,,,,,,191.7502,193.044,193.0442,196.209,return,1.5418,,18.359375,0,29,29,36,1,FBP-OG-18.png,0.37,1.2,37,0.5,,,,,,,,,,,,,,,,,,,,,,,,,,,,,,,,,,,,,,,,,,,,,
,,,,,V3_107,18,Female,2025-02-06_14h56.16.845,jersey_experiment_5_v3,2023.2.2,Win32,84.74576271,,,,,,,,,,,,,,,,196.2091,197.762,197.7621,201.0089,return,0.8266,,17.31770833,0,30,30,6,1,FBP-YG-81.png,0.37,1.2,7,0.75,,,,,,,,,,,,,,,,,,,,,,,,,,,,,,,,,,,,,,,,,,,,,
,,,,,V3_107,18,Female,2025-02-06_14h56.16.845,jersey_experiment_5_v3,2023.2.2,Win32,84.74576271,,,,,,,,,,,,,,,,201.0092,202.5506,202.5506,204.8799,return,0.7541,,12.63020833,0,31,31,5,1,FBP-YG-81.png,0.35,1.2,6,0.75,,,,,,,,,,,,,,,,,,,,,,,,,,,,,,,,,,,,,,,,,,,,,
,,,,,V3_107,18,Female,2025-02-06_14h56.16.845,jersey_experiment_5_v3,2023.2.2,Win32,84.74576271,,,,,,,,,,,,,,,,204.8802,206.421,206.4211,217.8567,return,0.9681,,2.864583333,0,32,32,10,1,FBP-YG-91.png,0.35,1.2,11,0.75,,,,,,,,,,,,,,,,,,,,,,,,,,,,,,,,,,,,,,,,,,,,,
,,,,,V3_107,18,Female,2025-02-06_14h56.16.845,jersey_experiment_5_v3,2023.2.2,Win32,84.74576271,,,,,,,,,,,,,,,,217.8571,219.4099,219.4099,221.0923,return,0.5668,,0.260416667,0,33,33,0,1,FBP-YG-71.png,0.35,1.2,1,0.75,,,,,,,,,,,,,,,,,,,,,,,,,,,,,,,,,,,,,,,,,,,,,
,,,,,V3_107,18,Female,2025-02-06_14h56.16.845,jersey_experiment_5_v3,2023.2.2,Win32,84.74576271,,,,,,,,,,,,,,,,221.0925,222.3864,222.3864,224.9158,return,0.5654,,64.0625,0,34,34,42,1,FBP-OG-19.png,0.4,1.2,43,0.5,,,,,,,,,,,,,,,,,,,,,,,,,,,,,,,,,,,,,,,,,,,,,
,,,,,V3_107,18,Female,2025-02-06_14h56.16.845,jersey_experiment_5_v3,2023.2.2,Win32,84.74576271,,,,,,,,,,,,,,,,224.9161,226.4688,226.4688,229.0926,return,1.7077,,72.91666667,0,35,35,47,1,FBP-RB-17.png,0.4,1.2,48,0.75,,,,,,,,,,,,,,,,,,,,,,,,,,,,,,,,,,,,,,,,,,,,,
,,,,,V3_107,18,Female,2025-02-06_14h56.16.845,jersey_experiment_5_v3,2023.2.2,Win32,84.74576271,,,,,,,,,,,,,,,,229.0928,230.6455,230.6455,234.3398,return,1.9913,,47.39583333,0,36,36,51,1,FBP-RB-18.png,0.37,1.2,52,0.75,,,,,,,,,,,,,,,,,,,,,,,,,,,,,,,,,,,,,,,,,,,,,
,,,,,V3_107,18,Female,2025-02-06_14h56.16.845,jersey_experiment_5_v3,2023.2.2,Win32,84.74576271,,,,,,,,,,,,,,,,234.34,235.8927,235.8928,237.8575,return,0.6949,,44.921875,0,37,37,16,1,FBP-PT-17.png,0.37,1.2,17,0.75,,,,,,,,,,,,,,,,,,,,,,,,,,,,,,,,,,,,,,,,,,,,,
,,,,,V3_107,18,Female,2025-02-06_14h56.16.845,jersey_experiment_5_v3,2023.2.2,Win32,84.74576271,,,,,,,,,,,,,,,,237.8577,239.1518,239.1518,241.9989,return,0.7924,,83.07291667,0,38,38,34,1,FBP-OG-17.png,0.45,1.2,35,0.5,,,,,,,,,,,,,,,,,,,,,,,,,,,,,,,,,,,,,,,,,,,,,
,,,,,V3_107,18,Female,2025-02-06_14h56.16.845,jersey_experiment_5_v3,2023.2.2,Win32,84.74576271,,,,,,,,,,,,,,,,241.9992,243.5519,243.552,245.9048,return,0.3798,,52.21354167,0,39,39,22,1,FBP-PT-18.png,0.4,1.2,23,0.75,,,,,,,,,,,,,,,,,,,,,,,,,,,,,,,,,,,,,,,,,,,,,
,,,,,V3_107,18,Female,2025-02-06_14h56.16.845,jersey_experiment_5_v3,2023.2.2,Win32,84.74576271,,,,,,,,,,,,,,,,245.9051,247.4579,247.458,249.6932,return,0.9483,,24.86979167,0,40,40,25,1,FBP-PT-19.png,0.35,1.2,26,0.75,,,,,,,,,,,,,,,,,,,,,,,,,,,,,,,,,,,,,,,,,,,,,
,,,,,V3_107,18,Female,2025-02-06_14h56.16.845,jersey_experiment_5_v3,2023.2.2,Win32,84.74576271,,,,,,,,,,,,,,,,249.6933,251.235,251.2351,253.5995,return,0.8625,,91.14583333,0,41,41,49,1,FBP-RB-17.png,0.45,1.2,50,0.75,,,,,,,,,,,,,,,,,,,,,,,,,,,,,,,,,,,,,,,,,,,,,
,,,,,V3_107,18,Female,2025-02-06_14h56.16.845,jersey_experiment_5_v3,2023.2.2,Win32,84.74576271,,,,,,,,,,,,,,,,253.5998,255.1524,255.1525,256.9405,return,0.6431,,97.39583333,0,42,42,18,1,FBP-PT-17.png,0.43,1.2,19,0.75,,,,,,,,,,,,,,,,,,,,,,,,,,,,,,,,,,,,,,,,,,,,,
,,,,,V3_107,18,Female,2025-02-06_14h56.16.845,jersey_experiment_5_v3,2023.2.2,Win32,84.74576271,,,,,,,,,,,,,,,,256.9408,258.235,258.2351,260.7879,return,0.907,,36.19791667,0,43,43,37,1,FBP-OG-18.png,0.4,1.2,38,0.5,,,,,,,,,,,,,,,,,,,,,,,,,,,,,,,,,,,,,,,,,,,,,
,,,,,V3_107,18,Female,2025-02-06_14h56.16.845,jersey_experiment_5_v3,2023.2.2,Win32,84.74576271,,,,,,,,,,,,,,,,260.788,262.082,262.082,264.7174,return,0.7952,,79.6875,0,44,44,38,1,FBP-OG-18.png,0.43,1.2,39,0.5,,,,,,,,,,,,,,,,,,,,,,,,,,,,,,,,,,,,,,,,,,,,,
,,,,,V3_107,18,Female,2025-02-06_14h56.16.845,jersey_experiment_5_v3,2023.2.2,Win32,84.74576271,,,,,,,,,,,,,,,,264.7176,266.2703,266.2704,269.5176,return,2.1684,,92.05729167,0,45,45,14,1,FBP-YG-91.png,0.45,1.2,15,0.75,,,,,,,,,,,,,,,,,,,,,,,,,,,,,,,,,,,,,,,,,,,,,
,,,,,V3_107,18,Female,2025-02-06_14h56.16.845,jersey_experiment_5_v3,2023.2.2,Win32,84.74576271,,,,,,,,,,,,,,,,269.5179,270.8117,270.8118,273.4588,return,0.6454,,77.99479167,0,46,46,33,1,FBP-OG-17.png,0.43,1.2,34,0.5,,,,,,,,,,,,,,,,,,,,,,,,,,,,,,,,,,,,,,,,,,,,,
,,,,,V3_107,18,Female,2025-02-06_14h56.16.845,jersey_experiment_5_v3,2023.2.2,Win32,84.74576271,,,,,,,,,,,,,,,,273.4592,275.0119,275.0119,277.7179,return,0.9421,,10.28645833,0,47,47,12,1,FBP-YG-91.png,0.4,1.2,13,0.75,,,,,,,,,,,,,,,,,,,,,,,,,,,,,,,,,,,,,,,,,,,,,
,,,,,V3_107,18,Female,2025-02-06_14h56.16.845,jersey_experiment_5_v3,2023.2.2,Win32,84.74576271,,,,,,,,,,,,,,,,277.7182,279.2707,279.2708,282.3533,return,0.1204,,1.041666667,0,48,48,50,1,FBP-RB-18.png,0.35,1.2,51,0.75,,,,,,,,,,,,,,,,,,,,,,,,,,,,,,,,,,,,,,,,,,,,,
,,,,,V3_107,18,Female,2025-02-06_14h56.16.845,jersey_experiment_5_v3,2023.2.2,Win32,84.74576271,,,,,,,,,,,,,,,,282.3536,283.9064,283.9065,285.7416,return,0.524,,81.11979167,0,49,49,3,1,FBP-YG-71.png,0.43,1.2,4,0.75,,,,,,,,,,,,,,,,,,,,,,,,,,,,,,,,,,,,,,,,,,,,,
,,,,,V3_107,18,Female,2025-02-06_14h56.16.845,jersey_experiment_5_v3,2023.2.2,Win32,84.74576271,,,,,,,,,,,,,,,,285.7418,287.2947,287.2947,291.142,return,2.5812,,43.61979167,0,50,50,7,1,FBP-YG-81.png,0.4,1.2,8,0.75,,,,,,,,,,,,,,,,,,,,,,,,,,,,,,,,,,,,,,,,,,,,,
,,,,,V3_107,18,Female,2025-02-06_14h56.16.845,jersey_experiment_5_v3,2023.2.2,Win32,84.74576271,,,,,,,,,,,,,,,,291.1423,292.695,292.695,294.7539,return,0.5067,,83.85416667,0,51,51,8,1,FBP-YG-81.png,0.43,1.2,9,0.75,,,,,,,,,,,,,,,,,,,,,,,,,,,,,,,,,,,,,,,,,,,,,
,,,,,V3_107,18,Female,2025-02-06_14h56.16.845,jersey_experiment_5_v3,2023.2.2,Win32,84.74576271,,,,,,,,,,,,,,,,294.7541,296.048,296.048,298.6716,return,1.0623,,95.44270833,0,52,52,39,1,FBP-OG-18.png,0.45,1.2,40,0.5,,,,,,,,,,,,,,,,,,,,,,,,,,,,,,,,,,,,,,,,,,,,,
,,,,,V3_107,18,Female,2025-02-06_14h56.16.845,jersey_experiment_5_v3,2023.2.2,Win32,84.74576271,,,,,,,,,,,,,,,,298.6719,300.2246,300.2246,302.0837,return,0.7076,,13.15104167,0,53,53,56,1,FBP-RB-19.png,0.37,1.2,57,0.75,,,,,,,,,,,,,,,,,,,,,,,,,,,,,,,,,,,,,,,,,,,,,
,,,,,V3_107,18,Female,2025-02-06_14h56.16.845,jersey_experiment_5_v3,2023.2.2,Win32,84.74576271,,,,,,,,,,,,,,,,302.084,303.3775,303.3775,308.766,return,0.2063,,0.78125,0,54,54,40,1,FBP-OG-19.png,0.35,1.2,41,0.5,,,,,,,,,,,,,,,,,,,,,,,,,,,,,,,,,,,,,,,,,,,,,
,,,,,V3_107,18,Female,2025-02-06_14h56.16.845,jersey_experiment_5_v3,2023.2.2,Win32,84.74576271,,,,,,,,,,,,,,,,308.7663,310.3189,310.319,316.7076,return,0.5887,,1.041666667,0,55,55,20,1,FBP-PT-18.png,0.35,1.2,21,0.75,,,,,,,,,,,,,,,,,,,,,,,,,,,,,,,,,,,,,,,,,,,,,
,,,,,V3_107,18,Female,2025-02-06_14h56.16.845,jersey_experiment_5_v3,2023.2.2,Win32,84.74576271,,,,,,,,,,,,,,,,316.7079,318.0018,318.0018,321.4724,return,1.3213,,28.64583333,0,56,56,41,1,FBP-OG-19.png,0.37,1.2,42,0.5,,,,,,,,,,,,,,,,,,,,,,,,,,,,,,,,,,,,,,,,,,,,,
,,,,,V3_107,18,Female,2025-02-06_14h56.16.845,jersey_experiment_5_v3,2023.2.2,Win32,84.74576271,,,,,,,,,,,,,,,,321.4726,323.0255,323.0256,324.6372,return,0.5952,,16.40625,0,57,57,15,1,FBP-PT-17.png,0.35,1.2,16,0.75,,,,,,,,,,,,,,,,,,,,,,,,,,,,,,,,,,,,,,,,,,,,,
,,,,,V3_107,18,Female,2025-02-06_14h56.16.845,jersey_experiment_5_v3,2023.2.2,Win32,84.74576271,,,,,,,,,,,,,,,,324.6374,325.9315,325.9315,328.4608,return,0.3485,,80.20833333,0,58,58,43,1,FBP-OG-19.png,0.43,1.2,44,0.5,,,,,,,,,,,,,,,,,,,,,,,,,,,,,,,,,,,,,,,,,,,,,
,,,,,V3_107,18,Female,2025-02-06_14h56.16.845,jersey_experiment_5_v3,2023.2.2,Win32,84.74576271,,,,,,,,,,,,,,,,328.4612,330.0137,330.0138,331.6609,return,0.5238,,100,0,59,59,59,1,FBP-RB-19.png,0.45,1.2,60,0.75,,,,,,,,,,,,,,,,,,,,,,,,,,,,,,,,,,,,,,,,,,,,,
,,,,,V3_107,18,Female,2025-02-06_14h56.16.845,jersey_experiment_5_v3,2023.2.2,Win32,84.74576271,,,,,,,,,,,,,,,,331.6634,333.214,333.2141,335.3906,return,0.4057,,66.015625,,,,,,FBP-PT-71.png,0.4,1.2,18,0.75,0,0,0,17,1,,,,,,,,,,,,,,,,,,,,,,,,,,,,,,,,,,,,,,,,
,,,,,V3_107,18,Female,2025-02-06_14h56.16.845,jersey_experiment_5_v3,2023.2.2,Win32,84.74576271,,,,,,,,,,,,,,,,335.3908,336.6846,336.6847,340.0849,return,0.6491,,16.92708333,,,,,,FBP-OG-91.png,0.35,1.2,41,0.5,0,1,1,40,1,,,,,,,,,,,,,,,,,,,,,,,,,,,,,,,,,,,,,,,,
,,,,,V3_107,18,Female,2025-02-06_14h56.16.845,jersey_experiment_5_v3,2023.2.2,Win32,84.74576271,,,,,,,,,,,,,,,,340.0852,341.3789,341.3789,343.379,return,0.7749,,92.44791667,,,,,,FBP-OG-91.png,0.45,1.2,45,0.5,0,2,2,44,1,,,,,,,,,,,,,,,,,,,,,,,,,,,,,,,,,,,,,,,,
,,,,,V3_107,18,Female,2025-02-06_14h56.16.845,jersey_experiment_5_v3,2023.2.2,Win32,84.74576271,,,,,,,,,,,,,,,,343.3793,344.932,344.932,346.5439,return,0.4041,,95.83333333,,,,,,FBP-PT-81.png,0.45,1.2,25,0.75,0,3,3,24,1,,,,,,,,,,,,,,,,,,,,,,,,,,,,,,,,,,,,,,,,
,,,,,V3_107,18,Female,2025-02-06_14h56.16.845,jersey_experiment_5_v3,2023.2.2,Win32,84.74576271,,,,,,,,,,,,,,,,346.5441,347.8383,347.8384,350.2145,return,0.7872,,16.40625,,,,,,FBP-OG-91.png,0.37,1.2,42,0.5,0,4,4,41,1,,,,,,,,,,,,,,,,,,,,,,,,,,,,,,,,,,,,,,,,
,,,,,V3_107,18,Female,2025-02-06_14h56.16.845,jersey_experiment_5_v3,2023.2.2,Win32,84.74576271,,,,,,,,,,,,,,,,350.2148,351.7677,351.7677,354.0855,return,0.9887,,1.953125,,,,,,FBP-YG-19.png,0.35,1.2,11,0.75,0,5,5,10,1,,,,,,,,,,,,,,,,,,,,,,,,,,,,,,,,,,,,,,,,
,,,,,V3_107,18,Female,2025-02-06_14h56.16.845,jersey_experiment_5_v3,2023.2.2,Win32,84.74576271,,,,,,,,,,,,,,,,354.0857,355.6386,355.6386,357.4266,return,0.4925,,97.91666667,,,,,,FBP-PT-71.png,0.45,1.2,20,0.75,0,6,6,19,1,,,,,,,,,,,,,,,,,,,,,,,,,,,,,,,,,,,,,,,,
,,,,,V3_107,18,Female,2025-02-06_14h56.16.845,jersey_experiment_5_v3,2023.2.2,Win32,84.74576271,,,,,,,,,,,,,,,,357.4268,358.9797,358.9797,360.8974,return,0.2853,,97.52604167,,,,,,FBP-RB-81.png,0.43,1.2,54,0.75,0,7,7,53,1,,,,,,,,,,,,,,,,,,,,,,,,,,,,,,,,,,,,,,,,
,,,,,V3_107,18,Female,2025-02-06_14h56.16.845,jersey_experiment_5_v3,2023.2.2,Win32,84.74576271,,,,,,,,,,,,,,,,360.8976,362.4503,362.4504,364.2033,return,0.1377,,98.828125,,,,,,FBP-PT-91.png,0.45,1.2,30,0.75,0,8,8,29,1,,,,,,,,,,,,,,,,,,,,,,,,,,,,,,,,,,,,,,,,
,,,,,V3_107,18,Female,2025-02-06_14h56.16.845,jersey_experiment_5_v3,2023.2.2,Win32,84.74576271,,,,,,,,,,,,,,,,364.2035,365.7566,365.7566,368.0508,return,0.5663,,0.78125,,,,,,FBP-RB-81.png,0.35,1.2,51,0.75,0,9,9,50,1,,,,,,,,,,,,,,,,,,,,,,,,,,,,,,,,,,,,,,,,
,,,,,V3_107,18,Female,2025-02-06_14h56.16.845,jersey_experiment_5_v3,2023.2.2,Win32,84.74576271,,,,,,,,,,,,,,,,368.0511,369.6037,369.6037,371.6977,return,0.2142,,98.95833333,,,,,,FBP-YG-19.png,0.45,1.2,15,0.75,0,10,10,14,1,,,,,,,,,,,,,,,,,,,,,,,,,,,,,,,,,,,,,,,,
,,,,,V3_107,18,Female,2025-02-06_14h56.16.845,jersey_experiment_5_v3,2023.2.2,Win32,84.74576271,,,,,,,,,,,,,,,,371.6979,373.2509,373.2509,375.5334,return,0.6058,,5.859375,,,,,,FBP-YG-17.png,0.37,1.2,2,0.75,0,11,11,1,1,,,,,,,,,,,,,,,,,,,,,,,,,,,,,,,,,,,,,,,,
,,,,,V3_107,18,Female,2025-02-06_14h56.16.845,jersey_experiment_5_v3,2023.2.2,Win32,84.74576271,,,,,,,,,,,,,,,,375.5337,377.0862,377.0863,378.8628,return,0.1923,,2.083333333,,,,,,FBP-PT-71.png,0.35,1.2,16,0.75,0,12,12,15,1,,,,,,,,,,,,,,,,,,,,,,,,,,,,,,,,,,,,,,,,
,,,,,V3_107,18,Female,2025-02-06_14h56.16.845,jersey_experiment_5_v3,2023.2.2,Win32,84.74576271,,,,,,,,,,,,,,,,378.863,380.1571,380.1572,382.7217,return,0.3526,,86.58854167,,,,,,FBP-OG-71.png,0.45,1.2,35,0.5,0,13,13,34,1,,,,,,,,,,,,,,,,,,,,,,,,,,,,,,,,,,,,,,,,
,,,,,V3_107,18,Female,2025-02-06_14h56.16.845,jersey_experiment_5_v3,2023.2.2,Win32,84.74576271,,,,,,,,,,,,,,,,382.722,384.0158,384.0159,386.31,return,0.518,,32.421875,,,,,,FBP-OG-71.png,0.37,1.2,32,0.5,0,14,14,31,1,,,,,,,,,,,,,,,,,,,,,,,,,,,,,,,,,,,,,,,,
,,,,,V3_107,18,Female,2025-02-06_14h56.16.845,jersey_experiment_5_v3,2023.2.2,Win32,84.74576271,,,,,,,,,,,,,,,,386.3102,387.8513,387.8514,390.8277,return,1.2425,,55.59895833,,,,,,FBP-RB-81.png,0.4,1.2,53,0.75,0,15,15,52,1,,,,,,,,,,,,,,,,,,,,,,,,,,,,,,,,,,,,,,,,
,,,,,V3_107,18,Female,2025-02-06_14h56.16.845,jersey_experiment_5_v3,2023.2.2,Win32,84.74576271,,,,,,,,,,,,,,,,390.828,392.3809,392.3809,393.9338,return,0.3462,,62.109375,,,,,,FBP-YG-17.png,0.4,1.2,3,0.75,0,16,16,2,1,,,,,,,,,,,,,,,,,,,,,,,,,,,,,,,,,,,,,,,,
,,,,,V3_107,18,Female,2025-02-06_14h56.16.845,jersey_experiment_5_v3,2023.2.2,Win32,84.74576271,,,,,,,,,,,,,,,,393.9341,395.4869,395.487,397.7575,return,0.2771,,32.55208333,,,,,,FBP-RB-81.png,0.37,1.2,52,0.75,0,17,17,51,1,,,,,,,,,,,,,,,,,,,,,,,,,,,,,,,,,,,,,,,,
,,,,,V3_107,18,Female,2025-02-06_14h56.16.845,jersey_experiment_5_v3,2023.2.2,Win32,84.74576271,,,,,,,,,,,,,,,,397.7577,399.0518,399.0519,400.534,return,0.3426,,77.08333333,,,,,,FBP-OG-91.png,0.43,1.2,44,0.5,0,18,18,43,1,,,,,,,,,,,,,,,,,,,,,,,,,,,,,,,,,,,,,,,,
,,,,,V3_107,18,Female,2025-02-06_14h56.16.845,jersey_experiment_5_v3,2023.2.2,Win32,84.74576271,,,,,,,,,,,,,,,,400.5342,402.0873,402.0873,403.6519,return,0.2671,,27.08333333,,,,,,FBP-PT-81.png,0.35,1.2,21,0.75,0,19,19,20,1,,,,,,,,,,,,,,,,,,,,,,,,,,,,,,,,,,,,,,,,
,,,,,V3_107,18,Female,2025-02-06_14h56.16.845,jersey_experiment_5_v3,2023.2.2,Win32,84.74576271,,,,,,,,,,,,,,,,403.6522,405.2049,405.2049,407.3107,return,0.1582,,32.94270833,,,,,,FBP-PT-71.png,0.37,1.2,17,0.75,0,20,20,16,1,,,,,,,,,,,,,,,,,,,,,,,,,,,,,,,,,,,,,,,,
,,,,,V3_107,18,Female,2025-02-06_14h56.16.845,jersey_experiment_5_v3,2023.2.2,Win32,84.74576271,,,,,,,,,,,,,,,,407.311,408.8639,408.8639,410.7815,return,0.3359,,63.93229167,,,,,,FBP-YG-19.png,0.43,1.2,14,0.75,0,21,21,13,1,,,,,,,,,,,,,,,,,,,,,,,,,,,,,,,,,,,,,,,,
,,,,,V3_107,18,Female,2025-02-06_14h56.16.845,jersey_experiment_5_v3,2023.2.2,Win32,84.74576271,,,,,,,,,,,,,,,,410.7818,412.3345,412.3346,415.0523,return,1.314,,10.15625,,,,,,FBP-YG-17.png,0.35,1.2,1,0.75,0,22,22,0,1,,,,,,,,,,,,,,,,,,,,,,,,,,,,,,,,,,,,,,,,
,,,,,V3_107,18,Female,2025-02-06_14h56.16.845,jersey_experiment_5_v3,2023.2.2,Win32,84.74576271,,,,,,,,,,,,,,,,415.0526,416.6053,416.6054,418.6052,return,0.1438,,51.69270833,,,,,,FBP-RB-71.png,0.4,1.2,48,0.75,0,23,23,47,1,,,,,,,,,,,,,,,,,,,,,,,,,,,,,,,,,,,,,,,,
,,,,,V3_107,18,Female,2025-02-06_14h56.16.845,jersey_experiment_5_v3,2023.2.2,Win32,84.74576271,,,,,,,,,,,,,,,,418.6055,419.8994,419.8994,421.5584,return,0.3296,,63.80208333,,,,,,FBP-OG-71.png,0.4,1.2,33,0.5,0,24,24,32,1,,,,,,,,,,,,,,,,,,,,,,,,,,,,,,,,,,,,,,,,
,,,,,V3_107,18,Female,2025-02-06_14h56.16.845,jersey_experiment_5_v3,2023.2.2,Win32,84.74576271,,,,,,,,,,,,,,,,421.5587,423.1115,423.1115,424.5232,return,0.315,,89.71354167,,,,,,FBP-YG-17.png,0.45,1.2,5,0.75,0,25,25,4,1,,,,,,,,,,,,,,,,,,,,,,,,,,,,,,,,,,,,,,,,
,,,,,V3_107,18,Female,2025-02-06_14h56.16.845,jersey_experiment_5_v3,2023.2.2,Win32,84.74576271,,,,,,,,,,,,,,,,424.5236,425.8173,425.8173,427.5822,return,0.3459,,12.890625,,,,,,FBP-OG-81.png,0.35,1.2,36,0.5,0,26,26,35,1,,,,,,,,,,,,,,,,,,,,,,,,,,,,,,,,,,,,,,,,
,,,,,V3_107,18,Female,2025-02-06_14h56.16.845,jersey_experiment_5_v3,2023.2.2,Win32,84.74576271,,,,,,,,,,,,,,,,427.5825,428.8763,428.8764,430.0644,return,0.2036,,76.82291667,,,,,,FBP-OG-81.png,0.43,1.2,39,0.5,0,27,27,38,1,,,,,,,,,,,,,,,,,,,,,,,,,,,,,,,,,,,,,,,,
,,,,,V3_107,18,Female,2025-02-06_14h56.16.845,jersey_experiment_5_v3,2023.2.2,Win32,84.74576271,,,,,,,,,,,,,,,,430.0648,431.6178,431.6178,434.0764,return,0.2534,,51.82291667,,,,,,FBP-YG-18.png,0.4,1.2,8,0.75,0,28,28,7,1,,,,,,,,,,,,,,,,,,,,,,,,,,,,,,,,,,,,,,,,
,,,,,V3_107,18,Female,2025-02-06_14h56.16.845,jersey_experiment_5_v3,2023.2.2,Win32,84.74576271,,,,,,,,,,,,,,,,434.0767,435.6296,435.6297,437.712,return,1.3102,,25.26041667,,,,,,FBP-RB-91.png,0.35,1.2,56,0.75,0,29,29,55,1,,,,,,,,,,,,,,,,,,,,,,,,,,,,,,,,,,,,,,,,
,,,,,V3_107,18,Female,2025-02-06_14h56.16.845,jersey_experiment_5_v3,2023.2.2,Win32,84.74576271,,,,,,,,,,,,,,,,437.7122,439.2649,439.265,441.7003,return,0.0812,,53.515625,,,,,,FBP-PT-91.png,0.4,1.2,28,0.75,0,30,30,27,1,,,,,,,,,,,,,,,,,,,,,,,,,,,,,,,,,,,,,,,,
,,,,,V3_107,18,Female,2025-02-06_14h56.16.845,jersey_experiment_5_v3,2023.2.2,Win32,84.74576271,,,,,,,,,,,,,,,,441.7007,443.2534,443.2534,444.7241,return,0.6568,,35.67708333,,,,,,FBP-PT-81.png,0.37,1.2,22,0.75,0,31,31,21,1,,,,,,,,,,,,,,,,,,,,,,,,,,,,,,,,,,,,,,,,
,,,,,V3_107,18,Female,2025-02-06_14h56.16.845,jersey_experiment_5_v3,2023.2.2,Win32,84.74576271,,,,,,,,,,,,,,,,444.7245,446.2772,446.2772,447.9475,return,0.4055,,76.953125,,,,,,FBP-RB-71.png,0.43,1.2,49,0.75,0,32,32,48,1,,,,,,,,,,,,,,,,,,,,,,,,,,,,,,,,,,,,,,,,
,,,,,V3_107,18,Female,2025-02-06_14h56.16.845,jersey_experiment_5_v3,2023.2.2,Win32,84.74576271,,,,,,,,,,,,,,,,447.9478,449.5008,449.5008,451.3596,return,0.3223,,12.63020833,,,,,,FBP-PT-91.png,0.35,1.2,26,0.75,0,33,33,25,1,,,,,,,,,,,,,,,,,,,,,,,,,,,,,,,,,,,,,,,,
,,,,,V3_107,18,Female,2025-02-06_14h56.16.845,jersey_experiment_5_v3,2023.2.2,Win32,84.74576271,,,,,,,,,,,,,,,,451.3598,452.6537,452.6538,454.9126,return,0.2845,,31.11979167,,,,,,FBP-OG-81.png,0.4,1.2,38,0.5,0,34,34,37,1,,,,,,,,,,,,,,,,,,,,,,,,,,,,,,,,,,,,,,,,
,,,,,V3_107,18,Female,2025-02-06_14h56.16.845,jersey_experiment_5_v3,2023.2.2,Win32,84.74576271,,,,,,,,,,,,,,,,454.913,456.4656,456.4657,458.8186,return,0.2374,,1.5625,,,,,,FBP-RB-71.png,0.35,1.2,46,0.75,0,35,35,45,1,,,,,,,,,,,,,,,,,,,,,,,,,,,,,,,,,,,,,,,,
,,,,,V3_107,18,Female,2025-02-06_14h56.16.845,jersey_experiment_5_v3,2023.2.2,Win32,84.74576271,,,,,,,,,,,,,,,,458.8188,460.3601,460.3601,462.9482,return,0.7627,,7.552083333,,,,,,FBP-YG-18.png,0.37,1.2,7,0.75,0,36,36,6,1,,,,,,,,,,,,,,,,,,,,,,,,,,,,,,,,,,,,,,,,
,,,,,V3_107,18,Female,2025-02-06_14h56.16.845,jersey_experiment_5_v3,2023.2.2,Win32,84.74576271,,,,,,,,,,,,,,,,462.9484,464.5012,464.5012,466.3248,return,0.4254,,90.36458333,,,,,,FBP-RB-91.png,0.45,1.2,60,0.75,0,37,37,59,1,,,,,,,,,,,,,,,,,,,,,,,,,,,,,,,,,,,,,,,,
,,,,,V3_107,18,Female,2025-02-06_14h56.16.845,jersey_experiment_5_v3,2023.2.2,Win32,84.74576271,,,,,,,,,,,,,,,,466.325,467.6188,467.6189,470.6778,return,1.2366,,66.14583333,,,,,,FBP-OG-91.png,0.4,1.2,43,0.5,0,38,38,42,1,,,,,,,,,,,,,,,,,,,,,,,,,,,,,,,,,,,,,,,,
,,,,,V3_107,18,Female,2025-02-06_14h56.16.845,jersey_experiment_5_v3,2023.2.2,Win32,84.74576271,,,,,,,,,,,,,,,,470.678,472.2308,472.2309,474.5603,return,1.074,,37.76041667,,,,,,FBP-RB-71.png,0.37,1.2,47,0.75,0,39,39,46,1,,,,,,,,,,,,,,,,,,,,,,,,,,,,,,,,,,,,,,,,
,,,,,V3_107,18,Female,2025-02-06_14h56.16.845,jersey_experiment_5_v3,2023.2.2,Win32,84.74576271,,,,,,,,,,,,,,,,474.5606,476.1133,476.1133,478.5487,return,1.2574,,23.828125,,,,,,FBP-YG-19.png,0.37,1.2,12,0.75,0,40,40,11,1,,,,,,,,,,,,,,,,,,,,,,,,,,,,,,,,,,,,,,,,
,,,,,V3_107,18,Female,2025-02-06_14h56.16.845,jersey_experiment_5_v3,2023.2.2,Win32,84.74576271,,,,,,,,,,,,,,,,478.549,479.843,479.843,482.3842,return,0.8038,,87.109375,,,,,,FBP-OG-71.png,0.43,1.2,34,0.5,0,41,41,33,1,,,,,,,,,,,,,,,,,,,,,,,,,,,,,,,,,,,,,,,,
,,,,,V3_107,18,Female,2025-02-06_14h56.16.845,jersey_experiment_5_v3,2023.2.2,Win32,84.74576271,,,,,,,,,,,,,,,,482.3845,483.9372,483.9372,485.9962,return,1.1257,,87.36979167,,,,,,FBP-YG-18.png,0.43,1.2,9,0.75,0,42,42,8,1,,,,,,,,,,,,,,,,,,,,,,,,,,,,,,,,,,,,,,,,
,,,,,V3_107,18,Female,2025-02-06_14h56.16.845,jersey_experiment_5_v3,2023.2.2,Win32,84.74576271,,,,,,,,,,,,,,,,485.9965,487.5491,487.5492,489.8785,return,0.9546,,59.11458333,,,,,,FBP-PT-81.png,0.4,1.2,23,0.75,0,43,43,22,1,,,,,,,,,,,,,,,,,,,,,,,,,,,,,,,,,,,,,,,,
,,,,,V3_107,18,Female,2025-02-06_14h56.16.845,jersey_experiment_5_v3,2023.2.2,Win32,84.74576271,,,,,,,,,,,,,,,,489.8788,491.1727,491.1727,493.4552,return,0.5667,,27.60416667,,,,,,FBP-OG-81.png,0.37,1.2,37,0.5,0,44,44,36,1,,,,,,,,,,,,,,,,,,,,,,,,,,,,,,,,,,,,,,,,
,,,,,V3_107,18,Female,2025-02-06_14h56.16.845,jersey_experiment_5_v3,2023.2.2,Win32,84.74576271,,,,,,,,,,,,,,,,493.4555,495.0081,495.0082,499.1849,return,1.8856,,66.66666667,,,,,,FBP-PT-71.png,0.43,1.2,19,0.75,0,45,45,18,1,,,,,,,,,,,,,,,,,,,,,,,,,,,,,,,,,,,,,,,,
,,,,,V3_107,18,Female,2025-02-06_14h56.16.845,jersey_experiment_5_v3,2023.2.2,Win32,84.74576271,,,,,,,,,,,,,,,,499.1852,500.7376,500.7377,504.8794,return,0.6254,,23.30729167,,,,,,FBP-PT-91.png,0.37,1.2,27,0.75,0,46,46,26,1,,,,,,,,,,,,,,,,,,,,,,,,,,,,,,,,,,,,,,,,
,,,,,V3_107,18,Female,2025-02-06_14h56.16.845,jersey_experiment_5_v3,2023.2.2,Win32,84.74576271,,,,,,,,,,,,,,,,504.8796,506.1732,506.1733,508.9149,return,0.5779,,88.80208333,,,,,,FBP-OG-81.png,0.45,1.2,40,0.5,0,47,47,39,1,,,,,,,,,,,,,,,,,,,,,,,,,,,,,,,,,,,,,,,,
,,,,,V3_107,18,Female,2025-02-06_14h56.16.845,jersey_experiment_5_v3,2023.2.2,Win32,84.74576271,,,,,,,,,,,,,,,,508.9151,510.4677,510.4677,512.4441,return,0.9847,,80.20833333,,,,,,FBP-PT-81.png,0.43,1.2,24,0.75,0,48,48,23,1,,,,,,,,,,,,,,,,,,,,,,,,,,,,,,,,,,,,,,,,
,,,,,V3_107,18,Female,2025-02-06_14h56.16.845,jersey_experiment_5_v3,2023.2.2,Win32,84.74576271,,,,,,,,,,,,,,,,512.4443,513.9972,513.9973,518.2914,return,0.3771,,8.072916667,,,,,,FBP-YG-18.png,0.35,1.2,6,0.75,0,49,49,5,1,,,,,,,,,,,,,,,,,,,,,,,,,,,,,,,,,,,,,,,,
,,,,,V3_107,18,Female,2025-02-06_14h56.16.845,jersey_experiment_5_v3,2023.2.2,Win32,84.74576271,,,,,,,,,,,,,,,,518.2917,519.8444,519.8445,522.9738,return,0.1944,,54.55729167,,,,,,FBP-YG-19.png,0.4,1.2,13,0.75,0,50,50,12,1,,,,,,,,,,,,,,,,,,,,,,,,,,,,,,,,,,,,,,,,
,,,,,V3_107,18,Female,2025-02-06_14h56.16.845,jersey_experiment_5_v3,2023.2.2,Win32,84.74576271,,,,,,,,,,,,,,,,522.9741,524.527,524.527,526.7505,return,0.9689,,93.22916667,,,,,,FBP-RB-81.png,0.45,1.2,55,0.75,0,51,51,54,1,,,,,,,,,,,,,,,,,,,,,,,,,,,,,,,,,,,,,,,,
,,,,,V3_107,18,Female,2025-02-06_14h56.16.845,jersey_experiment_5_v3,2023.2.2,Win32,84.74576271,,,,,,,,,,,,,,,,526.7507,528.3035,528.3036,530.2094,return,0.6815,,92.44791667,,,,,,FBP-PT-91.png,0.43,1.2,29,0.75,0,52,52,28,1,,,,,,,,,,,,,,,,,,,,,,,,,,,,,,,,,,,,,,,,
,,,,,V3_107,18,Female,2025-02-06_14h56.16.845,jersey_experiment_5_v3,2023.2.2,Win32,84.74576271,,,,,,,,,,,,,,,,530.2097,531.7624,531.7626,533.2684,return,0.2599,,79.81770833,,,,,,FBP-YG-17.png,0.43,1.2,4,0.75,0,53,53,3,1,,,,,,,,,,,,,,,,,,,,,,,,,,,,,,,,,,,,,,,,
,,,,,V3_107,18,Female,2025-02-06_14h56.16.845,jersey_experiment_5_v3,2023.2.2,Win32,84.74576271,,,,,,,,,,,,,,,,533.2687,534.8216,534.8217,536.198,return,0.3296,,100,,,,,,FBP-RB-71.png,0.45,1.2,50,0.75,0,54,54,49,1,,,,,,,,,,,,,,,,,,,,,,,,,,,,,,,,,,,,,,,,
,,,,,V3_107,18,Female,2025-02-06_14h56.16.845,jersey_experiment_5_v3,2023.2.2,Win32,84.74576271,,,,,,,,,,,,,,,,536.1983,537.7511,537.7511,539.4569,return,0.1083,,45.703125,,,,,,FBP-RB-91.png,0.4,1.2,58,0.75,0,55,55,57,1,,,,,,,,,,,,,,,,,,,,,,,,,,,,,,,,,,,,,,,,
,,,,,V3_107,18,Female,2025-02-06_14h56.16.845,jersey_experiment_5_v3,2023.2.2,Win32,84.74576271,,,,,,,,,,,,,,,,539.4572,541.0098,541.0098,544.163,return,2.0372,,74.47916667,,,,,,FBP-YG-18.png,0.45,1.2,10,0.75,0,56,56,9,1,,,,,,,,,,,,,,,,,,,,,,,,,,,,,,,,,,,,,,,,
,,,,,V3_107,18,Female,2025-02-06_14h56.16.845,jersey_experiment_5_v3,2023.2.2,Win32,84.74576271,,,,,,,,,,,,,,,,544.1634,545.4569,545.457,547.8456,return,0.3856,,20.57291667,,,,,,FBP-OG-71.png,0.35,1.2,31,0.5,0,57,57,30,1,,,,,,,,,,,,,,,,,,,,,,,,,,,,,,,,,,,,,,,,
,,,,,V3_107,18,Female,2025-02-06_14h56.16.845,jersey_experiment_5_v3,2023.2.2,Win32,84.74576271,,,,,,,,,,,,,,,,547.8459,549.3984,549.3984,551.4573,return,0.4616,,5.078125,,,,,,FBP-RB-91.png,0.37,1.2,57,0.75,0,58,58,56,1,,,,,,,,,,,,,,,,,,,,,,,,,,,,,,,,,,,,,,,,
,,,,,V3_107,18,Female,2025-02-06_14h56.16.845,jersey_experiment_5_v3,2023.2.2,Win32,84.74576271,,,,,,,,,,,,,,,,551.4576,553.0106,553.0106,554.9164,return,0.2591,,67.96875,,,,,,FBP-RB-91.png,0.43,1.2,59,0.75,0,59,59,58,1,,,,,,,,,,,,,,,,,,,,,,,,,,,,,,,,,,,,,,,,
,,,,,V3_107,18,Female,2025-02-06_14h56.16.845,jersey_experiment_5_v3,2023.2.2,Win32,84.74576271,,,,,,,,,,,,,,,,,,,,,,,,,,,,,,,,,,,,,,,554.9167,674.9094,,,,,,,,,,,,,,,,,,,,,,,,,,,,,,,,,,,,,,
,,,,,V3_107,18,Female,2025-02-06_14h56.16.845,jersey_experiment_5_v3,2023.2.2,Win32,84.74576271,,,,,,,,,,,,,,,,,,,,,,,,,,,,,,,,,,,,,,,,,674.9096,681.2977,return,6.375,,,,,,,,,,,,,,,,,,,,,,,,,,,,,,,,,,
,,,,,V3_107,18,Female,2025-02-06_14h56.16.845,jersey_experiment_5_v3,2023.2.2,Win32,84.74576271,,,,,,,,,,,,,,,,681.2993,682.5916,682.5917,685.5564,return,1.5656,,50,,,,,,FBP-RB-17.png,0.4,1.2,48,0.5,,,,,,,,,,,,,0,0,0,47,1,,,,,,,,,,,,,,,,,,,,,,,,,,,,
,,,,,V3_107,18,Female,2025-02-06_14h56.16.845,jersey_experiment_5_v3,2023.2.2,Win32,84.74576271,,,,,,,,,,,,,,,,685.5568,687.1097,687.1097,689.1332,return,0.8895,,64.58333333,,,,,,FBP-OG-17.png,0.43,1.2,34,0.75,,,,,,,,,,,,,0,1,1,33,1,,,,,,,,,,,,,,,,,,,,,,,,,,,,
,,,,,V3_107,18,Female,2025-02-06_14h56.16.845,jersey_experiment_5_v3,2023.2.2,Win32,84.74576271,,,,,,,,,,,,,,,,689.1333,690.427,690.427,692.5919,return,1.0276,,79.6875,,,,,,FBP-YG-71.png,0.45,1.2,5,0.5,,,,,,,,,,,,,0,2,2,4,1,,,,,,,,,,,,,,,,,,,,,,,,,,,,
,,,,,V3_107,18,Female,2025-02-06_14h56.16.845,jersey_experiment_5_v3,2023.2.2,Win32,84.74576271,,,,,,,,,,,,,,,,692.5922,693.886,693.8861,696.3567,return,0.823,,27.60416667,,,,,,FBP-YG-81.png,0.37,1.2,7,0.5,,,,,,,,,,,,,0,3,3,6,1,,,,,,,,,,,,,,,,,,,,,,,,,,,,
,,,,,V3_107,18,Female,2025-02-06_14h56.16.845,jersey_experiment_5_v3,2023.2.2,Win32,84.74576271,,,,,,,,,,,,,,,,696.3571,697.6509,697.6509,700.6039,return,1.1946,,13.28125,,,,,,FBP-RB-17.png,0.37,1.2,47,0.5,,,,,,,,,,,,,0,4,4,46,1,,,,,,,,,,,,,,,,,,,,,,,,,,,,
,,,,,V3_107,18,Female,2025-02-06_14h56.16.845,jersey_experiment_5_v3,2023.2.2,Win32,84.74576271,,,,,,,,,,,,,,,,700.6042,702.1569,702.157,704.6276,return,1.1635,,62.63020833,,,,,,FBP-OG-17.png,0.4,1.2,33,0.75,,,,,,,,,,,,,0,5,5,32,1,,,,,,,,,,,,,,,,,,,,,,,,,,,,
,,,,,V3_107,18,Female,2025-02-06_14h56.16.845,jersey_experiment_5_v3,2023.2.2,Win32,84.74576271,,,,,,,,,,,,,,,,704.6278,705.9218,705.9219,708.3807,return,1.3368,,1.432291667,,,,,,FBP-RB-18.png,0.35,1.2,51,0.5,,,,,,,,,,,,,0,6,6,50,1,,,,,,,,,,,,,,,,,,,,,,,,,,,,
,,,,,V3_107,18,Female,2025-02-06_14h56.16.845,jersey_experiment_5_v3,2023.2.2,Win32,84.74576271,,,,,,,,,,,,,,,,708.381,709.6749,709.675,711.8515,return,0.3957,,51.5625,,,,,,FBP-YG-81.png,0.4,1.2,8,0.5,,,,,,,,,,,,,0,7,7,7,1,,,,,,,,,,,,,,,,,,,,,,,,,,,,
,,,,,V3_107,18,Female,2025-02-06_14h56.16.845,jersey_experiment_5_v3,2023.2.2,Win32,84.74576271,,,,,,,,,,,,,,,,711.8518,713.1456,713.1456,714.8279,return,0.2183,,23.046875,,,,,,FBP-PT-19.png,0.35,1.2,26,0.5,,,,,,,,,,,,,0,8,8,25,1,,,,,,,,,,,,,,,,,,,,,,,,,,,,
,,,,,V3_107,18,Female,2025-02-06_14h56.16.845,jersey_experiment_5_v3,2023.2.2,Win32,84.74576271,,,,,,,,,,,,,,,,714.8282,716.3809,716.3809,718.6282,return,0.1758,,48.046875,,,,,,FBP-OG-19.png,0.37,1.2,42,0.75,,,,,,,,,,,,,0,9,9,41,1,,,,,,,,,,,,,,,,,,,,,,,,,,,,
,,,,,V3_107,18,Female,2025-02-06_14h56.16.845,jersey_experiment_5_v3,2023.2.2,Win32,84.74576271,,,,,,,,,,,,,,,,718.6286,719.9223,719.9224,722.0166,return,0.8034,,79.03645833,,,,,,FBP-PT-18.png,0.45,1.2,25,0.5,,,,,,,,,,,,,0,10,10,24,1,,,,,,,,,,,,,,,,,,,,,,,,,,,,
,,,,,V3_107,18,Female,2025-02-06_14h56.16.845,jersey_experiment_5_v3,2023.2.2,Win32,84.74576271,,,,,,,,,,,,,,,,722.0169,723.5695,723.5696,725.6166,return,0.7563,,28.77604167,,,,,,FBP-OG-17.png,0.35,1.2,31,0.75,,,,,,,,,,,,,0,11,11,30,1,,,,,,,,,,,,,,,,,,,,,,,,,,,,
,,,,,V3_107,18,Female,2025-02-06_14h56.16.845,jersey_experiment_5_v3,2023.2.2,Win32,84.74576271,,,,,,,,,,,,,,,,725.6168,727.1697,727.1697,728.9109,return,0.5931,,88.41145833,,,,,,FBP-OG-19.png,0.45,1.2,45,0.75,,,,,,,,,,,,,0,12,12,44,1,,,,,,,,,,,,,,,,,,,,,,,,,,,,
,,,,,V3_107,18,Female,2025-02-06_14h56.16.845,jersey_experiment_5_v3,2023.2.2,Win32,84.74576271,,,,,,,,,,,,,,,,728.9111,730.205,730.2051,732.2757,return,0.3061,,76.171875,,,,,,FBP-PT-17.png,0.4,1.2,18,0.5,,,,,,,,,,,,,0,13,13,17,1,,,,,,,,,,,,,,,,,,,,,,,,,,,,
,,,,,V3_107,18,Female,2025-02-06_14h56.16.845,jersey_experiment_5_v3,2023.2.2,Win32,84.74576271,,,,,,,,,,,,,,,,732.276,733.8288,733.8289,735.9229,return,0.3869,,74.86979167,,,,,,FBP-OG-19.png,0.4,1.2,43,0.75,,,,,,,,,,,,,0,14,14,42,1,,,,,,,,,,,,,,,,,,,,,,,,,,,,
,,,,,V3_107,18,Female,2025-02-06_14h56.16.845,jersey_experiment_5_v3,2023.2.2,Win32,84.74576271,,,,,,,,,,,,,,,,735.9231,737.2171,737.2171,738.8995,return,0.565,,95.18229167,,,,,,FBP-RB-19.png,0.45,1.2,60,0.5,,,,,,,,,,,,,0,15,15,59,1,,,,,,,,,,,,,,,,,,,,,,,,,,,,
,,,,,V3_107,18,Female,2025-02-06_14h56.16.845,jersey_experiment_5_v3,2023.2.2,Win32,84.74576271,,,,,,,,,,,,,,,,738.8998,740.1937,740.1937,742.6761,return,1.1644,,19.79166667,,,,,,FBP-RB-17.png,0.35,1.2,46,0.5,,,,,,,,,,,,,0,16,16,45,1,,,,,,,,,,,,,,,,,,,,,,,,,,,,
,,,,,V3_107,18,Female,2025-02-06_14h56.16.845,jersey_experiment_5_v3,2023.2.2,Win32,84.74576271,,,,,,,,,,,,,,,,742.6764,743.9702,743.9703,746.4998,return,0.8943,,94.921875,,,,,,FBP-PT-17.png,0.45,1.2,20,0.5,,,,,,,,,,,,,0,17,17,19,1,,,,,,,,,,,,,,,,,,,,,,,,,,,,
,,,,,V3_107,18,Female,2025-02-06_14h56.16.845,jersey_experiment_5_v3,2023.2.2,Win32,84.74576271,,,,,,,,,,,,,,,,746.5,748.053,748.053,750.6058,return,1.4755,,8.59375,,,,,,FBP-OG-17.png,0.37,1.2,32,0.75,,,,,,,,,,,,,0,18,18,31,1,,,,,,,,,,,,,,,,,,,,,,,,,,,,
,,,,,V3_107,18,Female,2025-02-06_14h56.16.845,jersey_experiment_5_v3,2023.2.2,Win32,84.74576271,,,,,,,,,,,,,,,,750.6061,751.9,751.9001,754.5471,return,1.4137,,94.27083333,,,,,,FBP-YG-71.png,0.43,1.2,4,0.5,,,,,,,,,,,,,0,19,19,3,1,,,,,,,,,,,,,,,,,,,,,,,,,,,,
,,,,,V3_107,18,Female,2025-02-06_14h56.16.845,jersey_experiment_5_v3,2023.2.2,Win32,84.74576271,,,,,,,,,,,,,,,,754.5474,755.8413,755.8413,760.2533,return,0.9009,,45.44270833,,,,,,FBP-PT-18.png,0.4,1.2,23,0.5,,,,,,,,,,,,,0,20,20,22,1,,,,,,,,,,,,,,,,,,,,,,,,,,,,
,,,,,V3_107,18,Female,2025-02-06_14h56.16.845,jersey_experiment_5_v3,2023.2.2,Win32,84.74576271,,,,,,,,,,,,,,,,760.2535,761.8063,761.8064,765.2181,return,0.7782,,52.99479167,,,,,,FBP-OG-19.png,0.43,1.2,44,0.75,,,,,,,,,,,,,0,21,21,43,1,,,,,,,,,,,,,,,,,,,,,,,,,,,,
,,,,,V3_107,18,Female,2025-02-06_14h56.16.845,jersey_experiment_5_v3,2023.2.2,Win32,84.74576271,,,,,,,,,,,,,,,,765.2184,766.7711,766.7712,769.077,return,0.9268,,10.15625,,,,,,FBP-OG-18.png,0.35,1.2,36,0.75,,,,,,,,,,,,,0,22,22,35,1,,,,,,,,,,,,,,,,,,,,,,,,,,,,
,,,,,V3_107,18,Female,2025-02-06_14h56.16.845,jersey_experiment_5_v3,2023.2.2,Win32,84.74576271,,,,,,,,,,,,,,,,769.0773,770.3712,770.3713,773.0064,return,0.7347,,70.05208333,,,,,,FBP-YG-91.png,0.43,1.2,14,0.5,,,,,,,,,,,,,0,23,23,13,1,,,,,,,,,,,,,,,,,,,,,,,,,,,,
,,,,,V3_107,18,Female,2025-02-06_14h56.16.845,jersey_experiment_5_v3,2023.2.2,Win32,84.74576271,,,,,,,,,,,,,,,,773.0067,774.301,774.301,776.7478,return,0.1492,,38.28125,,,,,,FBP-PT-17.png,0.37,1.2,17,0.5,,,,,,,,,,,,,0,24,24,16,1,,,,,,,,,,,,,,,,,,,,,,,,,,,,
,,,,,V3_107,18,Female,2025-02-06_14h56.16.845,jersey_experiment_5_v3,2023.2.2,Win32,84.74576271,,,,,,,,,,,,,,,,776.7481,778.0422,778.0423,779.8892,return,0.3074,,76.5625,,,,,,FBP-PT-17.png,0.43,1.2,19,0.5,,,,,,,,,,,,,0,25,25,18,1,,,,,,,,,,,,,,,,,,,,,,,,,,,,
,,,,,V3_107,18,Female,2025-02-06_14h56.16.845,jersey_experiment_5_v3,2023.2.2,Win32,84.74576271,,,,,,,,,,,,,,,,779.8895,781.1834,781.1834,782.9953,return,0.3306,,97.91666667,,,,,,FBP-RB-18.png,0.45,1.2,55,0.5,,,,,,,,,,,,,0,26,26,54,1,,,,,,,,,,,,,,,,,,,,,,,,,,,,
,,,,,V3_107,18,Female,2025-02-06_14h56.16.845,jersey_experiment_5_v3,2023.2.2,Win32,84.74576271,,,,,,,,,,,,,,,,782.9955,784.2893,784.2894,786.2777,return,0.3633,,93.75,,,,,,FBP-YG-91.png,0.45,1.2,15,0.5,,,,,,,,,,,,,0,27,27,14,1,,,,,,,,,,,,,,,,,,,,,,,,,,,,
,,,,,V3_107,18,Female,2025-02-06_14h56.16.845,jersey_experiment_5_v3,2023.2.2,Win32,84.74576271,,,,,,,,,,,,,,,,786.278,787.5722,787.5723,789.3718,return,0.2892,,96.74479167,,,,,,FBP-PT-18.png,0.43,1.2,24,0.5,,,,,,,,,,,,,0,28,28,23,1,,,,,,,,,,,,,,,,,,,,,,,,,,,,
,,,,,V3_107,18,Female,2025-02-06_14h56.16.845,jersey_experiment_5_v3,2023.2.2,Win32,84.74576271,,,,,,,,,,,,,,,,789.372,790.6664,790.6665,792.8666,return,0.3313,,2.864583333,,,,,,FBP-YG-81.png,0.35,1.2,6,0.5,,,,,,,,,,,,,0,29,29,5,1,,,,,,,,,,,,,,,,,,,,,,,,,,,,
,,,,,V3_107,18,Female,2025-02-06_14h56.16.845,jersey_experiment_5_v3,2023.2.2,Win32,84.74576271,,,,,,,,,,,,,,,,792.8668,794.1608,794.1608,796.1958,return,0.3895,,10.9375,,,,,,FBP-PT-19.png,0.37,1.2,27,0.5,,,,,,,,,,,,,0,30,30,26,1,,,,,,,,,,,,,,,,,,,,,,,,,,,,
,,,,,V3_107,18,Female,2025-02-06_14h56.16.845,jersey_experiment_5_v3,2023.2.2,Win32,84.74576271,,,,,,,,,,,,,,,,796.1961,797.4899,797.49,799.9253,return,1.1061,,3.90625,,,,,,FBP-YG-71.png,0.35,1.2,1,0.5,,,,,,,,,,,,,0,31,31,0,1,,,,,,,,,,,,,,,,,,,,,,,,,,,,
,,,,,V3_107,18,Female,2025-02-06_14h56.16.845,jersey_experiment_5_v3,2023.2.2,Win32,84.74576271,,,,,,,,,,,,,,,,799.9257,801.2194,801.2194,803.196,return,0.2201,,27.47395833,,,,,,FBP-RB-19.png,0.4,1.2,58,0.5,,,,,,,,,,,,,0,32,32,57,1,,,,,,,,,,,,,,,,,,,,,,,,,,,,
,,,,,V3_107,18,Female,2025-02-06_14h56.16.845,jersey_experiment_5_v3,2023.2.2,Win32,84.74576271,,,,,,,,,,,,,,,,803.1964,804.4901,804.4901,806.3019,return,0.3463,,9.765625,,,,,,FBP-RB-18.png,0.37,1.2,52,0.5,,,,,,,,,,,,,0,33,33,51,1,,,,,,,,,,,,,,,,,,,,,,,,,,,,
,,,,,V3_107,18,Female,2025-02-06_14h56.16.845,jersey_experiment_5_v3,2023.2.2,Win32,84.74576271,,,,,,,,,,,,,,,,806.3023,807.5962,807.5962,809.1374,return,0.2026,,52.60416667,,,,,,FBP-YG-91.png,0.4,1.2,13,0.5,,,,,,,,,,,,,0,34,34,12,1,,,,,,,,,,,,,,,,,,,,,,,,,,,,
,,,,,V3_107,18,Female,2025-02-06_14h56.16.845,jersey_experiment_5_v3,2023.2.2,Win32,84.74576271,,,,,,,,,,,,,,,,809.1377,810.6904,810.6904,812.7258,return,0.3644,,28.515625,,,,,,FBP-OG-18.png,0.37,1.2,37,0.75,,,,,,,,,,,,,0,35,35,36,1,,,,,,,,,,,,,,,,,,,,,,,,,,,,
,,,,,V3_107,18,Female,2025-02-06_14h56.16.845,jersey_experiment_5_v3,2023.2.2,Win32,84.74576271,,,,,,,,,,,,,,,,812.7261,814.02,814.02,815.7142,return,0.436,,30.46875,,,,,,FBP-YG-91.png,0.37,1.2,12,0.5,,,,,,,,,,,,,0,36,36,11,1,,,,,,,,,,,,,,,,,,,,,,,,,,,,
,,,,,V3_107,18,Female,2025-02-06_14h56.16.845,jersey_experiment_5_v3,2023.2.2,Win32,84.74576271,,,,,,,,,,,,,,,,815.7147,817.0082,817.0082,818.7849,return,0.2746,,16.66666667,,,,,,FBP-PT-17.png,0.35,1.2,16,0.5,,,,,,,,,,,,,0,37,37,15,1,,,,,,,,,,,,,,,,,,,,,,,,,,,,
,,,,,V3_107,18,Female,2025-02-06_14h56.16.845,jersey_experiment_5_v3,2023.2.2,Win32,84.74576271,,,,,,,,,,,,,,,,818.7851,820.0791,820.0791,822.7263,return,0.3623,,36.97916667,,,,,,FBP-RB-19.png,0.37,1.2,57,0.5,,,,,,,,,,,,,0,38,38,56,1,,,,,,,,,,,,,,,,,,,,,,,,,,,,
,,,,,V3_107,18,Female,2025-02-06_14h56.16.845,jersey_experiment_5_v3,2023.2.2,Win32,84.74576271,,,,,,,,,,,,,,,,822.7265,824.0202,824.0202,825.7617,return,0.5286,,49.08854167,,,,,,FBP-PT-18.png,0.37,1.2,22,0.5,,,,,,,,,,,,,0,39,39,21,1,,,,,,,,,,,,,,,,,,,,,,,,,,,,
,,,,,V3_107,18,Female,2025-02-06_14h56.16.845,jersey_experiment_5_v3,2023.2.2,Win32,84.74576271,,,,,,,,,,,,,,,,825.7619,827.3145,827.3146,828.6676,return,0.444,,78.77604167,,,,,,FBP-OG-18.png,0.45,1.2,40,0.75,,,,,,,,,,,,,0,40,40,39,1,,,,,,,,,,,,,,,,,,,,,,,,,,,,
,,,,,V3_107,18,Female,2025-02-06_14h56.16.845,jersey_experiment_5_v3,2023.2.2,Win32,84.74576271,,,,,,,,,,,,,,,,828.6678,830.2205,830.2206,831.7501,return,0.1545,,43.09895833,,,,,,FBP-OG-19.png,0.35,1.2,41,0.75,,,,,,,,,,,,,0,41,41,40,1,,,,,,,,,,,,,,,,,,,,,,,,,,,,
,,,,,V3_107,18,Female,2025-02-06_14h56.16.845,jersey_experiment_5_v3,2023.2.2,Win32,84.74576271,,,,,,,,,,,,,,,,831.7504,833.044,833.0441,835.1853,return,0.2342,,16.796875,,,,,,FBP-RB-19.png,0.35,1.2,56,0.5,,,,,,,,,,,,,0,42,42,55,1,,,,,,,,,,,,,,,,,,,,,,,,,,,,
,,,,,V3_107,18,Female,2025-02-06_14h56.16.845,jersey_experiment_5_v3,2023.2.2,Win32,84.74576271,,,,,,,,,,,,,,,,835.1856,836.7386,836.7386,838.1973,return,0.3062,,81.640625,,,,,,FBP-OG-18.png,0.4,1.2,38,0.75,,,,,,,,,,,,,0,43,43,37,1,,,,,,,,,,,,,,,,,,,,,,,,,,,,
,,,,,V3_107,18,Female,2025-02-06_14h56.16.845,jersey_experiment_5_v3,2023.2.2,Win32,84.74576271,,,,,,,,,,,,,,,,838.1976,839.7504,839.7505,840.774,return,0.3767,,97.65625,,,,,,FBP-OG-18.png,0.43,1.2,39,0.75,,,,,,,,,,,,,0,44,44,38,1,,,,,,,,,,,,,,,,,,,,,,,,,,,,
,,,,,V3_107,18,Female,2025-02-06_14h56.16.845,jersey_experiment_5_v3,2023.2.2,Win32,84.74576271,,,,,,,,,,,,,,,,840.7742,842.0679,842.068,843.6915,return,0.6071,,81.11979167,,,,,,FBP-YG-71.png,0.37,1.2,2,0.5,,,,,,,,,,,,,0,45,45,1,1,,,,,,,,,,,,,,,,,,,,,,,,,,,,
,,,,,V3_107,18,Female,2025-02-06_14h56.16.845,jersey_experiment_5_v3,2023.2.2,Win32,84.74576271,,,,,,,,,,,,,,,,843.6917,844.9857,844.9857,847.1975,return,1.0178,,18.48958333,,,,,,FBP-YG-91.png,0.35,1.2,11,0.5,,,,,,,,,,,,,0,46,46,10,1,,,,,,,,,,,,,,,,,,,,,,,,,,,,
,,,,,V3_107,18,Female,2025-02-06_14h56.16.845,jersey_experiment_5_v3,2023.2.2,Win32,84.74576271,,,,,,,,,,,,,,,,847.1978,848.7505,848.7505,850.3977,return,0.4297,,91.14583333,,,,,,FBP-OG-17.png,0.45,1.2,35,0.75,,,,,,,,,,,,,0,47,47,34,1,,,,,,,,,,,,,,,,,,,,,,,,,,,,
,,,,,V3_107,18,Female,2025-02-06_14h56.16.845,jersey_experiment_5_v3,2023.2.2,Win32,84.74576271,,,,,,,,,,,,,,,,850.3979,851.6919,851.692,856.492,return,0.5021,,55.078125,,,,,,FBP-PT-19.png,0.4,1.2,28,0.5,,,,,,,,,,,,,0,48,48,27,1,,,,,,,,,,,,,,,,,,,,,,,,,,,,
,,,,,V3_107,18,Female,2025-02-06_14h56.16.845,jersey_experiment_5_v3,2023.2.2,Win32,84.74576271,,,,,,,,,,,,,,,,856.4923,857.7864,857.7865,859.3391,return,0.5264,,86.328125,,,,,,FBP-YG-81.png,0.43,1.2,9,0.5,,,,,,,,,,,,,0,49,49,8,1,,,,,,,,,,,,,,,,,,,,,,,,,,,,
,,,,,V3_107,18,Female,2025-02-06_14h56.16.845,jersey_experiment_5_v3,2023.2.2,Win32,84.74576271,,,,,,,,,,,,,,,,859.3393,860.6333,860.6334,862.2686,return,0.6631,,94.79166667,,,,,,FBP-RB-17.png,0.43,1.2,49,0.5,,,,,,,,,,,,,0,50,50,48,1,,,,,,,,,,,,,,,,,,,,,,,,,,,,
,,,,,V3_107,18,Female,2025-02-06_14h56.16.845,jersey_experiment_5_v3,2023.2.2,Win32,84.74576271,,,,,,,,,,,,,,,,862.2689,863.5628,863.5628,866.4336,return,0.0869,,46.35416667,,,,,,FBP-YG-71.png,0.4,1.2,3,0.5,,,,,,,,,,,,,0,51,51,2,1,,,,,,,,,,,,,,,,,,,,,,,,,,,,
,,,,,V3_107,18,Female,2025-02-06_14h56.16.845,jersey_experiment_5_v3,2023.2.2,Win32,84.74576271,,,,,,,,,,,,,,,,866.4339,867.7277,867.7278,869.4926,return,0.3419,,51.04166667,,,,,,FBP-RB-18.png,0.4,1.2,53,0.5,,,,,,,,,,,,,0,52,52,52,1,,,,,,,,,,,,,,,,,,,,,,,,,,,,
,,,,,V3_107,18,Female,2025-02-06_14h56.16.845,jersey_experiment_5_v3,2023.2.2,Win32,84.74576271,,,,,,,,,,,,,,,,869.4929,870.7866,870.7866,872.7044,return,0.8976,,83.33333333,,,,,,FBP-YG-81.png,0.45,1.2,10,0.5,,,,,,,,,,,,,0,53,53,9,1,,,,,,,,,,,,,,,,,,,,,,,,,,,,
,,,,,V3_107,18,Female,2025-02-06_14h56.16.845,jersey_experiment_5_v3,2023.2.2,Win32,84.74576271,,,,,,,,,,,,,,,,872.7047,873.9986,873.9986,875.6693,return,0.5178,,99.08854167,,,,,,FBP-PT-19.png,0.45,1.2,30,0.5,,,,,,,,,,,,,0,54,54,29,1,,,,,,,,,,,,,,,,,,,,,,,,,,,,
,,,,,V3_107,18,Female,2025-02-06_14h56.16.845,jersey_experiment_5_v3,2023.2.2,Win32,84.74576271,,,,,,,,,,,,,,,,875.6696,876.9634,876.9635,878.3045,return,0.1678,,96.09375,,,,,,FBP-PT-19.png,0.43,1.2,29,0.5,,,,,,,,,,,,,0,55,55,28,1,,,,,,,,,,,,,,,,,,,,,,,,,,,,
,,,,,V3_107,18,Female,2025-02-06_14h56.16.845,jersey_experiment_5_v3,2023.2.2,Win32,84.74576271,,,,,,,,,,,,,,,,878.3047,879.599,879.599,881.058,return,0.2008,,10.80729167,,,,,,FBP-PT-18.png,0.35,1.2,21,0.5,,,,,,,,,,,,,0,56,56,20,1,,,,,,,,,,,,,,,,,,,,,,,,,,,,
,,,,,V3_107,18,Female,2025-02-06_14h56.16.845,jersey_experiment_5_v3,2023.2.2,Win32,84.74576271,,,,,,,,,,,,,,,,881.0583,882.3519,882.3519,884.4931,return,0.3701,,67.578125,,,,,,FBP-RB-18.png,0.43,1.2,54,0.5,,,,,,,,,,,,,0,57,57,53,1,,,,,,,,,,,,,,,,,,,,,,,,,,,,
,,,,,V3_107,18,Female,2025-02-06_14h56.16.845,jersey_experiment_5_v3,2023.2.2,Win32,84.74576271,,,,,,,,,,,,,,,,884.4933,885.7872,885.7873,887.5636,return,0.1957,,92.70833333,,,,,,FBP-RB-17.png,0.45,1.2,50,0.5,,,,,,,,,,,,,0,58,58,49,1,,,,,,,,,,,,,,,,,,,,,,,,,,,,
,,,,,V3_107,18,Female,2025-02-06_14h56.16.845,jersey_experiment_5_v3,2023.2.2,Win32,84.74576271,,,,,,,,,,,,,,,,887.5639,888.858,888.8581,891.3168,return,0.3533,,63.28125,,,,,,FBP-RB-19.png,0.43,1.2,59,0.5,,,,,,,,,,,,,0,59,59,58,1,,,,,,,,,,,,,,,,,,,,,,,,,,,,
,,,,,V3_107,18,Female,2025-02-06_14h56.16.845,jersey_experiment_5_v3,2023.2.2,Win32,84.74576271,,,,,,,,,,,,,,,,891.3186,892.6109,892.6109,894.6465,return,0.2824,,30.859375,,,,,,FBP-PT-71.png,0.37,1.2,17,0.5,,,,,,,,,,,,,,,,,,0,0,0,16,1,,,,,,,,,,,,,,,,,,,,,,,
,,,,,V3_107,18,Female,2025-02-06_14h56.16.845,jersey_experiment_5_v3,2023.2.2,Win32,84.74576271,,,,,,,,,,,,,,,,894.6467,895.9406,895.9407,897.4111,return,0.1038,,57.421875,,,,,,FBP-YG-19.png,0.43,1.2,14,0.5,,,,,,,,,,,,,,,,,,0,1,1,13,1,,,,,,,,,,,,,,,,,,,,,,,
,,,,,V3_107,18,Female,2025-02-06_14h56.16.845,jersey_experiment_5_v3,2023.2.2,Win32,84.74576271,,,,,,,,,,,,,,,,897.4113,898.7053,898.7053,900.1173,return,0.0945,,26.43229167,,,,,,FBP-PT-91.png,0.35,1.2,26,0.5,,,,,,,,,,,,,,,,,,0,2,2,25,1,,,,,,,,,,,,,,,,,,,,,,,
,,,,,V3_107,18,Female,2025-02-06_14h56.16.845,jersey_experiment_5_v3,2023.2.2,Win32,84.74576271,,,,,,,,,,,,,,,,900.1176,901.4115,901.4115,903.329,return,1.0261,,9.244791667,,,,,,FBP-RB-81.png,0.35,1.2,51,0.5,,,,,,,,,,,,,,,,,,0,3,3,50,1,,,,,,,,,,,,,,,,,,,,,,,
,,,,,V3_107,18,Female,2025-02-06_14h56.16.845,jersey_experiment_5_v3,2023.2.2,Win32,84.74576271,,,,,,,,,,,,,,,,903.3293,904.8824,904.8824,906.482,return,0.3061,,50.52083333,,,,,,FBP-OG-71.png,0.4,1.2,33,0.75,,,,,,,,,,,,,,,,,,0,4,4,32,1,,,,,,,,,,,,,,,,,,,,,,,
,,,,,V3_107,18,Female,2025-02-06_14h56.16.845,jersey_experiment_5_v3,2023.2.2,Win32,84.74576271,,,,,,,,,,,,,,,,906.4824,907.7762,907.7762,910.1882,return,1.2872,,70.05208333,,,,,,FBP-PT-81.png,0.43,1.2,24,0.5,,,,,,,,,,,,,,,,,,0,5,5,23,1,,,,,,,,,,,,,,,,,,,,,,,
,,,,,V3_107,18,Female,2025-02-06_14h56.16.845,jersey_experiment_5_v3,2023.2.2,Win32,84.74576271,,,,,,,,,,,,,,,,910.1884,911.7411,911.7411,914.494,return,1.7469,,84.89583333,,,,,,FBP-OG-71.png,0.43,1.2,34,0.75,,,,,,,,,,,,,,,,,,0,6,6,33,1,,,,,,,,,,,,,,,,,,,,,,,
,,,,,V3_107,18,Female,2025-02-06_14h56.16.845,jersey_experiment_5_v3,2023.2.2,Win32,84.74576271,,,,,,,,,,,,,,,,914.4943,915.7885,915.7886,917.3298,return,0.0942,,47.265625,,,,,,FBP-YG-18.png,0.4,1.2,8,0.5,,,,,,,,,,,,,,,,,,0,7,7,7,1,,,,,,,,,,,,,,,,,,,,,,,
,,,,,V3_107,18,Female,2025-02-06_14h56.16.845,jersey_experiment_5_v3,2023.2.2,Win32,84.74576271,,,,,,,,,,,,,,,,917.3301,918.6237,918.6237,921.8832,return,0.3389,,63.02083333,,,,,,FBP-YG-19.png,0.4,1.2,13,0.5,,,,,,,,,,,,,,,,,,0,8,8,12,1,,,,,,,,,,,,,,,,,,,,,,,
,,,,,V3_107,18,Female,2025-02-06_14h56.16.845,jersey_experiment_5_v3,2023.2.2,Win32,84.74576271,,,,,,,,,,,,,,,,921.8835,923.4357,923.4357,925.1651,return,0.2772,,32.03125,,,,,,FBP-OG-81.png,0.37,1.2,37,0.75,,,,,,,,,,,,,,,,,,0,9,9,36,1,,,,,,,,,,,,,,,,,,,,,,,
,,,,,V3_107,18,Female,2025-02-06_14h56.16.845,jersey_experiment_5_v3,2023.2.2,Win32,84.74576271,,,,,,,,,,,,,,,,925.1653,926.7185,926.7185,927.8362,return,0.1258,,10.546875,,,,,,FBP-OG-71.png,0.35,1.2,31,0.75,,,,,,,,,,,,,,,,,,0,10,10,30,1,,,,,,,,,,,,,,,,,,,,,,,
,,,,,V3_107,18,Female,2025-02-06_14h56.16.845,jersey_experiment_5_v3,2023.2.2,Win32,84.74576271,,,,,,,,,,,,,,,,927.8366,929.1301,929.1302,930.4477,return,0.1688,,48.95833333,,,,,,FBP-PT-91.png,0.4,1.2,28,0.5,,,,,,,,,,,,,,,,,,0,11,11,27,1,,,,,,,,,,,,,,,,,,,,,,,
,,,,,V3_107,18,Female,2025-02-06_14h56.16.845,jersey_experiment_5_v3,2023.2.2,Win32,84.74576271,,,,,,,,,,,,,,,,930.4479,931.7422,931.7423,933.2361,return,0.3059,,26.5625,,,,,,FBP-RB-91.png,0.37,1.2,57,0.5,,,,,,,,,,,,,,,,,,0,12,12,56,1,,,,,,,,,,,,,,,,,,,,,,,
,,,,,V3_107,18,Female,2025-02-06_14h56.16.845,jersey_experiment_5_v3,2023.2.2,Win32,84.74576271,,,,,,,,,,,,,,,,933.2363,934.7892,934.7892,936.9302,return,1.2384,,83.85416667,,,,,,FBP-OG-91.png,0.45,1.2,45,0.75,,,,,,,,,,,,,,,,,,0,13,13,44,1,,,,,,,,,,,,,,,,,,,,,,,
,,,,,V3_107,18,Female,2025-02-06_14h56.16.845,jersey_experiment_5_v3,2023.2.2,Win32,84.74576271,,,,,,,,,,,,,,,,936.9305,938.4835,938.4836,940.0481,return,0.3669,,97.78645833,,,,,,FBP-OG-81.png,0.45,1.2,40,0.75,,,,,,,,,,,,,,,,,,0,14,14,39,1,,,,,,,,,,,,,,,,,,,,,,,
,,,,,V3_107,18,Female,2025-02-06_14h56.16.845,jersey_experiment_5_v3,2023.2.2,Win32,84.74576271,,,,,,,,,,,,,,,,940.0482,941.3425,941.3425,944.6835,return,1.5953,,87.23958333,,,,,,FBP-PT-91.png,0.45,1.2,30,0.5,,,,,,,,,,,,,,,,,,0,15,15,29,1,,,,,,,,,,,,,,,,,,,,,,,
,,,,,V3_107,18,Female,2025-02-06_14h56.16.845,jersey_experiment_5_v3,2023.2.2,Win32,84.74576271,,,,,,,,,,,,,,,,944.6837,945.9777,945.9777,947.4601,return,0.1882,,70.57291667,,,,,,FBP-PT-71.png,0.43,1.2,19,0.5,,,,,,,,,,,,,,,,,,0,16,16,18,1,,,,,,,,,,,,,,,,,,,,,,,
,,,,,V3_107,18,Female,2025-02-06_14h56.16.845,jersey_experiment_5_v3,2023.2.2,Win32,84.74576271,,,,,,,,,,,,,,,,947.4604,948.7545,948.7545,951.025,return,0.9561,,21.484375,,,,,,FBP-RB-81.png,0.37,1.2,52,0.5,,,,,,,,,,,,,,,,,,0,17,17,51,1,,,,,,,,,,,,,,,,,,,,,,,
,,,,,V3_107,18,Female,2025-02-06_14h56.16.845,jersey_experiment_5_v3,2023.2.2,Win32,84.74576271,,,,,,,,,,,,,,,,951.0252,952.578,952.5781,953.9897,return,0.1165,,1.302083333,,,,,,FBP-OG-91.png,0.35,1.2,41,0.75,,,,,,,,,,,,,,,,,,0,18,18,40,1,,,,,,,,,,,,,,,,,,,,,,,
,,,,,V3_107,18,Female,2025-02-06_14h56.16.845,jersey_experiment_5_v3,2023.2.2,Win32,84.74576271,,,,,,,,,,,,,,,,953.9901,955.2842,955.2842,957.4371,return,0.1248,,2.34375,,,,,,FBP-PT-71.png,0.35,1.2,16,0.5,,,,,,,,,,,,,,,,,,0,19,19,15,1,,,,,,,,,,,,,,,,,,,,,,,
,,,,,V3_107,18,Female,2025-02-06_14h56.16.845,jersey_experiment_5_v3,2023.2.2,Win32,84.74576271,,,,,,,,,,,,,,,,957.4374,958.7311,958.7312,960.8372,return,0.3197,,98.4375,,,,,,FBP-PT-81.png,0.45,1.2,25,0.5,,,,,,,,,,,,,,,,,,0,20,20,24,1,,,,,,,,,,,,,,,,,,,,,,,
,,,,,V3_107,18,Female,2025-02-06_14h56.16.845,jersey_experiment_5_v3,2023.2.2,Win32,84.74576271,,,,,,,,,,,,,,,,960.8375,962.1313,962.1313,964.1078,return,0.1609,,69.01041667,,,,,,FBP-RB-81.png,0.4,1.2,53,0.5,,,,,,,,,,,,,,,,,,0,21,21,52,1,,,,,,,,,,,,,,,,,,,,,,,
,,,,,V3_107,18,Female,2025-02-06_14h56.16.845,jersey_experiment_5_v3,2023.2.2,Win32,84.74576271,,,,,,,,,,,,,,,,964.108,965.4019,965.402,966.8373,return,0.1632,,94.40104167,,,,,,FBP-RB-71.png,0.45,1.2,50,0.5,,,,,,,,,,,,,,,,,,0,22,22,49,1,,,,,,,,,,,,,,,,,,,,,,,
,,,,,V3_107,18,Female,2025-02-06_14h56.16.845,jersey_experiment_5_v3,2023.2.2,Win32,84.74576271,,,,,,,,,,,,,,,,966.8375,968.1314,968.1315,969.7549,return,0.2196,,21.22395833,,,,,,FBP-PT-91.png,0.37,1.2,27,0.5,,,,,,,,,,,,,,,,,,0,23,23,26,1,,,,,,,,,,,,,,,,,,,,,,,
,,,,,V3_107,18,Female,2025-02-06_14h56.16.845,jersey_experiment_5_v3,2023.2.2,Win32,84.74576271,,,,,,,,,,,,,,,,969.7551,971.0491,971.0492,973.0374,return,0.4168,,77.34375,,,,,,FBP-PT-91.png,0.43,1.2,29,0.5,,,,,,,,,,,,,,,,,,0,24,24,28,1,,,,,,,,,,,,,,,,,,,,,,,
,,,,,V3_107,18,Female,2025-02-06_14h56.16.845,jersey_experiment_5_v3,2023.2.2,Win32,84.74576271,,,,,,,,,,,,,,,,973.0377,974.3318,974.3319,976.085,return,0.343,,96.61458333,,,,,,FBP-RB-71.png,0.43,1.2,49,0.5,,,,,,,,,,,,,,,,,,0,25,25,48,1,,,,,,,,,,,,,,,,,,,,,,,
,,,,,V3_107,18,Female,2025-02-06_14h56.16.845,jersey_experiment_5_v3,2023.2.2,Win32,84.74576271,,,,,,,,,,,,,,,,976.0852,977.3788,977.3789,979.2379,return,0.2717,,2.994791667,,,,,,FBP-YG-19.png,0.35,1.2,11,0.5,,,,,,,,,,,,,,,,,,0,26,26,10,1,,,,,,,,,,,,,,,,,,,,,,,
,,,,,V3_107,18,Female,2025-02-06_14h56.16.845,jersey_experiment_5_v3,2023.2.2,Win32,84.74576271,,,,,,,,,,,,,,,,979.2382,980.7908,980.7908,982.7202,return,0.3448,,43.61979167,,,,,,FBP-OG-81.png,0.4,1.2,38,0.75,,,,,,,,,,,,,,,,,,0,27,27,37,1,,,,,,,,,,,,,,,,,,,,,,,
,,,,,V3_107,18,Female,2025-02-06_14h56.16.845,jersey_experiment_5_v3,2023.2.2,Win32,84.74576271,,,,,,,,,,,,,,,,982.7204,984.0143,984.0143,985.4618,return,0.165,,6.640625,,,,,,FBP-RB-91.png,0.35,1.2,56,0.5,,,,,,,,,,,,,,,,,,0,28,28,55,1,,,,,,,,,,,,,,,,,,,,,,,
,,,,,V3_107,18,Female,2025-02-06_14h56.16.845,jersey_experiment_5_v3,2023.2.2,Win32,84.74576271,,,,,,,,,,,,,,,,985.4621,986.7556,986.7557,989.1322,return,0.1339,,37.36979167,,,,,,FBP-YG-18.png,0.37,1.2,7,0.5,,,,,,,,,,,,,,,,,,0,29,29,6,1,,,,,,,,,,,,,,,,,,,,,,,
,,,,,V3_107,18,Female,2025-02-06_14h56.16.845,jersey_experiment_5_v3,2023.2.2,Win32,84.74576271,,,,,,,,,,,,,,,,989.1325,990.4263,990.4264,993.1794,return,1.2669,,12.36979167,,,,,,FBP-RB-71.png,0.35,1.2,46,0.5,,,,,,,,,,,,,,,,,,0,30,30,45,1,,,,,,,,,,,,,,,,,,,,,,,
,,,,,V3_107,18,Female,2025-02-06_14h56.16.845,jersey_experiment_5_v3,2023.2.2,Win32,84.74576271,,,,,,,,,,,,,,,,993.1799,994.4736,994.4738,996.5089,return,0.1363,,71.484375,,,,,,FBP-RB-91.png,0.4,1.2,58,0.5,,,,,,,,,,,,,,,,,,0,31,31,57,1,,,,,,,,,,,,,,,,,,,,,,,
,,,,,V3_107,18,Female,2025-02-06_14h56.16.845,jersey_experiment_5_v3,2023.2.2,Win32,84.74576271,,,,,,,,,,,,,,,,996.5091,997.8035,997.8035,1000.274,return,0.3431,,89.71354167,,,,,,FBP-RB-81.png,0.45,1.2,55,0.5,,,,,,,,,,,,,,,,,,0,32,32,54,1,,,,,,,,,,,,,,,,,,,,,,,
,,,,,V3_107,18,Female,2025-02-06_14h56.16.845,jersey_experiment_5_v3,2023.2.2,Win32,84.74576271,,,,,,,,,,,,,,,,1000.2743,1001.5681,1001.5682,1003.1563,return,0.2591,,62.36979167,,,,,,FBP-PT-71.png,0.4,1.2,18,0.5,,,,,,,,,,,,,,,,,,0,33,33,17,1,,,,,,,,,,,,,,,,,,,,,,,
,,,,,V3_107,18,Female,2025-02-06_14h56.16.845,jersey_experiment_5_v3,2023.2.2,Win32,84.74576271,,,,,,,,,,,,,,,,1003.1566,1004.7094,1004.7094,1006.3564,return,0.6226,,15.625,,,,,,FBP-OG-81.png,0.35,1.2,36,0.75,,,,,,,,,,,,,,,,,,0,34,34,35,1,,,,,,,,,,,,,,,,,,,,,,,
,,,,,V3_107,18,Female,2025-02-06_14h56.16.845,jersey_experiment_5_v3,2023.2.2,Win32,84.74576271,,,,,,,,,,,,,,,,1006.3567,1007.6507,1007.6507,1010.7683,return,0.8621,,74.08854167,,,,,,FBP-YG-18.png,0.43,1.2,9,0.5,,,,,,,,,,,,,,,,,,0,35,35,8,1,,,,,,,,,,,,,,,,,,,,,,,
,,,,,V3_107,18,Female,2025-02-06_14h56.16.845,jersey_experiment_5_v3,2023.2.2,Win32,84.74576271,,,,,,,,,,,,,,,,1010.7685,1012.3213,1012.3214,1013.686,return,0.3287,,77.34375,,,,,,FBP-OG-91.png,0.43,1.2,44,0.75,,,,,,,,,,,,,,,,,,0,36,36,43,1,,,,,,,,,,,,,,,,,,,,,,,
,,,,,V3_107,18,Female,2025-02-06_14h56.16.845,jersey_experiment_5_v3,2023.2.2,Win32,84.74576271,,,,,,,,,,,,,,,,1013.6862,1015.2392,1015.2393,1019.0747,return,2.2723,,30.859375,,,,,,FBP-OG-91.png,0.37,1.2,42,0.75,,,,,,,,,,,,,,,,,,0,37,37,41,1,,,,,,,,,,,,,,,,,,,,,,,
,,,,,V3_107,18,Female,2025-02-06_14h56.16.845,jersey_experiment_5_v3,2023.2.2,Win32,84.74576271,,,,,,,,,,,,,,,,1019.0751,1020.6276,1020.6277,1022.651,return,0.9722,,81.77083333,,,,,,FBP-OG-71.png,0.45,1.2,35,0.75,,,,,,,,,,,,,,,,,,0,38,38,34,1,,,,,,,,,,,,,,,,,,,,,,,
,,,,,V3_107,18,Female,2025-02-06_14h56.16.845,jersey_experiment_5_v3,2023.2.2,Win32,84.74576271,,,,,,,,,,,,,,,,1022.6513,1023.9453,1023.9453,1026.4629,return,0.346,,27.60416667,,,,,,FBP-RB-71.png,0.37,1.2,47,0.5,,,,,,,,,,,,,,,,,,0,39,39,46,1,,,,,,,,,,,,,,,,,,,,,,,
,,,,,V3_107,18,Female,2025-02-06_14h56.16.845,jersey_experiment_5_v3,2023.2.2,Win32,84.74576271,,,,,,,,,,,,,,,,1026.4632,1027.7573,1027.7573,1029.169,return,0.6139,,81.51041667,,,,,,FBP-YG-18.png,0.45,1.2,10,0.5,,,,,,,,,,,,,,,,,,0,40,40,9,1,,,,,,,,,,,,,,,,,,,,,,,
,,,,,V3_107,18,Female,2025-02-06_14h56.16.845,jersey_experiment_5_v3,2023.2.2,Win32,84.74576271,,,,,,,,,,,,,,,,1029.1693,1030.4634,1030.4634,1032.6043,return,0.2877,,18.75,,,,,,FBP-PT-81.png,0.37,1.2,22,0.5,,,,,,,,,,,,,,,,,,0,41,41,21,1,,,,,,,,,,,,,,,,,,,,,,,
,,,,,V3_107,18,Female,2025-02-06_14h56.16.845,jersey_experiment_5_v3,2023.2.2,Win32,84.74576271,,,,,,,,,,,,,,,,1032.6046,1033.8986,1033.8987,1035.5576,return,0.458,,91.14583333,,,,,,FBP-YG-19.png,0.45,1.2,15,0.5,,,,,,,,,,,,,,,,,,0,42,42,14,1,,,,,,,,,,,,,,,,,,,,,,,
,,,,,V3_107,18,Female,2025-02-06_14h56.16.845,jersey_experiment_5_v3,2023.2.2,Win32,84.74576271,,,,,,,,,,,,,,,,1035.5578,1037.1105,1037.1105,1038.4634,return,0.4267,,75.26041667,,,,,,FBP-OG-81.png,0.43,1.2,39,0.75,,,,,,,,,,,,,,,,,,0,43,43,38,1,,,,,,,,,,,,,,,,,,,,,,,
,,,,,V3_107,18,Female,2025-02-06_14h56.16.845,jersey_experiment_5_v3,2023.2.2,Win32,84.74576271,,,,,,,,,,,,,,,,1038.4637,1039.7577,1039.7577,1041.6518,return,0.3621,,86.71875,,,,,,FBP-RB-91.png,0.43,1.2,59,0.5,,,,,,,,,,,,,,,,,,0,44,44,58,1,,,,,,,,,,,,,,,,,,,,,,,
,,,,,V3_107,18,Female,2025-02-06_14h56.16.845,jersey_experiment_5_v3,2023.2.2,Win32,84.74576271,,,,,,,,,,,,,,,,1041.652,1042.9462,1042.9463,1045.4048,return,1.1115,,38.02083333,,,,,,FBP-RB-71.png,0.4,1.2,48,0.5,,,,,,,,,,,,,,,,,,0,45,45,47,1,,,,,,,,,,,,,,,,,,,,,,,
,,,,,V3_107,18,Female,2025-02-06_14h56.16.845,jersey_experiment_5_v3,2023.2.2,Win32,84.74576271,,,,,,,,,,,,,,,,1045.4051,1046.6989,1046.699,1048.0991,return,0.3869,,81.38020833,,,,,,FBP-YG-17.png,0.43,1.2,4,0.5,,,,,,,,,,,,,,,,,,0,46,46,3,1,,,,,,,,,,,,,,,,,,,,,,,
,,,,,V3_107,18,Female,2025-02-06_14h56.16.845,jersey_experiment_5_v3,2023.2.2,Win32,84.74576271,,,,,,,,,,,,,,,,1048.0993,1049.3936,1049.3936,1050.7698,return,0.1784,,22.52604167,,,,,,FBP-YG-17.png,0.37,1.2,2,0.5,,,,,,,,,,,,,,,,,,0,47,47,1,1,,,,,,,,,,,,,,,,,,,,,,,
,,,,,V3_107,18,Female,2025-02-06_14h56.16.845,jersey_experiment_5_v3,2023.2.2,Win32,84.74576271,,,,,,,,,,,,,,,,1050.77,1052.0642,1052.0642,1054.123,return,0.5372,,0.651041667,,,,,,FBP-YG-17.png,0.35,1.2,1,0.5,,,,,,,,,,,,,,,,,,0,48,48,0,1,,,,,,,,,,,,,,,,,,,,,,,
,,,,,V3_107,18,Female,2025-02-06_14h56.16.845,jersey_experiment_5_v3,2023.2.2,Win32,84.74576271,,,,,,,,,,,,,,,,1054.1233,1055.417,1055.4172,1056.8641,return,0.4389,,87.23958333,,,,,,FBP-PT-71.png,0.45,1.2,20,0.5,,,,,,,,,,,,,,,,,,0,49,49,19,1,,,,,,,,,,,,,,,,,,,,,,,
,,,,,V3_107,18,Female,2025-02-06_14h56.16.845,jersey_experiment_5_v3,2023.2.2,Win32,84.74576271,,,,,,,,,,,,,,,,1056.8644,1058.1583,1058.1584,1059.876,return,0.8366,,98.69791667,,,,,,FBP-YG-17.png,0.45,1.2,5,0.5,,,,,,,,,,,,,,,,,,0,50,50,4,1,,,,,,,,,,,,,,,,,,,,,,,
,,,,,V3_107,18,Female,2025-02-06_14h56.16.845,jersey_experiment_5_v3,2023.2.2,Win32,84.74576271,,,,,,,,,,,,,,,,1059.8763,1061.1701,1061.1702,1062.7584,return,0.3399,,78.38541667,,,,,,FBP-RB-91.png,0.45,1.2,60,0.5,,,,,,,,,,,,,,,,,,0,51,51,59,1,,,,,,,,,,,,,,,,,,,,,,,
,,,,,V3_107,18,Female,2025-02-06_14h56.16.845,jersey_experiment_5_v3,2023.2.2,Win32,84.74576271,,,,,,,,,,,,,,,,1062.7587,1064.0525,1064.0527,1069.2059,return,2.0711,,29.03645833,,,,,,FBP-YG-17.png,0.4,1.2,3,0.5,,,,,,,,,,,,,,,,,,0,52,52,2,1,,,,,,,,,,,,,,,,,,,,,,,
,,,,,V3_107,18,Female,2025-02-06_14h56.16.845,jersey_experiment_5_v3,2023.2.2,Win32,84.74576271,,,,,,,,,,,,,,,,1069.2062,1070.7587,1070.7587,1072.194,return,0.3651,,44.140625,,,,,,FBP-OG-91.png,0.4,1.2,43,0.75,,,,,,,,,,,,,,,,,,0,53,53,42,1,,,,,,,,,,,,,,,,,,,,,,,
,,,,,V3_107,18,Female,2025-02-06_14h56.16.845,jersey_experiment_5_v3,2023.2.2,Win32,84.74576271,,,,,,,,,,,,,,,,1072.1942,1073.4883,1073.4884,1075.5471,return,0.3376,,14.71354167,,,,,,FBP-YG-19.png,0.37,1.2,12,0.5,,,,,,,,,,,,,,,,,,0,54,54,11,1,,,,,,,,,,,,,,,,,,,,,,,
,,,,,V3_107,18,Female,2025-02-06_14h56.16.845,jersey_experiment_5_v3,2023.2.2,Win32,84.74576271,,,,,,,,,,,,,,,,1075.5473,1076.8413,1076.8414,1079.7593,return,0.2284,,12.5,,,,,,FBP-PT-81.png,0.35,1.2,21,0.5,,,,,,,,,,,,,,,,,,0,55,55,20,1,,,,,,,,,,,,,,,,,,,,,,,
,,,,,V3_107,18,Female,2025-02-06_14h56.16.845,jersey_experiment_5_v3,2023.2.2,Win32,84.74576271,,,,,,,,,,,,,,,,1079.7596,1081.0532,1081.0533,1082.5593,return,0.426,,2.604166667,,,,,,FBP-YG-18.png,0.35,1.2,6,0.5,,,,,,,,,,,,,,,,,,0,56,56,5,1,,,,,,,,,,,,,,,,,,,,,,,
,,,,,V3_107,18,Female,2025-02-06_14h56.16.845,jersey_experiment_5_v3,2023.2.2,Win32,84.74576271,,,,,,,,,,,,,,,,1082.5596,1084.1122,1084.1122,1085.5006,return,0.1236,,3.515625,,,,,,FBP-OG-71.png,0.37,1.2,32,0.75,,,,,,,,,,,,,,,,,,0,57,57,31,1,,,,,,,,,,,,,,,,,,,,,,,
,,,,,V3_107,18,Female,2025-02-06_14h56.16.845,jersey_experiment_5_v3,2023.2.2,Win32,84.74576271,,,,,,,,,,,,,,,,1085.5008,1086.7946,1086.7947,1089.0065,return,0.8746,,70.83333333,,,,,,FBP-PT-81.png,0.4,1.2,23,0.5,,,,,,,,,,,,,,,,,,0,58,58,22,1,,,,,,,,,,,,,,,,,,,,,,,
,,,,,V3_107,18,Female,2025-02-06_14h56.16.845,jersey_experiment_5_v3,2023.2.2,Win32,84.74576271,,,,,,,,,,,,,,,,1089.0068,1090.3007,1090.3008,1091.7478,return,0.387,,80.20833333,,,,,,FBP-RB-81.png,0.43,1.2,54,0.5,,,,,,,,,,,,,,,,,,0,59,59,53,1,,,,,,,,,,,,,,,,,,,,,,,
,,,,,V3_107,18,Female,2025-02-06_14h56.16.845,jersey_experiment_5_v3,2023.2.2,Win32,84.74576271,,,,,,,,,,,,,,,,,,,,,,,,,,,,,,,,,,,,,,,,,,,,,,,,,,,,,,,,1091.7482,1094.6192,return,2.8644,,,,,,,,,,,,,,,,,,,
,,,,,V3_107,18,Female,2025-02-06_14h56.16.845,jersey_experiment_5_v3,2023.2.2,Win32,84.74576271,,,,,,,,,,,,,,,,,,,,,,,,,,,,,,,,,,,,,,,,,,,,,,,,,,,,,,,,,,,,,1094.6193,1097.4305,1,1.8397,return,0.9533,,,,,,,,,,,,
,,,,,V3_107,18,Female,2025-02-06_14h56.16.845,jersey_experiment_5_v3,2023.2.2,Win32,84.74576271,,,,,,,,,,,,,,,,,,,,,,,,,,,,,,,,,,,,,,,,,,,,,,,,,,,,,,,,,,,,,,,,,,,,1097.4307,1163.2453,"I think it may be about how we perceive the difference between two similar objects, and the ""threshold"" of what may be considered neutral or ""in-between"" compared to the extremes",right,61.4172,,,,,,
,,,,,V3_107,18,Female,2025-02-06_14h56.16.845,jersey_experiment_5_v3,2023.2.2,Win32,84.74576271,,,,,,,,,,,,,,,,,,,,,,,,,,,,,,,,,,,,,,,,,,,,,,,,,,,,,,,,,,,,,,,,,,,,,,,,,,1163.2455,1168.3037,return,5.047,