requirements.started,requirements.stopped,key_resp_3.keys,key_resp_3.rt,key_resp_3.duration,Subject ID,Age,Gender,date,expName,psychopyVersion,OS,frameRate,instructions1.started,instructions1.stopped,key_resp.keys,key_resp.rt,key_resp.duration,example.started,example.stopped,enter_2.keys,enter_2.rt,enter_2.duration,instructions2.started,instructions2.stopped,enter_3.keys,enter_3.rt,enter_3.duration,image.started,image.stopped,slider_2.started,slider_2.stopped,next.keys,next.rt,next.duration,slider.response,trial_block_1.thisRepN,trial_block_1.thisTrialN,trial_block_1.thisN,trial_block_1.thisIndex,trial_block_1.ran,Path,Width,Height,Index,Duration,trial_block_2.thisRepN,trial_block_2.thisTrialN,trial_block_2.thisN,trial_block_2.thisIndex,trial_block_2.ran,rest_break.started,rest_break.stopped,end_break.started,end_break.stopped,key_resp_5.keys,key_resp_5.rt,key_resp_5.duration,trial_block_3.thisRepN,trial_block_3.thisTrialN,trial_block_3.thisN,trial_block_3.thisIndex,trial_block_3.ran,trial_block_4.thisRepN,trial_block_4.thisTrialN,trial_block_4.thisN,trial_block_4.thisIndex,trial_block_4.ran,questions_intro.started,questions_intro.stopped,enter_12.keys,enter_12.rt,enter_12.duration,question2.started,question2.stopped,question_doingbest.response,question_doingbest.rt,enter_15.keys,enter_15.rt,enter_15.duration,pattern.started,pattern.stopped,pattern_2.text,enter_17.keys,enter_17.rt,enter_17.duration,thankyou.started,thankyou.stopped,enter_14.keys,enter_14.rt,enter_14.duration
0.0002,12.4129,return,12.4041,,V1_018,19,Female,2024-05-15_16h57.08.036,jersey_experiment_5_v1,2023.2.2,Win32,84.03361344,,,,,,,,,,,,,,,,,,,,,,,,,,,,,,,,,,,,,,,,,,,,,,,,,,,,,,,,,,,,,,,,,,,,,,,,,,,,,,
,,,,,V1_018,19,Female,2024-05-15_16h57.08.036,jersey_experiment_5_v1,2023.2.2,Win32,84.03361344,12.413,20.0602,return,7.6369,,,,,,,,,,,,,,,,,,,,,,,,,,,,,,,,,,,,,,,,,,,,,,,,,,,,,,,,,,,,,,,,,,,,,,,,,,
,,,,,V1_018,19,Female,2024-05-15_16h57.08.036,jersey_experiment_5_v1,2023.2.2,Win32,84.03361344,,,,,,20.0603,24.7426,return,4.6556,,,,,,,,,,,,,,,,,,,,,,,,,,,,,,,,,,,,,,,,,,,,,,,,,,,,,,,,,,,,,,,,,,,,,
,,,,,V1_018,19,Female,2024-05-15_16h57.08.036,jersey_experiment_5_v1,2023.2.2,Win32,84.03361344,,,,,,,,,,,24.7427,50.1436,return,25.388,,,,,,,,,,,,,,,,,,,,,,,,,,,,,,,,,,,,,,,,,,,,,,,,,,,,,,,,,,,,,,,,
,,,,,V1_018,19,Female,2024-05-15_16h57.08.036,jersey_experiment_5_v1,2023.2.2,Win32,84.03361344,,,,,,,,,,,,,,,,50.1505,51.4494,51.4494,70.0971,return,1.9627,,75.13020833,0,0,0,59,1,FBP-RB-91.png,0.45,1.2,60,0.5,,,,,,,,,,,,,,,,,,,,,,,,,,,,,,,,,,,,,,,,,,,,,
,,,,,V1_018,19,Female,2024-05-15_16h57.08.036,jersey_experiment_5_v1,2023.2.2,Win32,84.03361344,,,,,,,,,,,,,,,,70.0973,71.3911,71.3912,75.7676,return,1.1595,,24.73958333,0,1,1,52,1,FBP-RB-81.png,0.4,1.2,53,0.5,,,,,,,,,,,,,,,,,,,,,,,,,,,,,,,,,,,,,,,,,,,,,
,,,,,V1_018,19,Female,2024-05-15_16h57.08.036,jersey_experiment_5_v1,2023.2.2,Win32,84.03361344,,,,,,,,,,,,,,,,75.7678,77.5678,77.5679,82.2974,return,0.7463,,50.13020833,0,2,2,12,1,FBP-PT-91.png,0.4,1.2,13,1,,,,,,,,,,,,,,,,,,,,,,,,,,,,,,,,,,,,,,,,,,,,,
,,,,,V1_018,19,Female,2024-05-15_16h57.08.036,jersey_experiment_5_v1,2023.2.2,Win32,84.03361344,,,,,,,,,,,,,,,,82.2977,83.5916,83.5916,86.0269,return,0.6964,,50.13020833,0,3,3,56,1,FBP-RB-91.png,0.37,1.2,57,0.5,,,,,,,,,,,,,,,,,,,,,,,,,,,,,,,,,,,,,,,,,,,,,
,,,,,V1_018,19,Female,2024-05-15_16h57.08.036,jersey_experiment_5_v1,2023.2.2,Win32,84.03361344,,,,,,,,,,,,,,,,86.0271,87.3211,87.3212,90.7918,return,0.6639,,50.13020833,0,4,4,55,1,FBP-RB-91.png,0.35,1.2,56,0.5,,,,,,,,,,,,,,,,,,,,,,,,,,,,,,,,,,,,,,,,,,,,,
,,,,,V1_018,19,Female,2024-05-15_16h57.08.036,jersey_experiment_5_v1,2023.2.2,Win32,84.03361344,,,,,,,,,,,,,,,,90.7921,92.592,92.592,101.5451,return,1.4522,,62.76041667,0,5,5,1,1,FBP-PT-71.png,0.37,1.2,2,1,,,,,,,,,,,,,,,,,,,,,,,,,,,,,,,,,,,,,,,,,,,,,
,,,,,V1_018,19,Female,2024-05-15_16h57.08.036,jersey_experiment_5_v1,2023.2.2,Win32,84.03361344,,,,,,,,,,,,,,,,101.5453,102.8394,102.8394,106.2395,return,0.6589,,99.47916667,0,6,6,34,1,FBP-OG-17.png,0.45,1.2,35,0.5,,,,,,,,,,,,,,,,,,,,,,,,,,,,,,,,,,,,,,,,,,,,,
,,,,,V1_018,19,Female,2024-05-15_16h57.08.036,jersey_experiment_5_v1,2023.2.2,Win32,84.03361344,,,,,,,,,,,,,,,,106.2397,108.0396,108.0396,109.7101,return,0.6119,,99.47916667,0,7,7,13,1,FBP-PT-91.png,0.43,1.2,14,1,,,,,,,,,,,,,,,,,,,,,,,,,,,,,,,,,,,,,,,,,,,,,
,,,,,V1_018,19,Female,2024-05-15_16h57.08.036,jersey_experiment_5_v1,2023.2.2,Win32,84.03361344,,,,,,,,,,,,,,,,109.7104,111.0043,111.0043,112.7807,return,0.7784,,99.47916667,0,8,8,38,1,FBP-OG-18.png,0.43,1.2,39,0.5,,,,,,,,,,,,,,,,,,,,,,,,,,,,,,,,,,,,,,,,,,,,,
,,,,,V1_018,19,Female,2024-05-15_16h57.08.036,jersey_experiment_5_v1,2023.2.2,Win32,84.03361344,,,,,,,,,,,,,,,,112.781,114.075,114.075,117.1928,return,0.8512,,25.13020833,0,9,9,40,1,FBP-OG-19.png,0.35,1.2,41,0.5,,,,,,,,,,,,,,,,,,,,,,,,,,,,,,,,,,,,,,,,,,,,,
,,,,,V1_018,19,Female,2024-05-15_16h57.08.036,jersey_experiment_5_v1,2023.2.2,Win32,84.03361344,,,,,,,,,,,,,,,,117.193,118.4869,118.4869,120.2989,return,0.6742,,25.26041667,0,10,10,26,1,FBP-YG-19.png,0.37,1.2,27,0.5,,,,,,,,,,,,,,,,,,,,,,,,,,,,,,,,,,,,,,,,,,,,,
,,,,,V1_018,19,Female,2024-05-15_16h57.08.036,jersey_experiment_5_v1,2023.2.2,Win32,84.03361344,,,,,,,,,,,,,,,,120.299,121.593,121.593,126.1108,return,1.2143,,62.23958333,0,11,11,22,1,FBP-YG-18.png,0.4,1.2,23,0.5,,,,,,,,,,,,,,,,,,,,,,,,,,,,,,,,,,,,,,,,,,,,,
,,,,,V1_018,19,Female,2024-05-15_16h57.08.036,jersey_experiment_5_v1,2023.2.2,Win32,84.03361344,,,,,,,,,,,,,,,,126.111,127.405,127.4051,143.535,return,0.753,,50.13020833,0,12,12,32,1,FBP-OG-17.png,0.4,1.2,33,0.5,,,,,,,,,,,,,,,,,,,,,,,,,,,,,,,,,,,,,,,,,,,,,
,,,,,V1_018,19,Female,2024-05-15_16h57.08.036,jersey_experiment_5_v1,2023.2.2,Win32,84.03361344,,,,,,,,,,,,,,,,143.5353,144.829,144.8291,148.7469,return,1.1452,,35.28645833,0,13,13,36,1,FBP-OG-18.png,0.37,1.2,37,0.5,,,,,,,,,,,,,,,,,,,,,,,,,,,,,,,,,,,,,,,,,,,,,
,,,,,V1_018,19,Female,2024-05-15_16h57.08.036,jersey_experiment_5_v1,2023.2.2,Win32,84.03361344,,,,,,,,,,,,,,,,148.7471,150.041,150.041,154.0648,return,0.9414,,20.3125,0,14,14,15,1,FBP-YG-17.png,0.35,1.2,16,0.5,,,,,,,,,,,,,,,,,,,,,,,,,,,,,,,,,,,,,,,,,,,,,
,,,,,V1_018,19,Female,2024-05-15_16h57.08.036,jersey_experiment_5_v1,2023.2.2,Win32,84.03361344,,,,,,,,,,,,,,,,154.065,155.3588,155.359,161.9827,return,2.7061,,84.63541667,0,15,15,54,1,FBP-RB-81.png,0.45,1.2,55,0.5,,,,,,,,,,,,,,,,,,,,,,,,,,,,,,,,,,,,,,,,,,,,,
,,,,,V1_018,19,Female,2024-05-15_16h57.08.036,jersey_experiment_5_v1,2023.2.2,Win32,84.03361344,,,,,,,,,,,,,,,,161.9829,163.2768,163.2768,164.7946,return,0.51,,84.63541667,0,16,16,47,1,FBP-RB-71.png,0.4,1.2,48,0.5,,,,,,,,,,,,,,,,,,,,,,,,,,,,,,,,,,,,,,,,,,,,,
,,,,,V1_018,19,Female,2024-05-15_16h57.08.036,jersey_experiment_5_v1,2023.2.2,Win32,84.03361344,,,,,,,,,,,,,,,,164.7948,166.0887,166.0888,170.5243,return,0.7412,,99.47916667,0,17,17,39,1,FBP-OG-18.png,0.45,1.2,40,0.5,,,,,,,,,,,,,,,,,,,,,,,,,,,,,,,,,,,,,,,,,,,,,
,,,,,V1_018,19,Female,2024-05-15_16h57.08.036,jersey_experiment_5_v1,2023.2.2,Win32,84.03361344,,,,,,,,,,,,,,,,170.5245,171.8183,171.8183,176.6303,return,0.9946,,66.14583333,0,18,18,31,1,FBP-OG-17.png,0.37,1.2,32,0.5,,,,,,,,,,,,,,,,,,,,,,,,,,,,,,,,,,,,,,,,,,,,,
,,,,,V1_018,19,Female,2024-05-15_16h57.08.036,jersey_experiment_5_v1,2023.2.2,Win32,84.03361344,,,,,,,,,,,,,,,,176.6305,177.9245,177.9245,180.807,return,0.7939,,75.52083333,0,19,19,57,1,FBP-RB-91.png,0.4,1.2,58,0.5,,,,,,,,,,,,,,,,,,,,,,,,,,,,,,,,,,,,,,,,,,,,,
,,,,,V1_018,19,Female,2024-05-15_16h57.08.036,jersey_experiment_5_v1,2023.2.2,Win32,84.03361344,,,,,,,,,,,,,,,,180.8073,182.6071,182.6071,185.8659,return,0.8047,,25.26041667,0,20,20,5,1,FBP-PT-81.png,0.35,1.2,6,1,,,,,,,,,,,,,,,,,,,,,,,,,,,,,,,,,,,,,,,,,,,,,
,,,,,V1_018,19,Female,2024-05-15_16h57.08.036,jersey_experiment_5_v1,2023.2.2,Win32,84.03361344,,,,,,,,,,,,,,,,185.8662,187.16,187.16,190.2661,return,0.6022,,75.13020833,0,21,21,49,1,FBP-RB-71.png,0.45,1.2,50,0.5,,,,,,,,,,,,,,,,,,,,,,,,,,,,,,,,,,,,,,,,,,,,,
,,,,,V1_018,19,Female,2024-05-15_16h57.08.036,jersey_experiment_5_v1,2023.2.2,Win32,84.03361344,,,,,,,,,,,,,,,,190.2663,191.5603,191.5603,195.0546,return,0.7304,,25.13020833,0,22,22,25,1,FBP-YG-19.png,0.35,1.2,26,0.5,,,,,,,,,,,,,,,,,,,,,,,,,,,,,,,,,,,,,,,,,,,,,
,,,,,V1_018,19,Female,2024-05-15_16h57.08.036,jersey_experiment_5_v1,2023.2.2,Win32,84.03361344,,,,,,,,,,,,,,,,195.0547,196.8546,196.8546,200.3135,return,1.2993,,56.11979167,0,23,23,6,1,FBP-PT-81.png,0.37,1.2,7,1,,,,,,,,,,,,,,,,,,,,,,,,,,,,,,,,,,,,,,,,,,,,,
,,,,,V1_018,19,Female,2024-05-15_16h57.08.036,jersey_experiment_5_v1,2023.2.2,Win32,84.03361344,,,,,,,,,,,,,,,,200.3138,202.1135,202.1136,205.3372,return,0.6758,,88.02083333,0,24,24,3,1,FBP-PT-71.png,0.43,1.2,4,1,,,,,,,,,,,,,,,,,,,,,,,,,,,,,,,,,,,,,,,,,,,,,
,,,,,V1_018,19,Female,2024-05-15_16h57.08.036,jersey_experiment_5_v1,2023.2.2,Win32,84.03361344,,,,,,,,,,,,,,,,205.3375,206.6314,206.6314,209.1491,return,0.6251,,99.73958333,0,25,25,43,1,FBP-OG-19.png,0.43,1.2,44,0.5,,,,,,,,,,,,,,,,,,,,,,,,,,,,,,,,,,,,,,,,,,,,,
,,,,,V1_018,19,Female,2024-05-15_16h57.08.036,jersey_experiment_5_v1,2023.2.2,Win32,84.03361344,,,,,,,,,,,,,,,,209.1492,210.4434,210.4434,213.3846,return,0.6157,,74.609375,0,26,26,17,1,FBP-YG-17.png,0.4,1.2,18,0.5,,,,,,,,,,,,,,,,,,,,,,,,,,,,,,,,,,,,,,,,,,,,,
,,,,,V1_018,19,Female,2024-05-15_16h57.08.036,jersey_experiment_5_v1,2023.2.2,Win32,84.03361344,,,,,,,,,,,,,,,,213.3848,214.6788,214.6788,216.8788,return,0.5651,,87.23958333,0,27,27,23,1,FBP-YG-18.png,0.43,1.2,24,0.5,,,,,,,,,,,,,,,,,,,,,,,,,,,,,,,,,,,,,,,,,,,,,
,,,,,V1_018,19,Female,2024-05-15_16h57.08.036,jersey_experiment_5_v1,2023.2.2,Win32,84.03361344,,,,,,,,,,,,,,,,216.8791,218.6789,218.6789,223.6556,return,0.8306,,25.26041667,0,28,28,0,1,FBP-PT-71.png,0.35,1.2,1,1,,,,,,,,,,,,,,,,,,,,,,,,,,,,,,,,,,,,,,,,,,,,,
,,,,,V1_018,19,Female,2024-05-15_16h57.08.036,jersey_experiment_5_v1,2023.2.2,Win32,84.03361344,,,,,,,,,,,,,,,,223.6558,225.4557,225.4557,229.2322,return,0.9647,,50.65104167,0,29,29,11,1,FBP-PT-91.png,0.37,1.2,12,1,,,,,,,,,,,,,,,,,,,,,,,,,,,,,,,,,,,,,,,,,,,,,
,,,,,V1_018,19,Female,2024-05-15_16h57.08.036,jersey_experiment_5_v1,2023.2.2,Win32,84.03361344,,,,,,,,,,,,,,,,229.2324,230.5263,230.5263,237.1619,return,0.7202,,50,0,30,30,20,1,FBP-YG-18.png,0.35,1.2,21,0.5,,,,,,,,,,,,,,,,,,,,,,,,,,,,,,,,,,,,,,,,,,,,,
,,,,,V1_018,19,Female,2024-05-15_16h57.08.036,jersey_experiment_5_v1,2023.2.2,Win32,84.03361344,,,,,,,,,,,,,,,,237.1621,238.962,238.962,242.1033,return,1.3109,,75,0,31,31,2,1,FBP-PT-71.png,0.4,1.2,3,1,,,,,,,,,,,,,,,,,,,,,,,,,,,,,,,,,,,,,,,,,,,,,
,,,,,V1_018,19,Female,2024-05-15_16h57.08.036,jersey_experiment_5_v1,2023.2.2,Win32,84.03361344,,,,,,,,,,,,,,,,242.1034,243.3975,243.3975,245.6446,return,0.8137,,74.73958333,0,32,32,27,1,FBP-YG-19.png,0.4,1.2,28,0.5,,,,,,,,,,,,,,,,,,,,,,,,,,,,,,,,,,,,,,,,,,,,,
,,,,,V1_018,19,Female,2024-05-15_16h57.08.036,jersey_experiment_5_v1,2023.2.2,Win32,84.03361344,,,,,,,,,,,,,,,,245.6449,246.9388,246.9388,250.7272,return,0.7342,,62.63020833,0,33,33,50,1,FBP-RB-81.png,0.35,1.2,51,0.5,,,,,,,,,,,,,,,,,,,,,,,,,,,,,,,,,,,,,,,,,,,,,
,,,,,V1_018,19,Female,2024-05-15_16h57.08.036,jersey_experiment_5_v1,2023.2.2,Win32,84.03361344,,,,,,,,,,,,,,,,250.7274,252.0213,252.0214,255.2096,return,1.3696,,62.63020833,0,34,34,21,1,FBP-YG-18.png,0.37,1.2,22,0.5,,,,,,,,,,,,,,,,,,,,,,,,,,,,,,,,,,,,,,,,,,,,,
,,,,,V1_018,19,Female,2024-05-15_16h57.08.036,jersey_experiment_5_v1,2023.2.2,Win32,84.03361344,,,,,,,,,,,,,,,,255.2098,256.5039,256.5039,259.9041,return,0.5888,,99.34895833,0,35,35,58,1,FBP-RB-91.png,0.43,1.2,59,0.5,,,,,,,,,,,,,,,,,,,,,,,,,,,,,,,,,,,,,,,,,,,,,
,,,,,V1_018,19,Female,2024-05-15_16h57.08.036,jersey_experiment_5_v1,2023.2.2,Win32,84.03361344,,,,,,,,,,,,,,,,259.9043,261.198,261.198,263.0572,return,0.5878,,99.08854167,0,36,36,18,1,FBP-YG-17.png,0.43,1.2,19,0.5,,,,,,,,,,,,,,,,,,,,,,,,,,,,,,,,,,,,,,,,,,,,,
,,,,,V1_018,19,Female,2024-05-15_16h57.08.036,jersey_experiment_5_v1,2023.2.2,Win32,84.03361344,,,,,,,,,,,,,,,,263.0574,264.3512,264.3512,267.1277,return,0.8282,,98.95833333,0,37,37,53,1,FBP-RB-81.png,0.43,1.2,54,0.5,,,,,,,,,,,,,,,,,,,,,,,,,,,,,,,,,,,,,,,,,,,,,
,,,,,V1_018,19,Female,2024-05-15_16h57.08.036,jersey_experiment_5_v1,2023.2.2,Win32,84.03361344,,,,,,,,,,,,,,,,267.128,268.4219,268.4219,271.9985,return,1.0258,,50.26041667,0,38,38,35,1,FBP-OG-18.png,0.35,1.2,36,0.5,,,,,,,,,,,,,,,,,,,,,,,,,,,,,,,,,,,,,,,,,,,,,
,,,,,V1_018,19,Female,2024-05-15_16h57.08.036,jersey_experiment_5_v1,2023.2.2,Win32,84.03361344,,,,,,,,,,,,,,,,271.9986,273.2926,273.2926,275.9163,return,0.5996,,41.27604167,0,39,39,30,1,FBP-OG-17.png,0.35,1.2,31,0.5,,,,,,,,,,,,,,,,,,,,,,,,,,,,,,,,,,,,,,,,,,,,,
,,,,,V1_018,19,Female,2024-05-15_16h57.08.036,jersey_experiment_5_v1,2023.2.2,Win32,84.03361344,,,,,,,,,,,,,,,,275.9166,277.2103,277.2104,279.6811,return,0.6119,,99.609375,0,40,40,29,1,FBP-YG-19.png,0.45,1.2,30,0.5,,,,,,,,,,,,,,,,,,,,,,,,,,,,,,,,,,,,,,,,,,,,,
,,,,,V1_018,19,Female,2024-05-15_16h57.08.036,jersey_experiment_5_v1,2023.2.2,Win32,84.03361344,,,,,,,,,,,,,,,,279.6813,280.9754,280.9754,283.4695,return,0.5889,,99.609375,0,41,41,19,1,FBP-YG-17.png,0.45,1.2,20,0.5,,,,,,,,,,,,,,,,,,,,,,,,,,,,,,,,,,,,,,,,,,,,,
,,,,,V1_018,19,Female,2024-05-15_16h57.08.036,jersey_experiment_5_v1,2023.2.2,Win32,84.03361344,,,,,,,,,,,,,,,,283.4696,284.7637,284.7637,287.4226,return,0.6825,,99.21875,0,42,42,24,1,FBP-YG-18.png,0.45,1.2,25,0.5,,,,,,,,,,,,,,,,,,,,,,,,,,,,,,,,,,,,,,,,,,,,,
,,,,,V1_018,19,Female,2024-05-15_16h57.08.036,jersey_experiment_5_v1,2023.2.2,Win32,84.03361344,,,,,,,,,,,,,,,,287.4227,288.7169,288.7169,290.9873,return,0.5559,,74.47916667,0,43,43,46,1,FBP-RB-71.png,0.37,1.2,47,0.5,,,,,,,,,,,,,,,,,,,,,,,,,,,,,,,,,,,,,,,,,,,,,
,,,,,V1_018,19,Female,2024-05-15_16h57.08.036,jersey_experiment_5_v1,2023.2.2,Win32,84.03361344,,,,,,,,,,,,,,,,290.9876,292.2816,292.2816,293.9522,return,0.6262,,74.47916667,0,44,44,16,1,FBP-YG-17.png,0.37,1.2,17,0.5,,,,,,,,,,,,,,,,,,,,,,,,,,,,,,,,,,,,,,,,,,,,,
,,,,,V1_018,19,Female,2024-05-15_16h57.08.036,jersey_experiment_5_v1,2023.2.2,Win32,84.03361344,,,,,,,,,,,,,,,,293.9524,295.2464,295.2464,298.5053,return,0.7687,,99.34895833,0,45,45,33,1,FBP-OG-17.png,0.43,1.2,34,0.5,,,,,,,,,,,,,,,,,,,,,,,,,,,,,,,,,,,,,,,,,,,,,
,,,,,V1_018,19,Female,2024-05-15_16h57.08.036,jersey_experiment_5_v1,2023.2.2,Win32,84.03361344,,,,,,,,,,,,,,,,298.5055,300.3055,300.3055,301.6231,return,0.7016,,99.34895833,0,46,46,4,1,FBP-PT-71.png,0.45,1.2,5,1,,,,,,,,,,,,,,,,,,,,,,,,,,,,,,,,,,,,,,,,,,,,,
,,,,,V1_018,19,Female,2024-05-15_16h57.08.036,jersey_experiment_5_v1,2023.2.2,Win32,84.03361344,,,,,,,,,,,,,,,,301.6233,302.9172,302.9172,309.5293,return,0.5677,,50,0,47,47,51,1,FBP-RB-81.png,0.37,1.2,52,0.5,,,,,,,,,,,,,,,,,,,,,,,,,,,,,,,,,,,,,,,,,,,,,
,,,,,V1_018,19,Female,2024-05-15_16h57.08.036,jersey_experiment_5_v1,2023.2.2,Win32,84.03361344,,,,,,,,,,,,,,,,309.5295,311.3294,311.3294,315.1295,return,0.9108,,99.08854167,0,48,48,9,1,FBP-PT-81.png,0.45,1.2,10,1,,,,,,,,,,,,,,,,,,,,,,,,,,,,,,,,,,,,,,,,,,,,,
,,,,,V1_018,19,Female,2024-05-15_16h57.08.036,jersey_experiment_5_v1,2023.2.2,Win32,84.03361344,,,,,,,,,,,,,,,,315.1297,316.9295,316.9296,319.4239,return,0.7061,,75.13020833,0,49,49,7,1,FBP-PT-81.png,0.4,1.2,8,1,,,,,,,,,,,,,,,,,,,,,,,,,,,,,,,,,,,,,,,,,,,,,
,,,,,V1_018,19,Female,2024-05-15_16h57.08.036,jersey_experiment_5_v1,2023.2.2,Win32,84.03361344,,,,,,,,,,,,,,,,319.4241,320.718,320.718,324.3416,return,0.8324,,0.390625,0,50,50,45,1,FBP-RB-71.png,0.35,1.2,46,0.5,,,,,,,,,,,,,,,,,,,,,,,,,,,,,,,,,,,,,,,,,,,,,
,,,,,V1_018,19,Female,2024-05-15_16h57.08.036,jersey_experiment_5_v1,2023.2.2,Win32,84.03361344,,,,,,,,,,,,,,,,324.3419,325.6358,325.6358,328.9419,return,0.7293,,49.86979167,0,51,51,41,1,FBP-OG-19.png,0.37,1.2,42,0.5,,,,,,,,,,,,,,,,,,,,,,,,,,,,,,,,,,,,,,,,,,,,,
,,,,,V1_018,19,Female,2024-05-15_16h57.08.036,jersey_experiment_5_v1,2023.2.2,Win32,84.03361344,,,,,,,,,,,,,,,,328.942,330.2358,330.2359,333.5302,return,0.5678,,57.29166667,0,52,52,37,1,FBP-OG-18.png,0.4,1.2,38,0.5,,,,,,,,,,,,,,,,,,,,,,,,,,,,,,,,,,,,,,,,,,,,,
,,,,,V1_018,19,Female,2024-05-15_16h57.08.036,jersey_experiment_5_v1,2023.2.2,Win32,84.03361344,,,,,,,,,,,,,,,,333.5306,334.8244,334.8244,337.7892,return,0.6018,,75,0,53,53,28,1,FBP-YG-19.png,0.43,1.2,29,0.5,,,,,,,,,,,,,,,,,,,,,,,,,,,,,,,,,,,,,,,,,,,,,
,,,,,V1_018,19,Female,2024-05-15_16h57.08.036,jersey_experiment_5_v1,2023.2.2,Win32,84.03361344,,,,,,,,,,,,,,,,337.7894,339.5892,339.5892,343.5777,return,0.6854,,25.13020833,0,54,54,10,1,FBP-PT-91.png,0.35,1.2,11,1,,,,,,,,,,,,,,,,,,,,,,,,,,,,,,,,,,,,,,,,,,,,,
,,,,,V1_018,19,Female,2024-05-15_16h57.08.036,jersey_experiment_5_v1,2023.2.2,Win32,84.03361344,,,,,,,,,,,,,,,,343.5779,344.8719,344.8719,347.8837,return,0.6262,,93.61979167,0,55,55,44,1,FBP-OG-19.png,0.45,1.2,45,0.5,,,,,,,,,,,,,,,,,,,,,,,,,,,,,,,,,,,,,,,,,,,,,
,,,,,V1_018,19,Female,2024-05-15_16h57.08.036,jersey_experiment_5_v1,2023.2.2,Win32,84.03361344,,,,,,,,,,,,,,,,347.8839,349.6837,349.6837,351.931,return,0.6841,,99.86979167,0,56,56,8,1,FBP-PT-81.png,0.43,1.2,9,1,,,,,,,,,,,,,,,,,,,,,,,,,,,,,,,,,,,,,,,,,,,,,
,,,,,V1_018,19,Female,2024-05-15_16h57.08.036,jersey_experiment_5_v1,2023.2.2,Win32,84.03361344,,,,,,,,,,,,,,,,351.9312,353.2251,353.2251,355.1192,return,0.6349,,99.609375,0,57,57,48,1,FBP-RB-71.png,0.43,1.2,49,0.5,,,,,,,,,,,,,,,,,,,,,,,,,,,,,,,,,,,,,,,,,,,,,
,,,,,V1_018,19,Female,2024-05-15_16h57.08.036,jersey_experiment_5_v1,2023.2.2,Win32,84.03361344,,,,,,,,,,,,,,,,355.1194,356.4134,356.4135,364.049,return,0.7304,,75,0,58,58,42,1,FBP-OG-19.png,0.4,1.2,43,0.5,,,,,,,,,,,,,,,,,,,,,,,,,,,,,,,,,,,,,,,,,,,,,
,,,,,V1_018,19,Female,2024-05-15_16h57.08.036,jersey_experiment_5_v1,2023.2.2,Win32,84.03361344,,,,,,,,,,,,,,,,364.0492,365.849,365.849,367.6492,return,0.5647,,99.47916667,0,59,59,14,1,FBP-PT-91.png,0.45,1.2,15,1,,,,,,,,,,,,,,,,,,,,,,,,,,,,,,,,,,,,,,,,,,,,,
,,,,,V1_018,19,Female,2024-05-15_16h57.08.036,jersey_experiment_5_v1,2023.2.2,Win32,84.03361344,,,,,,,,,,,,,,,,367.6512,368.9432,368.9432,370.7669,return,0.8472,,99.34895833,,,,,,FBP-OG-71.png,0.45,1.2,35,0.5,0,0,0,34,1,,,,,,,,,,,,,,,,,,,,,,,,,,,,,,,,,,,,,,,,
,,,,,V1_018,19,Female,2024-05-15_16h57.08.036,jersey_experiment_5_v1,2023.2.2,Win32,84.03361344,,,,,,,,,,,,,,,,370.7671,372.0609,372.061,374.1551,return,0.615,,99.34895833,,,,,,FBP-RB-19.png,0.43,1.2,59,0.5,0,1,1,58,1,,,,,,,,,,,,,,,,,,,,,,,,,,,,,,,,,,,,,,,,
,,,,,V1_018,19,Female,2024-05-15_16h57.08.036,jersey_experiment_5_v1,2023.2.2,Win32,84.03361344,,,,,,,,,,,,,,,,374.1554,375.4494,375.4494,378.7671,return,1.0354,,50.26041667,,,,,,FBP-OG-81.png,0.37,1.2,37,0.5,0,2,2,36,1,,,,,,,,,,,,,,,,,,,,,,,,,,,,,,,,,,,,,,,,
,,,,,V1_018,19,Female,2024-05-15_16h57.08.036,jersey_experiment_5_v1,2023.2.2,Win32,84.03361344,,,,,,,,,,,,,,,,378.7673,380.0613,380.0613,381.7907,return,0.6257,,50,,,,,,FBP-YG-91.png,0.4,1.2,28,0.5,0,3,3,27,1,,,,,,,,,,,,,,,,,,,,,,,,,,,,,,,,,,,,,,,,
,,,,,V1_018,19,Female,2024-05-15_16h57.08.036,jersey_experiment_5_v1,2023.2.2,Win32,84.03361344,,,,,,,,,,,,,,,,381.7909,383.0849,383.085,386.3204,return,0.6589,,74.47916667,,,,,,FBP-OG-91.png,0.4,1.2,43,0.5,0,4,4,42,1,,,,,,,,,,,,,,,,,,,,,,,,,,,,,,,,,,,,,,,,
,,,,,V1_018,19,Female,2024-05-15_16h57.08.036,jersey_experiment_5_v1,2023.2.2,Win32,84.03361344,,,,,,,,,,,,,,,,386.3206,387.6145,387.6146,391.4147,return,0.1234,,49.609375,,,,,,FBP-YG-81.png,0.43,1.2,24,0.5,0,5,5,23,1,,,,,,,,,,,,,,,,,,,,,,,,,,,,,,,,,,,,,,,,
,,,,,V1_018,19,Female,2024-05-15_16h57.08.036,jersey_experiment_5_v1,2023.2.2,Win32,84.03361344,,,,,,,,,,,,,,,,391.415,392.7088,392.7088,394.2617,return,0.1613,,74.73958333,,,,,,FBP-YG-71.png,0.37,1.2,17,0.5,0,6,6,16,1,,,,,,,,,,,,,,,,,,,,,,,,,,,,,,,,,,,,,,,,
,,,,,V1_018,19,Female,2024-05-15_16h57.08.036,jersey_experiment_5_v1,2023.2.2,Win32,84.03361344,,,,,,,,,,,,,,,,394.262,395.5561,395.5561,396.3796,return,0.1557,,74.34895833,,,,,,FBP-OG-91.png,0.37,1.2,42,0.5,0,7,7,41,1,,,,,,,,,,,,,,,,,,,,,,,,,,,,,,,,,,,,,,,,
,,,,,V1_018,19,Female,2024-05-15_16h57.08.036,jersey_experiment_5_v1,2023.2.2,Win32,84.03361344,,,,,,,,,,,,,,,,396.3798,397.6738,397.6738,399.9208,return,0.1413,,99.609375,,,,,,FBP-YG-71.png,0.45,1.2,20,0.5,0,8,8,19,1,,,,,,,,,,,,,,,,,,,,,,,,,,,,,,,,,,,,,,,,
,,,,,V1_018,19,Female,2024-05-15_16h57.08.036,jersey_experiment_5_v1,2023.2.2,Win32,84.03361344,,,,,,,,,,,,,,,,399.921,401.721,401.721,404.6623,return,1.9827,,57.55208333,,,,,,FBP-PT-19.png,0.37,1.2,12,1,0,9,9,11,1,,,,,,,,,,,,,,,,,,,,,,,,,,,,,,,,,,,,,,,,
,,,,,V1_018,19,Female,2024-05-15_16h57.08.036,jersey_experiment_5_v1,2023.2.2,Win32,84.03361344,,,,,,,,,,,,,,,,404.6625,405.9564,405.9564,407.8506,return,0.2962,,41.27604167,,,,,,FBP-YG-71.png,0.35,1.2,16,0.5,0,10,10,15,1,,,,,,,,,,,,,,,,,,,,,,,,,,,,,,,,,,,,,,,,
,,,,,V1_018,19,Female,2024-05-15_16h57.08.036,jersey_experiment_5_v1,2023.2.2,Win32,84.03361344,,,,,,,,,,,,,,,,407.8508,409.1447,409.1447,411.2859,return,0.0083,,49.73958333,,,,,,FBP-YG-81.png,0.37,1.2,22,0.5,0,11,11,21,1,,,,,,,,,,,,,,,,,,,,,,,,,,,,,,,,,,,,,,,,
,,,,,V1_018,19,Female,2024-05-15_16h57.08.036,jersey_experiment_5_v1,2023.2.2,Win32,84.03361344,,,,,,,,,,,,,,,,411.2862,412.5802,412.5802,414.4155,return,0.2116,,34.63541667,,,,,,FBP-OG-71.png,0.35,1.2,31,0.5,0,12,12,30,1,,,,,,,,,,,,,,,,,,,,,,,,,,,,,,,,,,,,,,,,
,,,,,V1_018,19,Female,2024-05-15_16h57.08.036,jersey_experiment_5_v1,2023.2.2,Win32,84.03361344,,,,,,,,,,,,,,,,414.4158,415.7097,415.7097,416.8863,return,0.1964,,25,,,,,,FBP-OG-81.png,0.35,1.2,36,0.5,0,13,13,35,1,,,,,,,,,,,,,,,,,,,,,,,,,,,,,,,,,,,,,,,,
,,,,,V1_018,19,Female,2024-05-15_16h57.08.036,jersey_experiment_5_v1,2023.2.2,Win32,84.03361344,,,,,,,,,,,,,,,,416.8865,418.1802,418.1803,419.9686,return,0.1885,,99.73958333,,,,,,FBP-RB-18.png,0.45,1.2,55,0.5,0,14,14,54,1,,,,,,,,,,,,,,,,,,,,,,,,,,,,,,,,,,,,,,,,
,,,,,V1_018,19,Female,2024-05-15_16h57.08.036,jersey_experiment_5_v1,2023.2.2,Win32,84.03361344,,,,,,,,,,,,,,,,419.9689,421.2628,421.2628,423.6865,return,0.2532,,86.58854167,,,,,,FBP-OG-71.png,0.37,1.2,32,0.5,0,15,15,31,1,,,,,,,,,,,,,,,,,,,,,,,,,,,,,,,,,,,,,,,,
,,,,,V1_018,19,Female,2024-05-15_16h57.08.036,jersey_experiment_5_v1,2023.2.2,Win32,84.03361344,,,,,,,,,,,,,,,,423.6867,425.4866,425.4866,427.7218,return,0.2756,,99.73958333,,,,,,FBP-PT-18.png,0.45,1.2,10,1,0,16,16,9,1,,,,,,,,,,,,,,,,,,,,,,,,,,,,,,,,,,,,,,,,
,,,,,V1_018,19,Female,2024-05-15_16h57.08.036,jersey_experiment_5_v1,2023.2.2,Win32,84.03361344,,,,,,,,,,,,,,,,427.7221,429.0161,429.0161,430.8867,return,0.055,,95.96354167,,,,,,FBP-YG-71.png,0.4,1.2,18,0.5,0,17,17,17,1,,,,,,,,,,,,,,,,,,,,,,,,,,,,,,,,,,,,,,,,
,,,,,V1_018,19,Female,2024-05-15_16h57.08.036,jersey_experiment_5_v1,2023.2.2,Win32,84.03361344,,,,,,,,,,,,,,,,430.8871,432.6868,432.6868,433.8163,return,0.498,,95.96354167,,,,,,FBP-PT-18.png,0.43,1.2,9,1,0,18,18,8,1,,,,,,,,,,,,,,,,,,,,,,,,,,,,,,,,,,,,,,,,
,,,,,V1_018,19,Female,2024-05-15_16h57.08.036,jersey_experiment_5_v1,2023.2.2,Win32,84.03361344,,,,,,,,,,,,,,,,433.8165,435.1104,435.1105,438.4163,return,0.1649,,95.3125,,,,,,FBP-YG-91.png,0.43,1.2,29,0.5,0,19,19,28,1,,,,,,,,,,,,,,,,,,,,,,,,,,,,,,,,,,,,,,,,
,,,,,V1_018,19,Female,2024-05-15_16h57.08.036,jersey_experiment_5_v1,2023.2.2,Win32,84.03361344,,,,,,,,,,,,,,,,438.4165,439.7105,439.7105,441.4636,return,0.0655,,74.47916667,,,,,,FBP-YG-81.png,0.4,1.2,23,0.5,0,20,20,22,1,,,,,,,,,,,,,,,,,,,,,,,,,,,,,,,,,,,,,,,,
,,,,,V1_018,19,Female,2024-05-15_16h57.08.036,jersey_experiment_5_v1,2023.2.2,Win32,84.03361344,,,,,,,,,,,,,,,,441.4639,442.7577,442.7577,444.2637,return,0.1454,,49.73958333,,,,,,FBP-RB-19.png,0.37,1.2,57,0.5,0,21,21,56,1,,,,,,,,,,,,,,,,,,,,,,,,,,,,,,,,,,,,,,,,
,,,,,V1_018,19,Female,2024-05-15_16h57.08.036,jersey_experiment_5_v1,2023.2.2,Win32,84.03361344,,,,,,,,,,,,,,,,444.2639,446.0638,446.0638,447.5815,return,0.188,,25.52083333,,,,,,FBP-PT-17.png,0.35,1.2,1,1,0,22,22,0,1,,,,,,,,,,,,,,,,,,,,,,,,,,,,,,,,,,,,,,,,
,,,,,V1_018,19,Female,2024-05-15_16h57.08.036,jersey_experiment_5_v1,2023.2.2,Win32,84.03361344,,,,,,,,,,,,,,,,447.5817,448.8757,448.8757,451.417,return,0.0975,,15.75520833,,,,,,FBP-YG-91.png,0.35,1.2,26,0.5,0,23,23,25,1,,,,,,,,,,,,,,,,,,,,,,,,,,,,,,,,,,,,,,,,
,,,,,V1_018,19,Female,2024-05-15_16h57.08.036,jersey_experiment_5_v1,2023.2.2,Win32,84.03361344,,,,,,,,,,,,,,,,451.4172,452.711,452.7111,454.17,return,0.1666,,74.86979167,,,,,,FBP-OG-81.png,0.43,1.2,39,0.5,0,24,24,38,1,,,,,,,,,,,,,,,,,,,,,,,,,,,,,,,,,,,,,,,,
,,,,,V1_018,19,Female,2024-05-15_16h57.08.036,jersey_experiment_5_v1,2023.2.2,Win32,84.03361344,,,,,,,,,,,,,,,,454.1703,455.97,455.9701,456.5111,return,0.1178,,74.86979167,,,,,,FBP-PT-18.png,0.4,1.2,8,1,0,25,25,7,1,,,,,,,,,,,,,,,,,,,,,,,,,,,,,,,,,,,,,,,,
,,,,,V1_018,19,Female,2024-05-15_16h57.08.036,jersey_experiment_5_v1,2023.2.2,Win32,84.03361344,,,,,,,,,,,,,,,,456.5114,457.8053,457.8053,459.0525,return,0.1766,,90.234375,,,,,,FBP-OG-71.png,0.43,1.2,34,0.5,0,26,26,33,1,,,,,,,,,,,,,,,,,,,,,,,,,,,,,,,,,,,,,,,,
,,,,,V1_018,19,Female,2024-05-15_16h57.08.036,jersey_experiment_5_v1,2023.2.2,Win32,84.03361344,,,,,,,,,,,,,,,,459.0526,460.8527,460.8527,462.2997,return,0.0832,,49.609375,,,,,,FBP-PT-19.png,0.35,1.2,11,1,0,27,27,10,1,,,,,,,,,,,,,,,,,,,,,,,,,,,,,,,,,,,,,,,,
,,,,,V1_018,19,Female,2024-05-15_16h57.08.036,jersey_experiment_5_v1,2023.2.2,Win32,84.03361344,,,,,,,,,,,,,,,,462.2997,463.5937,463.5937,465.4879,return,0.1086,,63.671875,,,,,,FBP-RB-19.png,0.4,1.2,58,0.5,0,28,28,57,1,,,,,,,,,,,,,,,,,,,,,,,,,,,,,,,,,,,,,,,,
,,,,,V1_018,19,Female,2024-05-15_16h57.08.036,jersey_experiment_5_v1,2023.2.2,Win32,84.03361344,,,,,,,,,,,,,,,,465.4882,466.7822,466.7822,467.9352,return,0.1183,,38.671875,,,,,,FBP-RB-19.png,0.35,1.2,56,0.5,0,29,29,55,1,,,,,,,,,,,,,,,,,,,,,,,,,,,,,,,,,,,,,,,,
,,,,,V1_018,19,Female,2024-05-15_16h57.08.036,jersey_experiment_5_v1,2023.2.2,Win32,84.03361344,,,,,,,,,,,,,,,,467.9355,469.2293,469.2293,471.3707,return,0.157,,86.45833333,,,,,,FBP-OG-91.png,0.45,1.2,45,0.5,0,30,30,44,1,,,,,,,,,,,,,,,,,,,,,,,,,,,,,,,,,,,,,,,,
,,,,,V1_018,19,Female,2024-05-15_16h57.08.036,jersey_experiment_5_v1,2023.2.2,Win32,84.03361344,,,,,,,,,,,,,,,,471.3709,472.6648,472.6648,474.5588,return,0.1513,,50.52083333,,,,,,FBP-YG-91.png,0.37,1.2,27,0.5,0,31,31,26,1,,,,,,,,,,,,,,,,,,,,,,,,,,,,,,,,,,,,,,,,
,,,,,V1_018,19,Female,2024-05-15_16h57.08.036,jersey_experiment_5_v1,2023.2.2,Win32,84.03361344,,,,,,,,,,,,,,,,474.559,476.359,476.359,478.7473,return,0.1541,,90.10416667,,,,,,FBP-PT-17.png,0.43,1.2,4,1,0,32,32,3,1,,,,,,,,,,,,,,,,,,,,,,,,,,,,,,,,,,,,,,,,
,,,,,V1_018,19,Female,2024-05-15_16h57.08.036,jersey_experiment_5_v1,2023.2.2,Win32,84.03361344,,,,,,,,,,,,,,,,478.7474,480.0413,480.0413,482.4064,return,0.1471,,99.609375,,,,,,FBP-RB-18.png,0.43,1.2,54,0.5,0,33,33,53,1,,,,,,,,,,,,,,,,,,,,,,,,,,,,,,,,,,,,,,,,
,,,,,V1_018,19,Female,2024-05-15_16h57.08.036,jersey_experiment_5_v1,2023.2.2,Win32,84.03361344,,,,,,,,,,,,,,,,482.4065,483.7004,483.7004,486.1358,return,0.1576,,25.26041667,,,,,,FBP-RB-18.png,0.35,1.2,51,0.5,0,34,34,50,1,,,,,,,,,,,,,,,,,,,,,,,,,,,,,,,,,,,,,,,,
,,,,,V1_018,19,Female,2024-05-15_16h57.08.036,jersey_experiment_5_v1,2023.2.2,Win32,84.03361344,,,,,,,,,,,,,,,,486.1361,487.43,487.43,489.4654,return,0.0974,,99.08854167,,,,,,FBP-RB-19.png,0.45,1.2,60,0.5,0,35,35,59,1,,,,,,,,,,,,,,,,,,,,,,,,,,,,,,,,,,,,,,,,
,,,,,V1_018,19,Female,2024-05-15_16h57.08.036,jersey_experiment_5_v1,2023.2.2,Win32,84.03361344,,,,,,,,,,,,,,,,489.4656,490.7596,490.7596,492.9595,return,0.1648,,99.86979167,,,,,,FBP-YG-81.png,0.45,1.2,25,0.5,0,36,36,24,1,,,,,,,,,,,,,,,,,,,,,,,,,,,,,,,,,,,,,,,,
,,,,,V1_018,19,Female,2024-05-15_16h57.08.036,jersey_experiment_5_v1,2023.2.2,Win32,84.03361344,,,,,,,,,,,,,,,,492.9597,494.2536,494.2536,495.7597,return,0.1881,,86.97916667,,,,,,FBP-OG-71.png,0.4,1.2,33,0.5,0,37,37,32,1,,,,,,,,,,,,,,,,,,,,,,,,,,,,,,,,,,,,,,,,
,,,,,V1_018,19,Female,2024-05-15_16h57.08.036,jersey_experiment_5_v1,2023.2.2,Win32,84.03361344,,,,,,,,,,,,,,,,495.7598,497.5596,497.5598,499.3715,return,0.142,,74.86979167,,,,,,FBP-PT-17.png,0.37,1.2,2,1,0,38,38,1,1,,,,,,,,,,,,,,,,,,,,,,,,,,,,,,,,,,,,,,,,
,,,,,V1_018,19,Female,2024-05-15_16h57.08.036,jersey_experiment_5_v1,2023.2.2,Win32,84.03361344,,,,,,,,,,,,,,,,499.3717,500.6658,500.6658,501.2776,return,0.1874,,74.86979167,,,,,,FBP-RB-18.png,0.4,1.2,53,0.5,0,39,39,52,1,,,,,,,,,,,,,,,,,,,,,,,,,,,,,,,,,,,,,,,,
,,,,,V1_018,19,Female,2024-05-15_16h57.08.036,jersey_experiment_5_v1,2023.2.2,Win32,84.03361344,,,,,,,,,,,,,,,,501.2778,503.0775,503.0776,505.1483,return,0.214,,91.92708333,,,,,,FBP-PT-17.png,0.45,1.2,5,1,0,40,40,4,1,,,,,,,,,,,,,,,,,,,,,,,,,,,,,,,,,,,,,,,,
,,,,,V1_018,19,Female,2024-05-15_16h57.08.036,jersey_experiment_5_v1,2023.2.2,Win32,84.03361344,,,,,,,,,,,,,,,,505.1484,506.9484,506.9485,511.8544,return,0.2922,,74.47916667,,,,,,FBP-PT-19.png,0.43,1.2,14,1,0,41,41,13,1,,,,,,,,,,,,,,,,,,,,,,,,,,,,,,,,,,,,,,,,
,,,,,V1_018,19,Female,2024-05-15_16h57.08.036,jersey_experiment_5_v1,2023.2.2,Win32,84.03361344,,,,,,,,,,,,,,,,511.8546,513.1485,513.1486,515.831,return,1.9227,,50.26041667,,,,,,FBP-OG-91.png,0.35,1.2,41,0.5,0,42,42,40,1,,,,,,,,,,,,,,,,,,,,,,,,,,,,,,,,,,,,,,,,
,,,,,V1_018,19,Female,2024-05-15_16h57.08.036,jersey_experiment_5_v1,2023.2.2,Win32,84.03361344,,,,,,,,,,,,,,,,515.8311,517.1252,517.1252,519.1015,return,0.2358,,96.484375,,,,,,FBP-OG-91.png,0.43,1.2,44,0.5,0,43,43,43,1,,,,,,,,,,,,,,,,,,,,,,,,,,,,,,,,,,,,,,,,
,,,,,V1_018,19,Female,2024-05-15_16h57.08.036,jersey_experiment_5_v1,2023.2.2,Win32,84.03361344,,,,,,,,,,,,,,,,519.1017,520.3958,520.3959,521.1371,return,0.071,,95.18229167,,,,,,FBP-OG-81.png,0.45,1.2,40,0.5,0,44,44,39,1,,,,,,,,,,,,,,,,,,,,,,,,,,,,,,,,,,,,,,,,
,,,,,V1_018,19,Female,2024-05-15_16h57.08.036,jersey_experiment_5_v1,2023.2.2,Win32,84.03361344,,,,,,,,,,,,,,,,521.1373,522.4312,522.4313,523.4783,return,0.1019,,95.18229167,,,,,,FBP-YG-71.png,0.43,1.2,19,0.5,0,45,45,18,1,,,,,,,,,,,,,,,,,,,,,,,,,,,,,,,,,,,,,,,,
,,,,,V1_018,19,Female,2024-05-15_16h57.08.036,jersey_experiment_5_v1,2023.2.2,Win32,84.03361344,,,,,,,,,,,,,,,,523.4786,525.2785,525.2785,528.3375,return,1.6474,,74.34895833,,,,,,FBP-PT-19.png,0.4,1.2,13,1,0,46,46,12,1,,,,,,,,,,,,,,,,,,,,,,,,,,,,,,,,,,,,,,,,
,,,,,V1_018,19,Female,2024-05-15_16h57.08.036,jersey_experiment_5_v1,2023.2.2,Win32,84.03361344,,,,,,,,,,,,,,,,528.3377,529.6315,529.6315,530.2198,return,0.0956,,74.34895833,,,,,,FBP-RB-17.png,0.4,1.2,48,0.5,0,47,47,47,1,,,,,,,,,,,,,,,,,,,,,,,,,,,,,,,,,,,,,,,,
,,,,,V1_018,19,Female,2024-05-15_16h57.08.036,jersey_experiment_5_v1,2023.2.2,Win32,84.03361344,,,,,,,,,,,,,,,,530.22,531.514,531.514,534.1609,return,0.1409,,25.390625,,,,,,FBP-RB-17.png,0.35,1.2,46,0.5,0,48,48,45,1,,,,,,,,,,,,,,,,,,,,,,,,,,,,,,,,,,,,,,,,
,,,,,V1_018,19,Female,2024-05-15_16h57.08.036,jersey_experiment_5_v1,2023.2.2,Win32,84.03361344,,,,,,,,,,,,,,,,534.1612,535.4553,535.4553,536.0554,return,0.1223,,25.390625,,,,,,FBP-RB-18.png,0.37,1.2,52,0.5,0,49,49,51,1,,,,,,,,,,,,,,,,,,,,,,,,,,,,,,,,,,,,,,,,
,,,,,V1_018,19,Female,2024-05-15_16h57.08.036,jersey_experiment_5_v1,2023.2.2,Win32,84.03361344,,,,,,,,,,,,,,,,536.0555,537.3495,537.3495,540.879,return,0.4844,,89.58333333,,,,,,FBP-YG-91.png,0.45,1.2,30,0.5,0,50,50,29,1,,,,,,,,,,,,,,,,,,,,,,,,,,,,,,,,,,,,,,,,
,,,,,V1_018,19,Female,2024-05-15_16h57.08.036,jersey_experiment_5_v1,2023.2.2,Win32,84.03361344,,,,,,,,,,,,,,,,540.8793,542.679,542.679,545.5851,return,0.1317,,50.13020833,,,,,,FBP-PT-18.png,0.35,1.2,6,1,0,51,51,5,1,,,,,,,,,,,,,,,,,,,,,,,,,,,,,,,,,,,,,,,,
,,,,,V1_018,19,Female,2024-05-15_16h57.08.036,jersey_experiment_5_v1,2023.2.2,Win32,84.03361344,,,,,,,,,,,,,,,,545.5853,547.3851,547.3851,548.7617,return,0.0969,,99.34895833,,,,,,FBP-PT-19.png,0.45,1.2,15,1,0,52,52,14,1,,,,,,,,,,,,,,,,,,,,,,,,,,,,,,,,,,,,,,,,
,,,,,V1_018,19,Female,2024-05-15_16h57.08.036,jersey_experiment_5_v1,2023.2.2,Win32,84.03361344,,,,,,,,,,,,,,,,548.7619,550.0559,550.0559,551.9735,return,0.1835,,99.47916667,,,,,,FBP-RB-17.png,0.45,1.2,50,0.5,0,53,53,49,1,,,,,,,,,,,,,,,,,,,,,,,,,,,,,,,,,,,,,,,,
,,,,,V1_018,19,Female,2024-05-15_16h57.08.036,jersey_experiment_5_v1,2023.2.2,Win32,84.03361344,,,,,,,,,,,,,,,,551.9736,553.2677,553.2677,554.0324,return,0.1426,,99.47916667,,,,,,FBP-RB-17.png,0.43,1.2,49,0.5,0,54,54,48,1,,,,,,,,,,,,,,,,,,,,,,,,,,,,,,,,,,,,,,,,
,,,,,V1_018,19,Female,2024-05-15_16h57.08.036,jersey_experiment_5_v1,2023.2.2,Win32,84.03361344,,,,,,,,,,,,,,,,554.0326,555.8325,555.8326,557.009,return,0.0471,,86.84895833,,,,,,FBP-PT-17.png,0.4,1.2,3,1,0,55,55,2,1,,,,,,,,,,,,,,,,,,,,,,,,,,,,,,,,,,,,,,,,
,,,,,V1_018,19,Female,2024-05-15_16h57.08.036,jersey_experiment_5_v1,2023.2.2,Win32,84.03361344,,,,,,,,,,,,,,,,557.0092,558.3032,558.3032,559.821,return,0.0709,,49.73958333,,,,,,FBP-YG-81.png,0.35,1.2,21,0.5,0,56,56,20,1,,,,,,,,,,,,,,,,,,,,,,,,,,,,,,,,,,,,,,,,
,,,,,V1_018,19,Female,2024-05-15_16h57.08.036,jersey_experiment_5_v1,2023.2.2,Win32,84.03361344,,,,,,,,,,,,,,,,559.8212,561.6209,561.6209,563.115,return,0.0481,,50.26041667,,,,,,FBP-PT-18.png,0.37,1.2,7,1,0,57,57,6,1,,,,,,,,,,,,,,,,,,,,,,,,,,,,,,,,,,,,,,,,
,,,,,V1_018,19,Female,2024-05-15_16h57.08.036,jersey_experiment_5_v1,2023.2.2,Win32,84.03361344,,,,,,,,,,,,,,,,563.1152,564.4093,564.4093,565.9622,return,0.12,,24.73958333,,,,,,FBP-RB-17.png,0.37,1.2,47,0.5,0,58,58,46,1,,,,,,,,,,,,,,,,,,,,,,,,,,,,,,,,,,,,,,,,
,,,,,V1_018,19,Female,2024-05-15_16h57.08.036,jersey_experiment_5_v1,2023.2.2,Win32,84.03361344,,,,,,,,,,,,,,,,565.9624,567.2565,567.2565,573.7389,return,0.4033,,50.26041667,,,,,,FBP-OG-81.png,0.4,1.2,38,0.5,0,59,59,37,1,,,,,,,,,,,,,,,,,,,,,,,,,,,,,,,,,,,,,,,,
,,,,,V1_018,19,Female,2024-05-15_16h57.08.036,jersey_experiment_5_v1,2023.2.2,Win32,84.03361344,,,,,,,,,,,,,,,,,,,,,,,,,,,,,,,,,,,,,,,573.7394,693.7438,,,,,,,,,,,,,,,,,,,,,,,,,,,,,,,,,,,,,,
,,,,,V1_018,19,Female,2024-05-15_16h57.08.036,jersey_experiment_5_v1,2023.2.2,Win32,84.03361344,,,,,,,,,,,,,,,,,,,,,,,,,,,,,,,,,,,,,,,,,693.7439,700.897,return,7.1394,,,,,,,,,,,,,,,,,,,,,,,,,,,,,,,,,,
,,,,,V1_018,19,Female,2024-05-15_16h57.08.036,jersey_experiment_5_v1,2023.2.2,Win32,84.03361344,,,,,,,,,,,,,,,,700.9035,702.6969,702.6969,704.8733,return,0.499,,90.88541667,,,,,,FBP-OG-19.png,0.45,1.2,45,1,,,,,,,,,,,,,0,0,0,44,1,,,,,,,,,,,,,,,,,,,,,,,,,,,,
,,,,,V1_018,19,Female,2024-05-15_16h57.08.036,jersey_experiment_5_v1,2023.2.2,Win32,84.03361344,,,,,,,,,,,,,,,,704.8738,706.1674,706.1674,706.8734,return,0.1224,,91.40625,,,,,,FBP-PT-71.png,0.43,1.2,4,0.5,,,,,,,,,,,,,0,1,1,3,1,,,,,,,,,,,,,,,,,,,,,,,,,,,,
,,,,,V1_018,19,Female,2024-05-15_16h57.08.036,jersey_experiment_5_v1,2023.2.2,Win32,84.03361344,,,,,,,,,,,,,,,,706.8736,708.1674,708.1674,709.697,return,0.1411,,99.34895833,,,,,,FBP-PT-71.png,0.45,1.2,5,0.5,,,,,,,,,,,,,0,2,2,4,1,,,,,,,,,,,,,,,,,,,,,,,,,,,,
,,,,,V1_018,19,Female,2024-05-15_16h57.08.036,jersey_experiment_5_v1,2023.2.2,Win32,84.03361344,,,,,,,,,,,,,,,,709.6972,710.991,710.991,712.8147,return,0.1175,,25.13020833,,,,,,FBP-PT-81.png,0.35,1.2,6,0.5,,,,,,,,,,,,,0,3,3,5,1,,,,,,,,,,,,,,,,,,,,,,,,,,,,
,,,,,V1_018,19,Female,2024-05-15_16h57.08.036,jersey_experiment_5_v1,2023.2.2,Win32,84.03361344,,,,,,,,,,,,,,,,712.8149,714.1089,714.1089,715.4383,return,0.0945,,99.609375,,,,,,FBP-PT-91.png,0.45,1.2,15,0.5,,,,,,,,,,,,,0,4,4,14,1,,,,,,,,,,,,,,,,,,,,,,,,,,,,
,,,,,V1_018,19,Female,2024-05-15_16h57.08.036,jersey_experiment_5_v1,2023.2.2,Win32,84.03361344,,,,,,,,,,,,,,,,715.4386,717.2385,717.2385,718.662,return,0.1591,,73.69791667,,,,,,FBP-YG-17.png,0.4,1.2,18,1,,,,,,,,,,,,,0,5,5,17,1,,,,,,,,,,,,,,,,,,,,,,,,,,,,
,,,,,V1_018,19,Female,2024-05-15_16h57.08.036,jersey_experiment_5_v1,2023.2.2,Win32,84.03361344,,,,,,,,,,,,,,,,718.6622,720.4622,720.4623,721.521,return,0.1649,,99.86979167,,,,,,FBP-RB-71.png,0.43,1.2,49,1,,,,,,,,,,,,,0,6,6,48,1,,,,,,,,,,,,,,,,,,,,,,,,,,,,
,,,,,V1_018,19,Female,2024-05-15_16h57.08.036,jersey_experiment_5_v1,2023.2.2,Win32,84.03361344,,,,,,,,,,,,,,,,721.5213,723.3209,723.3209,724.6151,return,0.1013,,74.73958333,,,,,,FBP-OG-18.png,0.4,1.2,38,1,,,,,,,,,,,,,0,7,7,37,1,,,,,,,,,,,,,,,,,,,,,,,,,,,,
,,,,,V1_018,19,Female,2024-05-15_16h57.08.036,jersey_experiment_5_v1,2023.2.2,Win32,84.03361344,,,,,,,,,,,,,,,,724.6154,726.4154,726.4154,727.8506,return,0.1192,,24.609375,,,,,,FBP-YG-19.png,0.35,1.2,26,1,,,,,,,,,,,,,0,8,8,25,1,,,,,,,,,,,,,,,,,,,,,,,,,,,,
,,,,,V1_018,19,Female,2024-05-15_16h57.08.036,jersey_experiment_5_v1,2023.2.2,Win32,84.03361344,,,,,,,,,,,,,,,,727.8508,729.6506,729.6507,732.1095,return,0.2361,,0.520833333,,,,,,FBP-OG-17.png,0.35,1.2,31,1,,,,,,,,,,,,,0,9,9,30,1,,,,,,,,,,,,,,,,,,,,,,,,,,,,
,,,,,V1_018,19,Female,2024-05-15_16h57.08.036,jersey_experiment_5_v1,2023.2.2,Win32,84.03361344,,,,,,,,,,,,,,,,732.1098,733.9096,733.9096,735.6744,return,0.085,,25.13020833,,,,,,FBP-RB-71.png,0.37,1.2,47,1,,,,,,,,,,,,,0,10,10,46,1,,,,,,,,,,,,,,,,,,,,,,,,,,,,
,,,,,V1_018,19,Female,2024-05-15_16h57.08.036,jersey_experiment_5_v1,2023.2.2,Win32,84.03361344,,,,,,,,,,,,,,,,735.6747,737.4745,737.4746,738.2157,return,0.077,,24.47916667,,,,,,FBP-OG-18.png,0.35,1.2,36,1,,,,,,,,,,,,,0,11,11,35,1,,,,,,,,,,,,,,,,,,,,,,,,,,,,
,,,,,V1_018,19,Female,2024-05-15_16h57.08.036,jersey_experiment_5_v1,2023.2.2,Win32,84.03361344,,,,,,,,,,,,,,,,738.2159,739.5099,739.5099,741.3099,return,0.1187,,74.86979167,,,,,,FBP-PT-81.png,0.45,1.2,10,0.5,,,,,,,,,,,,,0,12,12,9,1,,,,,,,,,,,,,,,,,,,,,,,,,,,,
,,,,,V1_018,19,Female,2024-05-15_16h57.08.036,jersey_experiment_5_v1,2023.2.2,Win32,84.03361344,,,,,,,,,,,,,,,,741.3101,743.1099,743.1099,743.663,return,0.1322,,73.828125,,,,,,FBP-YG-19.png,0.4,1.2,28,1,,,,,,,,,,,,,0,13,13,27,1,,,,,,,,,,,,,,,,,,,,,,,,,,,,
,,,,,V1_018,19,Female,2024-05-15_16h57.08.036,jersey_experiment_5_v1,2023.2.2,Win32,84.03361344,,,,,,,,,,,,,,,,743.6631,745.4631,745.4632,746.3807,return,0.1297,,85.67708333,,,,,,FBP-YG-18.png,0.43,1.2,24,1,,,,,,,,,,,,,0,14,14,23,1,,,,,,,,,,,,,,,,,,,,,,,,,,,,
,,,,,V1_018,19,Female,2024-05-15_16h57.08.036,jersey_experiment_5_v1,2023.2.2,Win32,84.03361344,,,,,,,,,,,,,,,,746.381,747.6747,747.6748,748.7455,return,0.1108,,75.390625,,,,,,FBP-PT-81.png,0.37,1.2,7,0.5,,,,,,,,,,,,,0,15,15,6,1,,,,,,,,,,,,,,,,,,,,,,,,,,,,
,,,,,V1_018,19,Female,2024-05-15_16h57.08.036,jersey_experiment_5_v1,2023.2.2,Win32,84.03361344,,,,,,,,,,,,,,,,748.7457,750.5457,750.5458,751.2868,return,0.2075,,99.34895833,,,,,,FBP-YG-18.png,0.45,1.2,25,1,,,,,,,,,,,,,0,16,16,24,1,,,,,,,,,,,,,,,,,,,,,,,,,,,,
,,,,,V1_018,19,Female,2024-05-15_16h57.08.036,jersey_experiment_5_v1,2023.2.2,Win32,84.03361344,,,,,,,,,,,,,,,,751.287,753.0868,753.0869,754.075,return,0.1541,,87.36979167,,,,,,FBP-RB-91.png,0.35,1.2,56,1,,,,,,,,,,,,,0,17,17,55,1,,,,,,,,,,,,,,,,,,,,,,,,,,,,
,,,,,V1_018,19,Female,2024-05-15_16h57.08.036,jersey_experiment_5_v1,2023.2.2,Win32,84.03361344,,,,,,,,,,,,,,,,754.0752,755.3692,755.3692,756.1575,return,0.1553,,87.109375,,,,,,FBP-PT-91.png,0.4,1.2,13,0.5,,,,,,,,,,,,,0,18,18,12,1,,,,,,,,,,,,,,,,,,,,,,,,,,,,
,,,,,V1_018,19,Female,2024-05-15_16h57.08.036,jersey_experiment_5_v1,2023.2.2,Win32,84.03361344,,,,,,,,,,,,,,,,756.1578,757.9576,757.9576,758.8752,return,0.3895,,87.5,,,,,,FBP-RB-91.png,0.45,1.2,60,1,,,,,,,,,,,,,0,19,19,59,1,,,,,,,,,,,,,,,,,,,,,,,,,,,,
,,,,,V1_018,19,Female,2024-05-15_16h57.08.036,jersey_experiment_5_v1,2023.2.2,Win32,84.03361344,,,,,,,,,,,,,,,,758.8754,760.6754,760.6754,761.2636,return,0.1643,,88.02083333,,,,,,FBP-YG-19.png,0.43,1.2,29,1,,,,,,,,,,,,,0,20,20,28,1,,,,,,,,,,,,,,,,,,,,,,,,,,,,
,,,,,V1_018,19,Female,2024-05-15_16h57.08.036,jersey_experiment_5_v1,2023.2.2,Win32,84.03361344,,,,,,,,,,,,,,,,761.2638,763.0636,763.0636,766.4759,return,0.9441,,68.359375,,,,,,FBP-YG-19.png,0.37,1.2,27,1,,,,,,,,,,,,,0,21,21,26,1,,,,,,,,,,,,,,,,,,,,,,,,,,,,
,,,,,V1_018,19,Female,2024-05-15_16h57.08.036,jersey_experiment_5_v1,2023.2.2,Win32,84.03361344,,,,,,,,,,,,,,,,766.476,768.2758,768.2758,769.4993,return,0.1319,,90.234375,,,,,,FBP-RB-81.png,0.43,1.2,54,1,,,,,,,,,,,,,0,22,22,53,1,,,,,,,,,,,,,,,,,,,,,,,,,,,,
,,,,,V1_018,19,Female,2024-05-15_16h57.08.036,jersey_experiment_5_v1,2023.2.2,Win32,84.03361344,,,,,,,,,,,,,,,,769.4995,771.2993,771.2993,772.2522,return,0.0848,,99.73958333,,,,,,FBP-RB-81.png,0.45,1.2,55,1,,,,,,,,,,,,,0,23,23,54,1,,,,,,,,,,,,,,,,,,,,,,,,,,,,
,,,,,V1_018,19,Female,2024-05-15_16h57.08.036,jersey_experiment_5_v1,2023.2.2,Win32,84.03361344,,,,,,,,,,,,,,,,772.2525,774.0522,774.0523,777.1348,return,0.6589,,75.65104167,,,,,,FBP-OG-18.png,0.43,1.2,39,1,,,,,,,,,,,,,0,24,24,38,1,,,,,,,,,,,,,,,,,,,,,,,,,,,,
,,,,,V1_018,19,Female,2024-05-15_16h57.08.036,jersey_experiment_5_v1,2023.2.2,Win32,84.03361344,,,,,,,,,,,,,,,,777.1349,778.935,778.935,779.9468,return,0.0718,,99.08854167,,,,,,FBP-YG-19.png,0.45,1.2,30,1,,,,,,,,,,,,,0,25,25,29,1,,,,,,,,,,,,,,,,,,,,,,,,,,,,
,,,,,V1_018,19,Female,2024-05-15_16h57.08.036,jersey_experiment_5_v1,2023.2.2,Win32,84.03361344,,,,,,,,,,,,,,,,779.9469,781.7468,781.7468,782.6997,return,0.0479,,74.609375,,,,,,FBP-OG-19.png,0.4,1.2,43,1,,,,,,,,,,,,,0,26,26,42,1,,,,,,,,,,,,,,,,,,,,,,,,,,,,
,,,,,V1_018,19,Female,2024-05-15_16h57.08.036,jersey_experiment_5_v1,2023.2.2,Win32,84.03361344,,,,,,,,,,,,,,,,782.6999,784.4997,784.4997,785.0408,return,0.0807,,74.73958333,,,,,,FBP-RB-91.png,0.4,1.2,58,1,,,,,,,,,,,,,0,27,27,57,1,,,,,,,,,,,,,,,,,,,,,,,,,,,,
,,,,,V1_018,19,Female,2024-05-15_16h57.08.036,jersey_experiment_5_v1,2023.2.2,Win32,84.03361344,,,,,,,,,,,,,,,,785.041,786.8411,786.8412,788.1704,return,0.1217,,25.52083333,,,,,,FBP-YG-17.png,0.37,1.2,17,1,,,,,,,,,,,,,0,28,28,16,1,,,,,,,,,,,,,,,,,,,,,,,,,,,,
,,,,,V1_018,19,Female,2024-05-15_16h57.08.036,jersey_experiment_5_v1,2023.2.2,Win32,84.03361344,,,,,,,,,,,,,,,,788.1706,789.9705,789.9707,791.4176,return,0.1228,,0.260416667,,,,,,FBP-RB-71.png,0.35,1.2,46,1,,,,,,,,,,,,,0,29,29,45,1,,,,,,,,,,,,,,,,,,,,,,,,,,,,
,,,,,V1_018,19,Female,2024-05-15_16h57.08.036,jersey_experiment_5_v1,2023.2.2,Win32,84.03361344,,,,,,,,,,,,,,,,791.418,793.2178,793.2178,794.7119,return,0.171,,87.63020833,,,,,,FBP-YG-17.png,0.45,1.2,20,1,,,,,,,,,,,,,0,30,30,19,1,,,,,,,,,,,,,,,,,,,,,,,,,,,,
,,,,,V1_018,19,Female,2024-05-15_16h57.08.036,jersey_experiment_5_v1,2023.2.2,Win32,84.03361344,,,,,,,,,,,,,,,,794.712,796.5121,796.5121,797.8296,return,0.0441,,50.52083333,,,,,,FBP-OG-17.png,0.37,1.2,32,1,,,,,,,,,,,,,0,31,31,31,1,,,,,,,,,,,,,,,,,,,,,,,,,,,,
,,,,,V1_018,19,Female,2024-05-15_16h57.08.036,jersey_experiment_5_v1,2023.2.2,Win32,84.03361344,,,,,,,,,,,,,,,,797.8296,799.1239,799.1239,800.2061,return,0.0136,,75.26041667,,,,,,FBP-PT-91.png,0.43,1.2,14,0.5,,,,,,,,,,,,,0,32,32,13,1,,,,,,,,,,,,,,,,,,,,,,,,,,,,
,,,,,V1_018,19,Female,2024-05-15_16h57.08.036,jersey_experiment_5_v1,2023.2.2,Win32,84.03361344,,,,,,,,,,,,,,,,800.2063,801.5004,801.5004,802.7946,return,0.0626,,24.86979167,,,,,,FBP-PT-91.png,0.35,1.2,11,0.5,,,,,,,,,,,,,0,33,33,10,1,,,,,,,,,,,,,,,,,,,,,,,,,,,,
,,,,,V1_018,19,Female,2024-05-15_16h57.08.036,jersey_experiment_5_v1,2023.2.2,Win32,84.03361344,,,,,,,,,,,,,,,,802.7948,804.5944,804.5944,805.0065,return,0.1881,,24.609375,,,,,,FBP-OG-19.png,0.37,1.2,42,1,,,,,,,,,,,,,0,34,34,41,1,,,,,,,,,,,,,,,,,,,,,,,,,,,,
,,,,,V1_018,19,Female,2024-05-15_16h57.08.036,jersey_experiment_5_v1,2023.2.2,Win32,84.03361344,,,,,,,,,,,,,,,,805.0067,806.8064,806.8064,808.524,return,0.7886,,92.44791667,,,,,,FBP-RB-71.png,0.45,1.2,50,1,,,,,,,,,,,,,0,35,35,49,1,,,,,,,,,,,,,,,,,,,,,,,,,,,,
,,,,,V1_018,19,Female,2024-05-15_16h57.08.036,jersey_experiment_5_v1,2023.2.2,Win32,84.03361344,,,,,,,,,,,,,,,,808.5242,810.3241,810.3242,811.4302,return,0.0906,,74.73958333,,,,,,FBP-YG-18.png,0.4,1.2,23,1,,,,,,,,,,,,,0,36,36,22,1,,,,,,,,,,,,,,,,,,,,,,,,,,,,
,,,,,V1_018,19,Female,2024-05-15_16h57.08.036,jersey_experiment_5_v1,2023.2.2,Win32,84.03361344,,,,,,,,,,,,,,,,811.4303,812.7242,812.7242,813.242,return,0.1094,,74.609375,,,,,,FBP-PT-81.png,0.4,1.2,8,0.5,,,,,,,,,,,,,0,37,37,7,1,,,,,,,,,,,,,,,,,,,,,,,,,,,,
,,,,,V1_018,19,Female,2024-05-15_16h57.08.036,jersey_experiment_5_v1,2023.2.2,Win32,84.03361344,,,,,,,,,,,,,,,,813.2421,815.042,815.042,816.9596,return,1.05,,38.15104167,,,,,,FBP-OG-19.png,0.35,1.2,41,1,,,,,,,,,,,,,0,38,38,40,1,,,,,,,,,,,,,,,,,,,,,,,,,,,,
,,,,,V1_018,19,Female,2024-05-15_16h57.08.036,jersey_experiment_5_v1,2023.2.2,Win32,84.03361344,,,,,,,,,,,,,,,,816.9598,818.7599,818.7599,820.1363,return,0.074,,75,,,,,,FBP-RB-81.png,0.4,1.2,53,1,,,,,,,,,,,,,0,39,39,52,1,,,,,,,,,,,,,,,,,,,,,,,,,,,,
,,,,,V1_018,19,Female,2024-05-15_16h57.08.036,jersey_experiment_5_v1,2023.2.2,Win32,84.03361344,,,,,,,,,,,,,,,,820.1366,821.9363,821.9363,822.9835,return,0.1223,,95.703125,,,,,,FBP-OG-17.png,0.45,1.2,35,1,,,,,,,,,,,,,0,40,40,34,1,,,,,,,,,,,,,,,,,,,,,,,,,,,,
,,,,,V1_018,19,Female,2024-05-15_16h57.08.036,jersey_experiment_5_v1,2023.2.2,Win32,84.03361344,,,,,,,,,,,,,,,,822.9837,824.2778,824.2778,825.7836,return,0.1218,,35.28645833,,,,,,FBP-PT-91.png,0.37,1.2,12,0.5,,,,,,,,,,,,,0,41,41,11,1,,,,,,,,,,,,,,,,,,,,,,,,,,,,
,,,,,V1_018,19,Female,2024-05-15_16h57.08.036,jersey_experiment_5_v1,2023.2.2,Win32,84.03361344,,,,,,,,,,,,,,,,825.7838,827.5837,827.5837,828.3366,return,0.1884,,35.28645833,,,,,,FBP-YG-18.png,0.37,1.2,22,1,,,,,,,,,,,,,0,42,42,21,1,,,,,,,,,,,,,,,,,,,,,,,,,,,,
,,,,,V1_018,19,Female,2024-05-15_16h57.08.036,jersey_experiment_5_v1,2023.2.2,Win32,84.03361344,,,,,,,,,,,,,,,,828.3368,829.6307,829.6307,830.6073,return,0.0607,,33.984375,,,,,,FBP-PT-71.png,0.37,1.2,2,0.5,,,,,,,,,,,,,0,43,43,1,1,,,,,,,,,,,,,,,,,,,,,,,,,,,,
,,,,,V1_018,19,Female,2024-05-15_16h57.08.036,jersey_experiment_5_v1,2023.2.2,Win32,84.03361344,,,,,,,,,,,,,,,,830.6076,831.9014,831.9014,833.4782,return,0.1004,,24.34895833,,,,,,FBP-PT-71.png,0.35,1.2,1,0.5,,,,,,,,,,,,,0,44,44,0,1,,,,,,,,,,,,,,,,,,,,,,,,,,,,
,,,,,V1_018,19,Female,2024-05-15_16h57.08.036,jersey_experiment_5_v1,2023.2.2,Win32,84.03361344,,,,,,,,,,,,,,,,833.4784,835.278,835.278,837.4077,return,0.1547,,49.47916667,,,,,,FBP-RB-71.png,0.4,1.2,48,1,,,,,,,,,,,,,0,45,45,47,1,,,,,,,,,,,,,,,,,,,,,,,,,,,,
,,,,,V1_018,19,Female,2024-05-15_16h57.08.036,jersey_experiment_5_v1,2023.2.2,Win32,84.03361344,,,,,,,,,,,,,,,,837.4081,839.2075,839.2075,840.4782,return,0.1041,,74.609375,,,,,,FBP-RB-91.png,0.43,1.2,59,1,,,,,,,,,,,,,0,46,46,58,1,,,,,,,,,,,,,,,,,,,,,,,,,,,,
,,,,,V1_018,19,Female,2024-05-15_16h57.08.036,jersey_experiment_5_v1,2023.2.2,Win32,84.03361344,,,,,,,,,,,,,,,,840.4784,842.2784,842.2784,842.8431,return,0.156,,72.65625,,,,,,FBP-YG-17.png,0.43,1.2,19,1,,,,,,,,,,,,,0,47,47,18,1,,,,,,,,,,,,,,,,,,,,,,,,,,,,
,,,,,V1_018,19,Female,2024-05-15_16h57.08.036,jersey_experiment_5_v1,2023.2.2,Win32,84.03361344,,,,,,,,,,,,,,,,842.8432,844.6431,844.6431,846.4785,return,0.0804,,80.98958333,,,,,,FBP-OG-17.png,0.43,1.2,34,1,,,,,,,,,,,,,0,48,48,33,1,,,,,,,,,,,,,,,,,,,,,,,,,,,,
,,,,,V1_018,19,Female,2024-05-15_16h57.08.036,jersey_experiment_5_v1,2023.2.2,Win32,84.03361344,,,,,,,,,,,,,,,,846.4786,848.2787,848.2787,850.0904,return,0.1196,,32.29166667,,,,,,FBP-RB-81.png,0.35,1.2,51,1,,,,,,,,,,,,,0,49,49,50,1,,,,,,,,,,,,,,,,,,,,,,,,,,,,
,,,,,V1_018,19,Female,2024-05-15_16h57.08.036,jersey_experiment_5_v1,2023.2.2,Win32,84.03361344,,,,,,,,,,,,,,,,850.0905,851.8904,851.8905,852.5727,return,0.2131,,32.421875,,,,,,FBP-YG-17.png,0.35,1.2,16,1,,,,,,,,,,,,,0,50,50,15,1,,,,,,,,,,,,,,,,,,,,,,,,,,,,
,,,,,V1_018,19,Female,2024-05-15_16h57.08.036,jersey_experiment_5_v1,2023.2.2,Win32,84.03361344,,,,,,,,,,,,,,,,852.5729,854.3729,854.373,856.6554,return,1.2374,,91.53645833,,,,,,FBP-OG-19.png,0.43,1.2,44,1,,,,,,,,,,,,,0,51,51,43,1,,,,,,,,,,,,,,,,,,,,,,,,,,,,
,,,,,V1_018,19,Female,2024-05-15_16h57.08.036,jersey_experiment_5_v1,2023.2.2,Win32,84.03361344,,,,,,,,,,,,,,,,856.6556,857.9494,857.9494,859.2908,return,0.2034,,87.36979167,,,,,,FBP-PT-71.png,0.4,1.2,3,0.5,,,,,,,,,,,,,0,52,52,2,1,,,,,,,,,,,,,,,,,,,,,,,,,,,,
,,,,,V1_018,19,Female,2024-05-15_16h57.08.036,jersey_experiment_5_v1,2023.2.2,Win32,84.03361344,,,,,,,,,,,,,,,,859.2911,861.0908,861.0908,862.4909,return,0.0956,,34.50520833,,,,,,FBP-YG-18.png,0.35,1.2,21,1,,,,,,,,,,,,,0,53,53,20,1,,,,,,,,,,,,,,,,,,,,,,,,,,,,
,,,,,V1_018,19,Female,2024-05-15_16h57.08.036,jersey_experiment_5_v1,2023.2.2,Win32,84.03361344,,,,,,,,,,,,,,,,862.491,864.291,864.291,865.6557,return,0.0773,,75.390625,,,,,,FBP-OG-18.png,0.45,1.2,40,1,,,,,,,,,,,,,0,54,54,39,1,,,,,,,,,,,,,,,,,,,,,,,,,,,,
,,,,,V1_018,19,Female,2024-05-15_16h57.08.036,jersey_experiment_5_v1,2023.2.2,Win32,84.03361344,,,,,,,,,,,,,,,,865.6559,867.4557,867.4557,868.6558,return,0.0698,,75,,,,,,FBP-RB-91.png,0.37,1.2,57,1,,,,,,,,,,,,,0,55,55,56,1,,,,,,,,,,,,,,,,,,,,,,,,,,,,
,,,,,V1_018,19,Female,2024-05-15_16h57.08.036,jersey_experiment_5_v1,2023.2.2,Win32,84.03361344,,,,,,,,,,,,,,,,868.6559,870.4558,870.4558,873.2088,return,1.4169,,46.35416667,,,,,,FBP-OG-18.png,0.37,1.2,37,1,,,,,,,,,,,,,0,56,56,36,1,,,,,,,,,,,,,,,,,,,,,,,,,,,,
,,,,,V1_018,19,Female,2024-05-15_16h57.08.036,jersey_experiment_5_v1,2023.2.2,Win32,84.03361344,,,,,,,,,,,,,,,,873.209,875.009,875.009,876.2678,return,0.082,,36.84895833,,,,,,FBP-RB-81.png,0.37,1.2,52,1,,,,,,,,,,,,,0,57,57,51,1,,,,,,,,,,,,,,,,,,,,,,,,,,,,
,,,,,V1_018,19,Female,2024-05-15_16h57.08.036,jersey_experiment_5_v1,2023.2.2,Win32,84.03361344,,,,,,,,,,,,,,,,876.2679,877.5619,877.562,879.5974,return,0.1075,,74.34895833,,,,,,FBP-PT-81.png,0.43,1.2,9,0.5,,,,,,,,,,,,,0,58,58,8,1,,,,,,,,,,,,,,,,,,,,,,,,,,,,
,,,,,V1_018,19,Female,2024-05-15_16h57.08.036,jersey_experiment_5_v1,2023.2.2,Win32,84.03361344,,,,,,,,,,,,,,,,879.5976,881.3974,881.3974,882.5386,return,0.142,,75.13020833,,,,,,FBP-OG-17.png,0.4,1.2,33,1,,,,,,,,,,,,,0,59,59,32,1,,,,,,,,,,,,,,,,,,,,,,,,,,,,
,,,,,V1_018,19,Female,2024-05-15_16h57.08.036,jersey_experiment_5_v1,2023.2.2,Win32,84.03361344,,,,,,,,,,,,,,,,882.5405,884.3386,884.3387,886.5035,return,0.1344,,31.38020833,,,,,,FBP-YG-71.png,0.35,1.2,16,1,,,,,,,,,,,,,,,,,,0,0,0,15,1,,,,,,,,,,,,,,,,,,,,,,,
,,,,,V1_018,19,Female,2024-05-15_16h57.08.036,jersey_experiment_5_v1,2023.2.2,Win32,84.03361344,,,,,,,,,,,,,,,,886.5038,888.3035,888.3035,891.5036,return,0.0714,,50,,,,,,FBP-YG-71.png,0.37,1.2,17,1,,,,,,,,,,,,,,,,,,0,1,1,16,1,,,,,,,,,,,,,,,,,,,,,,,
,,,,,V1_018,19,Female,2024-05-15_16h57.08.036,jersey_experiment_5_v1,2023.2.2,Win32,84.03361344,,,,,,,,,,,,,,,,891.5038,893.3036,893.3036,894.1391,return,0.1092,,75.13020833,,,,,,FBP-OG-91.png,0.43,1.2,44,1,,,,,,,,,,,,,,,,,,0,2,2,43,1,,,,,,,,,,,,,,,,,,,,,,,
,,,,,V1_018,19,Female,2024-05-15_16h57.08.036,jersey_experiment_5_v1,2023.2.2,Win32,84.03361344,,,,,,,,,,,,,,,,894.1392,895.939,895.939,897.6804,return,0.1504,,32.29166667,,,,,,FBP-RB-17.png,0.35,1.2,46,1,,,,,,,,,,,,,,,,,,0,3,3,45,1,,,,,,,,,,,,,,,,,,,,,,,
,,,,,V1_018,19,Female,2024-05-15_16h57.08.036,jersey_experiment_5_v1,2023.2.2,Win32,84.03361344,,,,,,,,,,,,,,,,897.6805,898.9746,898.9746,900.6687,return,0.1054,,49.34895833,,,,,,FBP-PT-18.png,0.35,1.2,6,0.5,,,,,,,,,,,,,,,,,,0,4,4,5,1,,,,,,,,,,,,,,,,,,,,,,,
,,,,,V1_018,19,Female,2024-05-15_16h57.08.036,jersey_experiment_5_v1,2023.2.2,Win32,84.03361344,,,,,,,,,,,,,,,,900.6689,902.4689,902.4689,902.9865,return,0.1196,,49.34895833,,,,,,FBP-YG-81.png,0.37,1.2,22,1,,,,,,,,,,,,,,,,,,0,5,5,21,1,,,,,,,,,,,,,,,,,,,,,,,
,,,,,V1_018,19,Female,2024-05-15_16h57.08.036,jersey_experiment_5_v1,2023.2.2,Win32,84.03361344,,,,,,,,,,,,,,,,902.9867,904.2805,904.2805,906.9512,return,0.0874,,74.86979167,,,,,,FBP-PT-18.png,0.4,1.2,8,0.5,,,,,,,,,,,,,,,,,,0,6,6,7,1,,,,,,,,,,,,,,,,,,,,,,,
,,,,,V1_018,19,Female,2024-05-15_16h57.08.036,jersey_experiment_5_v1,2023.2.2,Win32,84.03361344,,,,,,,,,,,,,,,,906.9513,908.2454,908.2454,910.622,return,0.1414,,50,,,,,,FBP-PT-17.png,0.37,1.2,2,0.5,,,,,,,,,,,,,,,,,,0,7,7,1,1,,,,,,,,,,,,,,,,,,,,,,,
,,,,,V1_018,19,Female,2024-05-15_16h57.08.036,jersey_experiment_5_v1,2023.2.2,Win32,84.03361344,,,,,,,,,,,,,,,,910.6222,912.4221,912.4221,913.9162,return,0.0833,,50.13020833,,,,,,FBP-OG-91.png,0.35,1.2,41,1,,,,,,,,,,,,,,,,,,0,8,8,40,1,,,,,,,,,,,,,,,,,,,,,,,
,,,,,V1_018,19,Female,2024-05-15_16h57.08.036,jersey_experiment_5_v1,2023.2.2,Win32,84.03361344,,,,,,,,,,,,,,,,913.9165,915.2104,915.2104,916.6341,return,0.0628,,74.609375,,,,,,FBP-PT-18.png,0.43,1.2,9,0.5,,,,,,,,,,,,,,,,,,0,9,9,8,1,,,,,,,,,,,,,,,,,,,,,,,
,,,,,V1_018,19,Female,2024-05-15_16h57.08.036,jersey_experiment_5_v1,2023.2.2,Win32,84.03361344,,,,,,,,,,,,,,,,916.6343,918.434,918.434,919.3401,return,0.2023,,87.5,,,,,,FBP-YG-81.png,0.43,1.2,24,1,,,,,,,,,,,,,,,,,,0,10,10,23,1,,,,,,,,,,,,,,,,,,,,,,,
,,,,,V1_018,19,Female,2024-05-15_16h57.08.036,jersey_experiment_5_v1,2023.2.2,Win32,84.03361344,,,,,,,,,,,,,,,,919.3404,921.14,921.14,922.5284,return,0.1514,,62.76041667,,,,,,FBP-OG-71.png,0.35,1.2,31,1,,,,,,,,,,,,,,,,,,0,11,11,30,1,,,,,,,,,,,,,,,,,,,,,,,
,,,,,V1_018,19,Female,2024-05-15_16h57.08.036,jersey_experiment_5_v1,2023.2.2,Win32,84.03361344,,,,,,,,,,,,,,,,922.5285,924.3283,924.3283,925.6578,return,0.2026,,88.671875,,,,,,FBP-RB-19.png,0.43,1.2,59,1,,,,,,,,,,,,,,,,,,0,12,12,58,1,,,,,,,,,,,,,,,,,,,,,,,
,,,,,V1_018,19,Female,2024-05-15_16h57.08.036,jersey_experiment_5_v1,2023.2.2,Win32,84.03361344,,,,,,,,,,,,,,,,925.658,927.4579,927.4579,928.5873,return,0.0953,,86.84895833,,,,,,FBP-YG-81.png,0.4,1.2,23,1,,,,,,,,,,,,,,,,,,0,13,13,22,1,,,,,,,,,,,,,,,,,,,,,,,
,,,,,V1_018,19,Female,2024-05-15_16h57.08.036,jersey_experiment_5_v1,2023.2.2,Win32,84.03361344,,,,,,,,,,,,,,,,928.5875,930.3874,930.3874,931.0461,return,0.1021,,87.109375,,,,,,FBP-YG-71.png,0.43,1.2,19,1,,,,,,,,,,,,,,,,,,0,14,14,18,1,,,,,,,,,,,,,,,,,,,,,,,
,,,,,V1_018,19,Female,2024-05-15_16h57.08.036,jersey_experiment_5_v1,2023.2.2,Win32,84.03361344,,,,,,,,,,,,,,,,931.0464,932.8467,932.8467,933.6699,return,0.0766,,74.86979167,,,,,,FBP-OG-81.png,0.37,1.2,37,1,,,,,,,,,,,,,,,,,,0,15,15,36,1,,,,,,,,,,,,,,,,,,,,,,,
,,,,,V1_018,19,Female,2024-05-15_16h57.08.036,jersey_experiment_5_v1,2023.2.2,Win32,84.03361344,,,,,,,,,,,,,,,,933.6701,935.47,935.47,937.0229,return,0.0571,,49.86979167,,,,,,FBP-RB-19.png,0.35,1.2,56,1,,,,,,,,,,,,,,,,,,0,16,16,55,1,,,,,,,,,,,,,,,,,,,,,,,
,,,,,V1_018,19,Female,2024-05-15_16h57.08.036,jersey_experiment_5_v1,2023.2.2,Win32,84.03361344,,,,,,,,,,,,,,,,937.0231,938.823,938.823,939.2936,return,0.1172,,49.86979167,,,,,,FBP-OG-91.png,0.37,1.2,42,1,,,,,,,,,,,,,,,,,,0,17,17,41,1,,,,,,,,,,,,,,,,,,,,,,,
,,,,,V1_018,19,Female,2024-05-15_16h57.08.036,jersey_experiment_5_v1,2023.2.2,Win32,84.03361344,,,,,,,,,,,,,,,,939.2938,941.0937,941.0937,942.3997,return,0.0716,,68.359375,,,,,,FBP-OG-71.png,0.4,1.2,33,1,,,,,,,,,,,,,,,,,,0,18,18,32,1,,,,,,,,,,,,,,,,,,,,,,,
,,,,,V1_018,19,Female,2024-05-15_16h57.08.036,jersey_experiment_5_v1,2023.2.2,Win32,84.03361344,,,,,,,,,,,,,,,,942.3999,943.6938,943.6938,944.5527,return,0.0761,,68.09895833,,,,,,FBP-PT-19.png,0.4,1.2,13,0.5,,,,,,,,,,,,,,,,,,0,19,19,12,1,,,,,,,,,,,,,,,,,,,,,,,
,,,,,V1_018,19,Female,2024-05-15_16h57.08.036,jersey_experiment_5_v1,2023.2.2,Win32,84.03361344,,,,,,,,,,,,,,,,944.5529,946.3527,946.3528,946.8704,return,0.1372,,68.09895833,,,,,,FBP-OG-71.png,0.37,1.2,32,1,,,,,,,,,,,,,,,,,,0,20,20,31,1,,,,,,,,,,,,,,,,,,,,,,,
,,,,,V1_018,19,Female,2024-05-15_16h57.08.036,jersey_experiment_5_v1,2023.2.2,Win32,84.03361344,,,,,,,,,,,,,,,,946.8706,948.6704,948.6705,949.5412,return,0.0895,,68.09895833,,,,,,FBP-RB-19.png,0.4,1.2,58,1,,,,,,,,,,,,,,,,,,0,21,21,57,1,,,,,,,,,,,,,,,,,,,,,,,
,,,,,V1_018,19,Female,2024-05-15_16h57.08.036,jersey_experiment_5_v1,2023.2.2,Win32,84.03361344,,,,,,,,,,,,,,,,949.5415,951.3412,951.3412,952.5883,return,0.0143,,75,,,,,,FBP-OG-91.png,0.4,1.2,43,1,,,,,,,,,,,,,,,,,,0,22,22,42,1,,,,,,,,,,,,,,,,,,,,,,,
,,,,,V1_018,19,Female,2024-05-15_16h57.08.036,jersey_experiment_5_v1,2023.2.2,Win32,84.03361344,,,,,,,,,,,,,,,,952.5885,954.3882,954.3882,956.3413,return,0.0896,,42.83854167,,,,,,FBP-YG-91.png,0.37,1.2,27,1,,,,,,,,,,,,,,,,,,0,23,23,26,1,,,,,,,,,,,,,,,,,,,,,,,
,,,,,V1_018,19,Female,2024-05-15_16h57.08.036,jersey_experiment_5_v1,2023.2.2,Win32,84.03361344,,,,,,,,,,,,,,,,956.3415,957.6353,957.6353,960.1532,return,0.0989,,92.70833333,,,,,,FBP-PT-19.png,0.43,1.2,14,0.5,,,,,,,,,,,,,,,,,,0,24,24,13,1,,,,,,,,,,,,,,,,,,,,,,,
,,,,,V1_018,19,Female,2024-05-15_16h57.08.036,jersey_experiment_5_v1,2023.2.2,Win32,84.03361344,,,,,,,,,,,,,,,,960.1534,961.9533,961.9533,962.7298,return,0.12,,92.578125,,,,,,FBP-RB-18.png,0.43,1.2,54,1,,,,,,,,,,,,,,,,,,0,25,25,53,1,,,,,,,,,,,,,,,,,,,,,,,
,,,,,V1_018,19,Female,2024-05-15_16h57.08.036,jersey_experiment_5_v1,2023.2.2,Win32,84.03361344,,,,,,,,,,,,,,,,962.73,964.5299,964.5299,965.8475,return,0.1242,,75.52083333,,,,,,FBP-OG-81.png,0.4,1.2,38,1,,,,,,,,,,,,,,,,,,0,26,26,37,1,,,,,,,,,,,,,,,,,,,,,,,
,,,,,V1_018,19,Female,2024-05-15_16h57.08.036,jersey_experiment_5_v1,2023.2.2,Win32,84.03361344,,,,,,,,,,,,,,,,965.8476,967.1416,967.1417,968.7653,return,0.0815,,49.73958333,,,,,,FBP-PT-18.png,0.37,1.2,7,0.5,,,,,,,,,,,,,,,,,,0,27,27,6,1,,,,,,,,,,,,,,,,,,,,,,,
,,,,,V1_018,19,Female,2024-05-15_16h57.08.036,jersey_experiment_5_v1,2023.2.2,Win32,84.03361344,,,,,,,,,,,,,,,,968.7656,970.5654,970.5654,971.2007,return,0.2011,,50.26041667,,,,,,FBP-RB-19.png,0.37,1.2,57,1,,,,,,,,,,,,,,,,,,0,28,28,56,1,,,,,,,,,,,,,,,,,,,,,,,
,,,,,V1_018,19,Female,2024-05-15_16h57.08.036,jersey_experiment_5_v1,2023.2.2,Win32,84.03361344,,,,,,,,,,,,,,,,971.2009,973.0008,973.0008,974.5421,return,0.1317,,88.28125,,,,,,FBP-RB-17.png,0.45,1.2,50,1,,,,,,,,,,,,,,,,,,0,29,29,49,1,,,,,,,,,,,,,,,,,,,,,,,
,,,,,V1_018,19,Female,2024-05-15_16h57.08.036,jersey_experiment_5_v1,2023.2.2,Win32,84.03361344,,,,,,,,,,,,,,,,974.5422,975.8362,975.8362,977.2127,return,0.0723,,99.86979167,,,,,,FBP-PT-18.png,0.45,1.2,10,0.5,,,,,,,,,,,,,,,,,,0,30,30,9,1,,,,,,,,,,,,,,,,,,,,,,,
,,,,,V1_018,19,Female,2024-05-15_16h57.08.036,jersey_experiment_5_v1,2023.2.2,Win32,84.03361344,,,,,,,,,,,,,,,,977.2128,979.0128,979.0128,979.6599,return,0.224,,99.609375,,,,,,FBP-OG-81.png,0.45,1.2,40,1,,,,,,,,,,,,,,,,,,0,31,31,39,1,,,,,,,,,,,,,,,,,,,,,,,
,,,,,V1_018,19,Female,2024-05-15_16h57.08.036,jersey_experiment_5_v1,2023.2.2,Win32,84.03361344,,,,,,,,,,,,,,,,979.66,981.46,981.46,982.2246,return,0.1514,,99.609375,,,,,,FBP-YG-91.png,0.45,1.2,30,1,,,,,,,,,,,,,,,,,,0,32,32,29,1,,,,,,,,,,,,,,,,,,,,,,,
,,,,,V1_018,19,Female,2024-05-15_16h57.08.036,jersey_experiment_5_v1,2023.2.2,Win32,84.03361344,,,,,,,,,,,,,,,,982.2248,984.0248,984.0248,984.7659,return,0.3161,,99.609375,,,,,,FBP-YG-81.png,0.45,1.2,25,1,,,,,,,,,,,,,,,,,,0,33,33,24,1,,,,,,,,,,,,,,,,,,,,,,,
,,,,,V1_018,19,Female,2024-05-15_16h57.08.036,jersey_experiment_5_v1,2023.2.2,Win32,84.03361344,,,,,,,,,,,,,,,,984.766,986.5662,986.5662,988.0486,return,0.2492,,13.02083333,,,,,,FBP-RB-18.png,0.35,1.2,51,1,,,,,,,,,,,,,,,,,,0,34,34,50,1,,,,,,,,,,,,,,,,,,,,,,,
,,,,,V1_018,19,Female,2024-05-15_16h57.08.036,jersey_experiment_5_v1,2023.2.2,Win32,84.03361344,,,,,,,,,,,,,,,,988.0487,989.8484,989.8485,991.1779,return,0.0501,,14.453125,,,,,,FBP-YG-81.png,0.35,1.2,21,1,,,,,,,,,,,,,,,,,,0,35,35,20,1,,,,,,,,,,,,,,,,,,,,,,,
,,,,,V1_018,19,Female,2024-05-15_16h57.08.036,jersey_experiment_5_v1,2023.2.2,Win32,84.03361344,,,,,,,,,,,,,,,,991.1781,992.4721,992.4721,993.8486,return,0.0293,,75.390625,,,,,,FBP-PT-17.png,0.43,1.2,4,0.5,,,,,,,,,,,,,,,,,,0,36,36,3,1,,,,,,,,,,,,,,,,,,,,,,,
,,,,,V1_018,19,Female,2024-05-15_16h57.08.036,jersey_experiment_5_v1,2023.2.2,Win32,84.03361344,,,,,,,,,,,,,,,,993.8487,995.1427,995.1428,996.8956,return,0.1079,,24.21875,,,,,,FBP-PT-19.png,0.35,1.2,11,0.5,,,,,,,,,,,,,,,,,,0,37,37,10,1,,,,,,,,,,,,,,,,,,,,,,,
,,,,,V1_018,19,Female,2024-05-15_16h57.08.036,jersey_experiment_5_v1,2023.2.2,Win32,84.03361344,,,,,,,,,,,,,,,,996.8958,998.6959,998.6959,1000.19,return,0.0611,,75.52083333,,,,,,FBP-RB-18.png,0.4,1.2,53,1,,,,,,,,,,,,,,,,,,0,38,38,52,1,,,,,,,,,,,,,,,,,,,,,,,
,,,,,V1_018,19,Female,2024-05-15_16h57.08.036,jersey_experiment_5_v1,2023.2.2,Win32,84.03361344,,,,,,,,,,,,,,,,1000.1902,1001.9899,1001.9899,1004.6372,return,0.0703,,25.26041667,,,,,,FBP-OG-81.png,0.35,1.2,36,1,,,,,,,,,,,,,,,,,,0,39,39,35,1,,,,,,,,,,,,,,,,,,,,,,,
,,,,,V1_018,19,Female,2024-05-15_16h57.08.036,jersey_experiment_5_v1,2023.2.2,Win32,84.03361344,,,,,,,,,,,,,,,,1004.6373,1006.4373,1006.4373,1007.402,return,0.1324,,82.421875,,,,,,FBP-YG-71.png,0.45,1.2,20,1,,,,,,,,,,,,,,,,,,0,40,40,19,1,,,,,,,,,,,,,,,,,,,,,,,
,,,,,V1_018,19,Female,2024-05-15_16h57.08.036,jersey_experiment_5_v1,2023.2.2,Win32,84.03361344,,,,,,,,,,,,,,,,1007.4022,1009.2021,1009.2021,1009.6372,return,0.1126,,82.421875,,,,,,FBP-YG-71.png,0.4,1.2,18,1,,,,,,,,,,,,,,,,,,0,41,41,17,1,,,,,,,,,,,,,,,,,,,,,,,
,,,,,V1_018,19,Female,2024-05-15_16h57.08.036,jersey_experiment_5_v1,2023.2.2,Win32,84.03361344,,,,,,,,,,,,,,,,1009.6375,1011.4375,1011.4375,1012.0728,return,0.1681,,82.421875,,,,,,FBP-YG-91.png,0.4,1.2,28,1,,,,,,,,,,,,,,,,,,0,42,42,27,1,,,,,,,,,,,,,,,,,,,,,,,
,,,,,V1_018,19,Female,2024-05-15_16h57.08.036,jersey_experiment_5_v1,2023.2.2,Win32,84.03361344,,,,,,,,,,,,,,,,1012.0729,1013.873,1013.873,1015.1905,return,0.0546,,41.796875,,,,,,FBP-YG-91.png,0.35,1.2,26,1,,,,,,,,,,,,,,,,,,0,43,43,25,1,,,,,,,,,,,,,,,,,,,,,,,
,,,,,V1_018,19,Female,2024-05-15_16h57.08.036,jersey_experiment_5_v1,2023.2.2,Win32,84.03361344,,,,,,,,,,,,,,,,1015.1907,1016.9908,1016.9908,1018.5436,return,0.0698,,75.13020833,,,,,,FBP-RB-17.png,0.4,1.2,48,1,,,,,,,,,,,,,,,,,,0,44,44,47,1,,,,,,,,,,,,,,,,,,,,,,,
,,,,,V1_018,19,Female,2024-05-15_16h57.08.036,jersey_experiment_5_v1,2023.2.2,Win32,84.03361344,,,,,,,,,,,,,,,,1018.5439,1020.3437,1020.3437,1021.6731,return,0.2523,,70.57291667,,,,,,FBP-RB-18.png,0.37,1.2,52,1,,,,,,,,,,,,,,,,,,0,45,45,51,1,,,,,,,,,,,,,,,,,,,,,,,
,,,,,V1_018,19,Female,2024-05-15_16h57.08.036,jersey_experiment_5_v1,2023.2.2,Win32,84.03361344,,,,,,,,,,,,,,,,1021.6733,1022.9674,1022.9674,1024.7438,return,0.1945,,74.47916667,,,,,,FBP-PT-17.png,0.4,1.2,3,0.5,,,,,,,,,,,,,,,,,,0,46,46,2,1,,,,,,,,,,,,,,,,,,,,,,,
,,,,,V1_018,19,Female,2024-05-15_16h57.08.036,jersey_experiment_5_v1,2023.2.2,Win32,84.03361344,,,,,,,,,,,,,,,,1024.744,1026.5442,1026.5442,1027.3086,return,0.119,,87.23958333,,,,,,FBP-RB-18.png,0.45,1.2,55,1,,,,,,,,,,,,,,,,,,0,47,47,54,1,,,,,,,,,,,,,,,,,,,,,,,
,,,,,V1_018,19,Female,2024-05-15_16h57.08.036,jersey_experiment_5_v1,2023.2.2,Win32,84.03361344,,,,,,,,,,,,,,,,1027.3088,1029.1087,1029.1087,1029.6617,return,0.0946,,86.71875,,,,,,FBP-OG-81.png,0.43,1.2,39,1,,,,,,,,,,,,,,,,,,0,48,48,38,1,,,,,,,,,,,,,,,,,,,,,,,
,,,,,V1_018,19,Female,2024-05-15_16h57.08.036,jersey_experiment_5_v1,2023.2.2,Win32,84.03361344,,,,,,,,,,,,,,,,1029.6618,1031.4617,1031.4617,1034.2148,return,0.147,,86.71875,,,,,,FBP-OG-91.png,0.45,1.2,45,1,,,,,,,,,,,,,,,,,,0,49,49,44,1,,,,,,,,,,,,,,,,,,,,,,,
,,,,,V1_018,19,Female,2024-05-15_16h57.08.036,jersey_experiment_5_v1,2023.2.2,Win32,84.03361344,,,,,,,,,,,,,,,,1034.215,1036.0148,1036.0148,1038.0854,return,0.0182,,44.53125,,,,,,FBP-RB-17.png,0.37,1.2,47,1,,,,,,,,,,,,,,,,,,0,50,50,46,1,,,,,,,,,,,,,,,,,,,,,,,
,,,,,V1_018,19,Female,2024-05-15_16h57.08.036,jersey_experiment_5_v1,2023.2.2,Win32,84.03361344,,,,,,,,,,,,,,,,1038.0855,1039.3797,1039.3797,1040.6033,return,0.0361,,41.92708333,,,,,,FBP-PT-19.png,0.37,1.2,12,0.5,,,,,,,,,,,,,,,,,,0,51,51,11,1,,,,,,,,,,,,,,,,,,,,,,,
,,,,,V1_018,19,Female,2024-05-15_16h57.08.036,jersey_experiment_5_v1,2023.2.2,Win32,84.03361344,,,,,,,,,,,,,,,,1040.6033,1041.8973,1041.8973,1043.1327,return,0.0942,,42.44791667,,,,,,FBP-PT-17.png,0.35,1.2,1,0.5,,,,,,,,,,,,,,,,,,0,52,52,0,1,,,,,,,,,,,,,,,,,,,,,,,
,,,,,V1_018,19,Female,2024-05-15_16h57.08.036,jersey_experiment_5_v1,2023.2.2,Win32,84.03361344,,,,,,,,,,,,,,,,1043.1328,1044.427,1044.427,1047.0152,return,0.17,,75,,,,,,FBP-PT-17.png,0.45,1.2,5,0.5,,,,,,,,,,,,,,,,,,0,53,53,4,1,,,,,,,,,,,,,,,,,,,,,,,
,,,,,V1_018,19,Female,2024-05-15_16h57.08.036,jersey_experiment_5_v1,2023.2.2,Win32,84.03361344,,,,,,,,,,,,,,,,1047.0155,1048.8154,1048.8154,1049.4859,return,0.1872,,74.47916667,,,,,,FBP-OG-71.png,0.43,1.2,34,1,,,,,,,,,,,,,,,,,,0,54,54,33,1,,,,,,,,,,,,,,,,,,,,,,,
,,,,,V1_018,19,Female,2024-05-15_16h57.08.036,jersey_experiment_5_v1,2023.2.2,Win32,84.03361344,,,,,,,,,,,,,,,,1049.4862,1050.7802,1050.7802,1052.5213,return,0.1685,,87.76041667,,,,,,FBP-PT-19.png,0.45,1.2,15,0.5,,,,,,,,,,,,,,,,,,0,55,55,14,1,,,,,,,,,,,,,,,,,,,,,,,
,,,,,V1_018,19,Female,2024-05-15_16h57.08.036,jersey_experiment_5_v1,2023.2.2,Win32,84.03361344,,,,,,,,,,,,,,,,1052.5216,1054.3213,1054.3213,1054.8626,return,0.1887,,87.76041667,,,,,,FBP-OG-71.png,0.45,1.2,35,1,,,,,,,,,,,,,,,,,,0,56,56,34,1,,,,,,,,,,,,,,,,,,,,,,,
,,,,,V1_018,19,Female,2024-05-15_16h57.08.036,jersey_experiment_5_v1,2023.2.2,Win32,84.03361344,,,,,,,,,,,,,,,,1054.8628,1056.6627,1056.6627,1057.2627,return,0.1885,,87.76041667,,,,,,FBP-YG-91.png,0.43,1.2,29,1,,,,,,,,,,,,,,,,,,0,57,57,28,1,,,,,,,,,,,,,,,,,,,,,,,
,,,,,V1_018,19,Female,2024-05-15_16h57.08.036,jersey_experiment_5_v1,2023.2.2,Win32,84.03361344,,,,,,,,,,,,,,,,1057.2629,1059.0629,1059.0629,1060.8746,return,0.0151,,87.76041667,,,,,,FBP-RB-17.png,0.43,1.2,49,1,,,,,,,,,,,,,,,,,,0,58,58,48,1,,,,,,,,,,,,,,,,,,,,,,,
,,,,,V1_018,19,Female,2024-05-15_16h57.08.036,jersey_experiment_5_v1,2023.2.2,Win32,84.03361344,,,,,,,,,,,,,,,,1060.8748,1062.6747,1062.6747,1063.2628,return,0.1179,,94.53125,,,,,,FBP-RB-19.png,0.45,1.2,60,1,,,,,,,,,,,,,,,,,,0,59,59,59,1,,,,,,,,,,,,,,,,,,,,,,,
,,,,,V1_018,19,Female,2024-05-15_16h57.08.036,jersey_experiment_5_v1,2023.2.2,Win32,84.03361344,,,,,,,,,,,,,,,,,,,,,,,,,,,,,,,,,,,,,,,,,,,,,,,,,,,,,,,,1063.2633,1070.3458,return,7.0729,,,,,,,,,,,,,,,,,,,
,,,,,V1_018,19,Female,2024-05-15_16h57.08.036,jersey_experiment_5_v1,2023.2.2,Win32,84.03361344,,,,,,,,,,,,,,,,,,,,,,,,,,,,,,,,,,,,,,,,,,,,,,,,,,,,,,,,,,,,,1070.3459,1078.9694,1,6.6464,return,1.9552,,,,,,,,,,,,
,,,,,V1_018,19,Female,2024-05-15_16h57.08.036,jersey_experiment_5_v1,2023.2.2,Win32,84.03361344,,,,,,,,,,,,,,,,,,,,,,,,,,,,,,,,,,,,,,,,,,,,,,,,,,,,,,,,,,,,,,,,,,,,1078.9696,1094.2214,No,right,5.4988,,,,,,
,,,,,V1_018,19,Female,2024-05-15_16h57.08.036,jersey_experiment_5_v1,2023.2.2,Win32,84.03361344,,,,,,,,,,,,,,,,,,,,,,,,,,,,,,,,,,,,,,,,,,,,,,,,,,,,,,,,,,,,,,,,,,,,,,,,,,1094.2214,1098.1584,return,3.9237,