requirements.started,requirements.stopped,key_resp_3.keys,key_resp_3.rt,key_resp_3.duration,Subject ID,Age,Gender,date,expName,psychopyVersion,OS,frameRate,instructions1.started,instructions1.stopped,key_resp.keys,key_resp.rt,key_resp.duration,example.started,example.stopped,enter_2.keys,enter_2.rt,enter_2.duration,instructions2.started,instructions2.stopped,enter_3.keys,enter_3.rt,enter_3.duration,image.started,image.stopped,slider_2.started,slider_2.stopped,next.keys,next.rt,next.duration,slider.response,trial_block_1.thisRepN,trial_block_1.thisTrialN,trial_block_1.thisN,trial_block_1.thisIndex,trial_block_1.ran,Path,Width,Height,Index,Duration,trial_block_2.thisRepN,trial_block_2.thisTrialN,trial_block_2.thisN,trial_block_2.thisIndex,trial_block_2.ran,rest_break.started,rest_break.stopped,end_break.started,end_break.stopped,key_resp_5.keys,key_resp_5.rt,key_resp_5.duration,trial_block_3.thisRepN,trial_block_3.thisTrialN,trial_block_3.thisN,trial_block_3.thisIndex,trial_block_3.ran,trial_block_4.thisRepN,trial_block_4.thisTrialN,trial_block_4.thisN,trial_block_4.thisIndex,trial_block_4.ran,questions_intro.started,questions_intro.stopped,enter_12.keys,enter_12.rt,enter_12.duration,question2.started,question2.stopped,question_doingbest.response,question_doingbest.rt,enter_15.keys,enter_15.rt,enter_15.duration,pattern.started,pattern.stopped,pattern_2.text,enter_17.keys,enter_17.rt,enter_17.duration,thankyou.started,thankyou.stopped,enter_14.keys,enter_14.rt,enter_14.duration
0,17.7457,return,17.7328,,V1_038,20,male,2024-05-23_16h33.26.685,jersey_experiment_5_v1,2023.2.2,Win32,84.74576271,,,,,,,,,,,,,,,,,,,,,,,,,,,,,,,,,,,,,,,,,,,,,,,,,,,,,,,,,,,,,,,,,,,,,,,,,,,,,,
,,,,,V1_038,20,male,2024-05-23_16h33.26.685,jersey_experiment_5_v1,2023.2.2,Win32,84.74576271,17.7459,28.3343,return,10.578,,,,,,,,,,,,,,,,,,,,,,,,,,,,,,,,,,,,,,,,,,,,,,,,,,,,,,,,,,,,,,,,,,,,,,,,,,
,,,,,V1_038,20,male,2024-05-23_16h33.26.685,jersey_experiment_5_v1,2023.2.2,Win32,84.74576271,,,,,,28.3344,35.2521,return,6.8857,,,,,,,,,,,,,,,,,,,,,,,,,,,,,,,,,,,,,,,,,,,,,,,,,,,,,,,,,,,,,,,,,,,,,
,,,,,V1_038,20,male,2024-05-23_16h33.26.685,jersey_experiment_5_v1,2023.2.2,Win32,84.74576271,,,,,,,,,,,35.2522,64.2651,return,29.0081,,,,,,,,,,,,,,,,,,,,,,,,,,,,,,,,,,,,,,,,,,,,,,,,,,,,,,,,,,,,,,,,
,,,,,V1_038,20,male,2024-05-23_16h33.26.685,jersey_experiment_5_v1,2023.2.2,Win32,84.74576271,,,,,,,,,,,,,,,,64.2677,65.5708,65.5709,81.2188,return,8.645,,50,0,0,0,29,1,FBP-YG-19.png,0.45,1.2,30,0.5,,,,,,,,,,,,,,,,,,,,,,,,,,,,,,,,,,,,,,,,,,,,,
,,,,,V1_038,20,male,2024-05-23_16h33.26.685,jersey_experiment_5_v1,2023.2.2,Win32,84.74576271,,,,,,,,,,,,,,,,81.219,82.5124,82.5125,87.1126,return,1.3384,,24.609375,0,1,1,25,1,FBP-YG-19.png,0.35,1.2,26,0.5,,,,,,,,,,,,,,,,,,,,,,,,,,,,,,,,,,,,,,,,,,,,,
,,,,,V1_038,20,male,2024-05-23_16h33.26.685,jersey_experiment_5_v1,2023.2.2,Win32,84.74576271,,,,,,,,,,,,,,,,87.113,88.4069,88.407,93.4893,return,2.3205,,74.86979167,0,2,2,49,1,FBP-RB-71.png,0.45,1.2,50,0.5,,,,,,,,,,,,,,,,,,,,,,,,,,,,,,,,,,,,,,,,,,,,,
,,,,,V1_038,20,male,2024-05-23_16h33.26.685,jersey_experiment_5_v1,2023.2.2,Win32,84.74576271,,,,,,,,,,,,,,,,93.4895,95.2895,95.2896,100.3484,return,2.1695,,49.73958333,0,3,3,2,1,FBP-PT-71.png,0.4,1.2,3,1,,,,,,,,,,,,,,,,,,,,,,,,,,,,,,,,,,,,,,,,,,,,,
,,,,,V1_038,20,male,2024-05-23_16h33.26.685,jersey_experiment_5_v1,2023.2.2,Win32,84.74576271,,,,,,,,,,,,,,,,100.3486,101.6426,101.6426,104.5957,return,1.1777,,49.86979167,0,4,4,26,1,FBP-YG-19.png,0.37,1.2,27,0.5,,,,,,,,,,,,,,,,,,,,,,,,,,,,,,,,,,,,,,,,,,,,,
,,,,,V1_038,20,male,2024-05-23_16h33.26.685,jersey_experiment_5_v1,2023.2.2,Win32,84.74576271,,,,,,,,,,,,,,,,104.596,105.8899,105.89,109.2665,return,1.2092,,49.86979167,0,5,5,32,1,FBP-OG-17.png,0.4,1.2,33,0.5,,,,,,,,,,,,,,,,,,,,,,,,,,,,,,,,,,,,,,,,,,,,,
,,,,,V1_038,20,male,2024-05-23_16h33.26.685,jersey_experiment_5_v1,2023.2.2,Win32,84.74576271,,,,,,,,,,,,,,,,109.2666,110.5606,110.5606,115.0197,return,1.9235,,24.609375,0,6,6,51,1,FBP-RB-81.png,0.37,1.2,52,0.5,,,,,,,,,,,,,,,,,,,,,,,,,,,,,,,,,,,,,,,,,,,,,
,,,,,V1_038,20,male,2024-05-23_16h33.26.685,jersey_experiment_5_v1,2023.2.2,Win32,84.74576271,,,,,,,,,,,,,,,,115.0199,116.8197,116.8197,122.2905,return,1.8121,,75.13020833,0,7,7,8,1,FBP-PT-81.png,0.43,1.2,9,1,,,,,,,,,,,,,,,,,,,,,,,,,,,,,,,,,,,,,,,,,,,,,
,,,,,V1_038,20,male,2024-05-23_16h33.26.685,jersey_experiment_5_v1,2023.2.2,Win32,84.74576271,,,,,,,,,,,,,,,,122.2907,123.5846,123.5846,127.4672,return,2.1359,,74.73958333,0,8,8,24,1,FBP-YG-18.png,0.45,1.2,25,0.5,,,,,,,,,,,,,,,,,,,,,,,,,,,,,,,,,,,,,,,,,,,,,
,,,,,V1_038,20,male,2024-05-23_16h33.26.685,jersey_experiment_5_v1,2023.2.2,Win32,84.74576271,,,,,,,,,,,,,,,,127.4674,129.2672,129.2672,132.2672,return,1.4061,,49.73958333,0,9,9,14,1,FBP-PT-91.png,0.45,1.2,15,1,,,,,,,,,,,,,,,,,,,,,,,,,,,,,,,,,,,,,,,,,,,,,
,,,,,V1_038,20,male,2024-05-23_16h33.26.685,jersey_experiment_5_v1,2023.2.2,Win32,84.74576271,,,,,,,,,,,,,,,,132.2675,134.0673,134.0674,138.044,return,1.827,,25.26041667,0,10,10,11,1,FBP-PT-91.png,0.37,1.2,12,1,,,,,,,,,,,,,,,,,,,,,,,,,,,,,,,,,,,,,,,,,,,,,
,,,,,V1_038,20,male,2024-05-23_16h33.26.685,jersey_experiment_5_v1,2023.2.2,Win32,84.74576271,,,,,,,,,,,,,,,,138.0442,139.3382,139.3382,143.6324,return,1.5537,,30.859375,0,11,11,37,1,FBP-OG-18.png,0.4,1.2,38,0.5,,,,,,,,,,,,,,,,,,,,,,,,,,,,,,,,,,,,,,,,,,,,,
,,,,,V1_038,20,male,2024-05-23_16h33.26.685,jersey_experiment_5_v1,2023.2.2,Win32,84.74576271,,,,,,,,,,,,,,,,143.6326,144.9266,144.9267,148.8326,return,1.5296,,21.22395833,0,12,12,35,1,FBP-OG-18.png,0.35,1.2,36,0.5,,,,,,,,,,,,,,,,,,,,,,,,,,,,,,,,,,,,,,,,,,,,,
,,,,,V1_038,20,male,2024-05-23_16h33.26.685,jersey_experiment_5_v1,2023.2.2,Win32,84.74576271,,,,,,,,,,,,,,,,148.8329,150.1268,150.1269,154.9741,return,2.4487,,38.80208333,0,13,13,42,1,FBP-OG-19.png,0.4,1.2,43,0.5,,,,,,,,,,,,,,,,,,,,,,,,,,,,,,,,,,,,,,,,,,,,,
,,,,,V1_038,20,male,2024-05-23_16h33.26.685,jersey_experiment_5_v1,2023.2.2,Win32,84.74576271,,,,,,,,,,,,,,,,154.9783,156.2799,156.2799,159.5977,return,1.3313,,56.640625,0,14,14,23,1,FBP-YG-18.png,0.43,1.2,24,0.5,,,,,,,,,,,,,,,,,,,,,,,,,,,,,,,,,,,,,,,,,,,,,
,,,,,V1_038,20,male,2024-05-23_16h33.26.685,jersey_experiment_5_v1,2023.2.2,Win32,84.74576271,,,,,,,,,,,,,,,,159.5978,160.8919,160.8919,164.0096,return,1.4412,,33.72395833,0,15,15,36,1,FBP-OG-18.png,0.37,1.2,37,0.5,,,,,,,,,,,,,,,,,,,,,,,,,,,,,,,,,,,,,,,,,,,,,
,,,,,V1_038,20,male,2024-05-23_16h33.26.685,jersey_experiment_5_v1,2023.2.2,Win32,84.74576271,,,,,,,,,,,,,,,,164.0099,165.3038,165.3039,169.9039,return,2.8593,,38.54166667,0,16,16,57,1,FBP-RB-91.png,0.4,1.2,58,0.5,,,,,,,,,,,,,,,,,,,,,,,,,,,,,,,,,,,,,,,,,,,,,
,,,,,V1_038,20,male,2024-05-23_16h33.26.685,jersey_experiment_5_v1,2023.2.2,Win32,84.74576271,,,,,,,,,,,,,,,,169.9041,171.1981,171.1981,177.0102,return,4.269,,23.17708333,0,17,17,50,1,FBP-RB-81.png,0.35,1.2,51,0.5,,,,,,,,,,,,,,,,,,,,,,,,,,,,,,,,,,,,,,,,,,,,,
,,,,,V1_038,20,male,2024-05-23_16h33.26.685,jersey_experiment_5_v1,2023.2.2,Win32,84.74576271,,,,,,,,,,,,,,,,177.0144,178.8102,178.8103,181.9163,return,1.4624,,35.67708333,0,18,18,6,1,FBP-PT-81.png,0.37,1.2,7,1,,,,,,,,,,,,,,,,,,,,,,,,,,,,,,,,,,,,,,,,,,,,,
,,,,,V1_038,20,male,2024-05-23_16h33.26.685,jersey_experiment_5_v1,2023.2.2,Win32,84.74576271,,,,,,,,,,,,,,,,181.9164,183.7162,183.7162,186.9046,return,1.2314,,24.73958333,0,19,19,1,1,FBP-PT-71.png,0.37,1.2,2,1,,,,,,,,,,,,,,,,,,,,,,,,,,,,,,,,,,,,,,,,,,,,,
,,,,,V1_038,20,male,2024-05-23_16h33.26.685,jersey_experiment_5_v1,2023.2.2,Win32,84.74576271,,,,,,,,,,,,,,,,186.9049,188.1988,188.1988,191.7283,return,1.1662,,75.13020833,0,20,20,44,1,FBP-OG-19.png,0.45,1.2,45,0.5,,,,,,,,,,,,,,,,,,,,,,,,,,,,,,,,,,,,,,,,,,,,,
,,,,,V1_038,20,male,2024-05-23_16h33.26.685,jersey_experiment_5_v1,2023.2.2,Win32,84.74576271,,,,,,,,,,,,,,,,191.7285,193.0225,193.0225,196.8579,return,1.7234,,21.875,0,21,21,20,1,FBP-YG-18.png,0.35,1.2,21,0.5,,,,,,,,,,,,,,,,,,,,,,,,,,,,,,,,,,,,,,,,,,,,,
,,,,,V1_038,20,male,2024-05-23_16h33.26.685,jersey_experiment_5_v1,2023.2.2,Win32,84.74576271,,,,,,,,,,,,,,,,196.858,198.1521,198.1521,200.7991,return,0.8121,,35.67708333,0,22,22,31,1,FBP-OG-17.png,0.37,1.2,32,0.5,,,,,,,,,,,,,,,,,,,,,,,,,,,,,,,,,,,,,,,,,,,,,
,,,,,V1_038,20,male,2024-05-23_16h33.26.685,jersey_experiment_5_v1,2023.2.2,Win32,84.74576271,,,,,,,,,,,,,,,,200.7994,202.0934,202.0934,207.9171,return,4.9205,,75,0,23,23,43,1,FBP-OG-19.png,0.43,1.2,44,0.5,,,,,,,,,,,,,,,,,,,,,,,,,,,,,,,,,,,,,,,,,,,,,
,,,,,V1_038,20,male,2024-05-23_16h33.26.685,jersey_experiment_5_v1,2023.2.2,Win32,84.74576271,,,,,,,,,,,,,,,,207.9174,209.2113,209.2113,213.3057,return,2.043,,74.73958333,0,24,24,34,1,FBP-OG-17.png,0.45,1.2,35,0.5,,,,,,,,,,,,,,,,,,,,,,,,,,,,,,,,,,,,,,,,,,,,,
,,,,,V1_038,20,male,2024-05-23_16h33.26.685,jersey_experiment_5_v1,2023.2.2,Win32,84.74576271,,,,,,,,,,,,,,,,213.3058,214.5998,214.5998,217.8822,return,1.5239,,20.57291667,0,25,25,55,1,FBP-RB-91.png,0.35,1.2,56,0.5,,,,,,,,,,,,,,,,,,,,,,,,,,,,,,,,,,,,,,,,,,,,,
,,,,,V1_038,20,male,2024-05-23_16h33.26.685,jersey_experiment_5_v1,2023.2.2,Win32,84.74576271,,,,,,,,,,,,,,,,217.8823,219.1763,219.1763,224.7296,return,3.5715,,25.13020833,0,26,26,46,1,FBP-RB-71.png,0.37,1.2,47,0.5,,,,,,,,,,,,,,,,,,,,,,,,,,,,,,,,,,,,,,,,,,,,,
,,,,,V1_038,20,male,2024-05-23_16h33.26.685,jersey_experiment_5_v1,2023.2.2,Win32,84.74576271,,,,,,,,,,,,,,,,224.7341,226.0354,226.0355,229.118,return,1.4032,,63.28125,0,27,27,58,1,FBP-RB-91.png,0.43,1.2,59,0.5,,,,,,,,,,,,,,,,,,,,,,,,,,,,,,,,,,,,,,,,,,,,,
,,,,,V1_038,20,male,2024-05-23_16h33.26.685,jersey_experiment_5_v1,2023.2.2,Win32,84.74576271,,,,,,,,,,,,,,,,229.1182,230.918,230.918,233.3064,return,1.1483,,27.34375,0,28,28,5,1,FBP-PT-81.png,0.35,1.2,6,1,,,,,,,,,,,,,,,,,,,,,,,,,,,,,,,,,,,,,,,,,,,,,
,,,,,V1_038,20,male,2024-05-23_16h33.26.685,jersey_experiment_5_v1,2023.2.2,Win32,84.74576271,,,,,,,,,,,,,,,,233.3065,234.6004,234.6005,238.2007,return,1.1828,,37.890625,0,29,29,30,1,FBP-OG-17.png,0.35,1.2,31,0.5,,,,,,,,,,,,,,,,,,,,,,,,,,,,,,,,,,,,,,,,,,,,,
,,,,,V1_038,20,male,2024-05-23_16h33.26.685,jersey_experiment_5_v1,2023.2.2,Win32,84.74576271,,,,,,,,,,,,,,,,238.2008,239.4948,239.4948,242.3772,return,1.2417,,68.61979167,0,30,30,33,1,FBP-OG-17.png,0.43,1.2,34,0.5,,,,,,,,,,,,,,,,,,,,,,,,,,,,,,,,,,,,,,,,,,,,,
,,,,,V1_038,20,male,2024-05-23_16h33.26.685,jersey_experiment_5_v1,2023.2.2,Win32,84.74576271,,,,,,,,,,,,,,,,242.3774,243.6714,243.6714,246.8833,return,1.2483,,71.61458333,0,31,31,22,1,FBP-YG-18.png,0.4,1.2,23,0.5,,,,,,,,,,,,,,,,,,,,,,,,,,,,,,,,,,,,,,,,,,,,,
,,,,,V1_038,20,male,2024-05-23_16h33.26.685,jersey_experiment_5_v1,2023.2.2,Win32,84.74576271,,,,,,,,,,,,,,,,246.8835,248.1775,248.1776,251.6952,return,1.3771,,50.26041667,0,32,32,21,1,FBP-YG-18.png,0.37,1.2,22,0.5,,,,,,,,,,,,,,,,,,,,,,,,,,,,,,,,,,,,,,,,,,,,,
,,,,,V1_038,20,male,2024-05-23_16h33.26.685,jersey_experiment_5_v1,2023.2.2,Win32,84.74576271,,,,,,,,,,,,,,,,251.6953,252.9893,252.9893,258.413,return,3.979,,33.984375,0,33,33,40,1,FBP-OG-19.png,0.35,1.2,41,0.5,,,,,,,,,,,,,,,,,,,,,,,,,,,,,,,,,,,,,,,,,,,,,
,,,,,V1_038,20,male,2024-05-23_16h33.26.685,jersey_experiment_5_v1,2023.2.2,Win32,84.74576271,,,,,,,,,,,,,,,,258.4171,259.7191,259.7191,262.9545,return,1.5719,,39.19270833,0,34,34,41,1,FBP-OG-19.png,0.37,1.2,42,0.5,,,,,,,,,,,,,,,,,,,,,,,,,,,,,,,,,,,,,,,,,,,,,
,,,,,V1_038,20,male,2024-05-23_16h33.26.685,jersey_experiment_5_v1,2023.2.2,Win32,84.74576271,,,,,,,,,,,,,,,,262.9547,264.2486,264.2487,267.1077,return,0.9651,,24.73958333,0,35,35,56,1,FBP-RB-91.png,0.37,1.2,57,0.5,,,,,,,,,,,,,,,,,,,,,,,,,,,,,,,,,,,,,,,,,,,,,
,,,,,V1_038,20,male,2024-05-23_16h33.26.685,jersey_experiment_5_v1,2023.2.2,Win32,84.74576271,,,,,,,,,,,,,,,,267.1079,268.9077,268.9078,275.355,return,5.1571,,71.22395833,0,36,36,4,1,FBP-PT-71.png,0.45,1.2,5,1,,,,,,,,,,,,,,,,,,,,,,,,,,,,,,,,,,,,,,,,,,,,,
,,,,,V1_038,20,male,2024-05-23_16h33.26.685,jersey_experiment_5_v1,2023.2.2,Win32,84.74576271,,,,,,,,,,,,,,,,275.3597,276.6608,276.6608,282.014,return,3.3331,,62.890625,0,37,37,17,1,FBP-YG-17.png,0.4,1.2,18,0.5,,,,,,,,,,,,,,,,,,,,,,,,,,,,,,,,,,,,,,,,,,,,,
,,,,,V1_038,20,male,2024-05-23_16h33.26.685,jersey_experiment_5_v1,2023.2.2,Win32,84.74576271,,,,,,,,,,,,,,,,282.0184,283.8141,283.8141,286.7788,return,1.8889,,50.26041667,0,38,38,12,1,FBP-PT-91.png,0.4,1.2,13,1,,,,,,,,,,,,,,,,,,,,,,,,,,,,,,,,,,,,,,,,,,,,,
,,,,,V1_038,20,male,2024-05-23_16h33.26.685,jersey_experiment_5_v1,2023.2.2,Win32,84.74576271,,,,,,,,,,,,,,,,286.779,288.579,288.579,292.0733,return,1.9709,,74.34895833,0,39,39,9,1,FBP-PT-81.png,0.45,1.2,10,1,,,,,,,,,,,,,,,,,,,,,,,,,,,,,,,,,,,,,,,,,,,,,
,,,,,V1_038,20,male,2024-05-23_16h33.26.685,jersey_experiment_5_v1,2023.2.2,Win32,84.74576271,,,,,,,,,,,,,,,,292.0734,293.3672,293.3672,296.591,return,1.2495,,75,0,40,40,54,1,FBP-RB-81.png,0.45,1.2,55,0.5,,,,,,,,,,,,,,,,,,,,,,,,,,,,,,,,,,,,,,,,,,,,,
,,,,,V1_038,20,male,2024-05-23_16h33.26.685,jersey_experiment_5_v1,2023.2.2,Win32,84.74576271,,,,,,,,,,,,,,,,296.5912,298.391,298.391,300.2382,return,0.9317,,49.86979167,0,41,41,7,1,FBP-PT-81.png,0.4,1.2,8,1,,,,,,,,,,,,,,,,,,,,,,,,,,,,,,,,,,,,,,,,,,,,,
,,,,,V1_038,20,male,2024-05-23_16h33.26.685,jersey_experiment_5_v1,2023.2.2,Win32,84.74576271,,,,,,,,,,,,,,,,300.2384,301.5322,301.5323,303.7442,return,1.0132,,49.609375,0,42,42,47,1,FBP-RB-71.png,0.4,1.2,48,0.5,,,,,,,,,,,,,,,,,,,,,,,,,,,,,,,,,,,,,,,,,,,,,
,,,,,V1_038,20,male,2024-05-23_16h33.26.685,jersey_experiment_5_v1,2023.2.2,Win32,84.74576271,,,,,,,,,,,,,,,,303.7444,305.0384,305.0384,307.4855,return,1.1433,,49.609375,0,43,43,27,1,FBP-YG-19.png,0.4,1.2,28,0.5,,,,,,,,,,,,,,,,,,,,,,,,,,,,,,,,,,,,,,,,,,,,,
,,,,,V1_038,20,male,2024-05-23_16h33.26.685,jersey_experiment_5_v1,2023.2.2,Win32,84.74576271,,,,,,,,,,,,,,,,307.4856,308.7796,308.7796,313.4858,return,2.9315,,49.609375,0,44,44,52,1,FBP-RB-81.png,0.4,1.2,53,0.5,,,,,,,,,,,,,,,,,,,,,,,,,,,,,,,,,,,,,,,,,,,,,
,,,,,V1_038,20,male,2024-05-23_16h33.26.685,jersey_experiment_5_v1,2023.2.2,Win32,84.74576271,,,,,,,,,,,,,,,,313.4906,314.7918,314.7918,318.3329,return,2.5329,,62.109375,0,45,45,28,1,FBP-YG-19.png,0.43,1.2,29,0.5,,,,,,,,,,,,,,,,,,,,,,,,,,,,,,,,,,,,,,,,,,,,,
,,,,,V1_038,20,male,2024-05-23_16h33.26.685,jersey_experiment_5_v1,2023.2.2,Win32,84.74576271,,,,,,,,,,,,,,,,318.3331,320.133,320.133,328.2392,return,3.6259,,49.73958333,0,46,46,13,1,FBP-PT-91.png,0.43,1.2,14,1,,,,,,,,,,,,,,,,,,,,,,,,,,,,,,,,,,,,,,,,,,,,,
,,,,,V1_038,20,male,2024-05-23_16h33.26.685,jersey_experiment_5_v1,2023.2.2,Win32,84.74576271,,,,,,,,,,,,,,,,328.2394,329.5333,329.5334,332.4276,return,1.0266,,75,0,47,47,19,1,FBP-YG-17.png,0.45,1.2,20,0.5,,,,,,,,,,,,,,,,,,,,,,,,,,,,,,,,,,,,,,,,,,,,,
,,,,,V1_038,20,male,2024-05-23_16h33.26.685,jersey_experiment_5_v1,2023.2.2,Win32,84.74576271,,,,,,,,,,,,,,,,332.4279,333.7218,333.7218,338.5102,return,2.0729,,63.671875,0,48,48,38,1,FBP-OG-18.png,0.43,1.2,39,0.5,,,,,,,,,,,,,,,,,,,,,,,,,,,,,,,,,,,,,,,,,,,,,
,,,,,V1_038,20,male,2024-05-23_16h33.26.685,jersey_experiment_5_v1,2023.2.2,Win32,84.74576271,,,,,,,,,,,,,,,,338.5105,339.8044,339.8044,342.4985,return,0.9416,,74.47916667,0,49,49,53,1,FBP-RB-81.png,0.43,1.2,54,0.5,,,,,,,,,,,,,,,,,,,,,,,,,,,,,,,,,,,,,,,,,,,,,
,,,,,V1_038,20,male,2024-05-23_16h33.26.685,jersey_experiment_5_v1,2023.2.2,Win32,84.74576271,,,,,,,,,,,,,,,,342.4987,343.7927,343.7927,346.5457,return,1.2472,,9.505208333,0,50,50,15,1,FBP-YG-17.png,0.35,1.2,16,0.5,,,,,,,,,,,,,,,,,,,,,,,,,,,,,,,,,,,,,,,,,,,,,
,,,,,V1_038,20,male,2024-05-23_16h33.26.685,jersey_experiment_5_v1,2023.2.2,Win32,84.74576271,,,,,,,,,,,,,,,,346.546,347.84,347.84,350.4283,return,0.957,,53.77604167,0,51,51,48,1,FBP-RB-71.png,0.43,1.2,49,0.5,,,,,,,,,,,,,,,,,,,,,,,,,,,,,,,,,,,,,,,,,,,,,
,,,,,V1_038,20,male,2024-05-23_16h33.26.685,jersey_experiment_5_v1,2023.2.2,Win32,84.74576271,,,,,,,,,,,,,,,,350.4285,352.2284,352.2284,354.7814,return,1.204,,30.078125,0,52,52,10,1,FBP-PT-91.png,0.35,1.2,11,1,,,,,,,,,,,,,,,,,,,,,,,,,,,,,,,,,,,,,,,,,,,,,
,,,,,V1_038,20,male,2024-05-23_16h33.26.685,jersey_experiment_5_v1,2023.2.2,Win32,84.74576271,,,,,,,,,,,,,,,,354.7815,356.0755,356.0756,358.2521,return,0.8033,,29.81770833,0,53,53,16,1,FBP-YG-17.png,0.37,1.2,17,0.5,,,,,,,,,,,,,,,,,,,,,,,,,,,,,,,,,,,,,,,,,,,,,
,,,,,V1_038,20,male,2024-05-23_16h33.26.685,jersey_experiment_5_v1,2023.2.2,Win32,84.74576271,,,,,,,,,,,,,,,,358.2523,360.0522,360.0522,362.3466,return,0.9235,,63.80208333,0,54,54,3,1,FBP-PT-71.png,0.43,1.2,4,1,,,,,,,,,,,,,,,,,,,,,,,,,,,,,,,,,,,,,,,,,,,,,
,,,,,V1_038,20,male,2024-05-23_16h33.26.685,jersey_experiment_5_v1,2023.2.2,Win32,84.74576271,,,,,,,,,,,,,,,,362.3468,363.6405,363.6405,366.7231,return,1.3653,,74.08854167,0,55,55,59,1,FBP-RB-91.png,0.45,1.2,60,0.5,,,,,,,,,,,,,,,,,,,,,,,,,,,,,,,,,,,,,,,,,,,,,
,,,,,V1_038,20,male,2024-05-23_16h33.26.685,jersey_experiment_5_v1,2023.2.2,Win32,84.74576271,,,,,,,,,,,,,,,,366.7233,368.0172,368.0172,370.9114,return,1.3422,,84.375,0,56,56,39,1,FBP-OG-18.png,0.45,1.2,40,0.5,,,,,,,,,,,,,,,,,,,,,,,,,,,,,,,,,,,,,,,,,,,,,
,,,,,V1_038,20,male,2024-05-23_16h33.26.685,jersey_experiment_5_v1,2023.2.2,Win32,84.74576271,,,,,,,,,,,,,,,,370.9115,372.2054,372.2054,375.1703,return,1.1767,,75.26041667,0,57,57,18,1,FBP-YG-17.png,0.43,1.2,19,0.5,,,,,,,,,,,,,,,,,,,,,,,,,,,,,,,,,,,,,,,,,,,,,
,,,,,V1_038,20,male,2024-05-23_16h33.26.685,jersey_experiment_5_v1,2023.2.2,Win32,84.74576271,,,,,,,,,,,,,,,,375.1706,376.4645,376.4646,379.4645,return,1.3123,,25.390625,0,58,58,45,1,FBP-RB-71.png,0.35,1.2,46,0.5,,,,,,,,,,,,,,,,,,,,,,,,,,,,,,,,,,,,,,,,,,,,,
,,,,,V1_038,20,male,2024-05-23_16h33.26.685,jersey_experiment_5_v1,2023.2.2,Win32,84.74576271,,,,,,,,,,,,,,,,379.4647,381.2647,381.2647,383.6648,return,1.2139,,35.28645833,0,59,59,0,1,FBP-PT-71.png,0.35,1.2,1,1,,,,,,,,,,,,,,,,,,,,,,,,,,,,,,,,,,,,,,,,,,,,,
,,,,,V1_038,20,male,2024-05-23_16h33.26.685,jersey_experiment_5_v1,2023.2.2,Win32,84.74576271,,,,,,,,,,,,,,,,383.6669,385.4648,385.4648,386.9592,return,0.9085,,35.02604167,,,,,,FBP-PT-18.png,0.37,1.2,7,1,0,0,0,6,1,,,,,,,,,,,,,,,,,,,,,,,,,,,,,,,,,,,,,,,,
,,,,,V1_038,20,male,2024-05-23_16h33.26.685,jersey_experiment_5_v1,2023.2.2,Win32,84.74576271,,,,,,,,,,,,,,,,386.9595,388.2534,388.2534,390.8651,return,1.0118,,49.73958333,,,,,,FBP-RB-17.png,0.43,1.2,49,0.5,0,1,1,48,1,,,,,,,,,,,,,,,,,,,,,,,,,,,,,,,,,,,,,,,,
,,,,,V1_038,20,male,2024-05-23_16h33.26.685,jersey_experiment_5_v1,2023.2.2,Win32,84.74576271,,,,,,,,,,,,,,,,390.8653,392.1593,392.1593,394.3946,return,1.1244,,49.73958333,,,,,,FBP-RB-18.png,0.4,1.2,53,0.5,0,2,2,52,1,,,,,,,,,,,,,,,,,,,,,,,,,,,,,,,,,,,,,,,,
,,,,,V1_038,20,male,2024-05-23_16h33.26.685,jersey_experiment_5_v1,2023.2.2,Win32,84.74576271,,,,,,,,,,,,,,,,394.3948,395.689,395.689,398.0889,return,0.8301,,25.13020833,,,,,,FBP-YG-91.png,0.35,1.2,26,0.5,0,3,3,25,1,,,,,,,,,,,,,,,,,,,,,,,,,,,,,,,,,,,,,,,,
,,,,,V1_038,20,male,2024-05-23_16h33.26.685,jersey_experiment_5_v1,2023.2.2,Win32,84.74576271,,,,,,,,,,,,,,,,398.0891,399.3829,399.383,403.2771,return,0.8277,,37.5,,,,,,FBP-YG-91.png,0.37,1.2,27,0.5,0,4,4,26,1,,,,,,,,,,,,,,,,,,,,,,,,,,,,,,,,,,,,,,,,
,,,,,V1_038,20,male,2024-05-23_16h33.26.685,jersey_experiment_5_v1,2023.2.2,Win32,84.74576271,,,,,,,,,,,,,,,,403.2773,404.5715,404.5715,406.8422,return,1.6426,,27.734375,,,,,,FBP-OG-71.png,0.35,1.2,31,0.5,0,5,5,30,1,,,,,,,,,,,,,,,,,,,,,,,,,,,,,,,,,,,,,,,,
,,,,,V1_038,20,male,2024-05-23_16h33.26.685,jersey_experiment_5_v1,2023.2.2,Win32,84.74576271,,,,,,,,,,,,,,,,406.8425,408.1364,408.1364,412.8307,return,3.2128,,66.015625,,,,,,FBP-RB-17.png,0.4,1.2,48,0.5,0,6,6,47,1,,,,,,,,,,,,,,,,,,,,,,,,,,,,,,,,,,,,,,,,
,,,,,V1_038,20,male,2024-05-23_16h33.26.685,jersey_experiment_5_v1,2023.2.2,Win32,84.74576271,,,,,,,,,,,,,,,,412.8351,414.1365,414.1365,416.8307,return,1.1323,,81.11979167,,,,,,FBP-RB-18.png,0.45,1.2,55,0.5,0,7,7,54,1,,,,,,,,,,,,,,,,,,,,,,,,,,,,,,,,,,,,,,,,
,,,,,V1_038,20,male,2024-05-23_16h33.26.685,jersey_experiment_5_v1,2023.2.2,Win32,84.74576271,,,,,,,,,,,,,,,,416.8308,418.6308,418.6308,420.4191,return,0.7668,,84.24479167,,,,,,FBP-PT-19.png,0.45,1.2,15,1,0,8,8,14,1,,,,,,,,,,,,,,,,,,,,,,,,,,,,,,,,,,,,,,,,
,,,,,V1_038,20,male,2024-05-23_16h33.26.685,jersey_experiment_5_v1,2023.2.2,Win32,84.74576271,,,,,,,,,,,,,,,,420.4193,422.2191,422.2191,424.8193,return,0.8477,,75.52083333,,,,,,FBP-PT-17.png,0.43,1.2,4,1,0,9,9,3,1,,,,,,,,,,,,,,,,,,,,,,,,,,,,,,,,,,,,,,,,
,,,,,V1_038,20,male,2024-05-23_16h33.26.685,jersey_experiment_5_v1,2023.2.2,Win32,84.74576271,,,,,,,,,,,,,,,,424.8195,426.1134,426.1134,428.137,return,0.8306,,25.65104167,,,,,,FBP-RB-19.png,0.35,1.2,56,0.5,0,10,10,55,1,,,,,,,,,,,,,,,,,,,,,,,,,,,,,,,,,,,,,,,,
,,,,,V1_038,20,male,2024-05-23_16h33.26.685,jersey_experiment_5_v1,2023.2.2,Win32,84.74576271,,,,,,,,,,,,,,,,428.1371,429.4312,429.4313,431.8902,return,1.1165,,17.05729167,,,,,,FBP-RB-18.png,0.35,1.2,51,0.5,0,11,11,50,1,,,,,,,,,,,,,,,,,,,,,,,,,,,,,,,,,,,,,,,,
,,,,,V1_038,20,male,2024-05-23_16h33.26.685,jersey_experiment_5_v1,2023.2.2,Win32,84.74576271,,,,,,,,,,,,,,,,431.8904,433.1842,433.1842,440.1256,return,3.1096,,74.21875,,,,,,FBP-OG-91.png,0.43,1.2,44,0.5,0,12,12,43,1,,,,,,,,,,,,,,,,,,,,,,,,,,,,,,,,,,,,,,,,
,,,,,V1_038,20,male,2024-05-23_16h33.26.685,jersey_experiment_5_v1,2023.2.2,Win32,84.74576271,,,,,,,,,,,,,,,,440.1258,441.42,441.42,443.8905,return,0.8337,,49.609375,,,,,,FBP-RB-19.png,0.43,1.2,59,0.5,0,13,13,58,1,,,,,,,,,,,,,,,,,,,,,,,,,,,,,,,,,,,,,,,,
,,,,,V1_038,20,male,2024-05-23_16h33.26.685,jersey_experiment_5_v1,2023.2.2,Win32,84.74576271,,,,,,,,,,,,,,,,443.8906,445.1846,445.1846,447.8084,return,0.8371,,75,,,,,,FBP-OG-71.png,0.43,1.2,34,0.5,0,14,14,33,1,,,,,,,,,,,,,,,,,,,,,,,,,,,,,,,,,,,,,,,,
,,,,,V1_038,20,male,2024-05-23_16h33.26.685,jersey_experiment_5_v1,2023.2.2,Win32,84.74576271,,,,,,,,,,,,,,,,447.8087,449.1025,449.1026,455.7734,return,4.9922,,79.55729167,,,,,,FBP-OG-71.png,0.45,1.2,35,0.5,0,15,15,34,1,,,,,,,,,,,,,,,,,,,,,,,,,,,,,,,,,,,,,,,,
,,,,,V1_038,20,male,2024-05-23_16h33.26.685,jersey_experiment_5_v1,2023.2.2,Win32,84.74576271,,,,,,,,,,,,,,,,455.7778,457.0793,457.0793,459.5501,return,0.873,,41.66666667,,,,,,FBP-OG-91.png,0.37,1.2,42,0.5,0,16,16,41,1,,,,,,,,,,,,,,,,,,,,,,,,,,,,,,,,,,,,,,,,
,,,,,V1_038,20,male,2024-05-23_16h33.26.685,jersey_experiment_5_v1,2023.2.2,Win32,84.74576271,,,,,,,,,,,,,,,,459.5503,460.8441,460.8441,463.3147,return,0.9071,,49.47916667,,,,,,FBP-YG-91.png,0.43,1.2,29,0.5,0,17,17,28,1,,,,,,,,,,,,,,,,,,,,,,,,,,,,,,,,,,,,,,,,
,,,,,V1_038,20,male,2024-05-23_16h33.26.685,jersey_experiment_5_v1,2023.2.2,Win32,84.74576271,,,,,,,,,,,,,,,,463.3151,464.6088,464.6089,468.9151,return,0.9073,,50.13020833,,,,,,FBP-RB-19.png,0.4,1.2,58,0.5,0,18,18,57,1,,,,,,,,,,,,,,,,,,,,,,,,,,,,,,,,,,,,,,,,
,,,,,V1_038,20,male,2024-05-23_16h33.26.685,jersey_experiment_5_v1,2023.2.2,Win32,84.74576271,,,,,,,,,,,,,,,,468.9153,470.2092,470.2092,473.3741,return,1.3305,,24.86979167,,,,,,FBP-RB-17.png,0.37,1.2,47,0.5,0,19,19,46,1,,,,,,,,,,,,,,,,,,,,,,,,,,,,,,,,,,,,,,,,
,,,,,V1_038,20,male,2024-05-23_16h33.26.685,jersey_experiment_5_v1,2023.2.2,Win32,84.74576271,,,,,,,,,,,,,,,,473.3743,474.668,474.6681,480.9391,return,0.8417,,42.05729167,,,,,,FBP-OG-71.png,0.4,1.2,33,0.5,0,20,20,32,1,,,,,,,,,,,,,,,,,,,,,,,,,,,,,,,,,,,,,,,,
,,,,,V1_038,20,male,2024-05-23_16h33.26.685,jersey_experiment_5_v1,2023.2.2,Win32,84.74576271,,,,,,,,,,,,,,,,480.9393,482.7389,482.739,485.6803,return,0.7406,,64.32291667,,,,,,FBP-PT-19.png,0.43,1.2,14,1,0,21,21,13,1,,,,,,,,,,,,,,,,,,,,,,,,,,,,,,,,,,,,,,,,
,,,,,V1_038,20,male,2024-05-23_16h33.26.685,jersey_experiment_5_v1,2023.2.2,Win32,84.74576271,,,,,,,,,,,,,,,,485.6805,487.4804,487.4804,490.7157,return,2.4149,,28.90625,,,,,,FBP-PT-17.png,0.35,1.2,1,1,0,22,22,0,1,,,,,,,,,,,,,,,,,,,,,,,,,,,,,,,,,,,,,,,,
,,,,,V1_038,20,male,2024-05-23_16h33.26.685,jersey_experiment_5_v1,2023.2.2,Win32,84.74576271,,,,,,,,,,,,,,,,490.7159,492.5157,492.5158,497.0337,return,2.2182,,49.47916667,,,,,,FBP-PT-19.png,0.4,1.2,13,1,0,23,23,12,1,,,,,,,,,,,,,,,,,,,,,,,,,,,,,,,,,,,,,,,,
,,,,,V1_038,20,male,2024-05-23_16h33.26.685,jersey_experiment_5_v1,2023.2.2,Win32,84.74576271,,,,,,,,,,,,,,,,497.0339,498.3279,498.328,500.4457,return,0.9566,,49.609375,,,,,,FBP-OG-91.png,0.4,1.2,43,0.5,0,24,24,42,1,,,,,,,,,,,,,,,,,,,,,,,,,,,,,,,,,,,,,,,,
,,,,,V1_038,20,male,2024-05-23_16h33.26.685,jersey_experiment_5_v1,2023.2.2,Win32,84.74576271,,,,,,,,,,,,,,,,500.4459,501.7397,501.7398,504.8339,return,1.5622,,25.390625,,,,,,FBP-RB-18.png,0.37,1.2,52,0.5,0,25,25,51,1,,,,,,,,,,,,,,,,,,,,,,,,,,,,,,,,,,,,,,,,
,,,,,V1_038,20,male,2024-05-23_16h33.26.685,jersey_experiment_5_v1,2023.2.2,Win32,84.74576271,,,,,,,,,,,,,,,,504.834,506.634,506.6341,508.0577,return,0.9493,,25.390625,,,,,,FBP-PT-18.png,0.35,1.2,6,1,0,26,26,5,1,,,,,,,,,,,,,,,,,,,,,,,,,,,,,,,,,,,,,,,,
,,,,,V1_038,20,male,2024-05-23_16h33.26.685,jersey_experiment_5_v1,2023.2.2,Win32,84.74576271,,,,,,,,,,,,,,,,508.0578,509.8578,509.8578,514.4461,return,1.3427,,50.26041667,,,,,,FBP-PT-17.png,0.4,1.2,3,1,0,27,27,2,1,,,,,,,,,,,,,,,,,,,,,,,,,,,,,,,,,,,,,,,,
,,,,,V1_038,20,male,2024-05-23_16h33.26.685,jersey_experiment_5_v1,2023.2.2,Win32,84.74576271,,,,,,,,,,,,,,,,514.4464,516.2461,516.2461,518.0342,return,0.7763,,49.86979167,,,,,,FBP-PT-18.png,0.4,1.2,8,1,0,28,28,7,1,,,,,,,,,,,,,,,,,,,,,,,,,,,,,,,,,,,,,,,,
,,,,,V1_038,20,male,2024-05-23_16h33.26.685,jersey_experiment_5_v1,2023.2.2,Win32,84.74576271,,,,,,,,,,,,,,,,518.0345,519.3286,519.3286,522.6347,return,2.4421,,49.86979167,,,,,,FBP-YG-91.png,0.4,1.2,28,0.5,0,29,29,27,1,,,,,,,,,,,,,,,,,,,,,,,,,,,,,,,,,,,,,,,,
,,,,,V1_038,20,male,2024-05-23_16h33.26.685,jersey_experiment_5_v1,2023.2.2,Win32,84.74576271,,,,,,,,,,,,,,,,522.6349,523.9289,523.9289,526.8466,return,1.2017,,74.609375,,,,,,FBP-YG-81.png,0.45,1.2,25,0.5,0,30,30,24,1,,,,,,,,,,,,,,,,,,,,,,,,,,,,,,,,,,,,,,,,
,,,,,V1_038,20,male,2024-05-23_16h33.26.685,jersey_experiment_5_v1,2023.2.2,Win32,84.74576271,,,,,,,,,,,,,,,,526.8468,528.1407,528.1408,530.3173,return,1.0018,,74.08854167,,,,,,FBP-OG-81.png,0.45,1.2,40,0.5,0,31,31,39,1,,,,,,,,,,,,,,,,,,,,,,,,,,,,,,,,,,,,,,,,
,,,,,V1_038,20,male,2024-05-23_16h33.26.685,jersey_experiment_5_v1,2023.2.2,Win32,84.74576271,,,,,,,,,,,,,,,,530.3173,532.1174,532.1174,539.2587,return,5.9599,,74.08854167,,,,,,FBP-PT-18.png,0.43,1.2,9,1,0,32,32,8,1,,,,,,,,,,,,,,,,,,,,,,,,,,,,,,,,,,,,,,,,
,,,,,V1_038,20,male,2024-05-23_16h33.26.685,jersey_experiment_5_v1,2023.2.2,Win32,84.74576271,,,,,,,,,,,,,,,,539.263,541.0588,541.0589,544.2707,return,1.8852,,1.302083333,,,,,,FBP-PT-19.png,0.35,1.2,11,1,0,33,33,10,1,,,,,,,,,,,,,,,,,,,,,,,,,,,,,,,,,,,,,,,,
,,,,,V1_038,20,male,2024-05-23_16h33.26.685,jersey_experiment_5_v1,2023.2.2,Win32,84.74576271,,,,,,,,,,,,,,,,544.2709,546.0708,546.0708,548.4825,return,1.1293,,59.63541667,,,,,,FBP-PT-17.png,0.45,1.2,5,1,0,34,34,4,1,,,,,,,,,,,,,,,,,,,,,,,,,,,,,,,,,,,,,,,,
,,,,,V1_038,20,male,2024-05-23_16h33.26.685,jersey_experiment_5_v1,2023.2.2,Win32,84.74576271,,,,,,,,,,,,,,,,548.4827,550.2826,550.2827,552.1769,return,0.8576,,24.21875,,,,,,FBP-PT-17.png,0.37,1.2,2,1,0,35,35,1,1,,,,,,,,,,,,,,,,,,,,,,,,,,,,,,,,,,,,,,,,
,,,,,V1_038,20,male,2024-05-23_16h33.26.685,jersey_experiment_5_v1,2023.2.2,Win32,84.74576271,,,,,,,,,,,,,,,,552.1771,553.4711,553.4711,555.6004,return,0.8607,,63.15104167,,,,,,FBP-OG-81.png,0.43,1.2,39,0.5,0,36,36,38,1,,,,,,,,,,,,,,,,,,,,,,,,,,,,,,,,,,,,,,,,
,,,,,V1_038,20,male,2024-05-23_16h33.26.685,jersey_experiment_5_v1,2023.2.2,Win32,84.74576271,,,,,,,,,,,,,,,,555.6007,556.8948,556.8949,560.2832,return,0.8886,,75.78125,,,,,,FBP-RB-19.png,0.45,1.2,60,0.5,0,37,37,59,1,,,,,,,,,,,,,,,,,,,,,,,,,,,,,,,,,,,,,,,,
,,,,,V1_038,20,male,2024-05-23_16h33.26.685,jersey_experiment_5_v1,2023.2.2,Win32,84.74576271,,,,,,,,,,,,,,,,560.2835,561.5773,561.5773,565.6833,return,2.3999,,39.19270833,,,,,,FBP-YG-81.png,0.37,1.2,22,0.5,0,38,38,21,1,,,,,,,,,,,,,,,,,,,,,,,,,,,,,,,,,,,,,,,,
,,,,,V1_038,20,male,2024-05-23_16h33.26.685,jersey_experiment_5_v1,2023.2.2,Win32,84.74576271,,,,,,,,,,,,,,,,565.6835,566.9774,566.9775,570.0128,return,0.7901,,25.65104167,,,,,,FBP-YG-71.png,0.37,1.2,17,0.5,0,39,39,16,1,,,,,,,,,,,,,,,,,,,,,,,,,,,,,,,,,,,,,,,,
,,,,,V1_038,20,male,2024-05-23_16h33.26.685,jersey_experiment_5_v1,2023.2.2,Win32,84.74576271,,,,,,,,,,,,,,,,570.013,571.307,571.307,573.2836,return,0.6458,,25.65104167,,,,,,FBP-RB-17.png,0.35,1.2,46,0.5,0,40,40,45,1,,,,,,,,,,,,,,,,,,,,,,,,,,,,,,,,,,,,,,,,
,,,,,V1_038,20,male,2024-05-23_16h33.26.685,jersey_experiment_5_v1,2023.2.2,Win32,84.74576271,,,,,,,,,,,,,,,,573.2839,574.5777,574.5777,576.5779,return,0.8473,,66.40625,,,,,,FBP-OG-91.png,0.45,1.2,45,0.5,0,41,41,44,1,,,,,,,,,,,,,,,,,,,,,,,,,,,,,,,,,,,,,,,,
,,,,,V1_038,20,male,2024-05-23_16h33.26.685,jersey_experiment_5_v1,2023.2.2,Win32,84.74576271,,,,,,,,,,,,,,,,576.5781,577.8719,577.8719,580.6249,return,1.2707,,74.34895833,,,,,,FBP-YG-91.png,0.45,1.2,30,0.5,0,42,42,29,1,,,,,,,,,,,,,,,,,,,,,,,,,,,,,,,,,,,,,,,,
,,,,,V1_038,20,male,2024-05-23_16h33.26.685,jersey_experiment_5_v1,2023.2.2,Win32,84.74576271,,,,,,,,,,,,,,,,580.6252,582.4252,582.4252,587.378,return,2.6694,,24.73958333,,,,,,FBP-PT-19.png,0.37,1.2,12,1,0,43,43,11,1,,,,,,,,,,,,,,,,,,,,,,,,,,,,,,,,,,,,,,,,
,,,,,V1_038,20,male,2024-05-23_16h33.26.685,jersey_experiment_5_v1,2023.2.2,Win32,84.74576271,,,,,,,,,,,,,,,,587.3781,588.6723,588.6723,592.7549,return,3.0135,,57.16145833,,,,,,FBP-YG-71.png,0.4,1.2,18,0.5,0,44,44,17,1,,,,,,,,,,,,,,,,,,,,,,,,,,,,,,,,,,,,,,,,
,,,,,V1_038,20,male,2024-05-23_16h33.26.685,jersey_experiment_5_v1,2023.2.2,Win32,84.74576271,,,,,,,,,,,,,,,,592.7551,594.049,594.049,596.355,return,0.908,,69.79166667,,,,,,FBP-YG-71.png,0.43,1.2,19,0.5,0,45,45,18,1,,,,,,,,,,,,,,,,,,,,,,,,,,,,,,,,,,,,,,,,
,,,,,V1_038,20,male,2024-05-23_16h33.26.685,jersey_experiment_5_v1,2023.2.2,Win32,84.74576271,,,,,,,,,,,,,,,,596.3552,597.6492,597.6492,600.508,return,0.9934,,24.609375,,,,,,FBP-YG-71.png,0.35,1.2,16,0.5,0,46,46,15,1,,,,,,,,,,,,,,,,,,,,,,,,,,,,,,,,,,,,,,,,
,,,,,V1_038,20,male,2024-05-23_16h33.26.685,jersey_experiment_5_v1,2023.2.2,Win32,84.74576271,,,,,,,,,,,,,,,,600.5082,601.8022,601.8022,609.2967,return,2.1561,,50.52083333,,,,,,FBP-YG-81.png,0.4,1.2,23,0.5,0,47,47,22,1,,,,,,,,,,,,,,,,,,,,,,,,,,,,,,,,,,,,,,,,
,,,,,V1_038,20,male,2024-05-23_16h33.26.685,jersey_experiment_5_v1,2023.2.2,Win32,84.74576271,,,,,,,,,,,,,,,,609.2969,610.5908,610.5908,612.3321,return,0.85,,59.89583333,,,,,,FBP-YG-81.png,0.43,1.2,24,0.5,0,48,48,23,1,,,,,,,,,,,,,,,,,,,,,,,,,,,,,,,,,,,,,,,,
,,,,,V1_038,20,male,2024-05-23_16h33.26.685,jersey_experiment_5_v1,2023.2.2,Win32,84.74576271,,,,,,,,,,,,,,,,612.3323,613.6263,613.6263,616.8617,return,0.9319,,50.13020833,,,,,,FBP-OG-81.png,0.4,1.2,38,0.5,0,49,49,37,1,,,,,,,,,,,,,,,,,,,,,,,,,,,,,,,,,,,,,,,,
,,,,,V1_038,20,male,2024-05-23_16h33.26.685,jersey_experiment_5_v1,2023.2.2,Win32,84.74576271,,,,,,,,,,,,,,,,616.8619,618.1557,618.1557,622.2854,return,2.8159,,70.96354167,,,,,,FBP-RB-18.png,0.43,1.2,54,0.5,0,50,50,53,1,,,,,,,,,,,,,,,,,,,,,,,,,,,,,,,,,,,,,,,,
,,,,,V1_038,20,male,2024-05-23_16h33.26.685,jersey_experiment_5_v1,2023.2.2,Win32,84.74576271,,,,,,,,,,,,,,,,622.2856,623.5796,623.5796,625.8855,return,0.9203,,40.49479167,,,,,,FBP-OG-71.png,0.37,1.2,32,0.5,0,51,51,31,1,,,,,,,,,,,,,,,,,,,,,,,,,,,,,,,,,,,,,,,,
,,,,,V1_038,20,male,2024-05-23_16h33.26.685,jersey_experiment_5_v1,2023.2.2,Win32,84.74576271,,,,,,,,,,,,,,,,625.8858,627.1796,627.1796,630.4738,return,1.8549,,26.171875,,,,,,FBP-OG-81.png,0.35,1.2,36,0.5,0,52,52,35,1,,,,,,,,,,,,,,,,,,,,,,,,,,,,,,,,,,,,,,,,
,,,,,V1_038,20,male,2024-05-23_16h33.26.685,jersey_experiment_5_v1,2023.2.2,Win32,84.74576271,,,,,,,,,,,,,,,,630.474,631.7681,631.7681,634.6977,return,0.9959,,87.63020833,,,,,,FBP-RB-17.png,0.45,1.2,50,0.5,0,53,53,49,1,,,,,,,,,,,,,,,,,,,,,,,,,,,,,,,,,,,,,,,,
,,,,,V1_038,20,male,2024-05-23_16h33.26.685,jersey_experiment_5_v1,2023.2.2,Win32,84.74576271,,,,,,,,,,,,,,,,634.6978,636.4977,636.4977,638.0742,return,0.7717,,93.61979167,,,,,,FBP-PT-18.png,0.45,1.2,10,1,0,54,54,9,1,,,,,,,,,,,,,,,,,,,,,,,,,,,,,,,,,,,,,,,,
,,,,,V1_038,20,male,2024-05-23_16h33.26.685,jersey_experiment_5_v1,2023.2.2,Win32,84.74576271,,,,,,,,,,,,,,,,638.0744,639.3683,639.3684,642.3683,return,1.342,,93.48958333,,,,,,FBP-YG-71.png,0.45,1.2,20,0.5,0,55,55,19,1,,,,,,,,,,,,,,,,,,,,,,,,,,,,,,,,,,,,,,,,
,,,,,V1_038,20,male,2024-05-23_16h33.26.685,jersey_experiment_5_v1,2023.2.2,Win32,84.74576271,,,,,,,,,,,,,,,,642.3684,643.6625,643.6625,646.0745,return,0.9833,,25.13020833,,,,,,FBP-RB-19.png,0.37,1.2,57,0.5,0,56,56,56,1,,,,,,,,,,,,,,,,,,,,,,,,,,,,,,,,,,,,,,,,
,,,,,V1_038,20,male,2024-05-23_16h33.26.685,jersey_experiment_5_v1,2023.2.2,Win32,84.74576271,,,,,,,,,,,,,,,,646.0747,647.3687,647.3687,650.0748,return,1.3462,,30.98958333,,,,,,FBP-OG-81.png,0.37,1.2,37,0.5,0,57,57,36,1,,,,,,,,,,,,,,,,,,,,,,,,,,,,,,,,,,,,,,,,
,,,,,V1_038,20,male,2024-05-23_16h33.26.685,jersey_experiment_5_v1,2023.2.2,Win32,84.74576271,,,,,,,,,,,,,,,,650.0749,651.3687,651.3687,653.9454,return,1.2314,,21.484375,,,,,,FBP-OG-91.png,0.35,1.2,41,0.5,0,58,58,40,1,,,,,,,,,,,,,,,,,,,,,,,,,,,,,,,,,,,,,,,,
,,,,,V1_038,20,male,2024-05-23_16h33.26.685,jersey_experiment_5_v1,2023.2.2,Win32,84.74576271,,,,,,,,,,,,,,,,653.9456,655.2395,655.2396,656.8984,return,0.7911,,23.95833333,,,,,,FBP-YG-81.png,0.35,1.2,21,0.5,0,59,59,20,1,,,,,,,,,,,,,,,,,,,,,,,,,,,,,,,,,,,,,,,,
,,,,,V1_038,20,male,2024-05-23_16h33.26.685,jersey_experiment_5_v1,2023.2.2,Win32,84.74576271,,,,,,,,,,,,,,,,,,,,,,,,,,,,,,,,,,,,,,,656.8988,776.903,,,,,,,,,,,,,,,,,,,,,,,,,,,,,,,,,,,,,,
,,,,,V1_038,20,male,2024-05-23_16h33.26.685,jersey_experiment_5_v1,2023.2.2,Win32,84.74576271,,,,,,,,,,,,,,,,,,,,,,,,,,,,,,,,,,,,,,,,,776.9032,784.1386,return,7.2302,,,,,,,,,,,,,,,,,,,,,,,,,,,,,,,,,,
,,,,,V1_038,20,male,2024-05-23_16h33.26.685,jersey_experiment_5_v1,2023.2.2,Win32,84.74576271,,,,,,,,,,,,,,,,784.1449,785.9384,785.9384,789.3621,return,1.2814,,49.21875,,,,,,FBP-YG-18.png,0.43,1.2,24,1,,,,,,,,,,,,,0,0,0,23,1,,,,,,,,,,,,,,,,,,,,,,,,,,,,
,,,,,V1_038,20,male,2024-05-23_16h33.26.685,jersey_experiment_5_v1,2023.2.2,Win32,84.74576271,,,,,,,,,,,,,,,,789.3624,791.1621,791.1621,801.8331,return,9.7359,,25.13020833,,,,,,FBP-RB-81.png,0.37,1.2,52,1,,,,,,,,,,,,,0,1,1,51,1,,,,,,,,,,,,,,,,,,,,,,,,,,,,
,,,,,V1_038,20,male,2024-05-23_16h33.26.685,jersey_experiment_5_v1,2023.2.2,Win32,84.74576271,,,,,,,,,,,,,,,,801.8377,803.1391,803.1391,806.5863,return,1.547,,74.47916667,,,,,,FBP-PT-91.png,0.45,1.2,15,0.5,,,,,,,,,,,,,0,2,2,14,1,,,,,,,,,,,,,,,,,,,,,,,,,,,,
,,,,,V1_038,20,male,2024-05-23_16h33.26.685,jersey_experiment_5_v1,2023.2.2,Win32,84.74576271,,,,,,,,,,,,,,,,806.5864,808.3863,808.3863,810.798,return,1.5196,,50,,,,,,FBP-RB-71.png,0.4,1.2,48,1,,,,,,,,,,,,,0,3,3,47,1,,,,,,,,,,,,,,,,,,,,,,,,,,,,
,,,,,V1_038,20,male,2024-05-23_16h33.26.685,jersey_experiment_5_v1,2023.2.2,Win32,84.74576271,,,,,,,,,,,,,,,,810.7982,812.5982,812.5982,815.6571,return,1.62,,75,,,,,,FBP-RB-71.png,0.45,1.2,50,1,,,,,,,,,,,,,0,4,4,49,1,,,,,,,,,,,,,,,,,,,,,,,,,,,,
,,,,,V1_038,20,male,2024-05-23_16h33.26.685,jersey_experiment_5_v1,2023.2.2,Win32,84.74576271,,,,,,,,,,,,,,,,815.6573,817.4573,817.4573,821.1162,return,1.0283,,49.73958333,,,,,,FBP-YG-19.png,0.4,1.2,28,1,,,,,,,,,,,,,0,5,5,27,1,,,,,,,,,,,,,,,,,,,,,,,,,,,,
,,,,,V1_038,20,male,2024-05-23_16h33.26.685,jersey_experiment_5_v1,2023.2.2,Win32,84.74576271,,,,,,,,,,,,,,,,821.1164,822.9162,822.9162,825.7045,return,0.5719,,63.93229167,,,,,,FBP-RB-91.png,0.43,1.2,59,1,,,,,,,,,,,,,0,6,6,58,1,,,,,,,,,,,,,,,,,,,,,,,,,,,,
,,,,,V1_038,20,male,2024-05-23_16h33.26.685,jersey_experiment_5_v1,2023.2.2,Win32,84.74576271,,,,,,,,,,,,,,,,825.7048,826.9988,826.9988,835.9991,return,2.6246,,75.13020833,,,,,,FBP-PT-81.png,0.43,1.2,9,0.5,,,,,,,,,,,,,0,7,7,8,1,,,,,,,,,,,,,,,,,,,,,,,,,,,,
,,,,,V1_038,20,male,2024-05-23_16h33.26.685,jersey_experiment_5_v1,2023.2.2,Win32,84.74576271,,,,,,,,,,,,,,,,836.0035,837.7992,837.7992,840.2114,return,0.8711,,49.34895833,,,,,,FBP-OG-17.png,0.43,1.2,34,1,,,,,,,,,,,,,0,8,8,33,1,,,,,,,,,,,,,,,,,,,,,,,,,,,,
,,,,,V1_038,20,male,2024-05-23_16h33.26.685,jersey_experiment_5_v1,2023.2.2,Win32,84.74576271,,,,,,,,,,,,,,,,840.2116,841.505,841.5051,843.9876,return,1.5528,,49.34895833,,,,,,FBP-PT-81.png,0.4,1.2,8,0.5,,,,,,,,,,,,,0,9,9,7,1,,,,,,,,,,,,,,,,,,,,,,,,,,,,
,,,,,V1_038,20,male,2024-05-23_16h33.26.685,jersey_experiment_5_v1,2023.2.2,Win32,84.74576271,,,,,,,,,,,,,,,,843.9878,845.7876,845.7877,848.8349,return,2.0131,,40.75520833,,,,,,FBP-YG-18.png,0.4,1.2,23,1,,,,,,,,,,,,,0,10,10,22,1,,,,,,,,,,,,,,,,,,,,,,,,,,,,
,,,,,V1_038,20,male,2024-05-23_16h33.26.685,jersey_experiment_5_v1,2023.2.2,Win32,84.74576271,,,,,,,,,,,,,,,,848.8352,850.635,850.635,853.0704,return,1.0498,,27.60416667,,,,,,FBP-YG-18.png,0.37,1.2,22,1,,,,,,,,,,,,,0,11,11,21,1,,,,,,,,,,,,,,,,,,,,,,,,,,,,
,,,,,V1_038,20,male,2024-05-23_16h33.26.685,jersey_experiment_5_v1,2023.2.2,Win32,84.74576271,,,,,,,,,,,,,,,,853.0707,854.8704,854.8704,856.8587,return,0.8891,,74.73958333,,,,,,FBP-RB-81.png,0.43,1.2,54,1,,,,,,,,,,,,,0,12,12,53,1,,,,,,,,,,,,,,,,,,,,,,,,,,,,
,,,,,V1_038,20,male,2024-05-23_16h33.26.685,jersey_experiment_5_v1,2023.2.2,Win32,84.74576271,,,,,,,,,,,,,,,,856.859,858.6587,858.6587,861.0588,return,1.0927,,24.47916667,,,,,,FBP-RB-91.png,0.35,1.2,56,1,,,,,,,,,,,,,0,13,13,55,1,,,,,,,,,,,,,,,,,,,,,,,,,,,,
,,,,,V1_038,20,male,2024-05-23_16h33.26.685,jersey_experiment_5_v1,2023.2.2,Win32,84.74576271,,,,,,,,,,,,,,,,861.059,862.8589,862.8589,865.2002,return,1.036,,25,,,,,,FBP-YG-19.png,0.35,1.2,26,1,,,,,,,,,,,,,0,14,14,25,1,,,,,,,,,,,,,,,,,,,,,,,,,,,,
,,,,,V1_038,20,male,2024-05-23_16h33.26.685,jersey_experiment_5_v1,2023.2.2,Win32,84.74576271,,,,,,,,,,,,,,,,865.2003,867.0002,867.0003,868.3061,return,0.7057,,39.19270833,,,,,,FBP-OG-17.png,0.35,1.2,31,1,,,,,,,,,,,,,0,15,15,30,1,,,,,,,,,,,,,,,,,,,,,,,,,,,,
,,,,,V1_038,20,male,2024-05-23_16h33.26.685,jersey_experiment_5_v1,2023.2.2,Win32,84.74576271,,,,,,,,,,,,,,,,868.3063,870.1064,870.1065,871.8239,return,0.8949,,61.45833333,,,,,,FBP-OG-17.png,0.4,1.2,33,1,,,,,,,,,,,,,0,16,16,32,1,,,,,,,,,,,,,,,,,,,,,,,,,,,,
,,,,,V1_038,20,male,2024-05-23_16h33.26.685,jersey_experiment_5_v1,2023.2.2,Win32,84.74576271,,,,,,,,,,,,,,,,871.824,873.624,873.624,875.236,return,0.9074,,36.71875,,,,,,FBP-RB-91.png,0.37,1.2,57,1,,,,,,,,,,,,,0,17,17,56,1,,,,,,,,,,,,,,,,,,,,,,,,,,,,
,,,,,V1_038,20,male,2024-05-23_16h33.26.685,jersey_experiment_5_v1,2023.2.2,Win32,84.74576271,,,,,,,,,,,,,,,,875.2362,877.0359,877.0359,878.7184,return,0.7548,,71.875,,,,,,FBP-YG-17.png,0.4,1.2,18,1,,,,,,,,,,,,,0,18,18,17,1,,,,,,,,,,,,,,,,,,,,,,,,,,,,
,,,,,V1_038,20,male,2024-05-23_16h33.26.685,jersey_experiment_5_v1,2023.2.2,Win32,84.74576271,,,,,,,,,,,,,,,,878.7186,880.5183,880.5183,882.3185,return,1.1437,,77.34375,,,,,,FBP-OG-19.png,0.4,1.2,43,1,,,,,,,,,,,,,0,19,19,42,1,,,,,,,,,,,,,,,,,,,,,,,,,,,,
,,,,,V1_038,20,male,2024-05-23_16h33.26.685,jersey_experiment_5_v1,2023.2.2,Win32,84.74576271,,,,,,,,,,,,,,,,882.3188,884.1184,884.1184,885.9539,return,0.7137,,56.90104167,,,,,,FBP-YG-19.png,0.37,1.2,27,1,,,,,,,,,,,,,0,20,20,26,1,,,,,,,,,,,,,,,,,,,,,,,,,,,,
,,,,,V1_038,20,male,2024-05-23_16h33.26.685,jersey_experiment_5_v1,2023.2.2,Win32,84.74576271,,,,,,,,,,,,,,,,885.954,887.7542,887.7542,889.1187,return,0.7768,,88.93229167,,,,,,FBP-RB-81.png,0.45,1.2,55,1,,,,,,,,,,,,,0,21,21,54,1,,,,,,,,,,,,,,,,,,,,,,,,,,,,
,,,,,V1_038,20,male,2024-05-23_16h33.26.685,jersey_experiment_5_v1,2023.2.2,Win32,84.74576271,,,,,,,,,,,,,,,,889.119,890.9187,890.9187,892.3541,return,0.6685,,42.578125,,,,,,FBP-OG-18.png,0.35,1.2,36,1,,,,,,,,,,,,,0,22,22,35,1,,,,,,,,,,,,,,,,,,,,,,,,,,,,
,,,,,V1_038,20,male,2024-05-23_16h33.26.685,jersey_experiment_5_v1,2023.2.2,Win32,84.74576271,,,,,,,,,,,,,,,,892.3542,894.1542,894.1542,895.9072,return,1.13,,42.578125,,,,,,FBP-YG-17.png,0.37,1.2,17,1,,,,,,,,,,,,,0,23,23,16,1,,,,,,,,,,,,,,,,,,,,,,,,,,,,
,,,,,V1_038,20,male,2024-05-23_16h33.26.685,jersey_experiment_5_v1,2023.2.2,Win32,84.74576271,,,,,,,,,,,,,,,,895.9073,897.7072,897.7072,900.9426,return,1.7527,,41.92708333,,,,,,FBP-OG-19.png,0.37,1.2,42,1,,,,,,,,,,,,,0,24,24,41,1,,,,,,,,,,,,,,,,,,,,,,,,,,,,
,,,,,V1_038,20,male,2024-05-23_16h33.26.685,jersey_experiment_5_v1,2023.2.2,Win32,84.74576271,,,,,,,,,,,,,,,,900.9428,902.2368,902.2368,904.2368,return,0.7103,,88.41145833,,,,,,FBP-PT-81.png,0.45,1.2,10,0.5,,,,,,,,,,,,,0,25,25,9,1,,,,,,,,,,,,,,,,,,,,,,,,,,,,
,,,,,V1_038,20,male,2024-05-23_16h33.26.685,jersey_experiment_5_v1,2023.2.2,Win32,84.74576271,,,,,,,,,,,,,,,,904.2371,906.037,906.0371,907.3077,return,0.7237,,90.75520833,,,,,,FBP-YG-17.png,0.43,1.2,19,1,,,,,,,,,,,,,0,26,26,18,1,,,,,,,,,,,,,,,,,,,,,,,,,,,,
,,,,,V1_038,20,male,2024-05-23_16h33.26.685,jersey_experiment_5_v1,2023.2.2,Win32,84.74576271,,,,,,,,,,,,,,,,907.3079,909.1076,909.1076,910.6019,return,0.7957,,76.04166667,,,,,,FBP-OG-18.png,0.4,1.2,38,1,,,,,,,,,,,,,0,27,27,37,1,,,,,,,,,,,,,,,,,,,,,,,,,,,,
,,,,,V1_038,20,male,2024-05-23_16h33.26.685,jersey_experiment_5_v1,2023.2.2,Win32,84.74576271,,,,,,,,,,,,,,,,910.6021,912.4021,912.4021,913.8255,return,0.7064,,92.31770833,,,,,,FBP-RB-91.png,0.45,1.2,60,1,,,,,,,,,,,,,0,28,28,59,1,,,,,,,,,,,,,,,,,,,,,,,,,,,,
,,,,,V1_038,20,male,2024-05-23_16h33.26.685,jersey_experiment_5_v1,2023.2.2,Win32,84.74576271,,,,,,,,,,,,,,,,913.8257,915.1198,915.1198,917.4022,return,0.6412,,74.08854167,,,,,,FBP-PT-71.png,0.4,1.2,3,0.5,,,,,,,,,,,,,0,29,29,2,1,,,,,,,,,,,,,,,,,,,,,,,,,,,,
,,,,,V1_038,20,male,2024-05-23_16h33.26.685,jersey_experiment_5_v1,2023.2.2,Win32,84.74576271,,,,,,,,,,,,,,,,917.4025,918.6963,918.6963,922.72,return,2.5166,,74.08854167,,,,,,FBP-PT-71.png,0.43,1.2,4,0.5,,,,,,,,,,,,,0,30,30,3,1,,,,,,,,,,,,,,,,,,,,,,,,,,,,
,,,,,V1_038,20,male,2024-05-23_16h33.26.685,jersey_experiment_5_v1,2023.2.2,Win32,84.74576271,,,,,,,,,,,,,,,,922.7202,924.5199,924.52,930.4027,return,3.459,,49.73958333,,,,,,FBP-RB-91.png,0.4,1.2,58,1,,,,,,,,,,,,,0,31,31,57,1,,,,,,,,,,,,,,,,,,,,,,,,,,,,
,,,,,V1_038,20,male,2024-05-23_16h33.26.685,jersey_experiment_5_v1,2023.2.2,Win32,84.74576271,,,,,,,,,,,,,,,,930.4029,932.2026,932.2027,936.7321,return,3.474,,38.93229167,,,,,,FBP-RB-81.png,0.4,1.2,53,1,,,,,,,,,,,,,0,32,32,52,1,,,,,,,,,,,,,,,,,,,,,,,,,,,,
,,,,,V1_038,20,male,2024-05-23_16h33.26.685,jersey_experiment_5_v1,2023.2.2,Win32,84.74576271,,,,,,,,,,,,,,,,936.7367,938.5323,938.5323,943.8737,return,0.7907,,56.25,,,,,,FBP-RB-71.png,0.43,1.2,49,1,,,,,,,,,,,,,0,33,33,48,1,,,,,,,,,,,,,,,,,,,,,,,,,,,,
,,,,,V1_038,20,male,2024-05-23_16h33.26.685,jersey_experiment_5_v1,2023.2.2,Win32,84.74576271,,,,,,,,,,,,,,,,943.8739,945.1678,945.1678,947.1797,return,0.7449,,31.51041667,,,,,,FBP-PT-81.png,0.35,1.2,6,0.5,,,,,,,,,,,,,0,34,34,5,1,,,,,,,,,,,,,,,,,,,,,,,,,,,,
,,,,,V1_038,20,male,2024-05-23_16h33.26.685,jersey_experiment_5_v1,2023.2.2,Win32,84.74576271,,,,,,,,,,,,,,,,947.18,948.9797,948.9798,950.321,return,0.8241,,31.38020833,,,,,,FBP-OG-17.png,0.37,1.2,32,1,,,,,,,,,,,,,0,35,35,31,1,,,,,,,,,,,,,,,,,,,,,,,,,,,,
,,,,,V1_038,20,male,2024-05-23_16h33.26.685,jersey_experiment_5_v1,2023.2.2,Win32,84.74576271,,,,,,,,,,,,,,,,950.3211,951.6152,951.6152,954.1564,return,1.0284,,89.19270833,,,,,,FBP-PT-71.png,0.45,1.2,5,0.5,,,,,,,,,,,,,0,36,36,4,1,,,,,,,,,,,,,,,,,,,,,,,,,,,,
,,,,,V1_038,20,male,2024-05-23_16h33.26.685,jersey_experiment_5_v1,2023.2.2,Win32,84.74576271,,,,,,,,,,,,,,,,954.1566,955.9565,955.9565,957.839,return,0.8124,,24.86979167,,,,,,FBP-RB-81.png,0.35,1.2,51,1,,,,,,,,,,,,,0,37,37,50,1,,,,,,,,,,,,,,,,,,,,,,,,,,,,
,,,,,V1_038,20,male,2024-05-23_16h33.26.685,jersey_experiment_5_v1,2023.2.2,Win32,84.74576271,,,,,,,,,,,,,,,,957.8392,959.6391,959.6391,961.9331,return,1.8156,,24.08854167,,,,,,FBP-OG-18.png,0.37,1.2,37,1,,,,,,,,,,,,,0,38,38,36,1,,,,,,,,,,,,,,,,,,,,,,,,,,,,
,,,,,V1_038,20,male,2024-05-23_16h33.26.685,jersey_experiment_5_v1,2023.2.2,Win32,84.74576271,,,,,,,,,,,,,,,,961.9332,963.7333,963.7333,964.9098,return,0.7303,,23.95833333,,,,,,FBP-YG-17.png,0.35,1.2,16,1,,,,,,,,,,,,,0,39,39,15,1,,,,,,,,,,,,,,,,,,,,,,,,,,,,
,,,,,V1_038,20,male,2024-05-23_16h33.26.685,jersey_experiment_5_v1,2023.2.2,Win32,84.74576271,,,,,,,,,,,,,,,,964.91,966.204,966.204,969.0511,return,1.5105,,74.21875,,,,,,FBP-PT-91.png,0.43,1.2,14,0.5,,,,,,,,,,,,,0,40,40,13,1,,,,,,,,,,,,,,,,,,,,,,,,,,,,
,,,,,V1_038,20,male,2024-05-23_16h33.26.685,jersey_experiment_5_v1,2023.2.2,Win32,84.74576271,,,,,,,,,,,,,,,,969.0514,970.8512,970.8512,973.2748,return,1.5121,,78.77604167,,,,,,FBP-YG-19.png,0.45,1.2,30,1,,,,,,,,,,,,,0,41,41,29,1,,,,,,,,,,,,,,,,,,,,,,,,,,,,
,,,,,V1_038,20,male,2024-05-23_16h33.26.685,jersey_experiment_5_v1,2023.2.2,Win32,84.74576271,,,,,,,,,,,,,,,,973.2751,975.0749,975.0749,977.0866,return,0.732,,25,,,,,,FBP-OG-19.png,0.35,1.2,41,1,,,,,,,,,,,,,0,42,42,40,1,,,,,,,,,,,,,,,,,,,,,,,,,,,,
,,,,,V1_038,20,male,2024-05-23_16h33.26.685,jersey_experiment_5_v1,2023.2.2,Win32,84.74576271,,,,,,,,,,,,,,,,977.0869,978.8868,978.8868,981.4397,return,1.4131,,74.34895833,,,,,,FBP-YG-18.png,0.45,1.2,25,1,,,,,,,,,,,,,0,43,43,24,1,,,,,,,,,,,,,,,,,,,,,,,,,,,,
,,,,,V1_038,20,male,2024-05-23_16h33.26.685,jersey_experiment_5_v1,2023.2.2,Win32,84.74576271,,,,,,,,,,,,,,,,981.44,982.7339,982.7339,987.3693,return,0.8891,,24.73958333,,,,,,FBP-PT-71.png,0.35,1.2,1,0.5,,,,,,,,,,,,,0,44,44,0,1,,,,,,,,,,,,,,,,,,,,,,,,,,,,
,,,,,V1_038,20,male,2024-05-23_16h33.26.685,jersey_experiment_5_v1,2023.2.2,Win32,84.74576271,,,,,,,,,,,,,,,,987.3695,989.1694,989.1694,991.499,return,0.7708,,74.86979167,,,,,,FBP-OG-18.png,0.45,1.2,40,1,,,,,,,,,,,,,0,45,45,39,1,,,,,,,,,,,,,,,,,,,,,,,,,,,,
,,,,,V1_038,20,male,2024-05-23_16h33.26.685,jersey_experiment_5_v1,2023.2.2,Win32,84.74576271,,,,,,,,,,,,,,,,991.4993,993.2989,993.2989,996.0639,return,1.0821,,73.69791667,,,,,,FBP-OG-19.png,0.43,1.2,44,1,,,,,,,,,,,,,0,46,46,43,1,,,,,,,,,,,,,,,,,,,,,,,,,,,,
,,,,,V1_038,20,male,2024-05-23_16h33.26.685,jersey_experiment_5_v1,2023.2.2,Win32,84.74576271,,,,,,,,,,,,,,,,996.0642,997.864,997.8641,999.8993,return,1.369,,37.63020833,,,,,,FBP-RB-71.png,0.37,1.2,47,1,,,,,,,,,,,,,0,47,47,46,1,,,,,,,,,,,,,,,,,,,,,,,,,,,,
,,,,,V1_038,20,male,2024-05-23_16h33.26.685,jersey_experiment_5_v1,2023.2.2,Win32,84.74576271,,,,,,,,,,,,,,,,999.8995,1001.6993,1001.6993,1003.9818,return,1.086,,74.21875,,,,,,FBP-OG-17.png,0.45,1.2,35,1,,,,,,,,,,,,,0,48,48,34,1,,,,,,,,,,,,,,,,,,,,,,,,,,,,
,,,,,V1_038,20,male,2024-05-23_16h33.26.685,jersey_experiment_5_v1,2023.2.2,Win32,84.74576271,,,,,,,,,,,,,,,,1003.9819,1005.7819,1005.7819,1006.8759,return,0.7347,,74.21875,,,,,,FBP-OG-18.png,0.43,1.2,39,1,,,,,,,,,,,,,0,49,49,38,1,,,,,,,,,,,,,,,,,,,,,,,,,,,,
,,,,,V1_038,20,male,2024-05-23_16h33.26.685,jersey_experiment_5_v1,2023.2.2,Win32,84.74576271,,,,,,,,,,,,,,,,1006.8761,1008.1701,1008.1701,1010.5114,return,0.9782,,48.828125,,,,,,FBP-PT-81.png,0.37,1.2,7,0.5,,,,,,,,,,,,,0,50,50,6,1,,,,,,,,,,,,,,,,,,,,,,,,,,,,
,,,,,V1_038,20,male,2024-05-23_16h33.26.685,jersey_experiment_5_v1,2023.2.2,Win32,84.74576271,,,,,,,,,,,,,,,,1010.5115,1011.8056,1011.8056,1014.6645,return,1.5619,,43.48958333,,,,,,FBP-PT-91.png,0.35,1.2,11,0.5,,,,,,,,,,,,,0,51,51,10,1,,,,,,,,,,,,,,,,,,,,,,,,,,,,
,,,,,V1_038,20,male,2024-05-23_16h33.26.685,jersey_experiment_5_v1,2023.2.2,Win32,84.74576271,,,,,,,,,,,,,,,,1014.6647,1016.4645,1016.4646,1018.0292,return,0.7568,,55.72916667,,,,,,FBP-YG-19.png,0.43,1.2,29,1,,,,,,,,,,,,,0,52,52,28,1,,,,,,,,,,,,,,,,,,,,,,,,,,,,
,,,,,V1_038,20,male,2024-05-23_16h33.26.685,jersey_experiment_5_v1,2023.2.2,Win32,84.74576271,,,,,,,,,,,,,,,,1018.0295,1019.8296,1019.8296,1021.8177,return,1.4523,,74.609375,,,,,,FBP-OG-19.png,0.45,1.2,45,1,,,,,,,,,,,,,0,53,53,44,1,,,,,,,,,,,,,,,,,,,,,,,,,,,,
,,,,,V1_038,20,male,2024-05-23_16h33.26.685,jersey_experiment_5_v1,2023.2.2,Win32,84.74576271,,,,,,,,,,,,,,,,1021.8178,1023.618,1023.6181,1025.3238,return,0.8626,,30.72916667,,,,,,FBP-RB-71.png,0.35,1.2,46,1,,,,,,,,,,,,,0,54,54,45,1,,,,,,,,,,,,,,,,,,,,,,,,,,,,
,,,,,V1_038,20,male,2024-05-23_16h33.26.685,jersey_experiment_5_v1,2023.2.2,Win32,84.74576271,,,,,,,,,,,,,,,,1025.3239,1026.6178,1026.6178,1027.9944,return,0.5453,,30.72916667,,,,,,FBP-PT-91.png,0.37,1.2,12,0.5,,,,,,,,,,,,,0,55,55,11,1,,,,,,,,,,,,,,,,,,,,,,,,,,,,
,,,,,V1_038,20,male,2024-05-23_16h33.26.685,jersey_experiment_5_v1,2023.2.2,Win32,84.74576271,,,,,,,,,,,,,,,,1027.9947,1029.7944,1029.7944,1031.2652,return,0.7897,,70.57291667,,,,,,FBP-YG-17.png,0.45,1.2,20,1,,,,,,,,,,,,,0,56,56,19,1,,,,,,,,,,,,,,,,,,,,,,,,,,,,
,,,,,V1_038,20,male,2024-05-23_16h33.26.685,jersey_experiment_5_v1,2023.2.2,Win32,84.74576271,,,,,,,,,,,,,,,,1031.2654,1032.5593,1032.5593,1034.9239,return,0.8993,,24.86979167,,,,,,FBP-PT-71.png,0.37,1.2,2,0.5,,,,,,,,,,,,,0,57,57,1,1,,,,,,,,,,,,,,,,,,,,,,,,,,,,
,,,,,V1_038,20,male,2024-05-23_16h33.26.685,jersey_experiment_5_v1,2023.2.2,Win32,84.74576271,,,,,,,,,,,,,,,,1034.9241,1036.2182,1036.2183,1037.9359,return,0.6602,,49.34895833,,,,,,FBP-PT-91.png,0.4,1.2,13,0.5,,,,,,,,,,,,,0,58,58,12,1,,,,,,,,,,,,,,,,,,,,,,,,,,,,
,,,,,V1_038,20,male,2024-05-23_16h33.26.685,jersey_experiment_5_v1,2023.2.2,Win32,84.74576271,,,,,,,,,,,,,,,,1037.9361,1039.736,1039.7361,1044.6186,return,1.0181,,24.34895833,,,,,,FBP-YG-18.png,0.35,1.2,21,1,,,,,,,,,,,,,0,59,59,20,1,,,,,,,,,,,,,,,,,,,,,,,,,,,,
,,,,,V1_038,20,male,2024-05-23_16h33.26.685,jersey_experiment_5_v1,2023.2.2,Win32,84.74576271,,,,,,,,,,,,,,,,1044.6204,1046.4187,1046.4187,1048.9599,return,1.5059,,74.86979167,,,,,,FBP-RB-18.png,0.43,1.2,54,1,,,,,,,,,,,,,,,,,,0,0,0,53,1,,,,,,,,,,,,,,,,,,,,,,,
,,,,,V1_038,20,male,2024-05-23_16h33.26.685,jersey_experiment_5_v1,2023.2.2,Win32,84.74576271,,,,,,,,,,,,,,,,1048.9603,1050.7599,1050.7599,1051.8895,return,0.6693,,74.86979167,,,,,,FBP-OG-71.png,0.4,1.2,33,1,,,,,,,,,,,,,,,,,,0,1,1,32,1,,,,,,,,,,,,,,,,,,,,,,,
,,,,,V1_038,20,male,2024-05-23_16h33.26.685,jersey_experiment_5_v1,2023.2.2,Win32,84.74576271,,,,,,,,,,,,,,,,1051.8895,1053.6896,1053.6896,1055.5367,return,1.3994,,77.34375,,,,,,FBP-YG-91.png,0.43,1.2,29,1,,,,,,,,,,,,,,,,,,0,2,2,28,1,,,,,,,,,,,,,,,,,,,,,,,
,,,,,V1_038,20,male,2024-05-23_16h33.26.685,jersey_experiment_5_v1,2023.2.2,Win32,84.74576271,,,,,,,,,,,,,,,,1055.537,1057.3367,1057.3367,1059.4897,return,1.3416,,88.80208333,,,,,,FBP-OG-81.png,0.45,1.2,40,1,,,,,,,,,,,,,,,,,,0,3,3,39,1,,,,,,,,,,,,,,,,,,,,,,,
,,,,,V1_038,20,male,2024-05-23_16h33.26.685,jersey_experiment_5_v1,2023.2.2,Win32,84.74576271,,,,,,,,,,,,,,,,1059.4901,1061.2898,1061.2898,1063.5487,return,0.9339,,49.34895833,,,,,,FBP-YG-91.png,0.4,1.2,28,1,,,,,,,,,,,,,,,,,,0,4,4,27,1,,,,,,,,,,,,,,,,,,,,,,,
,,,,,V1_038,20,male,2024-05-23_16h33.26.685,jersey_experiment_5_v1,2023.2.2,Win32,84.74576271,,,,,,,,,,,,,,,,1063.5489,1065.3488,1065.3489,1068.3841,return,2.1653,,31.77083333,,,,,,FBP-RB-19.png,0.37,1.2,57,1,,,,,,,,,,,,,,,,,,0,5,5,56,1,,,,,,,,,,,,,,,,,,,,,,,
,,,,,V1_038,20,male,2024-05-23_16h33.26.685,jersey_experiment_5_v1,2023.2.2,Win32,84.74576271,,,,,,,,,,,,,,,,1068.3843,1069.6782,1069.6782,1071.5843,return,0.8568,,33.46354167,,,,,,FBP-PT-17.png,0.37,1.2,2,0.5,,,,,,,,,,,,,,,,,,0,6,6,1,1,,,,,,,,,,,,,,,,,,,,,,,
,,,,,V1_038,20,male,2024-05-23_16h33.26.685,jersey_experiment_5_v1,2023.2.2,Win32,84.74576271,,,,,,,,,,,,,,,,1071.5844,1073.3843,1073.3843,1074.6197,return,0.735,,32.29166667,,,,,,FBP-OG-91.png,0.35,1.2,41,1,,,,,,,,,,,,,,,,,,0,7,7,40,1,,,,,,,,,,,,,,,,,,,,,,,
,,,,,V1_038,20,male,2024-05-23_16h33.26.685,jersey_experiment_5_v1,2023.2.2,Win32,84.74576271,,,,,,,,,,,,,,,,1074.6198,1075.9138,1075.9138,1077.6199,return,0.8605,,51.171875,,,,,,FBP-PT-17.png,0.4,1.2,3,0.5,,,,,,,,,,,,,,,,,,0,8,8,2,1,,,,,,,,,,,,,,,,,,,,,,,
,,,,,V1_038,20,male,2024-05-23_16h33.26.685,jersey_experiment_5_v1,2023.2.2,Win32,84.74576271,,,,,,,,,,,,,,,,1077.6201,1079.42,1079.42,1080.7963,return,0.7463,,74.21875,,,,,,FBP-YG-71.png,0.43,1.2,19,1,,,,,,,,,,,,,,,,,,0,9,9,18,1,,,,,,,,,,,,,,,,,,,,,,,
,,,,,V1_038,20,male,2024-05-23_16h33.26.685,jersey_experiment_5_v1,2023.2.2,Win32,84.74576271,,,,,,,,,,,,,,,,1080.7965,1082.5965,1082.5966,1086.6084,return,3.3542,,35.15625,,,,,,FBP-YG-71.png,0.37,1.2,17,1,,,,,,,,,,,,,,,,,,0,10,10,16,1,,,,,,,,,,,,,,,,,,,,,,,
,,,,,V1_038,20,male,2024-05-23_16h33.26.685,jersey_experiment_5_v1,2023.2.2,Win32,84.74576271,,,,,,,,,,,,,,,,1086.6085,1087.9025,1087.9025,1089.9614,return,0.6758,,49.609375,,,,,,FBP-PT-19.png,0.37,1.2,12,0.5,,,,,,,,,,,,,,,,,,0,11,11,11,1,,,,,,,,,,,,,,,,,,,,,,,
,,,,,V1_038,20,male,2024-05-23_16h33.26.685,jersey_experiment_5_v1,2023.2.2,Win32,84.74576271,,,,,,,,,,,,,,,,1089.9615,1091.7614,1091.7614,1096.4793,return,3.3662,,50,,,,,,FBP-RB-19.png,0.35,1.2,56,1,,,,,,,,,,,,,,,,,,0,12,12,55,1,,,,,,,,,,,,,,,,,,,,,,,
,,,,,V1_038,20,male,2024-05-23_16h33.26.685,jersey_experiment_5_v1,2023.2.2,Win32,84.74576271,,,,,,,,,,,,,,,,1096.4795,1098.2795,1098.2795,1101.2442,return,1.0388,,49.86979167,,,,,,FBP-RB-19.png,0.4,1.2,58,1,,,,,,,,,,,,,,,,,,0,13,13,57,1,,,,,,,,,,,,,,,,,,,,,,,
,,,,,V1_038,20,male,2024-05-23_16h33.26.685,jersey_experiment_5_v1,2023.2.2,Win32,84.74576271,,,,,,,,,,,,,,,,1101.2444,1103.0442,1103.0442,1105.2323,return,1.4934,,74.47916667,,,,,,FBP-OG-91.png,0.45,1.2,45,1,,,,,,,,,,,,,,,,,,0,14,14,44,1,,,,,,,,,,,,,,,,,,,,,,,
,,,,,V1_038,20,male,2024-05-23_16h33.26.685,jersey_experiment_5_v1,2023.2.2,Win32,84.74576271,,,,,,,,,,,,,,,,1105.2325,1106.5268,1106.5268,1111.7153,return,4.0837,,74.47916667,,,,,,FBP-PT-18.png,0.43,1.2,9,0.5,,,,,,,,,,,,,,,,,,0,15,15,8,1,,,,,,,,,,,,,,,,,,,,,,,
,,,,,V1_038,20,male,2024-05-23_16h33.26.685,jersey_experiment_5_v1,2023.2.2,Win32,84.74576271,,,,,,,,,,,,,,,,1111.7197,1113.5152,1113.5152,1115.9624,return,1.1705,,49.34895833,,,,,,FBP-RB-18.png,0.4,1.2,53,1,,,,,,,,,,,,,,,,,,0,16,16,52,1,,,,,,,,,,,,,,,,,,,,,,,
,,,,,V1_038,20,male,2024-05-23_16h33.26.685,jersey_experiment_5_v1,2023.2.2,Win32,84.74576271,,,,,,,,,,,,,,,,1115.9625,1117.7626,1117.7627,1122.4449,return,3.8857,,87.5,,,,,,FBP-RB-19.png,0.45,1.2,60,1,,,,,,,,,,,,,,,,,,0,17,17,59,1,,,,,,,,,,,,,,,,,,,,,,,
,,,,,V1_038,20,male,2024-05-23_16h33.26.685,jersey_experiment_5_v1,2023.2.2,Win32,84.74576271,,,,,,,,,,,,,,,,1122.4451,1123.7392,1123.7392,1125.8685,return,0.6969,,41.40625,,,,,,FBP-PT-19.png,0.35,1.2,11,0.5,,,,,,,,,,,,,,,,,,0,18,18,10,1,,,,,,,,,,,,,,,,,,,,,,,
,,,,,V1_038,20,male,2024-05-23_16h33.26.685,jersey_experiment_5_v1,2023.2.2,Win32,84.74576271,,,,,,,,,,,,,,,,1125.8686,1127.6687,1127.6687,1129.1157,return,0.5697,,75.13020833,,,,,,FBP-YG-81.png,0.43,1.2,24,1,,,,,,,,,,,,,,,,,,0,19,19,23,1,,,,,,,,,,,,,,,,,,,,,,,
,,,,,V1_038,20,male,2024-05-23_16h33.26.685,jersey_experiment_5_v1,2023.2.2,Win32,84.74576271,,,,,,,,,,,,,,,,1129.1158,1130.41,1130.41,1132.0454,return,0.7558,,88.02083333,,,,,,FBP-PT-17.png,0.43,1.2,4,0.5,,,,,,,,,,,,,,,,,,0,20,20,3,1,,,,,,,,,,,,,,,,,,,,,,,
,,,,,V1_038,20,male,2024-05-23_16h33.26.685,jersey_experiment_5_v1,2023.2.2,Win32,84.74576271,,,,,,,,,,,,,,,,1132.0456,1133.8454,1133.8454,1134.8925,return,0.6279,,91.14583333,,,,,,FBP-YG-81.png,0.45,1.2,25,1,,,,,,,,,,,,,,,,,,0,21,21,24,1,,,,,,,,,,,,,,,,,,,,,,,
,,,,,V1_038,20,male,2024-05-23_16h33.26.685,jersey_experiment_5_v1,2023.2.2,Win32,84.74576271,,,,,,,,,,,,,,,,1134.8927,1136.6927,1136.6927,1139.2102,return,1.0747,,39.58333333,,,,,,FBP-YG-91.png,0.35,1.2,26,1,,,,,,,,,,,,,,,,,,0,22,22,25,1,,,,,,,,,,,,,,,,,,,,,,,
,,,,,V1_038,20,male,2024-05-23_16h33.26.685,jersey_experiment_5_v1,2023.2.2,Win32,84.74576271,,,,,,,,,,,,,,,,1139.2105,1141.0105,1141.0106,1142.3044,return,0.6592,,81.640625,,,,,,FBP-RB-17.png,0.45,1.2,50,1,,,,,,,,,,,,,,,,,,0,23,23,49,1,,,,,,,,,,,,,,,,,,,,,,,
,,,,,V1_038,20,male,2024-05-23_16h33.26.685,jersey_experiment_5_v1,2023.2.2,Win32,84.74576271,,,,,,,,,,,,,,,,1142.3047,1144.1049,1144.1049,1145.4693,return,0.7098,,23.56770833,,,,,,FBP-RB-18.png,0.35,1.2,51,1,,,,,,,,,,,,,,,,,,0,24,24,50,1,,,,,,,,,,,,,,,,,,,,,,,
,,,,,V1_038,20,male,2024-05-23_16h33.26.685,jersey_experiment_5_v1,2023.2.2,Win32,84.74576271,,,,,,,,,,,,,,,,1145.4697,1147.2694,1147.2694,1149.1282,return,0.75,,78.90625,,,,,,FBP-YG-91.png,0.45,1.2,30,1,,,,,,,,,,,,,,,,,,0,25,25,29,1,,,,,,,,,,,,,,,,,,,,,,,
,,,,,V1_038,20,male,2024-05-23_16h33.26.685,jersey_experiment_5_v1,2023.2.2,Win32,84.74576271,,,,,,,,,,,,,,,,1149.1284,1150.4226,1150.4226,1152.0813,return,0.6824,,38.80208333,,,,,,FBP-PT-17.png,0.35,1.2,1,0.5,,,,,,,,,,,,,,,,,,0,26,26,0,1,,,,,,,,,,,,,,,,,,,,,,,
,,,,,V1_038,20,male,2024-05-23_16h33.26.685,jersey_experiment_5_v1,2023.2.2,Win32,84.74576271,,,,,,,,,,,,,,,,1152.0816,1153.8814,1153.8815,1155.4815,return,0.7126,,50.13020833,,,,,,FBP-OG-91.png,0.37,1.2,42,1,,,,,,,,,,,,,,,,,,0,27,27,41,1,,,,,,,,,,,,,,,,,,,,,,,
,,,,,V1_038,20,male,2024-05-23_16h33.26.685,jersey_experiment_5_v1,2023.2.2,Win32,84.74576271,,,,,,,,,,,,,,,,1155.4817,1156.7757,1156.7757,1157.8581,return,0.5657,,50.13020833,,,,,,FBP-PT-18.png,0.37,1.2,7,0.5,,,,,,,,,,,,,,,,,,0,28,28,6,1,,,,,,,,,,,,,,,,,,,,,,,
,,,,,V1_038,20,male,2024-05-23_16h33.26.685,jersey_experiment_5_v1,2023.2.2,Win32,84.74576271,,,,,,,,,,,,,,,,1157.8583,1159.6582,1159.6582,1161.6935,return,0.8716,,50.13020833,,,,,,FBP-OG-81.png,0.43,1.2,39,1,,,,,,,,,,,,,,,,,,0,29,29,38,1,,,,,,,,,,,,,,,,,,,,,,,
,,,,,V1_038,20,male,2024-05-23_16h33.26.685,jersey_experiment_5_v1,2023.2.2,Win32,84.74576271,,,,,,,,,,,,,,,,1161.6936,1162.9876,1162.9876,1164.8112,return,0.9236,,76.30208333,,,,,,FBP-PT-18.png,0.45,1.2,10,0.5,,,,,,,,,,,,,,,,,,0,30,30,9,1,,,,,,,,,,,,,,,,,,,,,,,
,,,,,V1_038,20,male,2024-05-23_16h33.26.685,jersey_experiment_5_v1,2023.2.2,Win32,84.74576271,,,,,,,,,,,,,,,,1164.8114,1166.6113,1166.6113,1167.8584,return,0.7668,,76.04166667,,,,,,FBP-OG-71.png,0.43,1.2,34,1,,,,,,,,,,,,,,,,,,0,31,31,33,1,,,,,,,,,,,,,,,,,,,,,,,
,,,,,V1_038,20,male,2024-05-23_16h33.26.685,jersey_experiment_5_v1,2023.2.2,Win32,84.74576271,,,,,,,,,,,,,,,,1167.8586,1169.1526,1169.1526,1172.0349,return,1.8916,,27.47395833,,,,,,FBP-PT-18.png,0.35,1.2,6,0.5,,,,,,,,,,,,,,,,,,0,32,32,5,1,,,,,,,,,,,,,,,,,,,,,,,
,,,,,V1_038,20,male,2024-05-23_16h33.26.685,jersey_experiment_5_v1,2023.2.2,Win32,84.74576271,,,,,,,,,,,,,,,,1172.0351,1173.8351,1173.8351,1176.8353,return,2.3626,,49.73958333,,,,,,FBP-OG-81.png,0.4,1.2,38,1,,,,,,,,,,,,,,,,,,0,33,33,37,1,,,,,,,,,,,,,,,,,,,,,,,
,,,,,V1_038,20,male,2024-05-23_16h33.26.685,jersey_experiment_5_v1,2023.2.2,Win32,84.74576271,,,,,,,,,,,,,,,,1176.8355,1178.6356,1178.6356,1181.2589,return,2.0535,,75.52083333,,,,,,FBP-RB-18.png,0.45,1.2,55,1,,,,,,,,,,,,,,,,,,0,34,34,54,1,,,,,,,,,,,,,,,,,,,,,,,
,,,,,V1_038,20,male,2024-05-23_16h33.26.685,jersey_experiment_5_v1,2023.2.2,Win32,84.74576271,,,,,,,,,,,,,,,,1181.2591,1182.553,1182.553,1184.2708,return,0.6482,,75.13020833,,,,,,FBP-PT-17.png,0.45,1.2,5,0.5,,,,,,,,,,,,,,,,,,0,35,35,4,1,,,,,,,,,,,,,,,,,,,,,,,
,,,,,V1_038,20,male,2024-05-23_16h33.26.685,jersey_experiment_5_v1,2023.2.2,Win32,84.74576271,,,,,,,,,,,,,,,,1184.2709,1186.071,1186.071,1187.2002,return,0.7528,,75.26041667,,,,,,FBP-YG-71.png,0.45,1.2,20,1,,,,,,,,,,,,,,,,,,0,36,36,19,1,,,,,,,,,,,,,,,,,,,,,,,
,,,,,V1_038,20,male,2024-05-23_16h33.26.685,jersey_experiment_5_v1,2023.2.2,Win32,84.74576271,,,,,,,,,,,,,,,,1187.2004,1189.0004,1189.0004,1190.3651,return,0.8849,,46.74479167,,,,,,FBP-RB-17.png,0.37,1.2,47,1,,,,,,,,,,,,,,,,,,0,37,37,46,1,,,,,,,,,,,,,,,,,,,,,,,
,,,,,V1_038,20,male,2024-05-23_16h33.26.685,jersey_experiment_5_v1,2023.2.2,Win32,84.74576271,,,,,,,,,,,,,,,,1190.3652,1192.1653,1192.1654,1193.5298,return,0.7357,,29.6875,,,,,,FBP-YG-71.png,0.35,1.2,16,1,,,,,,,,,,,,,,,,,,0,38,38,15,1,,,,,,,,,,,,,,,,,,,,,,,
,,,,,V1_038,20,male,2024-05-23_16h33.26.685,jersey_experiment_5_v1,2023.2.2,Win32,84.74576271,,,,,,,,,,,,,,,,1193.5301,1195.3303,1195.3303,1196.6711,return,0.7786,,37.109375,,,,,,FBP-OG-81.png,0.37,1.2,37,1,,,,,,,,,,,,,,,,,,0,39,39,36,1,,,,,,,,,,,,,,,,,,,,,,,
,,,,,V1_038,20,male,2024-05-23_16h33.26.685,jersey_experiment_5_v1,2023.2.2,Win32,84.74576271,,,,,,,,,,,,,,,,1196.6714,1198.4713,1198.4713,1202.5067,return,1.1231,,33.984375,,,,,,FBP-YG-81.png,0.37,1.2,22,1,,,,,,,,,,,,,,,,,,0,40,40,21,1,,,,,,,,,,,,,,,,,,,,,,,
,,,,,V1_038,20,male,2024-05-23_16h33.26.685,jersey_experiment_5_v1,2023.2.2,Win32,84.74576271,,,,,,,,,,,,,,,,1202.5068,1204.3068,1204.3068,1206.7658,return,2.0034,,72.13541667,,,,,,FBP-OG-71.png,0.45,1.2,35,1,,,,,,,,,,,,,,,,,,0,41,41,34,1,,,,,,,,,,,,,,,,,,,,,,,
,,,,,V1_038,20,male,2024-05-23_16h33.26.685,jersey_experiment_5_v1,2023.2.2,Win32,84.74576271,,,,,,,,,,,,,,,,1206.766,1208.5659,1208.5659,1211.9307,return,1.1243,,44.53125,,,,,,FBP-OG-71.png,0.37,1.2,32,1,,,,,,,,,,,,,,,,,,0,42,42,31,1,,,,,,,,,,,,,,,,,,,,,,,
,,,,,V1_038,20,male,2024-05-23_16h33.26.685,jersey_experiment_5_v1,2023.2.2,Win32,84.74576271,,,,,,,,,,,,,,,,1211.931,1213.7307,1213.7307,1215.8013,return,0.7843,,35.41666667,,,,,,FBP-YG-81.png,0.4,1.2,23,1,,,,,,,,,,,,,,,,,,0,43,43,22,1,,,,,,,,,,,,,,,,,,,,,,,
,,,,,V1_038,20,male,2024-05-23_16h33.26.685,jersey_experiment_5_v1,2023.2.2,Win32,84.74576271,,,,,,,,,,,,,,,,1215.8015,1217.6014,1217.6015,1219.2015,return,0.7538,,27.34375,,,,,,FBP-OG-71.png,0.35,1.2,31,1,,,,,,,,,,,,,,,,,,0,44,44,30,1,,,,,,,,,,,,,,,,,,,,,,,
,,,,,V1_038,20,male,2024-05-23_16h33.26.685,jersey_experiment_5_v1,2023.2.2,Win32,84.74576271,,,,,,,,,,,,,,,,1219.2017,1221.0015,1221.0015,1222.8604,return,1.2988,,66.015625,,,,,,FBP-RB-17.png,0.43,1.2,49,1,,,,,,,,,,,,,,,,,,0,45,45,48,1,,,,,,,,,,,,,,,,,,,,,,,
,,,,,V1_038,20,male,2024-05-23_16h33.26.685,jersey_experiment_5_v1,2023.2.2,Win32,84.74576271,,,,,,,,,,,,,,,,1222.8605,1224.6607,1224.6607,1226.8488,return,0.7283,,36.06770833,,,,,,FBP-RB-17.png,0.35,1.2,46,1,,,,,,,,,,,,,,,,,,0,46,46,45,1,,,,,,,,,,,,,,,,,,,,,,,
,,,,,V1_038,20,male,2024-05-23_16h33.26.685,jersey_experiment_5_v1,2023.2.2,Win32,84.74576271,,,,,,,,,,,,,,,,1226.849,1228.143,1228.143,1229.5079,return,0.6827,,74.34895833,,,,,,FBP-PT-19.png,0.45,1.2,15,0.5,,,,,,,,,,,,,,,,,,0,47,47,14,1,,,,,,,,,,,,,,,,,,,,,,,
,,,,,V1_038,20,male,2024-05-23_16h33.26.685,jersey_experiment_5_v1,2023.2.2,Win32,84.74576271,,,,,,,,,,,,,,,,1229.5081,1231.308,1231.308,1232.4608,return,0.6162,,28.64583333,,,,,,FBP-YG-81.png,0.35,1.2,21,1,,,,,,,,,,,,,,,,,,0,48,48,20,1,,,,,,,,,,,,,,,,,,,,,,,
,,,,,V1_038,20,male,2024-05-23_16h33.26.685,jersey_experiment_5_v1,2023.2.2,Win32,84.74576271,,,,,,,,,,,,,,,,1232.461,1234.261,1234.261,1236.0608,return,0.7435,,35.546875,,,,,,FBP-OG-81.png,0.35,1.2,36,1,,,,,,,,,,,,,,,,,,0,49,49,35,1,,,,,,,,,,,,,,,,,,,,,,,
,,,,,V1_038,20,male,2024-05-23_16h33.26.685,jersey_experiment_5_v1,2023.2.2,Win32,84.74576271,,,,,,,,,,,,,,,,1236.061,1237.355,1237.355,1241.1553,return,2.6969,,72.65625,,,,,,FBP-PT-19.png,0.43,1.2,14,0.5,,,,,,,,,,,,,,,,,,0,50,50,13,1,,,,,,,,,,,,,,,,,,,,,,,
,,,,,V1_038,20,male,2024-05-23_16h33.26.685,jersey_experiment_5_v1,2023.2.2,Win32,84.74576271,,,,,,,,,,,,,,,,1241.1555,1242.9552,1242.9552,1244.6963,return,0.8417,,49.73958333,,,,,,FBP-YG-91.png,0.37,1.2,27,1,,,,,,,,,,,,,,,,,,0,51,51,26,1,,,,,,,,,,,,,,,,,,,,,,,
,,,,,V1_038,20,male,2024-05-23_16h33.26.685,jersey_experiment_5_v1,2023.2.2,Win32,84.74576271,,,,,,,,,,,,,,,,1244.6964,1246.4965,1246.4966,1247.5319,return,0.5918,,39.32291667,,,,,,FBP-RB-18.png,0.37,1.2,52,1,,,,,,,,,,,,,,,,,,0,52,52,51,1,,,,,,,,,,,,,,,,,,,,,,,
,,,,,V1_038,20,male,2024-05-23_16h33.26.685,jersey_experiment_5_v1,2023.2.2,Win32,84.74576271,,,,,,,,,,,,,,,,1247.5321,1249.3322,1249.3322,1250.5908,return,0.7068,,57.16145833,,,,,,FBP-RB-19.png,0.43,1.2,59,1,,,,,,,,,,,,,,,,,,0,53,53,58,1,,,,,,,,,,,,,,,,,,,,,,,
,,,,,V1_038,20,male,2024-05-23_16h33.26.685,jersey_experiment_5_v1,2023.2.2,Win32,84.74576271,,,,,,,,,,,,,,,,1250.591,1252.3908,1252.3909,1255.0027,return,0.8164,,63.671875,,,,,,FBP-OG-91.png,0.43,1.2,44,1,,,,,,,,,,,,,,,,,,0,54,54,43,1,,,,,,,,,,,,,,,,,,,,,,,
,,,,,V1_038,20,male,2024-05-23_16h33.26.685,jersey_experiment_5_v1,2023.2.2,Win32,84.74576271,,,,,,,,,,,,,,,,1255.0028,1256.8029,1256.8029,1259.2147,return,0.9904,,63.41145833,,,,,,FBP-YG-71.png,0.4,1.2,18,1,,,,,,,,,,,,,,,,,,0,55,55,17,1,,,,,,,,,,,,,,,,,,,,,,,
,,,,,V1_038,20,male,2024-05-23_16h33.26.685,jersey_experiment_5_v1,2023.2.2,Win32,84.74576271,,,,,,,,,,,,,,,,1259.2148,1260.5088,1260.5088,1262.6383,return,1.003,,61.06770833,,,,,,FBP-PT-18.png,0.4,1.2,8,0.5,,,,,,,,,,,,,,,,,,0,56,56,7,1,,,,,,,,,,,,,,,,,,,,,,,
,,,,,V1_038,20,male,2024-05-23_16h33.26.685,jersey_experiment_5_v1,2023.2.2,Win32,84.74576271,,,,,,,,,,,,,,,,1262.6386,1263.9326,1263.9326,1265.6032,return,0.6481,,59.11458333,,,,,,FBP-PT-19.png,0.4,1.2,13,0.5,,,,,,,,,,,,,,,,,,0,57,57,12,1,,,,,,,,,,,,,,,,,,,,,,,
,,,,,V1_038,20,male,2024-05-23_16h33.26.685,jersey_experiment_5_v1,2023.2.2,Win32,84.74576271,,,,,,,,,,,,,,,,1265.6033,1267.4031,1267.4032,1268.6974,return,0.6428,,49.73958333,,,,,,FBP-OG-91.png,0.4,1.2,43,1,,,,,,,,,,,,,,,,,,0,58,58,42,1,,,,,,,,,,,,,,,,,,,,,,,
,,,,,V1_038,20,male,2024-05-23_16h33.26.685,jersey_experiment_5_v1,2023.2.2,Win32,84.74576271,,,,,,,,,,,,,,,,1268.6976,1270.4975,1270.4975,1275.4507,return,2.2642,,42.578125,,,,,,FBP-RB-17.png,0.4,1.2,48,1,,,,,,,,,,,,,,,,,,0,59,59,47,1,,,,,,,,,,,,,,,,,,,,,,,
,,,,,V1_038,20,male,2024-05-23_16h33.26.685,jersey_experiment_5_v1,2023.2.2,Win32,84.74576271,,,,,,,,,,,,,,,,,,,,,,,,,,,,,,,,,,,,,,,,,,,,,,,,,,,,,,,,1275.4509,1282.7452,return,7.2888,,,,,,,,,,,,,,,,,,,
,,,,,V1_038,20,male,2024-05-23_16h33.26.685,jersey_experiment_5_v1,2023.2.2,Win32,84.74576271,,,,,,,,,,,,,,,,,,,,,,,,,,,,,,,,,,,,,,,,,,,,,,,,,,,,,,,,,,,,,1282.7453,1290.7689,1,6.6023,return,1.3986,,,,,,,,,,,,
,,,,,V1_038,20,male,2024-05-23_16h33.26.685,jersey_experiment_5_v1,2023.2.2,Win32,84.74576271,,,,,,,,,,,,,,,,,,,,,,,,,,,,,,,,,,,,,,,,,,,,,,,,,,,,,,,,,,,,,,,,,,,,1290.769,1305.0095,no,right,6.2475,,,,,,
,,,,,V1_038,20,male,2024-05-23_16h33.26.685,jersey_experiment_5_v1,2023.2.2,Win32,84.74576271,,,,,,,,,,,,,,,,,,,,,,,,,,,,,,,,,,,,,,,,,,,,,,,,,,,,,,,,,,,,,,,,,,,,,,,,,,1305.0096,1307.2636,return,2.2424,