requirements.started,requirements.stopped,key_resp_3.keys,key_resp_3.rt,key_resp_3.duration,Subject ID,Age,Gender,date,expName,psychopyVersion,OS,frameRate,instructions1.started,instructions1.stopped,key_resp.keys,key_resp.rt,key_resp.duration,example.started,example.stopped,enter_2.keys,enter_2.rt,enter_2.duration,instructions2.started,instructions2.stopped,enter_3.keys,enter_3.rt,enter_3.duration,image.started,image.stopped,slider_2.started,slider_2.stopped,next.keys,next.rt,next.duration,slider.response,trial_block_1.thisRepN,trial_block_1.thisTrialN,trial_block_1.thisN,trial_block_1.thisIndex,trial_block_1.ran,Path,Width,Height,Index,Duration,trial_block_2.thisRepN,trial_block_2.thisTrialN,trial_block_2.thisN,trial_block_2.thisIndex,trial_block_2.ran,rest_break.started,rest_break.stopped,end_break.started,end_break.stopped,key_resp_5.keys,key_resp_5.rt,key_resp_5.duration,trial_block_3.thisRepN,trial_block_3.thisTrialN,trial_block_3.thisN,trial_block_3.thisIndex,trial_block_3.ran,trial_block_4.thisRepN,trial_block_4.thisTrialN,trial_block_4.thisN,trial_block_4.thisIndex,trial_block_4.ran,questions_intro.started,questions_intro.stopped,enter_12.keys,enter_12.rt,enter_12.duration,question2.started,question2.stopped,question_doingbest.response,question_doingbest.rt,enter_15.keys,enter_15.rt,enter_15.duration,pattern.started,pattern.stopped,pattern_2.text,enter_17.keys,enter_17.rt,enter_17.duration,thankyou.started,thankyou.stopped,enter_14.keys,enter_14.rt,enter_14.duration
1E-04,8.8345,return,8.8294,,V1_027,20,Female,2024-05-17_14h01.30.345,jersey_experiment_5_v1,2023.2.2,Win32,84.74576271,,,,,,,,,,,,,,,,,,,,,,,,,,,,,,,,,,,,,,,,,,,,,,,,,,,,,,,,,,,,,,,,,,,,,,,,,,,,,,
,,,,,V1_027,20,Female,2024-05-17_14h01.30.345,jersey_experiment_5_v1,2023.2.2,Win32,84.74576271,8.8347,14.6012,return,5.7595,,,,,,,,,,,,,,,,,,,,,,,,,,,,,,,,,,,,,,,,,,,,,,,,,,,,,,,,,,,,,,,,,,,,,,,,,,
,,,,,V1_027,20,Female,2024-05-17_14h01.30.345,jersey_experiment_5_v1,2023.2.2,Win32,84.74576271,,,,,,14.6014,18.3659,return,3.7185,,,,,,,,,,,,,,,,,,,,,,,,,,,,,,,,,,,,,,,,,,,,,,,,,,,,,,,,,,,,,,,,,,,,,
,,,,,V1_027,20,Female,2024-05-17_14h01.30.345,jersey_experiment_5_v1,2023.2.2,Win32,84.74576271,,,,,,,,,,,18.3661,36.0733,return,17.699,,,,,,,,,,,,,,,,,,,,,,,,,,,,,,,,,,,,,,,,,,,,,,,,,,,,,,,,,,,,,,,,
,,,,,V1_027,20,Female,2024-05-17_14h01.30.345,jersey_experiment_5_v1,2023.2.2,Win32,84.74576271,,,,,,,,,,,,,,,,36.0876,37.3904,37.3908,44.6497,return,3.8904,,35.546875,0,0,0,32,1,FBP-OG-17.png,0.4,1.2,33,0.5,,,,,,,,,,,,,,,,,,,,,,,,,,,,,,,,,,,,,,,,,,,,,
,,,,,V1_027,20,Female,2024-05-17_14h01.30.345,jersey_experiment_5_v1,2023.2.2,Win32,84.74576271,,,,,,,,,,,,,,,,44.6592,45.9552,45.9553,48.7791,return,0.9008,,56.640625,0,1,1,27,1,FBP-YG-19.png,0.4,1.2,28,0.5,,,,,,,,,,,,,,,,,,,,,,,,,,,,,,,,,,,,,,,,,,,,,
,,,,,V1_027,20,Female,2024-05-17_14h01.30.345,jersey_experiment_5_v1,2023.2.2,Win32,84.74576271,,,,,,,,,,,,,,,,48.7796,50.0729,50.0731,52.6023,return,0.2771,,74.86979167,0,2,2,23,1,FBP-YG-18.png,0.43,1.2,24,0.5,,,,,,,,,,,,,,,,,,,,,,,,,,,,,,,,,,,,,,,,,,,,,
,,,,,V1_027,20,Female,2024-05-17_14h01.30.345,jersey_experiment_5_v1,2023.2.2,Win32,84.74576271,,,,,,,,,,,,,,,,52.6027,53.8965,53.8966,55.4259,return,0.2942,,92.44791667,0,3,3,19,1,FBP-YG-17.png,0.45,1.2,20,0.5,,,,,,,,,,,,,,,,,,,,,,,,,,,,,,,,,,,,,,,,,,,,,
,,,,,V1_027,20,Female,2024-05-17_14h01.30.345,jersey_experiment_5_v1,2023.2.2,Win32,84.74576271,,,,,,,,,,,,,,,,55.4262,56.7203,56.7203,60.7671,return,1.8367,,72.265625,0,4,4,57,1,FBP-RB-91.png,0.4,1.2,58,0.5,,,,,,,,,,,,,,,,,,,,,,,,,,,,,,,,,,,,,,,,,,,,,
,,,,,V1_027,20,Female,2024-05-17_14h01.30.345,jersey_experiment_5_v1,2023.2.2,Win32,84.74576271,,,,,,,,,,,,,,,,60.7674,62.0616,62.0618,63.1441,return,0.1621,,88.15104167,0,5,5,59,1,FBP-RB-91.png,0.45,1.2,60,0.5,,,,,,,,,,,,,,,,,,,,,,,,,,,,,,,,,,,,,,,,,,,,,
,,,,,V1_027,20,Female,2024-05-17_14h01.30.345,jersey_experiment_5_v1,2023.2.2,Win32,84.74576271,,,,,,,,,,,,,,,,63.1445,64.4382,64.4383,65.6146,return,0.2498,,85.9375,0,6,6,28,1,FBP-YG-19.png,0.43,1.2,29,0.5,,,,,,,,,,,,,,,,,,,,,,,,,,,,,,,,,,,,,,,,,,,,,
,,,,,V1_027,20,Female,2024-05-17_14h01.30.345,jersey_experiment_5_v1,2023.2.2,Win32,84.74576271,,,,,,,,,,,,,,,,65.6149,66.9087,66.9087,69.0381,return,0.7681,,25.78125,0,7,7,51,1,FBP-RB-81.png,0.37,1.2,52,0.5,,,,,,,,,,,,,,,,,,,,,,,,,,,,,,,,,,,,,,,,,,,,,
,,,,,V1_027,20,Female,2024-05-17_14h01.30.345,jersey_experiment_5_v1,2023.2.2,Win32,84.74576271,,,,,,,,,,,,,,,,69.0384,70.3324,70.3325,71.5793,return,0.2527,,19.53125,0,8,8,25,1,FBP-YG-19.png,0.35,1.2,26,0.5,,,,,,,,,,,,,,,,,,,,,,,,,,,,,,,,,,,,,,,,,,,,,
,,,,,V1_027,20,Female,2024-05-17_14h01.30.345,jersey_experiment_5_v1,2023.2.2,Win32,84.74576271,,,,,,,,,,,,,,,,71.5796,72.8737,72.8737,74.6854,return,0.4746,,45.05208333,0,9,9,37,1,FBP-OG-18.png,0.4,1.2,38,0.5,,,,,,,,,,,,,,,,,,,,,,,,,,,,,,,,,,,,,,,,,,,,,
,,,,,V1_027,20,Female,2024-05-17_14h01.30.345,jersey_experiment_5_v1,2023.2.2,Win32,84.74576271,,,,,,,,,,,,,,,,74.6858,75.9797,75.9797,78.0619,return,1.58,,50.26041667,0,10,10,21,1,FBP-YG-18.png,0.37,1.2,22,0.5,,,,,,,,,,,,,,,,,,,,,,,,,,,,,,,,,,,,,,,,,,,,,
,,,,,V1_027,20,Female,2024-05-17_14h01.30.345,jersey_experiment_5_v1,2023.2.2,Win32,84.74576271,,,,,,,,,,,,,,,,78.0623,79.3562,79.3563,80.0149,return,0.2136,,50.26041667,0,11,11,31,1,FBP-OG-17.png,0.37,1.2,32,0.5,,,,,,,,,,,,,,,,,,,,,,,,,,,,,,,,,,,,,,,,,,,,,
,,,,,V1_027,20,Female,2024-05-17_14h01.30.345,jersey_experiment_5_v1,2023.2.2,Win32,84.74576271,,,,,,,,,,,,,,,,80.0153,81.3093,81.3094,82.2503,return,0.254,,50.26041667,0,12,12,30,1,FBP-OG-17.png,0.35,1.2,31,0.5,,,,,,,,,,,,,,,,,,,,,,,,,,,,,,,,,,,,,,,,,,,,,
,,,,,V1_027,20,Female,2024-05-17_14h01.30.345,jersey_experiment_5_v1,2023.2.2,Win32,84.74576271,,,,,,,,,,,,,,,,82.2506,83.5446,83.5447,85.2268,return,0.1593,,53.64583333,0,13,13,16,1,FBP-YG-17.png,0.37,1.2,17,0.5,,,,,,,,,,,,,,,,,,,,,,,,,,,,,,,,,,,,,,,,,,,,,
,,,,,V1_027,20,Female,2024-05-17_14h01.30.345,jersey_experiment_5_v1,2023.2.2,Win32,84.74576271,,,,,,,,,,,,,,,,85.2272,86.5212,86.5212,87.9328,return,0.6515,,56.11979167,0,14,14,41,1,FBP-OG-19.png,0.37,1.2,42,0.5,,,,,,,,,,,,,,,,,,,,,,,,,,,,,,,,,,,,,,,,,,,,,
,,,,,V1_027,20,Female,2024-05-17_14h01.30.345,jersey_experiment_5_v1,2023.2.2,Win32,84.74576271,,,,,,,,,,,,,,,,87.9333,89.2271,89.2272,90.4634,return,0.4824,,56.11979167,0,15,15,45,1,FBP-RB-71.png,0.35,1.2,46,0.5,,,,,,,,,,,,,,,,,,,,,,,,,,,,,,,,,,,,,,,,,,,,,
,,,,,V1_027,20,Female,2024-05-17_14h01.30.345,jersey_experiment_5_v1,2023.2.2,Win32,84.74576271,,,,,,,,,,,,,,,,90.4637,91.7565,91.7565,93.3917,return,0.2021,,80.33854167,0,16,16,48,1,FBP-RB-71.png,0.43,1.2,49,0.5,,,,,,,,,,,,,,,,,,,,,,,,,,,,,,,,,,,,,,,,,,,,,
,,,,,V1_027,20,Female,2024-05-17_14h01.30.345,jersey_experiment_5_v1,2023.2.2,Win32,84.74576271,,,,,,,,,,,,,,,,93.3919,94.6859,94.6859,95.8167,return,0.1882,,72.265625,0,17,17,42,1,FBP-OG-19.png,0.4,1.2,43,0.5,,,,,,,,,,,,,,,,,,,,,,,,,,,,,,,,,,,,,,,,,,,,,
,,,,,V1_027,20,Female,2024-05-17_14h01.30.345,jersey_experiment_5_v1,2023.2.2,Win32,84.74576271,,,,,,,,,,,,,,,,95.8168,97.1099,97.11,98.4521,return,0.3529,,94.53125,0,18,18,24,1,FBP-YG-18.png,0.45,1.2,25,0.5,,,,,,,,,,,,,,,,,,,,,,,,,,,,,,,,,,,,,,,,,,,,,
,,,,,V1_027,20,Female,2024-05-17_14h01.30.345,jersey_experiment_5_v1,2023.2.2,Win32,84.74576271,,,,,,,,,,,,,,,,98.4523,99.7452,99.7453,102.5922,return,2.014,,72.65625,0,19,19,52,1,FBP-RB-81.png,0.4,1.2,53,0.5,,,,,,,,,,,,,,,,,,,,,,,,,,,,,,,,,,,,,,,,,,,,,
,,,,,V1_027,20,Female,2024-05-17_14h01.30.345,jersey_experiment_5_v1,2023.2.2,Win32,84.74576271,,,,,,,,,,,,,,,,102.5926,103.8861,103.8861,104.9097,return,0.122,,99.86979167,0,20,20,34,1,FBP-OG-17.png,0.45,1.2,35,0.5,,,,,,,,,,,,,,,,,,,,,,,,,,,,,,,,,,,,,,,,,,,,,
,,,,,V1_027,20,Female,2024-05-17_14h01.30.345,jersey_experiment_5_v1,2023.2.2,Win32,84.74576271,,,,,,,,,,,,,,,,104.9098,106.2043,106.2044,108.2641,return,0.1178,,67.96875,0,21,21,17,1,FBP-YG-17.png,0.4,1.2,18,0.5,,,,,,,,,,,,,,,,,,,,,,,,,,,,,,,,,,,,,,,,,,,,,
,,,,,V1_027,20,Female,2024-05-17_14h01.30.345,jersey_experiment_5_v1,2023.2.2,Win32,84.74576271,,,,,,,,,,,,,,,,108.2643,109.5574,109.5575,111.1924,return,0.1036,,26.171875,0,22,22,20,1,FBP-YG-18.png,0.35,1.2,21,0.5,,,,,,,,,,,,,,,,,,,,,,,,,,,,,,,,,,,,,,,,,,,,,
,,,,,V1_027,20,Female,2024-05-17_14h01.30.345,jersey_experiment_5_v1,2023.2.2,Win32,84.74576271,,,,,,,,,,,,,,,,111.1926,112.4866,112.4866,115.3704,return,1.9295,,70.96354167,0,23,23,53,1,FBP-RB-81.png,0.43,1.2,54,0.5,,,,,,,,,,,,,,,,,,,,,,,,,,,,,,,,,,,,,,,,,,,,,
,,,,,V1_027,20,Female,2024-05-17_14h01.30.345,jersey_experiment_5_v1,2023.2.2,Win32,84.74576271,,,,,,,,,,,,,,,,115.3705,117.1703,117.1704,118.4646,return,0.4945,,80.33854167,0,24,24,8,1,FBP-PT-81.png,0.43,1.2,9,1,,,,,,,,,,,,,,,,,,,,,,,,,,,,,,,,,,,,,,,,,,,,,
,,,,,V1_027,20,Female,2024-05-17_14h01.30.345,jersey_experiment_5_v1,2023.2.2,Win32,84.74576271,,,,,,,,,,,,,,,,118.4647,119.7577,119.7578,123.5943,return,0.0828,,33.85416667,0,25,25,26,1,FBP-YG-19.png,0.37,1.2,27,0.5,,,,,,,,,,,,,,,,,,,,,,,,,,,,,,,,,,,,,,,,,,,,,
,,,,,V1_027,20,Female,2024-05-17_14h01.30.345,jersey_experiment_5_v1,2023.2.2,Win32,84.74576271,,,,,,,,,,,,,,,,123.5944,125.3955,125.3956,127.7578,return,1.44,,84.63541667,0,26,26,9,1,FBP-PT-81.png,0.45,1.2,10,1,,,,,,,,,,,,,,,,,,,,,,,,,,,,,,,,,,,,,,,,,,,,,
,,,,,V1_027,20,Female,2024-05-17_14h01.30.345,jersey_experiment_5_v1,2023.2.2,Win32,84.74576271,,,,,,,,,,,,,,,,127.7581,129.5578,129.5578,130.5696,return,0.3971,,28.515625,0,27,27,10,1,FBP-PT-91.png,0.35,1.2,11,1,,,,,,,,,,,,,,,,,,,,,,,,,,,,,,,,,,,,,,,,,,,,,
,,,,,V1_027,20,Female,2024-05-17_14h01.30.345,jersey_experiment_5_v1,2023.2.2,Win32,84.74576271,,,,,,,,,,,,,,,,130.57,131.8648,131.8648,132.7815,return,0.2401,,95.05208333,0,28,28,39,1,FBP-OG-18.png,0.45,1.2,40,0.5,,,,,,,,,,,,,,,,,,,,,,,,,,,,,,,,,,,,,,,,,,,,,
,,,,,V1_027,20,Female,2024-05-17_14h01.30.345,jersey_experiment_5_v1,2023.2.2,Win32,84.74576271,,,,,,,,,,,,,,,,132.7819,134.0759,134.076,135.2169,return,0.0717,,92.1875,0,29,29,58,1,FBP-RB-91.png,0.43,1.2,59,0.5,,,,,,,,,,,,,,,,,,,,,,,,,,,,,,,,,,,,,,,,,,,,,
,,,,,V1_027,20,Female,2024-05-17_14h01.30.345,jersey_experiment_5_v1,2023.2.2,Win32,84.74576271,,,,,,,,,,,,,,,,135.2171,137.0182,137.0182,138.1228,return,0.1123,,25.13020833,0,30,30,6,1,FBP-PT-81.png,0.37,1.2,7,1,,,,,,,,,,,,,,,,,,,,,,,,,,,,,,,,,,,,,,,,,,,,,
,,,,,V1_027,20,Female,2024-05-17_14h01.30.345,jersey_experiment_5_v1,2023.2.2,Win32,84.74576271,,,,,,,,,,,,,,,,138.1233,139.9254,139.9254,140.7937,return,0.2442,,25.91145833,0,31,31,11,1,FBP-PT-91.png,0.37,1.2,12,1,,,,,,,,,,,,,,,,,,,,,,,,,,,,,,,,,,,,,,,,,,,,,
,,,,,V1_027,20,Female,2024-05-17_14h01.30.345,jersey_experiment_5_v1,2023.2.2,Win32,84.74576271,,,,,,,,,,,,,,,,140.794,142.5935,142.5936,143.5346,return,0.0856,,24.609375,0,32,32,1,1,FBP-PT-71.png,0.37,1.2,2,1,,,,,,,,,,,,,,,,,,,,,,,,,,,,,,,,,,,,,,,,,,,,,
,,,,,V1_027,20,Female,2024-05-17_14h01.30.345,jersey_experiment_5_v1,2023.2.2,Win32,84.74576271,,,,,,,,,,,,,,,,143.5349,145.3362,145.3362,146.3465,return,0.1841,,52.21354167,0,33,33,3,1,FBP-PT-71.png,0.43,1.2,4,1,,,,,,,,,,,,,,,,,,,,,,,,,,,,,,,,,,,,,,,,,,,,,
,,,,,V1_027,20,Female,2024-05-17_14h01.30.345,jersey_experiment_5_v1,2023.2.2,Win32,84.74576271,,,,,,,,,,,,,,,,146.3467,147.641,147.641,148.5585,return,0.1332,,61.97916667,0,34,34,38,1,FBP-OG-18.png,0.43,1.2,39,0.5,,,,,,,,,,,,,,,,,,,,,,,,,,,,,,,,,,,,,,,,,,,,,
,,,,,V1_027,20,Female,2024-05-17_14h01.30.345,jersey_experiment_5_v1,2023.2.2,Win32,84.74576271,,,,,,,,,,,,,,,,148.5589,150.3598,150.3598,151.2174,return,0.0713,,88.80208333,0,35,35,14,1,FBP-PT-91.png,0.45,1.2,15,1,,,,,,,,,,,,,,,,,,,,,,,,,,,,,,,,,,,,,,,,,,,,,
,,,,,V1_027,20,Female,2024-05-17_14h01.30.345,jersey_experiment_5_v1,2023.2.2,Win32,84.74576271,,,,,,,,,,,,,,,,151.2176,152.5118,152.5119,153.7702,return,0.0429,,75.26041667,0,36,36,18,1,FBP-YG-17.png,0.43,1.2,19,0.5,,,,,,,,,,,,,,,,,,,,,,,,,,,,,,,,,,,,,,,,,,,,,
,,,,,V1_027,20,Female,2024-05-17_14h01.30.345,jersey_experiment_5_v1,2023.2.2,Win32,84.74576271,,,,,,,,,,,,,,,,153.7704,155.0656,155.0656,156.3953,return,0.458,,83.203125,0,37,37,49,1,FBP-RB-71.png,0.45,1.2,50,0.5,,,,,,,,,,,,,,,,,,,,,,,,,,,,,,,,,,,,,,,,,,,,,
,,,,,V1_027,20,Female,2024-05-17_14h01.30.345,jersey_experiment_5_v1,2023.2.2,Win32,84.74576271,,,,,,,,,,,,,,,,156.3954,157.6885,157.6885,160.219,return,0.165,,60.28645833,0,38,38,47,1,FBP-RB-71.png,0.4,1.2,48,0.5,,,,,,,,,,,,,,,,,,,,,,,,,,,,,,,,,,,,,,,,,,,,,
,,,,,V1_027,20,Female,2024-05-17_14h01.30.345,jersey_experiment_5_v1,2023.2.2,Win32,84.74576271,,,,,,,,,,,,,,,,160.2192,162.0181,162.0181,162.9472,return,0.1063,,55.078125,0,39,39,12,1,FBP-PT-91.png,0.4,1.2,13,1,,,,,,,,,,,,,,,,,,,,,,,,,,,,,,,,,,,,,,,,,,,,,
,,,,,V1_027,20,Female,2024-05-17_14h01.30.345,jersey_experiment_5_v1,2023.2.2,Win32,84.74576271,,,,,,,,,,,,,,,,162.9474,164.2424,164.2424,166.0649,return,0.1187,,24.47916667,0,40,40,15,1,FBP-YG-17.png,0.35,1.2,16,0.5,,,,,,,,,,,,,,,,,,,,,,,,,,,,,,,,,,,,,,,,,,,,,
,,,,,V1_027,20,Female,2024-05-17_14h01.30.345,jersey_experiment_5_v1,2023.2.2,Win32,84.74576271,,,,,,,,,,,,,,,,166.065,167.8665,167.8665,168.865,return,0.2122,,19.921875,0,41,41,5,1,FBP-PT-81.png,0.35,1.2,6,1,,,,,,,,,,,,,,,,,,,,,,,,,,,,,,,,,,,,,,,,,,,,,
,,,,,V1_027,20,Female,2024-05-17_14h01.30.345,jersey_experiment_5_v1,2023.2.2,Win32,84.74576271,,,,,,,,,,,,,,,,168.8651,170.6654,170.6655,171.8182,return,0.1024,,36.19791667,0,42,42,7,1,FBP-PT-81.png,0.4,1.2,8,1,,,,,,,,,,,,,,,,,,,,,,,,,,,,,,,,,,,,,,,,,,,,,
,,,,,V1_027,20,Female,2024-05-17_14h01.30.345,jersey_experiment_5_v1,2023.2.2,Win32,84.74576271,,,,,,,,,,,,,,,,171.8186,173.1125,173.1125,175.396,return,0.0944,,24.86979167,0,43,43,35,1,FBP-OG-18.png,0.35,1.2,36,0.5,,,,,,,,,,,,,,,,,,,,,,,,,,,,,,,,,,,,,,,,,,,,,
,,,,,V1_027,20,Female,2024-05-17_14h01.30.345,jersey_experiment_5_v1,2023.2.2,Win32,84.74576271,,,,,,,,,,,,,,,,175.3961,176.6891,176.6893,177.8667,return,0.1653,,93.75,0,44,44,44,1,FBP-OG-19.png,0.45,1.2,45,0.5,,,,,,,,,,,,,,,,,,,,,,,,,,,,,,,,,,,,,,,,,,,,,
,,,,,V1_027,20,Female,2024-05-17_14h01.30.345,jersey_experiment_5_v1,2023.2.2,Win32,84.74576271,,,,,,,,,,,,,,,,177.8668,179.1595,179.1596,180.736,return,0.0961,,25.52083333,0,45,45,40,1,FBP-OG-19.png,0.35,1.2,41,0.5,,,,,,,,,,,,,,,,,,,,,,,,,,,,,,,,,,,,,,,,,,,,,
,,,,,V1_027,20,Female,2024-05-17_14h01.30.345,jersey_experiment_5_v1,2023.2.2,Win32,84.74576271,,,,,,,,,,,,,,,,180.7361,182.5364,182.5365,185.4317,return,0.0826,,82.94270833,0,46,46,2,1,FBP-PT-71.png,0.4,1.2,3,1,,,,,,,,,,,,,,,,,,,,,,,,,,,,,,,,,,,,,,,,,,,,,
,,,,,V1_027,20,Female,2024-05-17_14h01.30.345,jersey_experiment_5_v1,2023.2.2,Win32,84.74576271,,,,,,,,,,,,,,,,185.4318,186.7245,186.7246,187.9129,return,0.1272,,47.52604167,0,47,47,56,1,FBP-RB-91.png,0.37,1.2,57,0.5,,,,,,,,,,,,,,,,,,,,,,,,,,,,,,,,,,,,,,,,,,,,,
,,,,,V1_027,20,Female,2024-05-17_14h01.30.345,jersey_experiment_5_v1,2023.2.2,Win32,84.74576271,,,,,,,,,,,,,,,,187.9133,189.7131,189.7132,190.7376,return,0.0118,,73.56770833,0,48,48,13,1,FBP-PT-91.png,0.43,1.2,14,1,,,,,,,,,,,,,,,,,,,,,,,,,,,,,,,,,,,,,,,,,,,,,
,,,,,V1_027,20,Female,2024-05-17_14h01.30.345,jersey_experiment_5_v1,2023.2.2,Win32,84.74576271,,,,,,,,,,,,,,,,190.7379,192.0305,192.0305,192.7953,return,0.0184,,61.19791667,0,49,49,22,1,FBP-YG-18.png,0.4,1.2,23,0.5,,,,,,,,,,,,,,,,,,,,,,,,,,,,,,,,,,,,,,,,,,,,,
,,,,,V1_027,20,Female,2024-05-17_14h01.30.345,jersey_experiment_5_v1,2023.2.2,Win32,84.74576271,,,,,,,,,,,,,,,,192.7954,194.0897,194.0898,195.0085,return,0.0356,,93.48958333,0,50,50,29,1,FBP-YG-19.png,0.45,1.2,30,0.5,,,,,,,,,,,,,,,,,,,,,,,,,,,,,,,,,,,,,,,,,,,,,
,,,,,V1_027,20,Female,2024-05-17_14h01.30.345,jersey_experiment_5_v1,2023.2.2,Win32,84.74576271,,,,,,,,,,,,,,,,195.0088,196.3015,196.3016,197.5012,return,0.2281,,90.49479167,0,51,51,43,1,FBP-OG-19.png,0.43,1.2,44,0.5,,,,,,,,,,,,,,,,,,,,,,,,,,,,,,,,,,,,,,,,,,,,,
,,,,,V1_027,20,Female,2024-05-17_14h01.30.345,jersey_experiment_5_v1,2023.2.2,Win32,84.74576271,,,,,,,,,,,,,,,,197.5013,198.7958,198.7958,199.8677,return,0.0003,,24.609375,0,52,52,55,1,FBP-RB-91.png,0.35,1.2,56,0.5,,,,,,,,,,,,,,,,,,,,,,,,,,,,,,,,,,,,,,,,,,,,,
,,,,,V1_027,20,Female,2024-05-17_14h01.30.345,jersey_experiment_5_v1,2023.2.2,Win32,84.74576271,,,,,,,,,,,,,,,,199.8678,201.1612,201.1612,203.3734,return,0.0236,,31.51041667,0,53,53,36,1,FBP-OG-18.png,0.37,1.2,37,0.5,,,,,,,,,,,,,,,,,,,,,,,,,,,,,,,,,,,,,,,,,,,,,
,,,,,V1_027,20,Female,2024-05-17_14h01.30.345,jersey_experiment_5_v1,2023.2.2,Win32,84.74576271,,,,,,,,,,,,,,,,203.3735,205.1722,205.1723,206.2072,return,0.1309,,91.14583333,0,54,54,4,1,FBP-PT-71.png,0.45,1.2,5,1,,,,,,,,,,,,,,,,,,,,,,,,,,,,,,,,,,,,,,,,,,,,,
,,,,,V1_027,20,Female,2024-05-17_14h01.30.345,jersey_experiment_5_v1,2023.2.2,Win32,84.74576271,,,,,,,,,,,,,,,,206.2074,207.5024,207.5025,209.1855,return,0.1296,,10.02604167,0,55,55,50,1,FBP-RB-81.png,0.35,1.2,51,0.5,,,,,,,,,,,,,,,,,,,,,,,,,,,,,,,,,,,,,,,,,,,,,
,,,,,V1_027,20,Female,2024-05-17_14h01.30.345,jersey_experiment_5_v1,2023.2.2,Win32,84.74576271,,,,,,,,,,,,,,,,209.1857,210.4791,210.4793,211.6562,return,0.0707,,75.78125,0,56,56,33,1,FBP-OG-17.png,0.43,1.2,34,0.5,,,,,,,,,,,,,,,,,,,,,,,,,,,,,,,,,,,,,,,,,,,,,
,,,,,V1_027,20,Female,2024-05-17_14h01.30.345,jersey_experiment_5_v1,2023.2.2,Win32,84.74576271,,,,,,,,,,,,,,,,211.6564,212.9491,212.9492,214.0443,return,0.1413,,27.60416667,0,57,57,46,1,FBP-RB-71.png,0.37,1.2,47,0.5,,,,,,,,,,,,,,,,,,,,,,,,,,,,,,,,,,,,,,,,,,,,,
,,,,,V1_027,20,Female,2024-05-17_14h01.30.345,jersey_experiment_5_v1,2023.2.2,Win32,84.74576271,,,,,,,,,,,,,,,,214.0444,215.8444,215.8444,216.7388,return,0.1883,,13.54166667,0,58,58,0,1,FBP-PT-71.png,0.35,1.2,1,1,,,,,,,,,,,,,,,,,,,,,,,,,,,,,,,,,,,,,,,,,,,,,
,,,,,V1_027,20,Female,2024-05-17_14h01.30.345,jersey_experiment_5_v1,2023.2.2,Win32,84.74576271,,,,,,,,,,,,,,,,216.7389,218.0316,218.0317,219.1961,return,0.2165,,80.20833333,0,59,59,54,1,FBP-RB-81.png,0.45,1.2,55,0.5,,,,,,,,,,,,,,,,,,,,,,,,,,,,,,,,,,,,,,,,,,,,,
,,,,,V1_027,20,Female,2024-05-17_14h01.30.345,jersey_experiment_5_v1,2023.2.2,Win32,84.74576271,,,,,,,,,,,,,,,,219.1986,220.4914,220.4914,221.432,return,0.1286,,38.54166667,,,,,,FBP-RB-19.png,0.35,1.2,56,0.5,0,0,0,55,1,,,,,,,,,,,,,,,,,,,,,,,,,,,,,,,,,,,,,,,,
,,,,,V1_027,20,Female,2024-05-17_14h01.30.345,jersey_experiment_5_v1,2023.2.2,Win32,84.74576271,,,,,,,,,,,,,,,,221.4325,222.726,222.7261,224.1259,return,0.0629,,62.5,,,,,,FBP-OG-81.png,0.43,1.2,39,0.5,0,1,1,38,1,,,,,,,,,,,,,,,,,,,,,,,,,,,,,,,,,,,,,,,,
,,,,,V1_027,20,Female,2024-05-17_14h01.30.345,jersey_experiment_5_v1,2023.2.2,Win32,84.74576271,,,,,,,,,,,,,,,,224.1263,225.4201,225.4202,226.6905,return,0.1169,,51.82291667,,,,,,FBP-YG-71.png,0.35,1.2,16,0.5,0,2,2,15,1,,,,,,,,,,,,,,,,,,,,,,,,,,,,,,,,,,,,,,,,
,,,,,V1_027,20,Female,2024-05-17_14h01.30.345,jersey_experiment_5_v1,2023.2.2,Win32,84.74576271,,,,,,,,,,,,,,,,226.6907,227.9851,227.9851,229.0082,return,0.0016,,43.75,,,,,,FBP-OG-71.png,0.35,1.2,31,0.5,0,3,3,30,1,,,,,,,,,,,,,,,,,,,,,,,,,,,,,,,,,,,,,,,,
,,,,,V1_027,20,Female,2024-05-17_14h01.30.345,jersey_experiment_5_v1,2023.2.2,Win32,84.74576271,,,,,,,,,,,,,,,,229.0084,230.3027,230.3027,231.2319,return,0.0842,,49.47916667,,,,,,FBP-OG-81.png,0.37,1.2,37,0.5,0,4,4,36,1,,,,,,,,,,,,,,,,,,,,,,,,,,,,,,,,,,,,,,,,
,,,,,V1_027,20,Female,2024-05-17_14h01.30.345,jersey_experiment_5_v1,2023.2.2,Win32,84.74576271,,,,,,,,,,,,,,,,231.2321,232.5263,232.5264,234.2555,return,0.0967,,83.85416667,,,,,,FBP-YG-81.png,0.4,1.2,23,0.5,0,5,5,22,1,,,,,,,,,,,,,,,,,,,,,,,,,,,,,,,,,,,,,,,,
,,,,,V1_027,20,Female,2024-05-17_14h01.30.345,jersey_experiment_5_v1,2023.2.2,Win32,84.74576271,,,,,,,,,,,,,,,,234.2558,235.55,235.55,237.8205,return,0.8175,,79.94791667,,,,,,FBP-YG-71.png,0.43,1.2,19,0.5,0,6,6,18,1,,,,,,,,,,,,,,,,,,,,,,,,,,,,,,,,,,,,,,,,
,,,,,V1_027,20,Female,2024-05-17_14h01.30.345,jersey_experiment_5_v1,2023.2.2,Win32,84.74576271,,,,,,,,,,,,,,,,237.8209,239.1149,239.1149,240.0792,return,0.0023,,81.77083333,,,,,,FBP-YG-91.png,0.4,1.2,28,0.5,0,7,7,27,1,,,,,,,,,,,,,,,,,,,,,,,,,,,,,,,,,,,,,,,,
,,,,,V1_027,20,Female,2024-05-17_14h01.30.345,jersey_experiment_5_v1,2023.2.2,Win32,84.74576271,,,,,,,,,,,,,,,,240.0793,241.3736,241.3737,245.2089,return,0.0561,,64.71354167,,,,,,FBP-OG-91.png,0.4,1.2,43,0.5,0,8,8,42,1,,,,,,,,,,,,,,,,,,,,,,,,,,,,,,,,,,,,,,,,
,,,,,V1_027,20,Female,2024-05-17_14h01.30.345,jersey_experiment_5_v1,2023.2.2,Win32,84.74576271,,,,,,,,,,,,,,,,245.209,246.5033,246.5034,248.4089,return,0.0906,,27.21354167,,,,,,FBP-RB-17.png,0.35,1.2,46,0.5,0,9,9,45,1,,,,,,,,,,,,,,,,,,,,,,,,,,,,,,,,,,,,,,,,
,,,,,V1_027,20,Female,2024-05-17_14h01.30.345,jersey_experiment_5_v1,2023.2.2,Win32,84.74576271,,,,,,,,,,,,,,,,248.4091,249.7033,249.7034,250.4929,return,0.0709,,23.828125,,,,,,FBP-RB-19.png,0.37,1.2,57,0.5,0,10,10,56,1,,,,,,,,,,,,,,,,,,,,,,,,,,,,,,,,,,,,,,,,
,,,,,V1_027,20,Female,2024-05-17_14h01.30.345,jersey_experiment_5_v1,2023.2.2,Win32,84.74576271,,,,,,,,,,,,,,,,250.493,252.2918,252.2919,253.2798,return,0.0719,,24.34895833,,,,,,FBP-PT-19.png,0.37,1.2,12,1,0,11,11,11,1,,,,,,,,,,,,,,,,,,,,,,,,,,,,,,,,,,,,,,,,
,,,,,V1_027,20,Female,2024-05-17_14h01.30.345,jersey_experiment_5_v1,2023.2.2,Win32,84.74576271,,,,,,,,,,,,,,,,253.2801,254.5743,254.5743,256.7504,return,0.074,,56.90104167,,,,,,FBP-RB-18.png,0.4,1.2,53,0.5,0,12,12,52,1,,,,,,,,,,,,,,,,,,,,,,,,,,,,,,,,,,,,,,,,
,,,,,V1_027,20,Female,2024-05-17_14h01.30.345,jersey_experiment_5_v1,2023.2.2,Win32,84.74576271,,,,,,,,,,,,,,,,256.7509,258.045,258.0451,259.0329,return,0.1387,,57.421875,,,,,,FBP-OG-71.png,0.43,1.2,34,0.5,0,13,13,33,1,,,,,,,,,,,,,,,,,,,,,,,,,,,,,,,,,,,,,,,,
,,,,,V1_027,20,Female,2024-05-17_14h01.30.345,jersey_experiment_5_v1,2023.2.2,Win32,84.74576271,,,,,,,,,,,,,,,,259.0331,260.3274,260.3274,261.9988,return,0.2001,,40.75520833,,,,,,FBP-YG-81.png,0.37,1.2,22,0.5,0,14,14,21,1,,,,,,,,,,,,,,,,,,,,,,,,,,,,,,,,,,,,,,,,
,,,,,V1_027,20,Female,2024-05-17_14h01.30.345,jersey_experiment_5_v1,2023.2.2,Win32,84.74576271,,,,,,,,,,,,,,,,261.999,263.798,263.7981,264.4919,return,0.241,,40.75520833,,,,,,FBP-PT-17.png,0.35,1.2,1,1,0,15,15,0,1,,,,,,,,,,,,,,,,,,,,,,,,,,,,,,,,,,,,,,,,
,,,,,V1_027,20,Female,2024-05-17_14h01.30.345,jersey_experiment_5_v1,2023.2.2,Win32,84.74576271,,,,,,,,,,,,,,,,264.4923,266.2923,266.2923,267.5036,return,0.1315,,79.296875,,,,,,FBP-PT-17.png,0.43,1.2,4,1,0,16,16,3,1,,,,,,,,,,,,,,,,,,,,,,,,,,,,,,,,,,,,,,,,
,,,,,V1_027,20,Female,2024-05-17_14h01.30.345,jersey_experiment_5_v1,2023.2.2,Win32,84.74576271,,,,,,,,,,,,,,,,267.5037,269.3042,269.3042,270.2686,return,0.1346,,89.19270833,,,,,,FBP-PT-18.png,0.45,1.2,10,1,0,17,17,9,1,,,,,,,,,,,,,,,,,,,,,,,,,,,,,,,,,,,,,,,,
,,,,,V1_027,20,Female,2024-05-17_14h01.30.345,jersey_experiment_5_v1,2023.2.2,Win32,84.74576271,,,,,,,,,,,,,,,,270.2689,271.563,271.5631,274.7041,return,1.5546,,81.25,,,,,,FBP-YG-91.png,0.45,1.2,30,0.5,0,18,18,29,1,,,,,,,,,,,,,,,,,,,,,,,,,,,,,,,,,,,,,,,,
,,,,,V1_027,20,Female,2024-05-17_14h01.30.345,jersey_experiment_5_v1,2023.2.2,Win32,84.74576271,,,,,,,,,,,,,,,,274.7044,276.5041,276.5041,279.0806,return,0.1032,,35.80729167,,,,,,FBP-PT-18.png,0.35,1.2,6,1,0,19,19,5,1,,,,,,,,,,,,,,,,,,,,,,,,,,,,,,,,,,,,,,,,
,,,,,V1_027,20,Female,2024-05-17_14h01.30.345,jersey_experiment_5_v1,2023.2.2,Win32,84.74576271,,,,,,,,,,,,,,,,279.0807,280.3751,280.3752,281.8572,return,0.154,,87.109375,,,,,,FBP-YG-91.png,0.43,1.2,29,0.5,0,20,20,28,1,,,,,,,,,,,,,,,,,,,,,,,,,,,,,,,,,,,,,,,,
,,,,,V1_027,20,Female,2024-05-17_14h01.30.345,jersey_experiment_5_v1,2023.2.2,Win32,84.74576271,,,,,,,,,,,,,,,,281.8573,283.6584,283.6585,286.528,return,0.0841,,30.59895833,,,,,,FBP-PT-19.png,0.35,1.2,11,1,0,21,21,10,1,,,,,,,,,,,,,,,,,,,,,,,,,,,,,,,,,,,,,,,,
,,,,,V1_027,20,Female,2024-05-17_14h01.30.345,jersey_experiment_5_v1,2023.2.2,Win32,84.74576271,,,,,,,,,,,,,,,,286.5281,288.3282,288.3282,289.8574,return,0.0597,,60.9375,,,,,,FBP-PT-17.png,0.4,1.2,3,1,0,22,22,2,1,,,,,,,,,,,,,,,,,,,,,,,,,,,,,,,,,,,,,,,,
,,,,,V1_027,20,Female,2024-05-17_14h01.30.345,jersey_experiment_5_v1,2023.2.2,Win32,84.74576271,,,,,,,,,,,,,,,,289.8578,291.1518,291.1519,292.0929,return,0.0275,,81.38020833,,,,,,FBP-RB-19.png,0.45,1.2,60,0.5,0,23,23,59,1,,,,,,,,,,,,,,,,,,,,,,,,,,,,,,,,,,,,,,,,
,,,,,V1_027,20,Female,2024-05-17_14h01.30.345,jersey_experiment_5_v1,2023.2.2,Win32,84.74576271,,,,,,,,,,,,,,,,292.0933,293.3873,293.3873,294.3636,return,0.0418,,74.73958333,,,,,,FBP-RB-18.png,0.43,1.2,54,0.5,0,24,24,53,1,,,,,,,,,,,,,,,,,,,,,,,,,,,,,,,,,,,,,,,,
,,,,,V1_027,20,Female,2024-05-17_14h01.30.345,jersey_experiment_5_v1,2023.2.2,Win32,84.74576271,,,,,,,,,,,,,,,,294.3639,295.6587,295.6588,297.4811,return,0.1028,,53.25520833,,,,,,FBP-YG-71.png,0.37,1.2,17,0.5,0,25,25,16,1,,,,,,,,,,,,,,,,,,,,,,,,,,,,,,,,,,,,,,,,
,,,,,V1_027,20,Female,2024-05-17_14h01.30.345,jersey_experiment_5_v1,2023.2.2,Win32,84.74576271,,,,,,,,,,,,,,,,297.4813,298.7757,298.7757,300.2355,return,0.0119,,78.64583333,,,,,,FBP-OG-91.png,0.43,1.2,44,0.5,0,26,26,43,1,,,,,,,,,,,,,,,,,,,,,,,,,,,,,,,,,,,,,,,,
,,,,,V1_027,20,Female,2024-05-17_14h01.30.345,jersey_experiment_5_v1,2023.2.2,Win32,84.74576271,,,,,,,,,,,,,,,,300.2356,302.0359,302.0359,303.2826,return,0.694,,73.828125,,,,,,FBP-PT-19.png,0.43,1.2,14,1,0,27,27,13,1,,,,,,,,,,,,,,,,,,,,,,,,,,,,,,,,,,,,,,,,
,,,,,V1_027,20,Female,2024-05-17_14h01.30.345,jersey_experiment_5_v1,2023.2.2,Win32,84.74576271,,,,,,,,,,,,,,,,303.2828,304.5758,304.5759,307.0345,return,1.6426,,39.58333333,,,,,,FBP-OG-71.png,0.37,1.2,32,0.5,0,28,28,31,1,,,,,,,,,,,,,,,,,,,,,,,,,,,,,,,,,,,,,,,,
,,,,,V1_027,20,Female,2024-05-17_14h01.30.345,jersey_experiment_5_v1,2023.2.2,Win32,84.74576271,,,,,,,,,,,,,,,,307.0346,308.329,308.3291,309.435,return,0.0783,,50.91145833,,,,,,FBP-OG-81.png,0.4,1.2,38,0.5,0,29,29,37,1,,,,,,,,,,,,,,,,,,,,,,,,,,,,,,,,,,,,,,,,
,,,,,V1_027,20,Female,2024-05-17_14h01.30.345,jersey_experiment_5_v1,2023.2.2,Win32,84.74576271,,,,,,,,,,,,,,,,309.4353,310.7291,310.7292,311.789,return,0.1178,,75.52083333,,,,,,FBP-OG-81.png,0.45,1.2,40,0.5,0,30,30,39,1,,,,,,,,,,,,,,,,,,,,,,,,,,,,,,,,,,,,,,,,
,,,,,V1_027,20,Female,2024-05-17_14h01.30.345,jersey_experiment_5_v1,2023.2.2,Win32,84.74576271,,,,,,,,,,,,,,,,311.7891,313.082,313.0821,314.1999,return,0.0918,,77.734375,,,,,,FBP-YG-81.png,0.43,1.2,24,0.5,0,31,31,23,1,,,,,,,,,,,,,,,,,,,,,,,,,,,,,,,,,,,,,,,,
,,,,,V1_027,20,Female,2024-05-17_14h01.30.345,jersey_experiment_5_v1,2023.2.2,Win32,84.74576271,,,,,,,,,,,,,,,,314.2003,315.9998,315.9998,317.1644,return,0.5222,,63.80208333,,,,,,FBP-PT-18.png,0.4,1.2,8,1,0,32,32,7,1,,,,,,,,,,,,,,,,,,,,,,,,,,,,,,,,,,,,,,,,
,,,,,V1_027,20,Female,2024-05-17_14h01.30.345,jersey_experiment_5_v1,2023.2.2,Win32,84.74576271,,,,,,,,,,,,,,,,317.1648,318.459,318.459,319.9527,return,0.1658,,44.27083333,,,,,,FBP-YG-91.png,0.37,1.2,27,0.5,0,33,33,26,1,,,,,,,,,,,,,,,,,,,,,,,,,,,,,,,,,,,,,,,,
,,,,,V1_027,20,Female,2024-05-17_14h01.30.345,jersey_experiment_5_v1,2023.2.2,Win32,84.74576271,,,,,,,,,,,,,,,,319.9532,321.2471,321.2471,322.8468,return,0.1196,,90.625,,,,,,FBP-YG-81.png,0.45,1.2,25,0.5,0,34,34,24,1,,,,,,,,,,,,,,,,,,,,,,,,,,,,,,,,,,,,,,,,
,,,,,V1_027,20,Female,2024-05-17_14h01.30.345,jersey_experiment_5_v1,2023.2.2,Win32,84.74576271,,,,,,,,,,,,,,,,322.8473,324.1413,324.1413,324.9411,return,0.0391,,87.23958333,,,,,,FBP-OG-71.png,0.4,1.2,33,0.5,0,35,35,32,1,,,,,,,,,,,,,,,,,,,,,,,,,,,,,,,,,,,,,,,,
,,,,,V1_027,20,Female,2024-05-17_14h01.30.345,jersey_experiment_5_v1,2023.2.2,Win32,84.74576271,,,,,,,,,,,,,,,,324.9414,326.7417,326.7418,327.9175,return,0.1329,,51.171875,,,,,,FBP-PT-17.png,0.37,1.2,2,1,0,36,36,1,1,,,,,,,,,,,,,,,,,,,,,,,,,,,,,,,,,,,,,,,,
,,,,,V1_027,20,Female,2024-05-17_14h01.30.345,jersey_experiment_5_v1,2023.2.2,Win32,84.74576271,,,,,,,,,,,,,,,,327.9178,329.2121,329.2122,330.1531,return,0.0673,,76.5625,,,,,,FBP-YG-71.png,0.45,1.2,20,0.5,0,37,37,19,1,,,,,,,,,,,,,,,,,,,,,,,,,,,,,,,,,,,,,,,,
,,,,,V1_027,20,Female,2024-05-17_14h01.30.345,jersey_experiment_5_v1,2023.2.2,Win32,84.74576271,,,,,,,,,,,,,,,,330.1535,331.4474,331.4474,332.5413,return,0.2277,,80.20833333,,,,,,FBP-RB-17.png,0.43,1.2,49,0.5,0,38,38,48,1,,,,,,,,,,,,,,,,,,,,,,,,,,,,,,,,,,,,,,,,
,,,,,V1_027,20,Female,2024-05-17_14h01.30.345,jersey_experiment_5_v1,2023.2.2,Win32,84.74576271,,,,,,,,,,,,,,,,332.5417,333.8359,333.836,335.9534,return,0.5538,,34.89583333,,,,,,FBP-YG-91.png,0.35,1.2,26,0.5,0,39,39,25,1,,,,,,,,,,,,,,,,,,,,,,,,,,,,,,,,,,,,,,,,
,,,,,V1_027,20,Female,2024-05-17_14h01.30.345,jersey_experiment_5_v1,2023.2.2,Win32,84.74576271,,,,,,,,,,,,,,,,335.9538,337.7535,337.7535,339.3298,return,0.1535,,48.69791667,,,,,,FBP-PT-19.png,0.4,1.2,13,1,0,40,40,12,1,,,,,,,,,,,,,,,,,,,,,,,,,,,,,,,,,,,,,,,,
,,,,,V1_027,20,Female,2024-05-17_14h01.30.345,jersey_experiment_5_v1,2023.2.2,Win32,84.74576271,,,,,,,,,,,,,,,,339.3302,340.6242,340.6243,342.3066,return,0.1076,,74.47916667,,,,,,FBP-RB-17.png,0.45,1.2,50,0.5,0,41,41,49,1,,,,,,,,,,,,,,,,,,,,,,,,,,,,,,,,,,,,,,,,
,,,,,V1_027,20,Female,2024-05-17_14h01.30.345,jersey_experiment_5_v1,2023.2.2,Win32,84.74576271,,,,,,,,,,,,,,,,342.307,343.6011,343.6012,346.6831,return,1.9005,,35.02604167,,,,,,FBP-RB-18.png,0.37,1.2,52,0.5,0,42,42,51,1,,,,,,,,,,,,,,,,,,,,,,,,,,,,,,,,,,,,,,,,
,,,,,V1_027,20,Female,2024-05-17_14h01.30.345,jersey_experiment_5_v1,2023.2.2,Win32,84.74576271,,,,,,,,,,,,,,,,346.6836,347.9775,347.9776,349.0246,return,0.0951,,31.640625,,,,,,FBP-YG-81.png,0.35,1.2,21,0.5,0,43,43,20,1,,,,,,,,,,,,,,,,,,,,,,,,,,,,,,,,,,,,,,,,
,,,,,V1_027,20,Female,2024-05-17_14h01.30.345,jersey_experiment_5_v1,2023.2.2,Win32,84.74576271,,,,,,,,,,,,,,,,349.025,350.3186,350.3187,352.2009,return,1.0321,,87.36979167,,,,,,FBP-RB-19.png,0.43,1.2,59,0.5,0,44,44,58,1,,,,,,,,,,,,,,,,,,,,,,,,,,,,,,,,,,,,,,,,
,,,,,V1_027,20,Female,2024-05-17_14h01.30.345,jersey_experiment_5_v1,2023.2.2,Win32,84.74576271,,,,,,,,,,,,,,,,352.2013,353.4953,353.4953,354.448,return,0.0838,,94.79166667,,,,,,FBP-RB-18.png,0.45,1.2,55,0.5,0,45,45,54,1,,,,,,,,,,,,,,,,,,,,,,,,,,,,,,,,,,,,,,,,
,,,,,V1_027,20,Female,2024-05-17_14h01.30.345,jersey_experiment_5_v1,2023.2.2,Win32,84.74576271,,,,,,,,,,,,,,,,354.4485,355.7424,355.7426,356.7541,return,0.0481,,95.18229167,,,,,,FBP-OG-71.png,0.45,1.2,35,0.5,0,46,46,34,1,,,,,,,,,,,,,,,,,,,,,,,,,,,,,,,,,,,,,,,,
,,,,,V1_027,20,Female,2024-05-17_14h01.30.345,jersey_experiment_5_v1,2023.2.2,Win32,84.74576271,,,,,,,,,,,,,,,,356.7547,358.0483,358.0484,359.2011,return,0.1417,,49.609375,,,,,,FBP-OG-91.png,0.37,1.2,42,0.5,0,47,47,41,1,,,,,,,,,,,,,,,,,,,,,,,,,,,,,,,,,,,,,,,,
,,,,,V1_027,20,Female,2024-05-17_14h01.30.345,jersey_experiment_5_v1,2023.2.2,Win32,84.74576271,,,,,,,,,,,,,,,,359.2015,360.4954,360.4955,361.6129,return,0.0985,,59.24479167,,,,,,FBP-RB-17.png,0.4,1.2,48,0.5,0,48,48,47,1,,,,,,,,,,,,,,,,,,,,,,,,,,,,,,,,,,,,,,,,
,,,,,V1_027,20,Female,2024-05-17_14h01.30.345,jersey_experiment_5_v1,2023.2.2,Win32,84.74576271,,,,,,,,,,,,,,,,361.6133,362.9073,362.9074,363.8719,return,0.0603,,60.41666667,,,,,,FBP-RB-19.png,0.4,1.2,58,0.5,0,49,49,57,1,,,,,,,,,,,,,,,,,,,,,,,,,,,,,,,,,,,,,,,,
,,,,,V1_027,20,Female,2024-05-17_14h01.30.345,jersey_experiment_5_v1,2023.2.2,Win32,84.74576271,,,,,,,,,,,,,,,,363.8722,365.6722,365.6722,366.7309,return,0.1477,,80.59895833,,,,,,FBP-PT-19.png,0.45,1.2,15,1,0,50,50,14,1,,,,,,,,,,,,,,,,,,,,,,,,,,,,,,,,,,,,,,,,
,,,,,V1_027,20,Female,2024-05-17_14h01.30.345,jersey_experiment_5_v1,2023.2.2,Win32,84.74576271,,,,,,,,,,,,,,,,366.7313,368.0251,368.0251,369.6956,return,0.8014,,52.86458333,,,,,,FBP-OG-91.png,0.35,1.2,41,0.5,0,51,51,40,1,,,,,,,,,,,,,,,,,,,,,,,,,,,,,,,,,,,,,,,,
,,,,,V1_027,20,Female,2024-05-17_14h01.30.345,jersey_experiment_5_v1,2023.2.2,Win32,84.74576271,,,,,,,,,,,,,,,,369.696,371.4959,371.4959,373.0488,return,0.1027,,71.875,,,,,,FBP-PT-18.png,0.43,1.2,9,1,0,52,52,8,1,,,,,,,,,,,,,,,,,,,,,,,,,,,,,,,,,,,,,,,,
,,,,,V1_027,20,Female,2024-05-17_14h01.30.345,jersey_experiment_5_v1,2023.2.2,Win32,84.74576271,,,,,,,,,,,,,,,,373.0492,374.8488,374.8489,376.0019,return,0.1652,,75.78125,,,,,,FBP-PT-17.png,0.45,1.2,5,1,0,53,53,4,1,,,,,,,,,,,,,,,,,,,,,,,,,,,,,,,,,,,,,,,,
,,,,,V1_027,20,Female,2024-05-17_14h01.30.345,jersey_experiment_5_v1,2023.2.2,Win32,84.74576271,,,,,,,,,,,,,,,,376.0023,377.296,377.2962,378.5783,return,0.1416,,61.71875,,,,,,FBP-YG-71.png,0.4,1.2,18,0.5,0,54,54,17,1,,,,,,,,,,,,,,,,,,,,,,,,,,,,,,,,,,,,,,,,
,,,,,V1_027,20,Female,2024-05-17_14h01.30.345,jersey_experiment_5_v1,2023.2.2,Win32,84.74576271,,,,,,,,,,,,,,,,378.5787,379.8726,379.8727,381.002,return,0.1259,,51.43229167,,,,,,FBP-RB-18.png,0.35,1.2,51,0.5,0,55,55,50,1,,,,,,,,,,,,,,,,,,,,,,,,,,,,,,,,,,,,,,,,
,,,,,V1_027,20,Female,2024-05-17_14h01.30.345,jersey_experiment_5_v1,2023.2.2,Win32,84.74576271,,,,,,,,,,,,,,,,381.0024,382.8022,382.8022,383.3797,return,0.1521,,51.04166667,,,,,,FBP-PT-18.png,0.37,1.2,7,1,0,56,56,6,1,,,,,,,,,,,,,,,,,,,,,,,,,,,,,,,,,,,,,,,,
,,,,,V1_027,20,Female,2024-05-17_14h01.30.345,jersey_experiment_5_v1,2023.2.2,Win32,84.74576271,,,,,,,,,,,,,,,,383.38,384.6728,384.6729,386.049,return,0.0834,,34.89583333,,,,,,FBP-OG-81.png,0.35,1.2,36,0.5,0,57,57,35,1,,,,,,,,,,,,,,,,,,,,,,,,,,,,,,,,,,,,,,,,
,,,,,V1_027,20,Female,2024-05-17_14h01.30.345,jersey_experiment_5_v1,2023.2.2,Win32,84.74576271,,,,,,,,,,,,,,,,386.0491,387.3434,387.3435,388.4612,return,0.1229,,43.75,,,,,,FBP-RB-17.png,0.37,1.2,47,0.5,0,58,58,46,1,,,,,,,,,,,,,,,,,,,,,,,,,,,,,,,,,,,,,,,,
,,,,,V1_027,20,Female,2024-05-17_14h01.30.345,jersey_experiment_5_v1,2023.2.2,Win32,84.74576271,,,,,,,,,,,,,,,,388.4616,389.7554,389.7556,390.8138,return,0.1565,,78.38541667,,,,,,FBP-OG-91.png,0.45,1.2,45,0.5,0,59,59,44,1,,,,,,,,,,,,,,,,,,,,,,,,,,,,,,,,,,,,,,,,
,,,,,V1_027,20,Female,2024-05-17_14h01.30.345,jersey_experiment_5_v1,2023.2.2,Win32,84.74576271,,,,,,,,,,,,,,,,,,,,,,,,,,,,,,,,,,,,,,,390.8141,510.8199,,,,,,,,,,,,,,,,,,,,,,,,,,,,,,,,,,,,,,
,,,,,V1_027,20,Female,2024-05-17_14h01.30.345,jersey_experiment_5_v1,2023.2.2,Win32,84.74576271,,,,,,,,,,,,,,,,,,,,,,,,,,,,,,,,,,,,,,,,,510.8202,535.3141,return,24.4729,,,,,,,,,,,,,,,,,,,,,,,,,,,,,,,,,,
,,,,,V1_027,20,Female,2024-05-17_14h01.30.345,jersey_experiment_5_v1,2023.2.2,Win32,84.74576271,,,,,,,,,,,,,,,,535.3243,537.1254,537.1255,540.184,return,1.2804,,74.73958333,,,,,,FBP-YG-19.png,0.45,1.2,30,1,,,,,,,,,,,,,0,0,0,29,1,,,,,,,,,,,,,,,,,,,,,,,,,,,,
,,,,,V1_027,20,Female,2024-05-17_14h01.30.345,jersey_experiment_5_v1,2023.2.2,Win32,84.74576271,,,,,,,,,,,,,,,,540.1844,541.9845,541.9845,542.7134,return,0.0318,,55.46875,,,,,,FBP-OG-19.png,0.4,1.2,43,1,,,,,,,,,,,,,0,1,1,42,1,,,,,,,,,,,,,,,,,,,,,,,,,,,,
,,,,,V1_027,20,Female,2024-05-17_14h01.30.345,jersey_experiment_5_v1,2023.2.2,Win32,84.74576271,,,,,,,,,,,,,,,,542.7135,544.5147,544.5147,546.1149,return,1.0354,,74.47916667,,,,,,FBP-RB-71.png,0.43,1.2,49,1,,,,,,,,,,,,,0,2,2,48,1,,,,,,,,,,,,,,,,,,,,,,,,,,,,
,,,,,V1_027,20,Female,2024-05-17_14h01.30.345,jersey_experiment_5_v1,2023.2.2,Win32,84.74576271,,,,,,,,,,,,,,,,546.1151,547.9136,547.9136,548.7152,return,0.0003,,52.34375,,,,,,FBP-YG-18.png,0.4,1.2,23,1,,,,,,,,,,,,,0,3,3,22,1,,,,,,,,,,,,,,,,,,,,,,,,,,,,
,,,,,V1_027,20,Female,2024-05-17_14h01.30.345,jersey_experiment_5_v1,2023.2.2,Win32,84.74576271,,,,,,,,,,,,,,,,548.7154,550.5139,550.5139,551.1152,return,0.0002,,48.56770833,,,,,,FBP-RB-91.png,0.37,1.2,57,1,,,,,,,,,,,,,0,4,4,56,1,,,,,,,,,,,,,,,,,,,,,,,,,,,,
,,,,,V1_027,20,Female,2024-05-17_14h01.30.345,jersey_experiment_5_v1,2023.2.2,Win32,84.74576271,,,,,,,,,,,,,,,,551.1155,552.915,552.915,553.4669,return,0.007,,46.74479167,,,,,,FBP-RB-91.png,0.35,1.2,56,1,,,,,,,,,,,,,0,5,5,55,1,,,,,,,,,,,,,,,,,,,,,,,,,,,,
,,,,,V1_027,20,Female,2024-05-17_14h01.30.345,jersey_experiment_5_v1,2023.2.2,Win32,84.74576271,,,,,,,,,,,,,,,,553.4671,555.2683,555.2683,555.9389,return,0.0235,,66.40625,,,,,,FBP-YG-17.png,0.43,1.2,19,1,,,,,,,,,,,,,0,6,6,18,1,,,,,,,,,,,,,,,,,,,,,,,,,,,,
,,,,,V1_027,20,Female,2024-05-17_14h01.30.345,jersey_experiment_5_v1,2023.2.2,Win32,84.74576271,,,,,,,,,,,,,,,,555.9389,557.7376,557.7377,558.3623,return,0.0354,,43.88020833,,,,,,FBP-YG-18.png,0.35,1.2,21,1,,,,,,,,,,,,,0,7,7,20,1,,,,,,,,,,,,,,,,,,,,,,,,,,,,
,,,,,V1_027,20,Female,2024-05-17_14h01.30.345,jersey_experiment_5_v1,2023.2.2,Win32,84.74576271,,,,,,,,,,,,,,,,558.3625,559.6556,559.6557,560.6552,return,0.0259,,64.71354167,,,,,,FBP-PT-71.png,0.43,1.2,4,0.5,,,,,,,,,,,,,0,8,8,3,1,,,,,,,,,,,,,,,,,,,,,,,,,,,,
,,,,,V1_027,20,Female,2024-05-17_14h01.30.345,jersey_experiment_5_v1,2023.2.2,Win32,84.74576271,,,,,,,,,,,,,,,,560.6554,562.4553,562.4554,563.245,return,0.0241,,43.09895833,,,,,,FBP-RB-81.png,0.35,1.2,51,1,,,,,,,,,,,,,0,9,9,50,1,,,,,,,,,,,,,,,,,,,,,,,,,,,,
,,,,,V1_027,20,Female,2024-05-17_14h01.30.345,jersey_experiment_5_v1,2023.2.2,Win32,84.74576271,,,,,,,,,,,,,,,,563.2451,565.0451,565.0451,565.6084,return,0.0327,,40.625,,,,,,FBP-OG-17.png,0.35,1.2,31,1,,,,,,,,,,,,,0,10,10,30,1,,,,,,,,,,,,,,,,,,,,,,,,,,,,
,,,,,V1_027,20,Female,2024-05-17_14h01.30.345,jersey_experiment_5_v1,2023.2.2,Win32,84.74576271,,,,,,,,,,,,,,,,565.6085,567.4088,567.4089,568.0806,return,0.1531,,49.21875,,,,,,FBP-YG-18.png,0.37,1.2,22,1,,,,,,,,,,,,,0,11,11,21,1,,,,,,,,,,,,,,,,,,,,,,,,,,,,
,,,,,V1_027,20,Female,2024-05-17_14h01.30.345,jersey_experiment_5_v1,2023.2.2,Win32,84.74576271,,,,,,,,,,,,,,,,568.0807,569.8791,569.8791,571.5851,return,0.1308,,95.3125,,,,,,FBP-OG-18.png,0.45,1.2,40,1,,,,,,,,,,,,,0,12,12,39,1,,,,,,,,,,,,,,,,,,,,,,,,,,,,
,,,,,V1_027,20,Female,2024-05-17_14h01.30.345,jersey_experiment_5_v1,2023.2.2,Win32,84.74576271,,,,,,,,,,,,,,,,571.5853,573.3867,573.3867,574.0793,return,0.0729,,94.40104167,,,,,,FBP-OG-17.png,0.45,1.2,35,1,,,,,,,,,,,,,0,13,13,34,1,,,,,,,,,,,,,,,,,,,,,,,,,,,,
,,,,,V1_027,20,Female,2024-05-17_14h01.30.345,jersey_experiment_5_v1,2023.2.2,Win32,84.74576271,,,,,,,,,,,,,,,,574.0795,575.8805,575.8806,576.6087,return,0.0016,,92.1875,,,,,,FBP-OG-18.png,0.43,1.2,39,1,,,,,,,,,,,,,0,14,14,38,1,,,,,,,,,,,,,,,,,,,,,,,,,,,,
,,,,,V1_027,20,Female,2024-05-17_14h01.30.345,jersey_experiment_5_v1,2023.2.2,Win32,84.74576271,,,,,,,,,,,,,,,,576.6089,578.4092,578.4093,578.8926,return,0.0472,,92.1875,,,,,,FBP-YG-19.png,0.4,1.2,28,1,,,,,,,,,,,,,0,15,15,27,1,,,,,,,,,,,,,,,,,,,,,,,,,,,,
,,,,,V1_027,20,Female,2024-05-17_14h01.30.345,jersey_experiment_5_v1,2023.2.2,Win32,84.74576271,,,,,,,,,,,,,,,,578.8926,580.1857,580.1857,581.9855,return,0.5896,,43.359375,,,,,,FBP-PT-81.png,0.35,1.2,6,0.5,,,,,,,,,,,,,0,16,16,5,1,,,,,,,,,,,,,,,,,,,,,,,,,,,,
,,,,,V1_027,20,Female,2024-05-17_14h01.30.345,jersey_experiment_5_v1,2023.2.2,Win32,84.74576271,,,,,,,,,,,,,,,,581.9857,583.2799,583.2799,585.0679,return,0.4999,,73.4375,,,,,,FBP-PT-81.png,0.4,1.2,8,0.5,,,,,,,,,,,,,0,17,17,7,1,,,,,,,,,,,,,,,,,,,,,,,,,,,,
,,,,,V1_027,20,Female,2024-05-17_14h01.30.345,jersey_experiment_5_v1,2023.2.2,Win32,84.74576271,,,,,,,,,,,,,,,,585.0681,586.8681,586.8681,587.5033,return,0.0021,,91.27604167,,,,,,FBP-RB-91.png,0.45,1.2,60,1,,,,,,,,,,,,,0,18,18,59,1,,,,,,,,,,,,,,,,,,,,,,,,,,,,
,,,,,V1_027,20,Female,2024-05-17_14h01.30.345,jersey_experiment_5_v1,2023.2.2,Win32,84.74576271,,,,,,,,,,,,,,,,587.5035,588.7977,588.7977,589.8816,return,0.0946,,35.67708333,,,,,,FBP-PT-71.png,0.35,1.2,1,0.5,,,,,,,,,,,,,0,19,19,0,1,,,,,,,,,,,,,,,,,,,,,,,,,,,,
,,,,,V1_027,20,Female,2024-05-17_14h01.30.345,jersey_experiment_5_v1,2023.2.2,Win32,84.74576271,,,,,,,,,,,,,,,,589.8818,591.1743,591.1743,591.9506,return,0.0504,,86.58854167,,,,,,FBP-PT-91.png,0.43,1.2,14,0.5,,,,,,,,,,,,,0,20,20,13,1,,,,,,,,,,,,,,,,,,,,,,,,,,,,
,,,,,V1_027,20,Female,2024-05-17_14h01.30.345,jersey_experiment_5_v1,2023.2.2,Win32,84.74576271,,,,,,,,,,,,,,,,591.9507,593.2451,593.2452,594.0109,return,0.1178,,86.58854167,,,,,,FBP-PT-71.png,0.45,1.2,5,0.5,,,,,,,,,,,,,0,21,21,4,1,,,,,,,,,,,,,,,,,,,,,,,,,,,,
,,,,,V1_027,20,Female,2024-05-17_14h01.30.345,jersey_experiment_5_v1,2023.2.2,Win32,84.74576271,,,,,,,,,,,,,,,,594.011,595.3047,595.3047,595.9283,return,0.0588,,76.30208333,,,,,,FBP-PT-91.png,0.4,1.2,13,0.5,,,,,,,,,,,,,0,22,22,12,1,,,,,,,,,,,,,,,,,,,,,,,,,,,,
,,,,,V1_027,20,Female,2024-05-17_14h01.30.345,jersey_experiment_5_v1,2023.2.2,Win32,84.74576271,,,,,,,,,,,,,,,,595.9285,597.222,597.222,598.0332,return,0.1073,,61.328125,,,,,,FBP-PT-91.png,0.37,1.2,12,0.5,,,,,,,,,,,,,0,23,23,11,1,,,,,,,,,,,,,,,,,,,,,,,,,,,,
,,,,,V1_027,20,Female,2024-05-17_14h01.30.345,jersey_experiment_5_v1,2023.2.2,Win32,84.74576271,,,,,,,,,,,,,,,,598.0336,599.8336,599.8337,600.4451,return,0.051,,48.30729167,,,,,,FBP-YG-17.png,0.35,1.2,16,1,,,,,,,,,,,,,0,24,24,15,1,,,,,,,,,,,,,,,,,,,,,,,,,,,,
,,,,,V1_027,20,Female,2024-05-17_14h01.30.345,jersey_experiment_5_v1,2023.2.2,Win32,84.74576271,,,,,,,,,,,,,,,,600.4456,601.7395,601.7396,602.5041,return,0.1385,,59.24479167,,,,,,FBP-PT-71.png,0.4,1.2,3,0.5,,,,,,,,,,,,,0,25,25,2,1,,,,,,,,,,,,,,,,,,,,,,,,,,,,
,,,,,V1_027,20,Female,2024-05-17_14h01.30.345,jersey_experiment_5_v1,2023.2.2,Win32,84.74576271,,,,,,,,,,,,,,,,602.5045,604.3051,604.3052,604.7982,return,0.2149,,60.28645833,,,,,,FBP-YG-17.png,0.4,1.2,18,1,,,,,,,,,,,,,0,26,26,17,1,,,,,,,,,,,,,,,,,,,,,,,,,,,,
,,,,,V1_027,20,Female,2024-05-17_14h01.30.345,jersey_experiment_5_v1,2023.2.2,Win32,84.74576271,,,,,,,,,,,,,,,,604.7986,606.5986,606.5987,607.1512,return,0.4373,,60.28645833,,,,,,FBP-OG-18.png,0.4,1.2,38,1,,,,,,,,,,,,,0,27,27,37,1,,,,,,,,,,,,,,,,,,,,,,,,,,,,
,,,,,V1_027,20,Female,2024-05-17_14h01.30.345,jersey_experiment_5_v1,2023.2.2,Win32,84.74576271,,,,,,,,,,,,,,,,607.1516,608.9525,608.9526,609.5632,return,0.0395,,89.97395833,,,,,,FBP-YG-18.png,0.45,1.2,25,1,,,,,,,,,,,,,0,28,28,24,1,,,,,,,,,,,,,,,,,,,,,,,,,,,,
,,,,,V1_027,20,Female,2024-05-17_14h01.30.345,jersey_experiment_5_v1,2023.2.2,Win32,84.74576271,,,,,,,,,,,,,,,,609.5636,611.364,611.3642,612.8104,return,0.5945,,52.47395833,,,,,,FBP-OG-18.png,0.37,1.2,37,1,,,,,,,,,,,,,0,29,29,36,1,,,,,,,,,,,,,,,,,,,,,,,,,,,,
,,,,,V1_027,20,Female,2024-05-17_14h01.30.345,jersey_experiment_5_v1,2023.2.2,Win32,84.74576271,,,,,,,,,,,,,,,,612.8108,614.6113,614.6113,615.246,return,0.1098,,49.08854167,,,,,,FBP-RB-71.png,0.35,1.2,46,1,,,,,,,,,,,,,0,30,30,45,1,,,,,,,,,,,,,,,,,,,,,,,,,,,,
,,,,,V1_027,20,Female,2024-05-17_14h01.30.345,jersey_experiment_5_v1,2023.2.2,Win32,84.74576271,,,,,,,,,,,,,,,,615.2465,616.54,616.5401,618.1045,return,0.7729,,94.921875,,,,,,FBP-PT-91.png,0.45,1.2,15,0.5,,,,,,,,,,,,,0,31,31,14,1,,,,,,,,,,,,,,,,,,,,,,,,,,,,
,,,,,V1_027,20,Female,2024-05-17_14h01.30.345,jersey_experiment_5_v1,2023.2.2,Win32,84.74576271,,,,,,,,,,,,,,,,618.1048,619.9049,619.9049,620.5752,return,0.1429,,96.875,,,,,,FBP-YG-17.png,0.45,1.2,20,1,,,,,,,,,,,,,0,32,32,19,1,,,,,,,,,,,,,,,,,,,,,,,,,,,,
,,,,,V1_027,20,Female,2024-05-17_14h01.30.345,jersey_experiment_5_v1,2023.2.2,Win32,84.74576271,,,,,,,,,,,,,,,,620.5756,622.376,622.376,624.5753,return,0.0374,,48.56770833,,,,,,FBP-YG-19.png,0.35,1.2,26,1,,,,,,,,,,,,,0,33,33,25,1,,,,,,,,,,,,,,,,,,,,,,,,,,,,
,,,,,V1_027,20,Female,2024-05-17_14h01.30.345,jersey_experiment_5_v1,2023.2.2,Win32,84.74576271,,,,,,,,,,,,,,,,624.5757,626.3763,626.3763,627.4578,return,0.5066,,64.32291667,,,,,,FBP-RB-71.png,0.37,1.2,47,1,,,,,,,,,,,,,0,34,34,46,1,,,,,,,,,,,,,,,,,,,,,,,,,,,,
,,,,,V1_027,20,Female,2024-05-17_14h01.30.345,jersey_experiment_5_v1,2023.2.2,Win32,84.74576271,,,,,,,,,,,,,,,,627.4582,629.258,629.258,629.9049,return,0.0116,,73.30729167,,,,,,FBP-RB-91.png,0.4,1.2,58,1,,,,,,,,,,,,,0,35,35,57,1,,,,,,,,,,,,,,,,,,,,,,,,,,,,
,,,,,V1_027,20,Female,2024-05-17_14h01.30.345,jersey_experiment_5_v1,2023.2.2,Win32,84.74576271,,,,,,,,,,,,,,,,629.9053,631.7058,631.7058,632.2109,return,0.1059,,80.33854167,,,,,,FBP-YG-18.png,0.43,1.2,24,1,,,,,,,,,,,,,0,36,36,23,1,,,,,,,,,,,,,,,,,,,,,,,,,,,,
,,,,,V1_027,20,Female,2024-05-17_14h01.30.345,jersey_experiment_5_v1,2023.2.2,Win32,84.74576271,,,,,,,,,,,,,,,,632.2114,634.0111,634.0112,635.0697,return,0.0621,,60.15625,,,,,,FBP-YG-19.png,0.37,1.2,27,1,,,,,,,,,,,,,0,37,37,26,1,,,,,,,,,,,,,,,,,,,,,,,,,,,,
,,,,,V1_027,20,Female,2024-05-17_14h01.30.345,jersey_experiment_5_v1,2023.2.2,Win32,84.74576271,,,,,,,,,,,,,,,,635.0702,636.87,636.8701,638.223,return,0.0375,,68.09895833,,,,,,FBP-OG-17.png,0.4,1.2,33,1,,,,,,,,,,,,,0,38,38,32,1,,,,,,,,,,,,,,,,,,,,,,,,,,,,
,,,,,V1_027,20,Female,2024-05-17_14h01.30.345,jersey_experiment_5_v1,2023.2.2,Win32,84.74576271,,,,,,,,,,,,,,,,638.2233,639.5172,639.5172,642.729,return,2.1849,,52.08333333,,,,,,FBP-PT-81.png,0.37,1.2,7,0.5,,,,,,,,,,,,,0,39,39,6,1,,,,,,,,,,,,,,,,,,,,,,,,,,,,
,,,,,V1_027,20,Female,2024-05-17_14h01.30.345,jersey_experiment_5_v1,2023.2.2,Win32,84.74576271,,,,,,,,,,,,,,,,642.7294,644.5297,644.5298,645.376,return,0.0478,,91.015625,,,,,,FBP-RB-81.png,0.45,1.2,55,1,,,,,,,,,,,,,0,40,40,54,1,,,,,,,,,,,,,,,,,,,,,,,,,,,,
,,,,,V1_027,20,Female,2024-05-17_14h01.30.345,jersey_experiment_5_v1,2023.2.2,Win32,84.74576271,,,,,,,,,,,,,,,,645.3762,646.6706,646.6706,647.5055,return,0.0594,,50.13020833,,,,,,FBP-PT-71.png,0.37,1.2,2,0.5,,,,,,,,,,,,,0,41,41,1,1,,,,,,,,,,,,,,,,,,,,,,,,,,,,
,,,,,V1_027,20,Female,2024-05-17_14h01.30.345,jersey_experiment_5_v1,2023.2.2,Win32,84.74576271,,,,,,,,,,,,,,,,647.5059,649.3057,649.3058,649.7879,return,0.111,,50.13020833,,,,,,FBP-OG-19.png,0.37,1.2,42,1,,,,,,,,,,,,,0,42,42,41,1,,,,,,,,,,,,,,,,,,,,,,,,,,,,
,,,,,V1_027,20,Female,2024-05-17_14h01.30.345,jersey_experiment_5_v1,2023.2.2,Win32,84.74576271,,,,,,,,,,,,,,,,649.7883,651.5883,651.5884,652.0821,return,0.1185,,50.13020833,,,,,,FBP-YG-17.png,0.37,1.2,17,1,,,,,,,,,,,,,0,43,43,16,1,,,,,,,,,,,,,,,,,,,,,,,,,,,,
,,,,,V1_027,20,Female,2024-05-17_14h01.30.345,jersey_experiment_5_v1,2023.2.2,Win32,84.74576271,,,,,,,,,,,,,,,,652.0825,653.8825,653.8826,654.3175,return,0.109,,50.13020833,,,,,,FBP-OG-17.png,0.37,1.2,32,1,,,,,,,,,,,,,0,44,44,31,1,,,,,,,,,,,,,,,,,,,,,,,,,,,,
,,,,,V1_027,20,Female,2024-05-17_14h01.30.345,jersey_experiment_5_v1,2023.2.2,Win32,84.74576271,,,,,,,,,,,,,,,,654.3179,656.1185,656.1185,656.6352,return,0.1236,,44.66145833,,,,,,FBP-OG-19.png,0.35,1.2,41,1,,,,,,,,,,,,,0,45,45,40,1,,,,,,,,,,,,,,,,,,,,,,,,,,,,
,,,,,V1_027,20,Female,2024-05-17_14h01.30.345,jersey_experiment_5_v1,2023.2.2,Win32,84.74576271,,,,,,,,,,,,,,,,656.6357,658.436,658.4361,659.0237,return,0.0486,,85.67708333,,,,,,FBP-OG-19.png,0.45,1.2,45,1,,,,,,,,,,,,,0,46,46,44,1,,,,,,,,,,,,,,,,,,,,,,,,,,,,
,,,,,V1_027,20,Female,2024-05-17_14h01.30.345,jersey_experiment_5_v1,2023.2.2,Win32,84.74576271,,,,,,,,,,,,,,,,659.0243,660.825,660.8251,661.8827,return,0.0535,,74.73958333,,,,,,FBP-RB-81.png,0.4,1.2,53,1,,,,,,,,,,,,,0,47,47,52,1,,,,,,,,,,,,,,,,,,,,,,,,,,,,
,,,,,V1_027,20,Female,2024-05-17_14h01.30.345,jersey_experiment_5_v1,2023.2.2,Win32,84.74576271,,,,,,,,,,,,,,,,661.8831,663.6828,663.6828,664.9886,return,0.0754,,42.31770833,,,,,,FBP-OG-18.png,0.35,1.2,36,1,,,,,,,,,,,,,0,48,48,35,1,,,,,,,,,,,,,,,,,,,,,,,,,,,,
,,,,,V1_027,20,Female,2024-05-17_14h01.30.345,jersey_experiment_5_v1,2023.2.2,Win32,84.74576271,,,,,,,,,,,,,,,,664.9889,666.7893,666.7893,667.8478,return,0.1385,,88.02083333,,,,,,FBP-RB-91.png,0.43,1.2,59,1,,,,,,,,,,,,,0,49,49,58,1,,,,,,,,,,,,,,,,,,,,,,,,,,,,
,,,,,V1_027,20,Female,2024-05-17_14h01.30.345,jersey_experiment_5_v1,2023.2.2,Win32,84.74576271,,,,,,,,,,,,,,,,667.8483,669.6477,669.6477,670.0593,return,0.0292,,91.015625,,,,,,FBP-RB-81.png,0.43,1.2,54,1,,,,,,,,,,,,,0,50,50,53,1,,,,,,,,,,,,,,,,,,,,,,,,,,,,
,,,,,V1_027,20,Female,2024-05-17_14h01.30.345,jersey_experiment_5_v1,2023.2.2,Win32,84.74576271,,,,,,,,,,,,,,,,670.0596,671.354,671.354,673.2476,return,1.1312,,92.05729167,,,,,,FBP-PT-81.png,0.45,1.2,10,0.5,,,,,,,,,,,,,0,51,51,9,1,,,,,,,,,,,,,,,,,,,,,,,,,,,,
,,,,,V1_027,20,Female,2024-05-17_14h01.30.345,jersey_experiment_5_v1,2023.2.2,Win32,84.74576271,,,,,,,,,,,,,,,,673.248,675.0477,675.0478,675.6595,return,0.0058,,90.75520833,,,,,,FBP-OG-17.png,0.43,1.2,34,1,,,,,,,,,,,,,0,52,52,33,1,,,,,,,,,,,,,,,,,,,,,,,,,,,,
,,,,,V1_027,20,Female,2024-05-17_14h01.30.345,jersey_experiment_5_v1,2023.2.2,Win32,84.74576271,,,,,,,,,,,,,,,,675.6599,676.9538,676.9539,678.2243,return,0.542,,89.453125,,,,,,FBP-PT-81.png,0.43,1.2,9,0.5,,,,,,,,,,,,,0,53,53,8,1,,,,,,,,,,,,,,,,,,,,,,,,,,,,
,,,,,V1_027,20,Female,2024-05-17_14h01.30.345,jersey_experiment_5_v1,2023.2.2,Win32,84.74576271,,,,,,,,,,,,,,,,678.2247,680.025,680.0252,681.4362,return,0.04,,51.82291667,,,,,,FBP-RB-81.png,0.37,1.2,52,1,,,,,,,,,,,,,0,54,54,51,1,,,,,,,,,,,,,,,,,,,,,,,,,,,,
,,,,,V1_027,20,Female,2024-05-17_14h01.30.345,jersey_experiment_5_v1,2023.2.2,Win32,84.74576271,,,,,,,,,,,,,,,,681.4366,683.2364,683.2365,684.1775,return,0.0122,,77.734375,,,,,,FBP-YG-19.png,0.43,1.2,29,1,,,,,,,,,,,,,0,55,55,28,1,,,,,,,,,,,,,,,,,,,,,,,,,,,,
,,,,,V1_027,20,Female,2024-05-17_14h01.30.345,jersey_experiment_5_v1,2023.2.2,Win32,84.74576271,,,,,,,,,,,,,,,,684.1779,685.9777,685.9778,686.6244,return,0.0357,,74.21875,,,,,,FBP-RB-71.png,0.4,1.2,48,1,,,,,,,,,,,,,0,56,56,47,1,,,,,,,,,,,,,,,,,,,,,,,,,,,,
,,,,,V1_027,20,Female,2024-05-17_14h01.30.345,jersey_experiment_5_v1,2023.2.2,Win32,84.74576271,,,,,,,,,,,,,,,,686.6246,688.4264,688.4264,688.979,return,0.0238,,84.11458333,,,,,,FBP-RB-71.png,0.45,1.2,50,1,,,,,,,,,,,,,0,57,57,49,1,,,,,,,,,,,,,,,,,,,,,,,,,,,,
,,,,,V1_027,20,Female,2024-05-17_14h01.30.345,jersey_experiment_5_v1,2023.2.2,Win32,84.74576271,,,,,,,,,,,,,,,,688.979,690.2718,690.2718,691.8837,return,0.0536,,52.86458333,,,,,,FBP-PT-91.png,0.35,1.2,11,0.5,,,,,,,,,,,,,0,58,58,10,1,,,,,,,,,,,,,,,,,,,,,,,,,,,,
,,,,,V1_027,20,Female,2024-05-17_14h01.30.345,jersey_experiment_5_v1,2023.2.2,Win32,84.74576271,,,,,,,,,,,,,,,,691.884,693.6851,693.6851,694.3544,return,0.0008,,93.09895833,,,,,,FBP-OG-19.png,0.43,1.2,44,1,,,,,,,,,,,,,0,59,59,43,1,,,,,,,,,,,,,,,,,,,,,,,,,,,,
,,,,,V1_027,20,Female,2024-05-17_14h01.30.345,jersey_experiment_5_v1,2023.2.2,Win32,84.74576271,,,,,,,,,,,,,,,,694.3575,695.6605,695.6605,697.0249,return,0.4603,,93.88020833,,,,,,FBP-PT-19.png,0.43,1.2,14,0.5,,,,,,,,,,,,,,,,,,0,0,0,13,1,,,,,,,,,,,,,,,,,,,,,,,
,,,,,V1_027,20,Female,2024-05-17_14h01.30.345,jersey_experiment_5_v1,2023.2.2,Win32,84.74576271,,,,,,,,,,,,,,,,697.0251,698.8254,698.8254,699.6603,return,0.3941,,93.88020833,,,,,,FBP-RB-19.png,0.43,1.2,59,1,,,,,,,,,,,,,,,,,,0,1,1,58,1,,,,,,,,,,,,,,,,,,,,,,,
,,,,,V1_027,20,Female,2024-05-17_14h01.30.345,jersey_experiment_5_v1,2023.2.2,Win32,84.74576271,,,,,,,,,,,,,,,,699.6607,701.4603,701.4603,701.931,return,0.1002,,93.61979167,,,,,,FBP-OG-81.png,0.45,1.2,40,1,,,,,,,,,,,,,,,,,,0,2,2,39,1,,,,,,,,,,,,,,,,,,,,,,,
,,,,,V1_027,20,Female,2024-05-17_14h01.30.345,jersey_experiment_5_v1,2023.2.2,Win32,84.74576271,,,,,,,,,,,,,,,,701.9314,703.7313,703.7314,704.2253,return,0.1072,,93.61979167,,,,,,FBP-OG-81.png,0.43,1.2,39,1,,,,,,,,,,,,,,,,,,0,3,3,38,1,,,,,,,,,,,,,,,,,,,,,,,
,,,,,V1_027,20,Female,2024-05-17_14h01.30.345,jersey_experiment_5_v1,2023.2.2,Win32,84.74576271,,,,,,,,,,,,,,,,704.2257,706.0256,706.0257,713.2139,return,5.6869,,35.41666667,,,,,,FBP-RB-19.png,0.37,1.2,57,1,,,,,,,,,,,,,,,,,,0,4,4,56,1,,,,,,,,,,,,,,,,,,,,,,,
,,,,,V1_027,20,Female,2024-05-17_14h01.30.345,jersey_experiment_5_v1,2023.2.2,Win32,84.74576271,,,,,,,,,,,,,,,,713.2144,715.0152,715.0152,715.802,return,0.09,,88.80208333,,,,,,FBP-OG-91.png,0.45,1.2,45,1,,,,,,,,,,,,,,,,,,0,5,5,44,1,,,,,,,,,,,,,,,,,,,,,,,
,,,,,V1_027,20,Female,2024-05-17_14h01.30.345,jersey_experiment_5_v1,2023.2.2,Win32,84.74576271,,,,,,,,,,,,,,,,715.8021,717.0965,717.0965,718.8728,return,0.0087,,55.46875,,,,,,FBP-PT-19.png,0.37,1.2,12,0.5,,,,,,,,,,,,,,,,,,0,6,6,11,1,,,,,,,,,,,,,,,,,,,,,,,
,,,,,V1_027,20,Female,2024-05-17_14h01.30.345,jersey_experiment_5_v1,2023.2.2,Win32,84.74576271,,,,,,,,,,,,,,,,718.8729,720.1671,720.1672,720.8038,return,0.0346,,58.72395833,,,,,,FBP-PT-18.png,0.4,1.2,8,0.5,,,,,,,,,,,,,,,,,,0,7,7,7,1,,,,,,,,,,,,,,,,,,,,,,,
,,,,,V1_027,20,Female,2024-05-17_14h01.30.345,jersey_experiment_5_v1,2023.2.2,Win32,84.74576271,,,,,,,,,,,,,,,,720.804,722.6026,722.6026,723.5672,return,0.0502,,60.41666667,,,,,,FBP-RB-18.png,0.4,1.2,53,1,,,,,,,,,,,,,,,,,,0,8,8,52,1,,,,,,,,,,,,,,,,,,,,,,,
,,,,,V1_027,20,Female,2024-05-17_14h01.30.345,jersey_experiment_5_v1,2023.2.2,Win32,84.74576271,,,,,,,,,,,,,,,,723.5675,724.8616,724.8617,726.1099,return,0.0005,,50.13020833,,,,,,FBP-PT-17.png,0.35,1.2,1,0.5,,,,,,,,,,,,,,,,,,0,9,9,0,1,,,,,,,,,,,,,,,,,,,,,,,
,,,,,V1_027,20,Female,2024-05-17_14h01.30.345,jersey_experiment_5_v1,2023.2.2,Win32,84.74576271,,,,,,,,,,,,,,,,726.1101,727.4029,727.4029,728.1676,return,0.0343,,57.16145833,,,,,,FBP-PT-17.png,0.4,1.2,3,0.5,,,,,,,,,,,,,,,,,,0,10,10,2,1,,,,,,,,,,,,,,,,,,,,,,,
,,,,,V1_027,20,Female,2024-05-17_14h01.30.345,jersey_experiment_5_v1,2023.2.2,Win32,84.74576271,,,,,,,,,,,,,,,,728.1679,729.9672,729.9672,731.3085,return,0.7815,,51.82291667,,,,,,FBP-OG-71.png,0.35,1.2,31,1,,,,,,,,,,,,,,,,,,0,11,11,30,1,,,,,,,,,,,,,,,,,,,,,,,
,,,,,V1_027,20,Female,2024-05-17_14h01.30.345,jersey_experiment_5_v1,2023.2.2,Win32,84.74576271,,,,,,,,,,,,,,,,731.3087,733.1098,733.1098,733.8392,return,0.059,,51.953125,,,,,,FBP-OG-81.png,0.37,1.2,37,1,,,,,,,,,,,,,,,,,,0,12,12,36,1,,,,,,,,,,,,,,,,,,,,,,,
,,,,,V1_027,20,Female,2024-05-17_14h01.30.345,jersey_experiment_5_v1,2023.2.2,Win32,84.74576271,,,,,,,,,,,,,,,,733.8394,735.6384,735.6385,736.1677,return,0.1046,,51.953125,,,,,,FBP-RB-17.png,0.35,1.2,46,1,,,,,,,,,,,,,,,,,,0,13,13,45,1,,,,,,,,,,,,,,,,,,,,,,,
,,,,,V1_027,20,Female,2024-05-17_14h01.30.345,jersey_experiment_5_v1,2023.2.2,Win32,84.74576271,,,,,,,,,,,,,,,,736.168,737.9678,737.9678,738.8146,return,0.0265,,89.58333333,,,,,,FBP-OG-71.png,0.45,1.2,35,1,,,,,,,,,,,,,,,,,,0,14,14,34,1,,,,,,,,,,,,,,,,,,,,,,,
,,,,,V1_027,20,Female,2024-05-17_14h01.30.345,jersey_experiment_5_v1,2023.2.2,Win32,84.74576271,,,,,,,,,,,,,,,,738.8148,740.1092,740.1092,741.1324,return,0.4407,,97.78645833,,,,,,FBP-PT-19.png,0.45,1.2,15,0.5,,,,,,,,,,,,,,,,,,0,15,15,14,1,,,,,,,,,,,,,,,,,,,,,,,
,,,,,V1_027,20,Female,2024-05-17_14h01.30.345,jersey_experiment_5_v1,2023.2.2,Win32,84.74576271,,,,,,,,,,,,,,,,741.1328,742.9325,742.9325,743.5325,return,0.0521,,50.390625,,,,,,FBP-OG-91.png,0.35,1.2,41,1,,,,,,,,,,,,,,,,,,0,16,16,40,1,,,,,,,,,,,,,,,,,,,,,,,
,,,,,V1_027,20,Female,2024-05-17_14h01.30.345,jersey_experiment_5_v1,2023.2.2,Win32,84.74576271,,,,,,,,,,,,,,,,743.5326,745.334,745.334,746.6384,return,0.0973,,92.1875,,,,,,FBP-RB-18.png,0.43,1.2,54,1,,,,,,,,,,,,,,,,,,0,17,17,53,1,,,,,,,,,,,,,,,,,,,,,,,
,,,,,V1_027,20,Female,2024-05-17_14h01.30.345,jersey_experiment_5_v1,2023.2.2,Win32,84.74576271,,,,,,,,,,,,,,,,746.6386,748.44,748.44,748.84,return,0.0003,,90.36458333,,,,,,FBP-YG-71.png,0.45,1.2,20,1,,,,,,,,,,,,,,,,,,0,18,18,19,1,,,,,,,,,,,,,,,,,,,,,,,
,,,,,V1_027,20,Female,2024-05-17_14h01.30.345,jersey_experiment_5_v1,2023.2.2,Win32,84.74576271,,,,,,,,,,,,,,,,748.84,750.1331,750.1331,751.8752,return,0.4471,,60.9375,,,,,,FBP-PT-19.png,0.35,1.2,11,0.5,,,,,,,,,,,,,,,,,,0,19,19,10,1,,,,,,,,,,,,,,,,,,,,,,,
,,,,,V1_027,20,Female,2024-05-17_14h01.30.345,jersey_experiment_5_v1,2023.2.2,Win32,84.74576271,,,,,,,,,,,,,,,,751.8754,753.674,753.674,754.2636,return,0.1177,,60.9375,,,,,,FBP-OG-91.png,0.4,1.2,43,1,,,,,,,,,,,,,,,,,,0,20,20,42,1,,,,,,,,,,,,,,,,,,,,,,,
,,,,,V1_027,20,Female,2024-05-17_14h01.30.345,jersey_experiment_5_v1,2023.2.2,Win32,84.74576271,,,,,,,,,,,,,,,,754.2637,756.0627,756.0628,756.8156,return,0.1077,,66.40625,,,,,,FBP-RB-18.png,0.37,1.2,52,1,,,,,,,,,,,,,,,,,,0,21,21,51,1,,,,,,,,,,,,,,,,,,,,,,,
,,,,,V1_027,20,Female,2024-05-17_14h01.30.345,jersey_experiment_5_v1,2023.2.2,Win32,84.74576271,,,,,,,,,,,,,,,,756.816,758.6153,758.6154,759.1683,return,0.0488,,86.19791667,,,,,,FBP-YG-91.png,0.43,1.2,29,1,,,,,,,,,,,,,,,,,,0,22,22,28,1,,,,,,,,,,,,,,,,,,,,,,,
,,,,,V1_027,20,Female,2024-05-17_14h01.30.345,jersey_experiment_5_v1,2023.2.2,Win32,84.74576271,,,,,,,,,,,,,,,,759.1685,760.9687,760.9688,762.0274,return,0.03,,65.75520833,,,,,,FBP-YG-81.png,0.37,1.2,22,1,,,,,,,,,,,,,,,,,,0,23,23,21,1,,,,,,,,,,,,,,,,,,,,,,,
,,,,,V1_027,20,Female,2024-05-17_14h01.30.345,jersey_experiment_5_v1,2023.2.2,Win32,84.74576271,,,,,,,,,,,,,,,,762.0277,763.8287,763.8287,764.4404,return,0.0236,,75,,,,,,FBP-YG-71.png,0.4,1.2,18,1,,,,,,,,,,,,,,,,,,0,24,24,17,1,,,,,,,,,,,,,,,,,,,,,,,
,,,,,V1_027,20,Female,2024-05-17_14h01.30.345,jersey_experiment_5_v1,2023.2.2,Win32,84.74576271,,,,,,,,,,,,,,,,764.4405,766.2405,766.2405,766.6862,return,0.015,,83.72395833,,,,,,FBP-OG-71.png,0.43,1.2,34,1,,,,,,,,,,,,,,,,,,0,25,25,33,1,,,,,,,,,,,,,,,,,,,,,,,
,,,,,V1_027,20,Female,2024-05-17_14h01.30.345,jersey_experiment_5_v1,2023.2.2,Win32,84.74576271,,,,,,,,,,,,,,,,766.6864,768.4872,768.4872,769.1111,return,0.2118,,85.9375,,,,,,FBP-OG-81.png,0.4,1.2,38,1,,,,,,,,,,,,,,,,,,0,26,26,37,1,,,,,,,,,,,,,,,,,,,,,,,
,,,,,V1_027,20,Female,2024-05-17_14h01.30.345,jersey_experiment_5_v1,2023.2.2,Win32,84.74576271,,,,,,,,,,,,,,,,769.1113,770.4044,770.4044,771.4393,return,0.3786,,90.75520833,,,,,,FBP-PT-18.png,0.43,1.2,9,0.5,,,,,,,,,,,,,,,,,,0,27,27,8,1,,,,,,,,,,,,,,,,,,,,,,,
,,,,,V1_027,20,Female,2024-05-17_14h01.30.345,jersey_experiment_5_v1,2023.2.2,Win32,84.74576271,,,,,,,,,,,,,,,,771.4395,773.2409,773.2409,774.3452,return,0.42,,65.36458333,,,,,,FBP-YG-81.png,0.35,1.2,21,1,,,,,,,,,,,,,,,,,,0,28,28,20,1,,,,,,,,,,,,,,,,,,,,,,,
,,,,,V1_027,20,Female,2024-05-17_14h01.30.345,jersey_experiment_5_v1,2023.2.2,Win32,84.74576271,,,,,,,,,,,,,,,,774.3454,776.1467,776.1467,776.7688,return,0.024,,93.75,,,,,,FBP-RB-17.png,0.45,1.2,50,1,,,,,,,,,,,,,,,,,,0,29,29,49,1,,,,,,,,,,,,,,,,,,,,,,,
,,,,,V1_027,20,Female,2024-05-17_14h01.30.345,jersey_experiment_5_v1,2023.2.2,Win32,84.74576271,,,,,,,,,,,,,,,,776.769,778.569,778.569,781.2399,return,1.5392,,56.25,,,,,,FBP-RB-18.png,0.35,1.2,51,1,,,,,,,,,,,,,,,,,,0,30,30,50,1,,,,,,,,,,,,,,,,,,,,,,,
,,,,,V1_027,20,Female,2024-05-17_14h01.30.345,jersey_experiment_5_v1,2023.2.2,Win32,84.74576271,,,,,,,,,,,,,,,,781.2401,783.04,783.0401,784.4291,return,0.3528,,56.90104167,,,,,,FBP-RB-17.png,0.37,1.2,47,1,,,,,,,,,,,,,,,,,,0,31,31,46,1,,,,,,,,,,,,,,,,,,,,,,,
,,,,,V1_027,20,Female,2024-05-17_14h01.30.345,jersey_experiment_5_v1,2023.2.2,Win32,84.74576271,,,,,,,,,,,,,,,,784.4293,785.7223,785.7224,786.5942,return,0.0121,,92.31770833,,,,,,FBP-PT-18.png,0.45,1.2,10,0.5,,,,,,,,,,,,,,,,,,0,32,32,9,1,,,,,,,,,,,,,,,,,,,,,,,
,,,,,V1_027,20,Female,2024-05-17_14h01.30.345,jersey_experiment_5_v1,2023.2.2,Win32,84.74576271,,,,,,,,,,,,,,,,786.5943,788.3933,788.3933,789.7707,return,0.4943,,60.80729167,,,,,,FBP-YG-71.png,0.35,1.2,16,1,,,,,,,,,,,,,,,,,,0,33,33,15,1,,,,,,,,,,,,,,,,,,,,,,,
,,,,,V1_027,20,Female,2024-05-17_14h01.30.345,jersey_experiment_5_v1,2023.2.2,Win32,84.74576271,,,,,,,,,,,,,,,,789.7709,791.0639,791.064,791.84,return,0.072,,87.76041667,,,,,,FBP-PT-17.png,0.43,1.2,4,0.5,,,,,,,,,,,,,,,,,,0,34,34,3,1,,,,,,,,,,,,,,,,,,,,,,,
,,,,,V1_027,20,Female,2024-05-17_14h01.30.345,jersey_experiment_5_v1,2023.2.2,Win32,84.74576271,,,,,,,,,,,,,,,,791.8401,793.6405,793.6405,794.6638,return,0.3508,,56.11979167,,,,,,FBP-RB-19.png,0.35,1.2,56,1,,,,,,,,,,,,,,,,,,0,35,35,55,1,,,,,,,,,,,,,,,,,,,,,,,
,,,,,V1_027,20,Female,2024-05-17_14h01.30.345,jersey_experiment_5_v1,2023.2.2,Win32,84.74576271,,,,,,,,,,,,,,,,794.6641,795.9582,795.9583,796.8637,return,0.0134,,90.234375,,,,,,FBP-PT-19.png,0.4,1.2,13,0.5,,,,,,,,,,,,,,,,,,0,36,36,12,1,,,,,,,,,,,,,,,,,,,,,,,
,,,,,V1_027,20,Female,2024-05-17_14h01.30.345,jersey_experiment_5_v1,2023.2.2,Win32,84.74576271,,,,,,,,,,,,,,,,796.8638,798.6639,798.6639,799.4653,return,0.1178,,73.4375,,,,,,FBP-YG-91.png,0.37,1.2,27,1,,,,,,,,,,,,,,,,,,0,37,37,26,1,,,,,,,,,,,,,,,,,,,,,,,
,,,,,V1_027,20,Female,2024-05-17_14h01.30.345,jersey_experiment_5_v1,2023.2.2,Win32,84.74576271,,,,,,,,,,,,,,,,799.4654,801.2651,801.2651,802.2653,return,0.3767,,75.13020833,,,,,,FBP-YG-91.png,0.4,1.2,28,1,,,,,,,,,,,,,,,,,,0,38,38,27,1,,,,,,,,,,,,,,,,,,,,,,,
,,,,,V1_027,20,Female,2024-05-17_14h01.30.345,jersey_experiment_5_v1,2023.2.2,Win32,84.74576271,,,,,,,,,,,,,,,,802.2655,804.0644,804.0644,805.3113,return,0.5792,,72.91666667,,,,,,FBP-OG-91.png,0.37,1.2,42,1,,,,,,,,,,,,,,,,,,0,39,39,41,1,,,,,,,,,,,,,,,,,,,,,,,
,,,,,V1_027,20,Female,2024-05-17_14h01.30.345,jersey_experiment_5_v1,2023.2.2,Win32,84.74576271,,,,,,,,,,,,,,,,805.3117,807.1125,807.1125,808.2055,return,0.016,,78.125,,,,,,FBP-YG-81.png,0.4,1.2,23,1,,,,,,,,,,,,,,,,,,0,40,40,22,1,,,,,,,,,,,,,,,,,,,,,,,
,,,,,V1_027,20,Female,2024-05-17_14h01.30.345,jersey_experiment_5_v1,2023.2.2,Win32,84.74576271,,,,,,,,,,,,,,,,808.2056,810.0068,810.0068,810.8879,return,0.3397,,84.375,,,,,,FBP-RB-17.png,0.43,1.2,49,1,,,,,,,,,,,,,,,,,,0,41,41,48,1,,,,,,,,,,,,,,,,,,,,,,,
,,,,,V1_027,20,Female,2024-05-17_14h01.30.345,jersey_experiment_5_v1,2023.2.2,Win32,84.74576271,,,,,,,,,,,,,,,,810.8884,812.6891,812.6891,813.1838,return,0.0003,,92.31770833,,,,,,FBP-RB-18.png,0.45,1.2,55,1,,,,,,,,,,,,,,,,,,0,42,42,54,1,,,,,,,,,,,,,,,,,,,,,,,
,,,,,V1_027,20,Female,2024-05-17_14h01.30.345,jersey_experiment_5_v1,2023.2.2,Win32,84.74576271,,,,,,,,,,,,,,,,813.184,814.9824,814.9824,817.8175,return,1.526,,62.63020833,,,,,,FBP-OG-71.png,0.37,1.2,32,1,,,,,,,,,,,,,,,,,,0,43,43,31,1,,,,,,,,,,,,,,,,,,,,,,,
,,,,,V1_027,20,Female,2024-05-17_14h01.30.345,jersey_experiment_5_v1,2023.2.2,Win32,84.74576271,,,,,,,,,,,,,,,,817.8178,819.6179,819.618,820.7471,return,0.0533,,81.640625,,,,,,FBP-OG-91.png,0.43,1.2,44,1,,,,,,,,,,,,,,,,,,0,44,44,43,1,,,,,,,,,,,,,,,,,,,,,,,
,,,,,V1_027,20,Female,2024-05-17_14h01.30.345,jersey_experiment_5_v1,2023.2.2,Win32,84.74576271,,,,,,,,,,,,,,,,820.7475,822.5474,822.5474,823.0547,return,0.0241,,80.859375,,,,,,FBP-RB-17.png,0.4,1.2,48,1,,,,,,,,,,,,,,,,,,0,45,45,47,1,,,,,,,,,,,,,,,,,,,,,,,
,,,,,V1_027,20,Female,2024-05-17_14h01.30.345,jersey_experiment_5_v1,2023.2.2,Win32,84.74576271,,,,,,,,,,,,,,,,823.0547,824.8535,824.8535,826.2885,return,0.6373,,67.96875,,,,,,FBP-OG-81.png,0.35,1.2,36,1,,,,,,,,,,,,,,,,,,0,46,46,35,1,,,,,,,,,,,,,,,,,,,,,,,
,,,,,V1_027,20,Female,2024-05-17_14h01.30.345,jersey_experiment_5_v1,2023.2.2,Win32,84.74576271,,,,,,,,,,,,,,,,826.2889,828.0884,828.0884,829.6768,return,0.0638,,75.91145833,,,,,,FBP-OG-71.png,0.4,1.2,33,1,,,,,,,,,,,,,,,,,,0,47,47,32,1,,,,,,,,,,,,,,,,,,,,,,,
,,,,,V1_027,20,Female,2024-05-17_14h01.30.345,jersey_experiment_5_v1,2023.2.2,Win32,84.74576271,,,,,,,,,,,,,,,,829.677,831.477,831.477,833.23,return,0.0864,,86.328125,,,,,,FBP-YG-81.png,0.43,1.2,24,1,,,,,,,,,,,,,,,,,,0,48,48,23,1,,,,,,,,,,,,,,,,,,,,,,,
,,,,,V1_027,20,Female,2024-05-17_14h01.30.345,jersey_experiment_5_v1,2023.2.2,Win32,84.74576271,,,,,,,,,,,,,,,,833.2304,835.0298,835.0298,835.6079,return,0.0003,,94.53125,,,,,,FBP-YG-81.png,0.45,1.2,25,1,,,,,,,,,,,,,,,,,,0,49,49,24,1,,,,,,,,,,,,,,,,,,,,,,,
,,,,,V1_027,20,Female,2024-05-17_14h01.30.345,jersey_experiment_5_v1,2023.2.2,Win32,84.74576271,,,,,,,,,,,,,,,,835.608,837.4064,837.4064,839.455,return,0.8473,,70.703125,,,,,,FBP-YG-71.png,0.37,1.2,17,1,,,,,,,,,,,,,,,,,,0,50,50,16,1,,,,,,,,,,,,,,,,,,,,,,,
,,,,,V1_027,20,Female,2024-05-17_14h01.30.345,jersey_experiment_5_v1,2023.2.2,Win32,84.74576271,,,,,,,,,,,,,,,,839.4552,840.7479,840.748,841.9127,return,0.2333,,70.44270833,,,,,,FBP-PT-18.png,0.37,1.2,7,0.5,,,,,,,,,,,,,,,,,,0,51,51,6,1,,,,,,,,,,,,,,,,,,,,,,,
,,,,,V1_027,20,Female,2024-05-17_14h01.30.345,jersey_experiment_5_v1,2023.2.2,Win32,84.74576271,,,,,,,,,,,,,,,,841.9131,843.207,843.2071,845.3128,return,0.0249,,64.0625,,,,,,FBP-PT-17.png,0.45,1.2,5,0.5,,,,,,,,,,,,,,,,,,0,52,52,4,1,,,,,,,,,,,,,,,,,,,,,,,
,,,,,V1_027,20,Female,2024-05-17_14h01.30.345,jersey_experiment_5_v1,2023.2.2,Win32,84.74576271,,,,,,,,,,,,,,,,845.3131,847.1129,847.1129,848.2891,return,0.0708,,66.66666667,,,,,,FBP-YG-91.png,0.35,1.2,26,1,,,,,,,,,,,,,,,,,,0,53,53,25,1,,,,,,,,,,,,,,,,,,,,,,,
,,,,,V1_027,20,Female,2024-05-17_14h01.30.345,jersey_experiment_5_v1,2023.2.2,Win32,84.74576271,,,,,,,,,,,,,,,,848.2892,849.5837,849.5838,852.632,return,0.0003,,72.39583333,,,,,,FBP-PT-17.png,0.37,1.2,2,0.5,,,,,,,,,,,,,,,,,,0,54,54,1,1,,,,,,,,,,,,,,,,,,,,,,,
,,,,,V1_027,20,Female,2024-05-17_14h01.30.345,jersey_experiment_5_v1,2023.2.2,Win32,84.74576271,,,,,,,,,,,,,,,,852.6322,854.4309,854.431,855.3602,return,0.0724,,78.77604167,,,,,,FBP-RB-19.png,0.4,1.2,58,1,,,,,,,,,,,,,,,,,,0,55,55,57,1,,,,,,,,,,,,,,,,,,,,,,,
,,,,,V1_027,20,Female,2024-05-17_14h01.30.345,jersey_experiment_5_v1,2023.2.2,Win32,84.74576271,,,,,,,,,,,,,,,,855.3606,857.1605,857.1605,857.7602,return,0.2127,,86.97916667,,,,,,FBP-YG-71.png,0.43,1.2,19,1,,,,,,,,,,,,,,,,,,0,56,56,18,1,,,,,,,,,,,,,,,,,,,,,,,
,,,,,V1_027,20,Female,2024-05-17_14h01.30.345,jersey_experiment_5_v1,2023.2.2,Win32,84.74576271,,,,,,,,,,,,,,,,857.7606,859.0548,859.0548,860.7604,return,0.1139,,75.26041667,,,,,,FBP-PT-18.png,0.35,1.2,6,0.5,,,,,,,,,,,,,,,,,,0,57,57,5,1,,,,,,,,,,,,,,,,,,,,,,,
,,,,,V1_027,20,Female,2024-05-17_14h01.30.345,jersey_experiment_5_v1,2023.2.2,Win32,84.74576271,,,,,,,,,,,,,,,,860.7608,862.5612,862.5612,863.29,return,0.1011,,97.91666667,,,,,,FBP-YG-91.png,0.45,1.2,30,1,,,,,,,,,,,,,,,,,,0,58,58,29,1,,,,,,,,,,,,,,,,,,,,,,,
,,,,,V1_027,20,Female,2024-05-17_14h01.30.345,jersey_experiment_5_v1,2023.2.2,Win32,84.74576271,,,,,,,,,,,,,,,,863.2904,865.0901,865.0902,866.0428,return,0.0423,,98.828125,,,,,,FBP-RB-19.png,0.45,1.2,60,1,,,,,,,,,,,,,,,,,,0,59,59,59,1,,,,,,,,,,,,,,,,,,,,,,,
,,,,,V1_027,20,Female,2024-05-17_14h01.30.345,jersey_experiment_5_v1,2023.2.2,Win32,84.74576271,,,,,,,,,,,,,,,,,,,,,,,,,,,,,,,,,,,,,,,,,,,,,,,,,,,,,,,,866.0438,873.2085,return,7.1577,,,,,,,,,,,,,,,,,,,
,,,,,V1_027,20,Female,2024-05-17_14h01.30.345,jersey_experiment_5_v1,2023.2.2,Win32,84.74576271,,,,,,,,,,,,,,,,,,,,,,,,,,,,,,,,,,,,,,,,,,,,,,,,,,,,,,,,,,,,,873.2088,878.3142,1,4.2939,return,0.7915,,,,,,,,,,,,
,,,,,V1_027,20,Female,2024-05-17_14h01.30.345,jersey_experiment_5_v1,2023.2.2,Win32,84.74576271,,,,,,,,,,,,,,,,,,,,,,,,,,,,,,,,,,,,,,,,,,,,,,,,,,,,,,,,,,,,,,,,,,,,878.3145,939.8345,"i honestly didn't recognize any patterns except I did notice that the football players were either black or white, there were no other races represented ",right,54.7348,,,,,,
,,,,,V1_027,20,Female,2024-05-17_14h01.30.345,jersey_experiment_5_v1,2023.2.2,Win32,84.74576271,,,,,,,,,,,,,,,,,,,,,,,,,,,,,,,,,,,,,,,,,,,,,,,,,,,,,,,,,,,,,,,,,,,,,,,,,,939.8347,942.8107,return,2.9675,