requirements.started,requirements.stopped,key_resp_3.keys,key_resp_3.rt,key_resp_3.duration,Subject ID,Age,Gender,date,expName,psychopyVersion,OS,frameRate,instructions1.started,instructions1.stopped,key_resp.keys,key_resp.rt,key_resp.duration,example.started,example.stopped,enter_2.keys,enter_2.rt,enter_2.duration,instructions2.started,instructions2.stopped,enter_3.keys,enter_3.rt,enter_3.duration,image.started,image.stopped,slider_2.started,slider_2.stopped,next.keys,next.rt,next.duration,slider.response,trial_block_1.thisRepN,trial_block_1.thisTrialN,trial_block_1.thisN,trial_block_1.thisIndex,trial_block_1.ran,Path,Width,Height,Index,Duration,trial_block_2.thisRepN,trial_block_2.thisTrialN,trial_block_2.thisN,trial_block_2.thisIndex,trial_block_2.ran,rest_break.started,rest_break.stopped,end_break.started,end_break.stopped,key_resp_5.keys,key_resp_5.rt,key_resp_5.duration,trial_block_3.thisRepN,trial_block_3.thisTrialN,trial_block_3.thisN,trial_block_3.thisIndex,trial_block_3.ran,trial_block_4.thisRepN,trial_block_4.thisTrialN,trial_block_4.thisN,trial_block_4.thisIndex,trial_block_4.ran,questions_intro.started,questions_intro.stopped,enter_12.keys,enter_12.rt,enter_12.duration,question2.started,question2.stopped,question_doingbest.response,question_doingbest.rt,enter_15.keys,enter_15.rt,enter_15.duration,pattern.started,pattern.stopped,pattern_2.text,enter_17.keys,enter_17.rt,enter_17.duration,thankyou.started,thankyou.stopped,enter_14.keys,enter_14.rt,enter_14.duration
1E-04,18.3855,return,18.3805,,V1_005,18,Female,2024-04-29_14h39.02.055,jersey_experiment_5_v1,2023.2.2,Win32,84.74576271,,,,,,,,,,,,,,,,,,,,,,,,,,,,,,,,,,,,,,,,,,,,,,,,,,,,,,,,,,,,,,,,,,,,,,,,,,,,,,
,,,,,V1_005,18,Female,2024-04-29_14h39.02.055,jersey_experiment_5_v1,2023.2.2,Win32,84.74576271,18.3856,28.6649,return,10.2676,,,,,,,,,,,,,,,,,,,,,,,,,,,,,,,,,,,,,,,,,,,,,,,,,,,,,,,,,,,,,,,,,,,,,,,,,,
,,,,,V1_005,18,Female,2024-04-29_14h39.02.055,jersey_experiment_5_v1,2023.2.2,Win32,84.74576271,,,,,,28.665,38.9827,return,10.2833,,,,,,,,,,,,,,,,,,,,,,,,,,,,,,,,,,,,,,,,,,,,,,,,,,,,,,,,,,,,,,,,,,,,,
,,,,,V1_005,18,Female,2024-04-29_14h39.02.055,jersey_experiment_5_v1,2023.2.2,Win32,84.74576271,,,,,,,,,,,38.9828,65.5719,return,26.5771,,,,,,,,,,,,,,,,,,,,,,,,,,,,,,,,,,,,,,,,,,,,,,,,,,,,,,,,,,,,,,,,
,,,,,V1_005,18,Female,2024-04-29_14h39.02.055,jersey_experiment_5_v1,2023.2.2,Win32,84.74576271,,,,,,,,,,,,,,,,65.5746,66.8661,66.8661,80.9609,return,3.8636,,75,0,0,0,26,1,FBP-YG-19.png,0.37,1.2,27,0.5,,,,,,,,,,,,,,,,,,,,,,,,,,,,,,,,,,,,,,,,,,,,,
,,,,,V1_005,18,Female,2024-04-29_14h39.02.055,jersey_experiment_5_v1,2023.2.2,Win32,84.74576271,,,,,,,,,,,,,,,,80.9655,82.2667,82.2667,85.302,return,0.8608,,75.26041667,0,1,1,39,1,FBP-OG-18.png,0.45,1.2,40,0.5,,,,,,,,,,,,,,,,,,,,,,,,,,,,,,,,,,,,,,,,,,,,,
,,,,,V1_005,18,Female,2024-04-29_14h39.02.055,jersey_experiment_5_v1,2023.2.2,Win32,84.74576271,,,,,,,,,,,,,,,,85.3024,87.1019,87.1019,88.8316,return,0.5115,,49.609375,0,2,2,2,1,FBP-PT-71.png,0.4,1.2,3,1,,,,,,,,,,,,,,,,,,,,,,,,,,,,,,,,,,,,,,,,,,,,,
,,,,,V1_005,18,Female,2024-04-29_14h39.02.055,jersey_experiment_5_v1,2023.2.2,Win32,84.74576271,,,,,,,,,,,,,,,,88.8318,90.1258,90.1258,95.7611,return,4.1693,,81.11979167,0,3,3,28,1,FBP-YG-19.png,0.43,1.2,29,0.5,,,,,,,,,,,,,,,,,,,,,,,,,,,,,,,,,,,,,,,,,,,,,
,,,,,V1_005,18,Female,2024-04-29_14h39.02.055,jersey_experiment_5_v1,2023.2.2,Win32,84.74576271,,,,,,,,,,,,,,,,95.7613,97.0553,97.0553,99.7613,return,0.7805,,42.96875,0,4,4,42,1,FBP-OG-19.png,0.4,1.2,43,0.5,,,,,,,,,,,,,,,,,,,,,,,,,,,,,,,,,,,,,,,,,,,,,
,,,,,V1_005,18,Female,2024-04-29_14h39.02.055,jersey_experiment_5_v1,2023.2.2,Win32,84.74576271,,,,,,,,,,,,,,,,99.7616,101.5615,101.5615,103.444,return,0.7066,,36.71875,0,5,5,1,1,FBP-PT-71.png,0.37,1.2,2,1,,,,,,,,,,,,,,,,,,,,,,,,,,,,,,,,,,,,,,,,,,,,,
,,,,,V1_005,18,Female,2024-04-29_14h39.02.055,jersey_experiment_5_v1,2023.2.2,Win32,84.74576271,,,,,,,,,,,,,,,,103.4441,104.738,104.7381,107.1969,return,0.5027,,34.24479167,0,6,6,55,1,FBP-RB-91.png,0.35,1.2,56,0.5,,,,,,,,,,,,,,,,,,,,,,,,,,,,,,,,,,,,,,,,,,,,,
,,,,,V1_005,18,Female,2024-04-29_14h39.02.055,jersey_experiment_5_v1,2023.2.2,Win32,84.74576271,,,,,,,,,,,,,,,,107.1971,108.997,108.997,110.9972,return,0.5649,,37.23958333,0,7,7,0,1,FBP-PT-71.png,0.35,1.2,1,1,,,,,,,,,,,,,,,,,,,,,,,,,,,,,,,,,,,,,,,,,,,,,
,,,,,V1_005,18,Female,2024-04-29_14h39.02.055,jersey_experiment_5_v1,2023.2.2,Win32,84.74576271,,,,,,,,,,,,,,,,110.9974,112.2913,112.2914,114.9502,return,0.5897,,52.08333333,0,8,8,47,1,FBP-RB-71.png,0.4,1.2,48,0.5,,,,,,,,,,,,,,,,,,,,,,,,,,,,,,,,,,,,,,,,,,,,,
,,,,,V1_005,18,Female,2024-04-29_14h39.02.055,jersey_experiment_5_v1,2023.2.2,Win32,84.74576271,,,,,,,,,,,,,,,,114.9503,116.7504,116.7505,118.2562,return,0.5232,,45.3125,0,9,9,12,1,FBP-PT-91.png,0.4,1.2,13,1,,,,,,,,,,,,,,,,,,,,,,,,,,,,,,,,,,,,,,,,,,,,,
,,,,,V1_005,18,Female,2024-04-29_14h39.02.055,jersey_experiment_5_v1,2023.2.2,Win32,84.74576271,,,,,,,,,,,,,,,,118.2565,119.5504,119.5504,121.7269,return,0.4652,,25.78125,0,10,10,25,1,FBP-YG-19.png,0.35,1.2,26,0.5,,,,,,,,,,,,,,,,,,,,,,,,,,,,,,,,,,,,,,,,,,,,,
,,,,,V1_005,18,Female,2024-04-29_14h39.02.055,jersey_experiment_5_v1,2023.2.2,Win32,84.74576271,,,,,,,,,,,,,,,,121.7271,123.0211,123.0211,125.4447,return,0.5793,,79.55729167,0,11,11,19,1,FBP-YG-17.png,0.45,1.2,20,0.5,,,,,,,,,,,,,,,,,,,,,,,,,,,,,,,,,,,,,,,,,,,,,
,,,,,V1_005,18,Female,2024-04-29_14h39.02.055,jersey_experiment_5_v1,2023.2.2,Win32,84.74576271,,,,,,,,,,,,,,,,125.4449,126.7388,126.7388,129.0918,return,0.4944,,49.08854167,0,12,12,52,1,FBP-RB-81.png,0.4,1.2,53,0.5,,,,,,,,,,,,,,,,,,,,,,,,,,,,,,,,,,,,,,,,,,,,,
,,,,,V1_005,18,Female,2024-04-29_14h39.02.055,jersey_experiment_5_v1,2023.2.2,Win32,84.74576271,,,,,,,,,,,,,,,,129.0919,130.386,130.3861,133.8096,return,1.8492,,26.171875,0,13,13,41,1,FBP-OG-19.png,0.37,1.2,42,0.5,,,,,,,,,,,,,,,,,,,,,,,,,,,,,,,,,,,,,,,,,,,,,
,,,,,V1_005,18,Female,2024-04-29_14h39.02.055,jersey_experiment_5_v1,2023.2.2,Win32,84.74576271,,,,,,,,,,,,,,,,133.8097,135.6098,135.6098,137.4452,return,0.5886,,75.13020833,0,14,14,13,1,FBP-PT-91.png,0.43,1.2,14,1,,,,,,,,,,,,,,,,,,,,,,,,,,,,,,,,,,,,,,,,,,,,,
,,,,,V1_005,18,Female,2024-04-29_14h39.02.055,jersey_experiment_5_v1,2023.2.2,Win32,84.74576271,,,,,,,,,,,,,,,,137.4454,139.2452,139.2453,141.5275,return,1.1869,,30.59895833,0,15,15,11,1,FBP-PT-91.png,0.37,1.2,12,1,,,,,,,,,,,,,,,,,,,,,,,,,,,,,,,,,,,,,,,,,,,,,
,,,,,V1_005,18,Female,2024-04-29_14h39.02.055,jersey_experiment_5_v1,2023.2.2,Win32,84.74576271,,,,,,,,,,,,,,,,141.5276,142.8218,142.8218,144.9748,return,0.4985,,93.359375,0,16,16,59,1,FBP-RB-91.png,0.45,1.2,60,0.5,,,,,,,,,,,,,,,,,,,,,,,,,,,,,,,,,,,,,,,,,,,,,
,,,,,V1_005,18,Female,2024-04-29_14h39.02.055,jersey_experiment_5_v1,2023.2.2,Win32,84.74576271,,,,,,,,,,,,,,,,144.975,146.7748,146.7748,148.469,return,0.4802,,71.875,0,17,17,3,1,FBP-PT-71.png,0.43,1.2,4,1,,,,,,,,,,,,,,,,,,,,,,,,,,,,,,,,,,,,,,,,,,,,,
,,,,,V1_005,18,Female,2024-04-29_14h39.02.055,jersey_experiment_5_v1,2023.2.2,Win32,84.74576271,,,,,,,,,,,,,,,,148.4693,149.763,149.7631,151.6692,return,0.4327,,24.609375,0,18,18,50,1,FBP-RB-81.png,0.35,1.2,51,0.5,,,,,,,,,,,,,,,,,,,,,,,,,,,,,,,,,,,,,,,,,,,,,
,,,,,V1_005,18,Female,2024-04-29_14h39.02.055,jersey_experiment_5_v1,2023.2.2,Win32,84.74576271,,,,,,,,,,,,,,,,151.6694,152.9633,152.9633,156.6693,return,2.1942,,71.09375,0,19,19,22,1,FBP-YG-18.png,0.4,1.2,23,0.5,,,,,,,,,,,,,,,,,,,,,,,,,,,,,,,,,,,,,,,,,,,,,
,,,,,V1_005,18,Female,2024-04-29_14h39.02.055,jersey_experiment_5_v1,2023.2.2,Win32,84.74576271,,,,,,,,,,,,,,,,156.6695,157.9636,157.9636,160.4459,return,0.5587,,63.15104167,0,20,20,57,1,FBP-RB-91.png,0.4,1.2,58,0.5,,,,,,,,,,,,,,,,,,,,,,,,,,,,,,,,,,,,,,,,,,,,,
,,,,,V1_005,18,Female,2024-04-29_14h39.02.055,jersey_experiment_5_v1,2023.2.2,Win32,84.74576271,,,,,,,,,,,,,,,,160.4461,162.246,162.246,164.1284,return,0.6997,,29.42708333,0,21,21,5,1,FBP-PT-81.png,0.35,1.2,6,1,,,,,,,,,,,,,,,,,,,,,,,,,,,,,,,,,,,,,,,,,,,,,
,,,,,V1_005,18,Female,2024-04-29_14h39.02.055,jersey_experiment_5_v1,2023.2.2,Win32,84.74576271,,,,,,,,,,,,,,,,164.1286,165.9285,165.9285,170.8818,return,2.7323,,44.01041667,0,22,22,6,1,FBP-PT-81.png,0.37,1.2,7,1,,,,,,,,,,,,,,,,,,,,,,,,,,,,,,,,,,,,,,,,,,,,,
,,,,,V1_005,18,Female,2024-04-29_14h39.02.055,jersey_experiment_5_v1,2023.2.2,Win32,84.74576271,,,,,,,,,,,,,,,,170.882,172.6817,172.6817,175.5878,return,0.7071,,59.89583333,0,23,23,8,1,FBP-PT-81.png,0.43,1.2,9,1,,,,,,,,,,,,,,,,,,,,,,,,,,,,,,,,,,,,,,,,,,,,,
,,,,,V1_005,18,Female,2024-04-29_14h39.02.055,jersey_experiment_5_v1,2023.2.2,Win32,84.74576271,,,,,,,,,,,,,,,,175.5879,176.882,176.882,179.0468,return,0.4245,,76.953125,0,24,24,34,1,FBP-OG-17.png,0.45,1.2,35,0.5,,,,,,,,,,,,,,,,,,,,,,,,,,,,,,,,,,,,,,,,,,,,,
,,,,,V1_005,18,Female,2024-04-29_14h39.02.055,jersey_experiment_5_v1,2023.2.2,Win32,84.74576271,,,,,,,,,,,,,,,,179.0469,180.3409,180.3409,182.6116,return,0.4724,,81.38020833,0,25,25,48,1,FBP-RB-71.png,0.43,1.2,49,0.5,,,,,,,,,,,,,,,,,,,,,,,,,,,,,,,,,,,,,,,,,,,,,
,,,,,V1_005,18,Female,2024-04-29_14h39.02.055,jersey_experiment_5_v1,2023.2.2,Win32,84.74576271,,,,,,,,,,,,,,,,182.6118,183.9056,183.9056,188.6,return,2.9309,,33.33333333,0,26,26,51,1,FBP-RB-81.png,0.37,1.2,52,0.5,,,,,,,,,,,,,,,,,,,,,,,,,,,,,,,,,,,,,,,,,,,,,
,,,,,V1_005,18,Female,2024-04-29_14h39.02.055,jersey_experiment_5_v1,2023.2.2,Win32,84.74576271,,,,,,,,,,,,,,,,188.6002,190.4,190.4,195.0003,return,3.1529,,28.515625,0,27,27,10,1,FBP-PT-91.png,0.35,1.2,11,1,,,,,,,,,,,,,,,,,,,,,,,,,,,,,,,,,,,,,,,,,,,,,
,,,,,V1_005,18,Female,2024-04-29_14h39.02.055,jersey_experiment_5_v1,2023.2.2,Win32,84.74576271,,,,,,,,,,,,,,,,195.0006,196.2946,196.2946,198.965,return,1.1638,,25.390625,0,28,28,56,1,FBP-RB-91.png,0.37,1.2,57,0.5,,,,,,,,,,,,,,,,,,,,,,,,,,,,,,,,,,,,,,,,,,,,,
,,,,,V1_005,18,Female,2024-04-29_14h39.02.055,jersey_experiment_5_v1,2023.2.2,Win32,84.74576271,,,,,,,,,,,,,,,,198.9652,200.2593,200.2593,203.5535,return,0.5325,,75,0,29,29,58,1,FBP-RB-91.png,0.43,1.2,59,0.5,,,,,,,,,,,,,,,,,,,,,,,,,,,,,,,,,,,,,,,,,,,,,
,,,,,V1_005,18,Female,2024-04-29_14h39.02.055,jersey_experiment_5_v1,2023.2.2,Win32,84.74576271,,,,,,,,,,,,,,,,203.5537,204.8476,204.8476,207.6831,return,0.7073,,65.75520833,0,30,30,43,1,FBP-OG-19.png,0.43,1.2,44,0.5,,,,,,,,,,,,,,,,,,,,,,,,,,,,,,,,,,,,,,,,,,,,,
,,,,,V1_005,18,Female,2024-04-29_14h39.02.055,jersey_experiment_5_v1,2023.2.2,Win32,84.74576271,,,,,,,,,,,,,,,,207.6833,208.9772,208.9772,212.8715,return,2.8004,,57.03125,0,31,31,21,1,FBP-YG-18.png,0.37,1.2,22,0.5,,,,,,,,,,,,,,,,,,,,,,,,,,,,,,,,,,,,,,,,,,,,,
,,,,,V1_005,18,Female,2024-04-29_14h39.02.055,jersey_experiment_5_v1,2023.2.2,Win32,84.74576271,,,,,,,,,,,,,,,,212.8717,214.1657,214.1657,218.0716,return,2.8001,,55.46875,0,32,32,46,1,FBP-RB-71.png,0.37,1.2,47,0.5,,,,,,,,,,,,,,,,,,,,,,,,,,,,,,,,,,,,,,,,,,,,,
,,,,,V1_005,18,Female,2024-04-29_14h39.02.055,jersey_experiment_5_v1,2023.2.2,Win32,84.74576271,,,,,,,,,,,,,,,,218.0718,219.3658,219.3658,222.0365,return,0.5069,,22.39583333,0,33,33,35,1,FBP-OG-18.png,0.35,1.2,36,0.5,,,,,,,,,,,,,,,,,,,,,,,,,,,,,,,,,,,,,,,,,,,,,
,,,,,V1_005,18,Female,2024-04-29_14h39.02.055,jersey_experiment_5_v1,2023.2.2,Win32,84.74576271,,,,,,,,,,,,,,,,222.0367,223.3307,223.3308,225.5662,return,0.5839,,72.52604167,0,34,34,29,1,FBP-YG-19.png,0.45,1.2,30,0.5,,,,,,,,,,,,,,,,,,,,,,,,,,,,,,,,,,,,,,,,,,,,,
,,,,,V1_005,18,Female,2024-04-29_14h39.02.055,jersey_experiment_5_v1,2023.2.2,Win32,84.74576271,,,,,,,,,,,,,,,,225.5664,226.8603,226.8604,229.4958,return,0.9794,,70.57291667,0,35,35,27,1,FBP-YG-19.png,0.4,1.2,28,0.5,,,,,,,,,,,,,,,,,,,,,,,,,,,,,,,,,,,,,,,,,,,,,
,,,,,V1_005,18,Female,2024-04-29_14h39.02.055,jersey_experiment_5_v1,2023.2.2,Win32,84.74576271,,,,,,,,,,,,,,,,229.4961,230.7899,230.7899,232.7194,return,0.9463,,82.55208333,0,36,36,54,1,FBP-RB-81.png,0.45,1.2,55,0.5,,,,,,,,,,,,,,,,,,,,,,,,,,,,,,,,,,,,,,,,,,,,,
,,,,,V1_005,18,Female,2024-04-29_14h39.02.055,jersey_experiment_5_v1,2023.2.2,Win32,84.74576271,,,,,,,,,,,,,,,,232.7196,234.5192,234.5192,237.296,return,1.4879,,96.484375,0,37,37,9,1,FBP-PT-81.png,0.45,1.2,10,1,,,,,,,,,,,,,,,,,,,,,,,,,,,,,,,,,,,,,,,,,,,,,
,,,,,V1_005,18,Female,2024-04-29_14h39.02.055,jersey_experiment_5_v1,2023.2.2,Win32,84.74576271,,,,,,,,,,,,,,,,237.2961,238.5901,238.5901,241.2141,return,0.5717,,26.04166667,0,38,38,31,1,FBP-OG-17.png,0.37,1.2,32,0.5,,,,,,,,,,,,,,,,,,,,,,,,,,,,,,,,,,,,,,,,,,,,,
,,,,,V1_005,18,Female,2024-04-29_14h39.02.055,jersey_experiment_5_v1,2023.2.2,Win32,84.74576271,,,,,,,,,,,,,,,,241.2142,242.5079,242.508,246.9787,return,2.8142,,20.703125,0,39,39,40,1,FBP-OG-19.png,0.35,1.2,41,0.5,,,,,,,,,,,,,,,,,,,,,,,,,,,,,,,,,,,,,,,,,,,,,
,,,,,V1_005,18,Female,2024-04-29_14h39.02.055,jersey_experiment_5_v1,2023.2.2,Win32,84.74576271,,,,,,,,,,,,,,,,246.983,248.7787,248.7787,251.7202,return,1.9404,,46.35416667,0,40,40,7,1,FBP-PT-81.png,0.4,1.2,8,1,,,,,,,,,,,,,,,,,,,,,,,,,,,,,,,,,,,,,,,,,,,,,
,,,,,V1_005,18,Female,2024-04-29_14h39.02.055,jersey_experiment_5_v1,2023.2.2,Win32,84.74576271,,,,,,,,,,,,,,,,251.7203,253.0141,253.0141,255.8732,return,0.6852,,63.80208333,0,41,41,18,1,FBP-YG-17.png,0.43,1.2,19,0.5,,,,,,,,,,,,,,,,,,,,,,,,,,,,,,,,,,,,,,,,,,,,,
,,,,,V1_005,18,Female,2024-04-29_14h39.02.055,jersey_experiment_5_v1,2023.2.2,Win32,84.74576271,,,,,,,,,,,,,,,,255.8734,257.1673,257.1673,260.0146,return,0.4763,,52.47395833,0,42,42,36,1,FBP-OG-18.png,0.37,1.2,37,0.5,,,,,,,,,,,,,,,,,,,,,,,,,,,,,,,,,,,,,,,,,,,,,
,,,,,V1_005,18,Female,2024-04-29_14h39.02.055,jersey_experiment_5_v1,2023.2.2,Win32,84.74576271,,,,,,,,,,,,,,,,260.0148,261.3087,261.3087,263.9206,return,0.804,,26.953125,0,43,43,16,1,FBP-YG-17.png,0.37,1.2,17,0.5,,,,,,,,,,,,,,,,,,,,,,,,,,,,,,,,,,,,,,,,,,,,,
,,,,,V1_005,18,Female,2024-04-29_14h39.02.055,jersey_experiment_5_v1,2023.2.2,Win32,84.74576271,,,,,,,,,,,,,,,,263.9209,265.215,265.215,269.2619,return,0.5929,,50.65104167,0,44,44,33,1,FBP-OG-17.png,0.43,1.2,34,0.5,,,,,,,,,,,,,,,,,,,,,,,,,,,,,,,,,,,,,,,,,,,,,
,,,,,V1_005,18,Female,2024-04-29_14h39.02.055,jersey_experiment_5_v1,2023.2.2,Win32,84.74576271,,,,,,,,,,,,,,,,269.2621,270.5561,270.5561,272.9091,return,0.5716,,80.72916667,0,45,45,49,1,FBP-RB-71.png,0.45,1.2,50,0.5,,,,,,,,,,,,,,,,,,,,,,,,,,,,,,,,,,,,,,,,,,,,,
,,,,,V1_005,18,Female,2024-04-29_14h39.02.055,jersey_experiment_5_v1,2023.2.2,Win32,84.74576271,,,,,,,,,,,,,,,,272.9093,274.7092,274.7092,276.0622,return,0.7721,,88.02083333,0,46,46,14,1,FBP-PT-91.png,0.45,1.2,15,1,,,,,,,,,,,,,,,,,,,,,,,,,,,,,,,,,,,,,,,,,,,,,
,,,,,V1_005,18,Female,2024-04-29_14h39.02.055,jersey_experiment_5_v1,2023.2.2,Win32,84.74576271,,,,,,,,,,,,,,,,276.0623,277.3564,277.3564,279.5327,return,0.5366,,83.46354167,0,47,47,53,1,FBP-RB-81.png,0.43,1.2,54,0.5,,,,,,,,,,,,,,,,,,,,,,,,,,,,,,,,,,,,,,,,,,,,,
,,,,,V1_005,18,Female,2024-04-29_14h39.02.055,jersey_experiment_5_v1,2023.2.2,Win32,84.74576271,,,,,,,,,,,,,,,,279.5329,280.827,280.827,283.6624,return,0.6074,,25.78125,0,48,48,15,1,FBP-YG-17.png,0.35,1.2,16,0.5,,,,,,,,,,,,,,,,,,,,,,,,,,,,,,,,,,,,,,,,,,,,,
,,,,,V1_005,18,Female,2024-04-29_14h39.02.055,jersey_experiment_5_v1,2023.2.2,Win32,84.74576271,,,,,,,,,,,,,,,,283.6627,284.9566,284.9566,287.1096,return,0.4472,,26.171875,0,49,49,45,1,FBP-RB-71.png,0.35,1.2,46,0.5,,,,,,,,,,,,,,,,,,,,,,,,,,,,,,,,,,,,,,,,,,,,,
,,,,,V1_005,18,Female,2024-04-29_14h39.02.055,jersey_experiment_5_v1,2023.2.2,Win32,84.74576271,,,,,,,,,,,,,,,,287.1098,288.4039,288.4039,289.9921,return,0.4841,,83.85416667,0,50,50,24,1,FBP-YG-18.png,0.45,1.2,25,0.5,,,,,,,,,,,,,,,,,,,,,,,,,,,,,,,,,,,,,,,,,,,,,
,,,,,V1_005,18,Female,2024-04-29_14h39.02.055,jersey_experiment_5_v1,2023.2.2,Win32,84.74576271,,,,,,,,,,,,,,,,289.9925,291.2864,291.2864,293.3806,return,0.8236,,91.015625,0,51,51,44,1,FBP-OG-19.png,0.45,1.2,45,0.5,,,,,,,,,,,,,,,,,,,,,,,,,,,,,,,,,,,,,,,,,,,,,
,,,,,V1_005,18,Female,2024-04-29_14h39.02.055,jersey_experiment_5_v1,2023.2.2,Win32,84.74576271,,,,,,,,,,,,,,,,293.3809,295.1805,295.1805,299.3453,return,1.2618,,64.0625,0,52,52,4,1,FBP-PT-71.png,0.45,1.2,5,1,,,,,,,,,,,,,,,,,,,,,,,,,,,,,,,,,,,,,,,,,,,,,
,,,,,V1_005,18,Female,2024-04-29_14h39.02.055,jersey_experiment_5_v1,2023.2.2,Win32,84.74576271,,,,,,,,,,,,,,,,299.3455,300.6395,300.6395,303.122,return,0.9423,,39.97395833,0,53,53,17,1,FBP-YG-17.png,0.4,1.2,18,0.5,,,,,,,,,,,,,,,,,,,,,,,,,,,,,,,,,,,,,,,,,,,,,
,,,,,V1_005,18,Female,2024-04-29_14h39.02.055,jersey_experiment_5_v1,2023.2.2,Win32,84.74576271,,,,,,,,,,,,,,,,303.1222,304.4162,304.4162,306.2281,return,0.519,,24.47916667,0,54,54,20,1,FBP-YG-18.png,0.35,1.2,21,0.5,,,,,,,,,,,,,,,,,,,,,,,,,,,,,,,,,,,,,,,,,,,,,
,,,,,V1_005,18,Female,2024-04-29_14h39.02.055,jersey_experiment_5_v1,2023.2.2,Win32,84.74576271,,,,,,,,,,,,,,,,306.2284,307.5222,307.5222,309.0633,return,0.4942,,67.44791667,0,55,55,38,1,FBP-OG-18.png,0.43,1.2,39,0.5,,,,,,,,,,,,,,,,,,,,,,,,,,,,,,,,,,,,,,,,,,,,,
,,,,,V1_005,18,Female,2024-04-29_14h39.02.055,jersey_experiment_5_v1,2023.2.2,Win32,84.74576271,,,,,,,,,,,,,,,,309.0635,310.3576,310.3576,312.287,return,0.5716,,71.22395833,0,56,56,37,1,FBP-OG-18.png,0.4,1.2,38,0.5,,,,,,,,,,,,,,,,,,,,,,,,,,,,,,,,,,,,,,,,,,,,,
,,,,,V1_005,18,Female,2024-04-29_14h39.02.055,jersey_experiment_5_v1,2023.2.2,Win32,84.74576271,,,,,,,,,,,,,,,,312.2872,313.5814,313.5814,314.8635,return,0.4751,,66.015625,0,57,57,32,1,FBP-OG-17.png,0.4,1.2,33,0.5,,,,,,,,,,,,,,,,,,,,,,,,,,,,,,,,,,,,,,,,,,,,,
,,,,,V1_005,18,Female,2024-04-29_14h39.02.055,jersey_experiment_5_v1,2023.2.2,Win32,84.74576271,,,,,,,,,,,,,,,,314.8637,316.1576,316.1576,319.5225,return,2.7071,,31.77083333,0,58,58,30,1,FBP-OG-17.png,0.35,1.2,31,0.5,,,,,,,,,,,,,,,,,,,,,,,,,,,,,,,,,,,,,,,,,,,,,
,,,,,V1_005,18,Female,2024-04-29_14h39.02.055,jersey_experiment_5_v1,2023.2.2,Win32,84.74576271,,,,,,,,,,,,,,,,319.5227,320.8171,320.8171,324.9581,return,2.9472,,82.94270833,0,59,59,23,1,FBP-YG-18.png,0.43,1.2,24,0.5,,,,,,,,,,,,,,,,,,,,,,,,,,,,,,,,,,,,,,,,,,,,,
,,,,,V1_005,18,Female,2024-04-29_14h39.02.055,jersey_experiment_5_v1,2023.2.2,Win32,84.74576271,,,,,,,,,,,,,,,,324.9604,326.2523,326.2523,328.017,return,0.4736,,24.73958333,,,,,,FBP-RB-18.png,0.35,1.2,51,0.5,0,0,0,50,1,,,,,,,,,,,,,,,,,,,,,,,,,,,,,,,,,,,,,,,,
,,,,,V1_005,18,Female,2024-04-29_14h39.02.055,jersey_experiment_5_v1,2023.2.2,Win32,84.74576271,,,,,,,,,,,,,,,,328.0173,329.3113,329.3113,330.9114,return,0.4651,,59.375,,,,,,FBP-YG-81.png,0.4,1.2,23,0.5,0,1,1,22,1,,,,,,,,,,,,,,,,,,,,,,,,,,,,,,,,,,,,,,,,
,,,,,V1_005,18,Female,2024-04-29_14h39.02.055,jersey_experiment_5_v1,2023.2.2,Win32,84.74576271,,,,,,,,,,,,,,,,330.9116,332.2055,332.2055,333.688,return,0.6016,,70.44270833,,,,,,FBP-OG-81.png,0.43,1.2,39,0.5,0,2,2,38,1,,,,,,,,,,,,,,,,,,,,,,,,,,,,,,,,,,,,,,,,
,,,,,V1_005,18,Female,2024-04-29_14h39.02.055,jersey_experiment_5_v1,2023.2.2,Win32,84.74576271,,,,,,,,,,,,,,,,333.6882,334.9824,334.9824,336.429,return,0.5366,,89.58333333,,,,,,FBP-RB-19.png,0.45,1.2,60,0.5,0,3,3,59,1,,,,,,,,,,,,,,,,,,,,,,,,,,,,,,,,,,,,,,,,
,,,,,V1_005,18,Female,2024-04-29_14h39.02.055,jersey_experiment_5_v1,2023.2.2,Win32,84.74576271,,,,,,,,,,,,,,,,336.4293,337.7234,337.7235,339.3468,return,0.554,,30.59895833,,,,,,FBP-RB-19.png,0.35,1.2,56,0.5,0,4,4,55,1,,,,,,,,,,,,,,,,,,,,,,,,,,,,,,,,,,,,,,,,
,,,,,V1_005,18,Female,2024-04-29_14h39.02.055,jersey_experiment_5_v1,2023.2.2,Win32,84.74576271,,,,,,,,,,,,,,,,339.3469,341.1471,341.1471,342.3234,return,0.4952,,21.35416667,,,,,,FBP-PT-18.png,0.37,1.2,7,1,0,5,5,6,1,,,,,,,,,,,,,,,,,,,,,,,,,,,,,,,,,,,,,,,,
,,,,,V1_005,18,Female,2024-04-29_14h39.02.055,jersey_experiment_5_v1,2023.2.2,Win32,84.74576271,,,,,,,,,,,,,,,,342.3237,344.1237,344.1237,345.2882,return,0.532,,76.5625,,,,,,FBP-PT-17.png,0.45,1.2,5,1,0,6,6,4,1,,,,,,,,,,,,,,,,,,,,,,,,,,,,,,,,,,,,,,,,
,,,,,V1_005,18,Female,2024-04-29_14h39.02.055,jersey_experiment_5_v1,2023.2.2,Win32,84.74576271,,,,,,,,,,,,,,,,345.2885,347.0883,347.0883,348.8649,return,1.039,,75.65104167,,,,,,FBP-PT-19.png,0.43,1.2,14,1,0,7,7,13,1,,,,,,,,,,,,,,,,,,,,,,,,,,,,,,,,,,,,,,,,
,,,,,V1_005,18,Female,2024-04-29_14h39.02.055,jersey_experiment_5_v1,2023.2.2,Win32,84.74576271,,,,,,,,,,,,,,,,348.8651,350.1591,350.1591,351.7945,return,0.5302,,42.96875,,,,,,FBP-YG-71.png,0.37,1.2,17,0.5,0,8,8,16,1,,,,,,,,,,,,,,,,,,,,,,,,,,,,,,,,,,,,,,,,
,,,,,V1_005,18,Female,2024-04-29_14h39.02.055,jersey_experiment_5_v1,2023.2.2,Win32,84.74576271,,,,,,,,,,,,,,,,351.7947,353.5947,353.5948,358.1124,return,2.5921,,49.21875,,,,,,FBP-PT-17.png,0.37,1.2,2,1,0,9,9,1,1,,,,,,,,,,,,,,,,,,,,,,,,,,,,,,,,,,,,,,,,
,,,,,V1_005,18,Female,2024-04-29_14h39.02.055,jersey_experiment_5_v1,2023.2.2,Win32,84.74576271,,,,,,,,,,,,,,,,358.1126,359.4065,359.4065,363.3595,return,2.9225,,76.43229167,,,,,,FBP-YG-91.png,0.45,1.2,30,0.5,0,10,10,29,1,,,,,,,,,,,,,,,,,,,,,,,,,,,,,,,,,,,,,,,,
,,,,,V1_005,18,Female,2024-04-29_14h39.02.055,jersey_experiment_5_v1,2023.2.2,Win32,84.74576271,,,,,,,,,,,,,,,,363.3596,364.6538,364.6538,366.5832,return,0.7309,,92.31770833,,,,,,FBP-RB-18.png,0.45,1.2,55,0.5,0,11,11,54,1,,,,,,,,,,,,,,,,,,,,,,,,,,,,,,,,,,,,,,,,
,,,,,V1_005,18,Female,2024-04-29_14h39.02.055,jersey_experiment_5_v1,2023.2.2,Win32,84.74576271,,,,,,,,,,,,,,,,366.5835,367.8776,367.8776,370.0539,return,0.7394,,48.046875,,,,,,FBP-OG-91.png,0.35,1.2,41,0.5,0,12,12,40,1,,,,,,,,,,,,,,,,,,,,,,,,,,,,,,,,,,,,,,,,
,,,,,V1_005,18,Female,2024-04-29_14h39.02.055,jersey_experiment_5_v1,2023.2.2,Win32,84.74576271,,,,,,,,,,,,,,,,370.054,371.8542,371.8542,373.0421,return,0.521,,25,,,,,,FBP-PT-19.png,0.37,1.2,12,1,0,13,13,11,1,,,,,,,,,,,,,,,,,,,,,,,,,,,,,,,,,,,,,,,,
,,,,,V1_005,18,Female,2024-04-29_14h39.02.055,jersey_experiment_5_v1,2023.2.2,Win32,84.74576271,,,,,,,,,,,,,,,,373.0424,374.3366,374.3366,375.5719,return,0.4952,,25.52083333,,,,,,FBP-YG-91.png,0.4,1.2,28,0.5,0,14,14,27,1,,,,,,,,,,,,,,,,,,,,,,,,,,,,,,,,,,,,,,,,
,,,,,V1_005,18,Female,2024-04-29_14h39.02.055,jersey_experiment_5_v1,2023.2.2,Win32,84.74576271,,,,,,,,,,,,,,,,375.5721,376.866,376.866,379.172,return,0.9321,,74.609375,,,,,,FBP-YG-91.png,0.43,1.2,29,0.5,0,15,15,28,1,,,,,,,,,,,,,,,,,,,,,,,,,,,,,,,,,,,,,,,,
,,,,,V1_005,18,Female,2024-04-29_14h39.02.055,jersey_experiment_5_v1,2023.2.2,Win32,84.74576271,,,,,,,,,,,,,,,,379.1721,380.4662,380.4662,381.9602,return,0.4576,,30.59895833,,,,,,FBP-YG-71.png,0.35,1.2,16,0.5,0,16,16,15,1,,,,,,,,,,,,,,,,,,,,,,,,,,,,,,,,,,,,,,,,
,,,,,V1_005,18,Female,2024-04-29_14h39.02.055,jersey_experiment_5_v1,2023.2.2,Win32,84.74576271,,,,,,,,,,,,,,,,381.9604,383.2544,383.2545,385.137,return,0.499,,30.46875,,,,,,FBP-OG-81.png,0.37,1.2,37,0.5,0,17,17,36,1,,,,,,,,,,,,,,,,,,,,,,,,,,,,,,,,,,,,,,,,
,,,,,V1_005,18,Female,2024-04-29_14h39.02.055,jersey_experiment_5_v1,2023.2.2,Win32,84.74576271,,,,,,,,,,,,,,,,385.1371,386.431,386.431,388.8547,return,0.5989,,16.40625,,,,,,FBP-RB-17.png,0.35,1.2,46,0.5,0,18,18,45,1,,,,,,,,,,,,,,,,,,,,,,,,,,,,,,,,,,,,,,,,
,,,,,V1_005,18,Female,2024-04-29_14h39.02.055,jersey_experiment_5_v1,2023.2.2,Win32,84.74576271,,,,,,,,,,,,,,,,388.8549,390.1487,390.1487,392.0665,return,0.5091,,90.49479167,,,,,,FBP-OG-81.png,0.45,1.2,40,0.5,0,19,19,39,1,,,,,,,,,,,,,,,,,,,,,,,,,,,,,,,,,,,,,,,,
,,,,,V1_005,18,Female,2024-04-29_14h39.02.055,jersey_experiment_5_v1,2023.2.2,Win32,84.74576271,,,,,,,,,,,,,,,,392.0667,393.3609,393.3609,395.6196,return,1.2003,,91.66666667,,,,,,FBP-RB-19.png,0.43,1.2,59,0.5,0,20,20,58,1,,,,,,,,,,,,,,,,,,,,,,,,,,,,,,,,,,,,,,,,
,,,,,V1_005,18,Female,2024-04-29_14h39.02.055,jersey_experiment_5_v1,2023.2.2,Win32,84.74576271,,,,,,,,,,,,,,,,395.6197,396.9138,396.9138,400.3022,return,0.5709,,72.00520833,,,,,,FBP-RB-19.png,0.4,1.2,58,0.5,0,21,21,57,1,,,,,,,,,,,,,,,,,,,,,,,,,,,,,,,,,,,,,,,,
,,,,,V1_005,18,Female,2024-04-29_14h39.02.055,jersey_experiment_5_v1,2023.2.2,Win32,84.74576271,,,,,,,,,,,,,,,,400.3023,402.1023,402.1023,405.3728,return,2.2541,,21.74479167,,,,,,FBP-PT-18.png,0.35,1.2,6,1,0,22,22,5,1,,,,,,,,,,,,,,,,,,,,,,,,,,,,,,,,,,,,,,,,
,,,,,V1_005,18,Female,2024-04-29_14h39.02.055,jersey_experiment_5_v1,2023.2.2,Win32,84.74576271,,,,,,,,,,,,,,,,405.3729,406.6669,406.667,411.4436,return,2.1906,,5.078125,,,,,,FBP-OG-71.png,0.35,1.2,31,0.5,0,23,23,30,1,,,,,,,,,,,,,,,,,,,,,,,,,,,,,,,,,,,,,,,,
,,,,,V1_005,18,Female,2024-04-29_14h39.02.055,jersey_experiment_5_v1,2023.2.2,Win32,84.74576271,,,,,,,,,,,,,,,,411.4438,412.7378,412.7378,414.0556,return,0.4941,,4.6875,,,,,,FBP-YG-91.png,0.35,1.2,26,0.5,0,24,24,25,1,,,,,,,,,,,,,,,,,,,,,,,,,,,,,,,,,,,,,,,,
,,,,,V1_005,18,Female,2024-04-29_14h39.02.055,jersey_experiment_5_v1,2023.2.2,Win32,84.74576271,,,,,,,,,,,,,,,,414.0558,415.8556,415.8556,417.3615,return,1.0982,,4.427083333,,,,,,FBP-PT-17.png,0.35,1.2,1,1,0,25,25,0,1,,,,,,,,,,,,,,,,,,,,,,,,,,,,,,,,,,,,,,,,
,,,,,V1_005,18,Female,2024-04-29_14h39.02.055,jersey_experiment_5_v1,2023.2.2,Win32,84.74576271,,,,,,,,,,,,,,,,417.3617,418.656,418.656,420.997,return,0.5891,,56.77083333,,,,,,FBP-RB-18.png,0.4,1.2,53,0.5,0,26,26,52,1,,,,,,,,,,,,,,,,,,,,,,,,,,,,,,,,,,,,,,,,
,,,,,V1_005,18,Female,2024-04-29_14h39.02.055,jersey_experiment_5_v1,2023.2.2,Win32,84.74576271,,,,,,,,,,,,,,,,420.9973,422.2911,422.2911,423.6324,return,0.4995,,52.86458333,,,,,,FBP-RB-19.png,0.37,1.2,57,0.5,0,27,27,56,1,,,,,,,,,,,,,,,,,,,,,,,,,,,,,,,,,,,,,,,,
,,,,,V1_005,18,Female,2024-04-29_14h39.02.055,jersey_experiment_5_v1,2023.2.2,Win32,84.74576271,,,,,,,,,,,,,,,,423.6325,425.4326,425.4326,427.0443,return,0.8953,,70.3125,,,,,,FBP-PT-19.png,0.4,1.2,13,1,0,28,28,12,1,,,,,,,,,,,,,,,,,,,,,,,,,,,,,,,,,,,,,,,,
,,,,,V1_005,18,Female,2024-04-29_14h39.02.055,jersey_experiment_5_v1,2023.2.2,Win32,84.74576271,,,,,,,,,,,,,,,,427.0445,428.3385,428.3386,430.4796,return,1.1461,,68.61979167,,,,,,FBP-YG-91.png,0.37,1.2,27,0.5,0,29,29,26,1,,,,,,,,,,,,,,,,,,,,,,,,,,,,,,,,,,,,,,,,
,,,,,V1_005,18,Female,2024-04-29_14h39.02.055,jersey_experiment_5_v1,2023.2.2,Win32,84.74576271,,,,,,,,,,,,,,,,430.4799,432.2799,432.2799,436.6798,return,3.0729,,93.22916667,,,,,,FBP-PT-19.png,0.45,1.2,15,1,0,30,30,14,1,,,,,,,,,,,,,,,,,,,,,,,,,,,,,,,,,,,,,,,,
,,,,,V1_005,18,Female,2024-04-29_14h39.02.055,jersey_experiment_5_v1,2023.2.2,Win32,84.74576271,,,,,,,,,,,,,,,,436.6802,437.9742,437.9742,439.3153,return,0.6493,,93.22916667,,,,,,FBP-RB-17.png,0.43,1.2,49,0.5,0,31,31,48,1,,,,,,,,,,,,,,,,,,,,,,,,,,,,,,,,,,,,,,,,
,,,,,V1_005,18,Female,2024-04-29_14h39.02.055,jersey_experiment_5_v1,2023.2.2,Win32,84.74576271,,,,,,,,,,,,,,,,439.3155,440.6097,440.6097,443.4567,return,0.4875,,46.09375,,,,,,FBP-RB-18.png,0.37,1.2,52,0.5,0,32,32,51,1,,,,,,,,,,,,,,,,,,,,,,,,,,,,,,,,,,,,,,,,
,,,,,V1_005,18,Female,2024-04-29_14h39.02.055,jersey_experiment_5_v1,2023.2.2,Win32,84.74576271,,,,,,,,,,,,,,,,443.4569,444.7508,444.7508,449.2333,return,1.2512,,73.95833333,,,,,,FBP-RB-18.png,0.43,1.2,54,0.5,0,33,33,53,1,,,,,,,,,,,,,,,,,,,,,,,,,,,,,,,,,,,,,,,,
,,,,,V1_005,18,Female,2024-04-29_14h39.02.055,jersey_experiment_5_v1,2023.2.2,Win32,84.74576271,,,,,,,,,,,,,,,,449.2336,451.0335,451.0335,453.316,return,0.5183,,68.22916667,,,,,,FBP-PT-17.png,0.4,1.2,3,1,0,34,34,2,1,,,,,,,,,,,,,,,,,,,,,,,,,,,,,,,,,,,,,,,,
,,,,,V1_005,18,Female,2024-04-29_14h39.02.055,jersey_experiment_5_v1,2023.2.2,Win32,84.74576271,,,,,,,,,,,,,,,,453.3162,454.61,454.61,456.6688,return,0.6204,,50.52083333,,,,,,FBP-OG-91.png,0.37,1.2,42,0.5,0,35,35,41,1,,,,,,,,,,,,,,,,,,,,,,,,,,,,,,,,,,,,,,,,
,,,,,V1_005,18,Female,2024-04-29_14h39.02.055,jersey_experiment_5_v1,2023.2.2,Win32,84.74576271,,,,,,,,,,,,,,,,456.6691,458.469,458.4691,460.6103,return,1.1687,,35.02604167,,,,,,FBP-PT-19.png,0.35,1.2,11,1,0,36,36,10,1,,,,,,,,,,,,,,,,,,,,,,,,,,,,,,,,,,,,,,,,
,,,,,V1_005,18,Female,2024-04-29_14h39.02.055,jersey_experiment_5_v1,2023.2.2,Win32,84.74576271,,,,,,,,,,,,,,,,460.6105,461.9044,461.9044,466.881,return,3.3793,,69.53125,,,,,,FBP-RB-17.png,0.4,1.2,48,0.5,0,37,37,47,1,,,,,,,,,,,,,,,,,,,,,,,,,,,,,,,,,,,,,,,,
,,,,,V1_005,18,Female,2024-04-29_14h39.02.055,jersey_experiment_5_v1,2023.2.2,Win32,84.74576271,,,,,,,,,,,,,,,,466.8812,468.1753,468.1753,471.1874,return,0.7896,,50.390625,,,,,,FBP-OG-71.png,0.43,1.2,34,0.5,0,38,38,33,1,,,,,,,,,,,,,,,,,,,,,,,,,,,,,,,,,,,,,,,,
,,,,,V1_005,18,Female,2024-04-29_14h39.02.055,jersey_experiment_5_v1,2023.2.2,Win32,84.74576271,,,,,,,,,,,,,,,,471.1876,472.4812,472.4813,475.5755,return,1.3414,,57.16145833,,,,,,FBP-OG-81.png,0.4,1.2,38,0.5,0,39,39,37,1,,,,,,,,,,,,,,,,,,,,,,,,,,,,,,,,,,,,,,,,
,,,,,V1_005,18,Female,2024-04-29_14h39.02.055,jersey_experiment_5_v1,2023.2.2,Win32,84.74576271,,,,,,,,,,,,,,,,475.5756,476.8698,476.8698,479.0462,return,0.6354,,38.54166667,,,,,,FBP-YG-81.png,0.35,1.2,21,0.5,0,40,40,20,1,,,,,,,,,,,,,,,,,,,,,,,,,,,,,,,,,,,,,,,,
,,,,,V1_005,18,Female,2024-04-29_14h39.02.055,jersey_experiment_5_v1,2023.2.2,Win32,84.74576271,,,,,,,,,,,,,,,,479.0464,480.3404,480.3404,483.1055,return,0.5915,,70.83333333,,,,,,FBP-YG-81.png,0.43,1.2,24,0.5,0,41,41,23,1,,,,,,,,,,,,,,,,,,,,,,,,,,,,,,,,,,,,,,,,
,,,,,V1_005,18,Female,2024-04-29_14h39.02.055,jersey_experiment_5_v1,2023.2.2,Win32,84.74576271,,,,,,,,,,,,,,,,483.1058,484.3993,484.3993,487.5056,return,0.6745,,76.5625,,,,,,FBP-OG-91.png,0.45,1.2,45,0.5,0,42,42,44,1,,,,,,,,,,,,,,,,,,,,,,,,,,,,,,,,,,,,,,,,
,,,,,V1_005,18,Female,2024-04-29_14h39.02.055,jersey_experiment_5_v1,2023.2.2,Win32,84.74576271,,,,,,,,,,,,,,,,487.5058,488.7995,488.7996,491.1525,return,0.8406,,75.52083333,,,,,,FBP-YG-81.png,0.45,1.2,25,0.5,0,43,43,24,1,,,,,,,,,,,,,,,,,,,,,,,,,,,,,,,,,,,,,,,,
,,,,,V1_005,18,Female,2024-04-29_14h39.02.055,jersey_experiment_5_v1,2023.2.2,Win32,84.74576271,,,,,,,,,,,,,,,,491.1527,492.4467,492.4467,499.6472,return,0.8184,,75.52083333,,,,,,FBP-YG-71.png,0.43,1.2,19,0.5,0,44,44,18,1,,,,,,,,,,,,,,,,,,,,,,,,,,,,,,,,,,,,,,,,
,,,,,V1_005,18,Female,2024-04-29_14h39.02.055,jersey_experiment_5_v1,2023.2.2,Win32,84.74576271,,,,,,,,,,,,,,,,499.6474,500.9412,500.9412,506.3415,return,1.5871,,48.95833333,,,,,,FBP-OG-91.png,0.4,1.2,43,0.5,0,45,45,42,1,,,,,,,,,,,,,,,,,,,,,,,,,,,,,,,,,,,,,,,,
,,,,,V1_005,18,Female,2024-04-29_14h39.02.055,jersey_experiment_5_v1,2023.2.2,Win32,84.74576271,,,,,,,,,,,,,,,,506.3417,507.6354,507.6354,510.5769,return,0.6265,,54.03645833,,,,,,FBP-OG-71.png,0.37,1.2,32,0.5,0,46,46,31,1,,,,,,,,,,,,,,,,,,,,,,,,,,,,,,,,,,,,,,,,
,,,,,V1_005,18,Female,2024-04-29_14h39.02.055,jersey_experiment_5_v1,2023.2.2,Win32,84.74576271,,,,,,,,,,,,,,,,510.5772,511.871,511.871,514.0711,return,0.6112,,75.26041667,,,,,,FBP-OG-91.png,0.43,1.2,44,0.5,0,47,47,43,1,,,,,,,,,,,,,,,,,,,,,,,,,,,,,,,,,,,,,,,,
,,,,,V1_005,18,Female,2024-04-29_14h39.02.055,jersey_experiment_5_v1,2023.2.2,Win32,84.74576271,,,,,,,,,,,,,,,,514.0713,515.8711,515.8712,517.5183,return,1.006,,80.20833333,,,,,,FBP-PT-18.png,0.43,1.2,9,1,0,48,48,8,1,,,,,,,,,,,,,,,,,,,,,,,,,,,,,,,,,,,,,,,,
,,,,,V1_005,18,Female,2024-04-29_14h39.02.055,jersey_experiment_5_v1,2023.2.2,Win32,84.74576271,,,,,,,,,,,,,,,,517.5186,518.8126,518.8126,520.2479,return,0.575,,84.89583333,,,,,,FBP-YG-71.png,0.45,1.2,20,0.5,0,49,49,19,1,,,,,,,,,,,,,,,,,,,,,,,,,,,,,,,,,,,,,,,,
,,,,,V1_005,18,Female,2024-04-29_14h39.02.055,jersey_experiment_5_v1,2023.2.2,Win32,84.74576271,,,,,,,,,,,,,,,,520.2481,522.0481,522.0482,523.2715,return,0.5419,,83.72395833,,,,,,FBP-PT-18.png,0.45,1.2,10,1,0,50,50,9,1,,,,,,,,,,,,,,,,,,,,,,,,,,,,,,,,,,,,,,,,
,,,,,V1_005,18,Female,2024-04-29_14h39.02.055,jersey_experiment_5_v1,2023.2.2,Win32,84.74576271,,,,,,,,,,,,,,,,523.2716,524.5656,524.5657,526.2598,return,0.5555,,86.328125,,,,,,FBP-OG-71.png,0.45,1.2,35,0.5,0,51,51,34,1,,,,,,,,,,,,,,,,,,,,,,,,,,,,,,,,,,,,,,,,
,,,,,V1_005,18,Female,2024-04-29_14h39.02.055,jersey_experiment_5_v1,2023.2.2,Win32,84.74576271,,,,,,,,,,,,,,,,526.2601,527.554,527.554,531.2953,return,1.6889,,57.29166667,,,,,,FBP-YG-81.png,0.37,1.2,22,0.5,0,52,52,21,1,,,,,,,,,,,,,,,,,,,,,,,,,,,,,,,,,,,,,,,,
,,,,,V1_005,18,Female,2024-04-29_14h39.02.055,jersey_experiment_5_v1,2023.2.2,Win32,84.74576271,,,,,,,,,,,,,,,,531.2955,533.0954,533.0954,534.166,return,0.5651,,57.421875,,,,,,FBP-PT-18.png,0.4,1.2,8,1,0,53,53,7,1,,,,,,,,,,,,,,,,,,,,,,,,,,,,,,,,,,,,,,,,
,,,,,V1_005,18,Female,2024-04-29_14h39.02.055,jersey_experiment_5_v1,2023.2.2,Win32,84.74576271,,,,,,,,,,,,,,,,534.1663,535.4603,535.4603,536.9308,return,0.7091,,51.171875,,,,,,FBP-RB-17.png,0.37,1.2,47,0.5,0,54,54,46,1,,,,,,,,,,,,,,,,,,,,,,,,,,,,,,,,,,,,,,,,
,,,,,V1_005,18,Female,2024-04-29_14h39.02.055,jersey_experiment_5_v1,2023.2.2,Win32,84.74576271,,,,,,,,,,,,,,,,536.931,538.2252,538.2253,539.7309,return,0.6383,,76.82291667,,,,,,FBP-RB-17.png,0.45,1.2,50,0.5,0,55,55,49,1,,,,,,,,,,,,,,,,,,,,,,,,,,,,,,,,,,,,,,,,
,,,,,V1_005,18,Female,2024-04-29_14h39.02.055,jersey_experiment_5_v1,2023.2.2,Win32,84.74576271,,,,,,,,,,,,,,,,539.7311,541.0253,541.0253,543.99,return,1.5059,,51.43229167,,,,,,FBP-OG-81.png,0.35,1.2,36,0.5,0,56,56,35,1,,,,,,,,,,,,,,,,,,,,,,,,,,,,,,,,,,,,,,,,
,,,,,V1_005,18,Female,2024-04-29_14h39.02.055,jersey_experiment_5_v1,2023.2.2,Win32,84.74576271,,,,,,,,,,,,,,,,543.9902,545.7901,545.7902,546.8959,return,0.5822,,60.80729167,,,,,,FBP-PT-17.png,0.43,1.2,4,1,0,57,57,3,1,,,,,,,,,,,,,,,,,,,,,,,,,,,,,,,,,,,,,,,,
,,,,,V1_005,18,Female,2024-04-29_14h39.02.055,jersey_experiment_5_v1,2023.2.2,Win32,84.74576271,,,,,,,,,,,,,,,,546.896,548.1903,548.1903,550.8372,return,1.8592,,55.46875,,,,,,FBP-OG-71.png,0.4,1.2,33,0.5,0,58,58,32,1,,,,,,,,,,,,,,,,,,,,,,,,,,,,,,,,,,,,,,,,
,,,,,V1_005,18,Female,2024-04-29_14h39.02.055,jersey_experiment_5_v1,2023.2.2,Win32,84.74576271,,,,,,,,,,,,,,,,550.8373,552.1314,552.1315,556.6373,return,3.6193,,61.97916667,,,,,,FBP-YG-71.png,0.4,1.2,18,0.5,0,59,59,17,1,,,,,,,,,,,,,,,,,,,,,,,,,,,,,,,,,,,,,,,,
,,,,,V1_005,18,Female,2024-04-29_14h39.02.055,jersey_experiment_5_v1,2023.2.2,Win32,84.74576271,,,,,,,,,,,,,,,,,,,,,,,,,,,,,,,,,,,,,,,556.6378,676.6422,,,,,,,,,,,,,,,,,,,,,,,,,,,,,,,,,,,,,,
,,,,,V1_005,18,Female,2024-04-29_14h39.02.055,jersey_experiment_5_v1,2023.2.2,Win32,84.74576271,,,,,,,,,,,,,,,,,,,,,,,,,,,,,,,,,,,,,,,,,676.6423,710.9848,return,34.3304,,,,,,,,,,,,,,,,,,,,,,,,,,,,,,,,,,
,,,,,V1_005,18,Female,2024-04-29_14h39.02.055,jersey_experiment_5_v1,2023.2.2,Win32,84.74576271,,,,,,,,,,,,,,,,710.9915,712.7844,712.7845,715.8081,return,0.7349,,77.21354167,,,,,,FBP-OG-19.png,0.4,1.2,43,1,,,,,,,,,,,,,0,0,0,42,1,,,,,,,,,,,,,,,,,,,,,,,,,,,,
,,,,,V1_005,18,Female,2024-04-29_14h39.02.055,jersey_experiment_5_v1,2023.2.2,Win32,84.74576271,,,,,,,,,,,,,,,,715.8085,717.6084,717.6084,719.0905,return,0.7069,,69.53125,,,,,,FBP-OG-18.png,0.37,1.2,37,1,,,,,,,,,,,,,0,1,1,36,1,,,,,,,,,,,,,,,,,,,,,,,,,,,,
,,,,,V1_005,18,Female,2024-04-29_14h39.02.055,jersey_experiment_5_v1,2023.2.2,Win32,84.74576271,,,,,,,,,,,,,,,,719.0908,720.8906,720.8906,722.6555,return,0.817,,83.85416667,,,,,,FBP-OG-19.png,0.45,1.2,45,1,,,,,,,,,,,,,0,2,2,44,1,,,,,,,,,,,,,,,,,,,,,,,,,,,,
,,,,,V1_005,18,Female,2024-04-29_14h39.02.055,jersey_experiment_5_v1,2023.2.2,Win32,84.74576271,,,,,,,,,,,,,,,,722.6557,723.9497,723.9497,726.6909,return,0.9789,,55.72916667,,,,,,FBP-PT-91.png,0.35,1.2,11,0.5,,,,,,,,,,,,,0,3,3,10,1,,,,,,,,,,,,,,,,,,,,,,,,,,,,
,,,,,V1_005,18,Female,2024-04-29_14h39.02.055,jersey_experiment_5_v1,2023.2.2,Win32,84.74576271,,,,,,,,,,,,,,,,726.6911,728.4909,728.4909,729.5733,return,0.5052,,69.01041667,,,,,,FBP-YG-18.png,0.4,1.2,23,1,,,,,,,,,,,,,0,4,4,22,1,,,,,,,,,,,,,,,,,,,,,,,,,,,,
,,,,,V1_005,18,Female,2024-04-29_14h39.02.055,jersey_experiment_5_v1,2023.2.2,Win32,84.74576271,,,,,,,,,,,,,,,,729.5735,731.3735,731.3736,732.7383,return,0.4953,,94.27083333,,,,,,FBP-RB-81.png,0.45,1.2,55,1,,,,,,,,,,,,,0,5,5,54,1,,,,,,,,,,,,,,,,,,,,,,,,,,,,
,,,,,V1_005,18,Female,2024-04-29_14h39.02.055,jersey_experiment_5_v1,2023.2.2,Win32,84.74576271,,,,,,,,,,,,,,,,732.7385,734.0324,734.0324,737.1265,return,1.7413,,88.15104167,,,,,,FBP-PT-81.png,0.43,1.2,9,0.5,,,,,,,,,,,,,0,6,6,8,1,,,,,,,,,,,,,,,,,,,,,,,,,,,,
,,,,,V1_005,18,Female,2024-04-29_14h39.02.055,jersey_experiment_5_v1,2023.2.2,Win32,84.74576271,,,,,,,,,,,,,,,,737.1268,738.9267,738.9267,741.0092,return,0.5694,,54.81770833,,,,,,FBP-OG-19.png,0.37,1.2,42,1,,,,,,,,,,,,,0,7,7,41,1,,,,,,,,,,,,,,,,,,,,,,,,,,,,
,,,,,V1_005,18,Female,2024-04-29_14h39.02.055,jersey_experiment_5_v1,2023.2.2,Win32,84.74576271,,,,,,,,,,,,,,,,741.0094,742.8091,742.8091,744.115,return,0.5546,,45.3125,,,,,,FBP-YG-18.png,0.35,1.2,21,1,,,,,,,,,,,,,0,8,8,20,1,,,,,,,,,,,,,,,,,,,,,,,,,,,,
,,,,,V1_005,18,Female,2024-04-29_14h39.02.055,jersey_experiment_5_v1,2023.2.2,Win32,84.74576271,,,,,,,,,,,,,,,,744.1152,745.9154,745.9154,747.5858,return,0.5673,,77.99479167,,,,,,FBP-YG-19.png,0.45,1.2,30,1,,,,,,,,,,,,,0,9,9,29,1,,,,,,,,,,,,,,,,,,,,,,,,,,,,
,,,,,V1_005,18,Female,2024-04-29_14h39.02.055,jersey_experiment_5_v1,2023.2.2,Win32,84.74576271,,,,,,,,,,,,,,,,747.5861,748.8801,748.8802,750.8565,return,0.7194,,82.16145833,,,,,,FBP-PT-81.png,0.45,1.2,10,0.5,,,,,,,,,,,,,0,10,10,9,1,,,,,,,,,,,,,,,,,,,,,,,,,,,,
,,,,,V1_005,18,Female,2024-04-29_14h39.02.055,jersey_experiment_5_v1,2023.2.2,Win32,84.74576271,,,,,,,,,,,,,,,,750.8567,752.6567,752.6567,754.7978,return,0.5589,,26.69270833,,,,,,FBP-OG-17.png,0.35,1.2,31,1,,,,,,,,,,,,,0,11,11,30,1,,,,,,,,,,,,,,,,,,,,,,,,,,,,
,,,,,V1_005,18,Female,2024-04-29_14h39.02.055,jersey_experiment_5_v1,2023.2.2,Win32,84.74576271,,,,,,,,,,,,,,,,754.798,756.598,756.5981,758.6451,return,0.6127,,75.13020833,,,,,,FBP-RB-81.png,0.4,1.2,53,1,,,,,,,,,,,,,0,12,12,52,1,,,,,,,,,,,,,,,,,,,,,,,,,,,,
,,,,,V1_005,18,Female,2024-04-29_14h39.02.055,jersey_experiment_5_v1,2023.2.2,Win32,84.74576271,,,,,,,,,,,,,,,,758.6453,759.9393,759.9393,761.1864,return,0.6038,,79.6875,,,,,,FBP-PT-91.png,0.43,1.2,14,0.5,,,,,,,,,,,,,0,13,13,13,1,,,,,,,,,,,,,,,,,,,,,,,,,,,,
,,,,,V1_005,18,Female,2024-04-29_14h39.02.055,jersey_experiment_5_v1,2023.2.2,Win32,84.74576271,,,,,,,,,,,,,,,,761.1866,762.9865,762.9865,763.9276,return,0.518,,64.453125,,,,,,FBP-YG-17.png,0.4,1.2,18,1,,,,,,,,,,,,,0,14,14,17,1,,,,,,,,,,,,,,,,,,,,,,,,,,,,
,,,,,V1_005,18,Female,2024-04-29_14h39.02.055,jersey_experiment_5_v1,2023.2.2,Win32,84.74576271,,,,,,,,,,,,,,,,763.9279,765.7279,765.728,766.9513,return,0.4837,,82.421875,,,,,,FBP-YG-18.png,0.43,1.2,24,1,,,,,,,,,,,,,0,15,15,23,1,,,,,,,,,,,,,,,,,,,,,,,,,,,,
,,,,,V1_005,18,Female,2024-04-29_14h39.02.055,jersey_experiment_5_v1,2023.2.2,Win32,84.74576271,,,,,,,,,,,,,,,,766.9515,768.7513,768.7513,771.7044,return,1.9429,,53.90625,,,,,,FBP-RB-71.png,0.37,1.2,47,1,,,,,,,,,,,,,0,16,16,46,1,,,,,,,,,,,,,,,,,,,,,,,,,,,,
,,,,,V1_005,18,Female,2024-04-29_14h39.02.055,jersey_experiment_5_v1,2023.2.2,Win32,84.74576271,,,,,,,,,,,,,,,,771.7046,773.5044,773.5045,774.5751,return,0.4993,,53.38541667,,,,,,FBP-RB-71.png,0.4,1.2,48,1,,,,,,,,,,,,,0,17,17,47,1,,,,,,,,,,,,,,,,,,,,,,,,,,,,
,,,,,V1_005,18,Female,2024-04-29_14h39.02.055,jersey_experiment_5_v1,2023.2.2,Win32,84.74576271,,,,,,,,,,,,,,,,774.5754,776.3752,776.3753,778.1164,return,1.1316,,76.43229167,,,,,,FBP-RB-81.png,0.43,1.2,54,1,,,,,,,,,,,,,0,18,18,53,1,,,,,,,,,,,,,,,,,,,,,,,,,,,,
,,,,,V1_005,18,Female,2024-04-29_14h39.02.055,jersey_experiment_5_v1,2023.2.2,Win32,84.74576271,,,,,,,,,,,,,,,,778.1165,779.9167,779.9167,781.6812,return,1.4848,,63.54166667,,,,,,FBP-YG-19.png,0.4,1.2,28,1,,,,,,,,,,,,,0,19,19,27,1,,,,,,,,,,,,,,,,,,,,,,,,,,,,
,,,,,V1_005,18,Female,2024-04-29_14h39.02.055,jersey_experiment_5_v1,2023.2.2,Win32,84.74576271,,,,,,,,,,,,,,,,781.6814,782.9754,782.9755,784.799,return,0.7942,,38.28125,,,,,,FBP-PT-81.png,0.37,1.2,7,0.5,,,,,,,,,,,,,0,20,20,6,1,,,,,,,,,,,,,,,,,,,,,,,,,,,,
,,,,,V1_005,18,Female,2024-04-29_14h39.02.055,jersey_experiment_5_v1,2023.2.2,Win32,84.74576271,,,,,,,,,,,,,,,,784.7992,786.599,786.599,787.5755,return,0.4711,,25,,,,,,FBP-RB-81.png,0.35,1.2,51,1,,,,,,,,,,,,,0,21,21,50,1,,,,,,,,,,,,,,,,,,,,,,,,,,,,
,,,,,V1_005,18,Female,2024-04-29_14h39.02.055,jersey_experiment_5_v1,2023.2.2,Win32,84.74576271,,,,,,,,,,,,,,,,787.5756,789.3758,789.3758,792.1287,return,2.1919,,55.46875,,,,,,FBP-OG-17.png,0.4,1.2,33,1,,,,,,,,,,,,,0,22,22,32,1,,,,,,,,,,,,,,,,,,,,,,,,,,,,
,,,,,V1_005,18,Female,2024-04-29_14h39.02.055,jersey_experiment_5_v1,2023.2.2,Win32,84.74576271,,,,,,,,,,,,,,,,792.1288,793.9287,793.9287,795.8229,return,0.7012,,76.43229167,,,,,,FBP-YG-18.png,0.45,1.2,25,1,,,,,,,,,,,,,0,23,23,24,1,,,,,,,,,,,,,,,,,,,,,,,,,,,,
,,,,,V1_005,18,Female,2024-04-29_14h39.02.055,jersey_experiment_5_v1,2023.2.2,Win32,84.74576271,,,,,,,,,,,,,,,,795.8231,797.6229,797.6229,799.4935,return,0.9886,,14.19270833,,,,,,FBP-OG-19.png,0.35,1.2,41,1,,,,,,,,,,,,,0,24,24,40,1,,,,,,,,,,,,,,,,,,,,,,,,,,,,
,,,,,V1_005,18,Female,2024-04-29_14h39.02.055,jersey_experiment_5_v1,2023.2.2,Win32,84.74576271,,,,,,,,,,,,,,,,799.4938,800.7878,800.7878,802.5997,return,0.4942,,74.21875,,,,,,FBP-PT-91.png,0.45,1.2,15,0.5,,,,,,,,,,,,,0,25,25,14,1,,,,,,,,,,,,,,,,,,,,,,,,,,,,
,,,,,V1_005,18,Female,2024-04-29_14h39.02.055,jersey_experiment_5_v1,2023.2.2,Win32,84.74576271,,,,,,,,,,,,,,,,802.5999,804.3998,804.3998,805.5998,return,0.6514,,23.046875,,,,,,FBP-YG-17.png,0.35,1.2,16,1,,,,,,,,,,,,,0,26,26,15,1,,,,,,,,,,,,,,,,,,,,,,,,,,,,
,,,,,V1_005,18,Female,2024-04-29_14h39.02.055,jersey_experiment_5_v1,2023.2.2,Win32,84.74576271,,,,,,,,,,,,,,,,805.6,807.3998,807.3998,808.9174,return,0.5287,,17.83854167,,,,,,FBP-OG-18.png,0.35,1.2,36,1,,,,,,,,,,,,,0,27,27,35,1,,,,,,,,,,,,,,,,,,,,,,,,,,,,
,,,,,V1_005,18,Female,2024-04-29_14h39.02.055,jersey_experiment_5_v1,2023.2.2,Win32,84.74576271,,,,,,,,,,,,,,,,808.9176,810.2116,810.2117,812.2117,return,0.5433,,75.26041667,,,,,,FBP-PT-71.png,0.43,1.2,4,0.5,,,,,,,,,,,,,0,28,28,3,1,,,,,,,,,,,,,,,,,,,,,,,,,,,,
,,,,,V1_005,18,Female,2024-04-29_14h39.02.055,jersey_experiment_5_v1,2023.2.2,Win32,84.74576271,,,,,,,,,,,,,,,,812.212,814.012,814.012,815.4237,return,0.7943,,31.11979167,,,,,,FBP-RB-91.png,0.35,1.2,56,1,,,,,,,,,,,,,0,29,29,55,1,,,,,,,,,,,,,,,,,,,,,,,,,,,,
,,,,,V1_005,18,Female,2024-04-29_14h39.02.055,jersey_experiment_5_v1,2023.2.2,Win32,84.74576271,,,,,,,,,,,,,,,,815.4239,817.2239,817.2239,819.5532,return,1.5206,,74.86979167,,,,,,FBP-OG-19.png,0.43,1.2,44,1,,,,,,,,,,,,,0,30,30,43,1,,,,,,,,,,,,,,,,,,,,,,,,,,,,
,,,,,V1_005,18,Female,2024-04-29_14h39.02.055,jersey_experiment_5_v1,2023.2.2,Win32,84.74576271,,,,,,,,,,,,,,,,819.5534,820.8475,820.8475,822.2004,return,0.5313,,31.90104167,,,,,,FBP-PT-71.png,0.37,1.2,2,0.5,,,,,,,,,,,,,0,31,31,1,1,,,,,,,,,,,,,,,,,,,,,,,,,,,,
,,,,,V1_005,18,Female,2024-04-29_14h39.02.055,jersey_experiment_5_v1,2023.2.2,Win32,84.74576271,,,,,,,,,,,,,,,,822.2007,824.0011,824.0012,826.8006,return,0.5229,,81.640625,,,,,,FBP-RB-71.png,0.43,1.2,49,1,,,,,,,,,,,,,0,32,32,48,1,,,,,,,,,,,,,,,,,,,,,,,,,,,,
,,,,,V1_005,18,Female,2024-04-29_14h39.02.055,jersey_experiment_5_v1,2023.2.2,Win32,84.74576271,,,,,,,,,,,,,,,,826.8007,828.6006,828.6006,830.4714,return,0.8572,,81.25,,,,,,FBP-YG-17.png,0.43,1.2,19,1,,,,,,,,,,,,,0,33,33,18,1,,,,,,,,,,,,,,,,,,,,,,,,,,,,
,,,,,V1_005,18,Female,2024-04-29_14h39.02.055,jersey_experiment_5_v1,2023.2.2,Win32,84.74576271,,,,,,,,,,,,,,,,830.4716,832.2716,832.2717,833.6243,return,0.6121,,57.55208333,,,,,,FBP-OG-18.png,0.4,1.2,38,1,,,,,,,,,,,,,0,34,34,37,1,,,,,,,,,,,,,,,,,,,,,,,,,,,,
,,,,,V1_005,18,Female,2024-04-29_14h39.02.055,jersey_experiment_5_v1,2023.2.2,Win32,84.74576271,,,,,,,,,,,,,,,,833.6245,834.9184,834.9184,837.2009,return,1.2992,,59.11458333,,,,,,FBP-PT-91.png,0.4,1.2,13,0.5,,,,,,,,,,,,,0,35,35,12,1,,,,,,,,,,,,,,,,,,,,,,,,,,,,
,,,,,V1_005,18,Female,2024-04-29_14h39.02.055,jersey_experiment_5_v1,2023.2.2,Win32,84.74576271,,,,,,,,,,,,,,,,837.2011,839.001,839.001,840.2482,return,0.508,,75,,,,,,FBP-OG-18.png,0.45,1.2,40,1,,,,,,,,,,,,,0,36,36,39,1,,,,,,,,,,,,,,,,,,,,,,,,,,,,
,,,,,V1_005,18,Female,2024-04-29_14h39.02.055,jersey_experiment_5_v1,2023.2.2,Win32,84.74576271,,,,,,,,,,,,,,,,840.2483,841.5425,841.5425,842.9658,return,0.5272,,30.078125,,,,,,FBP-PT-91.png,0.37,1.2,12,0.5,,,,,,,,,,,,,0,37,37,11,1,,,,,,,,,,,,,,,,,,,,,,,,,,,,
,,,,,V1_005,18,Female,2024-04-29_14h39.02.055,jersey_experiment_5_v1,2023.2.2,Win32,84.74576271,,,,,,,,,,,,,,,,842.966,844.766,844.766,846.0954,return,0.5474,,76.171875,,,,,,FBP-RB-71.png,0.45,1.2,50,1,,,,,,,,,,,,,0,38,38,49,1,,,,,,,,,,,,,,,,,,,,,,,,,,,,
,,,,,V1_005,18,Female,2024-04-29_14h39.02.055,jersey_experiment_5_v1,2023.2.2,Win32,84.74576271,,,,,,,,,,,,,,,,846.0955,847.8955,847.8955,848.9425,return,0.6425,,65.75520833,,,,,,FBP-OG-17.png,0.43,1.2,34,1,,,,,,,,,,,,,0,39,39,33,1,,,,,,,,,,,,,,,,,,,,,,,,,,,,
,,,,,V1_005,18,Female,2024-04-29_14h39.02.055,jersey_experiment_5_v1,2023.2.2,Win32,84.74576271,,,,,,,,,,,,,,,,848.9426,850.7425,850.7426,852.8721,return,0.682,,55.33854167,,,,,,FBP-YG-18.png,0.37,1.2,22,1,,,,,,,,,,,,,0,40,40,21,1,,,,,,,,,,,,,,,,,,,,,,,,,,,,
,,,,,V1_005,18,Female,2024-04-29_14h39.02.055,jersey_experiment_5_v1,2023.2.2,Win32,84.74576271,,,,,,,,,,,,,,,,852.8723,854.6723,854.6723,856.3075,return,0.52,,81.38020833,,,,,,FBP-RB-91.png,0.45,1.2,60,1,,,,,,,,,,,,,0,41,41,59,1,,,,,,,,,,,,,,,,,,,,,,,,,,,,
,,,,,V1_005,18,Female,2024-04-29_14h39.02.055,jersey_experiment_5_v1,2023.2.2,Win32,84.74576271,,,,,,,,,,,,,,,,856.3077,858.108,858.108,858.9782,return,0.4951,,82.29166667,,,,,,FBP-YG-19.png,0.43,1.2,29,1,,,,,,,,,,,,,0,42,42,28,1,,,,,,,,,,,,,,,,,,,,,,,,,,,,
,,,,,V1_005,18,Female,2024-04-29_14h39.02.055,jersey_experiment_5_v1,2023.2.2,Win32,84.74576271,,,,,,,,,,,,,,,,858.9785,860.7785,860.7785,865.0372,return,3.5615,,71.22395833,,,,,,FBP-RB-91.png,0.4,1.2,58,1,,,,,,,,,,,,,0,43,43,57,1,,,,,,,,,,,,,,,,,,,,,,,,,,,,
,,,,,V1_005,18,Female,2024-04-29_14h39.02.055,jersey_experiment_5_v1,2023.2.2,Win32,84.74576271,,,,,,,,,,,,,,,,865.0373,866.8375,866.8375,868.2963,return,0.4926,,79.03645833,,,,,,FBP-OG-17.png,0.45,1.2,35,1,,,,,,,,,,,,,0,44,44,34,1,,,,,,,,,,,,,,,,,,,,,,,,,,,,
,,,,,V1_005,18,Female,2024-04-29_14h39.02.055,jersey_experiment_5_v1,2023.2.2,Win32,84.74576271,,,,,,,,,,,,,,,,868.2967,870.0962,870.0962,872.214,return,1.0119,,84.11458333,,,,,,FBP-RB-91.png,0.43,1.2,59,1,,,,,,,,,,,,,0,45,45,58,1,,,,,,,,,,,,,,,,,,,,,,,,,,,,
,,,,,V1_005,18,Female,2024-04-29_14h39.02.055,jersey_experiment_5_v1,2023.2.2,Win32,84.74576271,,,,,,,,,,,,,,,,872.2142,874.0141,874.0141,876.0965,return,0.9229,,69.01041667,,,,,,FBP-YG-19.png,0.37,1.2,27,1,,,,,,,,,,,,,0,46,46,26,1,,,,,,,,,,,,,,,,,,,,,,,,,,,,
,,,,,V1_005,18,Female,2024-04-29_14h39.02.055,jersey_experiment_5_v1,2023.2.2,Win32,84.74576271,,,,,,,,,,,,,,,,876.0967,877.8966,877.8966,879.0613,return,0.5038,,55.59895833,,,,,,FBP-YG-19.png,0.35,1.2,26,1,,,,,,,,,,,,,0,47,47,25,1,,,,,,,,,,,,,,,,,,,,,,,,,,,,
,,,,,V1_005,18,Female,2024-04-29_14h39.02.055,jersey_experiment_5_v1,2023.2.2,Win32,84.74576271,,,,,,,,,,,,,,,,879.0614,880.3555,880.3555,882.391,return,0.5407,,69.53125,,,,,,FBP-PT-81.png,0.4,1.2,8,0.5,,,,,,,,,,,,,0,48,48,7,1,,,,,,,,,,,,,,,,,,,,,,,,,,,,
,,,,,V1_005,18,Female,2024-04-29_14h39.02.055,jersey_experiment_5_v1,2023.2.2,Win32,84.74576271,,,,,,,,,,,,,,,,882.3912,883.6851,883.6851,885.2851,return,0.5548,,79.55729167,,,,,,FBP-PT-71.png,0.45,1.2,5,0.5,,,,,,,,,,,,,0,49,49,4,1,,,,,,,,,,,,,,,,,,,,,,,,,,,,
,,,,,V1_005,18,Female,2024-04-29_14h39.02.055,jersey_experiment_5_v1,2023.2.2,Win32,84.74576271,,,,,,,,,,,,,,,,885.2854,887.0852,887.0852,888.8969,return,0.7449,,38.93229167,,,,,,FBP-RB-81.png,0.37,1.2,52,1,,,,,,,,,,,,,0,50,50,51,1,,,,,,,,,,,,,,,,,,,,,,,,,,,,
,,,,,V1_005,18,Female,2024-04-29_14h39.02.055,jersey_experiment_5_v1,2023.2.2,Win32,84.74576271,,,,,,,,,,,,,,,,888.8971,890.1912,890.1912,892.8384,return,0.4839,,27.47395833,,,,,,FBP-PT-81.png,0.35,1.2,6,0.5,,,,,,,,,,,,,0,51,51,5,1,,,,,,,,,,,,,,,,,,,,,,,,,,,,
,,,,,V1_005,18,Female,2024-04-29_14h39.02.055,jersey_experiment_5_v1,2023.2.2,Win32,84.74576271,,,,,,,,,,,,,,,,892.8386,894.6385,894.6385,896.1326,return,0.5782,,75.91145833,,,,,,FBP-OG-18.png,0.43,1.2,39,1,,,,,,,,,,,,,0,52,52,38,1,,,,,,,,,,,,,,,,,,,,,,,,,,,,
,,,,,V1_005,18,Female,2024-04-29_14h39.02.055,jersey_experiment_5_v1,2023.2.2,Win32,84.74576271,,,,,,,,,,,,,,,,896.1329,897.9325,897.9325,899.0738,return,0.5912,,78.25520833,,,,,,FBP-YG-17.png,0.45,1.2,20,1,,,,,,,,,,,,,0,53,53,19,1,,,,,,,,,,,,,,,,,,,,,,,,,,,,
,,,,,V1_005,18,Female,2024-04-29_14h39.02.055,jersey_experiment_5_v1,2023.2.2,Win32,84.74576271,,,,,,,,,,,,,,,,899.0739,900.874,900.874,902.0151,return,0.5362,,23.69791667,,,,,,FBP-OG-17.png,0.37,1.2,32,1,,,,,,,,,,,,,0,54,54,31,1,,,,,,,,,,,,,,,,,,,,,,,,,,,,
,,,,,V1_005,18,Female,2024-04-29_14h39.02.055,jersey_experiment_5_v1,2023.2.2,Win32,84.74576271,,,,,,,,,,,,,,,,902.0154,903.3093,903.3093,904.4859,return,0.5556,,25.65104167,,,,,,FBP-PT-71.png,0.4,1.2,3,0.5,,,,,,,,,,,,,0,55,55,2,1,,,,,,,,,,,,,,,,,,,,,,,,,,,,
,,,,,V1_005,18,Female,2024-04-29_14h39.02.055,jersey_experiment_5_v1,2023.2.2,Win32,84.74576271,,,,,,,,,,,,,,,,904.4861,906.2858,906.2858,907.5684,return,0.652,,16.14583333,,,,,,FBP-RB-71.png,0.35,1.2,46,1,,,,,,,,,,,,,0,56,56,45,1,,,,,,,,,,,,,,,,,,,,,,,,,,,,
,,,,,V1_005,18,Female,2024-04-29_14h39.02.055,jersey_experiment_5_v1,2023.2.2,Win32,84.74576271,,,,,,,,,,,,,,,,907.5686,909.3683,909.3683,912.0979,return,1.7218,,20.3125,,,,,,FBP-RB-91.png,0.37,1.2,57,1,,,,,,,,,,,,,0,57,57,56,1,,,,,,,,,,,,,,,,,,,,,,,,,,,,
,,,,,V1_005,18,Female,2024-04-29_14h39.02.055,jersey_experiment_5_v1,2023.2.2,Win32,84.74576271,,,,,,,,,,,,,,,,912.0981,913.3921,913.3922,914.8626,return,0.7484,,5.46875,,,,,,FBP-PT-71.png,0.35,1.2,1,0.5,,,,,,,,,,,,,0,58,58,0,1,,,,,,,,,,,,,,,,,,,,,,,,,,,,
,,,,,V1_005,18,Female,2024-04-29_14h39.02.055,jersey_experiment_5_v1,2023.2.2,Win32,84.74576271,,,,,,,,,,,,,,,,914.8627,916.6627,916.6627,918.0628,return,0.9239,,7.421875,,,,,,FBP-YG-17.png,0.37,1.2,17,1,,,,,,,,,,,,,0,59,59,16,1,,,,,,,,,,,,,,,,,,,,,,,,,,,,
,,,,,V1_005,18,Female,2024-04-29_14h39.02.055,jersey_experiment_5_v1,2023.2.2,Win32,84.74576271,,,,,,,,,,,,,,,,918.0648,919.8628,919.8629,923.5099,return,2.6821,,24.73958333,,,,,,FBP-OG-71.png,0.4,1.2,33,1,,,,,,,,,,,,,,,,,,0,0,0,32,1,,,,,,,,,,,,,,,,,,,,,,,
,,,,,V1_005,18,Female,2024-04-29_14h39.02.055,jersey_experiment_5_v1,2023.2.2,Win32,84.74576271,,,,,,,,,,,,,,,,923.5104,925.3105,925.3105,926.7689,return,0.4968,,73.828125,,,,,,FBP-YG-71.png,0.45,1.2,20,1,,,,,,,,,,,,,,,,,,0,1,1,19,1,,,,,,,,,,,,,,,,,,,,,,,
,,,,,V1_005,18,Female,2024-04-29_14h39.02.055,jersey_experiment_5_v1,2023.2.2,Win32,84.74576271,,,,,,,,,,,,,,,,926.7691,928.5691,928.5692,930.0399,return,0.5305,,55.59895833,,,,,,FBP-YG-81.png,0.37,1.2,22,1,,,,,,,,,,,,,,,,,,0,2,2,21,1,,,,,,,,,,,,,,,,,,,,,,,
,,,,,V1_005,18,Female,2024-04-29_14h39.02.055,jersey_experiment_5_v1,2023.2.2,Win32,84.74576271,,,,,,,,,,,,,,,,930.0401,931.8397,931.8397,933.5222,return,0.8732,,41.53645833,,,,,,FBP-YG-71.png,0.35,1.2,16,1,,,,,,,,,,,,,,,,,,0,3,3,15,1,,,,,,,,,,,,,,,,,,,,,,,
,,,,,V1_005,18,Female,2024-04-29_14h39.02.055,jersey_experiment_5_v1,2023.2.2,Win32,84.74576271,,,,,,,,,,,,,,,,933.5224,934.8164,934.8164,936.3224,return,0.6502,,26.69270833,,,,,,FBP-PT-18.png,0.35,1.2,6,0.5,,,,,,,,,,,,,,,,,,0,4,4,5,1,,,,,,,,,,,,,,,,,,,,,,,
,,,,,V1_005,18,Female,2024-04-29_14h39.02.055,jersey_experiment_5_v1,2023.2.2,Win32,84.74576271,,,,,,,,,,,,,,,,936.3226,938.1225,938.1225,939.6165,return,0.5823,,35.15625,,,,,,FBP-YG-91.png,0.37,1.2,27,1,,,,,,,,,,,,,,,,,,0,5,5,26,1,,,,,,,,,,,,,,,,,,,,,,,
,,,,,V1_005,18,Female,2024-04-29_14h39.02.055,jersey_experiment_5_v1,2023.2.2,Win32,84.74576271,,,,,,,,,,,,,,,,939.6168,941.4167,941.4167,942.6285,return,0.554,,25,,,,,,FBP-RB-18.png,0.35,1.2,51,1,,,,,,,,,,,,,,,,,,0,6,6,50,1,,,,,,,,,,,,,,,,,,,,,,,
,,,,,V1_005,18,Female,2024-04-29_14h39.02.055,jersey_experiment_5_v1,2023.2.2,Win32,84.74576271,,,,,,,,,,,,,,,,942.6286,943.9229,943.9229,945.4872,return,0.5245,,80.078125,,,,,,FBP-PT-17.png,0.45,1.2,5,0.5,,,,,,,,,,,,,,,,,,0,7,7,4,1,,,,,,,,,,,,,,,,,,,,,,,
,,,,,V1_005,18,Female,2024-04-29_14h39.02.055,jersey_experiment_5_v1,2023.2.2,Win32,84.74576271,,,,,,,,,,,,,,,,945.4874,947.2877,947.2878,948.3581,return,0.6689,,89.32291667,,,,,,FBP-RB-18.png,0.43,1.2,54,1,,,,,,,,,,,,,,,,,,0,8,8,53,1,,,,,,,,,,,,,,,,,,,,,,,
,,,,,V1_005,18,Female,2024-04-29_14h39.02.055,jersey_experiment_5_v1,2023.2.2,Win32,84.74576271,,,,,,,,,,,,,,,,948.3582,950.1581,950.1581,951.3345,return,0.5184,,89.71354167,,,,,,FBP-OG-91.png,0.45,1.2,45,1,,,,,,,,,,,,,,,,,,0,9,9,44,1,,,,,,,,,,,,,,,,,,,,,,,
,,,,,V1_005,18,Female,2024-04-29_14h39.02.055,jersey_experiment_5_v1,2023.2.2,Win32,84.74576271,,,,,,,,,,,,,,,,951.3347,952.6289,952.6289,954.5466,return,1.274,,76.30208333,,,,,,FBP-PT-19.png,0.4,1.2,13,0.5,,,,,,,,,,,,,,,,,,0,10,10,12,1,,,,,,,,,,,,,,,,,,,,,,,
,,,,,V1_005,18,Female,2024-04-29_14h39.02.055,jersey_experiment_5_v1,2023.2.2,Win32,84.74576271,,,,,,,,,,,,,,,,954.5468,956.3466,956.3467,957.4407,return,0.4629,,84.11458333,,,,,,FBP-YG-71.png,0.43,1.2,19,1,,,,,,,,,,,,,,,,,,0,11,11,18,1,,,,,,,,,,,,,,,,,,,,,,,
,,,,,V1_005,18,Female,2024-04-29_14h39.02.055,jersey_experiment_5_v1,2023.2.2,Win32,84.74576271,,,,,,,,,,,,,,,,957.4409,959.2409,959.2409,960.3114,return,0.5277,,86.328125,,,,,,FBP-YG-71.png,0.4,1.2,18,1,,,,,,,,,,,,,,,,,,0,12,12,17,1,,,,,,,,,,,,,,,,,,,,,,,
,,,,,V1_005,18,Female,2024-04-29_14h39.02.055,jersey_experiment_5_v1,2023.2.2,Win32,84.74576271,,,,,,,,,,,,,,,,960.3116,962.1115,962.1115,964.1116,return,0.8884,,86.19791667,,,,,,FBP-OG-81.png,0.45,1.2,40,1,,,,,,,,,,,,,,,,,,0,13,13,39,1,,,,,,,,,,,,,,,,,,,,,,,
,,,,,V1_005,18,Female,2024-04-29_14h39.02.055,jersey_experiment_5_v1,2023.2.2,Win32,84.74576271,,,,,,,,,,,,,,,,964.1119,965.406,965.406,967.6648,return,1.2038,,23.828125,,,,,,FBP-PT-19.png,0.35,1.2,11,0.5,,,,,,,,,,,,,,,,,,0,14,14,10,1,,,,,,,,,,,,,,,,,,,,,,,
,,,,,V1_005,18,Female,2024-04-29_14h39.02.055,jersey_experiment_5_v1,2023.2.2,Win32,84.74576271,,,,,,,,,,,,,,,,967.665,969.4648,969.4648,970.6882,return,0.5331,,76.69270833,,,,,,FBP-RB-19.png,0.45,1.2,60,1,,,,,,,,,,,,,,,,,,0,15,15,59,1,,,,,,,,,,,,,,,,,,,,,,,
,,,,,V1_005,18,Female,2024-04-29_14h39.02.055,jersey_experiment_5_v1,2023.2.2,Win32,84.74576271,,,,,,,,,,,,,,,,970.6884,971.9826,971.9827,973.8061,return,0.6887,,61.328125,,,,,,FBP-PT-18.png,0.4,1.2,8,0.5,,,,,,,,,,,,,,,,,,0,16,16,7,1,,,,,,,,,,,,,,,,,,,,,,,
,,,,,V1_005,18,Female,2024-04-29_14h39.02.055,jersey_experiment_5_v1,2023.2.2,Win32,84.74576271,,,,,,,,,,,,,,,,973.8063,975.6062,975.6062,978.6299,return,2.3191,,69.01041667,,,,,,FBP-OG-91.png,0.4,1.2,43,1,,,,,,,,,,,,,,,,,,0,17,17,42,1,,,,,,,,,,,,,,,,,,,,,,,
,,,,,V1_005,18,Female,2024-04-29_14h39.02.055,jersey_experiment_5_v1,2023.2.2,Win32,84.74576271,,,,,,,,,,,,,,,,978.6301,980.4298,980.4298,982.0533,return,0.6921,,76.171875,,,,,,FBP-RB-19.png,0.4,1.2,58,1,,,,,,,,,,,,,,,,,,0,18,18,57,1,,,,,,,,,,,,,,,,,,,,,,,
,,,,,V1_005,18,Female,2024-04-29_14h39.02.055,jersey_experiment_5_v1,2023.2.2,Win32,84.74576271,,,,,,,,,,,,,,,,982.0535,983.8535,983.8535,989.1244,return,4.3195,,32.03125,,,,,,FBP-RB-17.png,0.35,1.2,46,1,,,,,,,,,,,,,,,,,,0,19,19,45,1,,,,,,,,,,,,,,,,,,,,,,,
,,,,,V1_005,18,Female,2024-04-29_14h39.02.055,jersey_experiment_5_v1,2023.2.2,Win32,84.74576271,,,,,,,,,,,,,,,,989.1245,990.9245,990.9246,992.0539,return,0.5281,,22.78645833,,,,,,FBP-YG-71.png,0.37,1.2,17,1,,,,,,,,,,,,,,,,,,0,20,20,16,1,,,,,,,,,,,,,,,,,,,,,,,
,,,,,V1_005,18,Female,2024-04-29_14h39.02.055,jersey_experiment_5_v1,2023.2.2,Win32,84.74576271,,,,,,,,,,,,,,,,992.054,993.8542,993.8542,995.6186,return,0.6032,,73.4375,,,,,,FBP-YG-81.png,0.43,1.2,24,1,,,,,,,,,,,,,,,,,,0,21,21,23,1,,,,,,,,,,,,,,,,,,,,,,,
,,,,,V1_005,18,Female,2024-04-29_14h39.02.055,jersey_experiment_5_v1,2023.2.2,Win32,84.74576271,,,,,,,,,,,,,,,,995.6188,997.4188,997.4188,998.5011,return,0.5525,,75,,,,,,FBP-RB-17.png,0.45,1.2,50,1,,,,,,,,,,,,,,,,,,0,22,22,49,1,,,,,,,,,,,,,,,,,,,,,,,
,,,,,V1_005,18,Female,2024-04-29_14h39.02.055,jersey_experiment_5_v1,2023.2.2,Win32,84.74576271,,,,,,,,,,,,,,,,998.5012,999.7954,999.7954,1001.7012,return,0.6701,,39.453125,,,,,,FBP-PT-17.png,0.35,1.2,1,0.5,,,,,,,,,,,,,,,,,,0,23,23,0,1,,,,,,,,,,,,,,,,,,,,,,,
,,,,,V1_005,18,Female,2024-04-29_14h39.02.055,jersey_experiment_5_v1,2023.2.2,Win32,84.74576271,,,,,,,,,,,,,,,,1001.7013,1003.5012,1003.5013,1004.5484,return,0.6227,,27.60416667,,,,,,FBP-OG-81.png,0.35,1.2,36,1,,,,,,,,,,,,,,,,,,0,24,24,35,1,,,,,,,,,,,,,,,,,,,,,,,
,,,,,V1_005,18,Female,2024-04-29_14h39.02.055,jersey_experiment_5_v1,2023.2.2,Win32,84.74576271,,,,,,,,,,,,,,,,1004.5486,1005.8427,1005.8427,1007.678,return,1.5378,,28.90625,,,,,,FBP-PT-18.png,0.37,1.2,7,0.5,,,,,,,,,,,,,,,,,,0,25,25,6,1,,,,,,,,,,,,,,,,,,,,,,,
,,,,,V1_005,18,Female,2024-04-29_14h39.02.055,jersey_experiment_5_v1,2023.2.2,Win32,84.74576271,,,,,,,,,,,,,,,,1007.678,1009.4782,1009.4782,1010.7722,return,0.8928,,35.67708333,,,,,,FBP-RB-18.png,0.4,1.2,53,1,,,,,,,,,,,,,,,,,,0,26,26,52,1,,,,,,,,,,,,,,,,,,,,,,,
,,,,,V1_005,18,Female,2024-04-29_14h39.02.055,jersey_experiment_5_v1,2023.2.2,Win32,84.74576271,,,,,,,,,,,,,,,,1010.7724,1012.5723,1012.5723,1013.6311,return,0.4543,,74.609375,,,,,,FBP-YG-81.png,0.45,1.2,25,1,,,,,,,,,,,,,,,,,,0,27,27,24,1,,,,,,,,,,,,,,,,,,,,,,,
,,,,,V1_005,18,Female,2024-04-29_14h39.02.055,jersey_experiment_5_v1,2023.2.2,Win32,84.74576271,,,,,,,,,,,,,,,,1013.6313,1015.4312,1015.4312,1016.69,return,0.602,,69.01041667,,,,,,FBP-RB-19.png,0.37,1.2,57,1,,,,,,,,,,,,,,,,,,0,28,28,56,1,,,,,,,,,,,,,,,,,,,,,,,
,,,,,V1_005,18,Female,2024-04-29_14h39.02.055,jersey_experiment_5_v1,2023.2.2,Win32,84.74576271,,,,,,,,,,,,,,,,1016.6902,1018.4902,1018.4902,1020.4077,return,1.1165,,78.25520833,,,,,,FBP-OG-71.png,0.45,1.2,35,1,,,,,,,,,,,,,,,,,,0,29,29,34,1,,,,,,,,,,,,,,,,,,,,,,,
,,,,,V1_005,18,Female,2024-04-29_14h39.02.055,jersey_experiment_5_v1,2023.2.2,Win32,84.74576271,,,,,,,,,,,,,,,,1020.4079,1022.2079,1022.208,1025.4079,return,0.7943,,73.95833333,,,,,,FBP-OG-81.png,0.4,1.2,38,1,,,,,,,,,,,,,,,,,,0,30,30,37,1,,,,,,,,,,,,,,,,,,,,,,,
,,,,,V1_005,18,Female,2024-04-29_14h39.02.055,jersey_experiment_5_v1,2023.2.2,Win32,84.74576271,,,,,,,,,,,,,,,,1025.4081,1026.7025,1026.7025,1027.9375,return,0.428,,40.88541667,,,,,,FBP-PT-17.png,0.4,1.2,3,0.5,,,,,,,,,,,,,,,,,,0,31,31,2,1,,,,,,,,,,,,,,,,,,,,,,,
,,,,,V1_005,18,Female,2024-04-29_14h39.02.055,jersey_experiment_5_v1,2023.2.2,Win32,84.74576271,,,,,,,,,,,,,,,,1027.9377,1029.7376,1029.7377,1034.1025,return,3.6107,,76.171875,,,,,,FBP-YG-81.png,0.4,1.2,23,1,,,,,,,,,,,,,,,,,,0,32,32,22,1,,,,,,,,,,,,,,,,,,,,,,,
,,,,,V1_005,18,Female,2024-04-29_14h39.02.055,jersey_experiment_5_v1,2023.2.2,Win32,84.74576271,,,,,,,,,,,,,,,,1034.1027,1035.3968,1035.3968,1036.6436,return,0.4833,,80.859375,,,,,,FBP-PT-17.png,0.43,1.2,4,0.5,,,,,,,,,,,,,,,,,,0,33,33,3,1,,,,,,,,,,,,,,,,,,,,,,,
,,,,,V1_005,18,Female,2024-04-29_14h39.02.055,jersey_experiment_5_v1,2023.2.2,Win32,84.74576271,,,,,,,,,,,,,,,,1036.6438,1038.444,1038.444,1040.079,return,1.0657,,39.0625,,,,,,FBP-OG-71.png,0.37,1.2,32,1,,,,,,,,,,,,,,,,,,0,34,34,31,1,,,,,,,,,,,,,,,,,,,,,,,
,,,,,V1_005,18,Female,2024-04-29_14h39.02.055,jersey_experiment_5_v1,2023.2.2,Win32,84.74576271,,,,,,,,,,,,,,,,1040.0793,1041.8792,1041.8792,1044.1498,return,1.8823,,25.26041667,,,,,,FBP-OG-91.png,0.35,1.2,41,1,,,,,,,,,,,,,,,,,,0,35,35,40,1,,,,,,,,,,,,,,,,,,,,,,,
,,,,,V1_005,18,Female,2024-04-29_14h39.02.055,jersey_experiment_5_v1,2023.2.2,Win32,84.74576271,,,,,,,,,,,,,,,,1044.15,1045.4439,1045.4439,1047.1265,return,0.6255,,22.91666667,,,,,,FBP-PT-17.png,0.37,1.2,2,0.5,,,,,,,,,,,,,,,,,,0,36,36,1,1,,,,,,,,,,,,,,,,,,,,,,,
,,,,,V1_005,18,Female,2024-04-29_14h39.02.055,jersey_experiment_5_v1,2023.2.2,Win32,84.74576271,,,,,,,,,,,,,,,,1047.1266,1048.9266,1048.9266,1051.1737,return,1.7178,,50.52083333,,,,,,FBP-YG-91.png,0.4,1.2,28,1,,,,,,,,,,,,,,,,,,0,37,37,27,1,,,,,,,,,,,,,,,,,,,,,,,
,,,,,V1_005,18,Female,2024-04-29_14h39.02.055,jersey_experiment_5_v1,2023.2.2,Win32,84.74576271,,,,,,,,,,,,,,,,1051.1739,1052.9739,1052.974,1054.5032,return,1.0116,,40.234375,,,,,,FBP-RB-18.png,0.37,1.2,52,1,,,,,,,,,,,,,,,,,,0,38,38,51,1,,,,,,,,,,,,,,,,,,,,,,,
,,,,,V1_005,18,Female,2024-04-29_14h39.02.055,jersey_experiment_5_v1,2023.2.2,Win32,84.74576271,,,,,,,,,,,,,,,,1054.5034,1055.7973,1055.7973,1057.7033,return,0.5177,,69.66145833,,,,,,FBP-PT-19.png,0.43,1.2,14,0.5,,,,,,,,,,,,,,,,,,0,39,39,13,1,,,,,,,,,,,,,,,,,,,,,,,
,,,,,V1_005,18,Female,2024-04-29_14h39.02.055,jersey_experiment_5_v1,2023.2.2,Win32,84.74576271,,,,,,,,,,,,,,,,1057.7035,1059.5034,1059.5034,1061.5742,return,1.5052,,93.61979167,,,,,,FBP-RB-18.png,0.45,1.2,55,1,,,,,,,,,,,,,,,,,,0,40,40,54,1,,,,,,,,,,,,,,,,,,,,,,,
,,,,,V1_005,18,Female,2024-04-29_14h39.02.055,jersey_experiment_5_v1,2023.2.2,Win32,84.74576271,,,,,,,,,,,,,,,,1061.5743,1063.3741,1063.3741,1064.4682,return,0.4839,,86.19791667,,,,,,FBP-OG-91.png,0.43,1.2,44,1,,,,,,,,,,,,,,,,,,0,41,41,43,1,,,,,,,,,,,,,,,,,,,,,,,
,,,,,V1_005,18,Female,2024-04-29_14h39.02.055,jersey_experiment_5_v1,2023.2.2,Win32,84.74576271,,,,,,,,,,,,,,,,1064.4685,1066.2684,1066.2685,1067.4097,return,0.5104,,75.390625,,,,,,FBP-OG-91.png,0.37,1.2,42,1,,,,,,,,,,,,,,,,,,0,42,42,41,1,,,,,,,,,,,,,,,,,,,,,,,
,,,,,V1_005,18,Female,2024-04-29_14h39.02.055,jersey_experiment_5_v1,2023.2.2,Win32,84.74576271,,,,,,,,,,,,,,,,1067.4099,1068.7038,1068.7038,1069.8098,return,0.5437,,76.43229167,,,,,,FBP-PT-18.png,0.43,1.2,9,0.5,,,,,,,,,,,,,,,,,,0,43,43,8,1,,,,,,,,,,,,,,,,,,,,,,,
,,,,,V1_005,18,Female,2024-04-29_14h39.02.055,jersey_experiment_5_v1,2023.2.2,Win32,84.74576271,,,,,,,,,,,,,,,,1069.8099,1071.1039,1071.1039,1072.6921,return,0.5902,,63.93229167,,,,,,FBP-PT-19.png,0.37,1.2,12,0.5,,,,,,,,,,,,,,,,,,0,44,44,11,1,,,,,,,,,,,,,,,,,,,,,,,
,,,,,V1_005,18,Female,2024-04-29_14h39.02.055,jersey_experiment_5_v1,2023.2.2,Win32,84.74576271,,,,,,,,,,,,,,,,1072.6922,1074.4922,1074.4922,1076.1159,return,0.9419,,51.5625,,,,,,FBP-YG-81.png,0.35,1.2,21,1,,,,,,,,,,,,,,,,,,0,45,45,20,1,,,,,,,,,,,,,,,,,,,,,,,
,,,,,V1_005,18,Female,2024-04-29_14h39.02.055,jersey_experiment_5_v1,2023.2.2,Win32,84.74576271,,,,,,,,,,,,,,,,1076.1161,1077.9162,1077.9162,1079.1041,return,0.5451,,78.90625,,,,,,FBP-YG-91.png,0.45,1.2,30,1,,,,,,,,,,,,,,,,,,0,46,46,29,1,,,,,,,,,,,,,,,,,,,,,,,
,,,,,V1_005,18,Female,2024-04-29_14h39.02.055,jersey_experiment_5_v1,2023.2.2,Win32,84.74576271,,,,,,,,,,,,,,,,1079.1044,1080.9044,1080.9044,1083.3162,return,1.6471,,71.484375,,,,,,FBP-OG-81.png,0.37,1.2,37,1,,,,,,,,,,,,,,,,,,0,47,47,36,1,,,,,,,,,,,,,,,,,,,,,,,
,,,,,V1_005,18,Female,2024-04-29_14h39.02.055,jersey_experiment_5_v1,2023.2.2,Win32,84.74576271,,,,,,,,,,,,,,,,1083.3164,1084.6105,1084.6105,1086.081,return,0.4522,,86.58854167,,,,,,FBP-PT-19.png,0.45,1.2,15,0.5,,,,,,,,,,,,,,,,,,0,48,48,14,1,,,,,,,,,,,,,,,,,,,,,,,
,,,,,V1_005,18,Female,2024-04-29_14h39.02.055,jersey_experiment_5_v1,2023.2.2,Win32,84.74576271,,,,,,,,,,,,,,,,1086.0812,1087.8811,1087.8811,1089.3046,return,1.0216,,77.99479167,,,,,,FBP-RB-17.png,0.4,1.2,48,1,,,,,,,,,,,,,,,,,,0,49,49,47,1,,,,,,,,,,,,,,,,,,,,,,,
,,,,,V1_005,18,Female,2024-04-29_14h39.02.055,jersey_experiment_5_v1,2023.2.2,Win32,84.74576271,,,,,,,,,,,,,,,,1089.3048,1091.1048,1091.1048,1092.4812,return,0.9225,,82.16145833,,,,,,FBP-RB-17.png,0.43,1.2,49,1,,,,,,,,,,,,,,,,,,0,50,50,48,1,,,,,,,,,,,,,,,,,,,,,,,
,,,,,V1_005,18,Female,2024-04-29_14h39.02.055,jersey_experiment_5_v1,2023.2.2,Win32,84.74576271,,,,,,,,,,,,,,,,1092.4814,1094.2815,1094.2815,1095.4225,return,0.6192,,83.984375,,,,,,FBP-OG-81.png,0.43,1.2,39,1,,,,,,,,,,,,,,,,,,0,51,51,38,1,,,,,,,,,,,,,,,,,,,,,,,
,,,,,V1_005,18,Female,2024-04-29_14h39.02.055,jersey_experiment_5_v1,2023.2.2,Win32,84.74576271,,,,,,,,,,,,,,,,1095.4227,1097.2227,1097.2228,1098.9755,return,0.9711,,75.13020833,,,,,,FBP-OG-71.png,0.43,1.2,34,1,,,,,,,,,,,,,,,,,,0,52,52,33,1,,,,,,,,,,,,,,,,,,,,,,,
,,,,,V1_005,18,Female,2024-04-29_14h39.02.055,jersey_experiment_5_v1,2023.2.2,Win32,84.74576271,,,,,,,,,,,,,,,,1098.9758,1100.7757,1100.7758,1104.4345,return,3.072,,41.92708333,,,,,,FBP-OG-71.png,0.35,1.2,31,1,,,,,,,,,,,,,,,,,,0,53,53,30,1,,,,,,,,,,,,,,,,,,,,,,,
,,,,,V1_005,18,Female,2024-04-29_14h39.02.055,jersey_experiment_5_v1,2023.2.2,Win32,84.74576271,,,,,,,,,,,,,,,,1104.4347,1106.2347,1106.2347,1112.7996,return,3.6421,,45.57291667,,,,,,FBP-RB-19.png,0.35,1.2,56,1,,,,,,,,,,,,,,,,,,0,54,54,55,1,,,,,,,,,,,,,,,,,,,,,,,
,,,,,V1_005,18,Female,2024-04-29_14h39.02.055,jersey_experiment_5_v1,2023.2.2,Win32,84.74576271,,,,,,,,,,,,,,,,1112.7997,1114.5996,1114.5997,1116.0937,return,0.4906,,80.46875,,,,,,FBP-RB-19.png,0.43,1.2,59,1,,,,,,,,,,,,,,,,,,0,55,55,58,1,,,,,,,,,,,,,,,,,,,,,,,
,,,,,V1_005,18,Female,2024-04-29_14h39.02.055,jersey_experiment_5_v1,2023.2.2,Win32,84.74576271,,,,,,,,,,,,,,,,1116.0939,1117.8939,1117.8939,1119.8586,return,1.3566,,64.97395833,,,,,,FBP-RB-17.png,0.37,1.2,47,1,,,,,,,,,,,,,,,,,,0,56,56,46,1,,,,,,,,,,,,,,,,,,,,,,,
,,,,,V1_005,18,Female,2024-04-29_14h39.02.055,jersey_experiment_5_v1,2023.2.2,Win32,84.74576271,,,,,,,,,,,,,,,,1119.8589,1121.153,1121.153,1122.341,return,0.4821,,79.55729167,,,,,,FBP-PT-18.png,0.45,1.2,10,0.5,,,,,,,,,,,,,,,,,,0,57,57,9,1,,,,,,,,,,,,,,,,,,,,,,,
,,,,,V1_005,18,Female,2024-04-29_14h39.02.055,jersey_experiment_5_v1,2023.2.2,Win32,84.74576271,,,,,,,,,,,,,,,,1122.3412,1124.141,1124.1411,1125.9176,return,1.3258,,71.61458333,,,,,,FBP-YG-91.png,0.43,1.2,29,1,,,,,,,,,,,,,,,,,,0,58,58,28,1,,,,,,,,,,,,,,,,,,,,,,,
,,,,,V1_005,18,Female,2024-04-29_14h39.02.055,jersey_experiment_5_v1,2023.2.2,Win32,84.74576271,,,,,,,,,,,,,,,,1125.9178,1127.7178,1127.7179,1130.8943,return,2.4904,,31.77083333,,,,,,FBP-YG-91.png,0.35,1.2,26,1,,,,,,,,,,,,,,,,,,0,59,59,25,1,,,,,,,,,,,,,,,,,,,,,,,
,,,,,V1_005,18,Female,2024-04-29_14h39.02.055,jersey_experiment_5_v1,2023.2.2,Win32,84.74576271,,,,,,,,,,,,,,,,,,,,,,,,,,,,,,,,,,,,,,,,,,,,,,,,,,,,,,,,1130.8947,1137.7772,return,6.8749,,,,,,,,,,,,,,,,,,,
,,,,,V1_005,18,Female,2024-04-29_14h39.02.055,jersey_experiment_5_v1,2023.2.2,Win32,84.74576271,,,,,,,,,,,,,,,,,,,,,,,,,,,,,,,,,,,,,,,,,,,,,,,,,,,,,,,,,,,,,1137.7773,1143.0951,1,3.9285,return,1.3643,,,,,,,,,,,,
,,,,,V1_005,18,Female,2024-04-29_14h39.02.055,jersey_experiment_5_v1,2023.2.2,Win32,84.74576271,,,,,,,,,,,,,,,,,,,,,,,,,,,,,,,,,,,,,,,,,,,,,,,,,,,,,,,,,,,,,,,,,,,,1143.0951,1186.1487,The color of the skin of the player changed and sometimes it seemed like their were similar sizes back to back.,right,37.431,,,,,,
,,,,,V1_005,18,Female,2024-04-29_14h39.02.055,jersey_experiment_5_v1,2023.2.2,Win32,84.74576271,,,,,,,,,,,,,,,,,,,,,,,,,,,,,,,,,,,,,,,,,,,,,,,,,,,,,,,,,,,,,,,,,,,,,,,,,,1186.1488,1189.6966,return,3.541,