requirements.started,requirements.stopped,key_resp_3.keys,key_resp_3.rt,key_resp_3.duration,Subject ID,Age,Gender,date,expName,psychopyVersion,OS,frameRate,instructions1.started,instructions1.stopped,key_resp.keys,key_resp.rt,key_resp.duration,example.started,example.stopped,enter_2.keys,enter_2.rt,enter_2.duration,instructions2.started,instructions2.stopped,enter_3.keys,enter_3.rt,enter_3.duration,image.started,image.stopped,slider_2.started,slider_2.stopped,next.keys,next.rt,next.duration,slider.response,trial_block_1.thisRepN,trial_block_1.thisTrialN,trial_block_1.thisN,trial_block_1.thisIndex,trial_block_1.ran,Path,Width,Height,Index,Duration,trial_block_2.thisRepN,trial_block_2.thisTrialN,trial_block_2.thisN,trial_block_2.thisIndex,trial_block_2.ran,rest_break.started,rest_break.stopped,end_break.started,end_break.stopped,key_resp_5.keys,key_resp_5.rt,key_resp_5.duration,trial_block_3.thisRepN,trial_block_3.thisTrialN,trial_block_3.thisN,trial_block_3.thisIndex,trial_block_3.ran,trial_block_4.thisRepN,trial_block_4.thisTrialN,trial_block_4.thisN,trial_block_4.thisIndex,trial_block_4.ran,questions_intro.started,questions_intro.stopped,enter_12.keys,enter_12.rt,enter_12.duration,question2.started,question2.stopped,question_doingbest.response,question_doingbest.rt,enter_15.keys,enter_15.rt,enter_15.duration,pattern.started,pattern.stopped,pattern_2.text,enter_17.keys,enter_17.rt,enter_17.duration,thankyou.started,thankyou.stopped,enter_14.keys,enter_14.rt,enter_14.duration
0.0002,16.1419,return,16.1341,,V1_014,21,F,2024-05-14_15h59.48.740,jersey_experiment_5_v1,2023.2.2,Win32,85.47008547,,,,,,,,,,,,,,,,,,,,,,,,,,,,,,,,,,,,,,,,,,,,,,,,,,,,,,,,,,,,,,,,,,,,,,,,,,,,,,
,,,,,V1_014,21,F,2024-05-14_15h59.48.740,jersey_experiment_5_v1,2023.2.2,Win32,85.47008547,16.142,37.9897,return,21.8349,,,,,,,,,,,,,,,,,,,,,,,,,,,,,,,,,,,,,,,,,,,,,,,,,,,,,,,,,,,,,,,,,,,,,,,,,,
,,,,,V1_014,21,F,2024-05-14_15h59.48.740,jersey_experiment_5_v1,2023.2.2,Win32,85.47008547,,,,,,37.9897,43.1898,return,5.1702,,,,,,,,,,,,,,,,,,,,,,,,,,,,,,,,,,,,,,,,,,,,,,,,,,,,,,,,,,,,,,,,,,,,,
,,,,,V1_014,21,F,2024-05-14_15h59.48.740,jersey_experiment_5_v1,2023.2.2,Win32,85.47008547,,,,,,,,,,,43.1899,85.4149,return,42.2112,,,,,,,,,,,,,,,,,,,,,,,,,,,,,,,,,,,,,,,,,,,,,,,,,,,,,,,,,,,,,,,,
,,,,,V1_014,21,F,2024-05-14_15h59.48.740,jersey_experiment_5_v1,2023.2.2,Win32,85.47008547,,,,,,,,,,,,,,,,85.4222,86.7206,86.7208,107.9802,return,2.6194,,24.609375,0,0,0,41,1,FBP-OG-19.png,0.37,1.2,42,0.5,,,,,,,,,,,,,,,,,,,,,,,,,,,,,,,,,,,,,,,,,,,,,
,,,,,V1_014,21,F,2024-05-14_15h59.48.740,jersey_experiment_5_v1,2023.2.2,Win32,85.47008547,,,,,,,,,,,,,,,,107.9806,109.2742,109.2743,116.2393,return,3.4402,,37.890625,0,1,1,44,1,FBP-OG-19.png,0.45,1.2,45,0.5,,,,,,,,,,,,,,,,,,,,,,,,,,,,,,,,,,,,,,,,,,,,,
,,,,,V1_014,21,F,2024-05-14_15h59.48.740,jersey_experiment_5_v1,2023.2.2,Win32,85.47008547,,,,,,,,,,,,,,,,116.2438,117.545,117.5451,122.804,return,3.2813,,49.47916667,0,2,2,57,1,FBP-RB-91.png,0.4,1.2,58,0.5,,,,,,,,,,,,,,,,,,,,,,,,,,,,,,,,,,,,,,,,,,,,,
,,,,,V1_014,21,F,2024-05-14_15h59.48.740,jersey_experiment_5_v1,2023.2.2,Win32,85.47008547,,,,,,,,,,,,,,,,122.8042,124.0982,124.0982,127.7337,return,0.8375,,24.609375,0,3,3,32,1,FBP-OG-17.png,0.4,1.2,33,0.5,,,,,,,,,,,,,,,,,,,,,,,,,,,,,,,,,,,,,,,,,,,,,
,,,,,V1_014,21,F,2024-05-14_15h59.48.740,jersey_experiment_5_v1,2023.2.2,Win32,85.47008547,,,,,,,,,,,,,,,,127.7339,129.0279,129.028,131.0514,return,0.7733,,24.609375,0,4,4,47,1,FBP-RB-71.png,0.4,1.2,48,0.5,,,,,,,,,,,,,,,,,,,,,,,,,,,,,,,,,,,,,,,,,,,,,
,,,,,V1_014,21,F,2024-05-14_15h59.48.740,jersey_experiment_5_v1,2023.2.2,Win32,85.47008547,,,,,,,,,,,,,,,,131.0516,132.3456,132.3456,135.9811,return,0.8876,,60.15625,0,5,5,29,1,FBP-YG-19.png,0.45,1.2,30,0.5,,,,,,,,,,,,,,,,,,,,,,,,,,,,,,,,,,,,,,,,,,,,,
,,,,,V1_014,21,F,2024-05-14_15h59.48.740,jersey_experiment_5_v1,2023.2.2,Win32,85.47008547,,,,,,,,,,,,,,,,135.9813,137.2752,137.2752,140.7106,return,0.9412,,62.5,0,6,6,39,1,FBP-OG-18.png,0.45,1.2,40,0.5,,,,,,,,,,,,,,,,,,,,,,,,,,,,,,,,,,,,,,,,,,,,,
,,,,,V1_014,21,F,2024-05-14_15h59.48.740,jersey_experiment_5_v1,2023.2.2,Win32,85.47008547,,,,,,,,,,,,,,,,140.7108,142.0047,142.0048,145.6048,return,1.0219,,75.52083333,0,7,7,19,1,FBP-YG-17.png,0.45,1.2,20,0.5,,,,,,,,,,,,,,,,,,,,,,,,,,,,,,,,,,,,,,,,,,,,,
,,,,,V1_014,21,F,2024-05-14_15h59.48.740,jersey_experiment_5_v1,2023.2.2,Win32,85.47008547,,,,,,,,,,,,,,,,145.605,146.899,146.899,150.4051,return,0.918,,16.14583333,0,8,8,15,1,FBP-YG-17.png,0.35,1.2,16,0.5,,,,,,,,,,,,,,,,,,,,,,,,,,,,,,,,,,,,,,,,,,,,,
,,,,,V1_014,21,F,2024-05-14_15h59.48.740,jersey_experiment_5_v1,2023.2.2,Win32,85.47008547,,,,,,,,,,,,,,,,150.4053,152.2052,152.2052,156.6406,return,2.027,,26.04166667,0,9,9,2,1,FBP-PT-71.png,0.4,1.2,3,1,,,,,,,,,,,,,,,,,,,,,,,,,,,,,,,,,,,,,,,,,,,,,
,,,,,V1_014,21,F,2024-05-14_15h59.48.740,jersey_experiment_5_v1,2023.2.2,Win32,85.47008547,,,,,,,,,,,,,,,,156.6408,158.4408,158.4408,160.8524,return,0.8567,,61.97916667,0,10,10,14,1,FBP-PT-91.png,0.45,1.2,15,1,,,,,,,,,,,,,,,,,,,,,,,,,,,,,,,,,,,,,,,,,,,,,
,,,,,V1_014,21,F,2024-05-14_15h59.48.740,jersey_experiment_5_v1,2023.2.2,Win32,85.47008547,,,,,,,,,,,,,,,,160.8527,162.1467,162.1467,165.4997,return,0.8439,,74.34895833,0,11,11,28,1,FBP-YG-19.png,0.43,1.2,29,0.5,,,,,,,,,,,,,,,,,,,,,,,,,,,,,,,,,,,,,,,,,,,,,
,,,,,V1_014,21,F,2024-05-14_15h59.48.740,jersey_experiment_5_v1,2023.2.2,Win32,85.47008547,,,,,,,,,,,,,,,,165.4999,166.794,166.794,169.1235,return,0.7665,,74.34895833,0,12,12,48,1,FBP-RB-71.png,0.43,1.2,49,0.5,,,,,,,,,,,,,,,,,,,,,,,,,,,,,,,,,,,,,,,,,,,,,
,,,,,V1_014,21,F,2024-05-14_15h59.48.740,jersey_experiment_5_v1,2023.2.2,Win32,85.47008547,,,,,,,,,,,,,,,,169.1236,170.4176,170.4176,173.3236,return,0.7144,,50.390625,0,13,13,31,1,FBP-OG-17.png,0.37,1.2,32,0.5,,,,,,,,,,,,,,,,,,,,,,,,,,,,,,,,,,,,,,,,,,,,,
,,,,,V1_014,21,F,2024-05-14_15h59.48.740,jersey_experiment_5_v1,2023.2.2,Win32,85.47008547,,,,,,,,,,,,,,,,173.3238,174.6177,174.6177,176.7237,return,0.7906,,50.390625,0,14,14,58,1,FBP-RB-91.png,0.43,1.2,59,0.5,,,,,,,,,,,,,,,,,,,,,,,,,,,,,,,,,,,,,,,,,,,,,
,,,,,V1_014,21,F,2024-05-14_15h59.48.740,jersey_experiment_5_v1,2023.2.2,Win32,85.47008547,,,,,,,,,,,,,,,,176.724,178.5238,178.5238,183.2298,return,1.2399,,1.953125,0,15,15,10,1,FBP-PT-91.png,0.35,1.2,11,1,,,,,,,,,,,,,,,,,,,,,,,,,,,,,,,,,,,,,,,,,,,,,
,,,,,V1_014,21,F,2024-05-14_15h59.48.740,jersey_experiment_5_v1,2023.2.2,Win32,85.47008547,,,,,,,,,,,,,,,,183.2301,184.5241,184.5241,187.2536,return,0.6825,,75,0,16,16,24,1,FBP-YG-18.png,0.45,1.2,25,0.5,,,,,,,,,,,,,,,,,,,,,,,,,,,,,,,,,,,,,,,,,,,,,
,,,,,V1_014,21,F,2024-05-14_15h59.48.740,jersey_experiment_5_v1,2023.2.2,Win32,85.47008547,,,,,,,,,,,,,,,,187.2537,189.0536,189.0536,192.6771,return,0.777,,25.26041667,0,17,17,5,1,FBP-PT-81.png,0.35,1.2,6,1,,,,,,,,,,,,,,,,,,,,,,,,,,,,,,,,,,,,,,,,,,,,,
,,,,,V1_014,21,F,2024-05-14_15h59.48.740,jersey_experiment_5_v1,2023.2.2,Win32,85.47008547,,,,,,,,,,,,,,,,192.6774,193.9714,193.9715,196.5948,return,0.6459,,27.34375,0,18,18,22,1,FBP-YG-18.png,0.4,1.2,23,0.5,,,,,,,,,,,,,,,,,,,,,,,,,,,,,,,,,,,,,,,,,,,,,
,,,,,V1_014,21,F,2024-05-14_15h59.48.740,jersey_experiment_5_v1,2023.2.2,Win32,85.47008547,,,,,,,,,,,,,,,,196.5951,197.8892,197.8892,200.9128,return,0.8388,,1.692708333,0,19,19,25,1,FBP-YG-19.png,0.35,1.2,26,0.5,,,,,,,,,,,,,,,,,,,,,,,,,,,,,,,,,,,,,,,,,,,,,
,,,,,V1_014,21,F,2024-05-14_15h59.48.740,jersey_experiment_5_v1,2023.2.2,Win32,85.47008547,,,,,,,,,,,,,,,,200.9131,202.2071,202.2071,207.1719,return,0.8135,,25.52083333,0,20,20,16,1,FBP-YG-17.png,0.37,1.2,17,0.5,,,,,,,,,,,,,,,,,,,,,,,,,,,,,,,,,,,,,,,,,,,,,
,,,,,V1_014,21,F,2024-05-14_15h59.48.740,jersey_experiment_5_v1,2023.2.2,Win32,85.47008547,,,,,,,,,,,,,,,,207.1722,208.4661,208.4661,210.6425,return,0.717,,25.52083333,0,21,21,52,1,FBP-RB-81.png,0.4,1.2,53,0.5,,,,,,,,,,,,,,,,,,,,,,,,,,,,,,,,,,,,,,,,,,,,,
,,,,,V1_014,21,F,2024-05-14_15h59.48.740,jersey_experiment_5_v1,2023.2.2,Win32,85.47008547,,,,,,,,,,,,,,,,210.6428,211.9366,211.9366,214.2191,return,0.7245,,16.27604167,0,22,22,50,1,FBP-RB-81.png,0.35,1.2,51,0.5,,,,,,,,,,,,,,,,,,,,,,,,,,,,,,,,,,,,,,,,,,,,,
,,,,,V1_014,21,F,2024-05-14_15h59.48.740,jersey_experiment_5_v1,2023.2.2,Win32,85.47008547,,,,,,,,,,,,,,,,214.2193,216.0193,216.0193,217.8783,return,0.7911,,25.78125,0,23,23,12,1,FBP-PT-91.png,0.4,1.2,13,1,,,,,,,,,,,,,,,,,,,,,,,,,,,,,,,,,,,,,,,,,,,,,
,,,,,V1_014,21,F,2024-05-14_15h59.48.740,jersey_experiment_5_v1,2023.2.2,Win32,85.47008547,,,,,,,,,,,,,,,,217.8785,219.1722,219.1722,222.5138,return,0.7781,,0.78125,0,24,24,20,1,FBP-YG-18.png,0.35,1.2,21,0.5,,,,,,,,,,,,,,,,,,,,,,,,,,,,,,,,,,,,,,,,,,,,,
,,,,,V1_014,21,F,2024-05-14_15h59.48.740,jersey_experiment_5_v1,2023.2.2,Win32,85.47008547,,,,,,,,,,,,,,,,222.514,223.8077,223.8078,227.7609,return,0.7535,,75.390625,0,25,25,53,1,FBP-RB-81.png,0.43,1.2,54,0.5,,,,,,,,,,,,,,,,,,,,,,,,,,,,,,,,,,,,,,,,,,,,,
,,,,,V1_014,21,F,2024-05-14_15h59.48.740,jersey_experiment_5_v1,2023.2.2,Win32,85.47008547,,,,,,,,,,,,,,,,227.7612,229.5609,229.5609,231.4082,return,0.6368,,75.13020833,0,26,26,3,1,FBP-PT-71.png,0.43,1.2,4,1,,,,,,,,,,,,,,,,,,,,,,,,,,,,,,,,,,,,,,,,,,,,,
,,,,,V1_014,21,F,2024-05-14_15h59.48.740,jersey_experiment_5_v1,2023.2.2,Win32,85.47008547,,,,,,,,,,,,,,,,231.4084,232.7022,232.7022,235.1729,return,0.6963,,80.33854167,0,27,27,18,1,FBP-YG-17.png,0.43,1.2,19,0.5,,,,,,,,,,,,,,,,,,,,,,,,,,,,,,,,,,,,,,,,,,,,,
,,,,,V1_014,21,F,2024-05-14_15h59.48.740,jersey_experiment_5_v1,2023.2.2,Win32,85.47008547,,,,,,,,,,,,,,,,235.173,236.4671,236.4671,239.2318,return,0.828,,21.22395833,0,28,28,51,1,FBP-RB-81.png,0.37,1.2,52,0.5,,,,,,,,,,,,,,,,,,,,,,,,,,,,,,,,,,,,,,,,,,,,,
,,,,,V1_014,21,F,2024-05-14_15h59.48.740,jersey_experiment_5_v1,2023.2.2,Win32,85.47008547,,,,,,,,,,,,,,,,239.2321,241.032,241.032,243.5262,return,0.7536,,83.203125,0,29,29,9,1,FBP-PT-81.png,0.45,1.2,10,1,,,,,,,,,,,,,,,,,,,,,,,,,,,,,,,,,,,,,,,,,,,,,
,,,,,V1_014,21,F,2024-05-14_15h59.48.740,jersey_experiment_5_v1,2023.2.2,Win32,85.47008547,,,,,,,,,,,,,,,,243.5264,245.3262,245.3262,246.8676,return,0.612,,86.19791667,0,30,30,8,1,FBP-PT-81.png,0.43,1.2,9,1,,,,,,,,,,,,,,,,,,,,,,,,,,,,,,,,,,,,,,,,,,,,,
,,,,,V1_014,21,F,2024-05-14_15h59.48.740,jersey_experiment_5_v1,2023.2.2,Win32,85.47008547,,,,,,,,,,,,,,,,246.8678,248.6676,248.6676,251.397,return,1.3413,,36.84895833,0,31,31,6,1,FBP-PT-81.png,0.37,1.2,7,1,,,,,,,,,,,,,,,,,,,,,,,,,,,,,,,,,,,,,,,,,,,,,
,,,,,V1_014,21,F,2024-05-14_15h59.48.740,jersey_experiment_5_v1,2023.2.2,Win32,85.47008547,,,,,,,,,,,,,,,,251.3972,253.1971,253.1972,255.2207,return,0.659,,74.609375,0,32,32,4,1,FBP-PT-71.png,0.45,1.2,5,1,,,,,,,,,,,,,,,,,,,,,,,,,,,,,,,,,,,,,,,,,,,,,
,,,,,V1_014,21,F,2024-05-14_15h59.48.740,jersey_experiment_5_v1,2023.2.2,Win32,85.47008547,,,,,,,,,,,,,,,,255.2209,256.515,256.515,259.4091,return,0.6596,,25.13020833,0,33,33,36,1,FBP-OG-18.png,0.37,1.2,37,0.5,,,,,,,,,,,,,,,,,,,,,,,,,,,,,,,,,,,,,,,,,,,,,
,,,,,V1_014,21,F,2024-05-14_15h59.48.740,jersey_experiment_5_v1,2023.2.2,Win32,85.47008547,,,,,,,,,,,,,,,,259.4094,261.2091,261.2091,264.6093,return,0.7071,,49.47916667,0,34,34,13,1,FBP-PT-91.png,0.43,1.2,14,1,,,,,,,,,,,,,,,,,,,,,,,,,,,,,,,,,,,,,,,,,,,,,
,,,,,V1_014,21,F,2024-05-14_15h59.48.740,jersey_experiment_5_v1,2023.2.2,Win32,85.47008547,,,,,,,,,,,,,,,,264.6095,265.9035,265.9035,270.9743,return,2.8293,,62.76041667,0,35,35,23,1,FBP-YG-18.png,0.43,1.2,24,0.5,,,,,,,,,,,,,,,,,,,,,,,,,,,,,,,,,,,,,,,,,,,,,
,,,,,V1_014,21,F,2024-05-14_15h59.48.740,jersey_experiment_5_v1,2023.2.2,Win32,85.47008547,,,,,,,,,,,,,,,,270.9745,272.2683,272.2683,274.9273,return,0.6497,,24.86979167,0,36,36,26,1,FBP-YG-19.png,0.37,1.2,27,0.5,,,,,,,,,,,,,,,,,,,,,,,,,,,,,,,,,,,,,,,,,,,,,
,,,,,V1_014,21,F,2024-05-14_15h59.48.740,jersey_experiment_5_v1,2023.2.2,Win32,85.47008547,,,,,,,,,,,,,,,,274.9275,276.7273,276.7273,278.7863,return,0.7314,,17.1875,0,37,37,11,1,FBP-PT-91.png,0.37,1.2,12,1,,,,,,,,,,,,,,,,,,,,,,,,,,,,,,,,,,,,,,,,,,,,,
,,,,,V1_014,21,F,2024-05-14_15h59.48.740,jersey_experiment_5_v1,2023.2.2,Win32,85.47008547,,,,,,,,,,,,,,,,278.7865,280.0804,280.0804,282.5747,return,0.6499,,0.78125,0,38,38,46,1,FBP-RB-71.png,0.37,1.2,47,0.5,,,,,,,,,,,,,,,,,,,,,,,,,,,,,,,,,,,,,,,,,,,,,
,,,,,V1_014,21,F,2024-05-14_15h59.48.740,jersey_experiment_5_v1,2023.2.2,Win32,85.47008547,,,,,,,,,,,,,,,,282.575,283.8687,283.8687,287.4924,return,0.7865,,53.515625,0,39,39,34,1,FBP-OG-17.png,0.45,1.2,35,0.5,,,,,,,,,,,,,,,,,,,,,,,,,,,,,,,,,,,,,,,,,,,,,
,,,,,V1_014,21,F,2024-05-14_15h59.48.740,jersey_experiment_5_v1,2023.2.2,Win32,85.47008547,,,,,,,,,,,,,,,,287.4926,288.7866,288.7866,291.1631,return,0.6915,,4.427083333,0,40,40,55,1,FBP-RB-91.png,0.35,1.2,56,0.5,,,,,,,,,,,,,,,,,,,,,,,,,,,,,,,,,,,,,,,,,,,,,
,,,,,V1_014,21,F,2024-05-14_15h59.48.740,jersey_experiment_5_v1,2023.2.2,Win32,85.47008547,,,,,,,,,,,,,,,,291.1633,292.4573,292.4574,296.434,return,1.8612,,24.86979167,0,41,41,17,1,FBP-YG-17.png,0.4,1.2,18,0.5,,,,,,,,,,,,,,,,,,,,,,,,,,,,,,,,,,,,,,,,,,,,,
,,,,,V1_014,21,F,2024-05-14_15h59.48.740,jersey_experiment_5_v1,2023.2.2,Win32,85.47008547,,,,,,,,,,,,,,,,296.4342,298.234,298.2341,299.8224,return,0.6983,,24.86979167,0,42,42,7,1,FBP-PT-81.png,0.4,1.2,8,1,,,,,,,,,,,,,,,,,,,,,,,,,,,,,,,,,,,,,,,,,,,,,
,,,,,V1_014,21,F,2024-05-14_15h59.48.740,jersey_experiment_5_v1,2023.2.2,Win32,85.47008547,,,,,,,,,,,,,,,,299.8226,301.1166,301.1166,303.7402,return,0.6179,,37.23958333,0,43,43,42,1,FBP-OG-19.png,0.4,1.2,43,0.5,,,,,,,,,,,,,,,,,,,,,,,,,,,,,,,,,,,,,,,,,,,,,
,,,,,V1_014,21,F,2024-05-14_15h59.48.740,jersey_experiment_5_v1,2023.2.2,Win32,85.47008547,,,,,,,,,,,,,,,,303.7405,305.0343,305.0343,307.2226,return,0.7532,,23.95833333,0,44,44,56,1,FBP-RB-91.png,0.37,1.2,57,0.5,,,,,,,,,,,,,,,,,,,,,,,,,,,,,,,,,,,,,,,,,,,,,
,,,,,V1_014,21,F,2024-05-14_15h59.48.740,jersey_experiment_5_v1,2023.2.2,Win32,85.47008547,,,,,,,,,,,,,,,,307.2228,308.5167,308.5167,311.4933,return,0.6589,,75.13020833,0,45,45,59,1,FBP-RB-91.png,0.45,1.2,60,0.5,,,,,,,,,,,,,,,,,,,,,,,,,,,,,,,,,,,,,,,,,,,,,
,,,,,V1_014,21,F,2024-05-14_15h59.48.740,jersey_experiment_5_v1,2023.2.2,Win32,85.47008547,,,,,,,,,,,,,,,,311.4935,312.7873,312.7874,315.2699,return,0.6581,,49.08854167,0,46,46,27,1,FBP-YG-19.png,0.4,1.2,28,0.5,,,,,,,,,,,,,,,,,,,,,,,,,,,,,,,,,,,,,,,,,,,,,
,,,,,V1_014,21,F,2024-05-14_15h59.48.740,jersey_experiment_5_v1,2023.2.2,Win32,85.47008547,,,,,,,,,,,,,,,,315.2701,316.5641,316.5642,318.9877,return,0.7123,,0.260416667,0,47,47,35,1,FBP-OG-18.png,0.35,1.2,36,0.5,,,,,,,,,,,,,,,,,,,,,,,,,,,,,,,,,,,,,,,,,,,,,
,,,,,V1_014,21,F,2024-05-14_15h59.48.740,jersey_experiment_5_v1,2023.2.2,Win32,85.47008547,,,,,,,,,,,,,,,,318.9879,320.2818,320.2818,323.9879,return,2.3638,,14.84375,0,48,48,37,1,FBP-OG-18.png,0.4,1.2,38,0.5,,,,,,,,,,,,,,,,,,,,,,,,,,,,,,,,,,,,,,,,,,,,,
,,,,,V1_014,21,F,2024-05-14_15h59.48.740,jersey_experiment_5_v1,2023.2.2,Win32,85.47008547,,,,,,,,,,,,,,,,323.9881,325.282,325.282,327.8939,return,0.6121,,24.47916667,0,49,49,43,1,FBP-OG-19.png,0.43,1.2,44,0.5,,,,,,,,,,,,,,,,,,,,,,,,,,,,,,,,,,,,,,,,,,,,,
,,,,,V1_014,21,F,2024-05-14_15h59.48.740,jersey_experiment_5_v1,2023.2.2,Win32,85.47008547,,,,,,,,,,,,,,,,327.8941,329.1881,329.1882,331.5176,return,0.6986,,8.463541667,0,50,50,45,1,FBP-RB-71.png,0.35,1.2,46,0.5,,,,,,,,,,,,,,,,,,,,,,,,,,,,,,,,,,,,,,,,,,,,,
,,,,,V1_014,21,F,2024-05-14_15h59.48.740,jersey_experiment_5_v1,2023.2.2,Win32,85.47008547,,,,,,,,,,,,,,,,331.5178,332.8117,332.8117,334.9294,return,0.6847,,0.260416667,0,51,51,30,1,FBP-OG-17.png,0.35,1.2,31,0.5,,,,,,,,,,,,,,,,,,,,,,,,,,,,,,,,,,,,,,,,,,,,,
,,,,,V1_014,21,F,2024-05-14_15h59.48.740,jersey_experiment_5_v1,2023.2.2,Win32,85.47008547,,,,,,,,,,,,,,,,334.9297,336.2235,336.2235,339.1532,return,0.9325,,34.375,0,52,52,38,1,FBP-OG-18.png,0.43,1.2,39,0.5,,,,,,,,,,,,,,,,,,,,,,,,,,,,,,,,,,,,,,,,,,,,,
,,,,,V1_014,21,F,2024-05-14_15h59.48.740,jersey_experiment_5_v1,2023.2.2,Win32,85.47008547,,,,,,,,,,,,,,,,339.1534,340.4473,340.4473,342.165,return,0.6961,,24.21875,0,53,53,21,1,FBP-YG-18.png,0.37,1.2,22,0.5,,,,,,,,,,,,,,,,,,,,,,,,,,,,,,,,,,,,,,,,,,,,,
,,,,,V1_014,21,F,2024-05-14_15h59.48.740,jersey_experiment_5_v1,2023.2.2,Win32,85.47008547,,,,,,,,,,,,,,,,342.1653,343.9652,343.9653,346.7063,return,0.964,,12.5,0,54,54,1,1,FBP-PT-71.png,0.37,1.2,2,1,,,,,,,,,,,,,,,,,,,,,,,,,,,,,,,,,,,,,,,,,,,,,
,,,,,V1_014,21,F,2024-05-14_15h59.48.740,jersey_experiment_5_v1,2023.2.2,Win32,85.47008547,,,,,,,,,,,,,,,,346.7066,348.5065,348.5066,350.9418,return,0.6769,,1.171875,0,55,55,0,1,FBP-PT-71.png,0.35,1.2,1,1,,,,,,,,,,,,,,,,,,,,,,,,,,,,,,,,,,,,,,,,,,,,,
,,,,,V1_014,21,F,2024-05-14_15h59.48.740,jersey_experiment_5_v1,2023.2.2,Win32,85.47008547,,,,,,,,,,,,,,,,350.942,352.2361,352.2362,355.4714,return,0.7442,,43.48958333,0,56,56,33,1,FBP-OG-17.png,0.43,1.2,34,0.5,,,,,,,,,,,,,,,,,,,,,,,,,,,,,,,,,,,,,,,,,,,,,
,,,,,V1_014,21,F,2024-05-14_15h59.48.740,jersey_experiment_5_v1,2023.2.2,Win32,85.47008547,,,,,,,,,,,,,,,,355.4717,356.7655,356.7656,358.6363,return,0.5705,,73.95833333,0,57,57,54,1,FBP-RB-81.png,0.45,1.2,55,0.5,,,,,,,,,,,,,,,,,,,,,,,,,,,,,,,,,,,,,,,,,,,,,
,,,,,V1_014,21,F,2024-05-14_15h59.48.740,jersey_experiment_5_v1,2023.2.2,Win32,85.47008547,,,,,,,,,,,,,,,,358.6364,359.9303,359.9304,363.6011,return,0.6264,,36.58854167,0,58,58,40,1,FBP-OG-19.png,0.35,1.2,41,0.5,,,,,,,,,,,,,,,,,,,,,,,,,,,,,,,,,,,,,,,,,,,,,
,,,,,V1_014,21,F,2024-05-14_15h59.48.740,jersey_experiment_5_v1,2023.2.2,Win32,85.47008547,,,,,,,,,,,,,,,,363.6013,364.8952,364.8952,367.5895,return,0.6929,,79.42708333,0,59,59,49,1,FBP-RB-71.png,0.45,1.2,50,0.5,,,,,,,,,,,,,,,,,,,,,,,,,,,,,,,,,,,,,,,,,,,,,
,,,,,V1_014,21,F,2024-05-14_15h59.48.740,jersey_experiment_5_v1,2023.2.2,Win32,85.47008547,,,,,,,,,,,,,,,,367.592,368.8835,368.8836,371.1897,return,0.6123,,74.609375,,,,,,FBP-RB-19.png,0.43,1.2,59,0.5,0,0,0,58,1,,,,,,,,,,,,,,,,,,,,,,,,,,,,,,,,,,,,,,,,
,,,,,V1_014,21,F,2024-05-14_15h59.48.740,jersey_experiment_5_v1,2023.2.2,Win32,85.47008547,,,,,,,,,,,,,,,,371.1901,372.9898,372.9898,374.2721,return,0.5784,,49.34895833,,,,,,FBP-PT-17.png,0.4,1.2,3,1,0,1,1,2,1,,,,,,,,,,,,,,,,,,,,,,,,,,,,,,,,,,,,,,,,
,,,,,V1_014,21,F,2024-05-14_15h59.48.740,jersey_experiment_5_v1,2023.2.2,Win32,85.47008547,,,,,,,,,,,,,,,,374.2724,375.5663,375.5663,377.7781,return,0.6001,,36.328125,,,,,,FBP-OG-71.png,0.4,1.2,33,0.5,0,2,2,32,1,,,,,,,,,,,,,,,,,,,,,,,,,,,,,,,,,,,,,,,,
,,,,,V1_014,21,F,2024-05-14_15h59.48.740,jersey_experiment_5_v1,2023.2.2,Win32,85.47008547,,,,,,,,,,,,,,,,377.7783,379.0722,379.0723,381.1547,return,0.5889,,14.97395833,,,,,,FBP-YG-81.png,0.35,1.2,21,0.5,0,3,3,20,1,,,,,,,,,,,,,,,,,,,,,,,,,,,,,,,,,,,,,,,,
,,,,,V1_014,21,F,2024-05-14_15h59.48.740,jersey_experiment_5_v1,2023.2.2,Win32,85.47008547,,,,,,,,,,,,,,,,381.1549,382.4488,382.4489,384.5666,return,0.6261,,6.119791667,,,,,,FBP-RB-17.png,0.35,1.2,46,0.5,0,4,4,45,1,,,,,,,,,,,,,,,,,,,,,,,,,,,,,,,,,,,,,,,,
,,,,,V1_014,21,F,2024-05-14_15h59.48.740,jersey_experiment_5_v1,2023.2.2,Win32,85.47008547,,,,,,,,,,,,,,,,384.5668,386.3668,386.3668,389.8845,return,0.8432,,83.72395833,,,,,,FBP-PT-19.png,0.45,1.2,15,1,0,5,5,14,1,,,,,,,,,,,,,,,,,,,,,,,,,,,,,,,,,,,,,,,,
,,,,,V1_014,21,F,2024-05-14_15h59.48.740,jersey_experiment_5_v1,2023.2.2,Win32,85.47008547,,,,,,,,,,,,,,,,389.8848,391.6847,391.6847,397.1317,return,3.0411,,27.34375,,,,,,FBP-PT-17.png,0.37,1.2,2,1,0,6,6,1,1,,,,,,,,,,,,,,,,,,,,,,,,,,,,,,,,,,,,,,,,
,,,,,V1_014,21,F,2024-05-14_15h59.48.740,jersey_experiment_5_v1,2023.2.2,Win32,85.47008547,,,,,,,,,,,,,,,,397.1318,398.4259,398.4259,401.5202,return,0.7336,,50,,,,,,FBP-OG-81.png,0.43,1.2,39,0.5,0,7,7,38,1,,,,,,,,,,,,,,,,,,,,,,,,,,,,,,,,,,,,,,,,
,,,,,V1_014,21,F,2024-05-14_15h59.48.740,jersey_experiment_5_v1,2023.2.2,Win32,85.47008547,,,,,,,,,,,,,,,,401.5204,402.8142,402.8143,407.9556,return,0.6831,,70.3125,,,,,,FBP-RB-18.png,0.4,1.2,53,0.5,0,8,8,52,1,,,,,,,,,,,,,,,,,,,,,,,,,,,,,,,,,,,,,,,,
,,,,,V1_014,21,F,2024-05-14_15h59.48.740,jersey_experiment_5_v1,2023.2.2,Win32,85.47008547,,,,,,,,,,,,,,,,407.9558,409.2499,409.2499,411.3557,return,0.7378,,74.609375,,,,,,FBP-OG-81.png,0.45,1.2,40,0.5,0,9,9,39,1,,,,,,,,,,,,,,,,,,,,,,,,,,,,,,,,,,,,,,,,
,,,,,V1_014,21,F,2024-05-14_15h59.48.740,jersey_experiment_5_v1,2023.2.2,Win32,85.47008547,,,,,,,,,,,,,,,,411.3559,412.65,412.65,414.8383,return,0.7399,,99.86979167,,,,,,FBP-YG-91.png,0.45,1.2,30,0.5,0,10,10,29,1,,,,,,,,,,,,,,,,,,,,,,,,,,,,,,,,,,,,,,,,
,,,,,V1_014,21,F,2024-05-14_15h59.48.740,jersey_experiment_5_v1,2023.2.2,Win32,85.47008547,,,,,,,,,,,,,,,,414.8385,416.6385,416.6386,418.3795,return,0.6179,,7.291666667,,,,,,FBP-PT-19.png,0.35,1.2,11,1,0,11,11,10,1,,,,,,,,,,,,,,,,,,,,,,,,,,,,,,,,,,,,,,,,
,,,,,V1_014,21,F,2024-05-14_15h59.48.740,jersey_experiment_5_v1,2023.2.2,Win32,85.47008547,,,,,,,,,,,,,,,,418.3797,420.1796,420.1796,422.8503,return,0.7298,,24.34895833,,,,,,FBP-PT-18.png,0.35,1.2,6,1,0,12,12,5,1,,,,,,,,,,,,,,,,,,,,,,,,,,,,,,,,,,,,,,,,
,,,,,V1_014,21,F,2024-05-14_15h59.48.740,jersey_experiment_5_v1,2023.2.2,Win32,85.47008547,,,,,,,,,,,,,,,,422.8505,424.1444,424.1445,426.0034,return,0.6251,,25,,,,,,FBP-RB-19.png,0.37,1.2,57,0.5,0,13,13,56,1,,,,,,,,,,,,,,,,,,,,,,,,,,,,,,,,,,,,,,,,
,,,,,V1_014,21,F,2024-05-14_15h59.48.740,jersey_experiment_5_v1,2023.2.2,Win32,85.47008547,,,,,,,,,,,,,,,,426.0036,427.2976,427.2976,429.1682,return,0.7805,,10.80729167,,,,,,FBP-OG-91.png,0.35,1.2,41,0.5,0,14,14,40,1,,,,,,,,,,,,,,,,,,,,,,,,,,,,,,,,,,,,,,,,
,,,,,V1_014,21,F,2024-05-14_15h59.48.740,jersey_experiment_5_v1,2023.2.2,Win32,85.47008547,,,,,,,,,,,,,,,,429.1684,430.4623,430.4623,434.0978,return,0.6352,,33.59375,,,,,,FBP-OG-81.png,0.4,1.2,38,0.5,0,15,15,37,1,,,,,,,,,,,,,,,,,,,,,,,,,,,,,,,,,,,,,,,,
,,,,,V1_014,21,F,2024-05-14_15h59.48.740,jersey_experiment_5_v1,2023.2.2,Win32,85.47008547,,,,,,,,,,,,,,,,434.0981,435.898,435.898,437.8039,return,0.7243,,74.73958333,,,,,,FBP-PT-19.png,0.43,1.2,14,1,0,16,16,13,1,,,,,,,,,,,,,,,,,,,,,,,,,,,,,,,,,,,,,,,,
,,,,,V1_014,21,F,2024-05-14_15h59.48.740,jersey_experiment_5_v1,2023.2.2,Win32,85.47008547,,,,,,,,,,,,,,,,437.8041,439.098,439.098,442.0981,return,0.7052,,62.23958333,,,,,,FBP-OG-91.png,0.4,1.2,43,0.5,0,17,17,42,1,,,,,,,,,,,,,,,,,,,,,,,,,,,,,,,,,,,,,,,,
,,,,,V1_014,21,F,2024-05-14_15h59.48.740,jersey_experiment_5_v1,2023.2.2,Win32,85.47008547,,,,,,,,,,,,,,,,442.0984,443.3923,443.3923,445.31,return,0.6182,,49.609375,,,,,,FBP-OG-91.png,0.37,1.2,42,0.5,0,18,18,41,1,,,,,,,,,,,,,,,,,,,,,,,,,,,,,,,,,,,,,,,,
,,,,,V1_014,21,F,2024-05-14_15h59.48.740,jersey_experiment_5_v1,2023.2.2,Win32,85.47008547,,,,,,,,,,,,,,,,445.3102,446.6041,446.6041,449.2631,return,0.6736,,69.66145833,,,,,,FBP-YG-81.png,0.37,1.2,22,0.5,0,19,19,21,1,,,,,,,,,,,,,,,,,,,,,,,,,,,,,,,,,,,,,,,,
,,,,,V1_014,21,F,2024-05-14_15h59.48.740,jersey_experiment_5_v1,2023.2.2,Win32,85.47008547,,,,,,,,,,,,,,,,449.2633,450.5572,450.5572,452.8279,return,0.6413,,99.34895833,,,,,,FBP-RB-17.png,0.43,1.2,49,0.5,0,20,20,48,1,,,,,,,,,,,,,,,,,,,,,,,,,,,,,,,,,,,,,,,,
,,,,,V1_014,21,F,2024-05-14_15h59.48.740,jersey_experiment_5_v1,2023.2.2,Win32,85.47008547,,,,,,,,,,,,,,,,452.8281,454.122,454.122,456.8046,return,0.7291,,16.40625,,,,,,FBP-RB-19.png,0.35,1.2,56,0.5,0,21,21,55,1,,,,,,,,,,,,,,,,,,,,,,,,,,,,,,,,,,,,,,,,
,,,,,V1_014,21,F,2024-05-14_15h59.48.740,jersey_experiment_5_v1,2023.2.2,Win32,85.47008547,,,,,,,,,,,,,,,,456.8048,458.0987,458.0987,461.7342,return,0.6827,,86.45833333,,,,,,FBP-OG-71.png,0.43,1.2,34,0.5,0,22,22,33,1,,,,,,,,,,,,,,,,,,,,,,,,,,,,,,,,,,,,,,,,
,,,,,V1_014,21,F,2024-05-14_15h59.48.740,jersey_experiment_5_v1,2023.2.2,Win32,85.47008547,,,,,,,,,,,,,,,,461.7344,463.0283,463.0283,465.9342,return,0.6857,,24.47916667,,,,,,FBP-YG-71.png,0.35,1.2,16,0.5,0,23,23,15,1,,,,,,,,,,,,,,,,,,,,,,,,,,,,,,,,,,,,,,,,
,,,,,V1_014,21,F,2024-05-14_15h59.48.740,jersey_experiment_5_v1,2023.2.2,Win32,85.47008547,,,,,,,,,,,,,,,,465.9345,467.2284,467.2284,469.205,return,0.8007,,74.47916667,,,,,,FBP-OG-91.png,0.45,1.2,45,0.5,0,24,24,44,1,,,,,,,,,,,,,,,,,,,,,,,,,,,,,,,,,,,,,,,,
,,,,,V1_014,21,F,2024-05-14_15h59.48.740,jersey_experiment_5_v1,2023.2.2,Win32,85.47008547,,,,,,,,,,,,,,,,469.2052,470.4991,470.4992,473.1228,return,0.6601,,12.890625,,,,,,FBP-RB-18.png,0.35,1.2,51,0.5,0,25,25,50,1,,,,,,,,,,,,,,,,,,,,,,,,,,,,,,,,,,,,,,,,
,,,,,V1_014,21,F,2024-05-14_15h59.48.740,jersey_experiment_5_v1,2023.2.2,Win32,85.47008547,,,,,,,,,,,,,,,,473.123,474.417,474.417,479.3347,return,3.3885,,69.53125,,,,,,FBP-YG-91.png,0.4,1.2,28,0.5,0,26,26,27,1,,,,,,,,,,,,,,,,,,,,,,,,,,,,,,,,,,,,,,,,
,,,,,V1_014,21,F,2024-05-14_15h59.48.740,jersey_experiment_5_v1,2023.2.2,Win32,85.47008547,,,,,,,,,,,,,,,,479.335,480.6287,480.6288,484.8292,return,2.725,,90.49479167,,,,,,FBP-RB-19.png,0.45,1.2,60,0.5,0,27,27,59,1,,,,,,,,,,,,,,,,,,,,,,,,,,,,,,,,,,,,,,,,
,,,,,V1_014,21,F,2024-05-14_15h59.48.740,jersey_experiment_5_v1,2023.2.2,Win32,85.47008547,,,,,,,,,,,,,,,,484.8295,486.6291,486.6292,489.2998,return,0.814,,0.390625,,,,,,FBP-PT-17.png,0.35,1.2,1,1,0,28,28,0,1,,,,,,,,,,,,,,,,,,,,,,,,,,,,,,,,,,,,,,,,
,,,,,V1_014,21,F,2024-05-14_15h59.48.740,jersey_experiment_5_v1,2023.2.2,Win32,85.47008547,,,,,,,,,,,,,,,,489.3001,491.1,491.1,495.0883,return,0.7923,,55.59895833,,,,,,FBP-PT-18.png,0.43,1.2,9,1,0,29,29,8,1,,,,,,,,,,,,,,,,,,,,,,,,,,,,,,,,,,,,,,,,
,,,,,V1_014,21,F,2024-05-14_15h59.48.740,jersey_experiment_5_v1,2023.2.2,Win32,85.47008547,,,,,,,,,,,,,,,,495.0884,496.3824,496.3825,498.7825,return,0.7331,,79.94791667,,,,,,FBP-RB-18.png,0.45,1.2,55,0.5,0,30,30,54,1,,,,,,,,,,,,,,,,,,,,,,,,,,,,,,,,,,,,,,,,
,,,,,V1_014,21,F,2024-05-14_15h59.48.740,jersey_experiment_5_v1,2023.2.2,Win32,85.47008547,,,,,,,,,,,,,,,,498.7827,500.5825,500.5825,504.8062,return,2.7664,,83.85416667,,,,,,FBP-PT-17.png,0.43,1.2,4,1,0,31,31,3,1,,,,,,,,,,,,,,,,,,,,,,,,,,,,,,,,,,,,,,,,
,,,,,V1_014,21,F,2024-05-14_15h59.48.740,jersey_experiment_5_v1,2023.2.2,Win32,85.47008547,,,,,,,,,,,,,,,,504.8064,506.1004,506.1004,508.877,return,0.8054,,23.69791667,,,,,,FBP-RB-18.png,0.37,1.2,52,0.5,0,32,32,51,1,,,,,,,,,,,,,,,,,,,,,,,,,,,,,,,,,,,,,,,,
,,,,,V1_014,21,F,2024-05-14_15h59.48.740,jersey_experiment_5_v1,2023.2.2,Win32,85.47008547,,,,,,,,,,,,,,,,508.8772,510.1713,510.1713,513.7712,return,1.3245,,49.86979167,,,,,,FBP-YG-81.png,0.4,1.2,23,0.5,0,33,33,22,1,,,,,,,,,,,,,,,,,,,,,,,,,,,,,,,,,,,,,,,,
,,,,,V1_014,21,F,2024-05-14_15h59.48.740,jersey_experiment_5_v1,2023.2.2,Win32,85.47008547,,,,,,,,,,,,,,,,513.7714,515.0654,515.0655,516.7361,return,0.6136,,75.13020833,,,,,,FBP-YG-91.png,0.43,1.2,29,0.5,0,34,34,28,1,,,,,,,,,,,,,,,,,,,,,,,,,,,,,,,,,,,,,,,,
,,,,,V1_014,21,F,2024-05-14_15h59.48.740,jersey_experiment_5_v1,2023.2.2,Win32,85.47008547,,,,,,,,,,,,,,,,516.7363,518.0303,518.0303,519.5833,return,0.6137,,75.13020833,,,,,,FBP-RB-18.png,0.43,1.2,54,0.5,0,35,35,53,1,,,,,,,,,,,,,,,,,,,,,,,,,,,,,,,,,,,,,,,,
,,,,,V1_014,21,F,2024-05-14_15h59.48.740,jersey_experiment_5_v1,2023.2.2,Win32,85.47008547,,,,,,,,,,,,,,,,519.5836,520.8774,520.8774,522.854,return,0.6734,,75.13020833,,,,,,FBP-YG-71.png,0.43,1.2,19,0.5,0,36,36,18,1,,,,,,,,,,,,,,,,,,,,,,,,,,,,,,,,,,,,,,,,
,,,,,V1_014,21,F,2024-05-14_15h59.48.740,jersey_experiment_5_v1,2023.2.2,Win32,85.47008547,,,,,,,,,,,,,,,,522.8544,524.654,524.654,526.5953,return,0.7437,,24.73958333,,,,,,FBP-PT-18.png,0.37,1.2,7,1,0,37,37,6,1,,,,,,,,,,,,,,,,,,,,,,,,,,,,,,,,,,,,,,,,
,,,,,V1_014,21,F,2024-05-14_15h59.48.740,jersey_experiment_5_v1,2023.2.2,Win32,85.47008547,,,,,,,,,,,,,,,,526.5956,527.8895,527.8895,532.6544,return,0.721,,49.73958333,,,,,,FBP-YG-91.png,0.37,1.2,27,0.5,0,38,38,26,1,,,,,,,,,,,,,,,,,,,,,,,,,,,,,,,,,,,,,,,,
,,,,,V1_014,21,F,2024-05-14_15h59.48.740,jersey_experiment_5_v1,2023.2.2,Win32,85.47008547,,,,,,,,,,,,,,,,532.6546,533.9484,533.9485,535.7722,return,0.6413,,49.86979167,,,,,,FBP-RB-17.png,0.4,1.2,48,0.5,0,39,39,47,1,,,,,,,,,,,,,,,,,,,,,,,,,,,,,,,,,,,,,,,,
,,,,,V1_014,21,F,2024-05-14_15h59.48.740,jersey_experiment_5_v1,2023.2.2,Win32,85.47008547,,,,,,,,,,,,,,,,535.7724,537.0663,537.0663,538.5604,return,0.6724,,49.86979167,,,,,,FBP-YG-71.png,0.4,1.2,18,0.5,0,40,40,17,1,,,,,,,,,,,,,,,,,,,,,,,,,,,,,,,,,,,,,,,,
,,,,,V1_014,21,F,2024-05-14_15h59.48.740,jersey_experiment_5_v1,2023.2.2,Win32,85.47008547,,,,,,,,,,,,,,,,538.5606,539.8545,539.8546,542.2192,return,0.6559,,65.10416667,,,,,,FBP-YG-81.png,0.45,1.2,25,0.5,0,41,41,24,1,,,,,,,,,,,,,,,,,,,,,,,,,,,,,,,,,,,,,,,,
,,,,,V1_014,21,F,2024-05-14_15h59.48.740,jersey_experiment_5_v1,2023.2.2,Win32,85.47008547,,,,,,,,,,,,,,,,542.2194,544.0194,544.0195,546.4314,return,0.638,,19.921875,,,,,,FBP-PT-19.png,0.37,1.2,12,1,0,42,42,11,1,,,,,,,,,,,,,,,,,,,,,,,,,,,,,,,,,,,,,,,,
,,,,,V1_014,21,F,2024-05-14_15h59.48.740,jersey_experiment_5_v1,2023.2.2,Win32,85.47008547,,,,,,,,,,,,,,,,546.4316,547.7254,547.7255,550.6432,return,1.1538,,74.86979167,,,,,,FBP-OG-71.png,0.45,1.2,35,0.5,0,43,43,34,1,,,,,,,,,,,,,,,,,,,,,,,,,,,,,,,,,,,,,,,,
,,,,,V1_014,21,F,2024-05-14_15h59.48.740,jersey_experiment_5_v1,2023.2.2,Win32,85.47008547,,,,,,,,,,,,,,,,550.6434,552.4432,552.4432,555.5846,return,0.754,,48.17708333,,,,,,FBP-PT-19.png,0.4,1.2,13,1,0,44,44,12,1,,,,,,,,,,,,,,,,,,,,,,,,,,,,,,,,,,,,,,,,
,,,,,V1_014,21,F,2024-05-14_15h59.48.740,jersey_experiment_5_v1,2023.2.2,Win32,85.47008547,,,,,,,,,,,,,,,,555.5848,557.3846,557.3847,559.1728,return,0.6688,,79.55729167,,,,,,FBP-PT-18.png,0.45,1.2,10,1,0,45,45,9,1,,,,,,,,,,,,,,,,,,,,,,,,,,,,,,,,,,,,,,,,
,,,,,V1_014,21,F,2024-05-14_15h59.48.740,jersey_experiment_5_v1,2023.2.2,Win32,85.47008547,,,,,,,,,,,,,,,,559.173,560.4671,560.4671,561.8083,return,0.6391,,79.55729167,,,,,,FBP-YG-81.png,0.43,1.2,24,0.5,0,46,46,23,1,,,,,,,,,,,,,,,,,,,,,,,,,,,,,,,,,,,,,,,,
,,,,,V1_014,21,F,2024-05-14_15h59.48.740,jersey_experiment_5_v1,2023.2.2,Win32,85.47008547,,,,,,,,,,,,,,,,561.8085,563.1024,563.1024,566.6556,return,0.767,,12.23958333,,,,,,FBP-YG-91.png,0.35,1.2,26,0.5,0,47,47,25,1,,,,,,,,,,,,,,,,,,,,,,,,,,,,,,,,,,,,,,,,
,,,,,V1_014,21,F,2024-05-14_15h59.48.740,jersey_experiment_5_v1,2023.2.2,Win32,85.47008547,,,,,,,,,,,,,,,,566.6558,568.4555,568.4556,572.0205,return,0.7868,,74.34895833,,,,,,FBP-PT-17.png,0.45,1.2,5,1,0,48,48,4,1,,,,,,,,,,,,,,,,,,,,,,,,,,,,,,,,,,,,,,,,
,,,,,V1_014,21,F,2024-05-14_15h59.48.740,jersey_experiment_5_v1,2023.2.2,Win32,85.47008547,,,,,,,,,,,,,,,,572.0207,573.3145,573.3145,576.1502,return,0.7443,,49.86979167,,,,,,FBP-OG-71.png,0.37,1.2,32,0.5,0,49,49,31,1,,,,,,,,,,,,,,,,,,,,,,,,,,,,,,,,,,,,,,,,
,,,,,V1_014,21,F,2024-05-14_15h59.48.740,jersey_experiment_5_v1,2023.2.2,Win32,85.47008547,,,,,,,,,,,,,,,,576.1503,577.4442,577.4442,580.4911,return,0.6769,,24.609375,,,,,,FBP-RB-17.png,0.37,1.2,47,0.5,0,50,50,46,1,,,,,,,,,,,,,,,,,,,,,,,,,,,,,,,,,,,,,,,,
,,,,,V1_014,21,F,2024-05-14_15h59.48.740,jersey_experiment_5_v1,2023.2.2,Win32,85.47008547,,,,,,,,,,,,,,,,580.4914,581.7854,581.7854,585.1738,return,0.6218,,49.47916667,,,,,,FBP-RB-19.png,0.4,1.2,58,0.5,0,51,51,57,1,,,,,,,,,,,,,,,,,,,,,,,,,,,,,,,,,,,,,,,,
,,,,,V1_014,21,F,2024-05-14_15h59.48.740,jersey_experiment_5_v1,2023.2.2,Win32,85.47008547,,,,,,,,,,,,,,,,585.174,586.468,586.4681,588.5504,return,0.6254,,75.390625,,,,,,FBP-YG-71.png,0.45,1.2,20,0.5,0,52,52,19,1,,,,,,,,,,,,,,,,,,,,,,,,,,,,,,,,,,,,,,,,
,,,,,V1_014,21,F,2024-05-14_15h59.48.740,jersey_experiment_5_v1,2023.2.2,Win32,85.47008547,,,,,,,,,,,,,,,,588.5506,589.8447,589.8447,594.6918,return,2.5077,,12.63020833,,,,,,FBP-OG-71.png,0.35,1.2,31,0.5,0,53,53,30,1,,,,,,,,,,,,,,,,,,,,,,,,,,,,,,,,,,,,,,,,
,,,,,V1_014,21,F,2024-05-14_15h59.48.740,jersey_experiment_5_v1,2023.2.2,Win32,85.47008547,,,,,,,,,,,,,,,,594.6921,595.986,595.9861,598.5743,return,0.6149,,50.390625,,,,,,FBP-OG-91.png,0.43,1.2,44,0.5,0,54,54,43,1,,,,,,,,,,,,,,,,,,,,,,,,,,,,,,,,,,,,,,,,
,,,,,V1_014,21,F,2024-05-14_15h59.48.740,jersey_experiment_5_v1,2023.2.2,Win32,85.47008547,,,,,,,,,,,,,,,,598.5746,599.8685,599.8685,602.398,return,0.8856,,50.390625,,,,,,FBP-YG-71.png,0.37,1.2,17,0.5,0,55,55,16,1,,,,,,,,,,,,,,,,,,,,,,,,,,,,,,,,,,,,,,,,
,,,,,V1_014,21,F,2024-05-14_15h59.48.740,jersey_experiment_5_v1,2023.2.2,Win32,85.47008547,,,,,,,,,,,,,,,,602.3983,603.692,603.692,606.6925,return,0.7678,,24.609375,,,,,,FBP-OG-81.png,0.37,1.2,37,0.5,0,56,56,36,1,,,,,,,,,,,,,,,,,,,,,,,,,,,,,,,,,,,,,,,,
,,,,,V1_014,21,F,2024-05-14_15h59.48.740,jersey_experiment_5_v1,2023.2.2,Win32,85.47008547,,,,,,,,,,,,,,,,606.6927,607.9864,607.9865,610.0924,return,0.6192,,15.75520833,,,,,,FBP-OG-81.png,0.35,1.2,36,0.5,0,57,57,35,1,,,,,,,,,,,,,,,,,,,,,,,,,,,,,,,,,,,,,,,,
,,,,,V1_014,21,F,2024-05-14_15h59.48.740,jersey_experiment_5_v1,2023.2.2,Win32,85.47008547,,,,,,,,,,,,,,,,610.0925,611.8927,611.8928,613.6337,return,0.6023,,24.86979167,,,,,,FBP-PT-18.png,0.4,1.2,8,1,0,58,58,7,1,,,,,,,,,,,,,,,,,,,,,,,,,,,,,,,,,,,,,,,,
,,,,,V1_014,21,F,2024-05-14_15h59.48.740,jersey_experiment_5_v1,2023.2.2,Win32,85.47008547,,,,,,,,,,,,,,,,613.6339,614.9279,614.928,616.9162,return,0.6118,,30.20833333,,,,,,FBP-RB-17.png,0.45,1.2,50,0.5,0,59,59,49,1,,,,,,,,,,,,,,,,,,,,,,,,,,,,,,,,,,,,,,,,
,,,,,V1_014,21,F,2024-05-14_15h59.48.740,jersey_experiment_5_v1,2023.2.2,Win32,85.47008547,,,,,,,,,,,,,,,,,,,,,,,,,,,,,,,,,,,,,,,616.9165,736.9208,,,,,,,,,,,,,,,,,,,,,,,,,,,,,,,,,,,,,,
,,,,,V1_014,21,F,2024-05-14_15h59.48.740,jersey_experiment_5_v1,2023.2.2,Win32,85.47008547,,,,,,,,,,,,,,,,,,,,,,,,,,,,,,,,,,,,,,,,,736.9208,751.7803,return,14.8481,,,,,,,,,,,,,,,,,,,,,,,,,,,,,,,,,,
,,,,,V1_014,21,F,2024-05-14_15h59.48.740,jersey_experiment_5_v1,2023.2.2,Win32,85.47008547,,,,,,,,,,,,,,,,751.7862,753.58,753.58,756.8624,return,0.7802,,62.36979167,,,,,,FBP-YG-17.png,0.43,1.2,19,1,,,,,,,,,,,,,0,0,0,18,1,,,,,,,,,,,,,,,,,,,,,,,,,,,,
,,,,,V1_014,21,F,2024-05-14_15h59.48.740,jersey_experiment_5_v1,2023.2.2,Win32,85.47008547,,,,,,,,,,,,,,,,756.8628,758.6626,758.6627,761.5568,return,0.7862,,35.67708333,,,,,,FBP-RB-81.png,0.37,1.2,52,1,,,,,,,,,,,,,0,1,1,51,1,,,,,,,,,,,,,,,,,,,,,,,,,,,,
,,,,,V1_014,21,F,2024-05-14_15h59.48.740,jersey_experiment_5_v1,2023.2.2,Win32,85.47008547,,,,,,,,,,,,,,,,761.557,763.3567,763.3568,765.6981,return,0.6702,,61.97916667,,,,,,FBP-OG-17.png,0.45,1.2,35,1,,,,,,,,,,,,,0,2,2,34,1,,,,,,,,,,,,,,,,,,,,,,,,,,,,
,,,,,V1_014,21,F,2024-05-14_15h59.48.740,jersey_experiment_5_v1,2023.2.2,Win32,85.47008547,,,,,,,,,,,,,,,,765.6982,767.4984,767.4984,769.5217,return,0.7436,,24.47916667,,,,,,FBP-OG-18.png,0.35,1.2,36,1,,,,,,,,,,,,,0,3,3,35,1,,,,,,,,,,,,,,,,,,,,,,,,,,,,
,,,,,V1_014,21,F,2024-05-14_15h59.48.740,jersey_experiment_5_v1,2023.2.2,Win32,85.47008547,,,,,,,,,,,,,,,,769.522,771.3217,771.3218,774.5454,return,1.4241,,49.609375,,,,,,FBP-YG-17.png,0.4,1.2,18,1,,,,,,,,,,,,,0,4,4,17,1,,,,,,,,,,,,,,,,,,,,,,,,,,,,
,,,,,V1_014,21,F,2024-05-14_15h59.48.740,jersey_experiment_5_v1,2023.2.2,Win32,85.47008547,,,,,,,,,,,,,,,,774.5456,775.8397,775.8397,778.1925,return,0.7327,,49.609375,,,,,,FBP-PT-91.png,0.4,1.2,13,0.5,,,,,,,,,,,,,0,5,5,12,1,,,,,,,,,,,,,,,,,,,,,,,,,,,,
,,,,,V1_014,21,F,2024-05-14_15h59.48.740,jersey_experiment_5_v1,2023.2.2,Win32,85.47008547,,,,,,,,,,,,,,,,778.1927,779.9928,779.9928,781.934,return,0.7451,,63.671875,,,,,,FBP-RB-71.png,0.43,1.2,49,1,,,,,,,,,,,,,0,6,6,48,1,,,,,,,,,,,,,,,,,,,,,,,,,,,,
,,,,,V1_014,21,F,2024-05-14_15h59.48.740,jersey_experiment_5_v1,2023.2.2,Win32,85.47008547,,,,,,,,,,,,,,,,781.9341,783.734,783.734,785.0047,return,0.7253,,63.671875,,,,,,FBP-OG-19.png,0.43,1.2,44,1,,,,,,,,,,,,,0,7,7,43,1,,,,,,,,,,,,,,,,,,,,,,,,,,,,
,,,,,V1_014,21,F,2024-05-14_15h59.48.740,jersey_experiment_5_v1,2023.2.2,Win32,85.47008547,,,,,,,,,,,,,,,,785.0049,786.2987,786.2987,789.393,return,0.7323,,50.26041667,,,,,,FBP-PT-81.png,0.4,1.2,8,0.5,,,,,,,,,,,,,0,8,8,7,1,,,,,,,,,,,,,,,,,,,,,,,,,,,,
,,,,,V1_014,21,F,2024-05-14_15h59.48.740,jersey_experiment_5_v1,2023.2.2,Win32,85.47008547,,,,,,,,,,,,,,,,789.3933,790.6872,790.6872,793.0285,return,0.8003,,64.0625,,,,,,FBP-PT-91.png,0.45,1.2,15,0.5,,,,,,,,,,,,,0,9,9,14,1,,,,,,,,,,,,,,,,,,,,,,,,,,,,
,,,,,V1_014,21,F,2024-05-14_15h59.48.740,jersey_experiment_5_v1,2023.2.2,Win32,85.47008547,,,,,,,,,,,,,,,,793.0287,794.3227,794.3227,796.2521,return,0.641,,68.75,,,,,,FBP-PT-91.png,0.43,1.2,14,0.5,,,,,,,,,,,,,0,10,10,13,1,,,,,,,,,,,,,,,,,,,,,,,,,,,,
,,,,,V1_014,21,F,2024-05-14_15h59.48.740,jersey_experiment_5_v1,2023.2.2,Win32,85.47008547,,,,,,,,,,,,,,,,796.2524,798.0523,798.0523,800.0993,return,0.7389,,13.41145833,,,,,,FBP-RB-91.png,0.35,1.2,56,1,,,,,,,,,,,,,0,11,11,55,1,,,,,,,,,,,,,,,,,,,,,,,,,,,,
,,,,,V1_014,21,F,2024-05-14_15h59.48.740,jersey_experiment_5_v1,2023.2.2,Win32,85.47008547,,,,,,,,,,,,,,,,800.0995,801.8994,801.8994,803.1818,return,0.7457,,13.54166667,,,,,,FBP-OG-19.png,0.37,1.2,42,1,,,,,,,,,,,,,0,12,12,41,1,,,,,,,,,,,,,,,,,,,,,,,,,,,,
,,,,,V1_014,21,F,2024-05-14_15h59.48.740,jersey_experiment_5_v1,2023.2.2,Win32,85.47008547,,,,,,,,,,,,,,,,803.1821,804.9819,804.9819,806.2408,return,0.6855,,13.54166667,,,,,,FBP-OG-19.png,0.35,1.2,41,1,,,,,,,,,,,,,0,13,13,40,1,,,,,,,,,,,,,,,,,,,,,,,,,,,,
,,,,,V1_014,21,F,2024-05-14_15h59.48.740,jersey_experiment_5_v1,2023.2.2,Win32,85.47008547,,,,,,,,,,,,,,,,806.241,808.0408,808.0408,809.323,return,0.7243,,13.54166667,,,,,,FBP-OG-17.png,0.37,1.2,32,1,,,,,,,,,,,,,0,14,14,31,1,,,,,,,,,,,,,,,,,,,,,,,,,,,,
,,,,,V1_014,21,F,2024-05-14_15h59.48.740,jersey_experiment_5_v1,2023.2.2,Win32,85.47008547,,,,,,,,,,,,,,,,809.3233,811.1233,811.1233,813.5822,return,1.4509,,13.54166667,,,,,,FBP-OG-17.png,0.4,1.2,33,1,,,,,,,,,,,,,0,15,15,32,1,,,,,,,,,,,,,,,,,,,,,,,,,,,,
,,,,,V1_014,21,F,2024-05-14_15h59.48.740,jersey_experiment_5_v1,2023.2.2,Win32,85.47008547,,,,,,,,,,,,,,,,813.5825,814.8763,814.8764,818.1118,return,0.7083,,74.609375,,,,,,FBP-PT-71.png,0.45,1.2,5,0.5,,,,,,,,,,,,,0,16,16,4,1,,,,,,,,,,,,,,,,,,,,,,,,,,,,
,,,,,V1_014,21,F,2024-05-14_15h59.48.740,jersey_experiment_5_v1,2023.2.2,Win32,85.47008547,,,,,,,,,,,,,,,,818.1121,819.406,819.406,821.7472,return,0.6831,,12.76041667,,,,,,FBP-PT-71.png,0.35,1.2,1,0.5,,,,,,,,,,,,,0,17,17,0,1,,,,,,,,,,,,,,,,,,,,,,,,,,,,
,,,,,V1_014,21,F,2024-05-14_15h59.48.740,jersey_experiment_5_v1,2023.2.2,Win32,85.47008547,,,,,,,,,,,,,,,,821.7474,823.5473,823.5474,825.265,return,0.7062,,75.390625,,,,,,FBP-RB-71.png,0.45,1.2,50,1,,,,,,,,,,,,,0,18,18,49,1,,,,,,,,,,,,,,,,,,,,,,,,,,,,
,,,,,V1_014,21,F,2024-05-14_15h59.48.740,jersey_experiment_5_v1,2023.2.2,Win32,85.47008547,,,,,,,,,,,,,,,,825.2652,827.0651,827.0651,829.1239,return,0.743,,12.109375,,,,,,FBP-YG-17.png,0.35,1.2,16,1,,,,,,,,,,,,,0,19,19,15,1,,,,,,,,,,,,,,,,,,,,,,,,,,,,
,,,,,V1_014,21,F,2024-05-14_15h59.48.740,jersey_experiment_5_v1,2023.2.2,Win32,85.47008547,,,,,,,,,,,,,,,,829.1242,830.4181,830.4181,831.7945,return,0.6133,,12.109375,,,,,,FBP-PT-81.png,0.37,1.2,7,0.5,,,,,,,,,,,,,0,20,20,6,1,,,,,,,,,,,,,,,,,,,,,,,,,,,,
,,,,,V1_014,21,F,2024-05-14_15h59.48.740,jersey_experiment_5_v1,2023.2.2,Win32,85.47008547,,,,,,,,,,,,,,,,831.7947,833.5947,833.5947,835.7948,return,0.6836,,63.28125,,,,,,FBP-YG-18.png,0.43,1.2,24,1,,,,,,,,,,,,,0,21,21,23,1,,,,,,,,,,,,,,,,,,,,,,,,,,,,
,,,,,V1_014,21,F,2024-05-14_15h59.48.740,jersey_experiment_5_v1,2023.2.2,Win32,85.47008547,,,,,,,,,,,,,,,,835.795,837.5951,837.5951,840.5008,return,0.8346,,40.75520833,,,,,,FBP-RB-71.png,0.4,1.2,48,1,,,,,,,,,,,,,0,22,22,47,1,,,,,,,,,,,,,,,,,,,,,,,,,,,,
,,,,,V1_014,21,F,2024-05-14_15h59.48.740,jersey_experiment_5_v1,2023.2.2,Win32,85.47008547,,,,,,,,,,,,,,,,840.501,842.301,842.301,844.8775,return,0.6993,,74.08854167,,,,,,FBP-OG-19.png,0.45,1.2,45,1,,,,,,,,,,,,,0,23,23,44,1,,,,,,,,,,,,,,,,,,,,,,,,,,,,
,,,,,V1_014,21,F,2024-05-14_15h59.48.740,jersey_experiment_5_v1,2023.2.2,Win32,85.47008547,,,,,,,,,,,,,,,,844.8777,846.1715,846.1715,848.7247,return,0.8006,,14.0625,,,,,,FBP-PT-81.png,0.35,1.2,6,0.5,,,,,,,,,,,,,0,24,24,5,1,,,,,,,,,,,,,,,,,,,,,,,,,,,,
,,,,,V1_014,21,F,2024-05-14_15h59.48.740,jersey_experiment_5_v1,2023.2.2,Win32,85.47008547,,,,,,,,,,,,,,,,848.725,850.5247,850.5248,851.713,return,0.65,,11.45833333,,,,,,FBP-OG-17.png,0.35,1.2,31,1,,,,,,,,,,,,,0,25,25,30,1,,,,,,,,,,,,,,,,,,,,,,,,,,,,
,,,,,V1_014,21,F,2024-05-14_15h59.48.740,jersey_experiment_5_v1,2023.2.2,Win32,85.47008547,,,,,,,,,,,,,,,,851.7132,853.513,853.513,857.0426,return,1.2583,,24.47916667,,,,,,FBP-YG-18.png,0.37,1.2,22,1,,,,,,,,,,,,,0,26,26,21,1,,,,,,,,,,,,,,,,,,,,,,,,,,,,
,,,,,V1_014,21,F,2024-05-14_15h59.48.740,jersey_experiment_5_v1,2023.2.2,Win32,85.47008547,,,,,,,,,,,,,,,,857.0428,858.8425,858.8425,863.4075,return,1.616,,74.609375,,,,,,FBP-RB-81.png,0.45,1.2,55,1,,,,,,,,,,,,,0,27,27,54,1,,,,,,,,,,,,,,,,,,,,,,,,,,,,
,,,,,V1_014,21,F,2024-05-14_15h59.48.740,jersey_experiment_5_v1,2023.2.2,Win32,85.47008547,,,,,,,,,,,,,,,,863.4078,864.7016,864.7017,868.1959,return,1.233,,49.08854167,,,,,,FBP-PT-71.png,0.37,1.2,2,0.5,,,,,,,,,,,,,0,28,28,1,1,,,,,,,,,,,,,,,,,,,,,,,,,,,,
,,,,,V1_014,21,F,2024-05-14_15h59.48.740,jersey_experiment_5_v1,2023.2.2,Win32,85.47008547,,,,,,,,,,,,,,,,868.1961,869.4901,869.4902,872.8314,return,0.9791,,25,,,,,,FBP-PT-91.png,0.37,1.2,12,0.5,,,,,,,,,,,,,0,29,29,11,1,,,,,,,,,,,,,,,,,,,,,,,,,,,,
,,,,,V1_014,21,F,2024-05-14_15h59.48.740,jersey_experiment_5_v1,2023.2.2,Win32,85.47008547,,,,,,,,,,,,,,,,872.8316,874.6313,874.6313,877.0198,return,1.0668,,84.11458333,,,,,,FBP-YG-18.png,0.45,1.2,25,1,,,,,,,,,,,,,0,30,30,24,1,,,,,,,,,,,,,,,,,,,,,,,,,,,,
,,,,,V1_014,21,F,2024-05-14_15h59.48.740,jersey_experiment_5_v1,2023.2.2,Win32,85.47008547,,,,,,,,,,,,,,,,877.02,878.8201,878.8201,880.6199,return,0.6905,,25.390625,,,,,,FBP-RB-91.png,0.37,1.2,57,1,,,,,,,,,,,,,0,31,31,56,1,,,,,,,,,,,,,,,,,,,,,,,,,,,,
,,,,,V1_014,21,F,2024-05-14_15h59.48.740,jersey_experiment_5_v1,2023.2.2,Win32,85.47008547,,,,,,,,,,,,,,,,880.6201,882.42,882.42,884.4788,return,0.7579,,88.41145833,,,,,,FBP-OG-18.png,0.45,1.2,40,1,,,,,,,,,,,,,0,32,32,39,1,,,,,,,,,,,,,,,,,,,,,,,,,,,,
,,,,,V1_014,21,F,2024-05-14_15h59.48.740,jersey_experiment_5_v1,2023.2.2,Win32,85.47008547,,,,,,,,,,,,,,,,884.4791,886.279,886.2791,888.8203,return,0.7057,,74.34895833,,,,,,FBP-OG-19.png,0.4,1.2,43,1,,,,,,,,,,,,,0,33,33,42,1,,,,,,,,,,,,,,,,,,,,,,,,,,,,
,,,,,V1_014,21,F,2024-05-14_15h59.48.740,jersey_experiment_5_v1,2023.2.2,Win32,85.47008547,,,,,,,,,,,,,,,,888.8205,890.6203,890.6203,893.1264,return,1.3646,,77.60416667,,,,,,FBP-RB-91.png,0.43,1.2,59,1,,,,,,,,,,,,,0,34,34,58,1,,,,,,,,,,,,,,,,,,,,,,,,,,,,
,,,,,V1_014,21,F,2024-05-14_15h59.48.740,jersey_experiment_5_v1,2023.2.2,Win32,85.47008547,,,,,,,,,,,,,,,,893.1266,894.9264,894.9265,898.2088,return,0.6739,,55.20833333,,,,,,FBP-YG-18.png,0.4,1.2,23,1,,,,,,,,,,,,,0,35,35,22,1,,,,,,,,,,,,,,,,,,,,,,,,,,,,
,,,,,V1_014,21,F,2024-05-14_15h59.48.740,jersey_experiment_5_v1,2023.2.2,Win32,85.47008547,,,,,,,,,,,,,,,,898.209,899.5031,899.5031,901.3501,return,0.6447,,87.109375,,,,,,FBP-PT-81.png,0.43,1.2,9,0.5,,,,,,,,,,,,,0,36,36,8,1,,,,,,,,,,,,,,,,,,,,,,,,,,,,
,,,,,V1_014,21,F,2024-05-14_15h59.48.740,jersey_experiment_5_v1,2023.2.2,Win32,85.47008547,,,,,,,,,,,,,,,,901.3503,903.1502,903.1502,906.7974,return,0.6867,,63.28125,,,,,,FBP-RB-91.png,0.4,1.2,58,1,,,,,,,,,,,,,0,37,37,57,1,,,,,,,,,,,,,,,,,,,,,,,,,,,,
,,,,,V1_014,21,F,2024-05-14_15h59.48.740,jersey_experiment_5_v1,2023.2.2,Win32,85.47008547,,,,,,,,,,,,,,,,906.7976,908.5976,908.5976,910.0445,return,0.6309,,24.609375,,,,,,FBP-YG-19.png,0.35,1.2,26,1,,,,,,,,,,,,,0,38,38,25,1,,,,,,,,,,,,,,,,,,,,,,,,,,,,
,,,,,V1_014,21,F,2024-05-14_15h59.48.740,jersey_experiment_5_v1,2023.2.2,Win32,85.47008547,,,,,,,,,,,,,,,,910.0448,911.3387,911.3387,913.421,return,0.5714,,16.14583333,,,,,,FBP-PT-91.png,0.35,1.2,11,0.5,,,,,,,,,,,,,0,39,39,10,1,,,,,,,,,,,,,,,,,,,,,,,,,,,,
,,,,,V1_014,21,F,2024-05-14_15h59.48.740,jersey_experiment_5_v1,2023.2.2,Win32,85.47008547,,,,,,,,,,,,,,,,913.4213,915.2213,915.2213,916.927,return,0.6399,,24.86979167,,,,,,FBP-YG-19.png,0.37,1.2,27,1,,,,,,,,,,,,,0,40,40,26,1,,,,,,,,,,,,,,,,,,,,,,,,,,,,
,,,,,V1_014,21,F,2024-05-14_15h59.48.740,jersey_experiment_5_v1,2023.2.2,Win32,85.47008547,,,,,,,,,,,,,,,,916.9272,918.7274,918.7274,920.7743,return,0.6502,,1.822916667,,,,,,FBP-YG-18.png,0.35,1.2,21,1,,,,,,,,,,,,,0,41,41,20,1,,,,,,,,,,,,,,,,,,,,,,,,,,,,
,,,,,V1_014,21,F,2024-05-14_15h59.48.740,jersey_experiment_5_v1,2023.2.2,Win32,85.47008547,,,,,,,,,,,,,,,,920.7746,922.5745,922.5745,924.351,return,0.5681,,24.86979167,,,,,,FBP-YG-17.png,0.37,1.2,17,1,,,,,,,,,,,,,0,42,42,16,1,,,,,,,,,,,,,,,,,,,,,,,,,,,,
,,,,,V1_014,21,F,2024-05-14_15h59.48.740,jersey_experiment_5_v1,2023.2.2,Win32,85.47008547,,,,,,,,,,,,,,,,924.3511,925.6451,925.6452,927.4451,return,0.6217,,75,,,,,,FBP-PT-71.png,0.43,1.2,4,0.5,,,,,,,,,,,,,0,43,43,3,1,,,,,,,,,,,,,,,,,,,,,,,,,,,,
,,,,,V1_014,21,F,2024-05-14_15h59.48.740,jersey_experiment_5_v1,2023.2.2,Win32,85.47008547,,,,,,,,,,,,,,,,927.4454,929.2452,929.2452,931.4688,return,0.6522,,50,,,,,,FBP-YG-19.png,0.4,1.2,28,1,,,,,,,,,,,,,0,44,44,27,1,,,,,,,,,,,,,,,,,,,,,,,,,,,,
,,,,,V1_014,21,F,2024-05-14_15h59.48.740,jersey_experiment_5_v1,2023.2.2,Win32,85.47008547,,,,,,,,,,,,,,,,931.4691,933.2692,933.2692,934.7629,return,0.6541,,97.65625,,,,,,FBP-YG-19.png,0.45,1.2,30,1,,,,,,,,,,,,,0,45,45,29,1,,,,,,,,,,,,,,,,,,,,,,,,,,,,
,,,,,V1_014,21,F,2024-05-14_15h59.48.740,jersey_experiment_5_v1,2023.2.2,Win32,85.47008547,,,,,,,,,,,,,,,,934.7632,936.5632,936.5633,938.5161,return,0.6491,,74.86979167,,,,,,FBP-RB-81.png,0.4,1.2,53,1,,,,,,,,,,,,,0,46,46,52,1,,,,,,,,,,,,,,,,,,,,,,,,,,,,
,,,,,V1_014,21,F,2024-05-14_15h59.48.740,jersey_experiment_5_v1,2023.2.2,Win32,85.47008547,,,,,,,,,,,,,,,,938.5165,940.3164,940.3164,942.6574,return,0.6258,,25.13020833,,,,,,FBP-RB-71.png,0.35,1.2,46,1,,,,,,,,,,,,,0,47,47,45,1,,,,,,,,,,,,,,,,,,,,,,,,,,,,
,,,,,V1_014,21,F,2024-05-14_15h59.48.740,jersey_experiment_5_v1,2023.2.2,Win32,85.47008547,,,,,,,,,,,,,,,,942.6576,944.4575,944.4575,946.1165,return,0.6349,,18.09895833,,,,,,FBP-RB-71.png,0.37,1.2,47,1,,,,,,,,,,,,,0,48,48,46,1,,,,,,,,,,,,,,,,,,,,,,,,,,,,
,,,,,V1_014,21,F,2024-05-14_15h59.48.740,jersey_experiment_5_v1,2023.2.2,Win32,85.47008547,,,,,,,,,,,,,,,,946.1167,947.4106,947.4106,950.7166,return,0.6989,,37.63020833,,,,,,FBP-PT-71.png,0.4,1.2,3,0.5,,,,,,,,,,,,,0,49,49,2,1,,,,,,,,,,,,,,,,,,,,,,,,,,,,
,,,,,V1_014,21,F,2024-05-14_15h59.48.740,jersey_experiment_5_v1,2023.2.2,Win32,85.47008547,,,,,,,,,,,,,,,,950.7168,952.0107,952.0107,954.2227,return,0.6035,,74.21875,,,,,,FBP-PT-81.png,0.45,1.2,10,0.5,,,,,,,,,,,,,0,50,50,9,1,,,,,,,,,,,,,,,,,,,,,,,,,,,,
,,,,,V1_014,21,F,2024-05-14_15h59.48.740,jersey_experiment_5_v1,2023.2.2,Win32,85.47008547,,,,,,,,,,,,,,,,954.2228,956.0229,956.0229,957.9873,return,0.6451,,49.21875,,,,,,FBP-OG-18.png,0.4,1.2,38,1,,,,,,,,,,,,,0,51,51,37,1,,,,,,,,,,,,,,,,,,,,,,,,,,,,
,,,,,V1_014,21,F,2024-05-14_15h59.48.740,jersey_experiment_5_v1,2023.2.2,Win32,85.47008547,,,,,,,,,,,,,,,,957.9876,959.7875,959.7875,961.4583,return,0.6832,,62.890625,,,,,,FBP-OG-17.png,0.43,1.2,34,1,,,,,,,,,,,,,0,52,52,33,1,,,,,,,,,,,,,,,,,,,,,,,,,,,,
,,,,,V1_014,21,F,2024-05-14_15h59.48.740,jersey_experiment_5_v1,2023.2.2,Win32,85.47008547,,,,,,,,,,,,,,,,961.4584,963.2582,963.2582,964.6229,return,0.5931,,80.33854167,,,,,,FBP-YG-17.png,0.45,1.2,20,1,,,,,,,,,,,,,0,53,53,19,1,,,,,,,,,,,,,,,,,,,,,,,,,,,,
,,,,,V1_014,21,F,2024-05-14_15h59.48.740,jersey_experiment_5_v1,2023.2.2,Win32,85.47008547,,,,,,,,,,,,,,,,964.623,966.423,966.423,967.9407,return,0.6688,,82.29166667,,,,,,FBP-YG-19.png,0.43,1.2,29,1,,,,,,,,,,,,,0,54,54,28,1,,,,,,,,,,,,,,,,,,,,,,,,,,,,
,,,,,V1_014,21,F,2024-05-14_15h59.48.740,jersey_experiment_5_v1,2023.2.2,Win32,85.47008547,,,,,,,,,,,,,,,,967.9409,969.741,969.7411,971.2467,return,0.676,,7.682291667,,,,,,FBP-RB-81.png,0.35,1.2,51,1,,,,,,,,,,,,,0,55,55,50,1,,,,,,,,,,,,,,,,,,,,,,,,,,,,
,,,,,V1_014,21,F,2024-05-14_15h59.48.740,jersey_experiment_5_v1,2023.2.2,Win32,85.47008547,,,,,,,,,,,,,,,,971.247,973.0468,973.0469,976.3998,return,0.6135,,62.109375,,,,,,FBP-RB-81.png,0.43,1.2,54,1,,,,,,,,,,,,,0,56,56,53,1,,,,,,,,,,,,,,,,,,,,,,,,,,,,
,,,,,V1_014,21,F,2024-05-14_15h59.48.740,jersey_experiment_5_v1,2023.2.2,Win32,85.47008547,,,,,,,,,,,,,,,,976.4,978.2,978.2,979.7764,return,0.6623,,75.13020833,,,,,,FBP-RB-91.png,0.45,1.2,60,1,,,,,,,,,,,,,0,57,57,59,1,,,,,,,,,,,,,,,,,,,,,,,,,,,,
,,,,,V1_014,21,F,2024-05-14_15h59.48.740,jersey_experiment_5_v1,2023.2.2,Win32,85.47008547,,,,,,,,,,,,,,,,979.7767,981.5767,981.5767,983.0707,return,0.6497,,25.26041667,,,,,,FBP-OG-18.png,0.37,1.2,37,1,,,,,,,,,,,,,0,58,58,36,1,,,,,,,,,,,,,,,,,,,,,,,,,,,,
,,,,,V1_014,21,F,2024-05-14_15h59.48.740,jersey_experiment_5_v1,2023.2.2,Win32,85.47008547,,,,,,,,,,,,,,,,983.0709,984.8709,984.8709,986.6708,return,0.6167,,50,,,,,,FBP-OG-18.png,0.43,1.2,39,1,,,,,,,,,,,,,0,59,59,38,1,,,,,,,,,,,,,,,,,,,,,,,,,,,,
,,,,,V1_014,21,F,2024-05-14_15h59.48.740,jersey_experiment_5_v1,2023.2.2,Win32,85.47008547,,,,,,,,,,,,,,,,986.6728,988.471,988.471,990.3416,return,0.6684,,24.08854167,,,,,,FBP-YG-71.png,0.37,1.2,17,1,,,,,,,,,,,,,,,,,,0,0,0,16,1,,,,,,,,,,,,,,,,,,,,,,,
,,,,,V1_014,21,F,2024-05-14_15h59.48.740,jersey_experiment_5_v1,2023.2.2,Win32,85.47008547,,,,,,,,,,,,,,,,990.342,992.1417,992.1417,993.8593,return,0.6731,,24.609375,,,,,,FBP-YG-81.png,0.35,1.2,21,1,,,,,,,,,,,,,,,,,,0,1,1,20,1,,,,,,,,,,,,,,,,,,,,,,,
,,,,,V1_014,21,F,2024-05-14_15h59.48.740,jersey_experiment_5_v1,2023.2.2,Win32,85.47008547,,,,,,,,,,,,,,,,993.8595,995.6594,995.6595,997.1065,return,0.6254,,12.76041667,,,,,,FBP-RB-17.png,0.35,1.2,46,1,,,,,,,,,,,,,,,,,,0,2,2,45,1,,,,,,,,,,,,,,,,,,,,,,,
,,,,,V1_014,21,F,2024-05-14_15h59.48.740,jersey_experiment_5_v1,2023.2.2,Win32,85.47008547,,,,,,,,,,,,,,,,997.1067,998.9066,998.9066,1001.1889,return,0.659,,74.73958333,,,,,,FBP-OG-81.png,0.43,1.2,39,1,,,,,,,,,,,,,,,,,,0,3,3,38,1,,,,,,,,,,,,,,,,,,,,,,,
,,,,,V1_014,21,F,2024-05-14_15h59.48.740,jersey_experiment_5_v1,2023.2.2,Win32,85.47008547,,,,,,,,,,,,,,,,1001.1891,1002.4831,1002.4831,1004.2832,return,0.6882,,24.08854167,,,,,,FBP-PT-18.png,0.35,1.2,6,0.5,,,,,,,,,,,,,,,,,,0,4,4,5,1,,,,,,,,,,,,,,,,,,,,,,,
,,,,,V1_014,21,F,2024-05-14_15h59.48.740,jersey_experiment_5_v1,2023.2.2,Win32,85.47008547,,,,,,,,,,,,,,,,1004.2834,1006.0833,1006.0834,1007.601,return,0.6731,,24.86979167,,,,,,FBP-RB-18.png,0.37,1.2,52,1,,,,,,,,,,,,,,,,,,0,5,5,51,1,,,,,,,,,,,,,,,,,,,,,,,
,,,,,V1_014,21,F,2024-05-14_15h59.48.740,jersey_experiment_5_v1,2023.2.2,Win32,85.47008547,,,,,,,,,,,,,,,,1007.6013,1009.401,1009.401,1011.3304,return,0.6601,,49.609375,,,,,,FBP-YG-81.png,0.4,1.2,23,1,,,,,,,,,,,,,,,,,,0,6,6,22,1,,,,,,,,,,,,,,,,,,,,,,,
,,,,,V1_014,21,F,2024-05-14_15h59.48.740,jersey_experiment_5_v1,2023.2.2,Win32,85.47008547,,,,,,,,,,,,,,,,1011.3307,1012.6248,1012.6248,1013.7895,return,0.6162,,49.73958333,,,,,,FBP-PT-19.png,0.4,1.2,13,0.5,,,,,,,,,,,,,,,,,,0,7,7,12,1,,,,,,,,,,,,,,,,,,,,,,,
,,,,,V1_014,21,F,2024-05-14_15h59.48.740,jersey_experiment_5_v1,2023.2.2,Win32,85.47008547,,,,,,,,,,,,,,,,1013.7897,1015.0837,1015.0837,1016.8953,return,0.6616,,74.86979167,,,,,,FBP-PT-18.png,0.45,1.2,10,0.5,,,,,,,,,,,,,,,,,,0,8,8,9,1,,,,,,,,,,,,,,,,,,,,,,,
,,,,,V1_014,21,F,2024-05-14_15h59.48.740,jersey_experiment_5_v1,2023.2.2,Win32,85.47008547,,,,,,,,,,,,,,,,1016.8956,1018.6956,1018.6957,1021.1897,return,0.7622,,25,,,,,,FBP-RB-17.png,0.37,1.2,47,1,,,,,,,,,,,,,,,,,,0,9,9,46,1,,,,,,,,,,,,,,,,,,,,,,,
,,,,,V1_014,21,F,2024-05-14_15h59.48.740,jersey_experiment_5_v1,2023.2.2,Win32,85.47008547,,,,,,,,,,,,,,,,1021.19,1022.9898,1022.9898,1025.0253,return,0.6853,,49.86979167,,,,,,FBP-OG-71.png,0.4,1.2,33,1,,,,,,,,,,,,,,,,,,0,10,10,32,1,,,,,,,,,,,,,,,,,,,,,,,
,,,,,V1_014,21,F,2024-05-14_15h59.48.740,jersey_experiment_5_v1,2023.2.2,Win32,85.47008547,,,,,,,,,,,,,,,,1025.0256,1026.8252,1026.8252,1028.1076,return,0.8084,,49.86979167,,,,,,FBP-YG-91.png,0.4,1.2,28,1,,,,,,,,,,,,,,,,,,0,11,11,27,1,,,,,,,,,,,,,,,,,,,,,,,
,,,,,V1_014,21,F,2024-05-14_15h59.48.740,jersey_experiment_5_v1,2023.2.2,Win32,85.47008547,,,,,,,,,,,,,,,,1028.1077,1029.9078,1029.9078,1031.1076,return,0.683,,49.86979167,,,,,,FBP-RB-17.png,0.4,1.2,48,1,,,,,,,,,,,,,,,,,,0,12,12,47,1,,,,,,,,,,,,,,,,,,,,,,,
,,,,,V1_014,21,F,2024-05-14_15h59.48.740,jersey_experiment_5_v1,2023.2.2,Win32,85.47008547,,,,,,,,,,,,,,,,1031.1079,1032.9077,1032.9077,1034.5784,return,0.7404,,75.390625,,,,,,FBP-OG-81.png,0.45,1.2,40,1,,,,,,,,,,,,,,,,,,0,13,13,39,1,,,,,,,,,,,,,,,,,,,,,,,
,,,,,V1_014,21,F,2024-05-14_15h59.48.740,jersey_experiment_5_v1,2023.2.2,Win32,85.47008547,,,,,,,,,,,,,,,,1034.5786,1035.8725,1035.8725,1037.3314,return,0.6825,,74.47916667,,,,,,FBP-PT-19.png,0.43,1.2,14,0.5,,,,,,,,,,,,,,,,,,0,14,14,13,1,,,,,,,,,,,,,,,,,,,,,,,
,,,,,V1_014,21,F,2024-05-14_15h59.48.740,jersey_experiment_5_v1,2023.2.2,Win32,85.47008547,,,,,,,,,,,,,,,,1037.3316,1039.1316,1039.1316,1041.6493,return,0.7441,,80.078125,,,,,,FBP-OG-91.png,0.43,1.2,44,1,,,,,,,,,,,,,,,,,,0,15,15,43,1,,,,,,,,,,,,,,,,,,,,,,,
,,,,,V1_014,21,F,2024-05-14_15h59.48.740,jersey_experiment_5_v1,2023.2.2,Win32,85.47008547,,,,,,,,,,,,,,,,1041.6495,1043.4494,1043.4495,1046.4494,return,0.7908,,28.38541667,,,,,,FBP-YG-91.png,0.37,1.2,27,1,,,,,,,,,,,,,,,,,,0,16,16,26,1,,,,,,,,,,,,,,,,,,,,,,,
,,,,,V1_014,21,F,2024-05-14_15h59.48.740,jersey_experiment_5_v1,2023.2.2,Win32,85.47008547,,,,,,,,,,,,,,,,1046.4497,1048.2494,1048.2495,1050.332,return,1.0177,,11.328125,,,,,,FBP-YG-71.png,0.35,1.2,16,1,,,,,,,,,,,,,,,,,,0,17,17,15,1,,,,,,,,,,,,,,,,,,,,,,,
,,,,,V1_014,21,F,2024-05-14_15h59.48.740,jersey_experiment_5_v1,2023.2.2,Win32,85.47008547,,,,,,,,,,,,,,,,1050.3322,1052.1319,1052.1319,1053.9557,return,0.7207,,25,,,,,,FBP-OG-81.png,0.37,1.2,37,1,,,,,,,,,,,,,,,,,,0,18,18,36,1,,,,,,,,,,,,,,,,,,,,,,,
,,,,,V1_014,21,F,2024-05-14_15h59.48.740,jersey_experiment_5_v1,2023.2.2,Win32,85.47008547,,,,,,,,,,,,,,,,1053.9558,1055.7558,1055.7558,1057.2615,return,0.6988,,11.06770833,,,,,,FBP-OG-91.png,0.35,1.2,41,1,,,,,,,,,,,,,,,,,,0,19,19,40,1,,,,,,,,,,,,,,,,,,,,,,,
,,,,,V1_014,21,F,2024-05-14_15h59.48.740,jersey_experiment_5_v1,2023.2.2,Win32,85.47008547,,,,,,,,,,,,,,,,1057.2617,1059.0618,1059.0618,1061.2616,return,0.7684,,49.609375,,,,,,FBP-RB-18.png,0.4,1.2,53,1,,,,,,,,,,,,,,,,,,0,20,20,52,1,,,,,,,,,,,,,,,,,,,,,,,
,,,,,V1_014,21,F,2024-05-14_15h59.48.740,jersey_experiment_5_v1,2023.2.2,Win32,85.47008547,,,,,,,,,,,,,,,,1061.2619,1063.062,1063.062,1064.7089,return,0.72,,89.0625,,,,,,FBP-RB-18.png,0.45,1.2,55,1,,,,,,,,,,,,,,,,,,0,21,21,54,1,,,,,,,,,,,,,,,,,,,,,,,
,,,,,V1_014,21,F,2024-05-14_15h59.48.740,jersey_experiment_5_v1,2023.2.2,Win32,85.47008547,,,,,,,,,,,,,,,,1064.7092,1066.5091,1066.5092,1068.4503,return,0.6823,,24.34895833,,,,,,FBP-OG-81.png,0.35,1.2,36,1,,,,,,,,,,,,,,,,,,0,22,22,35,1,,,,,,,,,,,,,,,,,,,,,,,
,,,,,V1_014,21,F,2024-05-14_15h59.48.740,jersey_experiment_5_v1,2023.2.2,Win32,85.47008547,,,,,,,,,,,,,,,,1068.4505,1069.7444,1069.7444,1071.1327,return,0.7007,,24.34895833,,,,,,FBP-PT-19.png,0.37,1.2,12,0.5,,,,,,,,,,,,,,,,,,0,23,23,11,1,,,,,,,,,,,,,,,,,,,,,,,
,,,,,V1_014,21,F,2024-05-14_15h59.48.740,jersey_experiment_5_v1,2023.2.2,Win32,85.47008547,,,,,,,,,,,,,,,,1071.1329,1072.9327,1072.9328,1075.3917,return,0.7222,,64.84375,,,,,,FBP-OG-91.png,0.4,1.2,43,1,,,,,,,,,,,,,,,,,,0,24,24,42,1,,,,,,,,,,,,,,,,,,,,,,,
,,,,,V1_014,21,F,2024-05-14_15h59.48.740,jersey_experiment_5_v1,2023.2.2,Win32,85.47008547,,,,,,,,,,,,,,,,1075.3919,1077.1919,1077.1919,1078.8977,return,0.7298,,97.78645833,,,,,,FBP-RB-19.png,0.45,1.2,60,1,,,,,,,,,,,,,,,,,,0,25,25,59,1,,,,,,,,,,,,,,,,,,,,,,,
,,,,,V1_014,21,F,2024-05-14_15h59.48.740,jersey_experiment_5_v1,2023.2.2,Win32,85.47008547,,,,,,,,,,,,,,,,1078.8979,1080.6977,1080.6977,1082.4627,return,0.7585,,98.828125,,,,,,FBP-OG-91.png,0.45,1.2,45,1,,,,,,,,,,,,,,,,,,0,26,26,44,1,,,,,,,,,,,,,,,,,,,,,,,
,,,,,V1_014,21,F,2024-05-14_15h59.48.740,jersey_experiment_5_v1,2023.2.2,Win32,85.47008547,,,,,,,,,,,,,,,,1082.4629,1084.2628,1084.2628,1086.1803,return,0.7399,,98.17708333,,,,,,FBP-RB-17.png,0.43,1.2,49,1,,,,,,,,,,,,,,,,,,0,27,27,48,1,,,,,,,,,,,,,,,,,,,,,,,
,,,,,V1_014,21,F,2024-05-14_15h59.48.740,jersey_experiment_5_v1,2023.2.2,Win32,85.47008547,,,,,,,,,,,,,,,,1086.1805,1087.4745,1087.4745,1089.0508,return,0.6779,,98.046875,,,,,,FBP-PT-17.png,0.43,1.2,4,0.5,,,,,,,,,,,,,,,,,,0,28,28,3,1,,,,,,,,,,,,,,,,,,,,,,,
,,,,,V1_014,21,F,2024-05-14_15h59.48.740,jersey_experiment_5_v1,2023.2.2,Win32,85.47008547,,,,,,,,,,,,,,,,1089.051,1090.8513,1090.8513,1092.6277,return,0.7163,,74.609375,,,,,,FBP-OG-81.png,0.4,1.2,38,1,,,,,,,,,,,,,,,,,,0,29,29,37,1,,,,,,,,,,,,,,,,,,,,,,,
,,,,,V1_014,21,F,2024-05-14_15h59.48.740,jersey_experiment_5_v1,2023.2.2,Win32,85.47008547,,,,,,,,,,,,,,,,1092.628,1094.4278,1094.4279,1097.0395,return,2.0264,,88.80208333,,,,,,FBP-OG-71.png,0.43,1.2,34,1,,,,,,,,,,,,,,,,,,0,30,30,33,1,,,,,,,,,,,,,,,,,,,,,,,
,,,,,V1_014,21,F,2024-05-14_15h59.48.740,jersey_experiment_5_v1,2023.2.2,Win32,85.47008547,,,,,,,,,,,,,,,,1097.0398,1098.8397,1098.8398,1100.3574,return,0.7194,,98.828125,,,,,,FBP-YG-81.png,0.45,1.2,25,1,,,,,,,,,,,,,,,,,,0,31,31,24,1,,,,,,,,,,,,,,,,,,,,,,,
,,,,,V1_014,21,F,2024-05-14_15h59.48.740,jersey_experiment_5_v1,2023.2.2,Win32,85.47008547,,,,,,,,,,,,,,,,1100.3576,1102.1574,1102.1574,1103.5339,return,0.7241,,99.34895833,,,,,,FBP-YG-91.png,0.45,1.2,30,1,,,,,,,,,,,,,,,,,,0,32,32,29,1,,,,,,,,,,,,,,,,,,,,,,,
,,,,,V1_014,21,F,2024-05-14_15h59.48.740,jersey_experiment_5_v1,2023.2.2,Win32,85.47008547,,,,,,,,,,,,,,,,1103.5341,1104.828,1104.8281,1106.1338,return,0.6824,,99.34895833,,,,,,FBP-PT-17.png,0.45,1.2,5,0.5,,,,,,,,,,,,,,,,,,0,33,33,4,1,,,,,,,,,,,,,,,,,,,,,,,
,,,,,V1_014,21,F,2024-05-14_15h59.48.740,jersey_experiment_5_v1,2023.2.2,Win32,85.47008547,,,,,,,,,,,,,,,,1106.134,1107.4282,1107.4282,1109.5342,return,0.6629,,49.73958333,,,,,,FBP-PT-17.png,0.4,1.2,3,0.5,,,,,,,,,,,,,,,,,,0,34,34,2,1,,,,,,,,,,,,,,,,,,,,,,,
,,,,,V1_014,21,F,2024-05-14_15h59.48.740,jersey_experiment_5_v1,2023.2.2,Win32,85.47008547,,,,,,,,,,,,,,,,1109.5345,1111.3343,1111.3343,1113.0518,return,0.7708,,24.08854167,,,,,,FBP-OG-71.png,0.37,1.2,32,1,,,,,,,,,,,,,,,,,,0,35,35,31,1,,,,,,,,,,,,,,,,,,,,,,,
,,,,,V1_014,21,F,2024-05-14_15h59.48.740,jersey_experiment_5_v1,2023.2.2,Win32,85.47008547,,,,,,,,,,,,,,,,1113.052,1114.8522,1114.8522,1116.4991,return,0.6731,,75,,,,,,FBP-OG-71.png,0.45,1.2,35,1,,,,,,,,,,,,,,,,,,0,36,36,34,1,,,,,,,,,,,,,,,,,,,,,,,
,,,,,V1_014,21,F,2024-05-14_15h59.48.740,jersey_experiment_5_v1,2023.2.2,Win32,85.47008547,,,,,,,,,,,,,,,,1116.4993,1118.2992,1118.2992,1119.8991,return,0.7002,,23.95833333,,,,,,FBP-YG-91.png,0.35,1.2,26,1,,,,,,,,,,,,,,,,,,0,37,37,25,1,,,,,,,,,,,,,,,,,,,,,,,
,,,,,V1_014,21,F,2024-05-14_15h59.48.740,jersey_experiment_5_v1,2023.2.2,Win32,85.47008547,,,,,,,,,,,,,,,,1119.8994,1121.6994,1121.6994,1123.6641,return,0.7334,,74.21875,,,,,,FBP-YG-71.png,0.45,1.2,20,1,,,,,,,,,,,,,,,,,,0,38,38,19,1,,,,,,,,,,,,,,,,,,,,,,,
,,,,,V1_014,21,F,2024-05-14_15h59.48.740,jersey_experiment_5_v1,2023.2.2,Win32,85.47008547,,,,,,,,,,,,,,,,1123.6643,1124.9582,1124.9582,1126.4171,return,0.648,,74.34895833,,,,,,FBP-PT-18.png,0.43,1.2,9,0.5,,,,,,,,,,,,,,,,,,0,39,39,8,1,,,,,,,,,,,,,,,,,,,,,,,
,,,,,V1_014,21,F,2024-05-14_15h59.48.740,jersey_experiment_5_v1,2023.2.2,Win32,85.47008547,,,,,,,,,,,,,,,,1126.4172,1128.2171,1128.2171,1130.3231,return,0.6919,,64.0625,,,,,,FBP-YG-71.png,0.4,1.2,18,1,,,,,,,,,,,,,,,,,,0,40,40,17,1,,,,,,,,,,,,,,,,,,,,,,,
,,,,,V1_014,21,F,2024-05-14_15h59.48.740,jersey_experiment_5_v1,2023.2.2,Win32,85.47008547,,,,,,,,,,,,,,,,1130.3233,1132.1231,1132.1232,1133.6996,return,0.6571,,70.05208333,,,,,,FBP-YG-71.png,0.43,1.2,19,1,,,,,,,,,,,,,,,,,,0,41,41,18,1,,,,,,,,,,,,,,,,,,,,,,,
,,,,,V1_014,21,F,2024-05-14_15h59.48.740,jersey_experiment_5_v1,2023.2.2,Win32,85.47008547,,,,,,,,,,,,,,,,1133.6998,1135.4998,1135.4998,1138.6411,return,0.7062,,46.09375,,,,,,FBP-OG-71.png,0.35,1.2,31,1,,,,,,,,,,,,,,,,,,0,42,42,30,1,,,,,,,,,,,,,,,,,,,,,,,
,,,,,V1_014,21,F,2024-05-14_15h59.48.740,jersey_experiment_5_v1,2023.2.2,Win32,85.47008547,,,,,,,,,,,,,,,,1138.6413,1139.9352,1139.9352,1141.8528,return,0.6989,,25,,,,,,FBP-PT-19.png,0.35,1.2,11,0.5,,,,,,,,,,,,,,,,,,0,43,43,10,1,,,,,,,,,,,,,,,,,,,,,,,
,,,,,V1_014,21,F,2024-05-14_15h59.48.740,jersey_experiment_5_v1,2023.2.2,Win32,85.47008547,,,,,,,,,,,,,,,,1141.8531,1143.1469,1143.1469,1145.5001,return,0.7372,,82.68229167,,,,,,FBP-PT-19.png,0.45,1.2,15,0.5,,,,,,,,,,,,,,,,,,0,44,44,14,1,,,,,,,,,,,,,,,,,,,,,,,
,,,,,V1_014,21,F,2024-05-14_15h59.48.740,jersey_experiment_5_v1,2023.2.2,Win32,85.47008547,,,,,,,,,,,,,,,,1145.5004,1147.3004,1147.3004,1149.0885,return,0.7068,,74.86979167,,,,,,FBP-RB-19.png,0.43,1.2,59,1,,,,,,,,,,,,,,,,,,0,45,45,58,1,,,,,,,,,,,,,,,,,,,,,,,
,,,,,V1_014,21,F,2024-05-14_15h59.48.740,jersey_experiment_5_v1,2023.2.2,Win32,85.47008547,,,,,,,,,,,,,,,,1149.0887,1150.8885,1150.8885,1152.7358,return,0.8157,,84.89583333,,,,,,FBP-YG-91.png,0.43,1.2,29,1,,,,,,,,,,,,,,,,,,0,46,46,28,1,,,,,,,,,,,,,,,,,,,,,,,
,,,,,V1_014,21,F,2024-05-14_15h59.48.740,jersey_experiment_5_v1,2023.2.2,Win32,85.47008547,,,,,,,,,,,,,,,,1152.736,1154.5356,1154.5356,1156.4181,return,0.7171,,89.58333333,,,,,,FBP-RB-17.png,0.45,1.2,50,1,,,,,,,,,,,,,,,,,,0,47,47,49,1,,,,,,,,,,,,,,,,,,,,,,,
,,,,,V1_014,21,F,2024-05-14_15h59.48.740,jersey_experiment_5_v1,2023.2.2,Win32,85.47008547,,,,,,,,,,,,,,,,1156.4184,1157.7123,1157.7123,1159.8889,return,0.6737,,24.47916667,,,,,,FBP-PT-17.png,0.37,1.2,2,0.5,,,,,,,,,,,,,,,,,,0,48,48,1,1,,,,,,,,,,,,,,,,,,,,,,,
,,,,,V1_014,21,F,2024-05-14_15h59.48.740,jersey_experiment_5_v1,2023.2.2,Win32,85.47008547,,,,,,,,,,,,,,,,1159.8892,1161.6889,1161.6889,1163.8891,return,0.8386,,12.890625,,,,,,FBP-RB-19.png,0.35,1.2,56,1,,,,,,,,,,,,,,,,,,0,49,49,55,1,,,,,,,,,,,,,,,,,,,,,,,
,,,,,V1_014,21,F,2024-05-14_15h59.48.740,jersey_experiment_5_v1,2023.2.2,Win32,85.47008547,,,,,,,,,,,,,,,,1163.8894,1165.6891,1165.6891,1168.3363,return,0.6741,,75,,,,,,FBP-RB-18.png,0.43,1.2,54,1,,,,,,,,,,,,,,,,,,0,50,50,53,1,,,,,,,,,,,,,,,,,,,,,,,
,,,,,V1_014,21,F,2024-05-14_15h59.48.740,jersey_experiment_5_v1,2023.2.2,Win32,85.47008547,,,,,,,,,,,,,,,,1168.3365,1170.1365,1170.1365,1171.5245,return,0.6446,,24.73958333,,,,,,FBP-RB-18.png,0.35,1.2,51,1,,,,,,,,,,,,,,,,,,0,51,51,50,1,,,,,,,,,,,,,,,,,,,,,,,
,,,,,V1_014,21,F,2024-05-14_15h59.48.740,jersey_experiment_5_v1,2023.2.2,Win32,85.47008547,,,,,,,,,,,,,,,,1171.5248,1173.3248,1173.3248,1175.1836,return,0.6847,,50.13020833,,,,,,FBP-RB-19.png,0.4,1.2,58,1,,,,,,,,,,,,,,,,,,0,52,52,57,1,,,,,,,,,,,,,,,,,,,,,,,
,,,,,V1_014,21,F,2024-05-14_15h59.48.740,jersey_experiment_5_v1,2023.2.2,Win32,85.47008547,,,,,,,,,,,,,,,,1175.1838,1176.9836,1176.9836,1179.1367,return,1.2243,,34.89583333,,,,,,FBP-OG-91.png,0.37,1.2,42,1,,,,,,,,,,,,,,,,,,0,53,53,41,1,,,,,,,,,,,,,,,,,,,,,,,
,,,,,V1_014,21,F,2024-05-14_15h59.48.740,jersey_experiment_5_v1,2023.2.2,Win32,85.47008547,,,,,,,,,,,,,,,,1179.1369,1180.9366,1180.9367,1182.1485,return,0.6832,,34.89583333,,,,,,FBP-RB-19.png,0.37,1.2,57,1,,,,,,,,,,,,,,,,,,0,54,54,56,1,,,,,,,,,,,,,,,,,,,,,,,
,,,,,V1_014,21,F,2024-05-14_15h59.48.740,jersey_experiment_5_v1,2023.2.2,Win32,85.47008547,,,,,,,,,,,,,,,,1182.1486,1183.9488,1183.9488,1185.9721,return,0.7155,,74.86979167,,,,,,FBP-YG-81.png,0.43,1.2,24,1,,,,,,,,,,,,,,,,,,0,55,55,23,1,,,,,,,,,,,,,,,,,,,,,,,
,,,,,V1_014,21,F,2024-05-14_15h59.48.740,jersey_experiment_5_v1,2023.2.2,Win32,85.47008547,,,,,,,,,,,,,,,,1185.9724,1187.7722,1187.7722,1189.5841,return,0.6376,,50,,,,,,FBP-YG-81.png,0.37,1.2,22,1,,,,,,,,,,,,,,,,,,0,56,56,21,1,,,,,,,,,,,,,,,,,,,,,,,
,,,,,V1_014,21,F,2024-05-14_15h59.48.740,jersey_experiment_5_v1,2023.2.2,Win32,85.47008547,,,,,,,,,,,,,,,,1189.5842,1190.8782,1190.8783,1192.1135,return,0.6705,,50,,,,,,FBP-PT-18.png,0.4,1.2,8,0.5,,,,,,,,,,,,,,,,,,0,57,57,7,1,,,,,,,,,,,,,,,,,,,,,,,
,,,,,V1_014,21,F,2024-05-14_15h59.48.740,jersey_experiment_5_v1,2023.2.2,Win32,85.47008547,,,,,,,,,,,,,,,,1192.1137,1193.4076,1193.4077,1195.4078,return,0.6262,,25.390625,,,,,,FBP-PT-18.png,0.37,1.2,7,0.5,,,,,,,,,,,,,,,,,,0,58,58,6,1,,,,,,,,,,,,,,,,,,,,,,,
,,,,,V1_014,21,F,2024-05-14_15h59.48.740,jersey_experiment_5_v1,2023.2.2,Win32,85.47008547,,,,,,,,,,,,,,,,1195.4081,1196.7019,1196.7019,1198.4197,return,0.6121,,7.552083333,,,,,,FBP-PT-17.png,0.35,1.2,1,0.5,,,,,,,,,,,,,,,,,,0,59,59,0,1,,,,,,,,,,,,,,,,,,,,,,,
,,,,,V1_014,21,F,2024-05-14_15h59.48.740,jersey_experiment_5_v1,2023.2.2,Win32,85.47008547,,,,,,,,,,,,,,,,,,,,,,,,,,,,,,,,,,,,,,,,,,,,,,,,,,,,,,,,1198.4201,1205.3027,return,6.8711,,,,,,,,,,,,,,,,,,,
,,,,,V1_014,21,F,2024-05-14_15h59.48.740,jersey_experiment_5_v1,2023.2.2,Win32,85.47008547,,,,,,,,,,,,,,,,,,,,,,,,,,,,,,,,,,,,,,,,,,,,,,,,,,,,,,,,,,,,,1205.3028,1212.0204,1,5.1919,return,1.5059,,,,,,,,,,,,
,,,,,V1_014,21,F,2024-05-14_15h59.48.740,jersey_experiment_5_v1,2023.2.2,Win32,85.47008547,,,,,,,,,,,,,,,,,,,,,,,,,,,,,,,,,,,,,,,,,,,,,,,,,,,,,,,,,,,,,,,,,,,,1212.0205,1242.4263,racial difference,right,20.8806,,,,,,
,,,,,V1_014,21,F,2024-05-14_15h59.48.740,jersey_experiment_5_v1,2023.2.2,Win32,85.47008547,,,,,,,,,,,,,,,,,,,,,,,,,,,,,,,,,,,,,,,,,,,,,,,,,,,,,,,,,,,,,,,,,,,,,,,,,,1242.4264,1246.9981,return,4.559,