requirements.started,requirements.stopped,key_resp_3.keys,key_resp_3.rt,key_resp_3.duration,Subject ID,Age,Gender,date,expName,psychopyVersion,OS,frameRate,instructions1.started,instructions1.stopped,key_resp.keys,key_resp.rt,key_resp.duration,example.started,example.stopped,enter_2.keys,enter_2.rt,enter_2.duration,instructions2.started,instructions2.stopped,enter_3.keys,enter_3.rt,enter_3.duration,image.started,image.stopped,slider_2.started,slider_2.stopped,next.keys,next.rt,next.duration,slider.response,trial_block_1.thisRepN,trial_block_1.thisTrialN,trial_block_1.thisN,trial_block_1.thisIndex,trial_block_1.ran,Path,Width,Height,Index,Duration,trial_block_2.thisRepN,trial_block_2.thisTrialN,trial_block_2.thisN,trial_block_2.thisIndex,trial_block_2.ran,rest_break.started,rest_break.stopped,end_break.started,end_break.stopped,key_resp_5.keys,key_resp_5.rt,key_resp_5.duration,trial_block_3.thisRepN,trial_block_3.thisTrialN,trial_block_3.thisN,trial_block_3.thisIndex,trial_block_3.ran,trial_block_4.thisRepN,trial_block_4.thisTrialN,trial_block_4.thisN,trial_block_4.thisIndex,trial_block_4.ran,questions_intro.started,questions_intro.stopped,enter_12.keys,enter_12.rt,enter_12.duration,question2.started,question2.stopped,question_doingbest.response,question_doingbest.rt,enter_15.keys,enter_15.rt,enter_15.duration,pattern.started,pattern.stopped,pattern_2.text,enter_17.keys,enter_17.rt,enter_17.duration,thankyou.started,thankyou.stopped,enter_14.keys,enter_14.rt,enter_14.duration
0.0001,7.0057,return,6.9927,,v1_035,18,Female,2024-05-23_09h56.16.868,jersey_experiment_5_v1,2023.2.2,Win32,84.03361345,,,,,,,,,,,,,,,,,,,,,,,,,,,,,,,,,,,,,,,,,,,,,,,,,,,,,,,,,,,,,,,,,,,,,,,,,,,,,,
,,,,,v1_035,18,Female,2024-05-23_09h56.16.868,jersey_experiment_5_v1,2023.2.2,Win32,84.03361345,7.0058,16.4341,return,9.4122,,,,,,,,,,,,,,,,,,,,,,,,,,,,,,,,,,,,,,,,,,,,,,,,,,,,,,,,,,,,,,,,,,,,,,,,,,
,,,,,v1_035,18,Female,2024-05-23_09h56.16.868,jersey_experiment_5_v1,2023.2.2,Win32,84.03361345,,,,,,16.4342,20.0884,return,3.623,,,,,,,,,,,,,,,,,,,,,,,,,,,,,,,,,,,,,,,,,,,,,,,,,,,,,,,,,,,,,,,,,,,,,
,,,,,v1_035,18,Female,2024-05-23_09h56.16.868,jersey_experiment_5_v1,2023.2.2,Win32,84.03361345,,,,,,,,,,,20.0885,32.983,return,12.886,,,,,,,,,,,,,,,,,,,,,,,,,,,,,,,,,,,,,,,,,,,,,,,,,,,,,,,,,,,,,,,,
,,,,,v1_035,18,Female,2024-05-23_09h56.16.868,jersey_experiment_5_v1,2023.2.2,Win32,84.03361345,,,,,,,,,,,,,,,,32.9893,34.7827,34.7828,47.6892,return,2.1565,,50,0,0,0,0,1,FBP-PT-71.png,0.35,1.2,1,1,,,,,,,,,,,,,,,,,,,,,,,,,,,,,,,,,,,,,,,,,,,,,
,,,,,v1_035,18,Female,2024-05-23_09h56.16.868,jersey_experiment_5_v1,2023.2.2,Win32,84.03361345,,,,,,,,,,,,,,,,47.6896,49.4892,49.4893,52.6778,return,1.1949,,67.31770833,0,1,1,8,1,FBP-PT-81.png,0.43,1.2,9,1,,,,,,,,,,,,,,,,,,,,,,,,,,,,,,,,,,,,,,,,,,,,,
,,,,,v1_035,18,Female,2024-05-23_09h56.16.868,jersey_experiment_5_v1,2023.2.2,Win32,84.03361345,,,,,,,,,,,,,,,,52.6782,53.9719,53.972,57.2543,return,1.5949,,67.31770833,0,2,2,42,1,FBP-OG-19.png,0.4,1.2,43,0.5,,,,,,,,,,,,,,,,,,,,,,,,,,,,,,,,,,,,,,,,,,,,,
,,,,,v1_035,18,Female,2024-05-23_09h56.16.868,jersey_experiment_5_v1,2023.2.2,Win32,84.03361345,,,,,,,,,,,,,,,,57.2548,58.5484,58.5485,61.7956,return,1.1269,,54.03645833,0,3,3,40,1,FBP-OG-19.png,0.35,1.2,41,0.5,,,,,,,,,,,,,,,,,,,,,,,,,,,,,,,,,,,,,,,,,,,,,
,,,,,v1_035,18,Female,2024-05-23_09h56.16.868,jersey_experiment_5_v1,2023.2.2,Win32,84.03361345,,,,,,,,,,,,,,,,61.7959,63.5961,63.5961,65.784,return,1.1104,,48.69791667,0,4,4,10,1,FBP-PT-91.png,0.35,1.2,11,1,,,,,,,,,,,,,,,,,,,,,,,,,,,,,,,,,,,,,,,,,,,,,
,,,,,v1_035,18,Female,2024-05-23_09h56.16.868,jersey_experiment_5_v1,2023.2.2,Win32,84.03361345,,,,,,,,,,,,,,,,65.7844,67.0783,67.0784,69.4666,return,0.8842,,43.359375,0,5,5,30,1,FBP-OG-17.png,0.35,1.2,31,0.5,,,,,,,,,,,,,,,,,,,,,,,,,,,,,,,,,,,,,,,,,,,,,
,,,,,v1_035,18,Female,2024-05-23_09h56.16.868,jersey_experiment_5_v1,2023.2.2,Win32,84.03361345,,,,,,,,,,,,,,,,69.4668,70.7608,70.7608,73.1019,return,1.304,,74.47916667,0,6,6,17,1,FBP-YG-17.png,0.4,1.2,18,0.5,,,,,,,,,,,,,,,,,,,,,,,,,,,,,,,,,,,,,,,,,,,,,
,,,,,v1_035,18,Female,2024-05-23_09h56.16.868,jersey_experiment_5_v1,2023.2.2,Win32,84.03361345,,,,,,,,,,,,,,,,73.1022,74.3961,74.3961,76.5022,return,0.9452,,77.08333333,0,7,7,52,1,FBP-RB-81.png,0.4,1.2,53,0.5,,,,,,,,,,,,,,,,,,,,,,,,,,,,,,,,,,,,,,,,,,,,,
,,,,,v1_035,18,Female,2024-05-23_09h56.16.868,jersey_experiment_5_v1,2023.2.2,Win32,84.03361345,,,,,,,,,,,,,,,,76.5023,77.7963,77.7964,80.3492,return,0.8329,,54.94791667,0,8,8,45,1,FBP-RB-71.png,0.35,1.2,46,0.5,,,,,,,,,,,,,,,,,,,,,,,,,,,,,,,,,,,,,,,,,,,,,
,,,,,v1_035,18,Female,2024-05-23_09h56.16.868,jersey_experiment_5_v1,2023.2.2,Win32,84.03361345,,,,,,,,,,,,,,,,80.3495,81.6435,81.6435,83.7024,return,0.9448,,82.421875,0,9,9,48,1,FBP-RB-71.png,0.43,1.2,49,0.5,,,,,,,,,,,,,,,,,,,,,,,,,,,,,,,,,,,,,,,,,,,,,
,,,,,v1_035,18,Female,2024-05-23_09h56.16.868,jersey_experiment_5_v1,2023.2.2,Win32,84.03361345,,,,,,,,,,,,,,,,83.7027,84.9964,84.9964,87.279,return,1.2233,,91.66666667,0,10,10,18,1,FBP-YG-17.png,0.43,1.2,19,0.5,,,,,,,,,,,,,,,,,,,,,,,,,,,,,,,,,,,,,,,,,,,,,
,,,,,v1_035,18,Female,2024-05-23_09h56.16.868,jersey_experiment_5_v1,2023.2.2,Win32,84.03361345,,,,,,,,,,,,,,,,87.2793,88.5732,88.5732,92.2322,return,0.9552,,69.27083333,0,11,11,53,1,FBP-RB-81.png,0.43,1.2,54,0.5,,,,,,,,,,,,,,,,,,,,,,,,,,,,,,,,,,,,,,,,,,,,,
,,,,,v1_035,18,Female,2024-05-23_09h56.16.868,jersey_experiment_5_v1,2023.2.2,Win32,84.03361345,,,,,,,,,,,,,,,,92.2328,93.5262,93.5262,95.6557,return,0.7461,,49.609375,0,12,12,41,1,FBP-OG-19.png,0.37,1.2,42,0.5,,,,,,,,,,,,,,,,,,,,,,,,,,,,,,,,,,,,,,,,,,,,,
,,,,,v1_035,18,Female,2024-05-23_09h56.16.868,jersey_experiment_5_v1,2023.2.2,Win32,84.03361345,,,,,,,,,,,,,,,,95.656,97.4557,97.4558,99.6091,return,0.7563,,58.203125,0,13,13,2,1,FBP-PT-71.png,0.4,1.2,3,1,,,,,,,,,,,,,,,,,,,,,,,,,,,,,,,,,,,,,,,,,,,,,
,,,,,v1_035,18,Female,2024-05-23_09h56.16.868,jersey_experiment_5_v1,2023.2.2,Win32,84.03361345,,,,,,,,,,,,,,,,99.6096,100.9032,100.9034,110.0093,return,0.9564,,66.40625,0,14,14,33,1,FBP-OG-17.png,0.43,1.2,34,0.5,,,,,,,,,,,,,,,,,,,,,,,,,,,,,,,,,,,,,,,,,,,,,
,,,,,v1_035,18,Female,2024-05-23_09h56.16.868,jersey_experiment_5_v1,2023.2.2,Win32,84.03361345,,,,,,,,,,,,,,,,110.0099,111.3033,111.3034,112.868,return,0.7732,,81.77083333,0,15,15,39,1,FBP-OG-18.png,0.45,1.2,40,0.5,,,,,,,,,,,,,,,,,,,,,,,,,,,,,,,,,,,,,,,,,,,,,
,,,,,v1_035,18,Female,2024-05-23_09h56.16.868,jersey_experiment_5_v1,2023.2.2,Win32,84.03361345,,,,,,,,,,,,,,,,112.8683,114.1623,114.1624,116.3742,return,0.8773,,52.47395833,0,16,16,51,1,FBP-RB-81.png,0.37,1.2,52,0.5,,,,,,,,,,,,,,,,,,,,,,,,,,,,,,,,,,,,,,,,,,,,,
,,,,,v1_035,18,Female,2024-05-23_09h56.16.868,jersey_experiment_5_v1,2023.2.2,Win32,84.03361345,,,,,,,,,,,,,,,,116.3745,117.6683,117.6683,119.6685,return,0.947,,48.95833333,0,17,17,31,1,FBP-OG-17.png,0.37,1.2,32,0.5,,,,,,,,,,,,,,,,,,,,,,,,,,,,,,,,,,,,,,,,,,,,,
,,,,,v1_035,18,Female,2024-05-23_09h56.16.868,jersey_experiment_5_v1,2023.2.2,Win32,84.03361345,,,,,,,,,,,,,,,,119.6687,121.4687,121.4687,123.316,return,1.1144,,97.00520833,0,18,18,9,1,FBP-PT-81.png,0.45,1.2,10,1,,,,,,,,,,,,,,,,,,,,,,,,,,,,,,,,,,,,,,,,,,,,,
,,,,,v1_035,18,Female,2024-05-23_09h56.16.868,jersey_experiment_5_v1,2023.2.2,Win32,84.03361345,,,,,,,,,,,,,,,,123.3163,124.6097,124.6098,128.1864,return,1.9768,,37.109375,0,19,19,16,1,FBP-YG-17.png,0.37,1.2,17,0.5,,,,,,,,,,,,,,,,,,,,,,,,,,,,,,,,,,,,,,,,,,,,,
,,,,,v1_035,18,Female,2024-05-23_09h56.16.868,jersey_experiment_5_v1,2023.2.2,Win32,84.03361345,,,,,,,,,,,,,,,,128.1865,129.4806,129.4806,131.3867,return,1.0495,,67.96875,0,20,20,54,1,FBP-RB-81.png,0.45,1.2,55,0.5,,,,,,,,,,,,,,,,,,,,,,,,,,,,,,,,,,,,,,,,,,,,,
,,,,,v1_035,18,Female,2024-05-23_09h56.16.868,jersey_experiment_5_v1,2023.2.2,Win32,84.03361345,,,,,,,,,,,,,,,,131.387,132.6807,132.6808,134.916,return,0.7736,,49.86979167,0,21,21,21,1,FBP-YG-18.png,0.37,1.2,22,0.5,,,,,,,,,,,,,,,,,,,,,,,,,,,,,,,,,,,,,,,,,,,,,
,,,,,v1_035,18,Female,2024-05-23_09h56.16.868,jersey_experiment_5_v1,2023.2.2,Win32,84.03361345,,,,,,,,,,,,,,,,134.9163,136.2101,136.2101,139.4691,return,0.906,,60.546875,0,22,22,22,1,FBP-YG-18.png,0.4,1.2,23,0.5,,,,,,,,,,,,,,,,,,,,,,,,,,,,,,,,,,,,,,,,,,,,,
,,,,,v1_035,18,Female,2024-05-23_09h56.16.868,jersey_experiment_5_v1,2023.2.2,Win32,84.03361345,,,,,,,,,,,,,,,,139.4694,140.7633,140.7634,142.3398,return,0.7353,,80.72916667,0,23,23,59,1,FBP-RB-91.png,0.45,1.2,60,0.5,,,,,,,,,,,,,,,,,,,,,,,,,,,,,,,,,,,,,,,,,,,,,
,,,,,v1_035,18,Female,2024-05-23_09h56.16.868,jersey_experiment_5_v1,2023.2.2,Win32,84.03361345,,,,,,,,,,,,,,,,142.34,143.6339,143.634,145.4458,return,0.6875,,47.13541667,0,24,24,36,1,FBP-OG-18.png,0.37,1.2,37,0.5,,,,,,,,,,,,,,,,,,,,,,,,,,,,,,,,,,,,,,,,,,,,,
,,,,,v1_035,18,Female,2024-05-23_09h56.16.868,jersey_experiment_5_v1,2023.2.2,Win32,84.03361345,,,,,,,,,,,,,,,,145.446,146.7399,146.7399,148.999,return,0.7234,,60.80729167,0,25,25,32,1,FBP-OG-17.png,0.4,1.2,33,0.5,,,,,,,,,,,,,,,,,,,,,,,,,,,,,,,,,,,,,,,,,,,,,
,,,,,v1_035,18,Female,2024-05-23_09h56.16.868,jersey_experiment_5_v1,2023.2.2,Win32,84.03361345,,,,,,,,,,,,,,,,148.9992,150.799,150.799,155.1169,return,2.8146,,85.41666667,0,26,26,4,1,FBP-PT-71.png,0.45,1.2,5,1,,,,,,,,,,,,,,,,,,,,,,,,,,,,,,,,,,,,,,,,,,,,,
,,,,,v1_035,18,Female,2024-05-23_09h56.16.868,jersey_experiment_5_v1,2023.2.2,Win32,84.03361345,,,,,,,,,,,,,,,,155.1213,156.4226,156.4227,158.5993,return,0.8874,,88.02083333,0,27,27,24,1,FBP-YG-18.png,0.45,1.2,25,0.5,,,,,,,,,,,,,,,,,,,,,,,,,,,,,,,,,,,,,,,,,,,,,
,,,,,v1_035,18,Female,2024-05-23_09h56.16.868,jersey_experiment_5_v1,2023.2.2,Win32,84.03361345,,,,,,,,,,,,,,,,158.5996,159.8935,159.8935,161.4466,return,0.7801,,88.02083333,0,28,28,28,1,FBP-YG-19.png,0.43,1.2,29,0.5,,,,,,,,,,,,,,,,,,,,,,,,,,,,,,,,,,,,,,,,,,,,,
,,,,,v1_035,18,Female,2024-05-23_09h56.16.868,jersey_experiment_5_v1,2023.2.2,Win32,84.03361345,,,,,,,,,,,,,,,,161.4471,162.7406,162.7406,165.0701,return,0.727,,87.890625,0,29,29,23,1,FBP-YG-18.png,0.43,1.2,24,0.5,,,,,,,,,,,,,,,,,,,,,,,,,,,,,,,,,,,,,,,,,,,,,
,,,,,v1_035,18,Female,2024-05-23_09h56.16.868,jersey_experiment_5_v1,2023.2.2,Win32,84.03361345,,,,,,,,,,,,,,,,165.0703,166.3643,166.3643,168.8231,return,0.7349,,24.86979167,0,30,30,25,1,FBP-YG-19.png,0.35,1.2,26,0.5,,,,,,,,,,,,,,,,,,,,,,,,,,,,,,,,,,,,,,,,,,,,,
,,,,,v1_035,18,Female,2024-05-23_09h56.16.868,jersey_experiment_5_v1,2023.2.2,Win32,84.03361345,,,,,,,,,,,,,,,,168.8234,170.6232,170.6233,172.8115,return,0.6714,,26.171875,0,31,31,1,1,FBP-PT-71.png,0.37,1.2,2,1,,,,,,,,,,,,,,,,,,,,,,,,,,,,,,,,,,,,,,,,,,,,,
,,,,,v1_035,18,Female,2024-05-23_09h56.16.868,jersey_experiment_5_v1,2023.2.2,Win32,84.03361345,,,,,,,,,,,,,,,,172.8118,174.1058,174.1058,175.9882,return,0.6676,,75,0,32,32,29,1,FBP-YG-19.png,0.45,1.2,30,0.5,,,,,,,,,,,,,,,,,,,,,,,,,,,,,,,,,,,,,,,,,,,,,
,,,,,v1_035,18,Female,2024-05-23_09h56.16.868,jersey_experiment_5_v1,2023.2.2,Win32,84.03361345,,,,,,,,,,,,,,,,175.9884,177.2823,177.2823,179.6473,return,0.7416,,24.73958333,0,33,33,50,1,FBP-RB-81.png,0.35,1.2,51,0.5,,,,,,,,,,,,,,,,,,,,,,,,,,,,,,,,,,,,,,,,,,,,,
,,,,,v1_035,18,Female,2024-05-23_09h56.16.868,jersey_experiment_5_v1,2023.2.2,Win32,84.03361345,,,,,,,,,,,,,,,,179.648,180.9415,180.9416,183.0708,return,0.8741,,49.609375,0,34,34,56,1,FBP-RB-91.png,0.37,1.2,57,0.5,,,,,,,,,,,,,,,,,,,,,,,,,,,,,,,,,,,,,,,,,,,,,
,,,,,v1_035,18,Female,2024-05-23_09h56.16.868,jersey_experiment_5_v1,2023.2.2,Win32,84.03361345,,,,,,,,,,,,,,,,183.071,184.3649,184.3649,186.9415,return,0.9978,,66.92708333,0,35,35,57,1,FBP-RB-91.png,0.4,1.2,58,0.5,,,,,,,,,,,,,,,,,,,,,,,,,,,,,,,,,,,,,,,,,,,,,
,,,,,v1_035,18,Female,2024-05-23_09h56.16.868,jersey_experiment_5_v1,2023.2.2,Win32,84.03361345,,,,,,,,,,,,,,,,186.9417,188.2356,188.2356,191.3651,return,2.019,,14.453125,0,36,36,20,1,FBP-YG-18.png,0.35,1.2,21,0.5,,,,,,,,,,,,,,,,,,,,,,,,,,,,,,,,,,,,,,,,,,,,,
,,,,,v1_035,18,Female,2024-05-23_09h56.16.868,jersey_experiment_5_v1,2023.2.2,Win32,84.03361345,,,,,,,,,,,,,,,,191.3655,192.6594,192.6595,194.73,return,0.8845,,75,0,37,37,58,1,FBP-RB-91.png,0.43,1.2,59,0.5,,,,,,,,,,,,,,,,,,,,,,,,,,,,,,,,,,,,,,,,,,,,,
,,,,,v1_035,18,Female,2024-05-23_09h56.16.868,jersey_experiment_5_v1,2023.2.2,Win32,84.03361345,,,,,,,,,,,,,,,,194.7306,196.0241,196.0241,198.2478,return,0.7345,,54.42708333,0,38,38,47,1,FBP-RB-71.png,0.4,1.2,48,0.5,,,,,,,,,,,,,,,,,,,,,,,,,,,,,,,,,,,,,,,,,,,,,
,,,,,v1_035,18,Female,2024-05-23_09h56.16.868,jersey_experiment_5_v1,2023.2.2,Win32,84.03361345,,,,,,,,,,,,,,,,198.2482,200.0479,200.048,201.6597,return,0.8841,,77.47395833,0,39,39,13,1,FBP-PT-91.png,0.43,1.2,14,1,,,,,,,,,,,,,,,,,,,,,,,,,,,,,,,,,,,,,,,,,,,,,
,,,,,v1_035,18,Female,2024-05-23_09h56.16.868,jersey_experiment_5_v1,2023.2.2,Win32,84.03361345,,,,,,,,,,,,,,,,201.6599,203.4598,203.4598,205.801,return,1.3803,,74.73958333,0,40,40,14,1,FBP-PT-91.png,0.45,1.2,15,1,,,,,,,,,,,,,,,,,,,,,,,,,,,,,,,,,,,,,,,,,,,,,
,,,,,v1_035,18,Female,2024-05-23_09h56.16.868,jersey_experiment_5_v1,2023.2.2,Win32,84.03361345,,,,,,,,,,,,,,,,205.8013,207.0951,207.0952,208.8247,return,0.7456,,24.34895833,0,41,41,35,1,FBP-OG-18.png,0.35,1.2,36,0.5,,,,,,,,,,,,,,,,,,,,,,,,,,,,,,,,,,,,,,,,,,,,,
,,,,,v1_035,18,Female,2024-05-23_09h56.16.868,jersey_experiment_5_v1,2023.2.2,Win32,84.03361345,,,,,,,,,,,,,,,,208.8249,210.1188,210.1189,211.9778,return,0.7914,,75.13020833,0,42,42,44,1,FBP-OG-19.png,0.45,1.2,45,0.5,,,,,,,,,,,,,,,,,,,,,,,,,,,,,,,,,,,,,,,,,,,,,
,,,,,v1_035,18,Female,2024-05-23_09h56.16.868,jersey_experiment_5_v1,2023.2.2,Win32,84.03361345,,,,,,,,,,,,,,,,211.9779,213.7777,213.7777,215.0955,return,0.8272,,75.13020833,0,43,43,3,1,FBP-PT-71.png,0.43,1.2,4,1,,,,,,,,,,,,,,,,,,,,,,,,,,,,,,,,,,,,,,,,,,,,,
,,,,,v1_035,18,Female,2024-05-23_09h56.16.868,jersey_experiment_5_v1,2023.2.2,Win32,84.03361345,,,,,,,,,,,,,,,,215.0958,216.3897,216.3897,218.1545,return,0.8727,,83.59375,0,44,44,49,1,FBP-RB-71.png,0.45,1.2,50,0.5,,,,,,,,,,,,,,,,,,,,,,,,,,,,,,,,,,,,,,,,,,,,,
,,,,,v1_035,18,Female,2024-05-23_09h56.16.868,jersey_experiment_5_v1,2023.2.2,Win32,84.03361345,,,,,,,,,,,,,,,,218.155,219.4486,219.4486,221.1428,return,0.7356,,90.88541667,0,45,45,19,1,FBP-YG-17.png,0.45,1.2,20,0.5,,,,,,,,,,,,,,,,,,,,,,,,,,,,,,,,,,,,,,,,,,,,,
,,,,,v1_035,18,Female,2024-05-23_09h56.16.868,jersey_experiment_5_v1,2023.2.2,Win32,84.03361345,,,,,,,,,,,,,,,,221.1432,222.4369,222.437,223.7898,return,0.8355,,90.88541667,0,46,46,43,1,FBP-OG-19.png,0.43,1.2,44,0.5,,,,,,,,,,,,,,,,,,,,,,,,,,,,,,,,,,,,,,,,,,,,,
,,,,,v1_035,18,Female,2024-05-23_09h56.16.868,jersey_experiment_5_v1,2023.2.2,Win32,84.03361345,,,,,,,,,,,,,,,,223.7901,225.0841,225.0842,226.5549,return,0.7313,,90.88541667,0,47,47,38,1,FBP-OG-18.png,0.43,1.2,39,0.5,,,,,,,,,,,,,,,,,,,,,,,,,,,,,,,,,,,,,,,,,,,,,
,,,,,v1_035,18,Female,2024-05-23_09h56.16.868,jersey_experiment_5_v1,2023.2.2,Win32,84.03361345,,,,,,,,,,,,,,,,226.5555,227.8488,227.8488,231.0843,return,2.3297,,61.328125,0,48,48,27,1,FBP-YG-19.png,0.4,1.2,28,0.5,,,,,,,,,,,,,,,,,,,,,,,,,,,,,,,,,,,,,,,,,,,,,
,,,,,v1_035,18,Female,2024-05-23_09h56.16.868,jersey_experiment_5_v1,2023.2.2,Win32,84.03361345,,,,,,,,,,,,,,,,231.0846,232.8844,232.8844,235.3197,return,0.7344,,58.07291667,0,49,49,12,1,FBP-PT-91.png,0.4,1.2,13,1,,,,,,,,,,,,,,,,,,,,,,,,,,,,,,,,,,,,,,,,,,,,,
,,,,,v1_035,18,Female,2024-05-23_09h56.16.868,jersey_experiment_5_v1,2023.2.2,Win32,84.03361345,,,,,,,,,,,,,,,,235.32,237.1198,237.1198,238.8376,return,0.7581,,49.86979167,0,50,50,11,1,FBP-PT-91.png,0.37,1.2,12,1,,,,,,,,,,,,,,,,,,,,,,,,,,,,,,,,,,,,,,,,,,,,,
,,,,,v1_035,18,Female,2024-05-23_09h56.16.868,jersey_experiment_5_v1,2023.2.2,Win32,84.03361345,,,,,,,,,,,,,,,,238.8379,240.1317,240.1317,241.9788,return,0.7784,,38.02083333,0,51,51,15,1,FBP-YG-17.png,0.35,1.2,16,0.5,,,,,,,,,,,,,,,,,,,,,,,,,,,,,,,,,,,,,,,,,,,,,
,,,,,v1_035,18,Female,2024-05-23_09h56.16.868,jersey_experiment_5_v1,2023.2.2,Win32,84.03361345,,,,,,,,,,,,,,,,241.9791,243.2729,243.2729,245.1084,return,0.7725,,41.53645833,0,52,52,46,1,FBP-RB-71.png,0.37,1.2,47,0.5,,,,,,,,,,,,,,,,,,,,,,,,,,,,,,,,,,,,,,,,,,,,,
,,,,,v1_035,18,Female,2024-05-23_09h56.16.868,jersey_experiment_5_v1,2023.2.2,Win32,84.03361345,,,,,,,,,,,,,,,,245.1086,246.4027,246.4027,254.4264,return,0.838,,48.4375,0,53,53,26,1,FBP-YG-19.png,0.37,1.2,27,0.5,,,,,,,,,,,,,,,,,,,,,,,,,,,,,,,,,,,,,,,,,,,,,
,,,,,v1_035,18,Female,2024-05-23_09h56.16.868,jersey_experiment_5_v1,2023.2.2,Win32,84.03361345,,,,,,,,,,,,,,,,254.4268,255.7205,255.7206,257.7089,return,0.7788,,54.55729167,0,54,54,37,1,FBP-OG-18.png,0.4,1.2,38,0.5,,,,,,,,,,,,,,,,,,,,,,,,,,,,,,,,,,,,,,,,,,,,,
,,,,,v1_035,18,Female,2024-05-23_09h56.16.868,jersey_experiment_5_v1,2023.2.2,Win32,84.03361345,,,,,,,,,,,,,,,,257.7091,259.5087,259.5087,261.4854,return,0.8943,,63.02083333,0,55,55,7,1,FBP-PT-81.png,0.4,1.2,8,1,,,,,,,,,,,,,,,,,,,,,,,,,,,,,,,,,,,,,,,,,,,,,
,,,,,v1_035,18,Female,2024-05-23_09h56.16.868,jersey_experiment_5_v1,2023.2.2,Win32,84.03361345,,,,,,,,,,,,,,,,261.4856,263.2855,263.2856,265.1797,return,0.7863,,48.046875,0,56,56,6,1,FBP-PT-81.png,0.37,1.2,7,1,,,,,,,,,,,,,,,,,,,,,,,,,,,,,,,,,,,,,,,,,,,,,
,,,,,v1_035,18,Female,2024-05-23_09h56.16.868,jersey_experiment_5_v1,2023.2.2,Win32,84.03361345,,,,,,,,,,,,,,,,265.1801,266.9798,266.9798,268.7327,return,0.7646,,40.625,0,57,57,5,1,FBP-PT-81.png,0.35,1.2,6,1,,,,,,,,,,,,,,,,,,,,,,,,,,,,,,,,,,,,,,,,,,,,,
,,,,,v1_035,18,Female,2024-05-23_09h56.16.868,jersey_experiment_5_v1,2023.2.2,Win32,84.03361345,,,,,,,,,,,,,,,,268.7332,270.0271,270.0271,272.0857,return,0.7336,,99.73958333,0,58,58,34,1,FBP-OG-17.png,0.45,1.2,35,0.5,,,,,,,,,,,,,,,,,,,,,,,,,,,,,,,,,,,,,,,,,,,,,
,,,,,v1_035,18,Female,2024-05-23_09h56.16.868,jersey_experiment_5_v1,2023.2.2,Win32,84.03361345,,,,,,,,,,,,,,,,272.0861,273.38,273.38,276.8271,return,0.9521,,30.98958333,0,59,59,55,1,FBP-RB-91.png,0.35,1.2,56,0.5,,,,,,,,,,,,,,,,,,,,,,,,,,,,,,,,,,,,,,,,,,,,,
,,,,,v1_035,18,Female,2024-05-23_09h56.16.868,jersey_experiment_5_v1,2023.2.2,Win32,84.03361345,,,,,,,,,,,,,,,,276.8293,278.1213,278.1213,280.2979,return,0.7316,,42.31770833,,,,,,FBP-RB-17.png,0.37,1.2,47,0.5,0,0,0,46,1,,,,,,,,,,,,,,,,,,,,,,,,,,,,,,,,,,,,,,,,
,,,,,v1_035,18,Female,2024-05-23_09h56.16.868,jersey_experiment_5_v1,2023.2.2,Win32,84.03361345,,,,,,,,,,,,,,,,280.2983,281.592,281.592,283.7216,return,1.1447,,80.859375,,,,,,FBP-RB-17.png,0.45,1.2,50,0.5,0,1,1,49,1,,,,,,,,,,,,,,,,,,,,,,,,,,,,,,,,,,,,,,,,
,,,,,v1_035,18,Female,2024-05-23_09h56.16.868,jersey_experiment_5_v1,2023.2.2,Win32,84.03361345,,,,,,,,,,,,,,,,283.722,285.0155,285.0156,287.2864,return,0.7822,,73.4375,,,,,,FBP-YG-81.png,0.4,1.2,23,0.5,0,2,2,22,1,,,,,,,,,,,,,,,,,,,,,,,,,,,,,,,,,,,,,,,,
,,,,,v1_035,18,Female,2024-05-23_09h56.16.868,jersey_experiment_5_v1,2023.2.2,Win32,84.03361345,,,,,,,,,,,,,,,,287.2871,288.5805,288.5806,290.4278,return,0.7187,,49.73958333,,,,,,FBP-YG-91.png,0.35,1.2,26,0.5,0,3,3,25,1,,,,,,,,,,,,,,,,,,,,,,,,,,,,,,,,,,,,,,,,
,,,,,v1_035,18,Female,2024-05-23_09h56.16.868,jersey_experiment_5_v1,2023.2.2,Win32,84.03361345,,,,,,,,,,,,,,,,290.4283,291.7217,291.7218,293.5102,return,0.842,,77.60416667,,,,,,FBP-YG-71.png,0.43,1.2,19,0.5,0,4,4,18,1,,,,,,,,,,,,,,,,,,,,,,,,,,,,,,,,,,,,,,,,
,,,,,v1_035,18,Female,2024-05-23_09h56.16.868,jersey_experiment_5_v1,2023.2.2,Win32,84.03361345,,,,,,,,,,,,,,,,293.5105,295.3105,295.3106,296.7337,return,0.8263,,88.80208333,,,,,,FBP-PT-19.png,0.43,1.2,14,1,0,5,5,13,1,,,,,,,,,,,,,,,,,,,,,,,,,,,,,,,,,,,,,,,,
,,,,,v1_035,18,Female,2024-05-23_09h56.16.868,jersey_experiment_5_v1,2023.2.2,Win32,84.03361345,,,,,,,,,,,,,,,,296.7341,298.0279,298.0279,300.0634,return,0.7391,,59.11458333,,,,,,FBP-YG-71.png,0.37,1.2,17,0.5,0,6,6,16,1,,,,,,,,,,,,,,,,,,,,,,,,,,,,,,,,,,,,,,,,
,,,,,v1_035,18,Female,2024-05-23_09h56.16.868,jersey_experiment_5_v1,2023.2.2,Win32,84.03361345,,,,,,,,,,,,,,,,300.0641,301.3574,301.3575,304.393,return,1.228,,55.59895833,,,,,,FBP-OG-81.png,0.37,1.2,37,0.5,0,7,7,36,1,,,,,,,,,,,,,,,,,,,,,,,,,,,,,,,,,,,,,,,,
,,,,,v1_035,18,Female,2024-05-23_09h56.16.868,jersey_experiment_5_v1,2023.2.2,Win32,84.03361345,,,,,,,,,,,,,,,,304.3937,305.6871,305.6872,308.7931,return,1.6037,,61.45833333,,,,,,FBP-RB-17.png,0.4,1.2,48,0.5,0,8,8,47,1,,,,,,,,,,,,,,,,,,,,,,,,,,,,,,,,,,,,,,,,
,,,,,v1_035,18,Female,2024-05-23_09h56.16.868,jersey_experiment_5_v1,2023.2.2,Win32,84.03361345,,,,,,,,,,,,,,,,308.7933,310.0872,310.0872,312.6755,return,1.2563,,31.51041667,,,,,,FBP-OG-81.png,0.35,1.2,36,0.5,0,9,9,35,1,,,,,,,,,,,,,,,,,,,,,,,,,,,,,,,,,,,,,,,,
,,,,,v1_035,18,Female,2024-05-23_09h56.16.868,jersey_experiment_5_v1,2023.2.2,Win32,84.03361345,,,,,,,,,,,,,,,,312.6758,313.9695,313.9696,316.4407,return,1.1579,,88.15104167,,,,,,FBP-OG-91.png,0.45,1.2,45,0.5,0,10,10,44,1,,,,,,,,,,,,,,,,,,,,,,,,,,,,,,,,,,,,,,,,
,,,,,v1_035,18,Female,2024-05-23_09h56.16.868,jersey_experiment_5_v1,2023.2.2,Win32,84.03361345,,,,,,,,,,,,,,,,316.4415,318.2405,318.2405,319.7699,return,0.9912,,93.75,,,,,,FBP-PT-17.png,0.45,1.2,5,1,0,11,11,4,1,,,,,,,,,,,,,,,,,,,,,,,,,,,,,,,,,,,,,,,,
,,,,,v1_035,18,Female,2024-05-23_09h56.16.868,jersey_experiment_5_v1,2023.2.2,Win32,84.03361345,,,,,,,,,,,,,,,,319.7702,321.064,321.0641,322.9818,return,0.4775,,31.11979167,,,,,,FBP-OG-71.png,0.35,1.2,31,0.5,0,12,12,30,1,,,,,,,,,,,,,,,,,,,,,,,,,,,,,,,,,,,,,,,,
,,,,,v1_035,18,Female,2024-05-23_09h56.16.868,jersey_experiment_5_v1,2023.2.2,Win32,84.03361345,,,,,,,,,,,,,,,,322.9821,324.7818,324.7818,327.535,return,1.1884,,74.08854167,,,,,,FBP-PT-17.png,0.43,1.2,4,1,0,13,13,3,1,,,,,,,,,,,,,,,,,,,,,,,,,,,,,,,,,,,,,,,,
,,,,,v1_035,18,Female,2024-05-23_09h56.16.868,jersey_experiment_5_v1,2023.2.2,Win32,84.03361345,,,,,,,,,,,,,,,,327.5356,329.3351,329.3351,331.1821,return,0.3067,,74.73958333,,,,,,FBP-PT-19.png,0.4,1.2,13,1,0,14,14,12,1,,,,,,,,,,,,,,,,,,,,,,,,,,,,,,,,,,,,,,,,
,,,,,v1_035,18,Female,2024-05-23_09h56.16.868,jersey_experiment_5_v1,2023.2.2,Win32,84.03361345,,,,,,,,,,,,,,,,331.1827,332.4762,332.4763,333.9117,return,0.2987,,80.46875,,,,,,FBP-RB-18.png,0.4,1.2,53,0.5,0,15,15,52,1,,,,,,,,,,,,,,,,,,,,,,,,,,,,,,,,,,,,,,,,
,,,,,v1_035,18,Female,2024-05-23_09h56.16.868,jersey_experiment_5_v1,2023.2.2,Win32,84.03361345,,,,,,,,,,,,,,,,333.912,335.7116,335.7117,338.6294,return,0.2662,,55.72916667,,,,,,FBP-PT-19.png,0.37,1.2,12,1,0,16,16,11,1,,,,,,,,,,,,,,,,,,,,,,,,,,,,,,,,,,,,,,,,
,,,,,v1_035,18,Female,2024-05-23_09h56.16.868,jersey_experiment_5_v1,2023.2.2,Win32,84.03361345,,,,,,,,,,,,,,,,338.6297,339.9235,339.9235,340.8885,return,0.2278,,61.45833333,,,,,,FBP-YG-91.png,0.4,1.2,28,0.5,0,17,17,27,1,,,,,,,,,,,,,,,,,,,,,,,,,,,,,,,,,,,,,,,,
,,,,,v1_035,18,Female,2024-05-23_09h56.16.868,jersey_experiment_5_v1,2023.2.2,Win32,84.03361345,,,,,,,,,,,,,,,,340.8887,342.1826,342.1826,344.0298,return,0.9533,,74.73958333,,,,,,FBP-YG-91.png,0.43,1.2,29,0.5,0,18,18,28,1,,,,,,,,,,,,,,,,,,,,,,,,,,,,,,,,,,,,,,,,
,,,,,v1_035,18,Female,2024-05-23_09h56.16.868,jersey_experiment_5_v1,2023.2.2,Win32,84.03361345,,,,,,,,,,,,,,,,344.0304,345.3237,345.3237,346.6533,return,0.3292,,87.890625,,,,,,FBP-RB-19.png,0.45,1.2,60,0.5,0,19,19,59,1,,,,,,,,,,,,,,,,,,,,,,,,,,,,,,,,,,,,,,,,
,,,,,v1_035,18,Female,2024-05-23_09h56.16.868,jersey_experiment_5_v1,2023.2.2,Win32,84.03361345,,,,,,,,,,,,,,,,346.6535,347.9475,347.9475,349.1946,return,0.2259,,67.70833333,,,,,,FBP-OG-81.png,0.4,1.2,38,0.5,0,20,20,37,1,,,,,,,,,,,,,,,,,,,,,,,,,,,,,,,,,,,,,,,,
,,,,,v1_035,18,Female,2024-05-23_09h56.16.868,jersey_experiment_5_v1,2023.2.2,Win32,84.03361345,,,,,,,,,,,,,,,,349.1953,350.4887,350.4887,351.9242,return,0.1615,,49.47916667,,,,,,FBP-RB-17.png,0.35,1.2,46,0.5,0,21,21,45,1,,,,,,,,,,,,,,,,,,,,,,,,,,,,,,,,,,,,,,,,
,,,,,v1_035,18,Female,2024-05-23_09h56.16.868,jersey_experiment_5_v1,2023.2.2,Win32,84.03361345,,,,,,,,,,,,,,,,351.9247,353.7242,353.7243,354.6301,return,0.3,,59.50520833,,,,,,FBP-PT-19.png,0.45,1.2,15,1,0,22,22,14,1,,,,,,,,,,,,,,,,,,,,,,,,,,,,,,,,,,,,,,,,
,,,,,v1_035,18,Female,2024-05-23_09h56.16.868,jersey_experiment_5_v1,2023.2.2,Win32,84.03361345,,,,,,,,,,,,,,,,354.6305,356.4301,356.4302,357.6419,return,0.2734,,52.734375,,,,,,FBP-PT-19.png,0.35,1.2,11,1,0,23,23,10,1,,,,,,,,,,,,,,,,,,,,,,,,,,,,,,,,,,,,,,,,
,,,,,v1_035,18,Female,2024-05-23_09h56.16.868,jersey_experiment_5_v1,2023.2.2,Win32,84.03361345,,,,,,,,,,,,,,,,357.6422,358.9361,358.9361,359.9598,return,0.193,,59.24479167,,,,,,FBP-YG-81.png,0.37,1.2,22,0.5,0,24,24,21,1,,,,,,,,,,,,,,,,,,,,,,,,,,,,,,,,,,,,,,,,
,,,,,v1_035,18,Female,2024-05-23_09h56.16.868,jersey_experiment_5_v1,2023.2.2,Win32,84.03361345,,,,,,,,,,,,,,,,359.9603,361.7597,361.7598,362.901,return,0.3605,,60.41666667,,,,,,FBP-PT-17.png,0.4,1.2,3,1,0,25,25,2,1,,,,,,,,,,,,,,,,,,,,,,,,,,,,,,,,,,,,,,,,
,,,,,v1_035,18,Female,2024-05-23_09h56.16.868,jersey_experiment_5_v1,2023.2.2,Win32,84.03361345,,,,,,,,,,,,,,,,362.9017,364.195,364.195,365.3365,return,0.2051,,57.421875,,,,,,FBP-YG-71.png,0.35,1.2,16,0.5,0,26,26,15,1,,,,,,,,,,,,,,,,,,,,,,,,,,,,,,,,,,,,,,,,
,,,,,v1_035,18,Female,2024-05-23_09h56.16.868,jersey_experiment_5_v1,2023.2.2,Win32,84.03361345,,,,,,,,,,,,,,,,365.337,366.6306,366.6307,368.0541,return,0.1832,,64.71354167,,,,,,FBP-OG-71.png,0.4,1.2,33,0.5,0,27,27,32,1,,,,,,,,,,,,,,,,,,,,,,,,,,,,,,,,,,,,,,,,
,,,,,v1_035,18,Female,2024-05-23_09h56.16.868,jersey_experiment_5_v1,2023.2.2,Win32,84.03361345,,,,,,,,,,,,,,,,368.0543,369.3481,369.3481,370.7129,return,0.1919,,62.890625,,,,,,FBP-OG-91.png,0.37,1.2,42,0.5,0,28,28,41,1,,,,,,,,,,,,,,,,,,,,,,,,,,,,,,,,,,,,,,,,
,,,,,v1_035,18,Female,2024-05-23_09h56.16.868,jersey_experiment_5_v1,2023.2.2,Win32,84.03361345,,,,,,,,,,,,,,,,370.7133,372.5131,372.5131,373.3961,return,0.2564,,75.91145833,,,,,,FBP-PT-18.png,0.45,1.2,10,1,0,29,29,9,1,,,,,,,,,,,,,,,,,,,,,,,,,,,,,,,,,,,,,,,,
,,,,,v1_035,18,Female,2024-05-23_09h56.16.868,jersey_experiment_5_v1,2023.2.2,Win32,84.03361345,,,,,,,,,,,,,,,,373.3967,374.6895,374.6895,375.6425,return,0.2375,,82.421875,,,,,,FBP-RB-18.png,0.45,1.2,55,0.5,0,30,30,54,1,,,,,,,,,,,,,,,,,,,,,,,,,,,,,,,,,,,,,,,,
,,,,,v1_035,18,Female,2024-05-23_09h56.16.868,jersey_experiment_5_v1,2023.2.2,Win32,84.03361345,,,,,,,,,,,,,,,,375.6428,376.9366,376.9367,378.431,return,0.1887,,83.33333333,,,,,,FBP-OG-91.png,0.43,1.2,44,0.5,0,31,31,43,1,,,,,,,,,,,,,,,,,,,,,,,,,,,,,,,,,,,,,,,,
,,,,,v1_035,18,Female,2024-05-23_09h56.16.868,jersey_experiment_5_v1,2023.2.2,Win32,84.03361345,,,,,,,,,,,,,,,,378.4319,379.7251,379.7251,382.4312,return,0.1874,,54.42708333,,,,,,FBP-OG-91.png,0.35,1.2,41,0.5,0,32,32,40,1,,,,,,,,,,,,,,,,,,,,,,,,,,,,,,,,,,,,,,,,
,,,,,v1_035,18,Female,2024-05-23_09h56.16.868,jersey_experiment_5_v1,2023.2.2,Win32,84.03361345,,,,,,,,,,,,,,,,382.4314,383.7252,383.7253,384.9487,return,0.1726,,49.86979167,,,,,,FBP-RB-18.png,0.35,1.2,51,0.5,0,33,33,50,1,,,,,,,,,,,,,,,,,,,,,,,,,,,,,,,,,,,,,,,,
,,,,,v1_035,18,Female,2024-05-23_09h56.16.868,jersey_experiment_5_v1,2023.2.2,Win32,84.03361345,,,,,,,,,,,,,,,,384.9492,386.2428,386.2428,387.6783,return,0.1647,,75,,,,,,FBP-YG-81.png,0.45,1.2,25,0.5,0,34,34,24,1,,,,,,,,,,,,,,,,,,,,,,,,,,,,,,,,,,,,,,,,
,,,,,v1_035,18,Female,2024-05-23_09h56.16.868,jersey_experiment_5_v1,2023.2.2,Win32,84.03361345,,,,,,,,,,,,,,,,387.6786,388.9725,388.9725,390.5019,return,0.4617,,91.66666667,,,,,,FBP-RB-19.png,0.43,1.2,59,0.5,0,35,35,58,1,,,,,,,,,,,,,,,,,,,,,,,,,,,,,,,,,,,,,,,,
,,,,,v1_035,18,Female,2024-05-23_09h56.16.868,jersey_experiment_5_v1,2023.2.2,Win32,84.03361345,,,,,,,,,,,,,,,,390.5022,391.796,391.796,393.3491,return,0.1015,,75.13020833,,,,,,FBP-RB-19.png,0.4,1.2,58,0.5,0,36,36,57,1,,,,,,,,,,,,,,,,,,,,,,,,,,,,,,,,,,,,,,,,
,,,,,v1_035,18,Female,2024-05-23_09h56.16.868,jersey_experiment_5_v1,2023.2.2,Win32,84.03361345,,,,,,,,,,,,,,,,393.3493,394.6435,394.6436,395.9727,return,0.1465,,64.453125,,,,,,FBP-YG-71.png,0.4,1.2,18,0.5,0,37,37,17,1,,,,,,,,,,,,,,,,,,,,,,,,,,,,,,,,,,,,,,,,
,,,,,v1_035,18,Female,2024-05-23_09h56.16.868,jersey_experiment_5_v1,2023.2.2,Win32,84.03361345,,,,,,,,,,,,,,,,395.973,397.2669,397.2669,398.1023,return,0.2419,,64.453125,,,,,,FBP-OG-71.png,0.37,1.2,32,0.5,0,38,38,31,1,,,,,,,,,,,,,,,,,,,,,,,,,,,,,,,,,,,,,,,,
,,,,,v1_035,18,Female,2024-05-23_09h56.16.868,jersey_experiment_5_v1,2023.2.2,Win32,84.03361345,,,,,,,,,,,,,,,,398.1025,399.3962,399.3963,400.4787,return,0.1747,,62.36979167,,,,,,FBP-RB-19.png,0.37,1.2,57,0.5,0,39,39,56,1,,,,,,,,,,,,,,,,,,,,,,,,,,,,,,,,,,,,,,,,
,,,,,v1_035,18,Female,2024-05-23_09h56.16.868,jersey_experiment_5_v1,2023.2.2,Win32,84.03361345,,,,,,,,,,,,,,,,400.479,402.2787,402.2787,402.9024,return,0.1712,,62.36979167,,,,,,FBP-PT-18.png,0.4,1.2,8,1,0,40,40,7,1,,,,,,,,,,,,,,,,,,,,,,,,,,,,,,,,,,,,,,,,
,,,,,v1_035,18,Female,2024-05-23_09h56.16.868,jersey_experiment_5_v1,2023.2.2,Win32,84.03361345,,,,,,,,,,,,,,,,402.9026,404.1965,404.1965,405.4672,return,0.2576,,74.21875,,,,,,FBP-OG-71.png,0.45,1.2,35,0.5,0,41,41,34,1,,,,,,,,,,,,,,,,,,,,,,,,,,,,,,,,,,,,,,,,
,,,,,v1_035,18,Female,2024-05-23_09h56.16.868,jersey_experiment_5_v1,2023.2.2,Win32,84.03361345,,,,,,,,,,,,,,,,405.4674,406.7612,406.7613,408.3732,return,0.1955,,66.796875,,,,,,FBP-OG-81.png,0.43,1.2,39,0.5,0,42,42,38,1,,,,,,,,,,,,,,,,,,,,,,,,,,,,,,,,,,,,,,,,
,,,,,v1_035,18,Female,2024-05-23_09h56.16.868,jersey_experiment_5_v1,2023.2.2,Win32,84.03361345,,,,,,,,,,,,,,,,408.3735,409.6673,409.6674,410.4911,return,0.1069,,74.08854167,,,,,,FBP-OG-71.png,0.43,1.2,34,0.5,0,43,43,33,1,,,,,,,,,,,,,,,,,,,,,,,,,,,,,,,,,,,,,,,,
,,,,,v1_035,18,Female,2024-05-23_09h56.16.868,jersey_experiment_5_v1,2023.2.2,Win32,84.03361345,,,,,,,,,,,,,,,,410.4918,411.785,411.785,414.856,return,1.9453,,53.38541667,,,,,,FBP-YG-81.png,0.35,1.2,21,0.5,0,44,44,20,1,,,,,,,,,,,,,,,,,,,,,,,,,,,,,,,,,,,,,,,,
,,,,,v1_035,18,Female,2024-05-23_09h56.16.868,jersey_experiment_5_v1,2023.2.2,Win32,84.03361345,,,,,,,,,,,,,,,,414.8563,416.15,416.15,417.3264,return,0.2094,,79.55729167,,,,,,FBP-OG-81.png,0.45,1.2,40,0.5,0,45,45,39,1,,,,,,,,,,,,,,,,,,,,,,,,,,,,,,,,,,,,,,,,
,,,,,v1_035,18,Female,2024-05-23_09h56.16.868,jersey_experiment_5_v1,2023.2.2,Win32,84.03361345,,,,,,,,,,,,,,,,417.3267,418.6206,418.6206,420.197,return,0.2183,,80.078125,,,,,,FBP-YG-81.png,0.43,1.2,24,0.5,0,46,46,23,1,,,,,,,,,,,,,,,,,,,,,,,,,,,,,,,,,,,,,,,,
,,,,,v1_035,18,Female,2024-05-23_09h56.16.868,jersey_experiment_5_v1,2023.2.2,Win32,84.03361345,,,,,,,,,,,,,,,,420.1974,421.9976,421.9976,423.1738,return,0.1713,,65.10416667,,,,,,FBP-PT-18.png,0.37,1.2,7,1,0,47,47,6,1,,,,,,,,,,,,,,,,,,,,,,,,,,,,,,,,,,,,,,,,
,,,,,v1_035,18,Female,2024-05-23_09h56.16.868,jersey_experiment_5_v1,2023.2.2,Win32,84.03361345,,,,,,,,,,,,,,,,423.1747,424.4678,424.4679,425.5151,return,0.2364,,58.72395833,,,,,,FBP-RB-18.png,0.37,1.2,52,0.5,0,48,48,51,1,,,,,,,,,,,,,,,,,,,,,,,,,,,,,,,,,,,,,,,,
,,,,,v1_035,18,Female,2024-05-23_09h56.16.868,jersey_experiment_5_v1,2023.2.2,Win32,84.03361345,,,,,,,,,,,,,,,,425.5156,426.8091,426.8091,428.0914,return,0.3399,,58.72395833,,,,,,FBP-YG-91.png,0.37,1.2,27,0.5,0,49,49,26,1,,,,,,,,,,,,,,,,,,,,,,,,,,,,,,,,,,,,,,,,
,,,,,v1_035,18,Female,2024-05-23_09h56.16.868,jersey_experiment_5_v1,2023.2.2,Win32,84.03361345,,,,,,,,,,,,,,,,428.0917,429.3857,429.3857,431.3858,return,1.2146,,86.71875,,,,,,FBP-YG-91.png,0.45,1.2,30,0.5,0,50,50,29,1,,,,,,,,,,,,,,,,,,,,,,,,,,,,,,,,,,,,,,,,
,,,,,v1_035,18,Female,2024-05-23_09h56.16.868,jersey_experiment_5_v1,2023.2.2,Win32,84.03361345,,,,,,,,,,,,,,,,431.3863,432.6805,432.6805,433.6682,return,0.2435,,53.90625,,,,,,FBP-RB-19.png,0.35,1.2,56,0.5,0,51,51,55,1,,,,,,,,,,,,,,,,,,,,,,,,,,,,,,,,,,,,,,,,
,,,,,v1_035,18,Female,2024-05-23_09h56.16.868,jersey_experiment_5_v1,2023.2.2,Win32,84.03361345,,,,,,,,,,,,,,,,433.6688,434.9625,434.9625,437.092,return,1.1596,,59.89583333,,,,,,FBP-RB-17.png,0.43,1.2,49,0.5,0,52,52,48,1,,,,,,,,,,,,,,,,,,,,,,,,,,,,,,,,,,,,,,,,
,,,,,v1_035,18,Female,2024-05-23_09h56.16.868,jersey_experiment_5_v1,2023.2.2,Win32,84.03361345,,,,,,,,,,,,,,,,437.0926,438.3861,438.3861,439.4919,return,0.279,,65.10416667,,,,,,FBP-OG-91.png,0.4,1.2,43,0.5,0,53,53,42,1,,,,,,,,,,,,,,,,,,,,,,,,,,,,,,,,,,,,,,,,
,,,,,v1_035,18,Female,2024-05-23_09h56.16.868,jersey_experiment_5_v1,2023.2.2,Win32,84.03361345,,,,,,,,,,,,,,,,439.4921,441.2922,441.2922,442.2686,return,0.2348,,55.33854167,,,,,,FBP-PT-18.png,0.35,1.2,6,1,0,54,54,5,1,,,,,,,,,,,,,,,,,,,,,,,,,,,,,,,,,,,,,,,,
,,,,,v1_035,18,Female,2024-05-23_09h56.16.868,jersey_experiment_5_v1,2023.2.2,Win32,84.03361345,,,,,,,,,,,,,,,,442.269,444.0688,444.0688,445.1628,return,0.2362,,54.81770833,,,,,,FBP-PT-17.png,0.35,1.2,1,1,0,55,55,0,1,,,,,,,,,,,,,,,,,,,,,,,,,,,,,,,,,,,,,,,,
,,,,,v1_035,18,Female,2024-05-23_09h56.16.868,jersey_experiment_5_v1,2023.2.2,Win32,84.03361345,,,,,,,,,,,,,,,,445.1631,446.4569,446.4569,448.1157,return,0.2177,,73.69791667,,,,,,FBP-RB-18.png,0.43,1.2,54,0.5,0,56,56,53,1,,,,,,,,,,,,,,,,,,,,,,,,,,,,,,,,,,,,,,,,
,,,,,v1_035,18,Female,2024-05-23_09h56.16.868,jersey_experiment_5_v1,2023.2.2,Win32,84.03361345,,,,,,,,,,,,,,,,448.116,449.9158,449.9159,451.5982,return,0.2352,,64.453125,,,,,,FBP-PT-18.png,0.43,1.2,9,1,0,57,57,8,1,,,,,,,,,,,,,,,,,,,,,,,,,,,,,,,,,,,,,,,,
,,,,,v1_035,18,Female,2024-05-23_09h56.16.868,jersey_experiment_5_v1,2023.2.2,Win32,84.03361345,,,,,,,,,,,,,,,,451.5986,452.8928,452.8928,454.5398,return,0.3277,,81.11979167,,,,,,FBP-YG-71.png,0.45,1.2,20,0.5,0,58,58,19,1,,,,,,,,,,,,,,,,,,,,,,,,,,,,,,,,,,,,,,,,
,,,,,v1_035,18,Female,2024-05-23_09h56.16.868,jersey_experiment_5_v1,2023.2.2,Win32,84.03361345,,,,,,,,,,,,,,,,454.5401,456.3397,456.3397,457.469,return,0.2114,,60.9375,,,,,,FBP-PT-17.png,0.37,1.2,2,1,0,59,59,1,1,,,,,,,,,,,,,,,,,,,,,,,,,,,,,,,,,,,,,,,,
,,,,,v1_035,18,Female,2024-05-23_09h56.16.868,jersey_experiment_5_v1,2023.2.2,Win32,84.03361345,,,,,,,,,,,,,,,,,,,,,,,,,,,,,,,,,,,,,,,457.4697,577.4739,,,,,,,,,,,,,,,,,,,,,,,,,,,,,,,,,,,,,,
,,,,,v1_035,18,Female,2024-05-23_09h56.16.868,jersey_experiment_5_v1,2023.2.2,Win32,84.03361345,,,,,,,,,,,,,,,,,,,,,,,,,,,,,,,,,,,,,,,,,577.4742,579.8975,return,2.4137,,,,,,,,,,,,,,,,,,,,,,,,,,,,,,,,,,
,,,,,v1_035,18,Female,2024-05-23_09h56.16.868,jersey_experiment_5_v1,2023.2.2,Win32,84.03361345,,,,,,,,,,,,,,,,579.9093,581.7091,581.7091,584.3915,return,0.4053,,56.51041667,,,,,,FBP-RB-81.png,0.4,1.2,53,1,,,,,,,,,,,,,0,0,0,52,1,,,,,,,,,,,,,,,,,,,,,,,,,,,,
,,,,,v1_035,18,Female,2024-05-23_09h56.16.868,jersey_experiment_5_v1,2023.2.2,Win32,84.03361345,,,,,,,,,,,,,,,,584.3917,586.1914,586.1915,587.2621,return,0.2732,,49.609375,,,,,,FBP-OG-18.png,0.35,1.2,36,1,,,,,,,,,,,,,0,1,1,35,1,,,,,,,,,,,,,,,,,,,,,,,,,,,,
,,,,,v1_035,18,Female,2024-05-23_09h56.16.868,jersey_experiment_5_v1,2023.2.2,Win32,84.03361345,,,,,,,,,,,,,,,,587.2624,589.0624,589.0625,589.9095,return,0.2309,,51.953125,,,,,,FBP-RB-71.png,0.37,1.2,47,1,,,,,,,,,,,,,0,2,2,46,1,,,,,,,,,,,,,,,,,,,,,,,,,,,,
,,,,,v1_035,18,Female,2024-05-23_09h56.16.868,jersey_experiment_5_v1,2023.2.2,Win32,84.03361345,,,,,,,,,,,,,,,,589.9096,591.7093,591.7094,592.3917,return,0.2051,,51.953125,,,,,,FBP-YG-19.png,0.35,1.2,26,1,,,,,,,,,,,,,0,3,3,25,1,,,,,,,,,,,,,,,,,,,,,,,,,,,,
,,,,,v1_035,18,Female,2024-05-23_09h56.16.868,jersey_experiment_5_v1,2023.2.2,Win32,84.03361345,,,,,,,,,,,,,,,,592.3922,594.1918,594.1918,594.8271,return,0.178,,51.953125,,,,,,FBP-RB-81.png,0.37,1.2,52,1,,,,,,,,,,,,,0,4,4,51,1,,,,,,,,,,,,,,,,,,,,,,,,,,,,
,,,,,v1_035,18,Female,2024-05-23_09h56.16.868,jersey_experiment_5_v1,2023.2.2,Win32,84.03361345,,,,,,,,,,,,,,,,594.8274,596.6274,596.6274,597.7684,return,0.2155,,75.52083333,,,,,,FBP-RB-81.png,0.45,1.2,55,1,,,,,,,,,,,,,0,5,5,54,1,,,,,,,,,,,,,,,,,,,,,,,,,,,,
,,,,,v1_035,18,Female,2024-05-23_09h56.16.868,jersey_experiment_5_v1,2023.2.2,Win32,84.03361345,,,,,,,,,,,,,,,,597.7688,599.5684,599.5685,600.3451,return,0.1323,,82.421875,,,,,,FBP-YG-18.png,0.45,1.2,25,1,,,,,,,,,,,,,0,6,6,24,1,,,,,,,,,,,,,,,,,,,,,,,,,,,,
,,,,,v1_035,18,Female,2024-05-23_09h56.16.868,jersey_experiment_5_v1,2023.2.2,Win32,84.03361345,,,,,,,,,,,,,,,,600.3457,602.1454,602.1454,603.0509,return,0.1782,,54.6875,,,,,,FBP-OG-19.png,0.35,1.2,41,1,,,,,,,,,,,,,0,7,7,40,1,,,,,,,,,,,,,,,,,,,,,,,,,,,,
,,,,,v1_035,18,Female,2024-05-23_09h56.16.868,jersey_experiment_5_v1,2023.2.2,Win32,84.03361345,,,,,,,,,,,,,,,,603.0513,604.8512,604.8512,605.5098,return,0.1595,,78.515625,,,,,,FBP-OG-17.png,0.45,1.2,35,1,,,,,,,,,,,,,0,8,8,34,1,,,,,,,,,,,,,,,,,,,,,,,,,,,,
,,,,,v1_035,18,Female,2024-05-23_09h56.16.868,jersey_experiment_5_v1,2023.2.2,Win32,84.03361345,,,,,,,,,,,,,,,,605.5101,607.3099,607.31,608.31,return,0.195,,68.48958333,,,,,,FBP-OG-17.png,0.4,1.2,33,1,,,,,,,,,,,,,0,9,9,32,1,,,,,,,,,,,,,,,,,,,,,,,,,,,,
,,,,,v1_035,18,Female,2024-05-23_09h56.16.868,jersey_experiment_5_v1,2023.2.2,Win32,84.03361345,,,,,,,,,,,,,,,,608.3104,610.11,610.11,610.9689,return,0.1565,,61.71875,,,,,,FBP-OG-17.png,0.37,1.2,32,1,,,,,,,,,,,,,0,10,10,31,1,,,,,,,,,,,,,,,,,,,,,,,,,,,,
,,,,,v1_035,18,Female,2024-05-23_09h56.16.868,jersey_experiment_5_v1,2023.2.2,Win32,84.03361345,,,,,,,,,,,,,,,,610.9692,612.7689,612.769,613.3807,return,0.1254,,78.125,,,,,,FBP-RB-91.png,0.43,1.2,59,1,,,,,,,,,,,,,0,11,11,58,1,,,,,,,,,,,,,,,,,,,,,,,,,,,,
,,,,,v1_035,18,Female,2024-05-23_09h56.16.868,jersey_experiment_5_v1,2023.2.2,Win32,84.03361345,,,,,,,,,,,,,,,,613.3811,615.1809,615.1809,615.7572,return,0.1298,,66.796875,,,,,,FBP-OG-19.png,0.4,1.2,43,1,,,,,,,,,,,,,0,12,12,42,1,,,,,,,,,,,,,,,,,,,,,,,,,,,,
,,,,,v1_035,18,Female,2024-05-23_09h56.16.868,jersey_experiment_5_v1,2023.2.2,Win32,84.03361345,,,,,,,,,,,,,,,,615.7575,617.0514,617.0515,618.1574,return,0.1648,,64.97395833,,,,,,FBP-PT-91.png,0.4,1.2,13,0.5,,,,,,,,,,,,,0,13,13,12,1,,,,,,,,,,,,,,,,,,,,,,,,,,,,
,,,,,v1_035,18,Female,2024-05-23_09h56.16.868,jersey_experiment_5_v1,2023.2.2,Win32,84.03361345,,,,,,,,,,,,,,,,618.1575,619.9577,619.9577,620.8398,return,0.2021,,70.96354167,,,,,,FBP-RB-71.png,0.4,1.2,48,1,,,,,,,,,,,,,0,14,14,47,1,,,,,,,,,,,,,,,,,,,,,,,,,,,,
,,,,,v1_035,18,Female,2024-05-23_09h56.16.868,jersey_experiment_5_v1,2023.2.2,Win32,84.03361345,,,,,,,,,,,,,,,,620.8401,622.1342,622.1343,623.0046,return,0.1409,,73.69791667,,,,,,FBP-PT-91.png,0.43,1.2,14,0.5,,,,,,,,,,,,,0,15,15,13,1,,,,,,,,,,,,,,,,,,,,,,,,,,,,
,,,,,v1_035,18,Female,2024-05-23_09h56.16.868,jersey_experiment_5_v1,2023.2.2,Win32,84.03361345,,,,,,,,,,,,,,,,623.0049,624.8048,624.8048,625.6046,return,0.1961,,70.83333333,,,,,,FBP-OG-18.png,0.4,1.2,38,1,,,,,,,,,,,,,0,16,16,37,1,,,,,,,,,,,,,,,,,,,,,,,,,,,,
,,,,,v1_035,18,Female,2024-05-23_09h56.16.868,jersey_experiment_5_v1,2023.2.2,Win32,84.03361345,,,,,,,,,,,,,,,,625.605,626.899,626.899,628.1107,return,0.2206,,75.91145833,,,,,,FBP-PT-71.png,0.43,1.2,4,0.5,,,,,,,,,,,,,0,17,17,3,1,,,,,,,,,,,,,,,,,,,,,,,,,,,,
,,,,,v1_035,18,Female,2024-05-23_09h56.16.868,jersey_experiment_5_v1,2023.2.2,Win32,84.03361345,,,,,,,,,,,,,,,,628.1111,629.9107,629.9108,630.852,return,0.2199,,79.42708333,,,,,,FBP-YG-18.png,0.43,1.2,24,1,,,,,,,,,,,,,0,18,18,23,1,,,,,,,,,,,,,,,,,,,,,,,,,,,,
,,,,,v1_035,18,Female,2024-05-23_09h56.16.868,jersey_experiment_5_v1,2023.2.2,Win32,84.03361345,,,,,,,,,,,,,,,,630.8523,632.652,632.652,634.0286,return,0.106,,72.91666667,,,,,,FBP-YG-18.png,0.4,1.2,23,1,,,,,,,,,,,,,0,19,19,22,1,,,,,,,,,,,,,,,,,,,,,,,,,,,,
,,,,,v1_035,18,Female,2024-05-23_09h56.16.868,jersey_experiment_5_v1,2023.2.2,Win32,84.03361345,,,,,,,,,,,,,,,,634.0289,635.8286,635.8287,636.8287,return,0.2714,,75.52083333,,,,,,FBP-YG-19.png,0.43,1.2,29,1,,,,,,,,,,,,,0,20,20,28,1,,,,,,,,,,,,,,,,,,,,,,,,,,,,
,,,,,v1_035,18,Female,2024-05-23_09h56.16.868,jersey_experiment_5_v1,2023.2.2,Win32,84.03361345,,,,,,,,,,,,,,,,636.8291,638.1228,638.1229,639.2759,return,0.179,,56.38020833,,,,,,FBP-PT-71.png,0.37,1.2,2,0.5,,,,,,,,,,,,,0,21,21,1,1,,,,,,,,,,,,,,,,,,,,,,,,,,,,
,,,,,v1_035,18,Female,2024-05-23_09h56.16.868,jersey_experiment_5_v1,2023.2.2,Win32,84.03361345,,,,,,,,,,,,,,,,639.2761,641.076,641.076,642.6289,return,0.301,,88.54166667,,,,,,FBP-RB-91.png,0.45,1.2,60,1,,,,,,,,,,,,,0,22,22,59,1,,,,,,,,,,,,,,,,,,,,,,,,,,,,
,,,,,v1_035,18,Female,2024-05-23_09h56.16.868,jersey_experiment_5_v1,2023.2.2,Win32,84.03361345,,,,,,,,,,,,,,,,642.6292,644.429,644.429,645.476,return,0.2559,,49.47916667,,,,,,FBP-RB-71.png,0.35,1.2,46,1,,,,,,,,,,,,,0,23,23,45,1,,,,,,,,,,,,,,,,,,,,,,,,,,,,
,,,,,v1_035,18,Female,2024-05-23_09h56.16.868,jersey_experiment_5_v1,2023.2.2,Win32,84.03361345,,,,,,,,,,,,,,,,645.4763,647.2761,647.2762,648.2645,return,0.1337,,43.75,,,,,,FBP-OG-17.png,0.35,1.2,31,1,,,,,,,,,,,,,0,24,24,30,1,,,,,,,,,,,,,,,,,,,,,,,,,,,,
,,,,,v1_035,18,Female,2024-05-23_09h56.16.868,jersey_experiment_5_v1,2023.2.2,Win32,84.03361345,,,,,,,,,,,,,,,,648.2647,650.0645,650.0645,650.9587,return,0.1976,,63.41145833,,,,,,FBP-OG-18.png,0.43,1.2,39,1,,,,,,,,,,,,,0,25,25,38,1,,,,,,,,,,,,,,,,,,,,,,,,,,,,
,,,,,v1_035,18,Female,2024-05-23_09h56.16.868,jersey_experiment_5_v1,2023.2.2,Win32,84.03361345,,,,,,,,,,,,,,,,650.959,652.7588,652.7589,653.8176,return,0.1793,,52.86458333,,,,,,FBP-OG-19.png,0.37,1.2,42,1,,,,,,,,,,,,,0,26,26,41,1,,,,,,,,,,,,,,,,,,,,,,,,,,,,
,,,,,v1_035,18,Female,2024-05-23_09h56.16.868,jersey_experiment_5_v1,2023.2.2,Win32,84.03361345,,,,,,,,,,,,,,,,653.8178,655.6175,655.6176,657.1118,return,0.2754,,70.703125,,,,,,FBP-YG-19.png,0.4,1.2,28,1,,,,,,,,,,,,,0,27,27,27,1,,,,,,,,,,,,,,,,,,,,,,,,,,,,
,,,,,v1_035,18,Female,2024-05-23_09h56.16.868,jersey_experiment_5_v1,2023.2.2,Win32,84.03361345,,,,,,,,,,,,,,,,657.1121,658.4059,658.406,660.2531,return,0.4351,,65.75520833,,,,,,FBP-PT-81.png,0.4,1.2,8,0.5,,,,,,,,,,,,,0,28,28,7,1,,,,,,,,,,,,,,,,,,,,,,,,,,,,
,,,,,v1_035,18,Female,2024-05-23_09h56.16.868,jersey_experiment_5_v1,2023.2.2,Win32,84.03361345,,,,,,,,,,,,,,,,660.2534,662.0534,662.0534,663.5474,return,0.9754,,84.24479167,,,,,,FBP-YG-17.png,0.45,1.2,20,1,,,,,,,,,,,,,0,29,29,19,1,,,,,,,,,,,,,,,,,,,,,,,,,,,,
,,,,,v1_035,18,Female,2024-05-23_09h56.16.868,jersey_experiment_5_v1,2023.2.2,Win32,84.03361345,,,,,,,,,,,,,,,,663.5479,665.3474,665.3474,666.1356,return,0.2168,,79.81770833,,,,,,FBP-RB-81.png,0.43,1.2,54,1,,,,,,,,,,,,,0,30,30,53,1,,,,,,,,,,,,,,,,,,,,,,,,,,,,
,,,,,v1_035,18,Female,2024-05-23_09h56.16.868,jersey_experiment_5_v1,2023.2.2,Win32,84.03361345,,,,,,,,,,,,,,,,666.1358,667.9357,667.9358,669.3005,return,0.0782,,49.73958333,,,,,,FBP-RB-91.png,0.35,1.2,56,1,,,,,,,,,,,,,0,31,31,55,1,,,,,,,,,,,,,,,,,,,,,,,,,,,,
,,,,,v1_035,18,Female,2024-05-23_09h56.16.868,jersey_experiment_5_v1,2023.2.2,Win32,84.03361345,,,,,,,,,,,,,,,,669.3009,671.1004,671.1004,674.03,return,1.4111,,67.31770833,,,,,,FBP-RB-71.png,0.43,1.2,49,1,,,,,,,,,,,,,0,32,32,48,1,,,,,,,,,,,,,,,,,,,,,,,,,,,,
,,,,,v1_035,18,Female,2024-05-23_09h56.16.868,jersey_experiment_5_v1,2023.2.2,Win32,84.03361345,,,,,,,,,,,,,,,,674.0303,675.8303,675.8303,676.4772,return,0.1294,,83.46354167,,,,,,FBP-OG-18.png,0.45,1.2,40,1,,,,,,,,,,,,,0,33,33,39,1,,,,,,,,,,,,,,,,,,,,,,,,,,,,
,,,,,v1_035,18,Female,2024-05-23_09h56.16.868,jersey_experiment_5_v1,2023.2.2,Win32,84.03361345,,,,,,,,,,,,,,,,676.4774,678.2772,678.2772,678.8068,return,0.1121,,83.203125,,,,,,FBP-RB-71.png,0.45,1.2,50,1,,,,,,,,,,,,,0,34,34,49,1,,,,,,,,,,,,,,,,,,,,,,,,,,,,
,,,,,v1_035,18,Female,2024-05-23_09h56.16.868,jersey_experiment_5_v1,2023.2.2,Win32,84.03361345,,,,,,,,,,,,,,,,678.807,680.6068,680.6068,682.2775,return,1.066,,75,,,,,,FBP-OG-19.png,0.43,1.2,44,1,,,,,,,,,,,,,0,35,35,43,1,,,,,,,,,,,,,,,,,,,,,,,,,,,,
,,,,,v1_035,18,Female,2024-05-23_09h56.16.868,jersey_experiment_5_v1,2023.2.2,Win32,84.03361345,,,,,,,,,,,,,,,,682.2781,684.078,684.078,685.8777,return,0.8891,,63.28125,,,,,,FBP-RB-91.png,0.37,1.2,57,1,,,,,,,,,,,,,0,36,36,56,1,,,,,,,,,,,,,,,,,,,,,,,,,,,,
,,,,,v1_035,18,Female,2024-05-23_09h56.16.868,jersey_experiment_5_v1,2023.2.2,Win32,84.03361345,,,,,,,,,,,,,,,,685.878,687.1718,687.1718,688.3481,return,0.1884,,52.86458333,,,,,,FBP-PT-91.png,0.35,1.2,11,0.5,,,,,,,,,,,,,0,37,37,10,1,,,,,,,,,,,,,,,,,,,,,,,,,,,,
,,,,,v1_035,18,Female,2024-05-23_09h56.16.868,jersey_experiment_5_v1,2023.2.2,Win32,84.03361345,,,,,,,,,,,,,,,,688.3484,690.1483,690.1484,691.0659,return,0.226,,75.26041667,,,,,,FBP-YG-19.png,0.45,1.2,30,1,,,,,,,,,,,,,0,38,38,29,1,,,,,,,,,,,,,,,,,,,,,,,,,,,,
,,,,,v1_035,18,Female,2024-05-23_09h56.16.868,jersey_experiment_5_v1,2023.2.2,Win32,84.03361345,,,,,,,,,,,,,,,,691.0661,692.866,692.866,693.5601,return,0.1545,,70.44270833,,,,,,FBP-OG-17.png,0.43,1.2,34,1,,,,,,,,,,,,,0,39,39,33,1,,,,,,,,,,,,,,,,,,,,,,,,,,,,
,,,,,v1_035,18,Female,2024-05-23_09h56.16.868,jersey_experiment_5_v1,2023.2.2,Win32,84.03361345,,,,,,,,,,,,,,,,693.5603,695.3602,695.3603,696.2192,return,0.1661,,66.53645833,,,,,,FBP-OG-18.png,0.37,1.2,37,1,,,,,,,,,,,,,0,40,40,36,1,,,,,,,,,,,,,,,,,,,,,,,,,,,,
,,,,,v1_035,18,Female,2024-05-23_09h56.16.868,jersey_experiment_5_v1,2023.2.2,Win32,84.03361345,,,,,,,,,,,,,,,,696.2199,697.5133,697.5134,699.384,return,0.8983,,72.39583333,,,,,,FBP-PT-91.png,0.45,1.2,15,0.5,,,,,,,,,,,,,0,41,41,14,1,,,,,,,,,,,,,,,,,,,,,,,,,,,,
,,,,,v1_035,18,Female,2024-05-23_09h56.16.868,jersey_experiment_5_v1,2023.2.2,Win32,84.03361345,,,,,,,,,,,,,,,,699.3843,700.6781,700.6782,702.1369,return,0.1569,,57.68229167,,,,,,FBP-PT-91.png,0.37,1.2,12,0.5,,,,,,,,,,,,,0,42,42,11,1,,,,,,,,,,,,,,,,,,,,,,,,,,,,
,,,,,v1_035,18,Female,2024-05-23_09h56.16.868,jersey_experiment_5_v1,2023.2.2,Win32,84.03361345,,,,,,,,,,,,,,,,702.1372,703.4312,703.4312,704.749,return,0.2484,,71.484375,,,,,,FBP-PT-81.png,0.43,1.2,9,0.5,,,,,,,,,,,,,0,43,43,8,1,,,,,,,,,,,,,,,,,,,,,,,,,,,,
,,,,,v1_035,18,Female,2024-05-23_09h56.16.868,jersey_experiment_5_v1,2023.2.2,Win32,84.03361345,,,,,,,,,,,,,,,,704.7494,706.549,706.549,707.3725,return,0.1411,,51.5625,,,,,,FBP-YG-17.png,0.35,1.2,16,1,,,,,,,,,,,,,0,44,44,15,1,,,,,,,,,,,,,,,,,,,,,,,,,,,,
,,,,,v1_035,18,Female,2024-05-23_09h56.16.868,jersey_experiment_5_v1,2023.2.2,Win32,84.03361345,,,,,,,,,,,,,,,,707.3728,709.1729,709.1729,710.102,return,0.2066,,78.90625,,,,,,FBP-OG-19.png,0.45,1.2,45,1,,,,,,,,,,,,,0,45,45,44,1,,,,,,,,,,,,,,,,,,,,,,,,,,,,
,,,,,v1_035,18,Female,2024-05-23_09h56.16.868,jersey_experiment_5_v1,2023.2.2,Win32,84.03361345,,,,,,,,,,,,,,,,710.1023,711.9021,711.9021,713.455,return,0.2144,,54.03645833,,,,,,FBP-YG-19.png,0.37,1.2,27,1,,,,,,,,,,,,,0,46,46,26,1,,,,,,,,,,,,,,,,,,,,,,,,,,,,
,,,,,v1_035,18,Female,2024-05-23_09h56.16.868,jersey_experiment_5_v1,2023.2.2,Win32,84.03361345,,,,,,,,,,,,,,,,713.4553,715.255,715.255,716.7021,return,1.0037,,69.53125,,,,,,FBP-YG-17.png,0.43,1.2,19,1,,,,,,,,,,,,,0,47,47,18,1,,,,,,,,,,,,,,,,,,,,,,,,,,,,
,,,,,v1_035,18,Female,2024-05-23_09h56.16.868,jersey_experiment_5_v1,2023.2.2,Win32,84.03361345,,,,,,,,,,,,,,,,716.7023,718.5023,718.5023,720.0436,return,0.9199,,58.59375,,,,,,FBP-YG-18.png,0.37,1.2,22,1,,,,,,,,,,,,,0,48,48,21,1,,,,,,,,,,,,,,,,,,,,,,,,,,,,
,,,,,v1_035,18,Female,2024-05-23_09h56.16.868,jersey_experiment_5_v1,2023.2.2,Win32,84.03361345,,,,,,,,,,,,,,,,720.044,721.8436,721.8436,723.9141,return,1.3548,,53.125,,,,,,FBP-RB-81.png,0.35,1.2,51,1,,,,,,,,,,,,,0,49,49,50,1,,,,,,,,,,,,,,,,,,,,,,,,,,,,
,,,,,v1_035,18,Female,2024-05-23_09h56.16.868,jersey_experiment_5_v1,2023.2.2,Win32,84.03361345,,,,,,,,,,,,,,,,723.9144,725.2086,725.2086,726.9498,return,0.6654,,66.14583333,,,,,,FBP-PT-71.png,0.4,1.2,3,0.5,,,,,,,,,,,,,0,50,50,2,1,,,,,,,,,,,,,,,,,,,,,,,,,,,,
,,,,,v1_035,18,Female,2024-05-23_09h56.16.868,jersey_experiment_5_v1,2023.2.2,Win32,84.03361345,,,,,,,,,,,,,,,,726.9505,728.2437,728.2438,729.5145,return,0.2135,,53.90625,,,,,,FBP-PT-81.png,0.35,1.2,6,0.5,,,,,,,,,,,,,0,51,51,5,1,,,,,,,,,,,,,,,,,,,,,,,,,,,,
,,,,,v1_035,18,Female,2024-05-23_09h56.16.868,jersey_experiment_5_v1,2023.2.2,Win32,84.03361345,,,,,,,,,,,,,,,,729.515,731.3145,731.3145,733.4792,return,0.8993,,58.203125,,,,,,FBP-YG-17.png,0.37,1.2,17,1,,,,,,,,,,,,,0,52,52,16,1,,,,,,,,,,,,,,,,,,,,,,,,,,,,
,,,,,v1_035,18,Female,2024-05-23_09h56.16.868,jersey_experiment_5_v1,2023.2.2,Win32,84.03361345,,,,,,,,,,,,,,,,733.4794,735.2795,735.2795,736.8206,return,0.2171,,50.52083333,,,,,,FBP-YG-18.png,0.35,1.2,21,1,,,,,,,,,,,,,0,53,53,20,1,,,,,,,,,,,,,,,,,,,,,,,,,,,,
,,,,,v1_035,18,Female,2024-05-23_09h56.16.868,jersey_experiment_5_v1,2023.2.2,Win32,84.03361345,,,,,,,,,,,,,,,,736.8208,738.1148,738.1149,739.4206,return,0.2355,,46.875,,,,,,FBP-PT-71.png,0.35,1.2,1,0.5,,,,,,,,,,,,,0,54,54,0,1,,,,,,,,,,,,,,,,,,,,,,,,,,,,
,,,,,v1_035,18,Female,2024-05-23_09h56.16.868,jersey_experiment_5_v1,2023.2.2,Win32,84.03361345,,,,,,,,,,,,,,,,739.421,740.7147,740.7148,742.0444,return,0.1887,,52.86458333,,,,,,FBP-PT-81.png,0.37,1.2,7,0.5,,,,,,,,,,,,,0,55,55,6,1,,,,,,,,,,,,,,,,,,,,,,,,,,,,
,,,,,v1_035,18,Female,2024-05-23_09h56.16.868,jersey_experiment_5_v1,2023.2.2,Win32,84.03361345,,,,,,,,,,,,,,,,742.0449,743.3385,743.3385,744.421,return,0.1373,,75.26041667,,,,,,FBP-PT-71.png,0.45,1.2,5,0.5,,,,,,,,,,,,,0,56,56,4,1,,,,,,,,,,,,,,,,,,,,,,,,,,,,
,,,,,v1_035,18,Female,2024-05-23_09h56.16.868,jersey_experiment_5_v1,2023.2.2,Win32,84.03361345,,,,,,,,,,,,,,,,744.4212,746.2209,746.2209,746.8094,return,0.1793,,67.31770833,,,,,,FBP-YG-17.png,0.4,1.2,18,1,,,,,,,,,,,,,0,57,57,17,1,,,,,,,,,,,,,,,,,,,,,,,,,,,,
,,,,,v1_035,18,Female,2024-05-23_09h56.16.868,jersey_experiment_5_v1,2023.2.2,Win32,84.03361345,,,,,,,,,,,,,,,,746.8102,748.6095,748.6095,749.3977,return,0.1949,,70.703125,,,,,,FBP-RB-91.png,0.4,1.2,58,1,,,,,,,,,,,,,0,58,58,57,1,,,,,,,,,,,,,,,,,,,,,,,,,,,,
,,,,,v1_035,18,Female,2024-05-23_09h56.16.868,jersey_experiment_5_v1,2023.2.2,Win32,84.03361345,,,,,,,,,,,,,,,,749.3983,750.6917,750.6917,751.6448,return,0.1536,,79.296875,,,,,,FBP-PT-81.png,0.45,1.2,10,0.5,,,,,,,,,,,,,0,59,59,9,1,,,,,,,,,,,,,,,,,,,,,,,,,,,,
,,,,,v1_035,18,Female,2024-05-23_09h56.16.868,jersey_experiment_5_v1,2023.2.2,Win32,84.03361345,,,,,,,,,,,,,,,,751.6484,753.4448,753.4449,754.5744,return,0.1416,,80.98958333,,,,,,FBP-OG-81.png,0.45,1.2,40,1,,,,,,,,,,,,,,,,,,0,0,0,39,1,,,,,,,,,,,,,,,,,,,,,,,
,,,,,v1_035,18,Female,2024-05-23_09h56.16.868,jersey_experiment_5_v1,2023.2.2,Win32,84.03361345,,,,,,,,,,,,,,,,754.5751,756.3744,756.3744,757.3036,return,0.122,,74.47916667,,,,,,FBP-YG-91.png,0.45,1.2,30,1,,,,,,,,,,,,,,,,,,0,1,1,29,1,,,,,,,,,,,,,,,,,,,,,,,
,,,,,v1_035,18,Female,2024-05-23_09h56.16.868,jersey_experiment_5_v1,2023.2.2,Win32,84.03361345,,,,,,,,,,,,,,,,757.3039,759.104,759.104,759.8215,return,0.2469,,71.09375,,,,,,FBP-OG-81.png,0.4,1.2,38,1,,,,,,,,,,,,,,,,,,0,2,2,37,1,,,,,,,,,,,,,,,,,,,,,,,
,,,,,v1_035,18,Female,2024-05-23_09h56.16.868,jersey_experiment_5_v1,2023.2.2,Win32,84.03361345,,,,,,,,,,,,,,,,759.8219,761.1156,761.1157,763.0333,return,0.1092,,43.359375,,,,,,FBP-PT-19.png,0.35,1.2,11,0.5,,,,,,,,,,,,,,,,,,0,3,3,10,1,,,,,,,,,,,,,,,,,,,,,,,
,,,,,v1_035,18,Female,2024-05-23_09h56.16.868,jersey_experiment_5_v1,2023.2.2,Win32,84.03361345,,,,,,,,,,,,,,,,763.0335,764.8335,764.8335,766.1982,return,0.1006,,69.27083333,,,,,,FBP-OG-71.png,0.4,1.2,33,1,,,,,,,,,,,,,,,,,,0,4,4,32,1,,,,,,,,,,,,,,,,,,,,,,,
,,,,,v1_035,18,Female,2024-05-23_09h56.16.868,jersey_experiment_5_v1,2023.2.2,Win32,84.03361345,,,,,,,,,,,,,,,,766.1984,767.9982,767.9982,769.5984,return,0.13,,71.875,,,,,,FBP-RB-18.png,0.43,1.2,54,1,,,,,,,,,,,,,,,,,,0,5,5,53,1,,,,,,,,,,,,,,,,,,,,,,,
,,,,,v1_035,18,Female,2024-05-23_09h56.16.868,jersey_experiment_5_v1,2023.2.2,Win32,84.03361345,,,,,,,,,,,,,,,,769.5989,770.8924,770.8924,771.7866,return,0.143,,53.90625,,,,,,FBP-PT-19.png,0.37,1.2,12,0.5,,,,,,,,,,,,,,,,,,0,6,6,11,1,,,,,,,,,,,,,,,,,,,,,,,
,,,,,v1_035,18,Female,2024-05-23_09h56.16.868,jersey_experiment_5_v1,2023.2.2,Win32,84.03361345,,,,,,,,,,,,,,,,771.7868,773.5866,773.5866,775.4221,return,0.2005,,69.921875,,,,,,FBP-YG-91.png,0.43,1.2,29,1,,,,,,,,,,,,,,,,,,0,7,7,28,1,,,,,,,,,,,,,,,,,,,,,,,
,,,,,v1_035,18,Female,2024-05-23_09h56.16.868,jersey_experiment_5_v1,2023.2.2,Win32,84.03361345,,,,,,,,,,,,,,,,775.4227,776.7161,776.7161,778.1044,return,0.1571,,72.91666667,,,,,,FBP-PT-19.png,0.43,1.2,14,0.5,,,,,,,,,,,,,,,,,,0,8,8,13,1,,,,,,,,,,,,,,,,,,,,,,,
,,,,,v1_035,18,Female,2024-05-23_09h56.16.868,jersey_experiment_5_v1,2023.2.2,Win32,84.03361345,,,,,,,,,,,,,,,,778.1047,779.9046,779.9046,780.4692,return,0.16,,72.65625,,,,,,FBP-OG-91.png,0.43,1.2,44,1,,,,,,,,,,,,,,,,,,0,9,9,43,1,,,,,,,,,,,,,,,,,,,,,,,
,,,,,v1_035,18,Female,2024-05-23_09h56.16.868,jersey_experiment_5_v1,2023.2.2,Win32,84.03361345,,,,,,,,,,,,,,,,780.4694,782.2693,782.2693,782.9046,return,0.0743,,67.96875,,,,,,FBP-YG-81.png,0.4,1.2,23,1,,,,,,,,,,,,,,,,,,0,10,10,22,1,,,,,,,,,,,,,,,,,,,,,,,
,,,,,v1_035,18,Female,2024-05-23_09h56.16.868,jersey_experiment_5_v1,2023.2.2,Win32,84.03361345,,,,,,,,,,,,,,,,782.905,784.1987,784.1988,785.3871,return,0.4601,,67.96875,,,,,,FBP-PT-18.png,0.4,1.2,8,0.5,,,,,,,,,,,,,,,,,,0,11,11,7,1,,,,,,,,,,,,,,,,,,,,,,,
,,,,,v1_035,18,Female,2024-05-23_09h56.16.868,jersey_experiment_5_v1,2023.2.2,Win32,84.03361345,,,,,,,,,,,,,,,,785.3874,786.6812,786.6812,788.5872,return,0.2364,,29.81770833,,,,,,FBP-PT-17.png,0.35,1.2,1,0.5,,,,,,,,,,,,,,,,,,0,12,12,0,1,,,,,,,,,,,,,,,,,,,,,,,
,,,,,v1_035,18,Female,2024-05-23_09h56.16.868,jersey_experiment_5_v1,2023.2.2,Win32,84.03361345,,,,,,,,,,,,,,,,788.5875,790.3873,790.3873,791.6461,return,0.1998,,53.64583333,,,,,,FBP-YG-81.png,0.37,1.2,22,1,,,,,,,,,,,,,,,,,,0,13,13,21,1,,,,,,,,,,,,,,,,,,,,,,,
,,,,,v1_035,18,Female,2024-05-23_09h56.16.868,jersey_experiment_5_v1,2023.2.2,Win32,84.03361345,,,,,,,,,,,,,,,,791.6465,793.4462,793.4463,795.7639,return,0.7732,,56.51041667,,,,,,FBP-OG-91.png,0.4,1.2,43,1,,,,,,,,,,,,,,,,,,0,14,14,42,1,,,,,,,,,,,,,,,,,,,,,,,
,,,,,v1_035,18,Female,2024-05-23_09h56.16.868,jersey_experiment_5_v1,2023.2.2,Win32,84.03361345,,,,,,,,,,,,,,,,795.7641,797.5641,797.5641,798.564,return,0.2438,,75,,,,,,FBP-RB-17.png,0.45,1.2,50,1,,,,,,,,,,,,,,,,,,0,15,15,49,1,,,,,,,,,,,,,,,,,,,,,,,
,,,,,v1_035,18,Female,2024-05-23_09h56.16.868,jersey_experiment_5_v1,2023.2.2,Win32,84.03361345,,,,,,,,,,,,,,,,798.5642,800.364,800.3641,801.223,return,0.1695,,67.1875,,,,,,FBP-RB-19.png,0.4,1.2,58,1,,,,,,,,,,,,,,,,,,0,16,16,57,1,,,,,,,,,,,,,,,,,,,,,,,
,,,,,v1_035,18,Female,2024-05-23_09h56.16.868,jersey_experiment_5_v1,2023.2.2,Win32,84.03361345,,,,,,,,,,,,,,,,801.2232,803.0231,803.0232,803.7525,return,0.13,,54.296875,,,,,,FBP-RB-17.png,0.35,1.2,46,1,,,,,,,,,,,,,,,,,,0,17,17,45,1,,,,,,,,,,,,,,,,,,,,,,,
,,,,,v1_035,18,Female,2024-05-23_09h56.16.868,jersey_experiment_5_v1,2023.2.2,Win32,84.03361345,,,,,,,,,,,,,,,,803.7529,805.5525,805.5525,807.2585,return,0.2373,,59.63541667,,,,,,FBP-YG-91.png,0.37,1.2,27,1,,,,,,,,,,,,,,,,,,0,18,18,26,1,,,,,,,,,,,,,,,,,,,,,,,
,,,,,v1_035,18,Female,2024-05-23_09h56.16.868,jersey_experiment_5_v1,2023.2.2,Win32,84.03361345,,,,,,,,,,,,,,,,807.2588,809.0586,809.0586,810.5411,return,0.835,,54.55729167,,,,,,FBP-RB-18.png,0.37,1.2,52,1,,,,,,,,,,,,,,,,,,0,19,19,51,1,,,,,,,,,,,,,,,,,,,,,,,
,,,,,v1_035,18,Female,2024-05-23_09h56.16.868,jersey_experiment_5_v1,2023.2.2,Win32,84.03361345,,,,,,,,,,,,,,,,810.5414,812.3412,812.3412,813.3647,return,0.1927,,70.96354167,,,,,,FBP-OG-81.png,0.43,1.2,39,1,,,,,,,,,,,,,,,,,,0,20,20,38,1,,,,,,,,,,,,,,,,,,,,,,,
,,,,,v1_035,18,Female,2024-05-23_09h56.16.868,jersey_experiment_5_v1,2023.2.2,Win32,84.03361345,,,,,,,,,,,,,,,,813.3649,815.1647,815.1647,817.7176,return,1.2779,,53.90625,,,,,,FBP-YG-91.png,0.35,1.2,26,1,,,,,,,,,,,,,,,,,,0,21,21,25,1,,,,,,,,,,,,,,,,,,,,,,,
,,,,,v1_035,18,Female,2024-05-23_09h56.16.868,jersey_experiment_5_v1,2023.2.2,Win32,84.03361345,,,,,,,,,,,,,,,,817.7179,819.5182,819.5183,820.2708,return,0.1728,,74.34895833,,,,,,FBP-OG-71.png,0.45,1.2,35,1,,,,,,,,,,,,,,,,,,0,22,22,34,1,,,,,,,,,,,,,,,,,,,,,,,
,,,,,v1_035,18,Female,2024-05-23_09h56.16.868,jersey_experiment_5_v1,2023.2.2,Win32,84.03361345,,,,,,,,,,,,,,,,820.2713,821.5648,821.5648,822.459,return,0.0956,,75,,,,,,FBP-PT-17.png,0.43,1.2,4,0.5,,,,,,,,,,,,,,,,,,0,23,23,3,1,,,,,,,,,,,,,,,,,,,,,,,
,,,,,v1_035,18,Female,2024-05-23_09h56.16.868,jersey_experiment_5_v1,2023.2.2,Win32,84.03361345,,,,,,,,,,,,,,,,822.4592,824.2591,824.2591,825.6356,return,0.3382,,52.86458333,,,,,,FBP-OG-81.png,0.37,1.2,37,1,,,,,,,,,,,,,,,,,,0,24,24,36,1,,,,,,,,,,,,,,,,,,,,,,,
,,,,,v1_035,18,Female,2024-05-23_09h56.16.868,jersey_experiment_5_v1,2023.2.2,Win32,84.03361345,,,,,,,,,,,,,,,,825.6359,827.4357,827.4357,828.3416,return,0.1481,,57.16145833,,,,,,FBP-OG-71.png,0.37,1.2,32,1,,,,,,,,,,,,,,,,,,0,25,25,31,1,,,,,,,,,,,,,,,,,,,,,,,
,,,,,v1_035,18,Female,2024-05-23_09h56.16.868,jersey_experiment_5_v1,2023.2.2,Win32,84.03361345,,,,,,,,,,,,,,,,828.3418,830.1418,830.1418,831.2948,return,0.1873,,49.86979167,,,,,,FBP-RB-18.png,0.35,1.2,51,1,,,,,,,,,,,,,,,,,,0,26,26,50,1,,,,,,,,,,,,,,,,,,,,,,,
,,,,,v1_035,18,Female,2024-05-23_09h56.16.868,jersey_experiment_5_v1,2023.2.2,Win32,84.03361345,,,,,,,,,,,,,,,,831.2952,833.0947,833.0947,834.0243,return,0.2272,,62.890625,,,,,,FBP-RB-18.png,0.4,1.2,53,1,,,,,,,,,,,,,,,,,,0,27,27,52,1,,,,,,,,,,,,,,,,,,,,,,,
,,,,,v1_035,18,Female,2024-05-23_09h56.16.868,jersey_experiment_5_v1,2023.2.2,Win32,84.03361345,,,,,,,,,,,,,,,,834.0247,835.8241,835.8242,836.7302,return,0.2585,,75.65104167,,,,,,FBP-RB-18.png,0.45,1.2,55,1,,,,,,,,,,,,,,,,,,0,28,28,54,1,,,,,,,,,,,,,,,,,,,,,,,
,,,,,v1_035,18,Female,2024-05-23_09h56.16.868,jersey_experiment_5_v1,2023.2.2,Win32,84.03361345,,,,,,,,,,,,,,,,836.7308,838.5306,838.5306,839.5184,return,0.1883,,64.19270833,,,,,,FBP-RB-17.png,0.37,1.2,47,1,,,,,,,,,,,,,,,,,,0,29,29,46,1,,,,,,,,,,,,,,,,,,,,,,,
,,,,,v1_035,18,Female,2024-05-23_09h56.16.868,jersey_experiment_5_v1,2023.2.2,Win32,84.03361345,,,,,,,,,,,,,,,,839.5187,841.3189,841.3189,841.9657,return,0.1409,,74.609375,,,,,,FBP-YG-81.png,0.43,1.2,24,1,,,,,,,,,,,,,,,,,,0,30,30,23,1,,,,,,,,,,,,,,,,,,,,,,,
,,,,,v1_035,18,Female,2024-05-23_09h56.16.868,jersey_experiment_5_v1,2023.2.2,Win32,84.03361345,,,,,,,,,,,,,,,,841.9661,843.7658,843.7658,845.0127,return,0.1959,,70.57291667,,,,,,FBP-YG-71.png,0.4,1.2,18,1,,,,,,,,,,,,,,,,,,0,31,31,17,1,,,,,,,,,,,,,,,,,,,,,,,
,,,,,v1_035,18,Female,2024-05-23_09h56.16.868,jersey_experiment_5_v1,2023.2.2,Win32,84.03361345,,,,,,,,,,,,,,,,845.0129,846.307,846.3071,848.8836,return,1.4534,,54.55729167,,,,,,FBP-PT-17.png,0.37,1.2,2,0.5,,,,,,,,,,,,,,,,,,0,32,32,1,1,,,,,,,,,,,,,,,,,,,,,,,
,,,,,v1_035,18,Female,2024-05-23_09h56.16.868,jersey_experiment_5_v1,2023.2.2,Win32,84.03361345,,,,,,,,,,,,,,,,848.8839,850.6837,850.6837,851.5663,return,0.1414,,49.47916667,,,,,,FBP-RB-19.png,0.37,1.2,57,1,,,,,,,,,,,,,,,,,,0,33,33,56,1,,,,,,,,,,,,,,,,,,,,,,,
,,,,,v1_035,18,Female,2024-05-23_09h56.16.868,jersey_experiment_5_v1,2023.2.2,Win32,84.03361345,,,,,,,,,,,,,,,,851.5668,853.3662,853.3662,856.1543,return,1.1408,,50.13020833,,,,,,FBP-RB-17.png,0.4,1.2,48,1,,,,,,,,,,,,,,,,,,0,34,34,47,1,,,,,,,,,,,,,,,,,,,,,,,
,,,,,v1_035,18,Female,2024-05-23_09h56.16.868,jersey_experiment_5_v1,2023.2.2,Win32,84.03361345,,,,,,,,,,,,,,,,856.1546,857.9545,857.9545,859.3073,return,0.2455,,52.47395833,,,,,,FBP-YG-71.png,0.37,1.2,17,1,,,,,,,,,,,,,,,,,,0,35,35,16,1,,,,,,,,,,,,,,,,,,,,,,,
,,,,,v1_035,18,Female,2024-05-23_09h56.16.868,jersey_experiment_5_v1,2023.2.2,Win32,84.03361345,,,,,,,,,,,,,,,,859.3074,861.1076,861.1076,862.6018,return,0.2145,,37.63020833,,,,,,FBP-OG-71.png,0.35,1.2,31,1,,,,,,,,,,,,,,,,,,0,36,36,30,1,,,,,,,,,,,,,,,,,,,,,,,
,,,,,v1_035,18,Female,2024-05-23_09h56.16.868,jersey_experiment_5_v1,2023.2.2,Win32,84.03361345,,,,,,,,,,,,,,,,862.602,864.4017,864.4017,865.8371,return,0.8477,,69.40104167,,,,,,FBP-RB-17.png,0.43,1.2,49,1,,,,,,,,,,,,,,,,,,0,37,37,48,1,,,,,,,,,,,,,,,,,,,,,,,
,,,,,v1_035,18,Female,2024-05-23_09h56.16.868,jersey_experiment_5_v1,2023.2.2,Win32,84.03361345,,,,,,,,,,,,,,,,865.8374,867.6373,867.6373,868.4255,return,0.2265,,74.86979167,,,,,,FBP-RB-19.png,0.43,1.2,59,1,,,,,,,,,,,,,,,,,,0,38,38,58,1,,,,,,,,,,,,,,,,,,,,,,,
,,,,,v1_035,18,Female,2024-05-23_09h56.16.868,jersey_experiment_5_v1,2023.2.2,Win32,84.03361345,,,,,,,,,,,,,,,,868.4257,870.2253,870.2254,870.7901,return,0.1241,,74.86979167,,,,,,FBP-YG-81.png,0.45,1.2,25,1,,,,,,,,,,,,,,,,,,0,39,39,24,1,,,,,,,,,,,,,,,,,,,,,,,
,,,,,v1_035,18,Female,2024-05-23_09h56.16.868,jersey_experiment_5_v1,2023.2.2,Win32,84.03361345,,,,,,,,,,,,,,,,870.7903,872.5902,872.5903,873.0843,return,0.1088,,74.86979167,,,,,,FBP-YG-71.png,0.43,1.2,19,1,,,,,,,,,,,,,,,,,,0,40,40,18,1,,,,,,,,,,,,,,,,,,,,,,,
,,,,,v1_035,18,Female,2024-05-23_09h56.16.868,jersey_experiment_5_v1,2023.2.2,Win32,84.03361345,,,,,,,,,,,,,,,,873.0846,874.3784,874.3784,876.3788,return,0.9788,,44.140625,,,,,,FBP-PT-18.png,0.37,1.2,7,0.5,,,,,,,,,,,,,,,,,,0,41,41,6,1,,,,,,,,,,,,,,,,,,,,,,,
,,,,,v1_035,18,Female,2024-05-23_09h56.16.868,jersey_experiment_5_v1,2023.2.2,Win32,84.03361345,,,,,,,,,,,,,,,,876.3791,878.1789,878.179,880.1554,return,1.2342,,71.74479167,,,,,,FBP-RB-19.png,0.45,1.2,60,1,,,,,,,,,,,,,,,,,,0,42,42,59,1,,,,,,,,,,,,,,,,,,,,,,,
,,,,,v1_035,18,Female,2024-05-23_09h56.16.868,jersey_experiment_5_v1,2023.2.2,Win32,84.03361345,,,,,,,,,,,,,,,,880.1556,881.4495,881.4495,882.8261,return,0.1323,,51.82291667,,,,,,FBP-PT-19.png,0.4,1.2,13,0.5,,,,,,,,,,,,,,,,,,0,43,43,12,1,,,,,,,,,,,,,,,,,,,,,,,
,,,,,v1_035,18,Female,2024-05-23_09h56.16.868,jersey_experiment_5_v1,2023.2.2,Win32,84.03361345,,,,,,,,,,,,,,,,882.8264,884.6262,884.6262,885.3909,return,0.141,,49.73958333,,,,,,FBP-OG-91.png,0.37,1.2,42,1,,,,,,,,,,,,,,,,,,0,44,44,41,1,,,,,,,,,,,,,,,,,,,,,,,
,,,,,v1_035,18,Female,2024-05-23_09h56.16.868,jersey_experiment_5_v1,2023.2.2,Win32,84.03361345,,,,,,,,,,,,,,,,885.3912,887.1912,887.1912,888.0615,return,0.2229,,47.65625,,,,,,FBP-OG-81.png,0.35,1.2,36,1,,,,,,,,,,,,,,,,,,0,45,45,35,1,,,,,,,,,,,,,,,,,,,,,,,
,,,,,v1_035,18,Female,2024-05-23_09h56.16.868,jersey_experiment_5_v1,2023.2.2,Win32,84.03361345,,,,,,,,,,,,,,,,888.0619,889.8617,889.8617,890.7559,return,0.2671,,53.64583333,,,,,,FBP-YG-91.png,0.4,1.2,28,1,,,,,,,,,,,,,,,,,,0,46,46,27,1,,,,,,,,,,,,,,,,,,,,,,,
,,,,,v1_035,18,Female,2024-05-23_09h56.16.868,jersey_experiment_5_v1,2023.2.2,Win32,84.03361345,,,,,,,,,,,,,,,,890.7566,892.5562,892.5562,893.4146,return,0.2174,,49.86979167,,,,,,FBP-YG-81.png,0.35,1.2,21,1,,,,,,,,,,,,,,,,,,0,47,47,20,1,,,,,,,,,,,,,,,,,,,,,,,
,,,,,v1_035,18,Female,2024-05-23_09h56.16.868,jersey_experiment_5_v1,2023.2.2,Win32,84.03361345,,,,,,,,,,,,,,,,893.4149,895.2146,895.2147,896.8619,return,0.2353,,65.234375,,,,,,FBP-OG-91.png,0.45,1.2,45,1,,,,,,,,,,,,,,,,,,0,48,48,44,1,,,,,,,,,,,,,,,,,,,,,,,
,,,,,v1_035,18,Female,2024-05-23_09h56.16.868,jersey_experiment_5_v1,2023.2.2,Win32,84.03361345,,,,,,,,,,,,,,,,896.8624,898.1559,898.156,899.1796,return,0.1307,,75.26041667,,,,,,FBP-PT-18.png,0.45,1.2,10,0.5,,,,,,,,,,,,,,,,,,0,49,49,9,1,,,,,,,,,,,,,,,,,,,,,,,
,,,,,v1_035,18,Female,2024-05-23_09h56.16.868,jersey_experiment_5_v1,2023.2.2,Win32,84.03361345,,,,,,,,,,,,,,,,899.1801,900.9798,900.9798,901.6621,return,0.1887,,72.52604167,,,,,,FBP-OG-71.png,0.43,1.2,34,1,,,,,,,,,,,,,,,,,,0,50,50,33,1,,,,,,,,,,,,,,,,,,,,,,,
,,,,,v1_035,18,Female,2024-05-23_09h56.16.868,jersey_experiment_5_v1,2023.2.2,Win32,84.03361345,,,,,,,,,,,,,,,,901.6626,903.462,903.462,904.462,return,0.1999,,77.21354167,,,,,,FBP-YG-71.png,0.45,1.2,20,1,,,,,,,,,,,,,,,,,,0,51,51,19,1,,,,,,,,,,,,,,,,,,,,,,,
,,,,,v1_035,18,Female,2024-05-23_09h56.16.868,jersey_experiment_5_v1,2023.2.2,Win32,84.03361345,,,,,,,,,,,,,,,,904.4623,906.2624,906.2625,908.2388,return,1.2033,,53.77604167,,,,,,FBP-RB-19.png,0.35,1.2,56,1,,,,,,,,,,,,,,,,,,0,52,52,55,1,,,,,,,,,,,,,,,,,,,,,,,
,,,,,v1_035,18,Female,2024-05-23_09h56.16.868,jersey_experiment_5_v1,2023.2.2,Win32,84.03361345,,,,,,,,,,,,,,,,908.239,910.0393,910.0393,910.745,return,0.1447,,49.609375,,,,,,FBP-YG-71.png,0.35,1.2,16,1,,,,,,,,,,,,,,,,,,0,53,53,15,1,,,,,,,,,,,,,,,,,,,,,,,
,,,,,v1_035,18,Female,2024-05-23_09h56.16.868,jersey_experiment_5_v1,2023.2.2,Win32,84.03361345,,,,,,,,,,,,,,,,910.7456,912.0387,912.0388,915.086,return,1.1503,,58.72395833,,,,,,FBP-PT-18.png,0.43,1.2,9,0.5,,,,,,,,,,,,,,,,,,0,54,54,8,1,,,,,,,,,,,,,,,,,,,,,,,
,,,,,v1_035,18,Female,2024-05-23_09h56.16.868,jersey_experiment_5_v1,2023.2.2,Win32,84.03361345,,,,,,,,,,,,,,,,915.0863,916.3802,916.3802,917.498,return,0.2025,,76.04166667,,,,,,FBP-PT-19.png,0.45,1.2,15,0.5,,,,,,,,,,,,,,,,,,0,55,55,14,1,,,,,,,,,,,,,,,,,,,,,,,
,,,,,v1_035,18,Female,2024-05-23_09h56.16.868,jersey_experiment_5_v1,2023.2.2,Win32,84.03361345,,,,,,,,,,,,,,,,917.4982,918.792,918.792,919.9568,return,0.1599,,67.44791667,,,,,,FBP-PT-17.png,0.45,1.2,5,0.5,,,,,,,,,,,,,,,,,,0,56,56,4,1,,,,,,,,,,,,,,,,,,,,,,,
,,,,,v1_035,18,Female,2024-05-23_09h56.16.868,jersey_experiment_5_v1,2023.2.2,Win32,84.03361345,,,,,,,,,,,,,,,,919.9571,921.2509,921.251,922.5216,return,0.2383,,31.38020833,,,,,,FBP-PT-18.png,0.35,1.2,6,0.5,,,,,,,,,,,,,,,,,,0,57,57,5,1,,,,,,,,,,,,,,,,,,,,,,,
,,,,,v1_035,18,Female,2024-05-23_09h56.16.868,jersey_experiment_5_v1,2023.2.2,Win32,84.03361345,,,,,,,,,,,,,,,,922.5218,924.3216,924.3216,925.6276,return,0.1545,,49.86979167,,,,,,FBP-OG-91.png,0.35,1.2,41,1,,,,,,,,,,,,,,,,,,0,58,58,40,1,,,,,,,,,,,,,,,,,,,,,,,
,,,,,v1_035,18,Female,2024-05-23_09h56.16.868,jersey_experiment_5_v1,2023.2.2,Win32,84.03361345,,,,,,,,,,,,,,,,925.6283,926.9218,926.9218,929.5572,return,0.7243,,53.38541667,,,,,,FBP-PT-17.png,0.4,1.2,3,0.5,,,,,,,,,,,,,,,,,,0,59,59,2,1,,,,,,,,,,,,,,,,,,,,,,,
,,,,,v1_035,18,Female,2024-05-23_09h56.16.868,jersey_experiment_5_v1,2023.2.2,Win32,84.03361345,,,,,,,,,,,,,,,,,,,,,,,,,,,,,,,,,,,,,,,,,,,,,,,,,,,,,,,,929.5577,933.4164,return,3.8489,,,,,,,,,,,,,,,,,,,
,,,,,v1_035,18,Female,2024-05-23_09h56.16.868,jersey_experiment_5_v1,2023.2.2,Win32,84.03361345,,,,,,,,,,,,,,,,,,,,,,,,,,,,,,,,,,,,,,,,,,,,,,,,,,,,,,,,,,,,,933.4165,937.8637,1,3.0809,return,1.3417,,,,,,,,,,,,
,,,,,v1_035,18,Female,2024-05-23_09h56.16.868,jersey_experiment_5_v1,2023.2.2,Win32,84.03361345,,,,,,,,,,,,,,,,,,,,,,,,,,,,,,,,,,,,,,,,,,,,,,,,,,,,,,,,,,,,,,,,,,,,937.864,1011.2546,"I do not have any idea what the study is about, possibly about different areas we choose in order to perceive things. I did not recognize any patterns.",right,64.8832,,,,,,
,,,,,v1_035,18,Female,2024-05-23_09h56.16.868,jersey_experiment_5_v1,2023.2.2,Win32,84.03361345,,,,,,,,,,,,,,,,,,,,,,,,,,,,,,,,,,,,,,,,,,,,,,,,,,,,,,,,,,,,,,,,,,,,,,,,,,1011.2547,1014.7133,return,3.4452,