requirements.started,requirements.stopped,key_resp_3.keys,key_resp_3.rt,key_resp_3.duration,Subject ID,Age,Gender,date,expName,psychopyVersion,OS,frameRate,instructions1.started,instructions1.stopped,key_resp.keys,key_resp.rt,key_resp.duration,example.started,example.stopped,enter_2.keys,enter_2.rt,enter_2.duration,instructions2.started,instructions2.stopped,enter_3.keys,enter_3.rt,enter_3.duration,image.started,image.stopped,slider_2.started,slider_2.stopped,next.keys,next.rt,next.duration,slider.response,trial_block_1.thisRepN,trial_block_1.thisTrialN,trial_block_1.thisN,trial_block_1.thisIndex,trial_block_1.ran,Path,Width,Height,Index,Duration,trial_block_2.thisRepN,trial_block_2.thisTrialN,trial_block_2.thisN,trial_block_2.thisIndex,trial_block_2.ran,rest_break.started,rest_break.stopped,end_break.started,end_break.stopped,key_resp_5.keys,key_resp_5.rt,key_resp_5.duration,trial_block_3.thisRepN,trial_block_3.thisTrialN,trial_block_3.thisN,trial_block_3.thisIndex,trial_block_3.ran,trial_block_4.thisRepN,trial_block_4.thisTrialN,trial_block_4.thisN,trial_block_4.thisIndex,trial_block_4.ran,questions_intro.started,questions_intro.stopped,enter_12.keys,enter_12.rt,enter_12.duration,question2.started,question2.stopped,question_doingbest.response,question_doingbest.rt,enter_15.keys,enter_15.rt,enter_15.duration,pattern.started,pattern.stopped,pattern_2.text,enter_17.keys,enter_17.rt,enter_17.duration,thankyou.started,thankyou.stopped,enter_14.keys,enter_14.rt,enter_14.duration
0.0001,17.0167,return,17.0082,,V1_033,22,Female,2024-05-22_16h32.20.202,jersey_experiment_5_v1,2023.2.2,Win32,85.47008547,,,,,,,,,,,,,,,,,,,,,,,,,,,,,,,,,,,,,,,,,,,,,,,,,,,,,,,,,,,,,,,,,,,,,,,,,,,,,,
,,,,,V1_033,22,Female,2024-05-22_16h32.20.202,jersey_experiment_5_v1,2023.2.2,Win32,85.47008547,17.0168,28.3927,return,11.3678,,,,,,,,,,,,,,,,,,,,,,,,,,,,,,,,,,,,,,,,,,,,,,,,,,,,,,,,,,,,,,,,,,,,,,,,,,
,,,,,V1_033,22,Female,2024-05-22_16h32.20.202,jersey_experiment_5_v1,2023.2.2,Win32,85.47008547,,,,,,28.3928,33.7809,return,5.3601,,,,,,,,,,,,,,,,,,,,,,,,,,,,,,,,,,,,,,,,,,,,,,,,,,,,,,,,,,,,,,,,,,,,,
,,,,,V1_033,22,Female,2024-05-22_16h32.20.202,jersey_experiment_5_v1,2023.2.2,Win32,85.47008547,,,,,,,,,,,33.781,65.2759,return,31.4825,,,,,,,,,,,,,,,,,,,,,,,,,,,,,,,,,,,,,,,,,,,,,,,,,,,,,,,,,,,,,,,,
,,,,,V1_033,22,Female,2024-05-22_16h32.20.202,jersey_experiment_5_v1,2023.2.2,Win32,85.47008547,,,,,,,,,,,,,,,,65.2786,67.0761,67.0762,79.0768,return,5.2777,,74.73958333,0,0,0,9,1,FBP-PT-81.png,0.45,1.2,10,1,,,,,,,,,,,,,,,,,,,,,,,,,,,,,,,,,,,,,,,,,,,,,
,,,,,V1_033,22,Female,2024-05-22_16h32.20.202,jersey_experiment_5_v1,2023.2.2,Win32,85.47008547,,,,,,,,,,,,,,,,79.077,80.8763,80.8765,83.453,return,0.7894,,73.95833333,0,1,1,3,1,FBP-PT-71.png,0.43,1.2,4,1,,,,,,,,,,,,,,,,,,,,,,,,,,,,,,,,,,,,,,,,,,,,,
,,,,,V1_033,22,Female,2024-05-22_16h32.20.202,jersey_experiment_5_v1,2023.2.2,Win32,85.47008547,,,,,,,,,,,,,,,,83.4532,84.7472,84.7473,88.1238,return,1.507,,77.21354167,0,2,2,27,1,FBP-YG-19.png,0.4,1.2,28,0.5,,,,,,,,,,,,,,,,,,,,,,,,,,,,,,,,,,,,,,,,,,,,,
,,,,,V1_033,22,Female,2024-05-22_16h32.20.202,jersey_experiment_5_v1,2023.2.2,Win32,85.47008547,,,,,,,,,,,,,,,,88.1239,89.4179,89.418,92.9709,return,0.483,,43.48958333,0,3,3,31,1,FBP-OG-17.png,0.37,1.2,32,0.5,,,,,,,,,,,,,,,,,,,,,,,,,,,,,,,,,,,,,,,,,,,,,
,,,,,V1_033,22,Female,2024-05-22_16h32.20.202,jersey_experiment_5_v1,2023.2.2,Win32,85.47008547,,,,,,,,,,,,,,,,92.9713,94.2651,94.2651,98.23,return,1.7226,,86.71875,0,4,4,57,1,FBP-RB-91.png,0.4,1.2,58,0.5,,,,,,,,,,,,,,,,,,,,,,,,,,,,,,,,,,,,,,,,,,,,,
,,,,,V1_033,22,Female,2024-05-22_16h32.20.202,jersey_experiment_5_v1,2023.2.2,Win32,85.47008547,,,,,,,,,,,,,,,,98.2302,100.0301,100.0301,102.8892,return,1.2861,,92.44791667,0,5,5,8,1,FBP-PT-81.png,0.43,1.2,9,1,,,,,,,,,,,,,,,,,,,,,,,,,,,,,,,,,,,,,,,,,,,,,
,,,,,V1_033,22,Female,2024-05-22_16h32.20.202,jersey_experiment_5_v1,2023.2.2,Win32,85.47008547,,,,,,,,,,,,,,,,102.8894,104.1834,104.1834,108.3599,return,1.1676,,26.5625,0,6,6,35,1,FBP-OG-18.png,0.35,1.2,36,0.5,,,,,,,,,,,,,,,,,,,,,,,,,,,,,,,,,,,,,,,,,,,,,
,,,,,V1_033,22,Female,2024-05-22_16h32.20.202,jersey_experiment_5_v1,2023.2.2,Win32,85.47008547,,,,,,,,,,,,,,,,108.36,109.6539,109.6539,113.3366,return,1.9454,,96.875,0,7,7,19,1,FBP-YG-17.png,0.45,1.2,20,0.5,,,,,,,,,,,,,,,,,,,,,,,,,,,,,,,,,,,,,,,,,,,,,
,,,,,V1_033,22,Female,2024-05-22_16h32.20.202,jersey_experiment_5_v1,2023.2.2,Win32,85.47008547,,,,,,,,,,,,,,,,113.3368,114.6306,114.6306,119.0544,return,2.7425,,58.46354167,0,8,8,51,1,FBP-RB-81.png,0.37,1.2,52,0.5,,,,,,,,,,,,,,,,,,,,,,,,,,,,,,,,,,,,,,,,,,,,,
,,,,,V1_033,22,Female,2024-05-22_16h32.20.202,jersey_experiment_5_v1,2023.2.2,Win32,85.47008547,,,,,,,,,,,,,,,,119.0546,120.3484,120.3484,123.0544,return,1.3081,,99.34895833,0,9,9,59,1,FBP-RB-91.png,0.45,1.2,60,0.5,,,,,,,,,,,,,,,,,,,,,,,,,,,,,,,,,,,,,,,,,,,,,
,,,,,V1_033,22,Female,2024-05-22_16h32.20.202,jersey_experiment_5_v1,2023.2.2,Win32,85.47008547,,,,,,,,,,,,,,,,123.0545,124.3487,124.3487,127.7016,return,1.3345,,72.13541667,0,10,10,38,1,FBP-OG-18.png,0.43,1.2,39,0.5,,,,,,,,,,,,,,,,,,,,,,,,,,,,,,,,,,,,,,,,,,,,,
,,,,,V1_033,22,Female,2024-05-22_16h32.20.202,jersey_experiment_5_v1,2023.2.2,Win32,85.47008547,,,,,,,,,,,,,,,,127.7019,128.9959,128.9959,131.7725,return,1.2705,,76.171875,0,11,11,28,1,FBP-YG-19.png,0.43,1.2,29,0.5,,,,,,,,,,,,,,,,,,,,,,,,,,,,,,,,,,,,,,,,,,,,,
,,,,,V1_033,22,Female,2024-05-22_16h32.20.202,jersey_experiment_5_v1,2023.2.2,Win32,85.47008547,,,,,,,,,,,,,,,,131.7726,133.5727,133.5728,135.8197,return,0.9522,,86.328125,0,12,12,13,1,FBP-PT-91.png,0.43,1.2,14,1,,,,,,,,,,,,,,,,,,,,,,,,,,,,,,,,,,,,,,,,,,,,,
,,,,,V1_033,22,Female,2024-05-22_16h32.20.202,jersey_experiment_5_v1,2023.2.2,Win32,85.47008547,,,,,,,,,,,,,,,,135.8199,137.6198,137.6198,144.0434,return,3.8135,,43.88020833,0,13,13,1,1,FBP-PT-71.png,0.37,1.2,2,1,,,,,,,,,,,,,,,,,,,,,,,,,,,,,,,,,,,,,,,,,,,,,
,,,,,V1_033,22,Female,2024-05-22_16h32.20.202,jersey_experiment_5_v1,2023.2.2,Win32,85.47008547,,,,,,,,,,,,,,,,144.0436,145.8437,145.8437,147.4554,return,0.6347,,70.3125,0,14,14,12,1,FBP-PT-91.png,0.4,1.2,13,1,,,,,,,,,,,,,,,,,,,,,,,,,,,,,,,,,,,,,,,,,,,,,
,,,,,V1_033,22,Female,2024-05-22_16h32.20.202,jersey_experiment_5_v1,2023.2.2,Win32,85.47008547,,,,,,,,,,,,,,,,147.4555,148.7495,148.7495,150.6201,return,0.4476,,49.34895833,0,15,15,25,1,FBP-YG-19.png,0.35,1.2,26,0.5,,,,,,,,,,,,,,,,,,,,,,,,,,,,,,,,,,,,,,,,,,,,,
,,,,,V1_033,22,Female,2024-05-22_16h32.20.202,jersey_experiment_5_v1,2023.2.2,Win32,85.47008547,,,,,,,,,,,,,,,,150.6202,151.9144,151.9144,159.9735,return,6.9606,,87.36979167,0,16,16,24,1,FBP-YG-18.png,0.45,1.2,25,0.5,,,,,,,,,,,,,,,,,,,,,,,,,,,,,,,,,,,,,,,,,,,,,
,,,,,V1_033,22,Female,2024-05-22_16h32.20.202,jersey_experiment_5_v1,2023.2.2,Win32,85.47008547,,,,,,,,,,,,,,,,159.9779,161.2794,161.2794,163.3854,return,1.1544,,91.53645833,0,17,17,48,1,FBP-RB-71.png,0.43,1.2,49,0.5,,,,,,,,,,,,,,,,,,,,,,,,,,,,,,,,,,,,,,,,,,,,,
,,,,,V1_033,22,Female,2024-05-22_16h32.20.202,jersey_experiment_5_v1,2023.2.2,Win32,85.47008547,,,,,,,,,,,,,,,,163.3857,164.6795,164.6796,168.1502,return,0.2995,,50.91145833,0,18,18,30,1,FBP-OG-17.png,0.35,1.2,31,0.5,,,,,,,,,,,,,,,,,,,,,,,,,,,,,,,,,,,,,,,,,,,,,
,,,,,V1_033,22,Female,2024-05-22_16h32.20.202,jersey_experiment_5_v1,2023.2.2,Win32,85.47008547,,,,,,,,,,,,,,,,168.1504,169.4444,169.4444,172.3739,return,0.8655,,51.953125,0,19,19,46,1,FBP-RB-71.png,0.37,1.2,47,0.5,,,,,,,,,,,,,,,,,,,,,,,,,,,,,,,,,,,,,,,,,,,,,
,,,,,V1_033,22,Female,2024-05-22_16h32.20.202,jersey_experiment_5_v1,2023.2.2,Win32,85.47008547,,,,,,,,,,,,,,,,172.3741,173.6682,173.6682,176.7272,return,0.9686,,75.26041667,0,20,20,43,1,FBP-OG-19.png,0.43,1.2,44,0.5,,,,,,,,,,,,,,,,,,,,,,,,,,,,,,,,,,,,,,,,,,,,,
,,,,,V1_033,22,Female,2024-05-22_16h32.20.202,jersey_experiment_5_v1,2023.2.2,Win32,85.47008547,,,,,,,,,,,,,,,,176.7274,178.0213,178.0213,182.3274,return,0.3703,,73.828125,0,21,21,26,1,FBP-YG-19.png,0.37,1.2,27,0.5,,,,,,,,,,,,,,,,,,,,,,,,,,,,,,,,,,,,,,,,,,,,,
,,,,,V1_033,22,Female,2024-05-22_16h32.20.202,jersey_experiment_5_v1,2023.2.2,Win32,85.47008547,,,,,,,,,,,,,,,,182.3276,183.6213,183.6213,188.8686,return,3.4653,,44.921875,0,22,22,20,1,FBP-YG-18.png,0.35,1.2,21,0.5,,,,,,,,,,,,,,,,,,,,,,,,,,,,,,,,,,,,,,,,,,,,,
,,,,,V1_033,22,Female,2024-05-22_16h32.20.202,jersey_experiment_5_v1,2023.2.2,Win32,85.47008547,,,,,,,,,,,,,,,,188.8688,190.6687,190.6687,194.8923,return,2.3663,,31.11979167,0,23,23,0,1,FBP-PT-71.png,0.35,1.2,1,1,,,,,,,,,,,,,,,,,,,,,,,,,,,,,,,,,,,,,,,,,,,,,
,,,,,V1_033,22,Female,2024-05-22_16h32.20.202,jersey_experiment_5_v1,2023.2.2,Win32,85.47008547,,,,,,,,,,,,,,,,194.8966,196.1983,196.1983,198.9396,return,1.1531,,88.28125,0,24,24,49,1,FBP-RB-71.png,0.45,1.2,50,0.5,,,,,,,,,,,,,,,,,,,,,,,,,,,,,,,,,,,,,,,,,,,,,
,,,,,V1_033,22,Female,2024-05-22_16h32.20.202,jersey_experiment_5_v1,2023.2.2,Win32,85.47008547,,,,,,,,,,,,,,,,198.9397,200.2338,200.2338,202.6926,return,1.1846,,95.83333333,0,25,25,44,1,FBP-OG-19.png,0.45,1.2,45,0.5,,,,,,,,,,,,,,,,,,,,,,,,,,,,,,,,,,,,,,,,,,,,,
,,,,,V1_033,22,Female,2024-05-22_16h32.20.202,jersey_experiment_5_v1,2023.2.2,Win32,85.47008547,,,,,,,,,,,,,,,,202.6929,203.9868,203.9869,208.8106,return,3.4005,,27.99479167,0,26,26,40,1,FBP-OG-19.png,0.35,1.2,41,0.5,,,,,,,,,,,,,,,,,,,,,,,,,,,,,,,,,,,,,,,,,,,,,
,,,,,V1_033,22,Female,2024-05-22_16h32.20.202,jersey_experiment_5_v1,2023.2.2,Win32,85.47008547,,,,,,,,,,,,,,,,208.8107,210.1047,210.1047,213.3521,return,0.5461,,71.74479167,0,27,27,37,1,FBP-OG-18.png,0.4,1.2,38,0.5,,,,,,,,,,,,,,,,,,,,,,,,,,,,,,,,,,,,,,,,,,,,,
,,,,,V1_033,22,Female,2024-05-22_16h32.20.202,jersey_experiment_5_v1,2023.2.2,Win32,85.47008547,,,,,,,,,,,,,,,,213.3523,214.646,214.646,217.4343,return,1.3788,,61.45833333,0,28,28,50,1,FBP-RB-81.png,0.35,1.2,51,0.5,,,,,,,,,,,,,,,,,,,,,,,,,,,,,,,,,,,,,,,,,,,,,
,,,,,V1_033,22,Female,2024-05-22_16h32.20.202,jersey_experiment_5_v1,2023.2.2,Win32,85.47008547,,,,,,,,,,,,,,,,217.4345,219.2345,219.2345,221.5405,return,1.373,,49.73958333,0,29,29,5,1,FBP-PT-81.png,0.35,1.2,6,1,,,,,,,,,,,,,,,,,,,,,,,,,,,,,,,,,,,,,,,,,,,,,
,,,,,V1_033,22,Female,2024-05-22_16h32.20.202,jersey_experiment_5_v1,2023.2.2,Win32,85.47008547,,,,,,,,,,,,,,,,221.5406,222.8347,222.8347,225.0934,return,0.8881,,85.15625,0,30,30,23,1,FBP-YG-18.png,0.43,1.2,24,0.5,,,,,,,,,,,,,,,,,,,,,,,,,,,,,,,,,,,,,,,,,,,,,
,,,,,V1_033,22,Female,2024-05-22_16h32.20.202,jersey_experiment_5_v1,2023.2.2,Win32,85.47008547,,,,,,,,,,,,,,,,225.0936,226.3876,226.3876,229.7994,return,1.8273,,86.97916667,0,31,31,18,1,FBP-YG-17.png,0.43,1.2,19,0.5,,,,,,,,,,,,,,,,,,,,,,,,,,,,,,,,,,,,,,,,,,,,,
,,,,,V1_033,22,Female,2024-05-22_16h32.20.202,jersey_experiment_5_v1,2023.2.2,Win32,85.47008547,,,,,,,,,,,,,,,,229.7996,231.0937,231.0938,232.5174,return,0.4534,,86.328125,0,32,32,17,1,FBP-YG-17.png,0.4,1.2,18,0.5,,,,,,,,,,,,,,,,,,,,,,,,,,,,,,,,,,,,,,,,,,,,,
,,,,,V1_033,22,Female,2024-05-22_16h32.20.202,jersey_experiment_5_v1,2023.2.2,Win32,85.47008547,,,,,,,,,,,,,,,,232.5175,233.8115,233.8115,239.188,return,3.9617,,66.27604167,0,33,33,16,1,FBP-YG-17.png,0.37,1.2,17,0.5,,,,,,,,,,,,,,,,,,,,,,,,,,,,,,,,,,,,,,,,,,,,,
,,,,,V1_033,22,Female,2024-05-22_16h32.20.202,jersey_experiment_5_v1,2023.2.2,Win32,85.47008547,,,,,,,,,,,,,,,,239.1883,240.4823,240.4823,243.1176,return,1.4826,,80.33854167,0,34,34,33,1,FBP-OG-17.png,0.43,1.2,34,0.5,,,,,,,,,,,,,,,,,,,,,,,,,,,,,,,,,,,,,,,,,,,,,
,,,,,V1_033,22,Female,2024-05-22_16h32.20.202,jersey_experiment_5_v1,2023.2.2,Win32,85.47008547,,,,,,,,,,,,,,,,243.1177,244.412,244.412,246.7769,return,0.4024,,49.609375,0,35,35,55,1,FBP-RB-91.png,0.35,1.2,56,0.5,,,,,,,,,,,,,,,,,,,,,,,,,,,,,,,,,,,,,,,,,,,,,
,,,,,V1_033,22,Female,2024-05-22_16h32.20.202,jersey_experiment_5_v1,2023.2.2,Win32,85.47008547,,,,,,,,,,,,,,,,246.7772,248.5766,248.5767,251.3181,return,1.5478,,48.828125,0,36,36,10,1,FBP-PT-91.png,0.35,1.2,11,1,,,,,,,,,,,,,,,,,,,,,,,,,,,,,,,,,,,,,,,,,,,,,
,,,,,V1_033,22,Female,2024-05-22_16h32.20.202,jersey_experiment_5_v1,2023.2.2,Win32,85.47008547,,,,,,,,,,,,,,,,251.3183,252.6124,252.6124,255.177,return,0.4725,,75.78125,0,37,37,52,1,FBP-RB-81.png,0.4,1.2,53,0.5,,,,,,,,,,,,,,,,,,,,,,,,,,,,,,,,,,,,,,,,,,,,,
,,,,,V1_033,22,Female,2024-05-22_16h32.20.202,jersey_experiment_5_v1,2023.2.2,Win32,85.47008547,,,,,,,,,,,,,,,,255.1772,256.4711,256.4711,259.7419,return,0.259,,75.78125,0,38,38,42,1,FBP-OG-19.png,0.4,1.2,43,0.5,,,,,,,,,,,,,,,,,,,,,,,,,,,,,,,,,,,,,,,,,,,,,
,,,,,V1_033,22,Female,2024-05-22_16h32.20.202,jersey_experiment_5_v1,2023.2.2,Win32,85.47008547,,,,,,,,,,,,,,,,259.742,261.542,261.542,264.5422,return,1.2489,,54.6875,0,39,39,6,1,FBP-PT-81.png,0.37,1.2,7,1,,,,,,,,,,,,,,,,,,,,,,,,,,,,,,,,,,,,,,,,,,,,,
,,,,,V1_033,22,Female,2024-05-22_16h32.20.202,jersey_experiment_5_v1,2023.2.2,Win32,85.47008547,,,,,,,,,,,,,,,,264.5423,266.3421,266.3421,269.7658,return,2.1465,,50.390625,0,40,40,11,1,FBP-PT-91.png,0.37,1.2,12,1,,,,,,,,,,,,,,,,,,,,,,,,,,,,,,,,,,,,,,,,,,,,,
,,,,,V1_033,22,Female,2024-05-22_16h32.20.202,jersey_experiment_5_v1,2023.2.2,Win32,85.47008547,,,,,,,,,,,,,,,,269.7659,271.0599,271.0599,272.8247,return,0.7689,,49.609375,0,41,41,36,1,FBP-OG-18.png,0.37,1.2,37,0.5,,,,,,,,,,,,,,,,,,,,,,,,,,,,,,,,,,,,,,,,,,,,,
,,,,,V1_033,22,Female,2024-05-22_16h32.20.202,jersey_experiment_5_v1,2023.2.2,Win32,85.47008547,,,,,,,,,,,,,,,,272.825,274.1189,274.1189,276.3659,return,0.7393,,70.703125,0,42,42,39,1,FBP-OG-18.png,0.45,1.2,40,0.5,,,,,,,,,,,,,,,,,,,,,,,,,,,,,,,,,,,,,,,,,,,,,
,,,,,V1_033,22,Female,2024-05-22_16h32.20.202,jersey_experiment_5_v1,2023.2.2,Win32,85.47008547,,,,,,,,,,,,,,,,276.3662,277.6601,277.6601,280.3308,return,0.4134,,69.27083333,0,43,43,22,1,FBP-YG-18.png,0.4,1.2,23,0.5,,,,,,,,,,,,,,,,,,,,,,,,,,,,,,,,,,,,,,,,,,,,,
,,,,,V1_033,22,Female,2024-05-22_16h32.20.202,jersey_experiment_5_v1,2023.2.2,Win32,85.47008547,,,,,,,,,,,,,,,,280.331,281.625,281.625,283.1426,return,0.4769,,74.47916667,0,44,44,53,1,FBP-RB-81.png,0.43,1.2,54,0.5,,,,,,,,,,,,,,,,,,,,,,,,,,,,,,,,,,,,,,,,,,,,,
,,,,,V1_033,22,Female,2024-05-22_16h32.20.202,jersey_experiment_5_v1,2023.2.2,Win32,85.47008547,,,,,,,,,,,,,,,,283.1428,284.4368,284.4368,286.7781,return,0.3303,,56.25,0,45,45,41,1,FBP-OG-19.png,0.37,1.2,42,0.5,,,,,,,,,,,,,,,,,,,,,,,,,,,,,,,,,,,,,,,,,,,,,
,,,,,V1_033,22,Female,2024-05-22_16h32.20.202,jersey_experiment_5_v1,2023.2.2,Win32,85.47008547,,,,,,,,,,,,,,,,286.7783,288.5781,288.5782,291.8607,return,1.9964,,60.546875,0,46,46,7,1,FBP-PT-81.png,0.4,1.2,8,1,,,,,,,,,,,,,,,,,,,,,,,,,,,,,,,,,,,,,,,,,,,,,
,,,,,V1_033,22,Female,2024-05-22_16h32.20.202,jersey_experiment_5_v1,2023.2.2,Win32,85.47008547,,,,,,,,,,,,,,,,291.8609,293.1548,293.1548,296.6138,return,0.9234,,79.6875,0,47,47,34,1,FBP-OG-17.png,0.45,1.2,35,0.5,,,,,,,,,,,,,,,,,,,,,,,,,,,,,,,,,,,,,,,,,,,,,
,,,,,V1_033,22,Female,2024-05-22_16h32.20.202,jersey_experiment_5_v1,2023.2.2,Win32,85.47008547,,,,,,,,,,,,,,,,296.6139,297.9082,297.9082,300.155,return,1.2351,,73.56770833,0,48,48,32,1,FBP-OG-17.png,0.4,1.2,33,0.5,,,,,,,,,,,,,,,,,,,,,,,,,,,,,,,,,,,,,,,,,,,,,
,,,,,V1_033,22,Female,2024-05-22_16h32.20.202,jersey_experiment_5_v1,2023.2.2,Win32,85.47008547,,,,,,,,,,,,,,,,300.1554,301.4491,301.4491,303.2846,return,0.2061,,50.52083333,0,49,49,21,1,FBP-YG-18.png,0.37,1.2,22,0.5,,,,,,,,,,,,,,,,,,,,,,,,,,,,,,,,,,,,,,,,,,,,,
,,,,,V1_033,22,Female,2024-05-22_16h32.20.202,jersey_experiment_5_v1,2023.2.2,Win32,85.47008547,,,,,,,,,,,,,,,,303.2848,305.0846,305.0846,308.7084,return,2.6657,,60.80729167,0,50,50,2,1,FBP-PT-71.png,0.4,1.2,3,1,,,,,,,,,,,,,,,,,,,,,,,,,,,,,,,,,,,,,,,,,,,,,
,,,,,V1_033,22,Female,2024-05-22_16h32.20.202,jersey_experiment_5_v1,2023.2.2,Win32,85.47008547,,,,,,,,,,,,,,,,308.7087,310.0026,310.0026,313.4849,return,2.0947,,79.03645833,0,51,51,29,1,FBP-YG-19.png,0.45,1.2,30,0.5,,,,,,,,,,,,,,,,,,,,,,,,,,,,,,,,,,,,,,,,,,,,,
,,,,,V1_033,22,Female,2024-05-22_16h32.20.202,jersey_experiment_5_v1,2023.2.2,Win32,85.47008547,,,,,,,,,,,,,,,,313.4851,314.7791,314.7791,316.8263,return,0.9787,,82.03125,0,52,52,54,1,FBP-RB-81.png,0.45,1.2,55,0.5,,,,,,,,,,,,,,,,,,,,,,,,,,,,,,,,,,,,,,,,,,,,,
,,,,,V1_033,22,Female,2024-05-22_16h32.20.202,jersey_experiment_5_v1,2023.2.2,Win32,85.47008547,,,,,,,,,,,,,,,,316.8265,318.1204,318.1205,320.3558,return,1.0413,,76.5625,0,53,53,47,1,FBP-RB-71.png,0.4,1.2,48,0.5,,,,,,,,,,,,,,,,,,,,,,,,,,,,,,,,,,,,,,,,,,,,,
,,,,,V1_033,22,Female,2024-05-22_16h32.20.202,jersey_experiment_5_v1,2023.2.2,Win32,85.47008547,,,,,,,,,,,,,,,,320.3561,322.1559,322.1559,324.0617,return,0.4472,,86.84895833,0,54,54,4,1,FBP-PT-71.png,0.45,1.2,5,1,,,,,,,,,,,,,,,,,,,,,,,,,,,,,,,,,,,,,,,,,,,,,
,,,,,V1_033,22,Female,2024-05-22_16h32.20.202,jersey_experiment_5_v1,2023.2.2,Win32,85.47008547,,,,,,,,,,,,,,,,324.0619,325.356,325.356,327.2855,return,0.2995,,24.86979167,0,55,55,45,1,FBP-RB-71.png,0.35,1.2,46,0.5,,,,,,,,,,,,,,,,,,,,,,,,,,,,,,,,,,,,,,,,,,,,,
,,,,,V1_033,22,Female,2024-05-22_16h32.20.202,jersey_experiment_5_v1,2023.2.2,Win32,85.47008547,,,,,,,,,,,,,,,,327.2856,328.5796,328.5796,331.3091,return,0.2355,,22.52604167,0,56,56,15,1,FBP-YG-17.png,0.35,1.2,16,0.5,,,,,,,,,,,,,,,,,,,,,,,,,,,,,,,,,,,,,,,,,,,,,
,,,,,V1_033,22,Female,2024-05-22_16h32.20.202,jersey_experiment_5_v1,2023.2.2,Win32,85.47008547,,,,,,,,,,,,,,,,331.3093,332.6033,332.6033,336.6153,return,1.9104,,51.82291667,0,57,57,56,1,FBP-RB-91.png,0.37,1.2,57,0.5,,,,,,,,,,,,,,,,,,,,,,,,,,,,,,,,,,,,,,,,,,,,,
,,,,,V1_033,22,Female,2024-05-22_16h32.20.202,jersey_experiment_5_v1,2023.2.2,Win32,85.47008547,,,,,,,,,,,,,,,,336.6154,338.4155,338.4155,340.2153,return,0.7806,,96.09375,0,58,58,14,1,FBP-PT-91.png,0.45,1.2,15,1,,,,,,,,,,,,,,,,,,,,,,,,,,,,,,,,,,,,,,,,,,,,,
,,,,,V1_033,22,Female,2024-05-22_16h32.20.202,jersey_experiment_5_v1,2023.2.2,Win32,85.47008547,,,,,,,,,,,,,,,,340.2155,341.5098,341.5098,344.5567,return,2.057,,96.22395833,0,59,59,58,1,FBP-RB-91.png,0.43,1.2,59,0.5,,,,,,,,,,,,,,,,,,,,,,,,,,,,,,,,,,,,,,,,,,,,,
,,,,,V1_033,22,Female,2024-05-22_16h32.20.202,jersey_experiment_5_v1,2023.2.2,Win32,85.47008547,,,,,,,,,,,,,,,,344.5586,345.8511,345.8511,347.2745,return,0.5656,,51.5625,,,,,,FBP-OG-71.png,0.37,1.2,32,0.5,0,0,0,31,1,,,,,,,,,,,,,,,,,,,,,,,,,,,,,,,,,,,,,,,,
,,,,,V1_033,22,Female,2024-05-22_16h32.20.202,jersey_experiment_5_v1,2023.2.2,Win32,85.47008547,,,,,,,,,,,,,,,,347.2749,348.5686,348.5686,351.557,return,1.6901,,72.39583333,,,,,,FBP-OG-91.png,0.45,1.2,45,0.5,0,1,1,44,1,,,,,,,,,,,,,,,,,,,,,,,,,,,,,,,,,,,,,,,,
,,,,,V1_033,22,Female,2024-05-22_16h32.20.202,jersey_experiment_5_v1,2023.2.2,Win32,85.47008547,,,,,,,,,,,,,,,,351.5574,352.8512,352.8512,356.1806,return,2.3843,,67.83854167,,,,,,FBP-YG-71.png,0.4,1.2,18,0.5,0,2,2,17,1,,,,,,,,,,,,,,,,,,,,,,,,,,,,,,,,,,,,,,,,
,,,,,V1_033,22,Female,2024-05-22_16h32.20.202,jersey_experiment_5_v1,2023.2.2,Win32,85.47008547,,,,,,,,,,,,,,,,356.1807,357.4749,357.475,359.2043,return,0.4299,,50.26041667,,,,,,FBP-RB-18.png,0.35,1.2,51,0.5,0,3,3,50,1,,,,,,,,,,,,,,,,,,,,,,,,,,,,,,,,,,,,,,,,
,,,,,V1_033,22,Female,2024-05-22_16h32.20.202,jersey_experiment_5_v1,2023.2.2,Win32,85.47008547,,,,,,,,,,,,,,,,359.2045,360.4985,360.4985,363.4278,return,1.8206,,44.66145833,,,,,,FBP-YG-81.png,0.35,1.2,21,0.5,0,4,4,20,1,,,,,,,,,,,,,,,,,,,,,,,,,,,,,,,,,,,,,,,,
,,,,,V1_033,22,Female,2024-05-22_16h32.20.202,jersey_experiment_5_v1,2023.2.2,Win32,85.47008547,,,,,,,,,,,,,,,,363.428,364.7223,364.7223,367.2633,return,0.9511,,75.13020833,,,,,,FBP-YG-81.png,0.43,1.2,24,0.5,0,5,5,23,1,,,,,,,,,,,,,,,,,,,,,,,,,,,,,,,,,,,,,,,,
,,,,,V1_033,22,Female,2024-05-22_16h32.20.202,jersey_experiment_5_v1,2023.2.2,Win32,85.47008547,,,,,,,,,,,,,,,,367.2635,368.5576,368.5576,371.6754,return,0.9408,,76.171875,,,,,,FBP-YG-71.png,0.43,1.2,19,0.5,0,6,6,18,1,,,,,,,,,,,,,,,,,,,,,,,,,,,,,,,,,,,,,,,,
,,,,,V1_033,22,Female,2024-05-22_16h32.20.202,jersey_experiment_5_v1,2023.2.2,Win32,85.47008547,,,,,,,,,,,,,,,,371.6756,373.4756,373.4756,375.5461,return,0.6849,,78.90625,,,,,,FBP-PT-18.png,0.43,1.2,9,1,0,7,7,8,1,,,,,,,,,,,,,,,,,,,,,,,,,,,,,,,,,,,,,,,,
,,,,,V1_033,22,Female,2024-05-22_16h32.20.202,jersey_experiment_5_v1,2023.2.2,Win32,85.47008547,,,,,,,,,,,,,,,,375.5462,376.8404,376.8405,380.2992,return,2.5191,,60.28645833,,,,,,FBP-RB-18.png,0.4,1.2,53,0.5,0,8,8,52,1,,,,,,,,,,,,,,,,,,,,,,,,,,,,,,,,,,,,,,,,
,,,,,V1_033,22,Female,2024-05-22_16h32.20.202,jersey_experiment_5_v1,2023.2.2,Win32,85.47008547,,,,,,,,,,,,,,,,380.2994,381.5934,381.5934,384.8052,return,2.0899,,53.125,,,,,,FBP-YG-91.png,0.37,1.2,27,0.5,0,9,9,26,1,,,,,,,,,,,,,,,,,,,,,,,,,,,,,,,,,,,,,,,,
,,,,,V1_033,22,Female,2024-05-22_16h32.20.202,jersey_experiment_5_v1,2023.2.2,Win32,85.47008547,,,,,,,,,,,,,,,,384.8054,386.6055,386.6056,388.6523,return,1.0592,,85.546875,,,,,,FBP-PT-17.png,0.45,1.2,5,1,0,10,10,4,1,,,,,,,,,,,,,,,,,,,,,,,,,,,,,,,,,,,,,,,,
,,,,,V1_033,22,Female,2024-05-22_16h32.20.202,jersey_experiment_5_v1,2023.2.2,Win32,85.47008547,,,,,,,,,,,,,,,,388.6525,390.4527,390.4527,392.0762,return,0.6586,,50.78125,,,,,,FBP-PT-17.png,0.35,1.2,1,1,0,11,11,0,1,,,,,,,,,,,,,,,,,,,,,,,,,,,,,,,,,,,,,,,,
,,,,,V1_033,22,Female,2024-05-22_16h32.20.202,jersey_experiment_5_v1,2023.2.2,Win32,85.47008547,,,,,,,,,,,,,,,,392.0765,393.3704,393.3705,395.241,return,0.6959,,84.11458333,,,,,,FBP-RB-18.png,0.43,1.2,54,0.5,0,12,12,53,1,,,,,,,,,,,,,,,,,,,,,,,,,,,,,,,,,,,,,,,,
,,,,,V1_033,22,Female,2024-05-22_16h32.20.202,jersey_experiment_5_v1,2023.2.2,Win32,85.47008547,,,,,,,,,,,,,,,,395.2412,397.0412,397.0412,398.7352,return,0.719,,86.58854167,,,,,,FBP-PT-19.png,0.45,1.2,15,1,0,13,13,14,1,,,,,,,,,,,,,,,,,,,,,,,,,,,,,,,,,,,,,,,,
,,,,,V1_033,22,Female,2024-05-22_16h32.20.202,jersey_experiment_5_v1,2023.2.2,Win32,85.47008547,,,,,,,,,,,,,,,,398.7354,400.0294,400.0294,402.7001,return,1.2005,,53.25520833,,,,,,FBP-RB-18.png,0.37,1.2,52,0.5,0,14,14,51,1,,,,,,,,,,,,,,,,,,,,,,,,,,,,,,,,,,,,,,,,
,,,,,V1_033,22,Female,2024-05-22_16h32.20.202,jersey_experiment_5_v1,2023.2.2,Win32,85.47008547,,,,,,,,,,,,,,,,402.7003,404.5003,404.5003,405.7354,return,0.415,,73.56770833,,,,,,FBP-PT-18.png,0.4,1.2,8,1,0,15,15,7,1,,,,,,,,,,,,,,,,,,,,,,,,,,,,,,,,,,,,,,,,
,,,,,V1_033,22,Female,2024-05-22_16h32.20.202,jersey_experiment_5_v1,2023.2.2,Win32,85.47008547,,,,,,,,,,,,,,,,405.7356,407.0295,407.0296,408.9001,return,0.3967,,55.46875,,,,,,FBP-YG-91.png,0.35,1.2,26,0.5,0,16,16,25,1,,,,,,,,,,,,,,,,,,,,,,,,,,,,,,,,,,,,,,,,
,,,,,V1_033,22,Female,2024-05-22_16h32.20.202,jersey_experiment_5_v1,2023.2.2,Win32,85.47008547,,,,,,,,,,,,,,,,408.9004,410.7002,410.7003,412.0063,return,0.7573,,57.421875,,,,,,FBP-PT-19.png,0.35,1.2,11,1,0,17,17,10,1,,,,,,,,,,,,,,,,,,,,,,,,,,,,,,,,,,,,,,,,
,,,,,V1_033,22,Female,2024-05-22_16h32.20.202,jersey_experiment_5_v1,2023.2.2,Win32,85.47008547,,,,,,,,,,,,,,,,412.0065,413.3004,413.3005,414.7946,return,0.5197,,56.25,,,,,,FBP-OG-81.png,0.35,1.2,36,0.5,0,18,18,35,1,,,,,,,,,,,,,,,,,,,,,,,,,,,,,,,,,,,,,,,,
,,,,,V1_033,22,Female,2024-05-22_16h32.20.202,jersey_experiment_5_v1,2023.2.2,Win32,85.47008547,,,,,,,,,,,,,,,,414.7947,416.5945,416.5946,418.0535,return,0.758,,56.38020833,,,,,,FBP-PT-18.png,0.35,1.2,6,1,0,19,19,5,1,,,,,,,,,,,,,,,,,,,,,,,,,,,,,,,,,,,,,,,,
,,,,,V1_033,22,Female,2024-05-22_16h32.20.202,jersey_experiment_5_v1,2023.2.2,Win32,85.47008547,,,,,,,,,,,,,,,,418.0538,419.3477,419.3477,422.3478,return,1.7521,,75.91145833,,,,,,FBP-OG-81.png,0.45,1.2,40,0.5,0,20,20,39,1,,,,,,,,,,,,,,,,,,,,,,,,,,,,,,,,,,,,,,,,
,,,,,V1_033,22,Female,2024-05-22_16h32.20.202,jersey_experiment_5_v1,2023.2.2,Win32,85.47008547,,,,,,,,,,,,,,,,422.3479,423.6419,423.6419,426.1715,return,0.4608,,77.47395833,,,,,,FBP-RB-19.png,0.43,1.2,59,0.5,0,21,21,58,1,,,,,,,,,,,,,,,,,,,,,,,,,,,,,,,,,,,,,,,,
,,,,,V1_033,22,Female,2024-05-22_16h32.20.202,jersey_experiment_5_v1,2023.2.2,Win32,85.47008547,,,,,,,,,,,,,,,,426.1719,427.4656,427.4656,430.3715,return,0.5601,,76.82291667,,,,,,FBP-RB-17.png,0.4,1.2,48,0.5,0,22,22,47,1,,,,,,,,,,,,,,,,,,,,,,,,,,,,,,,,,,,,,,,,
,,,,,V1_033,22,Female,2024-05-22_16h32.20.202,jersey_experiment_5_v1,2023.2.2,Win32,85.47008547,,,,,,,,,,,,,,,,430.3717,431.6657,431.6658,434.7953,return,1.7533,,74.21875,,,,,,FBP-OG-81.png,0.4,1.2,38,0.5,0,23,23,37,1,,,,,,,,,,,,,,,,,,,,,,,,,,,,,,,,,,,,,,,,
,,,,,V1_033,22,Female,2024-05-22_16h32.20.202,jersey_experiment_5_v1,2023.2.2,Win32,85.47008547,,,,,,,,,,,,,,,,434.7954,436.0893,436.0893,437.466,return,0.4954,,68.359375,,,,,,FBP-RB-17.png,0.37,1.2,47,0.5,0,24,24,46,1,,,,,,,,,,,,,,,,,,,,,,,,,,,,,,,,,,,,,,,,
,,,,,V1_033,22,Female,2024-05-22_16h32.20.202,jersey_experiment_5_v1,2023.2.2,Win32,85.47008547,,,,,,,,,,,,,,,,437.4661,438.7602,438.7602,439.9484,return,0.3296,,64.453125,,,,,,FBP-RB-19.png,0.37,1.2,57,0.5,0,25,25,56,1,,,,,,,,,,,,,,,,,,,,,,,,,,,,,,,,,,,,,,,,
,,,,,V1_033,22,Female,2024-05-22_16h32.20.202,jersey_experiment_5_v1,2023.2.2,Win32,85.47008547,,,,,,,,,,,,,,,,439.9486,441.2426,441.2426,443.3251,return,1.0603,,82.16145833,,,,,,FBP-RB-17.png,0.43,1.2,49,0.5,0,26,26,48,1,,,,,,,,,,,,,,,,,,,,,,,,,,,,,,,,,,,,,,,,
,,,,,V1_033,22,Female,2024-05-22_16h32.20.202,jersey_experiment_5_v1,2023.2.2,Win32,85.47008547,,,,,,,,,,,,,,,,443.3253,445.1252,445.1253,446.1252,return,0.4376,,87.23958333,,,,,,FBP-PT-17.png,0.43,1.2,4,1,0,27,27,3,1,,,,,,,,,,,,,,,,,,,,,,,,,,,,,,,,,,,,,,,,
,,,,,V1_033,22,Female,2024-05-22_16h32.20.202,jersey_experiment_5_v1,2023.2.2,Win32,85.47008547,,,,,,,,,,,,,,,,446.1254,447.4195,447.4195,448.8076,return,0.558,,86.45833333,,,,,,FBP-OG-81.png,0.43,1.2,39,0.5,0,28,28,38,1,,,,,,,,,,,,,,,,,,,,,,,,,,,,,,,,,,,,,,,,
,,,,,V1_033,22,Female,2024-05-22_16h32.20.202,jersey_experiment_5_v1,2023.2.2,Win32,85.47008547,,,,,,,,,,,,,,,,448.8079,450.1016,450.1017,451.5254,return,0.7133,,87.109375,,,,,,FBP-OG-91.png,0.43,1.2,44,0.5,0,29,29,43,1,,,,,,,,,,,,,,,,,,,,,,,,,,,,,,,,,,,,,,,,
,,,,,V1_033,22,Female,2024-05-22_16h32.20.202,jersey_experiment_5_v1,2023.2.2,Win32,85.47008547,,,,,,,,,,,,,,,,451.5255,452.8195,452.8195,455.4549,return,0.4574,,88.54166667,,,,,,FBP-RB-19.png,0.45,1.2,60,0.5,0,30,30,59,1,,,,,,,,,,,,,,,,,,,,,,,,,,,,,,,,,,,,,,,,
,,,,,V1_033,22,Female,2024-05-22_16h32.20.202,jersey_experiment_5_v1,2023.2.2,Win32,85.47008547,,,,,,,,,,,,,,,,455.455,456.749,456.749,458.9375,return,1.4388,,86.58854167,,,,,,FBP-RB-19.png,0.4,1.2,58,0.5,0,31,31,57,1,,,,,,,,,,,,,,,,,,,,,,,,,,,,,,,,,,,,,,,,
,,,,,V1_033,22,Female,2024-05-22_16h32.20.202,jersey_experiment_5_v1,2023.2.2,Win32,85.47008547,,,,,,,,,,,,,,,,458.9377,460.2314,460.2314,462.0904,return,0.5061,,87.36979167,,,,,,FBP-YG-81.png,0.4,1.2,23,0.5,0,32,32,22,1,,,,,,,,,,,,,,,,,,,,,,,,,,,,,,,,,,,,,,,,
,,,,,V1_033,22,Female,2024-05-22_16h32.20.202,jersey_experiment_5_v1,2023.2.2,Win32,85.47008547,,,,,,,,,,,,,,,,462.0905,463.3845,463.3846,464.9494,return,0.3578,,89.58333333,,,,,,FBP-RB-17.png,0.45,1.2,50,0.5,0,33,33,49,1,,,,,,,,,,,,,,,,,,,,,,,,,,,,,,,,,,,,,,,,
,,,,,V1_033,22,Female,2024-05-22_16h32.20.202,jersey_experiment_5_v1,2023.2.2,Win32,85.47008547,,,,,,,,,,,,,,,,464.9496,466.7493,466.7493,467.7261,return,0.4376,,89.58333333,,,,,,FBP-PT-19.png,0.43,1.2,14,1,0,34,34,13,1,,,,,,,,,,,,,,,,,,,,,,,,,,,,,,,,,,,,,,,,
,,,,,V1_033,22,Female,2024-05-22_16h32.20.202,jersey_experiment_5_v1,2023.2.2,Win32,85.47008547,,,,,,,,,,,,,,,,467.7262,469.5259,469.526,472.1262,return,1.3888,,80.72916667,,,,,,FBP-PT-19.png,0.4,1.2,13,1,0,35,35,12,1,,,,,,,,,,,,,,,,,,,,,,,,,,,,,,,,,,,,,,,,
,,,,,V1_033,22,Female,2024-05-22_16h32.20.202,jersey_experiment_5_v1,2023.2.2,Win32,85.47008547,,,,,,,,,,,,,,,,472.1265,473.4203,473.4203,476.4792,return,1.7071,,53.90625,,,,,,FBP-RB-17.png,0.35,1.2,46,0.5,0,36,36,45,1,,,,,,,,,,,,,,,,,,,,,,,,,,,,,,,,,,,,,,,,
,,,,,V1_033,22,Female,2024-05-22_16h32.20.202,jersey_experiment_5_v1,2023.2.2,Win32,85.47008547,,,,,,,,,,,,,,,,476.4794,478.2792,478.2792,480.8089,return,0.6981,,51.82291667,,,,,,FBP-PT-17.png,0.37,1.2,2,1,0,37,37,1,1,,,,,,,,,,,,,,,,,,,,,,,,,,,,,,,,,,,,,,,,
,,,,,V1_033,22,Female,2024-05-22_16h32.20.202,jersey_experiment_5_v1,2023.2.2,Win32,85.47008547,,,,,,,,,,,,,,,,480.8091,482.609,482.609,485.1735,return,1.6404,,73.4375,,,,,,FBP-PT-17.png,0.4,1.2,3,1,0,38,38,2,1,,,,,,,,,,,,,,,,,,,,,,,,,,,,,,,,,,,,,,,,
,,,,,V1_033,22,Female,2024-05-22_16h32.20.202,jersey_experiment_5_v1,2023.2.2,Win32,85.47008547,,,,,,,,,,,,,,,,485.1737,486.4678,486.4678,487.8796,return,0.5228,,68.22916667,,,,,,FBP-YG-71.png,0.37,1.2,17,0.5,0,39,39,16,1,,,,,,,,,,,,,,,,,,,,,,,,,,,,,,,,,,,,,,,,
,,,,,V1_033,22,Female,2024-05-22_16h32.20.202,jersey_experiment_5_v1,2023.2.2,Win32,85.47008547,,,,,,,,,,,,,,,,487.8797,489.1737,489.1737,490.7267,return,0.3217,,51.30208333,,,,,,FBP-OG-81.png,0.37,1.2,37,0.5,0,40,40,36,1,,,,,,,,,,,,,,,,,,,,,,,,,,,,,,,,,,,,,,,,
,,,,,V1_033,22,Female,2024-05-22_16h32.20.202,jersey_experiment_5_v1,2023.2.2,Win32,85.47008547,,,,,,,,,,,,,,,,490.7269,492.0209,492.0209,493.4803,return,0.3204,,97.65625,,,,,,FBP-RB-18.png,0.45,1.2,55,0.5,0,41,41,54,1,,,,,,,,,,,,,,,,,,,,,,,,,,,,,,,,,,,,,,,,
,,,,,V1_033,22,Female,2024-05-22_16h32.20.202,jersey_experiment_5_v1,2023.2.2,Win32,85.47008547,,,,,,,,,,,,,,,,493.4805,495.2801,495.2801,497.2917,return,1.1067,,97.52604167,,,,,,FBP-PT-18.png,0.45,1.2,10,1,0,42,42,9,1,,,,,,,,,,,,,,,,,,,,,,,,,,,,,,,,,,,,,,,,
,,,,,V1_033,22,Female,2024-05-22_16h32.20.202,jersey_experiment_5_v1,2023.2.2,Win32,85.47008547,,,,,,,,,,,,,,,,497.2919,499.0919,499.0919,502.6331,return,2.2253,,50.390625,,,,,,FBP-PT-19.png,0.37,1.2,12,1,0,43,43,11,1,,,,,,,,,,,,,,,,,,,,,,,,,,,,,,,,,,,,,,,,
,,,,,V1_033,22,Female,2024-05-22_16h32.20.202,jersey_experiment_5_v1,2023.2.2,Win32,85.47008547,,,,,,,,,,,,,,,,502.6334,503.9272,503.9272,504.6919,return,0.1952,,50.390625,,,,,,FBP-OG-91.png,0.35,1.2,41,0.5,0,44,44,40,1,,,,,,,,,,,,,,,,,,,,,,,,,,,,,,,,,,,,,,,,
,,,,,V1_033,22,Female,2024-05-22_16h32.20.202,jersey_experiment_5_v1,2023.2.2,Win32,85.47008547,,,,,,,,,,,,,,,,504.6921,505.9862,505.9862,506.7978,return,0.2351,,50.390625,,,,,,FBP-OG-91.png,0.37,1.2,42,0.5,0,45,45,41,1,,,,,,,,,,,,,,,,,,,,,,,,,,,,,,,,,,,,,,,,
,,,,,V1_033,22,Female,2024-05-22_16h32.20.202,jersey_experiment_5_v1,2023.2.2,Win32,85.47008547,,,,,,,,,,,,,,,,506.7981,508.0921,508.0922,509.4215,return,0.2831,,53.77604167,,,,,,FBP-OG-71.png,0.4,1.2,33,0.5,0,46,46,32,1,,,,,,,,,,,,,,,,,,,,,,,,,,,,,,,,,,,,,,,,
,,,,,V1_033,22,Female,2024-05-22_16h32.20.202,jersey_experiment_5_v1,2023.2.2,Win32,85.47008547,,,,,,,,,,,,,,,,509.4217,510.7158,510.7158,512.3746,return,0.6285,,73.30729167,,,,,,FBP-YG-71.png,0.45,1.2,20,0.5,0,47,47,19,1,,,,,,,,,,,,,,,,,,,,,,,,,,,,,,,,,,,,,,,,
,,,,,V1_033,22,Female,2024-05-22_16h32.20.202,jersey_experiment_5_v1,2023.2.2,Win32,85.47008547,,,,,,,,,,,,,,,,512.3747,513.6687,513.6687,515.7748,return,0.517,,72.265625,,,,,,FBP-OG-71.png,0.45,1.2,35,0.5,0,48,48,34,1,,,,,,,,,,,,,,,,,,,,,,,,,,,,,,,,,,,,,,,,
,,,,,V1_033,22,Female,2024-05-22_16h32.20.202,jersey_experiment_5_v1,2023.2.2,Win32,85.47008547,,,,,,,,,,,,,,,,515.7749,517.069,517.069,519.2572,return,0.2741,,39.71354167,,,,,,FBP-OG-71.png,0.35,1.2,31,0.5,0,49,49,30,1,,,,,,,,,,,,,,,,,,,,,,,,,,,,,,,,,,,,,,,,
,,,,,V1_033,22,Female,2024-05-22_16h32.20.202,jersey_experiment_5_v1,2023.2.2,Win32,85.47008547,,,,,,,,,,,,,,,,519.2574,520.5515,520.5515,523.3867,return,1.3057,,77.60416667,,,,,,FBP-YG-81.png,0.45,1.2,25,0.5,0,50,50,24,1,,,,,,,,,,,,,,,,,,,,,,,,,,,,,,,,,,,,,,,,
,,,,,V1_033,22,Female,2024-05-22_16h32.20.202,jersey_experiment_5_v1,2023.2.2,Win32,85.47008547,,,,,,,,,,,,,,,,523.3868,524.6811,524.6811,526.1986,return,0.4748,,76.69270833,,,,,,FBP-OG-71.png,0.43,1.2,34,0.5,0,51,51,33,1,,,,,,,,,,,,,,,,,,,,,,,,,,,,,,,,,,,,,,,,
,,,,,V1_033,22,Female,2024-05-22_16h32.20.202,jersey_experiment_5_v1,2023.2.2,Win32,85.47008547,,,,,,,,,,,,,,,,526.1988,527.4928,527.4928,529.1165,return,0.283,,76.5625,,,,,,FBP-OG-91.png,0.4,1.2,43,0.5,0,52,52,42,1,,,,,,,,,,,,,,,,,,,,,,,,,,,,,,,,,,,,,,,,
,,,,,V1_033,22,Female,2024-05-22_16h32.20.202,jersey_experiment_5_v1,2023.2.2,Win32,85.47008547,,,,,,,,,,,,,,,,529.1167,530.4105,530.4105,531.5988,return,0.518,,76.5625,,,,,,FBP-YG-91.png,0.4,1.2,28,0.5,0,53,53,27,1,,,,,,,,,,,,,,,,,,,,,,,,,,,,,,,,,,,,,,,,
,,,,,V1_033,22,Female,2024-05-22_16h32.20.202,jersey_experiment_5_v1,2023.2.2,Win32,85.47008547,,,,,,,,,,,,,,,,531.599,533.3991,533.3991,535.4696,return,0.2827,,49.47916667,,,,,,FBP-PT-18.png,0.37,1.2,7,1,0,54,54,6,1,,,,,,,,,,,,,,,,,,,,,,,,,,,,,,,,,,,,,,,,
,,,,,V1_033,22,Female,2024-05-22_16h32.20.202,jersey_experiment_5_v1,2023.2.2,Win32,85.47008547,,,,,,,,,,,,,,,,535.4697,536.7637,536.7637,542.6228,return,4.4955,,49.34895833,,,,,,FBP-YG-71.png,0.35,1.2,16,0.5,0,55,55,15,1,,,,,,,,,,,,,,,,,,,,,,,,,,,,,,,,,,,,,,,,
,,,,,V1_033,22,Female,2024-05-22_16h32.20.202,jersey_experiment_5_v1,2023.2.2,Win32,85.47008547,,,,,,,,,,,,,,,,542.623,543.917,543.917,545.8465,return,0.7477,,47.78645833,,,,,,FBP-RB-19.png,0.35,1.2,56,0.5,0,56,56,55,1,,,,,,,,,,,,,,,,,,,,,,,,,,,,,,,,,,,,,,,,
,,,,,V1_033,22,Female,2024-05-22_16h32.20.202,jersey_experiment_5_v1,2023.2.2,Win32,85.47008547,,,,,,,,,,,,,,,,545.8467,547.1405,547.1406,551.7056,return,2.65,,80.59895833,,,,,,FBP-YG-91.png,0.43,1.2,29,0.5,0,57,57,28,1,,,,,,,,,,,,,,,,,,,,,,,,,,,,,,,,,,,,,,,,
,,,,,V1_033,22,Female,2024-05-22_16h32.20.202,jersey_experiment_5_v1,2023.2.2,Win32,85.47008547,,,,,,,,,,,,,,,,551.7058,552.9996,552.9996,554.2352,return,0.4488,,83.203125,,,,,,FBP-YG-91.png,0.45,1.2,30,0.5,0,58,58,29,1,,,,,,,,,,,,,,,,,,,,,,,,,,,,,,,,,,,,,,,,
,,,,,V1_033,22,Female,2024-05-22_16h32.20.202,jersey_experiment_5_v1,2023.2.2,Win32,85.47008547,,,,,,,,,,,,,,,,554.2354,555.5291,555.5291,558.1527,return,0.2279,,62.76041667,,,,,,FBP-YG-81.png,0.37,1.2,22,0.5,0,59,59,21,1,,,,,,,,,,,,,,,,,,,,,,,,,,,,,,,,,,,,,,,,
,,,,,V1_033,22,Female,2024-05-22_16h32.20.202,jersey_experiment_5_v1,2023.2.2,Win32,85.47008547,,,,,,,,,,,,,,,,,,,,,,,,,,,,,,,,,,,,,,,558.1531,678.1575,,,,,,,,,,,,,,,,,,,,,,,,,,,,,,,,,,,,,,
,,,,,V1_033,22,Female,2024-05-22_16h32.20.202,jersey_experiment_5_v1,2023.2.2,Win32,85.47008547,,,,,,,,,,,,,,,,,,,,,,,,,,,,,,,,,,,,,,,,,678.1576,682.2869,return,4.1172,,,,,,,,,,,,,,,,,,,,,,,,,,,,,,,,,,
,,,,,V1_033,22,Female,2024-05-22_16h32.20.202,jersey_experiment_5_v1,2023.2.2,Win32,85.47008547,,,,,,,,,,,,,,,,682.2931,684.0869,684.0869,686.9221,return,1.9552,,79.296875,,,,,,FBP-OG-17.png,0.45,1.2,35,1,,,,,,,,,,,,,0,0,0,34,1,,,,,,,,,,,,,,,,,,,,,,,,,,,,
,,,,,V1_033,22,Female,2024-05-22_16h32.20.202,jersey_experiment_5_v1,2023.2.2,Win32,85.47008547,,,,,,,,,,,,,,,,686.9225,688.7223,688.7223,689.8634,return,0.697,,79.296875,,,,,,FBP-YG-19.png,0.43,1.2,29,1,,,,,,,,,,,,,0,1,1,28,1,,,,,,,,,,,,,,,,,,,,,,,,,,,,
,,,,,V1_033,22,Female,2024-05-22_16h32.20.202,jersey_experiment_5_v1,2023.2.2,Win32,85.47008547,,,,,,,,,,,,,,,,689.8635,691.1575,691.1576,692.4516,return,0.7253,,79.296875,,,,,,FBP-PT-91.png,0.4,1.2,13,0.5,,,,,,,,,,,,,0,2,2,12,1,,,,,,,,,,,,,,,,,,,,,,,,,,,,
,,,,,V1_033,22,Female,2024-05-22_16h32.20.202,jersey_experiment_5_v1,2023.2.2,Win32,85.47008547,,,,,,,,,,,,,,,,692.4518,694.2519,694.2519,696.2635,return,0.6165,,81.11979167,,,,,,FBP-RB-81.png,0.43,1.2,54,1,,,,,,,,,,,,,0,3,3,53,1,,,,,,,,,,,,,,,,,,,,,,,,,,,,
,,,,,V1_033,22,Female,2024-05-22_16h32.20.202,jersey_experiment_5_v1,2023.2.2,Win32,85.47008547,,,,,,,,,,,,,,,,696.2638,698.0638,698.0638,699.6403,return,0.6142,,79.55729167,,,,,,FBP-YG-18.png,0.4,1.2,23,1,,,,,,,,,,,,,0,4,4,22,1,,,,,,,,,,,,,,,,,,,,,,,,,,,,
,,,,,V1_033,22,Female,2024-05-22_16h32.20.202,jersey_experiment_5_v1,2023.2.2,Win32,85.47008547,,,,,,,,,,,,,,,,699.6405,701.4406,701.4406,702.9228,return,0.8491,,77.47395833,,,,,,FBP-OG-17.png,0.4,1.2,33,1,,,,,,,,,,,,,0,5,5,32,1,,,,,,,,,,,,,,,,,,,,,,,,,,,,
,,,,,V1_033,22,Female,2024-05-22_16h32.20.202,jersey_experiment_5_v1,2023.2.2,Win32,85.47008547,,,,,,,,,,,,,,,,702.923,704.7232,704.7232,707.3699,return,1.4006,,52.86458333,,,,,,FBP-OG-18.png,0.37,1.2,37,1,,,,,,,,,,,,,0,6,6,36,1,,,,,,,,,,,,,,,,,,,,,,,,,,,,
,,,,,V1_033,22,Female,2024-05-22_16h32.20.202,jersey_experiment_5_v1,2023.2.2,Win32,85.47008547,,,,,,,,,,,,,,,,707.3701,708.6641,708.6641,711.2289,return,1.3752,,52.34375,,,,,,FBP-PT-71.png,0.35,1.2,1,0.5,,,,,,,,,,,,,0,7,7,0,1,,,,,,,,,,,,,,,,,,,,,,,,,,,,
,,,,,V1_033,22,Female,2024-05-22_16h32.20.202,jersey_experiment_5_v1,2023.2.2,Win32,85.47008547,,,,,,,,,,,,,,,,711.2291,712.5231,712.5232,714.0525,return,0.6433,,49.609375,,,,,,FBP-PT-81.png,0.37,1.2,7,0.5,,,,,,,,,,,,,0,8,8,6,1,,,,,,,,,,,,,,,,,,,,,,,,,,,,
,,,,,V1_033,22,Female,2024-05-22_16h32.20.202,jersey_experiment_5_v1,2023.2.2,Win32,85.47008547,,,,,,,,,,,,,,,,714.0527,715.8528,715.8528,717.5939,return,0.6835,,55.078125,,,,,,FBP-OG-19.png,0.37,1.2,42,1,,,,,,,,,,,,,0,9,9,41,1,,,,,,,,,,,,,,,,,,,,,,,,,,,,
,,,,,V1_033,22,Female,2024-05-22_16h32.20.202,jersey_experiment_5_v1,2023.2.2,Win32,85.47008547,,,,,,,,,,,,,,,,717.594,718.8881,718.8881,720.441,return,0.6613,,63.54166667,,,,,,FBP-PT-71.png,0.4,1.2,3,0.5,,,,,,,,,,,,,0,10,10,2,1,,,,,,,,,,,,,,,,,,,,,,,,,,,,
,,,,,V1_033,22,Female,2024-05-22_16h32.20.202,jersey_experiment_5_v1,2023.2.2,Win32,85.47008547,,,,,,,,,,,,,,,,720.4413,722.2413,722.2413,723.7706,return,0.6009,,76.30208333,,,,,,FBP-YG-18.png,0.45,1.2,25,1,,,,,,,,,,,,,0,11,11,24,1,,,,,,,,,,,,,,,,,,,,,,,,,,,,
,,,,,V1_033,22,Female,2024-05-22_16h32.20.202,jersey_experiment_5_v1,2023.2.2,Win32,85.47008547,,,,,,,,,,,,,,,,723.7707,725.0646,725.0646,728.5707,return,2.3548,,50.78125,,,,,,FBP-PT-81.png,0.35,1.2,6,0.5,,,,,,,,,,,,,0,12,12,5,1,,,,,,,,,,,,,,,,,,,,,,,,,,,,
,,,,,V1_033,22,Female,2024-05-22_16h32.20.202,jersey_experiment_5_v1,2023.2.2,Win32,85.47008547,,,,,,,,,,,,,,,,728.5708,730.3708,730.3708,731.6533,return,0.9354,,50.390625,,,,,,FBP-YG-19.png,0.37,1.2,27,1,,,,,,,,,,,,,0,13,13,26,1,,,,,,,,,,,,,,,,,,,,,,,,,,,,
,,,,,V1_033,22,Female,2024-05-22_16h32.20.202,jersey_experiment_5_v1,2023.2.2,Win32,85.47008547,,,,,,,,,,,,,,,,731.6534,733.4532,733.4532,735.3709,return,0.7547,,52.21354167,,,,,,FBP-YG-18.png,0.35,1.2,21,1,,,,,,,,,,,,,0,14,14,20,1,,,,,,,,,,,,,,,,,,,,,,,,,,,,
,,,,,V1_033,22,Female,2024-05-22_16h32.20.202,jersey_experiment_5_v1,2023.2.2,Win32,85.47008547,,,,,,,,,,,,,,,,735.3712,737.1712,737.1712,738.6534,return,0.7547,,49.47916667,,,,,,FBP-RB-91.png,0.35,1.2,56,1,,,,,,,,,,,,,0,15,15,55,1,,,,,,,,,,,,,,,,,,,,,,,,,,,,
,,,,,V1_033,22,Female,2024-05-22_16h32.20.202,jersey_experiment_5_v1,2023.2.2,Win32,85.47008547,,,,,,,,,,,,,,,,738.6537,740.4536,740.4536,741.9124,return,0.6018,,75.26041667,,,,,,FBP-OG-18.png,0.43,1.2,39,1,,,,,,,,,,,,,0,16,16,38,1,,,,,,,,,,,,,,,,,,,,,,,,,,,,
,,,,,V1_033,22,Female,2024-05-22_16h32.20.202,jersey_experiment_5_v1,2023.2.2,Win32,85.47008547,,,,,,,,,,,,,,,,741.9126,743.7125,743.7125,745.8068,return,0.9647,,62.23958333,,,,,,FBP-RB-81.png,0.37,1.2,52,1,,,,,,,,,,,,,0,17,17,51,1,,,,,,,,,,,,,,,,,,,,,,,,,,,,
,,,,,V1_033,22,Female,2024-05-22_16h32.20.202,jersey_experiment_5_v1,2023.2.2,Win32,85.47008547,,,,,,,,,,,,,,,,745.8069,747.1009,747.1009,748.795,return,0.5886,,80.20833333,,,,,,FBP-PT-91.png,0.45,1.2,15,0.5,,,,,,,,,,,,,0,18,18,14,1,,,,,,,,,,,,,,,,,,,,,,,,,,,,
,,,,,V1_033,22,Female,2024-05-22_16h32.20.202,jersey_experiment_5_v1,2023.2.2,Win32,85.47008547,,,,,,,,,,,,,,,,748.7952,750.5953,750.5953,754.2777,return,2.0425,,46.09375,,,,,,FBP-OG-19.png,0.35,1.2,41,1,,,,,,,,,,,,,0,19,19,40,1,,,,,,,,,,,,,,,,,,,,,,,,,,,,
,,,,,V1_033,22,Female,2024-05-22_16h32.20.202,jersey_experiment_5_v1,2023.2.2,Win32,85.47008547,,,,,,,,,,,,,,,,754.2779,756.0776,756.0776,758.5482,return,0.6201,,48.69791667,,,,,,FBP-OG-18.png,0.35,1.2,36,1,,,,,,,,,,,,,0,20,20,35,1,,,,,,,,,,,,,,,,,,,,,,,,,,,,
,,,,,V1_033,22,Female,2024-05-22_16h32.20.202,jersey_experiment_5_v1,2023.2.2,Win32,85.47008547,,,,,,,,,,,,,,,,758.5483,760.3486,760.3486,761.8308,return,0.6998,,71.875,,,,,,FBP-YG-17.png,0.45,1.2,20,1,,,,,,,,,,,,,0,21,21,19,1,,,,,,,,,,,,,,,,,,,,,,,,,,,,
,,,,,V1_033,22,Female,2024-05-22_16h32.20.202,jersey_experiment_5_v1,2023.2.2,Win32,85.47008547,,,,,,,,,,,,,,,,761.8311,763.6308,763.6309,765.0779,return,0.5927,,71.74479167,,,,,,FBP-RB-71.png,0.4,1.2,48,1,,,,,,,,,,,,,0,22,22,47,1,,,,,,,,,,,,,,,,,,,,,,,,,,,,
,,,,,V1_033,22,Female,2024-05-22_16h32.20.202,jersey_experiment_5_v1,2023.2.2,Win32,85.47008547,,,,,,,,,,,,,,,,765.0782,766.3721,766.3721,769.29,return,1.9532,,64.97395833,,,,,,FBP-PT-91.png,0.43,1.2,14,0.5,,,,,,,,,,,,,0,23,23,13,1,,,,,,,,,,,,,,,,,,,,,,,,,,,,
,,,,,V1_033,22,Female,2024-05-22_16h32.20.202,jersey_experiment_5_v1,2023.2.2,Win32,85.47008547,,,,,,,,,,,,,,,,769.2901,771.0901,771.0901,772.9371,return,1.0134,,55.078125,,,,,,FBP-RB-91.png,0.37,1.2,57,1,,,,,,,,,,,,,0,24,24,56,1,,,,,,,,,,,,,,,,,,,,,,,,,,,,
,,,,,V1_033,22,Female,2024-05-22_16h32.20.202,jersey_experiment_5_v1,2023.2.2,Win32,85.47008547,,,,,,,,,,,,,,,,772.9373,774.7371,774.7372,776.6312,return,0.9914,,49.34895833,,,,,,FBP-RB-71.png,0.35,1.2,46,1,,,,,,,,,,,,,0,25,25,45,1,,,,,,,,,,,,,,,,,,,,,,,,,,,,
,,,,,V1_033,22,Female,2024-05-22_16h32.20.202,jersey_experiment_5_v1,2023.2.2,Win32,85.47008547,,,,,,,,,,,,,,,,776.6314,778.4314,778.4315,782.255,return,2.72,,74.21875,,,,,,FBP-OG-19.png,0.43,1.2,44,1,,,,,,,,,,,,,0,26,26,43,1,,,,,,,,,,,,,,,,,,,,,,,,,,,,
,,,,,V1_033,22,Female,2024-05-22_16h32.20.202,jersey_experiment_5_v1,2023.2.2,Win32,85.47008547,,,,,,,,,,,,,,,,782.2553,784.0552,784.0553,785.2904,return,0.6598,,76.30208333,,,,,,FBP-RB-91.png,0.45,1.2,60,1,,,,,,,,,,,,,0,27,27,59,1,,,,,,,,,,,,,,,,,,,,,,,,,,,,
,,,,,V1_033,22,Female,2024-05-22_16h32.20.202,jersey_experiment_5_v1,2023.2.2,Win32,85.47008547,,,,,,,,,,,,,,,,785.2905,787.0905,787.0905,790.4436,return,1.4347,,52.734375,,,,,,FBP-OG-17.png,0.37,1.2,32,1,,,,,,,,,,,,,0,28,28,31,1,,,,,,,,,,,,,,,,,,,,,,,,,,,,
,,,,,V1_033,22,Female,2024-05-22_16h32.20.202,jersey_experiment_5_v1,2023.2.2,Win32,85.47008547,,,,,,,,,,,,,,,,790.4438,792.2436,792.2436,793.6436,return,0.6729,,70.18229167,,,,,,FBP-YG-18.png,0.43,1.2,24,1,,,,,,,,,,,,,0,29,29,23,1,,,,,,,,,,,,,,,,,,,,,,,,,,,,
,,,,,V1_033,22,Female,2024-05-22_16h32.20.202,jersey_experiment_5_v1,2023.2.2,Win32,85.47008547,,,,,,,,,,,,,,,,793.6438,794.9379,794.9379,797.3851,return,1.38,,50.390625,,,,,,FBP-PT-91.png,0.35,1.2,11,0.5,,,,,,,,,,,,,0,30,30,10,1,,,,,,,,,,,,,,,,,,,,,,,,,,,,
,,,,,V1_033,22,Female,2024-05-22_16h32.20.202,jersey_experiment_5_v1,2023.2.2,Win32,85.47008547,,,,,,,,,,,,,,,,797.3853,799.185,799.185,800.938,return,0.6967,,49.08854167,,,,,,FBP-RB-81.png,0.35,1.2,51,1,,,,,,,,,,,,,0,31,31,50,1,,,,,,,,,,,,,,,,,,,,,,,,,,,,
,,,,,V1_033,22,Female,2024-05-22_16h32.20.202,jersey_experiment_5_v1,2023.2.2,Win32,85.47008547,,,,,,,,,,,,,,,,800.9382,802.2322,802.2323,804.4086,return,1.0154,,62.36979167,,,,,,FBP-PT-81.png,0.4,1.2,8,0.5,,,,,,,,,,,,,0,32,32,7,1,,,,,,,,,,,,,,,,,,,,,,,,,,,,
,,,,,V1_033,22,Female,2024-05-22_16h32.20.202,jersey_experiment_5_v1,2023.2.2,Win32,85.47008547,,,,,,,,,,,,,,,,804.4088,806.2089,806.2089,809.162,return,1.3204,,62.5,,,,,,FBP-YG-19.png,0.35,1.2,26,1,,,,,,,,,,,,,0,33,33,25,1,,,,,,,,,,,,,,,,,,,,,,,,,,,,
,,,,,V1_033,22,Female,2024-05-22_16h32.20.202,jersey_experiment_5_v1,2023.2.2,Win32,85.47008547,,,,,,,,,,,,,,,,809.1621,810.9621,810.9621,812.8443,return,0.7907,,73.95833333,,,,,,FBP-OG-19.png,0.4,1.2,43,1,,,,,,,,,,,,,0,34,34,42,1,,,,,,,,,,,,,,,,,,,,,,,,,,,,
,,,,,V1_033,22,Female,2024-05-22_16h32.20.202,jersey_experiment_5_v1,2023.2.2,Win32,85.47008547,,,,,,,,,,,,,,,,812.8444,814.6444,814.6444,815.8915,return,0.7857,,82.16145833,,,,,,FBP-RB-71.png,0.45,1.2,50,1,,,,,,,,,,,,,0,35,35,49,1,,,,,,,,,,,,,,,,,,,,,,,,,,,,
,,,,,V1_033,22,Female,2024-05-22_16h32.20.202,jersey_experiment_5_v1,2023.2.2,Win32,85.47008547,,,,,,,,,,,,,,,,815.8916,817.6916,817.6916,819.1623,return,0.9064,,82.16145833,,,,,,FBP-OG-18.png,0.45,1.2,40,1,,,,,,,,,,,,,0,36,36,39,1,,,,,,,,,,,,,,,,,,,,,,,,,,,,
,,,,,V1_033,22,Female,2024-05-22_16h32.20.202,jersey_experiment_5_v1,2023.2.2,Win32,85.47008547,,,,,,,,,,,,,,,,819.1625,820.9624,820.9625,823.9507,return,1.366,,55.859375,,,,,,FBP-OG-17.png,0.35,1.2,31,1,,,,,,,,,,,,,0,37,37,30,1,,,,,,,,,,,,,,,,,,,,,,,,,,,,
,,,,,V1_033,22,Female,2024-05-22_16h32.20.202,jersey_experiment_5_v1,2023.2.2,Win32,85.47008547,,,,,,,,,,,,,,,,823.9509,825.7509,825.7509,827.6449,return,0.8372,,85.80729167,,,,,,FBP-RB-81.png,0.45,1.2,55,1,,,,,,,,,,,,,0,38,38,54,1,,,,,,,,,,,,,,,,,,,,,,,,,,,,
,,,,,V1_033,22,Female,2024-05-22_16h32.20.202,jersey_experiment_5_v1,2023.2.2,Win32,85.47008547,,,,,,,,,,,,,,,,827.6451,829.4451,829.4451,831.3155,return,0.7737,,50.91145833,,,,,,FBP-YG-17.png,0.35,1.2,16,1,,,,,,,,,,,,,0,39,39,15,1,,,,,,,,,,,,,,,,,,,,,,,,,,,,
,,,,,V1_033,22,Female,2024-05-22_16h32.20.202,jersey_experiment_5_v1,2023.2.2,Win32,85.47008547,,,,,,,,,,,,,,,,831.3158,833.1157,833.1157,835.8922,return,1.1848,,71.09375,,,,,,FBP-YG-17.png,0.4,1.2,18,1,,,,,,,,,,,,,0,40,40,17,1,,,,,,,,,,,,,,,,,,,,,,,,,,,,
,,,,,V1_033,22,Female,2024-05-22_16h32.20.202,jersey_experiment_5_v1,2023.2.2,Win32,85.47008547,,,,,,,,,,,,,,,,835.8923,837.1864,837.1865,838.5866,return,0.6592,,71.09375,,,,,,FBP-PT-81.png,0.43,1.2,9,0.5,,,,,,,,,,,,,0,41,41,8,1,,,,,,,,,,,,,,,,,,,,,,,,,,,,
,,,,,V1_033,22,Female,2024-05-22_16h32.20.202,jersey_experiment_5_v1,2023.2.2,Win32,85.47008547,,,,,,,,,,,,,,,,838.5868,840.3867,840.3867,841.8926,return,0.7139,,63.15104167,,,,,,FBP-YG-18.png,0.37,1.2,22,1,,,,,,,,,,,,,0,42,42,21,1,,,,,,,,,,,,,,,,,,,,,,,,,,,,
,,,,,V1_033,22,Female,2024-05-22_16h32.20.202,jersey_experiment_5_v1,2023.2.2,Win32,85.47008547,,,,,,,,,,,,,,,,841.8927,843.6928,843.6928,844.8455,return,0.7205,,67.96875,,,,,,FBP-YG-19.png,0.4,1.2,28,1,,,,,,,,,,,,,0,43,43,27,1,,,,,,,,,,,,,,,,,,,,,,,,,,,,
,,,,,V1_033,22,Female,2024-05-22_16h32.20.202,jersey_experiment_5_v1,2023.2.2,Win32,85.47008547,,,,,,,,,,,,,,,,844.8457,846.6457,846.6457,848.681,return,1.4841,,78.64583333,,,,,,FBP-YG-19.png,0.45,1.2,30,1,,,,,,,,,,,,,0,44,44,29,1,,,,,,,,,,,,,,,,,,,,,,,,,,,,
,,,,,V1_033,22,Female,2024-05-22_16h32.20.202,jersey_experiment_5_v1,2023.2.2,Win32,85.47008547,,,,,,,,,,,,,,,,848.6812,849.9752,849.9752,851.3751,return,0.7062,,78.64583333,,,,,,FBP-PT-71.png,0.43,1.2,4,0.5,,,,,,,,,,,,,0,45,45,3,1,,,,,,,,,,,,,,,,,,,,,,,,,,,,
,,,,,V1_033,22,Female,2024-05-22_16h32.20.202,jersey_experiment_5_v1,2023.2.2,Win32,85.47008547,,,,,,,,,,,,,,,,851.3753,853.1753,853.1753,854.8577,return,0.6716,,81.11979167,,,,,,FBP-RB-71.png,0.43,1.2,49,1,,,,,,,,,,,,,0,46,46,48,1,,,,,,,,,,,,,,,,,,,,,,,,,,,,
,,,,,V1_033,22,Female,2024-05-22_16h32.20.202,jersey_experiment_5_v1,2023.2.2,Win32,85.47008547,,,,,,,,,,,,,,,,854.8578,856.1518,856.1518,858.7756,return,0.9346,,50,,,,,,FBP-PT-71.png,0.37,1.2,2,0.5,,,,,,,,,,,,,0,47,47,1,1,,,,,,,,,,,,,,,,,,,,,,,,,,,,
,,,,,V1_033,22,Female,2024-05-22_16h32.20.202,jersey_experiment_5_v1,2023.2.2,Win32,85.47008547,,,,,,,,,,,,,,,,858.7758,860.5754,860.5754,862.5638,return,0.7598,,49.86979167,,,,,,FBP-RB-71.png,0.37,1.2,47,1,,,,,,,,,,,,,0,48,48,46,1,,,,,,,,,,,,,,,,,,,,,,,,,,,,
,,,,,V1_033,22,Female,2024-05-22_16h32.20.202,jersey_experiment_5_v1,2023.2.2,Win32,85.47008547,,,,,,,,,,,,,,,,862.5639,864.364,864.364,866.458,return,1.1409,,87.36979167,,,,,,FBP-OG-19.png,0.45,1.2,45,1,,,,,,,,,,,,,0,49,49,44,1,,,,,,,,,,,,,,,,,,,,,,,,,,,,
,,,,,V1_033,22,Female,2024-05-22_16h32.20.202,jersey_experiment_5_v1,2023.2.2,Win32,85.47008547,,,,,,,,,,,,,,,,866.4582,867.7522,867.7522,871.5876,return,2.7617,,48.95833333,,,,,,FBP-PT-91.png,0.37,1.2,12,0.5,,,,,,,,,,,,,0,50,50,11,1,,,,,,,,,,,,,,,,,,,,,,,,,,,,
,,,,,V1_033,22,Female,2024-05-22_16h32.20.202,jersey_experiment_5_v1,2023.2.2,Win32,85.47008547,,,,,,,,,,,,,,,,871.5878,873.3877,873.3878,874.4584,return,0.6848,,55.72916667,,,,,,FBP-OG-18.png,0.4,1.2,38,1,,,,,,,,,,,,,0,51,51,37,1,,,,,,,,,,,,,,,,,,,,,,,,,,,,
,,,,,V1_033,22,Female,2024-05-22_16h32.20.202,jersey_experiment_5_v1,2023.2.2,Win32,85.47008547,,,,,,,,,,,,,,,,874.4586,875.7525,875.7525,877.3055,return,0.6248,,67.1875,,,,,,FBP-PT-81.png,0.45,1.2,10,0.5,,,,,,,,,,,,,0,52,52,9,1,,,,,,,,,,,,,,,,,,,,,,,,,,,,
,,,,,V1_033,22,Female,2024-05-22_16h32.20.202,jersey_experiment_5_v1,2023.2.2,Win32,85.47008547,,,,,,,,,,,,,,,,877.3057,879.1055,879.1055,880.6468,return,0.6879,,67.1875,,,,,,FBP-RB-91.png,0.43,1.2,59,1,,,,,,,,,,,,,0,53,53,58,1,,,,,,,,,,,,,,,,,,,,,,,,,,,,
,,,,,V1_033,22,Female,2024-05-22_16h32.20.202,jersey_experiment_5_v1,2023.2.2,Win32,85.47008547,,,,,,,,,,,,,,,,880.6471,882.4469,882.4469,883.9763,return,0.6748,,62.109375,,,,,,FBP-RB-81.png,0.4,1.2,53,1,,,,,,,,,,,,,0,54,54,52,1,,,,,,,,,,,,,,,,,,,,,,,,,,,,
,,,,,V1_033,22,Female,2024-05-22_16h32.20.202,jersey_experiment_5_v1,2023.2.2,Win32,85.47008547,,,,,,,,,,,,,,,,883.9764,885.7763,885.7763,887.4704,return,0.6218,,68.48958333,,,,,,FBP-YG-17.png,0.43,1.2,19,1,,,,,,,,,,,,,0,55,55,18,1,,,,,,,,,,,,,,,,,,,,,,,,,,,,
,,,,,V1_033,22,Female,2024-05-22_16h32.20.202,jersey_experiment_5_v1,2023.2.2,Win32,85.47008547,,,,,,,,,,,,,,,,887.4707,888.7647,888.7648,889.9882,return,0.5967,,68.22916667,,,,,,FBP-PT-71.png,0.45,1.2,5,0.5,,,,,,,,,,,,,0,56,56,4,1,,,,,,,,,,,,,,,,,,,,,,,,,,,,
,,,,,V1_033,22,Female,2024-05-22_16h32.20.202,jersey_experiment_5_v1,2023.2.2,Win32,85.47008547,,,,,,,,,,,,,,,,889.9884,891.7887,891.7888,894.8709,return,2.5217,,50.52083333,,,,,,FBP-YG-17.png,0.37,1.2,17,1,,,,,,,,,,,,,0,57,57,16,1,,,,,,,,,,,,,,,,,,,,,,,,,,,,
,,,,,V1_033,22,Female,2024-05-22_16h32.20.202,jersey_experiment_5_v1,2023.2.2,Win32,85.47008547,,,,,,,,,,,,,,,,894.8712,896.6708,896.6708,897.9182,return,0.7057,,53.77604167,,,,,,FBP-RB-91.png,0.4,1.2,58,1,,,,,,,,,,,,,0,58,58,57,1,,,,,,,,,,,,,,,,,,,,,,,,,,,,
,,,,,V1_033,22,Female,2024-05-22_16h32.20.202,jersey_experiment_5_v1,2023.2.2,Win32,85.47008547,,,,,,,,,,,,,,,,897.9185,899.7182,899.7183,901.8004,return,1.3922,,65.234375,,,,,,FBP-OG-17.png,0.43,1.2,34,1,,,,,,,,,,,,,0,59,59,33,1,,,,,,,,,,,,,,,,,,,,,,,,,,,,
,,,,,V1_033,22,Female,2024-05-22_16h32.20.202,jersey_experiment_5_v1,2023.2.2,Win32,85.47008547,,,,,,,,,,,,,,,,901.8026,903.6007,903.6007,905.342,return,0.8007,,50.13020833,,,,,,FBP-YG-81.png,0.37,1.2,22,1,,,,,,,,,,,,,,,,,,0,0,0,21,1,,,,,,,,,,,,,,,,,,,,,,,
,,,,,V1_033,22,Female,2024-05-22_16h32.20.202,jersey_experiment_5_v1,2023.2.2,Win32,85.47008547,,,,,,,,,,,,,,,,905.3424,907.142,907.142,909.295,return,0.7902,,74.86979167,,,,,,FBP-RB-18.png,0.43,1.2,54,1,,,,,,,,,,,,,,,,,,0,1,1,53,1,,,,,,,,,,,,,,,,,,,,,,,
,,,,,V1_033,22,Female,2024-05-22_16h32.20.202,jersey_experiment_5_v1,2023.2.2,Win32,85.47008547,,,,,,,,,,,,,,,,909.2951,911.095,911.095,913.3069,return,0.7075,,58.984375,,,,,,FBP-OG-91.png,0.37,1.2,42,1,,,,,,,,,,,,,,,,,,0,2,2,41,1,,,,,,,,,,,,,,,,,,,,,,,
,,,,,V1_033,22,Female,2024-05-22_16h32.20.202,jersey_experiment_5_v1,2023.2.2,Win32,85.47008547,,,,,,,,,,,,,,,,913.307,915.1073,915.1073,916.6365,return,0.7304,,49.609375,,,,,,FBP-YG-91.png,0.35,1.2,26,1,,,,,,,,,,,,,,,,,,0,3,3,25,1,,,,,,,,,,,,,,,,,,,,,,,
,,,,,V1_033,22,Female,2024-05-22_16h32.20.202,jersey_experiment_5_v1,2023.2.2,Win32,85.47008547,,,,,,,,,,,,,,,,916.6367,918.4366,918.4366,920.3424,return,0.6753,,76.30208333,,,,,,FBP-RB-19.png,0.43,1.2,59,1,,,,,,,,,,,,,,,,,,0,4,4,58,1,,,,,,,,,,,,,,,,,,,,,,,
,,,,,V1_033,22,Female,2024-05-22_16h32.20.202,jersey_experiment_5_v1,2023.2.2,Win32,85.47008547,,,,,,,,,,,,,,,,920.3426,922.1428,922.1428,923.8013,return,0.756,,70.57291667,,,,,,FBP-RB-19.png,0.4,1.2,58,1,,,,,,,,,,,,,,,,,,0,5,5,57,1,,,,,,,,,,,,,,,,,,,,,,,
,,,,,V1_033,22,Female,2024-05-22_16h32.20.202,jersey_experiment_5_v1,2023.2.2,Win32,85.47008547,,,,,,,,,,,,,,,,923.8015,925.6014,925.6014,928.7427,return,2.3925,,65.49479167,,,,,,FBP-OG-81.png,0.4,1.2,38,1,,,,,,,,,,,,,,,,,,0,6,6,37,1,,,,,,,,,,,,,,,,,,,,,,,
,,,,,V1_033,22,Female,2024-05-22_16h32.20.202,jersey_experiment_5_v1,2023.2.2,Win32,85.47008547,,,,,,,,,,,,,,,,928.7429,930.0369,930.0369,931.6604,return,0.7765,,63.02083333,,,,,,FBP-PT-19.png,0.4,1.2,13,0.5,,,,,,,,,,,,,,,,,,0,7,7,12,1,,,,,,,,,,,,,,,,,,,,,,,
,,,,,V1_033,22,Female,2024-05-22_16h32.20.202,jersey_experiment_5_v1,2023.2.2,Win32,85.47008547,,,,,,,,,,,,,,,,931.6607,933.4606,933.4606,934.6018,return,0.7088,,49.21875,,,,,,FBP-OG-81.png,0.35,1.2,36,1,,,,,,,,,,,,,,,,,,0,8,8,35,1,,,,,,,,,,,,,,,,,,,,,,,
,,,,,V1_033,22,Female,2024-05-22_16h32.20.202,jersey_experiment_5_v1,2023.2.2,Win32,85.47008547,,,,,,,,,,,,,,,,934.602,935.8959,935.8959,937.5312,return,0.5876,,53.125,,,,,,FBP-PT-18.png,0.4,1.2,8,0.5,,,,,,,,,,,,,,,,,,0,9,9,7,1,,,,,,,,,,,,,,,,,,,,,,,
,,,,,V1_033,22,Female,2024-05-22_16h32.20.202,jersey_experiment_5_v1,2023.2.2,Win32,85.47008547,,,,,,,,,,,,,,,,937.5315,939.3314,939.3314,940.8138,return,0.7867,,67.96875,,,,,,FBP-RB-18.png,0.45,1.2,55,1,,,,,,,,,,,,,,,,,,0,10,10,54,1,,,,,,,,,,,,,,,,,,,,,,,
,,,,,V1_033,22,Female,2024-05-22_16h32.20.202,jersey_experiment_5_v1,2023.2.2,Win32,85.47008547,,,,,,,,,,,,,,,,940.8141,942.6137,942.6137,943.9668,return,0.7156,,73.56770833,,,,,,FBP-OG-91.png,0.45,1.2,45,1,,,,,,,,,,,,,,,,,,0,11,11,44,1,,,,,,,,,,,,,,,,,,,,,,,
,,,,,V1_033,22,Female,2024-05-22_16h32.20.202,jersey_experiment_5_v1,2023.2.2,Win32,85.47008547,,,,,,,,,,,,,,,,943.967,945.767,945.767,946.7904,return,0.6646,,78.64583333,,,,,,FBP-YG-81.png,0.45,1.2,25,1,,,,,,,,,,,,,,,,,,0,12,12,24,1,,,,,,,,,,,,,,,,,,,,,,,
,,,,,V1_033,22,Female,2024-05-22_16h32.20.202,jersey_experiment_5_v1,2023.2.2,Win32,85.47008547,,,,,,,,,,,,,,,,946.7906,948.5908,948.5908,949.8023,return,0.6847,,71.35416667,,,,,,FBP-RB-18.png,0.4,1.2,53,1,,,,,,,,,,,,,,,,,,0,13,13,52,1,,,,,,,,,,,,,,,,,,,,,,,
,,,,,V1_033,22,Female,2024-05-22_16h32.20.202,jersey_experiment_5_v1,2023.2.2,Win32,85.47008547,,,,,,,,,,,,,,,,949.8025,951.6025,951.6025,952.8377,return,0.6422,,73.56770833,,,,,,FBP-OG-81.png,0.43,1.2,39,1,,,,,,,,,,,,,,,,,,0,14,14,38,1,,,,,,,,,,,,,,,,,,,,,,,
,,,,,V1_033,22,Female,2024-05-22_16h32.20.202,jersey_experiment_5_v1,2023.2.2,Win32,85.47008547,,,,,,,,,,,,,,,,952.8379,954.6378,954.6379,955.9436,return,0.7433,,70.3125,,,,,,FBP-YG-81.png,0.4,1.2,23,1,,,,,,,,,,,,,,,,,,0,15,15,22,1,,,,,,,,,,,,,,,,,,,,,,,
,,,,,V1_033,22,Female,2024-05-22_16h32.20.202,jersey_experiment_5_v1,2023.2.2,Win32,85.47008547,,,,,,,,,,,,,,,,955.9437,957.7439,957.744,960.132,return,1.3495,,78.125,,,,,,FBP-YG-81.png,0.43,1.2,24,1,,,,,,,,,,,,,,,,,,0,16,16,23,1,,,,,,,,,,,,,,,,,,,,,,,
,,,,,V1_033,22,Female,2024-05-22_16h32.20.202,jersey_experiment_5_v1,2023.2.2,Win32,85.47008547,,,,,,,,,,,,,,,,960.1321,961.9323,961.9323,963.4147,return,0.7472,,73.56770833,,,,,,FBP-OG-71.png,0.43,1.2,34,1,,,,,,,,,,,,,,,,,,0,17,17,33,1,,,,,,,,,,,,,,,,,,,,,,,
,,,,,V1_033,22,Female,2024-05-22_16h32.20.202,jersey_experiment_5_v1,2023.2.2,Win32,85.47008547,,,,,,,,,,,,,,,,963.4149,965.2148,965.2148,966.9324,return,1.0907,,80.46875,,,,,,FBP-YG-91.png,0.45,1.2,30,1,,,,,,,,,,,,,,,,,,0,18,18,29,1,,,,,,,,,,,,,,,,,,,,,,,
,,,,,V1_033,22,Female,2024-05-22_16h32.20.202,jersey_experiment_5_v1,2023.2.2,Win32,85.47008547,,,,,,,,,,,,,,,,966.9325,968.7328,968.7328,972.0268,return,2.4371,,50.390625,,,,,,FBP-RB-17.png,0.35,1.2,46,1,,,,,,,,,,,,,,,,,,0,19,19,45,1,,,,,,,,,,,,,,,,,,,,,,,
,,,,,V1_033,22,Female,2024-05-22_16h32.20.202,jersey_experiment_5_v1,2023.2.2,Win32,85.47008547,,,,,,,,,,,,,,,,972.027,973.3209,973.3209,975.3092,return,0.6458,,58.72395833,,,,,,FBP-PT-18.png,0.43,1.2,9,0.5,,,,,,,,,,,,,,,,,,0,20,20,8,1,,,,,,,,,,,,,,,,,,,,,,,
,,,,,V1_033,22,Female,2024-05-22_16h32.20.202,jersey_experiment_5_v1,2023.2.2,Win32,85.47008547,,,,,,,,,,,,,,,,975.3093,976.6032,976.6032,978.168,return,0.6985,,70.18229167,,,,,,FBP-PT-17.png,0.43,1.2,4,0.5,,,,,,,,,,,,,,,,,,0,21,21,3,1,,,,,,,,,,,,,,,,,,,,,,,
,,,,,V1_033,22,Female,2024-05-22_16h32.20.202,jersey_experiment_5_v1,2023.2.2,Win32,85.47008547,,,,,,,,,,,,,,,,978.1681,979.9681,979.9681,982.1564,return,1.1158,,51.69270833,,,,,,FBP-RB-18.png,0.35,1.2,51,1,,,,,,,,,,,,,,,,,,0,22,22,50,1,,,,,,,,,,,,,,,,,,,,,,,
,,,,,V1_033,22,Female,2024-05-22_16h32.20.202,jersey_experiment_5_v1,2023.2.2,Win32,85.47008547,,,,,,,,,,,,,,,,982.1565,983.9564,983.9564,986.1213,return,1.3324,,51.5625,,,,,,FBP-OG-71.png,0.35,1.2,31,1,,,,,,,,,,,,,,,,,,0,23,23,30,1,,,,,,,,,,,,,,,,,,,,,,,
,,,,,V1_033,22,Female,2024-05-22_16h32.20.202,jersey_experiment_5_v1,2023.2.2,Win32,85.47008547,,,,,,,,,,,,,,,,986.1215,987.9213,987.9213,989.1919,return,0.7811,,51.30208333,,,,,,FBP-YG-81.png,0.35,1.2,21,1,,,,,,,,,,,,,,,,,,0,24,24,20,1,,,,,,,,,,,,,,,,,,,,,,,
,,,,,V1_033,22,Female,2024-05-22_16h32.20.202,jersey_experiment_5_v1,2023.2.2,Win32,85.47008547,,,,,,,,,,,,,,,,989.192,990.4861,990.4862,993.145,return,0.7194,,76.171875,,,,,,FBP-PT-19.png,0.45,1.2,15,0.5,,,,,,,,,,,,,,,,,,0,25,25,14,1,,,,,,,,,,,,,,,,,,,,,,,
,,,,,V1_033,22,Female,2024-05-22_16h32.20.202,jersey_experiment_5_v1,2023.2.2,Win32,85.47008547,,,,,,,,,,,,,,,,993.1452,994.4391,994.4391,997.3334,return,1.8896,,58.85416667,,,,,,FBP-PT-17.png,0.4,1.2,3,0.5,,,,,,,,,,,,,,,,,,0,26,26,2,1,,,,,,,,,,,,,,,,,,,,,,,
,,,,,V1_033,22,Female,2024-05-22_16h32.20.202,jersey_experiment_5_v1,2023.2.2,Win32,85.47008547,,,,,,,,,,,,,,,,997.3336,999.1336,999.1336,1000.7453,return,0.8737,,59.24479167,,,,,,FBP-YG-71.png,0.4,1.2,18,1,,,,,,,,,,,,,,,,,,0,27,27,17,1,,,,,,,,,,,,,,,,,,,,,,,
,,,,,V1_033,22,Female,2024-05-22_16h32.20.202,jersey_experiment_5_v1,2023.2.2,Win32,85.47008547,,,,,,,,,,,,,,,,1000.7454,1002.0395,1002.0396,1004.6867,return,1.8731,,62.23958333,,,,,,FBP-PT-18.png,0.37,1.2,7,0.5,,,,,,,,,,,,,,,,,,0,28,28,6,1,,,,,,,,,,,,,,,,,,,,,,,
,,,,,V1_033,22,Female,2024-05-22_16h32.20.202,jersey_experiment_5_v1,2023.2.2,Win32,85.47008547,,,,,,,,,,,,,,,,1004.6868,1005.9808,1005.9808,1008.1809,return,0.7944,,46.35416667,,,,,,FBP-PT-18.png,0.35,1.2,6,0.5,,,,,,,,,,,,,,,,,,0,29,29,5,1,,,,,,,,,,,,,,,,,,,,,,,
,,,,,V1_033,22,Female,2024-05-22_16h32.20.202,jersey_experiment_5_v1,2023.2.2,Win32,85.47008547,,,,,,,,,,,,,,,,1008.181,1009.4751,1009.4751,1012.7106,return,1.8768,,72.52604167,,,,,,FBP-PT-19.png,0.43,1.2,14,0.5,,,,,,,,,,,,,,,,,,0,30,30,13,1,,,,,,,,,,,,,,,,,,,,,,,
,,,,,V1_033,22,Female,2024-05-22_16h32.20.202,jersey_experiment_5_v1,2023.2.2,Win32,85.47008547,,,,,,,,,,,,,,,,1012.7109,1014.0046,1014.0046,1016.4871,return,0.7348,,51.69270833,,,,,,FBP-PT-19.png,0.37,1.2,12,0.5,,,,,,,,,,,,,,,,,,0,31,31,11,1,,,,,,,,,,,,,,,,,,,,,,,
,,,,,V1_033,22,Female,2024-05-22_16h32.20.202,jersey_experiment_5_v1,2023.2.2,Win32,85.47008547,,,,,,,,,,,,,,,,1016.4874,1018.2874,1018.2874,1020.1108,return,0.6926,,71.74479167,,,,,,FBP-YG-91.png,0.43,1.2,29,1,,,,,,,,,,,,,,,,,,0,32,32,28,1,,,,,,,,,,,,,,,,,,,,,,,
,,,,,V1_033,22,Female,2024-05-22_16h32.20.202,jersey_experiment_5_v1,2023.2.2,Win32,85.47008547,,,,,,,,,,,,,,,,1020.111,1021.9109,1021.9109,1023.158,return,0.7713,,71.875,,,,,,FBP-OG-81.png,0.45,1.2,40,1,,,,,,,,,,,,,,,,,,0,33,33,39,1,,,,,,,,,,,,,,,,,,,,,,,
,,,,,V1_033,22,Female,2024-05-22_16h32.20.202,jersey_experiment_5_v1,2023.2.2,Win32,85.47008547,,,,,,,,,,,,,,,,1023.1582,1024.9581,1024.9581,1026.2168,return,0.7448,,64.19270833,,,,,,FBP-OG-91.png,0.4,1.2,43,1,,,,,,,,,,,,,,,,,,0,34,34,42,1,,,,,,,,,,,,,,,,,,,,,,,
,,,,,V1_033,22,Female,2024-05-22_16h32.20.202,jersey_experiment_5_v1,2023.2.2,Win32,85.47008547,,,,,,,,,,,,,,,,1026.2171,1027.5111,1027.5111,1030.0405,return,1.3552,,50.91145833,,,,,,FBP-PT-19.png,0.35,1.2,11,0.5,,,,,,,,,,,,,,,,,,0,35,35,10,1,,,,,,,,,,,,,,,,,,,,,,,
,,,,,V1_033,22,Female,2024-05-22_16h32.20.202,jersey_experiment_5_v1,2023.2.2,Win32,85.47008547,,,,,,,,,,,,,,,,1030.0407,1031.3346,1031.3346,1033.1348,return,0.8948,,49.21875,,,,,,FBP-PT-17.png,0.35,1.2,1,0.5,,,,,,,,,,,,,,,,,,0,36,36,0,1,,,,,,,,,,,,,,,,,,,,,,,
,,,,,V1_033,22,Female,2024-05-22_16h32.20.202,jersey_experiment_5_v1,2023.2.2,Win32,85.47008547,,,,,,,,,,,,,,,,1033.1349,1034.935,1034.935,1036.3465,return,0.6706,,64.97395833,,,,,,FBP-OG-71.png,0.4,1.2,33,1,,,,,,,,,,,,,,,,,,0,37,37,32,1,,,,,,,,,,,,,,,,,,,,,,,
,,,,,V1_033,22,Female,2024-05-22_16h32.20.202,jersey_experiment_5_v1,2023.2.2,Win32,85.47008547,,,,,,,,,,,,,,,,1036.3466,1038.1469,1038.1469,1041.5114,return,2.0508,,53.38541667,,,,,,FBP-YG-91.png,0.37,1.2,27,1,,,,,,,,,,,,,,,,,,0,38,38,26,1,,,,,,,,,,,,,,,,,,,,,,,
,,,,,V1_033,22,Female,2024-05-22_16h32.20.202,jersey_experiment_5_v1,2023.2.2,Win32,85.47008547,,,,,,,,,,,,,,,,1041.5116,1043.3117,1043.3117,1045.1588,return,0.8975,,74.86979167,,,,,,FBP-OG-71.png,0.45,1.2,35,1,,,,,,,,,,,,,,,,,,0,39,39,34,1,,,,,,,,,,,,,,,,,,,,,,,
,,,,,V1_033,22,Female,2024-05-22_16h32.20.202,jersey_experiment_5_v1,2023.2.2,Win32,85.47008547,,,,,,,,,,,,,,,,1045.159,1046.9588,1046.9588,1048.3119,return,0.8025,,79.6875,,,,,,FBP-RB-17.png,0.45,1.2,50,1,,,,,,,,,,,,,,,,,,0,40,40,49,1,,,,,,,,,,,,,,,,,,,,,,,
,,,,,V1_033,22,Female,2024-05-22_16h32.20.202,jersey_experiment_5_v1,2023.2.2,Win32,85.47008547,,,,,,,,,,,,,,,,1048.3121,1050.1119,1050.1119,1052.1355,return,0.9226,,49.47916667,,,,,,FBP-OG-91.png,0.35,1.2,41,1,,,,,,,,,,,,,,,,,,0,41,41,40,1,,,,,,,,,,,,,,,,,,,,,,,
,,,,,V1_033,22,Female,2024-05-22_16h32.20.202,jersey_experiment_5_v1,2023.2.2,Win32,85.47008547,,,,,,,,,,,,,,,,1052.1356,1053.9356,1053.9356,1055.0296,return,0.7232,,45.44270833,,,,,,FBP-OG-71.png,0.37,1.2,32,1,,,,,,,,,,,,,,,,,,0,42,42,31,1,,,,,,,,,,,,,,,,,,,,,,,
,,,,,V1_033,22,Female,2024-05-22_16h32.20.202,jersey_experiment_5_v1,2023.2.2,Win32,85.47008547,,,,,,,,,,,,,,,,1055.0298,1056.3239,1056.3239,1058.4769,return,0.7906,,74.34895833,,,,,,FBP-PT-18.png,0.45,1.2,10,0.5,,,,,,,,,,,,,,,,,,0,43,43,9,1,,,,,,,,,,,,,,,,,,,,,,,
,,,,,V1_033,22,Female,2024-05-22_16h32.20.202,jersey_experiment_5_v1,2023.2.2,Win32,85.47008547,,,,,,,,,,,,,,,,1058.4772,1060.277,1060.2771,1062.3005,return,0.9285,,55.98958333,,,,,,FBP-OG-81.png,0.37,1.2,37,1,,,,,,,,,,,,,,,,,,0,44,44,36,1,,,,,,,,,,,,,,,,,,,,,,,
,,,,,V1_033,22,Female,2024-05-22_16h32.20.202,jersey_experiment_5_v1,2023.2.2,Win32,85.47008547,,,,,,,,,,,,,,,,1062.3006,1064.1008,1064.1008,1065.6538,return,0.8048,,54.42708333,,,,,,FBP-RB-18.png,0.37,1.2,52,1,,,,,,,,,,,,,,,,,,0,45,45,51,1,,,,,,,,,,,,,,,,,,,,,,,
,,,,,V1_033,22,Female,2024-05-22_16h32.20.202,jersey_experiment_5_v1,2023.2.2,Win32,85.47008547,,,,,,,,,,,,,,,,1065.654,1066.9478,1066.9478,1068.4419,return,0.779,,54.6875,,,,,,FBP-PT-17.png,0.37,1.2,2,0.5,,,,,,,,,,,,,,,,,,0,46,46,1,1,,,,,,,,,,,,,,,,,,,,,,,
,,,,,V1_033,22,Female,2024-05-22_16h32.20.202,jersey_experiment_5_v1,2023.2.2,Win32,85.47008547,,,,,,,,,,,,,,,,1068.4421,1070.2422,1070.2422,1071.642,return,0.9059,,64.19270833,,,,,,FBP-YG-71.png,0.45,1.2,20,1,,,,,,,,,,,,,,,,,,0,47,47,19,1,,,,,,,,,,,,,,,,,,,,,,,
,,,,,V1_033,22,Female,2024-05-22_16h32.20.202,jersey_experiment_5_v1,2023.2.2,Win32,85.47008547,,,,,,,,,,,,,,,,1071.6422,1073.4424,1073.4424,1075.4303,return,0.769,,73.046875,,,,,,FBP-RB-17.png,0.43,1.2,49,1,,,,,,,,,,,,,,,,,,0,48,48,48,1,,,,,,,,,,,,,,,,,,,,,,,
,,,,,V1_033,22,Female,2024-05-22_16h32.20.202,jersey_experiment_5_v1,2023.2.2,Win32,85.47008547,,,,,,,,,,,,,,,,1075.4306,1077.2305,1077.2305,1079.56,return,0.6987,,52.734375,,,,,,FBP-RB-19.png,0.37,1.2,57,1,,,,,,,,,,,,,,,,,,0,49,49,56,1,,,,,,,,,,,,,,,,,,,,,,,
,,,,,V1_033,22,Female,2024-05-22_16h32.20.202,jersey_experiment_5_v1,2023.2.2,Win32,85.47008547,,,,,,,,,,,,,,,,1079.5603,1081.3601,1081.3601,1082.6307,return,0.6411,,54.16666667,,,,,,FBP-YG-91.png,0.4,1.2,28,1,,,,,,,,,,,,,,,,,,0,50,50,27,1,,,,,,,,,,,,,,,,,,,,,,,
,,,,,V1_033,22,Female,2024-05-22_16h32.20.202,jersey_experiment_5_v1,2023.2.2,Win32,85.47008547,,,,,,,,,,,,,,,,1082.6309,1084.4308,1084.4308,1086.172,return,0.6833,,49.609375,,,,,,FBP-RB-19.png,0.35,1.2,56,1,,,,,,,,,,,,,,,,,,0,51,51,55,1,,,,,,,,,,,,,,,,,,,,,,,
,,,,,V1_033,22,Female,2024-05-22_16h32.20.202,jersey_experiment_5_v1,2023.2.2,Win32,85.47008547,,,,,,,,,,,,,,,,1086.1722,1087.9721,1087.9721,1090.3956,return,0.7171,,54.94791667,,,,,,FBP-YG-71.png,0.35,1.2,16,1,,,,,,,,,,,,,,,,,,0,52,52,15,1,,,,,,,,,,,,,,,,,,,,,,,
,,,,,V1_033,22,Female,2024-05-22_16h32.20.202,jersey_experiment_5_v1,2023.2.2,Win32,85.47008547,,,,,,,,,,,,,,,,1090.3959,1092.1958,1092.1959,1094.0782,return,0.9884,,73.046875,,,,,,FBP-YG-71.png,0.43,1.2,19,1,,,,,,,,,,,,,,,,,,0,53,53,18,1,,,,,,,,,,,,,,,,,,,,,,,
,,,,,V1_033,22,Female,2024-05-22_16h32.20.202,jersey_experiment_5_v1,2023.2.2,Win32,85.47008547,,,,,,,,,,,,,,,,1094.0784,1095.8782,1095.8782,1097.29,return,0.8023,,68.22916667,,,,,,FBP-RB-17.png,0.4,1.2,48,1,,,,,,,,,,,,,,,,,,0,54,54,47,1,,,,,,,,,,,,,,,,,,,,,,,
,,,,,V1_033,22,Female,2024-05-22_16h32.20.202,jersey_experiment_5_v1,2023.2.2,Win32,85.47008547,,,,,,,,,,,,,,,,1097.2902,1099.0901,1099.0901,1100.3607,return,0.7664,,62.76041667,,,,,,FBP-YG-71.png,0.37,1.2,17,1,,,,,,,,,,,,,,,,,,0,55,55,16,1,,,,,,,,,,,,,,,,,,,,,,,
,,,,,V1_033,22,Female,2024-05-22_16h32.20.202,jersey_experiment_5_v1,2023.2.2,Win32,85.47008547,,,,,,,,,,,,,,,,1100.3608,1102.1609,1102.1609,1103.855,return,0.6126,,57.421875,,,,,,FBP-RB-17.png,0.37,1.2,47,1,,,,,,,,,,,,,,,,,,0,56,56,46,1,,,,,,,,,,,,,,,,,,,,,,,
,,,,,V1_033,22,Female,2024-05-22_16h32.20.202,jersey_experiment_5_v1,2023.2.2,Win32,85.47008547,,,,,,,,,,,,,,,,1103.8551,1105.655,1105.655,1109.5964,return,0.6356,,72.265625,,,,,,FBP-OG-91.png,0.43,1.2,44,1,,,,,,,,,,,,,,,,,,0,57,57,43,1,,,,,,,,,,,,,,,,,,,,,,,
,,,,,V1_033,22,Female,2024-05-22_16h32.20.202,jersey_experiment_5_v1,2023.2.2,Win32,85.47008547,,,,,,,,,,,,,,,,1109.5966,1110.8905,1110.8906,1112.3612,return,0.733,,74.86979167,,,,,,FBP-PT-17.png,0.45,1.2,5,0.5,,,,,,,,,,,,,,,,,,0,58,58,4,1,,,,,,,,,,,,,,,,,,,,,,,
,,,,,V1_033,22,Female,2024-05-22_16h32.20.202,jersey_experiment_5_v1,2023.2.2,Win32,85.47008547,,,,,,,,,,,,,,,,1112.3613,1114.1613,1114.1613,1116.0553,return,0.6039,,77.34375,,,,,,FBP-RB-19.png,0.45,1.2,60,1,,,,,,,,,,,,,,,,,,0,59,59,59,1,,,,,,,,,,,,,,,,,,,,,,,
,,,,,V1_033,22,Female,2024-05-22_16h32.20.202,jersey_experiment_5_v1,2023.2.2,Win32,85.47008547,,,,,,,,,,,,,,,,,,,,,,,,,,,,,,,,,,,,,,,,,,,,,,,,,,,,,,,,1116.0564,1129.5504,return,13.4825,,,,,,,,,,,,,,,,,,,
,,,,,V1_033,22,Female,2024-05-22_16h32.20.202,jersey_experiment_5_v1,2023.2.2,Win32,85.47008547,,,,,,,,,,,,,,,,,,,,,,,,,,,,,,,,,,,,,,,,,,,,,,,,,,,,,,,,,,,,,1129.5504,1136.5388,1,2.8644,return,4.1073,,,,,,,,,,,,
,,,,,V1_033,22,Female,2024-05-22_16h32.20.202,jersey_experiment_5_v1,2023.2.2,Win32,85.47008547,,,,,,,,,,,,,,,,,,,,,,,,,,,,,,,,,,,,,,,,,,,,,,,,,,,,,,,,,,,,,,,,,,,,1136.5432,1226.4462,"i know it is about perception and visuals but not much more. i am interested how i rated each football player in relation to the baseline slender and husky, it was hard to keep track of my consistency. ",right,80.7324,,,,,,
,,,,,V1_033,22,Female,2024-05-22_16h32.20.202,jersey_experiment_5_v1,2023.2.2,Win32,85.47008547,,,,,,,,,,,,,,,,,,,,,,,,,,,,,,,,,,,,,,,,,,,,,,,,,,,,,,,,,,,,,,,,,,,,,,,,,,1226.4463,1232.0598,return,5.6,