requirements.started,requirements.stopped,key_resp_3.keys,key_resp_3.rt,key_resp_3.duration,Subject ID,Age,Gender,date,expName,psychopyVersion,OS,frameRate,instructions1.started,instructions1.stopped,key_resp.keys,key_resp.rt,key_resp.duration,example.started,example.stopped,enter_2.keys,enter_2.rt,enter_2.duration,instructions2.started,instructions2.stopped,enter_3.keys,enter_3.rt,enter_3.duration,image.started,image.stopped,slider_2.started,slider_2.stopped,next.keys,next.rt,next.duration,slider.response,trial_block_1.thisRepN,trial_block_1.thisTrialN,trial_block_1.thisN,trial_block_1.thisIndex,trial_block_1.ran,Path,Width,Height,Index,Duration,trial_block_2.thisRepN,trial_block_2.thisTrialN,trial_block_2.thisN,trial_block_2.thisIndex,trial_block_2.ran,rest_break.started,rest_break.stopped,end_break.started,end_break.stopped,key_resp_5.keys,key_resp_5.rt,key_resp_5.duration,trial_block_3.thisRepN,trial_block_3.thisTrialN,trial_block_3.thisN,trial_block_3.thisIndex,trial_block_3.ran,trial_block_4.thisRepN,trial_block_4.thisTrialN,trial_block_4.thisN,trial_block_4.thisIndex,trial_block_4.ran,questions_intro.started,questions_intro.stopped,enter_12.keys,enter_12.rt,enter_12.duration,question2.started,question2.stopped,question_doingbest.response,question_doingbest.rt,enter_15.keys,enter_15.rt,enter_15.duration,pattern.started,pattern.stopped,pattern_2.text,enter_17.keys,enter_17.rt,enter_17.duration,thankyou.started,thankyou.stopped,enter_14.keys,enter_14.rt,enter_14.duration
0.0001,17.2006,return,17.1963,,V1_003,18,female,2024-04-29_10h09.51.465,jersey_experiment_5_v1,2023.2.2,Win32,84.74576271,,,,,,,,,,,,,,,,,,,,,,,,,,,,,,,,,,,,,,,,,,,,,,,,,,,,,,,,,,,,,,,,,,,,,,,,,,,,,,
,,,,,V1_003,18,female,2024-04-29_10h09.51.465,jersey_experiment_5_v1,2023.2.2,Win32,84.74576271,17.2007,31.4827,return,14.2739,,,,,,,,,,,,,,,,,,,,,,,,,,,,,,,,,,,,,,,,,,,,,,,,,,,,,,,,,,,,,,,,,,,,,,,,,,
,,,,,V1_003,18,female,2024-04-29_10h09.51.465,jersey_experiment_5_v1,2023.2.2,Win32,84.74576271,,,,,,31.4828,38.5598,return,7.03,,,,,,,,,,,,,,,,,,,,,,,,,,,,,,,,,,,,,,,,,,,,,,,,,,,,,,,,,,,,,,,,,,,,,
,,,,,V1_003,18,female,2024-04-29_10h09.51.465,jersey_experiment_5_v1,2023.2.2,Win32,84.74576271,,,,,,,,,,,38.5599,57.1132,return,18.5365,,,,,,,,,,,,,,,,,,,,,,,,,,,,,,,,,,,,,,,,,,,,,,,,,,,,,,,,,,,,,,,,
,,,,,V1_003,18,female,2024-04-29_10h09.51.465,jersey_experiment_5_v1,2023.2.2,Win32,84.74576271,,,,,,,,,,,,,,,,57.1202,58.4134,58.4135,74.655,return,3.2625,,24.86979167,0,0,0,44,1,FBP-OG-19.png,0.45,1.2,45,0.5,,,,,,,,,,,,,,,,,,,,,,,,,,,,,,,,,,,,,,,,,,,,,
,,,,,V1_003,18,female,2024-04-29_10h09.51.465,jersey_experiment_5_v1,2023.2.2,Win32,84.74576271,,,,,,,,,,,,,,,,74.6553,75.9489,75.9489,79.4003,return,2.0353,,15.10416667,0,1,1,28,1,FBP-YG-19.png,0.43,1.2,29,0.5,,,,,,,,,,,,,,,,,,,,,,,,,,,,,,,,,,,,,,,,,,,,,
,,,,,V1_003,18,female,2024-04-29_10h09.51.465,jersey_experiment_5_v1,2023.2.2,Win32,84.74576271,,,,,,,,,,,,,,,,79.4004,81.1962,81.1963,85.1022,return,2.3072,,33.59375,0,2,2,6,1,FBP-PT-81.png,0.37,1.2,7,1,,,,,,,,,,,,,,,,,,,,,,,,,,,,,,,,,,,,,,,,,,,,,
,,,,,V1_003,18,female,2024-04-29_10h09.51.465,jersey_experiment_5_v1,2023.2.2,Win32,84.74576271,,,,,,,,,,,,,,,,85.1024,86.3965,86.3965,103.3269,return,3.6611,,21.74479167,0,3,3,35,1,FBP-OG-18.png,0.35,1.2,36,0.5,,,,,,,,,,,,,,,,,,,,,,,,,,,,,,,,,,,,,,,,,,,,,
,,,,,V1_003,18,female,2024-04-29_10h09.51.465,jersey_experiment_5_v1,2023.2.2,Win32,84.74576271,,,,,,,,,,,,,,,,103.327,104.6207,104.6207,108.2326,return,1.4893,,80.59895833,0,4,4,29,1,FBP-YG-19.png,0.45,1.2,30,0.5,,,,,,,,,,,,,,,,,,,,,,,,,,,,,,,,,,,,,,,,,,,,,
,,,,,V1_003,18,female,2024-04-29_10h09.51.465,jersey_experiment_5_v1,2023.2.2,Win32,84.74576271,,,,,,,,,,,,,,,,108.2327,109.5324,109.5324,112.2211,return,0.9684,,88.671875,0,5,5,52,1,FBP-RB-81.png,0.4,1.2,53,0.5,,,,,,,,,,,,,,,,,,,,,,,,,,,,,,,,,,,,,,,,,,,,,
,,,,,V1_003,18,female,2024-04-29_10h09.51.465,jersey_experiment_5_v1,2023.2.2,Win32,84.74576271,,,,,,,,,,,,,,,,112.2213,114.0211,114.0211,116.4605,return,0.8433,,78.90625,0,6,6,3,1,FBP-PT-71.png,0.43,1.2,4,1,,,,,,,,,,,,,,,,,,,,,,,,,,,,,,,,,,,,,,,,,,,,,
,,,,,V1_003,18,female,2024-04-29_10h09.51.465,jersey_experiment_5_v1,2023.2.2,Win32,84.74576271,,,,,,,,,,,,,,,,116.4606,118.2565,118.2565,120.5308,return,0.7779,,97.39583333,0,7,7,14,1,FBP-PT-91.png,0.45,1.2,15,1,,,,,,,,,,,,,,,,,,,,,,,,,,,,,,,,,,,,,,,,,,,,,
,,,,,V1_003,18,female,2024-04-29_10h09.51.465,jersey_experiment_5_v1,2023.2.2,Win32,84.74576271,,,,,,,,,,,,,,,,120.531,121.8332,121.8332,124.6492,return,1.2133,,98.95833333,0,8,8,19,1,FBP-YG-17.png,0.45,1.2,20,0.5,,,,,,,,,,,,,,,,,,,,,,,,,,,,,,,,,,,,,,,,,,,,,
,,,,,V1_003,18,female,2024-04-29_10h09.51.465,jersey_experiment_5_v1,2023.2.2,Win32,84.74576271,,,,,,,,,,,,,,,,124.6493,125.951,125.951,129.5511,return,1.013,,99.73958333,0,9,9,49,1,FBP-RB-71.png,0.45,1.2,50,0.5,,,,,,,,,,,,,,,,,,,,,,,,,,,,,,,,,,,,,,,,,,,,,
,,,,,V1_003,18,female,2024-04-29_10h09.51.465,jersey_experiment_5_v1,2023.2.2,Win32,84.74576271,,,,,,,,,,,,,,,,129.5513,131.3511,131.3511,134.2608,return,1.0602,,43.75,0,10,10,10,1,FBP-PT-91.png,0.35,1.2,11,1,,,,,,,,,,,,,,,,,,,,,,,,,,,,,,,,,,,,,,,,,,,,,
,,,,,V1_003,18,female,2024-04-29_10h09.51.465,jersey_experiment_5_v1,2023.2.2,Win32,84.74576271,,,,,,,,,,,,,,,,134.2611,135.5631,135.5631,140.2103,return,1.4583,,22.91666667,0,11,11,50,1,FBP-RB-81.png,0.35,1.2,51,0.5,,,,,,,,,,,,,,,,,,,,,,,,,,,,,,,,,,,,,,,,,,,,,
,,,,,V1_003,18,female,2024-04-29_10h09.51.465,jersey_experiment_5_v1,2023.2.2,Win32,84.74576271,,,,,,,,,,,,,,,,140.2104,141.5045,141.5045,144.4458,return,0.8607,,61.84895833,0,12,12,36,1,FBP-OG-18.png,0.37,1.2,37,0.5,,,,,,,,,,,,,,,,,,,,,,,,,,,,,,,,,,,,,,,,,,,,,
,,,,,V1_003,18,female,2024-04-29_10h09.51.465,jersey_experiment_5_v1,2023.2.2,Win32,84.74576271,,,,,,,,,,,,,,,,144.4459,145.74,145.74,149.3048,return,0.6777,,58.46354167,0,13,13,16,1,FBP-YG-17.png,0.37,1.2,17,0.5,,,,,,,,,,,,,,,,,,,,,,,,,,,,,,,,,,,,,,,,,,,,,
,,,,,V1_003,18,female,2024-04-29_10h09.51.465,jersey_experiment_5_v1,2023.2.2,Win32,84.74576271,,,,,,,,,,,,,,,,149.3049,150.5989,150.599,154.284,return,2.1505,,63.02083333,0,14,14,22,1,FBP-YG-18.png,0.4,1.2,23,0.5,,,,,,,,,,,,,,,,,,,,,,,,,,,,,,,,,,,,,,,,,,,,,
,,,,,V1_003,18,female,2024-04-29_10h09.51.465,jersey_experiment_5_v1,2023.2.2,Win32,84.74576271,,,,,,,,,,,,,,,,154.2841,156.0815,156.0815,158.5521,return,0.9016,,73.69791667,0,15,15,2,1,FBP-PT-71.png,0.4,1.2,3,1,,,,,,,,,,,,,,,,,,,,,,,,,,,,,,,,,,,,,,,,,,,,,
,,,,,V1_003,18,female,2024-04-29_10h09.51.465,jersey_experiment_5_v1,2023.2.2,Win32,84.74576271,,,,,,,,,,,,,,,,158.5522,159.8464,159.8464,165.9524,return,1.8697,,35.80729167,0,16,16,15,1,FBP-YG-17.png,0.35,1.2,16,0.5,,,,,,,,,,,,,,,,,,,,,,,,,,,,,,,,,,,,,,,,,,,,,
,,,,,V1_003,18,female,2024-04-29_10h09.51.465,jersey_experiment_5_v1,2023.2.2,Win32,84.74576271,,,,,,,,,,,,,,,,165.9525,167.2465,167.2466,170.1762,return,0.659,,99.609375,0,17,17,34,1,FBP-OG-17.png,0.45,1.2,35,0.5,,,,,,,,,,,,,,,,,,,,,,,,,,,,,,,,,,,,,,,,,,,,,
,,,,,V1_003,18,female,2024-04-29_10h09.51.465,jersey_experiment_5_v1,2023.2.2,Win32,84.74576271,,,,,,,,,,,,,,,,170.1763,171.9762,171.9762,174.4117,return,0.592,,59.765625,0,18,18,11,1,FBP-PT-91.png,0.37,1.2,12,1,,,,,,,,,,,,,,,,,,,,,,,,,,,,,,,,,,,,,,,,,,,,,
,,,,,V1_003,18,female,2024-04-29_10h09.51.465,jersey_experiment_5_v1,2023.2.2,Win32,84.74576271,,,,,,,,,,,,,,,,174.4118,175.7056,175.7056,178.3175,return,0.6262,,54.296875,0,19,19,45,1,FBP-RB-71.png,0.35,1.2,46,0.5,,,,,,,,,,,,,,,,,,,,,,,,,,,,,,,,,,,,,,,,,,,,,
,,,,,V1_003,18,female,2024-04-29_10h09.51.465,jersey_experiment_5_v1,2023.2.2,Win32,84.74576271,,,,,,,,,,,,,,,,178.3176,179.6118,179.6118,182.0472,return,0.6946,,54.81770833,0,20,20,51,1,FBP-RB-81.png,0.37,1.2,52,0.5,,,,,,,,,,,,,,,,,,,,,,,,,,,,,,,,,,,,,,,,,,,,,
,,,,,V1_003,18,female,2024-04-29_10h09.51.465,jersey_experiment_5_v1,2023.2.2,Win32,84.74576271,,,,,,,,,,,,,,,,182.0473,183.851,183.851,186.0474,return,0.5886,,98.046875,0,21,21,8,1,FBP-PT-81.png,0.43,1.2,9,1,,,,,,,,,,,,,,,,,,,,,,,,,,,,,,,,,,,,,,,,,,,,,
,,,,,V1_003,18,female,2024-04-29_10h09.51.465,jersey_experiment_5_v1,2023.2.2,Win32,84.74576271,,,,,,,,,,,,,,,,186.0476,187.3414,187.3414,189.8517,return,0.6341,,99.08854167,0,22,22,38,1,FBP-OG-18.png,0.43,1.2,39,0.5,,,,,,,,,,,,,,,,,,,,,,,,,,,,,,,,,,,,,,,,,,,,,
,,,,,V1_003,18,female,2024-04-29_10h09.51.465,jersey_experiment_5_v1,2023.2.2,Win32,84.74576271,,,,,,,,,,,,,,,,189.8519,191.1452,191.1453,195.2124,return,0.7943,,99.47916667,0,23,23,24,1,FBP-YG-18.png,0.45,1.2,25,0.5,,,,,,,,,,,,,,,,,,,,,,,,,,,,,,,,,,,,,,,,,,,,,
,,,,,V1_003,18,female,2024-04-29_10h09.51.465,jersey_experiment_5_v1,2023.2.2,Win32,84.74576271,,,,,,,,,,,,,,,,195.2126,196.5065,196.5065,198.6977,return,0.7413,,99.47916667,0,24,24,39,1,FBP-OG-18.png,0.45,1.2,40,0.5,,,,,,,,,,,,,,,,,,,,,,,,,,,,,,,,,,,,,,,,,,,,,
,,,,,V1_003,18,female,2024-04-29_10h09.51.465,jersey_experiment_5_v1,2023.2.2,Win32,84.74576271,,,,,,,,,,,,,,,,198.6978,200.0007,200.0008,202.4596,return,0.7559,,99.47916667,0,25,25,47,1,FBP-RB-71.png,0.4,1.2,48,0.5,,,,,,,,,,,,,,,,,,,,,,,,,,,,,,,,,,,,,,,,,,,,,
,,,,,V1_003,18,female,2024-04-29_10h09.51.465,jersey_experiment_5_v1,2023.2.2,Win32,84.74576271,,,,,,,,,,,,,,,,202.4598,203.7539,203.7539,206.4168,return,0.7533,,99.34895833,0,26,26,59,1,FBP-RB-91.png,0.45,1.2,60,0.5,,,,,,,,,,,,,,,,,,,,,,,,,,,,,,,,,,,,,,,,,,,,,
,,,,,V1_003,18,female,2024-04-29_10h09.51.465,jersey_experiment_5_v1,2023.2.2,Win32,84.74576271,,,,,,,,,,,,,,,,206.417,207.7188,207.7188,210.5095,return,0.6208,,41.015625,0,27,27,25,1,FBP-YG-19.png,0.35,1.2,26,0.5,,,,,,,,,,,,,,,,,,,,,,,,,,,,,,,,,,,,,,,,,,,,,
,,,,,V1_003,18,female,2024-04-29_10h09.51.465,jersey_experiment_5_v1,2023.2.2,Win32,84.74576271,,,,,,,,,,,,,,,,210.5097,211.8012,211.8012,217.336,return,3.1543,,92.70833333,0,28,28,33,1,FBP-OG-17.png,0.43,1.2,34,0.5,,,,,,,,,,,,,,,,,,,,,,,,,,,,,,,,,,,,,,,,,,,,,
,,,,,V1_003,18,female,2024-04-29_10h09.51.465,jersey_experiment_5_v1,2023.2.2,Win32,84.74576271,,,,,,,,,,,,,,,,217.3362,218.6368,218.6368,224.4959,return,0.8478,,52.60416667,0,29,29,41,1,FBP-OG-19.png,0.37,1.2,42,0.5,,,,,,,,,,,,,,,,,,,,,,,,,,,,,,,,,,,,,,,,,,,,,
,,,,,V1_003,18,female,2024-04-29_10h09.51.465,jersey_experiment_5_v1,2023.2.2,Win32,84.74576271,,,,,,,,,,,,,,,,224.496,226.2959,226.2959,227.9783,return,0.5113,,54.03645833,0,30,30,1,1,FBP-PT-71.png,0.37,1.2,2,1,,,,,,,,,,,,,,,,,,,,,,,,,,,,,,,,,,,,,,,,,,,,,
,,,,,V1_003,18,female,2024-04-29_10h09.51.465,jersey_experiment_5_v1,2023.2.2,Win32,84.74576271,,,,,,,,,,,,,,,,227.9785,229.2725,229.2726,232.0609,return,0.6497,,56.51041667,0,31,31,26,1,FBP-YG-19.png,0.37,1.2,27,0.5,,,,,,,,,,,,,,,,,,,,,,,,,,,,,,,,,,,,,,,,,,,,,
,,,,,V1_003,18,female,2024-04-29_10h09.51.465,jersey_experiment_5_v1,2023.2.2,Win32,84.74576271,,,,,,,,,,,,,,,,232.061,233.8646,233.8646,236.461,return,0.591,,51.30208333,0,32,32,5,1,FBP-PT-81.png,0.35,1.2,6,1,,,,,,,,,,,,,,,,,,,,,,,,,,,,,,,,,,,,,,,,,,,,,
,,,,,V1_003,18,female,2024-04-29_10h09.51.465,jersey_experiment_5_v1,2023.2.2,Win32,84.74576271,,,,,,,,,,,,,,,,236.4611,237.7552,237.7552,239.8875,return,0.5871,,51.04166667,0,33,33,55,1,FBP-RB-91.png,0.35,1.2,56,0.5,,,,,,,,,,,,,,,,,,,,,,,,,,,,,,,,,,,,,,,,,,,,,
,,,,,V1_003,18,female,2024-04-29_10h09.51.465,jersey_experiment_5_v1,2023.2.2,Win32,84.74576271,,,,,,,,,,,,,,,,239.8877,241.1945,241.1945,243.7359,return,0.6358,,73.046875,0,34,34,37,1,FBP-OG-18.png,0.4,1.2,38,0.5,,,,,,,,,,,,,,,,,,,,,,,,,,,,,,,,,,,,,,,,,,,,,
,,,,,V1_003,18,female,2024-04-29_10h09.51.465,jersey_experiment_5_v1,2023.2.2,Win32,84.74576271,,,,,,,,,,,,,,,,243.7361,245.5319,245.5319,247.7086,return,0.7562,,98.95833333,0,35,35,13,1,FBP-PT-91.png,0.43,1.2,14,1,,,,,,,,,,,,,,,,,,,,,,,,,,,,,,,,,,,,,,,,,,,,,
,,,,,V1_003,18,female,2024-04-29_10h09.51.465,jersey_experiment_5_v1,2023.2.2,Win32,84.74576271,,,,,,,,,,,,,,,,247.7088,249.0026,249.0026,250.983,return,0.5542,,98.95833333,0,36,36,43,1,FBP-OG-19.png,0.43,1.2,44,0.5,,,,,,,,,,,,,,,,,,,,,,,,,,,,,,,,,,,,,,,,,,,,,
,,,,,V1_003,18,female,2024-04-29_10h09.51.465,jersey_experiment_5_v1,2023.2.2,Win32,84.74576271,,,,,,,,,,,,,,,,250.9831,252.2851,252.2851,255.0657,return,0.6016,,58.07291667,0,37,37,21,1,FBP-YG-18.png,0.37,1.2,22,0.5,,,,,,,,,,,,,,,,,,,,,,,,,,,,,,,,,,,,,,,,,,,,,
,,,,,V1_003,18,female,2024-04-29_10h09.51.465,jersey_experiment_5_v1,2023.2.2,Win32,84.74576271,,,,,,,,,,,,,,,,255.0659,256.3676,256.3676,259.0893,return,0.5631,,83.59375,0,38,38,32,1,FBP-OG-17.png,0.4,1.2,33,0.5,,,,,,,,,,,,,,,,,,,,,,,,,,,,,,,,,,,,,,,,,,,,,
,,,,,V1_003,18,female,2024-04-29_10h09.51.465,jersey_experiment_5_v1,2023.2.2,Win32,84.74576271,,,,,,,,,,,,,,,,259.0895,260.3913,260.3913,264.0032,return,0.5531,,99.47916667,0,39,39,23,1,FBP-YG-18.png,0.43,1.2,24,0.5,,,,,,,,,,,,,,,,,,,,,,,,,,,,,,,,,,,,,,,,,,,,,
,,,,,V1_003,18,female,2024-04-29_10h09.51.465,jersey_experiment_5_v1,2023.2.2,Win32,84.74576271,,,,,,,,,,,,,,,,264.0033,265.3016,265.3016,268.6444,return,1.1902,,99.73958333,0,40,40,48,1,FBP-RB-71.png,0.43,1.2,49,0.5,,,,,,,,,,,,,,,,,,,,,,,,,,,,,,,,,,,,,,,,,,,,,
,,,,,V1_003,18,female,2024-04-29_10h09.51.465,jersey_experiment_5_v1,2023.2.2,Win32,84.74576271,,,,,,,,,,,,,,,,268.6445,270.4425,270.4425,272.1132,return,0.6119,,99.609375,0,41,41,4,1,FBP-PT-71.png,0.45,1.2,5,1,,,,,,,,,,,,,,,,,,,,,,,,,,,,,,,,,,,,,,,,,,,,,
,,,,,V1_003,18,female,2024-04-29_10h09.51.465,jersey_experiment_5_v1,2023.2.2,Win32,84.74576271,,,,,,,,,,,,,,,,272.1133,273.9094,273.9094,276.6977,return,0.4782,,74.73958333,0,42,42,7,1,FBP-PT-81.png,0.4,1.2,8,1,,,,,,,,,,,,,,,,,,,,,,,,,,,,,,,,,,,,,,,,,,,,,
,,,,,V1_003,18,female,2024-04-29_10h09.51.465,jersey_experiment_5_v1,2023.2.2,Win32,84.74576271,,,,,,,,,,,,,,,,276.6978,278.4979,278.498,282.0549,return,0.5772,,49.73958333,0,43,43,0,1,FBP-PT-71.png,0.35,1.2,1,1,,,,,,,,,,,,,,,,,,,,,,,,,,,,,,,,,,,,,,,,,,,,,
,,,,,V1_003,18,female,2024-04-29_10h09.51.465,jersey_experiment_5_v1,2023.2.2,Win32,84.74576271,,,,,,,,,,,,,,,,282.055,283.3607,283.3607,285.5921,return,0.5499,,43.09895833,0,44,44,40,1,FBP-OG-19.png,0.35,1.2,41,0.5,,,,,,,,,,,,,,,,,,,,,,,,,,,,,,,,,,,,,,,,,,,,,
,,,,,V1_003,18,female,2024-04-29_10h09.51.465,jersey_experiment_5_v1,2023.2.2,Win32,84.74576271,,,,,,,,,,,,,,,,285.5923,286.8865,286.8865,289.7572,return,0.4732,,71.875,0,45,45,42,1,FBP-OG-19.png,0.4,1.2,43,0.5,,,,,,,,,,,,,,,,,,,,,,,,,,,,,,,,,,,,,,,,,,,,,
,,,,,V1_003,18,female,2024-04-29_10h09.51.465,jersey_experiment_5_v1,2023.2.2,Win32,84.74576271,,,,,,,,,,,,,,,,289.7574,291.0514,291.0514,293.2673,return,0.5413,,87.76041667,0,46,46,53,1,FBP-RB-81.png,0.43,1.2,54,0.5,,,,,,,,,,,,,,,,,,,,,,,,,,,,,,,,,,,,,,,,,,,,,
,,,,,V1_003,18,female,2024-04-29_10h09.51.465,jersey_experiment_5_v1,2023.2.2,Win32,84.74576271,,,,,,,,,,,,,,,,293.2675,295.0668,295.0668,297.1834,return,0.5531,,85.15625,0,47,47,12,1,FBP-PT-91.png,0.4,1.2,13,1,,,,,,,,,,,,,,,,,,,,,,,,,,,,,,,,,,,,,,,,,,,,,
,,,,,V1_003,18,female,2024-04-29_10h09.51.465,jersey_experiment_5_v1,2023.2.2,Win32,84.74576271,,,,,,,,,,,,,,,,297.1835,298.4752,298.4752,300.5243,return,0.4804,,86.58854167,0,48,48,17,1,FBP-YG-17.png,0.4,1.2,18,0.5,,,,,,,,,,,,,,,,,,,,,,,,,,,,,,,,,,,,,,,,,,,,,
,,,,,V1_003,18,female,2024-04-29_10h09.51.465,jersey_experiment_5_v1,2023.2.2,Win32,84.74576271,,,,,,,,,,,,,,,,300.5245,301.8164,301.8164,303.9501,return,0.5193,,86.58854167,0,49,49,31,1,FBP-OG-17.png,0.37,1.2,32,0.5,,,,,,,,,,,,,,,,,,,,,,,,,,,,,,,,,,,,,,,,,,,,,
,,,,,V1_003,18,female,2024-04-29_10h09.51.465,jersey_experiment_5_v1,2023.2.2,Win32,84.74576271,,,,,,,,,,,,,,,,303.9503,305.7459,305.746,307.5834,return,0.5751,,94.53125,0,50,50,9,1,FBP-PT-81.png,0.45,1.2,10,1,,,,,,,,,,,,,,,,,,,,,,,,,,,,,,,,,,,,,,,,,,,,,
,,,,,V1_003,18,female,2024-04-29_10h09.51.465,jersey_experiment_5_v1,2023.2.2,Win32,84.74576271,,,,,,,,,,,,,,,,307.5836,308.8755,308.8755,311.4402,return,0.7548,,99.34895833,0,51,51,18,1,FBP-YG-17.png,0.43,1.2,19,0.5,,,,,,,,,,,,,,,,,,,,,,,,,,,,,,,,,,,,,,,,,,,,,
,,,,,V1_003,18,female,2024-04-29_10h09.51.465,jersey_experiment_5_v1,2023.2.2,Win32,84.74576271,,,,,,,,,,,,,,,,311.4404,312.7345,312.7346,314.9934,return,0.6238,,99.34895833,0,52,52,58,1,FBP-RB-91.png,0.43,1.2,59,0.5,,,,,,,,,,,,,,,,,,,,,,,,,,,,,,,,,,,,,,,,,,,,,
,,,,,V1_003,18,female,2024-04-29_10h09.51.465,jersey_experiment_5_v1,2023.2.2,Win32,84.74576271,,,,,,,,,,,,,,,,314.9936,316.2876,316.2876,318.57,return,0.4896,,74.34895833,0,53,53,56,1,FBP-RB-91.png,0.37,1.2,57,0.5,,,,,,,,,,,,,,,,,,,,,,,,,,,,,,,,,,,,,,,,,,,,,
,,,,,V1_003,18,female,2024-04-29_10h09.51.465,jersey_experiment_5_v1,2023.2.2,Win32,84.74576271,,,,,,,,,,,,,,,,318.5701,319.8668,319.8668,321.8877,return,0.6254,,74.34895833,0,54,54,57,1,FBP-RB-91.png,0.4,1.2,58,0.5,,,,,,,,,,,,,,,,,,,,,,,,,,,,,,,,,,,,,,,,,,,,,
,,,,,V1_003,18,female,2024-04-29_10h09.51.465,jersey_experiment_5_v1,2023.2.2,Win32,84.74576271,,,,,,,,,,,,,,,,321.8879,323.1819,323.1819,325.3114,return,0.4946,,98.69791667,0,55,55,54,1,FBP-RB-81.png,0.45,1.2,55,0.5,,,,,,,,,,,,,,,,,,,,,,,,,,,,,,,,,,,,,,,,,,,,,
,,,,,V1_003,18,female,2024-04-29_10h09.51.465,jersey_experiment_5_v1,2023.2.2,Win32,84.74576271,,,,,,,,,,,,,,,,325.3116,326.6095,326.6096,329.1353,return,0.7297,,87.109375,0,56,56,27,1,FBP-YG-19.png,0.4,1.2,28,0.5,,,,,,,,,,,,,,,,,,,,,,,,,,,,,,,,,,,,,,,,,,,,,
,,,,,V1_003,18,female,2024-04-29_10h09.51.465,jersey_experiment_5_v1,2023.2.2,Win32,84.74576271,,,,,,,,,,,,,,,,329.1354,330.4291,330.4291,335.2294,return,2.0391,,50,0,57,57,20,1,FBP-YG-18.png,0.35,1.2,21,0.5,,,,,,,,,,,,,,,,,,,,,,,,,,,,,,,,,,,,,,,,,,,,,
,,,,,V1_003,18,female,2024-04-29_10h09.51.465,jersey_experiment_5_v1,2023.2.2,Win32,84.74576271,,,,,,,,,,,,,,,,335.2295,336.5236,336.5236,339.5943,return,0.5599,,74.609375,0,58,58,46,1,FBP-RB-71.png,0.37,1.2,47,0.5,,,,,,,,,,,,,,,,,,,,,,,,,,,,,,,,,,,,,,,,,,,,,
,,,,,V1_003,18,female,2024-04-29_10h09.51.465,jersey_experiment_5_v1,2023.2.2,Win32,84.74576271,,,,,,,,,,,,,,,,339.5945,340.8883,340.8884,343.2768,return,0.6381,,25.91145833,0,59,59,30,1,FBP-OG-17.png,0.35,1.2,31,0.5,,,,,,,,,,,,,,,,,,,,,,,,,,,,,,,,,,,,,,,,,,,,,
,,,,,V1_003,18,female,2024-04-29_10h09.51.465,jersey_experiment_5_v1,2023.2.2,Win32,84.74576271,,,,,,,,,,,,,,,,343.2787,344.571,344.571,347.8486,return,0.7332,,36.58854167,,,,,,FBP-YG-71.png,0.35,1.2,16,0.5,0,0,0,15,1,,,,,,,,,,,,,,,,,,,,,,,,,,,,,,,,,,,,,,,,
,,,,,V1_003,18,female,2024-04-29_10h09.51.465,jersey_experiment_5_v1,2023.2.2,Win32,84.74576271,,,,,,,,,,,,,,,,347.8488,349.1476,349.1477,352.4419,return,0.4746,,63.41145833,,,,,,FBP-RB-18.png,0.4,1.2,53,0.5,0,1,1,52,1,,,,,,,,,,,,,,,,,,,,,,,,,,,,,,,,,,,,,,,,
,,,,,V1_003,18,female,2024-04-29_10h09.51.465,jersey_experiment_5_v1,2023.2.2,Win32,84.74576271,,,,,,,,,,,,,,,,352.4422,354.242,354.242,356.1048,return,0.5649,,85.546875,,,,,,FBP-PT-19.png,0.43,1.2,14,1,0,2,2,13,1,,,,,,,,,,,,,,,,,,,,,,,,,,,,,,,,,,,,,,,,
,,,,,V1_003,18,female,2024-04-29_10h09.51.465,jersey_experiment_5_v1,2023.2.2,Win32,84.74576271,,,,,,,,,,,,,,,,356.105,357.9075,357.9075,359.7597,return,0.5646,,74.86979167,,,,,,FBP-PT-19.png,0.37,1.2,12,1,0,3,3,11,1,,,,,,,,,,,,,,,,,,,,,,,,,,,,,,,,,,,,,,,,
,,,,,V1_003,18,female,2024-04-29_10h09.51.465,jersey_experiment_5_v1,2023.2.2,Win32,84.74576271,,,,,,,,,,,,,,,,359.7599,361.0577,361.0577,363.6894,return,0.5018,,74.86979167,,,,,,FBP-OG-71.png,0.35,1.2,31,0.5,0,4,4,30,1,,,,,,,,,,,,,,,,,,,,,,,,,,,,,,,,,,,,,,,,
,,,,,V1_003,18,female,2024-04-29_10h09.51.465,jersey_experiment_5_v1,2023.2.2,Win32,84.74576271,,,,,,,,,,,,,,,,363.6895,365.4894,365.4894,367.2424,return,0.5568,,99.609375,,,,,,FBP-PT-18.png,0.45,1.2,10,1,0,5,5,9,1,,,,,,,,,,,,,,,,,,,,,,,,,,,,,,,,,,,,,,,,
,,,,,V1_003,18,female,2024-04-29_10h09.51.465,jersey_experiment_5_v1,2023.2.2,Win32,84.74576271,,,,,,,,,,,,,,,,367.2426,368.5406,368.5406,370.8896,return,0.5491,,74.21875,,,,,,FBP-RB-19.png,0.4,1.2,58,0.5,0,6,6,57,1,,,,,,,,,,,,,,,,,,,,,,,,,,,,,,,,,,,,,,,,
,,,,,V1_003,18,female,2024-04-29_10h09.51.465,jersey_experiment_5_v1,2023.2.2,Win32,84.74576271,,,,,,,,,,,,,,,,370.8897,372.1875,372.1875,374.4427,return,0.5241,,24.47916667,,,,,,FBP-RB-18.png,0.35,1.2,51,0.5,0,7,7,50,1,,,,,,,,,,,,,,,,,,,,,,,,,,,,,,,,,,,,,,,,
,,,,,V1_003,18,female,2024-04-29_10h09.51.465,jersey_experiment_5_v1,2023.2.2,Win32,84.74576271,,,,,,,,,,,,,,,,374.4429,375.7369,375.737,378.2233,return,0.5863,,89.58333333,,,,,,FBP-RB-18.png,0.45,1.2,55,0.5,0,8,8,54,1,,,,,,,,,,,,,,,,,,,,,,,,,,,,,,,,,,,,,,,,
,,,,,V1_003,18,female,2024-04-29_10h09.51.465,jersey_experiment_5_v1,2023.2.2,Win32,84.74576271,,,,,,,,,,,,,,,,378.2235,379.5293,379.5293,381.5135,return,0.5475,,49.34895833,,,,,,FBP-RB-19.png,0.35,1.2,56,0.5,0,9,9,55,1,,,,,,,,,,,,,,,,,,,,,,,,,,,,,,,,,,,,,,,,
,,,,,V1_003,18,female,2024-04-29_10h09.51.465,jersey_experiment_5_v1,2023.2.2,Win32,84.74576271,,,,,,,,,,,,,,,,381.5137,382.8078,382.8078,389.6315,return,0.5191,,60.9375,,,,,,FBP-OG-81.png,0.35,1.2,36,0.5,0,10,10,35,1,,,,,,,,,,,,,,,,,,,,,,,,,,,,,,,,,,,,,,,,
,,,,,V1_003,18,female,2024-04-29_10h09.51.465,jersey_experiment_5_v1,2023.2.2,Win32,84.74576271,,,,,,,,,,,,,,,,389.6318,391.4353,391.4353,392.9376,return,0.5115,,85.9375,,,,,,FBP-PT-18.png,0.43,1.2,9,1,0,11,11,8,1,,,,,,,,,,,,,,,,,,,,,,,,,,,,,,,,,,,,,,,,
,,,,,V1_003,18,female,2024-04-29_10h09.51.465,jersey_experiment_5_v1,2023.2.2,Win32,84.74576271,,,,,,,,,,,,,,,,392.9378,394.2317,394.2317,397.1283,return,0.5513,,99.609375,,,,,,FBP-OG-81.png,0.45,1.2,40,0.5,0,12,12,39,1,,,,,,,,,,,,,,,,,,,,,,,,,,,,,,,,,,,,,,,,
,,,,,V1_003,18,female,2024-04-29_10h09.51.465,jersey_experiment_5_v1,2023.2.2,Win32,84.74576271,,,,,,,,,,,,,,,,397.1285,398.9259,398.9259,407.5146,return,6.4776,,74.86979167,,,,,,FBP-PT-17.png,0.4,1.2,3,1,0,13,13,2,1,,,,,,,,,,,,,,,,,,,,,,,,,,,,,,,,,,,,,,,,
,,,,,V1_003,18,female,2024-04-29_10h09.51.465,jersey_experiment_5_v1,2023.2.2,Win32,84.74576271,,,,,,,,,,,,,,,,407.5189,408.8224,408.8224,414.3972,return,3.9791,,75.91145833,,,,,,FBP-RB-18.png,0.37,1.2,52,0.5,0,14,14,51,1,,,,,,,,,,,,,,,,,,,,,,,,,,,,,,,,,,,,,,,,
,,,,,V1_003,18,female,2024-04-29_10h09.51.465,jersey_experiment_5_v1,2023.2.2,Win32,84.74576271,,,,,,,,,,,,,,,,414.4014,416.1973,416.1973,418.2955,return,0.8117,,89.32291667,,,,,,FBP-PT-17.png,0.45,1.2,5,1,0,15,15,4,1,,,,,,,,,,,,,,,,,,,,,,,,,,,,,,,,,,,,,,,,
,,,,,V1_003,18,female,2024-04-29_10h09.51.465,jersey_experiment_5_v1,2023.2.2,Win32,84.74576271,,,,,,,,,,,,,,,,418.2956,420.0915,420.0915,421.3766,return,0.5523,,85.15625,,,,,,FBP-PT-17.png,0.43,1.2,4,1,0,16,16,3,1,,,,,,,,,,,,,,,,,,,,,,,,,,,,,,,,,,,,,,,,
,,,,,V1_003,18,female,2024-04-29_10h09.51.465,jersey_experiment_5_v1,2023.2.2,Win32,84.74576271,,,,,,,,,,,,,,,,421.3767,422.668,422.668,424.621,return,0.5648,,99.34895833,,,,,,FBP-OG-71.png,0.43,1.2,34,0.5,0,17,17,33,1,,,,,,,,,,,,,,,,,,,,,,,,,,,,,,,,,,,,,,,,
,,,,,V1_003,18,female,2024-04-29_10h09.51.465,jersey_experiment_5_v1,2023.2.2,Win32,84.74576271,,,,,,,,,,,,,,,,424.6212,425.9152,425.9152,431.786,return,1.7218,,74.34895833,,,,,,FBP-OG-91.png,0.35,1.2,41,0.5,0,18,18,40,1,,,,,,,,,,,,,,,,,,,,,,,,,,,,,,,,,,,,,,,,
,,,,,V1_003,18,female,2024-04-29_10h09.51.465,jersey_experiment_5_v1,2023.2.2,Win32,84.74576271,,,,,,,,,,,,,,,,431.7862,433.0855,433.0855,434.449,return,0.5768,,75.52083333,,,,,,FBP-OG-91.png,0.4,1.2,43,0.5,0,19,19,42,1,,,,,,,,,,,,,,,,,,,,,,,,,,,,,,,,,,,,,,,,
,,,,,V1_003,18,female,2024-04-29_10h09.51.465,jersey_experiment_5_v1,2023.2.2,Win32,84.74576271,,,,,,,,,,,,,,,,434.4492,435.7546,435.7546,438.0503,return,0.6015,,50.390625,,,,,,FBP-OG-71.png,0.37,1.2,32,0.5,0,20,20,31,1,,,,,,,,,,,,,,,,,,,,,,,,,,,,,,,,,,,,,,,,
,,,,,V1_003,18,female,2024-04-29_10h09.51.465,jersey_experiment_5_v1,2023.2.2,Win32,84.74576271,,,,,,,,,,,,,,,,438.0504,439.3546,439.3546,441.4688,return,0.7424,,61.45833333,,,,,,FBP-OG-81.png,0.37,1.2,37,0.5,0,21,21,36,1,,,,,,,,,,,,,,,,,,,,,,,,,,,,,,,,,,,,,,,,
,,,,,V1_003,18,female,2024-04-29_10h09.51.465,jersey_experiment_5_v1,2023.2.2,Win32,84.74576271,,,,,,,,,,,,,,,,441.469,442.7667,442.7667,445.073,return,0.6255,,75.26041667,,,,,,FBP-YG-91.png,0.37,1.2,27,0.5,0,22,22,26,1,,,,,,,,,,,,,,,,,,,,,,,,,,,,,,,,,,,,,,,,
,,,,,V1_003,18,female,2024-04-29_10h09.51.465,jersey_experiment_5_v1,2023.2.2,Win32,84.74576271,,,,,,,,,,,,,,,,445.0731,446.3785,446.3785,448.2022,return,0.6349,,88.93229167,,,,,,FBP-OG-91.png,0.43,1.2,44,0.5,0,23,23,43,1,,,,,,,,,,,,,,,,,,,,,,,,,,,,,,,,,,,,,,,,
,,,,,V1_003,18,female,2024-04-29_10h09.51.465,jersey_experiment_5_v1,2023.2.2,Win32,84.74576271,,,,,,,,,,,,,,,,448.2023,449.5081,449.5081,451.2574,return,0.5333,,74.73958333,,,,,,FBP-OG-91.png,0.37,1.2,42,0.5,0,24,24,41,1,,,,,,,,,,,,,,,,,,,,,,,,,,,,,,,,,,,,,,,,
,,,,,V1_003,18,female,2024-04-29_10h09.51.465,jersey_experiment_5_v1,2023.2.2,Win32,84.74576271,,,,,,,,,,,,,,,,451.2576,453.0575,453.0575,455.026,return,0.6824,,50,,,,,,FBP-PT-17.png,0.37,1.2,2,1,0,25,25,1,1,,,,,,,,,,,,,,,,,,,,,,,,,,,,,,,,,,,,,,,,
,,,,,V1_003,18,female,2024-04-29_10h09.51.465,jersey_experiment_5_v1,2023.2.2,Win32,84.74576271,,,,,,,,,,,,,,,,455.0262,456.328,456.328,457.8812,return,0.5951,,87.36979167,,,,,,FBP-RB-19.png,0.45,1.2,60,0.5,0,26,26,59,1,,,,,,,,,,,,,,,,,,,,,,,,,,,,,,,,,,,,,,,,
,,,,,V1_003,18,female,2024-04-29_10h09.51.465,jersey_experiment_5_v1,2023.2.2,Win32,84.74576271,,,,,,,,,,,,,,,,457.8814,459.1753,459.1754,460.7907,return,0.6591,,75.390625,,,,,,FBP-RB-17.png,0.4,1.2,48,0.5,0,27,27,47,1,,,,,,,,,,,,,,,,,,,,,,,,,,,,,,,,,,,,,,,,
,,,,,V1_003,18,female,2024-04-29_10h09.51.465,jersey_experiment_5_v1,2023.2.2,Win32,84.74576271,,,,,,,,,,,,,,,,460.7909,462.0956,462.0956,465.4697,return,2.5553,,63.02083333,,,,,,FBP-YG-81.png,0.35,1.2,21,0.5,0,28,28,20,1,,,,,,,,,,,,,,,,,,,,,,,,,,,,,,,,,,,,,,,,
,,,,,V1_003,18,female,2024-04-29_10h09.51.465,jersey_experiment_5_v1,2023.2.2,Win32,84.74576271,,,,,,,,,,,,,,,,465.4698,466.7679,466.7679,473.0345,return,0.5482,,49.86979167,,,,,,FBP-YG-71.png,0.4,1.2,18,0.5,0,29,29,17,1,,,,,,,,,,,,,,,,,,,,,,,,,,,,,,,,,,,,,,,,
,,,,,V1_003,18,female,2024-04-29_10h09.51.465,jersey_experiment_5_v1,2023.2.2,Win32,84.74576271,,,,,,,,,,,,,,,,473.0348,474.3287,474.3288,478.7447,return,0.494,,71.61458333,,,,,,FBP-OG-81.png,0.4,1.2,38,0.5,0,30,30,37,1,,,,,,,,,,,,,,,,,,,,,,,,,,,,,,,,,,,,,,,,
,,,,,V1_003,18,female,2024-04-29_10h09.51.465,jersey_experiment_5_v1,2023.2.2,Win32,84.74576271,,,,,,,,,,,,,,,,478.7448,480.0504,480.0504,481.6467,return,0.555,,82.94270833,,,,,,FBP-RB-17.png,0.43,1.2,49,0.5,0,31,31,48,1,,,,,,,,,,,,,,,,,,,,,,,,,,,,,,,,,,,,,,,,
,,,,,V1_003,18,female,2024-04-29_10h09.51.465,jersey_experiment_5_v1,2023.2.2,Win32,84.74576271,,,,,,,,,,,,,,,,481.647,483.4468,483.4468,485.0629,return,0.5297,,85.02604167,,,,,,FBP-PT-19.png,0.4,1.2,13,1,0,32,32,12,1,,,,,,,,,,,,,,,,,,,,,,,,,,,,,,,,,,,,,,,,
,,,,,V1_003,18,female,2024-04-29_10h09.51.465,jersey_experiment_5_v1,2023.2.2,Win32,84.74576271,,,,,,,,,,,,,,,,485.063,486.3646,486.3646,488.7438,return,0.705,,82.68229167,,,,,,FBP-YG-81.png,0.37,1.2,22,0.5,0,33,33,21,1,,,,,,,,,,,,,,,,,,,,,,,,,,,,,,,,,,,,,,,,
,,,,,V1_003,18,female,2024-04-29_10h09.51.465,jersey_experiment_5_v1,2023.2.2,Win32,84.74576271,,,,,,,,,,,,,,,,488.744,490.0353,490.0353,491.6967,return,0.647,,93.09895833,,,,,,FBP-RB-18.png,0.43,1.2,54,0.5,0,34,34,53,1,,,,,,,,,,,,,,,,,,,,,,,,,,,,,,,,,,,,,,,,
,,,,,V1_003,18,female,2024-04-29_10h09.51.465,jersey_experiment_5_v1,2023.2.2,Win32,84.74576271,,,,,,,,,,,,,,,,491.697,493.4906,493.4906,494.9807,return,0.5899,,66.40625,,,,,,FBP-PT-18.png,0.37,1.2,7,1,0,35,35,6,1,,,,,,,,,,,,,,,,,,,,,,,,,,,,,,,,,,,,,,,,
,,,,,V1_003,18,female,2024-04-29_10h09.51.465,jersey_experiment_5_v1,2023.2.2,Win32,84.74576271,,,,,,,,,,,,,,,,494.9809,496.2731,496.2731,499.4752,return,2.4017,,70.83333333,,,,,,FBP-YG-91.png,0.4,1.2,28,0.5,0,36,36,27,1,,,,,,,,,,,,,,,,,,,,,,,,,,,,,,,,,,,,,,,,
,,,,,V1_003,18,female,2024-04-29_10h09.51.465,jersey_experiment_5_v1,2023.2.2,Win32,84.74576271,,,,,,,,,,,,,,,,499.4753,500.7688,500.7688,502.1691,return,0.5278,,78.64583333,,,,,,FBP-RB-19.png,0.43,1.2,59,0.5,0,37,37,58,1,,,,,,,,,,,,,,,,,,,,,,,,,,,,,,,,,,,,,,,,
,,,,,V1_003,18,female,2024-04-29_10h09.51.465,jersey_experiment_5_v1,2023.2.2,Win32,84.74576271,,,,,,,,,,,,,,,,502.1693,503.4711,503.4711,506.424,return,2.1269,,90.234375,,,,,,FBP-OG-91.png,0.45,1.2,45,0.5,0,38,38,44,1,,,,,,,,,,,,,,,,,,,,,,,,,,,,,,,,,,,,,,,,
,,,,,V1_003,18,female,2024-04-29_10h09.51.465,jersey_experiment_5_v1,2023.2.2,Win32,84.74576271,,,,,,,,,,,,,,,,506.4241,507.7182,507.7183,511.2243,return,1.4192,,97.78645833,,,,,,FBP-YG-81.png,0.43,1.2,24,0.5,0,39,39,23,1,,,,,,,,,,,,,,,,,,,,,,,,,,,,,,,,,,,,,,,,
,,,,,V1_003,18,female,2024-04-29_10h09.51.465,jersey_experiment_5_v1,2023.2.2,Win32,84.74576271,,,,,,,,,,,,,,,,511.2244,513.0174,513.0174,514.7774,return,0.5583,,99.47916667,,,,,,FBP-PT-19.png,0.45,1.2,15,1,0,40,40,14,1,,,,,,,,,,,,,,,,,,,,,,,,,,,,,,,,,,,,,,,,
,,,,,V1_003,18,female,2024-04-29_10h09.51.465,jersey_experiment_5_v1,2023.2.2,Win32,84.74576271,,,,,,,,,,,,,,,,514.7776,516.0715,516.0715,517.5657,return,0.555,,93.88020833,,,,,,FBP-YG-71.png,0.37,1.2,17,0.5,0,41,41,16,1,,,,,,,,,,,,,,,,,,,,,,,,,,,,,,,,,,,,,,,,
,,,,,V1_003,18,female,2024-04-29_10h09.51.465,jersey_experiment_5_v1,2023.2.2,Win32,84.74576271,,,,,,,,,,,,,,,,517.5658,518.8622,518.8622,520.366,return,0.6943,,90.625,,,,,,FBP-YG-81.png,0.4,1.2,23,0.5,0,42,42,22,1,,,,,,,,,,,,,,,,,,,,,,,,,,,,,,,,,,,,,,,,
,,,,,V1_003,18,female,2024-04-29_10h09.51.465,jersey_experiment_5_v1,2023.2.2,Win32,84.74576271,,,,,,,,,,,,,,,,520.3662,521.6601,521.6601,523.1189,return,0.5773,,95.703125,,,,,,FBP-OG-71.png,0.45,1.2,35,0.5,0,43,43,34,1,,,,,,,,,,,,,,,,,,,,,,,,,,,,,,,,,,,,,,,,
,,,,,V1_003,18,female,2024-04-29_10h09.51.465,jersey_experiment_5_v1,2023.2.2,Win32,84.74576271,,,,,,,,,,,,,,,,523.1191,524.9227,524.9227,528.8957,return,0.5781,,54.42708333,,,,,,FBP-PT-17.png,0.35,1.2,1,1,0,44,44,0,1,,,,,,,,,,,,,,,,,,,,,,,,,,,,,,,,,,,,,,,,
,,,,,V1_003,18,female,2024-04-29_10h09.51.465,jersey_experiment_5_v1,2023.2.2,Win32,84.74576271,,,,,,,,,,,,,,,,528.8959,530.1935,530.1935,532.4016,return,0.5405,,73.95833333,,,,,,FBP-YG-91.png,0.43,1.2,29,0.5,0,45,45,28,1,,,,,,,,,,,,,,,,,,,,,,,,,,,,,,,,,,,,,,,,
,,,,,V1_003,18,female,2024-04-29_10h09.51.465,jersey_experiment_5_v1,2023.2.2,Win32,84.74576271,,,,,,,,,,,,,,,,532.4018,533.6957,533.6957,535.5664,return,0.7543,,52.60416667,,,,,,FBP-YG-91.png,0.35,1.2,26,0.5,0,46,46,25,1,,,,,,,,,,,,,,,,,,,,,,,,,,,,,,,,,,,,,,,,
,,,,,V1_003,18,female,2024-04-29_10h09.51.465,jersey_experiment_5_v1,2023.2.2,Win32,84.74576271,,,,,,,,,,,,,,,,535.5667,536.8606,536.8606,539.0018,return,0.4549,,86.19791667,,,,,,FBP-YG-71.png,0.45,1.2,20,0.5,0,47,47,19,1,,,,,,,,,,,,,,,,,,,,,,,,,,,,,,,,,,,,,,,,
,,,,,V1_003,18,female,2024-04-29_10h09.51.465,jersey_experiment_5_v1,2023.2.2,Win32,84.74576271,,,,,,,,,,,,,,,,539.002,540.3011,540.3012,541.6725,return,0.5839,,86.19791667,,,,,,FBP-YG-81.png,0.45,1.2,25,0.5,0,48,48,24,1,,,,,,,,,,,,,,,,,,,,,,,,,,,,,,,,,,,,,,,,
,,,,,V1_003,18,female,2024-04-29_10h09.51.465,jersey_experiment_5_v1,2023.2.2,Win32,84.74576271,,,,,,,,,,,,,,,,541.6728,542.9667,542.9667,544.3707,return,0.5413,,94.40104167,,,,,,FBP-RB-17.png,0.45,1.2,50,0.5,0,49,49,49,1,,,,,,,,,,,,,,,,,,,,,,,,,,,,,,,,,,,,,,,,
,,,,,V1_003,18,female,2024-04-29_10h09.51.465,jersey_experiment_5_v1,2023.2.2,Win32,84.74576271,,,,,,,,,,,,,,,,544.3709,545.6726,545.6726,552.0965,return,2.4947,,73.69791667,,,,,,FBP-YG-91.png,0.45,1.2,30,0.5,0,50,50,29,1,,,,,,,,,,,,,,,,,,,,,,,,,,,,,,,,,,,,,,,,
,,,,,V1_003,18,female,2024-04-29_10h09.51.465,jersey_experiment_5_v1,2023.2.2,Win32,84.74576271,,,,,,,,,,,,,,,,552.0966,553.3905,553.3906,556.0967,return,1.6355,,71.22395833,,,,,,FBP-OG-71.png,0.4,1.2,33,0.5,0,51,51,32,1,,,,,,,,,,,,,,,,,,,,,,,,,,,,,,,,,,,,,,,,
,,,,,V1_003,18,female,2024-04-29_10h09.51.465,jersey_experiment_5_v1,2023.2.2,Win32,84.74576271,,,,,,,,,,,,,,,,556.0969,557.3907,557.3907,559.1362,return,0.5417,,65.234375,,,,,,FBP-OG-81.png,0.43,1.2,39,0.5,0,52,52,38,1,,,,,,,,,,,,,,,,,,,,,,,,,,,,,,,,,,,,,,,,
,,,,,V1_003,18,female,2024-04-29_10h09.51.465,jersey_experiment_5_v1,2023.2.2,Win32,84.74576271,,,,,,,,,,,,,,,,559.1364,560.4379,560.4379,562.2497,return,0.5709,,83.59375,,,,,,FBP-YG-71.png,0.43,1.2,19,0.5,0,53,53,18,1,,,,,,,,,,,,,,,,,,,,,,,,,,,,,,,,,,,,,,,,
,,,,,V1_003,18,female,2024-04-29_10h09.51.465,jersey_experiment_5_v1,2023.2.2,Win32,84.74576271,,,,,,,,,,,,,,,,562.25,563.544,563.544,565.654,return,0.5515,,52.86458333,,,,,,FBP-RB-17.png,0.37,1.2,47,0.5,0,54,54,46,1,,,,,,,,,,,,,,,,,,,,,,,,,,,,,,,,,,,,,,,,
,,,,,V1_003,18,female,2024-04-29_10h09.51.465,jersey_experiment_5_v1,2023.2.2,Win32,84.74576271,,,,,,,,,,,,,,,,565.6542,566.9559,566.9559,570.003,return,1.1887,,43.48958333,,,,,,FBP-RB-17.png,0.35,1.2,46,0.5,0,55,55,45,1,,,,,,,,,,,,,,,,,,,,,,,,,,,,,,,,,,,,,,,,
,,,,,V1_003,18,female,2024-04-29_10h09.51.465,jersey_experiment_5_v1,2023.2.2,Win32,84.74576271,,,,,,,,,,,,,,,,570.0032,571.8031,571.8032,574.5247,return,0.5062,,64.84375,,,,,,FBP-PT-18.png,0.4,1.2,8,1,0,56,56,7,1,,,,,,,,,,,,,,,,,,,,,,,,,,,,,,,,,,,,,,,,
,,,,,V1_003,18,female,2024-04-29_10h09.51.465,jersey_experiment_5_v1,2023.2.2,Win32,84.74576271,,,,,,,,,,,,,,,,574.5249,576.3208,576.3208,579.5799,return,1.4628,,47.00520833,,,,,,FBP-PT-18.png,0.35,1.2,6,1,0,57,57,5,1,,,,,,,,,,,,,,,,,,,,,,,,,,,,,,,,,,,,,,,,
,,,,,V1_003,18,female,2024-04-29_10h09.51.465,jersey_experiment_5_v1,2023.2.2,Win32,84.74576271,,,,,,,,,,,,,,,,579.58,581.3798,581.3799,582.8035,return,0.5176,,45.05208333,,,,,,FBP-PT-19.png,0.35,1.2,11,1,0,58,58,10,1,,,,,,,,,,,,,,,,,,,,,,,,,,,,,,,,,,,,,,,,
,,,,,V1_003,18,female,2024-04-29_10h09.51.465,jersey_experiment_5_v1,2023.2.2,Win32,84.74576271,,,,,,,,,,,,,,,,582.8037,584.0977,584.0977,586.0625,return,0.5542,,48.30729167,,,,,,FBP-RB-19.png,0.37,1.2,57,0.5,0,59,59,56,1,,,,,,,,,,,,,,,,,,,,,,,,,,,,,,,,,,,,,,,,
,,,,,V1_003,18,female,2024-04-29_10h09.51.465,jersey_experiment_5_v1,2023.2.2,Win32,84.74576271,,,,,,,,,,,,,,,,,,,,,,,,,,,,,,,,,,,,,,,586.0629,706.0672,,,,,,,,,,,,,,,,,,,,,,,,,,,,,,,,,,,,,,
,,,,,V1_003,18,female,2024-04-29_10h09.51.465,jersey_experiment_5_v1,2023.2.2,Win32,84.74576271,,,,,,,,,,,,,,,,,,,,,,,,,,,,,,,,,,,,,,,,,706.0672,708.8908,return,2.8051,,,,,,,,,,,,,,,,,,,,,,,,,,,,,,,,,,
,,,,,V1_003,18,female,2024-04-29_10h09.51.465,jersey_experiment_5_v1,2023.2.2,Win32,84.74576271,,,,,,,,,,,,,,,,708.8968,710.6906,710.6906,713.7142,return,1.1769,,74.609375,,,,,,FBP-RB-81.png,0.43,1.2,54,1,,,,,,,,,,,,,0,0,0,53,1,,,,,,,,,,,,,,,,,,,,,,,,,,,,
,,,,,V1_003,18,female,2024-04-29_10h09.51.465,jersey_experiment_5_v1,2023.2.2,Win32,84.74576271,,,,,,,,,,,,,,,,713.7145,715.507,715.507,717.4908,return,1.295,,24.47916667,,,,,,FBP-OG-19.png,0.35,1.2,41,1,,,,,,,,,,,,,0,1,1,40,1,,,,,,,,,,,,,,,,,,,,,,,,,,,,
,,,,,V1_003,18,female,2024-04-29_10h09.51.465,jersey_experiment_5_v1,2023.2.2,Win32,84.74576271,,,,,,,,,,,,,,,,717.4911,718.7892,718.7892,719.6713,return,0.2234,,20.18229167,,,,,,FBP-PT-71.png,0.35,1.2,1,0.5,,,,,,,,,,,,,0,2,2,0,1,,,,,,,,,,,,,,,,,,,,,,,,,,,,
,,,,,V1_003,18,female,2024-04-29_10h09.51.465,jersey_experiment_5_v1,2023.2.2,Win32,84.74576271,,,,,,,,,,,,,,,,719.6715,721.4725,721.4725,723.3383,return,0.194,,57.421875,,,,,,FBP-YG-19.png,0.37,1.2,27,1,,,,,,,,,,,,,0,3,3,26,1,,,,,,,,,,,,,,,,,,,,,,,,,,,,
,,,,,V1_003,18,female,2024-04-29_10h09.51.465,jersey_experiment_5_v1,2023.2.2,Win32,84.74576271,,,,,,,,,,,,,,,,723.3385,724.6323,724.6324,726.35,return,0.0369,,84.89583333,,,,,,FBP-PT-71.png,0.43,1.2,4,0.5,,,,,,,,,,,,,0,4,4,3,1,,,,,,,,,,,,,,,,,,,,,,,,,,,,
,,,,,V1_003,18,female,2024-04-29_10h09.51.465,jersey_experiment_5_v1,2023.2.2,Win32,84.74576271,,,,,,,,,,,,,,,,726.3502,728.15,728.1501,729.1542,return,0.2239,,74.08854167,,,,,,FBP-YG-18.png,0.37,1.2,22,1,,,,,,,,,,,,,0,5,5,21,1,,,,,,,,,,,,,,,,,,,,,,,,,,,,
,,,,,V1_003,18,female,2024-04-29_10h09.51.465,jersey_experiment_5_v1,2023.2.2,Win32,84.74576271,,,,,,,,,,,,,,,,729.1544,730.9502,730.9502,732.7423,return,0.0366,,54.6875,,,,,,FBP-YG-19.png,0.35,1.2,26,1,,,,,,,,,,,,,0,6,6,25,1,,,,,,,,,,,,,,,,,,,,,,,,,,,,
,,,,,V1_003,18,female,2024-04-29_10h09.51.465,jersey_experiment_5_v1,2023.2.2,Win32,84.74576271,,,,,,,,,,,,,,,,732.7425,734.5388,734.5388,735.9152,return,0.4403,,37.109375,,,,,,FBP-YG-18.png,0.35,1.2,21,1,,,,,,,,,,,,,0,7,7,20,1,,,,,,,,,,,,,,,,,,,,,,,,,,,,
,,,,,V1_003,18,female,2024-04-29_10h09.51.465,jersey_experiment_5_v1,2023.2.2,Win32,84.74576271,,,,,,,,,,,,,,,,735.9153,737.7153,737.7153,739.0682,return,0.3234,,61.97916667,,,,,,FBP-OG-17.png,0.37,1.2,32,1,,,,,,,,,,,,,0,8,8,31,1,,,,,,,,,,,,,,,,,,,,,,,,,,,,
,,,,,V1_003,18,female,2024-04-29_10h09.51.465,jersey_experiment_5_v1,2023.2.2,Win32,84.74576271,,,,,,,,,,,,,,,,739.0684,740.8684,740.8684,742.0096,return,0.2065,,98.69791667,,,,,,FBP-OG-17.png,0.45,1.2,35,1,,,,,,,,,,,,,0,9,9,34,1,,,,,,,,,,,,,,,,,,,,,,,,,,,,
,,,,,V1_003,18,female,2024-04-29_10h09.51.465,jersey_experiment_5_v1,2023.2.2,Win32,84.74576271,,,,,,,,,,,,,,,,742.0097,743.3037,743.3037,745.0685,return,0.2388,,99.21875,,,,,,FBP-PT-71.png,0.45,1.2,5,0.5,,,,,,,,,,,,,0,10,10,4,1,,,,,,,,,,,,,,,,,,,,,,,,,,,,
,,,,,V1_003,18,female,2024-04-29_10h09.51.465,jersey_experiment_5_v1,2023.2.2,Win32,84.74576271,,,,,,,,,,,,,,,,745.0687,746.8684,746.8685,748.1744,return,0.237,,92.1875,,,,,,FBP-OG-19.png,0.45,1.2,45,1,,,,,,,,,,,,,0,11,11,44,1,,,,,,,,,,,,,,,,,,,,,,,,,,,,
,,,,,V1_003,18,female,2024-04-29_10h09.51.465,jersey_experiment_5_v1,2023.2.2,Win32,84.74576271,,,,,,,,,,,,,,,,748.1746,749.9768,749.9768,750.7532,return,0.1291,,95.57291667,,,,,,FBP-YG-18.png,0.45,1.2,25,1,,,,,,,,,,,,,0,12,12,24,1,,,,,,,,,,,,,,,,,,,,,,,,,,,,
,,,,,V1_003,18,female,2024-04-29_10h09.51.465,jersey_experiment_5_v1,2023.2.2,Win32,84.74576271,,,,,,,,,,,,,,,,750.7533,752.5531,752.5531,753.6922,return,0.3346,,94.140625,,,,,,FBP-YG-19.png,0.43,1.2,29,1,,,,,,,,,,,,,0,13,13,28,1,,,,,,,,,,,,,,,,,,,,,,,,,,,,
,,,,,V1_003,18,female,2024-04-29_10h09.51.465,jersey_experiment_5_v1,2023.2.2,Win32,84.74576271,,,,,,,,,,,,,,,,753.6925,755.4924,755.4924,756.8495,return,0.0942,,36.06770833,,,,,,FBP-RB-71.png,0.35,1.2,46,1,,,,,,,,,,,,,0,14,14,45,1,,,,,,,,,,,,,,,,,,,,,,,,,,,,
,,,,,V1_003,18,female,2024-04-29_10h09.51.465,jersey_experiment_5_v1,2023.2.2,Win32,84.74576271,,,,,,,,,,,,,,,,756.8496,758.6454,758.6454,759.8101,return,0.1414,,27.21354167,,,,,,FBP-YG-17.png,0.37,1.2,17,1,,,,,,,,,,,,,0,15,15,16,1,,,,,,,,,,,,,,,,,,,,,,,,,,,,
,,,,,V1_003,18,female,2024-04-29_10h09.51.465,jersey_experiment_5_v1,2023.2.2,Win32,84.74576271,,,,,,,,,,,,,,,,759.8103,761.1044,761.1044,762.2338,return,0.1237,,69.66145833,,,,,,FBP-PT-91.png,0.4,1.2,13,0.5,,,,,,,,,,,,,0,16,16,12,1,,,,,,,,,,,,,,,,,,,,,,,,,,,,
,,,,,V1_003,18,female,2024-04-29_10h09.51.465,jersey_experiment_5_v1,2023.2.2,Win32,84.74576271,,,,,,,,,,,,,,,,762.234,764.034,764.034,765.2458,return,0.1909,,87.109375,,,,,,FBP-YG-19.png,0.45,1.2,30,1,,,,,,,,,,,,,0,17,17,29,1,,,,,,,,,,,,,,,,,,,,,,,,,,,,
,,,,,V1_003,18,female,2024-04-29_10h09.51.465,jersey_experiment_5_v1,2023.2.2,Win32,84.74576271,,,,,,,,,,,,,,,,765.2459,767.0378,767.0378,768.587,return,0.452,,72.00520833,,,,,,FBP-YG-17.png,0.4,1.2,18,1,,,,,,,,,,,,,0,18,18,17,1,,,,,,,,,,,,,,,,,,,,,,,,,,,,
,,,,,V1_003,18,female,2024-04-29_10h09.51.465,jersey_experiment_5_v1,2023.2.2,Win32,84.74576271,,,,,,,,,,,,,,,,768.5871,770.3871,770.3871,771.2577,return,0.0774,,84.11458333,,,,,,FBP-YG-18.png,0.43,1.2,24,1,,,,,,,,,,,,,0,19,19,23,1,,,,,,,,,,,,,,,,,,,,,,,,,,,,
,,,,,V1_003,18,female,2024-04-29_10h09.51.465,jersey_experiment_5_v1,2023.2.2,Win32,84.74576271,,,,,,,,,,,,,,,,771.258,773.0576,773.0577,774.0144,return,0.1072,,74.08854167,,,,,,FBP-OG-17.png,0.4,1.2,33,1,,,,,,,,,,,,,0,20,20,32,1,,,,,,,,,,,,,,,,,,,,,,,,,,,,
,,,,,V1_003,18,female,2024-04-29_10h09.51.465,jersey_experiment_5_v1,2023.2.2,Win32,84.74576271,,,,,,,,,,,,,,,,774.0146,775.8108,775.8109,776.8461,return,0.0356,,68.22916667,,,,,,FBP-OG-19.png,0.43,1.2,44,1,,,,,,,,,,,,,0,21,21,43,1,,,,,,,,,,,,,,,,,,,,,,,,,,,,
,,,,,V1_003,18,female,2024-04-29_10h09.51.465,jersey_experiment_5_v1,2023.2.2,Win32,84.74576271,,,,,,,,,,,,,,,,776.8464,778.6462,778.6462,779.8815,return,0.1243,,39.71354167,,,,,,FBP-RB-81.png,0.37,1.2,52,1,,,,,,,,,,,,,0,22,22,51,1,,,,,,,,,,,,,,,,,,,,,,,,,,,,
,,,,,V1_003,18,female,2024-04-29_10h09.51.465,jersey_experiment_5_v1,2023.2.2,Win32,84.74576271,,,,,,,,,,,,,,,,779.8817,781.1757,781.1757,783.8582,return,0.0369,,73.30729167,,,,,,FBP-PT-81.png,0.45,1.2,10,0.5,,,,,,,,,,,,,0,23,23,9,1,,,,,,,,,,,,,,,,,,,,,,,,,,,,
,,,,,V1_003,18,female,2024-04-29_10h09.51.465,jersey_experiment_5_v1,2023.2.2,Win32,84.74576271,,,,,,,,,,,,,,,,783.8583,785.6622,785.6622,787.3406,return,0.8994,,24.21875,,,,,,FBP-OG-17.png,0.35,1.2,31,1,,,,,,,,,,,,,0,24,24,30,1,,,,,,,,,,,,,,,,,,,,,,,,,,,,
,,,,,V1_003,18,female,2024-04-29_10h09.51.465,jersey_experiment_5_v1,2023.2.2,Win32,84.74576271,,,,,,,,,,,,,,,,787.3408,789.1445,789.1445,790.7997,return,0.1665,,63.15104167,,,,,,FBP-RB-71.png,0.37,1.2,47,1,,,,,,,,,,,,,0,25,25,46,1,,,,,,,,,,,,,,,,,,,,,,,,,,,,
,,,,,V1_003,18,female,2024-04-29_10h09.51.465,jersey_experiment_5_v1,2023.2.2,Win32,84.74576271,,,,,,,,,,,,,,,,790.7998,792.5997,792.5997,793.4348,return,0.0622,,74.34895833,,,,,,FBP-OG-17.png,0.43,1.2,34,1,,,,,,,,,,,,,0,26,26,33,1,,,,,,,,,,,,,,,,,,,,,,,,,,,,
,,,,,V1_003,18,female,2024-04-29_10h09.51.465,jersey_experiment_5_v1,2023.2.2,Win32,84.74576271,,,,,,,,,,,,,,,,793.4351,794.7292,794.7292,795.6727,return,0.1644,,74.34895833,,,,,,FBP-PT-81.png,0.4,1.2,8,0.5,,,,,,,,,,,,,0,27,27,7,1,,,,,,,,,,,,,,,,,,,,,,,,,,,,
,,,,,V1_003,18,female,2024-04-29_10h09.51.465,jersey_experiment_5_v1,2023.2.2,Win32,84.74576271,,,,,,,,,,,,,,,,795.6729,797.4653,797.4653,798.1332,return,0.1412,,70.18229167,,,,,,FBP-OG-18.png,0.4,1.2,38,1,,,,,,,,,,,,,0,28,28,37,1,,,,,,,,,,,,,,,,,,,,,,,,,,,,
,,,,,V1_003,18,female,2024-04-29_10h09.51.465,jersey_experiment_5_v1,2023.2.2,Win32,84.74576271,,,,,,,,,,,,,,,,798.1334,799.9294,799.9294,800.8471,return,0.1303,,89.58333333,,,,,,FBP-YG-17.png,0.45,1.2,20,1,,,,,,,,,,,,,0,29,29,19,1,,,,,,,,,,,,,,,,,,,,,,,,,,,,
,,,,,V1_003,18,female,2024-04-29_10h09.51.465,jersey_experiment_5_v1,2023.2.2,Win32,84.74576271,,,,,,,,,,,,,,,,800.8473,802.639,802.639,803.8705,return,0.1896,,89.58333333,,,,,,FBP-YG-17.png,0.43,1.2,19,1,,,,,,,,,,,,,0,30,30,18,1,,,,,,,,,,,,,,,,,,,,,,,,,,,,
,,,,,V1_003,18,female,2024-04-29_10h09.51.465,jersey_experiment_5_v1,2023.2.2,Win32,84.74576271,,,,,,,,,,,,,,,,803.8708,805.1648,805.1648,806.1061,return,0.157,,83.33333333,,,,,,FBP-PT-71.png,0.4,1.2,3,0.5,,,,,,,,,,,,,0,31,31,2,1,,,,,,,,,,,,,,,,,,,,,,,,,,,,
,,,,,V1_003,18,female,2024-04-29_10h09.51.465,jersey_experiment_5_v1,2023.2.2,Win32,84.74576271,,,,,,,,,,,,,,,,806.1062,807.4002,807.4002,809.8513,return,0.1529,,73.69791667,,,,,,FBP-PT-91.png,0.35,1.2,11,0.5,,,,,,,,,,,,,0,32,32,10,1,,,,,,,,,,,,,,,,,,,,,,,,,,,,
,,,,,V1_003,18,female,2024-04-29_10h09.51.465,jersey_experiment_5_v1,2023.2.2,Win32,84.74576271,,,,,,,,,,,,,,,,809.8515,811.6529,811.6529,812.4475,return,0.1311,,40.49479167,,,,,,FBP-OG-18.png,0.37,1.2,37,1,,,,,,,,,,,,,0,33,33,36,1,,,,,,,,,,,,,,,,,,,,,,,,,,,,
,,,,,V1_003,18,female,2024-04-29_10h09.51.465,jersey_experiment_5_v1,2023.2.2,Win32,84.74576271,,,,,,,,,,,,,,,,812.4476,813.7418,813.7418,814.7182,return,0.1078,,90.75520833,,,,,,FBP-PT-91.png,0.43,1.2,14,0.5,,,,,,,,,,,,,0,34,34,13,1,,,,,,,,,,,,,,,,,,,,,,,,,,,,
,,,,,V1_003,18,female,2024-04-29_10h09.51.465,jersey_experiment_5_v1,2023.2.2,Win32,84.74576271,,,,,,,,,,,,,,,,814.7183,816.523,816.523,817.3418,return,0.1922,,99.73958333,,,,,,FBP-RB-71.png,0.45,1.2,50,1,,,,,,,,,,,,,0,35,35,49,1,,,,,,,,,,,,,,,,,,,,,,,,,,,,
,,,,,V1_003,18,female,2024-04-29_10h09.51.465,jersey_experiment_5_v1,2023.2.2,Win32,84.74576271,,,,,,,,,,,,,,,,817.3419,819.1419,819.142,820.0007,return,0.2464,,99.73958333,,,,,,FBP-OG-19.png,0.4,1.2,43,1,,,,,,,,,,,,,0,36,36,42,1,,,,,,,,,,,,,,,,,,,,,,,,,,,,
,,,,,V1_003,18,female,2024-04-29_10h09.51.465,jersey_experiment_5_v1,2023.2.2,Win32,84.74576271,,,,,,,,,,,,,,,,820.0009,821.7936,821.7936,822.8147,return,0.1158,,25.52083333,,,,,,FBP-OG-18.png,0.35,1.2,36,1,,,,,,,,,,,,,0,37,37,35,1,,,,,,,,,,,,,,,,,,,,,,,,,,,,
,,,,,V1_003,18,female,2024-04-29_10h09.51.465,jersey_experiment_5_v1,2023.2.2,Win32,84.74576271,,,,,,,,,,,,,,,,822.8149,824.6128,824.6128,825.3421,return,0.0607,,18.75,,,,,,FBP-RB-91.png,0.37,1.2,57,1,,,,,,,,,,,,,0,38,38,56,1,,,,,,,,,,,,,,,,,,,,,,,,,,,,
,,,,,V1_003,18,female,2024-04-29_10h09.51.465,jersey_experiment_5_v1,2023.2.2,Win32,84.74576271,,,,,,,,,,,,,,,,825.3423,827.1345,827.1345,828.5798,return,0.1282,,23.4375,,,,,,FBP-YG-17.png,0.35,1.2,16,1,,,,,,,,,,,,,0,39,39,15,1,,,,,,,,,,,,,,,,,,,,,,,,,,,,
,,,,,V1_003,18,female,2024-04-29_10h09.51.465,jersey_experiment_5_v1,2023.2.2,Win32,84.74576271,,,,,,,,,,,,,,,,828.58,830.3721,830.3721,831.5775,return,0.1022,,88.02083333,,,,,,FBP-RB-71.png,0.43,1.2,49,1,,,,,,,,,,,,,0,40,40,48,1,,,,,,,,,,,,,,,,,,,,,,,,,,,,
,,,,,V1_003,18,female,2024-04-29_10h09.51.465,jersey_experiment_5_v1,2023.2.2,Win32,84.74576271,,,,,,,,,,,,,,,,831.5776,833.3777,833.3778,834.7777,return,0.2876,,73.69791667,,,,,,FBP-YG-19.png,0.4,1.2,28,1,,,,,,,,,,,,,0,41,41,27,1,,,,,,,,,,,,,,,,,,,,,,,,,,,,
,,,,,V1_003,18,female,2024-04-29_10h09.51.465,jersey_experiment_5_v1,2023.2.2,Win32,84.74576271,,,,,,,,,,,,,,,,834.7778,836.5779,836.5779,837.5191,return,0.2365,,90.75520833,,,,,,FBP-OG-18.png,0.43,1.2,39,1,,,,,,,,,,,,,0,42,42,38,1,,,,,,,,,,,,,,,,,,,,,,,,,,,,
,,,,,V1_003,18,female,2024-04-29_10h09.51.465,jersey_experiment_5_v1,2023.2.2,Win32,84.74576271,,,,,,,,,,,,,,,,837.5192,839.3191,839.3192,840.225,return,0.198,,88.93229167,,,,,,FBP-OG-19.png,0.37,1.2,42,1,,,,,,,,,,,,,0,43,43,41,1,,,,,,,,,,,,,,,,,,,,,,,,,,,,
,,,,,V1_003,18,female,2024-04-29_10h09.51.465,jersey_experiment_5_v1,2023.2.2,Win32,84.74576271,,,,,,,,,,,,,,,,840.2252,842.0172,842.0172,843.0485,return,0.1851,,87.23958333,,,,,,FBP-YG-18.png,0.4,1.2,23,1,,,,,,,,,,,,,0,44,44,22,1,,,,,,,,,,,,,,,,,,,,,,,,,,,,
,,,,,V1_003,18,female,2024-04-29_10h09.51.465,jersey_experiment_5_v1,2023.2.2,Win32,84.74576271,,,,,,,,,,,,,,,,843.0487,844.8487,844.8487,845.782,return,0.166,,88.671875,,,,,,FBP-RB-71.png,0.4,1.2,48,1,,,,,,,,,,,,,0,45,45,47,1,,,,,,,,,,,,,,,,,,,,,,,,,,,,
,,,,,V1_003,18,female,2024-04-29_10h09.51.465,jersey_experiment_5_v1,2023.2.2,Win32,84.74576271,,,,,,,,,,,,,,,,845.7822,847.5783,847.5783,849.6722,return,0.796,,92.31770833,,,,,,FBP-RB-91.png,0.45,1.2,60,1,,,,,,,,,,,,,0,46,46,59,1,,,,,,,,,,,,,,,,,,,,,,,,,,,,
,,,,,V1_003,18,female,2024-04-29_10h09.51.465,jersey_experiment_5_v1,2023.2.2,Win32,84.74576271,,,,,,,,,,,,,,,,849.6724,850.9666,850.9666,852.2764,return,0.4355,,84.375,,,,,,FBP-PT-81.png,0.43,1.2,9,0.5,,,,,,,,,,,,,0,47,47,8,1,,,,,,,,,,,,,,,,,,,,,,,,,,,,
,,,,,V1_003,18,female,2024-04-29_10h09.51.465,jersey_experiment_5_v1,2023.2.2,Win32,84.74576271,,,,,,,,,,,,,,,,852.2765,854.0745,854.0746,855.3902,return,0.4477,,97.91666667,,,,,,FBP-RB-81.png,0.45,1.2,55,1,,,,,,,,,,,,,0,48,48,54,1,,,,,,,,,,,,,,,,,,,,,,,,,,,,
,,,,,V1_003,18,female,2024-04-29_10h09.51.465,jersey_experiment_5_v1,2023.2.2,Win32,84.74576271,,,,,,,,,,,,,,,,855.3905,856.6845,856.6845,857.7551,return,0.4401,,96.61458333,,,,,,FBP-PT-91.png,0.45,1.2,15,0.5,,,,,,,,,,,,,0,49,49,14,1,,,,,,,,,,,,,,,,,,,,,,,,,,,,
,,,,,V1_003,18,female,2024-04-29_10h09.51.465,jersey_experiment_5_v1,2023.2.2,Win32,84.74576271,,,,,,,,,,,,,,,,857.7553,859.5471,859.5471,861.1199,return,0.4584,,42.44791667,,,,,,FBP-RB-81.png,0.35,1.2,51,1,,,,,,,,,,,,,0,50,50,50,1,,,,,,,,,,,,,,,,,,,,,,,,,,,,
,,,,,V1_003,18,female,2024-04-29_10h09.51.465,jersey_experiment_5_v1,2023.2.2,Win32,84.74576271,,,,,,,,,,,,,,,,861.12,862.9244,862.9244,864.0495,return,0.4472,,84.50520833,,,,,,FBP-OG-18.png,0.45,1.2,40,1,,,,,,,,,,,,,0,51,51,39,1,,,,,,,,,,,,,,,,,,,,,,,,,,,,
,,,,,V1_003,18,female,2024-04-29_10h09.51.465,jersey_experiment_5_v1,2023.2.2,Win32,84.74576271,,,,,,,,,,,,,,,,864.0497,865.8495,865.8495,867.0966,return,0.4754,,85.41666667,,,,,,FBP-RB-91.png,0.43,1.2,59,1,,,,,,,,,,,,,0,52,52,58,1,,,,,,,,,,,,,,,,,,,,,,,,,,,,
,,,,,V1_003,18,female,2024-04-29_10h09.51.465,jersey_experiment_5_v1,2023.2.2,Win32,84.74576271,,,,,,,,,,,,,,,,867.0967,868.8987,868.8988,871.7201,return,0.4188,,88.41145833,,,,,,FBP-RB-81.png,0.4,1.2,53,1,,,,,,,,,,,,,0,53,53,52,1,,,,,,,,,,,,,,,,,,,,,,,,,,,,
,,,,,V1_003,18,female,2024-04-29_10h09.51.465,jersey_experiment_5_v1,2023.2.2,Win32,84.74576271,,,,,,,,,,,,,,,,871.7202,873.0144,873.0144,876.3323,return,0.4626,,66.66666667,,,,,,FBP-PT-71.png,0.37,1.2,2,0.5,,,,,,,,,,,,,0,54,54,1,1,,,,,,,,,,,,,,,,,,,,,,,,,,,,
,,,,,V1_003,18,female,2024-04-29_10h09.51.465,jersey_experiment_5_v1,2023.2.2,Win32,84.74576271,,,,,,,,,,,,,,,,876.3325,877.6265,877.6265,879.4382,return,0.5181,,75.13020833,,,,,,FBP-PT-81.png,0.37,1.2,7,0.5,,,,,,,,,,,,,0,55,55,6,1,,,,,,,,,,,,,,,,,,,,,,,,,,,,
,,,,,V1_003,18,female,2024-04-29_10h09.51.465,jersey_experiment_5_v1,2023.2.2,Win32,84.74576271,,,,,,,,,,,,,,,,879.4384,881.2384,881.2384,882.4619,return,0.4499,,78.64583333,,,,,,FBP-RB-91.png,0.4,1.2,58,1,,,,,,,,,,,,,0,56,56,57,1,,,,,,,,,,,,,,,,,,,,,,,,,,,,
,,,,,V1_003,18,female,2024-04-29_10h09.51.465,jersey_experiment_5_v1,2023.2.2,Win32,84.74576271,,,,,,,,,,,,,,,,882.462,884.2619,884.2619,885.5354,return,0.518,,62.890625,,,,,,FBP-RB-91.png,0.35,1.2,56,1,,,,,,,,,,,,,0,57,57,55,1,,,,,,,,,,,,,,,,,,,,,,,,,,,,
,,,,,V1_003,18,female,2024-04-29_10h09.51.465,jersey_experiment_5_v1,2023.2.2,Win32,84.74576271,,,,,,,,,,,,,,,,885.5355,886.8385,886.8386,888.6857,return,0.4842,,69.01041667,,,,,,FBP-PT-91.png,0.37,1.2,12,0.5,,,,,,,,,,,,,0,58,58,11,1,,,,,,,,,,,,,,,,,,,,,,,,,,,,
,,,,,V1_003,18,female,2024-04-29_10h09.51.465,jersey_experiment_5_v1,2023.2.2,Win32,84.74576271,,,,,,,,,,,,,,,,888.6858,889.9798,889.9798,891.609,return,0.4256,,54.6875,,,,,,FBP-PT-81.png,0.35,1.2,6,0.5,,,,,,,,,,,,,0,59,59,5,1,,,,,,,,,,,,,,,,,,,,,,,,,,,,
,,,,,V1_003,18,female,2024-04-29_10h09.51.465,jersey_experiment_5_v1,2023.2.2,Win32,84.74576271,,,,,,,,,,,,,,,,891.6109,892.9094,892.9094,894.9681,return,0.6079,,54.6875,,,,,,FBP-PT-19.png,0.37,1.2,12,0.5,,,,,,,,,,,,,,,,,,0,0,0,11,1,,,,,,,,,,,,,,,,,,,,,,,
,,,,,V1_003,18,female,2024-04-29_10h09.51.465,jersey_experiment_5_v1,2023.2.2,Win32,84.74576271,,,,,,,,,,,,,,,,894.9685,896.7684,896.7684,899.7096,return,0.4612,,54.42708333,,,,,,FBP-YG-71.png,0.35,1.2,16,1,,,,,,,,,,,,,,,,,,0,1,1,15,1,,,,,,,,,,,,,,,,,,,,,,,
,,,,,V1_003,18,female,2024-04-29_10h09.51.465,jersey_experiment_5_v1,2023.2.2,Win32,84.74576271,,,,,,,,,,,,,,,,899.7098,901.4978,901.4978,903.7215,return,0.582,,85.28645833,,,,,,FBP-YG-91.png,0.43,1.2,29,1,,,,,,,,,,,,,,,,,,0,2,2,28,1,,,,,,,,,,,,,,,,,,,,,,,
,,,,,V1_003,18,female,2024-04-29_10h09.51.465,jersey_experiment_5_v1,2023.2.2,Win32,84.74576271,,,,,,,,,,,,,,,,903.7217,905.5215,905.5215,907.0297,return,0.5395,,82.94270833,,,,,,FBP-OG-71.png,0.4,1.2,33,1,,,,,,,,,,,,,,,,,,0,3,3,32,1,,,,,,,,,,,,,,,,,,,,,,,
,,,,,V1_003,18,female,2024-04-29_10h09.51.465,jersey_experiment_5_v1,2023.2.2,Win32,84.74576271,,,,,,,,,,,,,,,,907.0298,908.8314,908.8315,910.2185,return,0.5022,,96.22395833,,,,,,FBP-RB-19.png,0.43,1.2,59,1,,,,,,,,,,,,,,,,,,0,4,4,58,1,,,,,,,,,,,,,,,,,,,,,,,
,,,,,V1_003,18,female,2024-04-29_10h09.51.465,jersey_experiment_5_v1,2023.2.2,Win32,84.74576271,,,,,,,,,,,,,,,,910.2187,912.016,912.016,913.6749,return,0.5232,,92.96875,,,,,,FBP-RB-17.png,0.37,1.2,47,1,,,,,,,,,,,,,,,,,,0,5,5,46,1,,,,,,,,,,,,,,,,,,,,,,,
,,,,,V1_003,18,female,2024-04-29_10h09.51.465,jersey_experiment_5_v1,2023.2.2,Win32,84.74576271,,,,,,,,,,,,,,,,913.6751,914.969,914.969,916.5251,return,0.4805,,85.02604167,,,,,,FBP-PT-17.png,0.37,1.2,2,0.5,,,,,,,,,,,,,,,,,,0,6,6,1,1,,,,,,,,,,,,,,,,,,,,,,,
,,,,,V1_003,18,female,2024-04-29_10h09.51.465,jersey_experiment_5_v1,2023.2.2,Win32,84.74576271,,,,,,,,,,,,,,,,916.5253,917.8278,917.8278,920.0337,return,0.6137,,78.38541667,,,,,,FBP-PT-19.png,0.4,1.2,13,0.5,,,,,,,,,,,,,,,,,,0,7,7,12,1,,,,,,,,,,,,,,,,,,,,,,,
,,,,,V1_003,18,female,2024-04-29_10h09.51.465,jersey_experiment_5_v1,2023.2.2,Win32,84.74576271,,,,,,,,,,,,,,,,920.0338,921.3364,921.3364,923.7575,return,0.5203,,38.80208333,,,,,,FBP-PT-18.png,0.35,1.2,6,0.5,,,,,,,,,,,,,,,,,,0,8,8,5,1,,,,,,,,,,,,,,,,,,,,,,,
,,,,,V1_003,18,female,2024-04-29_10h09.51.465,jersey_experiment_5_v1,2023.2.2,Win32,84.74576271,,,,,,,,,,,,,,,,923.7578,925.0557,925.0558,926.6559,return,0.4944,,44.79166667,,,,,,FBP-PT-17.png,0.35,1.2,1,0.5,,,,,,,,,,,,,,,,,,0,9,9,0,1,,,,,,,,,,,,,,,,,,,,,,,
,,,,,V1_003,18,female,2024-04-29_10h09.51.465,jersey_experiment_5_v1,2023.2.2,Win32,84.74576271,,,,,,,,,,,,,,,,926.656,928.4518,928.4519,930.1384,return,0.5769,,92.578125,,,,,,FBP-YG-81.png,0.43,1.2,24,1,,,,,,,,,,,,,,,,,,0,10,10,23,1,,,,,,,,,,,,,,,,,,,,,,,
,,,,,V1_003,18,female,2024-04-29_10h09.51.465,jersey_experiment_5_v1,2023.2.2,Win32,84.74576271,,,,,,,,,,,,,,,,930.1386,931.4321,931.4321,936.3021,return,0.5655,,78.77604167,,,,,,FBP-PT-18.png,0.4,1.2,8,0.5,,,,,,,,,,,,,,,,,,0,11,11,7,1,,,,,,,,,,,,,,,,,,,,,,,
,,,,,V1_003,18,female,2024-04-29_10h09.51.465,jersey_experiment_5_v1,2023.2.2,Win32,84.74576271,,,,,,,,,,,,,,,,936.3023,938.0994,938.0994,939.9935,return,0.4654,,83.59375,,,,,,FBP-OG-71.png,0.43,1.2,34,1,,,,,,,,,,,,,,,,,,0,12,12,33,1,,,,,,,,,,,,,,,,,,,,,,,
,,,,,V1_003,18,female,2024-04-29_10h09.51.465,jersey_experiment_5_v1,2023.2.2,Win32,84.74576271,,,,,,,,,,,,,,,,939.9936,941.7955,941.7955,943.276,return,0.4645,,93.75,,,,,,FBP-OG-71.png,0.45,1.2,35,1,,,,,,,,,,,,,,,,,,0,13,13,34,1,,,,,,,,,,,,,,,,,,,,,,,
,,,,,V1_003,18,female,2024-04-29_10h09.51.465,jersey_experiment_5_v1,2023.2.2,Win32,84.74576271,,,,,,,,,,,,,,,,943.2762,945.0797,945.0797,946.3727,return,0.5051,,96.22395833,,,,,,FBP-RB-19.png,0.4,1.2,58,1,,,,,,,,,,,,,,,,,,0,14,14,57,1,,,,,,,,,,,,,,,,,,,,,,,
,,,,,V1_003,18,female,2024-04-29_10h09.51.465,jersey_experiment_5_v1,2023.2.2,Win32,84.74576271,,,,,,,,,,,,,,,,946.3729,948.1703,948.1703,949.4643,return,0.4782,,88.671875,,,,,,FBP-YG-81.png,0.4,1.2,23,1,,,,,,,,,,,,,,,,,,0,15,15,22,1,,,,,,,,,,,,,,,,,,,,,,,
,,,,,V1_003,18,female,2024-04-29_10h09.51.465,jersey_experiment_5_v1,2023.2.2,Win32,84.74576271,,,,,,,,,,,,,,,,949.4646,951.2683,951.2683,952.3507,return,0.4116,,96.22395833,,,,,,FBP-YG-71.png,0.45,1.2,20,1,,,,,,,,,,,,,,,,,,0,16,16,19,1,,,,,,,,,,,,,,,,,,,,,,,
,,,,,V1_003,18,female,2024-04-29_10h09.51.465,jersey_experiment_5_v1,2023.2.2,Win32,84.74576271,,,,,,,,,,,,,,,,952.3509,954.1498,954.1498,956.0883,return,0.4433,,91.40625,,,,,,FBP-YG-91.png,0.4,1.2,28,1,,,,,,,,,,,,,,,,,,0,17,17,27,1,,,,,,,,,,,,,,,,,,,,,,,
,,,,,V1_003,18,female,2024-04-29_10h09.51.465,jersey_experiment_5_v1,2023.2.2,Win32,84.74576271,,,,,,,,,,,,,,,,956.0885,957.8922,957.8922,959.2882,return,0.5607,,82.03125,,,,,,FBP-YG-91.png,0.37,1.2,27,1,,,,,,,,,,,,,,,,,,0,18,18,26,1,,,,,,,,,,,,,,,,,,,,,,,
,,,,,V1_003,18,female,2024-04-29_10h09.51.465,jersey_experiment_5_v1,2023.2.2,Win32,84.74576271,,,,,,,,,,,,,,,,959.2883,961.0884,961.0884,964.2116,return,1.0959,,79.55729167,,,,,,FBP-OG-81.png,0.37,1.2,37,1,,,,,,,,,,,,,,,,,,0,19,19,36,1,,,,,,,,,,,,,,,,,,,,,,,
,,,,,V1_003,18,female,2024-04-29_10h09.51.465,jersey_experiment_5_v1,2023.2.2,Win32,84.74576271,,,,,,,,,,,,,,,,964.2117,966.0061,966.0062,968.2706,return,0.7074,,60.28645833,,,,,,FBP-OG-91.png,0.35,1.2,41,1,,,,,,,,,,,,,,,,,,0,20,20,40,1,,,,,,,,,,,,,,,,,,,,,,,
,,,,,V1_003,18,female,2024-04-29_10h09.51.465,jersey_experiment_5_v1,2023.2.2,Win32,84.74576271,,,,,,,,,,,,,,,,968.2707,970.0691,970.0691,971.3045,return,0.4133,,81.640625,,,,,,FBP-YG-71.png,0.43,1.2,19,1,,,,,,,,,,,,,,,,,,0,21,21,18,1,,,,,,,,,,,,,,,,,,,,,,,
,,,,,V1_003,18,female,2024-04-29_10h09.51.465,jersey_experiment_5_v1,2023.2.2,Win32,84.74576271,,,,,,,,,,,,,,,,971.3048,973.1042,973.1042,974.3829,return,0.4125,,89.32291667,,,,,,FBP-RB-17.png,0.43,1.2,49,1,,,,,,,,,,,,,,,,,,0,22,22,48,1,,,,,,,,,,,,,,,,,,,,,,,
,,,,,V1_003,18,female,2024-04-29_10h09.51.465,jersey_experiment_5_v1,2023.2.2,Win32,84.74576271,,,,,,,,,,,,,,,,974.3831,976.1868,976.1869,977.7147,return,0.5269,,80.46875,,,,,,FBP-OG-81.png,0.4,1.2,38,1,,,,,,,,,,,,,,,,,,0,23,23,37,1,,,,,,,,,,,,,,,,,,,,,,,
,,,,,V1_003,18,female,2024-04-29_10h09.51.465,jersey_experiment_5_v1,2023.2.2,Win32,84.74576271,,,,,,,,,,,,,,,,977.7148,979.5163,979.5163,980.5983,return,0.4584,,94.53125,,,,,,FBP-RB-19.png,0.45,1.2,60,1,,,,,,,,,,,,,,,,,,0,24,24,59,1,,,,,,,,,,,,,,,,,,,,,,,
,,,,,V1_003,18,female,2024-04-29_10h09.51.465,jersey_experiment_5_v1,2023.2.2,Win32,84.74576271,,,,,,,,,,,,,,,,980.5984,982.3988,982.3988,983.6461,return,0.4587,,89.71354167,,,,,,FBP-RB-19.png,0.37,1.2,57,1,,,,,,,,,,,,,,,,,,0,25,25,56,1,,,,,,,,,,,,,,,,,,,,,,,
,,,,,V1_003,18,female,2024-04-29_10h09.51.465,jersey_experiment_5_v1,2023.2.2,Win32,84.74576271,,,,,,,,,,,,,,,,983.6463,985.4463,985.4464,986.6658,return,0.5123,,89.71354167,,,,,,FBP-YG-71.png,0.37,1.2,17,1,,,,,,,,,,,,,,,,,,0,26,26,16,1,,,,,,,,,,,,,,,,,,,,,,,
,,,,,V1_003,18,female,2024-04-29_10h09.51.465,jersey_experiment_5_v1,2023.2.2,Win32,84.74576271,,,,,,,,,,,,,,,,986.666,988.4607,988.4607,989.6937,return,0.5076,,98.56770833,,,,,,FBP-YG-91.png,0.45,1.2,30,1,,,,,,,,,,,,,,,,,,0,27,27,29,1,,,,,,,,,,,,,,,,,,,,,,,
,,,,,V1_003,18,female,2024-04-29_10h09.51.465,jersey_experiment_5_v1,2023.2.2,Win32,84.74576271,,,,,,,,,,,,,,,,989.6939,991.4933,991.4933,992.7485,return,0.4272,,98.69791667,,,,,,FBP-RB-18.png,0.45,1.2,55,1,,,,,,,,,,,,,,,,,,0,28,28,54,1,,,,,,,,,,,,,,,,,,,,,,,
,,,,,V1_003,18,female,2024-04-29_10h09.51.465,jersey_experiment_5_v1,2023.2.2,Win32,84.74576271,,,,,,,,,,,,,,,,992.7486,994.5514,994.5514,995.964,return,0.5414,,86.06770833,,,,,,FBP-OG-81.png,0.43,1.2,39,1,,,,,,,,,,,,,,,,,,0,29,29,38,1,,,,,,,,,,,,,,,,,,,,,,,
,,,,,V1_003,18,female,2024-04-29_10h09.51.465,jersey_experiment_5_v1,2023.2.2,Win32,84.74576271,,,,,,,,,,,,,,,,995.9641,997.7641,997.7641,999.3173,return,0.471,,96.61458333,,,,,,FBP-RB-17.png,0.45,1.2,50,1,,,,,,,,,,,,,,,,,,0,30,30,49,1,,,,,,,,,,,,,,,,,,,,,,,
,,,,,V1_003,18,female,2024-04-29_10h09.51.465,jersey_experiment_5_v1,2023.2.2,Win32,84.74576271,,,,,,,,,,,,,,,,999.3174,1001.1171,1001.1171,1005.4706,return,2.94,,52.99479167,,,,,,FBP-OG-81.png,0.35,1.2,36,1,,,,,,,,,,,,,,,,,,0,31,31,35,1,,,,,,,,,,,,,,,,,,,,,,,
,,,,,V1_003,18,female,2024-04-29_10h09.51.465,jersey_experiment_5_v1,2023.2.2,Win32,84.74576271,,,,,,,,,,,,,,,,1005.4707,1006.7725,1006.7725,1010.2001,return,0.9059,,44.01041667,,,,,,FBP-PT-19.png,0.35,1.2,11,0.5,,,,,,,,,,,,,,,,,,0,32,32,10,1,,,,,,,,,,,,,,,,,,,,,,,
,,,,,V1_003,18,female,2024-04-29_10h09.51.465,jersey_experiment_5_v1,2023.2.2,Win32,84.74576271,,,,,,,,,,,,,,,,1010.2002,1011.9962,1011.9962,1014.0235,return,1.1395,,23.95833333,,,,,,FBP-RB-18.png,0.35,1.2,51,1,,,,,,,,,,,,,,,,,,0,33,33,50,1,,,,,,,,,,,,,,,,,,,,,,,
,,,,,V1_003,18,female,2024-04-29_10h09.51.465,jersey_experiment_5_v1,2023.2.2,Win32,84.74576271,,,,,,,,,,,,,,,,1014.0236,1015.82,1015.82,1017.4123,return,0.5047,,61.45833333,,,,,,FBP-YG-71.png,0.4,1.2,18,1,,,,,,,,,,,,,,,,,,0,34,34,17,1,,,,,,,,,,,,,,,,,,,,,,,
,,,,,V1_003,18,female,2024-04-29_10h09.51.465,jersey_experiment_5_v1,2023.2.2,Win32,84.74576271,,,,,,,,,,,,,,,,1017.4125,1019.2082,1019.2082,1020.6829,return,0.5418,,76.171875,,,,,,FBP-OG-91.png,0.4,1.2,43,1,,,,,,,,,,,,,,,,,,0,35,35,42,1,,,,,,,,,,,,,,,,,,,,,,,
,,,,,V1_003,18,female,2024-04-29_10h09.51.465,jersey_experiment_5_v1,2023.2.2,Win32,84.74576271,,,,,,,,,,,,,,,,1020.6831,1021.9847,1021.9847,1023.2908,return,0.5711,,73.828125,,,,,,FBP-PT-17.png,0.4,1.2,3,0.5,,,,,,,,,,,,,,,,,,0,36,36,2,1,,,,,,,,,,,,,,,,,,,,,,,
,,,,,V1_003,18,female,2024-04-29_10h09.51.465,jersey_experiment_5_v1,2023.2.2,Win32,84.74576271,,,,,,,,,,,,,,,,1023.2909,1025.0942,1025.0942,1027.8557,return,0.5302,,30.59895833,,,,,,FBP-RB-17.png,0.35,1.2,46,1,,,,,,,,,,,,,,,,,,0,37,37,45,1,,,,,,,,,,,,,,,,,,,,,,,
,,,,,V1_003,18,female,2024-04-29_10h09.51.465,jersey_experiment_5_v1,2023.2.2,Win32,84.74576271,,,,,,,,,,,,,,,,1027.8558,1029.1498,1029.1498,1030.8086,return,0.4891,,84.63541667,,,,,,FBP-PT-17.png,0.45,1.2,5,0.5,,,,,,,,,,,,,,,,,,0,38,38,4,1,,,,,,,,,,,,,,,,,,,,,,,
,,,,,V1_003,18,female,2024-04-29_10h09.51.465,jersey_experiment_5_v1,2023.2.2,Win32,84.74576271,,,,,,,,,,,,,,,,1030.8087,1032.6087,1032.6087,1033.7661,return,0.4708,,80.98958333,,,,,,FBP-RB-18.png,0.4,1.2,53,1,,,,,,,,,,,,,,,,,,0,39,39,52,1,,,,,,,,,,,,,,,,,,,,,,,
,,,,,V1_003,18,female,2024-04-29_10h09.51.465,jersey_experiment_5_v1,2023.2.2,Win32,84.74576271,,,,,,,,,,,,,,,,1033.7664,1035.5618,1035.5618,1037.2795,return,1.0476,,77.99479167,,,,,,FBP-OG-71.png,0.35,1.2,31,1,,,,,,,,,,,,,,,,,,0,40,40,30,1,,,,,,,,,,,,,,,,,,,,,,,
,,,,,V1_003,18,female,2024-04-29_10h09.51.465,jersey_experiment_5_v1,2023.2.2,Win32,84.74576271,,,,,,,,,,,,,,,,1037.2797,1038.5736,1038.5736,1040.8913,return,0.7946,,75.52083333,,,,,,FBP-PT-17.png,0.43,1.2,4,0.5,,,,,,,,,,,,,,,,,,0,41,41,3,1,,,,,,,,,,,,,,,,,,,,,,,
,,,,,V1_003,18,female,2024-04-29_10h09.51.465,jersey_experiment_5_v1,2023.2.2,Win32,84.74576271,,,,,,,,,,,,,,,,1040.8915,1042.6853,1042.6853,1045.315,return,0.6224,,75.390625,,,,,,FBP-OG-91.png,0.37,1.2,42,1,,,,,,,,,,,,,,,,,,0,42,42,41,1,,,,,,,,,,,,,,,,,,,,,,,
,,,,,V1_003,18,female,2024-04-29_10h09.51.465,jersey_experiment_5_v1,2023.2.2,Win32,84.74576271,,,,,,,,,,,,,,,,1045.3151,1046.6094,1046.6094,1048.0563,return,0.5845,,87.109375,,,,,,FBP-PT-19.png,0.43,1.2,14,0.5,,,,,,,,,,,,,,,,,,0,43,43,13,1,,,,,,,,,,,,,,,,,,,,,,,
,,,,,V1_003,18,female,2024-04-29_10h09.51.465,jersey_experiment_5_v1,2023.2.2,Win32,84.74576271,,,,,,,,,,,,,,,,1048.0566,1049.8493,1049.8493,1050.9562,return,0.5781,,95.18229167,,,,,,FBP-YG-81.png,0.45,1.2,25,1,,,,,,,,,,,,,,,,,,0,44,44,24,1,,,,,,,,,,,,,,,,,,,,,,,
,,,,,V1_003,18,female,2024-04-29_10h09.51.465,jersey_experiment_5_v1,2023.2.2,Win32,84.74576271,,,,,,,,,,,,,,,,1050.9564,1052.7528,1052.7528,1054.739,return,0.5758,,63.02083333,,,,,,FBP-YG-91.png,0.35,1.2,26,1,,,,,,,,,,,,,,,,,,0,45,45,25,1,,,,,,,,,,,,,,,,,,,,,,,
,,,,,V1_003,18,female,2024-04-29_10h09.51.465,jersey_experiment_5_v1,2023.2.2,Win32,84.74576271,,,,,,,,,,,,,,,,1054.7393,1056.5391,1056.5391,1058.1743,return,0.6016,,86.06770833,,,,,,FBP-RB-18.png,0.43,1.2,54,1,,,,,,,,,,,,,,,,,,0,46,46,53,1,,,,,,,,,,,,,,,,,,,,,,,
,,,,,V1_003,18,female,2024-04-29_10h09.51.465,jersey_experiment_5_v1,2023.2.2,Win32,84.74576271,,,,,,,,,,,,,,,,1058.1746,1059.4685,1059.4685,1060.8921,return,0.5335,,98.046875,,,,,,FBP-PT-19.png,0.45,1.2,15,0.5,,,,,,,,,,,,,,,,,,0,47,47,14,1,,,,,,,,,,,,,,,,,,,,,,,
,,,,,V1_003,18,female,2024-04-29_10h09.51.465,jersey_experiment_5_v1,2023.2.2,Win32,84.74576271,,,,,,,,,,,,,,,,1060.8923,1062.1901,1062.1901,1063.424,return,0.5636,,96.22395833,,,,,,FBP-PT-18.png,0.43,1.2,9,0.5,,,,,,,,,,,,,,,,,,0,48,48,8,1,,,,,,,,,,,,,,,,,,,,,,,
,,,,,V1_003,18,female,2024-04-29_10h09.51.465,jersey_experiment_5_v1,2023.2.2,Win32,84.74576271,,,,,,,,,,,,,,,,1063.4241,1065.2154,1065.2154,1066.8254,return,0.6113,,71.74479167,,,,,,FBP-RB-19.png,0.35,1.2,56,1,,,,,,,,,,,,,,,,,,0,49,49,55,1,,,,,,,,,,,,,,,,,,,,,,,
,,,,,V1_003,18,female,2024-04-29_10h09.51.465,jersey_experiment_5_v1,2023.2.2,Win32,84.74576271,,,,,,,,,,,,,,,,1066.8255,1068.6219,1068.6219,1070.2806,return,0.6091,,87.63020833,,,,,,FBP-RB-17.png,0.4,1.2,48,1,,,,,,,,,,,,,,,,,,0,50,50,47,1,,,,,,,,,,,,,,,,,,,,,,,
,,,,,V1_003,18,female,2024-04-29_10h09.51.465,jersey_experiment_5_v1,2023.2.2,Win32,84.74576271,,,,,,,,,,,,,,,,1070.2807,1072.0807,1072.0808,1073.7632,return,0.5299,,85.9375,,,,,,FBP-OG-71.png,0.37,1.2,32,1,,,,,,,,,,,,,,,,,,0,51,51,31,1,,,,,,,,,,,,,,,,,,,,,,,
,,,,,V1_003,18,female,2024-04-29_10h09.51.465,jersey_experiment_5_v1,2023.2.2,Win32,84.74576271,,,,,,,,,,,,,,,,1073.7634,1075.5634,1075.5635,1076.7399,return,0.5988,,85.15625,,,,,,FBP-OG-91.png,0.43,1.2,44,1,,,,,,,,,,,,,,,,,,0,52,52,43,1,,,,,,,,,,,,,,,,,,,,,,,
,,,,,V1_003,18,female,2024-04-29_10h09.51.465,jersey_experiment_5_v1,2023.2.2,Win32,84.74576271,,,,,,,,,,,,,,,,1076.74,1078.533,1078.533,1080.0105,return,0.6258,,59.63541667,,,,,,FBP-YG-81.png,0.35,1.2,21,1,,,,,,,,,,,,,,,,,,0,53,53,20,1,,,,,,,,,,,,,,,,,,,,,,,
,,,,,V1_003,18,female,2024-04-29_10h09.51.465,jersey_experiment_5_v1,2023.2.2,Win32,84.74576271,,,,,,,,,,,,,,,,1080.0107,1081.3047,1081.3047,1085.7283,return,0.5758,,59.63541667,,,,,,FBP-PT-18.png,0.45,1.2,10,0.5,,,,,,,,,,,,,,,,,,0,54,54,9,1,,,,,,,,,,,,,,,,,,,,,,,
,,,,,V1_003,18,female,2024-04-29_10h09.51.465,jersey_experiment_5_v1,2023.2.2,Win32,84.74576271,,,,,,,,,,,,,,,,1085.7284,1087.5285,1087.5285,1088.9755,return,0.5076,,70.18229167,,,,,,FBP-RB-18.png,0.37,1.2,52,1,,,,,,,,,,,,,,,,,,0,55,55,51,1,,,,,,,,,,,,,,,,,,,,,,,
,,,,,V1_003,18,female,2024-04-29_10h09.51.465,jersey_experiment_5_v1,2023.2.2,Win32,84.74576271,,,,,,,,,,,,,,,,1088.9757,1090.7757,1090.7757,1092.6719,return,0.4922,,70.18229167,,,,,,FBP-YG-81.png,0.37,1.2,22,1,,,,,,,,,,,,,,,,,,0,56,56,21,1,,,,,,,,,,,,,,,,,,,,,,,
,,,,,V1_003,18,female,2024-04-29_10h09.51.465,jersey_experiment_5_v1,2023.2.2,Win32,84.74576271,,,,,,,,,,,,,,,,1092.6721,1094.4698,1094.4698,1096.7564,return,0.5886,,84.765625,,,,,,FBP-OG-81.png,0.45,1.2,40,1,,,,,,,,,,,,,,,,,,0,57,57,39,1,,,,,,,,,,,,,,,,,,,,,,,
,,,,,V1_003,18,female,2024-04-29_10h09.51.465,jersey_experiment_5_v1,2023.2.2,Win32,84.74576271,,,,,,,,,,,,,,,,1096.7565,1098.0502,1098.0502,1104.9811,return,0.5422,,61.06770833,,,,,,FBP-PT-18.png,0.37,1.2,7,0.5,,,,,,,,,,,,,,,,,,0,58,58,6,1,,,,,,,,,,,,,,,,,,,,,,,
,,,,,V1_003,18,female,2024-04-29_10h09.51.465,jersey_experiment_5_v1,2023.2.2,Win32,84.74576271,,,,,,,,,,,,,,,,1104.9813,1106.7807,1106.7807,1107.9645,return,0.6038,,83.33333333,,,,,,FBP-OG-91.png,0.45,1.2,45,1,,,,,,,,,,,,,,,,,,0,59,59,44,1,,,,,,,,,,,,,,,,,,,,,,,
,,,,,V1_003,18,female,2024-04-29_10h09.51.465,jersey_experiment_5_v1,2023.2.2,Win32,84.74576271,,,,,,,,,,,,,,,,,,,,,,,,,,,,,,,,,,,,,,,,,,,,,,,,,,,,,,,,1107.9648,1114.6238,return,6.6368,,,,,,,,,,,,,,,,,,,
,,,,,V1_003,18,female,2024-04-29_10h09.51.465,jersey_experiment_5_v1,2023.2.2,Win32,84.74576271,,,,,,,,,,,,,,,,,,,,,,,,,,,,,,,,,,,,,,,,,,,,,,,,,,,,,,,,,,,,,1114.6239,1119.3062,1,3.5404,return,1.1234,,,,,,,,,,,,
,,,,,V1_003,18,female,2024-04-29_10h09.51.465,jersey_experiment_5_v1,2023.2.2,Win32,84.74576271,,,,,,,,,,,,,,,,,,,,,,,,,,,,,,,,,,,,,,,,,,,,,,,,,,,,,,,,,,,,,,,,,,,,1119.3063,1157.136,the jersey numbers were usually green or red with 71 or 81,right,31.9234,,,,,,
,,,,,V1_003,18,female,2024-04-29_10h09.51.465,jersey_experiment_5_v1,2023.2.2,Win32,84.74576271,,,,,,,,,,,,,,,,,,,,,,,,,,,,,,,,,,,,,,,,,,,,,,,,,,,,,,,,,,,,,,,,,,,,,,,,,,1157.1361,1160.2254,return,3.0708,