requirements.started,requirements.stopped,key_resp_3.keys,key_resp_3.rt,key_resp_3.duration,Subject ID,Age,Gender,date,expName,psychopyVersion,OS,frameRate,instructions1.started,instructions1.stopped,key_resp.keys,key_resp.rt,key_resp.duration,example.started,example.stopped,enter_2.keys,enter_2.rt,enter_2.duration,instructions2.started,instructions2.stopped,enter_3.keys,enter_3.rt,enter_3.duration,image.started,image.stopped,slider_2.started,slider_2.stopped,next.keys,next.rt,next.duration,slider.response,trial_block_1.thisRepN,trial_block_1.thisTrialN,trial_block_1.thisN,trial_block_1.thisIndex,trial_block_1.ran,Path,Width,Height,Index,Duration,trial_block_2.thisRepN,trial_block_2.thisTrialN,trial_block_2.thisN,trial_block_2.thisIndex,trial_block_2.ran,rest_break.started,rest_break.stopped,end_break.started,end_break.stopped,key_resp_5.keys,key_resp_5.rt,key_resp_5.duration,trial_block_3.thisRepN,trial_block_3.thisTrialN,trial_block_3.thisN,trial_block_3.thisIndex,trial_block_3.ran,trial_block_4.thisRepN,trial_block_4.thisTrialN,trial_block_4.thisN,trial_block_4.thisIndex,trial_block_4.ran,questions_intro.started,questions_intro.stopped,enter_12.keys,enter_12.rt,enter_12.duration,question2.started,question2.stopped,question_doingbest.response,question_doingbest.rt,enter_15.keys,enter_15.rt,enter_15.duration,pattern.started,pattern.stopped,pattern_2.text,enter_17.keys,enter_17.rt,enter_17.duration,thankyou.started,thankyou.stopped,enter_14.keys,enter_14.rt,enter_14.duration
0,10.4504,return,10.4435,,V1_002,20,Female,2024-04-29_09h35.53.976,jersey_experiment_5_v1,2023.2.2,Win32,84.74576271,,,,,,,,,,,,,,,,,,,,,,,,,,,,,,,,,,,,,,,,,,,,,,,,,,,,,,,,,,,,,,,,,,,,,,,,,,,,,,
,,,,,V1_002,20,Female,2024-04-29_09h35.53.976,jersey_experiment_5_v1,2023.2.2,Win32,84.74576271,10.4505,17.4858,return,7.015,,,,,,,,,,,,,,,,,,,,,,,,,,,,,,,,,,,,,,,,,,,,,,,,,,,,,,,,,,,,,,,,,,,,,,,,,,
,,,,,V1_002,20,Female,2024-04-29_09h35.53.976,jersey_experiment_5_v1,2023.2.2,Win32,84.74576271,,,,,,17.4859,21.2505,return,3.7267,,,,,,,,,,,,,,,,,,,,,,,,,,,,,,,,,,,,,,,,,,,,,,,,,,,,,,,,,,,,,,,,,,,,,
,,,,,V1_002,20,Female,2024-04-29_09h35.53.976,jersey_experiment_5_v1,2023.2.2,Win32,84.74576271,,,,,,,,,,,21.2506,34.8982,return,13.6337,,,,,,,,,,,,,,,,,,,,,,,,,,,,,,,,,,,,,,,,,,,,,,,,,,,,,,,,,,,,,,,,
,,,,,V1_002,20,Female,2024-04-29_09h35.53.976,jersey_experiment_5_v1,2023.2.2,Win32,84.74576271,,,,,,,,,,,,,,,,34.9049,36.6981,36.6982,49.1457,return,6.126,,37.5,0,0,0,5,1,FBP-PT-81.png,0.35,1.2,6,1,,,,,,,,,,,,,,,,,,,,,,,,,,,,,,,,,,,,,,,,,,,,,
,,,,,V1_002,20,Female,2024-04-29_09h35.53.976,jersey_experiment_5_v1,2023.2.2,Win32,84.74576271,,,,,,,,,,,,,,,,49.146,50.4398,50.4398,54.1222,return,1.3965,,79.6875,0,1,1,39,1,FBP-OG-18.png,0.45,1.2,40,0.5,,,,,,,,,,,,,,,,,,,,,,,,,,,,,,,,,,,,,,,,,,,,,
,,,,,V1_002,20,Female,2024-04-29_09h35.53.976,jersey_experiment_5_v1,2023.2.2,Win32,84.74576271,,,,,,,,,,,,,,,,54.1223,55.4163,55.4163,59.2544,return,2.0109,,83.203125,0,2,2,24,1,FBP-YG-18.png,0.45,1.2,25,0.5,,,,,,,,,,,,,,,,,,,,,,,,,,,,,,,,,,,,,,,,,,,,,
,,,,,V1_002,20,Female,2024-04-29_09h35.53.976,jersey_experiment_5_v1,2023.2.2,Win32,84.74576271,,,,,,,,,,,,,,,,59.2545,61.0462,61.0462,63.6755,return,0.9345,,67.05729167,0,3,3,7,1,FBP-PT-81.png,0.4,1.2,8,1,,,,,,,,,,,,,,,,,,,,,,,,,,,,,,,,,,,,,,,,,,,,,
,,,,,V1_002,20,Female,2024-04-29_09h35.53.976,jersey_experiment_5_v1,2023.2.2,Win32,84.74576271,,,,,,,,,,,,,,,,63.6757,64.9698,64.9698,67.4875,return,0.8369,,83.33333333,0,4,4,34,1,FBP-OG-17.png,0.45,1.2,35,0.5,,,,,,,,,,,,,,,,,,,,,,,,,,,,,,,,,,,,,,,,,,,,,
,,,,,V1_002,20,Female,2024-04-29_09h35.53.976,jersey_experiment_5_v1,2023.2.2,Win32,84.74576271,,,,,,,,,,,,,,,,67.4877,68.7814,68.7814,71.7935,return,0.7999,,74.73958333,0,5,5,56,1,FBP-RB-91.png,0.37,1.2,57,0.5,,,,,,,,,,,,,,,,,,,,,,,,,,,,,,,,,,,,,,,,,,,,,
,,,,,V1_002,20,Female,2024-04-29_09h35.53.976,jersey_experiment_5_v1,2023.2.2,Win32,84.74576271,,,,,,,,,,,,,,,,71.7936,73.0876,73.0876,76.0092,return,1.0122,,84.63541667,0,6,6,58,1,FBP-RB-91.png,0.43,1.2,59,0.5,,,,,,,,,,,,,,,,,,,,,,,,,,,,,,,,,,,,,,,,,,,,,
,,,,,V1_002,20,Female,2024-04-29_09h35.53.976,jersey_experiment_5_v1,2023.2.2,Win32,84.74576271,,,,,,,,,,,,,,,,76.0094,77.8054,77.8054,79.8329,return,0.8234,,90.49479167,0,7,7,9,1,FBP-PT-81.png,0.45,1.2,10,1,,,,,,,,,,,,,,,,,,,,,,,,,,,,,,,,,,,,,,,,,,,,,
,,,,,V1_002,20,Female,2024-04-29_09h35.53.976,jersey_experiment_5_v1,2023.2.2,Win32,84.74576271,,,,,,,,,,,,,,,,79.833,81.1273,81.1273,82.8175,return,0.8467,,90.49479167,0,8,8,54,1,FBP-RB-81.png,0.45,1.2,55,0.5,,,,,,,,,,,,,,,,,,,,,,,,,,,,,,,,,,,,,,,,,,,,,
,,,,,V1_002,20,Female,2024-04-29_09h35.53.976,jersey_experiment_5_v1,2023.2.2,Win32,84.74576271,,,,,,,,,,,,,,,,82.8176,84.1116,84.1116,87.3587,return,0.7674,,36.328125,0,9,9,41,1,FBP-OG-19.png,0.37,1.2,42,0.5,,,,,,,,,,,,,,,,,,,,,,,,,,,,,,,,,,,,,,,,,,,,,
,,,,,V1_002,20,Female,2024-04-29_09h35.53.976,jersey_experiment_5_v1,2023.2.2,Win32,84.74576271,,,,,,,,,,,,,,,,87.3589,88.6583,88.6583,91.2295,return,0.5896,,65.36458333,0,10,10,33,1,FBP-OG-17.png,0.43,1.2,34,0.5,,,,,,,,,,,,,,,,,,,,,,,,,,,,,,,,,,,,,,,,,,,,,
,,,,,V1_002,20,Female,2024-04-29_09h35.53.976,jersey_experiment_5_v1,2023.2.2,Win32,84.74576271,,,,,,,,,,,,,,,,91.2296,92.5237,92.5237,94.3943,return,0.6768,,68.359375,0,11,11,42,1,FBP-OG-19.png,0.4,1.2,43,0.5,,,,,,,,,,,,,,,,,,,,,,,,,,,,,,,,,,,,,,,,,,,,,
,,,,,V1_002,20,Female,2024-04-29_09h35.53.976,jersey_experiment_5_v1,2023.2.2,Win32,84.74576271,,,,,,,,,,,,,,,,94.3945,96.1871,96.1871,98.1474,return,0.7532,,20.57291667,0,12,12,10,1,FBP-PT-91.png,0.35,1.2,11,1,,,,,,,,,,,,,,,,,,,,,,,,,,,,,,,,,,,,,,,,,,,,,
,,,,,V1_002,20,Female,2024-04-29_09h35.53.976,jersey_experiment_5_v1,2023.2.2,Win32,84.74576271,,,,,,,,,,,,,,,,98.1475,99.4456,99.4456,101.5828,return,0.543,,54.296875,0,13,13,38,1,FBP-OG-18.png,0.43,1.2,39,0.5,,,,,,,,,,,,,,,,,,,,,,,,,,,,,,,,,,,,,,,,,,,,,
,,,,,V1_002,20,Female,2024-04-29_09h35.53.976,jersey_experiment_5_v1,2023.2.2,Win32,84.74576271,,,,,,,,,,,,,,,,101.583,103.3862,103.3862,105.7242,return,0.6764,,24.86979167,0,14,14,1,1,FBP-PT-71.png,0.37,1.2,2,1,,,,,,,,,,,,,,,,,,,,,,,,,,,,,,,,,,,,,,,,,,,,,
,,,,,V1_002,20,Female,2024-04-29_09h35.53.976,jersey_experiment_5_v1,2023.2.2,Win32,84.74576271,,,,,,,,,,,,,,,,105.7243,107.0183,107.0184,113.9621,return,0.7151,,50.13020833,0,15,15,31,1,FBP-OG-17.png,0.37,1.2,32,0.5,,,,,,,,,,,,,,,,,,,,,,,,,,,,,,,,,,,,,,,,,,,,,
,,,,,V1_002,20,Female,2024-04-29_09h35.53.976,jersey_experiment_5_v1,2023.2.2,Win32,84.74576271,,,,,,,,,,,,,,,,113.9623,115.7641,115.7641,117.9716,return,0.6106,,87.109375,0,16,16,3,1,FBP-PT-71.png,0.43,1.2,4,1,,,,,,,,,,,,,,,,,,,,,,,,,,,,,,,,,,,,,,,,,,,,,
,,,,,V1_002,20,Female,2024-04-29_09h35.53.976,jersey_experiment_5_v1,2023.2.2,Win32,84.74576271,,,,,,,,,,,,,,,,117.9717,119.2659,119.2659,120.7954,return,0.6745,,86.19791667,0,17,17,32,1,FBP-OG-17.png,0.4,1.2,33,0.5,,,,,,,,,,,,,,,,,,,,,,,,,,,,,,,,,,,,,,,,,,,,,
,,,,,V1_002,20,Female,2024-04-29_09h35.53.976,jersey_experiment_5_v1,2023.2.2,Win32,84.74576271,,,,,,,,,,,,,,,,120.7954,122.095,122.0951,123.4232,return,0.6111,,89.32291667,0,18,18,53,1,FBP-RB-81.png,0.43,1.2,54,0.5,,,,,,,,,,,,,,,,,,,,,,,,,,,,,,,,,,,,,,,,,,,,,
,,,,,V1_002,20,Female,2024-04-29_09h35.53.976,jersey_experiment_5_v1,2023.2.2,Win32,84.74576271,,,,,,,,,,,,,,,,123.4234,124.7169,124.7169,126.125,return,0.686,,89.32291667,0,19,19,23,1,FBP-YG-18.png,0.43,1.2,24,0.5,,,,,,,,,,,,,,,,,,,,,,,,,,,,,,,,,,,,,,,,,,,,,
,,,,,V1_002,20,Female,2024-04-29_09h35.53.976,jersey_experiment_5_v1,2023.2.2,Win32,84.74576271,,,,,,,,,,,,,,,,126.1253,127.423,127.4231,130.6545,return,1.0141,,89.84375,0,20,20,21,1,FBP-YG-18.png,0.37,1.2,22,0.5,,,,,,,,,,,,,,,,,,,,,,,,,,,,,,,,,,,,,,,,,,,,,
,,,,,V1_002,20,Female,2024-04-29_09h35.53.976,jersey_experiment_5_v1,2023.2.2,Win32,84.74576271,,,,,,,,,,,,,,,,130.6547,131.9507,131.9508,136.5253,return,3.0038,,33.46354167,0,21,21,35,1,FBP-OG-18.png,0.35,1.2,36,0.5,,,,,,,,,,,,,,,,,,,,,,,,,,,,,,,,,,,,,,,,,,,,,
,,,,,V1_002,20,Female,2024-04-29_09h35.53.976,jersey_experiment_5_v1,2023.2.2,Win32,84.74576271,,,,,,,,,,,,,,,,136.5256,137.8195,137.8195,139.3724,return,0.5688,,35.80729167,0,22,22,26,1,FBP-YG-19.png,0.37,1.2,27,0.5,,,,,,,,,,,,,,,,,,,,,,,,,,,,,,,,,,,,,,,,,,,,,
,,,,,V1_002,20,Female,2024-04-29_09h35.53.976,jersey_experiment_5_v1,2023.2.2,Win32,84.74576271,,,,,,,,,,,,,,,,139.3726,141.1781,141.1782,143.4238,return,0.6591,,63.15104167,0,23,23,12,1,FBP-PT-91.png,0.4,1.2,13,1,,,,,,,,,,,,,,,,,,,,,,,,,,,,,,,,,,,,,,,,,,,,,
,,,,,V1_002,20,Female,2024-04-29_09h35.53.976,jersey_experiment_5_v1,2023.2.2,Win32,84.74576271,,,,,,,,,,,,,,,,143.424,144.7256,144.7257,146.4316,return,0.5779,,75,0,24,24,28,1,FBP-YG-19.png,0.43,1.2,29,0.5,,,,,,,,,,,,,,,,,,,,,,,,,,,,,,,,,,,,,,,,,,,,,
,,,,,V1_002,20,Female,2024-04-29_09h35.53.976,jersey_experiment_5_v1,2023.2.2,Win32,84.74576271,,,,,,,,,,,,,,,,146.4317,147.7258,147.7258,149.4829,return,0.5654,,78.90625,0,25,25,27,1,FBP-YG-19.png,0.4,1.2,28,0.5,,,,,,,,,,,,,,,,,,,,,,,,,,,,,,,,,,,,,,,,,,,,,
,,,,,V1_002,20,Female,2024-04-29_09h35.53.976,jersey_experiment_5_v1,2023.2.2,Win32,84.74576271,,,,,,,,,,,,,,,,149.4831,150.7884,150.7884,153.3142,return,0.728,,99.47916667,0,26,26,59,1,FBP-RB-91.png,0.45,1.2,60,0.5,,,,,,,,,,,,,,,,,,,,,,,,,,,,,,,,,,,,,,,,,,,,,
,,,,,V1_002,20,Female,2024-04-29_09h35.53.976,jersey_experiment_5_v1,2023.2.2,Win32,84.74576271,,,,,,,,,,,,,,,,153.3143,154.6083,154.6083,156.8789,return,0.6482,,62.76041667,0,27,27,16,1,FBP-YG-17.png,0.37,1.2,17,0.5,,,,,,,,,,,,,,,,,,,,,,,,,,,,,,,,,,,,,,,,,,,,,
,,,,,V1_002,20,Female,2024-04-29_09h35.53.976,jersey_experiment_5_v1,2023.2.2,Win32,84.74576271,,,,,,,,,,,,,,,,156.8792,158.1732,158.1732,160.6438,return,0.7533,,62.76041667,0,28,28,22,1,FBP-YG-18.png,0.4,1.2,23,0.5,,,,,,,,,,,,,,,,,,,,,,,,,,,,,,,,,,,,,,,,,,,,,
,,,,,V1_002,20,Female,2024-04-29_09h35.53.976,jersey_experiment_5_v1,2023.2.2,Win32,84.74576271,,,,,,,,,,,,,,,,160.644,162.4462,162.4462,165.2322,return,0.6729,,97.78645833,0,29,29,14,1,FBP-PT-91.png,0.45,1.2,15,1,,,,,,,,,,,,,,,,,,,,,,,,,,,,,,,,,,,,,,,,,,,,,
,,,,,V1_002,20,Female,2024-04-29_09h35.53.976,jersey_experiment_5_v1,2023.2.2,Win32,84.74576271,,,,,,,,,,,,,,,,165.2324,166.5265,166.5265,169.3619,return,0.6239,,49.34895833,0,30,30,45,1,FBP-RB-71.png,0.35,1.2,46,0.5,,,,,,,,,,,,,,,,,,,,,,,,,,,,,,,,,,,,,,,,,,,,,
,,,,,V1_002,20,Female,2024-04-29_09h35.53.976,jersey_experiment_5_v1,2023.2.2,Win32,84.74576271,,,,,,,,,,,,,,,,169.362,170.6559,170.6559,172.4131,return,0.6138,,89.19270833,0,31,31,19,1,FBP-YG-17.png,0.45,1.2,20,0.5,,,,,,,,,,,,,,,,,,,,,,,,,,,,,,,,,,,,,,,,,,,,,
,,,,,V1_002,20,Female,2024-04-29_09h35.53.976,jersey_experiment_5_v1,2023.2.2,Win32,84.74576271,,,,,,,,,,,,,,,,172.4133,173.715,173.715,175.4091,return,0.6459,,92.96875,0,32,32,48,1,FBP-RB-71.png,0.43,1.2,49,0.5,,,,,,,,,,,,,,,,,,,,,,,,,,,,,,,,,,,,,,,,,,,,,
,,,,,V1_002,20,Female,2024-04-29_09h35.53.976,jersey_experiment_5_v1,2023.2.2,Win32,84.74576271,,,,,,,,,,,,,,,,175.4093,177.2093,177.2093,178.4916,return,0.5572,,99.86979167,0,33,33,4,1,FBP-PT-71.png,0.45,1.2,5,1,,,,,,,,,,,,,,,,,,,,,,,,,,,,,,,,,,,,,,,,,,,,,
,,,,,V1_002,20,Female,2024-04-29_09h35.53.976,jersey_experiment_5_v1,2023.2.2,Win32,84.74576271,,,,,,,,,,,,,,,,178.4918,179.7857,179.7858,181.8328,return,0.6312,,54.296875,0,34,34,50,1,FBP-RB-81.png,0.35,1.2,51,0.5,,,,,,,,,,,,,,,,,,,,,,,,,,,,,,,,,,,,,,,,,,,,,
,,,,,V1_002,20,Female,2024-04-29_09h35.53.976,jersey_experiment_5_v1,2023.2.2,Win32,84.74576271,,,,,,,,,,,,,,,,181.8329,183.1269,183.1269,184.7153,return,0.5598,,67.70833333,0,35,35,47,1,FBP-RB-71.png,0.4,1.2,48,0.5,,,,,,,,,,,,,,,,,,,,,,,,,,,,,,,,,,,,,,,,,,,,,
,,,,,V1_002,20,Female,2024-04-29_09h35.53.976,jersey_experiment_5_v1,2023.2.2,Win32,84.74576271,,,,,,,,,,,,,,,,184.7156,186.5084,186.5084,187.9155,return,0.6051,,42.05729167,0,36,36,6,1,FBP-PT-81.png,0.37,1.2,7,1,,,,,,,,,,,,,,,,,,,,,,,,,,,,,,,,,,,,,,,,,,,,,
,,,,,V1_002,20,Female,2024-04-29_09h35.53.976,jersey_experiment_5_v1,2023.2.2,Win32,84.74576271,,,,,,,,,,,,,,,,187.9157,189.2097,189.2097,190.6332,return,0.5248,,38.54166667,0,37,37,46,1,FBP-RB-71.png,0.37,1.2,47,0.5,,,,,,,,,,,,,,,,,,,,,,,,,,,,,,,,,,,,,,,,,,,,,
,,,,,V1_002,20,Female,2024-04-29_09h35.53.976,jersey_experiment_5_v1,2023.2.2,Win32,84.74576271,,,,,,,,,,,,,,,,190.6334,191.9275,191.9275,193.3745,return,0.5079,,41.27604167,0,38,38,57,1,FBP-RB-91.png,0.4,1.2,58,0.5,,,,,,,,,,,,,,,,,,,,,,,,,,,,,,,,,,,,,,,,,,,,,
,,,,,V1_002,20,Female,2024-04-29_09h35.53.976,jersey_experiment_5_v1,2023.2.2,Win32,84.74576271,,,,,,,,,,,,,,,,193.3747,194.6726,194.6726,196.2216,return,0.5895,,49.609375,0,39,39,37,1,FBP-OG-18.png,0.4,1.2,38,0.5,,,,,,,,,,,,,,,,,,,,,,,,,,,,,,,,,,,,,,,,,,,,,
,,,,,V1_002,20,Female,2024-04-29_09h35.53.976,jersey_experiment_5_v1,2023.2.2,Win32,84.74576271,,,,,,,,,,,,,,,,196.2217,197.5158,197.5158,199.1984,return,0.5895,,39.19270833,0,40,40,36,1,FBP-OG-18.png,0.37,1.2,37,0.5,,,,,,,,,,,,,,,,,,,,,,,,,,,,,,,,,,,,,,,,,,,,,
,,,,,V1_002,20,Female,2024-04-29_09h35.53.976,jersey_experiment_5_v1,2023.2.2,Win32,84.74576271,,,,,,,,,,,,,,,,199.1985,200.4924,200.4924,202.8847,return,0.6592,,94.01041667,0,41,41,49,1,FBP-RB-71.png,0.45,1.2,50,0.5,,,,,,,,,,,,,,,,,,,,,,,,,,,,,,,,,,,,,,,,,,,,,
,,,,,V1_002,20,Female,2024-04-29_09h35.53.976,jersey_experiment_5_v1,2023.2.2,Win32,84.74576271,,,,,,,,,,,,,,,,202.8848,204.1867,204.1867,205.8574,return,0.6112,,91.53645833,0,42,42,17,1,FBP-YG-17.png,0.4,1.2,18,0.5,,,,,,,,,,,,,,,,,,,,,,,,,,,,,,,,,,,,,,,,,,,,,
,,,,,V1_002,20,Female,2024-04-29_09h35.53.976,jersey_experiment_5_v1,2023.2.2,Win32,84.74576271,,,,,,,,,,,,,,,,205.8575,207.1515,207.1515,208.6736,return,0.6375,,91.53645833,0,43,43,15,1,FBP-YG-17.png,0.35,1.2,16,0.5,,,,,,,,,,,,,,,,,,,,,,,,,,,,,,,,,,,,,,,,,,,,,
,,,,,V1_002,20,Female,2024-04-29_09h35.53.976,jersey_experiment_5_v1,2023.2.2,Win32,84.74576271,,,,,,,,,,,,,,,,208.6737,210.4734,210.4735,211.9441,return,0.5539,,95.3125,0,44,44,13,1,FBP-PT-91.png,0.43,1.2,14,1,,,,,,,,,,,,,,,,,,,,,,,,,,,,,,,,,,,,,,,,,,,,,
,,,,,V1_002,20,Female,2024-04-29_09h35.53.976,jersey_experiment_5_v1,2023.2.2,Win32,84.74576271,,,,,,,,,,,,,,,,211.9442,213.2458,213.2458,215.5556,return,0.7186,,50.390625,0,45,45,51,1,FBP-RB-81.png,0.37,1.2,52,0.5,,,,,,,,,,,,,,,,,,,,,,,,,,,,,,,,,,,,,,,,,,,,,
,,,,,V1_002,20,Female,2024-04-29_09h35.53.976,jersey_experiment_5_v1,2023.2.2,Win32,84.74576271,,,,,,,,,,,,,,,,215.5558,216.8578,216.8578,222.6815,return,4.7017,,73.17708333,0,46,46,52,1,FBP-RB-81.png,0.4,1.2,53,0.5,,,,,,,,,,,,,,,,,,,,,,,,,,,,,,,,,,,,,,,,,,,,,
,,,,,V1_002,20,Female,2024-04-29_09h35.53.976,jersey_experiment_5_v1,2023.2.2,Win32,84.74576271,,,,,,,,,,,,,,,,222.6816,223.9758,223.9758,226.5288,return,0.6489,,25,0,47,47,40,1,FBP-OG-19.png,0.35,1.2,41,0.5,,,,,,,,,,,,,,,,,,,,,,,,,,,,,,,,,,,,,,,,,,,,,
,,,,,V1_002,20,Female,2024-04-29_09h35.53.976,jersey_experiment_5_v1,2023.2.2,Win32,84.74576271,,,,,,,,,,,,,,,,226.529,227.827,227.827,229.5792,return,0.5763,,21.22395833,0,48,48,30,1,FBP-OG-17.png,0.35,1.2,31,0.5,,,,,,,,,,,,,,,,,,,,,,,,,,,,,,,,,,,,,,,,,,,,,
,,,,,V1_002,20,Female,2024-04-29_09h35.53.976,jersey_experiment_5_v1,2023.2.2,Win32,84.74576271,,,,,,,,,,,,,,,,229.5794,231.3761,231.3762,235.1781,return,1.481,,72.13541667,0,49,49,2,1,FBP-PT-71.png,0.4,1.2,3,1,,,,,,,,,,,,,,,,,,,,,,,,,,,,,,,,,,,,,,,,,,,,,
,,,,,V1_002,20,Female,2024-04-29_09h35.53.976,jersey_experiment_5_v1,2023.2.2,Win32,84.74576271,,,,,,,,,,,,,,,,235.1783,236.474,236.474,240.847,return,0.7183,,99.73958333,0,50,50,18,1,FBP-YG-17.png,0.43,1.2,19,0.5,,,,,,,,,,,,,,,,,,,,,,,,,,,,,,,,,,,,,,,,,,,,,
,,,,,V1_002,20,Female,2024-04-29_09h35.53.976,jersey_experiment_5_v1,2023.2.2,Win32,84.74576271,,,,,,,,,,,,,,,,240.8471,242.6398,242.6398,244.2706,return,0.7195,,37.890625,0,51,51,11,1,FBP-PT-91.png,0.37,1.2,12,1,,,,,,,,,,,,,,,,,,,,,,,,,,,,,,,,,,,,,,,,,,,,,
,,,,,V1_002,20,Female,2024-04-29_09h35.53.976,jersey_experiment_5_v1,2023.2.2,Win32,84.74576271,,,,,,,,,,,,,,,,244.2708,245.5647,245.5648,248.0353,return,0.7649,,84.63541667,0,52,52,44,1,FBP-OG-19.png,0.45,1.2,45,0.5,,,,,,,,,,,,,,,,,,,,,,,,,,,,,,,,,,,,,,,,,,,,,
,,,,,V1_002,20,Female,2024-04-29_09h35.53.976,jersey_experiment_5_v1,2023.2.2,Win32,84.74576271,,,,,,,,,,,,,,,,248.0355,249.8355,249.8355,252.6499,return,1.7177,,89.58333333,0,53,53,8,1,FBP-PT-81.png,0.43,1.2,9,1,,,,,,,,,,,,,,,,,,,,,,,,,,,,,,,,,,,,,,,,,,,,,
,,,,,V1_002,20,Female,2024-04-29_09h35.53.976,jersey_experiment_5_v1,2023.2.2,Win32,84.74576271,,,,,,,,,,,,,,,,252.6501,253.9448,253.9448,256.2827,return,0.6531,,0.911458333,0,54,54,55,1,FBP-RB-91.png,0.35,1.2,56,0.5,,,,,,,,,,,,,,,,,,,,,,,,,,,,,,,,,,,,,,,,,,,,,
,,,,,V1_002,20,Female,2024-04-29_09h35.53.976,jersey_experiment_5_v1,2023.2.2,Win32,84.74576271,,,,,,,,,,,,,,,,256.2829,257.5769,257.5769,260.8124,return,0.6986,,75,0,55,55,43,1,FBP-OG-19.png,0.43,1.2,44,0.5,,,,,,,,,,,,,,,,,,,,,,,,,,,,,,,,,,,,,,,,,,,,,
,,,,,V1_002,20,Female,2024-04-29_09h35.53.976,jersey_experiment_5_v1,2023.2.2,Win32,84.74576271,,,,,,,,,,,,,,,,260.8126,262.617,262.6171,264.4595,return,0.6153,,24.73958333,0,56,56,0,1,FBP-PT-71.png,0.35,1.2,1,1,,,,,,,,,,,,,,,,,,,,,,,,,,,,,,,,,,,,,,,,,,,,,
,,,,,V1_002,20,Female,2024-04-29_09h35.53.976,jersey_experiment_5_v1,2023.2.2,Win32,84.74576271,,,,,,,,,,,,,,,,264.4598,265.7537,265.7537,268.0385,return,0.7161,,99.47916667,0,57,57,29,1,FBP-YG-19.png,0.45,1.2,30,0.5,,,,,,,,,,,,,,,,,,,,,,,,,,,,,,,,,,,,,,,,,,,,,
,,,,,V1_002,20,Female,2024-04-29_09h35.53.976,jersey_experiment_5_v1,2023.2.2,Win32,84.74576271,,,,,,,,,,,,,,,,268.0387,269.3303,269.3304,272.954,return,0.6893,,61.19791667,0,58,58,20,1,FBP-YG-18.png,0.35,1.2,21,0.5,,,,,,,,,,,,,,,,,,,,,,,,,,,,,,,,,,,,,,,,,,,,,
,,,,,V1_002,20,Female,2024-04-29_09h35.53.976,jersey_experiment_5_v1,2023.2.2,Win32,84.74576271,,,,,,,,,,,,,,,,272.9542,274.2482,274.2482,276.6248,return,0.669,,66.27604167,0,59,59,25,1,FBP-YG-19.png,0.35,1.2,26,0.5,,,,,,,,,,,,,,,,,,,,,,,,,,,,,,,,,,,,,,,,,,,,,
,,,,,V1_002,20,Female,2024-04-29_09h35.53.976,jersey_experiment_5_v1,2023.2.2,Win32,84.74576271,,,,,,,,,,,,,,,,276.6266,277.919,277.919,279.6954,return,0.6718,,99.47916667,,,,,,FBP-YG-91.png,0.45,1.2,30,0.5,0,0,0,29,1,,,,,,,,,,,,,,,,,,,,,,,,,,,,,,,,,,,,,,,,
,,,,,V1_002,20,Female,2024-04-29_09h35.53.976,jersey_experiment_5_v1,2023.2.2,Win32,84.74576271,,,,,,,,,,,,,,,,279.6958,280.9896,280.9896,283.3097,return,1.1503,,93.22916667,,,,,,FBP-RB-19.png,0.37,1.2,57,0.5,0,1,1,56,1,,,,,,,,,,,,,,,,,,,,,,,,,,,,,,,,,,,,,,,,
,,,,,V1_002,20,Female,2024-04-29_09h35.53.976,jersey_experiment_5_v1,2023.2.2,Win32,84.74576271,,,,,,,,,,,,,,,,283.3099,284.6049,284.6049,286.9428,return,0.7786,,75.65104167,,,,,,FBP-YG-71.png,0.37,1.2,17,0.5,0,2,2,16,1,,,,,,,,,,,,,,,,,,,,,,,,,,,,,,,,,,,,,,,,
,,,,,V1_002,20,Female,2024-04-29_09h35.53.976,jersey_experiment_5_v1,2023.2.2,Win32,84.74576271,,,,,,,,,,,,,,,,286.9429,288.2369,288.2369,290.3782,return,0.6064,,99.34895833,,,,,,FBP-RB-18.png,0.45,1.2,55,0.5,0,3,3,54,1,,,,,,,,,,,,,,,,,,,,,,,,,,,,,,,,,,,,,,,,
,,,,,V1_002,20,Female,2024-04-29_09h35.53.976,jersey_experiment_5_v1,2023.2.2,Win32,84.74576271,,,,,,,,,,,,,,,,290.3784,291.6723,291.6723,294.5078,return,0.8637,,99.34895833,,,,,,FBP-RB-19.png,0.43,1.2,59,0.5,0,4,4,58,1,,,,,,,,,,,,,,,,,,,,,,,,,,,,,,,,,,,,,,,,
,,,,,V1_002,20,Female,2024-04-29_09h35.53.976,jersey_experiment_5_v1,2023.2.2,Win32,84.74576271,,,,,,,,,,,,,,,,294.508,296.3078,296.3078,299.5197,return,0.7438,,38.28125,,,,,,FBP-PT-17.png,0.4,1.2,3,1,0,5,5,2,1,,,,,,,,,,,,,,,,,,,,,,,,,,,,,,,,,,,,,,,,
,,,,,V1_002,20,Female,2024-04-29_09h35.53.976,jersey_experiment_5_v1,2023.2.2,Win32,84.74576271,,,,,,,,,,,,,,,,299.5198,300.8139,300.8139,302.6299,return,0.5413,,74.34895833,,,,,,FBP-OG-71.png,0.43,1.2,34,0.5,0,6,6,33,1,,,,,,,,,,,,,,,,,,,,,,,,,,,,,,,,,,,,,,,,
,,,,,V1_002,20,Female,2024-04-29_09h35.53.976,jersey_experiment_5_v1,2023.2.2,Win32,84.74576271,,,,,,,,,,,,,,,,302.63,304.4257,304.4258,306.1435,return,0.754,,60.9375,,,,,,FBP-PT-18.png,0.37,1.2,7,1,0,7,7,6,1,,,,,,,,,,,,,,,,,,,,,,,,,,,,,,,,,,,,,,,,
,,,,,V1_002,20,Female,2024-04-29_09h35.53.976,jersey_experiment_5_v1,2023.2.2,Win32,84.74576271,,,,,,,,,,,,,,,,306.1436,307.4376,307.4376,309.0729,return,0.5885,,62.5,,,,,,FBP-OG-81.png,0.4,1.2,38,0.5,0,8,8,37,1,,,,,,,,,,,,,,,,,,,,,,,,,,,,,,,,,,,,,,,,
,,,,,V1_002,20,Female,2024-04-29_09h35.53.976,jersey_experiment_5_v1,2023.2.2,Win32,84.74576271,,,,,,,,,,,,,,,,309.073,310.8731,310.8731,312.1436,return,0.5895,,62.5,,,,,,FBP-PT-19.png,0.37,1.2,12,1,0,9,9,11,1,,,,,,,,,,,,,,,,,,,,,,,,,,,,,,,,,,,,,,,,
,,,,,V1_002,20,Female,2024-04-29_09h35.53.976,jersey_experiment_5_v1,2023.2.2,Win32,84.74576271,,,,,,,,,,,,,,,,312.1437,313.4379,313.4379,317.7439,return,0.8121,,0.260416667,,,,,,FBP-OG-81.png,0.35,1.2,36,0.5,0,10,10,35,1,,,,,,,,,,,,,,,,,,,,,,,,,,,,,,,,,,,,,,,,
,,,,,V1_002,20,Female,2024-04-29_09h35.53.976,jersey_experiment_5_v1,2023.2.2,Win32,84.74576271,,,,,,,,,,,,,,,,317.744,319.0379,319.0379,320.7205,return,0.6476,,11.58854167,,,,,,FBP-OG-81.png,0.37,1.2,37,0.5,0,11,11,36,1,,,,,,,,,,,,,,,,,,,,,,,,,,,,,,,,,,,,,,,,
,,,,,V1_002,20,Female,2024-04-29_09h35.53.976,jersey_experiment_5_v1,2023.2.2,Win32,84.74576271,,,,,,,,,,,,,,,,320.7208,322.0147,322.0147,324.544,return,0.79,,98.95833333,,,,,,FBP-RB-18.png,0.43,1.2,54,0.5,0,12,12,53,1,,,,,,,,,,,,,,,,,,,,,,,,,,,,,,,,,,,,,,,,
,,,,,V1_002,20,Female,2024-04-29_09h35.53.976,jersey_experiment_5_v1,2023.2.2,Win32,84.74576271,,,,,,,,,,,,,,,,324.5442,325.8382,325.8383,328.4428,return,0.5972,,86.84895833,,,,,,FBP-OG-71.png,0.4,1.2,33,0.5,0,13,13,32,1,,,,,,,,,,,,,,,,,,,,,,,,,,,,,,,,,,,,,,,,
,,,,,V1_002,20,Female,2024-04-29_09h35.53.976,jersey_experiment_5_v1,2023.2.2,Win32,84.74576271,,,,,,,,,,,,,,,,328.4428,329.7372,329.7372,331.7796,return,0.6957,,98.828125,,,,,,FBP-RB-18.png,0.4,1.2,53,0.5,0,14,14,52,1,,,,,,,,,,,,,,,,,,,,,,,,,,,,,,,,,,,,,,,,
,,,,,V1_002,20,Female,2024-04-29_09h35.53.976,jersey_experiment_5_v1,2023.2.2,Win32,84.74576271,,,,,,,,,,,,,,,,331.7797,333.5822,333.5822,335.1681,return,0.5789,,60.80729167,,,,,,FBP-PT-18.png,0.4,1.2,8,1,0,15,15,7,1,,,,,,,,,,,,,,,,,,,,,,,,,,,,,,,,,,,,,,,,
,,,,,V1_002,20,Female,2024-04-29_09h35.53.976,jersey_experiment_5_v1,2023.2.2,Win32,84.74576271,,,,,,,,,,,,,,,,335.1682,336.4623,336.4623,338.2893,return,0.6701,,36.97916667,,,,,,FBP-OG-91.png,0.37,1.2,42,0.5,0,16,16,41,1,,,,,,,,,,,,,,,,,,,,,,,,,,,,,,,,,,,,,,,,
,,,,,V1_002,20,Female,2024-04-29_09h35.53.976,jersey_experiment_5_v1,2023.2.2,Win32,84.74576271,,,,,,,,,,,,,,,,338.2895,340.0858,340.0859,341.8193,return,0.7884,,39.58333333,,,,,,FBP-PT-18.png,0.43,1.2,9,1,0,17,17,8,1,,,,,,,,,,,,,,,,,,,,,,,,,,,,,,,,,,,,,,,,
,,,,,V1_002,20,Female,2024-04-29_09h35.53.976,jersey_experiment_5_v1,2023.2.2,Win32,84.74576271,,,,,,,,,,,,,,,,341.8194,343.1133,343.1133,345.2273,return,0.6763,,97.39583333,,,,,,FBP-OG-71.png,0.45,1.2,35,0.5,0,18,18,34,1,,,,,,,,,,,,,,,,,,,,,,,,,,,,,,,,,,,,,,,,
,,,,,V1_002,20,Female,2024-04-29_09h35.53.976,jersey_experiment_5_v1,2023.2.2,Win32,84.74576271,,,,,,,,,,,,,,,,345.2275,346.5215,346.5215,350.4914,return,0.7424,,0.520833333,,,,,,FBP-OG-91.png,0.35,1.2,41,0.5,0,19,19,40,1,,,,,,,,,,,,,,,,,,,,,,,,,,,,,,,,,,,,,,,,
,,,,,V1_002,20,Female,2024-04-29_09h35.53.976,jersey_experiment_5_v1,2023.2.2,Win32,84.74576271,,,,,,,,,,,,,,,,350.4915,351.7922,351.7922,353.2197,return,0.6707,,0.520833333,,,,,,FBP-RB-18.png,0.35,1.2,51,0.5,0,20,20,50,1,,,,,,,,,,,,,,,,,,,,,,,,,,,,,,,,,,,,,,,,
,,,,,V1_002,20,Female,2024-04-29_09h35.53.976,jersey_experiment_5_v1,2023.2.2,Win32,84.74576271,,,,,,,,,,,,,,,,353.2199,354.5217,354.5218,356.6788,return,0.7294,,7.682291667,,,,,,FBP-OG-71.png,0.37,1.2,32,0.5,0,21,21,31,1,,,,,,,,,,,,,,,,,,,,,,,,,,,,,,,,,,,,,,,,
,,,,,V1_002,20,Female,2024-04-29_09h35.53.976,jersey_experiment_5_v1,2023.2.2,Win32,84.74576271,,,,,,,,,,,,,,,,356.6791,357.9807,357.9808,360.5612,return,0.8695,,98.30729167,,,,,,FBP-RB-19.png,0.45,1.2,60,0.5,0,22,22,59,1,,,,,,,,,,,,,,,,,,,,,,,,,,,,,,,,,,,,,,,,
,,,,,V1_002,20,Female,2024-04-29_09h35.53.976,jersey_experiment_5_v1,2023.2.2,Win32,84.74576271,,,,,,,,,,,,,,,,360.5613,361.8553,361.8553,364.522,return,0.7004,,25.26041667,,,,,,FBP-OG-71.png,0.35,1.2,31,0.5,0,23,23,30,1,,,,,,,,,,,,,,,,,,,,,,,,,,,,,,,,,,,,,,,,
,,,,,V1_002,20,Female,2024-04-29_09h35.53.976,jersey_experiment_5_v1,2023.2.2,Win32,84.74576271,,,,,,,,,,,,,,,,364.5222,365.8162,365.8163,369.4305,return,0.8571,,50.52083333,,,,,,FBP-RB-18.png,0.37,1.2,52,0.5,0,24,24,51,1,,,,,,,,,,,,,,,,,,,,,,,,,,,,,,,,,,,,,,,,
,,,,,V1_002,20,Female,2024-04-29_09h35.53.976,jersey_experiment_5_v1,2023.2.2,Win32,84.74576271,,,,,,,,,,,,,,,,369.4306,370.7224,370.7224,373.6913,return,0.7531,,75.390625,,,,,,FBP-OG-81.png,0.43,1.2,39,0.5,0,25,25,38,1,,,,,,,,,,,,,,,,,,,,,,,,,,,,,,,,,,,,,,,,
,,,,,V1_002,20,Female,2024-04-29_09h35.53.976,jersey_experiment_5_v1,2023.2.2,Win32,84.74576271,,,,,,,,,,,,,,,,373.6915,374.985,374.985,377.7225,return,0.7941,,75.390625,,,,,,FBP-YG-71.png,0.4,1.2,18,0.5,0,26,26,17,1,,,,,,,,,,,,,,,,,,,,,,,,,,,,,,,,,,,,,,,,
,,,,,V1_002,20,Female,2024-04-29_09h35.53.976,jersey_experiment_5_v1,2023.2.2,Win32,84.74576271,,,,,,,,,,,,,,,,377.7228,379.0169,379.0169,381.9346,return,0.8275,,86.84895833,,,,,,FBP-YG-91.png,0.43,1.2,29,0.5,0,27,27,28,1,,,,,,,,,,,,,,,,,,,,,,,,,,,,,,,,,,,,,,,,
,,,,,V1_002,20,Female,2024-04-29_09h35.53.976,jersey_experiment_5_v1,2023.2.2,Win32,84.74576271,,,,,,,,,,,,,,,,381.9347,383.2288,383.2288,386.1112,return,1.4145,,83.33333333,,,,,,FBP-YG-71.png,0.35,1.2,16,0.5,0,28,28,15,1,,,,,,,,,,,,,,,,,,,,,,,,,,,,,,,,,,,,,,,,
,,,,,V1_002,20,Female,2024-04-29_09h35.53.976,jersey_experiment_5_v1,2023.2.2,Win32,84.74576271,,,,,,,,,,,,,,,,386.1113,387.4055,387.4055,390.0409,return,0.7609,,24.34895833,,,,,,FBP-YG-91.png,0.35,1.2,26,0.5,0,29,29,25,1,,,,,,,,,,,,,,,,,,,,,,,,,,,,,,,,,,,,,,,,
,,,,,V1_002,20,Female,2024-04-29_09h35.53.976,jersey_experiment_5_v1,2023.2.2,Win32,84.74576271,,,,,,,,,,,,,,,,390.041,391.335,391.335,395.8057,return,1.4266,,57.421875,,,,,,FBP-YG-81.png,0.35,1.2,21,0.5,0,30,30,20,1,,,,,,,,,,,,,,,,,,,,,,,,,,,,,,,,,,,,,,,,
,,,,,V1_002,20,Female,2024-04-29_09h35.53.976,jersey_experiment_5_v1,2023.2.2,Win32,84.74576271,,,,,,,,,,,,,,,,395.806,397.5991,397.5992,399.551,return,0.7162,,99.86979167,,,,,,FBP-PT-17.png,0.45,1.2,5,1,0,31,31,4,1,,,,,,,,,,,,,,,,,,,,,,,,,,,,,,,,,,,,,,,,
,,,,,V1_002,20,Female,2024-04-29_09h35.53.976,jersey_experiment_5_v1,2023.2.2,Win32,84.74576271,,,,,,,,,,,,,,,,399.5511,400.8566,400.8566,403.7119,return,0.7052,,99.86979167,,,,,,FBP-RB-17.png,0.4,1.2,48,0.5,0,32,32,47,1,,,,,,,,,,,,,,,,,,,,,,,,,,,,,,,,,,,,,,,,
,,,,,V1_002,20,Female,2024-04-29_09h35.53.976,jersey_experiment_5_v1,2023.2.2,Win32,84.74576271,,,,,,,,,,,,,,,,403.7121,405.006,405.0061,407.5382,return,0.7281,,75.78125,,,,,,FBP-YG-81.png,0.37,1.2,22,0.5,0,33,33,21,1,,,,,,,,,,,,,,,,,,,,,,,,,,,,,,,,,,,,,,,,
,,,,,V1_002,20,Female,2024-04-29_09h35.53.976,jersey_experiment_5_v1,2023.2.2,Win32,84.74576271,,,,,,,,,,,,,,,,407.5385,408.8415,408.8415,412.524,return,0.9687,,61.71875,,,,,,FBP-YG-91.png,0.37,1.2,27,0.5,0,34,34,26,1,,,,,,,,,,,,,,,,,,,,,,,,,,,,,,,,,,,,,,,,
,,,,,V1_002,20,Female,2024-04-29_09h35.53.976,jersey_experiment_5_v1,2023.2.2,Win32,84.74576271,,,,,,,,,,,,,,,,412.5241,413.8182,413.8182,416.1046,return,0.8004,,99.47916667,,,,,,FBP-RB-17.png,0.43,1.2,49,0.5,0,35,35,48,1,,,,,,,,,,,,,,,,,,,,,,,,,,,,,,,,,,,,,,,,
,,,,,V1_002,20,Female,2024-04-29_09h35.53.976,jersey_experiment_5_v1,2023.2.2,Win32,84.74576271,,,,,,,,,,,,,,,,416.1048,417.9059,417.906,420.8419,return,0.7006,,50.26041667,,,,,,FBP-PT-19.png,0.35,1.2,11,1,0,36,36,10,1,,,,,,,,,,,,,,,,,,,,,,,,,,,,,,,,,,,,,,,,
,,,,,V1_002,20,Female,2024-04-29_09h35.53.976,jersey_experiment_5_v1,2023.2.2,Win32,84.74576271,,,,,,,,,,,,,,,,420.8421,422.1361,422.1361,434.666,return,10.1473,,99.73958333,,,,,,FBP-OG-91.png,0.45,1.2,45,0.5,0,37,37,44,1,,,,,,,,,,,,,,,,,,,,,,,,,,,,,,,,,,,,,,,,
,,,,,V1_002,20,Female,2024-04-29_09h35.53.976,jersey_experiment_5_v1,2023.2.2,Win32,84.74576271,,,,,,,,,,,,,,,,434.6705,436.47,436.47,438.3014,return,0.5802,,99.609375,,,,,,FBP-PT-19.png,0.45,1.2,15,1,0,38,38,14,1,,,,,,,,,,,,,,,,,,,,,,,,,,,,,,,,,,,,,,,,
,,,,,V1_002,20,Female,2024-04-29_09h35.53.976,jersey_experiment_5_v1,2023.2.2,Win32,84.74576271,,,,,,,,,,,,,,,,438.3016,440.1033,440.1033,441.3251,return,0.4745,,50.26041667,,,,,,FBP-PT-17.png,0.37,1.2,2,1,0,39,39,1,1,,,,,,,,,,,,,,,,,,,,,,,,,,,,,,,,,,,,,,,,
,,,,,V1_002,20,Female,2024-04-29_09h35.53.976,jersey_experiment_5_v1,2023.2.2,Win32,84.74576271,,,,,,,,,,,,,,,,441.3253,442.6192,442.6192,444.3016,return,0.6958,,97.65625,,,,,,FBP-OG-81.png,0.45,1.2,40,0.5,0,40,40,39,1,,,,,,,,,,,,,,,,,,,,,,,,,,,,,,,,,,,,,,,,
,,,,,V1_002,20,Female,2024-04-29_09h35.53.976,jersey_experiment_5_v1,2023.2.2,Win32,84.74576271,,,,,,,,,,,,,,,,444.3018,445.6015,445.6015,446.682,return,0.1783,,37.63020833,,,,,,FBP-RB-17.png,0.35,1.2,46,0.5,0,41,41,45,1,,,,,,,,,,,,,,,,,,,,,,,,,,,,,,,,,,,,,,,,
,,,,,V1_002,20,Female,2024-04-29_09h35.53.976,jersey_experiment_5_v1,2023.2.2,Win32,84.74576271,,,,,,,,,,,,,,,,446.6822,448.4827,448.4827,450.537,return,0.8196,,39.0625,,,,,,FBP-PT-18.png,0.35,1.2,6,1,0,42,42,5,1,,,,,,,,,,,,,,,,,,,,,,,,,,,,,,,,,,,,,,,,
,,,,,V1_002,20,Female,2024-04-29_09h35.53.976,jersey_experiment_5_v1,2023.2.2,Win32,84.74576271,,,,,,,,,,,,,,,,450.5371,452.3417,452.3417,454.1884,return,0.5891,,87.890625,,,,,,FBP-PT-19.png,0.43,1.2,14,1,0,43,43,13,1,,,,,,,,,,,,,,,,,,,,,,,,,,,,,,,,,,,,,,,,
,,,,,V1_002,20,Female,2024-04-29_09h35.53.976,jersey_experiment_5_v1,2023.2.2,Win32,84.74576271,,,,,,,,,,,,,,,,454.1885,455.4947,455.4947,457.408,return,0.5418,,62.5,,,,,,FBP-YG-81.png,0.4,1.2,23,0.5,0,44,44,22,1,,,,,,,,,,,,,,,,,,,,,,,,,,,,,,,,,,,,,,,,
,,,,,V1_002,20,Female,2024-04-29_09h35.53.976,jersey_experiment_5_v1,2023.2.2,Win32,84.74576271,,,,,,,,,,,,,,,,457.4081,458.7022,458.7022,460.314,return,0.2524,,93.88020833,,,,,,FBP-YG-91.png,0.4,1.2,28,0.5,0,45,45,27,1,,,,,,,,,,,,,,,,,,,,,,,,,,,,,,,,,,,,,,,,
,,,,,V1_002,20,Female,2024-04-29_09h35.53.976,jersey_experiment_5_v1,2023.2.2,Win32,84.74576271,,,,,,,,,,,,,,,,460.3142,462.1057,462.1058,463.6435,return,0.1602,,66.66666667,,,,,,FBP-PT-17.png,0.35,1.2,1,1,0,46,46,0,1,,,,,,,,,,,,,,,,,,,,,,,,,,,,,,,,,,,,,,,,
,,,,,V1_002,20,Female,2024-04-29_09h35.53.976,jersey_experiment_5_v1,2023.2.2,Win32,84.74576271,,,,,,,,,,,,,,,,463.6436,465.4434,465.4434,468.6201,return,0.309,,75,,,,,,FBP-PT-19.png,0.4,1.2,13,1,0,47,47,12,1,,,,,,,,,,,,,,,,,,,,,,,,,,,,,,,,,,,,,,,,
,,,,,V1_002,20,Female,2024-04-29_09h35.53.976,jersey_experiment_5_v1,2023.2.2,Win32,84.74576271,,,,,,,,,,,,,,,,468.6203,469.9144,469.9144,470.9968,return,0.3187,,62.23958333,,,,,,FBP-RB-17.png,0.37,1.2,47,0.5,0,48,48,46,1,,,,,,,,,,,,,,,,,,,,,,,,,,,,,,,,,,,,,,,,
,,,,,V1_002,20,Female,2024-04-29_09h35.53.976,jersey_experiment_5_v1,2023.2.2,Win32,84.74576271,,,,,,,,,,,,,,,,470.9968,472.2909,472.2909,473.6252,return,0.2362,,87.63020833,,,,,,FBP-YG-71.png,0.45,1.2,20,0.5,0,49,49,19,1,,,,,,,,,,,,,,,,,,,,,,,,,,,,,,,,,,,,,,,,
,,,,,V1_002,20,Female,2024-04-29_09h35.53.976,jersey_experiment_5_v1,2023.2.2,Win32,84.74576271,,,,,,,,,,,,,,,,473.6254,474.9264,474.9264,480.191,return,0.4372,,73.4375,,,,,,FBP-RB-19.png,0.4,1.2,58,0.5,0,50,50,57,1,,,,,,,,,,,,,,,,,,,,,,,,,,,,,,,,,,,,,,,,
,,,,,V1_002,20,Female,2024-04-29_09h35.53.976,jersey_experiment_5_v1,2023.2.2,Win32,84.74576271,,,,,,,,,,,,,,,,480.1911,481.9898,481.9898,483.3853,return,0.0779,,61.97916667,,,,,,FBP-PT-17.png,0.43,1.2,4,1,0,51,51,3,1,,,,,,,,,,,,,,,,,,,,,,,,,,,,,,,,,,,,,,,,
,,,,,V1_002,20,Female,2024-04-29_09h35.53.976,jersey_experiment_5_v1,2023.2.2,Win32,84.74576271,,,,,,,,,,,,,,,,483.3855,484.6795,484.6795,489.5504,return,0.2614,,62.36979167,,,,,,FBP-RB-17.png,0.45,1.2,50,0.5,0,52,52,49,1,,,,,,,,,,,,,,,,,,,,,,,,,,,,,,,,,,,,,,,,
,,,,,V1_002,20,Female,2024-04-29_09h35.53.976,jersey_experiment_5_v1,2023.2.2,Win32,84.74576271,,,,,,,,,,,,,,,,489.5506,490.8445,490.8446,493.1059,return,0.4923,,97.39583333,,,,,,FBP-YG-81.png,0.45,1.2,25,0.5,0,53,53,24,1,,,,,,,,,,,,,,,,,,,,,,,,,,,,,,,,,,,,,,,,
,,,,,V1_002,20,Female,2024-04-29_09h35.53.976,jersey_experiment_5_v1,2023.2.2,Win32,84.74576271,,,,,,,,,,,,,,,,493.106,494.3977,494.3977,504.2331,return,1.3739,,87.76041667,,,,,,FBP-OG-91.png,0.43,1.2,44,0.5,0,54,54,43,1,,,,,,,,,,,,,,,,,,,,,,,,,,,,,,,,,,,,,,,,
,,,,,V1_002,20,Female,2024-04-29_09h35.53.976,jersey_experiment_5_v1,2023.2.2,Win32,84.74576271,,,,,,,,,,,,,,,,504.2333,506.0379,506.038,507.0687,return,0.0762,,99.47916667,,,,,,FBP-PT-18.png,0.45,1.2,10,1,0,55,55,9,1,,,,,,,,,,,,,,,,,,,,,,,,,,,,,,,,,,,,,,,,
,,,,,V1_002,20,Female,2024-04-29_09h35.53.976,jersey_experiment_5_v1,2023.2.2,Win32,84.74576271,,,,,,,,,,,,,,,,507.0689,508.3628,508.3629,510.4334,return,0.2948,,25.13020833,,,,,,FBP-RB-19.png,0.35,1.2,56,0.5,0,56,56,55,1,,,,,,,,,,,,,,,,,,,,,,,,,,,,,,,,,,,,,,,,
,,,,,V1_002,20,Female,2024-04-29_09h35.53.976,jersey_experiment_5_v1,2023.2.2,Win32,84.74576271,,,,,,,,,,,,,,,,510.4337,511.7277,511.7277,514.4967,return,0.2708,,60.9375,,,,,,FBP-OG-91.png,0.4,1.2,43,0.5,0,57,57,42,1,,,,,,,,,,,,,,,,,,,,,,,,,,,,,,,,,,,,,,,,
,,,,,V1_002,20,Female,2024-04-29_09h35.53.976,jersey_experiment_5_v1,2023.2.2,Win32,84.74576271,,,,,,,,,,,,,,,,514.4968,515.7984,515.7984,517.0741,return,0.2127,,92.578125,,,,,,FBP-YG-81.png,0.43,1.2,24,0.5,0,58,58,23,1,,,,,,,,,,,,,,,,,,,,,,,,,,,,,,,,,,,,,,,,
,,,,,V1_002,20,Female,2024-04-29_09h35.53.976,jersey_experiment_5_v1,2023.2.2,Win32,84.74576271,,,,,,,,,,,,,,,,517.0741,518.3748,518.3749,519.4339,return,0.0408,,94.53125,,,,,,FBP-YG-71.png,0.43,1.2,19,0.5,0,59,59,18,1,,,,,,,,,,,,,,,,,,,,,,,,,,,,,,,,,,,,,,,,
,,,,,V1_002,20,Female,2024-04-29_09h35.53.976,jersey_experiment_5_v1,2023.2.2,Win32,84.74576271,,,,,,,,,,,,,,,,,,,,,,,,,,,,,,,,,,,,,,,519.4342,639.4386,,,,,,,,,,,,,,,,,,,,,,,,,,,,,,,,,,,,,,
,,,,,V1_002,20,Female,2024-04-29_09h35.53.976,jersey_experiment_5_v1,2023.2.2,Win32,84.74576271,,,,,,,,,,,,,,,,,,,,,,,,,,,,,,,,,,,,,,,,,639.4387,966.7335,return,327.2766,,,,,,,,,,,,,,,,,,,,,,,,,,,,,,,,,,
,,,,,V1_002,20,Female,2024-04-29_09h35.53.976,jersey_experiment_5_v1,2023.2.2,Win32,84.74576271,,,,,,,,,,,,,,,,966.7396,968.0435,968.0435,988.228,return,1.4019,,63.41145833,,,,,,FBP-PT-71.png,0.35,1.2,1,0.5,,,,,,,,,,,,,0,0,0,0,1,,,,,,,,,,,,,,,,,,,,,,,,,,,,
,,,,,V1_002,20,Female,2024-04-29_09h35.53.976,jersey_experiment_5_v1,2023.2.2,Win32,84.74576271,,,,,,,,,,,,,,,,988.2284,990.0281,990.0281,992.913,return,1.0829,,24.21875,,,,,,FBP-OG-18.png,0.35,1.2,36,1,,,,,,,,,,,,,0,1,1,35,1,,,,,,,,,,,,,,,,,,,,,,,,,,,,
,,,,,V1_002,20,Female,2024-04-29_09h35.53.976,jersey_experiment_5_v1,2023.2.2,Win32,84.74576271,,,,,,,,,,,,,,,,992.9132,994.7106,994.7106,997.3617,return,1.6591,,39.453125,,,,,,FBP-OG-18.png,0.37,1.2,37,1,,,,,,,,,,,,,0,2,2,36,1,,,,,,,,,,,,,,,,,,,,,,,,,,,,
,,,,,V1_002,20,Female,2024-04-29_09h35.53.976,jersey_experiment_5_v1,2023.2.2,Win32,84.74576271,,,,,,,,,,,,,,,,997.3619,999.1578,999.1578,1001.605,return,0.7525,,98.4375,,,,,,FBP-RB-71.png,0.43,1.2,49,1,,,,,,,,,,,,,0,3,3,48,1,,,,,,,,,,,,,,,,,,,,,,,,,,,,
,,,,,V1_002,20,Female,2024-04-29_09h35.53.976,jersey_experiment_5_v1,2023.2.2,Win32,84.74576271,,,,,,,,,,,,,,,,1001.6051,1002.899,1002.899,1005.5488,return,0.6811,,99.73958333,,,,,,FBP-PT-91.png,0.43,1.2,14,0.5,,,,,,,,,,,,,0,4,4,13,1,,,,,,,,,,,,,,,,,,,,,,,,,,,,
,,,,,V1_002,20,Female,2024-04-29_09h35.53.976,jersey_experiment_5_v1,2023.2.2,Win32,84.74576271,,,,,,,,,,,,,,,,1005.5489,1007.3411,1007.3411,1009.0758,return,0.6239,,24.73958333,,,,,,FBP-YG-19.png,0.35,1.2,26,1,,,,,,,,,,,,,0,5,5,25,1,,,,,,,,,,,,,,,,,,,,,,,,,,,,
,,,,,V1_002,20,Female,2024-04-29_09h35.53.976,jersey_experiment_5_v1,2023.2.2,Win32,84.74576271,,,,,,,,,,,,,,,,1009.076,1010.8799,1010.8799,1017.9152,return,0.6689,,74.47916667,,,,,,FBP-YG-17.png,0.37,1.2,17,1,,,,,,,,,,,,,0,6,6,16,1,,,,,,,,,,,,,,,,,,,,,,,,,,,,
,,,,,V1_002,20,Female,2024-04-29_09h35.53.976,jersey_experiment_5_v1,2023.2.2,Win32,84.74576271,,,,,,,,,,,,,,,,1017.9154,1019.7115,1019.7115,1021.4763,return,0.7181,,99.08854167,,,,,,FBP-OG-18.png,0.45,1.2,40,1,,,,,,,,,,,,,0,7,7,39,1,,,,,,,,,,,,,,,,,,,,,,,,,,,,
,,,,,V1_002,20,Female,2024-04-29_09h35.53.976,jersey_experiment_5_v1,2023.2.2,Win32,84.74576271,,,,,,,,,,,,,,,,1021.4766,1023.2818,1023.2818,1026.9708,return,1.0184,,74.73958333,,,,,,FBP-YG-18.png,0.4,1.2,23,1,,,,,,,,,,,,,0,8,8,22,1,,,,,,,,,,,,,,,,,,,,,,,,,,,,
,,,,,V1_002,20,Female,2024-04-29_09h35.53.976,jersey_experiment_5_v1,2023.2.2,Win32,84.74576271,,,,,,,,,,,,,,,,1026.971,1028.7626,1028.7626,1030.5942,return,0.6591,,77.21354167,,,,,,FBP-OG-19.png,0.45,1.2,45,1,,,,,,,,,,,,,0,9,9,44,1,,,,,,,,,,,,,,,,,,,,,,,,,,,,
,,,,,V1_002,20,Female,2024-04-29_09h35.53.976,jersey_experiment_5_v1,2023.2.2,Win32,84.74576271,,,,,,,,,,,,,,,,1030.5944,1031.8884,1031.8884,1034.0927,return,0.7751,,62.23958333,,,,,,FBP-PT-81.png,0.37,1.2,7,0.5,,,,,,,,,,,,,0,10,10,6,1,,,,,,,,,,,,,,,,,,,,,,,,,,,,
,,,,,V1_002,20,Female,2024-04-29_09h35.53.976,jersey_experiment_5_v1,2023.2.2,Win32,84.74576271,,,,,,,,,,,,,,,,1034.0928,1035.8909,1035.8909,1037.6651,return,0.683,,99.609375,,,,,,FBP-RB-71.png,0.45,1.2,50,1,,,,,,,,,,,,,0,11,11,49,1,,,,,,,,,,,,,,,,,,,,,,,,,,,,
,,,,,V1_002,20,Female,2024-04-29_09h35.53.976,jersey_experiment_5_v1,2023.2.2,Win32,84.74576271,,,,,,,,,,,,,,,,1037.6652,1039.4652,1039.4652,1044.9986,return,0.8348,,61.71875,,,,,,FBP-RB-91.png,0.4,1.2,58,1,,,,,,,,,,,,,0,12,12,57,1,,,,,,,,,,,,,,,,,,,,,,,,,,,,
,,,,,V1_002,20,Female,2024-04-29_09h35.53.976,jersey_experiment_5_v1,2023.2.2,Win32,84.74576271,,,,,,,,,,,,,,,,1044.9989,1046.2927,1046.2927,1050.4657,return,1.9414,,99.47916667,,,,,,FBP-PT-81.png,0.45,1.2,10,0.5,,,,,,,,,,,,,0,13,13,9,1,,,,,,,,,,,,,,,,,,,,,,,,,,,,
,,,,,V1_002,20,Female,2024-04-29_09h35.53.976,jersey_experiment_5_v1,2023.2.2,Win32,84.74576271,,,,,,,,,,,,,,,,1050.4658,1052.2657,1052.2657,1054.548,return,0.6343,,60.9375,,,,,,FBP-OG-19.png,0.4,1.2,43,1,,,,,,,,,,,,,0,14,14,42,1,,,,,,,,,,,,,,,,,,,,,,,,,,,,
,,,,,V1_002,20,Female,2024-04-29_09h35.53.976,jersey_experiment_5_v1,2023.2.2,Win32,84.74576271,,,,,,,,,,,,,,,,1054.5482,1056.3404,1056.3404,1063.6779,return,0.627,,60.9375,,,,,,FBP-OG-17.png,0.45,1.2,35,1,,,,,,,,,,,,,0,15,15,34,1,,,,,,,,,,,,,,,,,,,,,,,,,,,,
,,,,,V1_002,20,Female,2024-04-29_09h35.53.976,jersey_experiment_5_v1,2023.2.2,Win32,84.74576271,,,,,,,,,,,,,,,,1063.6782,1064.9742,1064.9742,1066.9393,return,0.7403,,98.56770833,,,,,,FBP-PT-91.png,0.45,1.2,15,0.5,,,,,,,,,,,,,0,16,16,14,1,,,,,,,,,,,,,,,,,,,,,,,,,,,,
,,,,,V1_002,20,Female,2024-04-29_09h35.53.976,jersey_experiment_5_v1,2023.2.2,Win32,84.74576271,,,,,,,,,,,,,,,,1066.9395,1068.7369,1068.7369,1075.549,return,0.6748,,62.890625,,,,,,FBP-YG-19.png,0.43,1.2,29,1,,,,,,,,,,,,,0,17,17,28,1,,,,,,,,,,,,,,,,,,,,,,,,,,,,
,,,,,V1_002,20,Female,2024-04-29_09h35.53.976,jersey_experiment_5_v1,2023.2.2,Win32,84.74576271,,,,,,,,,,,,,,,,1075.5492,1077.3536,1077.3536,1081.6942,return,0.9431,,99.73958333,,,,,,FBP-OG-19.png,0.43,1.2,44,1,,,,,,,,,,,,,0,18,18,43,1,,,,,,,,,,,,,,,,,,,,,,,,,,,,
,,,,,V1_002,20,Female,2024-04-29_09h35.53.976,jersey_experiment_5_v1,2023.2.2,Win32,84.74576271,,,,,,,,,,,,,,,,1081.6943,1083.4927,1083.4927,1085.267,return,0.9769,,99.73958333,,,,,,FBP-RB-81.png,0.45,1.2,55,1,,,,,,,,,,,,,0,19,19,54,1,,,,,,,,,,,,,,,,,,,,,,,,,,,,
,,,,,V1_002,20,Female,2024-04-29_09h35.53.976,jersey_experiment_5_v1,2023.2.2,Win32,84.74576271,,,,,,,,,,,,,,,,1085.2671,1086.5611,1086.5611,1093.6711,return,0.9269,,99.73958333,,,,,,FBP-PT-81.png,0.43,1.2,9,0.5,,,,,,,,,,,,,0,20,20,8,1,,,,,,,,,,,,,,,,,,,,,,,,,,,,
,,,,,V1_002,20,Female,2024-04-29_09h35.53.976,jersey_experiment_5_v1,2023.2.2,Win32,84.74576271,,,,,,,,,,,,,,,,1093.6713,1094.9669,1094.9669,1099.585,return,0.9545,,60.67708333,,,,,,FBP-PT-81.png,0.35,1.2,6,0.5,,,,,,,,,,,,,0,21,21,5,1,,,,,,,,,,,,,,,,,,,,,,,,,,,,
,,,,,V1_002,20,Female,2024-04-29_09h35.53.976,jersey_experiment_5_v1,2023.2.2,Win32,84.74576271,,,,,,,,,,,,,,,,1099.5851,1101.3776,1101.3776,1104.6583,return,0.6808,,50,,,,,,FBP-RB-91.png,0.37,1.2,57,1,,,,,,,,,,,,,0,22,22,56,1,,,,,,,,,,,,,,,,,,,,,,,,,,,,
,,,,,V1_002,20,Female,2024-04-29_09h35.53.976,jersey_experiment_5_v1,2023.2.2,Win32,84.74576271,,,,,,,,,,,,,,,,1104.6584,1105.9502,1105.9502,1110.7621,return,2.6079,,61.97916667,,,,,,FBP-PT-91.png,0.37,1.2,12,0.5,,,,,,,,,,,,,0,23,23,11,1,,,,,,,,,,,,,,,,,,,,,,,,,,,,
,,,,,V1_002,20,Female,2024-04-29_09h35.53.976,jersey_experiment_5_v1,2023.2.2,Win32,84.74576271,,,,,,,,,,,,,,,,1110.7623,1112.5671,1112.5671,1114.8132,return,1.0123,,61.97916667,,,,,,FBP-OG-17.png,0.37,1.2,32,1,,,,,,,,,,,,,0,24,24,31,1,,,,,,,,,,,,,,,,,,,,,,,,,,,,
,,,,,V1_002,20,Female,2024-04-29_09h35.53.976,jersey_experiment_5_v1,2023.2.2,Win32,84.74576271,,,,,,,,,,,,,,,,1114.8134,1116.6093,1116.6094,1119.4708,return,0.9162,,24.609375,,,,,,FBP-RB-81.png,0.35,1.2,51,1,,,,,,,,,,,,,0,25,25,50,1,,,,,,,,,,,,,,,,,,,,,,,,,,,,
,,,,,V1_002,20,Female,2024-04-29_09h35.53.976,jersey_experiment_5_v1,2023.2.2,Win32,84.74576271,,,,,,,,,,,,,,,,1119.4709,1121.2684,1121.2684,1124.4599,return,0.7993,,99.47916667,,,,,,FBP-YG-17.png,0.45,1.2,20,1,,,,,,,,,,,,,0,26,26,19,1,,,,,,,,,,,,,,,,,,,,,,,,,,,,
,,,,,V1_002,20,Female,2024-04-29_09h35.53.976,jersey_experiment_5_v1,2023.2.2,Win32,84.74576271,,,,,,,,,,,,,,,,1124.46,1126.2567,1126.2567,1129.2804,return,0.5773,,88.93229167,,,,,,FBP-OG-17.png,0.43,1.2,34,1,,,,,,,,,,,,,0,27,27,33,1,,,,,,,,,,,,,,,,,,,,,,,,,,,,
,,,,,V1_002,20,Female,2024-04-29_09h35.53.976,jersey_experiment_5_v1,2023.2.2,Win32,84.74576271,,,,,,,,,,,,,,,,1129.2806,1130.5745,1130.5745,1133.6607,return,1.7191,,74.609375,,,,,,FBP-PT-71.png,0.4,1.2,3,0.5,,,,,,,,,,,,,0,28,28,2,1,,,,,,,,,,,,,,,,,,,,,,,,,,,,
,,,,,V1_002,20,Female,2024-04-29_09h35.53.976,jersey_experiment_5_v1,2023.2.2,Win32,84.74576271,,,,,,,,,,,,,,,,1133.6609,1135.4618,1135.4618,1136.9198,return,0.659,,88.54166667,,,,,,FBP-YG-18.png,0.43,1.2,24,1,,,,,,,,,,,,,0,29,29,23,1,,,,,,,,,,,,,,,,,,,,,,,,,,,,
,,,,,V1_002,20,Female,2024-04-29_09h35.53.976,jersey_experiment_5_v1,2023.2.2,Win32,84.74576271,,,,,,,,,,,,,,,,1136.9199,1138.7197,1138.7198,1140.3167,return,0.5942,,98.828125,,,,,,FBP-YG-19.png,0.45,1.2,30,1,,,,,,,,,,,,,0,30,30,29,1,,,,,,,,,,,,,,,,,,,,,,,,,,,,
,,,,,V1_002,20,Female,2024-04-29_09h35.53.976,jersey_experiment_5_v1,2023.2.2,Win32,84.74576271,,,,,,,,,,,,,,,,1140.3168,1141.6143,1141.6144,1144.3224,return,0.9438,,83.72395833,,,,,,FBP-PT-71.png,0.37,1.2,2,0.5,,,,,,,,,,,,,0,31,31,1,1,,,,,,,,,,,,,,,,,,,,,,,,,,,,
,,,,,V1_002,20,Female,2024-04-29_09h35.53.976,jersey_experiment_5_v1,2023.2.2,Win32,84.74576271,,,,,,,,,,,,,,,,1144.3225,1146.1198,1146.1199,1147.8949,return,0.6471,,92.44791667,,,,,,FBP-YG-17.png,0.43,1.2,19,1,,,,,,,,,,,,,0,32,32,18,1,,,,,,,,,,,,,,,,,,,,,,,,,,,,
,,,,,V1_002,20,Female,2024-04-29_09h35.53.976,jersey_experiment_5_v1,2023.2.2,Win32,84.74576271,,,,,,,,,,,,,,,,1147.8951,1149.6929,1149.693,1151.4342,return,0.7007,,99.609375,,,,,,FBP-RB-91.png,0.43,1.2,59,1,,,,,,,,,,,,,0,33,33,58,1,,,,,,,,,,,,,,,,,,,,,,,,,,,,
,,,,,V1_002,20,Female,2024-04-29_09h35.53.976,jersey_experiment_5_v1,2023.2.2,Win32,84.74576271,,,,,,,,,,,,,,,,1151.4342,1153.2362,1153.2363,1161.5168,return,7.464,,99.34895833,,,,,,FBP-RB-81.png,0.4,1.2,53,1,,,,,,,,,,,,,0,34,34,52,1,,,,,,,,,,,,,,,,,,,,,,,,,,,,
,,,,,V1_002,20,Female,2024-04-29_09h35.53.976,jersey_experiment_5_v1,2023.2.2,Win32,84.74576271,,,,,,,,,,,,,,,,1161.5212,1163.317,1163.3171,1164.7994,return,0.6252,,99.08854167,,,,,,FBP-YG-18.png,0.45,1.2,25,1,,,,,,,,,,,,,0,35,35,24,1,,,,,,,,,,,,,,,,,,,,,,,,,,,,
,,,,,V1_002,20,Female,2024-04-29_09h35.53.976,jersey_experiment_5_v1,2023.2.2,Win32,84.74576271,,,,,,,,,,,,,,,,1164.7996,1166.0983,1166.0983,1169.2626,return,0.7297,,99.86979167,,,,,,FBP-PT-71.png,0.45,1.2,5,0.5,,,,,,,,,,,,,0,36,36,4,1,,,,,,,,,,,,,,,,,,,,,,,,,,,,
,,,,,V1_002,20,Female,2024-04-29_09h35.53.976,jersey_experiment_5_v1,2023.2.2,Win32,84.74576271,,,,,,,,,,,,,,,,1169.2627,1170.5643,1170.5643,1172.3906,return,0.6344,,88.15104167,,,,,,FBP-PT-91.png,0.4,1.2,13,0.5,,,,,,,,,,,,,0,37,37,12,1,,,,,,,,,,,,,,,,,,,,,,,,,,,,
,,,,,V1_002,20,Female,2024-04-29_09h35.53.976,jersey_experiment_5_v1,2023.2.2,Win32,84.74576271,,,,,,,,,,,,,,,,1172.3908,1174.1879,1174.1879,1175.8388,return,0.635,,74.73958333,,,,,,FBP-YG-17.png,0.4,1.2,18,1,,,,,,,,,,,,,0,38,38,17,1,,,,,,,,,,,,,,,,,,,,,,,,,,,,
,,,,,V1_002,20,Female,2024-04-29_09h35.53.976,jersey_experiment_5_v1,2023.2.2,Win32,84.74576271,,,,,,,,,,,,,,,,1175.839,1177.6394,1177.6394,1180.3294,return,0.7257,,36.06770833,,,,,,FBP-OG-19.png,0.35,1.2,41,1,,,,,,,,,,,,,0,39,39,40,1,,,,,,,,,,,,,,,,,,,,,,,,,,,,
,,,,,V1_002,20,Female,2024-04-29_09h35.53.976,jersey_experiment_5_v1,2023.2.2,Win32,84.74576271,,,,,,,,,,,,,,,,1180.3296,1182.1293,1182.1294,1184.7178,return,1.4505,,49.86979167,,,,,,FBP-OG-17.png,0.4,1.2,33,1,,,,,,,,,,,,,0,40,40,32,1,,,,,,,,,,,,,,,,,,,,,,,,,,,,
,,,,,V1_002,20,Female,2024-04-29_09h35.53.976,jersey_experiment_5_v1,2023.2.2,Win32,84.74576271,,,,,,,,,,,,,,,,1184.7179,1186.5226,1186.5227,1190.6238,return,0.7445,,99.86979167,,,,,,FBP-RB-91.png,0.45,1.2,60,1,,,,,,,,,,,,,0,41,41,59,1,,,,,,,,,,,,,,,,,,,,,,,,,,,,
,,,,,V1_002,20,Female,2024-04-29_09h35.53.976,jersey_experiment_5_v1,2023.2.2,Win32,84.74576271,,,,,,,,,,,,,,,,1190.624,1192.4171,1192.4171,1195.2828,return,1.6828,,24.34895833,,,,,,FBP-OG-19.png,0.37,1.2,42,1,,,,,,,,,,,,,0,42,42,41,1,,,,,,,,,,,,,,,,,,,,,,,,,,,,
,,,,,V1_002,20,Female,2024-04-29_09h35.53.976,jersey_experiment_5_v1,2023.2.2,Win32,84.74576271,,,,,,,,,,,,,,,,1195.2829,1197.0749,1197.0749,1205.3536,return,0.8058,,99.609375,,,,,,FBP-RB-71.png,0.4,1.2,48,1,,,,,,,,,,,,,0,43,43,47,1,,,,,,,,,,,,,,,,,,,,,,,,,,,,
,,,,,V1_002,20,Female,2024-04-29_09h35.53.976,jersey_experiment_5_v1,2023.2.2,Win32,84.74576271,,,,,,,,,,,,,,,,1205.3538,1207.1459,1207.1459,1211.9564,return,3.2567,,74.609375,,,,,,FBP-RB-91.png,0.35,1.2,56,1,,,,,,,,,,,,,0,44,44,55,1,,,,,,,,,,,,,,,,,,,,,,,,,,,,
,,,,,V1_002,20,Female,2024-04-29_09h35.53.976,jersey_experiment_5_v1,2023.2.2,Win32,84.74576271,,,,,,,,,,,,,,,,1211.9566,1213.7541,1213.7541,1221.0366,return,4.0166,,68.88020833,,,,,,FBP-RB-81.png,0.37,1.2,52,1,,,,,,,,,,,,,0,45,45,51,1,,,,,,,,,,,,,,,,,,,,,,,,,,,,
,,,,,V1_002,20,Female,2024-04-29_09h35.53.976,jersey_experiment_5_v1,2023.2.2,Win32,84.74576271,,,,,,,,,,,,,,,,1221.0369,1222.8434,1222.8434,1225.6644,return,1.2255,,56.77083333,,,,,,FBP-YG-17.png,0.35,1.2,16,1,,,,,,,,,,,,,0,46,46,15,1,,,,,,,,,,,,,,,,,,,,,,,,,,,,
,,,,,V1_002,20,Female,2024-04-29_09h35.53.976,jersey_experiment_5_v1,2023.2.2,Win32,84.74576271,,,,,,,,,,,,,,,,1225.6645,1226.9584,1226.9584,1238.3551,return,1.2709,,56.38020833,,,,,,FBP-PT-91.png,0.35,1.2,11,0.5,,,,,,,,,,,,,0,47,47,10,1,,,,,,,,,,,,,,,,,,,,,,,,,,,,
,,,,,V1_002,20,Female,2024-04-29_09h35.53.976,jersey_experiment_5_v1,2023.2.2,Win32,84.74576271,,,,,,,,,,,,,,,,1238.3553,1240.1481,1240.1482,1241.4989,return,0.5735,,99.609375,,,,,,FBP-OG-18.png,0.43,1.2,39,1,,,,,,,,,,,,,0,48,48,38,1,,,,,,,,,,,,,,,,,,,,,,,,,,,,
,,,,,V1_002,20,Female,2024-04-29_09h35.53.976,jersey_experiment_5_v1,2023.2.2,Win32,84.74576271,,,,,,,,,,,,,,,,1241.499,1242.7904,1242.7904,1243.7788,return,0.5267,,99.609375,,,,,,FBP-PT-71.png,0.43,1.2,4,0.5,,,,,,,,,,,,,0,49,49,3,1,,,,,,,,,,,,,,,,,,,,,,,,,,,,
,,,,,V1_002,20,Female,2024-04-29_09h35.53.976,jersey_experiment_5_v1,2023.2.2,Win32,84.74576271,,,,,,,,,,,,,,,,1243.779,1245.5788,1245.5788,1246.579,return,0.5898,,99.609375,,,,,,FBP-RB-81.png,0.43,1.2,54,1,,,,,,,,,,,,,0,50,50,53,1,,,,,,,,,,,,,,,,,,,,,,,,,,,,
,,,,,V1_002,20,Female,2024-04-29_09h35.53.976,jersey_experiment_5_v1,2023.2.2,Win32,84.74576271,,,,,,,,,,,,,,,,1246.579,1248.3722,1248.3722,1251.4261,return,2.8346,,77.08333333,,,,,,FBP-YG-18.png,0.37,1.2,22,1,,,,,,,,,,,,,0,51,51,21,1,,,,,,,,,,,,,,,,,,,,,,,,,,,,
,,,,,V1_002,20,Female,2024-04-29_09h35.53.976,jersey_experiment_5_v1,2023.2.2,Win32,84.74576271,,,,,,,,,,,,,,,,1251.4263,1253.2261,1253.2261,1259.6028,return,4.7655,,77.21354167,,,,,,FBP-YG-19.png,0.37,1.2,27,1,,,,,,,,,,,,,0,52,52,26,1,,,,,,,,,,,,,,,,,,,,,,,,,,,,
,,,,,V1_002,20,Female,2024-04-29_09h35.53.976,jersey_experiment_5_v1,2023.2.2,Win32,84.74576271,,,,,,,,,,,,,,,,1259.6072,1261.403,1261.403,1263.4501,return,0.7261,,64.97395833,,,,,,FBP-RB-71.png,0.37,1.2,47,1,,,,,,,,,,,,,0,53,53,46,1,,,,,,,,,,,,,,,,,,,,,,,,,,,,
,,,,,V1_002,20,Female,2024-04-29_09h35.53.976,jersey_experiment_5_v1,2023.2.2,Win32,84.74576271,,,,,,,,,,,,,,,,1263.4504,1265.2503,1265.2503,1268.4619,return,1.7782,,37.890625,,,,,,FBP-RB-71.png,0.35,1.2,46,1,,,,,,,,,,,,,0,54,54,45,1,,,,,,,,,,,,,,,,,,,,,,,,,,,,
,,,,,V1_002,20,Female,2024-04-29_09h35.53.976,jersey_experiment_5_v1,2023.2.2,Win32,84.74576271,,,,,,,,,,,,,,,,1268.4621,1270.2548,1270.2548,1273.474,return,0.9851,,75.390625,,,,,,FBP-OG-18.png,0.4,1.2,38,1,,,,,,,,,,,,,0,55,55,37,1,,,,,,,,,,,,,,,,,,,,,,,,,,,,
,,,,,V1_002,20,Female,2024-04-29_09h35.53.976,jersey_experiment_5_v1,2023.2.2,Win32,84.74576271,,,,,,,,,,,,,,,,1273.4742,1275.2777,1275.2777,1278.3682,return,0.7889,,50.13020833,,,,,,FBP-OG-17.png,0.35,1.2,31,1,,,,,,,,,,,,,0,56,56,30,1,,,,,,,,,,,,,,,,,,,,,,,,,,,,
,,,,,V1_002,20,Female,2024-04-29_09h35.53.976,jersey_experiment_5_v1,2023.2.2,Win32,84.74576271,,,,,,,,,,,,,,,,1278.3684,1279.6662,1279.6662,1282.9706,return,1.1276,,74.08854167,,,,,,FBP-PT-81.png,0.4,1.2,8,0.5,,,,,,,,,,,,,0,57,57,7,1,,,,,,,,,,,,,,,,,,,,,,,,,,,,
,,,,,V1_002,20,Female,2024-04-29_09h35.53.976,jersey_experiment_5_v1,2023.2.2,Win32,84.74576271,,,,,,,,,,,,,,,,1282.9707,1284.7726,1284.7727,1289.2159,return,2.8136,,86.328125,,,,,,FBP-YG-19.png,0.4,1.2,28,1,,,,,,,,,,,,,0,58,58,27,1,,,,,,,,,,,,,,,,,,,,,,,,,,,,
,,,,,V1_002,20,Female,2024-04-29_09h35.53.976,jersey_experiment_5_v1,2023.2.2,Win32,84.74576271,,,,,,,,,,,,,,,,1289.2201,1291.0182,1291.0182,1293.3945,return,0.8112,,61.84895833,,,,,,FBP-YG-18.png,0.35,1.2,21,1,,,,,,,,,,,,,0,59,59,20,1,,,,,,,,,,,,,,,,,,,,,,,,,,,,
,,,,,V1_002,20,Female,2024-04-29_09h35.53.976,jersey_experiment_5_v1,2023.2.2,Win32,84.74576271,,,,,,,,,,,,,,,,1293.3964,1295.1924,1295.1924,1296.8749,return,0.6414,,85.67708333,,,,,,FBP-OG-91.png,0.4,1.2,43,1,,,,,,,,,,,,,,,,,,0,0,0,42,1,,,,,,,,,,,,,,,,,,,,,,,
,,,,,V1_002,20,Female,2024-04-29_09h35.53.976,jersey_experiment_5_v1,2023.2.2,Win32,84.74576271,,,,,,,,,,,,,,,,1296.8751,1298.675,1298.675,1301.1338,return,0.8624,,99.73958333,,,,,,FBP-RB-18.png,0.43,1.2,54,1,,,,,,,,,,,,,,,,,,0,1,1,53,1,,,,,,,,,,,,,,,,,,,,,,,
,,,,,V1_002,20,Female,2024-04-29_09h35.53.976,jersey_experiment_5_v1,2023.2.2,Win32,84.74576271,,,,,,,,,,,,,,,,1301.134,1302.9262,1302.9262,1304.4807,return,0.6724,,99.47916667,,,,,,FBP-YG-91.png,0.45,1.2,30,1,,,,,,,,,,,,,,,,,,0,2,2,29,1,,,,,,,,,,,,,,,,,,,,,,,
,,,,,V1_002,20,Female,2024-04-29_09h35.53.976,jersey_experiment_5_v1,2023.2.2,Win32,84.74576271,,,,,,,,,,,,,,,,1304.4808,1305.7834,1305.7834,1307.7105,return,0.733,,99.609375,,,,,,FBP-PT-19.png,0.45,1.2,15,0.5,,,,,,,,,,,,,,,,,,0,3,3,14,1,,,,,,,,,,,,,,,,,,,,,,,
,,,,,V1_002,20,Female,2024-04-29_09h35.53.976,jersey_experiment_5_v1,2023.2.2,Win32,84.74576271,,,,,,,,,,,,,,,,1307.7107,1309.5026,1309.5026,1311.644,return,0.6595,,24.47916667,,,,,,FBP-YG-81.png,0.35,1.2,21,1,,,,,,,,,,,,,,,,,,0,4,4,20,1,,,,,,,,,,,,,,,,,,,,,,,
,,,,,V1_002,20,Female,2024-04-29_09h35.53.976,jersey_experiment_5_v1,2023.2.2,Win32,84.74576271,,,,,,,,,,,,,,,,1311.6443,1312.9461,1312.9462,1316.6874,return,0.8607,,24.609375,,,,,,FBP-PT-18.png,0.35,1.2,6,0.5,,,,,,,,,,,,,,,,,,0,5,5,5,1,,,,,,,,,,,,,,,,,,,,,,,
,,,,,V1_002,20,Female,2024-04-29_09h35.53.976,jersey_experiment_5_v1,2023.2.2,Win32,84.74576271,,,,,,,,,,,,,,,,1316.6877,1318.4926,1318.4927,1321.8445,return,0.9296,,49.73958333,,,,,,FBP-RB-17.png,0.37,1.2,47,1,,,,,,,,,,,,,,,,,,0,6,6,46,1,,,,,,,,,,,,,,,,,,,,,,,
,,,,,V1_002,20,Female,2024-04-29_09h35.53.976,jersey_experiment_5_v1,2023.2.2,Win32,84.74576271,,,,,,,,,,,,,,,,1321.8446,1323.1505,1323.1506,1329.08,return,2.0943,,49.73958333,,,,,,FBP-PT-19.png,0.35,1.2,11,0.5,,,,,,,,,,,,,,,,,,0,7,7,10,1,,,,,,,,,,,,,,,,,,,,,,,
,,,,,V1_002,20,Female,2024-04-29_09h35.53.976,jersey_experiment_5_v1,2023.2.2,Win32,84.74576271,,,,,,,,,,,,,,,,1329.08,1330.8762,1330.8762,1332.7938,return,0.6443,,83.72395833,,,,,,FBP-RB-19.png,0.43,1.2,59,1,,,,,,,,,,,,,,,,,,0,8,8,58,1,,,,,,,,,,,,,,,,,,,,,,,
,,,,,V1_002,20,Female,2024-04-29_09h35.53.976,jersey_experiment_5_v1,2023.2.2,Win32,84.74576271,,,,,,,,,,,,,,,,1332.794,1334.5859,1334.586,1337.2702,return,0.9312,,61.84895833,,,,,,FBP-OG-91.png,0.35,1.2,41,1,,,,,,,,,,,,,,,,,,0,9,9,40,1,,,,,,,,,,,,,,,,,,,,,,,
,,,,,V1_002,20,Female,2024-04-29_09h35.53.976,jersey_experiment_5_v1,2023.2.2,Win32,84.74576271,,,,,,,,,,,,,,,,1337.2704,1339.0647,1339.0647,1342.4573,return,1.6595,,86.84895833,,,,,,FBP-RB-18.png,0.4,1.2,53,1,,,,,,,,,,,,,,,,,,0,10,10,52,1,,,,,,,,,,,,,,,,,,,,,,,
,,,,,V1_002,20,Female,2024-04-29_09h35.53.976,jersey_experiment_5_v1,2023.2.2,Win32,84.74576271,,,,,,,,,,,,,,,,1342.4575,1344.253,1344.2531,1346.3002,return,0.6656,,67.578125,,,,,,FBP-OG-81.png,0.4,1.2,38,1,,,,,,,,,,,,,,,,,,0,11,11,37,1,,,,,,,,,,,,,,,,,,,,,,,
,,,,,V1_002,20,Female,2024-04-29_09h35.53.976,jersey_experiment_5_v1,2023.2.2,Win32,84.74576271,,,,,,,,,,,,,,,,1346.3004,1348.1028,1348.1028,1349.8336,return,0.7998,,36.45833333,,,,,,FBP-YG-81.png,0.37,1.2,22,1,,,,,,,,,,,,,,,,,,0,12,12,21,1,,,,,,,,,,,,,,,,,,,,,,,
,,,,,V1_002,20,Female,2024-04-29_09h35.53.976,jersey_experiment_5_v1,2023.2.2,Win32,84.74576271,,,,,,,,,,,,,,,,1349.8338,1351.1274,1351.1274,1353.7241,return,0.6879,,37.23958333,,,,,,FBP-PT-18.png,0.43,1.2,9,0.5,,,,,,,,,,,,,,,,,,0,13,13,8,1,,,,,,,,,,,,,,,,,,,,,,,
,,,,,V1_002,20,Female,2024-04-29_09h35.53.976,jersey_experiment_5_v1,2023.2.2,Win32,84.74576271,,,,,,,,,,,,,,,,1353.7243,1355.0228,1355.0228,1360.1401,return,1.4709,,0.130208333,,,,,,FBP-PT-19.png,0.37,1.2,12,0.5,,,,,,,,,,,,,,,,,,0,14,14,11,1,,,,,,,,,,,,,,,,,,,,,,,
,,,,,V1_002,20,Female,2024-04-29_09h35.53.976,jersey_experiment_5_v1,2023.2.2,Win32,84.74576271,,,,,,,,,,,,,,,,1360.1403,1361.9383,1361.9383,1371.1953,return,1.4063,,32.03125,,,,,,FBP-RB-19.png,0.35,1.2,56,1,,,,,,,,,,,,,,,,,,0,15,15,55,1,,,,,,,,,,,,,,,,,,,,,,,
,,,,,V1_002,20,Female,2024-04-29_09h35.53.976,jersey_experiment_5_v1,2023.2.2,Win32,84.74576271,,,,,,,,,,,,,,,,1371.1956,1372.9989,1372.9989,1376.2479,return,0.6247,,49.609375,,,,,,FBP-OG-81.png,0.37,1.2,37,1,,,,,,,,,,,,,,,,,,0,16,16,36,1,,,,,,,,,,,,,,,,,,,,,,,
,,,,,V1_002,20,Female,2024-04-29_09h35.53.976,jersey_experiment_5_v1,2023.2.2,Win32,84.74576271,,,,,,,,,,,,,,,,1376.248,1378.0477,1378.0477,1380.9279,return,0.8916,,25.390625,,,,,,FBP-OG-81.png,0.35,1.2,36,1,,,,,,,,,,,,,,,,,,0,17,17,35,1,,,,,,,,,,,,,,,,,,,,,,,
,,,,,V1_002,20,Female,2024-04-29_09h35.53.976,jersey_experiment_5_v1,2023.2.2,Win32,84.74576271,,,,,,,,,,,,,,,,1380.9282,1382.7252,1382.7253,1398.8814,return,1.0928,,35.546875,,,,,,FBP-YG-71.png,0.35,1.2,16,1,,,,,,,,,,,,,,,,,,0,18,18,15,1,,,,,,,,,,,,,,,,,,,,,,,
,,,,,V1_002,20,Female,2024-04-29_09h35.53.976,jersey_experiment_5_v1,2023.2.2,Win32,84.74576271,,,,,,,,,,,,,,,,1398.8816,1400.6815,1400.6815,1403.0084,return,0.6364,,24.73958333,,,,,,FBP-RB-19.png,0.37,1.2,57,1,,,,,,,,,,,,,,,,,,0,19,19,56,1,,,,,,,,,,,,,,,,,,,,,,,
,,,,,V1_002,20,Female,2024-04-29_09h35.53.976,jersey_experiment_5_v1,2023.2.2,Win32,84.74576271,,,,,,,,,,,,,,,,1403.0086,1404.3043,1404.3043,1407.1026,return,0.6383,,36.97916667,,,,,,FBP-PT-17.png,0.35,1.2,1,0.5,,,,,,,,,,,,,,,,,,0,20,20,0,1,,,,,,,,,,,,,,,,,,,,,,,
,,,,,V1_002,20,Female,2024-04-29_09h35.53.976,jersey_experiment_5_v1,2023.2.2,Win32,84.74576271,,,,,,,,,,,,,,,,1407.1028,1408.8956,1408.8957,1410.8321,return,0.5857,,75.13020833,,,,,,FBP-OG-81.png,0.45,1.2,40,1,,,,,,,,,,,,,,,,,,0,21,21,39,1,,,,,,,,,,,,,,,,,,,,,,,
,,,,,V1_002,20,Female,2024-04-29_09h35.53.976,jersey_experiment_5_v1,2023.2.2,Win32,84.74576271,,,,,,,,,,,,,,,,1410.8323,1412.6359,1412.636,1415.2231,return,0.5866,,81.25,,,,,,FBP-YG-81.png,0.43,1.2,24,1,,,,,,,,,,,,,,,,,,0,22,22,23,1,,,,,,,,,,,,,,,,,,,,,,,
,,,,,V1_002,20,Female,2024-04-29_09h35.53.976,jersey_experiment_5_v1,2023.2.2,Win32,84.74576271,,,,,,,,,,,,,,,,1415.2232,1417.0226,1417.0226,1418.5383,return,0.5601,,99.34895833,,,,,,FBP-OG-71.png,0.45,1.2,35,1,,,,,,,,,,,,,,,,,,0,23,23,34,1,,,,,,,,,,,,,,,,,,,,,,,
,,,,,V1_002,20,Female,2024-04-29_09h35.53.976,jersey_experiment_5_v1,2023.2.2,Win32,84.74576271,,,,,,,,,,,,,,,,1418.5385,1420.3323,1420.3323,1421.8678,return,0.6409,,62.23958333,,,,,,FBP-RB-17.png,0.35,1.2,46,1,,,,,,,,,,,,,,,,,,0,24,24,45,1,,,,,,,,,,,,,,,,,,,,,,,
,,,,,V1_002,20,Female,2024-04-29_09h35.53.976,jersey_experiment_5_v1,2023.2.2,Win32,84.74576271,,,,,,,,,,,,,,,,1421.868,1423.6599,1423.6599,1427.0209,return,1.112,,74.86979167,,,,,,FBP-OG-71.png,0.43,1.2,34,1,,,,,,,,,,,,,,,,,,0,25,25,33,1,,,,,,,,,,,,,,,,,,,,,,,
,,,,,V1_002,20,Female,2024-04-29_09h35.53.976,jersey_experiment_5_v1,2023.2.2,Win32,84.74576271,,,,,,,,,,,,,,,,1427.021,1428.8133,1428.8133,1431.7623,return,1.7182,,74.609375,,,,,,FBP-RB-17.png,0.4,1.2,48,1,,,,,,,,,,,,,,,,,,0,26,26,47,1,,,,,,,,,,,,,,,,,,,,,,,
,,,,,V1_002,20,Female,2024-04-29_09h35.53.976,jersey_experiment_5_v1,2023.2.2,Win32,84.74576271,,,,,,,,,,,,,,,,1431.7625,1433.5552,1433.5552,1435.739,return,0.8555,,99.73958333,,,,,,FBP-RB-17.png,0.45,1.2,50,1,,,,,,,,,,,,,,,,,,0,27,27,49,1,,,,,,,,,,,,,,,,,,,,,,,
,,,,,V1_002,20,Female,2024-04-29_09h35.53.976,jersey_experiment_5_v1,2023.2.2,Win32,84.74576271,,,,,,,,,,,,,,,,1435.7391,1437.539,1437.539,1440.8451,return,0.687,,49.609375,,,,,,FBP-YG-71.png,0.37,1.2,17,1,,,,,,,,,,,,,,,,,,0,28,28,16,1,,,,,,,,,,,,,,,,,,,,,,,
,,,,,V1_002,20,Female,2024-04-29_09h35.53.976,jersey_experiment_5_v1,2023.2.2,Win32,84.74576271,,,,,,,,,,,,,,,,1440.8452,1442.647,1442.647,1444.8098,return,0.7021,,99.609375,,,,,,FBP-YG-71.png,0.45,1.2,20,1,,,,,,,,,,,,,,,,,,0,29,29,19,1,,,,,,,,,,,,,,,,,,,,,,,
,,,,,V1_002,20,Female,2024-04-29_09h35.53.976,jersey_experiment_5_v1,2023.2.2,Win32,84.74576271,,,,,,,,,,,,,,,,1444.81,1446.6099,1446.61,1448.0138,return,0.8945,,99.609375,,,,,,FBP-RB-18.png,0.45,1.2,55,1,,,,,,,,,,,,,,,,,,0,30,30,54,1,,,,,,,,,,,,,,,,,,,,,,,
,,,,,V1_002,20,Female,2024-04-29_09h35.53.976,jersey_experiment_5_v1,2023.2.2,Win32,84.74576271,,,,,,,,,,,,,,,,1448.014,1449.8135,1449.8135,1452.1631,return,1.0943,,85.41666667,,,,,,FBP-OG-81.png,0.43,1.2,39,1,,,,,,,,,,,,,,,,,,0,31,31,38,1,,,,,,,,,,,,,,,,,,,,,,,
,,,,,V1_002,20,Female,2024-04-29_09h35.53.976,jersey_experiment_5_v1,2023.2.2,Win32,84.74576271,,,,,,,,,,,,,,,,1452.1634,1453.9631,1453.9631,1456.0103,return,0.7014,,98.69791667,,,,,,FBP-YG-91.png,0.43,1.2,29,1,,,,,,,,,,,,,,,,,,0,32,32,28,1,,,,,,,,,,,,,,,,,,,,,,,
,,,,,V1_002,20,Female,2024-04-29_09h35.53.976,jersey_experiment_5_v1,2023.2.2,Win32,84.74576271,,,,,,,,,,,,,,,,1456.0105,1457.3044,1457.3044,1458.4339,return,0.612,,98.69791667,,,,,,FBP-PT-17.png,0.45,1.2,5,0.5,,,,,,,,,,,,,,,,,,0,33,33,4,1,,,,,,,,,,,,,,,,,,,,,,,
,,,,,V1_002,20,Female,2024-04-29_09h35.53.976,jersey_experiment_5_v1,2023.2.2,Win32,84.74576271,,,,,,,,,,,,,,,,1458.4341,1460.2262,1460.2262,1462.6106,return,0.6231,,99.86979167,,,,,,FBP-RB-17.png,0.43,1.2,49,1,,,,,,,,,,,,,,,,,,0,34,34,48,1,,,,,,,,,,,,,,,,,,,,,,,
,,,,,V1_002,20,Female,2024-04-29_09h35.53.976,jersey_experiment_5_v1,2023.2.2,Win32,84.74576271,,,,,,,,,,,,,,,,1462.6108,1464.4157,1464.4157,1466.6224,return,0.6267,,99.86979167,,,,,,FBP-YG-81.png,0.45,1.2,25,1,,,,,,,,,,,,,,,,,,0,35,35,24,1,,,,,,,,,,,,,,,,,,,,,,,
,,,,,V1_002,20,Female,2024-04-29_09h35.53.976,jersey_experiment_5_v1,2023.2.2,Win32,84.74576271,,,,,,,,,,,,,,,,1466.6226,1468.4156,1468.4156,1476.9874,return,7.5815,,83.07291667,,,,,,FBP-YG-91.png,0.37,1.2,27,1,,,,,,,,,,,,,,,,,,0,36,36,26,1,,,,,,,,,,,,,,,,,,,,,,,
,,,,,V1_002,20,Female,2024-04-29_09h35.53.976,jersey_experiment_5_v1,2023.2.2,Win32,84.74576271,,,,,,,,,,,,,,,,1476.9877,1478.7803,1478.7803,1480.6348,return,0.7839,,86.71875,,,,,,FBP-YG-81.png,0.4,1.2,23,1,,,,,,,,,,,,,,,,,,0,37,37,22,1,,,,,,,,,,,,,,,,,,,,,,,
,,,,,V1_002,20,Female,2024-04-29_09h35.53.976,jersey_experiment_5_v1,2023.2.2,Win32,84.74576271,,,,,,,,,,,,,,,,1480.6349,1482.4374,1482.4374,1485.6585,return,1.1849,,70.96354167,,,,,,FBP-YG-91.png,0.4,1.2,28,1,,,,,,,,,,,,,,,,,,0,38,38,27,1,,,,,,,,,,,,,,,,,,,,,,,
,,,,,V1_002,20,Female,2024-04-29_09h35.53.976,jersey_experiment_5_v1,2023.2.2,Win32,84.74576271,,,,,,,,,,,,,,,,1485.6585,1487.4586,1487.4586,1488.5409,return,0.5946,,70.96354167,,,,,,FBP-RB-19.png,0.4,1.2,58,1,,,,,,,,,,,,,,,,,,0,39,39,57,1,,,,,,,,,,,,,,,,,,,,,,,
,,,,,V1_002,20,Female,2024-04-29_09h35.53.976,jersey_experiment_5_v1,2023.2.2,Win32,84.74576271,,,,,,,,,,,,,,,,1488.5411,1489.8392,1489.8392,1493.2,return,0.7899,,42.70833333,,,,,,FBP-PT-17.png,0.37,1.2,2,0.5,,,,,,,,,,,,,,,,,,0,40,40,1,1,,,,,,,,,,,,,,,,,,,,,,,
,,,,,V1_002,20,Female,2024-04-29_09h35.53.976,jersey_experiment_5_v1,2023.2.2,Win32,84.74576271,,,,,,,,,,,,,,,,1493.2002,1494.4942,1494.4942,1500.353,return,0.6477,,42.83854167,,,,,,FBP-PT-18.png,0.37,1.2,7,0.5,,,,,,,,,,,,,,,,,,0,41,41,6,1,,,,,,,,,,,,,,,,,,,,,,,
,,,,,V1_002,20,Female,2024-04-29_09h35.53.976,jersey_experiment_5_v1,2023.2.2,Win32,84.74576271,,,,,,,,,,,,,,,,1500.3532,1502.1445,1502.1445,1503.6121,return,0.6878,,39.19270833,,,,,,FBP-RB-18.png,0.37,1.2,52,1,,,,,,,,,,,,,,,,,,0,42,42,51,1,,,,,,,,,,,,,,,,,,,,,,,
,,,,,V1_002,20,Female,2024-04-29_09h35.53.976,jersey_experiment_5_v1,2023.2.2,Win32,84.74576271,,,,,,,,,,,,,,,,1503.6122,1504.9062,1504.9063,1509.1652,return,1.6045,,49.34895833,,,,,,FBP-PT-17.png,0.4,1.2,3,0.5,,,,,,,,,,,,,,,,,,0,43,43,2,1,,,,,,,,,,,,,,,,,,,,,,,
,,,,,V1_002,20,Female,2024-04-29_09h35.53.976,jersey_experiment_5_v1,2023.2.2,Win32,84.74576271,,,,,,,,,,,,,,,,1509.1654,1510.9574,1510.9574,1512.9108,return,0.7176,,86.71875,,,,,,FBP-OG-91.png,0.45,1.2,45,1,,,,,,,,,,,,,,,,,,0,44,44,44,1,,,,,,,,,,,,,,,,,,,,,,,
,,,,,V1_002,20,Female,2024-04-29_09h35.53.976,jersey_experiment_5_v1,2023.2.2,Win32,84.74576271,,,,,,,,,,,,,,,,1512.9109,1514.7066,1514.7067,1517.2126,return,0.8506,,74.21875,,,,,,FBP-YG-71.png,0.4,1.2,18,1,,,,,,,,,,,,,,,,,,0,45,45,17,1,,,,,,,,,,,,,,,,,,,,,,,
,,,,,V1_002,20,Female,2024-04-29_09h35.53.976,jersey_experiment_5_v1,2023.2.2,Win32,84.74576271,,,,,,,,,,,,,,,,1517.2128,1519.0166,1519.0166,1521.2479,return,0.7796,,25.26041667,,,,,,FBP-RB-18.png,0.35,1.2,51,1,,,,,,,,,,,,,,,,,,0,46,46,50,1,,,,,,,,,,,,,,,,,,,,,,,
,,,,,V1_002,20,Female,2024-04-29_09h35.53.976,jersey_experiment_5_v1,2023.2.2,Win32,84.74576271,,,,,,,,,,,,,,,,1521.2482,1523.0482,1523.0482,1537.3427,return,1.1299,,0.651041667,,,,,,FBP-OG-71.png,0.35,1.2,31,1,,,,,,,,,,,,,,,,,,0,47,47,30,1,,,,,,,,,,,,,,,,,,,,,,,
,,,,,V1_002,20,Female,2024-04-29_09h35.53.976,jersey_experiment_5_v1,2023.2.2,Win32,84.74576271,,,,,,,,,,,,,,,,1537.3429,1539.1429,1539.1429,1551.7787,return,0.6249,,30.46875,,,,,,FBP-RB-19.png,0.45,1.2,60,1,,,,,,,,,,,,,,,,,,0,48,48,59,1,,,,,,,,,,,,,,,,,,,,,,,
,,,,,V1_002,20,Female,2024-04-29_09h35.53.976,jersey_experiment_5_v1,2023.2.2,Win32,84.74576271,,,,,,,,,,,,,,,,1551.7788,1553.5734,1553.5734,1555.6257,return,0.6783,,49.609375,,,,,,FBP-OG-71.png,0.37,1.2,32,1,,,,,,,,,,,,,,,,,,0,49,49,31,1,,,,,,,,,,,,,,,,,,,,,,,
,,,,,V1_002,20,Female,2024-04-29_09h35.53.976,jersey_experiment_5_v1,2023.2.2,Win32,84.74576271,,,,,,,,,,,,,,,,1555.6258,1556.9201,1556.9201,1558.6023,return,0.5599,,75.78125,,,,,,FBP-PT-19.png,0.43,1.2,14,0.5,,,,,,,,,,,,,,,,,,0,50,50,13,1,,,,,,,,,,,,,,,,,,,,,,,
,,,,,V1_002,20,Female,2024-04-29_09h35.53.976,jersey_experiment_5_v1,2023.2.2,Win32,84.74576271,,,,,,,,,,,,,,,,1558.6025,1560.4074,1560.4074,1561.6143,return,0.5329,,87.23958333,,,,,,FBP-OG-91.png,0.43,1.2,44,1,,,,,,,,,,,,,,,,,,0,51,51,43,1,,,,,,,,,,,,,,,,,,,,,,,
,,,,,V1_002,20,Female,2024-04-29_09h35.53.976,jersey_experiment_5_v1,2023.2.2,Win32,84.74576271,,,,,,,,,,,,,,,,1561.6146,1563.4208,1563.4208,1565.2614,return,0.6852,,38.28125,,,,,,FBP-OG-91.png,0.37,1.2,42,1,,,,,,,,,,,,,,,,,,0,52,52,41,1,,,,,,,,,,,,,,,,,,,,,,,
,,,,,V1_002,20,Female,2024-04-29_09h35.53.976,jersey_experiment_5_v1,2023.2.2,Win32,84.74576271,,,,,,,,,,,,,,,,1565.2615,1566.5556,1566.5556,1572.7205,return,4.8595,,63.15104167,,,,,,FBP-PT-19.png,0.4,1.2,13,0.5,,,,,,,,,,,,,,,,,,0,53,53,12,1,,,,,,,,,,,,,,,,,,,,,,,
,,,,,V1_002,20,Female,2024-04-29_09h35.53.976,jersey_experiment_5_v1,2023.2.2,Win32,84.74576271,,,,,,,,,,,,,,,,1572.7246,1574.0202,1574.0202,1580.7562,return,3.7075,,81.11979167,,,,,,FBP-PT-17.png,0.43,1.2,4,0.5,,,,,,,,,,,,,,,,,,0,54,54,3,1,,,,,,,,,,,,,,,,,,,,,,,
,,,,,V1_002,20,Female,2024-04-29_09h35.53.976,jersey_experiment_5_v1,2023.2.2,Win32,84.74576271,,,,,,,,,,,,,,,,1580.7603,1582.0676,1582.0676,1584.5117,return,1.2809,,87.76041667,,,,,,FBP-PT-18.png,0.45,1.2,10,0.5,,,,,,,,,,,,,,,,,,0,55,55,9,1,,,,,,,,,,,,,,,,,,,,,,,
,,,,,V1_002,20,Female,2024-04-29_09h35.53.976,jersey_experiment_5_v1,2023.2.2,Win32,84.74576271,,,,,,,,,,,,,,,,1584.512,1586.3158,1586.3159,1591.443,return,1.9898,,0.390625,,,,,,FBP-YG-91.png,0.35,1.2,26,1,,,,,,,,,,,,,,,,,,0,56,56,25,1,,,,,,,,,,,,,,,,,,,,,,,
,,,,,V1_002,20,Female,2024-04-29_09h35.53.976,jersey_experiment_5_v1,2023.2.2,Win32,84.74576271,,,,,,,,,,,,,,,,1591.4431,1593.2435,1593.2435,1594.9705,return,0.7868,,74.47916667,,,,,,FBP-YG-71.png,0.43,1.2,19,1,,,,,,,,,,,,,,,,,,0,57,57,18,1,,,,,,,,,,,,,,,,,,,,,,,
,,,,,V1_002,20,Female,2024-04-29_09h35.53.976,jersey_experiment_5_v1,2023.2.2,Win32,84.74576271,,,,,,,,,,,,,,,,1594.9707,1596.7643,1596.7643,1618.5223,return,20.197,,44.79166667,,,,,,FBP-OG-71.png,0.4,1.2,33,1,,,,,,,,,,,,,,,,,,0,58,58,32,1,,,,,,,,,,,,,,,,,,,,,,,
,,,,,V1_002,20,Female,2024-04-29_09h35.53.976,jersey_experiment_5_v1,2023.2.2,Win32,84.74576271,,,,,,,,,,,,,,,,1618.5265,1619.821,1619.8211,1622.1577,return,1.3103,,51.5625,,,,,,FBP-PT-18.png,0.4,1.2,8,0.5,,,,,,,,,,,,,,,,,,0,59,59,7,1,,,,,,,,,,,,,,,,,,,,,,,
,,,,,V1_002,20,Female,2024-04-29_09h35.53.976,jersey_experiment_5_v1,2023.2.2,Win32,84.74576271,,,,,,,,,,,,,,,,,,,,,,,,,,,,,,,,,,,,,,,,,,,,,,,,,,,,,,,,1622.158,1626.4995,return,4.3197,,,,,,,,,,,,,,,,,,,
,,,,,V1_002,20,Female,2024-04-29_09h35.53.976,jersey_experiment_5_v1,2023.2.2,Win32,84.74576271,,,,,,,,,,,,,,,,,,,,,,,,,,,,,,,,,,,,,,,,,,,,,,,,,,,,,,,,,,,,,1626.4996,1630.1699,1,2.779,return,0.8669,,,,,,,,,,,,
,,,,,V1_002,20,Female,2024-04-29_09h35.53.976,jersey_experiment_5_v1,2023.2.2,Win32,84.74576271,,,,,,,,,,,,,,,,,,,,,,,,,,,,,,,,,,,,,,,,,,,,,,,,,,,,,,,,,,,,,,,,,,,,1630.1701,1814.162,"sometimes the same size player would come on the screen only in different colors, to test what my perception is based on. I also noticed that the scale looked very different depending on the football player (e.g) If I saw a very bulky player, the slender one would stick out to me more as opposed to a neutral sized brain.",right,176.4415,,,,,,
,,,,,V1_002,20,Female,2024-04-29_09h35.53.976,jersey_experiment_5_v1,2023.2.2,Win32,84.74576271,,,,,,,,,,,,,,,,,,,,,,,,,,,,,,,,,,,,,,,,,,,,,,,,,,,,,,,,,,,,,,,,,,,,,,,,,,1814.1621,1817.6123,return,3.4405,