requirements.started,requirements.stopped,key_resp_3.keys,key_resp_3.rt,key_resp_3.duration,Subject ID,Age,Gender,date,expName,psychopyVersion,OS,frameRate,instructions1.started,instructions1.stopped,key_resp.keys,key_resp.rt,key_resp.duration,example.started,example.stopped,enter_2.keys,enter_2.rt,enter_2.duration,instructions2.started,instructions2.stopped,enter_3.keys,enter_3.rt,enter_3.duration,image.started,image.stopped,slider_2.started,slider_2.stopped,next.keys,next.rt,next.duration,slider.response,trial_block_1.thisRepN,trial_block_1.thisTrialN,trial_block_1.thisN,trial_block_1.thisIndex,trial_block_1.ran,Path,Width,Height,Index,Duration,trial_block_2.thisRepN,trial_block_2.thisTrialN,trial_block_2.thisN,trial_block_2.thisIndex,trial_block_2.ran,rest_break.started,rest_break.stopped,end_break.started,end_break.stopped,key_resp_5.keys,key_resp_5.rt,key_resp_5.duration,trial_block_3.thisRepN,trial_block_3.thisTrialN,trial_block_3.thisN,trial_block_3.thisIndex,trial_block_3.ran,trial_block_4.thisRepN,trial_block_4.thisTrialN,trial_block_4.thisN,trial_block_4.thisIndex,trial_block_4.ran,questions_intro.started,questions_intro.stopped,enter_12.keys,enter_12.rt,enter_12.duration,question2.started,question2.stopped,question_doingbest.response,question_doingbest.rt,enter_15.keys,enter_15.rt,enter_15.duration,pattern.started,pattern.stopped,pattern_2.text,enter_17.keys,enter_17.rt,enter_17.duration,thankyou.started,thankyou.stopped,enter_14.keys,enter_14.rt,enter_14.duration
0.0001,13.5104,return,13.4965,,V1_017,21,F,2024-05-15_16h04.45.860,jersey_experiment_5_v1,2023.2.2,Win32,85.47008547,,,,,,,,,,,,,,,,,,,,,,,,,,,,,,,,,,,,,,,,,,,,,,,,,,,,,,,,,,,,,,,,,,,,,,,,,,,,,,
,,,,,V1_017,21,F,2024-05-15_16h04.45.860,jersey_experiment_5_v1,2023.2.2,Win32,85.47008547,13.5105,24.946,return,11.4261,,,,,,,,,,,,,,,,,,,,,,,,,,,,,,,,,,,,,,,,,,,,,,,,,,,,,,,,,,,,,,,,,,,,,,,,,,
,,,,,V1_017,21,F,2024-05-15_16h04.45.860,jersey_experiment_5_v1,2023.2.2,Win32,85.47008547,,,,,,24.9461,28.5813,return,3.6009,,,,,,,,,,,,,,,,,,,,,,,,,,,,,,,,,,,,,,,,,,,,,,,,,,,,,,,,,,,,,,,,,,,,,
,,,,,V1_017,21,F,2024-05-15_16h04.45.860,jersey_experiment_5_v1,2023.2.2,Win32,85.47008547,,,,,,,,,,,28.5814,48.4883,return,19.8951,,,,,,,,,,,,,,,,,,,,,,,,,,,,,,,,,,,,,,,,,,,,,,,,,,,,,,,,,,,,,,,,
,,,,,V1_017,21,F,2024-05-15_16h04.45.860,jersey_experiment_5_v1,2023.2.2,Win32,85.47008547,,,,,,,,,,,,,,,,48.4955,50.2879,50.2881,72.4773,return,14.8092,,40.88541667,0,0,0,5,1,FBP-PT-81.png,0.35,1.2,6,1,,,,,,,,,,,,,,,,,,,,,,,,,,,,,,,,,,,,,,,,,,,,,
,,,,,V1_017,21,F,2024-05-15_16h04.45.860,jersey_experiment_5_v1,2023.2.2,Win32,85.47008547,,,,,,,,,,,,,,,,72.4776,73.7709,73.771,76.7829,return,0.454,,76.30208333,0,1,1,19,1,FBP-YG-17.png,0.45,1.2,20,0.5,,,,,,,,,,,,,,,,,,,,,,,,,,,,,,,,,,,,,,,,,,,,,
,,,,,V1_017,21,F,2024-05-15_16h04.45.860,jersey_experiment_5_v1,2023.2.2,Win32,85.47008547,,,,,,,,,,,,,,,,76.7832,78.0769,78.077,81.5242,return,1.0726,,65.49479167,0,2,2,45,1,FBP-RB-71.png,0.35,1.2,46,0.5,,,,,,,,,,,,,,,,,,,,,,,,,,,,,,,,,,,,,,,,,,,,,
,,,,,V1_017,21,F,2024-05-15_16h04.45.860,jersey_experiment_5_v1,2023.2.2,Win32,85.47008547,,,,,,,,,,,,,,,,81.5244,82.8185,82.8185,86.6307,return,0.3437,,63.15104167,0,3,3,57,1,FBP-RB-91.png,0.4,1.2,58,0.5,,,,,,,,,,,,,,,,,,,,,,,,,,,,,,,,,,,,,,,,,,,,,
,,,,,V1_017,21,F,2024-05-15_16h04.45.860,jersey_experiment_5_v1,2023.2.2,Win32,85.47008547,,,,,,,,,,,,,,,,86.6309,87.9245,87.9245,92.1011,return,0.2457,,61.71875,0,4,4,32,1,FBP-OG-17.png,0.4,1.2,33,0.5,,,,,,,,,,,,,,,,,,,,,,,,,,,,,,,,,,,,,,,,,,,,,
,,,,,V1_017,21,F,2024-05-15_16h04.45.860,jersey_experiment_5_v1,2023.2.2,Win32,85.47008547,,,,,,,,,,,,,,,,92.1014,93.3953,93.3954,96.1955,return,0.7656,,75.26041667,0,5,5,18,1,FBP-YG-17.png,0.43,1.2,19,0.5,,,,,,,,,,,,,,,,,,,,,,,,,,,,,,,,,,,,,,,,,,,,,
,,,,,V1_017,21,F,2024-05-15_16h04.45.860,jersey_experiment_5_v1,2023.2.2,Win32,85.47008547,,,,,,,,,,,,,,,,96.1958,97.9957,97.9957,101.325,return,1.36,,27.08333333,0,6,6,10,1,FBP-PT-91.png,0.35,1.2,11,1,,,,,,,,,,,,,,,,,,,,,,,,,,,,,,,,,,,,,,,,,,,,,
,,,,,V1_017,21,F,2024-05-15_16h04.45.860,jersey_experiment_5_v1,2023.2.2,Win32,85.47008547,,,,,,,,,,,,,,,,101.3252,102.6192,102.6192,104.9016,return,0.6121,,74.21875,0,7,7,48,1,FBP-RB-71.png,0.43,1.2,49,0.5,,,,,,,,,,,,,,,,,,,,,,,,,,,,,,,,,,,,,,,,,,,,,
,,,,,V1_017,21,F,2024-05-15_16h04.45.860,jersey_experiment_5_v1,2023.2.2,Win32,85.47008547,,,,,,,,,,,,,,,,104.9019,106.1957,106.1958,107.4313,return,0.2589,,74.609375,0,8,8,50,1,FBP-RB-81.png,0.35,1.2,51,0.5,,,,,,,,,,,,,,,,,,,,,,,,,,,,,,,,,,,,,,,,,,,,,
,,,,,V1_017,21,F,2024-05-15_16h04.45.860,jersey_experiment_5_v1,2023.2.2,Win32,85.47008547,,,,,,,,,,,,,,,,107.4315,108.7252,108.7253,115.2079,return,4.5746,,71.22395833,0,9,9,47,1,FBP-RB-71.png,0.4,1.2,48,0.5,,,,,,,,,,,,,,,,,,,,,,,,,,,,,,,,,,,,,,,,,,,,,
,,,,,V1_017,21,F,2024-05-15_16h04.45.860,jersey_experiment_5_v1,2023.2.2,Win32,85.47008547,,,,,,,,,,,,,,,,115.208,116.502,116.502,119.9023,return,0.5473,,20.18229167,0,10,10,20,1,FBP-YG-18.png,0.35,1.2,21,0.5,,,,,,,,,,,,,,,,,,,,,,,,,,,,,,,,,,,,,,,,,,,,,
,,,,,V1_017,21,F,2024-05-15_16h04.45.860,jersey_experiment_5_v1,2023.2.2,Win32,85.47008547,,,,,,,,,,,,,,,,119.9026,121.7023,121.7024,123.62,return,0.8243,,86.19791667,0,11,11,14,1,FBP-PT-91.png,0.45,1.2,15,1,,,,,,,,,,,,,,,,,,,,,,,,,,,,,,,,,,,,,,,,,,,,,
,,,,,V1_017,21,F,2024-05-15_16h04.45.860,jersey_experiment_5_v1,2023.2.2,Win32,85.47008547,,,,,,,,,,,,,,,,123.6202,125.4198,125.4199,127.8437,return,0.2242,,52.21354167,0,12,12,2,1,FBP-PT-71.png,0.4,1.2,3,1,,,,,,,,,,,,,,,,,,,,,,,,,,,,,,,,,,,,,,,,,,,,,
,,,,,V1_017,21,F,2024-05-15_16h04.45.860,jersey_experiment_5_v1,2023.2.2,Win32,85.47008547,,,,,,,,,,,,,,,,127.8439,129.1377,129.1377,131.1497,return,0.6658,,45.05208333,0,13,13,51,1,FBP-RB-81.png,0.37,1.2,52,0.5,,,,,,,,,,,,,,,,,,,,,,,,,,,,,,,,,,,,,,,,,,,,,
,,,,,V1_017,21,F,2024-05-15_16h04.45.860,jersey_experiment_5_v1,2023.2.2,Win32,85.47008547,,,,,,,,,,,,,,,,131.1499,132.4438,132.4438,134.4203,return,0.236,,59.375,0,14,14,36,1,FBP-OG-18.png,0.37,1.2,37,0.5,,,,,,,,,,,,,,,,,,,,,,,,,,,,,,,,,,,,,,,,,,,,,
,,,,,V1_017,21,F,2024-05-15_16h04.45.860,jersey_experiment_5_v1,2023.2.2,Win32,85.47008547,,,,,,,,,,,,,,,,134.4205,135.7145,135.7145,137.4793,return,0.3201,,98.69791667,0,15,15,38,1,FBP-OG-18.png,0.43,1.2,39,0.5,,,,,,,,,,,,,,,,,,,,,,,,,,,,,,,,,,,,,,,,,,,,,
,,,,,V1_017,21,F,2024-05-15_16h04.45.860,jersey_experiment_5_v1,2023.2.2,Win32,85.47008547,,,,,,,,,,,,,,,,137.4795,138.7734,138.7734,148.515,return,5.8975,,50.390625,0,16,16,15,1,FBP-YG-17.png,0.35,1.2,16,0.5,,,,,,,,,,,,,,,,,,,,,,,,,,,,,,,,,,,,,,,,,,,,,
,,,,,V1_017,21,F,2024-05-15_16h04.45.860,jersey_experiment_5_v1,2023.2.2,Win32,85.47008547,,,,,,,,,,,,,,,,148.5151,150.315,150.315,154.7036,return,3.1101,,98.046875,0,17,17,3,1,FBP-PT-71.png,0.43,1.2,4,1,,,,,,,,,,,,,,,,,,,,,,,,,,,,,,,,,,,,,,,,,,,,,
,,,,,V1_017,21,F,2024-05-15_16h04.45.860,jersey_experiment_5_v1,2023.2.2,Win32,85.47008547,,,,,,,,,,,,,,,,154.7037,155.9976,155.9976,158.833,return,2.0995,,97.78645833,0,18,18,28,1,FBP-YG-19.png,0.43,1.2,29,0.5,,,,,,,,,,,,,,,,,,,,,,,,,,,,,,,,,,,,,,,,,,,,,
,,,,,V1_017,21,F,2024-05-15_16h04.45.860,jersey_experiment_5_v1,2023.2.2,Win32,85.47008547,,,,,,,,,,,,,,,,158.8332,160.1271,160.1271,162.1625,return,0.1429,,75.65104167,0,19,19,21,1,FBP-YG-18.png,0.37,1.2,22,0.5,,,,,,,,,,,,,,,,,,,,,,,,,,,,,,,,,,,,,,,,,,,,,
,,,,,V1_017,21,F,2024-05-15_16h04.45.860,jersey_experiment_5_v1,2023.2.2,Win32,85.47008547,,,,,,,,,,,,,,,,162.1628,163.4567,163.4567,166.798,return,1.4649,,26.04166667,0,20,20,35,1,FBP-OG-18.png,0.35,1.2,36,0.5,,,,,,,,,,,,,,,,,,,,,,,,,,,,,,,,,,,,,,,,,,,,,
,,,,,V1_017,21,F,2024-05-15_16h04.45.860,jersey_experiment_5_v1,2023.2.2,Win32,85.47008547,,,,,,,,,,,,,,,,166.7982,168.598,168.598,170.504,return,0.363,,51.171875,0,21,21,1,1,FBP-PT-71.png,0.37,1.2,2,1,,,,,,,,,,,,,,,,,,,,,,,,,,,,,,,,,,,,,,,,,,,,,
,,,,,V1_017,21,F,2024-05-15_16h04.45.860,jersey_experiment_5_v1,2023.2.2,Win32,85.47008547,,,,,,,,,,,,,,,,170.5041,171.7981,171.7982,173.7276,return,0.124,,63.671875,0,22,22,27,1,FBP-YG-19.png,0.4,1.2,28,0.5,,,,,,,,,,,,,,,,,,,,,,,,,,,,,,,,,,,,,,,,,,,,,
,,,,,V1_017,21,F,2024-05-15_16h04.45.860,jersey_experiment_5_v1,2023.2.2,Win32,85.47008547,,,,,,,,,,,,,,,,173.7277,175.0217,175.0218,176.5042,return,0.1743,,24.08854167,0,23,23,25,1,FBP-YG-19.png,0.35,1.2,26,0.5,,,,,,,,,,,,,,,,,,,,,,,,,,,,,,,,,,,,,,,,,,,,,
,,,,,V1_017,21,F,2024-05-15_16h04.45.860,jersey_experiment_5_v1,2023.2.2,Win32,85.47008547,,,,,,,,,,,,,,,,176.5044,177.7983,177.7984,182.2691,return,2.8656,,89.0625,0,24,24,39,1,FBP-OG-18.png,0.45,1.2,40,0.5,,,,,,,,,,,,,,,,,,,,,,,,,,,,,,,,,,,,,,,,,,,,,
,,,,,V1_017,21,F,2024-05-15_16h04.45.860,jersey_experiment_5_v1,2023.2.2,Win32,85.47008547,,,,,,,,,,,,,,,,182.2693,184.0692,184.0692,184.9162,return,0.061,,88.28125,0,25,25,4,1,FBP-PT-71.png,0.45,1.2,5,1,,,,,,,,,,,,,,,,,,,,,,,,,,,,,,,,,,,,,,,,,,,,,
,,,,,V1_017,21,F,2024-05-15_16h04.45.860,jersey_experiment_5_v1,2023.2.2,Win32,85.47008547,,,,,,,,,,,,,,,,184.9165,186.2104,186.2104,188.1989,return,0.1883,,17.578125,0,26,26,30,1,FBP-OG-17.png,0.35,1.2,31,0.5,,,,,,,,,,,,,,,,,,,,,,,,,,,,,,,,,,,,,,,,,,,,,
,,,,,V1_017,21,F,2024-05-15_16h04.45.860,jersey_experiment_5_v1,2023.2.2,Win32,85.47008547,,,,,,,,,,,,,,,,188.199,189.4929,189.4929,192.8695,return,1.52,,31.77083333,0,27,27,31,1,FBP-OG-17.png,0.37,1.2,32,0.5,,,,,,,,,,,,,,,,,,,,,,,,,,,,,,,,,,,,,,,,,,,,,
,,,,,V1_017,21,F,2024-05-15_16h04.45.860,jersey_experiment_5_v1,2023.2.2,Win32,85.47008547,,,,,,,,,,,,,,,,192.8698,194.1637,194.1637,195.9873,return,0.2146,,99.08854167,0,28,28,54,1,FBP-RB-81.png,0.45,1.2,55,0.5,,,,,,,,,,,,,,,,,,,,,,,,,,,,,,,,,,,,,,,,,,,,,
,,,,,V1_017,21,F,2024-05-15_16h04.45.860,jersey_experiment_5_v1,2023.2.2,Win32,85.47008547,,,,,,,,,,,,,,,,195.9876,197.2814,197.2814,201.0463,return,0.1419,,34.375,0,29,29,37,1,FBP-OG-18.png,0.4,1.2,38,0.5,,,,,,,,,,,,,,,,,,,,,,,,,,,,,,,,,,,,,,,,,,,,,
,,,,,V1_017,21,F,2024-05-15_16h04.45.860,jersey_experiment_5_v1,2023.2.2,Win32,85.47008547,,,,,,,,,,,,,,,,201.0465,202.3405,202.3405,203.7169,return,0.3509,,49.21875,0,30,30,46,1,FBP-RB-71.png,0.37,1.2,47,0.5,,,,,,,,,,,,,,,,,,,,,,,,,,,,,,,,,,,,,,,,,,,,,
,,,,,V1_017,21,F,2024-05-15_16h04.45.860,jersey_experiment_5_v1,2023.2.2,Win32,85.47008547,,,,,,,,,,,,,,,,203.7171,205.5171,205.5171,213.9997,return,7.4772,,61.97916667,0,31,31,12,1,FBP-PT-91.png,0.4,1.2,13,1,,,,,,,,,,,,,,,,,,,,,,,,,,,,,,,,,,,,,,,,,,,,,
,,,,,V1_017,21,F,2024-05-15_16h04.45.860,jersey_experiment_5_v1,2023.2.2,Win32,85.47008547,,,,,,,,,,,,,,,,214.0044,215.7999,215.8,217.8235,return,1.4656,,78.64583333,0,32,32,8,1,FBP-PT-81.png,0.43,1.2,9,1,,,,,,,,,,,,,,,,,,,,,,,,,,,,,,,,,,,,,,,,,,,,,
,,,,,V1_017,21,F,2024-05-15_16h04.45.860,jersey_experiment_5_v1,2023.2.2,Win32,85.47008547,,,,,,,,,,,,,,,,217.8236,219.1175,219.1175,221.8235,return,1.6163,,83.203125,0,33,33,44,1,FBP-OG-19.png,0.45,1.2,45,0.5,,,,,,,,,,,,,,,,,,,,,,,,,,,,,,,,,,,,,,,,,,,,,
,,,,,V1_017,21,F,2024-05-15_16h04.45.860,jersey_experiment_5_v1,2023.2.2,Win32,85.47008547,,,,,,,,,,,,,,,,221.8237,223.6238,223.6238,225.2237,return,0.2132,,24.73958333,0,34,34,11,1,FBP-PT-91.png,0.37,1.2,12,1,,,,,,,,,,,,,,,,,,,,,,,,,,,,,,,,,,,,,,,,,,,,,
,,,,,V1_017,21,F,2024-05-15_16h04.45.860,jersey_experiment_5_v1,2023.2.2,Win32,85.47008547,,,,,,,,,,,,,,,,225.224,226.5178,226.5178,228.9296,return,0.696,,74.34895833,0,35,35,53,1,FBP-RB-81.png,0.43,1.2,54,0.5,,,,,,,,,,,,,,,,,,,,,,,,,,,,,,,,,,,,,,,,,,,,,
,,,,,V1_017,21,F,2024-05-15_16h04.45.860,jersey_experiment_5_v1,2023.2.2,Win32,85.47008547,,,,,,,,,,,,,,,,228.9299,230.2238,230.2239,232.6712,return,0.242,,26.5625,0,36,36,26,1,FBP-YG-19.png,0.37,1.2,27,0.5,,,,,,,,,,,,,,,,,,,,,,,,,,,,,,,,,,,,,,,,,,,,,
,,,,,V1_017,21,F,2024-05-15_16h04.45.860,jersey_experiment_5_v1,2023.2.2,Win32,85.47008547,,,,,,,,,,,,,,,,232.6715,233.9651,233.9652,236.8359,return,1.4842,,75.26041667,0,37,37,29,1,FBP-YG-19.png,0.45,1.2,30,0.5,,,,,,,,,,,,,,,,,,,,,,,,,,,,,,,,,,,,,,,,,,,,,
,,,,,V1_017,21,F,2024-05-15_16h04.45.860,jersey_experiment_5_v1,2023.2.2,Win32,85.47008547,,,,,,,,,,,,,,,,236.8361,238.13,238.13,239.4948,return,0.7398,,75.26041667,0,38,38,52,1,FBP-RB-81.png,0.4,1.2,53,0.5,,,,,,,,,,,,,,,,,,,,,,,,,,,,,,,,,,,,,,,,,,,,,
,,,,,V1_017,21,F,2024-05-15_16h04.45.860,jersey_experiment_5_v1,2023.2.2,Win32,85.47008547,,,,,,,,,,,,,,,,239.495,240.7889,240.7889,241.9185,return,0.2427,,75.26041667,0,39,39,33,1,FBP-OG-17.png,0.43,1.2,34,0.5,,,,,,,,,,,,,,,,,,,,,,,,,,,,,,,,,,,,,,,,,,,,,
,,,,,V1_017,21,F,2024-05-15_16h04.45.860,jersey_experiment_5_v1,2023.2.2,Win32,85.47008547,,,,,,,,,,,,,,,,241.9186,243.7184,243.7184,245.9067,return,1.554,,82.55208333,0,40,40,13,1,FBP-PT-91.png,0.43,1.2,14,1,,,,,,,,,,,,,,,,,,,,,,,,,,,,,,,,,,,,,,,,,,,,,
,,,,,V1_017,21,F,2024-05-15_16h04.45.860,jersey_experiment_5_v1,2023.2.2,Win32,85.47008547,,,,,,,,,,,,,,,,245.9069,247.7069,247.7069,250.354,return,1.0278,,52.47395833,0,41,41,7,1,FBP-PT-81.png,0.4,1.2,8,1,,,,,,,,,,,,,,,,,,,,,,,,,,,,,,,,,,,,,,,,,,,,,
,,,,,V1_017,21,F,2024-05-15_16h04.45.860,jersey_experiment_5_v1,2023.2.2,Win32,85.47008547,,,,,,,,,,,,,,,,250.3542,252.1542,252.1542,254.0954,return,0.9233,,24.08854167,0,42,42,6,1,FBP-PT-81.png,0.37,1.2,7,1,,,,,,,,,,,,,,,,,,,,,,,,,,,,,,,,,,,,,,,,,,,,,
,,,,,V1_017,21,F,2024-05-15_16h04.45.860,jersey_experiment_5_v1,2023.2.2,Win32,85.47008547,,,,,,,,,,,,,,,,254.0956,255.3895,255.3895,256.5777,return,0.0617,,17.31770833,0,43,43,41,1,FBP-OG-19.png,0.37,1.2,42,0.5,,,,,,,,,,,,,,,,,,,,,,,,,,,,,,,,,,,,,,,,,,,,,
,,,,,V1_017,21,F,2024-05-15_16h04.45.860,jersey_experiment_5_v1,2023.2.2,Win32,85.47008547,,,,,,,,,,,,,,,,256.5779,257.8718,257.8719,259.872,return,0.2176,,12.63020833,0,44,44,40,1,FBP-OG-19.png,0.35,1.2,41,0.5,,,,,,,,,,,,,,,,,,,,,,,,,,,,,,,,,,,,,,,,,,,,,
,,,,,V1_017,21,F,2024-05-15_16h04.45.860,jersey_experiment_5_v1,2023.2.2,Win32,85.47008547,,,,,,,,,,,,,,,,259.8723,261.166,261.166,266.6722,return,2.6505,,81.11979167,0,45,45,43,1,FBP-OG-19.png,0.43,1.2,44,0.5,,,,,,,,,,,,,,,,,,,,,,,,,,,,,,,,,,,,,,,,,,,,,
,,,,,V1_017,21,F,2024-05-15_16h04.45.860,jersey_experiment_5_v1,2023.2.2,Win32,85.47008547,,,,,,,,,,,,,,,,266.6724,267.9665,267.9666,269.2135,return,0.0789,,99.34895833,0,46,46,24,1,FBP-YG-18.png,0.45,1.2,25,0.5,,,,,,,,,,,,,,,,,,,,,,,,,,,,,,,,,,,,,,,,,,,,,
,,,,,V1_017,21,F,2024-05-15_16h04.45.860,jersey_experiment_5_v1,2023.2.2,Win32,85.47008547,,,,,,,,,,,,,,,,269.2138,270.5077,270.5078,274.4489,return,2.0037,,94.53125,0,47,47,23,1,FBP-YG-18.png,0.43,1.2,24,0.5,,,,,,,,,,,,,,,,,,,,,,,,,,,,,,,,,,,,,,,,,,,,,
,,,,,V1_017,21,F,2024-05-15_16h04.45.860,jersey_experiment_5_v1,2023.2.2,Win32,85.47008547,,,,,,,,,,,,,,,,274.4492,275.7433,275.7433,280.0374,return,2.7066,,37.76041667,0,48,48,56,1,FBP-RB-91.png,0.37,1.2,57,0.5,,,,,,,,,,,,,,,,,,,,,,,,,,,,,,,,,,,,,,,,,,,,,
,,,,,V1_017,21,F,2024-05-15_16h04.45.860,jersey_experiment_5_v1,2023.2.2,Win32,85.47008547,,,,,,,,,,,,,,,,280.0376,281.3316,281.3316,285.5905,return,2.5036,,91.66666667,0,49,49,59,1,FBP-RB-91.png,0.45,1.2,60,0.5,,,,,,,,,,,,,,,,,,,,,,,,,,,,,,,,,,,,,,,,,,,,,
,,,,,V1_017,21,F,2024-05-15_16h04.45.860,jersey_experiment_5_v1,2023.2.2,Win32,85.47008547,,,,,,,,,,,,,,,,285.5908,286.8846,286.8846,288.0966,return,0.1585,,98.828125,0,50,50,49,1,FBP-RB-71.png,0.45,1.2,50,0.5,,,,,,,,,,,,,,,,,,,,,,,,,,,,,,,,,,,,,,,,,,,,,
,,,,,V1_017,21,F,2024-05-15_16h04.45.860,jersey_experiment_5_v1,2023.2.2,Win32,85.47008547,,,,,,,,,,,,,,,,288.0969,289.8966,289.8967,293.1672,return,0.5478,,24.86979167,0,51,51,0,1,FBP-PT-71.png,0.35,1.2,1,1,,,,,,,,,,,,,,,,,,,,,,,,,,,,,,,,,,,,,,,,,,,,,
,,,,,V1_017,21,F,2024-05-15_16h04.45.860,jersey_experiment_5_v1,2023.2.2,Win32,85.47008547,,,,,,,,,,,,,,,,293.1674,294.4615,294.4615,295.4849,return,0.1955,,36.71875,0,52,52,22,1,FBP-YG-18.png,0.4,1.2,23,0.5,,,,,,,,,,,,,,,,,,,,,,,,,,,,,,,,,,,,,,,,,,,,,
,,,,,V1_017,21,F,2024-05-15_16h04.45.860,jersey_experiment_5_v1,2023.2.2,Win32,85.47008547,,,,,,,,,,,,,,,,295.4851,296.7792,296.7792,298.2382,return,0.4529,,36.97916667,0,53,53,17,1,FBP-YG-17.png,0.4,1.2,18,0.5,,,,,,,,,,,,,,,,,,,,,,,,,,,,,,,,,,,,,,,,,,,,,
,,,,,V1_017,21,F,2024-05-15_16h04.45.860,jersey_experiment_5_v1,2023.2.2,Win32,85.47008547,,,,,,,,,,,,,,,,298.2384,299.5322,299.5322,301.6381,return,1.0588,,37.109375,0,54,54,16,1,FBP-YG-17.png,0.37,1.2,17,0.5,,,,,,,,,,,,,,,,,,,,,,,,,,,,,,,,,,,,,,,,,,,,,
,,,,,V1_017,21,F,2024-05-15_16h04.45.860,jersey_experiment_5_v1,2023.2.2,Win32,85.47008547,,,,,,,,,,,,,,,,301.6383,302.9324,302.9325,306.7678,return,2.9575,,76.5625,0,55,55,34,1,FBP-OG-17.png,0.45,1.2,35,0.5,,,,,,,,,,,,,,,,,,,,,,,,,,,,,,,,,,,,,,,,,,,,,
,,,,,V1_017,21,F,2024-05-15_16h04.45.860,jersey_experiment_5_v1,2023.2.2,Win32,85.47008547,,,,,,,,,,,,,,,,306.768,308.062,308.062,313.0623,return,0.2358,,2.213541667,0,56,56,55,1,FBP-RB-91.png,0.35,1.2,56,0.5,,,,,,,,,,,,,,,,,,,,,,,,,,,,,,,,,,,,,,,,,,,,,
,,,,,V1_017,21,F,2024-05-15_16h04.45.860,jersey_experiment_5_v1,2023.2.2,Win32,85.47008547,,,,,,,,,,,,,,,,313.0624,314.3564,314.3564,316.4859,return,0.7634,,76.82291667,0,57,57,58,1,FBP-RB-91.png,0.43,1.2,59,0.5,,,,,,,,,,,,,,,,,,,,,,,,,,,,,,,,,,,,,,,,,,,,,
,,,,,V1_017,21,F,2024-05-15_16h04.45.860,jersey_experiment_5_v1,2023.2.2,Win32,85.47008547,,,,,,,,,,,,,,,,316.4862,317.78,317.78,321.286,return,2.2119,,78.90625,0,58,58,42,1,FBP-OG-19.png,0.4,1.2,43,0.5,,,,,,,,,,,,,,,,,,,,,,,,,,,,,,,,,,,,,,,,,,,,,
,,,,,V1_017,21,F,2024-05-15_16h04.45.860,jersey_experiment_5_v1,2023.2.2,Win32,85.47008547,,,,,,,,,,,,,,,,321.2861,323.0862,323.0862,324.0156,return,0.2514,,85.9375,0,59,59,9,1,FBP-PT-81.png,0.45,1.2,10,1,,,,,,,,,,,,,,,,,,,,,,,,,,,,,,,,,,,,,,,,,,,,,
,,,,,V1_017,21,F,2024-05-15_16h04.45.860,jersey_experiment_5_v1,2023.2.2,Win32,85.47008547,,,,,,,,,,,,,,,,324.0177,325.3097,325.3097,326.7214,return,0.2969,,86.84895833,,,,,,FBP-OG-71.png,0.45,1.2,35,0.5,0,0,0,34,1,,,,,,,,,,,,,,,,,,,,,,,,,,,,,,,,,,,,,,,,
,,,,,V1_017,21,F,2024-05-15_16h04.45.860,jersey_experiment_5_v1,2023.2.2,Win32,85.47008547,,,,,,,,,,,,,,,,326.7219,328.0156,328.0156,329.0745,return,0.2151,,96.74479167,,,,,,FBP-RB-19.png,0.45,1.2,60,0.5,0,1,1,59,1,,,,,,,,,,,,,,,,,,,,,,,,,,,,,,,,,,,,,,,,
,,,,,V1_017,21,F,2024-05-15_16h04.45.860,jersey_experiment_5_v1,2023.2.2,Win32,85.47008547,,,,,,,,,,,,,,,,329.0748,330.3687,330.3687,334.8629,return,3.1225,,19.79166667,,,,,,FBP-YG-81.png,0.35,1.2,21,0.5,0,2,2,20,1,,,,,,,,,,,,,,,,,,,,,,,,,,,,,,,,,,,,,,,,
,,,,,V1_017,21,F,2024-05-15_16h04.45.860,jersey_experiment_5_v1,2023.2.2,Win32,85.47008547,,,,,,,,,,,,,,,,334.8631,336.1569,336.157,337.3925,return,0.3229,,74.08854167,,,,,,FBP-YG-81.png,0.45,1.2,25,0.5,0,3,3,24,1,,,,,,,,,,,,,,,,,,,,,,,,,,,,,,,,,,,,,,,,
,,,,,V1_017,21,F,2024-05-15_16h04.45.860,jersey_experiment_5_v1,2023.2.2,Win32,85.47008547,,,,,,,,,,,,,,,,337.3928,338.6865,338.6865,340.6398,return,0.8511,,51.5625,,,,,,FBP-RB-18.png,0.37,1.2,52,0.5,0,4,4,51,1,,,,,,,,,,,,,,,,,,,,,,,,,,,,,,,,,,,,,,,,
,,,,,V1_017,21,F,2024-05-15_16h04.45.860,jersey_experiment_5_v1,2023.2.2,Win32,85.47008547,,,,,,,,,,,,,,,,340.6401,341.934,341.934,347.6399,return,4.8943,,24.73958333,,,,,,FBP-OG-91.png,0.35,1.2,41,0.5,0,5,5,40,1,,,,,,,,,,,,,,,,,,,,,,,,,,,,,,,,,,,,,,,,
,,,,,V1_017,21,F,2024-05-15_16h04.45.860,jersey_experiment_5_v1,2023.2.2,Win32,85.47008547,,,,,,,,,,,,,,,,347.6451,348.9459,348.9459,354.4051,return,3.2936,,37.36979167,,,,,,FBP-RB-19.png,0.37,1.2,57,0.5,0,6,6,56,1,,,,,,,,,,,,,,,,,,,,,,,,,,,,,,,,,,,,,,,,
,,,,,V1_017,21,F,2024-05-15_16h04.45.860,jersey_experiment_5_v1,2023.2.2,Win32,85.47008547,,,,,,,,,,,,,,,,354.4053,356.2048,356.2049,357.4049,return,0.2309,,37.109375,,,,,,FBP-PT-18.png,0.37,1.2,7,1,0,7,7,6,1,,,,,,,,,,,,,,,,,,,,,,,,,,,,,,,,,,,,,,,,
,,,,,V1_017,21,F,2024-05-15_16h04.45.860,jersey_experiment_5_v1,2023.2.2,Win32,85.47008547,,,,,,,,,,,,,,,,357.4051,358.6991,358.6991,360.3345,return,0.5698,,60.02604167,,,,,,FBP-OG-71.png,0.43,1.2,34,0.5,0,8,8,33,1,,,,,,,,,,,,,,,,,,,,,,,,,,,,,,,,,,,,,,,,
,,,,,V1_017,21,F,2024-05-15_16h04.45.860,jersey_experiment_5_v1,2023.2.2,Win32,85.47008547,,,,,,,,,,,,,,,,360.3348,362.1345,362.1345,362.817,return,0.179,,60.67708333,,,,,,FBP-PT-17.png,0.4,1.2,3,1,0,9,9,2,1,,,,,,,,,,,,,,,,,,,,,,,,,,,,,,,,,,,,,,,,
,,,,,V1_017,21,F,2024-05-15_16h04.45.860,jersey_experiment_5_v1,2023.2.2,Win32,85.47008547,,,,,,,,,,,,,,,,362.8173,364.1111,364.1111,365.4408,return,0.7226,,73.69791667,,,,,,FBP-OG-81.png,0.43,1.2,39,0.5,0,10,10,38,1,,,,,,,,,,,,,,,,,,,,,,,,,,,,,,,,,,,,,,,,
,,,,,V1_017,21,F,2024-05-15_16h04.45.860,jersey_experiment_5_v1,2023.2.2,Win32,85.47008547,,,,,,,,,,,,,,,,365.441,366.7348,366.7348,368.5937,return,0.1905,,10.546875,,,,,,FBP-OG-81.png,0.35,1.2,36,0.5,0,11,11,35,1,,,,,,,,,,,,,,,,,,,,,,,,,,,,,,,,,,,,,,,,
,,,,,V1_017,21,F,2024-05-15_16h04.45.860,jersey_experiment_5_v1,2023.2.2,Win32,85.47008547,,,,,,,,,,,,,,,,368.5939,369.8878,369.8878,372.2408,return,1.2404,,77.08333333,,,,,,FBP-RB-18.png,0.45,1.2,55,0.5,0,12,12,54,1,,,,,,,,,,,,,,,,,,,,,,,,,,,,,,,,,,,,,,,,
,,,,,V1_017,21,F,2024-05-15_16h04.45.860,jersey_experiment_5_v1,2023.2.2,Win32,85.47008547,,,,,,,,,,,,,,,,372.241,373.5351,373.5351,374.5586,return,0.2664,,88.28125,,,,,,FBP-RB-17.png,0.45,1.2,50,0.5,0,13,13,49,1,,,,,,,,,,,,,,,,,,,,,,,,,,,,,,,,,,,,,,,,
,,,,,V1_017,21,F,2024-05-15_16h04.45.860,jersey_experiment_5_v1,2023.2.2,Win32,85.47008547,,,,,,,,,,,,,,,,374.5588,375.8526,375.8526,377.5117,return,0.6965,,53.64583333,,,,,,FBP-YG-71.png,0.4,1.2,18,0.5,0,14,14,17,1,,,,,,,,,,,,,,,,,,,,,,,,,,,,,,,,,,,,,,,,
,,,,,V1_017,21,F,2024-05-15_16h04.45.860,jersey_experiment_5_v1,2023.2.2,Win32,85.47008547,,,,,,,,,,,,,,,,377.5119,378.8058,378.8058,381.4294,return,0.7766,,60.41666667,,,,,,FBP-OG-91.png,0.4,1.2,43,0.5,0,15,15,42,1,,,,,,,,,,,,,,,,,,,,,,,,,,,,,,,,,,,,,,,,
,,,,,V1_017,21,F,2024-05-15_16h04.45.860,jersey_experiment_5_v1,2023.2.2,Win32,85.47008547,,,,,,,,,,,,,,,,381.4297,383.2296,383.2297,384.6764,return,0.4346,,33.72395833,,,,,,FBP-PT-18.png,0.35,1.2,6,1,0,16,16,5,1,,,,,,,,,,,,,,,,,,,,,,,,,,,,,,,,,,,,,,,,
,,,,,V1_017,21,F,2024-05-15_16h04.45.860,jersey_experiment_5_v1,2023.2.2,Win32,85.47008547,,,,,,,,,,,,,,,,384.6766,385.9706,385.9707,391.5124,return,4.5178,,69.01041667,,,,,,FBP-YG-91.png,0.43,1.2,29,0.5,0,17,17,28,1,,,,,,,,,,,,,,,,,,,,,,,,,,,,,,,,,,,,,,,,
,,,,,V1_017,21,F,2024-05-15_16h04.45.860,jersey_experiment_5_v1,2023.2.2,Win32,85.47008547,,,,,,,,,,,,,,,,391.5126,392.8062,392.8063,393.9357,return,0.2625,,86.58854167,,,,,,FBP-OG-91.png,0.45,1.2,45,0.5,0,18,18,44,1,,,,,,,,,,,,,,,,,,,,,,,,,,,,,,,,,,,,,,,,
,,,,,V1_017,21,F,2024-05-15_16h04.45.860,jersey_experiment_5_v1,2023.2.2,Win32,85.47008547,,,,,,,,,,,,,,,,393.936,395.2299,395.2299,402.0066,return,2.1886,,51.82291667,,,,,,FBP-OG-71.png,0.4,1.2,33,0.5,0,19,19,32,1,,,,,,,,,,,,,,,,,,,,,,,,,,,,,,,,,,,,,,,,
,,,,,V1_017,21,F,2024-05-15_16h04.45.860,jersey_experiment_5_v1,2023.2.2,Win32,85.47008547,,,,,,,,,,,,,,,,402.0069,403.3008,403.3009,405.5244,return,1.3898,,26.5625,,,,,,FBP-OG-71.png,0.37,1.2,32,0.5,0,20,20,31,1,,,,,,,,,,,,,,,,,,,,,,,,,,,,,,,,,,,,,,,,
,,,,,V1_017,21,F,2024-05-15_16h04.45.860,jersey_experiment_5_v1,2023.2.2,Win32,85.47008547,,,,,,,,,,,,,,,,405.5246,406.8186,406.8186,408.1952,return,0.1182,,59.63541667,,,,,,FBP-RB-19.png,0.4,1.2,58,0.5,0,21,21,57,1,,,,,,,,,,,,,,,,,,,,,,,,,,,,,,,,,,,,,,,,
,,,,,V1_017,21,F,2024-05-15_16h04.45.860,jersey_experiment_5_v1,2023.2.2,Win32,85.47008547,,,,,,,,,,,,,,,,408.1954,409.4892,409.4892,413.1836,return,2.922,,62.109375,,,,,,FBP-RB-18.png,0.4,1.2,53,0.5,0,22,22,52,1,,,,,,,,,,,,,,,,,,,,,,,,,,,,,,,,,,,,,,,,
,,,,,V1_017,21,F,2024-05-15_16h04.45.860,jersey_experiment_5_v1,2023.2.2,Win32,85.47008547,,,,,,,,,,,,,,,,413.1838,414.4777,414.4777,416.4659,return,0.5786,,42.96875,,,,,,FBP-YG-71.png,0.35,1.2,16,0.5,0,23,23,15,1,,,,,,,,,,,,,,,,,,,,,,,,,,,,,,,,,,,,,,,,
,,,,,V1_017,21,F,2024-05-15_16h04.45.860,jersey_experiment_5_v1,2023.2.2,Win32,85.47008547,,,,,,,,,,,,,,,,416.4661,418.2662,418.2662,419.0779,return,0.1275,,76.04166667,,,,,,FBP-PT-18.png,0.43,1.2,9,1,0,24,24,8,1,,,,,,,,,,,,,,,,,,,,,,,,,,,,,,,,,,,,,,,,
,,,,,V1_017,21,F,2024-05-15_16h04.45.860,jersey_experiment_5_v1,2023.2.2,Win32,85.47008547,,,,,,,,,,,,,,,,419.0781,420.3719,420.3719,423.4427,return,0.1327,,49.34895833,,,,,,FBP-YG-81.png,0.37,1.2,22,0.5,0,25,25,21,1,,,,,,,,,,,,,,,,,,,,,,,,,,,,,,,,,,,,,,,,
,,,,,V1_017,21,F,2024-05-15_16h04.45.860,jersey_experiment_5_v1,2023.2.2,Win32,85.47008547,,,,,,,,,,,,,,,,423.4428,424.7369,424.7369,427.49,return,1.6866,,73.69791667,,,,,,FBP-RB-19.png,0.43,1.2,59,0.5,0,26,26,58,1,,,,,,,,,,,,,,,,,,,,,,,,,,,,,,,,,,,,,,,,
,,,,,V1_017,21,F,2024-05-15_16h04.45.860,jersey_experiment_5_v1,2023.2.2,Win32,85.47008547,,,,,,,,,,,,,,,,427.4903,428.7842,428.7842,429.89,return,0.19,,82.8125,,,,,,FBP-YG-91.png,0.45,1.2,30,0.5,0,27,27,29,1,,,,,,,,,,,,,,,,,,,,,,,,,,,,,,,,,,,,,,,,
,,,,,V1_017,21,F,2024-05-15_16h04.45.860,jersey_experiment_5_v1,2023.2.2,Win32,85.47008547,,,,,,,,,,,,,,,,429.8903,431.1841,431.1841,432.4077,return,0.2727,,80.078125,,,,,,FBP-YG-81.png,0.4,1.2,23,0.5,0,28,28,22,1,,,,,,,,,,,,,,,,,,,,,,,,,,,,,,,,,,,,,,,,
,,,,,V1_017,21,F,2024-05-15_16h04.45.860,jersey_experiment_5_v1,2023.2.2,Win32,85.47008547,,,,,,,,,,,,,,,,432.408,433.702,433.702,437.6315,return,0.7236,,31.25,,,,,,FBP-OG-81.png,0.37,1.2,37,0.5,0,29,29,36,1,,,,,,,,,,,,,,,,,,,,,,,,,,,,,,,,,,,,,,,,
,,,,,V1_017,21,F,2024-05-15_16h04.45.860,jersey_experiment_5_v1,2023.2.2,Win32,85.47008547,,,,,,,,,,,,,,,,437.6317,438.9256,438.9256,461.6562,return,10.0009,,44.921875,,,,,,FBP-RB-17.png,0.37,1.2,47,0.5,0,30,30,46,1,,,,,,,,,,,,,,,,,,,,,,,,,,,,,,,,,,,,,,,,
,,,,,V1_017,21,F,2024-05-15_16h04.45.860,jersey_experiment_5_v1,2023.2.2,Win32,85.47008547,,,,,,,,,,,,,,,,461.6608,463.4561,463.4561,466.7385,return,1.5784,,46.484375,,,,,,FBP-PT-17.png,0.37,1.2,2,1,0,31,31,1,1,,,,,,,,,,,,,,,,,,,,,,,,,,,,,,,,,,,,,,,,
,,,,,V1_017,21,F,2024-05-15_16h04.45.860,jersey_experiment_5_v1,2023.2.2,Win32,85.47008547,,,,,,,,,,,,,,,,466.7388,468.0325,468.0325,469.762,return,0.8271,,45.83333333,,,,,,FBP-RB-17.png,0.4,1.2,48,0.5,0,32,32,47,1,,,,,,,,,,,,,,,,,,,,,,,,,,,,,,,,,,,,,,,,
,,,,,V1_017,21,F,2024-05-15_16h04.45.860,jersey_experiment_5_v1,2023.2.2,Win32,85.47008547,,,,,,,,,,,,,,,,469.7622,471.0562,471.0562,472.5034,return,0.1876,,76.43229167,,,,,,FBP-YG-81.png,0.43,1.2,24,0.5,0,33,33,23,1,,,,,,,,,,,,,,,,,,,,,,,,,,,,,,,,,,,,,,,,
,,,,,V1_017,21,F,2024-05-15_16h04.45.860,jersey_experiment_5_v1,2023.2.2,Win32,85.47008547,,,,,,,,,,,,,,,,472.5035,474.3037,474.3037,477.9507,return,2.4173,,48.56770833,,,,,,FBP-PT-19.png,0.37,1.2,12,1,0,34,34,11,1,,,,,,,,,,,,,,,,,,,,,,,,,,,,,,,,,,,,,,,,
,,,,,V1_017,21,F,2024-05-15_16h04.45.860,jersey_experiment_5_v1,2023.2.2,Win32,85.47008547,,,,,,,,,,,,,,,,477.9509,479.2447,479.2447,479.9272,return,0.118,,48.56770833,,,,,,FBP-RB-18.png,0.35,1.2,51,0.5,0,35,35,50,1,,,,,,,,,,,,,,,,,,,,,,,,,,,,,,,,,,,,,,,,
,,,,,V1_017,21,F,2024-05-15_16h04.45.860,jersey_experiment_5_v1,2023.2.2,Win32,85.47008547,,,,,,,,,,,,,,,,479.9275,481.7274,481.7275,483.7625,return,1.1893,,62.5,,,,,,FBP-PT-19.png,0.4,1.2,13,1,0,36,36,12,1,,,,,,,,,,,,,,,,,,,,,,,,,,,,,,,,,,,,,,,,
,,,,,V1_017,21,F,2024-05-15_16h04.45.860,jersey_experiment_5_v1,2023.2.2,Win32,85.47008547,,,,,,,,,,,,,,,,483.7628,485.5625,485.5626,486.4334,return,0.1442,,77.86458333,,,,,,FBP-PT-19.png,0.43,1.2,14,1,0,37,37,13,1,,,,,,,,,,,,,,,,,,,,,,,,,,,,,,,,,,,,,,,,
,,,,,V1_017,21,F,2024-05-15_16h04.45.860,jersey_experiment_5_v1,2023.2.2,Win32,85.47008547,,,,,,,,,,,,,,,,486.4335,487.7273,487.7274,489.7158,return,1.2823,,75.390625,,,,,,FBP-OG-81.png,0.4,1.2,38,0.5,0,38,38,37,1,,,,,,,,,,,,,,,,,,,,,,,,,,,,,,,,,,,,,,,,
,,,,,V1_017,21,F,2024-05-15_16h04.45.860,jersey_experiment_5_v1,2023.2.2,Win32,85.47008547,,,,,,,,,,,,,,,,489.7161,491.0098,491.0098,492.6099,return,0.1787,,83.07291667,,,,,,FBP-YG-71.png,0.43,1.2,19,0.5,0,39,39,18,1,,,,,,,,,,,,,,,,,,,,,,,,,,,,,,,,,,,,,,,,
,,,,,V1_017,21,F,2024-05-15_16h04.45.860,jersey_experiment_5_v1,2023.2.2,Win32,85.47008547,,,,,,,,,,,,,,,,492.6102,493.9041,493.9042,496.5043,return,1.4825,,47.65625,,,,,,FBP-YG-71.png,0.37,1.2,17,0.5,0,40,40,16,1,,,,,,,,,,,,,,,,,,,,,,,,,,,,,,,,,,,,,,,,
,,,,,V1_017,21,F,2024-05-15_16h04.45.860,jersey_experiment_5_v1,2023.2.2,Win32,85.47008547,,,,,,,,,,,,,,,,496.5045,497.7983,497.7983,499.5514,return,0.204,,74.21875,,,,,,FBP-OG-91.png,0.43,1.2,44,0.5,0,41,41,43,1,,,,,,,,,,,,,,,,,,,,,,,,,,,,,,,,,,,,,,,,
,,,,,V1_017,21,F,2024-05-15_16h04.45.860,jersey_experiment_5_v1,2023.2.2,Win32,85.47008547,,,,,,,,,,,,,,,,499.5516,500.8454,500.8455,501.5045,return,0.1935,,75.91145833,,,,,,FBP-RB-17.png,0.43,1.2,49,0.5,0,42,42,48,1,,,,,,,,,,,,,,,,,,,,,,,,,,,,,,,,,,,,,,,,
,,,,,V1_017,21,F,2024-05-15_16h04.45.860,jersey_experiment_5_v1,2023.2.2,Win32,85.47008547,,,,,,,,,,,,,,,,501.5047,502.7985,502.7985,512.3283,return,4.5411,,27.86458333,,,,,,FBP-RB-17.png,0.35,1.2,46,0.5,0,43,43,45,1,,,,,,,,,,,,,,,,,,,,,,,,,,,,,,,,,,,,,,,,
,,,,,V1_017,21,F,2024-05-15_16h04.45.860,jersey_experiment_5_v1,2023.2.2,Win32,85.47008547,,,,,,,,,,,,,,,,512.3285,514.1287,514.1287,516.2228,return,1.125,,96.22395833,,,,,,FBP-PT-19.png,0.45,1.2,15,1,0,44,44,14,1,,,,,,,,,,,,,,,,,,,,,,,,,,,,,,,,,,,,,,,,
,,,,,V1_017,21,F,2024-05-15_16h04.45.860,jersey_experiment_5_v1,2023.2.2,Win32,85.47008547,,,,,,,,,,,,,,,,516.223,518.0228,518.0228,519.6345,return,0.1091,,50.78125,,,,,,FBP-PT-18.png,0.4,1.2,8,1,0,45,45,7,1,,,,,,,,,,,,,,,,,,,,,,,,,,,,,,,,,,,,,,,,
,,,,,V1_017,21,F,2024-05-15_16h04.45.860,jersey_experiment_5_v1,2023.2.2,Win32,85.47008547,,,,,,,,,,,,,,,,519.6347,521.4346,521.4347,523.0229,return,0.8057,,66.40625,,,,,,FBP-PT-17.png,0.43,1.2,4,1,0,46,46,3,1,,,,,,,,,,,,,,,,,,,,,,,,,,,,,,,,,,,,,,,,
,,,,,V1_017,21,F,2024-05-15_16h04.45.860,jersey_experiment_5_v1,2023.2.2,Win32,85.47008547,,,,,,,,,,,,,,,,523.0232,524.8229,524.8229,525.6818,return,0.1805,,25.26041667,,,,,,FBP-PT-19.png,0.35,1.2,11,1,0,47,47,10,1,,,,,,,,,,,,,,,,,,,,,,,,,,,,,,,,,,,,,,,,
,,,,,V1_017,21,F,2024-05-15_16h04.45.860,jersey_experiment_5_v1,2023.2.2,Win32,85.47008547,,,,,,,,,,,,,,,,525.6821,526.976,526.976,527.976,return,0.0707,,24.86979167,,,,,,FBP-YG-91.png,0.35,1.2,26,0.5,0,48,48,25,1,,,,,,,,,,,,,,,,,,,,,,,,,,,,,,,,,,,,,,,,
,,,,,V1_017,21,F,2024-05-15_16h04.45.860,jersey_experiment_5_v1,2023.2.2,Win32,85.47008547,,,,,,,,,,,,,,,,527.9761,529.2701,529.2702,530.435,return,0.179,,62.890625,,,,,,FBP-YG-91.png,0.4,1.2,28,0.5,0,49,49,27,1,,,,,,,,,,,,,,,,,,,,,,,,,,,,,,,,,,,,,,,,
,,,,,V1_017,21,F,2024-05-15_16h04.45.860,jersey_experiment_5_v1,2023.2.2,Win32,85.47008547,,,,,,,,,,,,,,,,530.4351,531.729,531.729,535.9528,return,0.358,,48.828125,,,,,,FBP-OG-91.png,0.37,1.2,42,0.5,0,50,50,41,1,,,,,,,,,,,,,,,,,,,,,,,,,,,,,,,,,,,,,,,,
,,,,,V1_017,21,F,2024-05-15_16h04.45.860,jersey_experiment_5_v1,2023.2.2,Win32,85.47008547,,,,,,,,,,,,,,,,535.953,537.2468,537.2469,539.5059,return,0.2019,,96.35416667,,,,,,FBP-YG-71.png,0.45,1.2,20,0.5,0,51,51,19,1,,,,,,,,,,,,,,,,,,,,,,,,,,,,,,,,,,,,,,,,
,,,,,V1_017,21,F,2024-05-15_16h04.45.860,jersey_experiment_5_v1,2023.2.2,Win32,85.47008547,,,,,,,,,,,,,,,,539.5061,540.8,540.8,543.3647,return,0.2828,,42.70833333,,,,,,FBP-YG-91.png,0.37,1.2,27,0.5,0,52,52,26,1,,,,,,,,,,,,,,,,,,,,,,,,,,,,,,,,,,,,,,,,
,,,,,V1_017,21,F,2024-05-15_16h04.45.860,jersey_experiment_5_v1,2023.2.2,Win32,85.47008547,,,,,,,,,,,,,,,,543.3649,544.6588,544.6588,546.5414,return,0.1023,,35.80729167,,,,,,FBP-OG-71.png,0.35,1.2,31,0.5,0,53,53,30,1,,,,,,,,,,,,,,,,,,,,,,,,,,,,,,,,,,,,,,,,
,,,,,V1_017,21,F,2024-05-15_16h04.45.860,jersey_experiment_5_v1,2023.2.2,Win32,85.47008547,,,,,,,,,,,,,,,,546.5416,548.3415,548.3415,577.6486,return,25.7475,,33.203125,,,,,,FBP-PT-17.png,0.35,1.2,1,1,0,54,54,0,1,,,,,,,,,,,,,,,,,,,,,,,,,,,,,,,,,,,,,,,,
,,,,,V1_017,21,F,2024-05-15_16h04.45.860,jersey_experiment_5_v1,2023.2.2,Win32,85.47008547,,,,,,,,,,,,,,,,577.6533,579.4486,579.4487,581.1427,return,0.7303,,88.54166667,,,,,,FBP-PT-18.png,0.45,1.2,10,1,0,55,55,9,1,,,,,,,,,,,,,,,,,,,,,,,,,,,,,,,,,,,,,,,,
,,,,,V1_017,21,F,2024-05-15_16h04.45.860,jersey_experiment_5_v1,2023.2.2,Win32,85.47008547,,,,,,,,,,,,,,,,581.1429,582.4367,582.4367,584.4487,return,1.4497,,89.58333333,,,,,,FBP-OG-81.png,0.45,1.2,40,0.5,0,56,56,39,1,,,,,,,,,,,,,,,,,,,,,,,,,,,,,,,,,,,,,,,,
,,,,,V1_017,21,F,2024-05-15_16h04.45.860,jersey_experiment_5_v1,2023.2.2,Win32,85.47008547,,,,,,,,,,,,,,,,584.4489,586.2487,586.2488,587.2017,return,0.2024,,90.234375,,,,,,FBP-PT-17.png,0.45,1.2,5,1,0,57,57,4,1,,,,,,,,,,,,,,,,,,,,,,,,,,,,,,,,,,,,,,,,
,,,,,V1_017,21,F,2024-05-15_16h04.45.860,jersey_experiment_5_v1,2023.2.2,Win32,85.47008547,,,,,,,,,,,,,,,,587.2019,588.4957,588.4958,591.0725,return,1.1229,,13.15104167,,,,,,FBP-RB-19.png,0.35,1.2,56,0.5,0,58,58,55,1,,,,,,,,,,,,,,,,,,,,,,,,,,,,,,,,,,,,,,,,
,,,,,V1_017,21,F,2024-05-15_16h04.45.860,jersey_experiment_5_v1,2023.2.2,Win32,85.47008547,,,,,,,,,,,,,,,,591.0727,592.3664,592.3665,594.3902,return,0.8944,,74.73958333,,,,,,FBP-RB-18.png,0.43,1.2,54,0.5,0,59,59,53,1,,,,,,,,,,,,,,,,,,,,,,,,,,,,,,,,,,,,,,,,
,,,,,V1_017,21,F,2024-05-15_16h04.45.860,jersey_experiment_5_v1,2023.2.2,Win32,85.47008547,,,,,,,,,,,,,,,,,,,,,,,,,,,,,,,,,,,,,,,594.3906,714.395,,,,,,,,,,,,,,,,,,,,,,,,,,,,,,,,,,,,,,
,,,,,V1_017,21,F,2024-05-15_16h04.45.860,jersey_experiment_5_v1,2023.2.2,Win32,85.47008547,,,,,,,,,,,,,,,,,,,,,,,,,,,,,,,,,,,,,,,,,714.395,745.8313,return,31.4266,,,,,,,,,,,,,,,,,,,,,,,,,,,,,,,,,,
,,,,,V1_017,21,F,2024-05-15_16h04.45.860,jersey_experiment_5_v1,2023.2.2,Win32,85.47008547,,,,,,,,,,,,,,,,745.8373,747.6314,747.6314,749.8782,return,1.0821,,50.91145833,,,,,,FBP-OG-18.png,0.4,1.2,38,1,,,,,,,,,,,,,0,0,0,37,1,,,,,,,,,,,,,,,,,,,,,,,,,,,,
,,,,,V1_017,21,F,2024-05-15_16h04.45.860,jersey_experiment_5_v1,2023.2.2,Win32,85.47008547,,,,,,,,,,,,,,,,749.8786,751.6783,751.6784,752.5253,return,0.1596,,25.13020833,,,,,,FBP-OG-18.png,0.35,1.2,36,1,,,,,,,,,,,,,0,1,1,35,1,,,,,,,,,,,,,,,,,,,,,,,,,,,,
,,,,,V1_017,21,F,2024-05-15_16h04.45.860,jersey_experiment_5_v1,2023.2.2,Win32,85.47008547,,,,,,,,,,,,,,,,752.5256,754.3256,754.3257,755.6198,return,0.2727,,75.13020833,,,,,,FBP-YG-19.png,0.43,1.2,29,1,,,,,,,,,,,,,0,2,2,28,1,,,,,,,,,,,,,,,,,,,,,,,,,,,,
,,,,,V1_017,21,F,2024-05-15_16h04.45.860,jersey_experiment_5_v1,2023.2.2,Win32,85.47008547,,,,,,,,,,,,,,,,755.6201,756.9137,756.9138,758.608,return,0.2529,,82.421875,,,,,,FBP-PT-91.png,0.43,1.2,14,0.5,,,,,,,,,,,,,0,3,3,13,1,,,,,,,,,,,,,,,,,,,,,,,,,,,,
,,,,,V1_017,21,F,2024-05-15_16h04.45.860,jersey_experiment_5_v1,2023.2.2,Win32,85.47008547,,,,,,,,,,,,,,,,758.6082,760.4082,760.4082,762.0553,return,0.5179,,98.17708333,,,,,,FBP-RB-81.png,0.45,1.2,55,1,,,,,,,,,,,,,0,4,4,54,1,,,,,,,,,,,,,,,,,,,,,,,,,,,,
,,,,,V1_017,21,F,2024-05-15_16h04.45.860,jersey_experiment_5_v1,2023.2.2,Win32,85.47008547,,,,,,,,,,,,,,,,762.0555,763.8555,763.8555,765.5731,return,0.9064,,24.34895833,,,,,,FBP-OG-17.png,0.35,1.2,31,1,,,,,,,,,,,,,0,5,5,30,1,,,,,,,,,,,,,,,,,,,,,,,,,,,,
,,,,,V1_017,21,F,2024-05-15_16h04.45.860,jersey_experiment_5_v1,2023.2.2,Win32,85.47008547,,,,,,,,,,,,,,,,765.5732,767.3731,767.3731,768.3025,return,0.1597,,75.26041667,,,,,,FBP-OG-17.png,0.4,1.2,33,1,,,,,,,,,,,,,0,6,6,32,1,,,,,,,,,,,,,,,,,,,,,,,,,,,,
,,,,,V1_017,21,F,2024-05-15_16h04.45.860,jersey_experiment_5_v1,2023.2.2,Win32,85.47008547,,,,,,,,,,,,,,,,768.3027,769.5966,769.5967,771.1027,return,0.5,,68.09895833,,,,,,FBP-PT-91.png,0.37,1.2,12,0.5,,,,,,,,,,,,,0,7,7,11,1,,,,,,,,,,,,,,,,,,,,,,,,,,,,
,,,,,V1_017,21,F,2024-05-15_16h04.45.860,jersey_experiment_5_v1,2023.2.2,Win32,85.47008547,,,,,,,,,,,,,,,,771.1029,772.9026,772.9026,774.2438,return,0.6136,,50.390625,,,,,,FBP-RB-81.png,0.37,1.2,52,1,,,,,,,,,,,,,0,8,8,51,1,,,,,,,,,,,,,,,,,,,,,,,,,,,,
,,,,,V1_017,21,F,2024-05-15_16h04.45.860,jersey_experiment_5_v1,2023.2.2,Win32,85.47008547,,,,,,,,,,,,,,,,774.244,776.0443,776.0443,777.5735,return,0.3052,,73.69791667,,,,,,FBP-RB-81.png,0.4,1.2,53,1,,,,,,,,,,,,,0,9,9,52,1,,,,,,,,,,,,,,,,,,,,,,,,,,,,
,,,,,V1_017,21,F,2024-05-15_16h04.45.860,jersey_experiment_5_v1,2023.2.2,Win32,85.47008547,,,,,,,,,,,,,,,,777.5738,778.8677,778.8677,781.1382,return,0.1777,,49.47916667,,,,,,FBP-PT-71.png,0.37,1.2,2,0.5,,,,,,,,,,,,,0,10,10,1,1,,,,,,,,,,,,,,,,,,,,,,,,,,,,
,,,,,V1_017,21,F,2024-05-15_16h04.45.860,jersey_experiment_5_v1,2023.2.2,Win32,85.47008547,,,,,,,,,,,,,,,,781.1384,782.9387,782.9387,784.2913,return,0.2375,,97.00520833,,,,,,FBP-OG-17.png,0.45,1.2,35,1,,,,,,,,,,,,,0,11,11,34,1,,,,,,,,,,,,,,,,,,,,,,,,,,,,
,,,,,V1_017,21,F,2024-05-15_16h04.45.860,jersey_experiment_5_v1,2023.2.2,Win32,85.47008547,,,,,,,,,,,,,,,,784.2916,786.0913,786.0914,787.5384,return,0.1442,,85.67708333,,,,,,FBP-OG-17.png,0.43,1.2,34,1,,,,,,,,,,,,,0,12,12,33,1,,,,,,,,,,,,,,,,,,,,,,,,,,,,
,,,,,V1_017,21,F,2024-05-15_16h04.45.860,jersey_experiment_5_v1,2023.2.2,Win32,85.47008547,,,,,,,,,,,,,,,,787.5386,788.8327,788.8327,790.2563,return,0.1447,,49.73958333,,,,,,FBP-PT-81.png,0.4,1.2,8,0.5,,,,,,,,,,,,,0,13,13,7,1,,,,,,,,,,,,,,,,,,,,,,,,,,,,
,,,,,V1_017,21,F,2024-05-15_16h04.45.860,jersey_experiment_5_v1,2023.2.2,Win32,85.47008547,,,,,,,,,,,,,,,,790.2567,792.0563,792.0564,793.8209,return,0.7242,,97.13541667,,,,,,FBP-RB-91.png,0.45,1.2,60,1,,,,,,,,,,,,,0,14,14,59,1,,,,,,,,,,,,,,,,,,,,,,,,,,,,
,,,,,V1_017,21,F,2024-05-15_16h04.45.860,jersey_experiment_5_v1,2023.2.2,Win32,85.47008547,,,,,,,,,,,,,,,,793.8211,795.6211,795.6211,800.9742,return,2.5722,,53.25520833,,,,,,FBP-OG-19.png,0.4,1.2,43,1,,,,,,,,,,,,,0,15,15,42,1,,,,,,,,,,,,,,,,,,,,,,,,,,,,
,,,,,V1_017,21,F,2024-05-15_16h04.45.860,jersey_experiment_5_v1,2023.2.2,Win32,85.47008547,,,,,,,,,,,,,,,,800.9745,802.7745,802.7746,804.9272,return,0.3828,,34.50520833,,,,,,FBP-RB-91.png,0.37,1.2,57,1,,,,,,,,,,,,,0,16,16,56,1,,,,,,,,,,,,,,,,,,,,,,,,,,,,
,,,,,V1_017,21,F,2024-05-15_16h04.45.860,jersey_experiment_5_v1,2023.2.2,Win32,85.47008547,,,,,,,,,,,,,,,,804.9274,806.7276,806.7277,808.5274,return,0.1943,,88.41145833,,,,,,FBP-RB-71.png,0.45,1.2,50,1,,,,,,,,,,,,,0,17,17,49,1,,,,,,,,,,,,,,,,,,,,,,,,,,,,
,,,,,V1_017,21,F,2024-05-15_16h04.45.860,jersey_experiment_5_v1,2023.2.2,Win32,85.47008547,,,,,,,,,,,,,,,,808.5277,810.3274,810.3274,811.5393,return,0.059,,90.75520833,,,,,,FBP-YG-19.png,0.45,1.2,30,1,,,,,,,,,,,,,0,18,18,29,1,,,,,,,,,,,,,,,,,,,,,,,,,,,,
,,,,,V1_017,21,F,2024-05-15_16h04.45.860,jersey_experiment_5_v1,2023.2.2,Win32,85.47008547,,,,,,,,,,,,,,,,811.5395,813.3394,813.3395,815.3747,return,0.2049,,76.82291667,,,,,,FBP-RB-91.png,0.4,1.2,58,1,,,,,,,,,,,,,0,19,19,57,1,,,,,,,,,,,,,,,,,,,,,,,,,,,,
,,,,,V1_017,21,F,2024-05-15_16h04.45.860,jersey_experiment_5_v1,2023.2.2,Win32,85.47008547,,,,,,,,,,,,,,,,815.375,817.175,817.1751,818.4807,return,0.4754,,86.328125,,,,,,FBP-OG-18.png,0.43,1.2,39,1,,,,,,,,,,,,,0,20,20,38,1,,,,,,,,,,,,,,,,,,,,,,,,,,,,
,,,,,V1_017,21,F,2024-05-15_16h04.45.860,jersey_experiment_5_v1,2023.2.2,Win32,85.47008547,,,,,,,,,,,,,,,,818.481,820.2811,820.2811,821.5398,return,0.2233,,25.65104167,,,,,,FBP-OG-19.png,0.37,1.2,42,1,,,,,,,,,,,,,0,21,21,41,1,,,,,,,,,,,,,,,,,,,,,,,,,,,,
,,,,,V1_017,21,F,2024-05-15_16h04.45.860,jersey_experiment_5_v1,2023.2.2,Win32,85.47008547,,,,,,,,,,,,,,,,821.54,823.3397,823.3397,825.4457,return,0.2592,,36.84895833,,,,,,FBP-OG-18.png,0.37,1.2,37,1,,,,,,,,,,,,,0,22,22,36,1,,,,,,,,,,,,,,,,,,,,,,,,,,,,
,,,,,V1_017,21,F,2024-05-15_16h04.45.860,jersey_experiment_5_v1,2023.2.2,Win32,85.47008547,,,,,,,,,,,,,,,,825.446,827.2462,827.2462,829.3282,return,0.8992,,38.28125,,,,,,FBP-YG-19.png,0.37,1.2,27,1,,,,,,,,,,,,,0,23,23,26,1,,,,,,,,,,,,,,,,,,,,,,,,,,,,
,,,,,V1_017,21,F,2024-05-15_16h04.45.860,jersey_experiment_5_v1,2023.2.2,Win32,85.47008547,,,,,,,,,,,,,,,,829.3284,831.1283,831.1283,832.6932,return,0.199,,59.89583333,,,,,,FBP-RB-71.png,0.37,1.2,47,1,,,,,,,,,,,,,0,24,24,46,1,,,,,,,,,,,,,,,,,,,,,,,,,,,,
,,,,,V1_017,21,F,2024-05-15_16h04.45.860,jersey_experiment_5_v1,2023.2.2,Win32,85.47008547,,,,,,,,,,,,,,,,832.6934,833.9872,833.9872,836.705,return,0.2987,,96.09375,,,,,,FBP-PT-71.png,0.45,1.2,5,0.5,,,,,,,,,,,,,0,25,25,4,1,,,,,,,,,,,,,,,,,,,,,,,,,,,,
,,,,,V1_017,21,F,2024-05-15_16h04.45.860,jersey_experiment_5_v1,2023.2.2,Win32,85.47008547,,,,,,,,,,,,,,,,836.7052,837.9993,837.9993,841.8227,return,0.2184,,95.3125,,,,,,FBP-PT-81.png,0.45,1.2,10,0.5,,,,,,,,,,,,,0,26,26,9,1,,,,,,,,,,,,,,,,,,,,,,,,,,,,
,,,,,V1_017,21,F,2024-05-15_16h04.45.860,jersey_experiment_5_v1,2023.2.2,Win32,85.47008547,,,,,,,,,,,,,,,,841.823,843.1168,843.1168,852.2232,return,0.8868,,44.27083333,,,,,,FBP-PT-91.png,0.4,1.2,13,0.5,,,,,,,,,,,,,0,27,27,12,1,,,,,,,,,,,,,,,,,,,,,,,,,,,,
,,,,,V1_017,21,F,2024-05-15_16h04.45.860,jersey_experiment_5_v1,2023.2.2,Win32,85.47008547,,,,,,,,,,,,,,,,852.2234,853.5173,853.5173,855.635,return,0.2238,,38.15104167,,,,,,FBP-PT-81.png,0.37,1.2,7,0.5,,,,,,,,,,,,,0,28,28,6,1,,,,,,,,,,,,,,,,,,,,,,,,,,,,
,,,,,V1_017,21,F,2024-05-15_16h04.45.860,jersey_experiment_5_v1,2023.2.2,Win32,85.47008547,,,,,,,,,,,,,,,,855.6353,856.9292,856.9292,858.3999,return,0.4741,,66.53645833,,,,,,FBP-PT-71.png,0.4,1.2,3,0.5,,,,,,,,,,,,,0,29,29,2,1,,,,,,,,,,,,,,,,,,,,,,,,,,,,
,,,,,V1_017,21,F,2024-05-15_16h04.45.860,jersey_experiment_5_v1,2023.2.2,Win32,85.47008547,,,,,,,,,,,,,,,,858.4001,860.2001,860.2001,861.5411,return,0.1515,,16.27604167,,,,,,FBP-RB-71.png,0.35,1.2,46,1,,,,,,,,,,,,,0,30,30,45,1,,,,,,,,,,,,,,,,,,,,,,,,,,,,
,,,,,V1_017,21,F,2024-05-15_16h04.45.860,jersey_experiment_5_v1,2023.2.2,Win32,85.47008547,,,,,,,,,,,,,,,,861.5413,863.3413,863.3414,865.0119,return,0.1647,,75.65104167,,,,,,FBP-RB-71.png,0.4,1.2,48,1,,,,,,,,,,,,,0,31,31,47,1,,,,,,,,,,,,,,,,,,,,,,,,,,,,
,,,,,V1_017,21,F,2024-05-15_16h04.45.860,jersey_experiment_5_v1,2023.2.2,Win32,85.47008547,,,,,,,,,,,,,,,,865.0121,866.812,866.812,876.6478,return,8.6229,,76.171875,,,,,,FBP-YG-19.png,0.4,1.2,28,1,,,,,,,,,,,,,0,32,32,27,1,,,,,,,,,,,,,,,,,,,,,,,,,,,,
,,,,,V1_017,21,F,2024-05-15_16h04.45.860,jersey_experiment_5_v1,2023.2.2,Win32,85.47008547,,,,,,,,,,,,,,,,876.6526,878.4478,878.4478,879.4124,return,0.1086,,94.27083333,,,,,,FBP-YG-18.png,0.45,1.2,25,1,,,,,,,,,,,,,0,33,33,24,1,,,,,,,,,,,,,,,,,,,,,,,,,,,,
,,,,,V1_017,21,F,2024-05-15_16h04.45.860,jersey_experiment_5_v1,2023.2.2,Win32,85.47008547,,,,,,,,,,,,,,,,879.4126,881.2126,881.2126,882.7654,return,0.3947,,60.67708333,,,,,,FBP-OG-19.png,0.43,1.2,44,1,,,,,,,,,,,,,0,34,34,43,1,,,,,,,,,,,,,,,,,,,,,,,,,,,,
,,,,,V1_017,21,F,2024-05-15_16h04.45.860,jersey_experiment_5_v1,2023.2.2,Win32,85.47008547,,,,,,,,,,,,,,,,882.7655,884.5658,884.5658,886.9185,return,0.3776,,66.27604167,,,,,,FBP-YG-17.png,0.4,1.2,18,1,,,,,,,,,,,,,0,35,35,17,1,,,,,,,,,,,,,,,,,,,,,,,,,,,,
,,,,,V1_017,21,F,2024-05-15_16h04.45.860,jersey_experiment_5_v1,2023.2.2,Win32,85.47008547,,,,,,,,,,,,,,,,886.9188,888.7188,888.7188,890.3893,return,0.0804,,81.640625,,,,,,FBP-OG-19.png,0.45,1.2,45,1,,,,,,,,,,,,,0,36,36,44,1,,,,,,,,,,,,,,,,,,,,,,,,,,,,
,,,,,V1_017,21,F,2024-05-15_16h04.45.860,jersey_experiment_5_v1,2023.2.2,Win32,85.47008547,,,,,,,,,,,,,,,,890.3895,892.1896,892.1896,893.1423,return,0.1412,,24.73958333,,,,,,FBP-OG-19.png,0.35,1.2,41,1,,,,,,,,,,,,,0,37,37,40,1,,,,,,,,,,,,,,,,,,,,,,,,,,,,
,,,,,V1_017,21,F,2024-05-15_16h04.45.860,jersey_experiment_5_v1,2023.2.2,Win32,85.47008547,,,,,,,,,,,,,,,,893.1426,894.4364,894.4364,896.472,return,0.1317,,28.25520833,,,,,,FBP-PT-81.png,0.35,1.2,6,0.5,,,,,,,,,,,,,0,38,38,5,1,,,,,,,,,,,,,,,,,,,,,,,,,,,,
,,,,,V1_017,21,F,2024-05-15_16h04.45.860,jersey_experiment_5_v1,2023.2.2,Win32,85.47008547,,,,,,,,,,,,,,,,896.4721,898.272,898.272,900.1779,return,0.1446,,54.42708333,,,,,,FBP-YG-17.png,0.35,1.2,16,1,,,,,,,,,,,,,0,39,39,15,1,,,,,,,,,,,,,,,,,,,,,,,,,,,,
,,,,,V1_017,21,F,2024-05-15_16h04.45.860,jersey_experiment_5_v1,2023.2.2,Win32,85.47008547,,,,,,,,,,,,,,,,900.1781,901.9781,901.9782,902.8956,return,0.1222,,61.97916667,,,,,,FBP-RB-81.png,0.35,1.2,51,1,,,,,,,,,,,,,0,40,40,50,1,,,,,,,,,,,,,,,,,,,,,,,,,,,,
,,,,,V1_017,21,F,2024-05-15_16h04.45.860,jersey_experiment_5_v1,2023.2.2,Win32,85.47008547,,,,,,,,,,,,,,,,902.8959,904.6957,904.6957,908.4369,return,0.2826,,89.84375,,,,,,FBP-RB-71.png,0.43,1.2,49,1,,,,,,,,,,,,,0,41,41,48,1,,,,,,,,,,,,,,,,,,,,,,,,,,,,
,,,,,V1_017,21,F,2024-05-15_16h04.45.860,jersey_experiment_5_v1,2023.2.2,Win32,85.47008547,,,,,,,,,,,,,,,,908.4371,910.2371,910.2372,914.7196,return,0.1566,,55.859375,,,,,,FBP-OG-17.png,0.37,1.2,32,1,,,,,,,,,,,,,0,42,42,31,1,,,,,,,,,,,,,,,,,,,,,,,,,,,,
,,,,,V1_017,21,F,2024-05-15_16h04.45.860,jersey_experiment_5_v1,2023.2.2,Win32,85.47008547,,,,,,,,,,,,,,,,914.7198,916.5199,916.5199,917.4373,return,0.1611,,78.90625,,,,,,FBP-RB-91.png,0.43,1.2,59,1,,,,,,,,,,,,,0,43,43,58,1,,,,,,,,,,,,,,,,,,,,,,,,,,,,
,,,,,V1_017,21,F,2024-05-15_16h04.45.860,jersey_experiment_5_v1,2023.2.2,Win32,85.47008547,,,,,,,,,,,,,,,,917.4375,919.2375,919.2376,920.3904,return,0.339,,76.171875,,,,,,FBP-YG-18.png,0.4,1.2,23,1,,,,,,,,,,,,,0,44,44,22,1,,,,,,,,,,,,,,,,,,,,,,,,,,,,
,,,,,V1_017,21,F,2024-05-15_16h04.45.860,jersey_experiment_5_v1,2023.2.2,Win32,85.47008547,,,,,,,,,,,,,,,,920.3906,922.1907,922.1907,924.2376,return,1.2199,,93.61979167,,,,,,FBP-YG-18.png,0.43,1.2,24,1,,,,,,,,,,,,,0,45,45,23,1,,,,,,,,,,,,,,,,,,,,,,,,,,,,
,,,,,V1_017,21,F,2024-05-15_16h04.45.860,jersey_experiment_5_v1,2023.2.2,Win32,85.47008547,,,,,,,,,,,,,,,,924.2378,926.0378,926.0379,928.367,return,0.1242,,90.234375,,,,,,FBP-RB-81.png,0.43,1.2,54,1,,,,,,,,,,,,,0,46,46,53,1,,,,,,,,,,,,,,,,,,,,,,,,,,,,
,,,,,V1_017,21,F,2024-05-15_16h04.45.860,jersey_experiment_5_v1,2023.2.2,Win32,85.47008547,,,,,,,,,,,,,,,,928.3672,930.1675,930.1675,932.1202,return,0.2257,,17.05729167,,,,,,FBP-RB-91.png,0.35,1.2,56,1,,,,,,,,,,,,,0,47,47,55,1,,,,,,,,,,,,,,,,,,,,,,,,,,,,
,,,,,V1_017,21,F,2024-05-15_16h04.45.860,jersey_experiment_5_v1,2023.2.2,Win32,85.47008547,,,,,,,,,,,,,,,,932.1204,933.4144,933.4144,934.885,return,0.2453,,18.359375,,,,,,FBP-PT-71.png,0.35,1.2,1,0.5,,,,,,,,,,,,,0,48,48,0,1,,,,,,,,,,,,,,,,,,,,,,,,,,,,
,,,,,V1_017,21,F,2024-05-15_16h04.45.860,jersey_experiment_5_v1,2023.2.2,Win32,85.47008547,,,,,,,,,,,,,,,,934.8853,936.6853,936.6853,939.4262,return,0.4268,,95.96354167,,,,,,FBP-YG-17.png,0.45,1.2,20,1,,,,,,,,,,,,,0,49,49,19,1,,,,,,,,,,,,,,,,,,,,,,,,,,,,
,,,,,V1_017,21,F,2024-05-15_16h04.45.860,jersey_experiment_5_v1,2023.2.2,Win32,85.47008547,,,,,,,,,,,,,,,,939.4265,941.2265,941.2265,1009.7113,return,66.4652,,51.43229167,,,,,,FBP-YG-17.png,0.37,1.2,17,1,,,,,,,,,,,,,0,50,50,16,1,,,,,,,,,,,,,,,,,,,,,,,,,,,,
,,,,,V1_017,21,F,2024-05-15_16h04.45.860,jersey_experiment_5_v1,2023.2.2,Win32,85.47008547,,,,,,,,,,,,,,,,1009.7159,1011.5113,1011.5113,1012.4173,return,0.1689,,74.86979167,,,,,,FBP-YG-17.png,0.43,1.2,19,1,,,,,,,,,,,,,0,51,51,18,1,,,,,,,,,,,,,,,,,,,,,,,,,,,,
,,,,,V1_017,21,F,2024-05-15_16h04.45.860,jersey_experiment_5_v1,2023.2.2,Win32,85.47008547,,,,,,,,,,,,,,,,1012.4175,1014.2176,1014.2176,1015.9115,return,0.7297,,27.08333333,,,,,,FBP-YG-18.png,0.35,1.2,21,1,,,,,,,,,,,,,0,52,52,20,1,,,,,,,,,,,,,,,,,,,,,,,,,,,,
,,,,,V1_017,21,F,2024-05-15_16h04.45.860,jersey_experiment_5_v1,2023.2.2,Win32,85.47008547,,,,,,,,,,,,,,,,1015.9117,1017.2059,1017.2059,1018.5116,return,0.2178,,76.43229167,,,,,,FBP-PT-71.png,0.43,1.2,4,0.5,,,,,,,,,,,,,0,53,53,3,1,,,,,,,,,,,,,,,,,,,,,,,,,,,,
,,,,,V1_017,21,F,2024-05-15_16h04.45.860,jersey_experiment_5_v1,2023.2.2,Win32,85.47008547,,,,,,,,,,,,,,,,1018.5118,1019.8059,1019.8059,1020.8646,return,0.2025,,24.34895833,,,,,,FBP-PT-91.png,0.35,1.2,11,0.5,,,,,,,,,,,,,0,54,54,10,1,,,,,,,,,,,,,,,,,,,,,,,,,,,,
,,,,,V1_017,21,F,2024-05-15_16h04.45.860,jersey_experiment_5_v1,2023.2.2,Win32,85.47008547,,,,,,,,,,,,,,,,1020.8649,1022.6647,1022.6647,1025.6296,return,1.6304,,44.40104167,,,,,,FBP-YG-19.png,0.35,1.2,26,1,,,,,,,,,,,,,0,55,55,25,1,,,,,,,,,,,,,,,,,,,,,,,,,,,,
,,,,,V1_017,21,F,2024-05-15_16h04.45.860,jersey_experiment_5_v1,2023.2.2,Win32,85.47008547,,,,,,,,,,,,,,,,1025.6298,1027.4297,1027.4297,1028.4767,return,0.1715,,52.734375,,,,,,FBP-YG-18.png,0.37,1.2,22,1,,,,,,,,,,,,,0,56,56,21,1,,,,,,,,,,,,,,,,,,,,,,,,,,,,
,,,,,V1_017,21,F,2024-05-15_16h04.45.860,jersey_experiment_5_v1,2023.2.2,Win32,85.47008547,,,,,,,,,,,,,,,,1028.4769,1029.7709,1029.7709,1030.9945,return,0.1796,,87.23958333,,,,,,FBP-PT-91.png,0.45,1.2,15,0.5,,,,,,,,,,,,,0,57,57,14,1,,,,,,,,,,,,,,,,,,,,,,,,,,,,
,,,,,V1_017,21,F,2024-05-15_16h04.45.860,jersey_experiment_5_v1,2023.2.2,Win32,85.47008547,,,,,,,,,,,,,,,,1030.9947,1032.2888,1032.2888,1034.724,return,1.023,,75.65104167,,,,,,FBP-PT-81.png,0.43,1.2,9,0.5,,,,,,,,,,,,,0,58,58,8,1,,,,,,,,,,,,,,,,,,,,,,,,,,,,
,,,,,V1_017,21,F,2024-05-15_16h04.45.860,jersey_experiment_5_v1,2023.2.2,Win32,85.47008547,,,,,,,,,,,,,,,,1034.7243,1036.5241,1036.5241,1037.3831,return,0.212,,74.609375,,,,,,FBP-OG-18.png,0.45,1.2,40,1,,,,,,,,,,,,,0,59,59,39,1,,,,,,,,,,,,,,,,,,,,,,,,,,,,
,,,,,V1_017,21,F,2024-05-15_16h04.45.860,jersey_experiment_5_v1,2023.2.2,Win32,85.47008547,,,,,,,,,,,,,,,,1037.3851,1039.1832,1039.1833,1041.4301,return,0.8808,,43.22916667,,,,,,FBP-YG-81.png,0.35,1.2,21,1,,,,,,,,,,,,,,,,,,0,0,0,20,1,,,,,,,,,,,,,,,,,,,,,,,
,,,,,V1_017,21,F,2024-05-15_16h04.45.860,jersey_experiment_5_v1,2023.2.2,Win32,85.47008547,,,,,,,,,,,,,,,,1041.4306,1043.2303,1043.2303,1044.0772,return,0.1946,,76.82291667,,,,,,FBP-RB-18.png,0.43,1.2,54,1,,,,,,,,,,,,,,,,,,0,1,1,53,1,,,,,,,,,,,,,,,,,,,,,,,
,,,,,V1_017,21,F,2024-05-15_16h04.45.860,jersey_experiment_5_v1,2023.2.2,Win32,85.47008547,,,,,,,,,,,,,,,,1044.0774,1045.8775,1045.8775,1046.454,return,0.1406,,85.41666667,,,,,,FBP-YG-91.png,0.45,1.2,30,1,,,,,,,,,,,,,,,,,,0,2,2,29,1,,,,,,,,,,,,,,,,,,,,,,,
,,,,,V1_017,21,F,2024-05-15_16h04.45.860,jersey_experiment_5_v1,2023.2.2,Win32,85.47008547,,,,,,,,,,,,,,,,1046.4542,1047.7479,1047.7479,1048.7009,return,0.2775,,87.109375,,,,,,FBP-PT-18.png,0.43,1.2,9,0.5,,,,,,,,,,,,,,,,,,0,3,3,8,1,,,,,,,,,,,,,,,,,,,,,,,
,,,,,V1_017,21,F,2024-05-15_16h04.45.860,jersey_experiment_5_v1,2023.2.2,Win32,85.47008547,,,,,,,,,,,,,,,,1048.7011,1049.995,1049.9951,1051.8541,return,0.1816,,51.5625,,,,,,FBP-PT-18.png,0.4,1.2,8,0.5,,,,,,,,,,,,,,,,,,0,4,4,7,1,,,,,,,,,,,,,,,,,,,,,,,
,,,,,V1_017,21,F,2024-05-15_16h04.45.860,jersey_experiment_5_v1,2023.2.2,Win32,85.47008547,,,,,,,,,,,,,,,,1051.8543,1053.1481,1053.1482,1054.4542,return,0.5413,,74.47916667,,,,,,FBP-PT-17.png,0.43,1.2,4,0.5,,,,,,,,,,,,,,,,,,0,5,5,3,1,,,,,,,,,,,,,,,,,,,,,,,
,,,,,V1_017,21,F,2024-05-15_16h04.45.860,jersey_experiment_5_v1,2023.2.2,Win32,85.47008547,,,,,,,,,,,,,,,,1054.4544,1056.2543,1056.2543,1057.8897,return,0.1331,,92.1875,,,,,,FBP-OG-81.png,0.45,1.2,40,1,,,,,,,,,,,,,,,,,,0,6,6,39,1,,,,,,,,,,,,,,,,,,,,,,,
,,,,,V1_017,21,F,2024-05-15_16h04.45.860,jersey_experiment_5_v1,2023.2.2,Win32,85.47008547,,,,,,,,,,,,,,,,1057.89,1059.6897,1059.6897,1060.8074,return,0.2132,,25.26041667,,,,,,FBP-RB-19.png,0.37,1.2,57,1,,,,,,,,,,,,,,,,,,0,7,7,56,1,,,,,,,,,,,,,,,,,,,,,,,
,,,,,V1_017,21,F,2024-05-15_16h04.45.860,jersey_experiment_5_v1,2023.2.2,Win32,85.47008547,,,,,,,,,,,,,,,,1060.8077,1062.6073,1062.6073,1063.2545,return,0.2362,,25.26041667,,,,,,FBP-OG-71.png,0.37,1.2,32,1,,,,,,,,,,,,,,,,,,0,8,8,31,1,,,,,,,,,,,,,,,,,,,,,,,
,,,,,V1_017,21,F,2024-05-15_16h04.45.860,jersey_experiment_5_v1,2023.2.2,Win32,85.47008547,,,,,,,,,,,,,,,,1063.2547,1064.5487,1064.5487,1065.7015,return,0.2255,,75.26041667,,,,,,FBP-PT-19.png,0.43,1.2,14,0.5,,,,,,,,,,,,,,,,,,0,9,9,13,1,,,,,,,,,,,,,,,,,,,,,,,
,,,,,V1_017,21,F,2024-05-15_16h04.45.860,jersey_experiment_5_v1,2023.2.2,Win32,85.47008547,,,,,,,,,,,,,,,,1065.7018,1067.5017,1067.5018,1070.0078,return,1.7656,,87.5,,,,,,FBP-RB-19.png,0.43,1.2,59,1,,,,,,,,,,,,,,,,,,0,10,10,58,1,,,,,,,,,,,,,,,,,,,,,,,
,,,,,V1_017,21,F,2024-05-15_16h04.45.860,jersey_experiment_5_v1,2023.2.2,Win32,85.47008547,,,,,,,,,,,,,,,,1070.008,1071.3017,1071.3017,1072.4313,return,0.1122,,93.359375,,,,,,FBP-PT-17.png,0.45,1.2,5,0.5,,,,,,,,,,,,,,,,,,0,11,11,4,1,,,,,,,,,,,,,,,,,,,,,,,
,,,,,V1_017,21,F,2024-05-15_16h04.45.860,jersey_experiment_5_v1,2023.2.2,Win32,85.47008547,,,,,,,,,,,,,,,,1072.4315,1074.2314,1074.2314,1075.149,return,0.1967,,24.21875,,,,,,FBP-OG-71.png,0.35,1.2,31,1,,,,,,,,,,,,,,,,,,0,12,12,30,1,,,,,,,,,,,,,,,,,,,,,,,
,,,,,V1_017,21,F,2024-05-15_16h04.45.860,jersey_experiment_5_v1,2023.2.2,Win32,85.47008547,,,,,,,,,,,,,,,,1075.1492,1076.9493,1076.9493,1078.3844,return,0.1111,,72.65625,,,,,,FBP-RB-19.png,0.4,1.2,58,1,,,,,,,,,,,,,,,,,,0,13,13,57,1,,,,,,,,,,,,,,,,,,,,,,,
,,,,,V1_017,21,F,2024-05-15_16h04.45.860,jersey_experiment_5_v1,2023.2.2,Win32,85.47008547,,,,,,,,,,,,,,,,1078.3846,1080.1845,1080.1845,1081.1374,return,0.2512,,74.21875,,,,,,FBP-OG-71.png,0.45,1.2,35,1,,,,,,,,,,,,,,,,,,0,14,14,34,1,,,,,,,,,,,,,,,,,,,,,,,
,,,,,V1_017,21,F,2024-05-15_16h04.45.860,jersey_experiment_5_v1,2023.2.2,Win32,85.47008547,,,,,,,,,,,,,,,,1081.1377,1082.9375,1082.9375,1084.1729,return,0.1712,,65.88541667,,,,,,FBP-RB-17.png,0.4,1.2,48,1,,,,,,,,,,,,,,,,,,0,15,15,47,1,,,,,,,,,,,,,,,,,,,,,,,
,,,,,V1_017,21,F,2024-05-15_16h04.45.860,jersey_experiment_5_v1,2023.2.2,Win32,85.47008547,,,,,,,,,,,,,,,,1084.1731,1085.9729,1085.973,1087.3494,return,0.1078,,75.78125,,,,,,FBP-RB-19.png,0.45,1.2,60,1,,,,,,,,,,,,,,,,,,0,16,16,59,1,,,,,,,,,,,,,,,,,,,,,,,
,,,,,V1_017,21,F,2024-05-15_16h04.45.860,jersey_experiment_5_v1,2023.2.2,Win32,85.47008547,,,,,,,,,,,,,,,,1087.3495,1089.1495,1089.1495,1091.1731,return,0.0948,,87.36979167,,,,,,FBP-YG-71.png,0.45,1.2,20,1,,,,,,,,,,,,,,,,,,0,17,17,19,1,,,,,,,,,,,,,,,,,,,,,,,
,,,,,V1_017,21,F,2024-05-15_16h04.45.860,jersey_experiment_5_v1,2023.2.2,Win32,85.47008547,,,,,,,,,,,,,,,,1091.1732,1092.9735,1092.9735,1094.8673,return,0.2846,,25.52083333,,,,,,FBP-OG-81.png,0.37,1.2,37,1,,,,,,,,,,,,,,,,,,0,18,18,36,1,,,,,,,,,,,,,,,,,,,,,,,
,,,,,V1_017,21,F,2024-05-15_16h04.45.860,jersey_experiment_5_v1,2023.2.2,Win32,85.47008547,,,,,,,,,,,,,,,,1094.8675,1096.6677,1096.6677,1097.8793,return,0.0712,,39.58333333,,,,,,FBP-OG-71.png,0.4,1.2,33,1,,,,,,,,,,,,,,,,,,0,19,19,32,1,,,,,,,,,,,,,,,,,,,,,,,
,,,,,V1_017,21,F,2024-05-15_16h04.45.860,jersey_experiment_5_v1,2023.2.2,Win32,85.47008547,,,,,,,,,,,,,,,,1097.8795,1099.1734,1099.1735,1100.5499,return,0.166,,39.453125,,,,,,FBP-PT-17.png,0.4,1.2,3,0.5,,,,,,,,,,,,,,,,,,0,20,20,2,1,,,,,,,,,,,,,,,,,,,,,,,
,,,,,V1_017,21,F,2024-05-15_16h04.45.860,jersey_experiment_5_v1,2023.2.2,Win32,85.47008547,,,,,,,,,,,,,,,,1100.5502,1102.3499,1102.3499,1104.7032,return,0.1004,,38.80208333,,,,,,FBP-YG-71.png,0.4,1.2,18,1,,,,,,,,,,,,,,,,,,0,21,21,17,1,,,,,,,,,,,,,,,,,,,,,,,
,,,,,V1_017,21,F,2024-05-15_16h04.45.860,jersey_experiment_5_v1,2023.2.2,Win32,85.47008547,,,,,,,,,,,,,,,,1104.7033,1105.9971,1105.9972,1107.0207,return,0.1382,,22.00520833,,,,,,FBP-PT-18.png,0.35,1.2,6,0.5,,,,,,,,,,,,,,,,,,0,22,22,5,1,,,,,,,,,,,,,,,,,,,,,,,
,,,,,V1_017,21,F,2024-05-15_16h04.45.860,jersey_experiment_5_v1,2023.2.2,Win32,85.47008547,,,,,,,,,,,,,,,,1107.0209,1108.8208,1108.8209,1110.2092,return,0.4986,,73.17708333,,,,,,FBP-RB-17.png,0.43,1.2,49,1,,,,,,,,,,,,,,,,,,0,23,23,48,1,,,,,,,,,,,,,,,,,,,,,,,
,,,,,V1_017,21,F,2024-05-15_16h04.45.860,jersey_experiment_5_v1,2023.2.2,Win32,85.47008547,,,,,,,,,,,,,,,,1110.2094,1112.0093,1112.0093,1114.927,return,0.0756,,82.421875,,,,,,FBP-RB-18.png,0.45,1.2,55,1,,,,,,,,,,,,,,,,,,0,24,24,54,1,,,,,,,,,,,,,,,,,,,,,,,
,,,,,V1_017,21,F,2024-05-15_16h04.45.860,jersey_experiment_5_v1,2023.2.2,Win32,85.47008547,,,,,,,,,,,,,,,,1114.9271,1116.727,1116.727,1117.3507,return,0.0606,,82.421875,,,,,,FBP-YG-81.png,0.43,1.2,24,1,,,,,,,,,,,,,,,,,,0,25,25,23,1,,,,,,,,,,,,,,,,,,,,,,,
,,,,,V1_017,21,F,2024-05-15_16h04.45.860,jersey_experiment_5_v1,2023.2.2,Win32,85.47008547,,,,,,,,,,,,,,,,1117.351,1119.1506,1119.1506,1120.1507,return,0.2367,,26.04166667,,,,,,FBP-RB-18.png,0.35,1.2,51,1,,,,,,,,,,,,,,,,,,0,26,26,50,1,,,,,,,,,,,,,,,,,,,,,,,
,,,,,V1_017,21,F,2024-05-15_16h04.45.860,jersey_experiment_5_v1,2023.2.2,Win32,85.47008547,,,,,,,,,,,,,,,,1120.1509,1121.9507,1121.9508,1122.6451,return,0.1079,,25.65104167,,,,,,FBP-RB-19.png,0.35,1.2,56,1,,,,,,,,,,,,,,,,,,0,27,27,55,1,,,,,,,,,,,,,,,,,,,,,,,
,,,,,V1_017,21,F,2024-05-15_16h04.45.860,jersey_experiment_5_v1,2023.2.2,Win32,85.47008547,,,,,,,,,,,,,,,,1122.6452,1124.445,1124.445,1127.0216,return,1.7139,,75,,,,,,FBP-OG-91.png,0.43,1.2,44,1,,,,,,,,,,,,,,,,,,0,28,28,43,1,,,,,,,,,,,,,,,,,,,,,,,
,,,,,V1_017,21,F,2024-05-15_16h04.45.860,jersey_experiment_5_v1,2023.2.2,Win32,85.47008547,,,,,,,,,,,,,,,,1127.0218,1128.8215,1128.8215,1131.4456,return,1.708,,90.10416667,,,,,,FBP-YG-81.png,0.45,1.2,25,1,,,,,,,,,,,,,,,,,,0,29,29,24,1,,,,,,,,,,,,,,,,,,,,,,,
,,,,,V1_017,21,F,2024-05-15_16h04.45.860,jersey_experiment_5_v1,2023.2.2,Win32,85.47008547,,,,,,,,,,,,,,,,1131.4457,1133.2452,1133.2453,1134.7512,return,0.1689,,73.4375,,,,,,FBP-OG-91.png,0.4,1.2,43,1,,,,,,,,,,,,,,,,,,0,30,30,42,1,,,,,,,,,,,,,,,,,,,,,,,
,,,,,V1_017,21,F,2024-05-15_16h04.45.860,jersey_experiment_5_v1,2023.2.2,Win32,85.47008547,,,,,,,,,,,,,,,,1134.7515,1136.5513,1136.5514,1137.9867,return,0.1304,,67.96875,,,,,,FBP-YG-71.png,0.37,1.2,17,1,,,,,,,,,,,,,,,,,,0,31,31,16,1,,,,,,,,,,,,,,,,,,,,,,,
,,,,,V1_017,21,F,2024-05-15_16h04.45.860,jersey_experiment_5_v1,2023.2.2,Win32,85.47008547,,,,,,,,,,,,,,,,1137.9869,1139.7868,1139.7868,1142.1631,return,0.2362,,50.78125,,,,,,FBP-OG-81.png,0.35,1.2,36,1,,,,,,,,,,,,,,,,,,0,32,32,35,1,,,,,,,,,,,,,,,,,,,,,,,
,,,,,V1_017,21,F,2024-05-15_16h04.45.860,jersey_experiment_5_v1,2023.2.2,Win32,85.47008547,,,,,,,,,,,,,,,,1142.1634,1143.4574,1143.4575,1145.0222,return,0.2058,,39.71354167,,,,,,FBP-PT-19.png,0.35,1.2,11,0.5,,,,,,,,,,,,,,,,,,0,33,33,10,1,,,,,,,,,,,,,,,,,,,,,,,
,,,,,V1_017,21,F,2024-05-15_16h04.45.860,jersey_experiment_5_v1,2023.2.2,Win32,85.47008547,,,,,,,,,,,,,,,,1145.0225,1146.8225,1146.8225,1148.5517,return,0.5512,,78.38541667,,,,,,FBP-YG-71.png,0.43,1.2,19,1,,,,,,,,,,,,,,,,,,0,34,34,18,1,,,,,,,,,,,,,,,,,,,,,,,
,,,,,V1_017,21,F,2024-05-15_16h04.45.860,jersey_experiment_5_v1,2023.2.2,Win32,85.47008547,,,,,,,,,,,,,,,,1148.5519,1150.3518,1150.3518,1151.2341,return,0.201,,80.33854167,,,,,,FBP-YG-81.png,0.4,1.2,23,1,,,,,,,,,,,,,,,,,,0,35,35,22,1,,,,,,,,,,,,,,,,,,,,,,,
,,,,,V1_017,21,F,2024-05-15_16h04.45.860,jersey_experiment_5_v1,2023.2.2,Win32,85.47008547,,,,,,,,,,,,,,,,1151.2344,1153.0342,1153.0342,1155.9521,return,1.1936,,77.86458333,,,,,,FBP-OG-81.png,0.4,1.2,38,1,,,,,,,,,,,,,,,,,,0,36,36,37,1,,,,,,,,,,,,,,,,,,,,,,,
,,,,,V1_017,21,F,2024-05-15_16h04.45.860,jersey_experiment_5_v1,2023.2.2,Win32,85.47008547,,,,,,,,,,,,,,,,1155.9523,1157.2463,1157.2463,1161.8699,return,3.2649,,47.78645833,,,,,,FBP-PT-17.png,0.37,1.2,2,0.5,,,,,,,,,,,,,,,,,,0,37,37,1,1,,,,,,,,,,,,,,,,,,,,,,,
,,,,,V1_017,21,F,2024-05-15_16h04.45.860,jersey_experiment_5_v1,2023.2.2,Win32,85.47008547,,,,,,,,,,,,,,,,1161.8701,1163.67,1163.6701,1167.0114,return,1.7651,,78.125,,,,,,FBP-YG-91.png,0.43,1.2,29,1,,,,,,,,,,,,,,,,,,0,38,38,28,1,,,,,,,,,,,,,,,,,,,,,,,
,,,,,V1_017,21,F,2024-05-15_16h04.45.860,jersey_experiment_5_v1,2023.2.2,Win32,85.47008547,,,,,,,,,,,,,,,,1167.0116,1168.8114,1168.8114,1170.0936,return,0.218,,95.83333333,,,,,,FBP-RB-17.png,0.45,1.2,50,1,,,,,,,,,,,,,,,,,,0,39,39,49,1,,,,,,,,,,,,,,,,,,,,,,,
,,,,,V1_017,21,F,2024-05-15_16h04.45.860,jersey_experiment_5_v1,2023.2.2,Win32,85.47008547,,,,,,,,,,,,,,,,1170.0939,1171.3881,1171.3881,1198.789,return,25.8933,,80.33854167,,,,,,FBP-PT-19.png,0.45,1.2,15,0.5,,,,,,,,,,,,,,,,,,0,40,40,14,1,,,,,,,,,,,,,,,,,,,,,,,
,,,,,V1_017,21,F,2024-05-15_16h04.45.860,jersey_experiment_5_v1,2023.2.2,Win32,85.47008547,,,,,,,,,,,,,,,,1198.7937,1200.589,1200.5891,1202.6477,return,1.352,,41.796875,,,,,,FBP-OG-91.png,0.37,1.2,42,1,,,,,,,,,,,,,,,,,,0,41,41,41,1,,,,,,,,,,,,,,,,,,,,,,,
,,,,,V1_017,21,F,2024-05-15_16h04.45.860,jersey_experiment_5_v1,2023.2.2,Win32,85.47008547,,,,,,,,,,,,,,,,1202.648,1204.4479,1204.4479,1205.0598,return,0.1313,,41.66666667,,,,,,FBP-YG-81.png,0.37,1.2,22,1,,,,,,,,,,,,,,,,,,0,42,42,21,1,,,,,,,,,,,,,,,,,,,,,,,
,,,,,V1_017,21,F,2024-05-15_16h04.45.860,jersey_experiment_5_v1,2023.2.2,Win32,85.47008547,,,,,,,,,,,,,,,,1205.06,1206.3537,1206.3537,1207.5539,return,0.1671,,27.734375,,,,,,FBP-PT-17.png,0.35,1.2,1,0.5,,,,,,,,,,,,,,,,,,0,43,43,0,1,,,,,,,,,,,,,,,,,,,,,,,
,,,,,V1_017,21,F,2024-05-15_16h04.45.860,jersey_experiment_5_v1,2023.2.2,Win32,85.47008547,,,,,,,,,,,,,,,,1207.5541,1208.8481,1208.8482,1210.26,return,0.6351,,73.69791667,,,,,,FBP-PT-18.png,0.45,1.2,10,0.5,,,,,,,,,,,,,,,,,,0,44,44,9,1,,,,,,,,,,,,,,,,,,,,,,,
,,,,,V1_017,21,F,2024-05-15_16h04.45.860,jersey_experiment_5_v1,2023.2.2,Win32,85.47008547,,,,,,,,,,,,,,,,1210.2602,1212.0599,1212.0599,1213.8952,return,0.2226,,52.34375,,,,,,FBP-OG-71.png,0.43,1.2,34,1,,,,,,,,,,,,,,,,,,0,45,45,33,1,,,,,,,,,,,,,,,,,,,,,,,
,,,,,V1_017,21,F,2024-05-15_16h04.45.860,jersey_experiment_5_v1,2023.2.2,Win32,85.47008547,,,,,,,,,,,,,,,,1213.8955,1215.6955,1215.6955,1218.2366,return,1.7383,,31.77083333,,,,,,FBP-OG-91.png,0.35,1.2,41,1,,,,,,,,,,,,,,,,,,0,46,46,40,1,,,,,,,,,,,,,,,,,,,,,,,
,,,,,V1_017,21,F,2024-05-15_16h04.45.860,jersey_experiment_5_v1,2023.2.2,Win32,85.47008547,,,,,,,,,,,,,,,,1218.2368,1219.5307,1219.5307,1221.1191,return,0.1473,,45.83333333,,,,,,FBP-PT-19.png,0.37,1.2,12,0.5,,,,,,,,,,,,,,,,,,0,47,47,11,1,,,,,,,,,,,,,,,,,,,,,,,
,,,,,V1_017,21,F,2024-05-15_16h04.45.860,jersey_experiment_5_v1,2023.2.2,Win32,85.47008547,,,,,,,,,,,,,,,,1221.1194,1222.9193,1222.9193,1223.778,return,0.0602,,41.796875,,,,,,FBP-YG-91.png,0.35,1.2,26,1,,,,,,,,,,,,,,,,,,0,48,48,25,1,,,,,,,,,,,,,,,,,,,,,,,
,,,,,V1_017,21,F,2024-05-15_16h04.45.860,jersey_experiment_5_v1,2023.2.2,Win32,85.47008547,,,,,,,,,,,,,,,,1223.7783,1225.0721,1225.0721,1227.5547,return,1.3084,,62.63020833,,,,,,FBP-PT-19.png,0.4,1.2,13,0.5,,,,,,,,,,,,,,,,,,0,49,49,12,1,,,,,,,,,,,,,,,,,,,,,,,
,,,,,V1_017,21,F,2024-05-15_16h04.45.860,jersey_experiment_5_v1,2023.2.2,Win32,85.47008547,,,,,,,,,,,,,,,,1227.555,1229.3546,1229.3546,1230.2254,return,0.263,,51.82291667,,,,,,FBP-YG-71.png,0.35,1.2,16,1,,,,,,,,,,,,,,,,,,0,50,50,15,1,,,,,,,,,,,,,,,,,,,,,,,
,,,,,V1_017,21,F,2024-05-15_16h04.45.860,jersey_experiment_5_v1,2023.2.2,Win32,85.47008547,,,,,,,,,,,,,,,,1230.2256,1232.0253,1232.0254,1232.8605,return,0.2207,,51.82291667,,,,,,FBP-RB-17.png,0.37,1.2,47,1,,,,,,,,,,,,,,,,,,0,51,51,46,1,,,,,,,,,,,,,,,,,,,,,,,
,,,,,V1_017,21,F,2024-05-15_16h04.45.860,jersey_experiment_5_v1,2023.2.2,Win32,85.47008547,,,,,,,,,,,,,,,,1232.8608,1234.6608,1234.6609,1236.402,return,1.2858,,53.125,,,,,,FBP-RB-18.png,0.37,1.2,52,1,,,,,,,,,,,,,,,,,,0,52,52,51,1,,,,,,,,,,,,,,,,,,,,,,,
,,,,,V1_017,21,F,2024-05-15_16h04.45.860,jersey_experiment_5_v1,2023.2.2,Win32,85.47008547,,,,,,,,,,,,,,,,1236.4022,1238.2021,1238.2021,1239.2962,return,0.2757,,73.046875,,,,,,FBP-YG-91.png,0.4,1.2,28,1,,,,,,,,,,,,,,,,,,0,53,53,27,1,,,,,,,,,,,,,,,,,,,,,,,
,,,,,V1_017,21,F,2024-05-15_16h04.45.860,jersey_experiment_5_v1,2023.2.2,Win32,85.47008547,,,,,,,,,,,,,,,,1239.2964,1241.0962,1241.0962,1242.0023,return,0.2032,,74.73958333,,,,,,FBP-OG-81.png,0.43,1.2,39,1,,,,,,,,,,,,,,,,,,0,54,54,38,1,,,,,,,,,,,,,,,,,,,,,,,
,,,,,V1_017,21,F,2024-05-15_16h04.45.860,jersey_experiment_5_v1,2023.2.2,Win32,85.47008547,,,,,,,,,,,,,,,,1242.0025,1243.8022,1243.8022,1244.5318,return,0.2001,,74.73958333,,,,,,FBP-RB-18.png,0.4,1.2,53,1,,,,,,,,,,,,,,,,,,0,55,55,52,1,,,,,,,,,,,,,,,,,,,,,,,
,,,,,V1_017,21,F,2024-05-15_16h04.45.860,jersey_experiment_5_v1,2023.2.2,Win32,85.47008547,,,,,,,,,,,,,,,,1244.5319,1245.8259,1245.8259,1247.6847,return,0.6829,,62.890625,,,,,,FBP-PT-18.png,0.37,1.2,7,0.5,,,,,,,,,,,,,,,,,,0,56,56,6,1,,,,,,,,,,,,,,,,,,,,,,,
,,,,,V1_017,21,F,2024-05-15_16h04.45.860,jersey_experiment_5_v1,2023.2.2,Win32,85.47008547,,,,,,,,,,,,,,,,1247.685,1249.485,1249.485,1250.5319,return,0.2839,,66.14583333,,,,,,FBP-YG-91.png,0.37,1.2,27,1,,,,,,,,,,,,,,,,,,0,57,57,26,1,,,,,,,,,,,,,,,,,,,,,,,
,,,,,V1_017,21,F,2024-05-15_16h04.45.860,jersey_experiment_5_v1,2023.2.2,Win32,85.47008547,,,,,,,,,,,,,,,,1250.5322,1252.3324,1252.3324,1253.1908,return,0.0805,,45.44270833,,,,,,FBP-RB-17.png,0.35,1.2,46,1,,,,,,,,,,,,,,,,,,0,58,58,45,1,,,,,,,,,,,,,,,,,,,,,,,
,,,,,V1_017,21,F,2024-05-15_16h04.45.860,jersey_experiment_5_v1,2023.2.2,Win32,85.47008547,,,,,,,,,,,,,,,,1253.1911,1254.9912,1254.9912,1255.9204,return,0.0993,,96.09375,,,,,,FBP-OG-91.png,0.45,1.2,45,1,,,,,,,,,,,,,,,,,,0,59,59,44,1,,,,,,,,,,,,,,,,,,,,,,,
,,,,,V1_017,21,F,2024-05-15_16h04.45.860,jersey_experiment_5_v1,2023.2.2,Win32,85.47008547,,,,,,,,,,,,,,,,,,,,,,,,,,,,,,,,,,,,,,,,,,,,,,,,,,,,,,,,1255.9209,1261.2621,return,5.3346,,,,,,,,,,,,,,,,,,,
,,,,,V1_017,21,F,2024-05-15_16h04.45.860,jersey_experiment_5_v1,2023.2.2,Win32,85.47008547,,,,,,,,,,,,,,,,,,,,,,,,,,,,,,,,,,,,,,,,,,,,,,,,,,,,,,,,,,,,,1261.2621,1266.4035,1,4.235,return,0.8843,,,,,,,,,,,,
,,,,,V1_017,21,F,2024-05-15_16h04.45.860,jersey_experiment_5_v1,2023.2.2,Win32,85.47008547,,,,,,,,,,,,,,,,,,,,,,,,,,,,,,,,,,,,,,,,,,,,,,,,,,,,,,,,,,,,,,,,,,,,1266.4037,1323.5752,The study is about the way we perceive size based on the time we have to look at objects.,right,51.99,,,,,,
,,,,,V1_017,21,F,2024-05-15_16h04.45.860,jersey_experiment_5_v1,2023.2.2,Win32,85.47008547,,,,,,,,,,,,,,,,,,,,,,,,,,,,,,,,,,,,,,,,,,,,,,,,,,,,,,,,,,,,,,,,,,,,,,,,,,1323.5753,1373.0307,return,49.442,