requirements.started,requirements.stopped,key_resp_3.keys,key_resp_3.rt,key_resp_3.duration,Subject ID,Age,Gender,date,expName,psychopyVersion,OS,frameRate,instructions1.started,instructions1.stopped,key_resp.keys,key_resp.rt,key_resp.duration,example.started,example.stopped,enter_2.keys,enter_2.rt,enter_2.duration,instructions2.started,instructions2.stopped,enter_3.keys,enter_3.rt,enter_3.duration,image.started,image.stopped,slider_2.started,slider_2.stopped,next.keys,next.rt,next.duration,slider.response,trial_block_1.thisRepN,trial_block_1.thisTrialN,trial_block_1.thisN,trial_block_1.thisIndex,trial_block_1.ran,Path,Width,Height,Index,Duration,trial_block_2.thisRepN,trial_block_2.thisTrialN,trial_block_2.thisN,trial_block_2.thisIndex,trial_block_2.ran,rest_break.started,rest_break.stopped,end_break.started,end_break.stopped,key_resp_5.keys,key_resp_5.rt,key_resp_5.duration,trial_block_3.thisRepN,trial_block_3.thisTrialN,trial_block_3.thisN,trial_block_3.thisIndex,trial_block_3.ran,trial_block_4.thisRepN,trial_block_4.thisTrialN,trial_block_4.thisN,trial_block_4.thisIndex,trial_block_4.ran,questions_intro.started,questions_intro.stopped,enter_12.keys,enter_12.rt,enter_12.duration,question2.started,question2.stopped,question_doingbest.response,question_doingbest.rt,enter_15.keys,enter_15.rt,enter_15.duration,pattern.started,pattern.stopped,pattern_2.text,enter_17.keys,enter_17.rt,enter_17.duration,thankyou.started,thankyou.stopped,enter_14.keys,enter_14.rt,enter_14.duration
0.0001,14.7708,return,14.765,,V1_034,20,female,2024-05-23_09h33.06.688,jersey_experiment_5_v1,2023.2.2,Win32,84.74576271,,,,,,,,,,,,,,,,,,,,,,,,,,,,,,,,,,,,,,,,,,,,,,,,,,,,,,,,,,,,,,,,,,,,,,,,,,,,,,
,,,,,V1_034,20,female,2024-05-23_09h33.06.688,jersey_experiment_5_v1,2023.2.2,Win32,84.74576271,14.771,23.6537,return,8.8597,,,,,,,,,,,,,,,,,,,,,,,,,,,,,,,,,,,,,,,,,,,,,,,,,,,,,,,,,,,,,,,,,,,,,,,,,,
,,,,,V1_034,20,female,2024-05-23_09h33.06.688,jersey_experiment_5_v1,2023.2.2,Win32,84.74576271,,,,,,23.6538,29.701,return,6.0085,,,,,,,,,,,,,,,,,,,,,,,,,,,,,,,,,,,,,,,,,,,,,,,,,,,,,,,,,,,,,,,,,,,,,
,,,,,V1_034,20,female,2024-05-23_09h33.06.688,jersey_experiment_5_v1,2023.2.2,Win32,84.74576271,,,,,,,,,,,29.7011,53.796,return,24.0838,,,,,,,,,,,,,,,,,,,,,,,,,,,,,,,,,,,,,,,,,,,,,,,,,,,,,,,,,,,,,,,,
,,,,,V1_034,20,female,2024-05-23_09h33.06.688,jersey_experiment_5_v1,2023.2.2,Win32,84.74576271,,,,,,,,,,,,,,,,53.8032,55.1015,55.1018,78.1031,return,12.8216,,25.78125,0,0,0,25,1,FBP-YG-19.png,0.35,1.2,26,0.5,,,,,,,,,,,,,,,,,,,,,,,,,,,,,,,,,,,,,,,,,,,,,
,,,,,V1_034,20,female,2024-05-23_09h33.06.688,jersey_experiment_5_v1,2023.2.2,Win32,84.74576271,,,,,,,,,,,,,,,,78.1101,79.4084,79.4085,87.1852,return,4.4055,,74.73958333,0,1,1,48,1,FBP-RB-71.png,0.43,1.2,49,0.5,,,,,,,,,,,,,,,,,,,,,,,,,,,,,,,,,,,,,,,,,,,,,
,,,,,V1_034,20,female,2024-05-23_09h33.06.688,jersey_experiment_5_v1,2023.2.2,Win32,84.74576271,,,,,,,,,,,,,,,,87.1854,88.9851,88.9852,95.4912,return,3.4034,,37.890625,0,2,2,10,1,FBP-PT-91.png,0.35,1.2,11,1,,,,,,,,,,,,,,,,,,,,,,,,,,,,,,,,,,,,,,,,,,,,,
,,,,,V1_034,20,female,2024-05-23_09h33.06.688,jersey_experiment_5_v1,2023.2.2,Win32,84.74576271,,,,,,,,,,,,,,,,95.4918,96.7853,96.7853,101.7739,return,1.4906,,9.765625,0,3,3,20,1,FBP-YG-18.png,0.35,1.2,21,0.5,,,,,,,,,,,,,,,,,,,,,,,,,,,,,,,,,,,,,,,,,,,,,
,,,,,V1_034,20,female,2024-05-23_09h33.06.688,jersey_experiment_5_v1,2023.2.2,Win32,84.74576271,,,,,,,,,,,,,,,,101.7742,103.0679,103.0679,107.0564,return,2.0181,,9.765625,0,4,4,15,1,FBP-YG-17.png,0.35,1.2,16,0.5,,,,,,,,,,,,,,,,,,,,,,,,,,,,,,,,,,,,,,,,,,,,,
,,,,,V1_034,20,female,2024-05-23_09h33.06.688,jersey_experiment_5_v1,2023.2.2,Win32,84.74576271,,,,,,,,,,,,,,,,107.0567,108.8564,108.8564,113.3508,return,1.5999,,23.95833333,0,5,5,13,1,FBP-PT-91.png,0.43,1.2,14,1,,,,,,,,,,,,,,,,,,,,,,,,,,,,,,,,,,,,,,,,,,,,,
,,,,,V1_034,20,female,2024-05-23_09h33.06.688,jersey_experiment_5_v1,2023.2.2,Win32,84.74576271,,,,,,,,,,,,,,,,113.3511,115.1508,115.1509,122.0335,return,3.6282,,89.58333333,0,6,6,14,1,FBP-PT-91.png,0.45,1.2,15,1,,,,,,,,,,,,,,,,,,,,,,,,,,,,,,,,,,,,,,,,,,,,,
,,,,,V1_034,20,female,2024-05-23_09h33.06.688,jersey_experiment_5_v1,2023.2.2,Win32,84.74576271,,,,,,,,,,,,,,,,122.0337,123.3275,123.3276,127.8453,return,1.3424,,75,0,7,7,53,1,FBP-RB-81.png,0.43,1.2,54,0.5,,,,,,,,,,,,,,,,,,,,,,,,,,,,,,,,,,,,,,,,,,,,,
,,,,,V1_034,20,female,2024-05-23_09h33.06.688,jersey_experiment_5_v1,2023.2.2,Win32,84.74576271,,,,,,,,,,,,,,,,127.8457,129.1395,129.1395,136.3398,return,4.4145,,36.58854167,0,8,8,57,1,FBP-RB-91.png,0.4,1.2,58,0.5,,,,,,,,,,,,,,,,,,,,,,,,,,,,,,,,,,,,,,,,,,,,,
,,,,,V1_034,20,female,2024-05-23_09h33.06.688,jersey_experiment_5_v1,2023.2.2,Win32,84.74576271,,,,,,,,,,,,,,,,136.3401,137.634,137.6341,140.5048,return,1.1776,,36.58854167,0,9,9,17,1,FBP-YG-17.png,0.4,1.2,18,0.5,,,,,,,,,,,,,,,,,,,,,,,,,,,,,,,,,,,,,,,,,,,,,
,,,,,V1_034,20,female,2024-05-23_09h33.06.688,jersey_experiment_5_v1,2023.2.2,Win32,84.74576271,,,,,,,,,,,,,,,,140.5054,141.7988,141.7988,146.2116,return,1.2392,,5.989583333,0,10,10,31,1,FBP-OG-17.png,0.37,1.2,32,0.5,,,,,,,,,,,,,,,,,,,,,,,,,,,,,,,,,,,,,,,,,,,,,
,,,,,V1_034,20,female,2024-05-23_09h33.06.688,jersey_experiment_5_v1,2023.2.2,Win32,84.74576271,,,,,,,,,,,,,,,,146.2119,147.5048,147.5049,151.5287,return,1.1907,,65.10416667,0,11,11,24,1,FBP-YG-18.png,0.45,1.2,25,0.5,,,,,,,,,,,,,,,,,,,,,,,,,,,,,,,,,,,,,,,,,,,,,
,,,,,V1_034,20,female,2024-05-23_09h33.06.688,jersey_experiment_5_v1,2023.2.2,Win32,84.74576271,,,,,,,,,,,,,,,,151.529,152.8226,152.8227,159.5995,return,4.948,,65.10416667,0,12,12,18,1,FBP-YG-17.png,0.43,1.2,19,0.5,,,,,,,,,,,,,,,,,,,,,,,,,,,,,,,,,,,,,,,,,,,,,
,,,,,V1_034,20,female,2024-05-23_09h33.06.688,jersey_experiment_5_v1,2023.2.2,Win32,84.74576271,,,,,,,,,,,,,,,,159.6041,160.9053,160.9053,166.9996,return,0.9409,,61.45833333,0,13,13,27,1,FBP-YG-19.png,0.4,1.2,28,0.5,,,,,,,,,,,,,,,,,,,,,,,,,,,,,,,,,,,,,,,,,,,,,
,,,,,V1_034,20,female,2024-05-23_09h33.06.688,jersey_experiment_5_v1,2023.2.2,Win32,84.74576271,,,,,,,,,,,,,,,,166.9999,168.2938,168.2938,171.647,return,0.9683,,12.36979167,0,14,14,36,1,FBP-OG-18.png,0.37,1.2,37,0.5,,,,,,,,,,,,,,,,,,,,,,,,,,,,,,,,,,,,,,,,,,,,,
,,,,,V1_034,20,female,2024-05-23_09h33.06.688,jersey_experiment_5_v1,2023.2.2,Win32,84.74576271,,,,,,,,,,,,,,,,171.6471,172.9411,172.9412,178.5181,return,1.178,,37.5,0,15,15,19,1,FBP-YG-17.png,0.45,1.2,20,0.5,,,,,,,,,,,,,,,,,,,,,,,,,,,,,,,,,,,,,,,,,,,,,
,,,,,V1_034,20,female,2024-05-23_09h33.06.688,jersey_experiment_5_v1,2023.2.2,Win32,84.74576271,,,,,,,,,,,,,,,,178.5188,179.8121,179.8121,182.9652,return,0.9558,,25.13020833,0,16,16,42,1,FBP-OG-19.png,0.4,1.2,43,0.5,,,,,,,,,,,,,,,,,,,,,,,,,,,,,,,,,,,,,,,,,,,,,
,,,,,V1_034,20,female,2024-05-23_09h33.06.688,jersey_experiment_5_v1,2023.2.2,Win32,84.74576271,,,,,,,,,,,,,,,,182.9654,184.2591,184.2592,186.8828,return,1.0271,,25.13020833,0,17,17,37,1,FBP-OG-18.png,0.4,1.2,38,0.5,,,,,,,,,,,,,,,,,,,,,,,,,,,,,,,,,,,,,,,,,,,,,
,,,,,V1_034,20,female,2024-05-23_09h33.06.688,jersey_experiment_5_v1,2023.2.2,Win32,84.74576271,,,,,,,,,,,,,,,,186.8832,188.1769,188.1769,192.0948,return,1.0191,,75.390625,0,18,18,44,1,FBP-OG-19.png,0.45,1.2,45,0.5,,,,,,,,,,,,,,,,,,,,,,,,,,,,,,,,,,,,,,,,,,,,,
,,,,,V1_034,20,female,2024-05-23_09h33.06.688,jersey_experiment_5_v1,2023.2.2,Win32,84.74576271,,,,,,,,,,,,,,,,192.0951,193.3888,193.3888,200.1423,return,4.855,,50,0,19,19,52,1,FBP-RB-81.png,0.4,1.2,53,0.5,,,,,,,,,,,,,,,,,,,,,,,,,,,,,,,,,,,,,,,,,,,,,
,,,,,V1_034,20,female,2024-05-23_09h33.06.688,jersey_experiment_5_v1,2023.2.2,Win32,84.74576271,,,,,,,,,,,,,,,,200.1469,201.4481,201.4481,205.6013,return,1.3931,,2.34375,0,20,20,40,1,FBP-OG-19.png,0.35,1.2,41,0.5,,,,,,,,,,,,,,,,,,,,,,,,,,,,,,,,,,,,,,,,,,,,,
,,,,,V1_034,20,female,2024-05-23_09h33.06.688,jersey_experiment_5_v1,2023.2.2,Win32,84.74576271,,,,,,,,,,,,,,,,205.6016,206.8953,206.8953,210.0365,return,0.6369,,75,0,21,21,29,1,FBP-YG-19.png,0.45,1.2,30,0.5,,,,,,,,,,,,,,,,,,,,,,,,,,,,,,,,,,,,,,,,,,,,,
,,,,,V1_034,20,female,2024-05-23_09h33.06.688,jersey_experiment_5_v1,2023.2.2,Win32,84.74576271,,,,,,,,,,,,,,,,210.0367,211.3308,211.3308,214.2957,return,0.4718,,37.36979167,0,22,22,56,1,FBP-RB-91.png,0.37,1.2,57,0.5,,,,,,,,,,,,,,,,,,,,,,,,,,,,,,,,,,,,,,,,,,,,,
,,,,,V1_034,20,female,2024-05-23_09h33.06.688,jersey_experiment_5_v1,2023.2.2,Win32,84.74576271,,,,,,,,,,,,,,,,214.2963,215.5898,215.5898,217.7663,return,0.5766,,38.41145833,0,23,23,16,1,FBP-YG-17.png,0.37,1.2,17,0.5,,,,,,,,,,,,,,,,,,,,,,,,,,,,,,,,,,,,,,,,,,,,,
,,,,,V1_034,20,female,2024-05-23_09h33.06.688,jersey_experiment_5_v1,2023.2.2,Win32,84.74576271,,,,,,,,,,,,,,,,217.7666,219.5665,219.5666,222.4135,return,0.6766,,87.23958333,0,24,24,4,1,FBP-PT-71.png,0.45,1.2,5,1,,,,,,,,,,,,,,,,,,,,,,,,,,,,,,,,,,,,,,,,,,,,,
,,,,,V1_034,20,female,2024-05-23_09h33.06.688,jersey_experiment_5_v1,2023.2.2,Win32,84.74576271,,,,,,,,,,,,,,,,222.4137,223.7077,223.7077,226.9785,return,0.4857,,24.73958333,0,25,25,30,1,FBP-OG-17.png,0.35,1.2,31,0.5,,,,,,,,,,,,,,,,,,,,,,,,,,,,,,,,,,,,,,,,,,,,,
,,,,,V1_034,20,female,2024-05-23_09h33.06.688,jersey_experiment_5_v1,2023.2.2,Win32,84.74576271,,,,,,,,,,,,,,,,226.9789,228.2726,228.2726,230.4727,return,0.4589,,74.73958333,0,26,26,47,1,FBP-RB-71.png,0.4,1.2,48,0.5,,,,,,,,,,,,,,,,,,,,,,,,,,,,,,,,,,,,,,,,,,,,,
,,,,,V1_034,20,female,2024-05-23_09h33.06.688,jersey_experiment_5_v1,2023.2.2,Win32,84.74576271,,,,,,,,,,,,,,,,230.473,231.7669,231.7669,234.7905,return,0.7533,,10.15625,0,27,27,35,1,FBP-OG-18.png,0.35,1.2,36,0.5,,,,,,,,,,,,,,,,,,,,,,,,,,,,,,,,,,,,,,,,,,,,,
,,,,,V1_034,20,female,2024-05-23_09h33.06.688,jersey_experiment_5_v1,2023.2.2,Win32,84.74576271,,,,,,,,,,,,,,,,234.791,236.5908,236.5908,239.1083,return,0.4856,,61.06770833,0,28,28,2,1,FBP-PT-71.png,0.4,1.2,3,1,,,,,,,,,,,,,,,,,,,,,,,,,,,,,,,,,,,,,,,,,,,,,
,,,,,V1_034,20,female,2024-05-23_09h33.06.688,jersey_experiment_5_v1,2023.2.2,Win32,84.74576271,,,,,,,,,,,,,,,,239.1085,240.4025,240.4025,242.6143,return,0.4354,,74.86979167,0,29,29,38,1,FBP-OG-18.png,0.43,1.2,39,0.5,,,,,,,,,,,,,,,,,,,,,,,,,,,,,,,,,,,,,,,,,,,,,
,,,,,V1_034,20,female,2024-05-23_09h33.06.688,jersey_experiment_5_v1,2023.2.2,Win32,84.74576271,,,,,,,,,,,,,,,,242.6146,243.9085,243.9085,247.0261,return,0.6505,,91.015625,0,30,30,54,1,FBP-RB-81.png,0.45,1.2,55,0.5,,,,,,,,,,,,,,,,,,,,,,,,,,,,,,,,,,,,,,,,,,,,,
,,,,,V1_034,20,female,2024-05-23_09h33.06.688,jersey_experiment_5_v1,2023.2.2,Win32,84.74576271,,,,,,,,,,,,,,,,247.0264,248.8262,248.8262,250.4382,return,0.4002,,94.79166667,0,31,31,9,1,FBP-PT-81.png,0.45,1.2,10,1,,,,,,,,,,,,,,,,,,,,,,,,,,,,,,,,,,,,,,,,,,,,,
,,,,,V1_034,20,female,2024-05-23_09h33.06.688,jersey_experiment_5_v1,2023.2.2,Win32,84.74576271,,,,,,,,,,,,,,,,250.4386,252.2385,252.2385,254.3206,return,0.3234,,75.13020833,0,32,32,3,1,FBP-PT-71.png,0.43,1.2,4,1,,,,,,,,,,,,,,,,,,,,,,,,,,,,,,,,,,,,,,,,,,,,,
,,,,,V1_034,20,female,2024-05-23_09h33.06.688,jersey_experiment_5_v1,2023.2.2,Win32,84.74576271,,,,,,,,,,,,,,,,254.3208,256.1207,256.1207,257.6385,return,0.3298,,60.9375,0,33,33,11,1,FBP-PT-91.png,0.37,1.2,12,1,,,,,,,,,,,,,,,,,,,,,,,,,,,,,,,,,,,,,,,,,,,,,
,,,,,V1_034,20,female,2024-05-23_09h33.06.688,jersey_experiment_5_v1,2023.2.2,Win32,84.74576271,,,,,,,,,,,,,,,,257.6392,258.9325,258.9326,262.3563,return,0.2488,,40.49479167,0,34,34,21,1,FBP-YG-18.png,0.37,1.2,22,0.5,,,,,,,,,,,,,,,,,,,,,,,,,,,,,,,,,,,,,,,,,,,,,
,,,,,V1_034,20,female,2024-05-23_09h33.06.688,jersey_experiment_5_v1,2023.2.2,Win32,84.74576271,,,,,,,,,,,,,,,,262.3567,263.6505,263.6505,265.2505,return,0.2976,,24.73958333,0,35,35,45,1,FBP-RB-71.png,0.35,1.2,46,0.5,,,,,,,,,,,,,,,,,,,,,,,,,,,,,,,,,,,,,,,,,,,,,
,,,,,V1_034,20,female,2024-05-23_09h33.06.688,jersey_experiment_5_v1,2023.2.2,Win32,84.74576271,,,,,,,,,,,,,,,,265.2508,267.0505,267.0505,268.6859,return,0.2886,,11.97916667,0,36,36,0,1,FBP-PT-71.png,0.35,1.2,1,1,,,,,,,,,,,,,,,,,,,,,,,,,,,,,,,,,,,,,,,,,,,,,
,,,,,V1_034,20,female,2024-05-23_09h33.06.688,jersey_experiment_5_v1,2023.2.2,Win32,84.74576271,,,,,,,,,,,,,,,,268.6861,269.9799,269.98,271.7801,return,0.3313,,2.213541667,0,37,37,50,1,FBP-RB-81.png,0.35,1.2,51,0.5,,,,,,,,,,,,,,,,,,,,,,,,,,,,,,,,,,,,,,,,,,,,,
,,,,,V1_034,20,female,2024-05-23_09h33.06.688,jersey_experiment_5_v1,2023.2.2,Win32,84.74576271,,,,,,,,,,,,,,,,271.7804,273.0742,273.0742,274.5803,return,0.2254,,25.26041667,0,38,38,22,1,FBP-YG-18.png,0.4,1.2,23,0.5,,,,,,,,,,,,,,,,,,,,,,,,,,,,,,,,,,,,,,,,,,,,,
,,,,,V1_034,20,female,2024-05-23_09h33.06.688,jersey_experiment_5_v1,2023.2.2,Win32,84.74576271,,,,,,,,,,,,,,,,274.5809,276.3813,276.3814,278.3569,return,0.9895,,75.78125,0,39,39,8,1,FBP-PT-81.png,0.43,1.2,9,1,,,,,,,,,,,,,,,,,,,,,,,,,,,,,,,,,,,,,,,,,,,,,
,,,,,V1_034,20,female,2024-05-23_09h33.06.688,jersey_experiment_5_v1,2023.2.2,Win32,84.74576271,,,,,,,,,,,,,,,,278.3575,279.651,279.651,281.5922,return,0.4329,,93.22916667,0,40,40,59,1,FBP-RB-91.png,0.45,1.2,60,0.5,,,,,,,,,,,,,,,,,,,,,,,,,,,,,,,,,,,,,,,,,,,,,
,,,,,V1_034,20,female,2024-05-23_09h33.06.688,jersey_experiment_5_v1,2023.2.2,Win32,84.74576271,,,,,,,,,,,,,,,,281.5925,282.8863,282.8863,284.7101,return,0.2355,,75.26041667,0,41,41,43,1,FBP-OG-19.png,0.43,1.2,44,0.5,,,,,,,,,,,,,,,,,,,,,,,,,,,,,,,,,,,,,,,,,,,,,
,,,,,V1_034,20,female,2024-05-23_09h33.06.688,jersey_experiment_5_v1,2023.2.2,Win32,84.74576271,,,,,,,,,,,,,,,,284.7103,286.51,286.51,288.4865,return,0.1882,,38.15104167,0,42,42,6,1,FBP-PT-81.png,0.37,1.2,7,1,,,,,,,,,,,,,,,,,,,,,,,,,,,,,,,,,,,,,,,,,,,,,
,,,,,V1_034,20,female,2024-05-23_09h33.06.688,jersey_experiment_5_v1,2023.2.2,Win32,84.74576271,,,,,,,,,,,,,,,,288.4868,289.7808,289.7808,291.7928,return,0.3349,,25.13020833,0,43,43,26,1,FBP-YG-19.png,0.37,1.2,27,0.5,,,,,,,,,,,,,,,,,,,,,,,,,,,,,,,,,,,,,,,,,,,,,
,,,,,V1_034,20,female,2024-05-23_09h33.06.688,jersey_experiment_5_v1,2023.2.2,Win32,84.74576271,,,,,,,,,,,,,,,,291.7932,293.0867,293.0867,295.9692,return,0.2149,,61.84895833,0,44,44,32,1,FBP-OG-17.png,0.4,1.2,33,0.5,,,,,,,,,,,,,,,,,,,,,,,,,,,,,,,,,,,,,,,,,,,,,
,,,,,V1_034,20,female,2024-05-23_09h33.06.688,jersey_experiment_5_v1,2023.2.2,Win32,84.74576271,,,,,,,,,,,,,,,,295.9696,297.2634,297.2635,299.3574,return,0.1974,,88.41145833,0,45,45,39,1,FBP-OG-18.png,0.45,1.2,40,0.5,,,,,,,,,,,,,,,,,,,,,,,,,,,,,,,,,,,,,,,,,,,,,
,,,,,V1_034,20,female,2024-05-23_09h33.06.688,jersey_experiment_5_v1,2023.2.2,Win32,84.74576271,,,,,,,,,,,,,,,,299.3577,301.1577,301.1577,303.4754,return,0.2344,,75,0,46,46,12,1,FBP-PT-91.png,0.4,1.2,13,1,,,,,,,,,,,,,,,,,,,,,,,,,,,,,,,,,,,,,,,,,,,,,
,,,,,V1_034,20,female,2024-05-23_09h33.06.688,jersey_experiment_5_v1,2023.2.2,Win32,84.74576271,,,,,,,,,,,,,,,,303.4755,304.7698,304.7698,306.9343,return,0.6797,,88.02083333,0,47,47,33,1,FBP-OG-17.png,0.43,1.2,34,0.5,,,,,,,,,,,,,,,,,,,,,,,,,,,,,,,,,,,,,,,,,,,,,
,,,,,V1_034,20,female,2024-05-23_09h33.06.688,jersey_experiment_5_v1,2023.2.2,Win32,84.74576271,,,,,,,,,,,,,,,,306.9347,308.2286,308.2287,309.8873,return,0.2425,,96.484375,0,48,48,34,1,FBP-OG-17.png,0.45,1.2,35,0.5,,,,,,,,,,,,,,,,,,,,,,,,,,,,,,,,,,,,,,,,,,,,,
,,,,,V1_034,20,female,2024-05-23_09h33.06.688,jersey_experiment_5_v1,2023.2.2,Win32,84.74576271,,,,,,,,,,,,,,,,309.8877,311.1816,311.1817,312.4876,return,0.1889,,88.80208333,0,49,49,28,1,FBP-YG-19.png,0.43,1.2,29,0.5,,,,,,,,,,,,,,,,,,,,,,,,,,,,,,,,,,,,,,,,,,,,,
,,,,,V1_034,20,female,2024-05-23_09h33.06.688,jersey_experiment_5_v1,2023.2.2,Win32,84.74576271,,,,,,,,,,,,,,,,312.4883,313.7817,313.7817,315.7348,return,0.1424,,24.73958333,0,50,50,51,1,FBP-RB-81.png,0.37,1.2,52,0.5,,,,,,,,,,,,,,,,,,,,,,,,,,,,,,,,,,,,,,,,,,,,,
,,,,,V1_034,20,female,2024-05-23_09h33.06.688,jersey_experiment_5_v1,2023.2.2,Win32,84.74576271,,,,,,,,,,,,,,,,315.7354,317.0289,317.0289,318.6761,return,0.2264,,63.54166667,0,51,51,23,1,FBP-YG-18.png,0.43,1.2,24,0.5,,,,,,,,,,,,,,,,,,,,,,,,,,,,,,,,,,,,,,,,,,,,,
,,,,,V1_034,20,female,2024-05-23_09h33.06.688,jersey_experiment_5_v1,2023.2.2,Win32,84.74576271,,,,,,,,,,,,,,,,318.6763,320.4759,320.4759,322.0525,return,0.308,,64.0625,0,52,52,7,1,FBP-PT-81.png,0.4,1.2,8,1,,,,,,,,,,,,,,,,,,,,,,,,,,,,,,,,,,,,,,,,,,,,,
,,,,,V1_034,20,female,2024-05-23_09h33.06.688,jersey_experiment_5_v1,2023.2.2,Win32,84.74576271,,,,,,,,,,,,,,,,322.0528,323.3467,323.3467,325.6057,return,0.1417,,62.109375,0,53,53,41,1,FBP-OG-19.png,0.37,1.2,42,0.5,,,,,,,,,,,,,,,,,,,,,,,,,,,,,,,,,,,,,,,,,,,,,
,,,,,V1_034,20,female,2024-05-23_09h33.06.688,jersey_experiment_5_v1,2023.2.2,Win32,84.74576271,,,,,,,,,,,,,,,,325.6059,326.8997,326.8997,330.4058,return,1.9057,,88.28125,0,54,54,49,1,FBP-RB-71.png,0.45,1.2,50,0.5,,,,,,,,,,,,,,,,,,,,,,,,,,,,,,,,,,,,,,,,,,,,,
,,,,,V1_034,20,female,2024-05-23_09h33.06.688,jersey_experiment_5_v1,2023.2.2,Win32,84.74576271,,,,,,,,,,,,,,,,330.4062,331.6999,331.6999,332.8884,return,0.3886,,88.28125,0,55,55,58,1,FBP-RB-91.png,0.43,1.2,59,0.5,,,,,,,,,,,,,,,,,,,,,,,,,,,,,,,,,,,,,,,,,,,,,
,,,,,V1_034,20,female,2024-05-23_09h33.06.688,jersey_experiment_5_v1,2023.2.2,Win32,84.74576271,,,,,,,,,,,,,,,,332.8891,334.1823,334.1823,337.7827,return,0.3891,,27.21354167,0,56,56,55,1,FBP-RB-91.png,0.35,1.2,56,0.5,,,,,,,,,,,,,,,,,,,,,,,,,,,,,,,,,,,,,,,,,,,,,
,,,,,V1_034,20,female,2024-05-23_09h33.06.688,jersey_experiment_5_v1,2023.2.2,Win32,84.74576271,,,,,,,,,,,,,,,,337.7834,339.5826,339.5826,341.0414,return,0.3462,,4.296875,0,57,57,5,1,FBP-PT-81.png,0.35,1.2,6,1,,,,,,,,,,,,,,,,,,,,,,,,,,,,,,,,,,,,,,,,,,,,,
,,,,,V1_034,20,female,2024-05-23_09h33.06.688,jersey_experiment_5_v1,2023.2.2,Win32,84.74576271,,,,,,,,,,,,,,,,341.0417,342.3354,342.3355,343.2651,return,0.2036,,4.296875,0,58,58,46,1,FBP-RB-71.png,0.37,1.2,47,0.5,,,,,,,,,,,,,,,,,,,,,,,,,,,,,,,,,,,,,,,,,,,,,
,,,,,V1_034,20,female,2024-05-23_09h33.06.688,jersey_experiment_5_v1,2023.2.2,Win32,84.74576271,,,,,,,,,,,,,,,,343.2654,345.0651,345.0651,347.0771,return,0.1781,,25,0,59,59,1,1,FBP-PT-71.png,0.37,1.2,2,1,,,,,,,,,,,,,,,,,,,,,,,,,,,,,,,,,,,,,,,,,,,,,
,,,,,V1_034,20,female,2024-05-23_09h33.06.688,jersey_experiment_5_v1,2023.2.2,Win32,84.74576271,,,,,,,,,,,,,,,,347.0818,348.3829,348.383,350.0066,return,0.1532,,10.546875,,,,,,FBP-RB-17.png,0.35,1.2,46,0.5,0,0,0,45,1,,,,,,,,,,,,,,,,,,,,,,,,,,,,,,,,,,,,,,,,
,,,,,V1_034,20,female,2024-05-23_09h33.06.688,jersey_experiment_5_v1,2023.2.2,Win32,84.74576271,,,,,,,,,,,,,,,,350.0074,351.3006,351.3007,352.1832,return,0.2237,,10.546875,,,,,,FBP-YG-81.png,0.35,1.2,21,0.5,0,1,1,20,1,,,,,,,,,,,,,,,,,,,,,,,,,,,,,,,,,,,,,,,,
,,,,,V1_034,20,female,2024-05-23_09h33.06.688,jersey_experiment_5_v1,2023.2.2,Win32,84.74576271,,,,,,,,,,,,,,,,352.1839,353.9834,353.9834,356.901,return,0.5544,,75.52083333,,,,,,FBP-PT-18.png,0.45,1.2,10,1,0,2,2,9,1,,,,,,,,,,,,,,,,,,,,,,,,,,,,,,,,,,,,,,,,
,,,,,V1_034,20,female,2024-05-23_09h33.06.688,jersey_experiment_5_v1,2023.2.2,Win32,84.74576271,,,,,,,,,,,,,,,,356.9012,358.7009,358.7009,360.9835,return,0.3881,,24.609375,,,,,,FBP-PT-19.png,0.35,1.2,11,1,0,3,3,10,1,,,,,,,,,,,,,,,,,,,,,,,,,,,,,,,,,,,,,,,,
,,,,,V1_034,20,female,2024-05-23_09h33.06.688,jersey_experiment_5_v1,2023.2.2,Win32,84.74576271,,,,,,,,,,,,,,,,360.9838,362.2775,362.2776,363.3013,return,0.2363,,24.609375,,,,,,FBP-YG-91.png,0.35,1.2,26,0.5,0,4,4,25,1,,,,,,,,,,,,,,,,,,,,,,,,,,,,,,,,,,,,,,,,
,,,,,V1_034,20,female,2024-05-23_09h33.06.688,jersey_experiment_5_v1,2023.2.2,Win32,84.74576271,,,,,,,,,,,,,,,,363.302,364.5952,364.5952,366.3718,return,0.2618,,38.671875,,,,,,FBP-YG-71.png,0.37,1.2,17,0.5,0,5,5,16,1,,,,,,,,,,,,,,,,,,,,,,,,,,,,,,,,,,,,,,,,
,,,,,V1_034,20,female,2024-05-23_09h33.06.688,jersey_experiment_5_v1,2023.2.2,Win32,84.74576271,,,,,,,,,,,,,,,,366.3722,367.666,367.666,371.2308,return,0.2192,,86.84895833,,,,,,FBP-OG-71.png,0.45,1.2,35,0.5,0,6,6,34,1,,,,,,,,,,,,,,,,,,,,,,,,,,,,,,,,,,,,,,,,
,,,,,V1_034,20,female,2024-05-23_09h33.06.688,jersey_experiment_5_v1,2023.2.2,Win32,84.74576271,,,,,,,,,,,,,,,,371.231,372.525,372.525,373.525,return,0.1757,,86.58854167,,,,,,FBP-RB-17.png,0.43,1.2,49,0.5,0,7,7,48,1,,,,,,,,,,,,,,,,,,,,,,,,,,,,,,,,,,,,,,,,
,,,,,V1_034,20,female,2024-05-23_09h33.06.688,jersey_experiment_5_v1,2023.2.2,Win32,84.74576271,,,,,,,,,,,,,,,,373.5251,374.8194,374.8194,377.584,return,0.2529,,36.71875,,,,,,FBP-OG-91.png,0.35,1.2,41,0.5,0,8,8,40,1,,,,,,,,,,,,,,,,,,,,,,,,,,,,,,,,,,,,,,,,
,,,,,V1_034,20,female,2024-05-23_09h33.06.688,jersey_experiment_5_v1,2023.2.2,Win32,84.74576271,,,,,,,,,,,,,,,,377.5844,378.878,378.878,382.643,return,0.7092,,59.11458333,,,,,,FBP-RB-19.png,0.37,1.2,57,0.5,0,9,9,56,1,,,,,,,,,,,,,,,,,,,,,,,,,,,,,,,,,,,,,,,,
,,,,,V1_034,20,female,2024-05-23_09h33.06.688,jersey_experiment_5_v1,2023.2.2,Win32,84.74576271,,,,,,,,,,,,,,,,382.6432,383.9372,383.9373,384.9843,return,0.1178,,56.51041667,,,,,,FBP-OG-91.png,0.4,1.2,43,0.5,0,10,10,42,1,,,,,,,,,,,,,,,,,,,,,,,,,,,,,,,,,,,,,,,,
,,,,,V1_034,20,female,2024-05-23_09h33.06.688,jersey_experiment_5_v1,2023.2.2,Win32,84.74576271,,,,,,,,,,,,,,,,384.9849,386.2784,386.2784,387.7609,return,0.2988,,23.69791667,,,,,,FBP-RB-18.png,0.35,1.2,51,0.5,0,11,11,50,1,,,,,,,,,,,,,,,,,,,,,,,,,,,,,,,,,,,,,,,,
,,,,,V1_034,20,female,2024-05-23_09h33.06.688,jersey_experiment_5_v1,2023.2.2,Win32,84.74576271,,,,,,,,,,,,,,,,387.7613,389.0549,389.0549,391.3962,return,0.1314,,62.36979167,,,,,,FBP-YG-81.png,0.4,1.2,23,0.5,0,12,12,22,1,,,,,,,,,,,,,,,,,,,,,,,,,,,,,,,,,,,,,,,,
,,,,,V1_034,20,female,2024-05-23_09h33.06.688,jersey_experiment_5_v1,2023.2.2,Win32,84.74576271,,,,,,,,,,,,,,,,391.3964,392.6905,392.6905,394.7259,return,0.1084,,61.45833333,,,,,,FBP-YG-81.png,0.37,1.2,22,0.5,0,13,13,21,1,,,,,,,,,,,,,,,,,,,,,,,,,,,,,,,,,,,,,,,,
,,,,,V1_034,20,female,2024-05-23_09h33.06.688,jersey_experiment_5_v1,2023.2.2,Win32,84.74576271,,,,,,,,,,,,,,,,394.7263,396.5259,396.5259,398.8789,return,0.158,,74.609375,,,,,,FBP-PT-19.png,0.45,1.2,15,1,0,14,14,14,1,,,,,,,,,,,,,,,,,,,,,,,,,,,,,,,,,,,,,,,,
,,,,,V1_034,20,female,2024-05-23_09h33.06.688,jersey_experiment_5_v1,2023.2.2,Win32,84.74576271,,,,,,,,,,,,,,,,398.8792,400.1731,400.1731,403.5262,return,0.1532,,58.07291667,,,,,,FBP-YG-91.png,0.37,1.2,27,0.5,0,15,15,26,1,,,,,,,,,,,,,,,,,,,,,,,,,,,,,,,,,,,,,,,,
,,,,,V1_034,20,female,2024-05-23_09h33.06.688,jersey_experiment_5_v1,2023.2.2,Win32,84.74576271,,,,,,,,,,,,,,,,403.5264,404.8203,404.8204,406.5028,return,0.1529,,74.86979167,,,,,,FBP-OG-91.png,0.43,1.2,44,0.5,0,16,16,43,1,,,,,,,,,,,,,,,,,,,,,,,,,,,,,,,,,,,,,,,,
,,,,,V1_034,20,female,2024-05-23_09h33.06.688,jersey_experiment_5_v1,2023.2.2,Win32,84.74576271,,,,,,,,,,,,,,,,406.5032,407.7968,407.7968,409.1382,return,0.1217,,74.86979167,,,,,,FBP-RB-19.png,0.4,1.2,58,0.5,0,17,17,57,1,,,,,,,,,,,,,,,,,,,,,,,,,,,,,,,,,,,,,,,,
,,,,,V1_034,20,female,2024-05-23_09h33.06.688,jersey_experiment_5_v1,2023.2.2,Win32,84.74576271,,,,,,,,,,,,,,,,409.1385,410.4323,410.4323,411.7146,return,0.1213,,82.94270833,,,,,,FBP-RB-19.png,0.45,1.2,60,0.5,0,18,18,59,1,,,,,,,,,,,,,,,,,,,,,,,,,,,,,,,,,,,,,,,,
,,,,,V1_034,20,female,2024-05-23_09h33.06.688,jersey_experiment_5_v1,2023.2.2,Win32,84.74576271,,,,,,,,,,,,,,,,411.7148,413.0087,413.0087,414.1264,return,0.1727,,74.47916667,,,,,,FBP-OG-81.png,0.4,1.2,38,0.5,0,19,19,37,1,,,,,,,,,,,,,,,,,,,,,,,,,,,,,,,,,,,,,,,,
,,,,,V1_034,20,female,2024-05-23_09h33.06.688,jersey_experiment_5_v1,2023.2.2,Win32,84.74576271,,,,,,,,,,,,,,,,414.1267,415.9268,415.9268,417.6678,return,0.4967,,25.13020833,,,,,,FBP-PT-18.png,0.35,1.2,6,1,0,20,20,5,1,,,,,,,,,,,,,,,,,,,,,,,,,,,,,,,,,,,,,,,,
,,,,,V1_034,20,female,2024-05-23_09h33.06.688,jersey_experiment_5_v1,2023.2.2,Win32,84.74576271,,,,,,,,,,,,,,,,417.668,418.9623,418.9623,420.9504,return,0.2356,,86.97916667,,,,,,FBP-YG-91.png,0.45,1.2,30,0.5,0,21,21,29,1,,,,,,,,,,,,,,,,,,,,,,,,,,,,,,,,,,,,,,,,
,,,,,V1_034,20,female,2024-05-23_09h33.06.688,jersey_experiment_5_v1,2023.2.2,Win32,84.74576271,,,,,,,,,,,,,,,,420.9506,422.7504,422.7505,425.1506,return,0.1459,,80.859375,,,,,,FBP-PT-17.png,0.43,1.2,4,1,0,22,22,3,1,,,,,,,,,,,,,,,,,,,,,,,,,,,,,,,,,,,,,,,,
,,,,,V1_034,20,female,2024-05-23_09h33.06.688,jersey_experiment_5_v1,2023.2.2,Win32,84.74576271,,,,,,,,,,,,,,,,425.1508,426.4445,426.4446,428.1506,return,0.1062,,80.72916667,,,,,,FBP-OG-71.png,0.43,1.2,34,0.5,0,23,23,33,1,,,,,,,,,,,,,,,,,,,,,,,,,,,,,,,,,,,,,,,,
,,,,,V1_034,20,female,2024-05-23_09h33.06.688,jersey_experiment_5_v1,2023.2.2,Win32,84.74576271,,,,,,,,,,,,,,,,428.1511,429.4447,429.4447,433.5036,return,0.1225,,25.390625,,,,,,FBP-OG-71.png,0.37,1.2,32,0.5,0,24,24,31,1,,,,,,,,,,,,,,,,,,,,,,,,,,,,,,,,,,,,,,,,
,,,,,V1_034,20,female,2024-05-23_09h33.06.688,jersey_experiment_5_v1,2023.2.2,Win32,84.74576271,,,,,,,,,,,,,,,,433.5039,434.7978,434.7978,436.2802,return,0.1297,,24.609375,,,,,,FBP-OG-71.png,0.35,1.2,31,0.5,0,25,25,30,1,,,,,,,,,,,,,,,,,,,,,,,,,,,,,,,,,,,,,,,,
,,,,,V1_034,20,female,2024-05-23_09h33.06.688,jersey_experiment_5_v1,2023.2.2,Win32,84.74576271,,,,,,,,,,,,,,,,436.2805,437.5745,437.5745,439.1746,return,0.2502,,74.47916667,,,,,,FBP-RB-17.png,0.45,1.2,50,0.5,0,26,26,49,1,,,,,,,,,,,,,,,,,,,,,,,,,,,,,,,,,,,,,,,,
,,,,,V1_034,20,female,2024-05-23_09h33.06.688,jersey_experiment_5_v1,2023.2.2,Win32,84.74576271,,,,,,,,,,,,,,,,439.1749,440.4686,440.4686,442.0336,return,0.0516,,62.36979167,,,,,,FBP-RB-18.png,0.4,1.2,53,0.5,0,27,27,52,1,,,,,,,,,,,,,,,,,,,,,,,,,,,,,,,,,,,,,,,,
,,,,,V1_034,20,female,2024-05-23_09h33.06.688,jersey_experiment_5_v1,2023.2.2,Win32,84.74576271,,,,,,,,,,,,,,,,442.0341,443.3276,443.3276,444.869,return,0.1087,,24.86979167,,,,,,FBP-RB-19.png,0.35,1.2,56,0.5,0,28,28,55,1,,,,,,,,,,,,,,,,,,,,,,,,,,,,,,,,,,,,,,,,
,,,,,V1_034,20,female,2024-05-23_09h33.06.688,jersey_experiment_5_v1,2023.2.2,Win32,84.74576271,,,,,,,,,,,,,,,,444.8694,446.1632,446.1632,448.5984,return,0.056,,74.609375,,,,,,FBP-RB-19.png,0.43,1.2,59,0.5,0,29,29,58,1,,,,,,,,,,,,,,,,,,,,,,,,,,,,,,,,,,,,,,,,
,,,,,V1_034,20,female,2024-05-23_09h33.06.688,jersey_experiment_5_v1,2023.2.2,Win32,84.74576271,,,,,,,,,,,,,,,,448.5986,450.3983,450.3984,453.1986,return,0.1941,,56.51041667,,,,,,FBP-PT-17.png,0.4,1.2,3,1,0,30,30,2,1,,,,,,,,,,,,,,,,,,,,,,,,,,,,,,,,,,,,,,,,
,,,,,V1_034,20,female,2024-05-23_09h33.06.688,jersey_experiment_5_v1,2023.2.2,Win32,84.74576271,,,,,,,,,,,,,,,,453.1988,454.4927,454.4927,456.3869,return,0.1566,,74.21875,,,,,,FBP-RB-17.png,0.4,1.2,48,0.5,0,31,31,47,1,,,,,,,,,,,,,,,,,,,,,,,,,,,,,,,,,,,,,,,,
,,,,,V1_034,20,female,2024-05-23_09h33.06.688,jersey_experiment_5_v1,2023.2.2,Win32,84.74576271,,,,,,,,,,,,,,,,456.3872,458.1873,458.1874,459.3165,return,0.1543,,83.33333333,,,,,,FBP-PT-18.png,0.43,1.2,9,1,0,32,32,8,1,,,,,,,,,,,,,,,,,,,,,,,,,,,,,,,,,,,,,,,,
,,,,,V1_034,20,female,2024-05-23_09h33.06.688,jersey_experiment_5_v1,2023.2.2,Win32,84.74576271,,,,,,,,,,,,,,,,459.3169,460.6108,460.611,464.7519,return,0.206,,49.34895833,,,,,,FBP-RB-18.png,0.37,1.2,52,0.5,0,33,33,51,1,,,,,,,,,,,,,,,,,,,,,,,,,,,,,,,,,,,,,,,,
,,,,,V1_034,20,female,2024-05-23_09h33.06.688,jersey_experiment_5_v1,2023.2.2,Win32,84.74576271,,,,,,,,,,,,,,,,464.7522,466.0461,466.0462,468.0343,return,0.4743,,87.76041667,,,,,,FBP-YG-81.png,0.45,1.2,25,0.5,0,34,34,24,1,,,,,,,,,,,,,,,,,,,,,,,,,,,,,,,,,,,,,,,,
,,,,,V1_034,20,female,2024-05-23_09h33.06.688,jersey_experiment_5_v1,2023.2.2,Win32,84.74576271,,,,,,,,,,,,,,,,468.0346,469.3286,469.3286,471.9052,return,0.1676,,50,,,,,,FBP-OG-91.png,0.37,1.2,42,0.5,0,35,35,41,1,,,,,,,,,,,,,,,,,,,,,,,,,,,,,,,,,,,,,,,,
,,,,,V1_034,20,female,2024-05-23_09h33.06.688,jersey_experiment_5_v1,2023.2.2,Win32,84.74576271,,,,,,,,,,,,,,,,471.9056,473.1992,473.1992,475.5523,return,0.276,,95.18229167,,,,,,FBP-YG-71.png,0.45,1.2,20,0.5,0,36,36,19,1,,,,,,,,,,,,,,,,,,,,,,,,,,,,,,,,,,,,,,,,
,,,,,V1_034,20,female,2024-05-23_09h33.06.688,jersey_experiment_5_v1,2023.2.2,Win32,84.74576271,,,,,,,,,,,,,,,,475.5526,477.3527,477.3528,479.5876,return,0.2239,,86.71875,,,,,,FBP-PT-19.png,0.43,1.2,14,1,0,37,37,13,1,,,,,,,,,,,,,,,,,,,,,,,,,,,,,,,,,,,,,,,,
,,,,,V1_034,20,female,2024-05-23_09h33.06.688,jersey_experiment_5_v1,2023.2.2,Win32,84.74576271,,,,,,,,,,,,,,,,479.5879,480.8819,480.882,482.5644,return,0.1666,,25.390625,,,,,,FBP-YG-71.png,0.35,1.2,16,0.5,0,38,38,15,1,,,,,,,,,,,,,,,,,,,,,,,,,,,,,,,,,,,,,,,,
,,,,,V1_034,20,female,2024-05-23_09h33.06.688,jersey_experiment_5_v1,2023.2.2,Win32,84.74576271,,,,,,,,,,,,,,,,482.5648,483.8585,483.8585,486.1764,return,0.1315,,38.80208333,,,,,,FBP-OG-71.png,0.4,1.2,33,0.5,0,39,39,32,1,,,,,,,,,,,,,,,,,,,,,,,,,,,,,,,,,,,,,,,,
,,,,,V1_034,20,female,2024-05-23_09h33.06.688,jersey_experiment_5_v1,2023.2.2,Win32,84.74576271,,,,,,,,,,,,,,,,486.177,487.9764,487.9764,490.0352,return,0.2147,,38.671875,,,,,,FBP-PT-19.png,0.37,1.2,12,1,0,40,40,11,1,,,,,,,,,,,,,,,,,,,,,,,,,,,,,,,,,,,,,,,,
,,,,,V1_034,20,female,2024-05-23_09h33.06.688,jersey_experiment_5_v1,2023.2.2,Win32,84.74576271,,,,,,,,,,,,,,,,490.0356,491.3293,491.3293,493.3294,return,0.193,,73.95833333,,,,,,FBP-YG-91.png,0.4,1.2,28,0.5,0,41,41,27,1,,,,,,,,,,,,,,,,,,,,,,,,,,,,,,,,,,,,,,,,
,,,,,V1_034,20,female,2024-05-23_09h33.06.688,jersey_experiment_5_v1,2023.2.2,Win32,84.74576271,,,,,,,,,,,,,,,,493.3297,494.6236,494.6237,496.3413,return,0.1893,,93.61979167,,,,,,FBP-OG-91.png,0.45,1.2,45,0.5,0,42,42,44,1,,,,,,,,,,,,,,,,,,,,,,,,,,,,,,,,,,,,,,,,
,,,,,V1_034,20,female,2024-05-23_09h33.06.688,jersey_experiment_5_v1,2023.2.2,Win32,84.74576271,,,,,,,,,,,,,,,,496.3416,497.6353,497.6353,499.2945,return,0.1492,,75.52083333,,,,,,FBP-YG-81.png,0.43,1.2,24,0.5,0,43,43,23,1,,,,,,,,,,,,,,,,,,,,,,,,,,,,,,,,,,,,,,,,
,,,,,V1_034,20,female,2024-05-23_09h33.06.688,jersey_experiment_5_v1,2023.2.2,Win32,84.74576271,,,,,,,,,,,,,,,,499.2948,500.5885,500.5886,502.2709,return,0.2659,,85.28645833,,,,,,FBP-YG-91.png,0.43,1.2,29,0.5,0,44,44,28,1,,,,,,,,,,,,,,,,,,,,,,,,,,,,,,,,,,,,,,,,
,,,,,V1_034,20,female,2024-05-23_09h33.06.688,jersey_experiment_5_v1,2023.2.2,Win32,84.74576271,,,,,,,,,,,,,,,,502.2712,503.5652,503.5652,505.4123,return,0.2372,,95.3125,,,,,,FBP-OG-81.png,0.45,1.2,40,0.5,0,45,45,39,1,,,,,,,,,,,,,,,,,,,,,,,,,,,,,,,,,,,,,,,,
,,,,,V1_034,20,female,2024-05-23_09h33.06.688,jersey_experiment_5_v1,2023.2.2,Win32,84.74576271,,,,,,,,,,,,,,,,505.4125,507.2126,507.2126,509.2358,return,0.128,,75,,,,,,FBP-PT-18.png,0.4,1.2,8,1,0,46,46,7,1,,,,,,,,,,,,,,,,,,,,,,,,,,,,,,,,,,,,,,,,
,,,,,V1_034,20,female,2024-05-23_09h33.06.688,jersey_experiment_5_v1,2023.2.2,Win32,84.74576271,,,,,,,,,,,,,,,,509.2362,510.53,510.53,511.6009,return,0.1349,,75.390625,,,,,,FBP-OG-81.png,0.43,1.2,39,0.5,0,47,47,38,1,,,,,,,,,,,,,,,,,,,,,,,,,,,,,,,,,,,,,,,,
,,,,,V1_034,20,female,2024-05-23_09h33.06.688,jersey_experiment_5_v1,2023.2.2,Win32,84.74576271,,,,,,,,,,,,,,,,511.6011,513.4007,513.4007,515.8245,return,0.3826,,63.02083333,,,,,,FBP-PT-17.png,0.37,1.2,2,1,0,48,48,1,1,,,,,,,,,,,,,,,,,,,,,,,,,,,,,,,,,,,,,,,,
,,,,,V1_034,20,female,2024-05-23_09h33.06.688,jersey_experiment_5_v1,2023.2.2,Win32,84.74576271,,,,,,,,,,,,,,,,515.825,517.6245,517.6245,519.448,return,0.3142,,92.1875,,,,,,FBP-PT-17.png,0.45,1.2,5,1,0,49,49,4,1,,,,,,,,,,,,,,,,,,,,,,,,,,,,,,,,,,,,,,,,
,,,,,V1_034,20,female,2024-05-23_09h33.06.688,jersey_experiment_5_v1,2023.2.2,Win32,84.74576271,,,,,,,,,,,,,,,,519.4483,521.2481,521.2481,522.7657,return,0.1255,,38.41145833,,,,,,FBP-PT-18.png,0.37,1.2,7,1,0,50,50,6,1,,,,,,,,,,,,,,,,,,,,,,,,,,,,,,,,,,,,,,,,
,,,,,V1_034,20,female,2024-05-23_09h33.06.688,jersey_experiment_5_v1,2023.2.2,Win32,84.74576271,,,,,,,,,,,,,,,,522.7662,524.5659,524.5659,526.0366,return,0.6835,,38.41145833,,,,,,FBP-PT-19.png,0.4,1.2,13,1,0,51,51,12,1,,,,,,,,,,,,,,,,,,,,,,,,,,,,,,,,,,,,,,,,
,,,,,V1_034,20,female,2024-05-23_09h33.06.688,jersey_experiment_5_v1,2023.2.2,Win32,84.74576271,,,,,,,,,,,,,,,,526.0369,527.3307,527.3307,528.6251,return,0.1238,,68.61979167,,,,,,FBP-RB-18.png,0.45,1.2,55,0.5,0,52,52,54,1,,,,,,,,,,,,,,,,,,,,,,,,,,,,,,,,,,,,,,,,
,,,,,V1_034,20,female,2024-05-23_09h33.06.688,jersey_experiment_5_v1,2023.2.2,Win32,84.74576271,,,,,,,,,,,,,,,,528.6258,529.9191,529.9192,533.2486,return,0.1237,,24.86979167,,,,,,FBP-OG-81.png,0.37,1.2,37,0.5,0,53,53,36,1,,,,,,,,,,,,,,,,,,,,,,,,,,,,,,,,,,,,,,,,
,,,,,V1_034,20,female,2024-05-23_09h33.06.688,jersey_experiment_5_v1,2023.2.2,Win32,84.74576271,,,,,,,,,,,,,,,,533.249,534.5427,534.5427,535.4604,return,0.3086,,24.86979167,,,,,,FBP-RB-17.png,0.37,1.2,47,0.5,0,54,54,46,1,,,,,,,,,,,,,,,,,,,,,,,,,,,,,,,,,,,,,,,,
,,,,,V1_034,20,female,2024-05-23_09h33.06.688,jersey_experiment_5_v1,2023.2.2,Win32,84.74576271,,,,,,,,,,,,,,,,535.4607,536.7546,536.7547,538.037,return,0.1428,,24.86979167,,,,,,FBP-RB-18.png,0.43,1.2,54,0.5,0,55,55,53,1,,,,,,,,,,,,,,,,,,,,,,,,,,,,,,,,,,,,,,,,
,,,,,V1_034,20,female,2024-05-23_09h33.06.688,jersey_experiment_5_v1,2023.2.2,Win32,84.74576271,,,,,,,,,,,,,,,,538.0372,539.837,539.8371,541.5901,return,0.1414,,13.28125,,,,,,FBP-PT-17.png,0.35,1.2,1,1,0,56,56,0,1,,,,,,,,,,,,,,,,,,,,,,,,,,,,,,,,,,,,,,,,
,,,,,V1_034,20,female,2024-05-23_09h33.06.688,jersey_experiment_5_v1,2023.2.2,Win32,84.74576271,,,,,,,,,,,,,,,,541.5907,542.8848,542.8848,544.5313,return,0.1204,,63.93229167,,,,,,FBP-YG-71.png,0.43,1.2,19,0.5,0,57,57,18,1,,,,,,,,,,,,,,,,,,,,,,,,,,,,,,,,,,,,,,,,
,,,,,V1_034,20,female,2024-05-23_09h33.06.688,jersey_experiment_5_v1,2023.2.2,Win32,84.74576271,,,,,,,,,,,,,,,,544.5317,545.8254,545.8255,546.6607,return,0.2144,,63.80208333,,,,,,FBP-YG-71.png,0.4,1.2,18,0.5,0,58,58,17,1,,,,,,,,,,,,,,,,,,,,,,,,,,,,,,,,,,,,,,,,
,,,,,V1_034,20,female,2024-05-23_09h33.06.688,jersey_experiment_5_v1,2023.2.2,Win32,84.74576271,,,,,,,,,,,,,,,,546.661,547.9549,547.955,550.0376,return,0.5887,,37.23958333,,,,,,FBP-OG-81.png,0.35,1.2,36,0.5,0,59,59,35,1,,,,,,,,,,,,,,,,,,,,,,,,,,,,,,,,,,,,,,,,
,,,,,V1_034,20,female,2024-05-23_09h33.06.688,jersey_experiment_5_v1,2023.2.2,Win32,84.74576271,,,,,,,,,,,,,,,,,,,,,,,,,,,,,,,,,,,,,,,550.0387,670.0422,,,,,,,,,,,,,,,,,,,,,,,,,,,,,,,,,,,,,,
,,,,,V1_034,20,female,2024-05-23_09h33.06.688,jersey_experiment_5_v1,2023.2.2,Win32,84.74576271,,,,,,,,,,,,,,,,,,,,,,,,,,,,,,,,,,,,,,,,,670.0423,675.4541,return,5.4069,,,,,,,,,,,,,,,,,,,,,,,,,,,,,,,,,,
,,,,,V1_034,20,female,2024-05-23_09h33.06.688,jersey_experiment_5_v1,2023.2.2,Win32,84.74576271,,,,,,,,,,,,,,,,675.46,677.2539,677.2539,685.7131,return,0.8991,,50.13020833,,,,,,FBP-YG-18.png,0.43,1.2,24,1,,,,,,,,,,,,,0,0,0,23,1,,,,,,,,,,,,,,,,,,,,,,,,,,,,
,,,,,V1_034,20,female,2024-05-23_09h33.06.688,jersey_experiment_5_v1,2023.2.2,Win32,84.74576271,,,,,,,,,,,,,,,,685.7135,687.5132,687.5132,688.9954,return,0.532,,75.52083333,,,,,,FBP-OG-17.png,0.45,1.2,35,1,,,,,,,,,,,,,0,1,1,34,1,,,,,,,,,,,,,,,,,,,,,,,,,,,,
,,,,,V1_034,20,female,2024-05-23_09h33.06.688,jersey_experiment_5_v1,2023.2.2,Win32,84.74576271,,,,,,,,,,,,,,,,688.9957,690.7954,690.7955,694.0311,return,0.4895,,73.95833333,,,,,,FBP-YG-19.png,0.45,1.2,30,1,,,,,,,,,,,,,0,2,2,29,1,,,,,,,,,,,,,,,,,,,,,,,,,,,,
,,,,,V1_034,20,female,2024-05-23_09h33.06.688,jersey_experiment_5_v1,2023.2.2,Win32,84.74576271,,,,,,,,,,,,,,,,694.0314,695.326,695.3261,697.2666,return,0.2509,,25.13020833,,,,,,FBP-PT-81.png,0.37,1.2,7,0.5,,,,,,,,,,,,,0,3,3,6,1,,,,,,,,,,,,,,,,,,,,,,,,,,,,
,,,,,V1_034,20,female,2024-05-23_09h33.06.688,jersey_experiment_5_v1,2023.2.2,Win32,84.74576271,,,,,,,,,,,,,,,,697.2671,698.5605,698.5605,700.6548,return,0.1367,,37.63020833,,,,,,FBP-PT-91.png,0.4,1.2,13,0.5,,,,,,,,,,,,,0,4,4,12,1,,,,,,,,,,,,,,,,,,,,,,,,,,,,
,,,,,V1_034,20,female,2024-05-23_09h33.06.688,jersey_experiment_5_v1,2023.2.2,Win32,84.74576271,,,,,,,,,,,,,,,,700.6554,702.4551,702.4551,704.2548,return,0.1573,,8.333333333,,,,,,FBP-RB-71.png,0.35,1.2,46,1,,,,,,,,,,,,,0,5,5,45,1,,,,,,,,,,,,,,,,,,,,,,,,,,,,
,,,,,V1_034,20,female,2024-05-23_09h33.06.688,jersey_experiment_5_v1,2023.2.2,Win32,84.74576271,,,,,,,,,,,,,,,,704.2551,706.055,706.055,707.6314,return,0.1709,,24.47916667,,,,,,FBP-OG-17.png,0.37,1.2,32,1,,,,,,,,,,,,,0,6,6,31,1,,,,,,,,,,,,,,,,,,,,,,,,,,,,
,,,,,V1_034,20,female,2024-05-23_09h33.06.688,jersey_experiment_5_v1,2023.2.2,Win32,84.74576271,,,,,,,,,,,,,,,,707.6317,709.4316,709.4317,711.6318,return,0.1918,,62.890625,,,,,,FBP-RB-91.png,0.37,1.2,57,1,,,,,,,,,,,,,0,7,7,56,1,,,,,,,,,,,,,,,,,,,,,,,,,,,,
,,,,,V1_034,20,female,2024-05-23_09h33.06.688,jersey_experiment_5_v1,2023.2.2,Win32,84.74576271,,,,,,,,,,,,,,,,711.632,713.4319,713.432,714.7377,return,0.2036,,75,,,,,,FBP-YG-18.png,0.4,1.2,23,1,,,,,,,,,,,,,0,8,8,22,1,,,,,,,,,,,,,,,,,,,,,,,,,,,,
,,,,,V1_034,20,female,2024-05-23_09h33.06.688,jersey_experiment_5_v1,2023.2.2,Win32,84.74576271,,,,,,,,,,,,,,,,714.7381,716.5376,716.5377,718.7024,return,0.09,,59.765625,,,,,,FBP-YG-18.png,0.37,1.2,22,1,,,,,,,,,,,,,0,9,9,21,1,,,,,,,,,,,,,,,,,,,,,,,,,,,,
,,,,,V1_034,20,female,2024-05-23_09h33.06.688,jersey_experiment_5_v1,2023.2.2,Win32,84.74576271,,,,,,,,,,,,,,,,718.7027,720.5027,720.5028,721.6204,return,0.1307,,74.609375,,,,,,FBP-OG-17.png,0.4,1.2,33,1,,,,,,,,,,,,,0,10,10,32,1,,,,,,,,,,,,,,,,,,,,,,,,,,,,
,,,,,V1_034,20,female,2024-05-23_09h33.06.688,jersey_experiment_5_v1,2023.2.2,Win32,84.74576271,,,,,,,,,,,,,,,,721.6207,722.9144,722.9145,725.7499,return,0.1193,,62.23958333,,,,,,FBP-PT-71.png,0.35,1.2,1,0.5,,,,,,,,,,,,,0,11,11,0,1,,,,,,,,,,,,,,,,,,,,,,,,,,,,
,,,,,V1_034,20,female,2024-05-23_09h33.06.688,jersey_experiment_5_v1,2023.2.2,Win32,84.74576271,,,,,,,,,,,,,,,,725.7503,727.0439,727.0439,728.55,return,0.0948,,87.109375,,,,,,FBP-PT-81.png,0.43,1.2,9,0.5,,,,,,,,,,,,,0,12,12,8,1,,,,,,,,,,,,,,,,,,,,,,,,,,,,
,,,,,V1_034,20,female,2024-05-23_09h33.06.688,jersey_experiment_5_v1,2023.2.2,Win32,84.74576271,,,,,,,,,,,,,,,,728.5502,730.3501,730.3501,732.1974,return,0.3897,,30.20833333,,,,,,FBP-OG-17.png,0.35,1.2,31,1,,,,,,,,,,,,,0,13,13,30,1,,,,,,,,,,,,,,,,,,,,,,,,,,,,
,,,,,V1_034,20,female,2024-05-23_09h33.06.688,jersey_experiment_5_v1,2023.2.2,Win32,84.74576271,,,,,,,,,,,,,,,,732.1979,733.9974,733.9974,735.6677,return,0.1082,,75.78125,,,,,,FBP-OG-17.png,0.43,1.2,34,1,,,,,,,,,,,,,0,14,14,33,1,,,,,,,,,,,,,,,,,,,,,,,,,,,,
,,,,,V1_034,20,female,2024-05-23_09h33.06.688,jersey_experiment_5_v1,2023.2.2,Win32,84.74576271,,,,,,,,,,,,,,,,735.668,737.4679,737.4679,738.515,return,0.2025,,73.95833333,,,,,,FBP-YG-17.png,0.4,1.2,18,1,,,,,,,,,,,,,0,15,15,17,1,,,,,,,,,,,,,,,,,,,,,,,,,,,,
,,,,,V1_034,20,female,2024-05-23_09h33.06.688,jersey_experiment_5_v1,2023.2.2,Win32,84.74576271,,,,,,,,,,,,,,,,738.5153,740.3149,740.3149,742.2918,return,0.1649,,87.76041667,,,,,,FBP-OG-19.png,0.43,1.2,44,1,,,,,,,,,,,,,0,16,16,43,1,,,,,,,,,,,,,,,,,,,,,,,,,,,,
,,,,,V1_034,20,female,2024-05-23_09h33.06.688,jersey_experiment_5_v1,2023.2.2,Win32,84.74576271,,,,,,,,,,,,,,,,742.292,743.5858,743.5859,745.6682,return,0.0837,,61.97916667,,,,,,FBP-PT-91.png,0.37,1.2,12,0.5,,,,,,,,,,,,,0,17,17,11,1,,,,,,,,,,,,,,,,,,,,,,,,,,,,
,,,,,V1_034,20,female,2024-05-23_09h33.06.688,jersey_experiment_5_v1,2023.2.2,Win32,84.74576271,,,,,,,,,,,,,,,,745.6689,747.4683,747.4683,749.5036,return,0.0422,,25,,,,,,FBP-YG-17.png,0.37,1.2,17,1,,,,,,,,,,,,,0,18,18,16,1,,,,,,,,,,,,,,,,,,,,,,,,,,,,
,,,,,V1_034,20,female,2024-05-23_09h33.06.688,jersey_experiment_5_v1,2023.2.2,Win32,84.74576271,,,,,,,,,,,,,,,,749.5039,750.7977,750.7977,752.4214,return,0.1628,,81.90104167,,,,,,FBP-PT-91.png,0.45,1.2,15,0.5,,,,,,,,,,,,,0,19,19,14,1,,,,,,,,,,,,,,,,,,,,,,,,,,,,
,,,,,V1_034,20,female,2024-05-23_09h33.06.688,jersey_experiment_5_v1,2023.2.2,Win32,84.74576271,,,,,,,,,,,,,,,,752.4216,754.2219,754.2219,757.0098,return,0.1808,,75.52083333,,,,,,FBP-OG-18.png,0.43,1.2,39,1,,,,,,,,,,,,,0,20,20,38,1,,,,,,,,,,,,,,,,,,,,,,,,,,,,
,,,,,V1_034,20,female,2024-05-23_09h33.06.688,jersey_experiment_5_v1,2023.2.2,Win32,84.74576271,,,,,,,,,,,,,,,,757.0101,758.8099,758.8099,760.9514,return,0.4121,,15.625,,,,,,FBP-YG-19.png,0.35,1.2,26,1,,,,,,,,,,,,,0,21,21,25,1,,,,,,,,,,,,,,,,,,,,,,,,,,,,
,,,,,V1_034,20,female,2024-05-23_09h33.06.688,jersey_experiment_5_v1,2023.2.2,Win32,84.74576271,,,,,,,,,,,,,,,,760.9521,762.7511,762.7511,763.8807,return,0.12,,24.73958333,,,,,,FBP-RB-81.png,0.37,1.2,52,1,,,,,,,,,,,,,0,22,22,51,1,,,,,,,,,,,,,,,,,,,,,,,,,,,,
,,,,,V1_034,20,female,2024-05-23_09h33.06.688,jersey_experiment_5_v1,2023.2.2,Win32,84.74576271,,,,,,,,,,,,,,,,763.8809,765.681,765.681,767.5281,return,0.3179,,74.47916667,,,,,,FBP-RB-91.png,0.4,1.2,58,1,,,,,,,,,,,,,0,23,23,57,1,,,,,,,,,,,,,,,,,,,,,,,,,,,,
,,,,,V1_034,20,female,2024-05-23_09h33.06.688,jersey_experiment_5_v1,2023.2.2,Win32,84.74576271,,,,,,,,,,,,,,,,767.5288,768.822,768.822,770.575,return,0.3602,,94.79166667,,,,,,FBP-PT-81.png,0.45,1.2,10,0.5,,,,,,,,,,,,,0,24,24,9,1,,,,,,,,,,,,,,,,,,,,,,,,,,,,
,,,,,V1_034,20,female,2024-05-23_09h33.06.688,jersey_experiment_5_v1,2023.2.2,Win32,84.74576271,,,,,,,,,,,,,,,,770.5753,771.8692,771.8692,772.9635,return,0.1288,,97.91666667,,,,,,FBP-PT-71.png,0.45,1.2,5,0.5,,,,,,,,,,,,,0,25,25,4,1,,,,,,,,,,,,,,,,,,,,,,,,,,,,
,,,,,V1_034,20,female,2024-05-23_09h33.06.688,jersey_experiment_5_v1,2023.2.2,Win32,84.74576271,,,,,,,,,,,,,,,,772.9641,774.7638,774.7638,775.9399,return,0.1419,,84.63541667,,,,,,FBP-YG-17.png,0.43,1.2,19,1,,,,,,,,,,,,,0,26,26,18,1,,,,,,,,,,,,,,,,,,,,,,,,,,,,
,,,,,V1_034,20,female,2024-05-23_09h33.06.688,jersey_experiment_5_v1,2023.2.2,Win32,84.74576271,,,,,,,,,,,,,,,,775.9401,777.74,777.74,778.8223,return,0.0824,,97.39583333,,,,,,FBP-OG-19.png,0.45,1.2,45,1,,,,,,,,,,,,,0,27,27,44,1,,,,,,,,,,,,,,,,,,,,,,,,,,,,
,,,,,V1_034,20,female,2024-05-23_09h33.06.688,jersey_experiment_5_v1,2023.2.2,Win32,84.74576271,,,,,,,,,,,,,,,,778.8226,780.6227,780.6227,781.5284,return,0.1884,,97.00520833,,,,,,FBP-OG-18.png,0.45,1.2,40,1,,,,,,,,,,,,,0,28,28,39,1,,,,,,,,,,,,,,,,,,,,,,,,,,,,
,,,,,V1_034,20,female,2024-05-23_09h33.06.688,jersey_experiment_5_v1,2023.2.2,Win32,84.74576271,,,,,,,,,,,,,,,,781.5292,783.3285,783.3285,786.1167,return,0.0367,,62.23958333,,,,,,FBP-OG-19.png,0.35,1.2,41,1,,,,,,,,,,,,,0,29,29,40,1,,,,,,,,,,,,,,,,,,,,,,,,,,,,
,,,,,V1_034,20,female,2024-05-23_09h33.06.688,jersey_experiment_5_v1,2023.2.2,Win32,84.74576271,,,,,,,,,,,,,,,,786.1169,787.9167,787.9167,789.4463,return,0.0852,,74.86979167,,,,,,FBP-RB-91.png,0.35,1.2,56,1,,,,,,,,,,,,,0,30,30,55,1,,,,,,,,,,,,,,,,,,,,,,,,,,,,
,,,,,V1_034,20,female,2024-05-23_09h33.06.688,jersey_experiment_5_v1,2023.2.2,Win32,84.74576271,,,,,,,,,,,,,,,,789.4466,791.2464,791.2465,793.4582,return,0.0504,,62.36979167,,,,,,FBP-OG-19.png,0.37,1.2,42,1,,,,,,,,,,,,,0,31,31,41,1,,,,,,,,,,,,,,,,,,,,,,,,,,,,
,,,,,V1_034,20,female,2024-05-23_09h33.06.688,jersey_experiment_5_v1,2023.2.2,Win32,84.74576271,,,,,,,,,,,,,,,,793.4585,795.258,795.2581,796.7406,return,0.2602,,62.36979167,,,,,,FBP-OG-19.png,0.4,1.2,43,1,,,,,,,,,,,,,0,32,32,42,1,,,,,,,,,,,,,,,,,,,,,,,,,,,,
,,,,,V1_034,20,female,2024-05-23_09h33.06.688,jersey_experiment_5_v1,2023.2.2,Win32,84.74576271,,,,,,,,,,,,,,,,796.7409,798.5408,798.5408,801.4233,return,0.1124,,87.5,,,,,,FBP-RB-71.png,0.43,1.2,49,1,,,,,,,,,,,,,0,33,33,48,1,,,,,,,,,,,,,,,,,,,,,,,,,,,,
,,,,,V1_034,20,female,2024-05-23_09h33.06.688,jersey_experiment_5_v1,2023.2.2,Win32,84.74576271,,,,,,,,,,,,,,,,801.4238,802.7174,802.7175,804.894,return,0.0676,,75,,,,,,FBP-PT-81.png,0.4,1.2,8,0.5,,,,,,,,,,,,,0,34,34,7,1,,,,,,,,,,,,,,,,,,,,,,,,,,,,
,,,,,V1_034,20,female,2024-05-23_09h33.06.688,jersey_experiment_5_v1,2023.2.2,Win32,84.74576271,,,,,,,,,,,,,,,,804.8942,806.6939,806.6939,808.8707,return,0.5896,,74.21875,,,,,,FBP-RB-71.png,0.4,1.2,48,1,,,,,,,,,,,,,0,35,35,47,1,,,,,,,,,,,,,,,,,,,,,,,,,,,,
,,,,,V1_034,20,female,2024-05-23_09h33.06.688,jersey_experiment_5_v1,2023.2.2,Win32,84.74576271,,,,,,,,,,,,,,,,808.8712,810.6704,810.6705,812.5414,return,0.044,,61.45833333,,,,,,FBP-YG-19.png,0.43,1.2,29,1,,,,,,,,,,,,,0,36,36,28,1,,,,,,,,,,,,,,,,,,,,,,,,,,,,
,,,,,V1_034,20,female,2024-05-23_09h33.06.688,jersey_experiment_5_v1,2023.2.2,Win32,84.74576271,,,,,,,,,,,,,,,,812.542,814.3413,814.3413,815.4003,return,0.0474,,61.45833333,,,,,,FBP-RB-81.png,0.43,1.2,54,1,,,,,,,,,,,,,0,37,37,53,1,,,,,,,,,,,,,,,,,,,,,,,,,,,,
,,,,,V1_034,20,female,2024-05-23_09h33.06.688,jersey_experiment_5_v1,2023.2.2,Win32,84.74576271,,,,,,,,,,,,,,,,815.4006,817.2004,817.2004,818.1767,return,0.0968,,24.34895833,,,,,,FBP-OG-18.png,0.35,1.2,36,1,,,,,,,,,,,,,0,38,38,35,1,,,,,,,,,,,,,,,,,,,,,,,,,,,,
,,,,,V1_034,20,female,2024-05-23_09h33.06.688,jersey_experiment_5_v1,2023.2.2,Win32,84.74576271,,,,,,,,,,,,,,,,818.177,819.9769,819.977,821.471,return,0.0979,,23.828125,,,,,,FBP-RB-81.png,0.35,1.2,51,1,,,,,,,,,,,,,0,39,39,50,1,,,,,,,,,,,,,,,,,,,,,,,,,,,,
,,,,,V1_034,20,female,2024-05-23_09h33.06.688,jersey_experiment_5_v1,2023.2.2,Win32,84.74576271,,,,,,,,,,,,,,,,821.4712,823.2712,823.2712,825.0947,return,0.1797,,77.08333333,,,,,,FBP-YG-17.png,0.45,1.2,20,1,,,,,,,,,,,,,0,40,40,19,1,,,,,,,,,,,,,,,,,,,,,,,,,,,,
,,,,,V1_034,20,female,2024-05-23_09h33.06.688,jersey_experiment_5_v1,2023.2.2,Win32,84.74576271,,,,,,,,,,,,,,,,825.0951,826.3888,826.3888,828.0947,return,0.1722,,89.32291667,,,,,,FBP-PT-91.png,0.43,1.2,14,0.5,,,,,,,,,,,,,0,41,41,13,1,,,,,,,,,,,,,,,,,,,,,,,,,,,,
,,,,,V1_034,20,female,2024-05-23_09h33.06.688,jersey_experiment_5_v1,2023.2.2,Win32,84.74576271,,,,,,,,,,,,,,,,828.095,829.895,829.895,831.8714,return,0.0888,,74.73958333,,,,,,FBP-RB-81.png,0.4,1.2,53,1,,,,,,,,,,,,,0,42,42,52,1,,,,,,,,,,,,,,,,,,,,,,,,,,,,
,,,,,V1_034,20,female,2024-05-23_09h33.06.688,jersey_experiment_5_v1,2023.2.2,Win32,84.74576271,,,,,,,,,,,,,,,,831.8717,833.6713,833.6713,835.5067,return,0.0504,,36.328125,,,,,,FBP-YG-19.png,0.37,1.2,27,1,,,,,,,,,,,,,0,43,43,26,1,,,,,,,,,,,,,,,,,,,,,,,,,,,,
,,,,,V1_034,20,female,2024-05-23_09h33.06.688,jersey_experiment_5_v1,2023.2.2,Win32,84.74576271,,,,,,,,,,,,,,,,835.5069,836.8014,836.8015,837.7898,return,0.0324,,36.328125,,,,,,FBP-PT-71.png,0.37,1.2,2,0.5,,,,,,,,,,,,,0,44,44,1,1,,,,,,,,,,,,,,,,,,,,,,,,,,,,
,,,,,V1_034,20,female,2024-05-23_09h33.06.688,jersey_experiment_5_v1,2023.2.2,Win32,84.74576271,,,,,,,,,,,,,,,,837.7903,839.0833,839.0833,840.8835,return,0.0708,,19.140625,,,,,,FBP-PT-91.png,0.35,1.2,11,0.5,,,,,,,,,,,,,0,45,45,10,1,,,,,,,,,,,,,,,,,,,,,,,,,,,,
,,,,,V1_034,20,female,2024-05-23_09h33.06.688,jersey_experiment_5_v1,2023.2.2,Win32,84.74576271,,,,,,,,,,,,,,,,840.8838,842.6837,842.6838,844.2718,return,0.1682,,25.26041667,,,,,,FBP-RB-71.png,0.37,1.2,47,1,,,,,,,,,,,,,0,46,46,46,1,,,,,,,,,,,,,,,,,,,,,,,,,,,,
,,,,,V1_034,20,female,2024-05-23_09h33.06.688,jersey_experiment_5_v1,2023.2.2,Win32,84.74576271,,,,,,,,,,,,,,,,844.2722,846.072,846.0721,847.6368,return,0.119,,24.609375,,,,,,FBP-YG-17.png,0.35,1.2,16,1,,,,,,,,,,,,,0,47,47,15,1,,,,,,,,,,,,,,,,,,,,,,,,,,,,
,,,,,V1_034,20,female,2024-05-23_09h33.06.688,jersey_experiment_5_v1,2023.2.2,Win32,84.74576271,,,,,,,,,,,,,,,,847.6371,849.437,849.437,850.6132,return,0.236,,74.73958333,,,,,,FBP-RB-91.png,0.45,1.2,60,1,,,,,,,,,,,,,0,48,48,59,1,,,,,,,,,,,,,,,,,,,,,,,,,,,,
,,,,,V1_034,20,female,2024-05-23_09h33.06.688,jersey_experiment_5_v1,2023.2.2,Win32,84.74576271,,,,,,,,,,,,,,,,850.6134,852.4135,852.4136,853.6486,return,0.2754,,74.73958333,,,,,,FBP-RB-91.png,0.43,1.2,59,1,,,,,,,,,,,,,0,49,49,58,1,,,,,,,,,,,,,,,,,,,,,,,,,,,,
,,,,,V1_034,20,female,2024-05-23_09h33.06.688,jersey_experiment_5_v1,2023.2.2,Win32,84.74576271,,,,,,,,,,,,,,,,853.6492,855.4489,855.4489,857.0959,return,0.2476,,25.13020833,,,,,,FBP-OG-18.png,0.37,1.2,37,1,,,,,,,,,,,,,0,50,50,36,1,,,,,,,,,,,,,,,,,,,,,,,,,,,,
,,,,,V1_034,20,female,2024-05-23_09h33.06.688,jersey_experiment_5_v1,2023.2.2,Win32,84.74576271,,,,,,,,,,,,,,,,857.0962,858.39,858.3901,860.2138,return,0.2125,,74.47916667,,,,,,FBP-PT-71.png,0.43,1.2,4,0.5,,,,,,,,,,,,,0,51,51,3,1,,,,,,,,,,,,,,,,,,,,,,,,,,,,
,,,,,V1_034,20,female,2024-05-23_09h33.06.688,jersey_experiment_5_v1,2023.2.2,Win32,84.74576271,,,,,,,,,,,,,,,,860.2141,862.0137,862.0138,863.0372,return,0.0912,,62.109375,,,,,,FBP-YG-19.png,0.4,1.2,28,1,,,,,,,,,,,,,0,52,52,27,1,,,,,,,,,,,,,,,,,,,,,,,,,,,,
,,,,,V1_034,20,female,2024-05-23_09h33.06.688,jersey_experiment_5_v1,2023.2.2,Win32,84.74576271,,,,,,,,,,,,,,,,863.0375,864.8374,864.8374,866.0379,return,0.0359,,11.71875,,,,,,FBP-YG-18.png,0.35,1.2,21,1,,,,,,,,,,,,,0,53,53,20,1,,,,,,,,,,,,,,,,,,,,,,,,,,,,
,,,,,V1_034,20,female,2024-05-23_09h33.06.688,jersey_experiment_5_v1,2023.2.2,Win32,84.74576271,,,,,,,,,,,,,,,,866.0383,867.3316,867.3316,868.3905,return,0.0711,,25.26041667,,,,,,FBP-PT-71.png,0.4,1.2,3,0.5,,,,,,,,,,,,,0,54,54,2,1,,,,,,,,,,,,,,,,,,,,,,,,,,,,
,,,,,V1_034,20,female,2024-05-23_09h33.06.688,jersey_experiment_5_v1,2023.2.2,Win32,84.74576271,,,,,,,,,,,,,,,,868.3912,869.6846,869.6846,871.2609,return,0.762,,25.26041667,,,,,,FBP-PT-81.png,0.35,1.2,6,0.5,,,,,,,,,,,,,0,55,55,5,1,,,,,,,,,,,,,,,,,,,,,,,,,,,,
,,,,,V1_034,20,female,2024-05-23_09h33.06.688,jersey_experiment_5_v1,2023.2.2,Win32,84.74576271,,,,,,,,,,,,,,,,871.2612,873.0613,873.0613,874.9906,return,0.243,,74.21875,,,,,,FBP-YG-18.png,0.45,1.2,25,1,,,,,,,,,,,,,0,56,56,24,1,,,,,,,,,,,,,,,,,,,,,,,,,,,,
,,,,,V1_034,20,female,2024-05-23_09h33.06.688,jersey_experiment_5_v1,2023.2.2,Win32,84.74576271,,,,,,,,,,,,,,,,874.9911,876.7907,876.7907,878.8378,return,0.0354,,49.86979167,,,,,,FBP-OG-18.png,0.4,1.2,38,1,,,,,,,,,,,,,0,57,57,37,1,,,,,,,,,,,,,,,,,,,,,,,,,,,,
,,,,,V1_034,20,female,2024-05-23_09h33.06.688,jersey_experiment_5_v1,2023.2.2,Win32,84.74576271,,,,,,,,,,,,,,,,878.8383,880.6381,880.6381,881.9557,return,0.2021,,75.78125,,,,,,FBP-RB-81.png,0.45,1.2,55,1,,,,,,,,,,,,,0,58,58,54,1,,,,,,,,,,,,,,,,,,,,,,,,,,,,
,,,,,V1_034,20,female,2024-05-23_09h33.06.688,jersey_experiment_5_v1,2023.2.2,Win32,84.74576271,,,,,,,,,,,,,,,,881.956,883.7556,883.7556,884.7086,return,0.2252,,75.65104167,,,,,,FBP-RB-71.png,0.45,1.2,50,1,,,,,,,,,,,,,0,59,59,49,1,,,,,,,,,,,,,,,,,,,,,,,,,,,,
,,,,,V1_034,20,female,2024-05-23_09h33.06.688,jersey_experiment_5_v1,2023.2.2,Win32,84.74576271,,,,,,,,,,,,,,,,884.7116,886.5091,886.5093,888.3089,return,0.6613,,28.90625,,,,,,FBP-YG-81.png,0.35,1.2,21,1,,,,,,,,,,,,,,,,,,0,0,0,20,1,,,,,,,,,,,,,,,,,,,,,,,
,,,,,V1_034,20,female,2024-05-23_09h33.06.688,jersey_experiment_5_v1,2023.2.2,Win32,84.74576271,,,,,,,,,,,,,,,,888.3094,890.109,890.109,891.3442,return,0.074,,29.55729167,,,,,,FBP-YG-71.png,0.4,1.2,18,1,,,,,,,,,,,,,,,,,,0,1,1,17,1,,,,,,,,,,,,,,,,,,,,,,,
,,,,,V1_034,20,female,2024-05-23_09h33.06.688,jersey_experiment_5_v1,2023.2.2,Win32,84.74576271,,,,,,,,,,,,,,,,891.3448,893.1444,893.1444,893.9679,return,0.0771,,9.635416667,,,,,,FBP-RB-19.png,0.35,1.2,56,1,,,,,,,,,,,,,,,,,,0,2,2,55,1,,,,,,,,,,,,,,,,,,,,,,,
,,,,,V1_034,20,female,2024-05-23_09h33.06.688,jersey_experiment_5_v1,2023.2.2,Win32,84.74576271,,,,,,,,,,,,,,,,893.968,895.7679,895.7679,897.1091,return,0.1556,,24.86979167,,,,,,FBP-OG-71.png,0.4,1.2,33,1,,,,,,,,,,,,,,,,,,0,3,3,32,1,,,,,,,,,,,,,,,,,,,,,,,
,,,,,V1_034,20,female,2024-05-23_09h33.06.688,jersey_experiment_5_v1,2023.2.2,Win32,84.74576271,,,,,,,,,,,,,,,,897.1093,898.9091,898.9092,900.1098,return,0.1379,,10.67708333,,,,,,FBP-YG-71.png,0.37,1.2,17,1,,,,,,,,,,,,,,,,,,0,4,4,16,1,,,,,,,,,,,,,,,,,,,,,,,
,,,,,V1_034,20,female,2024-05-23_09h33.06.688,jersey_experiment_5_v1,2023.2.2,Win32,84.74576271,,,,,,,,,,,,,,,,900.1103,901.9092,901.9093,903.1916,return,0.1296,,23.95833333,,,,,,FBP-YG-81.png,0.4,1.2,23,1,,,,,,,,,,,,,,,,,,0,5,5,22,1,,,,,,,,,,,,,,,,,,,,,,,
,,,,,V1_034,20,female,2024-05-23_09h33.06.688,jersey_experiment_5_v1,2023.2.2,Win32,84.74576271,,,,,,,,,,,,,,,,903.1919,904.9919,904.992,907.2977,return,0.2745,,74.08854167,,,,,,FBP-OG-81.png,0.45,1.2,40,1,,,,,,,,,,,,,,,,,,0,6,6,39,1,,,,,,,,,,,,,,,,,,,,,,,
,,,,,V1_034,20,female,2024-05-23_09h33.06.688,jersey_experiment_5_v1,2023.2.2,Win32,84.74576271,,,,,,,,,,,,,,,,907.2985,909.098,909.098,910.192,return,0.3708,,74.08854167,,,,,,FBP-YG-71.png,0.45,1.2,20,1,,,,,,,,,,,,,,,,,,0,7,7,19,1,,,,,,,,,,,,,,,,,,,,,,,
,,,,,V1_034,20,female,2024-05-23_09h33.06.688,jersey_experiment_5_v1,2023.2.2,Win32,84.74576271,,,,,,,,,,,,,,,,910.1924,911.4861,911.4861,913.8158,return,0.2004,,38.80208333,,,,,,FBP-PT-18.png,0.43,1.2,9,0.5,,,,,,,,,,,,,,,,,,0,8,8,8,1,,,,,,,,,,,,,,,,,,,,,,,
,,,,,V1_034,20,female,2024-05-23_09h33.06.688,jersey_experiment_5_v1,2023.2.2,Win32,84.74576271,,,,,,,,,,,,,,,,913.8161,915.1096,915.1096,916.6273,return,0.224,,38.93229167,,,,,,FBP-PT-19.png,0.4,1.2,13,0.5,,,,,,,,,,,,,,,,,,0,9,9,12,1,,,,,,,,,,,,,,,,,,,,,,,
,,,,,V1_034,20,female,2024-05-23_09h33.06.688,jersey_experiment_5_v1,2023.2.2,Win32,84.74576271,,,,,,,,,,,,,,,,916.6276,918.4277,918.4277,920.2746,return,0.5212,,33.984375,,,,,,FBP-OG-71.png,0.37,1.2,32,1,,,,,,,,,,,,,,,,,,0,10,10,31,1,,,,,,,,,,,,,,,,,,,,,,,
,,,,,V1_034,20,female,2024-05-23_09h33.06.688,jersey_experiment_5_v1,2023.2.2,Win32,84.74576271,,,,,,,,,,,,,,,,920.2748,922.0751,922.0751,923.0277,return,0.0966,,20.05208333,,,,,,FBP-YG-91.png,0.35,1.2,26,1,,,,,,,,,,,,,,,,,,0,11,11,25,1,,,,,,,,,,,,,,,,,,,,,,,
,,,,,V1_034,20,female,2024-05-23_09h33.06.688,jersey_experiment_5_v1,2023.2.2,Win32,84.74576271,,,,,,,,,,,,,,,,923.028,924.8277,924.8278,925.7923,return,0.0732,,19.921875,,,,,,FBP-YG-91.png,0.37,1.2,27,1,,,,,,,,,,,,,,,,,,0,12,12,26,1,,,,,,,,,,,,,,,,,,,,,,,
,,,,,V1_034,20,female,2024-05-23_09h33.06.688,jersey_experiment_5_v1,2023.2.2,Win32,84.74576271,,,,,,,,,,,,,,,,925.7926,927.0868,927.0868,928.6161,return,0.1999,,24.609375,,,,,,FBP-PT-19.png,0.43,1.2,14,0.5,,,,,,,,,,,,,,,,,,0,13,13,13,1,,,,,,,,,,,,,,,,,,,,,,,
,,,,,V1_034,20,female,2024-05-23_09h33.06.688,jersey_experiment_5_v1,2023.2.2,Win32,84.74576271,,,,,,,,,,,,,,,,928.6165,930.4163,930.4164,932.0871,return,0.0852,,64.19270833,,,,,,FBP-OG-91.png,0.4,1.2,43,1,,,,,,,,,,,,,,,,,,0,14,14,42,1,,,,,,,,,,,,,,,,,,,,,,,
,,,,,V1_034,20,female,2024-05-23_09h33.06.688,jersey_experiment_5_v1,2023.2.2,Win32,84.74576271,,,,,,,,,,,,,,,,932.0873,933.8874,933.8874,935.2399,return,0.2367,,24.73958333,,,,,,FBP-RB-19.png,0.37,1.2,57,1,,,,,,,,,,,,,,,,,,0,15,15,56,1,,,,,,,,,,,,,,,,,,,,,,,
,,,,,V1_034,20,female,2024-05-23_09h33.06.688,jersey_experiment_5_v1,2023.2.2,Win32,84.74576271,,,,,,,,,,,,,,,,935.2402,937.0398,937.0399,938.0872,return,0.212,,24.73958333,,,,,,FBP-OG-81.png,0.35,1.2,36,1,,,,,,,,,,,,,,,,,,0,16,16,35,1,,,,,,,,,,,,,,,,,,,,,,,
,,,,,V1_034,20,female,2024-05-23_09h33.06.688,jersey_experiment_5_v1,2023.2.2,Win32,84.74576271,,,,,,,,,,,,,,,,938.0879,939.8873,939.8873,941.6872,return,0.0376,,64.0625,,,,,,FBP-OG-81.png,0.4,1.2,38,1,,,,,,,,,,,,,,,,,,0,17,17,37,1,,,,,,,,,,,,,,,,,,,,,,,
,,,,,V1_034,20,female,2024-05-23_09h33.06.688,jersey_experiment_5_v1,2023.2.2,Win32,84.74576271,,,,,,,,,,,,,,,,941.6874,943.4874,943.4874,944.8874,return,0.0379,,9.765625,,,,,,FBP-OG-71.png,0.35,1.2,31,1,,,,,,,,,,,,,,,,,,0,18,18,30,1,,,,,,,,,,,,,,,,,,,,,,,
,,,,,V1_034,20,female,2024-05-23_09h33.06.688,jersey_experiment_5_v1,2023.2.2,Win32,84.74576271,,,,,,,,,,,,,,,,944.8876,946.6873,946.6874,948.6404,return,0.3587,,74.47916667,,,,,,FBP-YG-81.png,0.45,1.2,25,1,,,,,,,,,,,,,,,,,,0,19,19,24,1,,,,,,,,,,,,,,,,,,,,,,,
,,,,,V1_034,20,female,2024-05-23_09h33.06.688,jersey_experiment_5_v1,2023.2.2,Win32,84.74576271,,,,,,,,,,,,,,,,948.6409,950.4405,950.4405,951.9817,return,0.0672,,36.19791667,,,,,,FBP-RB-19.png,0.4,1.2,58,1,,,,,,,,,,,,,,,,,,0,20,20,57,1,,,,,,,,,,,,,,,,,,,,,,,
,,,,,V1_034,20,female,2024-05-23_09h33.06.688,jersey_experiment_5_v1,2023.2.2,Win32,84.74576271,,,,,,,,,,,,,,,,951.9821,953.2758,953.2758,955.5111,return,0.1276,,25,,,,,,FBP-PT-18.png,0.35,1.2,6,0.5,,,,,,,,,,,,,,,,,,0,21,21,5,1,,,,,,,,,,,,,,,,,,,,,,,
,,,,,V1_034,20,female,2024-05-23_09h33.06.688,jersey_experiment_5_v1,2023.2.2,Win32,84.74576271,,,,,,,,,,,,,,,,955.5114,957.3116,957.3116,958.7232,return,0.1789,,74.86979167,,,,,,FBP-RB-19.png,0.45,1.2,60,1,,,,,,,,,,,,,,,,,,0,22,22,59,1,,,,,,,,,,,,,,,,,,,,,,,
,,,,,V1_034,20,female,2024-05-23_09h33.06.688,jersey_experiment_5_v1,2023.2.2,Win32,84.74576271,,,,,,,,,,,,,,,,958.7234,960.0174,960.0174,960.9115,return,0.1592,,74.86979167,,,,,,FBP-PT-17.png,0.43,1.2,4,0.5,,,,,,,,,,,,,,,,,,0,23,23,3,1,,,,,,,,,,,,,,,,,,,,,,,
,,,,,V1_034,20,female,2024-05-23_09h33.06.688,jersey_experiment_5_v1,2023.2.2,Win32,84.74576271,,,,,,,,,,,,,,,,960.912,962.7116,962.7116,964.1352,return,0.1561,,81.90104167,,,,,,FBP-OG-71.png,0.45,1.2,35,1,,,,,,,,,,,,,,,,,,0,24,24,34,1,,,,,,,,,,,,,,,,,,,,,,,
,,,,,V1_034,20,female,2024-05-23_09h33.06.688,jersey_experiment_5_v1,2023.2.2,Win32,84.74576271,,,,,,,,,,,,,,,,964.1354,965.4292,965.4292,969.0764,return,0.2731,,37.109375,,,,,,FBP-PT-18.png,0.37,1.2,7,0.5,,,,,,,,,,,,,,,,,,0,25,25,6,1,,,,,,,,,,,,,,,,,,,,,,,
,,,,,V1_034,20,female,2024-05-23_09h33.06.688,jersey_experiment_5_v1,2023.2.2,Win32,84.74576271,,,,,,,,,,,,,,,,969.0767,970.8765,970.8766,972.5119,return,0.1942,,24.86979167,,,,,,FBP-RB-17.png,0.35,1.2,46,1,,,,,,,,,,,,,,,,,,0,26,26,45,1,,,,,,,,,,,,,,,,,,,,,,,
,,,,,V1_034,20,female,2024-05-23_09h33.06.688,jersey_experiment_5_v1,2023.2.2,Win32,84.74576271,,,,,,,,,,,,,,,,972.5123,973.806,973.806,974.6885,return,0.2028,,24.86979167,,,,,,FBP-PT-17.png,0.4,1.2,3,0.5,,,,,,,,,,,,,,,,,,0,27,27,2,1,,,,,,,,,,,,,,,,,,,,,,,
,,,,,V1_034,20,female,2024-05-23_09h33.06.688,jersey_experiment_5_v1,2023.2.2,Win32,84.74576271,,,,,,,,,,,,,,,,974.6888,976.4885,976.4886,977.6178,return,0.228,,13.02083333,,,,,,FBP-RB-18.png,0.37,1.2,52,1,,,,,,,,,,,,,,,,,,0,28,28,51,1,,,,,,,,,,,,,,,,,,,,,,,
,,,,,V1_034,20,female,2024-05-23_09h33.06.688,jersey_experiment_5_v1,2023.2.2,Win32,84.74576271,,,,,,,,,,,,,,,,977.6182,979.4182,979.4182,981.2297,return,0.1377,,60.80729167,,,,,,FBP-RB-18.png,0.45,1.2,55,1,,,,,,,,,,,,,,,,,,0,29,29,54,1,,,,,,,,,,,,,,,,,,,,,,,
,,,,,V1_034,20,female,2024-05-23_09h33.06.688,jersey_experiment_5_v1,2023.2.2,Win32,84.74576271,,,,,,,,,,,,,,,,981.2301,983.03,983.03,983.9828,return,0.1132,,75.26041667,,,,,,FBP-RB-19.png,0.43,1.2,59,1,,,,,,,,,,,,,,,,,,0,30,30,58,1,,,,,,,,,,,,,,,,,,,,,,,
,,,,,V1_034,20,female,2024-05-23_09h33.06.688,jersey_experiment_5_v1,2023.2.2,Win32,84.74576271,,,,,,,,,,,,,,,,983.9831,985.7829,985.783,986.936,return,0.1181,,74.21875,,,,,,FBP-YG-91.png,0.4,1.2,28,1,,,,,,,,,,,,,,,,,,0,31,31,27,1,,,,,,,,,,,,,,,,,,,,,,,
,,,,,V1_034,20,female,2024-05-23_09h33.06.688,jersey_experiment_5_v1,2023.2.2,Win32,84.74576271,,,,,,,,,,,,,,,,986.9366,988.736,988.736,990.3242,return,0.1429,,76.171875,,,,,,FBP-OG-81.png,0.43,1.2,39,1,,,,,,,,,,,,,,,,,,0,32,32,38,1,,,,,,,,,,,,,,,,,,,,,,,
,,,,,V1_034,20,female,2024-05-23_09h33.06.688,jersey_experiment_5_v1,2023.2.2,Win32,84.74576271,,,,,,,,,,,,,,,,990.3245,992.1242,992.1242,993.7009,return,0.1541,,60.9375,,,,,,FBP-OG-91.png,0.37,1.2,42,1,,,,,,,,,,,,,,,,,,0,33,33,41,1,,,,,,,,,,,,,,,,,,,,,,,
,,,,,V1_034,20,female,2024-05-23_09h33.06.688,jersey_experiment_5_v1,2023.2.2,Win32,84.74576271,,,,,,,,,,,,,,,,993.7012,994.9949,994.9949,997.5715,return,0.0839,,37.76041667,,,,,,FBP-PT-17.png,0.37,1.2,2,0.5,,,,,,,,,,,,,,,,,,0,34,34,1,1,,,,,,,,,,,,,,,,,,,,,,,
,,,,,V1_034,20,female,2024-05-23_09h33.06.688,jersey_experiment_5_v1,2023.2.2,Win32,84.74576271,,,,,,,,,,,,,,,,997.5719,999.3717,999.3718,1000.5835,return,0.2912,,37.63020833,,,,,,FBP-RB-17.png,0.37,1.2,47,1,,,,,,,,,,,,,,,,,,0,35,35,46,1,,,,,,,,,,,,,,,,,,,,,,,
,,,,,V1_034,20,female,2024-05-23_09h33.06.688,jersey_experiment_5_v1,2023.2.2,Win32,84.74576271,,,,,,,,,,,,,,,,1000.5838,1001.878,1001.878,1003.2072,return,0.4362,,37.63020833,,,,,,FBP-PT-18.png,0.4,1.2,8,0.5,,,,,,,,,,,,,,,,,,0,36,36,7,1,,,,,,,,,,,,,,,,,,,,,,,
,,,,,V1_034,20,female,2024-05-23_09h33.06.688,jersey_experiment_5_v1,2023.2.2,Win32,84.74576271,,,,,,,,,,,,,,,,1003.2077,1005.0072,1005.0072,1006.4544,return,0.4238,,37.63020833,,,,,,FBP-RB-17.png,0.4,1.2,48,1,,,,,,,,,,,,,,,,,,0,37,37,47,1,,,,,,,,,,,,,,,,,,,,,,,
,,,,,V1_034,20,female,2024-05-23_09h33.06.688,jersey_experiment_5_v1,2023.2.2,Win32,84.74576271,,,,,,,,,,,,,,,,1006.4548,1008.2545,1008.2545,1009.831,return,0.4352,,74.21875,,,,,,FBP-YG-91.png,0.45,1.2,30,1,,,,,,,,,,,,,,,,,,0,38,38,29,1,,,,,,,,,,,,,,,,,,,,,,,
,,,,,V1_034,20,female,2024-05-23_09h33.06.688,jersey_experiment_5_v1,2023.2.2,Win32,84.74576271,,,,,,,,,,,,,,,,1009.8313,1011.6312,1011.6312,1014.9841,return,1.5767,,85.546875,,,,,,FBP-OG-91.png,0.45,1.2,45,1,,,,,,,,,,,,,,,,,,0,39,39,44,1,,,,,,,,,,,,,,,,,,,,,,,
,,,,,V1_034,20,female,2024-05-23_09h33.06.688,jersey_experiment_5_v1,2023.2.2,Win32,84.74576271,,,,,,,,,,,,,,,,1014.9843,1016.2785,1016.2785,1018.0195,return,0.3905,,93.48958333,,,,,,FBP-PT-19.png,0.45,1.2,15,0.5,,,,,,,,,,,,,,,,,,0,40,40,14,1,,,,,,,,,,,,,,,,,,,,,,,
,,,,,V1_034,20,female,2024-05-23_09h33.06.688,jersey_experiment_5_v1,2023.2.2,Win32,84.74576271,,,,,,,,,,,,,,,,1018.0201,1019.8197,1019.8197,1021.749,return,0.2129,,25.26041667,,,,,,FBP-YG-81.png,0.37,1.2,22,1,,,,,,,,,,,,,,,,,,0,41,41,21,1,,,,,,,,,,,,,,,,,,,,,,,
,,,,,V1_034,20,female,2024-05-23_09h33.06.688,jersey_experiment_5_v1,2023.2.2,Win32,84.74576271,,,,,,,,,,,,,,,,1021.7498,1023.5492,1023.5492,1025.255,return,0.1642,,67.44791667,,,,,,FBP-YG-81.png,0.43,1.2,24,1,,,,,,,,,,,,,,,,,,0,42,42,23,1,,,,,,,,,,,,,,,,,,,,,,,
,,,,,V1_034,20,female,2024-05-23_09h33.06.688,jersey_experiment_5_v1,2023.2.2,Win32,84.74576271,,,,,,,,,,,,,,,,1025.2555,1026.5492,1026.5492,1028.1492,return,0.2363,,23.30729167,,,,,,FBP-PT-17.png,0.35,1.2,1,0.5,,,,,,,,,,,,,,,,,,0,43,43,0,1,,,,,,,,,,,,,,,,,,,,,,,
,,,,,V1_034,20,female,2024-05-23_09h33.06.688,jersey_experiment_5_v1,2023.2.2,Win32,84.74576271,,,,,,,,,,,,,,,,1028.1496,1029.9495,1029.9495,1031.4433,return,0.2615,,76.04166667,,,,,,FBP-OG-71.png,0.43,1.2,34,1,,,,,,,,,,,,,,,,,,0,44,44,33,1,,,,,,,,,,,,,,,,,,,,,,,
,,,,,V1_034,20,female,2024-05-23_09h33.06.688,jersey_experiment_5_v1,2023.2.2,Win32,84.74576271,,,,,,,,,,,,,,,,1031.4437,1033.2435,1033.2437,1035.3964,return,1.3425,,88.54166667,,,,,,FBP-RB-17.png,0.43,1.2,49,1,,,,,,,,,,,,,,,,,,0,45,45,48,1,,,,,,,,,,,,,,,,,,,,,,,
,,,,,V1_034,20,female,2024-05-23_09h33.06.688,jersey_experiment_5_v1,2023.2.2,Win32,84.74576271,,,,,,,,,,,,,,,,1035.3968,1036.6906,1036.6906,1039.1849,return,0.1931,,18.75,,,,,,FBP-PT-19.png,0.35,1.2,11,0.5,,,,,,,,,,,,,,,,,,0,46,46,10,1,,,,,,,,,,,,,,,,,,,,,,,
,,,,,V1_034,20,female,2024-05-23_09h33.06.688,jersey_experiment_5_v1,2023.2.2,Win32,84.74576271,,,,,,,,,,,,,,,,1039.1853,1040.9852,1040.9852,1043.2792,return,0.6424,,74.73958333,,,,,,FBP-YG-91.png,0.43,1.2,29,1,,,,,,,,,,,,,,,,,,0,47,47,28,1,,,,,,,,,,,,,,,,,,,,,,,
,,,,,V1_034,20,female,2024-05-23_09h33.06.688,jersey_experiment_5_v1,2023.2.2,Win32,84.74576271,,,,,,,,,,,,,,,,1043.2795,1045.0792,1045.0793,1048.244,return,0.3314,,24.47916667,,,,,,FBP-OG-91.png,0.35,1.2,41,1,,,,,,,,,,,,,,,,,,0,48,48,40,1,,,,,,,,,,,,,,,,,,,,,,,
,,,,,V1_034,20,female,2024-05-23_09h33.06.688,jersey_experiment_5_v1,2023.2.2,Win32,84.74576271,,,,,,,,,,,,,,,,1048.2444,1050.044,1050.044,1051.7501,return,0.0824,,64.453125,,,,,,FBP-YG-71.png,0.43,1.2,19,1,,,,,,,,,,,,,,,,,,0,49,49,18,1,,,,,,,,,,,,,,,,,,,,,,,
,,,,,V1_034,20,female,2024-05-23_09h33.06.688,jersey_experiment_5_v1,2023.2.2,Win32,84.74576271,,,,,,,,,,,,,,,,1051.7503,1053.5502,1053.5502,1055.1972,return,0.3383,,23.046875,,,,,,FBP-YG-71.png,0.35,1.2,16,1,,,,,,,,,,,,,,,,,,0,50,50,15,1,,,,,,,,,,,,,,,,,,,,,,,
,,,,,V1_034,20,female,2024-05-23_09h33.06.688,jersey_experiment_5_v1,2023.2.2,Win32,84.74576271,,,,,,,,,,,,,,,,1055.1975,1056.9973,1056.9973,1058.0561,return,0.2117,,25.26041667,,,,,,FBP-RB-18.png,0.4,1.2,53,1,,,,,,,,,,,,,,,,,,0,51,51,52,1,,,,,,,,,,,,,,,,,,,,,,,
,,,,,V1_034,20,female,2024-05-23_09h33.06.688,jersey_experiment_5_v1,2023.2.2,Win32,84.74576271,,,,,,,,,,,,,,,,1058.0564,1059.8563,1059.8563,1061.0446,return,0.0953,,65.88541667,,,,,,FBP-RB-17.png,0.45,1.2,50,1,,,,,,,,,,,,,,,,,,0,52,52,49,1,,,,,,,,,,,,,,,,,,,,,,,
,,,,,V1_034,20,female,2024-05-23_09h33.06.688,jersey_experiment_5_v1,2023.2.2,Win32,84.74576271,,,,,,,,,,,,,,,,1061.045,1062.8446,1062.8447,1065.08,return,0.1642,,62.36979167,,,,,,FBP-OG-91.png,0.43,1.2,44,1,,,,,,,,,,,,,,,,,,0,53,53,43,1,,,,,,,,,,,,,,,,,,,,,,,
,,,,,V1_034,20,female,2024-05-23_09h33.06.688,jersey_experiment_5_v1,2023.2.2,Win32,84.74576271,,,,,,,,,,,,,,,,1065.0802,1066.8801,1066.8801,1068.5624,return,0.1332,,35.15625,,,,,,FBP-OG-81.png,0.37,1.2,37,1,,,,,,,,,,,,,,,,,,0,54,54,36,1,,,,,,,,,,,,,,,,,,,,,,,
,,,,,V1_034,20,female,2024-05-23_09h33.06.688,jersey_experiment_5_v1,2023.2.2,Win32,84.74576271,,,,,,,,,,,,,,,,1068.5626,1069.8566,1069.8566,1071.7272,return,0.1808,,73.30729167,,,,,,FBP-PT-18.png,0.45,1.2,10,0.5,,,,,,,,,,,,,,,,,,0,55,55,9,1,,,,,,,,,,,,,,,,,,,,,,,
,,,,,V1_034,20,female,2024-05-23_09h33.06.688,jersey_experiment_5_v1,2023.2.2,Win32,84.74576271,,,,,,,,,,,,,,,,1071.7277,1073.5273,1073.5273,1075.2805,return,0.4743,,74.73958333,,,,,,FBP-RB-18.png,0.43,1.2,54,1,,,,,,,,,,,,,,,,,,0,56,56,53,1,,,,,,,,,,,,,,,,,,,,,,,
,,,,,V1_034,20,female,2024-05-23_09h33.06.688,jersey_experiment_5_v1,2023.2.2,Win32,84.74576271,,,,,,,,,,,,,,,,1075.2808,1076.5745,1076.5745,1078.4217,return,0.4105,,87.23958333,,,,,,FBP-PT-17.png,0.45,1.2,5,0.5,,,,,,,,,,,,,,,,,,0,57,57,4,1,,,,,,,,,,,,,,,,,,,,,,,
,,,,,V1_034,20,female,2024-05-23_09h33.06.688,jersey_experiment_5_v1,2023.2.2,Win32,84.74576271,,,,,,,,,,,,,,,,1078.4219,1080.2218,1080.2218,1083.4923,return,0.1543,,60.9375,,,,,,FBP-RB-18.png,0.35,1.2,51,1,,,,,,,,,,,,,,,,,,0,58,58,50,1,,,,,,,,,,,,,,,,,,,,,,,
,,,,,V1_034,20,female,2024-05-23_09h33.06.688,jersey_experiment_5_v1,2023.2.2,Win32,84.74576271,,,,,,,,,,,,,,,,1083.4927,1084.7866,1084.7867,1086.9278,return,0.2887,,24.86979167,,,,,,FBP-PT-19.png,0.37,1.2,12,0.5,,,,,,,,,,,,,,,,,,0,59,59,11,1,,,,,,,,,,,,,,,,,,,,,,,
,,,,,V1_034,20,female,2024-05-23_09h33.06.688,jersey_experiment_5_v1,2023.2.2,Win32,84.74576271,,,,,,,,,,,,,,,,,,,,,,,,,,,,,,,,,,,,,,,,,,,,,,,,,,,,,,,,1086.9284,1093.8107,return,6.8726,,,,,,,,,,,,,,,,,,,
,,,,,V1_034,20,female,2024-05-23_09h33.06.688,jersey_experiment_5_v1,2023.2.2,Win32,84.74576271,,,,,,,,,,,,,,,,,,,,,,,,,,,,,,,,,,,,,,,,,,,,,,,,,,,,,,,,,,,,,1093.8108,1101.6933,1,4.2854,return,3.5848,,,,,,,,,,,,
,,,,,V1_034,20,female,2024-05-23_09h33.06.688,jersey_experiment_5_v1,2023.2.2,Win32,84.74576271,,,,,,,,,,,,,,,,,,,,,,,,,,,,,,,,,,,,,,,,,,,,,,,,,,,,,,,,,,,,,,,,,,,,1101.6973,1187.9281,I think the study may be about perception and adjustment. I noticed that some of the football players were shown multiple times throughout the images.,right,71.7137,,,,,,
,,,,,V1_034,20,female,2024-05-23_09h33.06.688,jersey_experiment_5_v1,2023.2.2,Win32,84.74576271,,,,,,,,,,,,,,,,,,,,,,,,,,,,,,,,,,,,,,,,,,,,,,,,,,,,,,,,,,,,,,,,,,,,,,,,,,1187.9282,1191.7906,return,3.8546,