requirements.started,requirements.stopped,key_resp_3.keys,key_resp_3.rt,key_resp_3.duration,Subject ID,Age,Gender,date,expName,psychopyVersion,OS,frameRate,instructions1.started,instructions1.stopped,key_resp.keys,key_resp.rt,key_resp.duration,example.started,example.stopped,enter_2.keys,enter_2.rt,enter_2.duration,instructions2.started,instructions2.stopped,enter_3.keys,enter_3.rt,enter_3.duration,image.started,image.stopped,slider_2.started,slider_2.stopped,next.keys,next.rt,next.duration,slider.response,trial_block_1.thisRepN,trial_block_1.thisTrialN,trial_block_1.thisN,trial_block_1.thisIndex,trial_block_1.ran,Path,Width,Height,Index,Duration,trial_block_2.thisRepN,trial_block_2.thisTrialN,trial_block_2.thisN,trial_block_2.thisIndex,trial_block_2.ran,rest_break.started,rest_break.stopped,end_break.started,end_break.stopped,key_resp_5.keys,key_resp_5.rt,key_resp_5.duration,trial_block_3.thisRepN,trial_block_3.thisTrialN,trial_block_3.thisN,trial_block_3.thisIndex,trial_block_3.ran,trial_block_4.thisRepN,trial_block_4.thisTrialN,trial_block_4.thisN,trial_block_4.thisIndex,trial_block_4.ran,questions_intro.started,questions_intro.stopped,enter_12.keys,enter_12.rt,enter_12.duration,question2.started,question2.stopped,question_doingbest.response,question_doingbest.rt,enter_15.keys,enter_15.rt,enter_15.duration,pattern.started,pattern.stopped,pattern_2.text,enter_17.keys,enter_17.rt,enter_17.duration,thankyou.started,thankyou.stopped,enter_14.keys,enter_14.rt,enter_14.duration
0.0001,11.9762,return,11.9699,,V1_010,19,F,2024-04-29_17h35.38.692,jersey_experiment_5_v1,2023.2.2,Win32,85.47008547,,,,,,,,,,,,,,,,,,,,,,,,,,,,,,,,,,,,,,,,,,,,,,,,,,,,,,,,,,,,,,,,,,,,,,,,,,,,,,
,,,,,V1_010,19,F,2024-04-29_17h35.38.692,jersey_experiment_5_v1,2023.2.2,Win32,85.47008547,11.9764,24.0992,return,12.1145,,,,,,,,,,,,,,,,,,,,,,,,,,,,,,,,,,,,,,,,,,,,,,,,,,,,,,,,,,,,,,,,,,,,,,,,,,
,,,,,V1_010,19,F,2024-04-29_17h35.38.692,jersey_experiment_5_v1,2023.2.2,Win32,85.47008547,,,,,,24.0993,29.9228,return,5.7991,,,,,,,,,,,,,,,,,,,,,,,,,,,,,,,,,,,,,,,,,,,,,,,,,,,,,,,,,,,,,,,,,,,,,
,,,,,V1_010,19,F,2024-04-29_17h35.38.692,jersey_experiment_5_v1,2023.2.2,Win32,85.47008547,,,,,,,,,,,29.9229,53.0062,return,23.0713,,,,,,,,,,,,,,,,,,,,,,,,,,,,,,,,,,,,,,,,,,,,,,,,,,,,,,,,,,,,,,,,
,,,,,V1_010,19,F,2024-04-29_17h35.38.692,jersey_experiment_5_v1,2023.2.2,Win32,85.47008547,,,,,,,,,,,,,,,,53.013,54.312,54.3121,63.5281,return,3.9666,,50.26041667,0,0,0,35,1,FBP-OG-18.png,0.35,1.2,36,0.5,,,,,,,,,,,,,,,,,,,,,,,,,,,,,,,,,,,,,,,,,,,,,
,,,,,V1_010,19,F,2024-04-29_17h35.38.692,jersey_experiment_5_v1,2023.2.2,Win32,85.47008547,,,,,,,,,,,,,,,,63.5323,65.3281,65.3281,69.524,return,1.8415,,74.86979167,0,1,1,3,1,FBP-PT-71.png,0.43,1.2,4,1,,,,,,,,,,,,,,,,,,,,,,,,,,,,,,,,,,,,,,,,,,,,,
,,,,,V1_010,19,F,2024-04-29_17h35.38.692,jersey_experiment_5_v1,2023.2.2,Win32,85.47008547,,,,,,,,,,,,,,,,69.5243,70.8183,70.8183,73.4459,return,0.7259,,70.05208333,0,2,2,23,1,FBP-YG-18.png,0.43,1.2,24,0.5,,,,,,,,,,,,,,,,,,,,,,,,,,,,,,,,,,,,,,,,,,,,,
,,,,,V1_010,19,F,2024-04-29_17h35.38.692,jersey_experiment_5_v1,2023.2.2,Win32,85.47008547,,,,,,,,,,,,,,,,73.446,74.7478,74.7478,77.4698,return,1.1885,,59.50520833,0,3,3,40,1,FBP-OG-19.png,0.35,1.2,41,0.5,,,,,,,,,,,,,,,,,,,,,,,,,,,,,,,,,,,,,,,,,,,,,
,,,,,V1_010,19,F,2024-04-29_17h35.38.692,jersey_experiment_5_v1,2023.2.2,Win32,85.47008547,,,,,,,,,,,,,,,,77.4699,79.2684,79.2684,81.1872,return,0.5759,,44.66145833,0,4,4,11,1,FBP-PT-91.png,0.37,1.2,12,1,,,,,,,,,,,,,,,,,,,,,,,,,,,,,,,,,,,,,,,,,,,,,
,,,,,V1_010,19,F,2024-04-29_17h35.38.692,jersey_experiment_5_v1,2023.2.2,Win32,85.47008547,,,,,,,,,,,,,,,,81.1874,82.493,82.493,85.5154,return,1.1636,,45.703125,0,5,5,25,1,FBP-YG-19.png,0.35,1.2,26,0.5,,,,,,,,,,,,,,,,,,,,,,,,,,,,,,,,,,,,,,,,,,,,,
,,,,,V1_010,19,F,2024-04-29_17h35.38.692,jersey_experiment_5_v1,2023.2.2,Win32,85.47008547,,,,,,,,,,,,,,,,85.5156,87.3183,87.3183,89.878,return,1.1084,,56.77083333,0,6,6,12,1,FBP-PT-91.png,0.4,1.2,13,1,,,,,,,,,,,,,,,,,,,,,,,,,,,,,,,,,,,,,,,,,,,,,
,,,,,V1_010,19,F,2024-04-29_17h35.38.692,jersey_experiment_5_v1,2023.2.2,Win32,85.47008547,,,,,,,,,,,,,,,,89.8782,91.172,91.1721,93.3957,return,0.6902,,56.77083333,0,7,7,16,1,FBP-YG-17.png,0.37,1.2,17,0.5,,,,,,,,,,,,,,,,,,,,,,,,,,,,,,,,,,,,,,,,,,,,,
,,,,,V1_010,19,F,2024-04-29_17h35.38.692,jersey_experiment_5_v1,2023.2.2,Win32,85.47008547,,,,,,,,,,,,,,,,93.3959,94.6898,94.6899,96.5294,return,0.5064,,44.40104167,0,8,8,30,1,FBP-OG-17.png,0.35,1.2,31,0.5,,,,,,,,,,,,,,,,,,,,,,,,,,,,,,,,,,,,,,,,,,,,,
,,,,,V1_010,19,F,2024-04-29_17h35.38.692,jersey_experiment_5_v1,2023.2.2,Win32,85.47008547,,,,,,,,,,,,,,,,96.5294,98.3252,98.3253,99.7999,return,0.496,,81.25,0,9,9,4,1,FBP-PT-71.png,0.45,1.2,5,1,,,,,,,,,,,,,,,,,,,,,,,,,,,,,,,,,,,,,,,,,,,,,
,,,,,V1_010,19,F,2024-04-29_17h35.38.692,jersey_experiment_5_v1,2023.2.2,Win32,85.47008547,,,,,,,,,,,,,,,,99.8001,101.0955,101.0955,102.7635,return,0.5044,,86.06770833,0,10,10,59,1,FBP-RB-91.png,0.45,1.2,60,0.5,,,,,,,,,,,,,,,,,,,,,,,,,,,,,,,,,,,,,,,,,,,,,
,,,,,V1_010,19,F,2024-04-29_17h35.38.692,jersey_experiment_5_v1,2023.2.2,Win32,85.47008547,,,,,,,,,,,,,,,,102.7637,104.0702,104.0702,105.6667,return,0.4292,,67.70833333,0,11,11,46,1,FBP-RB-71.png,0.37,1.2,47,0.5,,,,,,,,,,,,,,,,,,,,,,,,,,,,,,,,,,,,,,,,,,,,,
,,,,,V1_010,19,F,2024-04-29_17h35.38.692,jersey_experiment_5_v1,2023.2.2,Win32,85.47008547,,,,,,,,,,,,,,,,105.6669,106.9609,106.9609,108.6903,return,0.4893,,49.47916667,0,12,12,45,1,FBP-RB-71.png,0.35,1.2,46,0.5,,,,,,,,,,,,,,,,,,,,,,,,,,,,,,,,,,,,,,,,,,,,,
,,,,,V1_010,19,F,2024-04-29_17h35.38.692,jersey_experiment_5_v1,2023.2.2,Win32,85.47008547,,,,,,,,,,,,,,,,108.6904,109.9845,109.9845,113.7259,return,2.3884,,83.72395833,0,13,13,44,1,FBP-OG-19.png,0.45,1.2,45,0.5,,,,,,,,,,,,,,,,,,,,,,,,,,,,,,,,,,,,,,,,,,,,,
,,,,,V1_010,19,F,2024-04-29_17h35.38.692,jersey_experiment_5_v1,2023.2.2,Win32,85.47008547,,,,,,,,,,,,,,,,113.7261,115.0236,115.0236,117.0008,return,0.8016,,77.47395833,0,14,14,43,1,FBP-OG-19.png,0.43,1.2,44,0.5,,,,,,,,,,,,,,,,,,,,,,,,,,,,,,,,,,,,,,,,,,,,,
,,,,,V1_010,19,F,2024-04-29_17h35.38.692,jersey_experiment_5_v1,2023.2.2,Win32,85.47008547,,,,,,,,,,,,,,,,117.0009,118.3062,118.3062,120.173,return,0.4822,,84.11458333,0,15,15,48,1,FBP-RB-71.png,0.43,1.2,49,0.5,,,,,,,,,,,,,,,,,,,,,,,,,,,,,,,,,,,,,,,,,,,,,
,,,,,V1_010,19,F,2024-04-29_17h35.38.692,jersey_experiment_5_v1,2023.2.2,Win32,85.47008547,,,,,,,,,,,,,,,,120.1733,121.4673,121.4673,123.8791,return,0.4721,,83.59375,0,16,16,53,1,FBP-RB-81.png,0.43,1.2,54,0.5,,,,,,,,,,,,,,,,,,,,,,,,,,,,,,,,,,,,,,,,,,,,,
,,,,,V1_010,19,F,2024-04-29_17h35.38.692,jersey_experiment_5_v1,2023.2.2,Win32,85.47008547,,,,,,,,,,,,,,,,123.8793,125.1733,125.1733,126.6911,return,0.3715,,83.46354167,0,17,17,28,1,FBP-YG-19.png,0.43,1.2,29,0.5,,,,,,,,,,,,,,,,,,,,,,,,,,,,,,,,,,,,,,,,,,,,,
,,,,,V1_010,19,F,2024-04-29_17h35.38.692,jersey_experiment_5_v1,2023.2.2,Win32,85.47008547,,,,,,,,,,,,,,,,126.6912,128.4913,128.4913,130.141,return,0.4107,,54.81770833,0,18,18,1,1,FBP-PT-71.png,0.37,1.2,2,1,,,,,,,,,,,,,,,,,,,,,,,,,,,,,,,,,,,,,,,,,,,,,
,,,,,V1_010,19,F,2024-04-29_17h35.38.692,jersey_experiment_5_v1,2023.2.2,Win32,85.47008547,,,,,,,,,,,,,,,,130.1411,131.4376,131.4376,132.9999,return,0.3988,,74.47916667,0,19,19,58,1,FBP-RB-91.png,0.43,1.2,59,0.5,,,,,,,,,,,,,,,,,,,,,,,,,,,,,,,,,,,,,,,,,,,,,
,,,,,V1_010,19,F,2024-04-29_17h35.38.692,jersey_experiment_5_v1,2023.2.2,Win32,85.47008547,,,,,,,,,,,,,,,,133.0001,134.3029,134.303,137.1894,return,0.3766,,50.78125,0,20,20,41,1,FBP-OG-19.png,0.37,1.2,42,0.5,,,,,,,,,,,,,,,,,,,,,,,,,,,,,,,,,,,,,,,,,,,,,
,,,,,V1_010,19,F,2024-04-29_17h35.38.692,jersey_experiment_5_v1,2023.2.2,Win32,85.47008547,,,,,,,,,,,,,,,,137.1895,138.9856,138.9857,140.4825,return,0.3638,,50.13020833,0,21,21,6,1,FBP-PT-81.png,0.37,1.2,7,1,,,,,,,,,,,,,,,,,,,,,,,,,,,,,,,,,,,,,,,,,,,,,
,,,,,V1_010,19,F,2024-04-29_17h35.38.692,jersey_experiment_5_v1,2023.2.2,Win32,85.47008547,,,,,,,,,,,,,,,,140.4827,141.7739,141.774,143.6212,return,0.3461,,69.79166667,0,22,22,24,1,FBP-YG-18.png,0.45,1.2,25,0.5,,,,,,,,,,,,,,,,,,,,,,,,,,,,,,,,,,,,,,,,,,,,,
,,,,,V1_010,19,F,2024-04-29_17h35.38.692,jersey_experiment_5_v1,2023.2.2,Win32,85.47008547,,,,,,,,,,,,,,,,143.6214,145.4266,145.4266,148.4565,return,0.3085,,52.86458333,0,23,23,7,1,FBP-PT-81.png,0.4,1.2,8,1,,,,,,,,,,,,,,,,,,,,,,,,,,,,,,,,,,,,,,,,,,,,,
,,,,,V1_010,19,F,2024-04-29_17h35.38.692,jersey_experiment_5_v1,2023.2.2,Win32,85.47008547,,,,,,,,,,,,,,,,148.4568,150.2486,150.2486,151.4251,return,0.353,,61.06770833,0,24,24,13,1,FBP-PT-91.png,0.43,1.2,14,1,,,,,,,,,,,,,,,,,,,,,,,,,,,,,,,,,,,,,,,,,,,,,
,,,,,V1_010,19,F,2024-04-29_17h35.38.692,jersey_experiment_5_v1,2023.2.2,Win32,85.47008547,,,,,,,,,,,,,,,,151.4252,152.7311,152.7311,154.153,return,0.2905,,56.38020833,0,25,25,42,1,FBP-OG-19.png,0.4,1.2,43,0.5,,,,,,,,,,,,,,,,,,,,,,,,,,,,,,,,,,,,,,,,,,,,,
,,,,,V1_010,19,F,2024-04-29_17h35.38.692,jersey_experiment_5_v1,2023.2.2,Win32,85.47008547,,,,,,,,,,,,,,,,154.1531,155.951,155.951,157.1548,return,0.3766,,26.43229167,0,26,26,0,1,FBP-PT-71.png,0.35,1.2,1,1,,,,,,,,,,,,,,,,,,,,,,,,,,,,,,,,,,,,,,,,,,,,,
,,,,,V1_010,19,F,2024-04-29_17h35.38.692,jersey_experiment_5_v1,2023.2.2,Win32,85.47008547,,,,,,,,,,,,,,,,157.155,158.4608,158.4608,160.4362,return,0.2578,,22.39583333,0,27,27,15,1,FBP-YG-17.png,0.35,1.2,16,0.5,,,,,,,,,,,,,,,,,,,,,,,,,,,,,,,,,,,,,,,,,,,,,
,,,,,V1_010,19,F,2024-04-29_17h35.38.692,jersey_experiment_5_v1,2023.2.2,Win32,85.47008547,,,,,,,,,,,,,,,,160.4363,162.2335,162.2335,165.622,return,1.5571,,64.453125,0,28,28,9,1,FBP-PT-81.png,0.45,1.2,10,1,,,,,,,,,,,,,,,,,,,,,,,,,,,,,,,,,,,,,,,,,,,,,
,,,,,V1_010,19,F,2024-04-29_17h35.38.692,jersey_experiment_5_v1,2023.2.2,Win32,85.47008547,,,,,,,,,,,,,,,,165.622,166.9161,166.9161,169.6691,return,1.712,,48.30729167,0,29,29,27,1,FBP-YG-19.png,0.4,1.2,28,0.5,,,,,,,,,,,,,,,,,,,,,,,,,,,,,,,,,,,,,,,,,,,,,
,,,,,V1_010,19,F,2024-04-29_17h35.38.692,jersey_experiment_5_v1,2023.2.2,Win32,85.47008547,,,,,,,,,,,,,,,,169.6693,170.9632,170.9632,172.5908,return,0.3661,,67.70833333,0,30,30,39,1,FBP-OG-18.png,0.45,1.2,40,0.5,,,,,,,,,,,,,,,,,,,,,,,,,,,,,,,,,,,,,,,,,,,,,
,,,,,V1_010,19,F,2024-04-29_17h35.38.692,jersey_experiment_5_v1,2023.2.2,Win32,85.47008547,,,,,,,,,,,,,,,,172.591,173.8927,173.8927,175.2576,return,0.2715,,47.52604167,0,31,31,22,1,FBP-YG-18.png,0.4,1.2,23,0.5,,,,,,,,,,,,,,,,,,,,,,,,,,,,,,,,,,,,,,,,,,,,,
,,,,,V1_010,19,F,2024-04-29_17h35.38.692,jersey_experiment_5_v1,2023.2.2,Win32,85.47008547,,,,,,,,,,,,,,,,175.2578,176.5517,176.5517,178.5561,return,0.9296,,62.109375,0,32,32,17,1,FBP-YG-17.png,0.4,1.2,18,0.5,,,,,,,,,,,,,,,,,,,,,,,,,,,,,,,,,,,,,,,,,,,,,
,,,,,V1_010,19,F,2024-04-29_17h35.38.692,jersey_experiment_5_v1,2023.2.2,Win32,85.47008547,,,,,,,,,,,,,,,,178.5563,179.8508,179.8508,181.6853,return,0.3767,,32.29166667,0,33,33,36,1,FBP-OG-18.png,0.37,1.2,37,0.5,,,,,,,,,,,,,,,,,,,,,,,,,,,,,,,,,,,,,,,,,,,,,
,,,,,V1_010,19,F,2024-04-29_17h35.38.692,jersey_experiment_5_v1,2023.2.2,Win32,85.47008547,,,,,,,,,,,,,,,,181.6855,182.9872,182.9872,184.2108,return,0.2408,,32.55208333,0,34,34,52,1,FBP-RB-81.png,0.4,1.2,53,0.5,,,,,,,,,,,,,,,,,,,,,,,,,,,,,,,,,,,,,,,,,,,,,
,,,,,V1_010,19,F,2024-04-29_17h35.38.692,jersey_experiment_5_v1,2023.2.2,Win32,85.47008547,,,,,,,,,,,,,,,,184.211,185.5049,185.5049,187.0138,return,0.2812,,32.421875,0,35,35,47,1,FBP-RB-71.png,0.4,1.2,48,0.5,,,,,,,,,,,,,,,,,,,,,,,,,,,,,,,,,,,,,,,,,,,,,
,,,,,V1_010,19,F,2024-04-29_17h35.38.692,jersey_experiment_5_v1,2023.2.2,Win32,85.47008547,,,,,,,,,,,,,,,,187.0139,188.3168,188.3168,190.8734,return,1.6231,,51.43229167,0,36,36,34,1,FBP-OG-17.png,0.45,1.2,35,0.5,,,,,,,,,,,,,,,,,,,,,,,,,,,,,,,,,,,,,,,,,,,,,
,,,,,V1_010,19,F,2024-04-29_17h35.38.692,jersey_experiment_5_v1,2023.2.2,Win32,85.47008547,,,,,,,,,,,,,,,,190.8736,192.1759,192.1759,193.6699,return,0.3332,,32.16145833,0,37,37,56,1,FBP-RB-91.png,0.37,1.2,57,0.5,,,,,,,,,,,,,,,,,,,,,,,,,,,,,,,,,,,,,,,,,,,,,
,,,,,V1_010,19,F,2024-04-29_17h35.38.692,jersey_experiment_5_v1,2023.2.2,Win32,85.47008547,,,,,,,,,,,,,,,,193.6702,194.9642,194.9643,197.2844,return,0.3402,,36.84895833,0,38,38,37,1,FBP-OG-18.png,0.4,1.2,38,0.5,,,,,,,,,,,,,,,,,,,,,,,,,,,,,,,,,,,,,,,,,,,,,
,,,,,V1_010,19,F,2024-04-29_17h35.38.692,jersey_experiment_5_v1,2023.2.2,Win32,85.47008547,,,,,,,,,,,,,,,,197.2846,198.5813,198.5813,199.9879,return,0.4058,,19.66145833,0,39,39,50,1,FBP-RB-81.png,0.35,1.2,51,0.5,,,,,,,,,,,,,,,,,,,,,,,,,,,,,,,,,,,,,,,,,,,,,
,,,,,V1_010,19,F,2024-04-29_17h35.38.692,jersey_experiment_5_v1,2023.2.2,Win32,85.47008547,,,,,,,,,,,,,,,,199.9881,201.788,201.788,203.251,return,0.257,,18.88020833,0,40,40,5,1,FBP-PT-81.png,0.35,1.2,6,1,,,,,,,,,,,,,,,,,,,,,,,,,,,,,,,,,,,,,,,,,,,,,
,,,,,V1_010,19,F,2024-04-29_17h35.38.692,jersey_experiment_5_v1,2023.2.2,Win32,85.47008547,,,,,,,,,,,,,,,,203.2511,205.0471,205.0471,208.2588,return,2.0898,,65.88541667,0,41,41,8,1,FBP-PT-81.png,0.43,1.2,9,1,,,,,,,,,,,,,,,,,,,,,,,,,,,,,,,,,,,,,,,,,,,,,
,,,,,V1_010,19,F,2024-04-29_17h35.38.692,jersey_experiment_5_v1,2023.2.2,Win32,85.47008547,,,,,,,,,,,,,,,,208.259,209.553,209.553,210.8395,return,0.3067,,65.75520833,0,42,42,32,1,FBP-OG-17.png,0.4,1.2,33,0.5,,,,,,,,,,,,,,,,,,,,,,,,,,,,,,,,,,,,,,,,,,,,,
,,,,,V1_010,19,F,2024-04-29_17h35.38.692,jersey_experiment_5_v1,2023.2.2,Win32,85.47008547,,,,,,,,,,,,,,,,210.8396,212.1334,212.1334,213.4825,return,0.351,,65.625,0,43,43,29,1,FBP-YG-19.png,0.45,1.2,30,0.5,,,,,,,,,,,,,,,,,,,,,,,,,,,,,,,,,,,,,,,,,,,,,
,,,,,V1_010,19,F,2024-04-29_17h35.38.692,jersey_experiment_5_v1,2023.2.2,Win32,85.47008547,,,,,,,,,,,,,,,,213.4827,214.7768,214.7768,216.6747,return,0.4708,,31.640625,0,44,44,26,1,FBP-YG-19.png,0.37,1.2,27,0.5,,,,,,,,,,,,,,,,,,,,,,,,,,,,,,,,,,,,,,,,,,,,,
,,,,,V1_010,19,F,2024-04-29_17h35.38.692,jersey_experiment_5_v1,2023.2.2,Win32,85.47008547,,,,,,,,,,,,,,,,216.6749,217.969,217.969,219.7454,return,0.3178,,30.46875,0,45,45,51,1,FBP-RB-81.png,0.37,1.2,52,0.5,,,,,,,,,,,,,,,,,,,,,,,,,,,,,,,,,,,,,,,,,,,,,
,,,,,V1_010,19,F,2024-04-29_17h35.38.692,jersey_experiment_5_v1,2023.2.2,Win32,85.47008547,,,,,,,,,,,,,,,,219.7456,221.0512,221.0512,222.5711,return,0.2724,,38.80208333,0,46,46,57,1,FBP-RB-91.png,0.4,1.2,58,0.5,,,,,,,,,,,,,,,,,,,,,,,,,,,,,,,,,,,,,,,,,,,,,
,,,,,V1_010,19,F,2024-04-29_17h35.38.692,jersey_experiment_5_v1,2023.2.2,Win32,85.47008547,,,,,,,,,,,,,,,,222.5712,223.8711,223.8712,226.2948,return,0.3446,,10.41666667,0,47,47,20,1,FBP-YG-18.png,0.35,1.2,21,0.5,,,,,,,,,,,,,,,,,,,,,,,,,,,,,,,,,,,,,,,,,,,,,
,,,,,V1_010,19,F,2024-04-29_17h35.38.692,jersey_experiment_5_v1,2023.2.2,Win32,85.47008547,,,,,,,,,,,,,,,,226.295,227.5889,227.5889,231.099,return,1.7548,,61.58854167,0,48,48,19,1,FBP-YG-17.png,0.45,1.2,20,0.5,,,,,,,,,,,,,,,,,,,,,,,,,,,,,,,,,,,,,,,,,,,,,
,,,,,V1_010,19,F,2024-04-29_17h35.38.692,jersey_experiment_5_v1,2023.2.2,Win32,85.47008547,,,,,,,,,,,,,,,,231.0992,232.3931,232.3931,235.2599,return,1.9285,,45.3125,0,49,49,49,1,FBP-RB-71.png,0.45,1.2,50,0.5,,,,,,,,,,,,,,,,,,,,,,,,,,,,,,,,,,,,,,,,,,,,,
,,,,,V1_010,19,F,2024-04-29_17h35.38.692,jersey_experiment_5_v1,2023.2.2,Win32,85.47008547,,,,,,,,,,,,,,,,235.2601,237.0599,237.0599,239.7699,return,0.3057,,49.86979167,0,50,50,2,1,FBP-PT-71.png,0.4,1.2,3,1,,,,,,,,,,,,,,,,,,,,,,,,,,,,,,,,,,,,,,,,,,,,,
,,,,,V1_010,19,F,2024-04-29_17h35.38.692,jersey_experiment_5_v1,2023.2.2,Win32,85.47008547,,,,,,,,,,,,,,,,239.77,241.0718,241.0718,242.166,return,0.3097,,49.86979167,0,51,51,18,1,FBP-YG-17.png,0.43,1.2,19,0.5,,,,,,,,,,,,,,,,,,,,,,,,,,,,,,,,,,,,,,,,,,,,,
,,,,,V1_010,19,F,2024-04-29_17h35.38.692,jersey_experiment_5_v1,2023.2.2,Win32,85.47008547,,,,,,,,,,,,,,,,242.1662,243.46,243.46,246.1191,return,1.0385,,70.3125,0,52,52,54,1,FBP-RB-81.png,0.45,1.2,55,0.5,,,,,,,,,,,,,,,,,,,,,,,,,,,,,,,,,,,,,,,,,,,,,
,,,,,V1_010,19,F,2024-04-29_17h35.38.692,jersey_experiment_5_v1,2023.2.2,Win32,85.47008547,,,,,,,,,,,,,,,,246.1193,247.9192,247.9192,249.2058,return,0.3417,,70.18229167,0,53,53,14,1,FBP-PT-91.png,0.45,1.2,15,1,,,,,,,,,,,,,,,,,,,,,,,,,,,,,,,,,,,,,,,,,,,,,
,,,,,V1_010,19,F,2024-04-29_17h35.38.692,jersey_experiment_5_v1,2023.2.2,Win32,85.47008547,,,,,,,,,,,,,,,,249.206,250.5012,250.5012,253.8984,return,2.3515,,34.375,0,54,54,21,1,FBP-YG-18.png,0.37,1.2,22,0.5,,,,,,,,,,,,,,,,,,,,,,,,,,,,,,,,,,,,,,,,,,,,,
,,,,,V1_010,19,F,2024-04-29_17h35.38.692,jersey_experiment_5_v1,2023.2.2,Win32,85.47008547,,,,,,,,,,,,,,,,253.8985,255.1899,255.19,256.4664,return,0.2957,,29.42708333,0,55,55,31,1,FBP-OG-17.png,0.37,1.2,32,0.5,,,,,,,,,,,,,,,,,,,,,,,,,,,,,,,,,,,,,,,,,,,,,
,,,,,V1_010,19,F,2024-04-29_17h35.38.692,jersey_experiment_5_v1,2023.2.2,Win32,85.47008547,,,,,,,,,,,,,,,,256.4665,258.2606,258.2606,259.8961,return,0.3298,,29.42708333,0,56,56,10,1,FBP-PT-91.png,0.35,1.2,11,1,,,,,,,,,,,,,,,,,,,,,,,,,,,,,,,,,,,,,,,,,,,,,
,,,,,V1_010,19,F,2024-04-29_17h35.38.692,jersey_experiment_5_v1,2023.2.2,Win32,85.47008547,,,,,,,,,,,,,,,,259.8963,261.1902,261.1902,263.9433,return,0.4154,,51.5625,0,57,57,33,1,FBP-OG-17.png,0.43,1.2,34,0.5,,,,,,,,,,,,,,,,,,,,,,,,,,,,,,,,,,,,,,,,,,,,,
,,,,,V1_010,19,F,2024-04-29_17h35.38.692,jersey_experiment_5_v1,2023.2.2,Win32,85.47008547,,,,,,,,,,,,,,,,263.9435,265.2419,265.2419,267.8874,return,1.1164,,27.21354167,0,58,58,55,1,FBP-RB-91.png,0.35,1.2,56,0.5,,,,,,,,,,,,,,,,,,,,,,,,,,,,,,,,,,,,,,,,,,,,,
,,,,,V1_010,19,F,2024-04-29_17h35.38.692,jersey_experiment_5_v1,2023.2.2,Win32,85.47008547,,,,,,,,,,,,,,,,267.8875,269.1981,269.1982,270.6634,return,0.2923,,60.80729167,0,59,59,38,1,FBP-OG-18.png,0.43,1.2,39,0.5,,,,,,,,,,,,,,,,,,,,,,,,,,,,,,,,,,,,,,,,,,,,,
,,,,,V1_010,19,F,2024-04-29_17h35.38.692,jersey_experiment_5_v1,2023.2.2,Win32,85.47008547,,,,,,,,,,,,,,,,270.6654,272.4661,272.4661,273.4638,return,0.338,,37.63020833,,,,,,FBP-PT-17.png,0.37,1.2,2,1,0,0,0,1,1,,,,,,,,,,,,,,,,,,,,,,,,,,,,,,,,,,,,,,,,
,,,,,V1_010,19,F,2024-04-29_17h35.38.692,jersey_experiment_5_v1,2023.2.2,Win32,85.47008547,,,,,,,,,,,,,,,,273.464,274.7554,274.7554,276.523,return,0.5159,,33.984375,,,,,,FBP-YG-71.png,0.35,1.2,16,0.5,0,1,1,15,1,,,,,,,,,,,,,,,,,,,,,,,,,,,,,,,,,,,,,,,,
,,,,,V1_010,19,F,2024-04-29_17h35.38.692,jersey_experiment_5_v1,2023.2.2,Win32,85.47008547,,,,,,,,,,,,,,,,276.5232,277.8299,277.8299,280.489,return,1.659,,47.13541667,,,,,,FBP-YG-71.png,0.37,1.2,17,0.5,0,2,2,16,1,,,,,,,,,,,,,,,,,,,,,,,,,,,,,,,,,,,,,,,,
,,,,,V1_010,19,F,2024-04-29_17h35.38.692,jersey_experiment_5_v1,2023.2.2,Win32,85.47008547,,,,,,,,,,,,,,,,280.4892,281.7911,281.7912,283.0769,return,0.3173,,55.98958333,,,,,,FBP-YG-81.png,0.4,1.2,23,0.5,0,3,3,22,1,,,,,,,,,,,,,,,,,,,,,,,,,,,,,,,,,,,,,,,,
,,,,,V1_010,19,F,2024-04-29_17h35.38.692,jersey_experiment_5_v1,2023.2.2,Win32,85.47008547,,,,,,,,,,,,,,,,283.077,284.3793,284.3793,285.8538,return,0.3295,,31.77083333,,,,,,FBP-OG-91.png,0.35,1.2,41,0.5,0,4,4,40,1,,,,,,,,,,,,,,,,,,,,,,,,,,,,,,,,,,,,,,,,
,,,,,V1_010,19,F,2024-04-29_17h35.38.692,jersey_experiment_5_v1,2023.2.2,Win32,85.47008547,,,,,,,,,,,,,,,,285.854,287.65,287.65,289.6305,return,0.3195,,53.90625,,,,,,FBP-PT-19.png,0.43,1.2,14,1,0,5,5,13,1,,,,,,,,,,,,,,,,,,,,,,,,,,,,,,,,,,,,,,,,
,,,,,V1_010,19,F,2024-04-29_17h35.38.692,jersey_experiment_5_v1,2023.2.2,Win32,85.47008547,,,,,,,,,,,,,,,,289.6307,290.9362,290.9362,293.6541,return,1.4119,,69.40104167,,,,,,FBP-YG-91.png,0.4,1.2,28,0.5,0,6,6,27,1,,,,,,,,,,,,,,,,,,,,,,,,,,,,,,,,,,,,,,,,
,,,,,V1_010,19,F,2024-04-29_17h35.38.692,jersey_experiment_5_v1,2023.2.2,Win32,85.47008547,,,,,,,,,,,,,,,,293.6542,294.9562,294.9562,296.0503,return,0.3377,,79.16666667,,,,,,FBP-RB-17.png,0.43,1.2,49,0.5,0,7,7,48,1,,,,,,,,,,,,,,,,,,,,,,,,,,,,,,,,,,,,,,,,
,,,,,V1_010,19,F,2024-04-29_17h35.38.692,jersey_experiment_5_v1,2023.2.2,Win32,85.47008547,,,,,,,,,,,,,,,,296.0505,297.8554,297.8554,299.3717,return,0.9997,,65.88541667,,,,,,FBP-PT-18.png,0.4,1.2,8,1,0,8,8,7,1,,,,,,,,,,,,,,,,,,,,,,,,,,,,,,,,,,,,,,,,
,,,,,V1_010,19,F,2024-04-29_17h35.38.692,jersey_experiment_5_v1,2023.2.2,Win32,85.47008547,,,,,,,,,,,,,,,,299.3718,301.1722,301.1723,301.9252,return,0.3302,,65.10416667,,,,,,FBP-PT-17.png,0.4,1.2,3,1,0,9,9,2,1,,,,,,,,,,,,,,,,,,,,,,,,,,,,,,,,,,,,,,,,
,,,,,V1_010,19,F,2024-04-29_17h35.38.692,jersey_experiment_5_v1,2023.2.2,Win32,85.47008547,,,,,,,,,,,,,,,,301.9254,303.2189,303.2189,304.3609,return,0.271,,65.10416667,,,,,,FBP-YG-91.png,0.35,1.2,26,0.5,0,10,10,25,1,,,,,,,,,,,,,,,,,,,,,,,,,,,,,,,,,,,,,,,,
,,,,,V1_010,19,F,2024-04-29_17h35.38.692,jersey_experiment_5_v1,2023.2.2,Win32,85.47008547,,,,,,,,,,,,,,,,304.3611,306.1567,306.1567,308.3097,return,0.7807,,61.328125,,,,,,FBP-PT-18.png,0.35,1.2,6,1,0,11,11,5,1,,,,,,,,,,,,,,,,,,,,,,,,,,,,,,,,,,,,,,,,
,,,,,V1_010,19,F,2024-04-29_17h35.38.692,jersey_experiment_5_v1,2023.2.2,Win32,85.47008547,,,,,,,,,,,,,,,,308.3099,309.608,309.608,311.3155,return,0.5899,,92.70833333,,,,,,FBP-RB-18.png,0.45,1.2,55,0.5,0,12,12,54,1,,,,,,,,,,,,,,,,,,,,,,,,,,,,,,,,,,,,,,,,
,,,,,V1_010,19,F,2024-04-29_17h35.38.692,jersey_experiment_5_v1,2023.2.2,Win32,85.47008547,,,,,,,,,,,,,,,,311.3156,312.6157,312.6157,314.3452,return,0.648,,44.53125,,,,,,FBP-OG-81.png,0.35,1.2,36,0.5,0,13,13,35,1,,,,,,,,,,,,,,,,,,,,,,,,,,,,,,,,,,,,,,,,
,,,,,V1_010,19,F,2024-04-29_17h35.38.692,jersey_experiment_5_v1,2023.2.2,Win32,85.47008547,,,,,,,,,,,,,,,,314.3454,315.6449,315.6449,316.7611,return,0.3075,,60.28645833,,,,,,FBP-YG-81.png,0.43,1.2,24,0.5,0,14,14,23,1,,,,,,,,,,,,,,,,,,,,,,,,,,,,,,,,,,,,,,,,
,,,,,V1_010,19,F,2024-04-29_17h35.38.692,jersey_experiment_5_v1,2023.2.2,Win32,85.47008547,,,,,,,,,,,,,,,,316.7613,318.5614,318.5614,321.3733,return,1.9405,,75.13020833,,,,,,FBP-PT-17.png,0.45,1.2,5,1,0,15,15,4,1,,,,,,,,,,,,,,,,,,,,,,,,,,,,,,,,,,,,,,,,
,,,,,V1_010,19,F,2024-04-29_17h35.38.692,jersey_experiment_5_v1,2023.2.2,Win32,85.47008547,,,,,,,,,,,,,,,,321.3734,322.675,322.675,324.0186,return,0.3758,,70.44270833,,,,,,FBP-OG-71.png,0.4,1.2,33,0.5,0,16,16,32,1,,,,,,,,,,,,,,,,,,,,,,,,,,,,,,,,,,,,,,,,
,,,,,V1_010,19,F,2024-04-29_17h35.38.692,jersey_experiment_5_v1,2023.2.2,Win32,85.47008547,,,,,,,,,,,,,,,,324.0188,325.3103,325.3104,327.3734,return,0.9421,,43.75,,,,,,FBP-YG-91.png,0.37,1.2,27,0.5,0,17,17,26,1,,,,,,,,,,,,,,,,,,,,,,,,,,,,,,,,,,,,,,,,
,,,,,V1_010,19,F,2024-04-29_17h35.38.692,jersey_experiment_5_v1,2023.2.2,Win32,85.47008547,,,,,,,,,,,,,,,,327.3736,329.173,329.173,330.325,return,0.4326,,33.46354167,,,,,,FBP-PT-19.png,0.35,1.2,11,1,0,18,18,10,1,,,,,,,,,,,,,,,,,,,,,,,,,,,,,,,,,,,,,,,,
,,,,,V1_010,19,F,2024-04-29_17h35.38.692,jersey_experiment_5_v1,2023.2.2,Win32,85.47008547,,,,,,,,,,,,,,,,330.3252,331.6165,331.6165,332.6282,return,0.2546,,33.46354167,,,,,,FBP-OG-81.png,0.37,1.2,37,0.5,0,19,19,36,1,,,,,,,,,,,,,,,,,,,,,,,,,,,,,,,,,,,,,,,,
,,,,,V1_010,19,F,2024-04-29_17h35.38.692,jersey_experiment_5_v1,2023.2.2,Win32,85.47008547,,,,,,,,,,,,,,,,332.6285,333.9375,333.9375,335.5932,return,0.305,,79.94791667,,,,,,FBP-RB-19.png,0.45,1.2,60,0.5,0,20,20,59,1,,,,,,,,,,,,,,,,,,,,,,,,,,,,,,,,,,,,,,,,
,,,,,V1_010,19,F,2024-04-29_17h35.38.692,jersey_experiment_5_v1,2023.2.2,Win32,85.47008547,,,,,,,,,,,,,,,,335.5934,336.8872,336.8872,338.0796,return,0.4702,,88.15104167,,,,,,FBP-RB-18.png,0.4,1.2,53,0.5,0,21,21,52,1,,,,,,,,,,,,,,,,,,,,,,,,,,,,,,,,,,,,,,,,
,,,,,V1_010,19,F,2024-04-29_17h35.38.692,jersey_experiment_5_v1,2023.2.2,Win32,85.47008547,,,,,,,,,,,,,,,,338.0798,339.3815,339.3815,341.032,return,0.3422,,85.80729167,,,,,,FBP-RB-17.png,0.4,1.2,48,0.5,0,22,22,47,1,,,,,,,,,,,,,,,,,,,,,,,,,,,,,,,,,,,,,,,,
,,,,,V1_010,19,F,2024-04-29_17h35.38.692,jersey_experiment_5_v1,2023.2.2,Win32,85.47008547,,,,,,,,,,,,,,,,341.0321,342.3344,342.3345,343.6916,return,0.3288,,75.26041667,,,,,,FBP-RB-19.png,0.37,1.2,57,0.5,0,23,23,56,1,,,,,,,,,,,,,,,,,,,,,,,,,,,,,,,,,,,,,,,,
,,,,,V1_010,19,F,2024-04-29_17h35.38.692,jersey_experiment_5_v1,2023.2.2,Win32,85.47008547,,,,,,,,,,,,,,,,343.6918,344.9935,344.9935,347.0332,return,0.9663,,92.83854167,,,,,,FBP-OG-91.png,0.45,1.2,45,0.5,0,24,24,44,1,,,,,,,,,,,,,,,,,,,,,,,,,,,,,,,,,,,,,,,,
,,,,,V1_010,19,F,2024-04-29_17h35.38.692,jersey_experiment_5_v1,2023.2.2,Win32,85.47008547,,,,,,,,,,,,,,,,347.0335,348.3346,348.3347,349.8643,return,0.496,,80.46875,,,,,,FBP-OG-71.png,0.45,1.2,35,0.5,0,25,25,34,1,,,,,,,,,,,,,,,,,,,,,,,,,,,,,,,,,,,,,,,,
,,,,,V1_010,19,F,2024-04-29_17h35.38.692,jersey_experiment_5_v1,2023.2.2,Win32,85.47008547,,,,,,,,,,,,,,,,349.8644,351.1624,351.1624,352.2668,return,0.2803,,87.109375,,,,,,FBP-OG-81.png,0.43,1.2,39,0.5,0,26,26,38,1,,,,,,,,,,,,,,,,,,,,,,,,,,,,,,,,,,,,,,,,
,,,,,V1_010,19,F,2024-04-29_17h35.38.692,jersey_experiment_5_v1,2023.2.2,Win32,85.47008547,,,,,,,,,,,,,,,,352.267,353.5585,353.5585,355.9584,return,1.2993,,57.94270833,,,,,,FBP-YG-71.png,0.4,1.2,18,0.5,0,27,27,17,1,,,,,,,,,,,,,,,,,,,,,,,,,,,,,,,,,,,,,,,,
,,,,,V1_010,19,F,2024-04-29_17h35.38.692,jersey_experiment_5_v1,2023.2.2,Win32,85.47008547,,,,,,,,,,,,,,,,355.9586,357.2527,357.2527,361.1117,return,2.6513,,72.13541667,,,,,,FBP-YG-71.png,0.43,1.2,19,0.5,0,28,28,18,1,,,,,,,,,,,,,,,,,,,,,,,,,,,,,,,,,,,,,,,,
,,,,,V1_010,19,F,2024-04-29_17h35.38.692,jersey_experiment_5_v1,2023.2.2,Win32,85.47008547,,,,,,,,,,,,,,,,361.112,362.4105,362.4105,363.4646,return,0.3307,,49.34895833,,,,,,FBP-OG-91.png,0.37,1.2,42,0.5,0,29,29,41,1,,,,,,,,,,,,,,,,,,,,,,,,,,,,,,,,,,,,,,,,
,,,,,V1_010,19,F,2024-04-29_17h35.38.692,jersey_experiment_5_v1,2023.2.2,Win32,85.47008547,,,,,,,,,,,,,,,,363.4649,364.7588,364.7588,365.8177,return,0.321,,62.5,,,,,,FBP-RB-18.png,0.43,1.2,54,0.5,0,30,30,53,1,,,,,,,,,,,,,,,,,,,,,,,,,,,,,,,,,,,,,,,,
,,,,,V1_010,19,F,2024-04-29_17h35.38.692,jersey_experiment_5_v1,2023.2.2,Win32,85.47008547,,,,,,,,,,,,,,,,365.8179,367.6222,367.6223,368.5396,return,0.4478,,69.53125,,,,,,FBP-PT-18.png,0.43,1.2,9,1,0,31,31,8,1,,,,,,,,,,,,,,,,,,,,,,,,,,,,,,,,,,,,,,,,
,,,,,V1_010,19,F,2024-04-29_17h35.38.692,jersey_experiment_5_v1,2023.2.2,Win32,85.47008547,,,,,,,,,,,,,,,,368.5398,369.8415,369.8415,370.7122,return,0.2375,,70.57291667,,,,,,FBP-OG-81.png,0.4,1.2,38,0.5,0,32,32,37,1,,,,,,,,,,,,,,,,,,,,,,,,,,,,,,,,,,,,,,,,
,,,,,V1_010,19,F,2024-04-29_17h35.38.692,jersey_experiment_5_v1,2023.2.2,Win32,85.47008547,,,,,,,,,,,,,,,,370.7123,372.504,372.504,373.9047,return,0.3183,,74.86979167,,,,,,FBP-PT-17.png,0.43,1.2,4,1,0,33,33,3,1,,,,,,,,,,,,,,,,,,,,,,,,,,,,,,,,,,,,,,,,
,,,,,V1_010,19,F,2024-04-29_17h35.38.692,jersey_experiment_5_v1,2023.2.2,Win32,85.47008547,,,,,,,,,,,,,,,,373.9048,375.2064,375.2065,376.1275,return,0.2696,,81.640625,,,,,,FBP-RB-19.png,0.43,1.2,59,0.5,0,34,34,58,1,,,,,,,,,,,,,,,,,,,,,,,,,,,,,,,,,,,,,,,,
,,,,,V1_010,19,F,2024-04-29_17h35.38.692,jersey_experiment_5_v1,2023.2.2,Win32,85.47008547,,,,,,,,,,,,,,,,376.1276,377.9247,377.9247,378.9242,return,0.281,,50.13020833,,,,,,FBP-PT-18.png,0.37,1.2,7,1,0,35,35,6,1,,,,,,,,,,,,,,,,,,,,,,,,,,,,,,,,,,,,,,,,
,,,,,V1_010,19,F,2024-04-29_17h35.38.692,jersey_experiment_5_v1,2023.2.2,Win32,85.47008547,,,,,,,,,,,,,,,,378.9244,380.2182,380.2182,381.5635,return,0.4004,,84.24479167,,,,,,FBP-RB-17.png,0.45,1.2,50,0.5,0,36,36,49,1,,,,,,,,,,,,,,,,,,,,,,,,,,,,,,,,,,,,,,,,
,,,,,V1_010,19,F,2024-04-29_17h35.38.692,jersey_experiment_5_v1,2023.2.2,Win32,85.47008547,,,,,,,,,,,,,,,,381.5636,382.8655,382.8655,383.74,return,0.2839,,85.67708333,,,,,,FBP-YG-91.png,0.43,1.2,29,0.5,0,37,37,28,1,,,,,,,,,,,,,,,,,,,,,,,,,,,,,,,,,,,,,,,,
,,,,,V1_010,19,F,2024-04-29_17h35.38.692,jersey_experiment_5_v1,2023.2.2,Win32,85.47008547,,,,,,,,,,,,,,,,383.7401,385.042,385.042,385.9126,return,0.319,,85.67708333,,,,,,FBP-OG-81.png,0.45,1.2,40,0.5,0,38,38,39,1,,,,,,,,,,,,,,,,,,,,,,,,,,,,,,,,,,,,,,,,
,,,,,V1_010,19,F,2024-04-29_17h35.38.692,jersey_experiment_5_v1,2023.2.2,Win32,85.47008547,,,,,,,,,,,,,,,,385.9129,387.7182,387.7182,388.4698,return,0.3312,,87.36979167,,,,,,FBP-PT-19.png,0.4,1.2,13,1,0,39,39,12,1,,,,,,,,,,,,,,,,,,,,,,,,,,,,,,,,,,,,,,,,
,,,,,V1_010,19,F,2024-04-29_17h35.38.692,jersey_experiment_5_v1,2023.2.2,Win32,85.47008547,,,,,,,,,,,,,,,,388.47,390.2703,390.2704,390.9867,return,0.3761,,88.93229167,,,,,,FBP-PT-18.png,0.45,1.2,10,1,0,40,40,9,1,,,,,,,,,,,,,,,,,,,,,,,,,,,,,,,,,,,,,,,,
,,,,,V1_010,19,F,2024-04-29_17h35.38.692,jersey_experiment_5_v1,2023.2.2,Win32,85.47008547,,,,,,,,,,,,,,,,390.9869,392.7836,392.7836,395.1129,return,1.5911,,63.28125,,,,,,FBP-PT-17.png,0.35,1.2,1,1,0,41,41,0,1,,,,,,,,,,,,,,,,,,,,,,,,,,,,,,,,,,,,,,,,
,,,,,V1_010,19,F,2024-04-29_17h35.38.692,jersey_experiment_5_v1,2023.2.2,Win32,85.47008547,,,,,,,,,,,,,,,,395.1132,396.92,396.92,398.3132,return,0.9424,,67.05729167,,,,,,FBP-PT-19.png,0.37,1.2,12,1,0,42,42,11,1,,,,,,,,,,,,,,,,,,,,,,,,,,,,,,,,,,,,,,,,
,,,,,V1_010,19,F,2024-04-29_17h35.38.692,jersey_experiment_5_v1,2023.2.2,Win32,85.47008547,,,,,,,,,,,,,,,,398.3134,399.6102,399.6102,400.6348,return,0.331,,86.328125,,,,,,FBP-YG-71.png,0.45,1.2,20,0.5,0,43,43,19,1,,,,,,,,,,,,,,,,,,,,,,,,,,,,,,,,,,,,,,,,
,,,,,V1_010,19,F,2024-04-29_17h35.38.692,jersey_experiment_5_v1,2023.2.2,Win32,85.47008547,,,,,,,,,,,,,,,,400.6349,401.9387,401.9388,402.7161,return,0.3187,,86.328125,,,,,,FBP-YG-91.png,0.45,1.2,30,0.5,0,44,44,29,1,,,,,,,,,,,,,,,,,,,,,,,,,,,,,,,,,,,,,,,,
,,,,,V1_010,19,F,2024-04-29_17h35.38.692,jersey_experiment_5_v1,2023.2.2,Win32,85.47008547,,,,,,,,,,,,,,,,402.7163,404.0228,404.0228,406.0349,return,0.2706,,54.55729167,,,,,,FBP-RB-18.png,0.37,1.2,52,0.5,0,45,45,51,1,,,,,,,,,,,,,,,,,,,,,,,,,,,,,,,,,,,,,,,,
,,,,,V1_010,19,F,2024-04-29_17h35.38.692,jersey_experiment_5_v1,2023.2.2,Win32,85.47008547,,,,,,,,,,,,,,,,406.035,407.3308,407.3308,409.5135,return,1.6245,,75.65104167,,,,,,FBP-YG-81.png,0.45,1.2,25,0.5,0,46,46,24,1,,,,,,,,,,,,,,,,,,,,,,,,,,,,,,,,,,,,,,,,
,,,,,V1_010,19,F,2024-04-29_17h35.38.692,jersey_experiment_5_v1,2023.2.2,Win32,85.47008547,,,,,,,,,,,,,,,,409.5138,410.8077,410.8078,411.9135,return,0.2815,,37.5,,,,,,FBP-RB-19.png,0.35,1.2,56,0.5,0,47,47,55,1,,,,,,,,,,,,,,,,,,,,,,,,,,,,,,,,,,,,,,,,
,,,,,V1_010,19,F,2024-04-29_17h35.38.692,jersey_experiment_5_v1,2023.2.2,Win32,85.47008547,,,,,,,,,,,,,,,,411.9137,413.2078,413.2078,414.3175,return,0.3647,,60.15625,,,,,,FBP-OG-91.png,0.4,1.2,43,0.5,0,48,48,42,1,,,,,,,,,,,,,,,,,,,,,,,,,,,,,,,,,,,,,,,,
,,,,,V1_010,19,F,2024-04-29_17h35.38.692,jersey_experiment_5_v1,2023.2.2,Win32,85.47008547,,,,,,,,,,,,,,,,414.3176,415.6131,415.6131,417.9766,return,1.4958,,35.02604167,,,,,,FBP-RB-17.png,0.35,1.2,46,0.5,0,49,49,45,1,,,,,,,,,,,,,,,,,,,,,,,,,,,,,,,,,,,,,,,,
,,,,,V1_010,19,F,2024-04-29_17h35.38.692,jersey_experiment_5_v1,2023.2.2,Win32,85.47008547,,,,,,,,,,,,,,,,417.9768,419.2808,419.2809,420.1769,return,0.3665,,34.375,,,,,,FBP-YG-81.png,0.37,1.2,22,0.5,0,50,50,21,1,,,,,,,,,,,,,,,,,,,,,,,,,,,,,,,,,,,,,,,,
,,,,,V1_010,19,F,2024-04-29_17h35.38.692,jersey_experiment_5_v1,2023.2.2,Win32,85.47008547,,,,,,,,,,,,,,,,420.177,421.4706,421.4706,422.2002,return,0.2352,,34.63541667,,,,,,FBP-RB-18.png,0.35,1.2,51,0.5,0,51,51,50,1,,,,,,,,,,,,,,,,,,,,,,,,,,,,,,,,,,,,,,,,
,,,,,V1_010,19,F,2024-04-29_17h35.38.692,jersey_experiment_5_v1,2023.2.2,Win32,85.47008547,,,,,,,,,,,,,,,,422.2003,423.4943,423.4943,425.3653,return,0.33,,74.609375,,,,,,FBP-OG-91.png,0.43,1.2,44,0.5,0,52,52,43,1,,,,,,,,,,,,,,,,,,,,,,,,,,,,,,,,,,,,,,,,
,,,,,V1_010,19,F,2024-04-29_17h35.38.692,jersey_experiment_5_v1,2023.2.2,Win32,85.47008547,,,,,,,,,,,,,,,,425.3654,427.1667,427.1667,428.0084,return,0.318,,86.58854167,,,,,,FBP-PT-19.png,0.45,1.2,15,1,0,53,53,14,1,,,,,,,,,,,,,,,,,,,,,,,,,,,,,,,,,,,,,,,,
,,,,,V1_010,19,F,2024-04-29_17h35.38.692,jersey_experiment_5_v1,2023.2.2,Win32,85.47008547,,,,,,,,,,,,,,,,428.0086,429.3045,429.3046,431.9497,return,0.3291,,26.82291667,,,,,,FBP-RB-17.png,0.37,1.2,47,0.5,0,54,54,46,1,,,,,,,,,,,,,,,,,,,,,,,,,,,,,,,,,,,,,,,,
,,,,,V1_010,19,F,2024-04-29_17h35.38.692,jersey_experiment_5_v1,2023.2.2,Win32,85.47008547,,,,,,,,,,,,,,,,431.9499,433.248,433.248,434.0947,return,0.2942,,28.38541667,,,,,,FBP-OG-71.png,0.37,1.2,32,0.5,0,55,55,31,1,,,,,,,,,,,,,,,,,,,,,,,,,,,,,,,,,,,,,,,,
,,,,,V1_010,19,F,2024-04-29_17h35.38.692,jersey_experiment_5_v1,2023.2.2,Win32,85.47008547,,,,,,,,,,,,,,,,434.0949,435.3889,435.3889,437.6971,return,1.2492,,29.16666667,,,,,,FBP-OG-71.png,0.35,1.2,31,0.5,0,56,56,30,1,,,,,,,,,,,,,,,,,,,,,,,,,,,,,,,,,,,,,,,,
,,,,,V1_010,19,F,2024-04-29_17h35.38.692,jersey_experiment_5_v1,2023.2.2,Win32,85.47008547,,,,,,,,,,,,,,,,437.6973,439.0011,439.0011,440.7658,return,0.9295,,61.71875,,,,,,FBP-OG-71.png,0.43,1.2,34,0.5,0,57,57,33,1,,,,,,,,,,,,,,,,,,,,,,,,,,,,,,,,,,,,,,,,
,,,,,V1_010,19,F,2024-04-29_17h35.38.692,jersey_experiment_5_v1,2023.2.2,Win32,85.47008547,,,,,,,,,,,,,,,,440.766,442.0676,442.0677,444.1658,return,1.0814,,24.86979167,,,,,,FBP-YG-81.png,0.35,1.2,21,0.5,0,58,58,20,1,,,,,,,,,,,,,,,,,,,,,,,,,,,,,,,,,,,,,,,,
,,,,,V1_010,19,F,2024-04-29_17h35.38.692,jersey_experiment_5_v1,2023.2.2,Win32,85.47008547,,,,,,,,,,,,,,,,444.166,445.4715,445.4715,447.0954,return,0.3416,,48.828125,,,,,,FBP-RB-19.png,0.4,1.2,58,0.5,0,59,59,57,1,,,,,,,,,,,,,,,,,,,,,,,,,,,,,,,,,,,,,,,,
,,,,,V1_010,19,F,2024-04-29_17h35.38.692,jersey_experiment_5_v1,2023.2.2,Win32,85.47008547,,,,,,,,,,,,,,,,,,,,,,,,,,,,,,,,,,,,,,,447.0957,567.0963,,,,,,,,,,,,,,,,,,,,,,,,,,,,,,,,,,,,,,
,,,,,V1_010,19,F,2024-04-29_17h35.38.692,jersey_experiment_5_v1,2023.2.2,Win32,85.47008547,,,,,,,,,,,,,,,,,,,,,,,,,,,,,,,,,,,,,,,,,567.0964,568.6433,return,1.5316,,,,,,,,,,,,,,,,,,,,,,,,,,,,,,,,,,
,,,,,V1_010,19,F,2024-04-29_17h35.38.692,jersey_experiment_5_v1,2023.2.2,Win32,85.47008547,,,,,,,,,,,,,,,,568.6492,570.4491,570.4491,577.767,return,1.4152,,50.52083333,,,,,,FBP-RB-91.png,0.35,1.2,56,1,,,,,,,,,,,,,0,0,0,55,1,,,,,,,,,,,,,,,,,,,,,,,,,,,,
,,,,,V1_010,19,F,2024-04-29_17h35.38.692,jersey_experiment_5_v1,2023.2.2,Win32,85.47008547,,,,,,,,,,,,,,,,577.7675,579.5717,579.5718,581.6025,return,0.7607,,61.06770833,,,,,,FBP-YG-19.png,0.37,1.2,27,1,,,,,,,,,,,,,0,1,1,26,1,,,,,,,,,,,,,,,,,,,,,,,,,,,,
,,,,,V1_010,19,F,2024-04-29_17h35.38.692,jersey_experiment_5_v1,2023.2.2,Win32,85.47008547,,,,,,,,,,,,,,,,581.6026,583.4048,583.4048,585.1582,return,0.3633,,84.375,,,,,,FBP-RB-91.png,0.43,1.2,59,1,,,,,,,,,,,,,0,2,2,58,1,,,,,,,,,,,,,,,,,,,,,,,,,,,,
,,,,,V1_010,19,F,2024-04-29_17h35.38.692,jersey_experiment_5_v1,2023.2.2,Win32,85.47008547,,,,,,,,,,,,,,,,585.1583,586.9556,586.9556,589.0646,return,1.6468,,76.04166667,,,,,,FBP-RB-81.png,0.4,1.2,53,1,,,,,,,,,,,,,0,3,3,52,1,,,,,,,,,,,,,,,,,,,,,,,,,,,,
,,,,,V1_010,19,F,2024-04-29_17h35.38.692,jersey_experiment_5_v1,2023.2.2,Win32,85.47008547,,,,,,,,,,,,,,,,589.0648,590.8639,590.8639,592.3711,return,0.3529,,50.390625,,,,,,FBP-RB-91.png,0.37,1.2,57,1,,,,,,,,,,,,,0,4,4,56,1,,,,,,,,,,,,,,,,,,,,,,,,,,,,
,,,,,V1_010,19,F,2024-04-29_17h35.38.692,jersey_experiment_5_v1,2023.2.2,Win32,85.47008547,,,,,,,,,,,,,,,,592.3713,594.1717,594.1717,594.9247,return,0.3649,,50.390625,,,,,,FBP-YG-17.png,0.37,1.2,17,1,,,,,,,,,,,,,0,5,5,16,1,,,,,,,,,,,,,,,,,,,,,,,,,,,,
,,,,,V1_010,19,F,2024-04-29_17h35.38.692,jersey_experiment_5_v1,2023.2.2,Win32,85.47008547,,,,,,,,,,,,,,,,594.9248,596.7234,596.7234,602.1209,return,4.6955,,43.88020833,,,,,,FBP-OG-17.png,0.35,1.2,31,1,,,,,,,,,,,,,0,6,6,30,1,,,,,,,,,,,,,,,,,,,,,,,,,,,,
,,,,,V1_010,19,F,2024-04-29_17h35.38.692,jersey_experiment_5_v1,2023.2.2,Win32,85.47008547,,,,,,,,,,,,,,,,602.1211,603.4149,603.415,605.2858,return,0.687,,83.984375,,,,,,FBP-PT-91.png,0.45,1.2,15,0.5,,,,,,,,,,,,,0,7,7,14,1,,,,,,,,,,,,,,,,,,,,,,,,,,,,
,,,,,V1_010,19,F,2024-04-29_17h35.38.692,jersey_experiment_5_v1,2023.2.2,Win32,85.47008547,,,,,,,,,,,,,,,,605.2859,607.0805,607.0806,608.6429,return,0.2938,,72.00520833,,,,,,FBP-OG-19.png,0.4,1.2,43,1,,,,,,,,,,,,,0,8,8,42,1,,,,,,,,,,,,,,,,,,,,,,,,,,,,
,,,,,V1_010,19,F,2024-04-29_17h35.38.692,jersey_experiment_5_v1,2023.2.2,Win32,85.47008547,,,,,,,,,,,,,,,,608.643,610.4415,610.4415,612.3961,return,1.1172,,83.46354167,,,,,,FBP-YG-17.png,0.43,1.2,19,1,,,,,,,,,,,,,0,9,9,18,1,,,,,,,,,,,,,,,,,,,,,,,,,,,,
,,,,,V1_010,19,F,2024-04-29_17h35.38.692,jersey_experiment_5_v1,2023.2.2,Win32,85.47008547,,,,,,,,,,,,,,,,612.3963,614.1947,614.1947,616.1802,return,1.4076,,90.49479167,,,,,,FBP-RB-91.png,0.45,1.2,60,1,,,,,,,,,,,,,0,10,10,59,1,,,,,,,,,,,,,,,,,,,,,,,,,,,,
,,,,,V1_010,19,F,2024-04-29_17h35.38.692,jersey_experiment_5_v1,2023.2.2,Win32,85.47008547,,,,,,,,,,,,,,,,616.1803,617.9851,617.9851,619.7569,return,1.118,,79.296875,,,,,,FBP-OG-18.png,0.43,1.2,39,1,,,,,,,,,,,,,0,11,11,38,1,,,,,,,,,,,,,,,,,,,,,,,,,,,,
,,,,,V1_010,19,F,2024-04-29_17h35.38.692,jersey_experiment_5_v1,2023.2.2,Win32,85.47008547,,,,,,,,,,,,,,,,619.7571,621.054,621.0541,622.9977,return,0.3326,,52.60416667,,,,,,FBP-PT-91.png,0.37,1.2,12,0.5,,,,,,,,,,,,,0,12,12,11,1,,,,,,,,,,,,,,,,,,,,,,,,,,,,
,,,,,V1_010,19,F,2024-04-29_17h35.38.692,jersey_experiment_5_v1,2023.2.2,Win32,85.47008547,,,,,,,,,,,,,,,,622.9979,624.7969,624.7969,627.3619,return,1.6843,,25.91145833,,,,,,FBP-RB-71.png,0.35,1.2,46,1,,,,,,,,,,,,,0,13,13,45,1,,,,,,,,,,,,,,,,,,,,,,,,,,,,
,,,,,V1_010,19,F,2024-04-29_17h35.38.692,jersey_experiment_5_v1,2023.2.2,Win32,85.47008547,,,,,,,,,,,,,,,,627.3621,629.1573,629.1573,630.216,return,0.3671,,27.86458333,,,,,,FBP-OG-17.png,0.37,1.2,32,1,,,,,,,,,,,,,0,14,14,31,1,,,,,,,,,,,,,,,,,,,,,,,,,,,,
,,,,,V1_010,19,F,2024-04-29_17h35.38.692,jersey_experiment_5_v1,2023.2.2,Win32,85.47008547,,,,,,,,,,,,,,,,630.2163,632.0161,632.0161,633.8072,return,0.5521,,69.01041667,,,,,,FBP-OG-17.png,0.43,1.2,34,1,,,,,,,,,,,,,0,15,15,33,1,,,,,,,,,,,,,,,,,,,,,,,,,,,,
,,,,,V1_010,19,F,2024-04-29_17h35.38.692,jersey_experiment_5_v1,2023.2.2,Win32,85.47008547,,,,,,,,,,,,,,,,633.8073,635.6095,635.6095,636.5381,return,0.3901,,60.67708333,,,,,,FBP-OG-17.png,0.4,1.2,33,1,,,,,,,,,,,,,0,16,16,32,1,,,,,,,,,,,,,,,,,,,,,,,,,,,,
,,,,,V1_010,19,F,2024-04-29_17h35.38.692,jersey_experiment_5_v1,2023.2.2,Win32,85.47008547,,,,,,,,,,,,,,,,636.5383,638.3341,638.3341,639.381,return,0.4053,,79.296875,,,,,,FBP-RB-71.png,0.43,1.2,49,1,,,,,,,,,,,,,0,17,17,48,1,,,,,,,,,,,,,,,,,,,,,,,,,,,,
,,,,,V1_010,19,F,2024-04-29_17h35.38.692,jersey_experiment_5_v1,2023.2.2,Win32,85.47008547,,,,,,,,,,,,,,,,639.3812,640.679,640.6791,642.5264,return,0.3885,,37.5,,,,,,FBP-PT-81.png,0.35,1.2,6,0.5,,,,,,,,,,,,,0,18,18,5,1,,,,,,,,,,,,,,,,,,,,,,,,,,,,
,,,,,V1_010,19,F,2024-04-29_17h35.38.692,jersey_experiment_5_v1,2023.2.2,Win32,85.47008547,,,,,,,,,,,,,,,,642.5265,644.3271,644.3271,645.5606,return,0.5874,,74.86979167,,,,,,FBP-YG-17.png,0.45,1.2,20,1,,,,,,,,,,,,,0,19,19,19,1,,,,,,,,,,,,,,,,,,,,,,,,,,,,
,,,,,V1_010,19,F,2024-04-29_17h35.38.692,jersey_experiment_5_v1,2023.2.2,Win32,85.47008547,,,,,,,,,,,,,,,,645.5608,646.8673,646.8673,648.2191,return,0.3044,,77.734375,,,,,,FBP-PT-81.png,0.45,1.2,10,0.5,,,,,,,,,,,,,0,20,20,9,1,,,,,,,,,,,,,,,,,,,,,,,,,,,,
,,,,,V1_010,19,F,2024-04-29_17h35.38.692,jersey_experiment_5_v1,2023.2.2,Win32,85.47008547,,,,,,,,,,,,,,,,648.2193,650.0189,650.0189,650.9621,return,0.4118,,87.23958333,,,,,,FBP-RB-71.png,0.45,1.2,50,1,,,,,,,,,,,,,0,21,21,49,1,,,,,,,,,,,,,,,,,,,,,,,,,,,,
,,,,,V1_010,19,F,2024-04-29_17h35.38.692,jersey_experiment_5_v1,2023.2.2,Win32,85.47008547,,,,,,,,,,,,,,,,650.9623,652.2542,652.2543,653.464,return,0.3914,,84.24479167,,,,,,FBP-PT-81.png,0.43,1.2,9,0.5,,,,,,,,,,,,,0,22,22,8,1,,,,,,,,,,,,,,,,,,,,,,,,,,,,
,,,,,V1_010,19,F,2024-04-29_17h35.38.692,jersey_experiment_5_v1,2023.2.2,Win32,85.47008547,,,,,,,,,,,,,,,,653.4642,655.257,655.257,656.4447,return,0.3649,,17.05729167,,,,,,FBP-YG-17.png,0.35,1.2,16,1,,,,,,,,,,,,,0,23,23,15,1,,,,,,,,,,,,,,,,,,,,,,,,,,,,
,,,,,V1_010,19,F,2024-04-29_17h35.38.692,jersey_experiment_5_v1,2023.2.2,Win32,85.47008547,,,,,,,,,,,,,,,,656.4449,658.2453,658.2453,660.1348,return,1.2492,,81.25,,,,,,FBP-YG-19.png,0.45,1.2,30,1,,,,,,,,,,,,,0,24,24,29,1,,,,,,,,,,,,,,,,,,,,,,,,,,,,
,,,,,V1_010,19,F,2024-04-29_17h35.38.692,jersey_experiment_5_v1,2023.2.2,Win32,85.47008547,,,,,,,,,,,,,,,,660.135,661.4289,661.429,664.6762,return,1.028,,64.84375,,,,,,FBP-PT-71.png,0.4,1.2,3,0.5,,,,,,,,,,,,,0,25,25,2,1,,,,,,,,,,,,,,,,,,,,,,,,,,,,
,,,,,V1_010,19,F,2024-04-29_17h35.38.692,jersey_experiment_5_v1,2023.2.2,Win32,85.47008547,,,,,,,,,,,,,,,,664.6765,666.4691,666.4691,668.0999,return,0.8657,,78.38541667,,,,,,FBP-OG-17.png,0.45,1.2,35,1,,,,,,,,,,,,,0,26,26,34,1,,,,,,,,,,,,,,,,,,,,,,,,,,,,
,,,,,V1_010,19,F,2024-04-29_17h35.38.692,jersey_experiment_5_v1,2023.2.2,Win32,85.47008547,,,,,,,,,,,,,,,,668.1001,669.394,669.3941,671.8647,return,0.8133,,64.71354167,,,,,,FBP-PT-81.png,0.37,1.2,7,0.5,,,,,,,,,,,,,0,27,27,6,1,,,,,,,,,,,,,,,,,,,,,,,,,,,,
,,,,,V1_010,19,F,2024-04-29_17h35.38.692,jersey_experiment_5_v1,2023.2.2,Win32,85.47008547,,,,,,,,,,,,,,,,671.8649,673.1621,673.1621,674.5643,return,0.2958,,43.88020833,,,,,,FBP-PT-91.png,0.4,1.2,13,0.5,,,,,,,,,,,,,0,28,28,12,1,,,,,,,,,,,,,,,,,,,,,,,,,,,,
,,,,,V1_010,19,F,2024-04-29_17h35.38.692,jersey_experiment_5_v1,2023.2.2,Win32,85.47008547,,,,,,,,,,,,,,,,674.5644,676.3612,676.3612,677.7001,return,0.3594,,87.890625,,,,,,FBP-YG-18.png,0.45,1.2,25,1,,,,,,,,,,,,,0,29,29,24,1,,,,,,,,,,,,,,,,,,,,,,,,,,,,
,,,,,V1_010,19,F,2024-04-29_17h35.38.692,jersey_experiment_5_v1,2023.2.2,Win32,85.47008547,,,,,,,,,,,,,,,,677.7004,678.9994,678.9995,680.9027,return,0.7887,,40.75520833,,,,,,FBP-PT-91.png,0.35,1.2,11,0.5,,,,,,,,,,,,,0,30,30,10,1,,,,,,,,,,,,,,,,,,,,,,,,,,,,
,,,,,V1_010,19,F,2024-04-29_17h35.38.692,jersey_experiment_5_v1,2023.2.2,Win32,85.47008547,,,,,,,,,,,,,,,,680.9029,682.7004,682.7005,686.2573,return,0.3884,,44.53125,,,,,,FBP-RB-91.png,0.4,1.2,58,1,,,,,,,,,,,,,0,31,31,57,1,,,,,,,,,,,,,,,,,,,,,,,,,,,,
,,,,,V1_010,19,F,2024-04-29_17h35.38.692,jersey_experiment_5_v1,2023.2.2,Win32,85.47008547,,,,,,,,,,,,,,,,686.2575,688.0601,688.0601,688.8536,return,0.3695,,24.47916667,,,,,,FBP-YG-18.png,0.35,1.2,21,1,,,,,,,,,,,,,0,32,32,20,1,,,,,,,,,,,,,,,,,,,,,,,,,,,,
,,,,,V1_010,19,F,2024-04-29_17h35.38.692,jersey_experiment_5_v1,2023.2.2,Win32,85.47008547,,,,,,,,,,,,,,,,688.8539,690.1477,690.1477,691.4353,return,0.2953,,38.54166667,,,,,,FBP-PT-81.png,0.4,1.2,8,0.5,,,,,,,,,,,,,0,33,33,7,1,,,,,,,,,,,,,,,,,,,,,,,,,,,,
,,,,,V1_010,19,F,2024-04-29_17h35.38.692,jersey_experiment_5_v1,2023.2.2,Win32,85.47008547,,,,,,,,,,,,,,,,691.4355,693.2339,693.2339,694.5949,return,0.2898,,37.76041667,,,,,,FBP-YG-18.png,0.37,1.2,22,1,,,,,,,,,,,,,0,34,34,21,1,,,,,,,,,,,,,,,,,,,,,,,,,,,,
,,,,,V1_010,19,F,2024-04-29_17h35.38.692,jersey_experiment_5_v1,2023.2.2,Win32,85.47008547,,,,,,,,,,,,,,,,694.5951,696.3876,696.3876,697.2893,return,0.2951,,32.55208333,,,,,,FBP-RB-81.png,0.35,1.2,51,1,,,,,,,,,,,,,0,35,35,50,1,,,,,,,,,,,,,,,,,,,,,,,,,,,,
,,,,,V1_010,19,F,2024-04-29_17h35.38.692,jersey_experiment_5_v1,2023.2.2,Win32,85.47008547,,,,,,,,,,,,,,,,697.2895,699.0838,699.0838,700.6932,return,0.8487,,73.046875,,,,,,FBP-YG-18.png,0.43,1.2,24,1,,,,,,,,,,,,,0,36,36,23,1,,,,,,,,,,,,,,,,,,,,,,,,,,,,
,,,,,V1_010,19,F,2024-04-29_17h35.38.692,jersey_experiment_5_v1,2023.2.2,Win32,85.47008547,,,,,,,,,,,,,,,,700.6933,702.4943,702.4943,703.7012,return,0.2992,,32.29166667,,,,,,FBP-OG-19.png,0.37,1.2,42,1,,,,,,,,,,,,,0,37,37,41,1,,,,,,,,,,,,,,,,,,,,,,,,,,,,
,,,,,V1_010,19,F,2024-04-29_17h35.38.692,jersey_experiment_5_v1,2023.2.2,Win32,85.47008547,,,,,,,,,,,,,,,,703.7014,705.5014,705.5015,706.6334,return,0.3622,,50.390625,,,,,,FBP-OG-18.png,0.4,1.2,38,1,,,,,,,,,,,,,0,38,38,37,1,,,,,,,,,,,,,,,,,,,,,,,,,,,,
,,,,,V1_010,19,F,2024-04-29_17h35.38.692,jersey_experiment_5_v1,2023.2.2,Win32,85.47008547,,,,,,,,,,,,,,,,706.6335,708.4308,708.4308,709.4113,return,0.2826,,66.66666667,,,,,,FBP-RB-71.png,0.4,1.2,48,1,,,,,,,,,,,,,0,39,39,47,1,,,,,,,,,,,,,,,,,,,,,,,,,,,,
,,,,,V1_010,19,F,2024-04-29_17h35.38.692,jersey_experiment_5_v1,2023.2.2,Win32,85.47008547,,,,,,,,,,,,,,,,709.4115,711.2075,711.2075,712.6349,return,0.6469,,41.015625,,,,,,FBP-RB-81.png,0.37,1.2,52,1,,,,,,,,,,,,,0,40,40,51,1,,,,,,,,,,,,,,,,,,,,,,,,,,,,
,,,,,V1_010,19,F,2024-04-29_17h35.38.692,jersey_experiment_5_v1,2023.2.2,Win32,85.47008547,,,,,,,,,,,,,,,,712.635,714.4311,714.4311,715.6936,return,0.4822,,34.89583333,,,,,,FBP-YG-19.png,0.35,1.2,26,1,,,,,,,,,,,,,0,41,41,25,1,,,,,,,,,,,,,,,,,,,,,,,,,,,,
,,,,,V1_010,19,F,2024-04-29_17h35.38.692,jersey_experiment_5_v1,2023.2.2,Win32,85.47008547,,,,,,,,,,,,,,,,715.6938,716.9878,716.9878,720.4469,return,1.8239,,37.5,,,,,,FBP-PT-71.png,0.35,1.2,1,0.5,,,,,,,,,,,,,0,42,42,0,1,,,,,,,,,,,,,,,,,,,,,,,,,,,,
,,,,,V1_010,19,F,2024-04-29_17h35.38.692,jersey_experiment_5_v1,2023.2.2,Win32,85.47008547,,,,,,,,,,,,,,,,720.447,722.2461,722.2461,724.855,return,1.98,,65.36458333,,,,,,FBP-YG-18.png,0.4,1.2,23,1,,,,,,,,,,,,,0,43,43,22,1,,,,,,,,,,,,,,,,,,,,,,,,,,,,
,,,,,V1_010,19,F,2024-04-29_17h35.38.692,jersey_experiment_5_v1,2023.2.2,Win32,85.47008547,,,,,,,,,,,,,,,,724.8551,726.6471,726.6471,728.0666,return,0.3488,,43.359375,,,,,,FBP-OG-18.png,0.35,1.2,36,1,,,,,,,,,,,,,0,44,44,35,1,,,,,,,,,,,,,,,,,,,,,,,,,,,,
,,,,,V1_010,19,F,2024-04-29_17h35.38.692,jersey_experiment_5_v1,2023.2.2,Win32,85.47008547,,,,,,,,,,,,,,,,728.0669,729.8698,729.8698,730.8119,return,0.3646,,73.69791667,,,,,,FBP-YG-19.png,0.43,1.2,29,1,,,,,,,,,,,,,0,45,45,28,1,,,,,,,,,,,,,,,,,,,,,,,,,,,,
,,,,,V1_010,19,F,2024-04-29_17h35.38.692,jersey_experiment_5_v1,2023.2.2,Win32,85.47008547,,,,,,,,,,,,,,,,730.8121,732.6107,732.6107,734.4578,return,1.2459,,64.19270833,,,,,,FBP-YG-19.png,0.4,1.2,28,1,,,,,,,,,,,,,0,46,46,27,1,,,,,,,,,,,,,,,,,,,,,,,,,,,,
,,,,,V1_010,19,F,2024-04-29_17h35.38.692,jersey_experiment_5_v1,2023.2.2,Win32,85.47008547,,,,,,,,,,,,,,,,734.458,736.2501,736.2501,737.6082,return,0.555,,87.76041667,,,,,,FBP-OG-19.png,0.45,1.2,45,1,,,,,,,,,,,,,0,47,47,44,1,,,,,,,,,,,,,,,,,,,,,,,,,,,,
,,,,,V1_010,19,F,2024-04-29_17h35.38.692,jersey_experiment_5_v1,2023.2.2,Win32,85.47008547,,,,,,,,,,,,,,,,737.6084,739.4118,739.4118,740.1528,return,0.3655,,87.76041667,,,,,,FBP-OG-18.png,0.45,1.2,40,1,,,,,,,,,,,,,0,48,48,39,1,,,,,,,,,,,,,,,,,,,,,,,,,,,,
,,,,,V1_010,19,F,2024-04-29_17h35.38.692,jersey_experiment_5_v1,2023.2.2,Win32,85.47008547,,,,,,,,,,,,,,,,740.1529,741.4478,741.4478,742.5185,return,0.3419,,88.93229167,,,,,,FBP-PT-71.png,0.43,1.2,4,0.5,,,,,,,,,,,,,0,49,49,3,1,,,,,,,,,,,,,,,,,,,,,,,,,,,,
,,,,,V1_010,19,F,2024-04-29_17h35.38.692,jersey_experiment_5_v1,2023.2.2,Win32,85.47008547,,,,,,,,,,,,,,,,742.5189,744.3145,744.3145,745.1305,return,0.3782,,92.70833333,,,,,,FBP-RB-81.png,0.45,1.2,55,1,,,,,,,,,,,,,0,50,50,54,1,,,,,,,,,,,,,,,,,,,,,,,,,,,,
,,,,,V1_010,19,F,2024-04-29_17h35.38.692,jersey_experiment_5_v1,2023.2.2,Win32,85.47008547,,,,,,,,,,,,,,,,745.1306,746.9264,746.9264,748.5538,return,0.2809,,36.97916667,,,,,,FBP-OG-19.png,0.35,1.2,41,1,,,,,,,,,,,,,0,51,51,40,1,,,,,,,,,,,,,,,,,,,,,,,,,,,,
,,,,,V1_010,19,F,2024-04-29_17h35.38.692,jersey_experiment_5_v1,2023.2.2,Win32,85.47008547,,,,,,,,,,,,,,,,748.554,750.35,750.35,751.3854,return,0.3895,,45.44270833,,,,,,FBP-RB-71.png,0.37,1.2,47,1,,,,,,,,,,,,,0,52,52,46,1,,,,,,,,,,,,,,,,,,,,,,,,,,,,
,,,,,V1_010,19,F,2024-04-29_17h35.38.692,jersey_experiment_5_v1,2023.2.2,Win32,85.47008547,,,,,,,,,,,,,,,,751.3856,753.1891,753.1891,754.072,return,0.3531,,51.43229167,,,,,,FBP-OG-18.png,0.37,1.2,37,1,,,,,,,,,,,,,0,53,53,36,1,,,,,,,,,,,,,,,,,,,,,,,,,,,,
,,,,,V1_010,19,F,2024-04-29_17h35.38.692,jersey_experiment_5_v1,2023.2.2,Win32,85.47008547,,,,,,,,,,,,,,,,754.0722,755.3774,755.3774,756.3738,return,0.5119,,51.43229167,,,,,,FBP-PT-71.png,0.37,1.2,2,0.5,,,,,,,,,,,,,0,54,54,1,1,,,,,,,,,,,,,,,,,,,,,,,,,,,,
,,,,,V1_010,19,F,2024-04-29_17h35.38.692,jersey_experiment_5_v1,2023.2.2,Win32,85.47008547,,,,,,,,,,,,,,,,756.3741,757.672,757.6721,760.3898,return,1.7295,,82.03125,,,,,,FBP-PT-71.png,0.45,1.2,5,0.5,,,,,,,,,,,,,0,55,55,4,1,,,,,,,,,,,,,,,,,,,,,,,,,,,,
,,,,,V1_010,19,F,2024-04-29_17h35.38.692,jersey_experiment_5_v1,2023.2.2,Win32,85.47008547,,,,,,,,,,,,,,,,760.39,762.1945,762.1945,764.0917,return,1.4622,,73.69791667,,,,,,FBP-YG-17.png,0.4,1.2,18,1,,,,,,,,,,,,,0,56,56,17,1,,,,,,,,,,,,,,,,,,,,,,,,,,,,
,,,,,V1_010,19,F,2024-04-29_17h35.38.692,jersey_experiment_5_v1,2023.2.2,Win32,85.47008547,,,,,,,,,,,,,,,,764.092,765.3896,765.3896,768.025,return,1.3648,,86.45833333,,,,,,FBP-PT-91.png,0.43,1.2,14,0.5,,,,,,,,,,,,,0,57,57,13,1,,,,,,,,,,,,,,,,,,,,,,,,,,,,
,,,,,V1_010,19,F,2024-04-29_17h35.38.692,jersey_experiment_5_v1,2023.2.2,Win32,85.47008547,,,,,,,,,,,,,,,,768.0252,769.8233,769.8233,770.9625,return,0.5118,,81.11979167,,,,,,FBP-RB-81.png,0.43,1.2,54,1,,,,,,,,,,,,,0,58,58,53,1,,,,,,,,,,,,,,,,,,,,,,,,,,,,
,,,,,V1_010,19,F,2024-04-29_17h35.38.692,jersey_experiment_5_v1,2023.2.2,Win32,85.47008547,,,,,,,,,,,,,,,,770.9626,772.7665,772.7665,775.0332,return,0.5441,,67.70833333,,,,,,FBP-OG-19.png,0.43,1.2,44,1,,,,,,,,,,,,,0,59,59,43,1,,,,,,,,,,,,,,,,,,,,,,,,,,,,
,,,,,V1_010,19,F,2024-04-29_17h35.38.692,jersey_experiment_5_v1,2023.2.2,Win32,85.47008547,,,,,,,,,,,,,,,,775.0352,776.8333,776.8333,780.4688,return,2.2282,,52.86458333,,,,,,FBP-OG-71.png,0.4,1.2,33,1,,,,,,,,,,,,,,,,,,0,0,0,32,1,,,,,,,,,,,,,,,,,,,,,,,
,,,,,V1_010,19,F,2024-04-29_17h35.38.692,jersey_experiment_5_v1,2023.2.2,Win32,85.47008547,,,,,,,,,,,,,,,,780.4692,782.262,782.262,783.4454,return,0.7576,,41.27604167,,,,,,FBP-RB-18.png,0.37,1.2,52,1,,,,,,,,,,,,,,,,,,0,1,1,51,1,,,,,,,,,,,,,,,,,,,,,,,
,,,,,V1_010,19,F,2024-04-29_17h35.38.692,jersey_experiment_5_v1,2023.2.2,Win32,85.47008547,,,,,,,,,,,,,,,,783.4457,784.7395,784.7395,786.5631,return,0.7247,,70.44270833,,,,,,FBP-PT-17.png,0.43,1.2,4,0.5,,,,,,,,,,,,,,,,,,0,2,2,3,1,,,,,,,,,,,,,,,,,,,,,,,
,,,,,V1_010,19,F,2024-04-29_17h35.38.692,jersey_experiment_5_v1,2023.2.2,Win32,85.47008547,,,,,,,,,,,,,,,,786.5634,787.8573,787.8574,789.1198,return,0.3645,,68.09895833,,,,,,FBP-PT-19.png,0.4,1.2,13,0.5,,,,,,,,,,,,,,,,,,0,3,3,12,1,,,,,,,,,,,,,,,,,,,,,,,
,,,,,V1_010,19,F,2024-04-29_17h35.38.692,jersey_experiment_5_v1,2023.2.2,Win32,85.47008547,,,,,,,,,,,,,,,,789.12,790.9183,790.9183,792.3771,return,0.3527,,63.41145833,,,,,,FBP-YG-81.png,0.37,1.2,22,1,,,,,,,,,,,,,,,,,,0,4,4,21,1,,,,,,,,,,,,,,,,,,,,,,,
,,,,,V1_010,19,F,2024-04-29_17h35.38.692,jersey_experiment_5_v1,2023.2.2,Win32,85.47008547,,,,,,,,,,,,,,,,792.3773,794.178,794.1781,795.5282,return,0.2966,,78.77604167,,,,,,FBP-RB-17.png,0.4,1.2,48,1,,,,,,,,,,,,,,,,,,0,5,5,47,1,,,,,,,,,,,,,,,,,,,,,,,
,,,,,V1_010,19,F,2024-04-29_17h35.38.692,jersey_experiment_5_v1,2023.2.2,Win32,85.47008547,,,,,,,,,,,,,,,,795.5284,796.8224,796.8224,800.7201,return,3.0333,,63.93229167,,,,,,FBP-PT-18.png,0.37,1.2,7,0.5,,,,,,,,,,,,,,,,,,0,6,6,6,1,,,,,,,,,,,,,,,,,,,,,,,
,,,,,V1_010,19,F,2024-04-29_17h35.38.692,jersey_experiment_5_v1,2023.2.2,Win32,85.47008547,,,,,,,,,,,,,,,,800.7202,802.5217,802.5217,803.5444,return,0.3766,,86.58854167,,,,,,FBP-YG-91.png,0.43,1.2,29,1,,,,,,,,,,,,,,,,,,0,7,7,28,1,,,,,,,,,,,,,,,,,,,,,,,
,,,,,V1_010,19,F,2024-04-29_17h35.38.692,jersey_experiment_5_v1,2023.2.2,Win32,85.47008547,,,,,,,,,,,,,,,,803.5444,805.3402,805.3403,807.4933,return,0.7933,,50.26041667,,,,,,FBP-RB-17.png,0.37,1.2,47,1,,,,,,,,,,,,,,,,,,0,8,8,46,1,,,,,,,,,,,,,,,,,,,,,,,
,,,,,V1_010,19,F,2024-04-29_17h35.38.692,jersey_experiment_5_v1,2023.2.2,Win32,85.47008547,,,,,,,,,,,,,,,,807.4935,809.2861,809.2861,810.8976,return,0.3179,,81.11979167,,,,,,FBP-YG-71.png,0.43,1.2,19,1,,,,,,,,,,,,,,,,,,0,9,9,18,1,,,,,,,,,,,,,,,,,,,,,,,
,,,,,V1_010,19,F,2024-04-29_17h35.38.692,jersey_experiment_5_v1,2023.2.2,Win32,85.47008547,,,,,,,,,,,,,,,,810.8977,812.6957,812.6958,815.8702,return,1.2942,,50,,,,,,FBP-OG-71.png,0.35,1.2,31,1,,,,,,,,,,,,,,,,,,0,10,10,30,1,,,,,,,,,,,,,,,,,,,,,,,
,,,,,V1_010,19,F,2024-04-29_17h35.38.692,jersey_experiment_5_v1,2023.2.2,Win32,85.47008547,,,,,,,,,,,,,,,,815.8704,817.6622,817.6622,819.7099,return,1.177,,75.52083333,,,,,,FBP-OG-81.png,0.43,1.2,39,1,,,,,,,,,,,,,,,,,,0,11,11,38,1,,,,,,,,,,,,,,,,,,,,,,,
,,,,,V1_010,19,F,2024-04-29_17h35.38.692,jersey_experiment_5_v1,2023.2.2,Win32,85.47008547,,,,,,,,,,,,,,,,819.71,821.5058,821.5058,822.5175,return,0.405,,38.41145833,,,,,,FBP-YG-71.png,0.35,1.2,16,1,,,,,,,,,,,,,,,,,,0,12,12,15,1,,,,,,,,,,,,,,,,,,,,,,,
,,,,,V1_010,19,F,2024-04-29_17h35.38.692,jersey_experiment_5_v1,2023.2.2,Win32,85.47008547,,,,,,,,,,,,,,,,822.5177,824.3176,824.3176,826.6586,return,1.503,,41.66666667,,,,,,FBP-RB-17.png,0.35,1.2,46,1,,,,,,,,,,,,,,,,,,0,13,13,45,1,,,,,,,,,,,,,,,,,,,,,,,
,,,,,V1_010,19,F,2024-04-29_17h35.38.692,jersey_experiment_5_v1,2023.2.2,Win32,85.47008547,,,,,,,,,,,,,,,,826.6588,828.4609,828.4609,831.7688,return,2.2592,,85.28645833,,,,,,FBP-RB-19.png,0.43,1.2,59,1,,,,,,,,,,,,,,,,,,0,14,14,58,1,,,,,,,,,,,,,,,,,,,,,,,
,,,,,V1_010,19,F,2024-04-29_17h35.38.692,jersey_experiment_5_v1,2023.2.2,Win32,85.47008547,,,,,,,,,,,,,,,,831.7689,833.0646,833.0646,834.0356,return,0.407,,89.19270833,,,,,,FBP-PT-19.png,0.43,1.2,14,0.5,,,,,,,,,,,,,,,,,,0,15,15,13,1,,,,,,,,,,,,,,,,,,,,,,,
,,,,,V1_010,19,F,2024-04-29_17h35.38.692,jersey_experiment_5_v1,2023.2.2,Win32,85.47008547,,,,,,,,,,,,,,,,834.0358,835.332,835.332,836.8867,return,0.3412,,71.484375,,,,,,FBP-PT-17.png,0.37,1.2,2,0.5,,,,,,,,,,,,,,,,,,0,16,16,1,1,,,,,,,,,,,,,,,,,,,,,,,
,,,,,V1_010,19,F,2024-04-29_17h35.38.692,jersey_experiment_5_v1,2023.2.2,Win32,85.47008547,,,,,,,,,,,,,,,,836.8868,838.685,838.685,840.675,return,0.8582,,81.90104167,,,,,,FBP-YG-91.png,0.4,1.2,28,1,,,,,,,,,,,,,,,,,,0,17,17,27,1,,,,,,,,,,,,,,,,,,,,,,,
,,,,,V1_010,19,F,2024-04-29_17h35.38.692,jersey_experiment_5_v1,2023.2.2,Win32,85.47008547,,,,,,,,,,,,,,,,840.6752,842.4714,842.4714,843.2595,return,0.3518,,88.15104167,,,,,,FBP-RB-19.png,0.4,1.2,58,1,,,,,,,,,,,,,,,,,,0,18,18,57,1,,,,,,,,,,,,,,,,,,,,,,,
,,,,,V1_010,19,F,2024-04-29_17h35.38.692,jersey_experiment_5_v1,2023.2.2,Win32,85.47008547,,,,,,,,,,,,,,,,843.2597,844.5535,844.5535,846.3225,return,0.3298,,64.32291667,,,,,,FBP-PT-19.png,0.37,1.2,12,0.5,,,,,,,,,,,,,,,,,,0,19,19,11,1,,,,,,,,,,,,,,,,,,,,,,,
,,,,,V1_010,19,F,2024-04-29_17h35.38.692,jersey_experiment_5_v1,2023.2.2,Win32,85.47008547,,,,,,,,,,,,,,,,846.3226,848.1185,848.1185,849.2635,return,0.3411,,75,,,,,,FBP-YG-71.png,0.4,1.2,18,1,,,,,,,,,,,,,,,,,,0,20,20,17,1,,,,,,,,,,,,,,,,,,,,,,,
,,,,,V1_010,19,F,2024-04-29_17h35.38.692,jersey_experiment_5_v1,2023.2.2,Win32,85.47008547,,,,,,,,,,,,,,,,849.2637,851.062,851.062,852.0716,return,0.2851,,82.421875,,,,,,FBP-RB-18.png,0.43,1.2,54,1,,,,,,,,,,,,,,,,,,0,21,21,53,1,,,,,,,,,,,,,,,,,,,,,,,
,,,,,V1_010,19,F,2024-04-29_17h35.38.692,jersey_experiment_5_v1,2023.2.2,Win32,85.47008547,,,,,,,,,,,,,,,,852.0718,853.3694,853.3694,855.9109,return,1.8122,,88.54166667,,,,,,FBP-PT-18.png,0.43,1.2,9,0.5,,,,,,,,,,,,,,,,,,0,22,22,8,1,,,,,,,,,,,,,,,,,,,,,,,
,,,,,V1_010,19,F,2024-04-29_17h35.38.692,jersey_experiment_5_v1,2023.2.2,Win32,85.47008547,,,,,,,,,,,,,,,,855.9111,857.205,857.205,858.6481,return,0.3552,,78.64583333,,,,,,FBP-PT-17.png,0.4,1.2,3,0.5,,,,,,,,,,,,,,,,,,0,23,23,2,1,,,,,,,,,,,,,,,,,,,,,,,
,,,,,V1_010,19,F,2024-04-29_17h35.38.692,jersey_experiment_5_v1,2023.2.2,Win32,85.47008547,,,,,,,,,,,,,,,,858.6483,860.4415,860.4415,862.4837,return,0.9681,,42.578125,,,,,,FBP-RB-18.png,0.35,1.2,51,1,,,,,,,,,,,,,,,,,,0,24,24,50,1,,,,,,,,,,,,,,,,,,,,,,,
,,,,,V1_010,19,F,2024-04-29_17h35.38.692,jersey_experiment_5_v1,2023.2.2,Win32,85.47008547,,,,,,,,,,,,,,,,862.4838,864.2756,864.2756,865.513,return,0.3666,,49.08854167,,,,,,FBP-RB-19.png,0.37,1.2,57,1,,,,,,,,,,,,,,,,,,0,25,25,56,1,,,,,,,,,,,,,,,,,,,,,,,
,,,,,V1_010,19,F,2024-04-29_17h35.38.692,jersey_experiment_5_v1,2023.2.2,Win32,85.47008547,,,,,,,,,,,,,,,,865.5131,867.3074,867.3074,869.48,return,0.7566,,76.5625,,,,,,FBP-OG-91.png,0.43,1.2,44,1,,,,,,,,,,,,,,,,,,0,26,26,43,1,,,,,,,,,,,,,,,,,,,,,,,
,,,,,V1_010,19,F,2024-04-29_17h35.38.692,jersey_experiment_5_v1,2023.2.2,Win32,85.47008547,,,,,,,,,,,,,,,,869.4801,871.2767,871.2767,872.0723,return,0.3297,,86.19791667,,,,,,FBP-OG-71.png,0.45,1.2,35,1,,,,,,,,,,,,,,,,,,0,27,27,34,1,,,,,,,,,,,,,,,,,,,,,,,
,,,,,V1_010,19,F,2024-04-29_17h35.38.692,jersey_experiment_5_v1,2023.2.2,Win32,85.47008547,,,,,,,,,,,,,,,,872.0726,873.8767,873.8767,875.6427,return,0.3648,,33.46354167,,,,,,FBP-YG-91.png,0.37,1.2,27,1,,,,,,,,,,,,,,,,,,0,28,28,26,1,,,,,,,,,,,,,,,,,,,,,,,
,,,,,V1_010,19,F,2024-04-29_17h35.38.692,jersey_experiment_5_v1,2023.2.2,Win32,85.47008547,,,,,,,,,,,,,,,,875.6427,877.4372,877.4372,878.9944,return,0.3296,,49.08854167,,,,,,FBP-YG-71.png,0.37,1.2,17,1,,,,,,,,,,,,,,,,,,0,29,29,16,1,,,,,,,,,,,,,,,,,,,,,,,
,,,,,V1_010,19,F,2024-04-29_17h35.38.692,jersey_experiment_5_v1,2023.2.2,Win32,85.47008547,,,,,,,,,,,,,,,,878.9945,880.7904,880.7904,881.9589,return,0.5412,,67.83854167,,,,,,FBP-OG-81.png,0.37,1.2,37,1,,,,,,,,,,,,,,,,,,0,30,30,36,1,,,,,,,,,,,,,,,,,,,,,,,
,,,,,V1_010,19,F,2024-04-29_17h35.38.692,jersey_experiment_5_v1,2023.2.2,Win32,85.47008547,,,,,,,,,,,,,,,,881.959,883.7522,883.7523,884.661,return,0.3699,,82.16145833,,,,,,FBP-YG-81.png,0.43,1.2,24,1,,,,,,,,,,,,,,,,,,0,31,31,23,1,,,,,,,,,,,,,,,,,,,,,,,
,,,,,V1_010,19,F,2024-04-29_17h35.38.692,jersey_experiment_5_v1,2023.2.2,Win32,85.47008547,,,,,,,,,,,,,,,,884.6612,885.9589,885.959,887.6377,return,0.3105,,49.47916667,,,,,,FBP-PT-18.png,0.35,1.2,6,0.5,,,,,,,,,,,,,,,,,,0,32,32,5,1,,,,,,,,,,,,,,,,,,,,,,,
,,,,,V1_010,19,F,2024-04-29_17h35.38.692,jersey_experiment_5_v1,2023.2.2,Win32,85.47008547,,,,,,,,,,,,,,,,887.6379,889.4379,889.4379,890.7083,return,0.524,,89.32291667,,,,,,FBP-OG-81.png,0.45,1.2,40,1,,,,,,,,,,,,,,,,,,0,33,33,39,1,,,,,,,,,,,,,,,,,,,,,,,
,,,,,V1_010,19,F,2024-04-29_17h35.38.692,jersey_experiment_5_v1,2023.2.2,Win32,85.47008547,,,,,,,,,,,,,,,,890.7085,892.5121,892.5121,894.4538,return,0.3655,,36.71875,,,,,,FBP-YG-81.png,0.35,1.2,21,1,,,,,,,,,,,,,,,,,,0,34,34,20,1,,,,,,,,,,,,,,,,,,,,,,,
,,,,,V1_010,19,F,2024-04-29_17h35.38.692,jersey_experiment_5_v1,2023.2.2,Win32,85.47008547,,,,,,,,,,,,,,,,894.454,896.2495,896.2495,899.5792,return,2.2364,,77.47395833,,,,,,FBP-OG-71.png,0.43,1.2,34,1,,,,,,,,,,,,,,,,,,0,35,35,33,1,,,,,,,,,,,,,,,,,,,,,,,
,,,,,V1_010,19,F,2024-04-29_17h35.38.692,jersey_experiment_5_v1,2023.2.2,Win32,85.47008547,,,,,,,,,,,,,,,,899.5795,901.3716,901.3716,902.4773,return,0.3984,,74.47916667,,,,,,FBP-OG-81.png,0.4,1.2,38,1,,,,,,,,,,,,,,,,,,0,36,36,37,1,,,,,,,,,,,,,,,,,,,,,,,
,,,,,V1_010,19,F,2024-04-29_17h35.38.692,jersey_experiment_5_v1,2023.2.2,Win32,85.47008547,,,,,,,,,,,,,,,,902.4775,904.2777,904.2777,905.4304,return,0.3781,,49.47916667,,,,,,FBP-OG-91.png,0.35,1.2,41,1,,,,,,,,,,,,,,,,,,0,37,37,40,1,,,,,,,,,,,,,,,,,,,,,,,
,,,,,V1_010,19,F,2024-04-29_17h35.38.692,jersey_experiment_5_v1,2023.2.2,Win32,85.47008547,,,,,,,,,,,,,,,,905.4307,907.2265,907.2266,909.4071,return,0.4355,,54.03645833,,,,,,FBP-YG-81.png,0.4,1.2,23,1,,,,,,,,,,,,,,,,,,0,38,38,22,1,,,,,,,,,,,,,,,,,,,,,,,
,,,,,V1_010,19,F,2024-04-29_17h35.38.692,jersey_experiment_5_v1,2023.2.2,Win32,85.47008547,,,,,,,,,,,,,,,,909.4071,911.2032,911.2032,913.2322,return,1.1056,,80.20833333,,,,,,FBP-RB-17.png,0.43,1.2,49,1,,,,,,,,,,,,,,,,,,0,39,39,48,1,,,,,,,,,,,,,,,,,,,,,,,
,,,,,V1_010,19,F,2024-04-29_17h35.38.692,jersey_experiment_5_v1,2023.2.2,Win32,85.47008547,,,,,,,,,,,,,,,,913.2323,915.0321,915.0321,915.8033,return,0.3641,,88.54166667,,,,,,FBP-RB-18.png,0.45,1.2,55,1,,,,,,,,,,,,,,,,,,0,40,40,54,1,,,,,,,,,,,,,,,,,,,,,,,
,,,,,V1_010,19,F,2024-04-29_17h35.38.692,jersey_experiment_5_v1,2023.2.2,Win32,85.47008547,,,,,,,,,,,,,,,,915.8034,917.5969,917.5969,918.9254,return,0.3532,,25.26041667,,,,,,FBP-RB-19.png,0.35,1.2,56,1,,,,,,,,,,,,,,,,,,0,41,41,55,1,,,,,,,,,,,,,,,,,,,,,,,
,,,,,V1_010,19,F,2024-04-29_17h35.38.692,jersey_experiment_5_v1,2023.2.2,Win32,85.47008547,,,,,,,,,,,,,,,,918.9255,920.7261,920.7261,922.1003,return,0.4928,,75.390625,,,,,,FBP-RB-19.png,0.45,1.2,60,1,,,,,,,,,,,,,,,,,,0,42,42,59,1,,,,,,,,,,,,,,,,,,,,,,,
,,,,,V1_010,19,F,2024-04-29_17h35.38.692,jersey_experiment_5_v1,2023.2.2,Win32,85.47008547,,,,,,,,,,,,,,,,922.1004,923.9026,923.9026,925.7135,return,1.4722,,88.671875,,,,,,FBP-YG-91.png,0.45,1.2,30,1,,,,,,,,,,,,,,,,,,0,43,43,29,1,,,,,,,,,,,,,,,,,,,,,,,
,,,,,V1_010,19,F,2024-04-29_17h35.38.692,jersey_experiment_5_v1,2023.2.2,Win32,85.47008547,,,,,,,,,,,,,,,,925.7135,927.5137,927.5137,928.745,return,0.297,,88.671875,,,,,,FBP-RB-17.png,0.45,1.2,50,1,,,,,,,,,,,,,,,,,,0,44,44,49,1,,,,,,,,,,,,,,,,,,,,,,,
,,,,,V1_010,19,F,2024-04-29_17h35.38.692,jersey_experiment_5_v1,2023.2.2,Win32,85.47008547,,,,,,,,,,,,,,,,928.7453,930.0392,930.0393,931.2773,return,0.3063,,69.140625,,,,,,FBP-PT-18.png,0.4,1.2,8,0.5,,,,,,,,,,,,,,,,,,0,45,45,7,1,,,,,,,,,,,,,,,,,,,,,,,
,,,,,V1_010,19,F,2024-04-29_17h35.38.692,jersey_experiment_5_v1,2023.2.2,Win32,85.47008547,,,,,,,,,,,,,,,,931.2775,933.0746,933.0747,934.8865,return,0.2867,,22.00520833,,,,,,FBP-YG-91.png,0.35,1.2,26,1,,,,,,,,,,,,,,,,,,0,46,46,25,1,,,,,,,,,,,,,,,,,,,,,,,
,,,,,V1_010,19,F,2024-04-29_17h35.38.692,jersey_experiment_5_v1,2023.2.2,Win32,85.47008547,,,,,,,,,,,,,,,,934.8867,936.6788,936.6788,937.3807,return,0.2901,,20.96354167,,,,,,FBP-OG-91.png,0.37,1.2,42,1,,,,,,,,,,,,,,,,,,0,47,47,41,1,,,,,,,,,,,,,,,,,,,,,,,
,,,,,V1_010,19,F,2024-04-29_17h35.38.692,jersey_experiment_5_v1,2023.2.2,Win32,85.47008547,,,,,,,,,,,,,,,,937.3809,938.6747,938.6748,939.7337,return,0.3109,,19.921875,,,,,,FBP-PT-17.png,0.35,1.2,1,0.5,,,,,,,,,,,,,,,,,,0,48,48,0,1,,,,,,,,,,,,,,,,,,,,,,,
,,,,,V1_010,19,F,2024-04-29_17h35.38.692,jersey_experiment_5_v1,2023.2.2,Win32,85.47008547,,,,,,,,,,,,,,,,939.7338,941.5265,941.5266,942.3259,return,0.2726,,18.48958333,,,,,,FBP-OG-81.png,0.35,1.2,36,1,,,,,,,,,,,,,,,,,,0,49,49,35,1,,,,,,,,,,,,,,,,,,,,,,,
,,,,,V1_010,19,F,2024-04-29_17h35.38.692,jersey_experiment_5_v1,2023.2.2,Win32,85.47008547,,,,,,,,,,,,,,,,942.3261,944.1221,944.1221,944.8516,return,0.2674,,18.48958333,,,,,,FBP-OG-71.png,0.37,1.2,32,1,,,,,,,,,,,,,,,,,,0,50,50,31,1,,,,,,,,,,,,,,,,,,,,,,,
,,,,,V1_010,19,F,2024-04-29_17h35.38.692,jersey_experiment_5_v1,2023.2.2,Win32,85.47008547,,,,,,,,,,,,,,,,944.8518,946.6572,946.6572,951.0203,return,1.3639,,49.47916667,,,,,,FBP-RB-18.png,0.4,1.2,53,1,,,,,,,,,,,,,,,,,,0,51,51,52,1,,,,,,,,,,,,,,,,,,,,,,,
,,,,,V1_010,19,F,2024-04-29_17h35.38.692,jersey_experiment_5_v1,2023.2.2,Win32,85.47008547,,,,,,,,,,,,,,,,951.0204,952.3262,952.3262,954.1722,return,0.6105,,82.29166667,,,,,,FBP-PT-19.png,0.45,1.2,15,0.5,,,,,,,,,,,,,,,,,,0,52,52,14,1,,,,,,,,,,,,,,,,,,,,,,,
,,,,,V1_010,19,F,2024-04-29_17h35.38.692,jersey_experiment_5_v1,2023.2.2,Win32,85.47008547,,,,,,,,,,,,,,,,954.1724,955.9743,955.9743,956.8798,return,0.53,,87.36979167,,,,,,FBP-YG-81.png,0.45,1.2,25,1,,,,,,,,,,,,,,,,,,0,53,53,24,1,,,,,,,,,,,,,,,,,,,,,,,
,,,,,V1_010,19,F,2024-04-29_17h35.38.692,jersey_experiment_5_v1,2023.2.2,Win32,85.47008547,,,,,,,,,,,,,,,,956.8799,958.1838,958.1838,959.2313,return,0.4087,,91.53645833,,,,,,FBP-PT-17.png,0.45,1.2,5,0.5,,,,,,,,,,,,,,,,,,0,54,54,4,1,,,,,,,,,,,,,,,,,,,,,,,
,,,,,V1_010,19,F,2024-04-29_17h35.38.692,jersey_experiment_5_v1,2023.2.2,Win32,85.47008547,,,,,,,,,,,,,,,,959.2314,960.5267,960.5267,962.0193,return,0.3279,,25.26041667,,,,,,FBP-PT-19.png,0.35,1.2,11,0.5,,,,,,,,,,,,,,,,,,0,55,55,10,1,,,,,,,,,,,,,,,,,,,,,,,
,,,,,V1_010,19,F,2024-04-29_17h35.38.692,jersey_experiment_5_v1,2023.2.2,Win32,85.47008547,,,,,,,,,,,,,,,,962.0195,963.3152,963.3152,965.0209,return,0.3661,,83.203125,,,,,,FBP-PT-18.png,0.45,1.2,10,0.5,,,,,,,,,,,,,,,,,,0,56,56,9,1,,,,,,,,,,,,,,,,,,,,,,,
,,,,,V1_010,19,F,2024-04-29_17h35.38.692,jersey_experiment_5_v1,2023.2.2,Win32,85.47008547,,,,,,,,,,,,,,,,965.0211,966.8225,966.8225,967.5112,return,0.4025,,86.58854167,,,,,,FBP-YG-71.png,0.45,1.2,20,1,,,,,,,,,,,,,,,,,,0,57,57,19,1,,,,,,,,,,,,,,,,,,,,,,,
,,,,,V1_010,19,F,2024-04-29_17h35.38.692,jersey_experiment_5_v1,2023.2.2,Win32,85.47008547,,,,,,,,,,,,,,,,967.5115,969.3113,969.3113,970.2172,return,0.3778,,86.97916667,,,,,,FBP-OG-91.png,0.45,1.2,45,1,,,,,,,,,,,,,,,,,,0,58,58,44,1,,,,,,,,,,,,,,,,,,,,,,,
,,,,,V1_010,19,F,2024-04-29_17h35.38.692,jersey_experiment_5_v1,2023.2.2,Win32,85.47008547,,,,,,,,,,,,,,,,970.2175,972.0101,972.0101,972.9853,return,0.4589,,75,,,,,,FBP-OG-91.png,0.4,1.2,43,1,,,,,,,,,,,,,,,,,,0,59,59,42,1,,,,,,,,,,,,,,,,,,,,,,,
,,,,,V1_010,19,F,2024-04-29_17h35.38.692,jersey_experiment_5_v1,2023.2.2,Win32,85.47008547,,,,,,,,,,,,,,,,,,,,,,,,,,,,,,,,,,,,,,,,,,,,,,,,,,,,,,,,972.9856,978.798,return,5.7982,,,,,,,,,,,,,,,,,,,
,,,,,V1_010,19,F,2024-04-29_17h35.38.692,jersey_experiment_5_v1,2023.2.2,Win32,85.47008547,,,,,,,,,,,,,,,,,,,,,,,,,,,,,,,,,,,,,,,,,,,,,,,,,,,,,,,,,,,,,978.7981,983.3471,1,3.8063,return,0.7264,,,,,,,,,,,,
,,,,,V1_010,19,F,2024-04-29_17h35.38.692,jersey_experiment_5_v1,2023.2.2,Win32,85.47008547,,,,,,,,,,,,,,,,,,,,,,,,,,,,,,,,,,,,,,,,,,,,,,,,,,,,,,,,,,,,,,,,,,,,983.3473,1030.4136,racial / outfit color / number biasesI did not recognize any patterns.,right,38.5864,,,,,,
,,,,,V1_010,19,F,2024-04-29_17h35.38.692,jersey_experiment_5_v1,2023.2.2,Win32,85.47008547,,,,,,,,,,,,,,,,,,,,,,,,,,,,,,,,,,,,,,,,,,,,,,,,,,,,,,,,,,,,,,,,,,,,,,,,,,1030.4137,1034.0903,return,3.6592,