requirements.started,requirements.stopped,key_resp_3.keys,key_resp_3.rt,key_resp_3.duration,Subject ID,Age,Gender,date,expName,psychopyVersion,OS,frameRate,instructions1.started,instructions1.stopped,key_resp.keys,key_resp.rt,key_resp.duration,example.started,example.stopped,enter_2.keys,enter_2.rt,enter_2.duration,instructions2.started,instructions2.stopped,enter_3.keys,enter_3.rt,enter_3.duration,image.started,image.stopped,slider_2.started,slider_2.stopped,next.keys,next.rt,next.duration,slider.response,trial_block_1.thisRepN,trial_block_1.thisTrialN,trial_block_1.thisN,trial_block_1.thisIndex,trial_block_1.ran,Path,Width,Height,Index,Duration,trial_block_2.thisRepN,trial_block_2.thisTrialN,trial_block_2.thisN,trial_block_2.thisIndex,trial_block_2.ran,rest_break.started,rest_break.stopped,end_break.started,end_break.stopped,key_resp_5.keys,key_resp_5.rt,key_resp_5.duration,trial_block_3.thisRepN,trial_block_3.thisTrialN,trial_block_3.thisN,trial_block_3.thisIndex,trial_block_3.ran,trial_block_4.thisRepN,trial_block_4.thisTrialN,trial_block_4.thisN,trial_block_4.thisIndex,trial_block_4.ran,questions_intro.started,questions_intro.stopped,enter_12.keys,enter_12.rt,enter_12.duration,question2.started,question2.stopped,question_doingbest.response,question_doingbest.rt,enter_15.keys,enter_15.rt,enter_15.duration,pattern.started,pattern.stopped,pattern_2.text,enter_17.keys,enter_17.rt,enter_17.duration,thankyou.started,thankyou.stopped,enter_14.keys,enter_14.rt,enter_14.duration
0.0001,7.917,return,7.9104,,V1_021,21,Female,2024-05-16_17h12.01.051,jersey_experiment_5_v1,2023.2.2,Win32,85.47008547,,,,,,,,,,,,,,,,,,,,,,,,,,,,,,,,,,,,,,,,,,,,,,,,,,,,,,,,,,,,,,,,,,,,,,,,,,,,,,
,,,,,V1_021,21,Female,2024-05-16_17h12.01.051,jersey_experiment_5_v1,2023.2.2,Win32,85.47008547,7.9171,18.4467,return,10.518,,,,,,,,,,,,,,,,,,,,,,,,,,,,,,,,,,,,,,,,,,,,,,,,,,,,,,,,,,,,,,,,,,,,,,,,,,
,,,,,V1_021,21,Female,2024-05-16_17h12.01.051,jersey_experiment_5_v1,2023.2.2,Win32,85.47008547,,,,,,18.4469,22.8115,return,4.3368,,,,,,,,,,,,,,,,,,,,,,,,,,,,,,,,,,,,,,,,,,,,,,,,,,,,,,,,,,,,,,,,,,,,,
,,,,,V1_021,21,Female,2024-05-16_17h12.01.051,jersey_experiment_5_v1,2023.2.2,Win32,85.47008547,,,,,,,,,,,22.8116,40.6827,return,17.8626,,,,,,,,,,,,,,,,,,,,,,,,,,,,,,,,,,,,,,,,,,,,,,,,,,,,,,,,,,,,,,,,
,,,,,V1_021,21,Female,2024-05-16_17h12.01.051,jersey_experiment_5_v1,2023.2.2,Win32,85.47008547,,,,,,,,,,,,,,,,40.6899,42.4827,42.4828,47.0005,return,1.7828,,74.47916667,0,0,0,8,1,FBP-PT-81.png,0.43,1.2,9,1,,,,,,,,,,,,,,,,,,,,,,,,,,,,,,,,,,,,,,,,,,,,,
,,,,,V1_021,21,Female,2024-05-16_17h12.01.051,jersey_experiment_5_v1,2023.2.2,Win32,85.47008547,,,,,,,,,,,,,,,,47.0009,48.8004,48.8004,51.1655,return,0.5081,,73.828125,0,1,1,7,1,FBP-PT-81.png,0.4,1.2,8,1,,,,,,,,,,,,,,,,,,,,,,,,,,,,,,,,,,,,,,,,,,,,,
,,,,,V1_021,21,Female,2024-05-16_17h12.01.051,jersey_experiment_5_v1,2023.2.2,Win32,85.47008547,,,,,,,,,,,,,,,,51.1658,52.4594,52.4594,53.8478,return,0.1939,,75,0,2,2,33,1,FBP-OG-17.png,0.43,1.2,34,0.5,,,,,,,,,,,,,,,,,,,,,,,,,,,,,,,,,,,,,,,,,,,,,
,,,,,V1_021,21,Female,2024-05-16_17h12.01.051,jersey_experiment_5_v1,2023.2.2,Win32,85.47008547,,,,,,,,,,,,,,,,53.848,55.1419,55.1419,55.9771,return,0.1703,,74.86979167,0,3,3,36,1,FBP-OG-18.png,0.37,1.2,37,0.5,,,,,,,,,,,,,,,,,,,,,,,,,,,,,,,,,,,,,,,,,,,,,
,,,,,V1_021,21,Female,2024-05-16_17h12.01.051,jersey_experiment_5_v1,2023.2.2,Win32,85.47008547,,,,,,,,,,,,,,,,55.9772,57.2714,57.2714,58.0597,return,0.1795,,74.86979167,0,4,4,48,1,FBP-RB-71.png,0.43,1.2,49,0.5,,,,,,,,,,,,,,,,,,,,,,,,,,,,,,,,,,,,,,,,,,,,,
,,,,,V1_021,21,Female,2024-05-16_17h12.01.051,jersey_experiment_5_v1,2023.2.2,Win32,85.47008547,,,,,,,,,,,,,,,,58.06,59.3537,59.3537,60.9186,return,0.16,,24.34895833,0,5,5,25,1,FBP-YG-19.png,0.35,1.2,26,0.5,,,,,,,,,,,,,,,,,,,,,,,,,,,,,,,,,,,,,,,,,,,,,
,,,,,V1_021,21,Female,2024-05-16_17h12.01.051,jersey_experiment_5_v1,2023.2.2,Win32,85.47008547,,,,,,,,,,,,,,,,60.9188,62.7187,62.7188,64.6247,return,0.1648,,99.609375,0,6,6,4,1,FBP-PT-71.png,0.45,1.2,5,1,,,,,,,,,,,,,,,,,,,,,,,,,,,,,,,,,,,,,,,,,,,,,
,,,,,V1_021,21,Female,2024-05-16_17h12.01.051,jersey_experiment_5_v1,2023.2.2,Win32,85.47008547,,,,,,,,,,,,,,,,64.6249,65.9189,65.9189,67.1304,return,0.1792,,99.86979167,0,7,7,24,1,FBP-YG-18.png,0.45,1.2,25,0.5,,,,,,,,,,,,,,,,,,,,,,,,,,,,,,,,,,,,,,,,,,,,,
,,,,,V1_021,21,Female,2024-05-16_17h12.01.051,jersey_experiment_5_v1,2023.2.2,Win32,85.47008547,,,,,,,,,,,,,,,,67.1306,68.4247,68.4247,69.8365,return,0.1902,,99.21875,0,8,8,22,1,FBP-YG-18.png,0.4,1.2,23,0.5,,,,,,,,,,,,,,,,,,,,,,,,,,,,,,,,,,,,,,,,,,,,,
,,,,,V1_021,21,Female,2024-05-16_17h12.01.051,jersey_experiment_5_v1,2023.2.2,Win32,85.47008547,,,,,,,,,,,,,,,,69.8368,71.1307,71.1308,72.9189,return,0.4417,,49.34895833,0,9,9,26,1,FBP-YG-19.png,0.37,1.2,27,0.5,,,,,,,,,,,,,,,,,,,,,,,,,,,,,,,,,,,,,,,,,,,,,
,,,,,V1_021,21,Female,2024-05-16_17h12.01.051,jersey_experiment_5_v1,2023.2.2,Win32,85.47008547,,,,,,,,,,,,,,,,72.9191,74.2131,74.2131,75.4957,return,0.1594,,74.08854167,0,10,10,28,1,FBP-YG-19.png,0.43,1.2,29,0.5,,,,,,,,,,,,,,,,,,,,,,,,,,,,,,,,,,,,,,,,,,,,,
,,,,,V1_021,21,Female,2024-05-16_17h12.01.051,jersey_experiment_5_v1,2023.2.2,Win32,85.47008547,,,,,,,,,,,,,,,,75.4958,76.7898,76.7898,78.1075,return,0.1902,,25.13020833,0,11,11,55,1,FBP-RB-91.png,0.35,1.2,56,0.5,,,,,,,,,,,,,,,,,,,,,,,,,,,,,,,,,,,,,,,,,,,,,
,,,,,V1_021,21,Female,2024-05-16_17h12.01.051,jersey_experiment_5_v1,2023.2.2,Win32,85.47008547,,,,,,,,,,,,,,,,78.1076,79.9075,79.9075,81.0252,return,0.1407,,99.86979167,0,12,12,13,1,FBP-PT-91.png,0.43,1.2,14,1,,,,,,,,,,,,,,,,,,,,,,,,,,,,,,,,,,,,,,,,,,,,,
,,,,,V1_021,21,Female,2024-05-16_17h12.01.051,jersey_experiment_5_v1,2023.2.2,Win32,85.47008547,,,,,,,,,,,,,,,,81.0254,82.3195,82.3195,83.2252,return,0.1695,,99.73958333,0,13,13,29,1,FBP-YG-19.png,0.45,1.2,30,0.5,,,,,,,,,,,,,,,,,,,,,,,,,,,,,,,,,,,,,,,,,,,,,
,,,,,V1_021,21,Female,2024-05-16_17h12.01.051,jersey_experiment_5_v1,2023.2.2,Win32,85.47008547,,,,,,,,,,,,,,,,83.2254,85.0255,85.0255,88.0492,return,0.34,,0.520833333,0,14,14,5,1,FBP-PT-81.png,0.35,1.2,6,1,,,,,,,,,,,,,,,,,,,,,,,,,,,,,,,,,,,,,,,,,,,,,
,,,,,V1_021,21,Female,2024-05-16_17h12.01.051,jersey_experiment_5_v1,2023.2.2,Win32,85.47008547,,,,,,,,,,,,,,,,88.0494,89.8492,89.8493,90.9666,return,0.16,,75,0,15,15,2,1,FBP-PT-71.png,0.4,1.2,3,1,,,,,,,,,,,,,,,,,,,,,,,,,,,,,,,,,,,,,,,,,,,,,
,,,,,V1_021,21,Female,2024-05-16_17h12.01.051,jersey_experiment_5_v1,2023.2.2,Win32,85.47008547,,,,,,,,,,,,,,,,90.9668,92.2609,92.2609,93.261,return,0.1783,,74.86979167,0,16,16,37,1,FBP-OG-18.png,0.4,1.2,38,0.5,,,,,,,,,,,,,,,,,,,,,,,,,,,,,,,,,,,,,,,,,,,,,
,,,,,V1_021,21,Female,2024-05-16_17h12.01.051,jersey_experiment_5_v1,2023.2.2,Win32,85.47008547,,,,,,,,,,,,,,,,93.2612,94.5551,94.5551,95.9434,return,0.1842,,75.52083333,0,17,17,47,1,FBP-RB-71.png,0.4,1.2,48,0.5,,,,,,,,,,,,,,,,,,,,,,,,,,,,,,,,,,,,,,,,,,,,,
,,,,,V1_021,21,Female,2024-05-16_17h12.01.051,jersey_experiment_5_v1,2023.2.2,Win32,85.47008547,,,,,,,,,,,,,,,,95.9437,97.2377,97.2377,97.8966,return,0.1452,,75.52083333,0,18,18,31,1,FBP-OG-17.png,0.37,1.2,32,0.5,,,,,,,,,,,,,,,,,,,,,,,,,,,,,,,,,,,,,,,,,,,,,
,,,,,V1_021,21,Female,2024-05-16_17h12.01.051,jersey_experiment_5_v1,2023.2.2,Win32,85.47008547,,,,,,,,,,,,,,,,97.8969,99.1905,99.1906,100.4259,return,0.123,,99.86979167,0,19,19,39,1,FBP-OG-18.png,0.45,1.2,40,0.5,,,,,,,,,,,,,,,,,,,,,,,,,,,,,,,,,,,,,,,,,,,,,
,,,,,V1_021,21,Female,2024-05-16_17h12.01.051,jersey_experiment_5_v1,2023.2.2,Win32,85.47008547,,,,,,,,,,,,,,,,100.4261,101.7202,101.7202,102.5084,return,0.1893,,99.86979167,0,20,20,58,1,FBP-RB-91.png,0.43,1.2,59,0.5,,,,,,,,,,,,,,,,,,,,,,,,,,,,,,,,,,,,,,,,,,,,,
,,,,,V1_021,21,Female,2024-05-16_17h12.01.051,jersey_experiment_5_v1,2023.2.2,Win32,85.47008547,,,,,,,,,,,,,,,,102.5086,103.8026,103.8026,105.1201,return,0.2122,,24.609375,0,21,21,20,1,FBP-YG-18.png,0.35,1.2,21,0.5,,,,,,,,,,,,,,,,,,,,,,,,,,,,,,,,,,,,,,,,,,,,,
,,,,,V1_021,21,Female,2024-05-16_17h12.01.051,jersey_experiment_5_v1,2023.2.2,Win32,85.47008547,,,,,,,,,,,,,,,,105.1203,106.9204,106.9205,107.7673,return,0.1346,,75.26041667,0,22,22,3,1,FBP-PT-71.png,0.43,1.2,4,1,,,,,,,,,,,,,,,,,,,,,,,,,,,,,,,,,,,,,,,,,,,,,
,,,,,V1_021,21,Female,2024-05-16_17h12.01.051,jersey_experiment_5_v1,2023.2.2,Win32,85.47008547,,,,,,,,,,,,,,,,107.7675,109.0616,109.0616,109.6732,return,0.1231,,73.56770833,0,23,23,27,1,FBP-YG-19.png,0.4,1.2,28,0.5,,,,,,,,,,,,,,,,,,,,,,,,,,,,,,,,,,,,,,,,,,,,,
,,,,,V1_021,21,Female,2024-05-16_17h12.01.051,jersey_experiment_5_v1,2023.2.2,Win32,85.47008547,,,,,,,,,,,,,,,,109.6735,110.9673,110.9673,111.6146,return,0.0942,,73.56770833,0,24,24,42,1,FBP-OG-19.png,0.4,1.2,43,0.5,,,,,,,,,,,,,,,,,,,,,,,,,,,,,,,,,,,,,,,,,,,,,
,,,,,V1_021,21,Female,2024-05-16_17h12.01.051,jersey_experiment_5_v1,2023.2.2,Win32,85.47008547,,,,,,,,,,,,,,,,111.6148,112.9087,112.9087,114.4263,return,0.0986,,99.47916667,0,25,25,53,1,FBP-RB-81.png,0.43,1.2,54,0.5,,,,,,,,,,,,,,,,,,,,,,,,,,,,,,,,,,,,,,,,,,,,,
,,,,,V1_021,21,Female,2024-05-16_17h12.01.051,jersey_experiment_5_v1,2023.2.2,Win32,85.47008547,,,,,,,,,,,,,,,,114.4266,115.7205,115.7206,117.7207,return,0.9708,,48.95833333,0,26,26,51,1,FBP-RB-81.png,0.37,1.2,52,0.5,,,,,,,,,,,,,,,,,,,,,,,,,,,,,,,,,,,,,,,,,,,,,
,,,,,V1_021,21,Female,2024-05-16_17h12.01.051,jersey_experiment_5_v1,2023.2.2,Win32,85.47008547,,,,,,,,,,,,,,,,117.7209,119.5207,119.5208,120.1091,return,0.1885,,49.47916667,0,27,27,11,1,FBP-PT-91.png,0.37,1.2,12,1,,,,,,,,,,,,,,,,,,,,,,,,,,,,,,,,,,,,,,,,,,,,,
,,,,,V1_021,21,Female,2024-05-16_17h12.01.051,jersey_experiment_5_v1,2023.2.2,Win32,85.47008547,,,,,,,,,,,,,,,,120.1093,121.4031,121.4031,123.2151,return,0.1311,,99.34895833,0,28,28,19,1,FBP-YG-17.png,0.45,1.2,20,0.5,,,,,,,,,,,,,,,,,,,,,,,,,,,,,,,,,,,,,,,,,,,,,
,,,,,V1_021,21,Female,2024-05-16_17h12.01.051,jersey_experiment_5_v1,2023.2.2,Win32,85.47008547,,,,,,,,,,,,,,,,123.2154,124.5092,124.5092,125.5445,return,0.112,,24.34895833,0,29,29,35,1,FBP-OG-18.png,0.35,1.2,36,0.5,,,,,,,,,,,,,,,,,,,,,,,,,,,,,,,,,,,,,,,,,,,,,
,,,,,V1_021,21,Female,2024-05-16_17h12.01.051,jersey_experiment_5_v1,2023.2.2,Win32,85.47008547,,,,,,,,,,,,,,,,125.5447,127.3445,127.3446,127.9328,return,0.1292,,24.34895833,0,30,30,1,1,FBP-PT-71.png,0.37,1.2,2,1,,,,,,,,,,,,,,,,,,,,,,,,,,,,,,,,,,,,,,,,,,,,,
,,,,,V1_021,21,Female,2024-05-16_17h12.01.051,jersey_experiment_5_v1,2023.2.2,Win32,85.47008547,,,,,,,,,,,,,,,,127.933,129.2269,129.2269,130.3799,return,0.1206,,75.390625,0,31,31,43,1,FBP-OG-19.png,0.43,1.2,44,0.5,,,,,,,,,,,,,,,,,,,,,,,,,,,,,,,,,,,,,,,,,,,,,
,,,,,V1_021,21,Female,2024-05-16_17h12.01.051,jersey_experiment_5_v1,2023.2.2,Win32,85.47008547,,,,,,,,,,,,,,,,130.3802,131.6741,131.6741,133.3565,return,0.2027,,99.34895833,0,32,32,44,1,FBP-OG-19.png,0.45,1.2,45,0.5,,,,,,,,,,,,,,,,,,,,,,,,,,,,,,,,,,,,,,,,,,,,,
,,,,,V1_021,21,Female,2024-05-16_17h12.01.051,jersey_experiment_5_v1,2023.2.2,Win32,85.47008547,,,,,,,,,,,,,,,,133.3568,134.6509,134.6509,135.6624,return,0.1414,,24.34895833,0,33,33,15,1,FBP-YG-17.png,0.35,1.2,16,0.5,,,,,,,,,,,,,,,,,,,,,,,,,,,,,,,,,,,,,,,,,,,,,
,,,,,V1_021,21,Female,2024-05-16_17h12.01.051,jersey_experiment_5_v1,2023.2.2,Win32,85.47008547,,,,,,,,,,,,,,,,135.6626,136.9567,136.9567,137.9921,return,0.1367,,74.47916667,0,34,34,17,1,FBP-YG-17.png,0.4,1.2,18,0.5,,,,,,,,,,,,,,,,,,,,,,,,,,,,,,,,,,,,,,,,,,,,,
,,,,,V1_021,21,Female,2024-05-16_17h12.01.051,jersey_experiment_5_v1,2023.2.2,Win32,85.47008547,,,,,,,,,,,,,,,,137.9923,139.2862,139.2862,139.8157,return,0.1014,,74.47916667,0,35,35,57,1,FBP-RB-91.png,0.4,1.2,58,0.5,,,,,,,,,,,,,,,,,,,,,,,,,,,,,,,,,,,,,,,,,,,,,
,,,,,V1_021,21,Female,2024-05-16_17h12.01.051,jersey_experiment_5_v1,2023.2.2,Win32,85.47008547,,,,,,,,,,,,,,,,139.8159,141.6157,141.6157,142.2863,return,0.0812,,99.34895833,0,36,36,9,1,FBP-PT-81.png,0.45,1.2,10,1,,,,,,,,,,,,,,,,,,,,,,,,,,,,,,,,,,,,,,,,,,,,,
,,,,,V1_021,21,Female,2024-05-16_17h12.01.051,jersey_experiment_5_v1,2023.2.2,Win32,85.47008547,,,,,,,,,,,,,,,,142.2865,143.5804,143.5804,144.1098,return,0.0943,,99.08854167,0,37,37,23,1,FBP-YG-18.png,0.43,1.2,24,0.5,,,,,,,,,,,,,,,,,,,,,,,,,,,,,,,,,,,,,,,,,,,,,
,,,,,V1_021,21,Female,2024-05-16_17h12.01.051,jersey_experiment_5_v1,2023.2.2,Win32,85.47008547,,,,,,,,,,,,,,,,144.11,145.404,145.4041,145.9805,return,0.1438,,99.08854167,0,38,38,59,1,FBP-RB-91.png,0.45,1.2,60,0.5,,,,,,,,,,,,,,,,,,,,,,,,,,,,,,,,,,,,,,,,,,,,,
,,,,,V1_021,21,Female,2024-05-16_17h12.01.051,jersey_experiment_5_v1,2023.2.2,Win32,85.47008547,,,,,,,,,,,,,,,,145.9806,147.2746,147.2747,148.2042,return,0.179,,75.26041667,0,39,39,52,1,FBP-RB-81.png,0.4,1.2,53,0.5,,,,,,,,,,,,,,,,,,,,,,,,,,,,,,,,,,,,,,,,,,,,,
,,,,,V1_021,21,Female,2024-05-16_17h12.01.051,jersey_experiment_5_v1,2023.2.2,Win32,85.47008547,,,,,,,,,,,,,,,,148.2044,149.4982,149.4982,151.0513,return,1.1794,,23.828125,0,40,40,46,1,FBP-RB-71.png,0.37,1.2,47,0.5,,,,,,,,,,,,,,,,,,,,,,,,,,,,,,,,,,,,,,,,,,,,,
,,,,,V1_021,21,Female,2024-05-16_17h12.01.051,jersey_experiment_5_v1,2023.2.2,Win32,85.47008547,,,,,,,,,,,,,,,,151.0515,152.3454,152.3454,152.8632,return,0.1178,,23.828125,0,41,41,30,1,FBP-OG-17.png,0.35,1.2,31,0.5,,,,,,,,,,,,,,,,,,,,,,,,,,,,,,,,,,,,,,,,,,,,,
,,,,,V1_021,21,Female,2024-05-16_17h12.01.051,jersey_experiment_5_v1,2023.2.2,Win32,85.47008547,,,,,,,,,,,,,,,,152.8634,154.663,154.663,155.1809,return,0.1064,,23.828125,0,42,42,6,1,FBP-PT-81.png,0.37,1.2,7,1,,,,,,,,,,,,,,,,,,,,,,,,,,,,,,,,,,,,,,,,,,,,,
,,,,,V1_021,21,Female,2024-05-16_17h12.01.051,jersey_experiment_5_v1,2023.2.2,Win32,85.47008547,,,,,,,,,,,,,,,,155.1811,156.475,156.475,158.9575,return,0.2263,,0.260416667,0,43,43,40,1,FBP-OG-19.png,0.35,1.2,41,0.5,,,,,,,,,,,,,,,,,,,,,,,,,,,,,,,,,,,,,,,,,,,,,
,,,,,V1_021,21,Female,2024-05-16_17h12.01.051,jersey_experiment_5_v1,2023.2.2,Win32,85.47008547,,,,,,,,,,,,,,,,158.9578,160.2519,160.2519,162.04,return,0.1831,,49.73958333,0,44,44,32,1,FBP-OG-17.png,0.4,1.2,33,0.5,,,,,,,,,,,,,,,,,,,,,,,,,,,,,,,,,,,,,,,,,,,,,
,,,,,V1_021,21,Female,2024-05-16_17h12.01.051,jersey_experiment_5_v1,2023.2.2,Win32,85.47008547,,,,,,,,,,,,,,,,162.0402,163.3341,163.3341,164.287,return,0.1174,,74.73958333,0,45,45,38,1,FBP-OG-18.png,0.43,1.2,39,0.5,,,,,,,,,,,,,,,,,,,,,,,,,,,,,,,,,,,,,,,,,,,,,
,,,,,V1_021,21,Female,2024-05-16_17h12.01.051,jersey_experiment_5_v1,2023.2.2,Win32,85.47008547,,,,,,,,,,,,,,,,164.2873,165.5813,165.5814,166.8755,return,0.1209,,99.47916667,0,46,46,49,1,FBP-RB-71.png,0.45,1.2,50,0.5,,,,,,,,,,,,,,,,,,,,,,,,,,,,,,,,,,,,,,,,,,,,,
,,,,,V1_021,21,Female,2024-05-16_17h12.01.051,jersey_experiment_5_v1,2023.2.2,Win32,85.47008547,,,,,,,,,,,,,,,,166.8758,168.1696,168.1696,169.9931,return,0.1444,,24.47916667,0,47,47,21,1,FBP-YG-18.png,0.37,1.2,22,0.5,,,,,,,,,,,,,,,,,,,,,,,,,,,,,,,,,,,,,,,,,,,,,
,,,,,V1_021,21,Female,2024-05-16_17h12.01.051,jersey_experiment_5_v1,2023.2.2,Win32,85.47008547,,,,,,,,,,,,,,,,169.9934,171.7933,171.7933,172.3345,return,0.1415,,24.609375,0,48,48,10,1,FBP-PT-91.png,0.35,1.2,11,1,,,,,,,,,,,,,,,,,,,,,,,,,,,,,,,,,,,,,,,,,,,,,
,,,,,V1_021,21,Female,2024-05-16_17h12.01.051,jersey_experiment_5_v1,2023.2.2,Win32,85.47008547,,,,,,,,,,,,,,,,172.3347,173.6285,173.6285,175.0051,return,0.1311,,49.21875,0,49,49,41,1,FBP-OG-19.png,0.37,1.2,42,0.5,,,,,,,,,,,,,,,,,,,,,,,,,,,,,,,,,,,,,,,,,,,,,
,,,,,V1_021,21,Female,2024-05-16_17h12.01.051,jersey_experiment_5_v1,2023.2.2,Win32,85.47008547,,,,,,,,,,,,,,,,175.0053,176.2995,176.2995,177.311,return,0.1649,,99.73958333,0,50,50,54,1,FBP-RB-81.png,0.45,1.2,55,0.5,,,,,,,,,,,,,,,,,,,,,,,,,,,,,,,,,,,,,,,,,,,,,
,,,,,V1_021,21,Female,2024-05-16_17h12.01.051,jersey_experiment_5_v1,2023.2.2,Win32,85.47008547,,,,,,,,,,,,,,,,177.3114,179.1113,179.1113,179.8994,return,0.1192,,99.21875,0,51,51,12,1,FBP-PT-91.png,0.4,1.2,13,1,,,,,,,,,,,,,,,,,,,,,,,,,,,,,,,,,,,,,,,,,,,,,
,,,,,V1_021,21,Female,2024-05-16_17h12.01.051,jersey_experiment_5_v1,2023.2.2,Win32,85.47008547,,,,,,,,,,,,,,,,179.8997,181.1937,181.1937,182.3936,return,0.0508,,74.609375,0,52,52,56,1,FBP-RB-91.png,0.37,1.2,57,0.5,,,,,,,,,,,,,,,,,,,,,,,,,,,,,,,,,,,,,,,,,,,,,
,,,,,V1_021,21,Female,2024-05-16_17h12.01.051,jersey_experiment_5_v1,2023.2.2,Win32,85.47008547,,,,,,,,,,,,,,,,182.3937,183.6877,183.6878,184.1584,return,0.0835,,74.609375,0,53,53,16,1,FBP-YG-17.png,0.37,1.2,17,0.5,,,,,,,,,,,,,,,,,,,,,,,,,,,,,,,,,,,,,,,,,,,,,
,,,,,V1_021,21,Female,2024-05-16_17h12.01.051,jersey_experiment_5_v1,2023.2.2,Win32,85.47008547,,,,,,,,,,,,,,,,184.1587,185.4525,185.4526,185.9583,return,0.0422,,74.609375,0,54,54,18,1,FBP-YG-17.png,0.43,1.2,19,0.5,,,,,,,,,,,,,,,,,,,,,,,,,,,,,,,,,,,,,,,,,,,,,
,,,,,V1_021,21,Female,2024-05-16_17h12.01.051,jersey_experiment_5_v1,2023.2.2,Win32,85.47008547,,,,,,,,,,,,,,,,185.9586,187.2526,187.2526,188.782,return,0.1522,,99.73958333,0,55,55,34,1,FBP-OG-17.png,0.45,1.2,35,0.5,,,,,,,,,,,,,,,,,,,,,,,,,,,,,,,,,,,,,,,,,,,,,
,,,,,V1_021,21,Female,2024-05-16_17h12.01.051,jersey_experiment_5_v1,2023.2.2,Win32,85.47008547,,,,,,,,,,,,,,,,188.7822,190.5821,190.5821,191.594,return,0.1207,,99.08854167,0,56,56,14,1,FBP-PT-91.png,0.45,1.2,15,1,,,,,,,,,,,,,,,,,,,,,,,,,,,,,,,,,,,,,,,,,,,,,
,,,,,V1_021,21,Female,2024-05-16_17h12.01.051,jersey_experiment_5_v1,2023.2.2,Win32,85.47008547,,,,,,,,,,,,,,,,191.5943,192.8883,192.8883,194.6647,return,0.1479,,24.73958333,0,57,57,45,1,FBP-RB-71.png,0.35,1.2,46,0.5,,,,,,,,,,,,,,,,,,,,,,,,,,,,,,,,,,,,,,,,,,,,,
,,,,,V1_021,21,Female,2024-05-16_17h12.01.051,jersey_experiment_5_v1,2023.2.2,Win32,85.47008547,,,,,,,,,,,,,,,,194.6648,195.9589,195.959,197.0531,return,0.1304,,25,0,58,58,50,1,FBP-RB-81.png,0.35,1.2,51,0.5,,,,,,,,,,,,,,,,,,,,,,,,,,,,,,,,,,,,,,,,,,,,,
,,,,,V1_021,21,Female,2024-05-16_17h12.01.051,jersey_experiment_5_v1,2023.2.2,Win32,85.47008547,,,,,,,,,,,,,,,,197.0534,198.853,198.853,199.806,return,0.1551,,25.390625,0,59,59,0,1,FBP-PT-71.png,0.35,1.2,1,1,,,,,,,,,,,,,,,,,,,,,,,,,,,,,,,,,,,,,,,,,,,,,
,,,,,V1_021,21,Female,2024-05-16_17h12.01.051,jersey_experiment_5_v1,2023.2.2,Win32,85.47008547,,,,,,,,,,,,,,,,199.8077,201.6061,201.6061,202.5121,return,0.1653,,74.609375,,,,,,FBP-PT-17.png,0.43,1.2,4,1,0,0,0,3,1,,,,,,,,,,,,,,,,,,,,,,,,,,,,,,,,,,,,,,,,
,,,,,V1_021,21,Female,2024-05-16_17h12.01.051,jersey_experiment_5_v1,2023.2.2,Win32,85.47008547,,,,,,,,,,,,,,,,202.5125,203.8062,203.8062,204.8415,return,0.1108,,25.26041667,,,,,,FBP-YG-71.png,0.37,1.2,17,0.5,0,1,1,16,1,,,,,,,,,,,,,,,,,,,,,,,,,,,,,,,,,,,,,,,,
,,,,,V1_021,21,Female,2024-05-16_17h12.01.051,jersey_experiment_5_v1,2023.2.2,Win32,85.47008547,,,,,,,,,,,,,,,,204.8418,206.6415,206.6416,207.7123,return,0.1412,,74.73958333,,,,,,FBP-PT-18.png,0.45,1.2,10,1,0,2,2,9,1,,,,,,,,,,,,,,,,,,,,,,,,,,,,,,,,,,,,,,,,
,,,,,V1_021,21,Female,2024-05-16_17h12.01.051,jersey_experiment_5_v1,2023.2.2,Win32,85.47008547,,,,,,,,,,,,,,,,207.7126,209.0065,209.0066,210.2181,return,0.1457,,24.86979167,,,,,,FBP-OG-81.png,0.37,1.2,37,0.5,0,3,3,36,1,,,,,,,,,,,,,,,,,,,,,,,,,,,,,,,,,,,,,,,,
,,,,,V1_021,21,Female,2024-05-16_17h12.01.051,jersey_experiment_5_v1,2023.2.2,Win32,85.47008547,,,,,,,,,,,,,,,,210.2184,211.5125,211.5125,212.3477,return,0.1327,,74.34895833,,,,,,FBP-OG-71.png,0.43,1.2,34,0.5,0,4,4,33,1,,,,,,,,,,,,,,,,,,,,,,,,,,,,,,,,,,,,,,,,
,,,,,V1_021,21,Female,2024-05-16_17h12.01.051,jersey_experiment_5_v1,2023.2.2,Win32,85.47008547,,,,,,,,,,,,,,,,212.3479,214.1478,214.1478,215.7712,return,0.78,,23.4375,,,,,,FBP-PT-19.png,0.37,1.2,12,1,0,5,5,11,1,,,,,,,,,,,,,,,,,,,,,,,,,,,,,,,,,,,,,,,,
,,,,,V1_021,21,Female,2024-05-16_17h12.01.051,jersey_experiment_5_v1,2023.2.2,Win32,85.47008547,,,,,,,,,,,,,,,,215.7714,217.0656,217.0656,217.9833,return,0.0955,,99.47916667,,,,,,FBP-RB-19.png,0.43,1.2,59,0.5,0,6,6,58,1,,,,,,,,,,,,,,,,,,,,,,,,,,,,,,,,,,,,,,,,
,,,,,V1_021,21,Female,2024-05-16_17h12.01.051,jersey_experiment_5_v1,2023.2.2,Win32,85.47008547,,,,,,,,,,,,,,,,217.9836,219.2775,219.2776,220.7009,return,0.1179,,13.93229167,,,,,,FBP-OG-81.png,0.35,1.2,36,0.5,0,7,7,35,1,,,,,,,,,,,,,,,,,,,,,,,,,,,,,,,,,,,,,,,,
,,,,,V1_021,21,Female,2024-05-16_17h12.01.051,jersey_experiment_5_v1,2023.2.2,Win32,85.47008547,,,,,,,,,,,,,,,,220.7012,221.9953,221.9953,223.1951,return,0.5334,,82.8125,,,,,,FBP-OG-71.png,0.45,1.2,35,0.5,0,8,8,34,1,,,,,,,,,,,,,,,,,,,,,,,,,,,,,,,,,,,,,,,,
,,,,,V1_021,21,Female,2024-05-16_17h12.01.051,jersey_experiment_5_v1,2023.2.2,Win32,85.47008547,,,,,,,,,,,,,,,,223.1953,224.4896,224.4896,225.3835,return,0.1132,,90.36458333,,,,,,FBP-YG-91.png,0.43,1.2,29,0.5,0,9,9,28,1,,,,,,,,,,,,,,,,,,,,,,,,,,,,,,,,,,,,,,,,
,,,,,V1_021,21,Female,2024-05-16_17h12.01.051,jersey_experiment_5_v1,2023.2.2,Win32,85.47008547,,,,,,,,,,,,,,,,225.3837,226.6778,226.6778,227.407,return,0.0467,,91.53645833,,,,,,FBP-YG-81.png,0.43,1.2,24,0.5,0,10,10,23,1,,,,,,,,,,,,,,,,,,,,,,,,,,,,,,,,,,,,,,,,
,,,,,V1_021,21,Female,2024-05-16_17h12.01.051,jersey_experiment_5_v1,2023.2.2,Win32,85.47008547,,,,,,,,,,,,,,,,227.4073,229.2073,229.2073,229.8898,return,0.0235,,38.93229167,,,,,,FBP-PT-18.png,0.4,1.2,8,1,0,11,11,7,1,,,,,,,,,,,,,,,,,,,,,,,,,,,,,,,,,,,,,,,,
,,,,,V1_021,21,Female,2024-05-16_17h12.01.051,jersey_experiment_5_v1,2023.2.2,Win32,85.47008547,,,,,,,,,,,,,,,,229.8903,231.1838,231.1839,231.8306,return,0.0669,,39.453125,,,,,,FBP-OG-71.png,0.4,1.2,33,0.5,0,12,12,32,1,,,,,,,,,,,,,,,,,,,,,,,,,,,,,,,,,,,,,,,,
,,,,,V1_021,21,Female,2024-05-16_17h12.01.051,jersey_experiment_5_v1,2023.2.2,Win32,85.47008547,,,,,,,,,,,,,,,,231.8309,233.1248,233.1249,233.8661,return,0.0517,,16.015625,,,,,,FBP-RB-17.png,0.35,1.2,46,0.5,0,13,13,45,1,,,,,,,,,,,,,,,,,,,,,,,,,,,,,,,,,,,,,,,,
,,,,,V1_021,21,Female,2024-05-16_17h12.01.051,jersey_experiment_5_v1,2023.2.2,Win32,85.47008547,,,,,,,,,,,,,,,,233.8663,235.1601,235.1602,236.6192,return,0.0133,,82.29166667,,,,,,FBP-YG-71.png,0.45,1.2,20,0.5,0,14,14,19,1,,,,,,,,,,,,,,,,,,,,,,,,,,,,,,,,,,,,,,,,
,,,,,V1_021,21,Female,2024-05-16_17h12.01.051,jersey_experiment_5_v1,2023.2.2,Win32,85.47008547,,,,,,,,,,,,,,,,236.6195,238.4193,238.4194,239.8192,return,0.7801,,5.859375,,,,,,FBP-PT-17.png,0.35,1.2,1,1,0,15,15,0,1,,,,,,,,,,,,,,,,,,,,,,,,,,,,,,,,,,,,,,,,
,,,,,V1_021,21,Female,2024-05-16_17h12.01.051,jersey_experiment_5_v1,2023.2.2,Win32,85.47008547,,,,,,,,,,,,,,,,239.8193,241.1135,241.1135,242.1842,return,0.1123,,22.39583333,,,,,,FBP-RB-18.png,0.4,1.2,53,0.5,0,16,16,52,1,,,,,,,,,,,,,,,,,,,,,,,,,,,,,,,,,,,,,,,,
,,,,,V1_021,21,Female,2024-05-16_17h12.01.051,jersey_experiment_5_v1,2023.2.2,Win32,85.47008547,,,,,,,,,,,,,,,,242.1844,243.9841,243.9841,244.49,return,0.0974,,23.56770833,,,,,,FBP-PT-17.png,0.37,1.2,2,1,0,17,17,1,1,,,,,,,,,,,,,,,,,,,,,,,,,,,,,,,,,,,,,,,,
,,,,,V1_021,21,Female,2024-05-16_17h12.01.051,jersey_experiment_5_v1,2023.2.2,Win32,85.47008547,,,,,,,,,,,,,,,,244.4903,246.2903,246.2903,247.2312,return,0.1275,,50.65104167,,,,,,FBP-PT-19.png,0.45,1.2,15,1,0,18,18,14,1,,,,,,,,,,,,,,,,,,,,,,,,,,,,,,,,,,,,,,,,
,,,,,V1_021,21,Female,2024-05-16_17h12.01.051,jersey_experiment_5_v1,2023.2.2,Win32,85.47008547,,,,,,,,,,,,,,,,247.2314,248.5254,248.5254,249.6079,return,0.0641,,22.00520833,,,,,,FBP-RB-18.png,0.35,1.2,51,0.5,0,19,19,50,1,,,,,,,,,,,,,,,,,,,,,,,,,,,,,,,,,,,,,,,,
,,,,,V1_021,21,Female,2024-05-16_17h12.01.051,jersey_experiment_5_v1,2023.2.2,Win32,85.47008547,,,,,,,,,,,,,,,,249.6081,250.902,250.902,251.4197,return,0.1072,,22.00520833,,,,,,FBP-YG-91.png,0.35,1.2,26,0.5,0,20,20,25,1,,,,,,,,,,,,,,,,,,,,,,,,,,,,,,,,,,,,,,,,
,,,,,V1_021,21,Female,2024-05-16_17h12.01.051,jersey_experiment_5_v1,2023.2.2,Win32,85.47008547,,,,,,,,,,,,,,,,251.4199,252.7139,252.7139,253.5021,return,0.0708,,90.49479167,,,,,,FBP-OG-81.png,0.45,1.2,40,0.5,0,21,21,39,1,,,,,,,,,,,,,,,,,,,,,,,,,,,,,,,,,,,,,,,,
,,,,,V1_021,21,Female,2024-05-16_17h12.01.051,jersey_experiment_5_v1,2023.2.2,Win32,85.47008547,,,,,,,,,,,,,,,,253.5023,254.7963,254.7963,255.7377,return,0.0874,,18.359375,,,,,,FBP-YG-71.png,0.35,1.2,16,0.5,0,22,22,15,1,,,,,,,,,,,,,,,,,,,,,,,,,,,,,,,,,,,,,,,,
,,,,,V1_021,21,Female,2024-05-16_17h12.01.051,jersey_experiment_5_v1,2023.2.2,Win32,85.47008547,,,,,,,,,,,,,,,,255.7378,257.0318,257.0318,257.8082,return,0.0945,,43.61979167,,,,,,FBP-OG-81.png,0.4,1.2,38,0.5,0,23,23,37,1,,,,,,,,,,,,,,,,,,,,,,,,,,,,,,,,,,,,,,,,
,,,,,V1_021,21,Female,2024-05-16_17h12.01.051,jersey_experiment_5_v1,2023.2.2,Win32,85.47008547,,,,,,,,,,,,,,,,257.8083,259.6081,259.6081,260.573,return,0.0252,,74.86979167,,,,,,FBP-PT-17.png,0.45,1.2,5,1,0,24,24,4,1,,,,,,,,,,,,,,,,,,,,,,,,,,,,,,,,,,,,,,,,
,,,,,V1_021,21,Female,2024-05-16_17h12.01.051,jersey_experiment_5_v1,2023.2.2,Win32,85.47008547,,,,,,,,,,,,,,,,260.5733,261.8671,261.8671,262.3848,return,0.0709,,74.86979167,,,,,,FBP-YG-91.png,0.4,1.2,28,0.5,0,25,25,27,1,,,,,,,,,,,,,,,,,,,,,,,,,,,,,,,,,,,,,,,,
,,,,,V1_021,21,Female,2024-05-16_17h12.01.051,jersey_experiment_5_v1,2023.2.2,Win32,85.47008547,,,,,,,,,,,,,,,,262.385,263.6789,263.6791,264.1613,return,0.3194,,74.86979167,,,,,,FBP-YG-71.png,0.4,1.2,18,0.5,0,26,26,17,1,,,,,,,,,,,,,,,,,,,,,,,,,,,,,,,,,,,,,,,,
,,,,,V1_021,21,Female,2024-05-16_17h12.01.051,jersey_experiment_5_v1,2023.2.2,Win32,85.47008547,,,,,,,,,,,,,,,,264.1615,265.9614,265.9614,266.4321,return,0.1413,,74.86979167,,,,,,FBP-PT-19.png,0.4,1.2,13,1,0,27,27,12,1,,,,,,,,,,,,,,,,,,,,,,,,,,,,,,,,,,,,,,,,
,,,,,V1_021,21,Female,2024-05-16_17h12.01.051,jersey_experiment_5_v1,2023.2.2,Win32,85.47008547,,,,,,,,,,,,,,,,266.4324,268.2321,268.2321,268.7616,return,0.039,,44.53125,,,,,,FBP-PT-17.png,0.4,1.2,3,1,0,28,28,2,1,,,,,,,,,,,,,,,,,,,,,,,,,,,,,,,,,,,,,,,,
,,,,,V1_021,21,Female,2024-05-16_17h12.01.051,jersey_experiment_5_v1,2023.2.2,Win32,85.47008547,,,,,,,,,,,,,,,,268.7617,270.0557,270.0557,271.7852,return,0.051,,75,,,,,,FBP-OG-91.png,0.45,1.2,45,0.5,0,29,29,44,1,,,,,,,,,,,,,,,,,,,,,,,,,,,,,,,,,,,,,,,,
,,,,,V1_021,21,Female,2024-05-16_17h12.01.051,jersey_experiment_5_v1,2023.2.2,Win32,85.47008547,,,,,,,,,,,,,,,,271.7853,273.0794,273.0794,273.9853,return,0.1412,,23.56770833,,,,,,FBP-RB-19.png,0.35,1.2,56,0.5,0,30,30,55,1,,,,,,,,,,,,,,,,,,,,,,,,,,,,,,,,,,,,,,,,
,,,,,V1_021,21,Female,2024-05-16_17h12.01.051,jersey_experiment_5_v1,2023.2.2,Win32,85.47008547,,,,,,,,,,,,,,,,273.9854,275.2792,275.2793,276.4323,return,0.1178,,84.24479167,,,,,,FBP-RB-17.png,0.45,1.2,50,0.5,0,31,31,49,1,,,,,,,,,,,,,,,,,,,,,,,,,,,,,,,,,,,,,,,,
,,,,,V1_021,21,Female,2024-05-16_17h12.01.051,jersey_experiment_5_v1,2023.2.2,Win32,85.47008547,,,,,,,,,,,,,,,,276.4324,277.7266,277.7266,278.656,return,0.0834,,30.72916667,,,,,,FBP-YG-81.png,0.37,1.2,22,0.5,0,32,32,21,1,,,,,,,,,,,,,,,,,,,,,,,,,,,,,,,,,,,,,,,,
,,,,,V1_021,21,Female,2024-05-16_17h12.01.051,jersey_experiment_5_v1,2023.2.2,Win32,85.47008547,,,,,,,,,,,,,,,,278.6562,279.9503,279.9503,280.5029,return,0.065,,30.72916667,,,,,,FBP-OG-91.png,0.37,1.2,42,0.5,0,33,33,41,1,,,,,,,,,,,,,,,,,,,,,,,,,,,,,,,,,,,,,,,,
,,,,,V1_021,21,Female,2024-05-16_17h12.01.051,jersey_experiment_5_v1,2023.2.2,Win32,85.47008547,,,,,,,,,,,,,,,,280.5031,281.7973,281.7974,282.9266,return,0.1974,,60.80729167,,,,,,FBP-RB-19.png,0.4,1.2,58,0.5,0,34,34,57,1,,,,,,,,,,,,,,,,,,,,,,,,,,,,,,,,,,,,,,,,
,,,,,V1_021,21,Female,2024-05-16_17h12.01.051,jersey_experiment_5_v1,2023.2.2,Win32,85.47008547,,,,,,,,,,,,,,,,282.9268,284.2209,284.221,284.9739,return,0.0574,,76.43229167,,,,,,FBP-RB-19.png,0.45,1.2,60,0.5,0,35,35,59,1,,,,,,,,,,,,,,,,,,,,,,,,,,,,,,,,,,,,,,,,
,,,,,V1_021,21,Female,2024-05-16_17h12.01.051,jersey_experiment_5_v1,2023.2.2,Win32,85.47008547,,,,,,,,,,,,,,,,284.9742,286.7742,286.7742,287.4563,return,0.0691,,24.47916667,,,,,,FBP-PT-19.png,0.35,1.2,11,1,0,36,36,10,1,,,,,,,,,,,,,,,,,,,,,,,,,,,,,,,,,,,,,,,,
,,,,,V1_021,21,Female,2024-05-16_17h12.01.051,jersey_experiment_5_v1,2023.2.2,Win32,85.47008547,,,,,,,,,,,,,,,,287.4565,288.7505,288.7506,289.6448,return,0.0004,,92.96875,,,,,,FBP-RB-18.png,0.43,1.2,54,0.5,0,37,37,53,1,,,,,,,,,,,,,,,,,,,,,,,,,,,,,,,,,,,,,,,,
,,,,,V1_021,21,Female,2024-05-16_17h12.01.051,jersey_experiment_5_v1,2023.2.2,Win32,85.47008547,,,,,,,,,,,,,,,,289.645,290.9388,290.9388,291.5036,return,0.0139,,96.484375,,,,,,FBP-RB-17.png,0.43,1.2,49,0.5,0,38,38,48,1,,,,,,,,,,,,,,,,,,,,,,,,,,,,,,,,,,,,,,,,
,,,,,V1_021,21,Female,2024-05-16_17h12.01.051,jersey_experiment_5_v1,2023.2.2,Win32,85.47008547,,,,,,,,,,,,,,,,291.5039,292.7977,292.7977,293.7036,return,0.0542,,62.76041667,,,,,,FBP-YG-91.png,0.37,1.2,27,0.5,0,39,39,26,1,,,,,,,,,,,,,,,,,,,,,,,,,,,,,,,,,,,,,,,,
,,,,,V1_021,21,Female,2024-05-16_17h12.01.051,jersey_experiment_5_v1,2023.2.2,Win32,85.47008547,,,,,,,,,,,,,,,,293.7038,294.998,294.998,295.8331,return,0.0749,,32.94270833,,,,,,FBP-OG-91.png,0.35,1.2,41,0.5,0,40,40,40,1,,,,,,,,,,,,,,,,,,,,,,,,,,,,,,,,,,,,,,,,
,,,,,V1_021,21,Female,2024-05-16_17h12.01.051,jersey_experiment_5_v1,2023.2.2,Win32,85.47008547,,,,,,,,,,,,,,,,295.8333,297.1274,297.1274,297.6097,return,0.029,,31.38020833,,,,,,FBP-RB-19.png,0.37,1.2,57,0.5,0,41,41,56,1,,,,,,,,,,,,,,,,,,,,,,,,,,,,,,,,,,,,,,,,
,,,,,V1_021,21,Female,2024-05-16_17h12.01.051,jersey_experiment_5_v1,2023.2.2,Win32,85.47008547,,,,,,,,,,,,,,,,297.6098,298.9037,298.9038,299.3392,return,0.0257,,31.38020833,,,,,,FBP-OG-71.png,0.37,1.2,32,0.5,0,42,42,31,1,,,,,,,,,,,,,,,,,,,,,,,,,,,,,,,,,,,,,,,,
,,,,,V1_021,21,Female,2024-05-16_17h12.01.051,jersey_experiment_5_v1,2023.2.2,Win32,85.47008547,,,,,,,,,,,,,,,,299.3395,300.6332,300.6333,301.6333,return,0.0576,,54.94791667,,,,,,FBP-OG-91.png,0.4,1.2,43,0.5,0,43,43,42,1,,,,,,,,,,,,,,,,,,,,,,,,,,,,,,,,,,,,,,,,
,,,,,V1_021,21,Female,2024-05-16_17h12.01.051,jersey_experiment_5_v1,2023.2.2,Win32,85.47008547,,,,,,,,,,,,,,,,301.6335,302.9275,302.9275,303.3746,return,0.034,,55.46875,,,,,,FBP-OG-81.png,0.43,1.2,39,0.5,0,44,44,38,1,,,,,,,,,,,,,,,,,,,,,,,,,,,,,,,,,,,,,,,,
,,,,,V1_021,21,Female,2024-05-16_17h12.01.051,jersey_experiment_5_v1,2023.2.2,Win32,85.47008547,,,,,,,,,,,,,,,,303.3748,304.6687,304.6687,305.5629,return,0.0514,,75,,,,,,FBP-RB-18.png,0.45,1.2,55,0.5,0,45,45,54,1,,,,,,,,,,,,,,,,,,,,,,,,,,,,,,,,,,,,,,,,
,,,,,V1_021,21,Female,2024-05-16_17h12.01.051,jersey_experiment_5_v1,2023.2.2,Win32,85.47008547,,,,,,,,,,,,,,,,305.563,306.8571,306.8571,307.7041,return,0.0541,,30.98958333,,,,,,FBP-YG-81.png,0.35,1.2,21,0.5,0,46,46,20,1,,,,,,,,,,,,,,,,,,,,,,,,,,,,,,,,,,,,,,,,
,,,,,V1_021,21,Female,2024-05-16_17h12.01.051,jersey_experiment_5_v1,2023.2.2,Win32,85.47008547,,,,,,,,,,,,,,,,307.7043,309.5043,309.5043,309.9748,return,0.0422,,75.52083333,,,,,,FBP-PT-18.png,0.43,1.2,9,1,0,47,47,8,1,,,,,,,,,,,,,,,,,,,,,,,,,,,,,,,,,,,,,,,,
,,,,,V1_021,21,Female,2024-05-16_17h12.01.051,jersey_experiment_5_v1,2023.2.2,Win32,85.47008547,,,,,,,,,,,,,,,,309.975,311.269,311.269,311.822,return,0.105,,75.52083333,,,,,,FBP-RB-17.png,0.4,1.2,48,0.5,0,48,48,47,1,,,,,,,,,,,,,,,,,,,,,,,,,,,,,,,,,,,,,,,,
,,,,,V1_021,21,Female,2024-05-16_17h12.01.051,jersey_experiment_5_v1,2023.2.2,Win32,85.47008547,,,,,,,,,,,,,,,,311.8221,313.6219,313.622,314.1984,return,0.1257,,75.52083333,,,,,,FBP-PT-19.png,0.43,1.2,14,1,0,49,49,13,1,,,,,,,,,,,,,,,,,,,,,,,,,,,,,,,,,,,,,,,,
,,,,,V1_021,21,Female,2024-05-16_17h12.01.051,jersey_experiment_5_v1,2023.2.2,Win32,85.47008547,,,,,,,,,,,,,,,,314.1986,315.9986,315.9986,316.6575,return,0.0708,,30.46875,,,,,,FBP-PT-18.png,0.37,1.2,7,1,0,50,50,6,1,,,,,,,,,,,,,,,,,,,,,,,,,,,,,,,,,,,,,,,,
,,,,,V1_021,21,Female,2024-05-16_17h12.01.051,jersey_experiment_5_v1,2023.2.2,Win32,85.47008547,,,,,,,,,,,,,,,,316.6577,317.9516,317.9516,318.4928,return,0.048,,30.46875,,,,,,FBP-RB-17.png,0.37,1.2,47,0.5,0,51,51,46,1,,,,,,,,,,,,,,,,,,,,,,,,,,,,,,,,,,,,,,,,
,,,,,V1_021,21,Female,2024-05-16_17h12.01.051,jersey_experiment_5_v1,2023.2.2,Win32,85.47008547,,,,,,,,,,,,,,,,318.4931,319.7869,319.7869,320.881,return,0.1275,,4.557291667,,,,,,FBP-OG-71.png,0.35,1.2,31,0.5,0,52,52,30,1,,,,,,,,,,,,,,,,,,,,,,,,,,,,,,,,,,,,,,,,
,,,,,V1_021,21,Female,2024-05-16_17h12.01.051,jersey_experiment_5_v1,2023.2.2,Win32,85.47008547,,,,,,,,,,,,,,,,320.8812,322.1752,322.1752,323.0692,return,0.0953,,90.88541667,,,,,,FBP-YG-81.png,0.45,1.2,25,0.5,0,53,53,24,1,,,,,,,,,,,,,,,,,,,,,,,,,,,,,,,,,,,,,,,,
,,,,,V1_021,21,Female,2024-05-16_17h12.01.051,jersey_experiment_5_v1,2023.2.2,Win32,85.47008547,,,,,,,,,,,,,,,,323.0695,324.3635,324.3636,324.9753,return,0.1171,,88.93229167,,,,,,FBP-YG-71.png,0.43,1.2,19,0.5,0,54,54,18,1,,,,,,,,,,,,,,,,,,,,,,,,,,,,,,,,,,,,,,,,
,,,,,V1_021,21,Female,2024-05-16_17h12.01.051,jersey_experiment_5_v1,2023.2.2,Win32,85.47008547,,,,,,,,,,,,,,,,324.9755,326.2694,326.2695,327.0343,return,0.0874,,97.78645833,,,,,,FBP-OG-91.png,0.43,1.2,44,0.5,0,55,55,43,1,,,,,,,,,,,,,,,,,,,,,,,,,,,,,,,,,,,,,,,,
,,,,,V1_021,21,Female,2024-05-16_17h12.01.051,jersey_experiment_5_v1,2023.2.2,Win32,85.47008547,,,,,,,,,,,,,,,,327.0344,328.3285,328.3286,329.2579,return,0.2271,,86.19791667,,,,,,FBP-YG-81.png,0.4,1.2,23,0.5,0,56,56,22,1,,,,,,,,,,,,,,,,,,,,,,,,,,,,,,,,,,,,,,,,
,,,,,V1_021,21,Female,2024-05-16_17h12.01.051,jersey_experiment_5_v1,2023.2.2,Win32,85.47008547,,,,,,,,,,,,,,,,329.2581,330.552,330.552,331.305,return,0.0396,,32.8125,,,,,,FBP-RB-18.png,0.37,1.2,52,0.5,0,57,57,51,1,,,,,,,,,,,,,,,,,,,,,,,,,,,,,,,,,,,,,,,,
,,,,,V1_021,21,Female,2024-05-16_17h12.01.051,jersey_experiment_5_v1,2023.2.2,Win32,85.47008547,,,,,,,,,,,,,,,,331.3052,333.1052,333.1052,333.5287,return,0.0406,,14.97395833,,,,,,FBP-PT-18.png,0.35,1.2,6,1,0,58,58,5,1,,,,,,,,,,,,,,,,,,,,,,,,,,,,,,,,,,,,,,,,
,,,,,V1_021,21,Female,2024-05-16_17h12.01.051,jersey_experiment_5_v1,2023.2.2,Win32,85.47008547,,,,,,,,,,,,,,,,333.5289,334.823,334.823,335.8348,return,0.0722,,98.828125,,,,,,FBP-YG-91.png,0.45,1.2,30,0.5,0,59,59,29,1,,,,,,,,,,,,,,,,,,,,,,,,,,,,,,,,,,,,,,,,
,,,,,V1_021,21,Female,2024-05-16_17h12.01.051,jersey_experiment_5_v1,2023.2.2,Win32,85.47008547,,,,,,,,,,,,,,,,,,,,,,,,,,,,,,,,,,,,,,,335.8351,455.8394,,,,,,,,,,,,,,,,,,,,,,,,,,,,,,,,,,,,,,
,,,,,V1_021,21,Female,2024-05-16_17h12.01.051,jersey_experiment_5_v1,2023.2.2,Win32,85.47008547,,,,,,,,,,,,,,,,,,,,,,,,,,,,,,,,,,,,,,,,,455.8395,457.6157,return,1.7647,,,,,,,,,,,,,,,,,,,,,,,,,,,,,,,,,,
,,,,,V1_021,21,Female,2024-05-16_17h12.01.051,jersey_experiment_5_v1,2023.2.2,Win32,85.47008547,,,,,,,,,,,,,,,,457.6218,459.4157,459.4157,460.8156,return,0.2113,,49.73958333,,,,,,FBP-OG-19.png,0.43,1.2,44,1,,,,,,,,,,,,,0,0,0,43,1,,,,,,,,,,,,,,,,,,,,,,,,,,,,
,,,,,V1_021,21,Female,2024-05-16_17h12.01.051,jersey_experiment_5_v1,2023.2.2,Win32,85.47008547,,,,,,,,,,,,,,,,460.8159,462.1098,462.1098,463.1686,return,0.0576,,26.30208333,,,,,,FBP-PT-81.png,0.35,1.2,6,0.5,,,,,,,,,,,,,0,1,1,5,1,,,,,,,,,,,,,,,,,,,,,,,,,,,,
,,,,,V1_021,21,Female,2024-05-16_17h12.01.051,jersey_experiment_5_v1,2023.2.2,Win32,85.47008547,,,,,,,,,,,,,,,,463.1688,464.9688,464.9688,465.4395,return,0.0604,,24.34895833,,,,,,FBP-YG-18.png,0.37,1.2,22,1,,,,,,,,,,,,,0,2,2,21,1,,,,,,,,,,,,,,,,,,,,,,,,,,,,
,,,,,V1_021,21,Female,2024-05-16_17h12.01.051,jersey_experiment_5_v1,2023.2.2,Win32,85.47008547,,,,,,,,,,,,,,,,465.4397,467.2396,467.2396,467.8159,return,0.066,,79.16666667,,,,,,FBP-YG-17.png,0.43,1.2,19,1,,,,,,,,,,,,,0,3,3,18,1,,,,,,,,,,,,,,,,,,,,,,,,,,,,
,,,,,V1_021,21,Female,2024-05-16_17h12.01.051,jersey_experiment_5_v1,2023.2.2,Win32,85.47008547,,,,,,,,,,,,,,,,467.816,469.6159,469.616,470.6631,return,0.0667,,24.86979167,,,,,,FBP-OG-18.png,0.37,1.2,37,1,,,,,,,,,,,,,0,4,4,36,1,,,,,,,,,,,,,,,,,,,,,,,,,,,,
,,,,,V1_021,21,Female,2024-05-16_17h12.01.051,jersey_experiment_5_v1,2023.2.2,Win32,85.47008547,,,,,,,,,,,,,,,,470.6632,471.9573,471.9573,472.4631,return,0.01,,37.36979167,,,,,,FBP-PT-71.png,0.4,1.2,3,0.5,,,,,,,,,,,,,0,5,5,2,1,,,,,,,,,,,,,,,,,,,,,,,,,,,,
,,,,,V1_021,21,Female,2024-05-16_17h12.01.051,jersey_experiment_5_v1,2023.2.2,Win32,85.47008547,,,,,,,,,,,,,,,,472.4633,474.2632,474.2632,474.7456,return,0.0521,,16.015625,,,,,,FBP-OG-17.png,0.35,1.2,31,1,,,,,,,,,,,,,0,6,6,30,1,,,,,,,,,,,,,,,,,,,,,,,,,,,,
,,,,,V1_021,21,Female,2024-05-16_17h12.01.051,jersey_experiment_5_v1,2023.2.2,Win32,85.47008547,,,,,,,,,,,,,,,,474.7459,476.5456,476.5457,476.9456,return,0.0237,,19.140625,,,,,,FBP-OG-17.png,0.37,1.2,32,1,,,,,,,,,,,,,0,7,7,31,1,,,,,,,,,,,,,,,,,,,,,,,,,,,,
,,,,,V1_021,21,Female,2024-05-16_17h12.01.051,jersey_experiment_5_v1,2023.2.2,Win32,85.47008547,,,,,,,,,,,,,,,,476.9459,478.2398,478.2399,478.9693,return,0.0513,,9.244791667,,,,,,FBP-PT-71.png,0.35,1.2,1,0.5,,,,,,,,,,,,,0,8,8,0,1,,,,,,,,,,,,,,,,,,,,,,,,,,,,
,,,,,V1_021,21,Female,2024-05-16_17h12.01.051,jersey_experiment_5_v1,2023.2.2,Win32,85.47008547,,,,,,,,,,,,,,,,478.9696,480.2635,480.2635,480.6516,return,0.0499,,8.854166667,,,,,,FBP-PT-91.png,0.35,1.2,11,0.5,,,,,,,,,,,,,0,9,9,10,1,,,,,,,,,,,,,,,,,,,,,,,,,,,,
,,,,,V1_021,21,Female,2024-05-16_17h12.01.051,jersey_experiment_5_v1,2023.2.2,Win32,85.47008547,,,,,,,,,,,,,,,,480.6519,482.4519,482.4519,483.2401,return,0.1337,,75,,,,,,FBP-YG-18.png,0.43,1.2,24,1,,,,,,,,,,,,,0,10,10,23,1,,,,,,,,,,,,,,,,,,,,,,,,,,,,
,,,,,V1_021,21,Female,2024-05-16_17h12.01.051,jersey_experiment_5_v1,2023.2.2,Win32,85.47008547,,,,,,,,,,,,,,,,483.2404,485.0402,485.0402,485.5812,return,0.0251,,36.58854167,,,,,,FBP-YG-18.png,0.35,1.2,21,1,,,,,,,,,,,,,0,11,11,20,1,,,,,,,,,,,,,,,,,,,,,,,,,,,,
,,,,,V1_021,21,Female,2024-05-16_17h12.01.051,jersey_experiment_5_v1,2023.2.2,Win32,85.47008547,,,,,,,,,,,,,,,,485.5814,487.3812,487.3813,487.7578,return,0.0109,,88.28125,,,,,,FBP-RB-81.png,0.45,1.2,55,1,,,,,,,,,,,,,0,12,12,54,1,,,,,,,,,,,,,,,,,,,,,,,,,,,,
,,,,,V1_021,21,Female,2024-05-16_17h12.01.051,jersey_experiment_5_v1,2023.2.2,Win32,85.47008547,,,,,,,,,,,,,,,,487.758,489.5583,489.5584,490.1108,return,0.0339,,58.07291667,,,,,,FBP-YG-17.png,0.4,1.2,18,1,,,,,,,,,,,,,0,13,13,17,1,,,,,,,,,,,,,,,,,,,,,,,,,,,,
,,,,,V1_021,21,Female,2024-05-16_17h12.01.051,jersey_experiment_5_v1,2023.2.2,Win32,85.47008547,,,,,,,,,,,,,,,,490.1111,491.9111,491.9111,493.2874,return,0.6526,,24.08854167,,,,,,FBP-OG-19.png,0.35,1.2,41,1,,,,,,,,,,,,,0,14,14,40,1,,,,,,,,,,,,,,,,,,,,,,,,,,,,
,,,,,V1_021,21,Female,2024-05-16_17h12.01.051,jersey_experiment_5_v1,2023.2.2,Win32,85.47008547,,,,,,,,,,,,,,,,493.2875,494.5814,494.5815,495.0876,return,0.0356,,32.16145833,,,,,,FBP-PT-81.png,0.37,1.2,7,0.5,,,,,,,,,,,,,0,15,15,6,1,,,,,,,,,,,,,,,,,,,,,,,,,,,,
,,,,,V1_021,21,Female,2024-05-16_17h12.01.051,jersey_experiment_5_v1,2023.2.2,Win32,85.47008547,,,,,,,,,,,,,,,,495.0878,496.8876,496.8876,497.5934,return,0.0287,,55.46875,,,,,,FBP-OG-19.png,0.4,1.2,43,1,,,,,,,,,,,,,0,16,16,42,1,,,,,,,,,,,,,,,,,,,,,,,,,,,,
,,,,,V1_021,21,Female,2024-05-16_17h12.01.051,jersey_experiment_5_v1,2023.2.2,Win32,85.47008547,,,,,,,,,,,,,,,,497.5936,498.8878,498.8878,499.9347,return,0.3903,,86.45833333,,,,,,FBP-PT-71.png,0.45,1.2,5,0.5,,,,,,,,,,,,,0,17,17,4,1,,,,,,,,,,,,,,,,,,,,,,,,,,,,
,,,,,V1_021,21,Female,2024-05-16_17h12.01.051,jersey_experiment_5_v1,2023.2.2,Win32,85.47008547,,,,,,,,,,,,,,,,499.9349,501.735,501.735,502.2054,return,0.0349,,23.95833333,,,,,,FBP-RB-91.png,0.35,1.2,56,1,,,,,,,,,,,,,0,18,18,55,1,,,,,,,,,,,,,,,,,,,,,,,,,,,,
,,,,,V1_021,21,Female,2024-05-16_17h12.01.051,jersey_experiment_5_v1,2023.2.2,Win32,85.47008547,,,,,,,,,,,,,,,,502.2056,504.0056,504.0056,504.3819,return,0.014,,16.796875,,,,,,FBP-YG-17.png,0.35,1.2,16,1,,,,,,,,,,,,,0,19,19,15,1,,,,,,,,,,,,,,,,,,,,,,,,,,,,
,,,,,V1_021,21,Female,2024-05-16_17h12.01.051,jersey_experiment_5_v1,2023.2.2,Win32,85.47008547,,,,,,,,,,,,,,,,504.3822,506.182,506.1821,506.6173,return,0.041,,12.23958333,,,,,,FBP-RB-81.png,0.35,1.2,51,1,,,,,,,,,,,,,0,20,20,50,1,,,,,,,,,,,,,,,,,,,,,,,,,,,,
,,,,,V1_021,21,Female,2024-05-16_17h12.01.051,jersey_experiment_5_v1,2023.2.2,Win32,85.47008547,,,,,,,,,,,,,,,,506.6176,507.9117,507.9118,508.6999,return,0.0489,,85.41666667,,,,,,FBP-PT-71.png,0.43,1.2,4,0.5,,,,,,,,,,,,,0,21,21,3,1,,,,,,,,,,,,,,,,,,,,,,,,,,,,
,,,,,V1_021,21,Female,2024-05-16_17h12.01.051,jersey_experiment_5_v1,2023.2.2,Win32,85.47008547,,,,,,,,,,,,,,,,508.7001,510.4998,510.4999,511.147,return,0.051,,96.22395833,,,,,,FBP-OG-17.png,0.43,1.2,34,1,,,,,,,,,,,,,0,22,22,33,1,,,,,,,,,,,,,,,,,,,,,,,,,,,,
,,,,,V1_021,21,Female,2024-05-16_17h12.01.051,jersey_experiment_5_v1,2023.2.2,Win32,85.47008547,,,,,,,,,,,,,,,,511.1472,512.947,512.9471,513.5822,return,0.047,,84.50520833,,,,,,FBP-OG-17.png,0.4,1.2,33,1,,,,,,,,,,,,,0,23,23,32,1,,,,,,,,,,,,,,,,,,,,,,,,,,,,
,,,,,V1_021,21,Female,2024-05-16_17h12.01.051,jersey_experiment_5_v1,2023.2.2,Win32,85.47008547,,,,,,,,,,,,,,,,513.5824,515.3822,515.3822,516.8411,return,0.523,,18.88020833,,,,,,FBP-RB-91.png,0.37,1.2,57,1,,,,,,,,,,,,,0,24,24,56,1,,,,,,,,,,,,,,,,,,,,,,,,,,,,
,,,,,V1_021,21,Female,2024-05-16_17h12.01.051,jersey_experiment_5_v1,2023.2.2,Win32,85.47008547,,,,,,,,,,,,,,,,516.8412,518.1355,518.1355,518.6885,return,0.07,,79.94791667,,,,,,FBP-PT-91.png,0.43,1.2,14,0.5,,,,,,,,,,,,,0,25,25,13,1,,,,,,,,,,,,,,,,,,,,,,,,,,,,
,,,,,V1_021,21,Female,2024-05-16_17h12.01.051,jersey_experiment_5_v1,2023.2.2,Win32,85.47008547,,,,,,,,,,,,,,,,518.6887,519.9827,519.9827,520.7942,return,0.0382,,88.93229167,,,,,,FBP-PT-91.png,0.45,1.2,15,0.5,,,,,,,,,,,,,0,26,26,14,1,,,,,,,,,,,,,,,,,,,,,,,,,,,,
,,,,,V1_021,21,Female,2024-05-16_17h12.01.051,jersey_experiment_5_v1,2023.2.2,Win32,85.47008547,,,,,,,,,,,,,,,,520.7944,522.5944,522.5945,523.265,return,0.0472,,97.13541667,,,,,,FBP-RB-91.png,0.43,1.2,59,1,,,,,,,,,,,,,0,27,27,58,1,,,,,,,,,,,,,,,,,,,,,,,,,,,,
,,,,,V1_021,21,Female,2024-05-16_17h12.01.051,jersey_experiment_5_v1,2023.2.2,Win32,85.47008547,,,,,,,,,,,,,,,,523.2652,525.0651,525.0651,525.8063,return,0.034,,17.83854167,,,,,,FBP-OG-18.png,0.35,1.2,36,1,,,,,,,,,,,,,0,28,28,35,1,,,,,,,,,,,,,,,,,,,,,,,,,,,,
,,,,,V1_021,21,Female,2024-05-16_17h12.01.051,jersey_experiment_5_v1,2023.2.2,Win32,85.47008547,,,,,,,,,,,,,,,,525.8065,527.6064,527.6064,528.6653,return,0.0407,,84.765625,,,,,,FBP-OG-18.png,0.45,1.2,40,1,,,,,,,,,,,,,0,29,29,39,1,,,,,,,,,,,,,,,,,,,,,,,,,,,,
,,,,,V1_021,21,Female,2024-05-16_17h12.01.051,jersey_experiment_5_v1,2023.2.2,Win32,85.47008547,,,,,,,,,,,,,,,,528.6655,530.4653,530.4654,531.0889,return,0.0375,,14.97395833,,,,,,FBP-RB-71.png,0.35,1.2,46,1,,,,,,,,,,,,,0,30,30,45,1,,,,,,,,,,,,,,,,,,,,,,,,,,,,
,,,,,V1_021,21,Female,2024-05-16_17h12.01.051,jersey_experiment_5_v1,2023.2.2,Win32,85.47008547,,,,,,,,,,,,,,,,531.0891,532.889,532.889,533.5476,return,0.0271,,49.86979167,,,,,,FBP-RB-81.png,0.43,1.2,54,1,,,,,,,,,,,,,0,31,31,53,1,,,,,,,,,,,,,,,,,,,,,,,,,,,,
,,,,,V1_021,21,Female,2024-05-16_17h12.01.051,jersey_experiment_5_v1,2023.2.2,Win32,85.47008547,,,,,,,,,,,,,,,,533.5478,534.8419,534.8419,535.7594,return,0.4575,,49.73958333,,,,,,FBP-PT-81.png,0.4,1.2,8,0.5,,,,,,,,,,,,,0,32,32,7,1,,,,,,,,,,,,,,,,,,,,,,,,,,,,
,,,,,V1_021,21,Female,2024-05-16_17h12.01.051,jersey_experiment_5_v1,2023.2.2,Win32,85.47008547,,,,,,,,,,,,,,,,535.7595,537.0538,537.0538,537.6419,return,0.028,,58.07291667,,,,,,FBP-PT-81.png,0.43,1.2,9,0.5,,,,,,,,,,,,,0,33,33,8,1,,,,,,,,,,,,,,,,,,,,,,,,,,,,
,,,,,V1_021,21,Female,2024-05-16_17h12.01.051,jersey_experiment_5_v1,2023.2.2,Win32,85.47008547,,,,,,,,,,,,,,,,537.6422,539.442,539.442,540.2658,return,0.017,,88.671875,,,,,,FBP-RB-71.png,0.45,1.2,50,1,,,,,,,,,,,,,0,34,34,49,1,,,,,,,,,,,,,,,,,,,,,,,,,,,,
,,,,,V1_021,21,Female,2024-05-16_17h12.01.051,jersey_experiment_5_v1,2023.2.2,Win32,85.47008547,,,,,,,,,,,,,,,,540.2659,542.0658,542.0658,542.8892,return,0.0392,,9.765625,,,,,,FBP-RB-81.png,0.37,1.2,52,1,,,,,,,,,,,,,0,35,35,51,1,,,,,,,,,,,,,,,,,,,,,,,,,,,,
,,,,,V1_021,21,Female,2024-05-16_17h12.01.051,jersey_experiment_5_v1,2023.2.2,Win32,85.47008547,,,,,,,,,,,,,,,,542.8894,544.1833,544.1833,544.8658,return,0.259,,9.765625,,,,,,FBP-PT-71.png,0.37,1.2,2,0.5,,,,,,,,,,,,,0,36,36,1,1,,,,,,,,,,,,,,,,,,,,,,,,,,,,
,,,,,V1_021,21,Female,2024-05-16_17h12.01.051,jersey_experiment_5_v1,2023.2.2,Win32,85.47008547,,,,,,,,,,,,,,,,544.866,546.6658,546.6658,547.1952,return,0.0501,,64.453125,,,,,,FBP-OG-19.png,0.45,1.2,45,1,,,,,,,,,,,,,0,37,37,44,1,,,,,,,,,,,,,,,,,,,,,,,,,,,,
,,,,,V1_021,21,Female,2024-05-16_17h12.01.051,jersey_experiment_5_v1,2023.2.2,Win32,85.47008547,,,,,,,,,,,,,,,,547.1955,548.9954,548.9954,549.3601,return,0.0101,,83.59375,,,,,,FBP-YG-18.png,0.45,1.2,25,1,,,,,,,,,,,,,0,38,38,24,1,,,,,,,,,,,,,,,,,,,,,,,,,,,,
,,,,,V1_021,21,Female,2024-05-16_17h12.01.051,jersey_experiment_5_v1,2023.2.2,Win32,85.47008547,,,,,,,,,,,,,,,,549.3604,551.1602,551.1602,551.6543,return,0.0436,,28.64583333,,,,,,FBP-YG-19.png,0.37,1.2,27,1,,,,,,,,,,,,,0,39,39,26,1,,,,,,,,,,,,,,,,,,,,,,,,,,,,
,,,,,V1_021,21,Female,2024-05-16_17h12.01.051,jersey_experiment_5_v1,2023.2.2,Win32,85.47008547,,,,,,,,,,,,,,,,551.6546,553.4543,553.4543,554.3014,return,0.0352,,42.44791667,,,,,,FBP-YG-18.png,0.4,1.2,23,1,,,,,,,,,,,,,0,40,40,22,1,,,,,,,,,,,,,,,,,,,,,,,,,,,,
,,,,,V1_021,21,Female,2024-05-16_17h12.01.051,jersey_experiment_5_v1,2023.2.2,Win32,85.47008547,,,,,,,,,,,,,,,,554.3016,556.1017,556.1018,556.4782,return,0.0134,,42.44791667,,,,,,FBP-RB-71.png,0.4,1.2,48,1,,,,,,,,,,,,,0,41,41,47,1,,,,,,,,,,,,,,,,,,,,,,,,,,,,
,,,,,V1_021,21,Female,2024-05-16_17h12.01.051,jersey_experiment_5_v1,2023.2.2,Win32,85.47008547,,,,,,,,,,,,,,,,556.4785,558.2779,558.2779,558.9604,return,0.3148,,42.44791667,,,,,,FBP-YG-19.png,0.43,1.2,29,1,,,,,,,,,,,,,0,42,42,28,1,,,,,,,,,,,,,,,,,,,,,,,,,,,,
,,,,,V1_021,21,Female,2024-05-16_17h12.01.051,jersey_experiment_5_v1,2023.2.2,Win32,85.47008547,,,,,,,,,,,,,,,,558.9606,560.2546,560.2546,561.137,return,0.2256,,60.41666667,,,,,,FBP-PT-81.png,0.45,1.2,10,0.5,,,,,,,,,,,,,0,43,43,9,1,,,,,,,,,,,,,,,,,,,,,,,,,,,,
,,,,,V1_021,21,Female,2024-05-16_17h12.01.051,jersey_experiment_5_v1,2023.2.2,Win32,85.47008547,,,,,,,,,,,,,,,,561.1371,562.9371,562.9372,563.4195,return,0.0384,,64.97395833,,,,,,FBP-YG-19.png,0.45,1.2,30,1,,,,,,,,,,,,,0,44,44,29,1,,,,,,,,,,,,,,,,,,,,,,,,,,,,
,,,,,V1_021,21,Female,2024-05-16_17h12.01.051,jersey_experiment_5_v1,2023.2.2,Win32,85.47008547,,,,,,,,,,,,,,,,563.4197,565.2197,565.2197,565.6784,return,0.0362,,38.54166667,,,,,,FBP-YG-17.png,0.37,1.2,17,1,,,,,,,,,,,,,0,45,45,16,1,,,,,,,,,,,,,,,,,,,,,,,,,,,,
,,,,,V1_021,21,Female,2024-05-16_17h12.01.051,jersey_experiment_5_v1,2023.2.2,Win32,85.47008547,,,,,,,,,,,,,,,,565.6786,567.4785,567.4785,568.0784,return,0.0139,,75,,,,,,FBP-YG-17.png,0.45,1.2,20,1,,,,,,,,,,,,,0,46,46,19,1,,,,,,,,,,,,,,,,,,,,,,,,,,,,
,,,,,V1_021,21,Female,2024-05-16_17h12.01.051,jersey_experiment_5_v1,2023.2.2,Win32,85.47008547,,,,,,,,,,,,,,,,568.0786,569.3725,569.3726,569.8197,return,0.0843,,75,,,,,,FBP-PT-91.png,0.4,1.2,13,0.5,,,,,,,,,,,,,0,47,47,12,1,,,,,,,,,,,,,,,,,,,,,,,,,,,,
,,,,,V1_021,21,Female,2024-05-16_17h12.01.051,jersey_experiment_5_v1,2023.2.2,Win32,85.47008547,,,,,,,,,,,,,,,,569.82,571.6197,571.6198,572.3022,return,0.3067,,75,,,,,,FBP-RB-91.png,0.45,1.2,60,1,,,,,,,,,,,,,0,48,48,59,1,,,,,,,,,,,,,,,,,,,,,,,,,,,,
,,,,,V1_021,21,Female,2024-05-16_17h12.01.051,jersey_experiment_5_v1,2023.2.2,Win32,85.47008547,,,,,,,,,,,,,,,,572.3024,574.1022,574.1023,574.5728,return,0.0475,,75,,,,,,FBP-OG-18.png,0.43,1.2,39,1,,,,,,,,,,,,,0,49,49,38,1,,,,,,,,,,,,,,,,,,,,,,,,,,,,
,,,,,V1_021,21,Female,2024-05-16_17h12.01.051,jersey_experiment_5_v1,2023.2.2,Win32,85.47008547,,,,,,,,,,,,,,,,574.573,576.3729,576.3729,576.8081,return,0.0418,,35.80729167,,,,,,FBP-OG-19.png,0.37,1.2,42,1,,,,,,,,,,,,,0,50,50,41,1,,,,,,,,,,,,,,,,,,,,,,,,,,,,
,,,,,V1_021,21,Female,2024-05-16_17h12.01.051,jersey_experiment_5_v1,2023.2.2,Win32,85.47008547,,,,,,,,,,,,,,,,576.8083,578.6083,578.6083,579.0318,return,0.0773,,37.23958333,,,,,,FBP-OG-18.png,0.4,1.2,38,1,,,,,,,,,,,,,0,51,51,37,1,,,,,,,,,,,,,,,,,,,,,,,,,,,,
,,,,,V1_021,21,Female,2024-05-16_17h12.01.051,jersey_experiment_5_v1,2023.2.2,Win32,85.47008547,,,,,,,,,,,,,,,,579.0319,580.8319,580.8319,581.2321,return,0.0617,,36.84895833,,,,,,FBP-RB-91.png,0.4,1.2,58,1,,,,,,,,,,,,,0,52,52,57,1,,,,,,,,,,,,,,,,,,,,,,,,,,,,
,,,,,V1_021,21,Female,2024-05-16_17h12.01.051,jersey_experiment_5_v1,2023.2.2,Win32,85.47008547,,,,,,,,,,,,,,,,581.2322,583.0322,583.0322,583.6555,return,0.0527,,16.53645833,,,,,,FBP-RB-71.png,0.37,1.2,47,1,,,,,,,,,,,,,0,53,53,46,1,,,,,,,,,,,,,,,,,,,,,,,,,,,,
,,,,,V1_021,21,Female,2024-05-16_17h12.01.051,jersey_experiment_5_v1,2023.2.2,Win32,85.47008547,,,,,,,,,,,,,,,,583.6557,585.4556,585.4556,585.879,return,0.0414,,16.66666667,,,,,,FBP-RB-81.png,0.4,1.2,53,1,,,,,,,,,,,,,0,54,54,52,1,,,,,,,,,,,,,,,,,,,,,,,,,,,,
,,,,,V1_021,21,Female,2024-05-16_17h12.01.051,jersey_experiment_5_v1,2023.2.2,Win32,85.47008547,,,,,,,,,,,,,,,,585.8793,587.6791,587.6791,588.1616,return,0.0474,,88.02083333,,,,,,FBP-OG-17.png,0.45,1.2,35,1,,,,,,,,,,,,,0,55,55,34,1,,,,,,,,,,,,,,,,,,,,,,,,,,,,
,,,,,V1_021,21,Female,2024-05-16_17h12.01.051,jersey_experiment_5_v1,2023.2.2,Win32,85.47008547,,,,,,,,,,,,,,,,588.1617,589.9618,589.9618,590.6204,return,0.0847,,72.13541667,,,,,,FBP-RB-71.png,0.43,1.2,49,1,,,,,,,,,,,,,0,56,56,48,1,,,,,,,,,,,,,,,,,,,,,,,,,,,,
,,,,,V1_021,21,Female,2024-05-16_17h12.01.051,jersey_experiment_5_v1,2023.2.2,Win32,85.47008547,,,,,,,,,,,,,,,,590.6206,592.4206,592.4206,593.0676,return,0.0249,,25,,,,,,FBP-YG-19.png,0.35,1.2,26,1,,,,,,,,,,,,,0,57,57,25,1,,,,,,,,,,,,,,,,,,,,,,,,,,,,
,,,,,V1_021,21,Female,2024-05-16_17h12.01.051,jersey_experiment_5_v1,2023.2.2,Win32,85.47008547,,,,,,,,,,,,,,,,593.0679,594.3618,594.3618,595.0676,return,0.0144,,16.27604167,,,,,,FBP-PT-91.png,0.37,1.2,12,0.5,,,,,,,,,,,,,0,58,58,11,1,,,,,,,,,,,,,,,,,,,,,,,,,,,,
,,,,,V1_021,21,Female,2024-05-16_17h12.01.051,jersey_experiment_5_v1,2023.2.2,Win32,85.47008547,,,,,,,,,,,,,,,,595.0678,596.8677,596.8677,597.5856,return,0.094,,19.79166667,,,,,,FBP-YG-19.png,0.4,1.2,28,1,,,,,,,,,,,,,0,59,59,27,1,,,,,,,,,,,,,,,,,,,,,,,,,,,,
,,,,,V1_021,21,Female,2024-05-16_17h12.01.051,jersey_experiment_5_v1,2023.2.2,Win32,85.47008547,,,,,,,,,,,,,,,,597.5869,599.3856,599.3856,600.2324,return,0.0765,,86.06770833,,,,,,FBP-YG-81.png,0.45,1.2,25,1,,,,,,,,,,,,,,,,,,0,0,0,24,1,,,,,,,,,,,,,,,,,,,,,,,
,,,,,V1_021,21,Female,2024-05-16_17h12.01.051,jersey_experiment_5_v1,2023.2.2,Win32,85.47008547,,,,,,,,,,,,,,,,600.2327,602.0326,602.0326,602.6681,return,0.0473,,67.31770833,,,,,,FBP-OG-81.png,0.43,1.2,39,1,,,,,,,,,,,,,,,,,,0,1,1,38,1,,,,,,,,,,,,,,,,,,,,,,,
,,,,,V1_021,21,Female,2024-05-16_17h12.01.051,jersey_experiment_5_v1,2023.2.2,Win32,85.47008547,,,,,,,,,,,,,,,,602.6684,604.468,604.468,605.0798,return,0.0171,,94.01041667,,,,,,FBP-YG-91.png,0.45,1.2,30,1,,,,,,,,,,,,,,,,,,0,2,2,29,1,,,,,,,,,,,,,,,,,,,,,,,
,,,,,V1_021,21,Female,2024-05-16_17h12.01.051,jersey_experiment_5_v1,2023.2.2,Win32,85.47008547,,,,,,,,,,,,,,,,605.0799,606.8799,606.88,607.4329,return,0.0152,,8.203125,,,,,,FBP-RB-17.png,0.37,1.2,47,1,,,,,,,,,,,,,,,,,,0,3,3,46,1,,,,,,,,,,,,,,,,,,,,,,,
,,,,,V1_021,21,Female,2024-05-16_17h12.01.051,jersey_experiment_5_v1,2023.2.2,Win32,85.47008547,,,,,,,,,,,,,,,,607.4331,608.727,608.727,609.4798,return,0.1948,,14.32291667,,,,,,FBP-PT-18.png,0.4,1.2,8,0.5,,,,,,,,,,,,,,,,,,0,4,4,7,1,,,,,,,,,,,,,,,,,,,,,,,
,,,,,V1_021,21,Female,2024-05-16_17h12.01.051,jersey_experiment_5_v1,2023.2.2,Win32,85.47008547,,,,,,,,,,,,,,,,609.4801,611.2802,611.2802,615.48,return,0.1946,,11.19791667,,,,,,FBP-OG-91.png,0.37,1.2,42,1,,,,,,,,,,,,,,,,,,0,5,5,41,1,,,,,,,,,,,,,,,,,,,,,,,
,,,,,V1_021,21,Female,2024-05-16_17h12.01.051,jersey_experiment_5_v1,2023.2.2,Win32,85.47008547,,,,,,,,,,,,,,,,615.4803,617.2805,617.2805,617.7744,return,0.061,,15.88541667,,,,,,FBP-RB-17.png,0.4,1.2,48,1,,,,,,,,,,,,,,,,,,0,6,6,47,1,,,,,,,,,,,,,,,,,,,,,,,
,,,,,V1_021,21,Female,2024-05-16_17h12.01.051,jersey_experiment_5_v1,2023.2.2,Win32,85.47008547,,,,,,,,,,,,,,,,617.7747,619.5744,619.5744,620.2333,return,0.0993,,7.552083333,,,,,,FBP-OG-71.png,0.37,1.2,32,1,,,,,,,,,,,,,,,,,,0,7,7,31,1,,,,,,,,,,,,,,,,,,,,,,,
,,,,,V1_021,21,Female,2024-05-16_17h12.01.051,jersey_experiment_5_v1,2023.2.2,Win32,85.47008547,,,,,,,,,,,,,,,,620.2334,622.0332,622.0332,622.8099,return,0.345,,8.59375,,,,,,FBP-RB-19.png,0.4,1.2,58,1,,,,,,,,,,,,,,,,,,0,8,8,57,1,,,,,,,,,,,,,,,,,,,,,,,
,,,,,V1_021,21,Female,2024-05-16_17h12.01.051,jersey_experiment_5_v1,2023.2.2,Win32,85.47008547,,,,,,,,,,,,,,,,622.8101,624.1041,624.1041,624.9394,return,0.1677,,4.427083333,,,,,,FBP-PT-18.png,0.35,1.2,6,0.5,,,,,,,,,,,,,,,,,,0,9,9,5,1,,,,,,,,,,,,,,,,,,,,,,,
,,,,,V1_021,21,Female,2024-05-16_17h12.01.051,jersey_experiment_5_v1,2023.2.2,Win32,85.47008547,,,,,,,,,,,,,,,,624.9395,626.7397,626.7398,627.6806,return,0.1776,,60.02604167,,,,,,FBP-YG-91.png,0.43,1.2,29,1,,,,,,,,,,,,,,,,,,0,10,10,28,1,,,,,,,,,,,,,,,,,,,,,,,
,,,,,V1_021,21,Female,2024-05-16_17h12.01.051,jersey_experiment_5_v1,2023.2.2,Win32,85.47008547,,,,,,,,,,,,,,,,627.6808,629.4807,629.4808,630.1279,return,0.0589,,90.36458333,,,,,,FBP-RB-19.png,0.45,1.2,60,1,,,,,,,,,,,,,,,,,,0,11,11,59,1,,,,,,,,,,,,,,,,,,,,,,,
,,,,,V1_021,21,Female,2024-05-16_17h12.01.051,jersey_experiment_5_v1,2023.2.2,Win32,85.47008547,,,,,,,,,,,,,,,,630.1282,631.4222,631.4222,631.9043,return,0.0808,,89.97395833,,,,,,FBP-PT-17.png,0.45,1.2,5,0.5,,,,,,,,,,,,,,,,,,0,12,12,4,1,,,,,,,,,,,,,,,,,,,,,,,
,,,,,V1_021,21,Female,2024-05-16_17h12.01.051,jersey_experiment_5_v1,2023.2.2,Win32,85.47008547,,,,,,,,,,,,,,,,631.9045,633.7043,633.7044,634.4926,return,0.0358,,18.09895833,,,,,,FBP-RB-17.png,0.35,1.2,46,1,,,,,,,,,,,,,,,,,,0,13,13,45,1,,,,,,,,,,,,,,,,,,,,,,,
,,,,,V1_021,21,Female,2024-05-16_17h12.01.051,jersey_experiment_5_v1,2023.2.2,Win32,85.47008547,,,,,,,,,,,,,,,,634.4928,636.2926,636.2926,636.8104,return,0.1676,,18.88020833,,,,,,FBP-OG-71.png,0.35,1.2,31,1,,,,,,,,,,,,,,,,,,0,14,14,30,1,,,,,,,,,,,,,,,,,,,,,,,
,,,,,V1_021,21,Female,2024-05-16_17h12.01.051,jersey_experiment_5_v1,2023.2.2,Win32,85.47008547,,,,,,,,,,,,,,,,636.8106,638.6106,638.6106,639.175,return,0.0177,,50.65104167,,,,,,FBP-RB-17.png,0.43,1.2,49,1,,,,,,,,,,,,,,,,,,0,15,15,48,1,,,,,,,,,,,,,,,,,,,,,,,
,,,,,V1_021,21,Female,2024-05-16_17h12.01.051,jersey_experiment_5_v1,2023.2.2,Win32,85.47008547,,,,,,,,,,,,,,,,639.1753,640.9755,640.9755,641.5517,return,0.0101,,23.56770833,,,,,,FBP-YG-81.png,0.35,1.2,21,1,,,,,,,,,,,,,,,,,,0,16,16,20,1,,,,,,,,,,,,,,,,,,,,,,,
,,,,,V1_021,21,Female,2024-05-16_17h12.01.051,jersey_experiment_5_v1,2023.2.2,Win32,85.47008547,,,,,,,,,,,,,,,,641.5519,643.352,643.352,643.9637,return,0.038,,46.875,,,,,,FBP-YG-71.png,0.4,1.2,18,1,,,,,,,,,,,,,,,,,,0,17,17,17,1,,,,,,,,,,,,,,,,,,,,,,,
,,,,,V1_021,21,Female,2024-05-16_17h12.01.051,jersey_experiment_5_v1,2023.2.2,Win32,85.47008547,,,,,,,,,,,,,,,,643.9639,645.7636,645.7636,646.3988,return,0.0235,,75.78125,,,,,,FBP-YG-81.png,0.43,1.2,24,1,,,,,,,,,,,,,,,,,,0,18,18,23,1,,,,,,,,,,,,,,,,,,,,,,,
,,,,,V1_021,21,Female,2024-05-16_17h12.01.051,jersey_experiment_5_v1,2023.2.2,Win32,85.47008547,,,,,,,,,,,,,,,,646.3989,647.6929,647.6929,648.1755,return,0.0369,,75.65104167,,,,,,FBP-PT-19.png,0.43,1.2,14,0.5,,,,,,,,,,,,,,,,,,0,19,19,13,1,,,,,,,,,,,,,,,,,,,,,,,
,,,,,V1_021,21,Female,2024-05-16_17h12.01.051,jersey_experiment_5_v1,2023.2.2,Win32,85.47008547,,,,,,,,,,,,,,,,648.1757,649.4696,649.4696,649.87,return,0.037,,75.65104167,,,,,,FBP-PT-17.png,0.43,1.2,4,0.5,,,,,,,,,,,,,,,,,,0,20,20,3,1,,,,,,,,,,,,,,,,,,,,,,,
,,,,,V1_021,21,Female,2024-05-16_17h12.01.051,jersey_experiment_5_v1,2023.2.2,Win32,85.47008547,,,,,,,,,,,,,,,,649.8702,651.6697,651.6697,652.3992,return,0.047,,80.20833333,,,,,,FBP-RB-18.png,0.45,1.2,55,1,,,,,,,,,,,,,,,,,,0,21,21,54,1,,,,,,,,,,,,,,,,,,,,,,,
,,,,,V1_021,21,Female,2024-05-16_17h12.01.051,jersey_experiment_5_v1,2023.2.2,Win32,85.47008547,,,,,,,,,,,,,,,,652.3993,653.6933,653.6933,655.0346,return,0.0747,,50.78125,,,,,,FBP-PT-19.png,0.4,1.2,13,0.5,,,,,,,,,,,,,,,,,,0,22,22,12,1,,,,,,,,,,,,,,,,,,,,,,,
,,,,,V1_021,21,Female,2024-05-16_17h12.01.051,jersey_experiment_5_v1,2023.2.2,Win32,85.47008547,,,,,,,,,,,,,,,,655.0348,656.3287,656.3288,656.9875,return,0.0262,,65.36458333,,,,,,FBP-PT-18.png,0.43,1.2,9,0.5,,,,,,,,,,,,,,,,,,0,23,23,8,1,,,,,,,,,,,,,,,,,,,,,,,
,,,,,V1_021,21,Female,2024-05-16_17h12.01.051,jersey_experiment_5_v1,2023.2.2,Win32,85.47008547,,,,,,,,,,,,,,,,656.9878,658.7878,658.7879,659.3054,return,0.0866,,41.53645833,,,,,,FBP-YG-91.png,0.37,1.2,27,1,,,,,,,,,,,,,,,,,,0,24,24,26,1,,,,,,,,,,,,,,,,,,,,,,,
,,,,,V1_021,21,Female,2024-05-16_17h12.01.051,jersey_experiment_5_v1,2023.2.2,Win32,85.47008547,,,,,,,,,,,,,,,,659.3055,661.1052,661.1053,661.6584,return,0.0159,,28.25520833,,,,,,FBP-RB-18.png,0.35,1.2,51,1,,,,,,,,,,,,,,,,,,0,25,25,50,1,,,,,,,,,,,,,,,,,,,,,,,
,,,,,V1_021,21,Female,2024-05-16_17h12.01.051,jersey_experiment_5_v1,2023.2.2,Win32,85.47008547,,,,,,,,,,,,,,,,661.6586,663.4584,663.4584,663.9055,return,0.0474,,22.91666667,,,,,,FBP-YG-71.png,0.35,1.2,16,1,,,,,,,,,,,,,,,,,,0,26,26,15,1,,,,,,,,,,,,,,,,,,,,,,,
,,,,,V1_021,21,Female,2024-05-16_17h12.01.051,jersey_experiment_5_v1,2023.2.2,Win32,85.47008547,,,,,,,,,,,,,,,,663.9057,665.7054,665.7054,666.1057,return,0.0497,,25,,,,,,FBP-RB-19.png,0.37,1.2,57,1,,,,,,,,,,,,,,,,,,0,27,27,56,1,,,,,,,,,,,,,,,,,,,,,,,
,,,,,V1_021,21,Female,2024-05-16_17h12.01.051,jersey_experiment_5_v1,2023.2.2,Win32,85.47008547,,,,,,,,,,,,,,,,666.106,667.3999,667.3999,668.0587,return,0.0148,,24.73958333,,,,,,FBP-PT-17.png,0.35,1.2,1,0.5,,,,,,,,,,,,,,,,,,0,28,28,0,1,,,,,,,,,,,,,,,,,,,,,,,
,,,,,V1_021,21,Female,2024-05-16_17h12.01.051,jersey_experiment_5_v1,2023.2.2,Win32,85.47008547,,,,,,,,,,,,,,,,668.0589,669.8587,669.8587,670.4234,return,0.088,,74.609375,,,,,,FBP-YG-71.png,0.45,1.2,20,1,,,,,,,,,,,,,,,,,,0,29,29,19,1,,,,,,,,,,,,,,,,,,,,,,,
,,,,,V1_021,21,Female,2024-05-16_17h12.01.051,jersey_experiment_5_v1,2023.2.2,Win32,85.47008547,,,,,,,,,,,,,,,,670.4235,672.2237,672.2237,672.953,return,0.0408,,42.44791667,,,,,,FBP-YG-81.png,0.4,1.2,23,1,,,,,,,,,,,,,,,,,,0,30,30,22,1,,,,,,,,,,,,,,,,,,,,,,,
,,,,,V1_021,21,Female,2024-05-16_17h12.01.051,jersey_experiment_5_v1,2023.2.2,Win32,85.47008547,,,,,,,,,,,,,,,,672.9533,674.2471,674.2471,674.7294,return,0.0286,,61.19791667,,,,,,FBP-PT-18.png,0.45,1.2,10,0.5,,,,,,,,,,,,,,,,,,0,31,31,9,1,,,,,,,,,,,,,,,,,,,,,,,
,,,,,V1_021,21,Female,2024-05-16_17h12.01.051,jersey_experiment_5_v1,2023.2.2,Win32,85.47008547,,,,,,,,,,,,,,,,674.7296,676.0235,676.0235,676.6827,return,0.0274,,47.91666667,,,,,,FBP-PT-19.png,0.37,1.2,12,0.5,,,,,,,,,,,,,,,,,,0,32,32,11,1,,,,,,,,,,,,,,,,,,,,,,,
,,,,,V1_021,21,Female,2024-05-16_17h12.01.051,jersey_experiment_5_v1,2023.2.2,Win32,85.47008547,,,,,,,,,,,,,,,,676.6829,677.9766,677.9767,678.5413,return,0.0355,,63.93229167,,,,,,FBP-PT-19.png,0.45,1.2,15,0.5,,,,,,,,,,,,,,,,,,0,33,33,14,1,,,,,,,,,,,,,,,,,,,,,,,
,,,,,V1_021,21,Female,2024-05-16_17h12.01.051,jersey_experiment_5_v1,2023.2.2,Win32,85.47008547,,,,,,,,,,,,,,,,678.5414,680.3415,680.3415,680.718,return,0.0237,,35.28645833,,,,,,FBP-OG-81.png,0.35,1.2,36,1,,,,,,,,,,,,,,,,,,0,34,34,35,1,,,,,,,,,,,,,,,,,,,,,,,
,,,,,V1_021,21,Female,2024-05-16_17h12.01.051,jersey_experiment_5_v1,2023.2.2,Win32,85.47008547,,,,,,,,,,,,,,,,680.7182,682.5178,682.5178,682.9532,return,0.0745,,32.421875,,,,,,FBP-OG-81.png,0.37,1.2,37,1,,,,,,,,,,,,,,,,,,0,35,35,36,1,,,,,,,,,,,,,,,,,,,,,,,
,,,,,V1_021,21,Female,2024-05-16_17h12.01.051,jersey_experiment_5_v1,2023.2.2,Win32,85.47008547,,,,,,,,,,,,,,,,682.9535,684.2475,684.2475,684.7532,return,0.0475,,33.72395833,,,,,,FBP-PT-19.png,0.35,1.2,11,0.5,,,,,,,,,,,,,,,,,,0,36,36,10,1,,,,,,,,,,,,,,,,,,,,,,,
,,,,,V1_021,21,Female,2024-05-16_17h12.01.051,jersey_experiment_5_v1,2023.2.2,Win32,85.47008547,,,,,,,,,,,,,,,,684.7534,686.5535,686.5535,686.9886,return,0.096,,33.85416667,,,,,,FBP-OG-91.png,0.4,1.2,43,1,,,,,,,,,,,,,,,,,,0,37,37,42,1,,,,,,,,,,,,,,,,,,,,,,,
,,,,,V1_021,21,Female,2024-05-16_17h12.01.051,jersey_experiment_5_v1,2023.2.2,Win32,85.47008547,,,,,,,,,,,,,,,,686.9889,688.7888,688.7888,689.2122,return,0.0479,,33.85416667,,,,,,FBP-YG-81.png,0.37,1.2,22,1,,,,,,,,,,,,,,,,,,0,38,38,21,1,,,,,,,,,,,,,,,,,,,,,,,
,,,,,V1_021,21,Female,2024-05-16_17h12.01.051,jersey_experiment_5_v1,2023.2.2,Win32,85.47008547,,,,,,,,,,,,,,,,689.2125,691.0123,691.0123,691.8829,return,0.0741,,74.21875,,,,,,FBP-OG-81.png,0.45,1.2,40,1,,,,,,,,,,,,,,,,,,0,39,39,39,1,,,,,,,,,,,,,,,,,,,,,,,
,,,,,V1_021,21,Female,2024-05-16_17h12.01.051,jersey_experiment_5_v1,2023.2.2,Win32,85.47008547,,,,,,,,,,,,,,,,691.883,693.683,693.683,694.0948,return,0.0804,,75.26041667,,,,,,FBP-OG-91.png,0.45,1.2,45,1,,,,,,,,,,,,,,,,,,0,40,40,44,1,,,,,,,,,,,,,,,,,,,,,,,
,,,,,V1_021,21,Female,2024-05-16_17h12.01.051,jersey_experiment_5_v1,2023.2.2,Win32,85.47008547,,,,,,,,,,,,,,,,694.0948,695.389,695.389,696.095,return,0.0471,,41.53645833,,,,,,FBP-PT-17.png,0.37,1.2,2,0.5,,,,,,,,,,,,,,,,,,0,41,41,1,1,,,,,,,,,,,,,,,,,,,,,,,
,,,,,V1_021,21,Female,2024-05-16_17h12.01.051,jersey_experiment_5_v1,2023.2.2,Win32,85.47008547,,,,,,,,,,,,,,,,696.0952,697.3889,697.389,697.9537,return,0.0935,,39.84375,,,,,,FBP-PT-18.png,0.37,1.2,7,0.5,,,,,,,,,,,,,,,,,,0,42,42,6,1,,,,,,,,,,,,,,,,,,,,,,,
,,,,,V1_021,21,Female,2024-05-16_17h12.01.051,jersey_experiment_5_v1,2023.2.2,Win32,85.47008547,,,,,,,,,,,,,,,,697.9539,699.7539,699.7539,700.1774,return,0.0839,,39.97395833,,,,,,FBP-OG-91.png,0.43,1.2,44,1,,,,,,,,,,,,,,,,,,0,43,43,43,1,,,,,,,,,,,,,,,,,,,,,,,
,,,,,V1_021,21,Female,2024-05-16_17h12.01.051,jersey_experiment_5_v1,2023.2.2,Win32,85.47008547,,,,,,,,,,,,,,,,700.1775,701.9776,701.9776,702.5422,return,0.1038,,20.703125,,,,,,FBP-RB-19.png,0.35,1.2,56,1,,,,,,,,,,,,,,,,,,0,44,44,55,1,,,,,,,,,,,,,,,,,,,,,,,
,,,,,V1_021,21,Female,2024-05-16_17h12.01.051,jersey_experiment_5_v1,2023.2.2,Win32,85.47008547,,,,,,,,,,,,,,,,702.5424,703.8364,703.8365,704.319,return,0.0356,,40.49479167,,,,,,FBP-PT-17.png,0.4,1.2,3,0.5,,,,,,,,,,,,,,,,,,0,45,45,2,1,,,,,,,,,,,,,,,,,,,,,,,
,,,,,V1_021,21,Female,2024-05-16_17h12.01.051,jersey_experiment_5_v1,2023.2.2,Win32,85.47008547,,,,,,,,,,,,,,,,704.3192,706.1186,706.1186,706.8718,return,0.3701,,9.375,,,,,,FBP-RB-18.png,0.37,1.2,52,1,,,,,,,,,,,,,,,,,,0,46,46,51,1,,,,,,,,,,,,,,,,,,,,,,,
,,,,,V1_021,21,Female,2024-05-16_17h12.01.051,jersey_experiment_5_v1,2023.2.2,Win32,85.47008547,,,,,,,,,,,,,,,,706.872,708.6719,708.6719,709.5306,return,0.0044,,80.59895833,,,,,,FBP-RB-17.png,0.45,1.2,50,1,,,,,,,,,,,,,,,,,,0,47,47,49,1,,,,,,,,,,,,,,,,,,,,,,,
,,,,,V1_021,21,Female,2024-05-16_17h12.01.051,jersey_experiment_5_v1,2023.2.2,Win32,85.47008547,,,,,,,,,,,,,,,,709.5309,711.3309,711.3309,711.9425,return,0.0197,,18.359375,,,,,,FBP-OG-91.png,0.35,1.2,41,1,,,,,,,,,,,,,,,,,,0,48,48,40,1,,,,,,,,,,,,,,,,,,,,,,,
,,,,,V1_021,21,Female,2024-05-16_17h12.01.051,jersey_experiment_5_v1,2023.2.2,Win32,85.47008547,,,,,,,,,,,,,,,,711.9427,713.7426,713.7426,714.672,return,0.0361,,47.78645833,,,,,,FBP-OG-71.png,0.4,1.2,33,1,,,,,,,,,,,,,,,,,,0,49,49,32,1,,,,,,,,,,,,,,,,,,,,,,,
,,,,,V1_021,21,Female,2024-05-16_17h12.01.051,jersey_experiment_5_v1,2023.2.2,Win32,85.47008547,,,,,,,,,,,,,,,,714.6722,716.4721,716.4721,717.4722,return,0.3193,,24.73958333,,,,,,FBP-YG-91.png,0.35,1.2,26,1,,,,,,,,,,,,,,,,,,0,50,50,25,1,,,,,,,,,,,,,,,,,,,,,,,
,,,,,V1_021,21,Female,2024-05-16_17h12.01.051,jersey_experiment_5_v1,2023.2.2,Win32,85.47008547,,,,,,,,,,,,,,,,717.4724,719.2721,719.2721,719.8368,return,0.0116,,73.69791667,,,,,,FBP-RB-18.png,0.43,1.2,54,1,,,,,,,,,,,,,,,,,,0,51,51,53,1,,,,,,,,,,,,,,,,,,,,,,,
,,,,,V1_021,21,Female,2024-05-16_17h12.01.051,jersey_experiment_5_v1,2023.2.2,Win32,85.47008547,,,,,,,,,,,,,,,,719.8369,721.6371,721.6371,722.2721,return,0.0133,,33.85416667,,,,,,FBP-YG-71.png,0.37,1.2,17,1,,,,,,,,,,,,,,,,,,0,52,52,16,1,,,,,,,,,,,,,,,,,,,,,,,
,,,,,V1_021,21,Female,2024-05-16_17h12.01.051,jersey_experiment_5_v1,2023.2.2,Win32,85.47008547,,,,,,,,,,,,,,,,722.2724,724.0726,724.0726,724.59,return,0.0343,,72.39583333,,,,,,FBP-RB-19.png,0.43,1.2,59,1,,,,,,,,,,,,,,,,,,0,53,53,58,1,,,,,,,,,,,,,,,,,,,,,,,
,,,,,V1_021,21,Female,2024-05-16_17h12.01.051,jersey_experiment_5_v1,2023.2.2,Win32,85.47008547,,,,,,,,,,,,,,,,724.5901,726.3902,726.3902,726.7903,return,0.0438,,76.171875,,,,,,FBP-YG-91.png,0.4,1.2,28,1,,,,,,,,,,,,,,,,,,0,54,54,27,1,,,,,,,,,,,,,,,,,,,,,,,
,,,,,V1_021,21,Female,2024-05-16_17h12.01.051,jersey_experiment_5_v1,2023.2.2,Win32,85.47008547,,,,,,,,,,,,,,,,726.7905,728.5902,728.5902,729.1901,return,0.02,,78.38541667,,,,,,FBP-RB-18.png,0.4,1.2,53,1,,,,,,,,,,,,,,,,,,0,55,55,52,1,,,,,,,,,,,,,,,,,,,,,,,
,,,,,V1_021,21,Female,2024-05-16_17h12.01.051,jersey_experiment_5_v1,2023.2.2,Win32,85.47008547,,,,,,,,,,,,,,,,729.1903,730.9902,730.9902,731.4256,return,0.0375,,90.234375,,,,,,FBP-YG-71.png,0.43,1.2,19,1,,,,,,,,,,,,,,,,,,0,56,56,18,1,,,,,,,,,,,,,,,,,,,,,,,
,,,,,V1_021,21,Female,2024-05-16_17h12.01.051,jersey_experiment_5_v1,2023.2.2,Win32,85.47008547,,,,,,,,,,,,,,,,731.4259,733.2256,733.2257,733.7432,return,0.0576,,94.53125,,,,,,FBP-OG-71.png,0.45,1.2,35,1,,,,,,,,,,,,,,,,,,0,57,57,34,1,,,,,,,,,,,,,,,,,,,,,,,
,,,,,V1_021,21,Female,2024-05-16_17h12.01.051,jersey_experiment_5_v1,2023.2.2,Win32,85.47008547,,,,,,,,,,,,,,,,733.7434,735.5435,735.5435,735.9318,return,0.0358,,94.53125,,,,,,FBP-OG-71.png,0.43,1.2,34,1,,,,,,,,,,,,,,,,,,0,58,58,33,1,,,,,,,,,,,,,,,,,,,,,,,
,,,,,V1_021,21,Female,2024-05-16_17h12.01.051,jersey_experiment_5_v1,2023.2.2,Win32,85.47008547,,,,,,,,,,,,,,,,735.9319,737.7317,737.7318,738.167,return,0.0178,,94.53125,,,,,,FBP-OG-81.png,0.4,1.2,38,1,,,,,,,,,,,,,,,,,,0,59,59,37,1,,,,,,,,,,,,,,,,,,,,,,,
,,,,,V1_021,21,Female,2024-05-16_17h12.01.051,jersey_experiment_5_v1,2023.2.2,Win32,85.47008547,,,,,,,,,,,,,,,,,,,,,,,,,,,,,,,,,,,,,,,,,,,,,,,,,,,,,,,,738.1673,742.379,return,4.2021,,,,,,,,,,,,,,,,,,,
,,,,,V1_021,21,Female,2024-05-16_17h12.01.051,jersey_experiment_5_v1,2023.2.2,Win32,85.47008547,,,,,,,,,,,,,,,,,,,,,,,,,,,,,,,,,,,,,,,,,,,,,,,,,,,,,,,,,,,,,742.3792,747.1323,1,3.6472,return,1.0844,,,,,,,,,,,,
,,,,,V1_021,21,Female,2024-05-16_17h12.01.051,jersey_experiment_5_v1,2023.2.2,Win32,85.47008547,,,,,,,,,,,,,,,,,,,,,,,,,,,,,,,,,,,,,,,,,,,,,,,,,,,,,,,,,,,,,,,,,,,,747.1324,765.7143,color and number in relation to perception of size,right,10.3907,,,,,,
,,,,,V1_021,21,Female,2024-05-16_17h12.01.051,jersey_experiment_5_v1,2023.2.2,Win32,85.47008547,,,,,,,,,,,,,,,,,,,,,,,,,,,,,,,,,,,,,,,,,,,,,,,,,,,,,,,,,,,,,,,,,,,,,,,,,,765.7144,769.1683,return,3.4429,