requirements.started,requirements.stopped,key_resp_3.keys,key_resp_3.rt,key_resp_3.duration,Subject ID,Age,Gender,date,expName,psychopyVersion,OS,frameRate,instructions1.started,instructions1.stopped,key_resp.keys,key_resp.rt,key_resp.duration,example.started,example.stopped,enter_2.keys,enter_2.rt,enter_2.duration,instructions2.started,instructions2.stopped,enter_3.keys,enter_3.rt,enter_3.duration,image.started,image.stopped,slider_2.started,slider_2.stopped,next.keys,next.rt,next.duration,slider.response,trial_block_1.thisRepN,trial_block_1.thisTrialN,trial_block_1.thisN,trial_block_1.thisIndex,trial_block_1.ran,Path,Width,Height,Index,Duration,trial_block_2.thisRepN,trial_block_2.thisTrialN,trial_block_2.thisN,trial_block_2.thisIndex,trial_block_2.ran,rest_break.started,rest_break.stopped,end_break.started,end_break.stopped,key_resp_5.keys,key_resp_5.rt,key_resp_5.duration,trial_block_3.thisRepN,trial_block_3.thisTrialN,trial_block_3.thisN,trial_block_3.thisIndex,trial_block_3.ran,trial_block_4.thisRepN,trial_block_4.thisTrialN,trial_block_4.thisN,trial_block_4.thisIndex,trial_block_4.ran,questions_intro.started,questions_intro.stopped,enter_12.keys,enter_12.rt,enter_12.duration,question2.started,question2.stopped,question_doingbest.response,question_doingbest.rt,enter_15.keys,enter_15.rt,enter_15.duration,pattern.started,pattern.stopped,pattern_2.text,enter_17.keys,enter_17.rt,enter_17.duration,thankyou.started,thankyou.stopped,enter_14.keys,enter_14.rt,enter_14.duration
1E-04,40.0852,return,40.0803,,V1_024,20,F,2024-05-17_11h04.47.413,jersey_experiment_5_v1,2023.2.2,Win32,84.74576271,,,,,,,,,,,,,,,,,,,,,,,,,,,,,,,,,,,,,,,,,,,,,,,,,,,,,,,,,,,,,,,,,,,,,,,,,,,,,,
,,,,,V1_024,20,F,2024-05-17_11h04.47.413,jersey_experiment_5_v1,2023.2.2,Win32,84.74576271,40.0853,44.6602,return,4.558,,,,,,,,,,,,,,,,,,,,,,,,,,,,,,,,,,,,,,,,,,,,,,,,,,,,,,,,,,,,,,,,,,,,,,,,,,
,,,,,V1_024,20,F,2024-05-17_11h04.47.413,jersey_experiment_5_v1,2023.2.2,Win32,84.74576271,,,,,,44.6603,48.4722,return,3.7688,,,,,,,,,,,,,,,,,,,,,,,,,,,,,,,,,,,,,,,,,,,,,,,,,,,,,,,,,,,,,,,,,,,,,
,,,,,V1_024,20,F,2024-05-17_11h04.47.413,jersey_experiment_5_v1,2023.2.2,Win32,84.74576271,,,,,,,,,,,48.4723,69.9435,return,21.4597,,,,,,,,,,,,,,,,,,,,,,,,,,,,,,,,,,,,,,,,,,,,,,,,,,,,,,,,,,,,,,,,
,,,,,V1_024,20,F,2024-05-17_11h04.47.413,jersey_experiment_5_v1,2023.2.2,Win32,84.74576271,,,,,,,,,,,,,,,,69.9508,71.7434,71.7435,79.2379,return,2.3799,,50.26041667,0,0,0,11,1,FBP-PT-91.png,0.37,1.2,12,1,,,,,,,,,,,,,,,,,,,,,,,,,,,,,,,,,,,,,,,,,,,,,
,,,,,V1_024,20,F,2024-05-17_11h04.47.413,jersey_experiment_5_v1,2023.2.2,Win32,84.74576271,,,,,,,,,,,,,,,,79.2383,80.5318,80.5318,84.1673,return,1.482,,75.65104167,0,1,1,58,1,FBP-RB-91.png,0.43,1.2,59,0.5,,,,,,,,,,,,,,,,,,,,,,,,,,,,,,,,,,,,,,,,,,,,,
,,,,,V1_024,20,F,2024-05-17_11h04.47.413,jersey_experiment_5_v1,2023.2.2,Win32,84.74576271,,,,,,,,,,,,,,,,84.1675,85.4615,85.4616,89.1204,return,2.1363,,50.52083333,0,2,2,46,1,FBP-RB-71.png,0.37,1.2,47,0.5,,,,,,,,,,,,,,,,,,,,,,,,,,,,,,,,,,,,,,,,,,,,,
,,,,,V1_024,20,F,2024-05-17_11h04.47.413,jersey_experiment_5_v1,2023.2.2,Win32,84.74576271,,,,,,,,,,,,,,,,89.1206,90.4146,90.4146,95.9442,return,1.9072,,63.41145833,0,3,3,26,1,FBP-YG-19.png,0.37,1.2,27,0.5,,,,,,,,,,,,,,,,,,,,,,,,,,,,,,,,,,,,,,,,,,,,,
,,,,,V1_024,20,F,2024-05-17_11h04.47.413,jersey_experiment_5_v1,2023.2.2,Win32,84.74576271,,,,,,,,,,,,,,,,95.9445,97.7444,97.7444,101.3678,return,1.7317,,88.02083333,0,4,4,13,1,FBP-PT-91.png,0.43,1.2,14,1,,,,,,,,,,,,,,,,,,,,,,,,,,,,,,,,,,,,,,,,,,,,,
,,,,,V1_024,20,F,2024-05-17_11h04.47.413,jersey_experiment_5_v1,2023.2.2,Win32,84.74576271,,,,,,,,,,,,,,,,101.3681,102.6621,102.6621,105.0974,return,0.894,,37.76041667,0,5,5,20,1,FBP-YG-18.png,0.35,1.2,21,0.5,,,,,,,,,,,,,,,,,,,,,,,,,,,,,,,,,,,,,,,,,,,,,
,,,,,V1_024,20,F,2024-05-17_11h04.47.413,jersey_experiment_5_v1,2023.2.2,Win32,84.74576271,,,,,,,,,,,,,,,,105.0975,106.3918,106.3918,108.3094,return,0.5427,,50.52083333,0,6,6,30,1,FBP-OG-17.png,0.35,1.2,31,0.5,,,,,,,,,,,,,,,,,,,,,,,,,,,,,,,,,,,,,,,,,,,,,
,,,,,V1_024,20,F,2024-05-17_11h04.47.413,jersey_experiment_5_v1,2023.2.2,Win32,84.74576271,,,,,,,,,,,,,,,,108.3096,109.6037,109.6038,111.4505,return,0.4327,,55.98958333,0,7,7,15,1,FBP-YG-17.png,0.35,1.2,16,0.5,,,,,,,,,,,,,,,,,,,,,,,,,,,,,,,,,,,,,,,,,,,,,
,,,,,V1_024,20,F,2024-05-17_11h04.47.413,jersey_experiment_5_v1,2023.2.2,Win32,84.74576271,,,,,,,,,,,,,,,,111.4507,112.7448,112.7448,115.0154,return,0.6026,,96.484375,0,8,8,33,1,FBP-OG-17.png,0.43,1.2,34,0.5,,,,,,,,,,,,,,,,,,,,,,,,,,,,,,,,,,,,,,,,,,,,,
,,,,,V1_024,20,F,2024-05-17_11h04.47.413,jersey_experiment_5_v1,2023.2.2,Win32,84.74576271,,,,,,,,,,,,,,,,115.0157,116.3097,116.3097,118.298,return,0.6828,,86.84895833,0,9,9,22,1,FBP-YG-18.png,0.4,1.2,23,0.5,,,,,,,,,,,,,,,,,,,,,,,,,,,,,,,,,,,,,,,,,,,,,
,,,,,V1_024,20,F,2024-05-17_11h04.47.413,jersey_experiment_5_v1,2023.2.2,Win32,84.74576271,,,,,,,,,,,,,,,,118.2983,119.592,119.592,121.5921,return,0.3777,,93.359375,0,10,10,47,1,FBP-RB-71.png,0.4,1.2,48,0.5,,,,,,,,,,,,,,,,,,,,,,,,,,,,,,,,,,,,,,,,,,,,,
,,,,,V1_024,20,F,2024-05-17_11h04.47.413,jersey_experiment_5_v1,2023.2.2,Win32,84.74576271,,,,,,,,,,,,,,,,121.5924,122.8865,122.8865,124.522,return,0.4851,,99.86979167,0,11,11,44,1,FBP-OG-19.png,0.45,1.2,45,0.5,,,,,,,,,,,,,,,,,,,,,,,,,,,,,,,,,,,,,,,,,,,,,
,,,,,V1_024,20,F,2024-05-17_11h04.47.413,jersey_experiment_5_v1,2023.2.2,Win32,84.74576271,,,,,,,,,,,,,,,,124.5222,125.8158,125.8158,128.2278,return,0.6269,,99.86979167,0,12,12,24,1,FBP-YG-18.png,0.45,1.2,25,0.5,,,,,,,,,,,,,,,,,,,,,,,,,,,,,,,,,,,,,,,,,,,,,
,,,,,V1_024,20,F,2024-05-17_11h04.47.413,jersey_experiment_5_v1,2023.2.2,Win32,84.74576271,,,,,,,,,,,,,,,,128.228,129.5218,129.5218,133.6753,return,2.6359,,57.03125,0,13,13,51,1,FBP-RB-81.png,0.37,1.2,52,0.5,,,,,,,,,,,,,,,,,,,,,,,,,,,,,,,,,,,,,,,,,,,,,
,,,,,V1_024,20,F,2024-05-17_11h04.47.413,jersey_experiment_5_v1,2023.2.2,Win32,84.74576271,,,,,,,,,,,,,,,,133.6755,135.4749,135.475,138.3929,return,1.3041,,51.171875,0,14,14,0,1,FBP-PT-71.png,0.35,1.2,1,1,,,,,,,,,,,,,,,,,,,,,,,,,,,,,,,,,,,,,,,,,,,,,
,,,,,V1_024,20,F,2024-05-17_11h04.47.413,jersey_experiment_5_v1,2023.2.2,Win32,84.74576271,,,,,,,,,,,,,,,,138.3931,140.1932,140.1932,142.2282,return,0.7674,,99.86979167,0,15,15,3,1,FBP-PT-71.png,0.43,1.2,4,1,,,,,,,,,,,,,,,,,,,,,,,,,,,,,,,,,,,,,,,,,,,,,
,,,,,V1_024,20,F,2024-05-17_11h04.47.413,jersey_experiment_5_v1,2023.2.2,Win32,84.74576271,,,,,,,,,,,,,,,,142.2283,143.5224,143.5224,145.1226,return,0.6183,,99.609375,0,16,16,18,1,FBP-YG-17.png,0.43,1.2,19,0.5,,,,,,,,,,,,,,,,,,,,,,,,,,,,,,,,,,,,,,,,,,,,,
,,,,,V1_024,20,F,2024-05-17_11h04.47.413,jersey_experiment_5_v1,2023.2.2,Win32,84.74576271,,,,,,,,,,,,,,,,145.1228,146.9227,146.9228,148.1344,return,0.3327,,99.86979167,0,17,17,14,1,FBP-PT-91.png,0.45,1.2,15,1,,,,,,,,,,,,,,,,,,,,,,,,,,,,,,,,,,,,,,,,,,,,,
,,,,,V1_024,20,F,2024-05-17_11h04.47.413,jersey_experiment_5_v1,2023.2.2,Win32,84.74576271,,,,,,,,,,,,,,,,148.1346,149.9346,149.9346,152.4993,return,0.4506,,51.04166667,0,18,18,5,1,FBP-PT-81.png,0.35,1.2,6,1,,,,,,,,,,,,,,,,,,,,,,,,,,,,,,,,,,,,,,,,,,,,,
,,,,,V1_024,20,F,2024-05-17_11h04.47.413,jersey_experiment_5_v1,2023.2.2,Win32,84.74576271,,,,,,,,,,,,,,,,152.4994,153.7935,153.7936,155.9698,return,0.4639,,50,0,19,19,35,1,FBP-OG-18.png,0.35,1.2,36,0.5,,,,,,,,,,,,,,,,,,,,,,,,,,,,,,,,,,,,,,,,,,,,,
,,,,,V1_024,20,F,2024-05-17_11h04.47.413,jersey_experiment_5_v1,2023.2.2,Win32,84.74576271,,,,,,,,,,,,,,,,155.97,157.7701,157.7701,159.7819,return,0.3096,,74.86979167,0,20,20,8,1,FBP-PT-81.png,0.43,1.2,9,1,,,,,,,,,,,,,,,,,,,,,,,,,,,,,,,,,,,,,,,,,,,,,
,,,,,V1_024,20,F,2024-05-17_11h04.47.413,jersey_experiment_5_v1,2023.2.2,Win32,84.74576271,,,,,,,,,,,,,,,,159.7821,161.5819,161.582,164.3232,return,0.3687,,59.11458333,0,21,21,6,1,FBP-PT-81.png,0.37,1.2,7,1,,,,,,,,,,,,,,,,,,,,,,,,,,,,,,,,,,,,,,,,,,,,,
,,,,,V1_024,20,F,2024-05-17_11h04.47.413,jersey_experiment_5_v1,2023.2.2,Win32,84.74576271,,,,,,,,,,,,,,,,164.3234,165.6175,165.6175,168.0527,return,1.0148,,66.27604167,0,22,22,42,1,FBP-OG-19.png,0.4,1.2,43,0.5,,,,,,,,,,,,,,,,,,,,,,,,,,,,,,,,,,,,,,,,,,,,,
,,,,,V1_024,20,F,2024-05-17_11h04.47.413,jersey_experiment_5_v1,2023.2.2,Win32,84.74576271,,,,,,,,,,,,,,,,168.053,169.3468,169.3469,171.0412,return,0.2555,,67.70833333,0,23,23,27,1,FBP-YG-19.png,0.4,1.2,28,0.5,,,,,,,,,,,,,,,,,,,,,,,,,,,,,,,,,,,,,,,,,,,,,
,,,,,V1_024,20,F,2024-05-17_11h04.47.413,jersey_experiment_5_v1,2023.2.2,Win32,84.74576271,,,,,,,,,,,,,,,,171.0414,172.3352,172.3352,174.453,return,0.4725,,86.97916667,0,24,24,17,1,FBP-YG-17.png,0.4,1.2,18,0.5,,,,,,,,,,,,,,,,,,,,,,,,,,,,,,,,,,,,,,,,,,,,,
,,,,,V1_024,20,F,2024-05-17_11h04.47.413,jersey_experiment_5_v1,2023.2.2,Win32,84.74576271,,,,,,,,,,,,,,,,174.4532,175.7472,175.7472,178.2297,return,0.5309,,99.73958333,0,25,25,57,1,FBP-RB-91.png,0.4,1.2,58,0.5,,,,,,,,,,,,,,,,,,,,,,,,,,,,,,,,,,,,,,,,,,,,,
,,,,,V1_024,20,F,2024-05-17_11h04.47.413,jersey_experiment_5_v1,2023.2.2,Win32,84.74576271,,,,,,,,,,,,,,,,178.2299,179.5237,179.5237,181.5708,return,0.51,,87.5,0,26,26,56,1,FBP-RB-91.png,0.37,1.2,57,0.5,,,,,,,,,,,,,,,,,,,,,,,,,,,,,,,,,,,,,,,,,,,,,
,,,,,V1_024,20,F,2024-05-17_11h04.47.413,jersey_experiment_5_v1,2023.2.2,Win32,84.74576271,,,,,,,,,,,,,,,,181.571,183.3712,183.3712,184.8887,return,0.1891,,88.28125,0,27,27,7,1,FBP-PT-81.png,0.4,1.2,8,1,,,,,,,,,,,,,,,,,,,,,,,,,,,,,,,,,,,,,,,,,,,,,
,,,,,V1_024,20,F,2024-05-17_11h04.47.413,jersey_experiment_5_v1,2023.2.2,Win32,84.74576271,,,,,,,,,,,,,,,,184.889,186.6888,186.6888,188.1949,return,0.3716,,99.34895833,0,28,28,9,1,FBP-PT-81.png,0.45,1.2,10,1,,,,,,,,,,,,,,,,,,,,,,,,,,,,,,,,,,,,,,,,,,,,,
,,,,,V1_024,20,F,2024-05-17_11h04.47.413,jersey_experiment_5_v1,2023.2.2,Win32,84.74576271,,,,,,,,,,,,,,,,188.1951,189.4889,189.4889,191.0422,return,0.4431,,99.73958333,0,29,29,59,1,FBP-RB-91.png,0.45,1.2,60,0.5,,,,,,,,,,,,,,,,,,,,,,,,,,,,,,,,,,,,,,,,,,,,,
,,,,,V1_024,20,F,2024-05-17_11h04.47.413,jersey_experiment_5_v1,2023.2.2,Win32,84.74576271,,,,,,,,,,,,,,,,191.0424,192.336,192.336,194.2302,return,0.6717,,98.95833333,0,30,30,49,1,FBP-RB-71.png,0.45,1.2,50,0.5,,,,,,,,,,,,,,,,,,,,,,,,,,,,,,,,,,,,,,,,,,,,,
,,,,,V1_024,20,F,2024-05-17_11h04.47.413,jersey_experiment_5_v1,2023.2.2,Win32,84.74576271,,,,,,,,,,,,,,,,194.2304,195.5245,195.5245,197.4893,return,0.265,,75.13020833,0,31,31,37,1,FBP-OG-18.png,0.4,1.2,38,0.5,,,,,,,,,,,,,,,,,,,,,,,,,,,,,,,,,,,,,,,,,,,,,
,,,,,V1_024,20,F,2024-05-17_11h04.47.413,jersey_experiment_5_v1,2023.2.2,Win32,84.74576271,,,,,,,,,,,,,,,,197.4895,198.7834,198.7834,200.9363,return,1.0459,,99.08854167,0,32,32,29,1,FBP-YG-19.png,0.45,1.2,30,0.5,,,,,,,,,,,,,,,,,,,,,,,,,,,,,,,,,,,,,,,,,,,,,
,,,,,V1_024,20,F,2024-05-17_11h04.47.413,jersey_experiment_5_v1,2023.2.2,Win32,84.74576271,,,,,,,,,,,,,,,,200.9364,202.2305,202.2305,204.313,return,0.659,,99.86979167,0,33,33,19,1,FBP-YG-17.png,0.45,1.2,20,0.5,,,,,,,,,,,,,,,,,,,,,,,,,,,,,,,,,,,,,,,,,,,,,
,,,,,V1_024,20,F,2024-05-17_11h04.47.413,jersey_experiment_5_v1,2023.2.2,Win32,84.74576271,,,,,,,,,,,,,,,,204.3132,205.607,205.6071,206.7718,return,0.3677,,99.86979167,0,34,34,53,1,FBP-RB-81.png,0.43,1.2,54,0.5,,,,,,,,,,,,,,,,,,,,,,,,,,,,,,,,,,,,,,,,,,,,,
,,,,,V1_024,20,F,2024-05-17_11h04.47.413,jersey_experiment_5_v1,2023.2.2,Win32,84.74576271,,,,,,,,,,,,,,,,206.7721,208.0659,208.0659,209.5719,return,0.3348,,89.84375,0,35,35,43,1,FBP-OG-19.png,0.43,1.2,44,0.5,,,,,,,,,,,,,,,,,,,,,,,,,,,,,,,,,,,,,,,,,,,,,
,,,,,V1_024,20,F,2024-05-17_11h04.47.413,jersey_experiment_5_v1,2023.2.2,Win32,84.74576271,,,,,,,,,,,,,,,,209.572,211.3721,211.3721,213.2546,return,0.2126,,44.40104167,0,36,36,10,1,FBP-PT-91.png,0.35,1.2,11,1,,,,,,,,,,,,,,,,,,,,,,,,,,,,,,,,,,,,,,,,,,,,,
,,,,,V1_024,20,F,2024-05-17_11h04.47.413,jersey_experiment_5_v1,2023.2.2,Win32,84.74576271,,,,,,,,,,,,,,,,213.2547,214.5486,214.5487,216.0663,return,0.2046,,46.74479167,0,37,37,40,1,FBP-OG-19.png,0.35,1.2,41,0.5,,,,,,,,,,,,,,,,,,,,,,,,,,,,,,,,,,,,,,,,,,,,,
,,,,,V1_024,20,F,2024-05-17_11h04.47.413,jersey_experiment_5_v1,2023.2.2,Win32,84.74576271,,,,,,,,,,,,,,,,216.0665,217.3605,217.3605,219.596,return,0.292,,86.71875,0,38,38,39,1,FBP-OG-18.png,0.45,1.2,40,0.5,,,,,,,,,,,,,,,,,,,,,,,,,,,,,,,,,,,,,,,,,,,,,
,,,,,V1_024,20,F,2024-05-17_11h04.47.413,jersey_experiment_5_v1,2023.2.2,Win32,84.74576271,,,,,,,,,,,,,,,,219.5962,220.89,220.89,222.5842,return,0.2837,,50.390625,0,39,39,25,1,FBP-YG-19.png,0.35,1.2,26,0.5,,,,,,,,,,,,,,,,,,,,,,,,,,,,,,,,,,,,,,,,,,,,,
,,,,,V1_024,20,F,2024-05-17_11h04.47.413,jersey_experiment_5_v1,2023.2.2,Win32,84.74576271,,,,,,,,,,,,,,,,222.5843,223.8783,223.8783,226.1959,return,0.2054,,62.36979167,0,40,40,41,1,FBP-OG-19.png,0.37,1.2,42,0.5,,,,,,,,,,,,,,,,,,,,,,,,,,,,,,,,,,,,,,,,,,,,,
,,,,,V1_024,20,F,2024-05-17_11h04.47.413,jersey_experiment_5_v1,2023.2.2,Win32,84.74576271,,,,,,,,,,,,,,,,226.1962,227.4902,227.4902,229.6903,return,0.3534,,69.140625,0,41,41,32,1,FBP-OG-17.png,0.4,1.2,33,0.5,,,,,,,,,,,,,,,,,,,,,,,,,,,,,,,,,,,,,,,,,,,,,
,,,,,V1_024,20,F,2024-05-17_11h04.47.413,jersey_experiment_5_v1,2023.2.2,Win32,84.74576271,,,,,,,,,,,,,,,,229.6906,231.4906,231.4907,232.8432,return,0.3058,,78.64583333,0,42,42,2,1,FBP-PT-71.png,0.4,1.2,3,1,,,,,,,,,,,,,,,,,,,,,,,,,,,,,,,,,,,,,,,,,,,,,
,,,,,V1_024,20,F,2024-05-17_11h04.47.413,jersey_experiment_5_v1,2023.2.2,Win32,84.74576271,,,,,,,,,,,,,,,,232.8434,234.1375,234.1375,235.9142,return,0.1655,,49.34895833,0,43,43,31,1,FBP-OG-17.png,0.37,1.2,32,0.5,,,,,,,,,,,,,,,,,,,,,,,,,,,,,,,,,,,,,,,,,,,,,
,,,,,V1_024,20,F,2024-05-17_11h04.47.413,jersey_experiment_5_v1,2023.2.2,Win32,84.74576271,,,,,,,,,,,,,,,,235.9146,237.7143,237.7143,238.726,return,0.1778,,94.53125,0,44,44,4,1,FBP-PT-71.png,0.45,1.2,5,1,,,,,,,,,,,,,,,,,,,,,,,,,,,,,,,,,,,,,,,,,,,,,
,,,,,V1_024,20,F,2024-05-17_11h04.47.413,jersey_experiment_5_v1,2023.2.2,Win32,84.74576271,,,,,,,,,,,,,,,,238.7263,240.0203,240.0203,241.3848,return,0.2357,,95.57291667,0,45,45,23,1,FBP-YG-18.png,0.43,1.2,24,0.5,,,,,,,,,,,,,,,,,,,,,,,,,,,,,,,,,,,,,,,,,,,,,
,,,,,V1_024,20,F,2024-05-17_11h04.47.413,jersey_experiment_5_v1,2023.2.2,Win32,84.74576271,,,,,,,,,,,,,,,,241.3851,242.679,242.6791,244.8204,return,0.2167,,47.52604167,0,46,46,50,1,FBP-RB-81.png,0.35,1.2,51,0.5,,,,,,,,,,,,,,,,,,,,,,,,,,,,,,,,,,,,,,,,,,,,,
,,,,,V1_024,20,F,2024-05-17_11h04.47.413,jersey_experiment_5_v1,2023.2.2,Win32,84.74576271,,,,,,,,,,,,,,,,244.8207,246.1145,246.1145,250.0676,return,0.3213,,59.89583333,0,47,47,21,1,FBP-YG-18.png,0.37,1.2,22,0.5,,,,,,,,,,,,,,,,,,,,,,,,,,,,,,,,,,,,,,,,,,,,,
,,,,,V1_024,20,F,2024-05-17_11h04.47.413,jersey_experiment_5_v1,2023.2.2,Win32,84.74576271,,,,,,,,,,,,,,,,250.0677,251.8679,251.8679,254.3619,return,1.426,,53.90625,0,48,48,1,1,FBP-PT-71.png,0.37,1.2,2,1,,,,,,,,,,,,,,,,,,,,,,,,,,,,,,,,,,,,,,,,,,,,,
,,,,,V1_024,20,F,2024-05-17_11h04.47.413,jersey_experiment_5_v1,2023.2.2,Win32,84.74576271,,,,,,,,,,,,,,,,254.3622,255.6559,255.6559,257.7149,return,0.4161,,73.95833333,0,49,49,52,1,FBP-RB-81.png,0.4,1.2,53,0.5,,,,,,,,,,,,,,,,,,,,,,,,,,,,,,,,,,,,,,,,,,,,,
,,,,,V1_024,20,F,2024-05-17_11h04.47.413,jersey_experiment_5_v1,2023.2.2,Win32,84.74576271,,,,,,,,,,,,,,,,257.715,259.0091,259.0091,260.8682,return,0.6644,,99.86979167,0,50,50,54,1,FBP-RB-81.png,0.45,1.2,55,0.5,,,,,,,,,,,,,,,,,,,,,,,,,,,,,,,,,,,,,,,,,,,,,
,,,,,V1_024,20,F,2024-05-17_11h04.47.413,jersey_experiment_5_v1,2023.2.2,Win32,84.74576271,,,,,,,,,,,,,,,,260.8683,262.1623,262.1623,265.668,return,1.5913,,99.86979167,0,51,51,28,1,FBP-YG-19.png,0.43,1.2,29,0.5,,,,,,,,,,,,,,,,,,,,,,,,,,,,,,,,,,,,,,,,,,,,,
,,,,,V1_024,20,F,2024-05-17_11h04.47.413,jersey_experiment_5_v1,2023.2.2,Win32,84.74576271,,,,,,,,,,,,,,,,265.6681,266.9623,266.9624,268.5979,return,0.2511,,47.13541667,0,52,52,55,1,FBP-RB-91.png,0.35,1.2,56,0.5,,,,,,,,,,,,,,,,,,,,,,,,,,,,,,,,,,,,,,,,,,,,,
,,,,,V1_024,20,F,2024-05-17_11h04.47.413,jersey_experiment_5_v1,2023.2.2,Win32,84.74576271,,,,,,,,,,,,,,,,268.5981,269.8919,269.8919,272.3743,return,0.709,,99.86979167,0,53,53,48,1,FBP-RB-71.png,0.43,1.2,49,0.5,,,,,,,,,,,,,,,,,,,,,,,,,,,,,,,,,,,,,,,,,,,,,
,,,,,V1_024,20,F,2024-05-17_11h04.47.413,jersey_experiment_5_v1,2023.2.2,Win32,84.74576271,,,,,,,,,,,,,,,,272.3746,273.6683,273.6683,274.951,return,0.3059,,86.19791667,0,54,54,38,1,FBP-OG-18.png,0.43,1.2,39,0.5,,,,,,,,,,,,,,,,,,,,,,,,,,,,,,,,,,,,,,,,,,,,,
,,,,,V1_024,20,F,2024-05-17_11h04.47.413,jersey_experiment_5_v1,2023.2.2,Win32,84.74576271,,,,,,,,,,,,,,,,274.9512,276.2453,276.2453,279.0453,return,1.9219,,67.96875,0,55,55,36,1,FBP-OG-18.png,0.37,1.2,37,0.5,,,,,,,,,,,,,,,,,,,,,,,,,,,,,,,,,,,,,,,,,,,,,
,,,,,V1_024,20,F,2024-05-17_11h04.47.413,jersey_experiment_5_v1,2023.2.2,Win32,84.74576271,,,,,,,,,,,,,,,,279.0454,280.3394,280.3394,282.9865,return,0.7864,,99.73958333,0,56,56,34,1,FBP-OG-17.png,0.45,1.2,35,0.5,,,,,,,,,,,,,,,,,,,,,,,,,,,,,,,,,,,,,,,,,,,,,
,,,,,V1_024,20,F,2024-05-17_11h04.47.413,jersey_experiment_5_v1,2023.2.2,Win32,84.74576271,,,,,,,,,,,,,,,,282.9866,284.2808,284.2809,286.1159,return,0.3679,,50.26041667,0,57,57,16,1,FBP-YG-17.png,0.37,1.2,17,0.5,,,,,,,,,,,,,,,,,,,,,,,,,,,,,,,,,,,,,,,,,,,,,
,,,,,V1_024,20,F,2024-05-17_11h04.47.413,jersey_experiment_5_v1,2023.2.2,Win32,84.74576271,,,,,,,,,,,,,,,,286.116,287.41,287.41,288.7042,return,0.1125,,50.26041667,0,58,58,45,1,FBP-RB-71.png,0.35,1.2,46,0.5,,,,,,,,,,,,,,,,,,,,,,,,,,,,,,,,,,,,,,,,,,,,,
,,,,,V1_024,20,F,2024-05-17_11h04.47.413,jersey_experiment_5_v1,2023.2.2,Win32,84.74576271,,,,,,,,,,,,,,,,288.7045,290.5044,290.5044,292.3042,return,0.3007,,75.26041667,0,59,59,12,1,FBP-PT-91.png,0.4,1.2,13,1,,,,,,,,,,,,,,,,,,,,,,,,,,,,,,,,,,,,,,,,,,,,,
,,,,,V1_024,20,F,2024-05-17_11h04.47.413,jersey_experiment_5_v1,2023.2.2,Win32,84.74576271,,,,,,,,,,,,,,,,292.3064,293.5985,293.5985,295.7045,return,0.6822,,62.890625,,,,,,FBP-RB-19.png,0.37,1.2,57,0.5,0,0,0,56,1,,,,,,,,,,,,,,,,,,,,,,,,,,,,,,,,,,,,,,,,
,,,,,V1_024,20,F,2024-05-17_11h04.47.413,jersey_experiment_5_v1,2023.2.2,Win32,84.74576271,,,,,,,,,,,,,,,,295.7048,296.999,296.999,298.0106,return,0.2824,,57.55208333,,,,,,FBP-YG-71.png,0.35,1.2,16,0.5,0,1,1,15,1,,,,,,,,,,,,,,,,,,,,,,,,,,,,,,,,,,,,,,,,
,,,,,V1_024,20,F,2024-05-17_11h04.47.413,jersey_experiment_5_v1,2023.2.2,Win32,84.74576271,,,,,,,,,,,,,,,,298.0109,299.3049,299.3049,300.7753,return,0.5668,,69.921875,,,,,,FBP-RB-18.png,0.4,1.2,53,0.5,0,2,2,52,1,,,,,,,,,,,,,,,,,,,,,,,,,,,,,,,,,,,,,,,,
,,,,,V1_024,20,F,2024-05-17_11h04.47.413,jersey_experiment_5_v1,2023.2.2,Win32,84.74576271,,,,,,,,,,,,,,,,300.7754,302.5754,302.5754,304.552,return,0.8942,,99.73958333,,,,,,FBP-PT-19.png,0.45,1.2,15,1,0,3,3,14,1,,,,,,,,,,,,,,,,,,,,,,,,,,,,,,,,,,,,,,,,
,,,,,V1_024,20,F,2024-05-17_11h04.47.413,jersey_experiment_5_v1,2023.2.2,Win32,84.74576271,,,,,,,,,,,,,,,,304.5523,305.8463,305.8464,307.6815,return,0.2081,,41.27604167,,,,,,FBP-OG-91.png,0.35,1.2,41,0.5,0,4,4,40,1,,,,,,,,,,,,,,,,,,,,,,,,,,,,,,,,,,,,,,,,
,,,,,V1_024,20,F,2024-05-17_11h04.47.413,jersey_experiment_5_v1,2023.2.2,Win32,84.74576271,,,,,,,,,,,,,,,,307.6818,308.9758,308.9759,310.211,return,0.1476,,65.75520833,,,,,,FBP-OG-71.png,0.4,1.2,33,0.5,0,5,5,32,1,,,,,,,,,,,,,,,,,,,,,,,,,,,,,,,,,,,,,,,,
,,,,,V1_024,20,F,2024-05-17_11h04.47.413,jersey_experiment_5_v1,2023.2.2,Win32,84.74576271,,,,,,,,,,,,,,,,310.2112,311.5052,311.5053,313.8934,return,0.0627,,82.03125,,,,,,FBP-YG-81.png,0.4,1.2,23,0.5,0,6,6,22,1,,,,,,,,,,,,,,,,,,,,,,,,,,,,,,,,,,,,,,,,
,,,,,V1_024,20,F,2024-05-17_11h04.47.413,jersey_experiment_5_v1,2023.2.2,Win32,84.74576271,,,,,,,,,,,,,,,,313.8936,315.1878,315.1878,317.5524,return,0.409,,73.56770833,,,,,,FBP-OG-91.png,0.37,1.2,42,0.5,0,7,7,41,1,,,,,,,,,,,,,,,,,,,,,,,,,,,,,,,,,,,,,,,,
,,,,,V1_024,20,F,2024-05-17_11h04.47.413,jersey_experiment_5_v1,2023.2.2,Win32,84.74576271,,,,,,,,,,,,,,,,317.5527,318.8465,318.8465,320.2113,return,0.439,,89.71354167,,,,,,FBP-RB-19.png,0.45,1.2,60,0.5,0,8,8,59,1,,,,,,,,,,,,,,,,,,,,,,,,,,,,,,,,,,,,,,,,
,,,,,V1_024,20,F,2024-05-17_11h04.47.413,jersey_experiment_5_v1,2023.2.2,Win32,84.74576271,,,,,,,,,,,,,,,,320.2116,321.5055,321.5055,322.9761,return,0.4916,,38.41145833,,,,,,FBP-RB-19.png,0.35,1.2,56,0.5,0,9,9,55,1,,,,,,,,,,,,,,,,,,,,,,,,,,,,,,,,,,,,,,,,
,,,,,V1_024,20,F,2024-05-17_11h04.47.413,jersey_experiment_5_v1,2023.2.2,Win32,84.74576271,,,,,,,,,,,,,,,,322.9762,324.7762,324.7762,326.2585,return,0.3219,,75.13020833,,,,,,FBP-PT-19.png,0.43,1.2,14,1,0,10,10,13,1,,,,,,,,,,,,,,,,,,,,,,,,,,,,,,,,,,,,,,,,
,,,,,V1_024,20,F,2024-05-17_11h04.47.413,jersey_experiment_5_v1,2023.2.2,Win32,84.74576271,,,,,,,,,,,,,,,,326.2586,327.5529,327.5529,329.9292,return,0.2594,,60.9375,,,,,,FBP-RB-17.png,0.37,1.2,47,0.5,0,11,11,46,1,,,,,,,,,,,,,,,,,,,,,,,,,,,,,,,,,,,,,,,,
,,,,,V1_024,20,F,2024-05-17_11h04.47.413,jersey_experiment_5_v1,2023.2.2,Win32,84.74576271,,,,,,,,,,,,,,,,329.9295,331.7296,331.7296,333.9884,return,0.5467,,74.47916667,,,,,,FBP-PT-18.png,0.4,1.2,8,1,0,12,12,7,1,,,,,,,,,,,,,,,,,,,,,,,,,,,,,,,,,,,,,,,,
,,,,,V1_024,20,F,2024-05-17_11h04.47.413,jersey_experiment_5_v1,2023.2.2,Win32,84.74576271,,,,,,,,,,,,,,,,333.9886,335.2825,335.2826,337.1413,return,0.4624,,99.21875,,,,,,FBP-RB-17.png,0.45,1.2,50,0.5,0,13,13,49,1,,,,,,,,,,,,,,,,,,,,,,,,,,,,,,,,,,,,,,,,
,,,,,V1_024,20,F,2024-05-17_11h04.47.413,jersey_experiment_5_v1,2023.2.2,Win32,84.74576271,,,,,,,,,,,,,,,,337.1415,338.9415,338.9415,340.6476,return,0.2591,,52.734375,,,,,,FBP-PT-17.png,0.35,1.2,1,1,0,14,14,0,1,,,,,,,,,,,,,,,,,,,,,,,,,,,,,,,,,,,,,,,,
,,,,,V1_024,20,F,2024-05-17_11h04.47.413,jersey_experiment_5_v1,2023.2.2,Win32,84.74576271,,,,,,,,,,,,,,,,340.6478,342.4472,342.4473,344.071,return,0.3884,,74.73958333,,,,,,FBP-PT-18.png,0.43,1.2,9,1,0,15,15,8,1,,,,,,,,,,,,,,,,,,,,,,,,,,,,,,,,,,,,,,,,
,,,,,V1_024,20,F,2024-05-17_11h04.47.413,jersey_experiment_5_v1,2023.2.2,Win32,84.74576271,,,,,,,,,,,,,,,,344.0713,345.3653,345.3653,346.6475,return,0.2262,,98.4375,,,,,,FBP-YG-81.png,0.45,1.2,25,0.5,0,16,16,24,1,,,,,,,,,,,,,,,,,,,,,,,,,,,,,,,,,,,,,,,,
,,,,,V1_024,20,F,2024-05-17_11h04.47.413,jersey_experiment_5_v1,2023.2.2,Win32,84.74576271,,,,,,,,,,,,,,,,346.6477,348.4476,348.4476,350.8359,return,0.3701,,99.08854167,,,,,,FBP-PT-18.png,0.45,1.2,10,1,0,17,17,9,1,,,,,,,,,,,,,,,,,,,,,,,,,,,,,,,,,,,,,,,,
,,,,,V1_024,20,F,2024-05-17_11h04.47.413,jersey_experiment_5_v1,2023.2.2,Win32,84.74576271,,,,,,,,,,,,,,,,350.8361,352.1303,352.1303,354.7892,return,0.7455,,99.47916667,,,,,,FBP-RB-18.png,0.43,1.2,54,0.5,0,18,18,53,1,,,,,,,,,,,,,,,,,,,,,,,,,,,,,,,,,,,,,,,,
,,,,,V1_024,20,F,2024-05-17_11h04.47.413,jersey_experiment_5_v1,2023.2.2,Win32,84.74576271,,,,,,,,,,,,,,,,354.7894,356.0832,356.0832,357.9893,return,0.6374,,99.609375,,,,,,FBP-OG-91.png,0.45,1.2,45,0.5,0,19,19,44,1,,,,,,,,,,,,,,,,,,,,,,,,,,,,,,,,,,,,,,,,
,,,,,V1_024,20,F,2024-05-17_11h04.47.413,jersey_experiment_5_v1,2023.2.2,Win32,84.74576271,,,,,,,,,,,,,,,,357.9894,359.2834,359.2834,360.5305,return,0.2392,,99.86979167,,,,,,FBP-OG-81.png,0.43,1.2,39,0.5,0,20,20,38,1,,,,,,,,,,,,,,,,,,,,,,,,,,,,,,,,,,,,,,,,
,,,,,V1_024,20,F,2024-05-17_11h04.47.413,jersey_experiment_5_v1,2023.2.2,Win32,84.74576271,,,,,,,,,,,,,,,,360.5308,361.8246,361.8247,364.7424,return,0.1561,,52.734375,,,,,,FBP-RB-18.png,0.35,1.2,51,0.5,0,21,21,50,1,,,,,,,,,,,,,,,,,,,,,,,,,,,,,,,,,,,,,,,,
,,,,,V1_024,20,F,2024-05-17_11h04.47.413,jersey_experiment_5_v1,2023.2.2,Win32,84.74576271,,,,,,,,,,,,,,,,364.7427,366.0366,366.0367,367.3778,return,0.3107,,44.40104167,,,,,,FBP-YG-91.png,0.35,1.2,26,0.5,0,22,22,25,1,,,,,,,,,,,,,,,,,,,,,,,,,,,,,,,,,,,,,,,,
,,,,,V1_024,20,F,2024-05-17_11h04.47.413,jersey_experiment_5_v1,2023.2.2,Win32,84.74576271,,,,,,,,,,,,,,,,367.3781,368.672,368.6721,370.8719,return,0.2131,,99.47916667,,,,,,FBP-YG-91.png,0.43,1.2,29,0.5,0,23,23,28,1,,,,,,,,,,,,,,,,,,,,,,,,,,,,,,,,,,,,,,,,
,,,,,V1_024,20,F,2024-05-17_11h04.47.413,jersey_experiment_5_v1,2023.2.2,Win32,84.74576271,,,,,,,,,,,,,,,,370.8721,372.166,372.1661,374.0015,return,0.2527,,49.08854167,,,,,,FBP-OG-81.png,0.35,1.2,36,0.5,0,24,24,35,1,,,,,,,,,,,,,,,,,,,,,,,,,,,,,,,,,,,,,,,,
,,,,,V1_024,20,F,2024-05-17_11h04.47.413,jersey_experiment_5_v1,2023.2.2,Win32,84.74576271,,,,,,,,,,,,,,,,374.0018,375.2957,375.2957,376.2604,return,0.0995,,58.85416667,,,,,,FBP-OG-71.png,0.37,1.2,32,0.5,0,25,25,31,1,,,,,,,,,,,,,,,,,,,,,,,,,,,,,,,,,,,,,,,,
,,,,,V1_024,20,F,2024-05-17_11h04.47.413,jersey_experiment_5_v1,2023.2.2,Win32,84.74576271,,,,,,,,,,,,,,,,376.2606,377.5548,377.5548,379.3665,return,0.3322,,56.51041667,,,,,,FBP-YG-81.png,0.35,1.2,21,0.5,0,26,26,20,1,,,,,,,,,,,,,,,,,,,,,,,,,,,,,,,,,,,,,,,,
,,,,,V1_024,20,F,2024-05-17_11h04.47.413,jersey_experiment_5_v1,2023.2.2,Win32,84.74576271,,,,,,,,,,,,,,,,379.3666,381.1664,381.1665,382.4843,return,0.4026,,54.94791667,,,,,,FBP-PT-18.png,0.35,1.2,6,1,0,27,27,5,1,,,,,,,,,,,,,,,,,,,,,,,,,,,,,,,,,,,,,,,,
,,,,,V1_024,20,F,2024-05-17_11h04.47.413,jersey_experiment_5_v1,2023.2.2,Win32,84.74576271,,,,,,,,,,,,,,,,382.4846,383.7784,383.7784,385.5314,return,0.2118,,70.96354167,,,,,,FBP-RB-17.png,0.4,1.2,48,0.5,0,28,28,47,1,,,,,,,,,,,,,,,,,,,,,,,,,,,,,,,,,,,,,,,,
,,,,,V1_024,20,F,2024-05-17_11h04.47.413,jersey_experiment_5_v1,2023.2.2,Win32,84.74576271,,,,,,,,,,,,,,,,385.5316,386.8254,386.8254,388.3903,return,0.1414,,85.41666667,,,,,,FBP-OG-91.png,0.43,1.2,44,0.5,0,29,29,43,1,,,,,,,,,,,,,,,,,,,,,,,,,,,,,,,,,,,,,,,,
,,,,,V1_024,20,F,2024-05-17_11h04.47.413,jersey_experiment_5_v1,2023.2.2,Win32,84.74576271,,,,,,,,,,,,,,,,388.3905,389.6845,389.6845,390.6138,return,0.2244,,85.02604167,,,,,,FBP-OG-81.png,0.4,1.2,38,0.5,0,30,30,37,1,,,,,,,,,,,,,,,,,,,,,,,,,,,,,,,,,,,,,,,,
,,,,,V1_024,20,F,2024-05-17_11h04.47.413,jersey_experiment_5_v1,2023.2.2,Win32,84.74576271,,,,,,,,,,,,,,,,390.6139,391.908,391.908,394.7082,return,1.0265,,74.47916667,,,,,,FBP-YG-81.png,0.37,1.2,22,0.5,0,31,31,21,1,,,,,,,,,,,,,,,,,,,,,,,,,,,,,,,,,,,,,,,,
,,,,,V1_024,20,F,2024-05-17_11h04.47.413,jersey_experiment_5_v1,2023.2.2,Win32,84.74576271,,,,,,,,,,,,,,,,394.7084,396.0021,396.0021,397.1437,return,0.0708,,54.81770833,,,,,,FBP-YG-71.png,0.37,1.2,17,0.5,0,32,32,16,1,,,,,,,,,,,,,,,,,,,,,,,,,,,,,,,,,,,,,,,,
,,,,,V1_024,20,F,2024-05-17_11h04.47.413,jersey_experiment_5_v1,2023.2.2,Win32,84.74576271,,,,,,,,,,,,,,,,397.1439,398.4379,398.4379,399.9436,return,0.8615,,55.078125,,,,,,FBP-OG-71.png,0.35,1.2,31,0.5,0,33,33,30,1,,,,,,,,,,,,,,,,,,,,,,,,,,,,,,,,,,,,,,,,
,,,,,V1_024,20,F,2024-05-17_11h04.47.413,jersey_experiment_5_v1,2023.2.2,Win32,84.74576271,,,,,,,,,,,,,,,,399.9439,401.7438,401.7438,402.7437,return,0.2023,,75.65104167,,,,,,FBP-PT-19.png,0.4,1.2,13,1,0,34,34,12,1,,,,,,,,,,,,,,,,,,,,,,,,,,,,,,,,,,,,,,,,
,,,,,V1_024,20,F,2024-05-17_11h04.47.413,jersey_experiment_5_v1,2023.2.2,Win32,84.74576271,,,,,,,,,,,,,,,,402.7439,404.0379,404.0379,405.2967,return,0.197,,86.58854167,,,,,,FBP-YG-91.png,0.45,1.2,30,0.5,0,35,35,29,1,,,,,,,,,,,,,,,,,,,,,,,,,,,,,,,,,,,,,,,,
,,,,,V1_024,20,F,2024-05-17_11h04.47.413,jersey_experiment_5_v1,2023.2.2,Win32,84.74576271,,,,,,,,,,,,,,,,405.297,406.5909,406.5909,407.4968,return,0.1084,,93.88020833,,,,,,FBP-RB-18.png,0.45,1.2,55,0.5,0,36,36,54,1,,,,,,,,,,,,,,,,,,,,,,,,,,,,,,,,,,,,,,,,
,,,,,V1_024,20,F,2024-05-17_11h04.47.413,jersey_experiment_5_v1,2023.2.2,Win32,84.74576271,,,,,,,,,,,,,,,,407.497,408.791,408.791,410.2029,return,0.2729,,99.47916667,,,,,,FBP-OG-71.png,0.45,1.2,35,0.5,0,37,37,34,1,,,,,,,,,,,,,,,,,,,,,,,,,,,,,,,,,,,,,,,,
,,,,,V1_024,20,F,2024-05-17_11h04.47.413,jersey_experiment_5_v1,2023.2.2,Win32,84.74576271,,,,,,,,,,,,,,,,410.2031,412.003,412.003,412.9439,return,0.2066,,94.27083333,,,,,,FBP-PT-17.png,0.4,1.2,3,1,0,38,38,2,1,,,,,,,,,,,,,,,,,,,,,,,,,,,,,,,,,,,,,,,,
,,,,,V1_024,20,F,2024-05-17_11h04.47.413,jersey_experiment_5_v1,2023.2.2,Win32,84.74576271,,,,,,,,,,,,,,,,412.9442,414.2384,414.2384,416.8857,return,0.2275,,51.04166667,,,,,,FBP-RB-17.png,0.35,1.2,46,0.5,0,39,39,45,1,,,,,,,,,,,,,,,,,,,,,,,,,,,,,,,,,,,,,,,,
,,,,,V1_024,20,F,2024-05-17_11h04.47.413,jersey_experiment_5_v1,2023.2.2,Win32,84.74576271,,,,,,,,,,,,,,,,416.8859,418.6855,418.6855,420.0386,return,0.2028,,92.70833333,,,,,,FBP-PT-17.png,0.45,1.2,5,1,0,40,40,4,1,,,,,,,,,,,,,,,,,,,,,,,,,,,,,,,,,,,,,,,,
,,,,,V1_024,20,F,2024-05-17_11h04.47.413,jersey_experiment_5_v1,2023.2.2,Win32,84.74576271,,,,,,,,,,,,,,,,420.0388,421.3327,421.3328,425.4976,return,0.3439,,87.109375,,,,,,FBP-RB-19.png,0.43,1.2,59,0.5,0,41,41,58,1,,,,,,,,,,,,,,,,,,,,,,,,,,,,,,,,,,,,,,,,
,,,,,V1_024,20,F,2024-05-17_11h04.47.413,jersey_experiment_5_v1,2023.2.2,Win32,84.74576271,,,,,,,,,,,,,,,,425.4977,427.2977,427.2977,430.6272,return,0.2532,,56.11979167,,,,,,FBP-PT-18.png,0.37,1.2,7,1,0,42,42,6,1,,,,,,,,,,,,,,,,,,,,,,,,,,,,,,,,,,,,,,,,
,,,,,V1_024,20,F,2024-05-17_11h04.47.413,jersey_experiment_5_v1,2023.2.2,Win32,84.74576271,,,,,,,,,,,,,,,,430.6274,432.4273,432.4273,433.2391,return,0.1185,,46.484375,,,,,,FBP-PT-19.png,0.37,1.2,12,1,0,43,43,11,1,,,,,,,,,,,,,,,,,,,,,,,,,,,,,,,,,,,,,,,,
,,,,,V1_024,20,F,2024-05-17_11h04.47.413,jersey_experiment_5_v1,2023.2.2,Win32,84.74576271,,,,,,,,,,,,,,,,433.2392,434.5331,434.5331,435.7804,return,0.511,,53.38541667,,,,,,FBP-OG-81.png,0.37,1.2,37,0.5,0,44,44,36,1,,,,,,,,,,,,,,,,,,,,,,,,,,,,,,,,,,,,,,,,
,,,,,V1_024,20,F,2024-05-17_11h04.47.413,jersey_experiment_5_v1,2023.2.2,Win32,84.74576271,,,,,,,,,,,,,,,,435.7806,437.0745,437.0745,438.4979,return,0.1815,,72.65625,,,,,,FBP-RB-19.png,0.4,1.2,58,0.5,0,45,45,57,1,,,,,,,,,,,,,,,,,,,,,,,,,,,,,,,,,,,,,,,,
,,,,,V1_024,20,F,2024-05-17_11h04.47.413,jersey_experiment_5_v1,2023.2.2,Win32,84.74576271,,,,,,,,,,,,,,,,438.4981,439.7921,439.7921,440.8393,return,0.2358,,81.38020833,,,,,,FBP-YG-71.png,0.4,1.2,18,0.5,0,46,46,17,1,,,,,,,,,,,,,,,,,,,,,,,,,,,,,,,,,,,,,,,,
,,,,,V1_024,20,F,2024-05-17_11h04.47.413,jersey_experiment_5_v1,2023.2.2,Win32,84.74576271,,,,,,,,,,,,,,,,440.8397,442.1336,442.1337,443.5453,return,0.1556,,95.05208333,,,,,,FBP-RB-17.png,0.43,1.2,49,0.5,0,47,47,48,1,,,,,,,,,,,,,,,,,,,,,,,,,,,,,,,,,,,,,,,,
,,,,,V1_024,20,F,2024-05-17_11h04.47.413,jersey_experiment_5_v1,2023.2.2,Win32,84.74576271,,,,,,,,,,,,,,,,443.5456,444.8397,444.8397,447.016,return,0.2226,,99.21875,,,,,,FBP-YG-71.png,0.45,1.2,20,0.5,0,48,48,19,1,,,,,,,,,,,,,,,,,,,,,,,,,,,,,,,,,,,,,,,,
,,,,,V1_024,20,F,2024-05-17_11h04.47.413,jersey_experiment_5_v1,2023.2.2,Win32,84.74576271,,,,,,,,,,,,,,,,447.0161,448.3101,448.3101,450.0749,return,0.2002,,99.86979167,,,,,,FBP-YG-81.png,0.43,1.2,24,0.5,0,49,49,23,1,,,,,,,,,,,,,,,,,,,,,,,,,,,,,,,,,,,,,,,,
,,,,,V1_024,20,F,2024-05-17_11h04.47.413,jersey_experiment_5_v1,2023.2.2,Win32,84.74576271,,,,,,,,,,,,,,,,450.0752,451.8751,451.8751,453.2279,return,0.4001,,99.86979167,,,,,,FBP-PT-17.png,0.43,1.2,4,1,0,50,50,3,1,,,,,,,,,,,,,,,,,,,,,,,,,,,,,,,,,,,,,,,,
,,,,,V1_024,20,F,2024-05-17_11h04.47.413,jersey_experiment_5_v1,2023.2.2,Win32,84.74576271,,,,,,,,,,,,,,,,453.2281,454.5221,454.5221,456.0986,return,0.1948,,99.47916667,,,,,,FBP-OG-71.png,0.43,1.2,34,0.5,0,51,51,33,1,,,,,,,,,,,,,,,,,,,,,,,,,,,,,,,,,,,,,,,,
,,,,,V1_024,20,F,2024-05-17_11h04.47.413,jersey_experiment_5_v1,2023.2.2,Win32,84.74576271,,,,,,,,,,,,,,,,456.0987,457.3926,457.3926,458.8046,return,0.2493,,89.97395833,,,,,,FBP-YG-91.png,0.4,1.2,28,0.5,0,52,52,27,1,,,,,,,,,,,,,,,,,,,,,,,,,,,,,,,,,,,,,,,,
,,,,,V1_024,20,F,2024-05-17_11h04.47.413,jersey_experiment_5_v1,2023.2.2,Win32,84.74576271,,,,,,,,,,,,,,,,458.8048,460.0989,460.0989,461.1929,return,0.1412,,87.36979167,,,,,,FBP-OG-91.png,0.4,1.2,43,0.5,0,53,53,42,1,,,,,,,,,,,,,,,,,,,,,,,,,,,,,,,,,,,,,,,,
,,,,,V1_024,20,F,2024-05-17_11h04.47.413,jersey_experiment_5_v1,2023.2.2,Win32,84.74576271,,,,,,,,,,,,,,,,461.1932,462.993,462.9931,464.8753,return,0.1884,,44.40104167,,,,,,FBP-PT-19.png,0.35,1.2,11,1,0,54,54,10,1,,,,,,,,,,,,,,,,,,,,,,,,,,,,,,,,,,,,,,,,
,,,,,V1_024,20,F,2024-05-17_11h04.47.413,jersey_experiment_5_v1,2023.2.2,Win32,84.74576271,,,,,,,,,,,,,,,,464.8755,466.1696,466.1696,468.9697,return,0.0562,,99.47916667,,,,,,FBP-OG-81.png,0.45,1.2,40,0.5,0,55,55,39,1,,,,,,,,,,,,,,,,,,,,,,,,,,,,,,,,,,,,,,,,
,,,,,V1_024,20,F,2024-05-17_11h04.47.413,jersey_experiment_5_v1,2023.2.2,Win32,84.74576271,,,,,,,,,,,,,,,,468.9699,470.77,470.7701,472.264,return,0.1282,,50,,,,,,FBP-PT-17.png,0.37,1.2,2,1,0,56,56,1,1,,,,,,,,,,,,,,,,,,,,,,,,,,,,,,,,,,,,,,,,
,,,,,V1_024,20,F,2024-05-17_11h04.47.413,jersey_experiment_5_v1,2023.2.2,Win32,84.74576271,,,,,,,,,,,,,,,,472.2642,473.5581,473.5581,474.6288,return,0.228,,50,,,,,,FBP-YG-91.png,0.37,1.2,27,0.5,0,57,57,26,1,,,,,,,,,,,,,,,,,,,,,,,,,,,,,,,,,,,,,,,,
,,,,,V1_024,20,F,2024-05-17_11h04.47.413,jersey_experiment_5_v1,2023.2.2,Win32,84.74576271,,,,,,,,,,,,,,,,474.629,475.923,475.923,477.6407,return,0.0852,,56.11979167,,,,,,FBP-RB-18.png,0.37,1.2,52,0.5,0,58,58,51,1,,,,,,,,,,,,,,,,,,,,,,,,,,,,,,,,,,,,,,,,
,,,,,V1_024,20,F,2024-05-17_11h04.47.413,jersey_experiment_5_v1,2023.2.2,Win32,84.74576271,,,,,,,,,,,,,,,,477.6409,478.9348,478.9348,480.5937,return,0.1581,,78.38541667,,,,,,FBP-YG-71.png,0.43,1.2,19,0.5,0,59,59,18,1,,,,,,,,,,,,,,,,,,,,,,,,,,,,,,,,,,,,,,,,
,,,,,V1_024,20,F,2024-05-17_11h04.47.413,jersey_experiment_5_v1,2023.2.2,Win32,84.74576271,,,,,,,,,,,,,,,,,,,,,,,,,,,,,,,,,,,,,,,480.5942,600.5985,,,,,,,,,,,,,,,,,,,,,,,,,,,,,,,,,,,,,,
,,,,,V1_024,20,F,2024-05-17_11h04.47.413,jersey_experiment_5_v1,2023.2.2,Win32,84.74576271,,,,,,,,,,,,,,,,,,,,,,,,,,,,,,,,,,,,,,,,,600.5985,631.3171,return,30.7089,,,,,,,,,,,,,,,,,,,,,,,,,,,,,,,,,,
,,,,,V1_024,20,F,2024-05-17_11h04.47.413,jersey_experiment_5_v1,2023.2.2,Win32,84.74576271,,,,,,,,,,,,,,,,631.3236,632.6228,632.6228,637.0819,return,2.5891,,77.34375,,,,,,FBP-PT-91.png,0.43,1.2,14,0.5,,,,,,,,,,,,,0,0,0,13,1,,,,,,,,,,,,,,,,,,,,,,,,,,,,
,,,,,V1_024,20,F,2024-05-17_11h04.47.413,jersey_experiment_5_v1,2023.2.2,Win32,84.74576271,,,,,,,,,,,,,,,,637.0822,638.8818,638.8818,641.4349,return,1.0121,,48.69791667,,,,,,FBP-OG-18.png,0.37,1.2,37,1,,,,,,,,,,,,,0,1,1,36,1,,,,,,,,,,,,,,,,,,,,,,,,,,,,
,,,,,V1_024,20,F,2024-05-17_11h04.47.413,jersey_experiment_5_v1,2023.2.2,Win32,84.74576271,,,,,,,,,,,,,,,,641.4351,643.2349,643.235,645.035,return,0.0945,,85.02604167,,,,,,FBP-RB-81.png,0.45,1.2,55,1,,,,,,,,,,,,,0,2,2,54,1,,,,,,,,,,,,,,,,,,,,,,,,,,,,
,,,,,V1_024,20,F,2024-05-17_11h04.47.413,jersey_experiment_5_v1,2023.2.2,Win32,84.74576271,,,,,,,,,,,,,,,,645.0352,646.3293,646.3293,648.2586,return,0.1125,,48.4375,,,,,,FBP-PT-91.png,0.35,1.2,11,0.5,,,,,,,,,,,,,0,3,3,10,1,,,,,,,,,,,,,,,,,,,,,,,,,,,,
,,,,,V1_024,20,F,2024-05-17_11h04.47.413,jersey_experiment_5_v1,2023.2.2,Win32,84.74576271,,,,,,,,,,,,,,,,648.2588,649.5531,649.5531,650.4587,return,0.094,,73.046875,,,,,,FBP-PT-91.png,0.45,1.2,15,0.5,,,,,,,,,,,,,0,4,4,14,1,,,,,,,,,,,,,,,,,,,,,,,,,,,,
,,,,,V1_024,20,F,2024-05-17_11h04.47.413,jersey_experiment_5_v1,2023.2.2,Win32,84.74576271,,,,,,,,,,,,,,,,650.4589,652.259,652.259,653.1296,return,0.0943,,79.81770833,,,,,,FBP-OG-17.png,0.45,1.2,35,1,,,,,,,,,,,,,0,5,5,34,1,,,,,,,,,,,,,,,,,,,,,,,,,,,,
,,,,,V1_024,20,F,2024-05-17_11h04.47.413,jersey_experiment_5_v1,2023.2.2,Win32,84.74576271,,,,,,,,,,,,,,,,653.1297,654.9294,654.9294,656.212,return,0.3937,,71.875,,,,,,FBP-YG-18.png,0.4,1.2,23,1,,,,,,,,,,,,,0,6,6,22,1,,,,,,,,,,,,,,,,,,,,,,,,,,,,
,,,,,V1_024,20,F,2024-05-17_11h04.47.413,jersey_experiment_5_v1,2023.2.2,Win32,84.74576271,,,,,,,,,,,,,,,,656.2123,658.0118,658.0118,659.765,return,0.2282,,84.24479167,,,,,,FBP-RB-91.png,0.45,1.2,60,1,,,,,,,,,,,,,0,7,7,59,1,,,,,,,,,,,,,,,,,,,,,,,,,,,,
,,,,,V1_024,20,F,2024-05-17_11h04.47.413,jersey_experiment_5_v1,2023.2.2,Win32,84.74576271,,,,,,,,,,,,,,,,659.7652,661.5653,661.5653,662.6829,return,0.0709,,84.24479167,,,,,,FBP-RB-81.png,0.43,1.2,54,1,,,,,,,,,,,,,0,8,8,53,1,,,,,,,,,,,,,,,,,,,,,,,,,,,,
,,,,,V1_024,20,F,2024-05-17_11h04.47.413,jersey_experiment_5_v1,2023.2.2,Win32,84.74576271,,,,,,,,,,,,,,,,662.683,664.4827,664.4827,665.6004,return,0.5241,,75.65104167,,,,,,FBP-OG-17.png,0.4,1.2,33,1,,,,,,,,,,,,,0,9,9,32,1,,,,,,,,,,,,,,,,,,,,,,,,,,,,
,,,,,V1_024,20,F,2024-05-17_11h04.47.413,jersey_experiment_5_v1,2023.2.2,Win32,84.74576271,,,,,,,,,,,,,,,,665.6007,667.4004,667.4005,668.6006,return,0.1277,,48.69791667,,,,,,FBP-RB-81.png,0.35,1.2,51,1,,,,,,,,,,,,,0,10,10,50,1,,,,,,,,,,,,,,,,,,,,,,,,,,,,
,,,,,V1_024,20,F,2024-05-17_11h04.47.413,jersey_experiment_5_v1,2023.2.2,Win32,84.74576271,,,,,,,,,,,,,,,,668.6007,670.4007,670.4007,671.7654,return,0.1802,,49.47916667,,,,,,FBP-OG-17.png,0.35,1.2,31,1,,,,,,,,,,,,,0,11,11,30,1,,,,,,,,,,,,,,,,,,,,,,,,,,,,
,,,,,V1_024,20,F,2024-05-17_11h04.47.413,jersey_experiment_5_v1,2023.2.2,Win32,84.74576271,,,,,,,,,,,,,,,,671.7657,673.5654,673.5654,674.5537,return,0.047,,99.08854167,,,,,,FBP-YG-18.png,0.45,1.2,25,1,,,,,,,,,,,,,0,12,12,24,1,,,,,,,,,,,,,,,,,,,,,,,,,,,,
,,,,,V1_024,20,F,2024-05-17_11h04.47.413,jersey_experiment_5_v1,2023.2.2,Win32,84.74576271,,,,,,,,,,,,,,,,674.5539,676.3541,676.3541,677.5421,return,0.1678,,89.71354167,,,,,,FBP-YG-19.png,0.4,1.2,28,1,,,,,,,,,,,,,0,13,13,27,1,,,,,,,,,,,,,,,,,,,,,,,,,,,,
,,,,,V1_024,20,F,2024-05-17_11h04.47.413,jersey_experiment_5_v1,2023.2.2,Win32,84.74576271,,,,,,,,,,,,,,,,677.5423,679.3421,679.3421,680.2128,return,0.2044,,95.96354167,,,,,,FBP-YG-17.png,0.45,1.2,20,1,,,,,,,,,,,,,0,14,14,19,1,,,,,,,,,,,,,,,,,,,,,,,,,,,,
,,,,,V1_024,20,F,2024-05-17_11h04.47.413,jersey_experiment_5_v1,2023.2.2,Win32,84.74576271,,,,,,,,,,,,,,,,680.2131,681.5072,681.5072,682.7422,return,0.1441,,84.63541667,,,,,,FBP-PT-91.png,0.4,1.2,13,0.5,,,,,,,,,,,,,0,15,15,12,1,,,,,,,,,,,,,,,,,,,,,,,,,,,,
,,,,,V1_024,20,F,2024-05-17_11h04.47.413,jersey_experiment_5_v1,2023.2.2,Win32,84.74576271,,,,,,,,,,,,,,,,682.7425,684.0364,684.0364,685.4838,return,0.4002,,78.90625,,,,,,FBP-PT-81.png,0.4,1.2,8,0.5,,,,,,,,,,,,,0,16,16,7,1,,,,,,,,,,,,,,,,,,,,,,,,,,,,
,,,,,V1_024,20,F,2024-05-17_11h04.47.413,jersey_experiment_5_v1,2023.2.2,Win32,84.74576271,,,,,,,,,,,,,,,,685.484,686.7779,686.7779,687.7306,return,0.1008,,95.57291667,,,,,,FBP-PT-71.png,0.45,1.2,5,0.5,,,,,,,,,,,,,0,17,17,4,1,,,,,,,,,,,,,,,,,,,,,,,,,,,,
,,,,,V1_024,20,F,2024-05-17_11h04.47.413,jersey_experiment_5_v1,2023.2.2,Win32,84.74576271,,,,,,,,,,,,,,,,687.7308,689.531,689.531,690.8484,return,0.1006,,66.796875,,,,,,FBP-YG-18.png,0.37,1.2,22,1,,,,,,,,,,,,,0,18,18,21,1,,,,,,,,,,,,,,,,,,,,,,,,,,,,
,,,,,V1_024,20,F,2024-05-17_11h04.47.413,jersey_experiment_5_v1,2023.2.2,Win32,84.74576271,,,,,,,,,,,,,,,,690.8487,692.6485,692.6485,693.9897,return,0.2247,,74.86979167,,,,,,FBP-OG-18.png,0.4,1.2,38,1,,,,,,,,,,,,,0,19,19,37,1,,,,,,,,,,,,,,,,,,,,,,,,,,,,
,,,,,V1_024,20,F,2024-05-17_11h04.47.413,jersey_experiment_5_v1,2023.2.2,Win32,84.74576271,,,,,,,,,,,,,,,,693.9899,695.7899,695.7899,696.8252,return,0.061,,61.58854167,,,,,,FBP-RB-71.png,0.37,1.2,47,1,,,,,,,,,,,,,0,20,20,46,1,,,,,,,,,,,,,,,,,,,,,,,,,,,,
,,,,,V1_024,20,F,2024-05-17_11h04.47.413,jersey_experiment_5_v1,2023.2.2,Win32,84.74576271,,,,,,,,,,,,,,,,696.8254,698.6254,698.6254,700.4488,return,0.0768,,78.77604167,,,,,,FBP-OG-17.png,0.43,1.2,34,1,,,,,,,,,,,,,0,21,21,33,1,,,,,,,,,,,,,,,,,,,,,,,,,,,,
,,,,,V1_024,20,F,2024-05-17_11h04.47.413,jersey_experiment_5_v1,2023.2.2,Win32,84.74576271,,,,,,,,,,,,,,,,700.4491,702.2491,702.2491,704.4726,return,0.0851,,98.828125,,,,,,FBP-OG-19.png,0.45,1.2,45,1,,,,,,,,,,,,,0,22,22,44,1,,,,,,,,,,,,,,,,,,,,,,,,,,,,
,,,,,V1_024,20,F,2024-05-17_11h04.47.413,jersey_experiment_5_v1,2023.2.2,Win32,84.74576271,,,,,,,,,,,,,,,,704.4727,706.2728,706.2728,707.0256,return,0.1723,,93.22916667,,,,,,FBP-RB-91.png,0.43,1.2,59,1,,,,,,,,,,,,,0,23,23,58,1,,,,,,,,,,,,,,,,,,,,,,,,,,,,
,,,,,V1_024,20,F,2024-05-17_11h04.47.413,jersey_experiment_5_v1,2023.2.2,Win32,84.74576271,,,,,,,,,,,,,,,,707.0258,708.8257,708.8258,709.7786,return,0.077,,59.89583333,,,,,,FBP-RB-91.png,0.4,1.2,58,1,,,,,,,,,,,,,0,24,24,57,1,,,,,,,,,,,,,,,,,,,,,,,,,,,,
,,,,,V1_024,20,F,2024-05-17_11h04.47.413,jersey_experiment_5_v1,2023.2.2,Win32,84.74576271,,,,,,,,,,,,,,,,709.7788,711.5789,711.5789,712.661,return,0.0867,,39.32291667,,,,,,FBP-YG-17.png,0.35,1.2,16,1,,,,,,,,,,,,,0,25,25,15,1,,,,,,,,,,,,,,,,,,,,,,,,,,,,
,,,,,V1_024,20,F,2024-05-17_11h04.47.413,jersey_experiment_5_v1,2023.2.2,Win32,84.74576271,,,,,,,,,,,,,,,,712.6612,714.4611,714.4611,716.1671,return,0.8005,,36.71875,,,,,,FBP-RB-71.png,0.35,1.2,46,1,,,,,,,,,,,,,0,26,26,45,1,,,,,,,,,,,,,,,,,,,,,,,,,,,,
,,,,,V1_024,20,F,2024-05-17_11h04.47.413,jersey_experiment_5_v1,2023.2.2,Win32,84.74576271,,,,,,,,,,,,,,,,716.1673,717.9673,717.9673,719.0495,return,0.0799,,99.609375,,,,,,FBP-YG-19.png,0.45,1.2,30,1,,,,,,,,,,,,,0,27,27,29,1,,,,,,,,,,,,,,,,,,,,,,,,,,,,
,,,,,V1_024,20,F,2024-05-17_11h04.47.413,jersey_experiment_5_v1,2023.2.2,Win32,84.74576271,,,,,,,,,,,,,,,,719.0497,720.3435,720.3436,723.0145,return,0.0474,,85.28645833,,,,,,FBP-PT-71.png,0.43,1.2,4,0.5,,,,,,,,,,,,,0,28,28,3,1,,,,,,,,,,,,,,,,,,,,,,,,,,,,
,,,,,V1_024,20,F,2024-05-17_11h04.47.413,jersey_experiment_5_v1,2023.2.2,Win32,84.74576271,,,,,,,,,,,,,,,,723.0147,724.8143,724.8143,725.8735,return,0.2995,,86.84895833,,,,,,FBP-YG-17.png,0.4,1.2,18,1,,,,,,,,,,,,,0,29,29,17,1,,,,,,,,,,,,,,,,,,,,,,,,,,,,
,,,,,V1_024,20,F,2024-05-17_11h04.47.413,jersey_experiment_5_v1,2023.2.2,Win32,84.74576271,,,,,,,,,,,,,,,,725.8737,727.6735,727.6735,729.6381,return,0.153,,31.640625,,,,,,FBP-OG-18.png,0.35,1.2,36,1,,,,,,,,,,,,,0,30,30,35,1,,,,,,,,,,,,,,,,,,,,,,,,,,,,
,,,,,V1_024,20,F,2024-05-17_11h04.47.413,jersey_experiment_5_v1,2023.2.2,Win32,84.74576271,,,,,,,,,,,,,,,,729.6383,730.9323,730.9324,732.6617,return,0.0713,,48.4375,,,,,,FBP-PT-81.png,0.37,1.2,7,0.5,,,,,,,,,,,,,0,31,31,6,1,,,,,,,,,,,,,,,,,,,,,,,,,,,,
,,,,,V1_024,20,F,2024-05-17_11h04.47.413,jersey_experiment_5_v1,2023.2.2,Win32,84.74576271,,,,,,,,,,,,,,,,732.662,734.4619,734.462,735.4503,return,0.0334,,25.65104167,,,,,,FBP-OG-19.png,0.35,1.2,41,1,,,,,,,,,,,,,0,32,32,40,1,,,,,,,,,,,,,,,,,,,,,,,,,,,,
,,,,,V1_024,20,F,2024-05-17_11h04.47.413,jersey_experiment_5_v1,2023.2.2,Win32,84.74576271,,,,,,,,,,,,,,,,735.4505,737.2503,737.2503,738.3914,return,0.1992,,24.86979167,,,,,,FBP-YG-18.png,0.35,1.2,21,1,,,,,,,,,,,,,0,33,33,20,1,,,,,,,,,,,,,,,,,,,,,,,,,,,,
,,,,,V1_024,20,F,2024-05-17_11h04.47.413,jersey_experiment_5_v1,2023.2.2,Win32,84.74576271,,,,,,,,,,,,,,,,738.3916,740.1917,740.1918,742.0504,return,0.0424,,77.60416667,,,,,,FBP-OG-19.png,0.43,1.2,44,1,,,,,,,,,,,,,0,34,34,43,1,,,,,,,,,,,,,,,,,,,,,,,,,,,,
,,,,,V1_024,20,F,2024-05-17_11h04.47.413,jersey_experiment_5_v1,2023.2.2,Win32,84.74576271,,,,,,,,,,,,,,,,742.0506,743.3448,743.3449,745.38,return,0.97,,49.47916667,,,,,,FBP-PT-71.png,0.35,1.2,1,0.5,,,,,,,,,,,,,0,35,35,0,1,,,,,,,,,,,,,,,,,,,,,,,,,,,,
,,,,,V1_024,20,F,2024-05-17_11h04.47.413,jersey_experiment_5_v1,2023.2.2,Win32,84.74576271,,,,,,,,,,,,,,,,745.3803,746.6741,746.6741,747.6858,return,0.0267,,74.86979167,,,,,,FBP-PT-71.png,0.4,1.2,3,0.5,,,,,,,,,,,,,0,36,36,2,1,,,,,,,,,,,,,,,,,,,,,,,,,,,,
,,,,,V1_024,20,F,2024-05-17_11h04.47.413,jersey_experiment_5_v1,2023.2.2,Win32,84.74576271,,,,,,,,,,,,,,,,747.686,749.486,749.4861,750.2036,return,0.0707,,88.93229167,,,,,,FBP-YG-17.png,0.43,1.2,19,1,,,,,,,,,,,,,0,37,37,18,1,,,,,,,,,,,,,,,,,,,,,,,,,,,,
,,,,,V1_024,20,F,2024-05-17_11h04.47.413,jersey_experiment_5_v1,2023.2.2,Win32,84.74576271,,,,,,,,,,,,,,,,750.2037,752.0039,752.0039,752.5684,return,0.0709,,95.96354167,,,,,,FBP-YG-18.png,0.43,1.2,24,1,,,,,,,,,,,,,0,38,38,23,1,,,,,,,,,,,,,,,,,,,,,,,,,,,,
,,,,,V1_024,20,F,2024-05-17_11h04.47.413,jersey_experiment_5_v1,2023.2.2,Win32,84.74576271,,,,,,,,,,,,,,,,752.5686,753.8626,753.8626,755.4745,return,0.1578,,40.49479167,,,,,,FBP-PT-81.png,0.35,1.2,6,0.5,,,,,,,,,,,,,0,39,39,5,1,,,,,,,,,,,,,,,,,,,,,,,,,,,,
,,,,,V1_024,20,F,2024-05-17_11h04.47.413,jersey_experiment_5_v1,2023.2.2,Win32,84.74576271,,,,,,,,,,,,,,,,755.4747,757.2747,757.2747,758.345,return,0.1177,,75.26041667,,,,,,FBP-RB-81.png,0.4,1.2,53,1,,,,,,,,,,,,,0,40,40,52,1,,,,,,,,,,,,,,,,,,,,,,,,,,,,
,,,,,V1_024,20,F,2024-05-17_11h04.47.413,jersey_experiment_5_v1,2023.2.2,Win32,84.74576271,,,,,,,,,,,,,,,,758.3452,760.1452,760.1452,760.9688,return,0.1651,,75.65104167,,,,,,FBP-OG-19.png,0.4,1.2,43,1,,,,,,,,,,,,,0,41,41,42,1,,,,,,,,,,,,,,,,,,,,,,,,,,,,
,,,,,V1_024,20,F,2024-05-17_11h04.47.413,jersey_experiment_5_v1,2023.2.2,Win32,84.74576271,,,,,,,,,,,,,,,,760.9689,762.2629,762.2629,764.1924,return,0.1382,,98.69791667,,,,,,FBP-PT-81.png,0.45,1.2,10,0.5,,,,,,,,,,,,,0,42,42,9,1,,,,,,,,,,,,,,,,,,,,,,,,,,,,
,,,,,V1_024,20,F,2024-05-17_11h04.47.413,jersey_experiment_5_v1,2023.2.2,Win32,84.74576271,,,,,,,,,,,,,,,,764.1926,765.9924,765.9924,767.5924,return,0.2454,,75.65104167,,,,,,FBP-YG-19.png,0.35,1.2,26,1,,,,,,,,,,,,,0,43,43,25,1,,,,,,,,,,,,,,,,,,,,,,,,,,,,
,,,,,V1_024,20,F,2024-05-17_11h04.47.413,jersey_experiment_5_v1,2023.2.2,Win32,84.74576271,,,,,,,,,,,,,,,,767.5925,769.3928,769.3928,770.7926,return,0.0802,,92.31770833,,,,,,FBP-RB-71.png,0.43,1.2,49,1,,,,,,,,,,,,,0,44,44,48,1,,,,,,,,,,,,,,,,,,,,,,,,,,,,
,,,,,V1_024,20,F,2024-05-17_11h04.47.413,jersey_experiment_5_v1,2023.2.2,Win32,84.74576271,,,,,,,,,,,,,,,,770.7928,772.5929,772.5929,774.0516,return,0.0974,,73.4375,,,,,,FBP-YG-19.png,0.37,1.2,27,1,,,,,,,,,,,,,0,45,45,26,1,,,,,,,,,,,,,,,,,,,,,,,,,,,,
,,,,,V1_024,20,F,2024-05-17_11h04.47.413,jersey_experiment_5_v1,2023.2.2,Win32,84.74576271,,,,,,,,,,,,,,,,774.0518,775.3456,775.3457,776.1928,return,0.1378,,73.4375,,,,,,FBP-PT-71.png,0.37,1.2,2,0.5,,,,,,,,,,,,,0,46,46,1,1,,,,,,,,,,,,,,,,,,,,,,,,,,,,
,,,,,V1_024,20,F,2024-05-17_11h04.47.413,jersey_experiment_5_v1,2023.2.2,Win32,84.74576271,,,,,,,,,,,,,,,,776.1931,777.9927,777.9927,779.2869,return,0.0019,,87.109375,,,,,,FBP-RB-91.png,0.37,1.2,57,1,,,,,,,,,,,,,0,47,47,56,1,,,,,,,,,,,,,,,,,,,,,,,,,,,,
,,,,,V1_024,20,F,2024-05-17_11h04.47.413,jersey_experiment_5_v1,2023.2.2,Win32,84.74576271,,,,,,,,,,,,,,,,779.2871,781.0874,781.0874,782.0988,return,0.0652,,63.671875,,,,,,FBP-YG-17.png,0.37,1.2,17,1,,,,,,,,,,,,,0,48,48,16,1,,,,,,,,,,,,,,,,,,,,,,,,,,,,
,,,,,V1_024,20,F,2024-05-17_11h04.47.413,jersey_experiment_5_v1,2023.2.2,Win32,84.74576271,,,,,,,,,,,,,,,,782.099,783.8989,783.8989,784.8165,return,0.0646,,62.109375,,,,,,FBP-OG-17.png,0.37,1.2,32,1,,,,,,,,,,,,,0,49,49,31,1,,,,,,,,,,,,,,,,,,,,,,,,,,,,
,,,,,V1_024,20,F,2024-05-17_11h04.47.413,jersey_experiment_5_v1,2023.2.2,Win32,84.74576271,,,,,,,,,,,,,,,,784.8167,786.6167,786.6167,787.7226,return,0.0141,,93.75,,,,,,FBP-YG-19.png,0.43,1.2,29,1,,,,,,,,,,,,,0,50,50,28,1,,,,,,,,,,,,,,,,,,,,,,,,,,,,
,,,,,V1_024,20,F,2024-05-17_11h04.47.413,jersey_experiment_5_v1,2023.2.2,Win32,84.74576271,,,,,,,,,,,,,,,,787.7227,789.5228,789.5228,791.1697,return,0.0639,,99.47916667,,,,,,FBP-OG-18.png,0.43,1.2,39,1,,,,,,,,,,,,,0,51,51,38,1,,,,,,,,,,,,,,,,,,,,,,,,,,,,
,,,,,V1_024,20,F,2024-05-17_11h04.47.413,jersey_experiment_5_v1,2023.2.2,Win32,84.74576271,,,,,,,,,,,,,,,,791.1699,792.9698,792.9699,798.2995,return,1.6805,,91.40625,,,,,,FBP-RB-81.png,0.37,1.2,52,1,,,,,,,,,,,,,0,52,52,51,1,,,,,,,,,,,,,,,,,,,,,,,,,,,,
,,,,,V1_024,20,F,2024-05-17_11h04.47.413,jersey_experiment_5_v1,2023.2.2,Win32,84.74576271,,,,,,,,,,,,,,,,798.2997,800.0998,800.0998,801.5467,return,0.5414,,93.75,,,,,,FBP-RB-71.png,0.4,1.2,48,1,,,,,,,,,,,,,0,53,53,47,1,,,,,,,,,,,,,,,,,,,,,,,,,,,,
,,,,,V1_024,20,F,2024-05-17_11h04.47.413,jersey_experiment_5_v1,2023.2.2,Win32,84.74576271,,,,,,,,,,,,,,,,801.5468,802.8408,802.8409,805.7939,return,1.0543,,52.34375,,,,,,FBP-PT-91.png,0.37,1.2,12,0.5,,,,,,,,,,,,,0,54,54,11,1,,,,,,,,,,,,,,,,,,,,,,,,,,,,
,,,,,V1_024,20,F,2024-05-17_11h04.47.413,jersey_experiment_5_v1,2023.2.2,Win32,84.74576271,,,,,,,,,,,,,,,,805.7942,807.594,807.594,808.9941,return,0.0424,,27.734375,,,,,,FBP-RB-91.png,0.35,1.2,56,1,,,,,,,,,,,,,0,55,55,55,1,,,,,,,,,,,,,,,,,,,,,,,,,,,,
,,,,,V1_024,20,F,2024-05-17_11h04.47.413,jersey_experiment_5_v1,2023.2.2,Win32,84.74576271,,,,,,,,,,,,,,,,808.9942,810.7941,810.7942,811.6411,return,0.0568,,87.109375,,,,,,FBP-RB-71.png,0.45,1.2,50,1,,,,,,,,,,,,,0,56,56,49,1,,,,,,,,,,,,,,,,,,,,,,,,,,,,
,,,,,V1_024,20,F,2024-05-17_11h04.47.413,jersey_experiment_5_v1,2023.2.2,Win32,84.74576271,,,,,,,,,,,,,,,,811.6412,812.9352,812.9352,813.6412,return,0.0235,,87.76041667,,,,,,FBP-PT-81.png,0.43,1.2,9,0.5,,,,,,,,,,,,,0,57,57,8,1,,,,,,,,,,,,,,,,,,,,,,,,,,,,
,,,,,V1_024,20,F,2024-05-17_11h04.47.413,jersey_experiment_5_v1,2023.2.2,Win32,84.74576271,,,,,,,,,,,,,,,,813.6414,815.4414,815.4414,816.3944,return,0.0233,,96.09375,,,,,,FBP-OG-18.png,0.45,1.2,40,1,,,,,,,,,,,,,0,58,58,39,1,,,,,,,,,,,,,,,,,,,,,,,,,,,,
,,,,,V1_024,20,F,2024-05-17_11h04.47.413,jersey_experiment_5_v1,2023.2.2,Win32,84.74576271,,,,,,,,,,,,,,,,816.3945,818.1945,818.1946,821.1122,return,0.0713,,48.95833333,,,,,,FBP-OG-19.png,0.37,1.2,42,1,,,,,,,,,,,,,0,59,59,41,1,,,,,,,,,,,,,,,,,,,,,,,,,,,,
,,,,,V1_024,20,F,2024-05-17_11h04.47.413,jersey_experiment_5_v1,2023.2.2,Win32,84.74576271,,,,,,,,,,,,,,,,821.1141,822.9122,822.9122,824.171,return,0.0446,,73.56770833,,,,,,FBP-YG-71.png,0.4,1.2,18,1,,,,,,,,,,,,,,,,,,0,0,0,17,1,,,,,,,,,,,,,,,,,,,,,,,
,,,,,V1_024,20,F,2024-05-17_11h04.47.413,jersey_experiment_5_v1,2023.2.2,Win32,84.74576271,,,,,,,,,,,,,,,,824.1715,825.4654,825.4654,826.3711,return,0.0064,,49.609375,,,,,,FBP-PT-17.png,0.37,1.2,2,0.5,,,,,,,,,,,,,,,,,,0,1,1,1,1,,,,,,,,,,,,,,,,,,,,,,,
,,,,,V1_024,20,F,2024-05-17_11h04.47.413,jersey_experiment_5_v1,2023.2.2,Win32,84.74576271,,,,,,,,,,,,,,,,826.3714,828.1714,828.1714,829.1242,return,0.0377,,46.35416667,,,,,,FBP-OG-81.png,0.37,1.2,37,1,,,,,,,,,,,,,,,,,,0,2,2,36,1,,,,,,,,,,,,,,,,,,,,,,,
,,,,,V1_024,20,F,2024-05-17_11h04.47.413,jersey_experiment_5_v1,2023.2.2,Win32,84.74576271,,,,,,,,,,,,,,,,829.1245,830.9245,830.9245,831.9124,return,0.2355,,75.78125,,,,,,FBP-YG-91.png,0.45,1.2,30,1,,,,,,,,,,,,,,,,,,0,3,3,29,1,,,,,,,,,,,,,,,,,,,,,,,
,,,,,V1_024,20,F,2024-05-17_11h04.47.413,jersey_experiment_5_v1,2023.2.2,Win32,84.74576271,,,,,,,,,,,,,,,,831.9127,833.2067,833.2067,834.042,return,0.1651,,75.52083333,,,,,,FBP-PT-18.png,0.45,1.2,10,0.5,,,,,,,,,,,,,,,,,,0,4,4,9,1,,,,,,,,,,,,,,,,,,,,,,,
,,,,,V1_024,20,F,2024-05-17_11h04.47.413,jersey_experiment_5_v1,2023.2.2,Win32,84.74576271,,,,,,,,,,,,,,,,834.0422,835.8423,835.8423,836.9008,return,0.1196,,60.28645833,,,,,,FBP-YG-71.png,0.37,1.2,17,1,,,,,,,,,,,,,,,,,,0,5,5,16,1,,,,,,,,,,,,,,,,,,,,,,,
,,,,,V1_024,20,F,2024-05-17_11h04.47.413,jersey_experiment_5_v1,2023.2.2,Win32,84.74576271,,,,,,,,,,,,,,,,836.901,838.701,838.701,840.2893,return,0.0901,,64.32291667,,,,,,FBP-RB-18.png,0.37,1.2,52,1,,,,,,,,,,,,,,,,,,0,6,6,51,1,,,,,,,,,,,,,,,,,,,,,,,
,,,,,V1_024,20,F,2024-05-17_11h04.47.413,jersey_experiment_5_v1,2023.2.2,Win32,84.74576271,,,,,,,,,,,,,,,,840.2895,842.0892,842.0892,843.7598,return,0.1124,,84.375,,,,,,FBP-RB-17.png,0.4,1.2,48,1,,,,,,,,,,,,,,,,,,0,7,7,47,1,,,,,,,,,,,,,,,,,,,,,,,
,,,,,V1_024,20,F,2024-05-17_11h04.47.413,jersey_experiment_5_v1,2023.2.2,Win32,84.74576271,,,,,,,,,,,,,,,,843.76,845.5601,845.5601,846.6308,return,0.1437,,95.44270833,,,,,,FBP-OG-81.png,0.45,1.2,40,1,,,,,,,,,,,,,,,,,,0,8,8,39,1,,,,,,,,,,,,,,,,,,,,,,,
,,,,,V1_024,20,F,2024-05-17_11h04.47.413,jersey_experiment_5_v1,2023.2.2,Win32,84.74576271,,,,,,,,,,,,,,,,846.6311,848.4309,848.431,850.3367,return,0.7121,,26.953125,,,,,,FBP-OG-71.png,0.35,1.2,31,1,,,,,,,,,,,,,,,,,,0,9,9,30,1,,,,,,,,,,,,,,,,,,,,,,,
,,,,,V1_024,20,F,2024-05-17_11h04.47.413,jersey_experiment_5_v1,2023.2.2,Win32,84.74576271,,,,,,,,,,,,,,,,850.337,851.6308,851.6308,852.3369,return,0.1849,,26.43229167,,,,,,FBP-PT-19.png,0.35,1.2,11,0.5,,,,,,,,,,,,,,,,,,0,10,10,10,1,,,,,,,,,,,,,,,,,,,,,,,
,,,,,V1_024,20,F,2024-05-17_11h04.47.413,jersey_experiment_5_v1,2023.2.2,Win32,84.74576271,,,,,,,,,,,,,,,,852.3371,853.6311,853.6311,855.3958,return,0.1206,,63.02083333,,,,,,FBP-PT-19.png,0.45,1.2,15,0.5,,,,,,,,,,,,,,,,,,0,11,11,14,1,,,,,,,,,,,,,,,,,,,,,,,
,,,,,V1_024,20,F,2024-05-17_11h04.47.413,jersey_experiment_5_v1,2023.2.2,Win32,84.74576271,,,,,,,,,,,,,,,,855.396,856.6902,856.6902,857.4781,return,0.1302,,82.421875,,,,,,FBP-PT-18.png,0.43,1.2,9,0.5,,,,,,,,,,,,,,,,,,0,12,12,8,1,,,,,,,,,,,,,,,,,,,,,,,
,,,,,V1_024,20,F,2024-05-17_11h04.47.413,jersey_experiment_5_v1,2023.2.2,Win32,84.74576271,,,,,,,,,,,,,,,,857.4782,859.2784,859.2784,861.9841,return,1.3149,,99.47916667,,,,,,FBP-OG-81.png,0.43,1.2,39,1,,,,,,,,,,,,,,,,,,0,13,13,38,1,,,,,,,,,,,,,,,,,,,,,,,
,,,,,V1_024,20,F,2024-05-17_11h04.47.413,jersey_experiment_5_v1,2023.2.2,Win32,84.74576271,,,,,,,,,,,,,,,,861.9843,863.7845,863.7845,865.2195,return,0.0998,,31.11979167,,,,,,FBP-RB-18.png,0.35,1.2,51,1,,,,,,,,,,,,,,,,,,0,14,14,50,1,,,,,,,,,,,,,,,,,,,,,,,
,,,,,V1_024,20,F,2024-05-17_11h04.47.413,jersey_experiment_5_v1,2023.2.2,Win32,84.74576271,,,,,,,,,,,,,,,,865.2198,867.02,867.02,869.2197,return,1.2522,,99.08854167,,,,,,FBP-YG-81.png,0.43,1.2,24,1,,,,,,,,,,,,,,,,,,0,15,15,23,1,,,,,,,,,,,,,,,,,,,,,,,
,,,,,V1_024,20,F,2024-05-17_11h04.47.413,jersey_experiment_5_v1,2023.2.2,Win32,84.74576271,,,,,,,,,,,,,,,,869.2199,871.0198,871.0198,872.914,return,0.8542,,81.77083333,,,,,,FBP-RB-18.png,0.4,1.2,53,1,,,,,,,,,,,,,,,,,,0,16,16,52,1,,,,,,,,,,,,,,,,,,,,,,,
,,,,,V1_024,20,F,2024-05-17_11h04.47.413,jersey_experiment_5_v1,2023.2.2,Win32,84.74576271,,,,,,,,,,,,,,,,872.9142,874.7142,874.7143,877.4082,return,1.265,,89.32291667,,,,,,FBP-YG-81.png,0.45,1.2,25,1,,,,,,,,,,,,,,,,,,0,17,17,24,1,,,,,,,,,,,,,,,,,,,,,,,
,,,,,V1_024,20,F,2024-05-17_11h04.47.413,jersey_experiment_5_v1,2023.2.2,Win32,84.74576271,,,,,,,,,,,,,,,,877.4084,879.2084,879.2084,880.7733,return,0.5451,,25,,,,,,FBP-YG-81.png,0.37,1.2,22,1,,,,,,,,,,,,,,,,,,0,18,18,21,1,,,,,,,,,,,,,,,,,,,,,,,
,,,,,V1_024,20,F,2024-05-17_11h04.47.413,jersey_experiment_5_v1,2023.2.2,Win32,84.74576271,,,,,,,,,,,,,,,,880.7734,882.5732,882.5733,883.9381,return,0.5226,,14.19270833,,,,,,FBP-YG-91.png,0.35,1.2,26,1,,,,,,,,,,,,,,,,,,0,19,19,25,1,,,,,,,,,,,,,,,,,,,,,,,
,,,,,V1_024,20,F,2024-05-17_11h04.47.413,jersey_experiment_5_v1,2023.2.2,Win32,84.74576271,,,,,,,,,,,,,,,,883.9383,885.2321,885.2321,888.1029,return,0.0472,,75.65104167,,,,,,FBP-PT-19.png,0.43,1.2,14,0.5,,,,,,,,,,,,,,,,,,0,20,20,13,1,,,,,,,,,,,,,,,,,,,,,,,
,,,,,V1_024,20,F,2024-05-17_11h04.47.413,jersey_experiment_5_v1,2023.2.2,Win32,84.74576271,,,,,,,,,,,,,,,,888.103,889.9028,889.9028,890.55,return,0.1186,,74.47916667,,,,,,FBP-OG-91.png,0.43,1.2,44,1,,,,,,,,,,,,,,,,,,0,21,21,43,1,,,,,,,,,,,,,,,,,,,,,,,
,,,,,V1_024,20,F,2024-05-17_11h04.47.413,jersey_experiment_5_v1,2023.2.2,Win32,84.74576271,,,,,,,,,,,,,,,,890.5502,892.3499,892.3499,893.2676,return,0.0996,,71.74479167,,,,,,FBP-OG-91.png,0.4,1.2,43,1,,,,,,,,,,,,,,,,,,0,22,22,42,1,,,,,,,,,,,,,,,,,,,,,,,
,,,,,V1_024,20,F,2024-05-17_11h04.47.413,jersey_experiment_5_v1,2023.2.2,Win32,84.74576271,,,,,,,,,,,,,,,,893.2678,895.0679,895.0679,895.8443,return,0.1201,,65.75520833,,,,,,FBP-OG-81.png,0.4,1.2,38,1,,,,,,,,,,,,,,,,,,0,23,23,37,1,,,,,,,,,,,,,,,,,,,,,,,
,,,,,V1_024,20,F,2024-05-17_11h04.47.413,jersey_experiment_5_v1,2023.2.2,Win32,84.74576271,,,,,,,,,,,,,,,,895.8445,897.6443,897.6443,898.456,return,0.0849,,50.26041667,,,,,,FBP-OG-71.png,0.37,1.2,32,1,,,,,,,,,,,,,,,,,,0,24,24,31,1,,,,,,,,,,,,,,,,,,,,,,,
,,,,,V1_024,20,F,2024-05-17_11h04.47.413,jersey_experiment_5_v1,2023.2.2,Win32,84.74576271,,,,,,,,,,,,,,,,898.4563,899.7505,899.7505,901.3502,return,0.6263,,74.47916667,,,,,,FBP-PT-17.png,0.43,1.2,4,0.5,,,,,,,,,,,,,,,,,,0,25,25,3,1,,,,,,,,,,,,,,,,,,,,,,,
,,,,,V1_024,20,F,2024-05-17_11h04.47.413,jersey_experiment_5_v1,2023.2.2,Win32,84.74576271,,,,,,,,,,,,,,,,901.3505,903.1505,903.1505,904.2093,return,0.0172,,87.63020833,,,,,,FBP-RB-19.png,0.45,1.2,60,1,,,,,,,,,,,,,,,,,,0,26,26,59,1,,,,,,,,,,,,,,,,,,,,,,,
,,,,,V1_024,20,F,2024-05-17_11h04.47.413,jersey_experiment_5_v1,2023.2.2,Win32,84.74576271,,,,,,,,,,,,,,,,904.2096,906.0094,906.0094,906.7153,return,0.25,,87.890625,,,,,,FBP-YG-91.png,0.4,1.2,28,1,,,,,,,,,,,,,,,,,,0,27,27,27,1,,,,,,,,,,,,,,,,,,,,,,,
,,,,,V1_024,20,F,2024-05-17_11h04.47.413,jersey_experiment_5_v1,2023.2.2,Win32,84.74576271,,,,,,,,,,,,,,,,906.7155,908.5154,908.5154,910.0802,return,0.1482,,43.09895833,,,,,,FBP-YG-81.png,0.35,1.2,21,1,,,,,,,,,,,,,,,,,,0,28,28,20,1,,,,,,,,,,,,,,,,,,,,,,,
,,,,,V1_024,20,F,2024-05-17_11h04.47.413,jersey_experiment_5_v1,2023.2.2,Win32,84.74576271,,,,,,,,,,,,,,,,910.0804,911.8803,911.8803,913.3625,return,0.1338,,51.171875,,,,,,FBP-RB-19.png,0.4,1.2,58,1,,,,,,,,,,,,,,,,,,0,29,29,57,1,,,,,,,,,,,,,,,,,,,,,,,
,,,,,V1_024,20,F,2024-05-17_11h04.47.413,jersey_experiment_5_v1,2023.2.2,Win32,84.74576271,,,,,,,,,,,,,,,,913.3627,915.1625,915.1625,916.7038,return,0.7243,,75.26041667,,,,,,FBP-RB-17.png,0.45,1.2,50,1,,,,,,,,,,,,,,,,,,0,30,30,49,1,,,,,,,,,,,,,,,,,,,,,,,
,,,,,V1_024,20,F,2024-05-17_11h04.47.413,jersey_experiment_5_v1,2023.2.2,Win32,84.74576271,,,,,,,,,,,,,,,,916.704,918.504,918.504,919.9039,return,0.0563,,34.63541667,,,,,,FBP-RB-17.png,0.35,1.2,46,1,,,,,,,,,,,,,,,,,,0,31,31,45,1,,,,,,,,,,,,,,,,,,,,,,,
,,,,,V1_024,20,F,2024-05-17_11h04.47.413,jersey_experiment_5_v1,2023.2.2,Win32,84.74576271,,,,,,,,,,,,,,,,919.9041,921.7042,921.7042,923.0453,return,0.0155,,75.78125,,,,,,FBP-YG-91.png,0.43,1.2,29,1,,,,,,,,,,,,,,,,,,0,32,32,28,1,,,,,,,,,,,,,,,,,,,,,,,
,,,,,V1_024,20,F,2024-05-17_11h04.47.413,jersey_experiment_5_v1,2023.2.2,Win32,84.74576271,,,,,,,,,,,,,,,,923.0455,924.8453,924.8454,925.5866,return,0.0746,,83.984375,,,,,,FBP-RB-17.png,0.43,1.2,49,1,,,,,,,,,,,,,,,,,,0,33,33,48,1,,,,,,,,,,,,,,,,,,,,,,,
,,,,,V1_024,20,F,2024-05-17_11h04.47.413,jersey_experiment_5_v1,2023.2.2,Win32,84.74576271,,,,,,,,,,,,,,,,925.5868,927.3866,927.3866,927.9631,return,0.0707,,90.88541667,,,,,,FBP-RB-18.png,0.43,1.2,54,1,,,,,,,,,,,,,,,,,,0,34,34,53,1,,,,,,,,,,,,,,,,,,,,,,,
,,,,,V1_024,20,F,2024-05-17_11h04.47.413,jersey_experiment_5_v1,2023.2.2,Win32,84.74576271,,,,,,,,,,,,,,,,927.9633,929.2573,929.2573,930.4809,return,0.0999,,25.78125,,,,,,FBP-PT-17.png,0.35,1.2,1,0.5,,,,,,,,,,,,,,,,,,0,35,35,0,1,,,,,,,,,,,,,,,,,,,,,,,
,,,,,V1_024,20,F,2024-05-17_11h04.47.413,jersey_experiment_5_v1,2023.2.2,Win32,84.74576271,,,,,,,,,,,,,,,,930.4812,932.2809,932.2809,933.8104,return,0.1714,,99.08854167,,,,,,FBP-OG-71.png,0.43,1.2,34,1,,,,,,,,,,,,,,,,,,0,36,36,33,1,,,,,,,,,,,,,,,,,,,,,,,
,,,,,V1_024,20,F,2024-05-17_11h04.47.413,jersey_experiment_5_v1,2023.2.2,Win32,84.74576271,,,,,,,,,,,,,,,,933.8106,935.1045,935.1045,939.2576,return,0.7767,,74.08854167,,,,,,FBP-PT-19.png,0.4,1.2,13,0.5,,,,,,,,,,,,,,,,,,0,37,37,12,1,,,,,,,,,,,,,,,,,,,,,,,
,,,,,V1_024,20,F,2024-05-17_11h04.47.413,jersey_experiment_5_v1,2023.2.2,Win32,84.74576271,,,,,,,,,,,,,,,,939.2579,940.552,940.552,942.4107,return,0.8849,,42.44791667,,,,,,FBP-PT-18.png,0.37,1.2,7,0.5,,,,,,,,,,,,,,,,,,0,38,38,6,1,,,,,,,,,,,,,,,,,,,,,,,
,,,,,V1_024,20,F,2024-05-17_11h04.47.413,jersey_experiment_5_v1,2023.2.2,Win32,84.74576271,,,,,,,,,,,,,,,,942.4109,944.2109,944.2109,945.5284,return,0.6831,,46.09375,,,,,,FBP-OG-91.png,0.37,1.2,42,1,,,,,,,,,,,,,,,,,,0,39,39,41,1,,,,,,,,,,,,,,,,,,,,,,,
,,,,,V1_024,20,F,2024-05-17_11h04.47.413,jersey_experiment_5_v1,2023.2.2,Win32,84.74576271,,,,,,,,,,,,,,,,945.5286,947.3286,947.3286,948.0697,return,0.0505,,55.59895833,,,,,,FBP-OG-71.png,0.4,1.2,33,1,,,,,,,,,,,,,,,,,,0,40,40,32,1,,,,,,,,,,,,,,,,,,,,,,,
,,,,,V1_024,20,F,2024-05-17_11h04.47.413,jersey_experiment_5_v1,2023.2.2,Win32,84.74576271,,,,,,,,,,,,,,,,948.0699,949.364,949.364,950.7757,return,0.1427,,75.52083333,,,,,,FBP-PT-17.png,0.45,1.2,5,0.5,,,,,,,,,,,,,,,,,,0,41,41,4,1,,,,,,,,,,,,,,,,,,,,,,,
,,,,,V1_024,20,F,2024-05-17_11h04.47.413,jersey_experiment_5_v1,2023.2.2,Win32,84.74576271,,,,,,,,,,,,,,,,950.7758,952.0698,952.0699,953.9521,return,0.5971,,56.25,,,,,,FBP-PT-19.png,0.37,1.2,12,0.5,,,,,,,,,,,,,,,,,,0,42,42,11,1,,,,,,,,,,,,,,,,,,,,,,,
,,,,,V1_024,20,F,2024-05-17_11h04.47.413,jersey_experiment_5_v1,2023.2.2,Win32,84.74576271,,,,,,,,,,,,,,,,953.9524,955.7525,955.7525,956.8231,return,0.0348,,25.65104167,,,,,,FBP-YG-71.png,0.35,1.2,16,1,,,,,,,,,,,,,,,,,,0,43,43,15,1,,,,,,,,,,,,,,,,,,,,,,,
,,,,,V1_024,20,F,2024-05-17_11h04.47.413,jersey_experiment_5_v1,2023.2.2,Win32,84.74576271,,,,,,,,,,,,,,,,956.8233,958.623,958.623,959.2349,return,0.0741,,25.26041667,,,,,,FBP-OG-81.png,0.35,1.2,36,1,,,,,,,,,,,,,,,,,,0,44,44,35,1,,,,,,,,,,,,,,,,,,,,,,,
,,,,,V1_024,20,F,2024-05-17_11h04.47.413,jersey_experiment_5_v1,2023.2.2,Win32,84.74576271,,,,,,,,,,,,,,,,959.2351,961.035,961.035,962.1527,return,0.0614,,64.0625,,,,,,FBP-RB-19.png,0.43,1.2,59,1,,,,,,,,,,,,,,,,,,0,45,45,58,1,,,,,,,,,,,,,,,,,,,,,,,
,,,,,V1_024,20,F,2024-05-17_11h04.47.413,jersey_experiment_5_v1,2023.2.2,Win32,84.74576271,,,,,,,,,,,,,,,,962.1529,963.9526,963.9527,964.9173,return,0.1069,,75.390625,,,,,,FBP-RB-18.png,0.45,1.2,55,1,,,,,,,,,,,,,,,,,,0,46,46,54,1,,,,,,,,,,,,,,,,,,,,,,,
,,,,,V1_024,20,F,2024-05-17_11h04.47.413,jersey_experiment_5_v1,2023.2.2,Win32,84.74576271,,,,,,,,,,,,,,,,964.9174,966.7177,966.7177,967.8586,return,0.1006,,44.27083333,,,,,,FBP-RB-19.png,0.35,1.2,56,1,,,,,,,,,,,,,,,,,,0,47,47,55,1,,,,,,,,,,,,,,,,,,,,,,,
,,,,,V1_024,20,F,2024-05-17_11h04.47.413,jersey_experiment_5_v1,2023.2.2,Win32,84.74576271,,,,,,,,,,,,,,,,967.8588,969.6588,969.6588,970.8587,return,0.0709,,78.90625,,,,,,FBP-YG-71.png,0.43,1.2,19,1,,,,,,,,,,,,,,,,,,0,48,48,18,1,,,,,,,,,,,,,,,,,,,,,,,
,,,,,V1_024,20,F,2024-05-17_11h04.47.413,jersey_experiment_5_v1,2023.2.2,Win32,84.74576271,,,,,,,,,,,,,,,,970.8589,972.659,972.659,974.6941,return,0.7206,,72.91666667,,,,,,FBP-RB-19.png,0.37,1.2,57,1,,,,,,,,,,,,,,,,,,0,49,49,56,1,,,,,,,,,,,,,,,,,,,,,,,
,,,,,V1_024,20,F,2024-05-17_11h04.47.413,jersey_experiment_5_v1,2023.2.2,Win32,84.74576271,,,,,,,,,,,,,,,,974.6944,975.9884,975.9884,977.306,return,0.1088,,25.13020833,,,,,,FBP-PT-18.png,0.35,1.2,6,0.5,,,,,,,,,,,,,,,,,,0,50,50,5,1,,,,,,,,,,,,,,,,,,,,,,,
,,,,,V1_024,20,F,2024-05-17_11h04.47.413,jersey_experiment_5_v1,2023.2.2,Win32,84.74576271,,,,,,,,,,,,,,,,977.3061,979.1061,979.1061,982.4592,return,0.0148,,73.69791667,,,,,,FBP-YG-71.png,0.45,1.2,20,1,,,,,,,,,,,,,,,,,,0,51,51,19,1,,,,,,,,,,,,,,,,,,,,,,,
,,,,,V1_024,20,F,2024-05-17_11h04.47.413,jersey_experiment_5_v1,2023.2.2,Win32,84.74576271,,,,,,,,,,,,,,,,982.4595,983.7534,983.7534,985.0945,return,0.0004,,94.01041667,,,,,,FBP-PT-18.png,0.4,1.2,8,0.5,,,,,,,,,,,,,,,,,,0,52,52,7,1,,,,,,,,,,,,,,,,,,,,,,,
,,,,,V1_024,20,F,2024-05-17_11h04.47.413,jersey_experiment_5_v1,2023.2.2,Win32,84.74576271,,,,,,,,,,,,,,,,985.0947,986.8948,986.8948,988.1652,return,0.0743,,73.828125,,,,,,FBP-YG-81.png,0.4,1.2,23,1,,,,,,,,,,,,,,,,,,0,53,53,22,1,,,,,,,,,,,,,,,,,,,,,,,
,,,,,V1_024,20,F,2024-05-17_11h04.47.413,jersey_experiment_5_v1,2023.2.2,Win32,84.74576271,,,,,,,,,,,,,,,,988.1653,989.9652,989.9653,990.4712,return,0.0253,,73.828125,,,,,,FBP-RB-17.png,0.37,1.2,47,1,,,,,,,,,,,,,,,,,,0,54,54,46,1,,,,,,,,,,,,,,,,,,,,,,,
,,,,,V1_024,20,F,2024-05-17_11h04.47.413,jersey_experiment_5_v1,2023.2.2,Win32,84.74576271,,,,,,,,,,,,,,,,990.4714,992.2713,992.2713,993.942,return,0.8245,,89.32291667,,,,,,FBP-OG-91.png,0.45,1.2,45,1,,,,,,,,,,,,,,,,,,0,55,55,44,1,,,,,,,,,,,,,,,,,,,,,,,
,,,,,V1_024,20,F,2024-05-17_11h04.47.413,jersey_experiment_5_v1,2023.2.2,Win32,84.74576271,,,,,,,,,,,,,,,,993.9423,995.2363,995.2363,995.8245,return,0.1705,,89.0625,,,,,,FBP-PT-17.png,0.4,1.2,3,0.5,,,,,,,,,,,,,,,,,,0,56,56,2,1,,,,,,,,,,,,,,,,,,,,,,,
,,,,,V1_024,20,F,2024-05-17_11h04.47.413,jersey_experiment_5_v1,2023.2.2,Win32,84.74576271,,,,,,,,,,,,,,,,995.8246,997.6246,997.6247,999.0011,return,0.0613,,26.171875,,,,,,FBP-OG-91.png,0.35,1.2,41,1,,,,,,,,,,,,,,,,,,0,57,57,40,1,,,,,,,,,,,,,,,,,,,,,,,
,,,,,V1_024,20,F,2024-05-17_11h04.47.413,jersey_experiment_5_v1,2023.2.2,Win32,84.74576271,,,,,,,,,,,,,,,,999.0014,1000.8012,1000.8012,1001.5304,return,0.0323,,51.5625,,,,,,FBP-YG-91.png,0.37,1.2,27,1,,,,,,,,,,,,,,,,,,0,58,58,26,1,,,,,,,,,,,,,,,,,,,,,,,
,,,,,V1_024,20,F,2024-05-17_11h04.47.413,jersey_experiment_5_v1,2023.2.2,Win32,84.74576271,,,,,,,,,,,,,,,,1001.5307,1003.3306,1003.3307,1004.7778,return,0.1274,,84.89583333,,,,,,FBP-OG-71.png,0.45,1.2,35,1,,,,,,,,,,,,,,,,,,0,59,59,34,1,,,,,,,,,,,,,,,,,,,,,,,
,,,,,V1_024,20,F,2024-05-17_11h04.47.413,jersey_experiment_5_v1,2023.2.2,Win32,84.74576271,,,,,,,,,,,,,,,,,,,,,,,,,,,,,,,,,,,,,,,,,,,,,,,,,,,,,,,,1004.7782,1009.6015,return,4.8166,,,,,,,,,,,,,,,,,,,
,,,,,V1_024,20,F,2024-05-17_11h04.47.413,jersey_experiment_5_v1,2023.2.2,Win32,84.74576271,,,,,,,,,,,,,,,,,,,,,,,,,,,,,,,,,,,,,,,,,,,,,,,,,,,,,,,,,,,,,1009.6016,1014.0487,1,3.2498,return,1.1847,,,,,,,,,,,,
,,,,,V1_024,20,F,2024-05-17_11h04.47.413,jersey_experiment_5_v1,2023.2.2,Win32,84.74576271,,,,,,,,,,,,,,,,,,,,,,,,,,,,,,,,,,,,,,,,,,,,,,,,,,,,,,,,,,,,,,,,,,,,1014.0488,1049.4076,I noticed that there were two different races of football players often switching,right,28.6365,,,,,,
,,,,,V1_024,20,F,2024-05-17_11h04.47.413,jersey_experiment_5_v1,2023.2.2,Win32,84.74576271,,,,,,,,,,,,,,,,,,,,,,,,,,,,,,,,,,,,,,,,,,,,,,,,,,,,,,,,,,,,,,,,,,,,,,,,,,1049.4077,1051.65,return,2.236,