requirements.started,requirements.stopped,key_resp_3.keys,key_resp_3.rt,key_resp_3.duration,Subject ID,Age,Gender,date,expName,psychopyVersion,OS,frameRate,instructions1.started,instructions1.stopped,key_resp.keys,key_resp.rt,key_resp.duration,example.started,example.stopped,enter_2.keys,enter_2.rt,enter_2.duration,instructions2.started,instructions2.stopped,enter_3.keys,enter_3.rt,enter_3.duration,image.started,image.stopped,slider_2.started,slider_2.stopped,next.keys,next.rt,next.duration,slider.response,trial_block_1.thisRepN,trial_block_1.thisTrialN,trial_block_1.thisN,trial_block_1.thisIndex,trial_block_1.ran,Path,Width,Height,Index,Duration,trial_block_2.thisRepN,trial_block_2.thisTrialN,trial_block_2.thisN,trial_block_2.thisIndex,trial_block_2.ran,rest_break.started,rest_break.stopped,end_break.started,end_break.stopped,key_resp_5.keys,key_resp_5.rt,key_resp_5.duration,trial_block_3.thisRepN,trial_block_3.thisTrialN,trial_block_3.thisN,trial_block_3.thisIndex,trial_block_3.ran,trial_block_4.thisRepN,trial_block_4.thisTrialN,trial_block_4.thisN,trial_block_4.thisIndex,trial_block_4.ran,questions_intro.started,questions_intro.stopped,enter_12.keys,enter_12.rt,enter_12.duration,question2.started,question2.stopped,question_doingbest.response,question_doingbest.rt,enter_15.keys,enter_15.rt,enter_15.duration,pattern.started,pattern.stopped,pattern_2.text,enter_17.keys,enter_17.rt,enter_17.duration,thankyou.started,thankyou.stopped,enter_14.keys,enter_14.rt,enter_14.duration
0.0001,10.3167,return,10.3084,,V1_007,21,female,2024-04-29_15h33.11.944,jersey_experiment_5_v1,2023.2.2,Win32,84.74576271,,,,,,,,,,,,,,,,,,,,,,,,,,,,,,,,,,,,,,,,,,,,,,,,,,,,,,,,,,,,,,,,,,,,,,,,,,,,,,
,,,,,V1_007,21,female,2024-04-29_15h33.11.944,jersey_experiment_5_v1,2023.2.2,Win32,84.74576271,10.3168,16.2815,return,5.9552,,,,,,,,,,,,,,,,,,,,,,,,,,,,,,,,,,,,,,,,,,,,,,,,,,,,,,,,,,,,,,,,,,,,,,,,,,
,,,,,V1_007,21,female,2024-04-29_15h33.11.944,jersey_experiment_5_v1,2023.2.2,Win32,84.74576271,,,,,,16.2817,18.8229,return,2.513,,,,,,,,,,,,,,,,,,,,,,,,,,,,,,,,,,,,,,,,,,,,,,,,,,,,,,,,,,,,,,,,,,,,,
,,,,,V1_007,21,female,2024-04-29_15h33.11.944,jersey_experiment_5_v1,2023.2.2,Win32,84.74576271,,,,,,,,,,,18.823,33.3411,return,14.5068,,,,,,,,,,,,,,,,,,,,,,,,,,,,,,,,,,,,,,,,,,,,,,,,,,,,,,,,,,,,,,,,
,,,,,V1_007,21,female,2024-04-29_15h33.11.944,jersey_experiment_5_v1,2023.2.2,Win32,84.74576271,,,,,,,,,,,,,,,,33.3482,35.1408,35.141,42.7294,return,2.8244,,74.609375,0,0,0,3,1,FBP-PT-71.png,0.43,1.2,4,1,,,,,,,,,,,,,,,,,,,,,,,,,,,,,,,,,,,,,,,,,,,,,
,,,,,V1_007,21,female,2024-04-29_15h33.11.944,jersey_experiment_5_v1,2023.2.2,Win32,84.74576271,,,,,,,,,,,,,,,,42.7297,44.0234,44.0234,50.8473,return,1.1539,,61.328125,0,1,1,24,1,FBP-YG-18.png,0.45,1.2,25,0.5,,,,,,,,,,,,,,,,,,,,,,,,,,,,,,,,,,,,,,,,,,,,,
,,,,,V1_007,21,female,2024-04-29_15h33.11.944,jersey_experiment_5_v1,2023.2.2,Win32,84.74576271,,,,,,,,,,,,,,,,50.8474,52.1414,52.1416,54.9887,return,0.5406,,56.90104167,0,2,2,53,1,FBP-RB-81.png,0.43,1.2,54,0.5,,,,,,,,,,,,,,,,,,,,,,,,,,,,,,,,,,,,,,,,,,,,,
,,,,,V1_007,21,female,2024-04-29_15h33.11.944,jersey_experiment_5_v1,2023.2.2,Win32,84.74576271,,,,,,,,,,,,,,,,54.989,56.2829,56.283,58.4711,return,0.7718,,47.52604167,0,3,3,42,1,FBP-OG-19.png,0.4,1.2,43,0.5,,,,,,,,,,,,,,,,,,,,,,,,,,,,,,,,,,,,,,,,,,,,,
,,,,,V1_007,21,female,2024-04-29_15h33.11.944,jersey_experiment_5_v1,2023.2.2,Win32,84.74576271,,,,,,,,,,,,,,,,58.4714,60.2712,60.2712,62.1067,return,0.8603,,42.96875,0,4,4,0,1,FBP-PT-71.png,0.35,1.2,1,1,,,,,,,,,,,,,,,,,,,,,,,,,,,,,,,,,,,,,,,,,,,,,
,,,,,V1_007,21,female,2024-04-29_15h33.11.944,jersey_experiment_5_v1,2023.2.2,Win32,84.74576271,,,,,,,,,,,,,,,,62.107,63.9069,63.9069,65.742,return,0.6834,,31.640625,0,5,5,10,1,FBP-PT-91.png,0.35,1.2,11,1,,,,,,,,,,,,,,,,,,,,,,,,,,,,,,,,,,,,,,,,,,,,,
,,,,,V1_007,21,female,2024-04-29_15h33.11.944,jersey_experiment_5_v1,2023.2.2,Win32,84.74576271,,,,,,,,,,,,,,,,65.7422,67.0361,67.0361,68.7421,return,0.5581,,36.45833333,0,6,6,30,1,FBP-OG-17.png,0.35,1.2,31,0.5,,,,,,,,,,,,,,,,,,,,,,,,,,,,,,,,,,,,,,,,,,,,,
,,,,,V1_007,21,female,2024-04-29_15h33.11.944,jersey_experiment_5_v1,2023.2.2,Win32,84.74576271,,,,,,,,,,,,,,,,68.7423,70.0362,70.0362,71.8479,return,0.5465,,54.55729167,0,7,7,27,1,FBP-YG-19.png,0.4,1.2,28,0.5,,,,,,,,,,,,,,,,,,,,,,,,,,,,,,,,,,,,,,,,,,,,,
,,,,,V1_007,21,female,2024-04-29_15h33.11.944,jersey_experiment_5_v1,2023.2.2,Win32,84.74576271,,,,,,,,,,,,,,,,71.8482,73.1422,73.1422,74.3657,return,0.1883,,47.00520833,0,8,8,26,1,FBP-YG-19.png,0.37,1.2,27,0.5,,,,,,,,,,,,,,,,,,,,,,,,,,,,,,,,,,,,,,,,,,,,,
,,,,,V1_007,21,female,2024-04-29_15h33.11.944,jersey_experiment_5_v1,2023.2.2,Win32,84.74576271,,,,,,,,,,,,,,,,74.366,76.166,76.166,78.1189,return,0.5461,,82.94270833,0,9,9,14,1,FBP-PT-91.png,0.45,1.2,15,1,,,,,,,,,,,,,,,,,,,,,,,,,,,,,,,,,,,,,,,,,,,,,
,,,,,V1_007,21,female,2024-04-29_15h33.11.944,jersey_experiment_5_v1,2023.2.2,Win32,84.74576271,,,,,,,,,,,,,,,,78.1192,79.9188,79.9189,81.0014,return,0.239,,89.19270833,0,10,10,9,1,FBP-PT-81.png,0.45,1.2,10,1,,,,,,,,,,,,,,,,,,,,,,,,,,,,,,,,,,,,,,,,,,,,,
,,,,,V1_007,21,female,2024-04-29_15h33.11.944,jersey_experiment_5_v1,2023.2.2,Win32,84.74576271,,,,,,,,,,,,,,,,81.0016,82.8014,82.8015,83.8133,return,0.4775,,76.82291667,0,11,11,1,1,FBP-PT-71.png,0.37,1.2,2,1,,,,,,,,,,,,,,,,,,,,,,,,,,,,,,,,,,,,,,,,,,,,,
,,,,,V1_007,21,female,2024-04-29_15h33.11.944,jersey_experiment_5_v1,2023.2.2,Win32,84.74576271,,,,,,,,,,,,,,,,83.8135,85.1077,85.1077,86.9546,return,0.8739,,64.84375,0,12,12,33,1,FBP-OG-17.png,0.43,1.2,34,0.5,,,,,,,,,,,,,,,,,,,,,,,,,,,,,,,,,,,,,,,,,,,,,
,,,,,V1_007,21,female,2024-04-29_15h33.11.944,jersey_experiment_5_v1,2023.2.2,Win32,84.74576271,,,,,,,,,,,,,,,,86.9548,88.2486,88.2486,89.8487,return,0.6497,,45.57291667,0,13,13,45,1,FBP-RB-71.png,0.35,1.2,46,0.5,,,,,,,,,,,,,,,,,,,,,,,,,,,,,,,,,,,,,,,,,,,,,
,,,,,V1_007,21,female,2024-04-29_15h33.11.944,jersey_experiment_5_v1,2023.2.2,Win32,84.74576271,,,,,,,,,,,,,,,,89.8489,91.1429,91.1429,92.1077,return,0.3079,,49.47916667,0,14,14,15,1,FBP-YG-17.png,0.35,1.2,16,0.5,,,,,,,,,,,,,,,,,,,,,,,,,,,,,,,,,,,,,,,,,,,,,
,,,,,V1_007,21,female,2024-04-29_15h33.11.944,jersey_experiment_5_v1,2023.2.2,Win32,84.74576271,,,,,,,,,,,,,,,,92.1079,93.4017,93.4017,94.1666,return,0.2166,,49.21875,0,15,15,55,1,FBP-RB-91.png,0.35,1.2,56,0.5,,,,,,,,,,,,,,,,,,,,,,,,,,,,,,,,,,,,,,,,,,,,,
,,,,,V1_007,21,female,2024-04-29_15h33.11.944,jersey_experiment_5_v1,2023.2.2,Win32,84.74576271,,,,,,,,,,,,,,,,94.1668,95.9666,95.9667,96.8725,return,0.2147,,62.36979167,0,16,16,6,1,FBP-PT-81.png,0.37,1.2,7,1,,,,,,,,,,,,,,,,,,,,,,,,,,,,,,,,,,,,,,,,,,,,,
,,,,,V1_007,21,female,2024-04-29_15h33.11.944,jersey_experiment_5_v1,2023.2.2,Win32,84.74576271,,,,,,,,,,,,,,,,96.8727,98.1667,98.1667,99.5668,return,0.2917,,74.08854167,0,17,17,57,1,FBP-RB-91.png,0.4,1.2,58,0.5,,,,,,,,,,,,,,,,,,,,,,,,,,,,,,,,,,,,,,,,,,,,,
,,,,,V1_007,21,female,2024-04-29_15h33.11.944,jersey_experiment_5_v1,2023.2.2,Win32,84.74576271,,,,,,,,,,,,,,,,99.567,100.861,100.861,103.1434,return,1.1916,,74.86979167,0,18,18,47,1,FBP-RB-71.png,0.4,1.2,48,0.5,,,,,,,,,,,,,,,,,,,,,,,,,,,,,,,,,,,,,,,,,,,,,
,,,,,V1_007,21,female,2024-04-29_15h33.11.944,jersey_experiment_5_v1,2023.2.2,Win32,84.74576271,,,,,,,,,,,,,,,,103.1436,104.9432,104.9432,106.6022,return,0.2008,,61.45833333,0,19,19,8,1,FBP-PT-81.png,0.43,1.2,9,1,,,,,,,,,,,,,,,,,,,,,,,,,,,,,,,,,,,,,,,,,,,,,
,,,,,V1_007,21,female,2024-04-29_15h33.11.944,jersey_experiment_5_v1,2023.2.2,Win32,84.74576271,,,,,,,,,,,,,,,,106.6025,107.8965,107.8965,109.5202,return,0.2356,,97.00520833,0,20,20,49,1,FBP-RB-71.png,0.45,1.2,50,0.5,,,,,,,,,,,,,,,,,,,,,,,,,,,,,,,,,,,,,,,,,,,,,
,,,,,V1_007,21,female,2024-04-29_15h33.11.944,jersey_experiment_5_v1,2023.2.2,Win32,84.74576271,,,,,,,,,,,,,,,,109.5203,110.8141,110.8141,111.7908,return,0.2594,,64.71354167,0,21,21,51,1,FBP-RB-81.png,0.37,1.2,52,0.5,,,,,,,,,,,,,,,,,,,,,,,,,,,,,,,,,,,,,,,,,,,,,
,,,,,V1_007,21,female,2024-04-29_15h33.11.944,jersey_experiment_5_v1,2023.2.2,Win32,84.74576271,,,,,,,,,,,,,,,,111.791,113.5909,113.591,114.2967,return,0.1559,,63.93229167,0,22,22,5,1,FBP-PT-81.png,0.35,1.2,6,1,,,,,,,,,,,,,,,,,,,,,,,,,,,,,,,,,,,,,,,,,,,,,
,,,,,V1_007,21,female,2024-04-29_15h33.11.944,jersey_experiment_5_v1,2023.2.2,Win32,84.74576271,,,,,,,,,,,,,,,,114.2969,116.0968,116.0968,117.0145,return,0.1706,,65.88541667,0,23,23,11,1,FBP-PT-91.png,0.37,1.2,12,1,,,,,,,,,,,,,,,,,,,,,,,,,,,,,,,,,,,,,,,,,,,,,
,,,,,V1_007,21,female,2024-04-29_15h33.11.944,jersey_experiment_5_v1,2023.2.2,Win32,84.74576271,,,,,,,,,,,,,,,,117.0147,118.3087,118.3087,119.4499,return,0.1785,,75.26041667,0,24,24,43,1,FBP-OG-19.png,0.43,1.2,44,0.5,,,,,,,,,,,,,,,,,,,,,,,,,,,,,,,,,,,,,,,,,,,,,
,,,,,V1_007,21,female,2024-04-29_15h33.11.944,jersey_experiment_5_v1,2023.2.2,Win32,84.74576271,,,,,,,,,,,,,,,,119.4501,120.744,120.744,122.2853,return,0.9643,,70.3125,0,25,25,48,1,FBP-RB-71.png,0.43,1.2,49,0.5,,,,,,,,,,,,,,,,,,,,,,,,,,,,,,,,,,,,,,,,,,,,,
,,,,,V1_007,21,female,2024-04-29_15h33.11.944,jersey_experiment_5_v1,2023.2.2,Win32,84.74576271,,,,,,,,,,,,,,,,122.2854,123.5793,123.5794,124.6147,return,0.1703,,47.52604167,0,26,26,37,1,FBP-OG-18.png,0.4,1.2,38,0.5,,,,,,,,,,,,,,,,,,,,,,,,,,,,,,,,,,,,,,,,,,,,,
,,,,,V1_007,21,female,2024-04-29_15h33.11.944,jersey_experiment_5_v1,2023.2.2,Win32,84.74576271,,,,,,,,,,,,,,,,124.615,125.9089,125.909,127.1443,return,0.0855,,55.859375,0,27,27,32,1,FBP-OG-17.png,0.4,1.2,33,0.5,,,,,,,,,,,,,,,,,,,,,,,,,,,,,,,,,,,,,,,,,,,,,
,,,,,V1_007,21,female,2024-04-29_15h33.11.944,jersey_experiment_5_v1,2023.2.2,Win32,84.74576271,,,,,,,,,,,,,,,,127.1444,128.4383,128.4383,129.6386,return,0.3225,,68.75,0,28,28,59,1,FBP-RB-91.png,0.45,1.2,60,0.5,,,,,,,,,,,,,,,,,,,,,,,,,,,,,,,,,,,,,,,,,,,,,
,,,,,V1_007,21,female,2024-04-29_15h33.11.944,jersey_experiment_5_v1,2023.2.2,Win32,84.74576271,,,,,,,,,,,,,,,,129.6387,130.9327,130.9327,131.8622,return,0.1604,,77.47395833,0,29,29,29,1,FBP-YG-19.png,0.45,1.2,30,0.5,,,,,,,,,,,,,,,,,,,,,,,,,,,,,,,,,,,,,,,,,,,,,
,,,,,V1_007,21,female,2024-04-29_15h33.11.944,jersey_experiment_5_v1,2023.2.2,Win32,84.74576271,,,,,,,,,,,,,,,,131.8623,133.1561,133.1562,134.1327,return,0.3147,,75.13020833,0,30,30,44,1,FBP-OG-19.png,0.45,1.2,45,0.5,,,,,,,,,,,,,,,,,,,,,,,,,,,,,,,,,,,,,,,,,,,,,
,,,,,V1_007,21,female,2024-04-29_15h33.11.944,jersey_experiment_5_v1,2023.2.2,Win32,84.74576271,,,,,,,,,,,,,,,,134.1329,135.4268,135.4268,136.4387,return,0.2048,,72.78645833,0,31,31,52,1,FBP-RB-81.png,0.4,1.2,53,0.5,,,,,,,,,,,,,,,,,,,,,,,,,,,,,,,,,,,,,,,,,,,,,
,,,,,V1_007,21,female,2024-04-29_15h33.11.944,jersey_experiment_5_v1,2023.2.2,Win32,84.74576271,,,,,,,,,,,,,,,,136.4389,137.7329,137.7329,138.5683,return,0.2522,,68.48958333,0,32,32,56,1,FBP-RB-91.png,0.37,1.2,57,0.5,,,,,,,,,,,,,,,,,,,,,,,,,,,,,,,,,,,,,,,,,,,,,
,,,,,V1_007,21,female,2024-04-29_15h33.11.944,jersey_experiment_5_v1,2023.2.2,Win32,84.74576271,,,,,,,,,,,,,,,,138.5685,139.8625,139.8625,140.5918,return,0.1416,,71.09375,0,33,33,28,1,FBP-YG-19.png,0.43,1.2,29,0.5,,,,,,,,,,,,,,,,,,,,,,,,,,,,,,,,,,,,,,,,,,,,,
,,,,,V1_007,21,female,2024-04-29_15h33.11.944,jersey_experiment_5_v1,2023.2.2,Win32,84.74576271,,,,,,,,,,,,,,,,140.5919,141.886,141.886,142.639,return,0.1791,,74.609375,0,34,34,19,1,FBP-YG-17.png,0.45,1.2,20,0.5,,,,,,,,,,,,,,,,,,,,,,,,,,,,,,,,,,,,,,,,,,,,,
,,,,,V1_007,21,female,2024-04-29_15h33.11.944,jersey_experiment_5_v1,2023.2.2,Win32,84.74576271,,,,,,,,,,,,,,,,142.6391,144.4391,144.4391,145.2627,return,0.1415,,64.19270833,0,35,35,2,1,FBP-PT-71.png,0.4,1.2,3,1,,,,,,,,,,,,,,,,,,,,,,,,,,,,,,,,,,,,,,,,,,,,,
,,,,,V1_007,21,female,2024-04-29_15h33.11.944,jersey_experiment_5_v1,2023.2.2,Win32,84.74576271,,,,,,,,,,,,,,,,145.2629,146.5567,146.5567,147.5804,return,0.2342,,72.39583333,0,36,36,58,1,FBP-RB-91.png,0.43,1.2,59,0.5,,,,,,,,,,,,,,,,,,,,,,,,,,,,,,,,,,,,,,,,,,,,,
,,,,,V1_007,21,female,2024-04-29_15h33.11.944,jersey_experiment_5_v1,2023.2.2,Win32,84.74576271,,,,,,,,,,,,,,,,147.5806,149.3803,149.3803,150.1215,return,0.0957,,61.06770833,0,37,37,7,1,FBP-PT-81.png,0.4,1.2,8,1,,,,,,,,,,,,,,,,,,,,,,,,,,,,,,,,,,,,,,,,,,,,,
,,,,,V1_007,21,female,2024-04-29_15h33.11.944,jersey_experiment_5_v1,2023.2.2,Win32,84.74576271,,,,,,,,,,,,,,,,150.1218,151.4157,151.4158,152.0864,return,0.0878,,64.19270833,0,38,38,23,1,FBP-YG-18.png,0.43,1.2,24,0.5,,,,,,,,,,,,,,,,,,,,,,,,,,,,,,,,,,,,,,,,,,,,,
,,,,,V1_007,21,female,2024-04-29_15h33.11.944,jersey_experiment_5_v1,2023.2.2,Win32,84.74576271,,,,,,,,,,,,,,,,152.0865,153.3805,153.3805,154.0863,return,0.1811,,64.19270833,0,39,39,38,1,FBP-OG-18.png,0.43,1.2,39,0.5,,,,,,,,,,,,,,,,,,,,,,,,,,,,,,,,,,,,,,,,,,,,,
,,,,,V1_007,21,female,2024-04-29_15h33.11.944,jersey_experiment_5_v1,2023.2.2,Win32,84.74576271,,,,,,,,,,,,,,,,154.0866,155.3806,155.3806,157.0161,return,0.2294,,48.56770833,0,40,40,16,1,FBP-YG-17.png,0.37,1.2,17,0.5,,,,,,,,,,,,,,,,,,,,,,,,,,,,,,,,,,,,,,,,,,,,,
,,,,,V1_007,21,female,2024-04-29_15h33.11.944,jersey_experiment_5_v1,2023.2.2,Win32,84.74576271,,,,,,,,,,,,,,,,157.0163,158.3104,158.3104,159.0161,return,0.1454,,50.26041667,0,41,41,46,1,FBP-RB-71.png,0.37,1.2,47,0.5,,,,,,,,,,,,,,,,,,,,,,,,,,,,,,,,,,,,,,,,,,,,,
,,,,,V1_007,21,female,2024-04-29_15h33.11.944,jersey_experiment_5_v1,2023.2.2,Win32,84.74576271,,,,,,,,,,,,,,,,159.0163,160.3104,160.3104,161.4044,return,0.1284,,50.26041667,0,42,42,20,1,FBP-YG-18.png,0.35,1.2,21,0.5,,,,,,,,,,,,,,,,,,,,,,,,,,,,,,,,,,,,,,,,,,,,,
,,,,,V1_007,21,female,2024-04-29_15h33.11.944,jersey_experiment_5_v1,2023.2.2,Win32,84.74576271,,,,,,,,,,,,,,,,161.4047,162.6986,162.6987,164.6869,return,0.367,,75.13020833,0,43,43,34,1,FBP-OG-17.png,0.45,1.2,35,0.5,,,,,,,,,,,,,,,,,,,,,,,,,,,,,,,,,,,,,,,,,,,,,
,,,,,V1_007,21,female,2024-04-29_15h33.11.944,jersey_experiment_5_v1,2023.2.2,Win32,84.74576271,,,,,,,,,,,,,,,,164.6871,165.9813,165.9813,166.9341,return,0.1486,,63.28125,0,44,44,25,1,FBP-YG-19.png,0.35,1.2,26,0.5,,,,,,,,,,,,,,,,,,,,,,,,,,,,,,,,,,,,,,,,,,,,,
,,,,,V1_007,21,female,2024-04-29_15h33.11.944,jersey_experiment_5_v1,2023.2.2,Win32,84.74576271,,,,,,,,,,,,,,,,166.9343,168.2281,168.2281,168.9575,return,0.1274,,61.19791667,0,45,45,17,1,FBP-YG-17.png,0.4,1.2,18,0.5,,,,,,,,,,,,,,,,,,,,,,,,,,,,,,,,,,,,,,,,,,,,,
,,,,,V1_007,21,female,2024-04-29_15h33.11.944,jersey_experiment_5_v1,2023.2.2,Win32,84.74576271,,,,,,,,,,,,,,,,168.9578,170.2518,170.2518,171.4636,return,0.1687,,74.47916667,0,46,46,54,1,FBP-RB-81.png,0.45,1.2,55,0.5,,,,,,,,,,,,,,,,,,,,,,,,,,,,,,,,,,,,,,,,,,,,,
,,,,,V1_007,21,female,2024-04-29_15h33.11.944,jersey_experiment_5_v1,2023.2.2,Win32,84.74576271,,,,,,,,,,,,,,,,171.4637,172.7578,172.7578,173.7695,return,0.1804,,62.890625,0,47,47,21,1,FBP-YG-18.png,0.37,1.2,22,0.5,,,,,,,,,,,,,,,,,,,,,,,,,,,,,,,,,,,,,,,,,,,,,
,,,,,V1_007,21,female,2024-04-29_15h33.11.944,jersey_experiment_5_v1,2023.2.2,Win32,84.74576271,,,,,,,,,,,,,,,,173.7698,175.0637,175.0637,176.0637,return,0.1415,,51.43229167,0,48,48,35,1,FBP-OG-18.png,0.35,1.2,36,0.5,,,,,,,,,,,,,,,,,,,,,,,,,,,,,,,,,,,,,,,,,,,,,
,,,,,V1_007,21,female,2024-04-29_15h33.11.944,jersey_experiment_5_v1,2023.2.2,Win32,84.74576271,,,,,,,,,,,,,,,,176.064,177.3579,177.3579,178.3815,return,0.212,,50,0,49,49,50,1,FBP-RB-81.png,0.35,1.2,51,0.5,,,,,,,,,,,,,,,,,,,,,,,,,,,,,,,,,,,,,,,,,,,,,
,,,,,V1_007,21,female,2024-04-29_15h33.11.944,jersey_experiment_5_v1,2023.2.2,Win32,84.74576271,,,,,,,,,,,,,,,,178.3816,180.1816,180.1816,181.711,return,0.1418,,63.15104167,0,50,50,12,1,FBP-PT-91.png,0.4,1.2,13,1,,,,,,,,,,,,,,,,,,,,,,,,,,,,,,,,,,,,,,,,,,,,,
,,,,,V1_007,21,female,2024-04-29_15h33.11.944,jersey_experiment_5_v1,2023.2.2,Win32,84.74576271,,,,,,,,,,,,,,,,181.7113,183.0051,183.0052,183.7345,return,0.1245,,59.375,0,51,51,36,1,FBP-OG-18.png,0.37,1.2,37,0.5,,,,,,,,,,,,,,,,,,,,,,,,,,,,,,,,,,,,,,,,,,,,,
,,,,,V1_007,21,female,2024-04-29_15h33.11.944,jersey_experiment_5_v1,2023.2.2,Win32,84.74576271,,,,,,,,,,,,,,,,183.7348,185.0288,185.0288,186.1701,return,0.1095,,49.34895833,0,52,52,40,1,FBP-OG-19.png,0.35,1.2,41,0.5,,,,,,,,,,,,,,,,,,,,,,,,,,,,,,,,,,,,,,,,,,,,,
,,,,,V1_007,21,female,2024-04-29_15h33.11.944,jersey_experiment_5_v1,2023.2.2,Win32,84.74576271,,,,,,,,,,,,,,,,186.1703,187.9701,187.9701,193.288,return,4.3685,,73.56770833,0,53,53,13,1,FBP-PT-91.png,0.43,1.2,14,1,,,,,,,,,,,,,,,,,,,,,,,,,,,,,,,,,,,,,,,,,,,,,
,,,,,V1_007,21,female,2024-04-29_15h33.11.944,jersey_experiment_5_v1,2023.2.2,Win32,84.74576271,,,,,,,,,,,,,,,,193.2925,194.5938,194.5938,200.2999,return,0.7054,,60.41666667,0,54,54,18,1,FBP-YG-17.png,0.43,1.2,19,0.5,,,,,,,,,,,,,,,,,,,,,,,,,,,,,,,,,,,,,,,,,,,,,
,,,,,V1_007,21,female,2024-04-29_15h33.11.944,jersey_experiment_5_v1,2023.2.2,Win32,84.74576271,,,,,,,,,,,,,,,,200.3001,202.1002,202.1002,203.5001,return,0.237,,74.21875,0,55,55,4,1,FBP-PT-71.png,0.45,1.2,5,1,,,,,,,,,,,,,,,,,,,,,,,,,,,,,,,,,,,,,,,,,,,,,
,,,,,V1_007,21,female,2024-04-29_15h33.11.944,jersey_experiment_5_v1,2023.2.2,Win32,84.74576271,,,,,,,,,,,,,,,,203.5005,204.7943,204.7943,206.253,return,0.1648,,60.80729167,0,56,56,22,1,FBP-YG-18.png,0.4,1.2,23,0.5,,,,,,,,,,,,,,,,,,,,,,,,,,,,,,,,,,,,,,,,,,,,,
,,,,,V1_007,21,female,2024-04-29_15h33.11.944,jersey_experiment_5_v1,2023.2.2,Win32,84.74576271,,,,,,,,,,,,,,,,206.2532,207.5473,207.5473,208.6061,return,0.1415,,47.39583333,0,57,57,41,1,FBP-OG-19.png,0.37,1.2,42,0.5,,,,,,,,,,,,,,,,,,,,,,,,,,,,,,,,,,,,,,,,,,,,,
,,,,,V1_007,21,female,2024-04-29_15h33.11.944,jersey_experiment_5_v1,2023.2.2,Win32,84.74576271,,,,,,,,,,,,,,,,208.6063,209.9003,209.9003,211.3122,return,0.1413,,74.47916667,0,58,58,39,1,FBP-OG-18.png,0.45,1.2,40,0.5,,,,,,,,,,,,,,,,,,,,,,,,,,,,,,,,,,,,,,,,,,,,,
,,,,,V1_007,21,female,2024-04-29_15h33.11.944,jersey_experiment_5_v1,2023.2.2,Win32,84.74576271,,,,,,,,,,,,,,,,211.3124,212.6065,212.6065,213.9124,return,0.0971,,60.67708333,0,59,59,31,1,FBP-OG-17.png,0.37,1.2,32,0.5,,,,,,,,,,,,,,,,,,,,,,,,,,,,,,,,,,,,,,,,,,,,,
,,,,,V1_007,21,female,2024-04-29_15h33.11.944,jersey_experiment_5_v1,2023.2.2,Win32,84.74576271,,,,,,,,,,,,,,,,213.914,215.7123,215.7124,216.4889,return,0.1696,,58.33333333,,,,,,FBP-PT-19.png,0.4,1.2,13,1,0,0,0,12,1,,,,,,,,,,,,,,,,,,,,,,,,,,,,,,,,,,,,,,,,
,,,,,V1_007,21,female,2024-04-29_15h33.11.944,jersey_experiment_5_v1,2023.2.2,Win32,84.74576271,,,,,,,,,,,,,,,,216.4892,217.783,217.783,218.7831,return,0.1546,,45.18229167,,,,,,FBP-OG-81.png,0.45,1.2,40,0.5,0,1,1,39,1,,,,,,,,,,,,,,,,,,,,,,,,,,,,,,,,,,,,,,,,
,,,,,V1_007,21,female,2024-04-29_15h33.11.944,jersey_experiment_5_v1,2023.2.2,Win32,84.74576271,,,,,,,,,,,,,,,,218.7834,220.0772,220.0772,220.8538,return,0.1707,,45.18229167,,,,,,FBP-YG-81.png,0.37,1.2,22,0.5,0,2,2,21,1,,,,,,,,,,,,,,,,,,,,,,,,,,,,,,,,,,,,,,,,
,,,,,V1_007,21,female,2024-04-29_15h33.11.944,jersey_experiment_5_v1,2023.2.2,Win32,84.74576271,,,,,,,,,,,,,,,,220.8541,222.6537,222.6537,223.4185,return,0.1558,,46.875,,,,,,FBP-PT-17.png,0.37,1.2,2,1,0,3,3,1,1,,,,,,,,,,,,,,,,,,,,,,,,,,,,,,,,,,,,,,,,
,,,,,V1_007,21,female,2024-04-29_15h33.11.944,jersey_experiment_5_v1,2023.2.2,Win32,84.74576271,,,,,,,,,,,,,,,,223.4187,224.7127,224.7127,225.5599,return,0.1593,,44.66145833,,,,,,FBP-OG-71.png,0.35,1.2,31,0.5,0,4,4,30,1,,,,,,,,,,,,,,,,,,,,,,,,,,,,,,,,,,,,,,,,
,,,,,V1_007,21,female,2024-04-29_15h33.11.944,jersey_experiment_5_v1,2023.2.2,Win32,84.74576271,,,,,,,,,,,,,,,,225.5601,226.8539,226.8539,228.1599,return,0.1887,,71.61458333,,,,,,FBP-YG-91.png,0.45,1.2,30,0.5,0,5,5,29,1,,,,,,,,,,,,,,,,,,,,,,,,,,,,,,,,,,,,,,,,
,,,,,V1_007,21,female,2024-04-29_15h33.11.944,jersey_experiment_5_v1,2023.2.2,Win32,84.74576271,,,,,,,,,,,,,,,,228.1602,229.4541,229.4541,230.3129,return,0.168,,59.765625,,,,,,FBP-YG-71.png,0.4,1.2,18,0.5,0,6,6,17,1,,,,,,,,,,,,,,,,,,,,,,,,,,,,,,,,,,,,,,,,
,,,,,V1_007,21,female,2024-04-29_15h33.11.944,jersey_experiment_5_v1,2023.2.2,Win32,84.74576271,,,,,,,,,,,,,,,,230.3132,232.1131,232.1131,232.7481,return,0.1425,,44.40104167,,,,,,FBP-PT-19.png,0.37,1.2,12,1,0,7,7,11,1,,,,,,,,,,,,,,,,,,,,,,,,,,,,,,,,,,,,,,,,
,,,,,V1_007,21,female,2024-04-29_15h33.11.944,jersey_experiment_5_v1,2023.2.2,Win32,84.74576271,,,,,,,,,,,,,,,,232.7485,234.0423,234.0425,235.2894,return,0.1551,,74.21875,,,,,,FBP-RB-17.png,0.45,1.2,50,0.5,0,8,8,49,1,,,,,,,,,,,,,,,,,,,,,,,,,,,,,,,,,,,,,,,,
,,,,,V1_007,21,female,2024-04-29_15h33.11.944,jersey_experiment_5_v1,2023.2.2,Win32,84.74576271,,,,,,,,,,,,,,,,235.2896,236.5837,236.5838,237.3249,return,0.1786,,75.65104167,,,,,,FBP-YG-81.png,0.43,1.2,24,0.5,0,9,9,23,1,,,,,,,,,,,,,,,,,,,,,,,,,,,,,,,,,,,,,,,,
,,,,,V1_007,21,female,2024-04-29_15h33.11.944,jersey_experiment_5_v1,2023.2.2,Win32,84.74576271,,,,,,,,,,,,,,,,237.3252,238.6192,238.6192,239.584,return,0.131,,44.140625,,,,,,FBP-YG-91.png,0.37,1.2,27,0.5,0,10,10,26,1,,,,,,,,,,,,,,,,,,,,,,,,,,,,,,,,,,,,,,,,
,,,,,V1_007,21,female,2024-04-29_15h33.11.944,jersey_experiment_5_v1,2023.2.2,Win32,84.74576271,,,,,,,,,,,,,,,,239.5843,240.878,240.878,241.6076,return,0.1592,,42.70833333,,,,,,FBP-RB-18.png,0.37,1.2,52,0.5,0,11,11,51,1,,,,,,,,,,,,,,,,,,,,,,,,,,,,,,,,,,,,,,,,
,,,,,V1_007,21,female,2024-04-29_15h33.11.944,jersey_experiment_5_v1,2023.2.2,Win32,84.74576271,,,,,,,,,,,,,,,,241.6079,243.4077,243.4077,244.1724,return,0.1647,,63.54166667,,,,,,FBP-PT-17.png,0.43,1.2,4,1,0,12,12,3,1,,,,,,,,,,,,,,,,,,,,,,,,,,,,,,,,,,,,,,,,
,,,,,V1_007,21,female,2024-04-29_15h33.11.944,jersey_experiment_5_v1,2023.2.2,Win32,84.74576271,,,,,,,,,,,,,,,,244.1725,245.4664,245.4665,246.1487,return,0.2425,,63.54166667,,,,,,FBP-YG-91.png,0.4,1.2,28,0.5,0,13,13,27,1,,,,,,,,,,,,,,,,,,,,,,,,,,,,,,,,,,,,,,,,
,,,,,V1_007,21,female,2024-04-29_15h33.11.944,jersey_experiment_5_v1,2023.2.2,Win32,84.74576271,,,,,,,,,,,,,,,,246.1488,247.443,247.443,248.3607,return,0.145,,45.44270833,,,,,,FBP-YG-71.png,0.35,1.2,16,0.5,0,14,14,15,1,,,,,,,,,,,,,,,,,,,,,,,,,,,,,,,,,,,,,,,,
,,,,,V1_007,21,female,2024-04-29_15h33.11.944,jersey_experiment_5_v1,2023.2.2,Win32,84.74576271,,,,,,,,,,,,,,,,248.3609,249.6549,249.6549,250.3136,return,0.157,,41.27604167,,,,,,FBP-RB-17.png,0.37,1.2,47,0.5,0,15,15,46,1,,,,,,,,,,,,,,,,,,,,,,,,,,,,,,,,,,,,,,,,
,,,,,V1_007,21,female,2024-04-29_15h33.11.944,jersey_experiment_5_v1,2023.2.2,Win32,84.74576271,,,,,,,,,,,,,,,,250.3138,252.1138,252.1138,253.0079,return,0.1886,,72.39583333,,,,,,FBP-PT-18.png,0.43,1.2,9,1,0,16,16,8,1,,,,,,,,,,,,,,,,,,,,,,,,,,,,,,,,,,,,,,,,
,,,,,V1_007,21,female,2024-04-29_15h33.11.944,jersey_experiment_5_v1,2023.2.2,Win32,84.74576271,,,,,,,,,,,,,,,,253.0082,254.3021,254.3021,255.2433,return,0.1762,,75.390625,,,,,,FBP-OG-71.png,0.45,1.2,35,0.5,0,17,17,34,1,,,,,,,,,,,,,,,,,,,,,,,,,,,,,,,,,,,,,,,,
,,,,,V1_007,21,female,2024-04-29_15h33.11.944,jersey_experiment_5_v1,2023.2.2,Win32,84.74576271,,,,,,,,,,,,,,,,255.2435,257.0435,257.0435,257.808,return,0.1895,,75.52083333,,,,,,FBP-PT-19.png,0.45,1.2,15,1,0,18,18,14,1,,,,,,,,,,,,,,,,,,,,,,,,,,,,,,,,,,,,,,,,
,,,,,V1_007,21,female,2024-04-29_15h33.11.944,jersey_experiment_5_v1,2023.2.2,Win32,84.74576271,,,,,,,,,,,,,,,,257.8082,259.1022,259.1022,259.8786,return,0.3597,,75.52083333,,,,,,FBP-OG-91.png,0.43,1.2,44,0.5,0,19,19,43,1,,,,,,,,,,,,,,,,,,,,,,,,,,,,,,,,,,,,,,,,
,,,,,V1_007,21,female,2024-04-29_15h33.11.944,jersey_experiment_5_v1,2023.2.2,Win32,84.74576271,,,,,,,,,,,,,,,,259.8788,261.1728,261.1728,262.0553,return,0.099,,62.5,,,,,,FBP-OG-71.png,0.37,1.2,32,0.5,0,20,20,31,1,,,,,,,,,,,,,,,,,,,,,,,,,,,,,,,,,,,,,,,,
,,,,,V1_007,21,female,2024-04-29_15h33.11.944,jersey_experiment_5_v1,2023.2.2,Win32,84.74576271,,,,,,,,,,,,,,,,262.0555,263.3493,263.3493,263.9613,return,0.1809,,62.5,,,,,,FBP-OG-91.png,0.37,1.2,42,0.5,0,21,21,41,1,,,,,,,,,,,,,,,,,,,,,,,,,,,,,,,,,,,,,,,,
,,,,,V1_007,21,female,2024-04-29_15h33.11.944,jersey_experiment_5_v1,2023.2.2,Win32,84.74576271,,,,,,,,,,,,,,,,263.9616,265.7612,265.7612,266.4554,return,0.1828,,75.78125,,,,,,FBP-PT-18.png,0.45,1.2,10,1,0,22,22,9,1,,,,,,,,,,,,,,,,,,,,,,,,,,,,,,,,,,,,,,,,
,,,,,V1_007,21,female,2024-04-29_15h33.11.944,jersey_experiment_5_v1,2023.2.2,Win32,84.74576271,,,,,,,,,,,,,,,,266.4557,267.7497,267.7498,268.5262,return,0.0843,,62.36979167,,,,,,FBP-RB-18.png,0.4,1.2,53,0.5,0,23,23,52,1,,,,,,,,,,,,,,,,,,,,,,,,,,,,,,,,,,,,,,,,
,,,,,V1_007,21,female,2024-04-29_15h33.11.944,jersey_experiment_5_v1,2023.2.2,Win32,84.74576271,,,,,,,,,,,,,,,,268.5264,269.8203,269.8203,270.5027,return,0.1361,,67.96875,,,,,,FBP-YG-81.png,0.45,1.2,25,0.5,0,24,24,24,1,,,,,,,,,,,,,,,,,,,,,,,,,,,,,,,,,,,,,,,,
,,,,,V1_007,21,female,2024-04-29_15h33.11.944,jersey_experiment_5_v1,2023.2.2,Win32,84.74576271,,,,,,,,,,,,,,,,270.503,271.7969,271.7969,272.6321,return,0.1566,,43.61979167,,,,,,FBP-RB-19.png,0.35,1.2,56,0.5,0,25,25,55,1,,,,,,,,,,,,,,,,,,,,,,,,,,,,,,,,,,,,,,,,
,,,,,V1_007,21,female,2024-04-29_15h33.11.944,jersey_experiment_5_v1,2023.2.2,Win32,84.74576271,,,,,,,,,,,,,,,,272.6324,273.9264,273.9264,274.5499,return,0.1699,,39.84375,,,,,,FBP-OG-91.png,0.35,1.2,41,0.5,0,26,26,40,1,,,,,,,,,,,,,,,,,,,,,,,,,,,,,,,,,,,,,,,,
,,,,,V1_007,21,female,2024-04-29_15h33.11.944,jersey_experiment_5_v1,2023.2.2,Win32,84.74576271,,,,,,,,,,,,,,,,274.5502,275.8442,275.8442,276.55,return,0.1007,,39.84375,,,,,,FBP-RB-17.png,0.4,1.2,48,0.5,0,27,27,47,1,,,,,,,,,,,,,,,,,,,,,,,,,,,,,,,,,,,,,,,,
,,,,,V1_007,21,female,2024-04-29_15h33.11.944,jersey_experiment_5_v1,2023.2.2,Win32,84.74576271,,,,,,,,,,,,,,,,276.5502,278.3501,278.3501,279.1618,return,0.2037,,34.11458333,,,,,,FBP-PT-17.png,0.35,1.2,1,1,0,28,28,0,1,,,,,,,,,,,,,,,,,,,,,,,,,,,,,,,,,,,,,,,,
,,,,,V1_007,21,female,2024-04-29_15h33.11.944,jersey_experiment_5_v1,2023.2.2,Win32,84.74576271,,,,,,,,,,,,,,,,279.162,280.456,280.456,281.5972,return,0.2121,,55.98958333,,,,,,FBP-RB-17.png,0.43,1.2,49,0.5,0,29,29,48,1,,,,,,,,,,,,,,,,,,,,,,,,,,,,,,,,,,,,,,,,
,,,,,V1_007,21,female,2024-04-29_15h33.11.944,jersey_experiment_5_v1,2023.2.2,Win32,84.74576271,,,,,,,,,,,,,,,,281.5973,282.8913,282.8913,284.2327,return,0.6405,,56.25,,,,,,FBP-OG-91.png,0.45,1.2,45,0.5,0,30,30,44,1,,,,,,,,,,,,,,,,,,,,,,,,,,,,,,,,,,,,,,,,
,,,,,V1_007,21,female,2024-04-29_15h33.11.944,jersey_experiment_5_v1,2023.2.2,Win32,84.74576271,,,,,,,,,,,,,,,,284.233,285.5266,285.5267,288.4798,return,0.7066,,36.71875,,,,,,FBP-YG-81.png,0.35,1.2,21,0.5,0,31,31,20,1,,,,,,,,,,,,,,,,,,,,,,,,,,,,,,,,,,,,,,,,
,,,,,V1_007,21,female,2024-04-29_15h33.11.944,jersey_experiment_5_v1,2023.2.2,Win32,84.74576271,,,,,,,,,,,,,,,,288.4801,289.7739,289.7739,290.5505,return,0.1705,,51.5625,,,,,,FBP-OG-91.png,0.4,1.2,43,0.5,0,32,32,42,1,,,,,,,,,,,,,,,,,,,,,,,,,,,,,,,,,,,,,,,,
,,,,,V1_007,21,female,2024-04-29_15h33.11.944,jersey_experiment_5_v1,2023.2.2,Win32,84.74576271,,,,,,,,,,,,,,,,290.5507,291.8446,291.8446,292.5508,return,0.2307,,56.90104167,,,,,,FBP-RB-18.png,0.45,1.2,55,0.5,0,33,33,54,1,,,,,,,,,,,,,,,,,,,,,,,,,,,,,,,,,,,,,,,,
,,,,,V1_007,21,female,2024-04-29_15h33.11.944,jersey_experiment_5_v1,2023.2.2,Win32,84.74576271,,,,,,,,,,,,,,,,292.5509,294.3507,294.3507,295.0331,return,0.1786,,43.48958333,,,,,,FBP-PT-18.png,0.37,1.2,7,1,0,34,34,6,1,,,,,,,,,,,,,,,,,,,,,,,,,,,,,,,,,,,,,,,,
,,,,,V1_007,21,female,2024-04-29_15h33.11.944,jersey_experiment_5_v1,2023.2.2,Win32,84.74576271,,,,,,,,,,,,,,,,295.0333,296.327,296.327,300.3037,return,3.4686,,41.14583333,,,,,,FBP-OG-81.png,0.37,1.2,37,0.5,0,35,35,36,1,,,,,,,,,,,,,,,,,,,,,,,,,,,,,,,,,,,,,,,,
,,,,,V1_007,21,female,2024-04-29_15h33.11.944,jersey_experiment_5_v1,2023.2.2,Win32,84.74576271,,,,,,,,,,,,,,,,300.3083,301.6097,301.6098,321.9752,return,0.6418,,53.64583333,,,,,,FBP-OG-81.png,0.35,1.2,36,0.5,0,36,36,35,1,,,,,,,,,,,,,,,,,,,,,,,,,,,,,,,,,,,,,,,,
,,,,,V1_007,21,female,2024-04-29_15h33.11.944,jersey_experiment_5_v1,2023.2.2,Win32,84.74576271,,,,,,,,,,,,,,,,321.9755,323.2692,323.2692,324.7165,return,0.4716,,54.6875,,,,,,FBP-YG-71.png,0.43,1.2,19,0.5,0,37,37,18,1,,,,,,,,,,,,,,,,,,,,,,,,,,,,,,,,,,,,,,,,
,,,,,V1_007,21,female,2024-04-29_15h33.11.944,jersey_experiment_5_v1,2023.2.2,Win32,84.74576271,,,,,,,,,,,,,,,,324.7167,326.0106,326.0107,326.6341,return,0.1918,,54.55729167,,,,,,FBP-RB-19.png,0.43,1.2,59,0.5,0,38,38,58,1,,,,,,,,,,,,,,,,,,,,,,,,,,,,,,,,,,,,,,,,
,,,,,V1_007,21,female,2024-04-29_15h33.11.944,jersey_experiment_5_v1,2023.2.2,Win32,84.74576271,,,,,,,,,,,,,,,,326.6342,327.9283,327.9283,328.6696,return,0.1648,,46.09375,,,,,,FBP-YG-71.png,0.37,1.2,17,0.5,0,39,39,16,1,,,,,,,,,,,,,,,,,,,,,,,,,,,,,,,,,,,,,,,,
,,,,,V1_007,21,female,2024-04-29_15h33.11.944,jersey_experiment_5_v1,2023.2.2,Win32,84.74576271,,,,,,,,,,,,,,,,328.6698,329.9639,329.9641,330.9873,return,0.1996,,56.11979167,,,,,,FBP-OG-81.png,0.4,1.2,38,0.5,0,40,40,37,1,,,,,,,,,,,,,,,,,,,,,,,,,,,,,,,,,,,,,,,,
,,,,,V1_007,21,female,2024-04-29_15h33.11.944,jersey_experiment_5_v1,2023.2.2,Win32,84.74576271,,,,,,,,,,,,,,,,330.9876,332.2816,332.2816,333.1285,return,0.2039,,42.578125,,,,,,FBP-OG-71.png,0.4,1.2,33,0.5,0,41,41,32,1,,,,,,,,,,,,,,,,,,,,,,,,,,,,,,,,,,,,,,,,
,,,,,V1_007,21,female,2024-04-29_15h33.11.944,jersey_experiment_5_v1,2023.2.2,Win32,84.74576271,,,,,,,,,,,,,,,,333.1287,334.4228,334.4228,335.0226,return,0.1646,,54.94791667,,,,,,FBP-RB-18.png,0.43,1.2,54,0.5,0,42,42,53,1,,,,,,,,,,,,,,,,,,,,,,,,,,,,,,,,,,,,,,,,
,,,,,V1_007,21,female,2024-04-29_15h33.11.944,jersey_experiment_5_v1,2023.2.2,Win32,84.74576271,,,,,,,,,,,,,,,,335.0229,336.823,336.8231,338.5054,return,1.0046,,73.30729167,,,,,,FBP-PT-17.png,0.45,1.2,5,1,0,43,43,4,1,,,,,,,,,,,,,,,,,,,,,,,,,,,,,,,,,,,,,,,,
,,,,,V1_007,21,female,2024-04-29_15h33.11.944,jersey_experiment_5_v1,2023.2.2,Win32,84.74576271,,,,,,,,,,,,,,,,338.5056,339.7996,339.7996,341.1289,return,0.1696,,44.66145833,,,,,,FBP-RB-17.png,0.35,1.2,46,0.5,0,44,44,45,1,,,,,,,,,,,,,,,,,,,,,,,,,,,,,,,,,,,,,,,,
,,,,,V1_007,21,female,2024-04-29_15h33.11.944,jersey_experiment_5_v1,2023.2.2,Win32,84.74576271,,,,,,,,,,,,,,,,341.1291,342.9289,342.9289,343.8347,return,0.2382,,43.09895833,,,,,,FBP-PT-19.png,0.35,1.2,11,1,0,45,45,10,1,,,,,,,,,,,,,,,,,,,,,,,,,,,,,,,,,,,,,,,,
,,,,,V1_007,21,female,2024-04-29_15h33.11.944,jersey_experiment_5_v1,2023.2.2,Win32,84.74576271,,,,,,,,,,,,,,,,343.8349,345.1289,345.1289,346.1761,return,0.3198,,45.3125,,,,,,FBP-RB-19.png,0.4,1.2,58,0.5,0,46,46,57,1,,,,,,,,,,,,,,,,,,,,,,,,,,,,,,,,,,,,,,,,
,,,,,V1_007,21,female,2024-04-29_15h33.11.944,jersey_experiment_5_v1,2023.2.2,Win32,84.74576271,,,,,,,,,,,,,,,,346.1764,347.9763,347.9763,348.635,return,0.1439,,47.52604167,,,,,,FBP-PT-17.png,0.4,1.2,3,1,0,47,47,2,1,,,,,,,,,,,,,,,,,,,,,,,,,,,,,,,,,,,,,,,,
,,,,,V1_007,21,female,2024-04-29_15h33.11.944,jersey_experiment_5_v1,2023.2.2,Win32,84.74576271,,,,,,,,,,,,,,,,348.6352,350.4351,350.4351,351.1408,return,0.1612,,43.359375,,,,,,FBP-PT-18.png,0.35,1.2,6,1,0,48,48,5,1,,,,,,,,,,,,,,,,,,,,,,,,,,,,,,,,,,,,,,,,
,,,,,V1_007,21,female,2024-04-29_15h33.11.944,jersey_experiment_5_v1,2023.2.2,Win32,84.74576271,,,,,,,,,,,,,,,,351.141,352.9411,352.9411,354.3763,return,0.2404,,73.046875,,,,,,FBP-PT-19.png,0.43,1.2,14,1,0,49,49,13,1,,,,,,,,,,,,,,,,,,,,,,,,,,,,,,,,,,,,,,,,
,,,,,V1_007,21,female,2024-04-29_15h33.11.944,jersey_experiment_5_v1,2023.2.2,Win32,84.74576271,,,,,,,,,,,,,,,,354.3766,355.6707,355.6707,356.6942,return,0.2641,,70.57291667,,,,,,FBP-OG-81.png,0.43,1.2,39,0.5,0,50,50,38,1,,,,,,,,,,,,,,,,,,,,,,,,,,,,,,,,,,,,,,,,
,,,,,V1_007,21,female,2024-04-29_15h33.11.944,jersey_experiment_5_v1,2023.2.2,Win32,84.74576271,,,,,,,,,,,,,,,,356.6945,358.4942,358.4942,370.9886,return,0.6833,,72.13541667,,,,,,FBP-PT-18.png,0.4,1.2,8,1,0,51,51,7,1,,,,,,,,,,,,,,,,,,,,,,,,,,,,,,,,,,,,,,,,
,,,,,V1_007,21,female,2024-04-29_15h33.11.944,jersey_experiment_5_v1,2023.2.2,Win32,84.74576271,,,,,,,,,,,,,,,,370.9889,372.283,372.283,373.1655,return,0.1787,,65.625,,,,,,FBP-YG-91.png,0.43,1.2,29,0.5,0,52,52,28,1,,,,,,,,,,,,,,,,,,,,,,,,,,,,,,,,,,,,,,,,
,,,,,V1_007,21,female,2024-04-29_15h33.11.944,jersey_experiment_5_v1,2023.2.2,Win32,84.74576271,,,,,,,,,,,,,,,,373.1657,374.4595,374.4595,375.3537,return,0.1335,,48.30729167,,,,,,FBP-YG-91.png,0.35,1.2,26,0.5,0,53,53,25,1,,,,,,,,,,,,,,,,,,,,,,,,,,,,,,,,,,,,,,,,
,,,,,V1_007,21,female,2024-04-29_15h33.11.944,jersey_experiment_5_v1,2023.2.2,Win32,84.74576271,,,,,,,,,,,,,,,,375.3539,376.6478,376.6478,377.6713,return,0.1475,,75.13020833,,,,,,FBP-YG-71.png,0.45,1.2,20,0.5,0,54,54,19,1,,,,,,,,,,,,,,,,,,,,,,,,,,,,,,,,,,,,,,,,
,,,,,V1_007,21,female,2024-04-29_15h33.11.944,jersey_experiment_5_v1,2023.2.2,Win32,84.74576271,,,,,,,,,,,,,,,,377.6715,378.9655,378.9655,379.5891,return,0.1848,,74.86979167,,,,,,FBP-OG-71.png,0.43,1.2,34,0.5,0,55,55,33,1,,,,,,,,,,,,,,,,,,,,,,,,,,,,,,,,,,,,,,,,
,,,,,V1_007,21,female,2024-04-29_15h33.11.944,jersey_experiment_5_v1,2023.2.2,Win32,84.74576271,,,,,,,,,,,,,,,,379.5894,380.8833,380.8833,381.6598,return,0.1183,,45.83333333,,,,,,FBP-RB-18.png,0.35,1.2,51,0.5,0,56,56,50,1,,,,,,,,,,,,,,,,,,,,,,,,,,,,,,,,,,,,,,,,
,,,,,V1_007,21,female,2024-04-29_15h33.11.944,jersey_experiment_5_v1,2023.2.2,Win32,84.74576271,,,,,,,,,,,,,,,,381.66,382.954,382.954,384.154,return,0.1663,,62.76041667,,,,,,FBP-YG-81.png,0.4,1.2,23,0.5,0,57,57,22,1,,,,,,,,,,,,,,,,,,,,,,,,,,,,,,,,,,,,,,,,
,,,,,V1_007,21,female,2024-04-29_15h33.11.944,jersey_experiment_5_v1,2023.2.2,Win32,84.74576271,,,,,,,,,,,,,,,,384.1543,385.4482,385.4482,386.3188,return,0.1527,,74.609375,,,,,,FBP-RB-19.png,0.45,1.2,60,0.5,0,58,58,59,1,,,,,,,,,,,,,,,,,,,,,,,,,,,,,,,,,,,,,,,,
,,,,,V1_007,21,female,2024-04-29_15h33.11.944,jersey_experiment_5_v1,2023.2.2,Win32,84.74576271,,,,,,,,,,,,,,,,386.319,387.613,387.6131,388.4485,return,0.1051,,59.50520833,,,,,,FBP-RB-19.png,0.37,1.2,57,0.5,0,59,59,56,1,,,,,,,,,,,,,,,,,,,,,,,,,,,,,,,,,,,,,,,,
,,,,,V1_007,21,female,2024-04-29_15h33.11.944,jersey_experiment_5_v1,2023.2.2,Win32,84.74576271,,,,,,,,,,,,,,,,,,,,,,,,,,,,,,,,,,,,,,,388.4489,508.4532,,,,,,,,,,,,,,,,,,,,,,,,,,,,,,,,,,,,,,
,,,,,V1_007,21,female,2024-04-29_15h33.11.944,jersey_experiment_5_v1,2023.2.2,Win32,84.74576271,,,,,,,,,,,,,,,,,,,,,,,,,,,,,,,,,,,,,,,,,508.4533,525.054,return,16.5887,,,,,,,,,,,,,,,,,,,,,,,,,,,,,,,,,,
,,,,,V1_007,21,female,2024-04-29_15h33.11.944,jersey_experiment_5_v1,2023.2.2,Win32,84.74576271,,,,,,,,,,,,,,,,525.0603,526.8536,526.8536,528.7479,return,0.8844,,52.60416667,,,,,,FBP-OG-19.png,0.43,1.2,44,1,,,,,,,,,,,,,0,0,0,43,1,,,,,,,,,,,,,,,,,,,,,,,,,,,,
,,,,,V1_007,21,female,2024-04-29_15h33.11.944,jersey_experiment_5_v1,2023.2.2,Win32,84.74576271,,,,,,,,,,,,,,,,528.7482,530.5478,530.5478,532.1008,return,0.4558,,41.40625,,,,,,FBP-RB-91.png,0.37,1.2,57,1,,,,,,,,,,,,,0,1,1,56,1,,,,,,,,,,,,,,,,,,,,,,,,,,,,
,,,,,V1_007,21,female,2024-04-29_15h33.11.944,jersey_experiment_5_v1,2023.2.2,Win32,84.74576271,,,,,,,,,,,,,,,,532.1009,533.9011,533.9011,534.8892,return,0.1811,,59.375,,,,,,FBP-YG-18.png,0.43,1.2,24,1,,,,,,,,,,,,,0,2,2,23,1,,,,,,,,,,,,,,,,,,,,,,,,,,,,
,,,,,V1_007,21,female,2024-04-29_15h33.11.944,jersey_experiment_5_v1,2023.2.2,Win32,84.74576271,,,,,,,,,,,,,,,,534.8893,536.1832,536.1832,537.1599,return,0.1235,,46.09375,,,,,,FBP-PT-81.png,0.4,1.2,8,0.5,,,,,,,,,,,,,0,3,3,7,1,,,,,,,,,,,,,,,,,,,,,,,,,,,,
,,,,,V1_007,21,female,2024-04-29_15h33.11.944,jersey_experiment_5_v1,2023.2.2,Win32,84.74576271,,,,,,,,,,,,,,,,537.1601,538.4539,538.454,539.6895,return,0.2277,,74.34895833,,,,,,FBP-PT-71.png,0.45,1.2,5,0.5,,,,,,,,,,,,,0,4,4,4,1,,,,,,,,,,,,,,,,,,,,,,,,,,,,
,,,,,V1_007,21,female,2024-04-29_15h33.11.944,jersey_experiment_5_v1,2023.2.2,Win32,84.74576271,,,,,,,,,,,,,,,,539.6897,541.4895,541.4895,543.1836,return,0.1879,,65.75520833,,,,,,FBP-OG-19.png,0.45,1.2,45,1,,,,,,,,,,,,,0,5,5,44,1,,,,,,,,,,,,,,,,,,,,,,,,,,,,
,,,,,V1_007,21,female,2024-04-29_15h33.11.944,jersey_experiment_5_v1,2023.2.2,Win32,84.74576271,,,,,,,,,,,,,,,,543.1838,544.9838,544.9838,545.7249,return,0.1283,,41.66666667,,,,,,FBP-OG-18.png,0.35,1.2,36,1,,,,,,,,,,,,,0,6,6,35,1,,,,,,,,,,,,,,,,,,,,,,,,,,,,
,,,,,V1_007,21,female,2024-04-29_15h33.11.944,jersey_experiment_5_v1,2023.2.2,Win32,84.74576271,,,,,,,,,,,,,,,,545.725,547.5249,547.525,549.0073,return,1.0263,,48.4375,,,,,,FBP-YG-18.png,0.37,1.2,22,1,,,,,,,,,,,,,0,7,7,21,1,,,,,,,,,,,,,,,,,,,,,,,,,,,,
,,,,,V1_007,21,female,2024-04-29_15h33.11.944,jersey_experiment_5_v1,2023.2.2,Win32,84.74576271,,,,,,,,,,,,,,,,549.0075,550.3015,550.3015,559.0078,return,0.4944,,55.72916667,,,,,,FBP-PT-81.png,0.45,1.2,10,0.5,,,,,,,,,,,,,0,8,8,9,1,,,,,,,,,,,,,,,,,,,,,,,,,,,,
,,,,,V1_007,21,female,2024-04-29_15h33.11.944,jersey_experiment_5_v1,2023.2.2,Win32,84.74576271,,,,,,,,,,,,,,,,559.008,560.8079,560.8079,562.5373,return,0.7094,,31.38020833,,,,,,FBP-RB-81.png,0.35,1.2,51,1,,,,,,,,,,,,,0,9,9,50,1,,,,,,,,,,,,,,,,,,,,,,,,,,,,
,,,,,V1_007,21,female,2024-04-29_15h33.11.944,jersey_experiment_5_v1,2023.2.2,Win32,84.74576271,,,,,,,,,,,,,,,,562.5376,563.8314,563.8314,564.5373,return,0.134,,41.14583333,,,,,,FBP-PT-81.png,0.35,1.2,6,0.5,,,,,,,,,,,,,0,10,10,5,1,,,,,,,,,,,,,,,,,,,,,,,,,,,,
,,,,,V1_007,21,female,2024-04-29_15h33.11.944,jersey_experiment_5_v1,2023.2.2,Win32,84.74576271,,,,,,,,,,,,,,,,564.5376,566.3376,566.3376,567.2079,return,0.2515,,35.41666667,,,,,,FBP-OG-17.png,0.35,1.2,31,1,,,,,,,,,,,,,0,11,11,30,1,,,,,,,,,,,,,,,,,,,,,,,,,,,,
,,,,,V1_007,21,female,2024-04-29_15h33.11.944,jersey_experiment_5_v1,2023.2.2,Win32,84.74576271,,,,,,,,,,,,,,,,567.2081,569.008,569.0081,569.9258,return,0.1947,,33.984375,,,,,,FBP-OG-19.png,0.37,1.2,42,1,,,,,,,,,,,,,0,12,12,41,1,,,,,,,,,,,,,,,,,,,,,,,,,,,,
,,,,,V1_007,21,female,2024-04-29_15h33.11.944,jersey_experiment_5_v1,2023.2.2,Win32,84.74576271,,,,,,,,,,,,,,,,569.9261,571.7257,571.7257,573.7377,return,1.3103,,63.54166667,,,,,,FBP-OG-18.png,0.45,1.2,40,1,,,,,,,,,,,,,0,13,13,39,1,,,,,,,,,,,,,,,,,,,,,,,,,,,,
,,,,,V1_007,21,female,2024-04-29_15h33.11.944,jersey_experiment_5_v1,2023.2.2,Win32,84.74576271,,,,,,,,,,,,,,,,573.738,575.5377,575.5377,576.7025,return,0.188,,50.26041667,,,,,,FBP-YG-19.png,0.37,1.2,27,1,,,,,,,,,,,,,0,14,14,26,1,,,,,,,,,,,,,,,,,,,,,,,,,,,,
,,,,,V1_007,21,female,2024-04-29_15h33.11.944,jersey_experiment_5_v1,2023.2.2,Win32,84.74576271,,,,,,,,,,,,,,,,576.7028,578.5026,578.5027,579.2909,return,0.1792,,57.03125,,,,,,FBP-RB-81.png,0.4,1.2,53,1,,,,,,,,,,,,,0,15,15,52,1,,,,,,,,,,,,,,,,,,,,,,,,,,,,
,,,,,V1_007,21,female,2024-04-29_15h33.11.944,jersey_experiment_5_v1,2023.2.2,Win32,84.74576271,,,,,,,,,,,,,,,,579.2912,580.585,580.585,581.6322,return,0.1755,,44.921875,,,,,,FBP-PT-71.png,0.37,1.2,2,0.5,,,,,,,,,,,,,0,16,16,1,1,,,,,,,,,,,,,,,,,,,,,,,,,,,,
,,,,,V1_007,21,female,2024-04-29_15h33.11.944,jersey_experiment_5_v1,2023.2.2,Win32,84.74576271,,,,,,,,,,,,,,,,581.6324,582.9265,582.9265,584.0088,return,0.1331,,74.86979167,,,,,,FBP-PT-91.png,0.45,1.2,15,0.5,,,,,,,,,,,,,0,17,17,14,1,,,,,,,,,,,,,,,,,,,,,,,,,,,,
,,,,,V1_007,21,female,2024-04-29_15h33.11.944,jersey_experiment_5_v1,2023.2.2,Win32,84.74576271,,,,,,,,,,,,,,,,584.009,585.8089,585.8089,586.7734,return,0.1945,,75.26041667,,,,,,FBP-RB-81.png,0.43,1.2,54,1,,,,,,,,,,,,,0,18,18,53,1,,,,,,,,,,,,,,,,,,,,,,,,,,,,
,,,,,V1_007,21,female,2024-04-29_15h33.11.944,jersey_experiment_5_v1,2023.2.2,Win32,84.74576271,,,,,,,,,,,,,,,,586.7736,588.0677,588.0677,589.6442,return,0.1644,,50.52083333,,,,,,FBP-PT-71.png,0.35,1.2,1,0.5,,,,,,,,,,,,,0,19,19,0,1,,,,,,,,,,,,,,,,,,,,,,,,,,,,
,,,,,V1_007,21,female,2024-04-29_15h33.11.944,jersey_experiment_5_v1,2023.2.2,Win32,84.74576271,,,,,,,,,,,,,,,,589.6444,590.9385,590.9386,591.7385,return,0.2504,,54.94791667,,,,,,FBP-PT-71.png,0.4,1.2,3,0.5,,,,,,,,,,,,,0,20,20,2,1,,,,,,,,,,,,,,,,,,,,,,,,,,,,
,,,,,V1_007,21,female,2024-04-29_15h33.11.944,jersey_experiment_5_v1,2023.2.2,Win32,84.74576271,,,,,,,,,,,,,,,,591.7387,593.5385,593.5385,594.3738,return,0.2186,,66.66666667,,,,,,FBP-YG-18.png,0.45,1.2,25,1,,,,,,,,,,,,,0,21,21,24,1,,,,,,,,,,,,,,,,,,,,,,,,,,,,
,,,,,V1_007,21,female,2024-04-29_15h33.11.944,jersey_experiment_5_v1,2023.2.2,Win32,84.74576271,,,,,,,,,,,,,,,,594.3741,595.6679,595.668,596.9033,return,0.157,,67.05729167,,,,,,FBP-PT-81.png,0.43,1.2,9,0.5,,,,,,,,,,,,,0,22,22,8,1,,,,,,,,,,,,,,,,,,,,,,,,,,,,
,,,,,V1_007,21,female,2024-04-29_15h33.11.944,jersey_experiment_5_v1,2023.2.2,Win32,84.74576271,,,,,,,,,,,,,,,,596.9036,598.1974,598.1975,598.9034,return,0.1477,,67.31770833,,,,,,FBP-PT-91.png,0.43,1.2,14,0.5,,,,,,,,,,,,,0,23,23,13,1,,,,,,,,,,,,,,,,,,,,,,,,,,,,
,,,,,V1_007,21,female,2024-04-29_15h33.11.944,jersey_experiment_5_v1,2023.2.2,Win32,84.74576271,,,,,,,,,,,,,,,,598.9037,600.1976,600.1976,600.9741,return,0.0562,,64.58333333,,,,,,FBP-PT-91.png,0.4,1.2,13,0.5,,,,,,,,,,,,,0,24,24,12,1,,,,,,,,,,,,,,,,,,,,,,,,,,,,
,,,,,V1_007,21,female,2024-04-29_15h33.11.944,jersey_experiment_5_v1,2023.2.2,Win32,84.74576271,,,,,,,,,,,,,,,,600.9743,602.7743,602.7743,603.374,return,0.105,,68.75,,,,,,FBP-OG-18.png,0.43,1.2,39,1,,,,,,,,,,,,,0,25,25,38,1,,,,,,,,,,,,,,,,,,,,,,,,,,,,
,,,,,V1_007,21,female,2024-04-29_15h33.11.944,jersey_experiment_5_v1,2023.2.2,Win32,84.74576271,,,,,,,,,,,,,,,,603.3744,605.1744,605.1745,605.739,return,0.1193,,74.21875,,,,,,FBP-RB-81.png,0.45,1.2,55,1,,,,,,,,,,,,,0,26,26,54,1,,,,,,,,,,,,,,,,,,,,,,,,,,,,
,,,,,V1_007,21,female,2024-04-29_15h33.11.944,jersey_experiment_5_v1,2023.2.2,Win32,84.74576271,,,,,,,,,,,,,,,,605.7392,607.5389,607.5389,608.1742,return,0.1881,,73.4375,,,,,,FBP-OG-17.png,0.43,1.2,34,1,,,,,,,,,,,,,0,27,27,33,1,,,,,,,,,,,,,,,,,,,,,,,,,,,,
,,,,,V1_007,21,female,2024-04-29_15h33.11.944,jersey_experiment_5_v1,2023.2.2,Win32,84.74576271,,,,,,,,,,,,,,,,608.1743,609.9744,609.9744,610.7625,return,0.1207,,63.28125,,,,,,FBP-YG-19.png,0.4,1.2,28,1,,,,,,,,,,,,,0,28,28,27,1,,,,,,,,,,,,,,,,,,,,,,,,,,,,
,,,,,V1_007,21,female,2024-04-29_15h33.11.944,jersey_experiment_5_v1,2023.2.2,Win32,84.74576271,,,,,,,,,,,,,,,,610.7629,612.5627,612.5628,613.1746,return,0.2406,,63.28125,,,,,,FBP-RB-91.png,0.4,1.2,58,1,,,,,,,,,,,,,0,29,29,57,1,,,,,,,,,,,,,,,,,,,,,,,,,,,,
,,,,,V1_007,21,female,2024-04-29_15h33.11.944,jersey_experiment_5_v1,2023.2.2,Win32,84.74576271,,,,,,,,,,,,,,,,613.1748,614.9744,614.9744,615.8806,return,0.1347,,53.77604167,,,,,,FBP-YG-18.png,0.35,1.2,21,1,,,,,,,,,,,,,0,30,30,20,1,,,,,,,,,,,,,,,,,,,,,,,,,,,,
,,,,,V1_007,21,female,2024-04-29_15h33.11.944,jersey_experiment_5_v1,2023.2.2,Win32,84.74576271,,,,,,,,,,,,,,,,615.8808,617.6804,617.6804,618.4922,return,0.1082,,65.75520833,,,,,,FBP-OG-17.png,0.45,1.2,35,1,,,,,,,,,,,,,0,31,31,34,1,,,,,,,,,,,,,,,,,,,,,,,,,,,,
,,,,,V1_007,21,female,2024-04-29_15h33.11.944,jersey_experiment_5_v1,2023.2.2,Win32,84.74576271,,,,,,,,,,,,,,,,618.4925,620.2923,620.2923,620.9982,return,0.1719,,66.27604167,,,,,,FBP-RB-91.png,0.43,1.2,59,1,,,,,,,,,,,,,0,32,32,58,1,,,,,,,,,,,,,,,,,,,,,,,,,,,,
,,,,,V1_007,21,female,2024-04-29_15h33.11.944,jersey_experiment_5_v1,2023.2.2,Win32,84.74576271,,,,,,,,,,,,,,,,620.9985,622.7984,622.7984,624.622,return,0.6921,,54.81770833,,,,,,FBP-OG-19.png,0.35,1.2,41,1,,,,,,,,,,,,,0,33,33,40,1,,,,,,,,,,,,,,,,,,,,,,,,,,,,
,,,,,V1_007,21,female,2024-04-29_15h33.11.944,jersey_experiment_5_v1,2023.2.2,Win32,84.74576271,,,,,,,,,,,,,,,,624.6221,626.422,626.422,627.0692,return,0.118,,60.41666667,,,,,,FBP-OG-18.png,0.4,1.2,38,1,,,,,,,,,,,,,0,34,34,37,1,,,,,,,,,,,,,,,,,,,,,,,,,,,,
,,,,,V1_007,21,female,2024-04-29_15h33.11.944,jersey_experiment_5_v1,2023.2.2,Win32,84.74576271,,,,,,,,,,,,,,,,627.0695,628.3632,628.3632,629.4339,return,0.0964,,44.66145833,,,,,,FBP-PT-91.png,0.35,1.2,11,0.5,,,,,,,,,,,,,0,35,35,10,1,,,,,,,,,,,,,,,,,,,,,,,,,,,,
,,,,,V1_007,21,female,2024-04-29_15h33.11.944,jersey_experiment_5_v1,2023.2.2,Win32,84.74576271,,,,,,,,,,,,,,,,629.4342,631.2339,631.2339,631.9986,return,0.1316,,44.40104167,,,,,,FBP-YG-17.png,0.35,1.2,16,1,,,,,,,,,,,,,0,36,36,15,1,,,,,,,,,,,,,,,,,,,,,,,,,,,,
,,,,,V1_007,21,female,2024-04-29_15h33.11.944,jersey_experiment_5_v1,2023.2.2,Win32,84.74576271,,,,,,,,,,,,,,,,631.9989,633.7987,633.7988,634.3636,return,0.3316,,44.40104167,,,,,,FBP-RB-81.png,0.37,1.2,52,1,,,,,,,,,,,,,0,37,37,51,1,,,,,,,,,,,,,,,,,,,,,,,,,,,,
,,,,,V1_007,21,female,2024-04-29_15h33.11.944,jersey_experiment_5_v1,2023.2.2,Win32,84.74576271,,,,,,,,,,,,,,,,634.3639,636.1636,636.1636,636.9282,return,0.1418,,44.40104167,,,,,,FBP-RB-71.png,0.35,1.2,46,1,,,,,,,,,,,,,0,38,38,45,1,,,,,,,,,,,,,,,,,,,,,,,,,,,,
,,,,,V1_007,21,female,2024-04-29_15h33.11.944,jersey_experiment_5_v1,2023.2.2,Win32,84.74576271,,,,,,,,,,,,,,,,636.9284,638.7286,638.7286,639.5167,return,0.1897,,74.86979167,,,,,,FBP-RB-71.png,0.45,1.2,50,1,,,,,,,,,,,,,0,39,39,49,1,,,,,,,,,,,,,,,,,,,,,,,,,,,,
,,,,,V1_007,21,female,2024-04-29_15h33.11.944,jersey_experiment_5_v1,2023.2.2,Win32,84.74576271,,,,,,,,,,,,,,,,639.5168,641.3168,641.3168,641.9992,return,0.0943,,68.22916667,,,,,,FBP-OG-17.png,0.4,1.2,33,1,,,,,,,,,,,,,0,40,40,32,1,,,,,,,,,,,,,,,,,,,,,,,,,,,,
,,,,,V1_007,21,female,2024-04-29_15h33.11.944,jersey_experiment_5_v1,2023.2.2,Win32,84.74576271,,,,,,,,,,,,,,,,641.9993,643.799,643.799,644.5993,return,0.1945,,67.1875,,,,,,FBP-OG-19.png,0.4,1.2,43,1,,,,,,,,,,,,,0,41,41,42,1,,,,,,,,,,,,,,,,,,,,,,,,,,,,
,,,,,V1_007,21,female,2024-04-29_15h33.11.944,jersey_experiment_5_v1,2023.2.2,Win32,84.74576271,,,,,,,,,,,,,,,,644.5995,646.3994,646.3994,647.0346,return,0.1187,,63.28125,,,,,,FBP-YG-19.png,0.35,1.2,26,1,,,,,,,,,,,,,0,42,42,25,1,,,,,,,,,,,,,,,,,,,,,,,,,,,,
,,,,,V1_007,21,female,2024-04-29_15h33.11.944,jersey_experiment_5_v1,2023.2.2,Win32,84.74576271,,,,,,,,,,,,,,,,647.0348,648.3287,648.3287,649.2465,return,0.1184,,62.76041667,,,,,,FBP-PT-81.png,0.37,1.2,7,0.5,,,,,,,,,,,,,0,43,43,6,1,,,,,,,,,,,,,,,,,,,,,,,,,,,,
,,,,,V1_007,21,female,2024-04-29_15h33.11.944,jersey_experiment_5_v1,2023.2.2,Win32,84.74576271,,,,,,,,,,,,,,,,649.2467,651.0464,651.0465,651.7878,return,0.2595,,74.08854167,,,,,,FBP-YG-17.png,0.43,1.2,19,1,,,,,,,,,,,,,0,44,44,18,1,,,,,,,,,,,,,,,,,,,,,,,,,,,,
,,,,,V1_007,21,female,2024-04-29_15h33.11.944,jersey_experiment_5_v1,2023.2.2,Win32,84.74576271,,,,,,,,,,,,,,,,651.788,653.082,653.082,654.0112,return,0.1758,,75.52083333,,,,,,FBP-PT-71.png,0.43,1.2,4,0.5,,,,,,,,,,,,,0,45,45,3,1,,,,,,,,,,,,,,,,,,,,,,,,,,,,
,,,,,V1_007,21,female,2024-04-29_15h33.11.944,jersey_experiment_5_v1,2023.2.2,Win32,84.74576271,,,,,,,,,,,,,,,,654.0115,655.8116,655.8116,656.576,return,0.0939,,60.80729167,,,,,,FBP-YG-17.png,0.37,1.2,17,1,,,,,,,,,,,,,0,46,46,16,1,,,,,,,,,,,,,,,,,,,,,,,,,,,,
,,,,,V1_007,21,female,2024-04-29_15h33.11.944,jersey_experiment_5_v1,2023.2.2,Win32,84.74576271,,,,,,,,,,,,,,,,656.5763,658.3762,658.3762,659.0468,return,0.1246,,57.68229167,,,,,,FBP-RB-71.png,0.4,1.2,48,1,,,,,,,,,,,,,0,47,47,47,1,,,,,,,,,,,,,,,,,,,,,,,,,,,,
,,,,,V1_007,21,female,2024-04-29_15h33.11.944,jersey_experiment_5_v1,2023.2.2,Win32,84.74576271,,,,,,,,,,,,,,,,659.047,660.341,660.341,661.1175,return,0.2223,,57.68229167,,,,,,FBP-PT-91.png,0.37,1.2,12,0.5,,,,,,,,,,,,,0,48,48,11,1,,,,,,,,,,,,,,,,,,,,,,,,,,,,
,,,,,V1_007,21,female,2024-04-29_15h33.11.944,jersey_experiment_5_v1,2023.2.2,Win32,84.74576271,,,,,,,,,,,,,,,,661.1177,662.9176,662.9176,663.4823,return,0.0856,,58.203125,,,,,,FBP-OG-18.png,0.37,1.2,37,1,,,,,,,,,,,,,0,49,49,36,1,,,,,,,,,,,,,,,,,,,,,,,,,,,,
,,,,,V1_007,21,female,2024-04-29_15h33.11.944,jersey_experiment_5_v1,2023.2.2,Win32,84.74576271,,,,,,,,,,,,,,,,663.4825,665.2823,665.2823,666.1413,return,0.212,,75,,,,,,FBP-YG-19.png,0.45,1.2,30,1,,,,,,,,,,,,,0,50,50,29,1,,,,,,,,,,,,,,,,,,,,,,,,,,,,
,,,,,V1_007,21,female,2024-04-29_15h33.11.944,jersey_experiment_5_v1,2023.2.2,Win32,84.74576271,,,,,,,,,,,,,,,,666.1415,667.9413,667.9413,668.7648,return,0.3302,,74.86979167,,,,,,FBP-RB-91.png,0.45,1.2,60,1,,,,,,,,,,,,,0,51,51,59,1,,,,,,,,,,,,,,,,,,,,,,,,,,,,
,,,,,V1_007,21,female,2024-04-29_15h33.11.944,jersey_experiment_5_v1,2023.2.2,Win32,84.74576271,,,,,,,,,,,,,,,,668.7651,670.5648,670.565,671.318,return,0.1704,,74.86979167,,,,,,FBP-YG-19.png,0.43,1.2,29,1,,,,,,,,,,,,,0,52,52,28,1,,,,,,,,,,,,,,,,,,,,,,,,,,,,
,,,,,V1_007,21,female,2024-04-29_15h33.11.944,jersey_experiment_5_v1,2023.2.2,Win32,84.74576271,,,,,,,,,,,,,,,,671.3182,673.1179,673.1179,673.8238,return,0.2211,,65.625,,,,,,FBP-RB-71.png,0.37,1.2,47,1,,,,,,,,,,,,,0,53,53,46,1,,,,,,,,,,,,,,,,,,,,,,,,,,,,
,,,,,V1_007,21,female,2024-04-29_15h33.11.944,jersey_experiment_5_v1,2023.2.2,Win32,84.74576271,,,,,,,,,,,,,,,,673.824,675.6241,675.6241,676.2474,return,0.2181,,61.97916667,,,,,,FBP-YG-17.png,0.4,1.2,18,1,,,,,,,,,,,,,0,54,54,17,1,,,,,,,,,,,,,,,,,,,,,,,,,,,,
,,,,,V1_007,21,female,2024-04-29_15h33.11.944,jersey_experiment_5_v1,2023.2.2,Win32,84.74576271,,,,,,,,,,,,,,,,676.2475,678.0475,678.0476,678.5887,return,0.2356,,61.97916667,,,,,,FBP-RB-71.png,0.43,1.2,49,1,,,,,,,,,,,,,0,55,55,48,1,,,,,,,,,,,,,,,,,,,,,,,,,,,,
,,,,,V1_007,21,female,2024-04-29_15h33.11.944,jersey_experiment_5_v1,2023.2.2,Win32,84.74576271,,,,,,,,,,,,,,,,678.5889,680.3887,680.3887,682.1066,return,0.9444,,48.69791667,,,,,,FBP-RB-91.png,0.35,1.2,56,1,,,,,,,,,,,,,0,56,56,55,1,,,,,,,,,,,,,,,,,,,,,,,,,,,,
,,,,,V1_007,21,female,2024-04-29_15h33.11.944,jersey_experiment_5_v1,2023.2.2,Win32,84.74576271,,,,,,,,,,,,,,,,682.1068,683.9066,683.9066,700.5895,return,0.8232,,53.515625,,,,,,FBP-OG-17.png,0.37,1.2,32,1,,,,,,,,,,,,,0,57,57,31,1,,,,,,,,,,,,,,,,,,,,,,,,,,,,
,,,,,V1_007,21,female,2024-04-29_15h33.11.944,jersey_experiment_5_v1,2023.2.2,Win32,84.74576271,,,,,,,,,,,,,,,,700.5898,702.3897,702.3897,703.6955,return,0.5407,,53.515625,,,,,,FBP-YG-18.png,0.4,1.2,23,1,,,,,,,,,,,,,0,58,58,22,1,,,,,,,,,,,,,,,,,,,,,,,,,,,,
,,,,,V1_007,21,female,2024-04-29_15h33.11.944,jersey_experiment_5_v1,2023.2.2,Win32,84.74576271,,,,,,,,,,,,,,,,703.6957,705.4958,705.4958,706.3781,return,0.2507,,73.69791667,,,,,,FBP-YG-17.png,0.45,1.2,20,1,,,,,,,,,,,,,0,59,59,19,1,,,,,,,,,,,,,,,,,,,,,,,,,,,,
,,,,,V1_007,21,female,2024-04-29_15h33.11.944,jersey_experiment_5_v1,2023.2.2,Win32,84.74576271,,,,,,,,,,,,,,,,706.3797,708.1779,708.178,708.9898,return,0.1789,,75,,,,,,FBP-YG-71.png,0.45,1.2,20,1,,,,,,,,,,,,,,,,,,0,0,0,19,1,,,,,,,,,,,,,,,,,,,,,,,
,,,,,V1_007,21,female,2024-04-29_15h33.11.944,jersey_experiment_5_v1,2023.2.2,Win32,84.74576271,,,,,,,,,,,,,,,,708.9901,710.284,710.284,711.19,return,0.3714,,74.609375,,,,,,FBP-PT-19.png,0.43,1.2,14,0.5,,,,,,,,,,,,,,,,,,0,1,1,13,1,,,,,,,,,,,,,,,,,,,,,,,
,,,,,V1_007,21,female,2024-04-29_15h33.11.944,jersey_experiment_5_v1,2023.2.2,Win32,84.74576271,,,,,,,,,,,,,,,,711.1902,712.9903,712.9903,713.6725,return,0.1211,,62.5,,,,,,FBP-OG-91.png,0.4,1.2,43,1,,,,,,,,,,,,,,,,,,0,2,2,42,1,,,,,,,,,,,,,,,,,,,,,,,
,,,,,V1_007,21,female,2024-04-29_15h33.11.944,jersey_experiment_5_v1,2023.2.2,Win32,84.74576271,,,,,,,,,,,,,,,,713.6727,715.4724,715.4725,716.0371,return,0.2203,,62.36979167,,,,,,FBP-YG-91.png,0.37,1.2,27,1,,,,,,,,,,,,,,,,,,0,3,3,26,1,,,,,,,,,,,,,,,,,,,,,,,
,,,,,V1_007,21,female,2024-04-29_15h33.11.944,jersey_experiment_5_v1,2023.2.2,Win32,84.74576271,,,,,,,,,,,,,,,,716.0373,717.8373,717.8374,718.6139,return,0.1143,,58.85416667,,,,,,FBP-OG-81.png,0.37,1.2,37,1,,,,,,,,,,,,,,,,,,0,4,4,36,1,,,,,,,,,,,,,,,,,,,,,,,
,,,,,V1_007,21,female,2024-04-29_15h33.11.944,jersey_experiment_5_v1,2023.2.2,Win32,84.74576271,,,,,,,,,,,,,,,,718.6141,719.908,719.908,720.6375,return,0.1415,,57.421875,,,,,,FBP-PT-19.png,0.35,1.2,11,0.5,,,,,,,,,,,,,,,,,,0,5,5,10,1,,,,,,,,,,,,,,,,,,,,,,,
,,,,,V1_007,21,female,2024-04-29_15h33.11.944,jersey_experiment_5_v1,2023.2.2,Win32,84.74576271,,,,,,,,,,,,,,,,720.6378,721.9316,721.9316,722.6612,return,0.1385,,57.421875,,,,,,FBP-PT-17.png,0.37,1.2,2,0.5,,,,,,,,,,,,,,,,,,0,6,6,1,1,,,,,,,,,,,,,,,,,,,,,,,
,,,,,V1_007,21,female,2024-04-29_15h33.11.944,jersey_experiment_5_v1,2023.2.2,Win32,84.74576271,,,,,,,,,,,,,,,,722.6614,723.9551,723.9551,724.614,return,0.1948,,57.421875,,,,,,FBP-PT-19.png,0.4,1.2,13,0.5,,,,,,,,,,,,,,,,,,0,7,7,12,1,,,,,,,,,,,,,,,,,,,,,,,
,,,,,V1_007,21,female,2024-04-29_15h33.11.944,jersey_experiment_5_v1,2023.2.2,Win32,84.74576271,,,,,,,,,,,,,,,,724.6142,726.414,726.414,727.214,return,0.1285,,52.99479167,,,,,,FBP-OG-71.png,0.37,1.2,32,1,,,,,,,,,,,,,,,,,,0,8,8,31,1,,,,,,,,,,,,,,,,,,,,,,,
,,,,,V1_007,21,female,2024-04-29_15h33.11.944,jersey_experiment_5_v1,2023.2.2,Win32,84.74576271,,,,,,,,,,,,,,,,727.2143,729.0143,729.0143,730.4142,return,0.1646,,52.99479167,,,,,,FBP-OG-91.png,0.43,1.2,44,1,,,,,,,,,,,,,,,,,,0,9,9,43,1,,,,,,,,,,,,,,,,,,,,,,,
,,,,,V1_007,21,female,2024-04-29_15h33.11.944,jersey_experiment_5_v1,2023.2.2,Win32,84.74576271,,,,,,,,,,,,,,,,730.4145,732.2144,732.2144,732.8143,return,0.1043,,52.21354167,,,,,,FBP-RB-18.png,0.4,1.2,53,1,,,,,,,,,,,,,,,,,,0,10,10,52,1,,,,,,,,,,,,,,,,,,,,,,,
,,,,,V1_007,21,female,2024-04-29_15h33.11.944,jersey_experiment_5_v1,2023.2.2,Win32,84.74576271,,,,,,,,,,,,,,,,732.8145,734.6146,734.6146,735.4497,return,0.1545,,74.21875,,,,,,FBP-RB-17.png,0.45,1.2,50,1,,,,,,,,,,,,,,,,,,0,11,11,49,1,,,,,,,,,,,,,,,,,,,,,,,
,,,,,V1_007,21,female,2024-04-29_15h33.11.944,jersey_experiment_5_v1,2023.2.2,Win32,84.74576271,,,,,,,,,,,,,,,,735.4499,737.2496,737.2497,738.2028,return,0.4033,,72.91666667,,,,,,FBP-RB-17.png,0.43,1.2,49,1,,,,,,,,,,,,,,,,,,0,12,12,48,1,,,,,,,,,,,,,,,,,,,,,,,
,,,,,V1_007,21,female,2024-04-29_15h33.11.944,jersey_experiment_5_v1,2023.2.2,Win32,84.74576271,,,,,,,,,,,,,,,,738.203,740.003,740.003,741.2146,return,0.0943,,49.08854167,,,,,,FBP-OG-71.png,0.35,1.2,31,1,,,,,,,,,,,,,,,,,,0,13,13,30,1,,,,,,,,,,,,,,,,,,,,,,,
,,,,,V1_007,21,female,2024-04-29_15h33.11.944,jersey_experiment_5_v1,2023.2.2,Win32,84.74576271,,,,,,,,,,,,,,,,741.2147,742.5088,742.5088,743.2265,return,0.109,,63.02083333,,,,,,FBP-PT-17.png,0.4,1.2,3,0.5,,,,,,,,,,,,,,,,,,0,14,14,2,1,,,,,,,,,,,,,,,,,,,,,,,
,,,,,V1_007,21,female,2024-04-29_15h33.11.944,jersey_experiment_5_v1,2023.2.2,Win32,84.74576271,,,,,,,,,,,,,,,,743.2269,744.5206,744.5207,745.5442,return,0.1232,,44.53125,,,,,,FBP-PT-18.png,0.35,1.2,6,0.5,,,,,,,,,,,,,,,,,,0,15,15,5,1,,,,,,,,,,,,,,,,,,,,,,,
,,,,,V1_007,21,female,2024-04-29_15h33.11.944,jersey_experiment_5_v1,2023.2.2,Win32,84.74576271,,,,,,,,,,,,,,,,745.5445,746.8383,746.8383,748.062,return,0.5286,,44.53125,,,,,,FBP-PT-19.png,0.37,1.2,12,0.5,,,,,,,,,,,,,,,,,,0,16,16,11,1,,,,,,,,,,,,,,,,,,,,,,,
,,,,,V1_007,21,female,2024-04-29_15h33.11.944,jersey_experiment_5_v1,2023.2.2,Win32,84.74576271,,,,,,,,,,,,,,,,748.0622,749.8621,749.8621,752.9916,return,0.0838,,49.08854167,,,,,,FBP-YG-81.png,0.45,1.2,25,1,,,,,,,,,,,,,,,,,,0,17,17,24,1,,,,,,,,,,,,,,,,,,,,,,,
,,,,,V1_007,21,female,2024-04-29_15h33.11.944,jersey_experiment_5_v1,2023.2.2,Win32,84.74576271,,,,,,,,,,,,,,,,752.9919,754.7918,754.7918,755.6856,return,0.2904,,39.32291667,,,,,,FBP-YG-71.png,0.35,1.2,16,1,,,,,,,,,,,,,,,,,,0,18,18,15,1,,,,,,,,,,,,,,,,,,,,,,,
,,,,,V1_007,21,female,2024-04-29_15h33.11.944,jersey_experiment_5_v1,2023.2.2,Win32,84.74576271,,,,,,,,,,,,,,,,755.6859,757.4859,757.4859,758.4623,return,0.1518,,44.66145833,,,,,,FBP-YG-81.png,0.4,1.2,23,1,,,,,,,,,,,,,,,,,,0,19,19,22,1,,,,,,,,,,,,,,,,,,,,,,,
,,,,,V1_007,21,female,2024-04-29_15h33.11.944,jersey_experiment_5_v1,2023.2.2,Win32,84.74576271,,,,,,,,,,,,,,,,758.4626,760.2627,760.2627,761.1331,return,0.1305,,74.21875,,,,,,FBP-OG-71.png,0.45,1.2,35,1,,,,,,,,,,,,,,,,,,0,20,20,34,1,,,,,,,,,,,,,,,,,,,,,,,
,,,,,V1_007,21,female,2024-04-29_15h33.11.944,jersey_experiment_5_v1,2023.2.2,Win32,84.74576271,,,,,,,,,,,,,,,,761.1332,762.933,762.933,763.5684,return,0.1411,,74.08854167,,,,,,FBP-RB-19.png,0.43,1.2,59,1,,,,,,,,,,,,,,,,,,0,21,21,58,1,,,,,,,,,,,,,,,,,,,,,,,
,,,,,V1_007,21,female,2024-04-29_15h33.11.944,jersey_experiment_5_v1,2023.2.2,Win32,84.74576271,,,,,,,,,,,,,,,,763.5686,765.3687,765.3687,766.2627,return,0.3112,,42.96875,,,,,,FBP-YG-81.png,0.37,1.2,22,1,,,,,,,,,,,,,,,,,,0,22,22,21,1,,,,,,,,,,,,,,,,,,,,,,,
,,,,,V1_007,21,female,2024-04-29_15h33.11.944,jersey_experiment_5_v1,2023.2.2,Win32,84.74576271,,,,,,,,,,,,,,,,766.2629,768.0628,768.0629,769.2157,return,0.1411,,74.08854167,,,,,,FBP-OG-81.png,0.43,1.2,39,1,,,,,,,,,,,,,,,,,,0,23,23,38,1,,,,,,,,,,,,,,,,,,,,,,,
,,,,,V1_007,21,female,2024-04-29_15h33.11.944,jersey_experiment_5_v1,2023.2.2,Win32,84.74576271,,,,,,,,,,,,,,,,769.2161,771.0158,771.0158,771.7334,return,0.1601,,49.73958333,,,,,,FBP-OG-81.png,0.4,1.2,38,1,,,,,,,,,,,,,,,,,,0,24,24,37,1,,,,,,,,,,,,,,,,,,,,,,,
,,,,,V1_007,21,female,2024-04-29_15h33.11.944,jersey_experiment_5_v1,2023.2.2,Win32,84.74576271,,,,,,,,,,,,,,,,771.7336,773.5335,773.5335,774.2513,return,0.0496,,35.67708333,,,,,,FBP-OG-71.png,0.4,1.2,33,1,,,,,,,,,,,,,,,,,,0,25,25,32,1,,,,,,,,,,,,,,,,,,,,,,,
,,,,,V1_007,21,female,2024-04-29_15h33.11.944,jersey_experiment_5_v1,2023.2.2,Win32,84.74576271,,,,,,,,,,,,,,,,774.2514,776.0515,776.0515,777.0866,return,0.1189,,44.66145833,,,,,,FBP-YG-91.png,0.35,1.2,26,1,,,,,,,,,,,,,,,,,,0,26,26,25,1,,,,,,,,,,,,,,,,,,,,,,,
,,,,,V1_007,21,female,2024-04-29_15h33.11.944,jersey_experiment_5_v1,2023.2.2,Win32,84.74576271,,,,,,,,,,,,,,,,777.0868,778.8866,778.8866,779.5808,return,0.1084,,49.86979167,,,,,,FBP-RB-17.png,0.4,1.2,48,1,,,,,,,,,,,,,,,,,,0,27,27,47,1,,,,,,,,,,,,,,,,,,,,,,,
,,,,,V1_007,21,female,2024-04-29_15h33.11.944,jersey_experiment_5_v1,2023.2.2,Win32,84.74576271,,,,,,,,,,,,,,,,779.5811,781.3809,781.3809,782.122,return,0.143,,43.75,,,,,,FBP-RB-17.png,0.35,1.2,46,1,,,,,,,,,,,,,,,,,,0,28,28,45,1,,,,,,,,,,,,,,,,,,,,,,,
,,,,,V1_007,21,female,2024-04-29_15h33.11.944,jersey_experiment_5_v1,2023.2.2,Win32,84.74576271,,,,,,,,,,,,,,,,782.1223,783.4163,783.4163,784.2399,return,0.1421,,44.140625,,,,,,FBP-PT-18.png,0.4,1.2,8,0.5,,,,,,,,,,,,,,,,,,0,29,29,7,1,,,,,,,,,,,,,,,,,,,,,,,
,,,,,V1_007,21,female,2024-04-29_15h33.11.944,jersey_experiment_5_v1,2023.2.2,Win32,84.74576271,,,,,,,,,,,,,,,,784.2402,786.0399,786.04,786.8162,return,0.1745,,74.86979167,,,,,,FBP-OG-71.png,0.43,1.2,34,1,,,,,,,,,,,,,,,,,,0,30,30,33,1,,,,,,,,,,,,,,,,,,,,,,,
,,,,,V1_007,21,female,2024-04-29_15h33.11.944,jersey_experiment_5_v1,2023.2.2,Win32,84.74576271,,,,,,,,,,,,,,,,786.8164,788.1103,788.1103,788.887,return,0.111,,61.71875,,,,,,FBP-PT-17.png,0.35,1.2,1,0.5,,,,,,,,,,,,,,,,,,0,31,31,0,1,,,,,,,,,,,,,,,,,,,,,,,
,,,,,V1_007,21,female,2024-04-29_15h33.11.944,jersey_experiment_5_v1,2023.2.2,Win32,84.74576271,,,,,,,,,,,,,,,,788.8873,790.6871,790.6872,791.24,return,0.0857,,64.453125,,,,,,FBP-OG-91.png,0.45,1.2,45,1,,,,,,,,,,,,,,,,,,0,32,32,44,1,,,,,,,,,,,,,,,,,,,,,,,
,,,,,V1_007,21,female,2024-04-29_15h33.11.944,jersey_experiment_5_v1,2023.2.2,Win32,84.74576271,,,,,,,,,,,,,,,,791.2402,793.0401,793.0401,793.7225,return,0.143,,69.140625,,,,,,FBP-YG-91.png,0.45,1.2,30,1,,,,,,,,,,,,,,,,,,0,33,33,29,1,,,,,,,,,,,,,,,,,,,,,,,
,,,,,V1_007,21,female,2024-04-29_15h33.11.944,jersey_experiment_5_v1,2023.2.2,Win32,84.74576271,,,,,,,,,,,,,,,,793.7227,795.5225,795.5225,796.4756,return,0.3777,,76.04166667,,,,,,FBP-RB-19.png,0.45,1.2,60,1,,,,,,,,,,,,,,,,,,0,34,34,59,1,,,,,,,,,,,,,,,,,,,,,,,
,,,,,V1_007,21,female,2024-04-29_15h33.11.944,jersey_experiment_5_v1,2023.2.2,Win32,84.74576271,,,,,,,,,,,,,,,,796.4757,798.2755,798.2755,799.1816,return,0.1652,,74.86979167,,,,,,FBP-RB-18.png,0.43,1.2,54,1,,,,,,,,,,,,,,,,,,0,35,35,53,1,,,,,,,,,,,,,,,,,,,,,,,
,,,,,V1_007,21,female,2024-04-29_15h33.11.944,jersey_experiment_5_v1,2023.2.2,Win32,84.74576271,,,,,,,,,,,,,,,,799.1818,800.9816,800.9816,801.8876,return,0.4009,,74.86979167,,,,,,FBP-RB-18.png,0.45,1.2,55,1,,,,,,,,,,,,,,,,,,0,36,36,54,1,,,,,,,,,,,,,,,,,,,,,,,
,,,,,V1_007,21,female,2024-04-29_15h33.11.944,jersey_experiment_5_v1,2023.2.2,Win32,84.74576271,,,,,,,,,,,,,,,,801.8878,803.6875,803.6875,804.464,return,0.1645,,64.19270833,,,,,,FBP-YG-81.png,0.43,1.2,24,1,,,,,,,,,,,,,,,,,,0,37,37,23,1,,,,,,,,,,,,,,,,,,,,,,,
,,,,,V1_007,21,female,2024-04-29_15h33.11.944,jersey_experiment_5_v1,2023.2.2,Win32,84.74576271,,,,,,,,,,,,,,,,804.4642,805.7582,805.7582,806.3818,return,0.1077,,60.15625,,,,,,FBP-PT-17.png,0.43,1.2,4,0.5,,,,,,,,,,,,,,,,,,0,38,38,3,1,,,,,,,,,,,,,,,,,,,,,,,
,,,,,V1_007,21,female,2024-04-29_15h33.11.944,jersey_experiment_5_v1,2023.2.2,Win32,84.74576271,,,,,,,,,,,,,,,,806.382,808.1817,808.1818,808.7113,return,0.0997,,45.83333333,,,,,,FBP-RB-19.png,0.35,1.2,56,1,,,,,,,,,,,,,,,,,,0,39,39,55,1,,,,,,,,,,,,,,,,,,,,,,,
,,,,,V1_007,21,female,2024-04-29_15h33.11.944,jersey_experiment_5_v1,2023.2.2,Win32,84.74576271,,,,,,,,,,,,,,,,808.7115,810.0054,810.0056,810.6525,return,0.0958,,61.45833333,,,,,,FBP-PT-18.png,0.43,1.2,9,0.5,,,,,,,,,,,,,,,,,,0,40,40,8,1,,,,,,,,,,,,,,,,,,,,,,,
,,,,,V1_007,21,female,2024-04-29_15h33.11.944,jersey_experiment_5_v1,2023.2.2,Win32,84.74576271,,,,,,,,,,,,,,,,810.6527,812.4527,812.4528,813.0173,return,0.1433,,43.09895833,,,,,,FBP-OG-81.png,0.35,1.2,36,1,,,,,,,,,,,,,,,,,,0,41,41,35,1,,,,,,,,,,,,,,,,,,,,,,,
,,,,,V1_007,21,female,2024-04-29_15h33.11.944,jersey_experiment_5_v1,2023.2.2,Win32,84.74576271,,,,,,,,,,,,,,,,813.0175,814.8174,814.8174,815.7585,return,0.5509,,43.09895833,,,,,,FBP-RB-19.png,0.37,1.2,57,1,,,,,,,,,,,,,,,,,,0,42,42,56,1,,,,,,,,,,,,,,,,,,,,,,,
,,,,,V1_007,21,female,2024-04-29_15h33.11.944,jersey_experiment_5_v1,2023.2.2,Win32,84.74576271,,,,,,,,,,,,,,,,815.7587,817.5589,817.5589,818.2882,return,0.1182,,49.86979167,,,,,,FBP-YG-71.png,0.37,1.2,17,1,,,,,,,,,,,,,,,,,,0,43,43,16,1,,,,,,,,,,,,,,,,,,,,,,,
,,,,,V1_007,21,female,2024-04-29_15h33.11.944,jersey_experiment_5_v1,2023.2.2,Win32,84.74576271,,,,,,,,,,,,,,,,818.2884,820.0881,820.0881,820.6293,return,0.1123,,62.23958333,,,,,,FBP-YG-91.png,0.4,1.2,28,1,,,,,,,,,,,,,,,,,,0,44,44,27,1,,,,,,,,,,,,,,,,,,,,,,,
,,,,,V1_007,21,female,2024-04-29_15h33.11.944,jersey_experiment_5_v1,2023.2.2,Win32,84.74576271,,,,,,,,,,,,,,,,820.6294,822.4295,822.4296,823.2766,return,0.1541,,48.4375,,,,,,FBP-OG-91.png,0.37,1.2,42,1,,,,,,,,,,,,,,,,,,0,45,45,41,1,,,,,,,,,,,,,,,,,,,,,,,
,,,,,V1_007,21,female,2024-04-29_15h33.11.944,jersey_experiment_5_v1,2023.2.2,Win32,84.74576271,,,,,,,,,,,,,,,,823.2768,824.5707,824.5707,825.1827,return,0.1178,,56.38020833,,,,,,FBP-PT-18.png,0.37,1.2,7,0.5,,,,,,,,,,,,,,,,,,0,46,46,6,1,,,,,,,,,,,,,,,,,,,,,,,
,,,,,V1_007,21,female,2024-04-29_15h33.11.944,jersey_experiment_5_v1,2023.2.2,Win32,84.74576271,,,,,,,,,,,,,,,,825.183,826.9826,826.9826,827.6414,return,0.1311,,44.40104167,,,,,,FBP-RB-18.png,0.35,1.2,51,1,,,,,,,,,,,,,,,,,,0,47,47,50,1,,,,,,,,,,,,,,,,,,,,,,,
,,,,,V1_007,21,female,2024-04-29_15h33.11.944,jersey_experiment_5_v1,2023.2.2,Win32,84.74576271,,,,,,,,,,,,,,,,827.6416,828.9355,828.9356,829.771,return,0.1324,,61.84895833,,,,,,FBP-PT-17.png,0.45,1.2,5,0.5,,,,,,,,,,,,,,,,,,0,48,48,4,1,,,,,,,,,,,,,,,,,,,,,,,
,,,,,V1_007,21,female,2024-04-29_15h33.11.944,jersey_experiment_5_v1,2023.2.2,Win32,84.74576271,,,,,,,,,,,,,,,,829.7712,831.5712,831.5713,832.2298,return,0.173,,47.39583333,,,,,,FBP-YG-81.png,0.35,1.2,21,1,,,,,,,,,,,,,,,,,,0,49,49,20,1,,,,,,,,,,,,,,,,,,,,,,,
,,,,,V1_007,21,female,2024-04-29_15h33.11.944,jersey_experiment_5_v1,2023.2.2,Win32,84.74576271,,,,,,,,,,,,,,,,832.23,834.0299,834.0299,834.6065,return,0.1982,,59.11458333,,,,,,FBP-RB-19.png,0.4,1.2,58,1,,,,,,,,,,,,,,,,,,0,50,50,57,1,,,,,,,,,,,,,,,,,,,,,,,
,,,,,V1_007,21,female,2024-04-29_15h33.11.944,jersey_experiment_5_v1,2023.2.2,Win32,84.74576271,,,,,,,,,,,,,,,,834.6066,835.9006,835.9006,836.5359,return,0.124,,58.203125,,,,,,FBP-PT-18.png,0.45,1.2,10,0.5,,,,,,,,,,,,,,,,,,0,51,51,9,1,,,,,,,,,,,,,,,,,,,,,,,
,,,,,V1_007,21,female,2024-04-29_15h33.11.944,jersey_experiment_5_v1,2023.2.2,Win32,84.74576271,,,,,,,,,,,,,,,,836.5362,838.3361,838.3361,839.6418,return,0.2264,,57.16145833,,,,,,FBP-YG-91.png,0.43,1.2,29,1,,,,,,,,,,,,,,,,,,0,52,52,28,1,,,,,,,,,,,,,,,,,,,,,,,
,,,,,V1_007,21,female,2024-04-29_15h33.11.944,jersey_experiment_5_v1,2023.2.2,Win32,84.74576271,,,,,,,,,,,,,,,,839.6421,841.4421,841.4421,842.1244,return,0.1409,,41.40625,,,,,,FBP-OG-91.png,0.35,1.2,41,1,,,,,,,,,,,,,,,,,,0,53,53,40,1,,,,,,,,,,,,,,,,,,,,,,,
,,,,,V1_007,21,female,2024-04-29_15h33.11.944,jersey_experiment_5_v1,2023.2.2,Win32,84.74576271,,,,,,,,,,,,,,,,842.1246,843.4187,843.4188,844.0538,return,0.0905,,62.23958333,,,,,,FBP-PT-19.png,0.45,1.2,15,0.5,,,,,,,,,,,,,,,,,,0,54,54,14,1,,,,,,,,,,,,,,,,,,,,,,,
,,,,,V1_007,21,female,2024-04-29_15h33.11.944,jersey_experiment_5_v1,2023.2.2,Win32,84.74576271,,,,,,,,,,,,,,,,844.0541,845.854,845.854,846.5598,return,0.141,,73.828125,,,,,,FBP-OG-81.png,0.45,1.2,40,1,,,,,,,,,,,,,,,,,,0,55,55,39,1,,,,,,,,,,,,,,,,,,,,,,,
,,,,,V1_007,21,female,2024-04-29_15h33.11.944,jersey_experiment_5_v1,2023.2.2,Win32,84.74576271,,,,,,,,,,,,,,,,846.56,848.3601,848.3601,848.8892,return,0.0986,,41.92708333,,,,,,FBP-RB-18.png,0.37,1.2,52,1,,,,,,,,,,,,,,,,,,0,56,56,51,1,,,,,,,,,,,,,,,,,,,,,,,
,,,,,V1_007,21,female,2024-04-29_15h33.11.944,jersey_experiment_5_v1,2023.2.2,Win32,84.74576271,,,,,,,,,,,,,,,,848.8894,850.6895,850.6895,851.407,return,0.2222,,39.97395833,,,,,,FBP-RB-17.png,0.37,1.2,47,1,,,,,,,,,,,,,,,,,,0,57,57,46,1,,,,,,,,,,,,,,,,,,,,,,,
,,,,,V1_007,21,female,2024-04-29_15h33.11.944,jersey_experiment_5_v1,2023.2.2,Win32,84.74576271,,,,,,,,,,,,,,,,851.4072,853.2071,853.2071,853.9956,return,0.0967,,61.06770833,,,,,,FBP-YG-71.png,0.43,1.2,19,1,,,,,,,,,,,,,,,,,,0,58,58,18,1,,,,,,,,,,,,,,,,,,,,,,,
,,,,,V1_007,21,female,2024-04-29_15h33.11.944,jersey_experiment_5_v1,2023.2.2,Win32,84.74576271,,,,,,,,,,,,,,,,853.9957,855.7956,855.7956,856.4426,return,0.2018,,61.19791667,,,,,,FBP-YG-71.png,0.4,1.2,18,1,,,,,,,,,,,,,,,,,,0,59,59,17,1,,,,,,,,,,,,,,,,,,,,,,,
,,,,,V1_007,21,female,2024-04-29_15h33.11.944,jersey_experiment_5_v1,2023.2.2,Win32,84.74576271,,,,,,,,,,,,,,,,,,,,,,,,,,,,,,,,,,,,,,,,,,,,,,,,,,,,,,,,856.4429,859.4662,return,3.0133,,,,,,,,,,,,,,,,,,,
,,,,,V1_007,21,female,2024-04-29_15h33.11.944,jersey_experiment_5_v1,2023.2.2,Win32,84.74576271,,,,,,,,,,,,,,,,,,,,,,,,,,,,,,,,,,,,,,,,,,,,,,,,,,,,,,,,,,,,,859.4663,862.6312,1,2.5624,return,0.5946,,,,,,,,,,,,
,,,,,V1_007,21,female,2024-04-29_15h33.11.944,jersey_experiment_5_v1,2023.2.2,Win32,84.74576271,,,,,,,,,,,,,,,,,,,,,,,,,,,,,,,,,,,,,,,,,,,,,,,,,,,,,,,,,,,,,,,,,,,,862.6314,874.2134,no,right,5.7375,,,,,,
,,,,,V1_007,21,female,2024-04-29_15h33.11.944,jersey_experiment_5_v1,2023.2.2,Win32,84.74576271,,,,,,,,,,,,,,,,,,,,,,,,,,,,,,,,,,,,,,,,,,,,,,,,,,,,,,,,,,,,,,,,,,,,,,,,,,874.2134,877.0787,return,2.8594,