requirements.started,requirements.stopped,key_resp_3.keys,key_resp_3.rt,key_resp_3.duration,Subject ID,Age,Gender,date,expName,psychopyVersion,OS,frameRate,instructions1.started,instructions1.stopped,key_resp.keys,key_resp.rt,key_resp.duration,example.started,example.stopped,enter_2.keys,enter_2.rt,enter_2.duration,instructions2.started,instructions2.stopped,enter_3.keys,enter_3.rt,enter_3.duration,image.started,image.stopped,slider_2.started,slider_2.stopped,next.keys,next.rt,next.duration,slider.response,trial_block_1.thisRepN,trial_block_1.thisTrialN,trial_block_1.thisN,trial_block_1.thisIndex,trial_block_1.ran,Path,Width,Height,Index,Duration,trial_block_2.thisRepN,trial_block_2.thisTrialN,trial_block_2.thisN,trial_block_2.thisIndex,trial_block_2.ran,rest_break.started,rest_break.stopped,end_break.started,end_break.stopped,key_resp_5.keys,key_resp_5.rt,key_resp_5.duration,trial_block_3.thisRepN,trial_block_3.thisTrialN,trial_block_3.thisN,trial_block_3.thisIndex,trial_block_3.ran,trial_block_4.thisRepN,trial_block_4.thisTrialN,trial_block_4.thisN,trial_block_4.thisIndex,trial_block_4.ran,questions_intro.started,questions_intro.stopped,enter_12.keys,enter_12.rt,enter_12.duration,question2.started,question2.stopped,question_doingbest.response,question_doingbest.rt,enter_15.keys,enter_15.rt,enter_15.duration,pattern.started,pattern.stopped,pattern_2.text,enter_17.keys,enter_17.rt,enter_17.duration,thankyou.started,thankyou.stopped,enter_14.keys,enter_14.rt,enter_14.duration
0.0002,6.6482,return,6.6447,,V1_030,20,Male,2024-05-22_09h31.32.123,jersey_experiment_5_v1,2023.2.2,Win32,84.74576271,,,,,,,,,,,,,,,,,,,,,,,,,,,,,,,,,,,,,,,,,,,,,,,,,,,,,,,,,,,,,,,,,,,,,,,,,,,,,,
,,,,,V1_030,20,Male,2024-05-22_09h31.32.123,jersey_experiment_5_v1,2023.2.2,Win32,84.74576271,6.6482,13.257,return,6.5884,,,,,,,,,,,,,,,,,,,,,,,,,,,,,,,,,,,,,,,,,,,,,,,,,,,,,,,,,,,,,,,,,,,,,,,,,,
,,,,,V1_030,20,Male,2024-05-22_09h31.32.123,jersey_experiment_5_v1,2023.2.2,Win32,84.74576271,,,,,,13.2571,16.2805,return,2.98,,,,,,,,,,,,,,,,,,,,,,,,,,,,,,,,,,,,,,,,,,,,,,,,,,,,,,,,,,,,,,,,,,,,,
,,,,,V1_030,20,Male,2024-05-22_09h31.32.123,jersey_experiment_5_v1,2023.2.2,Win32,84.74576271,,,,,,,,,,,16.2805,29.5753,return,13.271,,,,,,,,,,,,,,,,,,,,,,,,,,,,,,,,,,,,,,,,,,,,,,,,,,,,,,,,,,,,,,,,
,,,,,V1_030,20,Male,2024-05-22_09h31.32.123,jersey_experiment_5_v1,2023.2.2,Win32,84.74576271,,,,,,,,,,,,,,,,29.5815,31.3749,31.375,49.7992,return,2.5727,,25.13020833,0,0,0,7,1,FBP-PT-81.png,0.4,1.2,8,1,,,,,,,,,,,,,,,,,,,,,,,,,,,,,,,,,,,,,,,,,,,,,
,,,,,V1_030,20,Male,2024-05-22_09h31.32.123,jersey_experiment_5_v1,2023.2.2,Win32,84.74576271,,,,,,,,,,,,,,,,49.7996,51.0933,51.0933,54.6464,return,0.5416,,61.19791667,0,1,1,48,1,FBP-RB-71.png,0.43,1.2,49,0.5,,,,,,,,,,,,,,,,,,,,,,,,,,,,,,,,,,,,,,,,,,,,,
,,,,,V1_030,20,Male,2024-05-22_09h31.32.123,jersey_experiment_5_v1,2023.2.2,Win32,84.74576271,,,,,,,,,,,,,,,,54.6466,55.9404,55.9405,59.4583,return,0.287,,25.390625,0,2,2,20,1,FBP-YG-18.png,0.35,1.2,21,0.5,,,,,,,,,,,,,,,,,,,,,,,,,,,,,,,,,,,,,,,,,,,,,
,,,,,V1_030,20,Male,2024-05-22_09h31.32.123,jersey_experiment_5_v1,2023.2.2,Win32,84.74576271,,,,,,,,,,,,,,,,59.4586,60.7525,60.7525,64.8352,return,0.8158,,85.15625,0,3,3,34,1,FBP-OG-17.png,0.45,1.2,35,0.5,,,,,,,,,,,,,,,,,,,,,,,,,,,,,,,,,,,,,,,,,,,,,
,,,,,V1_030,20,Male,2024-05-22_09h31.32.123,jersey_experiment_5_v1,2023.2.2,Win32,84.74576271,,,,,,,,,,,,,,,,64.8355,66.6351,66.6351,68.8469,return,0.2071,,85.28645833,0,4,4,8,1,FBP-PT-81.png,0.43,1.2,9,1,,,,,,,,,,,,,,,,,,,,,,,,,,,,,,,,,,,,,,,,,,,,,
,,,,,V1_030,20,Male,2024-05-22_09h31.32.123,jersey_experiment_5_v1,2023.2.2,Win32,84.74576271,,,,,,,,,,,,,,,,68.8471,70.1412,70.1412,71.7531,return,0.2609,,98.69791667,0,5,5,44,1,FBP-OG-19.png,0.45,1.2,45,0.5,,,,,,,,,,,,,,,,,,,,,,,,,,,,,,,,,,,,,,,,,,,,,
,,,,,V1_030,20,Male,2024-05-22_09h31.32.123,jersey_experiment_5_v1,2023.2.2,Win32,84.74576271,,,,,,,,,,,,,,,,71.7533,73.047,73.047,77.0943,return,1.283,,69.140625,0,6,6,37,1,FBP-OG-18.png,0.4,1.2,38,0.5,,,,,,,,,,,,,,,,,,,,,,,,,,,,,,,,,,,,,,,,,,,,,
,,,,,V1_030,20,Male,2024-05-22_09h31.32.123,jersey_experiment_5_v1,2023.2.2,Win32,84.74576271,,,,,,,,,,,,,,,,77.0945,78.8943,78.8943,80.2123,return,0.1787,,75.26041667,0,7,7,3,1,FBP-PT-71.png,0.43,1.2,4,1,,,,,,,,,,,,,,,,,,,,,,,,,,,,,,,,,,,,,,,,,,,,,
,,,,,V1_030,20,Male,2024-05-22_09h31.32.123,jersey_experiment_5_v1,2023.2.2,Win32,84.74576271,,,,,,,,,,,,,,,,80.2124,81.5062,81.5062,83.3769,return,0.2145,,50.26041667,0,8,8,35,1,FBP-OG-18.png,0.35,1.2,36,0.5,,,,,,,,,,,,,,,,,,,,,,,,,,,,,,,,,,,,,,,,,,,,,
,,,,,V1_030,20,Male,2024-05-22_09h31.32.123,jersey_experiment_5_v1,2023.2.2,Win32,84.74576271,,,,,,,,,,,,,,,,83.3771,84.671,84.6711,86.7536,return,0.2164,,50.13020833,0,9,9,17,1,FBP-YG-17.png,0.4,1.2,18,0.5,,,,,,,,,,,,,,,,,,,,,,,,,,,,,,,,,,,,,,,,,,,,,
,,,,,V1_030,20,Male,2024-05-22_09h31.32.123,jersey_experiment_5_v1,2023.2.2,Win32,84.74576271,,,,,,,,,,,,,,,,86.7539,88.0477,88.0477,90.1771,return,0.171,,50.26041667,0,10,10,30,1,FBP-OG-17.png,0.35,1.2,31,0.5,,,,,,,,,,,,,,,,,,,,,,,,,,,,,,,,,,,,,,,,,,,,,
,,,,,V1_030,20,Male,2024-05-22_09h31.32.123,jersey_experiment_5_v1,2023.2.2,Win32,84.74576271,,,,,,,,,,,,,,,,90.1773,91.4712,91.4713,93.0713,return,0.134,,36.84895833,0,11,11,15,1,FBP-YG-17.png,0.35,1.2,16,0.5,,,,,,,,,,,,,,,,,,,,,,,,,,,,,,,,,,,,,,,,,,,,,
,,,,,V1_030,20,Male,2024-05-22_09h31.32.123,jersey_experiment_5_v1,2023.2.2,Win32,84.74576271,,,,,,,,,,,,,,,,93.0715,94.3655,94.3656,97.2834,return,0.1804,,75,0,12,12,57,1,FBP-RB-91.png,0.4,1.2,58,0.5,,,,,,,,,,,,,,,,,,,,,,,,,,,,,,,,,,,,,,,,,,,,,
,,,,,V1_030,20,Male,2024-05-22_09h31.32.123,jersey_experiment_5_v1,2023.2.2,Win32,84.74576271,,,,,,,,,,,,,,,,97.2837,99.0834,99.0834,101.8246,return,0.2053,,58.85416667,0,13,13,1,1,FBP-PT-71.png,0.37,1.2,2,1,,,,,,,,,,,,,,,,,,,,,,,,,,,,,,,,,,,,,,,,,,,,,
,,,,,V1_030,20,Male,2024-05-22_09h31.32.123,jersey_experiment_5_v1,2023.2.2,Win32,84.74576271,,,,,,,,,,,,,,,,101.8249,103.6249,103.6249,104.9426,return,0.5617,,99.73958333,0,14,14,4,1,FBP-PT-71.png,0.45,1.2,5,1,,,,,,,,,,,,,,,,,,,,,,,,,,,,,,,,,,,,,,,,,,,,,
,,,,,V1_030,20,Male,2024-05-22_09h31.32.123,jersey_experiment_5_v1,2023.2.2,Win32,84.74576271,,,,,,,,,,,,,,,,104.943,106.2365,106.2366,108.1308,return,0.1692,,61.58854167,0,15,15,42,1,FBP-OG-19.png,0.4,1.2,43,0.5,,,,,,,,,,,,,,,,,,,,,,,,,,,,,,,,,,,,,,,,,,,,,
,,,,,V1_030,20,Male,2024-05-22_09h31.32.123,jersey_experiment_5_v1,2023.2.2,Win32,84.74576271,,,,,,,,,,,,,,,,108.131,109.4249,109.4249,110.7545,return,0.1341,,89.19270833,0,16,16,24,1,FBP-YG-18.png,0.45,1.2,25,0.5,,,,,,,,,,,,,,,,,,,,,,,,,,,,,,,,,,,,,,,,,,,,,
,,,,,V1_030,20,Male,2024-05-22_09h31.32.123,jersey_experiment_5_v1,2023.2.2,Win32,84.74576271,,,,,,,,,,,,,,,,110.7546,112.0485,112.0485,114.8486,return,0.1706,,42.31770833,0,17,17,46,1,FBP-RB-71.png,0.37,1.2,47,0.5,,,,,,,,,,,,,,,,,,,,,,,,,,,,,,,,,,,,,,,,,,,,,
,,,,,V1_030,20,Male,2024-05-22_09h31.32.123,jersey_experiment_5_v1,2023.2.2,Win32,84.74576271,,,,,,,,,,,,,,,,114.8489,116.1428,116.1429,117.7902,return,0.2447,,17.578125,0,18,18,45,1,FBP-RB-71.png,0.35,1.2,46,0.5,,,,,,,,,,,,,,,,,,,,,,,,,,,,,,,,,,,,,,,,,,,,,
,,,,,V1_030,20,Male,2024-05-22_09h31.32.123,jersey_experiment_5_v1,2023.2.2,Win32,84.74576271,,,,,,,,,,,,,,,,117.7904,119.59,119.59,121.0138,return,0.1759,,25.390625,0,19,19,11,1,FBP-PT-91.png,0.37,1.2,12,1,,,,,,,,,,,,,,,,,,,,,,,,,,,,,,,,,,,,,,,,,,,,,
,,,,,V1_030,20,Male,2024-05-22_09h31.32.123,jersey_experiment_5_v1,2023.2.2,Win32,84.74576271,,,,,,,,,,,,,,,,121.014,122.8135,122.8135,124.3196,return,0.1825,,50.390625,0,20,20,2,1,FBP-PT-71.png,0.4,1.2,3,1,,,,,,,,,,,,,,,,,,,,,,,,,,,,,,,,,,,,,,,,,,,,,
,,,,,V1_030,20,Male,2024-05-22_09h31.32.123,jersey_experiment_5_v1,2023.2.2,Win32,84.74576271,,,,,,,,,,,,,,,,124.3199,125.6137,125.6137,127.096,return,0.2099,,63.15104167,0,21,21,36,1,FBP-OG-18.png,0.37,1.2,37,0.5,,,,,,,,,,,,,,,,,,,,,,,,,,,,,,,,,,,,,,,,,,,,,
,,,,,V1_030,20,Male,2024-05-22_09h31.32.123,jersey_experiment_5_v1,2023.2.2,Win32,84.74576271,,,,,,,,,,,,,,,,127.0962,128.3903,128.3904,130.0257,return,0.2234,,89.32291667,0,22,22,54,1,FBP-RB-81.png,0.45,1.2,55,0.5,,,,,,,,,,,,,,,,,,,,,,,,,,,,,,,,,,,,,,,,,,,,,
,,,,,V1_030,20,Male,2024-05-22_09h31.32.123,jersey_experiment_5_v1,2023.2.2,Win32,84.74576271,,,,,,,,,,,,,,,,130.026,131.3197,131.3197,132.5197,return,0.3309,,96.74479167,0,23,23,29,1,FBP-YG-19.png,0.45,1.2,30,0.5,,,,,,,,,,,,,,,,,,,,,,,,,,,,,,,,,,,,,,,,,,,,,
,,,,,V1_030,20,Male,2024-05-22_09h31.32.123,jersey_experiment_5_v1,2023.2.2,Win32,84.74576271,,,,,,,,,,,,,,,,132.5199,133.8139,133.814,137.5906,return,0.1768,,46.35416667,0,24,24,51,1,FBP-RB-81.png,0.37,1.2,52,0.5,,,,,,,,,,,,,,,,,,,,,,,,,,,,,,,,,,,,,,,,,,,,,
,,,,,V1_030,20,Male,2024-05-22_09h31.32.123,jersey_experiment_5_v1,2023.2.2,Win32,84.74576271,,,,,,,,,,,,,,,,137.5909,138.8847,138.8847,141.1083,return,0.1675,,53.64583333,0,25,25,41,1,FBP-OG-19.png,0.37,1.2,42,0.5,,,,,,,,,,,,,,,,,,,,,,,,,,,,,,,,,,,,,,,,,,,,,
,,,,,V1_030,20,Male,2024-05-22_09h31.32.123,jersey_experiment_5_v1,2023.2.2,Win32,84.74576271,,,,,,,,,,,,,,,,141.1086,142.4025,142.4026,144.0497,return,0.2408,,38.02083333,0,26,26,21,1,FBP-YG-18.png,0.37,1.2,22,0.5,,,,,,,,,,,,,,,,,,,,,,,,,,,,,,,,,,,,,,,,,,,,,
,,,,,V1_030,20,Male,2024-05-22_09h31.32.123,jersey_experiment_5_v1,2023.2.2,Win32,84.74576271,,,,,,,,,,,,,,,,144.05,145.3438,145.3439,147.3204,return,0.1981,,88.54166667,0,27,27,39,1,FBP-OG-18.png,0.45,1.2,40,0.5,,,,,,,,,,,,,,,,,,,,,,,,,,,,,,,,,,,,,,,,,,,,,
,,,,,V1_030,20,Male,2024-05-22_09h31.32.123,jersey_experiment_5_v1,2023.2.2,Win32,84.74576271,,,,,,,,,,,,,,,,147.3206,148.6145,148.6146,150.9204,return,0.9647,,62.76041667,0,28,28,53,1,FBP-RB-81.png,0.43,1.2,54,0.5,,,,,,,,,,,,,,,,,,,,,,,,,,,,,,,,,,,,,,,,,,,,,
,,,,,V1_030,20,Male,2024-05-22_09h31.32.123,jersey_experiment_5_v1,2023.2.2,Win32,84.74576271,,,,,,,,,,,,,,,,150.9206,152.2146,152.2146,153.9204,return,0.3593,,54.42708333,0,29,29,47,1,FBP-RB-71.png,0.4,1.2,48,0.5,,,,,,,,,,,,,,,,,,,,,,,,,,,,,,,,,,,,,,,,,,,,,
,,,,,V1_030,20,Male,2024-05-22_09h31.32.123,jersey_experiment_5_v1,2023.2.2,Win32,84.74576271,,,,,,,,,,,,,,,,153.9207,155.7208,155.7209,156.8032,return,0.1692,,22.00520833,0,30,30,0,1,FBP-PT-71.png,0.35,1.2,1,1,,,,,,,,,,,,,,,,,,,,,,,,,,,,,,,,,,,,,,,,,,,,,
,,,,,V1_030,20,Male,2024-05-22_09h31.32.123,jersey_experiment_5_v1,2023.2.2,Win32,84.74576271,,,,,,,,,,,,,,,,156.8035,158.6033,158.6033,160.2975,return,0.2451,,76.43229167,0,31,31,9,1,FBP-PT-81.png,0.45,1.2,10,1,,,,,,,,,,,,,,,,,,,,,,,,,,,,,,,,,,,,,,,,,,,,,
,,,,,V1_030,20,Male,2024-05-22_09h31.32.123,jersey_experiment_5_v1,2023.2.2,Win32,84.74576271,,,,,,,,,,,,,,,,160.2977,161.5913,161.5913,163.4622,return,0.5664,,83.46354167,0,32,32,49,1,FBP-RB-71.png,0.45,1.2,50,0.5,,,,,,,,,,,,,,,,,,,,,,,,,,,,,,,,,,,,,,,,,,,,,
,,,,,V1_030,20,Male,2024-05-22_09h31.32.123,jersey_experiment_5_v1,2023.2.2,Win32,84.74576271,,,,,,,,,,,,,,,,163.4624,165.2622,165.2622,166.8389,return,0.2269,,85.02604167,0,33,33,14,1,FBP-PT-91.png,0.45,1.2,15,1,,,,,,,,,,,,,,,,,,,,,,,,,,,,,,,,,,,,,,,,,,,,,
,,,,,V1_030,20,Male,2024-05-22_09h31.32.123,jersey_experiment_5_v1,2023.2.2,Win32,84.74576271,,,,,,,,,,,,,,,,166.8391,168.1327,168.1328,171.8624,return,0.2672,,32.29166667,0,34,34,56,1,FBP-RB-91.png,0.37,1.2,57,0.5,,,,,,,,,,,,,,,,,,,,,,,,,,,,,,,,,,,,,,,,,,,,,
,,,,,V1_030,20,Male,2024-05-22_09h31.32.123,jersey_experiment_5_v1,2023.2.2,Win32,84.74576271,,,,,,,,,,,,,,,,171.8627,173.1566,173.1566,176.4979,return,0.1464,,36.45833333,0,35,35,27,1,FBP-YG-19.png,0.4,1.2,28,0.5,,,,,,,,,,,,,,,,,,,,,,,,,,,,,,,,,,,,,,,,,,,,,
,,,,,V1_030,20,Male,2024-05-22_09h31.32.123,jersey_experiment_5_v1,2023.2.2,Win32,84.74576271,,,,,,,,,,,,,,,,176.4981,177.792,177.7921,179.6039,return,0.1796,,82.8125,0,36,36,19,1,FBP-YG-17.png,0.45,1.2,20,0.5,,,,,,,,,,,,,,,,,,,,,,,,,,,,,,,,,,,,,,,,,,,,,
,,,,,V1_030,20,Male,2024-05-22_09h31.32.123,jersey_experiment_5_v1,2023.2.2,Win32,84.74576271,,,,,,,,,,,,,,,,179.6042,180.898,180.898,186.9335,return,0.6219,,31.38020833,0,37,37,31,1,FBP-OG-17.png,0.37,1.2,32,0.5,,,,,,,,,,,,,,,,,,,,,,,,,,,,,,,,,,,,,,,,,,,,,
,,,,,V1_030,20,Male,2024-05-22_09h31.32.123,jersey_experiment_5_v1,2023.2.2,Win32,84.74576271,,,,,,,,,,,,,,,,186.9337,188.7337,188.7337,189.5102,return,0.1891,,7.03125,0,38,38,10,1,FBP-PT-91.png,0.35,1.2,11,1,,,,,,,,,,,,,,,,,,,,,,,,,,,,,,,,,,,,,,,,,,,,,
,,,,,V1_030,20,Male,2024-05-22_09h31.32.123,jersey_experiment_5_v1,2023.2.2,Win32,84.74576271,,,,,,,,,,,,,,,,189.5104,190.8043,190.8043,192.2631,return,0.2473,,12.76041667,0,39,39,55,1,FBP-RB-91.png,0.35,1.2,56,0.5,,,,,,,,,,,,,,,,,,,,,,,,,,,,,,,,,,,,,,,,,,,,,
,,,,,V1_030,20,Male,2024-05-22_09h31.32.123,jersey_experiment_5_v1,2023.2.2,Win32,84.74576271,,,,,,,,,,,,,,,,192.2634,194.0633,194.0633,196.1928,return,0.1234,,27.99479167,0,40,40,6,1,FBP-PT-81.png,0.37,1.2,7,1,,,,,,,,,,,,,,,,,,,,,,,,,,,,,,,,,,,,,,,,,,,,,
,,,,,V1_030,20,Male,2024-05-22_09h31.32.123,jersey_experiment_5_v1,2023.2.2,Win32,84.74576271,,,,,,,,,,,,,,,,196.1929,197.487,197.487,199.2399,return,0.2353,,24.47916667,0,41,41,40,1,FBP-OG-19.png,0.35,1.2,41,0.5,,,,,,,,,,,,,,,,,,,,,,,,,,,,,,,,,,,,,,,,,,,,,
,,,,,V1_030,20,Male,2024-05-22_09h31.32.123,jersey_experiment_5_v1,2023.2.2,Win32,84.74576271,,,,,,,,,,,,,,,,199.2401,200.5341,200.5341,202.0988,return,0.1572,,54.94791667,0,42,42,32,1,FBP-OG-17.png,0.4,1.2,33,0.5,,,,,,,,,,,,,,,,,,,,,,,,,,,,,,,,,,,,,,,,,,,,,
,,,,,V1_030,20,Male,2024-05-22_09h31.32.123,jersey_experiment_5_v1,2023.2.2,Win32,84.74576271,,,,,,,,,,,,,,,,202.099,203.3929,203.3929,204.4989,return,0.204,,37.109375,0,43,43,25,1,FBP-YG-19.png,0.35,1.2,26,0.5,,,,,,,,,,,,,,,,,,,,,,,,,,,,,,,,,,,,,,,,,,,,,
,,,,,V1_030,20,Male,2024-05-22_09h31.32.123,jersey_experiment_5_v1,2023.2.2,Win32,84.74576271,,,,,,,,,,,,,,,,204.4993,205.793,205.7931,207.2636,return,0.172,,65.88541667,0,44,44,38,1,FBP-OG-18.png,0.43,1.2,39,0.5,,,,,,,,,,,,,,,,,,,,,,,,,,,,,,,,,,,,,,,,,,,,,
,,,,,V1_030,20,Male,2024-05-22_09h31.32.123,jersey_experiment_5_v1,2023.2.2,Win32,84.74576271,,,,,,,,,,,,,,,,207.2639,209.0639,209.064,210.8874,return,0.0927,,53.90625,0,45,45,5,1,FBP-PT-81.png,0.35,1.2,6,1,,,,,,,,,,,,,,,,,,,,,,,,,,,,,,,,,,,,,,,,,,,,,
,,,,,V1_030,20,Male,2024-05-22_09h31.32.123,jersey_experiment_5_v1,2023.2.2,Win32,84.74576271,,,,,,,,,,,,,,,,210.8877,212.1815,212.1815,213.1697,return,0.1108,,80.859375,0,46,46,43,1,FBP-OG-19.png,0.43,1.2,44,0.5,,,,,,,,,,,,,,,,,,,,,,,,,,,,,,,,,,,,,,,,,,,,,
,,,,,V1_030,20,Male,2024-05-22_09h31.32.123,jersey_experiment_5_v1,2023.2.2,Win32,84.74576271,,,,,,,,,,,,,,,,213.17,214.4639,214.4639,216.5816,return,0.0718,,52.99479167,0,47,47,16,1,FBP-YG-17.png,0.37,1.2,17,0.5,,,,,,,,,,,,,,,,,,,,,,,,,,,,,,,,,,,,,,,,,,,,,
,,,,,V1_030,20,Male,2024-05-22_09h31.32.123,jersey_experiment_5_v1,2023.2.2,Win32,84.74576271,,,,,,,,,,,,,,,,216.5819,217.8759,217.8759,219.3819,return,0.0836,,68.75,0,48,48,22,1,FBP-YG-18.png,0.4,1.2,23,0.5,,,,,,,,,,,,,,,,,,,,,,,,,,,,,,,,,,,,,,,,,,,,,
,,,,,V1_030,20,Male,2024-05-22_09h31.32.123,jersey_experiment_5_v1,2023.2.2,Win32,84.74576271,,,,,,,,,,,,,,,,219.3821,220.6759,220.6759,221.7583,return,0.197,,85.41666667,0,49,49,59,1,FBP-RB-91.png,0.45,1.2,60,0.5,,,,,,,,,,,,,,,,,,,,,,,,,,,,,,,,,,,,,,,,,,,,,
,,,,,V1_030,20,Male,2024-05-22_09h31.32.123,jersey_experiment_5_v1,2023.2.2,Win32,84.74576271,,,,,,,,,,,,,,,,221.7586,223.0525,223.0525,224.2762,return,0.0847,,75,0,50,50,52,1,FBP-RB-81.png,0.4,1.2,53,0.5,,,,,,,,,,,,,,,,,,,,,,,,,,,,,,,,,,,,,,,,,,,,,
,,,,,V1_030,20,Male,2024-05-22_09h31.32.123,jersey_experiment_5_v1,2023.2.2,Win32,84.74576271,,,,,,,,,,,,,,,,224.2765,225.5703,225.5703,226.9467,return,0.1797,,65.36458333,0,51,51,26,1,FBP-YG-19.png,0.37,1.2,27,0.5,,,,,,,,,,,,,,,,,,,,,,,,,,,,,,,,,,,,,,,,,,,,,
,,,,,V1_030,20,Male,2024-05-22_09h31.32.123,jersey_experiment_5_v1,2023.2.2,Win32,84.74576271,,,,,,,,,,,,,,,,226.947,228.241,228.241,229.4882,return,0.1247,,41.53645833,0,52,52,50,1,FBP-RB-81.png,0.35,1.2,51,0.5,,,,,,,,,,,,,,,,,,,,,,,,,,,,,,,,,,,,,,,,,,,,,
,,,,,V1_030,20,Male,2024-05-22_09h31.32.123,jersey_experiment_5_v1,2023.2.2,Win32,84.74576271,,,,,,,,,,,,,,,,229.4885,231.2881,231.2881,232.194,return,0.052,,57.29166667,0,53,53,12,1,FBP-PT-91.png,0.4,1.2,13,1,,,,,,,,,,,,,,,,,,,,,,,,,,,,,,,,,,,,,,,,,,,,,
,,,,,V1_030,20,Male,2024-05-22_09h31.32.123,jersey_experiment_5_v1,2023.2.2,Win32,84.74576271,,,,,,,,,,,,,,,,232.1943,233.4881,233.4882,235.9823,return,0.1,,75,0,54,54,18,1,FBP-YG-17.png,0.43,1.2,19,0.5,,,,,,,,,,,,,,,,,,,,,,,,,,,,,,,,,,,,,,,,,,,,,
,,,,,V1_030,20,Male,2024-05-22_09h31.32.123,jersey_experiment_5_v1,2023.2.2,Win32,84.74576271,,,,,,,,,,,,,,,,235.9825,237.2765,237.2765,238.1943,return,0.1695,,82.55208333,0,55,55,23,1,FBP-YG-18.png,0.43,1.2,24,0.5,,,,,,,,,,,,,,,,,,,,,,,,,,,,,,,,,,,,,,,,,,,,,
,,,,,V1_030,20,Male,2024-05-22_09h31.32.123,jersey_experiment_5_v1,2023.2.2,Win32,84.74576271,,,,,,,,,,,,,,,,238.1946,239.4884,239.4884,240.8884,return,0.8916,,88.28125,0,56,56,28,1,FBP-YG-19.png,0.43,1.2,29,0.5,,,,,,,,,,,,,,,,,,,,,,,,,,,,,,,,,,,,,,,,,,,,,
,,,,,V1_030,20,Male,2024-05-22_09h31.32.123,jersey_experiment_5_v1,2023.2.2,Win32,84.74576271,,,,,,,,,,,,,,,,240.8886,242.1825,242.1827,243.265,return,0.5707,,95.3125,0,57,57,58,1,FBP-RB-91.png,0.43,1.2,59,0.5,,,,,,,,,,,,,,,,,,,,,,,,,,,,,,,,,,,,,,,,,,,,,
,,,,,V1_030,20,Male,2024-05-22_09h31.32.123,jersey_experiment_5_v1,2023.2.2,Win32,84.74576271,,,,,,,,,,,,,,,,243.2653,245.065,245.0651,245.665,return,0.053,,95.3125,0,58,58,13,1,FBP-PT-91.png,0.43,1.2,14,1,,,,,,,,,,,,,,,,,,,,,,,,,,,,,,,,,,,,,,,,,,,,,
,,,,,V1_030,20,Male,2024-05-22_09h31.32.123,jersey_experiment_5_v1,2023.2.2,Win32,84.74576271,,,,,,,,,,,,,,,,245.6653,246.9593,246.9593,247.8065,return,0.1969,,86.71875,0,59,59,33,1,FBP-OG-17.png,0.43,1.2,34,0.5,,,,,,,,,,,,,,,,,,,,,,,,,,,,,,,,,,,,,,,,,,,,,
,,,,,V1_030,20,Male,2024-05-22_09h31.32.123,jersey_experiment_5_v1,2023.2.2,Win32,84.74576271,,,,,,,,,,,,,,,,247.8083,249.6064,249.6065,252.4065,return,1.5886,,32.03125,,,,,,FBP-PT-19.png,0.35,1.2,11,1,0,0,0,10,1,,,,,,,,,,,,,,,,,,,,,,,,,,,,,,,,,,,,,,,,
,,,,,V1_030,20,Male,2024-05-22_09h31.32.123,jersey_experiment_5_v1,2023.2.2,Win32,84.74576271,,,,,,,,,,,,,,,,252.4069,253.7006,253.7006,254.783,return,0.1101,,40.234375,,,,,,FBP-YG-81.png,0.37,1.2,22,0.5,0,1,1,21,1,,,,,,,,,,,,,,,,,,,,,,,,,,,,,,,,,,,,,,,,
,,,,,V1_030,20,Male,2024-05-22_09h31.32.123,jersey_experiment_5_v1,2023.2.2,Win32,84.74576271,,,,,,,,,,,,,,,,254.7832,256.0771,256.0771,257.9714,return,0.1901,,24.34895833,,,,,,FBP-YG-71.png,0.37,1.2,17,0.5,0,2,2,16,1,,,,,,,,,,,,,,,,,,,,,,,,,,,,,,,,,,,,,,,,
,,,,,V1_030,20,Male,2024-05-22_09h31.32.123,jersey_experiment_5_v1,2023.2.2,Win32,84.74576271,,,,,,,,,,,,,,,,257.9716,259.2655,259.2656,261.4892,return,0.1233,,75,,,,,,FBP-OG-71.png,0.43,1.2,34,0.5,0,3,3,33,1,,,,,,,,,,,,,,,,,,,,,,,,,,,,,,,,,,,,,,,,
,,,,,V1_030,20,Male,2024-05-22_09h31.32.123,jersey_experiment_5_v1,2023.2.2,Win32,84.74576271,,,,,,,,,,,,,,,,261.4895,262.7832,262.7832,264.0069,return,0.2612,,44.79166667,,,,,,FBP-OG-91.png,0.37,1.2,42,0.5,0,4,4,41,1,,,,,,,,,,,,,,,,,,,,,,,,,,,,,,,,,,,,,,,,
,,,,,V1_030,20,Male,2024-05-22_09h31.32.123,jersey_experiment_5_v1,2023.2.2,Win32,84.74576271,,,,,,,,,,,,,,,,264.0072,265.301,265.301,267.4423,return,0.052,,65.625,,,,,,FBP-OG-91.png,0.4,1.2,43,0.5,0,5,5,42,1,,,,,,,,,,,,,,,,,,,,,,,,,,,,,,,,,,,,,,,,
,,,,,V1_030,20,Male,2024-05-22_09h31.32.123,jersey_experiment_5_v1,2023.2.2,Win32,84.74576271,,,,,,,,,,,,,,,,267.4427,269.2424,269.2425,270.2072,return,0.1119,,50.26041667,,,,,,FBP-PT-18.png,0.35,1.2,6,1,0,6,6,5,1,,,,,,,,,,,,,,,,,,,,,,,,,,,,,,,,,,,,,,,,
,,,,,V1_030,20,Male,2024-05-22_09h31.32.123,jersey_experiment_5_v1,2023.2.2,Win32,84.74576271,,,,,,,,,,,,,,,,270.2074,272.0072,272.0072,272.7838,return,0.1016,,55.72916667,,,,,,FBP-PT-17.png,0.4,1.2,3,1,0,7,7,2,1,,,,,,,,,,,,,,,,,,,,,,,,,,,,,,,,,,,,,,,,
,,,,,V1_030,20,Male,2024-05-22_09h31.32.123,jersey_experiment_5_v1,2023.2.2,Win32,84.74576271,,,,,,,,,,,,,,,,272.784,274.0778,274.0778,276.2779,return,0.648,,74.34895833,,,,,,FBP-RB-17.png,0.45,1.2,50,0.5,0,8,8,49,1,,,,,,,,,,,,,,,,,,,,,,,,,,,,,,,,,,,,,,,,
,,,,,V1_030,20,Male,2024-05-22_09h31.32.123,jersey_experiment_5_v1,2023.2.2,Win32,84.74576271,,,,,,,,,,,,,,,,276.2782,277.572,277.5721,278.9367,return,0.7784,,78.77604167,,,,,,FBP-YG-71.png,0.43,1.2,19,0.5,0,9,9,18,1,,,,,,,,,,,,,,,,,,,,,,,,,,,,,,,,,,,,,,,,
,,,,,V1_030,20,Male,2024-05-22_09h31.32.123,jersey_experiment_5_v1,2023.2.2,Win32,84.74576271,,,,,,,,,,,,,,,,278.9371,280.231,280.231,281.7135,return,0.4645,,89.453125,,,,,,FBP-YG-81.png,0.45,1.2,25,0.5,0,10,10,24,1,,,,,,,,,,,,,,,,,,,,,,,,,,,,,,,,,,,,,,,,
,,,,,V1_030,20,Male,2024-05-22_09h31.32.123,jersey_experiment_5_v1,2023.2.2,Win32,84.74576271,,,,,,,,,,,,,,,,281.7137,283.0076,283.0076,285.8429,return,1.004,,57.29166667,,,,,,FBP-RB-17.png,0.4,1.2,48,0.5,0,11,11,47,1,,,,,,,,,,,,,,,,,,,,,,,,,,,,,,,,,,,,,,,,
,,,,,V1_030,20,Male,2024-05-22_09h31.32.123,jersey_experiment_5_v1,2023.2.2,Win32,84.74576271,,,,,,,,,,,,,,,,285.8433,287.1372,287.1372,289.8785,return,1.718,,90.10416667,,,,,,FBP-YG-81.png,0.43,1.2,24,0.5,0,12,12,23,1,,,,,,,,,,,,,,,,,,,,,,,,,,,,,,,,,,,,,,,,
,,,,,V1_030,20,Male,2024-05-22_09h31.32.123,jersey_experiment_5_v1,2023.2.2,Win32,84.74576271,,,,,,,,,,,,,,,,289.8787,291.1725,291.1726,293.1844,return,0.1948,,72.65625,,,,,,FBP-OG-81.png,0.4,1.2,38,0.5,0,13,13,37,1,,,,,,,,,,,,,,,,,,,,,,,,,,,,,,,,,,,,,,,,
,,,,,V1_030,20,Male,2024-05-22_09h31.32.123,jersey_experiment_5_v1,2023.2.2,Win32,84.74576271,,,,,,,,,,,,,,,,293.1847,294.9846,294.9847,295.5021,return,0.1233,,80.72916667,,,,,,FBP-PT-17.png,0.43,1.2,4,1,0,14,14,3,1,,,,,,,,,,,,,,,,,,,,,,,,,,,,,,,,,,,,,,,,
,,,,,V1_030,20,Male,2024-05-22_09h31.32.123,jersey_experiment_5_v1,2023.2.2,Win32,84.74576271,,,,,,,,,,,,,,,,295.5023,296.7963,296.7964,298.6316,return,0.128,,99.73958333,,,,,,FBP-YG-71.png,0.45,1.2,20,0.5,0,15,15,19,1,,,,,,,,,,,,,,,,,,,,,,,,,,,,,,,,,,,,,,,,
,,,,,V1_030,20,Male,2024-05-22_09h31.32.123,jersey_experiment_5_v1,2023.2.2,Win32,84.74576271,,,,,,,,,,,,,,,,298.6318,299.9259,299.9259,302.526,return,0.7265,,7.682291667,,,,,,FBP-YG-81.png,0.35,1.2,21,0.5,0,16,16,20,1,,,,,,,,,,,,,,,,,,,,,,,,,,,,,,,,,,,,,,,,
,,,,,V1_030,20,Male,2024-05-22_09h31.32.123,jersey_experiment_5_v1,2023.2.2,Win32,84.74576271,,,,,,,,,,,,,,,,302.5263,303.8201,303.8201,305.0789,return,0.0793,,5.208333333,,,,,,FBP-RB-19.png,0.35,1.2,56,0.5,0,17,17,55,1,,,,,,,,,,,,,,,,,,,,,,,,,,,,,,,,,,,,,,,,
,,,,,V1_030,20,Male,2024-05-22_09h31.32.123,jersey_experiment_5_v1,2023.2.2,Win32,84.74576271,,,,,,,,,,,,,,,,305.0792,306.3731,306.3731,307.3143,return,0.2987,,11.45833333,,,,,,FBP-OG-81.png,0.37,1.2,37,0.5,0,18,18,36,1,,,,,,,,,,,,,,,,,,,,,,,,,,,,,,,,,,,,,,,,
,,,,,V1_030,20,Male,2024-05-22_09h31.32.123,jersey_experiment_5_v1,2023.2.2,Win32,84.74576271,,,,,,,,,,,,,,,,307.3146,308.6084,308.6085,311.8086,return,1.0619,,38.93229167,,,,,,FBP-YG-81.png,0.4,1.2,23,0.5,0,19,19,22,1,,,,,,,,,,,,,,,,,,,,,,,,,,,,,,,,,,,,,,,,
,,,,,V1_030,20,Male,2024-05-22_09h31.32.123,jersey_experiment_5_v1,2023.2.2,Win32,84.74576271,,,,,,,,,,,,,,,,311.809,313.1028,313.1028,314.4676,return,0.1325,,74.47916667,,,,,,FBP-OG-91.png,0.45,1.2,45,0.5,0,20,20,44,1,,,,,,,,,,,,,,,,,,,,,,,,,,,,,,,,,,,,,,,,
,,,,,V1_030,20,Male,2024-05-22_09h31.32.123,jersey_experiment_5_v1,2023.2.2,Win32,84.74576271,,,,,,,,,,,,,,,,314.4678,315.7617,315.7617,316.6911,return,0.1301,,89.84375,,,,,,FBP-OG-81.png,0.43,1.2,39,0.5,0,21,21,38,1,,,,,,,,,,,,,,,,,,,,,,,,,,,,,,,,,,,,,,,,
,,,,,V1_030,20,Male,2024-05-22_09h31.32.123,jersey_experiment_5_v1,2023.2.2,Win32,84.74576271,,,,,,,,,,,,,,,,316.6913,317.9853,317.9853,318.7267,return,0.0703,,95.96354167,,,,,,FBP-OG-81.png,0.45,1.2,40,0.5,0,22,22,39,1,,,,,,,,,,,,,,,,,,,,,,,,,,,,,,,,,,,,,,,,
,,,,,V1_030,20,Male,2024-05-22_09h31.32.123,jersey_experiment_5_v1,2023.2.2,Win32,84.74576271,,,,,,,,,,,,,,,,318.7269,320.5268,320.5269,321.6092,return,0.0909,,46.74479167,,,,,,FBP-PT-18.png,0.37,1.2,7,1,0,23,23,6,1,,,,,,,,,,,,,,,,,,,,,,,,,,,,,,,,,,,,,,,,
,,,,,V1_030,20,Male,2024-05-22_09h31.32.123,jersey_experiment_5_v1,2023.2.2,Win32,84.74576271,,,,,,,,,,,,,,,,321.6095,322.9033,322.9033,324.1269,return,0.111,,24.609375,,,,,,FBP-OG-81.png,0.35,1.2,36,0.5,0,24,24,35,1,,,,,,,,,,,,,,,,,,,,,,,,,,,,,,,,,,,,,,,,
,,,,,V1_030,20,Male,2024-05-22_09h31.32.123,jersey_experiment_5_v1,2023.2.2,Win32,84.74576271,,,,,,,,,,,,,,,,324.1272,325.9269,325.927,326.8327,return,0.1199,,34.89583333,,,,,,FBP-PT-17.png,0.35,1.2,1,1,0,25,25,0,1,,,,,,,,,,,,,,,,,,,,,,,,,,,,,,,,,,,,,,,,
,,,,,V1_030,20,Male,2024-05-22_09h31.32.123,jersey_experiment_5_v1,2023.2.2,Win32,84.74576271,,,,,,,,,,,,,,,,326.833,328.127,328.127,329.0563,return,0.2033,,25.65104167,,,,,,FBP-YG-91.png,0.35,1.2,26,0.5,0,26,26,25,1,,,,,,,,,,,,,,,,,,,,,,,,,,,,,,,,,,,,,,,,
,,,,,V1_030,20,Male,2024-05-22_09h31.32.123,jersey_experiment_5_v1,2023.2.2,Win32,84.74576271,,,,,,,,,,,,,,,,329.0565,330.8564,330.8564,331.927,return,0.1294,,60.80729167,,,,,,FBP-PT-18.png,0.43,1.2,9,1,0,27,27,8,1,,,,,,,,,,,,,,,,,,,,,,,,,,,,,,,,,,,,,,,,
,,,,,V1_030,20,Male,2024-05-22_09h31.32.123,jersey_experiment_5_v1,2023.2.2,Win32,84.74576271,,,,,,,,,,,,,,,,331.9274,333.2211,333.2211,334.6566,return,0.0766,,56.25,,,,,,FBP-RB-19.png,0.43,1.2,59,0.5,0,28,28,58,1,,,,,,,,,,,,,,,,,,,,,,,,,,,,,,,,,,,,,,,,
,,,,,V1_030,20,Male,2024-05-22_09h31.32.123,jersey_experiment_5_v1,2023.2.2,Win32,84.74576271,,,,,,,,,,,,,,,,334.6568,335.9506,335.9507,336.6449,return,0.0458,,49.86979167,,,,,,FBP-RB-18.png,0.4,1.2,53,0.5,0,29,29,52,1,,,,,,,,,,,,,,,,,,,,,,,,,,,,,,,,,,,,,,,,
,,,,,V1_030,20,Male,2024-05-22_09h31.32.123,jersey_experiment_5_v1,2023.2.2,Win32,84.74576271,,,,,,,,,,,,,,,,336.6452,338.4451,338.4451,339.1508,return,0.1138,,59.89583333,,,,,,FBP-PT-17.png,0.45,1.2,5,1,0,30,30,4,1,,,,,,,,,,,,,,,,,,,,,,,,,,,,,,,,,,,,,,,,
,,,,,V1_030,20,Male,2024-05-22_09h31.32.123,jersey_experiment_5_v1,2023.2.2,Win32,84.74576271,,,,,,,,,,,,,,,,339.1511,340.445,340.445,341.5978,return,0.0912,,50.13020833,,,,,,FBP-OG-71.png,0.4,1.2,33,0.5,0,31,31,32,1,,,,,,,,,,,,,,,,,,,,,,,,,,,,,,,,,,,,,,,,
,,,,,V1_030,20,Male,2024-05-22_09h31.32.123,jersey_experiment_5_v1,2023.2.2,Win32,84.74576271,,,,,,,,,,,,,,,,341.5981,342.8921,342.8922,344.3746,return,0.059,,55.078125,,,,,,FBP-YG-71.png,0.4,1.2,18,0.5,0,32,32,17,1,,,,,,,,,,,,,,,,,,,,,,,,,,,,,,,,,,,,,,,,
,,,,,V1_030,20,Male,2024-05-22_09h31.32.123,jersey_experiment_5_v1,2023.2.2,Win32,84.74576271,,,,,,,,,,,,,,,,344.3748,346.1745,346.1745,347.1982,return,0.2673,,57.29166667,,,,,,FBP-PT-18.png,0.4,1.2,8,1,0,33,33,7,1,,,,,,,,,,,,,,,,,,,,,,,,,,,,,,,,,,,,,,,,
,,,,,V1_030,20,Male,2024-05-22_09h31.32.123,jersey_experiment_5_v1,2023.2.2,Win32,84.74576271,,,,,,,,,,,,,,,,347.1984,348.4924,348.4924,349.8453,return,0.6604,,62.890625,,,,,,FBP-YG-91.png,0.43,1.2,29,0.5,0,34,34,28,1,,,,,,,,,,,,,,,,,,,,,,,,,,,,,,,,,,,,,,,,
,,,,,V1_030,20,Male,2024-05-22_09h31.32.123,jersey_experiment_5_v1,2023.2.2,Win32,84.74576271,,,,,,,,,,,,,,,,349.8455,351.1394,351.1396,352.4572,return,0.1314,,38.671875,,,,,,FBP-OG-91.png,0.35,1.2,41,0.5,0,35,35,40,1,,,,,,,,,,,,,,,,,,,,,,,,,,,,,,,,,,,,,,,,
,,,,,V1_030,20,Male,2024-05-22_09h31.32.123,jersey_experiment_5_v1,2023.2.2,Win32,84.74576271,,,,,,,,,,,,,,,,352.4574,353.7512,353.7513,354.916,return,0.1556,,62.63020833,,,,,,FBP-RB-18.png,0.43,1.2,54,0.5,0,36,36,53,1,,,,,,,,,,,,,,,,,,,,,,,,,,,,,,,,,,,,,,,,
,,,,,V1_030,20,Male,2024-05-22_09h31.32.123,jersey_experiment_5_v1,2023.2.2,Win32,84.74576271,,,,,,,,,,,,,,,,354.9163,356.7162,356.7162,358.3984,return,0.1238,,31.38020833,,,,,,FBP-PT-19.png,0.37,1.2,12,1,0,37,37,11,1,,,,,,,,,,,,,,,,,,,,,,,,,,,,,,,,,,,,,,,,
,,,,,V1_030,20,Male,2024-05-22_09h31.32.123,jersey_experiment_5_v1,2023.2.2,Win32,84.74576271,,,,,,,,,,,,,,,,358.3987,359.6928,359.6928,360.8458,return,0.1266,,25.13020833,,,,,,FBP-RB-17.png,0.35,1.2,46,0.5,0,38,38,45,1,,,,,,,,,,,,,,,,,,,,,,,,,,,,,,,,,,,,,,,,
,,,,,V1_030,20,Male,2024-05-22_09h31.32.123,jersey_experiment_5_v1,2023.2.2,Win32,84.74576271,,,,,,,,,,,,,,,,360.846,362.1398,362.1399,363.6225,return,0.0827,,25.13020833,,,,,,FBP-RB-18.png,0.37,1.2,52,0.5,0,39,39,51,1,,,,,,,,,,,,,,,,,,,,,,,,,,,,,,,,,,,,,,,,
,,,,,V1_030,20,Male,2024-05-22_09h31.32.123,jersey_experiment_5_v1,2023.2.2,Win32,84.74576271,,,,,,,,,,,,,,,,363.6226,364.9165,364.9165,367.9048,return,1.5941,,50.13020833,,,,,,FBP-YG-91.png,0.4,1.2,28,0.5,0,40,40,27,1,,,,,,,,,,,,,,,,,,,,,,,,,,,,,,,,,,,,,,,,
,,,,,V1_030,20,Male,2024-05-22_09h31.32.123,jersey_experiment_5_v1,2023.2.2,Win32,84.74576271,,,,,,,,,,,,,,,,367.905,369.1989,369.1989,369.952,return,0.217,,42.96875,,,,,,FBP-RB-17.png,0.37,1.2,47,0.5,0,41,41,46,1,,,,,,,,,,,,,,,,,,,,,,,,,,,,,,,,,,,,,,,,
,,,,,V1_030,20,Male,2024-05-22_09h31.32.123,jersey_experiment_5_v1,2023.2.2,Win32,84.74576271,,,,,,,,,,,,,,,,369.9522,371.752,371.752,373.5522,return,0.1126,,64.19270833,,,,,,FBP-PT-19.png,0.4,1.2,13,1,0,42,42,12,1,,,,,,,,,,,,,,,,,,,,,,,,,,,,,,,,,,,,,,,,
,,,,,V1_030,20,Male,2024-05-22_09h31.32.123,jersey_experiment_5_v1,2023.2.2,Win32,84.74576271,,,,,,,,,,,,,,,,373.5524,374.8461,374.8461,376.1992,return,0.1879,,62.63020833,,,,,,FBP-RB-19.png,0.37,1.2,57,0.5,0,43,43,56,1,,,,,,,,,,,,,,,,,,,,,,,,,,,,,,,,,,,,,,,,
,,,,,V1_030,20,Male,2024-05-22_09h31.32.123,jersey_experiment_5_v1,2023.2.2,Win32,84.74576271,,,,,,,,,,,,,,,,376.1995,377.4933,377.4934,378.4698,return,0.1638,,64.84375,,,,,,FBP-RB-17.png,0.43,1.2,49,0.5,0,44,44,48,1,,,,,,,,,,,,,,,,,,,,,,,,,,,,,,,,,,,,,,,,
,,,,,V1_030,20,Male,2024-05-22_09h31.32.123,jersey_experiment_5_v1,2023.2.2,Win32,84.74576271,,,,,,,,,,,,,,,,378.47,379.7639,379.764,380.7405,return,0.0861,,83.984375,,,,,,FBP-YG-91.png,0.45,1.2,30,0.5,0,45,45,29,1,,,,,,,,,,,,,,,,,,,,,,,,,,,,,,,,,,,,,,,,
,,,,,V1_030,20,Male,2024-05-22_09h31.32.123,jersey_experiment_5_v1,2023.2.2,Win32,84.74576271,,,,,,,,,,,,,,,,380.7408,382.5406,382.5406,383.2348,return,0.0745,,85.28645833,,,,,,FBP-PT-19.png,0.43,1.2,14,1,0,46,46,13,1,,,,,,,,,,,,,,,,,,,,,,,,,,,,,,,,,,,,,,,,
,,,,,V1_030,20,Male,2024-05-22_09h31.32.123,jersey_experiment_5_v1,2023.2.2,Win32,84.74576271,,,,,,,,,,,,,,,,383.2352,384.529,384.529,385.9054,return,0.1464,,68.22916667,,,,,,FBP-RB-19.png,0.4,1.2,58,0.5,0,47,47,57,1,,,,,,,,,,,,,,,,,,,,,,,,,,,,,,,,,,,,,,,,
,,,,,V1_030,20,Male,2024-05-22_09h31.32.123,jersey_experiment_5_v1,2023.2.2,Win32,84.74576271,,,,,,,,,,,,,,,,385.9057,387.1996,387.1996,388.6704,return,0.0554,,40.625,,,,,,FBP-OG-71.png,0.35,1.2,31,0.5,0,48,48,30,1,,,,,,,,,,,,,,,,,,,,,,,,,,,,,,,,,,,,,,,,
,,,,,V1_030,20,Male,2024-05-22_09h31.32.123,jersey_experiment_5_v1,2023.2.2,Win32,84.74576271,,,,,,,,,,,,,,,,388.6706,389.9644,389.9644,392.3409,return,1.7403,,63.15104167,,,,,,FBP-OG-71.png,0.37,1.2,32,0.5,0,49,49,31,1,,,,,,,,,,,,,,,,,,,,,,,,,,,,,,,,,,,,,,,,
,,,,,V1_030,20,Male,2024-05-22_09h31.32.123,jersey_experiment_5_v1,2023.2.2,Win32,84.74576271,,,,,,,,,,,,,,,,392.3411,393.6351,393.6352,395.7292,return,1.1465,,15.88541667,,,,,,FBP-RB-18.png,0.35,1.2,51,0.5,0,50,50,50,1,,,,,,,,,,,,,,,,,,,,,,,,,,,,,,,,,,,,,,,,
,,,,,V1_030,20,Male,2024-05-22_09h31.32.123,jersey_experiment_5_v1,2023.2.2,Win32,84.74576271,,,,,,,,,,,,,,,,395.7295,397.5293,397.5293,398.5531,return,0.0945,,77.86458333,,,,,,FBP-PT-19.png,0.45,1.2,15,1,0,51,51,14,1,,,,,,,,,,,,,,,,,,,,,,,,,,,,,,,,,,,,,,,,
,,,,,V1_030,20,Male,2024-05-22_09h31.32.123,jersey_experiment_5_v1,2023.2.2,Win32,84.74576271,,,,,,,,,,,,,,,,398.5533,399.8471,399.8472,401.2472,return,0.09,,60.546875,,,,,,FBP-YG-91.png,0.37,1.2,27,0.5,0,52,52,26,1,,,,,,,,,,,,,,,,,,,,,,,,,,,,,,,,,,,,,,,,
,,,,,V1_030,20,Male,2024-05-22_09h31.32.123,jersey_experiment_5_v1,2023.2.2,Win32,84.74576271,,,,,,,,,,,,,,,,401.2475,402.5412,402.5413,403.7299,return,0.1248,,64.453125,,,,,,FBP-OG-91.png,0.43,1.2,44,0.5,0,53,53,43,1,,,,,,,,,,,,,,,,,,,,,,,,,,,,,,,,,,,,,,,,
,,,,,V1_030,20,Male,2024-05-22_09h31.32.123,jersey_experiment_5_v1,2023.2.2,Win32,84.74576271,,,,,,,,,,,,,,,,403.7301,405.0238,405.0239,406.377,return,0.1786,,34.63541667,,,,,,FBP-YG-71.png,0.35,1.2,16,0.5,0,54,54,15,1,,,,,,,,,,,,,,,,,,,,,,,,,,,,,,,,,,,,,,,,
,,,,,V1_030,20,Male,2024-05-22_09h31.32.123,jersey_experiment_5_v1,2023.2.2,Win32,84.74576271,,,,,,,,,,,,,,,,406.3771,408.177,408.1771,409.2357,return,0.1679,,17.44791667,,,,,,FBP-PT-17.png,0.37,1.2,2,1,0,55,55,1,1,,,,,,,,,,,,,,,,,,,,,,,,,,,,,,,,,,,,,,,,
,,,,,V1_030,20,Male,2024-05-22_09h31.32.123,jersey_experiment_5_v1,2023.2.2,Win32,84.74576271,,,,,,,,,,,,,,,,409.2359,411.0359,411.0359,412.1652,return,0.1912,,66.015625,,,,,,FBP-PT-18.png,0.45,1.2,10,1,0,56,56,9,1,,,,,,,,,,,,,,,,,,,,,,,,,,,,,,,,,,,,,,,,
,,,,,V1_030,20,Male,2024-05-22_09h31.32.123,jersey_experiment_5_v1,2023.2.2,Win32,84.74576271,,,,,,,,,,,,,,,,412.1655,413.4594,413.4594,414.6122,return,0.1083,,67.05729167,,,,,,FBP-OG-71.png,0.45,1.2,35,0.5,0,57,57,34,1,,,,,,,,,,,,,,,,,,,,,,,,,,,,,,,,,,,,,,,,
,,,,,V1_030,20,Male,2024-05-22_09h31.32.123,jersey_experiment_5_v1,2023.2.2,Win32,84.74576271,,,,,,,,,,,,,,,,414.6125,415.9065,415.9065,418.1184,return,0.0359,,67.44791667,,,,,,FBP-RB-18.png,0.45,1.2,55,0.5,0,58,58,54,1,,,,,,,,,,,,,,,,,,,,,,,,,,,,,,,,,,,,,,,,
,,,,,V1_030,20,Male,2024-05-22_09h31.32.123,jersey_experiment_5_v1,2023.2.2,Win32,84.74576271,,,,,,,,,,,,,,,,418.1186,419.4125,419.4125,420.4363,return,0.134,,79.296875,,,,,,FBP-RB-19.png,0.45,1.2,60,0.5,0,59,59,59,1,,,,,,,,,,,,,,,,,,,,,,,,,,,,,,,,,,,,,,,,
,,,,,V1_030,20,Male,2024-05-22_09h31.32.123,jersey_experiment_5_v1,2023.2.2,Win32,84.74576271,,,,,,,,,,,,,,,,,,,,,,,,,,,,,,,,,,,,,,,420.4366,540.4408,,,,,,,,,,,,,,,,,,,,,,,,,,,,,,,,,,,,,,
,,,,,V1_030,20,Male,2024-05-22_09h31.32.123,jersey_experiment_5_v1,2023.2.2,Win32,84.74576271,,,,,,,,,,,,,,,,,,,,,,,,,,,,,,,,,,,,,,,,,540.4408,584.9013,return,44.4495,,,,,,,,,,,,,,,,,,,,,,,,,,,,,,,,,,
,,,,,V1_030,20,Male,2024-05-22_09h31.32.123,jersey_experiment_5_v1,2023.2.2,Win32,84.74576271,,,,,,,,,,,,,,,,584.9085,586.7011,586.7011,588.9011,return,0.6373,,41.40625,,,,,,FBP-RB-71.png,0.35,1.2,46,1,,,,,,,,,,,,,0,0,0,45,1,,,,,,,,,,,,,,,,,,,,,,,,,,,,
,,,,,V1_030,20,Male,2024-05-22_09h31.32.123,jersey_experiment_5_v1,2023.2.2,Win32,84.74576271,,,,,,,,,,,,,,,,588.9013,590.7011,590.7011,591.5835,return,0.0542,,50.52083333,,,,,,FBP-RB-91.png,0.35,1.2,56,1,,,,,,,,,,,,,0,1,1,55,1,,,,,,,,,,,,,,,,,,,,,,,,,,,,
,,,,,V1_030,20,Male,2024-05-22_09h31.32.123,jersey_experiment_5_v1,2023.2.2,Win32,84.74576271,,,,,,,,,,,,,,,,591.5837,593.3835,593.3835,594.56,return,0.1476,,52.734375,,,,,,FBP-RB-91.png,0.37,1.2,57,1,,,,,,,,,,,,,0,2,2,56,1,,,,,,,,,,,,,,,,,,,,,,,,,,,,
,,,,,V1_030,20,Male,2024-05-22_09h31.32.123,jersey_experiment_5_v1,2023.2.2,Win32,84.74576271,,,,,,,,,,,,,,,,594.5602,595.8542,595.8542,596.56,return,0.1555,,43.09895833,,,,,,FBP-PT-81.png,0.37,1.2,7,0.5,,,,,,,,,,,,,0,3,3,6,1,,,,,,,,,,,,,,,,,,,,,,,,,,,,
,,,,,V1_030,20,Male,2024-05-22_09h31.32.123,jersey_experiment_5_v1,2023.2.2,Win32,84.74576271,,,,,,,,,,,,,,,,596.5602,598.3602,598.3602,599.2073,return,0.272,,64.71354167,,,,,,FBP-OG-17.png,0.4,1.2,33,1,,,,,,,,,,,,,0,4,4,32,1,,,,,,,,,,,,,,,,,,,,,,,,,,,,
,,,,,V1_030,20,Male,2024-05-22_09h31.32.123,jersey_experiment_5_v1,2023.2.2,Win32,84.74576271,,,,,,,,,,,,,,,,599.2075,601.0073,601.0073,601.4779,return,0.1064,,66.66666667,,,,,,FBP-YG-18.png,0.4,1.2,23,1,,,,,,,,,,,,,0,5,5,22,1,,,,,,,,,,,,,,,,,,,,,,,,,,,,
,,,,,V1_030,20,Male,2024-05-22_09h31.32.123,jersey_experiment_5_v1,2023.2.2,Win32,84.74576271,,,,,,,,,,,,,,,,601.4782,602.772,602.772,604.4192,return,0.1083,,56.11979167,,,,,,FBP-PT-91.png,0.37,1.2,12,0.5,,,,,,,,,,,,,0,6,6,11,1,,,,,,,,,,,,,,,,,,,,,,,,,,,,
,,,,,V1_030,20,Male,2024-05-22_09h31.32.123,jersey_experiment_5_v1,2023.2.2,Win32,84.74576271,,,,,,,,,,,,,,,,604.4195,606.2194,606.2195,606.7839,return,0.1241,,66.796875,,,,,,FBP-RB-81.png,0.4,1.2,53,1,,,,,,,,,,,,,0,7,7,52,1,,,,,,,,,,,,,,,,,,,,,,,,,,,,
,,,,,V1_030,20,Male,2024-05-22_09h31.32.123,jersey_experiment_5_v1,2023.2.2,Win32,84.74576271,,,,,,,,,,,,,,,,606.7841,608.5842,608.5842,609.8077,return,0.619,,34.11458333,,,,,,FBP-YG-19.png,0.35,1.2,26,1,,,,,,,,,,,,,0,8,8,25,1,,,,,,,,,,,,,,,,,,,,,,,,,,,,
,,,,,V1_030,20,Male,2024-05-22_09h31.32.123,jersey_experiment_5_v1,2023.2.2,Win32,84.74576271,,,,,,,,,,,,,,,,609.8079,611.6078,611.6078,612.2901,return,0.0866,,75,,,,,,FBP-RB-71.png,0.43,1.2,49,1,,,,,,,,,,,,,0,9,9,48,1,,,,,,,,,,,,,,,,,,,,,,,,,,,,
,,,,,V1_030,20,Male,2024-05-22_09h31.32.123,jersey_experiment_5_v1,2023.2.2,Win32,84.74576271,,,,,,,,,,,,,,,,612.2903,614.0903,614.0903,615.6785,return,0.4435,,24.609375,,,,,,FBP-RB-81.png,0.35,1.2,51,1,,,,,,,,,,,,,0,10,10,50,1,,,,,,,,,,,,,,,,,,,,,,,,,,,,
,,,,,V1_030,20,Male,2024-05-22_09h31.32.123,jersey_experiment_5_v1,2023.2.2,Win32,84.74576271,,,,,,,,,,,,,,,,615.6788,617.4784,617.4785,618.1609,return,0.0985,,80.98958333,,,,,,FBP-OG-18.png,0.45,1.2,40,1,,,,,,,,,,,,,0,11,11,39,1,,,,,,,,,,,,,,,,,,,,,,,,,,,,
,,,,,V1_030,20,Male,2024-05-22_09h31.32.123,jersey_experiment_5_v1,2023.2.2,Win32,84.74576271,,,,,,,,,,,,,,,,618.1611,619.4551,619.4551,620.6315,return,0.0726,,24.86979167,,,,,,FBP-PT-91.png,0.35,1.2,11,0.5,,,,,,,,,,,,,0,12,12,10,1,,,,,,,,,,,,,,,,,,,,,,,,,,,,
,,,,,V1_030,20,Male,2024-05-22_09h31.32.123,jersey_experiment_5_v1,2023.2.2,Win32,84.74576271,,,,,,,,,,,,,,,,620.6318,622.4318,622.4318,623.8317,return,0.659,,83.984375,,,,,,FBP-RB-81.png,0.45,1.2,55,1,,,,,,,,,,,,,0,13,13,54,1,,,,,,,,,,,,,,,,,,,,,,,,,,,,
,,,,,V1_030,20,Male,2024-05-22_09h31.32.123,jersey_experiment_5_v1,2023.2.2,Win32,84.74576271,,,,,,,,,,,,,,,,623.8319,625.1258,625.1258,627.1847,return,1.0985,,50.52083333,,,,,,FBP-PT-81.png,0.35,1.2,6,0.5,,,,,,,,,,,,,0,14,14,5,1,,,,,,,,,,,,,,,,,,,,,,,,,,,,
,,,,,V1_030,20,Male,2024-05-22_09h31.32.123,jersey_experiment_5_v1,2023.2.2,Win32,84.74576271,,,,,,,,,,,,,,,,627.185,628.9848,628.9848,630.4553,return,0.7765,,43.22916667,,,,,,FBP-YG-18.png,0.35,1.2,21,1,,,,,,,,,,,,,0,15,15,20,1,,,,,,,,,,,,,,,,,,,,,,,,,,,,
,,,,,V1_030,20,Male,2024-05-22_09h31.32.123,jersey_experiment_5_v1,2023.2.2,Win32,84.74576271,,,,,,,,,,,,,,,,630.4556,631.7495,631.7495,633.7144,return,0.0275,,67.31770833,,,,,,FBP-PT-81.png,0.4,1.2,8,0.5,,,,,,,,,,,,,0,16,16,7,1,,,,,,,,,,,,,,,,,,,,,,,,,,,,
,,,,,V1_030,20,Male,2024-05-22_09h31.32.123,jersey_experiment_5_v1,2023.2.2,Win32,84.74576271,,,,,,,,,,,,,,,,633.7146,635.5147,635.5147,636.8675,return,0.8029,,34.89583333,,,,,,FBP-OG-17.png,0.35,1.2,31,1,,,,,,,,,,,,,0,17,17,30,1,,,,,,,,,,,,,,,,,,,,,,,,,,,,
,,,,,V1_030,20,Male,2024-05-22_09h31.32.123,jersey_experiment_5_v1,2023.2.2,Win32,84.74576271,,,,,,,,,,,,,,,,636.8677,638.1616,638.1616,639.1498,return,0.1015,,83.203125,,,,,,FBP-PT-71.png,0.45,1.2,5,0.5,,,,,,,,,,,,,0,18,18,4,1,,,,,,,,,,,,,,,,,,,,,,,,,,,,
,,,,,V1_030,20,Male,2024-05-22_09h31.32.123,jersey_experiment_5_v1,2023.2.2,Win32,84.74576271,,,,,,,,,,,,,,,,639.1502,640.9499,640.9499,641.8087,return,0.041,,75.390625,,,,,,FBP-OG-19.png,0.43,1.2,44,1,,,,,,,,,,,,,0,19,19,43,1,,,,,,,,,,,,,,,,,,,,,,,,,,,,
,,,,,V1_030,20,Male,2024-05-22_09h31.32.123,jersey_experiment_5_v1,2023.2.2,Win32,84.74576271,,,,,,,,,,,,,,,,641.809,643.609,643.609,646.1148,return,1.6157,,37.5,,,,,,FBP-YG-17.png,0.35,1.2,16,1,,,,,,,,,,,,,0,20,20,15,1,,,,,,,,,,,,,,,,,,,,,,,,,,,,
,,,,,V1_030,20,Male,2024-05-22_09h31.32.123,jersey_experiment_5_v1,2023.2.2,Win32,84.74576271,,,,,,,,,,,,,,,,646.115,647.915,647.915,648.8327,return,0.4648,,81.90104167,,,,,,FBP-RB-91.png,0.45,1.2,60,1,,,,,,,,,,,,,0,21,21,59,1,,,,,,,,,,,,,,,,,,,,,,,,,,,,
,,,,,V1_030,20,Male,2024-05-22_09h31.32.123,jersey_experiment_5_v1,2023.2.2,Win32,84.74576271,,,,,,,,,,,,,,,,648.8329,650.1267,650.1267,652.5151,return,0.1798,,58.59375,,,,,,FBP-PT-71.png,0.4,1.2,3,0.5,,,,,,,,,,,,,0,22,22,2,1,,,,,,,,,,,,,,,,,,,,,,,,,,,,
,,,,,V1_030,20,Male,2024-05-22_09h31.32.123,jersey_experiment_5_v1,2023.2.2,Win32,84.74576271,,,,,,,,,,,,,,,,652.5152,654.3153,654.3153,655.4328,return,0.6325,,78.515625,,,,,,FBP-YG-18.png,0.43,1.2,24,1,,,,,,,,,,,,,0,23,23,23,1,,,,,,,,,,,,,,,,,,,,,,,,,,,,
,,,,,V1_030,20,Male,2024-05-22_09h31.32.123,jersey_experiment_5_v1,2023.2.2,Win32,84.74576271,,,,,,,,,,,,,,,,655.433,657.2329,657.2329,657.9975,return,0.0792,,71.74479167,,,,,,FBP-YG-19.png,0.4,1.2,28,1,,,,,,,,,,,,,0,24,24,27,1,,,,,,,,,,,,,,,,,,,,,,,,,,,,
,,,,,V1_030,20,Male,2024-05-22_09h31.32.123,jersey_experiment_5_v1,2023.2.2,Win32,84.74576271,,,,,,,,,,,,,,,,657.9978,659.2917,659.2917,660.7272,return,0.8835,,81.640625,,,,,,FBP-PT-81.png,0.43,1.2,9,0.5,,,,,,,,,,,,,0,25,25,8,1,,,,,,,,,,,,,,,,,,,,,,,,,,,,
,,,,,V1_030,20,Male,2024-05-22_09h31.32.123,jersey_experiment_5_v1,2023.2.2,Win32,84.74576271,,,,,,,,,,,,,,,,660.7275,662.0212,662.0213,663.7037,return,0.1647,,50.13020833,,,,,,FBP-PT-71.png,0.35,1.2,1,0.5,,,,,,,,,,,,,0,26,26,0,1,,,,,,,,,,,,,,,,,,,,,,,,,,,,
,,,,,V1_030,20,Male,2024-05-22_09h31.32.123,jersey_experiment_5_v1,2023.2.2,Win32,84.74576271,,,,,,,,,,,,,,,,663.7039,665.5039,665.5039,666.1508,return,0.1544,,79.42708333,,,,,,FBP-YG-19.png,0.43,1.2,29,1,,,,,,,,,,,,,0,27,27,28,1,,,,,,,,,,,,,,,,,,,,,,,,,,,,
,,,,,V1_030,20,Male,2024-05-22_09h31.32.123,jersey_experiment_5_v1,2023.2.2,Win32,84.74576271,,,,,,,,,,,,,,,,666.1511,667.4449,667.445,668.3275,return,0.0925,,70.05208333,,,,,,FBP-PT-91.png,0.4,1.2,13,0.5,,,,,,,,,,,,,0,28,28,12,1,,,,,,,,,,,,,,,,,,,,,,,,,,,,
,,,,,V1_030,20,Male,2024-05-22_09h31.32.123,jersey_experiment_5_v1,2023.2.2,Win32,84.74576271,,,,,,,,,,,,,,,,668.3277,670.1275,670.1275,671.2687,return,0.0957,,63.80208333,,,,,,FBP-RB-71.png,0.4,1.2,48,1,,,,,,,,,,,,,0,29,29,47,1,,,,,,,,,,,,,,,,,,,,,,,,,,,,
,,,,,V1_030,20,Male,2024-05-22_09h31.32.123,jersey_experiment_5_v1,2023.2.2,Win32,84.74576271,,,,,,,,,,,,,,,,671.2689,673.0688,673.0688,674.3396,return,0.1443,,49.21875,,,,,,FBP-YG-19.png,0.37,1.2,27,1,,,,,,,,,,,,,0,30,30,26,1,,,,,,,,,,,,,,,,,,,,,,,,,,,,
,,,,,V1_030,20,Male,2024-05-22_09h31.32.123,jersey_experiment_5_v1,2023.2.2,Win32,84.74576271,,,,,,,,,,,,,,,,674.3398,676.1394,676.1394,676.9278,return,0.1597,,88.93229167,,,,,,FBP-YG-18.png,0.45,1.2,25,1,,,,,,,,,,,,,0,31,31,24,1,,,,,,,,,,,,,,,,,,,,,,,,,,,,
,,,,,V1_030,20,Male,2024-05-22_09h31.32.123,jersey_experiment_5_v1,2023.2.2,Win32,84.74576271,,,,,,,,,,,,,,,,676.928,678.2218,678.2218,679.5984,return,0.0784,,74.21875,,,,,,FBP-PT-71.png,0.43,1.2,4,0.5,,,,,,,,,,,,,0,32,32,3,1,,,,,,,,,,,,,,,,,,,,,,,,,,,,
,,,,,V1_030,20,Male,2024-05-22_09h31.32.123,jersey_experiment_5_v1,2023.2.2,Win32,84.74576271,,,,,,,,,,,,,,,,679.5986,680.8925,680.8925,682.1278,return,0.1463,,90.234375,,,,,,FBP-PT-81.png,0.45,1.2,10,0.5,,,,,,,,,,,,,0,33,33,9,1,,,,,,,,,,,,,,,,,,,,,,,,,,,,
,,,,,V1_030,20,Male,2024-05-22_09h31.32.123,jersey_experiment_5_v1,2023.2.2,Win32,84.74576271,,,,,,,,,,,,,,,,682.1281,683.9279,683.928,684.9163,return,0.1082,,66.14583333,,,,,,FBP-YG-17.png,0.4,1.2,18,1,,,,,,,,,,,,,0,34,34,17,1,,,,,,,,,,,,,,,,,,,,,,,,,,,,
,,,,,V1_030,20,Male,2024-05-22_09h31.32.123,jersey_experiment_5_v1,2023.2.2,Win32,84.74576271,,,,,,,,,,,,,,,,684.9166,686.7162,686.7163,687.4575,return,0.111,,67.31770833,,,,,,FBP-OG-18.png,0.4,1.2,38,1,,,,,,,,,,,,,0,35,35,37,1,,,,,,,,,,,,,,,,,,,,,,,,,,,,
,,,,,V1_030,20,Male,2024-05-22_09h31.32.123,jersey_experiment_5_v1,2023.2.2,Win32,84.74576271,,,,,,,,,,,,,,,,687.4578,689.2578,689.2578,690.2694,return,0.0915,,82.8125,,,,,,FBP-YG-17.png,0.45,1.2,20,1,,,,,,,,,,,,,0,36,36,19,1,,,,,,,,,,,,,,,,,,,,,,,,,,,,
,,,,,V1_030,20,Male,2024-05-22_09h31.32.123,jersey_experiment_5_v1,2023.2.2,Win32,84.74576271,,,,,,,,,,,,,,,,690.2697,692.0694,692.0694,693.1519,return,0.1007,,87.36979167,,,,,,FBP-YG-19.png,0.45,1.2,30,1,,,,,,,,,,,,,0,37,37,29,1,,,,,,,,,,,,,,,,,,,,,,,,,,,,
,,,,,V1_030,20,Male,2024-05-22_09h31.32.123,jersey_experiment_5_v1,2023.2.2,Win32,84.74576271,,,,,,,,,,,,,,,,693.1521,694.952,694.952,696.4345,return,0.0483,,46.22395833,,,,,,FBP-RB-71.png,0.37,1.2,47,1,,,,,,,,,,,,,0,38,38,46,1,,,,,,,,,,,,,,,,,,,,,,,,,,,,
,,,,,V1_030,20,Male,2024-05-22_09h31.32.123,jersey_experiment_5_v1,2023.2.2,Win32,84.74576271,,,,,,,,,,,,,,,,696.4347,698.2344,698.2344,700.7521,return,1.8649,,66.27604167,,,,,,FBP-OG-19.png,0.45,1.2,45,1,,,,,,,,,,,,,0,39,39,44,1,,,,,,,,,,,,,,,,,,,,,,,,,,,,
,,,,,V1_030,20,Male,2024-05-22_09h31.32.123,jersey_experiment_5_v1,2023.2.2,Win32,84.74576271,,,,,,,,,,,,,,,,700.7524,702.5522,702.5522,703.1286,return,0.1531,,62.63020833,,,,,,FBP-OG-19.png,0.4,1.2,43,1,,,,,,,,,,,,,0,40,40,42,1,,,,,,,,,,,,,,,,,,,,,,,,,,,,
,,,,,V1_030,20,Male,2024-05-22_09h31.32.123,jersey_experiment_5_v1,2023.2.2,Win32,84.74576271,,,,,,,,,,,,,,,,703.1288,704.9289,704.9289,707.9876,return,0.1912,,49.609375,,,,,,FBP-OG-19.png,0.35,1.2,41,1,,,,,,,,,,,,,0,41,41,40,1,,,,,,,,,,,,,,,,,,,,,,,,,,,,
,,,,,V1_030,20,Male,2024-05-22_09h31.32.123,jersey_experiment_5_v1,2023.2.2,Win32,84.74576271,,,,,,,,,,,,,,,,707.9878,709.7877,709.7878,710.7053,return,0.1921,,64.84375,,,,,,FBP-OG-17.png,0.43,1.2,34,1,,,,,,,,,,,,,0,42,42,33,1,,,,,,,,,,,,,,,,,,,,,,,,,,,,
,,,,,V1_030,20,Male,2024-05-22_09h31.32.123,jersey_experiment_5_v1,2023.2.2,Win32,84.74576271,,,,,,,,,,,,,,,,710.7056,712.5054,712.5055,714.2114,return,0.862,,36.06770833,,,,,,FBP-YG-18.png,0.37,1.2,22,1,,,,,,,,,,,,,0,43,43,21,1,,,,,,,,,,,,,,,,,,,,,,,,,,,,
,,,,,V1_030,20,Male,2024-05-22_09h31.32.123,jersey_experiment_5_v1,2023.2.2,Win32,84.74576271,,,,,,,,,,,,,,,,714.2116,716.0115,716.0115,716.8468,return,0.137,,75.52083333,,,,,,FBP-RB-71.png,0.45,1.2,50,1,,,,,,,,,,,,,0,44,44,49,1,,,,,,,,,,,,,,,,,,,,,,,,,,,,
,,,,,V1_030,20,Male,2024-05-22_09h31.32.123,jersey_experiment_5_v1,2023.2.2,Win32,84.74576271,,,,,,,,,,,,,,,,716.8471,718.647,718.6471,720.3411,return,0.7191,,49.47916667,,,,,,FBP-OG-17.png,0.37,1.2,32,1,,,,,,,,,,,,,0,45,45,31,1,,,,,,,,,,,,,,,,,,,,,,,,,,,,
,,,,,V1_030,20,Male,2024-05-22_09h31.32.123,jersey_experiment_5_v1,2023.2.2,Win32,84.74576271,,,,,,,,,,,,,,,,720.3413,721.6352,721.6352,722.494,return,0.1115,,60.67708333,,,,,,FBP-PT-91.png,0.43,1.2,14,0.5,,,,,,,,,,,,,0,46,46,13,1,,,,,,,,,,,,,,,,,,,,,,,,,,,,
,,,,,V1_030,20,Male,2024-05-22_09h31.32.123,jersey_experiment_5_v1,2023.2.2,Win32,84.74576271,,,,,,,,,,,,,,,,722.4942,723.7883,723.7883,725.4472,return,0.4914,,50,,,,,,FBP-PT-71.png,0.37,1.2,2,0.5,,,,,,,,,,,,,0,47,47,1,1,,,,,,,,,,,,,,,,,,,,,,,,,,,,
,,,,,V1_030,20,Male,2024-05-22_09h31.32.123,jersey_experiment_5_v1,2023.2.2,Win32,84.74576271,,,,,,,,,,,,,,,,725.4474,727.2472,727.2473,728.4472,return,0.1014,,77.47395833,,,,,,FBP-OG-18.png,0.43,1.2,39,1,,,,,,,,,,,,,0,48,48,38,1,,,,,,,,,,,,,,,,,,,,,,,,,,,,
,,,,,V1_030,20,Male,2024-05-22_09h31.32.123,jersey_experiment_5_v1,2023.2.2,Win32,84.74576271,,,,,,,,,,,,,,,,728.4474,730.2474,730.2474,731.412,return,0.4728,,82.03125,,,,,,FBP-OG-17.png,0.45,1.2,35,1,,,,,,,,,,,,,0,49,49,34,1,,,,,,,,,,,,,,,,,,,,,,,,,,,,
,,,,,V1_030,20,Male,2024-05-22_09h31.32.123,jersey_experiment_5_v1,2023.2.2,Win32,84.74576271,,,,,,,,,,,,,,,,731.4122,733.2123,733.2123,734.471,return,0.0785,,57.29166667,,,,,,FBP-OG-18.png,0.37,1.2,37,1,,,,,,,,,,,,,0,50,50,36,1,,,,,,,,,,,,,,,,,,,,,,,,,,,,
,,,,,V1_030,20,Male,2024-05-22_09h31.32.123,jersey_experiment_5_v1,2023.2.2,Win32,84.74576271,,,,,,,,,,,,,,,,734.4713,736.2709,736.271,736.8358,return,0.0626,,49.86979167,,,,,,FBP-OG-18.png,0.35,1.2,36,1,,,,,,,,,,,,,0,51,51,35,1,,,,,,,,,,,,,,,,,,,,,,,,,,,,
,,,,,V1_030,20,Male,2024-05-22_09h31.32.123,jersey_experiment_5_v1,2023.2.2,Win32,84.74576271,,,,,,,,,,,,,,,,736.836,738.6358,738.6359,739.4123,return,0.1316,,83.07291667,,,,,,FBP-RB-91.png,0.43,1.2,59,1,,,,,,,,,,,,,0,52,52,58,1,,,,,,,,,,,,,,,,,,,,,,,,,,,,
,,,,,V1_030,20,Male,2024-05-22_09h31.32.123,jersey_experiment_5_v1,2023.2.2,Win32,84.74576271,,,,,,,,,,,,,,,,739.4125,741.2124,741.2124,742.2242,return,0.1475,,55.078125,,,,,,FBP-OG-19.png,0.37,1.2,42,1,,,,,,,,,,,,,0,53,53,41,1,,,,,,,,,,,,,,,,,,,,,,,,,,,,
,,,,,V1_030,20,Male,2024-05-22_09h31.32.123,jersey_experiment_5_v1,2023.2.2,Win32,84.74576271,,,,,,,,,,,,,,,,742.2245,744.0244,744.0244,745.1654,return,0.0661,,64.32291667,,,,,,FBP-RB-91.png,0.4,1.2,58,1,,,,,,,,,,,,,0,54,54,57,1,,,,,,,,,,,,,,,,,,,,,,,,,,,,
,,,,,V1_030,20,Male,2024-05-22_09h31.32.123,jersey_experiment_5_v1,2023.2.2,Win32,84.74576271,,,,,,,,,,,,,,,,745.1656,746.9656,746.9656,747.8127,return,0.0608,,49.73958333,,,,,,FBP-RB-81.png,0.37,1.2,52,1,,,,,,,,,,,,,0,55,55,51,1,,,,,,,,,,,,,,,,,,,,,,,,,,,,
,,,,,V1_030,20,Male,2024-05-22_09h31.32.123,jersey_experiment_5_v1,2023.2.2,Win32,84.74576271,,,,,,,,,,,,,,,,747.8129,749.6127,749.6127,750.6715,return,0.0185,,49.86979167,,,,,,FBP-YG-17.png,0.37,1.2,17,1,,,,,,,,,,,,,0,56,56,16,1,,,,,,,,,,,,,,,,,,,,,,,,,,,,
,,,,,V1_030,20,Male,2024-05-22_09h31.32.123,jersey_experiment_5_v1,2023.2.2,Win32,84.74576271,,,,,,,,,,,,,,,,750.6718,752.4717,752.4717,753.8952,return,0.7411,,70.18229167,,,,,,FBP-YG-17.png,0.43,1.2,19,1,,,,,,,,,,,,,0,57,57,18,1,,,,,,,,,,,,,,,,,,,,,,,,,,,,
,,,,,V1_030,20,Male,2024-05-22_09h31.32.123,jersey_experiment_5_v1,2023.2.2,Win32,84.74576271,,,,,,,,,,,,,,,,753.8954,755.1894,755.1894,757.1188,return,1.0287,,86.58854167,,,,,,FBP-PT-91.png,0.45,1.2,15,0.5,,,,,,,,,,,,,0,58,58,14,1,,,,,,,,,,,,,,,,,,,,,,,,,,,,
,,,,,V1_030,20,Male,2024-05-22_09h31.32.123,jersey_experiment_5_v1,2023.2.2,Win32,84.74576271,,,,,,,,,,,,,,,,757.1191,758.9189,758.9189,760.0366,return,0.037,,75.390625,,,,,,FBP-RB-81.png,0.43,1.2,54,1,,,,,,,,,,,,,0,59,59,53,1,,,,,,,,,,,,,,,,,,,,,,,,,,,,
,,,,,V1_030,20,Male,2024-05-22_09h31.32.123,jersey_experiment_5_v1,2023.2.2,Win32,84.74576271,,,,,,,,,,,,,,,,760.0383,761.3306,761.3307,763.1425,return,0.141,,54.296875,,,,,,FBP-PT-18.png,0.35,1.2,6,0.5,,,,,,,,,,,,,,,,,,0,0,0,5,1,,,,,,,,,,,,,,,,,,,,,,,
,,,,,V1_030,20,Male,2024-05-22_09h31.32.123,jersey_experiment_5_v1,2023.2.2,Win32,84.74576271,,,,,,,,,,,,,,,,763.1428,764.9426,764.9427,765.5191,return,0.148,,64.97395833,,,,,,FBP-OG-81.png,0.43,1.2,39,1,,,,,,,,,,,,,,,,,,0,1,1,38,1,,,,,,,,,,,,,,,,,,,,,,,
,,,,,V1_030,20,Male,2024-05-22_09h31.32.123,jersey_experiment_5_v1,2023.2.2,Win32,84.74576271,,,,,,,,,,,,,,,,765.5193,767.3195,767.3195,768.7075,return,0.0501,,49.609375,,,,,,FBP-RB-18.png,0.35,1.2,51,1,,,,,,,,,,,,,,,,,,0,2,2,50,1,,,,,,,,,,,,,,,,,,,,,,,
,,,,,V1_030,20,Male,2024-05-22_09h31.32.123,jersey_experiment_5_v1,2023.2.2,Win32,84.74576271,,,,,,,,,,,,,,,,768.7078,770.5075,770.5075,771.2841,return,0.0157,,49.609375,,,,,,FBP-YG-91.png,0.37,1.2,27,1,,,,,,,,,,,,,,,,,,0,3,3,26,1,,,,,,,,,,,,,,,,,,,,,,,
,,,,,V1_030,20,Male,2024-05-22_09h31.32.123,jersey_experiment_5_v1,2023.2.2,Win32,84.74576271,,,,,,,,,,,,,,,,771.2843,772.5782,772.5782,774.943,return,0.1484,,78.25520833,,,,,,FBP-PT-19.png,0.45,1.2,15,0.5,,,,,,,,,,,,,,,,,,0,4,4,14,1,,,,,,,,,,,,,,,,,,,,,,,
,,,,,V1_030,20,Male,2024-05-22_09h31.32.123,jersey_experiment_5_v1,2023.2.2,Win32,84.74576271,,,,,,,,,,,,,,,,774.9433,776.7431,776.7431,779.5667,return,0.8043,,74.73958333,,,,,,FBP-OG-71.png,0.43,1.2,34,1,,,,,,,,,,,,,,,,,,0,5,5,33,1,,,,,,,,,,,,,,,,,,,,,,,
,,,,,V1_030,20,Male,2024-05-22_09h31.32.123,jersey_experiment_5_v1,2023.2.2,Win32,84.74576271,,,,,,,,,,,,,,,,779.567,781.3667,781.3667,782.2257,return,0.1226,,79.55729167,,,,,,FBP-RB-17.png,0.45,1.2,50,1,,,,,,,,,,,,,,,,,,0,6,6,49,1,,,,,,,,,,,,,,,,,,,,,,,
,,,,,V1_030,20,Male,2024-05-22_09h31.32.123,jersey_experiment_5_v1,2023.2.2,Win32,84.74576271,,,,,,,,,,,,,,,,782.2258,784.0257,784.0258,784.7551,return,0.0854,,88.671875,,,,,,FBP-YG-81.png,0.43,1.2,24,1,,,,,,,,,,,,,,,,,,0,7,7,23,1,,,,,,,,,,,,,,,,,,,,,,,
,,,,,V1_030,20,Male,2024-05-22_09h31.32.123,jersey_experiment_5_v1,2023.2.2,Win32,84.74576271,,,,,,,,,,,,,,,,784.7553,786.5554,786.5554,787.3199,return,0.2355,,95.96354167,,,,,,FBP-OG-71.png,0.45,1.2,35,1,,,,,,,,,,,,,,,,,,0,8,8,34,1,,,,,,,,,,,,,,,,,,,,,,,
,,,,,V1_030,20,Male,2024-05-22_09h31.32.123,jersey_experiment_5_v1,2023.2.2,Win32,84.74576271,,,,,,,,,,,,,,,,787.3202,789.12,789.1201,791.8966,return,1.0944,,64.453125,,,,,,FBP-RB-17.png,0.37,1.2,47,1,,,,,,,,,,,,,,,,,,0,9,9,46,1,,,,,,,,,,,,,,,,,,,,,,,
,,,,,V1_030,20,Male,2024-05-22_09h31.32.123,jersey_experiment_5_v1,2023.2.2,Win32,84.74576271,,,,,,,,,,,,,,,,791.8968,793.6966,793.6966,794.3908,return,0.1297,,79.55729167,,,,,,FBP-YG-91.png,0.45,1.2,30,1,,,,,,,,,,,,,,,,,,0,10,10,29,1,,,,,,,,,,,,,,,,,,,,,,,
,,,,,V1_030,20,Male,2024-05-22_09h31.32.123,jersey_experiment_5_v1,2023.2.2,Win32,84.74576271,,,,,,,,,,,,,,,,794.391,796.1908,796.1909,796.6732,return,0.0757,,86.84895833,,,,,,FBP-OG-91.png,0.43,1.2,44,1,,,,,,,,,,,,,,,,,,0,11,11,43,1,,,,,,,,,,,,,,,,,,,,,,,
,,,,,V1_030,20,Male,2024-05-22_09h31.32.123,jersey_experiment_5_v1,2023.2.2,Win32,84.74576271,,,,,,,,,,,,,,,,796.6735,798.4732,798.4733,799.2851,return,0.0603,,89.58333333,,,,,,FBP-YG-71.png,0.43,1.2,19,1,,,,,,,,,,,,,,,,,,0,12,12,18,1,,,,,,,,,,,,,,,,,,,,,,,
,,,,,V1_030,20,Male,2024-05-22_09h31.32.123,jersey_experiment_5_v1,2023.2.2,Win32,84.74576271,,,,,,,,,,,,,,,,799.2853,800.5792,800.5792,801.2852,return,0.0469,,89.58333333,,,,,,FBP-PT-19.png,0.43,1.2,14,0.5,,,,,,,,,,,,,,,,,,0,13,13,13,1,,,,,,,,,,,,,,,,,,,,,,,
,,,,,V1_030,20,Male,2024-05-22_09h31.32.123,jersey_experiment_5_v1,2023.2.2,Win32,84.74576271,,,,,,,,,,,,,,,,801.2853,803.0852,803.0852,803.6617,return,0.1379,,93.61979167,,,,,,FBP-OG-91.png,0.45,1.2,45,1,,,,,,,,,,,,,,,,,,0,14,14,44,1,,,,,,,,,,,,,,,,,,,,,,,
,,,,,V1_030,20,Male,2024-05-22_09h31.32.123,jersey_experiment_5_v1,2023.2.2,Win32,84.74576271,,,,,,,,,,,,,,,,803.6619,804.9559,804.9559,808.5205,return,1.8003,,61.97916667,,,,,,FBP-PT-17.png,0.4,1.2,3,0.5,,,,,,,,,,,,,,,,,,0,15,15,2,1,,,,,,,,,,,,,,,,,,,,,,,
,,,,,V1_030,20,Male,2024-05-22_09h31.32.123,jersey_experiment_5_v1,2023.2.2,Win32,84.74576271,,,,,,,,,,,,,,,,808.5208,810.3208,810.3208,811.2502,return,0.2933,,74.21875,,,,,,FBP-YG-81.png,0.45,1.2,25,1,,,,,,,,,,,,,,,,,,0,16,16,24,1,,,,,,,,,,,,,,,,,,,,,,,
,,,,,V1_030,20,Male,2024-05-22_09h31.32.123,jersey_experiment_5_v1,2023.2.2,Win32,84.74576271,,,,,,,,,,,,,,,,811.2505,813.0502,813.0502,813.5562,return,0.0963,,75.13020833,,,,,,FBP-RB-18.png,0.43,1.2,54,1,,,,,,,,,,,,,,,,,,0,17,17,53,1,,,,,,,,,,,,,,,,,,,,,,,
,,,,,V1_030,20,Male,2024-05-22_09h31.32.123,jersey_experiment_5_v1,2023.2.2,Win32,84.74576271,,,,,,,,,,,,,,,,813.5564,815.3563,815.3563,816.6739,return,0.6163,,63.02083333,,,,,,FBP-OG-71.png,0.4,1.2,33,1,,,,,,,,,,,,,,,,,,0,18,18,32,1,,,,,,,,,,,,,,,,,,,,,,,
,,,,,V1_030,20,Male,2024-05-22_09h31.32.123,jersey_experiment_5_v1,2023.2.2,Win32,84.74576271,,,,,,,,,,,,,,,,816.6743,817.9681,817.9681,819.2858,return,0.1045,,50.26041667,,,,,,FBP-PT-19.png,0.37,1.2,12,0.5,,,,,,,,,,,,,,,,,,0,19,19,11,1,,,,,,,,,,,,,,,,,,,,,,,
,,,,,V1_030,20,Male,2024-05-22_09h31.32.123,jersey_experiment_5_v1,2023.2.2,Win32,84.74576271,,,,,,,,,,,,,,,,819.2861,821.0858,821.0858,822.3447,return,0.6589,,61.06770833,,,,,,FBP-RB-19.png,0.43,1.2,59,1,,,,,,,,,,,,,,,,,,0,20,20,58,1,,,,,,,,,,,,,,,,,,,,,,,
,,,,,V1_030,20,Male,2024-05-22_09h31.32.123,jersey_experiment_5_v1,2023.2.2,Win32,84.74576271,,,,,,,,,,,,,,,,822.3449,824.1448,824.1448,825.839,return,0.572,,74.86979167,,,,,,FBP-YG-71.png,0.45,1.2,20,1,,,,,,,,,,,,,,,,,,0,21,21,19,1,,,,,,,,,,,,,,,,,,,,,,,
,,,,,V1_030,20,Male,2024-05-22_09h31.32.123,jersey_experiment_5_v1,2023.2.2,Win32,84.74576271,,,,,,,,,,,,,,,,825.8394,827.133,827.1331,828.6744,return,0.1443,,45.44270833,,,,,,FBP-PT-17.png,0.35,1.2,1,0.5,,,,,,,,,,,,,,,,,,0,22,22,0,1,,,,,,,,,,,,,,,,,,,,,,,
,,,,,V1_030,20,Male,2024-05-22_09h31.32.123,jersey_experiment_5_v1,2023.2.2,Win32,84.74576271,,,,,,,,,,,,,,,,828.6745,830.4747,830.4747,831.8392,return,0.4424,,49.86979167,,,,,,FBP-RB-18.png,0.4,1.2,53,1,,,,,,,,,,,,,,,,,,0,23,23,52,1,,,,,,,,,,,,,,,,,,,,,,,
,,,,,V1_030,20,Male,2024-05-22_09h31.32.123,jersey_experiment_5_v1,2023.2.2,Win32,84.74576271,,,,,,,,,,,,,,,,831.8395,833.1333,833.1334,835.4745,return,1.3298,,24.86979167,,,,,,FBP-PT-17.png,0.37,1.2,2,0.5,,,,,,,,,,,,,,,,,,0,24,24,1,1,,,,,,,,,,,,,,,,,,,,,,,
,,,,,V1_030,20,Male,2024-05-22_09h31.32.123,jersey_experiment_5_v1,2023.2.2,Win32,84.74576271,,,,,,,,,,,,,,,,835.4749,836.7687,836.7688,838.7335,return,0.1936,,36.58854167,,,,,,FBP-PT-19.png,0.4,1.2,13,0.5,,,,,,,,,,,,,,,,,,0,25,25,12,1,,,,,,,,,,,,,,,,,,,,,,,
,,,,,V1_030,20,Male,2024-05-22_09h31.32.123,jersey_experiment_5_v1,2023.2.2,Win32,84.74576271,,,,,,,,,,,,,,,,838.7336,840.5336,840.5336,843.0867,return,0.6193,,0,,,,,,FBP-RB-17.png,0.35,1.2,46,1,,,,,,,,,,,,,,,,,,0,26,26,45,1,,,,,,,,,,,,,,,,,,,,,,,
,,,,,V1_030,20,Male,2024-05-22_09h31.32.123,jersey_experiment_5_v1,2023.2.2,Win32,84.74576271,,,,,,,,,,,,,,,,843.087,844.3807,844.3807,845.8161,return,0.1058,,64.32291667,,,,,,FBP-PT-18.png,0.45,1.2,10,0.5,,,,,,,,,,,,,,,,,,0,27,27,9,1,,,,,,,,,,,,,,,,,,,,,,,
,,,,,V1_030,20,Male,2024-05-22_09h31.32.123,jersey_experiment_5_v1,2023.2.2,Win32,84.74576271,,,,,,,,,,,,,,,,845.8164,847.6163,847.6163,849.8163,return,0.1664,,40.36458333,,,,,,FBP-YG-81.png,0.4,1.2,23,1,,,,,,,,,,,,,,,,,,0,28,28,22,1,,,,,,,,,,,,,,,,,,,,,,,
,,,,,V1_030,20,Male,2024-05-22_09h31.32.123,jersey_experiment_5_v1,2023.2.2,Win32,84.74576271,,,,,,,,,,,,,,,,849.8166,851.6163,851.6163,853.5107,return,0.9879,,49.86979167,,,,,,FBP-YG-71.png,0.4,1.2,18,1,,,,,,,,,,,,,,,,,,0,29,29,17,1,,,,,,,,,,,,,,,,,,,,,,,
,,,,,V1_030,20,Male,2024-05-22_09h31.32.123,jersey_experiment_5_v1,2023.2.2,Win32,84.74576271,,,,,,,,,,,,,,,,853.5108,855.3107,855.3108,856.3695,return,0.1812,,24.47916667,,,,,,FBP-YG-81.png,0.37,1.2,22,1,,,,,,,,,,,,,,,,,,0,30,30,21,1,,,,,,,,,,,,,,,,,,,,,,,
,,,,,V1_030,20,Male,2024-05-22_09h31.32.123,jersey_experiment_5_v1,2023.2.2,Win32,84.74576271,,,,,,,,,,,,,,,,856.3698,858.1697,858.1698,859.2049,return,0.0368,,74.609375,,,,,,FBP-RB-18.png,0.45,1.2,55,1,,,,,,,,,,,,,,,,,,0,31,31,54,1,,,,,,,,,,,,,,,,,,,,,,,
,,,,,V1_030,20,Male,2024-05-22_09h31.32.123,jersey_experiment_5_v1,2023.2.2,Win32,84.74576271,,,,,,,,,,,,,,,,859.2051,860.4991,860.4991,862.1109,return,0.8418,,63.80208333,,,,,,FBP-PT-17.png,0.43,1.2,4,0.5,,,,,,,,,,,,,,,,,,0,32,32,3,1,,,,,,,,,,,,,,,,,,,,,,,
,,,,,V1_030,20,Male,2024-05-22_09h31.32.123,jersey_experiment_5_v1,2023.2.2,Win32,84.74576271,,,,,,,,,,,,,,,,862.1111,863.911,863.911,870.8994,return,0.9805,,2.734375,,,,,,FBP-OG-81.png,0.35,1.2,36,1,,,,,,,,,,,,,,,,,,0,33,33,35,1,,,,,,,,,,,,,,,,,,,,,,,
,,,,,V1_030,20,Male,2024-05-22_09h31.32.123,jersey_experiment_5_v1,2023.2.2,Win32,84.74576271,,,,,,,,,,,,,,,,870.8996,872.6996,872.6996,874.2408,return,0.2525,,74.609375,,,,,,FBP-YG-91.png,0.43,1.2,29,1,,,,,,,,,,,,,,,,,,0,34,34,28,1,,,,,,,,,,,,,,,,,,,,,,,
,,,,,V1_030,20,Male,2024-05-22_09h31.32.123,jersey_experiment_5_v1,2023.2.2,Win32,84.74576271,,,,,,,,,,,,,,,,874.241,876.0407,876.0408,878.9351,return,2.1143,,80.59895833,,,,,,FBP-RB-19.png,0.45,1.2,60,1,,,,,,,,,,,,,,,,,,0,35,35,59,1,,,,,,,,,,,,,,,,,,,,,,,
,,,,,V1_030,20,Male,2024-05-22_09h31.32.123,jersey_experiment_5_v1,2023.2.2,Win32,84.74576271,,,,,,,,,,,,,,,,878.9352,880.7353,880.7354,884.0999,return,2.0024,,49.73958333,,,,,,FBP-OG-91.png,0.35,1.2,41,1,,,,,,,,,,,,,,,,,,0,36,36,40,1,,,,,,,,,,,,,,,,,,,,,,,
,,,,,V1_030,20,Male,2024-05-22_09h31.32.123,jersey_experiment_5_v1,2023.2.2,Win32,84.74576271,,,,,,,,,,,,,,,,884.1001,885.9,885.9,888.1942,return,0.5997,,61.45833333,,,,,,FBP-RB-19.png,0.4,1.2,58,1,,,,,,,,,,,,,,,,,,0,37,37,57,1,,,,,,,,,,,,,,,,,,,,,,,
,,,,,V1_030,20,Male,2024-05-22_09h31.32.123,jersey_experiment_5_v1,2023.2.2,Win32,84.74576271,,,,,,,,,,,,,,,,888.1944,889.9942,889.9942,891.2648,return,0.2269,,61.45833333,,,,,,FBP-OG-91.png,0.4,1.2,43,1,,,,,,,,,,,,,,,,,,0,38,38,42,1,,,,,,,,,,,,,,,,,,,,,,,
,,,,,V1_030,20,Male,2024-05-22_09h31.32.123,jersey_experiment_5_v1,2023.2.2,Win32,84.74576271,,,,,,,,,,,,,,,,891.265,893.0648,893.0649,894.8296,return,0.4675,,49.34895833,,,,,,FBP-YG-71.png,0.35,1.2,16,1,,,,,,,,,,,,,,,,,,0,39,39,15,1,,,,,,,,,,,,,,,,,,,,,,,
,,,,,V1_030,20,Male,2024-05-22_09h31.32.123,jersey_experiment_5_v1,2023.2.2,Win32,84.74576271,,,,,,,,,,,,,,,,894.8299,896.63,896.63,898.0298,return,0.6526,,67.83854167,,,,,,FBP-OG-81.png,0.37,1.2,37,1,,,,,,,,,,,,,,,,,,0,40,40,36,1,,,,,,,,,,,,,,,,,,,,,,,
,,,,,V1_030,20,Male,2024-05-22_09h31.32.123,jersey_experiment_5_v1,2023.2.2,Win32,84.74576271,,,,,,,,,,,,,,,,898.03,899.3241,899.3241,900.6887,return,0.0998,,49.73958333,,,,,,FBP-PT-19.png,0.35,1.2,11,0.5,,,,,,,,,,,,,,,,,,0,41,41,10,1,,,,,,,,,,,,,,,,,,,,,,,
,,,,,V1_030,20,Male,2024-05-22_09h31.32.123,jersey_experiment_5_v1,2023.2.2,Win32,84.74576271,,,,,,,,,,,,,,,,900.6889,902.4888,902.4888,903.5711,return,0.0855,,65.10416667,,,,,,FBP-RB-19.png,0.37,1.2,57,1,,,,,,,,,,,,,,,,,,0,42,42,56,1,,,,,,,,,,,,,,,,,,,,,,,
,,,,,V1_030,20,Male,2024-05-22_09h31.32.123,jersey_experiment_5_v1,2023.2.2,Win32,84.74576271,,,,,,,,,,,,,,,,903.5714,905.3714,905.3714,907.0418,return,0.85,,63.15104167,,,,,,FBP-OG-71.png,0.35,1.2,31,1,,,,,,,,,,,,,,,,,,0,43,43,30,1,,,,,,,,,,,,,,,,,,,,,,,
,,,,,V1_030,20,Male,2024-05-22_09h31.32.123,jersey_experiment_5_v1,2023.2.2,Win32,84.74576271,,,,,,,,,,,,,,,,907.042,908.842,908.842,909.7831,return,0.5428,,87.36979167,,,,,,FBP-OG-81.png,0.4,1.2,38,1,,,,,,,,,,,,,,,,,,0,44,44,37,1,,,,,,,,,,,,,,,,,,,,,,,
,,,,,V1_030,20,Male,2024-05-22_09h31.32.123,jersey_experiment_5_v1,2023.2.2,Win32,84.74576271,,,,,,,,,,,,,,,,909.7834,911.0773,911.0774,913.2539,return,0.0971,,66.14583333,,,,,,FBP-PT-18.png,0.37,1.2,7,0.5,,,,,,,,,,,,,,,,,,0,45,45,6,1,,,,,,,,,,,,,,,,,,,,,,,
,,,,,V1_030,20,Male,2024-05-22_09h31.32.123,jersey_experiment_5_v1,2023.2.2,Win32,84.74576271,,,,,,,,,,,,,,,,913.2542,915.0539,915.0539,915.8774,return,0.3887,,95.703125,,,,,,FBP-RB-17.png,0.43,1.2,49,1,,,,,,,,,,,,,,,,,,0,46,46,48,1,,,,,,,,,,,,,,,,,,,,,,,
,,,,,V1_030,20,Male,2024-05-22_09h31.32.123,jersey_experiment_5_v1,2023.2.2,Win32,84.74576271,,,,,,,,,,,,,,,,915.8776,917.6775,917.6775,919.4541,return,0.2046,,99.34895833,,,,,,FBP-OG-81.png,0.45,1.2,40,1,,,,,,,,,,,,,,,,,,0,47,47,39,1,,,,,,,,,,,,,,,,,,,,,,,
,,,,,V1_030,20,Male,2024-05-22_09h31.32.123,jersey_experiment_5_v1,2023.2.2,Win32,84.74576271,,,,,,,,,,,,,,,,919.4544,920.7482,920.7482,921.2542,return,0.0795,,99.34895833,,,,,,FBP-PT-17.png,0.45,1.2,5,0.5,,,,,,,,,,,,,,,,,,0,48,48,4,1,,,,,,,,,,,,,,,,,,,,,,,
,,,,,V1_030,20,Male,2024-05-22_09h31.32.123,jersey_experiment_5_v1,2023.2.2,Win32,84.74576271,,,,,,,,,,,,,,,,921.2544,923.0543,923.0543,924.4307,return,0.0544,,72.00520833,,,,,,FBP-YG-91.png,0.4,1.2,28,1,,,,,,,,,,,,,,,,,,0,49,49,27,1,,,,,,,,,,,,,,,,,,,,,,,
,,,,,V1_030,20,Male,2024-05-22_09h31.32.123,jersey_experiment_5_v1,2023.2.2,Win32,84.74576271,,,,,,,,,,,,,,,,924.431,926.231,926.231,926.9603,return,0.0494,,50.26041667,,,,,,FBP-RB-18.png,0.37,1.2,52,1,,,,,,,,,,,,,,,,,,0,50,50,51,1,,,,,,,,,,,,,,,,,,,,,,,
,,,,,V1_030,20,Male,2024-05-22_09h31.32.123,jersey_experiment_5_v1,2023.2.2,Win32,84.74576271,,,,,,,,,,,,,,,,926.9605,928.7604,928.7605,929.6842,return,0.0855,,49.86979167,,,,,,FBP-OG-91.png,0.37,1.2,42,1,,,,,,,,,,,,,,,,,,0,51,51,41,1,,,,,,,,,,,,,,,,,,,,,,,
,,,,,V1_030,20,Male,2024-05-22_09h31.32.123,jersey_experiment_5_v1,2023.2.2,Win32,84.74576271,,,,,,,,,,,,,,,,929.6844,931.4813,931.4814,932.1252,return,0.1916,,43.359375,,,,,,FBP-OG-71.png,0.37,1.2,32,1,,,,,,,,,,,,,,,,,,0,52,52,31,1,,,,,,,,,,,,,,,,,,,,,,,
,,,,,V1_030,20,Male,2024-05-22_09h31.32.123,jersey_experiment_5_v1,2023.2.2,Win32,84.74576271,,,,,,,,,,,,,,,,932.1255,933.9335,933.9335,934.7371,return,0.1433,,25,,,,,,FBP-YG-81.png,0.35,1.2,21,1,,,,,,,,,,,,,,,,,,0,53,53,20,1,,,,,,,,,,,,,,,,,,,,,,,
,,,,,V1_030,20,Male,2024-05-22_09h31.32.123,jersey_experiment_5_v1,2023.2.2,Win32,84.74576271,,,,,,,,,,,,,,,,934.7374,936.5444,936.5444,937.9288,return,0.0916,,49.86979167,,,,,,FBP-RB-17.png,0.4,1.2,48,1,,,,,,,,,,,,,,,,,,0,54,54,47,1,,,,,,,,,,,,,,,,,,,,,,,
,,,,,V1_030,20,Male,2024-05-22_09h31.32.123,jersey_experiment_5_v1,2023.2.2,Win32,84.74576271,,,,,,,,,,,,,,,,937.9289,939.2343,939.2343,939.8231,return,0.1146,,49.86979167,,,,,,FBP-PT-18.png,0.4,1.2,8,0.5,,,,,,,,,,,,,,,,,,0,55,55,7,1,,,,,,,,,,,,,,,,,,,,,,,
,,,,,V1_030,20,Male,2024-05-22_09h31.32.123,jersey_experiment_5_v1,2023.2.2,Win32,84.74576271,,,,,,,,,,,,,,,,939.8232,941.1335,941.1335,943.5523,return,1.8335,,67.05729167,,,,,,FBP-PT-18.png,0.43,1.2,9,0.5,,,,,,,,,,,,,,,,,,0,56,56,8,1,,,,,,,,,,,,,,,,,,,,,,,
,,,,,V1_030,20,Male,2024-05-22_09h31.32.123,jersey_experiment_5_v1,2023.2.2,Win32,84.74576271,,,,,,,,,,,,,,,,943.5525,945.3562,945.3564,946.9493,return,0.3904,,25.65104167,,,,,,FBP-YG-91.png,0.35,1.2,26,1,,,,,,,,,,,,,,,,,,0,57,57,25,1,,,,,,,,,,,,,,,,,,,,,,,
,,,,,V1_030,20,Male,2024-05-22_09h31.32.123,jersey_experiment_5_v1,2023.2.2,Win32,84.74576271,,,,,,,,,,,,,,,,946.9495,948.7565,948.7565,949.7291,return,0.224,,11.328125,,,,,,FBP-RB-19.png,0.35,1.2,56,1,,,,,,,,,,,,,,,,,,0,58,58,55,1,,,,,,,,,,,,,,,,,,,,,,,
,,,,,V1_030,20,Male,2024-05-22_09h31.32.123,jersey_experiment_5_v1,2023.2.2,Win32,84.74576271,,,,,,,,,,,,,,,,949.7292,951.5331,951.5332,952.6082,return,0.1114,,49.34895833,,,,,,FBP-YG-71.png,0.37,1.2,17,1,,,,,,,,,,,,,,,,,,0,59,59,16,1,,,,,,,,,,,,,,,,,,,,,,,
,,,,,V1_030,20,Male,2024-05-22_09h31.32.123,jersey_experiment_5_v1,2023.2.2,Win32,84.74576271,,,,,,,,,,,,,,,,,,,,,,,,,,,,,,,,,,,,,,,,,,,,,,,,,,,,,,,,952.6086,958.1616,return,5.5303,,,,,,,,,,,,,,,,,,,
,,,,,V1_030,20,Male,2024-05-22_09h31.32.123,jersey_experiment_5_v1,2023.2.2,Win32,84.74576271,,,,,,,,,,,,,,,,,,,,,,,,,,,,,,,,,,,,,,,,,,,,,,,,,,,,,,,,,,,,,958.1617,963.247,1,4.0389,return,1.0235,,,,,,,,,,,,
,,,,,V1_030,20,Male,2024-05-22_09h31.32.123,jersey_experiment_5_v1,2023.2.2,Win32,84.74576271,,,,,,,,,,,,,,,,,,,,,,,,,,,,,,,,,,,,,,,,,,,,,,,,,,,,,,,,,,,,,,,,,,,,963.247,1005.6858,Whether or not race/skin color had any correlation with how our perception on body size.,right,37.8526,,,,,,
,,,,,V1_030,20,Male,2024-05-22_09h31.32.123,jersey_experiment_5_v1,2023.2.2,Win32,84.74576271,,,,,,,,,,,,,,,,,,,,,,,,,,,,,,,,,,,,,,,,,,,,,,,,,,,,,,,,,,,,,,,,,,,,,,,,,,1005.6859,1007.8456,return,2.145,