requirements.started,requirements.stopped,key_resp_3.keys,key_resp_3.rt,key_resp_3.duration,Subject ID,Age,Gender,date,expName,psychopyVersion,OS,frameRate,instructions1.started,instructions1.stopped,key_resp.keys,key_resp.rt,key_resp.duration,example.started,example.stopped,enter_2.keys,enter_2.rt,enter_2.duration,instructions2.started,instructions2.stopped,enter_3.keys,enter_3.rt,enter_3.duration,image.started,image.stopped,slider_2.started,slider_2.stopped,next.keys,next.rt,next.duration,slider.response,trial_block_1.thisRepN,trial_block_1.thisTrialN,trial_block_1.thisN,trial_block_1.thisIndex,trial_block_1.ran,Path,Width,Height,Index,Duration,trial_block_2.thisRepN,trial_block_2.thisTrialN,trial_block_2.thisN,trial_block_2.thisIndex,trial_block_2.ran,rest_break.started,rest_break.stopped,end_break.started,end_break.stopped,key_resp_5.keys,key_resp_5.rt,key_resp_5.duration,trial_block_3.thisRepN,trial_block_3.thisTrialN,trial_block_3.thisN,trial_block_3.thisIndex,trial_block_3.ran,trial_block_4.thisRepN,trial_block_4.thisTrialN,trial_block_4.thisN,trial_block_4.thisIndex,trial_block_4.ran,questions_intro.started,questions_intro.stopped,enter_12.keys,enter_12.rt,enter_12.duration,question2.started,question2.stopped,question_doingbest.response,question_doingbest.rt,enter_15.keys,enter_15.rt,enter_15.duration,pattern.started,pattern.stopped,pattern_2.text,enter_17.keys,enter_17.rt,enter_17.duration,thankyou.started,thankyou.stopped,enter_14.keys,enter_14.rt,enter_14.duration
0.0002,10.9423,return,10.9369,,V1_019,18,Female,2024-05-16_15h32.52.215,jersey_experiment_5_v1,2023.2.2,Win32,84.74576271,,,,,,,,,,,,,,,,,,,,,,,,,,,,,,,,,,,,,,,,,,,,,,,,,,,,,,,,,,,,,,,,,,,,,,,,,,,,,,
,,,,,V1_019,18,Female,2024-05-16_15h32.52.215,jersey_experiment_5_v1,2023.2.2,Win32,84.74576271,10.9423,16.0801,return,5.1265,,,,,,,,,,,,,,,,,,,,,,,,,,,,,,,,,,,,,,,,,,,,,,,,,,,,,,,,,,,,,,,,,,,,,,,,,,
,,,,,V1_019,18,Female,2024-05-16_15h32.52.215,jersey_experiment_5_v1,2023.2.2,Win32,84.74576271,,,,,,16.0802,21.092,return,4.9795,,,,,,,,,,,,,,,,,,,,,,,,,,,,,,,,,,,,,,,,,,,,,,,,,,,,,,,,,,,,,,,,,,,,,
,,,,,V1_019,18,Female,2024-05-16_15h32.52.215,jersey_experiment_5_v1,2023.2.2,Win32,84.74576271,,,,,,,,,,,21.0921,34.316,return,13.217,,,,,,,,,,,,,,,,,,,,,,,,,,,,,,,,,,,,,,,,,,,,,,,,,,,,,,,,,,,,,,,,
,,,,,V1_019,18,Female,2024-05-16_15h32.52.215,jersey_experiment_5_v1,2023.2.2,Win32,84.74576271,,,,,,,,,,,,,,,,34.3231,35.6216,35.6216,41.7866,return,1.2075,,74.34895833,0,0,0,58,1,FBP-RB-91.png,0.43,1.2,59,0.5,,,,,,,,,,,,,,,,,,,,,,,,,,,,,,,,,,,,,,,,,,,,,
,,,,,V1_019,18,Female,2024-05-16_15h32.52.215,jersey_experiment_5_v1,2023.2.2,Win32,84.74576271,,,,,,,,,,,,,,,,41.7869,43.0806,43.0806,48.222,return,1.0508,,74.47916667,0,1,1,55,1,FBP-RB-91.png,0.35,1.2,56,0.5,,,,,,,,,,,,,,,,,,,,,,,,,,,,,,,,,,,,,,,,,,,,,
,,,,,V1_019,18,Female,2024-05-16_15h32.52.215,jersey_experiment_5_v1,2023.2.2,Win32,84.74576271,,,,,,,,,,,,,,,,48.2223,49.5162,49.5162,54.7397,return,2.6836,,73.828125,0,2,2,40,1,FBP-OG-19.png,0.35,1.2,41,0.5,,,,,,,,,,,,,,,,,,,,,,,,,,,,,,,,,,,,,,,,,,,,,
,,,,,V1_019,18,Female,2024-05-16_15h32.52.215,jersey_experiment_5_v1,2023.2.2,Win32,84.74576271,,,,,,,,,,,,,,,,54.74,56.034,56.034,59.94,return,1.4129,,75.91145833,0,3,3,21,1,FBP-YG-18.png,0.37,1.2,22,0.5,,,,,,,,,,,,,,,,,,,,,,,,,,,,,,,,,,,,,,,,,,,,,
,,,,,V1_019,18,Female,2024-05-16_15h32.52.215,jersey_experiment_5_v1,2023.2.2,Win32,84.74576271,,,,,,,,,,,,,,,,59.9403,61.2343,61.2343,67.0814,return,0.9356,,71.484375,0,4,4,30,1,FBP-OG-17.png,0.35,1.2,31,0.5,,,,,,,,,,,,,,,,,,,,,,,,,,,,,,,,,,,,,,,,,,,,,
,,,,,V1_019,18,Female,2024-05-16_15h32.52.215,jersey_experiment_5_v1,2023.2.2,Win32,84.74576271,,,,,,,,,,,,,,,,67.0816,68.3755,68.3755,72.3169,return,0.9195,,86.45833333,0,5,5,33,1,FBP-OG-17.png,0.43,1.2,34,0.5,,,,,,,,,,,,,,,,,,,,,,,,,,,,,,,,,,,,,,,,,,,,,
,,,,,V1_019,18,Female,2024-05-16_15h32.52.215,jersey_experiment_5_v1,2023.2.2,Win32,84.74576271,,,,,,,,,,,,,,,,72.3172,74.117,74.117,78.0114,return,0.9698,,83.46354167,0,6,6,1,1,FBP-PT-71.png,0.37,1.2,2,1,,,,,,,,,,,,,,,,,,,,,,,,,,,,,,,,,,,,,,,,,,,,,
,,,,,V1_019,18,Female,2024-05-16_15h32.52.215,jersey_experiment_5_v1,2023.2.2,Win32,84.74576271,,,,,,,,,,,,,,,,78.0115,79.8113,79.8113,85.8115,return,0.6926,,58.07291667,0,7,7,10,1,FBP-PT-91.png,0.35,1.2,11,1,,,,,,,,,,,,,,,,,,,,,,,,,,,,,,,,,,,,,,,,,,,,,
,,,,,V1_019,18,Female,2024-05-16_15h32.52.215,jersey_experiment_5_v1,2023.2.2,Win32,84.74576271,,,,,,,,,,,,,,,,85.8117,87.1057,87.1057,90.7293,return,1.2555,,68.09895833,0,8,8,31,1,FBP-OG-17.png,0.37,1.2,32,0.5,,,,,,,,,,,,,,,,,,,,,,,,,,,,,,,,,,,,,,,,,,,,,
,,,,,V1_019,18,Female,2024-05-16_15h32.52.215,jersey_experiment_5_v1,2023.2.2,Win32,84.74576271,,,,,,,,,,,,,,,,90.7295,92.5293,92.5293,94.3885,return,0.6832,,90.625,0,9,9,3,1,FBP-PT-71.png,0.43,1.2,4,1,,,,,,,,,,,,,,,,,,,,,,,,,,,,,,,,,,,,,,,,,,,,,
,,,,,V1_019,18,Female,2024-05-16_15h32.52.215,jersey_experiment_5_v1,2023.2.2,Win32,84.74576271,,,,,,,,,,,,,,,,94.3888,95.6825,95.6825,98.2825,return,1.4893,,94.53125,0,10,10,43,1,FBP-OG-19.png,0.43,1.2,44,0.5,,,,,,,,,,,,,,,,,,,,,,,,,,,,,,,,,,,,,,,,,,,,,
,,,,,V1_019,18,Female,2024-05-16_15h32.52.215,jersey_experiment_5_v1,2023.2.2,Win32,84.74576271,,,,,,,,,,,,,,,,98.2827,99.5768,99.5768,101.6356,return,0.7201,,95.83333333,0,11,11,49,1,FBP-RB-71.png,0.45,1.2,50,0.5,,,,,,,,,,,,,,,,,,,,,,,,,,,,,,,,,,,,,,,,,,,,,
,,,,,V1_019,18,Female,2024-05-16_15h32.52.215,jersey_experiment_5_v1,2023.2.2,Win32,84.74576271,,,,,,,,,,,,,,,,101.6358,102.9298,102.9298,106.2592,return,1.5059,,93.61979167,0,12,12,32,1,FBP-OG-17.png,0.4,1.2,33,0.5,,,,,,,,,,,,,,,,,,,,,,,,,,,,,,,,,,,,,,,,,,,,,
,,,,,V1_019,18,Female,2024-05-16_15h32.52.215,jersey_experiment_5_v1,2023.2.2,Win32,84.74576271,,,,,,,,,,,,,,,,106.2595,107.5534,107.5534,109.5182,return,0.3682,,97.78645833,0,13,13,29,1,FBP-YG-19.png,0.45,1.2,30,0.5,,,,,,,,,,,,,,,,,,,,,,,,,,,,,,,,,,,,,,,,,,,,,
,,,,,V1_019,18,Female,2024-05-16_15h32.52.215,jersey_experiment_5_v1,2023.2.2,Win32,84.74576271,,,,,,,,,,,,,,,,109.5185,110.8124,110.8124,114.0948,return,1.047,,35.9375,0,14,14,25,1,FBP-YG-19.png,0.35,1.2,26,0.5,,,,,,,,,,,,,,,,,,,,,,,,,,,,,,,,,,,,,,,,,,,,,
,,,,,V1_019,18,Female,2024-05-16_15h32.52.215,jersey_experiment_5_v1,2023.2.2,Win32,84.74576271,,,,,,,,,,,,,,,,114.0951,115.3891,115.3891,119.7539,return,0.2552,,49.21875,0,15,15,56,1,FBP-RB-91.png,0.37,1.2,57,0.5,,,,,,,,,,,,,,,,,,,,,,,,,,,,,,,,,,,,,,,,,,,,,
,,,,,V1_019,18,Female,2024-05-16_15h32.52.215,jersey_experiment_5_v1,2023.2.2,Win32,84.74576271,,,,,,,,,,,,,,,,119.7541,121.048,121.048,128.7072,return,3.6813,,41.14583333,0,16,16,15,1,FBP-YG-17.png,0.35,1.2,16,0.5,,,,,,,,,,,,,,,,,,,,,,,,,,,,,,,,,,,,,,,,,,,,,
,,,,,V1_019,18,Female,2024-05-16_15h32.52.215,jersey_experiment_5_v1,2023.2.2,Win32,84.74576271,,,,,,,,,,,,,,,,128.7074,130.0014,130.0014,132.0602,return,0.5114,,75.78125,0,17,17,24,1,FBP-YG-18.png,0.45,1.2,25,0.5,,,,,,,,,,,,,,,,,,,,,,,,,,,,,,,,,,,,,,,,,,,,,
,,,,,V1_019,18,Female,2024-05-16_15h32.52.215,jersey_experiment_5_v1,2023.2.2,Win32,84.74576271,,,,,,,,,,,,,,,,132.0605,133.3542,133.3542,135.2014,return,0.4239,,77.99479167,0,18,18,23,1,FBP-YG-18.png,0.43,1.2,24,0.5,,,,,,,,,,,,,,,,,,,,,,,,,,,,,,,,,,,,,,,,,,,,,
,,,,,V1_019,18,Female,2024-05-16_15h32.52.215,jersey_experiment_5_v1,2023.2.2,Win32,84.74576271,,,,,,,,,,,,,,,,135.2017,136.4955,136.4956,140.3192,return,1.7788,,48.95833333,0,19,19,16,1,FBP-YG-17.png,0.37,1.2,17,0.5,,,,,,,,,,,,,,,,,,,,,,,,,,,,,,,,,,,,,,,,,,,,,
,,,,,V1_019,18,Female,2024-05-16_15h32.52.215,jersey_experiment_5_v1,2023.2.2,Win32,84.74576271,,,,,,,,,,,,,,,,140.3194,141.6133,141.6134,144.1313,return,0.1875,,66.40625,0,20,20,47,1,FBP-RB-71.png,0.4,1.2,48,0.5,,,,,,,,,,,,,,,,,,,,,,,,,,,,,,,,,,,,,,,,,,,,,
,,,,,V1_019,18,Female,2024-05-16_15h32.52.215,jersey_experiment_5_v1,2023.2.2,Win32,84.74576271,,,,,,,,,,,,,,,,144.1315,145.4254,145.4254,149.4255,return,1.8118,,48.4375,0,21,21,36,1,FBP-OG-18.png,0.37,1.2,37,0.5,,,,,,,,,,,,,,,,,,,,,,,,,,,,,,,,,,,,,,,,,,,,,
,,,,,V1_019,18,Female,2024-05-16_15h32.52.215,jersey_experiment_5_v1,2023.2.2,Win32,84.74576271,,,,,,,,,,,,,,,,149.4257,150.7197,150.7197,152.4962,return,0.4595,,27.60416667,0,22,22,20,1,FBP-YG-18.png,0.35,1.2,21,0.5,,,,,,,,,,,,,,,,,,,,,,,,,,,,,,,,,,,,,,,,,,,,,
,,,,,V1_019,18,Female,2024-05-16_15h32.52.215,jersey_experiment_5_v1,2023.2.2,Win32,84.74576271,,,,,,,,,,,,,,,,152.4963,153.7902,153.7902,156.355,return,0.2824,,75.52083333,0,23,23,18,1,FBP-YG-17.png,0.43,1.2,19,0.5,,,,,,,,,,,,,,,,,,,,,,,,,,,,,,,,,,,,,,,,,,,,,
,,,,,V1_019,18,Female,2024-05-16_15h32.52.215,jersey_experiment_5_v1,2023.2.2,Win32,84.74576271,,,,,,,,,,,,,,,,156.3552,157.6492,157.6493,159.2612,return,0.2517,,75.78125,0,24,24,22,1,FBP-YG-18.png,0.4,1.2,23,0.5,,,,,,,,,,,,,,,,,,,,,,,,,,,,,,,,,,,,,,,,,,,,,
,,,,,V1_019,18,Female,2024-05-16_15h32.52.215,jersey_experiment_5_v1,2023.2.2,Win32,84.74576271,,,,,,,,,,,,,,,,159.2615,160.5553,160.5553,162.379,return,0.792,,83.85416667,0,25,25,53,1,FBP-RB-81.png,0.43,1.2,54,0.5,,,,,,,,,,,,,,,,,,,,,,,,,,,,,,,,,,,,,,,,,,,,,
,,,,,V1_019,18,Female,2024-05-16_15h32.52.215,jersey_experiment_5_v1,2023.2.2,Win32,84.74576271,,,,,,,,,,,,,,,,162.3792,163.673,163.6731,165.2966,return,0.2688,,87.63020833,0,26,26,28,1,FBP-YG-19.png,0.43,1.2,29,0.5,,,,,,,,,,,,,,,,,,,,,,,,,,,,,,,,,,,,,,,,,,,,,
,,,,,V1_019,18,Female,2024-05-16_15h32.52.215,jersey_experiment_5_v1,2023.2.2,Win32,84.74576271,,,,,,,,,,,,,,,,165.2968,167.0967,167.0968,168.6731,return,0.2606,,81.640625,0,27,27,9,1,FBP-PT-81.png,0.45,1.2,10,1,,,,,,,,,,,,,,,,,,,,,,,,,,,,,,,,,,,,,,,,,,,,,
,,,,,V1_019,18,Female,2024-05-16_15h32.52.215,jersey_experiment_5_v1,2023.2.2,Win32,84.74576271,,,,,,,,,,,,,,,,168.6734,169.9675,169.9675,171.438,return,0.3568,,87.5,0,28,28,39,1,FBP-OG-18.png,0.45,1.2,40,0.5,,,,,,,,,,,,,,,,,,,,,,,,,,,,,,,,,,,,,,,,,,,,,
,,,,,V1_019,18,Female,2024-05-16_15h32.52.215,jersey_experiment_5_v1,2023.2.2,Win32,84.74576271,,,,,,,,,,,,,,,,171.4381,172.7322,172.7322,174.3558,return,0.3856,,86.84895833,0,29,29,44,1,FBP-OG-19.png,0.45,1.2,45,0.5,,,,,,,,,,,,,,,,,,,,,,,,,,,,,,,,,,,,,,,,,,,,,
,,,,,V1_019,18,Female,2024-05-16_15h32.52.215,jersey_experiment_5_v1,2023.2.2,Win32,84.74576271,,,,,,,,,,,,,,,,174.3559,175.6498,175.6499,177.65,return,0.2917,,88.41145833,0,30,30,59,1,FBP-RB-91.png,0.45,1.2,60,0.5,,,,,,,,,,,,,,,,,,,,,,,,,,,,,,,,,,,,,,,,,,,,,
,,,,,V1_019,18,Female,2024-05-16_15h32.52.215,jersey_experiment_5_v1,2023.2.2,Win32,84.74576271,,,,,,,,,,,,,,,,177.6501,178.9443,178.9443,182.6855,return,1.8258,,15.88541667,0,31,31,45,1,FBP-RB-71.png,0.35,1.2,46,0.5,,,,,,,,,,,,,,,,,,,,,,,,,,,,,,,,,,,,,,,,,,,,,
,,,,,V1_019,18,Female,2024-05-16_15h32.52.215,jersey_experiment_5_v1,2023.2.2,Win32,84.74576271,,,,,,,,,,,,,,,,182.6857,184.4859,184.4859,186.7797,return,0.4533,,82.03125,0,32,32,4,1,FBP-PT-71.png,0.45,1.2,5,1,,,,,,,,,,,,,,,,,,,,,,,,,,,,,,,,,,,,,,,,,,,,,
,,,,,V1_019,18,Female,2024-05-16_15h32.52.215,jersey_experiment_5_v1,2023.2.2,Win32,84.74576271,,,,,,,,,,,,,,,,186.7798,188.5798,188.5798,192.2387,return,0.3323,,72.91666667,0,33,33,12,1,FBP-PT-91.png,0.4,1.2,13,1,,,,,,,,,,,,,,,,,,,,,,,,,,,,,,,,,,,,,,,,,,,,,
,,,,,V1_019,18,Female,2024-05-16_15h32.52.215,jersey_experiment_5_v1,2023.2.2,Win32,84.74576271,,,,,,,,,,,,,,,,192.2388,194.0389,194.0389,195.4506,return,0.819,,77.60416667,0,34,34,8,1,FBP-PT-81.png,0.43,1.2,9,1,,,,,,,,,,,,,,,,,,,,,,,,,,,,,,,,,,,,,,,,,,,,,
,,,,,V1_019,18,Female,2024-05-16_15h32.52.215,jersey_experiment_5_v1,2023.2.2,Win32,84.74576271,,,,,,,,,,,,,,,,195.4507,196.7448,196.7448,198.6507,return,0.8189,,80.20833333,0,35,35,34,1,FBP-OG-17.png,0.45,1.2,35,0.5,,,,,,,,,,,,,,,,,,,,,,,,,,,,,,,,,,,,,,,,,,,,,
,,,,,V1_019,18,Female,2024-05-16_15h32.52.215,jersey_experiment_5_v1,2023.2.2,Win32,84.74576271,,,,,,,,,,,,,,,,198.6509,199.9448,199.9449,202.498,return,0.4104,,70.57291667,0,36,36,42,1,FBP-OG-19.png,0.4,1.2,43,0.5,,,,,,,,,,,,,,,,,,,,,,,,,,,,,,,,,,,,,,,,,,,,,
,,,,,V1_019,18,Female,2024-05-16_15h32.52.215,jersey_experiment_5_v1,2023.2.2,Win32,84.74576271,,,,,,,,,,,,,,,,202.4981,203.7921,203.7921,205.9687,return,0.7053,,19.140625,0,37,37,35,1,FBP-OG-18.png,0.35,1.2,36,0.5,,,,,,,,,,,,,,,,,,,,,,,,,,,,,,,,,,,,,,,,,,,,,
,,,,,V1_019,18,Female,2024-05-16_15h32.52.215,jersey_experiment_5_v1,2023.2.2,Win32,84.74576271,,,,,,,,,,,,,,,,205.9689,207.7687,207.7687,210.11,return,0.2507,,48.4375,0,38,38,2,1,FBP-PT-71.png,0.4,1.2,3,1,,,,,,,,,,,,,,,,,,,,,,,,,,,,,,,,,,,,,,,,,,,,,
,,,,,V1_019,18,Female,2024-05-16_15h32.52.215,jersey_experiment_5_v1,2023.2.2,Win32,84.74576271,,,,,,,,,,,,,,,,210.1102,211.404,211.4041,214.3807,return,0.2268,,72.00520833,0,39,39,37,1,FBP-OG-18.png,0.4,1.2,38,0.5,,,,,,,,,,,,,,,,,,,,,,,,,,,,,,,,,,,,,,,,,,,,,
,,,,,V1_019,18,Female,2024-05-16_15h32.52.215,jersey_experiment_5_v1,2023.2.2,Win32,84.74576271,,,,,,,,,,,,,,,,214.381,215.6749,215.6749,218.0514,return,0.8943,,78.125,0,40,40,19,1,FBP-YG-17.png,0.45,1.2,20,0.5,,,,,,,,,,,,,,,,,,,,,,,,,,,,,,,,,,,,,,,,,,,,,
,,,,,V1_019,18,Female,2024-05-16_15h32.52.215,jersey_experiment_5_v1,2023.2.2,Win32,84.74576271,,,,,,,,,,,,,,,,218.0516,219.8517,219.8517,223.2282,return,2.3458,,83.59375,0,41,41,14,1,FBP-PT-91.png,0.45,1.2,15,1,,,,,,,,,,,,,,,,,,,,,,,,,,,,,,,,,,,,,,,,,,,,,
,,,,,V1_019,18,Female,2024-05-16_15h32.52.215,jersey_experiment_5_v1,2023.2.2,Win32,84.74576271,,,,,,,,,,,,,,,,223.2283,224.5221,224.5221,227.087,return,0.13,,86.58854167,0,42,42,54,1,FBP-RB-81.png,0.45,1.2,55,0.5,,,,,,,,,,,,,,,,,,,,,,,,,,,,,,,,,,,,,,,,,,,,,
,,,,,V1_019,18,Female,2024-05-16_15h32.52.215,jersey_experiment_5_v1,2023.2.2,Win32,84.74576271,,,,,,,,,,,,,,,,227.0872,228.3812,228.3812,231.4402,return,0.3074,,30.72916667,0,43,43,50,1,FBP-RB-81.png,0.35,1.2,51,0.5,,,,,,,,,,,,,,,,,,,,,,,,,,,,,,,,,,,,,,,,,,,,,
,,,,,V1_019,18,Female,2024-05-16_15h32.52.215,jersey_experiment_5_v1,2023.2.2,Win32,84.74576271,,,,,,,,,,,,,,,,231.4405,232.7344,232.7344,236.0521,return,0.2827,,44.40104167,0,44,44,27,1,FBP-YG-19.png,0.4,1.2,28,0.5,,,,,,,,,,,,,,,,,,,,,,,,,,,,,,,,,,,,,,,,,,,,,
,,,,,V1_019,18,Female,2024-05-16_15h32.52.215,jersey_experiment_5_v1,2023.2.2,Win32,84.74576271,,,,,,,,,,,,,,,,236.0524,237.3463,237.3463,240.3463,return,1.1483,,83.72395833,0,45,45,38,1,FBP-OG-18.png,0.43,1.2,39,0.5,,,,,,,,,,,,,,,,,,,,,,,,,,,,,,,,,,,,,,,,,,,,,
,,,,,V1_019,18,Female,2024-05-16_15h32.52.215,jersey_experiment_5_v1,2023.2.2,Win32,84.74576271,,,,,,,,,,,,,,,,240.3465,241.6405,241.6405,243.4994,return,0.371,,87.23958333,0,46,46,48,1,FBP-RB-71.png,0.43,1.2,49,0.5,,,,,,,,,,,,,,,,,,,,,,,,,,,,,,,,,,,,,,,,,,,,,
,,,,,V1_019,18,Female,2024-05-16_15h32.52.215,jersey_experiment_5_v1,2023.2.2,Win32,84.74576271,,,,,,,,,,,,,,,,243.4996,244.7936,244.7936,248.3232,return,1.5302,,62.36979167,0,47,47,17,1,FBP-YG-17.png,0.4,1.2,18,0.5,,,,,,,,,,,,,,,,,,,,,,,,,,,,,,,,,,,,,,,,,,,,,
,,,,,V1_019,18,Female,2024-05-16_15h32.52.215,jersey_experiment_5_v1,2023.2.2,Win32,84.74576271,,,,,,,,,,,,,,,,248.3233,249.6172,249.6172,253.9703,return,2.5642,,49.34895833,0,48,48,52,1,FBP-RB-81.png,0.4,1.2,53,0.5,,,,,,,,,,,,,,,,,,,,,,,,,,,,,,,,,,,,,,,,,,,,,
,,,,,V1_019,18,Female,2024-05-16_15h32.52.215,jersey_experiment_5_v1,2023.2.2,Win32,84.74576271,,,,,,,,,,,,,,,,253.9705,255.2646,255.2646,257.1352,return,0.3319,,23.17708333,0,49,49,51,1,FBP-RB-81.png,0.37,1.2,52,0.5,,,,,,,,,,,,,,,,,,,,,,,,,,,,,,,,,,,,,,,,,,,,,
,,,,,V1_019,18,Female,2024-05-16_15h32.52.215,jersey_experiment_5_v1,2023.2.2,Win32,84.74576271,,,,,,,,,,,,,,,,257.1354,258.9352,258.9352,260.8177,return,0.4609,,23.17708333,0,50,50,0,1,FBP-PT-71.png,0.35,1.2,1,1,,,,,,,,,,,,,,,,,,,,,,,,,,,,,,,,,,,,,,,,,,,,,
,,,,,V1_019,18,Female,2024-05-16_15h32.52.215,jersey_experiment_5_v1,2023.2.2,Win32,84.74576271,,,,,,,,,,,,,,,,260.8179,262.1119,262.1119,265.1002,return,0.5349,,24.86979167,0,51,51,26,1,FBP-YG-19.png,0.37,1.2,27,0.5,,,,,,,,,,,,,,,,,,,,,,,,,,,,,,,,,,,,,,,,,,,,,
,,,,,V1_019,18,Female,2024-05-16_15h32.52.215,jersey_experiment_5_v1,2023.2.2,Win32,84.74576271,,,,,,,,,,,,,,,,265.1003,266.3944,266.3944,268.8416,return,0.7258,,24.86979167,0,52,52,41,1,FBP-OG-19.png,0.37,1.2,42,0.5,,,,,,,,,,,,,,,,,,,,,,,,,,,,,,,,,,,,,,,,,,,,,
,,,,,V1_019,18,Female,2024-05-16_15h32.52.215,jersey_experiment_5_v1,2023.2.2,Win32,84.74576271,,,,,,,,,,,,,,,,268.8419,270.6415,270.6415,273.8417,return,0.0335,,24.47916667,0,53,53,11,1,FBP-PT-91.png,0.37,1.2,12,1,,,,,,,,,,,,,,,,,,,,,,,,,,,,,,,,,,,,,,,,,,,,,
,,,,,V1_019,18,Female,2024-05-16_15h32.52.215,jersey_experiment_5_v1,2023.2.2,Win32,84.74576271,,,,,,,,,,,,,,,,273.842,275.1357,275.1357,279.0418,return,1.0925,,54.42708333,0,54,54,57,1,FBP-RB-91.png,0.4,1.2,58,0.5,,,,,,,,,,,,,,,,,,,,,,,,,,,,,,,,,,,,,,,,,,,,,
,,,,,V1_019,18,Female,2024-05-16_15h32.52.215,jersey_experiment_5_v1,2023.2.2,Win32,84.74576271,,,,,,,,,,,,,,,,279.042,280.842,280.842,282.2184,return,0.2995,,59.375,0,55,55,7,1,FBP-PT-81.png,0.4,1.2,8,1,,,,,,,,,,,,,,,,,,,,,,,,,,,,,,,,,,,,,,,,,,,,,
,,,,,V1_019,18,Female,2024-05-16_15h32.52.215,jersey_experiment_5_v1,2023.2.2,Win32,84.74576271,,,,,,,,,,,,,,,,282.2185,284.0186,284.0186,287.5832,return,1.7539,,48.828125,0,56,56,6,1,FBP-PT-81.png,0.37,1.2,7,1,,,,,,,,,,,,,,,,,,,,,,,,,,,,,,,,,,,,,,,,,,,,,
,,,,,V1_019,18,Female,2024-05-16_15h32.52.215,jersey_experiment_5_v1,2023.2.2,Win32,84.74576271,,,,,,,,,,,,,,,,287.5834,288.8774,288.8775,291.6422,return,0.8999,,47.13541667,0,57,57,46,1,FBP-RB-71.png,0.37,1.2,47,0.5,,,,,,,,,,,,,,,,,,,,,,,,,,,,,,,,,,,,,,,,,,,,,
,,,,,V1_019,18,Female,2024-05-16_15h32.52.215,jersey_experiment_5_v1,2023.2.2,Win32,84.74576271,,,,,,,,,,,,,,,,291.6424,293.4422,293.4422,296.7015,return,0.769,,41.796875,0,58,58,5,1,FBP-PT-81.png,0.35,1.2,6,1,,,,,,,,,,,,,,,,,,,,,,,,,,,,,,,,,,,,,,,,,,,,,
,,,,,V1_019,18,Female,2024-05-16_15h32.52.215,jersey_experiment_5_v1,2023.2.2,Win32,84.74576271,,,,,,,,,,,,,,,,296.7018,298.5015,298.5015,301.1956,return,1.2181,,86.06770833,0,59,59,13,1,FBP-PT-91.png,0.43,1.2,14,1,,,,,,,,,,,,,,,,,,,,,,,,,,,,,,,,,,,,,,,,,,,,,
,,,,,V1_019,18,Female,2024-05-16_15h32.52.215,jersey_experiment_5_v1,2023.2.2,Win32,84.74576271,,,,,,,,,,,,,,,,301.1977,302.4897,302.4898,309.2311,return,0.5291,,78.64583333,,,,,,FBP-OG-91.png,0.37,1.2,42,0.5,0,0,0,41,1,,,,,,,,,,,,,,,,,,,,,,,,,,,,,,,,,,,,,,,,
,,,,,V1_019,18,Female,2024-05-16_15h32.52.215,jersey_experiment_5_v1,2023.2.2,Win32,84.74576271,,,,,,,,,,,,,,,,309.2317,310.5253,310.5253,314.6666,return,0.8872,,33.72395833,,,,,,FBP-RB-18.png,0.35,1.2,51,0.5,0,1,1,50,1,,,,,,,,,,,,,,,,,,,,,,,,,,,,,,,,,,,,,,,,
,,,,,V1_019,18,Female,2024-05-16_15h32.52.215,jersey_experiment_5_v1,2023.2.2,Win32,84.74576271,,,,,,,,,,,,,,,,314.6669,315.9609,315.9609,319.0668,return,0.1577,,81.11979167,,,,,,FBP-RB-17.png,0.4,1.2,48,0.5,0,2,2,47,1,,,,,,,,,,,,,,,,,,,,,,,,,,,,,,,,,,,,,,,,
,,,,,V1_019,18,Female,2024-05-16_15h32.52.215,jersey_experiment_5_v1,2023.2.2,Win32,84.74576271,,,,,,,,,,,,,,,,319.0669,320.3613,320.3613,321.7257,return,0.2156,,88.54166667,,,,,,FBP-YG-81.png,0.43,1.2,24,0.5,0,3,3,23,1,,,,,,,,,,,,,,,,,,,,,,,,,,,,,,,,,,,,,,,,
,,,,,V1_019,18,Female,2024-05-16_15h32.52.215,jersey_experiment_5_v1,2023.2.2,Win32,84.74576271,,,,,,,,,,,,,,,,321.7259,323.0198,323.0198,326.8906,return,0.2177,,49.21875,,,,,,FBP-RB-19.png,0.37,1.2,57,0.5,0,4,4,56,1,,,,,,,,,,,,,,,,,,,,,,,,,,,,,,,,,,,,,,,,
,,,,,V1_019,18,Female,2024-05-16_15h32.52.215,jersey_experiment_5_v1,2023.2.2,Win32,84.74576271,,,,,,,,,,,,,,,,326.8908,328.1848,328.1848,329.6438,return,0.2397,,75.52083333,,,,,,FBP-YG-71.png,0.4,1.2,18,0.5,0,5,5,17,1,,,,,,,,,,,,,,,,,,,,,,,,,,,,,,,,,,,,,,,,
,,,,,V1_019,18,Female,2024-05-16_15h32.52.215,jersey_experiment_5_v1,2023.2.2,Win32,84.74576271,,,,,,,,,,,,,,,,329.644,330.9378,330.9378,333.6321,return,0.7545,,47.52604167,,,,,,FBP-RB-17.png,0.35,1.2,46,0.5,0,6,6,45,1,,,,,,,,,,,,,,,,,,,,,,,,,,,,,,,,,,,,,,,,
,,,,,V1_019,18,Female,2024-05-16_15h32.52.215,jersey_experiment_5_v1,2023.2.2,Win32,84.74576271,,,,,,,,,,,,,,,,333.6322,335.4321,335.4321,336.9262,return,0.2716,,32.94270833,,,,,,FBP-PT-19.png,0.35,1.2,11,1,0,7,7,10,1,,,,,,,,,,,,,,,,,,,,,,,,,,,,,,,,,,,,,,,,
,,,,,V1_019,18,Female,2024-05-16_15h32.52.215,jersey_experiment_5_v1,2023.2.2,Win32,84.74576271,,,,,,,,,,,,,,,,336.9265,338.2203,338.2204,340.5617,return,0.5554,,62.5,,,,,,FBP-OG-71.png,0.35,1.2,31,0.5,0,8,8,30,1,,,,,,,,,,,,,,,,,,,,,,,,,,,,,,,,,,,,,,,,
,,,,,V1_019,18,Female,2024-05-16_15h32.52.215,jersey_experiment_5_v1,2023.2.2,Win32,84.74576271,,,,,,,,,,,,,,,,340.5619,341.8558,341.8558,344.4678,return,1.1676,,92.83854167,,,,,,FBP-YG-91.png,0.45,1.2,30,0.5,0,9,9,29,1,,,,,,,,,,,,,,,,,,,,,,,,,,,,,,,,,,,,,,,,
,,,,,V1_019,18,Female,2024-05-16_15h32.52.215,jersey_experiment_5_v1,2023.2.2,Win32,84.74576271,,,,,,,,,,,,,,,,344.4681,345.7619,345.7619,347.1384,return,0.2354,,92.578125,,,,,,FBP-RB-18.png,0.4,1.2,53,0.5,0,10,10,52,1,,,,,,,,,,,,,,,,,,,,,,,,,,,,,,,,,,,,,,,,
,,,,,V1_019,18,Female,2024-05-16_15h32.52.215,jersey_experiment_5_v1,2023.2.2,Win32,84.74576271,,,,,,,,,,,,,,,,347.1385,348.4324,348.4324,349.8914,return,0.2586,,96.09375,,,,,,FBP-RB-18.png,0.43,1.2,54,0.5,0,11,11,53,1,,,,,,,,,,,,,,,,,,,,,,,,,,,,,,,,,,,,,,,,
,,,,,V1_019,18,Female,2024-05-16_15h32.52.215,jersey_experiment_5_v1,2023.2.2,Win32,84.74576271,,,,,,,,,,,,,,,,349.8916,351.1856,351.1856,353.3856,return,0.1943,,37.890625,,,,,,FBP-YG-81.png,0.37,1.2,22,0.5,0,12,12,21,1,,,,,,,,,,,,,,,,,,,,,,,,,,,,,,,,,,,,,,,,
,,,,,V1_019,18,Female,2024-05-16_15h32.52.215,jersey_experiment_5_v1,2023.2.2,Win32,84.74576271,,,,,,,,,,,,,,,,353.3859,354.6799,354.6799,357.3623,return,0.3431,,87.5,,,,,,FBP-RB-19.png,0.43,1.2,59,0.5,0,13,13,58,1,,,,,,,,,,,,,,,,,,,,,,,,,,,,,,,,,,,,,,,,
,,,,,V1_019,18,Female,2024-05-16_15h32.52.215,jersey_experiment_5_v1,2023.2.2,Win32,84.74576271,,,,,,,,,,,,,,,,357.3626,358.6564,358.6565,361.5978,return,0.2853,,85.28645833,,,,,,FBP-OG-71.png,0.4,1.2,33,0.5,0,14,14,32,1,,,,,,,,,,,,,,,,,,,,,,,,,,,,,,,,,,,,,,,,
,,,,,V1_019,18,Female,2024-05-16_15h32.52.215,jersey_experiment_5_v1,2023.2.2,Win32,84.74576271,,,,,,,,,,,,,,,,361.598,363.3976,363.3977,365.1154,return,0.3918,,85.02604167,,,,,,FBP-PT-17.png,0.43,1.2,4,1,0,15,15,3,1,,,,,,,,,,,,,,,,,,,,,,,,,,,,,,,,,,,,,,,,
,,,,,V1_019,18,Female,2024-05-16_15h32.52.215,jersey_experiment_5_v1,2023.2.2,Win32,84.74576271,,,,,,,,,,,,,,,,365.1156,366.4095,366.4095,372.1863,return,0.524,,76.69270833,,,,,,FBP-YG-91.png,0.37,1.2,27,0.5,0,16,16,26,1,,,,,,,,,,,,,,,,,,,,,,,,,,,,,,,,,,,,,,,,
,,,,,V1_019,18,Female,2024-05-16_15h32.52.215,jersey_experiment_5_v1,2023.2.2,Win32,84.74576271,,,,,,,,,,,,,,,,372.1866,373.4805,373.4806,377.4572,return,0.0373,,49.21875,,,,,,FBP-YG-71.png,0.35,1.2,16,0.5,0,17,17,15,1,,,,,,,,,,,,,,,,,,,,,,,,,,,,,,,,,,,,,,,,
,,,,,V1_019,18,Female,2024-05-16_15h32.52.215,jersey_experiment_5_v1,2023.2.2,Win32,84.74576271,,,,,,,,,,,,,,,,377.4574,378.7513,378.7513,380.7396,return,0.2443,,76.69270833,,,,,,FBP-YG-71.png,0.45,1.2,20,0.5,0,18,18,19,1,,,,,,,,,,,,,,,,,,,,,,,,,,,,,,,,,,,,,,,,
,,,,,V1_019,18,Female,2024-05-16_15h32.52.215,jersey_experiment_5_v1,2023.2.2,Win32,84.74576271,,,,,,,,,,,,,,,,380.7398,382.0336,382.0336,386.3398,return,0.2351,,40.10416667,,,,,,FBP-YG-91.png,0.35,1.2,26,0.5,0,19,19,25,1,,,,,,,,,,,,,,,,,,,,,,,,,,,,,,,,,,,,,,,,
,,,,,V1_019,18,Female,2024-05-16_15h32.52.215,jersey_experiment_5_v1,2023.2.2,Win32,84.74576271,,,,,,,,,,,,,,,,386.3399,387.6338,387.6338,389.6458,return,0.4732,,77.21354167,,,,,,FBP-RB-19.png,0.45,1.2,60,0.5,0,20,20,59,1,,,,,,,,,,,,,,,,,,,,,,,,,,,,,,,,,,,,,,,,
,,,,,V1_019,18,Female,2024-05-16_15h32.52.215,jersey_experiment_5_v1,2023.2.2,Win32,84.74576271,,,,,,,,,,,,,,,,389.646,391.4459,391.446,393.5401,return,0.9651,,88.671875,,,,,,FBP-PT-17.png,0.45,1.2,5,1,0,21,21,4,1,,,,,,,,,,,,,,,,,,,,,,,,,,,,,,,,,,,,,,,,
,,,,,V1_019,18,Female,2024-05-16_15h32.52.215,jersey_experiment_5_v1,2023.2.2,Win32,84.74576271,,,,,,,,,,,,,,,,393.5402,395.3403,395.3403,396.6694,return,0.1214,,79.55729167,,,,,,FBP-PT-18.png,0.37,1.2,7,1,0,22,22,6,1,,,,,,,,,,,,,,,,,,,,,,,,,,,,,,,,,,,,,,,,
,,,,,V1_019,18,Female,2024-05-16_15h32.52.215,jersey_experiment_5_v1,2023.2.2,Win32,84.74576271,,,,,,,,,,,,,,,,396.6696,397.9638,397.9638,399.7755,return,0.5062,,90.75520833,,,,,,FBP-RB-17.png,0.45,1.2,50,0.5,0,23,23,49,1,,,,,,,,,,,,,,,,,,,,,,,,,,,,,,,,,,,,,,,,
,,,,,V1_019,18,Female,2024-05-16_15h32.52.215,jersey_experiment_5_v1,2023.2.2,Win32,84.74576271,,,,,,,,,,,,,,,,399.7758,401.5756,401.5756,403.1403,return,0.2916,,90.36458333,,,,,,FBP-PT-19.png,0.4,1.2,13,1,0,24,24,12,1,,,,,,,,,,,,,,,,,,,,,,,,,,,,,,,,,,,,,,,,
,,,,,V1_019,18,Female,2024-05-16_15h32.52.215,jersey_experiment_5_v1,2023.2.2,Win32,84.74576271,,,,,,,,,,,,,,,,403.1404,404.4344,404.4345,407.7405,return,0.4501,,78.77604167,,,,,,FBP-OG-81.png,0.37,1.2,37,0.5,0,25,25,36,1,,,,,,,,,,,,,,,,,,,,,,,,,,,,,,,,,,,,,,,,
,,,,,V1_019,18,Female,2024-05-16_15h32.52.215,jersey_experiment_5_v1,2023.2.2,Win32,84.74576271,,,,,,,,,,,,,,,,407.7408,409.5404,409.5405,412.6114,return,0.0695,,71.09375,,,,,,FBP-PT-18.png,0.35,1.2,6,1,0,26,26,5,1,,,,,,,,,,,,,,,,,,,,,,,,,,,,,,,,,,,,,,,,
,,,,,V1_019,18,Female,2024-05-16_15h32.52.215,jersey_experiment_5_v1,2023.2.2,Win32,84.74576271,,,,,,,,,,,,,,,,412.6115,413.9053,413.9054,415.776,return,0.3546,,88.93229167,,,,,,FBP-OG-71.png,0.45,1.2,35,0.5,0,27,27,34,1,,,,,,,,,,,,,,,,,,,,,,,,,,,,,,,,,,,,,,,,
,,,,,V1_019,18,Female,2024-05-16_15h32.52.215,jersey_experiment_5_v1,2023.2.2,Win32,84.74576271,,,,,,,,,,,,,,,,415.7763,417.0702,417.0702,418.541,return,0.2989,,91.27604167,,,,,,FBP-RB-17.png,0.43,1.2,49,0.5,0,28,28,48,1,,,,,,,,,,,,,,,,,,,,,,,,,,,,,,,,,,,,,,,,
,,,,,V1_019,18,Female,2024-05-16_15h32.52.215,jersey_experiment_5_v1,2023.2.2,Win32,84.74576271,,,,,,,,,,,,,,,,418.5412,419.8351,419.8352,423.5059,return,0.3774,,56.77083333,,,,,,FBP-YG-81.png,0.35,1.2,21,0.5,0,29,29,20,1,,,,,,,,,,,,,,,,,,,,,,,,,,,,,,,,,,,,,,,,
,,,,,V1_019,18,Female,2024-05-16_15h32.52.215,jersey_experiment_5_v1,2023.2.2,Win32,84.74576271,,,,,,,,,,,,,,,,423.5061,424.8,424.8,427.7059,return,1.537,,82.55208333,,,,,,FBP-OG-81.png,0.43,1.2,39,0.5,0,30,30,38,1,,,,,,,,,,,,,,,,,,,,,,,,,,,,,,,,,,,,,,,,
,,,,,V1_019,18,Female,2024-05-16_15h32.52.215,jersey_experiment_5_v1,2023.2.2,Win32,84.74576271,,,,,,,,,,,,,,,,427.7061,429.0001,429.0001,431.5532,return,0.1643,,49.47916667,,,,,,FBP-RB-18.png,0.37,1.2,52,0.5,0,31,31,51,1,,,,,,,,,,,,,,,,,,,,,,,,,,,,,,,,,,,,,,,,
,,,,,V1_019,18,Female,2024-05-16_15h32.52.215,jersey_experiment_5_v1,2023.2.2,Win32,84.74576271,,,,,,,,,,,,,,,,431.5533,433.3533,433.3533,438.0592,return,0.4387,,49.08854167,,,,,,FBP-PT-19.png,0.37,1.2,12,1,0,32,32,11,1,,,,,,,,,,,,,,,,,,,,,,,,,,,,,,,,,,,,,,,,
,,,,,V1_019,18,Female,2024-05-16_15h32.52.215,jersey_experiment_5_v1,2023.2.2,Win32,84.74576271,,,,,,,,,,,,,,,,438.0594,439.3532,439.3532,441.0595,return,0.2727,,85.80729167,,,,,,FBP-YG-71.png,0.43,1.2,19,0.5,0,33,33,18,1,,,,,,,,,,,,,,,,,,,,,,,,,,,,,,,,,,,,,,,,
,,,,,V1_019,18,Female,2024-05-16_15h32.52.215,jersey_experiment_5_v1,2023.2.2,Win32,84.74576271,,,,,,,,,,,,,,,,441.0597,442.8594,442.8595,444.3183,return,0.2711,,85.546875,,,,,,FBP-PT-17.png,0.4,1.2,3,1,0,34,34,2,1,,,,,,,,,,,,,,,,,,,,,,,,,,,,,,,,,,,,,,,,
,,,,,V1_019,18,Female,2024-05-16_15h32.52.215,jersey_experiment_5_v1,2023.2.2,Win32,84.74576271,,,,,,,,,,,,,,,,444.3184,446.1184,446.1184,447.3068,return,0.2281,,85.546875,,,,,,FBP-PT-18.png,0.4,1.2,8,1,0,35,35,7,1,,,,,,,,,,,,,,,,,,,,,,,,,,,,,,,,,,,,,,,,
,,,,,V1_019,18,Female,2024-05-16_15h32.52.215,jersey_experiment_5_v1,2023.2.2,Win32,84.74576271,,,,,,,,,,,,,,,,447.307,448.601,448.601,450.0597,return,0.0627,,85.80729167,,,,,,FBP-RB-19.png,0.4,1.2,58,0.5,0,36,36,57,1,,,,,,,,,,,,,,,,,,,,,,,,,,,,,,,,,,,,,,,,
,,,,,V1_019,18,Female,2024-05-16_15h32.52.215,jersey_experiment_5_v1,2023.2.2,Win32,84.74576271,,,,,,,,,,,,,,,,450.0599,451.3538,451.3538,452.8128,return,0.2398,,86.97916667,,,,,,FBP-YG-91.png,0.43,1.2,29,0.5,0,37,37,28,1,,,,,,,,,,,,,,,,,,,,,,,,,,,,,,,,,,,,,,,,
,,,,,V1_019,18,Female,2024-05-16_15h32.52.215,jersey_experiment_5_v1,2023.2.2,Win32,84.74576271,,,,,,,,,,,,,,,,452.8129,454.1069,454.1069,457.0717,return,0.8016,,25.65104167,,,,,,FBP-RB-19.png,0.35,1.2,56,0.5,0,38,38,55,1,,,,,,,,,,,,,,,,,,,,,,,,,,,,,,,,,,,,,,,,
,,,,,V1_019,18,Female,2024-05-16_15h32.52.215,jersey_experiment_5_v1,2023.2.2,Win32,84.74576271,,,,,,,,,,,,,,,,457.0719,458.3658,458.3659,460.4835,return,0.1888,,33.72395833,,,,,,FBP-YG-81.png,0.4,1.2,23,0.5,0,39,39,22,1,,,,,,,,,,,,,,,,,,,,,,,,,,,,,,,,,,,,,,,,
,,,,,V1_019,18,Female,2024-05-16_15h32.52.215,jersey_experiment_5_v1,2023.2.2,Win32,84.74576271,,,,,,,,,,,,,,,,460.4837,461.7778,461.7778,463.3542,return,0.1486,,76.82291667,,,,,,FBP-OG-91.png,0.45,1.2,45,0.5,0,40,40,44,1,,,,,,,,,,,,,,,,,,,,,,,,,,,,,,,,,,,,,,,,
,,,,,V1_019,18,Female,2024-05-16_15h32.52.215,jersey_experiment_5_v1,2023.2.2,Win32,84.74576271,,,,,,,,,,,,,,,,463.3543,465.1545,465.1546,467.8251,return,0.2358,,26.43229167,,,,,,FBP-PT-17.png,0.35,1.2,1,1,0,41,41,0,1,,,,,,,,,,,,,,,,,,,,,,,,,,,,,,,,,,,,,,,,
,,,,,V1_019,18,Female,2024-05-16_15h32.52.215,jersey_experiment_5_v1,2023.2.2,Win32,84.74576271,,,,,,,,,,,,,,,,467.8253,469.6252,469.6252,472.7076,return,0.0605,,61.19791667,,,,,,FBP-PT-18.png,0.45,1.2,10,1,0,42,42,9,1,,,,,,,,,,,,,,,,,,,,,,,,,,,,,,,,,,,,,,,,
,,,,,V1_019,18,Female,2024-05-16_15h32.52.215,jersey_experiment_5_v1,2023.2.2,Win32,84.74576271,,,,,,,,,,,,,,,,472.7077,474.0018,474.0018,476.8489,return,0.1407,,50.390625,,,,,,FBP-OG-71.png,0.37,1.2,32,0.5,0,43,43,31,1,,,,,,,,,,,,,,,,,,,,,,,,,,,,,,,,,,,,,,,,
,,,,,V1_019,18,Female,2024-05-16_15h32.52.215,jersey_experiment_5_v1,2023.2.2,Win32,84.74576271,,,,,,,,,,,,,,,,476.8492,478.1432,478.1432,481.8019,return,0.2757,,58.07291667,,,,,,FBP-OG-71.png,0.43,1.2,34,0.5,0,44,44,33,1,,,,,,,,,,,,,,,,,,,,,,,,,,,,,,,,,,,,,,,,
,,,,,V1_019,18,Female,2024-05-16_15h32.52.215,jersey_experiment_5_v1,2023.2.2,Win32,84.74576271,,,,,,,,,,,,,,,,481.8021,483.0961,483.0962,485.9668,return,0.2615,,29.81770833,,,,,,FBP-YG-71.png,0.37,1.2,17,0.5,0,45,45,16,1,,,,,,,,,,,,,,,,,,,,,,,,,,,,,,,,,,,,,,,,
,,,,,V1_019,18,Female,2024-05-16_15h32.52.215,jersey_experiment_5_v1,2023.2.2,Win32,84.74576271,,,,,,,,,,,,,,,,485.967,487.261,487.2611,492.9906,return,0.0852,,54.94791667,,,,,,FBP-YG-81.png,0.45,1.2,25,0.5,0,46,46,24,1,,,,,,,,,,,,,,,,,,,,,,,,,,,,,,,,,,,,,,,,
,,,,,V1_019,18,Female,2024-05-16_15h32.52.215,jersey_experiment_5_v1,2023.2.2,Win32,84.74576271,,,,,,,,,,,,,,,,492.9909,494.7907,494.7907,500.0144,return,1.556,,60.67708333,,,,,,FBP-PT-19.png,0.43,1.2,14,1,0,47,47,13,1,,,,,,,,,,,,,,,,,,,,,,,,,,,,,,,,,,,,,,,,
,,,,,V1_019,18,Female,2024-05-16_15h32.52.215,jersey_experiment_5_v1,2023.2.2,Win32,84.74576271,,,,,,,,,,,,,,,,500.0145,501.8146,501.8146,504.1558,return,0.2176,,64.84375,,,,,,FBP-PT-19.png,0.45,1.2,15,1,0,48,48,14,1,,,,,,,,,,,,,,,,,,,,,,,,,,,,,,,,,,,,,,,,
,,,,,V1_019,18,Female,2024-05-16_15h32.52.215,jersey_experiment_5_v1,2023.2.2,Win32,84.74576271,,,,,,,,,,,,,,,,504.1559,505.4498,505.4499,509.2265,return,0.16,,56.38020833,,,,,,FBP-RB-18.png,0.45,1.2,55,0.5,0,49,49,54,1,,,,,,,,,,,,,,,,,,,,,,,,,,,,,,,,,,,,,,,,
,,,,,V1_019,18,Female,2024-05-16_15h32.52.215,jersey_experiment_5_v1,2023.2.2,Win32,84.74576271,,,,,,,,,,,,,,,,509.2267,510.5207,510.5208,513.0737,return,0.2352,,27.21354167,,,,,,FBP-RB-17.png,0.37,1.2,47,0.5,0,50,50,46,1,,,,,,,,,,,,,,,,,,,,,,,,,,,,,,,,,,,,,,,,
,,,,,V1_019,18,Female,2024-05-16_15h32.52.215,jersey_experiment_5_v1,2023.2.2,Win32,84.74576271,,,,,,,,,,,,,,,,513.0739,514.3678,514.3678,515.874,return,0.1754,,17.578125,,,,,,FBP-OG-91.png,0.35,1.2,41,0.5,0,51,51,40,1,,,,,,,,,,,,,,,,,,,,,,,,,,,,,,,,,,,,,,,,
,,,,,V1_019,18,Female,2024-05-16_15h32.52.215,jersey_experiment_5_v1,2023.2.2,Win32,84.74576271,,,,,,,,,,,,,,,,515.8741,517.6739,517.6739,520.1209,return,0.2189,,29.42708333,,,,,,FBP-PT-17.png,0.37,1.2,2,1,0,52,52,1,1,,,,,,,,,,,,,,,,,,,,,,,,,,,,,,,,,,,,,,,,
,,,,,V1_019,18,Female,2024-05-16_15h32.52.215,jersey_experiment_5_v1,2023.2.2,Win32,84.74576271,,,,,,,,,,,,,,,,520.1212,521.4152,521.4152,524.0272,return,0.4985,,16.40625,,,,,,FBP-OG-81.png,0.35,1.2,36,0.5,0,53,53,35,1,,,,,,,,,,,,,,,,,,,,,,,,,,,,,,,,,,,,,,,,
,,,,,V1_019,18,Female,2024-05-16_15h32.52.215,jersey_experiment_5_v1,2023.2.2,Win32,84.74576271,,,,,,,,,,,,,,,,524.0274,525.3213,525.3213,526.8977,return,0.3289,,18.88020833,,,,,,FBP-YG-91.png,0.4,1.2,28,0.5,0,54,54,27,1,,,,,,,,,,,,,,,,,,,,,,,,,,,,,,,,,,,,,,,,
,,,,,V1_019,18,Female,2024-05-16_15h32.52.215,jersey_experiment_5_v1,2023.2.2,Win32,84.74576271,,,,,,,,,,,,,,,,526.898,528.192,528.192,532.4981,return,0.1084,,52.08333333,,,,,,FBP-OG-81.png,0.45,1.2,40,0.5,0,55,55,39,1,,,,,,,,,,,,,,,,,,,,,,,,,,,,,,,,,,,,,,,,
,,,,,V1_019,18,Female,2024-05-16_15h32.52.215,jersey_experiment_5_v1,2023.2.2,Win32,84.74576271,,,,,,,,,,,,,,,,532.4983,533.7921,533.7922,536.3334,return,0.3555,,47.00520833,,,,,,FBP-OG-91.png,0.4,1.2,43,0.5,0,56,56,42,1,,,,,,,,,,,,,,,,,,,,,,,,,,,,,,,,,,,,,,,,
,,,,,V1_019,18,Female,2024-05-16_15h32.52.215,jersey_experiment_5_v1,2023.2.2,Win32,84.74576271,,,,,,,,,,,,,,,,536.3336,538.1334,538.1334,540.0982,return,0.1871,,75.91145833,,,,,,FBP-PT-18.png,0.43,1.2,9,1,0,57,57,8,1,,,,,,,,,,,,,,,,,,,,,,,,,,,,,,,,,,,,,,,,
,,,,,V1_019,18,Female,2024-05-16_15h32.52.215,jersey_experiment_5_v1,2023.2.2,Win32,84.74576271,,,,,,,,,,,,,,,,540.0985,541.3924,541.3924,543.3689,return,0.3025,,75.65104167,,,,,,FBP-OG-91.png,0.43,1.2,44,0.5,0,58,58,43,1,,,,,,,,,,,,,,,,,,,,,,,,,,,,,,,,,,,,,,,,
,,,,,V1_019,18,Female,2024-05-16_15h32.52.215,jersey_experiment_5_v1,2023.2.2,Win32,84.74576271,,,,,,,,,,,,,,,,543.3691,544.6631,544.6631,547.1811,return,0.1812,,73.046875,,,,,,FBP-OG-81.png,0.4,1.2,38,0.5,0,59,59,37,1,,,,,,,,,,,,,,,,,,,,,,,,,,,,,,,,,,,,,,,,
,,,,,V1_019,18,Female,2024-05-16_15h32.52.215,jersey_experiment_5_v1,2023.2.2,Win32,84.74576271,,,,,,,,,,,,,,,,,,,,,,,,,,,,,,,,,,,,,,,547.1814,667.1856,,,,,,,,,,,,,,,,,,,,,,,,,,,,,,,,,,,,,,
,,,,,V1_019,18,Female,2024-05-16_15h32.52.215,jersey_experiment_5_v1,2023.2.2,Win32,84.74576271,,,,,,,,,,,,,,,,,,,,,,,,,,,,,,,,,,,,,,,,,667.1857,682.7978,return,15.6036,,,,,,,,,,,,,,,,,,,,,,,,,,,,,,,,,,
,,,,,V1_019,18,Female,2024-05-16_15h32.52.215,jersey_experiment_5_v1,2023.2.2,Win32,84.74576271,,,,,,,,,,,,,,,,682.8044,684.1035,684.1035,687.3271,return,0.8001,,26.04166667,,,,,,FBP-PT-71.png,0.35,1.2,1,0.5,,,,,,,,,,,,,0,0,0,0,1,,,,,,,,,,,,,,,,,,,,,,,,,,,,
,,,,,V1_019,18,Female,2024-05-16_15h32.52.215,jersey_experiment_5_v1,2023.2.2,Win32,84.74576271,,,,,,,,,,,,,,,,687.3275,688.6213,688.6213,690.6566,return,0.4946,,77.21354167,,,,,,FBP-PT-91.png,0.43,1.2,14,0.5,,,,,,,,,,,,,0,1,1,13,1,,,,,,,,,,,,,,,,,,,,,,,,,,,,
,,,,,V1_019,18,Female,2024-05-16_15h32.52.215,jersey_experiment_5_v1,2023.2.2,Win32,84.74576271,,,,,,,,,,,,,,,,690.6568,691.9508,691.9508,692.9864,return,0.0874,,44.01041667,,,,,,FBP-PT-81.png,0.37,1.2,7,0.5,,,,,,,,,,,,,0,2,2,6,1,,,,,,,,,,,,,,,,,,,,,,,,,,,,
,,,,,V1_019,18,Female,2024-05-16_15h32.52.215,jersey_experiment_5_v1,2023.2.2,Win32,84.74576271,,,,,,,,,,,,,,,,692.9865,694.7861,694.7862,697.1863,return,0.202,,44.40104167,,,,,,FBP-YG-19.png,0.37,1.2,27,1,,,,,,,,,,,,,0,3,3,26,1,,,,,,,,,,,,,,,,,,,,,,,,,,,,
,,,,,V1_019,18,Female,2024-05-16_15h32.52.215,jersey_experiment_5_v1,2023.2.2,Win32,84.74576271,,,,,,,,,,,,,,,,697.1865,698.9864,698.9864,700.2217,return,0.2274,,89.32291667,,,,,,FBP-OG-18.png,0.45,1.2,40,1,,,,,,,,,,,,,0,4,4,39,1,,,,,,,,,,,,,,,,,,,,,,,,,,,,
,,,,,V1_019,18,Female,2024-05-16_15h32.52.215,jersey_experiment_5_v1,2023.2.2,Win32,84.74576271,,,,,,,,,,,,,,,,700.2219,702.0217,702.0217,703.0099,return,0.0707,,82.8125,,,,,,FBP-RB-91.png,0.4,1.2,58,1,,,,,,,,,,,,,0,5,5,57,1,,,,,,,,,,,,,,,,,,,,,,,,,,,,
,,,,,V1_019,18,Female,2024-05-16_15h32.52.215,jersey_experiment_5_v1,2023.2.2,Win32,84.74576271,,,,,,,,,,,,,,,,703.0101,704.8103,704.8103,706.4572,return,0.6419,,88.41145833,,,,,,FBP-YG-19.png,0.45,1.2,30,1,,,,,,,,,,,,,0,6,6,29,1,,,,,,,,,,,,,,,,,,,,,,,,,,,,
,,,,,V1_019,18,Female,2024-05-16_15h32.52.215,jersey_experiment_5_v1,2023.2.2,Win32,84.74576271,,,,,,,,,,,,,,,,706.4575,708.2571,708.2573,711.634,return,0.5083,,56.77083333,,,,,,FBP-OG-19.png,0.35,1.2,41,1,,,,,,,,,,,,,0,7,7,40,1,,,,,,,,,,,,,,,,,,,,,,,,,,,,
,,,,,V1_019,18,Female,2024-05-16_15h32.52.215,jersey_experiment_5_v1,2023.2.2,Win32,84.74576271,,,,,,,,,,,,,,,,711.6344,713.434,713.434,714.7634,return,0.7944,,78.515625,,,,,,FBP-OG-18.png,0.4,1.2,38,1,,,,,,,,,,,,,0,8,8,37,1,,,,,,,,,,,,,,,,,,,,,,,,,,,,
,,,,,V1_019,18,Female,2024-05-16_15h32.52.215,jersey_experiment_5_v1,2023.2.2,Win32,84.74576271,,,,,,,,,,,,,,,,714.7637,716.5634,716.5634,718.9636,return,0.9177,,84.765625,,,,,,FBP-RB-81.png,0.4,1.2,53,1,,,,,,,,,,,,,0,9,9,52,1,,,,,,,,,,,,,,,,,,,,,,,,,,,,
,,,,,V1_019,18,Female,2024-05-16_15h32.52.215,jersey_experiment_5_v1,2023.2.2,Win32,84.74576271,,,,,,,,,,,,,,,,718.9639,720.7637,720.7637,722.4813,return,0.7897,,88.54166667,,,,,,FBP-OG-19.png,0.45,1.2,45,1,,,,,,,,,,,,,0,10,10,44,1,,,,,,,,,,,,,,,,,,,,,,,,,,,,
,,,,,V1_019,18,Female,2024-05-16_15h32.52.215,jersey_experiment_5_v1,2023.2.2,Win32,84.74576271,,,,,,,,,,,,,,,,722.4815,724.2813,724.2813,725.3637,return,0.5982,,91.66666667,,,,,,FBP-RB-71.png,0.43,1.2,49,1,,,,,,,,,,,,,0,11,11,48,1,,,,,,,,,,,,,,,,,,,,,,,,,,,,
,,,,,V1_019,18,Female,2024-05-16_15h32.52.215,jersey_experiment_5_v1,2023.2.2,Win32,84.74576271,,,,,,,,,,,,,,,,725.3638,727.164,727.164,728.7521,return,0.5519,,24.86979167,,,,,,FBP-RB-71.png,0.35,1.2,46,1,,,,,,,,,,,,,0,12,12,45,1,,,,,,,,,,,,,,,,,,,,,,,,,,,,
,,,,,V1_019,18,Female,2024-05-16_15h32.52.215,jersey_experiment_5_v1,2023.2.2,Win32,84.74576271,,,,,,,,,,,,,,,,728.7523,730.5525,730.5525,734.27,return,2.086,,82.94270833,,,,,,FBP-YG-18.png,0.45,1.2,25,1,,,,,,,,,,,,,0,13,13,24,1,,,,,,,,,,,,,,,,,,,,,,,,,,,,
,,,,,V1_019,18,Female,2024-05-16_15h32.52.215,jersey_experiment_5_v1,2023.2.2,Win32,84.74576271,,,,,,,,,,,,,,,,734.2702,736.0701,736.0701,738.3642,return,0.6052,,83.59375,,,,,,FBP-OG-17.png,0.4,1.2,33,1,,,,,,,,,,,,,0,14,14,32,1,,,,,,,,,,,,,,,,,,,,,,,,,,,,
,,,,,V1_019,18,Female,2024-05-16_15h32.52.215,jersey_experiment_5_v1,2023.2.2,Win32,84.74576271,,,,,,,,,,,,,,,,738.3645,740.1642,740.1642,742.729,return,0.9837,,91.27604167,,,,,,FBP-RB-71.png,0.45,1.2,50,1,,,,,,,,,,,,,0,15,15,49,1,,,,,,,,,,,,,,,,,,,,,,,,,,,,
,,,,,V1_019,18,Female,2024-05-16_15h32.52.215,jersey_experiment_5_v1,2023.2.2,Win32,84.74576271,,,,,,,,,,,,,,,,742.7292,744.5292,744.5292,746.3292,return,0.6535,,85.9375,,,,,,FBP-RB-91.png,0.45,1.2,60,1,,,,,,,,,,,,,0,16,16,59,1,,,,,,,,,,,,,,,,,,,,,,,,,,,,
,,,,,V1_019,18,Female,2024-05-16_15h32.52.215,jersey_experiment_5_v1,2023.2.2,Win32,84.74576271,,,,,,,,,,,,,,,,746.3294,748.1293,748.1293,750.5765,return,0.7198,,87.5,,,,,,FBP-RB-81.png,0.45,1.2,55,1,,,,,,,,,,,,,0,17,17,54,1,,,,,,,,,,,,,,,,,,,,,,,,,,,,
,,,,,V1_019,18,Female,2024-05-16_15h32.52.215,jersey_experiment_5_v1,2023.2.2,Win32,84.74576271,,,,,,,,,,,,,,,,750.5768,752.3764,752.3765,755.0589,return,1.4922,,86.328125,,,,,,FBP-YG-19.png,0.43,1.2,29,1,,,,,,,,,,,,,0,18,18,28,1,,,,,,,,,,,,,,,,,,,,,,,,,,,,
,,,,,V1_019,18,Female,2024-05-16_15h32.52.215,jersey_experiment_5_v1,2023.2.2,Win32,84.74576271,,,,,,,,,,,,,,,,755.0592,756.8591,756.8591,759.2591,return,0.5934,,37.109375,,,,,,FBP-YG-17.png,0.37,1.2,17,1,,,,,,,,,,,,,0,19,19,16,1,,,,,,,,,,,,,,,,,,,,,,,,,,,,
,,,,,V1_019,18,Female,2024-05-16_15h32.52.215,jersey_experiment_5_v1,2023.2.2,Win32,84.74576271,,,,,,,,,,,,,,,,759.2594,761.0591,761.0591,763.024,return,0.5652,,31.77083333,,,,,,FBP-RB-71.png,0.37,1.2,47,1,,,,,,,,,,,,,0,20,20,46,1,,,,,,,,,,,,,,,,,,,,,,,,,,,,
,,,,,V1_019,18,Female,2024-05-16_15h32.52.215,jersey_experiment_5_v1,2023.2.2,Win32,84.74576271,,,,,,,,,,,,,,,,763.0241,764.8239,764.824,767.0829,return,0.5567,,62.109375,,,,,,FBP-YG-18.png,0.4,1.2,23,1,,,,,,,,,,,,,0,21,21,22,1,,,,,,,,,,,,,,,,,,,,,,,,,,,,
,,,,,V1_019,18,Female,2024-05-16_15h32.52.215,jersey_experiment_5_v1,2023.2.2,Win32,84.74576271,,,,,,,,,,,,,,,,767.0831,768.377,768.377,770.5067,return,0.7586,,31.640625,,,,,,FBP-PT-91.png,0.35,1.2,11,0.5,,,,,,,,,,,,,0,22,22,10,1,,,,,,,,,,,,,,,,,,,,,,,,,,,,
,,,,,V1_019,18,Female,2024-05-16_15h32.52.215,jersey_experiment_5_v1,2023.2.2,Win32,84.74576271,,,,,,,,,,,,,,,,770.5068,772.3066,772.3066,774.1889,return,0.5455,,33.46354167,,,,,,FBP-YG-17.png,0.35,1.2,16,1,,,,,,,,,,,,,0,23,23,15,1,,,,,,,,,,,,,,,,,,,,,,,,,,,,
,,,,,V1_019,18,Female,2024-05-16_15h32.52.215,jersey_experiment_5_v1,2023.2.2,Win32,84.74576271,,,,,,,,,,,,,,,,774.1891,775.9891,775.9891,777.6008,return,0.6117,,88.02083333,,,,,,FBP-YG-18.png,0.43,1.2,24,1,,,,,,,,,,,,,0,24,24,23,1,,,,,,,,,,,,,,,,,,,,,,,,,,,,
,,,,,V1_019,18,Female,2024-05-16_15h32.52.215,jersey_experiment_5_v1,2023.2.2,Win32,84.74576271,,,,,,,,,,,,,,,,777.601,779.401,779.401,782.4834,return,1.5304,,58.984375,,,,,,FBP-OG-17.png,0.35,1.2,31,1,,,,,,,,,,,,,0,25,25,30,1,,,,,,,,,,,,,,,,,,,,,,,,,,,,
,,,,,V1_019,18,Female,2024-05-16_15h32.52.215,jersey_experiment_5_v1,2023.2.2,Win32,84.74576271,,,,,,,,,,,,,,,,782.4837,784.2835,784.2835,786.6719,return,0.4843,,64.19270833,,,,,,FBP-RB-81.png,0.37,1.2,52,1,,,,,,,,,,,,,0,26,26,51,1,,,,,,,,,,,,,,,,,,,,,,,,,,,,
,,,,,V1_019,18,Female,2024-05-16_15h32.52.215,jersey_experiment_5_v1,2023.2.2,Win32,84.74576271,,,,,,,,,,,,,,,,786.6721,787.966,787.966,789.3308,return,0.0947,,87.109375,,,,,,FBP-PT-91.png,0.45,1.2,15,0.5,,,,,,,,,,,,,0,27,27,14,1,,,,,,,,,,,,,,,,,,,,,,,,,,,,
,,,,,V1_019,18,Female,2024-05-16_15h32.52.215,jersey_experiment_5_v1,2023.2.2,Win32,84.74576271,,,,,,,,,,,,,,,,789.331,790.625,790.6251,792.1427,return,0.1907,,39.0625,,,,,,FBP-PT-81.png,0.35,1.2,6,0.5,,,,,,,,,,,,,0,28,28,5,1,,,,,,,,,,,,,,,,,,,,,,,,,,,,
,,,,,V1_019,18,Female,2024-05-16_15h32.52.215,jersey_experiment_5_v1,2023.2.2,Win32,84.74576271,,,,,,,,,,,,,,,,792.1428,793.9427,793.9427,795.2135,return,0.1672,,39.71354167,,,,,,FBP-OG-19.png,0.37,1.2,42,1,,,,,,,,,,,,,0,29,29,41,1,,,,,,,,,,,,,,,,,,,,,,,,,,,,
,,,,,V1_019,18,Female,2024-05-16_15h32.52.215,jersey_experiment_5_v1,2023.2.2,Win32,84.74576271,,,,,,,,,,,,,,,,795.2137,797.0134,797.0134,798.4137,return,0.0887,,76.171875,,,,,,FBP-OG-19.png,0.4,1.2,43,1,,,,,,,,,,,,,0,30,30,42,1,,,,,,,,,,,,,,,,,,,,,,,,,,,,
,,,,,V1_019,18,Female,2024-05-16_15h32.52.215,jersey_experiment_5_v1,2023.2.2,Win32,84.74576271,,,,,,,,,,,,,,,,798.4139,800.2167,800.2167,800.9921,return,0.0927,,84.765625,,,,,,FBP-OG-19.png,0.43,1.2,44,1,,,,,,,,,,,,,0,31,31,43,1,,,,,,,,,,,,,,,,,,,,,,,,,,,,
,,,,,V1_019,18,Female,2024-05-16_15h32.52.215,jersey_experiment_5_v1,2023.2.2,Win32,84.74576271,,,,,,,,,,,,,,,,800.9923,802.7901,802.7901,804.8137,return,0.227,,81.51041667,,,,,,FBP-YG-17.png,0.4,1.2,18,1,,,,,,,,,,,,,0,32,32,17,1,,,,,,,,,,,,,,,,,,,,,,,,,,,,
,,,,,V1_019,18,Female,2024-05-16_15h32.52.215,jersey_experiment_5_v1,2023.2.2,Win32,84.74576271,,,,,,,,,,,,,,,,804.814,806.1078,806.1079,808.461,return,0.2747,,78.77604167,,,,,,FBP-PT-71.png,0.4,1.2,3,0.5,,,,,,,,,,,,,0,33,33,2,1,,,,,,,,,,,,,,,,,,,,,,,,,,,,
,,,,,V1_019,18,Female,2024-05-16_15h32.52.215,jersey_experiment_5_v1,2023.2.2,Win32,84.74576271,,,,,,,,,,,,,,,,808.4612,810.2657,810.2657,810.8542,return,0.0371,,87.890625,,,,,,FBP-OG-17.png,0.45,1.2,35,1,,,,,,,,,,,,,0,34,34,34,1,,,,,,,,,,,,,,,,,,,,,,,,,,,,
,,,,,V1_019,18,Female,2024-05-16_15h32.52.215,jersey_experiment_5_v1,2023.2.2,Win32,84.74576271,,,,,,,,,,,,,,,,810.8543,812.6525,812.6525,813.8189,return,0.3294,,21.484375,,,,,,FBP-OG-18.png,0.35,1.2,36,1,,,,,,,,,,,,,0,35,35,35,1,,,,,,,,,,,,,,,,,,,,,,,,,,,,
,,,,,V1_019,18,Female,2024-05-16_15h32.52.215,jersey_experiment_5_v1,2023.2.2,Win32,84.74576271,,,,,,,,,,,,,,,,813.8192,815.6173,815.6173,817.3083,return,0.2387,,13.93229167,,,,,,FBP-RB-81.png,0.35,1.2,51,1,,,,,,,,,,,,,0,36,36,50,1,,,,,,,,,,,,,,,,,,,,,,,,,,,,
,,,,,V1_019,18,Female,2024-05-16_15h32.52.215,jersey_experiment_5_v1,2023.2.2,Win32,84.74576271,,,,,,,,,,,,,,,,817.3085,819.1133,819.1134,820.2058,return,0.3397,,84.89583333,,,,,,FBP-RB-91.png,0.43,1.2,59,1,,,,,,,,,,,,,0,37,37,58,1,,,,,,,,,,,,,,,,,,,,,,,,,,,,
,,,,,V1_019,18,Female,2024-05-16_15h32.52.215,jersey_experiment_5_v1,2023.2.2,Win32,84.74576271,,,,,,,,,,,,,,,,820.2059,821.5134,821.5134,823.5708,return,0.9754,,83.72395833,,,,,,FBP-PT-81.png,0.4,1.2,8,0.5,,,,,,,,,,,,,0,38,38,7,1,,,,,,,,,,,,,,,,,,,,,,,,,,,,
,,,,,V1_019,18,Female,2024-05-16_15h32.52.215,jersey_experiment_5_v1,2023.2.2,Win32,84.74576271,,,,,,,,,,,,,,,,823.571,825.372,825.372,826.4179,return,0.1518,,84.63541667,,,,,,FBP-YG-17.png,0.45,1.2,20,1,,,,,,,,,,,,,0,39,39,19,1,,,,,,,,,,,,,,,,,,,,,,,,,,,,
,,,,,V1_019,18,Female,2024-05-16_15h32.52.215,jersey_experiment_5_v1,2023.2.2,Win32,84.74576271,,,,,,,,,,,,,,,,826.418,827.7249,827.7249,829.7829,return,0.905,,86.19791667,,,,,,FBP-PT-71.png,0.43,1.2,4,0.5,,,,,,,,,,,,,0,40,40,3,1,,,,,,,,,,,,,,,,,,,,,,,,,,,,
,,,,,V1_019,18,Female,2024-05-16_15h32.52.215,jersey_experiment_5_v1,2023.2.2,Win32,84.74576271,,,,,,,,,,,,,,,,829.7831,831.5841,831.5841,833.497,return,0.0668,,28.25520833,,,,,,FBP-OG-17.png,0.37,1.2,32,1,,,,,,,,,,,,,0,41,41,31,1,,,,,,,,,,,,,,,,,,,,,,,,,,,,
,,,,,V1_019,18,Female,2024-05-16_15h32.52.215,jersey_experiment_5_v1,2023.2.2,Win32,84.74576271,,,,,,,,,,,,,,,,833.4974,834.7913,834.7913,836.042,return,0.1182,,31.51041667,,,,,,FBP-PT-91.png,0.4,1.2,13,0.5,,,,,,,,,,,,,0,42,42,12,1,,,,,,,,,,,,,,,,,,,,,,,,,,,,
,,,,,V1_019,18,Female,2024-05-16_15h32.52.215,jersey_experiment_5_v1,2023.2.2,Win32,84.74576271,,,,,,,,,,,,,,,,836.0421,837.8432,837.8432,840.6669,return,0.1416,,41.14583333,,,,,,FBP-YG-19.png,0.4,1.2,28,1,,,,,,,,,,,,,0,43,43,27,1,,,,,,,,,,,,,,,,,,,,,,,,,,,,
,,,,,V1_019,18,Female,2024-05-16_15h32.52.215,jersey_experiment_5_v1,2023.2.2,Win32,84.74576271,,,,,,,,,,,,,,,,840.667,842.4653,842.4653,844.4269,return,0.1104,,72.39583333,,,,,,FBP-RB-81.png,0.43,1.2,54,1,,,,,,,,,,,,,0,44,44,53,1,,,,,,,,,,,,,,,,,,,,,,,,,,,,
,,,,,V1_019,18,Female,2024-05-16_15h32.52.215,jersey_experiment_5_v1,2023.2.2,Win32,84.74576271,,,,,,,,,,,,,,,,844.4271,846.2307,846.2307,847.6326,return,0.0716,,20.3125,,,,,,FBP-YG-19.png,0.35,1.2,26,1,,,,,,,,,,,,,0,45,45,25,1,,,,,,,,,,,,,,,,,,,,,,,,,,,,
,,,,,V1_019,18,Female,2024-05-16_15h32.52.215,jersey_experiment_5_v1,2023.2.2,Win32,84.74576271,,,,,,,,,,,,,,,,847.6329,849.4273,849.4273,851.1619,return,0.0611,,23.69791667,,,,,,FBP-YG-18.png,0.35,1.2,21,1,,,,,,,,,,,,,0,46,46,20,1,,,,,,,,,,,,,,,,,,,,,,,,,,,,
,,,,,V1_019,18,Female,2024-05-16_15h32.52.215,jersey_experiment_5_v1,2023.2.2,Win32,84.74576271,,,,,,,,,,,,,,,,851.1621,852.4554,852.4554,855.4038,return,0.1451,,77.99479167,,,,,,FBP-PT-71.png,0.45,1.2,5,0.5,,,,,,,,,,,,,0,47,47,4,1,,,,,,,,,,,,,,,,,,,,,,,,,,,,
,,,,,V1_019,18,Female,2024-05-16_15h32.52.215,jersey_experiment_5_v1,2023.2.2,Win32,84.74576271,,,,,,,,,,,,,,,,855.404,857.2084,857.2084,861.4782,return,1.1632,,82.94270833,,,,,,FBP-OG-18.png,0.43,1.2,39,1,,,,,,,,,,,,,0,48,48,38,1,,,,,,,,,,,,,,,,,,,,,,,,,,,,
,,,,,V1_019,18,Female,2024-05-16_15h32.52.215,jersey_experiment_5_v1,2023.2.2,Win32,84.74576271,,,,,,,,,,,,,,,,861.4784,863.2747,863.2747,865.8075,return,0.9415,,58.72395833,,,,,,FBP-RB-91.png,0.37,1.2,57,1,,,,,,,,,,,,,0,49,49,56,1,,,,,,,,,,,,,,,,,,,,,,,,,,,,
,,,,,V1_019,18,Female,2024-05-16_15h32.52.215,jersey_experiment_5_v1,2023.2.2,Win32,84.74576271,,,,,,,,,,,,,,,,865.8077,867.6042,867.6043,869.9022,return,0.7065,,23.046875,,,,,,FBP-OG-18.png,0.37,1.2,37,1,,,,,,,,,,,,,0,50,50,36,1,,,,,,,,,,,,,,,,,,,,,,,,,,,,
,,,,,V1_019,18,Female,2024-05-16_15h32.52.215,jersey_experiment_5_v1,2023.2.2,Win32,84.74576271,,,,,,,,,,,,,,,,869.9023,871.2091,871.2091,873.3104,return,0.9086,,23.4375,,,,,,FBP-PT-91.png,0.37,1.2,12,0.5,,,,,,,,,,,,,0,51,51,11,1,,,,,,,,,,,,,,,,,,,,,,,,,,,,
,,,,,V1_019,18,Female,2024-05-16_15h32.52.215,jersey_experiment_5_v1,2023.2.2,Win32,84.74576271,,,,,,,,,,,,,,,,873.3106,875.1149,875.1149,876.7458,return,0.7485,,86.328125,,,,,,FBP-OG-17.png,0.43,1.2,34,1,,,,,,,,,,,,,0,52,52,33,1,,,,,,,,,,,,,,,,,,,,,,,,,,,,
,,,,,V1_019,18,Female,2024-05-16_15h32.52.215,jersey_experiment_5_v1,2023.2.2,Win32,84.74576271,,,,,,,,,,,,,,,,876.7459,878.5458,878.5458,880.4635,return,0.6122,,87.76041667,,,,,,FBP-RB-71.png,0.4,1.2,48,1,,,,,,,,,,,,,0,53,53,47,1,,,,,,,,,,,,,,,,,,,,,,,,,,,,
,,,,,V1_019,18,Female,2024-05-16_15h32.52.215,jersey_experiment_5_v1,2023.2.2,Win32,84.74576271,,,,,,,,,,,,,,,,880.4637,881.7609,881.7609,884.5855,return,0.5759,,70.703125,,,,,,FBP-PT-71.png,0.37,1.2,2,0.5,,,,,,,,,,,,,0,54,54,1,1,,,,,,,,,,,,,,,,,,,,,,,,,,,,
,,,,,V1_019,18,Female,2024-05-16_15h32.52.215,jersey_experiment_5_v1,2023.2.2,Win32,84.74576271,,,,,,,,,,,,,,,,884.5856,886.3867,886.3867,887.2283,return,0.0987,,68.09895833,,,,,,FBP-YG-18.png,0.37,1.2,22,1,,,,,,,,,,,,,0,55,55,21,1,,,,,,,,,,,,,,,,,,,,,,,,,,,,
,,,,,V1_019,18,Female,2024-05-16_15h32.52.215,jersey_experiment_5_v1,2023.2.2,Win32,84.74576271,,,,,,,,,,,,,,,,887.2285,889.0215,889.0215,890.3735,return,0.3403,,60.41666667,,,,,,FBP-RB-91.png,0.35,1.2,56,1,,,,,,,,,,,,,0,56,56,55,1,,,,,,,,,,,,,,,,,,,,,,,,,,,,
,,,,,V1_019,18,Female,2024-05-16_15h32.52.215,jersey_experiment_5_v1,2023.2.2,Win32,84.74576271,,,,,,,,,,,,,,,,890.3737,892.1744,892.1744,893.8051,return,0.7312,,88.93229167,,,,,,FBP-YG-17.png,0.43,1.2,19,1,,,,,,,,,,,,,0,57,57,18,1,,,,,,,,,,,,,,,,,,,,,,,,,,,,
,,,,,V1_019,18,Female,2024-05-16_15h32.52.215,jersey_experiment_5_v1,2023.2.2,Win32,84.74576271,,,,,,,,,,,,,,,,893.8053,895.1026,895.1026,896.3497,return,0.2351,,92.70833333,,,,,,FBP-PT-81.png,0.45,1.2,10,0.5,,,,,,,,,,,,,0,58,58,9,1,,,,,,,,,,,,,,,,,,,,,,,,,,,,
,,,,,V1_019,18,Female,2024-05-16_15h32.52.215,jersey_experiment_5_v1,2023.2.2,Win32,84.74576271,,,,,,,,,,,,,,,,896.3498,897.6573,897.6573,899.3853,return,0.7061,,90.75520833,,,,,,FBP-PT-81.png,0.43,1.2,9,0.5,,,,,,,,,,,,,0,59,59,8,1,,,,,,,,,,,,,,,,,,,,,,,,,,,,
,,,,,V1_019,18,Female,2024-05-16_15h32.52.215,jersey_experiment_5_v1,2023.2.2,Win32,84.74576271,,,,,,,,,,,,,,,,899.3871,900.6923,900.6923,902.6407,return,1.1397,,91.14583333,,,,,,FBP-PT-18.png,0.43,1.2,9,0.5,,,,,,,,,,,,,,,,,,0,0,0,8,1,,,,,,,,,,,,,,,,,,,,,,,
,,,,,V1_019,18,Female,2024-05-16_15h32.52.215,jersey_experiment_5_v1,2023.2.2,Win32,84.74576271,,,,,,,,,,,,,,,,902.6411,904.4442,904.4443,905.6916,return,0.4476,,91.14583333,,,,,,FBP-RB-19.png,0.43,1.2,59,1,,,,,,,,,,,,,,,,,,0,1,1,58,1,,,,,,,,,,,,,,,,,,,,,,,
,,,,,V1_019,18,Female,2024-05-16_15h32.52.215,jersey_experiment_5_v1,2023.2.2,Win32,84.74576271,,,,,,,,,,,,,,,,905.6918,907.4881,907.4881,910.0107,return,0.6726,,80.59895833,,,,,,FBP-RB-19.png,0.4,1.2,58,1,,,,,,,,,,,,,,,,,,0,2,2,57,1,,,,,,,,,,,,,,,,,,,,,,,
,,,,,V1_019,18,Female,2024-05-16_15h32.52.215,jersey_experiment_5_v1,2023.2.2,Win32,84.74576271,,,,,,,,,,,,,,,,910.0109,911.8099,911.8099,913.2765,return,0.1088,,87.76041667,,,,,,FBP-OG-91.png,0.45,1.2,45,1,,,,,,,,,,,,,,,,,,0,3,3,44,1,,,,,,,,,,,,,,,,,,,,,,,
,,,,,V1_019,18,Female,2024-05-16_15h32.52.215,jersey_experiment_5_v1,2023.2.2,Win32,84.74576271,,,,,,,,,,,,,,,,913.2766,915.0767,915.0767,916.4413,return,0.1476,,90.88541667,,,,,,FBP-RB-17.png,0.45,1.2,50,1,,,,,,,,,,,,,,,,,,0,4,4,49,1,,,,,,,,,,,,,,,,,,,,,,,
,,,,,V1_019,18,Female,2024-05-16_15h32.52.215,jersey_experiment_5_v1,2023.2.2,Win32,84.74576271,,,,,,,,,,,,,,,,916.4415,917.7385,917.7385,921.1356,return,0.6611,,18.88020833,,,,,,FBP-PT-18.png,0.35,1.2,6,0.5,,,,,,,,,,,,,,,,,,0,5,5,5,1,,,,,,,,,,,,,,,,,,,,,,,
,,,,,V1_019,18,Female,2024-05-16_15h32.52.215,jersey_experiment_5_v1,2023.2.2,Win32,84.74576271,,,,,,,,,,,,,,,,921.1357,922.4342,922.4343,923.5357,return,0.1662,,20.3125,,,,,,FBP-PT-17.png,0.37,1.2,2,0.5,,,,,,,,,,,,,,,,,,0,6,6,1,1,,,,,,,,,,,,,,,,,,,,,,,
,,,,,V1_019,18,Female,2024-05-16_15h32.52.215,jersey_experiment_5_v1,2023.2.2,Win32,84.74576271,,,,,,,,,,,,,,,,923.5358,925.339,925.339,926.6332,return,0.0574,,20.18229167,,,,,,FBP-RB-17.png,0.37,1.2,47,1,,,,,,,,,,,,,,,,,,0,7,7,46,1,,,,,,,,,,,,,,,,,,,,,,,
,,,,,V1_019,18,Female,2024-05-16_15h32.52.215,jersey_experiment_5_v1,2023.2.2,Win32,84.74576271,,,,,,,,,,,,,,,,926.6333,928.4346,928.4347,929.5478,return,0.1818,,81.51041667,,,,,,FBP-OG-71.png,0.43,1.2,34,1,,,,,,,,,,,,,,,,,,0,8,8,33,1,,,,,,,,,,,,,,,,,,,,,,,
,,,,,V1_019,18,Female,2024-05-16_15h32.52.215,jersey_experiment_5_v1,2023.2.2,Win32,84.74576271,,,,,,,,,,,,,,,,929.5479,931.3477,931.3478,932.2066,return,0.2609,,81.25,,,,,,FBP-OG-91.png,0.4,1.2,43,1,,,,,,,,,,,,,,,,,,0,9,9,42,1,,,,,,,,,,,,,,,,,,,,,,,
,,,,,V1_019,18,Female,2024-05-16_15h32.52.215,jersey_experiment_5_v1,2023.2.2,Win32,84.74576271,,,,,,,,,,,,,,,,932.2067,934.0115,934.0116,934.7832,return,0.2474,,85.41666667,,,,,,FBP-OG-71.png,0.4,1.2,33,1,,,,,,,,,,,,,,,,,,0,10,10,32,1,,,,,,,,,,,,,,,,,,,,,,,
,,,,,V1_019,18,Female,2024-05-16_15h32.52.215,jersey_experiment_5_v1,2023.2.2,Win32,84.74576271,,,,,,,,,,,,,,,,934.7834,936.5867,936.5867,939.2588,return,0.1887,,77.734375,,,,,,FBP-OG-81.png,0.4,1.2,38,1,,,,,,,,,,,,,,,,,,0,11,11,37,1,,,,,,,,,,,,,,,,,,,,,,,
,,,,,V1_019,18,Female,2024-05-16_15h32.52.215,jersey_experiment_5_v1,2023.2.2,Win32,84.74576271,,,,,,,,,,,,,,,,939.259,940.5528,940.5529,941.3766,return,0.1179,,85.02604167,,,,,,FBP-PT-17.png,0.45,1.2,5,0.5,,,,,,,,,,,,,,,,,,0,12,12,4,1,,,,,,,,,,,,,,,,,,,,,,,
,,,,,V1_019,18,Female,2024-05-16_15h32.52.215,jersey_experiment_5_v1,2023.2.2,Win32,84.74576271,,,,,,,,,,,,,,,,941.3768,943.1717,943.1717,944.1165,return,0.2226,,82.94270833,,,,,,FBP-YG-81.png,0.37,1.2,22,1,,,,,,,,,,,,,,,,,,0,13,13,21,1,,,,,,,,,,,,,,,,,,,,,,,
,,,,,V1_019,18,Female,2024-05-16_15h32.52.215,jersey_experiment_5_v1,2023.2.2,Win32,84.74576271,,,,,,,,,,,,,,,,944.1167,945.4188,945.4188,947.0579,return,0.1754,,70.703125,,,,,,FBP-PT-19.png,0.43,1.2,14,0.5,,,,,,,,,,,,,,,,,,0,14,14,13,1,,,,,,,,,,,,,,,,,,,,,,,
,,,,,V1_019,18,Female,2024-05-16_15h32.52.215,jersey_experiment_5_v1,2023.2.2,Win32,84.74576271,,,,,,,,,,,,,,,,947.058,948.8542,948.8542,949.5954,return,0.1114,,87.36979167,,,,,,FBP-RB-18.png,0.45,1.2,55,1,,,,,,,,,,,,,,,,,,0,15,15,54,1,,,,,,,,,,,,,,,,,,,,,,,
,,,,,V1_019,18,Female,2024-05-16_15h32.52.215,jersey_experiment_5_v1,2023.2.2,Win32,84.74576271,,,,,,,,,,,,,,,,949.5957,950.8897,950.8897,952.177,return,0.071,,36.84895833,,,,,,FBP-PT-19.png,0.35,1.2,11,0.5,,,,,,,,,,,,,,,,,,0,16,16,10,1,,,,,,,,,,,,,,,,,,,,,,,
,,,,,V1_019,18,Female,2024-05-16_15h32.52.215,jersey_experiment_5_v1,2023.2.2,Win32,84.74576271,,,,,,,,,,,,,,,,952.1771,953.478,953.478,954.54,return,0.2586,,36.84895833,,,,,,FBP-PT-18.png,0.37,1.2,7,0.5,,,,,,,,,,,,,,,,,,0,17,17,6,1,,,,,,,,,,,,,,,,,,,,,,,
,,,,,V1_019,18,Female,2024-05-16_15h32.52.215,jersey_experiment_5_v1,2023.2.2,Win32,84.74576271,,,,,,,,,,,,,,,,954.5401,956.3417,956.3417,957.9133,return,0.5251,,85.15625,,,,,,FBP-OG-81.png,0.45,1.2,40,1,,,,,,,,,,,,,,,,,,0,18,18,39,1,,,,,,,,,,,,,,,,,,,,,,,
,,,,,V1_019,18,Female,2024-05-16_15h32.52.215,jersey_experiment_5_v1,2023.2.2,Win32,84.74576271,,,,,,,,,,,,,,,,957.9135,959.7063,959.7063,960.6945,return,0.1642,,75.390625,,,,,,FBP-OG-71.png,0.37,1.2,32,1,,,,,,,,,,,,,,,,,,0,19,19,31,1,,,,,,,,,,,,,,,,,,,,,,,
,,,,,V1_019,18,Female,2024-05-16_15h32.52.215,jersey_experiment_5_v1,2023.2.2,Win32,84.74576271,,,,,,,,,,,,,,,,960.6946,962.4933,962.4934,963.4193,return,0.0626,,77.47395833,,,,,,FBP-RB-17.png,0.4,1.2,48,1,,,,,,,,,,,,,,,,,,0,20,20,47,1,,,,,,,,,,,,,,,,,,,,,,,
,,,,,V1_019,18,Female,2024-05-16_15h32.52.215,jersey_experiment_5_v1,2023.2.2,Win32,84.74576271,,,,,,,,,,,,,,,,963.4195,965.2197,965.2197,966.8128,return,0.2724,,38.41145833,,,,,,FBP-YG-81.png,0.35,1.2,21,1,,,,,,,,,,,,,,,,,,0,21,21,20,1,,,,,,,,,,,,,,,,,,,,,,,
,,,,,V1_019,18,Female,2024-05-16_15h32.52.215,jersey_experiment_5_v1,2023.2.2,Win32,84.74576271,,,,,,,,,,,,,,,,966.8129,968.1171,968.1171,969.455,return,0.0383,,28.125,,,,,,FBP-PT-17.png,0.35,1.2,1,0.5,,,,,,,,,,,,,,,,,,0,22,22,0,1,,,,,,,,,,,,,,,,,,,,,,,
,,,,,V1_019,18,Female,2024-05-16_15h32.52.215,jersey_experiment_5_v1,2023.2.2,Win32,84.74576271,,,,,,,,,,,,,,,,969.4552,971.2465,971.2465,972.0786,return,0.073,,21.484375,,,,,,FBP-RB-18.png,0.35,1.2,51,1,,,,,,,,,,,,,,,,,,0,23,23,50,1,,,,,,,,,,,,,,,,,,,,,,,
,,,,,V1_019,18,Female,2024-05-16_15h32.52.215,jersey_experiment_5_v1,2023.2.2,Win32,84.74576271,,,,,,,,,,,,,,,,972.0789,973.8727,973.8727,974.7494,return,0.0389,,59.50520833,,,,,,FBP-YG-71.png,0.37,1.2,17,1,,,,,,,,,,,,,,,,,,0,24,24,16,1,,,,,,,,,,,,,,,,,,,,,,,
,,,,,V1_019,18,Female,2024-05-16_15h32.52.215,jersey_experiment_5_v1,2023.2.2,Win32,84.74576271,,,,,,,,,,,,,,,,974.7496,976.0434,976.0434,977.0719,return,0.0369,,82.03125,,,,,,FBP-PT-17.png,0.43,1.2,4,0.5,,,,,,,,,,,,,,,,,,0,25,25,3,1,,,,,,,,,,,,,,,,,,,,,,,
,,,,,V1_019,18,Female,2024-05-16_15h32.52.215,jersey_experiment_5_v1,2023.2.2,Win32,84.74576271,,,,,,,,,,,,,,,,977.072,978.8671,978.8672,979.9896,return,0.084,,87.23958333,,,,,,FBP-OG-71.png,0.45,1.2,35,1,,,,,,,,,,,,,,,,,,0,26,26,34,1,,,,,,,,,,,,,,,,,,,,,,,
,,,,,V1_019,18,Female,2024-05-16_15h32.52.215,jersey_experiment_5_v1,2023.2.2,Win32,84.74576271,,,,,,,,,,,,,,,,979.9897,981.7881,981.7882,983.1144,return,0.0302,,82.16145833,,,,,,FBP-RB-18.png,0.4,1.2,53,1,,,,,,,,,,,,,,,,,,0,27,27,52,1,,,,,,,,,,,,,,,,,,,,,,,
,,,,,V1_019,18,Female,2024-05-16_15h32.52.215,jersey_experiment_5_v1,2023.2.2,Win32,84.74576271,,,,,,,,,,,,,,,,983.1145,984.9178,984.9178,987.4722,return,0.7427,,82.16145833,,,,,,FBP-OG-81.png,0.35,1.2,36,1,,,,,,,,,,,,,,,,,,0,28,28,35,1,,,,,,,,,,,,,,,,,,,,,,,
,,,,,V1_019,18,Female,2024-05-16_15h32.52.215,jersey_experiment_5_v1,2023.2.2,Win32,84.74576271,,,,,,,,,,,,,,,,987.4725,989.2708,989.2709,990.1851,return,0.0432,,63.02083333,,,,,,FBP-OG-71.png,0.35,1.2,31,1,,,,,,,,,,,,,,,,,,0,29,29,30,1,,,,,,,,,,,,,,,,,,,,,,,
,,,,,V1_019,18,Female,2024-05-16_15h32.52.215,jersey_experiment_5_v1,2023.2.2,Win32,84.74576271,,,,,,,,,,,,,,,,990.1854,991.9766,991.9766,993.4831,return,0.0811,,44.66145833,,,,,,FBP-RB-19.png,0.37,1.2,57,1,,,,,,,,,,,,,,,,,,0,30,30,56,1,,,,,,,,,,,,,,,,,,,,,,,
,,,,,V1_019,18,Female,2024-05-16_15h32.52.215,jersey_experiment_5_v1,2023.2.2,Win32,84.74576271,,,,,,,,,,,,,,,,993.4833,994.7768,994.7768,996.3434,return,0.1544,,86.97916667,,,,,,FBP-PT-19.png,0.45,1.2,15,0.5,,,,,,,,,,,,,,,,,,0,31,31,14,1,,,,,,,,,,,,,,,,,,,,,,,
,,,,,V1_019,18,Female,2024-05-16_15h32.52.215,jersey_experiment_5_v1,2023.2.2,Win32,84.74576271,,,,,,,,,,,,,,,,996.3435,998.1419,998.1419,999.5503,return,0.2977,,67.31770833,,,,,,FBP-OG-91.png,0.35,1.2,41,1,,,,,,,,,,,,,,,,,,0,32,32,40,1,,,,,,,,,,,,,,,,,,,,,,,
,,,,,V1_019,18,Female,2024-05-16_15h32.52.215,jersey_experiment_5_v1,2023.2.2,Win32,84.74576271,,,,,,,,,,,,,,,,999.5505,1001.3557,1001.3557,1003.2915,return,0.2758,,41.14583333,,,,,,FBP-YG-71.png,0.35,1.2,16,1,,,,,,,,,,,,,,,,,,0,33,33,15,1,,,,,,,,,,,,,,,,,,,,,,,
,,,,,V1_019,18,Female,2024-05-16_15h32.52.215,jersey_experiment_5_v1,2023.2.2,Win32,84.74576271,,,,,,,,,,,,,,,,1003.2918,1005.0916,1005.0916,1006.9316,return,0.8002,,40.75520833,,,,,,FBP-RB-17.png,0.35,1.2,46,1,,,,,,,,,,,,,,,,,,0,34,34,45,1,,,,,,,,,,,,,,,,,,,,,,,
,,,,,V1_019,18,Female,2024-05-16_15h32.52.215,jersey_experiment_5_v1,2023.2.2,Win32,84.74576271,,,,,,,,,,,,,,,,1006.9318,1008.7302,1008.7302,1010.033,return,0.1754,,63.671875,,,,,,FBP-YG-91.png,0.4,1.2,28,1,,,,,,,,,,,,,,,,,,0,35,35,27,1,,,,,,,,,,,,,,,,,,,,,,,
,,,,,V1_019,18,Female,2024-05-16_15h32.52.215,jersey_experiment_5_v1,2023.2.2,Win32,84.74576271,,,,,,,,,,,,,,,,1010.0332,1011.826,1011.826,1012.7307,return,0.1754,,64.32291667,,,,,,FBP-YG-81.png,0.4,1.2,23,1,,,,,,,,,,,,,,,,,,0,36,36,22,1,,,,,,,,,,,,,,,,,,,,,,,
,,,,,V1_019,18,Female,2024-05-16_15h32.52.215,jersey_experiment_5_v1,2023.2.2,Win32,84.74576271,,,,,,,,,,,,,,,,1012.7308,1014.5319,1014.5319,1015.4973,return,0.2596,,68.22916667,,,,,,FBP-OG-91.png,0.43,1.2,44,1,,,,,,,,,,,,,,,,,,0,37,37,43,1,,,,,,,,,,,,,,,,,,,,,,,
,,,,,V1_019,18,Female,2024-05-16_15h32.52.215,jersey_experiment_5_v1,2023.2.2,Win32,84.74576271,,,,,,,,,,,,,,,,1015.4974,1016.7907,1016.7907,1018.2499,return,0.2594,,75,,,,,,FBP-PT-19.png,0.4,1.2,13,0.5,,,,,,,,,,,,,,,,,,0,38,38,12,1,,,,,,,,,,,,,,,,,,,,,,,
,,,,,V1_019,18,Female,2024-05-16_15h32.52.215,jersey_experiment_5_v1,2023.2.2,Win32,84.74576271,,,,,,,,,,,,,,,,1018.2501,1020.0483,1020.0483,1022.0923,return,0.7931,,70.57291667,,,,,,FBP-YG-91.png,0.37,1.2,27,1,,,,,,,,,,,,,,,,,,0,39,39,26,1,,,,,,,,,,,,,,,,,,,,,,,
,,,,,V1_019,18,Female,2024-05-16_15h32.52.215,jersey_experiment_5_v1,2023.2.2,Win32,84.74576271,,,,,,,,,,,,,,,,1022.0925,1023.3864,1023.3864,1024.9394,return,0.041,,80.078125,,,,,,FBP-PT-17.png,0.4,1.2,3,0.5,,,,,,,,,,,,,,,,,,0,40,40,2,1,,,,,,,,,,,,,,,,,,,,,,,
,,,,,V1_019,18,Female,2024-05-16_15h32.52.215,jersey_experiment_5_v1,2023.2.2,Win32,84.74576271,,,,,,,,,,,,,,,,1024.9396,1026.7309,1026.7309,1027.6153,return,0.108,,38.54166667,,,,,,FBP-YG-91.png,0.35,1.2,26,1,,,,,,,,,,,,,,,,,,0,41,41,25,1,,,,,,,,,,,,,,,,,,,,,,,
,,,,,V1_019,18,Female,2024-05-16_15h32.52.215,jersey_experiment_5_v1,2023.2.2,Win32,84.74576271,,,,,,,,,,,,,,,,1027.6154,1029.4134,1029.4134,1031.9445,return,0.4239,,92.44791667,,,,,,FBP-RB-19.png,0.45,1.2,60,1,,,,,,,,,,,,,,,,,,0,42,42,59,1,,,,,,,,,,,,,,,,,,,,,,,
,,,,,V1_019,18,Female,2024-05-16_15h32.52.215,jersey_experiment_5_v1,2023.2.2,Win32,84.74576271,,,,,,,,,,,,,,,,1031.9447,1033.7432,1033.7432,1034.6271,return,0.1416,,32.421875,,,,,,FBP-OG-91.png,0.37,1.2,42,1,,,,,,,,,,,,,,,,,,0,43,43,41,1,,,,,,,,,,,,,,,,,,,,,,,
,,,,,V1_019,18,Female,2024-05-16_15h32.52.215,jersey_experiment_5_v1,2023.2.2,Win32,84.74576271,,,,,,,,,,,,,,,,1034.6273,1036.4222,1036.4223,1039.4037,return,0.1865,,82.68229167,,,,,,FBP-RB-17.png,0.43,1.2,49,1,,,,,,,,,,,,,,,,,,0,44,44,48,1,,,,,,,,,,,,,,,,,,,,,,,
,,,,,V1_019,18,Female,2024-05-16_15h32.52.215,jersey_experiment_5_v1,2023.2.2,Win32,84.74576271,,,,,,,,,,,,,,,,1039.4038,1041.1988,1041.1988,1043.6106,return,0.1108,,25.26041667,,,,,,FBP-RB-19.png,0.35,1.2,56,1,,,,,,,,,,,,,,,,,,0,45,45,55,1,,,,,,,,,,,,,,,,,,,,,,,
,,,,,V1_019,18,Female,2024-05-16_15h32.52.215,jersey_experiment_5_v1,2023.2.2,Win32,84.74576271,,,,,,,,,,,,,,,,1043.6108,1045.414,1045.414,1047.2391,return,0.4842,,39.84375,,,,,,FBP-RB-18.png,0.37,1.2,52,1,,,,,,,,,,,,,,,,,,0,46,46,51,1,,,,,,,,,,,,,,,,,,,,,,,
,,,,,V1_019,18,Female,2024-05-16_15h32.52.215,jersey_experiment_5_v1,2023.2.2,Win32,84.74576271,,,,,,,,,,,,,,,,1047.2393,1049.0375,1049.0376,1050.3217,return,0.2252,,88.28125,,,,,,FBP-YG-91.png,0.43,1.2,29,1,,,,,,,,,,,,,,,,,,0,47,47,28,1,,,,,,,,,,,,,,,,,,,,,,,
,,,,,V1_019,18,Female,2024-05-16_15h32.52.215,jersey_experiment_5_v1,2023.2.2,Win32,84.74576271,,,,,,,,,,,,,,,,1050.3218,1051.6259,1051.6259,1055.31,return,0.1546,,78.25520833,,,,,,FBP-PT-18.png,0.4,1.2,8,0.5,,,,,,,,,,,,,,,,,,0,48,48,7,1,,,,,,,,,,,,,,,,,,,,,,,
,,,,,V1_019,18,Female,2024-05-16_15h32.52.215,jersey_experiment_5_v1,2023.2.2,Win32,84.74576271,,,,,,,,,,,,,,,,1055.3101,1056.6041,1056.6041,1058.9877,return,0.3227,,34.50520833,,,,,,FBP-PT-19.png,0.37,1.2,12,0.5,,,,,,,,,,,,,,,,,,0,49,49,11,1,,,,,,,,,,,,,,,,,,,,,,,
,,,,,V1_019,18,Female,2024-05-16_15h32.52.215,jersey_experiment_5_v1,2023.2.2,Win32,84.74576271,,,,,,,,,,,,,,,,1058.9879,1060.7792,1060.7792,1063.2266,return,0.8577,,48.30729167,,,,,,FBP-OG-81.png,0.37,1.2,37,1,,,,,,,,,,,,,,,,,,0,50,50,36,1,,,,,,,,,,,,,,,,,,,,,,,
,,,,,V1_019,18,Female,2024-05-16_15h32.52.215,jersey_experiment_5_v1,2023.2.2,Win32,84.74576271,,,,,,,,,,,,,,,,1063.2267,1065.0278,1065.0278,1066.588,return,0.7801,,83.46354167,,,,,,FBP-YG-71.png,0.43,1.2,19,1,,,,,,,,,,,,,,,,,,0,51,51,18,1,,,,,,,,,,,,,,,,,,,,,,,
,,,,,V1_019,18,Female,2024-05-16_15h32.52.215,jersey_experiment_5_v1,2023.2.2,Win32,84.74576271,,,,,,,,,,,,,,,,1066.5882,1068.3795,1068.3795,1070.4171,return,1.2714,,82.29166667,,,,,,FBP-YG-71.png,0.4,1.2,18,1,,,,,,,,,,,,,,,,,,0,52,52,17,1,,,,,,,,,,,,,,,,,,,,,,,
,,,,,V1_019,18,Female,2024-05-16_15h32.52.215,jersey_experiment_5_v1,2023.2.2,Win32,84.74576271,,,,,,,,,,,,,,,,1070.4173,1072.2151,1072.2152,1073.0988,return,0.3292,,85.02604167,,,,,,FBP-OG-81.png,0.43,1.2,39,1,,,,,,,,,,,,,,,,,,0,53,53,38,1,,,,,,,,,,,,,,,,,,,,,,,
,,,,,V1_019,18,Female,2024-05-16_15h32.52.215,jersey_experiment_5_v1,2023.2.2,Win32,84.74576271,,,,,,,,,,,,,,,,1073.0989,1074.8973,1074.8974,1075.8049,return,0.1312,,87.63020833,,,,,,FBP-RB-18.png,0.43,1.2,54,1,,,,,,,,,,,,,,,,,,0,54,54,53,1,,,,,,,,,,,,,,,,,,,,,,,
,,,,,V1_019,18,Female,2024-05-16_15h32.52.215,jersey_experiment_5_v1,2023.2.2,Win32,84.74576271,,,,,,,,,,,,,,,,1075.805,1077.6002,1077.6002,1078.4979,return,0.283,,91.14583333,,,,,,FBP-YG-81.png,0.43,1.2,24,1,,,,,,,,,,,,,,,,,,0,55,55,23,1,,,,,,,,,,,,,,,,,,,,,,,
,,,,,V1_019,18,Female,2024-05-16_15h32.52.215,jersey_experiment_5_v1,2023.2.2,Win32,84.74576271,,,,,,,,,,,,,,,,1078.498,1080.2943,1080.2943,1081.5767,return,0.2651,,90.625,,,,,,FBP-YG-91.png,0.45,1.2,30,1,,,,,,,,,,,,,,,,,,0,56,56,29,1,,,,,,,,,,,,,,,,,,,,,,,
,,,,,V1_019,18,Female,2024-05-16_15h32.52.215,jersey_experiment_5_v1,2023.2.2,Win32,84.74576271,,,,,,,,,,,,,,,,1081.5769,1083.3813,1083.3814,1084.7228,return,0.4004,,90.88541667,,,,,,FBP-YG-81.png,0.45,1.2,25,1,,,,,,,,,,,,,,,,,,0,57,57,24,1,,,,,,,,,,,,,,,,,,,,,,,
,,,,,V1_019,18,Female,2024-05-16_15h32.52.215,jersey_experiment_5_v1,2023.2.2,Win32,84.74576271,,,,,,,,,,,,,,,,1084.723,1086.0241,1086.0241,1087.3063,return,0.383,,90.36458333,,,,,,FBP-PT-18.png,0.45,1.2,10,0.5,,,,,,,,,,,,,,,,,,0,58,58,9,1,,,,,,,,,,,,,,,,,,,,,,,
,,,,,V1_019,18,Female,2024-05-16_15h32.52.215,jersey_experiment_5_v1,2023.2.2,Win32,84.74576271,,,,,,,,,,,,,,,,1087.3065,1089.1065,1089.1065,1090.0877,return,0.2115,,90.49479167,,,,,,FBP-YG-71.png,0.45,1.2,20,1,,,,,,,,,,,,,,,,,,0,59,59,19,1,,,,,,,,,,,,,,,,,,,,,,,
,,,,,V1_019,18,Female,2024-05-16_15h32.52.215,jersey_experiment_5_v1,2023.2.2,Win32,84.74576271,,,,,,,,,,,,,,,,,,,,,,,,,,,,,,,,,,,,,,,,,,,,,,,,,,,,,,,,1090.088,1090.589,return,0.4863,,,,,,,,,,,,,,,,,,,
,,,,,V1_019,18,Female,2024-05-16_15h32.52.215,jersey_experiment_5_v1,2023.2.2,Win32,84.74576271,,,,,,,,,,,,,,,,,,,,,,,,,,,,,,,,,,,,,,,,,,,,,,,,,,,,,,,,,,,,,1090.589,1094.9585,1,3.5324,return,0.8236,,,,,,,,,,,,
,,,,,V1_019,18,Female,2024-05-16_15h32.52.215,jersey_experiment_5_v1,2023.2.2,Win32,84.74576271,,,,,,,,,,,,,,,,,,,,,,,,,,,,,,,,,,,,,,,,,,,,,,,,,,,,,,,,,,,,,,,,,,,,1094.9586,1142.6934,i am guessing it has something to do with perception. i notice there are patterns in the color they are wearing and their jersey numbers. ,right,38.8723,,,,,,
,,,,,V1_019,18,Female,2024-05-16_15h32.52.215,jersey_experiment_5_v1,2023.2.2,Win32,84.74576271,,,,,,,,,,,,,,,,,,,,,,,,,,,,,,,,,,,,,,,,,,,,,,,,,,,,,,,,,,,,,,,,,,,,,,,,,,1142.6934,1145.7438,return,3.0353,