requirements.started,requirements.stopped,key_resp_3.keys,key_resp_3.rt,key_resp_3.duration,Subject ID,Age,Gender,date,expName,psychopyVersion,OS,frameRate,instructions1.started,instructions1.stopped,key_resp.keys,key_resp.rt,key_resp.duration,example.started,example.stopped,enter_2.keys,enter_2.rt,enter_2.duration,instructions2.started,instructions2.stopped,enter_3.keys,enter_3.rt,enter_3.duration,image.started,image.stopped,slider_2.started,slider_2.stopped,next.keys,next.rt,next.duration,slider.response,trial_block_1.thisRepN,trial_block_1.thisTrialN,trial_block_1.thisN,trial_block_1.thisIndex,trial_block_1.ran,Path,Width,Height,Index,Duration,trial_block_2.thisRepN,trial_block_2.thisTrialN,trial_block_2.thisN,trial_block_2.thisIndex,trial_block_2.ran,rest_break.started,rest_break.stopped,end_break.started,end_break.stopped,key_resp_5.keys,key_resp_5.rt,key_resp_5.duration,trial_block_3.thisRepN,trial_block_3.thisTrialN,trial_block_3.thisN,trial_block_3.thisIndex,trial_block_3.ran,trial_block_4.thisRepN,trial_block_4.thisTrialN,trial_block_4.thisN,trial_block_4.thisIndex,trial_block_4.ran,questions_intro.started,questions_intro.stopped,enter_12.keys,enter_12.rt,enter_12.duration,question2.started,question2.stopped,question_doingbest.response,question_doingbest.rt,enter_15.keys,enter_15.rt,enter_15.duration,pattern.started,pattern.stopped,pattern_2.text,enter_17.keys,enter_17.rt,enter_17.duration,thankyou.started,thankyou.stopped,enter_14.keys,enter_14.rt,enter_14.duration
0.0001,12.239,return,12.2289,,V1_032,20,Female,2024-05-22_15h59.24.296,jersey_experiment_5_v1,2023.2.2,Win32,85.47008547,,,,,,,,,,,,,,,,,,,,,,,,,,,,,,,,,,,,,,,,,,,,,,,,,,,,,,,,,,,,,,,,,,,,,,,,,,,,,,
,,,,,V1_032,20,Female,2024-05-22_15h59.24.296,jersey_experiment_5_v1,2023.2.2,Win32,85.47008547,12.239,20.4039,return,8.1511,,,,,,,,,,,,,,,,,,,,,,,,,,,,,,,,,,,,,,,,,,,,,,,,,,,,,,,,,,,,,,,,,,,,,,,,,,
,,,,,V1_032,20,Female,2024-05-22_15h59.24.296,jersey_experiment_5_v1,2023.2.2,Win32,85.47008547,,,,,,20.404,24.7217,return,4.2828,,,,,,,,,,,,,,,,,,,,,,,,,,,,,,,,,,,,,,,,,,,,,,,,,,,,,,,,,,,,,,,,,,,,,
,,,,,V1_032,20,Female,2024-05-22_15h59.24.296,jersey_experiment_5_v1,2023.2.2,Win32,85.47008547,,,,,,,,,,,24.7218,50.9579,return,26.2261,,,,,,,,,,,,,,,,,,,,,,,,,,,,,,,,,,,,,,,,,,,,,,,,,,,,,,,,,,,,,,,,
,,,,,V1_032,20,Female,2024-05-22_15h59.24.296,jersey_experiment_5_v1,2023.2.2,Win32,85.47008547,,,,,,,,,,,,,,,,50.9648,52.7577,52.7578,59.6172,return,3.1663,,51.171875,0,0,0,12,1,FBP-PT-91.png,0.4,1.2,13,1,,,,,,,,,,,,,,,,,,,,,,,,,,,,,,,,,,,,,,,,,,,,,
,,,,,V1_032,20,Female,2024-05-22_15h59.24.296,jersey_experiment_5_v1,2023.2.2,Win32,85.47008547,,,,,,,,,,,,,,,,59.6175,60.9109,60.9109,65.664,return,1.459,,60.28645833,0,1,1,33,1,FBP-OG-17.png,0.43,1.2,34,0.5,,,,,,,,,,,,,,,,,,,,,,,,,,,,,,,,,,,,,,,,,,,,,
,,,,,V1_032,20,Female,2024-05-22_15h59.24.296,jersey_experiment_5_v1,2023.2.2,Win32,85.47008547,,,,,,,,,,,,,,,,65.6642,66.9582,66.9582,71.3467,return,1.7413,,25,0,2,2,36,1,FBP-OG-18.png,0.37,1.2,37,0.5,,,,,,,,,,,,,,,,,,,,,,,,,,,,,,,,,,,,,,,,,,,,,
,,,,,V1_032,20,Female,2024-05-22_15h59.24.296,jersey_experiment_5_v1,2023.2.2,Win32,85.47008547,,,,,,,,,,,,,,,,71.3469,73.1469,73.1469,76.9469,return,2.2458,,68.88020833,0,3,3,8,1,FBP-PT-81.png,0.43,1.2,9,1,,,,,,,,,,,,,,,,,,,,,,,,,,,,,,,,,,,,,,,,,,,,,
,,,,,V1_032,20,Female,2024-05-22_15h59.24.296,jersey_experiment_5_v1,2023.2.2,Win32,85.47008547,,,,,,,,,,,,,,,,76.9472,78.747,78.747,82.7707,return,1.6721,,65.625,0,4,4,13,1,FBP-PT-91.png,0.43,1.2,14,1,,,,,,,,,,,,,,,,,,,,,,,,,,,,,,,,,,,,,,,,,,,,,
,,,,,V1_032,20,Female,2024-05-22_15h59.24.296,jersey_experiment_5_v1,2023.2.2,Win32,85.47008547,,,,,,,,,,,,,,,,82.7709,84.5706,84.5706,88.2061,return,2.2028,,76.04166667,0,5,5,4,1,FBP-PT-71.png,0.45,1.2,5,1,,,,,,,,,,,,,,,,,,,,,,,,,,,,,,,,,,,,,,,,,,,,,
,,,,,V1_032,20,Female,2024-05-22_15h59.24.296,jersey_experiment_5_v1,2023.2.2,Win32,85.47008547,,,,,,,,,,,,,,,,88.2064,89.5002,89.5002,93.818,return,1.8754,,13.02083333,0,6,6,35,1,FBP-OG-18.png,0.35,1.2,36,0.5,,,,,,,,,,,,,,,,,,,,,,,,,,,,,,,,,,,,,,,,,,,,,
,,,,,V1_032,20,Female,2024-05-22_15h59.24.296,jersey_experiment_5_v1,2023.2.2,Win32,85.47008547,,,,,,,,,,,,,,,,93.8183,95.1119,95.112,98.8651,return,1.8495,,64.32291667,0,7,7,48,1,FBP-RB-71.png,0.43,1.2,49,0.5,,,,,,,,,,,,,,,,,,,,,,,,,,,,,,,,,,,,,,,,,,,,,
,,,,,V1_032,20,Female,2024-05-22_15h59.24.296,jersey_experiment_5_v1,2023.2.2,Win32,85.47008547,,,,,,,,,,,,,,,,98.8654,100.6653,100.6653,105.7243,return,1.6382,,43.09895833,0,8,8,1,1,FBP-PT-71.png,0.37,1.2,2,1,,,,,,,,,,,,,,,,,,,,,,,,,,,,,,,,,,,,,,,,,,,,,
,,,,,V1_032,20,Female,2024-05-22_15h59.24.296,jersey_experiment_5_v1,2023.2.2,Win32,85.47008547,,,,,,,,,,,,,,,,105.7245,107.0184,107.0185,110.9363,return,1.9729,,23.828125,0,9,9,30,1,FBP-OG-17.png,0.35,1.2,31,0.5,,,,,,,,,,,,,,,,,,,,,,,,,,,,,,,,,,,,,,,,,,,,,
,,,,,V1_032,20,Female,2024-05-22_15h59.24.296,jersey_experiment_5_v1,2023.2.2,Win32,85.47008547,,,,,,,,,,,,,,,,110.9365,112.2304,112.2304,117.0541,return,3.0027,,63.93229167,0,10,10,43,1,FBP-OG-19.png,0.43,1.2,44,0.5,,,,,,,,,,,,,,,,,,,,,,,,,,,,,,,,,,,,,,,,,,,,,
,,,,,V1_032,20,Female,2024-05-22_15h59.24.296,jersey_experiment_5_v1,2023.2.2,Win32,85.47008547,,,,,,,,,,,,,,,,117.0588,118.36,118.36,122.1603,return,2.235,,48.69791667,0,11,11,41,1,FBP-OG-19.png,0.37,1.2,42,0.5,,,,,,,,,,,,,,,,,,,,,,,,,,,,,,,,,,,,,,,,,,,,,
,,,,,V1_032,20,Female,2024-05-22_15h59.24.296,jersey_experiment_5_v1,2023.2.2,Win32,85.47008547,,,,,,,,,,,,,,,,122.1605,123.9605,123.9605,128.3605,return,3.0202,,26.171875,0,12,12,10,1,FBP-PT-91.png,0.35,1.2,11,1,,,,,,,,,,,,,,,,,,,,,,,,,,,,,,,,,,,,,,,,,,,,,
,,,,,V1_032,20,Female,2024-05-22_15h59.24.296,jersey_experiment_5_v1,2023.2.2,Win32,85.47008547,,,,,,,,,,,,,,,,128.3608,129.6544,129.6544,133.7841,return,2.0676,,75.13020833,0,13,13,49,1,FBP-RB-71.png,0.45,1.2,50,0.5,,,,,,,,,,,,,,,,,,,,,,,,,,,,,,,,,,,,,,,,,,,,,
,,,,,V1_032,20,Female,2024-05-22_15h59.24.296,jersey_experiment_5_v1,2023.2.2,Win32,85.47008547,,,,,,,,,,,,,,,,133.7844,135.5842,135.5842,139.2078,return,2.4426,,74.609375,0,14,14,3,1,FBP-PT-71.png,0.43,1.2,4,1,,,,,,,,,,,,,,,,,,,,,,,,,,,,,,,,,,,,,,,,,,,,,
,,,,,V1_032,20,Female,2024-05-22_15h59.24.296,jersey_experiment_5_v1,2023.2.2,Win32,85.47008547,,,,,,,,,,,,,,,,139.2124,141.0079,141.0079,144.0905,return,1.6993,,34.375,0,15,15,0,1,FBP-PT-71.png,0.35,1.2,1,1,,,,,,,,,,,,,,,,,,,,,,,,,,,,,,,,,,,,,,,,,,,,,
,,,,,V1_032,20,Female,2024-05-22_15h59.24.296,jersey_experiment_5_v1,2023.2.2,Win32,85.47008547,,,,,,,,,,,,,,,,144.0907,145.8903,145.8904,149.6319,return,2.8716,,62.5,0,16,16,2,1,FBP-PT-71.png,0.4,1.2,3,1,,,,,,,,,,,,,,,,,,,,,,,,,,,,,,,,,,,,,,,,,,,,,
,,,,,V1_032,20,Female,2024-05-22_15h59.24.296,jersey_experiment_5_v1,2023.2.2,Win32,85.47008547,,,,,,,,,,,,,,,,149.6321,151.432,151.432,154.5144,return,1.5299,,48.95833333,0,17,17,11,1,FBP-PT-91.png,0.37,1.2,12,1,,,,,,,,,,,,,,,,,,,,,,,,,,,,,,,,,,,,,,,,,,,,,
,,,,,V1_032,20,Female,2024-05-22_15h59.24.296,jersey_experiment_5_v1,2023.2.2,Win32,85.47008547,,,,,,,,,,,,,,,,154.5146,155.8085,155.8085,160.0323,return,1.5156,,76.82291667,0,18,18,54,1,FBP-RB-81.png,0.45,1.2,55,0.5,,,,,,,,,,,,,,,,,,,,,,,,,,,,,,,,,,,,,,,,,,,,,
,,,,,V1_032,20,Female,2024-05-22_15h59.24.296,jersey_experiment_5_v1,2023.2.2,Win32,85.47008547,,,,,,,,,,,,,,,,160.0325,161.3263,161.3263,164.1147,return,1.2612,,78.25520833,0,19,19,19,1,FBP-YG-17.png,0.45,1.2,20,0.5,,,,,,,,,,,,,,,,,,,,,,,,,,,,,,,,,,,,,,,,,,,,,
,,,,,V1_032,20,Female,2024-05-22_15h59.24.296,jersey_experiment_5_v1,2023.2.2,Win32,85.47008547,,,,,,,,,,,,,,,,164.115,165.4088,165.4089,168.7855,return,1.9865,,81.25,0,20,20,29,1,FBP-YG-19.png,0.45,1.2,30,0.5,,,,,,,,,,,,,,,,,,,,,,,,,,,,,,,,,,,,,,,,,,,,,
,,,,,V1_032,20,Female,2024-05-22_15h59.24.296,jersey_experiment_5_v1,2023.2.2,Win32,85.47008547,,,,,,,,,,,,,,,,168.7857,170.5858,170.5859,173.9035,return,1.7311,,25.52083333,0,21,21,5,1,FBP-PT-81.png,0.35,1.2,6,1,,,,,,,,,,,,,,,,,,,,,,,,,,,,,,,,,,,,,,,,,,,,,
,,,,,V1_032,20,Female,2024-05-22_15h59.24.296,jersey_experiment_5_v1,2023.2.2,Win32,85.47008547,,,,,,,,,,,,,,,,173.9038,175.1974,175.1974,178.7034,return,1.4598,,26.30208333,0,22,22,57,1,FBP-RB-91.png,0.4,1.2,58,0.5,,,,,,,,,,,,,,,,,,,,,,,,,,,,,,,,,,,,,,,,,,,,,
,,,,,V1_032,20,Female,2024-05-22_15h59.24.296,jersey_experiment_5_v1,2023.2.2,Win32,85.47008547,,,,,,,,,,,,,,,,178.7037,179.9975,179.9977,187.3273,return,5.7758,,67.1875,0,23,23,38,1,FBP-OG-18.png,0.43,1.2,39,0.5,,,,,,,,,,,,,,,,,,,,,,,,,,,,,,,,,,,,,,,,,,,,,
,,,,,V1_032,20,Female,2024-05-22_15h59.24.296,jersey_experiment_5_v1,2023.2.2,Win32,85.47008547,,,,,,,,,,,,,,,,187.3275,188.6214,188.6214,191.0569,return,1.1057,,34.89583333,0,24,24,31,1,FBP-OG-17.png,0.37,1.2,32,0.5,,,,,,,,,,,,,,,,,,,,,,,,,,,,,,,,,,,,,,,,,,,,,
,,,,,V1_032,20,Female,2024-05-22_15h59.24.296,jersey_experiment_5_v1,2023.2.2,Win32,85.47008547,,,,,,,,,,,,,,,,191.0571,192.3509,192.351,195.363,return,1.6149,,16.27604167,0,25,25,45,1,FBP-RB-71.png,0.35,1.2,46,0.5,,,,,,,,,,,,,,,,,,,,,,,,,,,,,,,,,,,,,,,,,,,,,
,,,,,V1_032,20,Female,2024-05-22_15h59.24.296,jersey_experiment_5_v1,2023.2.2,Win32,85.47008547,,,,,,,,,,,,,,,,195.3632,196.657,196.6571,199.41,return,1.19,,20.18229167,0,26,26,50,1,FBP-RB-81.png,0.35,1.2,51,0.5,,,,,,,,,,,,,,,,,,,,,,,,,,,,,,,,,,,,,,,,,,,,,
,,,,,V1_032,20,Female,2024-05-22_15h59.24.296,jersey_experiment_5_v1,2023.2.2,Win32,85.47008547,,,,,,,,,,,,,,,,199.4103,200.7042,200.7042,203.3868,return,1.2516,,49.47916667,0,27,27,22,1,FBP-YG-18.png,0.4,1.2,23,0.5,,,,,,,,,,,,,,,,,,,,,,,,,,,,,,,,,,,,,,,,,,,,,
,,,,,V1_032,20,Female,2024-05-22_15h59.24.296,jersey_experiment_5_v1,2023.2.2,Win32,85.47008547,,,,,,,,,,,,,,,,203.387,204.6808,204.6808,207.5279,return,1.5605,,75,0,28,28,28,1,FBP-YG-19.png,0.43,1.2,29,0.5,,,,,,,,,,,,,,,,,,,,,,,,,,,,,,,,,,,,,,,,,,,,,
,,,,,V1_032,20,Female,2024-05-22_15h59.24.296,jersey_experiment_5_v1,2023.2.2,Win32,85.47008547,,,,,,,,,,,,,,,,207.5281,209.3281,209.3281,213.2931,return,1.0507,,42.83854167,0,29,29,6,1,FBP-PT-81.png,0.37,1.2,7,1,,,,,,,,,,,,,,,,,,,,,,,,,,,,,,,,,,,,,,,,,,,,,
,,,,,V1_032,20,Female,2024-05-22_15h59.24.296,jersey_experiment_5_v1,2023.2.2,Win32,85.47008547,,,,,,,,,,,,,,,,213.2933,214.5871,214.5871,219.4694,return,1.4253,,79.6875,0,30,30,44,1,FBP-OG-19.png,0.45,1.2,45,0.5,,,,,,,,,,,,,,,,,,,,,,,,,,,,,,,,,,,,,,,,,,,,,
,,,,,V1_032,20,Female,2024-05-22_15h59.24.296,jersey_experiment_5_v1,2023.2.2,Win32,85.47008547,,,,,,,,,,,,,,,,219.4696,220.7638,220.7638,223.9875,return,0.8565,,56.11979167,0,31,31,17,1,FBP-YG-17.png,0.4,1.2,18,0.5,,,,,,,,,,,,,,,,,,,,,,,,,,,,,,,,,,,,,,,,,,,,,
,,,,,V1_032,20,Female,2024-05-22_15h59.24.296,jersey_experiment_5_v1,2023.2.2,Win32,85.47008547,,,,,,,,,,,,,,,,223.9877,225.2814,225.2815,229.164,return,2.1321,,74.73958333,0,32,32,39,1,FBP-OG-18.png,0.45,1.2,40,0.5,,,,,,,,,,,,,,,,,,,,,,,,,,,,,,,,,,,,,,,,,,,,,
,,,,,V1_032,20,Female,2024-05-22_15h59.24.296,jersey_experiment_5_v1,2023.2.2,Win32,85.47008547,,,,,,,,,,,,,,,,229.1642,230.4582,230.4582,235.729,return,1.7413,,26.82291667,0,33,33,56,1,FBP-RB-91.png,0.37,1.2,57,0.5,,,,,,,,,,,,,,,,,,,,,,,,,,,,,,,,,,,,,,,,,,,,,
,,,,,V1_032,20,Female,2024-05-22_15h59.24.296,jersey_experiment_5_v1,2023.2.2,Win32,85.47008547,,,,,,,,,,,,,,,,235.7292,237.0231,237.0232,239.282,return,0.9651,,47.39583333,0,34,34,42,1,FBP-OG-19.png,0.4,1.2,43,0.5,,,,,,,,,,,,,,,,,,,,,,,,,,,,,,,,,,,,,,,,,,,,,
,,,,,V1_032,20,Female,2024-05-22_15h59.24.296,jersey_experiment_5_v1,2023.2.2,Win32,85.47008547,,,,,,,,,,,,,,,,239.2824,240.5762,240.5762,243.3998,return,0.8888,,31.77083333,0,35,35,51,1,FBP-RB-81.png,0.37,1.2,52,0.5,,,,,,,,,,,,,,,,,,,,,,,,,,,,,,,,,,,,,,,,,,,,,
,,,,,V1_032,20,Female,2024-05-22_15h59.24.296,jersey_experiment_5_v1,2023.2.2,Win32,85.47008547,,,,,,,,,,,,,,,,243.4001,244.6941,244.6941,247.4706,return,1.024,,74.08854167,0,36,36,58,1,FBP-RB-91.png,0.43,1.2,59,0.5,,,,,,,,,,,,,,,,,,,,,,,,,,,,,,,,,,,,,,,,,,,,,
,,,,,V1_032,20,Female,2024-05-22_15h59.24.296,jersey_experiment_5_v1,2023.2.2,Win32,85.47008547,,,,,,,,,,,,,,,,247.4708,248.7648,248.7648,251.2239,return,1.2077,,11.328125,0,37,37,20,1,FBP-YG-18.png,0.35,1.2,21,0.5,,,,,,,,,,,,,,,,,,,,,,,,,,,,,,,,,,,,,,,,,,,,,
,,,,,V1_032,20,Female,2024-05-22_15h59.24.296,jersey_experiment_5_v1,2023.2.2,Win32,85.47008547,,,,,,,,,,,,,,,,251.224,252.5179,252.5179,255.7063,return,1.3947,,25.78125,0,38,38,46,1,FBP-RB-71.png,0.37,1.2,47,0.5,,,,,,,,,,,,,,,,,,,,,,,,,,,,,,,,,,,,,,,,,,,,,
,,,,,V1_032,20,Female,2024-05-22_15h59.24.296,jersey_experiment_5_v1,2023.2.2,Win32,85.47008547,,,,,,,,,,,,,,,,255.7065,257.0003,257.0003,258.9888,return,0.9806,,17.31770833,0,39,39,55,1,FBP-RB-91.png,0.35,1.2,56,0.5,,,,,,,,,,,,,,,,,,,,,,,,,,,,,,,,,,,,,,,,,,,,,
,,,,,V1_032,20,Female,2024-05-22_15h59.24.296,jersey_experiment_5_v1,2023.2.2,Win32,85.47008547,,,,,,,,,,,,,,,,258.9891,260.2828,260.2829,264.1066,return,2.5476,,46.484375,0,40,40,47,1,FBP-RB-71.png,0.4,1.2,48,0.5,,,,,,,,,,,,,,,,,,,,,,,,,,,,,,,,,,,,,,,,,,,,,
,,,,,V1_032,20,Female,2024-05-22_15h59.24.296,jersey_experiment_5_v1,2023.2.2,Win32,85.47008547,,,,,,,,,,,,,,,,264.1069,265.4006,265.4007,267.4832,return,1.0997,,35.41666667,0,41,41,26,1,FBP-YG-19.png,0.37,1.2,27,0.5,,,,,,,,,,,,,,,,,,,,,,,,,,,,,,,,,,,,,,,,,,,,,
,,,,,V1_032,20,Female,2024-05-22_15h59.24.296,jersey_experiment_5_v1,2023.2.2,Win32,85.47008547,,,,,,,,,,,,,,,,267.4835,268.7772,268.7773,271.1186,return,1.2495,,69.79166667,0,42,42,53,1,FBP-RB-81.png,0.43,1.2,54,0.5,,,,,,,,,,,,,,,,,,,,,,,,,,,,,,,,,,,,,,,,,,,,,
,,,,,V1_032,20,Female,2024-05-22_15h59.24.296,jersey_experiment_5_v1,2023.2.2,Win32,85.47008547,,,,,,,,,,,,,,,,271.1187,272.4126,272.4127,275.5777,return,1.5343,,46.484375,0,43,43,16,1,FBP-YG-17.png,0.37,1.2,17,0.5,,,,,,,,,,,,,,,,,,,,,,,,,,,,,,,,,,,,,,,,,,,,,
,,,,,V1_032,20,Female,2024-05-22_15h59.24.296,jersey_experiment_5_v1,2023.2.2,Win32,85.47008547,,,,,,,,,,,,,,,,275.5779,276.8717,276.8718,278.8952,return,1.0021,,58.46354167,0,44,44,27,1,FBP-YG-19.png,0.4,1.2,28,0.5,,,,,,,,,,,,,,,,,,,,,,,,,,,,,,,,,,,,,,,,,,,,,
,,,,,V1_032,20,Female,2024-05-22_15h59.24.296,jersey_experiment_5_v1,2023.2.2,Win32,85.47008547,,,,,,,,,,,,,,,,278.8955,280.1895,280.1895,282.6248,return,1.0119,,63.671875,0,45,45,21,1,FBP-YG-18.png,0.37,1.2,22,0.5,,,,,,,,,,,,,,,,,,,,,,,,,,,,,,,,,,,,,,,,,,,,,
,,,,,V1_032,20,Female,2024-05-22_15h59.24.296,jersey_experiment_5_v1,2023.2.2,Win32,85.47008547,,,,,,,,,,,,,,,,282.6251,284.4248,284.4249,286.6839,return,1.0051,,68.09895833,0,46,46,7,1,FBP-PT-81.png,0.4,1.2,8,1,,,,,,,,,,,,,,,,,,,,,,,,,,,,,,,,,,,,,,,,,,,,,
,,,,,V1_032,20,Female,2024-05-22_15h59.24.296,jersey_experiment_5_v1,2023.2.2,Win32,85.47008547,,,,,,,,,,,,,,,,286.6841,287.978,287.978,290.0605,return,1.0725,,82.94270833,0,47,47,59,1,FBP-RB-91.png,0.45,1.2,60,0.5,,,,,,,,,,,,,,,,,,,,,,,,,,,,,,,,,,,,,,,,,,,,,
,,,,,V1_032,20,Female,2024-05-22_15h59.24.296,jersey_experiment_5_v1,2023.2.2,Win32,85.47008547,,,,,,,,,,,,,,,,290.0607,291.3544,291.3544,293.8724,return,0.8946,,58.85416667,0,48,48,52,1,FBP-RB-81.png,0.4,1.2,53,0.5,,,,,,,,,,,,,,,,,,,,,,,,,,,,,,,,,,,,,,,,,,,,,
,,,,,V1_032,20,Female,2024-05-22_15h59.24.296,jersey_experiment_5_v1,2023.2.2,Win32,85.47008547,,,,,,,,,,,,,,,,293.8726,295.1666,295.1666,297.4372,return,1.2013,,86.84895833,0,49,49,34,1,FBP-OG-17.png,0.45,1.2,35,0.5,,,,,,,,,,,,,,,,,,,,,,,,,,,,,,,,,,,,,,,,,,,,,
,,,,,V1_032,20,Female,2024-05-22_15h59.24.296,jersey_experiment_5_v1,2023.2.2,Win32,85.47008547,,,,,,,,,,,,,,,,297.4374,298.7313,298.7313,300.7199,return,1.1641,,85.546875,0,50,50,23,1,FBP-YG-18.png,0.43,1.2,24,0.5,,,,,,,,,,,,,,,,,,,,,,,,,,,,,,,,,,,,,,,,,,,,,
,,,,,V1_032,20,Female,2024-05-22_15h59.24.296,jersey_experiment_5_v1,2023.2.2,Win32,85.47008547,,,,,,,,,,,,,,,,300.7201,302.0136,302.0137,304.4728,return,1.5725,,83.59375,0,51,51,18,1,FBP-YG-17.png,0.43,1.2,19,0.5,,,,,,,,,,,,,,,,,,,,,,,,,,,,,,,,,,,,,,,,,,,,,
,,,,,V1_032,20,Female,2024-05-22_15h59.24.296,jersey_experiment_5_v1,2023.2.2,Win32,85.47008547,,,,,,,,,,,,,,,,304.473,305.7669,305.767,308.2846,return,0.7687,,33.203125,0,52,52,15,1,FBP-YG-17.png,0.35,1.2,16,0.5,,,,,,,,,,,,,,,,,,,,,,,,,,,,,,,,,,,,,,,,,,,,,
,,,,,V1_032,20,Female,2024-05-22_15h59.24.296,jersey_experiment_5_v1,2023.2.2,Win32,85.47008547,,,,,,,,,,,,,,,,308.2849,310.0848,310.0848,312.5554,return,1.4973,,84.50520833,0,53,53,9,1,FBP-PT-81.png,0.45,1.2,10,1,,,,,,,,,,,,,,,,,,,,,,,,,,,,,,,,,,,,,,,,,,,,,
,,,,,V1_032,20,Female,2024-05-22_15h59.24.296,jersey_experiment_5_v1,2023.2.2,Win32,85.47008547,,,,,,,,,,,,,,,,312.5556,313.8494,313.8494,316.0497,return,0.9415,,24.609375,0,54,54,25,1,FBP-YG-19.png,0.35,1.2,26,0.5,,,,,,,,,,,,,,,,,,,,,,,,,,,,,,,,,,,,,,,,,,,,,
,,,,,V1_032,20,Female,2024-05-22_15h59.24.296,jersey_experiment_5_v1,2023.2.2,Win32,85.47008547,,,,,,,,,,,,,,,,316.0499,317.3438,317.3439,320.0498,return,1.0114,,22.65625,0,55,55,40,1,FBP-OG-19.png,0.35,1.2,41,0.5,,,,,,,,,,,,,,,,,,,,,,,,,,,,,,,,,,,,,,,,,,,,,
,,,,,V1_032,20,Female,2024-05-22_15h59.24.296,jersey_experiment_5_v1,2023.2.2,Win32,85.47008547,,,,,,,,,,,,,,,,320.05,321.3439,321.344,323.6499,return,0.8241,,38.54166667,0,56,56,32,1,FBP-OG-17.png,0.4,1.2,33,0.5,,,,,,,,,,,,,,,,,,,,,,,,,,,,,,,,,,,,,,,,,,,,,
,,,,,V1_032,20,Female,2024-05-22_15h59.24.296,jersey_experiment_5_v1,2023.2.2,Win32,85.47008547,,,,,,,,,,,,,,,,323.6501,324.9441,324.9441,326.6852,return,0.8389,,39.453125,0,57,57,37,1,FBP-OG-18.png,0.4,1.2,38,0.5,,,,,,,,,,,,,,,,,,,,,,,,,,,,,,,,,,,,,,,,,,,,,
,,,,,V1_032,20,Female,2024-05-22_15h59.24.296,jersey_experiment_5_v1,2023.2.2,Win32,85.47008547,,,,,,,,,,,,,,,,326.6855,328.4857,328.4857,330.2384,return,1.0597,,76.171875,0,58,58,14,1,FBP-PT-91.png,0.45,1.2,15,1,,,,,,,,,,,,,,,,,,,,,,,,,,,,,,,,,,,,,,,,,,,,,
,,,,,V1_032,20,Female,2024-05-22_15h59.24.296,jersey_experiment_5_v1,2023.2.2,Win32,85.47008547,,,,,,,,,,,,,,,,330.2386,331.5326,331.5326,333.4385,return,1.1778,,76.171875,0,59,59,24,1,FBP-YG-18.png,0.45,1.2,25,0.5,,,,,,,,,,,,,,,,,,,,,,,,,,,,,,,,,,,,,,,,,,,,,
,,,,,V1_032,20,Female,2024-05-22_15h59.24.296,jersey_experiment_5_v1,2023.2.2,Win32,85.47008547,,,,,,,,,,,,,,,,333.4407,334.7326,334.7327,336.5562,return,1.1207,,77.60416667,,,,,,FBP-OG-71.png,0.43,1.2,34,0.5,0,0,0,33,1,,,,,,,,,,,,,,,,,,,,,,,,,,,,,,,,,,,,,,,,
,,,,,V1_032,20,Female,2024-05-22_15h59.24.296,jersey_experiment_5_v1,2023.2.2,Win32,85.47008547,,,,,,,,,,,,,,,,336.5565,337.8504,337.8504,340.4976,return,1.9896,,77.60416667,,,,,,FBP-OG-81.png,0.45,1.2,40,0.5,0,1,1,39,1,,,,,,,,,,,,,,,,,,,,,,,,,,,,,,,,,,,,,,,,
,,,,,V1_032,20,Female,2024-05-22_15h59.24.296,jersey_experiment_5_v1,2023.2.2,Win32,85.47008547,,,,,,,,,,,,,,,,340.498,341.7917,341.7917,343.5918,return,1.0439,,76.30208333,,,,,,FBP-OG-91.png,0.43,1.2,44,0.5,0,2,2,43,1,,,,,,,,,,,,,,,,,,,,,,,,,,,,,,,,,,,,,,,,
,,,,,V1_032,20,Female,2024-05-22_15h59.24.296,jersey_experiment_5_v1,2023.2.2,Win32,85.47008547,,,,,,,,,,,,,,,,343.592,344.8859,344.8859,348.8744,return,1.9713,,26.5625,,,,,,FBP-OG-71.png,0.37,1.2,32,0.5,0,3,3,31,1,,,,,,,,,,,,,,,,,,,,,,,,,,,,,,,,,,,,,,,,
,,,,,V1_032,20,Female,2024-05-22_15h59.24.296,jersey_experiment_5_v1,2023.2.2,Win32,85.47008547,,,,,,,,,,,,,,,,348.8746,350.1688,350.1688,355.4274,return,4.1986,,49.08854167,,,,,,FBP-OG-81.png,0.4,1.2,38,0.5,0,4,4,37,1,,,,,,,,,,,,,,,,,,,,,,,,,,,,,,,,,,,,,,,,
,,,,,V1_032,20,Female,2024-05-22_15h59.24.296,jersey_experiment_5_v1,2023.2.2,Win32,85.47008547,,,,,,,,,,,,,,,,355.4276,356.7216,356.7217,358.6392,return,0.8472,,35.9375,,,,,,FBP-RB-17.png,0.37,1.2,47,0.5,0,5,5,46,1,,,,,,,,,,,,,,,,,,,,,,,,,,,,,,,,,,,,,,,,
,,,,,V1_032,20,Female,2024-05-22_15h59.24.296,jersey_experiment_5_v1,2023.2.2,Win32,85.47008547,,,,,,,,,,,,,,,,358.6395,359.9335,359.9336,363.8747,return,2.2695,,59.89583333,,,,,,FBP-YG-81.png,0.4,1.2,23,0.5,0,6,6,22,1,,,,,,,,,,,,,,,,,,,,,,,,,,,,,,,,,,,,,,,,
,,,,,V1_032,20,Female,2024-05-22_15h59.24.296,jersey_experiment_5_v1,2023.2.2,Win32,85.47008547,,,,,,,,,,,,,,,,363.8749,365.1688,365.1688,367.969,return,1.7747,,59.765625,,,,,,FBP-RB-17.png,0.4,1.2,48,0.5,0,7,7,47,1,,,,,,,,,,,,,,,,,,,,,,,,,,,,,,,,,,,,,,,,
,,,,,V1_032,20,Female,2024-05-22_15h59.24.296,jersey_experiment_5_v1,2023.2.2,Win32,85.47008547,,,,,,,,,,,,,,,,367.9694,369.2632,369.2632,370.8752,return,0.747,,72.00520833,,,,,,FBP-OG-81.png,0.43,1.2,39,0.5,0,8,8,38,1,,,,,,,,,,,,,,,,,,,,,,,,,,,,,,,,,,,,,,,,
,,,,,V1_032,20,Female,2024-05-22_15h59.24.296,jersey_experiment_5_v1,2023.2.2,Win32,85.47008547,,,,,,,,,,,,,,,,370.8755,372.1693,372.1693,373.4752,return,0.6689,,76.30208333,,,,,,FBP-RB-19.png,0.45,1.2,60,0.5,0,9,9,59,1,,,,,,,,,,,,,,,,,,,,,,,,,,,,,,,,,,,,,,,,
,,,,,V1_032,20,Female,2024-05-22_15h59.24.296,jersey_experiment_5_v1,2023.2.2,Win32,85.47008547,,,,,,,,,,,,,,,,373.4754,375.2754,375.2754,377.8872,return,1.3173,,52.08333333,,,,,,FBP-PT-19.png,0.4,1.2,13,1,0,10,10,12,1,,,,,,,,,,,,,,,,,,,,,,,,,,,,,,,,,,,,,,,,
,,,,,V1_032,20,Female,2024-05-22_15h59.24.296,jersey_experiment_5_v1,2023.2.2,Win32,85.47008547,,,,,,,,,,,,,,,,377.8874,379.1813,379.1813,383.6287,return,1.1792,,54.6875,,,,,,FBP-YG-91.png,0.4,1.2,28,0.5,0,11,11,27,1,,,,,,,,,,,,,,,,,,,,,,,,,,,,,,,,,,,,,,,,
,,,,,V1_032,20,Female,2024-05-22_15h59.24.296,jersey_experiment_5_v1,2023.2.2,Win32,85.47008547,,,,,,,,,,,,,,,,383.629,384.9227,384.9227,387.3464,return,0.9889,,39.19270833,,,,,,FBP-OG-81.png,0.37,1.2,37,0.5,0,12,12,36,1,,,,,,,,,,,,,,,,,,,,,,,,,,,,,,,,,,,,,,,,
,,,,,V1_032,20,Female,2024-05-22_15h59.24.296,jersey_experiment_5_v1,2023.2.2,Win32,85.47008547,,,,,,,,,,,,,,,,387.3467,388.6405,388.6405,391.276,return,0.9677,,33.984375,,,,,,FBP-YG-81.png,0.35,1.2,21,0.5,0,13,13,20,1,,,,,,,,,,,,,,,,,,,,,,,,,,,,,,,,,,,,,,,,
,,,,,V1_032,20,Female,2024-05-22_15h59.24.296,jersey_experiment_5_v1,2023.2.2,Win32,85.47008547,,,,,,,,,,,,,,,,391.2762,393.0759,393.0759,396.076,return,1.169,,75.13020833,,,,,,FBP-PT-18.png,0.45,1.2,10,1,0,14,14,9,1,,,,,,,,,,,,,,,,,,,,,,,,,,,,,,,,,,,,,,,,
,,,,,V1_032,20,Female,2024-05-22_15h59.24.296,jersey_experiment_5_v1,2023.2.2,Win32,85.47008547,,,,,,,,,,,,,,,,396.0763,397.3702,397.3702,399.6643,return,1.3413,,21.875,,,,,,FBP-RB-17.png,0.35,1.2,46,0.5,0,15,15,45,1,,,,,,,,,,,,,,,,,,,,,,,,,,,,,,,,,,,,,,,,
,,,,,V1_032,20,Female,2024-05-22_15h59.24.296,jersey_experiment_5_v1,2023.2.2,Win32,85.47008547,,,,,,,,,,,,,,,,399.6646,400.9586,400.9586,402.841,return,0.7231,,74.609375,,,,,,FBP-RB-18.png,0.45,1.2,55,0.5,0,16,16,54,1,,,,,,,,,,,,,,,,,,,,,,,,,,,,,,,,,,,,,,,,
,,,,,V1_032,20,Female,2024-05-22_15h59.24.296,jersey_experiment_5_v1,2023.2.2,Win32,85.47008547,,,,,,,,,,,,,,,,402.8413,404.641,404.641,406.0881,return,0.691,,75.13020833,,,,,,FBP-PT-17.png,0.43,1.2,4,1,0,17,17,3,1,,,,,,,,,,,,,,,,,,,,,,,,,,,,,,,,,,,,,,,,
,,,,,V1_032,20,Female,2024-05-22_15h59.24.296,jersey_experiment_5_v1,2023.2.2,Win32,85.47008547,,,,,,,,,,,,,,,,406.0883,407.3822,407.3822,409.4412,return,0.861,,22.91666667,,,,,,FBP-OG-91.png,0.35,1.2,41,0.5,0,18,18,40,1,,,,,,,,,,,,,,,,,,,,,,,,,,,,,,,,,,,,,,,,
,,,,,V1_032,20,Female,2024-05-22_15h59.24.296,jersey_experiment_5_v1,2023.2.2,Win32,85.47008547,,,,,,,,,,,,,,,,409.4415,410.7353,410.7353,413.2649,return,1.2709,,64.71354167,,,,,,FBP-RB-19.png,0.43,1.2,59,0.5,0,19,19,58,1,,,,,,,,,,,,,,,,,,,,,,,,,,,,,,,,,,,,,,,,
,,,,,V1_032,20,Female,2024-05-22_15h59.24.296,jersey_experiment_5_v1,2023.2.2,Win32,85.47008547,,,,,,,,,,,,,,,,413.2651,414.559,414.5591,416.9945,return,0.8707,,41.53645833,,,,,,FBP-RB-19.png,0.37,1.2,57,0.5,0,20,20,56,1,,,,,,,,,,,,,,,,,,,,,,,,,,,,,,,,,,,,,,,,
,,,,,V1_032,20,Female,2024-05-22_15h59.24.296,jersey_experiment_5_v1,2023.2.2,Win32,85.47008547,,,,,,,,,,,,,,,,416.9949,418.2885,418.2885,421.7124,return,1.7987,,75.91145833,,,,,,FBP-YG-91.png,0.45,1.2,30,0.5,0,21,21,29,1,,,,,,,,,,,,,,,,,,,,,,,,,,,,,,,,,,,,,,,,
,,,,,V1_032,20,Female,2024-05-22_15h59.24.296,jersey_experiment_5_v1,2023.2.2,Win32,85.47008547,,,,,,,,,,,,,,,,421.7126,423.0066,423.0066,424.6652,return,0.6777,,73.56770833,,,,,,FBP-YG-71.png,0.43,1.2,19,0.5,0,22,22,18,1,,,,,,,,,,,,,,,,,,,,,,,,,,,,,,,,,,,,,,,,
,,,,,V1_032,20,Female,2024-05-22_15h59.24.296,jersey_experiment_5_v1,2023.2.2,Win32,85.47008547,,,,,,,,,,,,,,,,424.6655,426.4654,426.4654,427.8536,return,0.6724,,74.08854167,,,,,,FBP-PT-19.png,0.43,1.2,14,1,0,23,23,13,1,,,,,,,,,,,,,,,,,,,,,,,,,,,,,,,,,,,,,,,,
,,,,,V1_032,20,Female,2024-05-22_15h59.24.296,jersey_experiment_5_v1,2023.2.2,Win32,85.47008547,,,,,,,,,,,,,,,,427.8539,429.6539,429.654,431.6303,return,0.7064,,55.859375,,,,,,FBP-PT-18.png,0.4,1.2,8,1,0,24,24,7,1,,,,,,,,,,,,,,,,,,,,,,,,,,,,,,,,,,,,,,,,
,,,,,V1_032,20,Female,2024-05-22_15h59.24.296,jersey_experiment_5_v1,2023.2.2,Win32,85.47008547,,,,,,,,,,,,,,,,431.6306,432.9244,432.9244,435.0422,return,1.0968,,75.91145833,,,,,,FBP-RB-18.png,0.43,1.2,54,0.5,0,25,25,53,1,,,,,,,,,,,,,,,,,,,,,,,,,,,,,,,,,,,,,,,,
,,,,,V1_032,20,Female,2024-05-22_15h59.24.296,jersey_experiment_5_v1,2023.2.2,Win32,85.47008547,,,,,,,,,,,,,,,,435.0425,436.3365,436.3365,439.007,return,1.6583,,18.359375,,,,,,FBP-OG-71.png,0.35,1.2,31,0.5,0,26,26,30,1,,,,,,,,,,,,,,,,,,,,,,,,,,,,,,,,,,,,,,,,
,,,,,V1_032,20,Female,2024-05-22_15h59.24.296,jersey_experiment_5_v1,2023.2.2,Win32,85.47008547,,,,,,,,,,,,,,,,439.0071,440.3011,440.3011,442.0778,return,0.6969,,23.046875,,,,,,FBP-YG-81.png,0.37,1.2,22,0.5,0,27,27,21,1,,,,,,,,,,,,,,,,,,,,,,,,,,,,,,,,,,,,,,,,
,,,,,V1_032,20,Female,2024-05-22_15h59.24.296,jersey_experiment_5_v1,2023.2.2,Win32,85.47008547,,,,,,,,,,,,,,,,442.078,443.8779,443.878,445.1955,return,0.6879,,11.97916667,,,,,,FBP-PT-19.png,0.35,1.2,11,1,0,28,28,10,1,,,,,,,,,,,,,,,,,,,,,,,,,,,,,,,,,,,,,,,,
,,,,,V1_032,20,Female,2024-05-22_15h59.24.296,jersey_experiment_5_v1,2023.2.2,Win32,85.47008547,,,,,,,,,,,,,,,,445.1958,446.9957,446.9957,449.5486,return,1.4629,,51.82291667,,,,,,FBP-PT-17.png,0.45,1.2,5,1,0,29,29,4,1,,,,,,,,,,,,,,,,,,,,,,,,,,,,,,,,,,,,,,,,
,,,,,V1_032,20,Female,2024-05-22_15h59.24.296,jersey_experiment_5_v1,2023.2.2,Win32,85.47008547,,,,,,,,,,,,,,,,449.5488,450.8426,450.8426,452.3605,return,0.7967,,42.83854167,,,,,,FBP-YG-91.png,0.37,1.2,27,0.5,0,30,30,26,1,,,,,,,,,,,,,,,,,,,,,,,,,,,,,,,,,,,,,,,,
,,,,,V1_032,20,Female,2024-05-22_15h59.24.296,jersey_experiment_5_v1,2023.2.2,Win32,85.47008547,,,,,,,,,,,,,,,,452.3607,454.1606,454.1607,458.6667,return,3.3827,,30.46875,,,,,,FBP-PT-19.png,0.37,1.2,12,1,0,31,31,11,1,,,,,,,,,,,,,,,,,,,,,,,,,,,,,,,,,,,,,,,,
,,,,,V1_032,20,Female,2024-05-22_15h59.24.296,jersey_experiment_5_v1,2023.2.2,Win32,85.47008547,,,,,,,,,,,,,,,,458.6669,459.9607,459.9607,462.0432,return,1.1675,,74.34895833,,,,,,FBP-OG-91.png,0.45,1.2,45,0.5,0,32,32,44,1,,,,,,,,,,,,,,,,,,,,,,,,,,,,,,,,,,,,,,,,
,,,,,V1_032,20,Female,2024-05-22_15h59.24.296,jersey_experiment_5_v1,2023.2.2,Win32,85.47008547,,,,,,,,,,,,,,,,462.0434,463.3371,463.3372,465.6902,return,1.3003,,36.19791667,,,,,,FBP-YG-71.png,0.37,1.2,17,0.5,0,33,33,16,1,,,,,,,,,,,,,,,,,,,,,,,,,,,,,,,,,,,,,,,,
,,,,,V1_032,20,Female,2024-05-22_15h59.24.296,jersey_experiment_5_v1,2023.2.2,Win32,85.47008547,,,,,,,,,,,,,,,,465.6904,467.4904,467.4904,468.7964,return,0.7675,,36.19791667,,,,,,FBP-PT-17.png,0.4,1.2,3,1,0,34,34,2,1,,,,,,,,,,,,,,,,,,,,,,,,,,,,,,,,,,,,,,,,
,,,,,V1_032,20,Female,2024-05-22_15h59.24.296,jersey_experiment_5_v1,2023.2.2,Win32,85.47008547,,,,,,,,,,,,,,,,468.7967,470.0906,470.0906,473.0318,return,0.6208,,75.390625,,,,,,FBP-RB-17.png,0.45,1.2,50,0.5,0,35,35,49,1,,,,,,,,,,,,,,,,,,,,,,,,,,,,,,,,,,,,,,,,
,,,,,V1_032,20,Female,2024-05-22_15h59.24.296,jersey_experiment_5_v1,2023.2.2,Win32,85.47008547,,,,,,,,,,,,,,,,473.032,474.8319,474.8319,476.5379,return,0.6187,,78.38541667,,,,,,FBP-PT-19.png,0.45,1.2,15,1,0,36,36,14,1,,,,,,,,,,,,,,,,,,,,,,,,,,,,,,,,,,,,,,,,
,,,,,V1_032,20,Female,2024-05-22_15h59.24.296,jersey_experiment_5_v1,2023.2.2,Win32,85.47008547,,,,,,,,,,,,,,,,476.538,477.8319,477.832,479.7733,return,0.8248,,22.13541667,,,,,,FBP-RB-18.png,0.35,1.2,51,0.5,0,37,37,50,1,,,,,,,,,,,,,,,,,,,,,,,,,,,,,,,,,,,,,,,,
,,,,,V1_032,20,Female,2024-05-22_15h59.24.296,jersey_experiment_5_v1,2023.2.2,Win32,85.47008547,,,,,,,,,,,,,,,,479.7735,481.0675,481.0675,482.6675,return,0.6992,,21.61458333,,,,,,FBP-YG-71.png,0.35,1.2,16,0.5,0,38,38,15,1,,,,,,,,,,,,,,,,,,,,,,,,,,,,,,,,,,,,,,,,
,,,,,V1_032,20,Female,2024-05-22_15h59.24.296,jersey_experiment_5_v1,2023.2.2,Win32,85.47008547,,,,,,,,,,,,,,,,482.6677,483.9617,483.9617,485.4677,return,0.6756,,17.31770833,,,,,,FBP-OG-81.png,0.35,1.2,36,0.5,0,39,39,35,1,,,,,,,,,,,,,,,,,,,,,,,,,,,,,,,,,,,,,,,,
,,,,,V1_032,20,Female,2024-05-22_15h59.24.296,jersey_experiment_5_v1,2023.2.2,Win32,85.47008547,,,,,,,,,,,,,,,,485.4679,487.2675,487.2676,488.3852,return,0.696,,15.625,,,,,,FBP-PT-18.png,0.37,1.2,7,1,0,40,40,6,1,,,,,,,,,,,,,,,,,,,,,,,,,,,,,,,,,,,,,,,,
,,,,,V1_032,20,Female,2024-05-22_15h59.24.296,jersey_experiment_5_v1,2023.2.2,Win32,85.47008547,,,,,,,,,,,,,,,,488.3854,489.6794,489.6794,491.4324,return,0.6433,,72.52604167,,,,,,FBP-YG-71.png,0.45,1.2,20,0.5,0,41,41,19,1,,,,,,,,,,,,,,,,,,,,,,,,,,,,,,,,,,,,,,,,
,,,,,V1_032,20,Female,2024-05-22_15h59.24.296,jersey_experiment_5_v1,2023.2.2,Win32,85.47008547,,,,,,,,,,,,,,,,491.4326,493.2328,493.2328,495.8209,return,1.9303,,29.55729167,,,,,,FBP-PT-18.png,0.35,1.2,6,1,0,42,42,5,1,,,,,,,,,,,,,,,,,,,,,,,,,,,,,,,,,,,,,,,,
,,,,,V1_032,20,Female,2024-05-22_15h59.24.296,jersey_experiment_5_v1,2023.2.2,Win32,85.47008547,,,,,,,,,,,,,,,,495.8212,497.1152,497.1152,499.8681,return,1.2034,,47.13541667,,,,,,FBP-OG-71.png,0.4,1.2,33,0.5,0,43,43,32,1,,,,,,,,,,,,,,,,,,,,,,,,,,,,,,,,,,,,,,,,
,,,,,V1_032,20,Female,2024-05-22_15h59.24.296,jersey_experiment_5_v1,2023.2.2,Win32,85.47008547,,,,,,,,,,,,,,,,499.8684,501.1621,501.1622,503.5035,return,1.376,,76.69270833,,,,,,FBP-OG-71.png,0.45,1.2,35,0.5,0,44,44,34,1,,,,,,,,,,,,,,,,,,,,,,,,,,,,,,,,,,,,,,,,
,,,,,V1_032,20,Female,2024-05-22_15h59.24.296,jersey_experiment_5_v1,2023.2.2,Win32,85.47008547,,,,,,,,,,,,,,,,503.5038,504.7976,504.7976,506.6213,return,0.7777,,50,,,,,,FBP-OG-91.png,0.37,1.2,42,0.5,0,45,45,41,1,,,,,,,,,,,,,,,,,,,,,,,,,,,,,,,,,,,,,,,,
,,,,,V1_032,20,Female,2024-05-22_15h59.24.296,jersey_experiment_5_v1,2023.2.2,Win32,85.47008547,,,,,,,,,,,,,,,,506.6215,507.9154,507.9154,509.5391,return,0.6116,,49.47916667,,,,,,FBP-YG-71.png,0.4,1.2,18,0.5,0,46,46,17,1,,,,,,,,,,,,,,,,,,,,,,,,,,,,,,,,,,,,,,,,
,,,,,V1_032,20,Female,2024-05-22_15h59.24.296,jersey_experiment_5_v1,2023.2.2,Win32,85.47008547,,,,,,,,,,,,,,,,509.5393,511.3392,511.3392,514.1627,return,2.2931,,30.46875,,,,,,FBP-PT-17.png,0.37,1.2,2,1,0,47,47,1,1,,,,,,,,,,,,,,,,,,,,,,,,,,,,,,,,,,,,,,,,
,,,,,V1_032,20,Female,2024-05-22_15h59.24.296,jersey_experiment_5_v1,2023.2.2,Win32,85.47008547,,,,,,,,,,,,,,,,514.163,515.963,515.9631,517.3747,return,0.7768,,20.18229167,,,,,,FBP-PT-17.png,0.35,1.2,1,1,0,48,48,0,1,,,,,,,,,,,,,,,,,,,,,,,,,,,,,,,,,,,,,,,,
,,,,,V1_032,20,Female,2024-05-22_15h59.24.296,jersey_experiment_5_v1,2023.2.2,Win32,85.47008547,,,,,,,,,,,,,,,,517.3749,518.6691,518.6691,521.3395,return,1.1207,,72.52604167,,,,,,FBP-RB-17.png,0.43,1.2,49,0.5,0,49,49,48,1,,,,,,,,,,,,,,,,,,,,,,,,,,,,,,,,,,,,,,,,
,,,,,V1_032,20,Female,2024-05-22_15h59.24.296,jersey_experiment_5_v1,2023.2.2,Win32,85.47008547,,,,,,,,,,,,,,,,521.3398,522.6335,522.6336,530.128,return,4.7996,,49.86979167,,,,,,FBP-RB-18.png,0.37,1.2,52,0.5,0,50,50,51,1,,,,,,,,,,,,,,,,,,,,,,,,,,,,,,,,,,,,,,,,
,,,,,V1_032,20,Female,2024-05-22_15h59.24.296,jersey_experiment_5_v1,2023.2.2,Win32,85.47008547,,,,,,,,,,,,,,,,530.1282,531.4221,531.4222,534.5753,return,0.6253,,76.82291667,,,,,,FBP-YG-91.png,0.43,1.2,29,0.5,0,51,51,28,1,,,,,,,,,,,,,,,,,,,,,,,,,,,,,,,,,,,,,,,,
,,,,,V1_032,20,Female,2024-05-22_15h59.24.296,jersey_experiment_5_v1,2023.2.2,Win32,85.47008547,,,,,,,,,,,,,,,,534.5755,535.8696,535.8696,539.5872,return,1.9896,,52.21354167,,,,,,FBP-RB-18.png,0.4,1.2,53,0.5,0,52,52,52,1,,,,,,,,,,,,,,,,,,,,,,,,,,,,,,,,,,,,,,,,
,,,,,V1_032,20,Female,2024-05-22_15h59.24.296,jersey_experiment_5_v1,2023.2.2,Win32,85.47008547,,,,,,,,,,,,,,,,539.5875,540.8813,540.8814,542.658,return,0.6118,,28.64583333,,,,,,FBP-RB-19.png,0.35,1.2,56,0.5,0,53,53,55,1,,,,,,,,,,,,,,,,,,,,,,,,,,,,,,,,,,,,,,,,
,,,,,V1_032,20,Female,2024-05-22_15h59.24.296,jersey_experiment_5_v1,2023.2.2,Win32,85.47008547,,,,,,,,,,,,,,,,542.6583,544.4582,544.4582,546.3521,return,1.2569,,71.74479167,,,,,,FBP-PT-18.png,0.43,1.2,9,1,0,54,54,8,1,,,,,,,,,,,,,,,,,,,,,,,,,,,,,,,,,,,,,,,,
,,,,,V1_032,20,Female,2024-05-22_15h59.24.296,jersey_experiment_5_v1,2023.2.2,Win32,85.47008547,,,,,,,,,,,,,,,,546.3523,547.6464,547.6464,550.3521,return,1.3884,,67.70833333,,,,,,FBP-OG-91.png,0.4,1.2,43,0.5,0,55,55,42,1,,,,,,,,,,,,,,,,,,,,,,,,,,,,,,,,,,,,,,,,
,,,,,V1_032,20,Female,2024-05-22_15h59.24.296,jersey_experiment_5_v1,2023.2.2,Win32,85.47008547,,,,,,,,,,,,,,,,550.3523,551.6464,551.6464,553.2818,return,0.579,,76.5625,,,,,,FBP-YG-81.png,0.43,1.2,24,0.5,0,56,56,23,1,,,,,,,,,,,,,,,,,,,,,,,,,,,,,,,,,,,,,,,,
,,,,,V1_032,20,Female,2024-05-22_15h59.24.296,jersey_experiment_5_v1,2023.2.2,Win32,85.47008547,,,,,,,,,,,,,,,,553.282,554.5759,554.5759,555.7407,return,0.5922,,76.953125,,,,,,FBP-YG-81.png,0.45,1.2,25,0.5,0,57,57,24,1,,,,,,,,,,,,,,,,,,,,,,,,,,,,,,,,,,,,,,,,
,,,,,V1_032,20,Female,2024-05-22_15h59.24.296,jersey_experiment_5_v1,2023.2.2,Win32,85.47008547,,,,,,,,,,,,,,,,555.7409,557.0347,557.0348,558.4467,return,0.6229,,78.64583333,,,,,,FBP-RB-19.png,0.4,1.2,58,0.5,0,58,58,57,1,,,,,,,,,,,,,,,,,,,,,,,,,,,,,,,,,,,,,,,,
,,,,,V1_032,20,Female,2024-05-22_15h59.24.296,jersey_experiment_5_v1,2023.2.2,Win32,85.47008547,,,,,,,,,,,,,,,,558.4469,559.7408,559.7408,562.1058,return,0.5932,,41.015625,,,,,,FBP-YG-91.png,0.35,1.2,26,0.5,0,59,59,25,1,,,,,,,,,,,,,,,,,,,,,,,,,,,,,,,,,,,,,,,,
,,,,,V1_032,20,Female,2024-05-22_15h59.24.296,jersey_experiment_5_v1,2023.2.2,Win32,85.47008547,,,,,,,,,,,,,,,,,,,,,,,,,,,,,,,,,,,,,,,562.1062,682.1105,,,,,,,,,,,,,,,,,,,,,,,,,,,,,,,,,,,,,,
,,,,,V1_032,20,Female,2024-05-22_15h59.24.296,jersey_experiment_5_v1,2023.2.2,Win32,85.47008547,,,,,,,,,,,,,,,,,,,,,,,,,,,,,,,,,,,,,,,,,682.1105,694.7461,return,12.6303,,,,,,,,,,,,,,,,,,,,,,,,,,,,,,,,,,
,,,,,V1_032,20,Female,2024-05-22_15h59.24.296,jersey_experiment_5_v1,2023.2.2,Win32,85.47008547,,,,,,,,,,,,,,,,694.7521,696.0516,696.0516,699.9695,return,2.7057,,54.296875,,,,,,FBP-PT-81.png,0.43,1.2,9,0.5,,,,,,,,,,,,,0,0,0,8,1,,,,,,,,,,,,,,,,,,,,,,,,,,,,
,,,,,V1_032,20,Female,2024-05-22_15h59.24.296,jersey_experiment_5_v1,2023.2.2,Win32,85.47008547,,,,,,,,,,,,,,,,699.97,701.7698,701.7698,703.2756,return,0.6272,,27.99479167,,,,,,FBP-RB-91.png,0.37,1.2,57,1,,,,,,,,,,,,,0,1,1,56,1,,,,,,,,,,,,,,,,,,,,,,,,,,,,
,,,,,V1_032,20,Female,2024-05-22_15h59.24.296,jersey_experiment_5_v1,2023.2.2,Win32,85.47008547,,,,,,,,,,,,,,,,703.2758,704.5697,704.5697,705.9344,return,0.5302,,32.03125,,,,,,FBP-PT-81.png,0.4,1.2,8,0.5,,,,,,,,,,,,,0,2,2,7,1,,,,,,,,,,,,,,,,,,,,,,,,,,,,
,,,,,V1_032,20,Female,2024-05-22_15h59.24.296,jersey_experiment_5_v1,2023.2.2,Win32,85.47008547,,,,,,,,,,,,,,,,705.9346,707.2285,707.2286,708.8757,return,0.7816,,77.47395833,,,,,,FBP-PT-91.png,0.45,1.2,15,0.5,,,,,,,,,,,,,0,3,3,14,1,,,,,,,,,,,,,,,,,,,,,,,,,,,,
,,,,,V1_032,20,Female,2024-05-22_15h59.24.296,jersey_experiment_5_v1,2023.2.2,Win32,85.47008547,,,,,,,,,,,,,,,,708.8759,710.1697,710.1698,711.7465,return,0.7163,,34.63541667,,,,,,FBP-PT-81.png,0.37,1.2,7,0.5,,,,,,,,,,,,,0,4,4,6,1,,,,,,,,,,,,,,,,,,,,,,,,,,,,
,,,,,V1_032,20,Female,2024-05-22_15h59.24.296,jersey_experiment_5_v1,2023.2.2,Win32,85.47008547,,,,,,,,,,,,,,,,711.7467,713.5467,713.5467,714.9582,return,0.7298,,31.77083333,,,,,,FBP-RB-81.png,0.37,1.2,52,1,,,,,,,,,,,,,0,5,5,51,1,,,,,,,,,,,,,,,,,,,,,,,,,,,,
,,,,,V1_032,20,Female,2024-05-22_15h59.24.296,jersey_experiment_5_v1,2023.2.2,Win32,85.47008547,,,,,,,,,,,,,,,,714.9585,716.7583,716.7584,717.8877,return,0.7066,,36.97916667,,,,,,FBP-OG-17.png,0.4,1.2,33,1,,,,,,,,,,,,,0,6,6,32,1,,,,,,,,,,,,,,,,,,,,,,,,,,,,
,,,,,V1_032,20,Female,2024-05-22_15h59.24.296,jersey_experiment_5_v1,2023.2.2,Win32,85.47008547,,,,,,,,,,,,,,,,717.8879,719.688,719.688,721.594,return,0.7009,,69.921875,,,,,,FBP-RB-81.png,0.43,1.2,54,1,,,,,,,,,,,,,0,7,7,53,1,,,,,,,,,,,,,,,,,,,,,,,,,,,,
,,,,,V1_032,20,Female,2024-05-22_15h59.24.296,jersey_experiment_5_v1,2023.2.2,Win32,85.47008547,,,,,,,,,,,,,,,,721.5942,722.888,722.888,725.0529,return,1.2156,,10.80729167,,,,,,FBP-PT-81.png,0.35,1.2,6,0.5,,,,,,,,,,,,,0,8,8,5,1,,,,,,,,,,,,,,,,,,,,,,,,,,,,
,,,,,V1_032,20,Female,2024-05-22_15h59.24.296,jersey_experiment_5_v1,2023.2.2,Win32,85.47008547,,,,,,,,,,,,,,,,725.0532,726.8528,726.8529,728.547,return,0.6449,,39.0625,,,,,,FBP-YG-19.png,0.4,1.2,28,1,,,,,,,,,,,,,0,9,9,27,1,,,,,,,,,,,,,,,,,,,,,,,,,,,,
,,,,,V1_032,20,Female,2024-05-22_15h59.24.296,jersey_experiment_5_v1,2023.2.2,Win32,85.47008547,,,,,,,,,,,,,,,,728.5474,730.3473,730.3474,731.7119,return,0.6814,,73.17708333,,,,,,FBP-OG-17.png,0.45,1.2,35,1,,,,,,,,,,,,,0,10,10,34,1,,,,,,,,,,,,,,,,,,,,,,,,,,,,
,,,,,V1_032,20,Female,2024-05-22_15h59.24.296,jersey_experiment_5_v1,2023.2.2,Win32,85.47008547,,,,,,,,,,,,,,,,731.7121,733.5119,733.512,734.5706,return,0.5809,,76.5625,,,,,,FBP-OG-18.png,0.45,1.2,40,1,,,,,,,,,,,,,0,11,11,39,1,,,,,,,,,,,,,,,,,,,,,,,,,,,,
,,,,,V1_032,20,Female,2024-05-22_15h59.24.296,jersey_experiment_5_v1,2023.2.2,Win32,85.47008547,,,,,,,,,,,,,,,,734.5709,735.8648,735.8648,737.865,return,0.7468,,22.265625,,,,,,FBP-PT-91.png,0.35,1.2,11,0.5,,,,,,,,,,,,,0,12,12,10,1,,,,,,,,,,,,,,,,,,,,,,,,,,,,
,,,,,V1_032,20,Female,2024-05-22_15h59.24.296,jersey_experiment_5_v1,2023.2.2,Win32,85.47008547,,,,,,,,,,,,,,,,737.8652,739.6652,739.6652,740.9709,return,0.6511,,37.109375,,,,,,FBP-OG-18.png,0.4,1.2,38,1,,,,,,,,,,,,,0,13,13,37,1,,,,,,,,,,,,,,,,,,,,,,,,,,,,
,,,,,V1_032,20,Female,2024-05-22_15h59.24.296,jersey_experiment_5_v1,2023.2.2,Win32,85.47008547,,,,,,,,,,,,,,,,740.9712,742.7712,742.7713,744.2417,return,0.7165,,61.06770833,,,,,,FBP-OG-18.png,0.43,1.2,39,1,,,,,,,,,,,,,0,14,14,38,1,,,,,,,,,,,,,,,,,,,,,,,,,,,,
,,,,,V1_032,20,Female,2024-05-22_15h59.24.296,jersey_experiment_5_v1,2023.2.2,Win32,85.47008547,,,,,,,,,,,,,,,,744.242,746.0417,746.0417,747.7242,return,0.6866,,65.36458333,,,,,,FBP-YG-19.png,0.45,1.2,30,1,,,,,,,,,,,,,0,15,15,29,1,,,,,,,,,,,,,,,,,,,,,,,,,,,,
,,,,,V1_032,20,Female,2024-05-22_15h59.24.296,jersey_experiment_5_v1,2023.2.2,Win32,85.47008547,,,,,,,,,,,,,,,,747.7244,749.5243,749.5243,750.6537,return,0.6968,,75.13020833,,,,,,FBP-YG-17.png,0.45,1.2,20,1,,,,,,,,,,,,,0,16,16,19,1,,,,,,,,,,,,,,,,,,,,,,,,,,,,
,,,,,V1_032,20,Female,2024-05-22_15h59.24.296,jersey_experiment_5_v1,2023.2.2,Win32,85.47008547,,,,,,,,,,,,,,,,750.6539,752.4539,752.4539,754.6892,return,1.3177,,52.99479167,,,,,,FBP-RB-71.png,0.4,1.2,48,1,,,,,,,,,,,,,0,17,17,47,1,,,,,,,,,,,,,,,,,,,,,,,,,,,,
,,,,,V1_032,20,Female,2024-05-22_15h59.24.296,jersey_experiment_5_v1,2023.2.2,Win32,85.47008547,,,,,,,,,,,,,,,,754.6894,756.4892,756.4892,757.5951,return,0.6856,,65.36458333,,,,,,FBP-YG-18.png,0.43,1.2,24,1,,,,,,,,,,,,,0,18,18,23,1,,,,,,,,,,,,,,,,,,,,,,,,,,,,
,,,,,V1_032,20,Female,2024-05-22_15h59.24.296,jersey_experiment_5_v1,2023.2.2,Win32,85.47008547,,,,,,,,,,,,,,,,757.5954,758.8893,758.8893,760.6424,return,0.6825,,75.52083333,,,,,,FBP-PT-81.png,0.45,1.2,10,0.5,,,,,,,,,,,,,0,19,19,9,1,,,,,,,,,,,,,,,,,,,,,,,,,,,,
,,,,,V1_032,20,Female,2024-05-22_15h59.24.296,jersey_experiment_5_v1,2023.2.2,Win32,85.47008547,,,,,,,,,,,,,,,,760.6427,761.9364,761.9364,763.5954,return,0.7232,,73.95833333,,,,,,FBP-PT-91.png,0.43,1.2,14,0.5,,,,,,,,,,,,,0,20,20,13,1,,,,,,,,,,,,,,,,,,,,,,,,,,,,
,,,,,V1_032,20,Female,2024-05-22_15h59.24.296,jersey_experiment_5_v1,2023.2.2,Win32,85.47008547,,,,,,,,,,,,,,,,763.5957,765.3956,765.3956,766.9131,return,0.9082,,79.6875,,,,,,FBP-YG-18.png,0.45,1.2,25,1,,,,,,,,,,,,,0,21,21,24,1,,,,,,,,,,,,,,,,,,,,,,,,,,,,
,,,,,V1_032,20,Female,2024-05-22_15h59.24.296,jersey_experiment_5_v1,2023.2.2,Win32,85.47008547,,,,,,,,,,,,,,,,766.9135,768.7135,768.7135,770.3839,return,1.036,,61.58854167,,,,,,FBP-YG-19.png,0.43,1.2,29,1,,,,,,,,,,,,,0,22,22,28,1,,,,,,,,,,,,,,,,,,,,,,,,,,,,
,,,,,V1_032,20,Female,2024-05-22_15h59.24.296,jersey_experiment_5_v1,2023.2.2,Win32,85.47008547,,,,,,,,,,,,,,,,770.3842,771.678,771.678,773.1605,return,0.7139,,35.28645833,,,,,,FBP-PT-91.png,0.4,1.2,13,0.5,,,,,,,,,,,,,0,23,23,12,1,,,,,,,,,,,,,,,,,,,,,,,,,,,,
,,,,,V1_032,20,Female,2024-05-22_15h59.24.296,jersey_experiment_5_v1,2023.2.2,Win32,85.47008547,,,,,,,,,,,,,,,,773.1606,774.9604,774.9605,776.537,return,0.8427,,22.78645833,,,,,,FBP-RB-71.png,0.37,1.2,47,1,,,,,,,,,,,,,0,24,24,46,1,,,,,,,,,,,,,,,,,,,,,,,,,,,,
,,,,,V1_032,20,Female,2024-05-22_15h59.24.296,jersey_experiment_5_v1,2023.2.2,Win32,85.47008547,,,,,,,,,,,,,,,,776.5373,777.8311,777.8312,780.8312,return,1.8837,,18.75,,,,,,FBP-PT-91.png,0.37,1.2,12,0.5,,,,,,,,,,,,,0,25,25,11,1,,,,,,,,,,,,,,,,,,,,,,,,,,,,
,,,,,V1_032,20,Female,2024-05-22_15h59.24.296,jersey_experiment_5_v1,2023.2.2,Win32,85.47008547,,,,,,,,,,,,,,,,780.8315,782.6316,782.6316,784.2196,return,0.7346,,46.61458333,,,,,,FBP-RB-71.png,0.43,1.2,49,1,,,,,,,,,,,,,0,26,26,48,1,,,,,,,,,,,,,,,,,,,,,,,,,,,,
,,,,,V1_032,20,Female,2024-05-22_15h59.24.296,jersey_experiment_5_v1,2023.2.2,Win32,85.47008547,,,,,,,,,,,,,,,,784.2198,786.0197,786.0197,787.8669,return,1.1919,,63.28125,,,,,,FBP-RB-81.png,0.45,1.2,55,1,,,,,,,,,,,,,0,27,27,54,1,,,,,,,,,,,,,,,,,,,,,,,,,,,,
,,,,,V1_032,20,Female,2024-05-22_15h59.24.296,jersey_experiment_5_v1,2023.2.2,Win32,85.47008547,,,,,,,,,,,,,,,,787.8671,789.667,789.667,792.9141,return,2.5421,,65.10416667,,,,,,FBP-RB-91.png,0.43,1.2,59,1,,,,,,,,,,,,,0,28,28,58,1,,,,,,,,,,,,,,,,,,,,,,,,,,,,
,,,,,V1_032,20,Female,2024-05-22_15h59.24.296,jersey_experiment_5_v1,2023.2.2,Win32,85.47008547,,,,,,,,,,,,,,,,792.9143,794.7142,794.7142,795.9142,return,0.6417,,69.40104167,,,,,,FBP-RB-91.png,0.45,1.2,60,1,,,,,,,,,,,,,0,29,29,59,1,,,,,,,,,,,,,,,,,,,,,,,,,,,,
,,,,,V1_032,20,Female,2024-05-22_15h59.24.296,jersey_experiment_5_v1,2023.2.2,Win32,85.47008547,,,,,,,,,,,,,,,,795.9144,797.7144,797.7144,799.326,return,0.6486,,47.91666667,,,,,,FBP-RB-81.png,0.4,1.2,53,1,,,,,,,,,,,,,0,30,30,52,1,,,,,,,,,,,,,,,,,,,,,,,,,,,,
,,,,,V1_032,20,Female,2024-05-22_15h59.24.296,jersey_experiment_5_v1,2023.2.2,Win32,85.47008547,,,,,,,,,,,,,,,,799.3263,800.6201,800.6201,802.7616,return,0.6988,,44.66145833,,,,,,FBP-PT-71.png,0.4,1.2,3,0.5,,,,,,,,,,,,,0,31,31,2,1,,,,,,,,,,,,,,,,,,,,,,,,,,,,
,,,,,V1_032,20,Female,2024-05-22_15h59.24.296,jersey_experiment_5_v1,2023.2.2,Win32,85.47008547,,,,,,,,,,,,,,,,802.7618,804.5617,804.5617,808.2559,return,2.8367,,15.36458333,,,,,,FBP-RB-71.png,0.35,1.2,46,1,,,,,,,,,,,,,0,32,32,45,1,,,,,,,,,,,,,,,,,,,,,,,,,,,,
,,,,,V1_032,20,Female,2024-05-22_15h59.24.296,jersey_experiment_5_v1,2023.2.2,Win32,85.47008547,,,,,,,,,,,,,,,,808.2561,810.0558,810.0559,811.3736,return,0.7185,,15.36458333,,,,,,FBP-YG-19.png,0.37,1.2,27,1,,,,,,,,,,,,,0,33,33,26,1,,,,,,,,,,,,,,,,,,,,,,,,,,,,
,,,,,V1_032,20,Female,2024-05-22_15h59.24.296,jersey_experiment_5_v1,2023.2.2,Win32,85.47008547,,,,,,,,,,,,,,,,811.3738,813.1737,813.1737,814.4795,return,0.7625,,15.36458333,,,,,,FBP-OG-19.png,0.37,1.2,42,1,,,,,,,,,,,,,0,34,34,41,1,,,,,,,,,,,,,,,,,,,,,,,,,,,,
,,,,,V1_032,20,Female,2024-05-22_15h59.24.296,jersey_experiment_5_v1,2023.2.2,Win32,85.47008547,,,,,,,,,,,,,,,,814.4797,816.2796,816.2796,817.4796,return,0.7133,,14.97395833,,,,,,FBP-YG-18.png,0.37,1.2,22,1,,,,,,,,,,,,,0,35,35,21,1,,,,,,,,,,,,,,,,,,,,,,,,,,,,
,,,,,V1_032,20,Female,2024-05-22_15h59.24.296,jersey_experiment_5_v1,2023.2.2,Win32,85.47008547,,,,,,,,,,,,,,,,817.4799,818.774,818.774,821.2915,return,1.1698,,70.44270833,,,,,,FBP-PT-71.png,0.45,1.2,5,0.5,,,,,,,,,,,,,0,36,36,4,1,,,,,,,,,,,,,,,,,,,,,,,,,,,,
,,,,,V1_032,20,Female,2024-05-22_15h59.24.296,jersey_experiment_5_v1,2023.2.2,Win32,85.47008547,,,,,,,,,,,,,,,,821.2919,823.0917,823.0917,824.7976,return,1.0601,,71.35416667,,,,,,FBP-YG-17.png,0.43,1.2,19,1,,,,,,,,,,,,,0,37,37,18,1,,,,,,,,,,,,,,,,,,,,,,,,,,,,
,,,,,V1_032,20,Female,2024-05-22_15h59.24.296,jersey_experiment_5_v1,2023.2.2,Win32,85.47008547,,,,,,,,,,,,,,,,824.7979,826.5978,826.5978,829.7035,return,0.6209,,45.44270833,,,,,,FBP-YG-18.png,0.4,1.2,23,1,,,,,,,,,,,,,0,38,38,22,1,,,,,,,,,,,,,,,,,,,,,,,,,,,,
,,,,,V1_032,20,Female,2024-05-22_15h59.24.296,jersey_experiment_5_v1,2023.2.2,Win32,85.47008547,,,,,,,,,,,,,,,,829.7037,831.5038,831.5038,832.5743,return,0.6007,,33.72395833,,,,,,FBP-YG-17.png,0.37,1.2,17,1,,,,,,,,,,,,,0,39,39,16,1,,,,,,,,,,,,,,,,,,,,,,,,,,,,
,,,,,V1_032,20,Female,2024-05-22_15h59.24.296,jersey_experiment_5_v1,2023.2.2,Win32,85.47008547,,,,,,,,,,,,,,,,832.5745,834.3745,834.3746,835.6097,return,0.595,,25,,,,,,FBP-OG-17.png,0.35,1.2,31,1,,,,,,,,,,,,,0,40,40,30,1,,,,,,,,,,,,,,,,,,,,,,,,,,,,
,,,,,V1_032,20,Female,2024-05-22_15h59.24.296,jersey_experiment_5_v1,2023.2.2,Win32,85.47008547,,,,,,,,,,,,,,,,835.6099,837.41,837.41,838.4452,return,0.6134,,21.22395833,,,,,,FBP-OG-19.png,0.35,1.2,41,1,,,,,,,,,,,,,0,41,41,40,1,,,,,,,,,,,,,,,,,,,,,,,,,,,,
,,,,,V1_032,20,Female,2024-05-22_15h59.24.296,jersey_experiment_5_v1,2023.2.2,Win32,85.47008547,,,,,,,,,,,,,,,,838.4455,839.7395,839.7395,841.7747,return,1.0934,,67.578125,,,,,,FBP-PT-71.png,0.43,1.2,4,0.5,,,,,,,,,,,,,0,42,42,3,1,,,,,,,,,,,,,,,,,,,,,,,,,,,,
,,,,,V1_032,20,Female,2024-05-22_15h59.24.296,jersey_experiment_5_v1,2023.2.2,Win32,85.47008547,,,,,,,,,,,,,,,,841.7749,843.5748,843.5748,846.6218,return,0.8602,,25.65104167,,,,,,FBP-YG-18.png,0.35,1.2,21,1,,,,,,,,,,,,,0,43,43,20,1,,,,,,,,,,,,,,,,,,,,,,,,,,,,
,,,,,V1_032,20,Female,2024-05-22_15h59.24.296,jersey_experiment_5_v1,2023.2.2,Win32,85.47008547,,,,,,,,,,,,,,,,846.622,848.4219,848.4219,849.4103,return,0.6111,,25.390625,,,,,,FBP-OG-18.png,0.37,1.2,37,1,,,,,,,,,,,,,0,44,44,36,1,,,,,,,,,,,,,,,,,,,,,,,,,,,,
,,,,,V1_032,20,Female,2024-05-22_15h59.24.296,jersey_experiment_5_v1,2023.2.2,Win32,85.47008547,,,,,,,,,,,,,,,,849.4105,850.7043,850.7043,852.0809,return,0.706,,25.390625,,,,,,FBP-PT-71.png,0.37,1.2,2,0.5,,,,,,,,,,,,,0,45,45,1,1,,,,,,,,,,,,,,,,,,,,,,,,,,,,
,,,,,V1_032,20,Female,2024-05-22_15h59.24.296,jersey_experiment_5_v1,2023.2.2,Win32,85.47008547,,,,,,,,,,,,,,,,852.0811,853.8812,853.8812,857.2341,return,2.787,,16.92708333,,,,,,FBP-RB-91.png,0.35,1.2,56,1,,,,,,,,,,,,,0,46,46,55,1,,,,,,,,,,,,,,,,,,,,,,,,,,,,
,,,,,V1_032,20,Female,2024-05-22_15h59.24.296,jersey_experiment_5_v1,2023.2.2,Win32,85.47008547,,,,,,,,,,,,,,,,857.2344,859.0341,859.0341,860.6106,return,0.8242,,47.39583333,,,,,,FBP-YG-17.png,0.4,1.2,18,1,,,,,,,,,,,,,0,47,47,17,1,,,,,,,,,,,,,,,,,,,,,,,,,,,,
,,,,,V1_032,20,Female,2024-05-22_15h59.24.296,jersey_experiment_5_v1,2023.2.2,Win32,85.47008547,,,,,,,,,,,,,,,,860.6109,862.4109,862.4109,864.5286,return,1.4696,,67.31770833,,,,,,FBP-OG-17.png,0.43,1.2,34,1,,,,,,,,,,,,,0,48,48,33,1,,,,,,,,,,,,,,,,,,,,,,,,,,,,
,,,,,V1_032,20,Female,2024-05-22_15h59.24.296,jersey_experiment_5_v1,2023.2.2,Win32,85.47008547,,,,,,,,,,,,,,,,864.5288,866.3286,866.3286,868.7167,return,1.4258,,68.359375,,,,,,FBP-OG-19.png,0.43,1.2,44,1,,,,,,,,,,,,,0,49,49,43,1,,,,,,,,,,,,,,,,,,,,,,,,,,,,
,,,,,V1_032,20,Female,2024-05-22_15h59.24.296,jersey_experiment_5_v1,2023.2.2,Win32,85.47008547,,,,,,,,,,,,,,,,868.717,870.517,870.517,872.9522,return,1.1236,,33.984375,,,,,,FBP-YG-19.png,0.35,1.2,26,1,,,,,,,,,,,,,0,50,50,25,1,,,,,,,,,,,,,,,,,,,,,,,,,,,,
,,,,,V1_032,20,Female,2024-05-22_15h59.24.296,jersey_experiment_5_v1,2023.2.2,Win32,85.47008547,,,,,,,,,,,,,,,,872.9525,874.7525,874.7525,876.9524,return,1.2182,,32.03125,,,,,,FBP-RB-81.png,0.35,1.2,51,1,,,,,,,,,,,,,0,51,51,50,1,,,,,,,,,,,,,,,,,,,,,,,,,,,,
,,,,,V1_032,20,Female,2024-05-22_15h59.24.296,jersey_experiment_5_v1,2023.2.2,Win32,85.47008547,,,,,,,,,,,,,,,,876.9527,878.7527,878.7527,880.282,return,0.8983,,72.65625,,,,,,FBP-OG-19.png,0.45,1.2,45,1,,,,,,,,,,,,,0,52,52,44,1,,,,,,,,,,,,,,,,,,,,,,,,,,,,
,,,,,V1_032,20,Female,2024-05-22_15h59.24.296,jersey_experiment_5_v1,2023.2.2,Win32,85.47008547,,,,,,,,,,,,,,,,880.2822,882.0822,882.0822,883.5762,return,0.8438,,31.640625,,,,,,FBP-YG-17.png,0.35,1.2,16,1,,,,,,,,,,,,,0,53,53,15,1,,,,,,,,,,,,,,,,,,,,,,,,,,,,
,,,,,V1_032,20,Female,2024-05-22_15h59.24.296,jersey_experiment_5_v1,2023.2.2,Win32,85.47008547,,,,,,,,,,,,,,,,883.5765,885.3765,885.3765,887.0352,return,0.7702,,68.75,,,,,,FBP-RB-71.png,0.45,1.2,50,1,,,,,,,,,,,,,0,54,54,49,1,,,,,,,,,,,,,,,,,,,,,,,,,,,,
,,,,,V1_032,20,Female,2024-05-22_15h59.24.296,jersey_experiment_5_v1,2023.2.2,Win32,85.47008547,,,,,,,,,,,,,,,,887.0354,888.8353,888.8353,890.4001,return,0.8375,,28.90625,,,,,,FBP-OG-17.png,0.37,1.2,32,1,,,,,,,,,,,,,0,55,55,31,1,,,,,,,,,,,,,,,,,,,,,,,,,,,,
,,,,,V1_032,20,Female,2024-05-22_15h59.24.296,jersey_experiment_5_v1,2023.2.2,Win32,85.47008547,,,,,,,,,,,,,,,,890.4003,892.2002,892.2003,894.2708,return,1.5871,,17.578125,,,,,,FBP-OG-18.png,0.35,1.2,36,1,,,,,,,,,,,,,0,56,56,35,1,,,,,,,,,,,,,,,,,,,,,,,,,,,,
,,,,,V1_032,20,Female,2024-05-22_15h59.24.296,jersey_experiment_5_v1,2023.2.2,Win32,85.47008547,,,,,,,,,,,,,,,,894.271,896.071,896.071,898.4003,return,1.5758,,54.6875,,,,,,FBP-RB-91.png,0.4,1.2,58,1,,,,,,,,,,,,,0,57,57,57,1,,,,,,,,,,,,,,,,,,,,,,,,,,,,
,,,,,V1_032,20,Female,2024-05-22_15h59.24.296,jersey_experiment_5_v1,2023.2.2,Win32,85.47008547,,,,,,,,,,,,,,,,898.4006,899.6944,899.6945,901.5769,return,0.6077,,29.55729167,,,,,,FBP-PT-71.png,0.35,1.2,1,0.5,,,,,,,,,,,,,0,58,58,0,1,,,,,,,,,,,,,,,,,,,,,,,,,,,,
,,,,,V1_032,20,Female,2024-05-22_15h59.24.296,jersey_experiment_5_v1,2023.2.2,Win32,85.47008547,,,,,,,,,,,,,,,,901.5771,903.3771,903.3771,905.577,return,1.1824,,51.04166667,,,,,,FBP-OG-19.png,0.4,1.2,43,1,,,,,,,,,,,,,0,59,59,42,1,,,,,,,,,,,,,,,,,,,,,,,,,,,,
,,,,,V1_032,20,Female,2024-05-22_15h59.24.296,jersey_experiment_5_v1,2023.2.2,Win32,85.47008547,,,,,,,,,,,,,,,,905.5789,907.377,907.377,908.9417,return,0.707,,34.50520833,,,,,,FBP-OG-81.png,0.35,1.2,36,1,,,,,,,,,,,,,,,,,,0,0,0,35,1,,,,,,,,,,,,,,,,,,,,,,,
,,,,,V1_032,20,Female,2024-05-22_15h59.24.296,jersey_experiment_5_v1,2023.2.2,Win32,85.47008547,,,,,,,,,,,,,,,,908.9422,910.7421,910.7421,917.848,return,3.6897,,49.47916667,,,,,,FBP-YG-91.png,0.4,1.2,28,1,,,,,,,,,,,,,,,,,,0,1,1,27,1,,,,,,,,,,,,,,,,,,,,,,,
,,,,,V1_032,20,Female,2024-05-22_15h59.24.296,jersey_experiment_5_v1,2023.2.2,Win32,85.47008547,,,,,,,,,,,,,,,,917.8483,919.1421,919.1421,921.9657,return,0.6849,,39.84375,,,,,,FBP-PT-18.png,0.37,1.2,7,0.5,,,,,,,,,,,,,,,,,,0,2,2,6,1,,,,,,,,,,,,,,,,,,,,,,,
,,,,,V1_032,20,Female,2024-05-22_15h59.24.296,jersey_experiment_5_v1,2023.2.2,Win32,85.47008547,,,,,,,,,,,,,,,,921.966,923.7662,923.7662,925.7896,return,0.6973,,53.77604167,,,,,,FBP-RB-19.png,0.4,1.2,58,1,,,,,,,,,,,,,,,,,,0,3,3,57,1,,,,,,,,,,,,,,,,,,,,,,,
,,,,,V1_032,20,Female,2024-05-22_15h59.24.296,jersey_experiment_5_v1,2023.2.2,Win32,85.47008547,,,,,,,,,,,,,,,,925.7899,927.0837,927.0837,928.7191,return,0.6606,,71.875,,,,,,FBP-PT-19.png,0.43,1.2,14,0.5,,,,,,,,,,,,,,,,,,0,4,4,13,1,,,,,,,,,,,,,,,,,,,,,,,
,,,,,V1_032,20,Female,2024-05-22_15h59.24.296,jersey_experiment_5_v1,2023.2.2,Win32,85.47008547,,,,,,,,,,,,,,,,928.7192,930.5193,930.5194,935.5782,return,4.1225,,34.765625,,,,,,FBP-YG-81.png,0.37,1.2,22,1,,,,,,,,,,,,,,,,,,0,5,5,21,1,,,,,,,,,,,,,,,,,,,,,,,
,,,,,V1_032,20,Female,2024-05-22_15h59.24.296,jersey_experiment_5_v1,2023.2.2,Win32,85.47008547,,,,,,,,,,,,,,,,935.5784,937.3782,937.3782,938.4488,return,0.706,,34.765625,,,,,,FBP-OG-71.png,0.35,1.2,31,1,,,,,,,,,,,,,,,,,,0,6,6,30,1,,,,,,,,,,,,,,,,,,,,,,,
,,,,,V1_032,20,Female,2024-05-22_15h59.24.296,jersey_experiment_5_v1,2023.2.2,Win32,85.47008547,,,,,,,,,,,,,,,,938.449,939.7429,939.7429,942.049,return,0.636,,73.95833333,,,,,,FBP-PT-17.png,0.43,1.2,4,0.5,,,,,,,,,,,,,,,,,,0,7,7,3,1,,,,,,,,,,,,,,,,,,,,,,,
,,,,,V1_032,20,Female,2024-05-22_15h59.24.296,jersey_experiment_5_v1,2023.2.2,Win32,85.47008547,,,,,,,,,,,,,,,,942.0492,943.8491,943.8491,945.6608,return,0.6729,,76.82291667,,,,,,FBP-YG-91.png,0.45,1.2,30,1,,,,,,,,,,,,,,,,,,0,8,8,29,1,,,,,,,,,,,,,,,,,,,,,,,
,,,,,V1_032,20,Female,2024-05-22_15h59.24.296,jersey_experiment_5_v1,2023.2.2,Win32,85.47008547,,,,,,,,,,,,,,,,945.661,947.4609,947.4609,948.861,return,0.5683,,76.69270833,,,,,,FBP-YG-71.png,0.43,1.2,19,1,,,,,,,,,,,,,,,,,,0,9,9,18,1,,,,,,,,,,,,,,,,,,,,,,,
,,,,,V1_032,20,Female,2024-05-22_15h59.24.296,jersey_experiment_5_v1,2023.2.2,Win32,85.47008547,,,,,,,,,,,,,,,,948.8613,950.6613,950.6613,952.3197,return,0.716,,59.24479167,,,,,,FBP-RB-17.png,0.4,1.2,48,1,,,,,,,,,,,,,,,,,,0,10,10,47,1,,,,,,,,,,,,,,,,,,,,,,,
,,,,,V1_032,20,Female,2024-05-22_15h59.24.296,jersey_experiment_5_v1,2023.2.2,Win32,85.47008547,,,,,,,,,,,,,,,,952.3199,954.12,954.1201,955.5671,return,0.6366,,58.72395833,,,,,,FBP-RB-18.png,0.4,1.2,53,1,,,,,,,,,,,,,,,,,,0,11,11,52,1,,,,,,,,,,,,,,,,,,,,,,,
,,,,,V1_032,20,Female,2024-05-22_15h59.24.296,jersey_experiment_5_v1,2023.2.2,Win32,85.47008547,,,,,,,,,,,,,,,,955.5672,957.3673,957.3674,962.5909,return,3.614,,30.078125,,,,,,FBP-OG-91.png,0.35,1.2,41,1,,,,,,,,,,,,,,,,,,0,12,12,40,1,,,,,,,,,,,,,,,,,,,,,,,
,,,,,V1_032,20,Female,2024-05-22_15h59.24.296,jersey_experiment_5_v1,2023.2.2,Win32,85.47008547,,,,,,,,,,,,,,,,962.5912,964.3908,964.3908,966.0028,return,1.1675,,32.8125,,,,,,FBP-YG-71.png,0.37,1.2,17,1,,,,,,,,,,,,,,,,,,0,13,13,16,1,,,,,,,,,,,,,,,,,,,,,,,
,,,,,V1_032,20,Female,2024-05-22_15h59.24.296,jersey_experiment_5_v1,2023.2.2,Win32,85.47008547,,,,,,,,,,,,,,,,966.003,967.8028,967.8028,971.5206,return,2.8574,,75.13020833,,,,,,FBP-YG-71.png,0.45,1.2,20,1,,,,,,,,,,,,,,,,,,0,14,14,19,1,,,,,,,,,,,,,,,,,,,,,,,
,,,,,V1_032,20,Female,2024-05-22_15h59.24.296,jersey_experiment_5_v1,2023.2.2,Win32,85.47008547,,,,,,,,,,,,,,,,971.5209,973.3207,973.3207,975.5678,return,1.7991,,74.21875,,,,,,FBP-YG-91.png,0.43,1.2,29,1,,,,,,,,,,,,,,,,,,0,15,15,28,1,,,,,,,,,,,,,,,,,,,,,,,
,,,,,V1_032,20,Female,2024-05-22_15h59.24.296,jersey_experiment_5_v1,2023.2.2,Win32,85.47008547,,,,,,,,,,,,,,,,975.568,977.3678,977.3678,980.3797,return,2.2149,,39.84375,,,,,,FBP-YG-91.png,0.35,1.2,26,1,,,,,,,,,,,,,,,,,,0,16,16,25,1,,,,,,,,,,,,,,,,,,,,,,,
,,,,,V1_032,20,Female,2024-05-22_15h59.24.296,jersey_experiment_5_v1,2023.2.2,Win32,85.47008547,,,,,,,,,,,,,,,,980.3799,981.6741,981.6742,983.074,return,0.6359,,75.65104167,,,,,,FBP-PT-18.png,0.45,1.2,10,0.5,,,,,,,,,,,,,,,,,,0,17,17,9,1,,,,,,,,,,,,,,,,,,,,,,,
,,,,,V1_032,20,Female,2024-05-22_15h59.24.296,jersey_experiment_5_v1,2023.2.2,Win32,85.47008547,,,,,,,,,,,,,,,,983.0742,984.368,984.368,986.9563,return,1.4252,,37.23958333,,,,,,FBP-PT-19.png,0.35,1.2,11,0.5,,,,,,,,,,,,,,,,,,0,18,18,10,1,,,,,,,,,,,,,,,,,,,,,,,
,,,,,V1_032,20,Female,2024-05-22_15h59.24.296,jersey_experiment_5_v1,2023.2.2,Win32,85.47008547,,,,,,,,,,,,,,,,986.9565,988.7567,988.7568,990.6272,return,1.2473,,43.22916667,,,,,,FBP-OG-91.png,0.37,1.2,42,1,,,,,,,,,,,,,,,,,,0,19,19,41,1,,,,,,,,,,,,,,,,,,,,,,,
,,,,,V1_032,20,Female,2024-05-22_15h59.24.296,jersey_experiment_5_v1,2023.2.2,Win32,85.47008547,,,,,,,,,,,,,,,,990.6275,991.9212,991.9212,993.698,return,0.8237,,29.03645833,,,,,,FBP-PT-18.png,0.35,1.2,6,0.5,,,,,,,,,,,,,,,,,,0,20,20,5,1,,,,,,,,,,,,,,,,,,,,,,,
,,,,,V1_032,20,Female,2024-05-22_15h59.24.296,jersey_experiment_5_v1,2023.2.2,Win32,85.47008547,,,,,,,,,,,,,,,,993.6982,995.4981,995.4981,996.7214,return,0.6822,,43.359375,,,,,,FBP-OG-91.png,0.4,1.2,43,1,,,,,,,,,,,,,,,,,,0,21,21,42,1,,,,,,,,,,,,,,,,,,,,,,,
,,,,,V1_032,20,Female,2024-05-22_15h59.24.296,jersey_experiment_5_v1,2023.2.2,Win32,85.47008547,,,,,,,,,,,,,,,,996.7217,998.5218,998.5218,1000.1687,return,0.7359,,65.10416667,,,,,,FBP-YG-81.png,0.43,1.2,24,1,,,,,,,,,,,,,,,,,,0,22,22,23,1,,,,,,,,,,,,,,,,,,,,,,,
,,,,,V1_032,20,Female,2024-05-22_15h59.24.296,jersey_experiment_5_v1,2023.2.2,Win32,85.47008547,,,,,,,,,,,,,,,,1000.169,1001.4629,1001.4629,1003.8982,return,0.6884,,33.07291667,,,,,,FBP-PT-17.png,0.37,1.2,2,0.5,,,,,,,,,,,,,,,,,,0,23,23,1,1,,,,,,,,,,,,,,,,,,,,,,,
,,,,,V1_032,20,Female,2024-05-22_15h59.24.296,jersey_experiment_5_v1,2023.2.2,Win32,85.47008547,,,,,,,,,,,,,,,,1003.8984,1005.1923,1005.1923,1006.6749,return,0.6215,,76.5625,,,,,,FBP-PT-17.png,0.45,1.2,5,0.5,,,,,,,,,,,,,,,,,,0,24,24,4,1,,,,,,,,,,,,,,,,,,,,,,,
,,,,,V1_032,20,Female,2024-05-22_15h59.24.296,jersey_experiment_5_v1,2023.2.2,Win32,85.47008547,,,,,,,,,,,,,,,,1006.6751,1007.9689,1007.9689,1010.2515,return,0.5699,,55.46875,,,,,,FBP-PT-19.png,0.4,1.2,13,0.5,,,,,,,,,,,,,,,,,,0,25,25,12,1,,,,,,,,,,,,,,,,,,,,,,,
,,,,,V1_032,20,Female,2024-05-22_15h59.24.296,jersey_experiment_5_v1,2023.2.2,Win32,85.47008547,,,,,,,,,,,,,,,,1010.2518,1012.0516,1012.0516,1013.6163,return,0.6686,,23.4375,,,,,,FBP-RB-18.png,0.35,1.2,51,1,,,,,,,,,,,,,,,,,,0,26,26,50,1,,,,,,,,,,,,,,,,,,,,,,,
,,,,,V1_032,20,Female,2024-05-22_15h59.24.296,jersey_experiment_5_v1,2023.2.2,Win32,85.47008547,,,,,,,,,,,,,,,,1013.6165,1015.4163,1015.4163,1017.0987,return,1.2996,,22.13541667,,,,,,FBP-OG-81.png,0.37,1.2,37,1,,,,,,,,,,,,,,,,,,0,27,27,36,1,,,,,,,,,,,,,,,,,,,,,,,
,,,,,V1_032,20,Female,2024-05-22_15h59.24.296,jersey_experiment_5_v1,2023.2.2,Win32,85.47008547,,,,,,,,,,,,,,,,1017.0989,1018.8989,1018.8989,1020.393,return,0.7708,,15.49479167,,,,,,FBP-YG-71.png,0.35,1.2,16,1,,,,,,,,,,,,,,,,,,0,28,28,15,1,,,,,,,,,,,,,,,,,,,,,,,
,,,,,V1_032,20,Female,2024-05-22_15h59.24.296,jersey_experiment_5_v1,2023.2.2,Win32,85.47008547,,,,,,,,,,,,,,,,1020.3933,1022.1931,1022.1931,1023.7225,return,0.6531,,14.84375,,,,,,FBP-RB-19.png,0.35,1.2,56,1,,,,,,,,,,,,,,,,,,0,29,29,55,1,,,,,,,,,,,,,,,,,,,,,,,
,,,,,V1_032,20,Female,2024-05-22_15h59.24.296,jersey_experiment_5_v1,2023.2.2,Win32,85.47008547,,,,,,,,,,,,,,,,1023.7227,1025.0166,1025.0166,1026.8401,return,0.667,,22.78645833,,,,,,FBP-PT-19.png,0.37,1.2,12,0.5,,,,,,,,,,,,,,,,,,0,30,30,11,1,,,,,,,,,,,,,,,,,,,,,,,
,,,,,V1_032,20,Female,2024-05-22_15h59.24.296,jersey_experiment_5_v1,2023.2.2,Win32,85.47008547,,,,,,,,,,,,,,,,1026.8403,1028.6404,1028.6405,1029.9228,return,0.6923,,35.9375,,,,,,FBP-YG-71.png,0.4,1.2,18,1,,,,,,,,,,,,,,,,,,0,31,31,17,1,,,,,,,,,,,,,,,,,,,,,,,
,,,,,V1_032,20,Female,2024-05-22_15h59.24.296,jersey_experiment_5_v1,2023.2.2,Win32,85.47008547,,,,,,,,,,,,,,,,1029.9229,1031.2168,1031.2169,1033.0994,return,0.7211,,67.96875,,,,,,FBP-PT-19.png,0.45,1.2,15,0.5,,,,,,,,,,,,,,,,,,0,32,32,14,1,,,,,,,,,,,,,,,,,,,,,,,
,,,,,V1_032,20,Female,2024-05-22_15h59.24.296,jersey_experiment_5_v1,2023.2.2,Win32,85.47008547,,,,,,,,,,,,,,,,1033.0996,1034.8994,1034.8994,1035.9465,return,0.6516,,67.96875,,,,,,FBP-RB-19.png,0.45,1.2,60,1,,,,,,,,,,,,,,,,,,0,33,33,59,1,,,,,,,,,,,,,,,,,,,,,,,
,,,,,V1_032,20,Female,2024-05-22_15h59.24.296,jersey_experiment_5_v1,2023.2.2,Win32,85.47008547,,,,,,,,,,,,,,,,1035.9468,1037.7467,1037.7467,1038.9701,return,0.7474,,67.96875,,,,,,FBP-RB-18.png,0.43,1.2,54,1,,,,,,,,,,,,,,,,,,0,34,34,53,1,,,,,,,,,,,,,,,,,,,,,,,
,,,,,V1_032,20,Female,2024-05-22_15h59.24.296,jersey_experiment_5_v1,2023.2.2,Win32,85.47008547,,,,,,,,,,,,,,,,1038.9704,1040.7701,1040.7701,1041.9938,return,0.6182,,67.96875,,,,,,FBP-RB-17.png,0.43,1.2,49,1,,,,,,,,,,,,,,,,,,0,35,35,48,1,,,,,,,,,,,,,,,,,,,,,,,
,,,,,V1_032,20,Female,2024-05-22_15h59.24.296,jersey_experiment_5_v1,2023.2.2,Win32,85.47008547,,,,,,,,,,,,,,,,1041.994,1043.2878,1043.2879,1044.8173,return,0.6922,,67.96875,,,,,,FBP-PT-18.png,0.43,1.2,9,0.5,,,,,,,,,,,,,,,,,,0,36,36,8,1,,,,,,,,,,,,,,,,,,,,,,,
,,,,,V1_032,20,Female,2024-05-22_15h59.24.296,jersey_experiment_5_v1,2023.2.2,Win32,85.47008547,,,,,,,,,,,,,,,,1044.8176,1046.1115,1046.1115,1049.5116,return,2.7127,,54.296875,,,,,,FBP-PT-18.png,0.4,1.2,8,0.5,,,,,,,,,,,,,,,,,,0,37,37,7,1,,,,,,,,,,,,,,,,,,,,,,,
,,,,,V1_032,20,Female,2024-05-22_15h59.24.296,jersey_experiment_5_v1,2023.2.2,Win32,85.47008547,,,,,,,,,,,,,,,,1049.5119,1051.3118,1051.3118,1052.6059,return,0.661,,36.19791667,,,,,,FBP-OG-71.png,0.37,1.2,32,1,,,,,,,,,,,,,,,,,,0,38,38,31,1,,,,,,,,,,,,,,,,,,,,,,,
,,,,,V1_032,20,Female,2024-05-22_15h59.24.296,jersey_experiment_5_v1,2023.2.2,Win32,85.47008547,,,,,,,,,,,,,,,,1052.6062,1054.4062,1054.4062,1056.0886,return,1.0199,,64.58333333,,,,,,FBP-OG-71.png,0.43,1.2,34,1,,,,,,,,,,,,,,,,,,0,39,39,33,1,,,,,,,,,,,,,,,,,,,,,,,
,,,,,V1_032,20,Female,2024-05-22_15h59.24.296,jersey_experiment_5_v1,2023.2.2,Win32,85.47008547,,,,,,,,,,,,,,,,1056.0888,1057.8884,1057.8884,1059.1709,return,0.6931,,63.671875,,,,,,FBP-OG-91.png,0.43,1.2,44,1,,,,,,,,,,,,,,,,,,0,40,40,43,1,,,,,,,,,,,,,,,,,,,,,,,
,,,,,V1_032,20,Female,2024-05-22_15h59.24.296,jersey_experiment_5_v1,2023.2.2,Win32,85.47008547,,,,,,,,,,,,,,,,1059.1711,1060.465,1060.465,1062.1122,return,0.5883,,50,,,,,,FBP-PT-17.png,0.4,1.2,3,0.5,,,,,,,,,,,,,,,,,,0,41,41,2,1,,,,,,,,,,,,,,,,,,,,,,,
,,,,,V1_032,20,Female,2024-05-22_15h59.24.296,jersey_experiment_5_v1,2023.2.2,Win32,85.47008547,,,,,,,,,,,,,,,,1062.1125,1063.9123,1063.9123,1065.3947,return,0.5421,,56.51041667,,,,,,FBP-YG-81.png,0.4,1.2,23,1,,,,,,,,,,,,,,,,,,0,42,42,22,1,,,,,,,,,,,,,,,,,,,,,,,
,,,,,V1_032,20,Female,2024-05-22_15h59.24.296,jersey_experiment_5_v1,2023.2.2,Win32,85.47008547,,,,,,,,,,,,,,,,1065.3949,1067.1947,1067.1949,1068.2887,return,0.6725,,69.01041667,,,,,,FBP-OG-91.png,0.45,1.2,45,1,,,,,,,,,,,,,,,,,,0,43,43,44,1,,,,,,,,,,,,,,,,,,,,,,,
,,,,,V1_032,20,Female,2024-05-22_15h59.24.296,jersey_experiment_5_v1,2023.2.2,Win32,85.47008547,,,,,,,,,,,,,,,,1068.2889,1070.0888,1070.0888,1071.642,return,0.5571,,70.3125,,,,,,FBP-RB-18.png,0.45,1.2,55,1,,,,,,,,,,,,,,,,,,0,44,44,54,1,,,,,,,,,,,,,,,,,,,,,,,
,,,,,V1_032,20,Female,2024-05-22_15h59.24.296,jersey_experiment_5_v1,2023.2.2,Win32,85.47008547,,,,,,,,,,,,,,,,1071.6422,1073.442,1073.442,1074.4891,return,0.559,,70.05208333,,,,,,FBP-RB-19.png,0.43,1.2,59,1,,,,,,,,,,,,,,,,,,0,45,45,58,1,,,,,,,,,,,,,,,,,,,,,,,
,,,,,V1_032,20,Female,2024-05-22_15h59.24.296,jersey_experiment_5_v1,2023.2.2,Win32,85.47008547,,,,,,,,,,,,,,,,1074.4893,1076.2893,1076.2893,1079.0659,return,1.3465,,51.953125,,,,,,FBP-YG-91.png,0.37,1.2,27,1,,,,,,,,,,,,,,,,,,0,46,46,26,1,,,,,,,,,,,,,,,,,,,,,,,
,,,,,V1_032,20,Female,2024-05-22_15h59.24.296,jersey_experiment_5_v1,2023.2.2,Win32,85.47008547,,,,,,,,,,,,,,,,1079.0662,1080.8659,1080.8659,1082.1246,return,0.6743,,32.03125,,,,,,FBP-YG-81.png,0.35,1.2,21,1,,,,,,,,,,,,,,,,,,0,47,47,20,1,,,,,,,,,,,,,,,,,,,,,,,
,,,,,V1_032,20,Female,2024-05-22_15h59.24.296,jersey_experiment_5_v1,2023.2.2,Win32,85.47008547,,,,,,,,,,,,,,,,1082.1248,1083.9247,1083.9247,1084.9599,return,0.645,,34.24479167,,,,,,FBP-RB-17.png,0.37,1.2,47,1,,,,,,,,,,,,,,,,,,0,48,48,46,1,,,,,,,,,,,,,,,,,,,,,,,
,,,,,V1_032,20,Female,2024-05-22_15h59.24.296,jersey_experiment_5_v1,2023.2.2,Win32,85.47008547,,,,,,,,,,,,,,,,1084.9602,1086.7601,1086.7601,1087.9131,return,0.5932,,33.72395833,,,,,,FBP-RB-18.png,0.37,1.2,52,1,,,,,,,,,,,,,,,,,,0,49,49,51,1,,,,,,,,,,,,,,,,,,,,,,,
,,,,,V1_032,20,Female,2024-05-22_15h59.24.296,jersey_experiment_5_v1,2023.2.2,Win32,85.47008547,,,,,,,,,,,,,,,,1087.9134,1089.7134,1089.7134,1091.1486,return,0.804,,60.02604167,,,,,,FBP-YG-81.png,0.45,1.2,25,1,,,,,,,,,,,,,,,,,,0,50,50,24,1,,,,,,,,,,,,,,,,,,,,,,,
,,,,,V1_032,20,Female,2024-05-22_15h59.24.296,jersey_experiment_5_v1,2023.2.2,Win32,85.47008547,,,,,,,,,,,,,,,,1091.1488,1092.9486,1092.9486,1094.0311,return,0.6492,,67.31770833,,,,,,FBP-OG-81.png,0.45,1.2,40,1,,,,,,,,,,,,,,,,,,0,51,51,39,1,,,,,,,,,,,,,,,,,,,,,,,
,,,,,V1_032,20,Female,2024-05-22_15h59.24.296,jersey_experiment_5_v1,2023.2.2,Win32,85.47008547,,,,,,,,,,,,,,,,1094.0313,1095.8309,1095.831,1096.8899,return,0.6758,,67.31770833,,,,,,FBP-OG-81.png,0.43,1.2,39,1,,,,,,,,,,,,,,,,,,0,52,52,38,1,,,,,,,,,,,,,,,,,,,,,,,
,,,,,V1_032,20,Female,2024-05-22_15h59.24.296,jersey_experiment_5_v1,2023.2.2,Win32,85.47008547,,,,,,,,,,,,,,,,1096.8901,1098.6901,1098.6901,1100.3488,return,0.6247,,56.90104167,,,,,,FBP-OG-71.png,0.4,1.2,33,1,,,,,,,,,,,,,,,,,,0,53,53,32,1,,,,,,,,,,,,,,,,,,,,,,,
,,,,,V1_032,20,Female,2024-05-22_15h59.24.296,jersey_experiment_5_v1,2023.2.2,Win32,85.47008547,,,,,,,,,,,,,,,,1100.3489,1101.6429,1101.6429,1103.5019,return,0.5908,,19.140625,,,,,,FBP-PT-17.png,0.35,1.2,1,0.5,,,,,,,,,,,,,,,,,,0,54,54,0,1,,,,,,,,,,,,,,,,,,,,,,,
,,,,,V1_032,20,Female,2024-05-22_15h59.24.296,jersey_experiment_5_v1,2023.2.2,Win32,85.47008547,,,,,,,,,,,,,,,,1103.5021,1105.3019,1105.3019,1106.3374,return,0.6593,,19.140625,,,,,,FBP-RB-19.png,0.37,1.2,57,1,,,,,,,,,,,,,,,,,,0,55,55,56,1,,,,,,,,,,,,,,,,,,,,,,,
,,,,,V1_032,20,Female,2024-05-22_15h59.24.296,jersey_experiment_5_v1,2023.2.2,Win32,85.47008547,,,,,,,,,,,,,,,,1106.3376,1108.1373,1108.1373,1109.1374,return,0.6023,,15.75520833,,,,,,FBP-RB-17.png,0.35,1.2,46,1,,,,,,,,,,,,,,,,,,0,56,56,45,1,,,,,,,,,,,,,,,,,,,,,,,
,,,,,V1_032,20,Female,2024-05-22_15h59.24.296,jersey_experiment_5_v1,2023.2.2,Win32,85.47008547,,,,,,,,,,,,,,,,1109.1375,1110.9375,1110.9376,1112.3375,return,0.6109,,57.94270833,,,,,,FBP-OG-71.png,0.45,1.2,35,1,,,,,,,,,,,,,,,,,,0,57,57,34,1,,,,,,,,,,,,,,,,,,,,,,,
,,,,,V1_032,20,Female,2024-05-22_15h59.24.296,jersey_experiment_5_v1,2023.2.2,Win32,85.47008547,,,,,,,,,,,,,,,,1112.3377,1114.1374,1114.1375,1115.1494,return,0.6249,,57.8125,,,,,,FBP-OG-81.png,0.4,1.2,38,1,,,,,,,,,,,,,,,,,,0,58,58,37,1,,,,,,,,,,,,,,,,,,,,,,,
,,,,,V1_032,20,Female,2024-05-22_15h59.24.296,jersey_experiment_5_v1,2023.2.2,Win32,85.47008547,,,,,,,,,,,,,,,,1115.1496,1116.9494,1116.9494,1118.3848,return,0.5074,,59.765625,,,,,,FBP-RB-17.png,0.45,1.2,50,1,,,,,,,,,,,,,,,,,,0,59,59,49,1,,,,,,,,,,,,,,,,,,,,,,,
,,,,,V1_032,20,Female,2024-05-22_15h59.24.296,jersey_experiment_5_v1,2023.2.2,Win32,85.47008547,,,,,,,,,,,,,,,,,,,,,,,,,,,,,,,,,,,,,,,,,,,,,,,,,,,,,,,,1118.3853,1124.7382,return,6.3436,,,,,,,,,,,,,,,,,,,
,,,,,V1_032,20,Female,2024-05-22_15h59.24.296,jersey_experiment_5_v1,2023.2.2,Win32,85.47008547,,,,,,,,,,,,,,,,,,,,,,,,,,,,,,,,,,,,,,,,,,,,,,,,,,,,,,,,,,,,,1124.7383,1131.2443,1,2.8008,return,3.6843,,,,,,,,,,,,
,,,,,V1_032,20,Female,2024-05-22_15h59.24.296,jersey_experiment_5_v1,2023.2.2,Win32,85.47008547,,,,,,,,,,,,,,,,,,,,,,,,,,,,,,,,,,,,,,,,,,,,,,,,,,,,,,,,,,,,,,,,,,,,1131.2486,1246.4767,"I would guess that it may have to do with stereotyping people based on their race. I noticed that the same ""body size"" would pop up multiple times in a row but with different skin colors.",right,102.0822,,,,,,
,,,,,V1_032,20,Female,2024-05-22_15h59.24.296,jersey_experiment_5_v1,2023.2.2,Win32,85.47008547,,,,,,,,,,,,,,,,,,,,,,,,,,,,,,,,,,,,,,,,,,,,,,,,,,,,,,,,,,,,,,,,,,,,,,,,,,1246.4768,1250.2719,return,3.7831,