requirements.started,requirements.stopped,key_resp_3.keys,key_resp_3.rt,key_resp_3.duration,Subject ID,Age,Gender,date,expName,psychopyVersion,OS,frameRate,instructions1.started,instructions1.stopped,key_resp.keys,key_resp.rt,key_resp.duration,example.started,example.stopped,enter_2.keys,enter_2.rt,enter_2.duration,instructions2.started,instructions2.stopped,enter_3.keys,enter_3.rt,enter_3.duration,image.started,image.stopped,slider_2.started,slider_2.stopped,next.keys,next.rt,next.duration,slider.response,trial_block_1.thisRepN,trial_block_1.thisTrialN,trial_block_1.thisN,trial_block_1.thisIndex,trial_block_1.ran,Path,Width,Height,Index,Duration,trial_block_2.thisRepN,trial_block_2.thisTrialN,trial_block_2.thisN,trial_block_2.thisIndex,trial_block_2.ran,rest_break.started,rest_break.stopped,end_break.started,end_break.stopped,key_resp_5.keys,key_resp_5.rt,key_resp_5.duration,trial_block_3.thisRepN,trial_block_3.thisTrialN,trial_block_3.thisN,trial_block_3.thisIndex,trial_block_3.ran,trial_block_4.thisRepN,trial_block_4.thisTrialN,trial_block_4.thisN,trial_block_4.thisIndex,trial_block_4.ran,questions_intro.started,questions_intro.stopped,enter_12.keys,enter_12.rt,enter_12.duration,question2.started,question2.stopped,question_doingbest.response,question_doingbest.rt,enter_15.keys,enter_15.rt,enter_15.duration,pattern.started,pattern.stopped,pattern_2.text,enter_17.keys,enter_17.rt,enter_17.duration,thankyou.started,thankyou.stopped,enter_14.keys,enter_14.rt,enter_14.duration
0.0001,9.5765,return,9.5678,,V1_028,18,Female,2024-05-21_16h01.16.832,jersey_experiment_5_v1,2023.2.2,Win32,84.74576271,,,,,,,,,,,,,,,,,,,,,,,,,,,,,,,,,,,,,,,,,,,,,,,,,,,,,,,,,,,,,,,,,,,,,,,,,,,,,,
,,,,,V1_028,18,Female,2024-05-21_16h01.16.832,jersey_experiment_5_v1,2023.2.2,Win32,84.74576271,9.5766,15.953,return,6.3706,,,,,,,,,,,,,,,,,,,,,,,,,,,,,,,,,,,,,,,,,,,,,,,,,,,,,,,,,,,,,,,,,,,,,,,,,,
,,,,,V1_028,18,Female,2024-05-21_16h01.16.832,jersey_experiment_5_v1,2023.2.2,Win32,84.74576271,,,,,,15.953,21.7178,return,5.7352,,,,,,,,,,,,,,,,,,,,,,,,,,,,,,,,,,,,,,,,,,,,,,,,,,,,,,,,,,,,,,,,,,,,,
,,,,,V1_028,18,Female,2024-05-21_16h01.16.832,jersey_experiment_5_v1,2023.2.2,Win32,84.74576271,,,,,,,,,,,21.7178,47.5894,return,25.8613,,,,,,,,,,,,,,,,,,,,,,,,,,,,,,,,,,,,,,,,,,,,,,,,,,,,,,,,,,,,,,,,
,,,,,V1_028,18,Female,2024-05-21_16h01.16.832,jersey_experiment_5_v1,2023.2.2,Win32,84.74576271,,,,,,,,,,,,,,,,47.5963,48.8952,48.8952,56.7426,return,1.7551,,66.14583333,0,0,0,28,1,FBP-YG-19.png,0.43,1.2,29,0.5,,,,,,,,,,,,,,,,,,,,,,,,,,,,,,,,,,,,,,,,,,,,,
,,,,,V1_028,18,Female,2024-05-21_16h01.16.832,jersey_experiment_5_v1,2023.2.2,Win32,84.74576271,,,,,,,,,,,,,,,,56.7429,58.0365,58.0366,61.3309,return,1.4871,,66.92708333,0,1,1,48,1,FBP-RB-71.png,0.43,1.2,49,0.5,,,,,,,,,,,,,,,,,,,,,,,,,,,,,,,,,,,,,,,,,,,,,
,,,,,V1_028,18,Female,2024-05-21_16h01.16.832,jersey_experiment_5_v1,2023.2.2,Win32,84.74576271,,,,,,,,,,,,,,,,61.3312,63.1309,63.1309,67.0252,return,1.596,,30.859375,0,2,2,6,1,FBP-PT-81.png,0.37,1.2,7,1,,,,,,,,,,,,,,,,,,,,,,,,,,,,,,,,,,,,,,,,,,,,,
,,,,,V1_028,18,Female,2024-05-21_16h01.16.832,jersey_experiment_5_v1,2023.2.2,Win32,84.74576271,,,,,,,,,,,,,,,,67.0254,68.3194,68.3194,71.4254,return,1.2194,,30.59895833,0,3,3,22,1,FBP-YG-18.png,0.4,1.2,23,0.5,,,,,,,,,,,,,,,,,,,,,,,,,,,,,,,,,,,,,,,,,,,,,
,,,,,V1_028,18,Female,2024-05-21_16h01.16.832,jersey_experiment_5_v1,2023.2.2,Win32,84.74576271,,,,,,,,,,,,,,,,71.4256,72.7195,72.7196,74.9196,return,0.4579,,58.46354167,0,4,4,39,1,FBP-OG-18.png,0.45,1.2,40,0.5,,,,,,,,,,,,,,,,,,,,,,,,,,,,,,,,,,,,,,,,,,,,,
,,,,,V1_028,18,Female,2024-05-21_16h01.16.832,jersey_experiment_5_v1,2023.2.2,Win32,84.74576271,,,,,,,,,,,,,,,,74.9198,76.2137,76.2137,77.4727,return,0.4201,,60.02604167,0,5,5,33,1,FBP-OG-17.png,0.43,1.2,34,0.5,,,,,,,,,,,,,,,,,,,,,,,,,,,,,,,,,,,,,,,,,,,,,
,,,,,V1_028,18,Female,2024-05-21_16h01.16.832,jersey_experiment_5_v1,2023.2.2,Win32,84.74576271,,,,,,,,,,,,,,,,77.4729,78.7668,78.7668,80.8845,return,0.3086,,35.546875,0,6,6,51,1,FBP-RB-81.png,0.37,1.2,52,0.5,,,,,,,,,,,,,,,,,,,,,,,,,,,,,,,,,,,,,,,,,,,,,
,,,,,V1_028,18,Female,2024-05-21_16h01.16.832,jersey_experiment_5_v1,2023.2.2,Win32,84.74576271,,,,,,,,,,,,,,,,80.8847,82.1786,82.1786,84.579,return,0.2295,,21.61458333,0,7,7,55,1,FBP-RB-91.png,0.35,1.2,56,0.5,,,,,,,,,,,,,,,,,,,,,,,,,,,,,,,,,,,,,,,,,,,,,
,,,,,V1_028,18,Female,2024-05-21_16h01.16.832,jersey_experiment_5_v1,2023.2.2,Win32,84.74576271,,,,,,,,,,,,,,,,84.5793,86.3789,86.3789,88.6259,return,0.1934,,25,0,8,8,11,1,FBP-PT-91.png,0.37,1.2,12,1,,,,,,,,,,,,,,,,,,,,,,,,,,,,,,,,,,,,,,,,,,,,,
,,,,,V1_028,18,Female,2024-05-21_16h01.16.832,jersey_experiment_5_v1,2023.2.2,Win32,84.74576271,,,,,,,,,,,,,,,,88.6261,90.4259,90.4259,94.3437,return,2.132,,66.27604167,0,9,9,8,1,FBP-PT-81.png,0.43,1.2,9,1,,,,,,,,,,,,,,,,,,,,,,,,,,,,,,,,,,,,,,,,,,,,,
,,,,,V1_028,18,Female,2024-05-21_16h01.16.832,jersey_experiment_5_v1,2023.2.2,Win32,84.74576271,,,,,,,,,,,,,,,,94.3439,96.1439,96.1439,97.7203,return,0.1415,,84.11458333,0,10,10,4,1,FBP-PT-71.png,0.45,1.2,5,1,,,,,,,,,,,,,,,,,,,,,,,,,,,,,,,,,,,,,,,,,,,,,
,,,,,V1_028,18,Female,2024-05-21_16h01.16.832,jersey_experiment_5_v1,2023.2.2,Win32,84.74576271,,,,,,,,,,,,,,,,97.7205,99.5207,99.5207,103.9793,return,1.9865,,7.291666667,0,11,11,5,1,FBP-PT-81.png,0.35,1.2,6,1,,,,,,,,,,,,,,,,,,,,,,,,,,,,,,,,,,,,,,,,,,,,,
,,,,,V1_028,18,Female,2024-05-21_16h01.16.832,jersey_experiment_5_v1,2023.2.2,Win32,84.74576271,,,,,,,,,,,,,,,,103.9796,105.7796,105.7796,107.6736,return,0.1647,,72.78645833,0,12,12,3,1,FBP-PT-71.png,0.43,1.2,4,1,,,,,,,,,,,,,,,,,,,,,,,,,,,,,,,,,,,,,,,,,,,,,
,,,,,V1_028,18,Female,2024-05-21_16h01.16.832,jersey_experiment_5_v1,2023.2.2,Win32,84.74576271,,,,,,,,,,,,,,,,107.6738,108.9678,108.9678,110.2975,return,0.3056,,70.44270833,0,13,13,18,1,FBP-YG-17.png,0.43,1.2,19,0.5,,,,,,,,,,,,,,,,,,,,,,,,,,,,,,,,,,,,,,,,,,,,,
,,,,,V1_028,18,Female,2024-05-21_16h01.16.832,jersey_experiment_5_v1,2023.2.2,Win32,84.74576271,,,,,,,,,,,,,,,,110.2976,111.5914,111.5914,113.3327,return,0.0969,,49.34895833,0,14,14,17,1,FBP-YG-17.png,0.4,1.2,18,0.5,,,,,,,,,,,,,,,,,,,,,,,,,,,,,,,,,,,,,,,,,,,,,
,,,,,V1_028,18,Female,2024-05-21_16h01.16.832,jersey_experiment_5_v1,2023.2.2,Win32,84.74576271,,,,,,,,,,,,,,,,113.333,114.6269,114.6269,116.521,return,0.1512,,28.515625,0,15,15,42,1,FBP-OG-19.png,0.4,1.2,43,0.5,,,,,,,,,,,,,,,,,,,,,,,,,,,,,,,,,,,,,,,,,,,,,
,,,,,V1_028,18,Female,2024-05-21_16h01.16.832,jersey_experiment_5_v1,2023.2.2,Win32,84.74576271,,,,,,,,,,,,,,,,116.5212,118.3213,118.3213,119.6388,return,0.1413,,17.70833333,0,16,16,10,1,FBP-PT-91.png,0.35,1.2,11,1,,,,,,,,,,,,,,,,,,,,,,,,,,,,,,,,,,,,,,,,,,,,,
,,,,,V1_028,18,Female,2024-05-21_16h01.16.832,jersey_experiment_5_v1,2023.2.2,Win32,84.74576271,,,,,,,,,,,,,,,,119.6389,120.9328,120.9328,122.5918,return,0.2311,,80.33854167,0,17,17,29,1,FBP-YG-19.png,0.45,1.2,30,0.5,,,,,,,,,,,,,,,,,,,,,,,,,,,,,,,,,,,,,,,,,,,,,
,,,,,V1_028,18,Female,2024-05-21_16h01.16.832,jersey_experiment_5_v1,2023.2.2,Win32,84.74576271,,,,,,,,,,,,,,,,122.592,123.8864,123.8864,127.1449,return,0.3064,,31.11979167,0,18,18,36,1,FBP-OG-18.png,0.37,1.2,37,0.5,,,,,,,,,,,,,,,,,,,,,,,,,,,,,,,,,,,,,,,,,,,,,
,,,,,V1_028,18,Female,2024-05-21_16h01.16.832,jersey_experiment_5_v1,2023.2.2,Win32,84.74576271,,,,,,,,,,,,,,,,127.1451,128.4391,128.4392,130.8392,return,0.4607,,76.30208333,0,19,19,43,1,FBP-OG-19.png,0.43,1.2,44,0.5,,,,,,,,,,,,,,,,,,,,,,,,,,,,,,,,,,,,,,,,,,,,,
,,,,,V1_028,18,Female,2024-05-21_16h01.16.832,jersey_experiment_5_v1,2023.2.2,Win32,84.74576271,,,,,,,,,,,,,,,,130.8394,132.1333,132.1333,134.7922,return,0.2491,,23.17708333,0,20,20,56,1,FBP-RB-91.png,0.37,1.2,57,0.5,,,,,,,,,,,,,,,,,,,,,,,,,,,,,,,,,,,,,,,,,,,,,
,,,,,V1_028,18,Female,2024-05-21_16h01.16.832,jersey_experiment_5_v1,2023.2.2,Win32,84.74576271,,,,,,,,,,,,,,,,134.7924,136.5923,136.5923,137.91,return,0.271,,21.875,0,21,21,7,1,FBP-PT-81.png,0.4,1.2,8,1,,,,,,,,,,,,,,,,,,,,,,,,,,,,,,,,,,,,,,,,,,,,,
,,,,,V1_028,18,Female,2024-05-21_16h01.16.832,jersey_experiment_5_v1,2023.2.2,Win32,84.74576271,,,,,,,,,,,,,,,,137.9102,139.2042,139.2042,141.2396,return,0.155,,2.083333333,0,22,22,40,1,FBP-OG-19.png,0.35,1.2,41,0.5,,,,,,,,,,,,,,,,,,,,,,,,,,,,,,,,,,,,,,,,,,,,,
,,,,,V1_028,18,Female,2024-05-21_16h01.16.832,jersey_experiment_5_v1,2023.2.2,Win32,84.74576271,,,,,,,,,,,,,,,,141.2398,142.5338,142.5338,144.5808,return,0.2273,,88.02083333,0,23,23,49,1,FBP-RB-71.png,0.45,1.2,50,0.5,,,,,,,,,,,,,,,,,,,,,,,,,,,,,,,,,,,,,,,,,,,,,
,,,,,V1_028,18,Female,2024-05-21_16h01.16.832,jersey_experiment_5_v1,2023.2.2,Win32,84.74576271,,,,,,,,,,,,,,,,144.581,145.8751,145.8751,147.4752,return,0.1689,,71.74479167,0,24,24,47,1,FBP-RB-71.png,0.4,1.2,48,0.5,,,,,,,,,,,,,,,,,,,,,,,,,,,,,,,,,,,,,,,,,,,,,
,,,,,V1_028,18,Female,2024-05-21_16h01.16.832,jersey_experiment_5_v1,2023.2.2,Win32,84.74576271,,,,,,,,,,,,,,,,147.4754,148.7693,148.7693,149.734,return,0.2735,,71.74479167,0,25,25,57,1,FBP-RB-91.png,0.4,1.2,58,0.5,,,,,,,,,,,,,,,,,,,,,,,,,,,,,,,,,,,,,,,,,,,,,
,,,,,V1_028,18,Female,2024-05-21_16h01.16.832,jersey_experiment_5_v1,2023.2.2,Win32,84.74576271,,,,,,,,,,,,,,,,149.7342,151.0282,151.0282,152.9458,return,0.0639,,28.90625,0,26,26,35,1,FBP-OG-18.png,0.35,1.2,36,0.5,,,,,,,,,,,,,,,,,,,,,,,,,,,,,,,,,,,,,,,,,,,,,
,,,,,V1_028,18,Female,2024-05-21_16h01.16.832,jersey_experiment_5_v1,2023.2.2,Win32,84.74576271,,,,,,,,,,,,,,,,152.9461,154.24,154.24,156.4518,return,0.4145,,98.046875,0,27,27,24,1,FBP-YG-18.png,0.45,1.2,25,0.5,,,,,,,,,,,,,,,,,,,,,,,,,,,,,,,,,,,,,,,,,,,,,
,,,,,V1_028,18,Female,2024-05-21_16h01.16.832,jersey_experiment_5_v1,2023.2.2,Win32,84.74576271,,,,,,,,,,,,,,,,156.452,158.2522,158.2522,160.3932,return,0.1631,,50.78125,0,28,28,12,1,FBP-PT-91.png,0.4,1.2,13,1,,,,,,,,,,,,,,,,,,,,,,,,,,,,,,,,,,,,,,,,,,,,,
,,,,,V1_028,18,Female,2024-05-21_16h01.16.832,jersey_experiment_5_v1,2023.2.2,Win32,84.74576271,,,,,,,,,,,,,,,,160.3934,161.6874,161.6874,163.5108,return,0.0588,,21.484375,0,29,29,46,1,FBP-RB-71.png,0.37,1.2,47,0.5,,,,,,,,,,,,,,,,,,,,,,,,,,,,,,,,,,,,,,,,,,,,,
,,,,,V1_028,18,Female,2024-05-21_16h01.16.832,jersey_experiment_5_v1,2023.2.2,Win32,84.74576271,,,,,,,,,,,,,,,,163.511,165.311,165.311,167.7933,return,0.3227,,25.91145833,0,30,30,2,1,FBP-PT-71.png,0.4,1.2,3,1,,,,,,,,,,,,,,,,,,,,,,,,,,,,,,,,,,,,,,,,,,,,,
,,,,,V1_028,18,Female,2024-05-21_16h01.16.832,jersey_experiment_5_v1,2023.2.2,Win32,84.74576271,,,,,,,,,,,,,,,,167.7936,169.0876,169.0876,170.864,return,0.1617,,2.604166667,0,31,31,30,1,FBP-OG-17.png,0.35,1.2,31,0.5,,,,,,,,,,,,,,,,,,,,,,,,,,,,,,,,,,,,,,,,,,,,,
,,,,,V1_028,18,Female,2024-05-21_16h01.16.832,jersey_experiment_5_v1,2023.2.2,Win32,84.74576271,,,,,,,,,,,,,,,,170.8641,172.1583,172.1584,174.123,return,0.118,,72.39583333,0,32,32,59,1,FBP-RB-91.png,0.45,1.2,60,0.5,,,,,,,,,,,,,,,,,,,,,,,,,,,,,,,,,,,,,,,,,,,,,
,,,,,V1_028,18,Female,2024-05-21_16h01.16.832,jersey_experiment_5_v1,2023.2.2,Win32,84.74576271,,,,,,,,,,,,,,,,174.1231,175.4172,175.4173,177.2643,return,0.0999,,26.43229167,0,33,33,37,1,FBP-OG-18.png,0.4,1.2,38,0.5,,,,,,,,,,,,,,,,,,,,,,,,,,,,,,,,,,,,,,,,,,,,,
,,,,,V1_028,18,Female,2024-05-21_16h01.16.832,jersey_experiment_5_v1,2023.2.2,Win32,84.74576271,,,,,,,,,,,,,,,,177.2644,178.5586,178.5587,180.5822,return,0.3776,,17.83854167,0,34,34,31,1,FBP-OG-17.png,0.37,1.2,32,0.5,,,,,,,,,,,,,,,,,,,,,,,,,,,,,,,,,,,,,,,,,,,,,
,,,,,V1_028,18,Female,2024-05-21_16h01.16.832,jersey_experiment_5_v1,2023.2.2,Win32,84.74576271,,,,,,,,,,,,,,,,180.5824,181.8763,181.8764,183.641,return,0.2344,,90.234375,0,35,35,53,1,FBP-RB-81.png,0.43,1.2,54,0.5,,,,,,,,,,,,,,,,,,,,,,,,,,,,,,,,,,,,,,,,,,,,,
,,,,,V1_028,18,Female,2024-05-21_16h01.16.832,jersey_experiment_5_v1,2023.2.2,Win32,84.74576271,,,,,,,,,,,,,,,,183.6412,184.9352,184.9352,186.2294,return,0.2031,,78.125,0,36,36,52,1,FBP-RB-81.png,0.4,1.2,53,0.5,,,,,,,,,,,,,,,,,,,,,,,,,,,,,,,,,,,,,,,,,,,,,
,,,,,V1_028,18,Female,2024-05-21_16h01.16.832,jersey_experiment_5_v1,2023.2.2,Win32,84.74576271,,,,,,,,,,,,,,,,186.2296,187.5235,187.5235,188.8884,return,0.1544,,54.81770833,0,37,37,38,1,FBP-OG-18.png,0.43,1.2,39,0.5,,,,,,,,,,,,,,,,,,,,,,,,,,,,,,,,,,,,,,,,,,,,,
,,,,,V1_028,18,Female,2024-05-21_16h01.16.832,jersey_experiment_5_v1,2023.2.2,Win32,84.74576271,,,,,,,,,,,,,,,,188.8886,190.1824,190.1825,191.3943,return,0.1477,,79.6875,0,38,38,23,1,FBP-YG-18.png,0.43,1.2,24,0.5,,,,,,,,,,,,,,,,,,,,,,,,,,,,,,,,,,,,,,,,,,,,,
,,,,,V1_028,18,Female,2024-05-21_16h01.16.832,jersey_experiment_5_v1,2023.2.2,Win32,84.74576271,,,,,,,,,,,,,,,,191.3945,192.6883,192.6883,196.4534,return,0.4741,,79.81770833,0,39,39,58,1,FBP-RB-91.png,0.43,1.2,59,0.5,,,,,,,,,,,,,,,,,,,,,,,,,,,,,,,,,,,,,,,,,,,,,
,,,,,V1_028,18,Female,2024-05-21_16h01.16.832,jersey_experiment_5_v1,2023.2.2,Win32,84.74576271,,,,,,,,,,,,,,,,196.4535,197.7473,197.7473,199.171,return,0.1929,,50.26041667,0,40,40,45,1,FBP-RB-71.png,0.35,1.2,46,0.5,,,,,,,,,,,,,,,,,,,,,,,,,,,,,,,,,,,,,,,,,,,,,
,,,,,V1_028,18,Female,2024-05-21_16h01.16.832,jersey_experiment_5_v1,2023.2.2,Win32,84.74576271,,,,,,,,,,,,,,,,199.1713,200.4653,200.4653,201.877,return,0.2037,,34.63541667,0,41,41,15,1,FBP-YG-17.png,0.35,1.2,16,0.5,,,,,,,,,,,,,,,,,,,,,,,,,,,,,,,,,,,,,,,,,,,,,
,,,,,V1_028,18,Female,2024-05-21_16h01.16.832,jersey_experiment_5_v1,2023.2.2,Win32,84.74576271,,,,,,,,,,,,,,,,201.8773,203.6771,203.6771,204.8182,return,0.1701,,97.00520833,0,42,42,9,1,FBP-PT-81.png,0.45,1.2,10,1,,,,,,,,,,,,,,,,,,,,,,,,,,,,,,,,,,,,,,,,,,,,,
,,,,,V1_028,18,Female,2024-05-21_16h01.16.832,jersey_experiment_5_v1,2023.2.2,Win32,84.74576271,,,,,,,,,,,,,,,,204.8185,206.6185,206.6185,207.9949,return,0.1885,,25.78125,0,43,43,1,1,FBP-PT-71.png,0.37,1.2,2,1,,,,,,,,,,,,,,,,,,,,,,,,,,,,,,,,,,,,,,,,,,,,,
,,,,,V1_028,18,Female,2024-05-21_16h01.16.832,jersey_experiment_5_v1,2023.2.2,Win32,84.74576271,,,,,,,,,,,,,,,,207.9952,209.289,209.289,210.689,return,0.1122,,75.65104167,0,44,44,27,1,FBP-YG-19.png,0.4,1.2,28,0.5,,,,,,,,,,,,,,,,,,,,,,,,,,,,,,,,,,,,,,,,,,,,,
,,,,,V1_028,18,Female,2024-05-21_16h01.16.832,jersey_experiment_5_v1,2023.2.2,Win32,84.74576271,,,,,,,,,,,,,,,,210.6893,211.9834,211.9834,214.6186,return,0.2357,,18.359375,0,45,45,25,1,FBP-YG-19.png,0.35,1.2,26,0.5,,,,,,,,,,,,,,,,,,,,,,,,,,,,,,,,,,,,,,,,,,,,,
,,,,,V1_028,18,Female,2024-05-21_16h01.16.832,jersey_experiment_5_v1,2023.2.2,Win32,84.74576271,,,,,,,,,,,,,,,,214.6188,215.9127,215.9127,217.9247,return,0.2041,,31.640625,0,46,46,16,1,FBP-YG-17.png,0.37,1.2,17,0.5,,,,,,,,,,,,,,,,,,,,,,,,,,,,,,,,,,,,,,,,,,,,,
,,,,,V1_028,18,Female,2024-05-21_16h01.16.832,jersey_experiment_5_v1,2023.2.2,Win32,84.74576271,,,,,,,,,,,,,,,,217.9249,219.2188,219.2188,220.5482,return,0.1319,,86.58854167,0,47,47,44,1,FBP-OG-19.png,0.45,1.2,45,0.5,,,,,,,,,,,,,,,,,,,,,,,,,,,,,,,,,,,,,,,,,,,,,
,,,,,V1_028,18,Female,2024-05-21_16h01.16.832,jersey_experiment_5_v1,2023.2.2,Win32,84.74576271,,,,,,,,,,,,,,,,220.5483,221.8423,221.8423,223.4659,return,0.2356,,52.734375,0,48,48,32,1,FBP-OG-17.png,0.4,1.2,33,0.5,,,,,,,,,,,,,,,,,,,,,,,,,,,,,,,,,,,,,,,,,,,,,
,,,,,V1_028,18,Female,2024-05-21_16h01.16.832,jersey_experiment_5_v1,2023.2.2,Win32,84.74576271,,,,,,,,,,,,,,,,223.4662,224.7601,224.7601,226.1955,return,0.1567,,71.484375,0,49,49,34,1,FBP-OG-17.png,0.45,1.2,35,0.5,,,,,,,,,,,,,,,,,,,,,,,,,,,,,,,,,,,,,,,,,,,,,
,,,,,V1_028,18,Female,2024-05-21_16h01.16.832,jersey_experiment_5_v1,2023.2.2,Win32,84.74576271,,,,,,,,,,,,,,,,226.1957,227.4896,227.4896,231.3957,return,2.6641,,22.265625,0,50,50,41,1,FBP-OG-19.png,0.37,1.2,42,0.5,,,,,,,,,,,,,,,,,,,,,,,,,,,,,,,,,,,,,,,,,,,,,
,,,,,V1_028,18,Female,2024-05-21_16h01.16.832,jersey_experiment_5_v1,2023.2.2,Win32,84.74576271,,,,,,,,,,,,,,,,231.3959,232.6897,232.6897,235.7371,return,0.212,,32.68229167,0,51,51,20,1,FBP-YG-18.png,0.35,1.2,21,0.5,,,,,,,,,,,,,,,,,,,,,,,,,,,,,,,,,,,,,,,,,,,,,
,,,,,V1_028,18,Female,2024-05-21_16h01.16.832,jersey_experiment_5_v1,2023.2.2,Win32,84.74576271,,,,,,,,,,,,,,,,235.7373,237.0312,237.0312,238.7254,return,0.2739,,76.04166667,0,52,52,19,1,FBP-YG-17.png,0.45,1.2,20,0.5,,,,,,,,,,,,,,,,,,,,,,,,,,,,,,,,,,,,,,,,,,,,,
,,,,,V1_028,18,Female,2024-05-21_16h01.16.832,jersey_experiment_5_v1,2023.2.2,Win32,84.74576271,,,,,,,,,,,,,,,,238.7256,240.0195,240.0195,241.7843,return,0.4136,,89.0625,0,53,53,54,1,FBP-RB-81.png,0.45,1.2,55,0.5,,,,,,,,,,,,,,,,,,,,,,,,,,,,,,,,,,,,,,,,,,,,,
,,,,,V1_028,18,Female,2024-05-21_16h01.16.832,jersey_experiment_5_v1,2023.2.2,Win32,84.74576271,,,,,,,,,,,,,,,,241.7846,243.5843,243.5843,246.8551,return,2.012,,84.50520833,0,54,54,13,1,FBP-PT-91.png,0.43,1.2,14,1,,,,,,,,,,,,,,,,,,,,,,,,,,,,,,,,,,,,,,,,,,,,,
,,,,,V1_028,18,Female,2024-05-21_16h01.16.832,jersey_experiment_5_v1,2023.2.2,Win32,84.74576271,,,,,,,,,,,,,,,,246.8553,248.6554,248.6554,249.9728,return,0.1803,,36.45833333,0,55,55,0,1,FBP-PT-71.png,0.35,1.2,1,1,,,,,,,,,,,,,,,,,,,,,,,,,,,,,,,,,,,,,,,,,,,,,
,,,,,V1_028,18,Female,2024-05-21_16h01.16.832,jersey_experiment_5_v1,2023.2.2,Win32,84.74576271,,,,,,,,,,,,,,,,249.9731,251.2669,251.2669,254.4082,return,0.2358,,64.71354167,0,56,56,50,1,FBP-RB-81.png,0.35,1.2,51,0.5,,,,,,,,,,,,,,,,,,,,,,,,,,,,,,,,,,,,,,,,,,,,,
,,,,,V1_028,18,Female,2024-05-21_16h01.16.832,jersey_experiment_5_v1,2023.2.2,Win32,84.74576271,,,,,,,,,,,,,,,,254.4085,255.7026,255.7027,257.1261,return,0.3066,,38.93229167,0,57,57,21,1,FBP-YG-18.png,0.37,1.2,22,0.5,,,,,,,,,,,,,,,,,,,,,,,,,,,,,,,,,,,,,,,,,,,,,
,,,,,V1_028,18,Female,2024-05-21_16h01.16.832,jersey_experiment_5_v1,2023.2.2,Win32,84.74576271,,,,,,,,,,,,,,,,257.1263,258.4203,258.4203,261.8438,return,0.193,,38.02083333,0,58,58,26,1,FBP-YG-19.png,0.37,1.2,27,0.5,,,,,,,,,,,,,,,,,,,,,,,,,,,,,,,,,,,,,,,,,,,,,
,,,,,V1_028,18,Female,2024-05-21_16h01.16.832,jersey_experiment_5_v1,2023.2.2,Win32,84.74576271,,,,,,,,,,,,,,,,261.8441,263.6442,263.6442,264.5851,return,0.2129,,91.92708333,0,59,59,14,1,FBP-PT-91.png,0.45,1.2,15,1,,,,,,,,,,,,,,,,,,,,,,,,,,,,,,,,,,,,,,,,,,,,,
,,,,,V1_028,18,Female,2024-05-21_16h01.16.832,jersey_experiment_5_v1,2023.2.2,Win32,84.74576271,,,,,,,,,,,,,,,,264.5871,265.8795,265.8796,268.0912,return,0.1791,,24.08854167,,,,,,FBP-OG-71.png,0.37,1.2,32,0.5,0,0,0,31,1,,,,,,,,,,,,,,,,,,,,,,,,,,,,,,,,,,,,,,,,
,,,,,V1_028,18,Female,2024-05-21_16h01.16.832,jersey_experiment_5_v1,2023.2.2,Win32,84.74576271,,,,,,,,,,,,,,,,268.0914,269.3856,269.3857,270.8206,return,0.214,,73.69791667,,,,,,FBP-YG-81.png,0.4,1.2,23,0.5,0,1,1,22,1,,,,,,,,,,,,,,,,,,,,,,,,,,,,,,,,,,,,,,,,
,,,,,V1_028,18,Female,2024-05-21_16h01.16.832,jersey_experiment_5_v1,2023.2.2,Win32,84.74576271,,,,,,,,,,,,,,,,270.8209,272.1146,272.1146,273.6089,return,0.1507,,90.10416667,,,,,,FBP-RB-19.png,0.45,1.2,60,0.5,0,2,2,59,1,,,,,,,,,,,,,,,,,,,,,,,,,,,,,,,,,,,,,,,,
,,,,,V1_028,18,Female,2024-05-21_16h01.16.832,jersey_experiment_5_v1,2023.2.2,Win32,84.74576271,,,,,,,,,,,,,,,,273.6091,274.9031,274.9031,276.5384,return,0.1635,,52.47395833,,,,,,FBP-OG-81.png,0.4,1.2,38,0.5,0,3,3,37,1,,,,,,,,,,,,,,,,,,,,,,,,,,,,,,,,,,,,,,,,
,,,,,V1_028,18,Female,2024-05-21_16h01.16.832,jersey_experiment_5_v1,2023.2.2,Win32,84.74576271,,,,,,,,,,,,,,,,276.5388,277.8327,277.8327,279.2797,return,0.2207,,92.83854167,,,,,,FBP-OG-81.png,0.43,1.2,39,0.5,0,4,4,38,1,,,,,,,,,,,,,,,,,,,,,,,,,,,,,,,,,,,,,,,,
,,,,,V1_028,18,Female,2024-05-21_16h01.16.832,jersey_experiment_5_v1,2023.2.2,Win32,84.74576271,,,,,,,,,,,,,,,,279.2798,280.5739,280.574,282.6094,return,0.2179,,29.16666667,,,,,,FBP-OG-71.png,0.4,1.2,33,0.5,0,5,5,32,1,,,,,,,,,,,,,,,,,,,,,,,,,,,,,,,,,,,,,,,,
,,,,,V1_028,18,Female,2024-05-21_16h01.16.832,jersey_experiment_5_v1,2023.2.2,Win32,84.74576271,,,,,,,,,,,,,,,,282.6097,284.4094,284.4094,286.0095,return,0.3396,,85.15625,,,,,,FBP-PT-17.png,0.45,1.2,5,1,0,6,6,4,1,,,,,,,,,,,,,,,,,,,,,,,,,,,,,,,,,,,,,,,,
,,,,,V1_028,18,Female,2024-05-21_16h01.16.832,jersey_experiment_5_v1,2023.2.2,Win32,84.74576271,,,,,,,,,,,,,,,,286.0097,287.8096,287.8096,289.8802,return,0.1415,,15.88541667,,,,,,FBP-PT-19.png,0.35,1.2,11,1,0,7,7,10,1,,,,,,,,,,,,,,,,,,,,,,,,,,,,,,,,,,,,,,,,
,,,,,V1_028,18,Female,2024-05-21_16h01.16.832,jersey_experiment_5_v1,2023.2.2,Win32,84.74576271,,,,,,,,,,,,,,,,289.8803,291.1742,291.1742,292.8566,return,0.1885,,69.140625,,,,,,FBP-YG-91.png,0.37,1.2,27,0.5,0,8,8,26,1,,,,,,,,,,,,,,,,,,,,,,,,,,,,,,,,,,,,,,,,
,,,,,V1_028,18,Female,2024-05-21_16h01.16.832,jersey_experiment_5_v1,2023.2.2,Win32,84.74576271,,,,,,,,,,,,,,,,292.8569,294.657,294.657,298.3746,return,1.1901,,21.875,,,,,,FBP-PT-17.png,0.35,1.2,1,1,0,9,9,0,1,,,,,,,,,,,,,,,,,,,,,,,,,,,,,,,,,,,,,,,,
,,,,,V1_028,18,Female,2024-05-21_16h01.16.832,jersey_experiment_5_v1,2023.2.2,Win32,84.74576271,,,,,,,,,,,,,,,,298.3748,299.6688,299.6688,301.2688,return,0.3215,,27.99479167,,,,,,FBP-OG-71.png,0.45,1.2,35,0.5,0,10,10,34,1,,,,,,,,,,,,,,,,,,,,,,,,,,,,,,,,,,,,,,,,
,,,,,V1_028,18,Female,2024-05-21_16h01.16.832,jersey_experiment_5_v1,2023.2.2,Win32,84.74576271,,,,,,,,,,,,,,,,301.269,302.5629,302.563,304.1865,return,0.3775,,79.94791667,,,,,,FBP-OG-91.png,0.43,1.2,44,0.5,0,11,11,43,1,,,,,,,,,,,,,,,,,,,,,,,,,,,,,,,,,,,,,,,,
,,,,,V1_028,18,Female,2024-05-21_16h01.16.832,jersey_experiment_5_v1,2023.2.2,Win32,84.74576271,,,,,,,,,,,,,,,,304.1867,305.4806,305.4806,309.3161,return,1.1225,,85.546875,,,,,,FBP-RB-17.png,0.4,1.2,48,0.5,0,12,12,47,1,,,,,,,,,,,,,,,,,,,,,,,,,,,,,,,,,,,,,,,,
,,,,,V1_028,18,Female,2024-05-21_16h01.16.832,jersey_experiment_5_v1,2023.2.2,Win32,84.74576271,,,,,,,,,,,,,,,,309.3163,310.6104,310.6104,312.8692,return,0.8246,,33.07291667,,,,,,FBP-YG-91.png,0.35,1.2,26,0.5,0,13,13,25,1,,,,,,,,,,,,,,,,,,,,,,,,,,,,,,,,,,,,,,,,
,,,,,V1_028,18,Female,2024-05-21_16h01.16.832,jersey_experiment_5_v1,2023.2.2,Win32,84.74576271,,,,,,,,,,,,,,,,312.8694,314.1635,314.1635,317.9518,return,2.0674,,88.80208333,,,,,,FBP-OG-71.png,0.43,1.2,34,0.5,0,14,14,33,1,,,,,,,,,,,,,,,,,,,,,,,,,,,,,,,,,,,,,,,,
,,,,,V1_028,18,Female,2024-05-21_16h01.16.832,jersey_experiment_5_v1,2023.2.2,Win32,84.74576271,,,,,,,,,,,,,,,,317.9519,319.7517,319.7518,322.6342,return,1.191,,61.58854167,,,,,,FBP-PT-18.png,0.45,1.2,10,1,0,15,15,9,1,,,,,,,,,,,,,,,,,,,,,,,,,,,,,,,,,,,,,,,,
,,,,,V1_028,18,Female,2024-05-21_16h01.16.832,jersey_experiment_5_v1,2023.2.2,Win32,84.74576271,,,,,,,,,,,,,,,,322.6345,323.9284,323.9285,328.3522,return,1.2057,,66.015625,,,,,,FBP-YG-81.png,0.35,1.2,21,0.5,0,16,16,20,1,,,,,,,,,,,,,,,,,,,,,,,,,,,,,,,,,,,,,,,,
,,,,,V1_028,18,Female,2024-05-21_16h01.16.832,jersey_experiment_5_v1,2023.2.2,Win32,84.74576271,,,,,,,,,,,,,,,,328.3523,329.6463,329.6463,331.7992,return,0.7779,,85.546875,,,,,,FBP-OG-91.png,0.45,1.2,45,0.5,0,17,17,44,1,,,,,,,,,,,,,,,,,,,,,,,,,,,,,,,,,,,,,,,,
,,,,,V1_028,18,Female,2024-05-21_16h01.16.832,jersey_experiment_5_v1,2023.2.2,Win32,84.74576271,,,,,,,,,,,,,,,,331.7995,333.0935,333.0935,335.3288,return,0.7372,,32.94270833,,,,,,FBP-RB-17.png,0.35,1.2,46,0.5,0,18,18,45,1,,,,,,,,,,,,,,,,,,,,,,,,,,,,,,,,,,,,,,,,
,,,,,V1_028,18,Female,2024-05-21_16h01.16.832,jersey_experiment_5_v1,2023.2.2,Win32,84.74576271,,,,,,,,,,,,,,,,335.329,336.623,336.623,338.5643,return,0.9443,,37.890625,,,,,,FBP-YG-91.png,0.45,1.2,30,0.5,0,19,19,29,1,,,,,,,,,,,,,,,,,,,,,,,,,,,,,,,,,,,,,,,,
,,,,,V1_028,18,Female,2024-05-21_16h01.16.832,jersey_experiment_5_v1,2023.2.2,Win32,84.74576271,,,,,,,,,,,,,,,,338.5646,339.8584,339.8584,341.8937,return,0.9306,,84.63541667,,,,,,FBP-RB-17.png,0.43,1.2,49,0.5,0,20,20,48,1,,,,,,,,,,,,,,,,,,,,,,,,,,,,,,,,,,,,,,,,
,,,,,V1_028,18,Female,2024-05-21_16h01.16.832,jersey_experiment_5_v1,2023.2.2,Win32,84.74576271,,,,,,,,,,,,,,,,341.8939,343.1879,343.1879,347.1764,return,1.3327,,82.8125,,,,,,FBP-YG-71.png,0.4,1.2,18,0.5,0,21,21,17,1,,,,,,,,,,,,,,,,,,,,,,,,,,,,,,,,,,,,,,,,
,,,,,V1_028,18,Female,2024-05-21_16h01.16.832,jersey_experiment_5_v1,2023.2.2,Win32,84.74576271,,,,,,,,,,,,,,,,347.1767,348.9763,348.9764,353.106,return,0.9702,,65.36458333,,,,,,FBP-PT-19.png,0.37,1.2,12,1,0,22,22,11,1,,,,,,,,,,,,,,,,,,,,,,,,,,,,,,,,,,,,,,,,
,,,,,V1_028,18,Female,2024-05-21_16h01.16.832,jersey_experiment_5_v1,2023.2.2,Win32,84.74576271,,,,,,,,,,,,,,,,353.1063,354.4001,354.4001,356.5296,return,0.9955,,64.32291667,,,,,,FBP-OG-91.png,0.4,1.2,43,0.5,0,23,23,42,1,,,,,,,,,,,,,,,,,,,,,,,,,,,,,,,,,,,,,,,,
,,,,,V1_028,18,Female,2024-05-21_16h01.16.832,jersey_experiment_5_v1,2023.2.2,Win32,84.74576271,,,,,,,,,,,,,,,,356.5298,357.8236,357.8236,360.8709,return,0.7988,,39.84375,,,,,,FBP-OG-81.png,0.35,1.2,36,0.5,0,24,24,35,1,,,,,,,,,,,,,,,,,,,,,,,,,,,,,,,,,,,,,,,,
,,,,,V1_028,18,Female,2024-05-21_16h01.16.832,jersey_experiment_5_v1,2023.2.2,Win32,84.74576271,,,,,,,,,,,,,,,,360.8712,362.165,362.165,364.1298,return,0.793,,32.421875,,,,,,FBP-RB-19.png,0.37,1.2,57,0.5,0,25,25,56,1,,,,,,,,,,,,,,,,,,,,,,,,,,,,,,,,,,,,,,,,
,,,,,V1_028,18,Female,2024-05-21_16h01.16.832,jersey_experiment_5_v1,2023.2.2,Win32,84.74576271,,,,,,,,,,,,,,,,364.13,365.4239,365.4239,367.1064,return,0.6396,,18.75,,,,,,FBP-OG-91.png,0.35,1.2,41,0.5,0,26,26,40,1,,,,,,,,,,,,,,,,,,,,,,,,,,,,,,,,,,,,,,,,
,,,,,V1_028,18,Female,2024-05-21_16h01.16.832,jersey_experiment_5_v1,2023.2.2,Win32,84.74576271,,,,,,,,,,,,,,,,367.1066,368.4005,368.4006,370.7771,return,1.5422,,14.0625,,,,,,FBP-YG-71.png,0.37,1.2,17,0.5,0,27,27,16,1,,,,,,,,,,,,,,,,,,,,,,,,,,,,,,,,,,,,,,,,
,,,,,V1_028,18,Female,2024-05-21_16h01.16.832,jersey_experiment_5_v1,2023.2.2,Win32,84.74576271,,,,,,,,,,,,,,,,370.7774,372.0714,372.0714,374.8245,return,1.19,,97.13541667,,,,,,FBP-RB-19.png,0.43,1.2,59,0.5,0,28,28,58,1,,,,,,,,,,,,,,,,,,,,,,,,,,,,,,,,,,,,,,,,
,,,,,V1_028,18,Female,2024-05-21_16h01.16.832,jersey_experiment_5_v1,2023.2.2,Win32,84.74576271,,,,,,,,,,,,,,,,374.8247,376.1185,376.1185,379.8598,return,1.5696,,20.05208333,,,,,,FBP-OG-71.png,0.35,1.2,31,0.5,0,29,29,30,1,,,,,,,,,,,,,,,,,,,,,,,,,,,,,,,,,,,,,,,,
,,,,,V1_028,18,Female,2024-05-21_16h01.16.832,jersey_experiment_5_v1,2023.2.2,Win32,84.74576271,,,,,,,,,,,,,,,,379.86,381.1543,381.1543,383.0952,return,0.6368,,21.22395833,,,,,,FBP-RB-18.png,0.35,1.2,51,0.5,0,30,30,50,1,,,,,,,,,,,,,,,,,,,,,,,,,,,,,,,,,,,,,,,,
,,,,,V1_028,18,Female,2024-05-21_16h01.16.832,jersey_experiment_5_v1,2023.2.2,Win32,84.74576271,,,,,,,,,,,,,,,,383.0954,384.3894,384.3895,386.4837,return,0.485,,98.046875,,,,,,FBP-YG-71.png,0.45,1.2,20,0.5,0,31,31,19,1,,,,,,,,,,,,,,,,,,,,,,,,,,,,,,,,,,,,,,,,
,,,,,V1_028,18,Female,2024-05-21_16h01.16.832,jersey_experiment_5_v1,2023.2.2,Win32,84.74576271,,,,,,,,,,,,,,,,386.4838,387.7777,387.7777,389.9895,return,0.144,,19.66145833,,,,,,FBP-OG-91.png,0.37,1.2,42,0.5,0,32,32,41,1,,,,,,,,,,,,,,,,,,,,,,,,,,,,,,,,,,,,,,,,
,,,,,V1_028,18,Female,2024-05-21_16h01.16.832,jersey_experiment_5_v1,2023.2.2,Win32,84.74576271,,,,,,,,,,,,,,,,389.9898,391.7896,391.7896,393.1311,return,0.0927,,32.421875,,,,,,FBP-PT-17.png,0.37,1.2,2,1,0,33,33,1,1,,,,,,,,,,,,,,,,,,,,,,,,,,,,,,,,,,,,,,,,
,,,,,V1_028,18,Female,2024-05-21_16h01.16.832,jersey_experiment_5_v1,2023.2.2,Win32,84.74576271,,,,,,,,,,,,,,,,393.1313,394.425,394.4251,395.6486,return,0.1138,,83.85416667,,,,,,FBP-OG-81.png,0.45,1.2,40,0.5,0,34,34,39,1,,,,,,,,,,,,,,,,,,,,,,,,,,,,,,,,,,,,,,,,
,,,,,V1_028,18,Female,2024-05-21_16h01.16.832,jersey_experiment_5_v1,2023.2.2,Win32,84.74576271,,,,,,,,,,,,,,,,395.6489,396.943,396.943,399.0957,return,0.1519,,18.359375,,,,,,FBP-OG-81.png,0.37,1.2,37,0.5,0,35,35,36,1,,,,,,,,,,,,,,,,,,,,,,,,,,,,,,,,,,,,,,,,
,,,,,V1_028,18,Female,2024-05-21_16h01.16.832,jersey_experiment_5_v1,2023.2.2,Win32,84.74576271,,,,,,,,,,,,,,,,399.0958,400.39,400.39,401.8489,return,0.0711,,88.54166667,,,,,,FBP-YG-81.png,0.43,1.2,24,0.5,0,36,36,23,1,,,,,,,,,,,,,,,,,,,,,,,,,,,,,,,,,,,,,,,,
,,,,,V1_028,18,Female,2024-05-21_16h01.16.832,jersey_experiment_5_v1,2023.2.2,Win32,84.74576271,,,,,,,,,,,,,,,,401.8491,403.143,403.1432,405.5195,return,0.1133,,32.94270833,,,,,,FBP-YG-71.png,0.35,1.2,16,0.5,0,37,37,15,1,,,,,,,,,,,,,,,,,,,,,,,,,,,,,,,,,,,,,,,,
,,,,,V1_028,18,Female,2024-05-21_16h01.16.832,jersey_experiment_5_v1,2023.2.2,Win32,84.74576271,,,,,,,,,,,,,,,,405.5197,407.3197,407.3197,408.2138,return,0.0848,,81.25,,,,,,FBP-PT-18.png,0.4,1.2,8,1,0,38,38,7,1,,,,,,,,,,,,,,,,,,,,,,,,,,,,,,,,,,,,,,,,
,,,,,V1_028,18,Female,2024-05-21_16h01.16.832,jersey_experiment_5_v1,2023.2.2,Win32,84.74576271,,,,,,,,,,,,,,,,408.214,410.014,410.014,411.0255,return,0.0167,,89.71354167,,,,,,FBP-PT-19.png,0.43,1.2,14,1,0,39,39,13,1,,,,,,,,,,,,,,,,,,,,,,,,,,,,,,,,,,,,,,,,
,,,,,V1_028,18,Female,2024-05-21_16h01.16.832,jersey_experiment_5_v1,2023.2.2,Win32,84.74576271,,,,,,,,,,,,,,,,411.0258,412.3197,412.3197,413.3198,return,0.0617,,29.55729167,,,,,,FBP-RB-17.png,0.37,1.2,47,0.5,0,40,40,46,1,,,,,,,,,,,,,,,,,,,,,,,,,,,,,,,,,,,,,,,,
,,,,,V1_028,18,Female,2024-05-21_16h01.16.832,jersey_experiment_5_v1,2023.2.2,Win32,84.74576271,,,,,,,,,,,,,,,,413.32,415.1202,415.1202,416.2023,return,0.0705,,78.90625,,,,,,FBP-PT-19.png,0.4,1.2,13,1,0,41,41,12,1,,,,,,,,,,,,,,,,,,,,,,,,,,,,,,,,,,,,,,,,
,,,,,V1_028,18,Female,2024-05-21_16h01.16.832,jersey_experiment_5_v1,2023.2.2,Win32,84.74576271,,,,,,,,,,,,,,,,416.2024,417.4964,417.4964,418.8023,return,0.1215,,18.22916667,,,,,,FBP-RB-19.png,0.35,1.2,56,0.5,0,42,42,55,1,,,,,,,,,,,,,,,,,,,,,,,,,,,,,,,,,,,,,,,,
,,,,,V1_028,18,Female,2024-05-21_16h01.16.832,jersey_experiment_5_v1,2023.2.2,Win32,84.74576271,,,,,,,,,,,,,,,,418.8025,420.0967,420.0968,421.5084,return,0.0957,,82.29166667,,,,,,FBP-RB-19.png,0.4,1.2,58,0.5,0,43,43,57,1,,,,,,,,,,,,,,,,,,,,,,,,,,,,,,,,,,,,,,,,
,,,,,V1_028,18,Female,2024-05-21_16h01.16.832,jersey_experiment_5_v1,2023.2.2,Win32,84.74576271,,,,,,,,,,,,,,,,421.5086,422.8025,422.8025,424.9673,return,0.4603,,92.1875,,,,,,FBP-YG-71.png,0.43,1.2,19,0.5,0,44,44,18,1,,,,,,,,,,,,,,,,,,,,,,,,,,,,,,,,,,,,,,,,
,,,,,V1_028,18,Female,2024-05-21_16h01.16.832,jersey_experiment_5_v1,2023.2.2,Win32,84.74576271,,,,,,,,,,,,,,,,424.9675,426.2618,426.2618,427.4026,return,0.1648,,50.13020833,,,,,,FBP-YG-91.png,0.4,1.2,28,0.5,0,45,45,27,1,,,,,,,,,,,,,,,,,,,,,,,,,,,,,,,,,,,,,,,,
,,,,,V1_028,18,Female,2024-05-21_16h01.16.832,jersey_experiment_5_v1,2023.2.2,Win32,84.74576271,,,,,,,,,,,,,,,,427.4028,429.203,429.203,430.7088,return,0.533,,49.21875,,,,,,FBP-PT-18.png,0.37,1.2,7,1,0,46,46,6,1,,,,,,,,,,,,,,,,,,,,,,,,,,,,,,,,,,,,,,,,
,,,,,V1_028,18,Female,2024-05-21_16h01.16.832,jersey_experiment_5_v1,2023.2.2,Win32,84.74576271,,,,,,,,,,,,,,,,430.709,432.5089,432.5089,433.8619,return,0.2027,,63.671875,,,,,,FBP-PT-17.png,0.4,1.2,3,1,0,47,47,2,1,,,,,,,,,,,,,,,,,,,,,,,,,,,,,,,,,,,,,,,,
,,,,,V1_028,18,Female,2024-05-21_16h01.16.832,jersey_experiment_5_v1,2023.2.2,Win32,84.74576271,,,,,,,,,,,,,,,,433.8622,435.1558,435.1559,436.2029,return,0.1519,,86.06770833,,,,,,FBP-YG-91.png,0.43,1.2,29,0.5,0,48,48,28,1,,,,,,,,,,,,,,,,,,,,,,,,,,,,,,,,,,,,,,,,
,,,,,V1_028,18,Female,2024-05-21_16h01.16.832,jersey_experiment_5_v1,2023.2.2,Win32,84.74576271,,,,,,,,,,,,,,,,436.2031,437.497,437.497,438.8384,return,0.1198,,60.80729167,,,,,,FBP-RB-18.png,0.37,1.2,52,0.5,0,49,49,51,1,,,,,,,,,,,,,,,,,,,,,,,,,,,,,,,,,,,,,,,,
,,,,,V1_028,18,Female,2024-05-21_16h01.16.832,jersey_experiment_5_v1,2023.2.2,Win32,84.74576271,,,,,,,,,,,,,,,,438.8386,440.6385,440.6386,441.5678,return,0.1133,,88.93229167,,,,,,FBP-PT-19.png,0.45,1.2,15,1,0,50,50,14,1,,,,,,,,,,,,,,,,,,,,,,,,,,,,,,,,,,,,,,,,
,,,,,V1_028,18,Female,2024-05-21_16h01.16.832,jersey_experiment_5_v1,2023.2.2,Win32,84.74576271,,,,,,,,,,,,,,,,441.568,443.3683,443.3684,444.9799,return,0.5225,,30.20833333,,,,,,FBP-PT-18.png,0.35,1.2,6,1,0,51,51,5,1,,,,,,,,,,,,,,,,,,,,,,,,,,,,,,,,,,,,,,,,
,,,,,V1_028,18,Female,2024-05-21_16h01.16.832,jersey_experiment_5_v1,2023.2.2,Win32,84.74576271,,,,,,,,,,,,,,,,444.9801,446.274,446.274,448.0504,return,0.3001,,91.53645833,,,,,,FBP-RB-18.png,0.45,1.2,55,0.5,0,52,52,54,1,,,,,,,,,,,,,,,,,,,,,,,,,,,,,,,,,,,,,,,,
,,,,,V1_028,18,Female,2024-05-21_16h01.16.832,jersey_experiment_5_v1,2023.2.2,Win32,84.74576271,,,,,,,,,,,,,,,,448.0505,449.3446,449.3447,450.5211,return,0.211,,88.41145833,,,,,,FBP-RB-17.png,0.45,1.2,50,0.5,0,53,53,49,1,,,,,,,,,,,,,,,,,,,,,,,,,,,,,,,,,,,,,,,,
,,,,,V1_028,18,Female,2024-05-21_16h01.16.832,jersey_experiment_5_v1,2023.2.2,Win32,84.74576271,,,,,,,,,,,,,,,,450.5213,452.3212,452.3212,453.6036,return,0.7927,,84.11458333,,,,,,FBP-PT-18.png,0.43,1.2,9,1,0,54,54,8,1,,,,,,,,,,,,,,,,,,,,,,,,,,,,,,,,,,,,,,,,
,,,,,V1_028,18,Female,2024-05-21_16h01.16.832,jersey_experiment_5_v1,2023.2.2,Win32,84.74576271,,,,,,,,,,,,,,,,453.6039,454.8978,454.8979,457.9568,return,0.9429,,19.27083333,,,,,,FBP-YG-81.png,0.37,1.2,22,0.5,0,55,55,21,1,,,,,,,,,,,,,,,,,,,,,,,,,,,,,,,,,,,,,,,,
,,,,,V1_028,18,Female,2024-05-21_16h01.16.832,jersey_experiment_5_v1,2023.2.2,Win32,84.74576271,,,,,,,,,,,,,,,,457.957,459.251,459.251,461.8158,return,0.861,,80.98958333,,,,,,FBP-RB-18.png,0.4,1.2,53,0.5,0,56,56,52,1,,,,,,,,,,,,,,,,,,,,,,,,,,,,,,,,,,,,,,,,
,,,,,V1_028,18,Female,2024-05-21_16h01.16.832,jersey_experiment_5_v1,2023.2.2,Win32,84.74576271,,,,,,,,,,,,,,,,461.8159,463.6157,463.6157,465.9452,return,1.1154,,83.85416667,,,,,,FBP-PT-17.png,0.43,1.2,4,1,0,57,57,3,1,,,,,,,,,,,,,,,,,,,,,,,,,,,,,,,,,,,,,,,,
,,,,,V1_028,18,Female,2024-05-21_16h01.16.832,jersey_experiment_5_v1,2023.2.2,Win32,84.74576271,,,,,,,,,,,,,,,,465.9454,467.2394,467.2394,469.0984,return,0.9281,,83.85416667,,,,,,FBP-YG-81.png,0.45,1.2,25,0.5,0,58,58,24,1,,,,,,,,,,,,,,,,,,,,,,,,,,,,,,,,,,,,,,,,
,,,,,V1_028,18,Female,2024-05-21_16h01.16.832,jersey_experiment_5_v1,2023.2.2,Win32,84.74576271,,,,,,,,,,,,,,,,469.0986,470.3924,470.3924,472.1806,return,0.7198,,90.234375,,,,,,FBP-RB-18.png,0.43,1.2,54,0.5,0,59,59,53,1,,,,,,,,,,,,,,,,,,,,,,,,,,,,,,,,,,,,,,,,
,,,,,V1_028,18,Female,2024-05-21_16h01.16.832,jersey_experiment_5_v1,2023.2.2,Win32,84.74576271,,,,,,,,,,,,,,,,,,,,,,,,,,,,,,,,,,,,,,,472.1811,592.1854,,,,,,,,,,,,,,,,,,,,,,,,,,,,,,,,,,,,,,
,,,,,V1_028,18,Female,2024-05-21_16h01.16.832,jersey_experiment_5_v1,2023.2.2,Win32,84.74576271,,,,,,,,,,,,,,,,,,,,,,,,,,,,,,,,,,,,,,,,,592.1856,598.1856,return,5.9891,,,,,,,,,,,,,,,,,,,,,,,,,,,,,,,,,,
,,,,,V1_028,18,Female,2024-05-21_16h01.16.832,jersey_experiment_5_v1,2023.2.2,Win32,84.74576271,,,,,,,,,,,,,,,,598.1915,599.4911,599.4911,608.6798,return,3.6016,,88.41145833,,,,,,FBP-PT-71.png,0.4,1.2,3,0.5,,,,,,,,,,,,,0,0,0,2,1,,,,,,,,,,,,,,,,,,,,,,,,,,,,
,,,,,V1_028,18,Female,2024-05-21_16h01.16.832,jersey_experiment_5_v1,2023.2.2,Win32,84.74576271,,,,,,,,,,,,,,,,608.6803,610.4799,610.4799,613.2681,return,1.1314,,66.66666667,,,,,,FBP-RB-71.png,0.35,1.2,46,1,,,,,,,,,,,,,0,1,1,45,1,,,,,,,,,,,,,,,,,,,,,,,,,,,,
,,,,,V1_028,18,Female,2024-05-21_16h01.16.832,jersey_experiment_5_v1,2023.2.2,Win32,84.74576271,,,,,,,,,,,,,,,,613.2684,615.0683,615.0683,616.8566,return,1.2472,,86.58854167,,,,,,FBP-YG-17.png,0.45,1.2,20,1,,,,,,,,,,,,,0,2,2,19,1,,,,,,,,,,,,,,,,,,,,,,,,,,,,
,,,,,V1_028,18,Female,2024-05-21_16h01.16.832,jersey_experiment_5_v1,2023.2.2,Win32,84.74576271,,,,,,,,,,,,,,,,616.8567,618.1507,618.1507,621.3861,return,1.5673,,83.203125,,,,,,FBP-PT-91.png,0.43,1.2,14,0.5,,,,,,,,,,,,,0,3,3,13,1,,,,,,,,,,,,,,,,,,,,,,,,,,,,
,,,,,V1_028,18,Female,2024-05-21_16h01.16.832,jersey_experiment_5_v1,2023.2.2,Win32,84.74576271,,,,,,,,,,,,,,,,621.3863,623.1862,623.1863,625.6569,return,0.7535,,21.74479167,,,,,,FBP-OG-18.png,0.4,1.2,38,1,,,,,,,,,,,,,0,4,4,37,1,,,,,,,,,,,,,,,,,,,,,,,,,,,,
,,,,,V1_028,18,Female,2024-05-21_16h01.16.832,jersey_experiment_5_v1,2023.2.2,Win32,84.74576271,,,,,,,,,,,,,,,,625.657,626.9508,626.9508,628.7393,return,1.0636,,16.27604167,,,,,,FBP-PT-91.png,0.37,1.2,12,0.5,,,,,,,,,,,,,0,5,5,11,1,,,,,,,,,,,,,,,,,,,,,,,,,,,,
,,,,,V1_028,18,Female,2024-05-21_16h01.16.832,jersey_experiment_5_v1,2023.2.2,Win32,84.74576271,,,,,,,,,,,,,,,,628.7394,630.5395,630.5395,632.3865,return,0.6507,,90.49479167,,,,,,FBP-YG-18.png,0.43,1.2,24,1,,,,,,,,,,,,,0,6,6,23,1,,,,,,,,,,,,,,,,,,,,,,,,,,,,
,,,,,V1_028,18,Female,2024-05-21_16h01.16.832,jersey_experiment_5_v1,2023.2.2,Win32,84.74576271,,,,,,,,,,,,,,,,632.3867,634.1867,634.1867,636.1513,return,1.0691,,86.45833333,,,,,,FBP-OG-17.png,0.45,1.2,35,1,,,,,,,,,,,,,0,7,7,34,1,,,,,,,,,,,,,,,,,,,,,,,,,,,,
,,,,,V1_028,18,Female,2024-05-21_16h01.16.832,jersey_experiment_5_v1,2023.2.2,Win32,84.74576271,,,,,,,,,,,,,,,,636.1515,637.9513,637.9513,640.1515,return,1.3507,,86.84895833,,,,,,FBP-YG-17.png,0.43,1.2,19,1,,,,,,,,,,,,,0,8,8,18,1,,,,,,,,,,,,,,,,,,,,,,,,,,,,
,,,,,V1_028,18,Female,2024-05-21_16h01.16.832,jersey_experiment_5_v1,2023.2.2,Win32,84.74576271,,,,,,,,,,,,,,,,640.1518,641.9516,641.9516,643.7163,return,0.8966,,86.97916667,,,,,,FBP-OG-18.png,0.43,1.2,39,1,,,,,,,,,,,,,0,9,9,38,1,,,,,,,,,,,,,,,,,,,,,,,,,,,,
,,,,,V1_028,18,Female,2024-05-21_16h01.16.832,jersey_experiment_5_v1,2023.2.2,Win32,84.74576271,,,,,,,,,,,,,,,,643.7165,645.5162,645.5162,647.4812,return,1.0119,,87.36979167,,,,,,FBP-RB-81.png,0.43,1.2,54,1,,,,,,,,,,,,,0,10,10,53,1,,,,,,,,,,,,,,,,,,,,,,,,,,,,
,,,,,V1_028,18,Female,2024-05-21_16h01.16.832,jersey_experiment_5_v1,2023.2.2,Win32,84.74576271,,,,,,,,,,,,,,,,647.4814,649.2813,649.2813,651.1518,return,0.7827,,19.40104167,,,,,,FBP-YG-17.png,0.37,1.2,17,1,,,,,,,,,,,,,0,11,11,16,1,,,,,,,,,,,,,,,,,,,,,,,,,,,,
,,,,,V1_028,18,Female,2024-05-21_16h01.16.832,jersey_experiment_5_v1,2023.2.2,Win32,84.74576271,,,,,,,,,,,,,,,,651.152,652.9518,652.9518,655.0579,return,0.8046,,33.33333333,,,,,,FBP-OG-17.png,0.37,1.2,32,1,,,,,,,,,,,,,0,12,12,31,1,,,,,,,,,,,,,,,,,,,,,,,,,,,,
,,,,,V1_028,18,Female,2024-05-21_16h01.16.832,jersey_experiment_5_v1,2023.2.2,Win32,84.74576271,,,,,,,,,,,,,,,,655.0582,656.8582,656.8582,658.6344,return,0.7535,,10.67708333,,,,,,FBP-RB-81.png,0.35,1.2,51,1,,,,,,,,,,,,,0,13,13,50,1,,,,,,,,,,,,,,,,,,,,,,,,,,,,
,,,,,V1_028,18,Female,2024-05-21_16h01.16.832,jersey_experiment_5_v1,2023.2.2,Win32,84.74576271,,,,,,,,,,,,,,,,658.6347,660.4344,660.4345,674.6821,return,0.8133,,27.34375,,,,,,FBP-RB-91.png,0.35,1.2,56,1,,,,,,,,,,,,,0,14,14,55,1,,,,,,,,,,,,,,,,,,,,,,,,,,,,
,,,,,V1_028,18,Female,2024-05-21_16h01.16.832,jersey_experiment_5_v1,2023.2.2,Win32,84.74576271,,,,,,,,,,,,,,,,674.6823,676.4821,676.4821,711.3657,return,1.2711,,27.34375,,,,,,FBP-YG-19.png,0.4,1.2,28,1,,,,,,,,,,,,,0,15,15,27,1,,,,,,,,,,,,,,,,,,,,,,,,,,,,
,,,,,V1_028,18,Female,2024-05-21_16h01.16.832,jersey_experiment_5_v1,2023.2.2,Win32,84.74576271,,,,,,,,,,,,,,,,711.366,713.1659,713.1659,715.2364,return,1.1665,,79.03645833,,,,,,FBP-RB-71.png,0.4,1.2,48,1,,,,,,,,,,,,,0,16,16,47,1,,,,,,,,,,,,,,,,,,,,,,,,,,,,
,,,,,V1_028,18,Female,2024-05-21_16h01.16.832,jersey_experiment_5_v1,2023.2.2,Win32,84.74576271,,,,,,,,,,,,,,,,715.2366,717.0366,717.0366,718.9778,return,0.9243,,69.66145833,,,,,,FBP-RB-91.png,0.37,1.2,57,1,,,,,,,,,,,,,0,17,17,56,1,,,,,,,,,,,,,,,,,,,,,,,,,,,,
,,,,,V1_028,18,Female,2024-05-21_16h01.16.832,jersey_experiment_5_v1,2023.2.2,Win32,84.74576271,,,,,,,,,,,,,,,,718.978,720.2719,720.2719,722.5191,return,0.9643,,27.99479167,,,,,,FBP-PT-81.png,0.35,1.2,6,0.5,,,,,,,,,,,,,0,18,18,5,1,,,,,,,,,,,,,,,,,,,,,,,,,,,,
,,,,,V1_028,18,Female,2024-05-21_16h01.16.832,jersey_experiment_5_v1,2023.2.2,Win32,84.74576271,,,,,,,,,,,,,,,,722.5192,724.3191,724.3191,726.578,return,0.8154,,81.51041667,,,,,,FBP-OG-19.png,0.45,1.2,45,1,,,,,,,,,,,,,0,19,19,44,1,,,,,,,,,,,,,,,,,,,,,,,,,,,,
,,,,,V1_028,18,Female,2024-05-21_16h01.16.832,jersey_experiment_5_v1,2023.2.2,Win32,84.74576271,,,,,,,,,,,,,,,,726.5782,728.3784,728.3784,730.3075,return,0.9102,,20.703125,,,,,,FBP-RB-81.png,0.37,1.2,52,1,,,,,,,,,,,,,0,20,20,51,1,,,,,,,,,,,,,,,,,,,,,,,,,,,,
,,,,,V1_028,18,Female,2024-05-21_16h01.16.832,jersey_experiment_5_v1,2023.2.2,Win32,84.74576271,,,,,,,,,,,,,,,,730.3078,731.6018,731.6018,733.4488,return,0.753,,8.072916667,,,,,,FBP-PT-91.png,0.35,1.2,11,0.5,,,,,,,,,,,,,0,21,21,10,1,,,,,,,,,,,,,,,,,,,,,,,,,,,,
,,,,,V1_028,18,Female,2024-05-21_16h01.16.832,jersey_experiment_5_v1,2023.2.2,Win32,84.74576271,,,,,,,,,,,,,,,,733.4489,735.2491,735.2491,736.5312,return,0.6743,,2.083333333,,,,,,FBP-OG-17.png,0.35,1.2,31,1,,,,,,,,,,,,,0,22,22,30,1,,,,,,,,,,,,,,,,,,,,,,,,,,,,
,,,,,V1_028,18,Female,2024-05-21_16h01.16.832,jersey_experiment_5_v1,2023.2.2,Win32,84.74576271,,,,,,,,,,,,,,,,736.5314,738.3313,738.3313,740.2021,return,0.6931,,51.04166667,,,,,,FBP-OG-19.png,0.37,1.2,42,1,,,,,,,,,,,,,0,23,23,41,1,,,,,,,,,,,,,,,,,,,,,,,,,,,,
,,,,,V1_028,18,Female,2024-05-21_16h01.16.832,jersey_experiment_5_v1,2023.2.2,Win32,84.74576271,,,,,,,,,,,,,,,,740.2022,742.0022,742.0022,744.3904,return,0.8012,,5.859375,,,,,,FBP-OG-19.png,0.35,1.2,41,1,,,,,,,,,,,,,0,24,24,40,1,,,,,,,,,,,,,,,,,,,,,,,,,,,,
,,,,,V1_028,18,Female,2024-05-21_16h01.16.832,jersey_experiment_5_v1,2023.2.2,Win32,84.74576271,,,,,,,,,,,,,,,,744.3906,745.6845,745.6845,747.8258,return,0.7453,,90.234375,,,,,,FBP-PT-81.png,0.45,1.2,10,0.5,,,,,,,,,,,,,0,25,25,9,1,,,,,,,,,,,,,,,,,,,,,,,,,,,,
,,,,,V1_028,18,Female,2024-05-21_16h01.16.832,jersey_experiment_5_v1,2023.2.2,Win32,84.74576271,,,,,,,,,,,,,,,,747.826,749.1199,749.12,750.767,return,0.9121,,90.234375,,,,,,FBP-PT-91.png,0.45,1.2,15,0.5,,,,,,,,,,,,,0,26,26,14,1,,,,,,,,,,,,,,,,,,,,,,,,,,,,
,,,,,V1_028,18,Female,2024-05-21_16h01.16.832,jersey_experiment_5_v1,2023.2.2,Win32,84.74576271,,,,,,,,,,,,,,,,750.7672,752.5672,752.5672,753.9437,return,0.8335,,92.83854167,,,,,,FBP-RB-71.png,0.45,1.2,50,1,,,,,,,,,,,,,0,27,27,49,1,,,,,,,,,,,,,,,,,,,,,,,,,,,,
,,,,,V1_028,18,Female,2024-05-21_16h01.16.832,jersey_experiment_5_v1,2023.2.2,Win32,84.74576271,,,,,,,,,,,,,,,,753.9438,755.7437,755.7438,757.8145,return,0.9426,,78.25520833,,,,,,FBP-RB-91.png,0.4,1.2,58,1,,,,,,,,,,,,,0,28,28,57,1,,,,,,,,,,,,,,,,,,,,,,,,,,,,
,,,,,V1_028,18,Female,2024-05-21_16h01.16.832,jersey_experiment_5_v1,2023.2.2,Win32,84.74576271,,,,,,,,,,,,,,,,757.8147,759.6145,759.6145,762.4499,return,1.8767,,81.640625,,,,,,FBP-YG-18.png,0.37,1.2,22,1,,,,,,,,,,,,,0,29,29,21,1,,,,,,,,,,,,,,,,,,,,,,,,,,,,
,,,,,V1_028,18,Female,2024-05-21_16h01.16.832,jersey_experiment_5_v1,2023.2.2,Win32,84.74576271,,,,,,,,,,,,,,,,762.4501,764.2499,764.25,769.7912,return,0.9716,,82.16145833,,,,,,FBP-OG-19.png,0.4,1.2,43,1,,,,,,,,,,,,,0,30,30,42,1,,,,,,,,,,,,,,,,,,,,,,,,,,,,
,,,,,V1_028,18,Female,2024-05-21_16h01.16.832,jersey_experiment_5_v1,2023.2.2,Win32,84.74576271,,,,,,,,,,,,,,,,769.7914,771.5913,771.5913,777.474,return,0.665,,25.65104167,,,,,,FBP-YG-19.png,0.35,1.2,26,1,,,,,,,,,,,,,0,31,31,25,1,,,,,,,,,,,,,,,,,,,,,,,,,,,,
,,,,,V1_028,18,Female,2024-05-21_16h01.16.832,jersey_experiment_5_v1,2023.2.2,Win32,84.74576271,,,,,,,,,,,,,,,,777.4742,779.2739,779.2739,783.2976,return,0.7476,,77.734375,,,,,,FBP-RB-71.png,0.43,1.2,49,1,,,,,,,,,,,,,0,32,32,48,1,,,,,,,,,,,,,,,,,,,,,,,,,,,,
,,,,,V1_028,18,Female,2024-05-21_16h01.16.832,jersey_experiment_5_v1,2023.2.2,Win32,84.74576271,,,,,,,,,,,,,,,,783.2978,785.0977,785.0977,788.6626,return,0.7429,,82.29166667,,,,,,FBP-YG-18.png,0.45,1.2,25,1,,,,,,,,,,,,,0,33,33,24,1,,,,,,,,,,,,,,,,,,,,,,,,,,,,
,,,,,V1_028,18,Female,2024-05-21_16h01.16.832,jersey_experiment_5_v1,2023.2.2,Win32,84.74576271,,,,,,,,,,,,,,,,788.6628,790.4625,790.4625,793.1451,return,0.8003,,83.46354167,,,,,,FBP-YG-19.png,0.43,1.2,29,1,,,,,,,,,,,,,0,34,34,28,1,,,,,,,,,,,,,,,,,,,,,,,,,,,,
,,,,,V1_028,18,Female,2024-05-21_16h01.16.832,jersey_experiment_5_v1,2023.2.2,Win32,84.74576271,,,,,,,,,,,,,,,,793.1452,794.9452,794.9452,800.1806,return,0.7802,,7.8125,,,,,,FBP-OG-18.png,0.35,1.2,36,1,,,,,,,,,,,,,0,35,35,35,1,,,,,,,,,,,,,,,,,,,,,,,,,,,,
,,,,,V1_028,18,Female,2024-05-21_16h01.16.832,jersey_experiment_5_v1,2023.2.2,Win32,84.74576271,,,,,,,,,,,,,,,,800.1808,801.9809,801.9809,803.8748,return,0.6971,,93.09895833,,,,,,FBP-RB-91.png,0.43,1.2,59,1,,,,,,,,,,,,,0,36,36,58,1,,,,,,,,,,,,,,,,,,,,,,,,,,,,
,,,,,V1_028,18,Female,2024-05-21_16h01.16.832,jersey_experiment_5_v1,2023.2.2,Win32,84.74576271,,,,,,,,,,,,,,,,803.875,805.675,805.675,809.6397,return,0.8238,,93.22916667,,,,,,FBP-YG-19.png,0.45,1.2,30,1,,,,,,,,,,,,,0,37,37,29,1,,,,,,,,,,,,,,,,,,,,,,,,,,,,
,,,,,V1_028,18,Female,2024-05-21_16h01.16.832,jersey_experiment_5_v1,2023.2.2,Win32,84.74576271,,,,,,,,,,,,,,,,809.6399,810.9339,810.9339,812.581,return,0.6247,,27.60416667,,,,,,FBP-PT-81.png,0.4,1.2,8,0.5,,,,,,,,,,,,,0,38,38,7,1,,,,,,,,,,,,,,,,,,,,,,,,,,,,
,,,,,V1_028,18,Female,2024-05-21_16h01.16.832,jersey_experiment_5_v1,2023.2.2,Win32,84.74576271,,,,,,,,,,,,,,,,812.5812,814.3812,814.3812,818.4518,return,0.5804,,69.53125,,,,,,FBP-RB-81.png,0.4,1.2,53,1,,,,,,,,,,,,,0,39,39,52,1,,,,,,,,,,,,,,,,,,,,,,,,,,,,
,,,,,V1_028,18,Female,2024-05-21_16h01.16.832,jersey_experiment_5_v1,2023.2.2,Win32,84.74576271,,,,,,,,,,,,,,,,818.452,820.2519,820.2519,825.9108,return,0.6595,,29.16666667,,,,,,FBP-YG-18.png,0.4,1.2,23,1,,,,,,,,,,,,,0,40,40,22,1,,,,,,,,,,,,,,,,,,,,,,,,,,,,
,,,,,V1_028,18,Female,2024-05-21_16h01.16.832,jersey_experiment_5_v1,2023.2.2,Win32,84.74576271,,,,,,,,,,,,,,,,825.911,827.7111,827.7111,832.3702,return,0.9004,,17.05729167,,,,,,FBP-OG-19.png,0.43,1.2,44,1,,,,,,,,,,,,,0,41,41,43,1,,,,,,,,,,,,,,,,,,,,,,,,,,,,
,,,,,V1_028,18,Female,2024-05-21_16h01.16.832,jersey_experiment_5_v1,2023.2.2,Win32,84.74576271,,,,,,,,,,,,,,,,832.3704,834.1702,834.1702,836.9702,return,1.8967,,30.20833333,,,,,,FBP-YG-17.png,0.35,1.2,16,1,,,,,,,,,,,,,0,42,42,15,1,,,,,,,,,,,,,,,,,,,,,,,,,,,,
,,,,,V1_028,18,Female,2024-05-21_16h01.16.832,jersey_experiment_5_v1,2023.2.2,Win32,84.74576271,,,,,,,,,,,,,,,,836.9704,838.7704,838.7704,841.7705,return,0.8234,,92.578125,,,,,,FBP-OG-18.png,0.45,1.2,40,1,,,,,,,,,,,,,0,43,43,39,1,,,,,,,,,,,,,,,,,,,,,,,,,,,,
,,,,,V1_028,18,Female,2024-05-21_16h01.16.832,jersey_experiment_5_v1,2023.2.2,Win32,84.74576271,,,,,,,,,,,,,,,,841.7707,843.0647,843.0647,844.7705,return,0.8627,,89.84375,,,,,,FBP-PT-81.png,0.43,1.2,9,0.5,,,,,,,,,,,,,0,44,44,8,1,,,,,,,,,,,,,,,,,,,,,,,,,,,,
,,,,,V1_028,18,Female,2024-05-21_16h01.16.832,jersey_experiment_5_v1,2023.2.2,Win32,84.74576271,,,,,,,,,,,,,,,,844.7706,846.5705,846.5705,848.453,return,1.1779,,96.09375,,,,,,FBP-OG-17.png,0.43,1.2,34,1,,,,,,,,,,,,,0,45,45,33,1,,,,,,,,,,,,,,,,,,,,,,,,,,,,
,,,,,V1_028,18,Female,2024-05-21_16h01.16.832,jersey_experiment_5_v1,2023.2.2,Win32,84.74576271,,,,,,,,,,,,,,,,848.4532,849.7472,849.7472,851.9707,return,0.6976,,71.22395833,,,,,,FBP-PT-71.png,0.45,1.2,5,0.5,,,,,,,,,,,,,0,46,46,4,1,,,,,,,,,,,,,,,,,,,,,,,,,,,,
,,,,,V1_028,18,Female,2024-05-21_16h01.16.832,jersey_experiment_5_v1,2023.2.2,Win32,84.74576271,,,,,,,,,,,,,,,,851.971,853.265,853.265,856.1827,return,1.0233,,22.13541667,,,,,,FBP-PT-81.png,0.37,1.2,7,0.5,,,,,,,,,,,,,0,47,47,6,1,,,,,,,,,,,,,,,,,,,,,,,,,,,,
,,,,,V1_028,18,Female,2024-05-21_16h01.16.832,jersey_experiment_5_v1,2023.2.2,Win32,84.74576271,,,,,,,,,,,,,,,,856.1829,857.983,857.983,859.9239,return,0.7434,,69.40104167,,,,,,FBP-YG-17.png,0.4,1.2,18,1,,,,,,,,,,,,,0,48,48,17,1,,,,,,,,,,,,,,,,,,,,,,,,,,,,
,,,,,V1_028,18,Female,2024-05-21_16h01.16.832,jersey_experiment_5_v1,2023.2.2,Win32,84.74576271,,,,,,,,,,,,,,,,859.9241,861.724,861.724,863.1241,return,0.7663,,70.05208333,,,,,,FBP-OG-17.png,0.4,1.2,33,1,,,,,,,,,,,,,0,49,49,32,1,,,,,,,,,,,,,,,,,,,,,,,,,,,,
,,,,,V1_028,18,Female,2024-05-21_16h01.16.832,jersey_experiment_5_v1,2023.2.2,Win32,84.74576271,,,,,,,,,,,,,,,,863.1244,864.9243,864.9243,867.6066,return,0.6822,,31.38020833,,,,,,FBP-RB-71.png,0.37,1.2,47,1,,,,,,,,,,,,,0,50,50,46,1,,,,,,,,,,,,,,,,,,,,,,,,,,,,
,,,,,V1_028,18,Female,2024-05-21_16h01.16.832,jersey_experiment_5_v1,2023.2.2,Win32,84.74576271,,,,,,,,,,,,,,,,867.6067,869.4066,869.4066,871.089,return,0.7715,,20.18229167,,,,,,FBP-OG-18.png,0.37,1.2,37,1,,,,,,,,,,,,,0,51,51,36,1,,,,,,,,,,,,,,,,,,,,,,,,,,,,
,,,,,V1_028,18,Female,2024-05-21_16h01.16.832,jersey_experiment_5_v1,2023.2.2,Win32,84.74576271,,,,,,,,,,,,,,,,871.0892,872.8891,872.8891,874.9598,return,0.7013,,26.43229167,,,,,,FBP-YG-18.png,0.35,1.2,21,1,,,,,,,,,,,,,0,52,52,20,1,,,,,,,,,,,,,,,,,,,,,,,,,,,,
,,,,,V1_028,18,Female,2024-05-21_16h01.16.832,jersey_experiment_5_v1,2023.2.2,Win32,84.74576271,,,,,,,,,,,,,,,,874.9599,876.2539,876.2539,878.4187,return,0.6966,,77.47395833,,,,,,FBP-PT-71.png,0.43,1.2,4,0.5,,,,,,,,,,,,,0,53,53,3,1,,,,,,,,,,,,,,,,,,,,,,,,,,,,
,,,,,V1_028,18,Female,2024-05-21_16h01.16.832,jersey_experiment_5_v1,2023.2.2,Win32,84.74576271,,,,,,,,,,,,,,,,878.4189,880.219,880.219,881.7953,return,0.7458,,95.57291667,,,,,,FBP-RB-81.png,0.45,1.2,55,1,,,,,,,,,,,,,0,54,54,54,1,,,,,,,,,,,,,,,,,,,,,,,,,,,,
,,,,,V1_028,18,Female,2024-05-21_16h01.16.832,jersey_experiment_5_v1,2023.2.2,Win32,84.74576271,,,,,,,,,,,,,,,,881.7955,883.0895,883.0895,885.3836,return,0.8571,,11.19791667,,,,,,FBP-PT-71.png,0.35,1.2,1,0.5,,,,,,,,,,,,,0,55,55,0,1,,,,,,,,,,,,,,,,,,,,,,,,,,,,
,,,,,V1_028,18,Female,2024-05-21_16h01.16.832,jersey_experiment_5_v1,2023.2.2,Win32,84.74576271,,,,,,,,,,,,,,,,885.3838,886.6778,886.6778,888.8191,return,0.7106,,82.16145833,,,,,,FBP-PT-91.png,0.4,1.2,13,0.5,,,,,,,,,,,,,0,56,56,12,1,,,,,,,,,,,,,,,,,,,,,,,,,,,,
,,,,,V1_028,18,Female,2024-05-21_16h01.16.832,jersey_experiment_5_v1,2023.2.2,Win32,84.74576271,,,,,,,,,,,,,,,,888.8192,890.6194,890.6194,894.7369,return,2.6882,,94.140625,,,,,,FBP-RB-91.png,0.45,1.2,60,1,,,,,,,,,,,,,0,57,57,59,1,,,,,,,,,,,,,,,,,,,,,,,,,,,,
,,,,,V1_028,18,Female,2024-05-21_16h01.16.832,jersey_experiment_5_v1,2023.2.2,Win32,84.74576271,,,,,,,,,,,,,,,,894.7372,896.5371,896.5371,901.0784,return,2.1753,,50.65104167,,,,,,FBP-YG-19.png,0.37,1.2,27,1,,,,,,,,,,,,,0,58,58,26,1,,,,,,,,,,,,,,,,,,,,,,,,,,,,
,,,,,V1_028,18,Female,2024-05-21_16h01.16.832,jersey_experiment_5_v1,2023.2.2,Win32,84.74576271,,,,,,,,,,,,,,,,901.0786,902.3725,902.3725,904.3609,return,0.7677,,26.43229167,,,,,,FBP-PT-71.png,0.37,1.2,2,0.5,,,,,,,,,,,,,0,59,59,1,1,,,,,,,,,,,,,,,,,,,,,,,,,,,,
,,,,,V1_028,18,Female,2024-05-21_16h01.16.832,jersey_experiment_5_v1,2023.2.2,Win32,84.74576271,,,,,,,,,,,,,,,,904.3628,906.1608,906.1609,909.7492,return,2.3911,,62.63020833,,,,,,FBP-YG-91.png,0.37,1.2,27,1,,,,,,,,,,,,,,,,,,0,0,0,26,1,,,,,,,,,,,,,,,,,,,,,,,
,,,,,V1_028,18,Female,2024-05-21_16h01.16.832,jersey_experiment_5_v1,2023.2.2,Win32,84.74576271,,,,,,,,,,,,,,,,909.7496,911.0435,911.0436,913.3846,return,0.8569,,7.291666667,,,,,,FBP-PT-19.png,0.35,1.2,11,0.5,,,,,,,,,,,,,,,,,,0,1,1,10,1,,,,,,,,,,,,,,,,,,,,,,,
,,,,,V1_028,18,Female,2024-05-21_16h01.16.832,jersey_experiment_5_v1,2023.2.2,Win32,84.74576271,,,,,,,,,,,,,,,,913.3848,915.1849,915.1849,917.0318,return,0.7765,,20.44270833,,,,,,FBP-YG-81.png,0.35,1.2,21,1,,,,,,,,,,,,,,,,,,0,2,2,20,1,,,,,,,,,,,,,,,,,,,,,,,
,,,,,V1_028,18,Female,2024-05-21_16h01.16.832,jersey_experiment_5_v1,2023.2.2,Win32,84.74576271,,,,,,,,,,,,,,,,917.032,918.832,918.832,922.0673,return,1.1195,,87.890625,,,,,,FBP-YG-91.png,0.4,1.2,28,1,,,,,,,,,,,,,,,,,,0,3,3,27,1,,,,,,,,,,,,,,,,,,,,,,,
,,,,,V1_028,18,Female,2024-05-21_16h01.16.832,jersey_experiment_5_v1,2023.2.2,Win32,84.74576271,,,,,,,,,,,,,,,,922.0675,923.8674,923.8675,925.7027,return,0.8611,,92.578125,,,,,,FBP-OG-81.png,0.43,1.2,39,1,,,,,,,,,,,,,,,,,,0,4,4,38,1,,,,,,,,,,,,,,,,,,,,,,,
,,,,,V1_028,18,Female,2024-05-21_16h01.16.832,jersey_experiment_5_v1,2023.2.2,Win32,84.74576271,,,,,,,,,,,,,,,,925.7029,927.5028,927.5028,929.7383,return,0.9885,,6.119791667,,,,,,FBP-RB-18.png,0.35,1.2,51,1,,,,,,,,,,,,,,,,,,0,5,5,50,1,,,,,,,,,,,,,,,,,,,,,,,
,,,,,V1_028,18,Female,2024-05-21_16h01.16.832,jersey_experiment_5_v1,2023.2.2,Win32,84.74576271,,,,,,,,,,,,,,,,929.7385,931.5382,931.5382,934.0326,return,0.852,,51.69270833,,,,,,FBP-YG-71.png,0.43,1.2,19,1,,,,,,,,,,,,,,,,,,0,6,6,18,1,,,,,,,,,,,,,,,,,,,,,,,
,,,,,V1_028,18,Female,2024-05-21_16h01.16.832,jersey_experiment_5_v1,2023.2.2,Win32,84.74576271,,,,,,,,,,,,,,,,934.0328,935.8327,935.8327,937.4089,return,0.7929,,88.28125,,,,,,FBP-YG-81.png,0.43,1.2,24,1,,,,,,,,,,,,,,,,,,0,7,7,23,1,,,,,,,,,,,,,,,,,,,,,,,
,,,,,V1_028,18,Female,2024-05-21_16h01.16.832,jersey_experiment_5_v1,2023.2.2,Win32,84.74576271,,,,,,,,,,,,,,,,937.4092,938.7032,938.7032,941.9739,return,1.2588,,87.890625,,,,,,FBP-PT-19.png,0.4,1.2,13,0.5,,,,,,,,,,,,,,,,,,0,8,8,12,1,,,,,,,,,,,,,,,,,,,,,,,
,,,,,V1_028,18,Female,2024-05-21_16h01.16.832,jersey_experiment_5_v1,2023.2.2,Win32,84.74576271,,,,,,,,,,,,,,,,941.9741,943.7742,943.7742,944.9857,return,0.7156,,93.359375,,,,,,FBP-YG-91.png,0.43,1.2,29,1,,,,,,,,,,,,,,,,,,0,9,9,28,1,,,,,,,,,,,,,,,,,,,,,,,
,,,,,V1_028,18,Female,2024-05-21_16h01.16.832,jersey_experiment_5_v1,2023.2.2,Win32,84.74576271,,,,,,,,,,,,,,,,944.9858,946.7859,946.7859,949.233,return,0.6411,,32.94270833,,,,,,FBP-RB-17.png,0.37,1.2,47,1,,,,,,,,,,,,,,,,,,0,10,10,46,1,,,,,,,,,,,,,,,,,,,,,,,
,,,,,V1_028,18,Female,2024-05-21_16h01.16.832,jersey_experiment_5_v1,2023.2.2,Win32,84.74576271,,,,,,,,,,,,,,,,949.2332,951.0331,951.0332,952.68,return,0.7873,,17.70833333,,,,,,FBP-RB-17.png,0.35,1.2,46,1,,,,,,,,,,,,,,,,,,0,11,11,45,1,,,,,,,,,,,,,,,,,,,,,,,
,,,,,V1_028,18,Female,2024-05-21_16h01.16.832,jersey_experiment_5_v1,2023.2.2,Win32,84.74576271,,,,,,,,,,,,,,,,952.6801,953.9743,953.9743,955.8452,return,0.7071,,7.291666667,,,,,,FBP-PT-18.png,0.35,1.2,6,0.5,,,,,,,,,,,,,,,,,,0,12,12,5,1,,,,,,,,,,,,,,,,,,,,,,,
,,,,,V1_028,18,Female,2024-05-21_16h01.16.832,jersey_experiment_5_v1,2023.2.2,Win32,84.74576271,,,,,,,,,,,,,,,,955.8455,957.6452,957.6452,959.5039,return,0.7138,,6.119791667,,,,,,FBP-OG-71.png,0.37,1.2,32,1,,,,,,,,,,,,,,,,,,0,13,13,31,1,,,,,,,,,,,,,,,,,,,,,,,
,,,,,V1_028,18,Female,2024-05-21_16h01.16.832,jersey_experiment_5_v1,2023.2.2,Win32,84.74576271,,,,,,,,,,,,,,,,959.5041,961.3043,961.3043,963.7512,return,0.6601,,63.02083333,,,,,,FBP-YG-71.png,0.35,1.2,16,1,,,,,,,,,,,,,,,,,,0,14,14,15,1,,,,,,,,,,,,,,,,,,,,,,,
,,,,,V1_028,18,Female,2024-05-21_16h01.16.832,jersey_experiment_5_v1,2023.2.2,Win32,84.74576271,,,,,,,,,,,,,,,,963.7514,965.5511,965.5511,967.5748,return,0.6835,,22.13541667,,,,,,FBP-OG-91.png,0.37,1.2,42,1,,,,,,,,,,,,,,,,,,0,15,15,41,1,,,,,,,,,,,,,,,,,,,,,,,
,,,,,V1_028,18,Female,2024-05-21_16h01.16.832,jersey_experiment_5_v1,2023.2.2,Win32,84.74576271,,,,,,,,,,,,,,,,967.5749,969.3751,969.3751,970.975,return,0.7126,,91.27604167,,,,,,FBP-YG-81.png,0.4,1.2,23,1,,,,,,,,,,,,,,,,,,0,16,16,22,1,,,,,,,,,,,,,,,,,,,,,,,
,,,,,V1_028,18,Female,2024-05-21_16h01.16.832,jersey_experiment_5_v1,2023.2.2,Win32,84.74576271,,,,,,,,,,,,,,,,970.975,972.7751,972.7751,974.1633,return,0.7105,,96.35416667,,,,,,FBP-OG-81.png,0.4,1.2,38,1,,,,,,,,,,,,,,,,,,0,17,17,37,1,,,,,,,,,,,,,,,,,,,,,,,
,,,,,V1_028,18,Female,2024-05-21_16h01.16.832,jersey_experiment_5_v1,2023.2.2,Win32,84.74576271,,,,,,,,,,,,,,,,974.1634,975.9635,975.9635,977.8928,return,0.7441,,76.43229167,,,,,,FBP-OG-71.png,0.43,1.2,34,1,,,,,,,,,,,,,,,,,,0,18,18,33,1,,,,,,,,,,,,,,,,,,,,,,,
,,,,,V1_028,18,Female,2024-05-21_16h01.16.832,jersey_experiment_5_v1,2023.2.2,Win32,84.74576271,,,,,,,,,,,,,,,,977.8931,979.187,979.1871,981.7987,return,0.8607,,92.44791667,,,,,,FBP-PT-19.png,0.45,1.2,15,0.5,,,,,,,,,,,,,,,,,,0,19,19,14,1,,,,,,,,,,,,,,,,,,,,,,,
,,,,,V1_028,18,Female,2024-05-21_16h01.16.832,jersey_experiment_5_v1,2023.2.2,Win32,84.74576271,,,,,,,,,,,,,,,,981.799,983.5988,983.5989,984.9518,return,0.8847,,92.44791667,,,,,,FBP-RB-19.png,0.45,1.2,60,1,,,,,,,,,,,,,,,,,,0,20,20,59,1,,,,,,,,,,,,,,,,,,,,,,,
,,,,,V1_028,18,Female,2024-05-21_16h01.16.832,jersey_experiment_5_v1,2023.2.2,Win32,84.74576271,,,,,,,,,,,,,,,,984.9521,986.7519,986.7519,988.1286,return,0.8062,,92.44791667,,,,,,FBP-YG-81.png,0.37,1.2,22,1,,,,,,,,,,,,,,,,,,0,21,21,21,1,,,,,,,,,,,,,,,,,,,,,,,
,,,,,V1_028,18,Female,2024-05-21_16h01.16.832,jersey_experiment_5_v1,2023.2.2,Win32,84.74576271,,,,,,,,,,,,,,,,988.1288,989.9289,989.9289,991.9286,return,0.8474,,4.817708333,,,,,,FBP-OG-71.png,0.35,1.2,31,1,,,,,,,,,,,,,,,,,,0,22,22,30,1,,,,,,,,,,,,,,,,,,,,,,,
,,,,,V1_028,18,Female,2024-05-21_16h01.16.832,jersey_experiment_5_v1,2023.2.2,Win32,84.74576271,,,,,,,,,,,,,,,,991.9288,993.7288,993.7289,996.1169,return,1.0006,,94.40104167,,,,,,FBP-OG-71.png,0.45,1.2,35,1,,,,,,,,,,,,,,,,,,0,23,23,34,1,,,,,,,,,,,,,,,,,,,,,,,
,,,,,V1_028,18,Female,2024-05-21_16h01.16.832,jersey_experiment_5_v1,2023.2.2,Win32,84.74576271,,,,,,,,,,,,,,,,996.1172,997.4111,997.4111,999.1995,return,0.7143,,73.046875,,,,,,FBP-PT-17.png,0.4,1.2,3,0.5,,,,,,,,,,,,,,,,,,0,24,24,2,1,,,,,,,,,,,,,,,,,,,,,,,
,,,,,V1_028,18,Female,2024-05-21_16h01.16.832,jersey_experiment_5_v1,2023.2.2,Win32,84.74576271,,,,,,,,,,,,,,,,999.1998,1000.9998,1000.9998,1003.235,return,1.4615,,90.49479167,,,,,,FBP-YG-91.png,0.45,1.2,30,1,,,,,,,,,,,,,,,,,,0,25,25,29,1,,,,,,,,,,,,,,,,,,,,,,,
,,,,,V1_028,18,Female,2024-05-21_16h01.16.832,jersey_experiment_5_v1,2023.2.2,Win32,84.74576271,,,,,,,,,,,,,,,,1003.2353,1005.0349,1005.0349,1006.9527,return,0.6349,,23.828125,,,,,,FBP-RB-18.png,0.37,1.2,52,1,,,,,,,,,,,,,,,,,,0,26,26,51,1,,,,,,,,,,,,,,,,,,,,,,,
,,,,,V1_028,18,Female,2024-05-21_16h01.16.832,jersey_experiment_5_v1,2023.2.2,Win32,84.74576271,,,,,,,,,,,,,,,,1006.953,1008.7527,1008.7527,1010.9294,return,0.842,,46.22395833,,,,,,FBP-YG-91.png,0.35,1.2,26,1,,,,,,,,,,,,,,,,,,0,27,27,25,1,,,,,,,,,,,,,,,,,,,,,,,
,,,,,V1_028,18,Female,2024-05-21_16h01.16.832,jersey_experiment_5_v1,2023.2.2,Win32,84.74576271,,,,,,,,,,,,,,,,1010.9296,1012.2235,1012.2235,1014.6825,return,1.2331,,65.625,,,,,,FBP-PT-17.png,0.37,1.2,2,0.5,,,,,,,,,,,,,,,,,,0,28,28,1,1,,,,,,,,,,,,,,,,,,,,,,,
,,,,,V1_028,18,Female,2024-05-21_16h01.16.832,jersey_experiment_5_v1,2023.2.2,Win32,84.74576271,,,,,,,,,,,,,,,,1014.6827,1016.4824,1016.4825,1018.353,return,0.9811,,65.88541667,,,,,,FBP-RB-18.png,0.4,1.2,53,1,,,,,,,,,,,,,,,,,,0,29,29,52,1,,,,,,,,,,,,,,,,,,,,,,,
,,,,,V1_028,18,Female,2024-05-21_16h01.16.832,jersey_experiment_5_v1,2023.2.2,Win32,84.74576271,,,,,,,,,,,,,,,,1018.3532,1019.6471,1019.6471,1021.9415,return,0.6358,,50.91145833,,,,,,FBP-PT-17.png,0.45,1.2,5,0.5,,,,,,,,,,,,,,,,,,0,30,30,4,1,,,,,,,,,,,,,,,,,,,,,,,
,,,,,V1_028,18,Female,2024-05-21_16h01.16.832,jersey_experiment_5_v1,2023.2.2,Win32,84.74576271,,,,,,,,,,,,,,,,1021.9417,1023.7417,1023.7417,1025.6473,return,0.7716,,7.03125,,,,,,FBP-OG-91.png,0.35,1.2,41,1,,,,,,,,,,,,,,,,,,0,31,31,40,1,,,,,,,,,,,,,,,,,,,,,,,
,,,,,V1_028,18,Female,2024-05-21_16h01.16.832,jersey_experiment_5_v1,2023.2.2,Win32,84.74576271,,,,,,,,,,,,,,,,1025.6475,1027.4476,1027.4476,1030.6711,return,0.7603,,95.83333333,,,,,,FBP-RB-18.png,0.45,1.2,55,1,,,,,,,,,,,,,,,,,,0,32,32,54,1,,,,,,,,,,,,,,,,,,,,,,,
,,,,,V1_028,18,Female,2024-05-21_16h01.16.832,jersey_experiment_5_v1,2023.2.2,Win32,84.74576271,,,,,,,,,,,,,,,,1030.6713,1032.4713,1032.4713,1034.3301,return,0.7391,,46.484375,,,,,,FBP-OG-81.png,0.37,1.2,37,1,,,,,,,,,,,,,,,,,,0,33,33,36,1,,,,,,,,,,,,,,,,,,,,,,,
,,,,,V1_028,18,Female,2024-05-21_16h01.16.832,jersey_experiment_5_v1,2023.2.2,Win32,84.74576271,,,,,,,,,,,,,,,,1034.3302,1036.1304,1036.1305,1037.3655,return,0.6609,,18.48958333,,,,,,FBP-YG-71.png,0.37,1.2,17,1,,,,,,,,,,,,,,,,,,0,34,34,16,1,,,,,,,,,,,,,,,,,,,,,,,
,,,,,V1_028,18,Female,2024-05-21_16h01.16.832,jersey_experiment_5_v1,2023.2.2,Win32,84.74576271,,,,,,,,,,,,,,,,1037.3656,1039.1657,1039.1657,1040.8362,return,0.6369,,11.328125,,,,,,FBP-OG-81.png,0.35,1.2,36,1,,,,,,,,,,,,,,,,,,0,35,35,35,1,,,,,,,,,,,,,,,,,,,,,,,
,,,,,V1_028,18,Female,2024-05-21_16h01.16.832,jersey_experiment_5_v1,2023.2.2,Win32,84.74576271,,,,,,,,,,,,,,,,1040.8365,1042.6364,1042.6365,1044.2128,return,0.6486,,95.96354167,,,,,,FBP-YG-81.png,0.45,1.2,25,1,,,,,,,,,,,,,,,,,,0,36,36,24,1,,,,,,,,,,,,,,,,,,,,,,,
,,,,,V1_028,18,Female,2024-05-21_16h01.16.832,jersey_experiment_5_v1,2023.2.2,Win32,84.74576271,,,,,,,,,,,,,,,,1044.2131,1046.013,1046.013,1048.2955,return,0.5173,,94.140625,,,,,,FBP-OG-91.png,0.43,1.2,44,1,,,,,,,,,,,,,,,,,,0,37,37,43,1,,,,,,,,,,,,,,,,,,,,,,,
,,,,,V1_028,18,Female,2024-05-21_16h01.16.832,jersey_experiment_5_v1,2023.2.2,Win32,84.74576271,,,,,,,,,,,,,,,,1048.2957,1050.0954,1050.0955,1051.1544,return,0.1465,,85.9375,,,,,,FBP-RB-17.png,0.43,1.2,49,1,,,,,,,,,,,,,,,,,,0,38,38,48,1,,,,,,,,,,,,,,,,,,,,,,,
,,,,,V1_028,18,Female,2024-05-21_16h01.16.832,jersey_experiment_5_v1,2023.2.2,Win32,84.74576271,,,,,,,,,,,,,,,,1051.1546,1052.4484,1052.4484,1054.3426,return,0.1551,,69.66145833,,,,,,FBP-PT-18.png,0.43,1.2,9,0.5,,,,,,,,,,,,,,,,,,0,39,39,8,1,,,,,,,,,,,,,,,,,,,,,,,
,,,,,V1_028,18,Female,2024-05-21_16h01.16.832,jersey_experiment_5_v1,2023.2.2,Win32,84.74576271,,,,,,,,,,,,,,,,1054.3427,1055.6369,1055.6369,1058.0251,return,0.094,,9.505208333,,,,,,FBP-PT-17.png,0.35,1.2,1,0.5,,,,,,,,,,,,,,,,,,0,40,40,0,1,,,,,,,,,,,,,,,,,,,,,,,
,,,,,V1_028,18,Female,2024-05-21_16h01.16.832,jersey_experiment_5_v1,2023.2.2,Win32,84.74576271,,,,,,,,,,,,,,,,1058.0254,1059.8252,1059.8252,1061.99,return,0.1789,,15.75520833,,,,,,FBP-RB-19.png,0.35,1.2,56,1,,,,,,,,,,,,,,,,,,0,41,41,55,1,,,,,,,,,,,,,,,,,,,,,,,
,,,,,V1_028,18,Female,2024-05-21_16h01.16.832,jersey_experiment_5_v1,2023.2.2,Win32,84.74576271,,,,,,,,,,,,,,,,1061.9902,1063.2841,1063.2841,1064.2492,return,0.1181,,6.901041667,,,,,,FBP-PT-18.png,0.37,1.2,7,0.5,,,,,,,,,,,,,,,,,,0,42,42,6,1,,,,,,,,,,,,,,,,,,,,,,,
,,,,,V1_028,18,Female,2024-05-21_16h01.16.832,jersey_experiment_5_v1,2023.2.2,Win32,84.74576271,,,,,,,,,,,,,,,,1064.2494,1066.0491,1066.0491,1066.8843,return,0.167,,77.47395833,,,,,,FBP-YG-71.png,0.4,1.2,18,1,,,,,,,,,,,,,,,,,,0,43,43,17,1,,,,,,,,,,,,,,,,,,,,,,,
,,,,,V1_028,18,Female,2024-05-21_16h01.16.832,jersey_experiment_5_v1,2023.2.2,Win32,84.74576271,,,,,,,,,,,,,,,,1066.8844,1068.6844,1068.6844,1069.3432,return,0.206,,89.58333333,,,,,,FBP-RB-19.png,0.43,1.2,59,1,,,,,,,,,,,,,,,,,,0,44,44,58,1,,,,,,,,,,,,,,,,,,,,,,,
,,,,,V1_028,18,Female,2024-05-21_16h01.16.832,jersey_experiment_5_v1,2023.2.2,Win32,84.74576271,,,,,,,,,,,,,,,,1069.3433,1071.1434,1071.1434,1073.202,return,1.3705,,94.53125,,,,,,FBP-RB-18.png,0.43,1.2,54,1,,,,,,,,,,,,,,,,,,0,45,45,53,1,,,,,,,,,,,,,,,,,,,,,,,
,,,,,V1_028,18,Female,2024-05-21_16h01.16.832,jersey_experiment_5_v1,2023.2.2,Win32,84.74576271,,,,,,,,,,,,,,,,1073.2023,1075.0022,1075.0022,1077.6375,return,1.8493,,95.83333333,,,,,,FBP-YG-71.png,0.45,1.2,20,1,,,,,,,,,,,,,,,,,,0,46,46,19,1,,,,,,,,,,,,,,,,,,,,,,,
,,,,,V1_028,18,Female,2024-05-21_16h01.16.832,jersey_experiment_5_v1,2023.2.2,Win32,84.74576271,,,,,,,,,,,,,,,,1077.6376,1078.9317,1078.9317,1081.0024,return,1.2475,,93.22916667,,,,,,FBP-PT-18.png,0.45,1.2,10,0.5,,,,,,,,,,,,,,,,,,0,47,47,9,1,,,,,,,,,,,,,,,,,,,,,,,
,,,,,V1_028,18,Female,2024-05-21_16h01.16.832,jersey_experiment_5_v1,2023.2.2,Win32,84.74576271,,,,,,,,,,,,,,,,1081.0026,1082.8026,1082.8026,1084.5202,return,1.0355,,87.76041667,,,,,,FBP-RB-17.png,0.4,1.2,48,1,,,,,,,,,,,,,,,,,,0,48,48,47,1,,,,,,,,,,,,,,,,,,,,,,,
,,,,,V1_028,18,Female,2024-05-21_16h01.16.832,jersey_experiment_5_v1,2023.2.2,Win32,84.74576271,,,,,,,,,,,,,,,,1084.5205,1085.8143,1085.8143,1087.7438,return,0.7241,,6.901041667,,,,,,FBP-PT-19.png,0.37,1.2,12,0.5,,,,,,,,,,,,,,,,,,0,49,49,11,1,,,,,,,,,,,,,,,,,,,,,,,
,,,,,V1_028,18,Female,2024-05-21_16h01.16.832,jersey_experiment_5_v1,2023.2.2,Win32,84.74576271,,,,,,,,,,,,,,,,1087.744,1089.0379,1089.0379,1090.944,return,0.7007,,66.796875,,,,,,FBP-PT-17.png,0.43,1.2,4,0.5,,,,,,,,,,,,,,,,,,0,50,50,3,1,,,,,,,,,,,,,,,,,,,,,,,
,,,,,V1_028,18,Female,2024-05-21_16h01.16.832,jersey_experiment_5_v1,2023.2.2,Win32,84.74576271,,,,,,,,,,,,,,,,1090.9442,1092.7442,1092.7442,1094.8029,return,1.0037,,31.38020833,,,,,,FBP-OG-71.png,0.4,1.2,33,1,,,,,,,,,,,,,,,,,,0,51,51,32,1,,,,,,,,,,,,,,,,,,,,,,,
,,,,,V1_028,18,Female,2024-05-21_16h01.16.832,jersey_experiment_5_v1,2023.2.2,Win32,84.74576271,,,,,,,,,,,,,,,,1094.803,1096.6032,1096.6032,1098.4029,return,0.814,,82.29166667,,,,,,FBP-OG-81.png,0.45,1.2,40,1,,,,,,,,,,,,,,,,,,0,52,52,39,1,,,,,,,,,,,,,,,,,,,,,,,
,,,,,V1_028,18,Female,2024-05-21_16h01.16.832,jersey_experiment_5_v1,2023.2.2,Win32,84.74576271,,,,,,,,,,,,,,,,1098.4031,1099.6972,1099.6972,1111.4506,return,0.8833,,82.29166667,,,,,,FBP-PT-18.png,0.4,1.2,8,0.5,,,,,,,,,,,,,,,,,,0,53,53,7,1,,,,,,,,,,,,,,,,,,,,,,,
,,,,,V1_028,18,Female,2024-05-21_16h01.16.832,jersey_experiment_5_v1,2023.2.2,Win32,84.74576271,,,,,,,,,,,,,,,,1111.4508,1113.2505,1113.2505,1115.0154,return,0.8944,,95.57291667,,,,,,FBP-RB-19.png,0.37,1.2,57,1,,,,,,,,,,,,,,,,,,0,54,54,56,1,,,,,,,,,,,,,,,,,,,,,,,
,,,,,V1_028,18,Female,2024-05-21_16h01.16.832,jersey_experiment_5_v1,2023.2.2,Win32,84.74576271,,,,,,,,,,,,,,,,1115.0157,1116.3094,1116.3094,1118.0038,return,0.8036,,95.57291667,,,,,,FBP-PT-19.png,0.43,1.2,14,0.5,,,,,,,,,,,,,,,,,,0,55,55,13,1,,,,,,,,,,,,,,,,,,,,,,,
,,,,,V1_028,18,Female,2024-05-21_16h01.16.832,jersey_experiment_5_v1,2023.2.2,Win32,84.74576271,,,,,,,,,,,,,,,,1118.004,1119.804,1119.804,1121.1215,return,0.7002,,61.71875,,,,,,FBP-RB-19.png,0.4,1.2,58,1,,,,,,,,,,,,,,,,,,0,56,56,57,1,,,,,,,,,,,,,,,,,,,,,,,
,,,,,V1_028,18,Female,2024-05-21_16h01.16.832,jersey_experiment_5_v1,2023.2.2,Win32,84.74576271,,,,,,,,,,,,,,,,1121.1217,1122.9217,1122.9217,1124.3099,return,0.7414,,83.984375,,,,,,FBP-RB-17.png,0.45,1.2,50,1,,,,,,,,,,,,,,,,,,0,57,57,49,1,,,,,,,,,,,,,,,,,,,,,,,
,,,,,V1_028,18,Female,2024-05-21_16h01.16.832,jersey_experiment_5_v1,2023.2.2,Win32,84.74576271,,,,,,,,,,,,,,,,1124.3101,1126.11,1126.1101,1127.2628,return,0.7132,,86.71875,,,,,,FBP-OG-91.png,0.45,1.2,45,1,,,,,,,,,,,,,,,,,,0,58,58,44,1,,,,,,,,,,,,,,,,,,,,,,,
,,,,,V1_028,18,Female,2024-05-21_16h01.16.832,jersey_experiment_5_v1,2023.2.2,Win32,84.74576271,,,,,,,,,,,,,,,,1127.2631,1129.063,1129.063,1130.6394,return,0.7374,,31.11979167,,,,,,FBP-OG-91.png,0.4,1.2,43,1,,,,,,,,,,,,,,,,,,0,59,59,42,1,,,,,,,,,,,,,,,,,,,,,,,
,,,,,V1_028,18,Female,2024-05-21_16h01.16.832,jersey_experiment_5_v1,2023.2.2,Win32,84.74576271,,,,,,,,,,,,,,,,,,,,,,,,,,,,,,,,,,,,,,,,,,,,,,,,,,,,,,,,1130.6398,1136.4047,return,5.7549,,,,,,,,,,,,,,,,,,,
,,,,,V1_028,18,Female,2024-05-21_16h01.16.832,jersey_experiment_5_v1,2023.2.2,Win32,84.74576271,,,,,,,,,,,,,,,,,,,,,,,,,,,,,,,,,,,,,,,,,,,,,,,,,,,,,,,,,,,,,1136.4049,1140.8634,1,3.1574,return,1.2903,,,,,,,,,,,,
,,,,,V1_028,18,Female,2024-05-21_16h01.16.832,jersey_experiment_5_v1,2023.2.2,Win32,84.74576271,,,,,,,,,,,,,,,,,,,,,,,,,,,,,,,,,,,,,,,,,,,,,,,,,,,,,,,,,,,,,,,,,,,,1140.8635,1189.9878,"no idea what study is about, probably to see how people are subjective to body image/ i recognized paterns of outfits and skin color",right,43.2197,,,,,,
,,,,,V1_028,18,Female,2024-05-21_16h01.16.832,jersey_experiment_5_v1,2023.2.2,Win32,84.74576271,,,,,,,,,,,,,,,,,,,,,,,,,,,,,,,,,,,,,,,,,,,,,,,,,,,,,,,,,,,,,,,,,,,,,,,,,,1189.9879,1195.1713,return,5.1743,