requirements.started,requirements.stopped,key_resp_3.keys,key_resp_3.rt,key_resp_3.duration,Subject ID,Age,Gender,date,expName,psychopyVersion,OS,frameRate,instructions1.started,instructions1.stopped,key_resp.keys,key_resp.rt,key_resp.duration,example.started,example.stopped,enter_2.keys,enter_2.rt,enter_2.duration,instructions2.started,instructions2.stopped,enter_3.keys,enter_3.rt,enter_3.duration,image.started,image.stopped,slider_2.started,slider_2.stopped,next.keys,next.rt,next.duration,slider.response,trial_block_1.thisRepN,trial_block_1.thisTrialN,trial_block_1.thisN,trial_block_1.thisIndex,trial_block_1.ran,Path,Width,Height,Index,Duration,trial_block_2.thisRepN,trial_block_2.thisTrialN,trial_block_2.thisN,trial_block_2.thisIndex,trial_block_2.ran,rest_break.started,rest_break.stopped,end_break.started,end_break.stopped,key_resp_5.keys,key_resp_5.rt,key_resp_5.duration,trial_block_3.thisRepN,trial_block_3.thisTrialN,trial_block_3.thisN,trial_block_3.thisIndex,trial_block_3.ran,trial_block_4.thisRepN,trial_block_4.thisTrialN,trial_block_4.thisN,trial_block_4.thisIndex,trial_block_4.ran,questions_intro.started,questions_intro.stopped,enter_12.keys,enter_12.rt,enter_12.duration,question2.started,question2.stopped,question_doingbest.response,question_doingbest.rt,enter_15.keys,enter_15.rt,enter_15.duration,pattern.started,pattern.stopped,pattern_2.text,enter_17.keys,enter_17.rt,enter_17.duration,thankyou.started,thankyou.stopped,enter_14.keys,enter_14.rt,enter_14.duration
0.0001,12.9592,return,12.9523,,V1_015,22,Female,2024-05-14_16h37.32.105,jersey_experiment_5_v1,2023.2.2,Win32,85.47008547,,,,,,,,,,,,,,,,,,,,,,,,,,,,,,,,,,,,,,,,,,,,,,,,,,,,,,,,,,,,,,,,,,,,,,,,,,,,,,
,,,,,V1_015,22,Female,2024-05-14_16h37.32.105,jersey_experiment_5_v1,2023.2.2,Win32,85.47008547,12.9593,44.0297,return,31.0635,,,,,,,,,,,,,,,,,,,,,,,,,,,,,,,,,,,,,,,,,,,,,,,,,,,,,,,,,,,,,,,,,,,,,,,,,,
,,,,,V1_015,22,Female,2024-05-14_16h37.32.105,jersey_experiment_5_v1,2023.2.2,Win32,85.47008547,,,,,,44.0298,49.2532,return,5.1899,,,,,,,,,,,,,,,,,,,,,,,,,,,,,,,,,,,,,,,,,,,,,,,,,,,,,,,,,,,,,,,,,,,,,
,,,,,V1_015,22,Female,2024-05-14_16h37.32.105,jersey_experiment_5_v1,2023.2.2,Win32,85.47008547,,,,,,,,,,,49.2533,66.5597,return,17.2968,,,,,,,,,,,,,,,,,,,,,,,,,,,,,,,,,,,,,,,,,,,,,,,,,,,,,,,,,,,,,,,,
,,,,,V1_015,22,Female,2024-05-14_16h37.32.105,jersey_experiment_5_v1,2023.2.2,Win32,85.47008547,,,,,,,,,,,,,,,,66.5667,67.8657,67.8657,78.572,return,2.994,,24.609375,0,0,0,37,1,FBP-OG-18.png,0.4,1.2,38,0.5,,,,,,,,,,,,,,,,,,,,,,,,,,,,,,,,,,,,,,,,,,,,,
,,,,,V1_015,22,Female,2024-05-14_16h37.32.105,jersey_experiment_5_v1,2023.2.2,Win32,85.47008547,,,,,,,,,,,,,,,,78.5763,79.8776,79.8776,81.8069,return,0.451,,25.390625,0,1,1,21,1,FBP-YG-18.png,0.37,1.2,22,0.5,,,,,,,,,,,,,,,,,,,,,,,,,,,,,,,,,,,,,,,,,,,,,
,,,,,V1_015,22,Female,2024-05-14_16h37.32.105,jersey_experiment_5_v1,2023.2.2,Win32,85.47008547,,,,,,,,,,,,,,,,81.8073,83.1012,83.1012,85.1718,return,0.1517,,25.13020833,0,2,2,15,1,FBP-YG-17.png,0.35,1.2,16,0.5,,,,,,,,,,,,,,,,,,,,,,,,,,,,,,,,,,,,,,,,,,,,,
,,,,,V1_015,22,Female,2024-05-14_16h37.32.105,jersey_experiment_5_v1,2023.2.2,Win32,85.47008547,,,,,,,,,,,,,,,,85.1721,86.4659,86.466,90.7957,return,0.4165,,56.11979167,0,3,3,29,1,FBP-YG-19.png,0.45,1.2,30,0.5,,,,,,,,,,,,,,,,,,,,,,,,,,,,,,,,,,,,,,,,,,,,,
,,,,,V1_015,22,Female,2024-05-14_16h37.32.105,jersey_experiment_5_v1,2023.2.2,Win32,85.47008547,,,,,,,,,,,,,,,,90.7958,92.5957,92.5958,94.1721,return,0.1833,,62.890625,0,4,4,13,1,FBP-PT-91.png,0.43,1.2,14,1,,,,,,,,,,,,,,,,,,,,,,,,,,,,,,,,,,,,,,,,,,,,,
,,,,,V1_015,22,Female,2024-05-14_16h37.32.105,jersey_experiment_5_v1,2023.2.2,Win32,85.47008547,,,,,,,,,,,,,,,,94.1724,95.9721,95.9721,98.643,return,1.7664,,74.73958333,0,5,5,9,1,FBP-PT-81.png,0.45,1.2,10,1,,,,,,,,,,,,,,,,,,,,,,,,,,,,,,,,,,,,,,,,,,,,,
,,,,,V1_015,22,Female,2024-05-14_16h37.32.105,jersey_experiment_5_v1,2023.2.2,Win32,85.47008547,,,,,,,,,,,,,,,,98.6432,99.9371,99.9371,104.1962,return,0.4135,,16.66666667,0,6,6,55,1,FBP-RB-91.png,0.35,1.2,56,0.5,,,,,,,,,,,,,,,,,,,,,,,,,,,,,,,,,,,,,,,,,,,,,
,,,,,V1_015,22,Female,2024-05-14_16h37.32.105,jersey_experiment_5_v1,2023.2.2,Win32,85.47008547,,,,,,,,,,,,,,,,104.1964,105.4902,105.4903,106.961,return,0.2232,,25.26041667,0,7,7,46,1,FBP-RB-71.png,0.37,1.2,47,0.5,,,,,,,,,,,,,,,,,,,,,,,,,,,,,,,,,,,,,,,,,,,,,
,,,,,V1_015,22,Female,2024-05-14_16h37.32.105,jersey_experiment_5_v1,2023.2.2,Win32,85.47008547,,,,,,,,,,,,,,,,106.9612,108.255,108.255,112.6082,return,1.4008,,64.19270833,0,8,8,54,1,FBP-RB-81.png,0.45,1.2,55,0.5,,,,,,,,,,,,,,,,,,,,,,,,,,,,,,,,,,,,,,,,,,,,,
,,,,,V1_015,22,Female,2024-05-14_16h37.32.105,jersey_experiment_5_v1,2023.2.2,Win32,85.47008547,,,,,,,,,,,,,,,,112.6085,113.9022,113.9022,116.6671,return,0.0287,,72.52604167,0,9,9,34,1,FBP-OG-17.png,0.45,1.2,35,0.5,,,,,,,,,,,,,,,,,,,,,,,,,,,,,,,,,,,,,,,,,,,,,
,,,,,V1_015,22,Female,2024-05-14_16h37.32.105,jersey_experiment_5_v1,2023.2.2,Win32,85.47008547,,,,,,,,,,,,,,,,116.6673,117.9613,117.9613,118.9612,return,0.2137,,71.35416667,0,10,10,33,1,FBP-OG-17.png,0.43,1.2,34,0.5,,,,,,,,,,,,,,,,,,,,,,,,,,,,,,,,,,,,,,,,,,,,,
,,,,,V1_015,22,Female,2024-05-14_16h37.32.105,jersey_experiment_5_v1,2023.2.2,Win32,85.47008547,,,,,,,,,,,,,,,,118.9614,120.2554,120.2554,121.4555,return,0.0133,,26.171875,0,11,11,20,1,FBP-YG-18.png,0.35,1.2,21,0.5,,,,,,,,,,,,,,,,,,,,,,,,,,,,,,,,,,,,,,,,,,,,,
,,,,,V1_015,22,Female,2024-05-14_16h37.32.105,jersey_experiment_5_v1,2023.2.2,Win32,85.47008547,,,,,,,,,,,,,,,,121.4557,122.7497,122.7497,124.3144,return,0.0769,,29.296875,0,12,12,45,1,FBP-RB-71.png,0.35,1.2,46,0.5,,,,,,,,,,,,,,,,,,,,,,,,,,,,,,,,,,,,,,,,,,,,,
,,,,,V1_015,22,Female,2024-05-14_16h37.32.105,jersey_experiment_5_v1,2023.2.2,Win32,85.47008547,,,,,,,,,,,,,,,,124.3146,125.6089,125.6089,127.0912,return,0.0945,,27.86458333,0,13,13,50,1,FBP-RB-81.png,0.35,1.2,51,0.5,,,,,,,,,,,,,,,,,,,,,,,,,,,,,,,,,,,,,,,,,,,,,
,,,,,V1_015,22,Female,2024-05-14_16h37.32.105,jersey_experiment_5_v1,2023.2.2,Win32,85.47008547,,,,,,,,,,,,,,,,127.0915,128.3851,128.3851,129.5383,return,0.0465,,75.78125,0,14,14,23,1,FBP-YG-18.png,0.43,1.2,24,0.5,,,,,,,,,,,,,,,,,,,,,,,,,,,,,,,,,,,,,,,,,,,,,
,,,,,V1_015,22,Female,2024-05-14_16h37.32.105,jersey_experiment_5_v1,2023.2.2,Win32,85.47008547,,,,,,,,,,,,,,,,129.5386,130.8325,130.8326,133.3972,return,0.0608,,21.35416667,0,15,15,30,1,FBP-OG-17.png,0.35,1.2,31,0.5,,,,,,,,,,,,,,,,,,,,,,,,,,,,,,,,,,,,,,,,,,,,,
,,,,,V1_015,22,Female,2024-05-14_16h37.32.105,jersey_experiment_5_v1,2023.2.2,Win32,85.47008547,,,,,,,,,,,,,,,,133.3974,135.1973,135.1973,136.1268,return,0.0495,,24.08854167,0,16,16,10,1,FBP-PT-91.png,0.35,1.2,11,1,,,,,,,,,,,,,,,,,,,,,,,,,,,,,,,,,,,,,,,,,,,,,
,,,,,V1_015,22,Female,2024-05-14_16h37.32.105,jersey_experiment_5_v1,2023.2.2,Win32,85.47008547,,,,,,,,,,,,,,,,136.127,137.4208,137.4208,140.3859,return,0.8008,,43.22916667,0,17,17,17,1,FBP-YG-17.png,0.4,1.2,18,0.5,,,,,,,,,,,,,,,,,,,,,,,,,,,,,,,,,,,,,,,,,,,,,
,,,,,V1_015,22,Female,2024-05-14_16h37.32.105,jersey_experiment_5_v1,2023.2.2,Win32,85.47008547,,,,,,,,,,,,,,,,140.3861,141.6799,141.6799,142.7622,return,0.1719,,49.47916667,0,18,18,57,1,FBP-RB-91.png,0.4,1.2,58,0.5,,,,,,,,,,,,,,,,,,,,,,,,,,,,,,,,,,,,,,,,,,,,,
,,,,,V1_015,22,Female,2024-05-14_16h37.32.105,jersey_experiment_5_v1,2023.2.2,Win32,85.47008547,,,,,,,,,,,,,,,,142.7624,144.0563,144.0563,145.2682,return,0.1411,,50.26041667,0,19,19,51,1,FBP-RB-81.png,0.37,1.2,52,0.5,,,,,,,,,,,,,,,,,,,,,,,,,,,,,,,,,,,,,,,,,,,,,
,,,,,V1_015,22,Female,2024-05-14_16h37.32.105,jersey_experiment_5_v1,2023.2.2,Win32,85.47008547,,,,,,,,,,,,,,,,145.2683,147.0684,147.0684,149.2802,return,0.2264,,67.31770833,0,20,20,3,1,FBP-PT-71.png,0.43,1.2,4,1,,,,,,,,,,,,,,,,,,,,,,,,,,,,,,,,,,,,,,,,,,,,,
,,,,,V1_015,22,Female,2024-05-14_16h37.32.105,jersey_experiment_5_v1,2023.2.2,Win32,85.47008547,,,,,,,,,,,,,,,,149.2803,150.5742,150.5742,153.1509,return,0.0749,,43.09895833,0,21,21,36,1,FBP-OG-18.png,0.37,1.2,37,0.5,,,,,,,,,,,,,,,,,,,,,,,,,,,,,,,,,,,,,,,,,,,,,
,,,,,V1_015,22,Female,2024-05-14_16h37.32.105,jersey_experiment_5_v1,2023.2.2,Win32,85.47008547,,,,,,,,,,,,,,,,153.151,154.445,154.445,155.5979,return,0.0858,,63.28125,0,22,22,39,1,FBP-OG-18.png,0.45,1.2,40,0.5,,,,,,,,,,,,,,,,,,,,,,,,,,,,,,,,,,,,,,,,,,,,,
,,,,,V1_015,22,Female,2024-05-14_16h37.32.105,jersey_experiment_5_v1,2023.2.2,Win32,85.47008547,,,,,,,,,,,,,,,,155.5981,156.8919,156.892,158.1628,return,0.01,,74.86979167,0,23,23,19,1,FBP-YG-17.png,0.45,1.2,20,0.5,,,,,,,,,,,,,,,,,,,,,,,,,,,,,,,,,,,,,,,,,,,,,
,,,,,V1_015,22,Female,2024-05-14_16h37.32.105,jersey_experiment_5_v1,2023.2.2,Win32,85.47008547,,,,,,,,,,,,,,,,158.163,159.4569,159.4569,160.4804,return,0.1792,,78.25520833,0,24,24,44,1,FBP-OG-19.png,0.45,1.2,45,0.5,,,,,,,,,,,,,,,,,,,,,,,,,,,,,,,,,,,,,,,,,,,,,
,,,,,V1_015,22,Female,2024-05-14_16h37.32.105,jersey_experiment_5_v1,2023.2.2,Win32,85.47008547,,,,,,,,,,,,,,,,160.4806,162.2805,162.2805,165.2806,return,0.1321,,51.82291667,0,25,25,0,1,FBP-PT-71.png,0.35,1.2,1,1,,,,,,,,,,,,,,,,,,,,,,,,,,,,,,,,,,,,,,,,,,,,,
,,,,,V1_015,22,Female,2024-05-14_16h37.32.105,jersey_experiment_5_v1,2023.2.2,Win32,85.47008547,,,,,,,,,,,,,,,,165.2808,166.5749,166.5749,167.5043,return,0.036,,57.8125,0,26,26,58,1,FBP-RB-91.png,0.43,1.2,59,0.5,,,,,,,,,,,,,,,,,,,,,,,,,,,,,,,,,,,,,,,,,,,,,
,,,,,V1_015,22,Female,2024-05-14_16h37.32.105,jersey_experiment_5_v1,2023.2.2,Win32,85.47008547,,,,,,,,,,,,,,,,167.5045,168.7983,168.7983,170.3162,return,0.0512,,30.46875,0,27,27,26,1,FBP-YG-19.png,0.37,1.2,27,0.5,,,,,,,,,,,,,,,,,,,,,,,,,,,,,,,,,,,,,,,,,,,,,
,,,,,V1_015,22,Female,2024-05-14_16h37.32.105,jersey_experiment_5_v1,2023.2.2,Win32,85.47008547,,,,,,,,,,,,,,,,170.3164,171.6103,171.6104,173.1515,return,0.0742,,42.1875,0,28,28,41,1,FBP-OG-19.png,0.37,1.2,42,0.5,,,,,,,,,,,,,,,,,,,,,,,,,,,,,,,,,,,,,,,,,,,,,
,,,,,V1_015,22,Female,2024-05-14_16h37.32.105,jersey_experiment_5_v1,2023.2.2,Win32,85.47008547,,,,,,,,,,,,,,,,173.1517,174.4459,174.4459,175.093,return,0.0144,,50.390625,0,29,29,42,1,FBP-OG-19.png,0.4,1.2,43,0.5,,,,,,,,,,,,,,,,,,,,,,,,,,,,,,,,,,,,,,,,,,,,,
,,,,,V1_015,22,Female,2024-05-14_16h37.32.105,jersey_experiment_5_v1,2023.2.2,Win32,85.47008547,,,,,,,,,,,,,,,,175.0932,176.387,176.387,177.5165,return,0.0653,,68.48958333,0,30,30,28,1,FBP-YG-19.png,0.43,1.2,29,0.5,,,,,,,,,,,,,,,,,,,,,,,,,,,,,,,,,,,,,,,,,,,,,
,,,,,V1_015,22,Female,2024-05-14_16h37.32.105,jersey_experiment_5_v1,2023.2.2,Win32,85.47008547,,,,,,,,,,,,,,,,177.5168,179.3164,179.3164,181.2695,return,1.0589,,52.86458333,0,31,31,2,1,FBP-PT-71.png,0.4,1.2,3,1,,,,,,,,,,,,,,,,,,,,,,,,,,,,,,,,,,,,,,,,,,,,,
,,,,,V1_015,22,Female,2024-05-14_16h37.32.105,jersey_experiment_5_v1,2023.2.2,Win32,85.47008547,,,,,,,,,,,,,,,,181.2697,182.5638,182.5638,183.7636,return,0.0946,,76.30208333,0,32,32,24,1,FBP-YG-18.png,0.45,1.2,25,0.5,,,,,,,,,,,,,,,,,,,,,,,,,,,,,,,,,,,,,,,,,,,,,
,,,,,V1_015,22,Female,2024-05-14_16h37.32.105,jersey_experiment_5_v1,2023.2.2,Win32,85.47008547,,,,,,,,,,,,,,,,183.7638,185.5638,185.5639,186.3166,return,0.0521,,69.140625,0,33,33,8,1,FBP-PT-81.png,0.43,1.2,9,1,,,,,,,,,,,,,,,,,,,,,,,,,,,,,,,,,,,,,,,,,,,,,
,,,,,V1_015,22,Female,2024-05-14_16h37.32.105,jersey_experiment_5_v1,2023.2.2,Win32,85.47008547,,,,,,,,,,,,,,,,186.3167,188.1169,188.1169,190.1874,return,0.2192,,79.94791667,0,34,34,14,1,FBP-PT-91.png,0.45,1.2,15,1,,,,,,,,,,,,,,,,,,,,,,,,,,,,,,,,,,,,,,,,,,,,,
,,,,,V1_015,22,Female,2024-05-14_16h37.32.105,jersey_experiment_5_v1,2023.2.2,Win32,85.47008547,,,,,,,,,,,,,,,,190.1877,191.4818,191.4818,192.2581,return,0.0576,,78.125,0,35,35,18,1,FBP-YG-17.png,0.43,1.2,19,0.5,,,,,,,,,,,,,,,,,,,,,,,,,,,,,,,,,,,,,,,,,,,,,
,,,,,V1_015,22,Female,2024-05-14_16h37.32.105,jersey_experiment_5_v1,2023.2.2,Win32,85.47008547,,,,,,,,,,,,,,,,192.2583,193.5523,193.5523,195.7289,return,0.0478,,52.47395833,0,36,36,31,1,FBP-OG-17.png,0.37,1.2,32,0.5,,,,,,,,,,,,,,,,,,,,,,,,,,,,,,,,,,,,,,,,,,,,,
,,,,,V1_015,22,Female,2024-05-14_16h37.32.105,jersey_experiment_5_v1,2023.2.2,Win32,85.47008547,,,,,,,,,,,,,,,,195.7291,197.0231,197.0232,198.1171,return,0.0472,,25.13020833,0,37,37,25,1,FBP-YG-19.png,0.35,1.2,26,0.5,,,,,,,,,,,,,,,,,,,,,,,,,,,,,,,,,,,,,,,,,,,,,
,,,,,V1_015,22,Female,2024-05-14_16h37.32.105,jersey_experiment_5_v1,2023.2.2,Win32,85.47008547,,,,,,,,,,,,,,,,198.1173,199.4112,199.4112,200.2819,return,0.1269,,23.69791667,0,38,38,16,1,FBP-YG-17.png,0.37,1.2,17,0.5,,,,,,,,,,,,,,,,,,,,,,,,,,,,,,,,,,,,,,,,,,,,,
,,,,,V1_015,22,Female,2024-05-14_16h37.32.105,jersey_experiment_5_v1,2023.2.2,Win32,85.47008547,,,,,,,,,,,,,,,,200.2821,202.0821,202.0821,202.7645,return,0.0419,,74.08854167,0,39,39,7,1,FBP-PT-81.png,0.4,1.2,8,1,,,,,,,,,,,,,,,,,,,,,,,,,,,,,,,,,,,,,,,,,,,,,
,,,,,V1_015,22,Female,2024-05-14_16h37.32.105,jersey_experiment_5_v1,2023.2.2,Win32,85.47008547,,,,,,,,,,,,,,,,202.7647,204.0586,204.0586,205.882,return,0.0323,,27.08333333,0,40,40,35,1,FBP-OG-18.png,0.35,1.2,36,0.5,,,,,,,,,,,,,,,,,,,,,,,,,,,,,,,,,,,,,,,,,,,,,
,,,,,V1_015,22,Female,2024-05-14_16h37.32.105,jersey_experiment_5_v1,2023.2.2,Win32,85.47008547,,,,,,,,,,,,,,,,205.8823,207.1764,207.1764,208.9646,return,0.024,,85.41666667,0,41,41,49,1,FBP-RB-71.png,0.45,1.2,50,0.5,,,,,,,,,,,,,,,,,,,,,,,,,,,,,,,,,,,,,,,,,,,,,
,,,,,V1_015,22,Female,2024-05-14_16h37.32.105,jersey_experiment_5_v1,2023.2.2,Win32,85.47008547,,,,,,,,,,,,,,,,208.9648,210.2589,210.2589,211.5413,return,0.071,,54.296875,0,42,42,47,1,FBP-RB-71.png,0.4,1.2,48,0.5,,,,,,,,,,,,,,,,,,,,,,,,,,,,,,,,,,,,,,,,,,,,,
,,,,,V1_015,22,Female,2024-05-14_16h37.32.105,jersey_experiment_5_v1,2023.2.2,Win32,85.47008547,,,,,,,,,,,,,,,,211.5414,213.3412,213.3412,214.7061,return,0.0335,,33.203125,0,43,43,6,1,FBP-PT-81.png,0.37,1.2,7,1,,,,,,,,,,,,,,,,,,,,,,,,,,,,,,,,,,,,,,,,,,,,,
,,,,,V1_015,22,Female,2024-05-14_16h37.32.105,jersey_experiment_5_v1,2023.2.2,Win32,85.47008547,,,,,,,,,,,,,,,,214.7064,216.0001,216.0001,217.0355,return,0.0544,,65.88541667,0,44,44,27,1,FBP-YG-19.png,0.4,1.2,28,0.5,,,,,,,,,,,,,,,,,,,,,,,,,,,,,,,,,,,,,,,,,,,,,
,,,,,V1_015,22,Female,2024-05-14_16h37.32.105,jersey_experiment_5_v1,2023.2.2,Win32,85.47008547,,,,,,,,,,,,,,,,217.0357,218.3298,218.3298,219.8708,return,0.0255,,65.10416667,0,45,45,32,1,FBP-OG-17.png,0.4,1.2,33,0.5,,,,,,,,,,,,,,,,,,,,,,,,,,,,,,,,,,,,,,,,,,,,,
,,,,,V1_015,22,Female,2024-05-14_16h37.32.105,jersey_experiment_5_v1,2023.2.2,Win32,85.47008547,,,,,,,,,,,,,,,,219.871,221.1651,221.1652,222.6709,return,0.1905,,76.30208333,0,46,46,53,1,FBP-RB-81.png,0.43,1.2,54,0.5,,,,,,,,,,,,,,,,,,,,,,,,,,,,,,,,,,,,,,,,,,,,,
,,,,,V1_015,22,Female,2024-05-14_16h37.32.105,jersey_experiment_5_v1,2023.2.2,Win32,85.47008547,,,,,,,,,,,,,,,,222.6711,224.4709,224.4709,225.8829,return,0.1114,,35.67708333,0,47,47,1,1,FBP-PT-71.png,0.37,1.2,2,1,,,,,,,,,,,,,,,,,,,,,,,,,,,,,,,,,,,,,,,,,,,,,
,,,,,V1_015,22,Female,2024-05-14_16h37.32.105,jersey_experiment_5_v1,2023.2.2,Win32,85.47008547,,,,,,,,,,,,,,,,225.883,227.177,227.177,228.1301,return,0.1787,,39.97395833,0,48,48,40,1,FBP-OG-19.png,0.35,1.2,41,0.5,,,,,,,,,,,,,,,,,,,,,,,,,,,,,,,,,,,,,,,,,,,,,
,,,,,V1_015,22,Female,2024-05-14_16h37.32.105,jersey_experiment_5_v1,2023.2.2,Win32,85.47008547,,,,,,,,,,,,,,,,228.1303,229.4242,229.4242,230.283,return,0.1022,,65.49479167,0,49,49,22,1,FBP-YG-18.png,0.4,1.2,23,0.5,,,,,,,,,,,,,,,,,,,,,,,,,,,,,,,,,,,,,,,,,,,,,
,,,,,V1_015,22,Female,2024-05-14_16h37.32.105,jersey_experiment_5_v1,2023.2.2,Win32,85.47008547,,,,,,,,,,,,,,,,230.2832,231.5771,231.5771,235.0244,return,2.4941,,75,0,50,50,52,1,FBP-RB-81.png,0.4,1.2,53,0.5,,,,,,,,,,,,,,,,,,,,,,,,,,,,,,,,,,,,,,,,,,,,,
,,,,,V1_015,22,Female,2024-05-14_16h37.32.105,jersey_experiment_5_v1,2023.2.2,Win32,85.47008547,,,,,,,,,,,,,,,,235.0246,236.3186,236.3186,238.0128,return,0.5695,,33.33333333,0,51,51,56,1,FBP-RB-91.png,0.37,1.2,57,0.5,,,,,,,,,,,,,,,,,,,,,,,,,,,,,,,,,,,,,,,,,,,,,
,,,,,V1_015,22,Female,2024-05-14_16h37.32.105,jersey_experiment_5_v1,2023.2.2,Win32,85.47008547,,,,,,,,,,,,,,,,238.013,239.3069,239.3069,240.9304,return,0.0611,,77.99479167,0,52,52,59,1,FBP-RB-91.png,0.45,1.2,60,0.5,,,,,,,,,,,,,,,,,,,,,,,,,,,,,,,,,,,,,,,,,,,,,
,,,,,V1_015,22,Female,2024-05-14_16h37.32.105,jersey_experiment_5_v1,2023.2.2,Win32,85.47008547,,,,,,,,,,,,,,,,240.9306,242.7304,242.7304,243.307,return,0.0197,,83.984375,0,53,53,4,1,FBP-PT-71.png,0.45,1.2,5,1,,,,,,,,,,,,,,,,,,,,,,,,,,,,,,,,,,,,,,,,,,,,,
,,,,,V1_015,22,Female,2024-05-14_16h37.32.105,jersey_experiment_5_v1,2023.2.2,Win32,85.47008547,,,,,,,,,,,,,,,,243.3072,244.6012,244.6012,245.5188,return,0.0627,,81.25,0,54,54,43,1,FBP-OG-19.png,0.43,1.2,44,0.5,,,,,,,,,,,,,,,,,,,,,,,,,,,,,,,,,,,,,,,,,,,,,
,,,,,V1_015,22,Female,2024-05-14_16h37.32.105,jersey_experiment_5_v1,2023.2.2,Win32,85.47008547,,,,,,,,,,,,,,,,245.519,247.319,247.319,247.9661,return,0.0404,,66.66666667,0,55,55,12,1,FBP-PT-91.png,0.4,1.2,13,1,,,,,,,,,,,,,,,,,,,,,,,,,,,,,,,,,,,,,,,,,,,,,
,,,,,V1_015,22,Female,2024-05-14_16h37.32.105,jersey_experiment_5_v1,2023.2.2,Win32,85.47008547,,,,,,,,,,,,,,,,247.9663,249.7663,249.7663,251.1076,return,0.0236,,26.30208333,0,56,56,11,1,FBP-PT-91.png,0.37,1.2,12,1,,,,,,,,,,,,,,,,,,,,,,,,,,,,,,,,,,,,,,,,,,,,,
,,,,,V1_015,22,Female,2024-05-14_16h37.32.105,jersey_experiment_5_v1,2023.2.2,Win32,85.47008547,,,,,,,,,,,,,,,,251.1078,252.4014,252.4015,253.6367,return,0.0944,,67.44791667,0,57,57,38,1,FBP-OG-18.png,0.43,1.2,39,0.5,,,,,,,,,,,,,,,,,,,,,,,,,,,,,,,,,,,,,,,,,,,,,
,,,,,V1_015,22,Female,2024-05-14_16h37.32.105,jersey_experiment_5_v1,2023.2.2,Win32,85.47008547,,,,,,,,,,,,,,,,253.6369,254.9311,254.9312,258.4487,return,1.2346,,52.60416667,0,58,58,48,1,FBP-RB-71.png,0.43,1.2,49,0.5,,,,,,,,,,,,,,,,,,,,,,,,,,,,,,,,,,,,,,,,,,,,,
,,,,,V1_015,22,Female,2024-05-14_16h37.32.105,jersey_experiment_5_v1,2023.2.2,Win32,85.47008547,,,,,,,,,,,,,,,,258.449,260.2488,260.2488,261.1664,return,0.1106,,30.98958333,0,59,59,5,1,FBP-PT-81.png,0.35,1.2,6,1,,,,,,,,,,,,,,,,,,,,,,,,,,,,,,,,,,,,,,,,,,,,,
,,,,,V1_015,22,Female,2024-05-14_16h37.32.105,jersey_experiment_5_v1,2023.2.2,Win32,85.47008547,,,,,,,,,,,,,,,,261.1684,262.4607,262.4607,263.3901,return,0.0756,,79.296875,,,,,,FBP-OG-71.png,0.45,1.2,35,0.5,0,0,0,34,1,,,,,,,,,,,,,,,,,,,,,,,,,,,,,,,,,,,,,,,,
,,,,,V1_015,22,Female,2024-05-14_16h37.32.105,jersey_experiment_5_v1,2023.2.2,Win32,85.47008547,,,,,,,,,,,,,,,,263.3904,264.6843,264.6843,265.4606,return,0.0574,,62.109375,,,,,,FBP-YG-91.png,0.4,1.2,28,0.5,0,1,1,27,1,,,,,,,,,,,,,,,,,,,,,,,,,,,,,,,,,,,,,,,,
,,,,,V1_015,22,Female,2024-05-14_16h37.32.105,jersey_experiment_5_v1,2023.2.2,Win32,85.47008547,,,,,,,,,,,,,,,,265.4609,267.2609,267.2609,267.7786,return,0.071,,66.27604167,,,,,,FBP-PT-18.png,0.43,1.2,9,1,0,2,2,8,1,,,,,,,,,,,,,,,,,,,,,,,,,,,,,,,,,,,,,,,,
,,,,,V1_015,22,Female,2024-05-14_16h37.32.105,jersey_experiment_5_v1,2023.2.2,Win32,85.47008547,,,,,,,,,,,,,,,,267.7789,269.0726,269.0727,272.1318,return,0.1652,,34.24479167,,,,,,FBP-YG-71.png,0.37,1.2,17,0.5,0,3,3,16,1,,,,,,,,,,,,,,,,,,,,,,,,,,,,,,,,,,,,,,,,
,,,,,V1_015,22,Female,2024-05-14_16h37.32.105,jersey_experiment_5_v1,2023.2.2,Win32,85.47008547,,,,,,,,,,,,,,,,272.1321,273.4257,273.4258,274.4847,return,0.1654,,74.47916667,,,,,,FBP-OG-81.png,0.43,1.2,39,0.5,0,4,4,38,1,,,,,,,,,,,,,,,,,,,,,,,,,,,,,,,,,,,,,,,,
,,,,,V1_015,22,Female,2024-05-14_16h37.32.105,jersey_experiment_5_v1,2023.2.2,Win32,85.47008547,,,,,,,,,,,,,,,,274.485,275.7789,275.779,279.0377,return,1.5211,,47.65625,,,,,,FBP-OG-91.png,0.4,1.2,43,0.5,0,5,5,42,1,,,,,,,,,,,,,,,,,,,,,,,,,,,,,,,,,,,,,,,,
,,,,,V1_015,22,Female,2024-05-14_16h37.32.105,jersey_experiment_5_v1,2023.2.2,Win32,85.47008547,,,,,,,,,,,,,,,,279.0379,280.8379,280.8379,281.4379,return,0.1557,,67.70833333,,,,,,FBP-PT-19.png,0.43,1.2,14,1,0,6,6,13,1,,,,,,,,,,,,,,,,,,,,,,,,,,,,,,,,,,,,,,,,
,,,,,V1_015,22,Female,2024-05-14_16h37.32.105,jersey_experiment_5_v1,2023.2.2,Win32,85.47008547,,,,,,,,,,,,,,,,281.4381,282.7319,282.7319,283.5555,return,0.1648,,62.109375,,,,,,FBP-RB-17.png,0.4,1.2,48,0.5,0,7,7,47,1,,,,,,,,,,,,,,,,,,,,,,,,,,,,,,,,,,,,,,,,
,,,,,V1_015,22,Female,2024-05-14_16h37.32.105,jersey_experiment_5_v1,2023.2.2,Win32,85.47008547,,,,,,,,,,,,,,,,283.5558,285.3558,285.3558,286.5438,return,0.1535,,51.171875,,,,,,FBP-PT-17.png,0.4,1.2,3,1,0,8,8,2,1,,,,,,,,,,,,,,,,,,,,,,,,,,,,,,,,,,,,,,,,
,,,,,V1_015,22,Female,2024-05-14_16h37.32.105,jersey_experiment_5_v1,2023.2.2,Win32,85.47008547,,,,,,,,,,,,,,,,286.5441,287.8379,287.8379,290.4617,return,0.8033,,68.61979167,,,,,,FBP-YG-71.png,0.43,1.2,19,0.5,0,9,9,18,1,,,,,,,,,,,,,,,,,,,,,,,,,,,,,,,,,,,,,,,,
,,,,,V1_015,22,Female,2024-05-14_16h37.32.105,jersey_experiment_5_v1,2023.2.2,Win32,85.47008547,,,,,,,,,,,,,,,,290.462,291.7558,291.7559,294.956,return,2.2639,,74.47916667,,,,,,FBP-OG-91.png,0.43,1.2,44,0.5,0,10,10,43,1,,,,,,,,,,,,,,,,,,,,,,,,,,,,,,,,,,,,,,,,
,,,,,V1_015,22,Female,2024-05-14_16h37.32.105,jersey_experiment_5_v1,2023.2.2,Win32,85.47008547,,,,,,,,,,,,,,,,294.9563,296.756,296.7561,297.5678,return,0.0484,,18.359375,,,,,,FBP-PT-17.png,0.35,1.2,1,1,0,11,11,0,1,,,,,,,,,,,,,,,,,,,,,,,,,,,,,,,,,,,,,,,,
,,,,,V1_015,22,Female,2024-05-14_16h37.32.105,jersey_experiment_5_v1,2023.2.2,Win32,85.47008547,,,,,,,,,,,,,,,,297.568,298.8619,298.8619,300.3561,return,0.0101,,56.11979167,,,,,,FBP-RB-19.png,0.43,1.2,59,0.5,0,12,12,58,1,,,,,,,,,,,,,,,,,,,,,,,,,,,,,,,,,,,,,,,,
,,,,,V1_015,22,Female,2024-05-14_16h37.32.105,jersey_experiment_5_v1,2023.2.2,Win32,85.47008547,,,,,,,,,,,,,,,,300.3564,301.6503,301.6503,302.2268,return,0.0851,,64.453125,,,,,,FBP-OG-91.png,0.45,1.2,45,0.5,0,13,13,44,1,,,,,,,,,,,,,,,,,,,,,,,,,,,,,,,,,,,,,,,,
,,,,,V1_015,22,Female,2024-05-14_16h37.32.105,jersey_experiment_5_v1,2023.2.2,Win32,85.47008547,,,,,,,,,,,,,,,,302.227,304.027,304.027,304.6741,return,0.0372,,35.546875,,,,,,FBP-PT-19.png,0.37,1.2,12,1,0,14,14,11,1,,,,,,,,,,,,,,,,,,,,,,,,,,,,,,,,,,,,,,,,
,,,,,V1_015,22,Female,2024-05-14_16h37.32.105,jersey_experiment_5_v1,2023.2.2,Win32,85.47008547,,,,,,,,,,,,,,,,304.6743,305.9683,305.9683,306.8506,return,0.0947,,23.828125,,,,,,FBP-YG-81.png,0.37,1.2,22,0.5,0,15,15,21,1,,,,,,,,,,,,,,,,,,,,,,,,,,,,,,,,,,,,,,,,
,,,,,V1_015,22,Female,2024-05-14_16h37.32.105,jersey_experiment_5_v1,2023.2.2,Win32,85.47008547,,,,,,,,,,,,,,,,306.8507,308.6508,308.6509,310.3213,return,0.6588,,61.328125,,,,,,FBP-PT-19.png,0.45,1.2,15,1,0,16,16,14,1,,,,,,,,,,,,,,,,,,,,,,,,,,,,,,,,,,,,,,,,
,,,,,V1_015,22,Female,2024-05-14_16h37.32.105,jersey_experiment_5_v1,2023.2.2,Win32,85.47008547,,,,,,,,,,,,,,,,310.3215,312.1213,312.1213,312.8155,return,0.0484,,50.390625,,,,,,FBP-PT-19.png,0.4,1.2,13,1,0,17,17,12,1,,,,,,,,,,,,,,,,,,,,,,,,,,,,,,,,,,,,,,,,
,,,,,V1_015,22,Female,2024-05-14_16h37.32.105,jersey_experiment_5_v1,2023.2.2,Win32,85.47008547,,,,,,,,,,,,,,,,312.8157,314.1098,314.1098,316.6863,return,2.0284,,19.53125,,,,,,FBP-YG-81.png,0.35,1.2,21,0.5,0,18,18,20,1,,,,,,,,,,,,,,,,,,,,,,,,,,,,,,,,,,,,,,,,
,,,,,V1_015,22,Female,2024-05-14_16h37.32.105,jersey_experiment_5_v1,2023.2.2,Win32,85.47008547,,,,,,,,,,,,,,,,316.6864,317.9803,317.9803,319.1567,return,0.0475,,36.84895833,,,,,,FBP-RB-19.png,0.4,1.2,58,0.5,0,19,19,57,1,,,,,,,,,,,,,,,,,,,,,,,,,,,,,,,,,,,,,,,,
,,,,,V1_015,22,Female,2024-05-14_16h37.32.105,jersey_experiment_5_v1,2023.2.2,Win32,85.47008547,,,,,,,,,,,,,,,,319.1569,320.4511,320.4511,321.8747,return,0.1556,,38.54166667,,,,,,FBP-OG-71.png,0.35,1.2,31,0.5,0,20,20,30,1,,,,,,,,,,,,,,,,,,,,,,,,,,,,,,,,,,,,,,,,
,,,,,V1_015,22,Female,2024-05-14_16h37.32.105,jersey_experiment_5_v1,2023.2.2,Win32,85.47008547,,,,,,,,,,,,,,,,321.8748,323.6745,323.6745,324.8513,return,0.1883,,35.80729167,,,,,,FBP-PT-17.png,0.37,1.2,2,1,0,21,21,1,1,,,,,,,,,,,,,,,,,,,,,,,,,,,,,,,,,,,,,,,,
,,,,,V1_015,22,Female,2024-05-14_16h37.32.105,jersey_experiment_5_v1,2023.2.2,Win32,85.47008547,,,,,,,,,,,,,,,,324.8516,326.1454,326.1454,327.0748,return,0.062,,64.0625,,,,,,FBP-OG-71.png,0.43,1.2,34,0.5,0,22,22,33,1,,,,,,,,,,,,,,,,,,,,,,,,,,,,,,,,,,,,,,,,
,,,,,V1_015,22,Female,2024-05-14_16h37.32.105,jersey_experiment_5_v1,2023.2.2,Win32,85.47008547,,,,,,,,,,,,,,,,327.0751,328.3688,328.3688,329.1337,return,0.0996,,63.93229167,,,,,,FBP-RB-18.png,0.37,1.2,52,0.5,0,23,23,51,1,,,,,,,,,,,,,,,,,,,,,,,,,,,,,,,,,,,,,,,,
,,,,,V1_015,22,Female,2024-05-14_16h37.32.105,jersey_experiment_5_v1,2023.2.2,Win32,85.47008547,,,,,,,,,,,,,,,,329.1339,330.4278,330.4279,331.7927,return,0.1672,,75.13020833,,,,,,FBP-RB-17.png,0.43,1.2,49,0.5,0,24,24,48,1,,,,,,,,,,,,,,,,,,,,,,,,,,,,,,,,,,,,,,,,
,,,,,V1_015,22,Female,2024-05-14_16h37.32.105,jersey_experiment_5_v1,2023.2.2,Win32,85.47008547,,,,,,,,,,,,,,,,331.7929,333.0867,333.0867,334.1574,return,0.097,,52.86458333,,,,,,FBP-OG-91.png,0.35,1.2,41,0.5,0,25,25,40,1,,,,,,,,,,,,,,,,,,,,,,,,,,,,,,,,,,,,,,,,
,,,,,V1_015,22,Female,2024-05-14_16h37.32.105,jersey_experiment_5_v1,2023.2.2,Win32,85.47008547,,,,,,,,,,,,,,,,334.1575,335.4517,335.4517,337.1223,return,0.0711,,80.078125,,,,,,FBP-RB-18.png,0.45,1.2,55,0.5,0,26,26,54,1,,,,,,,,,,,,,,,,,,,,,,,,,,,,,,,,,,,,,,,,
,,,,,V1_015,22,Female,2024-05-14_16h37.32.105,jersey_experiment_5_v1,2023.2.2,Win32,85.47008547,,,,,,,,,,,,,,,,337.1226,338.4164,338.4165,339.4516,return,0.0189,,75.65104167,,,,,,FBP-RB-18.png,0.4,1.2,53,0.5,0,27,27,52,1,,,,,,,,,,,,,,,,,,,,,,,,,,,,,,,,,,,,,,,,
,,,,,V1_015,22,Female,2024-05-14_16h37.32.105,jersey_experiment_5_v1,2023.2.2,Win32,85.47008547,,,,,,,,,,,,,,,,339.4518,340.7459,340.7459,341.887,return,0.0605,,83.984375,,,,,,FBP-YG-81.png,0.45,1.2,25,0.5,0,28,28,24,1,,,,,,,,,,,,,,,,,,,,,,,,,,,,,,,,,,,,,,,,
,,,,,V1_015,22,Female,2024-05-14_16h37.32.105,jersey_experiment_5_v1,2023.2.2,Win32,85.47008547,,,,,,,,,,,,,,,,341.8872,343.1814,343.1814,344.0637,return,0.0387,,87.63020833,,,,,,FBP-YG-91.png,0.45,1.2,30,0.5,0,29,29,29,1,,,,,,,,,,,,,,,,,,,,,,,,,,,,,,,,,,,,,,,,
,,,,,V1_015,22,Female,2024-05-14_16h37.32.105,jersey_experiment_5_v1,2023.2.2,Win32,85.47008547,,,,,,,,,,,,,,,,344.0639,345.3581,345.3581,346.2049,return,0.0884,,89.84375,,,,,,FBP-RB-18.png,0.43,1.2,54,0.5,0,30,30,53,1,,,,,,,,,,,,,,,,,,,,,,,,,,,,,,,,,,,,,,,,
,,,,,V1_015,22,Female,2024-05-14_16h37.32.105,jersey_experiment_5_v1,2023.2.2,Win32,85.47008547,,,,,,,,,,,,,,,,346.2052,347.499,347.4991,348.9931,return,0.0957,,61.97916667,,,,,,FBP-OG-71.png,0.37,1.2,32,0.5,0,31,31,31,1,,,,,,,,,,,,,,,,,,,,,,,,,,,,,,,,,,,,,,,,
,,,,,V1_015,22,Female,2024-05-14_16h37.32.105,jersey_experiment_5_v1,2023.2.2,Win32,85.47008547,,,,,,,,,,,,,,,,348.9934,350.2876,350.2876,352.2287,return,0.0703,,45.3125,,,,,,FBP-RB-17.png,0.35,1.2,46,0.5,0,32,32,45,1,,,,,,,,,,,,,,,,,,,,,,,,,,,,,,,,,,,,,,,,
,,,,,V1_015,22,Female,2024-05-14_16h37.32.105,jersey_experiment_5_v1,2023.2.2,Win32,85.47008547,,,,,,,,,,,,,,,,352.229,353.5227,353.5228,354.7345,return,0.0837,,69.140625,,,,,,FBP-YG-91.png,0.43,1.2,29,0.5,0,33,33,28,1,,,,,,,,,,,,,,,,,,,,,,,,,,,,,,,,,,,,,,,,
,,,,,V1_015,22,Female,2024-05-14_16h37.32.105,jersey_experiment_5_v1,2023.2.2,Win32,85.47008547,,,,,,,,,,,,,,,,354.7347,356.0288,356.0288,356.8524,return,0.0237,,31.77083333,,,,,,FBP-RB-17.png,0.37,1.2,47,0.5,0,34,34,46,1,,,,,,,,,,,,,,,,,,,,,,,,,,,,,,,,,,,,,,,,
,,,,,V1_015,22,Female,2024-05-14_16h37.32.105,jersey_experiment_5_v1,2023.2.2,Win32,85.47008547,,,,,,,,,,,,,,,,356.8526,358.1465,358.1465,359.0407,return,0.0593,,62.890625,,,,,,FBP-OG-71.png,0.4,1.2,33,0.5,0,35,35,32,1,,,,,,,,,,,,,,,,,,,,,,,,,,,,,,,,,,,,,,,,
,,,,,V1_015,22,Female,2024-05-14_16h37.32.105,jersey_experiment_5_v1,2023.2.2,Win32,85.47008547,,,,,,,,,,,,,,,,359.0409,360.8407,360.8407,361.6173,return,0.0608,,48.4375,,,,,,FBP-PT-19.png,0.35,1.2,11,1,0,36,36,10,1,,,,,,,,,,,,,,,,,,,,,,,,,,,,,,,,,,,,,,,,
,,,,,V1_015,22,Female,2024-05-14_16h37.32.105,jersey_experiment_5_v1,2023.2.2,Win32,85.47008547,,,,,,,,,,,,,,,,361.6176,362.9114,362.9114,364.5702,return,0.042,,45.05208333,,,,,,FBP-OG-81.png,0.4,1.2,38,0.5,0,37,37,37,1,,,,,,,,,,,,,,,,,,,,,,,,,,,,,,,,,,,,,,,,
,,,,,V1_015,22,Female,2024-05-14_16h37.32.105,jersey_experiment_5_v1,2023.2.2,Win32,85.47008547,,,,,,,,,,,,,,,,364.5704,365.8644,365.8644,366.7703,return,0.0612,,80.46875,,,,,,FBP-OG-81.png,0.45,1.2,40,0.5,0,38,38,39,1,,,,,,,,,,,,,,,,,,,,,,,,,,,,,,,,,,,,,,,,
,,,,,V1_015,22,Female,2024-05-14_16h37.32.105,jersey_experiment_5_v1,2023.2.2,Win32,85.47008547,,,,,,,,,,,,,,,,366.7705,368.5702,368.5702,369.088,return,0.0969,,82.94270833,,,,,,FBP-PT-17.png,0.45,1.2,5,1,0,39,39,4,1,,,,,,,,,,,,,,,,,,,,,,,,,,,,,,,,,,,,,,,,
,,,,,V1_015,22,Female,2024-05-14_16h37.32.105,jersey_experiment_5_v1,2023.2.2,Win32,85.47008547,,,,,,,,,,,,,,,,369.0882,370.8883,370.8884,371.4412,return,0.0107,,70.57291667,,,,,,FBP-PT-17.png,0.43,1.2,4,1,0,40,40,3,1,,,,,,,,,,,,,,,,,,,,,,,,,,,,,,,,,,,,,,,,
,,,,,V1_015,22,Female,2024-05-14_16h37.32.105,jersey_experiment_5_v1,2023.2.2,Win32,85.47008547,,,,,,,,,,,,,,,,371.4414,372.7353,372.7353,373.6295,return,0.0761,,38.41145833,,,,,,FBP-YG-91.png,0.37,1.2,27,0.5,0,41,41,26,1,,,,,,,,,,,,,,,,,,,,,,,,,,,,,,,,,,,,,,,,
,,,,,V1_015,22,Female,2024-05-14_16h37.32.105,jersey_experiment_5_v1,2023.2.2,Win32,85.47008547,,,,,,,,,,,,,,,,373.6298,374.9236,374.9236,376.0179,return,0.0704,,33.33333333,,,,,,FBP-YG-81.png,0.4,1.2,23,0.5,0,42,42,22,1,,,,,,,,,,,,,,,,,,,,,,,,,,,,,,,,,,,,,,,,
,,,,,V1_015,22,Female,2024-05-14_16h37.32.105,jersey_experiment_5_v1,2023.2.2,Win32,85.47008547,,,,,,,,,,,,,,,,376.018,377.312,377.312,378.6178,return,0.1132,,48.56770833,,,,,,FBP-YG-71.png,0.4,1.2,18,0.5,0,43,43,17,1,,,,,,,,,,,,,,,,,,,,,,,,,,,,,,,,,,,,,,,,
,,,,,V1_015,22,Female,2024-05-14_16h37.32.105,jersey_experiment_5_v1,2023.2.2,Win32,85.47008547,,,,,,,,,,,,,,,,378.618,379.912,379.9121,380.7002,return,0.042,,39.19270833,,,,,,FBP-YG-91.png,0.35,1.2,26,0.5,0,44,44,25,1,,,,,,,,,,,,,,,,,,,,,,,,,,,,,,,,,,,,,,,,
,,,,,V1_015,22,Female,2024-05-14_16h37.32.105,jersey_experiment_5_v1,2023.2.2,Win32,85.47008547,,,,,,,,,,,,,,,,380.7004,381.9945,381.9945,382.5709,return,0.0644,,39.19270833,,,,,,FBP-OG-81.png,0.35,1.2,36,0.5,0,45,45,35,1,,,,,,,,,,,,,,,,,,,,,,,,,,,,,,,,,,,,,,,,
,,,,,V1_015,22,Female,2024-05-14_16h37.32.105,jersey_experiment_5_v1,2023.2.2,Win32,85.47008547,,,,,,,,,,,,,,,,382.5711,383.865,383.865,385.1006,return,1.0395,,34.89583333,,,,,,FBP-RB-19.png,0.35,1.2,56,0.5,0,46,46,55,1,,,,,,,,,,,,,,,,,,,,,,,,,,,,,,,,,,,,,,,,
,,,,,V1_015,22,Female,2024-05-14_16h37.32.105,jersey_experiment_5_v1,2023.2.2,Win32,85.47008547,,,,,,,,,,,,,,,,385.1008,386.3946,386.3947,386.9947,return,0.0327,,30.859375,,,,,,FBP-RB-18.png,0.35,1.2,51,0.5,0,47,47,50,1,,,,,,,,,,,,,,,,,,,,,,,,,,,,,,,,,,,,,,,,
,,,,,V1_015,22,Female,2024-05-14_16h37.32.105,jersey_experiment_5_v1,2023.2.2,Win32,85.47008547,,,,,,,,,,,,,,,,386.995,388.7948,388.7948,389.9006,return,0.0513,,49.609375,,,,,,FBP-PT-18.png,0.4,1.2,8,1,0,48,48,7,1,,,,,,,,,,,,,,,,,,,,,,,,,,,,,,,,,,,,,,,,
,,,,,V1_015,22,Female,2024-05-14_16h37.32.105,jersey_experiment_5_v1,2023.2.2,Win32,85.47008547,,,,,,,,,,,,,,,,389.9007,391.1948,391.1948,392.1243,return,0.0399,,70.57291667,,,,,,FBP-RB-19.png,0.45,1.2,60,0.5,0,49,49,59,1,,,,,,,,,,,,,,,,,,,,,,,,,,,,,,,,,,,,,,,,
,,,,,V1_015,22,Female,2024-05-14_16h37.32.105,jersey_experiment_5_v1,2023.2.2,Win32,85.47008547,,,,,,,,,,,,,,,,392.1244,393.9243,393.9243,397.148,return,1.7224,,40.234375,,,,,,FBP-PT-18.png,0.35,1.2,6,1,0,50,50,5,1,,,,,,,,,,,,,,,,,,,,,,,,,,,,,,,,,,,,,,,,
,,,,,V1_015,22,Female,2024-05-14_16h37.32.105,jersey_experiment_5_v1,2023.2.2,Win32,85.47008547,,,,,,,,,,,,,,,,397.1482,398.4421,398.4422,399.1952,return,0.043,,74.21875,,,,,,FBP-YG-71.png,0.45,1.2,20,0.5,0,51,51,19,1,,,,,,,,,,,,,,,,,,,,,,,,,,,,,,,,,,,,,,,,
,,,,,V1_015,22,Female,2024-05-14_16h37.32.105,jersey_experiment_5_v1,2023.2.2,Win32,85.47008547,,,,,,,,,,,,,,,,399.1954,400.4893,400.4893,401.6305,return,0.0515,,65.234375,,,,,,FBP-RB-19.png,0.37,1.2,57,0.5,0,52,52,56,1,,,,,,,,,,,,,,,,,,,,,,,,,,,,,,,,,,,,,,,,
,,,,,V1_015,22,Female,2024-05-14_16h37.32.105,jersey_experiment_5_v1,2023.2.2,Win32,85.47008547,,,,,,,,,,,,,,,,401.6307,403.4307,403.4307,405.1012,return,0.8977,,79.6875,,,,,,FBP-PT-18.png,0.45,1.2,10,1,0,53,53,9,1,,,,,,,,,,,,,,,,,,,,,,,,,,,,,,,,,,,,,,,,
,,,,,V1_015,22,Female,2024-05-14_16h37.32.105,jersey_experiment_5_v1,2023.2.2,Win32,85.47008547,,,,,,,,,,,,,,,,405.1013,406.3954,406.3954,407.0894,return,0.0582,,71.09375,,,,,,FBP-YG-81.png,0.43,1.2,24,0.5,0,54,54,23,1,,,,,,,,,,,,,,,,,,,,,,,,,,,,,,,,,,,,,,,,
,,,,,V1_015,22,Female,2024-05-14_16h37.32.105,jersey_experiment_5_v1,2023.2.2,Win32,85.47008547,,,,,,,,,,,,,,,,407.0896,408.3836,408.3837,409.5015,return,0.0269,,27.86458333,,,,,,FBP-YG-71.png,0.35,1.2,16,0.5,0,55,55,15,1,,,,,,,,,,,,,,,,,,,,,,,,,,,,,,,,,,,,,,,,
,,,,,V1_015,22,Female,2024-05-14_16h37.32.105,jersey_experiment_5_v1,2023.2.2,Win32,85.47008547,,,,,,,,,,,,,,,,409.5015,410.7959,410.7959,413.3131,return,0.2823,,33.984375,,,,,,FBP-OG-81.png,0.37,1.2,37,0.5,0,56,56,36,1,,,,,,,,,,,,,,,,,,,,,,,,,,,,,,,,,,,,,,,,
,,,,,V1_015,22,Female,2024-05-14_16h37.32.105,jersey_experiment_5_v1,2023.2.2,Win32,85.47008547,,,,,,,,,,,,,,,,413.3132,414.6074,414.6074,415.6427,return,0.0433,,36.45833333,,,,,,FBP-OG-91.png,0.37,1.2,42,0.5,0,57,57,41,1,,,,,,,,,,,,,,,,,,,,,,,,,,,,,,,,,,,,,,,,
,,,,,V1_015,22,Female,2024-05-14_16h37.32.105,jersey_experiment_5_v1,2023.2.2,Win32,85.47008547,,,,,,,,,,,,,,,,415.6429,416.9369,416.937,418.431,return,0.0369,,71.22395833,,,,,,FBP-RB-17.png,0.45,1.2,50,0.5,0,58,58,49,1,,,,,,,,,,,,,,,,,,,,,,,,,,,,,,,,,,,,,,,,
,,,,,V1_015,22,Female,2024-05-14_16h37.32.105,jersey_experiment_5_v1,2023.2.2,Win32,85.47008547,,,,,,,,,,,,,,,,418.4311,420.2311,420.2311,421.243,return,0.0434,,41.14583333,,,,,,FBP-PT-18.png,0.37,1.2,7,1,0,59,59,6,1,,,,,,,,,,,,,,,,,,,,,,,,,,,,,,,,,,,,,,,,
,,,,,V1_015,22,Female,2024-05-14_16h37.32.105,jersey_experiment_5_v1,2023.2.2,Win32,85.47008547,,,,,,,,,,,,,,,,,,,,,,,,,,,,,,,,,,,,,,,421.2434,541.2477,,,,,,,,,,,,,,,,,,,,,,,,,,,,,,,,,,,,,,
,,,,,V1_015,22,Female,2024-05-14_16h37.32.105,jersey_experiment_5_v1,2023.2.2,Win32,85.47008547,,,,,,,,,,,,,,,,,,,,,,,,,,,,,,,,,,,,,,,,,541.2478,552.3069,return,11.0485,,,,,,,,,,,,,,,,,,,,,,,,,,,,,,,,,,
,,,,,V1_015,22,Female,2024-05-14_16h37.32.105,jersey_experiment_5_v1,2023.2.2,Win32,85.47008547,,,,,,,,,,,,,,,,552.3129,554.1065,554.1065,558.5069,return,1.8668,,48.30729167,,,,,,FBP-OG-19.png,0.4,1.2,43,1,,,,,,,,,,,,,0,0,0,42,1,,,,,,,,,,,,,,,,,,,,,,,,,,,,
,,,,,V1_015,22,Female,2024-05-14_16h37.32.105,jersey_experiment_5_v1,2023.2.2,Win32,85.47008547,,,,,,,,,,,,,,,,558.5073,560.3069,560.3069,561.2363,return,0.1181,,43.359375,,,,,,FBP-OG-19.png,0.37,1.2,42,1,,,,,,,,,,,,,0,1,1,41,1,,,,,,,,,,,,,,,,,,,,,,,,,,,,
,,,,,V1_015,22,Female,2024-05-14_16h37.32.105,jersey_experiment_5_v1,2023.2.2,Win32,85.47008547,,,,,,,,,,,,,,,,561.2366,563.0364,563.0364,564.1304,return,0.057,,37.23958333,,,,,,FBP-YG-17.png,0.37,1.2,17,1,,,,,,,,,,,,,0,2,2,16,1,,,,,,,,,,,,,,,,,,,,,,,,,,,,
,,,,,V1_015,22,Female,2024-05-14_16h37.32.105,jersey_experiment_5_v1,2023.2.2,Win32,85.47008547,,,,,,,,,,,,,,,,564.1306,565.9305,565.9306,566.7894,return,0.2215,,65.625,,,,,,FBP-RB-81.png,0.4,1.2,53,1,,,,,,,,,,,,,0,3,3,52,1,,,,,,,,,,,,,,,,,,,,,,,,,,,,
,,,,,V1_015,22,Female,2024-05-14_16h37.32.105,jersey_experiment_5_v1,2023.2.2,Win32,85.47008547,,,,,,,,,,,,,,,,566.7896,568.5896,568.5896,569.2366,return,0.0807,,54.296875,,,,,,FBP-YG-18.png,0.37,1.2,22,1,,,,,,,,,,,,,0,4,4,21,1,,,,,,,,,,,,,,,,,,,,,,,,,,,,
,,,,,V1_015,22,Female,2024-05-14_16h37.32.105,jersey_experiment_5_v1,2023.2.2,Win32,85.47008547,,,,,,,,,,,,,,,,569.2368,571.0366,571.0367,571.5661,return,0.0515,,71.875,,,,,,FBP-YG-18.png,0.43,1.2,24,1,,,,,,,,,,,,,0,5,5,23,1,,,,,,,,,,,,,,,,,,,,,,,,,,,,
,,,,,V1_015,22,Female,2024-05-14_16h37.32.105,jersey_experiment_5_v1,2023.2.2,Win32,85.47008547,,,,,,,,,,,,,,,,571.5662,572.86,572.86,574.0014,return,0.2258,,78.38541667,,,,,,FBP-PT-91.png,0.45,1.2,15,0.5,,,,,,,,,,,,,0,6,6,14,1,,,,,,,,,,,,,,,,,,,,,,,,,,,,
,,,,,V1_015,22,Female,2024-05-14_16h37.32.105,jersey_experiment_5_v1,2023.2.2,Win32,85.47008547,,,,,,,,,,,,,,,,574.0017,575.8015,575.8015,576.3662,return,0.0045,,81.90104167,,,,,,FBP-OG-18.png,0.45,1.2,40,1,,,,,,,,,,,,,0,7,7,39,1,,,,,,,,,,,,,,,,,,,,,,,,,,,,
,,,,,V1_015,22,Female,2024-05-14_16h37.32.105,jersey_experiment_5_v1,2023.2.2,Win32,85.47008547,,,,,,,,,,,,,,,,576.3665,578.1663,578.1663,579.7427,return,0.9336,,75.26041667,,,,,,FBP-RB-71.png,0.45,1.2,50,1,,,,,,,,,,,,,0,8,8,49,1,,,,,,,,,,,,,,,,,,,,,,,,,,,,
,,,,,V1_015,22,Female,2024-05-14_16h37.32.105,jersey_experiment_5_v1,2023.2.2,Win32,85.47008547,,,,,,,,,,,,,,,,579.7429,581.5428,581.5429,582.2252,return,0.1754,,64.32291667,,,,,,FBP-YG-17.png,0.4,1.2,18,1,,,,,,,,,,,,,0,9,9,17,1,,,,,,,,,,,,,,,,,,,,,,,,,,,,
,,,,,V1_015,22,Female,2024-05-14_16h37.32.105,jersey_experiment_5_v1,2023.2.2,Win32,85.47008547,,,,,,,,,,,,,,,,582.2255,584.0253,584.0253,585.1665,return,0.4511,,55.72916667,,,,,,FBP-OG-17.png,0.4,1.2,33,1,,,,,,,,,,,,,0,10,10,32,1,,,,,,,,,,,,,,,,,,,,,,,,,,,,
,,,,,V1_015,22,Female,2024-05-14_16h37.32.105,jersey_experiment_5_v1,2023.2.2,Win32,85.47008547,,,,,,,,,,,,,,,,585.1668,586.9668,586.9668,588.6018,return,0.1364,,73.30729167,,,,,,FBP-RB-91.png,0.45,1.2,60,1,,,,,,,,,,,,,0,11,11,59,1,,,,,,,,,,,,,,,,,,,,,,,,,,,,
,,,,,V1_015,22,Female,2024-05-14_16h37.32.105,jersey_experiment_5_v1,2023.2.2,Win32,85.47008547,,,,,,,,,,,,,,,,588.602,589.896,589.8961,590.7197,return,0.0264,,34.89583333,,,,,,FBP-PT-81.png,0.35,1.2,6,0.5,,,,,,,,,,,,,0,12,12,5,1,,,,,,,,,,,,,,,,,,,,,,,,,,,,
,,,,,V1_015,22,Female,2024-05-14_16h37.32.105,jersey_experiment_5_v1,2023.2.2,Win32,85.47008547,,,,,,,,,,,,,,,,590.7199,592.52,592.52,593.2139,return,0.0617,,67.83854167,,,,,,FBP-YG-19.png,0.45,1.2,30,1,,,,,,,,,,,,,0,13,13,29,1,,,,,,,,,,,,,,,,,,,,,,,,,,,,
,,,,,V1_015,22,Female,2024-05-14_16h37.32.105,jersey_experiment_5_v1,2023.2.2,Win32,85.47008547,,,,,,,,,,,,,,,,593.2142,595.014,595.014,595.6493,return,0.1786,,29.94791667,,,,,,FBP-OG-17.png,0.35,1.2,31,1,,,,,,,,,,,,,0,14,14,30,1,,,,,,,,,,,,,,,,,,,,,,,,,,,,
,,,,,V1_015,22,Female,2024-05-14_16h37.32.105,jersey_experiment_5_v1,2023.2.2,Win32,85.47008547,,,,,,,,,,,,,,,,595.6495,597.4494,597.4495,598.0024,return,0.2025,,64.58333333,,,,,,FBP-RB-81.png,0.43,1.2,54,1,,,,,,,,,,,,,0,15,15,53,1,,,,,,,,,,,,,,,,,,,,,,,,,,,,
,,,,,V1_015,22,Female,2024-05-14_16h37.32.105,jersey_experiment_5_v1,2023.2.2,Win32,85.47008547,,,,,,,,,,,,,,,,598.0026,599.2964,599.2964,600.5083,return,0.0165,,73.56770833,,,,,,FBP-PT-81.png,0.43,1.2,9,0.5,,,,,,,,,,,,,0,16,16,8,1,,,,,,,,,,,,,,,,,,,,,,,,,,,,
,,,,,V1_015,22,Female,2024-05-14_16h37.32.105,jersey_experiment_5_v1,2023.2.2,Win32,85.47008547,,,,,,,,,,,,,,,,600.5086,602.3085,602.3085,602.9317,return,0.024,,49.73958333,,,,,,FBP-RB-91.png,0.4,1.2,58,1,,,,,,,,,,,,,0,17,17,57,1,,,,,,,,,,,,,,,,,,,,,,,,,,,,
,,,,,V1_015,22,Female,2024-05-14_16h37.32.105,jersey_experiment_5_v1,2023.2.2,Win32,85.47008547,,,,,,,,,,,,,,,,602.9319,604.7321,604.7321,605.3555,return,0.0074,,78.125,,,,,,FBP-RB-81.png,0.45,1.2,55,1,,,,,,,,,,,,,0,18,18,54,1,,,,,,,,,,,,,,,,,,,,,,,,,,,,
,,,,,V1_015,22,Female,2024-05-14_16h37.32.105,jersey_experiment_5_v1,2023.2.2,Win32,85.47008547,,,,,,,,,,,,,,,,605.3558,607.1558,607.1558,607.7084,return,0.1104,,25.26041667,,,,,,FBP-YG-19.png,0.35,1.2,26,1,,,,,,,,,,,,,0,19,19,25,1,,,,,,,,,,,,,,,,,,,,,,,,,,,,
,,,,,V1_015,22,Female,2024-05-14_16h37.32.105,jersey_experiment_5_v1,2023.2.2,Win32,85.47008547,,,,,,,,,,,,,,,,607.7086,609.5087,609.5087,610.3322,return,0.4889,,71.09375,,,,,,FBP-RB-91.png,0.43,1.2,59,1,,,,,,,,,,,,,0,20,20,58,1,,,,,,,,,,,,,,,,,,,,,,,,,,,,
,,,,,V1_015,22,Female,2024-05-14_16h37.32.105,jersey_experiment_5_v1,2023.2.2,Win32,85.47008547,,,,,,,,,,,,,,,,610.3324,612.1322,612.1322,613.4027,return,0.0081,,53.515625,,,,,,FBP-RB-81.png,0.37,1.2,52,1,,,,,,,,,,,,,0,21,21,51,1,,,,,,,,,,,,,,,,,,,,,,,,,,,,
,,,,,V1_015,22,Female,2024-05-14_16h37.32.105,jersey_experiment_5_v1,2023.2.2,Win32,85.47008547,,,,,,,,,,,,,,,,613.4029,615.203,615.203,617.1559,return,0.9652,,49.47916667,,,,,,FBP-OG-18.png,0.4,1.2,38,1,,,,,,,,,,,,,0,22,22,37,1,,,,,,,,,,,,,,,,,,,,,,,,,,,,
,,,,,V1_015,22,Female,2024-05-14_16h37.32.105,jersey_experiment_5_v1,2023.2.2,Win32,85.47008547,,,,,,,,,,,,,,,,617.1562,618.9561,618.9561,619.5207,return,0.049,,68.88020833,,,,,,FBP-YG-17.png,0.45,1.2,20,1,,,,,,,,,,,,,0,23,23,19,1,,,,,,,,,,,,,,,,,,,,,,,,,,,,
,,,,,V1_015,22,Female,2024-05-14_16h37.32.105,jersey_experiment_5_v1,2023.2.2,Win32,85.47008547,,,,,,,,,,,,,,,,619.5211,621.321,621.321,622.3325,return,0.0513,,31.51041667,,,,,,FBP-RB-91.png,0.35,1.2,56,1,,,,,,,,,,,,,0,24,24,55,1,,,,,,,,,,,,,,,,,,,,,,,,,,,,
,,,,,V1_015,22,Female,2024-05-14_16h37.32.105,jersey_experiment_5_v1,2023.2.2,Win32,85.47008547,,,,,,,,,,,,,,,,622.3328,624.1327,624.1327,624.8737,return,0.0915,,64.19270833,,,,,,FBP-YG-18.png,0.4,1.2,23,1,,,,,,,,,,,,,0,25,25,22,1,,,,,,,,,,,,,,,,,,,,,,,,,,,,
,,,,,V1_015,22,Female,2024-05-14_16h37.32.105,jersey_experiment_5_v1,2023.2.2,Win32,85.47008547,,,,,,,,,,,,,,,,624.874,626.6738,626.6739,627.4505,return,0.1829,,55.859375,,,,,,FBP-OG-17.png,0.37,1.2,32,1,,,,,,,,,,,,,0,26,26,31,1,,,,,,,,,,,,,,,,,,,,,,,,,,,,
,,,,,V1_015,22,Female,2024-05-14_16h37.32.105,jersey_experiment_5_v1,2023.2.2,Win32,85.47008547,,,,,,,,,,,,,,,,627.4507,628.7445,628.7446,630.1563,return,0.0636,,73.30729167,,,,,,FBP-PT-81.png,0.45,1.2,10,0.5,,,,,,,,,,,,,0,27,27,9,1,,,,,,,,,,,,,,,,,,,,,,,,,,,,
,,,,,V1_015,22,Female,2024-05-14_16h37.32.105,jersey_experiment_5_v1,2023.2.2,Win32,85.47008547,,,,,,,,,,,,,,,,630.1565,631.9565,631.9566,632.9447,return,0.6497,,72.265625,,,,,,FBP-RB-71.png,0.4,1.2,48,1,,,,,,,,,,,,,0,28,28,47,1,,,,,,,,,,,,,,,,,,,,,,,,,,,,
,,,,,V1_015,22,Female,2024-05-14_16h37.32.105,jersey_experiment_5_v1,2023.2.2,Win32,85.47008547,,,,,,,,,,,,,,,,632.945,634.7448,634.7449,635.3566,return,0.2513,,72.265625,,,,,,FBP-RB-71.png,0.43,1.2,49,1,,,,,,,,,,,,,0,29,29,48,1,,,,,,,,,,,,,,,,,,,,,,,,,,,,
,,,,,V1_015,22,Female,2024-05-14_16h37.32.105,jersey_experiment_5_v1,2023.2.2,Win32,85.47008547,,,,,,,,,,,,,,,,635.3569,637.1568,637.1568,637.4977,return,0.1031,,55.20833333,,,,,,FBP-YG-18.png,0.35,1.2,21,1,,,,,,,,,,,,,0,30,30,20,1,,,,,,,,,,,,,,,,,,,,,,,,,,,,
,,,,,V1_015,22,Female,2024-05-14_16h37.32.105,jersey_experiment_5_v1,2023.2.2,Win32,85.47008547,,,,,,,,,,,,,,,,637.498,639.298,639.298,639.9215,return,0.0107,,43.359375,,,,,,FBP-RB-81.png,0.35,1.2,51,1,,,,,,,,,,,,,0,31,31,50,1,,,,,,,,,,,,,,,,,,,,,,,,,,,,
,,,,,V1_015,22,Female,2024-05-14_16h37.32.105,jersey_experiment_5_v1,2023.2.2,Win32,85.47008547,,,,,,,,,,,,,,,,639.9216,641.2156,641.2156,641.6156,return,0.1768,,44.40104167,,,,,,FBP-PT-81.png,0.37,1.2,7,0.5,,,,,,,,,,,,,0,32,32,6,1,,,,,,,,,,,,,,,,,,,,,,,,,,,,
,,,,,V1_015,22,Female,2024-05-14_16h37.32.105,jersey_experiment_5_v1,2023.2.2,Win32,85.47008547,,,,,,,,,,,,,,,,641.6159,642.9097,642.9097,643.2627,return,0.0042,,50.13020833,,,,,,FBP-PT-71.png,0.37,1.2,2,0.5,,,,,,,,,,,,,0,33,33,1,1,,,,,,,,,,,,,,,,,,,,,,,,,,,,
,,,,,V1_015,22,Female,2024-05-14_16h37.32.105,jersey_experiment_5_v1,2023.2.2,Win32,85.47008547,,,,,,,,,,,,,,,,643.2629,645.0631,645.0631,646.1805,return,0.6921,,52.08333333,,,,,,FBP-RB-91.png,0.37,1.2,57,1,,,,,,,,,,,,,0,34,34,56,1,,,,,,,,,,,,,,,,,,,,,,,,,,,,
,,,,,V1_015,22,Female,2024-05-14_16h37.32.105,jersey_experiment_5_v1,2023.2.2,Win32,85.47008547,,,,,,,,,,,,,,,,646.1807,647.4746,647.4746,648.0748,return,0.1001,,52.08333333,,,,,,FBP-PT-91.png,0.37,1.2,12,0.5,,,,,,,,,,,,,0,35,35,11,1,,,,,,,,,,,,,,,,,,,,,,,,,,,,
,,,,,V1_015,22,Female,2024-05-14_16h37.32.105,jersey_experiment_5_v1,2023.2.2,Win32,85.47008547,,,,,,,,,,,,,,,,648.0749,649.3688,649.3689,650.4512,return,0.0004,,67.70833333,,,,,,FBP-PT-71.png,0.45,1.2,5,0.5,,,,,,,,,,,,,0,36,36,4,1,,,,,,,,,,,,,,,,,,,,,,,,,,,,
,,,,,V1_015,22,Female,2024-05-14_16h37.32.105,jersey_experiment_5_v1,2023.2.2,Win32,85.47008547,,,,,,,,,,,,,,,,650.4514,652.2512,652.2512,652.6043,return,0.0159,,72.39583333,,,,,,FBP-OG-18.png,0.43,1.2,39,1,,,,,,,,,,,,,0,37,37,38,1,,,,,,,,,,,,,,,,,,,,,,,,,,,,
,,,,,V1_015,22,Female,2024-05-14_16h37.32.105,jersey_experiment_5_v1,2023.2.2,Win32,85.47008547,,,,,,,,,,,,,,,,652.6046,654.4045,654.4045,654.8632,return,0.027,,57.03125,,,,,,FBP-OG-18.png,0.35,1.2,36,1,,,,,,,,,,,,,0,38,38,35,1,,,,,,,,,,,,,,,,,,,,,,,,,,,,
,,,,,V1_015,22,Female,2024-05-14_16h37.32.105,jersey_experiment_5_v1,2023.2.2,Win32,85.47008547,,,,,,,,,,,,,,,,654.8635,656.6635,656.6635,657.4514,return,0.3699,,78.77604167,,,,,,FBP-YG-19.png,0.43,1.2,29,1,,,,,,,,,,,,,0,39,39,28,1,,,,,,,,,,,,,,,,,,,,,,,,,,,,
,,,,,V1_015,22,Female,2024-05-14_16h37.32.105,jersey_experiment_5_v1,2023.2.2,Win32,85.47008547,,,,,,,,,,,,,,,,657.4516,658.7457,658.7457,660.9108,return,0.1927,,66.796875,,,,,,FBP-PT-91.png,0.43,1.2,14,0.5,,,,,,,,,,,,,0,40,40,13,1,,,,,,,,,,,,,,,,,,,,,,,,,,,,
,,,,,V1_015,22,Female,2024-05-14_16h37.32.105,jersey_experiment_5_v1,2023.2.2,Win32,85.47008547,,,,,,,,,,,,,,,,660.911,662.7106,662.7107,663.2754,return,0.0897,,42.96875,,,,,,FBP-YG-17.png,0.35,1.2,16,1,,,,,,,,,,,,,0,41,41,15,1,,,,,,,,,,,,,,,,,,,,,,,,,,,,
,,,,,V1_015,22,Female,2024-05-14_16h37.32.105,jersey_experiment_5_v1,2023.2.2,Win32,85.47008547,,,,,,,,,,,,,,,,663.2757,665.0755,665.0755,665.4872,return,0.0249,,86.328125,,,,,,FBP-OG-19.png,0.45,1.2,45,1,,,,,,,,,,,,,0,42,42,44,1,,,,,,,,,,,,,,,,,,,,,,,,,,,,
,,,,,V1_015,22,Female,2024-05-14_16h37.32.105,jersey_experiment_5_v1,2023.2.2,Win32,85.47008547,,,,,,,,,,,,,,,,665.4874,666.7814,666.7815,667.6284,return,0.1689,,73.4375,,,,,,FBP-PT-81.png,0.4,1.2,8,0.5,,,,,,,,,,,,,0,43,43,7,1,,,,,,,,,,,,,,,,,,,,,,,,,,,,
,,,,,V1_015,22,Female,2024-05-14_16h37.32.105,jersey_experiment_5_v1,2023.2.2,Win32,85.47008547,,,,,,,,,,,,,,,,667.6286,669.4284,669.4285,670.1225,return,0.0297,,80.20833333,,,,,,FBP-OG-17.png,0.45,1.2,35,1,,,,,,,,,,,,,0,44,44,34,1,,,,,,,,,,,,,,,,,,,,,,,,,,,,
,,,,,V1_015,22,Female,2024-05-14_16h37.32.105,jersey_experiment_5_v1,2023.2.2,Win32,85.47008547,,,,,,,,,,,,,,,,670.1228,671.4168,671.4168,673.1345,return,0.0256,,72.52604167,,,,,,FBP-PT-71.png,0.4,1.2,3,0.5,,,,,,,,,,,,,0,45,45,2,1,,,,,,,,,,,,,,,,,,,,,,,,,,,,
,,,,,V1_015,22,Female,2024-05-14_16h37.32.105,jersey_experiment_5_v1,2023.2.2,Win32,85.47008547,,,,,,,,,,,,,,,,673.1347,674.9345,674.9345,675.4757,return,0.0939,,74.609375,,,,,,FBP-YG-19.png,0.4,1.2,28,1,,,,,,,,,,,,,0,46,46,27,1,,,,,,,,,,,,,,,,,,,,,,,,,,,,
,,,,,V1_015,22,Female,2024-05-14_16h37.32.105,jersey_experiment_5_v1,2023.2.2,Win32,85.47008547,,,,,,,,,,,,,,,,675.476,677.2758,677.2759,678.2994,return,0.666,,51.5625,,,,,,FBP-YG-19.png,0.37,1.2,27,1,,,,,,,,,,,,,0,47,47,26,1,,,,,,,,,,,,,,,,,,,,,,,,,,,,
,,,,,V1_015,22,Female,2024-05-14_16h37.32.105,jersey_experiment_5_v1,2023.2.2,Win32,85.47008547,,,,,,,,,,,,,,,,678.2996,679.5934,679.5934,680.1937,return,0.0233,,47.65625,,,,,,FBP-PT-71.png,0.35,1.2,1,0.5,,,,,,,,,,,,,0,48,48,0,1,,,,,,,,,,,,,,,,,,,,,,,,,,,,
,,,,,V1_015,22,Female,2024-05-14_16h37.32.105,jersey_experiment_5_v1,2023.2.2,Win32,85.47008547,,,,,,,,,,,,,,,,680.1939,681.9936,681.9936,682.5583,return,0.1223,,44.66145833,,,,,,FBP-RB-71.png,0.35,1.2,46,1,,,,,,,,,,,,,0,49,49,45,1,,,,,,,,,,,,,,,,,,,,,,,,,,,,
,,,,,V1_015,22,Female,2024-05-14_16h37.32.105,jersey_experiment_5_v1,2023.2.2,Win32,85.47008547,,,,,,,,,,,,,,,,682.5584,683.8523,683.8523,685.0055,return,0.2169,,75.390625,,,,,,FBP-PT-91.png,0.4,1.2,13,0.5,,,,,,,,,,,,,0,50,50,12,1,,,,,,,,,,,,,,,,,,,,,,,,,,,,
,,,,,V1_015,22,Female,2024-05-14_16h37.32.105,jersey_experiment_5_v1,2023.2.2,Win32,85.47008547,,,,,,,,,,,,,,,,685.0057,686.8055,686.8055,687.6997,return,0.2825,,53.125,,,,,,FBP-OG-19.png,0.35,1.2,41,1,,,,,,,,,,,,,0,51,51,40,1,,,,,,,,,,,,,,,,,,,,,,,,,,,,
,,,,,V1_015,22,Female,2024-05-14_16h37.32.105,jersey_experiment_5_v1,2023.2.2,Win32,85.47008547,,,,,,,,,,,,,,,,687.6998,688.9939,688.9939,690.2762,return,0.6924,,71.484375,,,,,,FBP-PT-71.png,0.43,1.2,4,0.5,,,,,,,,,,,,,0,52,52,3,1,,,,,,,,,,,,,,,,,,,,,,,,,,,,
,,,,,V1_015,22,Female,2024-05-14_16h37.32.105,jersey_experiment_5_v1,2023.2.2,Win32,85.47008547,,,,,,,,,,,,,,,,690.2765,691.5703,691.5704,692.3234,return,0.0468,,53.77604167,,,,,,FBP-PT-91.png,0.35,1.2,11,0.5,,,,,,,,,,,,,0,53,53,10,1,,,,,,,,,,,,,,,,,,,,,,,,,,,,
,,,,,V1_015,22,Female,2024-05-14_16h37.32.105,jersey_experiment_5_v1,2023.2.2,Win32,85.47008547,,,,,,,,,,,,,,,,692.3236,694.1235,694.1235,694.5942,return,0.0847,,72.00520833,,,,,,FBP-OG-17.png,0.43,1.2,34,1,,,,,,,,,,,,,0,54,54,33,1,,,,,,,,,,,,,,,,,,,,,,,,,,,,
,,,,,V1_015,22,Female,2024-05-14_16h37.32.105,jersey_experiment_5_v1,2023.2.2,Win32,85.47008547,,,,,,,,,,,,,,,,694.5943,696.3941,696.3941,697.1706,return,0.0567,,76.953125,,,,,,FBP-YG-18.png,0.45,1.2,25,1,,,,,,,,,,,,,0,55,55,24,1,,,,,,,,,,,,,,,,,,,,,,,,,,,,
,,,,,V1_015,22,Female,2024-05-14_16h37.32.105,jersey_experiment_5_v1,2023.2.2,Win32,85.47008547,,,,,,,,,,,,,,,,697.1708,698.9706,698.9706,699.3474,return,0.0138,,75,,,,,,FBP-OG-19.png,0.43,1.2,44,1,,,,,,,,,,,,,0,56,56,43,1,,,,,,,,,,,,,,,,,,,,,,,,,,,,
,,,,,V1_015,22,Female,2024-05-14_16h37.32.105,jersey_experiment_5_v1,2023.2.2,Win32,85.47008547,,,,,,,,,,,,,,,,699.3477,701.1471,701.1471,702.4177,return,0.1518,,53.25520833,,,,,,FBP-RB-71.png,0.37,1.2,47,1,,,,,,,,,,,,,0,57,57,46,1,,,,,,,,,,,,,,,,,,,,,,,,,,,,
,,,,,V1_015,22,Female,2024-05-14_16h37.32.105,jersey_experiment_5_v1,2023.2.2,Win32,85.47008547,,,,,,,,,,,,,,,,702.418,704.218,704.218,704.912,return,0.2382,,58.85416667,,,,,,FBP-OG-18.png,0.37,1.2,37,1,,,,,,,,,,,,,0,58,58,36,1,,,,,,,,,,,,,,,,,,,,,,,,,,,,
,,,,,V1_015,22,Female,2024-05-14_16h37.32.105,jersey_experiment_5_v1,2023.2.2,Win32,85.47008547,,,,,,,,,,,,,,,,704.9121,706.7122,706.7122,707.9239,return,0.2589,,64.58333333,,,,,,FBP-YG-17.png,0.43,1.2,19,1,,,,,,,,,,,,,0,59,59,18,1,,,,,,,,,,,,,,,,,,,,,,,,,,,,
,,,,,V1_015,22,Female,2024-05-14_16h37.32.105,jersey_experiment_5_v1,2023.2.2,Win32,85.47008547,,,,,,,,,,,,,,,,707.9254,709.7241,709.7241,710.8771,return,0.074,,48.046875,,,,,,FBP-RB-17.png,0.35,1.2,46,1,,,,,,,,,,,,,,,,,,0,0,0,45,1,,,,,,,,,,,,,,,,,,,,,,,
,,,,,V1_015,22,Female,2024-05-14_16h37.32.105,jersey_experiment_5_v1,2023.2.2,Win32,85.47008547,,,,,,,,,,,,,,,,710.8776,712.6769,712.6769,713.7242,return,0.0985,,70.44270833,,,,,,FBP-OG-91.png,0.43,1.2,44,1,,,,,,,,,,,,,,,,,,0,1,1,43,1,,,,,,,,,,,,,,,,,,,,,,,
,,,,,V1_015,22,Female,2024-05-14_16h37.32.105,jersey_experiment_5_v1,2023.2.2,Win32,85.47008547,,,,,,,,,,,,,,,,713.7244,715.5242,715.5242,716.0183,return,0.1041,,78.77604167,,,,,,FBP-RB-17.png,0.45,1.2,50,1,,,,,,,,,,,,,,,,,,0,2,2,49,1,,,,,,,,,,,,,,,,,,,,,,,
,,,,,V1_015,22,Female,2024-05-14_16h37.32.105,jersey_experiment_5_v1,2023.2.2,Win32,85.47008547,,,,,,,,,,,,,,,,716.0185,717.3124,717.3124,718.7243,return,0.682,,75.65104167,,,,,,FBP-PT-18.png,0.43,1.2,9,0.5,,,,,,,,,,,,,,,,,,0,3,3,8,1,,,,,,,,,,,,,,,,,,,,,,,
,,,,,V1_015,22,Female,2024-05-14_16h37.32.105,jersey_experiment_5_v1,2023.2.2,Win32,85.47008547,,,,,,,,,,,,,,,,718.7245,720.5246,720.5247,721.548,return,0.6048,,59.50520833,,,,,,FBP-YG-81.png,0.35,1.2,21,1,,,,,,,,,,,,,,,,,,0,4,4,20,1,,,,,,,,,,,,,,,,,,,,,,,
,,,,,V1_015,22,Female,2024-05-14_16h37.32.105,jersey_experiment_5_v1,2023.2.2,Win32,85.47008547,,,,,,,,,,,,,,,,721.5482,723.3482,723.3482,723.9951,return,0.2291,,75.78125,,,,,,FBP-RB-19.png,0.43,1.2,59,1,,,,,,,,,,,,,,,,,,0,5,5,58,1,,,,,,,,,,,,,,,,,,,,,,,
,,,,,V1_015,22,Female,2024-05-14_16h37.32.105,jersey_experiment_5_v1,2023.2.2,Win32,85.47008547,,,,,,,,,,,,,,,,723.9953,725.7953,725.7953,726.1717,return,0.0422,,77.60416667,,,,,,FBP-OG-71.png,0.45,1.2,35,1,,,,,,,,,,,,,,,,,,0,6,6,34,1,,,,,,,,,,,,,,,,,,,,,,,
,,,,,V1_015,22,Female,2024-05-14_16h37.32.105,jersey_experiment_5_v1,2023.2.2,Win32,85.47008547,,,,,,,,,,,,,,,,726.1719,727.9717,727.9717,728.5717,return,0.0051,,64.84375,,,,,,FBP-OG-81.png,0.35,1.2,36,1,,,,,,,,,,,,,,,,,,0,7,7,35,1,,,,,,,,,,,,,,,,,,,,,,,
,,,,,V1_015,22,Female,2024-05-14_16h37.32.105,jersey_experiment_5_v1,2023.2.2,Win32,85.47008547,,,,,,,,,,,,,,,,728.5719,729.8658,729.8658,730.96,return,0.0595,,76.953125,,,,,,FBP-PT-19.png,0.45,1.2,15,0.5,,,,,,,,,,,,,,,,,,0,8,8,14,1,,,,,,,,,,,,,,,,,,,,,,,
,,,,,V1_015,22,Female,2024-05-14_16h37.32.105,jersey_experiment_5_v1,2023.2.2,Win32,85.47008547,,,,,,,,,,,,,,,,730.9602,732.7601,732.7601,733.266,return,0.0806,,73.828125,,,,,,FBP-RB-17.png,0.43,1.2,49,1,,,,,,,,,,,,,,,,,,0,9,9,48,1,,,,,,,,,,,,,,,,,,,,,,,
,,,,,V1_015,22,Female,2024-05-14_16h37.32.105,jersey_experiment_5_v1,2023.2.2,Win32,85.47008547,,,,,,,,,,,,,,,,733.2662,735.0662,735.0663,735.4661,return,0.0675,,72.91666667,,,,,,FBP-RB-18.png,0.4,1.2,53,1,,,,,,,,,,,,,,,,,,0,10,10,52,1,,,,,,,,,,,,,,,,,,,,,,,
,,,,,V1_015,22,Female,2024-05-14_16h37.32.105,jersey_experiment_5_v1,2023.2.2,Win32,85.47008547,,,,,,,,,,,,,,,,735.4662,737.2662,737.2662,737.6425,return,0.041,,72.65625,,,,,,FBP-RB-19.png,0.45,1.2,60,1,,,,,,,,,,,,,,,,,,0,11,11,59,1,,,,,,,,,,,,,,,,,,,,,,,
,,,,,V1_015,22,Female,2024-05-14_16h37.32.105,jersey_experiment_5_v1,2023.2.2,Win32,85.47008547,,,,,,,,,,,,,,,,737.6426,738.9368,738.9368,739.5487,return,0.0767,,72.265625,,,,,,FBP-PT-17.png,0.45,1.2,5,0.5,,,,,,,,,,,,,,,,,,0,12,12,4,1,,,,,,,,,,,,,,,,,,,,,,,
,,,,,V1_015,22,Female,2024-05-14_16h37.32.105,jersey_experiment_5_v1,2023.2.2,Win32,85.47008547,,,,,,,,,,,,,,,,739.5488,740.8427,740.8427,742.0193,return,0.0335,,52.08333333,,,,,,FBP-PT-17.png,0.35,1.2,1,0.5,,,,,,,,,,,,,,,,,,0,13,13,0,1,,,,,,,,,,,,,,,,,,,,,,,
,,,,,V1_015,22,Female,2024-05-14_16h37.32.105,jersey_experiment_5_v1,2023.2.2,Win32,85.47008547,,,,,,,,,,,,,,,,742.0195,743.8196,743.8197,744.29,return,0.0608,,50.390625,,,,,,FBP-YG-91.png,0.35,1.2,26,1,,,,,,,,,,,,,,,,,,0,14,14,25,1,,,,,,,,,,,,,,,,,,,,,,,
,,,,,V1_015,22,Female,2024-05-14_16h37.32.105,jersey_experiment_5_v1,2023.2.2,Win32,85.47008547,,,,,,,,,,,,,,,,744.2902,746.0899,746.0899,746.7137,return,0.0447,,56.77083333,,,,,,FBP-OG-91.png,0.37,1.2,42,1,,,,,,,,,,,,,,,,,,0,15,15,41,1,,,,,,,,,,,,,,,,,,,,,,,
,,,,,V1_015,22,Female,2024-05-14_16h37.32.105,jersey_experiment_5_v1,2023.2.2,Win32,85.47008547,,,,,,,,,,,,,,,,746.7138,748.5135,748.5135,749.0431,return,0.1165,,59.765625,,,,,,FBP-YG-91.png,0.4,1.2,28,1,,,,,,,,,,,,,,,,,,0,16,16,27,1,,,,,,,,,,,,,,,,,,,,,,,
,,,,,V1_015,22,Female,2024-05-14_16h37.32.105,jersey_experiment_5_v1,2023.2.2,Win32,85.47008547,,,,,,,,,,,,,,,,749.0433,750.843,750.8431,751.6666,return,0.353,,65.625,,,,,,FBP-YG-91.png,0.43,1.2,29,1,,,,,,,,,,,,,,,,,,0,17,17,28,1,,,,,,,,,,,,,,,,,,,,,,,
,,,,,V1_015,22,Female,2024-05-14_16h37.32.105,jersey_experiment_5_v1,2023.2.2,Win32,85.47008547,,,,,,,,,,,,,,,,751.6667,753.4668,753.4668,753.9137,return,0.0308,,70.05208333,,,,,,FBP-OG-91.png,0.4,1.2,43,1,,,,,,,,,,,,,,,,,,0,18,18,42,1,,,,,,,,,,,,,,,,,,,,,,,
,,,,,V1_015,22,Female,2024-05-14_16h37.32.105,jersey_experiment_5_v1,2023.2.2,Win32,85.47008547,,,,,,,,,,,,,,,,753.9139,755.208,755.208,755.8905,return,0.1414,,75.13020833,,,,,,FBP-PT-18.png,0.45,1.2,10,0.5,,,,,,,,,,,,,,,,,,0,19,19,9,1,,,,,,,,,,,,,,,,,,,,,,,
,,,,,V1_015,22,Female,2024-05-14_16h37.32.105,jersey_experiment_5_v1,2023.2.2,Win32,85.47008547,,,,,,,,,,,,,,,,755.8907,757.1845,757.1845,758.2199,return,0.207,,69.66145833,,,,,,FBP-PT-18.png,0.37,1.2,7,0.5,,,,,,,,,,,,,,,,,,0,20,20,6,1,,,,,,,,,,,,,,,,,,,,,,,
,,,,,V1_015,22,Female,2024-05-14_16h37.32.105,jersey_experiment_5_v1,2023.2.2,Win32,85.47008547,,,,,,,,,,,,,,,,758.2201,760.0198,760.0199,760.7376,return,0.1549,,70.18229167,,,,,,FBP-YG-71.png,0.45,1.2,20,1,,,,,,,,,,,,,,,,,,0,21,21,19,1,,,,,,,,,,,,,,,,,,,,,,,
,,,,,V1_015,22,Female,2024-05-14_16h37.32.105,jersey_experiment_5_v1,2023.2.2,Win32,85.47008547,,,,,,,,,,,,,,,,760.7379,762.5378,762.5378,763.02,return,0.0892,,70.18229167,,,,,,FBP-YG-81.png,0.4,1.2,23,1,,,,,,,,,,,,,,,,,,0,22,22,22,1,,,,,,,,,,,,,,,,,,,,,,,
,,,,,V1_015,22,Female,2024-05-14_16h37.32.105,jersey_experiment_5_v1,2023.2.2,Win32,85.47008547,,,,,,,,,,,,,,,,763.0203,764.82,764.8201,765.6436,return,0.205,,70.05208333,,,,,,FBP-RB-17.png,0.4,1.2,48,1,,,,,,,,,,,,,,,,,,0,23,23,47,1,,,,,,,,,,,,,,,,,,,,,,,
,,,,,V1_015,22,Female,2024-05-14_16h37.32.105,jersey_experiment_5_v1,2023.2.2,Win32,85.47008547,,,,,,,,,,,,,,,,765.6437,767.4437,767.4437,768.0202,return,0.0337,,70.05208333,,,,,,FBP-YG-81.png,0.43,1.2,24,1,,,,,,,,,,,,,,,,,,0,24,24,23,1,,,,,,,,,,,,,,,,,,,,,,,
,,,,,V1_015,22,Female,2024-05-14_16h37.32.105,jersey_experiment_5_v1,2023.2.2,Win32,85.47008547,,,,,,,,,,,,,,,,768.0204,769.8204,769.8204,770.3381,return,0.06,,64.32291667,,,,,,FBP-YG-71.png,0.4,1.2,18,1,,,,,,,,,,,,,,,,,,0,25,25,17,1,,,,,,,,,,,,,,,,,,,,,,,
,,,,,V1_015,22,Female,2024-05-14_16h37.32.105,jersey_experiment_5_v1,2023.2.2,Win32,85.47008547,,,,,,,,,,,,,,,,770.3383,772.138,772.138,772.5734,return,0.0174,,39.453125,,,,,,FBP-OG-91.png,0.35,1.2,41,1,,,,,,,,,,,,,,,,,,0,26,26,40,1,,,,,,,,,,,,,,,,,,,,,,,
,,,,,V1_015,22,Female,2024-05-14_16h37.32.105,jersey_experiment_5_v1,2023.2.2,Win32,85.47008547,,,,,,,,,,,,,,,,772.5736,774.3734,774.3735,774.7853,return,0.0377,,38.41145833,,,,,,FBP-RB-19.png,0.37,1.2,57,1,,,,,,,,,,,,,,,,,,0,27,27,56,1,,,,,,,,,,,,,,,,,,,,,,,
,,,,,V1_015,22,Female,2024-05-14_16h37.32.105,jersey_experiment_5_v1,2023.2.2,Win32,85.47008547,,,,,,,,,,,,,,,,774.7854,776.5851,776.5851,777.4912,return,0.0242,,59.765625,,,,,,FBP-YG-81.png,0.45,1.2,25,1,,,,,,,,,,,,,,,,,,0,28,28,24,1,,,,,,,,,,,,,,,,,,,,,,,
,,,,,V1_015,22,Female,2024-05-14_16h37.32.105,jersey_experiment_5_v1,2023.2.2,Win32,85.47008547,,,,,,,,,,,,,,,,777.4914,779.2913,779.2913,779.7737,return,0.0495,,38.93229167,,,,,,FBP-YG-91.png,0.37,1.2,27,1,,,,,,,,,,,,,,,,,,0,29,29,26,1,,,,,,,,,,,,,,,,,,,,,,,
,,,,,V1_015,22,Female,2024-05-14_16h37.32.105,jersey_experiment_5_v1,2023.2.2,Win32,85.47008547,,,,,,,,,,,,,,,,779.7739,781.5737,781.5737,782.0912,return,0.0401,,35.28645833,,,,,,FBP-YG-71.png,0.37,1.2,17,1,,,,,,,,,,,,,,,,,,0,30,30,16,1,,,,,,,,,,,,,,,,,,,,,,,
,,,,,V1_015,22,Female,2024-05-14_16h37.32.105,jersey_experiment_5_v1,2023.2.2,Win32,85.47008547,,,,,,,,,,,,,,,,782.0914,783.3854,783.3855,784.4208,return,0.0238,,45.83333333,,,,,,FBP-PT-19.png,0.4,1.2,13,0.5,,,,,,,,,,,,,,,,,,0,31,31,12,1,,,,,,,,,,,,,,,,,,,,,,,
,,,,,V1_015,22,Female,2024-05-14_16h37.32.105,jersey_experiment_5_v1,2023.2.2,Win32,85.47008547,,,,,,,,,,,,,,,,784.4211,786.2208,786.2208,786.621,return,0.0172,,58.72395833,,,,,,FBP-YG-71.png,0.43,1.2,19,1,,,,,,,,,,,,,,,,,,0,32,32,18,1,,,,,,,,,,,,,,,,,,,,,,,
,,,,,V1_015,22,Female,2024-05-14_16h37.32.105,jersey_experiment_5_v1,2023.2.2,Win32,85.47008547,,,,,,,,,,,,,,,,786.6212,788.421,788.4211,789.0092,return,0.0114,,38.41145833,,,,,,FBP-YG-81.png,0.37,1.2,22,1,,,,,,,,,,,,,,,,,,0,33,33,21,1,,,,,,,,,,,,,,,,,,,,,,,
,,,,,V1_015,22,Female,2024-05-14_16h37.32.105,jersey_experiment_5_v1,2023.2.2,Win32,85.47008547,,,,,,,,,,,,,,,,789.0094,790.8091,790.8092,791.4448,return,0.0244,,33.984375,,,,,,FBP-OG-71.png,0.37,1.2,32,1,,,,,,,,,,,,,,,,,,0,34,34,31,1,,,,,,,,,,,,,,,,,,,,,,,
,,,,,V1_015,22,Female,2024-05-14_16h37.32.105,jersey_experiment_5_v1,2023.2.2,Win32,85.47008547,,,,,,,,,,,,,,,,791.445,793.2447,793.2447,794.0212,return,0.0328,,65.234375,,,,,,FBP-RB-18.png,0.43,1.2,54,1,,,,,,,,,,,,,,,,,,0,35,35,53,1,,,,,,,,,,,,,,,,,,,,,,,
,,,,,V1_015,22,Female,2024-05-14_16h37.32.105,jersey_experiment_5_v1,2023.2.2,Win32,85.47008547,,,,,,,,,,,,,,,,794.0214,795.8211,795.8211,796.9389,return,0.0786,,28.77604167,,,,,,FBP-YG-71.png,0.35,1.2,16,1,,,,,,,,,,,,,,,,,,0,36,36,15,1,,,,,,,,,,,,,,,,,,,,,,,
,,,,,V1_015,22,Female,2024-05-14_16h37.32.105,jersey_experiment_5_v1,2023.2.2,Win32,85.47008547,,,,,,,,,,,,,,,,796.939,798.739,798.7391,799.4095,return,0.0482,,71.74479167,,,,,,FBP-OG-71.png,0.4,1.2,33,1,,,,,,,,,,,,,,,,,,0,37,37,32,1,,,,,,,,,,,,,,,,,,,,,,,
,,,,,V1_015,22,Female,2024-05-14_16h37.32.105,jersey_experiment_5_v1,2023.2.2,Win32,85.47008547,,,,,,,,,,,,,,,,799.4097,801.2096,801.2097,801.7391,return,0.0074,,55.46875,,,,,,FBP-RB-17.png,0.37,1.2,47,1,,,,,,,,,,,,,,,,,,0,38,38,46,1,,,,,,,,,,,,,,,,,,,,,,,
,,,,,V1_015,22,Female,2024-05-14_16h37.32.105,jersey_experiment_5_v1,2023.2.2,Win32,85.47008547,,,,,,,,,,,,,,,,801.7392,803.5393,803.5393,803.904,return,0.026,,36.58854167,,,,,,FBP-RB-18.png,0.35,1.2,51,1,,,,,,,,,,,,,,,,,,0,39,39,50,1,,,,,,,,,,,,,,,,,,,,,,,
,,,,,V1_015,22,Female,2024-05-14_16h37.32.105,jersey_experiment_5_v1,2023.2.2,Win32,85.47008547,,,,,,,,,,,,,,,,803.9041,805.7039,805.7039,806.0098,return,0.1244,,30.98958333,,,,,,FBP-RB-19.png,0.35,1.2,56,1,,,,,,,,,,,,,,,,,,0,40,40,55,1,,,,,,,,,,,,,,,,,,,,,,,
,,,,,V1_015,22,Female,2024-05-14_16h37.32.105,jersey_experiment_5_v1,2023.2.2,Win32,85.47008547,,,,,,,,,,,,,,,,806.01,807.3041,807.3041,807.9981,return,0.0518,,52.47395833,,,,,,FBP-PT-17.png,0.37,1.2,2,0.5,,,,,,,,,,,,,,,,,,0,41,41,1,1,,,,,,,,,,,,,,,,,,,,,,,
,,,,,V1_015,22,Female,2024-05-14_16h37.32.105,jersey_experiment_5_v1,2023.2.2,Win32,85.47008547,,,,,,,,,,,,,,,,807.9983,809.7981,809.7981,810.2218,return,0.0405,,66.40625,,,,,,FBP-OG-71.png,0.43,1.2,34,1,,,,,,,,,,,,,,,,,,0,42,42,33,1,,,,,,,,,,,,,,,,,,,,,,,
,,,,,V1_015,22,Female,2024-05-14_16h37.32.105,jersey_experiment_5_v1,2023.2.2,Win32,85.47008547,,,,,,,,,,,,,,,,810.222,811.5159,811.5159,812.1395,return,0.0305,,36.84895833,,,,,,FBP-PT-18.png,0.35,1.2,6,0.5,,,,,,,,,,,,,,,,,,0,43,43,5,1,,,,,,,,,,,,,,,,,,,,,,,
,,,,,V1_015,22,Female,2024-05-14_16h37.32.105,jersey_experiment_5_v1,2023.2.2,Win32,85.47008547,,,,,,,,,,,,,,,,812.1397,813.9397,813.9398,814.3631,return,0.0525,,35.41666667,,,,,,FBP-RB-18.png,0.37,1.2,52,1,,,,,,,,,,,,,,,,,,0,44,44,51,1,,,,,,,,,,,,,,,,,,,,,,,
,,,,,V1_015,22,Female,2024-05-14_16h37.32.105,jersey_experiment_5_v1,2023.2.2,Win32,85.47008547,,,,,,,,,,,,,,,,814.3634,816.1631,816.1631,816.7985,return,0.0041,,77.60416667,,,,,,FBP-YG-91.png,0.45,1.2,30,1,,,,,,,,,,,,,,,,,,0,45,45,29,1,,,,,,,,,,,,,,,,,,,,,,,
,,,,,V1_015,22,Female,2024-05-14_16h37.32.105,jersey_experiment_5_v1,2023.2.2,Win32,85.47008547,,,,,,,,,,,,,,,,816.7987,818.0927,818.0927,819.1398,return,0.4142,,45.05208333,,,,,,FBP-PT-19.png,0.37,1.2,12,0.5,,,,,,,,,,,,,,,,,,0,46,46,11,1,,,,,,,,,,,,,,,,,,,,,,,
,,,,,V1_015,22,Female,2024-05-14_16h37.32.105,jersey_experiment_5_v1,2023.2.2,Win32,85.47008547,,,,,,,,,,,,,,,,819.14,820.4341,820.4342,821.3281,return,0.447,,70.83333333,,,,,,FBP-PT-17.png,0.43,1.2,4,0.5,,,,,,,,,,,,,,,,,,0,47,47,3,1,,,,,,,,,,,,,,,,,,,,,,,
,,,,,V1_015,22,Female,2024-05-14_16h37.32.105,jersey_experiment_5_v1,2023.2.2,Win32,85.47008547,,,,,,,,,,,,,,,,821.3283,823.1281,823.1281,824.0929,return,0.5471,,67.44791667,,,,,,FBP-OG-81.png,0.4,1.2,38,1,,,,,,,,,,,,,,,,,,0,48,48,37,1,,,,,,,,,,,,,,,,,,,,,,,
,,,,,V1_015,22,Female,2024-05-14_16h37.32.105,jersey_experiment_5_v1,2023.2.2,Win32,85.47008547,,,,,,,,,,,,,,,,824.0931,825.3869,825.3869,825.9638,return,0.0424,,74.34895833,,,,,,FBP-PT-19.png,0.43,1.2,14,0.5,,,,,,,,,,,,,,,,,,0,49,49,13,1,,,,,,,,,,,,,,,,,,,,,,,
,,,,,V1_015,22,Female,2024-05-14_16h37.32.105,jersey_experiment_5_v1,2023.2.2,Win32,85.47008547,,,,,,,,,,,,,,,,825.964,827.7635,827.7635,828.14,return,0.0166,,74.08854167,,,,,,FBP-OG-81.png,0.43,1.2,39,1,,,,,,,,,,,,,,,,,,0,50,50,38,1,,,,,,,,,,,,,,,,,,,,,,,
,,,,,V1_015,22,Female,2024-05-14_16h37.32.105,jersey_experiment_5_v1,2023.2.2,Win32,85.47008547,,,,,,,,,,,,,,,,828.1402,829.9401,829.9401,830.3047,return,0.0115,,72.13541667,,,,,,FBP-RB-19.png,0.4,1.2,58,1,,,,,,,,,,,,,,,,,,0,51,51,57,1,,,,,,,,,,,,,,,,,,,,,,,
,,,,,V1_015,22,Female,2024-05-14_16h37.32.105,jersey_experiment_5_v1,2023.2.2,Win32,85.47008547,,,,,,,,,,,,,,,,830.305,832.1051,832.1051,832.9637,return,0.457,,74.47916667,,,,,,FBP-OG-91.png,0.45,1.2,45,1,,,,,,,,,,,,,,,,,,0,52,52,44,1,,,,,,,,,,,,,,,,,,,,,,,
,,,,,V1_015,22,Female,2024-05-14_16h37.32.105,jersey_experiment_5_v1,2023.2.2,Win32,85.47008547,,,,,,,,,,,,,,,,832.9639,834.2579,834.2579,834.7873,return,0.0146,,75.52083333,,,,,,FBP-PT-17.png,0.4,1.2,3,0.5,,,,,,,,,,,,,,,,,,0,53,53,2,1,,,,,,,,,,,,,,,,,,,,,,,
,,,,,V1_015,22,Female,2024-05-14_16h37.32.105,jersey_experiment_5_v1,2023.2.2,Win32,85.47008547,,,,,,,,,,,,,,,,834.7875,836.5873,836.5874,837.3169,return,0.3531,,81.11979167,,,,,,FBP-RB-18.png,0.45,1.2,55,1,,,,,,,,,,,,,,,,,,0,54,54,54,1,,,,,,,,,,,,,,,,,,,,,,,
,,,,,V1_015,22,Female,2024-05-14_16h37.32.105,jersey_experiment_5_v1,2023.2.2,Win32,85.47008547,,,,,,,,,,,,,,,,837.3171,838.611,838.611,839.6581,return,0.0437,,36.97916667,,,,,,FBP-PT-19.png,0.35,1.2,11,0.5,,,,,,,,,,,,,,,,,,0,55,55,10,1,,,,,,,,,,,,,,,,,,,,,,,
,,,,,V1_015,22,Female,2024-05-14_16h37.32.105,jersey_experiment_5_v1,2023.2.2,Win32,85.47008547,,,,,,,,,,,,,,,,839.6583,841.4582,841.4583,841.8582,return,0.0103,,29.55729167,,,,,,FBP-OG-71.png,0.35,1.2,31,1,,,,,,,,,,,,,,,,,,0,56,56,30,1,,,,,,,,,,,,,,,,,,,,,,,
,,,,,V1_015,22,Female,2024-05-14_16h37.32.105,jersey_experiment_5_v1,2023.2.2,Win32,85.47008547,,,,,,,,,,,,,,,,841.8584,843.6585,843.6585,844.1642,return,0.0475,,80.859375,,,,,,FBP-OG-81.png,0.45,1.2,40,1,,,,,,,,,,,,,,,,,,0,57,57,39,1,,,,,,,,,,,,,,,,,,,,,,,
,,,,,V1_015,22,Female,2024-05-14_16h37.32.105,jersey_experiment_5_v1,2023.2.2,Win32,85.47008547,,,,,,,,,,,,,,,,844.1643,845.4584,845.4584,846.0818,return,0.037,,61.06770833,,,,,,FBP-PT-18.png,0.4,1.2,8,0.5,,,,,,,,,,,,,,,,,,0,58,58,7,1,,,,,,,,,,,,,,,,,,,,,,,
,,,,,V1_015,22,Female,2024-05-14_16h37.32.105,jersey_experiment_5_v1,2023.2.2,Win32,85.47008547,,,,,,,,,,,,,,,,846.0819,847.882,847.882,849.2584,return,0.4435,,46.61458333,,,,,,FBP-OG-81.png,0.37,1.2,37,1,,,,,,,,,,,,,,,,,,0,59,59,36,1,,,,,,,,,,,,,,,,,,,,,,,
,,,,,V1_015,22,Female,2024-05-14_16h37.32.105,jersey_experiment_5_v1,2023.2.2,Win32,85.47008547,,,,,,,,,,,,,,,,,,,,,,,,,,,,,,,,,,,,,,,,,,,,,,,,,,,,,,,,849.2588,859.7886,return,10.5242,,,,,,,,,,,,,,,,,,,
,,,,,V1_015,22,Female,2024-05-14_16h37.32.105,jersey_experiment_5_v1,2023.2.2,Win32,85.47008547,,,,,,,,,,,,,,,,,,,,,,,,,,,,,,,,,,,,,,,,,,,,,,,,,,,,,,,,,,,,,859.7887,869.6005,1,8.1042,return,1.6824,,,,,,,,,,,,
,,,,,V1_015,22,Female,2024-05-14_16h37.32.105,jersey_experiment_5_v1,2023.2.2,Win32,85.47008547,,,,,,,,,,,,,,,,,,,,,,,,,,,,,,,,,,,,,,,,,,,,,,,,,,,,,,,,,,,,,,,,,,,,869.6007,924.384,"After seeing the one body pattern for a while, what people will think when they see the different body type.",right,40.1361,,,,,,
,,,,,V1_015,22,Female,2024-05-14_16h37.32.105,jersey_experiment_5_v1,2023.2.2,Win32,85.47008547,,,,,,,,,,,,,,,,,,,,,,,,,,,,,,,,,,,,,,,,,,,,,,,,,,,,,,,,,,,,,,,,,,,,,,,,,,924.3841,926.7672,return,2.368,