requirements.started,requirements.stopped,key_resp_3.keys,key_resp_3.rt,key_resp_3.duration,Subject ID,Age,Gender,date,expName,psychopyVersion,OS,frameRate,instructions1.started,instructions1.stopped,key_resp.keys,key_resp.rt,key_resp.duration,example.started,example.stopped,enter_2.keys,enter_2.rt,enter_2.duration,instructions2.started,instructions2.stopped,enter_3.keys,enter_3.rt,enter_3.duration,image.started,image.stopped,slider_2.started,slider_2.stopped,next.keys,next.rt,next.duration,slider.response,trial_block_1.thisRepN,trial_block_1.thisTrialN,trial_block_1.thisN,trial_block_1.thisIndex,trial_block_1.ran,Path,Width,Height,Index,Duration,trial_block_2.thisRepN,trial_block_2.thisTrialN,trial_block_2.thisN,trial_block_2.thisIndex,trial_block_2.ran,rest_break.started,rest_break.stopped,end_break.started,end_break.stopped,key_resp_5.keys,key_resp_5.rt,key_resp_5.duration,trial_block_3.thisRepN,trial_block_3.thisTrialN,trial_block_3.thisN,trial_block_3.thisIndex,trial_block_3.ran,trial_block_4.thisRepN,trial_block_4.thisTrialN,trial_block_4.thisN,trial_block_4.thisIndex,trial_block_4.ran,questions_intro.started,questions_intro.stopped,enter_12.keys,enter_12.rt,enter_12.duration,question2.started,question2.stopped,question_doingbest.response,question_doingbest.rt,enter_15.keys,enter_15.rt,enter_15.duration,pattern.started,pattern.stopped,pattern_2.text,enter_17.keys,enter_17.rt,enter_17.duration,thankyou.started,thankyou.stopped,enter_14.keys,enter_14.rt,enter_14.duration
0,15.0342,return,15.0293,,V1_008,22,female,2024-04-29_16h03.43.097,jersey_experiment_5_v1,2023.2.2,Win32,84.74576271,,,,,,,,,,,,,,,,,,,,,,,,,,,,,,,,,,,,,,,,,,,,,,,,,,,,,,,,,,,,,,,,,,,,,,,,,,,,,,
,,,,,V1_008,22,female,2024-04-29_16h03.43.097,jersey_experiment_5_v1,2023.2.2,Win32,84.74576271,15.0344,27.1285,return,12.0757,,,,,,,,,,,,,,,,,,,,,,,,,,,,,,,,,,,,,,,,,,,,,,,,,,,,,,,,,,,,,,,,,,,,,,,,,,
,,,,,V1_008,22,female,2024-04-29_16h03.43.097,jersey_experiment_5_v1,2023.2.2,Win32,84.74576271,,,,,,27.1286,36.9409,return,9.7708,,,,,,,,,,,,,,,,,,,,,,,,,,,,,,,,,,,,,,,,,,,,,,,,,,,,,,,,,,,,,,,,,,,,,
,,,,,V1_008,22,female,2024-04-29_16h03.43.097,jersey_experiment_5_v1,2023.2.2,Win32,84.74576271,,,,,,,,,,,36.941,63.1179,return,26.1521,,,,,,,,,,,,,,,,,,,,,,,,,,,,,,,,,,,,,,,,,,,,,,,,,,,,,,,,,,,,,,,,
,,,,,V1_008,22,female,2024-04-29_16h03.43.097,jersey_experiment_5_v1,2023.2.2,Win32,84.74576271,,,,,,,,,,,,,,,,63.1249,64.4268,64.4269,73.3772,return,4.9504,,75.65104167,0,0,0,29,1,FBP-YG-19.png,0.45,1.2,30,0.5,,,,,,,,,,,,,,,,,,,,,,,,,,,,,,,,,,,,,,,,,,,,,
,,,,,V1_008,22,female,2024-04-29_16h03.43.097,jersey_experiment_5_v1,2023.2.2,Win32,84.74576271,,,,,,,,,,,,,,,,73.3817,75.1774,75.1774,79.4714,return,1.5392,,99.73958333,0,1,1,9,1,FBP-PT-81.png,0.45,1.2,10,1,,,,,,,,,,,,,,,,,,,,,,,,,,,,,,,,,,,,,,,,,,,,,
,,,,,V1_008,22,female,2024-04-29_16h03.43.097,jersey_experiment_5_v1,2023.2.2,Win32,84.74576271,,,,,,,,,,,,,,,,79.4718,80.7656,80.7656,84.0128,return,1.249,,99.86979167,0,2,2,39,1,FBP-OG-18.png,0.45,1.2,40,0.5,,,,,,,,,,,,,,,,,,,,,,,,,,,,,,,,,,,,,,,,,,,,,
,,,,,V1_008,22,female,2024-04-29_16h03.43.097,jersey_experiment_5_v1,2023.2.2,Win32,84.74576271,,,,,,,,,,,,,,,,84.013,85.8129,85.8129,88.6366,return,1.1532,,86.84895833,0,3,3,14,1,FBP-PT-91.png,0.45,1.2,15,1,,,,,,,,,,,,,,,,,,,,,,,,,,,,,,,,,,,,,,,,,,,,,
,,,,,V1_008,22,female,2024-04-29_16h03.43.097,jersey_experiment_5_v1,2023.2.2,Win32,84.74576271,,,,,,,,,,,,,,,,88.6368,89.9307,89.9307,95.0484,return,2.2182,,77.99479167,0,4,4,48,1,FBP-RB-71.png,0.43,1.2,49,0.5,,,,,,,,,,,,,,,,,,,,,,,,,,,,,,,,,,,,,,,,,,,,,
,,,,,V1_008,22,female,2024-04-29_16h03.43.097,jersey_experiment_5_v1,2023.2.2,Win32,84.74576271,,,,,,,,,,,,,,,,95.0487,96.8486,96.8487,100.6723,return,1.28,,24.86979167,0,5,5,1,1,FBP-PT-71.png,0.37,1.2,2,1,,,,,,,,,,,,,,,,,,,,,,,,,,,,,,,,,,,,,,,,,,,,,
,,,,,V1_008,22,female,2024-04-29_16h03.43.097,jersey_experiment_5_v1,2023.2.2,Win32,84.74576271,,,,,,,,,,,,,,,,100.6724,101.9664,101.9665,103.7666,return,0.7353,,24.86979167,0,6,6,36,1,FBP-OG-18.png,0.37,1.2,37,0.5,,,,,,,,,,,,,,,,,,,,,,,,,,,,,,,,,,,,,,,,,,,,,
,,,,,V1_008,22,female,2024-04-29_16h03.43.097,jersey_experiment_5_v1,2023.2.2,Win32,84.74576271,,,,,,,,,,,,,,,,103.7668,105.0607,105.0608,111.5668,return,4.6589,,54.6875,0,7,7,43,1,FBP-OG-19.png,0.43,1.2,44,0.5,,,,,,,,,,,,,,,,,,,,,,,,,,,,,,,,,,,,,,,,,,,,,
,,,,,V1_008,22,female,2024-04-29_16h03.43.097,jersey_experiment_5_v1,2023.2.2,Win32,84.74576271,,,,,,,,,,,,,,,,111.5669,113.367,113.367,118.3906,return,2.973,,29.03645833,0,8,8,11,1,FBP-PT-91.png,0.37,1.2,12,1,,,,,,,,,,,,,,,,,,,,,,,,,,,,,,,,,,,,,,,,,,,,,
,,,,,V1_008,22,female,2024-04-29_16h03.43.097,jersey_experiment_5_v1,2023.2.2,Win32,84.74576271,,,,,,,,,,,,,,,,118.3908,119.6846,119.6846,124.4143,return,0.9515,,49.21875,0,9,9,26,1,FBP-YG-19.png,0.37,1.2,27,0.5,,,,,,,,,,,,,,,,,,,,,,,,,,,,,,,,,,,,,,,,,,,,,
,,,,,V1_008,22,female,2024-04-29_16h03.43.097,jersey_experiment_5_v1,2023.2.2,Win32,84.74576271,,,,,,,,,,,,,,,,124.4145,126.2144,126.2144,129.0852,return,1.7789,,52.86458333,0,10,10,12,1,FBP-PT-91.png,0.4,1.2,13,1,,,,,,,,,,,,,,,,,,,,,,,,,,,,,,,,,,,,,,,,,,,,,
,,,,,V1_008,22,female,2024-04-29_16h03.43.097,jersey_experiment_5_v1,2023.2.2,Win32,84.74576271,,,,,,,,,,,,,,,,129.0855,130.3792,130.3792,134.6029,return,2.8836,,63.54166667,0,11,11,37,1,FBP-OG-18.png,0.4,1.2,38,0.5,,,,,,,,,,,,,,,,,,,,,,,,,,,,,,,,,,,,,,,,,,,,,
,,,,,V1_008,22,female,2024-04-29_16h03.43.097,jersey_experiment_5_v1,2023.2.2,Win32,84.74576271,,,,,,,,,,,,,,,,134.6031,135.8973,135.8973,138.7796,return,1.1208,,69.921875,0,12,12,23,1,FBP-YG-18.png,0.43,1.2,24,0.5,,,,,,,,,,,,,,,,,,,,,,,,,,,,,,,,,,,,,,,,,,,,,
,,,,,V1_008,22,female,2024-04-29_16h03.43.097,jersey_experiment_5_v1,2023.2.2,Win32,84.74576271,,,,,,,,,,,,,,,,138.7799,140.0737,140.0737,142.5444,return,0.837,,25.13020833,0,13,13,50,1,FBP-RB-81.png,0.35,1.2,51,0.5,,,,,,,,,,,,,,,,,,,,,,,,,,,,,,,,,,,,,,,,,,,,,
,,,,,V1_008,22,female,2024-04-29_16h03.43.097,jersey_experiment_5_v1,2023.2.2,Win32,84.74576271,,,,,,,,,,,,,,,,142.5446,144.3444,144.3444,145.6857,return,0.6443,,24.86979167,0,14,14,5,1,FBP-PT-81.png,0.35,1.2,6,1,,,,,,,,,,,,,,,,,,,,,,,,,,,,,,,,,,,,,,,,,,,,,
,,,,,V1_008,22,female,2024-04-29_16h03.43.097,jersey_experiment_5_v1,2023.2.2,Win32,84.74576271,,,,,,,,,,,,,,,,145.6858,146.9798,146.9798,149.5448,return,0.7123,,99.47916667,0,15,15,34,1,FBP-OG-17.png,0.45,1.2,35,0.5,,,,,,,,,,,,,,,,,,,,,,,,,,,,,,,,,,,,,,,,,,,,,
,,,,,V1_008,22,female,2024-04-29_16h03.43.097,jersey_experiment_5_v1,2023.2.2,Win32,84.74576271,,,,,,,,,,,,,,,,149.5449,150.8388,150.8388,157.4155,return,4.8427,,37.5,0,16,16,55,1,FBP-RB-91.png,0.35,1.2,56,0.5,,,,,,,,,,,,,,,,,,,,,,,,,,,,,,,,,,,,,,,,,,,,,
,,,,,V1_008,22,female,2024-04-29_16h03.43.097,jersey_experiment_5_v1,2023.2.2,Win32,84.74576271,,,,,,,,,,,,,,,,157.4158,158.7097,158.7097,164.4629,return,3.106,,71.35416667,0,17,17,57,1,FBP-RB-91.png,0.4,1.2,58,0.5,,,,,,,,,,,,,,,,,,,,,,,,,,,,,,,,,,,,,,,,,,,,,
,,,,,V1_008,22,female,2024-04-29_16h03.43.097,jersey_experiment_5_v1,2023.2.2,Win32,84.74576271,,,,,,,,,,,,,,,,164.463,165.757,165.757,168.0395,return,0.9249,,16.27604167,0,18,18,45,1,FBP-RB-71.png,0.35,1.2,46,0.5,,,,,,,,,,,,,,,,,,,,,,,,,,,,,,,,,,,,,,,,,,,,,
,,,,,V1_008,22,female,2024-04-29_16h03.43.097,jersey_experiment_5_v1,2023.2.2,Win32,84.74576271,,,,,,,,,,,,,,,,168.0397,169.3336,169.3336,173.0045,return,0.8259,,99.609375,0,19,19,49,1,FBP-RB-71.png,0.45,1.2,50,0.5,,,,,,,,,,,,,,,,,,,,,,,,,,,,,,,,,,,,,,,,,,,,,
,,,,,V1_008,22,female,2024-04-29_16h03.43.097,jersey_experiment_5_v1,2023.2.2,Win32,84.74576271,,,,,,,,,,,,,,,,173.0047,174.2984,174.2984,177.4045,return,1.4236,,27.47395833,0,20,20,16,1,FBP-YG-17.png,0.37,1.2,17,0.5,,,,,,,,,,,,,,,,,,,,,,,,,,,,,,,,,,,,,,,,,,,,,
,,,,,V1_008,22,female,2024-04-29_16h03.43.097,jersey_experiment_5_v1,2023.2.2,Win32,84.74576271,,,,,,,,,,,,,,,,177.4048,178.6987,178.6987,180.334,return,0.565,,99.08854167,0,21,21,19,1,FBP-YG-17.png,0.45,1.2,20,0.5,,,,,,,,,,,,,,,,,,,,,,,,,,,,,,,,,,,,,,,,,,,,,
,,,,,V1_008,22,female,2024-04-29_16h03.43.097,jersey_experiment_5_v1,2023.2.2,Win32,84.74576271,,,,,,,,,,,,,,,,180.3343,181.6283,181.6283,183.4871,return,0.6587,,49.86979167,0,22,22,27,1,FBP-YG-19.png,0.4,1.2,28,0.5,,,,,,,,,,,,,,,,,,,,,,,,,,,,,,,,,,,,,,,,,,,,,
,,,,,V1_008,22,female,2024-04-29_16h03.43.097,jersey_experiment_5_v1,2023.2.2,Win32,84.74576271,,,,,,,,,,,,,,,,183.4873,184.7814,184.7814,186.4873,return,0.6194,,74.47916667,0,23,23,38,1,FBP-OG-18.png,0.43,1.2,39,0.5,,,,,,,,,,,,,,,,,,,,,,,,,,,,,,,,,,,,,,,,,,,,,
,,,,,V1_008,22,female,2024-04-29_16h03.43.097,jersey_experiment_5_v1,2023.2.2,Win32,84.74576271,,,,,,,,,,,,,,,,186.4874,187.7814,187.7814,190.3816,return,1.7555,,70.05208333,0,24,24,22,1,FBP-YG-18.png,0.4,1.2,23,0.5,,,,,,,,,,,,,,,,,,,,,,,,,,,,,,,,,,,,,,,,,,,,,
,,,,,V1_008,22,female,2024-04-29_16h03.43.097,jersey_experiment_5_v1,2023.2.2,Win32,84.74576271,,,,,,,,,,,,,,,,190.3818,191.6757,191.6757,193.311,return,0.5741,,75.13020833,0,25,25,17,1,FBP-YG-17.png,0.4,1.2,18,0.5,,,,,,,,,,,,,,,,,,,,,,,,,,,,,,,,,,,,,,,,,,,,,
,,,,,V1_008,22,female,2024-04-29_16h03.43.097,jersey_experiment_5_v1,2023.2.2,Win32,84.74576271,,,,,,,,,,,,,,,,193.3112,194.6052,194.6052,196.3936,return,0.5702,,67.1875,0,26,26,42,1,FBP-OG-19.png,0.4,1.2,43,0.5,,,,,,,,,,,,,,,,,,,,,,,,,,,,,,,,,,,,,,,,,,,,,
,,,,,V1_008,22,female,2024-04-29_16h03.43.097,jersey_experiment_5_v1,2023.2.2,Win32,84.74576271,,,,,,,,,,,,,,,,196.3938,197.6876,197.6876,201.4996,return,1.0944,,83.33333333,0,27,27,18,1,FBP-YG-17.png,0.43,1.2,19,0.5,,,,,,,,,,,,,,,,,,,,,,,,,,,,,,,,,,,,,,,,,,,,,
,,,,,V1_008,22,female,2024-04-29_16h03.43.097,jersey_experiment_5_v1,2023.2.2,Win32,84.74576271,,,,,,,,,,,,,,,,201.4997,202.7936,202.7936,207.1939,return,0.7437,,34.63541667,0,28,28,25,1,FBP-YG-19.png,0.35,1.2,26,0.5,,,,,,,,,,,,,,,,,,,,,,,,,,,,,,,,,,,,,,,,,,,,,
,,,,,V1_008,22,female,2024-04-29_16h03.43.097,jersey_experiment_5_v1,2023.2.2,Win32,84.74576271,,,,,,,,,,,,,,,,207.1941,208.4881,208.4881,210.3589,return,0.6641,,26.30208333,0,29,29,20,1,FBP-YG-18.png,0.35,1.2,21,0.5,,,,,,,,,,,,,,,,,,,,,,,,,,,,,,,,,,,,,,,,,,,,,
,,,,,V1_008,22,female,2024-04-29_16h03.43.097,jersey_experiment_5_v1,2023.2.2,Win32,84.74576271,,,,,,,,,,,,,,,,210.359,211.6529,211.6529,215.5471,return,0.7657,,54.42708333,0,30,30,47,1,FBP-RB-71.png,0.4,1.2,48,0.5,,,,,,,,,,,,,,,,,,,,,,,,,,,,,,,,,,,,,,,,,,,,,
,,,,,V1_008,22,female,2024-04-29_16h03.43.097,jersey_experiment_5_v1,2023.2.2,Win32,84.74576271,,,,,,,,,,,,,,,,215.5473,216.8413,216.8413,220.0886,return,1.7007,,86.19791667,0,31,31,53,1,FBP-RB-81.png,0.43,1.2,54,0.5,,,,,,,,,,,,,,,,,,,,,,,,,,,,,,,,,,,,,,,,,,,,,
,,,,,V1_008,22,female,2024-04-29_16h03.43.097,jersey_experiment_5_v1,2023.2.2,Win32,84.74576271,,,,,,,,,,,,,,,,220.0887,221.3826,221.3827,222.971,return,0.5803,,24.609375,0,32,32,35,1,FBP-OG-18.png,0.35,1.2,36,0.5,,,,,,,,,,,,,,,,,,,,,,,,,,,,,,,,,,,,,,,,,,,,,
,,,,,V1_008,22,female,2024-04-29_16h03.43.097,jersey_experiment_5_v1,2023.2.2,Win32,84.74576271,,,,,,,,,,,,,,,,222.9713,224.771,224.7711,226.6066,return,0.809,,90.10416667,0,33,33,13,1,FBP-PT-91.png,0.43,1.2,14,1,,,,,,,,,,,,,,,,,,,,,,,,,,,,,,,,,,,,,,,,,,,,,
,,,,,V1_008,22,female,2024-04-29_16h03.43.097,jersey_experiment_5_v1,2023.2.2,Win32,84.74576271,,,,,,,,,,,,,,,,226.6068,227.9006,227.9006,229.8183,return,0.6278,,25.13020833,0,34,34,51,1,FBP-RB-81.png,0.37,1.2,52,0.5,,,,,,,,,,,,,,,,,,,,,,,,,,,,,,,,,,,,,,,,,,,,,
,,,,,V1_008,22,female,2024-04-29_16h03.43.097,jersey_experiment_5_v1,2023.2.2,Win32,84.74576271,,,,,,,,,,,,,,,,229.8185,231.1123,231.1124,232.8067,return,0.5612,,75,0,35,35,52,1,FBP-RB-81.png,0.4,1.2,53,0.5,,,,,,,,,,,,,,,,,,,,,,,,,,,,,,,,,,,,,,,,,,,,,
,,,,,V1_008,22,female,2024-04-29_16h03.43.097,jersey_experiment_5_v1,2023.2.2,Win32,84.74576271,,,,,,,,,,,,,,,,232.8069,234.6067,234.6067,239.2305,return,2.9322,,44.40104167,0,36,36,6,1,FBP-PT-81.png,0.37,1.2,7,1,,,,,,,,,,,,,,,,,,,,,,,,,,,,,,,,,,,,,,,,,,,,,
,,,,,V1_008,22,female,2024-04-29_16h03.43.097,jersey_experiment_5_v1,2023.2.2,Win32,84.74576271,,,,,,,,,,,,,,,,239.2308,241.0308,241.0308,242.6069,return,0.5887,,49.73958333,0,37,37,10,1,FBP-PT-91.png,0.35,1.2,11,1,,,,,,,,,,,,,,,,,,,,,,,,,,,,,,,,,,,,,,,,,,,,,
,,,,,V1_008,22,female,2024-04-29_16h03.43.097,jersey_experiment_5_v1,2023.2.2,Win32,84.74576271,,,,,,,,,,,,,,,,242.6071,244.4071,244.4072,245.4307,return,0.5729,,49.73958333,0,38,38,7,1,FBP-PT-81.png,0.4,1.2,8,1,,,,,,,,,,,,,,,,,,,,,,,,,,,,,,,,,,,,,,,,,,,,,
,,,,,V1_008,22,female,2024-04-29_16h03.43.097,jersey_experiment_5_v1,2023.2.2,Win32,84.74576271,,,,,,,,,,,,,,,,245.4309,246.7248,246.7248,247.9484,return,0.5997,,49.73958333,0,39,39,21,1,FBP-YG-18.png,0.37,1.2,22,0.5,,,,,,,,,,,,,,,,,,,,,,,,,,,,,,,,,,,,,,,,,,,,,
,,,,,V1_008,22,female,2024-04-29_16h03.43.097,jersey_experiment_5_v1,2023.2.2,Win32,84.74576271,,,,,,,,,,,,,,,,247.9487,249.2424,249.2424,251.2546,return,1.6203,,61.58854167,0,40,40,41,1,FBP-OG-19.png,0.37,1.2,42,0.5,,,,,,,,,,,,,,,,,,,,,,,,,,,,,,,,,,,,,,,,,,,,,
,,,,,V1_008,22,female,2024-04-29_16h03.43.097,jersey_experiment_5_v1,2023.2.2,Win32,84.74576271,,,,,,,,,,,,,,,,251.2548,253.0546,253.0547,254.231,return,0.5489,,67.96875,0,41,41,2,1,FBP-PT-71.png,0.4,1.2,3,1,,,,,,,,,,,,,,,,,,,,,,,,,,,,,,,,,,,,,,,,,,,,,
,,,,,V1_008,22,female,2024-04-29_16h03.43.097,jersey_experiment_5_v1,2023.2.2,Win32,84.74576271,,,,,,,,,,,,,,,,254.2312,255.5253,255.5253,259.2901,return,2.6404,,46.22395833,0,42,42,15,1,FBP-YG-17.png,0.35,1.2,16,0.5,,,,,,,,,,,,,,,,,,,,,,,,,,,,,,,,,,,,,,,,,,,,,
,,,,,V1_008,22,female,2024-04-29_16h03.43.097,jersey_experiment_5_v1,2023.2.2,Win32,84.74576271,,,,,,,,,,,,,,,,259.2903,260.5843,260.5843,262.5842,return,0.6507,,99.34895833,0,43,43,44,1,FBP-OG-19.png,0.45,1.2,45,0.5,,,,,,,,,,,,,,,,,,,,,,,,,,,,,,,,,,,,,,,,,,,,,
,,,,,V1_008,22,female,2024-04-29_16h03.43.097,jersey_experiment_5_v1,2023.2.2,Win32,84.74576271,,,,,,,,,,,,,,,,262.5844,264.3843,264.3843,265.5138,return,0.5672,,96.875,0,44,44,4,1,FBP-PT-71.png,0.45,1.2,5,1,,,,,,,,,,,,,,,,,,,,,,,,,,,,,,,,,,,,,,,,,,,,,
,,,,,V1_008,22,female,2024-04-29_16h03.43.097,jersey_experiment_5_v1,2023.2.2,Win32,84.74576271,,,,,,,,,,,,,,,,265.5141,266.808,266.808,268.2787,return,0.5963,,99.47916667,0,45,45,59,1,FBP-RB-91.png,0.45,1.2,60,0.5,,,,,,,,,,,,,,,,,,,,,,,,,,,,,,,,,,,,,,,,,,,,,
,,,,,V1_008,22,female,2024-04-29_16h03.43.097,jersey_experiment_5_v1,2023.2.2,Win32,84.74576271,,,,,,,,,,,,,,,,268.2789,269.5727,269.5727,271.4316,return,0.558,,24.609375,0,46,46,30,1,FBP-OG-17.png,0.35,1.2,31,0.5,,,,,,,,,,,,,,,,,,,,,,,,,,,,,,,,,,,,,,,,,,,,,
,,,,,V1_008,22,female,2024-04-29_16h03.43.097,jersey_experiment_5_v1,2023.2.2,Win32,84.74576271,,,,,,,,,,,,,,,,271.4318,272.7258,272.7258,273.7848,return,0.5565,,24.609375,0,47,47,46,1,FBP-RB-71.png,0.37,1.2,47,0.5,,,,,,,,,,,,,,,,,,,,,,,,,,,,,,,,,,,,,,,,,,,,,
,,,,,V1_008,22,female,2024-04-29_16h03.43.097,jersey_experiment_5_v1,2023.2.2,Win32,84.74576271,,,,,,,,,,,,,,,,273.785,275.0788,275.0788,276.7964,return,0.5761,,74.47916667,0,48,48,33,1,FBP-OG-17.png,0.43,1.2,34,0.5,,,,,,,,,,,,,,,,,,,,,,,,,,,,,,,,,,,,,,,,,,,,,
,,,,,V1_008,22,female,2024-04-29_16h03.43.097,jersey_experiment_5_v1,2023.2.2,Win32,84.74576271,,,,,,,,,,,,,,,,276.7967,278.0906,278.0906,281.1497,return,2.3399,,74.47916667,0,49,49,24,1,FBP-YG-18.png,0.45,1.2,25,0.5,,,,,,,,,,,,,,,,,,,,,,,,,,,,,,,,,,,,,,,,,,,,,
,,,,,V1_008,22,female,2024-04-29_16h03.43.097,jersey_experiment_5_v1,2023.2.2,Win32,84.74576271,,,,,,,,,,,,,,,,281.15,282.4437,282.4437,284.3969,return,0.5759,,24.47916667,0,50,50,40,1,FBP-OG-19.png,0.35,1.2,41,0.5,,,,,,,,,,,,,,,,,,,,,,,,,,,,,,,,,,,,,,,,,,,,,
,,,,,V1_008,22,female,2024-04-29_16h03.43.097,jersey_experiment_5_v1,2023.2.2,Win32,84.74576271,,,,,,,,,,,,,,,,284.3971,285.691,285.691,287.6088,return,0.5683,,88.671875,0,51,51,54,1,FBP-RB-81.png,0.45,1.2,55,0.5,,,,,,,,,,,,,,,,,,,,,,,,,,,,,,,,,,,,,,,,,,,,,
,,,,,V1_008,22,female,2024-04-29_16h03.43.097,jersey_experiment_5_v1,2023.2.2,Win32,84.74576271,,,,,,,,,,,,,,,,287.609,289.4087,289.4088,290.35,return,0.5889,,88.671875,0,52,52,3,1,FBP-PT-71.png,0.43,1.2,4,1,,,,,,,,,,,,,,,,,,,,,,,,,,,,,,,,,,,,,,,,,,,,,
,,,,,V1_008,22,female,2024-04-29_16h03.43.097,jersey_experiment_5_v1,2023.2.2,Win32,84.74576271,,,,,,,,,,,,,,,,290.3502,291.6441,291.6441,294.7031,return,0.6347,,50.26041667,0,53,53,31,1,FBP-OG-17.png,0.37,1.2,32,0.5,,,,,,,,,,,,,,,,,,,,,,,,,,,,,,,,,,,,,,,,,,,,,
,,,,,V1_008,22,female,2024-04-29_16h03.43.097,jersey_experiment_5_v1,2023.2.2,Win32,84.74576271,,,,,,,,,,,,,,,,294.7033,296.5031,296.5031,298.0328,return,0.5413,,41.53645833,0,54,54,0,1,FBP-PT-71.png,0.35,1.2,1,1,,,,,,,,,,,,,,,,,,,,,,,,,,,,,,,,,,,,,,,,,,,,,
,,,,,V1_008,22,female,2024-04-29_16h03.43.097,jersey_experiment_5_v1,2023.2.2,Win32,84.74576271,,,,,,,,,,,,,,,,298.033,299.3268,299.3268,300.2681,return,0.5887,,41.53645833,0,55,55,56,1,FBP-RB-91.png,0.37,1.2,57,0.5,,,,,,,,,,,,,,,,,,,,,,,,,,,,,,,,,,,,,,,,,,,,,
,,,,,V1_008,22,female,2024-04-29_16h03.43.097,jersey_experiment_5_v1,2023.2.2,Win32,84.74576271,,,,,,,,,,,,,,,,300.2683,301.5621,301.5621,304.0918,return,1.5181,,80.859375,0,56,56,28,1,FBP-YG-19.png,0.43,1.2,29,0.5,,,,,,,,,,,,,,,,,,,,,,,,,,,,,,,,,,,,,,,,,,,,,
,,,,,V1_008,22,female,2024-04-29_16h03.43.097,jersey_experiment_5_v1,2023.2.2,Win32,84.74576271,,,,,,,,,,,,,,,,304.092,305.3857,305.3857,306.4917,return,0.6236,,80.859375,0,57,57,32,1,FBP-OG-17.png,0.4,1.2,33,0.5,,,,,,,,,,,,,,,,,,,,,,,,,,,,,,,,,,,,,,,,,,,,,
,,,,,V1_008,22,female,2024-04-29_16h03.43.097,jersey_experiment_5_v1,2023.2.2,Win32,84.74576271,,,,,,,,,,,,,,,,306.4919,307.786,307.786,308.7507,return,0.5411,,80.859375,0,58,58,58,1,FBP-RB-91.png,0.43,1.2,59,0.5,,,,,,,,,,,,,,,,,,,,,,,,,,,,,,,,,,,,,,,,,,,,,
,,,,,V1_008,22,female,2024-04-29_16h03.43.097,jersey_experiment_5_v1,2023.2.2,Win32,84.74576271,,,,,,,,,,,,,,,,308.7509,310.551,310.551,313.1038,return,2.2121,,85.15625,0,59,59,8,1,FBP-PT-81.png,0.43,1.2,9,1,,,,,,,,,,,,,,,,,,,,,,,,,,,,,,,,,,,,,,,,,,,,,
,,,,,V1_008,22,female,2024-04-29_16h03.43.097,jersey_experiment_5_v1,2023.2.2,Win32,84.74576271,,,,,,,,,,,,,,,,313.1059,314.904,314.904,315.8568,return,0.5506,,89.453125,,,,,,FBP-PT-17.png,0.45,1.2,5,1,0,0,0,4,1,,,,,,,,,,,,,,,,,,,,,,,,,,,,,,,,,,,,,,,,
,,,,,V1_008,22,female,2024-04-29_16h03.43.097,jersey_experiment_5_v1,2023.2.2,Win32,84.74576271,,,,,,,,,,,,,,,,315.8572,317.1511,317.1511,319.1512,return,1.1862,,85.80729167,,,,,,FBP-YG-91.png,0.4,1.2,28,0.5,0,1,1,27,1,,,,,,,,,,,,,,,,,,,,,,,,,,,,,,,,,,,,,,,,
,,,,,V1_008,22,female,2024-04-29_16h03.43.097,jersey_experiment_5_v1,2023.2.2,Win32,84.74576271,,,,,,,,,,,,,,,,319.1515,320.4452,320.4452,322.269,return,0.5559,,24.73958333,,,,,,FBP-OG-81.png,0.35,1.2,36,0.5,0,2,2,35,1,,,,,,,,,,,,,,,,,,,,,,,,,,,,,,,,,,,,,,,,
,,,,,V1_008,22,female,2024-04-29_16h03.43.097,jersey_experiment_5_v1,2023.2.2,Win32,84.74576271,,,,,,,,,,,,,,,,322.2692,324.0691,324.0691,325.7043,return,0.5925,,75,,,,,,FBP-PT-17.png,0.4,1.2,3,1,0,3,3,2,1,,,,,,,,,,,,,,,,,,,,,,,,,,,,,,,,,,,,,,,,
,,,,,V1_008,22,female,2024-04-29_16h03.43.097,jersey_experiment_5_v1,2023.2.2,Win32,84.74576271,,,,,,,,,,,,,,,,325.7045,327.5044,327.5045,329.0339,return,0.5464,,25.52083333,,,,,,FBP-PT-19.png,0.35,1.2,11,1,0,4,4,10,1,,,,,,,,,,,,,,,,,,,,,,,,,,,,,,,,,,,,,,,,
,,,,,V1_008,22,female,2024-04-29_16h03.43.097,jersey_experiment_5_v1,2023.2.2,Win32,84.74576271,,,,,,,,,,,,,,,,329.0341,330.328,330.328,333.3869,return,1.8949,,75,,,,,,FBP-RB-17.png,0.4,1.2,48,0.5,0,5,5,47,1,,,,,,,,,,,,,,,,,,,,,,,,,,,,,,,,,,,,,,,,
,,,,,V1_008,22,female,2024-04-29_16h03.43.097,jersey_experiment_5_v1,2023.2.2,Win32,84.74576271,,,,,,,,,,,,,,,,333.3871,335.1872,335.1872,336.8929,return,0.5996,,48.95833333,,,,,,FBP-PT-18.png,0.37,1.2,7,1,0,6,6,6,1,,,,,,,,,,,,,,,,,,,,,,,,,,,,,,,,,,,,,,,,
,,,,,V1_008,22,female,2024-04-29_16h03.43.097,jersey_experiment_5_v1,2023.2.2,Win32,84.74576271,,,,,,,,,,,,,,,,336.8931,338.1871,338.1872,340.2696,return,0.626,,33.33333333,,,,,,FBP-RB-19.png,0.37,1.2,57,0.5,0,7,7,56,1,,,,,,,,,,,,,,,,,,,,,,,,,,,,,,,,,,,,,,,,
,,,,,V1_008,22,female,2024-04-29_16h03.43.097,jersey_experiment_5_v1,2023.2.2,Win32,84.74576271,,,,,,,,,,,,,,,,340.2698,341.5638,341.5638,343.7049,return,0.5678,,74.609375,,,,,,FBP-OG-71.png,0.45,1.2,35,0.5,0,8,8,34,1,,,,,,,,,,,,,,,,,,,,,,,,,,,,,,,,,,,,,,,,
,,,,,V1_008,22,female,2024-04-29_16h03.43.097,jersey_experiment_5_v1,2023.2.2,Win32,84.74576271,,,,,,,,,,,,,,,,343.7051,344.9992,344.9992,348.4934,return,0.0815,,73.56770833,,,,,,FBP-YG-71.png,0.4,1.2,18,0.5,0,9,9,17,1,,,,,,,,,,,,,,,,,,,,,,,,,,,,,,,,,,,,,,,,
,,,,,V1_008,22,female,2024-04-29_16h03.43.097,jersey_experiment_5_v1,2023.2.2,Win32,84.74576271,,,,,,,,,,,,,,,,348.4936,350.2935,350.2935,351.6583,return,0.119,,74.08854167,,,,,,FBP-PT-17.png,0.43,1.2,4,1,0,10,10,3,1,,,,,,,,,,,,,,,,,,,,,,,,,,,,,,,,,,,,,,,,
,,,,,V1_008,22,female,2024-04-29_16h03.43.097,jersey_experiment_5_v1,2023.2.2,Win32,84.74576271,,,,,,,,,,,,,,,,351.6585,352.9524,352.9525,354.0465,return,0.1178,,25.65104167,,,,,,FBP-RB-17.png,0.35,1.2,46,0.5,0,11,11,45,1,,,,,,,,,,,,,,,,,,,,,,,,,,,,,,,,,,,,,,,,
,,,,,V1_008,22,female,2024-04-29_16h03.43.097,jersey_experiment_5_v1,2023.2.2,Win32,84.74576271,,,,,,,,,,,,,,,,354.0467,355.3406,355.3406,356.5997,return,0.0752,,85.02604167,,,,,,FBP-YG-71.png,0.45,1.2,20,0.5,0,12,12,19,1,,,,,,,,,,,,,,,,,,,,,,,,,,,,,,,,,,,,,,,,
,,,,,V1_008,22,female,2024-04-29_16h03.43.097,jersey_experiment_5_v1,2023.2.2,Win32,84.74576271,,,,,,,,,,,,,,,,356.5999,358.3997,358.3997,358.8231,return,0.0171,,90.49479167,,,,,,FBP-PT-19.png,0.45,1.2,15,1,0,13,13,14,1,,,,,,,,,,,,,,,,,,,,,,,,,,,,,,,,,,,,,,,,
,,,,,V1_008,22,female,2024-04-29_16h03.43.097,jersey_experiment_5_v1,2023.2.2,Win32,84.74576271,,,,,,,,,,,,,,,,358.8233,360.1174,360.1174,360.6232,return,0.118,,90.234375,,,,,,FBP-RB-17.png,0.43,1.2,49,0.5,0,14,14,48,1,,,,,,,,,,,,,,,,,,,,,,,,,,,,,,,,,,,,,,,,
,,,,,V1_008,22,female,2024-04-29_16h03.43.097,jersey_experiment_5_v1,2023.2.2,Win32,84.74576271,,,,,,,,,,,,,,,,360.6234,361.9175,361.9176,363.094,return,0.1152,,25.13020833,,,,,,FBP-RB-19.png,0.35,1.2,56,0.5,0,15,15,55,1,,,,,,,,,,,,,,,,,,,,,,,,,,,,,,,,,,,,,,,,
,,,,,V1_008,22,female,2024-04-29_16h03.43.097,jersey_experiment_5_v1,2023.2.2,Win32,84.74576271,,,,,,,,,,,,,,,,363.0941,364.3881,364.3881,364.9057,return,0.0639,,25.13020833,,,,,,FBP-YG-81.png,0.37,1.2,22,0.5,0,16,16,21,1,,,,,,,,,,,,,,,,,,,,,,,,,,,,,,,,,,,,,,,,
,,,,,V1_008,22,female,2024-04-29_16h03.43.097,jersey_experiment_5_v1,2023.2.2,Win32,84.74576271,,,,,,,,,,,,,,,,364.906,366.1999,366.1999,369.306,return,0.1199,,61.45833333,,,,,,FBP-OG-81.png,0.4,1.2,38,0.5,0,17,17,37,1,,,,,,,,,,,,,,,,,,,,,,,,,,,,,,,,,,,,,,,,
,,,,,V1_008,22,female,2024-04-29_16h03.43.097,jersey_experiment_5_v1,2023.2.2,Win32,84.74576271,,,,,,,,,,,,,,,,369.3062,370.6001,370.6001,371.9178,return,0.1087,,25.13020833,,,,,,FBP-RB-18.png,0.35,1.2,51,0.5,0,18,18,50,1,,,,,,,,,,,,,,,,,,,,,,,,,,,,,,,,,,,,,,,,
,,,,,V1_008,22,female,2024-04-29_16h03.43.097,jersey_experiment_5_v1,2023.2.2,Win32,84.74576271,,,,,,,,,,,,,,,,371.9181,373.7179,373.7179,374.4003,return,0.094,,74.609375,,,,,,FBP-PT-19.png,0.43,1.2,14,1,0,19,19,13,1,,,,,,,,,,,,,,,,,,,,,,,,,,,,,,,,,,,,,,,,
,,,,,V1_008,22,female,2024-04-29_16h03.43.097,jersey_experiment_5_v1,2023.2.2,Win32,84.74576271,,,,,,,,,,,,,,,,374.4004,375.6944,375.6944,376.6945,return,0.1005,,75,,,,,,FBP-YG-81.png,0.4,1.2,23,0.5,0,20,20,22,1,,,,,,,,,,,,,,,,,,,,,,,,,,,,,,,,,,,,,,,,
,,,,,V1_008,22,female,2024-04-29_16h03.43.097,jersey_experiment_5_v1,2023.2.2,Win32,84.74576271,,,,,,,,,,,,,,,,376.6947,377.9885,377.9885,379.7886,return,0.1199,,63.15104167,,,,,,FBP-OG-91.png,0.37,1.2,42,0.5,0,21,21,41,1,,,,,,,,,,,,,,,,,,,,,,,,,,,,,,,,,,,,,,,,
,,,,,V1_008,22,female,2024-04-29_16h03.43.097,jersey_experiment_5_v1,2023.2.2,Win32,84.74576271,,,,,,,,,,,,,,,,379.7889,381.0828,381.0828,382.5417,return,0.1281,,28.38541667,,,,,,FBP-YG-81.png,0.35,1.2,21,0.5,0,22,22,20,1,,,,,,,,,,,,,,,,,,,,,,,,,,,,,,,,,,,,,,,,
,,,,,V1_008,22,female,2024-04-29_16h03.43.097,jersey_experiment_5_v1,2023.2.2,Win32,84.74576271,,,,,,,,,,,,,,,,382.5419,384.3418,384.3418,386.0595,return,0.942,,49.08854167,,,,,,FBP-PT-17.png,0.35,1.2,1,1,0,23,23,0,1,,,,,,,,,,,,,,,,,,,,,,,,,,,,,,,,,,,,,,,,
,,,,,V1_008,22,female,2024-04-29_16h03.43.097,jersey_experiment_5_v1,2023.2.2,Win32,84.74576271,,,,,,,,,,,,,,,,386.0598,387.8597,387.8598,388.695,return,0.0061,,86.97916667,,,,,,FBP-PT-18.png,0.43,1.2,9,1,0,24,24,8,1,,,,,,,,,,,,,,,,,,,,,,,,,,,,,,,,,,,,,,,,
,,,,,V1_008,22,female,2024-04-29_16h03.43.097,jersey_experiment_5_v1,2023.2.2,Win32,84.74576271,,,,,,,,,,,,,,,,388.6952,389.9891,389.9891,391.1186,return,0.0383,,79.55729167,,,,,,FBP-OG-71.png,0.37,1.2,32,0.5,0,25,25,31,1,,,,,,,,,,,,,,,,,,,,,,,,,,,,,,,,,,,,,,,,
,,,,,V1_008,22,female,2024-04-29_16h03.43.097,jersey_experiment_5_v1,2023.2.2,Win32,84.74576271,,,,,,,,,,,,,,,,391.1188,392.4126,392.4126,394.0952,return,0.2454,,99.34895833,,,,,,FBP-YG-91.png,0.45,1.2,30,0.5,0,26,26,29,1,,,,,,,,,,,,,,,,,,,,,,,,,,,,,,,,,,,,,,,,
,,,,,V1_008,22,female,2024-04-29_16h03.43.097,jersey_experiment_5_v1,2023.2.2,Win32,84.74576271,,,,,,,,,,,,,,,,394.0954,395.8953,395.8953,398.4481,return,2.0105,,79.81770833,,,,,,FBP-PT-19.png,0.37,1.2,12,1,0,27,27,11,1,,,,,,,,,,,,,,,,,,,,,,,,,,,,,,,,,,,,,,,,
,,,,,V1_008,22,female,2024-04-29_16h03.43.097,jersey_experiment_5_v1,2023.2.2,Win32,84.74576271,,,,,,,,,,,,,,,,398.4484,399.7423,399.7423,401.0484,return,0.1922,,49.34895833,,,,,,FBP-OG-91.png,0.35,1.2,41,0.5,0,28,28,40,1,,,,,,,,,,,,,,,,,,,,,,,,,,,,,,,,,,,,,,,,
,,,,,V1_008,22,female,2024-04-29_16h03.43.097,jersey_experiment_5_v1,2023.2.2,Win32,84.74576271,,,,,,,,,,,,,,,,401.0486,402.3425,402.3425,404.4484,return,0.1036,,35.80729167,,,,,,FBP-RB-18.png,0.37,1.2,52,0.5,0,29,29,51,1,,,,,,,,,,,,,,,,,,,,,,,,,,,,,,,,,,,,,,,,
,,,,,V1_008,22,female,2024-04-29_16h03.43.097,jersey_experiment_5_v1,2023.2.2,Win32,84.74576271,,,,,,,,,,,,,,,,404.4486,405.7426,405.7426,408.6369,return,1.8939,,75,,,,,,FBP-YG-71.png,0.43,1.2,19,0.5,0,30,30,18,1,,,,,,,,,,,,,,,,,,,,,,,,,,,,,,,,,,,,,,,,
,,,,,V1_008,22,female,2024-04-29_16h03.43.097,jersey_experiment_5_v1,2023.2.2,Win32,84.74576271,,,,,,,,,,,,,,,,408.6371,409.9309,409.9309,410.7898,return,0.1149,,73.30729167,,,,,,FBP-YG-81.png,0.45,1.2,25,0.5,0,31,31,24,1,,,,,,,,,,,,,,,,,,,,,,,,,,,,,,,,,,,,,,,,
,,,,,V1_008,22,female,2024-04-29_16h03.43.097,jersey_experiment_5_v1,2023.2.2,Win32,84.74576271,,,,,,,,,,,,,,,,410.79,412.0842,412.0842,413.1664,return,0.0142,,74.08854167,,,,,,FBP-OG-71.png,0.43,1.2,34,0.5,0,32,32,33,1,,,,,,,,,,,,,,,,,,,,,,,,,,,,,,,,,,,,,,,,
,,,,,V1_008,22,female,2024-04-29_16h03.43.097,jersey_experiment_5_v1,2023.2.2,Win32,84.74576271,,,,,,,,,,,,,,,,413.1668,414.4607,414.4607,415.3077,return,0.1182,,75,,,,,,FBP-OG-71.png,0.4,1.2,33,0.5,0,33,33,32,1,,,,,,,,,,,,,,,,,,,,,,,,,,,,,,,,,,,,,,,,
,,,,,V1_008,22,female,2024-04-29_16h03.43.097,jersey_experiment_5_v1,2023.2.2,Win32,84.74576271,,,,,,,,,,,,,,,,415.308,417.1076,417.1076,417.6607,return,0.0615,,74.73958333,,,,,,FBP-PT-19.png,0.4,1.2,13,1,0,34,34,12,1,,,,,,,,,,,,,,,,,,,,,,,,,,,,,,,,,,,,,,,,
,,,,,V1_008,22,female,2024-04-29_16h03.43.097,jersey_experiment_5_v1,2023.2.2,Win32,84.74576271,,,,,,,,,,,,,,,,417.6609,419.4607,419.4607,421.6138,return,0.1081,,57.68229167,,,,,,FBP-PT-17.png,0.37,1.2,2,1,0,35,35,1,1,,,,,,,,,,,,,,,,,,,,,,,,,,,,,,,,,,,,,,,,
,,,,,V1_008,22,female,2024-04-29_16h03.43.097,jersey_experiment_5_v1,2023.2.2,Win32,84.74576271,,,,,,,,,,,,,,,,421.6141,422.9081,422.9082,423.9669,return,0.0237,,83.984375,,,,,,FBP-OG-91.png,0.45,1.2,45,0.5,0,36,36,44,1,,,,,,,,,,,,,,,,,,,,,,,,,,,,,,,,,,,,,,,,
,,,,,V1_008,22,female,2024-04-29_16h03.43.097,jersey_experiment_5_v1,2023.2.2,Win32,84.74576271,,,,,,,,,,,,,,,,423.967,425.2611,425.2612,426.6493,return,0.7701,,83.33333333,,,,,,FBP-RB-18.png,0.4,1.2,53,0.5,0,37,37,52,1,,,,,,,,,,,,,,,,,,,,,,,,,,,,,,,,,,,,,,,,
,,,,,V1_008,22,female,2024-04-29_16h03.43.097,jersey_experiment_5_v1,2023.2.2,Win32,84.74576271,,,,,,,,,,,,,,,,426.6496,427.9435,427.9436,429.8141,return,0.3145,,74.08854167,,,,,,FBP-RB-18.png,0.43,1.2,54,0.5,0,38,38,53,1,,,,,,,,,,,,,,,,,,,,,,,,,,,,,,,,,,,,,,,,
,,,,,V1_008,22,female,2024-04-29_16h03.43.097,jersey_experiment_5_v1,2023.2.2,Win32,84.74576271,,,,,,,,,,,,,,,,429.8142,431.1082,431.1082,433.3907,return,0.1651,,61.97916667,,,,,,FBP-OG-71.png,0.35,1.2,31,0.5,0,39,39,30,1,,,,,,,,,,,,,,,,,,,,,,,,,,,,,,,,,,,,,,,,
,,,,,V1_008,22,female,2024-04-29_16h03.43.097,jersey_experiment_5_v1,2023.2.2,Win32,84.74576271,,,,,,,,,,,,,,,,433.3909,435.1909,435.191,436.5557,return,0.0713,,84.375,,,,,,FBP-PT-18.png,0.45,1.2,10,1,0,40,40,9,1,,,,,,,,,,,,,,,,,,,,,,,,,,,,,,,,,,,,,,,,
,,,,,V1_008,22,female,2024-04-29_16h03.43.097,jersey_experiment_5_v1,2023.2.2,Win32,84.74576271,,,,,,,,,,,,,,,,436.556,437.8499,437.85,438.6146,return,0.1119,,84.11458333,,,,,,FBP-YG-81.png,0.43,1.2,24,0.5,0,41,41,23,1,,,,,,,,,,,,,,,,,,,,,,,,,,,,,,,,,,,,,,,,
,,,,,V1_008,22,female,2024-04-29_16h03.43.097,jersey_experiment_5_v1,2023.2.2,Win32,84.74576271,,,,,,,,,,,,,,,,438.6149,440.4146,440.4147,442.3676,return,0.6826,,57.03125,,,,,,FBP-PT-18.png,0.35,1.2,6,1,0,42,42,5,1,,,,,,,,,,,,,,,,,,,,,,,,,,,,,,,,,,,,,,,,
,,,,,V1_008,22,female,2024-04-29_16h03.43.097,jersey_experiment_5_v1,2023.2.2,Win32,84.74576271,,,,,,,,,,,,,,,,442.3678,443.6617,443.6617,444.7441,return,0.0649,,79.94791667,,,,,,FBP-OG-91.png,0.43,1.2,44,0.5,0,43,43,43,1,,,,,,,,,,,,,,,,,,,,,,,,,,,,,,,,,,,,,,,,
,,,,,V1_008,22,female,2024-04-29_16h03.43.097,jersey_experiment_5_v1,2023.2.2,Win32,84.74576271,,,,,,,,,,,,,,,,444.7443,446.0382,446.0382,446.7678,return,0.165,,79.42708333,,,,,,FBP-OG-81.png,0.45,1.2,40,0.5,0,44,44,39,1,,,,,,,,,,,,,,,,,,,,,,,,,,,,,,,,,,,,,,,,
,,,,,V1_008,22,female,2024-04-29_16h03.43.097,jersey_experiment_5_v1,2023.2.2,Win32,84.74576271,,,,,,,,,,,,,,,,446.7679,448.0619,448.0619,448.6148,return,0.1115,,79.42708333,,,,,,FBP-RB-18.png,0.45,1.2,55,0.5,0,45,45,54,1,,,,,,,,,,,,,,,,,,,,,,,,,,,,,,,,,,,,,,,,
,,,,,V1_008,22,female,2024-04-29_16h03.43.097,jersey_experiment_5_v1,2023.2.2,Win32,84.74576271,,,,,,,,,,,,,,,,448.615,449.9089,449.909,450.509,return,0.1553,,79.42708333,,,,,,FBP-RB-19.png,0.45,1.2,60,0.5,0,46,46,59,1,,,,,,,,,,,,,,,,,,,,,,,,,,,,,,,,,,,,,,,,
,,,,,V1_008,22,female,2024-04-29_16h03.43.097,jersey_experiment_5_v1,2023.2.2,Win32,84.74576271,,,,,,,,,,,,,,,,450.5091,451.8032,451.8032,453.4032,return,0.1565,,72.00520833,,,,,,FBP-RB-17.png,0.37,1.2,47,0.5,0,47,47,46,1,,,,,,,,,,,,,,,,,,,,,,,,,,,,,,,,,,,,,,,,
,,,,,V1_008,22,female,2024-04-29_16h03.43.097,jersey_experiment_5_v1,2023.2.2,Win32,84.74576271,,,,,,,,,,,,,,,,453.4034,454.6973,454.6973,455.9445,return,0.0982,,82.421875,,,,,,FBP-RB-17.png,0.45,1.2,50,0.5,0,48,48,49,1,,,,,,,,,,,,,,,,,,,,,,,,,,,,,,,,,,,,,,,,
,,,,,V1_008,22,female,2024-04-29_16h03.43.097,jersey_experiment_5_v1,2023.2.2,Win32,84.74576271,,,,,,,,,,,,,,,,455.9447,457.7445,457.7445,459.3917,return,0.0086,,71.484375,,,,,,FBP-PT-18.png,0.4,1.2,8,1,0,49,49,7,1,,,,,,,,,,,,,,,,,,,,,,,,,,,,,,,,,,,,,,,,
,,,,,V1_008,22,female,2024-04-29_16h03.43.097,jersey_experiment_5_v1,2023.2.2,Win32,84.74576271,,,,,,,,,,,,,,,,459.3919,460.6858,460.6858,461.18,return,0.0027,,71.484375,,,,,,FBP-YG-71.png,0.35,1.2,16,0.5,0,50,50,15,1,,,,,,,,,,,,,,,,,,,,,,,,,,,,,,,,,,,,,,,,
,,,,,V1_008,22,female,2024-04-29_16h03.43.097,jersey_experiment_5_v1,2023.2.2,Win32,84.74576271,,,,,,,,,,,,,,,,461.1802,462.4741,462.4741,463.5919,return,0.4983,,71.484375,,,,,,FBP-YG-91.png,0.37,1.2,27,0.5,0,51,51,26,1,,,,,,,,,,,,,,,,,,,,,,,,,,,,,,,,,,,,,,,,
,,,,,V1_008,22,female,2024-04-29_16h03.43.097,jersey_experiment_5_v1,2023.2.2,Win32,84.74576271,,,,,,,,,,,,,,,,463.5922,464.8859,464.8859,466.1919,return,0.1178,,61.06770833,,,,,,FBP-YG-91.png,0.35,1.2,26,0.5,0,52,52,25,1,,,,,,,,,,,,,,,,,,,,,,,,,,,,,,,,,,,,,,,,
,,,,,V1_008,22,female,2024-04-29_16h03.43.097,jersey_experiment_5_v1,2023.2.2,Win32,84.74576271,,,,,,,,,,,,,,,,466.1921,467.486,467.4861,468.7802,return,0.0026,,79.296875,,,,,,FBP-OG-91.png,0.4,1.2,43,0.5,0,53,53,42,1,,,,,,,,,,,,,,,,,,,,,,,,,,,,,,,,,,,,,,,,
,,,,,V1_008,22,female,2024-04-29_16h03.43.097,jersey_experiment_5_v1,2023.2.2,Win32,84.74576271,,,,,,,,,,,,,,,,468.7803,470.0743,470.0744,470.6862,return,0.0334,,79.296875,,,,,,FBP-RB-19.png,0.43,1.2,59,0.5,0,54,54,58,1,,,,,,,,,,,,,,,,,,,,,,,,,,,,,,,,,,,,,,,,
,,,,,V1_008,22,female,2024-04-29_16h03.43.097,jersey_experiment_5_v1,2023.2.2,Win32,84.74576271,,,,,,,,,,,,,,,,470.6865,471.9805,471.9805,473.6627,return,0.0941,,45.703125,,,,,,FBP-YG-71.png,0.37,1.2,17,0.5,0,55,55,16,1,,,,,,,,,,,,,,,,,,,,,,,,,,,,,,,,,,,,,,,,
,,,,,V1_008,22,female,2024-04-29_16h03.43.097,jersey_experiment_5_v1,2023.2.2,Win32,84.74576271,,,,,,,,,,,,,,,,473.663,474.957,474.957,475.5099,return,0.0423,,45.703125,,,,,,FBP-RB-19.png,0.4,1.2,58,0.5,0,56,56,57,1,,,,,,,,,,,,,,,,,,,,,,,,,,,,,,,,,,,,,,,,
,,,,,V1_008,22,female,2024-04-29_16h03.43.097,jersey_experiment_5_v1,2023.2.2,Win32,84.74576271,,,,,,,,,,,,,,,,475.5101,476.8042,476.8042,477.7218,return,0.1466,,57.8125,,,,,,FBP-OG-81.png,0.43,1.2,39,0.5,0,57,57,38,1,,,,,,,,,,,,,,,,,,,,,,,,,,,,,,,,,,,,,,,,
,,,,,V1_008,22,female,2024-04-29_16h03.43.097,jersey_experiment_5_v1,2023.2.2,Win32,84.74576271,,,,,,,,,,,,,,,,477.7219,479.016,479.016,479.6748,return,0.0367,,57.8125,,,,,,FBP-OG-81.png,0.37,1.2,37,0.5,0,58,58,36,1,,,,,,,,,,,,,,,,,,,,,,,,,,,,,,,,,,,,,,,,
,,,,,V1_008,22,female,2024-04-29_16h03.43.097,jersey_experiment_5_v1,2023.2.2,Win32,84.74576271,,,,,,,,,,,,,,,,479.675,480.9689,480.969,482.1336,return,0.4447,,62.76041667,,,,,,FBP-YG-91.png,0.43,1.2,29,0.5,0,59,59,28,1,,,,,,,,,,,,,,,,,,,,,,,,,,,,,,,,,,,,,,,,
,,,,,V1_008,22,female,2024-04-29_16h03.43.097,jersey_experiment_5_v1,2023.2.2,Win32,84.74576271,,,,,,,,,,,,,,,,,,,,,,,,,,,,,,,,,,,,,,,482.134,602.1387,,,,,,,,,,,,,,,,,,,,,,,,,,,,,,,,,,,,,,
,,,,,V1_008,22,female,2024-04-29_16h03.43.097,jersey_experiment_5_v1,2023.2.2,Win32,84.74576271,,,,,,,,,,,,,,,,,,,,,,,,,,,,,,,,,,,,,,,,,602.1387,630.2809,return,28.1355,,,,,,,,,,,,,,,,,,,,,,,,,,,,,,,,,,
,,,,,V1_008,22,female,2024-04-29_16h03.43.097,jersey_experiment_5_v1,2023.2.2,Win32,84.74576271,,,,,,,,,,,,,,,,630.2868,631.5867,631.5867,637.8219,return,0.5754,,50.52083333,,,,,,FBP-PT-91.png,0.43,1.2,14,0.5,,,,,,,,,,,,,0,0,0,13,1,,,,,,,,,,,,,,,,,,,,,,,,,,,,
,,,,,V1_008,22,female,2024-04-29_16h03.43.097,jersey_experiment_5_v1,2023.2.2,Win32,84.74576271,,,,,,,,,,,,,,,,637.8223,639.6221,639.6221,641.0691,return,0.9292,,44.140625,,,,,,FBP-OG-17.png,0.37,1.2,32,1,,,,,,,,,,,,,0,1,1,31,1,,,,,,,,,,,,,,,,,,,,,,,,,,,,
,,,,,V1_008,22,female,2024-04-29_16h03.43.097,jersey_experiment_5_v1,2023.2.2,Win32,84.74576271,,,,,,,,,,,,,,,,641.0693,642.8695,642.8695,643.9517,return,0.0844,,69.01041667,,,,,,FBP-YG-17.png,0.4,1.2,18,1,,,,,,,,,,,,,0,2,2,17,1,,,,,,,,,,,,,,,,,,,,,,,,,,,,
,,,,,V1_008,22,female,2024-04-29_16h03.43.097,jersey_experiment_5_v1,2023.2.2,Win32,84.74576271,,,,,,,,,,,,,,,,643.9519,645.7517,645.7518,646.6222,return,0.0337,,34.63541667,,,,,,FBP-OG-18.png,0.37,1.2,37,1,,,,,,,,,,,,,0,3,3,36,1,,,,,,,,,,,,,,,,,,,,,,,,,,,,
,,,,,V1_008,22,female,2024-04-29_16h03.43.097,jersey_experiment_5_v1,2023.2.2,Win32,84.74576271,,,,,,,,,,,,,,,,646.6225,648.4227,648.4227,649.1992,return,0.0476,,67.70833333,,,,,,FBP-RB-81.png,0.4,1.2,53,1,,,,,,,,,,,,,0,4,4,52,1,,,,,,,,,,,,,,,,,,,,,,,,,,,,
,,,,,V1_008,22,female,2024-04-29_16h03.43.097,jersey_experiment_5_v1,2023.2.2,Win32,84.74576271,,,,,,,,,,,,,,,,649.1994,650.493,650.493,651.4694,return,0.0486,,88.93229167,,,,,,FBP-PT-81.png,0.45,1.2,10,0.5,,,,,,,,,,,,,0,5,5,9,1,,,,,,,,,,,,,,,,,,,,,,,,,,,,
,,,,,V1_008,22,female,2024-04-29_16h03.43.097,jersey_experiment_5_v1,2023.2.2,Win32,84.74576271,,,,,,,,,,,,,,,,651.4696,653.2696,653.2697,653.9757,return,0.24,,88.54166667,,,,,,FBP-RB-91.png,0.43,1.2,59,1,,,,,,,,,,,,,0,6,6,58,1,,,,,,,,,,,,,,,,,,,,,,,,,,,,
,,,,,V1_008,22,female,2024-04-29_16h03.43.097,jersey_experiment_5_v1,2023.2.2,Win32,84.74576271,,,,,,,,,,,,,,,,653.9759,655.7755,655.7755,657.8346,return,0.1577,,27.47395833,,,,,,FBP-YG-17.png,0.35,1.2,16,1,,,,,,,,,,,,,0,7,7,15,1,,,,,,,,,,,,,,,,,,,,,,,,,,,,
,,,,,V1_008,22,female,2024-04-29_16h03.43.097,jersey_experiment_5_v1,2023.2.2,Win32,84.74576271,,,,,,,,,,,,,,,,657.8348,659.6345,659.6345,660.3168,return,0.1199,,30.98958333,,,,,,FBP-YG-18.png,0.37,1.2,22,1,,,,,,,,,,,,,0,8,8,21,1,,,,,,,,,,,,,,,,,,,,,,,,,,,,
,,,,,V1_008,22,female,2024-04-29_16h03.43.097,jersey_experiment_5_v1,2023.2.2,Win32,84.74576271,,,,,,,,,,,,,,,,660.3171,662.1174,662.1174,663.1758,return,0.1222,,42.96875,,,,,,FBP-RB-71.png,0.35,1.2,46,1,,,,,,,,,,,,,0,9,9,45,1,,,,,,,,,,,,,,,,,,,,,,,,,,,,
,,,,,V1_008,22,female,2024-04-29_16h03.43.097,jersey_experiment_5_v1,2023.2.2,Win32,84.74576271,,,,,,,,,,,,,,,,663.176,664.9761,664.9761,666.1524,return,0.1104,,75,,,,,,FBP-RB-81.png,0.43,1.2,54,1,,,,,,,,,,,,,0,10,10,53,1,,,,,,,,,,,,,,,,,,,,,,,,,,,,
,,,,,V1_008,22,female,2024-04-29_16h03.43.097,jersey_experiment_5_v1,2023.2.2,Win32,84.74576271,,,,,,,,,,,,,,,,666.1526,667.9527,667.9528,669.2584,return,0.2163,,35.41666667,,,,,,FBP-OG-19.png,0.35,1.2,41,1,,,,,,,,,,,,,0,11,11,40,1,,,,,,,,,,,,,,,,,,,,,,,,,,,,
,,,,,V1_008,22,female,2024-04-29_16h03.43.097,jersey_experiment_5_v1,2023.2.2,Win32,84.74576271,,,,,,,,,,,,,,,,669.2586,671.0585,671.0585,671.6585,return,0.122,,36.06770833,,,,,,FBP-RB-91.png,0.37,1.2,57,1,,,,,,,,,,,,,0,12,12,56,1,,,,,,,,,,,,,,,,,,,,,,,,,,,,
,,,,,V1_008,22,female,2024-04-29_16h03.43.097,jersey_experiment_5_v1,2023.2.2,Win32,84.74576271,,,,,,,,,,,,,,,,671.6586,673.4586,673.4587,673.894,return,0.1131,,36.06770833,,,,,,FBP-OG-19.png,0.37,1.2,42,1,,,,,,,,,,,,,0,13,13,41,1,,,,,,,,,,,,,,,,,,,,,,,,,,,,
,,,,,V1_008,22,female,2024-04-29_16h03.43.097,jersey_experiment_5_v1,2023.2.2,Win32,84.74576271,,,,,,,,,,,,,,,,673.8941,675.694,675.694,676.5528,return,0.0534,,27.34375,,,,,,FBP-RB-81.png,0.37,1.2,52,1,,,,,,,,,,,,,0,14,14,51,1,,,,,,,,,,,,,,,,,,,,,,,,,,,,
,,,,,V1_008,22,female,2024-04-29_16h03.43.097,jersey_experiment_5_v1,2023.2.2,Win32,84.74576271,,,,,,,,,,,,,,,,676.553,678.3532,678.3532,680.1882,return,0.1321,,63.671875,,,,,,FBP-OG-17.png,0.43,1.2,34,1,,,,,,,,,,,,,0,15,15,33,1,,,,,,,,,,,,,,,,,,,,,,,,,,,,
,,,,,V1_008,22,female,2024-04-29_16h03.43.097,jersey_experiment_5_v1,2023.2.2,Win32,84.74576271,,,,,,,,,,,,,,,,680.1884,681.9882,681.9883,683.8828,return,0.1574,,49.21875,,,,,,FBP-OG-17.png,0.35,1.2,31,1,,,,,,,,,,,,,0,16,16,30,1,,,,,,,,,,,,,,,,,,,,,,,,,,,,
,,,,,V1_008,22,female,2024-04-29_16h03.43.097,jersey_experiment_5_v1,2023.2.2,Win32,84.74576271,,,,,,,,,,,,,,,,683.883,685.6827,685.6827,687.2591,return,0.0981,,80.859375,,,,,,FBP-YG-18.png,0.45,1.2,25,1,,,,,,,,,,,,,0,17,17,24,1,,,,,,,,,,,,,,,,,,,,,,,,,,,,
,,,,,V1_008,22,female,2024-04-29_16h03.43.097,jersey_experiment_5_v1,2023.2.2,Win32,84.74576271,,,,,,,,,,,,,,,,687.2592,688.5533,688.5533,689.0944,return,0.1496,,80.859375,,,,,,FBP-PT-71.png,0.43,1.2,4,0.5,,,,,,,,,,,,,0,18,18,3,1,,,,,,,,,,,,,,,,,,,,,,,,,,,,
,,,,,V1_008,22,female,2024-04-29_16h03.43.097,jersey_experiment_5_v1,2023.2.2,Win32,84.74576271,,,,,,,,,,,,,,,,689.0946,690.3886,690.3887,693.7535,return,1.6529,,46.61458333,,,,,,FBP-PT-91.png,0.37,1.2,12,0.5,,,,,,,,,,,,,0,19,19,11,1,,,,,,,,,,,,,,,,,,,,,,,,,,,,
,,,,,V1_008,22,female,2024-04-29_16h03.43.097,jersey_experiment_5_v1,2023.2.2,Win32,84.74576271,,,,,,,,,,,,,,,,693.7538,695.5537,695.5538,696.4007,return,0.1321,,71.875,,,,,,FBP-OG-19.png,0.43,1.2,44,1,,,,,,,,,,,,,0,20,20,43,1,,,,,,,,,,,,,,,,,,,,,,,,,,,,
,,,,,V1_008,22,female,2024-04-29_16h03.43.097,jersey_experiment_5_v1,2023.2.2,Win32,84.74576271,,,,,,,,,,,,,,,,696.4009,698.2008,698.2008,701.7773,return,2.9977,,50.91145833,,,,,,FBP-YG-17.png,0.37,1.2,17,1,,,,,,,,,,,,,0,21,21,16,1,,,,,,,,,,,,,,,,,,,,,,,,,,,,
,,,,,V1_008,22,female,2024-04-29_16h03.43.097,jersey_experiment_5_v1,2023.2.2,Win32,84.74576271,,,,,,,,,,,,,,,,701.7775,703.5773,703.5774,705.8716,return,0.0943,,68.22916667,,,,,,FBP-YG-18.png,0.4,1.2,23,1,,,,,,,,,,,,,0,22,22,22,1,,,,,,,,,,,,,,,,,,,,,,,,,,,,
,,,,,V1_008,22,female,2024-04-29_16h03.43.097,jersey_experiment_5_v1,2023.2.2,Win32,84.74576271,,,,,,,,,,,,,,,,705.8718,707.6719,707.672,709.2483,return,0.7675,,59.11458333,,,,,,FBP-OG-19.png,0.4,1.2,43,1,,,,,,,,,,,,,0,23,23,42,1,,,,,,,,,,,,,,,,,,,,,,,,,,,,
,,,,,V1_008,22,female,2024-04-29_16h03.43.097,jersey_experiment_5_v1,2023.2.2,Win32,84.74576271,,,,,,,,,,,,,,,,709.2485,711.0482,711.0482,712.0719,return,0.0658,,56.77083333,,,,,,FBP-RB-91.png,0.4,1.2,58,1,,,,,,,,,,,,,0,24,24,57,1,,,,,,,,,,,,,,,,,,,,,,,,,,,,
,,,,,V1_008,22,female,2024-04-29_16h03.43.097,jersey_experiment_5_v1,2023.2.2,Win32,84.74576271,,,,,,,,,,,,,,,,712.0721,713.8717,713.8717,714.2836,return,0.0855,,57.03125,,,,,,FBP-RB-71.png,0.4,1.2,48,1,,,,,,,,,,,,,0,25,25,47,1,,,,,,,,,,,,,,,,,,,,,,,,,,,,
,,,,,V1_008,22,female,2024-04-29_16h03.43.097,jersey_experiment_5_v1,2023.2.2,Win32,84.74576271,,,,,,,,,,,,,,,,714.2839,716.0838,716.0838,717.1661,return,0.0803,,37.76041667,,,,,,FBP-OG-18.png,0.35,1.2,36,1,,,,,,,,,,,,,0,26,26,35,1,,,,,,,,,,,,,,,,,,,,,,,,,,,,
,,,,,V1_008,22,female,2024-04-29_16h03.43.097,jersey_experiment_5_v1,2023.2.2,Win32,84.74576271,,,,,,,,,,,,,,,,717.1663,718.4602,718.4602,720.1545,return,0.108,,73.4375,,,,,,FBP-PT-81.png,0.4,1.2,8,0.5,,,,,,,,,,,,,0,27,27,7,1,,,,,,,,,,,,,,,,,,,,,,,,,,,,
,,,,,V1_008,22,female,2024-04-29_16h03.43.097,jersey_experiment_5_v1,2023.2.2,Win32,84.74576271,,,,,,,,,,,,,,,,720.1547,721.9545,721.9545,722.8604,return,0.0823,,24.86979167,,,,,,FBP-YG-19.png,0.35,1.2,26,1,,,,,,,,,,,,,0,28,28,25,1,,,,,,,,,,,,,,,,,,,,,,,,,,,,
,,,,,V1_008,22,female,2024-04-29_16h03.43.097,jersey_experiment_5_v1,2023.2.2,Win32,84.74576271,,,,,,,,,,,,,,,,722.8606,724.1546,724.1546,726.1195,return,0.0666,,74.86979167,,,,,,FBP-PT-91.png,0.45,1.2,15,0.5,,,,,,,,,,,,,0,29,29,14,1,,,,,,,,,,,,,,,,,,,,,,,,,,,,
,,,,,V1_008,22,female,2024-04-29_16h03.43.097,jersey_experiment_5_v1,2023.2.2,Win32,84.74576271,,,,,,,,,,,,,,,,726.1197,727.9195,727.9195,728.5077,return,0.0738,,79.81770833,,,,,,FBP-OG-19.png,0.45,1.2,45,1,,,,,,,,,,,,,0,30,30,44,1,,,,,,,,,,,,,,,,,,,,,,,,,,,,
,,,,,V1_008,22,female,2024-04-29_16h03.43.097,jersey_experiment_5_v1,2023.2.2,Win32,84.74576271,,,,,,,,,,,,,,,,728.508,730.3078,730.3078,730.7902,return,0.1362,,79.94791667,,,,,,FBP-RB-91.png,0.45,1.2,60,1,,,,,,,,,,,,,0,31,31,59,1,,,,,,,,,,,,,,,,,,,,,,,,,,,,
,,,,,V1_008,22,female,2024-04-29_16h03.43.097,jersey_experiment_5_v1,2023.2.2,Win32,84.74576271,,,,,,,,,,,,,,,,730.7904,732.0842,732.0842,734.6021,return,0.0753,,49.609375,,,,,,FBP-PT-71.png,0.35,1.2,1,0.5,,,,,,,,,,,,,0,32,32,0,1,,,,,,,,,,,,,,,,,,,,,,,,,,,,
,,,,,V1_008,22,female,2024-04-29_16h03.43.097,jersey_experiment_5_v1,2023.2.2,Win32,84.74576271,,,,,,,,,,,,,,,,734.6025,735.8961,735.8961,738.6022,return,0.1084,,60.28645833,,,,,,FBP-PT-81.png,0.43,1.2,9,0.5,,,,,,,,,,,,,0,33,33,8,1,,,,,,,,,,,,,,,,,,,,,,,,,,,,
,,,,,V1_008,22,female,2024-04-29_16h03.43.097,jersey_experiment_5_v1,2023.2.2,Win32,84.74576271,,,,,,,,,,,,,,,,738.6025,739.8964,739.8964,741.967,return,0.0561,,50.390625,,,,,,FBP-PT-81.png,0.37,1.2,7,0.5,,,,,,,,,,,,,0,34,34,6,1,,,,,,,,,,,,,,,,,,,,,,,,,,,,
,,,,,V1_008,22,female,2024-04-29_16h03.43.097,jersey_experiment_5_v1,2023.2.2,Win32,84.74576271,,,,,,,,,,,,,,,,741.9672,743.7673,743.7673,745.1907,return,0.0883,,74.47916667,,,,,,FBP-YG-17.png,0.45,1.2,20,1,,,,,,,,,,,,,0,35,35,19,1,,,,,,,,,,,,,,,,,,,,,,,,,,,,
,,,,,V1_008,22,female,2024-04-29_16h03.43.097,jersey_experiment_5_v1,2023.2.2,Win32,84.74576271,,,,,,,,,,,,,,,,745.191,746.9908,746.9909,747.4849,return,0.165,,74.47916667,,,,,,FBP-YG-17.png,0.43,1.2,19,1,,,,,,,,,,,,,0,36,36,18,1,,,,,,,,,,,,,,,,,,,,,,,,,,,,
,,,,,V1_008,22,female,2024-04-29_16h03.43.097,jersey_experiment_5_v1,2023.2.2,Win32,84.74576271,,,,,,,,,,,,,,,,747.4851,749.2849,749.2849,750.1203,return,0.0891,,81.11979167,,,,,,FBP-YG-18.png,0.43,1.2,24,1,,,,,,,,,,,,,0,37,37,23,1,,,,,,,,,,,,,,,,,,,,,,,,,,,,
,,,,,V1_008,22,female,2024-04-29_16h03.43.097,jersey_experiment_5_v1,2023.2.2,Win32,84.74576271,,,,,,,,,,,,,,,,750.1206,751.9204,751.9204,752.6497,return,0.0759,,79.81770833,,,,,,FBP-OG-18.png,0.4,1.2,38,1,,,,,,,,,,,,,0,38,38,37,1,,,,,,,,,,,,,,,,,,,,,,,,,,,,
,,,,,V1_008,22,female,2024-04-29_16h03.43.097,jersey_experiment_5_v1,2023.2.2,Win32,84.74576271,,,,,,,,,,,,,,,,752.65,754.4499,754.4499,755.0146,return,0.1941,,79.55729167,,,,,,FBP-OG-17.png,0.45,1.2,35,1,,,,,,,,,,,,,0,39,39,34,1,,,,,,,,,,,,,,,,,,,,,,,,,,,,
,,,,,V1_008,22,female,2024-04-29_16h03.43.097,jersey_experiment_5_v1,2023.2.2,Win32,84.74576271,,,,,,,,,,,,,,,,755.0149,756.8147,756.8147,761.1796,return,0.0857,,93.75,,,,,,FBP-RB-81.png,0.45,1.2,55,1,,,,,,,,,,,,,0,40,40,54,1,,,,,,,,,,,,,,,,,,,,,,,,,,,,
,,,,,V1_008,22,female,2024-04-29_16h03.43.097,jersey_experiment_5_v1,2023.2.2,Win32,84.74576271,,,,,,,,,,,,,,,,761.1798,762.9796,762.9797,763.5679,return,0.0239,,84.24479167,,,,,,FBP-RB-71.png,0.45,1.2,50,1,,,,,,,,,,,,,0,41,41,49,1,,,,,,,,,,,,,,,,,,,,,,,,,,,,
,,,,,V1_008,22,female,2024-04-29_16h03.43.097,jersey_experiment_5_v1,2023.2.2,Win32,84.74576271,,,,,,,,,,,,,,,,763.5682,765.368,765.368,766.3328,return,0.07,,87.5,,,,,,FBP-OG-18.png,0.45,1.2,40,1,,,,,,,,,,,,,0,42,42,39,1,,,,,,,,,,,,,,,,,,,,,,,,,,,,
,,,,,V1_008,22,female,2024-04-29_16h03.43.097,jersey_experiment_5_v1,2023.2.2,Win32,84.74576271,,,,,,,,,,,,,,,,766.333,768.1328,768.1329,768.8622,return,0.048,,83.59375,,,,,,FBP-OG-18.png,0.43,1.2,39,1,,,,,,,,,,,,,0,43,43,38,1,,,,,,,,,,,,,,,,,,,,,,,,,,,,
,,,,,V1_008,22,female,2024-04-29_16h03.43.097,jersey_experiment_5_v1,2023.2.2,Win32,84.74576271,,,,,,,,,,,,,,,,768.8623,770.6623,770.6623,771.4623,return,0.1148,,85.15625,,,,,,FBP-RB-71.png,0.43,1.2,49,1,,,,,,,,,,,,,0,44,44,48,1,,,,,,,,,,,,,,,,,,,,,,,,,,,,
,,,,,V1_008,22,female,2024-04-29_16h03.43.097,jersey_experiment_5_v1,2023.2.2,Win32,84.74576271,,,,,,,,,,,,,,,,771.4625,772.7565,772.7565,774.8271,return,0.072,,57.421875,,,,,,FBP-PT-71.png,0.4,1.2,3,0.5,,,,,,,,,,,,,0,45,45,2,1,,,,,,,,,,,,,,,,,,,,,,,,,,,,
,,,,,V1_008,22,female,2024-04-29_16h03.43.097,jersey_experiment_5_v1,2023.2.2,Win32,84.74576271,,,,,,,,,,,,,,,,774.8274,776.6272,776.6272,779.3922,return,0.1407,,50.91145833,,,,,,FBP-OG-17.png,0.4,1.2,33,1,,,,,,,,,,,,,0,46,46,32,1,,,,,,,,,,,,,,,,,,,,,,,,,,,,
,,,,,V1_008,22,female,2024-04-29_16h03.43.097,jersey_experiment_5_v1,2023.2.2,Win32,84.74576271,,,,,,,,,,,,,,,,779.3926,781.1922,781.1923,782.2862,return,0.1325,,31.51041667,,,,,,FBP-RB-91.png,0.35,1.2,56,1,,,,,,,,,,,,,0,47,47,55,1,,,,,,,,,,,,,,,,,,,,,,,,,,,,
,,,,,V1_008,22,female,2024-04-29_16h03.43.097,jersey_experiment_5_v1,2023.2.2,Win32,84.74576271,,,,,,,,,,,,,,,,782.2865,783.5804,783.5804,785.2393,return,0.0641,,67.1875,,,,,,FBP-PT-71.png,0.45,1.2,5,0.5,,,,,,,,,,,,,0,48,48,4,1,,,,,,,,,,,,,,,,,,,,,,,,,,,,
,,,,,V1_008,22,female,2024-04-29_16h03.43.097,jersey_experiment_5_v1,2023.2.2,Win32,84.74576271,,,,,,,,,,,,,,,,785.2395,787.0395,787.0396,788.71,return,0.1382,,54.16666667,,,,,,FBP-YG-19.png,0.4,1.2,28,1,,,,,,,,,,,,,0,49,49,27,1,,,,,,,,,,,,,,,,,,,,,,,,,,,,
,,,,,V1_008,22,female,2024-04-29_16h03.43.097,jersey_experiment_5_v1,2023.2.2,Win32,84.74576271,,,,,,,,,,,,,,,,788.7102,790.0042,790.0042,791.5807,return,0.0939,,33.07291667,,,,,,FBP-PT-91.png,0.35,1.2,11,0.5,,,,,,,,,,,,,0,50,50,10,1,,,,,,,,,,,,,,,,,,,,,,,,,,,,
,,,,,V1_008,22,female,2024-04-29_16h03.43.097,jersey_experiment_5_v1,2023.2.2,Win32,84.74576271,,,,,,,,,,,,,,,,791.5809,792.8749,792.8749,794.5692,return,0.0741,,73.046875,,,,,,FBP-PT-91.png,0.4,1.2,13,0.5,,,,,,,,,,,,,0,51,51,12,1,,,,,,,,,,,,,,,,,,,,,,,,,,,,
,,,,,V1_008,22,female,2024-04-29_16h03.43.097,jersey_experiment_5_v1,2023.2.2,Win32,84.74576271,,,,,,,,,,,,,,,,794.5694,796.3691,796.3692,797.5926,return,0.0536,,13.54166667,,,,,,FBP-YG-19.png,0.37,1.2,27,1,,,,,,,,,,,,,0,52,52,26,1,,,,,,,,,,,,,,,,,,,,,,,,,,,,
,,,,,V1_008,22,female,2024-04-29_16h03.43.097,jersey_experiment_5_v1,2023.2.2,Win32,84.74576271,,,,,,,,,,,,,,,,797.5929,798.8868,798.8868,799.9929,return,0.1095,,13.02083333,,,,,,FBP-PT-81.png,0.35,1.2,6,0.5,,,,,,,,,,,,,0,53,53,5,1,,,,,,,,,,,,,,,,,,,,,,,,,,,,
,,,,,V1_008,22,female,2024-04-29_16h03.43.097,jersey_experiment_5_v1,2023.2.2,Win32,84.74576271,,,,,,,,,,,,,,,,799.9931,801.7929,801.7929,803.0986,return,0.0847,,30.33854167,,,,,,FBP-RB-71.png,0.37,1.2,47,1,,,,,,,,,,,,,0,54,54,46,1,,,,,,,,,,,,,,,,,,,,,,,,,,,,
,,,,,V1_008,22,female,2024-04-29_16h03.43.097,jersey_experiment_5_v1,2023.2.2,Win32,84.74576271,,,,,,,,,,,,,,,,803.0988,804.8991,804.8991,806.1107,return,0.2593,,70.3125,,,,,,FBP-YG-19.png,0.43,1.2,29,1,,,,,,,,,,,,,0,55,55,28,1,,,,,,,,,,,,,,,,,,,,,,,,,,,,
,,,,,V1_008,22,female,2024-04-29_16h03.43.097,jersey_experiment_5_v1,2023.2.2,Win32,84.74576271,,,,,,,,,,,,,,,,806.1109,807.9109,807.9109,809.4872,return,0.824,,24.08854167,,,,,,FBP-RB-81.png,0.35,1.2,51,1,,,,,,,,,,,,,0,56,56,50,1,,,,,,,,,,,,,,,,,,,,,,,,,,,,
,,,,,V1_008,22,female,2024-04-29_16h03.43.097,jersey_experiment_5_v1,2023.2.2,Win32,84.74576271,,,,,,,,,,,,,,,,809.4875,811.2875,811.2875,812.1108,return,0.0004,,82.16145833,,,,,,FBP-YG-19.png,0.45,1.2,30,1,,,,,,,,,,,,,0,57,57,29,1,,,,,,,,,,,,,,,,,,,,,,,,,,,,
,,,,,V1_008,22,female,2024-04-29_16h03.43.097,jersey_experiment_5_v1,2023.2.2,Win32,84.74576271,,,,,,,,,,,,,,,,812.1111,813.4051,813.4051,815.0169,return,0.1214,,28.38541667,,,,,,FBP-PT-71.png,0.37,1.2,2,0.5,,,,,,,,,,,,,0,58,58,1,1,,,,,,,,,,,,,,,,,,,,,,,,,,,,
,,,,,V1_008,22,female,2024-04-29_16h03.43.097,jersey_experiment_5_v1,2023.2.2,Win32,84.74576271,,,,,,,,,,,,,,,,815.0171,816.8169,816.8169,817.8641,return,0.0755,,24.34895833,,,,,,FBP-YG-18.png,0.35,1.2,21,1,,,,,,,,,,,,,0,59,59,20,1,,,,,,,,,,,,,,,,,,,,,,,,,,,,
,,,,,V1_008,22,female,2024-04-29_16h03.43.097,jersey_experiment_5_v1,2023.2.2,Win32,84.74576271,,,,,,,,,,,,,,,,817.8661,819.664,819.6641,820.876,return,0.1324,,73.046875,,,,,,FBP-OG-91.png,0.4,1.2,43,1,,,,,,,,,,,,,,,,,,0,0,0,42,1,,,,,,,,,,,,,,,,,,,,,,,
,,,,,V1_008,22,female,2024-04-29_16h03.43.097,jersey_experiment_5_v1,2023.2.2,Win32,84.74576271,,,,,,,,,,,,,,,,820.8763,822.1701,822.1701,824.2995,return,0.7564,,34.50520833,,,,,,FBP-PT-19.png,0.37,1.2,12,0.5,,,,,,,,,,,,,,,,,,0,1,1,11,1,,,,,,,,,,,,,,,,,,,,,,,
,,,,,V1_008,22,female,2024-04-29_16h03.43.097,jersey_experiment_5_v1,2023.2.2,Win32,84.74576271,,,,,,,,,,,,,,,,824.2997,826.0998,826.0998,826.8409,return,0.0768,,74.86979167,,,,,,FBP-OG-71.png,0.43,1.2,34,1,,,,,,,,,,,,,,,,,,0,2,2,33,1,,,,,,,,,,,,,,,,,,,,,,,
,,,,,V1_008,22,female,2024-04-29_16h03.43.097,jersey_experiment_5_v1,2023.2.2,Win32,84.74576271,,,,,,,,,,,,,,,,826.8411,828.6412,828.6412,829.4997,return,0.036,,31.25,,,,,,FBP-YG-71.png,0.37,1.2,17,1,,,,,,,,,,,,,,,,,,0,3,3,16,1,,,,,,,,,,,,,,,,,,,,,,,
,,,,,V1_008,22,female,2024-04-29_16h03.43.097,jersey_experiment_5_v1,2023.2.2,Win32,84.74576271,,,,,,,,,,,,,,,,829.4999,831.3002,831.3002,831.8882,return,0.0612,,39.0625,,,,,,FBP-YG-81.png,0.37,1.2,22,1,,,,,,,,,,,,,,,,,,0,4,4,21,1,,,,,,,,,,,,,,,,,,,,,,,
,,,,,V1_008,22,female,2024-04-29_16h03.43.097,jersey_experiment_5_v1,2023.2.2,Win32,84.74576271,,,,,,,,,,,,,,,,831.8884,833.6881,833.6881,835.4177,return,0.1448,,50.390625,,,,,,FBP-YG-81.png,0.4,1.2,23,1,,,,,,,,,,,,,,,,,,0,5,5,22,1,,,,,,,,,,,,,,,,,,,,,,,
,,,,,V1_008,22,female,2024-04-29_16h03.43.097,jersey_experiment_5_v1,2023.2.2,Win32,84.74576271,,,,,,,,,,,,,,,,835.4179,837.2177,837.2178,839.6649,return,0.1646,,30.33854167,,,,,,FBP-RB-17.png,0.35,1.2,46,1,,,,,,,,,,,,,,,,,,0,6,6,45,1,,,,,,,,,,,,,,,,,,,,,,,
,,,,,V1_008,22,female,2024-04-29_16h03.43.097,jersey_experiment_5_v1,2023.2.2,Win32,84.74576271,,,,,,,,,,,,,,,,839.6651,841.4649,841.4649,842.3827,return,0.1179,,24.86979167,,,,,,FBP-RB-18.png,0.35,1.2,51,1,,,,,,,,,,,,,,,,,,0,7,7,50,1,,,,,,,,,,,,,,,,,,,,,,,
,,,,,V1_008,22,female,2024-04-29_16h03.43.097,jersey_experiment_5_v1,2023.2.2,Win32,84.74576271,,,,,,,,,,,,,,,,842.3828,844.1828,844.1829,845.2297,return,0.1412,,74.47916667,,,,,,FBP-YG-81.png,0.45,1.2,25,1,,,,,,,,,,,,,,,,,,0,8,8,24,1,,,,,,,,,,,,,,,,,,,,,,,
,,,,,V1_008,22,female,2024-04-29_16h03.43.097,jersey_experiment_5_v1,2023.2.2,Win32,84.74576271,,,,,,,,,,,,,,,,845.23,847.0299,847.0299,847.9592,return,0.0525,,24.47916667,,,,,,FBP-RB-19.png,0.35,1.2,56,1,,,,,,,,,,,,,,,,,,0,9,9,55,1,,,,,,,,,,,,,,,,,,,,,,,
,,,,,V1_008,22,female,2024-04-29_16h03.43.097,jersey_experiment_5_v1,2023.2.2,Win32,84.74576271,,,,,,,,,,,,,,,,847.9595,849.7594,849.7594,851.0299,return,0.0327,,74.21875,,,,,,FBP-OG-81.png,0.45,1.2,40,1,,,,,,,,,,,,,,,,,,0,10,10,39,1,,,,,,,,,,,,,,,,,,,,,,,
,,,,,V1_008,22,female,2024-04-29_16h03.43.097,jersey_experiment_5_v1,2023.2.2,Win32,84.74576271,,,,,,,,,,,,,,,,851.0301,852.3242,852.3243,853.936,return,0.0613,,17.70833333,,,,,,FBP-PT-19.png,0.35,1.2,11,0.5,,,,,,,,,,,,,,,,,,0,11,11,10,1,,,,,,,,,,,,,,,,,,,,,,,
,,,,,V1_008,22,female,2024-04-29_16h03.43.097,jersey_experiment_5_v1,2023.2.2,Win32,84.74576271,,,,,,,,,,,,,,,,853.9362,855.7361,855.7362,857.0301,return,0.465,,19.79166667,,,,,,FBP-YG-71.png,0.35,1.2,16,1,,,,,,,,,,,,,,,,,,0,12,12,15,1,,,,,,,,,,,,,,,,,,,,,,,
,,,,,V1_008,22,female,2024-04-29_16h03.43.097,jersey_experiment_5_v1,2023.2.2,Win32,84.74576271,,,,,,,,,,,,,,,,857.0304,858.3243,858.3243,864.1717,return,0.7542,,64.84375,,,,,,FBP-PT-17.png,0.43,1.2,4,0.5,,,,,,,,,,,,,,,,,,0,13,13,3,1,,,,,,,,,,,,,,,,,,,,,,,
,,,,,V1_008,22,female,2024-04-29_16h03.43.097,jersey_experiment_5_v1,2023.2.2,Win32,84.74576271,,,,,,,,,,,,,,,,864.1719,865.9718,865.9718,867.466,return,0.0966,,69.53125,,,,,,FBP-YG-81.png,0.43,1.2,24,1,,,,,,,,,,,,,,,,,,0,14,14,23,1,,,,,,,,,,,,,,,,,,,,,,,
,,,,,V1_008,22,female,2024-04-29_16h03.43.097,jersey_experiment_5_v1,2023.2.2,Win32,84.74576271,,,,,,,,,,,,,,,,867.4662,869.2662,869.2662,870.7131,return,0.1212,,27.08333333,,,,,,FBP-YG-81.png,0.35,1.2,21,1,,,,,,,,,,,,,,,,,,0,15,15,20,1,,,,,,,,,,,,,,,,,,,,,,,
,,,,,V1_008,22,female,2024-04-29_16h03.43.097,jersey_experiment_5_v1,2023.2.2,Win32,84.74576271,,,,,,,,,,,,,,,,870.7134,872.0073,872.0073,873.4661,return,0.0731,,80.59895833,,,,,,FBP-PT-18.png,0.45,1.2,10,0.5,,,,,,,,,,,,,,,,,,0,16,16,9,1,,,,,,,,,,,,,,,,,,,,,,,
,,,,,V1_008,22,female,2024-04-29_16h03.43.097,jersey_experiment_5_v1,2023.2.2,Win32,84.74576271,,,,,,,,,,,,,,,,873.4663,875.2662,875.2662,875.831,return,0.0878,,79.03645833,,,,,,FBP-OG-91.png,0.45,1.2,45,1,,,,,,,,,,,,,,,,,,0,17,17,44,1,,,,,,,,,,,,,,,,,,,,,,,
,,,,,V1_008,22,female,2024-04-29_16h03.43.097,jersey_experiment_5_v1,2023.2.2,Win32,84.74576271,,,,,,,,,,,,,,,,875.8312,877.631,877.631,878.4311,return,0.0942,,78.25520833,,,,,,FBP-RB-18.png,0.43,1.2,54,1,,,,,,,,,,,,,,,,,,0,18,18,53,1,,,,,,,,,,,,,,,,,,,,,,,
,,,,,V1_008,22,female,2024-04-29_16h03.43.097,jersey_experiment_5_v1,2023.2.2,Win32,84.74576271,,,,,,,,,,,,,,,,878.4314,879.7252,879.7252,880.431,return,0.0849,,74.609375,,,,,,FBP-PT-18.png,0.4,1.2,8,0.5,,,,,,,,,,,,,,,,,,0,19,19,7,1,,,,,,,,,,,,,,,,,,,,,,,
,,,,,V1_008,22,female,2024-04-29_16h03.43.097,jersey_experiment_5_v1,2023.2.2,Win32,84.74576271,,,,,,,,,,,,,,,,880.4312,882.2312,882.2312,883.1136,return,0.1353,,76.953125,,,,,,FBP-OG-81.png,0.4,1.2,38,1,,,,,,,,,,,,,,,,,,0,20,20,37,1,,,,,,,,,,,,,,,,,,,,,,,
,,,,,V1_008,22,female,2024-04-29_16h03.43.097,jersey_experiment_5_v1,2023.2.2,Win32,84.74576271,,,,,,,,,,,,,,,,883.1139,884.9138,884.9139,885.4783,return,0.0886,,75.52083333,,,,,,FBP-RB-19.png,0.4,1.2,58,1,,,,,,,,,,,,,,,,,,0,21,21,57,1,,,,,,,,,,,,,,,,,,,,,,,
,,,,,V1_008,22,female,2024-04-29_16h03.43.097,jersey_experiment_5_v1,2023.2.2,Win32,84.74576271,,,,,,,,,,,,,,,,885.4785,887.2785,887.2785,887.7609,return,0.0711,,78.38541667,,,,,,FBP-OG-91.png,0.43,1.2,44,1,,,,,,,,,,,,,,,,,,0,22,22,43,1,,,,,,,,,,,,,,,,,,,,,,,
,,,,,V1_008,22,female,2024-04-29_16h03.43.097,jersey_experiment_5_v1,2023.2.2,Win32,84.74576271,,,,,,,,,,,,,,,,887.761,889.0549,889.055,890.0433,return,0.1687,,82.421875,,,,,,FBP-PT-19.png,0.43,1.2,14,0.5,,,,,,,,,,,,,,,,,,0,23,23,13,1,,,,,,,,,,,,,,,,,,,,,,,
,,,,,V1_008,22,female,2024-04-29_16h03.43.097,jersey_experiment_5_v1,2023.2.2,Win32,84.74576271,,,,,,,,,,,,,,,,890.0434,891.8433,891.8434,892.8904,return,0.3671,,82.16145833,,,,,,FBP-YG-71.png,0.43,1.2,19,1,,,,,,,,,,,,,,,,,,0,24,24,18,1,,,,,,,,,,,,,,,,,,,,,,,
,,,,,V1_008,22,female,2024-04-29_16h03.43.097,jersey_experiment_5_v1,2023.2.2,Win32,84.74576271,,,,,,,,,,,,,,,,892.8906,894.1847,894.1847,894.8434,return,0.0836,,81.11979167,,,,,,FBP-PT-17.png,0.4,1.2,3,0.5,,,,,,,,,,,,,,,,,,0,25,25,2,1,,,,,,,,,,,,,,,,,,,,,,,
,,,,,V1_008,22,female,2024-04-29_16h03.43.097,jersey_experiment_5_v1,2023.2.2,Win32,84.74576271,,,,,,,,,,,,,,,,894.8435,896.6435,896.6436,897.2553,return,0.0531,,83.72395833,,,,,,FBP-OG-71.png,0.45,1.2,35,1,,,,,,,,,,,,,,,,,,0,26,26,34,1,,,,,,,,,,,,,,,,,,,,,,,
,,,,,V1_008,22,female,2024-04-29_16h03.43.097,jersey_experiment_5_v1,2023.2.2,Win32,84.74576271,,,,,,,,,,,,,,,,897.2555,899.0555,899.0555,899.9024,return,0.1281,,51.04166667,,,,,,FBP-RB-18.png,0.37,1.2,52,1,,,,,,,,,,,,,,,,,,0,27,27,51,1,,,,,,,,,,,,,,,,,,,,,,,
,,,,,V1_008,22,female,2024-04-29_16h03.43.097,jersey_experiment_5_v1,2023.2.2,Win32,84.74576271,,,,,,,,,,,,,,,,899.9026,901.7025,901.7026,902.3615,return,0.0269,,74.34895833,,,,,,FBP-YG-91.png,0.45,1.2,30,1,,,,,,,,,,,,,,,,,,0,28,28,29,1,,,,,,,,,,,,,,,,,,,,,,,
,,,,,V1_008,22,female,2024-04-29_16h03.43.097,jersey_experiment_5_v1,2023.2.2,Win32,84.74576271,,,,,,,,,,,,,,,,902.3617,904.1615,904.1615,904.8556,return,0.043,,64.0625,,,,,,FBP-YG-91.png,0.4,1.2,28,1,,,,,,,,,,,,,,,,,,0,29,29,27,1,,,,,,,,,,,,,,,,,,,,,,,
,,,,,V1_008,22,female,2024-04-29_16h03.43.097,jersey_experiment_5_v1,2023.2.2,Win32,84.74576271,,,,,,,,,,,,,,,,904.8558,906.1498,906.1498,907.385,return,0.4534,,73.828125,,,,,,FBP-PT-18.png,0.43,1.2,9,0.5,,,,,,,,,,,,,,,,,,0,30,30,8,1,,,,,,,,,,,,,,,,,,,,,,,
,,,,,V1_008,22,female,2024-04-29_16h03.43.097,jersey_experiment_5_v1,2023.2.2,Win32,84.74576271,,,,,,,,,,,,,,,,907.3851,908.6792,908.6792,909.4793,return,0.0408,,85.546875,,,,,,FBP-PT-19.png,0.45,1.2,15,0.5,,,,,,,,,,,,,,,,,,0,31,31,14,1,,,,,,,,,,,,,,,,,,,,,,,
,,,,,V1_008,22,female,2024-04-29_16h03.43.097,jersey_experiment_5_v1,2023.2.2,Win32,84.74576271,,,,,,,,,,,,,,,,909.4795,911.2795,911.2795,912.4911,return,0.1315,,77.86458333,,,,,,FBP-OG-81.png,0.43,1.2,39,1,,,,,,,,,,,,,,,,,,0,32,32,38,1,,,,,,,,,,,,,,,,,,,,,,,
,,,,,V1_008,22,female,2024-04-29_16h03.43.097,jersey_experiment_5_v1,2023.2.2,Win32,84.74576271,,,,,,,,,,,,,,,,912.4913,914.2915,914.2915,915.3736,return,0.1553,,56.11979167,,,,,,FBP-OG-91.png,0.37,1.2,42,1,,,,,,,,,,,,,,,,,,0,33,33,41,1,,,,,,,,,,,,,,,,,,,,,,,
,,,,,V1_008,22,female,2024-04-29_16h03.43.097,jersey_experiment_5_v1,2023.2.2,Win32,84.74576271,,,,,,,,,,,,,,,,915.3739,917.1737,917.1737,918.6679,return,0.7681,,69.921875,,,,,,FBP-YG-91.png,0.43,1.2,29,1,,,,,,,,,,,,,,,,,,0,34,34,28,1,,,,,,,,,,,,,,,,,,,,,,,
,,,,,V1_008,22,female,2024-04-29_16h03.43.097,jersey_experiment_5_v1,2023.2.2,Win32,84.74576271,,,,,,,,,,,,,,,,918.6682,920.468,920.4681,922.9503,return,0.1473,,39.32291667,,,,,,FBP-YG-91.png,0.35,1.2,26,1,,,,,,,,,,,,,,,,,,0,35,35,25,1,,,,,,,,,,,,,,,,,,,,,,,
,,,,,V1_008,22,female,2024-04-29_16h03.43.097,jersey_experiment_5_v1,2023.2.2,Win32,84.74576271,,,,,,,,,,,,,,,,922.9505,924.7505,924.7506,925.4682,return,0.0478,,29.94791667,,,,,,FBP-OG-81.png,0.37,1.2,37,1,,,,,,,,,,,,,,,,,,0,36,36,36,1,,,,,,,,,,,,,,,,,,,,,,,
,,,,,V1_008,22,female,2024-04-29_16h03.43.097,jersey_experiment_5_v1,2023.2.2,Win32,84.74576271,,,,,,,,,,,,,,,,925.4684,927.2682,927.2682,927.9507,return,0.0094,,36.45833333,,,,,,FBP-RB-17.png,0.4,1.2,48,1,,,,,,,,,,,,,,,,,,0,37,37,47,1,,,,,,,,,,,,,,,,,,,,,,,
,,,,,V1_008,22,female,2024-04-29_16h03.43.097,jersey_experiment_5_v1,2023.2.2,Win32,84.74576271,,,,,,,,,,,,,,,,927.9508,929.7507,929.7507,930.7505,return,0.0473,,46.484375,,,,,,FBP-OG-91.png,0.35,1.2,41,1,,,,,,,,,,,,,,,,,,0,38,38,40,1,,,,,,,,,,,,,,,,,,,,,,,
,,,,,V1_008,22,female,2024-04-29_16h03.43.097,jersey_experiment_5_v1,2023.2.2,Win32,84.74576271,,,,,,,,,,,,,,,,930.7507,932.5509,932.5509,933.5979,return,0.1285,,42.96875,,,,,,FBP-OG-71.png,0.37,1.2,32,1,,,,,,,,,,,,,,,,,,0,39,39,31,1,,,,,,,,,,,,,,,,,,,,,,,
,,,,,V1_008,22,female,2024-04-29_16h03.43.097,jersey_experiment_5_v1,2023.2.2,Win32,84.74576271,,,,,,,,,,,,,,,,933.5981,935.398,935.398,936.3981,return,0.0108,,79.6875,,,,,,FBP-RB-17.png,0.45,1.2,50,1,,,,,,,,,,,,,,,,,,0,40,40,49,1,,,,,,,,,,,,,,,,,,,,,,,
,,,,,V1_008,22,female,2024-04-29_16h03.43.097,jersey_experiment_5_v1,2023.2.2,Win32,84.74576271,,,,,,,,,,,,,,,,936.3982,938.1981,938.1981,938.798,return,0.0952,,80.859375,,,,,,FBP-RB-19.png,0.45,1.2,60,1,,,,,,,,,,,,,,,,,,0,41,41,59,1,,,,,,,,,,,,,,,,,,,,,,,
,,,,,V1_008,22,female,2024-04-29_16h03.43.097,jersey_experiment_5_v1,2023.2.2,Win32,84.74576271,,,,,,,,,,,,,,,,938.7982,940.5981,940.5981,941.2099,return,0.064,,78.64583333,,,,,,FBP-RB-17.png,0.43,1.2,49,1,,,,,,,,,,,,,,,,,,0,42,42,48,1,,,,,,,,,,,,,,,,,,,,,,,
,,,,,V1_008,22,female,2024-04-29_16h03.43.097,jersey_experiment_5_v1,2023.2.2,Win32,84.74576271,,,,,,,,,,,,,,,,941.2101,943.01,943.01,944.01,return,0.4026,,79.296875,,,,,,FBP-YG-71.png,0.4,1.2,18,1,,,,,,,,,,,,,,,,,,0,43,43,17,1,,,,,,,,,,,,,,,,,,,,,,,
,,,,,V1_008,22,female,2024-04-29_16h03.43.097,jersey_experiment_5_v1,2023.2.2,Win32,84.74576271,,,,,,,,,,,,,,,,944.0102,945.81,945.81,946.7042,return,0.127,,79.81770833,,,,,,FBP-OG-71.png,0.4,1.2,33,1,,,,,,,,,,,,,,,,,,0,44,44,32,1,,,,,,,,,,,,,,,,,,,,,,,
,,,,,V1_008,22,female,2024-04-29_16h03.43.097,jersey_experiment_5_v1,2023.2.2,Win32,84.74576271,,,,,,,,,,,,,,,,946.7044,948.5043,948.5044,950.128,return,0.0616,,49.34895833,,,,,,FBP-OG-71.png,0.35,1.2,31,1,,,,,,,,,,,,,,,,,,0,45,45,30,1,,,,,,,,,,,,,,,,,,,,,,,
,,,,,V1_008,22,female,2024-04-29_16h03.43.097,jersey_experiment_5_v1,2023.2.2,Win32,84.74576271,,,,,,,,,,,,,,,,950.1282,951.9279,951.9279,952.7162,return,0.0004,,83.85416667,,,,,,FBP-YG-71.png,0.45,1.2,20,1,,,,,,,,,,,,,,,,,,0,46,46,19,1,,,,,,,,,,,,,,,,,,,,,,,
,,,,,V1_008,22,female,2024-04-29_16h03.43.097,jersey_experiment_5_v1,2023.2.2,Win32,84.74576271,,,,,,,,,,,,,,,,952.7163,954.5163,954.5163,955.1163,return,0.024,,83.85416667,,,,,,FBP-RB-18.png,0.45,1.2,55,1,,,,,,,,,,,,,,,,,,0,47,47,54,1,,,,,,,,,,,,,,,,,,,,,,,
,,,,,V1_008,22,female,2024-04-29_16h03.43.097,jersey_experiment_5_v1,2023.2.2,Win32,84.74576271,,,,,,,,,,,,,,,,955.1164,956.9164,956.9164,958.7987,return,0.1412,,50.78125,,,,,,FBP-OG-81.png,0.35,1.2,36,1,,,,,,,,,,,,,,,,,,0,48,48,35,1,,,,,,,,,,,,,,,,,,,,,,,
,,,,,V1_008,22,female,2024-04-29_16h03.43.097,jersey_experiment_5_v1,2023.2.2,Win32,84.74576271,,,,,,,,,,,,,,,,958.7989,960.0929,960.0929,961.4225,return,0.1186,,31.25,,,,,,FBP-PT-18.png,0.35,1.2,6,0.5,,,,,,,,,,,,,,,,,,0,49,49,5,1,,,,,,,,,,,,,,,,,,,,,,,
,,,,,V1_008,22,female,2024-04-29_16h03.43.097,jersey_experiment_5_v1,2023.2.2,Win32,84.74576271,,,,,,,,,,,,,,,,961.4226,963.2227,963.2227,965.564,return,0.1095,,64.0625,,,,,,FBP-YG-91.png,0.37,1.2,27,1,,,,,,,,,,,,,,,,,,0,50,50,26,1,,,,,,,,,,,,,,,,,,,,,,,
,,,,,V1_008,22,female,2024-04-29_16h03.43.097,jersey_experiment_5_v1,2023.2.2,Win32,84.74576271,,,,,,,,,,,,,,,,965.5642,967.3638,967.3638,968.2227,return,0.1649,,73.56770833,,,,,,FBP-RB-18.png,0.4,1.2,53,1,,,,,,,,,,,,,,,,,,0,51,51,52,1,,,,,,,,,,,,,,,,,,,,,,,
,,,,,V1_008,22,female,2024-04-29_16h03.43.097,jersey_experiment_5_v1,2023.2.2,Win32,84.74576271,,,,,,,,,,,,,,,,968.2229,970.0227,970.0228,970.6816,return,0.1467,,74.609375,,,,,,FBP-RB-19.png,0.43,1.2,59,1,,,,,,,,,,,,,,,,,,0,52,52,58,1,,,,,,,,,,,,,,,,,,,,,,,
,,,,,V1_008,22,female,2024-04-29_16h03.43.097,jersey_experiment_5_v1,2023.2.2,Win32,84.74576271,,,,,,,,,,,,,,,,970.6818,972.4817,972.4817,973.3053,return,0.0973,,50.78125,,,,,,FBP-RB-17.png,0.37,1.2,47,1,,,,,,,,,,,,,,,,,,0,53,53,46,1,,,,,,,,,,,,,,,,,,,,,,,
,,,,,V1_008,22,female,2024-04-29_16h03.43.097,jersey_experiment_5_v1,2023.2.2,Win32,84.74576271,,,,,,,,,,,,,,,,973.3056,974.5993,974.5993,975.3995,return,0.0901,,49.609375,,,,,,FBP-PT-17.png,0.37,1.2,2,0.5,,,,,,,,,,,,,,,,,,0,54,54,1,1,,,,,,,,,,,,,,,,,,,,,,,
,,,,,V1_008,22,female,2024-04-29_16h03.43.097,jersey_experiment_5_v1,2023.2.2,Win32,84.74576271,,,,,,,,,,,,,,,,975.3997,976.6937,976.6937,977.376,return,0.0944,,49.609375,,,,,,FBP-PT-17.png,0.35,1.2,1,0.5,,,,,,,,,,,,,,,,,,0,55,55,0,1,,,,,,,,,,,,,,,,,,,,,,,
,,,,,V1_008,22,female,2024-04-29_16h03.43.097,jersey_experiment_5_v1,2023.2.2,Win32,84.74576271,,,,,,,,,,,,,,,,977.3762,979.176,979.176,979.7759,return,0.0851,,41.92708333,,,,,,FBP-RB-19.png,0.37,1.2,57,1,,,,,,,,,,,,,,,,,,0,56,56,56,1,,,,,,,,,,,,,,,,,,,,,,,
,,,,,V1_008,22,female,2024-04-29_16h03.43.097,jersey_experiment_5_v1,2023.2.2,Win32,84.74576271,,,,,,,,,,,,,,,,979.7762,981.0703,981.0704,982.3997,return,0.0943,,80.46875,,,,,,FBP-PT-17.png,0.45,1.2,5,0.5,,,,,,,,,,,,,,,,,,0,57,57,4,1,,,,,,,,,,,,,,,,,,,,,,,
,,,,,V1_008,22,female,2024-04-29_16h03.43.097,jersey_experiment_5_v1,2023.2.2,Win32,84.74576271,,,,,,,,,,,,,,,,982.3999,983.6937,983.6937,985.0704,return,0.0942,,68.61979167,,,,,,FBP-PT-19.png,0.4,1.2,13,0.5,,,,,,,,,,,,,,,,,,0,58,58,12,1,,,,,,,,,,,,,,,,,,,,,,,
,,,,,V1_008,22,female,2024-04-29_16h03.43.097,jersey_experiment_5_v1,2023.2.2,Win32,84.74576271,,,,,,,,,,,,,,,,985.0705,986.3644,986.3644,986.894,return,0.0716,,68.61979167,,,,,,FBP-PT-18.png,0.37,1.2,7,0.5,,,,,,,,,,,,,,,,,,0,59,59,6,1,,,,,,,,,,,,,,,,,,,,,,,
,,,,,V1_008,22,female,2024-04-29_16h03.43.097,jersey_experiment_5_v1,2023.2.2,Win32,84.74576271,,,,,,,,,,,,,,,,,,,,,,,,,,,,,,,,,,,,,,,,,,,,,,,,,,,,,,,,986.8944,996.5417,return,9.6343,,,,,,,,,,,,,,,,,,,
,,,,,V1_008,22,female,2024-04-29_16h03.43.097,jersey_experiment_5_v1,2023.2.2,Win32,84.74576271,,,,,,,,,,,,,,,,,,,,,,,,,,,,,,,,,,,,,,,,,,,,,,,,,,,,,,,,,,,,,996.5418,1002.9537,1,5.5071,return,0.8875,,,,,,,,,,,,
,,,,,V1_008,22,female,2024-04-29_16h03.43.097,jersey_experiment_5_v1,2023.2.2,Win32,84.74576271,,,,,,,,,,,,,,,,,,,,,,,,,,,,,,,,,,,,,,,,,,,,,,,,,,,,,,,,,,,,,,,,,,,,1002.9538,1173.3772,"could possibly be something about how we perceive physical build based on color of clothing people wear, number on jersey, and/or race.",right,159.9112,,,,,,
,,,,,V1_008,22,female,2024-04-29_16h03.43.097,jersey_experiment_5_v1,2023.2.2,Win32,84.74576271,,,,,,,,,,,,,,,,,,,,,,,,,,,,,,,,,,,,,,,,,,,,,,,,,,,,,,,,,,,,,,,,,,,,,,,,,,1173.3772,1177.5601,return,4.1764,