requirements.started,requirements.stopped,key_resp_3.keys,key_resp_3.rt,key_resp_3.duration,Subject ID,Age,Gender,date,expName,psychopyVersion,OS,frameRate,instructions1.started,instructions1.stopped,key_resp.keys,key_resp.rt,key_resp.duration,example.started,example.stopped,enter_2.keys,enter_2.rt,enter_2.duration,instructions2.started,instructions2.stopped,enter_3.keys,enter_3.rt,enter_3.duration,image.started,image.stopped,slider_2.started,slider_2.stopped,next.keys,next.rt,next.duration,slider.response,trial_block_1.thisRepN,trial_block_1.thisTrialN,trial_block_1.thisN,trial_block_1.thisIndex,trial_block_1.ran,Path,Width,Height,Index,Duration,trial_block_2.thisRepN,trial_block_2.thisTrialN,trial_block_2.thisN,trial_block_2.thisIndex,trial_block_2.ran,rest_break.started,rest_break.stopped,end_break.started,end_break.stopped,key_resp_5.keys,key_resp_5.rt,key_resp_5.duration,trial_block_3.thisRepN,trial_block_3.thisTrialN,trial_block_3.thisN,trial_block_3.thisIndex,trial_block_3.ran,trial_block_4.thisRepN,trial_block_4.thisTrialN,trial_block_4.thisN,trial_block_4.thisIndex,trial_block_4.ran,questions_intro.started,questions_intro.stopped,enter_12.keys,enter_12.rt,enter_12.duration,question2.started,question2.stopped,question_doingbest.response,question_doingbest.rt,enter_15.keys,enter_15.rt,enter_15.duration,pattern.started,pattern.stopped,pattern_2.text,enter_17.keys,enter_17.rt,enter_17.duration,thankyou.started,thankyou.stopped,enter_14.keys,enter_14.rt,enter_14.duration
0.0001,9.205,return,9.2001,,V1_001,22,female,2024-04-29_09h06.08.686,jersey_experiment_5_v1,2023.2.2,Win32,85.47008547,,,,,,,,,,,,,,,,,,,,,,,,,,,,,,,,,,,,,,,,,,,,,,,,,,,,,,,,,,,,,,,,,,,,,,,,,,,,,,
,,,,,V1_001,22,female,2024-04-29_09h06.08.686,jersey_experiment_5_v1,2023.2.2,Win32,85.47008547,9.2051,15.5619,return,6.341,,,,,,,,,,,,,,,,,,,,,,,,,,,,,,,,,,,,,,,,,,,,,,,,,,,,,,,,,,,,,,,,,,,,,,,,,,
,,,,,V1_001,22,female,2024-04-29_09h06.08.686,jersey_experiment_5_v1,2023.2.2,Win32,85.47008547,,,,,,15.5619,19.2524,return,3.6563,,,,,,,,,,,,,,,,,,,,,,,,,,,,,,,,,,,,,,,,,,,,,,,,,,,,,,,,,,,,,,,,,,,,,
,,,,,V1_001,22,female,2024-04-29_09h06.08.686,jersey_experiment_5_v1,2023.2.2,Win32,85.47008547,,,,,,,,,,,19.2526,34.8176,return,15.5588,,,,,,,,,,,,,,,,,,,,,,,,,,,,,,,,,,,,,,,,,,,,,,,,,,,,,,,,,,,,,,,,
,,,,,V1_001,22,female,2024-04-29_09h06.08.686,jersey_experiment_5_v1,2023.2.2,Win32,85.47008547,,,,,,,,,,,,,,,,34.8243,36.1157,36.1157,47.6692,return,1.0944,,75,0,0,0,53,1,FBP-RB-81.png,0.43,1.2,54,0.5,,,,,,,,,,,,,,,,,,,,,,,,,,,,,,,,,,,,,,,,,,,,,
,,,,,V1_001,22,female,2024-04-29_09h06.08.686,jersey_experiment_5_v1,2023.2.2,Win32,85.47008547,,,,,,,,,,,,,,,,47.6695,48.9627,48.9627,52.2924,return,0.975,,23.95833333,0,1,1,16,1,FBP-YG-17.png,0.37,1.2,17,0.5,,,,,,,,,,,,,,,,,,,,,,,,,,,,,,,,,,,,,,,,,,,,,
,,,,,V1_001,22,female,2024-04-29_09h06.08.686,jersey_experiment_5_v1,2023.2.2,Win32,85.47008547,,,,,,,,,,,,,,,,52.2926,53.6,53.6,55.5885,return,0.4256,,23.95833333,0,2,2,55,1,FBP-RB-91.png,0.35,1.2,56,0.5,,,,,,,,,,,,,,,,,,,,,,,,,,,,,,,,,,,,,,,,,,,,,
,,,,,V1_001,22,female,2024-04-29_09h06.08.686,jersey_experiment_5_v1,2023.2.2,Win32,85.47008547,,,,,,,,,,,,,,,,55.5887,56.8807,56.8807,60.3241,return,1.0857,,49.47916667,0,3,3,17,1,FBP-YG-17.png,0.4,1.2,18,0.5,,,,,,,,,,,,,,,,,,,,,,,,,,,,,,,,,,,,,,,,,,,,,
,,,,,V1_001,22,female,2024-04-29_09h06.08.686,jersey_experiment_5_v1,2023.2.2,Win32,85.47008547,,,,,,,,,,,,,,,,60.3243,62.1243,62.1243,65.2536,return,0.707,,75.78125,0,4,4,5,1,FBP-PT-81.png,0.35,1.2,6,1,,,,,,,,,,,,,,,,,,,,,,,,,,,,,,,,,,,,,,,,,,,,,
,,,,,V1_001,22,female,2024-04-29_09h06.08.686,jersey_experiment_5_v1,2023.2.2,Win32,85.47008547,,,,,,,,,,,,,,,,65.2538,66.5532,66.5532,69.0421,return,0.7344,,98.69791667,0,5,5,48,1,FBP-RB-71.png,0.43,1.2,49,0.5,,,,,,,,,,,,,,,,,,,,,,,,,,,,,,,,,,,,,,,,,,,,,
,,,,,V1_001,22,female,2024-04-29_09h06.08.686,jersey_experiment_5_v1,2023.2.2,Win32,85.47008547,,,,,,,,,,,,,,,,69.0424,70.3361,70.3361,72.3523,return,0.5298,,98.69791667,0,6,6,33,1,FBP-OG-17.png,0.43,1.2,34,0.5,,,,,,,,,,,,,,,,,,,,,,,,,,,,,,,,,,,,,,,,,,,,,
,,,,,V1_001,22,female,2024-04-29_09h06.08.686,jersey_experiment_5_v1,2023.2.2,Win32,85.47008547,,,,,,,,,,,,,,,,72.3524,73.6477,73.6477,80.4703,return,0.9307,,74.86979167,0,7,7,26,1,FBP-YG-19.png,0.37,1.2,27,0.5,,,,,,,,,,,,,,,,,,,,,,,,,,,,,,,,,,,,,,,,,,,,,
,,,,,V1_001,22,female,2024-04-29_09h06.08.686,jersey_experiment_5_v1,2023.2.2,Win32,85.47008547,,,,,,,,,,,,,,,,80.4704,81.7625,81.7625,84.316,return,0.5399,,99.86979167,0,8,8,43,1,FBP-OG-19.png,0.43,1.2,44,0.5,,,,,,,,,,,,,,,,,,,,,,,,,,,,,,,,,,,,,,,,,,,,,
,,,,,V1_001,22,female,2024-04-29_09h06.08.686,jersey_experiment_5_v1,2023.2.2,Win32,85.47008547,,,,,,,,,,,,,,,,84.3162,86.1133,86.1133,87.525,return,0.4743,,99.86979167,0,9,9,9,1,FBP-PT-81.png,0.45,1.2,10,1,,,,,,,,,,,,,,,,,,,,,,,,,,,,,,,,,,,,,,,,,,,,,
,,,,,V1_001,22,female,2024-04-29_09h06.08.686,jersey_experiment_5_v1,2023.2.2,Win32,85.47008547,,,,,,,,,,,,,,,,87.5252,88.8192,88.8193,90.7841,return,0.7116,,24.08854167,0,10,10,20,1,FBP-YG-18.png,0.35,1.2,21,0.5,,,,,,,,,,,,,,,,,,,,,,,,,,,,,,,,,,,,,,,,,,,,,
,,,,,V1_001,22,female,2024-04-29_09h06.08.686,jersey_experiment_5_v1,2023.2.2,Win32,85.47008547,,,,,,,,,,,,,,,,90.7842,92.0782,92.0783,93.3513,return,0.4223,,24.08854167,0,11,11,25,1,FBP-YG-19.png,0.35,1.2,26,0.5,,,,,,,,,,,,,,,,,,,,,,,,,,,,,,,,,,,,,,,,,,,,,
,,,,,V1_001,22,female,2024-04-29_09h06.08.686,jersey_experiment_5_v1,2023.2.2,Win32,85.47008547,,,,,,,,,,,,,,,,93.3515,95.1488,95.1489,96.3842,return,0.4069,,74.08854167,0,12,12,11,1,FBP-PT-91.png,0.37,1.2,12,1,,,,,,,,,,,,,,,,,,,,,,,,,,,,,,,,,,,,,,,,,,,,,
,,,,,V1_001,22,female,2024-04-29_09h06.08.686,jersey_experiment_5_v1,2023.2.2,Win32,85.47008547,,,,,,,,,,,,,,,,96.3845,97.6784,97.6784,98.9962,return,0.3677,,23.56770833,0,13,13,40,1,FBP-OG-19.png,0.35,1.2,41,0.5,,,,,,,,,,,,,,,,,,,,,,,,,,,,,,,,,,,,,,,,,,,,,
,,,,,V1_001,22,female,2024-04-29_09h06.08.686,jersey_experiment_5_v1,2023.2.2,Win32,85.47008547,,,,,,,,,,,,,,,,98.9964,100.8,100.8,102.9493,return,0.7313,,98.30729167,0,14,14,8,1,FBP-PT-81.png,0.43,1.2,9,1,,,,,,,,,,,,,,,,,,,,,,,,,,,,,,,,,,,,,,,,,,,,,
,,,,,V1_001,22,female,2024-04-29_09h06.08.686,jersey_experiment_5_v1,2023.2.2,Win32,85.47008547,,,,,,,,,,,,,,,,102.9495,104.2472,104.2472,109.0007,return,2.2948,,77.08333333,0,15,15,47,1,FBP-RB-71.png,0.4,1.2,48,0.5,,,,,,,,,,,,,,,,,,,,,,,,,,,,,,,,,,,,,,,,,,,,,
,,,,,V1_001,22,female,2024-04-29_09h06.08.686,jersey_experiment_5_v1,2023.2.2,Win32,85.47008547,,,,,,,,,,,,,,,,109.0047,110.3025,110.3025,112.7048,return,0.6219,,51.82291667,0,16,16,41,1,FBP-OG-19.png,0.37,1.2,42,0.5,,,,,,,,,,,,,,,,,,,,,,,,,,,,,,,,,,,,,,,,,,,,,
,,,,,V1_001,22,female,2024-04-29_09h06.08.686,jersey_experiment_5_v1,2023.2.2,Win32,85.47008547,,,,,,,,,,,,,,,,112.7049,114.5062,114.5062,118.2086,return,0.5139,,68.75,0,17,17,2,1,FBP-PT-71.png,0.4,1.2,3,1,,,,,,,,,,,,,,,,,,,,,,,,,,,,,,,,,,,,,,,,,,,,,
,,,,,V1_001,22,female,2024-04-29_09h06.08.686,jersey_experiment_5_v1,2023.2.2,Win32,85.47008547,,,,,,,,,,,,,,,,118.2088,120.0023,120.0024,123.4598,return,0.8488,,99.609375,0,18,18,14,1,FBP-PT-91.png,0.45,1.2,15,1,,,,,,,,,,,,,,,,,,,,,,,,,,,,,,,,,,,,,,,,,,,,,
,,,,,V1_001,22,female,2024-04-29_09h06.08.686,jersey_experiment_5_v1,2023.2.2,Win32,85.47008547,,,,,,,,,,,,,,,,123.46,125.2559,125.2559,127.856,return,1.1134,,25.65104167,0,19,19,10,1,FBP-PT-91.png,0.35,1.2,11,1,,,,,,,,,,,,,,,,,,,,,,,,,,,,,,,,,,,,,,,,,,,,,
,,,,,V1_001,22,female,2024-04-29_09h06.08.686,jersey_experiment_5_v1,2023.2.2,Win32,85.47008547,,,,,,,,,,,,,,,,127.8562,129.1502,129.1502,132.0375,return,1.0375,,75,0,20,20,29,1,FBP-YG-19.png,0.45,1.2,30,0.5,,,,,,,,,,,,,,,,,,,,,,,,,,,,,,,,,,,,,,,,,,,,,
,,,,,V1_001,22,female,2024-04-29_09h06.08.686,jersey_experiment_5_v1,2023.2.2,Win32,85.47008547,,,,,,,,,,,,,,,,132.0376,133.3412,133.3412,134.9621,return,0.4305,,75,0,21,21,58,1,FBP-RB-91.png,0.43,1.2,59,0.5,,,,,,,,,,,,,,,,,,,,,,,,,,,,,,,,,,,,,,,,,,,,,
,,,,,V1_001,22,female,2024-04-29_09h06.08.686,jersey_experiment_5_v1,2023.2.2,Win32,85.47008547,,,,,,,,,,,,,,,,134.9623,136.2616,136.2616,138.3859,return,0.4893,,78.515625,0,22,22,23,1,FBP-YG-18.png,0.43,1.2,24,0.5,,,,,,,,,,,,,,,,,,,,,,,,,,,,,,,,,,,,,,,,,,,,,
,,,,,V1_001,22,female,2024-04-29_09h06.08.686,jersey_experiment_5_v1,2023.2.2,Win32,85.47008547,,,,,,,,,,,,,,,,138.386,139.6799,139.6799,144.9197,return,3.165,,27.60416667,0,23,23,30,1,FBP-OG-17.png,0.35,1.2,31,0.5,,,,,,,,,,,,,,,,,,,,,,,,,,,,,,,,,,,,,,,,,,,,,
,,,,,V1_001,22,female,2024-04-29_09h06.08.686,jersey_experiment_5_v1,2023.2.2,Win32,85.47008547,,,,,,,,,,,,,,,,144.9198,146.7155,146.7155,148.6356,return,0.5749,,91.015625,0,24,24,4,1,FBP-PT-71.png,0.45,1.2,5,1,,,,,,,,,,,,,,,,,,,,,,,,,,,,,,,,,,,,,,,,,,,,,
,,,,,V1_001,22,female,2024-04-29_09h06.08.686,jersey_experiment_5_v1,2023.2.2,Win32,85.47008547,,,,,,,,,,,,,,,,148.6357,149.9297,149.9297,152.1919,return,0.4625,,91.27604167,0,25,25,24,1,FBP-YG-18.png,0.45,1.2,25,0.5,,,,,,,,,,,,,,,,,,,,,,,,,,,,,,,,,,,,,,,,,,,,,
,,,,,V1_001,22,female,2024-04-29_09h06.08.686,jersey_experiment_5_v1,2023.2.2,Win32,85.47008547,,,,,,,,,,,,,,,,152.192,153.4966,153.4966,154.6962,return,0.3633,,91.27604167,0,26,26,54,1,FBP-RB-81.png,0.45,1.2,55,0.5,,,,,,,,,,,,,,,,,,,,,,,,,,,,,,,,,,,,,,,,,,,,,
,,,,,V1_001,22,female,2024-04-29_09h06.08.686,jersey_experiment_5_v1,2023.2.2,Win32,85.47008547,,,,,,,,,,,,,,,,154.6963,155.9904,155.9904,158.7041,return,1.1375,,24.86979167,0,27,27,15,1,FBP-YG-17.png,0.35,1.2,16,0.5,,,,,,,,,,,,,,,,,,,,,,,,,,,,,,,,,,,,,,,,,,,,,
,,,,,V1_001,22,female,2024-04-29_09h06.08.686,jersey_experiment_5_v1,2023.2.2,Win32,85.47008547,,,,,,,,,,,,,,,,158.7044,159.9982,159.9982,161.8011,return,0.7635,,24.86979167,0,28,28,35,1,FBP-OG-18.png,0.35,1.2,36,0.5,,,,,,,,,,,,,,,,,,,,,,,,,,,,,,,,,,,,,,,,,,,,,
,,,,,V1_001,22,female,2024-04-29_09h06.08.686,jersey_experiment_5_v1,2023.2.2,Win32,85.47008547,,,,,,,,,,,,,,,,161.8013,163.5985,163.5985,165.1867,return,0.4874,,14.84375,0,29,29,0,1,FBP-PT-71.png,0.35,1.2,1,1,,,,,,,,,,,,,,,,,,,,,,,,,,,,,,,,,,,,,,,,,,,,,
,,,,,V1_001,22,female,2024-04-29_09h06.08.686,jersey_experiment_5_v1,2023.2.2,Win32,85.47008547,,,,,,,,,,,,,,,,165.1869,166.4809,166.481,168.9455,return,0.415,,36.19791667,0,30,30,37,1,FBP-OG-18.png,0.4,1.2,38,0.5,,,,,,,,,,,,,,,,,,,,,,,,,,,,,,,,,,,,,,,,,,,,,
,,,,,V1_001,22,female,2024-04-29_09h06.08.686,jersey_experiment_5_v1,2023.2.2,Win32,85.47008547,,,,,,,,,,,,,,,,168.9457,170.7421,170.7421,172.7444,return,0.4943,,74.86979167,0,31,31,3,1,FBP-PT-71.png,0.43,1.2,4,1,,,,,,,,,,,,,,,,,,,,,,,,,,,,,,,,,,,,,,,,,,,,,
,,,,,V1_001,22,female,2024-04-29_09h06.08.686,jersey_experiment_5_v1,2023.2.2,Win32,85.47008547,,,,,,,,,,,,,,,,172.7445,174.0369,174.0369,176.2954,return,0.5164,,100,0,32,32,59,1,FBP-RB-91.png,0.45,1.2,60,0.5,,,,,,,,,,,,,,,,,,,,,,,,,,,,,,,,,,,,,,,,,,,,,
,,,,,V1_001,22,female,2024-04-29_09h06.08.686,jersey_experiment_5_v1,2023.2.2,Win32,85.47008547,,,,,,,,,,,,,,,,176.2956,177.5872,177.5873,180.9167,return,0.5907,,99.609375,0,33,33,39,1,FBP-OG-18.png,0.45,1.2,40,0.5,,,,,,,,,,,,,,,,,,,,,,,,,,,,,,,,,,,,,,,,,,,,,
,,,,,V1_001,22,female,2024-04-29_09h06.08.686,jersey_experiment_5_v1,2023.2.2,Win32,85.47008547,,,,,,,,,,,,,,,,180.9168,182.2109,182.2109,184.9169,return,0.6847,,74.86979167,0,34,34,57,1,FBP-RB-91.png,0.4,1.2,58,0.5,,,,,,,,,,,,,,,,,,,,,,,,,,,,,,,,,,,,,,,,,,,,,
,,,,,V1_001,22,female,2024-04-29_09h06.08.686,jersey_experiment_5_v1,2023.2.2,Win32,85.47008547,,,,,,,,,,,,,,,,184.9171,186.211,186.211,188.5757,return,0.513,,79.6875,0,35,35,28,1,FBP-YG-19.png,0.43,1.2,29,0.5,,,,,,,,,,,,,,,,,,,,,,,,,,,,,,,,,,,,,,,,,,,,,
,,,,,V1_001,22,female,2024-04-29_09h06.08.686,jersey_experiment_5_v1,2023.2.2,Win32,85.47008547,,,,,,,,,,,,,,,,188.5759,190.3801,190.3801,192.9448,return,0.4944,,80.20833333,0,36,36,13,1,FBP-PT-91.png,0.43,1.2,14,1,,,,,,,,,,,,,,,,,,,,,,,,,,,,,,,,,,,,,,,,,,,,,
,,,,,V1_001,22,female,2024-04-29_09h06.08.686,jersey_experiment_5_v1,2023.2.2,Win32,85.47008547,,,,,,,,,,,,,,,,192.945,194.2466,194.2467,196.5212,return,0.5294,,25.13020833,0,37,37,21,1,FBP-YG-18.png,0.37,1.2,22,0.5,,,,,,,,,,,,,,,,,,,,,,,,,,,,,,,,,,,,,,,,,,,,,
,,,,,V1_001,22,female,2024-04-29_09h06.08.686,jersey_experiment_5_v1,2023.2.2,Win32,85.47008547,,,,,,,,,,,,,,,,196.5214,198.3214,198.3214,200.3095,return,0.4459,,60.546875,0,38,38,12,1,FBP-PT-91.png,0.4,1.2,13,1,,,,,,,,,,,,,,,,,,,,,,,,,,,,,,,,,,,,,,,,,,,,,
,,,,,V1_001,22,female,2024-04-29_09h06.08.686,jersey_experiment_5_v1,2023.2.2,Win32,85.47008547,,,,,,,,,,,,,,,,200.3096,201.6022,201.6022,203.1882,return,0.3911,,81.51041667,0,39,39,19,1,FBP-YG-17.png,0.45,1.2,20,0.5,,,,,,,,,,,,,,,,,,,,,,,,,,,,,,,,,,,,,,,,,,,,,
,,,,,V1_001,22,female,2024-04-29_09h06.08.686,jersey_experiment_5_v1,2023.2.2,Win32,85.47008547,,,,,,,,,,,,,,,,203.1884,204.9923,204.9923,208.4706,return,2.5078,,35.15625,0,40,40,6,1,FBP-PT-81.png,0.37,1.2,7,1,,,,,,,,,,,,,,,,,,,,,,,,,,,,,,,,,,,,,,,,,,,,,
,,,,,V1_001,22,female,2024-04-29_09h06.08.686,jersey_experiment_5_v1,2023.2.2,Win32,85.47008547,,,,,,,,,,,,,,,,208.4708,209.7673,209.7673,212.1297,return,0.8295,,99.08854167,0,41,41,49,1,FBP-RB-71.png,0.45,1.2,50,0.5,,,,,,,,,,,,,,,,,,,,,,,,,,,,,,,,,,,,,,,,,,,,,
,,,,,V1_001,22,female,2024-04-29_09h06.08.686,jersey_experiment_5_v1,2023.2.2,Win32,85.47008547,,,,,,,,,,,,,,,,212.1299,213.9216,213.9217,221.1065,return,3.205,,25.78125,0,42,42,1,1,FBP-PT-71.png,0.37,1.2,2,1,,,,,,,,,,,,,,,,,,,,,,,,,,,,,,,,,,,,,,,,,,,,,
,,,,,V1_001,22,female,2024-04-29_09h06.08.686,jersey_experiment_5_v1,2023.2.2,Win32,85.47008547,,,,,,,,,,,,,,,,221.1108,222.4044,222.4044,230.793,return,0.5999,,74.34895833,0,43,43,52,1,FBP-RB-81.png,0.4,1.2,53,0.5,,,,,,,,,,,,,,,,,,,,,,,,,,,,,,,,,,,,,,,,,,,,,
,,,,,V1_001,22,female,2024-04-29_09h06.08.686,jersey_experiment_5_v1,2023.2.2,Win32,85.47008547,,,,,,,,,,,,,,,,230.7931,232.0871,232.0871,233.5344,return,0.4016,,74.34895833,0,44,44,32,1,FBP-OG-17.png,0.4,1.2,33,0.5,,,,,,,,,,,,,,,,,,,,,,,,,,,,,,,,,,,,,,,,,,,,,
,,,,,V1_001,22,female,2024-04-29_09h06.08.686,jersey_experiment_5_v1,2023.2.2,Win32,85.47008547,,,,,,,,,,,,,,,,233.5346,234.8364,234.8364,236.8154,return,0.434,,25.52083333,0,45,45,51,1,FBP-RB-81.png,0.37,1.2,52,0.5,,,,,,,,,,,,,,,,,,,,,,,,,,,,,,,,,,,,,,,,,,,,,
,,,,,V1_001,22,female,2024-04-29_09h06.08.686,jersey_experiment_5_v1,2023.2.2,Win32,85.47008547,,,,,,,,,,,,,,,,236.8156,238.1071,238.1071,239.5307,return,0.3734,,50.13020833,0,46,46,42,1,FBP-OG-19.png,0.4,1.2,43,0.5,,,,,,,,,,,,,,,,,,,,,,,,,,,,,,,,,,,,,,,,,,,,,
,,,,,V1_001,22,female,2024-04-29_09h06.08.686,jersey_experiment_5_v1,2023.2.2,Win32,85.47008547,,,,,,,,,,,,,,,,239.5308,240.8288,240.8288,242.5227,return,0.435,,25.26041667,0,47,47,45,1,FBP-RB-71.png,0.35,1.2,46,0.5,,,,,,,,,,,,,,,,,,,,,,,,,,,,,,,,,,,,,,,,,,,,,
,,,,,V1_001,22,female,2024-04-29_09h06.08.686,jersey_experiment_5_v1,2023.2.2,Win32,85.47008547,,,,,,,,,,,,,,,,242.523,243.8169,243.8169,245.7349,return,0.6844,,74.73958333,0,48,48,27,1,FBP-YG-19.png,0.4,1.2,28,0.5,,,,,,,,,,,,,,,,,,,,,,,,,,,,,,,,,,,,,,,,,,,,,
,,,,,V1_001,22,female,2024-04-29_09h06.08.686,jersey_experiment_5_v1,2023.2.2,Win32,85.47008547,,,,,,,,,,,,,,,,245.7351,247.0271,247.0272,248.2604,return,0.0868,,86.328125,0,49,49,38,1,FBP-OG-18.png,0.43,1.2,39,0.5,,,,,,,,,,,,,,,,,,,,,,,,,,,,,,,,,,,,,,,,,,,,,
,,,,,V1_001,22,female,2024-04-29_09h06.08.686,jersey_experiment_5_v1,2023.2.2,Win32,85.47008547,,,,,,,,,,,,,,,,248.2606,249.5545,249.5546,252.4757,return,0.1052,,50,0,50,50,50,1,FBP-RB-81.png,0.35,1.2,51,0.5,,,,,,,,,,,,,,,,,,,,,,,,,,,,,,,,,,,,,,,,,,,,,
,,,,,V1_001,22,female,2024-04-29_09h06.08.686,jersey_experiment_5_v1,2023.2.2,Win32,85.47008547,,,,,,,,,,,,,,,,252.4758,253.7695,253.7696,254.853,return,0.1198,,99.86979167,0,51,51,34,1,FBP-OG-17.png,0.45,1.2,35,0.5,,,,,,,,,,,,,,,,,,,,,,,,,,,,,,,,,,,,,,,,,,,,,
,,,,,V1_001,22,female,2024-04-29_09h06.08.686,jersey_experiment_5_v1,2023.2.2,Win32,85.47008547,,,,,,,,,,,,,,,,254.8531,256.1584,256.1584,256.7193,return,0.0781,,99.86979167,0,52,52,18,1,FBP-YG-17.png,0.43,1.2,19,0.5,,,,,,,,,,,,,,,,,,,,,,,,,,,,,,,,,,,,,,,,,,,,,
,,,,,V1_001,22,female,2024-04-29_09h06.08.686,jersey_experiment_5_v1,2023.2.2,Win32,85.47008547,,,,,,,,,,,,,,,,256.7196,258.0161,258.0161,259.5195,return,0.0915,,75.52083333,0,53,53,22,1,FBP-YG-18.png,0.4,1.2,23,0.5,,,,,,,,,,,,,,,,,,,,,,,,,,,,,,,,,,,,,,,,,,,,,
,,,,,V1_001,22,female,2024-04-29_09h06.08.686,jersey_experiment_5_v1,2023.2.2,Win32,85.47008547,,,,,,,,,,,,,,,,259.5197,260.8162,260.8162,263.1002,return,0.0726,,24.47916667,0,54,54,31,1,FBP-OG-17.png,0.37,1.2,32,0.5,,,,,,,,,,,,,,,,,,,,,,,,,,,,,,,,,,,,,,,,,,,,,
,,,,,V1_001,22,female,2024-04-29_09h06.08.686,jersey_experiment_5_v1,2023.2.2,Win32,85.47008547,,,,,,,,,,,,,,,,263.1005,264.4058,264.4058,264.8753,return,0.0695,,24.34895833,0,55,55,56,1,FBP-RB-91.png,0.37,1.2,57,0.5,,,,,,,,,,,,,,,,,,,,,,,,,,,,,,,,,,,,,,,,,,,,,
,,,,,V1_001,22,female,2024-04-29_09h06.08.686,jersey_experiment_5_v1,2023.2.2,Win32,85.47008547,,,,,,,,,,,,,,,,264.8754,266.1668,266.1668,267.3007,return,0.0494,,75.13020833,0,56,56,44,1,FBP-OG-19.png,0.45,1.2,45,0.5,,,,,,,,,,,,,,,,,,,,,,,,,,,,,,,,,,,,,,,,,,,,,
,,,,,V1_001,22,female,2024-04-29_09h06.08.686,jersey_experiment_5_v1,2023.2.2,Win32,85.47008547,,,,,,,,,,,,,,,,267.3009,268.6023,268.6023,271.5594,return,0.0254,,39.453125,0,57,57,46,1,FBP-RB-71.png,0.37,1.2,47,0.5,,,,,,,,,,,,,,,,,,,,,,,,,,,,,,,,,,,,,,,,,,,,,
,,,,,V1_001,22,female,2024-04-29_09h06.08.686,jersey_experiment_5_v1,2023.2.2,Win32,85.47008547,,,,,,,,,,,,,,,,271.5596,272.8612,272.8612,273.626,return,0.0358,,38.80208333,0,58,58,36,1,FBP-OG-18.png,0.37,1.2,37,0.5,,,,,,,,,,,,,,,,,,,,,,,,,,,,,,,,,,,,,,,,,,,,,
,,,,,V1_001,22,female,2024-04-29_09h06.08.686,jersey_experiment_5_v1,2023.2.2,Win32,85.47008547,,,,,,,,,,,,,,,,273.6262,275.4261,275.4261,277.195,return,0.108,,55.98958333,0,59,59,7,1,FBP-PT-81.png,0.4,1.2,8,1,,,,,,,,,,,,,,,,,,,,,,,,,,,,,,,,,,,,,,,,,,,,,
,,,,,V1_001,22,female,2024-04-29_09h06.08.686,jersey_experiment_5_v1,2023.2.2,Win32,85.47008547,,,,,,,,,,,,,,,,277.1971,278.4967,278.4967,279.242,return,0.0826,,75.78125,,,,,,FBP-OG-81.png,0.43,1.2,39,0.5,0,0,0,38,1,,,,,,,,,,,,,,,,,,,,,,,,,,,,,,,,,,,,,,,,
,,,,,V1_001,22,female,2024-04-29_09h06.08.686,jersey_experiment_5_v1,2023.2.2,Win32,85.47008547,,,,,,,,,,,,,,,,279.2423,280.5441,280.5441,281.0303,return,0.0473,,74.86979167,,,,,,FBP-RB-17.png,0.4,1.2,48,0.5,0,1,1,47,1,,,,,,,,,,,,,,,,,,,,,,,,,,,,,,,,,,,,,,,,
,,,,,V1_001,22,female,2024-04-29_09h06.08.686,jersey_experiment_5_v1,2023.2.2,Win32,85.47008547,,,,,,,,,,,,,,,,281.0306,282.3235,282.3235,283.0263,return,0.0516,,80.20833333,,,,,,FBP-OG-91.png,0.45,1.2,45,0.5,0,2,2,44,1,,,,,,,,,,,,,,,,,,,,,,,,,,,,,,,,,,,,,,,,
,,,,,V1_001,22,female,2024-04-29_09h06.08.686,jersey_experiment_5_v1,2023.2.2,Win32,85.47008547,,,,,,,,,,,,,,,,283.0265,284.3206,284.3206,285.5675,return,0.0783,,14.0625,,,,,,FBP-YG-71.png,0.35,1.2,16,0.5,0,3,3,15,1,,,,,,,,,,,,,,,,,,,,,,,,,,,,,,,,,,,,,,,,
,,,,,V1_001,22,female,2024-04-29_09h06.08.686,jersey_experiment_5_v1,2023.2.2,Win32,85.47008547,,,,,,,,,,,,,,,,285.5677,286.8616,286.8616,289.9208,return,0.0771,,56.640625,,,,,,FBP-YG-81.png,0.4,1.2,23,0.5,0,4,4,22,1,,,,,,,,,,,,,,,,,,,,,,,,,,,,,,,,,,,,,,,,
,,,,,V1_001,22,female,2024-04-29_09h06.08.686,jersey_experiment_5_v1,2023.2.2,Win32,85.47008547,,,,,,,,,,,,,,,,289.9209,291.2149,291.2149,292.3604,return,0.0708,,46.22395833,,,,,,FBP-OG-71.png,0.37,1.2,32,0.5,0,5,5,31,1,,,,,,,,,,,,,,,,,,,,,,,,,,,,,,,,,,,,,,,,
,,,,,V1_001,22,female,2024-04-29_09h06.08.686,jersey_experiment_5_v1,2023.2.2,Win32,85.47008547,,,,,,,,,,,,,,,,292.3605,293.662,293.6621,294.8776,return,0.0488,,25.26041667,,,,,,FBP-OG-91.png,0.35,1.2,41,0.5,0,6,6,40,1,,,,,,,,,,,,,,,,,,,,,,,,,,,,,,,,,,,,,,,,
,,,,,V1_001,22,female,2024-04-29_09h06.08.686,jersey_experiment_5_v1,2023.2.2,Win32,85.47008547,,,,,,,,,,,,,,,,294.8776,296.172,296.172,297.9209,return,0.0182,,99.609375,,,,,,FBP-RB-17.png,0.45,1.2,50,0.5,0,7,7,49,1,,,,,,,,,,,,,,,,,,,,,,,,,,,,,,,,,,,,,,,,
,,,,,V1_001,22,female,2024-04-29_09h06.08.686,jersey_experiment_5_v1,2023.2.2,Win32,85.47008547,,,,,,,,,,,,,,,,297.9212,299.7101,299.7101,300.1479,return,0.0466,,90.36458333,,,,,,FBP-PT-19.png,0.4,1.2,13,1,0,8,8,12,1,,,,,,,,,,,,,,,,,,,,,,,,,,,,,,,,,,,,,,,,
,,,,,V1_001,22,female,2024-04-29_09h06.08.686,jersey_experiment_5_v1,2023.2.2,Win32,85.47008547,,,,,,,,,,,,,,,,300.1482,301.4423,301.4423,302.2413,return,0.14,,99.609375,,,,,,FBP-YG-81.png,0.45,1.2,25,0.5,0,9,9,24,1,,,,,,,,,,,,,,,,,,,,,,,,,,,,,,,,,,,,,,,,
,,,,,V1_001,22,female,2024-04-29_09h06.08.686,jersey_experiment_5_v1,2023.2.2,Win32,85.47008547,,,,,,,,,,,,,,,,302.2414,303.5383,303.5383,304.0035,return,0.0845,,99.609375,,,,,,FBP-RB-18.png,0.43,1.2,54,0.5,0,10,10,53,1,,,,,,,,,,,,,,,,,,,,,,,,,,,,,,,,,,,,,,,,
,,,,,V1_001,22,female,2024-04-29_09h06.08.686,jersey_experiment_5_v1,2023.2.2,Win32,85.47008547,,,,,,,,,,,,,,,,304.0037,305.2977,305.2977,307.749,return,0.0943,,63.41145833,,,,,,FBP-YG-71.png,0.37,1.2,17,0.5,0,11,11,16,1,,,,,,,,,,,,,,,,,,,,,,,,,,,,,,,,,,,,,,,,
,,,,,V1_001,22,female,2024-04-29_09h06.08.686,jersey_experiment_5_v1,2023.2.2,Win32,85.47008547,,,,,,,,,,,,,,,,307.7492,309.0508,309.0508,309.5723,return,0.0823,,63.41145833,,,,,,FBP-YG-81.png,0.37,1.2,22,0.5,0,12,12,21,1,,,,,,,,,,,,,,,,,,,,,,,,,,,,,,,,,,,,,,,,
,,,,,V1_001,22,female,2024-04-29_09h06.08.686,jersey_experiment_5_v1,2023.2.2,Win32,85.47008547,,,,,,,,,,,,,,,,309.5725,310.8744,310.8744,312.051,return,0.144,,99.21875,,,,,,FBP-YG-91.png,0.43,1.2,29,0.5,0,13,13,28,1,,,,,,,,,,,,,,,,,,,,,,,,,,,,,,,,,,,,,,,,
,,,,,V1_001,22,female,2024-04-29_09h06.08.686,jersey_experiment_5_v1,2023.2.2,Win32,85.47008547,,,,,,,,,,,,,,,,312.0512,313.8439,313.8439,314.804,return,0.0503,,75,,,,,,FBP-PT-17.png,0.4,1.2,3,1,0,14,14,2,1,,,,,,,,,,,,,,,,,,,,,,,,,,,,,,,,,,,,,,,,
,,,,,V1_001,22,female,2024-04-29_09h06.08.686,jersey_experiment_5_v1,2023.2.2,Win32,85.47008547,,,,,,,,,,,,,,,,314.8041,316.5967,316.5967,317.3336,return,0.1901,,99.34895833,,,,,,FBP-PT-19.png,0.45,1.2,15,1,0,15,15,14,1,,,,,,,,,,,,,,,,,,,,,,,,,,,,,,,,,,,,,,,,
,,,,,V1_001,22,female,2024-04-29_09h06.08.686,jersey_experiment_5_v1,2023.2.2,Win32,85.47008547,,,,,,,,,,,,,,,,317.3338,319.138,319.138,320.3495,return,0.3413,,92.44791667,,,,,,FBP-PT-18.png,0.43,1.2,9,1,0,16,16,8,1,,,,,,,,,,,,,,,,,,,,,,,,,,,,,,,,,,,,,,,,
,,,,,V1_001,22,female,2024-04-29_09h06.08.686,jersey_experiment_5_v1,2023.2.2,Win32,85.47008547,,,,,,,,,,,,,,,,320.3497,321.655,321.655,323.385,return,0.0472,,25.65104167,,,,,,FBP-RB-19.png,0.37,1.2,57,0.5,0,17,17,56,1,,,,,,,,,,,,,,,,,,,,,,,,,,,,,,,,,,,,,,,,
,,,,,V1_001,22,female,2024-04-29_09h06.08.686,jersey_experiment_5_v1,2023.2.2,Win32,85.47008547,,,,,,,,,,,,,,,,323.3853,324.6903,324.6903,325.3023,return,0.1057,,25.52083333,,,,,,FBP-RB-19.png,0.35,1.2,56,0.5,0,18,18,55,1,,,,,,,,,,,,,,,,,,,,,,,,,,,,,,,,,,,,,,,,
,,,,,V1_001,22,female,2024-04-29_09h06.08.686,jersey_experiment_5_v1,2023.2.2,Win32,85.47008547,,,,,,,,,,,,,,,,325.3024,327.0985,327.0985,328.8868,return,0.0816,,32.29166667,,,,,,FBP-PT-19.png,0.37,1.2,12,1,0,19,19,11,1,,,,,,,,,,,,,,,,,,,,,,,,,,,,,,,,,,,,,,,,
,,,,,V1_001,22,female,2024-04-29_09h06.08.686,jersey_experiment_5_v1,2023.2.2,Win32,85.47008547,,,,,,,,,,,,,,,,328.887,330.181,330.1811,331.1614,return,0.0234,,74.86979167,,,,,,FBP-YG-81.png,0.43,1.2,24,0.5,0,20,20,23,1,,,,,,,,,,,,,,,,,,,,,,,,,,,,,,,,,,,,,,,,
,,,,,V1_001,22,female,2024-04-29_09h06.08.686,jersey_experiment_5_v1,2023.2.2,Win32,85.47008547,,,,,,,,,,,,,,,,331.1615,332.9575,332.9576,335.9027,return,1.0116,,66.66666667,,,,,,FBP-PT-18.png,0.4,1.2,8,1,0,21,21,7,1,,,,,,,,,,,,,,,,,,,,,,,,,,,,,,,,,,,,,,,,
,,,,,V1_001,22,female,2024-04-29_09h06.08.686,jersey_experiment_5_v1,2023.2.2,Win32,85.47008547,,,,,,,,,,,,,,,,335.9028,337.7035,337.7035,339.2793,return,0.5782,,31.640625,,,,,,FBP-PT-18.png,0.35,1.2,6,1,0,22,22,5,1,,,,,,,,,,,,,,,,,,,,,,,,,,,,,,,,,,,,,,,,
,,,,,V1_001,22,female,2024-04-29_09h06.08.686,jersey_experiment_5_v1,2023.2.2,Win32,85.47008547,,,,,,,,,,,,,,,,339.2795,341.0755,341.0755,341.5107,return,0.1186,,31.640625,,,,,,FBP-PT-17.png,0.37,1.2,2,1,0,23,23,1,1,,,,,,,,,,,,,,,,,,,,,,,,,,,,,,,,,,,,,,,,
,,,,,V1_001,22,female,2024-04-29_09h06.08.686,jersey_experiment_5_v1,2023.2.2,Win32,85.47008547,,,,,,,,,,,,,,,,341.511,342.805,342.805,344.311,return,0.143,,29.296875,,,,,,FBP-RB-17.png,0.35,1.2,46,0.5,0,24,24,45,1,,,,,,,,,,,,,,,,,,,,,,,,,,,,,,,,,,,,,,,,
,,,,,V1_001,22,female,2024-04-29_09h06.08.686,jersey_experiment_5_v1,2023.2.2,Win32,85.47008547,,,,,,,,,,,,,,,,344.3112,345.6073,345.6073,347.1856,return,0.0825,,99.86979167,,,,,,FBP-RB-19.png,0.43,1.2,59,0.5,0,25,25,58,1,,,,,,,,,,,,,,,,,,,,,,,,,,,,,,,,,,,,,,,,
,,,,,V1_001,22,female,2024-04-29_09h06.08.686,jersey_experiment_5_v1,2023.2.2,Win32,85.47008547,,,,,,,,,,,,,,,,347.1859,348.4875,348.4875,349.609,return,0.249,,76.953125,,,,,,FBP-YG-71.png,0.4,1.2,18,0.5,0,26,26,17,1,,,,,,,,,,,,,,,,,,,,,,,,,,,,,,,,,,,,,,,,
,,,,,V1_001,22,female,2024-04-29_09h06.08.686,jersey_experiment_5_v1,2023.2.2,Win32,85.47008547,,,,,,,,,,,,,,,,349.6092,350.9133,350.9133,352.3269,return,0.1416,,77.86458333,,,,,,FBP-RB-17.png,0.43,1.2,49,0.5,0,27,27,48,1,,,,,,,,,,,,,,,,,,,,,,,,,,,,,,,,,,,,,,,,
,,,,,V1_001,22,female,2024-04-29_09h06.08.686,jersey_experiment_5_v1,2023.2.2,Win32,85.47008547,,,,,,,,,,,,,,,,352.327,353.633,353.6331,355.5977,return,0.0724,,25.78125,,,,,,FBP-YG-91.png,0.35,1.2,26,0.5,0,28,28,25,1,,,,,,,,,,,,,,,,,,,,,,,,,,,,,,,,,,,,,,,,
,,,,,V1_001,22,female,2024-04-29_09h06.08.686,jersey_experiment_5_v1,2023.2.2,Win32,85.47008547,,,,,,,,,,,,,,,,355.5979,356.8915,356.8916,358.6291,return,0.3103,,99.21875,,,,,,FBP-OG-71.png,0.45,1.2,35,0.5,0,29,29,34,1,,,,,,,,,,,,,,,,,,,,,,,,,,,,,,,,,,,,,,,,
,,,,,V1_001,22,female,2024-04-29_09h06.08.686,jersey_experiment_5_v1,2023.2.2,Win32,85.47008547,,,,,,,,,,,,,,,,358.6293,359.9271,359.9271,360.6879,return,0.1726,,99.21875,,,,,,FBP-YG-91.png,0.45,1.2,30,0.5,0,30,30,29,1,,,,,,,,,,,,,,,,,,,,,,,,,,,,,,,,,,,,,,,,
,,,,,V1_001,22,female,2024-04-29_09h06.08.686,jersey_experiment_5_v1,2023.2.2,Win32,85.47008547,,,,,,,,,,,,,,,,360.6881,362.4826,362.4826,363.539,return,0.2117,,25.390625,,,,,,FBP-PT-19.png,0.35,1.2,11,1,0,31,31,10,1,,,,,,,,,,,,,,,,,,,,,,,,,,,,,,,,,,,,,,,,
,,,,,V1_001,22,female,2024-04-29_09h06.08.686,jersey_experiment_5_v1,2023.2.2,Win32,85.47008547,,,,,,,,,,,,,,,,363.5391,364.8335,364.8335,365.4793,return,0.1401,,25.390625,,,,,,FBP-YG-81.png,0.35,1.2,21,0.5,0,32,32,20,1,,,,,,,,,,,,,,,,,,,,,,,,,,,,,,,,,,,,,,,,
,,,,,V1_001,22,female,2024-04-29_09h06.08.686,jersey_experiment_5_v1,2023.2.2,Win32,85.47008547,,,,,,,,,,,,,,,,365.4794,367.2765,367.2766,368.0805,return,0.188,,99.34895833,,,,,,FBP-PT-19.png,0.43,1.2,14,1,0,33,33,13,1,,,,,,,,,,,,,,,,,,,,,,,,,,,,,,,,,,,,,,,,
,,,,,V1_001,22,female,2024-04-29_09h06.08.686,jersey_experiment_5_v1,2023.2.2,Win32,85.47008547,,,,,,,,,,,,,,,,368.0805,369.3825,369.3825,377.571,return,0.7691,,75.13020833,,,,,,FBP-OG-91.png,0.37,1.2,42,0.5,0,34,34,41,1,,,,,,,,,,,,,,,,,,,,,,,,,,,,,,,,,,,,,,,,
,,,,,V1_001,22,female,2024-04-29_09h06.08.686,jersey_experiment_5_v1,2023.2.2,Win32,85.47008547,,,,,,,,,,,,,,,,377.5712,378.8672,378.8672,380.4063,return,0.6252,,75,,,,,,FBP-RB-19.png,0.4,1.2,58,0.5,0,35,35,57,1,,,,,,,,,,,,,,,,,,,,,,,,,,,,,,,,,,,,,,,,
,,,,,V1_001,22,female,2024-04-29_09h06.08.686,jersey_experiment_5_v1,2023.2.2,Win32,85.47008547,,,,,,,,,,,,,,,,380.4066,381.7004,381.7004,383.5358,return,0.1742,,86.84895833,,,,,,FBP-RB-18.png,0.45,1.2,55,0.5,0,36,36,54,1,,,,,,,,,,,,,,,,,,,,,,,,,,,,,,,,,,,,,,,,
,,,,,V1_001,22,female,2024-04-29_09h06.08.686,jersey_experiment_5_v1,2023.2.2,Win32,85.47008547,,,,,,,,,,,,,,,,383.536,384.83,384.83,388.7886,return,1.3193,,74.73958333,,,,,,FBP-OG-81.png,0.4,1.2,38,0.5,0,37,37,37,1,,,,,,,,,,,,,,,,,,,,,,,,,,,,,,,,,,,,,,,,
,,,,,V1_001,22,female,2024-04-29_09h06.08.686,jersey_experiment_5_v1,2023.2.2,Win32,85.47008547,,,,,,,,,,,,,,,,388.7888,390.0803,390.0804,392.0698,return,1.387,,72.00520833,,,,,,FBP-OG-71.png,0.4,1.2,33,0.5,0,38,38,32,1,,,,,,,,,,,,,,,,,,,,,,,,,,,,,,,,,,,,,,,,
,,,,,V1_001,22,female,2024-04-29_09h06.08.686,jersey_experiment_5_v1,2023.2.2,Win32,85.47008547,,,,,,,,,,,,,,,,392.0699,393.3627,393.3627,394.4186,return,0.358,,99.47916667,,,,,,FBP-RB-19.png,0.45,1.2,60,0.5,0,39,39,59,1,,,,,,,,,,,,,,,,,,,,,,,,,,,,,,,,,,,,,,,,
,,,,,V1_001,22,female,2024-04-29_09h06.08.686,jersey_experiment_5_v1,2023.2.2,Win32,85.47008547,,,,,,,,,,,,,,,,394.4188,395.7129,395.7129,396.7737,return,0.0689,,25.26041667,,,,,,FBP-OG-71.png,0.35,1.2,31,0.5,0,40,40,30,1,,,,,,,,,,,,,,,,,,,,,,,,,,,,,,,,,,,,,,,,
,,,,,V1_001,22,female,2024-04-29_09h06.08.686,jersey_experiment_5_v1,2023.2.2,Win32,85.47008547,,,,,,,,,,,,,,,,396.7739,398.5741,398.5741,399.224,return,0.2347,,25.26041667,,,,,,FBP-PT-17.png,0.35,1.2,1,1,0,41,41,0,1,,,,,,,,,,,,,,,,,,,,,,,,,,,,,,,,,,,,,,,,
,,,,,V1_001,22,female,2024-04-29_09h06.08.686,jersey_experiment_5_v1,2023.2.2,Win32,85.47008547,,,,,,,,,,,,,,,,399.2242,400.5166,400.5166,401.4308,return,0.0951,,19.27083333,,,,,,FBP-OG-81.png,0.35,1.2,36,0.5,0,42,42,35,1,,,,,,,,,,,,,,,,,,,,,,,,,,,,,,,,,,,,,,,,
,,,,,V1_001,22,female,2024-04-29_09h06.08.686,jersey_experiment_5_v1,2023.2.2,Win32,85.47008547,,,,,,,,,,,,,,,,401.431,402.7274,402.7274,403.3036,return,0.0692,,19.27083333,,,,,,FBP-OG-81.png,0.37,1.2,37,0.5,0,43,43,36,1,,,,,,,,,,,,,,,,,,,,,,,,,,,,,,,,,,,,,,,,
,,,,,V1_001,22,female,2024-04-29_09h06.08.686,jersey_experiment_5_v1,2023.2.2,Win32,85.47008547,,,,,,,,,,,,,,,,403.3037,404.5975,404.5976,406.0073,return,0.2013,,87.36979167,,,,,,FBP-OG-81.png,0.45,1.2,40,0.5,0,44,44,39,1,,,,,,,,,,,,,,,,,,,,,,,,,,,,,,,,,,,,,,,,
,,,,,V1_001,22,female,2024-04-29_09h06.08.686,jersey_experiment_5_v1,2023.2.2,Win32,85.47008547,,,,,,,,,,,,,,,,406.0075,407.3051,407.3051,411.882,return,0.2585,,42.578125,,,,,,FBP-RB-18.png,0.35,1.2,51,0.5,0,45,45,50,1,,,,,,,,,,,,,,,,,,,,,,,,,,,,,,,,,,,,,,,,
,,,,,V1_001,22,female,2024-04-29_09h06.08.686,jersey_experiment_5_v1,2023.2.2,Win32,85.47008547,,,,,,,,,,,,,,,,411.8821,413.6821,413.6821,414.2899,return,0.1826,,87.23958333,,,,,,FBP-PT-17.png,0.45,1.2,5,1,0,46,46,4,1,,,,,,,,,,,,,,,,,,,,,,,,,,,,,,,,,,,,,,,,
,,,,,V1_001,22,female,2024-04-29_09h06.08.686,jersey_experiment_5_v1,2023.2.2,Win32,85.47008547,,,,,,,,,,,,,,,,414.29,415.5841,415.5842,416.9059,return,0.1078,,67.83854167,,,,,,FBP-OG-91.png,0.4,1.2,43,0.5,0,47,47,42,1,,,,,,,,,,,,,,,,,,,,,,,,,,,,,,,,,,,,,,,,
,,,,,V1_001,22,female,2024-04-29_09h06.08.686,jersey_experiment_5_v1,2023.2.2,Win32,85.47008547,,,,,,,,,,,,,,,,416.9061,418.2116,418.2116,420.3254,return,0.0125,,66.40625,,,,,,FBP-YG-91.png,0.37,1.2,27,0.5,0,48,48,26,1,,,,,,,,,,,,,,,,,,,,,,,,,,,,,,,,,,,,,,,,
,,,,,V1_001,22,female,2024-04-29_09h06.08.686,jersey_experiment_5_v1,2023.2.2,Win32,85.47008547,,,,,,,,,,,,,,,,420.3256,421.6196,421.6197,422.1962,return,0.0731,,66.40625,,,,,,FBP-YG-91.png,0.4,1.2,28,0.5,0,49,49,27,1,,,,,,,,,,,,,,,,,,,,,,,,,,,,,,,,,,,,,,,,
,,,,,V1_001,22,female,2024-04-29_09h06.08.686,jersey_experiment_5_v1,2023.2.2,Win32,85.47008547,,,,,,,,,,,,,,,,422.1965,423.4936,423.4936,424.8316,return,0.4673,,25.65104167,,,,,,FBP-RB-17.png,0.37,1.2,47,0.5,0,50,50,46,1,,,,,,,,,,,,,,,,,,,,,,,,,,,,,,,,,,,,,,,,
,,,,,V1_001,22,female,2024-04-29_09h06.08.686,jersey_experiment_5_v1,2023.2.2,Win32,85.47008547,,,,,,,,,,,,,,,,424.8318,426.1305,426.1305,427.2929,return,0.1722,,75.65104167,,,,,,FBP-OG-71.png,0.43,1.2,34,0.5,0,51,51,33,1,,,,,,,,,,,,,,,,,,,,,,,,,,,,,,,,,,,,,,,,
,,,,,V1_001,22,female,2024-04-29_09h06.08.686,jersey_experiment_5_v1,2023.2.2,Win32,85.47008547,,,,,,,,,,,,,,,,427.2932,428.5847,428.5847,429.0962,return,0.1194,,75.65104167,,,,,,FBP-YG-71.png,0.43,1.2,19,0.5,0,52,52,18,1,,,,,,,,,,,,,,,,,,,,,,,,,,,,,,,,,,,,,,,,
,,,,,V1_001,22,female,2024-04-29_09h06.08.686,jersey_experiment_5_v1,2023.2.2,Win32,85.47008547,,,,,,,,,,,,,,,,429.0964,430.4002,430.4003,430.6906,return,0.0518,,75.65104167,,,,,,FBP-OG-91.png,0.43,1.2,44,0.5,0,53,53,43,1,,,,,,,,,,,,,,,,,,,,,,,,,,,,,,,,,,,,,,,,
,,,,,V1_001,22,female,2024-04-29_09h06.08.686,jersey_experiment_5_v1,2023.2.2,Win32,85.47008547,,,,,,,,,,,,,,,,430.6908,431.9867,431.9867,432.3258,return,0.1913,,75.65104167,,,,,,FBP-RB-18.png,0.4,1.2,53,0.5,0,54,54,52,1,,,,,,,,,,,,,,,,,,,,,,,,,,,,,,,,,,,,,,,,
,,,,,V1_001,22,female,2024-04-29_09h06.08.686,jersey_experiment_5_v1,2023.2.2,Win32,85.47008547,,,,,,,,,,,,,,,,432.3261,434.126,434.126,435.0437,return,0.0389,,61.06770833,,,,,,FBP-PT-18.png,0.37,1.2,7,1,0,55,55,6,1,,,,,,,,,,,,,,,,,,,,,,,,,,,,,,,,,,,,,,,,
,,,,,V1_001,22,female,2024-04-29_09h06.08.686,jersey_experiment_5_v1,2023.2.2,Win32,85.47008547,,,,,,,,,,,,,,,,435.044,436.8368,436.8368,437.3183,return,0.1297,,87.76041667,,,,,,FBP-PT-18.png,0.45,1.2,10,1,0,56,56,9,1,,,,,,,,,,,,,,,,,,,,,,,,,,,,,,,,,,,,,,,,
,,,,,V1_001,22,female,2024-04-29_09h06.08.686,jersey_experiment_5_v1,2023.2.2,Win32,85.47008547,,,,,,,,,,,,,,,,437.3185,439.1145,439.1145,439.7146,return,0.0536,,87.76041667,,,,,,FBP-PT-17.png,0.43,1.2,4,1,0,57,57,3,1,,,,,,,,,,,,,,,,,,,,,,,,,,,,,,,,,,,,,,,,
,,,,,V1_001,22,female,2024-04-29_09h06.08.686,jersey_experiment_5_v1,2023.2.2,Win32,85.47008547,,,,,,,,,,,,,,,,439.7148,441.0131,441.0131,441.4556,return,0.03,,87.76041667,,,,,,FBP-YG-71.png,0.45,1.2,20,0.5,0,58,58,19,1,,,,,,,,,,,,,,,,,,,,,,,,,,,,,,,,,,,,,,,,
,,,,,V1_001,22,female,2024-04-29_09h06.08.686,jersey_experiment_5_v1,2023.2.2,Win32,85.47008547,,,,,,,,,,,,,,,,441.4558,442.7525,442.7525,444.0833,return,0.0723,,40.36458333,,,,,,FBP-RB-18.png,0.37,1.2,52,0.5,0,59,59,51,1,,,,,,,,,,,,,,,,,,,,,,,,,,,,,,,,,,,,,,,,
,,,,,V1_001,22,female,2024-04-29_09h06.08.686,jersey_experiment_5_v1,2023.2.2,Win32,85.47008547,,,,,,,,,,,,,,,,,,,,,,,,,,,,,,,,,,,,,,,444.0837,564.0895,,,,,,,,,,,,,,,,,,,,,,,,,,,,,,,,,,,,,,
,,,,,V1_001,22,female,2024-04-29_09h06.08.686,jersey_experiment_5_v1,2023.2.2,Win32,85.47008547,,,,,,,,,,,,,,,,,,,,,,,,,,,,,,,,,,,,,,,,,564.0895,580.875,return,16.7624,,,,,,,,,,,,,,,,,,,,,,,,,,,,,,,,,,
,,,,,V1_001,22,female,2024-04-29_09h06.08.686,jersey_experiment_5_v1,2023.2.2,Win32,85.47008547,,,,,,,,,,,,,,,,580.8825,582.677,582.677,585.0648,return,0.1058,,66.796875,,,,,,FBP-YG-18.png,0.43,1.2,24,1,,,,,,,,,,,,,0,0,0,23,1,,,,,,,,,,,,,,,,,,,,,,,,,,,,
,,,,,V1_001,22,female,2024-04-29_09h06.08.686,jersey_experiment_5_v1,2023.2.2,Win32,85.47008547,,,,,,,,,,,,,,,,585.0651,586.8612,586.8612,587.5082,return,0.0751,,92.96875,,,,,,FBP-OG-18.png,0.45,1.2,40,1,,,,,,,,,,,,,0,1,1,39,1,,,,,,,,,,,,,,,,,,,,,,,,,,,,
,,,,,V1_001,22,female,2024-04-29_09h06.08.686,jersey_experiment_5_v1,2023.2.2,Win32,85.47008547,,,,,,,,,,,,,,,,587.5084,589.3011,589.3011,589.8886,return,0.0353,,37.36979167,,,,,,FBP-RB-71.png,0.37,1.2,47,1,,,,,,,,,,,,,0,2,2,46,1,,,,,,,,,,,,,,,,,,,,,,,,,,,,
,,,,,V1_001,22,female,2024-04-29_09h06.08.686,jersey_experiment_5_v1,2023.2.2,Win32,85.47008547,,,,,,,,,,,,,,,,589.8888,591.687,591.6871,592.3494,return,0.0473,,75.78125,,,,,,FBP-YG-18.png,0.45,1.2,25,1,,,,,,,,,,,,,0,3,3,24,1,,,,,,,,,,,,,,,,,,,,,,,,,,,,
,,,,,V1_001,22,female,2024-04-29_09h06.08.686,jersey_experiment_5_v1,2023.2.2,Win32,85.47008547,,,,,,,,,,,,,,,,592.3495,594.1484,594.1484,594.4965,return,0.0183,,66.015625,,,,,,FBP-OG-19.png,0.4,1.2,43,1,,,,,,,,,,,,,0,4,4,42,1,,,,,,,,,,,,,,,,,,,,,,,,,,,,
,,,,,V1_001,22,female,2024-04-29_09h06.08.686,jersey_experiment_5_v1,2023.2.2,Win32,85.47008547,,,,,,,,,,,,,,,,594.4968,595.7948,595.7949,596.4379,return,0.0268,,89.58333333,,,,,,FBP-PT-71.png,0.45,1.2,5,0.5,,,,,,,,,,,,,0,5,5,4,1,,,,,,,,,,,,,,,,,,,,,,,,,,,,
,,,,,V1_001,22,female,2024-04-29_09h06.08.686,jersey_experiment_5_v1,2023.2.2,Win32,85.47008547,,,,,,,,,,,,,,,,596.4382,597.7321,597.7321,598.6733,return,0.0551,,92.83854167,,,,,,FBP-PT-81.png,0.45,1.2,10,0.5,,,,,,,,,,,,,0,6,6,9,1,,,,,,,,,,,,,,,,,,,,,,,,,,,,
,,,,,V1_001,22,female,2024-04-29_09h06.08.686,jersey_experiment_5_v1,2023.2.2,Win32,85.47008547,,,,,,,,,,,,,,,,598.6735,600.4668,600.4668,601.1941,return,0.3739,,92.83854167,,,,,,FBP-YG-17.png,0.45,1.2,20,1,,,,,,,,,,,,,0,7,7,19,1,,,,,,,,,,,,,,,,,,,,,,,,,,,,
,,,,,V1_001,22,female,2024-04-29_09h06.08.686,jersey_experiment_5_v1,2023.2.2,Win32,85.47008547,,,,,,,,,,,,,,,,601.1942,602.9913,602.9914,603.6408,return,0.1048,,86.328125,,,,,,FBP-RB-91.png,0.43,1.2,59,1,,,,,,,,,,,,,0,8,8,58,1,,,,,,,,,,,,,,,,,,,,,,,,,,,,
,,,,,V1_001,22,female,2024-04-29_09h06.08.686,jersey_experiment_5_v1,2023.2.2,Win32,85.47008547,,,,,,,,,,,,,,,,603.6411,605.4411,605.4411,606.1248,return,0.0486,,14.71354167,,,,,,FBP-OG-18.png,0.35,1.2,36,1,,,,,,,,,,,,,0,9,9,35,1,,,,,,,,,,,,,,,,,,,,,,,,,,,,
,,,,,V1_001,22,female,2024-04-29_09h06.08.686,jersey_experiment_5_v1,2023.2.2,Win32,85.47008547,,,,,,,,,,,,,,,,606.125,607.9207,607.9207,608.356,return,0.0738,,9.244791667,,,,,,FBP-YG-18.png,0.35,1.2,21,1,,,,,,,,,,,,,0,10,10,20,1,,,,,,,,,,,,,,,,,,,,,,,,,,,,
,,,,,V1_001,22,female,2024-04-29_09h06.08.686,jersey_experiment_5_v1,2023.2.2,Win32,85.47008547,,,,,,,,,,,,,,,,608.3562,610.1609,610.1609,610.7208,return,0.0891,,7.421875,,,,,,FBP-OG-17.png,0.35,1.2,31,1,,,,,,,,,,,,,0,11,11,30,1,,,,,,,,,,,,,,,,,,,,,,,,,,,,
,,,,,V1_001,22,female,2024-04-29_09h06.08.686,jersey_experiment_5_v1,2023.2.2,Win32,85.47008547,,,,,,,,,,,,,,,,610.721,612.5139,612.514,613.15,return,0.0826,,88.671875,,,,,,FBP-OG-17.png,0.45,1.2,35,1,,,,,,,,,,,,,0,12,12,34,1,,,,,,,,,,,,,,,,,,,,,,,,,,,,
,,,,,V1_001,22,female,2024-04-29_09h06.08.686,jersey_experiment_5_v1,2023.2.2,Win32,85.47008547,,,,,,,,,,,,,,,,613.1501,614.9502,614.9502,615.8268,return,0.065,,76.5625,,,,,,FBP-YG-17.png,0.4,1.2,18,1,,,,,,,,,,,,,0,13,13,17,1,,,,,,,,,,,,,,,,,,,,,,,,,,,,
,,,,,V1_001,22,female,2024-04-29_09h06.08.686,jersey_experiment_5_v1,2023.2.2,Win32,85.47008547,,,,,,,,,,,,,,,,615.8271,617.1258,617.1258,617.9211,return,0.0652,,28.515625,,,,,,FBP-PT-91.png,0.35,1.2,11,0.5,,,,,,,,,,,,,0,14,14,10,1,,,,,,,,,,,,,,,,,,,,,,,,,,,,
,,,,,V1_001,22,female,2024-04-29_09h06.08.686,jersey_experiment_5_v1,2023.2.2,Win32,85.47008547,,,,,,,,,,,,,,,,617.9213,619.7211,619.7211,621.5095,return,0.0977,,67.44791667,,,,,,FBP-RB-81.png,0.4,1.2,53,1,,,,,,,,,,,,,0,15,15,52,1,,,,,,,,,,,,,,,,,,,,,,,,,,,,
,,,,,V1_001,22,female,2024-04-29_09h06.08.686,jersey_experiment_5_v1,2023.2.2,Win32,85.47008547,,,,,,,,,,,,,,,,621.5097,623.3183,623.3183,624.5825,return,0.047,,99.08854167,,,,,,FBP-RB-81.png,0.45,1.2,55,1,,,,,,,,,,,,,0,16,16,54,1,,,,,,,,,,,,,,,,,,,,,,,,,,,,
,,,,,V1_001,22,female,2024-04-29_09h06.08.686,jersey_experiment_5_v1,2023.2.2,Win32,85.47008547,,,,,,,,,,,,,,,,624.5826,626.3846,626.3846,627.6669,return,0.0816,,45.44270833,,,,,,FBP-OG-18.png,0.37,1.2,37,1,,,,,,,,,,,,,0,17,17,36,1,,,,,,,,,,,,,,,,,,,,,,,,,,,,
,,,,,V1_001,22,female,2024-04-29_09h06.08.686,jersey_experiment_5_v1,2023.2.2,Win32,85.47008547,,,,,,,,,,,,,,,,627.667,629.4629,629.4629,629.9567,return,0.1553,,41.14583333,,,,,,FBP-YG-17.png,0.37,1.2,17,1,,,,,,,,,,,,,0,18,18,16,1,,,,,,,,,,,,,,,,,,,,,,,,,,,,
,,,,,V1_001,22,female,2024-04-29_09h06.08.686,jersey_experiment_5_v1,2023.2.2,Win32,85.47008547,,,,,,,,,,,,,,,,629.957,631.7486,631.7486,632.1804,return,0.0827,,38.15104167,,,,,,FBP-OG-19.png,0.35,1.2,41,1,,,,,,,,,,,,,0,19,19,40,1,,,,,,,,,,,,,,,,,,,,,,,,,,,,
,,,,,V1_001,22,female,2024-04-29_09h06.08.686,jersey_experiment_5_v1,2023.2.2,Win32,85.47008547,,,,,,,,,,,,,,,,632.1806,633.9752,633.9752,634.6535,return,0.141,,91.14583333,,,,,,FBP-RB-81.png,0.43,1.2,54,1,,,,,,,,,,,,,0,20,20,53,1,,,,,,,,,,,,,,,,,,,,,,,,,,,,
,,,,,V1_001,22,female,2024-04-29_09h06.08.686,jersey_experiment_5_v1,2023.2.2,Win32,85.47008547,,,,,,,,,,,,,,,,634.6536,636.4512,636.4512,637.3945,return,0.1514,,74.47916667,,,,,,FBP-OG-18.png,0.4,1.2,38,1,,,,,,,,,,,,,0,21,21,37,1,,,,,,,,,,,,,,,,,,,,,,,,,,,,
,,,,,V1_001,22,female,2024-04-29_09h06.08.686,jersey_experiment_5_v1,2023.2.2,Win32,85.47008547,,,,,,,,,,,,,,,,637.3946,638.6902,638.6902,640.0319,return,0.0957,,50.26041667,,,,,,FBP-PT-81.png,0.37,1.2,7,0.5,,,,,,,,,,,,,0,22,22,6,1,,,,,,,,,,,,,,,,,,,,,,,,,,,,
,,,,,V1_001,22,female,2024-04-29_09h06.08.686,jersey_experiment_5_v1,2023.2.2,Win32,85.47008547,,,,,,,,,,,,,,,,640.032,641.8315,641.8315,642.7963,return,0.2001,,74.73958333,,,,,,FBP-YG-17.png,0.43,1.2,19,1,,,,,,,,,,,,,0,23,23,18,1,,,,,,,,,,,,,,,,,,,,,,,,,,,,
,,,,,V1_001,22,female,2024-04-29_09h06.08.686,jersey_experiment_5_v1,2023.2.2,Win32,85.47008547,,,,,,,,,,,,,,,,642.7964,644.5927,644.5927,645.0318,return,0.1296,,74.609375,,,,,,FBP-OG-19.png,0.43,1.2,44,1,,,,,,,,,,,,,0,24,24,43,1,,,,,,,,,,,,,,,,,,,,,,,,,,,,
,,,,,V1_001,22,female,2024-04-29_09h06.08.686,jersey_experiment_5_v1,2023.2.2,Win32,85.47008547,,,,,,,,,,,,,,,,645.0319,646.3375,646.3375,647.8554,return,0.0708,,34.89583333,,,,,,FBP-PT-71.png,0.37,1.2,2,0.5,,,,,,,,,,,,,0,25,25,1,1,,,,,,,,,,,,,,,,,,,,,,,,,,,,
,,,,,V1_001,22,female,2024-04-29_09h06.08.686,jersey_experiment_5_v1,2023.2.2,Win32,85.47008547,,,,,,,,,,,,,,,,647.8556,649.6517,649.6517,653.4333,return,0.1187,,34.89583333,,,,,,FBP-RB-91.png,0.4,1.2,58,1,,,,,,,,,,,,,0,26,26,57,1,,,,,,,,,,,,,,,,,,,,,,,,,,,,
,,,,,V1_001,22,female,2024-04-29_09h06.08.686,jersey_experiment_5_v1,2023.2.2,Win32,85.47008547,,,,,,,,,,,,,,,,653.4335,655.2322,655.2322,656.5855,return,0.0223,,25.78125,,,,,,FBP-YG-17.png,0.35,1.2,16,1,,,,,,,,,,,,,0,27,27,15,1,,,,,,,,,,,,,,,,,,,,,,,,,,,,
,,,,,V1_001,22,female,2024-04-29_09h06.08.686,jersey_experiment_5_v1,2023.2.2,Win32,85.47008547,,,,,,,,,,,,,,,,656.5857,658.3815,658.3815,658.9735,return,0.0954,,66.40625,,,,,,FBP-YG-19.png,0.4,1.2,28,1,,,,,,,,,,,,,0,28,28,27,1,,,,,,,,,,,,,,,,,,,,,,,,,,,,
,,,,,V1_001,22,female,2024-04-29_09h06.08.686,jersey_experiment_5_v1,2023.2.2,Win32,85.47008547,,,,,,,,,,,,,,,,658.9736,660.7696,660.7696,661.0563,return,0.0962,,66.40625,,,,,,FBP-RB-71.png,0.4,1.2,48,1,,,,,,,,,,,,,0,29,29,47,1,,,,,,,,,,,,,,,,,,,,,,,,,,,,
,,,,,V1_001,22,female,2024-04-29_09h06.08.686,jersey_experiment_5_v1,2023.2.2,Win32,85.47008547,,,,,,,,,,,,,,,,661.0564,662.8558,662.8558,663.1605,return,0.081,,82.16145833,,,,,,FBP-OG-17.png,0.43,1.2,34,1,,,,,,,,,,,,,0,30,30,33,1,,,,,,,,,,,,,,,,,,,,,,,,,,,,
,,,,,V1_001,22,female,2024-04-29_09h06.08.686,jersey_experiment_5_v1,2023.2.2,Win32,85.47008547,,,,,,,,,,,,,,,,663.1607,664.9522,664.9522,665.503,return,0.0941,,99.609375,,,,,,FBP-RB-71.png,0.45,1.2,50,1,,,,,,,,,,,,,0,31,31,49,1,,,,,,,,,,,,,,,,,,,,,,,,,,,,
,,,,,V1_001,22,female,2024-04-29_09h06.08.686,jersey_experiment_5_v1,2023.2.2,Win32,85.47008547,,,,,,,,,,,,,,,,665.5032,666.7994,666.7994,668.4523,return,0.4739,,23.828125,,,,,,FBP-PT-91.png,0.37,1.2,12,0.5,,,,,,,,,,,,,0,32,32,11,1,,,,,,,,,,,,,,,,,,,,,,,,,,,,
,,,,,V1_001,22,female,2024-04-29_09h06.08.686,jersey_experiment_5_v1,2023.2.2,Win32,85.47008547,,,,,,,,,,,,,,,,668.4526,670.2545,670.2545,671.0759,return,0.098,,74.34895833,,,,,,FBP-YG-19.png,0.43,1.2,29,1,,,,,,,,,,,,,0,33,33,28,1,,,,,,,,,,,,,,,,,,,,,,,,,,,,
,,,,,V1_001,22,female,2024-04-29_09h06.08.686,jersey_experiment_5_v1,2023.2.2,Win32,85.47008547,,,,,,,,,,,,,,,,671.0762,672.8718,672.8719,673.4877,return,0.031,,20.18229167,,,,,,FBP-YG-19.png,0.35,1.2,26,1,,,,,,,,,,,,,0,34,34,25,1,,,,,,,,,,,,,,,,,,,,,,,,,,,,
,,,,,V1_001,22,female,2024-04-29_09h06.08.686,jersey_experiment_5_v1,2023.2.2,Win32,85.47008547,,,,,,,,,,,,,,,,673.4879,675.2915,675.2915,675.6919,return,0.0352,,20.18229167,,,,,,FBP-RB-91.png,0.37,1.2,57,1,,,,,,,,,,,,,0,35,35,56,1,,,,,,,,,,,,,,,,,,,,,,,,,,,,
,,,,,V1_001,22,female,2024-04-29_09h06.08.686,jersey_experiment_5_v1,2023.2.2,Win32,85.47008547,,,,,,,,,,,,,,,,675.692,677.4906,677.4906,678.3703,return,0.0287,,25,,,,,,FBP-YG-18.png,0.37,1.2,22,1,,,,,,,,,,,,,0,36,36,21,1,,,,,,,,,,,,,,,,,,,,,,,,,,,,
,,,,,V1_001,22,female,2024-04-29_09h06.08.686,jersey_experiment_5_v1,2023.2.2,Win32,85.47008547,,,,,,,,,,,,,,,,678.3705,679.6647,679.6647,680.692,return,0.0469,,67.70833333,,,,,,FBP-PT-71.png,0.4,1.2,3,0.5,,,,,,,,,,,,,0,37,37,2,1,,,,,,,,,,,,,,,,,,,,,,,,,,,,
,,,,,V1_001,22,female,2024-04-29_09h06.08.686,jersey_experiment_5_v1,2023.2.2,Win32,85.47008547,,,,,,,,,,,,,,,,680.6921,682.4883,682.4883,683.3471,return,0.1224,,49.21875,,,,,,FBP-YG-19.png,0.37,1.2,27,1,,,,,,,,,,,,,0,38,38,26,1,,,,,,,,,,,,,,,,,,,,,,,,,,,,
,,,,,V1_001,22,female,2024-04-29_09h06.08.686,jersey_experiment_5_v1,2023.2.2,Win32,85.47008547,,,,,,,,,,,,,,,,683.3472,685.1418,685.1419,685.8676,return,0.0694,,24.73958333,,,,,,FBP-RB-71.png,0.35,1.2,46,1,,,,,,,,,,,,,0,39,39,45,1,,,,,,,,,,,,,,,,,,,,,,,,,,,,
,,,,,V1_001,22,female,2024-04-29_09h06.08.686,jersey_experiment_5_v1,2023.2.2,Win32,85.47008547,,,,,,,,,,,,,,,,685.8678,687.6698,687.6698,688.4059,return,0.1647,,99.47916667,,,,,,FBP-OG-19.png,0.45,1.2,45,1,,,,,,,,,,,,,0,40,40,44,1,,,,,,,,,,,,,,,,,,,,,,,,,,,,
,,,,,V1_001,22,female,2024-04-29_09h06.08.686,jersey_experiment_5_v1,2023.2.2,Win32,85.47008547,,,,,,,,,,,,,,,,688.4062,690.1982,690.1983,691.4691,return,0.1767,,99.47916667,,,,,,FBP-RB-71.png,0.43,1.2,49,1,,,,,,,,,,,,,0,41,41,48,1,,,,,,,,,,,,,,,,,,,,,,,,,,,,
,,,,,V1_001,22,female,2024-04-29_09h06.08.686,jersey_experiment_5_v1,2023.2.2,Win32,85.47008547,,,,,,,,,,,,,,,,691.4693,693.2716,693.2716,695.0117,return,0.0841,,74.47916667,,,,,,FBP-RB-81.png,0.37,1.2,52,1,,,,,,,,,,,,,0,42,42,51,1,,,,,,,,,,,,,,,,,,,,,,,,,,,,
,,,,,V1_001,22,female,2024-04-29_09h06.08.686,jersey_experiment_5_v1,2023.2.2,Win32,85.47008547,,,,,,,,,,,,,,,,695.0118,696.8064,696.8064,697.3122,return,0.1564,,74.47916667,,,,,,FBP-OG-17.png,0.4,1.2,33,1,,,,,,,,,,,,,0,43,43,32,1,,,,,,,,,,,,,,,,,,,,,,,,,,,,
,,,,,V1_001,22,female,2024-04-29_09h06.08.686,jersey_experiment_5_v1,2023.2.2,Win32,85.47008547,,,,,,,,,,,,,,,,697.3125,698.61,698.61,699.775,return,0.1415,,25.52083333,,,,,,FBP-PT-71.png,0.35,1.2,1,0.5,,,,,,,,,,,,,0,44,44,0,1,,,,,,,,,,,,,,,,,,,,,,,,,,,,
,,,,,V1_001,22,female,2024-04-29_09h06.08.686,jersey_experiment_5_v1,2023.2.2,Win32,85.47008547,,,,,,,,,,,,,,,,699.7751,701.0697,701.0697,702.1948,return,0.1711,,74.47916667,,,,,,FBP-PT-91.png,0.43,1.2,14,0.5,,,,,,,,,,,,,0,45,45,13,1,,,,,,,,,,,,,,,,,,,,,,,,,,,,
,,,,,V1_001,22,female,2024-04-29_09h06.08.686,jersey_experiment_5_v1,2023.2.2,Win32,85.47008547,,,,,,,,,,,,,,,,702.1951,703.4927,703.4927,704.336,return,0.137,,74.86979167,,,,,,FBP-PT-71.png,0.43,1.2,4,0.5,,,,,,,,,,,,,0,46,46,3,1,,,,,,,,,,,,,,,,,,,,,,,,,,,,
,,,,,V1_001,22,female,2024-04-29_09h06.08.686,jersey_experiment_5_v1,2023.2.2,Win32,85.47008547,,,,,,,,,,,,,,,,704.3362,706.1284,706.1284,707.8462,return,0.1653,,99.86979167,,,,,,FBP-YG-19.png,0.45,1.2,30,1,,,,,,,,,,,,,0,47,47,29,1,,,,,,,,,,,,,,,,,,,,,,,,,,,,
,,,,,V1_001,22,female,2024-04-29_09h06.08.686,jersey_experiment_5_v1,2023.2.2,Win32,85.47008547,,,,,,,,,,,,,,,,707.8464,709.6467,709.6467,710.8068,return,0.1088,,24.609375,,,,,,FBP-OG-17.png,0.37,1.2,32,1,,,,,,,,,,,,,0,48,48,31,1,,,,,,,,,,,,,,,,,,,,,,,,,,,,
,,,,,V1_001,22,female,2024-04-29_09h06.08.686,jersey_experiment_5_v1,2023.2.2,Win32,85.47008547,,,,,,,,,,,,,,,,710.807,712.599,712.599,713.1975,return,0.212,,24.609375,,,,,,FBP-RB-91.png,0.35,1.2,56,1,,,,,,,,,,,,,0,49,49,55,1,,,,,,,,,,,,,,,,,,,,,,,,,,,,
,,,,,V1_001,22,female,2024-04-29_09h06.08.686,jersey_experiment_5_v1,2023.2.2,Win32,85.47008547,,,,,,,,,,,,,,,,713.1977,714.4893,714.4893,715.8775,return,0.2015,,99.73958333,,,,,,FBP-PT-81.png,0.43,1.2,9,0.5,,,,,,,,,,,,,0,50,50,8,1,,,,,,,,,,,,,,,,,,,,,,,,,,,,
,,,,,V1_001,22,female,2024-04-29_09h06.08.686,jersey_experiment_5_v1,2023.2.2,Win32,85.47008547,,,,,,,,,,,,,,,,715.8776,717.6815,717.6815,725.9276,return,0.0927,,49.609375,,,,,,FBP-OG-19.png,0.37,1.2,42,1,,,,,,,,,,,,,0,51,51,41,1,,,,,,,,,,,,,,,,,,,,,,,,,,,,
,,,,,V1_001,22,female,2024-04-29_09h06.08.686,jersey_experiment_5_v1,2023.2.2,Win32,85.47008547,,,,,,,,,,,,,,,,725.9278,727.7251,727.7252,728.6076,return,0.1954,,75,,,,,,FBP-OG-18.png,0.43,1.2,39,1,,,,,,,,,,,,,0,52,52,38,1,,,,,,,,,,,,,,,,,,,,,,,,,,,,
,,,,,V1_001,22,female,2024-04-29_09h06.08.686,jersey_experiment_5_v1,2023.2.2,Win32,85.47008547,,,,,,,,,,,,,,,,728.6078,729.9016,729.9016,730.8117,return,0.296,,81.25,,,,,,FBP-PT-91.png,0.45,1.2,15,0.5,,,,,,,,,,,,,0,53,53,14,1,,,,,,,,,,,,,,,,,,,,,,,,,,,,
,,,,,V1_001,22,female,2024-04-29_09h06.08.686,jersey_experiment_5_v1,2023.2.2,Win32,85.47008547,,,,,,,,,,,,,,,,730.8118,732.1136,732.1136,732.9489,return,0.063,,36.84895833,,,,,,FBP-PT-81.png,0.35,1.2,6,0.5,,,,,,,,,,,,,0,54,54,5,1,,,,,,,,,,,,,,,,,,,,,,,,,,,,
,,,,,V1_001,22,female,2024-04-29_09h06.08.686,jersey_experiment_5_v1,2023.2.2,Win32,85.47008547,,,,,,,,,,,,,,,,732.9491,734.7489,734.7489,736.0692,return,0.2457,,24.609375,,,,,,FBP-RB-81.png,0.35,1.2,51,1,,,,,,,,,,,,,0,55,55,50,1,,,,,,,,,,,,,,,,,,,,,,,,,,,,
,,,,,V1_001,22,female,2024-04-29_09h06.08.686,jersey_experiment_5_v1,2023.2.2,Win32,85.47008547,,,,,,,,,,,,,,,,736.0694,737.3608,737.3608,738.4454,return,0.0925,,57.68229167,,,,,,FBP-PT-91.png,0.4,1.2,13,0.5,,,,,,,,,,,,,0,56,56,12,1,,,,,,,,,,,,,,,,,,,,,,,,,,,,
,,,,,V1_001,22,female,2024-04-29_09h06.08.686,jersey_experiment_5_v1,2023.2.2,Win32,85.47008547,,,,,,,,,,,,,,,,738.4456,740.2432,740.2433,741.0828,return,0.0592,,65.10416667,,,,,,FBP-YG-18.png,0.4,1.2,23,1,,,,,,,,,,,,,0,57,57,22,1,,,,,,,,,,,,,,,,,,,,,,,,,,,,
,,,,,V1_001,22,female,2024-04-29_09h06.08.686,jersey_experiment_5_v1,2023.2.2,Win32,85.47008547,,,,,,,,,,,,,,,,741.0829,742.8832,742.8832,744.3635,return,0.1749,,99.08854167,,,,,,FBP-RB-91.png,0.45,1.2,60,1,,,,,,,,,,,,,0,58,58,59,1,,,,,,,,,,,,,,,,,,,,,,,,,,,,
,,,,,V1_001,22,female,2024-04-29_09h06.08.686,jersey_experiment_5_v1,2023.2.2,Win32,85.47008547,,,,,,,,,,,,,,,,744.3636,745.6553,745.6553,747.4118,return,0.235,,66.015625,,,,,,FBP-PT-81.png,0.4,1.2,8,0.5,,,,,,,,,,,,,0,59,59,7,1,,,,,,,,,,,,,,,,,,,,,,,,,,,,
,,,,,V1_001,22,female,2024-04-29_09h06.08.686,jersey_experiment_5_v1,2023.2.2,Win32,85.47008547,,,,,,,,,,,,,,,,747.4132,748.7182,748.7182,750.0004,return,0.0942,,62.76041667,,,,,,FBP-PT-18.png,0.35,1.2,6,0.5,,,,,,,,,,,,,,,,,,0,0,0,5,1,,,,,,,,,,,,,,,,,,,,,,,
,,,,,V1_001,22,female,2024-04-29_09h06.08.686,jersey_experiment_5_v1,2023.2.2,Win32,85.47008547,,,,,,,,,,,,,,,,750.0006,751.7966,751.7966,752.2732,return,0.1062,,62.76041667,,,,,,FBP-OG-91.png,0.37,1.2,42,1,,,,,,,,,,,,,,,,,,0,1,1,41,1,,,,,,,,,,,,,,,,,,,,,,,
,,,,,V1_001,22,female,2024-04-29_09h06.08.686,jersey_experiment_5_v1,2023.2.2,Win32,85.47008547,,,,,,,,,,,,,,,,752.2733,753.5755,753.5755,754.6439,return,0.0271,,87.63020833,,,,,,FBP-PT-19.png,0.45,1.2,15,0.5,,,,,,,,,,,,,,,,,,0,2,2,14,1,,,,,,,,,,,,,,,,,,,,,,,
,,,,,V1_001,22,female,2024-04-29_09h06.08.686,jersey_experiment_5_v1,2023.2.2,Win32,85.47008547,,,,,,,,,,,,,,,,754.6441,756.4467,756.4467,758.5969,return,0.6025,,57.55208333,,,,,,FBP-YG-81.png,0.37,1.2,22,1,,,,,,,,,,,,,,,,,,0,3,3,21,1,,,,,,,,,,,,,,,,,,,,,,,
,,,,,V1_001,22,female,2024-04-29_09h06.08.686,jersey_experiment_5_v1,2023.2.2,Win32,85.47008547,,,,,,,,,,,,,,,,758.5971,760.3997,760.3997,761.1201,return,0.4032,,57.29166667,,,,,,FBP-RB-17.png,0.37,1.2,47,1,,,,,,,,,,,,,,,,,,0,4,4,46,1,,,,,,,,,,,,,,,,,,,,,,,
,,,,,V1_001,22,female,2024-04-29_09h06.08.686,jersey_experiment_5_v1,2023.2.2,Win32,85.47008547,,,,,,,,,,,,,,,,761.1202,762.9148,762.9148,764.6558,return,0.2311,,87.23958333,,,,,,FBP-OG-81.png,0.45,1.2,40,1,,,,,,,,,,,,,,,,,,0,5,5,39,1,,,,,,,,,,,,,,,,,,,,,,,
,,,,,V1_001,22,female,2024-04-29_09h06.08.686,jersey_experiment_5_v1,2023.2.2,Win32,85.47008547,,,,,,,,,,,,,,,,764.656,766.4493,766.4494,768.2266,return,0.0473,,99.47916667,,,,,,FBP-RB-18.png,0.45,1.2,55,1,,,,,,,,,,,,,,,,,,0,6,6,54,1,,,,,,,,,,,,,,,,,,,,,,,
,,,,,V1_001,22,female,2024-04-29_09h06.08.686,jersey_experiment_5_v1,2023.2.2,Win32,85.47008547,,,,,,,,,,,,,,,,768.2269,770.0246,770.0246,771.2604,return,0.824,,93.88020833,,,,,,FBP-YG-71.png,0.43,1.2,19,1,,,,,,,,,,,,,,,,,,0,7,7,18,1,,,,,,,,,,,,,,,,,,,,,,,
,,,,,V1_001,22,female,2024-04-29_09h06.08.686,jersey_experiment_5_v1,2023.2.2,Win32,85.47008547,,,,,,,,,,,,,,,,771.2606,773.0563,773.0563,775.2329,return,0.467,,43.88020833,,,,,,FBP-RB-18.png,0.35,1.2,51,1,,,,,,,,,,,,,,,,,,0,8,8,50,1,,,,,,,,,,,,,,,,,,,,,,,
,,,,,V1_001,22,female,2024-04-29_09h06.08.686,jersey_experiment_5_v1,2023.2.2,Win32,85.47008547,,,,,,,,,,,,,,,,775.2331,777.0249,777.0249,778.0371,return,0.261,,61.06770833,,,,,,FBP-YG-71.png,0.37,1.2,17,1,,,,,,,,,,,,,,,,,,0,9,9,16,1,,,,,,,,,,,,,,,,,,,,,,,
,,,,,V1_001,22,female,2024-04-29_09h06.08.686,jersey_experiment_5_v1,2023.2.2,Win32,85.47008547,,,,,,,,,,,,,,,,778.0372,779.8375,779.8376,780.9421,return,0.3859,,74.08854167,,,,,,FBP-OG-71.png,0.4,1.2,33,1,,,,,,,,,,,,,,,,,,0,10,10,32,1,,,,,,,,,,,,,,,,,,,,,,,
,,,,,V1_001,22,female,2024-04-29_09h06.08.686,jersey_experiment_5_v1,2023.2.2,Win32,85.47008547,,,,,,,,,,,,,,,,780.9423,782.2487,782.2487,784.496,return,1.3432,,74.47916667,,,,,,FBP-PT-18.png,0.4,1.2,8,0.5,,,,,,,,,,,,,,,,,,0,11,11,7,1,,,,,,,,,,,,,,,,,,,,,,,
,,,,,V1_001,22,female,2024-04-29_09h06.08.686,jersey_experiment_5_v1,2023.2.2,Win32,85.47008547,,,,,,,,,,,,,,,,784.4961,785.7883,785.7883,787.1317,return,0.6475,,89.32291667,,,,,,FBP-PT-17.png,0.45,1.2,5,0.5,,,,,,,,,,,,,,,,,,0,12,12,4,1,,,,,,,,,,,,,,,,,,,,,,,
,,,,,V1_001,22,female,2024-04-29_09h06.08.686,jersey_experiment_5_v1,2023.2.2,Win32,85.47008547,,,,,,,,,,,,,,,,787.1318,788.9312,788.9312,790.0255,return,0.1882,,89.32291667,,,,,,FBP-RB-18.png,0.4,1.2,53,1,,,,,,,,,,,,,,,,,,0,13,13,52,1,,,,,,,,,,,,,,,,,,,,,,,
,,,,,V1_001,22,female,2024-04-29_09h06.08.686,jersey_experiment_5_v1,2023.2.2,Win32,85.47008547,,,,,,,,,,,,,,,,790.0256,791.8216,791.8216,792.695,return,0.1621,,99.609375,,,,,,FBP-RB-17.png,0.45,1.2,50,1,,,,,,,,,,,,,,,,,,0,14,14,49,1,,,,,,,,,,,,,,,,,,,,,,,
,,,,,V1_001,22,female,2024-04-29_09h06.08.686,jersey_experiment_5_v1,2023.2.2,Win32,85.47008547,,,,,,,,,,,,,,,,792.6951,793.9866,793.9866,795.9904,return,0.3191,,89.97395833,,,,,,FBP-PT-17.png,0.4,1.2,3,0.5,,,,,,,,,,,,,,,,,,0,15,15,2,1,,,,,,,,,,,,,,,,,,,,,,,
,,,,,V1_001,22,female,2024-04-29_09h06.08.686,jersey_experiment_5_v1,2023.2.2,Win32,85.47008547,,,,,,,,,,,,,,,,795.9906,797.2945,797.2945,798.3561,return,0.2125,,99.47916667,,,,,,FBP-PT-18.png,0.45,1.2,10,0.5,,,,,,,,,,,,,,,,,,0,16,16,9,1,,,,,,,,,,,,,,,,,,,,,,,
,,,,,V1_001,22,female,2024-04-29_09h06.08.686,jersey_experiment_5_v1,2023.2.2,Win32,85.47008547,,,,,,,,,,,,,,,,798.3562,800.1512,800.1512,801.848,return,0.2105,,25.91145833,,,,,,FBP-YG-71.png,0.35,1.2,16,1,,,,,,,,,,,,,,,,,,0,17,17,15,1,,,,,,,,,,,,,,,,,,,,,,,
,,,,,V1_001,22,female,2024-04-29_09h06.08.686,jersey_experiment_5_v1,2023.2.2,Win32,85.47008547,,,,,,,,,,,,,,,,801.8482,803.648,803.648,805.1204,return,0.8946,,25.390625,,,,,,FBP-YG-91.png,0.37,1.2,27,1,,,,,,,,,,,,,,,,,,0,18,18,26,1,,,,,,,,,,,,,,,,,,,,,,,
,,,,,V1_001,22,female,2024-04-29_09h06.08.686,jersey_experiment_5_v1,2023.2.2,Win32,85.47008547,,,,,,,,,,,,,,,,805.1206,806.9165,806.9166,807.7634,return,0.0865,,88.28125,,,,,,FBP-OG-91.png,0.45,1.2,45,1,,,,,,,,,,,,,,,,,,0,19,19,44,1,,,,,,,,,,,,,,,,,,,,,,,
,,,,,V1_001,22,female,2024-04-29_09h06.08.686,jersey_experiment_5_v1,2023.2.2,Win32,85.47008547,,,,,,,,,,,,,,,,807.7635,809.5662,809.5662,810.3913,return,0.083,,54.81770833,,,,,,FBP-RB-18.png,0.37,1.2,52,1,,,,,,,,,,,,,,,,,,0,20,20,51,1,,,,,,,,,,,,,,,,,,,,,,,
,,,,,V1_001,22,female,2024-04-29_09h06.08.686,jersey_experiment_5_v1,2023.2.2,Win32,85.47008547,,,,,,,,,,,,,,,,810.3914,812.1923,812.1924,813.3323,return,0.1058,,80.078125,,,,,,FBP-RB-18.png,0.43,1.2,54,1,,,,,,,,,,,,,,,,,,0,21,21,53,1,,,,,,,,,,,,,,,,,,,,,,,
,,,,,V1_001,22,female,2024-04-29_09h06.08.686,jersey_experiment_5_v1,2023.2.2,Win32,85.47008547,,,,,,,,,,,,,,,,813.3324,814.626,814.626,815.7285,return,0.0444,,42.96875,,,,,,FBP-PT-19.png,0.35,1.2,11,0.5,,,,,,,,,,,,,,,,,,0,22,22,10,1,,,,,,,,,,,,,,,,,,,,,,,
,,,,,V1_001,22,female,2024-04-29_09h06.08.686,jersey_experiment_5_v1,2023.2.2,Win32,85.47008547,,,,,,,,,,,,,,,,815.7287,817.5207,817.5207,820.003,return,0.0234,,50.26041667,,,,,,FBP-RB-19.png,0.4,1.2,58,1,,,,,,,,,,,,,,,,,,0,23,23,57,1,,,,,,,,,,,,,,,,,,,,,,,
,,,,,V1_001,22,female,2024-04-29_09h06.08.686,jersey_experiment_5_v1,2023.2.2,Win32,85.47008547,,,,,,,,,,,,,,,,820.0031,821.3052,821.3052,823.5522,return,1.2548,,67.44791667,,,,,,FBP-PT-19.png,0.4,1.2,13,0.5,,,,,,,,,,,,,,,,,,0,24,24,12,1,,,,,,,,,,,,,,,,,,,,,,,
,,,,,V1_001,22,female,2024-04-29_09h06.08.686,jersey_experiment_5_v1,2023.2.2,Win32,85.47008547,,,,,,,,,,,,,,,,823.5524,825.3524,825.3524,825.7444,return,0.0473,,67.44791667,,,,,,FBP-YG-91.png,0.4,1.2,28,1,,,,,,,,,,,,,,,,,,0,25,25,27,1,,,,,,,,,,,,,,,,,,,,,,,
,,,,,V1_001,22,female,2024-04-29_09h06.08.686,jersey_experiment_5_v1,2023.2.2,Win32,85.47008547,,,,,,,,,,,,,,,,825.7446,827.5408,827.5408,828.2151,return,0.0823,,40.234375,,,,,,FBP-YG-91.png,0.35,1.2,26,1,,,,,,,,,,,,,,,,,,0,26,26,25,1,,,,,,,,,,,,,,,,,,,,,,,
,,,,,V1_001,22,female,2024-04-29_09h06.08.686,jersey_experiment_5_v1,2023.2.2,Win32,85.47008547,,,,,,,,,,,,,,,,828.2153,830.0147,830.0147,830.9927,return,0.4008,,74.73958333,,,,,,FBP-OG-71.png,0.43,1.2,34,1,,,,,,,,,,,,,,,,,,0,27,27,33,1,,,,,,,,,,,,,,,,,,,,,,,
,,,,,V1_001,22,female,2024-04-29_09h06.08.686,jersey_experiment_5_v1,2023.2.2,Win32,85.47008547,,,,,,,,,,,,,,,,830.9928,832.7904,832.7905,833.1794,return,0.0565,,70.83333333,,,,,,FBP-OG-81.png,0.4,1.2,38,1,,,,,,,,,,,,,,,,,,0,28,28,37,1,,,,,,,,,,,,,,,,,,,,,,,
,,,,,V1_001,22,female,2024-04-29_09h06.08.686,jersey_experiment_5_v1,2023.2.2,Win32,85.47008547,,,,,,,,,,,,,,,,833.1797,834.9803,834.9803,835.3197,return,0.0196,,87.5,,,,,,FBP-YG-71.png,0.45,1.2,20,1,,,,,,,,,,,,,,,,,,0,29,29,19,1,,,,,,,,,,,,,,,,,,,,,,,
,,,,,V1_001,22,female,2024-04-29_09h06.08.686,jersey_experiment_5_v1,2023.2.2,Win32,85.47008547,,,,,,,,,,,,,,,,835.3199,837.1231,837.1231,837.6977,return,0.0369,,70.57291667,,,,,,FBP-OG-81.png,0.37,1.2,37,1,,,,,,,,,,,,,,,,,,0,30,30,36,1,,,,,,,,,,,,,,,,,,,,,,,
,,,,,V1_001,22,female,2024-04-29_09h06.08.686,jersey_experiment_5_v1,2023.2.2,Win32,85.47008547,,,,,,,,,,,,,,,,837.6979,839.4965,839.4965,840.051,return,0.0592,,44.01041667,,,,,,FBP-OG-81.png,0.35,1.2,36,1,,,,,,,,,,,,,,,,,,0,31,31,35,1,,,,,,,,,,,,,,,,,,,,,,,
,,,,,V1_001,22,female,2024-04-29_09h06.08.686,jersey_experiment_5_v1,2023.2.2,Win32,85.47008547,,,,,,,,,,,,,,,,840.0512,841.3412,841.3412,842.5294,return,0.0784,,74.73958333,,,,,,FBP-PT-17.png,0.43,1.2,4,0.5,,,,,,,,,,,,,,,,,,0,32,32,3,1,,,,,,,,,,,,,,,,,,,,,,,
,,,,,V1_001,22,female,2024-04-29_09h06.08.686,jersey_experiment_5_v1,2023.2.2,Win32,85.47008547,,,,,,,,,,,,,,,,842.5296,844.3332,844.3332,844.6277,return,0.0706,,74.73958333,,,,,,FBP-RB-19.png,0.45,1.2,60,1,,,,,,,,,,,,,,,,,,0,33,33,59,1,,,,,,,,,,,,,,,,,,,,,,,
,,,,,V1_001,22,female,2024-04-29_09h06.08.686,jersey_experiment_5_v1,2023.2.2,Win32,85.47008547,,,,,,,,,,,,,,,,844.6278,846.4277,846.4277,847.7804,return,0.0604,,66.53645833,,,,,,FBP-RB-19.png,0.37,1.2,57,1,,,,,,,,,,,,,,,,,,0,34,34,56,1,,,,,,,,,,,,,,,,,,,,,,,
,,,,,V1_001,22,female,2024-04-29_09h06.08.686,jersey_experiment_5_v1,2023.2.2,Win32,85.47008547,,,,,,,,,,,,,,,,847.7805,849.5804,849.5804,850.0855,return,0.0693,,93.09895833,,,,,,FBP-YG-81.png,0.45,1.2,25,1,,,,,,,,,,,,,,,,,,0,35,35,24,1,,,,,,,,,,,,,,,,,,,,,,,
,,,,,V1_001,22,female,2024-04-29_09h06.08.686,jersey_experiment_5_v1,2023.2.2,Win32,85.47008547,,,,,,,,,,,,,,,,850.0857,851.3791,851.3791,852.5652,return,0.1674,,27.34375,,,,,,FBP-PT-17.png,0.35,1.2,1,0.5,,,,,,,,,,,,,,,,,,0,36,36,0,1,,,,,,,,,,,,,,,,,,,,,,,
,,,,,V1_001,22,female,2024-04-29_09h06.08.686,jersey_experiment_5_v1,2023.2.2,Win32,85.47008547,,,,,,,,,,,,,,,,852.5654,854.3581,854.3581,854.9299,return,0.2041,,83.72395833,,,,,,FBP-RB-19.png,0.43,1.2,59,1,,,,,,,,,,,,,,,,,,0,37,37,58,1,,,,,,,,,,,,,,,,,,,,,,,
,,,,,V1_001,22,female,2024-04-29_09h06.08.686,jersey_experiment_5_v1,2023.2.2,Win32,85.47008547,,,,,,,,,,,,,,,,854.9301,856.7238,856.7238,857.7224,return,0.6001,,89.84375,,,,,,FBP-YG-91.png,0.43,1.2,29,1,,,,,,,,,,,,,,,,,,0,38,38,28,1,,,,,,,,,,,,,,,,,,,,,,,
,,,,,V1_001,22,female,2024-04-29_09h06.08.686,jersey_experiment_5_v1,2023.2.2,Win32,85.47008547,,,,,,,,,,,,,,,,857.7225,859.5183,859.5183,860.0755,return,0.1901,,90.625,,,,,,FBP-OG-91.png,0.43,1.2,44,1,,,,,,,,,,,,,,,,,,0,39,39,43,1,,,,,,,,,,,,,,,,,,,,,,,
,,,,,V1_001,22,female,2024-04-29_09h06.08.686,jersey_experiment_5_v1,2023.2.2,Win32,85.47008547,,,,,,,,,,,,,,,,860.0757,861.3813,861.3813,861.8992,return,0.1182,,90.625,,,,,,FBP-PT-19.png,0.43,1.2,14,0.5,,,,,,,,,,,,,,,,,,0,40,40,13,1,,,,,,,,,,,,,,,,,,,,,,,
,,,,,V1_001,22,female,2024-04-29_09h06.08.686,jersey_experiment_5_v1,2023.2.2,Win32,85.47008547,,,,,,,,,,,,,,,,861.8995,863.2045,863.2045,863.6854,return,0.0584,,90.625,,,,,,FBP-PT-18.png,0.43,1.2,9,0.5,,,,,,,,,,,,,,,,,,0,41,41,8,1,,,,,,,,,,,,,,,,,,,,,,,
,,,,,V1_001,22,female,2024-04-29_09h06.08.686,jersey_experiment_5_v1,2023.2.2,Win32,85.47008547,,,,,,,,,,,,,,,,863.6855,865.4832,865.4832,866.6169,return,0.059,,90.625,,,,,,FBP-YG-91.png,0.45,1.2,30,1,,,,,,,,,,,,,,,,,,0,42,42,29,1,,,,,,,,,,,,,,,,,,,,,,,
,,,,,V1_001,22,female,2024-04-29_09h06.08.686,jersey_experiment_5_v1,2023.2.2,Win32,85.47008547,,,,,,,,,,,,,,,,866.617,868.4167,868.4167,869.5475,return,0.0603,,81.77083333,,,,,,FBP-OG-81.png,0.43,1.2,39,1,,,,,,,,,,,,,,,,,,0,43,43,38,1,,,,,,,,,,,,,,,,,,,,,,,
,,,,,V1_001,22,female,2024-04-29_09h06.08.686,jersey_experiment_5_v1,2023.2.2,Win32,85.47008547,,,,,,,,,,,,,,,,869.5477,871.3423,871.3424,871.9424,return,0.0951,,73.95833333,,,,,,FBP-RB-17.png,0.4,1.2,48,1,,,,,,,,,,,,,,,,,,0,44,44,47,1,,,,,,,,,,,,,,,,,,,,,,,
,,,,,V1_001,22,female,2024-04-29_09h06.08.686,jersey_experiment_5_v1,2023.2.2,Win32,85.47008547,,,,,,,,,,,,,,,,871.9425,873.7465,873.7465,874.3583,return,0.1296,,73.95833333,,,,,,FBP-OG-91.png,0.4,1.2,43,1,,,,,,,,,,,,,,,,,,0,45,45,42,1,,,,,,,,,,,,,,,,,,,,,,,
,,,,,V1_001,22,female,2024-04-29_09h06.08.686,jersey_experiment_5_v1,2023.2.2,Win32,85.47008547,,,,,,,,,,,,,,,,874.3585,876.1595,876.1595,876.7896,return,0.2506,,73.95833333,,,,,,FBP-YG-81.png,0.43,1.2,24,1,,,,,,,,,,,,,,,,,,0,46,46,23,1,,,,,,,,,,,,,,,,,,,,,,,
,,,,,V1_001,22,female,2024-04-29_09h06.08.686,jersey_experiment_5_v1,2023.2.2,Win32,85.47008547,,,,,,,,,,,,,,,,876.7897,878.5836,878.5836,879.1936,return,0.1529,,69.921875,,,,,,FBP-YG-81.png,0.4,1.2,23,1,,,,,,,,,,,,,,,,,,0,47,47,22,1,,,,,,,,,,,,,,,,,,,,,,,
,,,,,V1_001,22,female,2024-04-29_09h06.08.686,jersey_experiment_5_v1,2023.2.2,Win32,85.47008547,,,,,,,,,,,,,,,,879.1938,880.9925,880.9925,882.8251,return,1.258,,25.26041667,,,,,,FBP-OG-71.png,0.35,1.2,31,1,,,,,,,,,,,,,,,,,,0,48,48,30,1,,,,,,,,,,,,,,,,,,,,,,,
,,,,,V1_001,22,female,2024-04-29_09h06.08.686,jersey_experiment_5_v1,2023.2.2,Win32,85.47008547,,,,,,,,,,,,,,,,882.8253,884.6172,884.6173,886.2412,return,0.6124,,94.66145833,,,,,,FBP-OG-71.png,0.45,1.2,35,1,,,,,,,,,,,,,,,,,,0,49,49,34,1,,,,,,,,,,,,,,,,,,,,,,,
,,,,,V1_001,22,female,2024-04-29_09h06.08.686,jersey_experiment_5_v1,2023.2.2,Win32,85.47008547,,,,,,,,,,,,,,,,886.2413,888.041,888.041,890.0489,return,0.6051,,25.91145833,,,,,,FBP-RB-19.png,0.35,1.2,56,1,,,,,,,,,,,,,,,,,,0,50,50,55,1,,,,,,,,,,,,,,,,,,,,,,,
,,,,,V1_001,22,female,2024-04-29_09h06.08.686,jersey_experiment_5_v1,2023.2.2,Win32,85.47008547,,,,,,,,,,,,,,,,890.0491,891.343,891.3431,893.24,return,1.2696,,49.73958333,,,,,,FBP-PT-17.png,0.37,1.2,2,0.5,,,,,,,,,,,,,,,,,,0,51,51,1,1,,,,,,,,,,,,,,,,,,,,,,,
,,,,,V1_001,22,female,2024-04-29_09h06.08.686,jersey_experiment_5_v1,2023.2.2,Win32,85.47008547,,,,,,,,,,,,,,,,893.2402,895.0412,895.0412,896.708,return,0.4523,,95.57291667,,,,,,FBP-RB-17.png,0.43,1.2,49,1,,,,,,,,,,,,,,,,,,0,52,52,48,1,,,,,,,,,,,,,,,,,,,,,,,
,,,,,V1_001,22,female,2024-04-29_09h06.08.686,jersey_experiment_5_v1,2023.2.2,Win32,85.47008547,,,,,,,,,,,,,,,,896.7082,898.51,898.51,899.4062,return,0.2107,,59.24479167,,,,,,FBP-OG-71.png,0.37,1.2,32,1,,,,,,,,,,,,,,,,,,0,53,53,31,1,,,,,,,,,,,,,,,,,,,,,,,
,,,,,V1_001,22,female,2024-04-29_09h06.08.686,jersey_experiment_5_v1,2023.2.2,Win32,85.47008547,,,,,,,,,,,,,,,,899.4064,901.2049,901.2049,902.2047,return,0.3634,,25.78125,,,,,,FBP-YG-81.png,0.35,1.2,21,1,,,,,,,,,,,,,,,,,,0,54,54,20,1,,,,,,,,,,,,,,,,,,,,,,,
,,,,,V1_001,22,female,2024-04-29_09h06.08.686,jersey_experiment_5_v1,2023.2.2,Win32,85.47008547,,,,,,,,,,,,,,,,902.2049,904.0088,904.0088,904.9949,return,0.1183,,73.4375,,,,,,FBP-YG-71.png,0.4,1.2,18,1,,,,,,,,,,,,,,,,,,0,55,55,17,1,,,,,,,,,,,,,,,,,,,,,,,
,,,,,V1_001,22,female,2024-04-29_09h06.08.686,jersey_experiment_5_v1,2023.2.2,Win32,85.47008547,,,,,,,,,,,,,,,,904.995,906.2884,906.2884,906.9228,return,0.1181,,64.453125,,,,,,FBP-PT-19.png,0.37,1.2,12,0.5,,,,,,,,,,,,,,,,,,0,56,56,11,1,,,,,,,,,,,,,,,,,,,,,,,
,,,,,V1_001,22,female,2024-04-29_09h06.08.686,jersey_experiment_5_v1,2023.2.2,Win32,85.47008547,,,,,,,,,,,,,,,,906.9229,908.7148,908.7148,909.6422,return,0.1196,,50.65104167,,,,,,FBP-OG-91.png,0.35,1.2,41,1,,,,,,,,,,,,,,,,,,0,57,57,40,1,,,,,,,,,,,,,,,,,,,,,,,
,,,,,V1_001,22,female,2024-04-29_09h06.08.686,jersey_experiment_5_v1,2023.2.2,Win32,85.47008547,,,,,,,,,,,,,,,,909.6423,911.4425,911.4426,911.9201,return,0.0785,,34.24479167,,,,,,FBP-RB-17.png,0.35,1.2,46,1,,,,,,,,,,,,,,,,,,0,58,58,45,1,,,,,,,,,,,,,,,,,,,,,,,
,,,,,V1_001,22,female,2024-04-29_09h06.08.686,jersey_experiment_5_v1,2023.2.2,Win32,85.47008547,,,,,,,,,,,,,,,,911.9204,913.2185,913.2185,915.1242,return,1.0825,,49.609375,,,,,,FBP-PT-18.png,0.37,1.2,7,0.5,,,,,,,,,,,,,,,,,,0,59,59,6,1,,,,,,,,,,,,,,,,,,,,,,,
,,,,,V1_001,22,female,2024-04-29_09h06.08.686,jersey_experiment_5_v1,2023.2.2,Win32,85.47008547,,,,,,,,,,,,,,,,,,,,,,,,,,,,,,,,,,,,,,,,,,,,,,,,,,,,,,,,915.1245,919.1678,return,4.0316,,,,,,,,,,,,,,,,,,,
,,,,,V1_001,22,female,2024-04-29_09h06.08.686,jersey_experiment_5_v1,2023.2.2,Win32,85.47008547,,,,,,,,,,,,,,,,,,,,,,,,,,,,,,,,,,,,,,,,,,,,,,,,,,,,,,,,,,,,,919.1679,922.5132,1,2.66,return,0.6594,,,,,,,,,,,,
,,,,,V1_001,22,female,2024-04-29_09h06.08.686,jersey_experiment_5_v1,2023.2.2,Win32,85.47008547,,,,,,,,,,,,,,,,,,,,,,,,,,,,,,,,,,,,,,,,,,,,,,,,,,,,,,,,,,,,,,,,,,,,922.5132,930.6315,I have no idea what this study is about.,right,5.0638,,,,,,
,,,,,V1_001,22,female,2024-04-29_09h06.08.686,jersey_experiment_5_v1,2023.2.2,Win32,85.47008547,,,,,,,,,,,,,,,,,,,,,,,,,,,,,,,,,,,,,,,,,,,,,,,,,,,,,,,,,,,,,,,,,,,,,,,,,,930.6316,933.3329,return,2.6847,