requirements.started,requirements.stopped,key_resp_3.keys,key_resp_3.rt,key_resp_3.duration,Subject ID,Age,Gender,date,expName,psychopyVersion,OS,frameRate,instructions1.started,instructions1.stopped,key_resp.keys,key_resp.rt,key_resp.duration,example.started,example.stopped,enter_2.keys,enter_2.rt,enter_2.duration,instructions2.started,instructions2.stopped,enter_3.keys,enter_3.rt,enter_3.duration,image.started,image.stopped,slider_2.started,slider_2.stopped,next.keys,next.rt,next.duration,slider.response,trial_block_1.thisRepN,trial_block_1.thisTrialN,trial_block_1.thisN,trial_block_1.thisIndex,trial_block_1.ran,Path,Width,Height,Index,Duration,trial_block_2.thisRepN,trial_block_2.thisTrialN,trial_block_2.thisN,trial_block_2.thisIndex,trial_block_2.ran,rest_break.started,rest_break.stopped,end_break.started,end_break.stopped,key_resp_5.keys,key_resp_5.rt,key_resp_5.duration,trial_block_3.thisRepN,trial_block_3.thisTrialN,trial_block_3.thisN,trial_block_3.thisIndex,trial_block_3.ran,trial_block_4.thisRepN,trial_block_4.thisTrialN,trial_block_4.thisN,trial_block_4.thisIndex,trial_block_4.ran,questions_intro.started,questions_intro.stopped,enter_12.keys,enter_12.rt,enter_12.duration,question2.started,question2.stopped,question_doingbest.response,question_doingbest.rt,enter_15.keys,enter_15.rt,enter_15.duration,pattern.started,pattern.stopped,pattern_2.text,enter_17.keys,enter_17.rt,enter_17.duration,thankyou.started,thankyou.stopped,enter_14.keys,enter_14.rt,enter_14.duration
0.0001,11.6799,return,11.6708,,V1_031,20,Female,2024-05-22_15h33.20.921,jersey_experiment_5_v1,2023.2.2,Win32,84.74576271,,,,,,,,,,,,,,,,,,,,,,,,,,,,,,,,,,,,,,,,,,,,,,,,,,,,,,,,,,,,,,,,,,,,,,,,,,,,,,
,,,,,V1_031,20,Female,2024-05-22_15h33.20.921,jersey_experiment_5_v1,2023.2.2,Win32,84.74576271,11.6801,26.7039,return,15.0115,,,,,,,,,,,,,,,,,,,,,,,,,,,,,,,,,,,,,,,,,,,,,,,,,,,,,,,,,,,,,,,,,,,,,,,,,,
,,,,,V1_031,20,Female,2024-05-22_15h33.20.921,jersey_experiment_5_v1,2023.2.2,Win32,84.74576271,,,,,,26.704,33.9748,return,7.2416,,,,,,,,,,,,,,,,,,,,,,,,,,,,,,,,,,,,,,,,,,,,,,,,,,,,,,,,,,,,,,,,,,,,,
,,,,,V1_031,20,Female,2024-05-22_15h33.20.921,jersey_experiment_5_v1,2023.2.2,Win32,84.74576271,,,,,,,,,,,33.975,65.3523,return,31.3681,,,,,,,,,,,,,,,,,,,,,,,,,,,,,,,,,,,,,,,,,,,,,,,,,,,,,,,,,,,,,,,,
,,,,,V1_031,20,Female,2024-05-22_15h33.20.921,jersey_experiment_5_v1,2023.2.2,Win32,84.74576271,,,,,,,,,,,,,,,,65.3593,67.1519,67.1521,95.8474,return,17.6276,,26.04166667,0,0,0,0,1,FBP-PT-71.png,0.35,1.2,1,1,,,,,,,,,,,,,,,,,,,,,,,,,,,,,,,,,,,,,,,,,,,,,
,,,,,V1_031,20,Female,2024-05-22_15h33.20.921,jersey_experiment_5_v1,2023.2.2,Win32,84.74576271,,,,,,,,,,,,,,,,95.8477,97.6471,97.6471,106.7298,return,7.0014,,72.265625,0,1,1,7,1,FBP-PT-81.png,0.4,1.2,8,1,,,,,,,,,,,,,,,,,,,,,,,,,,,,,,,,,,,,,,,,,,,,,
,,,,,V1_031,20,Female,2024-05-22_15h33.20.921,jersey_experiment_5_v1,2023.2.2,Win32,84.74576271,,,,,,,,,,,,,,,,106.73,108.024,108.024,118.0126,return,7.6855,,79.55729167,0,2,2,38,1,FBP-OG-18.png,0.43,1.2,39,0.5,,,,,,,,,,,,,,,,,,,,,,,,,,,,,,,,,,,,,,,,,,,,,
,,,,,V1_031,20,Female,2024-05-22_15h33.20.921,jersey_experiment_5_v1,2023.2.2,Win32,84.74576271,,,,,,,,,,,,,,,,118.0129,119.3067,119.3067,125.4953,return,3.6276,,36.45833333,0,3,3,31,1,FBP-OG-17.png,0.37,1.2,32,0.5,,,,,,,,,,,,,,,,,,,,,,,,,,,,,,,,,,,,,,,,,,,,,
,,,,,V1_031,20,Female,2024-05-22_15h33.20.921,jersey_experiment_5_v1,2023.2.2,Win32,84.74576271,,,,,,,,,,,,,,,,125.4955,127.2952,127.2952,134.5424,return,4.8947,,88.28125,0,4,4,13,1,FBP-PT-91.png,0.43,1.2,14,1,,,,,,,,,,,,,,,,,,,,,,,,,,,,,,,,,,,,,,,,,,,,,
,,,,,V1_031,20,Female,2024-05-22_15h33.20.921,jersey_experiment_5_v1,2023.2.2,Win32,84.74576271,,,,,,,,,,,,,,,,134.5426,136.3427,136.3427,152.249,return,12.5809,,45.3125,0,5,5,6,1,FBP-PT-81.png,0.37,1.2,7,1,,,,,,,,,,,,,,,,,,,,,,,,,,,,,,,,,,,,,,,,,,,,,
,,,,,V1_031,20,Female,2024-05-22_15h33.20.921,jersey_experiment_5_v1,2023.2.2,Win32,84.74576271,,,,,,,,,,,,,,,,152.2536,153.555,153.555,162.8259,return,5.0856,,21.22395833,0,6,6,26,1,FBP-YG-19.png,0.37,1.2,27,0.5,,,,,,,,,,,,,,,,,,,,,,,,,,,,,,,,,,,,,,,,,,,,,
,,,,,V1_031,20,Female,2024-05-22_15h33.20.921,jersey_experiment_5_v1,2023.2.2,Win32,84.74576271,,,,,,,,,,,,,,,,162.8261,164.6259,164.6259,169.8143,return,2.5574,,42.83854167,0,7,7,1,1,FBP-PT-71.png,0.37,1.2,2,1,,,,,,,,,,,,,,,,,,,,,,,,,,,,,,,,,,,,,,,,,,,,,
,,,,,V1_031,20,Female,2024-05-22_15h33.20.921,jersey_experiment_5_v1,2023.2.2,Win32,84.74576271,,,,,,,,,,,,,,,,169.8145,171.1084,171.1084,174.5674,return,1.9822,,33.07291667,0,8,8,36,1,FBP-OG-18.png,0.37,1.2,37,0.5,,,,,,,,,,,,,,,,,,,,,,,,,,,,,,,,,,,,,,,,,,,,,
,,,,,V1_031,20,Female,2024-05-22_15h33.20.921,jersey_experiment_5_v1,2023.2.2,Win32,84.74576271,,,,,,,,,,,,,,,,174.5676,175.8616,175.8617,180.6381,return,3.3177,,66.92708333,0,9,9,32,1,FBP-OG-17.png,0.4,1.2,33,0.5,,,,,,,,,,,,,,,,,,,,,,,,,,,,,,,,,,,,,,,,,,,,,
,,,,,V1_031,20,Female,2024-05-22_15h33.20.921,jersey_experiment_5_v1,2023.2.2,Win32,84.74576271,,,,,,,,,,,,,,,,180.6383,181.9323,181.9323,184.3443,return,0.4734,,25.13020833,0,10,10,51,1,FBP-RB-81.png,0.37,1.2,52,0.5,,,,,,,,,,,,,,,,,,,,,,,,,,,,,,,,,,,,,,,,,,,,,
,,,,,V1_031,20,Female,2024-05-22_15h33.20.921,jersey_experiment_5_v1,2023.2.2,Win32,84.74576271,,,,,,,,,,,,,,,,184.3445,186.1442,186.1442,187.909,return,0.6672,,93.48958333,0,11,11,14,1,FBP-PT-91.png,0.45,1.2,15,1,,,,,,,,,,,,,,,,,,,,,,,,,,,,,,,,,,,,,,,,,,,,,
,,,,,V1_031,20,Female,2024-05-22_15h33.20.921,jersey_experiment_5_v1,2023.2.2,Win32,84.74576271,,,,,,,,,,,,,,,,187.9091,189.2031,189.2032,192.4387,return,1.9112,,74.47916667,0,12,12,42,1,FBP-OG-19.png,0.4,1.2,43,0.5,,,,,,,,,,,,,,,,,,,,,,,,,,,,,,,,,,,,,,,,,,,,,
,,,,,V1_031,20,Female,2024-05-22_15h33.20.921,jersey_experiment_5_v1,2023.2.2,Win32,84.74576271,,,,,,,,,,,,,,,,192.4389,193.7329,193.7329,195.7564,return,0.7061,,99.73958333,0,13,13,29,1,FBP-YG-19.png,0.45,1.2,30,0.5,,,,,,,,,,,,,,,,,,,,,,,,,,,,,,,,,,,,,,,,,,,,,
,,,,,V1_031,20,Female,2024-05-22_15h33.20.921,jersey_experiment_5_v1,2023.2.2,Win32,84.74576271,,,,,,,,,,,,,,,,195.7566,197.0508,197.0508,199.1564,return,0.5965,,27.34375,0,14,14,56,1,FBP-RB-91.png,0.37,1.2,57,0.5,,,,,,,,,,,,,,,,,,,,,,,,,,,,,,,,,,,,,,,,,,,,,
,,,,,V1_031,20,Female,2024-05-22_15h33.20.921,jersey_experiment_5_v1,2023.2.2,Win32,84.74576271,,,,,,,,,,,,,,,,199.1566,200.4507,200.4507,202.1332,return,0.5474,,71.61458333,0,15,15,57,1,FBP-RB-91.png,0.4,1.2,58,0.5,,,,,,,,,,,,,,,,,,,,,,,,,,,,,,,,,,,,,,,,,,,,,
,,,,,V1_031,20,Female,2024-05-22_15h33.20.921,jersey_experiment_5_v1,2023.2.2,Win32,84.74576271,,,,,,,,,,,,,,,,202.1334,203.933,203.9331,206.0391,return,1.4058,,75.91145833,0,16,16,2,1,FBP-PT-71.png,0.4,1.2,3,1,,,,,,,,,,,,,,,,,,,,,,,,,,,,,,,,,,,,,,,,,,,,,
,,,,,V1_031,20,Female,2024-05-22_15h33.20.921,jersey_experiment_5_v1,2023.2.2,Win32,84.74576271,,,,,,,,,,,,,,,,206.0393,207.3333,207.3334,211.7686,return,1.7689,,43.09895833,0,17,17,41,1,FBP-OG-19.png,0.37,1.2,42,0.5,,,,,,,,,,,,,,,,,,,,,,,,,,,,,,,,,,,,,,,,,,,,,
,,,,,V1_031,20,Female,2024-05-22_15h33.20.921,jersey_experiment_5_v1,2023.2.2,Win32,84.74576271,,,,,,,,,,,,,,,,211.7688,213.5688,213.5688,215.1569,return,0.8313,,96.875,0,18,18,9,1,FBP-PT-81.png,0.45,1.2,10,1,,,,,,,,,,,,,,,,,,,,,,,,,,,,,,,,,,,,,,,,,,,,,
,,,,,V1_031,20,Female,2024-05-22_15h33.20.921,jersey_experiment_5_v1,2023.2.2,Win32,84.74576271,,,,,,,,,,,,,,,,215.1571,216.4511,216.4511,220.6631,return,2.6041,,16.92708333,0,19,19,50,1,FBP-RB-81.png,0.35,1.2,51,0.5,,,,,,,,,,,,,,,,,,,,,,,,,,,,,,,,,,,,,,,,,,,,,
,,,,,V1_031,20,Female,2024-05-22_15h33.20.921,jersey_experiment_5_v1,2023.2.2,Win32,84.74576271,,,,,,,,,,,,,,,,220.6632,221.9572,221.9572,223.7691,return,0.7333,,30.72916667,0,20,20,21,1,FBP-YG-18.png,0.37,1.2,22,0.5,,,,,,,,,,,,,,,,,,,,,,,,,,,,,,,,,,,,,,,,,,,,,
,,,,,V1_031,20,Female,2024-05-22_15h33.20.921,jersey_experiment_5_v1,2023.2.2,Win32,84.74576271,,,,,,,,,,,,,,,,223.7692,225.0632,225.0632,226.9339,return,0.6404,,94.66145833,0,21,21,53,1,FBP-RB-81.png,0.43,1.2,54,0.5,,,,,,,,,,,,,,,,,,,,,,,,,,,,,,,,,,,,,,,,,,,,,
,,,,,V1_031,20,Female,2024-05-22_15h33.20.921,jersey_experiment_5_v1,2023.2.2,Win32,84.74576271,,,,,,,,,,,,,,,,226.934,228.228,228.228,230.6164,return,0.5222,,74.73958333,0,22,22,22,1,FBP-YG-18.png,0.4,1.2,23,0.5,,,,,,,,,,,,,,,,,,,,,,,,,,,,,,,,,,,,,,,,,,,,,
,,,,,V1_031,20,Female,2024-05-22_15h33.20.921,jersey_experiment_5_v1,2023.2.2,Win32,84.74576271,,,,,,,,,,,,,,,,230.6165,231.9104,231.9104,234.8518,return,0.5269,,50,0,23,23,27,1,FBP-YG-19.png,0.4,1.2,28,0.5,,,,,,,,,,,,,,,,,,,,,,,,,,,,,,,,,,,,,,,,,,,,,
,,,,,V1_031,20,Female,2024-05-22_15h33.20.921,jersey_experiment_5_v1,2023.2.2,Win32,84.74576271,,,,,,,,,,,,,,,,234.8518,236.1459,236.146,241.1932,return,3.6726,,97.65625,0,24,24,19,1,FBP-YG-17.png,0.45,1.2,20,0.5,,,,,,,,,,,,,,,,,,,,,,,,,,,,,,,,,,,,,,,,,,,,,
,,,,,V1_031,20,Female,2024-05-22_15h33.20.921,jersey_experiment_5_v1,2023.2.2,Win32,84.74576271,,,,,,,,,,,,,,,,241.1977,242.4991,242.4991,244.3816,return,0.4806,,29.42708333,0,25,25,46,1,FBP-RB-71.png,0.37,1.2,47,0.5,,,,,,,,,,,,,,,,,,,,,,,,,,,,,,,,,,,,,,,,,,,,,
,,,,,V1_031,20,Female,2024-05-22_15h33.20.921,jersey_experiment_5_v1,2023.2.2,Win32,84.74576271,,,,,,,,,,,,,,,,244.3817,245.6758,245.6758,247.311,return,0.6724,,79.16666667,0,26,26,58,1,FBP-RB-91.png,0.43,1.2,59,0.5,,,,,,,,,,,,,,,,,,,,,,,,,,,,,,,,,,,,,,,,,,,,,
,,,,,V1_031,20,Female,2024-05-22_15h33.20.921,jersey_experiment_5_v1,2023.2.2,Win32,84.74576271,,,,,,,,,,,,,,,,247.3112,249.1111,249.1111,251.8995,return,0.6113,,72.91666667,0,27,27,12,1,FBP-PT-91.png,0.4,1.2,13,1,,,,,,,,,,,,,,,,,,,,,,,,,,,,,,,,,,,,,,,,,,,,,
,,,,,V1_031,20,Female,2024-05-22_15h33.20.921,jersey_experiment_5_v1,2023.2.2,Win32,84.74576271,,,,,,,,,,,,,,,,251.8996,253.1936,253.1937,257.0173,return,2.0033,,80.98958333,0,28,28,33,1,FBP-OG-17.png,0.43,1.2,34,0.5,,,,,,,,,,,,,,,,,,,,,,,,,,,,,,,,,,,,,,,,,,,,,
,,,,,V1_031,20,Female,2024-05-22_15h33.20.921,jersey_experiment_5_v1,2023.2.2,Win32,84.74576271,,,,,,,,,,,,,,,,257.0174,258.3115,258.3115,260.8881,return,1.1463,,14.58333333,0,29,29,30,1,FBP-OG-17.png,0.35,1.2,31,0.5,,,,,,,,,,,,,,,,,,,,,,,,,,,,,,,,,,,,,,,,,,,,,
,,,,,V1_031,20,Female,2024-05-22_15h33.20.921,jersey_experiment_5_v1,2023.2.2,Win32,84.74576271,,,,,,,,,,,,,,,,260.8883,262.1822,262.1822,263.7823,return,0.7948,,20.83333333,0,30,30,40,1,FBP-OG-19.png,0.35,1.2,41,0.5,,,,,,,,,,,,,,,,,,,,,,,,,,,,,,,,,,,,,,,,,,,,,
,,,,,V1_031,20,Female,2024-05-22_15h33.20.921,jersey_experiment_5_v1,2023.2.2,Win32,84.74576271,,,,,,,,,,,,,,,,263.7824,265.0764,265.0764,266.3942,return,0.4014,,6.380208333,0,31,31,35,1,FBP-OG-18.png,0.35,1.2,36,0.5,,,,,,,,,,,,,,,,,,,,,,,,,,,,,,,,,,,,,,,,,,,,,
,,,,,V1_031,20,Female,2024-05-22_15h33.20.921,jersey_experiment_5_v1,2023.2.2,Win32,84.74576271,,,,,,,,,,,,,,,,266.3943,267.6885,267.6886,270.8296,return,1.9765,,88.41145833,0,32,32,39,1,FBP-OG-18.png,0.45,1.2,40,0.5,,,,,,,,,,,,,,,,,,,,,,,,,,,,,,,,,,,,,,,,,,,,,
,,,,,V1_031,20,Female,2024-05-22_15h33.20.921,jersey_experiment_5_v1,2023.2.2,Win32,84.74576271,,,,,,,,,,,,,,,,270.8297,272.1238,272.1238,273.5474,return,0.5314,,98.95833333,0,33,33,24,1,FBP-YG-18.png,0.45,1.2,25,0.5,,,,,,,,,,,,,,,,,,,,,,,,,,,,,,,,,,,,,,,,,,,,,
,,,,,V1_031,20,Female,2024-05-22_15h33.20.921,jersey_experiment_5_v1,2023.2.2,Win32,84.74576271,,,,,,,,,,,,,,,,273.5476,274.8415,274.8416,276.8299,return,0.4239,,75.65104167,0,34,34,43,1,FBP-OG-19.png,0.43,1.2,44,0.5,,,,,,,,,,,,,,,,,,,,,,,,,,,,,,,,,,,,,,,,,,,,,
,,,,,V1_031,20,Female,2024-05-22_15h33.20.921,jersey_experiment_5_v1,2023.2.2,Win32,84.74576271,,,,,,,,,,,,,,,,276.83,278.1239,278.1239,282.5241,return,3.1772,,18.75,0,35,35,15,1,FBP-YG-17.png,0.35,1.2,16,0.5,,,,,,,,,,,,,,,,,,,,,,,,,,,,,,,,,,,,,,,,,,,,,
,,,,,V1_031,20,Female,2024-05-22_15h33.20.921,jersey_experiment_5_v1,2023.2.2,Win32,84.74576271,,,,,,,,,,,,,,,,282.5243,283.8182,283.8182,285.2888,return,0.4721,,12.76041667,0,36,36,55,1,FBP-RB-91.png,0.35,1.2,56,0.5,,,,,,,,,,,,,,,,,,,,,,,,,,,,,,,,,,,,,,,,,,,,,
,,,,,V1_031,20,Female,2024-05-22_15h33.20.921,jersey_experiment_5_v1,2023.2.2,Win32,84.74576271,,,,,,,,,,,,,,,,285.2891,287.0891,287.0891,290.3597,return,1.0508,,86.71875,0,37,37,4,1,FBP-PT-71.png,0.45,1.2,5,1,,,,,,,,,,,,,,,,,,,,,,,,,,,,,,,,,,,,,,,,,,,,,
,,,,,V1_031,20,Female,2024-05-22_15h33.20.921,jersey_experiment_5_v1,2023.2.2,Win32,84.74576271,,,,,,,,,,,,,,,,290.3598,291.6538,291.6539,294.5364,return,1.2258,,89.97395833,0,38,38,18,1,FBP-YG-17.png,0.43,1.2,19,0.5,,,,,,,,,,,,,,,,,,,,,,,,,,,,,,,,,,,,,,,,,,,,,
,,,,,V1_031,20,Female,2024-05-22_15h33.20.921,jersey_experiment_5_v1,2023.2.2,Win32,84.74576271,,,,,,,,,,,,,,,,294.5366,295.8305,295.8305,297.8658,return,1.2737,,95.57291667,0,39,39,34,1,FBP-OG-17.png,0.45,1.2,35,0.5,,,,,,,,,,,,,,,,,,,,,,,,,,,,,,,,,,,,,,,,,,,,,
,,,,,V1_031,20,Female,2024-05-22_15h33.20.921,jersey_experiment_5_v1,2023.2.2,Win32,84.74576271,,,,,,,,,,,,,,,,297.8659,299.1599,299.16,300.3836,return,0.5412,,97.265625,0,40,40,49,1,FBP-RB-71.png,0.45,1.2,50,0.5,,,,,,,,,,,,,,,,,,,,,,,,,,,,,,,,,,,,,,,,,,,,,
,,,,,V1_031,20,Female,2024-05-22_15h33.20.921,jersey_experiment_5_v1,2023.2.2,Win32,84.74576271,,,,,,,,,,,,,,,,300.3837,301.6777,301.6777,303.0778,return,0.4661,,97.78645833,0,41,41,59,1,FBP-RB-91.png,0.45,1.2,60,0.5,,,,,,,,,,,,,,,,,,,,,,,,,,,,,,,,,,,,,,,,,,,,,
,,,,,V1_031,20,Female,2024-05-22_15h33.20.921,jersey_experiment_5_v1,2023.2.2,Win32,84.74576271,,,,,,,,,,,,,,,,303.078,304.3719,304.372,306.2662,return,0.6244,,24.34895833,0,42,42,16,1,FBP-YG-17.png,0.37,1.2,17,0.5,,,,,,,,,,,,,,,,,,,,,,,,,,,,,,,,,,,,,,,,,,,,,
,,,,,V1_031,20,Female,2024-05-22_15h33.20.921,jersey_experiment_5_v1,2023.2.2,Win32,84.74576271,,,,,,,,,,,,,,,,306.2665,307.5604,307.5604,308.7604,return,0.4142,,16.015625,0,43,43,20,1,FBP-YG-18.png,0.35,1.2,21,0.5,,,,,,,,,,,,,,,,,,,,,,,,,,,,,,,,,,,,,,,,,,,,,
,,,,,V1_031,20,Female,2024-05-22_15h33.20.921,jersey_experiment_5_v1,2023.2.2,Win32,84.74576271,,,,,,,,,,,,,,,,308.7607,310.5607,310.5607,312.8546,return,0.5946,,78.90625,0,44,44,8,1,FBP-PT-81.png,0.43,1.2,9,1,,,,,,,,,,,,,,,,,,,,,,,,,,,,,,,,,,,,,,,,,,,,,
,,,,,V1_031,20,Female,2024-05-22_15h33.20.921,jersey_experiment_5_v1,2023.2.2,Win32,84.74576271,,,,,,,,,,,,,,,,312.8549,314.1486,314.1486,318.3137,return,0.4362,,50.26041667,0,45,45,17,1,FBP-YG-17.png,0.4,1.2,18,0.5,,,,,,,,,,,,,,,,,,,,,,,,,,,,,,,,,,,,,,,,,,,,,
,,,,,V1_031,20,Female,2024-05-22_15h33.20.921,jersey_experiment_5_v1,2023.2.2,Win32,84.74576271,,,,,,,,,,,,,,,,318.3138,319.6077,319.6078,323.7256,return,0.4941,,30.078125,0,46,46,52,1,FBP-RB-81.png,0.4,1.2,53,0.5,,,,,,,,,,,,,,,,,,,,,,,,,,,,,,,,,,,,,,,,,,,,,
,,,,,V1_031,20,Female,2024-05-22_15h33.20.921,jersey_experiment_5_v1,2023.2.2,Win32,84.74576271,,,,,,,,,,,,,,,,323.7258,325.0197,325.0197,327.961,return,1.3551,,62.36979167,0,47,47,23,1,FBP-YG-18.png,0.43,1.2,24,0.5,,,,,,,,,,,,,,,,,,,,,,,,,,,,,,,,,,,,,,,,,,,,,
,,,,,V1_031,20,Female,2024-05-22_15h33.20.921,jersey_experiment_5_v1,2023.2.2,Win32,84.74576271,,,,,,,,,,,,,,,,327.9612,329.2551,329.2551,333.1024,return,1.5434,,70.57291667,0,48,48,47,1,FBP-RB-71.png,0.4,1.2,48,0.5,,,,,,,,,,,,,,,,,,,,,,,,,,,,,,,,,,,,,,,,,,,,,
,,,,,V1_031,20,Female,2024-05-22_15h33.20.921,jersey_experiment_5_v1,2023.2.2,Win32,84.74576271,,,,,,,,,,,,,,,,333.1026,334.3966,334.3967,336.9025,return,0.4405,,86.97916667,0,49,49,54,1,FBP-RB-81.png,0.45,1.2,55,0.5,,,,,,,,,,,,,,,,,,,,,,,,,,,,,,,,,,,,,,,,,,,,,
,,,,,V1_031,20,Female,2024-05-22_15h33.20.921,jersey_experiment_5_v1,2023.2.2,Win32,84.74576271,,,,,,,,,,,,,,,,336.9027,338.7029,338.7029,340.6793,return,0.6296,,33.203125,0,50,50,11,1,FBP-PT-91.png,0.37,1.2,12,1,,,,,,,,,,,,,,,,,,,,,,,,,,,,,,,,,,,,,,,,,,,,,
,,,,,V1_031,20,Female,2024-05-22_15h33.20.921,jersey_experiment_5_v1,2023.2.2,Win32,84.74576271,,,,,,,,,,,,,,,,340.6795,341.9733,341.9733,345.0792,return,0.5914,,74.47916667,0,51,51,48,1,FBP-RB-71.png,0.43,1.2,49,0.5,,,,,,,,,,,,,,,,,,,,,,,,,,,,,,,,,,,,,,,,,,,,,
,,,,,V1_031,20,Female,2024-05-22_15h33.20.921,jersey_experiment_5_v1,2023.2.2,Win32,84.74576271,,,,,,,,,,,,,,,,345.0794,346.3735,346.3735,349.0441,return,0.5134,,23.828125,0,52,52,25,1,FBP-YG-19.png,0.35,1.2,26,0.5,,,,,,,,,,,,,,,,,,,,,,,,,,,,,,,,,,,,,,,,,,,,,
,,,,,V1_031,20,Female,2024-05-22_15h33.20.921,jersey_experiment_5_v1,2023.2.2,Win32,84.74576271,,,,,,,,,,,,,,,,349.0442,350.8445,350.8446,353.2913,return,0.4472,,16.015625,0,53,53,10,1,FBP-PT-91.png,0.35,1.2,11,1,,,,,,,,,,,,,,,,,,,,,,,,,,,,,,,,,,,,,,,,,,,,,
,,,,,V1_031,20,Female,2024-05-22_15h33.20.921,jersey_experiment_5_v1,2023.2.2,Win32,84.74576271,,,,,,,,,,,,,,,,353.2916,355.0913,355.0914,358.0915,return,2.0473,,12.76041667,0,54,54,5,1,FBP-PT-81.png,0.35,1.2,6,1,,,,,,,,,,,,,,,,,,,,,,,,,,,,,,,,,,,,,,,,,,,,,
,,,,,V1_031,20,Female,2024-05-22_15h33.20.921,jersey_experiment_5_v1,2023.2.2,Win32,84.74576271,,,,,,,,,,,,,,,,358.0918,359.3858,359.3858,362.4211,return,0.4428,,50,0,55,55,45,1,FBP-RB-71.png,0.35,1.2,46,0.5,,,,,,,,,,,,,,,,,,,,,,,,,,,,,,,,,,,,,,,,,,,,,
,,,,,V1_031,20,Female,2024-05-22_15h33.20.921,jersey_experiment_5_v1,2023.2.2,Win32,84.74576271,,,,,,,,,,,,,,,,362.4214,363.7152,363.7153,365.9506,return,0.5176,,80.72916667,0,56,56,28,1,FBP-YG-19.png,0.43,1.2,29,0.5,,,,,,,,,,,,,,,,,,,,,,,,,,,,,,,,,,,,,,,,,,,,,
,,,,,V1_031,20,Female,2024-05-22_15h33.20.921,jersey_experiment_5_v1,2023.2.2,Win32,84.74576271,,,,,,,,,,,,,,,,365.9508,367.2448,367.2449,368.3742,return,0.4421,,86.19791667,0,57,57,44,1,FBP-OG-19.png,0.45,1.2,45,0.5,,,,,,,,,,,,,,,,,,,,,,,,,,,,,,,,,,,,,,,,,,,,,
,,,,,V1_031,20,Female,2024-05-22_15h33.20.921,jersey_experiment_5_v1,2023.2.2,Win32,84.74576271,,,,,,,,,,,,,,,,368.3743,370.1742,370.1743,371.9155,return,0.5759,,75.65104167,0,58,58,3,1,FBP-PT-71.png,0.43,1.2,4,1,,,,,,,,,,,,,,,,,,,,,,,,,,,,,,,,,,,,,,,,,,,,,
,,,,,V1_031,20,Female,2024-05-22_15h33.20.921,jersey_experiment_5_v1,2023.2.2,Win32,84.74576271,,,,,,,,,,,,,,,,371.9158,373.2097,373.2097,374.9862,return,0.4243,,50,0,59,59,37,1,FBP-OG-18.png,0.4,1.2,38,0.5,,,,,,,,,,,,,,,,,,,,,,,,,,,,,,,,,,,,,,,,,,,,,
,,,,,V1_031,20,Female,2024-05-22_15h33.20.921,jersey_experiment_5_v1,2023.2.2,Win32,84.74576271,,,,,,,,,,,,,,,,374.9884,376.2804,376.2804,378.4922,return,0.5083,,69.27083333,,,,,,FBP-RB-18.png,0.43,1.2,54,0.5,0,0,0,53,1,,,,,,,,,,,,,,,,,,,,,,,,,,,,,,,,,,,,,,,,
,,,,,V1_031,20,Female,2024-05-22_15h33.20.921,jersey_experiment_5_v1,2023.2.2,Win32,84.74576271,,,,,,,,,,,,,,,,378.4927,379.7864,379.7865,381.3276,return,0.3766,,24.86979167,,,,,,FBP-YG-81.png,0.35,1.2,21,0.5,0,1,1,20,1,,,,,,,,,,,,,,,,,,,,,,,,,,,,,,,,,,,,,,,,
,,,,,V1_031,20,Female,2024-05-22_15h33.20.921,jersey_experiment_5_v1,2023.2.2,Win32,84.74576271,,,,,,,,,,,,,,,,381.3278,382.6218,382.6218,385.6099,return,0.5437,,68.22916667,,,,,,FBP-RB-17.png,0.43,1.2,49,0.5,0,2,2,48,1,,,,,,,,,,,,,,,,,,,,,,,,,,,,,,,,,,,,,,,,
,,,,,V1_031,20,Female,2024-05-22_15h33.20.921,jersey_experiment_5_v1,2023.2.2,Win32,84.74576271,,,,,,,,,,,,,,,,385.6102,387.4101,387.4101,389.269,return,0.4772,,50,,,,,,FBP-PT-18.png,0.4,1.2,8,1,0,3,3,7,1,,,,,,,,,,,,,,,,,,,,,,,,,,,,,,,,,,,,,,,,
,,,,,V1_031,20,Female,2024-05-22_15h33.20.921,jersey_experiment_5_v1,2023.2.2,Win32,84.74576271,,,,,,,,,,,,,,,,389.2693,391.0691,391.0691,393.0927,return,0.6666,,46.875,,,,,,FBP-PT-19.png,0.4,1.2,13,1,0,4,4,12,1,,,,,,,,,,,,,,,,,,,,,,,,,,,,,,,,,,,,,,,,
,,,,,V1_031,20,Female,2024-05-22_15h33.20.921,jersey_experiment_5_v1,2023.2.2,Win32,84.74576271,,,,,,,,,,,,,,,,393.0929,394.3868,394.3868,397.8341,return,2.1893,,21.61458333,,,,,,FBP-RB-19.png,0.37,1.2,57,0.5,0,5,5,56,1,,,,,,,,,,,,,,,,,,,,,,,,,,,,,,,,,,,,,,,,
,,,,,V1_031,20,Female,2024-05-22_15h33.20.921,jersey_experiment_5_v1,2023.2.2,Win32,84.74576271,,,,,,,,,,,,,,,,397.8342,399.1282,399.1283,402.0105,return,1.6729,,77.34375,,,,,,FBP-RB-17.png,0.45,1.2,50,0.5,0,6,6,49,1,,,,,,,,,,,,,,,,,,,,,,,,,,,,,,,,,,,,,,,,
,,,,,V1_031,20,Female,2024-05-22_15h33.20.921,jersey_experiment_5_v1,2023.2.2,Win32,84.74576271,,,,,,,,,,,,,,,,402.0108,403.3049,403.3049,405.3049,return,0.4977,,13.41145833,,,,,,FBP-OG-91.png,0.37,1.2,42,0.5,0,7,7,41,1,,,,,,,,,,,,,,,,,,,,,,,,,,,,,,,,,,,,,,,,
,,,,,V1_031,20,Female,2024-05-22_15h33.20.921,jersey_experiment_5_v1,2023.2.2,Win32,84.74576271,,,,,,,,,,,,,,,,405.3051,406.599,406.599,407.8697,return,0.4475,,12.36979167,,,,,,FBP-YG-71.png,0.35,1.2,16,0.5,0,8,8,15,1,,,,,,,,,,,,,,,,,,,,,,,,,,,,,,,,,,,,,,,,
,,,,,V1_031,20,Female,2024-05-22_15h33.20.921,jersey_experiment_5_v1,2023.2.2,Win32,84.74576271,,,,,,,,,,,,,,,,407.87,409.1639,409.1639,414.823,return,4.3235,,78.38541667,,,,,,FBP-RB-18.png,0.45,1.2,55,0.5,0,9,9,54,1,,,,,,,,,,,,,,,,,,,,,,,,,,,,,,,,,,,,,,,,
,,,,,V1_031,20,Female,2024-05-22_15h33.20.921,jersey_experiment_5_v1,2023.2.2,Win32,84.74576271,,,,,,,,,,,,,,,,414.8232,416.117,416.1171,420.1643,return,2.8436,,81.51041667,,,,,,FBP-OG-81.png,0.43,1.2,39,0.5,0,10,10,38,1,,,,,,,,,,,,,,,,,,,,,,,,,,,,,,,,,,,,,,,,
,,,,,V1_031,20,Female,2024-05-22_15h33.20.921,jersey_experiment_5_v1,2023.2.2,Win32,84.74576271,,,,,,,,,,,,,,,,420.1644,421.9645,421.9646,427.3176,return,3.9254,,15.88541667,,,,,,FBP-PT-19.png,0.37,1.2,12,1,0,11,11,11,1,,,,,,,,,,,,,,,,,,,,,,,,,,,,,,,,,,,,,,,,
,,,,,V1_031,20,Female,2024-05-22_15h33.20.921,jersey_experiment_5_v1,2023.2.2,Win32,84.74576271,,,,,,,,,,,,,,,,427.3178,429.1175,429.1175,431.0823,return,1.096,,21.484375,,,,,,FBP-PT-17.png,0.37,1.2,2,1,0,12,12,1,1,,,,,,,,,,,,,,,,,,,,,,,,,,,,,,,,,,,,,,,,
,,,,,V1_031,20,Female,2024-05-22_15h33.20.921,jersey_experiment_5_v1,2023.2.2,Win32,84.74576271,,,,,,,,,,,,,,,,431.0825,432.3764,432.3764,434.8118,return,0.6832,,83.984375,,,,,,FBP-YG-91.png,0.45,1.2,30,0.5,0,13,13,29,1,,,,,,,,,,,,,,,,,,,,,,,,,,,,,,,,,,,,,,,,
,,,,,V1_031,20,Female,2024-05-22_15h33.20.921,jersey_experiment_5_v1,2023.2.2,Win32,84.74576271,,,,,,,,,,,,,,,,434.8121,436.6118,436.6118,438.2944,return,0.6418,,85.28645833,,,,,,FBP-PT-19.png,0.45,1.2,15,1,0,14,14,14,1,,,,,,,,,,,,,,,,,,,,,,,,,,,,,,,,,,,,,,,,
,,,,,V1_031,20,Female,2024-05-22_15h33.20.921,jersey_experiment_5_v1,2023.2.2,Win32,84.74576271,,,,,,,,,,,,,,,,438.2946,440.0947,440.0947,442.1532,return,0.4369,,25,,,,,,FBP-PT-19.png,0.35,1.2,11,1,0,15,15,10,1,,,,,,,,,,,,,,,,,,,,,,,,,,,,,,,,,,,,,,,,
,,,,,V1_031,20,Female,2024-05-22_15h33.20.921,jersey_experiment_5_v1,2023.2.2,Win32,84.74576271,,,,,,,,,,,,,,,,442.1534,443.9533,443.9534,447.0947,return,2.2274,,71.875,,,,,,FBP-PT-19.png,0.43,1.2,14,1,0,16,16,13,1,,,,,,,,,,,,,,,,,,,,,,,,,,,,,,,,,,,,,,,,
,,,,,V1_031,20,Female,2024-05-22_15h33.20.921,jersey_experiment_5_v1,2023.2.2,Win32,84.74576271,,,,,,,,,,,,,,,,447.0949,448.3888,448.3888,450.4949,return,0.5306,,29.03645833,,,,,,FBP-RB-17.png,0.37,1.2,47,0.5,0,17,17,46,1,,,,,,,,,,,,,,,,,,,,,,,,,,,,,,,,,,,,,,,,
,,,,,V1_031,20,Female,2024-05-22_15h33.20.921,jersey_experiment_5_v1,2023.2.2,Win32,84.74576271,,,,,,,,,,,,,,,,450.4951,451.7889,451.7889,454.5419,return,0.4141,,88.54166667,,,,,,FBP-YG-81.png,0.45,1.2,25,0.5,0,18,18,24,1,,,,,,,,,,,,,,,,,,,,,,,,,,,,,,,,,,,,,,,,
,,,,,V1_031,20,Female,2024-05-22_15h33.20.921,jersey_experiment_5_v1,2023.2.2,Win32,84.74576271,,,,,,,,,,,,,,,,454.5421,455.8362,455.8362,458.6715,return,1.1768,,34.24479167,,,,,,FBP-RB-18.png,0.35,1.2,51,0.5,0,19,19,50,1,,,,,,,,,,,,,,,,,,,,,,,,,,,,,,,,,,,,,,,,
,,,,,V1_031,20,Female,2024-05-22_15h33.20.921,jersey_experiment_5_v1,2023.2.2,Win32,84.74576271,,,,,,,,,,,,,,,,458.6717,459.9657,459.9657,461.6952,return,0.4371,,49.609375,,,,,,FBP-YG-71.png,0.4,1.2,18,0.5,0,20,20,17,1,,,,,,,,,,,,,,,,,,,,,,,,,,,,,,,,,,,,,,,,
,,,,,V1_031,20,Female,2024-05-22_15h33.20.921,jersey_experiment_5_v1,2023.2.2,Win32,84.74576271,,,,,,,,,,,,,,,,461.6954,462.9893,462.9894,464.954,return,0.544,,51.43229167,,,,,,FBP-RB-19.png,0.4,1.2,58,0.5,0,21,21,57,1,,,,,,,,,,,,,,,,,,,,,,,,,,,,,,,,,,,,,,,,
,,,,,V1_031,20,Female,2024-05-22_15h33.20.921,jersey_experiment_5_v1,2023.2.2,Win32,84.74576271,,,,,,,,,,,,,,,,464.9543,466.2484,466.2484,469.613,return,1.8119,,5.989583333,,,,,,FBP-OG-81.png,0.35,1.2,36,0.5,0,22,22,35,1,,,,,,,,,,,,,,,,,,,,,,,,,,,,,,,,,,,,,,,,
,,,,,V1_031,20,Female,2024-05-22_15h33.20.921,jersey_experiment_5_v1,2023.2.2,Win32,84.74576271,,,,,,,,,,,,,,,,469.6133,470.9072,470.9073,474.9192,return,1.7924,,62.23958333,,,,,,FBP-OG-71.png,0.43,1.2,34,0.5,0,23,23,33,1,,,,,,,,,,,,,,,,,,,,,,,,,,,,,,,,,,,,,,,,
,,,,,V1_031,20,Female,2024-05-22_15h33.20.921,jersey_experiment_5_v1,2023.2.2,Win32,84.74576271,,,,,,,,,,,,,,,,474.9194,476.2132,476.2132,477.7898,return,0.5422,,75.91145833,,,,,,FBP-YG-71.png,0.45,1.2,20,0.5,0,24,24,19,1,,,,,,,,,,,,,,,,,,,,,,,,,,,,,,,,,,,,,,,,
,,,,,V1_031,20,Female,2024-05-22_15h33.20.921,jersey_experiment_5_v1,2023.2.2,Win32,84.74576271,,,,,,,,,,,,,,,,477.79,479.084,479.0841,480.8371,return,0.4409,,24.609375,,,,,,FBP-YG-71.png,0.37,1.2,17,0.5,0,25,25,16,1,,,,,,,,,,,,,,,,,,,,,,,,,,,,,,,,,,,,,,,,
,,,,,V1_031,20,Female,2024-05-22_15h33.20.921,jersey_experiment_5_v1,2023.2.2,Win32,84.74576271,,,,,,,,,,,,,,,,480.8372,482.1311,482.1311,484.4136,return,0.5049,,25.91145833,,,,,,FBP-YG-91.png,0.37,1.2,27,0.5,0,26,26,26,1,,,,,,,,,,,,,,,,,,,,,,,,,,,,,,,,,,,,,,,,
,,,,,V1_031,20,Female,2024-05-22_15h33.20.921,jersey_experiment_5_v1,2023.2.2,Win32,84.74576271,,,,,,,,,,,,,,,,484.4138,485.7078,485.7078,487.3079,return,0.4344,,49.73958333,,,,,,FBP-RB-17.png,0.4,1.2,48,0.5,0,27,27,47,1,,,,,,,,,,,,,,,,,,,,,,,,,,,,,,,,,,,,,,,,
,,,,,V1_031,20,Female,2024-05-22_15h33.20.921,jersey_experiment_5_v1,2023.2.2,Win32,84.74576271,,,,,,,,,,,,,,,,487.3081,488.602,488.602,490.061,return,0.4,,52.08333333,,,,,,FBP-OG-91.png,0.4,1.2,43,0.5,0,28,28,42,1,,,,,,,,,,,,,,,,,,,,,,,,,,,,,,,,,,,,,,,,
,,,,,V1_031,20,Female,2024-05-22_15h33.20.921,jersey_experiment_5_v1,2023.2.2,Win32,84.74576271,,,,,,,,,,,,,,,,490.0613,491.3551,491.3551,492.9552,return,0.4828,,69.27083333,,,,,,FBP-YG-91.png,0.43,1.2,29,0.5,0,29,29,28,1,,,,,,,,,,,,,,,,,,,,,,,,,,,,,,,,,,,,,,,,
,,,,,V1_031,20,Female,2024-05-22_15h33.20.921,jersey_experiment_5_v1,2023.2.2,Win32,84.74576271,,,,,,,,,,,,,,,,492.9553,494.2492,494.2492,498.0847,return,2.9255,,23.828125,,,,,,FBP-YG-91.png,0.35,1.2,26,0.5,0,30,30,25,1,,,,,,,,,,,,,,,,,,,,,,,,,,,,,,,,,,,,,,,,
,,,,,V1_031,20,Female,2024-05-22_15h33.20.921,jersey_experiment_5_v1,2023.2.2,Win32,84.74576271,,,,,,,,,,,,,,,,498.085,499.3789,499.3789,503.3082,return,0.6121,,63.93229167,,,,,,FBP-RB-19.png,0.45,1.2,60,0.5,0,31,31,59,1,,,,,,,,,,,,,,,,,,,,,,,,,,,,,,,,,,,,,,,,
,,,,,V1_031,20,Female,2024-05-22_15h33.20.921,jersey_experiment_5_v1,2023.2.2,Win32,84.74576271,,,,,,,,,,,,,,,,503.3084,505.1085,505.1085,506.5204,return,0.6044,,74.21875,,,,,,FBP-PT-17.png,0.45,1.2,5,1,0,32,32,4,1,,,,,,,,,,,,,,,,,,,,,,,,,,,,,,,,,,,,,,,,
,,,,,V1_031,20,Female,2024-05-22_15h33.20.921,jersey_experiment_5_v1,2023.2.2,Win32,84.74576271,,,,,,,,,,,,,,,,506.5205,508.3204,508.3204,510.8616,return,0.5042,,73.56770833,,,,,,FBP-PT-17.png,0.43,1.2,4,1,0,33,33,3,1,,,,,,,,,,,,,,,,,,,,,,,,,,,,,,,,,,,,,,,,
,,,,,V1_031,20,Female,2024-05-22_15h33.20.921,jersey_experiment_5_v1,2023.2.2,Win32,84.74576271,,,,,,,,,,,,,,,,510.8619,512.1557,512.1557,515.7089,return,0.4001,,35.546875,,,,,,FBP-OG-81.png,0.4,1.2,38,0.5,0,34,34,37,1,,,,,,,,,,,,,,,,,,,,,,,,,,,,,,,,,,,,,,,,
,,,,,V1_031,20,Female,2024-05-22_15h33.20.921,jersey_experiment_5_v1,2023.2.2,Win32,84.74576271,,,,,,,,,,,,,,,,515.709,517.0029,517.003,521.1796,return,2.908,,30.859375,,,,,,FBP-OG-81.png,0.37,1.2,37,0.5,0,35,35,36,1,,,,,,,,,,,,,,,,,,,,,,,,,,,,,,,,,,,,,,,,
,,,,,V1_031,20,Female,2024-05-22_15h33.20.921,jersey_experiment_5_v1,2023.2.2,Win32,84.74576271,,,,,,,,,,,,,,,,521.1798,522.4738,522.4738,525.2739,return,0.7302,,49.86979167,,,,,,FBP-YG-91.png,0.4,1.2,28,0.5,0,36,36,27,1,,,,,,,,,,,,,,,,,,,,,,,,,,,,,,,,,,,,,,,,
,,,,,V1_031,20,Female,2024-05-22_15h33.20.921,jersey_experiment_5_v1,2023.2.2,Win32,84.74576271,,,,,,,,,,,,,,,,525.2742,527.0739,527.0739,533.1918,return,3.0263,,53.38541667,,,,,,FBP-PT-18.png,0.45,1.2,10,1,0,37,37,9,1,,,,,,,,,,,,,,,,,,,,,,,,,,,,,,,,,,,,,,,,
,,,,,V1_031,20,Female,2024-05-22_15h33.20.921,jersey_experiment_5_v1,2023.2.2,Win32,84.74576271,,,,,,,,,,,,,,,,533.192,534.4859,534.486,536.1566,return,0.4572,,25.13020833,,,,,,FBP-OG-71.png,0.37,1.2,32,0.5,0,38,38,31,1,,,,,,,,,,,,,,,,,,,,,,,,,,,,,,,,,,,,,,,,
,,,,,V1_031,20,Female,2024-05-22_15h33.20.921,jersey_experiment_5_v1,2023.2.2,Win32,84.74576271,,,,,,,,,,,,,,,,536.1568,537.4508,537.4508,539.8507,return,1.0609,,29.42708333,,,,,,FBP-YG-81.png,0.37,1.2,22,0.5,0,39,39,21,1,,,,,,,,,,,,,,,,,,,,,,,,,,,,,,,,,,,,,,,,
,,,,,V1_031,20,Female,2024-05-22_15h33.20.921,jersey_experiment_5_v1,2023.2.2,Win32,84.74576271,,,,,,,,,,,,,,,,539.8509,541.1449,541.145,544.9099,return,1.3409,,71.61458333,,,,,,FBP-OG-71.png,0.45,1.2,35,0.5,0,40,40,34,1,,,,,,,,,,,,,,,,,,,,,,,,,,,,,,,,,,,,,,,,
,,,,,V1_031,20,Female,2024-05-22_15h33.20.921,jersey_experiment_5_v1,2023.2.2,Win32,84.74576271,,,,,,,,,,,,,,,,544.9101,546.2041,546.2041,549.0981,return,0.4496,,11.45833333,,,,,,FBP-OG-71.png,0.35,1.2,31,0.5,0,41,41,30,1,,,,,,,,,,,,,,,,,,,,,,,,,,,,,,,,,,,,,,,,
,,,,,V1_031,20,Female,2024-05-22_15h33.20.921,jersey_experiment_5_v1,2023.2.2,Win32,84.74576271,,,,,,,,,,,,,,,,549.0983,550.3924,550.3924,552.6867,return,0.5651,,24.609375,,,,,,FBP-OG-71.png,0.4,1.2,33,0.5,0,42,42,32,1,,,,,,,,,,,,,,,,,,,,,,,,,,,,,,,,,,,,,,,,
,,,,,V1_031,20,Female,2024-05-22_15h33.20.921,jersey_experiment_5_v1,2023.2.2,Win32,84.74576271,,,,,,,,,,,,,,,,552.6869,553.9808,553.9808,555.5926,return,0.5556,,6.119791667,,,,,,FBP-RB-19.png,0.35,1.2,56,0.5,0,43,43,55,1,,,,,,,,,,,,,,,,,,,,,,,,,,,,,,,,,,,,,,,,
,,,,,V1_031,20,Female,2024-05-22_15h33.20.921,jersey_experiment_5_v1,2023.2.2,Win32,84.74576271,,,,,,,,,,,,,,,,555.5928,556.8867,556.8867,559.7105,return,0.9516,,74.08854167,,,,,,FBP-OG-81.png,0.45,1.2,40,0.5,0,44,44,39,1,,,,,,,,,,,,,,,,,,,,,,,,,,,,,,,,,,,,,,,,
,,,,,V1_031,20,Female,2024-05-22_15h33.20.921,jersey_experiment_5_v1,2023.2.2,Win32,84.74576271,,,,,,,,,,,,,,,,559.7106,561.0046,561.0047,562.487,return,0.5335,,73.56770833,,,,,,FBP-OG-91.png,0.43,1.2,44,0.5,0,45,45,43,1,,,,,,,,,,,,,,,,,,,,,,,,,,,,,,,,,,,,,,,,
,,,,,V1_031,20,Female,2024-05-22_15h33.20.921,jersey_experiment_5_v1,2023.2.2,Win32,84.74576271,,,,,,,,,,,,,,,,562.4872,563.7811,563.7811,564.8048,return,0.4301,,78.125,,,,,,FBP-YG-71.png,0.43,1.2,19,0.5,0,46,46,18,1,,,,,,,,,,,,,,,,,,,,,,,,,,,,,,,,,,,,,,,,
,,,,,V1_031,20,Female,2024-05-22_15h33.20.921,jersey_experiment_5_v1,2023.2.2,Win32,84.74576271,,,,,,,,,,,,,,,,564.8049,566.6049,566.6049,568.9107,return,1.1155,,45.83333333,,,,,,FBP-PT-17.png,0.4,1.2,3,1,0,47,47,2,1,,,,,,,,,,,,,,,,,,,,,,,,,,,,,,,,,,,,,,,,
,,,,,V1_031,20,Female,2024-05-22_15h33.20.921,jersey_experiment_5_v1,2023.2.2,Win32,84.74576271,,,,,,,,,,,,,,,,568.9108,570.2048,570.2048,572.8755,return,0.4608,,25,,,,,,FBP-OG-91.png,0.35,1.2,41,0.5,0,48,48,40,1,,,,,,,,,,,,,,,,,,,,,,,,,,,,,,,,,,,,,,,,
,,,,,V1_031,20,Female,2024-05-22_15h33.20.921,jersey_experiment_5_v1,2023.2.2,Win32,84.74576271,,,,,,,,,,,,,,,,572.8757,574.1698,574.1698,576.5817,return,0.7231,,75,,,,,,FBP-RB-19.png,0.43,1.2,59,0.5,0,49,49,58,1,,,,,,,,,,,,,,,,,,,,,,,,,,,,,,,,,,,,,,,,
,,,,,V1_031,20,Female,2024-05-22_15h33.20.921,jersey_experiment_5_v1,2023.2.2,Win32,84.74576271,,,,,,,,,,,,,,,,576.5819,577.8758,577.8758,581.7113,return,0.4811,,38.41145833,,,,,,FBP-YG-81.png,0.4,1.2,23,0.5,0,50,50,22,1,,,,,,,,,,,,,,,,,,,,,,,,,,,,,,,,,,,,,,,,
,,,,,V1_031,20,Female,2024-05-22_15h33.20.921,jersey_experiment_5_v1,2023.2.2,Win32,84.74576271,,,,,,,,,,,,,,,,581.7115,583.5115,583.5116,585.676,return,0.5312,,26.953125,,,,,,FBP-PT-18.png,0.37,1.2,7,1,0,51,51,6,1,,,,,,,,,,,,,,,,,,,,,,,,,,,,,,,,,,,,,,,,
,,,,,V1_031,20,Female,2024-05-22_15h33.20.921,jersey_experiment_5_v1,2023.2.2,Win32,84.74576271,,,,,,,,,,,,,,,,585.6762,586.9702,586.9702,588.9703,return,0.5317,,50,,,,,,FBP-RB-18.png,0.4,1.2,53,0.5,0,52,52,52,1,,,,,,,,,,,,,,,,,,,,,,,,,,,,,,,,,,,,,,,,
,,,,,V1_031,20,Female,2024-05-22_15h33.20.921,jersey_experiment_5_v1,2023.2.2,Win32,84.74576271,,,,,,,,,,,,,,,,588.9704,590.2645,590.2645,591.9822,return,0.4949,,62.23958333,,,,,,FBP-YG-81.png,0.43,1.2,24,0.5,0,53,53,23,1,,,,,,,,,,,,,,,,,,,,,,,,,,,,,,,,,,,,,,,,
,,,,,V1_031,20,Female,2024-05-22_15h33.20.921,jersey_experiment_5_v1,2023.2.2,Win32,84.74576271,,,,,,,,,,,,,,,,591.9825,593.7824,593.7824,596.841,return,1.5566,,21.484375,,,,,,FBP-PT-18.png,0.35,1.2,6,1,0,54,54,5,1,,,,,,,,,,,,,,,,,,,,,,,,,,,,,,,,,,,,,,,,
,,,,,V1_031,20,Female,2024-05-22_15h33.20.921,jersey_experiment_5_v1,2023.2.2,Win32,84.74576271,,,,,,,,,,,,,,,,596.8412,598.1351,598.1352,599.6412,return,0.4608,,13.28125,,,,,,FBP-RB-17.png,0.35,1.2,46,0.5,0,55,55,45,1,,,,,,,,,,,,,,,,,,,,,,,,,,,,,,,,,,,,,,,,
,,,,,V1_031,20,Female,2024-05-22_15h33.20.921,jersey_experiment_5_v1,2023.2.2,Win32,84.74576271,,,,,,,,,,,,,,,,599.6414,601.4413,601.4413,603.606,return,0.5685,,74.47916667,,,,,,FBP-PT-18.png,0.43,1.2,9,1,0,56,56,8,1,,,,,,,,,,,,,,,,,,,,,,,,,,,,,,,,,,,,,,,,
,,,,,V1_031,20,Female,2024-05-22_15h33.20.921,jersey_experiment_5_v1,2023.2.2,Win32,84.74576271,,,,,,,,,,,,,,,,603.6063,604.9003,604.9003,607.9592,return,0.4541,,38.02083333,,,,,,FBP-RB-18.png,0.37,1.2,52,0.5,0,57,57,51,1,,,,,,,,,,,,,,,,,,,,,,,,,,,,,,,,,,,,,,,,
,,,,,V1_031,20,Female,2024-05-22_15h33.20.921,jersey_experiment_5_v1,2023.2.2,Win32,84.74576271,,,,,,,,,,,,,,,,607.9595,609.2534,609.2534,611.3761,return,0.6489,,75,,,,,,FBP-OG-91.png,0.45,1.2,45,0.5,0,58,58,44,1,,,,,,,,,,,,,,,,,,,,,,,,,,,,,,,,,,,,,,,,
,,,,,V1_031,20,Female,2024-05-22_15h33.20.921,jersey_experiment_5_v1,2023.2.2,Win32,84.74576271,,,,,,,,,,,,,,,,611.3762,613.1747,613.1747,614.7643,return,0.4839,,16.53645833,,,,,,FBP-PT-17.png,0.35,1.2,1,1,0,59,59,0,1,,,,,,,,,,,,,,,,,,,,,,,,,,,,,,,,,,,,,,,,
,,,,,V1_031,20,Female,2024-05-22_15h33.20.921,jersey_experiment_5_v1,2023.2.2,Win32,84.74576271,,,,,,,,,,,,,,,,,,,,,,,,,,,,,,,,,,,,,,,614.7647,734.7759,,,,,,,,,,,,,,,,,,,,,,,,,,,,,,,,,,,,,,
,,,,,V1_031,20,Female,2024-05-22_15h33.20.921,jersey_experiment_5_v1,2023.2.2,Win32,84.74576271,,,,,,,,,,,,,,,,,,,,,,,,,,,,,,,,,,,,,,,,,734.7759,738.2699,return,3.4692,,,,,,,,,,,,,,,,,,,,,,,,,,,,,,,,,,
,,,,,V1_031,20,Female,2024-05-22_15h33.20.921,jersey_experiment_5_v1,2023.2.2,Win32,84.74576271,,,,,,,,,,,,,,,,738.2761,739.5757,739.5758,746.7759,return,1.1793,,49.08854167,,,,,,FBP-PT-81.png,0.43,1.2,9,0.5,,,,,,,,,,,,,0,0,0,8,1,,,,,,,,,,,,,,,,,,,,,,,,,,,,
,,,,,V1_031,20,Female,2024-05-22_15h33.20.921,jersey_experiment_5_v1,2023.2.2,Win32,84.74576271,,,,,,,,,,,,,,,,746.7765,748.5807,748.5807,750.9879,return,1.1296,,53.515625,,,,,,FBP-OG-18.png,0.43,1.2,39,1,,,,,,,,,,,,,0,1,1,38,1,,,,,,,,,,,,,,,,,,,,,,,,,,,,
,,,,,V1_031,20,Female,2024-05-22_15h33.20.921,jersey_experiment_5_v1,2023.2.2,Win32,84.74576271,,,,,,,,,,,,,,,,750.988,752.7925,752.7926,756.7764,return,2.8498,,66.015625,,,,,,FBP-OG-19.png,0.45,1.2,45,1,,,,,,,,,,,,,0,2,2,44,1,,,,,,,,,,,,,,,,,,,,,,,,,,,,
,,,,,V1_031,20,Female,2024-05-22_15h33.20.921,jersey_experiment_5_v1,2023.2.2,Win32,84.74576271,,,,,,,,,,,,,,,,756.7766,758.5812,758.5812,760.4978,return,0.6225,,24.86979167,,,,,,FBP-YG-18.png,0.37,1.2,22,1,,,,,,,,,,,,,0,3,3,21,1,,,,,,,,,,,,,,,,,,,,,,,,,,,,
,,,,,V1_031,20,Female,2024-05-22_15h33.20.921,jersey_experiment_5_v1,2023.2.2,Win32,84.74576271,,,,,,,,,,,,,,,,760.4979,762.2942,762.2942,768.8591,return,4.6234,,61.06770833,,,,,,FBP-RB-81.png,0.43,1.2,54,1,,,,,,,,,,,,,0,4,4,53,1,,,,,,,,,,,,,,,,,,,,,,,,,,,,
,,,,,V1_031,20,Female,2024-05-22_15h33.20.921,jersey_experiment_5_v1,2023.2.2,Win32,84.74576271,,,,,,,,,,,,,,,,768.8592,770.1578,770.1578,779.0947,return,4.4867,,27.99479167,,,,,,FBP-PT-71.png,0.37,1.2,2,0.5,,,,,,,,,,,,,0,5,5,1,1,,,,,,,,,,,,,,,,,,,,,,,,,,,,
,,,,,V1_031,20,Female,2024-05-22_15h33.20.921,jersey_experiment_5_v1,2023.2.2,Win32,84.74576271,,,,,,,,,,,,,,,,779.0991,780.4041,780.4041,783.0949,return,0.557,,7.8125,,,,,,FBP-PT-91.png,0.35,1.2,11,0.5,,,,,,,,,,,,,0,6,6,10,1,,,,,,,,,,,,,,,,,,,,,,,,,,,,
,,,,,V1_031,20,Female,2024-05-22_15h33.20.921,jersey_experiment_5_v1,2023.2.2,Win32,84.74576271,,,,,,,,,,,,,,,,783.095,784.8878,784.8878,787.1773,return,0.5186,,24.86979167,,,,,,FBP-RB-71.png,0.37,1.2,47,1,,,,,,,,,,,,,0,7,7,46,1,,,,,,,,,,,,,,,,,,,,,,,,,,,,
,,,,,V1_031,20,Female,2024-05-22_15h33.20.921,jersey_experiment_5_v1,2023.2.2,Win32,84.74576271,,,,,,,,,,,,,,,,787.1775,788.9774,788.9775,791.2599,return,0.9757,,53.515625,,,,,,FBP-YG-19.png,0.4,1.2,28,1,,,,,,,,,,,,,0,8,8,27,1,,,,,,,,,,,,,,,,,,,,,,,,,,,,
,,,,,V1_031,20,Female,2024-05-22_15h33.20.921,jersey_experiment_5_v1,2023.2.2,Win32,84.74576271,,,,,,,,,,,,,,,,791.2601,793.0527,793.0527,794.7423,return,0.5104,,25.26041667,,,,,,FBP-OG-19.png,0.35,1.2,41,1,,,,,,,,,,,,,0,9,9,40,1,,,,,,,,,,,,,,,,,,,,,,,,,,,,
,,,,,V1_031,20,Female,2024-05-22_15h33.20.921,jersey_experiment_5_v1,2023.2.2,Win32,84.74576271,,,,,,,,,,,,,,,,794.7426,796.5355,796.5356,798.119,return,0.464,,72.52604167,,,,,,FBP-RB-91.png,0.43,1.2,59,1,,,,,,,,,,,,,0,10,10,58,1,,,,,,,,,,,,,,,,,,,,,,,,,,,,
,,,,,V1_031,20,Female,2024-05-22_15h33.20.921,jersey_experiment_5_v1,2023.2.2,Win32,84.74576271,,,,,,,,,,,,,,,,798.1191,799.9235,799.9236,801.6179,return,0.706,,41.92708333,,,,,,FBP-YG-17.png,0.37,1.2,17,1,,,,,,,,,,,,,0,11,11,16,1,,,,,,,,,,,,,,,,,,,,,,,,,,,,
,,,,,V1_031,20,Female,2024-05-22_15h33.20.921,jersey_experiment_5_v1,2023.2.2,Win32,84.74576271,,,,,,,,,,,,,,,,801.6181,803.4133,803.4133,805.9427,return,0.829,,71.35416667,,,,,,FBP-YG-17.png,0.4,1.2,18,1,,,,,,,,,,,,,0,12,12,17,1,,,,,,,,,,,,,,,,,,,,,,,,,,,,
,,,,,V1_031,20,Female,2024-05-22_15h33.20.921,jersey_experiment_5_v1,2023.2.2,Win32,84.74576271,,,,,,,,,,,,,,,,805.9429,807.7462,807.7462,808.9461,return,0.5518,,74.08854167,,,,,,FBP-OG-19.png,0.43,1.2,44,1,,,,,,,,,,,,,0,13,13,43,1,,,,,,,,,,,,,,,,,,,,,,,,,,,,
,,,,,V1_031,20,Female,2024-05-22_15h33.20.921,jersey_experiment_5_v1,2023.2.2,Win32,84.74576271,,,,,,,,,,,,,,,,808.9462,810.7431,810.7431,812.6372,return,0.4472,,50.13020833,,,,,,FBP-RB-81.png,0.37,1.2,52,1,,,,,,,,,,,,,0,14,14,51,1,,,,,,,,,,,,,,,,,,,,,,,,,,,,
,,,,,V1_031,20,Female,2024-05-22_15h33.20.921,jersey_experiment_5_v1,2023.2.2,Win32,84.74576271,,,,,,,,,,,,,,,,812.6373,814.4421,814.4421,815.548,return,0.4474,,28.64583333,,,,,,FBP-RB-81.png,0.35,1.2,51,1,,,,,,,,,,,,,0,15,15,50,1,,,,,,,,,,,,,,,,,,,,,,,,,,,,
,,,,,V1_031,20,Female,2024-05-22_15h33.20.921,jersey_experiment_5_v1,2023.2.2,Win32,84.74576271,,,,,,,,,,,,,,,,815.5481,817.3463,817.3463,829.4493,return,10.8135,,70.3125,,,,,,FBP-YG-19.png,0.43,1.2,29,1,,,,,,,,,,,,,0,16,16,28,1,,,,,,,,,,,,,,,,,,,,,,,,,,,,
,,,,,V1_031,20,Female,2024-05-22_15h33.20.921,jersey_experiment_5_v1,2023.2.2,Win32,84.74576271,,,,,,,,,,,,,,,,829.454,831.2528,831.2528,833.6849,return,0.5588,,25,,,,,,FBP-RB-71.png,0.35,1.2,46,1,,,,,,,,,,,,,0,17,17,45,1,,,,,,,,,,,,,,,,,,,,,,,,,,,,
,,,,,V1_031,20,Female,2024-05-22_15h33.20.921,jersey_experiment_5_v1,2023.2.2,Win32,84.74576271,,,,,,,,,,,,,,,,833.685,835.478,835.478,837.7204,return,1.2732,,18.61979167,,,,,,FBP-YG-19.png,0.35,1.2,26,1,,,,,,,,,,,,,0,18,18,25,1,,,,,,,,,,,,,,,,,,,,,,,,,,,,
,,,,,V1_031,20,Female,2024-05-22_15h33.20.921,jersey_experiment_5_v1,2023.2.2,Win32,84.74576271,,,,,,,,,,,,,,,,837.7207,839.0144,839.0144,842.5559,return,0.4946,,24.86979167,,,,,,FBP-PT-81.png,0.37,1.2,7,0.5,,,,,,,,,,,,,0,19,19,6,1,,,,,,,,,,,,,,,,,,,,,,,,,,,,
,,,,,V1_031,20,Female,2024-05-22_15h33.20.921,jersey_experiment_5_v1,2023.2.2,Win32,84.74576271,,,,,,,,,,,,,,,,842.556,844.3488,844.3488,846.7124,return,1.1637,,52.47395833,,,,,,FBP-RB-71.png,0.4,1.2,48,1,,,,,,,,,,,,,0,20,20,47,1,,,,,,,,,,,,,,,,,,,,,,,,,,,,
,,,,,V1_031,20,Female,2024-05-22_15h33.20.921,jersey_experiment_5_v1,2023.2.2,Win32,84.74576271,,,,,,,,,,,,,,,,846.7126,848.5136,848.5136,850.1798,return,0.725,,48.30729167,,,,,,FBP-OG-19.png,0.37,1.2,42,1,,,,,,,,,,,,,0,21,21,41,1,,,,,,,,,,,,,,,,,,,,,,,,,,,,
,,,,,V1_031,20,Female,2024-05-22_15h33.20.921,jersey_experiment_5_v1,2023.2.2,Win32,84.74576271,,,,,,,,,,,,,,,,850.18,851.4738,851.4738,873.4428,return,0.5652,,28.515625,,,,,,FBP-PT-71.png,0.43,1.2,4,0.5,,,,,,,,,,,,,0,22,22,3,1,,,,,,,,,,,,,,,,,,,,,,,,,,,,
,,,,,V1_031,20,Female,2024-05-22_15h33.20.921,jersey_experiment_5_v1,2023.2.2,Win32,84.74576271,,,,,,,,,,,,,,,,873.443,875.2395,875.2395,877.0511,return,0.5426,,51.82291667,,,,,,FBP-OG-17.png,0.4,1.2,33,1,,,,,,,,,,,,,0,23,23,32,1,,,,,,,,,,,,,,,,,,,,,,,,,,,,
,,,,,V1_031,20,Female,2024-05-22_15h33.20.921,jersey_experiment_5_v1,2023.2.2,Win32,84.74576271,,,,,,,,,,,,,,,,877.0512,878.8548,878.8548,880.0866,return,0.4057,,74.47916667,,,,,,FBP-OG-17.png,0.45,1.2,35,1,,,,,,,,,,,,,0,24,24,34,1,,,,,,,,,,,,,,,,,,,,,,,,,,,,
,,,,,V1_031,20,Female,2024-05-22_15h33.20.921,jersey_experiment_5_v1,2023.2.2,Win32,84.74576271,,,,,,,,,,,,,,,,880.0868,881.8796,881.8796,884.3738,return,1.6943,,24.73958333,,,,,,FBP-OG-17.png,0.37,1.2,32,1,,,,,,,,,,,,,0,25,25,31,1,,,,,,,,,,,,,,,,,,,,,,,,,,,,
,,,,,V1_031,20,Female,2024-05-22_15h33.20.921,jersey_experiment_5_v1,2023.2.2,Win32,84.74576271,,,,,,,,,,,,,,,,884.374,886.1727,886.1727,888.6671,return,1.8461,,8.072916667,,,,,,FBP-OG-18.png,0.35,1.2,36,1,,,,,,,,,,,,,0,26,26,35,1,,,,,,,,,,,,,,,,,,,,,,,,,,,,
,,,,,V1_031,20,Female,2024-05-22_15h33.20.921,jersey_experiment_5_v1,2023.2.2,Win32,84.74576271,,,,,,,,,,,,,,,,888.6672,890.4634,890.4634,895.2754,return,2.3769,,25.13020833,,,,,,FBP-YG-19.png,0.37,1.2,27,1,,,,,,,,,,,,,0,27,27,26,1,,,,,,,,,,,,,,,,,,,,,,,,,,,,
,,,,,V1_031,20,Female,2024-05-22_15h33.20.921,jersey_experiment_5_v1,2023.2.2,Win32,84.74576271,,,,,,,,,,,,,,,,895.2756,896.5696,896.5697,899.9109,return,1.9332,,75.13020833,,,,,,FBP-PT-81.png,0.45,1.2,10,0.5,,,,,,,,,,,,,0,28,28,9,1,,,,,,,,,,,,,,,,,,,,,,,,,,,,
,,,,,V1_031,20,Female,2024-05-22_15h33.20.921,jersey_experiment_5_v1,2023.2.2,Win32,84.74576271,,,,,,,,,,,,,,,,899.9111,901.7155,901.7155,902.6639,return,0.5337,,80.59895833,,,,,,FBP-YG-18.png,0.43,1.2,24,1,,,,,,,,,,,,,0,29,29,23,1,,,,,,,,,,,,,,,,,,,,,,,,,,,,
,,,,,V1_031,20,Female,2024-05-22_15h33.20.921,jersey_experiment_5_v1,2023.2.2,Win32,84.74576271,,,,,,,,,,,,,,,,902.664,903.958,903.958,905.8523,return,0.3871,,36.328125,,,,,,FBP-PT-91.png,0.37,1.2,12,0.5,,,,,,,,,,,,,0,30,30,11,1,,,,,,,,,,,,,,,,,,,,,,,,,,,,
,,,,,V1_031,20,Female,2024-05-22_15h33.20.921,jersey_experiment_5_v1,2023.2.2,Win32,84.74576271,,,,,,,,,,,,,,,,905.8525,907.6524,907.6524,909.4572,return,0.6121,,75.65104167,,,,,,FBP-RB-81.png,0.45,1.2,55,1,,,,,,,,,,,,,0,31,31,54,1,,,,,,,,,,,,,,,,,,,,,,,,,,,,
,,,,,V1_031,20,Female,2024-05-22_15h33.20.921,jersey_experiment_5_v1,2023.2.2,Win32,84.74576271,,,,,,,,,,,,,,,,909.4573,911.2555,911.2555,912.3936,return,0.2616,,50.13020833,,,,,,FBP-OG-19.png,0.4,1.2,43,1,,,,,,,,,,,,,0,32,32,42,1,,,,,,,,,,,,,,,,,,,,,,,,,,,,
,,,,,V1_031,20,Female,2024-05-22_15h33.20.921,jersey_experiment_5_v1,2023.2.2,Win32,84.74576271,,,,,,,,,,,,,,,,912.3938,914.1868,914.1868,915.6407,return,0.5313,,68.09895833,,,,,,FBP-OG-18.png,0.45,1.2,40,1,,,,,,,,,,,,,0,33,33,39,1,,,,,,,,,,,,,,,,,,,,,,,,,,,,
,,,,,V1_031,20,Female,2024-05-22_15h33.20.921,jersey_experiment_5_v1,2023.2.2,Win32,84.74576271,,,,,,,,,,,,,,,,915.6408,917.4337,917.4337,920.3587,return,1.9099,,50.13020833,,,,,,FBP-RB-91.png,0.37,1.2,57,1,,,,,,,,,,,,,0,34,34,56,1,,,,,,,,,,,,,,,,,,,,,,,,,,,,
,,,,,V1_031,20,Female,2024-05-22_15h33.20.921,jersey_experiment_5_v1,2023.2.2,Win32,84.74576271,,,,,,,,,,,,,,,,920.3589,922.1503,922.1504,923.4058,return,0.3162,,75.13020833,,,,,,FBP-YG-18.png,0.45,1.2,25,1,,,,,,,,,,,,,0,35,35,24,1,,,,,,,,,,,,,,,,,,,,,,,,,,,,
,,,,,V1_031,20,Female,2024-05-22_15h33.20.921,jersey_experiment_5_v1,2023.2.2,Win32,84.74576271,,,,,,,,,,,,,,,,923.406,925.1988,925.1988,927.3707,return,0.329,,56.11979167,,,,,,FBP-RB-81.png,0.4,1.2,53,1,,,,,,,,,,,,,0,36,36,52,1,,,,,,,,,,,,,,,,,,,,,,,,,,,,
,,,,,V1_031,20,Female,2024-05-22_15h33.20.921,jersey_experiment_5_v1,2023.2.2,Win32,84.74576271,,,,,,,,,,,,,,,,927.3709,929.1626,929.1626,930.7473,return,0.4355,,38.15104167,,,,,,FBP-OG-18.png,0.37,1.2,37,1,,,,,,,,,,,,,0,37,37,36,1,,,,,,,,,,,,,,,,,,,,,,,,,,,,
,,,,,V1_031,20,Female,2024-05-22_15h33.20.921,jersey_experiment_5_v1,2023.2.2,Win32,84.74576271,,,,,,,,,,,,,,,,930.7476,932.046,932.046,933.5993,return,0.4004,,49.86979167,,,,,,FBP-PT-71.png,0.4,1.2,3,0.5,,,,,,,,,,,,,0,38,38,2,1,,,,,,,,,,,,,,,,,,,,,,,,,,,,
,,,,,V1_031,20,Female,2024-05-22_15h33.20.921,jersey_experiment_5_v1,2023.2.2,Win32,84.74576271,,,,,,,,,,,,,,,,933.5995,935.3979,935.3979,936.3995,return,0.259,,24.609375,,,,,,FBP-OG-17.png,0.35,1.2,31,1,,,,,,,,,,,,,0,39,39,30,1,,,,,,,,,,,,,,,,,,,,,,,,,,,,
,,,,,V1_031,20,Female,2024-05-22_15h33.20.921,jersey_experiment_5_v1,2023.2.2,Win32,84.74576271,,,,,,,,,,,,,,,,936.3997,938.1982,938.1982,940.0535,return,0.6774,,74.86979167,,,,,,FBP-RB-91.png,0.45,1.2,60,1,,,,,,,,,,,,,0,40,40,59,1,,,,,,,,,,,,,,,,,,,,,,,,,,,,
,,,,,V1_031,20,Female,2024-05-22_15h33.20.921,jersey_experiment_5_v1,2023.2.2,Win32,84.74576271,,,,,,,,,,,,,,,,940.0537,941.8581,941.8581,942.9407,return,0.272,,63.15104167,,,,,,FBP-RB-91.png,0.4,1.2,58,1,,,,,,,,,,,,,0,41,41,57,1,,,,,,,,,,,,,,,,,,,,,,,,,,,,
,,,,,V1_031,20,Female,2024-05-22_15h33.20.921,jersey_experiment_5_v1,2023.2.2,Win32,84.74576271,,,,,,,,,,,,,,,,942.941,944.7394,944.7394,945.9759,return,0.3428,,76.953125,,,,,,FBP-YG-17.png,0.43,1.2,19,1,,,,,,,,,,,,,0,42,42,18,1,,,,,,,,,,,,,,,,,,,,,,,,,,,,
,,,,,V1_031,20,Female,2024-05-22_15h33.20.921,jersey_experiment_5_v1,2023.2.2,Win32,84.74576271,,,,,,,,,,,,,,,,945.9761,947.7745,947.7745,949.482,return,0.8235,,24.47916667,,,,,,FBP-YG-17.png,0.35,1.2,16,1,,,,,,,,,,,,,0,43,43,15,1,,,,,,,,,,,,,,,,,,,,,,,,,,,,
,,,,,V1_031,20,Female,2024-05-22_15h33.20.921,jersey_experiment_5_v1,2023.2.2,Win32,84.74576271,,,,,,,,,,,,,,,,949.4823,951.2775,951.2775,952.2117,return,0.2958,,24.86979167,,,,,,FBP-YG-18.png,0.35,1.2,21,1,,,,,,,,,,,,,0,44,44,20,1,,,,,,,,,,,,,,,,,,,,,,,,,,,,
,,,,,V1_031,20,Female,2024-05-22_15h33.20.921,jersey_experiment_5_v1,2023.2.2,Win32,84.74576271,,,,,,,,,,,,,,,,952.2118,954.007,954.007,956.2353,return,0.2958,,75.13020833,,,,,,FBP-YG-19.png,0.45,1.2,30,1,,,,,,,,,,,,,0,45,45,29,1,,,,,,,,,,,,,,,,,,,,,,,,,,,,
,,,,,V1_031,20,Female,2024-05-22_15h33.20.921,jersey_experiment_5_v1,2023.2.2,Win32,84.74576271,,,,,,,,,,,,,,,,956.2355,958.0307,958.0308,959.153,return,0.3296,,80.078125,,,,,,FBP-RB-71.png,0.45,1.2,50,1,,,,,,,,,,,,,0,46,46,49,1,,,,,,,,,,,,,,,,,,,,,,,,,,,,
,,,,,V1_031,20,Female,2024-05-22_15h33.20.921,jersey_experiment_5_v1,2023.2.2,Win32,84.74576271,,,,,,,,,,,,,,,,959.1531,960.4573,960.4573,962.1519,return,0.5888,,50,,,,,,FBP-PT-91.png,0.4,1.2,13,0.5,,,,,,,,,,,,,0,47,47,12,1,,,,,,,,,,,,,,,,,,,,,,,,,,,,
,,,,,V1_031,20,Female,2024-05-22_15h33.20.921,jersey_experiment_5_v1,2023.2.2,Win32,84.74576271,,,,,,,,,,,,,,,,962.152,963.9532,963.9533,968.8544,return,2.4175,,51.82291667,,,,,,FBP-YG-18.png,0.4,1.2,23,1,,,,,,,,,,,,,0,48,48,22,1,,,,,,,,,,,,,,,,,,,,,,,,,,,,
,,,,,V1_031,20,Female,2024-05-22_15h33.20.921,jersey_experiment_5_v1,2023.2.2,Win32,84.74576271,,,,,,,,,,,,,,,,968.8547,970.6463,970.6463,971.6076,return,0.4167,,77.86458333,,,,,,FBP-YG-17.png,0.45,1.2,20,1,,,,,,,,,,,,,0,49,49,19,1,,,,,,,,,,,,,,,,,,,,,,,,,,,,
,,,,,V1_031,20,Female,2024-05-22_15h33.20.921,jersey_experiment_5_v1,2023.2.2,Win32,84.74576271,,,,,,,,,,,,,,,,971.6078,973.4076,973.4077,975.2712,return,0.2827,,58.85416667,,,,,,FBP-RB-71.png,0.43,1.2,49,1,,,,,,,,,,,,,0,50,50,48,1,,,,,,,,,,,,,,,,,,,,,,,,,,,,
,,,,,V1_031,20,Female,2024-05-22_15h33.20.921,jersey_experiment_5_v1,2023.2.2,Win32,84.74576271,,,,,,,,,,,,,,,,975.2714,976.5724,976.5725,978.2126,return,0.8708,,44.01041667,,,,,,FBP-PT-71.png,0.35,1.2,1,0.5,,,,,,,,,,,,,0,51,51,0,1,,,,,,,,,,,,,,,,,,,,,,,,,,,,
,,,,,V1_031,20,Female,2024-05-22_15h33.20.921,jersey_experiment_5_v1,2023.2.2,Win32,84.74576271,,,,,,,,,,,,,,,,978.2128,979.5065,979.5065,981.1643,return,0.5181,,77.86458333,,,,,,FBP-PT-91.png,0.45,1.2,15,0.5,,,,,,,,,,,,,0,52,52,14,1,,,,,,,,,,,,,,,,,,,,,,,,,,,,
,,,,,V1_031,20,Female,2024-05-22_15h33.20.921,jersey_experiment_5_v1,2023.2.2,Win32,84.74576271,,,,,,,,,,,,,,,,981.1644,982.4712,982.4712,984.7257,return,0.4872,,86.19791667,,,,,,FBP-PT-71.png,0.45,1.2,5,0.5,,,,,,,,,,,,,0,53,53,4,1,,,,,,,,,,,,,,,,,,,,,,,,,,,,
,,,,,V1_031,20,Female,2024-05-22_15h33.20.921,jersey_experiment_5_v1,2023.2.2,Win32,84.74576271,,,,,,,,,,,,,,,,984.7259,986.0197,986.0197,986.7543,return,0.3197,,86.19791667,,,,,,FBP-PT-91.png,0.43,1.2,14,0.5,,,,,,,,,,,,,0,54,54,13,1,,,,,,,,,,,,,,,,,,,,,,,,,,,,
,,,,,V1_031,20,Female,2024-05-22_15h33.20.921,jersey_experiment_5_v1,2023.2.2,Win32,84.74576271,,,,,,,,,,,,,,,,986.7545,988.0481,988.0481,989.6484,return,0.2484,,25.26041667,,,,,,FBP-PT-81.png,0.35,1.2,6,0.5,,,,,,,,,,,,,0,55,55,5,1,,,,,,,,,,,,,,,,,,,,,,,,,,,,
,,,,,V1_031,20,Female,2024-05-22_15h33.20.921,jersey_experiment_5_v1,2023.2.2,Win32,84.74576271,,,,,,,,,,,,,,,,989.6485,990.9529,990.9529,992.6234,return,0.306,,43.88020833,,,,,,FBP-PT-81.png,0.4,1.2,8,0.5,,,,,,,,,,,,,0,56,56,7,1,,,,,,,,,,,,,,,,,,,,,,,,,,,,
,,,,,V1_031,20,Female,2024-05-22_15h33.20.921,jersey_experiment_5_v1,2023.2.2,Win32,84.74576271,,,,,,,,,,,,,,,,992.6235,994.4249,994.4249,998.3546,return,0.8372,,19.79166667,,,,,,FBP-RB-91.png,0.35,1.2,56,1,,,,,,,,,,,,,0,57,57,55,1,,,,,,,,,,,,,,,,,,,,,,,,,,,,
,,,,,V1_031,20,Female,2024-05-22_15h33.20.921,jersey_experiment_5_v1,2023.2.2,Win32,84.74576271,,,,,,,,,,,,,,,,998.3548,1000.1532,1000.1532,1002.197,return,0.5943,,49.21875,,,,,,FBP-OG-18.png,0.4,1.2,38,1,,,,,,,,,,,,,0,58,58,37,1,,,,,,,,,,,,,,,,,,,,,,,,,,,,
,,,,,V1_031,20,Female,2024-05-22_15h33.20.921,jersey_experiment_5_v1,2023.2.2,Win32,84.74576271,,,,,,,,,,,,,,,,1002.1971,1004.0016,1004.0016,1006.1194,return,0.4604,,63.15104167,,,,,,FBP-OG-17.png,0.43,1.2,34,1,,,,,,,,,,,,,0,59,59,33,1,,,,,,,,,,,,,,,,,,,,,,,,,,,,
,,,,,V1_031,20,Female,2024-05-22_15h33.20.921,jersey_experiment_5_v1,2023.2.2,Win32,84.74576271,,,,,,,,,,,,,,,,1006.1214,1007.4237,1007.4238,1010.1669,return,0.8004,,26.953125,,,,,,FBP-PT-19.png,0.35,1.2,11,0.5,,,,,,,,,,,,,,,,,,0,0,0,10,1,,,,,,,,,,,,,,,,,,,,,,,
,,,,,V1_031,20,Female,2024-05-22_15h33.20.921,jersey_experiment_5_v1,2023.2.2,Win32,84.74576271,,,,,,,,,,,,,,,,1010.1672,1011.9619,1011.962,1014.0964,return,0.5416,,49.47916667,,,,,,FBP-OG-71.png,0.4,1.2,33,1,,,,,,,,,,,,,,,,,,0,1,1,32,1,,,,,,,,,,,,,,,,,,,,,,,
,,,,,V1_031,20,Female,2024-05-22_15h33.20.921,jersey_experiment_5_v1,2023.2.2,Win32,84.74576271,,,,,,,,,,,,,,,,1014.0966,1015.3904,1015.3904,1017.6563,return,0.7212,,24.34895833,,,,,,FBP-PT-18.png,0.35,1.2,6,0.5,,,,,,,,,,,,,,,,,,0,2,2,5,1,,,,,,,,,,,,,,,,,,,,,,,
,,,,,V1_031,20,Female,2024-05-22_15h33.20.921,jersey_experiment_5_v1,2023.2.2,Win32,84.74576271,,,,,,,,,,,,,,,,1017.6566,1019.4611,1019.4611,1020.9859,return,0.5435,,51.171875,,,,,,FBP-OG-91.png,0.43,1.2,44,1,,,,,,,,,,,,,,,,,,0,3,3,43,1,,,,,,,,,,,,,,,,,,,,,,,
,,,,,V1_031,20,Female,2024-05-22_15h33.20.921,jersey_experiment_5_v1,2023.2.2,Win32,84.74576271,,,,,,,,,,,,,,,,1020.9861,1022.7785,1022.7786,1025.7507,return,1.416,,30.46875,,,,,,FBP-YG-91.png,0.37,1.2,27,1,,,,,,,,,,,,,,,,,,0,4,4,26,1,,,,,,,,,,,,,,,,,,,,,,,
,,,,,V1_031,20,Female,2024-05-22_15h33.20.921,jersey_experiment_5_v1,2023.2.2,Win32,84.74576271,,,,,,,,,,,,,,,,1025.7509,1027.5425,1027.5425,1029.4615,return,1.143,,53.90625,,,,,,FBP-YG-71.png,0.43,1.2,19,1,,,,,,,,,,,,,,,,,,0,5,5,18,1,,,,,,,,,,,,,,,,,,,,,,,
,,,,,V1_031,20,Female,2024-05-22_15h33.20.921,jersey_experiment_5_v1,2023.2.2,Win32,84.74576271,,,,,,,,,,,,,,,,1029.4617,1031.2568,1031.2569,1033.6603,return,0.9751,,38.54166667,,,,,,FBP-OG-91.png,0.37,1.2,42,1,,,,,,,,,,,,,,,,,,0,6,6,41,1,,,,,,,,,,,,,,,,,,,,,,,
,,,,,V1_031,20,Female,2024-05-22_15h33.20.921,jersey_experiment_5_v1,2023.2.2,Win32,84.74576271,,,,,,,,,,,,,,,,1033.6604,1035.4616,1035.4616,1036.6804,return,0.5679,,27.86458333,,,,,,FBP-RB-19.png,0.35,1.2,56,1,,,,,,,,,,,,,,,,,,0,7,7,55,1,,,,,,,,,,,,,,,,,,,,,,,
,,,,,V1_031,20,Female,2024-05-22_15h33.20.921,jersey_experiment_5_v1,2023.2.2,Win32,84.74576271,,,,,,,,,,,,,,,,1036.6806,1038.484,1038.484,1040.2018,return,0.5991,,27.08333333,,,,,,FBP-OG-81.png,0.37,1.2,37,1,,,,,,,,,,,,,,,,,,0,8,8,36,1,,,,,,,,,,,,,,,,,,,,,,,
,,,,,V1_031,20,Female,2024-05-22_15h33.20.921,jersey_experiment_5_v1,2023.2.2,Win32,84.74576271,,,,,,,,,,,,,,,,1040.202,1041.509,1041.509,1043.768,return,0.659,,71.35416667,,,,,,FBP-PT-18.png,0.45,1.2,10,0.5,,,,,,,,,,,,,,,,,,0,9,9,9,1,,,,,,,,,,,,,,,,,,,,,,,
,,,,,V1_031,20,Female,2024-05-22_15h33.20.921,jersey_experiment_5_v1,2023.2.2,Win32,84.74576271,,,,,,,,,,,,,,,,1043.7682,1045.5632,1045.5632,1048.3431,return,0.7531,,43.22916667,,,,,,FBP-RB-18.png,0.35,1.2,51,1,,,,,,,,,,,,,,,,,,0,10,10,50,1,,,,,,,,,,,,,,,,,,,,,,,
,,,,,V1_031,20,Female,2024-05-22_15h33.20.921,jersey_experiment_5_v1,2023.2.2,Win32,84.74576271,,,,,,,,,,,,,,,,1048.3433,1050.1447,1050.1447,1053.6741,return,1.0722,,69.27083333,,,,,,FBP-OG-91.png,0.45,1.2,45,1,,,,,,,,,,,,,,,,,,0,11,11,44,1,,,,,,,,,,,,,,,,,,,,,,,
,,,,,V1_031,20,Female,2024-05-22_15h33.20.921,jersey_experiment_5_v1,2023.2.2,Win32,84.74576271,,,,,,,,,,,,,,,,1053.6743,1055.4697,1055.4697,1056.846,return,0.6119,,74.08854167,,,,,,FBP-RB-19.png,0.43,1.2,59,1,,,,,,,,,,,,,,,,,,0,12,12,58,1,,,,,,,,,,,,,,,,,,,,,,,
,,,,,V1_031,20,Female,2024-05-22_15h33.20.921,jersey_experiment_5_v1,2023.2.2,Win32,84.74576271,,,,,,,,,,,,,,,,1056.8461,1058.6461,1058.6461,1060.9873,return,0.5421,,50.13020833,,,,,,FBP-RB-19.png,0.4,1.2,58,1,,,,,,,,,,,,,,,,,,0,13,13,57,1,,,,,,,,,,,,,,,,,,,,,,,
,,,,,V1_031,20,Female,2024-05-22_15h33.20.921,jersey_experiment_5_v1,2023.2.2,Win32,84.74576271,,,,,,,,,,,,,,,,1060.9875,1062.2861,1062.2862,1063.7874,return,0.542,,64.58333333,,,,,,FBP-PT-17.png,0.45,1.2,5,0.5,,,,,,,,,,,,,,,,,,0,14,14,4,1,,,,,,,,,,,,,,,,,,,,,,,
,,,,,V1_031,20,Female,2024-05-22_15h33.20.921,jersey_experiment_5_v1,2023.2.2,Win32,84.74576271,,,,,,,,,,,,,,,,1063.7877,1065.0862,1065.0862,1066.9451,return,0.8131,,64.453125,,,,,,FBP-PT-19.png,0.45,1.2,15,0.5,,,,,,,,,,,,,,,,,,0,15,15,14,1,,,,,,,,,,,,,,,,,,,,,,,
,,,,,V1_031,20,Female,2024-05-22_15h33.20.921,jersey_experiment_5_v1,2023.2.2,Win32,84.74576271,,,,,,,,,,,,,,,,1066.9453,1068.2498,1068.2498,1069.7926,return,0.5411,,37.23958333,,,,,,FBP-PT-17.png,0.4,1.2,3,0.5,,,,,,,,,,,,,,,,,,0,16,16,2,1,,,,,,,,,,,,,,,,,,,,,,,
,,,,,V1_031,20,Female,2024-05-22_15h33.20.921,jersey_experiment_5_v1,2023.2.2,Win32,84.74576271,,,,,,,,,,,,,,,,1069.7926,1071.5908,1071.5908,1072.8465,return,0.3868,,62.23958333,,,,,,FBP-RB-18.png,0.43,1.2,54,1,,,,,,,,,,,,,,,,,,0,17,17,53,1,,,,,,,,,,,,,,,,,,,,,,,
,,,,,V1_031,20,Female,2024-05-22_15h33.20.921,jersey_experiment_5_v1,2023.2.2,Win32,84.74576271,,,,,,,,,,,,,,,,1072.8466,1074.6466,1074.6466,1076.1879,return,0.4345,,75,,,,,,FBP-RB-17.png,0.45,1.2,50,1,,,,,,,,,,,,,,,,,,0,18,18,49,1,,,,,,,,,,,,,,,,,,,,,,,
,,,,,V1_031,20,Female,2024-05-22_15h33.20.921,jersey_experiment_5_v1,2023.2.2,Win32,84.74576271,,,,,,,,,,,,,,,,1076.188,1077.988,1077.988,1079.262,return,0.2932,,74.86979167,,,,,,FBP-RB-18.png,0.45,1.2,55,1,,,,,,,,,,,,,,,,,,0,19,19,54,1,,,,,,,,,,,,,,,,,,,,,,,
,,,,,V1_031,20,Female,2024-05-22_15h33.20.921,jersey_experiment_5_v1,2023.2.2,Win32,84.74576271,,,,,,,,,,,,,,,,1079.2622,1080.5645,1080.5645,1082.5093,return,0.8238,,75.390625,,,,,,FBP-PT-17.png,0.43,1.2,4,0.5,,,,,,,,,,,,,,,,,,0,20,20,3,1,,,,,,,,,,,,,,,,,,,,,,,
,,,,,V1_031,20,Female,2024-05-22_15h33.20.921,jersey_experiment_5_v1,2023.2.2,Win32,84.74576271,,,,,,,,,,,,,,,,1082.5094,1084.3058,1084.3058,1085.8872,return,0.4133,,64.19270833,,,,,,FBP-YG-91.png,0.43,1.2,29,1,,,,,,,,,,,,,,,,,,0,21,21,28,1,,,,,,,,,,,,,,,,,,,,,,,
,,,,,V1_031,20,Female,2024-05-22_15h33.20.921,jersey_experiment_5_v1,2023.2.2,Win32,84.74576271,,,,,,,,,,,,,,,,1085.8873,1087.6824,1087.6824,1089.4001,return,0.7455,,76.30208333,,,,,,FBP-OG-81.png,0.45,1.2,40,1,,,,,,,,,,,,,,,,,,0,22,22,39,1,,,,,,,,,,,,,,,,,,,,,,,
,,,,,V1_031,20,Female,2024-05-22_15h33.20.921,jersey_experiment_5_v1,2023.2.2,Win32,84.74576271,,,,,,,,,,,,,,,,1089.4003,1091.2001,1091.2001,1093.7649,return,0.5722,,24.73958333,,,,,,FBP-YG-71.png,0.35,1.2,16,1,,,,,,,,,,,,,,,,,,0,23,23,15,1,,,,,,,,,,,,,,,,,,,,,,,
,,,,,V1_031,20,Female,2024-05-22_15h33.20.921,jersey_experiment_5_v1,2023.2.2,Win32,84.74576271,,,,,,,,,,,,,,,,1093.7651,1095.565,1095.5651,1097.7416,return,0.3056,,29.16666667,,,,,,FBP-OG-71.png,0.37,1.2,32,1,,,,,,,,,,,,,,,,,,0,24,24,31,1,,,,,,,,,,,,,,,,,,,,,,,
,,,,,V1_031,20,Female,2024-05-22_15h33.20.921,jersey_experiment_5_v1,2023.2.2,Win32,84.74576271,,,,,,,,,,,,,,,,1097.7418,1099.5345,1099.5345,1101.6289,return,0.8238,,82.29166667,,,,,,FBP-YG-81.png,0.45,1.2,25,1,,,,,,,,,,,,,,,,,,0,25,25,24,1,,,,,,,,,,,,,,,,,,,,,,,
,,,,,V1_031,20,Female,2024-05-22_15h33.20.921,jersey_experiment_5_v1,2023.2.2,Win32,84.74576271,,,,,,,,,,,,,,,,1101.6291,1102.9227,1102.9227,1104.6712,return,0.3529,,25.52083333,,,,,,FBP-PT-17.png,0.37,1.2,2,0.5,,,,,,,,,,,,,,,,,,0,26,26,1,1,,,,,,,,,,,,,,,,,,,,,,,
,,,,,V1_031,20,Female,2024-05-22_15h33.20.921,jersey_experiment_5_v1,2023.2.2,Win32,84.74576271,,,,,,,,,,,,,,,,1104.6714,1105.9653,1105.9654,1108.8762,return,0.3898,,57.8125,,,,,,FBP-PT-19.png,0.43,1.2,14,0.5,,,,,,,,,,,,,,,,,,0,27,27,13,1,,,,,,,,,,,,,,,,,,,,,,,
,,,,,V1_031,20,Female,2024-05-22_15h33.20.921,jersey_experiment_5_v1,2023.2.2,Win32,84.74576271,,,,,,,,,,,,,,,,1108.8763,1110.6713,1110.6713,1112.2596,return,0.6542,,64.58333333,,,,,,FBP-RB-17.png,0.43,1.2,49,1,,,,,,,,,,,,,,,,,,0,28,28,48,1,,,,,,,,,,,,,,,,,,,,,,,
,,,,,V1_031,20,Female,2024-05-22_15h33.20.921,jersey_experiment_5_v1,2023.2.2,Win32,84.74576271,,,,,,,,,,,,,,,,1112.2598,1114.0528,1114.0528,1115.1187,return,0.5416,,30.20833333,,,,,,FBP-RB-18.png,0.37,1.2,52,1,,,,,,,,,,,,,,,,,,0,29,29,51,1,,,,,,,,,,,,,,,,,,,,,,,
,,,,,V1_031,20,Female,2024-05-22_15h33.20.921,jersey_experiment_5_v1,2023.2.2,Win32,84.74576271,,,,,,,,,,,,,,,,1115.1189,1116.9237,1116.9237,1117.8882,return,0.4942,,25.26041667,,,,,,FBP-YG-81.png,0.35,1.2,21,1,,,,,,,,,,,,,,,,,,0,30,30,20,1,,,,,,,,,,,,,,,,,,,,,,,
,,,,,V1_031,20,Female,2024-05-22_15h33.20.921,jersey_experiment_5_v1,2023.2.2,Win32,84.74576271,,,,,,,,,,,,,,,,1117.8882,1119.6835,1119.6835,1121.2059,return,0.7766,,23.17708333,,,,,,FBP-OG-91.png,0.35,1.2,41,1,,,,,,,,,,,,,,,,,,0,31,31,40,1,,,,,,,,,,,,,,,,,,,,,,,
,,,,,V1_031,20,Female,2024-05-22_15h33.20.921,jersey_experiment_5_v1,2023.2.2,Win32,84.74576271,,,,,,,,,,,,,,,,1121.206,1122.5072,1122.5072,1124.2048,return,0.3402,,49.21875,,,,,,FBP-PT-18.png,0.37,1.2,7,0.5,,,,,,,,,,,,,,,,,,0,32,32,6,1,,,,,,,,,,,,,,,,,,,,,,,
,,,,,V1_031,20,Female,2024-05-22_15h33.20.921,jersey_experiment_5_v1,2023.2.2,Win32,84.74576271,,,,,,,,,,,,,,,,1124.205,1126.0012,1126.0013,1127.5308,return,0.3414,,56.11979167,,,,,,FBP-RB-17.png,0.4,1.2,48,1,,,,,,,,,,,,,,,,,,0,33,33,47,1,,,,,,,,,,,,,,,,,,,,,,,
,,,,,V1_031,20,Female,2024-05-22_15h33.20.921,jersey_experiment_5_v1,2023.2.2,Win32,84.74576271,,,,,,,,,,,,,,,,1127.531,1129.3344,1129.3344,1130.4838,return,0.5244,,70.05208333,,,,,,FBP-OG-81.png,0.43,1.2,39,1,,,,,,,,,,,,,,,,,,0,34,34,38,1,,,,,,,,,,,,,,,,,,,,,,,
,,,,,V1_031,20,Female,2024-05-22_15h33.20.921,jersey_experiment_5_v1,2023.2.2,Win32,84.74576271,,,,,,,,,,,,,,,,1130.4839,1131.7781,1131.7781,1133.9311,return,0.6231,,44.53125,,,,,,FBP-PT-17.png,0.35,1.2,1,0.5,,,,,,,,,,,,,,,,,,0,35,35,0,1,,,,,,,,,,,,,,,,,,,,,,,
,,,,,V1_031,20,Female,2024-05-22_15h33.20.921,jersey_experiment_5_v1,2023.2.2,Win32,84.74576271,,,,,,,,,,,,,,,,1133.9312,1135.724,1135.724,1137.1937,return,0.3403,,60.15625,,,,,,FBP-YG-91.png,0.4,1.2,28,1,,,,,,,,,,,,,,,,,,0,36,36,27,1,,,,,,,,,,,,,,,,,,,,,,,
,,,,,V1_031,20,Female,2024-05-22_15h33.20.921,jersey_experiment_5_v1,2023.2.2,Win32,84.74576271,,,,,,,,,,,,,,,,1137.1939,1138.4959,1138.496,1140.3077,return,0.5597,,50.13020833,,,,,,FBP-PT-19.png,0.37,1.2,12,0.5,,,,,,,,,,,,,,,,,,0,37,37,11,1,,,,,,,,,,,,,,,,,,,,,,,
,,,,,V1_031,20,Female,2024-05-22_15h33.20.921,jersey_experiment_5_v1,2023.2.2,Win32,84.74576271,,,,,,,,,,,,,,,,1140.3077,1142.1079,1142.1079,1143.5433,return,0.5681,,66.14583333,,,,,,FBP-YG-81.png,0.4,1.2,23,1,,,,,,,,,,,,,,,,,,0,38,38,22,1,,,,,,,,,,,,,,,,,,,,,,,
,,,,,V1_031,20,Female,2024-05-22_15h33.20.921,jersey_experiment_5_v1,2023.2.2,Win32,84.74576271,,,,,,,,,,,,,,,,1143.5434,1145.3478,1145.3478,1146.407,return,0.6253,,68.88020833,,,,,,FBP-YG-71.png,0.4,1.2,18,1,,,,,,,,,,,,,,,,,,0,39,39,17,1,,,,,,,,,,,,,,,,,,,,,,,
,,,,,V1_031,20,Female,2024-05-22_15h33.20.921,jersey_experiment_5_v1,2023.2.2,Win32,84.74576271,,,,,,,,,,,,,,,,1146.4071,1147.708,1147.708,1149.5131,return,0.4369,,69.140625,,,,,,FBP-PT-18.png,0.4,1.2,8,0.5,,,,,,,,,,,,,,,,,,0,40,40,7,1,,,,,,,,,,,,,,,,,,,,,,,
,,,,,V1_031,20,Female,2024-05-22_15h33.20.921,jersey_experiment_5_v1,2023.2.2,Win32,84.74576271,,,,,,,,,,,,,,,,1149.5132,1151.3114,1151.3114,1152.9956,return,0.4844,,35.67708333,,,,,,FBP-YG-81.png,0.37,1.2,22,1,,,,,,,,,,,,,,,,,,0,41,41,21,1,,,,,,,,,,,,,,,,,,,,,,,
,,,,,V1_031,20,Female,2024-05-22_15h33.20.921,jersey_experiment_5_v1,2023.2.2,Win32,84.74576271,,,,,,,,,,,,,,,,1152.9957,1154.7939,1154.7939,1156.1956,return,0.6358,,33.59375,,,,,,FBP-OG-71.png,0.35,1.2,31,1,,,,,,,,,,,,,,,,,,0,42,42,30,1,,,,,,,,,,,,,,,,,,,,,,,
,,,,,V1_031,20,Female,2024-05-22_15h33.20.921,jersey_experiment_5_v1,2023.2.2,Win32,84.74576271,,,,,,,,,,,,,,,,1156.1957,1157.9942,1157.9942,1160.5957,return,1.7309,,75.26041667,,,,,,FBP-YG-71.png,0.45,1.2,20,1,,,,,,,,,,,,,,,,,,0,43,43,19,1,,,,,,,,,,,,,,,,,,,,,,,
,,,,,V1_031,20,Female,2024-05-22_15h33.20.921,jersey_experiment_5_v1,2023.2.2,Win32,84.74576271,,,,,,,,,,,,,,,,1160.5958,1162.391,1162.391,1163.885,return,0.4578,,49.609375,,,,,,FBP-RB-19.png,0.37,1.2,57,1,,,,,,,,,,,,,,,,,,0,44,44,56,1,,,,,,,,,,,,,,,,,,,,,,,
,,,,,V1_031,20,Female,2024-05-22_15h33.20.921,jersey_experiment_5_v1,2023.2.2,Win32,84.74576271,,,,,,,,,,,,,,,,1163.8852,1165.6781,1165.6781,1167.6651,return,0.4812,,74.34895833,,,,,,FBP-YG-81.png,0.43,1.2,24,1,,,,,,,,,,,,,,,,,,0,45,45,23,1,,,,,,,,,,,,,,,,,,,,,,,
,,,,,V1_031,20,Female,2024-05-22_15h33.20.921,jersey_experiment_5_v1,2023.2.2,Win32,84.74576271,,,,,,,,,,,,,,,,1167.6653,1169.4666,1169.4666,1171.4854,return,1.493,,62.76041667,,,,,,FBP-OG-91.png,0.4,1.2,43,1,,,,,,,,,,,,,,,,,,0,46,46,42,1,,,,,,,,,,,,,,,,,,,,,,,
,,,,,V1_031,20,Female,2024-05-22_15h33.20.921,jersey_experiment_5_v1,2023.2.2,Win32,84.74576271,,,,,,,,,,,,,,,,1171.4857,1173.2854,1173.2855,1174.5091,return,0.353,,50.26041667,,,,,,FBP-YG-91.png,0.35,1.2,26,1,,,,,,,,,,,,,,,,,,0,47,47,25,1,,,,,,,,,,,,,,,,,,,,,,,
,,,,,V1_031,20,Female,2024-05-22_15h33.20.921,jersey_experiment_5_v1,2023.2.2,Win32,84.74576271,,,,,,,,,,,,,,,,1174.5092,1176.3009,1176.3009,1177.3964,return,0.5782,,44.140625,,,,,,FBP-RB-17.png,0.35,1.2,46,1,,,,,,,,,,,,,,,,,,0,48,48,45,1,,,,,,,,,,,,,,,,,,,,,,,
,,,,,V1_031,20,Female,2024-05-22_15h33.20.921,jersey_experiment_5_v1,2023.2.2,Win32,84.74576271,,,,,,,,,,,,,,,,1177.3965,1179.1949,1179.195,1180.4623,return,0.6488,,50.91145833,,,,,,FBP-YG-71.png,0.37,1.2,17,1,,,,,,,,,,,,,,,,,,0,49,49,16,1,,,,,,,,,,,,,,,,,,,,,,,
,,,,,V1_031,20,Female,2024-05-22_15h33.20.921,jersey_experiment_5_v1,2023.2.2,Win32,84.74576271,,,,,,,,,,,,,,,,1180.4624,1182.2542,1182.2542,1183.1093,return,0.323,,69.66145833,,,,,,FBP-OG-71.png,0.43,1.2,34,1,,,,,,,,,,,,,,,,,,0,50,50,33,1,,,,,,,,,,,,,,,,,,,,,,,
,,,,,V1_031,20,Female,2024-05-22_15h33.20.921,jersey_experiment_5_v1,2023.2.2,Win32,84.74576271,,,,,,,,,,,,,,,,1183.1095,1184.9024,1184.9024,1186.9564,return,1.4121,,85.80729167,,,,,,FBP-YG-91.png,0.45,1.2,30,1,,,,,,,,,,,,,,,,,,0,51,51,29,1,,,,,,,,,,,,,,,,,,,,,,,
,,,,,V1_031,20,Female,2024-05-22_15h33.20.921,jersey_experiment_5_v1,2023.2.2,Win32,84.74576271,,,,,,,,,,,,,,,,1186.9567,1188.2508,1188.2508,1189.138,return,0.4238,,85.41666667,,,,,,FBP-PT-18.png,0.43,1.2,9,0.5,,,,,,,,,,,,,,,,,,0,52,52,8,1,,,,,,,,,,,,,,,,,,,,,,,
,,,,,V1_031,20,Female,2024-05-22_15h33.20.921,jersey_experiment_5_v1,2023.2.2,Win32,84.74576271,,,,,,,,,,,,,,,,1189.1382,1190.432,1190.432,1192.0036,return,0.3846,,87.5,,,,,,FBP-PT-19.png,0.4,1.2,13,0.5,,,,,,,,,,,,,,,,,,0,53,53,12,1,,,,,,,,,,,,,,,,,,,,,,,
,,,,,V1_031,20,Female,2024-05-22_15h33.20.921,jersey_experiment_5_v1,2023.2.2,Win32,84.74576271,,,,,,,,,,,,,,,,1192.0038,1193.7967,1193.7967,1195.4862,return,0.6698,,74.609375,,,,,,FBP-RB-18.png,0.4,1.2,53,1,,,,,,,,,,,,,,,,,,0,54,54,52,1,,,,,,,,,,,,,,,,,,,,,,,
,,,,,V1_031,20,Female,2024-05-22_15h33.20.921,jersey_experiment_5_v1,2023.2.2,Win32,84.74576271,,,,,,,,,,,,,,,,1195.4864,1197.2862,1197.2863,1198.757,return,0.4176,,49.86979167,,,,,,FBP-RB-17.png,0.37,1.2,47,1,,,,,,,,,,,,,,,,,,0,55,55,46,1,,,,,,,,,,,,,,,,,,,,,,,
,,,,,V1_031,20,Female,2024-05-22_15h33.20.921,jersey_experiment_5_v1,2023.2.2,Win32,84.74576271,,,,,,,,,,,,,,,,1198.7571,1200.5501,1200.5501,1201.5923,return,0.5331,,37.5,,,,,,FBP-OG-81.png,0.35,1.2,36,1,,,,,,,,,,,,,,,,,,0,56,56,35,1,,,,,,,,,,,,,,,,,,,,,,,
,,,,,V1_031,20,Female,2024-05-22_15h33.20.921,jersey_experiment_5_v1,2023.2.2,Win32,84.74576271,,,,,,,,,,,,,,,,1201.5925,1203.3841,1203.3841,1204.5571,return,0.39,,80.72916667,,,,,,FBP-OG-71.png,0.45,1.2,35,1,,,,,,,,,,,,,,,,,,0,57,57,34,1,,,,,,,,,,,,,,,,,,,,,,,
,,,,,V1_031,20,Female,2024-05-22_15h33.20.921,jersey_experiment_5_v1,2023.2.2,Win32,84.74576271,,,,,,,,,,,,,,,,1204.5573,1206.3618,1206.3618,1207.9338,return,0.5887,,84.63541667,,,,,,FBP-RB-19.png,0.45,1.2,60,1,,,,,,,,,,,,,,,,,,0,58,58,59,1,,,,,,,,,,,,,,,,,,,,,,,
,,,,,V1_031,20,Female,2024-05-22_15h33.20.921,jersey_experiment_5_v1,2023.2.2,Win32,84.74576271,,,,,,,,,,,,,,,,1207.9339,1209.7268,1209.7268,1211.0918,return,0.4005,,49.47916667,,,,,,FBP-OG-81.png,0.4,1.2,38,1,,,,,,,,,,,,,,,,,,0,59,59,37,1,,,,,,,,,,,,,,,,,,,,,,,
,,,,,V1_031,20,Female,2024-05-22_15h33.20.921,jersey_experiment_5_v1,2023.2.2,Win32,84.74576271,,,,,,,,,,,,,,,,,,,,,,,,,,,,,,,,,,,,,,,,,,,,,,,,,,,,,,,,1211.0921,1219.7346,return,8.6296,,,,,,,,,,,,,,,,,,,
,,,,,V1_031,20,Female,2024-05-22_15h33.20.921,jersey_experiment_5_v1,2023.2.2,Win32,84.74576271,,,,,,,,,,,,,,,,,,,,,,,,,,,,,,,,,,,,,,,,,,,,,,,,,,,,,,,,,,,,,1219.7346,1226.3934,1,5.5683,return,1.06,,,,,,,,,,,,
,,,,,V1_031,20,Female,2024-05-22_15h33.20.921,jersey_experiment_5_v1,2023.2.2,Win32,84.74576271,,,,,,,,,,,,,,,,,,,,,,,,,,,,,,,,,,,,,,,,,,,,,,,,,,,,,,,,,,,,,,,,,,,,1226.3936,1346.6849,"I noticed the colors red and green a lot, they may be associated to how we perceive people differently depending on the colors. ",right,112.8431,,,,,,
,,,,,V1_031,20,Female,2024-05-22_15h33.20.921,jersey_experiment_5_v1,2023.2.2,Win32,84.74576271,,,,,,,,,,,,,,,,,,,,,,,,,,,,,,,,,,,,,,,,,,,,,,,,,,,,,,,,,,,,,,,,,,,,,,,,,,1346.685,1350.9979,return,4.299,