requirements.started,requirements.stopped,key_resp_3.keys,key_resp_3.rt,key_resp_3.duration,Subject ID,Age,Gender,date,expName,psychopyVersion,OS,frameRate,instructions1.started,instructions1.stopped,key_resp.keys,key_resp.rt,key_resp.duration,example.started,example.stopped,enter_2.keys,enter_2.rt,enter_2.duration,instructions2.started,instructions2.stopped,enter_3.keys,enter_3.rt,enter_3.duration,image.started,image.stopped,slider_2.started,slider_2.stopped,next.keys,next.rt,next.duration,slider.response,trial_block_1.thisRepN,trial_block_1.thisTrialN,trial_block_1.thisN,trial_block_1.thisIndex,trial_block_1.ran,Path,Width,Height,Index,Duration,trial_block_2.thisRepN,trial_block_2.thisTrialN,trial_block_2.thisN,trial_block_2.thisIndex,trial_block_2.ran,rest_break.started,rest_break.stopped,end_break.started,end_break.stopped,key_resp_5.keys,key_resp_5.rt,key_resp_5.duration,trial_block_3.thisRepN,trial_block_3.thisTrialN,trial_block_3.thisN,trial_block_3.thisIndex,trial_block_3.ran,trial_block_4.thisRepN,trial_block_4.thisTrialN,trial_block_4.thisN,trial_block_4.thisIndex,trial_block_4.ran,questions_intro.started,questions_intro.stopped,enter_12.keys,enter_12.rt,enter_12.duration,question2.started,question2.stopped,question_doingbest.response,question_doingbest.rt,enter_15.keys,enter_15.rt,enter_15.duration,pattern.started,pattern.stopped,pattern_2.text,enter_17.keys,enter_17.rt,enter_17.duration,thankyou.started,thankyou.stopped,enter_14.keys,enter_14.rt,enter_14.duration
0.0002,10.3654,return,10.3569,,V1_022,19,Female,2024-05-17_10h14.44.985,jersey_experiment_5_v1,2023.2.2,Win32,84.74576271,,,,,,,,,,,,,,,,,,,,,,,,,,,,,,,,,,,,,,,,,,,,,,,,,,,,,,,,,,,,,,,,,,,,,,,,,,,,,,
,,,,,V1_022,19,Female,2024-05-17_10h14.44.985,jersey_experiment_5_v1,2023.2.2,Win32,84.74576271,10.3655,22.6275,return,12.2456,,,,,,,,,,,,,,,,,,,,,,,,,,,,,,,,,,,,,,,,,,,,,,,,,,,,,,,,,,,,,,,,,,,,,,,,,,
,,,,,V1_022,19,Female,2024-05-17_10h14.44.985,jersey_experiment_5_v1,2023.2.2,Win32,84.74576271,,,,,,22.6276,27.8837,return,5.2157,,,,,,,,,,,,,,,,,,,,,,,,,,,,,,,,,,,,,,,,,,,,,,,,,,,,,,,,,,,,,,,,,,,,,
,,,,,V1_022,19,Female,2024-05-17_10h14.44.985,jersey_experiment_5_v1,2023.2.2,Win32,84.74576271,,,,,,,,,,,27.8838,46.8843,return,18.9833,,,,,,,,,,,,,,,,,,,,,,,,,,,,,,,,,,,,,,,,,,,,,,,,,,,,,,,,,,,,,,,,
,,,,,V1_022,19,Female,2024-05-17_10h14.44.985,jersey_experiment_5_v1,2023.2.2,Win32,84.74576271,,,,,,,,,,,,,,,,46.8911,48.194,48.194,68.2851,return,7.7508,,74.609375,0,0,0,23,1,FBP-YG-18.png,0.43,1.2,24,0.5,,,,,,,,,,,,,,,,,,,,,,,,,,,,,,,,,,,,,,,,,,,,,
,,,,,V1_022,19,Female,2024-05-17_10h14.44.985,jersey_experiment_5_v1,2023.2.2,Win32,84.74576271,,,,,,,,,,,,,,,,68.2854,69.5788,69.5789,73.2379,return,1.0522,,79.16666667,0,1,1,43,1,FBP-OG-19.png,0.43,1.2,44,0.5,,,,,,,,,,,,,,,,,,,,,,,,,,,,,,,,,,,,,,,,,,,,,
,,,,,V1_022,19,Female,2024-05-17_10h14.44.985,jersey_experiment_5_v1,2023.2.2,Win32,84.74576271,,,,,,,,,,,,,,,,73.2382,74.532,74.5321,79.4028,return,0.894,,39.58333333,0,2,2,21,1,FBP-YG-18.png,0.37,1.2,22,0.5,,,,,,,,,,,,,,,,,,,,,,,,,,,,,,,,,,,,,,,,,,,,,
,,,,,V1_022,19,Female,2024-05-17_10h14.44.985,jersey_experiment_5_v1,2023.2.2,Win32,84.74576271,,,,,,,,,,,,,,,,79.4031,80.6969,80.6969,83.5558,return,0.7222,,49.34895833,0,3,3,51,1,FBP-RB-81.png,0.37,1.2,52,0.5,,,,,,,,,,,,,,,,,,,,,,,,,,,,,,,,,,,,,,,,,,,,,
,,,,,V1_022,19,Female,2024-05-17_10h14.44.985,jersey_experiment_5_v1,2023.2.2,Win32,84.74576271,,,,,,,,,,,,,,,,83.556,85.3559,85.356,91.3562,return,3.8971,,82.55208333,0,4,4,3,1,FBP-PT-71.png,0.43,1.2,4,1,,,,,,,,,,,,,,,,,,,,,,,,,,,,,,,,,,,,,,,,,,,,,
,,,,,V1_022,19,Female,2024-05-17_10h14.44.985,jersey_experiment_5_v1,2023.2.2,Win32,84.74576271,,,,,,,,,,,,,,,,91.3565,92.6502,92.6502,98.274,return,0.7589,,49.609375,0,5,5,56,1,FBP-RB-91.png,0.37,1.2,57,0.5,,,,,,,,,,,,,,,,,,,,,,,,,,,,,,,,,,,,,,,,,,,,,
,,,,,V1_022,19,Female,2024-05-17_10h14.44.985,jersey_experiment_5_v1,2023.2.2,Win32,84.74576271,,,,,,,,,,,,,,,,98.2743,99.5682,99.5682,103.5448,return,1.7652,,52.86458333,0,6,6,31,1,FBP-OG-17.png,0.37,1.2,32,0.5,,,,,,,,,,,,,,,,,,,,,,,,,,,,,,,,,,,,,,,,,,,,,
,,,,,V1_022,19,Female,2024-05-17_10h14.44.985,jersey_experiment_5_v1,2023.2.2,Win32,84.74576271,,,,,,,,,,,,,,,,103.545,104.8389,104.8389,108.2626,return,1.3222,,29.16666667,0,7,7,15,1,FBP-YG-17.png,0.35,1.2,16,0.5,,,,,,,,,,,,,,,,,,,,,,,,,,,,,,,,,,,,,,,,,,,,,
,,,,,V1_022,19,Female,2024-05-17_10h14.44.985,jersey_experiment_5_v1,2023.2.2,Win32,84.74576271,,,,,,,,,,,,,,,,108.2629,110.0626,110.0627,113.8041,return,2.038,,96.22395833,0,8,8,14,1,FBP-PT-91.png,0.45,1.2,15,1,,,,,,,,,,,,,,,,,,,,,,,,,,,,,,,,,,,,,,,,,,,,,
,,,,,V1_022,19,Female,2024-05-17_10h14.44.985,jersey_experiment_5_v1,2023.2.2,Win32,84.74576271,,,,,,,,,,,,,,,,113.8043,115.0982,115.0983,117.8748,return,0.8294,,76.69270833,0,9,9,17,1,FBP-YG-17.png,0.4,1.2,18,0.5,,,,,,,,,,,,,,,,,,,,,,,,,,,,,,,,,,,,,,,,,,,,,
,,,,,V1_022,19,Female,2024-05-17_10h14.44.985,jersey_experiment_5_v1,2023.2.2,Win32,84.74576271,,,,,,,,,,,,,,,,117.8751,119.6747,119.6748,122.0984,return,0.7713,,75.78125,0,10,10,7,1,FBP-PT-81.png,0.4,1.2,8,1,,,,,,,,,,,,,,,,,,,,,,,,,,,,,,,,,,,,,,,,,,,,,
,,,,,V1_022,19,Female,2024-05-17_10h14.44.985,jersey_experiment_5_v1,2023.2.2,Win32,84.74576271,,,,,,,,,,,,,,,,122.0986,123.3926,123.3926,126.5456,return,1.0683,,27.734375,0,11,11,35,1,FBP-OG-18.png,0.35,1.2,36,0.5,,,,,,,,,,,,,,,,,,,,,,,,,,,,,,,,,,,,,,,,,,,,,
,,,,,V1_022,19,Female,2024-05-17_10h14.44.985,jersey_experiment_5_v1,2023.2.2,Win32,84.74576271,,,,,,,,,,,,,,,,126.5458,127.8396,127.8397,131.6517,return,1.1605,,90.75520833,0,12,12,49,1,FBP-RB-71.png,0.45,1.2,50,0.5,,,,,,,,,,,,,,,,,,,,,,,,,,,,,,,,,,,,,,,,,,,,,
,,,,,V1_022,19,Female,2024-05-17_10h14.44.985,jersey_experiment_5_v1,2023.2.2,Win32,84.74576271,,,,,,,,,,,,,,,,131.652,132.9458,132.9458,137.2283,return,2.0236,,89.71354167,0,13,13,34,1,FBP-OG-17.png,0.45,1.2,35,0.5,,,,,,,,,,,,,,,,,,,,,,,,,,,,,,,,,,,,,,,,,,,,,
,,,,,V1_022,19,Female,2024-05-17_10h14.44.985,jersey_experiment_5_v1,2023.2.2,Win32,84.74576271,,,,,,,,,,,,,,,,137.2286,138.5225,138.5225,141.3461,return,0.8418,,74.47916667,0,14,14,57,1,FBP-RB-91.png,0.4,1.2,58,0.5,,,,,,,,,,,,,,,,,,,,,,,,,,,,,,,,,,,,,,,,,,,,,
,,,,,V1_022,19,Female,2024-05-17_10h14.44.985,jersey_experiment_5_v1,2023.2.2,Win32,84.74576271,,,,,,,,,,,,,,,,141.3463,142.6403,142.6403,144.4051,return,0.8295,,88.02083333,0,15,15,19,1,FBP-YG-17.png,0.45,1.2,20,0.5,,,,,,,,,,,,,,,,,,,,,,,,,,,,,,,,,,,,,,,,,,,,,
,,,,,V1_022,19,Female,2024-05-17_10h14.44.985,jersey_experiment_5_v1,2023.2.2,Win32,84.74576271,,,,,,,,,,,,,,,,144.4053,146.2053,146.2054,148.8875,return,0.9325,,53.515625,0,16,16,12,1,FBP-PT-91.png,0.4,1.2,13,1,,,,,,,,,,,,,,,,,,,,,,,,,,,,,,,,,,,,,,,,,,,,,
,,,,,V1_022,19,Female,2024-05-17_10h14.44.985,jersey_experiment_5_v1,2023.2.2,Win32,84.74576271,,,,,,,,,,,,,,,,148.8877,150.1818,150.1818,155.8173,return,3.5078,,25.13020833,0,17,17,45,1,FBP-RB-71.png,0.35,1.2,46,0.5,,,,,,,,,,,,,,,,,,,,,,,,,,,,,,,,,,,,,,,,,,,,,
,,,,,V1_022,19,Female,2024-05-17_10h14.44.985,jersey_experiment_5_v1,2023.2.2,Win32,84.74576271,,,,,,,,,,,,,,,,155.8175,157.1113,157.1113,160.3115,return,0.9769,,27.47395833,0,18,18,36,1,FBP-OG-18.png,0.37,1.2,37,0.5,,,,,,,,,,,,,,,,,,,,,,,,,,,,,,,,,,,,,,,,,,,,,
,,,,,V1_022,19,Female,2024-05-17_10h14.44.985,jersey_experiment_5_v1,2023.2.2,Win32,84.74576271,,,,,,,,,,,,,,,,160.3117,161.6056,161.6057,163.4999,return,0.9156,,27.47395833,0,19,19,46,1,FBP-RB-71.png,0.37,1.2,47,0.5,,,,,,,,,,,,,,,,,,,,,,,,,,,,,,,,,,,,,,,,,,,,,
,,,,,V1_022,19,Female,2024-05-17_10h14.44.985,jersey_experiment_5_v1,2023.2.2,Win32,84.74576271,,,,,,,,,,,,,,,,163.5002,164.7941,164.7941,166.9236,return,0.8943,,27.47395833,0,20,20,55,1,FBP-RB-91.png,0.35,1.2,56,0.5,,,,,,,,,,,,,,,,,,,,,,,,,,,,,,,,,,,,,,,,,,,,,
,,,,,V1_022,19,Female,2024-05-17_10h14.44.985,jersey_experiment_5_v1,2023.2.2,Win32,84.74576271,,,,,,,,,,,,,,,,166.9238,168.2176,168.2176,170.5355,return,0.8861,,50.52083333,0,21,21,32,1,FBP-OG-17.png,0.4,1.2,33,0.5,,,,,,,,,,,,,,,,,,,,,,,,,,,,,,,,,,,,,,,,,,,,,
,,,,,V1_022,19,Female,2024-05-17_10h14.44.985,jersey_experiment_5_v1,2023.2.2,Win32,84.74576271,,,,,,,,,,,,,,,,170.5358,171.8296,171.8296,175.3357,return,1.0502,,54.296875,0,22,22,27,1,FBP-YG-19.png,0.4,1.2,28,0.5,,,,,,,,,,,,,,,,,,,,,,,,,,,,,,,,,,,,,,,,,,,,,
,,,,,V1_022,19,Female,2024-05-17_10h14.44.985,jersey_experiment_5_v1,2023.2.2,Win32,84.74576271,,,,,,,,,,,,,,,,175.3359,177.1356,177.1356,179.9005,return,0.8472,,35.9375,0,23,23,6,1,FBP-PT-81.png,0.37,1.2,7,1,,,,,,,,,,,,,,,,,,,,,,,,,,,,,,,,,,,,,,,,,,,,,
,,,,,V1_022,19,Female,2024-05-17_10h14.44.985,jersey_experiment_5_v1,2023.2.2,Win32,84.74576271,,,,,,,,,,,,,,,,179.9007,181.1946,181.1946,185.9949,return,0.6832,,50.78125,0,24,24,47,1,FBP-RB-71.png,0.4,1.2,48,0.5,,,,,,,,,,,,,,,,,,,,,,,,,,,,,,,,,,,,,,,,,,,,,
,,,,,V1_022,19,Female,2024-05-17_10h14.44.985,jersey_experiment_5_v1,2023.2.2,Win32,84.74576271,,,,,,,,,,,,,,,,185.9951,187.2891,187.2891,189.2774,return,0.5884,,62.36979167,0,25,25,22,1,FBP-YG-18.png,0.4,1.2,23,0.5,,,,,,,,,,,,,,,,,,,,,,,,,,,,,,,,,,,,,,,,,,,,,
,,,,,V1_022,19,Female,2024-05-17_10h14.44.985,jersey_experiment_5_v1,2023.2.2,Win32,84.74576271,,,,,,,,,,,,,,,,189.2775,191.0775,191.0775,192.6774,return,0.7325,,77.47395833,0,26,26,8,1,FBP-PT-81.png,0.43,1.2,9,1,,,,,,,,,,,,,,,,,,,,,,,,,,,,,,,,,,,,,,,,,,,,,
,,,,,V1_022,19,Female,2024-05-17_10h14.44.985,jersey_experiment_5_v1,2023.2.2,Win32,84.74576271,,,,,,,,,,,,,,,,192.6777,193.9716,193.9716,195.9129,return,0.6373,,25.78125,0,27,27,30,1,FBP-OG-17.png,0.35,1.2,31,0.5,,,,,,,,,,,,,,,,,,,,,,,,,,,,,,,,,,,,,,,,,,,,,
,,,,,V1_022,19,Female,2024-05-17_10h14.44.985,jersey_experiment_5_v1,2023.2.2,Win32,84.74576271,,,,,,,,,,,,,,,,195.9131,197.2069,197.2069,200.0659,return,1.6209,,23.95833333,0,28,28,20,1,FBP-YG-18.png,0.35,1.2,21,0.5,,,,,,,,,,,,,,,,,,,,,,,,,,,,,,,,,,,,,,,,,,,,,
,,,,,V1_022,19,Female,2024-05-17_10h14.44.985,jersey_experiment_5_v1,2023.2.2,Win32,84.74576271,,,,,,,,,,,,,,,,200.0661,201.3602,201.3602,203.4778,return,0.6054,,80.72916667,0,29,29,33,1,FBP-OG-17.png,0.43,1.2,34,0.5,,,,,,,,,,,,,,,,,,,,,,,,,,,,,,,,,,,,,,,,,,,,,
,,,,,V1_022,19,Female,2024-05-17_10h14.44.985,jersey_experiment_5_v1,2023.2.2,Win32,84.74576271,,,,,,,,,,,,,,,,203.4781,204.772,204.7721,207.2543,return,0.6488,,79.94791667,0,30,30,38,1,FBP-OG-18.png,0.43,1.2,39,0.5,,,,,,,,,,,,,,,,,,,,,,,,,,,,,,,,,,,,,,,,,,,,,
,,,,,V1_022,19,Female,2024-05-17_10h14.44.985,jersey_experiment_5_v1,2023.2.2,Win32,84.74576271,,,,,,,,,,,,,,,,207.2545,208.5486,208.5486,211.0191,return,0.8807,,25,0,31,31,25,1,FBP-YG-19.png,0.35,1.2,26,0.5,,,,,,,,,,,,,,,,,,,,,,,,,,,,,,,,,,,,,,,,,,,,,
,,,,,V1_022,19,Female,2024-05-17_10h14.44.985,jersey_experiment_5_v1,2023.2.2,Win32,84.74576271,,,,,,,,,,,,,,,,211.0193,212.3134,212.3134,215.5725,return,0.7095,,83.72395833,0,32,32,24,1,FBP-YG-18.png,0.45,1.2,25,0.5,,,,,,,,,,,,,,,,,,,,,,,,,,,,,,,,,,,,,,,,,,,,,
,,,,,V1_022,19,Female,2024-05-17_10h14.44.985,jersey_experiment_5_v1,2023.2.2,Win32,84.74576271,,,,,,,,,,,,,,,,215.5727,216.8665,216.8666,218.6667,return,0.6353,,88.93229167,0,33,33,28,1,FBP-YG-19.png,0.43,1.2,29,0.5,,,,,,,,,,,,,,,,,,,,,,,,,,,,,,,,,,,,,,,,,,,,,
,,,,,V1_022,19,Female,2024-05-17_10h14.44.985,jersey_experiment_5_v1,2023.2.2,Win32,84.74576271,,,,,,,,,,,,,,,,218.6668,219.9607,219.9607,222.8079,return,0.8265,,50,0,34,34,41,1,FBP-OG-19.png,0.37,1.2,42,0.5,,,,,,,,,,,,,,,,,,,,,,,,,,,,,,,,,,,,,,,,,,,,,
,,,,,V1_022,19,Female,2024-05-17_10h14.44.985,jersey_experiment_5_v1,2023.2.2,Win32,84.74576271,,,,,,,,,,,,,,,,222.8082,224.102,224.102,225.5962,return,0.6119,,76.82291667,0,35,35,48,1,FBP-RB-71.png,0.43,1.2,49,0.5,,,,,,,,,,,,,,,,,,,,,,,,,,,,,,,,,,,,,,,,,,,,,
,,,,,V1_022,19,Female,2024-05-17_10h14.44.985,jersey_experiment_5_v1,2023.2.2,Win32,84.74576271,,,,,,,,,,,,,,,,225.5964,226.8905,226.8905,228.8081,return,0.7411,,28.90625,0,36,36,50,1,FBP-RB-81.png,0.35,1.2,51,0.5,,,,,,,,,,,,,,,,,,,,,,,,,,,,,,,,,,,,,,,,,,,,,
,,,,,V1_022,19,Female,2024-05-17_10h14.44.985,jersey_experiment_5_v1,2023.2.2,Win32,84.74576271,,,,,,,,,,,,,,,,228.8084,230.6084,230.6084,234.0438,return,1.3079,,78.90625,0,37,37,9,1,FBP-PT-81.png,0.45,1.2,10,1,,,,,,,,,,,,,,,,,,,,,,,,,,,,,,,,,,,,,,,,,,,,,
,,,,,V1_022,19,Female,2024-05-17_10h14.44.985,jersey_experiment_5_v1,2023.2.2,Win32,84.74576271,,,,,,,,,,,,,,,,234.0439,235.8438,235.8439,238.7734,return,0.7561,,47.78645833,0,38,38,11,1,FBP-PT-91.png,0.37,1.2,12,1,,,,,,,,,,,,,,,,,,,,,,,,,,,,,,,,,,,,,,,,,,,,,
,,,,,V1_022,19,Female,2024-05-17_10h14.44.985,jersey_experiment_5_v1,2023.2.2,Win32,84.74576271,,,,,,,,,,,,,,,,238.7736,240.5734,240.5734,243.0794,return,0.8014,,25,0,39,39,0,1,FBP-PT-71.png,0.35,1.2,1,1,,,,,,,,,,,,,,,,,,,,,,,,,,,,,,,,,,,,,,,,,,,,,
,,,,,V1_022,19,Female,2024-05-17_10h14.44.985,jersey_experiment_5_v1,2023.2.2,Win32,84.74576271,,,,,,,,,,,,,,,,243.0796,244.8793,244.8793,246.8442,return,0.6589,,82.16145833,0,40,40,4,1,FBP-PT-71.png,0.45,1.2,5,1,,,,,,,,,,,,,,,,,,,,,,,,,,,,,,,,,,,,,,,,,,,,,
,,,,,V1_022,19,Female,2024-05-17_10h14.44.985,jersey_experiment_5_v1,2023.2.2,Win32,84.74576271,,,,,,,,,,,,,,,,246.8444,248.6443,248.6443,251.303,return,0.6481,,48.828125,0,41,41,1,1,FBP-PT-71.png,0.37,1.2,2,1,,,,,,,,,,,,,,,,,,,,,,,,,,,,,,,,,,,,,,,,,,,,,
,,,,,V1_022,19,Female,2024-05-17_10h14.44.985,jersey_experiment_5_v1,2023.2.2,Win32,84.74576271,,,,,,,,,,,,,,,,251.3033,253.1034,253.1034,255.6562,return,0.9766,,24.34895833,0,42,42,5,1,FBP-PT-81.png,0.35,1.2,6,1,,,,,,,,,,,,,,,,,,,,,,,,,,,,,,,,,,,,,,,,,,,,,
,,,,,V1_022,19,Female,2024-05-17_10h14.44.985,jersey_experiment_5_v1,2023.2.2,Win32,84.74576271,,,,,,,,,,,,,,,,255.6565,256.9503,256.9503,258.7385,return,0.6059,,32.03125,0,43,43,26,1,FBP-YG-19.png,0.37,1.2,27,0.5,,,,,,,,,,,,,,,,,,,,,,,,,,,,,,,,,,,,,,,,,,,,,
,,,,,V1_022,19,Female,2024-05-17_10h14.44.985,jersey_experiment_5_v1,2023.2.2,Win32,84.74576271,,,,,,,,,,,,,,,,258.7388,260.0327,260.0328,267.4448,return,5.8041,,77.86458333,0,44,44,54,1,FBP-RB-81.png,0.45,1.2,55,0.5,,,,,,,,,,,,,,,,,,,,,,,,,,,,,,,,,,,,,,,,,,,,,
,,,,,V1_022,19,Female,2024-05-17_10h14.44.985,jersey_experiment_5_v1,2023.2.2,Win32,84.74576271,,,,,,,,,,,,,,,,267.445,268.739,268.739,271.7508,return,0.7333,,75,0,45,45,53,1,FBP-RB-81.png,0.43,1.2,54,0.5,,,,,,,,,,,,,,,,,,,,,,,,,,,,,,,,,,,,,,,,,,,,,
,,,,,V1_022,19,Female,2024-05-17_10h14.44.985,jersey_experiment_5_v1,2023.2.2,Win32,84.74576271,,,,,,,,,,,,,,,,271.7509,273.045,273.045,276.0922,return,0.744,,71.484375,0,46,46,42,1,FBP-OG-19.png,0.4,1.2,43,0.5,,,,,,,,,,,,,,,,,,,,,,,,,,,,,,,,,,,,,,,,,,,,,
,,,,,V1_022,19,Female,2024-05-17_10h14.44.985,jersey_experiment_5_v1,2023.2.2,Win32,84.74576271,,,,,,,,,,,,,,,,276.0925,277.3864,277.3864,279.9394,return,0.6663,,32.68229167,0,47,47,40,1,FBP-OG-19.png,0.35,1.2,41,0.5,,,,,,,,,,,,,,,,,,,,,,,,,,,,,,,,,,,,,,,,,,,,,
,,,,,V1_022,19,Female,2024-05-17_10h14.44.985,jersey_experiment_5_v1,2023.2.2,Win32,84.74576271,,,,,,,,,,,,,,,,279.9396,281.2336,281.2336,284.21,return,0.7119,,49.08854167,0,48,48,37,1,FBP-OG-18.png,0.4,1.2,38,0.5,,,,,,,,,,,,,,,,,,,,,,,,,,,,,,,,,,,,,,,,,,,,,
,,,,,V1_022,19,Female,2024-05-17_10h14.44.985,jersey_experiment_5_v1,2023.2.2,Win32,84.74576271,,,,,,,,,,,,,,,,284.2103,285.5045,285.5045,289.9632,return,2.8564,,88.41145833,0,49,49,59,1,FBP-RB-91.png,0.45,1.2,60,0.5,,,,,,,,,,,,,,,,,,,,,,,,,,,,,,,,,,,,,,,,,,,,,
,,,,,V1_022,19,Female,2024-05-17_10h14.44.985,jersey_experiment_5_v1,2023.2.2,Win32,84.74576271,,,,,,,,,,,,,,,,289.9635,291.7636,291.7637,297.0813,return,3.7328,,48.17708333,0,50,50,10,1,FBP-PT-91.png,0.35,1.2,11,1,,,,,,,,,,,,,,,,,,,,,,,,,,,,,,,,,,,,,,,,,,,,,
,,,,,V1_022,19,Female,2024-05-17_10h14.44.985,jersey_experiment_5_v1,2023.2.2,Win32,84.74576271,,,,,,,,,,,,,,,,297.0816,298.3754,298.3755,300.8579,return,0.6931,,56.25,0,51,51,52,1,FBP-RB-81.png,0.4,1.2,53,0.5,,,,,,,,,,,,,,,,,,,,,,,,,,,,,,,,,,,,,,,,,,,,,
,,,,,V1_022,19,Female,2024-05-17_10h14.44.985,jersey_experiment_5_v1,2023.2.2,Win32,84.74576271,,,,,,,,,,,,,,,,300.8581,302.1519,302.152,306.5404,return,0.7438,,48.69791667,0,52,52,16,1,FBP-YG-17.png,0.37,1.2,17,0.5,,,,,,,,,,,,,,,,,,,,,,,,,,,,,,,,,,,,,,,,,,,,,
,,,,,V1_022,19,Female,2024-05-17_10h14.44.985,jersey_experiment_5_v1,2023.2.2,Win32,84.74576271,,,,,,,,,,,,,,,,306.5407,308.3405,308.3405,311.3876,return,0.8143,,57.55208333,0,53,53,2,1,FBP-PT-71.png,0.4,1.2,3,1,,,,,,,,,,,,,,,,,,,,,,,,,,,,,,,,,,,,,,,,,,,,,
,,,,,V1_022,19,Female,2024-05-17_10h14.44.985,jersey_experiment_5_v1,2023.2.2,Win32,84.74576271,,,,,,,,,,,,,,,,311.3877,312.6818,312.6818,315.4819,return,0.6588,,75.13020833,0,54,54,29,1,FBP-YG-19.png,0.45,1.2,30,0.5,,,,,,,,,,,,,,,,,,,,,,,,,,,,,,,,,,,,,,,,,,,,,
,,,,,V1_022,19,Female,2024-05-17_10h14.44.985,jersey_experiment_5_v1,2023.2.2,Win32,84.74576271,,,,,,,,,,,,,,,,315.4821,316.7761,316.7762,318.8703,return,0.628,,84.24479167,0,55,55,44,1,FBP-OG-19.png,0.45,1.2,45,0.5,,,,,,,,,,,,,,,,,,,,,,,,,,,,,,,,,,,,,,,,,,,,,
,,,,,V1_022,19,Female,2024-05-17_10h14.44.985,jersey_experiment_5_v1,2023.2.2,Win32,84.74576271,,,,,,,,,,,,,,,,318.8706,320.1644,320.1645,321.7997,return,0.6148,,87.109375,0,56,56,39,1,FBP-OG-18.png,0.45,1.2,40,0.5,,,,,,,,,,,,,,,,,,,,,,,,,,,,,,,,,,,,,,,,,,,,,
,,,,,V1_022,19,Female,2024-05-17_10h14.44.985,jersey_experiment_5_v1,2023.2.2,Win32,84.74576271,,,,,,,,,,,,,,,,321.7999,323.0938,323.0938,325.7057,return,0.6452,,79.16666667,0,57,57,18,1,FBP-YG-17.png,0.43,1.2,19,0.5,,,,,,,,,,,,,,,,,,,,,,,,,,,,,,,,,,,,,,,,,,,,,
,,,,,V1_022,19,Female,2024-05-17_10h14.44.985,jersey_experiment_5_v1,2023.2.2,Win32,84.74576271,,,,,,,,,,,,,,,,325.706,327.5059,327.5059,329.5295,return,0.7905,,75.13020833,0,58,58,13,1,FBP-PT-91.png,0.43,1.2,14,1,,,,,,,,,,,,,,,,,,,,,,,,,,,,,,,,,,,,,,,,,,,,,
,,,,,V1_022,19,Female,2024-05-17_10h14.44.985,jersey_experiment_5_v1,2023.2.2,Win32,84.74576271,,,,,,,,,,,,,,,,329.5297,330.8237,330.8237,332.2356,return,0.5651,,75.65104167,0,59,59,58,1,FBP-RB-91.png,0.43,1.2,59,0.5,,,,,,,,,,,,,,,,,,,,,,,,,,,,,,,,,,,,,,,,,,,,,
,,,,,V1_022,19,Female,2024-05-17_10h14.44.985,jersey_experiment_5_v1,2023.2.2,Win32,84.74576271,,,,,,,,,,,,,,,,332.2377,333.5296,333.5296,335.3179,return,0.7553,,84.50520833,,,,,,FBP-OG-91.png,0.45,1.2,45,0.5,0,0,0,44,1,,,,,,,,,,,,,,,,,,,,,,,,,,,,,,,,,,,,,,,,
,,,,,V1_022,19,Female,2024-05-17_10h14.44.985,jersey_experiment_5_v1,2023.2.2,Win32,84.74576271,,,,,,,,,,,,,,,,335.3183,336.6121,336.6121,337.8828,return,0.5795,,85.41666667,,,,,,FBP-RB-18.png,0.45,1.2,55,0.5,0,1,1,54,1,,,,,,,,,,,,,,,,,,,,,,,,,,,,,,,,,,,,,,,,
,,,,,V1_022,19,Female,2024-05-17_10h14.44.985,jersey_experiment_5_v1,2023.2.2,Win32,84.74576271,,,,,,,,,,,,,,,,337.883,339.1769,339.177,341.989,return,0.6178,,67.578125,,,,,,FBP-RB-17.png,0.4,1.2,48,0.5,0,2,2,47,1,,,,,,,,,,,,,,,,,,,,,,,,,,,,,,,,,,,,,,,,
,,,,,V1_022,19,Female,2024-05-17_10h14.44.985,jersey_experiment_5_v1,2023.2.2,Win32,84.74576271,,,,,,,,,,,,,,,,341.9892,343.2828,343.2828,347.5889,return,3.065,,48.95833333,,,,,,FBP-RB-18.png,0.35,1.2,51,0.5,0,3,3,50,1,,,,,,,,,,,,,,,,,,,,,,,,,,,,,,,,,,,,,,,,
,,,,,V1_022,19,Female,2024-05-17_10h14.44.985,jersey_experiment_5_v1,2023.2.2,Win32,84.74576271,,,,,,,,,,,,,,,,347.5892,348.8829,348.8829,350.6597,return,0.6779,,76.171875,,,,,,FBP-YG-91.png,0.45,1.2,30,0.5,0,4,4,29,1,,,,,,,,,,,,,,,,,,,,,,,,,,,,,,,,,,,,,,,,
,,,,,V1_022,19,Female,2024-05-17_10h14.44.985,jersey_experiment_5_v1,2023.2.2,Win32,84.74576271,,,,,,,,,,,,,,,,350.6599,352.4599,352.46,354.4598,return,0.6118,,61.71875,,,,,,FBP-PT-17.png,0.4,1.2,3,1,0,5,5,2,1,,,,,,,,,,,,,,,,,,,,,,,,,,,,,,,,,,,,,,,,
,,,,,V1_022,19,Female,2024-05-17_10h14.44.985,jersey_experiment_5_v1,2023.2.2,Win32,84.74576271,,,,,,,,,,,,,,,,354.4601,355.7539,355.7539,358.1774,return,0.6443,,75.13020833,,,,,,FBP-YG-81.png,0.45,1.2,25,0.5,0,6,6,24,1,,,,,,,,,,,,,,,,,,,,,,,,,,,,,,,,,,,,,,,,
,,,,,V1_022,19,Female,2024-05-17_10h14.44.985,jersey_experiment_5_v1,2023.2.2,Win32,84.74576271,,,,,,,,,,,,,,,,358.1777,359.4716,359.4716,360.7424,return,0.5313,,77.21354167,,,,,,FBP-YG-91.png,0.43,1.2,29,0.5,0,7,7,28,1,,,,,,,,,,,,,,,,,,,,,,,,,,,,,,,,,,,,,,,,
,,,,,V1_022,19,Female,2024-05-17_10h14.44.985,jersey_experiment_5_v1,2023.2.2,Win32,84.74576271,,,,,,,,,,,,,,,,360.7425,362.5424,362.5424,363.9778,return,0.5412,,76.171875,,,,,,FBP-PT-19.png,0.43,1.2,14,1,0,8,8,13,1,,,,,,,,,,,,,,,,,,,,,,,,,,,,,,,,,,,,,,,,
,,,,,V1_022,19,Female,2024-05-17_10h14.44.985,jersey_experiment_5_v1,2023.2.2,Win32,84.74576271,,,,,,,,,,,,,,,,363.978,365.2719,365.2719,368.9663,return,2.2145,,48.95833333,,,,,,FBP-RB-19.png,0.35,1.2,56,0.5,0,9,9,55,1,,,,,,,,,,,,,,,,,,,,,,,,,,,,,,,,,,,,,,,,
,,,,,V1_022,19,Female,2024-05-17_10h14.44.985,jersey_experiment_5_v1,2023.2.2,Win32,84.74576271,,,,,,,,,,,,,,,,368.9663,370.2603,370.2603,371.7193,return,0.5567,,46.875,,,,,,FBP-OG-91.png,0.37,1.2,42,0.5,0,10,10,41,1,,,,,,,,,,,,,,,,,,,,,,,,,,,,,,,,,,,,,,,,
,,,,,V1_022,19,Female,2024-05-17_10h14.44.985,jersey_experiment_5_v1,2023.2.2,Win32,84.74576271,,,,,,,,,,,,,,,,371.7196,373.0134,373.0134,376.2371,return,2.4002,,46.74479167,,,,,,FBP-RB-19.png,0.37,1.2,57,0.5,0,11,11,56,1,,,,,,,,,,,,,,,,,,,,,,,,,,,,,,,,,,,,,,,,
,,,,,V1_022,19,Female,2024-05-17_10h14.44.985,jersey_experiment_5_v1,2023.2.2,Win32,84.74576271,,,,,,,,,,,,,,,,376.2374,378.037,378.0371,380.7784,return,2.164,,44.53125,,,,,,FBP-PT-18.png,0.37,1.2,7,1,0,12,12,6,1,,,,,,,,,,,,,,,,,,,,,,,,,,,,,,,,,,,,,,,,
,,,,,V1_022,19,Female,2024-05-17_10h14.44.985,jersey_experiment_5_v1,2023.2.2,Win32,84.74576271,,,,,,,,,,,,,,,,380.7786,382.5786,382.5787,386.3552,return,0.758,,26.82291667,,,,,,FBP-PT-17.png,0.35,1.2,1,1,0,13,13,0,1,,,,,,,,,,,,,,,,,,,,,,,,,,,,,,,,,,,,,,,,
,,,,,V1_022,19,Female,2024-05-17_10h14.44.985,jersey_experiment_5_v1,2023.2.2,Win32,84.74576271,,,,,,,,,,,,,,,,386.3553,388.1551,388.1551,391.8142,return,1.3903,,74.34895833,,,,,,FBP-PT-18.png,0.43,1.2,9,1,0,14,14,8,1,,,,,,,,,,,,,,,,,,,,,,,,,,,,,,,,,,,,,,,,
,,,,,V1_022,19,Female,2024-05-17_10h14.44.985,jersey_experiment_5_v1,2023.2.2,Win32,84.74576271,,,,,,,,,,,,,,,,391.8144,393.614,393.614,395.4026,return,0.621,,69.27083333,,,,,,FBP-PT-18.png,0.4,1.2,8,1,0,15,15,7,1,,,,,,,,,,,,,,,,,,,,,,,,,,,,,,,,,,,,,,,,
,,,,,V1_022,19,Female,2024-05-17_10h14.44.985,jersey_experiment_5_v1,2023.2.2,Win32,84.74576271,,,,,,,,,,,,,,,,395.4028,396.6966,396.6966,398.2263,return,0.5967,,52.34375,,,,,,FBP-YG-81.png,0.37,1.2,22,0.5,0,16,16,21,1,,,,,,,,,,,,,,,,,,,,,,,,,,,,,,,,,,,,,,,,
,,,,,V1_022,19,Female,2024-05-17_10h14.44.985,jersey_experiment_5_v1,2023.2.2,Win32,84.74576271,,,,,,,,,,,,,,,,398.2265,400.0263,400.0263,401.6733,return,0.6498,,80.859375,,,,,,FBP-PT-19.png,0.45,1.2,15,1,0,17,17,14,1,,,,,,,,,,,,,,,,,,,,,,,,,,,,,,,,,,,,,,,,
,,,,,V1_022,19,Female,2024-05-17_10h14.44.985,jersey_experiment_5_v1,2023.2.2,Win32,84.74576271,,,,,,,,,,,,,,,,401.6735,403.4732,403.4733,405.8263,return,0.5967,,54.94791667,,,,,,FBP-PT-19.png,0.37,1.2,12,1,0,18,18,11,1,,,,,,,,,,,,,,,,,,,,,,,,,,,,,,,,,,,,,,,,
,,,,,V1_022,19,Female,2024-05-17_10h14.44.985,jersey_experiment_5_v1,2023.2.2,Win32,84.74576271,,,,,,,,,,,,,,,,405.8266,407.1207,407.1207,410.2148,return,2.0014,,48.69791667,,,,,,FBP-YG-81.png,0.35,1.2,21,0.5,0,19,19,20,1,,,,,,,,,,,,,,,,,,,,,,,,,,,,,,,,,,,,,,,,
,,,,,V1_022,19,Female,2024-05-17_10h14.44.985,jersey_experiment_5_v1,2023.2.2,Win32,84.74576271,,,,,,,,,,,,,,,,410.215,411.5089,411.509,413.5442,return,0.685,,31.640625,,,,,,FBP-OG-81.png,0.35,1.2,36,0.5,0,20,20,35,1,,,,,,,,,,,,,,,,,,,,,,,,,,,,,,,,,,,,,,,,
,,,,,V1_022,19,Female,2024-05-17_10h14.44.985,jersey_experiment_5_v1,2023.2.2,Win32,84.74576271,,,,,,,,,,,,,,,,413.5443,415.3443,415.3444,418.2972,return,2.0485,,34.50520833,,,,,,FBP-PT-18.png,0.35,1.2,6,1,0,21,21,5,1,,,,,,,,,,,,,,,,,,,,,,,,,,,,,,,,,,,,,,,,
,,,,,V1_022,19,Female,2024-05-17_10h14.44.985,jersey_experiment_5_v1,2023.2.2,Win32,84.74576271,,,,,,,,,,,,,,,,418.2975,419.5916,419.5916,421.5445,return,0.5295,,70.57291667,,,,,,FBP-OG-71.png,0.43,1.2,34,0.5,0,22,22,33,1,,,,,,,,,,,,,,,,,,,,,,,,,,,,,,,,,,,,,,,,
,,,,,V1_022,19,Female,2024-05-17_10h14.44.985,jersey_experiment_5_v1,2023.2.2,Win32,84.74576271,,,,,,,,,,,,,,,,421.5448,422.8387,422.8388,424.1211,return,0.5409,,58.59375,,,,,,FBP-YG-91.png,0.37,1.2,27,0.5,0,23,23,26,1,,,,,,,,,,,,,,,,,,,,,,,,,,,,,,,,,,,,,,,,
,,,,,V1_022,19,Female,2024-05-17_10h14.44.985,jersey_experiment_5_v1,2023.2.2,Win32,84.74576271,,,,,,,,,,,,,,,,424.1214,425.4153,425.4153,427.9095,return,0.6522,,74.21875,,,,,,FBP-RB-19.png,0.43,1.2,59,0.5,0,24,24,58,1,,,,,,,,,,,,,,,,,,,,,,,,,,,,,,,,,,,,,,,,
,,,,,V1_022,19,Female,2024-05-17_10h14.44.985,jersey_experiment_5_v1,2023.2.2,Win32,84.74576271,,,,,,,,,,,,,,,,427.9097,429.2035,429.2036,430.298,return,0.4802,,78.90625,,,,,,FBP-OG-81.png,0.45,1.2,40,0.5,0,25,25,39,1,,,,,,,,,,,,,,,,,,,,,,,,,,,,,,,,,,,,,,,,
,,,,,V1_022,19,Female,2024-05-17_10h14.44.985,jersey_experiment_5_v1,2023.2.2,Win32,84.74576271,,,,,,,,,,,,,,,,430.2982,431.5919,431.592,434.6745,return,2.1117,,80.59895833,,,,,,FBP-RB-17.png,0.45,1.2,50,0.5,0,26,26,49,1,,,,,,,,,,,,,,,,,,,,,,,,,,,,,,,,,,,,,,,,
,,,,,V1_022,19,Female,2024-05-17_10h14.44.985,jersey_experiment_5_v1,2023.2.2,Win32,84.74576271,,,,,,,,,,,,,,,,434.6746,435.9685,435.9686,437.5099,return,0.4726,,74.21875,,,,,,FBP-OG-81.png,0.4,1.2,38,0.5,0,27,27,37,1,,,,,,,,,,,,,,,,,,,,,,,,,,,,,,,,,,,,,,,,
,,,,,V1_022,19,Female,2024-05-17_10h14.44.985,jersey_experiment_5_v1,2023.2.2,Win32,84.74576271,,,,,,,,,,,,,,,,437.5102,438.804,438.8041,440.3805,return,0.5317,,61.19791667,,,,,,FBP-RB-19.png,0.4,1.2,58,0.5,0,28,28,57,1,,,,,,,,,,,,,,,,,,,,,,,,,,,,,,,,,,,,,,,,
,,,,,V1_022,19,Female,2024-05-17_10h14.44.985,jersey_experiment_5_v1,2023.2.2,Win32,84.74576271,,,,,,,,,,,,,,,,440.3808,441.6748,441.6748,442.8278,return,0.5186,,66.92708333,,,,,,FBP-RB-17.png,0.43,1.2,49,0.5,0,29,29,48,1,,,,,,,,,,,,,,,,,,,,,,,,,,,,,,,,,,,,,,,,
,,,,,V1_022,19,Female,2024-05-17_10h14.44.985,jersey_experiment_5_v1,2023.2.2,Win32,84.74576271,,,,,,,,,,,,,,,,442.828,444.1219,444.1219,445.8279,return,0.5107,,70.05208333,,,,,,FBP-OG-91.png,0.43,1.2,44,0.5,0,30,30,43,1,,,,,,,,,,,,,,,,,,,,,,,,,,,,,,,,,,,,,,,,
,,,,,V1_022,19,Female,2024-05-17_10h14.44.985,jersey_experiment_5_v1,2023.2.2,Win32,84.74576271,,,,,,,,,,,,,,,,445.8282,447.1219,447.1219,448.5809,return,0.5,,45.83333333,,,,,,FBP-YG-71.png,0.35,1.2,16,0.5,0,31,31,15,1,,,,,,,,,,,,,,,,,,,,,,,,,,,,,,,,,,,,,,,,
,,,,,V1_022,19,Female,2024-05-17_10h14.44.985,jersey_experiment_5_v1,2023.2.2,Win32,84.74576271,,,,,,,,,,,,,,,,448.5811,450.381,450.381,452.1694,return,1.0352,,52.34375,,,,,,FBP-PT-19.png,0.4,1.2,13,1,0,32,32,12,1,,,,,,,,,,,,,,,,,,,,,,,,,,,,,,,,,,,,,,,,
,,,,,V1_022,19,Female,2024-05-17_10h14.44.985,jersey_experiment_5_v1,2023.2.2,Win32,84.74576271,,,,,,,,,,,,,,,,452.1697,453.4634,453.4634,455.9459,return,0.6128,,50.91145833,,,,,,FBP-RB-18.png,0.4,1.2,53,0.5,0,33,33,52,1,,,,,,,,,,,,,,,,,,,,,,,,,,,,,,,,,,,,,,,,
,,,,,V1_022,19,Female,2024-05-17_10h14.44.985,jersey_experiment_5_v1,2023.2.2,Win32,84.74576271,,,,,,,,,,,,,,,,455.9461,457.2399,457.2399,458.5341,return,0.4843,,61.84895833,,,,,,FBP-YG-71.png,0.4,1.2,18,0.5,0,34,34,17,1,,,,,,,,,,,,,,,,,,,,,,,,,,,,,,,,,,,,,,,,
,,,,,V1_022,19,Female,2024-05-17_10h14.44.985,jersey_experiment_5_v1,2023.2.2,Win32,84.74576271,,,,,,,,,,,,,,,,458.5344,459.8282,459.8282,463.0284,return,0.8864,,61.45833333,,,,,,FBP-OG-91.png,0.4,1.2,43,0.5,0,35,35,42,1,,,,,,,,,,,,,,,,,,,,,,,,,,,,,,,,,,,,,,,,
,,,,,V1_022,19,Female,2024-05-17_10h14.44.985,jersey_experiment_5_v1,2023.2.2,Win32,84.74576271,,,,,,,,,,,,,,,,463.0286,464.3225,464.3225,467.5463,return,2.2594,,49.08854167,,,,,,FBP-RB-17.png,0.35,1.2,46,0.5,0,36,36,45,1,,,,,,,,,,,,,,,,,,,,,,,,,,,,,,,,,,,,,,,,
,,,,,V1_022,19,Female,2024-05-17_10h14.44.985,jersey_experiment_5_v1,2023.2.2,Win32,84.74576271,,,,,,,,,,,,,,,,467.5465,468.8404,468.8404,470.9817,return,0.5562,,69.79166667,,,,,,FBP-OG-81.png,0.43,1.2,39,0.5,0,37,37,38,1,,,,,,,,,,,,,,,,,,,,,,,,,,,,,,,,,,,,,,,,
,,,,,V1_022,19,Female,2024-05-17_10h14.44.985,jersey_experiment_5_v1,2023.2.2,Win32,84.74576271,,,,,,,,,,,,,,,,470.9819,472.2758,472.2758,473.77,return,0.5788,,79.94791667,,,,,,FBP-RB-19.png,0.45,1.2,60,0.5,0,38,38,59,1,,,,,,,,,,,,,,,,,,,,,,,,,,,,,,,,,,,,,,,,
,,,,,V1_022,19,Female,2024-05-17_10h14.44.985,jersey_experiment_5_v1,2023.2.2,Win32,84.74576271,,,,,,,,,,,,,,,,473.7702,475.57,475.5701,477.8761,return,0.6045,,51.5625,,,,,,FBP-PT-17.png,0.37,1.2,2,1,0,39,39,1,1,,,,,,,,,,,,,,,,,,,,,,,,,,,,,,,,,,,,,,,,
,,,,,V1_022,19,Female,2024-05-17_10h14.44.985,jersey_experiment_5_v1,2023.2.2,Win32,84.74576271,,,,,,,,,,,,,,,,477.8763,479.1702,479.1703,481.3705,return,0.5655,,74.34895833,,,,,,FBP-OG-71.png,0.45,1.2,35,0.5,0,40,40,34,1,,,,,,,,,,,,,,,,,,,,,,,,,,,,,,,,,,,,,,,,
,,,,,V1_022,19,Female,2024-05-17_10h14.44.985,jersey_experiment_5_v1,2023.2.2,Win32,84.74576271,,,,,,,,,,,,,,,,481.3706,482.6644,482.6645,484.5469,return,0.5703,,49.08854167,,,,,,FBP-OG-71.png,0.35,1.2,31,0.5,0,41,41,30,1,,,,,,,,,,,,,,,,,,,,,,,,,,,,,,,,,,,,,,,,
,,,,,V1_022,19,Female,2024-05-17_10h14.44.985,jersey_experiment_5_v1,2023.2.2,Win32,84.74576271,,,,,,,,,,,,,,,,484.5472,486.3471,486.3471,488.2175,return,0.6129,,33.07291667,,,,,,FBP-PT-19.png,0.35,1.2,11,1,0,42,42,10,1,,,,,,,,,,,,,,,,,,,,,,,,,,,,,,,,,,,,,,,,
,,,,,V1_022,19,Female,2024-05-17_10h14.44.985,jersey_experiment_5_v1,2023.2.2,Win32,84.74576271,,,,,,,,,,,,,,,,488.2178,489.5117,489.5117,492.1474,return,0.6313,,44.140625,,,,,,FBP-OG-81.png,0.37,1.2,37,0.5,0,43,43,36,1,,,,,,,,,,,,,,,,,,,,,,,,,,,,,,,,,,,,,,,,
,,,,,V1_022,19,Female,2024-05-17_10h14.44.985,jersey_experiment_5_v1,2023.2.2,Win32,84.74576271,,,,,,,,,,,,,,,,492.1476,493.4413,493.4413,496.5474,return,0.4897,,44.53125,,,,,,FBP-OG-91.png,0.35,1.2,41,0.5,0,44,44,40,1,,,,,,,,,,,,,,,,,,,,,,,,,,,,,,,,,,,,,,,,
,,,,,V1_022,19,Female,2024-05-17_10h14.44.985,jersey_experiment_5_v1,2023.2.2,Win32,84.74576271,,,,,,,,,,,,,,,,496.5476,497.8415,497.8416,500.1946,return,0.4998,,74.609375,,,,,,FBP-YG-71.png,0.43,1.2,19,0.5,0,45,45,18,1,,,,,,,,,,,,,,,,,,,,,,,,,,,,,,,,,,,,,,,,
,,,,,V1_022,19,Female,2024-05-17_10h14.44.985,jersey_experiment_5_v1,2023.2.2,Win32,84.74576271,,,,,,,,,,,,,,,,500.1949,501.4887,501.4887,504.23,return,0.8753,,50.26041667,,,,,,FBP-OG-71.png,0.37,1.2,32,0.5,0,46,46,31,1,,,,,,,,,,,,,,,,,,,,,,,,,,,,,,,,,,,,,,,,
,,,,,V1_022,19,Female,2024-05-17_10h14.44.985,jersey_experiment_5_v1,2023.2.2,Win32,84.74576271,,,,,,,,,,,,,,,,504.2303,505.5242,505.5242,507.2536,return,0.5442,,74.609375,,,,,,FBP-YG-81.png,0.43,1.2,24,0.5,0,47,47,23,1,,,,,,,,,,,,,,,,,,,,,,,,,,,,,,,,,,,,,,,,
,,,,,V1_022,19,Female,2024-05-17_10h14.44.985,jersey_experiment_5_v1,2023.2.2,Win32,84.74576271,,,,,,,,,,,,,,,,507.2539,508.5476,508.5476,510.2419,return,0.8675,,58.72395833,,,,,,FBP-RB-18.png,0.37,1.2,52,0.5,0,48,48,51,1,,,,,,,,,,,,,,,,,,,,,,,,,,,,,,,,,,,,,,,,
,,,,,V1_022,19,Female,2024-05-17_10h14.44.985,jersey_experiment_5_v1,2023.2.2,Win32,84.74576271,,,,,,,,,,,,,,,,510.242,511.5361,511.5361,513.595,return,0.6118,,51.82291667,,,,,,FBP-YG-71.png,0.37,1.2,17,0.5,0,49,49,16,1,,,,,,,,,,,,,,,,,,,,,,,,,,,,,,,,,,,,,,,,
,,,,,V1_022,19,Female,2024-05-17_10h14.44.985,jersey_experiment_5_v1,2023.2.2,Win32,84.74576271,,,,,,,,,,,,,,,,513.5952,514.8891,514.8891,516.5363,return,0.5197,,51.30208333,,,,,,FBP-RB-17.png,0.37,1.2,47,0.5,0,50,50,46,1,,,,,,,,,,,,,,,,,,,,,,,,,,,,,,,,,,,,,,,,
,,,,,V1_022,19,Female,2024-05-17_10h14.44.985,jersey_experiment_5_v1,2023.2.2,Win32,84.74576271,,,,,,,,,,,,,,,,516.5365,517.8304,517.8304,519.5598,return,0.5321,,60.02604167,,,,,,FBP-YG-91.png,0.4,1.2,28,0.5,0,51,51,27,1,,,,,,,,,,,,,,,,,,,,,,,,,,,,,,,,,,,,,,,,
,,,,,V1_022,19,Female,2024-05-17_10h14.44.985,jersey_experiment_5_v1,2023.2.2,Win32,84.74576271,,,,,,,,,,,,,,,,519.5601,520.8542,520.8542,523.113,return,0.6025,,75.13020833,,,,,,FBP-YG-71.png,0.45,1.2,20,0.5,0,52,52,19,1,,,,,,,,,,,,,,,,,,,,,,,,,,,,,,,,,,,,,,,,
,,,,,V1_022,19,Female,2024-05-17_10h14.44.985,jersey_experiment_5_v1,2023.2.2,Win32,84.74576271,,,,,,,,,,,,,,,,523.1133,524.913,524.9131,526.4073,return,0.5566,,75.91145833,,,,,,FBP-PT-17.png,0.43,1.2,4,1,0,53,53,3,1,,,,,,,,,,,,,,,,,,,,,,,,,,,,,,,,,,,,,,,,
,,,,,V1_022,19,Female,2024-05-17_10h14.44.985,jersey_experiment_5_v1,2023.2.2,Win32,84.74576271,,,,,,,,,,,,,,,,526.4075,527.7014,527.7014,529.1485,return,0.5648,,67.70833333,,,,,,FBP-OG-71.png,0.4,1.2,33,0.5,0,54,54,32,1,,,,,,,,,,,,,,,,,,,,,,,,,,,,,,,,,,,,,,,,
,,,,,V1_022,19,Female,2024-05-17_10h14.44.985,jersey_experiment_5_v1,2023.2.2,Win32,84.74576271,,,,,,,,,,,,,,,,529.1487,530.9488,530.9488,532.1252,return,0.5791,,79.55729167,,,,,,FBP-PT-18.png,0.45,1.2,10,1,0,55,55,9,1,,,,,,,,,,,,,,,,,,,,,,,,,,,,,,,,,,,,,,,,
,,,,,V1_022,19,Female,2024-05-17_10h14.44.985,jersey_experiment_5_v1,2023.2.2,Win32,84.74576271,,,,,,,,,,,,,,,,532.1254,533.4193,533.4193,535.6899,return,0.495,,72.265625,,,,,,FBP-YG-81.png,0.4,1.2,23,0.5,0,56,56,22,1,,,,,,,,,,,,,,,,,,,,,,,,,,,,,,,,,,,,,,,,
,,,,,V1_022,19,Female,2024-05-17_10h14.44.985,jersey_experiment_5_v1,2023.2.2,Win32,84.74576271,,,,,,,,,,,,,,,,535.69,536.9839,536.9839,538.9724,return,0.6027,,52.99479167,,,,,,FBP-YG-91.png,0.35,1.2,26,0.5,0,57,57,25,1,,,,,,,,,,,,,,,,,,,,,,,,,,,,,,,,,,,,,,,,
,,,,,V1_022,19,Female,2024-05-17_10h14.44.985,jersey_experiment_5_v1,2023.2.2,Win32,84.74576271,,,,,,,,,,,,,,,,538.9727,540.7726,540.7727,543.4668,return,0.5646,,77.21354167,,,,,,FBP-PT-17.png,0.45,1.2,5,1,0,58,58,4,1,,,,,,,,,,,,,,,,,,,,,,,,,,,,,,,,,,,,,,,,
,,,,,V1_022,19,Female,2024-05-17_10h14.44.985,jersey_experiment_5_v1,2023.2.2,Win32,84.74576271,,,,,,,,,,,,,,,,543.467,544.7608,544.7608,546.102,return,0.4725,,70.83333333,,,,,,FBP-RB-18.png,0.43,1.2,54,0.5,0,59,59,53,1,,,,,,,,,,,,,,,,,,,,,,,,,,,,,,,,,,,,,,,,
,,,,,V1_022,19,Female,2024-05-17_10h14.44.985,jersey_experiment_5_v1,2023.2.2,Win32,84.74576271,,,,,,,,,,,,,,,,,,,,,,,,,,,,,,,,,,,,,,,546.1025,666.1066,,,,,,,,,,,,,,,,,,,,,,,,,,,,,,,,,,,,,,
,,,,,V1_022,19,Female,2024-05-17_10h14.44.985,jersey_experiment_5_v1,2023.2.2,Win32,84.74576271,,,,,,,,,,,,,,,,,,,,,,,,,,,,,,,,,,,,,,,,,666.1067,676.3894,return,10.2749,,,,,,,,,,,,,,,,,,,,,,,,,,,,,,,,,,
,,,,,V1_022,19,Female,2024-05-17_10h14.44.985,jersey_experiment_5_v1,2023.2.2,Win32,84.74576271,,,,,,,,,,,,,,,,676.3956,677.695,677.6952,680.6483,return,0.8002,,45.83333333,,,,,,FBP-PT-71.png,0.35,1.2,1,0.5,,,,,,,,,,,,,0,0,0,0,1,,,,,,,,,,,,,,,,,,,,,,,,,,,,
,,,,,V1_022,19,Female,2024-05-17_10h14.44.985,jersey_experiment_5_v1,2023.2.2,Win32,84.74576271,,,,,,,,,,,,,,,,680.6487,682.4482,682.4482,683.7307,return,0.0671,,52.86458333,,,,,,FBP-RB-91.png,0.37,1.2,57,1,,,,,,,,,,,,,0,1,1,56,1,,,,,,,,,,,,,,,,,,,,,,,,,,,,
,,,,,V1_022,19,Female,2024-05-17_10h14.44.985,jersey_experiment_5_v1,2023.2.2,Win32,84.74576271,,,,,,,,,,,,,,,,683.731,685.5307,685.5307,687.5543,return,0.432,,49.86979167,,,,,,FBP-OG-17.png,0.37,1.2,32,1,,,,,,,,,,,,,0,2,2,31,1,,,,,,,,,,,,,,,,,,,,,,,,,,,,
,,,,,V1_022,19,Female,2024-05-17_10h14.44.985,jersey_experiment_5_v1,2023.2.2,Win32,84.74576271,,,,,,,,,,,,,,,,687.5545,689.3546,689.3546,690.9075,return,0.1407,,76.43229167,,,,,,FBP-YG-18.png,0.45,1.2,25,1,,,,,,,,,,,,,0,3,3,24,1,,,,,,,,,,,,,,,,,,,,,,,,,,,,
,,,,,V1_022,19,Female,2024-05-17_10h14.44.985,jersey_experiment_5_v1,2023.2.2,Win32,84.74576271,,,,,,,,,,,,,,,,690.9077,692.7074,692.7074,693.2369,return,0.0743,,74.08854167,,,,,,FBP-OG-17.png,0.43,1.2,34,1,,,,,,,,,,,,,0,4,4,33,1,,,,,,,,,,,,,,,,,,,,,,,,,,,,
,,,,,V1_022,19,Female,2024-05-17_10h14.44.985,jersey_experiment_5_v1,2023.2.2,Win32,84.74576271,,,,,,,,,,,,,,,,693.2372,695.0371,695.0371,696.696,return,0.0384,,50.26041667,,,,,,FBP-OG-19.png,0.37,1.2,42,1,,,,,,,,,,,,,0,5,5,41,1,,,,,,,,,,,,,,,,,,,,,,,,,,,,
,,,,,V1_022,19,Female,2024-05-17_10h14.44.985,jersey_experiment_5_v1,2023.2.2,Win32,84.74576271,,,,,,,,,,,,,,,,696.6962,698.496,698.496,699.7665,return,0.0602,,37.36979167,,,,,,FBP-RB-71.png,0.35,1.2,46,1,,,,,,,,,,,,,0,6,6,45,1,,,,,,,,,,,,,,,,,,,,,,,,,,,,
,,,,,V1_022,19,Female,2024-05-17_10h14.44.985,jersey_experiment_5_v1,2023.2.2,Win32,84.74576271,,,,,,,,,,,,,,,,699.7666,701.5665,701.5665,702.1314,return,0.0425,,55.46875,,,,,,FBP-YG-17.png,0.4,1.2,18,1,,,,,,,,,,,,,0,7,7,17,1,,,,,,,,,,,,,,,,,,,,,,,,,,,,
,,,,,V1_022,19,Female,2024-05-17_10h14.44.985,jersey_experiment_5_v1,2023.2.2,Win32,84.74576271,,,,,,,,,,,,,,,,702.1316,703.4255,703.4255,704.1078,return,0.0613,,50,,,,,,FBP-PT-91.png,0.37,1.2,12,0.5,,,,,,,,,,,,,0,8,8,11,1,,,,,,,,,,,,,,,,,,,,,,,,,,,,
,,,,,V1_022,19,Female,2024-05-17_10h14.44.985,jersey_experiment_5_v1,2023.2.2,Win32,84.74576271,,,,,,,,,,,,,,,,704.108,705.908,705.908,706.8373,return,0.0265,,79.03645833,,,,,,FBP-RB-71.png,0.45,1.2,50,1,,,,,,,,,,,,,0,9,9,49,1,,,,,,,,,,,,,,,,,,,,,,,,,,,,
,,,,,V1_022,19,Female,2024-05-17_10h14.44.985,jersey_experiment_5_v1,2023.2.2,Win32,84.74576271,,,,,,,,,,,,,,,,706.8375,708.1318,708.1318,709.7551,return,0.0613,,74.47916667,,,,,,FBP-PT-71.png,0.4,1.2,3,0.5,,,,,,,,,,,,,0,10,10,2,1,,,,,,,,,,,,,,,,,,,,,,,,,,,,
,,,,,V1_022,19,Female,2024-05-17_10h14.44.985,jersey_experiment_5_v1,2023.2.2,Win32,84.74576271,,,,,,,,,,,,,,,,709.7553,711.0493,711.0493,712.7315,return,0.0707,,46.484375,,,,,,FBP-PT-81.png,0.35,1.2,6,0.5,,,,,,,,,,,,,0,11,11,5,1,,,,,,,,,,,,,,,,,,,,,,,,,,,,
,,,,,V1_022,19,Female,2024-05-17_10h14.44.985,jersey_experiment_5_v1,2023.2.2,Win32,84.74576271,,,,,,,,,,,,,,,,712.7318,714.0259,714.0259,715.3554,return,0.0475,,46.22395833,,,,,,FBP-PT-71.png,0.37,1.2,2,0.5,,,,,,,,,,,,,0,12,12,1,1,,,,,,,,,,,,,,,,,,,,,,,,,,,,
,,,,,V1_022,19,Female,2024-05-17_10h14.44.985,jersey_experiment_5_v1,2023.2.2,Win32,84.74576271,,,,,,,,,,,,,,,,715.3556,717.1554,717.1554,717.8262,return,0.0765,,41.40625,,,,,,FBP-YG-17.png,0.35,1.2,16,1,,,,,,,,,,,,,0,13,13,15,1,,,,,,,,,,,,,,,,,,,,,,,,,,,,
,,,,,V1_022,19,Female,2024-05-17_10h14.44.985,jersey_experiment_5_v1,2023.2.2,Win32,84.74576271,,,,,,,,,,,,,,,,717.8264,719.6261,719.6261,720.6026,return,0.023,,53.125,,,,,,FBP-RB-91.png,0.4,1.2,58,1,,,,,,,,,,,,,0,14,14,57,1,,,,,,,,,,,,,,,,,,,,,,,,,,,,
,,,,,V1_022,19,Female,2024-05-17_10h14.44.985,jersey_experiment_5_v1,2023.2.2,Win32,84.74576271,,,,,,,,,,,,,,,,720.6028,722.4028,722.4028,723.7321,return,0.0416,,75.26041667,,,,,,FBP-OG-19.png,0.45,1.2,45,1,,,,,,,,,,,,,0,15,15,44,1,,,,,,,,,,,,,,,,,,,,,,,,,,,,
,,,,,V1_022,19,Female,2024-05-17_10h14.44.985,jersey_experiment_5_v1,2023.2.2,Win32,84.74576271,,,,,,,,,,,,,,,,723.7323,725.5321,725.5321,726.3792,return,0.0238,,74.21875,,,,,,FBP-YG-17.png,0.43,1.2,19,1,,,,,,,,,,,,,0,16,16,18,1,,,,,,,,,,,,,,,,,,,,,,,,,,,,
,,,,,V1_022,19,Female,2024-05-17_10h14.44.985,jersey_experiment_5_v1,2023.2.2,Win32,84.74576271,,,,,,,,,,,,,,,,726.3794,728.1796,728.1796,729.9796,return,0.0234,,53.515625,,,,,,FBP-YG-18.png,0.37,1.2,22,1,,,,,,,,,,,,,0,17,17,21,1,,,,,,,,,,,,,,,,,,,,,,,,,,,,
,,,,,V1_022,19,Female,2024-05-17_10h14.44.985,jersey_experiment_5_v1,2023.2.2,Win32,84.74576271,,,,,,,,,,,,,,,,729.9798,731.7795,731.7796,733.1443,return,0.0007,,48.4375,,,,,,FBP-RB-91.png,0.35,1.2,56,1,,,,,,,,,,,,,0,18,18,55,1,,,,,,,,,,,,,,,,,,,,,,,,,,,,
,,,,,V1_022,19,Female,2024-05-17_10h14.44.985,jersey_experiment_5_v1,2023.2.2,Win32,84.74576271,,,,,,,,,,,,,,,,733.1445,734.9441,734.9441,735.9444,return,0.0942,,52.99479167,,,,,,FBP-OG-18.png,0.4,1.2,38,1,,,,,,,,,,,,,0,19,19,37,1,,,,,,,,,,,,,,,,,,,,,,,,,,,,
,,,,,V1_022,19,Female,2024-05-17_10h14.44.985,jersey_experiment_5_v1,2023.2.2,Win32,84.74576271,,,,,,,,,,,,,,,,735.9445,737.7445,737.7445,739.2857,return,0.0031,,67.1875,,,,,,FBP-RB-91.png,0.45,1.2,60,1,,,,,,,,,,,,,0,20,20,59,1,,,,,,,,,,,,,,,,,,,,,,,,,,,,
,,,,,V1_022,19,Female,2024-05-17_10h14.44.985,jersey_experiment_5_v1,2023.2.2,Win32,84.74576271,,,,,,,,,,,,,,,,739.2859,740.5797,740.5798,742.2505,return,0.4374,,45.703125,,,,,,FBP-PT-91.png,0.35,1.2,11,0.5,,,,,,,,,,,,,0,21,21,10,1,,,,,,,,,,,,,,,,,,,,,,,,,,,,
,,,,,V1_022,19,Female,2024-05-17_10h14.44.985,jersey_experiment_5_v1,2023.2.2,Win32,84.74576271,,,,,,,,,,,,,,,,742.2507,743.5448,743.5448,745.0153,return,0.3797,,74.86979167,,,,,,FBP-PT-81.png,0.45,1.2,10,0.5,,,,,,,,,,,,,0,22,22,9,1,,,,,,,,,,,,,,,,,,,,,,,,,,,,
,,,,,V1_022,19,Female,2024-05-17_10h14.44.985,jersey_experiment_5_v1,2023.2.2,Win32,84.74576271,,,,,,,,,,,,,,,,745.0155,746.3094,746.3094,747.3683,return,0.0256,,74.73958333,,,,,,FBP-PT-81.png,0.43,1.2,9,0.5,,,,,,,,,,,,,0,23,23,8,1,,,,,,,,,,,,,,,,,,,,,,,,,,,,
,,,,,V1_022,19,Female,2024-05-17_10h14.44.985,jersey_experiment_5_v1,2023.2.2,Win32,84.74576271,,,,,,,,,,,,,,,,747.3685,749.1682,749.1682,750.6625,return,0.4377,,76.5625,,,,,,FBP-RB-81.png,0.43,1.2,54,1,,,,,,,,,,,,,0,24,24,53,1,,,,,,,,,,,,,,,,,,,,,,,,,,,,
,,,,,V1_022,19,Female,2024-05-17_10h14.44.985,jersey_experiment_5_v1,2023.2.2,Win32,84.74576271,,,,,,,,,,,,,,,,750.6628,751.9565,751.9566,753.4629,return,0.013,,69.66145833,,,,,,FBP-PT-81.png,0.4,1.2,8,0.5,,,,,,,,,,,,,0,25,25,7,1,,,,,,,,,,,,,,,,,,,,,,,,,,,,
,,,,,V1_022,19,Female,2024-05-17_10h14.44.985,jersey_experiment_5_v1,2023.2.2,Win32,84.74576271,,,,,,,,,,,,,,,,753.4631,754.7567,754.7567,755.9214,return,0.3973,,70.57291667,,,,,,FBP-PT-91.png,0.43,1.2,14,0.5,,,,,,,,,,,,,0,26,26,13,1,,,,,,,,,,,,,,,,,,,,,,,,,,,,
,,,,,V1_022,19,Female,2024-05-17_10h14.44.985,jersey_experiment_5_v1,2023.2.2,Win32,84.74576271,,,,,,,,,,,,,,,,755.9216,757.7218,757.7218,758.3922,return,0.0004,,75.390625,,,,,,FBP-YG-19.png,0.43,1.2,29,1,,,,,,,,,,,,,0,27,27,28,1,,,,,,,,,,,,,,,,,,,,,,,,,,,,
,,,,,V1_022,19,Female,2024-05-17_10h14.44.985,jersey_experiment_5_v1,2023.2.2,Win32,84.74576271,,,,,,,,,,,,,,,,758.3924,760.1922,760.1922,760.6629,return,0.0508,,71.74479167,,,,,,FBP-OG-17.png,0.4,1.2,33,1,,,,,,,,,,,,,0,28,28,32,1,,,,,,,,,,,,,,,,,,,,,,,,,,,,
,,,,,V1_022,19,Female,2024-05-17_10h14.44.985,jersey_experiment_5_v1,2023.2.2,Win32,84.74576271,,,,,,,,,,,,,,,,760.6631,762.4629,762.463,763.1099,return,0.0278,,71.74479167,,,,,,FBP-YG-18.png,0.43,1.2,24,1,,,,,,,,,,,,,0,29,29,23,1,,,,,,,,,,,,,,,,,,,,,,,,,,,,
,,,,,V1_022,19,Female,2024-05-17_10h14.44.985,jersey_experiment_5_v1,2023.2.2,Win32,84.74576271,,,,,,,,,,,,,,,,763.1102,764.9101,764.9101,765.6748,return,0.0335,,67.05729167,,,,,,FBP-OG-19.png,0.4,1.2,43,1,,,,,,,,,,,,,0,30,30,42,1,,,,,,,,,,,,,,,,,,,,,,,,,,,,
,,,,,V1_022,19,Female,2024-05-17_10h14.44.985,jersey_experiment_5_v1,2023.2.2,Win32,84.74576271,,,,,,,,,,,,,,,,765.675,766.9691,766.9691,767.8749,return,0.0196,,63.54166667,,,,,,FBP-PT-71.png,0.43,1.2,4,0.5,,,,,,,,,,,,,0,31,31,3,1,,,,,,,,,,,,,,,,,,,,,,,,,,,,
,,,,,V1_022,19,Female,2024-05-17_10h14.44.985,jersey_experiment_5_v1,2023.2.2,Win32,84.74576271,,,,,,,,,,,,,,,,767.8751,769.6751,769.6752,770.8279,return,0.033,,55.20833333,,,,,,FBP-RB-81.png,0.37,1.2,52,1,,,,,,,,,,,,,0,32,32,51,1,,,,,,,,,,,,,,,,,,,,,,,,,,,,
,,,,,V1_022,19,Female,2024-05-17_10h14.44.985,jersey_experiment_5_v1,2023.2.2,Win32,84.74576271,,,,,,,,,,,,,,,,770.8281,772.628,772.6281,773.7811,return,0.1822,,52.21354167,,,,,,FBP-YG-18.png,0.35,1.2,21,1,,,,,,,,,,,,,0,33,33,20,1,,,,,,,,,,,,,,,,,,,,,,,,,,,,
,,,,,V1_022,19,Female,2024-05-17_10h14.44.985,jersey_experiment_5_v1,2023.2.2,Win32,84.74576271,,,,,,,,,,,,,,,,773.7814,775.5812,775.5812,776.8282,return,0.447,,69.66145833,,,,,,FBP-OG-17.png,0.45,1.2,35,1,,,,,,,,,,,,,0,34,34,34,1,,,,,,,,,,,,,,,,,,,,,,,,,,,,
,,,,,V1_022,19,Female,2024-05-17_10h14.44.985,jersey_experiment_5_v1,2023.2.2,Win32,84.74576271,,,,,,,,,,,,,,,,776.8283,778.1221,778.1222,778.6636,return,0.0127,,66.796875,,,,,,FBP-PT-91.png,0.4,1.2,13,0.5,,,,,,,,,,,,,0,35,35,12,1,,,,,,,,,,,,,,,,,,,,,,,,,,,,
,,,,,V1_022,19,Female,2024-05-17_10h14.44.985,jersey_experiment_5_v1,2023.2.2,Win32,84.74576271,,,,,,,,,,,,,,,,778.6638,780.4635,780.4636,781.5106,return,0.201,,76.5625,,,,,,FBP-OG-18.png,0.45,1.2,40,1,,,,,,,,,,,,,0,36,36,39,1,,,,,,,,,,,,,,,,,,,,,,,,,,,,
,,,,,V1_022,19,Female,2024-05-17_10h14.44.985,jersey_experiment_5_v1,2023.2.2,Win32,84.74576271,,,,,,,,,,,,,,,,781.5108,783.3107,783.3107,784.1461,return,0.0182,,76.953125,,,,,,FBP-YG-17.png,0.45,1.2,20,1,,,,,,,,,,,,,0,37,37,19,1,,,,,,,,,,,,,,,,,,,,,,,,,,,,
,,,,,V1_022,19,Female,2024-05-17_10h14.44.985,jersey_experiment_5_v1,2023.2.2,Win32,84.74576271,,,,,,,,,,,,,,,,784.1463,785.9462,785.9462,786.7696,return,0.0064,,72.39583333,,,,,,FBP-YG-17.png,0.37,1.2,17,1,,,,,,,,,,,,,0,38,38,16,1,,,,,,,,,,,,,,,,,,,,,,,,,,,,
,,,,,V1_022,19,Female,2024-05-17_10h14.44.985,jersey_experiment_5_v1,2023.2.2,Win32,84.74576271,,,,,,,,,,,,,,,,786.7699,788.5699,788.5699,789.0757,return,0.0285,,73.95833333,,,,,,FBP-RB-81.png,0.45,1.2,55,1,,,,,,,,,,,,,0,39,39,54,1,,,,,,,,,,,,,,,,,,,,,,,,,,,,
,,,,,V1_022,19,Female,2024-05-17_10h14.44.985,jersey_experiment_5_v1,2023.2.2,Win32,84.74576271,,,,,,,,,,,,,,,,789.0759,790.8757,790.8757,791.6757,return,0.0796,,67.96875,,,,,,FBP-RB-71.png,0.37,1.2,47,1,,,,,,,,,,,,,0,40,40,46,1,,,,,,,,,,,,,,,,,,,,,,,,,,,,
,,,,,V1_022,19,Female,2024-05-17_10h14.44.985,jersey_experiment_5_v1,2023.2.2,Win32,84.74576271,,,,,,,,,,,,,,,,791.6759,793.4761,793.4761,794.9229,return,0.0237,,54.6875,,,,,,FBP-OG-17.png,0.35,1.2,31,1,,,,,,,,,,,,,0,41,41,30,1,,,,,,,,,,,,,,,,,,,,,,,,,,,,
,,,,,V1_022,19,Female,2024-05-17_10h14.44.985,jersey_experiment_5_v1,2023.2.2,Win32,84.74576271,,,,,,,,,,,,,,,,794.9231,796.7229,796.723,797.723,return,0.3999,,56.90104167,,,,,,FBP-RB-81.png,0.4,1.2,53,1,,,,,,,,,,,,,0,42,42,52,1,,,,,,,,,,,,,,,,,,,,,,,,,,,,
,,,,,V1_022,19,Female,2024-05-17_10h14.44.985,jersey_experiment_5_v1,2023.2.2,Win32,84.74576271,,,,,,,,,,,,,,,,797.7233,799.5234,799.5234,801.876,return,1.5566,,52.47395833,,,,,,FBP-OG-18.png,0.35,1.2,36,1,,,,,,,,,,,,,0,43,43,35,1,,,,,,,,,,,,,,,,,,,,,,,,,,,,
,,,,,V1_022,19,Female,2024-05-17_10h14.44.985,jersey_experiment_5_v1,2023.2.2,Win32,84.74576271,,,,,,,,,,,,,,,,801.8763,803.1705,803.1705,804.2293,return,0.0027,,69.01041667,,,,,,FBP-PT-71.png,0.45,1.2,5,0.5,,,,,,,,,,,,,0,44,44,4,1,,,,,,,,,,,,,,,,,,,,,,,,,,,,
,,,,,V1_022,19,Female,2024-05-17_10h14.44.985,jersey_experiment_5_v1,2023.2.2,Win32,84.74576271,,,,,,,,,,,,,,,,804.2295,806.0294,806.0294,806.8528,return,0.1088,,64.58333333,,,,,,FBP-YG-19.png,0.4,1.2,28,1,,,,,,,,,,,,,0,45,45,27,1,,,,,,,,,,,,,,,,,,,,,,,,,,,,
,,,,,V1_022,19,Female,2024-05-17_10h14.44.985,jersey_experiment_5_v1,2023.2.2,Win32,84.74576271,,,,,,,,,,,,,,,,806.8531,808.1471,808.1471,809.2883,return,0.4002,,54.81770833,,,,,,FBP-PT-81.png,0.37,1.2,7,0.5,,,,,,,,,,,,,0,46,46,6,1,,,,,,,,,,,,,,,,,,,,,,,,,,,,
,,,,,V1_022,19,Female,2024-05-17_10h14.44.985,jersey_experiment_5_v1,2023.2.2,Win32,84.74576271,,,,,,,,,,,,,,,,809.2886,811.0882,811.0882,812.5001,return,0.4537,,52.86458333,,,,,,FBP-OG-18.png,0.37,1.2,37,1,,,,,,,,,,,,,0,47,47,36,1,,,,,,,,,,,,,,,,,,,,,,,,,,,,
,,,,,V1_022,19,Female,2024-05-17_10h14.44.985,jersey_experiment_5_v1,2023.2.2,Win32,84.74576271,,,,,,,,,,,,,,,,812.5004,814.3003,814.3004,814.8884,return,0.1319,,58.46354167,,,,,,FBP-RB-71.png,0.43,1.2,49,1,,,,,,,,,,,,,0,48,48,48,1,,,,,,,,,,,,,,,,,,,,,,,,,,,,
,,,,,V1_022,19,Female,2024-05-17_10h14.44.985,jersey_experiment_5_v1,2023.2.2,Win32,84.74576271,,,,,,,,,,,,,,,,814.8886,816.6885,816.6885,818.9708,return,0.4474,,50.65104167,,,,,,FBP-YG-19.png,0.35,1.2,26,1,,,,,,,,,,,,,0,49,49,25,1,,,,,,,,,,,,,,,,,,,,,,,,,,,,
,,,,,V1_022,19,Female,2024-05-17_10h14.44.985,jersey_experiment_5_v1,2023.2.2,Win32,84.74576271,,,,,,,,,,,,,,,,818.9711,820.7709,820.771,821.2887,return,0.047,,55.859375,,,,,,FBP-RB-71.png,0.4,1.2,48,1,,,,,,,,,,,,,0,50,50,47,1,,,,,,,,,,,,,,,,,,,,,,,,,,,,
,,,,,V1_022,19,Female,2024-05-17_10h14.44.985,jersey_experiment_5_v1,2023.2.2,Win32,84.74576271,,,,,,,,,,,,,,,,821.2889,823.0886,823.0886,823.5945,return,0.0382,,57.03125,,,,,,FBP-YG-18.png,0.4,1.2,23,1,,,,,,,,,,,,,0,51,51,22,1,,,,,,,,,,,,,,,,,,,,,,,,,,,,
,,,,,V1_022,19,Female,2024-05-17_10h14.44.985,jersey_experiment_5_v1,2023.2.2,Win32,84.74576271,,,,,,,,,,,,,,,,823.5948,825.3947,825.3948,826.0535,return,0.1697,,61.71875,,,,,,FBP-OG-18.png,0.43,1.2,39,1,,,,,,,,,,,,,0,52,52,38,1,,,,,,,,,,,,,,,,,,,,,,,,,,,,
,,,,,V1_022,19,Female,2024-05-17_10h14.44.985,jersey_experiment_5_v1,2023.2.2,Win32,84.74576271,,,,,,,,,,,,,,,,826.0536,827.8536,827.8536,828.4183,return,0.0199,,67.70833333,,,,,,FBP-RB-91.png,0.43,1.2,59,1,,,,,,,,,,,,,0,53,53,58,1,,,,,,,,,,,,,,,,,,,,,,,,,,,,
,,,,,V1_022,19,Female,2024-05-17_10h14.44.985,jersey_experiment_5_v1,2023.2.2,Win32,84.74576271,,,,,,,,,,,,,,,,828.4185,830.2185,830.2185,831.3831,return,0.3915,,53.25520833,,,,,,FBP-OG-19.png,0.35,1.2,41,1,,,,,,,,,,,,,0,54,54,40,1,,,,,,,,,,,,,,,,,,,,,,,,,,,,
,,,,,V1_022,19,Female,2024-05-17_10h14.44.985,jersey_experiment_5_v1,2023.2.2,Win32,84.74576271,,,,,,,,,,,,,,,,831.3833,832.6774,832.6775,833.9244,return,0.3475,,68.88020833,,,,,,FBP-PT-91.png,0.45,1.2,15,0.5,,,,,,,,,,,,,0,55,55,14,1,,,,,,,,,,,,,,,,,,,,,,,,,,,,
,,,,,V1_022,19,Female,2024-05-17_10h14.44.985,jersey_experiment_5_v1,2023.2.2,Win32,84.74576271,,,,,,,,,,,,,,,,833.9247,835.7246,835.7246,836.6655,return,0.0008,,56.51041667,,,,,,FBP-RB-81.png,0.35,1.2,51,1,,,,,,,,,,,,,0,56,56,50,1,,,,,,,,,,,,,,,,,,,,,,,,,,,,
,,,,,V1_022,19,Female,2024-05-17_10h14.44.985,jersey_experiment_5_v1,2023.2.2,Win32,84.74576271,,,,,,,,,,,,,,,,836.6657,838.466,838.466,839.5481,return,0.0146,,75.390625,,,,,,FBP-YG-19.png,0.45,1.2,30,1,,,,,,,,,,,,,0,57,57,29,1,,,,,,,,,,,,,,,,,,,,,,,,,,,,
,,,,,V1_022,19,Female,2024-05-17_10h14.44.985,jersey_experiment_5_v1,2023.2.2,Win32,84.74576271,,,,,,,,,,,,,,,,839.5483,841.3481,841.3481,842.3129,return,0.0013,,74.73958333,,,,,,FBP-OG-19.png,0.43,1.2,44,1,,,,,,,,,,,,,0,58,58,43,1,,,,,,,,,,,,,,,,,,,,,,,,,,,,
,,,,,V1_022,19,Female,2024-05-17_10h14.44.985,jersey_experiment_5_v1,2023.2.2,Win32,84.74576271,,,,,,,,,,,,,,,,842.3131,844.113,844.113,845.2541,return,0.319,,66.14583333,,,,,,FBP-YG-19.png,0.37,1.2,27,1,,,,,,,,,,,,,0,59,59,26,1,,,,,,,,,,,,,,,,,,,,,,,,,,,,
,,,,,V1_022,19,Female,2024-05-17_10h14.44.985,jersey_experiment_5_v1,2023.2.2,Win32,84.74576271,,,,,,,,,,,,,,,,845.2557,847.0542,847.0542,847.9601,return,0.0494,,66.796875,,,,,,FBP-YG-71.png,0.4,1.2,18,1,,,,,,,,,,,,,,,,,,0,0,0,17,1,,,,,,,,,,,,,,,,,,,,,,,
,,,,,V1_022,19,Female,2024-05-17_10h14.44.985,jersey_experiment_5_v1,2023.2.2,Win32,84.74576271,,,,,,,,,,,,,,,,847.9603,849.7603,849.7603,850.7251,return,0.0508,,71.875,,,,,,FBP-OG-81.png,0.43,1.2,39,1,,,,,,,,,,,,,,,,,,0,1,1,38,1,,,,,,,,,,,,,,,,,,,,,,,
,,,,,V1_022,19,Female,2024-05-17_10h14.44.985,jersey_experiment_5_v1,2023.2.2,Win32,84.74576271,,,,,,,,,,,,,,,,850.7253,852.525,852.525,853.1721,return,0.0292,,75.390625,,,,,,FBP-RB-18.png,0.45,1.2,55,1,,,,,,,,,,,,,,,,,,0,2,2,54,1,,,,,,,,,,,,,,,,,,,,,,,
,,,,,V1_022,19,Female,2024-05-17_10h14.44.985,jersey_experiment_5_v1,2023.2.2,Win32,84.74576271,,,,,,,,,,,,,,,,853.1724,854.9726,854.9727,856.2663,return,0.0128,,53.64583333,,,,,,FBP-RB-19.png,0.35,1.2,56,1,,,,,,,,,,,,,,,,,,0,3,3,55,1,,,,,,,,,,,,,,,,,,,,,,,
,,,,,V1_022,19,Female,2024-05-17_10h14.44.985,jersey_experiment_5_v1,2023.2.2,Win32,84.74576271,,,,,,,,,,,,,,,,856.2666,858.0667,858.0667,859.9135,return,0.4386,,55.20833333,,,,,,FBP-RB-18.png,0.37,1.2,52,1,,,,,,,,,,,,,,,,,,0,4,4,51,1,,,,,,,,,,,,,,,,,,,,,,,
,,,,,V1_022,19,Female,2024-05-17_10h14.44.985,jersey_experiment_5_v1,2023.2.2,Win32,84.74576271,,,,,,,,,,,,,,,,859.9139,861.2076,861.2076,862.4548,return,0.1335,,56.51041667,,,,,,FBP-PT-18.png,0.37,1.2,7,0.5,,,,,,,,,,,,,,,,,,0,5,5,6,1,,,,,,,,,,,,,,,,,,,,,,,
,,,,,V1_022,19,Female,2024-05-17_10h14.44.985,jersey_experiment_5_v1,2023.2.2,Win32,84.74576271,,,,,,,,,,,,,,,,862.4549,863.7489,863.7489,864.5489,return,0.262,,64.453125,,,,,,FBP-PT-18.png,0.43,1.2,9,0.5,,,,,,,,,,,,,,,,,,0,6,6,8,1,,,,,,,,,,,,,,,,,,,,,,,
,,,,,V1_022,19,Female,2024-05-17_10h14.44.985,jersey_experiment_5_v1,2023.2.2,Win32,84.74576271,,,,,,,,,,,,,,,,864.5491,865.8432,865.8432,867.0314,return,0.1912,,60.41666667,,,,,,FBP-PT-17.png,0.4,1.2,3,0.5,,,,,,,,,,,,,,,,,,0,7,7,2,1,,,,,,,,,,,,,,,,,,,,,,,
,,,,,V1_022,19,Female,2024-05-17_10h14.44.985,jersey_experiment_5_v1,2023.2.2,Win32,84.74576271,,,,,,,,,,,,,,,,867.0316,868.3255,868.3255,869.4903,return,0.0436,,71.09375,,,,,,FBP-PT-18.png,0.45,1.2,10,0.5,,,,,,,,,,,,,,,,,,0,8,8,9,1,,,,,,,,,,,,,,,,,,,,,,,
,,,,,V1_022,19,Female,2024-05-17_10h14.44.985,jersey_experiment_5_v1,2023.2.2,Win32,84.74576271,,,,,,,,,,,,,,,,869.4904,871.2904,871.2904,872.514,return,0.0553,,72.00520833,,,,,,FBP-YG-71.png,0.43,1.2,19,1,,,,,,,,,,,,,,,,,,0,9,9,18,1,,,,,,,,,,,,,,,,,,,,,,,
,,,,,V1_022,19,Female,2024-05-17_10h14.44.985,jersey_experiment_5_v1,2023.2.2,Win32,84.74576271,,,,,,,,,,,,,,,,872.5142,874.314,874.314,875.1376,return,0.0766,,77.08333333,,,,,,FBP-OG-81.png,0.45,1.2,40,1,,,,,,,,,,,,,,,,,,0,10,10,39,1,,,,,,,,,,,,,,,,,,,,,,,
,,,,,V1_022,19,Female,2024-05-17_10h14.44.985,jersey_experiment_5_v1,2023.2.2,Win32,84.74576271,,,,,,,,,,,,,,,,875.1378,876.9376,876.9376,878.1612,return,0.3621,,64.0625,,,,,,FBP-RB-19.png,0.37,1.2,57,1,,,,,,,,,,,,,,,,,,0,11,11,56,1,,,,,,,,,,,,,,,,,,,,,,,
,,,,,V1_022,19,Female,2024-05-17_10h14.44.985,jersey_experiment_5_v1,2023.2.2,Win32,84.74576271,,,,,,,,,,,,,,,,878.1614,879.9613,879.9614,880.9025,return,0.1334,,61.84895833,,,,,,FBP-RB-18.png,0.35,1.2,51,1,,,,,,,,,,,,,,,,,,0,12,12,50,1,,,,,,,,,,,,,,,,,,,,,,,
,,,,,V1_022,19,Female,2024-05-17_10h14.44.985,jersey_experiment_5_v1,2023.2.2,Win32,84.74576271,,,,,,,,,,,,,,,,880.9027,882.1967,882.1968,883.5732,return,0.744,,67.578125,,,,,,FBP-PT-19.png,0.43,1.2,14,0.5,,,,,,,,,,,,,,,,,,0,13,13,13,1,,,,,,,,,,,,,,,,,,,,,,,
,,,,,V1_022,19,Female,2024-05-17_10h14.44.985,jersey_experiment_5_v1,2023.2.2,Win32,84.74576271,,,,,,,,,,,,,,,,883.5733,885.3733,885.3733,886.338,return,0.0766,,74.34895833,,,,,,FBP-OG-91.png,0.45,1.2,45,1,,,,,,,,,,,,,,,,,,0,14,14,44,1,,,,,,,,,,,,,,,,,,,,,,,
,,,,,V1_022,19,Female,2024-05-17_10h14.44.985,jersey_experiment_5_v1,2023.2.2,Win32,84.74576271,,,,,,,,,,,,,,,,886.3382,888.1381,888.1381,889.3499,return,0.3077,,70.05208333,,,,,,FBP-OG-91.png,0.4,1.2,43,1,,,,,,,,,,,,,,,,,,0,15,15,42,1,,,,,,,,,,,,,,,,,,,,,,,
,,,,,V1_022,19,Female,2024-05-17_10h14.44.985,jersey_experiment_5_v1,2023.2.2,Win32,84.74576271,,,,,,,,,,,,,,,,889.3501,891.1498,891.1498,892.6207,return,0.8231,,65.234375,,,,,,FBP-OG-71.png,0.4,1.2,33,1,,,,,,,,,,,,,,,,,,0,16,16,32,1,,,,,,,,,,,,,,,,,,,,,,,
,,,,,V1_022,19,Female,2024-05-17_10h14.44.985,jersey_experiment_5_v1,2023.2.2,Win32,84.74576271,,,,,,,,,,,,,,,,892.6209,894.4209,894.4209,895.3031,return,0.3445,,60.9375,,,,,,FBP-OG-71.png,0.37,1.2,32,1,,,,,,,,,,,,,,,,,,0,17,17,31,1,,,,,,,,,,,,,,,,,,,,,,,
,,,,,V1_022,19,Female,2024-05-17_10h14.44.985,jersey_experiment_5_v1,2023.2.2,Win32,84.74576271,,,,,,,,,,,,,,,,895.3032,897.103,897.103,897.6913,return,0.118,,61.19791667,,,,,,FBP-OG-81.png,0.37,1.2,37,1,,,,,,,,,,,,,,,,,,0,18,18,36,1,,,,,,,,,,,,,,,,,,,,,,,
,,,,,V1_022,19,Female,2024-05-17_10h14.44.985,jersey_experiment_5_v1,2023.2.2,Win32,84.74576271,,,,,,,,,,,,,,,,897.6916,898.9855,898.9855,900.2209,return,0.0471,,50.91145833,,,,,,FBP-PT-19.png,0.35,1.2,11,0.5,,,,,,,,,,,,,,,,,,0,19,19,10,1,,,,,,,,,,,,,,,,,,,,,,,
,,,,,V1_022,19,Female,2024-05-17_10h14.44.985,jersey_experiment_5_v1,2023.2.2,Win32,84.74576271,,,,,,,,,,,,,,,,900.2211,902.021,902.0211,902.8564,return,0.085,,46.22395833,,,,,,FBP-OG-81.png,0.35,1.2,36,1,,,,,,,,,,,,,,,,,,0,20,20,35,1,,,,,,,,,,,,,,,,,,,,,,,
,,,,,V1_022,19,Female,2024-05-17_10h14.44.985,jersey_experiment_5_v1,2023.2.2,Win32,84.74576271,,,,,,,,,,,,,,,,902.8567,904.6564,904.6564,905.2681,return,0.124,,66.27604167,,,,,,FBP-OG-71.png,0.43,1.2,34,1,,,,,,,,,,,,,,,,,,0,21,21,33,1,,,,,,,,,,,,,,,,,,,,,,,
,,,,,V1_022,19,Female,2024-05-17_10h14.44.985,jersey_experiment_5_v1,2023.2.2,Win32,84.74576271,,,,,,,,,,,,,,,,905.2683,906.5623,906.5623,907.8799,return,0.1203,,47.13541667,,,,,,FBP-PT-18.png,0.35,1.2,6,0.5,,,,,,,,,,,,,,,,,,0,22,22,5,1,,,,,,,,,,,,,,,,,,,,,,,
,,,,,V1_022,19,Female,2024-05-17_10h14.44.985,jersey_experiment_5_v1,2023.2.2,Win32,84.74576271,,,,,,,,,,,,,,,,907.8801,909.6801,909.6802,910.4683,return,0.0765,,55.46875,,,,,,FBP-OG-81.png,0.4,1.2,38,1,,,,,,,,,,,,,,,,,,0,23,23,37,1,,,,,,,,,,,,,,,,,,,,,,,
,,,,,V1_022,19,Female,2024-05-17_10h14.44.985,jersey_experiment_5_v1,2023.2.2,Win32,84.74576271,,,,,,,,,,,,,,,,910.4685,911.7624,911.7624,912.6094,return,0.0181,,48.17708333,,,,,,FBP-PT-17.png,0.35,1.2,1,0.5,,,,,,,,,,,,,,,,,,0,24,24,0,1,,,,,,,,,,,,,,,,,,,,,,,
,,,,,V1_022,19,Female,2024-05-17_10h14.44.985,jersey_experiment_5_v1,2023.2.2,Win32,84.74576271,,,,,,,,,,,,,,,,912.6097,913.9038,913.9038,914.8919,return,0.094,,47.91666667,,,,,,FBP-PT-17.png,0.37,1.2,2,0.5,,,,,,,,,,,,,,,,,,0,25,25,1,1,,,,,,,,,,,,,,,,,,,,,,,
,,,,,V1_022,19,Female,2024-05-17_10h14.44.985,jersey_experiment_5_v1,2023.2.2,Win32,84.74576271,,,,,,,,,,,,,,,,914.8922,916.1861,916.1862,917.6569,return,0.0946,,61.71875,,,,,,FBP-PT-17.png,0.43,1.2,4,0.5,,,,,,,,,,,,,,,,,,0,26,26,3,1,,,,,,,,,,,,,,,,,,,,,,,
,,,,,V1_022,19,Female,2024-05-17_10h14.44.985,jersey_experiment_5_v1,2023.2.2,Win32,84.74576271,,,,,,,,,,,,,,,,917.6572,919.4569,919.4569,920.5863,return,0.0475,,59.765625,,,,,,FBP-RB-17.png,0.4,1.2,48,1,,,,,,,,,,,,,,,,,,0,27,27,47,1,,,,,,,,,,,,,,,,,,,,,,,
,,,,,V1_022,19,Female,2024-05-17_10h14.44.985,jersey_experiment_5_v1,2023.2.2,Win32,84.74576271,,,,,,,,,,,,,,,,920.5865,922.3867,922.3867,923.6334,return,0.5384,,48.4375,,,,,,FBP-OG-91.png,0.35,1.2,41,1,,,,,,,,,,,,,,,,,,0,28,28,40,1,,,,,,,,,,,,,,,,,,,,,,,
,,,,,V1_022,19,Female,2024-05-17_10h14.44.985,jersey_experiment_5_v1,2023.2.2,Win32,84.74576271,,,,,,,,,,,,,,,,923.6335,925.4335,925.4335,926.21,return,0.1121,,67.96875,,,,,,FBP-OG-91.png,0.43,1.2,44,1,,,,,,,,,,,,,,,,,,0,29,29,43,1,,,,,,,,,,,,,,,,,,,,,,,
,,,,,V1_022,19,Female,2024-05-17_10h14.44.985,jersey_experiment_5_v1,2023.2.2,Win32,84.74576271,,,,,,,,,,,,,,,,926.2102,928.0103,928.0103,929.2925,return,0.0565,,62.63020833,,,,,,FBP-RB-19.png,0.4,1.2,58,1,,,,,,,,,,,,,,,,,,0,30,30,57,1,,,,,,,,,,,,,,,,,,,,,,,
,,,,,V1_022,19,Female,2024-05-17_10h14.44.985,jersey_experiment_5_v1,2023.2.2,Win32,84.74576271,,,,,,,,,,,,,,,,929.2928,931.0927,931.0927,931.5867,return,0.0198,,57.55208333,,,,,,FBP-YG-91.png,0.37,1.2,27,1,,,,,,,,,,,,,,,,,,0,31,31,26,1,,,,,,,,,,,,,,,,,,,,,,,
,,,,,V1_022,19,Female,2024-05-17_10h14.44.985,jersey_experiment_5_v1,2023.2.2,Win32,84.74576271,,,,,,,,,,,,,,,,931.587,932.8809,932.8809,933.8339,return,0.0475,,63.15104167,,,,,,FBP-PT-19.png,0.4,1.2,13,0.5,,,,,,,,,,,,,,,,,,0,32,32,12,1,,,,,,,,,,,,,,,,,,,,,,,
,,,,,V1_022,19,Female,2024-05-17_10h14.44.985,jersey_experiment_5_v1,2023.2.2,Win32,84.74576271,,,,,,,,,,,,,,,,933.8341,935.634,935.634,936.4223,return,0.0134,,60.28645833,,,,,,FBP-RB-17.png,0.37,1.2,47,1,,,,,,,,,,,,,,,,,,0,33,33,46,1,,,,,,,,,,,,,,,,,,,,,,,
,,,,,V1_022,19,Female,2024-05-17_10h14.44.985,jersey_experiment_5_v1,2023.2.2,Win32,84.74576271,,,,,,,,,,,,,,,,936.4225,938.2223,938.2223,939.2342,return,0.0201,,55.59895833,,,,,,FBP-YG-81.png,0.35,1.2,21,1,,,,,,,,,,,,,,,,,,0,34,34,20,1,,,,,,,,,,,,,,,,,,,,,,,
,,,,,V1_022,19,Female,2024-05-17_10h14.44.985,jersey_experiment_5_v1,2023.2.2,Win32,84.74576271,,,,,,,,,,,,,,,,939.2344,941.034,941.034,941.9637,return,0.0617,,63.93229167,,,,,,FBP-YG-91.png,0.4,1.2,28,1,,,,,,,,,,,,,,,,,,0,35,35,27,1,,,,,,,,,,,,,,,,,,,,,,,
,,,,,V1_022,19,Female,2024-05-17_10h14.44.985,jersey_experiment_5_v1,2023.2.2,Win32,84.74576271,,,,,,,,,,,,,,,,941.9639,943.2578,943.2578,944.2108,return,0.0871,,67.83854167,,,,,,FBP-PT-19.png,0.45,1.2,15,0.5,,,,,,,,,,,,,,,,,,0,36,36,14,1,,,,,,,,,,,,,,,,,,,,,,,
,,,,,V1_022,19,Female,2024-05-17_10h14.44.985,jersey_experiment_5_v1,2023.2.2,Win32,84.74576271,,,,,,,,,,,,,,,,944.211,945.5048,945.5048,946.9402,return,0.0331,,55.859375,,,,,,FBP-PT-18.png,0.4,1.2,8,0.5,,,,,,,,,,,,,,,,,,0,37,37,7,1,,,,,,,,,,,,,,,,,,,,,,,
,,,,,V1_022,19,Female,2024-05-17_10h14.44.985,jersey_experiment_5_v1,2023.2.2,Win32,84.74576271,,,,,,,,,,,,,,,,946.9404,948.7404,948.7405,949.5875,return,0.0895,,64.19270833,,,,,,FBP-RB-18.png,0.43,1.2,54,1,,,,,,,,,,,,,,,,,,0,38,38,53,1,,,,,,,,,,,,,,,,,,,,,,,
,,,,,V1_022,19,Female,2024-05-17_10h14.44.985,jersey_experiment_5_v1,2023.2.2,Win32,84.74576271,,,,,,,,,,,,,,,,949.5877,951.3876,951.3876,952.317,return,0.1078,,55.33854167,,,,,,FBP-OG-91.png,0.37,1.2,42,1,,,,,,,,,,,,,,,,,,0,39,39,41,1,,,,,,,,,,,,,,,,,,,,,,,
,,,,,V1_022,19,Female,2024-05-17_10h14.44.985,jersey_experiment_5_v1,2023.2.2,Win32,84.74576271,,,,,,,,,,,,,,,,952.3172,953.6111,953.6112,954.4582,return,0.0143,,66.015625,,,,,,FBP-PT-17.png,0.45,1.2,5,0.5,,,,,,,,,,,,,,,,,,0,40,40,4,1,,,,,,,,,,,,,,,,,,,,,,,
,,,,,V1_022,19,Female,2024-05-17_10h14.44.985,jersey_experiment_5_v1,2023.2.2,Win32,84.74576271,,,,,,,,,,,,,,,,954.4585,956.2583,956.2583,958.0348,return,0.0757,,49.86979167,,,,,,FBP-YG-91.png,0.35,1.2,26,1,,,,,,,,,,,,,,,,,,0,41,41,25,1,,,,,,,,,,,,,,,,,,,,,,,
,,,,,V1_022,19,Female,2024-05-17_10h14.44.985,jersey_experiment_5_v1,2023.2.2,Win32,84.74576271,,,,,,,,,,,,,,,,958.035,959.8348,959.8349,960.5878,return,0.0093,,65.49479167,,,,,,FBP-OG-71.png,0.45,1.2,35,1,,,,,,,,,,,,,,,,,,0,42,42,34,1,,,,,,,,,,,,,,,,,,,,,,,
,,,,,V1_022,19,Female,2024-05-17_10h14.44.985,jersey_experiment_5_v1,2023.2.2,Win32,84.74576271,,,,,,,,,,,,,,,,960.5881,962.388,962.388,963.1761,return,0.0821,,60.02604167,,,,,,FBP-RB-19.png,0.45,1.2,60,1,,,,,,,,,,,,,,,,,,0,43,43,59,1,,,,,,,,,,,,,,,,,,,,,,,
,,,,,V1_022,19,Female,2024-05-17_10h14.44.985,jersey_experiment_5_v1,2023.2.2,Win32,84.74576271,,,,,,,,,,,,,,,,963.1763,964.9763,964.9763,965.5055,return,0.0181,,70.3125,,,,,,FBP-RB-17.png,0.45,1.2,50,1,,,,,,,,,,,,,,,,,,0,44,44,49,1,,,,,,,,,,,,,,,,,,,,,,,
,,,,,V1_022,19,Female,2024-05-17_10h14.44.985,jersey_experiment_5_v1,2023.2.2,Win32,84.74576271,,,,,,,,,,,,,,,,965.5057,967.3057,967.3057,968.6822,return,0.0092,,52.21354167,,,,,,FBP-RB-17.png,0.35,1.2,46,1,,,,,,,,,,,,,,,,,,0,45,45,45,1,,,,,,,,,,,,,,,,,,,,,,,
,,,,,V1_022,19,Female,2024-05-17_10h14.44.985,jersey_experiment_5_v1,2023.2.2,Win32,84.74576271,,,,,,,,,,,,,,,,968.6824,970.4824,970.4824,971.4941,return,0.0636,,46.09375,,,,,,FBP-YG-71.png,0.35,1.2,16,1,,,,,,,,,,,,,,,,,,0,46,46,15,1,,,,,,,,,,,,,,,,,,,,,,,
,,,,,V1_022,19,Female,2024-05-17_10h14.44.985,jersey_experiment_5_v1,2023.2.2,Win32,84.74576271,,,,,,,,,,,,,,,,971.4944,973.2942,973.2942,974.119,return,0.0592,,62.63020833,,,,,,FBP-YG-81.png,0.43,1.2,24,1,,,,,,,,,,,,,,,,,,0,47,47,23,1,,,,,,,,,,,,,,,,,,,,,,,
,,,,,V1_022,19,Female,2024-05-17_10h14.44.985,jersey_experiment_5_v1,2023.2.2,Win32,84.74576271,,,,,,,,,,,,,,,,974.1192,975.9196,975.9197,976.4734,return,0.0004,,52.99479167,,,,,,FBP-YG-81.png,0.37,1.2,22,1,,,,,,,,,,,,,,,,,,0,48,48,21,1,,,,,,,,,,,,,,,,,,,,,,,
,,,,,V1_022,19,Female,2024-05-17_10h14.44.985,jersey_experiment_5_v1,2023.2.2,Win32,84.74576271,,,,,,,,,,,,,,,,976.4736,978.2707,978.2708,979.3815,return,0.3905,,67.1875,,,,,,FBP-RB-19.png,0.43,1.2,59,1,,,,,,,,,,,,,,,,,,0,49,49,58,1,,,,,,,,,,,,,,,,,,,,,,,
,,,,,V1_022,19,Female,2024-05-17_10h14.44.985,jersey_experiment_5_v1,2023.2.2,Win32,84.74576271,,,,,,,,,,,,,,,,979.3816,981.1794,981.1794,981.7111,return,0.0241,,62.890625,,,,,,FBP-RB-18.png,0.4,1.2,53,1,,,,,,,,,,,,,,,,,,0,50,50,52,1,,,,,,,,,,,,,,,,,,,,,,,
,,,,,V1_022,19,Female,2024-05-17_10h14.44.985,jersey_experiment_5_v1,2023.2.2,Win32,84.74576271,,,,,,,,,,,,,,,,981.7112,983.5063,983.5063,984.1109,return,0.0004,,67.05729167,,,,,,FBP-YG-91.png,0.43,1.2,29,1,,,,,,,,,,,,,,,,,,0,51,51,28,1,,,,,,,,,,,,,,,,,,,,,,,
,,,,,V1_022,19,Female,2024-05-17_10h14.44.985,jersey_experiment_5_v1,2023.2.2,Win32,84.74576271,,,,,,,,,,,,,,,,984.1111,985.9066,985.9066,986.8241,return,0.0252,,70.96354167,,,,,,FBP-YG-91.png,0.45,1.2,30,1,,,,,,,,,,,,,,,,,,0,52,52,29,1,,,,,,,,,,,,,,,,,,,,,,,
,,,,,V1_022,19,Female,2024-05-17_10h14.44.985,jersey_experiment_5_v1,2023.2.2,Win32,84.74576271,,,,,,,,,,,,,,,,986.8243,988.6242,988.6243,989.3451,return,0.024,,59.24479167,,,,,,FBP-YG-71.png,0.37,1.2,17,1,,,,,,,,,,,,,,,,,,0,53,53,16,1,,,,,,,,,,,,,,,,,,,,,,,
,,,,,V1_022,19,Female,2024-05-17_10h14.44.985,jersey_experiment_5_v1,2023.2.2,Win32,84.74576271,,,,,,,,,,,,,,,,989.3452,991.1418,991.1419,992.3568,return,0.3633,,67.1875,,,,,,FBP-RB-17.png,0.43,1.2,49,1,,,,,,,,,,,,,,,,,,0,54,54,48,1,,,,,,,,,,,,,,,,,,,,,,,
,,,,,V1_022,19,Female,2024-05-17_10h14.44.985,jersey_experiment_5_v1,2023.2.2,Win32,84.74576271,,,,,,,,,,,,,,,,992.357,994.1537,994.1537,994.9185,return,0.086,,68.48958333,,,,,,FBP-YG-71.png,0.45,1.2,20,1,,,,,,,,,,,,,,,,,,0,55,55,19,1,,,,,,,,,,,,,,,,,,,,,,,
,,,,,V1_022,19,Female,2024-05-17_10h14.44.985,jersey_experiment_5_v1,2023.2.2,Win32,84.74576271,,,,,,,,,,,,,,,,994.9187,996.7185,996.7185,998.1303,return,0.0312,,64.19270833,,,,,,FBP-YG-81.png,0.4,1.2,23,1,,,,,,,,,,,,,,,,,,0,56,56,22,1,,,,,,,,,,,,,,,,,,,,,,,
,,,,,V1_022,19,Female,2024-05-17_10h14.44.985,jersey_experiment_5_v1,2023.2.2,Win32,84.74576271,,,,,,,,,,,,,,,,998.1305,999.9304,999.9305,1000.5112,return,0.0472,,73.17708333,,,,,,FBP-YG-81.png,0.45,1.2,25,1,,,,,,,,,,,,,,,,,,0,57,57,24,1,,,,,,,,,,,,,,,,,,,,,,,
,,,,,V1_022,19,Female,2024-05-17_10h14.44.985,jersey_experiment_5_v1,2023.2.2,Win32,84.74576271,,,,,,,,,,,,,,,,1000.5114,1002.3098,1002.3098,1004.4365,return,0.1234,,52.47395833,,,,,,FBP-OG-71.png,0.35,1.2,31,1,,,,,,,,,,,,,,,,,,0,58,58,30,1,,,,,,,,,,,,,,,,,,,,,,,
,,,,,V1_022,19,Female,2024-05-17_10h14.44.985,jersey_experiment_5_v1,2023.2.2,Win32,84.74576271,,,,,,,,,,,,,,,,1004.4367,1005.7304,1005.7305,1007.5704,return,0.0365,,50.390625,,,,,,FBP-PT-19.png,0.37,1.2,12,0.5,,,,,,,,,,,,,,,,,,0,59,59,11,1,,,,,,,,,,,,,,,,,,,,,,,
,,,,,V1_022,19,Female,2024-05-17_10h14.44.985,jersey_experiment_5_v1,2023.2.2,Win32,84.74576271,,,,,,,,,,,,,,,,,,,,,,,,,,,,,,,,,,,,,,,,,,,,,,,,,,,,,,,,1007.5709,1009.3457,return,1.7645,,,,,,,,,,,,,,,,,,,
,,,,,V1_022,19,Female,2024-05-17_10h14.44.985,jersey_experiment_5_v1,2023.2.2,Win32,84.74576271,,,,,,,,,,,,,,,,,,,,,,,,,,,,,,,,,,,,,,,,,,,,,,,,,,,,,,,,,,,,,1009.3458,1013.0635,1,1.8013,return,1.893,,,,,,,,,,,,
,,,,,V1_022,19,Female,2024-05-17_10h14.44.985,jersey_experiment_5_v1,2023.2.2,Win32,84.74576271,,,,,,,,,,,,,,,,,,,,,,,,,,,,,,,,,,,,,,,,,,,,,,,,,,,,,,,,,,,,,,,,,,,,1013.0636,1059.9023,if  our perception of stimuli changes based on prior visual stimuli,right,42.0959,,,,,,
,,,,,V1_022,19,Female,2024-05-17_10h14.44.985,jersey_experiment_5_v1,2023.2.2,Win32,84.74576271,,,,,,,,,,,,,,,,,,,,,,,,,,,,,,,,,,,,,,,,,,,,,,,,,,,,,,,,,,,,,,,,,,,,,,,,,,1059.9023,1061.5959,return,1.6836,