requirements.started,requirements.stopped,key_resp_3.keys,key_resp_3.rt,key_resp_3.duration,Subject ID,Age,Gender,date,expName,psychopyVersion,OS,frameRate,instructions1.started,instructions1.stopped,key_resp.keys,key_resp.rt,key_resp.duration,example.started,example.stopped,enter_2.keys,enter_2.rt,enter_2.duration,instructions2.started,instructions2.stopped,enter_3.keys,enter_3.rt,enter_3.duration,image.started,image.stopped,slider_2.started,slider_2.stopped,next.keys,next.rt,next.duration,slider.response,trial_block_1.thisRepN,trial_block_1.thisTrialN,trial_block_1.thisN,trial_block_1.thisIndex,trial_block_1.ran,Path,Width,Height,Index,Duration,trial_block_2.thisRepN,trial_block_2.thisTrialN,trial_block_2.thisN,trial_block_2.thisIndex,trial_block_2.ran,rest_break.started,rest_break.stopped,end_break.started,end_break.stopped,key_resp_5.keys,key_resp_5.rt,key_resp_5.duration,trial_block_3.thisRepN,trial_block_3.thisTrialN,trial_block_3.thisN,trial_block_3.thisIndex,trial_block_3.ran,trial_block_4.thisRepN,trial_block_4.thisTrialN,trial_block_4.thisN,trial_block_4.thisIndex,trial_block_4.ran,questions_intro.started,questions_intro.stopped,enter_12.keys,enter_12.rt,enter_12.duration,question2.started,question2.stopped,question_doingbest.response,question_doingbest.rt,enter_15.keys,enter_15.rt,enter_15.duration,pattern.started,pattern.stopped,pattern_2.text,enter_17.keys,enter_17.rt,enter_17.duration,thankyou.started,thankyou.stopped,enter_14.keys,enter_14.rt,enter_14.duration
0,14.2184,return,14.209,,V1_036,21,Female,2024-05-23_10h42.18.502,jersey_experiment_5_v1,2023.2.2,Win32,84.74576271,,,,,,,,,,,,,,,,,,,,,,,,,,,,,,,,,,,,,,,,,,,,,,,,,,,,,,,,,,,,,,,,,,,,,,,,,,,,,,
,,,,,V1_036,21,Female,2024-05-23_10h42.18.502,jersey_experiment_5_v1,2023.2.2,Win32,84.74576271,14.2185,21.3245,return,7.0832,,,,,,,,,,,,,,,,,,,,,,,,,,,,,,,,,,,,,,,,,,,,,,,,,,,,,,,,,,,,,,,,,,,,,,,,,,
,,,,,V1_036,21,Female,2024-05-23_10h42.18.502,jersey_experiment_5_v1,2023.2.2,Win32,84.74576271,,,,,,21.3246,26.0691,return,4.7109,,,,,,,,,,,,,,,,,,,,,,,,,,,,,,,,,,,,,,,,,,,,,,,,,,,,,,,,,,,,,,,,,,,,,
,,,,,V1_036,21,Female,2024-05-23_10h42.18.502,jersey_experiment_5_v1,2023.2.2,Win32,84.74576271,,,,,,,,,,,26.0691,59.6554,return,33.5719,,,,,,,,,,,,,,,,,,,,,,,,,,,,,,,,,,,,,,,,,,,,,,,,,,,,,,,,,,,,,,,,
,,,,,V1_036,21,Female,2024-05-23_10h42.18.502,jersey_experiment_5_v1,2023.2.2,Win32,84.74576271,,,,,,,,,,,,,,,,59.6615,60.961,60.961,71.9026,return,3.8797,,74.609375,0,0,0,53,1,FBP-RB-81.png,0.43,1.2,54,0.5,,,,,,,,,,,,,,,,,,,,,,,,,,,,,,,,,,,,,,,,,,,,,
,,,,,V1_036,21,Female,2024-05-23_10h42.18.502,jersey_experiment_5_v1,2023.2.2,Win32,84.74576271,,,,,,,,,,,,,,,,71.907,73.2086,73.2087,76.8911,return,1.4721,,74.08854167,0,1,1,57,1,FBP-RB-91.png,0.4,1.2,58,0.5,,,,,,,,,,,,,,,,,,,,,,,,,,,,,,,,,,,,,,,,,,,,,
,,,,,V1_036,21,Female,2024-05-23_10h42.18.502,jersey_experiment_5_v1,2023.2.2,Win32,84.74576271,,,,,,,,,,,,,,,,76.8914,78.1853,78.1854,81.2914,return,1.2371,,50.390625,0,2,2,22,1,FBP-YG-18.png,0.4,1.2,23,0.5,,,,,,,,,,,,,,,,,,,,,,,,,,,,,,,,,,,,,,,,,,,,,
,,,,,V1_036,21,Female,2024-05-23_10h42.18.502,jersey_experiment_5_v1,2023.2.2,Win32,84.74576271,,,,,,,,,,,,,,,,81.2918,82.5854,82.5855,87.1267,return,1.301,,99.34895833,0,3,3,43,1,FBP-OG-19.png,0.43,1.2,44,0.5,,,,,,,,,,,,,,,,,,,,,,,,,,,,,,,,,,,,,,,,,,,,,
,,,,,V1_036,21,Female,2024-05-23_10h42.18.502,jersey_experiment_5_v1,2023.2.2,Win32,84.74576271,,,,,,,,,,,,,,,,87.127,88.4208,88.4208,91.7975,return,1.5495,,25.13020833,0,4,4,36,1,FBP-OG-18.png,0.37,1.2,37,0.5,,,,,,,,,,,,,,,,,,,,,,,,,,,,,,,,,,,,,,,,,,,,,
,,,,,V1_036,21,Female,2024-05-23_10h42.18.502,jersey_experiment_5_v1,2023.2.2,Win32,84.74576271,,,,,,,,,,,,,,,,91.7977,93.5978,93.5978,97.1159,return,0.9782,,99.73958333,0,5,5,9,1,FBP-PT-81.png,0.45,1.2,10,1,,,,,,,,,,,,,,,,,,,,,,,,,,,,,,,,,,,,,,,,,,,,,
,,,,,V1_036,21,Female,2024-05-23_10h42.18.502,jersey_experiment_5_v1,2023.2.2,Win32,84.74576271,,,,,,,,,,,,,,,,97.1162,98.9155,98.9155,100.9978,return,0.9812,,99.609375,0,6,6,4,1,FBP-PT-71.png,0.45,1.2,5,1,,,,,,,,,,,,,,,,,,,,,,,,,,,,,,,,,,,,,,,,,,,,,
,,,,,V1_036,21,Female,2024-05-23_10h42.18.502,jersey_experiment_5_v1,2023.2.2,Win32,84.74576271,,,,,,,,,,,,,,,,100.998,102.798,102.798,105.845,return,1.6675,,51.43229167,0,7,7,6,1,FBP-PT-81.png,0.37,1.2,7,1,,,,,,,,,,,,,,,,,,,,,,,,,,,,,,,,,,,,,,,,,,,,,
,,,,,V1_036,21,Female,2024-05-23_10h42.18.502,jersey_experiment_5_v1,2023.2.2,Win32,84.74576271,,,,,,,,,,,,,,,,105.8452,107.6451,107.6452,110.0452,return,1.2243,,25.26041667,0,8,8,10,1,FBP-PT-91.png,0.35,1.2,11,1,,,,,,,,,,,,,,,,,,,,,,,,,,,,,,,,,,,,,,,,,,,,,
,,,,,V1_036,21,Female,2024-05-23_10h42.18.502,jersey_experiment_5_v1,2023.2.2,Win32,84.74576271,,,,,,,,,,,,,,,,110.0456,111.3393,111.3395,114.2923,return,1.5388,,2.213541667,0,9,9,25,1,FBP-YG-19.png,0.35,1.2,26,0.5,,,,,,,,,,,,,,,,,,,,,,,,,,,,,,,,,,,,,,,,,,,,,
,,,,,V1_036,21,Female,2024-05-23_10h42.18.502,jersey_experiment_5_v1,2023.2.2,Win32,84.74576271,,,,,,,,,,,,,,,,114.2925,115.5866,115.5866,119.1985,return,1.2135,,59.89583333,0,10,10,27,1,FBP-YG-19.png,0.4,1.2,28,0.5,,,,,,,,,,,,,,,,,,,,,,,,,,,,,,,,,,,,,,,,,,,,,
,,,,,V1_036,21,Female,2024-05-23_10h42.18.502,jersey_experiment_5_v1,2023.2.2,Win32,84.74576271,,,,,,,,,,,,,,,,119.1991,120.4926,120.4926,122.3165,return,0.7313,,49.73958333,0,11,11,31,1,FBP-OG-17.png,0.37,1.2,32,0.5,,,,,,,,,,,,,,,,,,,,,,,,,,,,,,,,,,,,,,,,,,,,,
,,,,,V1_036,21,Female,2024-05-23_10h42.18.502,jersey_experiment_5_v1,2023.2.2,Win32,84.74576271,,,,,,,,,,,,,,,,122.3171,123.6102,123.6103,125.3172,return,0.6803,,25,0,12,12,20,1,FBP-YG-18.png,0.35,1.2,21,0.5,,,,,,,,,,,,,,,,,,,,,,,,,,,,,,,,,,,,,,,,,,,,,
,,,,,V1_036,21,Female,2024-05-23_10h42.18.502,jersey_experiment_5_v1,2023.2.2,Win32,84.74576271,,,,,,,,,,,,,,,,125.3174,126.6106,126.6106,128.3635,return,0.6375,,25.390625,0,13,13,35,1,FBP-OG-18.png,0.35,1.2,36,0.5,,,,,,,,,,,,,,,,,,,,,,,,,,,,,,,,,,,,,,,,,,,,,
,,,,,V1_036,21,Female,2024-05-23_10h42.18.502,jersey_experiment_5_v1,2023.2.2,Win32,84.74576271,,,,,,,,,,,,,,,,128.3638,130.1634,130.1636,132.8695,return,0.7021,,98.95833333,0,14,14,7,1,FBP-PT-81.png,0.4,1.2,8,1,,,,,,,,,,,,,,,,,,,,,,,,,,,,,,,,,,,,,,,,,,,,,
,,,,,V1_036,21,Female,2024-05-23_10h42.18.502,jersey_experiment_5_v1,2023.2.2,Win32,84.74576271,,,,,,,,,,,,,,,,132.8698,134.1636,134.1638,135.6227,return,0.6425,,98.95833333,0,15,15,24,1,FBP-YG-18.png,0.45,1.2,25,0.5,,,,,,,,,,,,,,,,,,,,,,,,,,,,,,,,,,,,,,,,,,,,,
,,,,,V1_036,21,Female,2024-05-23_10h42.18.502,jersey_experiment_5_v1,2023.2.2,Win32,84.74576271,,,,,,,,,,,,,,,,135.6232,136.9173,136.9174,139.0461,return,0.6163,,50,0,16,16,50,1,FBP-RB-81.png,0.35,1.2,51,0.5,,,,,,,,,,,,,,,,,,,,,,,,,,,,,,,,,,,,,,,,,,,,,
,,,,,V1_036,21,Female,2024-05-23_10h42.18.502,jersey_experiment_5_v1,2023.2.2,Win32,84.74576271,,,,,,,,,,,,,,,,139.0463,140.3404,140.3405,141.964,return,0.5787,,50.13020833,0,17,17,46,1,FBP-RB-71.png,0.37,1.2,47,0.5,,,,,,,,,,,,,,,,,,,,,,,,,,,,,,,,,,,,,,,,,,,,,
,,,,,V1_036,21,Female,2024-05-23_10h42.18.502,jersey_experiment_5_v1,2023.2.2,Win32,84.74576271,,,,,,,,,,,,,,,,141.9642,143.764,143.7641,145.67,return,0.5723,,97.52604167,0,18,18,3,1,FBP-PT-71.png,0.43,1.2,4,1,,,,,,,,,,,,,,,,,,,,,,,,,,,,,,,,,,,,,,,,,,,,,
,,,,,V1_036,21,Female,2024-05-23_10h42.18.502,jersey_experiment_5_v1,2023.2.2,Win32,84.74576271,,,,,,,,,,,,,,,,145.6703,146.9641,146.9642,148.8114,return,0.8368,,74.47916667,0,19,19,37,1,FBP-OG-18.png,0.4,1.2,38,0.5,,,,,,,,,,,,,,,,,,,,,,,,,,,,,,,,,,,,,,,,,,,,,
,,,,,V1_036,21,Female,2024-05-23_10h42.18.502,jersey_experiment_5_v1,2023.2.2,Win32,84.74576271,,,,,,,,,,,,,,,,148.8116,150.1055,150.1055,152.9644,return,0.715,,99.73958333,0,20,20,38,1,FBP-OG-18.png,0.43,1.2,39,0.5,,,,,,,,,,,,,,,,,,,,,,,,,,,,,,,,,,,,,,,,,,,,,
,,,,,V1_036,21,Female,2024-05-23_10h42.18.502,jersey_experiment_5_v1,2023.2.2,Win32,84.74576271,,,,,,,,,,,,,,,,152.9647,154.2586,154.2586,156.0233,return,0.5706,,49.73958333,0,21,21,30,1,FBP-OG-17.png,0.35,1.2,31,0.5,,,,,,,,,,,,,,,,,,,,,,,,,,,,,,,,,,,,,,,,,,,,,
,,,,,V1_036,21,Female,2024-05-23_10h42.18.502,jersey_experiment_5_v1,2023.2.2,Win32,84.74576271,,,,,,,,,,,,,,,,156.0235,157.3175,157.3176,159.7176,return,0.4875,,26.69270833,0,22,22,16,1,FBP-YG-17.png,0.37,1.2,17,0.5,,,,,,,,,,,,,,,,,,,,,,,,,,,,,,,,,,,,,,,,,,,,,
,,,,,V1_036,21,Female,2024-05-23_10h42.18.502,jersey_experiment_5_v1,2023.2.2,Win32,84.74576271,,,,,,,,,,,,,,,,159.7179,161.5178,161.5179,163.5766,return,0.5686,,55.72916667,0,23,23,11,1,FBP-PT-91.png,0.37,1.2,12,1,,,,,,,,,,,,,,,,,,,,,,,,,,,,,,,,,,,,,,,,,,,,,
,,,,,V1_036,21,Female,2024-05-23_10h42.18.502,jersey_experiment_5_v1,2023.2.2,Win32,84.74576271,,,,,,,,,,,,,,,,163.5769,164.8707,164.8708,167.1649,return,0.6809,,99.609375,0,24,24,19,1,FBP-YG-17.png,0.45,1.2,20,0.5,,,,,,,,,,,,,,,,,,,,,,,,,,,,,,,,,,,,,,,,,,,,,
,,,,,V1_036,21,Female,2024-05-23_10h42.18.502,jersey_experiment_5_v1,2023.2.2,Win32,84.74576271,,,,,,,,,,,,,,,,167.1652,168.4591,168.4592,169.8473,return,0.6168,,98.56770833,0,25,25,39,1,FBP-OG-18.png,0.45,1.2,40,0.5,,,,,,,,,,,,,,,,,,,,,,,,,,,,,,,,,,,,,,,,,,,,,
,,,,,V1_036,21,Female,2024-05-23_10h42.18.502,jersey_experiment_5_v1,2023.2.2,Win32,84.74576271,,,,,,,,,,,,,,,,169.8476,171.1416,171.1416,173.1416,return,0.6883,,48.046875,0,26,26,40,1,FBP-OG-19.png,0.35,1.2,41,0.5,,,,,,,,,,,,,,,,,,,,,,,,,,,,,,,,,,,,,,,,,,,,,
,,,,,V1_036,21,Female,2024-05-23_10h42.18.502,jersey_experiment_5_v1,2023.2.2,Win32,84.74576271,,,,,,,,,,,,,,,,173.1418,174.9419,174.9419,176.6947,return,0.6777,,98.95833333,0,27,27,13,1,FBP-PT-91.png,0.43,1.2,14,1,,,,,,,,,,,,,,,,,,,,,,,,,,,,,,,,,,,,,,,,,,,,,
,,,,,V1_036,21,Female,2024-05-23_10h42.18.502,jersey_experiment_5_v1,2023.2.2,Win32,84.74576271,,,,,,,,,,,,,,,,176.695,177.9887,177.9887,179.7535,return,0.8012,,76.5625,0,28,28,21,1,FBP-YG-18.png,0.37,1.2,22,0.5,,,,,,,,,,,,,,,,,,,,,,,,,,,,,,,,,,,,,,,,,,,,,
,,,,,V1_036,21,Female,2024-05-23_10h42.18.502,jersey_experiment_5_v1,2023.2.2,Win32,84.74576271,,,,,,,,,,,,,,,,179.7537,181.5539,181.554,184.0596,return,0.6019,,59.50520833,0,29,29,1,1,FBP-PT-71.png,0.37,1.2,2,1,,,,,,,,,,,,,,,,,,,,,,,,,,,,,,,,,,,,,,,,,,,,,
,,,,,V1_036,21,Female,2024-05-23_10h42.18.502,jersey_experiment_5_v1,2023.2.2,Win32,84.74576271,,,,,,,,,,,,,,,,184.0598,185.3539,185.3539,186.9185,return,0.6535,,75.65104167,0,30,30,42,1,FBP-OG-19.png,0.4,1.2,43,0.5,,,,,,,,,,,,,,,,,,,,,,,,,,,,,,,,,,,,,,,,,,,,,
,,,,,V1_036,21,Female,2024-05-23_10h42.18.502,jersey_experiment_5_v1,2023.2.2,Win32,84.74576271,,,,,,,,,,,,,,,,186.9189,188.7188,188.7188,190.3892,return,0.5701,,96.875,0,31,31,14,1,FBP-PT-91.png,0.45,1.2,15,1,,,,,,,,,,,,,,,,,,,,,,,,,,,,,,,,,,,,,,,,,,,,,
,,,,,V1_036,21,Female,2024-05-23_10h42.18.502,jersey_experiment_5_v1,2023.2.2,Win32,84.74576271,,,,,,,,,,,,,,,,190.3894,191.6834,191.6834,193.2247,return,0.6755,,98.95833333,0,32,32,28,1,FBP-YG-19.png,0.43,1.2,29,0.5,,,,,,,,,,,,,,,,,,,,,,,,,,,,,,,,,,,,,,,,,,,,,
,,,,,V1_036,21,Female,2024-05-23_10h42.18.502,jersey_experiment_5_v1,2023.2.2,Win32,84.74576271,,,,,,,,,,,,,,,,193.225,194.519,194.519,195.9777,return,0.7214,,98.828125,0,33,33,54,1,FBP-RB-81.png,0.45,1.2,55,0.5,,,,,,,,,,,,,,,,,,,,,,,,,,,,,,,,,,,,,,,,,,,,,
,,,,,V1_036,21,Female,2024-05-23_10h42.18.502,jersey_experiment_5_v1,2023.2.2,Win32,84.74576271,,,,,,,,,,,,,,,,195.9778,197.2719,197.2719,198.5427,return,0.6023,,98.828125,0,34,34,34,1,FBP-OG-17.png,0.45,1.2,35,0.5,,,,,,,,,,,,,,,,,,,,,,,,,,,,,,,,,,,,,,,,,,,,,
,,,,,V1_036,21,Female,2024-05-23_10h42.18.502,jersey_experiment_5_v1,2023.2.2,Win32,84.74576271,,,,,,,,,,,,,,,,198.5428,199.8366,199.8367,201.0603,return,0.5488,,98.828125,0,35,35,29,1,FBP-YG-19.png,0.45,1.2,30,0.5,,,,,,,,,,,,,,,,,,,,,,,,,,,,,,,,,,,,,,,,,,,,,
,,,,,V1_036,21,Female,2024-05-23_10h42.18.502,jersey_experiment_5_v1,2023.2.2,Win32,84.74576271,,,,,,,,,,,,,,,,201.0605,202.3545,202.3545,204.2134,return,0.7962,,96.875,0,36,36,18,1,FBP-YG-17.png,0.43,1.2,19,0.5,,,,,,,,,,,,,,,,,,,,,,,,,,,,,,,,,,,,,,,,,,,,,
,,,,,V1_036,21,Female,2024-05-23_10h42.18.502,jersey_experiment_5_v1,2023.2.2,Win32,84.74576271,,,,,,,,,,,,,,,,204.2137,205.5075,205.5076,206.7311,return,0.5557,,89.71354167,0,37,37,33,1,FBP-OG-17.png,0.43,1.2,34,0.5,,,,,,,,,,,,,,,,,,,,,,,,,,,,,,,,,,,,,,,,,,,,,
,,,,,V1_036,21,Female,2024-05-23_10h42.18.502,jersey_experiment_5_v1,2023.2.2,Win32,84.74576271,,,,,,,,,,,,,,,,206.7314,208.0253,208.0253,209.4959,return,0.4525,,90.49479167,0,38,38,47,1,FBP-RB-71.png,0.4,1.2,48,0.5,,,,,,,,,,,,,,,,,,,,,,,,,,,,,,,,,,,,,,,,,,,,,
,,,,,V1_036,21,Female,2024-05-23_10h42.18.502,jersey_experiment_5_v1,2023.2.2,Win32,84.74576271,,,,,,,,,,,,,,,,209.496,210.7899,210.79,212.6371,return,0.3672,,49.86979167,0,39,39,51,1,FBP-RB-81.png,0.37,1.2,52,0.5,,,,,,,,,,,,,,,,,,,,,,,,,,,,,,,,,,,,,,,,,,,,,
,,,,,V1_036,21,Female,2024-05-23_10h42.18.502,jersey_experiment_5_v1,2023.2.2,Win32,84.74576271,,,,,,,,,,,,,,,,212.6374,213.9313,213.9314,214.9667,return,0.4421,,51.30208333,0,40,40,56,1,FBP-RB-91.png,0.37,1.2,57,0.5,,,,,,,,,,,,,,,,,,,,,,,,,,,,,,,,,,,,,,,,,,,,,
,,,,,V1_036,21,Female,2024-05-23_10h42.18.502,jersey_experiment_5_v1,2023.2.2,Win32,84.74576271,,,,,,,,,,,,,,,,214.9669,216.2607,216.2607,217.4021,return,0.5812,,52.60416667,0,41,41,52,1,FBP-RB-81.png,0.4,1.2,53,0.5,,,,,,,,,,,,,,,,,,,,,,,,,,,,,,,,,,,,,,,,,,,,,
,,,,,V1_036,21,Female,2024-05-23_10h42.18.502,jersey_experiment_5_v1,2023.2.2,Win32,84.74576271,,,,,,,,,,,,,,,,217.4024,218.6962,218.6962,219.8374,return,0.4802,,52.08333333,0,42,42,26,1,FBP-YG-19.png,0.37,1.2,27,0.5,,,,,,,,,,,,,,,,,,,,,,,,,,,,,,,,,,,,,,,,,,,,,
,,,,,V1_036,21,Female,2024-05-23_10h42.18.502,jersey_experiment_5_v1,2023.2.2,Win32,84.74576271,,,,,,,,,,,,,,,,219.8376,221.6375,221.6375,223.5434,return,1.0152,,72.39583333,0,43,43,2,1,FBP-PT-71.png,0.4,1.2,3,1,,,,,,,,,,,,,,,,,,,,,,,,,,,,,,,,,,,,,,,,,,,,,
,,,,,V1_036,21,Female,2024-05-23_10h42.18.502,jersey_experiment_5_v1,2023.2.2,Win32,84.74576271,,,,,,,,,,,,,,,,223.5435,225.3436,225.3436,227.3435,return,0.715,,32.29166667,0,44,44,5,1,FBP-PT-81.png,0.35,1.2,6,1,,,,,,,,,,,,,,,,,,,,,,,,,,,,,,,,,,,,,,,,,,,,,
,,,,,V1_036,21,Female,2024-05-23_10h42.18.502,jersey_experiment_5_v1,2023.2.2,Win32,84.74576271,,,,,,,,,,,,,,,,227.3437,228.6376,228.6376,230.5908,return,0.5279,,74.21875,0,45,45,44,1,FBP-OG-19.png,0.45,1.2,45,0.5,,,,,,,,,,,,,,,,,,,,,,,,,,,,,,,,,,,,,,,,,,,,,
,,,,,V1_036,21,Female,2024-05-23_10h42.18.502,jersey_experiment_5_v1,2023.2.2,Win32,84.74576271,,,,,,,,,,,,,,,,230.591,231.8849,231.885,233.579,return,0.4962,,50,0,46,46,41,1,FBP-OG-19.png,0.37,1.2,42,0.5,,,,,,,,,,,,,,,,,,,,,,,,,,,,,,,,,,,,,,,,,,,,,
,,,,,V1_036,21,Female,2024-05-23_10h42.18.502,jersey_experiment_5_v1,2023.2.2,Win32,84.74576271,,,,,,,,,,,,,,,,233.5791,234.8732,234.8732,236.8616,return,0.484,,90.49479167,0,47,47,58,1,FBP-RB-91.png,0.43,1.2,59,0.5,,,,,,,,,,,,,,,,,,,,,,,,,,,,,,,,,,,,,,,,,,,,,
,,,,,V1_036,21,Female,2024-05-23_10h42.18.502,jersey_experiment_5_v1,2023.2.2,Win32,84.74576271,,,,,,,,,,,,,,,,236.8619,238.1557,238.1558,239.9322,return,0.707,,51.30208333,0,48,48,32,1,FBP-OG-17.png,0.4,1.2,33,0.5,,,,,,,,,,,,,,,,,,,,,,,,,,,,,,,,,,,,,,,,,,,,,
,,,,,V1_036,21,Female,2024-05-23_10h42.18.502,jersey_experiment_5_v1,2023.2.2,Win32,84.74576271,,,,,,,,,,,,,,,,239.9324,241.2264,241.2264,242.9676,return,0.4291,,99.34895833,0,49,49,49,1,FBP-RB-71.png,0.45,1.2,50,0.5,,,,,,,,,,,,,,,,,,,,,,,,,,,,,,,,,,,,,,,,,,,,,
,,,,,V1_036,21,Female,2024-05-23_10h42.18.502,jersey_experiment_5_v1,2023.2.2,Win32,84.74576271,,,,,,,,,,,,,,,,242.9678,244.7681,244.7681,245.6149,return,0.4365,,99.08854167,0,50,50,8,1,FBP-PT-81.png,0.43,1.2,9,1,,,,,,,,,,,,,,,,,,,,,,,,,,,,,,,,,,,,,,,,,,,,,
,,,,,V1_036,21,Female,2024-05-23_10h42.18.502,jersey_experiment_5_v1,2023.2.2,Win32,84.74576271,,,,,,,,,,,,,,,,245.6151,246.9089,246.9089,248.4737,return,0.3332,,52.86458333,0,51,51,15,1,FBP-YG-17.png,0.35,1.2,16,0.5,,,,,,,,,,,,,,,,,,,,,,,,,,,,,,,,,,,,,,,,,,,,,
,,,,,V1_036,21,Female,2024-05-23_10h42.18.502,jersey_experiment_5_v1,2023.2.2,Win32,84.74576271,,,,,,,,,,,,,,,,248.4738,249.7679,249.7679,251.3562,return,0.3295,,34.63541667,0,52,52,45,1,FBP-RB-71.png,0.35,1.2,46,0.5,,,,,,,,,,,,,,,,,,,,,,,,,,,,,,,,,,,,,,,,,,,,,
,,,,,V1_036,21,Female,2024-05-23_10h42.18.502,jersey_experiment_5_v1,2023.2.2,Win32,84.74576271,,,,,,,,,,,,,,,,251.3565,253.1562,253.1563,254.3916,return,0.3797,,33.33333333,0,53,53,12,1,FBP-PT-91.png,0.4,1.2,13,1,,,,,,,,,,,,,,,,,,,,,,,,,,,,,,,,,,,,,,,,,,,,,
,,,,,V1_036,21,Female,2024-05-23_10h42.18.502,jersey_experiment_5_v1,2023.2.2,Win32,84.74576271,,,,,,,,,,,,,,,,254.3919,255.6856,255.6857,256.9917,return,0.4,,35.02604167,0,54,54,17,1,FBP-YG-17.png,0.4,1.2,18,0.5,,,,,,,,,,,,,,,,,,,,,,,,,,,,,,,,,,,,,,,,,,,,,
,,,,,V1_036,21,Female,2024-05-23_10h42.18.502,jersey_experiment_5_v1,2023.2.2,Win32,84.74576271,,,,,,,,,,,,,,,,256.9918,258.7918,258.7919,260.0861,return,0.3486,,4.166666667,0,55,55,0,1,FBP-PT-71.png,0.35,1.2,1,1,,,,,,,,,,,,,,,,,,,,,,,,,,,,,,,,,,,,,,,,,,,,,
,,,,,V1_036,21,Female,2024-05-23_10h42.18.502,jersey_experiment_5_v1,2023.2.2,Win32,84.74576271,,,,,,,,,,,,,,,,260.0864,261.3802,261.3802,262.5684,return,0.2734,,3.90625,0,56,56,55,1,FBP-RB-91.png,0.35,1.2,56,0.5,,,,,,,,,,,,,,,,,,,,,,,,,,,,,,,,,,,,,,,,,,,,,
,,,,,V1_036,21,Female,2024-05-23_10h42.18.502,jersey_experiment_5_v1,2023.2.2,Win32,84.74576271,,,,,,,,,,,,,,,,262.5685,263.8625,263.8625,266.2391,return,0.5884,,99.08854167,0,57,57,59,1,FBP-RB-91.png,0.45,1.2,60,0.5,,,,,,,,,,,,,,,,,,,,,,,,,,,,,,,,,,,,,,,,,,,,,
,,,,,V1_036,21,Female,2024-05-23_10h42.18.502,jersey_experiment_5_v1,2023.2.2,Win32,84.74576271,,,,,,,,,,,,,,,,266.2394,267.5332,267.5332,268.7451,return,0.322,,93.75,0,58,58,23,1,FBP-YG-18.png,0.43,1.2,24,0.5,,,,,,,,,,,,,,,,,,,,,,,,,,,,,,,,,,,,,,,,,,,,,
,,,,,V1_036,21,Female,2024-05-23_10h42.18.502,jersey_experiment_5_v1,2023.2.2,Win32,84.74576271,,,,,,,,,,,,,,,,268.7454,270.0392,270.0392,271.2274,return,0.4255,,93.359375,0,59,59,48,1,FBP-RB-71.png,0.43,1.2,49,0.5,,,,,,,,,,,,,,,,,,,,,,,,,,,,,,,,,,,,,,,,,,,,,
,,,,,V1_036,21,Female,2024-05-23_10h42.18.502,jersey_experiment_5_v1,2023.2.2,Win32,84.74576271,,,,,,,,,,,,,,,,271.2293,272.5216,272.5216,273.7805,return,0.4541,,78.25520833,,,,,,FBP-RB-17.png,0.4,1.2,48,0.5,0,0,0,47,1,,,,,,,,,,,,,,,,,,,,,,,,,,,,,,,,,,,,,,,,
,,,,,V1_036,21,Female,2024-05-23_10h42.18.502,jersey_experiment_5_v1,2023.2.2,Win32,84.74576271,,,,,,,,,,,,,,,,273.7807,275.0748,275.0748,276.3571,return,0.6437,,73.56770833,,,,,,FBP-OG-81.png,0.37,1.2,37,0.5,0,1,1,36,1,,,,,,,,,,,,,,,,,,,,,,,,,,,,,,,,,,,,,,,,
,,,,,V1_036,21,Female,2024-05-23_10h42.18.502,jersey_experiment_5_v1,2023.2.2,Win32,84.74576271,,,,,,,,,,,,,,,,276.3573,277.651,277.6511,278.6395,return,0.3767,,68.61979167,,,,,,FBP-OG-71.png,0.4,1.2,33,0.5,0,2,2,32,1,,,,,,,,,,,,,,,,,,,,,,,,,,,,,,,,,,,,,,,,
,,,,,V1_036,21,Female,2024-05-23_10h42.18.502,jersey_experiment_5_v1,2023.2.2,Win32,84.74576271,,,,,,,,,,,,,,,,278.6397,279.9337,279.9337,281.2279,return,0.4584,,88.671875,,,,,,FBP-RB-18.png,0.45,1.2,55,0.5,0,3,3,54,1,,,,,,,,,,,,,,,,,,,,,,,,,,,,,,,,,,,,,,,,
,,,,,V1_036,21,Female,2024-05-23_10h42.18.502,jersey_experiment_5_v1,2023.2.2,Win32,84.74576271,,,,,,,,,,,,,,,,281.2281,282.5219,282.5219,283.9574,return,0.2908,,31.90104167,,,,,,FBP-OG-91.png,0.35,1.2,41,0.5,0,4,4,40,1,,,,,,,,,,,,,,,,,,,,,,,,,,,,,,,,,,,,,,,,
,,,,,V1_036,21,Female,2024-05-23_10h42.18.502,jersey_experiment_5_v1,2023.2.2,Win32,84.74576271,,,,,,,,,,,,,,,,283.9576,285.2514,285.2515,286.6633,return,0.5327,,36.45833333,,,,,,FBP-RB-19.png,0.37,1.2,57,0.5,0,5,5,56,1,,,,,,,,,,,,,,,,,,,,,,,,,,,,,,,,,,,,,,,,
,,,,,V1_036,21,Female,2024-05-23_10h42.18.502,jersey_experiment_5_v1,2023.2.2,Win32,84.74576271,,,,,,,,,,,,,,,,286.6635,287.9576,287.9576,289.0517,return,0.3767,,37.36979167,,,,,,FBP-YG-91.png,0.4,1.2,28,0.5,0,6,6,27,1,,,,,,,,,,,,,,,,,,,,,,,,,,,,,,,,,,,,,,,,
,,,,,V1_036,21,Female,2024-05-23_10h42.18.502,jersey_experiment_5_v1,2023.2.2,Win32,84.74576271,,,,,,,,,,,,,,,,289.0519,290.8519,290.8519,292.4637,return,0.6488,,8.723958333,,,,,,FBP-PT-18.png,0.35,1.2,6,1,0,7,7,5,1,,,,,,,,,,,,,,,,,,,,,,,,,,,,,,,,,,,,,,,,
,,,,,V1_036,21,Female,2024-05-23_10h42.18.502,jersey_experiment_5_v1,2023.2.2,Win32,84.74576271,,,,,,,,,,,,,,,,292.4641,293.7578,293.7578,295.5931,return,0.3445,,95.3125,,,,,,FBP-YG-81.png,0.4,1.2,23,0.5,0,8,8,22,1,,,,,,,,,,,,,,,,,,,,,,,,,,,,,,,,,,,,,,,,
,,,,,V1_036,21,Female,2024-05-23_10h42.18.502,jersey_experiment_5_v1,2023.2.2,Win32,84.74576271,,,,,,,,,,,,,,,,295.5932,297.3931,297.3931,298.1814,return,0.3489,,95.44270833,,,,,,FBP-PT-17.png,0.43,1.2,4,1,0,9,9,3,1,,,,,,,,,,,,,,,,,,,,,,,,,,,,,,,,,,,,,,,,
,,,,,V1_036,21,Female,2024-05-23_10h42.18.502,jersey_experiment_5_v1,2023.2.2,Win32,84.74576271,,,,,,,,,,,,,,,,298.1816,299.4756,299.4756,301.4641,return,0.3449,,8.203125,,,,,,FBP-YG-91.png,0.35,1.2,26,0.5,0,10,10,25,1,,,,,,,,,,,,,,,,,,,,,,,,,,,,,,,,,,,,,,,,
,,,,,V1_036,21,Female,2024-05-23_10h42.18.502,jersey_experiment_5_v1,2023.2.2,Win32,84.74576271,,,,,,,,,,,,,,,,301.4643,302.7581,302.7582,304.1581,return,0.6127,,6.380208333,,,,,,FBP-RB-17.png,0.35,1.2,46,0.5,0,11,11,45,1,,,,,,,,,,,,,,,,,,,,,,,,,,,,,,,,,,,,,,,,
,,,,,V1_036,21,Female,2024-05-23_10h42.18.502,jersey_experiment_5_v1,2023.2.2,Win32,84.74576271,,,,,,,,,,,,,,,,304.1583,305.9584,305.9584,307.0054,return,0.3525,,4.036458333,,,,,,FBP-PT-19.png,0.35,1.2,11,1,0,12,12,10,1,,,,,,,,,,,,,,,,,,,,,,,,,,,,,,,,,,,,,,,,
,,,,,V1_036,21,Female,2024-05-23_10h42.18.502,jersey_experiment_5_v1,2023.2.2,Win32,84.74576271,,,,,,,,,,,,,,,,307.0056,308.2994,308.2995,310.8054,return,0.6666,,95.57291667,,,,,,FBP-OG-91.png,0.43,1.2,44,0.5,0,13,13,43,1,,,,,,,,,,,,,,,,,,,,,,,,,,,,,,,,,,,,,,,,
,,,,,V1_036,21,Female,2024-05-23_10h42.18.502,jersey_experiment_5_v1,2023.2.2,Win32,84.74576271,,,,,,,,,,,,,,,,310.8056,312.6055,312.6056,313.9585,return,0.5809,,95.83333333,,,,,,FBP-PT-17.png,0.45,1.2,5,1,0,14,14,4,1,,,,,,,,,,,,,,,,,,,,,,,,,,,,,,,,,,,,,,,,
,,,,,V1_036,21,Female,2024-05-23_10h42.18.502,jersey_experiment_5_v1,2023.2.2,Win32,84.74576271,,,,,,,,,,,,,,,,313.9585,315.2525,315.2526,316.6997,return,0.3292,,91.53645833,,,,,,FBP-RB-18.png,0.43,1.2,54,0.5,0,15,15,53,1,,,,,,,,,,,,,,,,,,,,,,,,,,,,,,,,,,,,,,,,
,,,,,V1_036,21,Female,2024-05-23_10h42.18.502,jersey_experiment_5_v1,2023.2.2,Win32,84.74576271,,,,,,,,,,,,,,,,316.6999,317.994,317.994,320.5233,return,0.6136,,39.84375,,,,,,FBP-YG-71.png,0.37,1.2,17,0.5,0,16,16,16,1,,,,,,,,,,,,,,,,,,,,,,,,,,,,,,,,,,,,,,,,
,,,,,V1_036,21,Female,2024-05-23_10h42.18.502,jersey_experiment_5_v1,2023.2.2,Win32,84.74576271,,,,,,,,,,,,,,,,320.5235,322.3237,322.3237,323.5823,return,0.5743,,57.421875,,,,,,FBP-PT-19.png,0.4,1.2,13,1,0,17,17,12,1,,,,,,,,,,,,,,,,,,,,,,,,,,,,,,,,,,,,,,,,
,,,,,V1_036,21,Female,2024-05-23_10h42.18.502,jersey_experiment_5_v1,2023.2.2,Win32,84.74576271,,,,,,,,,,,,,,,,323.5824,324.8764,324.8764,327.206,return,0.5721,,95.703125,,,,,,FBP-RB-19.png,0.43,1.2,59,0.5,0,18,18,58,1,,,,,,,,,,,,,,,,,,,,,,,,,,,,,,,,,,,,,,,,
,,,,,V1_036,21,Female,2024-05-23_10h42.18.502,jersey_experiment_5_v1,2023.2.2,Win32,84.74576271,,,,,,,,,,,,,,,,327.2063,329.006,329.0061,330.4532,return,0.4787,,5.598958333,,,,,,FBP-PT-17.png,0.35,1.2,1,1,0,19,19,0,1,,,,,,,,,,,,,,,,,,,,,,,,,,,,,,,,,,,,,,,,
,,,,,V1_036,21,Female,2024-05-23_10h42.18.502,jersey_experiment_5_v1,2023.2.2,Win32,84.74576271,,,,,,,,,,,,,,,,330.4534,331.7474,331.7474,333.018,return,0.474,,8.072916667,,,,,,FBP-RB-18.png,0.37,1.2,52,0.5,0,20,20,51,1,,,,,,,,,,,,,,,,,,,,,,,,,,,,,,,,,,,,,,,,
,,,,,V1_036,21,Female,2024-05-23_10h42.18.502,jersey_experiment_5_v1,2023.2.2,Win32,84.74576271,,,,,,,,,,,,,,,,333.0182,334.312,334.3121,335.9828,return,0.706,,56.11979167,,,,,,FBP-YG-71.png,0.4,1.2,18,0.5,0,21,21,17,1,,,,,,,,,,,,,,,,,,,,,,,,,,,,,,,,,,,,,,,,
,,,,,V1_036,21,Female,2024-05-23_10h42.18.502,jersey_experiment_5_v1,2023.2.2,Win32,84.74576271,,,,,,,,,,,,,,,,335.9831,337.2769,337.277,338.8889,return,0.6047,,9.375,,,,,,FBP-OG-71.png,0.35,1.2,31,0.5,0,22,22,30,1,,,,,,,,,,,,,,,,,,,,,,,,,,,,,,,,,,,,,,,,
,,,,,V1_036,21,Female,2024-05-23_10h42.18.502,jersey_experiment_5_v1,2023.2.2,Win32,84.74576271,,,,,,,,,,,,,,,,338.8891,340.183,340.183,342.5241,return,0.5758,,94.66145833,,,,,,FBP-RB-19.png,0.45,1.2,60,0.5,0,23,23,59,1,,,,,,,,,,,,,,,,,,,,,,,,,,,,,,,,,,,,,,,,
,,,,,V1_036,21,Female,2024-05-23_10h42.18.502,jersey_experiment_5_v1,2023.2.2,Win32,84.74576271,,,,,,,,,,,,,,,,342.5242,343.8182,343.8182,345.6421,return,0.5092,,17.44791667,,,,,,FBP-OG-91.png,0.37,1.2,42,0.5,0,24,24,41,1,,,,,,,,,,,,,,,,,,,,,,,,,,,,,,,,,,,,,,,,
,,,,,V1_036,21,Female,2024-05-23_10h42.18.502,jersey_experiment_5_v1,2023.2.2,Win32,84.74576271,,,,,,,,,,,,,,,,345.6423,347.442,347.442,349.548,return,1.0349,,46.61458333,,,,,,FBP-PT-18.png,0.37,1.2,7,1,0,25,25,6,1,,,,,,,,,,,,,,,,,,,,,,,,,,,,,,,,,,,,,,,,
,,,,,V1_036,21,Female,2024-05-23_10h42.18.502,jersey_experiment_5_v1,2023.2.2,Win32,84.74576271,,,,,,,,,,,,,,,,349.5483,351.348,351.3481,352.9364,return,0.3696,,72.00520833,,,,,,FBP-PT-18.png,0.4,1.2,8,1,0,26,26,7,1,,,,,,,,,,,,,,,,,,,,,,,,,,,,,,,,,,,,,,,,
,,,,,V1_036,21,Female,2024-05-23_10h42.18.502,jersey_experiment_5_v1,2023.2.2,Win32,84.74576271,,,,,,,,,,,,,,,,352.9366,354.2305,354.2306,355.2895,return,0.4155,,67.578125,,,,,,FBP-OG-81.png,0.4,1.2,38,0.5,0,27,27,37,1,,,,,,,,,,,,,,,,,,,,,,,,,,,,,,,,,,,,,,,,
,,,,,V1_036,21,Female,2024-05-23_10h42.18.502,jersey_experiment_5_v1,2023.2.2,Win32,84.74576271,,,,,,,,,,,,,,,,355.2896,356.5835,356.5835,358.36,return,0.5701,,86.328125,,,,,,FBP-OG-71.png,0.43,1.2,34,0.5,0,28,28,33,1,,,,,,,,,,,,,,,,,,,,,,,,,,,,,,,,,,,,,,,,
,,,,,V1_036,21,Female,2024-05-23_10h42.18.502,jersey_experiment_5_v1,2023.2.2,Win32,84.74576271,,,,,,,,,,,,,,,,358.3602,359.6541,359.6541,361.1835,return,0.6685,,96.875,,,,,,FBP-YG-81.png,0.45,1.2,25,0.5,0,29,29,24,1,,,,,,,,,,,,,,,,,,,,,,,,,,,,,,,,,,,,,,,,
,,,,,V1_036,21,Female,2024-05-23_10h42.18.502,jersey_experiment_5_v1,2023.2.2,Win32,84.74576271,,,,,,,,,,,,,,,,361.1836,362.4777,362.4778,363.9722,return,0.3126,,37.36979167,,,,,,FBP-RB-19.png,0.35,1.2,56,0.5,0,30,30,55,1,,,,,,,,,,,,,,,,,,,,,,,,,,,,,,,,,,,,,,,,
,,,,,V1_036,21,Female,2024-05-23_10h42.18.502,jersey_experiment_5_v1,2023.2.2,Win32,84.74576271,,,,,,,,,,,,,,,,363.9724,365.2662,365.2663,366.7251,return,0.6082,,37.36979167,,,,,,FBP-RB-18.png,0.35,1.2,51,0.5,0,31,31,50,1,,,,,,,,,,,,,,,,,,,,,,,,,,,,,,,,,,,,,,,,
,,,,,V1_036,21,Female,2024-05-23_10h42.18.502,jersey_experiment_5_v1,2023.2.2,Win32,84.74576271,,,,,,,,,,,,,,,,366.7254,368.0193,368.0193,369.5252,return,0.3966,,29.55729167,,,,,,FBP-OG-71.png,0.37,1.2,32,0.5,0,32,32,31,1,,,,,,,,,,,,,,,,,,,,,,,,,,,,,,,,,,,,,,,,
,,,,,V1_036,21,Female,2024-05-23_10h42.18.502,jersey_experiment_5_v1,2023.2.2,Win32,84.74576271,,,,,,,,,,,,,,,,369.5255,370.8193,370.8193,372.9723,return,0.4344,,98.56770833,,,,,,FBP-RB-17.png,0.43,1.2,49,0.5,0,33,33,48,1,,,,,,,,,,,,,,,,,,,,,,,,,,,,,,,,,,,,,,,,
,,,,,V1_036,21,Female,2024-05-23_10h42.18.502,jersey_experiment_5_v1,2023.2.2,Win32,84.74576271,,,,,,,,,,,,,,,,372.9726,374.2664,374.2665,376.7256,return,1.0315,,1.692708333,,,,,,FBP-RB-17.png,0.37,1.2,47,0.5,0,34,34,46,1,,,,,,,,,,,,,,,,,,,,,,,,,,,,,,,,,,,,,,,,
,,,,,V1_036,21,Female,2024-05-23_10h42.18.502,jersey_experiment_5_v1,2023.2.2,Win32,84.74576271,,,,,,,,,,,,,,,,376.7258,378.0196,378.0196,380.4786,return,0.6115,,93.88020833,,,,,,FBP-RB-18.png,0.4,1.2,53,0.5,0,35,35,52,1,,,,,,,,,,,,,,,,,,,,,,,,,,,,,,,,,,,,,,,,
,,,,,V1_036,21,Female,2024-05-23_10h42.18.502,jersey_experiment_5_v1,2023.2.2,Win32,84.74576271,,,,,,,,,,,,,,,,380.4788,381.7725,381.7725,384.0551,return,0.3926,,18.48958333,,,,,,FBP-YG-91.png,0.37,1.2,27,0.5,0,36,36,26,1,,,,,,,,,,,,,,,,,,,,,,,,,,,,,,,,,,,,,,,,
,,,,,V1_036,21,Female,2024-05-23_10h42.18.502,jersey_experiment_5_v1,2023.2.2,Win32,84.74576271,,,,,,,,,,,,,,,,384.0554,385.8553,385.8553,387.7378,return,1.1215,,97.265625,,,,,,FBP-PT-18.png,0.43,1.2,9,1,0,37,37,8,1,,,,,,,,,,,,,,,,,,,,,,,,,,,,,,,,,,,,,,,,
,,,,,V1_036,21,Female,2024-05-23_10h42.18.502,jersey_experiment_5_v1,2023.2.2,Win32,84.74576271,,,,,,,,,,,,,,,,387.7381,389.5379,389.5379,390.8788,return,0.363,,2.864583333,,,,,,FBP-PT-19.png,0.37,1.2,12,1,0,38,38,11,1,,,,,,,,,,,,,,,,,,,,,,,,,,,,,,,,,,,,,,,,
,,,,,V1_036,21,Female,2024-05-23_10h42.18.502,jersey_experiment_5_v1,2023.2.2,Win32,84.74576271,,,,,,,,,,,,,,,,390.879,392.6791,392.6792,393.9144,return,0.6476,,4.947916667,,,,,,FBP-PT-17.png,0.4,1.2,3,1,0,39,39,2,1,,,,,,,,,,,,,,,,,,,,,,,,,,,,,,,,,,,,,,,,
,,,,,V1_036,21,Female,2024-05-23_10h42.18.502,jersey_experiment_5_v1,2023.2.2,Win32,84.74576271,,,,,,,,,,,,,,,,393.9146,395.2083,395.2083,396.5379,return,0.612,,4.947916667,,,,,,FBP-YG-81.png,0.35,1.2,21,0.5,0,40,40,20,1,,,,,,,,,,,,,,,,,,,,,,,,,,,,,,,,,,,,,,,,
,,,,,V1_036,21,Female,2024-05-23_10h42.18.502,jersey_experiment_5_v1,2023.2.2,Win32,84.74576271,,,,,,,,,,,,,,,,396.5381,397.8319,397.832,400.1851,return,0.6041,,98.17708333,,,,,,FBP-OG-81.png,0.45,1.2,40,0.5,0,41,41,39,1,,,,,,,,,,,,,,,,,,,,,,,,,,,,,,,,,,,,,,,,
,,,,,V1_036,21,Female,2024-05-23_10h42.18.502,jersey_experiment_5_v1,2023.2.2,Win32,84.74576271,,,,,,,,,,,,,,,,400.1853,401.4793,401.4794,402.4912,return,0.3675,,98.17708333,,,,,,FBP-YG-91.png,0.45,1.2,30,0.5,0,42,42,29,1,,,,,,,,,,,,,,,,,,,,,,,,,,,,,,,,,,,,,,,,
,,,,,V1_036,21,Female,2024-05-23_10h42.18.502,jersey_experiment_5_v1,2023.2.2,Win32,84.74576271,,,,,,,,,,,,,,,,402.4914,403.7852,403.7853,404.7147,return,0.3412,,98.17708333,,,,,,FBP-YG-81.png,0.43,1.2,24,0.5,0,43,43,23,1,,,,,,,,,,,,,,,,,,,,,,,,,,,,,,,,,,,,,,,,
,,,,,V1_036,21,Female,2024-05-23_10h42.18.502,jersey_experiment_5_v1,2023.2.2,Win32,84.74576271,,,,,,,,,,,,,,,,404.715,406.0088,406.0088,407.0676,return,0.5427,,98.17708333,,,,,,FBP-YG-71.png,0.45,1.2,20,0.5,0,44,44,19,1,,,,,,,,,,,,,,,,,,,,,,,,,,,,,,,,,,,,,,,,
,,,,,V1_036,21,Female,2024-05-23_10h42.18.502,jersey_experiment_5_v1,2023.2.2,Win32,84.74576271,,,,,,,,,,,,,,,,407.0678,408.3618,408.3619,410.409,return,0.5783,,3.515625,,,,,,FBP-OG-81.png,0.35,1.2,36,0.5,0,45,45,35,1,,,,,,,,,,,,,,,,,,,,,,,,,,,,,,,,,,,,,,,,
,,,,,V1_036,21,Female,2024-05-23_10h42.18.502,jersey_experiment_5_v1,2023.2.2,Win32,84.74576271,,,,,,,,,,,,,,,,410.4091,412.2093,412.2093,413.6443,return,0.4614,,98.17708333,,,,,,FBP-PT-18.png,0.45,1.2,10,1,0,46,46,9,1,,,,,,,,,,,,,,,,,,,,,,,,,,,,,,,,,,,,,,,,
,,,,,V1_036,21,Female,2024-05-23_10h42.18.502,jersey_experiment_5_v1,2023.2.2,Win32,84.74576271,,,,,,,,,,,,,,,,413.6445,415.4445,415.4446,416.233,return,0.403,,98.17708333,,,,,,FBP-PT-19.png,0.43,1.2,14,1,0,47,47,13,1,,,,,,,,,,,,,,,,,,,,,,,,,,,,,,,,,,,,,,,,
,,,,,V1_036,21,Female,2024-05-23_10h42.18.502,jersey_experiment_5_v1,2023.2.2,Win32,84.74576271,,,,,,,,,,,,,,,,416.2333,417.527,417.527,418.327,return,0.324,,98.17708333,,,,,,FBP-OG-91.png,0.45,1.2,45,0.5,0,48,48,44,1,,,,,,,,,,,,,,,,,,,,,,,,,,,,,,,,,,,,,,,,
,,,,,V1_036,21,Female,2024-05-23_10h42.18.502,jersey_experiment_5_v1,2023.2.2,Win32,84.74576271,,,,,,,,,,,,,,,,418.3273,419.6211,419.6211,420.5271,return,0.3163,,98.17708333,,,,,,FBP-YG-91.png,0.43,1.2,29,0.5,0,49,49,28,1,,,,,,,,,,,,,,,,,,,,,,,,,,,,,,,,,,,,,,,,
,,,,,V1_036,21,Female,2024-05-23_10h42.18.502,jersey_experiment_5_v1,2023.2.2,Win32,84.74576271,,,,,,,,,,,,,,,,420.5272,421.8212,421.8212,422.5507,return,0.3223,,98.17708333,,,,,,FBP-OG-91.png,0.4,1.2,43,0.5,0,50,50,42,1,,,,,,,,,,,,,,,,,,,,,,,,,,,,,,,,,,,,,,,,
,,,,,V1_036,21,Female,2024-05-23_10h42.18.502,jersey_experiment_5_v1,2023.2.2,Win32,84.74576271,,,,,,,,,,,,,,,,422.5509,423.8448,423.8448,425.2448,return,0.3298,,26.171875,,,,,,FBP-YG-81.png,0.37,1.2,22,0.5,0,51,51,21,1,,,,,,,,,,,,,,,,,,,,,,,,,,,,,,,,,,,,,,,,
,,,,,V1_036,21,Female,2024-05-23_10h42.18.502,jersey_experiment_5_v1,2023.2.2,Win32,84.74576271,,,,,,,,,,,,,,,,425.2451,426.539,426.539,428.1861,return,0.3066,,97.65625,,,,,,FBP-RB-17.png,0.45,1.2,50,0.5,0,52,52,49,1,,,,,,,,,,,,,,,,,,,,,,,,,,,,,,,,,,,,,,,,
,,,,,V1_036,21,Female,2024-05-23_10h42.18.502,jersey_experiment_5_v1,2023.2.2,Win32,84.74576271,,,,,,,,,,,,,,,,428.1864,429.4803,429.4805,430.4216,return,0.4184,,97.65625,,,,,,FBP-OG-71.png,0.45,1.2,35,0.5,0,53,53,34,1,,,,,,,,,,,,,,,,,,,,,,,,,,,,,,,,,,,,,,,,
,,,,,V1_036,21,Female,2024-05-23_10h42.18.502,jersey_experiment_5_v1,2023.2.2,Win32,84.74576271,,,,,,,,,,,,,,,,430.4219,431.7157,431.7157,432.9746,return,0.3159,,97.65625,,,,,,FBP-OG-81.png,0.43,1.2,39,0.5,0,54,54,38,1,,,,,,,,,,,,,,,,,,,,,,,,,,,,,,,,,,,,,,,,
,,,,,V1_036,21,Female,2024-05-23_10h42.18.502,jersey_experiment_5_v1,2023.2.2,Win32,84.74576271,,,,,,,,,,,,,,,,432.9746,434.7746,434.7746,435.9513,return,0.65,,92.05729167,,,,,,FBP-PT-19.png,0.45,1.2,15,1,0,55,55,14,1,,,,,,,,,,,,,,,,,,,,,,,,,,,,,,,,,,,,,,,,
,,,,,V1_036,21,Female,2024-05-23_10h42.18.502,jersey_experiment_5_v1,2023.2.2,Win32,84.74576271,,,,,,,,,,,,,,,,435.9515,437.2453,437.2454,439.0805,return,0.4963,,2.864583333,,,,,,FBP-YG-71.png,0.35,1.2,16,0.5,0,56,56,15,1,,,,,,,,,,,,,,,,,,,,,,,,,,,,,,,,,,,,,,,,
,,,,,V1_036,21,Female,2024-05-23_10h42.18.502,jersey_experiment_5_v1,2023.2.2,Win32,84.74576271,,,,,,,,,,,,,,,,439.0808,440.8806,440.8806,442.4456,return,0.3067,,15.10416667,,,,,,FBP-PT-17.png,0.37,1.2,2,1,0,57,57,1,1,,,,,,,,,,,,,,,,,,,,,,,,,,,,,,,,,,,,,,,,
,,,,,V1_036,21,Female,2024-05-23_10h42.18.502,jersey_experiment_5_v1,2023.2.2,Win32,84.74576271,,,,,,,,,,,,,,,,442.4458,443.7397,443.7398,445.3869,return,0.5312,,26.82291667,,,,,,FBP-RB-19.png,0.4,1.2,58,0.5,0,58,58,57,1,,,,,,,,,,,,,,,,,,,,,,,,,,,,,,,,,,,,,,,,
,,,,,V1_036,21,Female,2024-05-23_10h42.18.502,jersey_experiment_5_v1,2023.2.2,Win32,84.74576271,,,,,,,,,,,,,,,,445.387,446.6809,446.6809,447.8338,return,0.3443,,28.64583333,,,,,,FBP-YG-71.png,0.43,1.2,19,0.5,0,59,59,18,1,,,,,,,,,,,,,,,,,,,,,,,,,,,,,,,,,,,,,,,,
,,,,,V1_036,21,Female,2024-05-23_10h42.18.502,jersey_experiment_5_v1,2023.2.2,Win32,84.74576271,,,,,,,,,,,,,,,,,,,,,,,,,,,,,,,,,,,,,,,447.8342,567.8387,,,,,,,,,,,,,,,,,,,,,,,,,,,,,,,,,,,,,,
,,,,,V1_036,21,Female,2024-05-23_10h42.18.502,jersey_experiment_5_v1,2023.2.2,Win32,84.74576271,,,,,,,,,,,,,,,,,,,,,,,,,,,,,,,,,,,,,,,,,567.8387,572.2388,return,4.3898,,,,,,,,,,,,,,,,,,,,,,,,,,,,,,,,,,
,,,,,V1_036,21,Female,2024-05-23_10h42.18.502,jersey_experiment_5_v1,2023.2.2,Win32,84.74576271,,,,,,,,,,,,,,,,572.2449,574.0385,574.0386,576.0857,return,0.8405,,53.125,,,,,,FBP-RB-91.png,0.4,1.2,58,1,,,,,,,,,,,,,0,0,0,57,1,,,,,,,,,,,,,,,,,,,,,,,,,,,,
,,,,,V1_036,21,Female,2024-05-23_10h42.18.502,jersey_experiment_5_v1,2023.2.2,Win32,84.74576271,,,,,,,,,,,,,,,,576.0858,577.3799,577.3799,578.7798,return,0.343,,95.703125,,,,,,FBP-PT-71.png,0.45,1.2,5,0.5,,,,,,,,,,,,,0,1,1,4,1,,,,,,,,,,,,,,,,,,,,,,,,,,,,
,,,,,V1_036,21,Female,2024-05-23_10h42.18.502,jersey_experiment_5_v1,2023.2.2,Win32,84.74576271,,,,,,,,,,,,,,,,578.7801,580.5799,580.5799,582.2505,return,0.4264,,40.10416667,,,,,,FBP-YG-17.png,0.4,1.2,18,1,,,,,,,,,,,,,0,2,2,17,1,,,,,,,,,,,,,,,,,,,,,,,,,,,,
,,,,,V1_036,21,Female,2024-05-23_10h42.18.502,jersey_experiment_5_v1,2023.2.2,Win32,84.74576271,,,,,,,,,,,,,,,,582.2507,583.5447,583.5447,585.2154,return,0.4943,,3.255208333,,,,,,FBP-PT-91.png,0.35,1.2,11,0.5,,,,,,,,,,,,,0,3,3,10,1,,,,,,,,,,,,,,,,,,,,,,,,,,,,
,,,,,V1_036,21,Female,2024-05-23_10h42.18.502,jersey_experiment_5_v1,2023.2.2,Win32,84.74576271,,,,,,,,,,,,,,,,585.2157,587.0155,587.0156,587.9803,return,0.3674,,3.125,,,,,,FBP-RB-81.png,0.35,1.2,51,1,,,,,,,,,,,,,0,4,4,50,1,,,,,,,,,,,,,,,,,,,,,,,,,,,,
,,,,,V1_036,21,Female,2024-05-23_10h42.18.502,jersey_experiment_5_v1,2023.2.2,Win32,84.74576271,,,,,,,,,,,,,,,,587.9806,589.7803,589.7803,590.6627,return,0.3469,,10.546875,,,,,,FBP-OG-18.png,0.37,1.2,37,1,,,,,,,,,,,,,0,5,5,36,1,,,,,,,,,,,,,,,,,,,,,,,,,,,,
,,,,,V1_036,21,Female,2024-05-23_10h42.18.502,jersey_experiment_5_v1,2023.2.2,Win32,84.74576271,,,,,,,,,,,,,,,,590.663,591.9568,591.9569,593.6275,return,0.4239,,61.71875,,,,,,FBP-PT-81.png,0.4,1.2,8,0.5,,,,,,,,,,,,,0,6,6,7,1,,,,,,,,,,,,,,,,,,,,,,,,,,,,
,,,,,V1_036,21,Female,2024-05-23_10h42.18.502,jersey_experiment_5_v1,2023.2.2,Win32,84.74576271,,,,,,,,,,,,,,,,593.6278,594.9216,594.9217,596.651,return,0.5666,,47.52604167,,,,,,FBP-PT-71.png,0.35,1.2,1,0.5,,,,,,,,,,,,,0,7,7,0,1,,,,,,,,,,,,,,,,,,,,,,,,,,,,
,,,,,V1_036,21,Female,2024-05-23_10h42.18.502,jersey_experiment_5_v1,2023.2.2,Win32,84.74576271,,,,,,,,,,,,,,,,596.6513,598.4513,598.4513,599.5101,return,0.5369,,45.57291667,,,,,,FBP-OG-17.png,0.35,1.2,31,1,,,,,,,,,,,,,0,8,8,30,1,,,,,,,,,,,,,,,,,,,,,,,,,,,,
,,,,,V1_036,21,Female,2024-05-23_10h42.18.502,jersey_experiment_5_v1,2023.2.2,Win32,84.74576271,,,,,,,,,,,,,,,,599.5104,601.3101,601.3101,602.3925,return,0.3814,,86.328125,,,,,,FBP-OG-18.png,0.43,1.2,39,1,,,,,,,,,,,,,0,9,9,38,1,,,,,,,,,,,,,,,,,,,,,,,,,,,,
,,,,,V1_036,21,Female,2024-05-23_10h42.18.502,jersey_experiment_5_v1,2023.2.2,Win32,84.74576271,,,,,,,,,,,,,,,,602.3927,603.6867,603.6867,605.5104,return,0.5834,,73.4375,,,,,,FBP-PT-71.png,0.4,1.2,3,0.5,,,,,,,,,,,,,0,10,10,2,1,,,,,,,,,,,,,,,,,,,,,,,,,,,,
,,,,,V1_036,21,Female,2024-05-23_10h42.18.502,jersey_experiment_5_v1,2023.2.2,Win32,84.74576271,,,,,,,,,,,,,,,,605.5106,606.8045,606.8045,608.7575,return,0.7344,,96.09375,,,,,,FBP-PT-91.png,0.43,1.2,14,0.5,,,,,,,,,,,,,0,11,11,13,1,,,,,,,,,,,,,,,,,,,,,,,,,,,,
,,,,,V1_036,21,Female,2024-05-23_10h42.18.502,jersey_experiment_5_v1,2023.2.2,Win32,84.74576271,,,,,,,,,,,,,,,,608.7577,610.5577,610.5577,611.9928,return,0.5786,,6.119791667,,,,,,FBP-OG-18.png,0.35,1.2,36,1,,,,,,,,,,,,,0,12,12,35,1,,,,,,,,,,,,,,,,,,,,,,,,,,,,
,,,,,V1_036,21,Female,2024-05-23_10h42.18.502,jersey_experiment_5_v1,2023.2.2,Win32,84.74576271,,,,,,,,,,,,,,,,611.993,613.7931,613.7931,615.2636,return,0.5745,,92.31770833,,,,,,FBP-RB-71.png,0.43,1.2,49,1,,,,,,,,,,,,,0,13,13,48,1,,,,,,,,,,,,,,,,,,,,,,,,,,,,
,,,,,V1_036,21,Female,2024-05-23_10h42.18.502,jersey_experiment_5_v1,2023.2.2,Win32,84.74576271,,,,,,,,,,,,,,,,615.2638,616.558,616.558,618.1343,return,0.5012,,3.645833333,,,,,,FBP-PT-71.png,0.37,1.2,2,0.5,,,,,,,,,,,,,0,14,14,1,1,,,,,,,,,,,,,,,,,,,,,,,,,,,,
,,,,,V1_036,21,Female,2024-05-23_10h42.18.502,jersey_experiment_5_v1,2023.2.2,Win32,84.74576271,,,,,,,,,,,,,,,,618.1345,619.9343,619.9343,620.9578,return,0.5884,,3.645833333,,,,,,FBP-RB-71.png,0.37,1.2,47,1,,,,,,,,,,,,,0,15,15,46,1,,,,,,,,,,,,,,,,,,,,,,,,,,,,
,,,,,V1_036,21,Female,2024-05-23_10h42.18.502,jersey_experiment_5_v1,2023.2.2,Win32,84.74576271,,,,,,,,,,,,,,,,620.958,622.7582,622.7582,624.2638,return,0.3095,,95.05208333,,,,,,FBP-YG-17.png,0.45,1.2,20,1,,,,,,,,,,,,,0,16,16,19,1,,,,,,,,,,,,,,,,,,,,,,,,,,,,
,,,,,V1_036,21,Female,2024-05-23_10h42.18.502,jersey_experiment_5_v1,2023.2.2,Win32,84.74576271,,,,,,,,,,,,,,,,624.2641,626.064,626.064,627.4994,return,0.5291,,3.776041667,,,,,,FBP-YG-19.png,0.35,1.2,26,1,,,,,,,,,,,,,0,17,17,25,1,,,,,,,,,,,,,,,,,,,,,,,,,,,,
,,,,,V1_036,21,Female,2024-05-23_10h42.18.502,jersey_experiment_5_v1,2023.2.2,Win32,84.74576271,,,,,,,,,,,,,,,,627.4996,629.2995,629.2995,630.2522,return,0.2825,,79.81770833,,,,,,FBP-YG-18.png,0.4,1.2,23,1,,,,,,,,,,,,,0,18,18,22,1,,,,,,,,,,,,,,,,,,,,,,,,,,,,
,,,,,V1_036,21,Female,2024-05-23_10h42.18.502,jersey_experiment_5_v1,2023.2.2,Win32,84.74576271,,,,,,,,,,,,,,,,630.2525,632.0525,632.0526,633.1114,return,0.4973,,93.88020833,,,,,,FBP-YG-19.png,0.45,1.2,30,1,,,,,,,,,,,,,0,19,19,29,1,,,,,,,,,,,,,,,,,,,,,,,,,,,,
,,,,,V1_036,21,Female,2024-05-23_10h42.18.502,jersey_experiment_5_v1,2023.2.2,Win32,84.74576271,,,,,,,,,,,,,,,,633.1116,634.9115,634.9115,635.9585,return,0.5929,,96.74479167,,,,,,FBP-RB-71.png,0.45,1.2,50,1,,,,,,,,,,,,,0,20,20,49,1,,,,,,,,,,,,,,,,,,,,,,,,,,,,
,,,,,V1_036,21,Female,2024-05-23_10h42.18.502,jersey_experiment_5_v1,2023.2.2,Win32,84.74576271,,,,,,,,,,,,,,,,635.9587,637.2527,637.2527,639.0761,return,0.3853,,2.34375,,,,,,FBP-PT-81.png,0.35,1.2,6,0.5,,,,,,,,,,,,,0,21,21,5,1,,,,,,,,,,,,,,,,,,,,,,,,,,,,
,,,,,V1_036,21,Female,2024-05-23_10h42.18.502,jersey_experiment_5_v1,2023.2.2,Win32,84.74576271,,,,,,,,,,,,,,,,639.0763,640.8764,640.8764,641.7705,return,0.3531,,3.776041667,,,,,,FBP-OG-19.png,0.37,1.2,42,1,,,,,,,,,,,,,0,22,22,41,1,,,,,,,,,,,,,,,,,,,,,,,,,,,,
,,,,,V1_036,21,Female,2024-05-23_10h42.18.502,jersey_experiment_5_v1,2023.2.2,Win32,84.74576271,,,,,,,,,,,,,,,,641.7708,643.5706,643.5706,645.2528,return,0.4528,,96.875,,,,,,FBP-RB-81.png,0.43,1.2,54,1,,,,,,,,,,,,,0,23,23,53,1,,,,,,,,,,,,,,,,,,,,,,,,,,,,
,,,,,V1_036,21,Female,2024-05-23_10h42.18.502,jersey_experiment_5_v1,2023.2.2,Win32,84.74576271,,,,,,,,,,,,,,,,645.2531,647.0531,647.0531,648.3001,return,0.3641,,62.63020833,,,,,,FBP-OG-19.png,0.4,1.2,43,1,,,,,,,,,,,,,0,24,24,42,1,,,,,,,,,,,,,,,,,,,,,,,,,,,,
,,,,,V1_036,21,Female,2024-05-23_10h42.18.502,jersey_experiment_5_v1,2023.2.2,Win32,84.74576271,,,,,,,,,,,,,,,,648.3003,650.1003,650.1003,651.3591,return,0.5422,,3.125,,,,,,FBP-RB-71.png,0.35,1.2,46,1,,,,,,,,,,,,,0,25,25,45,1,,,,,,,,,,,,,,,,,,,,,,,,,,,,
,,,,,V1_036,21,Female,2024-05-23_10h42.18.502,jersey_experiment_5_v1,2023.2.2,Win32,84.74576271,,,,,,,,,,,,,,,,651.3593,653.1592,653.1592,654.2062,return,0.3059,,80.98958333,,,,,,FBP-RB-81.png,0.4,1.2,53,1,,,,,,,,,,,,,0,26,26,52,1,,,,,,,,,,,,,,,,,,,,,,,,,,,,
,,,,,V1_036,21,Female,2024-05-23_10h42.18.502,jersey_experiment_5_v1,2023.2.2,Win32,84.74576271,,,,,,,,,,,,,,,,654.2065,655.5003,655.5004,656.324,return,0.2917,,90.234375,,,,,,FBP-PT-71.png,0.43,1.2,4,0.5,,,,,,,,,,,,,0,27,27,3,1,,,,,,,,,,,,,,,,,,,,,,,,,,,,
,,,,,V1_036,21,Female,2024-05-23_10h42.18.502,jersey_experiment_5_v1,2023.2.2,Win32,84.74576271,,,,,,,,,,,,,,,,656.3242,658.1241,658.1241,659.0064,return,0.3062,,54.42708333,,,,,,FBP-YG-18.png,0.37,1.2,22,1,,,,,,,,,,,,,0,28,28,21,1,,,,,,,,,,,,,,,,,,,,,,,,,,,,
,,,,,V1_036,21,Female,2024-05-23_10h42.18.502,jersey_experiment_5_v1,2023.2.2,Win32,84.74576271,,,,,,,,,,,,,,,,659.0067,660.8063,660.8063,661.5595,return,0.2997,,54.42708333,,,,,,FBP-RB-81.png,0.37,1.2,52,1,,,,,,,,,,,,,0,29,29,51,1,,,,,,,,,,,,,,,,,,,,,,,,,,,,
,,,,,V1_036,21,Female,2024-05-23_10h42.18.502,jersey_experiment_5_v1,2023.2.2,Win32,84.74576271,,,,,,,,,,,,,,,,661.5598,662.8534,662.8535,663.6889,return,0.3437,,54.81770833,,,,,,FBP-PT-81.png,0.37,1.2,7,0.5,,,,,,,,,,,,,0,30,30,6,1,,,,,,,,,,,,,,,,,,,,,,,,,,,,
,,,,,V1_036,21,Female,2024-05-23_10h42.18.502,jersey_experiment_5_v1,2023.2.2,Win32,84.74576271,,,,,,,,,,,,,,,,663.6891,665.4889,665.4889,666.7125,return,0.3219,,68.359375,,,,,,FBP-RB-71.png,0.4,1.2,48,1,,,,,,,,,,,,,0,31,31,47,1,,,,,,,,,,,,,,,,,,,,,,,,,,,,
,,,,,V1_036,21,Female,2024-05-23_10h42.18.502,jersey_experiment_5_v1,2023.2.2,Win32,84.74576271,,,,,,,,,,,,,,,,666.7126,668.5126,668.5126,670.1597,return,0.3058,,80.46875,,,,,,FBP-YG-19.png,0.43,1.2,29,1,,,,,,,,,,,,,0,32,32,28,1,,,,,,,,,,,,,,,,,,,,,,,,,,,,
,,,,,V1_036,21,Female,2024-05-23_10h42.18.502,jersey_experiment_5_v1,2023.2.2,Win32,84.74576271,,,,,,,,,,,,,,,,670.1599,671.96,671.9601,673.2071,return,0.6537,,97.91666667,,,,,,FBP-OG-18.png,0.45,1.2,40,1,,,,,,,,,,,,,0,33,33,39,1,,,,,,,,,,,,,,,,,,,,,,,,,,,,
,,,,,V1_036,21,Female,2024-05-23_10h42.18.502,jersey_experiment_5_v1,2023.2.2,Win32,84.74576271,,,,,,,,,,,,,,,,673.2073,675.0069,675.0069,676.1834,return,0.7913,,97.91666667,,,,,,FBP-OG-19.png,0.45,1.2,45,1,,,,,,,,,,,,,0,34,34,44,1,,,,,,,,,,,,,,,,,,,,,,,,,,,,
,,,,,V1_036,21,Female,2024-05-23_10h42.18.502,jersey_experiment_5_v1,2023.2.2,Win32,84.74576271,,,,,,,,,,,,,,,,676.1836,677.9834,677.9835,678.7482,return,0.3869,,97.91666667,,,,,,FBP-OG-17.png,0.45,1.2,35,1,,,,,,,,,,,,,0,35,35,34,1,,,,,,,,,,,,,,,,,,,,,,,,,,,,
,,,,,V1_036,21,Female,2024-05-23_10h42.18.502,jersey_experiment_5_v1,2023.2.2,Win32,84.74576271,,,,,,,,,,,,,,,,678.7484,680.5482,680.5483,681.9013,return,0.3858,,93.88020833,,,,,,FBP-RB-91.png,0.43,1.2,59,1,,,,,,,,,,,,,0,36,36,58,1,,,,,,,,,,,,,,,,,,,,,,,,,,,,
,,,,,V1_036,21,Female,2024-05-23_10h42.18.502,jersey_experiment_5_v1,2023.2.2,Win32,84.74576271,,,,,,,,,,,,,,,,681.9015,683.7014,683.7014,684.9719,return,0.306,,73.30729167,,,,,,FBP-OG-17.png,0.4,1.2,33,1,,,,,,,,,,,,,0,37,37,32,1,,,,,,,,,,,,,,,,,,,,,,,,,,,,
,,,,,V1_036,21,Female,2024-05-23_10h42.18.502,jersey_experiment_5_v1,2023.2.2,Win32,84.74576271,,,,,,,,,,,,,,,,684.972,686.772,686.772,687.7015,return,0.2881,,81.640625,,,,,,FBP-OG-19.png,0.43,1.2,44,1,,,,,,,,,,,,,0,38,38,43,1,,,,,,,,,,,,,,,,,,,,,,,,,,,,
,,,,,V1_036,21,Female,2024-05-23_10h42.18.502,jersey_experiment_5_v1,2023.2.2,Win32,84.74576271,,,,,,,,,,,,,,,,687.7018,689.5015,689.5015,690.3957,return,0.4344,,83.203125,,,,,,FBP-RB-81.png,0.45,1.2,55,1,,,,,,,,,,,,,0,39,39,54,1,,,,,,,,,,,,,,,,,,,,,,,,,,,,
,,,,,V1_036,21,Female,2024-05-23_10h42.18.502,jersey_experiment_5_v1,2023.2.2,Win32,84.74576271,,,,,,,,,,,,,,,,690.3958,691.6898,691.6899,692.9016,return,0.3721,,83.203125,,,,,,FBP-PT-91.png,0.4,1.2,13,0.5,,,,,,,,,,,,,0,40,40,12,1,,,,,,,,,,,,,,,,,,,,,,,,,,,,
,,,,,V1_036,21,Female,2024-05-23_10h42.18.502,jersey_experiment_5_v1,2023.2.2,Win32,84.74576271,,,,,,,,,,,,,,,,692.9019,694.7017,694.7017,695.7018,return,0.5463,,80.20833333,,,,,,FBP-OG-17.png,0.43,1.2,34,1,,,,,,,,,,,,,0,41,41,33,1,,,,,,,,,,,,,,,,,,,,,,,,,,,,
,,,,,V1_036,21,Female,2024-05-23_10h42.18.502,jersey_experiment_5_v1,2023.2.2,Win32,84.74576271,,,,,,,,,,,,,,,,695.7019,697.502,697.502,699.0548,return,0.3765,,28.38541667,,,,,,FBP-RB-91.png,0.35,1.2,56,1,,,,,,,,,,,,,0,42,42,55,1,,,,,,,,,,,,,,,,,,,,,,,,,,,,
,,,,,V1_036,21,Female,2024-05-23_10h42.18.502,jersey_experiment_5_v1,2023.2.2,Win32,84.74576271,,,,,,,,,,,,,,,,699.055,700.8551,700.8551,702.5258,return,0.5555,,53.64583333,,,,,,FBP-YG-19.png,0.4,1.2,28,1,,,,,,,,,,,,,0,43,43,27,1,,,,,,,,,,,,,,,,,,,,,,,,,,,,
,,,,,V1_036,21,Female,2024-05-23_10h42.18.502,jersey_experiment_5_v1,2023.2.2,Win32,84.74576271,,,,,,,,,,,,,,,,702.5261,704.326,704.326,705.4669,return,0.2727,,94.140625,,,,,,FBP-RB-91.png,0.45,1.2,60,1,,,,,,,,,,,,,0,44,44,59,1,,,,,,,,,,,,,,,,,,,,,,,,,,,,
,,,,,V1_036,21,Female,2024-05-23_10h42.18.502,jersey_experiment_5_v1,2023.2.2,Win32,84.74576271,,,,,,,,,,,,,,,,705.4671,707.2669,707.2669,708.5494,return,0.2884,,8.463541667,,,,,,FBP-OG-19.png,0.35,1.2,41,1,,,,,,,,,,,,,0,45,45,40,1,,,,,,,,,,,,,,,,,,,,,,,,,,,,
,,,,,V1_036,21,Female,2024-05-23_10h42.18.502,jersey_experiment_5_v1,2023.2.2,Win32,84.74576271,,,,,,,,,,,,,,,,708.5497,710.3494,710.3494,711.8319,return,0.3918,,73.17708333,,,,,,FBP-YG-18.png,0.43,1.2,24,1,,,,,,,,,,,,,0,46,46,23,1,,,,,,,,,,,,,,,,,,,,,,,,,,,,
,,,,,V1_036,21,Female,2024-05-23_10h42.18.502,jersey_experiment_5_v1,2023.2.2,Win32,84.74576271,,,,,,,,,,,,,,,,711.8321,713.6319,713.6319,715.0673,return,0.5783,,54.6875,,,,,,FBP-OG-17.png,0.37,1.2,32,1,,,,,,,,,,,,,0,47,47,31,1,,,,,,,,,,,,,,,,,,,,,,,,,,,,
,,,,,V1_036,21,Female,2024-05-23_10h42.18.502,jersey_experiment_5_v1,2023.2.2,Win32,84.74576271,,,,,,,,,,,,,,,,715.0675,716.8672,716.8673,718.138,return,0.5073,,36.71875,,,,,,FBP-YG-18.png,0.35,1.2,21,1,,,,,,,,,,,,,0,48,48,20,1,,,,,,,,,,,,,,,,,,,,,,,,,,,,
,,,,,V1_036,21,Female,2024-05-23_10h42.18.502,jersey_experiment_5_v1,2023.2.2,Win32,84.74576271,,,,,,,,,,,,,,,,718.1381,719.9382,719.9382,721.3733,return,0.3197,,94.79166667,,,,,,FBP-YG-18.png,0.45,1.2,25,1,,,,,,,,,,,,,0,49,49,24,1,,,,,,,,,,,,,,,,,,,,,,,,,,,,
,,,,,V1_036,21,Female,2024-05-23_10h42.18.502,jersey_experiment_5_v1,2023.2.2,Win32,84.74576271,,,,,,,,,,,,,,,,721.3736,723.1735,723.1735,725.2087,return,0.2986,,35.28645833,,,,,,FBP-OG-18.png,0.4,1.2,38,1,,,,,,,,,,,,,0,50,50,37,1,,,,,,,,,,,,,,,,,,,,,,,,,,,,
,,,,,V1_036,21,Female,2024-05-23_10h42.18.502,jersey_experiment_5_v1,2023.2.2,Win32,84.74576271,,,,,,,,,,,,,,,,725.209,726.5031,726.5031,727.9619,return,0.4957,,94.53125,,,,,,FBP-PT-91.png,0.45,1.2,15,0.5,,,,,,,,,,,,,0,51,51,14,1,,,,,,,,,,,,,,,,,,,,,,,,,,,,
,,,,,V1_036,21,Female,2024-05-23_10h42.18.502,jersey_experiment_5_v1,2023.2.2,Win32,84.74576271,,,,,,,,,,,,,,,,727.9621,729.256,729.256,730.8442,return,0.5516,,8.854166667,,,,,,FBP-PT-91.png,0.37,1.2,12,0.5,,,,,,,,,,,,,0,52,52,11,1,,,,,,,,,,,,,,,,,,,,,,,,,,,,
,,,,,V1_036,21,Female,2024-05-23_10h42.18.502,jersey_experiment_5_v1,2023.2.2,Win32,84.74576271,,,,,,,,,,,,,,,,730.8443,732.6444,732.6445,734.0562,return,0.3092,,97.00520833,,,,,,FBP-YG-17.png,0.43,1.2,19,1,,,,,,,,,,,,,0,53,53,18,1,,,,,,,,,,,,,,,,,,,,,,,,,,,,
,,,,,V1_036,21,Female,2024-05-23_10h42.18.502,jersey_experiment_5_v1,2023.2.2,Win32,84.74576271,,,,,,,,,,,,,,,,734.0563,735.8561,735.8562,737.2093,return,0.5198,,5.338541667,,,,,,FBP-RB-91.png,0.37,1.2,57,1,,,,,,,,,,,,,0,54,54,56,1,,,,,,,,,,,,,,,,,,,,,,,,,,,,
,,,,,V1_036,21,Female,2024-05-23_10h42.18.502,jersey_experiment_5_v1,2023.2.2,Win32,84.74576271,,,,,,,,,,,,,,,,737.2095,739.0092,739.0092,739.8682,return,0.2959,,6.380208333,,,,,,FBP-YG-19.png,0.37,1.2,27,1,,,,,,,,,,,,,0,55,55,26,1,,,,,,,,,,,,,,,,,,,,,,,,,,,,
,,,,,V1_036,21,Female,2024-05-23_10h42.18.502,jersey_experiment_5_v1,2023.2.2,Win32,84.74576271,,,,,,,,,,,,,,,,739.8684,741.1624,741.1624,742.7271,return,0.3589,,95.18229167,,,,,,FBP-PT-81.png,0.43,1.2,9,0.5,,,,,,,,,,,,,0,56,56,8,1,,,,,,,,,,,,,,,,,,,,,,,,,,,,
,,,,,V1_036,21,Female,2024-05-23_10h42.18.502,jersey_experiment_5_v1,2023.2.2,Win32,84.74576271,,,,,,,,,,,,,,,,742.7273,744.0211,744.0211,744.9976,return,0.3253,,95.18229167,,,,,,FBP-PT-81.png,0.45,1.2,10,0.5,,,,,,,,,,,,,0,57,57,9,1,,,,,,,,,,,,,,,,,,,,,,,,,,,,
,,,,,V1_036,21,Female,2024-05-23_10h42.18.502,jersey_experiment_5_v1,2023.2.2,Win32,84.74576271,,,,,,,,,,,,,,,,744.9978,746.798,746.798,747.8801,return,0.3102,,3.515625,,,,,,FBP-YG-17.png,0.37,1.2,17,1,,,,,,,,,,,,,0,58,58,16,1,,,,,,,,,,,,,,,,,,,,,,,,,,,,
,,,,,V1_036,21,Female,2024-05-23_10h42.18.502,jersey_experiment_5_v1,2023.2.2,Win32,84.74576271,,,,,,,,,,,,,,,,747.8803,749.6802,749.6803,750.4569,return,0.369,,4.296875,,,,,,FBP-YG-17.png,0.35,1.2,16,1,,,,,,,,,,,,,0,59,59,15,1,,,,,,,,,,,,,,,,,,,,,,,,,,,,
,,,,,V1_036,21,Female,2024-05-23_10h42.18.502,jersey_experiment_5_v1,2023.2.2,Win32,84.74576271,,,,,,,,,,,,,,,,750.459,751.751,751.751,753.0215,return,0.7528,,4.296875,,,,,,FBP-PT-19.png,0.37,1.2,12,0.5,,,,,,,,,,,,,,,,,,0,0,0,11,1,,,,,,,,,,,,,,,,,,,,,,,
,,,,,V1_036,21,Female,2024-05-23_10h42.18.502,jersey_experiment_5_v1,2023.2.2,Win32,84.74576271,,,,,,,,,,,,,,,,753.0218,754.8217,754.8217,756.057,return,0.5337,,95.703125,,,,,,FBP-RB-18.png,0.43,1.2,54,1,,,,,,,,,,,,,,,,,,0,1,1,53,1,,,,,,,,,,,,,,,,,,,,,,,
,,,,,V1_036,21,Female,2024-05-23_10h42.18.502,jersey_experiment_5_v1,2023.2.2,Win32,84.74576271,,,,,,,,,,,,,,,,756.0572,757.3511,757.3512,758.1392,return,0.3077,,95.703125,,,,,,FBP-PT-19.png,0.43,1.2,14,0.5,,,,,,,,,,,,,,,,,,0,2,2,13,1,,,,,,,,,,,,,,,,,,,,,,,
,,,,,V1_036,21,Female,2024-05-23_10h42.18.502,jersey_experiment_5_v1,2023.2.2,Win32,84.74576271,,,,,,,,,,,,,,,,758.1393,759.9394,759.9394,761.716,return,0.3857,,70.3125,,,,,,FBP-YG-71.png,0.4,1.2,18,1,,,,,,,,,,,,,,,,,,0,3,3,17,1,,,,,,,,,,,,,,,,,,,,,,,
,,,,,V1_036,21,Female,2024-05-23_10h42.18.502,jersey_experiment_5_v1,2023.2.2,Win32,84.74576271,,,,,,,,,,,,,,,,761.7163,763.5161,763.5162,764.7632,return,0.3434,,3.125,,,,,,FBP-OG-71.png,0.35,1.2,31,1,,,,,,,,,,,,,,,,,,0,4,4,30,1,,,,,,,,,,,,,,,,,,,,,,,
,,,,,V1_036,21,Female,2024-05-23_10h42.18.502,jersey_experiment_5_v1,2023.2.2,Win32,84.74576271,,,,,,,,,,,,,,,,764.7634,766.5635,766.5635,767.4456,return,0.3116,,95.703125,,,,,,FBP-RB-19.png,0.45,1.2,60,1,,,,,,,,,,,,,,,,,,0,5,5,59,1,,,,,,,,,,,,,,,,,,,,,,,
,,,,,V1_036,21,Female,2024-05-23_10h42.18.502,jersey_experiment_5_v1,2023.2.2,Win32,84.74576271,,,,,,,,,,,,,,,,767.4459,769.2457,769.2457,770.0574,return,0.3543,,89.453125,,,,,,FBP-YG-81.png,0.45,1.2,25,1,,,,,,,,,,,,,,,,,,0,6,6,24,1,,,,,,,,,,,,,,,,,,,,,,,
,,,,,V1_036,21,Female,2024-05-23_10h42.18.502,jersey_experiment_5_v1,2023.2.2,Win32,84.74576271,,,,,,,,,,,,,,,,770.0576,771.8577,771.8577,772.6458,return,0.2643,,7.8125,,,,,,FBP-OG-81.png,0.35,1.2,36,1,,,,,,,,,,,,,,,,,,0,7,7,35,1,,,,,,,,,,,,,,,,,,,,,,,
,,,,,V1_036,21,Female,2024-05-23_10h42.18.502,jersey_experiment_5_v1,2023.2.2,Win32,84.74576271,,,,,,,,,,,,,,,,772.6461,773.9399,773.9399,775.1399,return,0.2792,,32.68229167,,,,,,FBP-PT-17.png,0.4,1.2,3,0.5,,,,,,,,,,,,,,,,,,0,8,8,2,1,,,,,,,,,,,,,,,,,,,,,,,
,,,,,V1_036,21,Female,2024-05-23_10h42.18.502,jersey_experiment_5_v1,2023.2.2,Win32,84.74576271,,,,,,,,,,,,,,,,775.14,776.94,776.9401,777.8224,return,0.2963,,36.328125,,,,,,FBP-OG-81.png,0.4,1.2,38,1,,,,,,,,,,,,,,,,,,0,9,9,37,1,,,,,,,,,,,,,,,,,,,,,,,
,,,,,V1_036,21,Female,2024-05-23_10h42.18.502,jersey_experiment_5_v1,2023.2.2,Win32,84.74576271,,,,,,,,,,,,,,,,777.8227,779.1168,779.1168,780.4108,return,0.3301,,3.125,,,,,,FBP-PT-19.png,0.35,1.2,11,0.5,,,,,,,,,,,,,,,,,,0,10,10,10,1,,,,,,,,,,,,,,,,,,,,,,,
,,,,,V1_036,21,Female,2024-05-23_10h42.18.502,jersey_experiment_5_v1,2023.2.2,Win32,84.74576271,,,,,,,,,,,,,,,,780.4111,782.2109,782.2109,783.7874,return,0.6842,,88.41145833,,,,,,FBP-YG-91.png,0.43,1.2,29,1,,,,,,,,,,,,,,,,,,0,11,11,28,1,,,,,,,,,,,,,,,,,,,,,,,
,,,,,V1_036,21,Female,2024-05-23_10h42.18.502,jersey_experiment_5_v1,2023.2.2,Win32,84.74576271,,,,,,,,,,,,,,,,783.7877,785.5876,785.5876,786.6228,return,0.3298,,3.385416667,,,,,,FBP-RB-17.png,0.35,1.2,46,1,,,,,,,,,,,,,,,,,,0,12,12,45,1,,,,,,,,,,,,,,,,,,,,,,,
,,,,,V1_036,21,Female,2024-05-23_10h42.18.502,jersey_experiment_5_v1,2023.2.2,Win32,84.74576271,,,,,,,,,,,,,,,,786.6231,788.4228,788.4228,789.1289,return,0.2966,,3.385416667,,,,,,FBP-OG-91.png,0.35,1.2,41,1,,,,,,,,,,,,,,,,,,0,13,13,40,1,,,,,,,,,,,,,,,,,,,,,,,
,,,,,V1_036,21,Female,2024-05-23_10h42.18.502,jersey_experiment_5_v1,2023.2.2,Win32,84.74576271,,,,,,,,,,,,,,,,789.1291,790.929,790.929,792.1994,return,0.3001,,4.817708333,,,,,,FBP-OG-71.png,0.4,1.2,33,1,,,,,,,,,,,,,,,,,,0,14,14,32,1,,,,,,,,,,,,,,,,,,,,,,,
,,,,,V1_036,21,Female,2024-05-23_10h42.18.502,jersey_experiment_5_v1,2023.2.2,Win32,84.74576271,,,,,,,,,,,,,,,,792.1996,793.4937,793.4937,794.5996,return,0.2763,,1.822916667,,,,,,FBP-PT-17.png,0.35,1.2,1,0.5,,,,,,,,,,,,,,,,,,0,15,15,0,1,,,,,,,,,,,,,,,,,,,,,,,
,,,,,V1_036,21,Female,2024-05-23_10h42.18.502,jersey_experiment_5_v1,2023.2.2,Win32,84.74576271,,,,,,,,,,,,,,,,794.5998,795.8938,795.8938,796.9055,return,0.2601,,7.03125,,,,,,FBP-PT-17.png,0.37,1.2,2,0.5,,,,,,,,,,,,,,,,,,0,16,16,1,1,,,,,,,,,,,,,,,,,,,,,,,
,,,,,V1_036,21,Female,2024-05-23_10h42.18.502,jersey_experiment_5_v1,2023.2.2,Win32,84.74576271,,,,,,,,,,,,,,,,796.9058,798.1997,798.1997,799.7642,return,0.3147,,42.44791667,,,,,,FBP-PT-17.png,0.43,1.2,4,0.5,,,,,,,,,,,,,,,,,,0,17,17,3,1,,,,,,,,,,,,,,,,,,,,,,,
,,,,,V1_036,21,Female,2024-05-23_10h42.18.502,jersey_experiment_5_v1,2023.2.2,Win32,84.74576271,,,,,,,,,,,,,,,,799.7644,801.5647,801.5647,802.7292,return,0.2485,,80.46875,,,,,,FBP-YG-71.png,0.43,1.2,19,1,,,,,,,,,,,,,,,,,,0,18,18,18,1,,,,,,,,,,,,,,,,,,,,,,,
,,,,,V1_036,21,Female,2024-05-23_10h42.18.502,jersey_experiment_5_v1,2023.2.2,Win32,84.74576271,,,,,,,,,,,,,,,,802.7294,804.5295,804.5295,805.5765,return,0.2633,,37.890625,,,,,,FBP-YG-81.png,0.37,1.2,22,1,,,,,,,,,,,,,,,,,,0,19,19,21,1,,,,,,,,,,,,,,,,,,,,,,,
,,,,,V1_036,21,Female,2024-05-23_10h42.18.502,jersey_experiment_5_v1,2023.2.2,Win32,84.74576271,,,,,,,,,,,,,,,,805.5767,807.3765,807.3765,808.3883,return,0.289,,28.77604167,,,,,,FBP-OG-71.png,0.37,1.2,32,1,,,,,,,,,,,,,,,,,,0,20,20,31,1,,,,,,,,,,,,,,,,,,,,,,,
,,,,,V1_036,21,Female,2024-05-23_10h42.18.502,jersey_experiment_5_v1,2023.2.2,Win32,84.74576271,,,,,,,,,,,,,,,,808.3884,810.1884,810.1884,811.4707,return,0.3903,,95.703125,,,,,,FBP-YG-71.png,0.45,1.2,20,1,,,,,,,,,,,,,,,,,,0,21,21,19,1,,,,,,,,,,,,,,,,,,,,,,,
,,,,,V1_036,21,Female,2024-05-23_10h42.18.502,jersey_experiment_5_v1,2023.2.2,Win32,84.74576271,,,,,,,,,,,,,,,,811.471,813.2707,813.2707,814.0238,return,0.3583,,95.703125,,,,,,FBP-RB-18.png,0.45,1.2,55,1,,,,,,,,,,,,,,,,,,0,22,22,54,1,,,,,,,,,,,,,,,,,,,,,,,
,,,,,V1_036,21,Female,2024-05-23_10h42.18.502,jersey_experiment_5_v1,2023.2.2,Win32,84.74576271,,,,,,,,,,,,,,,,814.024,815.824,815.824,817.1416,return,0.3254,,13.41145833,,,,,,FBP-OG-81.png,0.37,1.2,37,1,,,,,,,,,,,,,,,,,,0,23,23,36,1,,,,,,,,,,,,,,,,,,,,,,,
,,,,,V1_036,21,Female,2024-05-23_10h42.18.502,jersey_experiment_5_v1,2023.2.2,Win32,84.74576271,,,,,,,,,,,,,,,,817.1419,818.9417,818.9418,819.671,return,0.2976,,6.25,,,,,,FBP-YG-81.png,0.35,1.2,21,1,,,,,,,,,,,,,,,,,,0,24,24,20,1,,,,,,,,,,,,,,,,,,,,,,,
,,,,,V1_036,21,Female,2024-05-23_10h42.18.502,jersey_experiment_5_v1,2023.2.2,Win32,84.74576271,,,,,,,,,,,,,,,,819.6711,821.4712,821.4712,822.5182,return,0.2653,,6.25,,,,,,FBP-OG-91.png,0.37,1.2,42,1,,,,,,,,,,,,,,,,,,0,25,25,41,1,,,,,,,,,,,,,,,,,,,,,,,
,,,,,V1_036,21,Female,2024-05-23_10h42.18.502,jersey_experiment_5_v1,2023.2.2,Win32,84.74576271,,,,,,,,,,,,,,,,822.5184,824.3183,824.3183,824.9536,return,0.3069,,5.989583333,,,,,,FBP-YG-91.png,0.37,1.2,27,1,,,,,,,,,,,,,,,,,,0,26,26,26,1,,,,,,,,,,,,,,,,,,,,,,,
,,,,,V1_036,21,Female,2024-05-23_10h42.18.502,jersey_experiment_5_v1,2023.2.2,Win32,84.74576271,,,,,,,,,,,,,,,,824.9538,826.7536,826.7536,827.3655,return,0.2428,,5.729166667,,,,,,FBP-RB-18.png,0.37,1.2,52,1,,,,,,,,,,,,,,,,,,0,27,27,51,1,,,,,,,,,,,,,,,,,,,,,,,
,,,,,V1_036,21,Female,2024-05-23_10h42.18.502,jersey_experiment_5_v1,2023.2.2,Win32,84.74576271,,,,,,,,,,,,,,,,827.3657,828.6595,828.6595,830.4949,return,0.3871,,75.78125,,,,,,FBP-PT-17.png,0.45,1.2,5,0.5,,,,,,,,,,,,,,,,,,0,28,28,4,1,,,,,,,,,,,,,,,,,,,,,,,
,,,,,V1_036,21,Female,2024-05-23_10h42.18.502,jersey_experiment_5_v1,2023.2.2,Win32,84.74576271,,,,,,,,,,,,,,,,830.4952,832.2949,832.2949,833.8717,return,0.5183,,74.21875,,,,,,FBP-YG-81.png,0.43,1.2,24,1,,,,,,,,,,,,,,,,,,0,29,29,23,1,,,,,,,,,,,,,,,,,,,,,,,
,,,,,V1_036,21,Female,2024-05-23_10h42.18.502,jersey_experiment_5_v1,2023.2.2,Win32,84.74576271,,,,,,,,,,,,,,,,833.872,835.1658,835.1658,836.5541,return,0.5084,,58.33333333,,,,,,FBP-PT-18.png,0.4,1.2,8,0.5,,,,,,,,,,,,,,,,,,0,30,30,7,1,,,,,,,,,,,,,,,,,,,,,,,
,,,,,V1_036,21,Female,2024-05-23_10h42.18.502,jersey_experiment_5_v1,2023.2.2,Win32,84.74576271,,,,,,,,,,,,,,,,836.5544,838.3541,838.3542,839.2718,return,0.4996,,96.35416667,,,,,,FBP-OG-81.png,0.45,1.2,40,1,,,,,,,,,,,,,,,,,,0,31,31,39,1,,,,,,,,,,,,,,,,,,,,,,,
,,,,,V1_036,21,Female,2024-05-23_10h42.18.502,jersey_experiment_5_v1,2023.2.2,Win32,84.74576271,,,,,,,,,,,,,,,,839.272,840.5659,840.5659,841.8599,return,0.2914,,6.510416667,,,,,,FBP-PT-18.png,0.35,1.2,6,0.5,,,,,,,,,,,,,,,,,,0,32,32,5,1,,,,,,,,,,,,,,,,,,,,,,,
,,,,,V1_036,21,Female,2024-05-23_10h42.18.502,jersey_experiment_5_v1,2023.2.2,Win32,84.74576271,,,,,,,,,,,,,,,,841.8601,843.66,843.66,844.6601,return,0.3382,,51.69270833,,,,,,FBP-OG-91.png,0.4,1.2,43,1,,,,,,,,,,,,,,,,,,0,33,33,42,1,,,,,,,,,,,,,,,,,,,,,,,
,,,,,V1_036,21,Female,2024-05-23_10h42.18.502,jersey_experiment_5_v1,2023.2.2,Win32,84.74576271,,,,,,,,,,,,,,,,844.6603,846.4604,846.4604,847.3661,return,0.2893,,63.41145833,,,,,,FBP-RB-17.png,0.43,1.2,49,1,,,,,,,,,,,,,,,,,,0,34,34,48,1,,,,,,,,,,,,,,,,,,,,,,,
,,,,,V1_036,21,Female,2024-05-23_10h42.18.502,jersey_experiment_5_v1,2023.2.2,Win32,84.74576271,,,,,,,,,,,,,,,,847.3664,849.1665,849.1665,850.4721,return,0.4758,,1.302083333,,,,,,FBP-RB-19.png,0.35,1.2,56,1,,,,,,,,,,,,,,,,,,0,35,35,55,1,,,,,,,,,,,,,,,,,,,,,,,
,,,,,V1_036,21,Female,2024-05-23_10h42.18.502,jersey_experiment_5_v1,2023.2.2,Win32,84.74576271,,,,,,,,,,,,,,,,850.4723,852.2727,852.2727,853.9428,return,0.3475,,61.45833333,,,,,,FBP-RB-17.png,0.4,1.2,48,1,,,,,,,,,,,,,,,,,,0,36,36,47,1,,,,,,,,,,,,,,,,,,,,,,,
,,,,,V1_036,21,Female,2024-05-23_10h42.18.502,jersey_experiment_5_v1,2023.2.2,Win32,84.74576271,,,,,,,,,,,,,,,,853.9432,855.2373,855.2373,856.9194,return,0.3444,,50.78125,,,,,,FBP-PT-19.png,0.4,1.2,13,0.5,,,,,,,,,,,,,,,,,,0,37,37,12,1,,,,,,,,,,,,,,,,,,,,,,,
,,,,,V1_036,21,Female,2024-05-23_10h42.18.502,jersey_experiment_5_v1,2023.2.2,Win32,84.74576271,,,,,,,,,,,,,,,,856.9196,858.7196,858.7197,859.6724,return,0.2962,,97.13541667,,,,,,FBP-OG-71.png,0.45,1.2,35,1,,,,,,,,,,,,,,,,,,0,38,38,34,1,,,,,,,,,,,,,,,,,,,,,,,
,,,,,V1_036,21,Female,2024-05-23_10h42.18.502,jersey_experiment_5_v1,2023.2.2,Win32,84.74576271,,,,,,,,,,,,,,,,859.6726,861.4725,861.4725,862.1667,return,0.3219,,97.13541667,,,,,,FBP-OG-91.png,0.45,1.2,45,1,,,,,,,,,,,,,,,,,,0,39,39,44,1,,,,,,,,,,,,,,,,,,,,,,,
,,,,,V1_036,21,Female,2024-05-23_10h42.18.502,jersey_experiment_5_v1,2023.2.2,Win32,84.74576271,,,,,,,,,,,,,,,,862.1668,863.967,863.967,865.2375,return,0.3727,,2.734375,,,,,,FBP-YG-71.png,0.35,1.2,16,1,,,,,,,,,,,,,,,,,,0,40,40,15,1,,,,,,,,,,,,,,,,,,,,,,,
,,,,,V1_036,21,Female,2024-05-23_10h42.18.502,jersey_experiment_5_v1,2023.2.2,Win32,84.74576271,,,,,,,,,,,,,,,,865.2376,867.0373,867.0373,867.9785,return,0.2947,,13.54166667,,,,,,FBP-RB-19.png,0.4,1.2,58,1,,,,,,,,,,,,,,,,,,0,41,41,57,1,,,,,,,,,,,,,,,,,,,,,,,
,,,,,V1_036,21,Female,2024-05-23_10h42.18.502,jersey_experiment_5_v1,2023.2.2,Win32,84.74576271,,,,,,,,,,,,,,,,867.9787,869.7788,869.7789,870.4846,return,0.2884,,11.97916667,,,,,,FBP-RB-18.png,0.4,1.2,53,1,,,,,,,,,,,,,,,,,,0,42,42,52,1,,,,,,,,,,,,,,,,,,,,,,,
,,,,,V1_036,21,Female,2024-05-23_10h42.18.502,jersey_experiment_5_v1,2023.2.2,Win32,84.74576271,,,,,,,,,,,,,,,,870.4847,871.7787,871.7787,873.2847,return,0.3018,,95.57291667,,,,,,FBP-PT-19.png,0.45,1.2,15,0.5,,,,,,,,,,,,,,,,,,0,43,43,14,1,,,,,,,,,,,,,,,,,,,,,,,
,,,,,V1_036,21,Female,2024-05-23_10h42.18.502,jersey_experiment_5_v1,2023.2.2,Win32,84.74576271,,,,,,,,,,,,,,,,873.2849,875.0849,875.0849,876.3673,return,0.2823,,5.078125,,,,,,FBP-YG-81.png,0.4,1.2,23,1,,,,,,,,,,,,,,,,,,0,44,44,22,1,,,,,,,,,,,,,,,,,,,,,,,
,,,,,V1_036,21,Female,2024-05-23_10h42.18.502,jersey_experiment_5_v1,2023.2.2,Win32,84.74576271,,,,,,,,,,,,,,,,876.3674,878.1673,878.1673,879.1438,return,0.6047,,5.078125,,,,,,FBP-RB-18.png,0.35,1.2,51,1,,,,,,,,,,,,,,,,,,0,45,45,50,1,,,,,,,,,,,,,,,,,,,,,,,
,,,,,V1_036,21,Female,2024-05-23_10h42.18.502,jersey_experiment_5_v1,2023.2.2,Win32,84.74576271,,,,,,,,,,,,,,,,879.1441,880.9439,880.944,882.7792,return,0.3313,,70.703125,,,,,,FBP-OG-81.png,0.43,1.2,39,1,,,,,,,,,,,,,,,,,,0,46,46,38,1,,,,,,,,,,,,,,,,,,,,,,,
,,,,,V1_036,21,Female,2024-05-23_10h42.18.502,jersey_experiment_5_v1,2023.2.2,Win32,84.74576271,,,,,,,,,,,,,,,,882.7794,884.5796,884.5796,886.0734,return,0.5213,,4.557291667,,,,,,FBP-YG-91.png,0.35,1.2,26,1,,,,,,,,,,,,,,,,,,0,47,47,25,1,,,,,,,,,,,,,,,,,,,,,,,
,,,,,V1_036,21,Female,2024-05-23_10h42.18.502,jersey_experiment_5_v1,2023.2.2,Win32,84.74576271,,,,,,,,,,,,,,,,886.0736,887.8735,887.8736,889.097,return,0.557,,4.557291667,,,,,,FBP-RB-19.png,0.37,1.2,57,1,,,,,,,,,,,,,,,,,,0,48,48,56,1,,,,,,,,,,,,,,,,,,,,,,,
,,,,,V1_036,21,Female,2024-05-23_10h42.18.502,jersey_experiment_5_v1,2023.2.2,Win32,84.74576271,,,,,,,,,,,,,,,,889.0972,890.8972,890.8972,892.1913,return,0.353,,96.484375,,,,,,FBP-OG-91.png,0.43,1.2,44,1,,,,,,,,,,,,,,,,,,0,49,49,43,1,,,,,,,,,,,,,,,,,,,,,,,
,,,,,V1_036,21,Female,2024-05-23_10h42.18.502,jersey_experiment_5_v1,2023.2.2,Win32,84.74576271,,,,,,,,,,,,,,,,892.1916,893.9916,893.9916,895.2621,return,0.2836,,77.86458333,,,,,,FBP-OG-71.png,0.43,1.2,34,1,,,,,,,,,,,,,,,,,,0,50,50,33,1,,,,,,,,,,,,,,,,,,,,,,,
,,,,,V1_036,21,Female,2024-05-23_10h42.18.502,jersey_experiment_5_v1,2023.2.2,Win32,84.74576271,,,,,,,,,,,,,,,,895.2624,897.0621,897.0621,898.4269,return,0.261,,4.036458333,,,,,,FBP-RB-17.png,0.37,1.2,47,1,,,,,,,,,,,,,,,,,,0,51,51,46,1,,,,,,,,,,,,,,,,,,,,,,,
,,,,,V1_036,21,Female,2024-05-23_10h42.18.502,jersey_experiment_5_v1,2023.2.2,Win32,84.74576271,,,,,,,,,,,,,,,,898.4271,900.227,900.227,901.2269,return,0.2846,,20.44270833,,,,,,FBP-YG-91.png,0.4,1.2,28,1,,,,,,,,,,,,,,,,,,0,52,52,27,1,,,,,,,,,,,,,,,,,,,,,,,
,,,,,V1_036,21,Female,2024-05-23_10h42.18.502,jersey_experiment_5_v1,2023.2.2,Win32,84.74576271,,,,,,,,,,,,,,,,901.2271,903.0269,903.0269,904.2505,return,0.3907,,27.60416667,,,,,,FBP-RB-19.png,0.43,1.2,59,1,,,,,,,,,,,,,,,,,,0,53,53,58,1,,,,,,,,,,,,,,,,,,,,,,,
,,,,,V1_036,21,Female,2024-05-23_10h42.18.502,jersey_experiment_5_v1,2023.2.2,Win32,84.74576271,,,,,,,,,,,,,,,,904.2507,906.0505,906.0506,906.8271,return,0.3314,,34.11458333,,,,,,FBP-YG-91.png,0.45,1.2,30,1,,,,,,,,,,,,,,,,,,0,54,54,29,1,,,,,,,,,,,,,,,,,,,,,,,
,,,,,V1_036,21,Female,2024-05-23_10h42.18.502,jersey_experiment_5_v1,2023.2.2,Win32,84.74576271,,,,,,,,,,,,,,,,906.8273,908.6272,908.6272,909.9096,return,0.2529,,37.63020833,,,,,,FBP-RB-17.png,0.45,1.2,50,1,,,,,,,,,,,,,,,,,,0,55,55,49,1,,,,,,,,,,,,,,,,,,,,,,,
,,,,,V1_036,21,Female,2024-05-23_10h42.18.502,jersey_experiment_5_v1,2023.2.2,Win32,84.74576271,,,,,,,,,,,,,,,,909.9097,911.7099,911.71,912.6625,return,0.3692,,5.989583333,,,,,,FBP-YG-71.png,0.37,1.2,17,1,,,,,,,,,,,,,,,,,,0,56,56,16,1,,,,,,,,,,,,,,,,,,,,,,,
,,,,,V1_036,21,Female,2024-05-23_10h42.18.502,jersey_experiment_5_v1,2023.2.2,Win32,84.74576271,,,,,,,,,,,,,,,,912.6627,913.9567,913.9567,915.4863,return,0.6119,,29.6875,,,,,,FBP-PT-18.png,0.43,1.2,9,0.5,,,,,,,,,,,,,,,,,,0,57,57,8,1,,,,,,,,,,,,,,,,,,,,,,,
,,,,,V1_036,21,Female,2024-05-23_10h42.18.502,jersey_experiment_5_v1,2023.2.2,Win32,84.74576271,,,,,,,,,,,,,,,,915.4866,916.7804,916.7804,918.3453,return,0.5196,,2.604166667,,,,,,FBP-PT-18.png,0.37,1.2,7,0.5,,,,,,,,,,,,,,,,,,0,58,58,6,1,,,,,,,,,,,,,,,,,,,,,,,
,,,,,V1_036,21,Female,2024-05-23_10h42.18.502,jersey_experiment_5_v1,2023.2.2,Win32,84.74576271,,,,,,,,,,,,,,,,918.3456,919.6394,919.6394,921.2748,return,0.2947,,71.875,,,,,,FBP-PT-18.png,0.45,1.2,10,0.5,,,,,,,,,,,,,,,,,,0,59,59,9,1,,,,,,,,,,,,,,,,,,,,,,,
,,,,,V1_036,21,Female,2024-05-23_10h42.18.502,jersey_experiment_5_v1,2023.2.2,Win32,84.74576271,,,,,,,,,,,,,,,,,,,,,,,,,,,,,,,,,,,,,,,,,,,,,,,,,,,,,,,,921.2751,928.4045,return,7.1244,,,,,,,,,,,,,,,,,,,
,,,,,V1_036,21,Female,2024-05-23_10h42.18.502,jersey_experiment_5_v1,2023.2.2,Win32,84.74576271,,,,,,,,,,,,,,,,,,,,,,,,,,,,,,,,,,,,,,,,,,,,,,,,,,,,,,,,,,,,,928.4046,932.4047,1,2.894,return,1.0905,,,,,,,,,,,,
,,,,,V1_036,21,Female,2024-05-23_10h42.18.502,jersey_experiment_5_v1,2023.2.2,Win32,84.74576271,,,,,,,,,,,,,,,,,,,,,,,,,,,,,,,,,,,,,,,,,,,,,,,,,,,,,,,,,,,,,,,,,,,,932.4048,950.4341,no,right,8.3386,,,,,,
,,,,,V1_036,21,Female,2024-05-23_10h42.18.502,jersey_experiment_5_v1,2023.2.2,Win32,84.74576271,,,,,,,,,,,,,,,,,,,,,,,,,,,,,,,,,,,,,,,,,,,,,,,,,,,,,,,,,,,,,,,,,,,,,,,,,,950.4342,953.7701,return,3.3262,