requirements.started,requirements.stopped,key_resp_3.keys,key_resp_3.rt,key_resp_3.duration,Subject ID,Age,Gender,date,expName,psychopyVersion,OS,frameRate,instructions1.started,instructions1.stopped,key_resp.keys,key_resp.rt,key_resp.duration,example.started,example.stopped,enter_2.keys,enter_2.rt,enter_2.duration,instructions2.started,instructions2.stopped,enter_3.keys,enter_3.rt,enter_3.duration,image.started,image.stopped,slider_2.started,slider_2.stopped,next.keys,next.rt,next.duration,slider.response,trial_block_1.thisRepN,trial_block_1.thisTrialN,trial_block_1.thisN,trial_block_1.thisIndex,trial_block_1.ran,Path,Width,Height,Index,Duration,trial_block_2.thisRepN,trial_block_2.thisTrialN,trial_block_2.thisN,trial_block_2.thisIndex,trial_block_2.ran,rest_break.started,rest_break.stopped,end_break.started,end_break.stopped,key_resp_5.keys,key_resp_5.rt,key_resp_5.duration,trial_block_3.thisRepN,trial_block_3.thisTrialN,trial_block_3.thisN,trial_block_3.thisIndex,trial_block_3.ran,trial_block_4.thisRepN,trial_block_4.thisTrialN,trial_block_4.thisN,trial_block_4.thisIndex,trial_block_4.ran,questions_intro.started,questions_intro.stopped,enter_12.keys,enter_12.rt,enter_12.duration,question2.started,question2.stopped,question_doingbest.response,question_doingbest.rt,enter_15.keys,enter_15.rt,enter_15.duration,pattern.started,pattern.stopped,pattern_2.text,enter_17.keys,enter_17.rt,enter_17.duration,thankyou.started,thankyou.stopped,enter_14.keys,enter_14.rt,enter_14.duration
0.0002,6.9096,return,6.9009,,V1_016,19,Male,2024-05-14_17h14.57.304,jersey_experiment_5_v1,2023.2.2,Win32,84.74576271,,,,,,,,,,,,,,,,,,,,,,,,,,,,,,,,,,,,,,,,,,,,,,,,,,,,,,,,,,,,,,,,,,,,,,,,,,,,,,
,,,,,V1_016,19,Male,2024-05-14_17h14.57.304,jersey_experiment_5_v1,2023.2.2,Win32,84.74576271,6.9097,16.6277,return,9.7075,,,,,,,,,,,,,,,,,,,,,,,,,,,,,,,,,,,,,,,,,,,,,,,,,,,,,,,,,,,,,,,,,,,,,,,,,,
,,,,,V1_016,19,Male,2024-05-14_17h14.57.304,jersey_experiment_5_v1,2023.2.2,Win32,84.74576271,,,,,,16.6277,23.2161,return,6.5581,,,,,,,,,,,,,,,,,,,,,,,,,,,,,,,,,,,,,,,,,,,,,,,,,,,,,,,,,,,,,,,,,,,,,
,,,,,V1_016,19,Male,2024-05-14_17h14.57.304,jersey_experiment_5_v1,2023.2.2,Win32,84.74576271,,,,,,,,,,,23.2162,38.9226,return,15.7006,,,,,,,,,,,,,,,,,,,,,,,,,,,,,,,,,,,,,,,,,,,,,,,,,,,,,,,,,,,,,,,,
,,,,,V1_016,19,Male,2024-05-14_17h14.57.304,jersey_experiment_5_v1,2023.2.2,Win32,84.74576271,,,,,,,,,,,,,,,,38.9296,40.2282,40.2283,55.0878,return,5.6589,,75.78125,0,0,0,50,1,FBP-RB-81.png,0.35,1.2,51,0.5,,,,,,,,,,,,,,,,,,,,,,,,,,,,,,,,,,,,,,,,,,,,,
,,,,,V1_016,19,Male,2024-05-14_17h14.57.304,jersey_experiment_5_v1,2023.2.2,Win32,84.74576271,,,,,,,,,,,,,,,,55.092,56.3933,56.3934,64.5114,return,1.2376,,72.52604167,0,1,1,40,1,FBP-OG-19.png,0.35,1.2,41,0.5,,,,,,,,,,,,,,,,,,,,,,,,,,,,,,,,,,,,,,,,,,,,,
,,,,,V1_016,19,Male,2024-05-14_17h14.57.304,jersey_experiment_5_v1,2023.2.2,Win32,84.74576271,,,,,,,,,,,,,,,,64.5117,65.8057,65.8057,72.547,return,4.4335,,80.72916667,0,2,2,55,1,FBP-RB-91.png,0.35,1.2,56,0.5,,,,,,,,,,,,,,,,,,,,,,,,,,,,,,,,,,,,,,,,,,,,,
,,,,,V1_016,19,Male,2024-05-14_17h14.57.304,jersey_experiment_5_v1,2023.2.2,Win32,84.74576271,,,,,,,,,,,,,,,,72.5515,73.8529,73.8529,80.2177,return,4.055,,76.5625,0,3,3,51,1,FBP-RB-81.png,0.37,1.2,52,0.5,,,,,,,,,,,,,,,,,,,,,,,,,,,,,,,,,,,,,,,,,,,,,
,,,,,V1_016,19,Male,2024-05-14_17h14.57.304,jersey_experiment_5_v1,2023.2.2,Win32,84.74576271,,,,,,,,,,,,,,,,80.222,81.5237,81.5238,86.4181,return,2.061,,75,0,4,4,36,1,FBP-OG-18.png,0.37,1.2,37,0.5,,,,,,,,,,,,,,,,,,,,,,,,,,,,,,,,,,,,,,,,,,,,,
,,,,,V1_016,19,Male,2024-05-14_17h14.57.304,jersey_experiment_5_v1,2023.2.2,Win32,84.74576271,,,,,,,,,,,,,,,,86.4183,87.7121,87.7122,92.3948,return,1.8069,,96.61458333,0,5,5,59,1,FBP-RB-91.png,0.45,1.2,60,0.5,,,,,,,,,,,,,,,,,,,,,,,,,,,,,,,,,,,,,,,,,,,,,
,,,,,V1_016,19,Male,2024-05-14_17h14.57.304,jersey_experiment_5_v1,2023.2.2,Win32,84.74576271,,,,,,,,,,,,,,,,92.3951,93.6891,93.6892,99.9362,return,3.1172,,81.77083333,0,6,6,42,1,FBP-OG-19.png,0.4,1.2,43,0.5,,,,,,,,,,,,,,,,,,,,,,,,,,,,,,,,,,,,,,,,,,,,,
,,,,,V1_016,19,Male,2024-05-14_17h14.57.304,jersey_experiment_5_v1,2023.2.2,Win32,84.74576271,,,,,,,,,,,,,,,,99.9365,101.2303,101.2303,106.1717,return,2.9566,,68.61979167,0,7,7,21,1,FBP-YG-18.png,0.37,1.2,22,0.5,,,,,,,,,,,,,,,,,,,,,,,,,,,,,,,,,,,,,,,,,,,,,
,,,,,V1_016,19,Male,2024-05-14_17h14.57.304,jersey_experiment_5_v1,2023.2.2,Win32,84.74576271,,,,,,,,,,,,,,,,106.1719,107.4658,107.4658,112.1366,return,2.5484,,85.546875,0,8,8,48,1,FBP-RB-71.png,0.43,1.2,49,0.5,,,,,,,,,,,,,,,,,,,,,,,,,,,,,,,,,,,,,,,,,,,,,
,,,,,V1_016,19,Male,2024-05-14_17h14.57.304,jersey_experiment_5_v1,2023.2.2,Win32,84.74576271,,,,,,,,,,,,,,,,112.1368,113.4308,113.4308,116.3134,return,1.0438,,97.52604167,0,9,9,29,1,FBP-YG-19.png,0.45,1.2,30,0.5,,,,,,,,,,,,,,,,,,,,,,,,,,,,,,,,,,,,,,,,,,,,,
,,,,,V1_016,19,Male,2024-05-14_17h14.57.304,jersey_experiment_5_v1,2023.2.2,Win32,84.74576271,,,,,,,,,,,,,,,,116.3137,118.1133,118.1133,123.5018,return,3.4978,,53.125,0,10,10,0,1,FBP-PT-71.png,0.35,1.2,1,1,,,,,,,,,,,,,,,,,,,,,,,,,,,,,,,,,,,,,,,,,,,,,
,,,,,V1_016,19,Male,2024-05-14_17h14.57.304,jersey_experiment_5_v1,2023.2.2,Win32,84.74576271,,,,,,,,,,,,,,,,123.5059,124.8075,124.8075,129.1491,return,1.9225,,81.25,0,11,11,17,1,FBP-YG-17.png,0.4,1.2,18,0.5,,,,,,,,,,,,,,,,,,,,,,,,,,,,,,,,,,,,,,,,,,,,,
,,,,,V1_016,19,Male,2024-05-14_17h14.57.304,jersey_experiment_5_v1,2023.2.2,Win32,84.74576271,,,,,,,,,,,,,,,,129.1493,130.4432,130.4432,135.114,return,1.5236,,95.83333333,0,12,12,19,1,FBP-YG-17.png,0.45,1.2,20,0.5,,,,,,,,,,,,,,,,,,,,,,,,,,,,,,,,,,,,,,,,,,,,,
,,,,,V1_016,19,Male,2024-05-14_17h14.57.304,jersey_experiment_5_v1,2023.2.2,Win32,84.74576271,,,,,,,,,,,,,,,,135.1143,136.408,136.408,139.0083,return,0.6253,,92.44791667,0,13,13,23,1,FBP-YG-18.png,0.43,1.2,24,0.5,,,,,,,,,,,,,,,,,,,,,,,,,,,,,,,,,,,,,,,,,,,,,
,,,,,V1_016,19,Male,2024-05-14_17h14.57.304,jersey_experiment_5_v1,2023.2.2,Win32,84.74576271,,,,,,,,,,,,,,,,139.0085,140.3023,140.3023,144.2084,return,2.0845,,88.54166667,0,14,14,18,1,FBP-YG-17.png,0.43,1.2,19,0.5,,,,,,,,,,,,,,,,,,,,,,,,,,,,,,,,,,,,,,,,,,,,,
,,,,,V1_016,19,Male,2024-05-14_17h14.57.304,jersey_experiment_5_v1,2023.2.2,Win32,84.74576271,,,,,,,,,,,,,,,,144.2086,146.0084,146.0085,150.3499,return,2.0013,,86.97916667,0,15,15,2,1,FBP-PT-71.png,0.4,1.2,3,1,,,,,,,,,,,,,,,,,,,,,,,,,,,,,,,,,,,,,,,,,,,,,
,,,,,V1_016,19,Male,2024-05-14_17h14.57.304,jersey_experiment_5_v1,2023.2.2,Win32,84.74576271,,,,,,,,,,,,,,,,150.3501,151.6439,151.644,156.5265,return,1.8386,,57.29166667,0,16,16,20,1,FBP-YG-18.png,0.35,1.2,21,0.5,,,,,,,,,,,,,,,,,,,,,,,,,,,,,,,,,,,,,,,,,,,,,
,,,,,V1_016,19,Male,2024-05-14_17h14.57.304,jersey_experiment_5_v1,2023.2.2,Win32,84.74576271,,,,,,,,,,,,,,,,156.5267,157.8206,157.8206,163.0209,return,1.9201,,69.66145833,0,17,17,47,1,FBP-RB-71.png,0.4,1.2,48,0.5,,,,,,,,,,,,,,,,,,,,,,,,,,,,,,,,,,,,,,,,,,,,,
,,,,,V1_016,19,Male,2024-05-14_17h14.57.304,jersey_experiment_5_v1,2023.2.2,Win32,84.74576271,,,,,,,,,,,,,,,,163.0212,164.8212,164.8212,169.0917,return,0.81,,50.52083333,0,18,18,10,1,FBP-PT-91.png,0.35,1.2,11,1,,,,,,,,,,,,,,,,,,,,,,,,,,,,,,,,,,,,,,,,,,,,,
,,,,,V1_016,19,Male,2024-05-14_17h14.57.304,jersey_experiment_5_v1,2023.2.2,Win32,84.74576271,,,,,,,,,,,,,,,,169.0919,170.8919,170.8919,173.0684,return,0.5332,,93.88020833,0,19,19,4,1,FBP-PT-71.png,0.45,1.2,5,1,,,,,,,,,,,,,,,,,,,,,,,,,,,,,,,,,,,,,,,,,,,,,
,,,,,V1_016,19,Male,2024-05-14_17h14.57.304,jersey_experiment_5_v1,2023.2.2,Win32,84.74576271,,,,,,,,,,,,,,,,173.0686,174.8686,174.8687,176.9154,return,0.391,,69.79166667,0,20,20,12,1,FBP-PT-91.png,0.4,1.2,13,1,,,,,,,,,,,,,,,,,,,,,,,,,,,,,,,,,,,,,,,,,,,,,
,,,,,V1_016,19,Male,2024-05-14_17h14.57.304,jersey_experiment_5_v1,2023.2.2,Win32,84.74576271,,,,,,,,,,,,,,,,176.9156,178.7155,178.7155,180.9864,return,1.243,,78.125,0,21,21,13,1,FBP-PT-91.png,0.43,1.2,14,1,,,,,,,,,,,,,,,,,,,,,,,,,,,,,,,,,,,,,,,,,,,,,
,,,,,V1_016,19,Male,2024-05-14_17h14.57.304,jersey_experiment_5_v1,2023.2.2,Win32,84.74576271,,,,,,,,,,,,,,,,180.9866,182.2804,182.2804,185.6805,return,0.6694,,75.13020833,0,22,22,52,1,FBP-RB-81.png,0.4,1.2,53,0.5,,,,,,,,,,,,,,,,,,,,,,,,,,,,,,,,,,,,,,,,,,,,,
,,,,,V1_016,19,Male,2024-05-14_17h14.57.304,jersey_experiment_5_v1,2023.2.2,Win32,84.74576271,,,,,,,,,,,,,,,,185.6807,186.9746,186.9746,189.4217,return,0.8271,,49.73958333,0,23,23,15,1,FBP-YG-17.png,0.35,1.2,16,0.5,,,,,,,,,,,,,,,,,,,,,,,,,,,,,,,,,,,,,,,,,,,,,
,,,,,V1_016,19,Male,2024-05-14_17h14.57.304,jersey_experiment_5_v1,2023.2.2,Win32,84.74576271,,,,,,,,,,,,,,,,189.422,191.2221,191.2221,194.7397,return,2.0947,,90.88541667,0,24,24,9,1,FBP-PT-81.png,0.45,1.2,10,1,,,,,,,,,,,,,,,,,,,,,,,,,,,,,,,,,,,,,,,,,,,,,
,,,,,V1_016,19,Male,2024-05-14_17h14.57.304,jersey_experiment_5_v1,2023.2.2,Win32,84.74576271,,,,,,,,,,,,,,,,194.7398,196.5398,196.5398,200.187,return,1.9713,,43.61979167,0,25,25,5,1,FBP-PT-81.png,0.35,1.2,6,1,,,,,,,,,,,,,,,,,,,,,,,,,,,,,,,,,,,,,,,,,,,,,
,,,,,V1_016,19,Male,2024-05-14_17h14.57.304,jersey_experiment_5_v1,2023.2.2,Win32,84.74576271,,,,,,,,,,,,,,,,200.1873,201.4813,201.4813,205.2342,return,1.2808,,58.07291667,0,26,26,43,1,FBP-OG-19.png,0.43,1.2,44,0.5,,,,,,,,,,,,,,,,,,,,,,,,,,,,,,,,,,,,,,,,,,,,,
,,,,,V1_016,19,Male,2024-05-14_17h14.57.304,jersey_experiment_5_v1,2023.2.2,Win32,84.74576271,,,,,,,,,,,,,,,,205.2345,206.5283,206.5283,209.3874,return,1.0064,,74.86979167,0,27,27,58,1,FBP-RB-91.png,0.43,1.2,59,0.5,,,,,,,,,,,,,,,,,,,,,,,,,,,,,,,,,,,,,,,,,,,,,
,,,,,V1_016,19,Male,2024-05-14_17h14.57.304,jersey_experiment_5_v1,2023.2.2,Win32,84.74576271,,,,,,,,,,,,,,,,209.3875,210.6814,210.6814,212.6345,return,0.5699,,50.65104167,0,28,28,56,1,FBP-RB-91.png,0.37,1.2,57,0.5,,,,,,,,,,,,,,,,,,,,,,,,,,,,,,,,,,,,,,,,,,,,,
,,,,,V1_016,19,Male,2024-05-14_17h14.57.304,jersey_experiment_5_v1,2023.2.2,Win32,84.74576271,,,,,,,,,,,,,,,,212.6348,213.9286,213.9286,216.5875,return,1.1002,,60.02604167,0,29,29,37,1,FBP-OG-18.png,0.4,1.2,38,0.5,,,,,,,,,,,,,,,,,,,,,,,,,,,,,,,,,,,,,,,,,,,,,
,,,,,V1_016,19,Male,2024-05-14_17h14.57.304,jersey_experiment_5_v1,2023.2.2,Win32,84.74576271,,,,,,,,,,,,,,,,216.5878,217.8816,217.8816,220.4347,return,0.5418,,62.36979167,0,30,30,33,1,FBP-OG-17.png,0.43,1.2,34,0.5,,,,,,,,,,,,,,,,,,,,,,,,,,,,,,,,,,,,,,,,,,,,,
,,,,,V1_016,19,Male,2024-05-14_17h14.57.304,jersey_experiment_5_v1,2023.2.2,Win32,84.74576271,,,,,,,,,,,,,,,,220.4349,221.7288,221.7288,224.8347,return,1.671,,75.13020833,0,31,31,32,1,FBP-OG-17.png,0.4,1.2,33,0.5,,,,,,,,,,,,,,,,,,,,,,,,,,,,,,,,,,,,,,,,,,,,,
,,,,,V1_016,19,Male,2024-05-14_17h14.57.304,jersey_experiment_5_v1,2023.2.2,Win32,84.74576271,,,,,,,,,,,,,,,,224.8349,226.1289,226.1289,227.5879,return,0.4099,,89.19270833,0,32,32,24,1,FBP-YG-18.png,0.45,1.2,25,0.5,,,,,,,,,,,,,,,,,,,,,,,,,,,,,,,,,,,,,,,,,,,,,
,,,,,V1_016,19,Male,2024-05-14_17h14.57.304,jersey_experiment_5_v1,2023.2.2,Win32,84.74576271,,,,,,,,,,,,,,,,227.5881,228.882,228.882,230.5762,return,0.4352,,54.03645833,0,33,33,46,1,FBP-RB-71.png,0.37,1.2,47,0.5,,,,,,,,,,,,,,,,,,,,,,,,,,,,,,,,,,,,,,,,,,,,,
,,,,,V1_016,19,Male,2024-05-14_17h14.57.304,jersey_experiment_5_v1,2023.2.2,Win32,84.74576271,,,,,,,,,,,,,,,,230.5764,231.8703,231.8703,234.1058,return,0.4786,,65.10416667,0,34,34,57,1,FBP-RB-91.png,0.4,1.2,58,0.5,,,,,,,,,,,,,,,,,,,,,,,,,,,,,,,,,,,,,,,,,,,,,
,,,,,V1_016,19,Male,2024-05-14_17h14.57.304,jersey_experiment_5_v1,2023.2.2,Win32,84.74576271,,,,,,,,,,,,,,,,234.106,235.9058,235.9059,240.8472,return,3.9065,,69.921875,0,35,35,7,1,FBP-PT-81.png,0.4,1.2,8,1,,,,,,,,,,,,,,,,,,,,,,,,,,,,,,,,,,,,,,,,,,,,,
,,,,,V1_016,19,Male,2024-05-14_17h14.57.304,jersey_experiment_5_v1,2023.2.2,Win32,84.74576271,,,,,,,,,,,,,,,,240.8474,242.6472,242.6473,245.1063,return,0.814,,53.125,0,36,36,1,1,FBP-PT-71.png,0.37,1.2,2,1,,,,,,,,,,,,,,,,,,,,,,,,,,,,,,,,,,,,,,,,,,,,,
,,,,,V1_016,19,Male,2024-05-14_17h14.57.304,jersey_experiment_5_v1,2023.2.2,Win32,84.74576271,,,,,,,,,,,,,,,,245.1065,246.4003,246.4003,248.4828,return,0.7621,,77.08333333,0,37,37,44,1,FBP-OG-19.png,0.45,1.2,45,0.5,,,,,,,,,,,,,,,,,,,,,,,,,,,,,,,,,,,,,,,,,,,,,
,,,,,V1_016,19,Male,2024-05-14_17h14.57.304,jersey_experiment_5_v1,2023.2.2,Win32,84.74576271,,,,,,,,,,,,,,,,248.483,249.7769,249.7769,253.1536,return,1.7557,,87.890625,0,38,38,28,1,FBP-YG-19.png,0.43,1.2,29,0.5,,,,,,,,,,,,,,,,,,,,,,,,,,,,,,,,,,,,,,,,,,,,,
,,,,,V1_016,19,Male,2024-05-14_17h14.57.304,jersey_experiment_5_v1,2023.2.2,Win32,84.74576271,,,,,,,,,,,,,,,,253.1539,254.4477,254.4477,255.9066,return,0.5641,,91.015625,0,39,39,54,1,FBP-RB-81.png,0.45,1.2,55,0.5,,,,,,,,,,,,,,,,,,,,,,,,,,,,,,,,,,,,,,,,,,,,,
,,,,,V1_016,19,Male,2024-05-14_17h14.57.304,jersey_experiment_5_v1,2023.2.2,Win32,84.74576271,,,,,,,,,,,,,,,,255.9069,257.2007,257.2008,259.4714,return,0.9433,,38.54166667,0,40,40,35,1,FBP-OG-18.png,0.35,1.2,36,0.5,,,,,,,,,,,,,,,,,,,,,,,,,,,,,,,,,,,,,,,,,,,,,
,,,,,V1_016,19,Male,2024-05-14_17h14.57.304,jersey_experiment_5_v1,2023.2.2,Win32,84.74576271,,,,,,,,,,,,,,,,259.4717,260.7658,260.7658,263.1304,return,0.4296,,74.609375,0,41,41,34,1,FBP-OG-17.png,0.45,1.2,35,0.5,,,,,,,,,,,,,,,,,,,,,,,,,,,,,,,,,,,,,,,,,,,,,
,,,,,V1_016,19,Male,2024-05-14_17h14.57.304,jersey_experiment_5_v1,2023.2.2,Win32,84.74576271,,,,,,,,,,,,,,,,263.1307,264.4245,264.4245,270.4248,return,4.5949,,67.96875,0,42,42,39,1,FBP-OG-18.png,0.45,1.2,40,0.5,,,,,,,,,,,,,,,,,,,,,,,,,,,,,,,,,,,,,,,,,,,,,
,,,,,V1_016,19,Male,2024-05-14_17h14.57.304,jersey_experiment_5_v1,2023.2.2,Win32,84.74576271,,,,,,,,,,,,,,,,270.4291,272.2249,272.2249,274.3544,return,0.4841,,59.375,0,43,43,11,1,FBP-PT-91.png,0.37,1.2,12,1,,,,,,,,,,,,,,,,,,,,,,,,,,,,,,,,,,,,,,,,,,,,,
,,,,,V1_016,19,Male,2024-05-14_17h14.57.304,jersey_experiment_5_v1,2023.2.2,Win32,84.74576271,,,,,,,,,,,,,,,,274.3546,275.6484,275.6484,276.8838,return,0.3395,,50.65104167,0,44,44,31,1,FBP-OG-17.png,0.37,1.2,32,0.5,,,,,,,,,,,,,,,,,,,,,,,,,,,,,,,,,,,,,,,,,,,,,
,,,,,V1_016,19,Male,2024-05-14_17h14.57.304,jersey_experiment_5_v1,2023.2.2,Win32,84.74576271,,,,,,,,,,,,,,,,276.8841,278.1779,278.1779,281.6019,return,2.5555,,38.93229167,0,45,45,30,1,FBP-OG-17.png,0.35,1.2,31,0.5,,,,,,,,,,,,,,,,,,,,,,,,,,,,,,,,,,,,,,,,,,,,,
,,,,,V1_016,19,Male,2024-05-14_17h14.57.304,jersey_experiment_5_v1,2023.2.2,Win32,84.74576271,,,,,,,,,,,,,,,,281.6021,282.8959,282.8959,285.4842,return,0.488,,79.55729167,0,46,46,49,1,FBP-RB-71.png,0.45,1.2,50,0.5,,,,,,,,,,,,,,,,,,,,,,,,,,,,,,,,,,,,,,,,,,,,,
,,,,,V1_016,19,Male,2024-05-14_17h14.57.304,jersey_experiment_5_v1,2023.2.2,Win32,84.74576271,,,,,,,,,,,,,,,,285.4843,286.7783,286.7783,288.9549,return,0.6183,,54.94791667,0,47,47,25,1,FBP-YG-19.png,0.35,1.2,26,0.5,,,,,,,,,,,,,,,,,,,,,,,,,,,,,,,,,,,,,,,,,,,,,
,,,,,V1_016,19,Male,2024-05-14_17h14.57.304,jersey_experiment_5_v1,2023.2.2,Win32,84.74576271,,,,,,,,,,,,,,,,288.9552,290.7549,290.755,292.5903,return,0.5891,,81.77083333,0,48,48,14,1,FBP-PT-91.png,0.45,1.2,15,1,,,,,,,,,,,,,,,,,,,,,,,,,,,,,,,,,,,,,,,,,,,,,
,,,,,V1_016,19,Male,2024-05-14_17h14.57.304,jersey_experiment_5_v1,2023.2.2,Win32,84.74576271,,,,,,,,,,,,,,,,292.5906,294.3902,294.3902,296.9318,return,0.9984,,60.02604167,0,49,49,6,1,FBP-PT-81.png,0.37,1.2,7,1,,,,,,,,,,,,,,,,,,,,,,,,,,,,,,,,,,,,,,,,,,,,,
,,,,,V1_016,19,Male,2024-05-14_17h14.57.304,jersey_experiment_5_v1,2023.2.2,Win32,84.74576271,,,,,,,,,,,,,,,,296.9321,298.2258,298.2258,301.2966,return,1.0114,,78.25520833,0,50,50,38,1,FBP-OG-18.png,0.43,1.2,39,0.5,,,,,,,,,,,,,,,,,,,,,,,,,,,,,,,,,,,,,,,,,,,,,
,,,,,V1_016,19,Male,2024-05-14_17h14.57.304,jersey_experiment_5_v1,2023.2.2,Win32,84.74576271,,,,,,,,,,,,,,,,301.2968,302.5907,302.5907,305.8025,return,0.6754,,74.34895833,0,51,51,26,1,FBP-YG-19.png,0.37,1.2,27,0.5,,,,,,,,,,,,,,,,,,,,,,,,,,,,,,,,,,,,,,,,,,,,,
,,,,,V1_016,19,Male,2024-05-14_17h14.57.304,jersey_experiment_5_v1,2023.2.2,Win32,84.74576271,,,,,,,,,,,,,,,,305.8028,307.0966,307.0966,309.1673,return,0.708,,39.453125,0,52,52,45,1,FBP-RB-71.png,0.35,1.2,46,0.5,,,,,,,,,,,,,,,,,,,,,,,,,,,,,,,,,,,,,,,,,,,,,
,,,,,V1_016,19,Male,2024-05-14_17h14.57.304,jersey_experiment_5_v1,2023.2.2,Win32,84.74576271,,,,,,,,,,,,,,,,309.1676,310.4614,310.4615,312.8733,return,0.3492,,61.19791667,0,53,53,22,1,FBP-YG-18.png,0.4,1.2,23,0.5,,,,,,,,,,,,,,,,,,,,,,,,,,,,,,,,,,,,,,,,,,,,,
,,,,,V1_016,19,Male,2024-05-14_17h14.57.304,jersey_experiment_5_v1,2023.2.2,Win32,84.74576271,,,,,,,,,,,,,,,,312.8735,314.6733,314.6734,316.4735,return,0.6082,,73.828125,0,54,54,3,1,FBP-PT-71.png,0.43,1.2,4,1,,,,,,,,,,,,,,,,,,,,,,,,,,,,,,,,,,,,,,,,,,,,,
,,,,,V1_016,19,Male,2024-05-14_17h14.57.304,jersey_experiment_5_v1,2023.2.2,Win32,84.74576271,,,,,,,,,,,,,,,,316.4738,317.7677,317.7677,320.0267,return,1.0403,,55.72916667,0,55,55,41,1,FBP-OG-19.png,0.37,1.2,42,0.5,,,,,,,,,,,,,,,,,,,,,,,,,,,,,,,,,,,,,,,,,,,,,
,,,,,V1_016,19,Male,2024-05-14_17h14.57.304,jersey_experiment_5_v1,2023.2.2,Win32,84.74576271,,,,,,,,,,,,,,,,320.0269,321.3208,321.3208,323.0974,return,0.432,,75.91145833,0,56,56,53,1,FBP-RB-81.png,0.43,1.2,54,0.5,,,,,,,,,,,,,,,,,,,,,,,,,,,,,,,,,,,,,,,,,,,,,
,,,,,V1_016,19,Male,2024-05-14_17h14.57.304,jersey_experiment_5_v1,2023.2.2,Win32,84.74576271,,,,,,,,,,,,,,,,323.0976,324.3914,324.3914,326.3444,return,0.6444,,62.109375,0,57,57,27,1,FBP-YG-19.png,0.4,1.2,28,0.5,,,,,,,,,,,,,,,,,,,,,,,,,,,,,,,,,,,,,,,,,,,,,
,,,,,V1_016,19,Male,2024-05-14_17h14.57.304,jersey_experiment_5_v1,2023.2.2,Win32,84.74576271,,,,,,,,,,,,,,,,326.3446,328.1445,328.1445,329.627,return,0.3478,,74.34895833,0,58,58,8,1,FBP-PT-81.png,0.43,1.2,9,1,,,,,,,,,,,,,,,,,,,,,,,,,,,,,,,,,,,,,,,,,,,,,
,,,,,V1_016,19,Male,2024-05-14_17h14.57.304,jersey_experiment_5_v1,2023.2.2,Win32,84.74576271,,,,,,,,,,,,,,,,329.6272,330.9211,330.9211,333.0741,return,1.2801,,63.02083333,0,59,59,16,1,FBP-YG-17.png,0.37,1.2,17,0.5,,,,,,,,,,,,,,,,,,,,,,,,,,,,,,,,,,,,,,,,,,,,,
,,,,,V1_016,19,Male,2024-05-14_17h14.57.304,jersey_experiment_5_v1,2023.2.2,Win32,84.74576271,,,,,,,,,,,,,,,,333.0763,334.8742,334.8742,336.4272,return,0.3576,,61.84895833,,,,,,FBP-PT-19.png,0.4,1.2,13,1,0,0,0,12,1,,,,,,,,,,,,,,,,,,,,,,,,,,,,,,,,,,,,,,,,
,,,,,V1_016,19,Male,2024-05-14_17h14.57.304,jersey_experiment_5_v1,2023.2.2,Win32,84.74576271,,,,,,,,,,,,,,,,336.4276,338.2273,338.2274,340.5097,return,0.3804,,74.86979167,,,,,,FBP-PT-17.png,0.45,1.2,5,1,0,1,1,4,1,,,,,,,,,,,,,,,,,,,,,,,,,,,,,,,,,,,,,,,,
,,,,,V1_016,19,Male,2024-05-14_17h14.57.304,jersey_experiment_5_v1,2023.2.2,Win32,84.74576271,,,,,,,,,,,,,,,,340.5101,341.8037,341.8038,343.9803,return,0.5673,,28.25520833,,,,,,FBP-RB-19.png,0.37,1.2,57,0.5,0,2,2,56,1,,,,,,,,,,,,,,,,,,,,,,,,,,,,,,,,,,,,,,,,
,,,,,V1_016,19,Male,2024-05-14_17h14.57.304,jersey_experiment_5_v1,2023.2.2,Win32,84.74576271,,,,,,,,,,,,,,,,343.9806,345.7805,345.7806,347.1805,return,0.417,,31.25,,,,,,FBP-PT-19.png,0.37,1.2,12,1,0,3,3,11,1,,,,,,,,,,,,,,,,,,,,,,,,,,,,,,,,,,,,,,,,
,,,,,V1_016,19,Male,2024-05-14_17h14.57.304,jersey_experiment_5_v1,2023.2.2,Win32,84.74576271,,,,,,,,,,,,,,,,347.1808,348.4746,348.4747,350.157,return,0.296,,58.85416667,,,,,,FBP-OG-91.png,0.45,1.2,45,0.5,0,4,4,44,1,,,,,,,,,,,,,,,,,,,,,,,,,,,,,,,,,,,,,,,,
,,,,,V1_016,19,Male,2024-05-14_17h14.57.304,jersey_experiment_5_v1,2023.2.2,Win32,84.74576271,,,,,,,,,,,,,,,,350.1573,351.4513,351.4513,353.769,return,1.4179,,62.5,,,,,,FBP-OG-91.png,0.43,1.2,44,0.5,0,5,5,43,1,,,,,,,,,,,,,,,,,,,,,,,,,,,,,,,,,,,,,,,,
,,,,,V1_016,19,Male,2024-05-14_17h14.57.304,jersey_experiment_5_v1,2023.2.2,Win32,84.74576271,,,,,,,,,,,,,,,,353.7692,355.5691,355.5691,357.3457,return,0.6356,,18.359375,,,,,,FBP-PT-18.png,0.35,1.2,6,1,0,6,6,5,1,,,,,,,,,,,,,,,,,,,,,,,,,,,,,,,,,,,,,,,,
,,,,,V1_016,19,Male,2024-05-14_17h14.57.304,jersey_experiment_5_v1,2023.2.2,Win32,84.74576271,,,,,,,,,,,,,,,,357.3459,358.6396,358.6396,359.9222,return,0.3159,,17.70833333,,,,,,FBP-YG-81.png,0.35,1.2,21,0.5,0,7,7,20,1,,,,,,,,,,,,,,,,,,,,,,,,,,,,,,,,,,,,,,,,
,,,,,V1_016,19,Male,2024-05-14_17h14.57.304,jersey_experiment_5_v1,2023.2.2,Win32,84.74576271,,,,,,,,,,,,,,,,359.9224,361.7224,361.7224,363.0517,return,0.2981,,32.16145833,,,,,,FBP-PT-18.png,0.4,1.2,8,1,0,8,8,7,1,,,,,,,,,,,,,,,,,,,,,,,,,,,,,,,,,,,,,,,,
,,,,,V1_016,19,Male,2024-05-14_17h14.57.304,jersey_experiment_5_v1,2023.2.2,Win32,84.74576271,,,,,,,,,,,,,,,,363.0519,364.3458,364.3459,367.2753,return,1.1473,,68.359375,,,,,,FBP-YG-71.png,0.43,1.2,19,0.5,0,9,9,18,1,,,,,,,,,,,,,,,,,,,,,,,,,,,,,,,,,,,,,,,,
,,,,,V1_016,19,Male,2024-05-14_17h14.57.304,jersey_experiment_5_v1,2023.2.2,Win32,84.74576271,,,,,,,,,,,,,,,,367.2756,368.5694,368.5695,370.7225,return,0.6824,,49.21875,,,,,,FBP-RB-18.png,0.4,1.2,53,0.5,0,10,10,52,1,,,,,,,,,,,,,,,,,,,,,,,,,,,,,,,,,,,,,,,,
,,,,,V1_016,19,Male,2024-05-14_17h14.57.304,jersey_experiment_5_v1,2023.2.2,Win32,84.74576271,,,,,,,,,,,,,,,,370.7228,372.0166,372.0166,374.1698,return,0.5138,,71.22395833,,,,,,FBP-RB-19.png,0.43,1.2,59,0.5,0,11,11,58,1,,,,,,,,,,,,,,,,,,,,,,,,,,,,,,,,,,,,,,,,
,,,,,V1_016,19,Male,2024-05-14_17h14.57.304,jersey_experiment_5_v1,2023.2.2,Win32,84.74576271,,,,,,,,,,,,,,,,374.1701,375.4642,375.4643,377.2169,return,0.5277,,23.4375,,,,,,FBP-RB-17.png,0.35,1.2,46,0.5,0,12,12,45,1,,,,,,,,,,,,,,,,,,,,,,,,,,,,,,,,,,,,,,,,
,,,,,V1_016,19,Male,2024-05-14_17h14.57.304,jersey_experiment_5_v1,2023.2.2,Win32,84.74576271,,,,,,,,,,,,,,,,377.2171,379.0169,379.0169,381.323,return,0.6634,,74.34895833,,,,,,FBP-PT-19.png,0.45,1.2,15,1,0,13,13,14,1,,,,,,,,,,,,,,,,,,,,,,,,,,,,,,,,,,,,,,,,
,,,,,V1_016,19,Male,2024-05-14_17h14.57.304,jersey_experiment_5_v1,2023.2.2,Win32,84.74576271,,,,,,,,,,,,,,,,381.3232,382.6171,382.6171,386.1113,return,0.6001,,71.09375,,,,,,FBP-OG-81.png,0.43,1.2,39,0.5,0,14,14,38,1,,,,,,,,,,,,,,,,,,,,,,,,,,,,,,,,,,,,,,,,
,,,,,V1_016,19,Male,2024-05-14_17h14.57.304,jersey_experiment_5_v1,2023.2.2,Win32,84.74576271,,,,,,,,,,,,,,,,386.1116,387.4054,387.4054,390.641,return,0.6351,,23.828125,,,,,,FBP-OG-71.png,0.35,1.2,31,0.5,0,15,15,30,1,,,,,,,,,,,,,,,,,,,,,,,,,,,,,,,,,,,,,,,,
,,,,,V1_016,19,Male,2024-05-14_17h14.57.304,jersey_experiment_5_v1,2023.2.2,Win32,84.74576271,,,,,,,,,,,,,,,,390.6413,391.9351,391.9352,395.1823,return,0.7211,,24.34895833,,,,,,FBP-YG-71.png,0.35,1.2,16,0.5,0,16,16,15,1,,,,,,,,,,,,,,,,,,,,,,,,,,,,,,,,,,,,,,,,
,,,,,V1_016,19,Male,2024-05-14_17h14.57.304,jersey_experiment_5_v1,2023.2.2,Win32,84.74576271,,,,,,,,,,,,,,,,395.1825,396.9824,396.9824,398.3355,return,0.4938,,70.96354167,,,,,,FBP-PT-18.png,0.45,1.2,10,1,0,17,17,9,1,,,,,,,,,,,,,,,,,,,,,,,,,,,,,,,,,,,,,,,,
,,,,,V1_016,19,Male,2024-05-14_17h14.57.304,jersey_experiment_5_v1,2023.2.2,Win32,84.74576271,,,,,,,,,,,,,,,,398.3357,399.6294,399.6294,403.5474,return,1.4518,,54.6875,,,,,,FBP-OG-71.png,0.4,1.2,33,0.5,0,18,18,32,1,,,,,,,,,,,,,,,,,,,,,,,,,,,,,,,,,,,,,,,,
,,,,,V1_016,19,Male,2024-05-14_17h14.57.304,jersey_experiment_5_v1,2023.2.2,Win32,84.74576271,,,,,,,,,,,,,,,,403.5476,404.8414,404.8414,406.9592,return,0.3789,,21.484375,,,,,,FBP-YG-91.png,0.35,1.2,26,0.5,0,19,19,25,1,,,,,,,,,,,,,,,,,,,,,,,,,,,,,,,,,,,,,,,,
,,,,,V1_016,19,Male,2024-05-14_17h14.57.304,jersey_experiment_5_v1,2023.2.2,Win32,84.74576271,,,,,,,,,,,,,,,,406.9593,408.2533,408.2533,410.324,return,0.7386,,75.91145833,,,,,,FBP-YG-71.png,0.45,1.2,20,0.5,0,20,20,19,1,,,,,,,,,,,,,,,,,,,,,,,,,,,,,,,,,,,,,,,,
,,,,,V1_016,19,Male,2024-05-14_17h14.57.304,jersey_experiment_5_v1,2023.2.2,Win32,84.74576271,,,,,,,,,,,,,,,,410.3242,411.6181,411.6181,413.1711,return,0.5175,,92.83854167,,,,,,FBP-YG-91.png,0.45,1.2,30,0.5,0,21,21,29,1,,,,,,,,,,,,,,,,,,,,,,,,,,,,,,,,,,,,,,,,
,,,,,V1_016,19,Male,2024-05-14_17h14.57.304,jersey_experiment_5_v1,2023.2.2,Win32,84.74576271,,,,,,,,,,,,,,,,413.1713,414.4652,414.4653,416.5715,return,0.569,,27.47395833,,,,,,FBP-OG-91.png,0.35,1.2,41,0.5,0,22,22,40,1,,,,,,,,,,,,,,,,,,,,,,,,,,,,,,,,,,,,,,,,
,,,,,V1_016,19,Male,2024-05-14_17h14.57.304,jersey_experiment_5_v1,2023.2.2,Win32,84.74576271,,,,,,,,,,,,,,,,416.5717,417.8654,417.8654,421.3127,return,0.4572,,58.33333333,,,,,,FBP-YG-71.png,0.37,1.2,17,0.5,0,23,23,16,1,,,,,,,,,,,,,,,,,,,,,,,,,,,,,,,,,,,,,,,,
,,,,,V1_016,19,Male,2024-05-14_17h14.57.304,jersey_experiment_5_v1,2023.2.2,Win32,84.74576271,,,,,,,,,,,,,,,,421.313,422.6066,422.6066,424.3364,return,0.6828,,50.52083333,,,,,,FBP-OG-71.png,0.37,1.2,32,0.5,0,24,24,31,1,,,,,,,,,,,,,,,,,,,,,,,,,,,,,,,,,,,,,,,,
,,,,,V1_016,19,Male,2024-05-14_17h14.57.304,jersey_experiment_5_v1,2023.2.2,Win32,84.74576271,,,,,,,,,,,,,,,,424.3366,425.6304,425.6305,427.6423,return,1.2545,,77.86458333,,,,,,FBP-YG-81.png,0.4,1.2,23,0.5,0,25,25,22,1,,,,,,,,,,,,,,,,,,,,,,,,,,,,,,,,,,,,,,,,
,,,,,V1_016,19,Male,2024-05-14_17h14.57.304,jersey_experiment_5_v1,2023.2.2,Win32,84.74576271,,,,,,,,,,,,,,,,427.6426,428.9364,428.9364,430.56,return,0.5525,,92.44791667,,,,,,FBP-OG-71.png,0.45,1.2,35,0.5,0,26,26,34,1,,,,,,,,,,,,,,,,,,,,,,,,,,,,,,,,,,,,,,,,
,,,,,V1_016,19,Male,2024-05-14_17h14.57.304,jersey_experiment_5_v1,2023.2.2,Win32,84.74576271,,,,,,,,,,,,,,,,430.5602,431.8542,431.8542,433.2896,return,0.4405,,74.609375,,,,,,FBP-OG-81.png,0.45,1.2,40,0.5,0,27,27,39,1,,,,,,,,,,,,,,,,,,,,,,,,,,,,,,,,,,,,,,,,
,,,,,V1_016,19,Male,2024-05-14_17h14.57.304,jersey_experiment_5_v1,2023.2.2,Win32,84.74576271,,,,,,,,,,,,,,,,433.2898,434.5836,434.5836,436.1602,return,0.378,,79.296875,,,,,,FBP-RB-18.png,0.43,1.2,54,0.5,0,28,28,53,1,,,,,,,,,,,,,,,,,,,,,,,,,,,,,,,,,,,,,,,,
,,,,,V1_016,19,Male,2024-05-14_17h14.57.304,jersey_experiment_5_v1,2023.2.2,Win32,84.74576271,,,,,,,,,,,,,,,,436.1604,437.4544,437.4544,439.3367,return,0.6204,,54.16666667,,,,,,FBP-YG-91.png,0.4,1.2,28,0.5,0,29,29,27,1,,,,,,,,,,,,,,,,,,,,,,,,,,,,,,,,,,,,,,,,
,,,,,V1_016,19,Male,2024-05-14_17h14.57.304,jersey_experiment_5_v1,2023.2.2,Win32,84.74576271,,,,,,,,,,,,,,,,439.3369,440.6311,440.6311,442.2193,return,0.4041,,38.80208333,,,,,,FBP-YG-91.png,0.37,1.2,27,0.5,0,30,30,26,1,,,,,,,,,,,,,,,,,,,,,,,,,,,,,,,,,,,,,,,,
,,,,,V1_016,19,Male,2024-05-14_17h14.57.304,jersey_experiment_5_v1,2023.2.2,Win32,84.74576271,,,,,,,,,,,,,,,,442.2195,443.5138,443.5138,444.9605,return,0.505,,23.95833333,,,,,,FBP-OG-81.png,0.35,1.2,36,0.5,0,31,31,35,1,,,,,,,,,,,,,,,,,,,,,,,,,,,,,,,,,,,,,,,,
,,,,,V1_016,19,Male,2024-05-14_17h14.57.304,jersey_experiment_5_v1,2023.2.2,Win32,84.74576271,,,,,,,,,,,,,,,,444.9607,446.2547,446.2547,447.843,return,0.4935,,69.79166667,,,,,,FBP-OG-71.png,0.43,1.2,34,0.5,0,32,32,33,1,,,,,,,,,,,,,,,,,,,,,,,,,,,,,,,,,,,,,,,,
,,,,,V1_016,19,Male,2024-05-14_17h14.57.304,jersey_experiment_5_v1,2023.2.2,Win32,84.74576271,,,,,,,,,,,,,,,,447.8433,449.1372,449.1372,450.9256,return,0.2981,,58.46354167,,,,,,FBP-YG-71.png,0.4,1.2,18,0.5,0,33,33,17,1,,,,,,,,,,,,,,,,,,,,,,,,,,,,,,,,,,,,,,,,
,,,,,V1_016,19,Male,2024-05-14_17h14.57.304,jersey_experiment_5_v1,2023.2.2,Win32,84.74576271,,,,,,,,,,,,,,,,450.9256,452.2196,452.2197,454.0316,return,0.3059,,50.390625,,,,,,FBP-OG-81.png,0.37,1.2,37,0.5,0,34,34,36,1,,,,,,,,,,,,,,,,,,,,,,,,,,,,,,,,,,,,,,,,
,,,,,V1_016,19,Male,2024-05-14_17h14.57.304,jersey_experiment_5_v1,2023.2.2,Win32,84.74576271,,,,,,,,,,,,,,,,454.0318,455.8317,455.8317,457.161,return,0.2651,,69.79166667,,,,,,FBP-PT-17.png,0.43,1.2,4,1,0,35,35,3,1,,,,,,,,,,,,,,,,,,,,,,,,,,,,,,,,,,,,,,,,
,,,,,V1_016,19,Male,2024-05-14_17h14.57.304,jersey_experiment_5_v1,2023.2.2,Win32,84.74576271,,,,,,,,,,,,,,,,457.1613,458.4552,458.4552,460.5377,return,0.8176,,48.95833333,,,,,,FBP-RB-17.png,0.37,1.2,47,0.5,0,36,36,46,1,,,,,,,,,,,,,,,,,,,,,,,,,,,,,,,,,,,,,,,,
,,,,,V1_016,19,Male,2024-05-14_17h14.57.304,jersey_experiment_5_v1,2023.2.2,Win32,84.74576271,,,,,,,,,,,,,,,,460.5379,461.8318,461.8318,462.6907,return,0.2363,,37.36979167,,,,,,FBP-RB-19.png,0.35,1.2,56,0.5,0,37,37,55,1,,,,,,,,,,,,,,,,,,,,,,,,,,,,,,,,,,,,,,,,
,,,,,V1_016,19,Male,2024-05-14_17h14.57.304,jersey_experiment_5_v1,2023.2.2,Win32,84.74576271,,,,,,,,,,,,,,,,462.6908,464.4906,464.4907,465.9144,return,0.617,,37.36979167,,,,,,FBP-PT-17.png,0.35,1.2,1,1,0,38,38,0,1,,,,,,,,,,,,,,,,,,,,,,,,,,,,,,,,,,,,,,,,
,,,,,V1_016,19,Male,2024-05-14_17h14.57.304,jersey_experiment_5_v1,2023.2.2,Win32,84.74576271,,,,,,,,,,,,,,,,465.9145,467.2084,467.2085,469.1382,return,0.6257,,49.609375,,,,,,FBP-RB-17.png,0.4,1.2,48,0.5,0,39,39,47,1,,,,,,,,,,,,,,,,,,,,,,,,,,,,,,,,,,,,,,,,
,,,,,V1_016,19,Male,2024-05-14_17h14.57.304,jersey_experiment_5_v1,2023.2.2,Win32,84.74576271,,,,,,,,,,,,,,,,469.1384,470.4321,470.4321,472.6909,return,0.3196,,65.625,,,,,,FBP-YG-81.png,0.43,1.2,24,0.5,0,40,40,23,1,,,,,,,,,,,,,,,,,,,,,,,,,,,,,,,,,,,,,,,,
,,,,,V1_016,19,Male,2024-05-14_17h14.57.304,jersey_experiment_5_v1,2023.2.2,Win32,84.74576271,,,,,,,,,,,,,,,,472.6911,473.985,473.9851,475.2088,return,0.477,,83.984375,,,,,,FBP-YG-91.png,0.43,1.2,29,0.5,0,41,41,28,1,,,,,,,,,,,,,,,,,,,,,,,,,,,,,,,,,,,,,,,,
,,,,,V1_016,19,Male,2024-05-14_17h14.57.304,jersey_experiment_5_v1,2023.2.2,Win32,84.74576271,,,,,,,,,,,,,,,,475.209,476.5029,476.5029,478.1853,return,0.3708,,73.4375,,,,,,FBP-RB-19.png,0.4,1.2,58,0.5,0,42,42,57,1,,,,,,,,,,,,,,,,,,,,,,,,,,,,,,,,,,,,,,,,
,,,,,V1_016,19,Male,2024-05-14_17h14.57.304,jersey_experiment_5_v1,2023.2.2,Win32,84.74576271,,,,,,,,,,,,,,,,478.1856,479.4794,479.4794,481.6327,return,0.565,,74.86979167,,,,,,FBP-OG-81.png,0.4,1.2,38,0.5,0,43,43,37,1,,,,,,,,,,,,,,,,,,,,,,,,,,,,,,,,,,,,,,,,
,,,,,V1_016,19,Male,2024-05-14_17h14.57.304,jersey_experiment_5_v1,2023.2.2,Win32,84.74576271,,,,,,,,,,,,,,,,481.6328,482.9266,482.9266,485.8325,return,0.4656,,42.05729167,,,,,,FBP-OG-91.png,0.37,1.2,42,0.5,0,44,44,41,1,,,,,,,,,,,,,,,,,,,,,,,,,,,,,,,,,,,,,,,,
,,,,,V1_016,19,Male,2024-05-14_17h14.57.304,jersey_experiment_5_v1,2023.2.2,Win32,84.74576271,,,,,,,,,,,,,,,,485.8327,487.1268,487.1268,490.3033,return,1.6256,,85.02604167,,,,,,FBP-RB-17.png,0.45,1.2,50,0.5,0,45,45,49,1,,,,,,,,,,,,,,,,,,,,,,,,,,,,,,,,,,,,,,,,
,,,,,V1_016,19,Male,2024-05-14_17h14.57.304,jersey_experiment_5_v1,2023.2.2,Win32,84.74576271,,,,,,,,,,,,,,,,490.3036,492.1035,492.1035,495.1859,return,0.5408,,75.13020833,,,,,,FBP-PT-18.png,0.43,1.2,9,1,0,46,46,8,1,,,,,,,,,,,,,,,,,,,,,,,,,,,,,,,,,,,,,,,,
,,,,,V1_016,19,Male,2024-05-14_17h14.57.304,jersey_experiment_5_v1,2023.2.2,Win32,84.74576271,,,,,,,,,,,,,,,,495.1862,496.4801,496.4801,499.1626,return,0.3574,,43.22916667,,,,,,FBP-RB-18.png,0.37,1.2,52,0.5,0,47,47,51,1,,,,,,,,,,,,,,,,,,,,,,,,,,,,,,,,,,,,,,,,
,,,,,V1_016,19,Male,2024-05-14_17h14.57.304,jersey_experiment_5_v1,2023.2.2,Win32,84.74576271,,,,,,,,,,,,,,,,499.1628,500.4568,500.4568,504.5392,return,0.4863,,92.31770833,,,,,,FBP-RB-19.png,0.45,1.2,60,0.5,0,48,48,59,1,,,,,,,,,,,,,,,,,,,,,,,,,,,,,,,,,,,,,,,,
,,,,,V1_016,19,Male,2024-05-14_17h14.57.304,jersey_experiment_5_v1,2023.2.2,Win32,84.74576271,,,,,,,,,,,,,,,,504.5394,505.8334,505.8334,507.1981,return,0.3797,,94.40104167,,,,,,FBP-YG-81.png,0.45,1.2,25,0.5,0,49,49,24,1,,,,,,,,,,,,,,,,,,,,,,,,,,,,,,,,,,,,,,,,
,,,,,V1_016,19,Male,2024-05-14_17h14.57.304,jersey_experiment_5_v1,2023.2.2,Win32,84.74576271,,,,,,,,,,,,,,,,507.1983,508.9985,508.9985,511.8571,return,0.3532,,27.99479167,,,,,,FBP-PT-17.png,0.37,1.2,2,1,0,50,50,1,1,,,,,,,,,,,,,,,,,,,,,,,,,,,,,,,,,,,,,,,,
,,,,,V1_016,19,Male,2024-05-14_17h14.57.304,jersey_experiment_5_v1,2023.2.2,Win32,84.74576271,,,,,,,,,,,,,,,,511.8574,513.1514,513.1514,516.1395,return,1.3943,,63.80208333,,,,,,FBP-RB-17.png,0.43,1.2,49,0.5,0,51,51,48,1,,,,,,,,,,,,,,,,,,,,,,,,,,,,,,,,,,,,,,,,
,,,,,V1_016,19,Male,2024-05-14_17h14.57.304,jersey_experiment_5_v1,2023.2.2,Win32,84.74576271,,,,,,,,,,,,,,,,516.1397,517.9398,517.9399,520.3985,return,1.4715,,48.56770833,,,,,,FBP-PT-17.png,0.4,1.2,3,1,0,52,52,2,1,,,,,,,,,,,,,,,,,,,,,,,,,,,,,,,,,,,,,,,,
,,,,,V1_016,19,Male,2024-05-14_17h14.57.304,jersey_experiment_5_v1,2023.2.2,Win32,84.74576271,,,,,,,,,,,,,,,,520.3987,521.6927,521.6927,523.7633,return,0.4098,,73.046875,,,,,,FBP-RB-18.png,0.45,1.2,55,0.5,0,53,53,54,1,,,,,,,,,,,,,,,,,,,,,,,,,,,,,,,,,,,,,,,,
,,,,,V1_016,19,Male,2024-05-14_17h14.57.304,jersey_experiment_5_v1,2023.2.2,Win32,84.74576271,,,,,,,,,,,,,,,,523.7636,525.0575,525.0575,528.6225,return,0.4383,,53.515625,,,,,,FBP-OG-91.png,0.4,1.2,43,0.5,0,54,54,42,1,,,,,,,,,,,,,,,,,,,,,,,,,,,,,,,,,,,,,,,,
,,,,,V1_016,19,Male,2024-05-14_17h14.57.304,jersey_experiment_5_v1,2023.2.2,Win32,84.74576271,,,,,,,,,,,,,,,,528.6227,530.4227,530.4227,531.7872,return,0.3355,,73.30729167,,,,,,FBP-PT-19.png,0.43,1.2,14,1,0,55,55,13,1,,,,,,,,,,,,,,,,,,,,,,,,,,,,,,,,,,,,,,,,
,,,,,V1_016,19,Male,2024-05-14_17h14.57.304,jersey_experiment_5_v1,2023.2.2,Win32,84.74576271,,,,,,,,,,,,,,,,531.7873,533.0813,533.0813,535.0697,return,0.8158,,62.23958333,,,,,,FBP-YG-81.png,0.37,1.2,22,0.5,0,56,56,21,1,,,,,,,,,,,,,,,,,,,,,,,,,,,,,,,,,,,,,,,,
,,,,,V1_016,19,Male,2024-05-14_17h14.57.304,jersey_experiment_5_v1,2023.2.2,Win32,84.74576271,,,,,,,,,,,,,,,,535.07,536.87,536.87,538.6815,return,0.4647,,47.91666667,,,,,,FBP-PT-18.png,0.37,1.2,7,1,0,57,57,6,1,,,,,,,,,,,,,,,,,,,,,,,,,,,,,,,,,,,,,,,,
,,,,,V1_016,19,Male,2024-05-14_17h14.57.304,jersey_experiment_5_v1,2023.2.2,Win32,84.74576271,,,,,,,,,,,,,,,,538.6817,539.9758,539.9759,542.5877,return,0.5002,,31.640625,,,,,,FBP-RB-18.png,0.35,1.2,51,0.5,0,58,58,50,1,,,,,,,,,,,,,,,,,,,,,,,,,,,,,,,,,,,,,,,,
,,,,,V1_016,19,Male,2024-05-14_17h14.57.304,jersey_experiment_5_v1,2023.2.2,Win32,84.74576271,,,,,,,,,,,,,,,,542.5879,544.3878,544.3878,545.9642,return,0.4975,,19.53125,,,,,,FBP-PT-19.png,0.35,1.2,11,1,0,59,59,10,1,,,,,,,,,,,,,,,,,,,,,,,,,,,,,,,,,,,,,,,,
,,,,,V1_016,19,Male,2024-05-14_17h14.57.304,jersey_experiment_5_v1,2023.2.2,Win32,84.74576271,,,,,,,,,,,,,,,,,,,,,,,,,,,,,,,,,,,,,,,545.9647,665.9689,,,,,,,,,,,,,,,,,,,,,,,,,,,,,,,,,,,,,,
,,,,,V1_016,19,Male,2024-05-14_17h14.57.304,jersey_experiment_5_v1,2023.2.2,Win32,84.74576271,,,,,,,,,,,,,,,,,,,,,,,,,,,,,,,,,,,,,,,,,665.969,669.0276,return,3.0492,,,,,,,,,,,,,,,,,,,,,,,,,,,,,,,,,,
,,,,,V1_016,19,Male,2024-05-14_17h14.57.304,jersey_experiment_5_v1,2023.2.2,Win32,84.74576271,,,,,,,,,,,,,,,,669.0341,670.8278,670.8278,674.1573,return,0.7318,,63.671875,,,,,,FBP-RB-71.png,0.4,1.2,48,1,,,,,,,,,,,,,0,0,0,47,1,,,,,,,,,,,,,,,,,,,,,,,,,,,,
,,,,,V1_016,19,Male,2024-05-14_17h14.57.304,jersey_experiment_5_v1,2023.2.2,Win32,84.74576271,,,,,,,,,,,,,,,,674.1577,675.9573,675.9573,677.6631,return,0.4847,,78.38541667,,,,,,FBP-OG-18.png,0.43,1.2,39,1,,,,,,,,,,,,,0,1,1,38,1,,,,,,,,,,,,,,,,,,,,,,,,,,,,
,,,,,V1_016,19,Male,2024-05-14_17h14.57.304,jersey_experiment_5_v1,2023.2.2,Win32,84.74576271,,,,,,,,,,,,,,,,677.6634,679.4633,679.4633,681.0046,return,0.4734,,93.61979167,,,,,,FBP-RB-91.png,0.45,1.2,60,1,,,,,,,,,,,,,0,2,2,59,1,,,,,,,,,,,,,,,,,,,,,,,,,,,,
,,,,,V1_016,19,Male,2024-05-14_17h14.57.304,jersey_experiment_5_v1,2023.2.2,Win32,84.74576271,,,,,,,,,,,,,,,,681.0048,682.8046,682.8046,684.0634,return,0.5176,,28.125,,,,,,FBP-OG-19.png,0.35,1.2,41,1,,,,,,,,,,,,,0,3,3,40,1,,,,,,,,,,,,,,,,,,,,,,,,,,,,
,,,,,V1_016,19,Male,2024-05-14_17h14.57.304,jersey_experiment_5_v1,2023.2.2,Win32,84.74576271,,,,,,,,,,,,,,,,684.0636,685.3576,685.3576,687.4163,return,0.3952,,72.13541667,,,,,,FBP-PT-91.png,0.43,1.2,14,0.5,,,,,,,,,,,,,0,4,4,13,1,,,,,,,,,,,,,,,,,,,,,,,,,,,,
,,,,,V1_016,19,Male,2024-05-14_17h14.57.304,jersey_experiment_5_v1,2023.2.2,Win32,84.74576271,,,,,,,,,,,,,,,,687.4166,689.2165,689.2166,690.7461,return,0.5222,,79.81770833,,,,,,FBP-YG-18.png,0.4,1.2,23,1,,,,,,,,,,,,,0,5,5,22,1,,,,,,,,,,,,,,,,,,,,,,,,,,,,
,,,,,V1_016,19,Male,2024-05-14_17h14.57.304,jersey_experiment_5_v1,2023.2.2,Win32,84.74576271,,,,,,,,,,,,,,,,690.7462,692.5462,692.5462,694.1932,return,0.456,,92.1875,,,,,,FBP-YG-17.png,0.43,1.2,19,1,,,,,,,,,,,,,0,6,6,18,1,,,,,,,,,,,,,,,,,,,,,,,,,,,,
,,,,,V1_016,19,Male,2024-05-14_17h14.57.304,jersey_experiment_5_v1,2023.2.2,Win32,84.74576271,,,,,,,,,,,,,,,,694.1934,695.4875,695.4875,697.0404,return,0.4572,,32.03125,,,,,,FBP-PT-81.png,0.35,1.2,6,0.5,,,,,,,,,,,,,0,7,7,5,1,,,,,,,,,,,,,,,,,,,,,,,,,,,,
,,,,,V1_016,19,Male,2024-05-14_17h14.57.304,jersey_experiment_5_v1,2023.2.2,Win32,84.74576271,,,,,,,,,,,,,,,,697.0406,698.8405,698.8405,700.9228,return,0.3833,,67.83854167,,,,,,FBP-YG-19.png,0.4,1.2,28,1,,,,,,,,,,,,,0,8,8,27,1,,,,,,,,,,,,,,,,,,,,,,,,,,,,
,,,,,V1_016,19,Male,2024-05-14_17h14.57.304,jersey_experiment_5_v1,2023.2.2,Win32,84.74576271,,,,,,,,,,,,,,,,700.923,702.7229,702.7229,703.9936,return,0.5609,,83.33333333,,,,,,FBP-OG-17.png,0.43,1.2,34,1,,,,,,,,,,,,,0,9,9,33,1,,,,,,,,,,,,,,,,,,,,,,,,,,,,
,,,,,V1_016,19,Male,2024-05-14_17h14.57.304,jersey_experiment_5_v1,2023.2.2,Win32,84.74576271,,,,,,,,,,,,,,,,703.9939,705.7938,705.7938,707.276,return,0.3685,,100,,,,,,FBP-YG-19.png,0.45,1.2,30,1,,,,,,,,,,,,,0,10,10,29,1,,,,,,,,,,,,,,,,,,,,,,,,,,,,
,,,,,V1_016,19,Male,2024-05-14_17h14.57.304,jersey_experiment_5_v1,2023.2.2,Win32,84.74576271,,,,,,,,,,,,,,,,707.2762,708.5702,708.5702,710.5585,return,0.3774,,26.82291667,,,,,,FBP-PT-91.png,0.35,1.2,11,0.5,,,,,,,,,,,,,0,11,11,10,1,,,,,,,,,,,,,,,,,,,,,,,,,,,,
,,,,,V1_016,19,Male,2024-05-14_17h14.57.304,jersey_experiment_5_v1,2023.2.2,Win32,84.74576271,,,,,,,,,,,,,,,,710.5587,712.3585,712.3585,713.6762,return,0.3343,,40.10416667,,,,,,FBP-OG-17.png,0.37,1.2,32,1,,,,,,,,,,,,,0,12,12,31,1,,,,,,,,,,,,,,,,,,,,,,,,,,,,
,,,,,V1_016,19,Male,2024-05-14_17h14.57.304,jersey_experiment_5_v1,2023.2.2,Win32,84.74576271,,,,,,,,,,,,,,,,713.6764,714.9702,714.9702,717.9351,return,0.5532,,64.71354167,,,,,,FBP-PT-81.png,0.4,1.2,8,0.5,,,,,,,,,,,,,0,13,13,7,1,,,,,,,,,,,,,,,,,,,,,,,,,,,,
,,,,,V1_016,19,Male,2024-05-14_17h14.57.304,jersey_experiment_5_v1,2023.2.2,Win32,84.74576271,,,,,,,,,,,,,,,,717.9353,719.7354,719.7354,721.347,return,0.4237,,50.13020833,,,,,,FBP-RB-71.png,0.37,1.2,47,1,,,,,,,,,,,,,0,14,14,46,1,,,,,,,,,,,,,,,,,,,,,,,,,,,,
,,,,,V1_016,19,Male,2024-05-14_17h14.57.304,jersey_experiment_5_v1,2023.2.2,Win32,84.74576271,,,,,,,,,,,,,,,,721.3473,723.1473,723.1473,724.7354,return,0.4819,,72.78645833,,,,,,FBP-OG-17.png,0.4,1.2,33,1,,,,,,,,,,,,,0,15,15,32,1,,,,,,,,,,,,,,,,,,,,,,,,,,,,
,,,,,V1_016,19,Male,2024-05-14_17h14.57.304,jersey_experiment_5_v1,2023.2.2,Win32,84.74576271,,,,,,,,,,,,,,,,724.7356,726.0295,726.0296,727.4415,return,0.5042,,76.30208333,,,,,,FBP-PT-71.png,0.4,1.2,3,0.5,,,,,,,,,,,,,0,16,16,2,1,,,,,,,,,,,,,,,,,,,,,,,,,,,,
,,,,,V1_016,19,Male,2024-05-14_17h14.57.304,jersey_experiment_5_v1,2023.2.2,Win32,84.74576271,,,,,,,,,,,,,,,,727.4417,728.7355,728.7355,731.7709,return,0.4768,,75,,,,,,FBP-PT-91.png,0.4,1.2,13,0.5,,,,,,,,,,,,,0,17,17,12,1,,,,,,,,,,,,,,,,,,,,,,,,,,,,
,,,,,V1_016,19,Male,2024-05-14_17h14.57.304,jersey_experiment_5_v1,2023.2.2,Win32,84.74576271,,,,,,,,,,,,,,,,731.7712,733.5712,733.5712,735.6182,return,0.6963,,49.86979167,,,,,,FBP-YG-17.png,0.35,1.2,16,1,,,,,,,,,,,,,0,18,18,15,1,,,,,,,,,,,,,,,,,,,,,,,,,,,,
,,,,,V1_016,19,Male,2024-05-14_17h14.57.304,jersey_experiment_5_v1,2023.2.2,Win32,84.74576271,,,,,,,,,,,,,,,,735.6184,737.4183,737.4183,738.2653,return,0.5113,,49.86979167,,,,,,FBP-OG-18.png,0.35,1.2,36,1,,,,,,,,,,,,,0,19,19,35,1,,,,,,,,,,,,,,,,,,,,,,,,,,,,
,,,,,V1_016,19,Male,2024-05-14_17h14.57.304,jersey_experiment_5_v1,2023.2.2,Win32,84.74576271,,,,,,,,,,,,,,,,738.2655,740.0656,740.0656,742.3831,return,0.4024,,95.57291667,,,,,,FBP-YG-18.png,0.45,1.2,25,1,,,,,,,,,,,,,0,20,20,24,1,,,,,,,,,,,,,,,,,,,,,,,,,,,,
,,,,,V1_016,19,Male,2024-05-14_17h14.57.304,jersey_experiment_5_v1,2023.2.2,Win32,84.74576271,,,,,,,,,,,,,,,,742.3833,744.1833,744.1834,745.6185,return,0.3433,,61.71875,,,,,,FBP-YG-19.png,0.37,1.2,27,1,,,,,,,,,,,,,0,21,21,26,1,,,,,,,,,,,,,,,,,,,,,,,,,,,,
,,,,,V1_016,19,Male,2024-05-14_17h14.57.304,jersey_experiment_5_v1,2023.2.2,Win32,84.74576271,,,,,,,,,,,,,,,,745.6188,747.4185,747.4185,750.6186,return,1.8985,,56.38020833,,,,,,FBP-RB-71.png,0.35,1.2,46,1,,,,,,,,,,,,,0,22,22,45,1,,,,,,,,,,,,,,,,,,,,,,,,,,,,
,,,,,V1_016,19,Male,2024-05-14_17h14.57.304,jersey_experiment_5_v1,2023.2.2,Win32,84.74576271,,,,,,,,,,,,,,,,750.6188,752.4191,752.4191,754.313,return,0.338,,87.23958333,,,,,,FBP-RB-91.png,0.43,1.2,59,1,,,,,,,,,,,,,0,23,23,58,1,,,,,,,,,,,,,,,,,,,,,,,,,,,,
,,,,,V1_016,19,Male,2024-05-14_17h14.57.304,jersey_experiment_5_v1,2023.2.2,Win32,84.74576271,,,,,,,,,,,,,,,,754.3132,756.1131,756.1131,757.5484,return,0.3799,,96.22395833,,,,,,FBP-OG-17.png,0.45,1.2,35,1,,,,,,,,,,,,,0,24,24,34,1,,,,,,,,,,,,,,,,,,,,,,,,,,,,
,,,,,V1_016,19,Male,2024-05-14_17h14.57.304,jersey_experiment_5_v1,2023.2.2,Win32,84.74576271,,,,,,,,,,,,,,,,757.5487,759.3484,759.3484,761.2897,return,0.4286,,74.21875,,,,,,FBP-RB-81.png,0.37,1.2,52,1,,,,,,,,,,,,,0,25,25,51,1,,,,,,,,,,,,,,,,,,,,,,,,,,,,
,,,,,V1_016,19,Male,2024-05-14_17h14.57.304,jersey_experiment_5_v1,2023.2.2,Win32,84.74576271,,,,,,,,,,,,,,,,761.2899,762.584,762.584,764.2192,return,0.3924,,70.44270833,,,,,,FBP-PT-71.png,0.37,1.2,2,0.5,,,,,,,,,,,,,0,26,26,1,1,,,,,,,,,,,,,,,,,,,,,,,,,,,,
,,,,,V1_016,19,Male,2024-05-14_17h14.57.304,jersey_experiment_5_v1,2023.2.2,Win32,84.74576271,,,,,,,,,,,,,,,,764.2194,766.0193,766.0194,767.0899,return,0.316,,56.90104167,,,,,,FBP-OG-17.png,0.35,1.2,31,1,,,,,,,,,,,,,0,27,27,30,1,,,,,,,,,,,,,,,,,,,,,,,,,,,,
,,,,,V1_016,19,Male,2024-05-14_17h14.57.304,jersey_experiment_5_v1,2023.2.2,Win32,84.74576271,,,,,,,,,,,,,,,,767.0901,768.89,768.89,770.5724,return,0.3204,,83.59375,,,,,,FBP-RB-91.png,0.4,1.2,58,1,,,,,,,,,,,,,0,28,28,57,1,,,,,,,,,,,,,,,,,,,,,,,,,,,,
,,,,,V1_016,19,Male,2024-05-14_17h14.57.304,jersey_experiment_5_v1,2023.2.2,Win32,84.74576271,,,,,,,,,,,,,,,,770.5726,772.3727,772.3728,773.9961,return,0.7325,,46.74479167,,,,,,FBP-YG-18.png,0.35,1.2,21,1,,,,,,,,,,,,,0,29,29,20,1,,,,,,,,,,,,,,,,,,,,,,,,,,,,
,,,,,V1_016,19,Male,2024-05-14_17h14.57.304,jersey_experiment_5_v1,2023.2.2,Win32,84.74576271,,,,,,,,,,,,,,,,773.9963,775.7963,775.7963,777.2904,return,0.4189,,90.75520833,,,,,,FBP-OG-19.png,0.45,1.2,45,1,,,,,,,,,,,,,0,30,30,44,1,,,,,,,,,,,,,,,,,,,,,,,,,,,,
,,,,,V1_016,19,Male,2024-05-14_17h14.57.304,jersey_experiment_5_v1,2023.2.2,Win32,84.74576271,,,,,,,,,,,,,,,,777.2906,778.5846,778.5846,780.2669,return,0.3928,,70.96354167,,,,,,FBP-PT-81.png,0.37,1.2,7,0.5,,,,,,,,,,,,,0,31,31,6,1,,,,,,,,,,,,,,,,,,,,,,,,,,,,
,,,,,V1_016,19,Male,2024-05-14_17h14.57.304,jersey_experiment_5_v1,2023.2.2,Win32,84.74576271,,,,,,,,,,,,,,,,780.2671,782.0672,782.0672,783.2671,return,0.3058,,93.48958333,,,,,,FBP-RB-71.png,0.43,1.2,49,1,,,,,,,,,,,,,0,32,32,48,1,,,,,,,,,,,,,,,,,,,,,,,,,,,,
,,,,,V1_016,19,Male,2024-05-14_17h14.57.304,jersey_experiment_5_v1,2023.2.2,Win32,84.74576271,,,,,,,,,,,,,,,,783.2673,784.5611,784.5611,785.5494,return,0.3916,,99.86979167,,,,,,FBP-PT-71.png,0.45,1.2,5,0.5,,,,,,,,,,,,,0,33,33,4,1,,,,,,,,,,,,,,,,,,,,,,,,,,,,
,,,,,V1_016,19,Male,2024-05-14_17h14.57.304,jersey_experiment_5_v1,2023.2.2,Win32,84.74576271,,,,,,,,,,,,,,,,785.5496,787.3495,787.3495,789.1848,return,1.2339,,95.3125,,,,,,FBP-YG-19.png,0.43,1.2,29,1,,,,,,,,,,,,,0,34,34,28,1,,,,,,,,,,,,,,,,,,,,,,,,,,,,
,,,,,V1_016,19,Male,2024-05-14_17h14.57.304,jersey_experiment_5_v1,2023.2.2,Win32,84.74576271,,,,,,,,,,,,,,,,789.185,790.9848,790.9848,792.8083,return,0.3712,,67.44791667,,,,,,FBP-YG-18.png,0.37,1.2,22,1,,,,,,,,,,,,,0,35,35,21,1,,,,,,,,,,,,,,,,,,,,,,,,,,,,
,,,,,V1_016,19,Male,2024-05-14_17h14.57.304,jersey_experiment_5_v1,2023.2.2,Win32,84.74576271,,,,,,,,,,,,,,,,792.8085,794.6087,794.6088,795.8557,return,0.4007,,31.77083333,,,,,,FBP-RB-91.png,0.35,1.2,56,1,,,,,,,,,,,,,0,36,36,55,1,,,,,,,,,,,,,,,,,,,,,,,,,,,,
,,,,,V1_016,19,Male,2024-05-14_17h14.57.304,jersey_experiment_5_v1,2023.2.2,Win32,84.74576271,,,,,,,,,,,,,,,,795.8559,797.1498,797.1499,799.8676,return,1.38,,46.35416667,,,,,,FBP-PT-91.png,0.37,1.2,12,0.5,,,,,,,,,,,,,0,37,37,11,1,,,,,,,,,,,,,,,,,,,,,,,,,,,,
,,,,,V1_016,19,Male,2024-05-14_17h14.57.304,jersey_experiment_5_v1,2023.2.2,Win32,84.74576271,,,,,,,,,,,,,,,,799.8678,801.6678,801.6678,803.5854,return,0.3627,,80.078125,,,,,,FBP-OG-18.png,0.45,1.2,40,1,,,,,,,,,,,,,0,38,38,39,1,,,,,,,,,,,,,,,,,,,,,,,,,,,,
,,,,,V1_016,19,Male,2024-05-14_17h14.57.304,jersey_experiment_5_v1,2023.2.2,Win32,84.74576271,,,,,,,,,,,,,,,,803.5856,805.3858,805.3858,806.3386,return,0.4335,,91.92708333,,,,,,FBP-YG-17.png,0.45,1.2,20,1,,,,,,,,,,,,,0,39,39,19,1,,,,,,,,,,,,,,,,,,,,,,,,,,,,
,,,,,V1_016,19,Male,2024-05-14_17h14.57.304,jersey_experiment_5_v1,2023.2.2,Win32,84.74576271,,,,,,,,,,,,,,,,806.3388,807.6324,807.6324,809.0562,return,0.3903,,99.86979167,,,,,,FBP-PT-81.png,0.45,1.2,10,0.5,,,,,,,,,,,,,0,40,40,9,1,,,,,,,,,,,,,,,,,,,,,,,,,,,,
,,,,,V1_016,19,Male,2024-05-14_17h14.57.304,jersey_experiment_5_v1,2023.2.2,Win32,84.74576271,,,,,,,,,,,,,,,,809.0564,810.8561,810.8561,812.9739,return,0.3658,,41.66666667,,,,,,FBP-RB-81.png,0.35,1.2,51,1,,,,,,,,,,,,,0,41,41,50,1,,,,,,,,,,,,,,,,,,,,,,,,,,,,
,,,,,V1_016,19,Male,2024-05-14_17h14.57.304,jersey_experiment_5_v1,2023.2.2,Win32,84.74576271,,,,,,,,,,,,,,,,812.9742,814.7743,814.7743,816.2681,return,0.7578,,84.375,,,,,,FBP-RB-71.png,0.45,1.2,50,1,,,,,,,,,,,,,0,42,42,49,1,,,,,,,,,,,,,,,,,,,,,,,,,,,,
,,,,,V1_016,19,Male,2024-05-14_17h14.57.304,jersey_experiment_5_v1,2023.2.2,Win32,84.74576271,,,,,,,,,,,,,,,,816.2684,818.0685,818.0686,822.9272,return,3.8845,,34.50520833,,,,,,FBP-OG-18.png,0.37,1.2,37,1,,,,,,,,,,,,,0,43,43,36,1,,,,,,,,,,,,,,,,,,,,,,,,,,,,
,,,,,V1_016,19,Male,2024-05-14_17h14.57.304,jersey_experiment_5_v1,2023.2.2,Win32,84.74576271,,,,,,,,,,,,,,,,822.9274,824.2214,824.2214,826.139,return,0.3474,,75.26041667,,,,,,FBP-PT-81.png,0.43,1.2,9,0.5,,,,,,,,,,,,,0,44,44,8,1,,,,,,,,,,,,,,,,,,,,,,,,,,,,
,,,,,V1_016,19,Male,2024-05-14_17h14.57.304,jersey_experiment_5_v1,2023.2.2,Win32,84.74576271,,,,,,,,,,,,,,,,826.1392,827.9392,827.9392,829.2923,return,0.4737,,78.90625,,,,,,FBP-OG-18.png,0.4,1.2,38,1,,,,,,,,,,,,,0,45,45,37,1,,,,,,,,,,,,,,,,,,,,,,,,,,,,
,,,,,V1_016,19,Male,2024-05-14_17h14.57.304,jersey_experiment_5_v1,2023.2.2,Win32,84.74576271,,,,,,,,,,,,,,,,829.2926,831.0925,831.0925,832.7983,return,0.3677,,51.04166667,,,,,,FBP-OG-19.png,0.37,1.2,42,1,,,,,,,,,,,,,0,46,46,41,1,,,,,,,,,,,,,,,,,,,,,,,,,,,,
,,,,,V1_016,19,Male,2024-05-14_17h14.57.304,jersey_experiment_5_v1,2023.2.2,Win32,84.74576271,,,,,,,,,,,,,,,,832.7986,834.5984,834.5984,835.8689,return,0.3205,,82.03125,,,,,,FBP-OG-19.png,0.43,1.2,44,1,,,,,,,,,,,,,0,47,47,43,1,,,,,,,,,,,,,,,,,,,,,,,,,,,,
,,,,,V1_016,19,Male,2024-05-14_17h14.57.304,jersey_experiment_5_v1,2023.2.2,Win32,84.74576271,,,,,,,,,,,,,,,,835.8691,837.6689,837.6689,838.7514,return,0.367,,50,,,,,,FBP-YG-17.png,0.37,1.2,17,1,,,,,,,,,,,,,0,48,48,16,1,,,,,,,,,,,,,,,,,,,,,,,,,,,,
,,,,,V1_016,19,Male,2024-05-14_17h14.57.304,jersey_experiment_5_v1,2023.2.2,Win32,84.74576271,,,,,,,,,,,,,,,,838.7517,840.0455,840.0455,845.1516,return,0.306,,63.28125,,,,,,FBP-PT-71.png,0.35,1.2,1,0.5,,,,,,,,,,,,,0,49,49,0,1,,,,,,,,,,,,,,,,,,,,,,,,,,,,
,,,,,V1_016,19,Male,2024-05-14_17h14.57.304,jersey_experiment_5_v1,2023.2.2,Win32,84.74576271,,,,,,,,,,,,,,,,845.1518,846.9518,846.9518,848.0575,return,0.441,,78.38541667,,,,,,FBP-RB-81.png,0.43,1.2,54,1,,,,,,,,,,,,,0,50,50,53,1,,,,,,,,,,,,,,,,,,,,,,,,,,,,
,,,,,V1_016,19,Male,2024-05-14_17h14.57.304,jersey_experiment_5_v1,2023.2.2,Win32,84.74576271,,,,,,,,,,,,,,,,848.0577,849.8577,849.8577,851.0694,return,0.357,,29.55729167,,,,,,FBP-YG-19.png,0.35,1.2,26,1,,,,,,,,,,,,,0,51,51,25,1,,,,,,,,,,,,,,,,,,,,,,,,,,,,
,,,,,V1_016,19,Male,2024-05-14_17h14.57.304,jersey_experiment_5_v1,2023.2.2,Win32,84.74576271,,,,,,,,,,,,,,,,851.0696,852.8697,852.8697,854.7872,return,0.3867,,77.21354167,,,,,,FBP-YG-18.png,0.43,1.2,24,1,,,,,,,,,,,,,0,52,52,23,1,,,,,,,,,,,,,,,,,,,,,,,,,,,,
,,,,,V1_016,19,Male,2024-05-14_17h14.57.304,jersey_experiment_5_v1,2023.2.2,Win32,84.74576271,,,,,,,,,,,,,,,,854.7874,856.5872,856.5873,858.8462,return,0.2735,,64.58333333,,,,,,FBP-YG-17.png,0.4,1.2,18,1,,,,,,,,,,,,,0,53,53,17,1,,,,,,,,,,,,,,,,,,,,,,,,,,,,
,,,,,V1_016,19,Male,2024-05-14_17h14.57.304,jersey_experiment_5_v1,2023.2.2,Win32,84.74576271,,,,,,,,,,,,,,,,858.8464,860.6463,860.6464,862.2112,return,0.6266,,50,,,,,,FBP-OG-19.png,0.4,1.2,43,1,,,,,,,,,,,,,0,54,54,42,1,,,,,,,,,,,,,,,,,,,,,,,,,,,,
,,,,,V1_016,19,Male,2024-05-14_17h14.57.304,jersey_experiment_5_v1,2023.2.2,Win32,84.74576271,,,,,,,,,,,,,,,,862.2114,864.0109,864.0109,864.8464,return,0.4852,,50,,,,,,FBP-RB-91.png,0.37,1.2,57,1,,,,,,,,,,,,,0,55,55,56,1,,,,,,,,,,,,,,,,,,,,,,,,,,,,
,,,,,V1_016,19,Male,2024-05-14_17h14.57.304,jersey_experiment_5_v1,2023.2.2,Win32,84.74576271,,,,,,,,,,,,,,,,864.8467,866.1406,866.1406,867.5289,return,0.4202,,82.03125,,,,,,FBP-PT-91.png,0.45,1.2,15,0.5,,,,,,,,,,,,,0,56,56,14,1,,,,,,,,,,,,,,,,,,,,,,,,,,,,
,,,,,V1_016,19,Male,2024-05-14_17h14.57.304,jersey_experiment_5_v1,2023.2.2,Win32,84.74576271,,,,,,,,,,,,,,,,867.5291,869.3288,869.3288,870.4938,return,0.637,,82.03125,,,,,,FBP-RB-81.png,0.4,1.2,53,1,,,,,,,,,,,,,0,57,57,52,1,,,,,,,,,,,,,,,,,,,,,,,,,,,,
,,,,,V1_016,19,Male,2024-05-14_17h14.57.304,jersey_experiment_5_v1,2023.2.2,Win32,84.74576271,,,,,,,,,,,,,,,,870.4939,871.7879,871.7879,872.976,return,0.3305,,93.359375,,,,,,FBP-PT-71.png,0.43,1.2,4,0.5,,,,,,,,,,,,,0,58,58,3,1,,,,,,,,,,,,,,,,,,,,,,,,,,,,
,,,,,V1_016,19,Male,2024-05-14_17h14.57.304,jersey_experiment_5_v1,2023.2.2,Win32,84.74576271,,,,,,,,,,,,,,,,872.9762,874.7761,874.7762,875.8705,return,0.3558,,100,,,,,,FBP-RB-81.png,0.45,1.2,55,1,,,,,,,,,,,,,0,59,59,54,1,,,,,,,,,,,,,,,,,,,,,,,,,,,,
,,,,,V1_016,19,Male,2024-05-14_17h14.57.304,jersey_experiment_5_v1,2023.2.2,Win32,84.74576271,,,,,,,,,,,,,,,,875.8723,877.6704,877.6704,880.0469,return,0.9787,,100,,,,,,FBP-YG-81.png,0.45,1.2,25,1,,,,,,,,,,,,,,,,,,0,0,0,24,1,,,,,,,,,,,,,,,,,,,,,,,
,,,,,V1_016,19,Male,2024-05-14_17h14.57.304,jersey_experiment_5_v1,2023.2.2,Win32,84.74576271,,,,,,,,,,,,,,,,880.0473,881.847,881.847,882.7059,return,0.3197,,100,,,,,,FBP-RB-17.png,0.45,1.2,50,1,,,,,,,,,,,,,,,,,,0,1,1,49,1,,,,,,,,,,,,,,,,,,,,,,,
,,,,,V1_016,19,Male,2024-05-14_17h14.57.304,jersey_experiment_5_v1,2023.2.2,Win32,84.74576271,,,,,,,,,,,,,,,,882.7061,884.5061,884.5061,885.8237,return,0.4585,,9.895833333,,,,,,FBP-OG-91.png,0.35,1.2,41,1,,,,,,,,,,,,,,,,,,0,2,2,40,1,,,,,,,,,,,,,,,,,,,,,,,
,,,,,V1_016,19,Male,2024-05-14_17h14.57.304,jersey_experiment_5_v1,2023.2.2,Win32,84.74576271,,,,,,,,,,,,,,,,885.8239,887.624,887.624,888.7649,return,0.4752,,35.28645833,,,,,,FBP-RB-18.png,0.4,1.2,53,1,,,,,,,,,,,,,,,,,,0,3,3,52,1,,,,,,,,,,,,,,,,,,,,,,,
,,,,,V1_016,19,Male,2024-05-14_17h14.57.304,jersey_experiment_5_v1,2023.2.2,Win32,84.74576271,,,,,,,,,,,,,,,,888.765,890.5652,890.5652,891.6474,return,0.3539,,12.5,,,,,,FBP-YG-71.png,0.35,1.2,16,1,,,,,,,,,,,,,,,,,,0,4,4,15,1,,,,,,,,,,,,,,,,,,,,,,,
,,,,,V1_016,19,Male,2024-05-14_17h14.57.304,jersey_experiment_5_v1,2023.2.2,Win32,84.74576271,,,,,,,,,,,,,,,,891.6477,892.9415,892.9415,894.7064,return,0.5557,,73.4375,,,,,,FBP-PT-18.png,0.45,1.2,10,0.5,,,,,,,,,,,,,,,,,,0,5,5,9,1,,,,,,,,,,,,,,,,,,,,,,,
,,,,,V1_016,19,Male,2024-05-14_17h14.57.304,jersey_experiment_5_v1,2023.2.2,Win32,84.74576271,,,,,,,,,,,,,,,,894.7067,896.5063,896.5063,897.9182,return,0.3087,,26.953125,,,,,,FBP-RB-19.png,0.37,1.2,57,1,,,,,,,,,,,,,,,,,,0,6,6,56,1,,,,,,,,,,,,,,,,,,,,,,,
,,,,,V1_016,19,Male,2024-05-14_17h14.57.304,jersey_experiment_5_v1,2023.2.2,Win32,84.74576271,,,,,,,,,,,,,,,,897.9184,899.7184,899.7184,900.5771,return,0.2355,,19.27083333,,,,,,FBP-YG-91.png,0.35,1.2,26,1,,,,,,,,,,,,,,,,,,0,7,7,25,1,,,,,,,,,,,,,,,,,,,,,,,
,,,,,V1_016,19,Male,2024-05-14_17h14.57.304,jersey_experiment_5_v1,2023.2.2,Win32,84.74576271,,,,,,,,,,,,,,,,900.5773,901.8713,901.8713,902.9419,return,0.3677,,11.71875,,,,,,FBP-PT-19.png,0.35,1.2,11,0.5,,,,,,,,,,,,,,,,,,0,8,8,10,1,,,,,,,,,,,,,,,,,,,,,,,
,,,,,V1_016,19,Male,2024-05-14_17h14.57.304,jersey_experiment_5_v1,2023.2.2,Win32,84.74576271,,,,,,,,,,,,,,,,902.9421,904.236,904.236,906.2715,return,0.4584,,70.44270833,,,,,,FBP-PT-19.png,0.43,1.2,14,0.5,,,,,,,,,,,,,,,,,,0,9,9,13,1,,,,,,,,,,,,,,,,,,,,,,,
,,,,,V1_016,19,Male,2024-05-14_17h14.57.304,jersey_experiment_5_v1,2023.2.2,Win32,84.74576271,,,,,,,,,,,,,,,,906.2717,908.0718,908.0718,909.3068,return,0.4397,,92.83854167,,,,,,FBP-YG-81.png,0.43,1.2,24,1,,,,,,,,,,,,,,,,,,0,10,10,23,1,,,,,,,,,,,,,,,,,,,,,,,
,,,,,V1_016,19,Male,2024-05-14_17h14.57.304,jersey_experiment_5_v1,2023.2.2,Win32,84.74576271,,,,,,,,,,,,,,,,909.307,911.107,911.107,912.3776,return,0.3815,,100,,,,,,FBP-YG-71.png,0.45,1.2,20,1,,,,,,,,,,,,,,,,,,0,11,11,19,1,,,,,,,,,,,,,,,,,,,,,,,
,,,,,V1_016,19,Male,2024-05-14_17h14.57.304,jersey_experiment_5_v1,2023.2.2,Win32,84.74576271,,,,,,,,,,,,,,,,912.3778,914.1778,914.1778,915.5306,return,0.3105,,29.296875,,,,,,FBP-YG-71.png,0.37,1.2,17,1,,,,,,,,,,,,,,,,,,0,12,12,16,1,,,,,,,,,,,,,,,,,,,,,,,
,,,,,V1_016,19,Male,2024-05-14_17h14.57.304,jersey_experiment_5_v1,2023.2.2,Win32,84.74576271,,,,,,,,,,,,,,,,915.5308,917.3308,917.3308,919.0837,return,0.3939,,81.11979167,,,,,,FBP-RB-18.png,0.43,1.2,54,1,,,,,,,,,,,,,,,,,,0,13,13,53,1,,,,,,,,,,,,,,,,,,,,,,,
,,,,,V1_016,19,Male,2024-05-14_17h14.57.304,jersey_experiment_5_v1,2023.2.2,Win32,84.74576271,,,,,,,,,,,,,,,,919.0839,920.8838,920.8838,921.7073,return,0.2981,,96.61458333,,,,,,FBP-YG-71.png,0.43,1.2,19,1,,,,,,,,,,,,,,,,,,0,14,14,18,1,,,,,,,,,,,,,,,,,,,,,,,
,,,,,V1_016,19,Male,2024-05-14_17h14.57.304,jersey_experiment_5_v1,2023.2.2,Win32,84.74576271,,,,,,,,,,,,,,,,921.7075,923.5074,923.5074,924.7191,return,0.3549,,27.86458333,,,,,,FBP-OG-91.png,0.37,1.2,42,1,,,,,,,,,,,,,,,,,,0,15,15,41,1,,,,,,,,,,,,,,,,,,,,,,,
,,,,,V1_016,19,Male,2024-05-14_17h14.57.304,jersey_experiment_5_v1,2023.2.2,Win32,84.74576271,,,,,,,,,,,,,,,,924.7193,926.5194,926.5194,927.6959,return,0.3199,,99.47916667,,,,,,FBP-RB-19.png,0.45,1.2,60,1,,,,,,,,,,,,,,,,,,0,16,16,59,1,,,,,,,,,,,,,,,,,,,,,,,
,,,,,V1_016,19,Male,2024-05-14_17h14.57.304,jersey_experiment_5_v1,2023.2.2,Win32,84.74576271,,,,,,,,,,,,,,,,927.6961,928.99,928.99,930.9782,return,0.3626,,71.875,,,,,,FBP-PT-18.png,0.4,1.2,8,0.5,,,,,,,,,,,,,,,,,,0,17,17,7,1,,,,,,,,,,,,,,,,,,,,,,,
,,,,,V1_016,19,Male,2024-05-14_17h14.57.304,jersey_experiment_5_v1,2023.2.2,Win32,84.74576271,,,,,,,,,,,,,,,,930.9784,932.2723,932.2723,933.4842,return,0.3324,,8.203125,,,,,,FBP-PT-18.png,0.35,1.2,6,0.5,,,,,,,,,,,,,,,,,,0,18,18,5,1,,,,,,,,,,,,,,,,,,,,,,,
,,,,,V1_016,19,Male,2024-05-14_17h14.57.304,jersey_experiment_5_v1,2023.2.2,Win32,84.74576271,,,,,,,,,,,,,,,,933.4844,934.7784,934.7784,936.2019,return,0.313,,18.61979167,,,,,,FBP-PT-17.png,0.35,1.2,1,0.5,,,,,,,,,,,,,,,,,,0,19,19,0,1,,,,,,,,,,,,,,,,,,,,,,,
,,,,,V1_016,19,Male,2024-05-14_17h14.57.304,jersey_experiment_5_v1,2023.2.2,Win32,84.74576271,,,,,,,,,,,,,,,,936.2021,938.002,938.002,939.1197,return,0.3314,,66.53645833,,,,,,FBP-RB-19.png,0.4,1.2,58,1,,,,,,,,,,,,,,,,,,0,20,20,57,1,,,,,,,,,,,,,,,,,,,,,,,
,,,,,V1_016,19,Male,2024-05-14_17h14.57.304,jersey_experiment_5_v1,2023.2.2,Win32,84.74576271,,,,,,,,,,,,,,,,939.1199,940.9198,940.9198,941.9668,return,0.3318,,74.08854167,,,,,,FBP-OG-81.png,0.43,1.2,39,1,,,,,,,,,,,,,,,,,,0,21,21,38,1,,,,,,,,,,,,,,,,,,,,,,,
,,,,,V1_016,19,Male,2024-05-14_17h14.57.304,jersey_experiment_5_v1,2023.2.2,Win32,84.74576271,,,,,,,,,,,,,,,,941.9671,943.7671,943.7672,944.9788,return,0.3628,,26.69270833,,,,,,FBP-RB-18.png,0.37,1.2,52,1,,,,,,,,,,,,,,,,,,0,22,22,51,1,,,,,,,,,,,,,,,,,,,,,,,
,,,,,V1_016,19,Male,2024-05-14_17h14.57.304,jersey_experiment_5_v1,2023.2.2,Win32,84.74576271,,,,,,,,,,,,,,,,944.979,946.779,946.779,948.0024,return,0.3522,,11.97916667,,,,,,FBP-OG-81.png,0.35,1.2,36,1,,,,,,,,,,,,,,,,,,0,23,23,35,1,,,,,,,,,,,,,,,,,,,,,,,
,,,,,V1_016,19,Male,2024-05-14_17h14.57.304,jersey_experiment_5_v1,2023.2.2,Win32,84.74576271,,,,,,,,,,,,,,,,948.0026,949.8025,949.8026,951.2143,return,0.4128,,50.26041667,,,,,,FBP-YG-71.png,0.4,1.2,18,1,,,,,,,,,,,,,,,,,,0,24,24,17,1,,,,,,,,,,,,,,,,,,,,,,,
,,,,,V1_016,19,Male,2024-05-14_17h14.57.304,jersey_experiment_5_v1,2023.2.2,Win32,84.74576271,,,,,,,,,,,,,,,,951.2145,953.0146,953.0146,953.8966,return,0.4181,,34.375,,,,,,FBP-OG-71.png,0.37,1.2,32,1,,,,,,,,,,,,,,,,,,0,25,25,31,1,,,,,,,,,,,,,,,,,,,,,,,
,,,,,V1_016,19,Male,2024-05-14_17h14.57.304,jersey_experiment_5_v1,2023.2.2,Win32,84.74576271,,,,,,,,,,,,,,,,953.8967,955.6968,955.6969,959.1792,return,0.3706,,79.6875,,,,,,FBP-RB-18.png,0.45,1.2,55,1,,,,,,,,,,,,,,,,,,0,26,26,54,1,,,,,,,,,,,,,,,,,,,,,,,
,,,,,V1_016,19,Male,2024-05-14_17h14.57.304,jersey_experiment_5_v1,2023.2.2,Win32,84.74576271,,,,,,,,,,,,,,,,959.1796,960.9794,960.9794,962.1914,return,0.4848,,42.96875,,,,,,FBP-RB-17.png,0.37,1.2,47,1,,,,,,,,,,,,,,,,,,0,27,27,46,1,,,,,,,,,,,,,,,,,,,,,,,
,,,,,V1_016,19,Male,2024-05-14_17h14.57.304,jersey_experiment_5_v1,2023.2.2,Win32,84.74576271,,,,,,,,,,,,,,,,962.1917,963.9913,963.9913,965.2147,return,0.3321,,68.48958333,,,,,,FBP-YG-91.png,0.4,1.2,28,1,,,,,,,,,,,,,,,,,,0,28,28,27,1,,,,,,,,,,,,,,,,,,,,,,,
,,,,,V1_016,19,Male,2024-05-14_17h14.57.304,jersey_experiment_5_v1,2023.2.2,Win32,84.74576271,,,,,,,,,,,,,,,,965.2149,967.0149,967.0149,968.3679,return,0.4819,,74.47916667,,,,,,FBP-OG-81.png,0.4,1.2,38,1,,,,,,,,,,,,,,,,,,0,29,29,37,1,,,,,,,,,,,,,,,,,,,,,,,
,,,,,V1_016,19,Male,2024-05-14_17h14.57.304,jersey_experiment_5_v1,2023.2.2,Win32,84.74576271,,,,,,,,,,,,,,,,968.3681,970.1681,970.1681,971.3561,return,0.382,,42.44791667,,,,,,FBP-YG-91.png,0.37,1.2,27,1,,,,,,,,,,,,,,,,,,0,30,30,26,1,,,,,,,,,,,,,,,,,,,,,,,
,,,,,V1_016,19,Male,2024-05-14_17h14.57.304,jersey_experiment_5_v1,2023.2.2,Win32,84.74576271,,,,,,,,,,,,,,,,971.3563,973.1565,973.1565,974.3444,return,0.3144,,17.83854167,,,,,,FBP-OG-71.png,0.35,1.2,31,1,,,,,,,,,,,,,,,,,,0,31,31,30,1,,,,,,,,,,,,,,,,,,,,,,,
,,,,,V1_016,19,Male,2024-05-14_17h14.57.304,jersey_experiment_5_v1,2023.2.2,Win32,84.74576271,,,,,,,,,,,,,,,,974.3445,976.1446,976.1447,978.7212,return,0.4568,,8.072916667,,,,,,FBP-RB-19.png,0.35,1.2,56,1,,,,,,,,,,,,,,,,,,0,32,32,55,1,,,,,,,,,,,,,,,,,,,,,,,
,,,,,V1_016,19,Male,2024-05-14_17h14.57.304,jersey_experiment_5_v1,2023.2.2,Win32,84.74576271,,,,,,,,,,,,,,,,978.7214,980.5214,980.5214,981.9682,return,0.4108,,26.30208333,,,,,,FBP-RB-17.png,0.35,1.2,46,1,,,,,,,,,,,,,,,,,,0,33,33,45,1,,,,,,,,,,,,,,,,,,,,,,,
,,,,,V1_016,19,Male,2024-05-14_17h14.57.304,jersey_experiment_5_v1,2023.2.2,Win32,84.74576271,,,,,,,,,,,,,,,,981.9684,983.2624,983.2625,985.1802,return,0.5576,,58.46354167,,,,,,FBP-PT-17.png,0.4,1.2,3,0.5,,,,,,,,,,,,,,,,,,0,34,34,2,1,,,,,,,,,,,,,,,,,,,,,,,
,,,,,V1_016,19,Male,2024-05-14_17h14.57.304,jersey_experiment_5_v1,2023.2.2,Win32,84.74576271,,,,,,,,,,,,,,,,985.1804,986.9802,986.9802,989.2156,return,0.3403,,50.65104167,,,,,,FBP-OG-81.png,0.37,1.2,37,1,,,,,,,,,,,,,,,,,,0,35,35,36,1,,,,,,,,,,,,,,,,,,,,,,,
,,,,,V1_016,19,Male,2024-05-14_17h14.57.304,jersey_experiment_5_v1,2023.2.2,Win32,84.74576271,,,,,,,,,,,,,,,,989.2159,991.0157,991.0158,992.2275,return,0.3858,,63.02083333,,,,,,FBP-YG-81.png,0.4,1.2,23,1,,,,,,,,,,,,,,,,,,0,36,36,22,1,,,,,,,,,,,,,,,,,,,,,,,
,,,,,V1_016,19,Male,2024-05-14_17h14.57.304,jersey_experiment_5_v1,2023.2.2,Win32,84.74576271,,,,,,,,,,,,,,,,992.2277,994.0276,994.0277,995.2157,return,0.4112,,81.77083333,,,,,,FBP-OG-71.png,0.45,1.2,35,1,,,,,,,,,,,,,,,,,,0,37,37,34,1,,,,,,,,,,,,,,,,,,,,,,,
,,,,,V1_016,19,Male,2024-05-14_17h14.57.304,jersey_experiment_5_v1,2023.2.2,Win32,84.74576271,,,,,,,,,,,,,,,,995.216,997.0158,997.0158,998.1571,return,0.5795,,81.640625,,,,,,FBP-OG-71.png,0.43,1.2,34,1,,,,,,,,,,,,,,,,,,0,38,38,33,1,,,,,,,,,,,,,,,,,,,,,,,
,,,,,V1_016,19,Male,2024-05-14_17h14.57.304,jersey_experiment_5_v1,2023.2.2,Win32,84.74576271,,,,,,,,,,,,,,,,998.1574,999.9575,999.9575,1001.2985,return,0.4937,,70.96354167,,,,,,FBP-OG-71.png,0.4,1.2,33,1,,,,,,,,,,,,,,,,,,0,39,39,32,1,,,,,,,,,,,,,,,,,,,,,,,
,,,,,V1_016,19,Male,2024-05-14_17h14.57.304,jersey_experiment_5_v1,2023.2.2,Win32,84.74576271,,,,,,,,,,,,,,,,1001.2986,1003.0986,1003.0986,1005.2162,return,0.895,,82.8125,,,,,,FBP-OG-81.png,0.45,1.2,40,1,,,,,,,,,,,,,,,,,,0,40,40,39,1,,,,,,,,,,,,,,,,,,,,,,,
,,,,,V1_016,19,Male,2024-05-14_17h14.57.304,jersey_experiment_5_v1,2023.2.2,Win32,84.74576271,,,,,,,,,,,,,,,,1005.2164,1006.5104,1006.5104,1007.9692,return,0.2923,,74.73958333,,,,,,FBP-PT-19.png,0.45,1.2,15,0.5,,,,,,,,,,,,,,,,,,0,41,41,14,1,,,,,,,,,,,,,,,,,,,,,,,
,,,,,V1_016,19,Male,2024-05-14_17h14.57.304,jersey_experiment_5_v1,2023.2.2,Win32,84.74576271,,,,,,,,,,,,,,,,1007.9695,1009.2634,1009.2634,1010.3694,return,0.3159,,65.75520833,,,,,,FBP-PT-19.png,0.4,1.2,13,0.5,,,,,,,,,,,,,,,,,,0,42,42,12,1,,,,,,,,,,,,,,,,,,,,,,,
,,,,,V1_016,19,Male,2024-05-14_17h14.57.304,jersey_experiment_5_v1,2023.2.2,Win32,84.74576271,,,,,,,,,,,,,,,,1010.3696,1011.6636,1011.6636,1012.7812,return,0.298,,89.0625,,,,,,FBP-PT-17.png,0.45,1.2,5,0.5,,,,,,,,,,,,,,,,,,0,43,43,4,1,,,,,,,,,,,,,,,,,,,,,,,
,,,,,V1_016,19,Male,2024-05-14_17h14.57.304,jersey_experiment_5_v1,2023.2.2,Win32,84.74576271,,,,,,,,,,,,,,,,1012.7814,1014.0755,1014.0756,1015.4989,return,0.2885,,49.34895833,,,,,,FBP-PT-18.png,0.37,1.2,7,0.5,,,,,,,,,,,,,,,,,,0,44,44,6,1,,,,,,,,,,,,,,,,,,,,,,,
,,,,,V1_016,19,Male,2024-05-14_17h14.57.304,jersey_experiment_5_v1,2023.2.2,Win32,84.74576271,,,,,,,,,,,,,,,,1015.4992,1016.7932,1016.7932,1018.0989,return,0.32,,66.14583333,,,,,,FBP-PT-18.png,0.43,1.2,9,0.5,,,,,,,,,,,,,,,,,,0,45,45,8,1,,,,,,,,,,,,,,,,,,,,,,,
,,,,,V1_016,19,Male,2024-05-14_17h14.57.304,jersey_experiment_5_v1,2023.2.2,Win32,84.74576271,,,,,,,,,,,,,,,,1018.0992,1019.899,1019.899,1021.4756,return,0.3852,,91.66666667,,,,,,FBP-YG-91.png,0.45,1.2,30,1,,,,,,,,,,,,,,,,,,0,46,46,29,1,,,,,,,,,,,,,,,,,,,,,,,
,,,,,V1_016,19,Male,2024-05-14_17h14.57.304,jersey_experiment_5_v1,2023.2.2,Win32,84.74576271,,,,,,,,,,,,,,,,1021.4757,1023.2759,1023.2759,1025.1345,return,0.6831,,93.09895833,,,,,,FBP-YG-91.png,0.43,1.2,29,1,,,,,,,,,,,,,,,,,,0,47,47,28,1,,,,,,,,,,,,,,,,,,,,,,,
,,,,,V1_016,19,Male,2024-05-14_17h14.57.304,jersey_experiment_5_v1,2023.2.2,Win32,84.74576271,,,,,,,,,,,,,,,,1025.1347,1026.4289,1026.4289,1028.0994,return,0.4149,,23.828125,,,,,,FBP-PT-19.png,0.37,1.2,12,0.5,,,,,,,,,,,,,,,,,,0,48,48,11,1,,,,,,,,,,,,,,,,,,,,,,,
,,,,,V1_016,19,Male,2024-05-14_17h14.57.304,jersey_experiment_5_v1,2023.2.2,Win32,84.74576271,,,,,,,,,,,,,,,,1028.0997,1029.8995,1029.8995,1031.2406,return,0.4186,,61.19791667,,,,,,FBP-OG-91.png,0.4,1.2,43,1,,,,,,,,,,,,,,,,,,0,49,49,42,1,,,,,,,,,,,,,,,,,,,,,,,
,,,,,V1_016,19,Male,2024-05-14_17h14.57.304,jersey_experiment_5_v1,2023.2.2,Win32,84.74576271,,,,,,,,,,,,,,,,1031.2409,1033.0409,1033.0409,1034.2995,return,0.321,,28.64583333,,,,,,FBP-YG-81.png,0.35,1.2,21,1,,,,,,,,,,,,,,,,,,0,50,50,20,1,,,,,,,,,,,,,,,,,,,,,,,
,,,,,V1_016,19,Male,2024-05-14_17h14.57.304,jersey_experiment_5_v1,2023.2.2,Win32,84.74576271,,,,,,,,,,,,,,,,1034.2997,1036.0998,1036.0998,1038.594,return,0.4012,,52.60416667,,,,,,FBP-YG-81.png,0.37,1.2,22,1,,,,,,,,,,,,,,,,,,0,51,51,21,1,,,,,,,,,,,,,,,,,,,,,,,
,,,,,V1_016,19,Male,2024-05-14_17h14.57.304,jersey_experiment_5_v1,2023.2.2,Win32,84.74576271,,,,,,,,,,,,,,,,1038.5942,1040.3941,1040.3941,1041.4645,return,0.5143,,74.21875,,,,,,FBP-RB-19.png,0.43,1.2,59,1,,,,,,,,,,,,,,,,,,0,52,52,58,1,,,,,,,,,,,,,,,,,,,,,,,
,,,,,V1_016,19,Male,2024-05-14_17h14.57.304,jersey_experiment_5_v1,2023.2.2,Win32,84.74576271,,,,,,,,,,,,,,,,1041.4647,1043.2647,1043.2647,1044.3705,return,0.3628,,65.36458333,,,,,,FBP-RB-17.png,0.4,1.2,48,1,,,,,,,,,,,,,,,,,,0,53,53,47,1,,,,,,,,,,,,,,,,,,,,,,,
,,,,,V1_016,19,Male,2024-05-14_17h14.57.304,jersey_experiment_5_v1,2023.2.2,Win32,84.74576271,,,,,,,,,,,,,,,,1044.3707,1046.1708,1046.1708,1047.4411,return,0.3206,,70.05208333,,,,,,FBP-RB-17.png,0.43,1.2,49,1,,,,,,,,,,,,,,,,,,0,54,54,48,1,,,,,,,,,,,,,,,,,,,,,,,
,,,,,V1_016,19,Male,2024-05-14_17h14.57.304,jersey_experiment_5_v1,2023.2.2,Win32,84.74576271,,,,,,,,,,,,,,,,1047.4414,1049.2413,1049.2414,1051.0061,return,0.6853,,92.44791667,,,,,,FBP-OG-91.png,0.45,1.2,45,1,,,,,,,,,,,,,,,,,,0,55,55,44,1,,,,,,,,,,,,,,,,,,,,,,,
,,,,,V1_016,19,Male,2024-05-14_17h14.57.304,jersey_experiment_5_v1,2023.2.2,Win32,84.74576271,,,,,,,,,,,,,,,,1051.0063,1052.8061,1052.8061,1053.4061,return,0.3416,,92.31770833,,,,,,FBP-OG-91.png,0.43,1.2,44,1,,,,,,,,,,,,,,,,,,0,56,56,43,1,,,,,,,,,,,,,,,,,,,,,,,
,,,,,V1_016,19,Male,2024-05-14_17h14.57.304,jersey_experiment_5_v1,2023.2.2,Win32,84.74576271,,,,,,,,,,,,,,,,1053.4064,1054.7005,1054.7005,1056.1122,return,0.4009,,37.36979167,,,,,,FBP-PT-17.png,0.37,1.2,2,0.5,,,,,,,,,,,,,,,,,,0,57,57,1,1,,,,,,,,,,,,,,,,,,,,,,,
,,,,,V1_016,19,Male,2024-05-14_17h14.57.304,jersey_experiment_5_v1,2023.2.2,Win32,84.74576271,,,,,,,,,,,,,,,,1056.1124,1057.9122,1057.9122,1058.9593,return,0.4117,,23.828125,,,,,,FBP-RB-18.png,0.35,1.2,51,1,,,,,,,,,,,,,,,,,,0,58,58,50,1,,,,,,,,,,,,,,,,,,,,,,,
,,,,,V1_016,19,Male,2024-05-14_17h14.57.304,jersey_experiment_5_v1,2023.2.2,Win32,84.74576271,,,,,,,,,,,,,,,,1058.9595,1060.2535,1060.2535,1061.5124,return,0.3267,,59.50520833,,,,,,FBP-PT-17.png,0.43,1.2,4,0.5,,,,,,,,,,,,,,,,,,0,59,59,3,1,,,,,,,,,,,,,,,,,,,,,,,
,,,,,V1_016,19,Male,2024-05-14_17h14.57.304,jersey_experiment_5_v1,2023.2.2,Win32,84.74576271,,,,,,,,,,,,,,,,,,,,,,,,,,,,,,,,,,,,,,,,,,,,,,,,,,,,,,,,1061.5128,1066.6186,return,5.1004,,,,,,,,,,,,,,,,,,,
,,,,,V1_016,19,Male,2024-05-14_17h14.57.304,jersey_experiment_5_v1,2023.2.2,Win32,84.74576271,,,,,,,,,,,,,,,,,,,,,,,,,,,,,,,,,,,,,,,,,,,,,,,,,,,,,,,,,,,,,1066.6187,1071.1364,1,3.2011,return,1.2935,,,,,,,,,,,,
,,,,,V1_016,19,Male,2024-05-14_17h14.57.304,jersey_experiment_5_v1,2023.2.2,Win32,84.74576271,,,,,,,,,,,,,,,,,,,,,,,,,,,,,,,,,,,,,,,,,,,,,,,,,,,,,,,,,,,,,,,,,,,,1071.1366,1152.8856,"Lighting of the room and color of the football player's uniforms and their effect on ratings of body type. There may have been the same image shown back to back for consistency, or the same body type but different jersey color or different skin color to measure any implicit bias relating race and body type.",right,77.0618,,,,,,
,,,,,V1_016,19,Male,2024-05-14_17h14.57.304,jersey_experiment_5_v1,2023.2.2,Win32,84.74576271,,,,,,,,,,,,,,,,,,,,,,,,,,,,,,,,,,,,,,,,,,,,,,,,,,,,,,,,,,,,,,,,,,,,,,,,,,1152.8857,1155.81,return,2.9115,