requirements.started,requirements.stopped,key_resp_3.keys,key_resp_3.rt,key_resp_3.duration,Subject ID,Age,Gender,date,expName,psychopyVersion,OS,frameRate,instructions1.started,instructions1.stopped,key_resp.keys,key_resp.rt,key_resp.duration,example.started,example.stopped,enter_2.keys,enter_2.rt,enter_2.duration,instructions2.started,instructions2.stopped,enter_3.keys,enter_3.rt,enter_3.duration,image.started,image.stopped,slider_2.started,slider_2.stopped,next.keys,next.rt,next.duration,slider.response,trial_block_1.thisRepN,trial_block_1.thisTrialN,trial_block_1.thisN,trial_block_1.thisIndex,trial_block_1.ran,Path,Width,Height,Index,Duration,trial_block_2.thisRepN,trial_block_2.thisTrialN,trial_block_2.thisN,trial_block_2.thisIndex,trial_block_2.ran,rest_break.started,rest_break.stopped,end_break.started,end_break.stopped,key_resp_5.keys,key_resp_5.rt,key_resp_5.duration,trial_block_3.thisRepN,trial_block_3.thisTrialN,trial_block_3.thisN,trial_block_3.thisIndex,trial_block_3.ran,trial_block_4.thisRepN,trial_block_4.thisTrialN,trial_block_4.thisN,trial_block_4.thisIndex,trial_block_4.ran,questions_intro.started,questions_intro.stopped,enter_12.keys,enter_12.rt,enter_12.duration,question2.started,question2.stopped,question_doingbest.response,question_doingbest.rt,enter_15.keys,enter_15.rt,enter_15.duration,pattern.started,pattern.stopped,pattern_2.text,enter_17.keys,enter_17.rt,enter_17.duration,thankyou.started,thankyou.stopped,enter_14.keys,enter_14.rt,enter_14.duration
0.0001,14.6645,return,14.6572,,V1_013,18,Female,2024-05-14_15h29.51.479,jersey_experiment_5_v1,2023.2.2,Win32,84.74576271,,,,,,,,,,,,,,,,,,,,,,,,,,,,,,,,,,,,,,,,,,,,,,,,,,,,,,,,,,,,,,,,,,,,,,,,,,,,,,
,,,,,V1_013,18,Female,2024-05-14_15h29.51.479,jersey_experiment_5_v1,2023.2.2,Win32,84.74576271,14.6647,22.6528,return,7.9762,,,,,,,,,,,,,,,,,,,,,,,,,,,,,,,,,,,,,,,,,,,,,,,,,,,,,,,,,,,,,,,,,,,,,,,,,,
,,,,,V1_013,18,Female,2024-05-14_15h29.51.479,jersey_experiment_5_v1,2023.2.2,Win32,84.74576271,,,,,,22.6529,28.3942,return,5.7077,,,,,,,,,,,,,,,,,,,,,,,,,,,,,,,,,,,,,,,,,,,,,,,,,,,,,,,,,,,,,,,,,,,,,
,,,,,V1_013,18,Female,2024-05-14_15h29.51.479,jersey_experiment_5_v1,2023.2.2,Win32,84.74576271,,,,,,,,,,,28.3943,45.3711,return,16.9634,,,,,,,,,,,,,,,,,,,,,,,,,,,,,,,,,,,,,,,,,,,,,,,,,,,,,,,,,,,,,,,,
,,,,,V1_013,18,Female,2024-05-14_15h29.51.479,jersey_experiment_5_v1,2023.2.2,Win32,84.74576271,,,,,,,,,,,,,,,,45.3782,46.6769,46.677,63.7484,return,8.4865,,75.13020833,0,0,0,48,1,FBP-RB-71.png,0.43,1.2,49,0.5,,,,,,,,,,,,,,,,,,,,,,,,,,,,,,,,,,,,,,,,,,,,,
,,,,,V1_013,18,Female,2024-05-14_15h29.51.479,jersey_experiment_5_v1,2023.2.2,Win32,84.74576271,,,,,,,,,,,,,,,,63.7527,65.0539,65.054,68.3599,return,1.4611,,75.390625,0,1,1,43,1,FBP-OG-19.png,0.43,1.2,44,0.5,,,,,,,,,,,,,,,,,,,,,,,,,,,,,,,,,,,,,,,,,,,,,
,,,,,V1_013,18,Female,2024-05-14_15h29.51.479,jersey_experiment_5_v1,2023.2.2,Win32,84.74576271,,,,,,,,,,,,,,,,68.36,69.6541,69.6542,71.8659,return,0.7062,,50.52083333,0,2,2,22,1,FBP-YG-18.png,0.4,1.2,23,0.5,,,,,,,,,,,,,,,,,,,,,,,,,,,,,,,,,,,,,,,,,,,,,
,,,,,V1_013,18,Female,2024-05-14_15h29.51.479,jersey_experiment_5_v1,2023.2.2,Win32,84.74576271,,,,,,,,,,,,,,,,71.8661,73.1601,73.1601,75.3133,return,0.8209,,50.26041667,0,3,3,42,1,FBP-OG-19.png,0.4,1.2,43,0.5,,,,,,,,,,,,,,,,,,,,,,,,,,,,,,,,,,,,,,,,,,,,,
,,,,,V1_013,18,Female,2024-05-14_15h29.51.479,jersey_experiment_5_v1,2023.2.2,Win32,84.74576271,,,,,,,,,,,,,,,,75.3135,76.6073,76.6073,82.7958,return,4.6364,,45.83333333,0,4,4,50,1,FBP-RB-81.png,0.35,1.2,51,0.5,,,,,,,,,,,,,,,,,,,,,,,,,,,,,,,,,,,,,,,,,,,,,
,,,,,V1_013,18,Female,2024-05-14_15h29.51.479,jersey_experiment_5_v1,2023.2.2,Win32,84.74576271,,,,,,,,,,,,,,,,82.7961,84.0898,84.0898,87.3724,return,0.965,,55.859375,0,5,5,16,1,FBP-YG-17.png,0.37,1.2,17,0.5,,,,,,,,,,,,,,,,,,,,,,,,,,,,,,,,,,,,,,,,,,,,,
,,,,,V1_013,18,Female,2024-05-14_15h29.51.479,jersey_experiment_5_v1,2023.2.2,Win32,84.74576271,,,,,,,,,,,,,,,,87.3726,88.6665,88.6665,91.1371,return,1.0769,,74.34895833,0,6,6,47,1,FBP-RB-71.png,0.4,1.2,48,0.5,,,,,,,,,,,,,,,,,,,,,,,,,,,,,,,,,,,,,,,,,,,,,
,,,,,V1_013,18,Female,2024-05-14_15h29.51.479,jersey_experiment_5_v1,2023.2.2,Win32,84.74576271,,,,,,,,,,,,,,,,91.1372,92.4314,92.4314,95.4785,return,0.9328,,28.38541667,0,7,7,30,1,FBP-OG-17.png,0.35,1.2,31,0.5,,,,,,,,,,,,,,,,,,,,,,,,,,,,,,,,,,,,,,,,,,,,,
,,,,,V1_013,18,Female,2024-05-14_15h29.51.479,jersey_experiment_5_v1,2023.2.2,Win32,84.74576271,,,,,,,,,,,,,,,,95.4787,96.7728,96.7728,102.1963,return,2.5472,,51.43229167,0,8,8,21,1,FBP-YG-18.png,0.37,1.2,22,0.5,,,,,,,,,,,,,,,,,,,,,,,,,,,,,,,,,,,,,,,,,,,,,
,,,,,V1_013,18,Female,2024-05-14_15h29.51.479,jersey_experiment_5_v1,2023.2.2,Win32,84.74576271,,,,,,,,,,,,,,,,102.1966,103.4905,103.4905,105.8436,return,0.9481,,76.43229167,0,9,9,52,1,FBP-RB-81.png,0.4,1.2,53,0.5,,,,,,,,,,,,,,,,,,,,,,,,,,,,,,,,,,,,,,,,,,,,,
,,,,,V1_013,18,Female,2024-05-14_15h29.51.479,jersey_experiment_5_v1,2023.2.2,Win32,84.74576271,,,,,,,,,,,,,,,,105.8438,107.1377,107.1377,110.6791,return,1.9913,,89.58333333,0,10,10,18,1,FBP-YG-17.png,0.43,1.2,19,0.5,,,,,,,,,,,,,,,,,,,,,,,,,,,,,,,,,,,,,,,,,,,,,
,,,,,V1_013,18,Female,2024-05-14_15h29.51.479,jersey_experiment_5_v1,2023.2.2,Win32,84.74576271,,,,,,,,,,,,,,,,110.6793,111.9732,111.9733,114.1026,return,0.9067,,94.01041667,0,11,11,58,1,FBP-RB-91.png,0.43,1.2,59,0.5,,,,,,,,,,,,,,,,,,,,,,,,,,,,,,,,,,,,,,,,,,,,,
,,,,,V1_013,18,Female,2024-05-14_15h29.51.479,jersey_experiment_5_v1,2023.2.2,Win32,84.74576271,,,,,,,,,,,,,,,,114.1029,115.3969,115.3969,118.9854,return,1.7313,,59.24479167,0,12,12,56,1,FBP-RB-91.png,0.37,1.2,57,0.5,,,,,,,,,,,,,,,,,,,,,,,,,,,,,,,,,,,,,,,,,,,,,
,,,,,V1_013,18,Female,2024-05-14_15h29.51.479,jersey_experiment_5_v1,2023.2.2,Win32,84.74576271,,,,,,,,,,,,,,,,118.9856,120.7853,120.7853,125.5384,return,2.2196,,98.30729167,0,13,13,9,1,FBP-PT-81.png,0.45,1.2,10,1,,,,,,,,,,,,,,,,,,,,,,,,,,,,,,,,,,,,,,,,,,,,,
,,,,,V1_013,18,Female,2024-05-14_15h29.51.479,jersey_experiment_5_v1,2023.2.2,Win32,84.74576271,,,,,,,,,,,,,,,,125.5386,126.8326,126.8326,131.2091,return,0.8109,,33.33333333,0,14,14,20,1,FBP-YG-18.png,0.35,1.2,21,0.5,,,,,,,,,,,,,,,,,,,,,,,,,,,,,,,,,,,,,,,,,,,,,
,,,,,V1_013,18,Female,2024-05-14_15h29.51.479,jersey_experiment_5_v1,2023.2.2,Win32,84.74576271,,,,,,,,,,,,,,,,131.2093,133.0094,133.0094,136.9977,return,2.2492,,84.89583333,0,15,15,4,1,FBP-PT-71.png,0.45,1.2,5,1,,,,,,,,,,,,,,,,,,,,,,,,,,,,,,,,,,,,,,,,,,,,,
,,,,,V1_013,18,Female,2024-05-14_15h29.51.479,jersey_experiment_5_v1,2023.2.2,Win32,84.74576271,,,,,,,,,,,,,,,,136.998,138.2918,138.2918,142.1861,return,1.2382,,29.94791667,0,16,16,31,1,FBP-OG-17.png,0.37,1.2,32,0.5,,,,,,,,,,,,,,,,,,,,,,,,,,,,,,,,,,,,,,,,,,,,,
,,,,,V1_013,18,Female,2024-05-14_15h29.51.479,jersey_experiment_5_v1,2023.2.2,Win32,84.74576271,,,,,,,,,,,,,,,,142.1864,143.4803,143.4803,146.245,return,1.0739,,76.30208333,0,17,17,23,1,FBP-YG-18.png,0.43,1.2,24,0.5,,,,,,,,,,,,,,,,,,,,,,,,,,,,,,,,,,,,,,,,,,,,,
,,,,,V1_013,18,Female,2024-05-14_15h29.51.479,jersey_experiment_5_v1,2023.2.2,Win32,84.74576271,,,,,,,,,,,,,,,,146.2452,148.0451,148.0451,149.8687,return,0.8098,,73.69791667,0,18,18,2,1,FBP-PT-71.png,0.4,1.2,3,1,,,,,,,,,,,,,,,,,,,,,,,,,,,,,,,,,,,,,,,,,,,,,
,,,,,V1_013,18,Female,2024-05-14_15h29.51.479,jersey_experiment_5_v1,2023.2.2,Win32,84.74576271,,,,,,,,,,,,,,,,149.8688,151.1628,151.1628,167.7401,return,12.9896,,51.30208333,0,19,19,36,1,FBP-OG-18.png,0.37,1.2,37,0.5,,,,,,,,,,,,,,,,,,,,,,,,,,,,,,,,,,,,,,,,,,,,,
,,,,,V1_013,18,Female,2024-05-14_15h29.51.479,jersey_experiment_5_v1,2023.2.2,Win32,84.74576271,,,,,,,,,,,,,,,,167.7444,169.0457,169.0457,171.3165,return,1.0396,,91.14583333,0,20,20,49,1,FBP-RB-71.png,0.45,1.2,50,0.5,,,,,,,,,,,,,,,,,,,,,,,,,,,,,,,,,,,,,,,,,,,,,
,,,,,V1_013,18,Female,2024-05-14_15h29.51.479,jersey_experiment_5_v1,2023.2.2,Win32,84.74576271,,,,,,,,,,,,,,,,171.3166,173.1165,173.1165,176.8344,return,2.6905,,30.46875,0,21,21,10,1,FBP-PT-91.png,0.35,1.2,11,1,,,,,,,,,,,,,,,,,,,,,,,,,,,,,,,,,,,,,,,,,,,,,
,,,,,V1_013,18,Female,2024-05-14_15h29.51.479,jersey_experiment_5_v1,2023.2.2,Win32,84.74576271,,,,,,,,,,,,,,,,176.8345,178.1284,178.1284,180.364,return,0.7161,,93.359375,0,22,22,19,1,FBP-YG-17.png,0.45,1.2,20,0.5,,,,,,,,,,,,,,,,,,,,,,,,,,,,,,,,,,,,,,,,,,,,,
,,,,,V1_013,18,Female,2024-05-14_15h29.51.479,jersey_experiment_5_v1,2023.2.2,Win32,84.74576271,,,,,,,,,,,,,,,,180.3642,181.6579,181.6579,183.9051,return,0.8066,,73.17708333,0,23,23,17,1,FBP-YG-17.png,0.4,1.2,18,0.5,,,,,,,,,,,,,,,,,,,,,,,,,,,,,,,,,,,,,,,,,,,,,
,,,,,V1_013,18,Female,2024-05-14_15h29.51.479,jersey_experiment_5_v1,2023.2.2,Win32,84.74576271,,,,,,,,,,,,,,,,183.9053,185.1993,185.1993,186.9877,return,0.5786,,95.18229167,0,24,24,39,1,FBP-OG-18.png,0.45,1.2,40,0.5,,,,,,,,,,,,,,,,,,,,,,,,,,,,,,,,,,,,,,,,,,,,,
,,,,,V1_013,18,Female,2024-05-14_15h29.51.479,jersey_experiment_5_v1,2023.2.2,Win32,84.74576271,,,,,,,,,,,,,,,,186.9878,188.2817,188.2817,191.529,return,1.7315,,21.61458333,0,25,25,45,1,FBP-RB-71.png,0.35,1.2,46,0.5,,,,,,,,,,,,,,,,,,,,,,,,,,,,,,,,,,,,,,,,,,,,,
,,,,,V1_013,18,Female,2024-05-14_15h29.51.479,jersey_experiment_5_v1,2023.2.2,Win32,84.74576271,,,,,,,,,,,,,,,,191.5292,192.8231,192.8231,195.588,return,1.498,,80.46875,0,26,26,28,1,FBP-YG-19.png,0.43,1.2,29,0.5,,,,,,,,,,,,,,,,,,,,,,,,,,,,,,,,,,,,,,,,,,,,,
,,,,,V1_013,18,Female,2024-05-14_15h29.51.479,jersey_experiment_5_v1,2023.2.2,Win32,84.74576271,,,,,,,,,,,,,,,,195.5882,196.8821,196.8821,199.2821,return,0.8079,,75.78125,0,27,27,27,1,FBP-YG-19.png,0.4,1.2,28,0.5,,,,,,,,,,,,,,,,,,,,,,,,,,,,,,,,,,,,,,,,,,,,,
,,,,,V1_013,18,Female,2024-05-14_15h29.51.479,jersey_experiment_5_v1,2023.2.2,Win32,84.74576271,,,,,,,,,,,,,,,,199.2824,201.0822,201.0822,204.3294,return,0.8147,,83.984375,0,28,28,13,1,FBP-PT-91.png,0.43,1.2,14,1,,,,,,,,,,,,,,,,,,,,,,,,,,,,,,,,,,,,,,,,,,,,,
,,,,,V1_013,18,Female,2024-05-14_15h29.51.479,jersey_experiment_5_v1,2023.2.2,Win32,84.74576271,,,,,,,,,,,,,,,,204.3297,205.6236,205.6236,207.6119,return,0.691,,90.625,0,29,29,54,1,FBP-RB-81.png,0.45,1.2,55,0.5,,,,,,,,,,,,,,,,,,,,,,,,,,,,,,,,,,,,,,,,,,,,,
,,,,,V1_013,18,Female,2024-05-14_15h29.51.479,jersey_experiment_5_v1,2023.2.2,Win32,84.74576271,,,,,,,,,,,,,,,,207.612,208.9059,208.906,211.8355,return,1.4487,,24.08854167,0,30,30,15,1,FBP-YG-17.png,0.35,1.2,16,0.5,,,,,,,,,,,,,,,,,,,,,,,,,,,,,,,,,,,,,,,,,,,,,
,,,,,V1_013,18,Female,2024-05-14_15h29.51.479,jersey_experiment_5_v1,2023.2.2,Win32,84.74576271,,,,,,,,,,,,,,,,211.8357,213.6355,213.6355,216.0356,return,1.1693,,95.44270833,0,31,31,14,1,FBP-PT-91.png,0.45,1.2,15,1,,,,,,,,,,,,,,,,,,,,,,,,,,,,,,,,,,,,,,,,,,,,,
,,,,,V1_013,18,Female,2024-05-14_15h29.51.479,jersey_experiment_5_v1,2023.2.2,Win32,84.74576271,,,,,,,,,,,,,,,,216.0358,217.3298,217.3298,219.3535,return,0.8813,,20.96354167,0,32,32,55,1,FBP-RB-91.png,0.35,1.2,56,0.5,,,,,,,,,,,,,,,,,,,,,,,,,,,,,,,,,,,,,,,,,,,,,
,,,,,V1_013,18,Female,2024-05-14_15h29.51.479,jersey_experiment_5_v1,2023.2.2,Win32,84.74576271,,,,,,,,,,,,,,,,219.3537,220.6474,220.6474,222.9183,return,0.8724,,94.27083333,0,33,33,29,1,FBP-YG-19.png,0.45,1.2,30,0.5,,,,,,,,,,,,,,,,,,,,,,,,,,,,,,,,,,,,,,,,,,,,,
,,,,,V1_013,18,Female,2024-05-14_15h29.51.479,jersey_experiment_5_v1,2023.2.2,Win32,84.74576271,,,,,,,,,,,,,,,,222.9184,224.7182,224.7183,226.3772,return,0.7071,,94.27083333,0,34,34,8,1,FBP-PT-81.png,0.43,1.2,9,1,,,,,,,,,,,,,,,,,,,,,,,,,,,,,,,,,,,,,,,,,,,,,
,,,,,V1_013,18,Female,2024-05-14_15h29.51.479,jersey_experiment_5_v1,2023.2.2,Win32,84.74576271,,,,,,,,,,,,,,,,226.3775,228.1773,228.1773,229.7657,return,0.6282,,94.40104167,0,35,35,3,1,FBP-PT-71.png,0.43,1.2,4,1,,,,,,,,,,,,,,,,,,,,,,,,,,,,,,,,,,,,,,,,,,,,,
,,,,,V1_013,18,Female,2024-05-14_15h29.51.479,jersey_experiment_5_v1,2023.2.2,Win32,84.74576271,,,,,,,,,,,,,,,,229.7659,231.0597,231.0597,235.0836,return,1.1775,,41.66666667,0,36,36,46,1,FBP-RB-71.png,0.37,1.2,47,0.5,,,,,,,,,,,,,,,,,,,,,,,,,,,,,,,,,,,,,,,,,,,,,
,,,,,V1_013,18,Female,2024-05-14_15h29.51.479,jersey_experiment_5_v1,2023.2.2,Win32,84.74576271,,,,,,,,,,,,,,,,235.0838,236.3775,236.3775,240.9072,return,2.1276,,63.671875,0,37,37,51,1,FBP-RB-81.png,0.37,1.2,52,0.5,,,,,,,,,,,,,,,,,,,,,,,,,,,,,,,,,,,,,,,,,,,,,
,,,,,V1_013,18,Female,2024-05-14_15h29.51.479,jersey_experiment_5_v1,2023.2.2,Win32,84.74576271,,,,,,,,,,,,,,,,240.9074,242.2011,242.2011,244.5308,return,0.9118,,26.5625,0,38,38,35,1,FBP-OG-18.png,0.35,1.2,36,0.5,,,,,,,,,,,,,,,,,,,,,,,,,,,,,,,,,,,,,,,,,,,,,
,,,,,V1_013,18,Female,2024-05-14_15h29.51.479,jersey_experiment_5_v1,2023.2.2,Win32,84.74576271,,,,,,,,,,,,,,,,244.531,246.3309,246.3309,248.331,return,0.6345,,33.07291667,0,39,39,6,1,FBP-PT-81.png,0.37,1.2,7,1,,,,,,,,,,,,,,,,,,,,,,,,,,,,,,,,,,,,,,,,,,,,,
,,,,,V1_013,18,Female,2024-05-14_15h29.51.479,jersey_experiment_5_v1,2023.2.2,Win32,84.74576271,,,,,,,,,,,,,,,,248.3312,249.625,249.625,251.731,return,0.6051,,58.07291667,0,40,40,32,1,FBP-OG-17.png,0.4,1.2,33,0.5,,,,,,,,,,,,,,,,,,,,,,,,,,,,,,,,,,,,,,,,,,,,,
,,,,,V1_013,18,Female,2024-05-14_15h29.51.479,jersey_experiment_5_v1,2023.2.2,Win32,84.74576271,,,,,,,,,,,,,,,,251.7312,253.0252,253.0252,256.6136,return,0.8872,,55.20833333,0,41,41,26,1,FBP-YG-19.png,0.37,1.2,27,0.5,,,,,,,,,,,,,,,,,,,,,,,,,,,,,,,,,,,,,,,,,,,,,
,,,,,V1_013,18,Female,2024-05-14_15h29.51.479,jersey_experiment_5_v1,2023.2.2,Win32,84.74576271,,,,,,,,,,,,,,,,256.6138,257.9077,257.9077,260.1548,return,0.871,,82.421875,0,42,42,59,1,FBP-RB-91.png,0.45,1.2,60,0.5,,,,,,,,,,,,,,,,,,,,,,,,,,,,,,,,,,,,,,,,,,,,,
,,,,,V1_013,18,Female,2024-05-14_15h29.51.479,jersey_experiment_5_v1,2023.2.2,Win32,84.74576271,,,,,,,,,,,,,,,,260.1551,261.955,261.955,265.6727,return,1.2614,,47.00520833,0,43,43,5,1,FBP-PT-81.png,0.35,1.2,6,1,,,,,,,,,,,,,,,,,,,,,,,,,,,,,,,,,,,,,,,,,,,,,
,,,,,V1_013,18,Female,2024-05-14_15h29.51.479,jersey_experiment_5_v1,2023.2.2,Win32,84.74576271,,,,,,,,,,,,,,,,265.673,267.4727,267.4727,269.5553,return,0.8185,,45.703125,0,44,44,1,1,FBP-PT-71.png,0.37,1.2,2,1,,,,,,,,,,,,,,,,,,,,,,,,,,,,,,,,,,,,,,,,,,,,,
,,,,,V1_013,18,Female,2024-05-14_15h29.51.479,jersey_experiment_5_v1,2023.2.2,Win32,84.74576271,,,,,,,,,,,,,,,,269.5555,270.8494,270.8494,273.4259,return,1.0203,,85.41666667,0,45,45,24,1,FBP-YG-18.png,0.45,1.2,25,0.5,,,,,,,,,,,,,,,,,,,,,,,,,,,,,,,,,,,,,,,,,,,,,
,,,,,V1_013,18,Female,2024-05-14_15h29.51.479,jersey_experiment_5_v1,2023.2.2,Win32,84.74576271,,,,,,,,,,,,,,,,273.426,275.2259,275.2259,283.238,return,2.7337,,50.91145833,0,46,46,11,1,FBP-PT-91.png,0.37,1.2,12,1,,,,,,,,,,,,,,,,,,,,,,,,,,,,,,,,,,,,,,,,,,,,,
,,,,,V1_013,18,Female,2024-05-14_15h29.51.479,jersey_experiment_5_v1,2023.2.2,Win32,84.74576271,,,,,,,,,,,,,,,,283.2382,284.5322,284.5322,287.8734,return,0.8417,,63.41145833,0,47,47,57,1,FBP-RB-91.png,0.4,1.2,58,0.5,,,,,,,,,,,,,,,,,,,,,,,,,,,,,,,,,,,,,,,,,,,,,
,,,,,V1_013,18,Female,2024-05-14_15h29.51.479,jersey_experiment_5_v1,2023.2.2,Win32,84.74576271,,,,,,,,,,,,,,,,287.8736,289.1676,289.1676,291.6502,return,1.0555,,94.921875,0,48,48,44,1,FBP-OG-19.png,0.45,1.2,45,0.5,,,,,,,,,,,,,,,,,,,,,,,,,,,,,,,,,,,,,,,,,,,,,
,,,,,V1_013,18,Female,2024-05-14_15h29.51.479,jersey_experiment_5_v1,2023.2.2,Win32,84.74576271,,,,,,,,,,,,,,,,291.6505,292.9443,292.9443,295.509,return,0.6054,,87.890625,0,49,49,37,1,FBP-OG-18.png,0.4,1.2,38,0.5,,,,,,,,,,,,,,,,,,,,,,,,,,,,,,,,,,,,,,,,,,,,,
,,,,,V1_013,18,Female,2024-05-14_15h29.51.479,jersey_experiment_5_v1,2023.2.2,Win32,84.74576271,,,,,,,,,,,,,,,,295.5092,297.309,297.309,299.5092,return,0.6855,,60.9375,0,50,50,7,1,FBP-PT-81.png,0.4,1.2,8,1,,,,,,,,,,,,,,,,,,,,,,,,,,,,,,,,,,,,,,,,,,,,,
,,,,,V1_013,18,Female,2024-05-14_15h29.51.479,jersey_experiment_5_v1,2023.2.2,Win32,84.74576271,,,,,,,,,,,,,,,,299.5095,300.8034,300.8034,303.7683,return,0.6592,,51.5625,0,51,51,41,1,FBP-OG-19.png,0.37,1.2,42,0.5,,,,,,,,,,,,,,,,,,,,,,,,,,,,,,,,,,,,,,,,,,,,,
,,,,,V1_013,18,Female,2024-05-14_15h29.51.479,jersey_experiment_5_v1,2023.2.2,Win32,84.74576271,,,,,,,,,,,,,,,,303.7685,305.0623,305.0623,306.9329,return,0.65,,70.57291667,0,52,52,33,1,FBP-OG-17.png,0.43,1.2,34,0.5,,,,,,,,,,,,,,,,,,,,,,,,,,,,,,,,,,,,,,,,,,,,,
,,,,,V1_013,18,Female,2024-05-14_15h29.51.479,jersey_experiment_5_v1,2023.2.2,Win32,84.74576271,,,,,,,,,,,,,,,,306.9331,308.2271,308.2272,311.7331,return,2.2165,,75.390625,0,53,53,53,1,FBP-RB-81.png,0.43,1.2,54,0.5,,,,,,,,,,,,,,,,,,,,,,,,,,,,,,,,,,,,,,,,,,,,,
,,,,,V1_013,18,Female,2024-05-14_15h29.51.479,jersey_experiment_5_v1,2023.2.2,Win32,84.74576271,,,,,,,,,,,,,,,,311.7333,313.0273,313.0273,314.4861,return,0.602,,75.390625,0,54,54,38,1,FBP-OG-18.png,0.43,1.2,39,0.5,,,,,,,,,,,,,,,,,,,,,,,,,,,,,,,,,,,,,,,,,,,,,
,,,,,V1_013,18,Female,2024-05-14_15h29.51.479,jersey_experiment_5_v1,2023.2.2,Win32,84.74576271,,,,,,,,,,,,,,,,314.4863,316.2863,316.2863,317.9452,return,0.6364,,22.65625,0,55,55,0,1,FBP-PT-71.png,0.35,1.2,1,1,,,,,,,,,,,,,,,,,,,,,,,,,,,,,,,,,,,,,,,,,,,,,
,,,,,V1_013,18,Female,2024-05-14_15h29.51.479,jersey_experiment_5_v1,2023.2.2,Win32,84.74576271,,,,,,,,,,,,,,,,317.9453,319.2392,319.2392,323.4512,return,0.7392,,91.015625,0,56,56,34,1,FBP-OG-17.png,0.45,1.2,35,0.5,,,,,,,,,,,,,,,,,,,,,,,,,,,,,,,,,,,,,,,,,,,,,
,,,,,V1_013,18,Female,2024-05-14_15h29.51.479,jersey_experiment_5_v1,2023.2.2,Win32,84.74576271,,,,,,,,,,,,,,,,323.4514,325.2515,325.2516,326.8865,return,0.6016,,72.78645833,0,57,57,12,1,FBP-PT-91.png,0.4,1.2,13,1,,,,,,,,,,,,,,,,,,,,,,,,,,,,,,,,,,,,,,,,,,,,,
,,,,,V1_013,18,Female,2024-05-14_15h29.51.479,jersey_experiment_5_v1,2023.2.2,Win32,84.74576271,,,,,,,,,,,,,,,,326.8867,328.1808,328.1808,331.2044,return,1.5941,,21.61458333,0,58,58,40,1,FBP-OG-19.png,0.35,1.2,41,0.5,,,,,,,,,,,,,,,,,,,,,,,,,,,,,,,,,,,,,,,,,,,,,
,,,,,V1_013,18,Female,2024-05-14_15h29.51.479,jersey_experiment_5_v1,2023.2.2,Win32,84.74576271,,,,,,,,,,,,,,,,331.2047,332.4987,332.4987,334.7575,return,0.6283,,17.83854167,0,59,59,25,1,FBP-YG-19.png,0.35,1.2,26,0.5,,,,,,,,,,,,,,,,,,,,,,,,,,,,,,,,,,,,,,,,,,,,,
,,,,,V1_013,18,Female,2024-05-14_15h29.51.479,jersey_experiment_5_v1,2023.2.2,Win32,84.74576271,,,,,,,,,,,,,,,,334.7596,336.5575,336.5576,338.8518,return,0.9695,,47.78645833,,,,,,FBP-PT-17.png,0.37,1.2,2,1,0,0,0,1,1,,,,,,,,,,,,,,,,,,,,,,,,,,,,,,,,,,,,,,,,
,,,,,V1_013,18,Female,2024-05-14_15h29.51.479,jersey_experiment_5_v1,2023.2.2,Win32,84.74576271,,,,,,,,,,,,,,,,338.8522,340.1459,340.1459,342.0402,return,0.6847,,58.72395833,,,,,,FBP-YG-71.png,0.4,1.2,18,0.5,0,1,1,17,1,,,,,,,,,,,,,,,,,,,,,,,,,,,,,,,,,,,,,,,,
,,,,,V1_013,18,Female,2024-05-14_15h29.51.479,jersey_experiment_5_v1,2023.2.2,Win32,84.74576271,,,,,,,,,,,,,,,,342.0404,343.8401,343.8401,345.3344,return,0.6963,,92.1875,,,,,,FBP-PT-19.png,0.45,1.2,15,1,0,2,2,14,1,,,,,,,,,,,,,,,,,,,,,,,,,,,,,,,,,,,,,,,,
,,,,,V1_013,18,Female,2024-05-14_15h29.51.479,jersey_experiment_5_v1,2023.2.2,Win32,84.74576271,,,,,,,,,,,,,,,,345.3346,346.6283,346.6283,348.6167,return,1.12,,94.66145833,,,,,,FBP-RB-18.png,0.45,1.2,55,0.5,0,3,3,54,1,,,,,,,,,,,,,,,,,,,,,,,,,,,,,,,,,,,,,,,,
,,,,,V1_013,18,Female,2024-05-14_15h29.51.479,jersey_experiment_5_v1,2023.2.2,Win32,84.74576271,,,,,,,,,,,,,,,,348.6169,349.911,349.911,354.0758,return,2.2361,,42.05729167,,,,,,FBP-YG-71.png,0.35,1.2,16,0.5,0,4,4,15,1,,,,,,,,,,,,,,,,,,,,,,,,,,,,,,,,,,,,,,,,
,,,,,V1_013,18,Female,2024-05-14_15h29.51.479,jersey_experiment_5_v1,2023.2.2,Win32,84.74576271,,,,,,,,,,,,,,,,354.076,355.3699,355.37,357.6525,return,0.6059,,26.171875,,,,,,FBP-YG-81.png,0.35,1.2,21,0.5,0,5,5,20,1,,,,,,,,,,,,,,,,,,,,,,,,,,,,,,,,,,,,,,,,
,,,,,V1_013,18,Female,2024-05-14_15h29.51.479,jersey_experiment_5_v1,2023.2.2,Win32,84.74576271,,,,,,,,,,,,,,,,357.6527,358.9466,358.9466,362.229,return,1.0166,,26.953125,,,,,,FBP-RB-17.png,0.37,1.2,47,0.5,0,6,6,46,1,,,,,,,,,,,,,,,,,,,,,,,,,,,,,,,,,,,,,,,,
,,,,,V1_013,18,Female,2024-05-14_15h29.51.479,jersey_experiment_5_v1,2023.2.2,Win32,84.74576271,,,,,,,,,,,,,,,,362.2292,363.5232,363.5232,365.8645,return,0.7776,,24.34895833,,,,,,FBP-OG-81.png,0.37,1.2,37,0.5,0,7,7,36,1,,,,,,,,,,,,,,,,,,,,,,,,,,,,,,,,,,,,,,,,
,,,,,V1_013,18,Female,2024-05-14_15h29.51.479,jersey_experiment_5_v1,2023.2.2,Win32,84.74576271,,,,,,,,,,,,,,,,365.8647,367.1586,367.1586,370.9941,return,1.0182,,52.86458333,,,,,,FBP-OG-71.png,0.4,1.2,33,0.5,0,8,8,32,1,,,,,,,,,,,,,,,,,,,,,,,,,,,,,,,,,,,,,,,,
,,,,,V1_013,18,Female,2024-05-14_15h29.51.479,jersey_experiment_5_v1,2023.2.2,Win32,84.74576271,,,,,,,,,,,,,,,,370.9943,372.2882,372.2882,375.3943,return,0.6883,,38.54166667,,,,,,FBP-YG-91.png,0.35,1.2,26,0.5,0,9,9,25,1,,,,,,,,,,,,,,,,,,,,,,,,,,,,,,,,,,,,,,,,
,,,,,V1_013,18,Female,2024-05-14_15h29.51.479,jersey_experiment_5_v1,2023.2.2,Win32,84.74576271,,,,,,,,,,,,,,,,375.3945,376.6883,376.6883,381.8768,return,1.3936,,63.02083333,,,,,,FBP-YG-91.png,0.4,1.2,28,0.5,0,10,10,27,1,,,,,,,,,,,,,,,,,,,,,,,,,,,,,,,,,,,,,,,,
,,,,,V1_013,18,Female,2024-05-14_15h29.51.479,jersey_experiment_5_v1,2023.2.2,Win32,84.74576271,,,,,,,,,,,,,,,,381.877,383.1709,383.1709,385.5123,return,0.8461,,90.36458333,,,,,,FBP-YG-71.png,0.45,1.2,20,0.5,0,11,11,19,1,,,,,,,,,,,,,,,,,,,,,,,,,,,,,,,,,,,,,,,,
,,,,,V1_013,18,Female,2024-05-14_15h29.51.479,jersey_experiment_5_v1,2023.2.2,Win32,84.74576271,,,,,,,,,,,,,,,,385.5125,386.8064,386.8064,390.3476,return,1.5293,,30.078125,,,,,,FBP-OG-81.png,0.35,1.2,36,0.5,0,12,12,35,1,,,,,,,,,,,,,,,,,,,,,,,,,,,,,,,,,,,,,,,,
,,,,,V1_013,18,Female,2024-05-14_15h29.51.479,jersey_experiment_5_v1,2023.2.2,Win32,84.74576271,,,,,,,,,,,,,,,,390.3479,392.1478,392.1478,399.3245,return,1.0116,,30.59895833,,,,,,FBP-PT-18.png,0.4,1.2,8,1,0,13,13,7,1,,,,,,,,,,,,,,,,,,,,,,,,,,,,,,,,,,,,,,,,
,,,,,V1_013,18,Female,2024-05-14_15h29.51.479,jersey_experiment_5_v1,2023.2.2,Win32,84.74576271,,,,,,,,,,,,,,,,399.3246,400.6186,400.6186,402.6891,return,0.8443,,23.56770833,,,,,,FBP-RB-19.png,0.35,1.2,56,0.5,0,14,14,55,1,,,,,,,,,,,,,,,,,,,,,,,,,,,,,,,,,,,,,,,,
,,,,,V1_013,18,Female,2024-05-14_15h29.51.479,jersey_experiment_5_v1,2023.2.2,Win32,84.74576271,,,,,,,,,,,,,,,,402.6894,404.4894,404.4894,406.7599,return,1.2236,,78.64583333,,,,,,FBP-PT-17.png,0.43,1.2,4,1,0,15,15,3,1,,,,,,,,,,,,,,,,,,,,,,,,,,,,,,,,,,,,,,,,
,,,,,V1_013,18,Female,2024-05-14_15h29.51.479,jersey_experiment_5_v1,2023.2.2,Win32,84.74576271,,,,,,,,,,,,,,,,406.7602,408.0542,408.0542,410.1366,return,0.8013,,83.33333333,,,,,,FBP-OG-91.png,0.43,1.2,44,0.5,0,16,16,43,1,,,,,,,,,,,,,,,,,,,,,,,,,,,,,,,,,,,,,,,,
,,,,,V1_013,18,Female,2024-05-14_15h29.51.479,jersey_experiment_5_v1,2023.2.2,Win32,84.74576271,,,,,,,,,,,,,,,,410.1367,411.4307,411.4307,413.9954,return,1.2003,,58.07291667,,,,,,FBP-OG-91.png,0.4,1.2,43,0.5,0,17,17,42,1,,,,,,,,,,,,,,,,,,,,,,,,,,,,,,,,,,,,,,,,
,,,,,V1_013,18,Female,2024-05-14_15h29.51.479,jersey_experiment_5_v1,2023.2.2,Win32,84.74576271,,,,,,,,,,,,,,,,413.9957,415.2896,415.2896,418.0899,return,1.3886,,83.85416667,,,,,,FBP-RB-18.png,0.43,1.2,54,0.5,0,18,18,53,1,,,,,,,,,,,,,,,,,,,,,,,,,,,,,,,,,,,,,,,,
,,,,,V1_013,18,Female,2024-05-14_15h29.51.479,jersey_experiment_5_v1,2023.2.2,Win32,84.74576271,,,,,,,,,,,,,,,,418.09,419.3839,419.3839,424.7135,return,0.6495,,29.55729167,,,,,,FBP-OG-71.png,0.35,1.2,31,0.5,0,19,19,30,1,,,,,,,,,,,,,,,,,,,,,,,,,,,,,,,,,,,,,,,,
,,,,,V1_013,18,Female,2024-05-14_15h29.51.479,jersey_experiment_5_v1,2023.2.2,Win32,84.74576271,,,,,,,,,,,,,,,,424.7137,426.5136,426.5136,428.455,return,1.1777,,26.30208333,,,,,,FBP-PT-17.png,0.35,1.2,1,1,0,20,20,0,1,,,,,,,,,,,,,,,,,,,,,,,,,,,,,,,,,,,,,,,,
,,,,,V1_013,18,Female,2024-05-14_15h29.51.479,jersey_experiment_5_v1,2023.2.2,Win32,84.74576271,,,,,,,,,,,,,,,,428.4553,430.2549,430.2549,432.5138,return,0.7946,,67.44791667,,,,,,FBP-PT-17.png,0.4,1.2,3,1,0,21,21,2,1,,,,,,,,,,,,,,,,,,,,,,,,,,,,,,,,,,,,,,,,
,,,,,V1_013,18,Female,2024-05-14_15h29.51.479,jersey_experiment_5_v1,2023.2.2,Win32,84.74576271,,,,,,,,,,,,,,,,432.514,433.8079,433.8079,436.5023,return,0.7924,,38.671875,,,,,,FBP-OG-71.png,0.37,1.2,32,0.5,0,22,22,31,1,,,,,,,,,,,,,,,,,,,,,,,,,,,,,,,,,,,,,,,,
,,,,,V1_013,18,Female,2024-05-14_15h29.51.479,jersey_experiment_5_v1,2023.2.2,Win32,84.74576271,,,,,,,,,,,,,,,,436.5025,437.7963,437.7963,439.7611,return,0.7943,,92.1875,,,,,,FBP-OG-71.png,0.45,1.2,35,0.5,0,23,23,34,1,,,,,,,,,,,,,,,,,,,,,,,,,,,,,,,,,,,,,,,,
,,,,,V1_013,18,Female,2024-05-14_15h29.51.479,jersey_experiment_5_v1,2023.2.2,Win32,84.74576271,,,,,,,,,,,,,,,,439.7613,441.5613,441.5614,444.1848,return,0.6603,,57.94270833,,,,,,FBP-PT-19.png,0.37,1.2,12,1,0,24,24,11,1,,,,,,,,,,,,,,,,,,,,,,,,,,,,,,,,,,,,,,,,
,,,,,V1_013,18,Female,2024-05-14_15h29.51.479,jersey_experiment_5_v1,2023.2.2,Win32,84.74576271,,,,,,,,,,,,,,,,444.185,445.4789,445.4789,448.4438,return,0.8333,,32.03125,,,,,,FBP-YG-71.png,0.37,1.2,17,0.5,0,25,25,16,1,,,,,,,,,,,,,,,,,,,,,,,,,,,,,,,,,,,,,,,,
,,,,,V1_013,18,Female,2024-05-14_15h29.51.479,jersey_experiment_5_v1,2023.2.2,Win32,84.74576271,,,,,,,,,,,,,,,,448.444,449.738,449.738,452.2676,return,0.9874,,89.453125,,,,,,FBP-YG-91.png,0.45,1.2,30,0.5,0,26,26,29,1,,,,,,,,,,,,,,,,,,,,,,,,,,,,,,,,,,,,,,,,
,,,,,V1_013,18,Female,2024-05-14_15h29.51.479,jersey_experiment_5_v1,2023.2.2,Win32,84.74576271,,,,,,,,,,,,,,,,452.2678,453.5618,453.5618,455.7619,return,0.6675,,78.38541667,,,,,,FBP-OG-81.png,0.43,1.2,39,0.5,0,27,27,38,1,,,,,,,,,,,,,,,,,,,,,,,,,,,,,,,,,,,,,,,,
,,,,,V1_013,18,Female,2024-05-14_15h29.51.479,jersey_experiment_5_v1,2023.2.2,Win32,84.74576271,,,,,,,,,,,,,,,,455.7621,457.5618,457.5618,459.3383,return,0.6119,,30.859375,,,,,,FBP-PT-18.png,0.35,1.2,6,1,0,28,28,5,1,,,,,,,,,,,,,,,,,,,,,,,,,,,,,,,,,,,,,,,,
,,,,,V1_013,18,Female,2024-05-14_15h29.51.479,jersey_experiment_5_v1,2023.2.2,Win32,84.74576271,,,,,,,,,,,,,,,,459.3385,460.6325,460.6325,463.7385,return,1.2098,,83.984375,,,,,,FBP-YG-91.png,0.43,1.2,29,0.5,0,29,29,28,1,,,,,,,,,,,,,,,,,,,,,,,,,,,,,,,,,,,,,,,,
,,,,,V1_013,18,Female,2024-05-14_15h29.51.479,jersey_experiment_5_v1,2023.2.2,Win32,84.74576271,,,,,,,,,,,,,,,,463.7387,465.0327,465.0327,467.3622,return,0.7242,,24.21875,,,,,,FBP-YG-91.png,0.37,1.2,27,0.5,0,30,30,26,1,,,,,,,,,,,,,,,,,,,,,,,,,,,,,,,,,,,,,,,,
,,,,,V1_013,18,Female,2024-05-14_15h29.51.479,jersey_experiment_5_v1,2023.2.2,Win32,84.74576271,,,,,,,,,,,,,,,,467.3625,468.6563,468.6563,471.2565,return,1.4498,,95.83333333,,,,,,FBP-OG-81.png,0.45,1.2,40,0.5,0,31,31,39,1,,,,,,,,,,,,,,,,,,,,,,,,,,,,,,,,,,,,,,,,
,,,,,V1_013,18,Female,2024-05-14_15h29.51.479,jersey_experiment_5_v1,2023.2.2,Win32,84.74576271,,,,,,,,,,,,,,,,471.2566,473.0564,473.0564,477.9157,return,0.8945,,56.51041667,,,,,,FBP-PT-18.png,0.37,1.2,7,1,0,32,32,6,1,,,,,,,,,,,,,,,,,,,,,,,,,,,,,,,,,,,,,,,,
,,,,,V1_013,18,Female,2024-05-14_15h29.51.479,jersey_experiment_5_v1,2023.2.2,Win32,84.74576271,,,,,,,,,,,,,,,,477.9158,479.2096,479.2096,481.339,return,0.7533,,75.65104167,,,,,,FBP-OG-71.png,0.43,1.2,34,0.5,0,33,33,33,1,,,,,,,,,,,,,,,,,,,,,,,,,,,,,,,,,,,,,,,,
,,,,,V1_013,18,Female,2024-05-14_15h29.51.479,jersey_experiment_5_v1,2023.2.2,Win32,84.74576271,,,,,,,,,,,,,,,,481.3392,482.6332,482.6333,485.1392,return,0.616,,55.98958333,,,,,,FBP-RB-19.png,0.37,1.2,57,0.5,0,34,34,56,1,,,,,,,,,,,,,,,,,,,,,,,,,,,,,,,,,,,,,,,,
,,,,,V1_013,18,Female,2024-05-14_15h29.51.479,jersey_experiment_5_v1,2023.2.2,Win32,84.74576271,,,,,,,,,,,,,,,,485.1394,486.4336,486.4336,488.0335,return,0.6658,,74.86979167,,,,,,FBP-RB-18.png,0.4,1.2,53,0.5,0,35,35,52,1,,,,,,,,,,,,,,,,,,,,,,,,,,,,,,,,,,,,,,,,
,,,,,V1_013,18,Female,2024-05-14_15h29.51.479,jersey_experiment_5_v1,2023.2.2,Win32,84.74576271,,,,,,,,,,,,,,,,488.0338,489.8334,489.8334,491.7041,return,1.2001,,83.46354167,,,,,,FBP-PT-19.png,0.43,1.2,14,1,0,36,36,13,1,,,,,,,,,,,,,,,,,,,,,,,,,,,,,,,,,,,,,,,,
,,,,,V1_013,18,Female,2024-05-14_15h29.51.479,jersey_experiment_5_v1,2023.2.2,Win32,84.74576271,,,,,,,,,,,,,,,,491.7043,492.9984,492.9985,494.5867,return,0.7869,,83.46354167,,,,,,FBP-RB-17.png,0.4,1.2,48,0.5,0,37,37,47,1,,,,,,,,,,,,,,,,,,,,,,,,,,,,,,,,,,,,,,,,
,,,,,V1_013,18,Female,2024-05-14_15h29.51.479,jersey_experiment_5_v1,2023.2.2,Win32,84.74576271,,,,,,,,,,,,,,,,494.5869,495.8808,495.8808,497.8927,return,0.7231,,80.98958333,,,,,,FBP-YG-81.png,0.4,1.2,23,0.5,0,38,38,22,1,,,,,,,,,,,,,,,,,,,,,,,,,,,,,,,,,,,,,,,,
,,,,,V1_013,18,Female,2024-05-14_15h29.51.479,jersey_experiment_5_v1,2023.2.2,Win32,84.74576271,,,,,,,,,,,,,,,,497.8929,499.1868,499.1868,501.7399,return,0.7152,,24.47916667,,,,,,FBP-OG-91.png,0.35,1.2,41,0.5,0,39,39,40,1,,,,,,,,,,,,,,,,,,,,,,,,,,,,,,,,,,,,,,,,
,,,,,V1_013,18,Female,2024-05-14_15h29.51.479,jersey_experiment_5_v1,2023.2.2,Win32,84.74576271,,,,,,,,,,,,,,,,501.74,503.5399,503.5399,506.4695,return,0.6264,,29.94791667,,,,,,FBP-PT-19.png,0.35,1.2,11,1,0,40,40,10,1,,,,,,,,,,,,,,,,,,,,,,,,,,,,,,,,,,,,,,,,
,,,,,V1_013,18,Female,2024-05-14_15h29.51.479,jersey_experiment_5_v1,2023.2.2,Win32,84.74576271,,,,,,,,,,,,,,,,506.4698,507.7636,507.7636,510.5401,return,1.1525,,73.95833333,,,,,,FBP-RB-17.png,0.43,1.2,49,0.5,0,41,41,48,1,,,,,,,,,,,,,,,,,,,,,,,,,,,,,,,,,,,,,,,,
,,,,,V1_013,18,Female,2024-05-14_15h29.51.479,jersey_experiment_5_v1,2023.2.2,Win32,84.74576271,,,,,,,,,,,,,,,,510.5403,511.8343,511.8343,514.0814,return,0.6657,,70.83333333,,,,,,FBP-RB-19.png,0.45,1.2,60,0.5,0,42,42,59,1,,,,,,,,,,,,,,,,,,,,,,,,,,,,,,,,,,,,,,,,
,,,,,V1_013,18,Female,2024-05-14_15h29.51.479,jersey_experiment_5_v1,2023.2.2,Win32,84.74576271,,,,,,,,,,,,,,,,514.0817,515.8815,515.8815,520.5993,return,3.1205,,83.72395833,,,,,,FBP-PT-18.png,0.45,1.2,10,1,0,43,43,9,1,,,,,,,,,,,,,,,,,,,,,,,,,,,,,,,,,,,,,,,,
,,,,,V1_013,18,Female,2024-05-14_15h29.51.479,jersey_experiment_5_v1,2023.2.2,Win32,84.74576271,,,,,,,,,,,,,,,,520.5996,521.8935,521.8935,527.3879,return,2.8094,,30.98958333,,,,,,FBP-RB-18.png,0.35,1.2,51,0.5,0,44,44,50,1,,,,,,,,,,,,,,,,,,,,,,,,,,,,,,,,,,,,,,,,
,,,,,V1_013,18,Female,2024-05-14_15h29.51.479,jersey_experiment_5_v1,2023.2.2,Win32,84.74576271,,,,,,,,,,,,,,,,527.3881,528.6819,528.6819,531.9761,return,2.5764,,24.47916667,,,,,,FBP-RB-17.png,0.35,1.2,46,0.5,0,45,45,45,1,,,,,,,,,,,,,,,,,,,,,,,,,,,,,,,,,,,,,,,,
,,,,,V1_013,18,Female,2024-05-14_15h29.51.479,jersey_experiment_5_v1,2023.2.2,Win32,84.74576271,,,,,,,,,,,,,,,,531.9763,533.2704,533.2704,534.9999,return,0.5793,,80.078125,,,,,,FBP-RB-19.png,0.43,1.2,59,0.5,0,46,46,58,1,,,,,,,,,,,,,,,,,,,,,,,,,,,,,,,,,,,,,,,,
,,,,,V1_013,18,Female,2024-05-14_15h29.51.479,jersey_experiment_5_v1,2023.2.2,Win32,84.74576271,,,,,,,,,,,,,,,,535,536.2939,536.2939,538.2589,return,0.7468,,92.31770833,,,,,,FBP-YG-81.png,0.45,1.2,25,0.5,0,47,47,24,1,,,,,,,,,,,,,,,,,,,,,,,,,,,,,,,,,,,,,,,,
,,,,,V1_013,18,Female,2024-05-14_15h29.51.479,jersey_experiment_5_v1,2023.2.2,Win32,84.74576271,,,,,,,,,,,,,,,,538.2591,539.5529,539.553,541.5059,return,0.6434,,86.45833333,,,,,,FBP-YG-81.png,0.43,1.2,24,0.5,0,48,48,23,1,,,,,,,,,,,,,,,,,,,,,,,,,,,,,,,,,,,,,,,,
,,,,,V1_013,18,Female,2024-05-14_15h29.51.479,jersey_experiment_5_v1,2023.2.2,Win32,84.74576271,,,,,,,,,,,,,,,,541.5061,543.3061,543.3062,545.2592,return,0.6255,,85.80729167,,,,,,FBP-PT-19.png,0.4,1.2,13,1,0,49,49,12,1,,,,,,,,,,,,,,,,,,,,,,,,,,,,,,,,,,,,,,,,
,,,,,V1_013,18,Female,2024-05-14_15h29.51.479,jersey_experiment_5_v1,2023.2.2,Win32,84.74576271,,,,,,,,,,,,,,,,545.2594,546.5532,546.5533,548.5534,return,1.0122,,89.84375,,,,,,FBP-OG-91.png,0.45,1.2,45,0.5,0,50,50,44,1,,,,,,,,,,,,,,,,,,,,,,,,,,,,,,,,,,,,,,,,
,,,,,V1_013,18,Female,2024-05-14_15h29.51.479,jersey_experiment_5_v1,2023.2.2,Win32,84.74576271,,,,,,,,,,,,,,,,548.5536,550.3533,550.3533,552.0359,return,0.6861,,95.83333333,,,,,,FBP-PT-17.png,0.45,1.2,5,1,0,51,51,4,1,,,,,,,,,,,,,,,,,,,,,,,,,,,,,,,,,,,,,,,,
,,,,,V1_013,18,Female,2024-05-14_15h29.51.479,jersey_experiment_5_v1,2023.2.2,Win32,84.74576271,,,,,,,,,,,,,,,,552.0362,553.3298,553.3298,555.577,return,0.5654,,74.47916667,,,,,,FBP-OG-81.png,0.4,1.2,38,0.5,0,52,52,37,1,,,,,,,,,,,,,,,,,,,,,,,,,,,,,,,,,,,,,,,,
,,,,,V1_013,18,Female,2024-05-14_15h29.51.479,jersey_experiment_5_v1,2023.2.2,Win32,84.74576271,,,,,,,,,,,,,,,,555.5773,556.8713,556.8713,559.6125,return,0.6252,,73.56770833,,,,,,FBP-RB-18.png,0.37,1.2,52,0.5,0,53,53,51,1,,,,,,,,,,,,,,,,,,,,,,,,,,,,,,,,,,,,,,,,
,,,,,V1_013,18,Female,2024-05-14_15h29.51.479,jersey_experiment_5_v1,2023.2.2,Win32,84.74576271,,,,,,,,,,,,,,,,559.6127,560.9068,560.9068,562.9655,return,0.6162,,77.47395833,,,,,,FBP-YG-71.png,0.43,1.2,19,0.5,0,54,54,18,1,,,,,,,,,,,,,,,,,,,,,,,,,,,,,,,,,,,,,,,,
,,,,,V1_013,18,Female,2024-05-14_15h29.51.479,jersey_experiment_5_v1,2023.2.2,Win32,84.74576271,,,,,,,,,,,,,,,,562.9657,564.7657,564.7657,566.2481,return,0.5787,,77.34375,,,,,,FBP-PT-18.png,0.43,1.2,9,1,0,55,55,8,1,,,,,,,,,,,,,,,,,,,,,,,,,,,,,,,,,,,,,,,,
,,,,,V1_013,18,Female,2024-05-14_15h29.51.479,jersey_experiment_5_v1,2023.2.2,Win32,84.74576271,,,,,,,,,,,,,,,,566.2483,567.5421,567.5421,569.9423,return,0.802,,88.28125,,,,,,FBP-RB-17.png,0.45,1.2,50,0.5,0,56,56,49,1,,,,,,,,,,,,,,,,,,,,,,,,,,,,,,,,,,,,,,,,
,,,,,V1_013,18,Female,2024-05-14_15h29.51.479,jersey_experiment_5_v1,2023.2.2,Win32,84.74576271,,,,,,,,,,,,,,,,569.9425,571.2364,571.2365,573.5896,return,0.887,,59.11458333,,,,,,FBP-OG-91.png,0.37,1.2,42,0.5,0,57,57,41,1,,,,,,,,,,,,,,,,,,,,,,,,,,,,,,,,,,,,,,,,
,,,,,V1_013,18,Female,2024-05-14_15h29.51.479,jersey_experiment_5_v1,2023.2.2,Win32,84.74576271,,,,,,,,,,,,,,,,573.5898,574.8835,574.8836,580.178,return,3.314,,51.30208333,,,,,,FBP-YG-81.png,0.37,1.2,22,0.5,0,58,58,21,1,,,,,,,,,,,,,,,,,,,,,,,,,,,,,,,,,,,,,,,,
,,,,,V1_013,18,Female,2024-05-14_15h29.51.479,jersey_experiment_5_v1,2023.2.2,Win32,84.74576271,,,,,,,,,,,,,,,,580.1782,581.4721,581.4721,585.1545,return,0.9019,,51.30208333,,,,,,FBP-RB-19.png,0.4,1.2,58,0.5,0,59,59,57,1,,,,,,,,,,,,,,,,,,,,,,,,,,,,,,,,,,,,,,,,
,,,,,V1_013,18,Female,2024-05-14_15h29.51.479,jersey_experiment_5_v1,2023.2.2,Win32,84.74576271,,,,,,,,,,,,,,,,,,,,,,,,,,,,,,,,,,,,,,,585.155,705.1592,,,,,,,,,,,,,,,,,,,,,,,,,,,,,,,,,,,,,,
,,,,,V1_013,18,Female,2024-05-14_15h29.51.479,jersey_experiment_5_v1,2023.2.2,Win32,84.74576271,,,,,,,,,,,,,,,,,,,,,,,,,,,,,,,,,,,,,,,,,705.1593,714.642,return,9.4764,,,,,,,,,,,,,,,,,,,,,,,,,,,,,,,,,,
,,,,,V1_013,18,Female,2024-05-14_15h29.51.479,jersey_experiment_5_v1,2023.2.2,Win32,84.74576271,,,,,,,,,,,,,,,,714.648,716.4416,716.4416,718.1003,return,0.7914,,74.47916667,,,,,,FBP-YG-18.png,0.43,1.2,24,1,,,,,,,,,,,,,0,0,0,23,1,,,,,,,,,,,,,,,,,,,,,,,,,,,,
,,,,,V1_013,18,Female,2024-05-14_15h29.51.479,jersey_experiment_5_v1,2023.2.2,Win32,84.74576271,,,,,,,,,,,,,,,,718.1008,719.9008,719.9008,721.1711,return,0.7949,,83.59375,,,,,,FBP-YG-18.png,0.45,1.2,25,1,,,,,,,,,,,,,0,1,1,24,1,,,,,,,,,,,,,,,,,,,,,,,,,,,,
,,,,,V1_013,18,Female,2024-05-14_15h29.51.479,jersey_experiment_5_v1,2023.2.2,Win32,84.74576271,,,,,,,,,,,,,,,,721.1715,722.9714,722.9714,724.9713,return,1.3511,,24.08854167,,,,,,FBP-YG-17.png,0.37,1.2,17,1,,,,,,,,,,,,,0,2,2,16,1,,,,,,,,,,,,,,,,,,,,,,,,,,,,
,,,,,V1_013,18,Female,2024-05-14_15h29.51.479,jersey_experiment_5_v1,2023.2.2,Win32,84.74576271,,,,,,,,,,,,,,,,724.9715,726.7714,726.7714,728.1832,return,0.6733,,79.42708333,,,,,,FBP-RB-71.png,0.45,1.2,50,1,,,,,,,,,,,,,0,3,3,49,1,,,,,,,,,,,,,,,,,,,,,,,,,,,,
,,,,,V1_013,18,Female,2024-05-14_15h29.51.479,jersey_experiment_5_v1,2023.2.2,Win32,84.74576271,,,,,,,,,,,,,,,,728.1835,729.9833,729.9833,731.2422,return,0.6121,,84.24479167,,,,,,FBP-YG-19.png,0.43,1.2,29,1,,,,,,,,,,,,,0,4,4,28,1,,,,,,,,,,,,,,,,,,,,,,,,,,,,
,,,,,V1_013,18,Female,2024-05-14_15h29.51.479,jersey_experiment_5_v1,2023.2.2,Win32,84.74576271,,,,,,,,,,,,,,,,731.2425,733.0422,733.0422,734.713,return,0.5895,,26.82291667,,,,,,FBP-OG-19.png,0.37,1.2,42,1,,,,,,,,,,,,,0,5,5,41,1,,,,,,,,,,,,,,,,,,,,,,,,,,,,
,,,,,V1_013,18,Female,2024-05-14_15h29.51.479,jersey_experiment_5_v1,2023.2.2,Win32,84.74576271,,,,,,,,,,,,,,,,734.7132,736.513,736.513,738.0895,return,0.6119,,22.91666667,,,,,,FBP-RB-71.png,0.35,1.2,46,1,,,,,,,,,,,,,0,6,6,45,1,,,,,,,,,,,,,,,,,,,,,,,,,,,,
,,,,,V1_013,18,Female,2024-05-14_15h29.51.479,jersey_experiment_5_v1,2023.2.2,Win32,84.74576271,,,,,,,,,,,,,,,,738.0898,739.8896,739.8896,741.7719,return,0.8104,,83.72395833,,,,,,FBP-RB-81.png,0.45,1.2,55,1,,,,,,,,,,,,,0,7,7,54,1,,,,,,,,,,,,,,,,,,,,,,,,,,,,
,,,,,V1_013,18,Female,2024-05-14_15h29.51.479,jersey_experiment_5_v1,2023.2.2,Win32,84.74576271,,,,,,,,,,,,,,,,741.7721,743.572,743.572,745.6898,return,0.9898,,69.921875,,,,,,FBP-YG-19.png,0.37,1.2,27,1,,,,,,,,,,,,,0,8,8,26,1,,,,,,,,,,,,,,,,,,,,,,,,,,,,
,,,,,V1_013,18,Female,2024-05-14_15h29.51.479,jersey_experiment_5_v1,2023.2.2,Win32,84.74576271,,,,,,,,,,,,,,,,745.6901,747.4899,747.49,748.6899,return,0.606,,75,,,,,,FBP-YG-18.png,0.4,1.2,23,1,,,,,,,,,,,,,0,9,9,22,1,,,,,,,,,,,,,,,,,,,,,,,,,,,,
,,,,,V1_013,18,Female,2024-05-14_15h29.51.479,jersey_experiment_5_v1,2023.2.2,Win32,84.74576271,,,,,,,,,,,,,,,,748.69,750.4902,750.4902,752.1725,return,1.1395,,86.84895833,,,,,,FBP-YG-17.png,0.45,1.2,20,1,,,,,,,,,,,,,0,10,10,19,1,,,,,,,,,,,,,,,,,,,,,,,,,,,,
,,,,,V1_013,18,Female,2024-05-14_15h29.51.479,jersey_experiment_5_v1,2023.2.2,Win32,84.74576271,,,,,,,,,,,,,,,,752.1727,753.9723,753.9723,756.4666,return,1.4412,,21.484375,,,,,,FBP-RB-91.png,0.35,1.2,56,1,,,,,,,,,,,,,0,11,11,55,1,,,,,,,,,,,,,,,,,,,,,,,,,,,,
,,,,,V1_013,18,Female,2024-05-14_15h29.51.479,jersey_experiment_5_v1,2023.2.2,Win32,84.74576271,,,,,,,,,,,,,,,,756.4669,758.2667,758.2668,760.1491,return,1.0498,,69.921875,,,,,,FBP-RB-81.png,0.4,1.2,53,1,,,,,,,,,,,,,0,12,12,52,1,,,,,,,,,,,,,,,,,,,,,,,,,,,,
,,,,,V1_013,18,Female,2024-05-14_15h29.51.479,jersey_experiment_5_v1,2023.2.2,Win32,84.74576271,,,,,,,,,,,,,,,,760.1494,761.9494,761.9494,763.7846,return,1.1997,,94.40104167,,,,,,FBP-OG-19.png,0.45,1.2,45,1,,,,,,,,,,,,,0,13,13,44,1,,,,,,,,,,,,,,,,,,,,,,,,,,,,
,,,,,V1_013,18,Female,2024-05-14_15h29.51.479,jersey_experiment_5_v1,2023.2.2,Win32,84.74576271,,,,,,,,,,,,,,,,763.7849,765.5845,765.5845,768.82,return,0.7237,,66.40625,,,,,,FBP-RB-71.png,0.4,1.2,48,1,,,,,,,,,,,,,0,14,14,47,1,,,,,,,,,,,,,,,,,,,,,,,,,,,,
,,,,,V1_013,18,Female,2024-05-14_15h29.51.479,jersey_experiment_5_v1,2023.2.2,Win32,84.74576271,,,,,,,,,,,,,,,,768.8203,770.6202,770.6202,772.2436,return,0.9242,,27.86458333,,,,,,FBP-YG-18.png,0.37,1.2,22,1,,,,,,,,,,,,,0,15,15,21,1,,,,,,,,,,,,,,,,,,,,,,,,,,,,
,,,,,V1_013,18,Female,2024-05-14_15h29.51.479,jersey_experiment_5_v1,2023.2.2,Win32,84.74576271,,,,,,,,,,,,,,,,772.2438,774.0438,774.0438,775.7145,return,0.7255,,77.47395833,,,,,,FBP-RB-71.png,0.43,1.2,49,1,,,,,,,,,,,,,0,16,16,48,1,,,,,,,,,,,,,,,,,,,,,,,,,,,,
,,,,,V1_013,18,Female,2024-05-14_15h29.51.479,jersey_experiment_5_v1,2023.2.2,Win32,84.74576271,,,,,,,,,,,,,,,,775.7147,777.5145,777.5145,778.938,return,0.7426,,94.27083333,,,,,,FBP-OG-18.png,0.45,1.2,40,1,,,,,,,,,,,,,0,17,17,39,1,,,,,,,,,,,,,,,,,,,,,,,,,,,,
,,,,,V1_013,18,Female,2024-05-14_15h29.51.479,jersey_experiment_5_v1,2023.2.2,Win32,84.74576271,,,,,,,,,,,,,,,,778.9382,780.7381,780.7381,782.197,return,0.6966,,72.13541667,,,,,,FBP-OG-18.png,0.4,1.2,38,1,,,,,,,,,,,,,0,18,18,37,1,,,,,,,,,,,,,,,,,,,,,,,,,,,,
,,,,,V1_013,18,Female,2024-05-14_15h29.51.479,jersey_experiment_5_v1,2023.2.2,Win32,84.74576271,,,,,,,,,,,,,,,,782.1972,783.9972,783.9972,785.7148,return,0.8995,,96.74479167,,,,,,FBP-OG-17.png,0.45,1.2,35,1,,,,,,,,,,,,,0,19,19,34,1,,,,,,,,,,,,,,,,,,,,,,,,,,,,
,,,,,V1_013,18,Female,2024-05-14_15h29.51.479,jersey_experiment_5_v1,2023.2.2,Win32,84.74576271,,,,,,,,,,,,,,,,785.715,787.5147,787.5147,789.6207,return,1.3111,,86.84895833,,,,,,FBP-OG-18.png,0.43,1.2,39,1,,,,,,,,,,,,,0,20,20,38,1,,,,,,,,,,,,,,,,,,,,,,,,,,,,
,,,,,V1_013,18,Female,2024-05-14_15h29.51.479,jersey_experiment_5_v1,2023.2.2,Win32,84.74576271,,,,,,,,,,,,,,,,789.6209,790.9151,790.9151,797.2446,return,0.7427,,60.15625,,,,,,FBP-PT-71.png,0.37,1.2,2,0.5,,,,,,,,,,,,,0,21,21,1,1,,,,,,,,,,,,,,,,,,,,,,,,,,,,
,,,,,V1_013,18,Female,2024-05-14_15h29.51.479,jersey_experiment_5_v1,2023.2.2,Win32,84.74576271,,,,,,,,,,,,,,,,797.2449,799.0447,799.0448,801.2094,return,1.1869,,62.36979167,,,,,,FBP-OG-19.png,0.43,1.2,44,1,,,,,,,,,,,,,0,22,22,43,1,,,,,,,,,,,,,,,,,,,,,,,,,,,,
,,,,,V1_013,18,Female,2024-05-14_15h29.51.479,jersey_experiment_5_v1,2023.2.2,Win32,84.74576271,,,,,,,,,,,,,,,,801.2096,802.5035,802.5035,804.7273,return,0.885,,72.52604167,,,,,,FBP-PT-71.png,0.43,1.2,4,0.5,,,,,,,,,,,,,0,23,23,3,1,,,,,,,,,,,,,,,,,,,,,,,,,,,,
,,,,,V1_013,18,Female,2024-05-14_15h29.51.479,jersey_experiment_5_v1,2023.2.2,Win32,84.74576271,,,,,,,,,,,,,,,,804.7276,806.5272,806.5272,811.9392,return,2.9811,,80.59895833,,,,,,FBP-OG-17.png,0.43,1.2,34,1,,,,,,,,,,,,,0,24,24,33,1,,,,,,,,,,,,,,,,,,,,,,,,,,,,
,,,,,V1_013,18,Female,2024-05-14_15h29.51.479,jersey_experiment_5_v1,2023.2.2,Win32,84.74576271,,,,,,,,,,,,,,,,811.9394,813.7392,813.7392,815.4923,return,1.0496,,87.36979167,,,,,,FBP-YG-19.png,0.45,1.2,30,1,,,,,,,,,,,,,0,25,25,29,1,,,,,,,,,,,,,,,,,,,,,,,,,,,,
,,,,,V1_013,18,Female,2024-05-14_15h29.51.479,jersey_experiment_5_v1,2023.2.2,Win32,84.74576271,,,,,,,,,,,,,,,,815.4925,816.7863,816.7863,818.9511,return,0.8358,,68.09895833,,,,,,FBP-PT-91.png,0.4,1.2,13,0.5,,,,,,,,,,,,,0,26,26,12,1,,,,,,,,,,,,,,,,,,,,,,,,,,,,
,,,,,V1_013,18,Female,2024-05-14_15h29.51.479,jersey_experiment_5_v1,2023.2.2,Win32,84.74576271,,,,,,,,,,,,,,,,818.9512,820.7513,820.7513,822.4219,return,0.651,,24.47916667,,,,,,FBP-YG-19.png,0.35,1.2,26,1,,,,,,,,,,,,,0,27,27,25,1,,,,,,,,,,,,,,,,,,,,,,,,,,,,
,,,,,V1_013,18,Female,2024-05-14_15h29.51.479,jersey_experiment_5_v1,2023.2.2,Win32,84.74576271,,,,,,,,,,,,,,,,822.4221,824.2221,824.2221,826.0691,return,0.5915,,32.94270833,,,,,,FBP-RB-81.png,0.37,1.2,52,1,,,,,,,,,,,,,0,28,28,51,1,,,,,,,,,,,,,,,,,,,,,,,,,,,,
,,,,,V1_013,18,Female,2024-05-14_15h29.51.479,jersey_experiment_5_v1,2023.2.2,Win32,84.74576271,,,,,,,,,,,,,,,,826.0692,827.3633,827.3634,829.1398,return,0.6884,,72.52604167,,,,,,FBP-PT-71.png,0.45,1.2,5,0.5,,,,,,,,,,,,,0,29,29,4,1,,,,,,,,,,,,,,,,,,,,,,,,,,,,
,,,,,V1_013,18,Female,2024-05-14_15h29.51.479,jersey_experiment_5_v1,2023.2.2,Win32,84.74576271,,,,,,,,,,,,,,,,829.1399,830.4339,830.4339,832.5635,return,0.7478,,81.90104167,,,,,,FBP-PT-91.png,0.43,1.2,14,0.5,,,,,,,,,,,,,0,30,30,13,1,,,,,,,,,,,,,,,,,,,,,,,,,,,,
,,,,,V1_013,18,Female,2024-05-14_15h29.51.479,jersey_experiment_5_v1,2023.2.2,Win32,84.74576271,,,,,,,,,,,,,,,,832.5637,833.8577,833.8578,835.7165,return,0.5444,,82.94270833,,,,,,FBP-PT-91.png,0.45,1.2,15,0.5,,,,,,,,,,,,,0,31,31,14,1,,,,,,,,,,,,,,,,,,,,,,,,,,,,
,,,,,V1_013,18,Female,2024-05-14_15h29.51.479,jersey_experiment_5_v1,2023.2.2,Win32,84.74576271,,,,,,,,,,,,,,,,835.7167,837.5165,837.5165,838.999,return,0.6248,,71.61458333,,,,,,FBP-YG-19.png,0.4,1.2,28,1,,,,,,,,,,,,,0,32,32,27,1,,,,,,,,,,,,,,,,,,,,,,,,,,,,
,,,,,V1_013,18,Female,2024-05-14_15h29.51.479,jersey_experiment_5_v1,2023.2.2,Win32,84.74576271,,,,,,,,,,,,,,,,838.9991,840.7991,840.7991,846.3875,return,2.8396,,55.72916667,,,,,,FBP-OG-18.png,0.35,1.2,36,1,,,,,,,,,,,,,0,33,33,35,1,,,,,,,,,,,,,,,,,,,,,,,,,,,,
,,,,,V1_013,18,Female,2024-05-14_15h29.51.479,jersey_experiment_5_v1,2023.2.2,Win32,84.74576271,,,,,,,,,,,,,,,,846.3878,847.6816,847.6816,850.5642,return,1.2178,,40.88541667,,,,,,FBP-PT-81.png,0.4,1.2,8,0.5,,,,,,,,,,,,,0,34,34,7,1,,,,,,,,,,,,,,,,,,,,,,,,,,,,
,,,,,V1_013,18,Female,2024-05-14_15h29.51.479,jersey_experiment_5_v1,2023.2.2,Win32,84.74576271,,,,,,,,,,,,,,,,850.5645,851.8583,851.8583,853.8113,return,0.6538,,25.91145833,,,,,,FBP-PT-91.png,0.35,1.2,11,0.5,,,,,,,,,,,,,0,35,35,10,1,,,,,,,,,,,,,,,,,,,,,,,,,,,,
,,,,,V1_013,18,Female,2024-05-14_15h29.51.479,jersey_experiment_5_v1,2023.2.2,Win32,84.74576271,,,,,,,,,,,,,,,,853.8114,855.6114,855.6114,857.0349,return,0.8137,,24.609375,,,,,,FBP-RB-81.png,0.35,1.2,51,1,,,,,,,,,,,,,0,36,36,50,1,,,,,,,,,,,,,,,,,,,,,,,,,,,,
,,,,,V1_013,18,Female,2024-05-14_15h29.51.479,jersey_experiment_5_v1,2023.2.2,Win32,84.74576271,,,,,,,,,,,,,,,,857.0351,858.8349,858.835,861.2351,return,0.8168,,65.75520833,,,,,,FBP-OG-19.png,0.4,1.2,43,1,,,,,,,,,,,,,0,37,37,42,1,,,,,,,,,,,,,,,,,,,,,,,,,,,,
,,,,,V1_013,18,Female,2024-05-14_15h29.51.479,jersey_experiment_5_v1,2023.2.2,Win32,84.74576271,,,,,,,,,,,,,,,,861.2353,863.0353,863.0353,864.9528,return,0.7776,,26.82291667,,,,,,FBP-YG-18.png,0.35,1.2,21,1,,,,,,,,,,,,,0,38,38,20,1,,,,,,,,,,,,,,,,,,,,,,,,,,,,
,,,,,V1_013,18,Female,2024-05-14_15h29.51.479,jersey_experiment_5_v1,2023.2.2,Win32,84.74576271,,,,,,,,,,,,,,,,864.9529,866.753,866.753,869.5296,return,1.5058,,75.91145833,,,,,,FBP-RB-91.png,0.43,1.2,59,1,,,,,,,,,,,,,0,39,39,58,1,,,,,,,,,,,,,,,,,,,,,,,,,,,,
,,,,,V1_013,18,Female,2024-05-14_15h29.51.479,jersey_experiment_5_v1,2023.2.2,Win32,84.74576271,,,,,,,,,,,,,,,,869.5297,871.3295,871.3295,873.3178,return,0.9199,,31.11979167,,,,,,FBP-OG-17.png,0.35,1.2,31,1,,,,,,,,,,,,,0,40,40,30,1,,,,,,,,,,,,,,,,,,,,,,,,,,,,
,,,,,V1_013,18,Female,2024-05-14_15h29.51.479,jersey_experiment_5_v1,2023.2.2,Win32,84.74576271,,,,,,,,,,,,,,,,873.318,874.612,874.612,878.6475,return,2.1774,,39.58333333,,,,,,FBP-PT-91.png,0.37,1.2,12,0.5,,,,,,,,,,,,,0,41,41,11,1,,,,,,,,,,,,,,,,,,,,,,,,,,,,
,,,,,V1_013,18,Female,2024-05-14_15h29.51.479,jersey_experiment_5_v1,2023.2.2,Win32,84.74576271,,,,,,,,,,,,,,,,878.6477,880.4477,880.4477,882.4594,return,0.6685,,31.77083333,,,,,,FBP-OG-17.png,0.37,1.2,32,1,,,,,,,,,,,,,0,42,42,31,1,,,,,,,,,,,,,,,,,,,,,,,,,,,,
,,,,,V1_013,18,Female,2024-05-14_15h29.51.479,jersey_experiment_5_v1,2023.2.2,Win32,84.74576271,,,,,,,,,,,,,,,,882.4596,884.2596,884.2596,885.9418,return,0.9689,,82.03125,,,,,,FBP-RB-91.png,0.45,1.2,60,1,,,,,,,,,,,,,0,43,43,59,1,,,,,,,,,,,,,,,,,,,,,,,,,,,,
,,,,,V1_013,18,Female,2024-05-14_15h29.51.479,jersey_experiment_5_v1,2023.2.2,Win32,84.74576271,,,,,,,,,,,,,,,,885.942,887.2358,887.2358,889.4128,return,0.9115,,77.86458333,,,,,,FBP-PT-81.png,0.43,1.2,9,0.5,,,,,,,,,,,,,0,44,44,8,1,,,,,,,,,,,,,,,,,,,,,,,,,,,,
,,,,,V1_013,18,Female,2024-05-14_15h29.51.479,jersey_experiment_5_v1,2023.2.2,Win32,84.74576271,,,,,,,,,,,,,,,,889.413,891.2126,891.2126,892.5656,return,0.6044,,72.52604167,,,,,,FBP-RB-91.png,0.4,1.2,58,1,,,,,,,,,,,,,0,45,45,57,1,,,,,,,,,,,,,,,,,,,,,,,,,,,,
,,,,,V1_013,18,Female,2024-05-14_15h29.51.479,jersey_experiment_5_v1,2023.2.2,Win32,84.74576271,,,,,,,,,,,,,,,,892.5659,894.3656,894.3656,896.2952,return,0.648,,42.83854167,,,,,,FBP-RB-71.png,0.37,1.2,47,1,,,,,,,,,,,,,0,46,46,46,1,,,,,,,,,,,,,,,,,,,,,,,,,,,,
,,,,,V1_013,18,Female,2024-05-14_15h29.51.479,jersey_experiment_5_v1,2023.2.2,Win32,84.74576271,,,,,,,,,,,,,,,,896.2955,898.0952,898.0953,900.1778,return,1.0909,,70.3125,,,,,,FBP-YG-17.png,0.4,1.2,18,1,,,,,,,,,,,,,0,47,47,17,1,,,,,,,,,,,,,,,,,,,,,,,,,,,,
,,,,,V1_013,18,Female,2024-05-14_15h29.51.479,jersey_experiment_5_v1,2023.2.2,Win32,84.74576271,,,,,,,,,,,,,,,,900.1779,901.4717,901.4717,903.26,return,0.693,,27.47395833,,,,,,FBP-PT-71.png,0.35,1.2,1,0.5,,,,,,,,,,,,,0,48,48,0,1,,,,,,,,,,,,,,,,,,,,,,,,,,,,
,,,,,V1_013,18,Female,2024-05-14_15h29.51.479,jersey_experiment_5_v1,2023.2.2,Win32,84.74576271,,,,,,,,,,,,,,,,903.2601,905.0605,905.0605,907.3309,return,1.3817,,77.08333333,,,,,,FBP-YG-17.png,0.43,1.2,19,1,,,,,,,,,,,,,0,49,49,18,1,,,,,,,,,,,,,,,,,,,,,,,,,,,,
,,,,,V1_013,18,Female,2024-05-14_15h29.51.479,jersey_experiment_5_v1,2023.2.2,Win32,84.74576271,,,,,,,,,,,,,,,,907.3311,908.6251,908.6251,917.6018,return,2.4908,,30.20833333,,,,,,FBP-PT-81.png,0.37,1.2,7,0.5,,,,,,,,,,,,,0,50,50,6,1,,,,,,,,,,,,,,,,,,,,,,,,,,,,
,,,,,V1_013,18,Female,2024-05-14_15h29.51.479,jersey_experiment_5_v1,2023.2.2,Win32,84.74576271,,,,,,,,,,,,,,,,917.602,919.4019,919.4019,921.896,return,0.9288,,26.82291667,,,,,,FBP-YG-17.png,0.35,1.2,16,1,,,,,,,,,,,,,0,51,51,15,1,,,,,,,,,,,,,,,,,,,,,,,,,,,,
,,,,,V1_013,18,Female,2024-05-14_15h29.51.479,jersey_experiment_5_v1,2023.2.2,Win32,84.74576271,,,,,,,,,,,,,,,,921.8961,923.6963,923.6963,926.0375,return,0.593,,41.66666667,,,,,,FBP-RB-91.png,0.37,1.2,57,1,,,,,,,,,,,,,0,52,52,56,1,,,,,,,,,,,,,,,,,,,,,,,,,,,,
,,,,,V1_013,18,Female,2024-05-14_15h29.51.479,jersey_experiment_5_v1,2023.2.2,Win32,84.74576271,,,,,,,,,,,,,,,,926.0377,927.3314,927.3314,928.8728,return,0.6352,,74.73958333,,,,,,FBP-PT-81.png,0.45,1.2,10,0.5,,,,,,,,,,,,,0,53,53,9,1,,,,,,,,,,,,,,,,,,,,,,,,,,,,
,,,,,V1_013,18,Female,2024-05-14_15h29.51.479,jersey_experiment_5_v1,2023.2.2,Win32,84.74576271,,,,,,,,,,,,,,,,928.873,930.6728,930.6728,931.9789,return,0.7539,,65.49479167,,,,,,FBP-OG-17.png,0.4,1.2,33,1,,,,,,,,,,,,,0,54,54,32,1,,,,,,,,,,,,,,,,,,,,,,,,,,,,
,,,,,V1_013,18,Female,2024-05-14_15h29.51.479,jersey_experiment_5_v1,2023.2.2,Win32,84.74576271,,,,,,,,,,,,,,,,931.979,933.7788,933.7788,936.4495,return,1.1823,,80.98958333,,,,,,FBP-RB-81.png,0.43,1.2,54,1,,,,,,,,,,,,,0,55,55,53,1,,,,,,,,,,,,,,,,,,,,,,,,,,,,
,,,,,V1_013,18,Female,2024-05-14_15h29.51.479,jersey_experiment_5_v1,2023.2.2,Win32,84.74576271,,,,,,,,,,,,,,,,936.4497,938.2496,938.2496,941.7793,return,2.2293,,27.99479167,,,,,,FBP-OG-19.png,0.35,1.2,41,1,,,,,,,,,,,,,0,56,56,40,1,,,,,,,,,,,,,,,,,,,,,,,,,,,,
,,,,,V1_013,18,Female,2024-05-14_15h29.51.479,jersey_experiment_5_v1,2023.2.2,Win32,84.74576271,,,,,,,,,,,,,,,,941.7794,943.0733,943.0733,945.9087,return,1.2971,,30.33854167,,,,,,FBP-PT-71.png,0.4,1.2,3,0.5,,,,,,,,,,,,,0,57,57,2,1,,,,,,,,,,,,,,,,,,,,,,,,,,,,
,,,,,V1_013,18,Female,2024-05-14_15h29.51.479,jersey_experiment_5_v1,2023.2.2,Win32,84.74576271,,,,,,,,,,,,,,,,945.9089,947.7088,947.7088,949.2736,return,0.8607,,39.32291667,,,,,,FBP-OG-18.png,0.37,1.2,37,1,,,,,,,,,,,,,0,58,58,36,1,,,,,,,,,,,,,,,,,,,,,,,,,,,,
,,,,,V1_013,18,Female,2024-05-14_15h29.51.479,jersey_experiment_5_v1,2023.2.2,Win32,84.74576271,,,,,,,,,,,,,,,,949.2738,950.5677,950.5677,953.9913,return,0.7556,,22.39583333,,,,,,FBP-PT-81.png,0.35,1.2,6,0.5,,,,,,,,,,,,,0,59,59,5,1,,,,,,,,,,,,,,,,,,,,,,,,,,,,
,,,,,V1_013,18,Female,2024-05-14_15h29.51.479,jersey_experiment_5_v1,2023.2.2,Win32,84.74576271,,,,,,,,,,,,,,,,953.9932,955.7914,955.7914,957.415,return,0.801,,76.69270833,,,,,,FBP-YG-81.png,0.43,1.2,24,1,,,,,,,,,,,,,,,,,,0,0,0,23,1,,,,,,,,,,,,,,,,,,,,,,,
,,,,,V1_013,18,Female,2024-05-14_15h29.51.479,jersey_experiment_5_v1,2023.2.2,Win32,84.74576271,,,,,,,,,,,,,,,,957.4155,958.7093,958.7093,960.8034,return,0.6771,,24.86979167,,,,,,FBP-PT-18.png,0.35,1.2,6,0.5,,,,,,,,,,,,,,,,,,0,1,1,5,1,,,,,,,,,,,,,,,,,,,,,,,
,,,,,V1_013,18,Female,2024-05-14_15h29.51.479,jersey_experiment_5_v1,2023.2.2,Win32,84.74576271,,,,,,,,,,,,,,,,960.8035,962.0976,962.0976,964.2975,return,0.6591,,83.59375,,,,,,FBP-PT-17.png,0.45,1.2,5,0.5,,,,,,,,,,,,,,,,,,0,2,2,4,1,,,,,,,,,,,,,,,,,,,,,,,
,,,,,V1_013,18,Female,2024-05-14_15h29.51.479,jersey_experiment_5_v1,2023.2.2,Win32,84.74576271,,,,,,,,,,,,,,,,964.2978,966.0979,966.0979,967.3214,return,0.7532,,89.58333333,,,,,,FBP-RB-17.png,0.45,1.2,50,1,,,,,,,,,,,,,,,,,,0,3,3,49,1,,,,,,,,,,,,,,,,,,,,,,,
,,,,,V1_013,18,Female,2024-05-14_15h29.51.479,jersey_experiment_5_v1,2023.2.2,Win32,84.74576271,,,,,,,,,,,,,,,,967.3215,969.1213,969.1214,970.3449,return,0.5989,,90.625,,,,,,FBP-RB-19.png,0.45,1.2,60,1,,,,,,,,,,,,,,,,,,0,4,4,59,1,,,,,,,,,,,,,,,,,,,,,,,
,,,,,V1_013,18,Female,2024-05-14_15h29.51.479,jersey_experiment_5_v1,2023.2.2,Win32,84.74576271,,,,,,,,,,,,,,,,970.3452,972.145,972.145,974.4862,return,0.7337,,71.875,,,,,,FBP-OG-71.png,0.37,1.2,32,1,,,,,,,,,,,,,,,,,,0,5,5,31,1,,,,,,,,,,,,,,,,,,,,,,,
,,,,,V1_013,18,Female,2024-05-14_15h29.51.479,jersey_experiment_5_v1,2023.2.2,Win32,84.74576271,,,,,,,,,,,,,,,,974.4865,975.7802,975.7803,978.0392,return,0.7421,,67.05729167,,,,,,FBP-PT-19.png,0.4,1.2,13,0.5,,,,,,,,,,,,,,,,,,0,6,6,12,1,,,,,,,,,,,,,,,,,,,,,,,
,,,,,V1_013,18,Female,2024-05-14_15h29.51.479,jersey_experiment_5_v1,2023.2.2,Win32,84.74576271,,,,,,,,,,,,,,,,978.0395,979.3336,979.3336,981.5099,return,0.8156,,28.64583333,,,,,,FBP-PT-19.png,0.35,1.2,11,0.5,,,,,,,,,,,,,,,,,,0,7,7,10,1,,,,,,,,,,,,,,,,,,,,,,,
,,,,,V1_013,18,Female,2024-05-14_15h29.51.479,jersey_experiment_5_v1,2023.2.2,Win32,84.74576271,,,,,,,,,,,,,,,,981.5102,983.3101,983.3101,986.7574,return,2.44,,41.015625,,,,,,FBP-OG-81.png,0.4,1.2,38,1,,,,,,,,,,,,,,,,,,0,8,8,37,1,,,,,,,,,,,,,,,,,,,,,,,
,,,,,V1_013,18,Female,2024-05-14_15h29.51.479,jersey_experiment_5_v1,2023.2.2,Win32,84.74576271,,,,,,,,,,,,,,,,986.7576,988.5574,988.5574,989.8632,return,0.6262,,23.828125,,,,,,FBP-RB-18.png,0.35,1.2,51,1,,,,,,,,,,,,,,,,,,0,9,9,50,1,,,,,,,,,,,,,,,,,,,,,,,
,,,,,V1_013,18,Female,2024-05-14_15h29.51.479,jersey_experiment_5_v1,2023.2.2,Win32,84.74576271,,,,,,,,,,,,,,,,989.8636,991.6633,991.6633,992.8868,return,0.601,,23.828125,,,,,,FBP-OG-91.png,0.37,1.2,42,1,,,,,,,,,,,,,,,,,,0,10,10,41,1,,,,,,,,,,,,,,,,,,,,,,,
,,,,,V1_013,18,Female,2024-05-14_15h29.51.479,jersey_experiment_5_v1,2023.2.2,Win32,84.74576271,,,,,,,,,,,,,,,,992.8869,994.687,994.687,996.134,return,0.6959,,75.78125,,,,,,FBP-OG-81.png,0.43,1.2,39,1,,,,,,,,,,,,,,,,,,0,11,11,38,1,,,,,,,,,,,,,,,,,,,,,,,
,,,,,V1_013,18,Female,2024-05-14_15h29.51.479,jersey_experiment_5_v1,2023.2.2,Win32,84.74576271,,,,,,,,,,,,,,,,996.1341,997.9341,997.9342,999.1224,return,0.6294,,79.03645833,,,,,,FBP-RB-18.png,0.45,1.2,55,1,,,,,,,,,,,,,,,,,,0,12,12,54,1,,,,,,,,,,,,,,,,,,,,,,,
,,,,,V1_013,18,Female,2024-05-14_15h29.51.479,jersey_experiment_5_v1,2023.2.2,Win32,84.74576271,,,,,,,,,,,,,,,,999.1226,1000.9224,1000.9224,1002.5696,return,1.0115,,76.5625,,,,,,FBP-RB-17.png,0.4,1.2,48,1,,,,,,,,,,,,,,,,,,0,13,13,47,1,,,,,,,,,,,,,,,,,,,,,,,
,,,,,V1_013,18,Female,2024-05-14_15h29.51.479,jersey_experiment_5_v1,2023.2.2,Win32,84.74576271,,,,,,,,,,,,,,,,1002.5697,1003.8639,1003.8639,1006.0873,return,0.5909,,66.796875,,,,,,FBP-PT-18.png,0.4,1.2,8,0.5,,,,,,,,,,,,,,,,,,0,14,14,7,1,,,,,,,,,,,,,,,,,,,,,,,
,,,,,V1_013,18,Female,2024-05-14_15h29.51.479,jersey_experiment_5_v1,2023.2.2,Win32,84.74576271,,,,,,,,,,,,,,,,1006.0874,1007.8874,1007.8874,1009.6523,return,0.9448,,29.03645833,,,,,,FBP-RB-18.png,0.37,1.2,52,1,,,,,,,,,,,,,,,,,,0,15,15,51,1,,,,,,,,,,,,,,,,,,,,,,,
,,,,,V1_013,18,Female,2024-05-14_15h29.51.479,jersey_experiment_5_v1,2023.2.2,Win32,84.74576271,,,,,,,,,,,,,,,,1009.6525,1011.4522,1011.4522,1015.7818,return,1.1434,,55.59895833,,,,,,FBP-OG-71.png,0.45,1.2,35,1,,,,,,,,,,,,,,,,,,0,16,16,34,1,,,,,,,,,,,,,,,,,,,,,,,
,,,,,V1_013,18,Female,2024-05-14_15h29.51.479,jersey_experiment_5_v1,2023.2.2,Win32,84.74576271,,,,,,,,,,,,,,,,1015.782,1017.5821,1017.5821,1020.1231,return,1.7423,,17.31770833,,,,,,FBP-YG-71.png,0.35,1.2,16,1,,,,,,,,,,,,,,,,,,0,17,17,15,1,,,,,,,,,,,,,,,,,,,,,,,
,,,,,V1_013,18,Female,2024-05-14_15h29.51.479,jersey_experiment_5_v1,2023.2.2,Win32,84.74576271,,,,,,,,,,,,,,,,1020.1233,1021.4173,1021.4173,1022.8527,return,0.6054,,25.52083333,,,,,,FBP-PT-17.png,0.37,1.2,2,0.5,,,,,,,,,,,,,,,,,,0,18,18,1,1,,,,,,,,,,,,,,,,,,,,,,,
,,,,,V1_013,18,Female,2024-05-14_15h29.51.479,jersey_experiment_5_v1,2023.2.2,Win32,84.74576271,,,,,,,,,,,,,,,,1022.8529,1024.6528,1024.6528,1026.3233,return,1.051,,78.90625,,,,,,FBP-RB-17.png,0.43,1.2,49,1,,,,,,,,,,,,,,,,,,0,19,19,48,1,,,,,,,,,,,,,,,,,,,,,,,
,,,,,V1_013,18,Female,2024-05-14_15h29.51.479,jersey_experiment_5_v1,2023.2.2,Win32,84.74576271,,,,,,,,,,,,,,,,1026.3233,1028.1234,1028.1235,1030.3,return,1.4825,,88.02083333,,,,,,FBP-OG-91.png,0.45,1.2,45,1,,,,,,,,,,,,,,,,,,0,20,20,44,1,,,,,,,,,,,,,,,,,,,,,,,
,,,,,V1_013,18,Female,2024-05-14_15h29.51.479,jersey_experiment_5_v1,2023.2.2,Win32,84.74576271,,,,,,,,,,,,,,,,1030.3003,1032.1001,1032.1001,1034.0765,return,1.0821,,72.78645833,,,,,,FBP-RB-19.png,0.37,1.2,57,1,,,,,,,,,,,,,,,,,,0,21,21,56,1,,,,,,,,,,,,,,,,,,,,,,,
,,,,,V1_013,18,Female,2024-05-14_15h29.51.479,jersey_experiment_5_v1,2023.2.2,Win32,84.74576271,,,,,,,,,,,,,,,,1034.0767,1035.8766,1035.8767,1036.9824,return,0.6387,,75.26041667,,,,,,FBP-RB-19.png,0.4,1.2,58,1,,,,,,,,,,,,,,,,,,0,22,22,57,1,,,,,,,,,,,,,,,,,,,,,,,
,,,,,V1_013,18,Female,2024-05-14_15h29.51.479,jersey_experiment_5_v1,2023.2.2,Win32,84.74576271,,,,,,,,,,,,,,,,1036.9826,1038.2766,1038.2766,1039.9592,return,0.6828,,76.43229167,,,,,,FBP-PT-17.png,0.4,1.2,3,0.5,,,,,,,,,,,,,,,,,,0,23,23,2,1,,,,,,,,,,,,,,,,,,,,,,,
,,,,,V1_013,18,Female,2024-05-14_15h29.51.479,jersey_experiment_5_v1,2023.2.2,Win32,84.74576271,,,,,,,,,,,,,,,,1039.9595,1041.2534,1041.2534,1042.5357,return,0.5534,,80.859375,,,,,,FBP-PT-19.png,0.43,1.2,14,0.5,,,,,,,,,,,,,,,,,,0,24,24,13,1,,,,,,,,,,,,,,,,,,,,,,,
,,,,,V1_013,18,Female,2024-05-14_15h29.51.479,jersey_experiment_5_v1,2023.2.2,Win32,84.74576271,,,,,,,,,,,,,,,,1042.5359,1044.3358,1044.3358,1046.1712,return,0.9889,,85.546875,,,,,,FBP-RB-18.png,0.43,1.2,54,1,,,,,,,,,,,,,,,,,,0,25,25,53,1,,,,,,,,,,,,,,,,,,,,,,,
,,,,,V1_013,18,Female,2024-05-14_15h29.51.479,jersey_experiment_5_v1,2023.2.2,Win32,84.74576271,,,,,,,,,,,,,,,,1046.1714,1047.4654,1047.4654,1049.3359,return,0.6943,,85.546875,,,,,,FBP-PT-18.png,0.43,1.2,9,0.5,,,,,,,,,,,,,,,,,,0,26,26,8,1,,,,,,,,,,,,,,,,,,,,,,,
,,,,,V1_013,18,Female,2024-05-14_15h29.51.479,jersey_experiment_5_v1,2023.2.2,Win32,84.74576271,,,,,,,,,,,,,,,,1049.3362,1050.6301,1050.6301,1052.9244,return,0.7669,,88.54166667,,,,,,FBP-PT-17.png,0.43,1.2,4,0.5,,,,,,,,,,,,,,,,,,0,27,27,3,1,,,,,,,,,,,,,,,,,,,,,,,
,,,,,V1_013,18,Female,2024-05-14_15h29.51.479,jersey_experiment_5_v1,2023.2.2,Win32,84.74576271,,,,,,,,,,,,,,,,1052.9246,1054.2185,1054.2185,1057.4186,return,0.8612,,31.640625,,,,,,FBP-PT-17.png,0.35,1.2,1,0.5,,,,,,,,,,,,,,,,,,0,28,28,0,1,,,,,,,,,,,,,,,,,,,,,,,
,,,,,V1_013,18,Female,2024-05-14_15h29.51.479,jersey_experiment_5_v1,2023.2.2,Win32,84.74576271,,,,,,,,,,,,,,,,1057.4189,1058.7128,1058.7128,1061.0423,return,0.7723,,72.39583333,,,,,,FBP-PT-18.png,0.45,1.2,10,0.5,,,,,,,,,,,,,,,,,,0,29,29,9,1,,,,,,,,,,,,,,,,,,,,,,,
,,,,,V1_013,18,Female,2024-05-14_15h29.51.479,jersey_experiment_5_v1,2023.2.2,Win32,84.74576271,,,,,,,,,,,,,,,,1061.0424,1062.8424,1062.8424,1064.2776,return,0.5547,,74.73958333,,,,,,FBP-OG-81.png,0.45,1.2,40,1,,,,,,,,,,,,,,,,,,0,30,30,39,1,,,,,,,,,,,,,,,,,,,,,,,
,,,,,V1_013,18,Female,2024-05-14_15h29.51.479,jersey_experiment_5_v1,2023.2.2,Win32,84.74576271,,,,,,,,,,,,,,,,1064.2778,1066.0777,1066.0777,1067.7837,return,0.826,,68.48958333,,,,,,FBP-YG-91.png,0.4,1.2,28,1,,,,,,,,,,,,,,,,,,0,31,31,27,1,,,,,,,,,,,,,,,,,,,,,,,
,,,,,V1_013,18,Female,2024-05-14_15h29.51.479,jersey_experiment_5_v1,2023.2.2,Win32,84.74576271,,,,,,,,,,,,,,,,1067.7839,1069.5838,1069.5839,1070.9721,return,0.6122,,80.46875,,,,,,FBP-OG-71.png,0.43,1.2,34,1,,,,,,,,,,,,,,,,,,0,32,32,33,1,,,,,,,,,,,,,,,,,,,,,,,
,,,,,V1_013,18,Female,2024-05-14_15h29.51.479,jersey_experiment_5_v1,2023.2.2,Win32,84.74576271,,,,,,,,,,,,,,,,1070.9723,1072.772,1072.772,1075.0664,return,0.8854,,57.68229167,,,,,,FBP-RB-18.png,0.4,1.2,53,1,,,,,,,,,,,,,,,,,,0,33,33,52,1,,,,,,,,,,,,,,,,,,,,,,,
,,,,,V1_013,18,Female,2024-05-14_15h29.51.479,jersey_experiment_5_v1,2023.2.2,Win32,84.74576271,,,,,,,,,,,,,,,,1075.0666,1076.8663,1076.8663,1079.6547,return,0.8622,,55.078125,,,,,,FBP-YG-71.png,0.4,1.2,18,1,,,,,,,,,,,,,,,,,,0,34,34,17,1,,,,,,,,,,,,,,,,,,,,,,,
,,,,,V1_013,18,Female,2024-05-14_15h29.51.479,jersey_experiment_5_v1,2023.2.2,Win32,84.74576271,,,,,,,,,,,,,,,,1079.655,1081.4548,1081.4548,1083.137,return,0.7126,,31.38020833,,,,,,FBP-YG-71.png,0.37,1.2,17,1,,,,,,,,,,,,,,,,,,0,35,35,16,1,,,,,,,,,,,,,,,,,,,,,,,
,,,,,V1_013,18,Female,2024-05-14_15h29.51.479,jersey_experiment_5_v1,2023.2.2,Win32,84.74576271,,,,,,,,,,,,,,,,1083.1372,1084.9373,1084.9373,1086.6197,return,1.0502,,23.95833333,,,,,,FBP-OG-71.png,0.4,1.2,33,1,,,,,,,,,,,,,,,,,,0,36,36,32,1,,,,,,,,,,,,,,,,,,,,,,,
,,,,,V1_013,18,Female,2024-05-14_15h29.51.479,jersey_experiment_5_v1,2023.2.2,Win32,84.74576271,,,,,,,,,,,,,,,,1086.62,1088.4197,1088.4198,1089.8667,return,0.6962,,22.13541667,,,,,,FBP-OG-81.png,0.37,1.2,37,1,,,,,,,,,,,,,,,,,,0,37,37,36,1,,,,,,,,,,,,,,,,,,,,,,,
,,,,,V1_013,18,Female,2024-05-14_15h29.51.479,jersey_experiment_5_v1,2023.2.2,Win32,84.74576271,,,,,,,,,,,,,,,,1089.8669,1091.161,1091.1611,1093.2081,return,0.7759,,77.47395833,,,,,,FBP-PT-19.png,0.45,1.2,15,0.5,,,,,,,,,,,,,,,,,,0,38,38,14,1,,,,,,,,,,,,,,,,,,,,,,,
,,,,,V1_013,18,Female,2024-05-14_15h29.51.479,jersey_experiment_5_v1,2023.2.2,Win32,84.74576271,,,,,,,,,,,,,,,,1093.2084,1095.0082,1095.0082,1096.2788,return,0.7795,,86.19791667,,,,,,FBP-YG-91.png,0.45,1.2,30,1,,,,,,,,,,,,,,,,,,0,39,39,29,1,,,,,,,,,,,,,,,,,,,,,,,
,,,,,V1_013,18,Female,2024-05-14_15h29.51.479,jersey_experiment_5_v1,2023.2.2,Win32,84.74576271,,,,,,,,,,,,,,,,1096.2791,1098.0791,1098.0791,1100.1378,return,1.2331,,28.64583333,,,,,,FBP-YG-91.png,0.37,1.2,27,1,,,,,,,,,,,,,,,,,,0,40,40,26,1,,,,,,,,,,,,,,,,,,,,,,,
,,,,,V1_013,18,Female,2024-05-14_15h29.51.479,jersey_experiment_5_v1,2023.2.2,Win32,84.74576271,,,,,,,,,,,,,,,,1100.138,1101.4318,1101.4318,1103.0439,return,0.6769,,28.515625,,,,,,FBP-PT-19.png,0.37,1.2,12,0.5,,,,,,,,,,,,,,,,,,0,41,41,11,1,,,,,,,,,,,,,,,,,,,,,,,
,,,,,V1_013,18,Female,2024-05-14_15h29.51.479,jersey_experiment_5_v1,2023.2.2,Win32,84.74576271,,,,,,,,,,,,,,,,1103.0441,1104.844,1104.844,1106.2205,return,0.6729,,23.30729167,,,,,,FBP-RB-19.png,0.35,1.2,56,1,,,,,,,,,,,,,,,,,,0,42,42,55,1,,,,,,,,,,,,,,,,,,,,,,,
,,,,,V1_013,18,Female,2024-05-14_15h29.51.479,jersey_experiment_5_v1,2023.2.2,Win32,84.74576271,,,,,,,,,,,,,,,,1106.2208,1108.0205,1108.0205,1109.3029,return,0.6499,,23.046875,,,,,,FBP-OG-91.png,0.35,1.2,41,1,,,,,,,,,,,,,,,,,,0,43,43,40,1,,,,,,,,,,,,,,,,,,,,,,,
,,,,,V1_013,18,Female,2024-05-14_15h29.51.479,jersey_experiment_5_v1,2023.2.2,Win32,84.74576271,,,,,,,,,,,,,,,,1109.3031,1111.103,1111.103,1112.4205,return,0.6166,,75.13020833,,,,,,FBP-YG-91.png,0.43,1.2,29,1,,,,,,,,,,,,,,,,,,0,44,44,28,1,,,,,,,,,,,,,,,,,,,,,,,
,,,,,V1_013,18,Female,2024-05-14_15h29.51.479,jersey_experiment_5_v1,2023.2.2,Win32,84.74576271,,,,,,,,,,,,,,,,1112.4207,1114.2207,1114.2207,1116.2323,return,0.7307,,26.171875,,,,,,FBP-RB-17.png,0.35,1.2,46,1,,,,,,,,,,,,,,,,,,0,45,45,45,1,,,,,,,,,,,,,,,,,,,,,,,
,,,,,V1_013,18,Female,2024-05-14_15h29.51.479,jersey_experiment_5_v1,2023.2.2,Win32,84.74576271,,,,,,,,,,,,,,,,1116.2326,1118.0327,1118.0327,1120.362,return,0.6967,,29.55729167,,,,,,FBP-YG-81.png,0.37,1.2,22,1,,,,,,,,,,,,,,,,,,0,46,46,21,1,,,,,,,,,,,,,,,,,,,,,,,
,,,,,V1_013,18,Female,2024-05-14_15h29.51.479,jersey_experiment_5_v1,2023.2.2,Win32,84.74576271,,,,,,,,,,,,,,,,1120.3623,1122.1623,1122.1623,1123.8798,return,0.8354,,76.5625,,,,,,FBP-YG-71.png,0.45,1.2,20,1,,,,,,,,,,,,,,,,,,0,47,47,19,1,,,,,,,,,,,,,,,,,,,,,,,
,,,,,V1_013,18,Female,2024-05-14_15h29.51.479,jersey_experiment_5_v1,2023.2.2,Win32,84.74576271,,,,,,,,,,,,,,,,1123.88,1125.68,1125.68,1128.0916,return,1.6102,,26.04166667,,,,,,FBP-OG-71.png,0.35,1.2,31,1,,,,,,,,,,,,,,,,,,0,48,48,30,1,,,,,,,,,,,,,,,,,,,,,,,
,,,,,V1_013,18,Female,2024-05-14_15h29.51.479,jersey_experiment_5_v1,2023.2.2,Win32,84.74576271,,,,,,,,,,,,,,,,1128.0918,1129.8917,1129.8917,1131.88,return,0.7312,,36.71875,,,,,,FBP-RB-17.png,0.37,1.2,47,1,,,,,,,,,,,,,,,,,,0,49,49,46,1,,,,,,,,,,,,,,,,,,,,,,,
,,,,,V1_013,18,Female,2024-05-14_15h29.51.479,jersey_experiment_5_v1,2023.2.2,Win32,84.74576271,,,,,,,,,,,,,,,,1131.8803,1133.6801,1133.6802,1136.6686,return,0.6482,,71.875,,,,,,FBP-YG-71.png,0.43,1.2,19,1,,,,,,,,,,,,,,,,,,0,50,50,18,1,,,,,,,,,,,,,,,,,,,,,,,
,,,,,V1_013,18,Female,2024-05-14_15h29.51.479,jersey_experiment_5_v1,2023.2.2,Win32,84.74576271,,,,,,,,,,,,,,,,1136.6688,1138.4686,1138.4686,1140.104,return,1.0024,,75.65104167,,,,,,FBP-RB-19.png,0.43,1.2,59,1,,,,,,,,,,,,,,,,,,0,51,51,58,1,,,,,,,,,,,,,,,,,,,,,,,
,,,,,V1_013,18,Female,2024-05-14_15h29.51.479,jersey_experiment_5_v1,2023.2.2,Win32,84.74576271,,,,,,,,,,,,,,,,1140.1042,1141.9039,1141.9039,1144.9041,return,1.1766,,71.74479167,,,,,,FBP-OG-91.png,0.4,1.2,43,1,,,,,,,,,,,,,,,,,,0,52,52,42,1,,,,,,,,,,,,,,,,,,,,,,,
,,,,,V1_013,18,Female,2024-05-14_15h29.51.479,jersey_experiment_5_v1,2023.2.2,Win32,84.74576271,,,,,,,,,,,,,,,,1144.9043,1146.7042,1146.7043,1153.7045,return,0.706,,73.95833333,,,,,,FBP-OG-81.png,0.35,1.2,36,1,,,,,,,,,,,,,,,,,,0,53,53,35,1,,,,,,,,,,,,,,,,,,,,,,,
,,,,,V1_013,18,Female,2024-05-14_15h29.51.479,jersey_experiment_5_v1,2023.2.2,Win32,84.74576271,,,,,,,,,,,,,,,,1153.7047,1155.5045,1155.5045,1157.2341,return,0.7489,,46.484375,,,,,,FBP-YG-81.png,0.4,1.2,23,1,,,,,,,,,,,,,,,,,,0,54,54,22,1,,,,,,,,,,,,,,,,,,,,,,,
,,,,,V1_013,18,Female,2024-05-14_15h29.51.479,jersey_experiment_5_v1,2023.2.2,Win32,84.74576271,,,,,,,,,,,,,,,,1157.2343,1159.034,1159.034,1174.6817,return,1.5062,,55.20833333,,,,,,FBP-OG-91.png,0.43,1.2,44,1,,,,,,,,,,,,,,,,,,0,55,55,43,1,,,,,,,,,,,,,,,,,,,,,,,
,,,,,V1_013,18,Female,2024-05-14_15h29.51.479,jersey_experiment_5_v1,2023.2.2,Win32,84.74576271,,,,,,,,,,,,,,,,1174.6819,1175.9757,1175.9758,1179.6349,return,1.7234,,27.60416667,,,,,,FBP-PT-18.png,0.37,1.2,7,0.5,,,,,,,,,,,,,,,,,,0,56,56,6,1,,,,,,,,,,,,,,,,,,,,,,,
,,,,,V1_013,18,Female,2024-05-14_15h29.51.479,jersey_experiment_5_v1,2023.2.2,Win32,84.74576271,,,,,,,,,,,,,,,,1179.6351,1181.4348,1181.4348,1183.2703,return,1.0728,,75.13020833,,,,,,FBP-YG-81.png,0.45,1.2,25,1,,,,,,,,,,,,,,,,,,0,57,57,24,1,,,,,,,,,,,,,,,,,,,,,,,
,,,,,V1_013,18,Female,2024-05-14_15h29.51.479,jersey_experiment_5_v1,2023.2.2,Win32,84.74576271,,,,,,,,,,,,,,,,1183.2705,1185.0704,1185.0704,1186.4587,return,0.7196,,23.828125,,,,,,FBP-YG-91.png,0.35,1.2,26,1,,,,,,,,,,,,,,,,,,0,58,58,25,1,,,,,,,,,,,,,,,,,,,,,,,
,,,,,V1_013,18,Female,2024-05-14_15h29.51.479,jersey_experiment_5_v1,2023.2.2,Win32,84.74576271,,,,,,,,,,,,,,,,1186.4589,1188.2586,1188.2586,1189.6234,return,0.6243,,27.21354167,,,,,,FBP-YG-81.png,0.35,1.2,21,1,,,,,,,,,,,,,,,,,,0,59,59,20,1,,,,,,,,,,,,,,,,,,,,,,,
,,,,,V1_013,18,Female,2024-05-14_15h29.51.479,jersey_experiment_5_v1,2023.2.2,Win32,84.74576271,,,,,,,,,,,,,,,,,,,,,,,,,,,,,,,,,,,,,,,,,,,,,,,,,,,,,,,,1189.6238,1196.7533,return,7.1237,,,,,,,,,,,,,,,,,,,
,,,,,V1_013,18,Female,2024-05-14_15h29.51.479,jersey_experiment_5_v1,2023.2.2,Win32,84.74576271,,,,,,,,,,,,,,,,,,,,,,,,,,,,,,,,,,,,,,,,,,,,,,,,,,,,,,,,,,,,,1196.7534,1200.6357,1,2.9415,return,0.9172,,,,,,,,,,,,
,,,,,V1_013,18,Female,2024-05-14_15h29.51.479,jersey_experiment_5_v1,2023.2.2,Win32,84.74576271,,,,,,,,,,,,,,,,,,,,,,,,,,,,,,,,,,,,,,,,,,,,,,,,,,,,,,,,,,,,,,,,,,,,1200.6358,1278.7257,The impact of the color of the uniform on the perceived size of the people? Or how perceived size can change depending on who was presented before.,right,70.9875,,,,,,
,,,,,V1_013,18,Female,2024-05-14_15h29.51.479,jersey_experiment_5_v1,2023.2.2,Win32,84.74576271,,,,,,,,,,,,,,,,,,,,,,,,,,,,,,,,,,,,,,,,,,,,,,,,,,,,,,,,,,,,,,,,,,,,,,,,,,1278.7258,1282.168,return,3.423,