requirements.started,requirements.stopped,key_resp_3.keys,key_resp_3.rt,key_resp_3.duration,Subject ID,Age,Gender,date,expName,psychopyVersion,OS,frameRate,instructions1.started,instructions1.stopped,key_resp.keys,key_resp.rt,key_resp.duration,example.started,example.stopped,enter_2.keys,enter_2.rt,enter_2.duration,instructions2.started,instructions2.stopped,enter_3.keys,enter_3.rt,enter_3.duration,image.started,image.stopped,slider_2.started,slider_2.stopped,next.keys,next.rt,next.duration,slider.response,trial_block_1.thisRepN,trial_block_1.thisTrialN,trial_block_1.thisN,trial_block_1.thisIndex,trial_block_1.ran,Path,Width,Height,Index,Duration,trial_block_2.thisRepN,trial_block_2.thisTrialN,trial_block_2.thisN,trial_block_2.thisIndex,trial_block_2.ran,rest_break.started,rest_break.stopped,end_break.started,end_break.stopped,key_resp_5.keys,key_resp_5.rt,key_resp_5.duration,trial_block_3.thisRepN,trial_block_3.thisTrialN,trial_block_3.thisN,trial_block_3.thisIndex,trial_block_3.ran,trial_block_4.thisRepN,trial_block_4.thisTrialN,trial_block_4.thisN,trial_block_4.thisIndex,trial_block_4.ran,questions_intro.started,questions_intro.stopped,enter_12.keys,enter_12.rt,enter_12.duration,question2.started,question2.stopped,question_doingbest.response,question_doingbest.rt,enter_15.keys,enter_15.rt,enter_15.duration,pattern.started,pattern.stopped,pattern_2.text,enter_17.keys,enter_17.rt,enter_17.duration,thankyou.started,thankyou.stopped,enter_14.keys,enter_14.rt,enter_14.duration
0.0002,12.9541,return,12.9488,,V1_020,20,Female,2024-05-16_16h05.21.017,jersey_experiment_5_v1,2023.2.2,Win32,84.74576271,,,,,,,,,,,,,,,,,,,,,,,,,,,,,,,,,,,,,,,,,,,,,,,,,,,,,,,,,,,,,,,,,,,,,,,,,,,,,,
,,,,,V1_020,20,Female,2024-05-16_16h05.21.017,jersey_experiment_5_v1,2023.2.2,Win32,84.74576271,12.9542,30.3644,return,17.3989,,,,,,,,,,,,,,,,,,,,,,,,,,,,,,,,,,,,,,,,,,,,,,,,,,,,,,,,,,,,,,,,,,,,,,,,,,
,,,,,V1_020,20,Female,2024-05-16_16h05.21.017,jersey_experiment_5_v1,2023.2.2,Win32,84.74576271,,,,,,30.3645,41.7531,return,11.3579,,,,,,,,,,,,,,,,,,,,,,,,,,,,,,,,,,,,,,,,,,,,,,,,,,,,,,,,,,,,,,,,,,,,,
,,,,,V1_020,20,Female,2024-05-16_16h05.21.017,jersey_experiment_5_v1,2023.2.2,Win32,84.74576271,,,,,,,,,,,41.7532,70.8246,return,29.0641,,,,,,,,,,,,,,,,,,,,,,,,,,,,,,,,,,,,,,,,,,,,,,,,,,,,,,,,,,,,,,,,
,,,,,V1_020,20,Female,2024-05-16_16h05.21.017,jersey_experiment_5_v1,2023.2.2,Win32,84.74576271,,,,,,,,,,,,,,,,70.832,72.1304,72.1304,95.3667,return,4.7373,,75,0,0,0,34,1,FBP-OG-17.png,0.45,1.2,35,0.5,,,,,,,,,,,,,,,,,,,,,,,,,,,,,,,,,,,,,,,,,,,,,
,,,,,V1_020,20,Female,2024-05-16_16h05.21.017,jersey_experiment_5_v1,2023.2.2,Win32,84.74576271,,,,,,,,,,,,,,,,95.371,96.6724,96.6724,105.9666,return,1.4368,,61.45833333,0,1,1,43,1,FBP-OG-19.png,0.43,1.2,44,0.5,,,,,,,,,,,,,,,,,,,,,,,,,,,,,,,,,,,,,,,,,,,,,
,,,,,V1_020,20,Female,2024-05-16_16h05.21.017,jersey_experiment_5_v1,2023.2.2,Win32,84.74576271,,,,,,,,,,,,,,,,105.967,107.2609,107.2609,113.7199,return,1.6635,,25,0,2,2,46,1,FBP-RB-71.png,0.37,1.2,47,0.5,,,,,,,,,,,,,,,,,,,,,,,,,,,,,,,,,,,,,,,,,,,,,
,,,,,V1_020,20,Female,2024-05-16_16h05.21.017,jersey_experiment_5_v1,2023.2.2,Win32,84.74576271,,,,,,,,,,,,,,,,113.7201,115.52,115.5201,122.7321,return,1.2021,,62.109375,0,3,3,12,1,FBP-PT-91.png,0.4,1.2,13,1,,,,,,,,,,,,,,,,,,,,,,,,,,,,,,,,,,,,,,,,,,,,,
,,,,,V1_020,20,Female,2024-05-16_16h05.21.017,jersey_experiment_5_v1,2023.2.2,Win32,84.74576271,,,,,,,,,,,,,,,,122.7324,124.0263,124.0263,129.6853,return,3.1262,,62.109375,0,4,4,19,1,FBP-YG-17.png,0.45,1.2,20,0.5,,,,,,,,,,,,,,,,,,,,,,,,,,,,,,,,,,,,,,,,,,,,,
,,,,,V1_020,20,Female,2024-05-16_16h05.21.017,jersey_experiment_5_v1,2023.2.2,Win32,84.74576271,,,,,,,,,,,,,,,,129.6855,131.4853,131.4853,141.3094,return,2.424,,50,0,5,5,8,1,FBP-PT-81.png,0.43,1.2,9,1,,,,,,,,,,,,,,,,,,,,,,,,,,,,,,,,,,,,,,,,,,,,,
,,,,,V1_020,20,Female,2024-05-16_16h05.21.017,jersey_experiment_5_v1,2023.2.2,Win32,84.74576271,,,,,,,,,,,,,,,,141.3096,142.6034,142.6034,150.9683,return,1.7469,,49.86979167,0,6,6,49,1,FBP-RB-71.png,0.45,1.2,50,0.5,,,,,,,,,,,,,,,,,,,,,,,,,,,,,,,,,,,,,,,,,,,,,
,,,,,V1_020,20,Female,2024-05-16_16h05.21.017,jersey_experiment_5_v1,2023.2.2,Win32,84.74576271,,,,,,,,,,,,,,,,150.9685,152.2626,152.2626,161.8512,return,1.9442,,36.45833333,0,7,7,38,1,FBP-OG-18.png,0.43,1.2,39,0.5,,,,,,,,,,,,,,,,,,,,,,,,,,,,,,,,,,,,,,,,,,,,,
,,,,,V1_020,20,Female,2024-05-16_16h05.21.017,jersey_experiment_5_v1,2023.2.2,Win32,84.74576271,,,,,,,,,,,,,,,,161.8514,163.1454,163.1454,170.7809,return,1.2806,,57.29166667,0,8,8,57,1,FBP-RB-91.png,0.4,1.2,58,0.5,,,,,,,,,,,,,,,,,,,,,,,,,,,,,,,,,,,,,,,,,,,,,
,,,,,V1_020,20,Female,2024-05-16_16h05.21.017,jersey_experiment_5_v1,2023.2.2,Win32,84.74576271,,,,,,,,,,,,,,,,170.781,172.075,172.075,185.2639,return,2.1313,,52.86458333,0,9,9,18,1,FBP-YG-17.png,0.43,1.2,19,0.5,,,,,,,,,,,,,,,,,,,,,,,,,,,,,,,,,,,,,,,,,,,,,
,,,,,V1_020,20,Female,2024-05-16_16h05.21.017,jersey_experiment_5_v1,2023.2.2,Win32,84.74576271,,,,,,,,,,,,,,,,185.2641,186.558,186.558,191.2875,return,1.7215,,25,0,10,10,32,1,FBP-OG-17.png,0.4,1.2,33,0.5,,,,,,,,,,,,,,,,,,,,,,,,,,,,,,,,,,,,,,,,,,,,,
,,,,,V1_020,20,Female,2024-05-16_16h05.21.017,jersey_experiment_5_v1,2023.2.2,Win32,84.74576271,,,,,,,,,,,,,,,,191.2877,193.0875,193.0875,200.2054,return,1.8252,,24.86979167,0,11,11,11,1,FBP-PT-91.png,0.37,1.2,12,1,,,,,,,,,,,,,,,,,,,,,,,,,,,,,,,,,,,,,,,,,,,,,
,,,,,V1_020,20,Female,2024-05-16_16h05.21.017,jersey_experiment_5_v1,2023.2.2,Win32,84.74576271,,,,,,,,,,,,,,,,200.2056,201.4997,201.4997,210.8294,return,1.3888,,18.09895833,0,12,12,52,1,FBP-RB-81.png,0.4,1.2,53,0.5,,,,,,,,,,,,,,,,,,,,,,,,,,,,,,,,,,,,,,,,,,,,,
,,,,,V1_020,20,Female,2024-05-16_16h05.21.017,jersey_experiment_5_v1,2023.2.2,Win32,84.74576271,,,,,,,,,,,,,,,,210.8295,212.6296,212.6296,217.4179,return,2.3803,,11.45833333,0,13,13,0,1,FBP-PT-71.png,0.35,1.2,1,1,,,,,,,,,,,,,,,,,,,,,,,,,,,,,,,,,,,,,,,,,,,,,
,,,,,V1_020,20,Female,2024-05-16_16h05.21.017,jersey_experiment_5_v1,2023.2.2,Win32,84.74576271,,,,,,,,,,,,,,,,217.4222,218.7239,218.7239,224.8418,return,1.8751,,24.609375,0,14,14,27,1,FBP-YG-19.png,0.4,1.2,28,0.5,,,,,,,,,,,,,,,,,,,,,,,,,,,,,,,,,,,,,,,,,,,,,
,,,,,V1_020,20,Female,2024-05-16_16h05.21.017,jersey_experiment_5_v1,2023.2.2,Win32,84.74576271,,,,,,,,,,,,,,,,224.8419,226.136,226.136,233.2537,return,2.0891,,24.73958333,0,15,15,35,1,FBP-OG-18.png,0.35,1.2,36,0.5,,,,,,,,,,,,,,,,,,,,,,,,,,,,,,,,,,,,,,,,,,,,,
,,,,,V1_020,20,Female,2024-05-16_16h05.21.017,jersey_experiment_5_v1,2023.2.2,Win32,84.74576271,,,,,,,,,,,,,,,,233.2538,235.0539,235.0539,239.2424,return,1.2491,,10.15625,0,16,16,5,1,FBP-PT-81.png,0.35,1.2,6,1,,,,,,,,,,,,,,,,,,,,,,,,,,,,,,,,,,,,,,,,,,,,,
,,,,,V1_020,20,Female,2024-05-16_16h05.21.017,jersey_experiment_5_v1,2023.2.2,Win32,84.74576271,,,,,,,,,,,,,,,,239.2427,240.5363,240.5363,249.1367,return,1.7884,,36.84895833,0,17,17,16,1,FBP-YG-17.png,0.37,1.2,17,0.5,,,,,,,,,,,,,,,,,,,,,,,,,,,,,,,,,,,,,,,,,,,,,
,,,,,V1_020,20,Female,2024-05-16_16h05.21.017,jersey_experiment_5_v1,2023.2.2,Win32,84.74576271,,,,,,,,,,,,,,,,249.137,250.4309,250.4309,272.4905,return,4.7445,,30.59895833,0,18,18,56,1,FBP-RB-91.png,0.37,1.2,57,0.5,,,,,,,,,,,,,,,,,,,,,,,,,,,,,,,,,,,,,,,,,,,,,
,,,,,V1_020,20,Female,2024-05-16_16h05.21.017,jersey_experiment_5_v1,2023.2.2,Win32,84.74576271,,,,,,,,,,,,,,,,272.4946,273.7965,273.7965,277.1142,return,1.4257,,74.47916667,0,19,19,48,1,FBP-RB-71.png,0.43,1.2,49,0.5,,,,,,,,,,,,,,,,,,,,,,,,,,,,,,,,,,,,,,,,,,,,,
,,,,,V1_020,20,Female,2024-05-16_16h05.21.017,jersey_experiment_5_v1,2023.2.2,Win32,84.74576271,,,,,,,,,,,,,,,,277.1143,278.4082,278.4082,284.9733,return,3.8688,,50.26041667,0,20,20,58,1,FBP-RB-91.png,0.43,1.2,59,0.5,,,,,,,,,,,,,,,,,,,,,,,,,,,,,,,,,,,,,,,,,,,,,
,,,,,V1_020,20,Female,2024-05-16_16h05.21.017,jersey_experiment_5_v1,2023.2.2,Win32,84.74576271,,,,,,,,,,,,,,,,284.9734,286.2674,286.2674,292.1266,return,1.2334,,12.5,0,21,21,40,1,FBP-OG-19.png,0.35,1.2,41,0.5,,,,,,,,,,,,,,,,,,,,,,,,,,,,,,,,,,,,,,,,,,,,,
,,,,,V1_020,20,Female,2024-05-16_16h05.21.017,jersey_experiment_5_v1,2023.2.2,Win32,84.74576271,,,,,,,,,,,,,,,,292.1268,293.4206,293.4207,298.5503,return,1.5477,,76.953125,0,22,22,53,1,FBP-RB-81.png,0.43,1.2,54,0.5,,,,,,,,,,,,,,,,,,,,,,,,,,,,,,,,,,,,,,,,,,,,,
,,,,,V1_020,20,Female,2024-05-16_16h05.21.017,jersey_experiment_5_v1,2023.2.2,Win32,84.74576271,,,,,,,,,,,,,,,,298.5506,299.8445,299.8446,304.6329,return,1.5465,,25.13020833,0,23,23,55,1,FBP-RB-91.png,0.35,1.2,56,0.5,,,,,,,,,,,,,,,,,,,,,,,,,,,,,,,,,,,,,,,,,,,,,
,,,,,V1_020,20,Female,2024-05-16_16h05.21.017,jersey_experiment_5_v1,2023.2.2,Win32,84.74576271,,,,,,,,,,,,,,,,304.6331,306.4328,306.4329,309.9271,return,1.0409,,81.77083333,0,24,24,2,1,FBP-PT-71.png,0.4,1.2,3,1,,,,,,,,,,,,,,,,,,,,,,,,,,,,,,,,,,,,,,,,,,,,,
,,,,,V1_020,20,Female,2024-05-16_16h05.21.017,jersey_experiment_5_v1,2023.2.2,Win32,84.74576271,,,,,,,,,,,,,,,,309.9273,311.2214,311.2214,315.4685,return,1.2829,,43.48958333,0,25,25,21,1,FBP-YG-18.png,0.37,1.2,22,0.5,,,,,,,,,,,,,,,,,,,,,,,,,,,,,,,,,,,,,,,,,,,,,
,,,,,V1_020,20,Female,2024-05-16_16h05.21.017,jersey_experiment_5_v1,2023.2.2,Win32,84.74576271,,,,,,,,,,,,,,,,315.4687,316.7627,316.7628,319.4686,return,0.7545,,93.61979167,0,26,26,59,1,FBP-RB-91.png,0.45,1.2,60,0.5,,,,,,,,,,,,,,,,,,,,,,,,,,,,,,,,,,,,,,,,,,,,,
,,,,,V1_020,20,Female,2024-05-16_16h05.21.017,jersey_experiment_5_v1,2023.2.2,Win32,84.74576271,,,,,,,,,,,,,,,,319.4689,321.2688,321.2688,327.1514,return,0.837,,75.13020833,0,27,27,13,1,FBP-PT-91.png,0.43,1.2,14,1,,,,,,,,,,,,,,,,,,,,,,,,,,,,,,,,,,,,,,,,,,,,,
,,,,,V1_020,20,Female,2024-05-16_16h05.21.017,jersey_experiment_5_v1,2023.2.2,Win32,84.74576271,,,,,,,,,,,,,,,,327.1516,328.4454,328.4454,333.128,return,0.9821,,49.21875,0,28,28,30,1,FBP-OG-17.png,0.35,1.2,31,0.5,,,,,,,,,,,,,,,,,,,,,,,,,,,,,,,,,,,,,,,,,,,,,
,,,,,V1_020,20,Female,2024-05-16_16h05.21.017,jersey_experiment_5_v1,2023.2.2,Win32,84.74576271,,,,,,,,,,,,,,,,333.1283,334.4223,334.4223,337.1989,return,0.9317,,62.23958333,0,29,29,47,1,FBP-RB-71.png,0.4,1.2,48,0.5,,,,,,,,,,,,,,,,,,,,,,,,,,,,,,,,,,,,,,,,,,,,,
,,,,,V1_020,20,Female,2024-05-16_16h05.21.017,jersey_experiment_5_v1,2023.2.2,Win32,84.74576271,,,,,,,,,,,,,,,,337.1991,338.9988,338.9988,345.4696,return,0.9034,,75.13020833,0,30,30,3,1,FBP-PT-71.png,0.43,1.2,4,1,,,,,,,,,,,,,,,,,,,,,,,,,,,,,,,,,,,,,,,,,,,,,
,,,,,V1_020,20,Female,2024-05-16_16h05.21.017,jersey_experiment_5_v1,2023.2.2,Win32,84.74576271,,,,,,,,,,,,,,,,345.4698,346.7638,346.7638,352.517,return,0.9151,,50.13020833,0,31,31,25,1,FBP-YG-19.png,0.35,1.2,26,0.5,,,,,,,,,,,,,,,,,,,,,,,,,,,,,,,,,,,,,,,,,,,,,
,,,,,V1_020,20,Female,2024-05-16_16h05.21.017,jersey_experiment_5_v1,2023.2.2,Win32,84.74576271,,,,,,,,,,,,,,,,352.5172,354.3169,354.3169,356.9996,return,1.1225,,53.77604167,0,32,32,6,1,FBP-PT-81.png,0.37,1.2,7,1,,,,,,,,,,,,,,,,,,,,,,,,,,,,,,,,,,,,,,,,,,,,,
,,,,,V1_020,20,Female,2024-05-16_16h05.21.017,jersey_experiment_5_v1,2023.2.2,Win32,84.74576271,,,,,,,,,,,,,,,,356.9997,358.7997,358.7997,361.8232,return,0.8236,,71.22395833,0,33,33,7,1,FBP-PT-81.png,0.4,1.2,8,1,,,,,,,,,,,,,,,,,,,,,,,,,,,,,,,,,,,,,,,,,,,,,
,,,,,V1_020,20,Female,2024-05-16_16h05.21.017,jersey_experiment_5_v1,2023.2.2,Win32,84.74576271,,,,,,,,,,,,,,,,361.8234,363.1173,363.1173,368.2824,return,0.6742,,54.03645833,0,34,34,31,1,FBP-OG-17.png,0.37,1.2,32,0.5,,,,,,,,,,,,,,,,,,,,,,,,,,,,,,,,,,,,,,,,,,,,,
,,,,,V1_020,20,Female,2024-05-16_16h05.21.017,jersey_experiment_5_v1,2023.2.2,Win32,84.74576271,,,,,,,,,,,,,,,,368.2827,369.5765,369.5765,373.3412,return,1.3304,,81.38020833,0,35,35,33,1,FBP-OG-17.png,0.43,1.2,34,0.5,,,,,,,,,,,,,,,,,,,,,,,,,,,,,,,,,,,,,,,,,,,,,
,,,,,V1_020,20,Female,2024-05-16_16h05.21.017,jersey_experiment_5_v1,2023.2.2,Win32,84.74576271,,,,,,,,,,,,,,,,373.3414,374.6354,374.6354,377.1767,return,0.7571,,99.86979167,0,36,36,54,1,FBP-RB-81.png,0.45,1.2,55,0.5,,,,,,,,,,,,,,,,,,,,,,,,,,,,,,,,,,,,,,,,,,,,,
,,,,,V1_020,20,Female,2024-05-16_16h05.21.017,jersey_experiment_5_v1,2023.2.2,Win32,84.74576271,,,,,,,,,,,,,,,,377.1769,378.4709,378.4709,384.4711,return,1.0404,,87.76041667,0,37,37,39,1,FBP-OG-18.png,0.45,1.2,40,0.5,,,,,,,,,,,,,,,,,,,,,,,,,,,,,,,,,,,,,,,,,,,,,
,,,,,V1_020,20,Female,2024-05-16_16h05.21.017,jersey_experiment_5_v1,2023.2.2,Win32,84.74576271,,,,,,,,,,,,,,,,384.4713,385.7652,385.7653,388.3653,return,1.012,,99.73958333,0,38,38,44,1,FBP-OG-19.png,0.45,1.2,45,0.5,,,,,,,,,,,,,,,,,,,,,,,,,,,,,,,,,,,,,,,,,,,,,
,,,,,V1_020,20,Female,2024-05-16_16h05.21.017,jersey_experiment_5_v1,2023.2.2,Win32,84.74576271,,,,,,,,,,,,,,,,388.3655,389.6595,389.6595,393.248,return,0.848,,32.03125,0,39,39,51,1,FBP-RB-81.png,0.37,1.2,52,0.5,,,,,,,,,,,,,,,,,,,,,,,,,,,,,,,,,,,,,,,,,,,,,
,,,,,V1_020,20,Female,2024-05-16_16h05.21.017,jersey_experiment_5_v1,2023.2.2,Win32,84.74576271,,,,,,,,,,,,,,,,393.2483,395.0479,395.0479,401.2127,return,0.7542,,50.13020833,0,40,40,10,1,FBP-PT-91.png,0.35,1.2,11,1,,,,,,,,,,,,,,,,,,,,,,,,,,,,,,,,,,,,,,,,,,,,,
,,,,,V1_020,20,Female,2024-05-16_16h05.21.017,jersey_experiment_5_v1,2023.2.2,Win32,84.74576271,,,,,,,,,,,,,,,,401.213,402.507,402.507,408.3308,return,0.9178,,50.390625,0,41,41,41,1,FBP-OG-19.png,0.37,1.2,42,0.5,,,,,,,,,,,,,,,,,,,,,,,,,,,,,,,,,,,,,,,,,,,,,
,,,,,V1_020,20,Female,2024-05-16_16h05.21.017,jersey_experiment_5_v1,2023.2.2,Win32,84.74576271,,,,,,,,,,,,,,,,408.331,409.6251,409.6251,412.2131,return,0.9617,,25,0,42,42,45,1,FBP-RB-71.png,0.35,1.2,46,0.5,,,,,,,,,,,,,,,,,,,,,,,,,,,,,,,,,,,,,,,,,,,,,
,,,,,V1_020,20,Female,2024-05-16_16h05.21.017,jersey_experiment_5_v1,2023.2.2,Win32,84.74576271,,,,,,,,,,,,,,,,412.2134,413.5075,413.5075,415.9312,return,0.9792,,24.73958333,0,43,43,50,1,FBP-RB-81.png,0.35,1.2,51,0.5,,,,,,,,,,,,,,,,,,,,,,,,,,,,,,,,,,,,,,,,,,,,,
,,,,,V1_020,20,Female,2024-05-16_16h05.21.017,jersey_experiment_5_v1,2023.2.2,Win32,84.74576271,,,,,,,,,,,,,,,,415.9314,417.2253,417.2253,422.1197,return,0.8181,,50,0,44,44,22,1,FBP-YG-18.png,0.4,1.2,23,0.5,,,,,,,,,,,,,,,,,,,,,,,,,,,,,,,,,,,,,,,,,,,,,
,,,,,V1_020,20,Female,2024-05-16_16h05.21.017,jersey_experiment_5_v1,2023.2.2,Win32,84.74576271,,,,,,,,,,,,,,,,422.1199,423.4138,423.4138,426.2843,return,1.1766,,99.609375,0,45,45,24,1,FBP-YG-18.png,0.45,1.2,25,0.5,,,,,,,,,,,,,,,,,,,,,,,,,,,,,,,,,,,,,,,,,,,,,
,,,,,V1_020,20,Female,2024-05-16_16h05.21.017,jersey_experiment_5_v1,2023.2.2,Win32,84.74576271,,,,,,,,,,,,,,,,426.2845,427.5787,427.5787,432.0139,return,0.7293,,50.52083333,0,46,46,23,1,FBP-YG-18.png,0.43,1.2,24,0.5,,,,,,,,,,,,,,,,,,,,,,,,,,,,,,,,,,,,,,,,,,,,,
,,,,,V1_020,20,Female,2024-05-16_16h05.21.017,jersey_experiment_5_v1,2023.2.2,Win32,84.74576271,,,,,,,,,,,,,,,,432.0141,433.3081,433.3081,438.7789,return,0.7303,,74.86979167,0,47,47,29,1,FBP-YG-19.png,0.45,1.2,30,0.5,,,,,,,,,,,,,,,,,,,,,,,,,,,,,,,,,,,,,,,,,,,,,
,,,,,V1_020,20,Female,2024-05-16_16h05.21.017,jersey_experiment_5_v1,2023.2.2,Win32,84.74576271,,,,,,,,,,,,,,,,438.7792,440.0732,440.0732,445.591,return,0.7466,,62.76041667,0,48,48,28,1,FBP-YG-19.png,0.43,1.2,29,0.5,,,,,,,,,,,,,,,,,,,,,,,,,,,,,,,,,,,,,,,,,,,,,
,,,,,V1_020,20,Female,2024-05-16_16h05.21.017,jersey_experiment_5_v1,2023.2.2,Win32,84.74576271,,,,,,,,,,,,,,,,445.5913,447.3911,447.3911,452.0384,return,0.7138,,68.48958333,0,49,49,1,1,FBP-PT-71.png,0.37,1.2,2,1,,,,,,,,,,,,,,,,,,,,,,,,,,,,,,,,,,,,,,,,,,,,,
,,,,,V1_020,20,Female,2024-05-16_16h05.21.017,jersey_experiment_5_v1,2023.2.2,Win32,84.74576271,,,,,,,,,,,,,,,,452.0386,453.8387,453.8387,459.3092,return,1.1065,,93.75,0,50,50,9,1,FBP-PT-81.png,0.45,1.2,10,1,,,,,,,,,,,,,,,,,,,,,,,,,,,,,,,,,,,,,,,,,,,,,
,,,,,V1_020,20,Female,2024-05-16_16h05.21.017,jersey_experiment_5_v1,2023.2.2,Win32,84.74576271,,,,,,,,,,,,,,,,459.3094,460.6033,460.6033,465.3212,return,2.1201,,49.73958333,0,51,51,15,1,FBP-YG-17.png,0.35,1.2,16,0.5,,,,,,,,,,,,,,,,,,,,,,,,,,,,,,,,,,,,,,,,,,,,,
,,,,,V1_020,20,Female,2024-05-16_16h05.21.017,jersey_experiment_5_v1,2023.2.2,Win32,84.74576271,,,,,,,,,,,,,,,,465.3215,466.6153,466.6153,470.592,return,1.4351,,67.83854167,0,52,52,17,1,FBP-YG-17.png,0.4,1.2,18,0.5,,,,,,,,,,,,,,,,,,,,,,,,,,,,,,,,,,,,,,,,,,,,,
,,,,,V1_020,20,Female,2024-05-16_16h05.21.017,jersey_experiment_5_v1,2023.2.2,Win32,84.74576271,,,,,,,,,,,,,,,,470.5922,471.8861,471.8861,478.1685,return,0.7467,,62.23958333,0,53,53,37,1,FBP-OG-18.png,0.4,1.2,38,0.5,,,,,,,,,,,,,,,,,,,,,,,,,,,,,,,,,,,,,,,,,,,,,
,,,,,V1_020,20,Female,2024-05-16_16h05.21.017,jersey_experiment_5_v1,2023.2.2,Win32,84.74576271,,,,,,,,,,,,,,,,478.1688,479.4629,479.4629,484.11,return,0.8805,,43.359375,0,54,54,36,1,FBP-OG-18.png,0.37,1.2,37,0.5,,,,,,,,,,,,,,,,,,,,,,,,,,,,,,,,,,,,,,,,,,,,,
,,,,,V1_020,20,Female,2024-05-16_16h05.21.017,jersey_experiment_5_v1,2023.2.2,Win32,84.74576271,,,,,,,,,,,,,,,,484.1102,485.4042,485.4042,489.5925,return,1.6858,,50.13020833,0,55,55,20,1,FBP-YG-18.png,0.35,1.2,21,0.5,,,,,,,,,,,,,,,,,,,,,,,,,,,,,,,,,,,,,,,,,,,,,
,,,,,V1_020,20,Female,2024-05-16_16h05.21.017,jersey_experiment_5_v1,2023.2.2,Win32,84.74576271,,,,,,,,,,,,,,,,489.5927,491.3927,491.3928,496.5105,return,1.2942,,92.578125,0,56,56,14,1,FBP-PT-91.png,0.45,1.2,15,1,,,,,,,,,,,,,,,,,,,,,,,,,,,,,,,,,,,,,,,,,,,,,
,,,,,V1_020,20,Female,2024-05-16_16h05.21.017,jersey_experiment_5_v1,2023.2.2,Win32,84.74576271,,,,,,,,,,,,,,,,496.5107,497.8046,497.8046,508.2051,return,0.7625,,49.609375,0,57,57,26,1,FBP-YG-19.png,0.37,1.2,27,0.5,,,,,,,,,,,,,,,,,,,,,,,,,,,,,,,,,,,,,,,,,,,,,
,,,,,V1_020,20,Female,2024-05-16_16h05.21.017,jersey_experiment_5_v1,2023.2.2,Win32,84.74576271,,,,,,,,,,,,,,,,508.2053,510.0052,510.0052,513.4169,return,1.7217,,99.86979167,0,58,58,4,1,FBP-PT-71.png,0.45,1.2,5,1,,,,,,,,,,,,,,,,,,,,,,,,,,,,,,,,,,,,,,,,,,,,,
,,,,,V1_020,20,Female,2024-05-16_16h05.21.017,jersey_experiment_5_v1,2023.2.2,Win32,84.74576271,,,,,,,,,,,,,,,,513.4171,514.7112,514.7113,518.8879,return,0.7223,,49.47916667,0,59,59,42,1,FBP-OG-19.png,0.4,1.2,43,0.5,,,,,,,,,,,,,,,,,,,,,,,,,,,,,,,,,,,,,,,,,,,,,
,,,,,V1_020,20,Female,2024-05-16_16h05.21.017,jersey_experiment_5_v1,2023.2.2,Win32,84.74576271,,,,,,,,,,,,,,,,518.89,520.1819,520.1819,525.8882,return,3.4975,,57.421875,,,,,,FBP-OG-71.png,0.4,1.2,33,0.5,0,0,0,32,1,,,,,,,,,,,,,,,,,,,,,,,,,,,,,,,,,,,,,,,,
,,,,,V1_020,20,Female,2024-05-16_16h05.21.017,jersey_experiment_5_v1,2023.2.2,Win32,84.74576271,,,,,,,,,,,,,,,,525.8886,527.6881,527.6881,532.9824,return,0.9957,,44.921875,,,,,,FBP-PT-19.png,0.37,1.2,12,1,0,1,1,11,1,,,,,,,,,,,,,,,,,,,,,,,,,,,,,,,,,,,,,,,,
,,,,,V1_020,20,Female,2024-05-16_16h05.21.017,jersey_experiment_5_v1,2023.2.2,Win32,84.74576271,,,,,,,,,,,,,,,,532.9826,534.2765,534.2765,538.3943,return,2.0837,,99.609375,,,,,,FBP-OG-91.png,0.45,1.2,45,0.5,0,2,2,44,1,,,,,,,,,,,,,,,,,,,,,,,,,,,,,,,,,,,,,,,,
,,,,,V1_020,20,Female,2024-05-16_16h05.21.017,jersey_experiment_5_v1,2023.2.2,Win32,84.74576271,,,,,,,,,,,,,,,,538.3945,540.1945,540.1945,542.7828,return,1.4015,,99.86979167,,,,,,FBP-PT-19.png,0.45,1.2,15,1,0,3,3,14,1,,,,,,,,,,,,,,,,,,,,,,,,,,,,,,,,,,,,,,,,
,,,,,V1_020,20,Female,2024-05-16_16h05.21.017,jersey_experiment_5_v1,2023.2.2,Win32,84.74576271,,,,,,,,,,,,,,,,542.7831,544.5828,544.5828,549.6772,return,1.1292,,39.58333333,,,,,,FBP-PT-19.png,0.35,1.2,11,1,0,4,4,10,1,,,,,,,,,,,,,,,,,,,,,,,,,,,,,,,,,,,,,,,,
,,,,,V1_020,20,Female,2024-05-16_16h05.21.017,jersey_experiment_5_v1,2023.2.2,Win32,84.74576271,,,,,,,,,,,,,,,,549.6775,550.9714,550.9714,556.2186,return,1.0268,,61.45833333,,,,,,FBP-RB-18.png,0.4,1.2,53,0.5,0,5,5,52,1,,,,,,,,,,,,,,,,,,,,,,,,,,,,,,,,,,,,,,,,
,,,,,V1_020,20,Female,2024-05-16_16h05.21.017,jersey_experiment_5_v1,2023.2.2,Win32,84.74576271,,,,,,,,,,,,,,,,556.2189,557.5127,557.5128,561.6305,return,1.0124,,62.109375,,,,,,FBP-OG-91.png,0.4,1.2,43,0.5,0,6,6,42,1,,,,,,,,,,,,,,,,,,,,,,,,,,,,,,,,,,,,,,,,
,,,,,V1_020,20,Female,2024-05-16_16h05.21.017,jersey_experiment_5_v1,2023.2.2,Win32,84.74576271,,,,,,,,,,,,,,,,561.6308,562.9247,562.9247,565.5366,return,1.0251,,25.52083333,,,,,,FBP-RB-19.png,0.35,1.2,56,0.5,0,7,7,55,1,,,,,,,,,,,,,,,,,,,,,,,,,,,,,,,,,,,,,,,,
,,,,,V1_020,20,Female,2024-05-16_16h05.21.017,jersey_experiment_5_v1,2023.2.2,Win32,84.74576271,,,,,,,,,,,,,,,,565.5368,566.8307,566.8308,571.2074,return,2.1926,,58.85416667,,,,,,FBP-YG-71.png,0.43,1.2,19,0.5,0,8,8,18,1,,,,,,,,,,,,,,,,,,,,,,,,,,,,,,,,,,,,,,,,
,,,,,V1_020,20,Female,2024-05-16_16h05.21.017,jersey_experiment_5_v1,2023.2.2,Win32,84.74576271,,,,,,,,,,,,,,,,571.2076,573.0074,573.0074,576.8429,return,1.2738,,78.64583333,,,,,,FBP-PT-18.png,0.43,1.2,9,1,0,9,9,8,1,,,,,,,,,,,,,,,,,,,,,,,,,,,,,,,,,,,,,,,,
,,,,,V1_020,20,Female,2024-05-16_16h05.21.017,jersey_experiment_5_v1,2023.2.2,Win32,84.74576271,,,,,,,,,,,,,,,,576.8432,578.643,578.643,581.3372,return,1.0868,,50,,,,,,FBP-PT-17.png,0.37,1.2,2,1,0,10,10,1,1,,,,,,,,,,,,,,,,,,,,,,,,,,,,,,,,,,,,,,,,
,,,,,V1_020,20,Female,2024-05-16_16h05.21.017,jersey_experiment_5_v1,2023.2.2,Win32,84.74576271,,,,,,,,,,,,,,,,581.3374,582.6313,582.6313,585.5491,return,1.0829,,99.21875,,,,,,FBP-RB-17.png,0.43,1.2,49,0.5,0,11,11,48,1,,,,,,,,,,,,,,,,,,,,,,,,,,,,,,,,,,,,,,,,
,,,,,V1_020,20,Female,2024-05-16_16h05.21.017,jersey_experiment_5_v1,2023.2.2,Win32,84.74576271,,,,,,,,,,,,,,,,585.5493,586.8432,586.8433,594.2786,return,1.0748,,62.36979167,,,,,,FBP-YG-81.png,0.37,1.2,22,0.5,0,12,12,21,1,,,,,,,,,,,,,,,,,,,,,,,,,,,,,,,,,,,,,,,,
,,,,,V1_020,20,Female,2024-05-16_16h05.21.017,jersey_experiment_5_v1,2023.2.2,Win32,84.74576271,,,,,,,,,,,,,,,,594.279,595.5729,595.5729,598.2202,return,0.9177,,63.15104167,,,,,,FBP-YG-81.png,0.35,1.2,21,0.5,0,13,13,20,1,,,,,,,,,,,,,,,,,,,,,,,,,,,,,,,,,,,,,,,,
,,,,,V1_020,20,Female,2024-05-16_16h05.21.017,jersey_experiment_5_v1,2023.2.2,Win32,84.74576271,,,,,,,,,,,,,,,,598.2204,599.5142,599.5143,602.2791,return,0.8395,,80.078125,,,,,,FBP-RB-19.png,0.43,1.2,59,0.5,0,14,14,58,1,,,,,,,,,,,,,,,,,,,,,,,,,,,,,,,,,,,,,,,,
,,,,,V1_020,20,Female,2024-05-16_16h05.21.017,jersey_experiment_5_v1,2023.2.2,Win32,84.74576271,,,,,,,,,,,,,,,,602.2793,603.5732,603.5732,607.8676,return,1.638,,99.609375,,,,,,FBP-OG-71.png,0.43,1.2,34,0.5,0,15,15,33,1,,,,,,,,,,,,,,,,,,,,,,,,,,,,,,,,,,,,,,,,
,,,,,V1_020,20,Female,2024-05-16_16h05.21.017,jersey_experiment_5_v1,2023.2.2,Win32,84.74576271,,,,,,,,,,,,,,,,607.8679,609.1617,609.1617,614.7266,return,0.7472,,49.86979167,,,,,,FBP-YG-71.png,0.37,1.2,17,0.5,0,16,16,16,1,,,,,,,,,,,,,,,,,,,,,,,,,,,,,,,,,,,,,,,,
,,,,,V1_020,20,Female,2024-05-16_16h05.21.017,jersey_experiment_5_v1,2023.2.2,Win32,84.74576271,,,,,,,,,,,,,,,,614.7268,616.0207,616.0207,621.5973,return,0.7871,,49.86979167,,,,,,FBP-RB-18.png,0.37,1.2,52,0.5,0,17,17,51,1,,,,,,,,,,,,,,,,,,,,,,,,,,,,,,,,,,,,,,,,
,,,,,V1_020,20,Female,2024-05-16_16h05.21.017,jersey_experiment_5_v1,2023.2.2,Win32,84.74576271,,,,,,,,,,,,,,,,621.5974,622.8916,622.8916,626.5271,return,1.3188,,75,,,,,,FBP-YG-71.png,0.45,1.2,20,0.5,0,18,18,19,1,,,,,,,,,,,,,,,,,,,,,,,,,,,,,,,,,,,,,,,,
,,,,,V1_020,20,Female,2024-05-16_16h05.21.017,jersey_experiment_5_v1,2023.2.2,Win32,84.74576271,,,,,,,,,,,,,,,,626.5274,627.8212,627.8212,632.8804,return,1.1899,,80.33854167,,,,,,FBP-RB-18.png,0.43,1.2,54,0.5,0,19,19,53,1,,,,,,,,,,,,,,,,,,,,,,,,,,,,,,,,,,,,,,,,
,,,,,V1_020,20,Female,2024-05-16_16h05.21.017,jersey_experiment_5_v1,2023.2.2,Win32,84.74576271,,,,,,,,,,,,,,,,632.8805,634.1745,634.1745,640.3745,return,1.8897,,50.13020833,,,,,,FBP-OG-71.png,0.37,1.2,32,0.5,0,20,20,31,1,,,,,,,,,,,,,,,,,,,,,,,,,,,,,,,,,,,,,,,,
,,,,,V1_020,20,Female,2024-05-16_16h05.21.017,jersey_experiment_5_v1,2023.2.2,Win32,84.74576271,,,,,,,,,,,,,,,,640.3746,642.1747,642.1747,648.6808,return,1.0038,,35.9375,,,,,,FBP-PT-18.png,0.37,1.2,7,1,0,21,21,6,1,,,,,,,,,,,,,,,,,,,,,,,,,,,,,,,,,,,,,,,,
,,,,,V1_020,20,Female,2024-05-16_16h05.21.017,jersey_experiment_5_v1,2023.2.2,Win32,84.74576271,,,,,,,,,,,,,,,,648.681,649.9749,649.9749,654.7516,return,1.1058,,49.34895833,,,,,,FBP-YG-91.png,0.35,1.2,26,0.5,0,22,22,25,1,,,,,,,,,,,,,,,,,,,,,,,,,,,,,,,,,,,,,,,,
,,,,,V1_020,20,Female,2024-05-16_16h05.21.017,jersey_experiment_5_v1,2023.2.2,Win32,84.74576271,,,,,,,,,,,,,,,,654.7518,656.0457,656.0458,661.0695,return,1.8954,,75,,,,,,FBP-YG-81.png,0.43,1.2,24,0.5,0,23,23,23,1,,,,,,,,,,,,,,,,,,,,,,,,,,,,,,,,,,,,,,,,
,,,,,V1_020,20,Female,2024-05-16_16h05.21.017,jersey_experiment_5_v1,2023.2.2,Win32,84.74576271,,,,,,,,,,,,,,,,661.0697,662.3638,662.3638,666.5757,return,1.7181,,99.73958333,,,,,,FBP-YG-91.png,0.43,1.2,29,0.5,0,24,24,28,1,,,,,,,,,,,,,,,,,,,,,,,,,,,,,,,,,,,,,,,,
,,,,,V1_020,20,Female,2024-05-16_16h05.21.017,jersey_experiment_5_v1,2023.2.2,Win32,84.74576271,,,,,,,,,,,,,,,,666.5758,668.3755,668.3755,671.8699,return,1.3775,,75,,,,,,FBP-PT-17.png,0.4,1.2,3,1,0,25,25,2,1,,,,,,,,,,,,,,,,,,,,,,,,,,,,,,,,,,,,,,,,
,,,,,V1_020,20,Female,2024-05-16_16h05.21.017,jersey_experiment_5_v1,2023.2.2,Win32,84.74576271,,,,,,,,,,,,,,,,671.8701,673.164,673.164,678.4113,return,0.9792,,50,,,,,,FBP-YG-71.png,0.4,1.2,18,0.5,0,26,26,17,1,,,,,,,,,,,,,,,,,,,,,,,,,,,,,,,,,,,,,,,,
,,,,,V1_020,20,Female,2024-05-16_16h05.21.017,jersey_experiment_5_v1,2023.2.2,Win32,84.74576271,,,,,,,,,,,,,,,,678.4115,679.7055,679.7055,683.3409,return,0.9893,,74.609375,,,,,,FBP-RB-18.png,0.45,1.2,55,0.5,0,27,27,54,1,,,,,,,,,,,,,,,,,,,,,,,,,,,,,,,,,,,,,,,,
,,,,,V1_020,20,Female,2024-05-16_16h05.21.017,jersey_experiment_5_v1,2023.2.2,Win32,84.74576271,,,,,,,,,,,,,,,,683.3411,684.635,684.6351,688.9058,return,1.2154,,43.09895833,,,,,,FBP-YG-71.png,0.35,1.2,16,0.5,0,28,28,15,1,,,,,,,,,,,,,,,,,,,,,,,,,,,,,,,,,,,,,,,,
,,,,,V1_020,20,Female,2024-05-16_16h05.21.017,jersey_experiment_5_v1,2023.2.2,Win32,84.74576271,,,,,,,,,,,,,,,,688.906,690.2,690.2,695.259,return,1.037,,91.92708333,,,,,,FBP-RB-19.png,0.45,1.2,60,0.5,0,29,29,59,1,,,,,,,,,,,,,,,,,,,,,,,,,,,,,,,,,,,,,,,,
,,,,,V1_020,20,Female,2024-05-16_16h05.21.017,jersey_experiment_5_v1,2023.2.2,Win32,84.74576271,,,,,,,,,,,,,,,,695.2591,696.5532,696.5532,704.4123,return,1.896,,49.73958333,,,,,,FBP-OG-81.png,0.4,1.2,38,0.5,0,30,30,37,1,,,,,,,,,,,,,,,,,,,,,,,,,,,,,,,,,,,,,,,,
,,,,,V1_020,20,Female,2024-05-16_16h05.21.017,jersey_experiment_5_v1,2023.2.2,Win32,84.74576271,,,,,,,,,,,,,,,,704.4125,705.7065,705.7065,709.6007,return,1.0219,,57.94270833,,,,,,FBP-YG-91.png,0.4,1.2,28,0.5,0,31,31,27,1,,,,,,,,,,,,,,,,,,,,,,,,,,,,,,,,,,,,,,,,
,,,,,V1_020,20,Female,2024-05-16_16h05.21.017,jersey_experiment_5_v1,2023.2.2,Win32,84.74576271,,,,,,,,,,,,,,,,709.6009,710.8947,710.8948,718.3893,return,0.7968,,75,,,,,,FBP-OG-81.png,0.45,1.2,40,0.5,0,32,32,39,1,,,,,,,,,,,,,,,,,,,,,,,,,,,,,,,,,,,,,,,,
,,,,,V1_020,20,Female,2024-05-16_16h05.21.017,jersey_experiment_5_v1,2023.2.2,Win32,84.74576271,,,,,,,,,,,,,,,,718.3895,719.6834,719.6834,721.8835,return,1.1081,,99.73958333,,,,,,FBP-OG-71.png,0.45,1.2,35,0.5,0,33,33,34,1,,,,,,,,,,,,,,,,,,,,,,,,,,,,,,,,,,,,,,,,
,,,,,V1_020,20,Female,2024-05-16_16h05.21.017,jersey_experiment_5_v1,2023.2.2,Win32,84.74576271,,,,,,,,,,,,,,,,721.8836,723.1776,723.1776,725.9307,return,1.0256,,25.78125,,,,,,FBP-OG-81.png,0.35,1.2,36,0.5,0,34,34,35,1,,,,,,,,,,,,,,,,,,,,,,,,,,,,,,,,,,,,,,,,
,,,,,V1_020,20,Female,2024-05-16_16h05.21.017,jersey_experiment_5_v1,2023.2.2,Win32,84.74576271,,,,,,,,,,,,,,,,725.9308,727.7308,727.7308,729.8367,return,1.0128,,75.390625,,,,,,FBP-PT-19.png,0.43,1.2,14,1,0,35,35,13,1,,,,,,,,,,,,,,,,,,,,,,,,,,,,,,,,,,,,,,,,
,,,,,V1_020,20,Female,2024-05-16_16h05.21.017,jersey_experiment_5_v1,2023.2.2,Win32,84.74576271,,,,,,,,,,,,,,,,729.8368,731.1308,731.1308,733.3073,return,0.8714,,99.609375,,,,,,FBP-YG-81.png,0.45,1.2,25,0.5,0,36,36,24,1,,,,,,,,,,,,,,,,,,,,,,,,,,,,,,,,,,,,,,,,
,,,,,V1_020,20,Female,2024-05-16_16h05.21.017,jersey_experiment_5_v1,2023.2.2,Win32,84.74576271,,,,,,,,,,,,,,,,733.3076,734.6016,734.6016,736.9193,return,0.8536,,24.73958333,,,,,,FBP-RB-17.png,0.4,1.2,48,0.5,0,37,37,47,1,,,,,,,,,,,,,,,,,,,,,,,,,,,,,,,,,,,,,,,,
,,,,,V1_020,20,Female,2024-05-16_16h05.21.017,jersey_experiment_5_v1,2023.2.2,Win32,84.74576271,,,,,,,,,,,,,,,,736.9194,738.7194,738.7194,740.59,return,0.8105,,99.86979167,,,,,,FBP-PT-17.png,0.45,1.2,5,1,0,38,38,4,1,,,,,,,,,,,,,,,,,,,,,,,,,,,,,,,,,,,,,,,,
,,,,,V1_020,20,Female,2024-05-16_16h05.21.017,jersey_experiment_5_v1,2023.2.2,Win32,84.74576271,,,,,,,,,,,,,,,,740.5902,741.8842,741.8843,747.1903,return,0.9134,,0.260416667,,,,,,FBP-OG-91.png,0.35,1.2,41,0.5,0,39,39,40,1,,,,,,,,,,,,,,,,,,,,,,,,,,,,,,,,,,,,,,,,
,,,,,V1_020,20,Female,2024-05-16_16h05.21.017,jersey_experiment_5_v1,2023.2.2,Win32,84.74576271,,,,,,,,,,,,,,,,747.1906,748.4844,748.4844,751.3082,return,0.8372,,25.390625,,,,,,FBP-RB-19.png,0.4,1.2,58,0.5,0,40,40,57,1,,,,,,,,,,,,,,,,,,,,,,,,,,,,,,,,,,,,,,,,
,,,,,V1_020,20,Female,2024-05-16_16h05.21.017,jersey_experiment_5_v1,2023.2.2,Win32,84.74576271,,,,,,,,,,,,,,,,751.3084,752.6022,752.6023,755.8494,return,0.8494,,24.08854167,,,,,,FBP-RB-19.png,0.37,1.2,57,0.5,0,41,41,56,1,,,,,,,,,,,,,,,,,,,,,,,,,,,,,,,,,,,,,,,,
,,,,,V1_020,20,Female,2024-05-16_16h05.21.017,jersey_experiment_5_v1,2023.2.2,Win32,84.74576271,,,,,,,,,,,,,,,,755.8496,757.1436,757.1436,761.7202,return,0.744,,85.9375,,,,,,FBP-RB-17.png,0.45,1.2,50,0.5,0,42,42,49,1,,,,,,,,,,,,,,,,,,,,,,,,,,,,,,,,,,,,,,,,
,,,,,V1_020,20,Female,2024-05-16_16h05.21.017,jersey_experiment_5_v1,2023.2.2,Win32,84.74576271,,,,,,,,,,,,,,,,761.7205,763.5205,763.5205,765.2849,return,0.8439,,99.47916667,,,,,,FBP-PT-17.png,0.43,1.2,4,1,0,43,43,3,1,,,,,,,,,,,,,,,,,,,,,,,,,,,,,,,,,,,,,,,,
,,,,,V1_020,20,Female,2024-05-16_16h05.21.017,jersey_experiment_5_v1,2023.2.2,Win32,84.74576271,,,,,,,,,,,,,,,,765.2852,767.085,767.0851,770.3086,return,0.7147,,25.390625,,,,,,FBP-PT-17.png,0.35,1.2,1,1,0,44,44,0,1,,,,,,,,,,,,,,,,,,,,,,,,,,,,,,,,,,,,,,,,
,,,,,V1_020,20,Female,2024-05-16_16h05.21.017,jersey_experiment_5_v1,2023.2.2,Win32,84.74576271,,,,,,,,,,,,,,,,770.3089,772.1088,772.1088,775.0148,return,0.723,,75.13020833,,,,,,FBP-PT-18.png,0.4,1.2,8,1,0,45,45,7,1,,,,,,,,,,,,,,,,,,,,,,,,,,,,,,,,,,,,,,,,
,,,,,V1_020,20,Female,2024-05-16_16h05.21.017,jersey_experiment_5_v1,2023.2.2,Win32,84.74576271,,,,,,,,,,,,,,,,775.015,776.3089,776.3089,779.6621,return,0.7425,,11.84895833,,,,,,FBP-RB-17.png,0.35,1.2,46,0.5,0,46,46,45,1,,,,,,,,,,,,,,,,,,,,,,,,,,,,,,,,,,,,,,,,
,,,,,V1_020,20,Female,2024-05-16_16h05.21.017,jersey_experiment_5_v1,2023.2.2,Win32,84.74576271,,,,,,,,,,,,,,,,779.6623,780.9563,780.9563,784.5917,return,0.6827,,86.71875,,,,,,FBP-OG-81.png,0.43,1.2,39,0.5,0,47,47,38,1,,,,,,,,,,,,,,,,,,,,,,,,,,,,,,,,,,,,,,,,
,,,,,V1_020,20,Female,2024-05-16_16h05.21.017,jersey_experiment_5_v1,2023.2.2,Win32,84.74576271,,,,,,,,,,,,,,,,784.5917,786.3917,786.3917,788.886,return,1.2196,,24.73958333,,,,,,FBP-PT-18.png,0.35,1.2,6,1,0,48,48,5,1,,,,,,,,,,,,,,,,,,,,,,,,,,,,,,,,,,,,,,,,
,,,,,V1_020,20,Female,2024-05-16_16h05.21.017,jersey_experiment_5_v1,2023.2.2,Win32,84.74576271,,,,,,,,,,,,,,,,788.8862,790.1801,790.1801,795.6862,return,0.6785,,54.94791667,,,,,,FBP-OG-91.png,0.37,1.2,42,0.5,0,49,49,41,1,,,,,,,,,,,,,,,,,,,,,,,,,,,,,,,,,,,,,,,,
,,,,,V1_020,20,Female,2024-05-16_16h05.21.017,jersey_experiment_5_v1,2023.2.2,Win32,84.74576271,,,,,,,,,,,,,,,,795.6864,796.9803,796.9804,801.3099,return,2.4837,,99.609375,,,,,,FBP-YG-91.png,0.45,1.2,30,0.5,0,50,50,29,1,,,,,,,,,,,,,,,,,,,,,,,,,,,,,,,,,,,,,,,,
,,,,,V1_020,20,Female,2024-05-16_16h05.21.017,jersey_experiment_5_v1,2023.2.2,Win32,84.74576271,,,,,,,,,,,,,,,,801.3102,803.1098,803.1099,806.7337,return,0.9883,,49.73958333,,,,,,FBP-PT-19.png,0.4,1.2,13,1,0,51,51,12,1,,,,,,,,,,,,,,,,,,,,,,,,,,,,,,,,,,,,,,,,
,,,,,V1_020,20,Female,2024-05-16_16h05.21.017,jersey_experiment_5_v1,2023.2.2,Win32,84.74576271,,,,,,,,,,,,,,,,806.7338,808.0276,808.0276,817.7341,return,1.549,,74.47916667,,,,,,FBP-OG-91.png,0.43,1.2,44,0.5,0,52,52,43,1,,,,,,,,,,,,,,,,,,,,,,,,,,,,,,,,,,,,,,,,
,,,,,V1_020,20,Female,2024-05-16_16h05.21.017,jersey_experiment_5_v1,2023.2.2,Win32,84.74576271,,,,,,,,,,,,,,,,817.7343,819.0282,819.0282,821.6402,return,0.8044,,24.86979167,,,,,,FBP-YG-91.png,0.37,1.2,27,0.5,0,53,53,26,1,,,,,,,,,,,,,,,,,,,,,,,,,,,,,,,,,,,,,,,,
,,,,,V1_020,20,Female,2024-05-16_16h05.21.017,jersey_experiment_5_v1,2023.2.2,Win32,84.74576271,,,,,,,,,,,,,,,,821.6404,823.4402,823.4402,826.2167,return,0.8386,,99.47916667,,,,,,FBP-PT-18.png,0.45,1.2,10,1,0,54,54,9,1,,,,,,,,,,,,,,,,,,,,,,,,,,,,,,,,,,,,,,,,
,,,,,V1_020,20,Female,2024-05-16_16h05.21.017,jersey_experiment_5_v1,2023.2.2,Win32,84.74576271,,,,,,,,,,,,,,,,826.2168,827.5108,827.5108,832.2993,return,0.8486,,14.71354167,,,,,,FBP-RB-18.png,0.35,1.2,51,0.5,0,55,55,50,1,,,,,,,,,,,,,,,,,,,,,,,,,,,,,,,,,,,,,,,,
,,,,,V1_020,20,Female,2024-05-16_16h05.21.017,jersey_experiment_5_v1,2023.2.2,Win32,84.74576271,,,,,,,,,,,,,,,,832.2995,833.5935,833.5935,838.8642,return,0.7898,,34.89583333,,,,,,FBP-OG-71.png,0.35,1.2,31,0.5,0,56,56,30,1,,,,,,,,,,,,,,,,,,,,,,,,,,,,,,,,,,,,,,,,
,,,,,V1_020,20,Female,2024-05-16_16h05.21.017,jersey_experiment_5_v1,2023.2.2,Win32,84.74576271,,,,,,,,,,,,,,,,838.8643,840.1585,840.1585,842.6526,return,1.0356,,50,,,,,,FBP-OG-81.png,0.37,1.2,37,0.5,0,57,57,36,1,,,,,,,,,,,,,,,,,,,,,,,,,,,,,,,,,,,,,,,,
,,,,,V1_020,20,Female,2024-05-16_16h05.21.017,jersey_experiment_5_v1,2023.2.2,Win32,84.74576271,,,,,,,,,,,,,,,,842.6528,843.9468,843.9468,846.5704,return,0.7433,,12.890625,,,,,,FBP-RB-17.png,0.37,1.2,47,0.5,0,58,58,46,1,,,,,,,,,,,,,,,,,,,,,,,,,,,,,,,,,,,,,,,,
,,,,,V1_020,20,Female,2024-05-16_16h05.21.017,jersey_experiment_5_v1,2023.2.2,Win32,84.74576271,,,,,,,,,,,,,,,,846.5705,847.8644,847.8644,851.5117,return,0.7691,,24.86979167,,,,,,FBP-YG-81.png,0.4,1.2,23,0.5,0,59,59,22,1,,,,,,,,,,,,,,,,,,,,,,,,,,,,,,,,,,,,,,,,
,,,,,V1_020,20,Female,2024-05-16_16h05.21.017,jersey_experiment_5_v1,2023.2.2,Win32,84.74576271,,,,,,,,,,,,,,,,,,,,,,,,,,,,,,,,,,,,,,,851.5121,971.5166,,,,,,,,,,,,,,,,,,,,,,,,,,,,,,,,,,,,,,
,,,,,V1_020,20,Female,2024-05-16_16h05.21.017,jersey_experiment_5_v1,2023.2.2,Win32,84.74576271,,,,,,,,,,,,,,,,,,,,,,,,,,,,,,,,,,,,,,,,,971.5168,992.1997,return,20.6749,,,,,,,,,,,,,,,,,,,,,,,,,,,,,,,,,,
,,,,,V1_020,20,Female,2024-05-16_16h05.21.017,jersey_experiment_5_v1,2023.2.2,Win32,84.74576271,,,,,,,,,,,,,,,,992.2084,993.5051,993.5052,1000.376,return,3.2509,,99.73958333,,,,,,FBP-PT-81.png,0.45,1.2,10,0.5,,,,,,,,,,,,,0,0,0,9,1,,,,,,,,,,,,,,,,,,,,,,,,,,,,
,,,,,V1_020,20,Female,2024-05-16_16h05.21.017,jersey_experiment_5_v1,2023.2.2,Win32,84.74576271,,,,,,,,,,,,,,,,1000.3805,1002.176,1002.176,1007.8939,return,1.2783,,99.609375,,,,,,FBP-RB-91.png,0.43,1.2,59,1,,,,,,,,,,,,,0,1,1,58,1,,,,,,,,,,,,,,,,,,,,,,,,,,,,
,,,,,V1_020,20,Female,2024-05-16_16h05.21.017,jersey_experiment_5_v1,2023.2.2,Win32,84.74576271,,,,,,,,,,,,,,,,1007.8941,1009.694,1009.694,1013.2588,return,1.072,,24.73958333,,,,,,FBP-OG-19.png,0.35,1.2,41,1,,,,,,,,,,,,,0,2,2,40,1,,,,,,,,,,,,,,,,,,,,,,,,,,,,
,,,,,V1_020,20,Female,2024-05-16_16h05.21.017,jersey_experiment_5_v1,2023.2.2,Win32,84.74576271,,,,,,,,,,,,,,,,1013.259,1015.059,1015.059,1017.9296,return,0.7549,,62.76041667,,,,,,FBP-YG-17.png,0.35,1.2,16,1,,,,,,,,,,,,,0,3,3,15,1,,,,,,,,,,,,,,,,,,,,,,,,,,,,
,,,,,V1_020,20,Female,2024-05-16_16h05.21.017,jersey_experiment_5_v1,2023.2.2,Win32,84.74576271,,,,,,,,,,,,,,,,1017.9299,1019.2237,1019.2237,1022.0239,return,0.5923,,86.06770833,,,,,,FBP-PT-91.png,0.4,1.2,13,0.5,,,,,,,,,,,,,0,4,4,12,1,,,,,,,,,,,,,,,,,,,,,,,,,,,,
,,,,,V1_020,20,Female,2024-05-16_16h05.21.017,jersey_experiment_5_v1,2023.2.2,Win32,84.74576271,,,,,,,,,,,,,,,,1022.0241,1023.8238,1023.8239,1027.6476,return,1.097,,99.86979167,,,,,,FBP-RB-81.png,0.45,1.2,55,1,,,,,,,,,,,,,0,5,5,54,1,,,,,,,,,,,,,,,,,,,,,,,,,,,,
,,,,,V1_020,20,Female,2024-05-16_16h05.21.017,jersey_experiment_5_v1,2023.2.2,Win32,84.74576271,,,,,,,,,,,,,,,,1027.6479,1028.9418,1028.9418,1032.3654,return,1.1297,,36.328125,,,,,,FBP-PT-81.png,0.37,1.2,7,0.5,,,,,,,,,,,,,0,6,6,6,1,,,,,,,,,,,,,,,,,,,,,,,,,,,,
,,,,,V1_020,20,Female,2024-05-16_16h05.21.017,jersey_experiment_5_v1,2023.2.2,Win32,84.74576271,,,,,,,,,,,,,,,,1032.3656,1034.1654,1034.1654,1037.0128,return,0.7353,,85.546875,,,,,,FBP-OG-19.png,0.45,1.2,45,1,,,,,,,,,,,,,0,7,7,44,1,,,,,,,,,,,,,,,,,,,,,,,,,,,,
,,,,,V1_020,20,Female,2024-05-16_16h05.21.017,jersey_experiment_5_v1,2023.2.2,Win32,84.74576271,,,,,,,,,,,,,,,,1037.013,1038.3068,1038.3068,1043.3069,return,1.2604,,25.52083333,,,,,,FBP-PT-91.png,0.37,1.2,12,0.5,,,,,,,,,,,,,0,8,8,11,1,,,,,,,,,,,,,,,,,,,,,,,,,,,,
,,,,,V1_020,20,Female,2024-05-16_16h05.21.017,jersey_experiment_5_v1,2023.2.2,Win32,84.74576271,,,,,,,,,,,,,,,,1043.3071,1045.1069,1045.107,1054.8957,return,0.9544,,99.73958333,,,,,,FBP-OG-18.png,0.43,1.2,39,1,,,,,,,,,,,,,0,9,9,38,1,,,,,,,,,,,,,,,,,,,,,,,,,,,,
,,,,,V1_020,20,Female,2024-05-16_16h05.21.017,jersey_experiment_5_v1,2023.2.2,Win32,84.74576271,,,,,,,,,,,,,,,,1054.896,1056.6957,1056.6957,1060.3429,return,0.8411,,36.328125,,,,,,FBP-OG-17.png,0.4,1.2,33,1,,,,,,,,,,,,,0,10,10,32,1,,,,,,,,,,,,,,,,,,,,,,,,,,,,
,,,,,V1_020,20,Female,2024-05-16_16h05.21.017,jersey_experiment_5_v1,2023.2.2,Win32,84.74576271,,,,,,,,,,,,,,,,1060.3431,1062.143,1062.1431,1065.7666,return,0.7821,,86.84895833,,,,,,FBP-RB-71.png,0.43,1.2,49,1,,,,,,,,,,,,,0,11,11,48,1,,,,,,,,,,,,,,,,,,,,,,,,,,,,
,,,,,V1_020,20,Female,2024-05-16_16h05.21.017,jersey_experiment_5_v1,2023.2.2,Win32,84.74576271,,,,,,,,,,,,,,,,1065.7669,1067.0608,1067.0608,1075.2375,return,1.679,,50.13020833,,,,,,FBP-PT-71.png,0.37,1.2,2,0.5,,,,,,,,,,,,,0,12,12,1,1,,,,,,,,,,,,,,,,,,,,,,,,,,,,
,,,,,V1_020,20,Female,2024-05-16_16h05.21.017,jersey_experiment_5_v1,2023.2.2,Win32,84.74576271,,,,,,,,,,,,,,,,1075.2378,1077.0376,1077.0377,1080.4612,return,1.4827,,74.73958333,,,,,,FBP-RB-81.png,0.43,1.2,54,1,,,,,,,,,,,,,0,13,13,53,1,,,,,,,,,,,,,,,,,,,,,,,,,,,,
,,,,,V1_020,20,Female,2024-05-16_16h05.21.017,jersey_experiment_5_v1,2023.2.2,Win32,84.74576271,,,,,,,,,,,,,,,,1080.4614,1082.2614,1082.2614,1086.1085,return,0.7304,,24.73958333,,,,,,FBP-RB-71.png,0.35,1.2,46,1,,,,,,,,,,,,,0,14,14,45,1,,,,,,,,,,,,,,,,,,,,,,,,,,,,
,,,,,V1_020,20,Female,2024-05-16_16h05.21.017,jersey_experiment_5_v1,2023.2.2,Win32,84.74576271,,,,,,,,,,,,,,,,1086.1087,1087.9086,1087.9086,1090.9088,return,0.9281,,74.86979167,,,,,,FBP-YG-17.png,0.43,1.2,19,1,,,,,,,,,,,,,0,15,15,18,1,,,,,,,,,,,,,,,,,,,,,,,,,,,,
,,,,,V1_020,20,Female,2024-05-16_16h05.21.017,jersey_experiment_5_v1,2023.2.2,Win32,84.74576271,,,,,,,,,,,,,,,,1090.9089,1092.7088,1092.7089,1095.3207,return,1.0288,,49.86979167,,,,,,FBP-YG-19.png,0.4,1.2,28,1,,,,,,,,,,,,,0,16,16,27,1,,,,,,,,,,,,,,,,,,,,,,,,,,,,
,,,,,V1_020,20,Female,2024-05-16_16h05.21.017,jersey_experiment_5_v1,2023.2.2,Win32,84.74576271,,,,,,,,,,,,,,,,1095.3211,1097.1208,1097.1209,1100.862,return,0.646,,68.88020833,,,,,,FBP-YG-19.png,0.43,1.2,29,1,,,,,,,,,,,,,0,17,17,28,1,,,,,,,,,,,,,,,,,,,,,,,,,,,,
,,,,,V1_020,20,Female,2024-05-16_16h05.21.017,jersey_experiment_5_v1,2023.2.2,Win32,84.74576271,,,,,,,,,,,,,,,,1100.8622,1102.6622,1102.6622,1113.6271,return,0.6832,,25,,,,,,FBP-OG-17.png,0.35,1.2,31,1,,,,,,,,,,,,,0,18,18,30,1,,,,,,,,,,,,,,,,,,,,,,,,,,,,
,,,,,V1_020,20,Female,2024-05-16_16h05.21.017,jersey_experiment_5_v1,2023.2.2,Win32,84.74576271,,,,,,,,,,,,,,,,1113.6274,1115.4272,1115.4273,1119.7686,return,2.864,,24.609375,,,,,,FBP-YG-18.png,0.37,1.2,22,1,,,,,,,,,,,,,0,19,19,21,1,,,,,,,,,,,,,,,,,,,,,,,,,,,,
,,,,,V1_020,20,Female,2024-05-16_16h05.21.017,jersey_experiment_5_v1,2023.2.2,Win32,84.74576271,,,,,,,,,,,,,,,,1119.7687,1121.5687,1121.5687,1123.8629,return,0.7714,,11.84895833,,,,,,FBP-RB-81.png,0.37,1.2,52,1,,,,,,,,,,,,,0,20,20,51,1,,,,,,,,,,,,,,,,,,,,,,,,,,,,
,,,,,V1_020,20,Female,2024-05-16_16h05.21.017,jersey_experiment_5_v1,2023.2.2,Win32,84.74576271,,,,,,,,,,,,,,,,1123.8631,1125.6628,1125.6628,1131.4399,return,0.696,,62.109375,,,,,,FBP-OG-18.png,0.4,1.2,38,1,,,,,,,,,,,,,0,21,21,37,1,,,,,,,,,,,,,,,,,,,,,,,,,,,,
,,,,,V1_020,20,Female,2024-05-16_16h05.21.017,jersey_experiment_5_v1,2023.2.2,Win32,84.74576271,,,,,,,,,,,,,,,,1131.4401,1133.2396,1133.2396,1135.981,return,0.6117,,36.19791667,,,,,,FBP-RB-91.png,0.37,1.2,57,1,,,,,,,,,,,,,0,22,22,56,1,,,,,,,,,,,,,,,,,,,,,,,,,,,,
,,,,,V1_020,20,Female,2024-05-16_16h05.21.017,jersey_experiment_5_v1,2023.2.2,Win32,84.74576271,,,,,,,,,,,,,,,,1135.9812,1137.781,1137.781,1140.5105,return,0.6586,,91.14583333,,,,,,FBP-OG-17.png,0.45,1.2,35,1,,,,,,,,,,,,,0,23,23,34,1,,,,,,,,,,,,,,,,,,,,,,,,,,,,
,,,,,V1_020,20,Female,2024-05-16_16h05.21.017,jersey_experiment_5_v1,2023.2.2,Win32,84.74576271,,,,,,,,,,,,,,,,1140.5108,1142.3107,1142.3107,1145.64,return,0.6746,,36.71875,,,,,,FBP-YG-17.png,0.37,1.2,17,1,,,,,,,,,,,,,0,24,24,16,1,,,,,,,,,,,,,,,,,,,,,,,,,,,,
,,,,,V1_020,20,Female,2024-05-16_16h05.21.017,jersey_experiment_5_v1,2023.2.2,Win32,84.74576271,,,,,,,,,,,,,,,,1145.6401,1146.9343,1146.9343,1150.8639,return,0.7062,,81.11979167,,,,,,FBP-PT-81.png,0.43,1.2,9,0.5,,,,,,,,,,,,,0,25,25,8,1,,,,,,,,,,,,,,,,,,,,,,,,,,,,
,,,,,V1_020,20,Female,2024-05-16_16h05.21.017,jersey_experiment_5_v1,2023.2.2,Win32,84.74576271,,,,,,,,,,,,,,,,1150.8641,1152.6639,1152.6639,1156.4876,return,1.193,,38.02083333,,,,,,FBP-RB-91.png,0.4,1.2,58,1,,,,,,,,,,,,,0,26,26,57,1,,,,,,,,,,,,,,,,,,,,,,,,,,,,
,,,,,V1_020,20,Female,2024-05-16_16h05.21.017,jersey_experiment_5_v1,2023.2.2,Win32,84.74576271,,,,,,,,,,,,,,,,1156.4878,1158.2878,1158.2878,1171.3586,return,1.0119,,1.302083333,,,,,,FBP-YG-19.png,0.35,1.2,26,1,,,,,,,,,,,,,0,27,27,25,1,,,,,,,,,,,,,,,,,,,,,,,,,,,,
,,,,,V1_020,20,Female,2024-05-16_16h05.21.017,jersey_experiment_5_v1,2023.2.2,Win32,84.74576271,,,,,,,,,,,,,,,,1171.3588,1172.6529,1172.6529,1180.5708,return,0.8254,,74.34895833,,,,,,FBP-PT-91.png,0.45,1.2,15,0.5,,,,,,,,,,,,,0,28,28,14,1,,,,,,,,,,,,,,,,,,,,,,,,,,,,
,,,,,V1_020,20,Female,2024-05-16_16h05.21.017,jersey_experiment_5_v1,2023.2.2,Win32,84.74576271,,,,,,,,,,,,,,,,1180.5711,1181.8651,1181.8651,1191.6889,return,0.8284,,55.72916667,,,,,,FBP-PT-91.png,0.35,1.2,11,0.5,,,,,,,,,,,,,0,29,29,10,1,,,,,,,,,,,,,,,,,,,,,,,,,,,,
,,,,,V1_020,20,Female,2024-05-16_16h05.21.017,jersey_experiment_5_v1,2023.2.2,Win32,84.74576271,,,,,,,,,,,,,,,,1191.6891,1193.4891,1193.4891,1195.7244,return,0.9551,,24.47916667,,,,,,FBP-RB-81.png,0.35,1.2,51,1,,,,,,,,,,,,,0,30,30,50,1,,,,,,,,,,,,,,,,,,,,,,,,,,,,
,,,,,V1_020,20,Female,2024-05-16_16h05.21.017,jersey_experiment_5_v1,2023.2.2,Win32,84.74576271,,,,,,,,,,,,,,,,1195.7246,1197.5244,1197.5244,1201.5951,return,0.7318,,99.73958333,,,,,,FBP-RB-91.png,0.45,1.2,60,1,,,,,,,,,,,,,0,31,31,59,1,,,,,,,,,,,,,,,,,,,,,,,,,,,,
,,,,,V1_020,20,Female,2024-05-16_16h05.21.017,jersey_experiment_5_v1,2023.2.2,Win32,84.74576271,,,,,,,,,,,,,,,,1201.5953,1203.3953,1203.3953,1205.3835,return,0.8061,,99.47916667,,,,,,FBP-YG-18.png,0.45,1.2,25,1,,,,,,,,,,,,,0,32,32,24,1,,,,,,,,,,,,,,,,,,,,,,,,,,,,
,,,,,V1_020,20,Female,2024-05-16_16h05.21.017,jersey_experiment_5_v1,2023.2.2,Win32,84.74576271,,,,,,,,,,,,,,,,1205.3836,1207.1836,1207.1836,1209.2542,return,0.8288,,24.73958333,,,,,,FBP-YG-18.png,0.35,1.2,21,1,,,,,,,,,,,,,0,33,33,20,1,,,,,,,,,,,,,,,,,,,,,,,,,,,,
,,,,,V1_020,20,Female,2024-05-16_16h05.21.017,jersey_experiment_5_v1,2023.2.2,Win32,84.74576271,,,,,,,,,,,,,,,,1209.2544,1210.5485,1210.5485,1213.4072,return,0.6824,,92.578125,,,,,,FBP-PT-91.png,0.43,1.2,14,0.5,,,,,,,,,,,,,0,34,34,13,1,,,,,,,,,,,,,,,,,,,,,,,,,,,,
,,,,,V1_020,20,Female,2024-05-16_16h05.21.017,jersey_experiment_5_v1,2023.2.2,Win32,84.74576271,,,,,,,,,,,,,,,,1213.4073,1214.7015,1214.7015,1218.5251,return,0.7064,,40.625,,,,,,FBP-PT-81.png,0.35,1.2,6,0.5,,,,,,,,,,,,,0,35,35,5,1,,,,,,,,,,,,,,,,,,,,,,,,,,,,
,,,,,V1_020,20,Female,2024-05-16_16h05.21.017,jersey_experiment_5_v1,2023.2.2,Win32,84.74576271,,,,,,,,,,,,,,,,1218.5253,1220.3251,1220.3252,1222.3606,return,0.804,,74.47916667,,,,,,FBP-OG-19.png,0.43,1.2,44,1,,,,,,,,,,,,,0,36,36,43,1,,,,,,,,,,,,,,,,,,,,,,,,,,,,
,,,,,V1_020,20,Female,2024-05-16_16h05.21.017,jersey_experiment_5_v1,2023.2.2,Win32,84.74576271,,,,,,,,,,,,,,,,1222.3609,1224.1607,1224.1607,1227.655,return,0.7856,,17.83854167,,,,,,FBP-OG-18.png,0.35,1.2,36,1,,,,,,,,,,,,,0,37,37,35,1,,,,,,,,,,,,,,,,,,,,,,,,,,,,
,,,,,V1_020,20,Female,2024-05-16_16h05.21.017,jersey_experiment_5_v1,2023.2.2,Win32,84.74576271,,,,,,,,,,,,,,,,1227.6552,1229.4553,1229.4553,1235.7493,return,0.7239,,25,,,,,,FBP-OG-19.png,0.37,1.2,42,1,,,,,,,,,,,,,0,38,38,41,1,,,,,,,,,,,,,,,,,,,,,,,,,,,,
,,,,,V1_020,20,Female,2024-05-16_16h05.21.017,jersey_experiment_5_v1,2023.2.2,Win32,84.74576271,,,,,,,,,,,,,,,,1235.7495,1237.0476,1237.0476,1239.7023,return,0.6417,,74.47916667,,,,,,FBP-PT-71.png,0.43,1.2,4,0.5,,,,,,,,,,,,,0,39,39,3,1,,,,,,,,,,,,,,,,,,,,,,,,,,,,
,,,,,V1_020,20,Female,2024-05-16_16h05.21.017,jersey_experiment_5_v1,2023.2.2,Win32,84.74576271,,,,,,,,,,,,,,,,1239.7025,1241.5024,1241.5024,1246.659,return,0.6927,,50,,,,,,FBP-RB-81.png,0.4,1.2,53,1,,,,,,,,,,,,,0,40,40,52,1,,,,,,,,,,,,,,,,,,,,,,,,,,,,
,,,,,V1_020,20,Female,2024-05-16_16h05.21.017,jersey_experiment_5_v1,2023.2.2,Win32,84.74576271,,,,,,,,,,,,,,,,1246.6591,1248.4556,1248.4557,1250.0134,return,0.7191,,75.13020833,,,,,,FBP-OG-18.png,0.45,1.2,40,1,,,,,,,,,,,,,0,41,41,39,1,,,,,,,,,,,,,,,,,,,,,,,,,,,,
,,,,,V1_020,20,Female,2024-05-16_16h05.21.017,jersey_experiment_5_v1,2023.2.2,Win32,84.74576271,,,,,,,,,,,,,,,,1250.0136,1251.8118,1251.8118,1254.2593,return,0.7765,,26.04166667,,,,,,FBP-RB-91.png,0.35,1.2,56,1,,,,,,,,,,,,,0,42,42,55,1,,,,,,,,,,,,,,,,,,,,,,,,,,,,
,,,,,V1_020,20,Female,2024-05-16_16h05.21.017,jersey_experiment_5_v1,2023.2.2,Win32,84.74576271,,,,,,,,,,,,,,,,1254.2595,1256.056,1256.056,1258.009,return,0.6969,,49.73958333,,,,,,FBP-OG-19.png,0.4,1.2,43,1,,,,,,,,,,,,,0,43,43,42,1,,,,,,,,,,,,,,,,,,,,,,,,,,,,
,,,,,V1_020,20,Female,2024-05-16_16h05.21.017,jersey_experiment_5_v1,2023.2.2,Win32,84.74576271,,,,,,,,,,,,,,,,1258.0091,1259.8091,1259.8091,1261.7033,return,0.5708,,74.86979167,,,,,,FBP-YG-19.png,0.45,1.2,30,1,,,,,,,,,,,,,0,44,44,29,1,,,,,,,,,,,,,,,,,,,,,,,,,,,,
,,,,,V1_020,20,Female,2024-05-16_16h05.21.017,jersey_experiment_5_v1,2023.2.2,Win32,84.74576271,,,,,,,,,,,,,,,,1261.7034,1263.5034,1263.5034,1271.3859,return,0.7916,,38.02083333,,,,,,FBP-OG-17.png,0.37,1.2,32,1,,,,,,,,,,,,,0,45,45,31,1,,,,,,,,,,,,,,,,,,,,,,,,,,,,
,,,,,V1_020,20,Female,2024-05-16_16h05.21.017,jersey_experiment_5_v1,2023.2.2,Win32,84.74576271,,,,,,,,,,,,,,,,1271.3862,1272.6802,1272.6802,1277.1307,return,0.6224,,57.16145833,,,,,,FBP-PT-71.png,0.35,1.2,1,0.5,,,,,,,,,,,,,0,46,46,0,1,,,,,,,,,,,,,,,,,,,,,,,,,,,,
,,,,,V1_020,20,Female,2024-05-16_16h05.21.017,jersey_experiment_5_v1,2023.2.2,Win32,84.74576271,,,,,,,,,,,,,,,,1277.1309,1278.9272,1278.9272,1281.4499,return,0.7298,,49.609375,,,,,,FBP-YG-17.png,0.4,1.2,18,1,,,,,,,,,,,,,0,47,47,17,1,,,,,,,,,,,,,,,,,,,,,,,,,,,,
,,,,,V1_020,20,Female,2024-05-16_16h05.21.017,jersey_experiment_5_v1,2023.2.2,Win32,84.74576271,,,,,,,,,,,,,,,,1281.45,1283.2451,1283.2451,1284.7629,return,0.6611,,84.11458333,,,,,,FBP-RB-71.png,0.45,1.2,50,1,,,,,,,,,,,,,0,48,48,49,1,,,,,,,,,,,,,,,,,,,,,,,,,,,,
,,,,,V1_020,20,Female,2024-05-16_16h05.21.017,jersey_experiment_5_v1,2023.2.2,Win32,84.74576271,,,,,,,,,,,,,,,,1284.7631,1286.5629,1286.5629,1293.8456,return,0.6191,,58.72395833,,,,,,FBP-RB-71.png,0.4,1.2,48,1,,,,,,,,,,,,,0,49,49,47,1,,,,,,,,,,,,,,,,,,,,,,,,,,,,
,,,,,V1_020,20,Female,2024-05-16_16h05.21.017,jersey_experiment_5_v1,2023.2.2,Win32,84.74576271,,,,,,,,,,,,,,,,1293.8458,1295.6385,1295.6385,1299.5282,return,1.3582,,25.26041667,,,,,,FBP-RB-71.png,0.37,1.2,47,1,,,,,,,,,,,,,0,50,50,46,1,,,,,,,,,,,,,,,,,,,,,,,,,,,,
,,,,,V1_020,20,Female,2024-05-16_16h05.21.017,jersey_experiment_5_v1,2023.2.2,Win32,84.74576271,,,,,,,,,,,,,,,,1299.5284,1301.3281,1301.3281,1303.6107,return,0.6479,,74.34895833,,,,,,FBP-YG-18.png,0.43,1.2,24,1,,,,,,,,,,,,,0,51,51,23,1,,,,,,,,,,,,,,,,,,,,,,,,,,,,
,,,,,V1_020,20,Female,2024-05-16_16h05.21.017,jersey_experiment_5_v1,2023.2.2,Win32,84.74576271,,,,,,,,,,,,,,,,1303.6108,1304.9095,1304.9095,1308.5567,return,0.9881,,86.58854167,,,,,,FBP-PT-71.png,0.45,1.2,5,0.5,,,,,,,,,,,,,0,52,52,4,1,,,,,,,,,,,,,,,,,,,,,,,,,,,,
,,,,,V1_020,20,Female,2024-05-16_16h05.21.017,jersey_experiment_5_v1,2023.2.2,Win32,84.74576271,,,,,,,,,,,,,,,,1308.5568,1310.352,1310.3521,1324.1208,return,0.7634,,67.44791667,,,,,,FBP-YG-18.png,0.4,1.2,23,1,,,,,,,,,,,,,0,53,53,22,1,,,,,,,,,,,,,,,,,,,,,,,,,,,,
,,,,,V1_020,20,Female,2024-05-16_16h05.21.017,jersey_experiment_5_v1,2023.2.2,Win32,84.74576271,,,,,,,,,,,,,,,,1324.121,1325.9218,1325.9218,1328.1342,return,0.6122,,92.70833333,,,,,,FBP-YG-17.png,0.45,1.2,20,1,,,,,,,,,,,,,0,54,54,19,1,,,,,,,,,,,,,,,,,,,,,,,,,,,,
,,,,,V1_020,20,Female,2024-05-16_16h05.21.017,jersey_experiment_5_v1,2023.2.2,Win32,84.74576271,,,,,,,,,,,,,,,,1328.1344,1329.9293,1329.9293,1336.4707,return,3.9245,,25.13020833,,,,,,FBP-YG-19.png,0.37,1.2,27,1,,,,,,,,,,,,,0,55,55,26,1,,,,,,,,,,,,,,,,,,,,,,,,,,,,
,,,,,V1_020,20,Female,2024-05-16_16h05.21.017,jersey_experiment_5_v1,2023.2.2,Win32,84.74576271,,,,,,,,,,,,,,,,1336.475,1338.2707,1338.2707,1343.8992,return,0.6487,,25.65104167,,,,,,FBP-OG-17.png,0.43,1.2,34,1,,,,,,,,,,,,,0,56,56,33,1,,,,,,,,,,,,,,,,,,,,,,,,,,,,
,,,,,V1_020,20,Female,2024-05-16_16h05.21.017,jersey_experiment_5_v1,2023.2.2,Win32,84.74576271,,,,,,,,,,,,,,,,1343.8994,1345.6945,1345.6945,1347.93,return,0.8888,,16.796875,,,,,,FBP-OG-18.png,0.37,1.2,37,1,,,,,,,,,,,,,0,57,57,36,1,,,,,,,,,,,,,,,,,,,,,,,,,,,,
,,,,,V1_020,20,Female,2024-05-16_16h05.21.017,jersey_experiment_5_v1,2023.2.2,Win32,84.74576271,,,,,,,,,,,,,,,,1347.9303,1349.2241,1349.2241,1351.6123,return,0.6487,,68.61979167,,,,,,FBP-PT-81.png,0.4,1.2,8,0.5,,,,,,,,,,,,,0,58,58,7,1,,,,,,,,,,,,,,,,,,,,,,,,,,,,
,,,,,V1_020,20,Female,2024-05-16_16h05.21.017,jersey_experiment_5_v1,2023.2.2,Win32,84.74576271,,,,,,,,,,,,,,,,1351.6126,1352.91,1352.91,1358.4127,return,1.6474,,50,,,,,,FBP-PT-71.png,0.4,1.2,3,0.5,,,,,,,,,,,,,0,59,59,2,1,,,,,,,,,,,,,,,,,,,,,,,,,,,,
,,,,,V1_020,20,Female,2024-05-16_16h05.21.017,jersey_experiment_5_v1,2023.2.2,Win32,84.74576271,,,,,,,,,,,,,,,,1358.4146,1360.2127,1360.2127,1365.3071,return,0.6959,,1.302083333,,,,,,FBP-RB-19.png,0.35,1.2,56,1,,,,,,,,,,,,,,,,,,0,0,0,55,1,,,,,,,,,,,,,,,,,,,,,,,
,,,,,V1_020,20,Female,2024-05-16_16h05.21.017,jersey_experiment_5_v1,2023.2.2,Win32,84.74576271,,,,,,,,,,,,,,,,1365.3075,1366.6012,1366.6012,1369.4836,return,0.6468,,75.13020833,,,,,,FBP-PT-17.png,0.43,1.2,4,0.5,,,,,,,,,,,,,,,,,,0,1,1,3,1,,,,,,,,,,,,,,,,,,,,,,,
,,,,,V1_020,20,Female,2024-05-16_16h05.21.017,jersey_experiment_5_v1,2023.2.2,Win32,84.74576271,,,,,,,,,,,,,,,,1369.4838,1371.2838,1371.2838,1375.4131,return,0.7711,,62.5,,,,,,FBP-YG-91.png,0.43,1.2,29,1,,,,,,,,,,,,,,,,,,0,2,2,28,1,,,,,,,,,,,,,,,,,,,,,,,
,,,,,V1_020,20,Female,2024-05-16_16h05.21.017,jersey_experiment_5_v1,2023.2.2,Win32,84.74576271,,,,,,,,,,,,,,,,1375.4133,1377.2134,1377.2134,1380.2958,return,0.639,,87.5,,,,,,FBP-YG-81.png,0.45,1.2,25,1,,,,,,,,,,,,,,,,,,0,3,3,24,1,,,,,,,,,,,,,,,,,,,,,,,
,,,,,V1_020,20,Female,2024-05-16_16h05.21.017,jersey_experiment_5_v1,2023.2.2,Win32,84.74576271,,,,,,,,,,,,,,,,1380.296,1382.0875,1382.0875,1384.0371,return,0.6075,,50,,,,,,FBP-OG-81.png,0.37,1.2,37,1,,,,,,,,,,,,,,,,,,0,4,4,36,1,,,,,,,,,,,,,,,,,,,,,,,
,,,,,V1_020,20,Female,2024-05-16_16h05.21.017,jersey_experiment_5_v1,2023.2.2,Win32,84.74576271,,,,,,,,,,,,,,,,1384.0373,1385.829,1385.829,1388.4726,return,0.6504,,79.16666667,,,,,,FBP-RB-18.png,0.43,1.2,54,1,,,,,,,,,,,,,,,,,,0,5,5,53,1,,,,,,,,,,,,,,,,,,,,,,,
,,,,,V1_020,20,Female,2024-05-16_16h05.21.017,jersey_experiment_5_v1,2023.2.2,Win32,84.74576271,,,,,,,,,,,,,,,,1388.4728,1389.7713,1389.7713,1393.4139,return,0.6192,,69.27083333,,,,,,FBP-PT-17.png,0.4,1.2,3,0.5,,,,,,,,,,,,,,,,,,0,6,6,2,1,,,,,,,,,,,,,,,,,,,,,,,
,,,,,V1_020,20,Female,2024-05-16_16h05.21.017,jersey_experiment_5_v1,2023.2.2,Win32,84.74576271,,,,,,,,,,,,,,,,1393.414,1394.7081,1394.7081,1397.4058,return,0.6826,,82.16145833,,,,,,FBP-PT-17.png,0.45,1.2,5,0.5,,,,,,,,,,,,,,,,,,0,7,7,4,1,,,,,,,,,,,,,,,,,,,,,,,
,,,,,V1_020,20,Female,2024-05-16_16h05.21.017,jersey_experiment_5_v1,2023.2.2,Win32,84.74576271,,,,,,,,,,,,,,,,1397.4059,1399.207,1399.207,1401.5201,return,0.659,,37.23958333,,,,,,FBP-YG-71.png,0.4,1.2,18,1,,,,,,,,,,,,,,,,,,0,8,8,17,1,,,,,,,,,,,,,,,,,,,,,,,
,,,,,V1_020,20,Female,2024-05-16_16h05.21.017,jersey_experiment_5_v1,2023.2.2,Win32,84.74576271,,,,,,,,,,,,,,,,1401.5203,1403.32,1403.3201,1406.0616,return,0.6824,,74.34895833,,,,,,FBP-OG-81.png,0.43,1.2,39,1,,,,,,,,,,,,,,,,,,0,9,9,38,1,,,,,,,,,,,,,,,,,,,,,,,
,,,,,V1_020,20,Female,2024-05-16_16h05.21.017,jersey_experiment_5_v1,2023.2.2,Win32,84.74576271,,,,,,,,,,,,,,,,1406.0619,1407.8615,1407.8615,1409.8499,return,0.8016,,49.86979167,,,,,,FBP-OG-71.png,0.37,1.2,32,1,,,,,,,,,,,,,,,,,,0,10,10,31,1,,,,,,,,,,,,,,,,,,,,,,,
,,,,,V1_020,20,Female,2024-05-16_16h05.21.017,jersey_experiment_5_v1,2023.2.2,Win32,84.74576271,,,,,,,,,,,,,,,,1409.8501,1411.6548,1411.6548,1413.6265,return,0.9434,,24.73958333,,,,,,FBP-RB-18.png,0.35,1.2,51,1,,,,,,,,,,,,,,,,,,0,11,11,50,1,,,,,,,,,,,,,,,,,,,,,,,
,,,,,V1_020,20,Female,2024-05-16_16h05.21.017,jersey_experiment_5_v1,2023.2.2,Win32,84.74576271,,,,,,,,,,,,,,,,1413.6265,1415.4266,1415.4266,1418.3713,return,0.5753,,64.0625,,,,,,FBP-RB-17.png,0.4,1.2,48,1,,,,,,,,,,,,,,,,,,0,12,12,47,1,,,,,,,,,,,,,,,,,,,,,,,
,,,,,V1_020,20,Female,2024-05-16_16h05.21.017,jersey_experiment_5_v1,2023.2.2,Win32,84.74576271,,,,,,,,,,,,,,,,1418.3714,1419.6737,1419.6737,1421.8854,return,0.6929,,64.0625,,,,,,FBP-PT-18.png,0.4,1.2,8,0.5,,,,,,,,,,,,,,,,,,0,13,13,7,1,,,,,,,,,,,,,,,,,,,,,,,
,,,,,V1_020,20,Female,2024-05-16_16h05.21.017,jersey_experiment_5_v1,2023.2.2,Win32,84.74576271,,,,,,,,,,,,,,,,1421.8855,1423.6857,1423.6857,1427.9447,return,3.0855,,75,,,,,,FBP-RB-17.png,0.43,1.2,49,1,,,,,,,,,,,,,,,,,,0,14,14,48,1,,,,,,,,,,,,,,,,,,,,,,,
,,,,,V1_020,20,Female,2024-05-16_16h05.21.017,jersey_experiment_5_v1,2023.2.2,Win32,84.74576271,,,,,,,,,,,,,,,,1427.9448,1429.2388,1429.2389,1431.3965,return,0.6592,,36.71875,,,,,,FBP-PT-18.png,0.35,1.2,6,0.5,,,,,,,,,,,,,,,,,,0,15,15,5,1,,,,,,,,,,,,,,,,,,,,,,,
,,,,,V1_020,20,Female,2024-05-16_16h05.21.017,jersey_experiment_5_v1,2023.2.2,Win32,84.74576271,,,,,,,,,,,,,,,,1431.3966,1433.1918,1433.1918,1436.392,return,0.639,,37.5,,,,,,FBP-YG-91.png,0.4,1.2,28,1,,,,,,,,,,,,,,,,,,0,16,16,27,1,,,,,,,,,,,,,,,,,,,,,,,
,,,,,V1_020,20,Female,2024-05-16_16h05.21.017,jersey_experiment_5_v1,2023.2.2,Win32,84.74576271,,,,,,,,,,,,,,,,1436.3921,1438.192,1438.192,1440.3098,return,0.6296,,59.765625,,,,,,FBP-OG-81.png,0.4,1.2,38,1,,,,,,,,,,,,,,,,,,0,17,17,37,1,,,,,,,,,,,,,,,,,,,,,,,
,,,,,V1_020,20,Female,2024-05-16_16h05.21.017,jersey_experiment_5_v1,2023.2.2,Win32,84.74576271,,,,,,,,,,,,,,,,1440.3099,1441.6039,1441.6039,1443.797,return,0.7661,,97.52604167,,,,,,FBP-PT-18.png,0.45,1.2,10,0.5,,,,,,,,,,,,,,,,,,0,18,18,9,1,,,,,,,,,,,,,,,,,,,,,,,
,,,,,V1_020,20,Female,2024-05-16_16h05.21.017,jersey_experiment_5_v1,2023.2.2,Win32,84.74576271,,,,,,,,,,,,,,,,1443.7972,1445.5923,1445.5923,1446.9974,return,0.636,,98.56770833,,,,,,FBP-YG-71.png,0.45,1.2,20,1,,,,,,,,,,,,,,,,,,0,19,19,19,1,,,,,,,,,,,,,,,,,,,,,,,
,,,,,V1_020,20,Female,2024-05-16_16h05.21.017,jersey_experiment_5_v1,2023.2.2,Win32,84.74576271,,,,,,,,,,,,,,,,1446.9976,1448.7925,1448.7925,1451.2396,return,1.0057,,50.390625,,,,,,FBP-OG-81.png,0.35,1.2,36,1,,,,,,,,,,,,,,,,,,0,20,20,35,1,,,,,,,,,,,,,,,,,,,,,,,
,,,,,V1_020,20,Female,2024-05-16_16h05.21.017,jersey_experiment_5_v1,2023.2.2,Win32,84.74576271,,,,,,,,,,,,,,,,1451.2398,1453.0396,1453.0396,1455.4632,return,0.6044,,74.86979167,,,,,,FBP-YG-71.png,0.43,1.2,19,1,,,,,,,,,,,,,,,,,,0,21,21,18,1,,,,,,,,,,,,,,,,,,,,,,,
,,,,,V1_020,20,Female,2024-05-16_16h05.21.017,jersey_experiment_5_v1,2023.2.2,Win32,84.74576271,,,,,,,,,,,,,,,,1455.4634,1456.7573,1456.7573,1458.4399,return,0.5916,,99.21875,,,,,,FBP-PT-18.png,0.43,1.2,9,0.5,,,,,,,,,,,,,,,,,,0,22,22,8,1,,,,,,,,,,,,,,,,,,,,,,,
,,,,,V1_020,20,Female,2024-05-16_16h05.21.017,jersey_experiment_5_v1,2023.2.2,Win32,84.74576271,,,,,,,,,,,,,,,,1458.4401,1460.2399,1460.2399,1463.146,return,0.6373,,25.13020833,,,,,,FBP-YG-71.png,0.37,1.2,17,1,,,,,,,,,,,,,,,,,,0,23,23,16,1,,,,,,,,,,,,,,,,,,,,,,,
,,,,,V1_020,20,Female,2024-05-16_16h05.21.017,jersey_experiment_5_v1,2023.2.2,Win32,84.74576271,,,,,,,,,,,,,,,,1463.1462,1464.946,1464.946,1466.9813,return,0.608,,99.609375,,,,,,FBP-OG-91.png,0.45,1.2,45,1,,,,,,,,,,,,,,,,,,0,24,24,44,1,,,,,,,,,,,,,,,,,,,,,,,
,,,,,V1_020,20,Female,2024-05-16_16h05.21.017,jersey_experiment_5_v1,2023.2.2,Win32,84.74576271,,,,,,,,,,,,,,,,1466.9815,1468.7814,1468.7814,1470.7109,return,0.6181,,50.52083333,,,,,,FBP-YG-81.png,0.4,1.2,23,1,,,,,,,,,,,,,,,,,,0,25,25,22,1,,,,,,,,,,,,,,,,,,,,,,,
,,,,,V1_020,20,Female,2024-05-16_16h05.21.017,jersey_experiment_5_v1,2023.2.2,Win32,84.74576271,,,,,,,,,,,,,,,,1470.711,1472.0097,1472.0097,1477.2052,return,0.6194,,57.16145833,,,,,,FBP-PT-17.png,0.35,1.2,1,0.5,,,,,,,,,,,,,,,,,,0,26,26,0,1,,,,,,,,,,,,,,,,,,,,,,,
,,,,,V1_020,20,Female,2024-05-16_16h05.21.017,jersey_experiment_5_v1,2023.2.2,Win32,84.74576271,,,,,,,,,,,,,,,,1477.2053,1479.009,1479.009,1480.5817,return,0.5704,,98.4375,,,,,,FBP-OG-71.png,0.45,1.2,35,1,,,,,,,,,,,,,,,,,,0,27,27,34,1,,,,,,,,,,,,,,,,,,,,,,,
,,,,,V1_020,20,Female,2024-05-16_16h05.21.017,jersey_experiment_5_v1,2023.2.2,Win32,84.74576271,,,,,,,,,,,,,,,,1480.5819,1482.3818,1482.3818,1483.5348,return,0.6225,,98.4375,,,,,,FBP-OG-71.png,0.43,1.2,34,1,,,,,,,,,,,,,,,,,,0,28,28,33,1,,,,,,,,,,,,,,,,,,,,,,,
,,,,,V1_020,20,Female,2024-05-16_16h05.21.017,jersey_experiment_5_v1,2023.2.2,Win32,84.74576271,,,,,,,,,,,,,,,,1483.535,1485.3385,1485.3386,1487.0173,return,0.6155,,50.390625,,,,,,FBP-YG-91.png,0.35,1.2,26,1,,,,,,,,,,,,,,,,,,0,29,29,25,1,,,,,,,,,,,,,,,,,,,,,,,
,,,,,V1_020,20,Female,2024-05-16_16h05.21.017,jersey_experiment_5_v1,2023.2.2,Win32,84.74576271,,,,,,,,,,,,,,,,1487.0175,1488.8174,1488.8174,1490.5351,return,0.6394,,24.34895833,,,,,,FBP-RB-17.png,0.35,1.2,46,1,,,,,,,,,,,,,,,,,,0,30,30,45,1,,,,,,,,,,,,,,,,,,,,,,,
,,,,,V1_020,20,Female,2024-05-16_16h05.21.017,jersey_experiment_5_v1,2023.2.2,Win32,84.74576271,,,,,,,,,,,,,,,,1490.5352,1492.3352,1492.3352,1493.8696,return,0.5544,,73.95833333,,,,,,FBP-RB-18.png,0.45,1.2,55,1,,,,,,,,,,,,,,,,,,0,31,31,54,1,,,,,,,,,,,,,,,,,,,,,,,
,,,,,V1_020,20,Female,2024-05-16_16h05.21.017,jersey_experiment_5_v1,2023.2.2,Win32,84.74576271,,,,,,,,,,,,,,,,1493.8699,1495.1636,1495.1636,1496.7118,return,0.6039,,98.828125,,,,,,FBP-PT-19.png,0.43,1.2,14,0.5,,,,,,,,,,,,,,,,,,0,32,32,13,1,,,,,,,,,,,,,,,,,,,,,,,
,,,,,V1_020,20,Female,2024-05-16_16h05.21.017,jersey_experiment_5_v1,2023.2.2,Win32,84.74576271,,,,,,,,,,,,,,,,1496.712,1498.5119,1498.512,1500.8061,return,0.5821,,48.828125,,,,,,FBP-OG-91.png,0.37,1.2,42,1,,,,,,,,,,,,,,,,,,0,33,33,41,1,,,,,,,,,,,,,,,,,,,,,,,
,,,,,V1_020,20,Female,2024-05-16_16h05.21.017,jersey_experiment_5_v1,2023.2.2,Win32,84.74576271,,,,,,,,,,,,,,,,1500.8063,1502.6063,1502.6063,1504.0062,return,0.6186,,75,,,,,,FBP-OG-91.png,0.43,1.2,44,1,,,,,,,,,,,,,,,,,,0,34,34,43,1,,,,,,,,,,,,,,,,,,,,,,,
,,,,,V1_020,20,Female,2024-05-16_16h05.21.017,jersey_experiment_5_v1,2023.2.2,Win32,84.74576271,,,,,,,,,,,,,,,,1504.0064,1505.3003,1505.3004,1506.9051,return,0.5885,,60.15625,,,,,,FBP-PT-18.png,0.37,1.2,7,0.5,,,,,,,,,,,,,,,,,,0,35,35,6,1,,,,,,,,,,,,,,,,,,,,,,,
,,,,,V1_020,20,Female,2024-05-16_16h05.21.017,jersey_experiment_5_v1,2023.2.2,Win32,84.74576271,,,,,,,,,,,,,,,,1506.9053,1508.2064,1508.2064,1509.6063,return,0.5715,,61.84895833,,,,,,FBP-PT-19.png,0.4,1.2,13,0.5,,,,,,,,,,,,,,,,,,0,36,36,12,1,,,,,,,,,,,,,,,,,,,,,,,
,,,,,V1_020,20,Female,2024-05-16_16h05.21.017,jersey_experiment_5_v1,2023.2.2,Win32,84.74576271,,,,,,,,,,,,,,,,1509.6066,1510.9006,1510.9006,1514.089,return,0.6513,,36.84895833,,,,,,FBP-PT-19.png,0.35,1.2,11,0.5,,,,,,,,,,,,,,,,,,0,37,37,10,1,,,,,,,,,,,,,,,,,,,,,,,
,,,,,V1_020,20,Female,2024-05-16_16h05.21.017,jersey_experiment_5_v1,2023.2.2,Win32,84.74576271,,,,,,,,,,,,,,,,1514.0892,1515.8935,1515.8935,1517.588,return,0.6015,,74.73958333,,,,,,FBP-OG-71.png,0.4,1.2,33,1,,,,,,,,,,,,,,,,,,0,38,38,32,1,,,,,,,,,,,,,,,,,,,,,,,
,,,,,V1_020,20,Female,2024-05-16_16h05.21.017,jersey_experiment_5_v1,2023.2.2,Win32,84.74576271,,,,,,,,,,,,,,,,1517.5882,1519.3833,1519.3833,1521.6821,return,0.6249,,37.109375,,,,,,FBP-YG-71.png,0.35,1.2,16,1,,,,,,,,,,,,,,,,,,0,39,39,15,1,,,,,,,,,,,,,,,,,,,,,,,
,,,,,V1_020,20,Female,2024-05-16_16h05.21.017,jersey_experiment_5_v1,2023.2.2,Win32,84.74576271,,,,,,,,,,,,,,,,1521.6823,1523.4774,1523.4774,1528.3661,return,0.6264,,59.24479167,,,,,,FBP-RB-19.png,0.4,1.2,58,1,,,,,,,,,,,,,,,,,,0,40,40,57,1,,,,,,,,,,,,,,,,,,,,,,,
,,,,,V1_020,20,Female,2024-05-16_16h05.21.017,jersey_experiment_5_v1,2023.2.2,Win32,84.74576271,,,,,,,,,,,,,,,,1528.3662,1530.1634,1530.1634,1532.4426,return,0.6498,,24.73958333,,,,,,FBP-YG-81.png,0.37,1.2,22,1,,,,,,,,,,,,,,,,,,0,41,41,21,1,,,,,,,,,,,,,,,,,,,,,,,
,,,,,V1_020,20,Female,2024-05-16_16h05.21.017,jersey_experiment_5_v1,2023.2.2,Win32,84.74576271,,,,,,,,,,,,,,,,1532.4427,1534.2426,1534.2426,1536.8546,return,0.6891,,86.58854167,,,,,,FBP-YG-91.png,0.45,1.2,30,1,,,,,,,,,,,,,,,,,,0,42,42,29,1,,,,,,,,,,,,,,,,,,,,,,,
,,,,,V1_020,20,Female,2024-05-16_16h05.21.017,jersey_experiment_5_v1,2023.2.2,Win32,84.74576271,,,,,,,,,,,,,,,,1536.8547,1538.1534,1538.1534,1540.4899,return,0.5802,,98.828125,,,,,,FBP-PT-19.png,0.45,1.2,15,0.5,,,,,,,,,,,,,,,,,,0,43,43,14,1,,,,,,,,,,,,,,,,,,,,,,,
,,,,,V1_020,20,Female,2024-05-16_16h05.21.017,jersey_experiment_5_v1,2023.2.2,Win32,84.74576271,,,,,,,,,,,,,,,,1540.4901,1542.2946,1542.2946,1545.4817,return,0.6591,,11.328125,,,,,,FBP-RB-19.png,0.37,1.2,57,1,,,,,,,,,,,,,,,,,,0,44,44,56,1,,,,,,,,,,,,,,,,,,,,,,,
,,,,,V1_020,20,Female,2024-05-16_16h05.21.017,jersey_experiment_5_v1,2023.2.2,Win32,84.74576271,,,,,,,,,,,,,,,,1545.482,1547.2784,1547.2784,1550.549,return,0.6669,,62.5,,,,,,FBP-YG-81.png,0.43,1.2,24,1,,,,,,,,,,,,,,,,,,0,45,45,23,1,,,,,,,,,,,,,,,,,,,,,,,
,,,,,V1_020,20,Female,2024-05-16_16h05.21.017,jersey_experiment_5_v1,2023.2.2,Win32,84.74576271,,,,,,,,,,,,,,,,1550.5492,1552.3524,1552.3525,1555.2234,return,0.6462,,67.1875,,,,,,FBP-OG-91.png,0.4,1.2,43,1,,,,,,,,,,,,,,,,,,0,46,46,42,1,,,,,,,,,,,,,,,,,,,,,,,
,,,,,V1_020,20,Female,2024-05-16_16h05.21.017,jersey_experiment_5_v1,2023.2.2,Win32,84.74576271,,,,,,,,,,,,,,,,1555.2236,1557.0242,1557.0243,1559.4117,return,0.6459,,38.02083333,,,,,,FBP-RB-17.png,0.37,1.2,47,1,,,,,,,,,,,,,,,,,,0,47,47,46,1,,,,,,,,,,,,,,,,,,,,,,,
,,,,,V1_020,20,Female,2024-05-16_16h05.21.017,jersey_experiment_5_v1,2023.2.2,Win32,84.74576271,,,,,,,,,,,,,,,,1559.4118,1561.2135,1561.2135,1563.0013,return,0.5779,,35.41666667,,,,,,FBP-OG-71.png,0.35,1.2,31,1,,,,,,,,,,,,,,,,,,0,48,48,30,1,,,,,,,,,,,,,,,,,,,,,,,
,,,,,V1_020,20,Female,2024-05-16_16h05.21.017,jersey_experiment_5_v1,2023.2.2,Win32,84.74576271,,,,,,,,,,,,,,,,1563.0015,1564.2954,1564.2954,1566.1883,return,0.6224,,50,,,,,,FBP-PT-17.png,0.37,1.2,2,0.5,,,,,,,,,,,,,,,,,,0,49,49,1,1,,,,,,,,,,,,,,,,,,,,,,,
,,,,,V1_020,20,Female,2024-05-16_16h05.21.017,jersey_experiment_5_v1,2023.2.2,Win32,84.74576271,,,,,,,,,,,,,,,,1566.1884,1567.9892,1567.9892,1569.2947,return,0.5755,,50,,,,,,FBP-OG-91.png,0.35,1.2,41,1,,,,,,,,,,,,,,,,,,0,50,50,40,1,,,,,,,,,,,,,,,,,,,,,,,
,,,,,V1_020,20,Female,2024-05-16_16h05.21.017,jersey_experiment_5_v1,2023.2.2,Win32,84.74576271,,,,,,,,,,,,,,,,1569.2948,1571.0952,1571.0952,1576.1417,return,1.5403,,62.23958333,,,,,,FBP-RB-18.png,0.4,1.2,53,1,,,,,,,,,,,,,,,,,,0,51,51,52,1,,,,,,,,,,,,,,,,,,,,,,,
,,,,,V1_020,20,Female,2024-05-16_16h05.21.017,jersey_experiment_5_v1,2023.2.2,Win32,84.74576271,,,,,,,,,,,,,,,,1576.1418,1577.4359,1577.4359,1579.4326,return,0.5574,,62.36979167,,,,,,FBP-PT-19.png,0.37,1.2,12,0.5,,,,,,,,,,,,,,,,,,0,52,52,11,1,,,,,,,,,,,,,,,,,,,,,,,
,,,,,V1_020,20,Female,2024-05-16_16h05.21.017,jersey_experiment_5_v1,2023.2.2,Win32,84.74576271,,,,,,,,,,,,,,,,1579.4327,1581.2371,1581.2371,1583.3889,return,0.5988,,74.609375,,,,,,FBP-OG-81.png,0.45,1.2,40,1,,,,,,,,,,,,,,,,,,0,53,53,39,1,,,,,,,,,,,,,,,,,,,,,,,
,,,,,V1_020,20,Female,2024-05-16_16h05.21.017,jersey_experiment_5_v1,2023.2.2,Win32,84.74576271,,,,,,,,,,,,,,,,1583.3891,1585.1856,1585.1857,1589.5271,return,2.8049,,25.13020833,,,,,,FBP-RB-18.png,0.37,1.2,52,1,,,,,,,,,,,,,,,,,,0,54,54,51,1,,,,,,,,,,,,,,,,,,,,,,,
,,,,,V1_020,20,Female,2024-05-16_16h05.21.017,jersey_experiment_5_v1,2023.2.2,Win32,84.74576271,,,,,,,,,,,,,,,,1589.5273,1591.3315,1591.3316,1596.1979,return,0.6294,,25.78125,,,,,,FBP-YG-91.png,0.37,1.2,27,1,,,,,,,,,,,,,,,,,,0,55,55,26,1,,,,,,,,,,,,,,,,,,,,,,,
,,,,,V1_020,20,Female,2024-05-16_16h05.21.017,jersey_experiment_5_v1,2023.2.2,Win32,84.74576271,,,,,,,,,,,,,,,,1596.198,1598.0012,1598.0012,1599.7896,return,0.6223,,25.78125,,,,,,FBP-YG-81.png,0.35,1.2,21,1,,,,,,,,,,,,,,,,,,0,56,56,20,1,,,,,,,,,,,,,,,,,,,,,,,
,,,,,V1_020,20,Female,2024-05-16_16h05.21.017,jersey_experiment_5_v1,2023.2.2,Win32,84.74576271,,,,,,,,,,,,,,,,1599.7897,1601.591,1601.5911,1603.6099,return,0.5917,,63.93229167,,,,,,FBP-RB-17.png,0.45,1.2,50,1,,,,,,,,,,,,,,,,,,0,57,57,49,1,,,,,,,,,,,,,,,,,,,,,,,
,,,,,V1_020,20,Female,2024-05-16_16h05.21.017,jersey_experiment_5_v1,2023.2.2,Win32,84.74576271,,,,,,,,,,,,,,,,1603.6101,1605.4028,1605.4028,1608.4688,return,0.608,,75.26041667,,,,,,FBP-RB-19.png,0.45,1.2,60,1,,,,,,,,,,,,,,,,,,0,58,58,59,1,,,,,,,,,,,,,,,,,,,,,,,
,,,,,V1_020,20,Female,2024-05-16_16h05.21.017,jersey_experiment_5_v1,2023.2.2,Win32,84.74576271,,,,,,,,,,,,,,,,1608.469,1610.2735,1610.2735,1615.6928,return,3.4958,,49.86979167,,,,,,FBP-RB-19.png,0.43,1.2,59,1,,,,,,,,,,,,,,,,,,0,59,59,58,1,,,,,,,,,,,,,,,,,,,,,,,
,,,,,V1_020,20,Female,2024-05-16_16h05.21.017,jersey_experiment_5_v1,2023.2.2,Win32,84.74576271,,,,,,,,,,,,,,,,,,,,,,,,,,,,,,,,,,,,,,,,,,,,,,,,,,,,,,,,1615.6932,1622.105,return,6.3911,,,,,,,,,,,,,,,,,,,
,,,,,V1_020,20,Female,2024-05-16_16h05.21.017,jersey_experiment_5_v1,2023.2.2,Win32,84.74576271,,,,,,,,,,,,,,,,,,,,,,,,,,,,,,,,,,,,,,,,,,,,,,,,,,,,,,,,,,,,,1622.1051,1627.1286,1,3.6471,return,1.3574,,,,,,,,,,,,
,,,,,V1_020,20,Female,2024-05-16_16h05.21.017,jersey_experiment_5_v1,2023.2.2,Win32,84.74576271,,,,,,,,,,,,,,,,,,,,,,,,,,,,,,,,,,,,,,,,,,,,,,,,,,,,,,,,,,,,,,,,,,,,1627.1287,1785.0386,"I think it may be about how we perceive the difference between two things. Some patterns I recognized was that if there was a greater difference between the weight (for instance, I saw really slender, then I saw a husky player), my perception would be impacted greater. As opposed to if With that being said, I think I noticed the difference significantly more if",right,153.3467,,,,,,
,,,,,V1_020,20,Female,2024-05-16_16h05.21.017,jersey_experiment_5_v1,2023.2.2,Win32,84.74576271,,,,,,,,,,,,,,,,,,,,,,,,,,,,,,,,,,,,,,,,,,,,,,,,,,,,,,,,,,,,,,,,,,,,,,,,,,1785.0386,1789.4569,return,4.4128,