requirements.started,requirements.stopped,key_resp_3.keys,key_resp_3.rt,key_resp_3.duration,Subject ID,Age,Gender,date,expName,psychopyVersion,OS,frameRate,instructions1.started,instructions1.stopped,key_resp.keys,key_resp.rt,key_resp.duration,example.started,example.stopped,enter_2.keys,enter_2.rt,enter_2.duration,instructions2.started,instructions2.stopped,enter_3.keys,enter_3.rt,enter_3.duration,image.started,image.stopped,slider_2.started,slider_2.stopped,next.keys,next.rt,next.duration,slider.response,trial_block_1.thisRepN,trial_block_1.thisTrialN,trial_block_1.thisN,trial_block_1.thisIndex,trial_block_1.ran,Path,Width,Height,Index,Duration,trial_block_2.thisRepN,trial_block_2.thisTrialN,trial_block_2.thisN,trial_block_2.thisIndex,trial_block_2.ran,rest_break.started,rest_break.stopped,end_break.started,end_break.stopped,key_resp_5.keys,key_resp_5.rt,key_resp_5.duration,trial_block_3.thisRepN,trial_block_3.thisTrialN,trial_block_3.thisN,trial_block_3.thisIndex,trial_block_3.ran,trial_block_4.thisRepN,trial_block_4.thisTrialN,trial_block_4.thisN,trial_block_4.thisIndex,trial_block_4.ran,questions_intro.started,questions_intro.stopped,enter_12.keys,enter_12.rt,enter_12.duration,question2.started,question2.stopped,question_doingbest.response,question_doingbest.rt,enter_15.keys,enter_15.rt,enter_15.duration,pattern.started,pattern.stopped,pattern_2.text,enter_17.keys,enter_17.rt,enter_17.duration,thankyou.started,thankyou.stopped,enter_14.keys,enter_14.rt,enter_14.duration
0.0001,7.7243,return,7.7198,,V1_011,19,female,2024-04-29_18h00.57.173,jersey_experiment_5_v1,2023.2.2,Win32,84.03361345,,,,,,,,,,,,,,,,,,,,,,,,,,,,,,,,,,,,,,,,,,,,,,,,,,,,,,,,,,,,,,,,,,,,,,,,,,,,,,
,,,,,V1_011,19,female,2024-04-29_18h00.57.173,jersey_experiment_5_v1,2023.2.2,Win32,84.03361345,7.7244,17.2185,return,9.471,,,,,,,,,,,,,,,,,,,,,,,,,,,,,,,,,,,,,,,,,,,,,,,,,,,,,,,,,,,,,,,,,,,,,,,,,,
,,,,,V1_011,19,female,2024-04-29_18h00.57.173,jersey_experiment_5_v1,2023.2.2,Win32,84.03361345,,,,,,17.2185,19.9714,return,2.7126,,,,,,,,,,,,,,,,,,,,,,,,,,,,,,,,,,,,,,,,,,,,,,,,,,,,,,,,,,,,,,,,,,,,,
,,,,,V1_011,19,female,2024-04-29_18h00.57.173,jersey_experiment_5_v1,2023.2.2,Win32,84.03361345,,,,,,,,,,,19.9715,33.1131,return,13.1346,,,,,,,,,,,,,,,,,,,,,,,,,,,,,,,,,,,,,,,,,,,,,,,,,,,,,,,,,,,,,,,,
,,,,,V1_011,19,female,2024-04-29_18h00.57.173,jersey_experiment_5_v1,2023.2.2,Win32,84.03361345,,,,,,,,,,,,,,,,33.1199,34.419,34.4191,48.6667,return,1.1604,,21.74479167,0,0,0,50,1,FBP-RB-81.png,0.35,1.2,51,0.5,,,,,,,,,,,,,,,,,,,,,,,,,,,,,,,,,,,,,,,,,,,,,
,,,,,V1_011,19,female,2024-04-29_18h00.57.173,jersey_experiment_5_v1,2023.2.2,Win32,84.03361345,,,,,,,,,,,,,,,,48.667,50.4665,50.4665,52.302,return,0.2483,,83.46354167,0,1,1,2,1,FBP-PT-71.png,0.4,1.2,3,1,,,,,,,,,,,,,,,,,,,,,,,,,,,,,,,,,,,,,,,,,,,,,
,,,,,V1_011,19,female,2024-04-29_18h00.57.173,jersey_experiment_5_v1,2023.2.2,Win32,84.03361345,,,,,,,,,,,,,,,,52.3023,53.596,53.5961,55.0552,return,0.4348,,96.484375,0,2,2,59,1,FBP-RB-91.png,0.45,1.2,60,0.5,,,,,,,,,,,,,,,,,,,,,,,,,,,,,,,,,,,,,,,,,,,,,
,,,,,V1_011,19,female,2024-04-29_18h00.57.173,jersey_experiment_5_v1,2023.2.2,Win32,84.03361345,,,,,,,,,,,,,,,,55.0554,56.8549,56.8549,58.5728,return,0.4968,,55.98958333,0,3,3,12,1,FBP-PT-91.png,0.4,1.2,13,1,,,,,,,,,,,,,,,,,,,,,,,,,,,,,,,,,,,,,,,,,,,,,
,,,,,V1_011,19,female,2024-04-29_18h00.57.173,jersey_experiment_5_v1,2023.2.2,Win32,84.03361345,,,,,,,,,,,,,,,,58.573,59.867,59.867,61.2905,return,0.3466,,39.58333333,0,4,4,35,1,FBP-OG-18.png,0.35,1.2,36,0.5,,,,,,,,,,,,,,,,,,,,,,,,,,,,,,,,,,,,,,,,,,,,,
,,,,,V1_011,19,female,2024-04-29_18h00.57.173,jersey_experiment_5_v1,2023.2.2,Win32,84.03361345,,,,,,,,,,,,,,,,61.2906,63.0952,63.0952,64.483,return,0.3413,,64.19270833,0,5,5,1,1,FBP-PT-71.png,0.37,1.2,2,1,,,,,,,,,,,,,,,,,,,,,,,,,,,,,,,,,,,,,,,,,,,,,
,,,,,V1_011,19,female,2024-04-29_18h00.57.173,jersey_experiment_5_v1,2023.2.2,Win32,84.03361345,,,,,,,,,,,,,,,,64.4832,66.2837,66.2837,68.7144,return,0.5007,,98.30729167,0,6,6,14,1,FBP-PT-91.png,0.45,1.2,15,1,,,,,,,,,,,,,,,,,,,,,,,,,,,,,,,,,,,,,,,,,,,,,
,,,,,V1_011,19,female,2024-04-29_18h00.57.173,jersey_experiment_5_v1,2023.2.2,Win32,84.03361345,,,,,,,,,,,,,,,,68.7146,70.0121,70.0121,71.7439,return,0.402,,73.4375,0,7,7,37,1,FBP-OG-18.png,0.4,1.2,38,0.5,,,,,,,,,,,,,,,,,,,,,,,,,,,,,,,,,,,,,,,,,,,,,
,,,,,V1_011,19,female,2024-04-29_18h00.57.173,jersey_experiment_5_v1,2023.2.2,Win32,84.03361345,,,,,,,,,,,,,,,,71.744,73.5426,73.5426,75.0223,return,0.2555,,85.67708333,0,8,8,3,1,FBP-PT-71.png,0.43,1.2,4,1,,,,,,,,,,,,,,,,,,,,,,,,,,,,,,,,,,,,,,,,,,,,,
,,,,,V1_011,19,female,2024-04-29_18h00.57.173,jersey_experiment_5_v1,2023.2.2,Win32,84.03361345,,,,,,,,,,,,,,,,75.0225,76.8259,76.8259,79.0967,return,0.2602,,57.8125,0,9,9,10,1,FBP-PT-91.png,0.35,1.2,11,1,,,,,,,,,,,,,,,,,,,,,,,,,,,,,,,,,,,,,,,,,,,,,
,,,,,V1_011,19,female,2024-04-29_18h00.57.173,jersey_experiment_5_v1,2023.2.2,Win32,84.03361345,,,,,,,,,,,,,,,,79.0969,80.4014,80.4015,81.8836,return,0.2589,,98.69791667,0,10,10,34,1,FBP-OG-17.png,0.45,1.2,35,0.5,,,,,,,,,,,,,,,,,,,,,,,,,,,,,,,,,,,,,,,,,,,,,
,,,,,V1_011,19,female,2024-04-29_18h00.57.173,jersey_experiment_5_v1,2023.2.2,Win32,84.03361345,,,,,,,,,,,,,,,,81.8837,83.188,83.1881,84.4837,return,0.283,,87.109375,0,11,11,18,1,FBP-YG-17.png,0.43,1.2,19,0.5,,,,,,,,,,,,,,,,,,,,,,,,,,,,,,,,,,,,,,,,,,,,,
,,,,,V1_011,19,female,2024-04-29_18h00.57.173,jersey_experiment_5_v1,2023.2.2,Win32,84.03361345,,,,,,,,,,,,,,,,84.4839,85.7928,85.7928,86.809,return,0.1718,,98.828125,0,12,12,39,1,FBP-OG-18.png,0.45,1.2,40,0.5,,,,,,,,,,,,,,,,,,,,,,,,,,,,,,,,,,,,,,,,,,,,,
,,,,,V1_011,19,female,2024-04-29_18h00.57.173,jersey_experiment_5_v1,2023.2.2,Win32,84.03361345,,,,,,,,,,,,,,,,86.8092,88.1033,88.1033,89.3537,return,0.2229,,68.48958333,0,13,13,22,1,FBP-YG-18.png,0.4,1.2,23,0.5,,,,,,,,,,,,,,,,,,,,,,,,,,,,,,,,,,,,,,,,,,,,,
,,,,,V1_011,19,female,2024-04-29_18h00.57.173,jersey_experiment_5_v1,2023.2.2,Win32,84.03361345,,,,,,,,,,,,,,,,89.3539,90.6563,90.6564,91.647,return,0.1649,,77.99479167,0,14,14,23,1,FBP-YG-18.png,0.43,1.2,24,0.5,,,,,,,,,,,,,,,,,,,,,,,,,,,,,,,,,,,,,,,,,,,,,
,,,,,V1_011,19,female,2024-04-29_18h00.57.173,jersey_experiment_5_v1,2023.2.2,Win32,84.03361345,,,,,,,,,,,,,,,,91.6471,92.9427,92.9427,94.5474,return,0.6039,,60.546875,0,15,15,27,1,FBP-YG-19.png,0.4,1.2,28,0.5,,,,,,,,,,,,,,,,,,,,,,,,,,,,,,,,,,,,,,,,,,,,,
,,,,,V1_011,19,female,2024-04-29_18h00.57.173,jersey_experiment_5_v1,2023.2.2,Win32,84.03361345,,,,,,,,,,,,,,,,94.5475,95.8489,95.8489,97.2014,return,0.4954,,63.93229167,0,16,16,52,1,FBP-RB-81.png,0.4,1.2,53,0.5,,,,,,,,,,,,,,,,,,,,,,,,,,,,,,,,,,,,,,,,,,,,,
,,,,,V1_011,19,female,2024-04-29_18h00.57.173,jersey_experiment_5_v1,2023.2.2,Win32,84.03361345,,,,,,,,,,,,,,,,97.2016,98.9978,98.9979,100.2027,return,0.2701,,33.59375,0,17,17,11,1,FBP-PT-91.png,0.37,1.2,12,1,,,,,,,,,,,,,,,,,,,,,,,,,,,,,,,,,,,,,,,,,,,,,
,,,,,V1_011,19,female,2024-04-29_18h00.57.173,jersey_experiment_5_v1,2023.2.2,Win32,84.03361345,,,,,,,,,,,,,,,,100.2029,101.9945,101.9946,103.1791,return,0.1771,,24.86979167,0,18,18,6,1,FBP-PT-81.png,0.37,1.2,7,1,,,,,,,,,,,,,,,,,,,,,,,,,,,,,,,,,,,,,,,,,,,,,
,,,,,V1_011,19,female,2024-04-29_18h00.57.173,jersey_experiment_5_v1,2023.2.2,Win32,84.03361345,,,,,,,,,,,,,,,,103.1793,104.4716,104.4716,105.3792,return,0.224,,42.44791667,0,19,19,32,1,FBP-OG-17.png,0.4,1.2,33,0.5,,,,,,,,,,,,,,,,,,,,,,,,,,,,,,,,,,,,,,,,,,,,,
,,,,,V1_011,19,female,2024-04-29_18h00.57.173,jersey_experiment_5_v1,2023.2.2,Win32,84.03361345,,,,,,,,,,,,,,,,105.3793,106.6733,106.6733,108.155,return,0.2718,,72.52604167,0,20,20,38,1,FBP-OG-18.png,0.43,1.2,39,0.5,,,,,,,,,,,,,,,,,,,,,,,,,,,,,,,,,,,,,,,,,,,,,
,,,,,V1_011,19,female,2024-04-29_18h00.57.173,jersey_experiment_5_v1,2023.2.2,Win32,84.03361345,,,,,,,,,,,,,,,,108.1552,109.449,109.449,111.002,return,0.1897,,52.99479167,0,21,21,57,1,FBP-RB-91.png,0.4,1.2,58,0.5,,,,,,,,,,,,,,,,,,,,,,,,,,,,,,,,,,,,,,,,,,,,,
,,,,,V1_011,19,female,2024-04-29_18h00.57.173,jersey_experiment_5_v1,2023.2.2,Win32,84.03361345,,,,,,,,,,,,,,,,111.0022,112.8008,112.8008,113.6622,return,0.2128,,80.98958333,0,22,22,8,1,FBP-PT-81.png,0.43,1.2,9,1,,,,,,,,,,,,,,,,,,,,,,,,,,,,,,,,,,,,,,,,,,,,,
,,,,,V1_011,19,female,2024-04-29_18h00.57.173,jersey_experiment_5_v1,2023.2.2,Win32,84.03361345,,,,,,,,,,,,,,,,113.6624,114.9551,114.9551,116.0986,return,0.2609,,24.47916667,0,23,23,21,1,FBP-YG-18.png,0.37,1.2,22,0.5,,,,,,,,,,,,,,,,,,,,,,,,,,,,,,,,,,,,,,,,,,,,,
,,,,,V1_011,19,female,2024-04-29_18h00.57.173,jersey_experiment_5_v1,2023.2.2,Win32,84.03361345,,,,,,,,,,,,,,,,116.0987,117.3985,117.3986,118.8151,return,0.3654,,24.21875,0,24,24,40,1,FBP-OG-19.png,0.35,1.2,41,0.5,,,,,,,,,,,,,,,,,,,,,,,,,,,,,,,,,,,,,,,,,,,,,
,,,,,V1_011,19,female,2024-04-29_18h00.57.173,jersey_experiment_5_v1,2023.2.2,Win32,84.03361345,,,,,,,,,,,,,,,,118.8153,120.1092,120.1092,121.1657,return,0.2221,,30.98958333,0,25,25,16,1,FBP-YG-17.png,0.37,1.2,17,0.5,,,,,,,,,,,,,,,,,,,,,,,,,,,,,,,,,,,,,,,,,,,,,
,,,,,V1_011,19,female,2024-04-29_18h00.57.173,jersey_experiment_5_v1,2023.2.2,Win32,84.03361345,,,,,,,,,,,,,,,,121.1658,122.9636,122.9636,123.7556,return,0.1637,,62.76041667,0,26,26,7,1,FBP-PT-81.png,0.4,1.2,8,1,,,,,,,,,,,,,,,,,,,,,,,,,,,,,,,,,,,,,,,,,,,,,
,,,,,V1_011,19,female,2024-04-29_18h00.57.173,jersey_experiment_5_v1,2023.2.2,Win32,84.03361345,,,,,,,,,,,,,,,,123.7558,125.0577,125.0577,126.1212,return,0.1773,,35.67708333,0,27,27,36,1,FBP-OG-18.png,0.37,1.2,37,0.5,,,,,,,,,,,,,,,,,,,,,,,,,,,,,,,,,,,,,,,,,,,,,
,,,,,V1_011,19,female,2024-04-29_18h00.57.173,jersey_experiment_5_v1,2023.2.2,Win32,84.03361345,,,,,,,,,,,,,,,,126.1213,127.4225,127.4225,128.403,return,0.2131,,41.796875,0,28,28,26,1,FBP-YG-19.png,0.37,1.2,27,0.5,,,,,,,,,,,,,,,,,,,,,,,,,,,,,,,,,,,,,,,,,,,,,
,,,,,V1_011,19,female,2024-04-29_18h00.57.173,jersey_experiment_5_v1,2023.2.2,Win32,84.03361345,,,,,,,,,,,,,,,,128.403,130.199,130.199,131.0734,return,0.1884,,87.76041667,0,29,29,13,1,FBP-PT-91.png,0.43,1.2,14,1,,,,,,,,,,,,,,,,,,,,,,,,,,,,,,,,,,,,,,,,,,,,,
,,,,,V1_011,19,female,2024-04-29_18h00.57.173,jersey_experiment_5_v1,2023.2.2,Win32,84.03361345,,,,,,,,,,,,,,,,131.0735,132.3675,132.3675,134.4934,return,1.0627,,30.98958333,0,30,30,51,1,FBP-RB-81.png,0.37,1.2,52,0.5,,,,,,,,,,,,,,,,,,,,,,,,,,,,,,,,,,,,,,,,,,,,,
,,,,,V1_011,19,female,2024-04-29_18h00.57.173,jersey_experiment_5_v1,2023.2.2,Win32,84.03361345,,,,,,,,,,,,,,,,134.4936,135.7875,135.7875,137.3922,return,0.319,,40.49479167,0,31,31,46,1,FBP-RB-71.png,0.37,1.2,47,0.5,,,,,,,,,,,,,,,,,,,,,,,,,,,,,,,,,,,,,,,,,,,,,
,,,,,V1_011,19,female,2024-04-29_18h00.57.173,jersey_experiment_5_v1,2023.2.2,Win32,84.03361345,,,,,,,,,,,,,,,,137.3924,138.6971,138.6971,140.0747,return,0.1774,,78.77604167,0,32,32,33,1,FBP-OG-17.png,0.43,1.2,34,0.5,,,,,,,,,,,,,,,,,,,,,,,,,,,,,,,,,,,,,,,,,,,,,
,,,,,V1_011,19,female,2024-04-29_18h00.57.173,jersey_experiment_5_v1,2023.2.2,Win32,84.03361345,,,,,,,,,,,,,,,,140.0748,141.38,141.38,142.7197,return,0.2926,,95.18229167,0,33,33,48,1,FBP-RB-71.png,0.43,1.2,49,0.5,,,,,,,,,,,,,,,,,,,,,,,,,,,,,,,,,,,,,,,,,,,,,
,,,,,V1_011,19,female,2024-04-29_18h00.57.173,jersey_experiment_5_v1,2023.2.2,Win32,84.03361345,,,,,,,,,,,,,,,,142.7198,144.0133,144.0133,145.0349,return,0.2986,,77.08333333,0,34,34,17,1,FBP-YG-17.png,0.4,1.2,18,0.5,,,,,,,,,,,,,,,,,,,,,,,,,,,,,,,,,,,,,,,,,,,,,
,,,,,V1_011,19,female,2024-04-29_18h00.57.173,jersey_experiment_5_v1,2023.2.2,Win32,84.03361345,,,,,,,,,,,,,,,,145.0351,146.329,146.329,147.4232,return,0.3989,,98.30729167,0,35,35,54,1,FBP-RB-81.png,0.45,1.2,55,0.5,,,,,,,,,,,,,,,,,,,,,,,,,,,,,,,,,,,,,,,,,,,,,
,,,,,V1_011,19,female,2024-04-29_18h00.57.173,jersey_experiment_5_v1,2023.2.2,Win32,84.03361345,,,,,,,,,,,,,,,,147.4234,148.7174,148.7174,150.32,return,0.3534,,58.07291667,0,36,36,42,1,FBP-OG-19.png,0.4,1.2,43,0.5,,,,,,,,,,,,,,,,,,,,,,,,,,,,,,,,,,,,,,,,,,,,,
,,,,,V1_011,19,female,2024-04-29_18h00.57.173,jersey_experiment_5_v1,2023.2.2,Win32,84.03361345,,,,,,,,,,,,,,,,150.3203,151.6116,151.6116,152.6373,return,0.2218,,95.57291667,0,37,37,49,1,FBP-RB-71.png,0.45,1.2,50,0.5,,,,,,,,,,,,,,,,,,,,,,,,,,,,,,,,,,,,,,,,,,,,,
,,,,,V1_011,19,female,2024-04-29_18h00.57.173,jersey_experiment_5_v1,2023.2.2,Win32,84.03361345,,,,,,,,,,,,,,,,152.6375,154.4355,154.4355,155.4542,return,0.32,,6.380208333,0,38,38,5,1,FBP-PT-81.png,0.35,1.2,6,1,,,,,,,,,,,,,,,,,,,,,,,,,,,,,,,,,,,,,,,,,,,,,
,,,,,V1_011,19,female,2024-04-29_18h00.57.173,jersey_experiment_5_v1,2023.2.2,Win32,84.03361345,,,,,,,,,,,,,,,,155.4544,156.7459,156.7459,157.8166,return,0.248,,7.421875,0,39,39,45,1,FBP-RB-71.png,0.35,1.2,46,0.5,,,,,,,,,,,,,,,,,,,,,,,,,,,,,,,,,,,,,,,,,,,,,
,,,,,V1_011,19,female,2024-04-29_18h00.57.173,jersey_experiment_5_v1,2023.2.2,Win32,84.03361345,,,,,,,,,,,,,,,,157.8167,159.1199,159.1199,160.2168,return,0.3066,,2.34375,0,40,40,55,1,FBP-RB-91.png,0.35,1.2,56,0.5,,,,,,,,,,,,,,,,,,,,,,,,,,,,,,,,,,,,,,,,,,,,,
,,,,,V1_011,19,female,2024-04-29_18h00.57.173,jersey_experiment_5_v1,2023.2.2,Win32,84.03361345,,,,,,,,,,,,,,,,160.2169,161.5218,161.5219,162.4501,return,0.3047,,61.19791667,0,41,41,19,1,FBP-YG-17.png,0.45,1.2,20,0.5,,,,,,,,,,,,,,,,,,,,,,,,,,,,,,,,,,,,,,,,,,,,,
,,,,,V1_011,19,female,2024-04-29_18h00.57.173,jersey_experiment_5_v1,2023.2.2,Win32,84.03361345,,,,,,,,,,,,,,,,162.4502,163.7415,163.7415,164.6049,return,0.1893,,63.41145833,0,42,42,47,1,FBP-RB-71.png,0.4,1.2,48,0.5,,,,,,,,,,,,,,,,,,,,,,,,,,,,,,,,,,,,,,,,,,,,,
,,,,,V1_011,19,female,2024-04-29_18h00.57.173,jersey_experiment_5_v1,2023.2.2,Win32,84.03361345,,,,,,,,,,,,,,,,164.6051,166.4049,166.4049,167.1934,return,0.2244,,29.03645833,0,43,43,0,1,FBP-PT-71.png,0.35,1.2,1,1,,,,,,,,,,,,,,,,,,,,,,,,,,,,,,,,,,,,,,,,,,,,,
,,,,,V1_011,19,female,2024-04-29_18h00.57.173,jersey_experiment_5_v1,2023.2.2,Win32,84.03361345,,,,,,,,,,,,,,,,167.1935,168.5004,168.5004,169.5124,return,0.1902,,92.70833333,0,44,44,44,1,FBP-OG-19.png,0.45,1.2,45,0.5,,,,,,,,,,,,,,,,,,,,,,,,,,,,,,,,,,,,,,,,,,,,,
,,,,,V1_011,19,female,2024-04-29_18h00.57.173,jersey_experiment_5_v1,2023.2.2,Win32,84.03361345,,,,,,,,,,,,,,,,169.5125,170.8149,170.8149,171.8241,return,0.2096,,95.44270833,0,45,45,43,1,FBP-OG-19.png,0.43,1.2,44,0.5,,,,,,,,,,,,,,,,,,,,,,,,,,,,,,,,,,,,,,,,,,,,,
,,,,,V1_011,19,female,2024-04-29_18h00.57.173,jersey_experiment_5_v1,2023.2.2,Win32,84.03361345,,,,,,,,,,,,,,,,171.8242,173.1206,173.1206,174.0646,return,0.2262,,53.38541667,0,46,46,31,1,FBP-OG-17.png,0.37,1.2,32,0.5,,,,,,,,,,,,,,,,,,,,,,,,,,,,,,,,,,,,,,,,,,,,,
,,,,,V1_011,19,female,2024-04-29_18h00.57.173,jersey_experiment_5_v1,2023.2.2,Win32,84.03361345,,,,,,,,,,,,,,,,174.0647,175.3654,175.3654,176.6754,return,0.2236,,91.66666667,0,47,47,24,1,FBP-YG-18.png,0.45,1.2,25,0.5,,,,,,,,,,,,,,,,,,,,,,,,,,,,,,,,,,,,,,,,,,,,,
,,,,,V1_011,19,female,2024-04-29_18h00.57.173,jersey_experiment_5_v1,2023.2.2,Win32,84.03361345,,,,,,,,,,,,,,,,176.6755,177.972,177.972,179.1329,return,0.21,,24.609375,0,48,48,20,1,FBP-YG-18.png,0.35,1.2,21,0.5,,,,,,,,,,,,,,,,,,,,,,,,,,,,,,,,,,,,,,,,,,,,,
,,,,,V1_011,19,female,2024-04-29_18h00.57.173,jersey_experiment_5_v1,2023.2.2,Win32,84.03361345,,,,,,,,,,,,,,,,179.133,180.4309,180.4309,181.5304,return,0.1832,,93.88020833,0,49,49,58,1,FBP-RB-91.png,0.43,1.2,59,0.5,,,,,,,,,,,,,,,,,,,,,,,,,,,,,,,,,,,,,,,,,,,,,
,,,,,V1_011,19,female,2024-04-29_18h00.57.173,jersey_experiment_5_v1,2023.2.2,Win32,84.03361345,,,,,,,,,,,,,,,,181.5306,182.8247,182.8247,184.1581,return,0.2829,,79.16666667,0,50,50,53,1,FBP-RB-81.png,0.43,1.2,54,0.5,,,,,,,,,,,,,,,,,,,,,,,,,,,,,,,,,,,,,,,,,,,,,
,,,,,V1_011,19,female,2024-04-29_18h00.57.173,jersey_experiment_5_v1,2023.2.2,Win32,84.03361345,,,,,,,,,,,,,,,,184.1583,185.4521,185.4521,186.6174,return,0.1654,,8.854166667,0,51,51,41,1,FBP-OG-19.png,0.37,1.2,42,0.5,,,,,,,,,,,,,,,,,,,,,,,,,,,,,,,,,,,,,,,,,,,,,
,,,,,V1_011,19,female,2024-04-29_18h00.57.173,jersey_experiment_5_v1,2023.2.2,Win32,84.03361345,,,,,,,,,,,,,,,,186.6175,187.9189,187.9189,189.0172,return,0.1414,,0.130208333,0,52,52,15,1,FBP-YG-17.png,0.35,1.2,16,0.5,,,,,,,,,,,,,,,,,,,,,,,,,,,,,,,,,,,,,,,,,,,,,
,,,,,V1_011,19,female,2024-04-29_18h00.57.173,jersey_experiment_5_v1,2023.2.2,Win32,84.03361345,,,,,,,,,,,,,,,,189.0173,190.312,190.312,191.8249,return,0.1894,,71.484375,0,53,53,28,1,FBP-YG-19.png,0.43,1.2,29,0.5,,,,,,,,,,,,,,,,,,,,,,,,,,,,,,,,,,,,,,,,,,,,,
,,,,,V1_011,19,female,2024-04-29_18h00.57.173,jersey_experiment_5_v1,2023.2.2,Win32,84.03361345,,,,,,,,,,,,,,,,191.825,193.119,193.119,194.319,return,0.6271,,48.69791667,0,54,54,56,1,FBP-RB-91.png,0.37,1.2,57,0.5,,,,,,,,,,,,,,,,,,,,,,,,,,,,,,,,,,,,,,,,,,,,,
,,,,,V1_011,19,female,2024-04-29_18h00.57.173,jersey_experiment_5_v1,2023.2.2,Win32,84.03361345,,,,,,,,,,,,,,,,194.3192,195.6134,195.6134,196.778,return,0.3467,,91.40625,0,55,55,29,1,FBP-YG-19.png,0.45,1.2,30,0.5,,,,,,,,,,,,,,,,,,,,,,,,,,,,,,,,,,,,,,,,,,,,,
,,,,,V1_011,19,female,2024-04-29_18h00.57.173,jersey_experiment_5_v1,2023.2.2,Win32,84.03361345,,,,,,,,,,,,,,,,196.7783,198.5856,198.5856,200.0253,return,0.2909,,99.34895833,0,56,56,4,1,FBP-PT-71.png,0.45,1.2,5,1,,,,,,,,,,,,,,,,,,,,,,,,,,,,,,,,,,,,,,,,,,,,,
,,,,,V1_011,19,female,2024-04-29_18h00.57.173,jersey_experiment_5_v1,2023.2.2,Win32,84.03361345,,,,,,,,,,,,,,,,200.0254,201.8293,201.8293,203.0762,return,0.5892,,99.21875,0,57,57,9,1,FBP-PT-81.png,0.45,1.2,10,1,,,,,,,,,,,,,,,,,,,,,,,,,,,,,,,,,,,,,,,,,,,,,
,,,,,V1_011,19,female,2024-04-29_18h00.57.173,jersey_experiment_5_v1,2023.2.2,Win32,84.03361345,,,,,,,,,,,,,,,,203.0763,204.3691,204.3691,206.2658,return,0.2259,,4.166666667,0,58,58,30,1,FBP-OG-17.png,0.35,1.2,31,0.5,,,,,,,,,,,,,,,,,,,,,,,,,,,,,,,,,,,,,,,,,,,,,
,,,,,V1_011,19,female,2024-04-29_18h00.57.173,jersey_experiment_5_v1,2023.2.2,Win32,84.03361345,,,,,,,,,,,,,,,,206.266,207.5587,207.5587,208.691,return,0.204,,0.390625,0,59,59,25,1,FBP-YG-19.png,0.35,1.2,26,0.5,,,,,,,,,,,,,,,,,,,,,,,,,,,,,,,,,,,,,,,,,,,,,
,,,,,V1_011,19,female,2024-04-29_18h00.57.173,jersey_experiment_5_v1,2023.2.2,Win32,84.03361345,,,,,,,,,,,,,,,,208.693,210.487,210.487,211.6289,return,0.2581,,47.265625,,,,,,FBP-PT-17.png,0.4,1.2,3,1,0,0,0,2,1,,,,,,,,,,,,,,,,,,,,,,,,,,,,,,,,,,,,,,,,
,,,,,V1_011,19,female,2024-04-29_18h00.57.173,jersey_experiment_5_v1,2023.2.2,Win32,84.03361345,,,,,,,,,,,,,,,,211.629,212.9341,212.9342,213.7786,return,0.1421,,30.72916667,,,,,,FBP-OG-71.png,0.35,1.2,31,0.5,0,1,1,30,1,,,,,,,,,,,,,,,,,,,,,,,,,,,,,,,,,,,,,,,,
,,,,,V1_011,19,female,2024-04-29_18h00.57.173,jersey_experiment_5_v1,2023.2.2,Win32,84.03361345,,,,,,,,,,,,,,,,213.7789,215.0728,215.0729,216.367,return,0.5413,,59.24479167,,,,,,FBP-RB-17.png,0.43,1.2,49,0.5,0,2,2,48,1,,,,,,,,,,,,,,,,,,,,,,,,,,,,,,,,,,,,,,,,
,,,,,V1_011,19,female,2024-04-29_18h00.57.173,jersey_experiment_5_v1,2023.2.2,Win32,84.03361345,,,,,,,,,,,,,,,,216.3672,217.6612,217.6613,218.6071,return,0.2209,,36.71875,,,,,,FBP-YG-81.png,0.35,1.2,21,0.5,0,3,3,20,1,,,,,,,,,,,,,,,,,,,,,,,,,,,,,,,,,,,,,,,,
,,,,,V1_011,19,female,2024-04-29_18h00.57.173,jersey_experiment_5_v1,2023.2.2,Win32,84.03361345,,,,,,,,,,,,,,,,218.6072,219.9002,219.9002,221.0733,return,0.2025,,91.53645833,,,,,,FBP-RB-18.png,0.45,1.2,55,0.5,0,4,4,54,1,,,,,,,,,,,,,,,,,,,,,,,,,,,,,,,,,,,,,,,,
,,,,,V1_011,19,female,2024-04-29_18h00.57.173,jersey_experiment_5_v1,2023.2.2,Win32,84.03361345,,,,,,,,,,,,,,,,221.0735,222.3672,222.3672,223.3909,return,0.2837,,78.515625,,,,,,FBP-RB-18.png,0.4,1.2,53,0.5,0,5,5,52,1,,,,,,,,,,,,,,,,,,,,,,,,,,,,,,,,,,,,,,,,
,,,,,V1_011,19,female,2024-04-29_18h00.57.173,jersey_experiment_5_v1,2023.2.2,Win32,84.03361345,,,,,,,,,,,,,,,,223.391,225.191,225.191,226.1016,return,0.3322,,68.61979167,,,,,,FBP-PT-19.png,0.4,1.2,13,1,0,6,6,12,1,,,,,,,,,,,,,,,,,,,,,,,,,,,,,,,,,,,,,,,,
,,,,,V1_011,19,female,2024-04-29_18h00.57.173,jersey_experiment_5_v1,2023.2.2,Win32,84.03361345,,,,,,,,,,,,,,,,226.1018,227.3946,227.3947,228.2498,return,0.1365,,92.05729167,,,,,,FBP-OG-81.png,0.45,1.2,40,0.5,0,7,7,39,1,,,,,,,,,,,,,,,,,,,,,,,,,,,,,,,,,,,,,,,,
,,,,,V1_011,19,female,2024-04-29_18h00.57.173,jersey_experiment_5_v1,2023.2.2,Win32,84.03361345,,,,,,,,,,,,,,,,228.25,229.548,229.548,230.7624,return,0.2026,,13.93229167,,,,,,FBP-YG-71.png,0.37,1.2,17,0.5,0,8,8,16,1,,,,,,,,,,,,,,,,,,,,,,,,,,,,,,,,,,,,,,,,
,,,,,V1_011,19,female,2024-04-29_18h00.57.173,jersey_experiment_5_v1,2023.2.2,Win32,84.03361345,,,,,,,,,,,,,,,,230.7625,232.0546,232.0546,237.9727,return,0.295,,3.255208333,,,,,,FBP-YG-91.png,0.35,1.2,26,0.5,0,9,9,25,1,,,,,,,,,,,,,,,,,,,,,,,,,,,,,,,,,,,,,,,,
,,,,,V1_011,19,female,2024-04-29_18h00.57.173,jersey_experiment_5_v1,2023.2.2,Win32,84.03361345,,,,,,,,,,,,,,,,237.9728,239.7678,239.7678,241.1444,return,0.1733,,55.72916667,,,,,,FBP-PT-19.png,0.37,1.2,12,1,0,10,10,11,1,,,,,,,,,,,,,,,,,,,,,,,,,,,,,,,,,,,,,,,,
,,,,,V1_011,19,female,2024-04-29_18h00.57.173,jersey_experiment_5_v1,2023.2.2,Win32,84.03361345,,,,,,,,,,,,,,,,241.1445,242.4423,242.4423,243.7094,return,0.2501,,66.92708333,,,,,,FBP-YG-91.png,0.4,1.2,28,0.5,0,11,11,27,1,,,,,,,,,,,,,,,,,,,,,,,,,,,,,,,,,,,,,,,,
,,,,,V1_011,19,female,2024-04-29_18h00.57.173,jersey_experiment_5_v1,2023.2.2,Win32,84.03361345,,,,,,,,,,,,,,,,243.7097,245.0035,245.0035,245.9369,return,0.2004,,93.88020833,,,,,,FBP-YG-81.png,0.45,1.2,25,0.5,0,12,12,24,1,,,,,,,,,,,,,,,,,,,,,,,,,,,,,,,,,,,,,,,,
,,,,,V1_011,19,female,2024-04-29_18h00.57.173,jersey_experiment_5_v1,2023.2.2,Win32,84.03361345,,,,,,,,,,,,,,,,245.9371,247.2308,247.2308,248.2055,return,0.1853,,31.90104167,,,,,,FBP-OG-91.png,0.4,1.2,43,0.5,0,13,13,42,1,,,,,,,,,,,,,,,,,,,,,,,,,,,,,,,,,,,,,,,,
,,,,,V1_011,19,female,2024-04-29_18h00.57.173,jersey_experiment_5_v1,2023.2.2,Win32,84.03361345,,,,,,,,,,,,,,,,248.2057,249.4978,249.4978,250.4313,return,0.1532,,78.125,,,,,,FBP-YG-71.png,0.43,1.2,19,0.5,0,14,14,18,1,,,,,,,,,,,,,,,,,,,,,,,,,,,,,,,,,,,,,,,,
,,,,,V1_011,19,female,2024-04-29_18h00.57.173,jersey_experiment_5_v1,2023.2.2,Win32,84.03361345,,,,,,,,,,,,,,,,250.4314,251.7251,251.7251,252.5591,return,0.1528,,11.84895833,,,,,,FBP-RB-17.png,0.37,1.2,47,0.5,0,15,15,46,1,,,,,,,,,,,,,,,,,,,,,,,,,,,,,,,,,,,,,,,,
,,,,,V1_011,19,female,2024-04-29_18h00.57.173,jersey_experiment_5_v1,2023.2.2,Win32,84.03361345,,,,,,,,,,,,,,,,252.5594,254.3607,254.3607,255.4037,return,0.1925,,76.5625,,,,,,FBP-PT-18.png,0.4,1.2,8,1,0,16,16,7,1,,,,,,,,,,,,,,,,,,,,,,,,,,,,,,,,,,,,,,,,
,,,,,V1_011,19,female,2024-04-29_18h00.57.173,jersey_experiment_5_v1,2023.2.2,Win32,84.03361345,,,,,,,,,,,,,,,,255.4038,257.1969,257.1969,258.1137,return,0.1529,,92.70833333,,,,,,FBP-PT-19.png,0.43,1.2,14,1,0,17,17,13,1,,,,,,,,,,,,,,,,,,,,,,,,,,,,,,,,,,,,,,,,
,,,,,V1_011,19,female,2024-04-29_18h00.57.173,jersey_experiment_5_v1,2023.2.2,Win32,84.03361345,,,,,,,,,,,,,,,,258.1138,259.9097,259.9098,260.9217,return,0.1358,,73.30729167,,,,,,FBP-PT-18.png,0.43,1.2,9,1,0,18,18,8,1,,,,,,,,,,,,,,,,,,,,,,,,,,,,,,,,,,,,,,,,
,,,,,V1_011,19,female,2024-04-29_18h00.57.173,jersey_experiment_5_v1,2023.2.2,Win32,84.03361345,,,,,,,,,,,,,,,,260.9219,262.2157,262.2157,263.2983,return,0.1649,,73.95833333,,,,,,FBP-RB-17.png,0.4,1.2,48,0.5,0,19,19,47,1,,,,,,,,,,,,,,,,,,,,,,,,,,,,,,,,,,,,,,,,
,,,,,V1_011,19,female,2024-04-29_18h00.57.173,jersey_experiment_5_v1,2023.2.2,Win32,84.03361345,,,,,,,,,,,,,,,,263.2985,264.5962,264.5963,265.4159,return,0.2076,,80.72916667,,,,,,FBP-OG-91.png,0.45,1.2,45,0.5,0,20,20,44,1,,,,,,,,,,,,,,,,,,,,,,,,,,,,,,,,,,,,,,,,
,,,,,V1_011,19,female,2024-04-29_18h00.57.173,jersey_experiment_5_v1,2023.2.2,Win32,84.03361345,,,,,,,,,,,,,,,,265.4161,266.7126,266.7126,267.583,return,0.1858,,25.26041667,,,,,,FBP-RB-17.png,0.35,1.2,46,0.5,0,21,21,45,1,,,,,,,,,,,,,,,,,,,,,,,,,,,,,,,,,,,,,,,,
,,,,,V1_011,19,female,2024-04-29_18h00.57.173,jersey_experiment_5_v1,2023.2.2,Win32,84.03361345,,,,,,,,,,,,,,,,267.5832,268.875,268.875,269.8395,return,0.1415,,67.05729167,,,,,,FBP-YG-81.png,0.43,1.2,24,0.5,0,22,22,23,1,,,,,,,,,,,,,,,,,,,,,,,,,,,,,,,,,,,,,,,,
,,,,,V1_011,19,female,2024-04-29_18h00.57.173,jersey_experiment_5_v1,2023.2.2,Win32,84.03361345,,,,,,,,,,,,,,,,269.8397,271.1338,271.1338,272.6083,return,0.1315,,58.46354167,,,,,,FBP-RB-19.png,0.4,1.2,58,0.5,0,23,23,57,1,,,,,,,,,,,,,,,,,,,,,,,,,,,,,,,,,,,,,,,,
,,,,,V1_011,19,female,2024-04-29_18h00.57.173,jersey_experiment_5_v1,2023.2.2,Win32,84.03361345,,,,,,,,,,,,,,,,272.6085,273.905,273.905,275.774,return,1.0012,,6.25,,,,,,FBP-YG-71.png,0.35,1.2,16,0.5,0,24,24,15,1,,,,,,,,,,,,,,,,,,,,,,,,,,,,,,,,,,,,,,,,
,,,,,V1_011,19,female,2024-04-29_18h00.57.173,jersey_experiment_5_v1,2023.2.2,Win32,84.03361345,,,,,,,,,,,,,,,,275.7742,277.0779,277.078,278.4635,return,0.1652,,78.64583333,,,,,,FBP-RB-17.png,0.45,1.2,50,0.5,0,25,25,49,1,,,,,,,,,,,,,,,,,,,,,,,,,,,,,,,,,,,,,,,,
,,,,,V1_011,19,female,2024-04-29_18h00.57.173,jersey_experiment_5_v1,2023.2.2,Win32,84.03361345,,,,,,,,,,,,,,,,278.4638,279.7613,279.7613,280.9931,return,0.2251,,68.48958333,,,,,,FBP-OG-71.png,0.4,1.2,33,0.5,0,26,26,32,1,,,,,,,,,,,,,,,,,,,,,,,,,,,,,,,,,,,,,,,,
,,,,,V1_011,19,female,2024-04-29_18h00.57.173,jersey_experiment_5_v1,2023.2.2,Win32,84.03361345,,,,,,,,,,,,,,,,280.9933,282.798,282.798,283.9865,return,0.1778,,20.3125,,,,,,FBP-PT-19.png,0.35,1.2,11,1,0,27,27,10,1,,,,,,,,,,,,,,,,,,,,,,,,,,,,,,,,,,,,,,,,
,,,,,V1_011,19,female,2024-04-29_18h00.57.173,jersey_experiment_5_v1,2023.2.2,Win32,84.03361345,,,,,,,,,,,,,,,,283.9867,285.2794,285.2794,286.3275,return,0.1893,,5.598958333,,,,,,FBP-OG-81.png,0.35,1.2,36,0.5,0,28,28,35,1,,,,,,,,,,,,,,,,,,,,,,,,,,,,,,,,,,,,,,,,
,,,,,V1_011,19,female,2024-04-29_18h00.57.173,jersey_experiment_5_v1,2023.2.2,Win32,84.03361345,,,,,,,,,,,,,,,,286.3277,287.6307,287.6307,289.6403,return,0.513,,51.5625,,,,,,FBP-YG-81.png,0.4,1.2,23,0.5,0,29,29,22,1,,,,,,,,,,,,,,,,,,,,,,,,,,,,,,,,,,,,,,,,
,,,,,V1_011,19,female,2024-04-29_18h00.57.173,jersey_experiment_5_v1,2023.2.2,Win32,84.03361345,,,,,,,,,,,,,,,,289.6405,291.4474,291.4474,292.7146,return,0.3171,,97.78645833,,,,,,FBP-PT-17.png,0.45,1.2,5,1,0,30,30,4,1,,,,,,,,,,,,,,,,,,,,,,,,,,,,,,,,,,,,,,,,
,,,,,V1_011,19,female,2024-04-29_18h00.57.173,jersey_experiment_5_v1,2023.2.2,Win32,84.03361345,,,,,,,,,,,,,,,,292.7147,294.5112,294.5112,295.4803,return,0.2128,,50.78125,,,,,,FBP-PT-17.png,0.37,1.2,2,1,0,31,31,1,1,,,,,,,,,,,,,,,,,,,,,,,,,,,,,,,,,,,,,,,,
,,,,,V1_011,19,female,2024-04-29_18h00.57.173,jersey_experiment_5_v1,2023.2.2,Win32,84.03361345,,,,,,,,,,,,,,,,295.4805,297.2815,297.2815,298.1861,return,0.1651,,66.14583333,,,,,,FBP-PT-17.png,0.43,1.2,4,1,0,32,32,3,1,,,,,,,,,,,,,,,,,,,,,,,,,,,,,,,,,,,,,,,,
,,,,,V1_011,19,female,2024-04-29_18h00.57.173,jersey_experiment_5_v1,2023.2.2,Win32,84.03361345,,,,,,,,,,,,,,,,298.1862,299.4879,299.4879,300.382,return,0.2506,,79.94791667,,,,,,FBP-OG-71.png,0.45,1.2,35,0.5,0,33,33,34,1,,,,,,,,,,,,,,,,,,,,,,,,,,,,,,,,,,,,,,,,
,,,,,V1_011,19,female,2024-04-29_18h00.57.173,jersey_experiment_5_v1,2023.2.2,Win32,84.03361345,,,,,,,,,,,,,,,,300.3822,301.6763,301.6763,302.8762,return,0.3095,,83.72395833,,,,,,FBP-OG-81.png,0.43,1.2,39,0.5,0,34,34,38,1,,,,,,,,,,,,,,,,,,,,,,,,,,,,,,,,,,,,,,,,
,,,,,V1_011,19,female,2024-04-29_18h00.57.173,jersey_experiment_5_v1,2023.2.2,Win32,84.03361345,,,,,,,,,,,,,,,,302.8764,304.1704,304.1704,306.4879,return,0.631,,85.02604167,,,,,,FBP-OG-91.png,0.43,1.2,44,0.5,0,35,35,43,1,,,,,,,,,,,,,,,,,,,,,,,,,,,,,,,,,,,,,,,,
,,,,,V1_011,19,female,2024-04-29_18h00.57.173,jersey_experiment_5_v1,2023.2.2,Win32,84.03361345,,,,,,,,,,,,,,,,306.4881,307.7822,307.7822,309.0697,return,0.1776,,46.35416667,,,,,,FBP-OG-81.png,0.4,1.2,38,0.5,0,36,36,37,1,,,,,,,,,,,,,,,,,,,,,,,,,,,,,,,,,,,,,,,,
,,,,,V1_011,19,female,2024-04-29_18h00.57.173,jersey_experiment_5_v1,2023.2.2,Win32,84.03361345,,,,,,,,,,,,,,,,309.0698,310.3706,310.3706,311.2413,return,0.148,,62.23958333,,,,,,FBP-RB-18.png,0.43,1.2,54,0.5,0,37,37,53,1,,,,,,,,,,,,,,,,,,,,,,,,,,,,,,,,,,,,,,,,
,,,,,V1_011,19,female,2024-04-29_18h00.57.173,jersey_experiment_5_v1,2023.2.2,Win32,84.03361345,,,,,,,,,,,,,,,,311.2415,312.5401,312.5401,314.164,return,0.4027,,75,,,,,,FBP-RB-19.png,0.45,1.2,60,0.5,0,38,38,59,1,,,,,,,,,,,,,,,,,,,,,,,,,,,,,,,,,,,,,,,,
,,,,,V1_011,19,female,2024-04-29_18h00.57.173,jersey_experiment_5_v1,2023.2.2,Win32,84.03361345,,,,,,,,,,,,,,,,314.1641,315.9591,315.9591,316.917,return,0.2129,,0.130208333,,,,,,FBP-PT-17.png,0.35,1.2,1,1,0,39,39,0,1,,,,,,,,,,,,,,,,,,,,,,,,,,,,,,,,,,,,,,,,
,,,,,V1_011,19,female,2024-04-29_18h00.57.173,jersey_experiment_5_v1,2023.2.2,Win32,84.03361345,,,,,,,,,,,,,,,,316.9171,318.712,318.712,319.7863,return,0.1289,,5.46875,,,,,,FBP-PT-18.png,0.37,1.2,7,1,0,40,40,6,1,,,,,,,,,,,,,,,,,,,,,,,,,,,,,,,,,,,,,,,,
,,,,,V1_011,19,female,2024-04-29_18h00.57.173,jersey_experiment_5_v1,2023.2.2,Win32,84.03361345,,,,,,,,,,,,,,,,319.7865,321.0793,321.0793,322.2416,return,0.2004,,81.51041667,,,,,,FBP-YG-91.png,0.45,1.2,30,0.5,0,41,41,29,1,,,,,,,,,,,,,,,,,,,,,,,,,,,,,,,,,,,,,,,,
,,,,,V1_011,19,female,2024-04-29_18h00.57.173,jersey_experiment_5_v1,2023.2.2,Win32,84.03361345,,,,,,,,,,,,,,,,322.2418,323.5395,323.5395,324.3989,return,0.2118,,88.54166667,,,,,,FBP-YG-91.png,0.43,1.2,29,0.5,0,42,42,28,1,,,,,,,,,,,,,,,,,,,,,,,,,,,,,,,,,,,,,,,,
,,,,,V1_011,19,female,2024-04-29_18h00.57.173,jersey_experiment_5_v1,2023.2.2,Win32,84.03361345,,,,,,,,,,,,,,,,324.3991,325.7035,325.7035,326.7478,return,0.2636,,49.34895833,,,,,,FBP-OG-91.png,0.37,1.2,42,0.5,0,43,43,41,1,,,,,,,,,,,,,,,,,,,,,,,,,,,,,,,,,,,,,,,,
,,,,,V1_011,19,female,2024-04-29_18h00.57.173,jersey_experiment_5_v1,2023.2.2,Win32,84.03361345,,,,,,,,,,,,,,,,326.748,328.5401,328.5401,329.5949,return,0.2414,,11.58854167,,,,,,FBP-PT-18.png,0.35,1.2,6,1,0,44,44,5,1,,,,,,,,,,,,,,,,,,,,,,,,,,,,,,,,,,,,,,,,
,,,,,V1_011,19,female,2024-04-29_18h00.57.173,jersey_experiment_5_v1,2023.2.2,Win32,84.03361345,,,,,,,,,,,,,,,,329.5951,330.8892,330.8892,332.1053,return,0.2359,,8.463541667,,,,,,FBP-OG-91.png,0.35,1.2,41,0.5,0,45,45,40,1,,,,,,,,,,,,,,,,,,,,,,,,,,,,,,,,,,,,,,,,
,,,,,V1_011,19,female,2024-04-29_18h00.57.173,jersey_experiment_5_v1,2023.2.2,Win32,84.03361345,,,,,,,,,,,,,,,,332.1054,333.4068,333.4068,334.6656,return,0.2532,,86.19791667,,,,,,FBP-YG-71.png,0.45,1.2,20,0.5,0,46,46,19,1,,,,,,,,,,,,,,,,,,,,,,,,,,,,,,,,,,,,,,,,
,,,,,V1_011,19,female,2024-04-29_18h00.57.173,jersey_experiment_5_v1,2023.2.2,Win32,84.03361345,,,,,,,,,,,,,,,,334.6658,335.9598,335.9598,337.4585,return,0.4139,,20.83333333,,,,,,FBP-RB-19.png,0.35,1.2,56,0.5,0,47,47,55,1,,,,,,,,,,,,,,,,,,,,,,,,,,,,,,,,,,,,,,,,
,,,,,V1_011,19,female,2024-04-29_18h00.57.173,jersey_experiment_5_v1,2023.2.2,Win32,84.03361345,,,,,,,,,,,,,,,,337.4587,338.7619,338.7619,340.9288,return,0.1651,,53.38541667,,,,,,FBP-YG-71.png,0.4,1.2,18,0.5,0,48,48,17,1,,,,,,,,,,,,,,,,,,,,,,,,,,,,,,,,,,,,,,,,
,,,,,V1_011,19,female,2024-04-29_18h00.57.173,jersey_experiment_5_v1,2023.2.2,Win32,84.03361345,,,,,,,,,,,,,,,,340.9289,342.224,342.224,343.3642,return,0.4839,,26.82291667,,,,,,FBP-YG-81.png,0.37,1.2,22,0.5,0,49,49,21,1,,,,,,,,,,,,,,,,,,,,,,,,,,,,,,,,,,,,,,,,
,,,,,V1_011,19,female,2024-04-29_18h00.57.173,jersey_experiment_5_v1,2023.2.2,Win32,84.03361345,,,,,,,,,,,,,,,,343.3644,345.1601,345.1601,345.9955,return,0.2394,,95.57291667,,,,,,FBP-PT-18.png,0.45,1.2,10,1,0,50,50,9,1,,,,,,,,,,,,,,,,,,,,,,,,,,,,,,,,,,,,,,,,
,,,,,V1_011,19,female,2024-04-29_18h00.57.173,jersey_experiment_5_v1,2023.2.2,Win32,84.03361345,,,,,,,,,,,,,,,,345.9957,347.2942,347.2942,348.4938,return,0.2828,,9.895833333,,,,,,FBP-RB-18.png,0.35,1.2,51,0.5,0,51,51,50,1,,,,,,,,,,,,,,,,,,,,,,,,,,,,,,,,,,,,,,,,
,,,,,V1_011,19,female,2024-04-29_18h00.57.173,jersey_experiment_5_v1,2023.2.2,Win32,84.03361345,,,,,,,,,,,,,,,,348.4939,350.2945,350.2945,351.1369,return,0.2014,,99.08854167,,,,,,FBP-PT-19.png,0.45,1.2,15,1,0,52,52,14,1,,,,,,,,,,,,,,,,,,,,,,,,,,,,,,,,,,,,,,,,
,,,,,V1_011,19,female,2024-04-29_18h00.57.173,jersey_experiment_5_v1,2023.2.2,Win32,84.03361345,,,,,,,,,,,,,,,,351.1371,352.4357,352.4357,354.2008,return,0.954,,17.83854167,,,,,,FBP-YG-91.png,0.37,1.2,27,0.5,0,53,53,26,1,,,,,,,,,,,,,,,,,,,,,,,,,,,,,,,,,,,,,,,,
,,,,,V1_011,19,female,2024-04-29_18h00.57.173,jersey_experiment_5_v1,2023.2.2,Win32,84.03361345,,,,,,,,,,,,,,,,354.2009,355.4948,355.4948,356.4745,return,0.1808,,15.625,,,,,,FBP-OG-81.png,0.37,1.2,37,0.5,0,54,54,36,1,,,,,,,,,,,,,,,,,,,,,,,,,,,,,,,,,,,,,,,,
,,,,,V1_011,19,female,2024-04-29_18h00.57.173,jersey_experiment_5_v1,2023.2.2,Win32,84.03361345,,,,,,,,,,,,,,,,356.4747,357.7725,357.7725,358.7174,return,0.1616,,15.234375,,,,,,FBP-RB-19.png,0.37,1.2,57,0.5,0,55,55,56,1,,,,,,,,,,,,,,,,,,,,,,,,,,,,,,,,,,,,,,,,
,,,,,V1_011,19,female,2024-04-29_18h00.57.173,jersey_experiment_5_v1,2023.2.2,Win32,84.03361345,,,,,,,,,,,,,,,,358.7176,360.0235,360.0236,360.8826,return,0.2002,,28.38541667,,,,,,FBP-RB-18.png,0.37,1.2,52,0.5,0,56,56,51,1,,,,,,,,,,,,,,,,,,,,,,,,,,,,,,,,,,,,,,,,
,,,,,V1_011,19,female,2024-04-29_18h00.57.173,jersey_experiment_5_v1,2023.2.2,Win32,84.03361345,,,,,,,,,,,,,,,,360.8827,362.1766,362.1766,362.8667,return,0.1446,,36.45833333,,,,,,FBP-OG-71.png,0.37,1.2,32,0.5,0,57,57,31,1,,,,,,,,,,,,,,,,,,,,,,,,,,,,,,,,,,,,,,,,
,,,,,V1_011,19,female,2024-04-29_18h00.57.173,jersey_experiment_5_v1,2023.2.2,Win32,84.03361345,,,,,,,,,,,,,,,,362.867,364.1636,364.1636,365.0832,return,0.3418,,66.53645833,,,,,,FBP-OG-71.png,0.43,1.2,34,0.5,0,58,58,33,1,,,,,,,,,,,,,,,,,,,,,,,,,,,,,,,,,,,,,,,,
,,,,,V1_011,19,female,2024-04-29_18h00.57.173,jersey_experiment_5_v1,2023.2.2,Win32,84.03361345,,,,,,,,,,,,,,,,365.0834,366.3902,366.3902,367.1138,return,0.1938,,78.125,,,,,,FBP-RB-19.png,0.43,1.2,59,0.5,0,59,59,58,1,,,,,,,,,,,,,,,,,,,,,,,,,,,,,,,,,,,,,,,,
,,,,,V1_011,19,female,2024-04-29_18h00.57.173,jersey_experiment_5_v1,2023.2.2,Win32,84.03361345,,,,,,,,,,,,,,,,,,,,,,,,,,,,,,,,,,,,,,,367.1141,487.1189,,,,,,,,,,,,,,,,,,,,,,,,,,,,,,,,,,,,,,
,,,,,V1_011,19,female,2024-04-29_18h00.57.173,jersey_experiment_5_v1,2023.2.2,Win32,84.03361345,,,,,,,,,,,,,,,,,,,,,,,,,,,,,,,,,,,,,,,,,487.1189,489.6834,return,2.5429,,,,,,,,,,,,,,,,,,,,,,,,,,,,,,,,,,
,,,,,V1_011,19,female,2024-04-29_18h00.57.173,jersey_experiment_5_v1,2023.2.2,Win32,84.03361345,,,,,,,,,,,,,,,,489.6893,491.488,491.488,493.154,return,0.6115,,7.03125,,,,,,FBP-OG-19.png,0.35,1.2,41,1,,,,,,,,,,,,,0,0,0,40,1,,,,,,,,,,,,,,,,,,,,,,,,,,,,
,,,,,V1_011,19,female,2024-04-29_18h00.57.173,jersey_experiment_5_v1,2023.2.2,Win32,84.03361345,,,,,,,,,,,,,,,,493.1543,494.9474,494.9474,496.2365,return,0.1932,,8.59375,,,,,,FBP-OG-19.png,0.37,1.2,42,1,,,,,,,,,,,,,0,1,1,41,1,,,,,,,,,,,,,,,,,,,,,,,,,,,,
,,,,,V1_011,19,female,2024-04-29_18h00.57.173,jersey_experiment_5_v1,2023.2.2,Win32,84.03361345,,,,,,,,,,,,,,,,496.2368,497.5307,497.5307,498.3681,return,0.1745,,2.083333333,,,,,,FBP-PT-91.png,0.35,1.2,11,0.5,,,,,,,,,,,,,0,2,2,10,1,,,,,,,,,,,,,,,,,,,,,,,,,,,,
,,,,,V1_011,19,female,2024-04-29_18h00.57.173,jersey_experiment_5_v1,2023.2.2,Win32,84.03361345,,,,,,,,,,,,,,,,498.3683,500.1661,500.1661,501.0052,return,0.2115,,7.552083333,,,,,,FBP-YG-19.png,0.37,1.2,27,1,,,,,,,,,,,,,0,3,3,26,1,,,,,,,,,,,,,,,,,,,,,,,,,,,,
,,,,,V1_011,19,female,2024-04-29_18h00.57.173,jersey_experiment_5_v1,2023.2.2,Win32,84.03361345,,,,,,,,,,,,,,,,501.0053,502.3115,502.3115,503.524,return,0.201,,62.23958333,,,,,,FBP-PT-81.png,0.4,1.2,8,0.5,,,,,,,,,,,,,0,4,4,7,1,,,,,,,,,,,,,,,,,,,,,,,,,,,,
,,,,,V1_011,19,female,2024-04-29_18h00.57.173,jersey_experiment_5_v1,2023.2.2,Win32,84.03361345,,,,,,,,,,,,,,,,503.5242,505.3193,505.3193,506.2253,return,0.3061,,58.72395833,,,,,,FBP-OG-17.png,0.37,1.2,32,1,,,,,,,,,,,,,0,5,5,31,1,,,,,,,,,,,,,,,,,,,,,,,,,,,,
,,,,,V1_011,19,female,2024-04-29_18h00.57.173,jersey_experiment_5_v1,2023.2.2,Win32,84.03361345,,,,,,,,,,,,,,,,506.2255,507.5193,507.5194,508.5967,return,0.275,,54.16666667,,,,,,FBP-PT-71.png,0.35,1.2,1,0.5,,,,,,,,,,,,,0,6,6,0,1,,,,,,,,,,,,,,,,,,,,,,,,,,,,
,,,,,V1_011,19,female,2024-04-29_18h00.57.173,jersey_experiment_5_v1,2023.2.2,Win32,84.03361345,,,,,,,,,,,,,,,,508.5968,510.3901,510.3901,511.1142,return,0.1438,,91.92708333,,,,,,FBP-YG-19.png,0.45,1.2,30,1,,,,,,,,,,,,,0,7,7,29,1,,,,,,,,,,,,,,,,,,,,,,,,,,,,
,,,,,V1_011,19,female,2024-04-29_18h00.57.173,jersey_experiment_5_v1,2023.2.2,Win32,84.03361345,,,,,,,,,,,,,,,,511.1143,512.9078,512.9078,513.5784,return,0.0994,,99.47916667,,,,,,FBP-RB-71.png,0.45,1.2,50,1,,,,,,,,,,,,,0,8,8,49,1,,,,,,,,,,,,,,,,,,,,,,,,,,,,
,,,,,V1_011,19,female,2024-04-29_18h00.57.173,jersey_experiment_5_v1,2023.2.2,Win32,84.03361345,,,,,,,,,,,,,,,,513.5785,515.3707,515.3707,516.0019,return,0.1522,,25.78125,,,,,,FBP-OG-18.png,0.35,1.2,36,1,,,,,,,,,,,,,0,9,9,35,1,,,,,,,,,,,,,,,,,,,,,,,,,,,,
,,,,,V1_011,19,female,2024-04-29_18h00.57.173,jersey_experiment_5_v1,2023.2.2,Win32,84.03361345,,,,,,,,,,,,,,,,516.0022,517.8019,517.8019,518.6257,return,0.1995,,23.30729167,,,,,,FBP-RB-71.png,0.35,1.2,46,1,,,,,,,,,,,,,0,10,10,45,1,,,,,,,,,,,,,,,,,,,,,,,,,,,,
,,,,,V1_011,19,female,2024-04-29_18h00.57.173,jersey_experiment_5_v1,2023.2.2,Win32,84.03361345,,,,,,,,,,,,,,,,518.6258,520.4188,520.4189,521.5788,return,0.4874,,72.39583333,,,,,,FBP-YG-17.png,0.45,1.2,20,1,,,,,,,,,,,,,0,11,11,19,1,,,,,,,,,,,,,,,,,,,,,,,,,,,,
,,,,,V1_011,19,female,2024-04-29_18h00.57.173,jersey_experiment_5_v1,2023.2.2,Win32,84.03361345,,,,,,,,,,,,,,,,521.5788,523.3788,523.3788,524.359,return,0.1425,,59.765625,,,,,,FBP-YG-19.png,0.4,1.2,28,1,,,,,,,,,,,,,0,12,12,27,1,,,,,,,,,,,,,,,,,,,,,,,,,,,,
,,,,,V1_011,19,female,2024-04-29_18h00.57.173,jersey_experiment_5_v1,2023.2.2,Win32,84.03361345,,,,,,,,,,,,,,,,524.3592,525.6521,525.6521,526.5084,return,0.2158,,45.57291667,,,,,,FBP-PT-71.png,0.37,1.2,2,0.5,,,,,,,,,,,,,0,13,13,1,1,,,,,,,,,,,,,,,,,,,,,,,,,,,,
,,,,,V1_011,19,female,2024-04-29_18h00.57.173,jersey_experiment_5_v1,2023.2.2,Win32,84.03361345,,,,,,,,,,,,,,,,526.5085,528.3084,528.3084,528.9113,return,0.2121,,59.63541667,,,,,,FBP-OG-17.png,0.43,1.2,34,1,,,,,,,,,,,,,0,14,14,33,1,,,,,,,,,,,,,,,,,,,,,,,,,,,,
,,,,,V1_011,19,female,2024-04-29_18h00.57.173,jersey_experiment_5_v1,2023.2.2,Win32,84.03361345,,,,,,,,,,,,,,,,528.9115,530.7084,530.7084,531.6968,return,0.305,,59.765625,,,,,,FBP-YG-19.png,0.43,1.2,29,1,,,,,,,,,,,,,0,15,15,28,1,,,,,,,,,,,,,,,,,,,,,,,,,,,,
,,,,,V1_011,19,female,2024-04-29_18h00.57.173,jersey_experiment_5_v1,2023.2.2,Win32,84.03361345,,,,,,,,,,,,,,,,531.6969,532.9955,532.9955,533.6968,return,0.0824,,81.11979167,,,,,,FBP-PT-91.png,0.45,1.2,15,0.5,,,,,,,,,,,,,0,16,16,14,1,,,,,,,,,,,,,,,,,,,,,,,,,,,,
,,,,,V1_011,19,female,2024-04-29_18h00.57.173,jersey_experiment_5_v1,2023.2.2,Win32,84.03361345,,,,,,,,,,,,,,,,533.697,535.4969,535.4969,536.1203,return,0.1486,,48.95833333,,,,,,FBP-OG-19.png,0.4,1.2,43,1,,,,,,,,,,,,,0,17,17,42,1,,,,,,,,,,,,,,,,,,,,,,,,,,,,
,,,,,V1_011,19,female,2024-04-29_18h00.57.173,jersey_experiment_5_v1,2023.2.2,Win32,84.03361345,,,,,,,,,,,,,,,,536.1204,537.4146,537.4146,538.2029,return,0.1237,,12.109375,,,,,,FBP-PT-81.png,0.37,1.2,7,0.5,,,,,,,,,,,,,0,18,18,6,1,,,,,,,,,,,,,,,,,,,,,,,,,,,,
,,,,,V1_011,19,female,2024-04-29_18h00.57.173,jersey_experiment_5_v1,2023.2.2,Win32,84.03361345,,,,,,,,,,,,,,,,538.203,540.0029,540.0029,540.8421,return,0.1176,,29.55729167,,,,,,FBP-RB-81.png,0.4,1.2,53,1,,,,,,,,,,,,,0,19,19,52,1,,,,,,,,,,,,,,,,,,,,,,,,,,,,
,,,,,V1_011,19,female,2024-04-29_18h00.57.173,jersey_experiment_5_v1,2023.2.2,Win32,84.03361345,,,,,,,,,,,,,,,,540.8422,542.6383,542.6383,543.3955,return,0.1415,,7.03125,,,,,,FBP-YG-18.png,0.37,1.2,22,1,,,,,,,,,,,,,0,20,20,21,1,,,,,,,,,,,,,,,,,,,,,,,,,,,,
,,,,,V1_011,19,female,2024-04-29_18h00.57.173,jersey_experiment_5_v1,2023.2.2,Win32,84.03361345,,,,,,,,,,,,,,,,543.3956,545.1913,545.1913,546.044,return,0.2017,,9.635416667,,,,,,FBP-YG-17.png,0.35,1.2,16,1,,,,,,,,,,,,,0,21,21,15,1,,,,,,,,,,,,,,,,,,,,,,,,,,,,
,,,,,V1_011,19,female,2024-04-29_18h00.57.173,jersey_experiment_5_v1,2023.2.2,Win32,84.03361345,,,,,,,,,,,,,,,,546.0442,547.8432,547.8432,548.582,return,0.1163,,82.16145833,,,,,,FBP-YG-18.png,0.43,1.2,24,1,,,,,,,,,,,,,0,22,22,23,1,,,,,,,,,,,,,,,,,,,,,,,,,,,,
,,,,,V1_011,19,female,2024-04-29_18h00.57.173,jersey_experiment_5_v1,2023.2.2,Win32,84.03361345,,,,,,,,,,,,,,,,548.5821,550.3842,550.3842,551.196,return,0.1653,,97.52604167,,,,,,FBP-OG-19.png,0.43,1.2,44,1,,,,,,,,,,,,,0,23,23,43,1,,,,,,,,,,,,,,,,,,,,,,,,,,,,
,,,,,V1_011,19,female,2024-04-29_18h00.57.173,jersey_experiment_5_v1,2023.2.2,Win32,84.03361345,,,,,,,,,,,,,,,,551.1962,552.9917,552.9917,554.1842,return,0.1653,,1.5625,,,,,,FBP-RB-81.png,0.35,1.2,51,1,,,,,,,,,,,,,0,24,24,50,1,,,,,,,,,,,,,,,,,,,,,,,,,,,,
,,,,,V1_011,19,female,2024-04-29_18h00.57.173,jersey_experiment_5_v1,2023.2.2,Win32,84.03361345,,,,,,,,,,,,,,,,554.1844,555.9801,555.9801,556.5448,return,0.1298,,64.84375,,,,,,FBP-YG-18.png,0.45,1.2,25,1,,,,,,,,,,,,,0,25,25,24,1,,,,,,,,,,,,,,,,,,,,,,,,,,,,
,,,,,V1_011,19,female,2024-04-29_18h00.57.173,jersey_experiment_5_v1,2023.2.2,Win32,84.03361345,,,,,,,,,,,,,,,,556.545,558.3376,558.3376,559.2103,return,0.1458,,51.171875,,,,,,FBP-RB-71.png,0.4,1.2,48,1,,,,,,,,,,,,,0,26,26,47,1,,,,,,,,,,,,,,,,,,,,,,,,,,,,
,,,,,V1_011,19,female,2024-04-29_18h00.57.173,jersey_experiment_5_v1,2023.2.2,Win32,84.03361345,,,,,,,,,,,,,,,,559.2104,561.0038,561.0039,561.9253,return,0.1542,,67.05729167,,,,,,FBP-RB-91.png,0.4,1.2,58,1,,,,,,,,,,,,,0,27,27,57,1,,,,,,,,,,,,,,,,,,,,,,,,,,,,
,,,,,V1_011,19,female,2024-04-29_18h00.57.173,jersey_experiment_5_v1,2023.2.2,Win32,84.03361345,,,,,,,,,,,,,,,,561.9255,563.7215,563.7215,565.0559,return,0.3538,,18.22916667,,,,,,FBP-RB-91.png,0.35,1.2,56,1,,,,,,,,,,,,,0,28,28,55,1,,,,,,,,,,,,,,,,,,,,,,,,,,,,
,,,,,V1_011,19,female,2024-04-29_18h00.57.173,jersey_experiment_5_v1,2023.2.2,Win32,84.03361345,,,,,,,,,,,,,,,,565.0561,566.8511,566.8512,567.4981,return,0.1704,,29.296875,,,,,,FBP-OG-18.png,0.4,1.2,38,1,,,,,,,,,,,,,0,29,29,37,1,,,,,,,,,,,,,,,,,,,,,,,,,,,,
,,,,,V1_011,19,female,2024-04-29_18h00.57.173,jersey_experiment_5_v1,2023.2.2,Win32,84.03361345,,,,,,,,,,,,,,,,567.4983,569.3021,569.3021,569.9612,return,0.1634,,3.645833333,,,,,,FBP-YG-18.png,0.35,1.2,21,1,,,,,,,,,,,,,0,30,30,20,1,,,,,,,,,,,,,,,,,,,,,,,,,,,,
,,,,,V1_011,19,female,2024-04-29_18h00.57.173,jersey_experiment_5_v1,2023.2.2,Win32,84.03361345,,,,,,,,,,,,,,,,569.9614,571.763,571.763,572.9022,return,0.3292,,6.770833333,,,,,,FBP-OG-17.png,0.35,1.2,31,1,,,,,,,,,,,,,0,31,31,30,1,,,,,,,,,,,,,,,,,,,,,,,,,,,,
,,,,,V1_011,19,female,2024-04-29_18h00.57.173,jersey_experiment_5_v1,2023.2.2,Win32,84.03361345,,,,,,,,,,,,,,,,572.9023,574.7003,574.7004,575.7949,return,0.7047,,10.9375,,,,,,FBP-YG-17.png,0.37,1.2,17,1,,,,,,,,,,,,,0,32,32,16,1,,,,,,,,,,,,,,,,,,,,,,,,,,,,
,,,,,V1_011,19,female,2024-04-29_18h00.57.173,jersey_experiment_5_v1,2023.2.2,Win32,84.03361345,,,,,,,,,,,,,,,,575.795,577.5986,577.5986,578.6789,return,0.1883,,80.20833333,,,,,,FBP-OG-18.png,0.45,1.2,40,1,,,,,,,,,,,,,0,33,33,39,1,,,,,,,,,,,,,,,,,,,,,,,,,,,,
,,,,,V1_011,19,female,2024-04-29_18h00.57.173,jersey_experiment_5_v1,2023.2.2,Win32,84.03361345,,,,,,,,,,,,,,,,578.679,580.4769,580.477,581.2772,return,0.1746,,97.91666667,,,,,,FBP-OG-17.png,0.45,1.2,35,1,,,,,,,,,,,,,0,34,34,34,1,,,,,,,,,,,,,,,,,,,,,,,,,,,,
,,,,,V1_011,19,female,2024-04-29_18h00.57.173,jersey_experiment_5_v1,2023.2.2,Win32,84.03361345,,,,,,,,,,,,,,,,581.2774,582.5692,582.5692,583.4045,return,0.1213,,42.44791667,,,,,,FBP-PT-81.png,0.35,1.2,6,0.5,,,,,,,,,,,,,0,35,35,5,1,,,,,,,,,,,,,,,,,,,,,,,,,,,,
,,,,,V1_011,19,female,2024-04-29_18h00.57.173,jersey_experiment_5_v1,2023.2.2,Win32,84.03361345,,,,,,,,,,,,,,,,583.4047,584.7015,584.7015,585.5482,return,0.1865,,75.78125,,,,,,FBP-PT-71.png,0.45,1.2,5,0.5,,,,,,,,,,,,,0,36,36,4,1,,,,,,,,,,,,,,,,,,,,,,,,,,,,
,,,,,V1_011,19,female,2024-04-29_18h00.57.173,jersey_experiment_5_v1,2023.2.2,Win32,84.03361345,,,,,,,,,,,,,,,,585.5483,587.3459,587.3459,587.9459,return,0.1475,,85.15625,,,,,,FBP-OG-18.png,0.43,1.2,39,1,,,,,,,,,,,,,0,37,37,38,1,,,,,,,,,,,,,,,,,,,,,,,,,,,,
,,,,,V1_011,19,female,2024-04-29_18h00.57.173,jersey_experiment_5_v1,2023.2.2,Win32,84.03361345,,,,,,,,,,,,,,,,587.9462,589.7459,589.7459,590.3461,return,0.0886,,58.33333333,,,,,,FBP-RB-81.png,0.37,1.2,52,1,,,,,,,,,,,,,0,38,38,51,1,,,,,,,,,,,,,,,,,,,,,,,,,,,,
,,,,,V1_011,19,female,2024-04-29_18h00.57.173,jersey_experiment_5_v1,2023.2.2,Win32,84.03361345,,,,,,,,,,,,,,,,590.3462,591.6438,591.6438,593.4223,return,0.2961,,97.265625,,,,,,FBP-PT-81.png,0.45,1.2,10,0.5,,,,,,,,,,,,,0,39,39,9,1,,,,,,,,,,,,,,,,,,,,,,,,,,,,
,,,,,V1_011,19,female,2024-04-29_18h00.57.173,jersey_experiment_5_v1,2023.2.2,Win32,84.03361345,,,,,,,,,,,,,,,,593.4225,595.2213,595.2213,595.9132,return,0.1513,,9.895833333,,,,,,FBP-YG-19.png,0.35,1.2,26,1,,,,,,,,,,,,,0,40,40,25,1,,,,,,,,,,,,,,,,,,,,,,,,,,,,
,,,,,V1_011,19,female,2024-04-29_18h00.57.173,jersey_experiment_5_v1,2023.2.2,Win32,84.03361345,,,,,,,,,,,,,,,,595.9134,597.2084,597.2085,598.6571,return,0.248,,55.46875,,,,,,FBP-PT-71.png,0.4,1.2,3,0.5,,,,,,,,,,,,,0,41,41,2,1,,,,,,,,,,,,,,,,,,,,,,,,,,,,
,,,,,V1_011,19,female,2024-04-29_18h00.57.173,jersey_experiment_5_v1,2023.2.2,Win32,84.03361345,,,,,,,,,,,,,,,,598.6572,600.4522,600.4522,601.3229,return,0.1239,,96.09375,,,,,,FBP-RB-81.png,0.45,1.2,55,1,,,,,,,,,,,,,0,42,42,54,1,,,,,,,,,,,,,,,,,,,,,,,,,,,,
,,,,,V1_011,19,female,2024-04-29_18h00.57.173,jersey_experiment_5_v1,2023.2.2,Win32,84.03361345,,,,,,,,,,,,,,,,601.323,603.1231,603.1231,603.9346,return,0.2127,,99.08854167,,,,,,FBP-RB-91.png,0.45,1.2,60,1,,,,,,,,,,,,,0,43,43,59,1,,,,,,,,,,,,,,,,,,,,,,,,,,,,
,,,,,V1_011,19,female,2024-04-29_18h00.57.173,jersey_experiment_5_v1,2023.2.2,Win32,84.03361345,,,,,,,,,,,,,,,,603.9349,605.7348,605.7349,606.2995,return,0.144,,69.27083333,,,,,,FBP-YG-18.png,0.4,1.2,23,1,,,,,,,,,,,,,0,44,44,22,1,,,,,,,,,,,,,,,,,,,,,,,,,,,,
,,,,,V1_011,19,female,2024-04-29_18h00.57.173,jersey_experiment_5_v1,2023.2.2,Win32,84.03361345,,,,,,,,,,,,,,,,606.2998,607.5959,607.5959,608.267,return,0.2207,,35.9375,,,,,,FBP-PT-91.png,0.37,1.2,12,0.5,,,,,,,,,,,,,0,45,45,11,1,,,,,,,,,,,,,,,,,,,,,,,,,,,,
,,,,,V1_011,19,female,2024-04-29_18h00.57.173,jersey_experiment_5_v1,2023.2.2,Win32,84.03361345,,,,,,,,,,,,,,,,608.2672,610.0643,610.0643,610.9704,return,0.0628,,52.86458333,,,,,,FBP-RB-71.png,0.43,1.2,49,1,,,,,,,,,,,,,0,46,46,48,1,,,,,,,,,,,,,,,,,,,,,,,,,,,,
,,,,,V1_011,19,female,2024-04-29_18h00.57.173,jersey_experiment_5_v1,2023.2.2,Win32,84.03361345,,,,,,,,,,,,,,,,610.9706,612.765,612.765,614.0341,return,0.1759,,18.22916667,,,,,,FBP-OG-18.png,0.37,1.2,37,1,,,,,,,,,,,,,0,47,47,36,1,,,,,,,,,,,,,,,,,,,,,,,,,,,,
,,,,,V1_011,19,female,2024-04-29_18h00.57.173,jersey_experiment_5_v1,2023.2.2,Win32,84.03361345,,,,,,,,,,,,,,,,614.0342,615.8295,615.8295,616.7001,return,0.1921,,11.84895833,,,,,,FBP-RB-91.png,0.37,1.2,57,1,,,,,,,,,,,,,0,48,48,56,1,,,,,,,,,,,,,,,,,,,,,,,,,,,,
,,,,,V1_011,19,female,2024-04-29_18h00.57.173,jersey_experiment_5_v1,2023.2.2,Win32,84.03361345,,,,,,,,,,,,,,,,616.7002,617.9988,617.9988,619.0453,return,0.2809,,9.114583333,,,,,,FBP-PT-91.png,0.4,1.2,13,0.5,,,,,,,,,,,,,0,49,49,12,1,,,,,,,,,,,,,,,,,,,,,,,,,,,,
,,,,,V1_011,19,female,2024-04-29_18h00.57.173,jersey_experiment_5_v1,2023.2.2,Win32,84.03361345,,,,,,,,,,,,,,,,619.0455,620.3495,620.3495,621.5058,return,0.2015,,80.98958333,,,,,,FBP-PT-71.png,0.43,1.2,4,0.5,,,,,,,,,,,,,0,50,50,3,1,,,,,,,,,,,,,,,,,,,,,,,,,,,,
,,,,,V1_011,19,female,2024-04-29_18h00.57.173,jersey_experiment_5_v1,2023.2.2,Win32,84.03361345,,,,,,,,,,,,,,,,621.5059,623.3064,623.3064,623.9473,return,0.1814,,63.28125,,,,,,FBP-OG-17.png,0.4,1.2,33,1,,,,,,,,,,,,,0,51,51,32,1,,,,,,,,,,,,,,,,,,,,,,,,,,,,
,,,,,V1_011,19,female,2024-04-29_18h00.57.173,jersey_experiment_5_v1,2023.2.2,Win32,84.03361345,,,,,,,,,,,,,,,,623.9474,625.7475,625.7475,626.8416,return,0.2182,,95.44270833,,,,,,FBP-RB-81.png,0.43,1.2,54,1,,,,,,,,,,,,,0,52,52,53,1,,,,,,,,,,,,,,,,,,,,,,,,,,,,
,,,,,V1_011,19,female,2024-04-29_18h00.57.173,jersey_experiment_5_v1,2023.2.2,Win32,84.03361345,,,,,,,,,,,,,,,,626.8417,628.6439,628.6439,629.7749,return,0.1873,,83.59375,,,,,,FBP-YG-17.png,0.4,1.2,18,1,,,,,,,,,,,,,0,53,53,17,1,,,,,,,,,,,,,,,,,,,,,,,,,,,,
,,,,,V1_011,19,female,2024-04-29_18h00.57.173,jersey_experiment_5_v1,2023.2.2,Win32,84.03361345,,,,,,,,,,,,,,,,629.775,631.571,631.5711,632.2182,return,0.1457,,94.79166667,,,,,,FBP-OG-19.png,0.45,1.2,45,1,,,,,,,,,,,,,0,54,54,44,1,,,,,,,,,,,,,,,,,,,,,,,,,,,,
,,,,,V1_011,19,female,2024-04-29_18h00.57.173,jersey_experiment_5_v1,2023.2.2,Win32,84.03361345,,,,,,,,,,,,,,,,632.2184,634.0101,634.0102,634.7988,return,0.2121,,96.74479167,,,,,,FBP-RB-91.png,0.43,1.2,59,1,,,,,,,,,,,,,0,55,55,58,1,,,,,,,,,,,,,,,,,,,,,,,,,,,,
,,,,,V1_011,19,female,2024-04-29_18h00.57.173,jersey_experiment_5_v1,2023.2.2,Win32,84.03361345,,,,,,,,,,,,,,,,634.799,636.1008,636.1008,636.9988,return,0.1646,,93.48958333,,,,,,FBP-PT-91.png,0.43,1.2,14,0.5,,,,,,,,,,,,,0,56,56,13,1,,,,,,,,,,,,,,,,,,,,,,,,,,,,
,,,,,V1_011,19,female,2024-04-29_18h00.57.173,jersey_experiment_5_v1,2023.2.2,Win32,84.03361345,,,,,,,,,,,,,,,,636.999,638.795,638.795,639.642,return,0.2752,,84.50520833,,,,,,FBP-YG-17.png,0.43,1.2,19,1,,,,,,,,,,,,,0,57,57,18,1,,,,,,,,,,,,,,,,,,,,,,,,,,,,
,,,,,V1_011,19,female,2024-04-29_18h00.57.173,jersey_experiment_5_v1,2023.2.2,Win32,84.03361345,,,,,,,,,,,,,,,,639.6422,641.442,641.442,642.1989,return,0.225,,46.35416667,,,,,,FBP-RB-71.png,0.37,1.2,47,1,,,,,,,,,,,,,0,58,58,46,1,,,,,,,,,,,,,,,,,,,,,,,,,,,,
,,,,,V1_011,19,female,2024-04-29_18h00.57.173,jersey_experiment_5_v1,2023.2.2,Win32,84.03361345,,,,,,,,,,,,,,,,642.1991,643.5066,643.5066,644.517,return,0.1534,,24.73958333,,,,,,FBP-PT-81.png,0.43,1.2,9,0.5,,,,,,,,,,,,,0,59,59,8,1,,,,,,,,,,,,,,,,,,,,,,,,,,,,
,,,,,V1_011,19,female,2024-04-29_18h00.57.173,jersey_experiment_5_v1,2023.2.2,Win32,84.03361345,,,,,,,,,,,,,,,,644.5184,646.313,646.313,647.5873,return,0.1867,,55.46875,,,,,,FBP-OG-91.png,0.4,1.2,43,1,,,,,,,,,,,,,,,,,,0,0,0,42,1,,,,,,,,,,,,,,,,,,,,,,,
,,,,,V1_011,19,female,2024-04-29_18h00.57.173,jersey_experiment_5_v1,2023.2.2,Win32,84.03361345,,,,,,,,,,,,,,,,647.5875,649.3894,649.3895,650.0306,return,0.1541,,82.8125,,,,,,FBP-RB-19.png,0.43,1.2,59,1,,,,,,,,,,,,,,,,,,0,1,1,58,1,,,,,,,,,,,,,,,,,,,,,,,
,,,,,V1_011,19,female,2024-04-29_18h00.57.173,jersey_experiment_5_v1,2023.2.2,Win32,84.03361345,,,,,,,,,,,,,,,,650.0308,651.8306,651.8306,652.5366,return,0.1248,,70.05208333,,,,,,FBP-YG-81.png,0.45,1.2,25,1,,,,,,,,,,,,,,,,,,0,2,2,24,1,,,,,,,,,,,,,,,,,,,,,,,
,,,,,V1_011,19,female,2024-04-29_18h00.57.173,jersey_experiment_5_v1,2023.2.2,Win32,84.03361345,,,,,,,,,,,,,,,,652.5368,654.3427,654.3427,654.9066,return,0.2012,,44.40104167,,,,,,FBP-RB-18.png,0.37,1.2,52,1,,,,,,,,,,,,,,,,,,0,3,3,51,1,,,,,,,,,,,,,,,,,,,,,,,
,,,,,V1_011,19,female,2024-04-29_18h00.57.173,jersey_experiment_5_v1,2023.2.2,Win32,84.03361345,,,,,,,,,,,,,,,,654.9067,656.7014,656.7014,657.4729,return,0.2147,,70.57291667,,,,,,FBP-OG-71.png,0.45,1.2,35,1,,,,,,,,,,,,,,,,,,0,4,4,34,1,,,,,,,,,,,,,,,,,,,,,,,
,,,,,V1_011,19,female,2024-04-29_18h00.57.173,jersey_experiment_5_v1,2023.2.2,Win32,84.03361345,,,,,,,,,,,,,,,,657.4731,659.2698,659.2698,659.9369,return,0.0956,,82.421875,,,,,,FBP-RB-17.png,0.45,1.2,50,1,,,,,,,,,,,,,,,,,,0,5,5,49,1,,,,,,,,,,,,,,,,,,,,,,,
,,,,,V1_011,19,female,2024-04-29_18h00.57.173,jersey_experiment_5_v1,2023.2.2,Win32,84.03361345,,,,,,,,,,,,,,,,659.9371,661.737,661.737,662.3528,return,0.1661,,82.421875,,,,,,FBP-RB-18.png,0.43,1.2,54,1,,,,,,,,,,,,,,,,,,0,6,6,53,1,,,,,,,,,,,,,,,,,,,,,,,
,,,,,V1_011,19,female,2024-04-29_18h00.57.173,jersey_experiment_5_v1,2023.2.2,Win32,84.03361345,,,,,,,,,,,,,,,,662.3529,664.1489,664.1489,664.7605,return,0.1035,,61.97916667,,,,,,FBP-OG-71.png,0.4,1.2,33,1,,,,,,,,,,,,,,,,,,0,7,7,32,1,,,,,,,,,,,,,,,,,,,,,,,
,,,,,V1_011,19,female,2024-04-29_18h00.57.173,jersey_experiment_5_v1,2023.2.2,Win32,84.03361345,,,,,,,,,,,,,,,,664.7606,666.5608,666.5608,667.4597,return,0.2361,,16.40625,,,,,,FBP-OG-81.png,0.35,1.2,36,1,,,,,,,,,,,,,,,,,,0,8,8,35,1,,,,,,,,,,,,,,,,,,,,,,,
,,,,,V1_011,19,female,2024-04-29_18h00.57.173,jersey_experiment_5_v1,2023.2.2,Win32,84.03361345,,,,,,,,,,,,,,,,667.4599,669.2549,669.2549,670.1255,return,0.2386,,67.83854167,,,,,,FBP-YG-71.png,0.4,1.2,18,1,,,,,,,,,,,,,,,,,,0,9,9,17,1,,,,,,,,,,,,,,,,,,,,,,,
,,,,,V1_011,19,female,2024-04-29_18h00.57.173,jersey_experiment_5_v1,2023.2.2,Win32,84.03361345,,,,,,,,,,,,,,,,670.1258,671.9324,671.9324,672.9256,return,0.1907,,11.328125,,,,,,FBP-YG-71.png,0.35,1.2,16,1,,,,,,,,,,,,,,,,,,0,10,10,15,1,,,,,,,,,,,,,,,,,,,,,,,
,,,,,V1_011,19,female,2024-04-29_18h00.57.173,jersey_experiment_5_v1,2023.2.2,Win32,84.03361345,,,,,,,,,,,,,,,,672.9257,674.7257,674.7257,675.6787,return,0.0839,,29.16666667,,,,,,FBP-RB-19.png,0.35,1.2,56,1,,,,,,,,,,,,,,,,,,0,11,11,55,1,,,,,,,,,,,,,,,,,,,,,,,
,,,,,V1_011,19,female,2024-04-29_18h00.57.173,jersey_experiment_5_v1,2023.2.2,Win32,84.03361345,,,,,,,,,,,,,,,,675.6788,677.4787,677.4787,678.7066,return,0.3063,,5.598958333,,,,,,FBP-OG-71.png,0.35,1.2,31,1,,,,,,,,,,,,,,,,,,0,12,12,30,1,,,,,,,,,,,,,,,,,,,,,,,
,,,,,V1_011,19,female,2024-04-29_18h00.57.173,jersey_experiment_5_v1,2023.2.2,Win32,84.03361345,,,,,,,,,,,,,,,,678.7067,680.0083,680.0083,681.1848,return,0.0826,,94.66145833,,,,,,FBP-PT-19.png,0.43,1.2,14,0.5,,,,,,,,,,,,,,,,,,0,13,13,13,1,,,,,,,,,,,,,,,,,,,,,,,
,,,,,V1_011,19,female,2024-04-29_18h00.57.173,jersey_experiment_5_v1,2023.2.2,Win32,84.03361345,,,,,,,,,,,,,,,,681.185,682.9905,682.9905,683.6722,return,0.1659,,56.38020833,,,,,,FBP-YG-71.png,0.37,1.2,17,1,,,,,,,,,,,,,,,,,,0,14,14,16,1,,,,,,,,,,,,,,,,,,,,,,,
,,,,,V1_011,19,female,2024-04-29_18h00.57.173,jersey_experiment_5_v1,2023.2.2,Win32,84.03361345,,,,,,,,,,,,,,,,683.6723,685.4673,685.4673,686.8438,return,0.122,,63.671875,,,,,,FBP-OG-91.png,0.37,1.2,42,1,,,,,,,,,,,,,,,,,,0,15,15,41,1,,,,,,,,,,,,,,,,,,,,,,,
,,,,,V1_011,19,female,2024-04-29_18h00.57.173,jersey_experiment_5_v1,2023.2.2,Win32,84.03361345,,,,,,,,,,,,,,,,686.844,688.644,688.644,689.1969,return,0.1427,,77.86458333,,,,,,FBP-RB-18.png,0.4,1.2,53,1,,,,,,,,,,,,,,,,,,0,16,16,52,1,,,,,,,,,,,,,,,,,,,,,,,
,,,,,V1_011,19,female,2024-04-29_18h00.57.173,jersey_experiment_5_v1,2023.2.2,Win32,84.03361345,,,,,,,,,,,,,,,,689.1972,691.0024,691.0024,692.0441,return,0.1331,,98.4375,,,,,,FBP-OG-91.png,0.45,1.2,45,1,,,,,,,,,,,,,,,,,,0,17,17,44,1,,,,,,,,,,,,,,,,,,,,,,,
,,,,,V1_011,19,female,2024-04-29_18h00.57.173,jersey_experiment_5_v1,2023.2.2,Win32,84.03361345,,,,,,,,,,,,,,,,692.0443,693.8371,693.8371,694.6323,return,0.1139,,31.25,,,,,,FBP-YG-81.png,0.37,1.2,22,1,,,,,,,,,,,,,,,,,,0,18,18,21,1,,,,,,,,,,,,,,,,,,,,,,,
,,,,,V1_011,19,female,2024-04-29_18h00.57.173,jersey_experiment_5_v1,2023.2.2,Win32,84.03361345,,,,,,,,,,,,,,,,694.6324,696.4255,696.4255,697.4724,return,0.1874,,94.27083333,,,,,,FBP-YG-71.png,0.43,1.2,19,1,,,,,,,,,,,,,,,,,,0,19,19,18,1,,,,,,,,,,,,,,,,,,,,,,,
,,,,,V1_011,19,female,2024-04-29_18h00.57.173,jersey_experiment_5_v1,2023.2.2,Win32,84.03361345,,,,,,,,,,,,,,,,697.4726,699.2678,699.2678,699.8678,return,0.1453,,98.4375,,,,,,FBP-OG-81.png,0.43,1.2,39,1,,,,,,,,,,,,,,,,,,0,20,20,38,1,,,,,,,,,,,,,,,,,,,,,,,
,,,,,V1_011,19,female,2024-04-29_18h00.57.173,jersey_experiment_5_v1,2023.2.2,Win32,84.03361345,,,,,,,,,,,,,,,,699.8679,701.6607,701.6607,703.1925,return,0.6986,,27.60416667,,,,,,FBP-RB-19.png,0.37,1.2,57,1,,,,,,,,,,,,,,,,,,0,21,21,56,1,,,,,,,,,,,,,,,,,,,,,,,
,,,,,V1_011,19,female,2024-04-29_18h00.57.173,jersey_experiment_5_v1,2023.2.2,Win32,84.03361345,,,,,,,,,,,,,,,,703.1926,704.9857,704.9858,705.8259,return,0.2827,,0.520833333,,,,,,FBP-RB-18.png,0.35,1.2,51,1,,,,,,,,,,,,,,,,,,0,22,22,50,1,,,,,,,,,,,,,,,,,,,,,,,
,,,,,V1_011,19,female,2024-04-29_18h00.57.173,jersey_experiment_5_v1,2023.2.2,Win32,84.03361345,,,,,,,,,,,,,,,,705.8261,707.6247,707.6247,708.5387,return,0.1233,,2.604166667,,,,,,FBP-YG-91.png,0.35,1.2,26,1,,,,,,,,,,,,,,,,,,0,23,23,25,1,,,,,,,,,,,,,,,,,,,,,,,
,,,,,V1_011,19,female,2024-04-29_18h00.57.173,jersey_experiment_5_v1,2023.2.2,Win32,84.03361345,,,,,,,,,,,,,,,,708.5389,710.3388,710.3388,710.986,return,0.1241,,5.859375,,,,,,FBP-RB-17.png,0.35,1.2,46,1,,,,,,,,,,,,,,,,,,0,24,24,45,1,,,,,,,,,,,,,,,,,,,,,,,
,,,,,V1_011,19,female,2024-04-29_18h00.57.173,jersey_experiment_5_v1,2023.2.2,Win32,84.03361345,,,,,,,,,,,,,,,,710.9861,712.2801,712.2801,713.9155,return,0.134,,55.859375,,,,,,FBP-PT-18.png,0.35,1.2,6,0.5,,,,,,,,,,,,,,,,,,0,25,25,5,1,,,,,,,,,,,,,,,,,,,,,,,
,,,,,V1_011,19,female,2024-04-29_18h00.57.173,jersey_experiment_5_v1,2023.2.2,Win32,84.03361345,,,,,,,,,,,,,,,,713.9156,715.7083,715.7083,716.6214,return,0.238,,94.79166667,,,,,,FBP-YG-91.png,0.45,1.2,30,1,,,,,,,,,,,,,,,,,,0,26,26,29,1,,,,,,,,,,,,,,,,,,,,,,,
,,,,,V1_011,19,female,2024-04-29_18h00.57.173,jersey_experiment_5_v1,2023.2.2,Win32,84.03361345,,,,,,,,,,,,,,,,716.6217,718.4216,718.4216,719.2371,return,0.1763,,94.01041667,,,,,,FBP-YG-81.png,0.43,1.2,24,1,,,,,,,,,,,,,,,,,,0,27,27,23,1,,,,,,,,,,,,,,,,,,,,,,,
,,,,,V1_011,19,female,2024-04-29_18h00.57.173,jersey_experiment_5_v1,2023.2.2,Win32,84.03361345,,,,,,,,,,,,,,,,719.2372,721.0381,721.0381,721.8805,return,0.1387,,38.28125,,,,,,FBP-RB-17.png,0.37,1.2,47,1,,,,,,,,,,,,,,,,,,0,28,28,46,1,,,,,,,,,,,,,,,,,,,,,,,
,,,,,V1_011,19,female,2024-04-29_18h00.57.173,jersey_experiment_5_v1,2023.2.2,Win32,84.03361345,,,,,,,,,,,,,,,,721.8807,723.6807,723.6807,724.309,return,0.164,,79.03645833,,,,,,FBP-OG-91.png,0.43,1.2,44,1,,,,,,,,,,,,,,,,,,0,29,29,43,1,,,,,,,,,,,,,,,,,,,,,,,
,,,,,V1_011,19,female,2024-04-29_18h00.57.173,jersey_experiment_5_v1,2023.2.2,Win32,84.03361345,,,,,,,,,,,,,,,,724.3091,726.1106,726.1106,726.8571,return,0.1598,,93.48958333,,,,,,FBP-RB-17.png,0.43,1.2,49,1,,,,,,,,,,,,,,,,,,0,30,30,48,1,,,,,,,,,,,,,,,,,,,,,,,
,,,,,V1_011,19,female,2024-04-29_18h00.57.173,jersey_experiment_5_v1,2023.2.2,Win32,84.03361345,,,,,,,,,,,,,,,,726.8574,728.6491,728.6491,729.4829,return,0.4337,,92.44791667,,,,,,FBP-RB-19.png,0.45,1.2,60,1,,,,,,,,,,,,,,,,,,0,31,31,59,1,,,,,,,,,,,,,,,,,,,,,,,
,,,,,V1_011,19,female,2024-04-29_18h00.57.173,jersey_experiment_5_v1,2023.2.2,Win32,84.03361345,,,,,,,,,,,,,,,,729.4831,730.7785,730.7786,731.5514,return,0.0949,,55.59895833,,,,,,FBP-PT-18.png,0.37,1.2,7,0.5,,,,,,,,,,,,,,,,,,0,32,32,6,1,,,,,,,,,,,,,,,,,,,,,,,
,,,,,V1_011,19,female,2024-04-29_18h00.57.173,jersey_experiment_5_v1,2023.2.2,Win32,84.03361345,,,,,,,,,,,,,,,,731.5516,732.8495,732.8495,733.9633,return,0.1817,,94.27083333,,,,,,FBP-PT-18.png,0.45,1.2,10,0.5,,,,,,,,,,,,,,,,,,0,33,33,9,1,,,,,,,,,,,,,,,,,,,,,,,
,,,,,V1_011,19,female,2024-04-29_18h00.57.173,jersey_experiment_5_v1,2023.2.2,Win32,84.03361345,,,,,,,,,,,,,,,,733.9634,735.2606,735.2606,736.1556,return,0.1647,,94.01041667,,,,,,FBP-PT-19.png,0.45,1.2,15,0.5,,,,,,,,,,,,,,,,,,0,34,34,14,1,,,,,,,,,,,,,,,,,,,,,,,
,,,,,V1_011,19,female,2024-04-29_18h00.57.173,jersey_experiment_5_v1,2023.2.2,Win32,84.03361345,,,,,,,,,,,,,,,,736.1558,737.956,737.956,739.3752,return,1.1538,,55.72916667,,,,,,FBP-OG-71.png,0.37,1.2,32,1,,,,,,,,,,,,,,,,,,0,35,35,31,1,,,,,,,,,,,,,,,,,,,,,,,
,,,,,V1_011,19,female,2024-04-29_18h00.57.173,jersey_experiment_5_v1,2023.2.2,Win32,84.03361345,,,,,,,,,,,,,,,,739.3753,741.1754,741.1754,741.8008,return,0.1863,,60.80729167,,,,,,FBP-OG-81.png,0.4,1.2,38,1,,,,,,,,,,,,,,,,,,0,36,36,37,1,,,,,,,,,,,,,,,,,,,,,,,
,,,,,V1_011,19,female,2024-04-29_18h00.57.173,jersey_experiment_5_v1,2023.2.2,Win32,84.03361345,,,,,,,,,,,,,,,,741.8009,743.093,743.093,743.8498,return,0.1649,,80.20833333,,,,,,FBP-PT-17.png,0.45,1.2,5,0.5,,,,,,,,,,,,,,,,,,0,37,37,4,1,,,,,,,,,,,,,,,,,,,,,,,
,,,,,V1_011,19,female,2024-04-29_18h00.57.173,jersey_experiment_5_v1,2023.2.2,Win32,84.03361345,,,,,,,,,,,,,,,,743.8499,745.646,745.646,746.7873,return,0.2359,,89.58333333,,,,,,FBP-YG-71.png,0.45,1.2,20,1,,,,,,,,,,,,,,,,,,0,38,38,19,1,,,,,,,,,,,,,,,,,,,,,,,
,,,,,V1_011,19,female,2024-04-29_18h00.57.173,jersey_experiment_5_v1,2023.2.2,Win32,84.03361345,,,,,,,,,,,,,,,,746.7875,748.0814,748.0814,749.5562,return,0.1411,,56.25,,,,,,FBP-PT-17.png,0.43,1.2,4,0.5,,,,,,,,,,,,,,,,,,0,39,39,3,1,,,,,,,,,,,,,,,,,,,,,,,
,,,,,V1_011,19,female,2024-04-29_18h00.57.173,jersey_experiment_5_v1,2023.2.2,Win32,84.03361345,,,,,,,,,,,,,,,,749.5563,750.8618,750.8618,751.6816,return,0.1412,,25.13020833,,,,,,FBP-PT-17.png,0.35,1.2,1,0.5,,,,,,,,,,,,,,,,,,0,40,40,0,1,,,,,,,,,,,,,,,,,,,,,,,
,,,,,V1_011,19,female,2024-04-29_18h00.57.173,jersey_experiment_5_v1,2023.2.2,Win32,84.03361345,,,,,,,,,,,,,,,,751.6817,752.9757,752.9757,754.0161,return,0.1658,,97.00520833,,,,,,FBP-PT-18.png,0.43,1.2,9,0.5,,,,,,,,,,,,,,,,,,0,41,41,8,1,,,,,,,,,,,,,,,,,,,,,,,
,,,,,V1_011,19,female,2024-04-29_18h00.57.173,jersey_experiment_5_v1,2023.2.2,Win32,84.03361345,,,,,,,,,,,,,,,,754.0164,755.8136,755.8137,756.67,return,0.1317,,4.6875,,,,,,FBP-OG-81.png,0.37,1.2,37,1,,,,,,,,,,,,,,,,,,0,42,42,36,1,,,,,,,,,,,,,,,,,,,,,,,
,,,,,V1_011,19,female,2024-04-29_18h00.57.173,jersey_experiment_5_v1,2023.2.2,Win32,84.03361345,,,,,,,,,,,,,,,,756.6702,757.9661,757.9662,759.1698,return,0.1664,,24.609375,,,,,,FBP-PT-19.png,0.37,1.2,12,0.5,,,,,,,,,,,,,,,,,,0,43,43,11,1,,,,,,,,,,,,,,,,,,,,,,,
,,,,,V1_011,19,female,2024-04-29_18h00.57.173,jersey_experiment_5_v1,2023.2.2,Win32,84.03361345,,,,,,,,,,,,,,,,759.17,760.969,760.9691,761.7565,return,0.1531,,92.578125,,,,,,FBP-YG-91.png,0.43,1.2,29,1,,,,,,,,,,,,,,,,,,0,44,44,28,1,,,,,,,,,,,,,,,,,,,,,,,
,,,,,V1_011,19,female,2024-04-29_18h00.57.173,jersey_experiment_5_v1,2023.2.2,Win32,84.03361345,,,,,,,,,,,,,,,,761.7567,763.5573,763.5573,764.8585,return,0.2303,,34.50520833,,,,,,FBP-YG-81.png,0.35,1.2,21,1,,,,,,,,,,,,,,,,,,0,45,45,20,1,,,,,,,,,,,,,,,,,,,,,,,
,,,,,V1_011,19,female,2024-04-29_18h00.57.173,jersey_experiment_5_v1,2023.2.2,Win32,84.03361345,,,,,,,,,,,,,,,,764.8587,766.6506,766.6506,767.2508,return,0.3069,,76.43229167,,,,,,FBP-RB-18.png,0.45,1.2,55,1,,,,,,,,,,,,,,,,,,0,46,46,54,1,,,,,,,,,,,,,,,,,,,,,,,
,,,,,V1_011,19,female,2024-04-29_18h00.57.173,jersey_experiment_5_v1,2023.2.2,Win32,84.03361345,,,,,,,,,,,,,,,,767.2509,768.5528,768.5529,769.4821,return,0.1335,,33.85416667,,,,,,FBP-PT-19.png,0.4,1.2,13,0.5,,,,,,,,,,,,,,,,,,0,47,47,12,1,,,,,,,,,,,,,,,,,,,,,,,
,,,,,V1_011,19,female,2024-04-29_18h00.57.173,jersey_experiment_5_v1,2023.2.2,Win32,84.03361345,,,,,,,,,,,,,,,,769.4823,770.7811,770.7811,771.5007,return,0.1553,,29.55729167,,,,,,FBP-PT-17.png,0.37,1.2,2,0.5,,,,,,,,,,,,,,,,,,0,48,48,1,1,,,,,,,,,,,,,,,,,,,,,,,
,,,,,V1_011,19,female,2024-04-29_18h00.57.173,jersey_experiment_5_v1,2023.2.2,Win32,84.03361345,,,,,,,,,,,,,,,,771.5009,773.2941,773.2942,774.1413,return,0.2378,,13.41145833,,,,,,FBP-OG-91.png,0.35,1.2,41,1,,,,,,,,,,,,,,,,,,0,49,49,40,1,,,,,,,,,,,,,,,,,,,,,,,
,,,,,V1_011,19,female,2024-04-29_18h00.57.173,jersey_experiment_5_v1,2023.2.2,Win32,84.03361345,,,,,,,,,,,,,,,,774.1414,775.9414,775.9414,776.7923,return,0.1533,,55.20833333,,,,,,FBP-RB-17.png,0.4,1.2,48,1,,,,,,,,,,,,,,,,,,0,50,50,47,1,,,,,,,,,,,,,,,,,,,,,,,
,,,,,V1_011,19,female,2024-04-29_18h00.57.173,jersey_experiment_5_v1,2023.2.2,Win32,84.03361345,,,,,,,,,,,,,,,,776.7925,778.5885,778.5885,779.2119,return,0.1575,,50.78125,,,,,,FBP-RB-19.png,0.4,1.2,58,1,,,,,,,,,,,,,,,,,,0,51,51,57,1,,,,,,,,,,,,,,,,,,,,,,,
,,,,,V1_011,19,female,2024-04-29_18h00.57.173,jersey_experiment_5_v1,2023.2.2,Win32,84.03361345,,,,,,,,,,,,,,,,779.2121,780.5061,780.5061,781.394,return,0.1074,,43.22916667,,,,,,FBP-PT-18.png,0.4,1.2,8,0.5,,,,,,,,,,,,,,,,,,0,52,52,7,1,,,,,,,,,,,,,,,,,,,,,,,
,,,,,V1_011,19,female,2024-04-29_18h00.57.173,jersey_experiment_5_v1,2023.2.2,Win32,84.03361345,,,,,,,,,,,,,,,,781.3942,783.1888,783.1888,783.871,return,0.1662,,79.16666667,,,,,,FBP-OG-71.png,0.43,1.2,34,1,,,,,,,,,,,,,,,,,,0,53,53,33,1,,,,,,,,,,,,,,,,,,,,,,,
,,,,,V1_011,19,female,2024-04-29_18h00.57.173,jersey_experiment_5_v1,2023.2.2,Win32,84.03361345,,,,,,,,,,,,,,,,783.8712,785.6713,785.6713,786.3182,return,0.1796,,90.234375,,,,,,FBP-OG-81.png,0.45,1.2,40,1,,,,,,,,,,,,,,,,,,0,54,54,39,1,,,,,,,,,,,,,,,,,,,,,,,
,,,,,V1_011,19,female,2024-04-29_18h00.57.173,jersey_experiment_5_v1,2023.2.2,Win32,84.03361345,,,,,,,,,,,,,,,,786.3185,788.1114,788.1114,789.0655,return,0.1669,,20.96354167,,,,,,FBP-YG-91.png,0.37,1.2,27,1,,,,,,,,,,,,,,,,,,0,55,55,26,1,,,,,,,,,,,,,,,,,,,,,,,
,,,,,V1_011,19,female,2024-04-29_18h00.57.173,jersey_experiment_5_v1,2023.2.2,Win32,84.03361345,,,,,,,,,,,,,,,,789.0657,790.3654,790.3654,791.2181,return,0.2018,,12.5,,,,,,FBP-PT-19.png,0.35,1.2,11,0.5,,,,,,,,,,,,,,,,,,0,56,56,10,1,,,,,,,,,,,,,,,,,,,,,,,
,,,,,V1_011,19,female,2024-04-29_18h00.57.173,jersey_experiment_5_v1,2023.2.2,Win32,84.03361345,,,,,,,,,,,,,,,,791.2183,792.5184,792.5185,793.6633,return,0.319,,61.58854167,,,,,,FBP-PT-17.png,0.4,1.2,3,0.5,,,,,,,,,,,,,,,,,,0,57,57,2,1,,,,,,,,,,,,,,,,,,,,,,,
,,,,,V1_011,19,female,2024-04-29_18h00.57.173,jersey_experiment_5_v1,2023.2.2,Win32,84.03361345,,,,,,,,,,,,,,,,793.6635,795.4597,795.4597,797.0401,return,0.3999,,83.07291667,,,,,,FBP-YG-91.png,0.4,1.2,28,1,,,,,,,,,,,,,,,,,,0,58,58,27,1,,,,,,,,,,,,,,,,,,,,,,,
,,,,,V1_011,19,female,2024-04-29_18h00.57.173,jersey_experiment_5_v1,2023.2.2,Win32,84.03361345,,,,,,,,,,,,,,,,797.0402,798.8363,798.8363,799.5069,return,0.2355,,61.06770833,,,,,,FBP-YG-81.png,0.4,1.2,23,1,,,,,,,,,,,,,,,,,,0,59,59,22,1,,,,,,,,,,,,,,,,,,,,,,,
,,,,,V1_011,19,female,2024-04-29_18h00.57.173,jersey_experiment_5_v1,2023.2.2,Win32,84.03361345,,,,,,,,,,,,,,,,,,,,,,,,,,,,,,,,,,,,,,,,,,,,,,,,,,,,,,,,799.5074,802.2014,return,2.6773,,,,,,,,,,,,,,,,,,,
,,,,,V1_011,19,female,2024-04-29_18h00.57.173,jersey_experiment_5_v1,2023.2.2,Win32,84.03361345,,,,,,,,,,,,,,,,,,,,,,,,,,,,,,,,,,,,,,,,,,,,,,,,,,,,,,,,,,,,,802.2014,805.0053,1,2.2341,return,0.5512,,,,,,,,,,,,
,,,,,V1_011,19,female,2024-04-29_18h00.57.173,jersey_experiment_5_v1,2023.2.2,Win32,84.03361345,,,,,,,,,,,,,,,,,,,,,,,,,,,,,,,,,,,,,,,,,,,,,,,,,,,,,,,,,,,,,,,,,,,,805.0053,856.9284,"Some of the pictures were shown in rapid succession, which makes me think that they were the same picture and testing whether I noticed that they were the same or was just primed to see contrasts from the previous picture. I also noticed different numbers on the jerseys such as 17, 18, 19, 71, 81, 91.",right,48.0593,,,,,,
,,,,,V1_011,19,female,2024-04-29_18h00.57.173,jersey_experiment_5_v1,2023.2.2,Win32,84.03361345,,,,,,,,,,,,,,,,,,,,,,,,,,,,,,,,,,,,,,,,,,,,,,,,,,,,,,,,,,,,,,,,,,,,,,,,,,856.9286,867.392,return,10.4489,