requirements.started,requirements.stopped,key_resp_3.keys,key_resp_3.rt,key_resp_3.duration,Subject ID,Age,Gender,date,expName,psychopyVersion,OS,frameRate,instructions1.started,instructions1.stopped,key_resp.keys,key_resp.rt,key_resp.duration,example.started,example.stopped,enter_2.keys,enter_2.rt,enter_2.duration,instructions2.started,instructions2.stopped,enter_3.keys,enter_3.rt,enter_3.duration,image.started,image.stopped,slider_2.started,slider_2.stopped,next.keys,next.rt,next.duration,slider.response,trial_block_1.thisRepN,trial_block_1.thisTrialN,trial_block_1.thisN,trial_block_1.thisIndex,trial_block_1.ran,Path,Width,Height,Index,Duration,trial_block_2.thisRepN,trial_block_2.thisTrialN,trial_block_2.thisN,trial_block_2.thisIndex,trial_block_2.ran,rest_break.started,rest_break.stopped,end_break.started,end_break.stopped,key_resp_5.keys,key_resp_5.rt,key_resp_5.duration,trial_block_3.thisRepN,trial_block_3.thisTrialN,trial_block_3.thisN,trial_block_3.thisIndex,trial_block_3.ran,trial_block_4.thisRepN,trial_block_4.thisTrialN,trial_block_4.thisN,trial_block_4.thisIndex,trial_block_4.ran,questions_intro.started,questions_intro.stopped,enter_12.keys,enter_12.rt,enter_12.duration,question2.started,question2.stopped,question_doingbest.response,question_doingbest.rt,enter_15.keys,enter_15.rt,enter_15.duration,pattern.started,pattern.stopped,pattern_2.text,enter_17.keys,enter_17.rt,enter_17.duration,thankyou.started,thankyou.stopped,enter_14.keys,enter_14.rt,enter_14.duration
0.0002,22.9012,return,22.8886,,V1_037,19,Female,2024-05-23_15h34.25.755,jersey_experiment_5_v1,2023.2.2,Win32,85.47008546,,,,,,,,,,,,,,,,,,,,,,,,,,,,,,,,,,,,,,,,,,,,,,,,,,,,,,,,,,,,,,,,,,,,,,,,,,,,,,
,,,,,V1_037,19,Female,2024-05-23_15h34.25.755,jersey_experiment_5_v1,2023.2.2,Win32,85.47008546,22.9012,28.9767,return,6.0603,,,,,,,,,,,,,,,,,,,,,,,,,,,,,,,,,,,,,,,,,,,,,,,,,,,,,,,,,,,,,,,,,,,,,,,,,,
,,,,,V1_037,19,Female,2024-05-23_15h34.25.755,jersey_experiment_5_v1,2023.2.2,Win32,85.47008546,,,,,,28.9768,32.5013,return,3.4918,,,,,,,,,,,,,,,,,,,,,,,,,,,,,,,,,,,,,,,,,,,,,,,,,,,,,,,,,,,,,,,,,,,,,
,,,,,V1_037,19,Female,2024-05-23_15h34.25.755,jersey_experiment_5_v1,2023.2.2,Win32,85.47008546,,,,,,,,,,,32.5014,64.079,return,31.5707,,,,,,,,,,,,,,,,,,,,,,,,,,,,,,,,,,,,,,,,,,,,,,,,,,,,,,,,,,,,,,,,
,,,,,V1_037,19,Female,2024-05-23_15h34.25.755,jersey_experiment_5_v1,2023.2.2,Win32,85.47008546,,,,,,,,,,,,,,,,64.0855,65.3847,65.3847,77.2205,return,6.0846,,41.92708333,0,0,0,41,1,FBP-OG-19.png,0.37,1.2,42,0.5,,,,,,,,,,,,,,,,,,,,,,,,,,,,,,,,,,,,,,,,,,,,,
,,,,,V1_037,19,Female,2024-05-23_15h34.25.755,jersey_experiment_5_v1,2023.2.2,Win32,85.47008546,,,,,,,,,,,,,,,,77.2247,78.5263,78.5264,82.5734,return,1.6084,,66.66666667,0,1,1,16,1,FBP-YG-17.png,0.37,1.2,17,0.5,,,,,,,,,,,,,,,,,,,,,,,,,,,,,,,,,,,,,,,,,,,,,
,,,,,V1_037,19,Female,2024-05-23_15h34.25.755,jersey_experiment_5_v1,2023.2.2,Win32,85.47008546,,,,,,,,,,,,,,,,82.5735,83.8677,83.8677,87.8091,return,2.4874,,72.265625,0,2,2,18,1,FBP-YG-17.png,0.43,1.2,19,0.5,,,,,,,,,,,,,,,,,,,,,,,,,,,,,,,,,,,,,,,,,,,,,
,,,,,V1_037,19,Female,2024-05-23_15h34.25.755,jersey_experiment_5_v1,2023.2.2,Win32,85.47008546,,,,,,,,,,,,,,,,87.8094,89.1031,89.1032,97.1387,return,5.4023,,66.92708333,0,3,3,19,1,FBP-YG-17.png,0.45,1.2,20,0.5,,,,,,,,,,,,,,,,,,,,,,,,,,,,,,,,,,,,,,,,,,,,,
,,,,,V1_037,19,Female,2024-05-23_15h34.25.755,jersey_experiment_5_v1,2023.2.2,Win32,85.47008546,,,,,,,,,,,,,,,,97.139,98.9387,98.9387,100.3859,return,0.1788,,80.59895833,0,4,4,4,1,FBP-PT-71.png,0.45,1.2,5,1,,,,,,,,,,,,,,,,,,,,,,,,,,,,,,,,,,,,,,,,,,,,,
,,,,,V1_037,19,Female,2024-05-23_15h34.25.755,jersey_experiment_5_v1,2023.2.2,Win32,85.47008546,,,,,,,,,,,,,,,,100.386,102.1859,102.1859,104.5625,return,0.2974,,58.72395833,0,5,5,13,1,FBP-PT-91.png,0.43,1.2,14,1,,,,,,,,,,,,,,,,,,,,,,,,,,,,,,,,,,,,,,,,,,,,,
,,,,,V1_037,19,Female,2024-05-23_15h34.25.755,jersey_experiment_5_v1,2023.2.2,Win32,85.47008546,,,,,,,,,,,,,,,,104.5628,105.8567,105.8567,108.2803,return,1.097,,34.24479167,0,6,6,35,1,FBP-OG-18.png,0.35,1.2,36,0.5,,,,,,,,,,,,,,,,,,,,,,,,,,,,,,,,,,,,,,,,,,,,,
,,,,,V1_037,19,Female,2024-05-23_15h34.25.755,jersey_experiment_5_v1,2023.2.2,Win32,85.47008546,,,,,,,,,,,,,,,,108.2805,109.5745,109.5745,112.9041,return,0.4241,,66.66666667,0,7,7,34,1,FBP-OG-17.png,0.45,1.2,35,0.5,,,,,,,,,,,,,,,,,,,,,,,,,,,,,,,,,,,,,,,,,,,,,
,,,,,V1_037,19,Female,2024-05-23_15h34.25.755,jersey_experiment_5_v1,2023.2.2,Win32,85.47008546,,,,,,,,,,,,,,,,112.9042,114.1982,114.1982,116.6806,return,0.3904,,27.21354167,0,8,8,45,1,FBP-RB-71.png,0.35,1.2,46,0.5,,,,,,,,,,,,,,,,,,,,,,,,,,,,,,,,,,,,,,,,,,,,,
,,,,,V1_037,19,Female,2024-05-23_15h34.25.755,jersey_experiment_5_v1,2023.2.2,Win32,85.47008546,,,,,,,,,,,,,,,,116.6808,117.9748,117.9748,120.469,return,1.2374,,64.84375,0,9,9,28,1,FBP-YG-19.png,0.43,1.2,29,0.5,,,,,,,,,,,,,,,,,,,,,,,,,,,,,,,,,,,,,,,,,,,,,
,,,,,V1_037,19,Female,2024-05-23_15h34.25.755,jersey_experiment_5_v1,2023.2.2,Win32,85.47008546,,,,,,,,,,,,,,,,120.4692,121.7633,121.7633,123.069,return,0.2441,,83.984375,0,10,10,48,1,FBP-RB-71.png,0.43,1.2,49,0.5,,,,,,,,,,,,,,,,,,,,,,,,,,,,,,,,,,,,,,,,,,,,,
,,,,,V1_037,19,Female,2024-05-23_15h34.25.755,jersey_experiment_5_v1,2023.2.2,Win32,85.47008546,,,,,,,,,,,,,,,,123.0691,124.8689,124.869,126.6926,return,1.06,,73.046875,0,11,11,3,1,FBP-PT-71.png,0.43,1.2,4,1,,,,,,,,,,,,,,,,,,,,,,,,,,,,,,,,,,,,,,,,,,,,,
,,,,,V1_037,19,Female,2024-05-23_15h34.25.755,jersey_experiment_5_v1,2023.2.2,Win32,85.47008546,,,,,,,,,,,,,,,,126.6928,127.9868,127.9868,129.4456,return,0.3876,,40.625,0,12,12,55,1,FBP-RB-91.png,0.35,1.2,56,0.5,,,,,,,,,,,,,,,,,,,,,,,,,,,,,,,,,,,,,,,,,,,,,
,,,,,V1_037,19,Female,2024-05-23_15h34.25.755,jersey_experiment_5_v1,2023.2.2,Win32,85.47008546,,,,,,,,,,,,,,,,129.4458,131.2459,131.2459,132.3987,return,0.2643,,54.03645833,0,13,13,12,1,FBP-PT-91.png,0.4,1.2,13,1,,,,,,,,,,,,,,,,,,,,,,,,,,,,,,,,,,,,,,,,,,,,,
,,,,,V1_037,19,Female,2024-05-23_15h34.25.755,jersey_experiment_5_v1,2023.2.2,Win32,85.47008546,,,,,,,,,,,,,,,,132.3989,133.6929,133.693,134.6692,return,0.1969,,51.82291667,0,14,14,51,1,FBP-RB-81.png,0.37,1.2,52,0.5,,,,,,,,,,,,,,,,,,,,,,,,,,,,,,,,,,,,,,,,,,,,,
,,,,,V1_037,19,Female,2024-05-23_15h34.25.755,jersey_experiment_5_v1,2023.2.2,Win32,85.47008546,,,,,,,,,,,,,,,,134.6694,135.9635,135.9635,136.9754,return,0.1577,,39.32291667,0,15,15,47,1,FBP-RB-71.png,0.4,1.2,48,0.5,,,,,,,,,,,,,,,,,,,,,,,,,,,,,,,,,,,,,,,,,,,,,
,,,,,V1_037,19,Female,2024-05-23_15h34.25.755,jersey_experiment_5_v1,2023.2.2,Win32,85.47008546,,,,,,,,,,,,,,,,136.9756,138.2694,138.2695,139.093,return,0.1891,,31.640625,0,16,16,17,1,FBP-YG-17.png,0.4,1.2,18,0.5,,,,,,,,,,,,,,,,,,,,,,,,,,,,,,,,,,,,,,,,,,,,,
,,,,,V1_037,19,Female,2024-05-23_15h34.25.755,jersey_experiment_5_v1,2023.2.2,Win32,85.47008546,,,,,,,,,,,,,,,,139.0933,140.3872,140.3872,142.0696,return,0.2021,,45.05208333,0,17,17,49,1,FBP-RB-71.png,0.45,1.2,50,0.5,,,,,,,,,,,,,,,,,,,,,,,,,,,,,,,,,,,,,,,,,,,,,
,,,,,V1_037,19,Female,2024-05-23_15h34.25.755,jersey_experiment_5_v1,2023.2.2,Win32,85.47008546,,,,,,,,,,,,,,,,142.0697,143.8697,143.8697,144.8815,return,0.1792,,39.84375,0,18,18,8,1,FBP-PT-81.png,0.43,1.2,9,1,,,,,,,,,,,,,,,,,,,,,,,,,,,,,,,,,,,,,,,,,,,,,
,,,,,V1_037,19,Female,2024-05-23_15h34.25.755,jersey_experiment_5_v1,2023.2.2,Win32,85.47008546,,,,,,,,,,,,,,,,144.8817,146.1756,146.1757,149.5523,return,0.1685,,40.10416667,0,19,19,27,1,FBP-YG-19.png,0.4,1.2,28,0.5,,,,,,,,,,,,,,,,,,,,,,,,,,,,,,,,,,,,,,,,,,,,,
,,,,,V1_037,19,Female,2024-05-23_15h34.25.755,jersey_experiment_5_v1,2023.2.2,Win32,85.47008546,,,,,,,,,,,,,,,,149.5525,150.8466,150.8466,152.2112,return,0.1557,,64.0625,0,20,20,54,1,FBP-RB-81.png,0.45,1.2,55,0.5,,,,,,,,,,,,,,,,,,,,,,,,,,,,,,,,,,,,,,,,,,,,,
,,,,,V1_037,19,Female,2024-05-23_15h34.25.755,jersey_experiment_5_v1,2023.2.2,Win32,85.47008546,,,,,,,,,,,,,,,,152.2114,153.5055,153.5055,154.5759,return,0.1471,,47.52604167,0,21,21,42,1,FBP-OG-19.png,0.4,1.2,43,0.5,,,,,,,,,,,,,,,,,,,,,,,,,,,,,,,,,,,,,,,,,,,,,
,,,,,V1_037,19,Female,2024-05-23_15h34.25.755,jersey_experiment_5_v1,2023.2.2,Win32,85.47008546,,,,,,,,,,,,,,,,154.5759,156.3761,156.3761,157.1408,return,0.1532,,32.55208333,0,22,22,2,1,FBP-PT-71.png,0.4,1.2,3,1,,,,,,,,,,,,,,,,,,,,,,,,,,,,,,,,,,,,,,,,,,,,,
,,,,,V1_037,19,Female,2024-05-23_15h34.25.755,jersey_experiment_5_v1,2023.2.2,Win32,85.47008546,,,,,,,,,,,,,,,,157.1409,158.4349,158.4349,159.682,return,0.1548,,17.578125,0,23,23,40,1,FBP-OG-19.png,0.35,1.2,41,0.5,,,,,,,,,,,,,,,,,,,,,,,,,,,,,,,,,,,,,,,,,,,,,
,,,,,V1_037,19,Female,2024-05-23_15h34.25.755,jersey_experiment_5_v1,2023.2.2,Win32,85.47008546,,,,,,,,,,,,,,,,159.6822,160.9763,160.9763,161.8116,return,0.1184,,30.20833333,0,24,24,15,1,FBP-YG-17.png,0.35,1.2,16,0.5,,,,,,,,,,,,,,,,,,,,,,,,,,,,,,,,,,,,,,,,,,,,,
,,,,,V1_037,19,Female,2024-05-23_15h34.25.755,jersey_experiment_5_v1,2023.2.2,Win32,85.47008546,,,,,,,,,,,,,,,,161.8117,163.1057,163.1057,164.0469,return,0.123,,68.359375,0,25,25,23,1,FBP-YG-18.png,0.43,1.2,24,0.5,,,,,,,,,,,,,,,,,,,,,,,,,,,,,,,,,,,,,,,,,,,,,
,,,,,V1_037,19,Female,2024-05-23_15h34.25.755,jersey_experiment_5_v1,2023.2.2,Win32,85.47008546,,,,,,,,,,,,,,,,164.0471,165.3411,165.3411,168.0235,return,1.8835,,65.88541667,0,26,26,57,1,FBP-RB-91.png,0.4,1.2,58,0.5,,,,,,,,,,,,,,,,,,,,,,,,,,,,,,,,,,,,,,,,,,,,,
,,,,,V1_037,19,Female,2024-05-23_15h34.25.755,jersey_experiment_5_v1,2023.2.2,Win32,85.47008546,,,,,,,,,,,,,,,,168.0236,169.8236,169.8236,170.4942,return,0.0431,,53.90625,0,27,27,6,1,FBP-PT-81.png,0.37,1.2,7,1,,,,,,,,,,,,,,,,,,,,,,,,,,,,,,,,,,,,,,,,,,,,,
,,,,,V1_037,19,Female,2024-05-23_15h34.25.755,jersey_experiment_5_v1,2023.2.2,Win32,85.47008546,,,,,,,,,,,,,,,,170.4943,171.7883,171.7883,173.059,return,0.0954,,41.14583333,0,28,28,39,1,FBP-OG-18.png,0.45,1.2,40,0.5,,,,,,,,,,,,,,,,,,,,,,,,,,,,,,,,,,,,,,,,,,,,,
,,,,,V1_037,19,Female,2024-05-23_15h34.25.755,jersey_experiment_5_v1,2023.2.2,Win32,85.47008546,,,,,,,,,,,,,,,,173.0593,174.3533,174.3533,176.9767,return,0.0289,,49.73958333,0,29,29,38,1,FBP-OG-18.png,0.43,1.2,39,0.5,,,,,,,,,,,,,,,,,,,,,,,,,,,,,,,,,,,,,,,,,,,,,
,,,,,V1_037,19,Female,2024-05-23_15h34.25.755,jersey_experiment_5_v1,2023.2.2,Win32,85.47008546,,,,,,,,,,,,,,,,176.9771,178.271,178.271,179.318,return,0.1078,,37.5,0,30,30,50,1,FBP-RB-81.png,0.35,1.2,51,0.5,,,,,,,,,,,,,,,,,,,,,,,,,,,,,,,,,,,,,,,,,,,,,
,,,,,V1_037,19,Female,2024-05-23_15h34.25.755,jersey_experiment_5_v1,2023.2.2,Win32,85.47008546,,,,,,,,,,,,,,,,179.3182,180.6122,180.6122,181.5416,return,0.1751,,32.94270833,0,31,31,31,1,FBP-OG-17.png,0.37,1.2,32,0.5,,,,,,,,,,,,,,,,,,,,,,,,,,,,,,,,,,,,,,,,,,,,,
,,,,,V1_037,19,Female,2024-05-23_15h34.25.755,jersey_experiment_5_v1,2023.2.2,Win32,85.47008546,,,,,,,,,,,,,,,,181.5418,182.8357,182.8357,184.8357,return,1.061,,54.296875,0,32,32,33,1,FBP-OG-17.png,0.43,1.2,34,0.5,,,,,,,,,,,,,,,,,,,,,,,,,,,,,,,,,,,,,,,,,,,,,
,,,,,V1_037,19,Female,2024-05-23_15h34.25.755,jersey_experiment_5_v1,2023.2.2,Win32,85.47008546,,,,,,,,,,,,,,,,184.8359,186.6361,186.6362,187.3183,return,0.094,,36.19791667,0,33,33,1,1,FBP-PT-71.png,0.37,1.2,2,1,,,,,,,,,,,,,,,,,,,,,,,,,,,,,,,,,,,,,,,,,,,,,
,,,,,V1_037,19,Female,2024-05-23_15h34.25.755,jersey_experiment_5_v1,2023.2.2,Win32,85.47008546,,,,,,,,,,,,,,,,187.3184,188.6125,188.6125,189.7771,return,0.0519,,44.40104167,0,34,34,32,1,FBP-OG-17.png,0.4,1.2,33,0.5,,,,,,,,,,,,,,,,,,,,,,,,,,,,,,,,,,,,,,,,,,,,,
,,,,,V1_037,19,Female,2024-05-23_15h34.25.755,jersey_experiment_5_v1,2023.2.2,Win32,85.47008546,,,,,,,,,,,,,,,,189.7774,191.5774,191.5774,193.4244,return,0.3683,,51.5625,0,35,35,0,1,FBP-PT-71.png,0.35,1.2,1,1,,,,,,,,,,,,,,,,,,,,,,,,,,,,,,,,,,,,,,,,,,,,,
,,,,,V1_037,19,Female,2024-05-23_15h34.25.755,jersey_experiment_5_v1,2023.2.2,Win32,85.47008546,,,,,,,,,,,,,,,,193.4246,194.7185,194.7185,195.8597,return,0.1545,,70.05208333,0,36,36,24,1,FBP-YG-18.png,0.45,1.2,25,0.5,,,,,,,,,,,,,,,,,,,,,,,,,,,,,,,,,,,,,,,,,,,,,
,,,,,V1_037,19,Female,2024-05-23_15h34.25.755,jersey_experiment_5_v1,2023.2.2,Win32,85.47008546,,,,,,,,,,,,,,,,195.8599,197.6598,197.6598,198.5304,return,0.1077,,48.828125,0,37,37,11,1,FBP-PT-91.png,0.37,1.2,12,1,,,,,,,,,,,,,,,,,,,,,,,,,,,,,,,,,,,,,,,,,,,,,
,,,,,V1_037,19,Female,2024-05-23_15h34.25.755,jersey_experiment_5_v1,2023.2.2,Win32,85.47008546,,,,,,,,,,,,,,,,198.5307,199.8247,199.8247,200.9304,return,0.1547,,39.0625,0,38,38,20,1,FBP-YG-18.png,0.35,1.2,21,0.5,,,,,,,,,,,,,,,,,,,,,,,,,,,,,,,,,,,,,,,,,,,,,
,,,,,V1_037,19,Female,2024-05-23_15h34.25.755,jersey_experiment_5_v1,2023.2.2,Win32,85.47008546,,,,,,,,,,,,,,,,200.9306,202.2247,202.2247,203.0717,return,0.1103,,62.890625,0,39,39,43,1,FBP-OG-19.png,0.43,1.2,44,0.5,,,,,,,,,,,,,,,,,,,,,,,,,,,,,,,,,,,,,,,,,,,,,
,,,,,V1_037,19,Female,2024-05-23_15h34.25.755,jersey_experiment_5_v1,2023.2.2,Win32,85.47008546,,,,,,,,,,,,,,,,203.0719,204.3659,204.3659,205.413,return,0.3994,,66.14583333,0,40,40,37,1,FBP-OG-18.png,0.4,1.2,38,0.5,,,,,,,,,,,,,,,,,,,,,,,,,,,,,,,,,,,,,,,,,,,,,
,,,,,V1_037,19,Female,2024-05-23_15h34.25.755,jersey_experiment_5_v1,2023.2.2,Win32,85.47008546,,,,,,,,,,,,,,,,205.4132,206.7073,206.7073,210.8367,return,2.2133,,43.61979167,0,41,41,22,1,FBP-YG-18.png,0.4,1.2,23,0.5,,,,,,,,,,,,,,,,,,,,,,,,,,,,,,,,,,,,,,,,,,,,,
,,,,,V1_037,19,Female,2024-05-23_15h34.25.755,jersey_experiment_5_v1,2023.2.2,Win32,85.47008546,,,,,,,,,,,,,,,,210.8369,212.1308,212.1308,213.9662,return,0.6065,,22.52604167,0,42,42,30,1,FBP-OG-17.png,0.35,1.2,31,0.5,,,,,,,,,,,,,,,,,,,,,,,,,,,,,,,,,,,,,,,,,,,,,
,,,,,V1_037,19,Female,2024-05-23_15h34.25.755,jersey_experiment_5_v1,2023.2.2,Win32,85.47008546,,,,,,,,,,,,,,,,213.9664,215.2604,215.2604,216.131,return,0.1208,,44.66145833,0,43,43,44,1,FBP-OG-19.png,0.45,1.2,45,0.5,,,,,,,,,,,,,,,,,,,,,,,,,,,,,,,,,,,,,,,,,,,,,
,,,,,V1_037,19,Female,2024-05-23_15h34.25.755,jersey_experiment_5_v1,2023.2.2,Win32,85.47008546,,,,,,,,,,,,,,,,216.1312,217.9313,217.9313,218.6606,return,0.2354,,35.546875,0,44,44,5,1,FBP-PT-81.png,0.35,1.2,6,1,,,,,,,,,,,,,,,,,,,,,,,,,,,,,,,,,,,,,,,,,,,,,
,,,,,V1_037,19,Female,2024-05-23_15h34.25.755,jersey_experiment_5_v1,2023.2.2,Win32,85.47008546,,,,,,,,,,,,,,,,218.6607,219.9547,219.9547,220.8017,return,0.1102,,47.265625,0,45,45,36,1,FBP-OG-18.png,0.37,1.2,37,0.5,,,,,,,,,,,,,,,,,,,,,,,,,,,,,,,,,,,,,,,,,,,,,
,,,,,V1_037,19,Female,2024-05-23_15h34.25.755,jersey_experiment_5_v1,2023.2.2,Win32,85.47008546,,,,,,,,,,,,,,,,220.802,222.0962,222.0962,223.0137,return,0.1075,,43.359375,0,46,46,46,1,FBP-RB-71.png,0.37,1.2,47,0.5,,,,,,,,,,,,,,,,,,,,,,,,,,,,,,,,,,,,,,,,,,,,,
,,,,,V1_037,19,Female,2024-05-23_15h34.25.755,jersey_experiment_5_v1,2023.2.2,Win32,85.47008546,,,,,,,,,,,,,,,,223.0139,224.3079,224.3079,225.2138,return,0.0883,,67.70833333,0,47,47,29,1,FBP-YG-19.png,0.45,1.2,30,0.5,,,,,,,,,,,,,,,,,,,,,,,,,,,,,,,,,,,,,,,,,,,,,
,,,,,V1_037,19,Female,2024-05-23_15h34.25.755,jersey_experiment_5_v1,2023.2.2,Win32,85.47008546,,,,,,,,,,,,,,,,225.2141,226.5079,226.5079,227.6962,return,0.0512,,56.38020833,0,48,48,26,1,FBP-YG-19.png,0.37,1.2,27,0.5,,,,,,,,,,,,,,,,,,,,,,,,,,,,,,,,,,,,,,,,,,,,,
,,,,,V1_037,19,Female,2024-05-23_15h34.25.755,jersey_experiment_5_v1,2023.2.2,Win32,85.47008546,,,,,,,,,,,,,,,,227.6964,229.4962,229.4962,230.4377,return,0.0709,,69.79166667,0,49,49,14,1,FBP-PT-91.png,0.45,1.2,15,1,,,,,,,,,,,,,,,,,,,,,,,,,,,,,,,,,,,,,,,,,,,,,
,,,,,V1_037,19,Female,2024-05-23_15h34.25.755,jersey_experiment_5_v1,2023.2.2,Win32,85.47008546,,,,,,,,,,,,,,,,230.4379,232.2376,232.2376,233.0256,return,0.1084,,82.68229167,0,50,50,9,1,FBP-PT-81.png,0.45,1.2,10,1,,,,,,,,,,,,,,,,,,,,,,,,,,,,,,,,,,,,,,,,,,,,,
,,,,,V1_037,19,Female,2024-05-23_15h34.25.755,jersey_experiment_5_v1,2023.2.2,Win32,85.47008546,,,,,,,,,,,,,,,,233.0258,234.3199,234.3199,235.1552,return,0.1089,,75.78125,0,51,51,58,1,FBP-RB-91.png,0.43,1.2,59,0.5,,,,,,,,,,,,,,,,,,,,,,,,,,,,,,,,,,,,,,,,,,,,,
,,,,,V1_037,19,Female,2024-05-23_15h34.25.755,jersey_experiment_5_v1,2023.2.2,Win32,85.47008546,,,,,,,,,,,,,,,,235.1555,236.4494,236.4494,238.5436,return,0.17,,69.53125,0,52,52,25,1,FBP-YG-19.png,0.35,1.2,26,0.5,,,,,,,,,,,,,,,,,,,,,,,,,,,,,,,,,,,,,,,,,,,,,
,,,,,V1_037,19,Female,2024-05-23_15h34.25.755,jersey_experiment_5_v1,2023.2.2,Win32,85.47008546,,,,,,,,,,,,,,,,238.5438,239.8377,239.8378,240.4377,return,0.0473,,63.93229167,0,53,53,52,1,FBP-RB-81.png,0.4,1.2,53,0.5,,,,,,,,,,,,,,,,,,,,,,,,,,,,,,,,,,,,,,,,,,,,,
,,,,,V1_037,19,Female,2024-05-23_15h34.25.755,jersey_experiment_5_v1,2023.2.2,Win32,85.47008546,,,,,,,,,,,,,,,,240.4379,241.7318,241.7318,242.4613,return,0.0419,,79.42708333,0,54,54,59,1,FBP-RB-91.png,0.45,1.2,60,0.5,,,,,,,,,,,,,,,,,,,,,,,,,,,,,,,,,,,,,,,,,,,,,
,,,,,V1_037,19,Female,2024-05-23_15h34.25.755,jersey_experiment_5_v1,2023.2.2,Win32,85.47008546,,,,,,,,,,,,,,,,242.4614,243.7555,243.7556,244.4025,return,0.0619,,67.578125,0,55,55,53,1,FBP-RB-81.png,0.43,1.2,54,0.5,,,,,,,,,,,,,,,,,,,,,,,,,,,,,,,,,,,,,,,,,,,,,
,,,,,V1_037,19,Female,2024-05-23_15h34.25.755,jersey_experiment_5_v1,2023.2.2,Win32,85.47008546,,,,,,,,,,,,,,,,244.4028,246.2027,246.2027,247.0145,return,0.1178,,67.96875,0,56,56,7,1,FBP-PT-81.png,0.4,1.2,8,1,,,,,,,,,,,,,,,,,,,,,,,,,,,,,,,,,,,,,,,,,,,,,
,,,,,V1_037,19,Female,2024-05-23_15h34.25.755,jersey_experiment_5_v1,2023.2.2,Win32,85.47008546,,,,,,,,,,,,,,,,247.0148,248.8145,248.8146,249.4381,return,0.0904,,62.76041667,0,57,57,10,1,FBP-PT-91.png,0.35,1.2,11,1,,,,,,,,,,,,,,,,,,,,,,,,,,,,,,,,,,,,,,,,,,,,,
,,,,,V1_037,19,Female,2024-05-23_15h34.25.755,jersey_experiment_5_v1,2023.2.2,Win32,85.47008546,,,,,,,,,,,,,,,,249.4383,250.7324,250.7324,251.7204,return,0.2251,,59.63541667,0,58,58,21,1,FBP-YG-18.png,0.37,1.2,22,0.5,,,,,,,,,,,,,,,,,,,,,,,,,,,,,,,,,,,,,,,,,,,,,
,,,,,V1_037,19,Female,2024-05-23_15h34.25.755,jersey_experiment_5_v1,2023.2.2,Win32,85.47008546,,,,,,,,,,,,,,,,251.7207,253.0147,253.0147,254.0618,return,0.1024,,57.68229167,0,59,59,56,1,FBP-RB-91.png,0.37,1.2,57,0.5,,,,,,,,,,,,,,,,,,,,,,,,,,,,,,,,,,,,,,,,,,,,,
,,,,,V1_037,19,Female,2024-05-23_15h34.25.755,jersey_experiment_5_v1,2023.2.2,Win32,85.47008546,,,,,,,,,,,,,,,,254.0636,255.3559,255.3559,256.0148,return,0.1251,,61.71875,,,,,,FBP-OG-71.png,0.4,1.2,33,0.5,0,0,0,32,1,,,,,,,,,,,,,,,,,,,,,,,,,,,,,,,,,,,,,,,,
,,,,,V1_037,19,Female,2024-05-23_15h34.25.755,jersey_experiment_5_v1,2023.2.2,Win32,85.47008546,,,,,,,,,,,,,,,,256.0149,257.3089,257.3089,258.0031,return,0.095,,67.05729167,,,,,,FBP-OG-81.png,0.43,1.2,39,0.5,0,1,1,38,1,,,,,,,,,,,,,,,,,,,,,,,,,,,,,,,,,,,,,,,,
,,,,,V1_037,19,Female,2024-05-23_15h34.25.755,jersey_experiment_5_v1,2023.2.2,Win32,85.47008546,,,,,,,,,,,,,,,,258.0034,259.2973,259.2973,260.3443,return,0.0943,,40.75520833,,,,,,FBP-YG-71.png,0.35,1.2,16,0.5,0,2,2,15,1,,,,,,,,,,,,,,,,,,,,,,,,,,,,,,,,,,,,,,,,
,,,,,V1_037,19,Female,2024-05-23_15h34.25.755,jersey_experiment_5_v1,2023.2.2,Win32,85.47008546,,,,,,,,,,,,,,,,260.3445,261.6387,261.6387,262.3914,return,0.0334,,44.921875,,,,,,FBP-YG-71.png,0.4,1.2,18,0.5,0,3,3,17,1,,,,,,,,,,,,,,,,,,,,,,,,,,,,,,,,,,,,,,,,
,,,,,V1_037,19,Female,2024-05-23_15h34.25.755,jersey_experiment_5_v1,2023.2.2,Win32,85.47008546,,,,,,,,,,,,,,,,262.3916,263.6858,263.6858,264.2856,return,0.0906,,42.70833333,,,,,,FBP-OG-81.png,0.37,1.2,37,0.5,0,4,4,36,1,,,,,,,,,,,,,,,,,,,,,,,,,,,,,,,,,,,,,,,,
,,,,,V1_037,19,Female,2024-05-23_15h34.25.755,jersey_experiment_5_v1,2023.2.2,Win32,85.47008546,,,,,,,,,,,,,,,,264.2858,265.5802,265.5802,266.1449,return,0.1112,,41.27604167,,,,,,FBP-OG-81.png,0.35,1.2,36,0.5,0,5,5,35,1,,,,,,,,,,,,,,,,,,,,,,,,,,,,,,,,,,,,,,,,
,,,,,V1_037,19,Female,2024-05-23_15h34.25.755,jersey_experiment_5_v1,2023.2.2,Win32,85.47008546,,,,,,,,,,,,,,,,266.1451,267.9446,267.9446,269.074,return,0.0843,,38.93229167,,,,,,FBP-PT-18.png,0.35,1.2,6,1,0,6,6,5,1,,,,,,,,,,,,,,,,,,,,,,,,,,,,,,,,,,,,,,,,
,,,,,V1_037,19,Female,2024-05-23_15h34.25.755,jersey_experiment_5_v1,2023.2.2,Win32,85.47008546,,,,,,,,,,,,,,,,269.0741,270.3682,270.3682,271.6507,return,0.1326,,66.27604167,,,,,,FBP-OG-71.png,0.45,1.2,35,0.5,0,7,7,34,1,,,,,,,,,,,,,,,,,,,,,,,,,,,,,,,,,,,,,,,,
,,,,,V1_037,19,Female,2024-05-23_15h34.25.755,jersey_experiment_5_v1,2023.2.2,Win32,85.47008546,,,,,,,,,,,,,,,,271.6508,272.9448,272.9448,273.6388,return,0.0944,,62.76041667,,,,,,FBP-RB-17.png,0.45,1.2,50,0.5,0,8,8,49,1,,,,,,,,,,,,,,,,,,,,,,,,,,,,,,,,,,,,,,,,
,,,,,V1_037,19,Female,2024-05-23_15h34.25.755,jersey_experiment_5_v1,2023.2.2,Win32,85.47008546,,,,,,,,,,,,,,,,273.639,274.933,274.933,276.0155,return,0.4635,,62.23958333,,,,,,FBP-OG-71.png,0.43,1.2,34,0.5,0,9,9,33,1,,,,,,,,,,,,,,,,,,,,,,,,,,,,,,,,,,,,,,,,
,,,,,V1_037,19,Female,2024-05-23_15h34.25.755,jersey_experiment_5_v1,2023.2.2,Win32,85.47008546,,,,,,,,,,,,,,,,276.0158,277.3096,277.3096,278.6627,return,0.1418,,68.22916667,,,,,,FBP-YG-91.png,0.45,1.2,30,0.5,0,10,10,29,1,,,,,,,,,,,,,,,,,,,,,,,,,,,,,,,,,,,,,,,,
,,,,,V1_037,19,Female,2024-05-23_15h34.25.755,jersey_experiment_5_v1,2023.2.2,Win32,85.47008546,,,,,,,,,,,,,,,,278.6628,279.9568,279.9568,281.7333,return,0.2123,,70.44270833,,,,,,FBP-YG-81.png,0.37,1.2,22,0.5,0,11,11,21,1,,,,,,,,,,,,,,,,,,,,,,,,,,,,,,,,,,,,,,,,
,,,,,V1_037,19,Female,2024-05-23_15h34.25.755,jersey_experiment_5_v1,2023.2.2,Win32,85.47008546,,,,,,,,,,,,,,,,281.7335,283.0274,283.0274,284.6158,return,0.4138,,75.65104167,,,,,,FBP-OG-91.png,0.43,1.2,44,0.5,0,12,12,43,1,,,,,,,,,,,,,,,,,,,,,,,,,,,,,,,,,,,,,,,,
,,,,,V1_037,19,Female,2024-05-23_15h34.25.755,jersey_experiment_5_v1,2023.2.2,Win32,85.47008546,,,,,,,,,,,,,,,,284.6162,285.91,285.91,286.5804,return,0.035,,71.61458333,,,,,,FBP-OG-71.png,0.37,1.2,32,0.5,0,13,13,31,1,,,,,,,,,,,,,,,,,,,,,,,,,,,,,,,,,,,,,,,,
,,,,,V1_037,19,Female,2024-05-23_15h34.25.755,jersey_experiment_5_v1,2023.2.2,Win32,85.47008546,,,,,,,,,,,,,,,,286.5806,287.8748,287.8748,288.4042,return,0.0848,,82.03125,,,,,,FBP-OG-91.png,0.45,1.2,45,0.5,0,14,14,44,1,,,,,,,,,,,,,,,,,,,,,,,,,,,,,,,,,,,,,,,,
,,,,,V1_037,19,Female,2024-05-23_15h34.25.755,jersey_experiment_5_v1,2023.2.2,Win32,85.47008546,,,,,,,,,,,,,,,,288.4044,289.6983,289.6983,290.7101,return,0.0607,,86.06770833,,,,,,FBP-RB-18.png,0.37,1.2,52,0.5,0,15,15,51,1,,,,,,,,,,,,,,,,,,,,,,,,,,,,,,,,,,,,,,,,
,,,,,V1_037,19,Female,2024-05-23_15h34.25.755,jersey_experiment_5_v1,2023.2.2,Win32,85.47008546,,,,,,,,,,,,,,,,290.7103,292.0043,292.0043,293.4397,return,0.8986,,74.08854167,,,,,,FBP-OG-91.png,0.35,1.2,41,0.5,0,16,16,40,1,,,,,,,,,,,,,,,,,,,,,,,,,,,,,,,,,,,,,,,,
,,,,,V1_037,19,Female,2024-05-23_15h34.25.755,jersey_experiment_5_v1,2023.2.2,Win32,85.47008546,,,,,,,,,,,,,,,,293.4398,294.734,294.734,295.2986,return,0.0624,,76.30208333,,,,,,FBP-OG-91.png,0.4,1.2,43,0.5,0,17,17,42,1,,,,,,,,,,,,,,,,,,,,,,,,,,,,,,,,,,,,,,,,
,,,,,V1_037,19,Female,2024-05-23_15h34.25.755,jersey_experiment_5_v1,2023.2.2,Win32,85.47008546,,,,,,,,,,,,,,,,295.2987,296.5927,296.5927,297.1574,return,0.0372,,79.296875,,,,,,FBP-RB-19.png,0.4,1.2,58,0.5,0,18,18,57,1,,,,,,,,,,,,,,,,,,,,,,,,,,,,,,,,,,,,,,,,
,,,,,V1_037,19,Female,2024-05-23_15h34.25.755,jersey_experiment_5_v1,2023.2.2,Win32,85.47008546,,,,,,,,,,,,,,,,297.1576,298.4516,298.4517,299.0163,return,0.0377,,81.640625,,,,,,FBP-RB-17.png,0.43,1.2,49,0.5,0,19,19,48,1,,,,,,,,,,,,,,,,,,,,,,,,,,,,,,,,,,,,,,,,
,,,,,V1_037,19,Female,2024-05-23_15h34.25.755,jersey_experiment_5_v1,2023.2.2,Win32,85.47008546,,,,,,,,,,,,,,,,299.0166,300.3106,300.3106,301.0869,return,0.147,,86.328125,,,,,,FBP-YG-81.png,0.45,1.2,25,0.5,0,20,20,24,1,,,,,,,,,,,,,,,,,,,,,,,,,,,,,,,,,,,,,,,,
,,,,,V1_037,19,Female,2024-05-23_15h34.25.755,jersey_experiment_5_v1,2023.2.2,Win32,85.47008546,,,,,,,,,,,,,,,,301.087,302.8873,302.8873,303.7105,return,0.0879,,46.22395833,,,,,,FBP-PT-19.png,0.37,1.2,12,1,0,21,21,11,1,,,,,,,,,,,,,,,,,,,,,,,,,,,,,,,,,,,,,,,,
,,,,,V1_037,19,Female,2024-05-23_15h34.25.755,jersey_experiment_5_v1,2023.2.2,Win32,85.47008546,,,,,,,,,,,,,,,,303.7106,305.5107,305.5107,306.0871,return,0.0942,,60.02604167,,,,,,FBP-PT-17.png,0.43,1.2,4,1,0,22,22,3,1,,,,,,,,,,,,,,,,,,,,,,,,,,,,,,,,,,,,,,,,
,,,,,V1_037,19,Female,2024-05-23_15h34.25.755,jersey_experiment_5_v1,2023.2.2,Win32,85.47008546,,,,,,,,,,,,,,,,306.0873,307.8871,307.8871,308.558,return,0.1255,,68.359375,,,,,,FBP-PT-19.png,0.45,1.2,15,1,0,23,23,14,1,,,,,,,,,,,,,,,,,,,,,,,,,,,,,,,,,,,,,,,,
,,,,,V1_037,19,Female,2024-05-23_15h34.25.755,jersey_experiment_5_v1,2023.2.2,Win32,85.47008546,,,,,,,,,,,,,,,,308.5581,309.8519,309.8519,310.5108,return,0.1339,,68.359375,,,,,,FBP-RB-19.png,0.37,1.2,57,0.5,0,24,24,56,1,,,,,,,,,,,,,,,,,,,,,,,,,,,,,,,,,,,,,,,,
,,,,,V1_037,19,Female,2024-05-23_15h34.25.755,jersey_experiment_5_v1,2023.2.2,Win32,85.47008546,,,,,,,,,,,,,,,,310.511,311.805,311.805,315.005,return,0.0659,,60.28645833,,,,,,FBP-YG-91.png,0.37,1.2,27,0.5,0,25,25,26,1,,,,,,,,,,,,,,,,,,,,,,,,,,,,,,,,,,,,,,,,
,,,,,V1_037,19,Female,2024-05-23_15h34.25.755,jersey_experiment_5_v1,2023.2.2,Win32,85.47008546,,,,,,,,,,,,,,,,315.0051,316.2995,316.2995,317.464,return,0.1081,,80.72916667,,,,,,FBP-RB-19.png,0.45,1.2,60,0.5,0,26,26,59,1,,,,,,,,,,,,,,,,,,,,,,,,,,,,,,,,,,,,,,,,
,,,,,V1_037,19,Female,2024-05-23_15h34.25.755,jersey_experiment_5_v1,2023.2.2,Win32,85.47008546,,,,,,,,,,,,,,,,317.4642,318.7584,318.7584,319.5698,return,0.1551,,46.484375,,,,,,FBP-RB-17.png,0.35,1.2,46,0.5,0,27,27,45,1,,,,,,,,,,,,,,,,,,,,,,,,,,,,,,,,,,,,,,,,
,,,,,V1_037,19,Female,2024-05-23_15h34.25.755,jersey_experiment_5_v1,2023.2.2,Win32,85.47008546,,,,,,,,,,,,,,,,319.57,320.8643,320.8644,321.5583,return,0.0847,,70.18229167,,,,,,FBP-YG-71.png,0.43,1.2,19,0.5,0,28,28,18,1,,,,,,,,,,,,,,,,,,,,,,,,,,,,,,,,,,,,,,,,
,,,,,V1_037,19,Female,2024-05-23_15h34.25.755,jersey_experiment_5_v1,2023.2.2,Win32,85.47008546,,,,,,,,,,,,,,,,321.5584,323.3583,323.3583,324.0171,return,0.0381,,78.77604167,,,,,,FBP-PT-17.png,0.45,1.2,5,1,0,29,29,4,1,,,,,,,,,,,,,,,,,,,,,,,,,,,,,,,,,,,,,,,,
,,,,,V1_037,19,Female,2024-05-23_15h34.25.755,jersey_experiment_5_v1,2023.2.2,Win32,85.47008546,,,,,,,,,,,,,,,,324.0172,325.3115,325.3115,326.6762,return,0.0485,,74.86979167,,,,,,FBP-OG-81.png,0.4,1.2,38,0.5,0,30,30,37,1,,,,,,,,,,,,,,,,,,,,,,,,,,,,,,,,,,,,,,,,
,,,,,V1_037,19,Female,2024-05-23_15h34.25.755,jersey_experiment_5_v1,2023.2.2,Win32,85.47008546,,,,,,,,,,,,,,,,326.6764,327.9701,327.9701,329.2645,return,0.0382,,55.98958333,,,,,,FBP-RB-17.png,0.4,1.2,48,0.5,0,31,31,47,1,,,,,,,,,,,,,,,,,,,,,,,,,,,,,,,,,,,,,,,,
,,,,,V1_037,19,Female,2024-05-23_15h34.25.755,jersey_experiment_5_v1,2023.2.2,Win32,85.47008546,,,,,,,,,,,,,,,,329.2646,330.5586,330.5586,331.2999,return,0.0381,,36.06770833,,,,,,FBP-RB-19.png,0.35,1.2,56,0.5,0,32,32,55,1,,,,,,,,,,,,,,,,,,,,,,,,,,,,,,,,,,,,,,,,
,,,,,V1_037,19,Female,2024-05-23_15h34.25.755,jersey_experiment_5_v1,2023.2.2,Win32,85.47008546,,,,,,,,,,,,,,,,331.3001,332.5939,332.594,333.5585,return,0.272,,69.27083333,,,,,,FBP-OG-81.png,0.45,1.2,40,0.5,0,33,33,39,1,,,,,,,,,,,,,,,,,,,,,,,,,,,,,,,,,,,,,,,,
,,,,,V1_037,19,Female,2024-05-23_15h34.25.755,jersey_experiment_5_v1,2023.2.2,Win32,85.47008546,,,,,,,,,,,,,,,,333.5588,335.3587,335.3587,335.8647,return,0.0857,,60.546875,,,,,,FBP-PT-18.png,0.45,1.2,10,1,0,34,34,9,1,,,,,,,,,,,,,,,,,,,,,,,,,,,,,,,,,,,,,,,,
,,,,,V1_037,19,Female,2024-05-23_15h34.25.755,jersey_experiment_5_v1,2023.2.2,Win32,85.47008546,,,,,,,,,,,,,,,,335.8649,337.159,337.159,337.9589,return,0.0236,,85.28645833,,,,,,FBP-RB-18.png,0.45,1.2,55,0.5,0,35,35,54,1,,,,,,,,,,,,,,,,,,,,,,,,,,,,,,,,,,,,,,,,
,,,,,V1_037,19,Female,2024-05-23_15h34.25.755,jersey_experiment_5_v1,2023.2.2,Win32,85.47008546,,,,,,,,,,,,,,,,337.9591,339.2529,339.253,339.9234,return,0.0827,,71.61458333,,,,,,FBP-YG-81.png,0.43,1.2,24,0.5,0,36,36,23,1,,,,,,,,,,,,,,,,,,,,,,,,,,,,,,,,,,,,,,,,
,,,,,V1_037,19,Female,2024-05-23_15h34.25.755,jersey_experiment_5_v1,2023.2.2,Win32,85.47008546,,,,,,,,,,,,,,,,339.9236,341.2178,341.2178,343.2532,return,0.2361,,66.53645833,,,,,,FBP-YG-71.png,0.37,1.2,17,0.5,0,37,37,16,1,,,,,,,,,,,,,,,,,,,,,,,,,,,,,,,,,,,,,,,,
,,,,,V1_037,19,Female,2024-05-23_15h34.25.755,jersey_experiment_5_v1,2023.2.2,Win32,85.47008546,,,,,,,,,,,,,,,,343.2534,345.0533,345.0533,345.6884,return,0.0246,,64.453125,,,,,,FBP-PT-19.png,0.4,1.2,13,1,0,38,38,12,1,,,,,,,,,,,,,,,,,,,,,,,,,,,,,,,,,,,,,,,,
,,,,,V1_037,19,Female,2024-05-23_15h34.25.755,jersey_experiment_5_v1,2023.2.2,Win32,85.47008546,,,,,,,,,,,,,,,,345.6887,346.9827,346.9827,348.3237,return,0.1196,,60.15625,,,,,,FBP-YG-81.png,0.35,1.2,21,0.5,0,39,39,20,1,,,,,,,,,,,,,,,,,,,,,,,,,,,,,,,,,,,,,,,,
,,,,,V1_037,19,Female,2024-05-23_15h34.25.755,jersey_experiment_5_v1,2023.2.2,Win32,85.47008546,,,,,,,,,,,,,,,,348.3241,349.6181,349.6181,350.5592,return,0.0157,,52.86458333,,,,,,FBP-YG-81.png,0.4,1.2,23,0.5,0,40,40,22,1,,,,,,,,,,,,,,,,,,,,,,,,,,,,,,,,,,,,,,,,
,,,,,V1_037,19,Female,2024-05-23_15h34.25.755,jersey_experiment_5_v1,2023.2.2,Win32,85.47008546,,,,,,,,,,,,,,,,350.5593,351.8533,351.8533,352.4535,return,0.0235,,60.15625,,,,,,FBP-YG-91.png,0.4,1.2,28,0.5,0,41,41,27,1,,,,,,,,,,,,,,,,,,,,,,,,,,,,,,,,,,,,,,,,
,,,,,V1_037,19,Female,2024-05-23_15h34.25.755,jersey_experiment_5_v1,2023.2.2,Win32,85.47008546,,,,,,,,,,,,,,,,352.4537,353.7476,353.7476,354.3359,return,0.0885,,58.33333333,,,,,,FBP-RB-19.png,0.43,1.2,59,0.5,0,42,42,58,1,,,,,,,,,,,,,,,,,,,,,,,,,,,,,,,,,,,,,,,,
,,,,,V1_037,19,Female,2024-05-23_15h34.25.755,jersey_experiment_5_v1,2023.2.2,Win32,85.47008546,,,,,,,,,,,,,,,,354.3361,356.1359,356.136,357.2771,return,0.0782,,57.03125,,,,,,FBP-PT-17.png,0.35,1.2,1,1,0,43,43,0,1,,,,,,,,,,,,,,,,,,,,,,,,,,,,,,,,,,,,,,,,
,,,,,V1_037,19,Female,2024-05-23_15h34.25.755,jersey_experiment_5_v1,2023.2.2,Win32,85.47008546,,,,,,,,,,,,,,,,357.2772,358.5713,358.5713,359.9714,return,0.0258,,64.97395833,,,,,,FBP-OG-91.png,0.37,1.2,42,0.5,0,44,44,41,1,,,,,,,,,,,,,,,,,,,,,,,,,,,,,,,,,,,,,,,,
,,,,,V1_037,19,Female,2024-05-23_15h34.25.755,jersey_experiment_5_v1,2023.2.2,Win32,85.47008546,,,,,,,,,,,,,,,,359.9716,361.7717,361.7717,362.3362,return,0.0881,,81.38020833,,,,,,FBP-PT-19.png,0.43,1.2,14,1,0,45,45,13,1,,,,,,,,,,,,,,,,,,,,,,,,,,,,,,,,,,,,,,,,
,,,,,V1_037,19,Female,2024-05-23_15h34.25.755,jersey_experiment_5_v1,2023.2.2,Win32,85.47008546,,,,,,,,,,,,,,,,362.3365,364.1363,364.1363,365.4303,return,0.0335,,58.984375,,,,,,FBP-PT-18.png,0.43,1.2,9,1,0,46,46,8,1,,,,,,,,,,,,,,,,,,,,,,,,,,,,,,,,,,,,,,,,
,,,,,V1_037,19,Female,2024-05-23_15h34.25.755,jersey_experiment_5_v1,2023.2.2,Win32,85.47008546,,,,,,,,,,,,,,,,365.4305,367.2304,367.2305,368.0658,return,0.0848,,58.72395833,,,,,,FBP-PT-18.png,0.4,1.2,8,1,0,47,47,7,1,,,,,,,,,,,,,,,,,,,,,,,,,,,,,,,,,,,,,,,,
,,,,,V1_037,19,Female,2024-05-23_15h34.25.755,jersey_experiment_5_v1,2023.2.2,Win32,85.47008546,,,,,,,,,,,,,,,,368.0659,369.3598,369.3598,370.607,return,0.077,,64.19270833,,,,,,FBP-RB-18.png,0.35,1.2,51,0.5,0,48,48,50,1,,,,,,,,,,,,,,,,,,,,,,,,,,,,,,,,,,,,,,,,
,,,,,V1_037,19,Female,2024-05-23_15h34.25.755,jersey_experiment_5_v1,2023.2.2,Win32,85.47008546,,,,,,,,,,,,,,,,370.6071,372.4071,372.4071,373.7601,return,0.1568,,58.85416667,,,,,,FBP-PT-17.png,0.37,1.2,2,1,0,49,49,1,1,,,,,,,,,,,,,,,,,,,,,,,,,,,,,,,,,,,,,,,,
,,,,,V1_037,19,Female,2024-05-23_15h34.25.755,jersey_experiment_5_v1,2023.2.2,Win32,85.47008546,,,,,,,,,,,,,,,,373.7602,375.5602,375.5602,376.019,return,0.0493,,64.32291667,,,,,,FBP-PT-19.png,0.35,1.2,11,1,0,50,50,10,1,,,,,,,,,,,,,,,,,,,,,,,,,,,,,,,,,,,,,,,,
,,,,,V1_037,19,Female,2024-05-23_15h34.25.755,jersey_experiment_5_v1,2023.2.2,Win32,85.47008546,,,,,,,,,,,,,,,,376.0191,377.3133,377.3133,377.8425,return,0.072,,60.9375,,,,,,FBP-RB-17.png,0.37,1.2,47,0.5,0,51,51,46,1,,,,,,,,,,,,,,,,,,,,,,,,,,,,,,,,,,,,,,,,
,,,,,V1_037,19,Female,2024-05-23_15h34.25.755,jersey_experiment_5_v1,2023.2.2,Win32,85.47008546,,,,,,,,,,,,,,,,377.8427,379.6428,379.6428,380.4544,return,0.0375,,59.63541667,,,,,,FBP-PT-17.png,0.4,1.2,3,1,0,52,52,2,1,,,,,,,,,,,,,,,,,,,,,,,,,,,,,,,,,,,,,,,,
,,,,,V1_037,19,Female,2024-05-23_15h34.25.755,jersey_experiment_5_v1,2023.2.2,Win32,85.47008546,,,,,,,,,,,,,,,,380.4546,381.7486,381.7486,382.3721,return,0.0016,,68.48958333,,,,,,FBP-YG-91.png,0.43,1.2,29,0.5,0,53,53,28,1,,,,,,,,,,,,,,,,,,,,,,,,,,,,,,,,,,,,,,,,
,,,,,V1_037,19,Female,2024-05-23_15h34.25.755,jersey_experiment_5_v1,2023.2.2,Win32,85.47008546,,,,,,,,,,,,,,,,382.3723,384.1725,384.1725,384.7603,return,0.0934,,39.97395833,,,,,,FBP-PT-18.png,0.37,1.2,7,1,0,54,54,6,1,,,,,,,,,,,,,,,,,,,,,,,,,,,,,,,,,,,,,,,,
,,,,,V1_037,19,Female,2024-05-23_15h34.25.755,jersey_experiment_5_v1,2023.2.2,Win32,85.47008546,,,,,,,,,,,,,,,,384.7605,386.0548,386.0548,386.8782,return,0.0901,,35.80729167,,,,,,FBP-YG-91.png,0.35,1.2,26,0.5,0,55,55,25,1,,,,,,,,,,,,,,,,,,,,,,,,,,,,,,,,,,,,,,,,
,,,,,V1_037,19,Female,2024-05-23_15h34.25.755,jersey_experiment_5_v1,2023.2.2,Win32,85.47008546,,,,,,,,,,,,,,,,386.8784,388.1725,388.1725,389.3605,return,0.0995,,23.17708333,,,,,,FBP-RB-18.png,0.4,1.2,53,0.5,0,56,56,52,1,,,,,,,,,,,,,,,,,,,,,,,,,,,,,,,,,,,,,,,,
,,,,,V1_037,19,Female,2024-05-23_15h34.25.755,jersey_experiment_5_v1,2023.2.2,Win32,85.47008546,,,,,,,,,,,,,,,,389.3607,390.6549,390.6549,392.1607,return,0.0519,,46.484375,,,,,,FBP-YG-71.png,0.45,1.2,20,0.5,0,57,57,19,1,,,,,,,,,,,,,,,,,,,,,,,,,,,,,,,,,,,,,,,,
,,,,,V1_037,19,Female,2024-05-23_15h34.25.755,jersey_experiment_5_v1,2023.2.2,Win32,85.47008546,,,,,,,,,,,,,,,,392.1609,393.4549,393.455,394.302,return,0.0079,,36.84895833,,,,,,FBP-OG-71.png,0.35,1.2,31,0.5,0,58,58,30,1,,,,,,,,,,,,,,,,,,,,,,,,,,,,,,,,,,,,,,,,
,,,,,V1_037,19,Female,2024-05-23_15h34.25.755,jersey_experiment_5_v1,2023.2.2,Win32,85.47008546,,,,,,,,,,,,,,,,394.3021,395.5962,395.5963,396.2549,return,0.0538,,59.89583333,,,,,,FBP-RB-18.png,0.43,1.2,54,0.5,0,59,59,53,1,,,,,,,,,,,,,,,,,,,,,,,,,,,,,,,,,,,,,,,,
,,,,,V1_037,19,Female,2024-05-23_15h34.25.755,jersey_experiment_5_v1,2023.2.2,Win32,85.47008546,,,,,,,,,,,,,,,,,,,,,,,,,,,,,,,,,,,,,,,396.2552,516.2595,,,,,,,,,,,,,,,,,,,,,,,,,,,,,,,,,,,,,,
,,,,,V1_037,19,Female,2024-05-23_15h34.25.755,jersey_experiment_5_v1,2023.2.2,Win32,85.47008546,,,,,,,,,,,,,,,,,,,,,,,,,,,,,,,,,,,,,,,,,516.2595,524.1776,return,7.9085,,,,,,,,,,,,,,,,,,,,,,,,,,,,,,,,,,
,,,,,V1_037,19,Female,2024-05-23_15h34.25.755,jersey_experiment_5_v1,2023.2.2,Win32,85.47008546,,,,,,,,,,,,,,,,524.1835,525.9772,525.9772,530.0833,return,1.2243,,69.66145833,,,,,,FBP-RB-81.png,0.4,1.2,53,1,,,,,,,,,,,,,0,0,0,52,1,,,,,,,,,,,,,,,,,,,,,,,,,,,,
,,,,,V1_037,19,Female,2024-05-23_15h34.25.755,jersey_experiment_5_v1,2023.2.2,Win32,85.47008546,,,,,,,,,,,,,,,,530.0836,531.8834,531.8834,532.5657,return,0.0344,,80.20833333,,,,,,FBP-RB-91.png,0.45,1.2,60,1,,,,,,,,,,,,,0,1,1,59,1,,,,,,,,,,,,,,,,,,,,,,,,,,,,
,,,,,V1_037,19,Female,2024-05-23_15h34.25.755,jersey_experiment_5_v1,2023.2.2,Win32,85.47008546,,,,,,,,,,,,,,,,532.5659,534.366,534.3661,535.5658,return,0.3492,,33.85416667,,,,,,FBP-RB-71.png,0.35,1.2,46,1,,,,,,,,,,,,,0,2,2,45,1,,,,,,,,,,,,,,,,,,,,,,,,,,,,
,,,,,V1_037,19,Female,2024-05-23_15h34.25.755,jersey_experiment_5_v1,2023.2.2,Win32,85.47008546,,,,,,,,,,,,,,,,535.5661,537.3658,537.3659,537.9893,return,0.1315,,22.00520833,,,,,,FBP-OG-18.png,0.35,1.2,36,1,,,,,,,,,,,,,0,3,3,35,1,,,,,,,,,,,,,,,,,,,,,,,,,,,,
,,,,,V1_037,19,Female,2024-05-23_15h34.25.755,jersey_experiment_5_v1,2023.2.2,Win32,85.47008546,,,,,,,,,,,,,,,,537.9896,539.7897,539.7897,540.5659,return,0.1176,,43.48958333,,,,,,FBP-OG-17.png,0.43,1.2,34,1,,,,,,,,,,,,,0,4,4,33,1,,,,,,,,,,,,,,,,,,,,,,,,,,,,
,,,,,V1_037,19,Female,2024-05-23_15h34.25.755,jersey_experiment_5_v1,2023.2.2,Win32,85.47008546,,,,,,,,,,,,,,,,540.5661,541.8601,541.8602,542.6132,return,0.1287,,41.015625,,,,,,FBP-PT-81.png,0.35,1.2,6,0.5,,,,,,,,,,,,,0,5,5,5,1,,,,,,,,,,,,,,,,,,,,,,,,,,,,
,,,,,V1_037,19,Female,2024-05-23_15h34.25.755,jersey_experiment_5_v1,2023.2.2,Win32,85.47008546,,,,,,,,,,,,,,,,542.6133,543.9073,543.9073,544.6956,return,0.2126,,57.421875,,,,,,FBP-PT-71.png,0.45,1.2,5,0.5,,,,,,,,,,,,,0,6,6,4,1,,,,,,,,,,,,,,,,,,,,,,,,,,,,
,,,,,V1_037,19,Female,2024-05-23_15h34.25.755,jersey_experiment_5_v1,2023.2.2,Win32,85.47008546,,,,,,,,,,,,,,,,544.6957,546.4956,546.4957,547.425,return,0.0971,,59.89583333,,,,,,FBP-RB-91.png,0.4,1.2,58,1,,,,,,,,,,,,,0,7,7,57,1,,,,,,,,,,,,,,,,,,,,,,,,,,,,
,,,,,V1_037,19,Female,2024-05-23_15h34.25.755,jersey_experiment_5_v1,2023.2.2,Win32,85.47008546,,,,,,,,,,,,,,,,547.4252,548.7193,548.7193,549.8367,return,0.16,,62.5,,,,,,FBP-PT-91.png,0.4,1.2,13,0.5,,,,,,,,,,,,,0,8,8,12,1,,,,,,,,,,,,,,,,,,,,,,,,,,,,
,,,,,V1_037,19,Female,2024-05-23_15h34.25.755,jersey_experiment_5_v1,2023.2.2,Win32,85.47008546,,,,,,,,,,,,,,,,549.837,551.637,551.637,552.1664,return,0.0332,,55.33854167,,,,,,FBP-RB-71.png,0.37,1.2,47,1,,,,,,,,,,,,,0,9,9,46,1,,,,,,,,,,,,,,,,,,,,,,,,,,,,
,,,,,V1_037,19,Female,2024-05-23_15h34.25.755,jersey_experiment_5_v1,2023.2.2,Win32,85.47008546,,,,,,,,,,,,,,,,552.1667,553.9667,553.9667,554.7194,return,0.0652,,41.66666667,,,,,,FBP-YG-19.png,0.35,1.2,26,1,,,,,,,,,,,,,0,10,10,25,1,,,,,,,,,,,,,,,,,,,,,,,,,,,,
,,,,,V1_037,19,Female,2024-05-23_15h34.25.755,jersey_experiment_5_v1,2023.2.2,Win32,85.47008546,,,,,,,,,,,,,,,,554.7196,556.0138,556.0138,557.1666,return,0.1458,,33.07291667,,,,,,FBP-PT-71.png,0.37,1.2,2,0.5,,,,,,,,,,,,,0,11,11,1,1,,,,,,,,,,,,,,,,,,,,,,,,,,,,
,,,,,V1_037,19,Female,2024-05-23_15h34.25.755,jersey_experiment_5_v1,2023.2.2,Win32,85.47008546,,,,,,,,,,,,,,,,557.1667,558.9666,558.9666,559.5197,return,0.0743,,33.203125,,,,,,FBP-RB-91.png,0.35,1.2,56,1,,,,,,,,,,,,,0,12,12,55,1,,,,,,,,,,,,,,,,,,,,,,,,,,,,
,,,,,V1_037,19,Female,2024-05-23_15h34.25.755,jersey_experiment_5_v1,2023.2.2,Win32,85.47008546,,,,,,,,,,,,,,,,559.5199,561.3196,561.3196,561.7786,return,0.0484,,33.59375,,,,,,FBP-YG-18.png,0.35,1.2,21,1,,,,,,,,,,,,,0,13,13,20,1,,,,,,,,,,,,,,,,,,,,,,,,,,,,
,,,,,V1_037,19,Female,2024-05-23_15h34.25.755,jersey_experiment_5_v1,2023.2.2,Win32,85.47008546,,,,,,,,,,,,,,,,561.7788,563.5785,563.5786,564.1668,return,0.0004,,55.859375,,,,,,FBP-OG-19.png,0.43,1.2,44,1,,,,,,,,,,,,,0,14,14,43,1,,,,,,,,,,,,,,,,,,,,,,,,,,,,
,,,,,V1_037,19,Female,2024-05-23_15h34.25.755,jersey_experiment_5_v1,2023.2.2,Win32,85.47008546,,,,,,,,,,,,,,,,564.1669,565.461,565.461,566.4376,return,0.024,,60.15625,,,,,,FBP-PT-81.png,0.45,1.2,10,0.5,,,,,,,,,,,,,0,15,15,9,1,,,,,,,,,,,,,,,,,,,,,,,,,,,,
,,,,,V1_037,19,Female,2024-05-23_15h34.25.755,jersey_experiment_5_v1,2023.2.2,Win32,85.47008546,,,,,,,,,,,,,,,,566.4378,568.2379,568.2379,571.6965,return,0.0288,,45.3125,,,,,,FBP-RB-81.png,0.35,1.2,51,1,,,,,,,,,,,,,0,16,16,50,1,,,,,,,,,,,,,,,,,,,,,,,,,,,,
,,,,,V1_037,19,Female,2024-05-23_15h34.25.755,jersey_experiment_5_v1,2023.2.2,Win32,85.47008546,,,,,,,,,,,,,,,,571.6966,572.9907,572.9907,574.2143,return,0.0576,,25.91145833,,,,,,FBP-PT-91.png,0.35,1.2,11,0.5,,,,,,,,,,,,,0,17,17,10,1,,,,,,,,,,,,,,,,,,,,,,,,,,,,
,,,,,V1_037,19,Female,2024-05-23_15h34.25.755,jersey_experiment_5_v1,2023.2.2,Win32,85.47008546,,,,,,,,,,,,,,,,574.2145,575.5084,575.5084,576.3083,return,0.0347,,41.66666667,,,,,,FBP-PT-91.png,0.43,1.2,14,0.5,,,,,,,,,,,,,0,18,18,13,1,,,,,,,,,,,,,,,,,,,,,,,,,,,,
,,,,,V1_037,19,Female,2024-05-23_15h34.25.755,jersey_experiment_5_v1,2023.2.2,Win32,85.47008546,,,,,,,,,,,,,,,,576.3085,578.1087,578.1087,578.5674,return,0.0338,,33.72395833,,,,,,FBP-RB-91.png,0.37,1.2,57,1,,,,,,,,,,,,,0,19,19,56,1,,,,,,,,,,,,,,,,,,,,,,,,,,,,
,,,,,V1_037,19,Female,2024-05-23_15h34.25.755,jersey_experiment_5_v1,2023.2.2,Win32,85.47008546,,,,,,,,,,,,,,,,578.5674,580.3674,580.3675,581.0734,return,0.0162,,44.40104167,,,,,,FBP-OG-18.png,0.4,1.2,38,1,,,,,,,,,,,,,0,20,20,37,1,,,,,,,,,,,,,,,,,,,,,,,,,,,,
,,,,,V1_037,19,Female,2024-05-23_15h34.25.755,jersey_experiment_5_v1,2023.2.2,Win32,85.47008546,,,,,,,,,,,,,,,,581.0736,582.8734,582.8735,583.7205,return,0.0105,,51.82291667,,,,,,FBP-YG-18.png,0.43,1.2,24,1,,,,,,,,,,,,,0,21,21,23,1,,,,,,,,,,,,,,,,,,,,,,,,,,,,
,,,,,V1_037,19,Female,2024-05-23_15h34.25.755,jersey_experiment_5_v1,2023.2.2,Win32,85.47008546,,,,,,,,,,,,,,,,583.7207,585.5208,585.5208,585.9911,return,0.0379,,55.59895833,,,,,,FBP-RB-81.png,0.43,1.2,54,1,,,,,,,,,,,,,0,22,22,53,1,,,,,,,,,,,,,,,,,,,,,,,,,,,,
,,,,,V1_037,19,Female,2024-05-23_15h34.25.755,jersey_experiment_5_v1,2023.2.2,Win32,85.47008546,,,,,,,,,,,,,,,,585.9913,587.7913,587.7913,588.4854,return,0.0477,,45.05208333,,,,,,FBP-YG-18.png,0.37,1.2,22,1,,,,,,,,,,,,,0,23,23,21,1,,,,,,,,,,,,,,,,,,,,,,,,,,,,
,,,,,V1_037,19,Female,2024-05-23_15h34.25.755,jersey_experiment_5_v1,2023.2.2,Win32,85.47008546,,,,,,,,,,,,,,,,588.4856,589.7795,589.7795,591.0383,return,0.0645,,54.6875,,,,,,FBP-PT-81.png,0.4,1.2,8,0.5,,,,,,,,,,,,,0,24,24,7,1,,,,,,,,,,,,,,,,,,,,,,,,,,,,
,,,,,V1_037,19,Female,2024-05-23_15h34.25.755,jersey_experiment_5_v1,2023.2.2,Win32,85.47008546,,,,,,,,,,,,,,,,591.0386,592.3327,592.3327,593.5091,return,0.0335,,58.46354167,,,,,,FBP-PT-71.png,0.4,1.2,3,0.5,,,,,,,,,,,,,0,25,25,2,1,,,,,,,,,,,,,,,,,,,,,,,,,,,,
,,,,,V1_037,19,Female,2024-05-23_15h34.25.755,jersey_experiment_5_v1,2023.2.2,Win32,85.47008546,,,,,,,,,,,,,,,,593.5092,594.8033,594.8033,596.721,return,0.0735,,63.02083333,,,,,,FBP-PT-71.png,0.43,1.2,4,0.5,,,,,,,,,,,,,0,26,26,3,1,,,,,,,,,,,,,,,,,,,,,,,,,,,,
,,,,,V1_037,19,Female,2024-05-23_15h34.25.755,jersey_experiment_5_v1,2023.2.2,Win32,85.47008546,,,,,,,,,,,,,,,,596.7213,598.5211,598.5211,599.2387,return,0.0609,,38.15104167,,,,,,FBP-OG-17.png,0.37,1.2,32,1,,,,,,,,,,,,,0,27,27,31,1,,,,,,,,,,,,,,,,,,,,,,,,,,,,
,,,,,V1_037,19,Female,2024-05-23_15h34.25.755,jersey_experiment_5_v1,2023.2.2,Win32,85.47008546,,,,,,,,,,,,,,,,599.239,601.0388,601.0388,601.4858,return,0.0315,,72.78645833,,,,,,FBP-RB-71.png,0.45,1.2,50,1,,,,,,,,,,,,,0,28,28,49,1,,,,,,,,,,,,,,,,,,,,,,,,,,,,
,,,,,V1_037,19,Female,2024-05-23_15h34.25.755,jersey_experiment_5_v1,2023.2.2,Win32,85.47008546,,,,,,,,,,,,,,,,601.486,603.2859,603.2859,604.1802,return,0.3195,,41.796875,,,,,,FBP-OG-19.png,0.37,1.2,42,1,,,,,,,,,,,,,0,29,29,41,1,,,,,,,,,,,,,,,,,,,,,,,,,,,,
,,,,,V1_037,19,Female,2024-05-23_15h34.25.755,jersey_experiment_5_v1,2023.2.2,Win32,85.47008546,,,,,,,,,,,,,,,,604.1803,605.98,605.9801,607.0861,return,0.0781,,64.19270833,,,,,,FBP-YG-18.png,0.45,1.2,25,1,,,,,,,,,,,,,0,30,30,24,1,,,,,,,,,,,,,,,,,,,,,,,,,,,,
,,,,,V1_037,19,Female,2024-05-23_15h34.25.755,jersey_experiment_5_v1,2023.2.2,Win32,85.47008546,,,,,,,,,,,,,,,,607.0862,608.3802,608.3802,611.7334,return,0.0467,,57.94270833,,,,,,FBP-PT-81.png,0.37,1.2,7,0.5,,,,,,,,,,,,,0,31,31,6,1,,,,,,,,,,,,,,,,,,,,,,,,,,,,
,,,,,V1_037,19,Female,2024-05-23_15h34.25.755,jersey_experiment_5_v1,2023.2.2,Win32,85.47008546,,,,,,,,,,,,,,,,611.7335,613.5334,613.5334,614.5099,return,0.0903,,23.30729167,,,,,,FBP-OG-17.png,0.35,1.2,31,1,,,,,,,,,,,,,0,32,32,30,1,,,,,,,,,,,,,,,,,,,,,,,,,,,,
,,,,,V1_037,19,Female,2024-05-23_15h34.25.755,jersey_experiment_5_v1,2023.2.2,Win32,85.47008546,,,,,,,,,,,,,,,,614.5101,616.3101,616.3101,616.9335,return,0.0136,,43.61979167,,,,,,FBP-YG-19.png,0.4,1.2,28,1,,,,,,,,,,,,,0,33,33,27,1,,,,,,,,,,,,,,,,,,,,,,,,,,,,
,,,,,V1_037,19,Female,2024-05-23_15h34.25.755,jersey_experiment_5_v1,2023.2.2,Win32,85.47008546,,,,,,,,,,,,,,,,616.9337,618.7335,618.7335,620.8865,return,0.0375,,44.921875,,,,,,FBP-RB-71.png,0.43,1.2,49,1,,,,,,,,,,,,,0,34,34,48,1,,,,,,,,,,,,,,,,,,,,,,,,,,,,
,,,,,V1_037,19,Female,2024-05-23_15h34.25.755,jersey_experiment_5_v1,2023.2.2,Win32,85.47008546,,,,,,,,,,,,,,,,620.8868,622.6866,622.6866,623.3808,return,0.0469,,64.32291667,,,,,,FBP-RB-81.png,0.45,1.2,55,1,,,,,,,,,,,,,0,35,35,54,1,,,,,,,,,,,,,,,,,,,,,,,,,,,,
,,,,,V1_037,19,Female,2024-05-23_15h34.25.755,jersey_experiment_5_v1,2023.2.2,Win32,85.47008546,,,,,,,,,,,,,,,,623.3811,625.1809,625.1809,626.1103,return,0.0666,,55.98958333,,,,,,FBP-OG-19.png,0.4,1.2,43,1,,,,,,,,,,,,,0,36,36,42,1,,,,,,,,,,,,,,,,,,,,,,,,,,,,
,,,,,V1_037,19,Female,2024-05-23_15h34.25.755,jersey_experiment_5_v1,2023.2.2,Win32,85.47008546,,,,,,,,,,,,,,,,626.1105,627.9104,627.9104,629.3106,return,0.2075,,75.78125,,,,,,FBP-OG-17.png,0.45,1.2,35,1,,,,,,,,,,,,,0,37,37,34,1,,,,,,,,,,,,,,,,,,,,,,,,,,,,
,,,,,V1_037,19,Female,2024-05-23_15h34.25.755,jersey_experiment_5_v1,2023.2.2,Win32,85.47008546,,,,,,,,,,,,,,,,629.3108,631.1104,631.1104,631.934,return,0.0647,,77.86458333,,,,,,FBP-OG-18.png,0.45,1.2,40,1,,,,,,,,,,,,,0,38,38,39,1,,,,,,,,,,,,,,,,,,,,,,,,,,,,
,,,,,V1_037,19,Female,2024-05-23_15h34.25.755,jersey_experiment_5_v1,2023.2.2,Win32,85.47008546,,,,,,,,,,,,,,,,631.9341,633.7341,633.7341,634.287,return,0.0067,,67.70833333,,,,,,FBP-OG-19.png,0.45,1.2,45,1,,,,,,,,,,,,,0,39,39,44,1,,,,,,,,,,,,,,,,,,,,,,,,,,,,
,,,,,V1_037,19,Female,2024-05-23_15h34.25.755,jersey_experiment_5_v1,2023.2.2,Win32,85.47008546,,,,,,,,,,,,,,,,634.2872,636.0871,636.0871,636.8518,return,0.0492,,69.53125,,,,,,FBP-YG-17.png,0.45,1.2,20,1,,,,,,,,,,,,,0,40,40,19,1,,,,,,,,,,,,,,,,,,,,,,,,,,,,
,,,,,V1_037,19,Female,2024-05-23_15h34.25.755,jersey_experiment_5_v1,2023.2.2,Win32,85.47008546,,,,,,,,,,,,,,,,636.8519,638.6519,638.6519,639.1342,return,0.0547,,58.72395833,,,,,,FBP-RB-91.png,0.43,1.2,59,1,,,,,,,,,,,,,0,41,41,58,1,,,,,,,,,,,,,,,,,,,,,,,,,,,,
,,,,,V1_037,19,Female,2024-05-23_15h34.25.755,jersey_experiment_5_v1,2023.2.2,Win32,85.47008546,,,,,,,,,,,,,,,,639.1344,640.9345,640.9346,642.4167,return,0.1681,,24.609375,,,,,,FBP-OG-19.png,0.35,1.2,41,1,,,,,,,,,,,,,0,42,42,40,1,,,,,,,,,,,,,,,,,,,,,,,,,,,,
,,,,,V1_037,19,Female,2024-05-23_15h34.25.755,jersey_experiment_5_v1,2023.2.2,Win32,85.47008546,,,,,,,,,,,,,,,,642.4168,644.2168,644.2168,644.8051,return,0.1279,,27.60416667,,,,,,FBP-YG-17.png,0.37,1.2,17,1,,,,,,,,,,,,,0,43,43,16,1,,,,,,,,,,,,,,,,,,,,,,,,,,,,
,,,,,V1_037,19,Female,2024-05-23_15h34.25.755,jersey_experiment_5_v1,2023.2.2,Win32,85.47008546,,,,,,,,,,,,,,,,644.8053,646.6052,646.6053,647.2522,return,0.0821,,37.890625,,,,,,FBP-YG-18.png,0.4,1.2,23,1,,,,,,,,,,,,,0,44,44,22,1,,,,,,,,,,,,,,,,,,,,,,,,,,,,
,,,,,V1_037,19,Female,2024-05-23_15h34.25.755,jersey_experiment_5_v1,2023.2.2,Win32,85.47008546,,,,,,,,,,,,,,,,647.2523,649.0523,649.0524,649.4758,return,0.0713,,22.65625,,,,,,FBP-YG-17.png,0.35,1.2,16,1,,,,,,,,,,,,,0,45,45,15,1,,,,,,,,,,,,,,,,,,,,,,,,,,,,
,,,,,V1_037,19,Female,2024-05-23_15h34.25.755,jersey_experiment_5_v1,2023.2.2,Win32,85.47008546,,,,,,,,,,,,,,,,649.4761,650.7701,650.7701,651.923,return,0.0713,,53.125,,,,,,FBP-PT-91.png,0.45,1.2,15,0.5,,,,,,,,,,,,,0,46,46,14,1,,,,,,,,,,,,,,,,,,,,,,,,,,,,
,,,,,V1_037,19,Female,2024-05-23_15h34.25.755,jersey_experiment_5_v1,2023.2.2,Win32,85.47008546,,,,,,,,,,,,,,,,651.9233,653.7231,653.7231,654.1936,return,0.0514,,37.63020833,,,,,,FBP-OG-18.png,0.37,1.2,37,1,,,,,,,,,,,,,0,47,47,36,1,,,,,,,,,,,,,,,,,,,,,,,,,,,,
,,,,,V1_037,19,Female,2024-05-23_15h34.25.755,jersey_experiment_5_v1,2023.2.2,Win32,85.47008546,,,,,,,,,,,,,,,,654.1937,655.4879,655.488,656.182,return,0.0473,,29.16666667,,,,,,FBP-PT-91.png,0.37,1.2,12,0.5,,,,,,,,,,,,,0,48,48,11,1,,,,,,,,,,,,,,,,,,,,,,,,,,,,
,,,,,V1_037,19,Female,2024-05-23_15h34.25.755,jersey_experiment_5_v1,2023.2.2,Win32,85.47008546,,,,,,,,,,,,,,,,656.1822,657.9822,657.9822,658.8997,return,0.0827,,78.515625,,,,,,FBP-YG-19.png,0.45,1.2,30,1,,,,,,,,,,,,,0,49,49,29,1,,,,,,,,,,,,,,,,,,,,,,,,,,,,
,,,,,V1_037,19,Female,2024-05-23_15h34.25.755,jersey_experiment_5_v1,2023.2.2,Win32,85.47008546,,,,,,,,,,,,,,,,658.8999,660.6996,660.6997,661.5114,return,0.0707,,72.91666667,,,,,,FBP-OG-18.png,0.43,1.2,39,1,,,,,,,,,,,,,0,50,50,38,1,,,,,,,,,,,,,,,,,,,,,,,,,,,,
,,,,,V1_037,19,Female,2024-05-23_15h34.25.755,jersey_experiment_5_v1,2023.2.2,Win32,85.47008546,,,,,,,,,,,,,,,,661.5116,662.8056,662.8056,665.2176,return,0.0395,,54.16666667,,,,,,FBP-PT-81.png,0.43,1.2,9,0.5,,,,,,,,,,,,,0,51,51,8,1,,,,,,,,,,,,,,,,,,,,,,,,,,,,
,,,,,V1_037,19,Female,2024-05-23_15h34.25.755,jersey_experiment_5_v1,2023.2.2,Win32,85.47008546,,,,,,,,,,,,,,,,665.2177,667.0177,667.0177,667.7589,return,0.0521,,82.55208333,,,,,,FBP-YG-19.png,0.43,1.2,29,1,,,,,,,,,,,,,0,52,52,28,1,,,,,,,,,,,,,,,,,,,,,,,,,,,,
,,,,,V1_037,19,Female,2024-05-23_15h34.25.755,jersey_experiment_5_v1,2023.2.2,Win32,85.47008546,,,,,,,,,,,,,,,,667.7591,669.559,669.559,673.5354,return,0.0404,,56.38020833,,,,,,FBP-OG-17.png,0.4,1.2,33,1,,,,,,,,,,,,,0,53,53,32,1,,,,,,,,,,,,,,,,,,,,,,,,,,,,
,,,,,V1_037,19,Female,2024-05-23_15h34.25.755,jersey_experiment_5_v1,2023.2.2,Win32,85.47008546,,,,,,,,,,,,,,,,673.5357,675.3356,675.3357,675.8415,return,0.0381,,60.9375,,,,,,FBP-YG-19.png,0.37,1.2,27,1,,,,,,,,,,,,,0,54,54,26,1,,,,,,,,,,,,,,,,,,,,,,,,,,,,
,,,,,V1_037,19,Female,2024-05-23_15h34.25.755,jersey_experiment_5_v1,2023.2.2,Win32,85.47008546,,,,,,,,,,,,,,,,675.8416,677.6416,677.6416,678.0651,return,0.0397,,69.921875,,,,,,FBP-RB-71.png,0.4,1.2,48,1,,,,,,,,,,,,,0,55,55,47,1,,,,,,,,,,,,,,,,,,,,,,,,,,,,
,,,,,V1_037,19,Female,2024-05-23_15h34.25.755,jersey_experiment_5_v1,2023.2.2,Win32,85.47008546,,,,,,,,,,,,,,,,678.0653,679.3593,679.3593,680.0063,return,0.057,,43.48958333,,,,,,FBP-PT-71.png,0.35,1.2,1,0.5,,,,,,,,,,,,,0,56,56,0,1,,,,,,,,,,,,,,,,,,,,,,,,,,,,
,,,,,V1_037,19,Female,2024-05-23_15h34.25.755,jersey_experiment_5_v1,2023.2.2,Win32,85.47008546,,,,,,,,,,,,,,,,680.0064,681.8064,681.8064,682.2769,return,0.0609,,65.75520833,,,,,,FBP-YG-17.png,0.43,1.2,19,1,,,,,,,,,,,,,0,57,57,18,1,,,,,,,,,,,,,,,,,,,,,,,,,,,,
,,,,,V1_037,19,Female,2024-05-23_15h34.25.755,jersey_experiment_5_v1,2023.2.2,Win32,85.47008546,,,,,,,,,,,,,,,,682.2771,684.077,684.077,686.136,return,0.7988,,42.578125,,,,,,FBP-RB-81.png,0.37,1.2,52,1,,,,,,,,,,,,,0,58,58,51,1,,,,,,,,,,,,,,,,,,,,,,,,,,,,
,,,,,V1_037,19,Female,2024-05-23_15h34.25.755,jersey_experiment_5_v1,2023.2.2,Win32,85.47008546,,,,,,,,,,,,,,,,686.1361,687.936,687.936,688.4535,return,0.0335,,36.84895833,,,,,,FBP-YG-17.png,0.4,1.2,18,1,,,,,,,,,,,,,0,59,59,17,1,,,,,,,,,,,,,,,,,,,,,,,,,,,,
,,,,,V1_037,19,Female,2024-05-23_15h34.25.755,jersey_experiment_5_v1,2023.2.2,Win32,85.47008546,,,,,,,,,,,,,,,,688.455,690.2537,690.2537,690.6538,return,0.0432,,31.77083333,,,,,,FBP-RB-17.png,0.37,1.2,47,1,,,,,,,,,,,,,,,,,,0,0,0,46,1,,,,,,,,,,,,,,,,,,,,,,,
,,,,,V1_037,19,Female,2024-05-23_15h34.25.755,jersey_experiment_5_v1,2023.2.2,Win32,85.47008546,,,,,,,,,,,,,,,,690.654,692.4537,692.4537,693.4774,return,0.5555,,58.85416667,,,,,,FBP-RB-19.png,0.45,1.2,60,1,,,,,,,,,,,,,,,,,,0,1,1,59,1,,,,,,,,,,,,,,,,,,,,,,,
,,,,,V1_037,19,Female,2024-05-23_15h34.25.755,jersey_experiment_5_v1,2023.2.2,Win32,85.47008546,,,,,,,,,,,,,,,,693.4777,694.7717,694.7717,695.6539,return,0.1883,,75.91145833,,,,,,FBP-PT-19.png,0.45,1.2,15,0.5,,,,,,,,,,,,,,,,,,0,2,2,14,1,,,,,,,,,,,,,,,,,,,,,,,
,,,,,V1_037,19,Female,2024-05-23_15h34.25.755,jersey_experiment_5_v1,2023.2.2,Win32,85.47008546,,,,,,,,,,,,,,,,695.6541,697.4542,697.4543,698.1835,return,0.0707,,71.09375,,,,,,FBP-OG-81.png,0.43,1.2,39,1,,,,,,,,,,,,,,,,,,0,3,3,38,1,,,,,,,,,,,,,,,,,,,,,,,
,,,,,V1_037,19,Female,2024-05-23_15h34.25.755,jersey_experiment_5_v1,2023.2.2,Win32,85.47008546,,,,,,,,,,,,,,,,698.1837,699.4777,699.4778,700.4307,return,0.2054,,85.41666667,,,,,,FBP-PT-17.png,0.45,1.2,5,0.5,,,,,,,,,,,,,,,,,,0,4,4,4,1,,,,,,,,,,,,,,,,,,,,,,,
,,,,,V1_037,19,Female,2024-05-23_15h34.25.755,jersey_experiment_5_v1,2023.2.2,Win32,85.47008546,,,,,,,,,,,,,,,,700.4308,702.2308,702.2309,702.7365,return,0.0523,,61.97916667,,,,,,FBP-OG-81.png,0.4,1.2,38,1,,,,,,,,,,,,,,,,,,0,5,5,37,1,,,,,,,,,,,,,,,,,,,,,,,
,,,,,V1_037,19,Female,2024-05-23_15h34.25.755,jersey_experiment_5_v1,2023.2.2,Win32,85.47008546,,,,,,,,,,,,,,,,702.7367,704.5367,704.5367,705.0545,return,0.0529,,42.83854167,,,,,,FBP-OG-71.png,0.35,1.2,31,1,,,,,,,,,,,,,,,,,,0,6,6,30,1,,,,,,,,,,,,,,,,,,,,,,,
,,,,,V1_037,19,Female,2024-05-23_15h34.25.755,jersey_experiment_5_v1,2023.2.2,Win32,85.47008546,,,,,,,,,,,,,,,,705.0547,706.8545,706.8545,707.3014,return,0.0473,,33.984375,,,,,,FBP-YG-71.png,0.35,1.2,16,1,,,,,,,,,,,,,,,,,,0,7,7,15,1,,,,,,,,,,,,,,,,,,,,,,,
,,,,,V1_037,19,Female,2024-05-23_15h34.25.755,jersey_experiment_5_v1,2023.2.2,Win32,85.47008546,,,,,,,,,,,,,,,,707.3016,708.5956,708.5956,709.6543,return,0.0475,,52.99479167,,,,,,FBP-PT-18.png,0.37,1.2,7,0.5,,,,,,,,,,,,,,,,,,0,8,8,6,1,,,,,,,,,,,,,,,,,,,,,,,
,,,,,V1_037,19,Female,2024-05-23_15h34.25.755,jersey_experiment_5_v1,2023.2.2,Win32,85.47008546,,,,,,,,,,,,,,,,709.6545,711.4547,711.4547,712.0779,return,0.149,,31.90104167,,,,,,FBP-OG-81.png,0.35,1.2,36,1,,,,,,,,,,,,,,,,,,0,9,9,35,1,,,,,,,,,,,,,,,,,,,,,,,
,,,,,V1_037,19,Female,2024-05-23_15h34.25.755,jersey_experiment_5_v1,2023.2.2,Win32,85.47008546,,,,,,,,,,,,,,,,712.0781,713.8784,713.8784,715.2194,return,0.1319,,59.375,,,,,,FBP-YG-81.png,0.43,1.2,24,1,,,,,,,,,,,,,,,,,,0,10,10,23,1,,,,,,,,,,,,,,,,,,,,,,,
,,,,,V1_037,19,Female,2024-05-23_15h34.25.755,jersey_experiment_5_v1,2023.2.2,Win32,85.47008546,,,,,,,,,,,,,,,,715.2196,717.0194,717.0194,718.2077,return,0.0746,,84.11458333,,,,,,FBP-YG-71.png,0.43,1.2,19,1,,,,,,,,,,,,,,,,,,0,11,11,18,1,,,,,,,,,,,,,,,,,,,,,,,
,,,,,V1_037,19,Female,2024-05-23_15h34.25.755,jersey_experiment_5_v1,2023.2.2,Win32,85.47008546,,,,,,,,,,,,,,,,718.2079,719.5019,719.5019,720.3371,return,0.0615,,28.64583333,,,,,,FBP-PT-18.png,0.35,1.2,6,0.5,,,,,,,,,,,,,,,,,,0,12,12,5,1,,,,,,,,,,,,,,,,,,,,,,,
,,,,,V1_037,19,Female,2024-05-23_15h34.25.755,jersey_experiment_5_v1,2023.2.2,Win32,85.47008546,,,,,,,,,,,,,,,,720.3373,722.1372,722.1372,722.6431,return,0.0494,,70.57291667,,,,,,FBP-RB-18.png,0.43,1.2,54,1,,,,,,,,,,,,,,,,,,0,13,13,53,1,,,,,,,,,,,,,,,,,,,,,,,
,,,,,V1_037,19,Female,2024-05-23_15h34.25.755,jersey_experiment_5_v1,2023.2.2,Win32,85.47008546,,,,,,,,,,,,,,,,722.6433,724.4432,724.4433,725.0552,return,0.042,,35.41666667,,,,,,FBP-OG-71.png,0.4,1.2,33,1,,,,,,,,,,,,,,,,,,0,14,14,32,1,,,,,,,,,,,,,,,,,,,,,,,
,,,,,V1_037,19,Female,2024-05-23_15h34.25.755,jersey_experiment_5_v1,2023.2.2,Win32,85.47008546,,,,,,,,,,,,,,,,725.0554,726.3492,726.3492,727.3256,return,0.0553,,67.83854167,,,,,,FBP-PT-18.png,0.4,1.2,8,0.5,,,,,,,,,,,,,,,,,,0,15,15,7,1,,,,,,,,,,,,,,,,,,,,,,,
,,,,,V1_037,19,Female,2024-05-23_15h34.25.755,jersey_experiment_5_v1,2023.2.2,Win32,85.47008546,,,,,,,,,,,,,,,,727.3258,728.6198,728.6199,729.3963,return,0.0252,,39.0625,,,,,,FBP-PT-17.png,0.35,1.2,1,0.5,,,,,,,,,,,,,,,,,,0,16,16,0,1,,,,,,,,,,,,,,,,,,,,,,,
,,,,,V1_037,19,Female,2024-05-23_15h34.25.755,jersey_experiment_5_v1,2023.2.2,Win32,85.47008546,,,,,,,,,,,,,,,,729.3965,731.1967,731.1967,732.2905,return,0.1072,,65.234375,,,,,,FBP-RB-18.png,0.37,1.2,52,1,,,,,,,,,,,,,,,,,,0,17,17,51,1,,,,,,,,,,,,,,,,,,,,,,,
,,,,,V1_037,19,Female,2024-05-23_15h34.25.755,jersey_experiment_5_v1,2023.2.2,Win32,85.47008546,,,,,,,,,,,,,,,,732.2906,734.0908,734.0908,734.9494,return,0.2118,,36.58854167,,,,,,FBP-OG-81.png,0.37,1.2,37,1,,,,,,,,,,,,,,,,,,0,18,18,36,1,,,,,,,,,,,,,,,,,,,,,,,
,,,,,V1_037,19,Female,2024-05-23_15h34.25.755,jersey_experiment_5_v1,2023.2.2,Win32,85.47008546,,,,,,,,,,,,,,,,734.9495,736.7495,736.7495,737.7613,return,0.0492,,63.28125,,,,,,FBP-RB-18.png,0.35,1.2,51,1,,,,,,,,,,,,,,,,,,0,19,19,50,1,,,,,,,,,,,,,,,,,,,,,,,
,,,,,V1_037,19,Female,2024-05-23_15h34.25.755,jersey_experiment_5_v1,2023.2.2,Win32,85.47008546,,,,,,,,,,,,,,,,737.7616,739.5613,739.5614,740.2555,return,0.0415,,41.53645833,,,,,,FBP-YG-71.png,0.37,1.2,17,1,,,,,,,,,,,,,,,,,,0,20,20,16,1,,,,,,,,,,,,,,,,,,,,,,,
,,,,,V1_037,19,Female,2024-05-23_15h34.25.755,jersey_experiment_5_v1,2023.2.2,Win32,85.47008546,,,,,,,,,,,,,,,,740.2558,742.0555,742.0555,743.1262,return,0.6589,,36.19791667,,,,,,FBP-YG-91.png,0.35,1.2,26,1,,,,,,,,,,,,,,,,,,0,21,21,25,1,,,,,,,,,,,,,,,,,,,,,,,
,,,,,V1_037,19,Female,2024-05-23_15h34.25.755,jersey_experiment_5_v1,2023.2.2,Win32,85.47008546,,,,,,,,,,,,,,,,743.1264,744.9263,744.9264,745.7616,return,0.1807,,77.47395833,,,,,,FBP-YG-91.png,0.45,1.2,30,1,,,,,,,,,,,,,,,,,,0,22,22,29,1,,,,,,,,,,,,,,,,,,,,,,,
,,,,,V1_037,19,Female,2024-05-23_15h34.25.755,jersey_experiment_5_v1,2023.2.2,Win32,85.47008546,,,,,,,,,,,,,,,,745.7618,747.5618,747.5618,748.7029,return,0.1228,,68.75,,,,,,FBP-YG-81.png,0.4,1.2,23,1,,,,,,,,,,,,,,,,,,0,23,23,22,1,,,,,,,,,,,,,,,,,,,,,,,
,,,,,V1_037,19,Female,2024-05-23_15h34.25.755,jersey_experiment_5_v1,2023.2.2,Win32,85.47008546,,,,,,,,,,,,,,,,748.703,749.9971,749.9971,750.9265,return,0.0408,,30.46875,,,,,,FBP-PT-19.png,0.35,1.2,11,0.5,,,,,,,,,,,,,,,,,,0,24,24,10,1,,,,,,,,,,,,,,,,,,,,,,,
,,,,,V1_037,19,Female,2024-05-23_15h34.25.755,jersey_experiment_5_v1,2023.2.2,Win32,85.47008546,,,,,,,,,,,,,,,,750.9266,752.7267,752.7267,753.9384,return,0.0739,,58.59375,,,,,,FBP-OG-91.png,0.43,1.2,44,1,,,,,,,,,,,,,,,,,,0,25,25,43,1,,,,,,,,,,,,,,,,,,,,,,,
,,,,,V1_037,19,Female,2024-05-23_15h34.25.755,jersey_experiment_5_v1,2023.2.2,Win32,85.47008546,,,,,,,,,,,,,,,,753.9387,755.7385,755.7385,756.8562,return,0.071,,54.94791667,,,,,,FBP-YG-91.png,0.37,1.2,27,1,,,,,,,,,,,,,,,,,,0,26,26,26,1,,,,,,,,,,,,,,,,,,,,,,,
,,,,,V1_037,19,Female,2024-05-23_15h34.25.755,jersey_experiment_5_v1,2023.2.2,Win32,85.47008546,,,,,,,,,,,,,,,,756.8564,758.6562,758.6562,759.668,return,0.4001,,74.73958333,,,,,,FBP-RB-17.png,0.43,1.2,49,1,,,,,,,,,,,,,,,,,,0,27,27,48,1,,,,,,,,,,,,,,,,,,,,,,,
,,,,,V1_037,19,Female,2024-05-23_15h34.25.755,jersey_experiment_5_v1,2023.2.2,Win32,85.47008546,,,,,,,,,,,,,,,,759.6682,761.4681,761.4681,762.4563,return,0.1883,,70.83333333,,,,,,FBP-OG-91.png,0.4,1.2,43,1,,,,,,,,,,,,,,,,,,0,28,28,42,1,,,,,,,,,,,,,,,,,,,,,,,
,,,,,V1_037,19,Female,2024-05-23_15h34.25.755,jersey_experiment_5_v1,2023.2.2,Win32,85.47008546,,,,,,,,,,,,,,,,762.4564,764.2565,764.2566,766.1271,return,0.0637,,64.84375,,,,,,FBP-OG-71.png,0.37,1.2,32,1,,,,,,,,,,,,,,,,,,0,29,29,31,1,,,,,,,,,,,,,,,,,,,,,,,
,,,,,V1_037,19,Female,2024-05-23_15h34.25.755,jersey_experiment_5_v1,2023.2.2,Win32,85.47008546,,,,,,,,,,,,,,,,766.1272,767.9273,767.9274,769.7742,return,1.0194,,81.25,,,,,,FBP-OG-71.png,0.45,1.2,35,1,,,,,,,,,,,,,,,,,,0,30,30,34,1,,,,,,,,,,,,,,,,,,,,,,,
,,,,,V1_037,19,Female,2024-05-23_15h34.25.755,jersey_experiment_5_v1,2023.2.2,Win32,85.47008546,,,,,,,,,,,,,,,,769.7743,771.5744,771.5744,772.1273,return,0.1008,,84.24479167,,,,,,FBP-RB-18.png,0.45,1.2,55,1,,,,,,,,,,,,,,,,,,0,31,31,54,1,,,,,,,,,,,,,,,,,,,,,,,
,,,,,V1_037,19,Female,2024-05-23_15h34.25.755,jersey_experiment_5_v1,2023.2.2,Win32,85.47008546,,,,,,,,,,,,,,,,772.1274,773.9276,773.9276,774.4803,return,0.0853,,72.39583333,,,,,,FBP-RB-17.png,0.4,1.2,48,1,,,,,,,,,,,,,,,,,,0,32,32,47,1,,,,,,,,,,,,,,,,,,,,,,,
,,,,,V1_037,19,Female,2024-05-23_15h34.25.755,jersey_experiment_5_v1,2023.2.2,Win32,85.47008546,,,,,,,,,,,,,,,,774.4804,775.7744,775.7744,777.5275,return,0.0224,,74.21875,,,,,,FBP-PT-19.png,0.43,1.2,14,0.5,,,,,,,,,,,,,,,,,,0,33,33,13,1,,,,,,,,,,,,,,,,,,,,,,,
,,,,,V1_037,19,Female,2024-05-23_15h34.25.755,jersey_experiment_5_v1,2023.2.2,Win32,85.47008546,,,,,,,,,,,,,,,,777.5277,779.3275,779.3275,780.2923,return,0.1193,,63.54166667,,,,,,FBP-RB-18.png,0.4,1.2,53,1,,,,,,,,,,,,,,,,,,0,34,34,52,1,,,,,,,,,,,,,,,,,,,,,,,
,,,,,V1_037,19,Female,2024-05-23_15h34.25.755,jersey_experiment_5_v1,2023.2.2,Win32,85.47008546,,,,,,,,,,,,,,,,780.2925,781.5866,781.5867,782.2688,return,0.0895,,54.81770833,,,,,,FBP-PT-17.png,0.37,1.2,2,0.5,,,,,,,,,,,,,,,,,,0,35,35,1,1,,,,,,,,,,,,,,,,,,,,,,,
,,,,,V1_037,19,Female,2024-05-23_15h34.25.755,jersey_experiment_5_v1,2023.2.2,Win32,85.47008546,,,,,,,,,,,,,,,,782.269,783.563,783.563,784.3043,return,0.0643,,66.92708333,,,,,,FBP-PT-18.png,0.43,1.2,9,0.5,,,,,,,,,,,,,,,,,,0,36,36,8,1,,,,,,,,,,,,,,,,,,,,,,,
,,,,,V1_037,19,Female,2024-05-23_15h34.25.755,jersey_experiment_5_v1,2023.2.2,Win32,85.47008546,,,,,,,,,,,,,,,,784.3045,786.1044,786.1044,786.8337,return,0.1552,,74.73958333,,,,,,FBP-YG-71.png,0.45,1.2,20,1,,,,,,,,,,,,,,,,,,0,37,37,19,1,,,,,,,,,,,,,,,,,,,,,,,
,,,,,V1_037,19,Female,2024-05-23_15h34.25.755,jersey_experiment_5_v1,2023.2.2,Win32,85.47008546,,,,,,,,,,,,,,,,786.8338,788.6338,788.6339,789.7632,return,0.0616,,73.046875,,,,,,FBP-OG-71.png,0.43,1.2,34,1,,,,,,,,,,,,,,,,,,0,38,38,33,1,,,,,,,,,,,,,,,,,,,,,,,
,,,,,V1_037,19,Female,2024-05-23_15h34.25.755,jersey_experiment_5_v1,2023.2.2,Win32,85.47008546,,,,,,,,,,,,,,,,789.7634,791.5632,791.5633,794.2576,return,0.1104,,66.27604167,,,,,,FBP-YG-71.png,0.4,1.2,18,1,,,,,,,,,,,,,,,,,,0,39,39,17,1,,,,,,,,,,,,,,,,,,,,,,,
,,,,,V1_037,19,Female,2024-05-23_15h34.25.755,jersey_experiment_5_v1,2023.2.2,Win32,85.47008546,,,,,,,,,,,,,,,,794.2578,796.0576,796.0576,796.5752,return,0.1104,,70.18229167,,,,,,FBP-YG-91.png,0.43,1.2,29,1,,,,,,,,,,,,,,,,,,0,40,40,28,1,,,,,,,,,,,,,,,,,,,,,,,
,,,,,V1_037,19,Female,2024-05-23_15h34.25.755,jersey_experiment_5_v1,2023.2.2,Win32,85.47008546,,,,,,,,,,,,,,,,796.5754,798.3753,798.3754,799.0694,return,0.0418,,67.96875,,,,,,FBP-RB-19.png,0.37,1.2,57,1,,,,,,,,,,,,,,,,,,0,41,41,56,1,,,,,,,,,,,,,,,,,,,,,,,
,,,,,V1_037,19,Female,2024-05-23_15h34.25.755,jersey_experiment_5_v1,2023.2.2,Win32,85.47008546,,,,,,,,,,,,,,,,799.0697,800.8694,800.8694,801.893,return,0.5046,,60.9375,,,,,,FBP-RB-17.png,0.35,1.2,46,1,,,,,,,,,,,,,,,,,,0,42,42,45,1,,,,,,,,,,,,,,,,,,,,,,,
,,,,,V1_037,19,Female,2024-05-23_15h34.25.755,jersey_experiment_5_v1,2023.2.2,Win32,85.47008546,,,,,,,,,,,,,,,,801.8932,803.6931,803.6931,804.8226,return,0.2835,,76.43229167,,,,,,FBP-YG-91.png,0.4,1.2,28,1,,,,,,,,,,,,,,,,,,0,43,43,27,1,,,,,,,,,,,,,,,,,,,,,,,
,,,,,V1_037,19,Female,2024-05-23_15h34.25.755,jersey_experiment_5_v1,2023.2.2,Win32,85.47008546,,,,,,,,,,,,,,,,804.8228,806.6226,806.6226,807.8461,return,0.1282,,55.59895833,,,,,,FBP-YG-81.png,0.35,1.2,21,1,,,,,,,,,,,,,,,,,,0,44,44,20,1,,,,,,,,,,,,,,,,,,,,,,,
,,,,,V1_037,19,Female,2024-05-23_15h34.25.755,jersey_experiment_5_v1,2023.2.2,Win32,85.47008546,,,,,,,,,,,,,,,,807.8462,809.6465,809.6465,810.0933,return,0.0437,,66.14583333,,,,,,FBP-YG-81.png,0.45,1.2,25,1,,,,,,,,,,,,,,,,,,0,45,45,24,1,,,,,,,,,,,,,,,,,,,,,,,
,,,,,V1_037,19,Female,2024-05-23_15h34.25.755,jersey_experiment_5_v1,2023.2.2,Win32,85.47008546,,,,,,,,,,,,,,,,810.0936,811.8934,811.8934,812.3168,return,0.0422,,42.31770833,,,,,,FBP-RB-19.png,0.35,1.2,56,1,,,,,,,,,,,,,,,,,,0,46,46,55,1,,,,,,,,,,,,,,,,,,,,,,,
,,,,,V1_037,19,Female,2024-05-23_15h34.25.755,jersey_experiment_5_v1,2023.2.2,Win32,85.47008546,,,,,,,,,,,,,,,,812.317,814.1171,814.1171,814.7876,return,0.0255,,40.10416667,,,,,,FBP-YG-81.png,0.37,1.2,22,1,,,,,,,,,,,,,,,,,,0,47,47,21,1,,,,,,,,,,,,,,,,,,,,,,,
,,,,,V1_037,19,Female,2024-05-23_15h34.25.755,jersey_experiment_5_v1,2023.2.2,Win32,85.47008546,,,,,,,,,,,,,,,,814.7877,816.0817,816.0817,817.2229,return,0.0374,,45.44270833,,,,,,FBP-PT-19.png,0.4,1.2,13,0.5,,,,,,,,,,,,,,,,,,0,48,48,12,1,,,,,,,,,,,,,,,,,,,,,,,
,,,,,V1_037,19,Female,2024-05-23_15h34.25.755,jersey_experiment_5_v1,2023.2.2,Win32,85.47008546,,,,,,,,,,,,,,,,817.2231,819.0231,819.0231,819.9526,return,0.0034,,56.25,,,,,,FBP-OG-81.png,0.45,1.2,40,1,,,,,,,,,,,,,,,,,,0,49,49,39,1,,,,,,,,,,,,,,,,,,,,,,,
,,,,,V1_037,19,Female,2024-05-23_15h34.25.755,jersey_experiment_5_v1,2023.2.2,Win32,85.47008546,,,,,,,,,,,,,,,,819.9527,821.7526,821.7526,822.9997,return,0.6125,,38.28125,,,,,,FBP-OG-91.png,0.35,1.2,41,1,,,,,,,,,,,,,,,,,,0,50,50,40,1,,,,,,,,,,,,,,,,,,,,,,,
,,,,,V1_037,19,Female,2024-05-23_15h34.25.755,jersey_experiment_5_v1,2023.2.2,Win32,85.47008546,,,,,,,,,,,,,,,,822.9999,824.7998,824.7998,825.3762,return,0.029,,66.92708333,,,,,,FBP-RB-19.png,0.4,1.2,58,1,,,,,,,,,,,,,,,,,,0,51,51,57,1,,,,,,,,,,,,,,,,,,,,,,,
,,,,,V1_037,19,Female,2024-05-23_15h34.25.755,jersey_experiment_5_v1,2023.2.2,Win32,85.47008546,,,,,,,,,,,,,,,,825.3764,826.6706,826.6706,827.5411,return,0.024,,83.85416667,,,,,,FBP-PT-18.png,0.45,1.2,10,0.5,,,,,,,,,,,,,,,,,,0,52,52,9,1,,,,,,,,,,,,,,,,,,,,,,,
,,,,,V1_037,19,Female,2024-05-23_15h34.25.755,jersey_experiment_5_v1,2023.2.2,Win32,85.47008546,,,,,,,,,,,,,,,,827.5412,828.8351,828.8351,829.6823,return,0.0033,,57.94270833,,,,,,FBP-PT-17.png,0.43,1.2,4,0.5,,,,,,,,,,,,,,,,,,0,53,53,3,1,,,,,,,,,,,,,,,,,,,,,,,
,,,,,V1_037,19,Female,2024-05-23_15h34.25.755,jersey_experiment_5_v1,2023.2.2,Win32,85.47008546,,,,,,,,,,,,,,,,829.6824,830.9765,830.9765,832.306,return,0.1804,,46.61458333,,,,,,FBP-PT-17.png,0.4,1.2,3,0.5,,,,,,,,,,,,,,,,,,0,54,54,2,1,,,,,,,,,,,,,,,,,,,,,,,
,,,,,V1_037,19,Female,2024-05-23_15h34.25.755,jersey_experiment_5_v1,2023.2.2,Win32,85.47008546,,,,,,,,,,,,,,,,832.3062,834.106,834.106,834.659,return,0.0615,,61.06770833,,,,,,FBP-OG-91.png,0.45,1.2,45,1,,,,,,,,,,,,,,,,,,0,55,55,44,1,,,,,,,,,,,,,,,,,,,,,,,
,,,,,V1_037,19,Female,2024-05-23_15h34.25.755,jersey_experiment_5_v1,2023.2.2,Win32,85.47008546,,,,,,,,,,,,,,,,834.6593,835.9532,835.9532,837.0239,return,0.029,,43.22916667,,,,,,FBP-PT-19.png,0.37,1.2,12,0.5,,,,,,,,,,,,,,,,,,0,56,56,11,1,,,,,,,,,,,,,,,,,,,,,,,
,,,,,V1_037,19,Female,2024-05-23_15h34.25.755,jersey_experiment_5_v1,2023.2.2,Win32,85.47008546,,,,,,,,,,,,,,,,837.024,838.824,838.824,839.5063,return,0.026,,67.70833333,,,,,,FBP-RB-17.png,0.45,1.2,50,1,,,,,,,,,,,,,,,,,,0,57,57,49,1,,,,,,,,,,,,,,,,,,,,,,,
,,,,,V1_037,19,Female,2024-05-23_15h34.25.755,jersey_experiment_5_v1,2023.2.2,Win32,85.47008546,,,,,,,,,,,,,,,,839.5065,841.3062,841.3062,849.2242,return,7.4252,,61.45833333,,,,,,FBP-RB-19.png,0.43,1.2,59,1,,,,,,,,,,,,,,,,,,0,58,58,58,1,,,,,,,,,,,,,,,,,,,,,,,
,,,,,V1_037,19,Female,2024-05-23_15h34.25.755,jersey_experiment_5_v1,2023.2.2,Win32,85.47008546,,,,,,,,,,,,,,,,849.229,851.0243,851.0243,852.2243,return,0.0759,,47.13541667,,,,,,FBP-OG-91.png,0.37,1.2,42,1,,,,,,,,,,,,,,,,,,0,59,59,41,1,,,,,,,,,,,,,,,,,,,,,,,
,,,,,V1_037,19,Female,2024-05-23_15h34.25.755,jersey_experiment_5_v1,2023.2.2,Win32,85.47008546,,,,,,,,,,,,,,,,,,,,,,,,,,,,,,,,,,,,,,,,,,,,,,,,,,,,,,,,852.2245,857.8131,return,5.577,,,,,,,,,,,,,,,,,,,
,,,,,V1_037,19,Female,2024-05-23_15h34.25.755,jersey_experiment_5_v1,2023.2.2,Win32,85.47008546,,,,,,,,,,,,,,,,,,,,,,,,,,,,,,,,,,,,,,,,,,,,,,,,,,,,,,,,,,,,,857.8132,862.6602,1,2.8836,return,1.9429,,,,,,,,,,,,
,,,,,V1_037,19,Female,2024-05-23_15h34.25.755,jersey_experiment_5_v1,2023.2.2,Win32,85.47008546,,,,,,,,,,,,,,,,,,,,,,,,,,,,,,,,,,,,,,,,,,,,,,,,,,,,,,,,,,,,,,,,,,,,862.6603,896.2307,The football players wore different colors and were different races.,right,28.004,,,,,,
,,,,,V1_037,19,Female,2024-05-23_15h34.25.755,jersey_experiment_5_v1,2023.2.2,Win32,85.47008546,,,,,,,,,,,,,,,,,,,,,,,,,,,,,,,,,,,,,,,,,,,,,,,,,,,,,,,,,,,,,,,,,,,,,,,,,,896.2307,900.2259,return,3.9855,