requirements.started,requirements.stopped,key_resp_3.keys,key_resp_3.rt,key_resp_3.duration,Subject ID,Age,Gender,date,expName,psychopyVersion,OS,frameRate,instructions1.started,instructions1.stopped,key_resp.keys,key_resp.rt,key_resp.duration,example.started,example.stopped,enter_2.keys,enter_2.rt,enter_2.duration,instructions2.started,instructions2.stopped,enter_3.keys,enter_3.rt,enter_3.duration,image.started,image.stopped,slider_2.started,slider_2.stopped,next.keys,next.rt,next.duration,slider.response,trial_block_1.thisRepN,trial_block_1.thisTrialN,trial_block_1.thisN,trial_block_1.thisIndex,trial_block_1.ran,Path,Width,Height,Index,Duration,trial_block_2.thisRepN,trial_block_2.thisTrialN,trial_block_2.thisN,trial_block_2.thisIndex,trial_block_2.ran,rest_break.started,rest_break.stopped,end_break.started,end_break.stopped,key_resp_5.keys,key_resp_5.rt,key_resp_5.duration,trial_block_3.thisRepN,trial_block_3.thisTrialN,trial_block_3.thisN,trial_block_3.thisIndex,trial_block_3.ran,trial_block_4.thisRepN,trial_block_4.thisTrialN,trial_block_4.thisN,trial_block_4.thisIndex,trial_block_4.ran,questions_intro.started,questions_intro.stopped,enter_12.keys,enter_12.rt,enter_12.duration,question2.started,question2.stopped,question_doingbest.response,question_doingbest.rt,enter_15.keys,enter_15.rt,enter_15.duration,pattern.started,pattern.stopped,pattern_2.text,enter_17.keys,enter_17.rt,enter_17.duration,thankyou.started,thankyou.stopped,enter_14.keys,enter_14.rt,enter_14.duration
0.0002,8.9373,return,8.9301,,V1_004,22,female,2024-04-29_14h01.36.854,jersey_experiment_5_v1,2023.2.2,Win32,84.74576271,,,,,,,,,,,,,,,,,,,,,,,,,,,,,,,,,,,,,,,,,,,,,,,,,,,,,,,,,,,,,,,,,,,,,,,,,,,,,,
,,,,,V1_004,22,female,2024-04-29_14h01.36.854,jersey_experiment_5_v1,2023.2.2,Win32,84.74576271,8.9374,15.7492,return,6.8026,,,,,,,,,,,,,,,,,,,,,,,,,,,,,,,,,,,,,,,,,,,,,,,,,,,,,,,,,,,,,,,,,,,,,,,,,,
,,,,,V1_004,22,female,2024-04-29_14h01.36.854,jersey_experiment_5_v1,2023.2.2,Win32,84.74576271,,,,,,15.7493,18.1138,return,2.3346,,,,,,,,,,,,,,,,,,,,,,,,,,,,,,,,,,,,,,,,,,,,,,,,,,,,,,,,,,,,,,,,,,,,,
,,,,,V1_004,22,female,2024-04-29_14h01.36.854,jersey_experiment_5_v1,2023.2.2,Win32,84.74576271,,,,,,,,,,,18.1139,25.526,return,7.4001,,,,,,,,,,,,,,,,,,,,,,,,,,,,,,,,,,,,,,,,,,,,,,,,,,,,,,,,,,,,,,,,
,,,,,V1_004,22,female,2024-04-29_14h01.36.854,jersey_experiment_5_v1,2023.2.2,Win32,84.74576271,,,,,,,,,,,,,,,,25.5331,26.8318,26.8319,31.526,return,1.6822,,65.75520833,0,0,0,50,1,FBP-RB-81.png,0.35,1.2,51,0.5,,,,,,,,,,,,,,,,,,,,,,,,,,,,,,,,,,,,,,,,,,,,,
,,,,,V1_004,22,female,2024-04-29_14h01.36.854,jersey_experiment_5_v1,2023.2.2,Win32,84.74576271,,,,,,,,,,,,,,,,31.5263,32.8201,32.8201,35.1613,return,0.7899,,82.421875,0,1,1,32,1,FBP-OG-17.png,0.4,1.2,33,0.5,,,,,,,,,,,,,,,,,,,,,,,,,,,,,,,,,,,,,,,,,,,,,
,,,,,V1_004,22,female,2024-04-29_14h01.36.854,jersey_experiment_5_v1,2023.2.2,Win32,84.74576271,,,,,,,,,,,,,,,,35.1614,36.9614,36.9614,38.538,return,0.6223,,81.640625,0,2,2,12,1,FBP-PT-91.png,0.4,1.2,13,1,,,,,,,,,,,,,,,,,,,,,,,,,,,,,,,,,,,,,,,,,,,,,
,,,,,V1_004,22,female,2024-04-29_14h01.36.854,jersey_experiment_5_v1,2023.2.2,Win32,84.74576271,,,,,,,,,,,,,,,,38.5382,39.832,39.8321,41.6087,return,0.6129,,96.35416667,0,3,3,19,1,FBP-YG-17.png,0.45,1.2,20,0.5,,,,,,,,,,,,,,,,,,,,,,,,,,,,,,,,,,,,,,,,,,,,,
,,,,,V1_004,22,female,2024-04-29_14h01.36.854,jersey_experiment_5_v1,2023.2.2,Win32,84.74576271,,,,,,,,,,,,,,,,41.6089,43.4088,43.4088,45.1854,return,0.5356,,83.46354167,0,4,4,0,1,FBP-PT-71.png,0.35,1.2,1,1,,,,,,,,,,,,,,,,,,,,,,,,,,,,,,,,,,,,,,,,,,,,,
,,,,,V1_004,22,female,2024-04-29_14h01.36.854,jersey_experiment_5_v1,2023.2.2,Win32,84.74576271,,,,,,,,,,,,,,,,45.1855,46.4794,46.4794,48.2914,return,0.5809,,85.80729167,0,5,5,52,1,FBP-RB-81.png,0.4,1.2,53,0.5,,,,,,,,,,,,,,,,,,,,,,,,,,,,,,,,,,,,,,,,,,,,,
,,,,,V1_004,22,female,2024-04-29_14h01.36.854,jersey_experiment_5_v1,2023.2.2,Win32,84.74576271,,,,,,,,,,,,,,,,48.2917,49.5853,49.5853,51.7149,return,0.5563,,66.53645833,0,6,6,15,1,FBP-YG-17.png,0.35,1.2,16,0.5,,,,,,,,,,,,,,,,,,,,,,,,,,,,,,,,,,,,,,,,,,,,,
,,,,,V1_004,22,female,2024-04-29_14h01.36.854,jersey_experiment_5_v1,2023.2.2,Win32,84.74576271,,,,,,,,,,,,,,,,51.7152,53.0089,53.0089,54.3385,return,0.5347,,66.53645833,0,7,7,30,1,FBP-OG-17.png,0.35,1.2,31,0.5,,,,,,,,,,,,,,,,,,,,,,,,,,,,,,,,,,,,,,,,,,,,,
,,,,,V1_004,22,female,2024-04-29_14h01.36.854,jersey_experiment_5_v1,2023.2.2,Win32,84.74576271,,,,,,,,,,,,,,,,54.3388,55.6327,55.6327,57.5385,return,0.5344,,84.50520833,0,8,8,18,1,FBP-YG-17.png,0.43,1.2,19,0.5,,,,,,,,,,,,,,,,,,,,,,,,,,,,,,,,,,,,,,,,,,,,,
,,,,,V1_004,22,female,2024-04-29_14h01.36.854,jersey_experiment_5_v1,2023.2.2,Win32,84.74576271,,,,,,,,,,,,,,,,57.5388,58.8328,58.8329,59.8916,return,0.4962,,84.50520833,0,9,9,58,1,FBP-RB-91.png,0.43,1.2,59,0.5,,,,,,,,,,,,,,,,,,,,,,,,,,,,,,,,,,,,,,,,,,,,,
,,,,,V1_004,22,female,2024-04-29_14h01.36.854,jersey_experiment_5_v1,2023.2.2,Win32,84.74576271,,,,,,,,,,,,,,,,59.8918,61.1858,61.1858,62.6801,return,0.5052,,69.53125,0,10,10,31,1,FBP-OG-17.png,0.37,1.2,32,0.5,,,,,,,,,,,,,,,,,,,,,,,,,,,,,,,,,,,,,,,,,,,,,
,,,,,V1_004,22,female,2024-04-29_14h01.36.854,jersey_experiment_5_v1,2023.2.2,Win32,84.74576271,,,,,,,,,,,,,,,,62.6803,64.4802,64.4802,65.7625,return,0.6169,,79.296875,0,11,11,3,1,FBP-PT-71.png,0.43,1.2,4,1,,,,,,,,,,,,,,,,,,,,,,,,,,,,,,,,,,,,,,,,,,,,,
,,,,,V1_004,22,female,2024-04-29_14h01.36.854,jersey_experiment_5_v1,2023.2.2,Win32,84.74576271,,,,,,,,,,,,,,,,65.7628,67.0565,67.0566,68.586,return,0.574,,90.36458333,0,12,12,24,1,FBP-YG-18.png,0.45,1.2,25,0.5,,,,,,,,,,,,,,,,,,,,,,,,,,,,,,,,,,,,,,,,,,,,,
,,,,,V1_004,22,female,2024-04-29_14h01.36.854,jersey_experiment_5_v1,2023.2.2,Win32,84.74576271,,,,,,,,,,,,,,,,68.5863,69.8802,69.8802,71.4334,return,0.5414,,69.53125,0,13,13,41,1,FBP-OG-19.png,0.37,1.2,42,0.5,,,,,,,,,,,,,,,,,,,,,,,,,,,,,,,,,,,,,,,,,,,,,
,,,,,V1_004,22,female,2024-04-29_14h01.36.854,jersey_experiment_5_v1,2023.2.2,Win32,84.74576271,,,,,,,,,,,,,,,,71.4336,72.7274,72.7274,74.1159,return,0.532,,78.38541667,0,14,14,26,1,FBP-YG-19.png,0.37,1.2,27,0.5,,,,,,,,,,,,,,,,,,,,,,,,,,,,,,,,,,,,,,,,,,,,,
,,,,,V1_004,22,female,2024-04-29_14h01.36.854,jersey_experiment_5_v1,2023.2.2,Win32,84.74576271,,,,,,,,,,,,,,,,74.1161,75.916,75.916,77.104,return,0.5122,,91.015625,0,15,15,9,1,FBP-PT-81.png,0.45,1.2,10,1,,,,,,,,,,,,,,,,,,,,,,,,,,,,,,,,,,,,,,,,,,,,,
,,,,,V1_004,22,female,2024-04-29_14h01.36.854,jersey_experiment_5_v1,2023.2.2,Win32,84.74576271,,,,,,,,,,,,,,,,77.1043,78.9043,78.9043,80.2804,return,0.5181,,73.046875,0,16,16,6,1,FBP-PT-81.png,0.37,1.2,7,1,,,,,,,,,,,,,,,,,,,,,,,,,,,,,,,,,,,,,,,,,,,,,
,,,,,V1_004,22,female,2024-04-29_14h01.36.854,jersey_experiment_5_v1,2023.2.2,Win32,84.74576271,,,,,,,,,,,,,,,,80.2806,82.0805,82.0806,83.7159,return,0.5452,,89.0625,0,17,17,13,1,FBP-PT-91.png,0.43,1.2,14,1,,,,,,,,,,,,,,,,,,,,,,,,,,,,,,,,,,,,,,,,,,,,,
,,,,,V1_004,22,female,2024-04-29_14h01.36.854,jersey_experiment_5_v1,2023.2.2,Win32,84.74576271,,,,,,,,,,,,,,,,83.7162,85.5164,85.5164,86.8808,return,0.7009,,64.32291667,0,18,18,11,1,FBP-PT-91.png,0.37,1.2,12,1,,,,,,,,,,,,,,,,,,,,,,,,,,,,,,,,,,,,,,,,,,,,,
,,,,,V1_004,22,female,2024-04-29_14h01.36.854,jersey_experiment_5_v1,2023.2.2,Win32,84.74576271,,,,,,,,,,,,,,,,86.8811,88.1749,88.175,89.434,return,0.6353,,63.02083333,0,19,19,25,1,FBP-YG-19.png,0.35,1.2,26,0.5,,,,,,,,,,,,,,,,,,,,,,,,,,,,,,,,,,,,,,,,,,,,,
,,,,,V1_004,22,female,2024-04-29_14h01.36.854,jersey_experiment_5_v1,2023.2.2,Win32,84.74576271,,,,,,,,,,,,,,,,89.4342,90.728,90.728,92.0692,return,0.5671,,81.77083333,0,20,20,23,1,FBP-YG-18.png,0.43,1.2,24,0.5,,,,,,,,,,,,,,,,,,,,,,,,,,,,,,,,,,,,,,,,,,,,,
,,,,,V1_004,22,female,2024-04-29_14h01.36.854,jersey_experiment_5_v1,2023.2.2,Win32,84.74576271,,,,,,,,,,,,,,,,92.0695,93.3633,93.3634,94.6104,return,0.5701,,81.640625,0,21,21,38,1,FBP-OG-18.png,0.43,1.2,39,0.5,,,,,,,,,,,,,,,,,,,,,,,,,,,,,,,,,,,,,,,,,,,,,
,,,,,V1_004,22,female,2024-04-29_14h01.36.854,jersey_experiment_5_v1,2023.2.2,Win32,84.74576271,,,,,,,,,,,,,,,,94.6107,95.9046,95.9046,97.5987,return,0.4792,,67.1875,0,22,22,57,1,FBP-RB-91.png,0.4,1.2,58,0.5,,,,,,,,,,,,,,,,,,,,,,,,,,,,,,,,,,,,,,,,,,,,,
,,,,,V1_004,22,female,2024-04-29_14h01.36.854,jersey_experiment_5_v1,2023.2.2,Win32,84.74576271,,,,,,,,,,,,,,,,97.5989,98.893,98.893,100.152,return,0.4959,,83.85416667,0,23,23,44,1,FBP-OG-19.png,0.45,1.2,45,0.5,,,,,,,,,,,,,,,,,,,,,,,,,,,,,,,,,,,,,,,,,,,,,
,,,,,V1_004,22,female,2024-04-29_14h01.36.854,jersey_experiment_5_v1,2023.2.2,Win32,84.74576271,,,,,,,,,,,,,,,,100.1522,101.4461,101.4461,102.6931,return,0.5558,,83.33333333,0,24,24,28,1,FBP-YG-19.png,0.43,1.2,29,0.5,,,,,,,,,,,,,,,,,,,,,,,,,,,,,,,,,,,,,,,,,,,,,
,,,,,V1_004,22,female,2024-04-29_14h01.36.854,jersey_experiment_5_v1,2023.2.2,Win32,84.74576271,,,,,,,,,,,,,,,,102.6932,103.9873,103.9873,105.7286,return,0.4762,,92.578125,0,25,25,49,1,FBP-RB-71.png,0.45,1.2,50,0.5,,,,,,,,,,,,,,,,,,,,,,,,,,,,,,,,,,,,,,,,,,,,,
,,,,,V1_004,22,female,2024-04-29_14h01.36.854,jersey_experiment_5_v1,2023.2.2,Win32,84.74576271,,,,,,,,,,,,,,,,105.7288,107.0227,107.0228,108.6817,return,0.588,,81.640625,0,26,26,27,1,FBP-YG-19.png,0.4,1.2,28,0.5,,,,,,,,,,,,,,,,,,,,,,,,,,,,,,,,,,,,,,,,,,,,,
,,,,,V1_004,22,female,2024-04-29_14h01.36.854,jersey_experiment_5_v1,2023.2.2,Win32,84.74576271,,,,,,,,,,,,,,,,108.6818,109.9757,109.9757,111.7641,return,0.5323,,87.5,0,27,27,42,1,FBP-OG-19.png,0.4,1.2,43,0.5,,,,,,,,,,,,,,,,,,,,,,,,,,,,,,,,,,,,,,,,,,,,,
,,,,,V1_004,22,female,2024-04-29_14h01.36.854,jersey_experiment_5_v1,2023.2.2,Win32,84.74576271,,,,,,,,,,,,,,,,111.7644,113.0582,113.0582,115.0229,return,0.5721,,60.15625,0,28,28,16,1,FBP-YG-17.png,0.37,1.2,17,0.5,,,,,,,,,,,,,,,,,,,,,,,,,,,,,,,,,,,,,,,,,,,,,
,,,,,V1_004,22,female,2024-04-29_14h01.36.854,jersey_experiment_5_v1,2023.2.2,Win32,84.74576271,,,,,,,,,,,,,,,,115.0232,116.3173,116.3173,118.1643,return,0.5681,,71.09375,0,29,29,22,1,FBP-YG-18.png,0.4,1.2,23,0.5,,,,,,,,,,,,,,,,,,,,,,,,,,,,,,,,,,,,,,,,,,,,,
,,,,,V1_004,22,female,2024-04-29_14h01.36.854,jersey_experiment_5_v1,2023.2.2,Win32,84.74576271,,,,,,,,,,,,,,,,118.1645,119.4585,119.4585,121.6703,return,1.0236,,33.72395833,0,30,30,55,1,FBP-RB-91.png,0.35,1.2,56,0.5,,,,,,,,,,,,,,,,,,,,,,,,,,,,,,,,,,,,,,,,,,,,,
,,,,,V1_004,22,female,2024-04-29_14h01.36.854,jersey_experiment_5_v1,2023.2.2,Win32,84.74576271,,,,,,,,,,,,,,,,121.6706,122.9644,122.9644,124.5527,return,0.5404,,61.58854167,0,31,31,47,1,FBP-RB-71.png,0.4,1.2,48,0.5,,,,,,,,,,,,,,,,,,,,,,,,,,,,,,,,,,,,,,,,,,,,,
,,,,,V1_004,22,female,2024-04-29_14h01.36.854,jersey_experiment_5_v1,2023.2.2,Win32,84.74576271,,,,,,,,,,,,,,,,124.5529,125.8469,125.8469,127.4588,return,0.452,,45.05208333,0,32,32,21,1,FBP-YG-18.png,0.37,1.2,22,0.5,,,,,,,,,,,,,,,,,,,,,,,,,,,,,,,,,,,,,,,,,,,,,
,,,,,V1_004,22,female,2024-04-29_14h01.36.854,jersey_experiment_5_v1,2023.2.2,Win32,84.74576271,,,,,,,,,,,,,,,,127.4589,129.2589,129.2589,130.3059,return,0.5236,,84.50520833,0,33,33,4,1,FBP-PT-71.png,0.45,1.2,5,1,,,,,,,,,,,,,,,,,,,,,,,,,,,,,,,,,,,,,,,,,,,,,
,,,,,V1_004,22,female,2024-04-29_14h01.36.854,jersey_experiment_5_v1,2023.2.2,Win32,84.74576271,,,,,,,,,,,,,,,,130.3061,131.6,131.6,133.247,return,0.5123,,66.92708333,0,34,34,46,1,FBP-RB-71.png,0.37,1.2,47,0.5,,,,,,,,,,,,,,,,,,,,,,,,,,,,,,,,,,,,,,,,,,,,,
,,,,,V1_004,22,female,2024-04-29_14h01.36.854,jersey_experiment_5_v1,2023.2.2,Win32,84.74576271,,,,,,,,,,,,,,,,133.2473,134.5414,134.5415,135.7063,return,0.5078,,80.859375,0,35,35,34,1,FBP-OG-17.png,0.45,1.2,35,0.5,,,,,,,,,,,,,,,,,,,,,,,,,,,,,,,,,,,,,,,,,,,,,
,,,,,V1_004,22,female,2024-04-29_14h01.36.854,jersey_experiment_5_v1,2023.2.2,Win32,84.74576271,,,,,,,,,,,,,,,,135.7066,137.0003,137.0003,138.3298,return,0.527,,88.28125,0,36,36,59,1,FBP-RB-91.png,0.45,1.2,60,0.5,,,,,,,,,,,,,,,,,,,,,,,,,,,,,,,,,,,,,,,,,,,,,
,,,,,V1_004,22,female,2024-04-29_14h01.36.854,jersey_experiment_5_v1,2023.2.2,Win32,84.74576271,,,,,,,,,,,,,,,,138.33,139.6238,139.6238,141.4005,return,0.4611,,66.40625,0,37,37,48,1,FBP-RB-71.png,0.43,1.2,49,0.5,,,,,,,,,,,,,,,,,,,,,,,,,,,,,,,,,,,,,,,,,,,,,
,,,,,V1_004,22,female,2024-04-29_14h01.36.854,jersey_experiment_5_v1,2023.2.2,Win32,84.74576271,,,,,,,,,,,,,,,,141.4007,142.6946,142.6946,144.6123,return,0.4503,,40.49479167,0,38,38,51,1,FBP-RB-81.png,0.37,1.2,52,0.5,,,,,,,,,,,,,,,,,,,,,,,,,,,,,,,,,,,,,,,,,,,,,
,,,,,V1_004,22,female,2024-04-29_14h01.36.854,jersey_experiment_5_v1,2023.2.2,Win32,84.74576271,,,,,,,,,,,,,,,,144.6125,145.9065,145.9065,148.4242,return,0.4712,,82.68229167,0,39,39,39,1,FBP-OG-18.png,0.45,1.2,40,0.5,,,,,,,,,,,,,,,,,,,,,,,,,,,,,,,,,,,,,,,,,,,,,
,,,,,V1_004,22,female,2024-04-29_14h01.36.854,jersey_experiment_5_v1,2023.2.2,Win32,84.74576271,,,,,,,,,,,,,,,,148.4244,150.2247,150.2247,151.248,return,0.5358,,60.15625,0,40,40,8,1,FBP-PT-81.png,0.43,1.2,9,1,,,,,,,,,,,,,,,,,,,,,,,,,,,,,,,,,,,,,,,,,,,,,
,,,,,V1_004,22,female,2024-04-29_14h01.36.854,jersey_experiment_5_v1,2023.2.2,Win32,84.74576271,,,,,,,,,,,,,,,,151.2482,152.5419,152.542,153.9892,return,0.5319,,35.41666667,0,41,41,45,1,FBP-RB-71.png,0.35,1.2,46,0.5,,,,,,,,,,,,,,,,,,,,,,,,,,,,,,,,,,,,,,,,,,,,,
,,,,,V1_004,22,female,2024-04-29_14h01.36.854,jersey_experiment_5_v1,2023.2.2,Win32,84.74576271,,,,,,,,,,,,,,,,153.9895,155.7893,155.7893,157.2012,return,0.548,,83.203125,0,42,42,14,1,FBP-PT-91.png,0.45,1.2,15,1,,,,,,,,,,,,,,,,,,,,,,,,,,,,,,,,,,,,,,,,,,,,,
,,,,,V1_004,22,female,2024-04-29_14h01.36.854,jersey_experiment_5_v1,2023.2.2,Win32,84.74576271,,,,,,,,,,,,,,,,157.2014,158.4951,158.4952,159.9305,return,0.4941,,37.36979167,0,43,43,40,1,FBP-OG-19.png,0.35,1.2,41,0.5,,,,,,,,,,,,,,,,,,,,,,,,,,,,,,,,,,,,,,,,,,,,,
,,,,,V1_004,22,female,2024-04-29_14h01.36.854,jersey_experiment_5_v1,2023.2.2,Win32,84.74576271,,,,,,,,,,,,,,,,159.9308,161.2245,161.2246,162.6599,return,0.5306,,67.96875,0,44,44,37,1,FBP-OG-18.png,0.4,1.2,38,0.5,,,,,,,,,,,,,,,,,,,,,,,,,,,,,,,,,,,,,,,,,,,,,
,,,,,V1_004,22,female,2024-04-29_14h01.36.854,jersey_experiment_5_v1,2023.2.2,Win32,84.74576271,,,,,,,,,,,,,,,,162.6601,163.9542,163.9542,165.4013,return,0.4954,,89.58333333,0,45,45,54,1,FBP-RB-81.png,0.45,1.2,55,0.5,,,,,,,,,,,,,,,,,,,,,,,,,,,,,,,,,,,,,,,,,,,,,
,,,,,V1_004,22,female,2024-04-29_14h01.36.854,jersey_experiment_5_v1,2023.2.2,Win32,84.74576271,,,,,,,,,,,,,,,,165.4016,166.6955,166.6955,167.8131,return,0.4826,,67.83854167,0,46,46,33,1,FBP-OG-17.png,0.43,1.2,34,0.5,,,,,,,,,,,,,,,,,,,,,,,,,,,,,,,,,,,,,,,,,,,,,
,,,,,V1_004,22,female,2024-04-29_14h01.36.854,jersey_experiment_5_v1,2023.2.2,Win32,84.74576271,,,,,,,,,,,,,,,,167.8132,169.1073,169.1073,170.519,return,0.518,,33.203125,0,47,47,20,1,FBP-YG-18.png,0.35,1.2,21,0.5,,,,,,,,,,,,,,,,,,,,,,,,,,,,,,,,,,,,,,,,,,,,,
,,,,,V1_004,22,female,2024-04-29_14h01.36.854,jersey_experiment_5_v1,2023.2.2,Win32,84.74576271,,,,,,,,,,,,,,,,170.5193,172.3192,172.3193,173.2485,return,0.4776,,32.8125,0,48,48,10,1,FBP-PT-91.png,0.35,1.2,11,1,,,,,,,,,,,,,,,,,,,,,,,,,,,,,,,,,,,,,,,,,,,,,
,,,,,V1_004,22,female,2024-04-29_14h01.36.854,jersey_experiment_5_v1,2023.2.2,Win32,84.74576271,,,,,,,,,,,,,,,,173.2488,175.0486,175.0486,175.8958,return,0.4947,,32.68229167,0,49,49,1,1,FBP-PT-71.png,0.37,1.2,2,1,,,,,,,,,,,,,,,,,,,,,,,,,,,,,,,,,,,,,,,,,,,,,
,,,,,V1_004,22,female,2024-04-29_14h01.36.854,jersey_experiment_5_v1,2023.2.2,Win32,84.74576271,,,,,,,,,,,,,,,,175.896,177.19,177.19,178.0841,return,0.5095,,32.68229167,0,50,50,56,1,FBP-RB-91.png,0.37,1.2,57,0.5,,,,,,,,,,,,,,,,,,,,,,,,,,,,,,,,,,,,,,,,,,,,,
,,,,,V1_004,22,female,2024-04-29_14h01.36.854,jersey_experiment_5_v1,2023.2.2,Win32,84.74576271,,,,,,,,,,,,,,,,178.0843,179.3782,179.3784,181.0725,return,0.5605,,86.58854167,0,51,51,29,1,FBP-YG-19.png,0.45,1.2,30,0.5,,,,,,,,,,,,,,,,,,,,,,,,,,,,,,,,,,,,,,,,,,,,,
,,,,,V1_004,22,female,2024-04-29_14h01.36.854,jersey_experiment_5_v1,2023.2.2,Win32,84.74576271,,,,,,,,,,,,,,,,181.0727,182.3665,182.3666,183.3197,return,0.4805,,85.9375,0,52,52,53,1,FBP-RB-81.png,0.43,1.2,54,0.5,,,,,,,,,,,,,,,,,,,,,,,,,,,,,,,,,,,,,,,,,,,,,
,,,,,V1_004,22,female,2024-04-29_14h01.36.854,jersey_experiment_5_v1,2023.2.2,Win32,84.74576271,,,,,,,,,,,,,,,,183.3199,184.6138,184.6138,185.8021,return,0.729,,85.28645833,0,53,53,43,1,FBP-OG-19.png,0.43,1.2,44,0.5,,,,,,,,,,,,,,,,,,,,,,,,,,,,,,,,,,,,,,,,,,,,,
,,,,,V1_004,22,female,2024-04-29_14h01.36.854,jersey_experiment_5_v1,2023.2.2,Win32,84.74576271,,,,,,,,,,,,,,,,185.8023,187.0964,187.0964,188.6256,return,0.9592,,59.89583333,0,54,54,35,1,FBP-OG-18.png,0.35,1.2,36,0.5,,,,,,,,,,,,,,,,,,,,,,,,,,,,,,,,,,,,,,,,,,,,,
,,,,,V1_004,22,female,2024-04-29_14h01.36.854,jersey_experiment_5_v1,2023.2.2,Win32,84.74576271,,,,,,,,,,,,,,,,188.6259,189.9199,189.9199,191.1905,return,0.8472,,54.94791667,0,55,55,17,1,FBP-YG-17.png,0.4,1.2,18,0.5,,,,,,,,,,,,,,,,,,,,,,,,,,,,,,,,,,,,,,,,,,,,,
,,,,,V1_004,22,female,2024-04-29_14h01.36.854,jersey_experiment_5_v1,2023.2.2,Win32,84.74576271,,,,,,,,,,,,,,,,191.1907,192.9904,192.9905,194.1671,return,0.7876,,54.94791667,0,56,56,7,1,FBP-PT-81.png,0.4,1.2,8,1,,,,,,,,,,,,,,,,,,,,,,,,,,,,,,,,,,,,,,,,,,,,,
,,,,,V1_004,22,female,2024-04-29_14h01.36.854,jersey_experiment_5_v1,2023.2.2,Win32,84.74576271,,,,,,,,,,,,,,,,194.1674,195.4611,195.4611,196.4847,return,0.5326,,54.94791667,0,57,57,36,1,FBP-OG-18.png,0.37,1.2,37,0.5,,,,,,,,,,,,,,,,,,,,,,,,,,,,,,,,,,,,,,,,,,,,,
,,,,,V1_004,22,female,2024-04-29_14h01.36.854,jersey_experiment_5_v1,2023.2.2,Win32,84.74576271,,,,,,,,,,,,,,,,196.4849,198.2848,198.2848,199.1439,return,0.4602,,32.55208333,0,58,58,5,1,FBP-PT-81.png,0.35,1.2,6,1,,,,,,,,,,,,,,,,,,,,,,,,,,,,,,,,,,,,,,,,,,,,,
,,,,,V1_004,22,female,2024-04-29_14h01.36.854,jersey_experiment_5_v1,2023.2.2,Win32,84.74576271,,,,,,,,,,,,,,,,199.1441,200.9438,200.9438,202.2733,return,0.6298,,70.3125,0,59,59,2,1,FBP-PT-71.png,0.4,1.2,3,1,,,,,,,,,,,,,,,,,,,,,,,,,,,,,,,,,,,,,,,,,,,,,
,,,,,V1_004,22,female,2024-04-29_14h01.36.854,jersey_experiment_5_v1,2023.2.2,Win32,84.74576271,,,,,,,,,,,,,,,,202.275,203.5674,203.5675,206.4383,return,0.5317,,54.296875,,,,,,FBP-RB-19.png,0.37,1.2,57,0.5,0,0,0,56,1,,,,,,,,,,,,,,,,,,,,,,,,,,,,,,,,,,,,,,,,
,,,,,V1_004,22,female,2024-04-29_14h01.36.854,jersey_experiment_5_v1,2023.2.2,Win32,84.74576271,,,,,,,,,,,,,,,,206.4388,207.7322,207.7322,209.3677,return,0.5521,,83.984375,,,,,,FBP-YG-71.png,0.45,1.2,20,0.5,0,1,1,19,1,,,,,,,,,,,,,,,,,,,,,,,,,,,,,,,,,,,,,,,,
,,,,,V1_004,22,female,2024-04-29_14h01.36.854,jersey_experiment_5_v1,2023.2.2,Win32,84.74576271,,,,,,,,,,,,,,,,209.368,210.6616,210.6616,211.7676,return,0.481,,60.546875,,,,,,FBP-RB-19.png,0.35,1.2,56,0.5,0,2,2,55,1,,,,,,,,,,,,,,,,,,,,,,,,,,,,,,,,,,,,,,,,
,,,,,V1_004,22,female,2024-04-29_14h01.36.854,jersey_experiment_5_v1,2023.2.2,Win32,84.74576271,,,,,,,,,,,,,,,,211.7678,213.0618,213.0618,215.109,return,0.5073,,65.234375,,,,,,FBP-YG-71.png,0.37,1.2,17,0.5,0,3,3,16,1,,,,,,,,,,,,,,,,,,,,,,,,,,,,,,,,,,,,,,,,
,,,,,V1_004,22,female,2024-04-29_14h01.36.854,jersey_experiment_5_v1,2023.2.2,Win32,84.74576271,,,,,,,,,,,,,,,,215.1092,216.4031,216.4031,217.7913,return,0.5364,,81.51041667,,,,,,FBP-RB-19.png,0.4,1.2,58,0.5,0,4,4,57,1,,,,,,,,,,,,,,,,,,,,,,,,,,,,,,,,,,,,,,,,
,,,,,V1_004,22,female,2024-04-29_14h01.36.854,jersey_experiment_5_v1,2023.2.2,Win32,84.74576271,,,,,,,,,,,,,,,,217.7915,219.0855,219.0856,220.8385,return,0.7063,,54.296875,,,,,,FBP-YG-91.png,0.37,1.2,27,0.5,0,5,5,26,1,,,,,,,,,,,,,,,,,,,,,,,,,,,,,,,,,,,,,,,,
,,,,,V1_004,22,female,2024-04-29_14h01.36.854,jersey_experiment_5_v1,2023.2.2,Win32,84.74576271,,,,,,,,,,,,,,,,220.8387,222.6387,222.6387,224.0151,return,0.5722,,92.83854167,,,,,,FBP-PT-17.png,0.45,1.2,5,1,0,6,6,4,1,,,,,,,,,,,,,,,,,,,,,,,,,,,,,,,,,,,,,,,,
,,,,,V1_004,22,female,2024-04-29_14h01.36.854,jersey_experiment_5_v1,2023.2.2,Win32,84.74576271,,,,,,,,,,,,,,,,224.0154,225.3094,225.3095,226.874,return,0.4944,,53.25520833,,,,,,FBP-YG-81.png,0.37,1.2,22,0.5,0,7,7,21,1,,,,,,,,,,,,,,,,,,,,,,,,,,,,,,,,,,,,,,,,
,,,,,V1_004,22,female,2024-04-29_14h01.36.854,jersey_experiment_5_v1,2023.2.2,Win32,84.74576271,,,,,,,,,,,,,,,,226.8742,228.1682,228.1682,229.4388,return,0.5135,,81.77083333,,,,,,FBP-YG-91.png,0.45,1.2,30,0.5,0,8,8,29,1,,,,,,,,,,,,,,,,,,,,,,,,,,,,,,,,,,,,,,,,
,,,,,V1_004,22,female,2024-04-29_14h01.36.854,jersey_experiment_5_v1,2023.2.2,Win32,84.74576271,,,,,,,,,,,,,,,,229.439,230.7331,230.7331,232.2624,return,0.4721,,66.66666667,,,,,,FBP-RB-17.png,0.4,1.2,48,0.5,0,9,9,47,1,,,,,,,,,,,,,,,,,,,,,,,,,,,,,,,,,,,,,,,,
,,,,,V1_004,22,female,2024-04-29_14h01.36.854,jersey_experiment_5_v1,2023.2.2,Win32,84.74576271,,,,,,,,,,,,,,,,232.2627,234.0629,234.0629,235.5566,return,0.507,,44.53125,,,,,,FBP-PT-18.png,0.37,1.2,7,1,0,10,10,6,1,,,,,,,,,,,,,,,,,,,,,,,,,,,,,,,,,,,,,,,,
,,,,,V1_004,22,female,2024-04-29_14h01.36.854,jersey_experiment_5_v1,2023.2.2,Win32,84.74576271,,,,,,,,,,,,,,,,235.5568,236.8509,236.8509,240.1688,return,0.8102,,46.35416667,,,,,,FBP-YG-81.png,0.35,1.2,21,0.5,0,11,11,20,1,,,,,,,,,,,,,,,,,,,,,,,,,,,,,,,,,,,,,,,,
,,,,,V1_004,22,female,2024-04-29_14h01.36.854,jersey_experiment_5_v1,2023.2.2,Win32,84.74576271,,,,,,,,,,,,,,,,240.169,241.9689,241.9689,243.0158,return,0.4815,,36.45833333,,,,,,FBP-PT-19.png,0.35,1.2,11,1,0,12,12,10,1,,,,,,,,,,,,,,,,,,,,,,,,,,,,,,,,,,,,,,,,
,,,,,V1_004,22,female,2024-04-29_14h01.36.854,jersey_experiment_5_v1,2023.2.2,Win32,84.74576271,,,,,,,,,,,,,,,,243.016,244.31,244.31,245.863,return,0.6222,,37.109375,,,,,,FBP-YG-91.png,0.4,1.2,28,0.5,0,13,13,27,1,,,,,,,,,,,,,,,,,,,,,,,,,,,,,,,,,,,,,,,,
,,,,,V1_004,22,female,2024-04-29_14h01.36.854,jersey_experiment_5_v1,2023.2.2,Win32,84.74576271,,,,,,,,,,,,,,,,245.8632,247.1572,247.1572,248.4397,return,0.508,,60.67708333,,,,,,FBP-RB-18.png,0.37,1.2,52,0.5,0,14,14,51,1,,,,,,,,,,,,,,,,,,,,,,,,,,,,,,,,,,,,,,,,
,,,,,V1_004,22,female,2024-04-29_14h01.36.854,jersey_experiment_5_v1,2023.2.2,Win32,84.74576271,,,,,,,,,,,,,,,,248.4399,249.7338,249.7338,250.8514,return,0.4514,,60.67708333,,,,,,FBP-OG-81.png,0.35,1.2,36,0.5,0,15,15,35,1,,,,,,,,,,,,,,,,,,,,,,,,,,,,,,,,,,,,,,,,
,,,,,V1_004,22,female,2024-04-29_14h01.36.854,jersey_experiment_5_v1,2023.2.2,Win32,84.74576271,,,,,,,,,,,,,,,,250.8517,252.1456,252.1456,253.381,return,0.4851,,83.59375,,,,,,FBP-OG-71.png,0.45,1.2,35,0.5,0,16,16,34,1,,,,,,,,,,,,,,,,,,,,,,,,,,,,,,,,,,,,,,,,
,,,,,V1_004,22,female,2024-04-29_14h01.36.854,jersey_experiment_5_v1,2023.2.2,Win32,84.74576271,,,,,,,,,,,,,,,,253.3813,254.6752,254.6752,255.8282,return,0.4391,,85.02604167,,,,,,FBP-OG-71.png,0.43,1.2,34,0.5,0,17,17,33,1,,,,,,,,,,,,,,,,,,,,,,,,,,,,,,,,,,,,,,,,
,,,,,V1_004,22,female,2024-04-29_14h01.36.854,jersey_experiment_5_v1,2023.2.2,Win32,84.74576271,,,,,,,,,,,,,,,,255.8285,257.1224,257.1225,258.2399,return,0.4551,,59.765625,,,,,,FBP-RB-18.png,0.35,1.2,51,0.5,0,18,18,50,1,,,,,,,,,,,,,,,,,,,,,,,,,,,,,,,,,,,,,,,,
,,,,,V1_004,22,female,2024-04-29_14h01.36.854,jersey_experiment_5_v1,2023.2.2,Win32,84.74576271,,,,,,,,,,,,,,,,258.2402,259.534,259.5341,260.4988,return,0.4755,,58.07291667,,,,,,FBP-OG-71.png,0.35,1.2,31,0.5,0,19,19,30,1,,,,,,,,,,,,,,,,,,,,,,,,,,,,,,,,,,,,,,,,
,,,,,V1_004,22,female,2024-04-29_14h01.36.854,jersey_experiment_5_v1,2023.2.2,Win32,84.74576271,,,,,,,,,,,,,,,,260.499,262.299,262.299,263.4164,return,0.7769,,58.07291667,,,,,,FBP-PT-18.png,0.35,1.2,6,1,0,20,20,5,1,,,,,,,,,,,,,,,,,,,,,,,,,,,,,,,,,,,,,,,,
,,,,,V1_004,22,female,2024-04-29_14h01.36.854,jersey_experiment_5_v1,2023.2.2,Win32,84.74576271,,,,,,,,,,,,,,,,263.4167,264.7107,264.7108,266.3464,return,0.612,,73.828125,,,,,,FBP-OG-91.png,0.4,1.2,43,0.5,0,21,21,42,1,,,,,,,,,,,,,,,,,,,,,,,,,,,,,,,,,,,,,,,,
,,,,,V1_004,22,female,2024-04-29_14h01.36.854,jersey_experiment_5_v1,2023.2.2,Win32,84.74576271,,,,,,,,,,,,,,,,266.3467,267.6403,267.6403,269.0874,return,0.5132,,83.203125,,,,,,FBP-YG-91.png,0.43,1.2,29,0.5,0,22,22,28,1,,,,,,,,,,,,,,,,,,,,,,,,,,,,,,,,,,,,,,,,
,,,,,V1_004,22,female,2024-04-29_14h01.36.854,jersey_experiment_5_v1,2023.2.2,Win32,84.74576271,,,,,,,,,,,,,,,,269.0876,270.3815,270.3815,271.6875,return,0.4846,,91.66666667,,,,,,FBP-YG-71.png,0.43,1.2,19,0.5,0,23,23,18,1,,,,,,,,,,,,,,,,,,,,,,,,,,,,,,,,,,,,,,,,
,,,,,V1_004,22,female,2024-04-29_14h01.36.854,jersey_experiment_5_v1,2023.2.2,Win32,84.74576271,,,,,,,,,,,,,,,,271.6878,273.4876,273.4877,274.3582,return,0.4814,,92.83854167,,,,,,FBP-PT-18.png,0.45,1.2,10,1,0,24,24,9,1,,,,,,,,,,,,,,,,,,,,,,,,,,,,,,,,,,,,,,,,
,,,,,V1_004,22,female,2024-04-29_14h01.36.854,jersey_experiment_5_v1,2023.2.2,Win32,84.74576271,,,,,,,,,,,,,,,,274.3584,275.6523,275.6524,277.1936,return,0.4932,,60.02604167,,,,,,FBP-RB-17.png,0.37,1.2,47,0.5,0,25,25,46,1,,,,,,,,,,,,,,,,,,,,,,,,,,,,,,,,,,,,,,,,
,,,,,V1_004,22,female,2024-04-29_14h01.36.854,jersey_experiment_5_v1,2023.2.2,Win32,84.74576271,,,,,,,,,,,,,,,,277.194,278.4878,278.4878,279.6406,return,0.7444,,60.02604167,,,,,,FBP-YG-81.png,0.4,1.2,23,0.5,0,26,26,22,1,,,,,,,,,,,,,,,,,,,,,,,,,,,,,,,,,,,,,,,,
,,,,,V1_004,22,female,2024-04-29_14h01.36.854,jersey_experiment_5_v1,2023.2.2,Win32,84.74576271,,,,,,,,,,,,,,,,279.6408,280.935,280.935,282.0524,return,0.4975,,88.28125,,,,,,FBP-RB-19.png,0.45,1.2,60,0.5,0,27,27,59,1,,,,,,,,,,,,,,,,,,,,,,,,,,,,,,,,,,,,,,,,
,,,,,V1_004,22,female,2024-04-29_14h01.36.854,jersey_experiment_5_v1,2023.2.2,Win32,84.74576271,,,,,,,,,,,,,,,,282.0527,283.3466,283.3467,284.2643,return,0.504,,88.28125,,,,,,FBP-RB-18.png,0.4,1.2,53,0.5,0,28,28,52,1,,,,,,,,,,,,,,,,,,,,,,,,,,,,,,,,,,,,,,,,
,,,,,V1_004,22,female,2024-04-29_14h01.36.854,jersey_experiment_5_v1,2023.2.2,Win32,84.74576271,,,,,,,,,,,,,,,,284.2645,286.0646,286.0646,287.135,return,0.4418,,65.36458333,,,,,,FBP-PT-19.png,0.4,1.2,13,1,0,29,29,12,1,,,,,,,,,,,,,,,,,,,,,,,,,,,,,,,,,,,,,,,,
,,,,,V1_004,22,female,2024-04-29_14h01.36.854,jersey_experiment_5_v1,2023.2.2,Win32,84.74576271,,,,,,,,,,,,,,,,287.1351,288.9353,288.9353,289.7823,return,0.531,,65.625,,,,,,FBP-PT-18.png,0.4,1.2,8,1,0,30,30,7,1,,,,,,,,,,,,,,,,,,,,,,,,,,,,,,,,,,,,,,,,
,,,,,V1_004,22,female,2024-04-29_14h01.36.854,jersey_experiment_5_v1,2023.2.2,Win32,84.74576271,,,,,,,,,,,,,,,,289.7825,291.0763,291.0763,292.3942,return,0.5418,,84.89583333,,,,,,FBP-YG-71.png,0.4,1.2,18,0.5,0,31,31,17,1,,,,,,,,,,,,,,,,,,,,,,,,,,,,,,,,,,,,,,,,
,,,,,V1_004,22,female,2024-04-29_14h01.36.854,jersey_experiment_5_v1,2023.2.2,Win32,84.74576271,,,,,,,,,,,,,,,,292.3944,293.6883,293.6883,294.9356,return,0.4844,,59.11458333,,,,,,FBP-OG-91.png,0.37,1.2,42,0.5,0,32,32,41,1,,,,,,,,,,,,,,,,,,,,,,,,,,,,,,,,,,,,,,,,
,,,,,V1_004,22,female,2024-04-29_14h01.36.854,jersey_experiment_5_v1,2023.2.2,Win32,84.74576271,,,,,,,,,,,,,,,,294.9358,296.2295,296.2296,297.4767,return,0.4382,,82.29166667,,,,,,FBP-YG-81.png,0.43,1.2,24,0.5,0,33,33,23,1,,,,,,,,,,,,,,,,,,,,,,,,,,,,,,,,,,,,,,,,
,,,,,V1_004,22,female,2024-04-29_14h01.36.854,jersey_experiment_5_v1,2023.2.2,Win32,84.74576271,,,,,,,,,,,,,,,,297.4769,298.7709,298.7709,299.9591,return,0.5043,,65.36458333,,,,,,FBP-OG-71.png,0.37,1.2,32,0.5,0,34,34,31,1,,,,,,,,,,,,,,,,,,,,,,,,,,,,,,,,,,,,,,,,
,,,,,V1_004,22,female,2024-04-29_14h01.36.854,jersey_experiment_5_v1,2023.2.2,Win32,84.74576271,,,,,,,,,,,,,,,,299.9593,301.7591,301.7592,302.7947,return,0.4704,,66.40625,,,,,,FBP-PT-19.png,0.37,1.2,12,1,0,35,35,11,1,,,,,,,,,,,,,,,,,,,,,,,,,,,,,,,,,,,,,,,,
,,,,,V1_004,22,female,2024-04-29_14h01.36.854,jersey_experiment_5_v1,2023.2.2,Win32,84.74576271,,,,,,,,,,,,,,,,302.7949,304.0887,304.0887,305.3828,return,0.4838,,91.53645833,,,,,,FBP-YG-81.png,0.45,1.2,25,0.5,0,36,36,24,1,,,,,,,,,,,,,,,,,,,,,,,,,,,,,,,,,,,,,,,,
,,,,,V1_004,22,female,2024-04-29_14h01.36.854,jersey_experiment_5_v1,2023.2.2,Win32,84.74576271,,,,,,,,,,,,,,,,305.3831,306.677,306.6771,308.0889,return,0.4842,,61.71875,,,,,,FBP-OG-81.png,0.37,1.2,37,0.5,0,37,37,36,1,,,,,,,,,,,,,,,,,,,,,,,,,,,,,,,,,,,,,,,,
,,,,,V1_004,22,female,2024-04-29_14h01.36.854,jersey_experiment_5_v1,2023.2.2,Win32,84.74576271,,,,,,,,,,,,,,,,308.089,309.383,309.383,311.1829,return,0.5263,,75,,,,,,FBP-RB-17.png,0.43,1.2,49,0.5,0,38,38,48,1,,,,,,,,,,,,,,,,,,,,,,,,,,,,,,,,,,,,,,,,
,,,,,V1_004,22,female,2024-04-29_14h01.36.854,jersey_experiment_5_v1,2023.2.2,Win32,84.74576271,,,,,,,,,,,,,,,,311.1831,312.9831,312.9832,314.1952,return,0.4758,,67.31770833,,,,,,FBP-PT-17.png,0.35,1.2,1,1,0,39,39,0,1,,,,,,,,,,,,,,,,,,,,,,,,,,,,,,,,,,,,,,,,
,,,,,V1_004,22,female,2024-04-29_14h01.36.854,jersey_experiment_5_v1,2023.2.2,Win32,84.74576271,,,,,,,,,,,,,,,,314.1954,315.9952,315.9952,317.2068,return,0.5654,,92.96875,,,,,,FBP-PT-19.png,0.45,1.2,15,1,0,40,40,14,1,,,,,,,,,,,,,,,,,,,,,,,,,,,,,,,,,,,,,,,,
,,,,,V1_004,22,female,2024-04-29_14h01.36.854,jersey_experiment_5_v1,2023.2.2,Win32,84.74576271,,,,,,,,,,,,,,,,317.207,318.5007,318.5008,319.8774,return,1.0602,,92.83854167,,,,,,FBP-OG-81.png,0.45,1.2,40,0.5,0,41,41,39,1,,,,,,,,,,,,,,,,,,,,,,,,,,,,,,,,,,,,,,,,
,,,,,V1_004,22,female,2024-04-29_14h01.36.854,jersey_experiment_5_v1,2023.2.2,Win32,84.74576271,,,,,,,,,,,,,,,,319.8776,321.1716,321.1716,322.0187,return,0.4501,,92.83854167,,,,,,FBP-OG-91.png,0.45,1.2,45,0.5,0,42,42,44,1,,,,,,,,,,,,,,,,,,,,,,,,,,,,,,,,,,,,,,,,
,,,,,V1_004,22,female,2024-04-29_14h01.36.854,jersey_experiment_5_v1,2023.2.2,Win32,84.74576271,,,,,,,,,,,,,,,,322.0189,323.8188,323.8188,324.8542,return,0.7312,,92.83854167,,,,,,FBP-PT-17.png,0.43,1.2,4,1,0,43,43,3,1,,,,,,,,,,,,,,,,,,,,,,,,,,,,,,,,,,,,,,,,
,,,,,V1_004,22,female,2024-04-29_14h01.36.854,jersey_experiment_5_v1,2023.2.2,Win32,84.74576271,,,,,,,,,,,,,,,,324.8544,326.1482,326.1483,327.0071,return,0.5148,,92.83854167,,,,,,FBP-RB-19.png,0.43,1.2,59,0.5,0,44,44,58,1,,,,,,,,,,,,,,,,,,,,,,,,,,,,,,,,,,,,,,,,
,,,,,V1_004,22,female,2024-04-29_14h01.36.854,jersey_experiment_5_v1,2023.2.2,Win32,84.74576271,,,,,,,,,,,,,,,,327.0073,328.8071,328.8071,329.9248,return,0.542,,92.83854167,,,,,,FBP-PT-19.png,0.43,1.2,14,1,0,45,45,13,1,,,,,,,,,,,,,,,,,,,,,,,,,,,,,,,,,,,,,,,,
,,,,,V1_004,22,female,2024-04-29_14h01.36.854,jersey_experiment_5_v1,2023.2.2,Win32,84.74576271,,,,,,,,,,,,,,,,329.925,331.2192,331.2192,332.7132,return,0.4572,,32.29166667,,,,,,FBP-OG-91.png,0.35,1.2,41,0.5,0,46,46,40,1,,,,,,,,,,,,,,,,,,,,,,,,,,,,,,,,,,,,,,,,
,,,,,V1_004,22,female,2024-04-29_14h01.36.854,jersey_experiment_5_v1,2023.2.2,Win32,84.74576271,,,,,,,,,,,,,,,,332.7134,334.0074,334.0074,335.3017,return,0.5764,,51.953125,,,,,,FBP-OG-81.png,0.4,1.2,38,0.5,0,47,47,37,1,,,,,,,,,,,,,,,,,,,,,,,,,,,,,,,,,,,,,,,,
,,,,,V1_004,22,female,2024-04-29_14h01.36.854,jersey_experiment_5_v1,2023.2.2,Win32,84.74576271,,,,,,,,,,,,,,,,335.3019,336.5956,336.5956,337.8663,return,0.456,,65.88541667,,,,,,FBP-RB-18.png,0.43,1.2,54,0.5,0,48,48,53,1,,,,,,,,,,,,,,,,,,,,,,,,,,,,,,,,,,,,,,,,
,,,,,V1_004,22,female,2024-04-29_14h01.36.854,jersey_experiment_5_v1,2023.2.2,Win32,84.74576271,,,,,,,,,,,,,,,,337.8666,339.1605,339.1605,340.6078,return,0.5951,,50.52083333,,,,,,FBP-YG-91.png,0.35,1.2,26,0.5,0,49,49,25,1,,,,,,,,,,,,,,,,,,,,,,,,,,,,,,,,,,,,,,,,
,,,,,V1_004,22,female,2024-04-29_14h01.36.854,jersey_experiment_5_v1,2023.2.2,Win32,84.74576271,,,,,,,,,,,,,,,,340.608,342.4077,342.4077,343.2547,return,0.4824,,47.91666667,,,,,,FBP-PT-17.png,0.37,1.2,2,1,0,50,50,1,1,,,,,,,,,,,,,,,,,,,,,,,,,,,,,,,,,,,,,,,,
,,,,,V1_004,22,female,2024-04-29_14h01.36.854,jersey_experiment_5_v1,2023.2.2,Win32,84.74576271,,,,,,,,,,,,,,,,343.255,344.5489,344.5489,346.255,return,0.4445,,88.671875,,,,,,FBP-RB-17.png,0.45,1.2,50,0.5,0,51,51,49,1,,,,,,,,,,,,,,,,,,,,,,,,,,,,,,,,,,,,,,,,
,,,,,V1_004,22,female,2024-04-29_14h01.36.854,jersey_experiment_5_v1,2023.2.2,Win32,84.74576271,,,,,,,,,,,,,,,,346.2553,347.5491,347.5491,349.2549,return,0.566,,66.66666667,,,,,,FBP-OG-71.png,0.4,1.2,33,0.5,0,52,52,32,1,,,,,,,,,,,,,,,,,,,,,,,,,,,,,,,,,,,,,,,,
,,,,,V1_004,22,female,2024-04-29_14h01.36.854,jersey_experiment_5_v1,2023.2.2,Win32,84.74576271,,,,,,,,,,,,,,,,349.2552,350.5491,350.5491,351.7846,return,0.6026,,81.25,,,,,,FBP-RB-18.png,0.45,1.2,55,0.5,0,53,53,54,1,,,,,,,,,,,,,,,,,,,,,,,,,,,,,,,,,,,,,,,,
,,,,,V1_004,22,female,2024-04-29_14h01.36.854,jersey_experiment_5_v1,2023.2.2,Win32,84.74576271,,,,,,,,,,,,,,,,351.7848,353.0787,353.0787,355.3846,return,0.5654,,33.72395833,,,,,,FBP-YG-71.png,0.35,1.2,16,0.5,0,54,54,15,1,,,,,,,,,,,,,,,,,,,,,,,,,,,,,,,,,,,,,,,,
,,,,,V1_004,22,female,2024-04-29_14h01.36.854,jersey_experiment_5_v1,2023.2.2,Win32,84.74576271,,,,,,,,,,,,,,,,355.3848,356.6789,356.6789,358.0316,return,0.6437,,63.15104167,,,,,,FBP-OG-91.png,0.43,1.2,44,0.5,0,55,55,43,1,,,,,,,,,,,,,,,,,,,,,,,,,,,,,,,,,,,,,,,,
,,,,,V1_004,22,female,2024-04-29_14h01.36.854,jersey_experiment_5_v1,2023.2.2,Win32,84.74576271,,,,,,,,,,,,,,,,358.0319,359.3259,359.326,360.538,return,0.5312,,81.77083333,,,,,,FBP-OG-81.png,0.43,1.2,39,0.5,0,56,56,38,1,,,,,,,,,,,,,,,,,,,,,,,,,,,,,,,,,,,,,,,,
,,,,,V1_004,22,female,2024-04-29_14h01.36.854,jersey_experiment_5_v1,2023.2.2,Win32,84.74576271,,,,,,,,,,,,,,,,360.5382,362.3378,362.3378,363.2555,return,0.5273,,90.625,,,,,,FBP-PT-18.png,0.43,1.2,9,1,0,57,57,8,1,,,,,,,,,,,,,,,,,,,,,,,,,,,,,,,,,,,,,,,,
,,,,,V1_004,22,female,2024-04-29_14h01.36.854,jersey_experiment_5_v1,2023.2.2,Win32,84.74576271,,,,,,,,,,,,,,,,363.2557,365.0557,365.0557,366.6438,return,0.5784,,63.41145833,,,,,,FBP-PT-17.png,0.4,1.2,3,1,0,58,58,2,1,,,,,,,,,,,,,,,,,,,,,,,,,,,,,,,,,,,,,,,,
,,,,,V1_004,22,female,2024-04-29_14h01.36.854,jersey_experiment_5_v1,2023.2.2,Win32,84.74576271,,,,,,,,,,,,,,,,366.6441,367.938,367.938,369.5852,return,0.6889,,35.02604167,,,,,,FBP-RB-17.png,0.35,1.2,46,0.5,0,59,59,45,1,,,,,,,,,,,,,,,,,,,,,,,,,,,,,,,,,,,,,,,,
,,,,,V1_004,22,female,2024-04-29_14h01.36.854,jersey_experiment_5_v1,2023.2.2,Win32,84.74576271,,,,,,,,,,,,,,,,,,,,,,,,,,,,,,,,,,,,,,,369.5856,489.59,,,,,,,,,,,,,,,,,,,,,,,,,,,,,,,,,,,,,,
,,,,,V1_004,22,female,2024-04-29_14h01.36.854,jersey_experiment_5_v1,2023.2.2,Win32,84.74576271,,,,,,,,,,,,,,,,,,,,,,,,,,,,,,,,,,,,,,,,,489.5901,498.6608,return,9.059,,,,,,,,,,,,,,,,,,,,,,,,,,,,,,,,,,
,,,,,V1_004,22,female,2024-04-29_14h01.36.854,jersey_experiment_5_v1,2023.2.2,Win32,84.74576271,,,,,,,,,,,,,,,,498.6671,500.4606,500.4606,502.0371,return,0.5777,,37.890625,,,,,,FBP-YG-19.png,0.35,1.2,26,1,,,,,,,,,,,,,0,0,0,25,1,,,,,,,,,,,,,,,,,,,,,,,,,,,,
,,,,,V1_004,22,female,2024-04-29_14h01.36.854,jersey_experiment_5_v1,2023.2.2,Win32,84.74576271,,,,,,,,,,,,,,,,502.0375,503.8375,503.8375,505.2725,return,0.7205,,80.46875,,,,,,FBP-OG-18.png,0.45,1.2,40,1,,,,,,,,,,,,,0,1,1,39,1,,,,,,,,,,,,,,,,,,,,,,,,,,,,
,,,,,V1_004,22,female,2024-04-29_14h01.36.854,jersey_experiment_5_v1,2023.2.2,Win32,84.74576271,,,,,,,,,,,,,,,,505.2728,506.5667,506.5667,507.1079,return,0.1805,,78.90625,,,,,,FBP-PT-71.png,0.45,1.2,5,0.5,,,,,,,,,,,,,0,2,2,4,1,,,,,,,,,,,,,,,,,,,,,,,,,,,,
,,,,,V1_004,22,female,2024-04-29_14h01.36.854,jersey_experiment_5_v1,2023.2.2,Win32,84.74576271,,,,,,,,,,,,,,,,507.1081,508.9081,508.9081,509.9903,return,0.4017,,64.32291667,,,,,,FBP-RB-71.png,0.4,1.2,48,1,,,,,,,,,,,,,0,3,3,47,1,,,,,,,,,,,,,,,,,,,,,,,,,,,,
,,,,,V1_004,22,female,2024-04-29_14h01.36.854,jersey_experiment_5_v1,2023.2.2,Win32,84.74576271,,,,,,,,,,,,,,,,509.9906,511.2846,511.2846,512.1787,return,0.2041,,85.67708333,,,,,,FBP-PT-71.png,0.43,1.2,4,0.5,,,,,,,,,,,,,0,4,4,3,1,,,,,,,,,,,,,,,,,,,,,,,,,,,,
,,,,,V1_004,22,female,2024-04-29_14h01.36.854,jersey_experiment_5_v1,2023.2.2,Win32,84.74576271,,,,,,,,,,,,,,,,512.179,513.9788,513.9789,514.9669,return,0.0837,,36.06770833,,,,,,FBP-OG-17.png,0.37,1.2,32,1,,,,,,,,,,,,,0,5,5,31,1,,,,,,,,,,,,,,,,,,,,,,,,,,,,
,,,,,V1_004,22,female,2024-04-29_14h01.36.854,jersey_experiment_5_v1,2023.2.2,Win32,84.74576271,,,,,,,,,,,,,,,,514.9671,516.7669,516.7671,517.4612,return,0.0849,,46.35416667,,,,,,FBP-OG-19.png,0.4,1.2,43,1,,,,,,,,,,,,,0,6,6,42,1,,,,,,,,,,,,,,,,,,,,,,,,,,,,
,,,,,V1_004,22,female,2024-04-29_14h01.36.854,jersey_experiment_5_v1,2023.2.2,Win32,84.74576271,,,,,,,,,,,,,,,,517.4614,519.2611,519.2612,520.1671,return,0.2121,,72.91666667,,,,,,FBP-RB-81.png,0.45,1.2,55,1,,,,,,,,,,,,,0,7,7,54,1,,,,,,,,,,,,,,,,,,,,,,,,,,,,
,,,,,V1_004,22,female,2024-04-29_14h01.36.854,jersey_experiment_5_v1,2023.2.2,Win32,84.74576271,,,,,,,,,,,,,,,,520.1674,521.9673,521.9673,523.6026,return,0.8976,,27.86458333,,,,,,FBP-YG-18.png,0.35,1.2,21,1,,,,,,,,,,,,,0,8,8,20,1,,,,,,,,,,,,,,,,,,,,,,,,,,,,
,,,,,V1_004,22,female,2024-04-29_14h01.36.854,jersey_experiment_5_v1,2023.2.2,Win32,84.74576271,,,,,,,,,,,,,,,,523.6028,525.4027,525.4027,526.7439,return,0.3871,,82.94270833,,,,,,FBP-YG-19.png,0.4,1.2,28,1,,,,,,,,,,,,,0,9,9,27,1,,,,,,,,,,,,,,,,,,,,,,,,,,,,
,,,,,V1_004,22,female,2024-04-29_14h01.36.854,jersey_experiment_5_v1,2023.2.2,Win32,84.74576271,,,,,,,,,,,,,,,,526.7442,528.5442,528.5442,529.2499,return,0.0416,,20.83333333,,,,,,FBP-OG-19.png,0.35,1.2,41,1,,,,,,,,,,,,,0,10,10,40,1,,,,,,,,,,,,,,,,,,,,,,,,,,,,
,,,,,V1_004,22,female,2024-04-29_14h01.36.854,jersey_experiment_5_v1,2023.2.2,Win32,84.74576271,,,,,,,,,,,,,,,,529.2501,530.5441,530.5441,531.6971,return,0.0422,,40.75520833,,,,,,FBP-PT-91.png,0.37,1.2,12,0.5,,,,,,,,,,,,,0,11,11,11,1,,,,,,,,,,,,,,,,,,,,,,,,,,,,
,,,,,V1_004,22,female,2024-04-29_14h01.36.854,jersey_experiment_5_v1,2023.2.2,Win32,84.74576271,,,,,,,,,,,,,,,,531.6974,532.9913,532.9913,533.8149,return,0.0706,,71.35416667,,,,,,FBP-PT-81.png,0.4,1.2,8,0.5,,,,,,,,,,,,,0,12,12,7,1,,,,,,,,,,,,,,,,,,,,,,,,,,,,
,,,,,V1_004,22,female,2024-04-29_14h01.36.854,jersey_experiment_5_v1,2023.2.2,Win32,84.74576271,,,,,,,,,,,,,,,,533.8151,535.1089,535.109,536.2972,return,0.4235,,83.984375,,,,,,FBP-PT-81.png,0.43,1.2,9,0.5,,,,,,,,,,,,,0,13,13,8,1,,,,,,,,,,,,,,,,,,,,,,,,,,,,
,,,,,V1_004,22,female,2024-04-29_14h01.36.854,jersey_experiment_5_v1,2023.2.2,Win32,84.74576271,,,,,,,,,,,,,,,,536.2974,538.0975,538.0975,538.7562,return,0.0626,,20.703125,,,,,,FBP-OG-17.png,0.35,1.2,31,1,,,,,,,,,,,,,0,14,14,30,1,,,,,,,,,,,,,,,,,,,,,,,,,,,,
,,,,,V1_004,22,female,2024-04-29_14h01.36.854,jersey_experiment_5_v1,2023.2.2,Win32,84.74576271,,,,,,,,,,,,,,,,538.7563,540.5561,540.5562,541.0504,return,0.0102,,26.171875,,,,,,FBP-OG-18.png,0.35,1.2,36,1,,,,,,,,,,,,,0,15,15,35,1,,,,,,,,,,,,,,,,,,,,,,,,,,,,
,,,,,V1_004,22,female,2024-04-29_14h01.36.854,jersey_experiment_5_v1,2023.2.2,Win32,84.74576271,,,,,,,,,,,,,,,,541.0505,542.8504,542.8504,544.1802,return,0.5459,,42.70833333,,,,,,FBP-OG-19.png,0.37,1.2,42,1,,,,,,,,,,,,,0,16,16,41,1,,,,,,,,,,,,,,,,,,,,,,,,,,,,
,,,,,V1_004,22,female,2024-04-29_14h01.36.854,jersey_experiment_5_v1,2023.2.2,Win32,84.74576271,,,,,,,,,,,,,,,,544.1804,545.4738,545.4739,546.3093,return,0.0381,,50.26041667,,,,,,FBP-PT-71.png,0.37,1.2,2,0.5,,,,,,,,,,,,,0,17,17,1,1,,,,,,,,,,,,,,,,,,,,,,,,,,,,
,,,,,V1_004,22,female,2024-04-29_14h01.36.854,jersey_experiment_5_v1,2023.2.2,Win32,84.74576271,,,,,,,,,,,,,,,,546.3096,547.6034,547.6034,548.6391,return,0.0446,,69.79166667,,,,,,FBP-PT-91.png,0.4,1.2,13,0.5,,,,,,,,,,,,,0,18,18,12,1,,,,,,,,,,,,,,,,,,,,,,,,,,,,
,,,,,V1_004,22,female,2024-04-29_14h01.36.854,jersey_experiment_5_v1,2023.2.2,Win32,84.74576271,,,,,,,,,,,,,,,,548.6394,550.4389,550.439,551.1566,return,0.0256,,56.640625,,,,,,FBP-YG-17.png,0.37,1.2,17,1,,,,,,,,,,,,,0,19,19,16,1,,,,,,,,,,,,,,,,,,,,,,,,,,,,
,,,,,V1_004,22,female,2024-04-29_14h01.36.854,jersey_experiment_5_v1,2023.2.2,Win32,84.74576271,,,,,,,,,,,,,,,,551.1569,552.9568,552.9568,553.8978,return,0.4944,,38.671875,,,,,,FBP-YG-17.png,0.35,1.2,16,1,,,,,,,,,,,,,0,20,20,15,1,,,,,,,,,,,,,,,,,,,,,,,,,,,,
,,,,,V1_004,22,female,2024-04-29_14h01.36.854,jersey_experiment_5_v1,2023.2.2,Win32,84.74576271,,,,,,,,,,,,,,,,553.898,555.6981,555.6982,556.6743,return,0.3916,,89.97395833,,,,,,FBP-OG-19.png,0.45,1.2,45,1,,,,,,,,,,,,,0,21,21,44,1,,,,,,,,,,,,,,,,,,,,,,,,,,,,
,,,,,V1_004,22,female,2024-04-29_14h01.36.854,jersey_experiment_5_v1,2023.2.2,Win32,84.74576271,,,,,,,,,,,,,,,,556.6745,558.4745,558.4745,559.251,return,0.0166,,66.40625,,,,,,FBP-YG-18.png,0.4,1.2,23,1,,,,,,,,,,,,,0,22,22,22,1,,,,,,,,,,,,,,,,,,,,,,,,,,,,
,,,,,V1_004,22,female,2024-04-29_14h01.36.854,jersey_experiment_5_v1,2023.2.2,Win32,84.74576271,,,,,,,,,,,,,,,,559.2512,560.545,560.545,562.3217,return,0.9712,,47.78645833,,,,,,FBP-PT-81.png,0.35,1.2,6,0.5,,,,,,,,,,,,,0,23,23,5,1,,,,,,,,,,,,,,,,,,,,,,,,,,,,
,,,,,V1_004,22,female,2024-04-29_14h01.36.854,jersey_experiment_5_v1,2023.2.2,Win32,84.74576271,,,,,,,,,,,,,,,,562.3219,564.122,564.1221,564.8041,return,0.0154,,31.51041667,,,,,,FBP-RB-71.png,0.35,1.2,46,1,,,,,,,,,,,,,0,24,24,45,1,,,,,,,,,,,,,,,,,,,,,,,,,,,,
,,,,,V1_004,22,female,2024-04-29_14h01.36.854,jersey_experiment_5_v1,2023.2.2,Win32,84.74576271,,,,,,,,,,,,,,,,564.8044,566.6042,566.6043,567.4278,return,0.004,,72.52604167,,,,,,FBP-RB-71.png,0.45,1.2,50,1,,,,,,,,,,,,,0,25,25,49,1,,,,,,,,,,,,,,,,,,,,,,,,,,,,
,,,,,V1_004,22,female,2024-04-29_14h01.36.854,jersey_experiment_5_v1,2023.2.2,Win32,84.74576271,,,,,,,,,,,,,,,,567.428,569.2279,569.228,569.8278,return,0.0844,,87.890625,,,,,,FBP-YG-19.png,0.45,1.2,30,1,,,,,,,,,,,,,0,26,26,29,1,,,,,,,,,,,,,,,,,,,,,,,,,,,,
,,,,,V1_004,22,female,2024-04-29_14h01.36.854,jersey_experiment_5_v1,2023.2.2,Win32,84.74576271,,,,,,,,,,,,,,,,569.828,571.6281,571.6281,572.4987,return,0.0515,,80.98958333,,,,,,FBP-YG-19.png,0.43,1.2,29,1,,,,,,,,,,,,,0,27,27,28,1,,,,,,,,,,,,,,,,,,,,,,,,,,,,
,,,,,V1_004,22,female,2024-04-29_14h01.36.854,jersey_experiment_5_v1,2023.2.2,Win32,84.74576271,,,,,,,,,,,,,,,,572.4988,574.2985,574.2986,575.6632,return,0.0419,,88.41145833,,,,,,FBP-OG-17.png,0.43,1.2,34,1,,,,,,,,,,,,,0,28,28,33,1,,,,,,,,,,,,,,,,,,,,,,,,,,,,
,,,,,V1_004,22,female,2024-04-29_14h01.36.854,jersey_experiment_5_v1,2023.2.2,Win32,84.74576271,,,,,,,,,,,,,,,,575.6635,577.4634,577.4634,578.5224,return,0.212,,53.515625,,,,,,FBP-YG-18.png,0.37,1.2,22,1,,,,,,,,,,,,,0,29,29,21,1,,,,,,,,,,,,,,,,,,,,,,,,,,,,
,,,,,V1_004,22,female,2024-04-29_14h01.36.854,jersey_experiment_5_v1,2023.2.2,Win32,84.74576271,,,,,,,,,,,,,,,,578.5226,580.3223,580.3223,581.0284,return,0.0037,,74.86979167,,,,,,FBP-YG-17.png,0.43,1.2,19,1,,,,,,,,,,,,,0,30,30,18,1,,,,,,,,,,,,,,,,,,,,,,,,,,,,
,,,,,V1_004,22,female,2024-04-29_14h01.36.854,jersey_experiment_5_v1,2023.2.2,Win32,84.74576271,,,,,,,,,,,,,,,,581.0286,582.8286,582.8286,583.6989,return,0.3323,,95.18229167,,,,,,FBP-YG-17.png,0.45,1.2,20,1,,,,,,,,,,,,,0,31,31,19,1,,,,,,,,,,,,,,,,,,,,,,,,,,,,
,,,,,V1_004,22,female,2024-04-29_14h01.36.854,jersey_experiment_5_v1,2023.2.2,Win32,84.74576271,,,,,,,,,,,,,,,,583.6992,584.9931,584.9931,586.3109,return,0.2961,,88.41145833,,,,,,FBP-PT-91.png,0.45,1.2,15,0.5,,,,,,,,,,,,,0,32,32,14,1,,,,,,,,,,,,,,,,,,,,,,,,,,,,
,,,,,V1_004,22,female,2024-04-29_14h01.36.854,jersey_experiment_5_v1,2023.2.2,Win32,84.74576271,,,,,,,,,,,,,,,,586.311,588.1109,588.111,589.3815,return,0.3191,,24.73958333,,,,,,FBP-RB-81.png,0.35,1.2,51,1,,,,,,,,,,,,,0,33,33,50,1,,,,,,,,,,,,,,,,,,,,,,,,,,,,
,,,,,V1_004,22,female,2024-04-29_14h01.36.854,jersey_experiment_5_v1,2023.2.2,Win32,84.74576271,,,,,,,,,,,,,,,,589.3817,591.1816,591.1816,592.0169,return,0.0159,,25.52083333,,,,,,FBP-RB-91.png,0.35,1.2,56,1,,,,,,,,,,,,,0,34,34,55,1,,,,,,,,,,,,,,,,,,,,,,,,,,,,
,,,,,V1_004,22,female,2024-04-29_14h01.36.854,jersey_experiment_5_v1,2023.2.2,Win32,84.74576271,,,,,,,,,,,,,,,,592.017,593.8172,593.8172,594.5464,return,0.0648,,72.00520833,,,,,,FBP-OG-19.png,0.43,1.2,44,1,,,,,,,,,,,,,0,35,35,43,1,,,,,,,,,,,,,,,,,,,,,,,,,,,,
,,,,,V1_004,22,female,2024-04-29_14h01.36.854,jersey_experiment_5_v1,2023.2.2,Win32,84.74576271,,,,,,,,,,,,,,,,594.5467,595.8405,595.8405,597.1468,return,0.3636,,53.77604167,,,,,,FBP-PT-81.png,0.37,1.2,7,0.5,,,,,,,,,,,,,0,36,36,6,1,,,,,,,,,,,,,,,,,,,,,,,,,,,,
,,,,,V1_004,22,female,2024-04-29_14h01.36.854,jersey_experiment_5_v1,2023.2.2,Win32,84.74576271,,,,,,,,,,,,,,,,597.147,598.9468,598.9468,599.4762,return,0.0746,,67.70833333,,,,,,FBP-OG-18.png,0.43,1.2,39,1,,,,,,,,,,,,,0,37,37,38,1,,,,,,,,,,,,,,,,,,,,,,,,,,,,
,,,,,V1_004,22,female,2024-04-29_14h01.36.854,jersey_experiment_5_v1,2023.2.2,Win32,84.74576271,,,,,,,,,,,,,,,,599.4763,601.2761,601.2761,601.7348,return,0.0582,,92.05729167,,,,,,FBP-OG-17.png,0.45,1.2,35,1,,,,,,,,,,,,,0,38,38,34,1,,,,,,,,,,,,,,,,,,,,,,,,,,,,
,,,,,V1_004,22,female,2024-04-29_14h01.36.854,jersey_experiment_5_v1,2023.2.2,Win32,84.74576271,,,,,,,,,,,,,,,,601.735,603.535,603.5351,604.4528,return,0.002,,63.02083333,,,,,,FBP-RB-91.png,0.37,1.2,57,1,,,,,,,,,,,,,0,39,39,56,1,,,,,,,,,,,,,,,,,,,,,,,,,,,,
,,,,,V1_004,22,female,2024-04-29_14h01.36.854,jersey_experiment_5_v1,2023.2.2,Win32,84.74576271,,,,,,,,,,,,,,,,604.453,606.2527,606.2527,606.8643,return,0.0408,,80.859375,,,,,,FBP-RB-91.png,0.43,1.2,59,1,,,,,,,,,,,,,0,40,40,58,1,,,,,,,,,,,,,,,,,,,,,,,,,,,,
,,,,,V1_004,22,female,2024-04-29_14h01.36.854,jersey_experiment_5_v1,2023.2.2,Win32,84.74576271,,,,,,,,,,,,,,,,606.8647,608.6646,608.6646,609.1705,return,0.029,,89.58333333,,,,,,FBP-RB-91.png,0.45,1.2,60,1,,,,,,,,,,,,,0,41,41,59,1,,,,,,,,,,,,,,,,,,,,,,,,,,,,
,,,,,V1_004,22,female,2024-04-29_14h01.36.854,jersey_experiment_5_v1,2023.2.2,Win32,84.74576271,,,,,,,,,,,,,,,,609.1705,610.4646,610.4647,611.2882,return,0.0713,,86.328125,,,,,,FBP-PT-91.png,0.43,1.2,14,0.5,,,,,,,,,,,,,0,42,42,13,1,,,,,,,,,,,,,,,,,,,,,,,,,,,,
,,,,,V1_004,22,female,2024-04-29_14h01.36.854,jersey_experiment_5_v1,2023.2.2,Win32,84.74576271,,,,,,,,,,,,,,,,611.2883,613.0883,613.0884,613.9943,return,0.1179,,70.18229167,,,,,,FBP-OG-18.png,0.4,1.2,38,1,,,,,,,,,,,,,0,43,43,37,1,,,,,,,,,,,,,,,,,,,,,,,,,,,,
,,,,,V1_004,22,female,2024-04-29_14h01.36.854,jersey_experiment_5_v1,2023.2.2,Win32,84.74576271,,,,,,,,,,,,,,,,613.9945,615.7944,615.7944,616.4533,return,0.0468,,81.38020833,,,,,,FBP-RB-71.png,0.43,1.2,49,1,,,,,,,,,,,,,0,44,44,48,1,,,,,,,,,,,,,,,,,,,,,,,,,,,,
,,,,,V1_004,22,female,2024-04-29_14h01.36.854,jersey_experiment_5_v1,2023.2.2,Win32,84.74576271,,,,,,,,,,,,,,,,616.4535,617.7472,617.7472,619.4296,return,0.8824,,32.68229167,,,,,,FBP-PT-71.png,0.35,1.2,1,0.5,,,,,,,,,,,,,0,45,45,0,1,,,,,,,,,,,,,,,,,,,,,,,,,,,,
,,,,,V1_004,22,female,2024-04-29_14h01.36.854,jersey_experiment_5_v1,2023.2.2,Win32,84.74576271,,,,,,,,,,,,,,,,619.43,621.2298,621.2298,622.0533,return,0.0706,,39.32291667,,,,,,FBP-RB-81.png,0.4,1.2,53,1,,,,,,,,,,,,,0,46,46,52,1,,,,,,,,,,,,,,,,,,,,,,,,,,,,
,,,,,V1_004,22,female,2024-04-29_14h01.36.854,jersey_experiment_5_v1,2023.2.2,Win32,84.74576271,,,,,,,,,,,,,,,,622.0537,623.8533,623.8534,624.418,return,0.1561,,39.58333333,,,,,,FBP-OG-17.png,0.4,1.2,33,1,,,,,,,,,,,,,0,47,47,32,1,,,,,,,,,,,,,,,,,,,,,,,,,,,,
,,,,,V1_004,22,female,2024-04-29_14h01.36.854,jersey_experiment_5_v1,2023.2.2,Win32,84.74576271,,,,,,,,,,,,,,,,624.4184,626.2181,626.2181,627.8182,return,0.3665,,34.765625,,,,,,FBP-YG-17.png,0.4,1.2,18,1,,,,,,,,,,,,,0,48,48,17,1,,,,,,,,,,,,,,,,,,,,,,,,,,,,
,,,,,V1_004,22,female,2024-04-29_14h01.36.854,jersey_experiment_5_v1,2023.2.2,Win32,84.74576271,,,,,,,,,,,,,,,,627.8185,629.1124,629.1124,629.9362,return,0.0194,,29.42708333,,,,,,FBP-PT-91.png,0.35,1.2,11,0.5,,,,,,,,,,,,,0,49,49,10,1,,,,,,,,,,,,,,,,,,,,,,,,,,,,
,,,,,V1_004,22,female,2024-04-29_14h01.36.854,jersey_experiment_5_v1,2023.2.2,Win32,84.74576271,,,,,,,,,,,,,,,,629.9363,631.7359,631.7359,632.6419,return,0.6637,,27.34375,,,,,,FBP-YG-19.png,0.37,1.2,27,1,,,,,,,,,,,,,0,50,50,26,1,,,,,,,,,,,,,,,,,,,,,,,,,,,,
,,,,,V1_004,22,female,2024-04-29_14h01.36.854,jersey_experiment_5_v1,2023.2.2,Win32,84.74576271,,,,,,,,,,,,,,,,632.6421,633.9362,633.9363,635.2656,return,0.3694,,71.74479167,,,,,,FBP-PT-81.png,0.45,1.2,10,0.5,,,,,,,,,,,,,0,51,51,9,1,,,,,,,,,,,,,,,,,,,,,,,,,,,,
,,,,,V1_004,22,female,2024-04-29_14h01.36.854,jersey_experiment_5_v1,2023.2.2,Win32,84.74576271,,,,,,,,,,,,,,,,635.2657,637.0658,637.0658,638.0893,return,0.0469,,36.58854167,,,,,,FBP-RB-81.png,0.37,1.2,52,1,,,,,,,,,,,,,0,52,52,51,1,,,,,,,,,,,,,,,,,,,,,,,,,,,,
,,,,,V1_004,22,female,2024-04-29_14h01.36.854,jersey_experiment_5_v1,2023.2.2,Win32,84.74576271,,,,,,,,,,,,,,,,638.0895,639.8896,639.8896,641.1365,return,0.1607,,69.921875,,,,,,FBP-RB-81.png,0.43,1.2,54,1,,,,,,,,,,,,,0,53,53,53,1,,,,,,,,,,,,,,,,,,,,,,,,,,,,
,,,,,V1_004,22,female,2024-04-29_14h01.36.854,jersey_experiment_5_v1,2023.2.2,Win32,84.74576271,,,,,,,,,,,,,,,,641.1367,642.9364,642.9364,643.4894,return,0.1939,,69.79166667,,,,,,FBP-RB-91.png,0.4,1.2,58,1,,,,,,,,,,,,,0,54,54,57,1,,,,,,,,,,,,,,,,,,,,,,,,,,,,
,,,,,V1_004,22,female,2024-04-29_14h01.36.854,jersey_experiment_5_v1,2023.2.2,Win32,84.74576271,,,,,,,,,,,,,,,,643.4896,645.2895,645.2895,646.4541,return,0.4374,,52.734375,,,,,,FBP-OG-18.png,0.37,1.2,37,1,,,,,,,,,,,,,0,55,55,36,1,,,,,,,,,,,,,,,,,,,,,,,,,,,,
,,,,,V1_004,22,female,2024-04-29_14h01.36.854,jersey_experiment_5_v1,2023.2.2,Win32,84.74576271,,,,,,,,,,,,,,,,646.4544,648.2541,648.2542,649.0426,return,0.3801,,52.734375,,,,,,FBP-RB-71.png,0.37,1.2,47,1,,,,,,,,,,,,,0,56,56,46,1,,,,,,,,,,,,,,,,,,,,,,,,,,,,
,,,,,V1_004,22,female,2024-04-29_14h01.36.854,jersey_experiment_5_v1,2023.2.2,Win32,84.74576271,,,,,,,,,,,,,,,,649.0429,650.3367,650.3368,651.3132,return,0.1714,,64.32291667,,,,,,FBP-PT-71.png,0.4,1.2,3,0.5,,,,,,,,,,,,,0,57,57,2,1,,,,,,,,,,,,,,,,,,,,,,,,,,,,
,,,,,V1_004,22,female,2024-04-29_14h01.36.854,jersey_experiment_5_v1,2023.2.2,Win32,84.74576271,,,,,,,,,,,,,,,,651.3134,653.1135,653.1135,654.0663,return,0.0861,,84.89583333,,,,,,FBP-YG-18.png,0.45,1.2,25,1,,,,,,,,,,,,,0,58,58,24,1,,,,,,,,,,,,,,,,,,,,,,,,,,,,
,,,,,V1_004,22,female,2024-04-29_14h01.36.854,jersey_experiment_5_v1,2023.2.2,Win32,84.74576271,,,,,,,,,,,,,,,,654.0666,655.8662,655.8662,656.7606,return,0.4604,,80.33854167,,,,,,FBP-YG-18.png,0.43,1.2,24,1,,,,,,,,,,,,,0,59,59,23,1,,,,,,,,,,,,,,,,,,,,,,,,,,,,
,,,,,V1_004,22,female,2024-04-29_14h01.36.854,jersey_experiment_5_v1,2023.2.2,Win32,84.74576271,,,,,,,,,,,,,,,,656.762,658.0547,658.0547,658.855,return,0.037,,38.671875,,,,,,FBP-PT-18.png,0.35,1.2,6,0.5,,,,,,,,,,,,,,,,,,0,0,0,5,1,,,,,,,,,,,,,,,,,,,,,,,
,,,,,V1_004,22,female,2024-04-29_14h01.36.854,jersey_experiment_5_v1,2023.2.2,Win32,84.74576271,,,,,,,,,,,,,,,,658.8553,660.6547,660.6548,661.29,return,0.0565,,69.27083333,,,,,,FBP-OG-81.png,0.43,1.2,39,1,,,,,,,,,,,,,,,,,,0,1,1,38,1,,,,,,,,,,,,,,,,,,,,,,,
,,,,,V1_004,22,female,2024-04-29_14h01.36.854,jersey_experiment_5_v1,2023.2.2,Win32,84.74576271,,,,,,,,,,,,,,,,661.2902,663.0901,663.0902,664.3372,return,0.0186,,46.484375,,,,,,FBP-RB-17.png,0.35,1.2,46,1,,,,,,,,,,,,,,,,,,0,2,2,45,1,,,,,,,,,,,,,,,,,,,,,,,
,,,,,V1_004,22,female,2024-04-29_14h01.36.854,jersey_experiment_5_v1,2023.2.2,Win32,84.74576271,,,,,,,,,,,,,,,,664.3375,666.1372,666.1373,667.561,return,0.4606,,69.140625,,,,,,FBP-YG-81.png,0.4,1.2,23,1,,,,,,,,,,,,,,,,,,0,3,3,22,1,,,,,,,,,,,,,,,,,,,,,,,
,,,,,V1_004,22,female,2024-04-29_14h01.36.854,jersey_experiment_5_v1,2023.2.2,Win32,84.74576271,,,,,,,,,,,,,,,,667.5613,668.855,668.855,669.6903,return,0.0107,,59.89583333,,,,,,FBP-PT-17.png,0.4,1.2,3,0.5,,,,,,,,,,,,,,,,,,0,4,4,2,1,,,,,,,,,,,,,,,,,,,,,,,
,,,,,V1_004,22,female,2024-04-29_14h01.36.854,jersey_experiment_5_v1,2023.2.2,Win32,84.74576271,,,,,,,,,,,,,,,,669.6905,671.4906,671.4907,671.9139,return,0.0131,,85.67708333,,,,,,FBP-RB-18.png,0.45,1.2,55,1,,,,,,,,,,,,,,,,,,0,5,5,54,1,,,,,,,,,,,,,,,,,,,,,,,
,,,,,V1_004,22,female,2024-04-29_14h01.36.854,jersey_experiment_5_v1,2023.2.2,Win32,84.74576271,,,,,,,,,,,,,,,,671.9141,673.2081,673.2081,674.1494,return,0.047,,71.35416667,,,,,,FBP-PT-18.png,0.4,1.2,8,0.5,,,,,,,,,,,,,,,,,,0,6,6,7,1,,,,,,,,,,,,,,,,,,,,,,,
,,,,,V1_004,22,female,2024-04-29_14h01.36.854,jersey_experiment_5_v1,2023.2.2,Win32,84.74576271,,,,,,,,,,,,,,,,674.1497,675.9495,675.9495,677.4318,return,0.0709,,39.0625,,,,,,FBP-OG-91.png,0.35,1.2,41,1,,,,,,,,,,,,,,,,,,0,7,7,40,1,,,,,,,,,,,,,,,,,,,,,,,
,,,,,V1_004,22,female,2024-04-29_14h01.36.854,jersey_experiment_5_v1,2023.2.2,Win32,84.74576271,,,,,,,,,,,,,,,,677.432,678.7259,678.7259,679.6792,return,0.0443,,71.484375,,,,,,FBP-PT-18.png,0.43,1.2,9,0.5,,,,,,,,,,,,,,,,,,0,8,8,8,1,,,,,,,,,,,,,,,,,,,,,,,
,,,,,V1_004,22,female,2024-04-29_14h01.36.854,jersey_experiment_5_v1,2023.2.2,Win32,84.74576271,,,,,,,,,,,,,,,,679.6794,681.4793,681.4794,683.091,return,0.544,,24.609375,,,,,,FBP-OG-81.png,0.35,1.2,36,1,,,,,,,,,,,,,,,,,,0,9,9,35,1,,,,,,,,,,,,,,,,,,,,,,,
,,,,,V1_004,22,female,2024-04-29_14h01.36.854,jersey_experiment_5_v1,2023.2.2,Win32,84.74576271,,,,,,,,,,,,,,,,683.0912,684.3851,684.3851,685.8321,return,0.1884,,83.984375,,,,,,FBP-PT-17.png,0.45,1.2,5,0.5,,,,,,,,,,,,,,,,,,0,10,10,4,1,,,,,,,,,,,,,,,,,,,,,,,
,,,,,V1_004,22,female,2024-04-29_14h01.36.854,jersey_experiment_5_v1,2023.2.2,Win32,84.74576271,,,,,,,,,,,,,,,,685.8323,687.6322,687.6323,688.9502,return,0.166,,77.34375,,,,,,FBP-RB-18.png,0.43,1.2,54,1,,,,,,,,,,,,,,,,,,0,11,11,53,1,,,,,,,,,,,,,,,,,,,,,,,
,,,,,V1_004,22,female,2024-04-29_14h01.36.854,jersey_experiment_5_v1,2023.2.2,Win32,84.74576271,,,,,,,,,,,,,,,,688.9504,690.75,690.75,692.0794,return,0.0204,,60.28645833,,,,,,FBP-OG-91.png,0.37,1.2,42,1,,,,,,,,,,,,,,,,,,0,12,12,41,1,,,,,,,,,,,,,,,,,,,,,,,
,,,,,V1_004,22,female,2024-04-29_14h01.36.854,jersey_experiment_5_v1,2023.2.2,Win32,84.74576271,,,,,,,,,,,,,,,,692.0796,693.8795,693.8795,694.4325,return,0.1709,,60.41666667,,,,,,FBP-OG-81.png,0.37,1.2,37,1,,,,,,,,,,,,,,,,,,0,13,13,36,1,,,,,,,,,,,,,,,,,,,,,,,
,,,,,V1_004,22,female,2024-04-29_14h01.36.854,jersey_experiment_5_v1,2023.2.2,Win32,84.74576271,,,,,,,,,,,,,,,,694.4327,695.7266,695.7267,696.6915,return,0.0962,,80.078125,,,,,,FBP-PT-18.png,0.45,1.2,10,0.5,,,,,,,,,,,,,,,,,,0,14,14,9,1,,,,,,,,,,,,,,,,,,,,,,,
,,,,,V1_004,22,female,2024-04-29_14h01.36.854,jersey_experiment_5_v1,2023.2.2,Win32,84.74576271,,,,,,,,,,,,,,,,696.6917,698.4913,698.4914,699.1386,return,0.192,,70.3125,,,,,,FBP-YG-91.png,0.37,1.2,27,1,,,,,,,,,,,,,,,,,,0,15,15,26,1,,,,,,,,,,,,,,,,,,,,,,,
,,,,,V1_004,22,female,2024-04-29_14h01.36.854,jersey_experiment_5_v1,2023.2.2,Win32,84.74576271,,,,,,,,,,,,,,,,699.1389,700.9386,700.9386,701.3386,return,0.0475,,67.1875,,,,,,FBP-RB-17.png,0.37,1.2,47,1,,,,,,,,,,,,,,,,,,0,16,16,46,1,,,,,,,,,,,,,,,,,,,,,,,
,,,,,V1_004,22,female,2024-04-29_14h01.36.854,jersey_experiment_5_v1,2023.2.2,Win32,84.74576271,,,,,,,,,,,,,,,,701.3388,703.1389,703.1389,703.9269,return,0.0802,,87.5,,,,,,FBP-RB-19.png,0.43,1.2,59,1,,,,,,,,,,,,,,,,,,0,17,17,58,1,,,,,,,,,,,,,,,,,,,,,,,
,,,,,V1_004,22,female,2024-04-29_14h01.36.854,jersey_experiment_5_v1,2023.2.2,Win32,84.74576271,,,,,,,,,,,,,,,,703.9272,705.727,705.727,706.9623,return,0.5,,58.72395833,,,,,,FBP-RB-18.png,0.37,1.2,52,1,,,,,,,,,,,,,,,,,,0,18,18,51,1,,,,,,,,,,,,,,,,,,,,,,,
,,,,,V1_004,22,female,2024-04-29_14h01.36.854,jersey_experiment_5_v1,2023.2.2,Win32,84.74576271,,,,,,,,,,,,,,,,706.9625,708.7623,708.7623,710.0095,return,0.1634,,45.83333333,,,,,,FBP-OG-71.png,0.35,1.2,31,1,,,,,,,,,,,,,,,,,,0,19,19,30,1,,,,,,,,,,,,,,,,,,,,,,,
,,,,,V1_004,22,female,2024-04-29_14h01.36.854,jersey_experiment_5_v1,2023.2.2,Win32,84.74576271,,,,,,,,,,,,,,,,710.0098,711.8097,711.8097,712.7275,return,0.0807,,86.58854167,,,,,,FBP-YG-71.png,0.43,1.2,19,1,,,,,,,,,,,,,,,,,,0,20,20,18,1,,,,,,,,,,,,,,,,,,,,,,,
,,,,,V1_004,22,female,2024-04-29_14h01.36.854,jersey_experiment_5_v1,2023.2.2,Win32,84.74576271,,,,,,,,,,,,,,,,712.7277,714.5274,714.5274,715.3275,return,0.0762,,57.421875,,,,,,FBP-YG-81.png,0.37,1.2,22,1,,,,,,,,,,,,,,,,,,0,21,21,21,1,,,,,,,,,,,,,,,,,,,,,,,
,,,,,V1_004,22,female,2024-04-29_14h01.36.854,jersey_experiment_5_v1,2023.2.2,Win32,84.74576271,,,,,,,,,,,,,,,,715.3277,717.1274,717.1274,717.8921,return,0.1567,,79.6875,,,,,,FBP-YG-71.png,0.4,1.2,18,1,,,,,,,,,,,,,,,,,,0,22,22,17,1,,,,,,,,,,,,,,,,,,,,,,,
,,,,,V1_004,22,female,2024-04-29_14h01.36.854,jersey_experiment_5_v1,2023.2.2,Win32,84.74576271,,,,,,,,,,,,,,,,717.8924,719.6921,719.6921,720.8335,return,0.4282,,62.890625,,,,,,FBP-RB-18.png,0.35,1.2,51,1,,,,,,,,,,,,,,,,,,0,23,23,50,1,,,,,,,,,,,,,,,,,,,,,,,
,,,,,V1_004,22,female,2024-04-29_14h01.36.854,jersey_experiment_5_v1,2023.2.2,Win32,84.74576271,,,,,,,,,,,,,,,,720.8336,722.6333,722.6334,723.5747,return,0.4117,,89.32291667,,,,,,FBP-RB-17.png,0.45,1.2,50,1,,,,,,,,,,,,,,,,,,0,24,24,49,1,,,,,,,,,,,,,,,,,,,,,,,
,,,,,V1_004,22,female,2024-04-29_14h01.36.854,jersey_experiment_5_v1,2023.2.2,Win32,84.74576271,,,,,,,,,,,,,,,,723.5749,724.8689,724.8689,725.9513,return,0.0195,,64.97395833,,,,,,FBP-PT-19.png,0.37,1.2,12,0.5,,,,,,,,,,,,,,,,,,0,25,25,11,1,,,,,,,,,,,,,,,,,,,,,,,
,,,,,V1_004,22,female,2024-04-29_14h01.36.854,jersey_experiment_5_v1,2023.2.2,Win32,84.74576271,,,,,,,,,,,,,,,,725.9515,727.7515,727.7515,728.6101,return,0.0161,,82.16145833,,,,,,FBP-RB-18.png,0.4,1.2,53,1,,,,,,,,,,,,,,,,,,0,26,26,52,1,,,,,,,,,,,,,,,,,,,,,,,
,,,,,V1_004,22,female,2024-04-29_14h01.36.854,jersey_experiment_5_v1,2023.2.2,Win32,84.74576271,,,,,,,,,,,,,,,,728.6102,730.4104,730.4104,731.587,return,0.474,,85.67708333,,,,,,FBP-RB-17.png,0.43,1.2,49,1,,,,,,,,,,,,,,,,,,0,27,27,48,1,,,,,,,,,,,,,,,,,,,,,,,
,,,,,V1_004,22,female,2024-04-29_14h01.36.854,jersey_experiment_5_v1,2023.2.2,Win32,84.74576271,,,,,,,,,,,,,,,,731.5872,733.3867,733.3869,734.1868,return,0.1647,,69.66145833,,,,,,FBP-RB-19.png,0.37,1.2,57,1,,,,,,,,,,,,,,,,,,0,28,28,56,1,,,,,,,,,,,,,,,,,,,,,,,
,,,,,V1_004,22,female,2024-04-29_14h01.36.854,jersey_experiment_5_v1,2023.2.2,Win32,84.74576271,,,,,,,,,,,,,,,,734.187,735.9873,735.9873,736.9164,return,0.1446,,88.41145833,,,,,,FBP-RB-19.png,0.45,1.2,60,1,,,,,,,,,,,,,,,,,,0,29,29,59,1,,,,,,,,,,,,,,,,,,,,,,,
,,,,,V1_004,22,female,2024-04-29_14h01.36.854,jersey_experiment_5_v1,2023.2.2,Win32,84.74576271,,,,,,,,,,,,,,,,736.9166,738.7167,738.7168,739.6343,return,0.0885,,33.07291667,,,,,,FBP-RB-19.png,0.35,1.2,56,1,,,,,,,,,,,,,,,,,,0,30,30,55,1,,,,,,,,,,,,,,,,,,,,,,,
,,,,,V1_004,22,female,2024-04-29_14h01.36.854,jersey_experiment_5_v1,2023.2.2,Win32,84.74576271,,,,,,,,,,,,,,,,739.6344,740.9285,740.9285,742.1989,return,0.4371,,39.84375,,,,,,FBP-PT-17.png,0.37,1.2,2,0.5,,,,,,,,,,,,,,,,,,0,31,31,1,1,,,,,,,,,,,,,,,,,,,,,,,
,,,,,V1_004,22,female,2024-04-29_14h01.36.854,jersey_experiment_5_v1,2023.2.2,Win32,84.74576271,,,,,,,,,,,,,,,,742.1991,743.999,743.999,745.0814,return,0.4338,,67.31770833,,,,,,FBP-OG-91.png,0.4,1.2,43,1,,,,,,,,,,,,,,,,,,0,32,32,42,1,,,,,,,,,,,,,,,,,,,,,,,
,,,,,V1_004,22,female,2024-04-29_14h01.36.854,jersey_experiment_5_v1,2023.2.2,Win32,84.74576271,,,,,,,,,,,,,,,,745.0816,746.8816,746.8816,747.5992,return,0.0194,,81.51041667,,,,,,FBP-OG-71.png,0.45,1.2,35,1,,,,,,,,,,,,,,,,,,0,33,33,34,1,,,,,,,,,,,,,,,,,,,,,,,
,,,,,V1_004,22,female,2024-04-29_14h01.36.854,jersey_experiment_5_v1,2023.2.2,Win32,84.74576271,,,,,,,,,,,,,,,,747.5994,749.3993,749.3994,750.1054,return,0.1174,,38.80208333,,,,,,FBP-OG-71.png,0.37,1.2,32,1,,,,,,,,,,,,,,,,,,0,34,34,31,1,,,,,,,,,,,,,,,,,,,,,,,
,,,,,V1_004,22,female,2024-04-29_14h01.36.854,jersey_experiment_5_v1,2023.2.2,Win32,84.74576271,,,,,,,,,,,,,,,,750.1057,751.3993,751.3993,752.517,return,0.0033,,40.75520833,,,,,,FBP-PT-18.png,0.37,1.2,7,0.5,,,,,,,,,,,,,,,,,,0,35,35,6,1,,,,,,,,,,,,,,,,,,,,,,,
,,,,,V1_004,22,female,2024-04-29_14h01.36.854,jersey_experiment_5_v1,2023.2.2,Win32,84.74576271,,,,,,,,,,,,,,,,752.5172,754.317,754.317,755.3524,return,0.0711,,76.5625,,,,,,FBP-OG-91.png,0.45,1.2,45,1,,,,,,,,,,,,,,,,,,0,36,36,44,1,,,,,,,,,,,,,,,,,,,,,,,
,,,,,V1_004,22,female,2024-04-29_14h01.36.854,jersey_experiment_5_v1,2023.2.2,Win32,84.74576271,,,,,,,,,,,,,,,,755.3526,757.1523,757.1523,757.5994,return,0.0192,,76.69270833,,,,,,FBP-OG-81.png,0.4,1.2,38,1,,,,,,,,,,,,,,,,,,0,37,37,37,1,,,,,,,,,,,,,,,,,,,,,,,
,,,,,V1_004,22,female,2024-04-29_14h01.36.854,jersey_experiment_5_v1,2023.2.2,Win32,84.74576271,,,,,,,,,,,,,,,,757.5996,759.3996,759.3997,760.176,return,0.0905,,88.15104167,,,,,,FBP-YG-81.png,0.43,1.2,24,1,,,,,,,,,,,,,,,,,,0,38,38,23,1,,,,,,,,,,,,,,,,,,,,,,,
,,,,,V1_004,22,female,2024-04-29_14h01.36.854,jersey_experiment_5_v1,2023.2.2,Win32,84.74576271,,,,,,,,,,,,,,,,760.1762,761.9761,761.9761,762.5292,return,0.1602,,86.45833333,,,,,,FBP-OG-91.png,0.43,1.2,44,1,,,,,,,,,,,,,,,,,,0,39,39,43,1,,,,,,,,,,,,,,,,,,,,,,,
,,,,,V1_004,22,female,2024-04-29_14h01.36.854,jersey_experiment_5_v1,2023.2.2,Win32,84.74576271,,,,,,,,,,,,,,,,762.5294,763.8233,763.8233,764.5057,return,0.1184,,85.9375,,,,,,FBP-PT-17.png,0.43,1.2,4,0.5,,,,,,,,,,,,,,,,,,0,40,40,3,1,,,,,,,,,,,,,,,,,,,,,,,
,,,,,V1_004,22,female,2024-04-29_14h01.36.854,jersey_experiment_5_v1,2023.2.2,Win32,84.74576271,,,,,,,,,,,,,,,,764.5059,766.3059,766.306,766.9646,return,0.0605,,79.94791667,,,,,,FBP-YG-91.png,0.4,1.2,28,1,,,,,,,,,,,,,,,,,,0,41,41,27,1,,,,,,,,,,,,,,,,,,,,,,,
,,,,,V1_004,22,female,2024-04-29_14h01.36.854,jersey_experiment_5_v1,2023.2.2,Win32,84.74576271,,,,,,,,,,,,,,,,766.9648,768.7647,768.7647,769.2705,return,0.1051,,87.109375,,,,,,FBP-OG-71.png,0.43,1.2,34,1,,,,,,,,,,,,,,,,,,0,42,42,33,1,,,,,,,,,,,,,,,,,,,,,,,
,,,,,V1_004,22,female,2024-04-29_14h01.36.854,jersey_experiment_5_v1,2023.2.2,Win32,84.74576271,,,,,,,,,,,,,,,,769.2708,771.0707,771.0707,771.6236,return,0.0942,,58.85416667,,,,,,FBP-RB-17.png,0.4,1.2,48,1,,,,,,,,,,,,,,,,,,0,43,43,47,1,,,,,,,,,,,,,,,,,,,,,,,
,,,,,V1_004,22,female,2024-04-29_14h01.36.854,jersey_experiment_5_v1,2023.2.2,Win32,84.74576271,,,,,,,,,,,,,,,,771.6238,773.4239,773.4239,773.9765,return,0.0571,,39.84375,,,,,,FBP-YG-71.png,0.35,1.2,16,1,,,,,,,,,,,,,,,,,,0,44,44,15,1,,,,,,,,,,,,,,,,,,,,,,,
,,,,,V1_004,22,female,2024-04-29_14h01.36.854,jersey_experiment_5_v1,2023.2.2,Win32,84.74576271,,,,,,,,,,,,,,,,773.9768,775.7766,775.7766,776.3765,return,0.1519,,40.49479167,,,,,,FBP-OG-71.png,0.4,1.2,33,1,,,,,,,,,,,,,,,,,,0,45,45,32,1,,,,,,,,,,,,,,,,,,,,,,,
,,,,,V1_004,22,female,2024-04-29_14h01.36.854,jersey_experiment_5_v1,2023.2.2,Win32,84.74576271,,,,,,,,,,,,,,,,776.3767,778.1767,778.1768,778.8473,return,0.032,,82.421875,,,,,,FBP-OG-81.png,0.45,1.2,40,1,,,,,,,,,,,,,,,,,,0,46,46,39,1,,,,,,,,,,,,,,,,,,,,,,,
,,,,,V1_004,22,female,2024-04-29_14h01.36.854,jersey_experiment_5_v1,2023.2.2,Win32,84.74576271,,,,,,,,,,,,,,,,778.8475,780.6474,780.6475,781.5063,return,0.0764,,80.98958333,,,,,,FBP-RB-19.png,0.4,1.2,58,1,,,,,,,,,,,,,,,,,,0,47,47,57,1,,,,,,,,,,,,,,,,,,,,,,,
,,,,,V1_004,22,female,2024-04-29_14h01.36.854,jersey_experiment_5_v1,2023.2.2,Win32,84.74576271,,,,,,,,,,,,,,,,781.5065,783.3064,783.3064,784.5536,return,0.202,,81.640625,,,,,,FBP-YG-71.png,0.45,1.2,20,1,,,,,,,,,,,,,,,,,,0,48,48,19,1,,,,,,,,,,,,,,,,,,,,,,,
,,,,,V1_004,22,female,2024-04-29_14h01.36.854,jersey_experiment_5_v1,2023.2.2,Win32,84.74576271,,,,,,,,,,,,,,,,784.5539,785.8476,785.8476,786.8359,return,0.0032,,38.41145833,,,,,,FBP-PT-17.png,0.35,1.2,1,0.5,,,,,,,,,,,,,,,,,,0,49,49,0,1,,,,,,,,,,,,,,,,,,,,,,,
,,,,,V1_004,22,female,2024-04-29_14h01.36.854,jersey_experiment_5_v1,2023.2.2,Win32,84.74576271,,,,,,,,,,,,,,,,786.8361,788.6359,788.6359,789.1889,return,0.1561,,60.546875,,,,,,FBP-YG-91.png,0.43,1.2,29,1,,,,,,,,,,,,,,,,,,0,50,50,28,1,,,,,,,,,,,,,,,,,,,,,,,
,,,,,V1_004,22,female,2024-04-29_14h01.36.854,jersey_experiment_5_v1,2023.2.2,Win32,84.74576271,,,,,,,,,,,,,,,,789.1891,790.9891,790.9892,791.6714,return,0.2124,,39.97395833,,,,,,FBP-YG-81.png,0.35,1.2,21,1,,,,,,,,,,,,,,,,,,0,51,51,20,1,,,,,,,,,,,,,,,,,,,,,,,
,,,,,V1_004,22,female,2024-04-29_14h01.36.854,jersey_experiment_5_v1,2023.2.2,Win32,84.74576271,,,,,,,,,,,,,,,,791.6715,793.4715,793.4715,793.9538,return,0.1331,,36.58854167,,,,,,FBP-YG-91.png,0.35,1.2,26,1,,,,,,,,,,,,,,,,,,0,52,52,25,1,,,,,,,,,,,,,,,,,,,,,,,
,,,,,V1_004,22,female,2024-04-29_14h01.36.854,jersey_experiment_5_v1,2023.2.2,Win32,84.74576271,,,,,,,,,,,,,,,,793.954,795.754,795.754,796.6715,return,0.1245,,71.484375,,,,,,FBP-YG-91.png,0.45,1.2,30,1,,,,,,,,,,,,,,,,,,0,53,53,29,1,,,,,,,,,,,,,,,,,,,,,,,
,,,,,V1_004,22,female,2024-04-29_14h01.36.854,jersey_experiment_5_v1,2023.2.2,Win32,84.74576271,,,,,,,,,,,,,,,,796.6717,798.4715,798.4715,799.0128,return,0.059,,83.984375,,,,,,FBP-YG-81.png,0.45,1.2,25,1,,,,,,,,,,,,,,,,,,0,54,54,24,1,,,,,,,,,,,,,,,,,,,,,,,
,,,,,V1_004,22,female,2024-04-29_14h01.36.854,jersey_experiment_5_v1,2023.2.2,Win32,84.74576271,,,,,,,,,,,,,,,,799.0131,800.3069,800.307,801.0716,return,0.0436,,83.59375,,,,,,FBP-PT-19.png,0.45,1.2,15,0.5,,,,,,,,,,,,,,,,,,0,55,55,14,1,,,,,,,,,,,,,,,,,,,,,,,
,,,,,V1_004,22,female,2024-04-29_14h01.36.854,jersey_experiment_5_v1,2023.2.2,Win32,84.74576271,,,,,,,,,,,,,,,,801.0719,802.3659,802.3659,803.4128,return,0.0609,,69.27083333,,,,,,FBP-PT-19.png,0.43,1.2,14,0.5,,,,,,,,,,,,,,,,,,0,56,56,13,1,,,,,,,,,,,,,,,,,,,,,,,
,,,,,V1_004,22,female,2024-04-29_14h01.36.854,jersey_experiment_5_v1,2023.2.2,Win32,84.74576271,,,,,,,,,,,,,,,,803.4131,804.7071,804.7071,805.9895,return,0.0478,,39.84375,,,,,,FBP-PT-19.png,0.4,1.2,13,0.5,,,,,,,,,,,,,,,,,,0,57,57,12,1,,,,,,,,,,,,,,,,,,,,,,,
,,,,,V1_004,22,female,2024-04-29_14h01.36.854,jersey_experiment_5_v1,2023.2.2,Win32,84.74576271,,,,,,,,,,,,,,,,805.9898,807.7895,807.7895,808.272,return,0.1139,,40.49479167,,,,,,FBP-YG-71.png,0.37,1.2,17,1,,,,,,,,,,,,,,,,,,0,58,58,16,1,,,,,,,,,,,,,,,,,,,,,,,
,,,,,V1_004,22,female,2024-04-29_14h01.36.854,jersey_experiment_5_v1,2023.2.2,Win32,84.74576271,,,,,,,,,,,,,,,,808.2722,809.5662,809.5662,810.6603,return,0.0144,,25.26041667,,,,,,FBP-PT-19.png,0.35,1.2,11,0.5,,,,,,,,,,,,,,,,,,0,59,59,10,1,,,,,,,,,,,,,,,,,,,,,,,
,,,,,V1_004,22,female,2024-04-29_14h01.36.854,jersey_experiment_5_v1,2023.2.2,Win32,84.74576271,,,,,,,,,,,,,,,,,,,,,,,,,,,,,,,,,,,,,,,,,,,,,,,,,,,,,,,,810.6606,813.3194,return,2.646,,,,,,,,,,,,,,,,,,,
,,,,,V1_004,22,female,2024-04-29_14h01.36.854,jersey_experiment_5_v1,2023.2.2,Win32,84.74576271,,,,,,,,,,,,,,,,,,,,,,,,,,,,,,,,,,,,,,,,,,,,,,,,,,,,,,,,,,,,,813.3196,815.2019,1,1.6712,return,0.1942,,,,,,,,,,,,
,,,,,V1_004,22,female,2024-04-29_14h01.36.854,jersey_experiment_5_v1,2023.2.2,Win32,84.74576271,,,,,,,,,,,,,,,,,,,,,,,,,,,,,,,,,,,,,,,,,,,,,,,,,,,,,,,,,,,,,,,,,,,,815.2019,833.4779,race and body size stereotypes,right,15.1475,,,,,,
,,,,,V1_004,22,female,2024-04-29_14h01.36.854,jersey_experiment_5_v1,2023.2.2,Win32,84.74576271,,,,,,,,,,,,,,,,,,,,,,,,,,,,,,,,,,,,,,,,,,,,,,,,,,,,,,,,,,,,,,,,,,,,,,,,,,833.4779,836.0848,return,2.5977,