requirements.started,requirements.stopped,key_resp_3.keys,key_resp_3.rt,key_resp_3.duration,Subject ID,Age,Gender,date,expName,psychopyVersion,OS,frameRate,instructions1.started,instructions1.stopped,key_resp.keys,key_resp.rt,key_resp.duration,example.started,example.stopped,enter_2.keys,enter_2.rt,enter_2.duration,instructions2.started,instructions2.stopped,enter_3.keys,enter_3.rt,enter_3.duration,image.started,image.stopped,slider_2.started,slider_2.stopped,next.keys,next.rt,next.duration,slider.response,trial_block_1.thisRepN,trial_block_1.thisTrialN,trial_block_1.thisN,trial_block_1.thisIndex,trial_block_1.ran,Path,Width,Height,Index,Duration,trial_block_2.thisRepN,trial_block_2.thisTrialN,trial_block_2.thisN,trial_block_2.thisIndex,trial_block_2.ran,rest_break.started,rest_break.stopped,end_break.started,end_break.stopped,key_resp_5.keys,key_resp_5.rt,key_resp_5.duration,trial_block_3.thisRepN,trial_block_3.thisTrialN,trial_block_3.thisN,trial_block_3.thisIndex,trial_block_3.ran,trial_block_4.thisRepN,trial_block_4.thisTrialN,trial_block_4.thisN,trial_block_4.thisIndex,trial_block_4.ran,questions_intro.started,questions_intro.stopped,enter_12.keys,enter_12.rt,enter_12.duration,question2.started,question2.stopped,question_doingbest.response,question_doingbest.rt,enter_15.keys,enter_15.rt,enter_15.duration,pattern.started,pattern.stopped,pattern_2.text,enter_17.keys,enter_17.rt,enter_17.duration,thankyou.started,thankyou.stopped,enter_14.keys,enter_14.rt,enter_14.duration
0.0001,6.148,return,6.1387,,v1_029,19,Female,2024-05-22_08h59.37.845,jersey_experiment_5_v1,2023.2.2,Win32,84.74576271,,,,,,,,,,,,,,,,,,,,,,,,,,,,,,,,,,,,,,,,,,,,,,,,,,,,,,,,,,,,,,,,,,,,,,,,,,,,,,
,,,,,v1_029,19,Female,2024-05-22_08h59.37.845,jersey_experiment_5_v1,2023.2.2,Win32,84.74576271,6.1483,17.3719,return,11.2065,,,,,,,,,,,,,,,,,,,,,,,,,,,,,,,,,,,,,,,,,,,,,,,,,,,,,,,,,,,,,,,,,,,,,,,,,,
,,,,,v1_029,19,Female,2024-05-22_08h59.37.845,jersey_experiment_5_v1,2023.2.2,Win32,84.74576271,,,,,,17.372,20.8895,return,3.4851,,,,,,,,,,,,,,,,,,,,,,,,,,,,,,,,,,,,,,,,,,,,,,,,,,,,,,,,,,,,,,,,,,,,,
,,,,,v1_029,19,Female,2024-05-22_08h59.37.845,jersey_experiment_5_v1,2023.2.2,Win32,84.74576271,,,,,,,,,,,20.8896,31.0195,return,10.1235,,,,,,,,,,,,,,,,,,,,,,,,,,,,,,,,,,,,,,,,,,,,,,,,,,,,,,,,,,,,,,,,
,,,,,v1_029,19,Female,2024-05-22_08h59.37.845,jersey_experiment_5_v1,2023.2.2,Win32,84.74576271,,,,,,,,,,,,,,,,31.0265,32.3251,32.3252,37.1841,return,1.908,,74.609375,0,0,0,40,1,FBP-OG-19.png,0.35,1.2,41,0.5,,,,,,,,,,,,,,,,,,,,,,,,,,,,,,,,,,,,,,,,,,,,,
,,,,,v1_029,19,Female,2024-05-22_08h59.37.845,jersey_experiment_5_v1,2023.2.2,Win32,84.74576271,,,,,,,,,,,,,,,,37.1846,38.478,38.4781,42.043,return,1.1484,,75,0,1,1,31,1,FBP-OG-17.png,0.37,1.2,32,0.5,,,,,,,,,,,,,,,,,,,,,,,,,,,,,,,,,,,,,,,,,,,,,
,,,,,v1_029,19,Female,2024-05-22_08h59.37.845,jersey_experiment_5_v1,2023.2.2,Win32,84.74576271,,,,,,,,,,,,,,,,42.0433,43.3369,43.3371,48.255,return,3.2616,,88.02083333,0,2,2,26,1,FBP-YG-19.png,0.37,1.2,27,0.5,,,,,,,,,,,,,,,,,,,,,,,,,,,,,,,,,,,,,,,,,,,,,
,,,,,v1_029,19,Female,2024-05-22_08h59.37.845,jersey_experiment_5_v1,2023.2.2,Win32,84.74576271,,,,,,,,,,,,,,,,48.2552,49.549,49.5491,52.3961,return,0.982,,95.3125,0,3,3,49,1,FBP-RB-71.png,0.45,1.2,50,0.5,,,,,,,,,,,,,,,,,,,,,,,,,,,,,,,,,,,,,,,,,,,,,
,,,,,v1_029,19,Female,2024-05-22_08h59.37.845,jersey_experiment_5_v1,2023.2.2,Win32,84.74576271,,,,,,,,,,,,,,,,52.3964,53.6905,53.6905,57.0553,return,1.1324,,97.13541667,0,4,4,44,1,FBP-OG-19.png,0.45,1.2,45,0.5,,,,,,,,,,,,,,,,,,,,,,,,,,,,,,,,,,,,,,,,,,,,,
,,,,,v1_029,19,Female,2024-05-22_08h59.37.845,jersey_experiment_5_v1,2023.2.2,Win32,84.74576271,,,,,,,,,,,,,,,,57.0555,58.8553,58.8553,62.079,return,1.156,,42.83854167,0,5,5,10,1,FBP-PT-91.png,0.35,1.2,11,1,,,,,,,,,,,,,,,,,,,,,,,,,,,,,,,,,,,,,,,,,,,,,
,,,,,v1_029,19,Female,2024-05-22_08h59.37.845,jersey_experiment_5_v1,2023.2.2,Win32,84.74576271,,,,,,,,,,,,,,,,62.0792,63.3732,63.3732,66.3966,return,0.9463,,82.94270833,0,6,6,33,1,FBP-OG-17.png,0.43,1.2,34,0.5,,,,,,,,,,,,,,,,,,,,,,,,,,,,,,,,,,,,,,,,,,,,,
,,,,,v1_029,19,Female,2024-05-22_08h59.37.845,jersey_experiment_5_v1,2023.2.2,Win32,84.74576271,,,,,,,,,,,,,,,,66.3968,67.6909,67.6909,71.7734,return,1.2283,,74.73958333,0,7,7,35,1,FBP-OG-18.png,0.35,1.2,36,0.5,,,,,,,,,,,,,,,,,,,,,,,,,,,,,,,,,,,,,,,,,,,,,
,,,,,v1_029,19,Female,2024-05-22_08h59.37.845,jersey_experiment_5_v1,2023.2.2,Win32,84.74576271,,,,,,,,,,,,,,,,71.7736,73.5733,73.5734,76.4441,return,1.2532,,44.66145833,0,8,8,1,1,FBP-PT-71.png,0.37,1.2,2,1,,,,,,,,,,,,,,,,,,,,,,,,,,,,,,,,,,,,,,,,,,,,,
,,,,,v1_029,19,Female,2024-05-22_08h59.37.845,jersey_experiment_5_v1,2023.2.2,Win32,84.74576271,,,,,,,,,,,,,,,,76.4444,78.2442,78.2442,80.6559,return,1.0822,,66.92708333,0,9,9,7,1,FBP-PT-81.png,0.4,1.2,8,1,,,,,,,,,,,,,,,,,,,,,,,,,,,,,,,,,,,,,,,,,,,,,
,,,,,v1_029,19,Female,2024-05-22_08h59.37.845,jersey_experiment_5_v1,2023.2.2,Win32,84.74576271,,,,,,,,,,,,,,,,80.6562,81.9501,81.9502,86.209,return,1.4448,,56.25,0,10,10,17,1,FBP-YG-17.png,0.4,1.2,18,0.5,,,,,,,,,,,,,,,,,,,,,,,,,,,,,,,,,,,,,,,,,,,,,
,,,,,v1_029,19,Female,2024-05-22_08h59.37.845,jersey_experiment_5_v1,2023.2.2,Win32,84.74576271,,,,,,,,,,,,,,,,86.2093,87.5034,87.5035,90.9858,return,1.0654,,75.13020833,0,11,11,57,1,FBP-RB-91.png,0.4,1.2,58,0.5,,,,,,,,,,,,,,,,,,,,,,,,,,,,,,,,,,,,,,,,,,,,,
,,,,,v1_029,19,Female,2024-05-22_08h59.37.845,jersey_experiment_5_v1,2023.2.2,Win32,84.74576271,,,,,,,,,,,,,,,,90.9861,92.2799,92.2799,93.986,return,0.3055,,82.94270833,0,12,12,52,1,FBP-RB-81.png,0.4,1.2,53,0.5,,,,,,,,,,,,,,,,,,,,,,,,,,,,,,,,,,,,,,,,,,,,,
,,,,,v1_029,19,Female,2024-05-22_08h59.37.845,jersey_experiment_5_v1,2023.2.2,Win32,84.74576271,,,,,,,,,,,,,,,,93.9862,95.2801,95.2801,97.5861,return,0.5566,,24.86979167,0,13,13,50,1,FBP-RB-81.png,0.35,1.2,51,0.5,,,,,,,,,,,,,,,,,,,,,,,,,,,,,,,,,,,,,,,,,,,,,
,,,,,v1_029,19,Female,2024-05-22_08h59.37.845,jersey_experiment_5_v1,2023.2.2,Win32,84.74576271,,,,,,,,,,,,,,,,97.5863,98.8802,98.8802,102.2331,return,0.4069,,87.890625,0,14,14,38,1,FBP-OG-18.png,0.43,1.2,39,0.5,,,,,,,,,,,,,,,,,,,,,,,,,,,,,,,,,,,,,,,,,,,,,
,,,,,v1_029,19,Female,2024-05-22_08h59.37.845,jersey_experiment_5_v1,2023.2.2,Win32,84.74576271,,,,,,,,,,,,,,,,102.2334,104.0334,104.0334,105.7274,return,0.3778,,90.234375,0,15,15,3,1,FBP-PT-71.png,0.43,1.2,4,1,,,,,,,,,,,,,,,,,,,,,,,,,,,,,,,,,,,,,,,,,,,,,
,,,,,v1_029,19,Female,2024-05-22_08h59.37.845,jersey_experiment_5_v1,2023.2.2,Win32,84.74576271,,,,,,,,,,,,,,,,105.7277,107.0217,107.0217,109.0923,return,0.4591,,24.47916667,0,16,16,36,1,FBP-OG-18.png,0.37,1.2,37,0.5,,,,,,,,,,,,,,,,,,,,,,,,,,,,,,,,,,,,,,,,,,,,,
,,,,,v1_029,19,Female,2024-05-22_08h59.37.845,jersey_experiment_5_v1,2023.2.2,Win32,84.74576271,,,,,,,,,,,,,,,,109.0926,110.3865,110.3866,112.7866,return,1.5054,,20.96354167,0,17,17,16,1,FBP-YG-17.png,0.37,1.2,17,0.5,,,,,,,,,,,,,,,,,,,,,,,,,,,,,,,,,,,,,,,,,,,,,
,,,,,v1_029,19,Female,2024-05-22_08h59.37.845,jersey_experiment_5_v1,2023.2.2,Win32,84.74576271,,,,,,,,,,,,,,,,112.7868,114.0807,114.0807,116.9749,return,1.2268,,50.390625,0,18,18,47,1,FBP-RB-71.png,0.4,1.2,48,0.5,,,,,,,,,,,,,,,,,,,,,,,,,,,,,,,,,,,,,,,,,,,,,
,,,,,v1_029,19,Female,2024-05-22_08h59.37.845,jersey_experiment_5_v1,2023.2.2,Win32,84.74576271,,,,,,,,,,,,,,,,116.975,118.269,118.2691,120.2808,return,0.5615,,91.27604167,0,19,19,54,1,FBP-RB-81.png,0.45,1.2,55,0.5,,,,,,,,,,,,,,,,,,,,,,,,,,,,,,,,,,,,,,,,,,,,,
,,,,,v1_029,19,Female,2024-05-22_08h59.37.845,jersey_experiment_5_v1,2023.2.2,Win32,84.74576271,,,,,,,,,,,,,,,,120.281,122.0809,122.0809,124.9399,return,0.6766,,24.34895833,0,20,20,5,1,FBP-PT-81.png,0.35,1.2,6,1,,,,,,,,,,,,,,,,,,,,,,,,,,,,,,,,,,,,,,,,,,,,,
,,,,,v1_029,19,Female,2024-05-22_08h59.37.845,jersey_experiment_5_v1,2023.2.2,Win32,84.74576271,,,,,,,,,,,,,,,,124.9401,126.7399,126.74,129.0694,return,0.4401,,94.140625,0,21,21,9,1,FBP-PT-81.png,0.45,1.2,10,1,,,,,,,,,,,,,,,,,,,,,,,,,,,,,,,,,,,,,,,,,,,,,
,,,,,v1_029,19,Female,2024-05-22_08h59.37.845,jersey_experiment_5_v1,2023.2.2,Win32,84.74576271,,,,,,,,,,,,,,,,129.0696,130.3637,130.3637,132.8342,return,0.4823,,50.26041667,0,22,22,27,1,FBP-YG-19.png,0.4,1.2,28,0.5,,,,,,,,,,,,,,,,,,,,,,,,,,,,,,,,,,,,,,,,,,,,,
,,,,,v1_029,19,Female,2024-05-22_08h59.37.845,jersey_experiment_5_v1,2023.2.2,Win32,84.74576271,,,,,,,,,,,,,,,,132.8345,134.1284,134.1285,136.0343,return,0.5631,,85.41666667,0,23,23,34,1,FBP-OG-17.png,0.45,1.2,35,0.5,,,,,,,,,,,,,,,,,,,,,,,,,,,,,,,,,,,,,,,,,,,,,
,,,,,v1_029,19,Female,2024-05-22_08h59.37.845,jersey_experiment_5_v1,2023.2.2,Win32,84.74576271,,,,,,,,,,,,,,,,136.0346,137.8345,137.8346,139.9404,return,0.8239,,16.27604167,0,24,24,0,1,FBP-PT-71.png,0.35,1.2,1,1,,,,,,,,,,,,,,,,,,,,,,,,,,,,,,,,,,,,,,,,,,,,,
,,,,,v1_029,19,Female,2024-05-22_08h59.37.845,jersey_experiment_5_v1,2023.2.2,Win32,84.74576271,,,,,,,,,,,,,,,,139.9408,141.2344,141.2345,143.6112,return,0.7451,,76.69270833,0,25,25,28,1,FBP-YG-19.png,0.43,1.2,29,0.5,,,,,,,,,,,,,,,,,,,,,,,,,,,,,,,,,,,,,,,,,,,,,
,,,,,v1_029,19,Female,2024-05-22_08h59.37.845,jersey_experiment_5_v1,2023.2.2,Win32,84.74576271,,,,,,,,,,,,,,,,143.6114,144.9053,144.9053,147.917,return,1.2483,,24.08854167,0,26,26,51,1,FBP-RB-81.png,0.37,1.2,52,0.5,,,,,,,,,,,,,,,,,,,,,,,,,,,,,,,,,,,,,,,,,,,,,
,,,,,v1_029,19,Female,2024-05-22_08h59.37.845,jersey_experiment_5_v1,2023.2.2,Win32,84.74576271,,,,,,,,,,,,,,,,147.9173,149.2113,149.2113,151.9173,return,1.1902,,79.42708333,0,27,27,43,1,FBP-OG-19.png,0.43,1.2,44,0.5,,,,,,,,,,,,,,,,,,,,,,,,,,,,,,,,,,,,,,,,,,,,,
,,,,,v1_029,19,Female,2024-05-22_08h59.37.845,jersey_experiment_5_v1,2023.2.2,Win32,84.74576271,,,,,,,,,,,,,,,,151.9175,153.2115,153.2115,155.6468,return,0.9521,,64.97395833,0,28,28,37,1,FBP-OG-18.png,0.4,1.2,38,0.5,,,,,,,,,,,,,,,,,,,,,,,,,,,,,,,,,,,,,,,,,,,,,
,,,,,v1_029,19,Female,2024-05-22_08h59.37.845,jersey_experiment_5_v1,2023.2.2,Win32,84.74576271,,,,,,,,,,,,,,,,155.6469,156.9409,156.941,159.2822,return,0.5897,,14.97395833,0,29,29,15,1,FBP-YG-17.png,0.35,1.2,16,0.5,,,,,,,,,,,,,,,,,,,,,,,,,,,,,,,,,,,,,,,,,,,,,
,,,,,v1_029,19,Female,2024-05-22_08h59.37.845,jersey_experiment_5_v1,2023.2.2,Win32,84.74576271,,,,,,,,,,,,,,,,159.2825,160.5763,160.5763,162.7293,return,0.4438,,89.19270833,0,30,30,59,1,FBP-RB-91.png,0.45,1.2,60,0.5,,,,,,,,,,,,,,,,,,,,,,,,,,,,,,,,,,,,,,,,,,,,,
,,,,,v1_029,19,Female,2024-05-22_08h59.37.845,jersey_experiment_5_v1,2023.2.2,Win32,84.74576271,,,,,,,,,,,,,,,,162.7296,164.0236,164.0236,165.7412,return,0.4992,,77.60416667,0,31,31,23,1,FBP-YG-18.png,0.43,1.2,24,0.5,,,,,,,,,,,,,,,,,,,,,,,,,,,,,,,,,,,,,,,,,,,,,
,,,,,v1_029,19,Female,2024-05-22_08h59.37.845,jersey_experiment_5_v1,2023.2.2,Win32,84.74576271,,,,,,,,,,,,,,,,165.7415,167.0354,167.0354,169.1532,return,0.4481,,86.97916667,0,32,32,48,1,FBP-RB-71.png,0.43,1.2,49,0.5,,,,,,,,,,,,,,,,,,,,,,,,,,,,,,,,,,,,,,,,,,,,,
,,,,,v1_029,19,Female,2024-05-22_08h59.37.845,jersey_experiment_5_v1,2023.2.2,Win32,84.74576271,,,,,,,,,,,,,,,,169.1535,170.4472,170.4472,172.3297,return,0.7847,,86.97916667,0,33,33,19,1,FBP-YG-17.png,0.45,1.2,20,0.5,,,,,,,,,,,,,,,,,,,,,,,,,,,,,,,,,,,,,,,,,,,,,
,,,,,v1_029,19,Female,2024-05-22_08h59.37.845,jersey_experiment_5_v1,2023.2.2,Win32,84.74576271,,,,,,,,,,,,,,,,172.33,173.6239,173.6239,176.7182,return,1.1208,,8.203125,0,34,34,55,1,FBP-RB-91.png,0.35,1.2,56,0.5,,,,,,,,,,,,,,,,,,,,,,,,,,,,,,,,,,,,,,,,,,,,,
,,,,,v1_029,19,Female,2024-05-22_08h59.37.845,jersey_experiment_5_v1,2023.2.2,Win32,84.74576271,,,,,,,,,,,,,,,,176.7184,178.0122,178.0123,181.3888,return,1.8287,,81.77083333,0,35,35,29,1,FBP-YG-19.png,0.45,1.2,30,0.5,,,,,,,,,,,,,,,,,,,,,,,,,,,,,,,,,,,,,,,,,,,,,
,,,,,v1_029,19,Female,2024-05-22_08h59.37.845,jersey_experiment_5_v1,2023.2.2,Win32,84.74576271,,,,,,,,,,,,,,,,181.389,182.683,182.683,185.3538,return,0.2202,,50.13020833,0,36,36,21,1,FBP-YG-18.png,0.37,1.2,22,0.5,,,,,,,,,,,,,,,,,,,,,,,,,,,,,,,,,,,,,,,,,,,,,
,,,,,v1_029,19,Female,2024-05-22_08h59.37.845,jersey_experiment_5_v1,2023.2.2,Win32,84.74576271,,,,,,,,,,,,,,,,185.354,186.6477,186.6477,188.8127,return,0.6276,,10.67708333,0,37,37,20,1,FBP-YG-18.png,0.35,1.2,21,0.5,,,,,,,,,,,,,,,,,,,,,,,,,,,,,,,,,,,,,,,,,,,,,
,,,,,v1_029,19,Female,2024-05-22_08h59.37.845,jersey_experiment_5_v1,2023.2.2,Win32,84.74576271,,,,,,,,,,,,,,,,188.8129,190.6129,190.6129,192.1893,return,0.3812,,50,0,38,38,12,1,FBP-PT-91.png,0.4,1.2,13,1,,,,,,,,,,,,,,,,,,,,,,,,,,,,,,,,,,,,,,,,,,,,,
,,,,,v1_029,19,Female,2024-05-22_08h59.37.845,jersey_experiment_5_v1,2023.2.2,Win32,84.74576271,,,,,,,,,,,,,,,,192.1895,193.4833,193.4834,195.6482,return,0.4025,,89.71354167,0,39,39,58,1,FBP-RB-91.png,0.43,1.2,59,0.5,,,,,,,,,,,,,,,,,,,,,,,,,,,,,,,,,,,,,,,,,,,,,
,,,,,v1_029,19,Female,2024-05-22_08h59.37.845,jersey_experiment_5_v1,2023.2.2,Win32,84.74576271,,,,,,,,,,,,,,,,195.6484,196.9423,196.9423,199.2249,return,0.3506,,61.19791667,0,40,40,22,1,FBP-YG-18.png,0.4,1.2,23,0.5,,,,,,,,,,,,,,,,,,,,,,,,,,,,,,,,,,,,,,,,,,,,,
,,,,,v1_029,19,Female,2024-05-22_08h59.37.845,jersey_experiment_5_v1,2023.2.2,Win32,84.74576271,,,,,,,,,,,,,,,,199.2251,200.5189,200.519,203.5307,return,1.5697,,72.13541667,0,41,41,42,1,FBP-OG-19.png,0.4,1.2,43,0.5,,,,,,,,,,,,,,,,,,,,,,,,,,,,,,,,,,,,,,,,,,,,,
,,,,,v1_029,19,Female,2024-05-22_08h59.37.845,jersey_experiment_5_v1,2023.2.2,Win32,84.74576271,,,,,,,,,,,,,,,,203.5309,205.3309,205.3309,206.6014,return,0.267,,89.453125,0,42,42,13,1,FBP-PT-91.png,0.43,1.2,14,1,,,,,,,,,,,,,,,,,,,,,,,,,,,,,,,,,,,,,,,,,,,,,
,,,,,v1_029,19,Female,2024-05-22_08h59.37.845,jersey_experiment_5_v1,2023.2.2,Win32,84.74576271,,,,,,,,,,,,,,,,206.6016,208.4014,208.4014,209.9545,return,0.2692,,49.21875,0,43,43,6,1,FBP-PT-81.png,0.37,1.2,7,1,,,,,,,,,,,,,,,,,,,,,,,,,,,,,,,,,,,,,,,,,,,,,
,,,,,v1_029,19,Female,2024-05-22_08h59.37.845,jersey_experiment_5_v1,2023.2.2,Win32,84.74576271,,,,,,,,,,,,,,,,209.9545,211.2486,211.2486,213.4722,return,0.1776,,53.25520833,0,44,44,46,1,FBP-RB-71.png,0.37,1.2,47,0.5,,,,,,,,,,,,,,,,,,,,,,,,,,,,,,,,,,,,,,,,,,,,,
,,,,,v1_029,19,Female,2024-05-22_08h59.37.845,jersey_experiment_5_v1,2023.2.2,Win32,84.74576271,,,,,,,,,,,,,,,,213.4723,214.7692,214.7692,216.3665,return,0.3289,,80.59895833,0,45,45,39,1,FBP-OG-18.png,0.45,1.2,40,0.5,,,,,,,,,,,,,,,,,,,,,,,,,,,,,,,,,,,,,,,,,,,,,
,,,,,v1_029,19,Female,2024-05-22_08h59.37.845,jersey_experiment_5_v1,2023.2.2,Win32,84.74576271,,,,,,,,,,,,,,,,216.3667,218.1665,218.1665,219.7463,return,0.3969,,61.58854167,0,46,46,2,1,FBP-PT-71.png,0.4,1.2,3,1,,,,,,,,,,,,,,,,,,,,,,,,,,,,,,,,,,,,,,,,,,,,,
,,,,,v1_029,19,Female,2024-05-22_08h59.37.845,jersey_experiment_5_v1,2023.2.2,Win32,84.74576271,,,,,,,,,,,,,,,,219.7464,221.049,221.0491,222.4607,return,0.2988,,15.234375,0,47,47,25,1,FBP-YG-19.png,0.35,1.2,26,0.5,,,,,,,,,,,,,,,,,,,,,,,,,,,,,,,,,,,,,,,,,,,,,
,,,,,v1_029,19,Female,2024-05-22_08h59.37.845,jersey_experiment_5_v1,2023.2.2,Win32,84.74576271,,,,,,,,,,,,,,,,222.4609,223.7549,223.7549,225.0726,return,0.3182,,13.671875,0,48,48,56,1,FBP-RB-91.png,0.37,1.2,57,0.5,,,,,,,,,,,,,,,,,,,,,,,,,,,,,,,,,,,,,,,,,,,,,
,,,,,v1_029,19,Female,2024-05-22_08h59.37.845,jersey_experiment_5_v1,2023.2.2,Win32,84.74576271,,,,,,,,,,,,,,,,225.0728,226.3668,226.3668,227.8671,return,0.4503,,8.463541667,0,49,49,30,1,FBP-OG-17.png,0.35,1.2,31,0.5,,,,,,,,,,,,,,,,,,,,,,,,,,,,,,,,,,,,,,,,,,,,,
,,,,,v1_029,19,Female,2024-05-22_08h59.37.845,jersey_experiment_5_v1,2023.2.2,Win32,84.74576271,,,,,,,,,,,,,,,,227.8672,229.1669,229.1669,231.0676,return,0.4154,,56.11979167,0,50,50,24,1,FBP-YG-18.png,0.45,1.2,25,0.5,,,,,,,,,,,,,,,,,,,,,,,,,,,,,,,,,,,,,,,,,,,,,
,,,,,v1_029,19,Female,2024-05-22_08h59.37.845,jersey_experiment_5_v1,2023.2.2,Win32,84.74576271,,,,,,,,,,,,,,,,231.0677,232.367,232.367,234.1115,return,0.3769,,2.34375,0,51,51,45,1,FBP-RB-71.png,0.35,1.2,46,0.5,,,,,,,,,,,,,,,,,,,,,,,,,,,,,,,,,,,,,,,,,,,,,
,,,,,v1_029,19,Female,2024-05-22_08h59.37.845,jersey_experiment_5_v1,2023.2.2,Win32,84.74576271,,,,,,,,,,,,,,,,234.1116,235.9039,235.9039,238.2025,return,1.3952,,91.14583333,0,52,52,4,1,FBP-PT-71.png,0.45,1.2,5,1,,,,,,,,,,,,,,,,,,,,,,,,,,,,,,,,,,,,,,,,,,,,,
,,,,,v1_029,19,Female,2024-05-22_08h59.37.845,jersey_experiment_5_v1,2023.2.2,Win32,84.74576271,,,,,,,,,,,,,,,,238.2026,240.0026,240.0027,242.3204,return,0.4602,,51.69270833,0,53,53,11,1,FBP-PT-91.png,0.37,1.2,12,1,,,,,,,,,,,,,,,,,,,,,,,,,,,,,,,,,,,,,,,,,,,,,
,,,,,v1_029,19,Female,2024-05-22_08h59.37.845,jersey_experiment_5_v1,2023.2.2,Win32,84.74576271,,,,,,,,,,,,,,,,242.3205,244.1204,244.1204,245.6734,return,0.2402,,89.71354167,0,54,54,14,1,FBP-PT-91.png,0.45,1.2,15,1,,,,,,,,,,,,,,,,,,,,,,,,,,,,,,,,,,,,,,,,,,,,,
,,,,,v1_029,19,Female,2024-05-22_08h59.37.845,jersey_experiment_5_v1,2023.2.2,Win32,84.74576271,,,,,,,,,,,,,,,,245.6735,246.9706,246.9706,248.6499,return,0.3812,,86.71875,0,55,55,18,1,FBP-YG-17.png,0.43,1.2,19,0.5,,,,,,,,,,,,,,,,,,,,,,,,,,,,,,,,,,,,,,,,,,,,,
,,,,,v1_029,19,Female,2024-05-22_08h59.37.845,jersey_experiment_5_v1,2023.2.2,Win32,84.74576271,,,,,,,,,,,,,,,,248.6501,249.944,249.9441,251.6619,return,0.3531,,11.58854167,0,56,56,41,1,FBP-OG-19.png,0.37,1.2,42,0.5,,,,,,,,,,,,,,,,,,,,,,,,,,,,,,,,,,,,,,,,,,,,,
,,,,,v1_029,19,Female,2024-05-22_08h59.37.845,jersey_experiment_5_v1,2023.2.2,Win32,84.74576271,,,,,,,,,,,,,,,,251.662,252.9623,252.9623,254.7326,return,0.2048,,48.95833333,0,57,57,32,1,FBP-OG-17.png,0.4,1.2,33,0.5,,,,,,,,,,,,,,,,,,,,,,,,,,,,,,,,,,,,,,,,,,,,,
,,,,,v1_029,19,Female,2024-05-22_08h59.37.845,jersey_experiment_5_v1,2023.2.2,Win32,84.74576271,,,,,,,,,,,,,,,,254.7327,256.5325,256.5325,258.415,return,0.5202,,85.546875,0,58,58,8,1,FBP-PT-81.png,0.43,1.2,9,1,,,,,,,,,,,,,,,,,,,,,,,,,,,,,,,,,,,,,,,,,,,,,
,,,,,v1_029,19,Female,2024-05-22_08h59.37.845,jersey_experiment_5_v1,2023.2.2,Win32,84.74576271,,,,,,,,,,,,,,,,258.4153,259.7092,259.7092,261.9836,return,0.2595,,90.36458333,0,59,59,53,1,FBP-RB-81.png,0.43,1.2,54,0.5,,,,,,,,,,,,,,,,,,,,,,,,,,,,,,,,,,,,,,,,,,,,,
,,,,,v1_029,19,Female,2024-05-22_08h59.37.845,jersey_experiment_5_v1,2023.2.2,Win32,84.74576271,,,,,,,,,,,,,,,,261.9855,263.2857,263.2858,264.8301,return,0.3497,,6.25,,,,,,FBP-OG-81.png,0.35,1.2,36,0.5,0,0,0,35,1,,,,,,,,,,,,,,,,,,,,,,,,,,,,,,,,,,,,,,,,
,,,,,v1_029,19,Female,2024-05-22_08h59.37.845,jersey_experiment_5_v1,2023.2.2,Win32,84.74576271,,,,,,,,,,,,,,,,264.8303,266.1329,266.1329,269.1388,return,0.3439,,46.484375,,,,,,FBP-OG-91.png,0.37,1.2,42,0.5,0,1,1,41,1,,,,,,,,,,,,,,,,,,,,,,,,,,,,,,,,,,,,,,,,
,,,,,v1_029,19,Female,2024-05-22_08h59.37.845,jersey_experiment_5_v1,2023.2.2,Win32,84.74576271,,,,,,,,,,,,,,,,269.1389,270.9365,270.9365,273.4807,return,0.4739,,81.11979167,,,,,,FBP-PT-18.png,0.43,1.2,9,1,0,2,2,8,1,,,,,,,,,,,,,,,,,,,,,,,,,,,,,,,,,,,,,,,,
,,,,,v1_029,19,Female,2024-05-22_08h59.37.845,jersey_experiment_5_v1,2023.2.2,Win32,84.74576271,,,,,,,,,,,,,,,,273.4808,275.2745,275.2746,276.8422,return,0.4003,,19.921875,,,,,,FBP-PT-17.png,0.37,1.2,2,1,0,3,3,1,1,,,,,,,,,,,,,,,,,,,,,,,,,,,,,,,,,,,,,,,,
,,,,,v1_029,19,Female,2024-05-22_08h59.37.845,jersey_experiment_5_v1,2023.2.2,Win32,84.74576271,,,,,,,,,,,,,,,,276.8424,278.1451,278.1451,280.6274,return,0.8822,,87.76041667,,,,,,FBP-OG-91.png,0.45,1.2,45,0.5,0,4,4,44,1,,,,,,,,,,,,,,,,,,,,,,,,,,,,,,,,,,,,,,,,
,,,,,v1_029,19,Female,2024-05-22_08h59.37.845,jersey_experiment_5_v1,2023.2.2,Win32,84.74576271,,,,,,,,,,,,,,,,280.6275,281.9217,281.9217,284.0705,return,0.3895,,84.89583333,,,,,,FBP-YG-81.png,0.43,1.2,24,0.5,0,5,5,23,1,,,,,,,,,,,,,,,,,,,,,,,,,,,,,,,,,,,,,,,,
,,,,,v1_029,19,Female,2024-05-22_08h59.37.845,jersey_experiment_5_v1,2023.2.2,Win32,84.74576271,,,,,,,,,,,,,,,,284.0706,285.3688,285.3689,286.6898,return,0.3768,,86.58854167,,,,,,FBP-OG-81.png,0.45,1.2,40,0.5,0,6,6,39,1,,,,,,,,,,,,,,,,,,,,,,,,,,,,,,,,,,,,,,,,
,,,,,v1_029,19,Female,2024-05-22_08h59.37.845,jersey_experiment_5_v1,2023.2.2,Win32,84.74576271,,,,,,,,,,,,,,,,286.69,287.9927,287.9927,290.1689,return,0.9968,,8.854166667,,,,,,FBP-YG-91.png,0.37,1.2,27,0.5,0,7,7,26,1,,,,,,,,,,,,,,,,,,,,,,,,,,,,,,,,,,,,,,,,
,,,,,v1_029,19,Female,2024-05-22_08h59.37.845,jersey_experiment_5_v1,2023.2.2,Win32,84.74576271,,,,,,,,,,,,,,,,290.1692,291.4631,291.4632,292.9456,return,0.2943,,48.828125,,,,,,FBP-OG-81.png,0.4,1.2,38,0.5,0,8,8,37,1,,,,,,,,,,,,,,,,,,,,,,,,,,,,,,,,,,,,,,,,
,,,,,v1_029,19,Female,2024-05-22_08h59.37.845,jersey_experiment_5_v1,2023.2.2,Win32,84.74576271,,,,,,,,,,,,,,,,292.9457,294.2397,294.2397,295.7574,return,0.3538,,79.42708333,,,,,,FBP-RB-18.png,0.43,1.2,54,0.5,0,9,9,53,1,,,,,,,,,,,,,,,,,,,,,,,,,,,,,,,,,,,,,,,,
,,,,,v1_029,19,Female,2024-05-22_08h59.37.845,jersey_experiment_5_v1,2023.2.2,Win32,84.74576271,,,,,,,,,,,,,,,,295.7577,297.5529,297.5529,299.2578,return,0.3172,,79.03645833,,,,,,FBP-PT-18.png,0.45,1.2,10,1,0,10,10,9,1,,,,,,,,,,,,,,,,,,,,,,,,,,,,,,,,,,,,,,,,
,,,,,v1_029,19,Female,2024-05-22_08h59.37.845,jersey_experiment_5_v1,2023.2.2,Win32,84.74576271,,,,,,,,,,,,,,,,299.2579,301.0518,301.0518,302.5931,return,0.4251,,20.05208333,,,,,,FBP-PT-19.png,0.35,1.2,11,1,0,11,11,10,1,,,,,,,,,,,,,,,,,,,,,,,,,,,,,,,,,,,,,,,,
,,,,,v1_029,19,Female,2024-05-22_08h59.37.845,jersey_experiment_5_v1,2023.2.2,Win32,84.74576271,,,,,,,,,,,,,,,,302.5934,304.4005,304.4005,305.9814,return,0.2861,,18.22916667,,,,,,FBP-PT-19.png,0.37,1.2,12,1,0,12,12,11,1,,,,,,,,,,,,,,,,,,,,,,,,,,,,,,,,,,,,,,,,
,,,,,v1_029,19,Female,2024-05-22_08h59.37.845,jersey_experiment_5_v1,2023.2.2,Win32,84.74576271,,,,,,,,,,,,,,,,305.9817,307.7813,307.7814,309.1771,return,0.4249,,37.36979167,,,,,,FBP-PT-18.png,0.37,1.2,7,1,0,13,13,6,1,,,,,,,,,,,,,,,,,,,,,,,,,,,,,,,,,,,,,,,,
,,,,,v1_029,19,Female,2024-05-22_08h59.37.845,jersey_experiment_5_v1,2023.2.2,Win32,84.74576271,,,,,,,,,,,,,,,,309.1772,310.4756,310.4756,311.9879,return,0.368,,36.71875,,,,,,FBP-YG-81.png,0.37,1.2,22,0.5,0,14,14,21,1,,,,,,,,,,,,,,,,,,,,,,,,,,,,,,,,,,,,,,,,
,,,,,v1_029,19,Female,2024-05-22_08h59.37.845,jersey_experiment_5_v1,2023.2.2,Win32,84.74576271,,,,,,,,,,,,,,,,311.988,313.2874,313.2875,315.0702,return,0.2621,,54.16666667,,,,,,FBP-OG-71.png,0.4,1.2,33,0.5,0,15,15,32,1,,,,,,,,,,,,,,,,,,,,,,,,,,,,,,,,,,,,,,,,
,,,,,v1_029,19,Female,2024-05-22_08h59.37.845,jersey_experiment_5_v1,2023.2.2,Win32,84.74576271,,,,,,,,,,,,,,,,315.0704,316.8641,316.8642,318.6202,return,0.5648,,11.06770833,,,,,,FBP-PT-17.png,0.35,1.2,1,1,0,16,16,0,1,,,,,,,,,,,,,,,,,,,,,,,,,,,,,,,,,,,,,,,,
,,,,,v1_029,19,Female,2024-05-22_08h59.37.845,jersey_experiment_5_v1,2023.2.2,Win32,84.74576271,,,,,,,,,,,,,,,,318.6204,319.926,319.926,322.6172,return,1.208,,58.984375,,,,,,FBP-OG-91.png,0.4,1.2,43,0.5,0,17,17,42,1,,,,,,,,,,,,,,,,,,,,,,,,,,,,,,,,,,,,,,,,
,,,,,v1_029,19,Female,2024-05-22_08h59.37.845,jersey_experiment_5_v1,2023.2.2,Win32,84.74576271,,,,,,,,,,,,,,,,322.6174,324.4173,324.4173,326.8909,return,0.3052,,74.609375,,,,,,FBP-PT-19.png,0.43,1.2,14,1,0,18,18,13,1,,,,,,,,,,,,,,,,,,,,,,,,,,,,,,,,,,,,,,,,
,,,,,v1_029,19,Female,2024-05-22_08h59.37.845,jersey_experiment_5_v1,2023.2.2,Win32,84.74576271,,,,,,,,,,,,,,,,326.891,328.688,328.6881,330.394,return,0.3836,,60.41666667,,,,,,FBP-PT-18.png,0.4,1.2,8,1,0,19,19,7,1,,,,,,,,,,,,,,,,,,,,,,,,,,,,,,,,,,,,,,,,
,,,,,v1_029,19,Female,2024-05-22_08h59.37.845,jersey_experiment_5_v1,2023.2.2,Win32,84.74576271,,,,,,,,,,,,,,,,330.3942,331.6881,331.6881,333.6293,return,0.451,,12.23958333,,,,,,FBP-RB-17.png,0.35,1.2,46,0.5,0,20,20,45,1,,,,,,,,,,,,,,,,,,,,,,,,,,,,,,,,,,,,,,,,
,,,,,v1_029,19,Female,2024-05-22_08h59.37.845,jersey_experiment_5_v1,2023.2.2,Win32,84.74576271,,,,,,,,,,,,,,,,333.6296,335.421,335.421,336.8766,return,0.3666,,6.640625,,,,,,FBP-PT-18.png,0.35,1.2,6,1,0,21,21,5,1,,,,,,,,,,,,,,,,,,,,,,,,,,,,,,,,,,,,,,,,
,,,,,v1_029,19,Female,2024-05-22_08h59.37.845,jersey_experiment_5_v1,2023.2.2,Win32,84.74576271,,,,,,,,,,,,,,,,336.8769,338.6802,338.6802,340.315,return,0.3634,,38.15104167,,,,,,FBP-PT-19.png,0.4,1.2,13,1,0,22,22,12,1,,,,,,,,,,,,,,,,,,,,,,,,,,,,,,,,,,,,,,,,
,,,,,v1_029,19,Female,2024-05-22_08h59.37.845,jersey_experiment_5_v1,2023.2.2,Win32,84.74576271,,,,,,,,,,,,,,,,340.3153,341.6179,341.6179,343.4607,return,0.3192,,11.328125,,,,,,FBP-OG-71.png,0.37,1.2,32,0.5,0,23,23,31,1,,,,,,,,,,,,,,,,,,,,,,,,,,,,,,,,,,,,,,,,
,,,,,v1_029,19,Female,2024-05-22_08h59.37.845,jersey_experiment_5_v1,2023.2.2,Win32,84.74576271,,,,,,,,,,,,,,,,343.4609,344.7591,344.7591,346.5653,return,0.2469,,84.11458333,,,,,,FBP-YG-91.png,0.45,1.2,30,0.5,0,24,24,29,1,,,,,,,,,,,,,,,,,,,,,,,,,,,,,,,,,,,,,,,,
,,,,,v1_029,19,Female,2024-05-22_08h59.37.845,jersey_experiment_5_v1,2023.2.2,Win32,84.74576271,,,,,,,,,,,,,,,,346.5654,347.8651,347.8651,349.5476,return,0.2642,,95.703125,,,,,,FBP-RB-19.png,0.45,1.2,60,0.5,0,25,25,59,1,,,,,,,,,,,,,,,,,,,,,,,,,,,,,,,,,,,,,,,,
,,,,,v1_029,19,Female,2024-05-22_08h59.37.845,jersey_experiment_5_v1,2023.2.2,Win32,84.74576271,,,,,,,,,,,,,,,,349.5479,350.8417,350.8418,352.477,return,0.2817,,58.33333333,,,,,,FBP-RB-19.png,0.4,1.2,58,0.5,0,26,26,57,1,,,,,,,,,,,,,,,,,,,,,,,,,,,,,,,,,,,,,,,,
,,,,,v1_029,19,Female,2024-05-22_08h59.37.845,jersey_experiment_5_v1,2023.2.2,Win32,84.74576271,,,,,,,,,,,,,,,,352.4772,353.7712,353.7713,355.4419,return,0.2266,,75.52083333,,,,,,FBP-OG-81.png,0.43,1.2,39,0.5,0,27,27,38,1,,,,,,,,,,,,,,,,,,,,,,,,,,,,,,,,,,,,,,,,
,,,,,v1_029,19,Female,2024-05-22_08h59.37.845,jersey_experiment_5_v1,2023.2.2,Win32,84.74576271,,,,,,,,,,,,,,,,355.4421,357.2418,357.2419,358.26,return,0.415,,75.52083333,,,,,,FBP-PT-17.png,0.43,1.2,4,1,0,28,28,3,1,,,,,,,,,,,,,,,,,,,,,,,,,,,,,,,,,,,,,,,,
,,,,,v1_029,19,Female,2024-05-22_08h59.37.845,jersey_experiment_5_v1,2023.2.2,Win32,84.74576271,,,,,,,,,,,,,,,,358.2601,359.5597,359.5597,361.1305,return,0.2974,,82.55208333,,,,,,FBP-YG-71.png,0.45,1.2,20,0.5,0,29,29,19,1,,,,,,,,,,,,,,,,,,,,,,,,,,,,,,,,,,,,,,,,
,,,,,v1_029,19,Female,2024-05-22_08h59.37.845,jersey_experiment_5_v1,2023.2.2,Win32,84.74576271,,,,,,,,,,,,,,,,361.1307,362.4304,362.4304,364.0893,return,0.3138,,15.234375,,,,,,FBP-RB-19.png,0.35,1.2,56,0.5,0,30,30,55,1,,,,,,,,,,,,,,,,,,,,,,,,,,,,,,,,,,,,,,,,
,,,,,v1_029,19,Female,2024-05-22_08h59.37.845,jersey_experiment_5_v1,2023.2.2,Win32,84.74576271,,,,,,,,,,,,,,,,364.0895,365.8848,365.8848,367.3482,return,0.2908,,48.17708333,,,,,,FBP-PT-17.png,0.4,1.2,3,1,0,31,31,2,1,,,,,,,,,,,,,,,,,,,,,,,,,,,,,,,,,,,,,,,,
,,,,,v1_029,19,Female,2024-05-22_08h59.37.845,jersey_experiment_5_v1,2023.2.2,Win32,84.74576271,,,,,,,,,,,,,,,,367.3484,368.6423,368.6424,370.3836,return,0.2338,,23.828125,,,,,,FBP-RB-18.png,0.35,1.2,51,0.5,0,32,32,50,1,,,,,,,,,,,,,,,,,,,,,,,,,,,,,,,,,,,,,,,,
,,,,,v1_029,19,Female,2024-05-22_08h59.37.845,jersey_experiment_5_v1,2023.2.2,Win32,84.74576271,,,,,,,,,,,,,,,,370.3837,371.681,371.681,373.972,return,0.3032,,79.03645833,,,,,,FBP-YG-71.png,0.4,1.2,18,0.5,0,33,33,17,1,,,,,,,,,,,,,,,,,,,,,,,,,,,,,,,,,,,,,,,,
,,,,,v1_029,19,Female,2024-05-22_08h59.37.845,jersey_experiment_5_v1,2023.2.2,Win32,84.74576271,,,,,,,,,,,,,,,,373.9723,375.7635,375.7635,377.2427,return,0.2388,,92.83854167,,,,,,FBP-PT-17.png,0.45,1.2,5,1,0,34,34,4,1,,,,,,,,,,,,,,,,,,,,,,,,,,,,,,,,,,,,,,,,
,,,,,v1_029,19,Female,2024-05-22_08h59.37.845,jersey_experiment_5_v1,2023.2.2,Win32,84.74576271,,,,,,,,,,,,,,,,377.2428,378.5368,378.5368,381.1486,return,1.157,,49.47916667,,,,,,FBP-YG-71.png,0.37,1.2,17,0.5,0,35,35,16,1,,,,,,,,,,,,,,,,,,,,,,,,,,,,,,,,,,,,,,,,
,,,,,v1_029,19,Female,2024-05-22_08h59.37.845,jersey_experiment_5_v1,2023.2.2,Win32,84.74576271,,,,,,,,,,,,,,,,381.1488,382.9487,382.9488,384.7842,return,0.4802,,86.97916667,,,,,,FBP-PT-19.png,0.45,1.2,15,1,0,36,36,14,1,,,,,,,,,,,,,,,,,,,,,,,,,,,,,,,,,,,,,,,,
,,,,,v1_029,19,Female,2024-05-22_08h59.37.845,jersey_experiment_5_v1,2023.2.2,Win32,84.74576271,,,,,,,,,,,,,,,,384.7844,386.0812,386.0812,387.0901,return,0.3413,,86.97916667,,,,,,FBP-RB-17.png,0.43,1.2,49,0.5,0,37,37,48,1,,,,,,,,,,,,,,,,,,,,,,,,,,,,,,,,,,,,,,,,
,,,,,v1_029,19,Female,2024-05-22_08h59.37.845,jersey_experiment_5_v1,2023.2.2,Win32,84.74576271,,,,,,,,,,,,,,,,387.0903,388.3844,388.3844,392.0785,return,2.0379,,25.26041667,,,,,,FBP-OG-71.png,0.35,1.2,31,0.5,0,38,38,30,1,,,,,,,,,,,,,,,,,,,,,,,,,,,,,,,,,,,,,,,,
,,,,,v1_029,19,Female,2024-05-22_08h59.37.845,jersey_experiment_5_v1,2023.2.2,Win32,84.74576271,,,,,,,,,,,,,,,,392.0787,393.3785,393.3785,395.1139,return,0.4984,,58.984375,,,,,,FBP-YG-81.png,0.4,1.2,23,0.5,0,39,39,22,1,,,,,,,,,,,,,,,,,,,,,,,,,,,,,,,,,,,,,,,,
,,,,,v1_029,19,Female,2024-05-22_08h59.37.845,jersey_experiment_5_v1,2023.2.2,Win32,84.74576271,,,,,,,,,,,,,,,,395.1141,396.4112,396.4112,398.27,return,0.4587,,78.90625,,,,,,FBP-RB-19.png,0.43,1.2,59,0.5,0,40,40,58,1,,,,,,,,,,,,,,,,,,,,,,,,,,,,,,,,,,,,,,,,
,,,,,v1_029,19,Female,2024-05-22_08h59.37.845,jersey_experiment_5_v1,2023.2.2,Win32,84.74576271,,,,,,,,,,,,,,,,398.2702,399.5672,399.5672,401.7846,return,0.5955,,25.13020833,,,,,,FBP-YG-81.png,0.35,1.2,21,0.5,0,41,41,20,1,,,,,,,,,,,,,,,,,,,,,,,,,,,,,,,,,,,,,,,,
,,,,,v1_029,19,Female,2024-05-22_08h59.37.845,jersey_experiment_5_v1,2023.2.2,Win32,84.74576271,,,,,,,,,,,,,,,,401.7847,403.0819,403.0819,404.8907,return,0.442,,75.26041667,,,,,,FBP-YG-91.png,0.4,1.2,28,0.5,0,42,42,27,1,,,,,,,,,,,,,,,,,,,,,,,,,,,,,,,,,,,,,,,,
,,,,,v1_029,19,Female,2024-05-22_08h59.37.845,jersey_experiment_5_v1,2023.2.2,Win32,84.74576271,,,,,,,,,,,,,,,,404.8908,406.1849,406.1849,407.9144,return,0.4975,,94.40104167,,,,,,FBP-RB-17.png,0.45,1.2,50,0.5,0,43,43,49,1,,,,,,,,,,,,,,,,,,,,,,,,,,,,,,,,,,,,,,,,
,,,,,v1_029,19,Female,2024-05-22_08h59.37.845,jersey_experiment_5_v1,2023.2.2,Win32,84.74576271,,,,,,,,,,,,,,,,407.9146,409.2085,409.2085,411.4032,return,0.777,,88.28125,,,,,,FBP-OG-71.png,0.45,1.2,35,0.5,0,44,44,34,1,,,,,,,,,,,,,,,,,,,,,,,,,,,,,,,,,,,,,,,,
,,,,,v1_029,19,Female,2024-05-22_08h59.37.845,jersey_experiment_5_v1,2023.2.2,Win32,84.74576271,,,,,,,,,,,,,,,,411.4034,412.7027,412.7027,414.353,return,0.3529,,63.80208333,,,,,,FBP-RB-18.png,0.4,1.2,53,0.5,0,45,45,52,1,,,,,,,,,,,,,,,,,,,,,,,,,,,,,,,,,,,,,,,,
,,,,,v1_029,19,Female,2024-05-22_08h59.37.845,jersey_experiment_5_v1,2023.2.2,Win32,84.74576271,,,,,,,,,,,,,,,,414.3531,415.6558,415.6558,417.3264,return,0.3558,,37.109375,,,,,,FBP-YG-71.png,0.35,1.2,16,0.5,0,46,46,15,1,,,,,,,,,,,,,,,,,,,,,,,,,,,,,,,,,,,,,,,,
,,,,,v1_029,19,Female,2024-05-22_08h59.37.845,jersey_experiment_5_v1,2023.2.2,Win32,84.74576271,,,,,,,,,,,,,,,,417.3265,418.6236,418.6236,420.3501,return,0.3183,,74.609375,,,,,,FBP-OG-71.png,0.43,1.2,34,0.5,0,47,47,33,1,,,,,,,,,,,,,,,,,,,,,,,,,,,,,,,,,,,,,,,,
,,,,,v1_029,19,Female,2024-05-22_08h59.37.845,jersey_experiment_5_v1,2023.2.2,Win32,84.74576271,,,,,,,,,,,,,,,,420.3502,421.6442,421.6442,422.7563,return,0.4148,,74.609375,,,,,,FBP-RB-17.png,0.4,1.2,48,0.5,0,48,48,47,1,,,,,,,,,,,,,,,,,,,,,,,,,,,,,,,,,,,,,,,,
,,,,,v1_029,19,Female,2024-05-22_08h59.37.845,jersey_experiment_5_v1,2023.2.2,Win32,84.74576271,,,,,,,,,,,,,,,,422.7564,424.0559,424.056,425.562,return,0.2427,,79.94791667,,,,,,FBP-YG-91.png,0.43,1.2,29,0.5,0,49,49,28,1,,,,,,,,,,,,,,,,,,,,,,,,,,,,,,,,,,,,,,,,
,,,,,v1_029,19,Female,2024-05-22_08h59.37.845,jersey_experiment_5_v1,2023.2.2,Win32,84.74576271,,,,,,,,,,,,,,,,425.5623,426.8562,426.8562,428.4798,return,0.3073,,87.23958333,,,,,,FBP-YG-81.png,0.45,1.2,25,0.5,0,50,50,24,1,,,,,,,,,,,,,,,,,,,,,,,,,,,,,,,,,,,,,,,,
,,,,,v1_029,19,Female,2024-05-22_08h59.37.845,jersey_experiment_5_v1,2023.2.2,Win32,84.74576271,,,,,,,,,,,,,,,,428.4799,429.777,429.777,431.0327,return,0.2054,,92.83854167,,,,,,FBP-RB-18.png,0.45,1.2,55,0.5,0,51,51,54,1,,,,,,,,,,,,,,,,,,,,,,,,,,,,,,,,,,,,,,,,
,,,,,v1_029,19,Female,2024-05-22_08h59.37.845,jersey_experiment_5_v1,2023.2.2,Win32,84.74576271,,,,,,,,,,,,,,,,431.0328,432.327,432.327,433.9343,return,0.3102,,20.18229167,,,,,,FBP-RB-19.png,0.37,1.2,57,0.5,0,52,52,56,1,,,,,,,,,,,,,,,,,,,,,,,,,,,,,,,,,,,,,,,,
,,,,,v1_029,19,Female,2024-05-22_08h59.37.845,jersey_experiment_5_v1,2023.2.2,Win32,84.74576271,,,,,,,,,,,,,,,,433.9345,435.2329,435.2329,437.2364,return,0.268,,77.734375,,,,,,FBP-YG-71.png,0.43,1.2,19,0.5,0,53,53,18,1,,,,,,,,,,,,,,,,,,,,,,,,,,,,,,,,,,,,,,,,
,,,,,v1_029,19,Female,2024-05-22_08h59.37.845,jersey_experiment_5_v1,2023.2.2,Win32,84.74576271,,,,,,,,,,,,,,,,437.2366,438.5301,438.5301,440.2684,return,0.343,,50,,,,,,FBP-RB-18.png,0.37,1.2,52,0.5,0,54,54,51,1,,,,,,,,,,,,,,,,,,,,,,,,,,,,,,,,,,,,,,,,
,,,,,v1_029,19,Female,2024-05-22_08h59.37.845,jersey_experiment_5_v1,2023.2.2,Win32,84.74576271,,,,,,,,,,,,,,,,440.2686,441.5626,441.5626,443.8508,return,0.3879,,33.984375,,,,,,FBP-RB-17.png,0.37,1.2,47,0.5,0,55,55,46,1,,,,,,,,,,,,,,,,,,,,,,,,,,,,,,,,,,,,,,,,
,,,,,v1_029,19,Female,2024-05-22_08h59.37.845,jersey_experiment_5_v1,2023.2.2,Win32,84.74576271,,,,,,,,,,,,,,,,443.8509,445.1509,445.1509,446.3306,return,0.2474,,65.10416667,,,,,,FBP-OG-91.png,0.43,1.2,44,0.5,0,56,56,43,1,,,,,,,,,,,,,,,,,,,,,,,,,,,,,,,,,,,,,,,,
,,,,,v1_029,19,Female,2024-05-22_08h59.37.845,jersey_experiment_5_v1,2023.2.2,Win32,84.74576271,,,,,,,,,,,,,,,,446.3307,447.6277,447.6277,449.2099,return,0.1919,,30.20833333,,,,,,FBP-OG-81.png,0.37,1.2,37,0.5,0,57,57,36,1,,,,,,,,,,,,,,,,,,,,,,,,,,,,,,,,,,,,,,,,
,,,,,v1_029,19,Female,2024-05-22_08h59.37.845,jersey_experiment_5_v1,2023.2.2,Win32,84.74576271,,,,,,,,,,,,,,,,449.2102,450.504,450.504,452.0398,return,0.2589,,17.05729167,,,,,,FBP-YG-91.png,0.35,1.2,26,0.5,0,58,58,25,1,,,,,,,,,,,,,,,,,,,,,,,,,,,,,,,,,,,,,,,,
,,,,,v1_029,19,Female,2024-05-22_08h59.37.845,jersey_experiment_5_v1,2023.2.2,Win32,84.74576271,,,,,,,,,,,,,,,,452.0399,453.3394,453.3394,454.393,return,0.3918,,17.1875,,,,,,FBP-OG-91.png,0.35,1.2,41,0.5,0,59,59,40,1,,,,,,,,,,,,,,,,,,,,,,,,,,,,,,,,,,,,,,,,
,,,,,v1_029,19,Female,2024-05-22_08h59.37.845,jersey_experiment_5_v1,2023.2.2,Win32,84.74576271,,,,,,,,,,,,,,,,,,,,,,,,,,,,,,,,,,,,,,,454.3933,574.3938,,,,,,,,,,,,,,,,,,,,,,,,,,,,,,,,,,,,,,
,,,,,v1_029,19,Female,2024-05-22_08h59.37.845,jersey_experiment_5_v1,2023.2.2,Win32,84.74576271,,,,,,,,,,,,,,,,,,,,,,,,,,,,,,,,,,,,,,,,,574.3938,588.2738,return,13.8555,,,,,,,,,,,,,,,,,,,,,,,,,,,,,,,,,,
,,,,,v1_029,19,Female,2024-05-22_08h59.37.845,jersey_experiment_5_v1,2023.2.2,Win32,84.74576271,,,,,,,,,,,,,,,,588.2797,589.5794,589.5794,593.2182,return,1.7769,,27.99479167,,,,,,FBP-PT-91.png,0.35,1.2,11,0.5,,,,,,,,,,,,,0,0,0,10,1,,,,,,,,,,,,,,,,,,,,,,,,,,,,
,,,,,v1_029,19,Female,2024-05-22_08h59.37.845,jersey_experiment_5_v1,2023.2.2,Win32,84.74576271,,,,,,,,,,,,,,,,593.2185,595.015,595.0151,596.277,return,0.3264,,62.23958333,,,,,,FBP-YG-17.png,0.4,1.2,18,1,,,,,,,,,,,,,0,1,1,17,1,,,,,,,,,,,,,,,,,,,,,,,,,,,,
,,,,,v1_029,19,Female,2024-05-22_08h59.37.845,jersey_experiment_5_v1,2023.2.2,Win32,84.74576271,,,,,,,,,,,,,,,,596.2772,598.0695,598.0695,599.321,return,0.3845,,88.54166667,,,,,,FBP-RB-71.png,0.45,1.2,50,1,,,,,,,,,,,,,0,2,2,49,1,,,,,,,,,,,,,,,,,,,,,,,,,,,,
,,,,,v1_029,19,Female,2024-05-22_08h59.37.845,jersey_experiment_5_v1,2023.2.2,Win32,84.74576271,,,,,,,,,,,,,,,,599.3212,601.1211,601.1211,602.027,return,0.3118,,88.54166667,,,,,,FBP-YG-18.png,0.45,1.2,25,1,,,,,,,,,,,,,0,3,3,24,1,,,,,,,,,,,,,,,,,,,,,,,,,,,,
,,,,,v1_029,19,Female,2024-05-22_08h59.37.845,jersey_experiment_5_v1,2023.2.2,Win32,84.74576271,,,,,,,,,,,,,,,,602.0273,603.8332,603.8332,605.2449,return,0.297,,59.89583333,,,,,,FBP-RB-81.png,0.4,1.2,53,1,,,,,,,,,,,,,0,4,4,52,1,,,,,,,,,,,,,,,,,,,,,,,,,,,,
,,,,,v1_029,19,Female,2024-05-22_08h59.37.845,jersey_experiment_5_v1,2023.2.2,Win32,84.74576271,,,,,,,,,,,,,,,,605.2451,607.0419,607.0419,608.3332,return,0.333,,34.11458333,,,,,,FBP-RB-91.png,0.35,1.2,56,1,,,,,,,,,,,,,0,5,5,55,1,,,,,,,,,,,,,,,,,,,,,,,,,,,,
,,,,,v1_029,19,Female,2024-05-22_08h59.37.845,jersey_experiment_5_v1,2023.2.2,Win32,84.74576271,,,,,,,,,,,,,,,,608.3333,610.1246,610.1246,611.5039,return,0.4236,,65.49479167,,,,,,FBP-YG-17.png,0.43,1.2,19,1,,,,,,,,,,,,,0,6,6,18,1,,,,,,,,,,,,,,,,,,,,,,,,,,,,
,,,,,v1_029,19,Female,2024-05-22_08h59.37.845,jersey_experiment_5_v1,2023.2.2,Win32,84.74576271,,,,,,,,,,,,,,,,611.504,613.3008,613.3008,614.5685,return,0.2757,,29.42708333,,,,,,FBP-RB-81.png,0.37,1.2,52,1,,,,,,,,,,,,,0,7,7,51,1,,,,,,,,,,,,,,,,,,,,,,,,,,,,
,,,,,v1_029,19,Female,2024-05-22_08h59.37.845,jersey_experiment_5_v1,2023.2.2,Win32,84.74576271,,,,,,,,,,,,,,,,614.5686,616.3686,616.3686,618.0629,return,0.3199,,19.921875,,,,,,FBP-OG-19.png,0.35,1.2,41,1,,,,,,,,,,,,,0,8,8,40,1,,,,,,,,,,,,,,,,,,,,,,,,,,,,
,,,,,v1_029,19,Female,2024-05-22_08h59.37.845,jersey_experiment_5_v1,2023.2.2,Win32,84.74576271,,,,,,,,,,,,,,,,618.063,619.357,619.357,621.0896,return,0.5178,,49.21875,,,,,,FBP-PT-81.png,0.4,1.2,8,0.5,,,,,,,,,,,,,0,9,9,7,1,,,,,,,,,,,,,,,,,,,,,,,,,,,,
,,,,,v1_029,19,Female,2024-05-22_08h59.37.845,jersey_experiment_5_v1,2023.2.2,Win32,84.74576271,,,,,,,,,,,,,,,,621.0899,622.8925,622.8925,624.3861,return,0.363,,72.52604167,,,,,,FBP-YG-17.png,0.45,1.2,20,1,,,,,,,,,,,,,0,10,10,19,1,,,,,,,,,,,,,,,,,,,,,,,,,,,,
,,,,,v1_029,19,Female,2024-05-22_08h59.37.845,jersey_experiment_5_v1,2023.2.2,Win32,84.74576271,,,,,,,,,,,,,,,,624.3863,626.184,626.184,627.7164,return,0.4502,,50,,,,,,FBP-OG-19.png,0.37,1.2,42,1,,,,,,,,,,,,,0,11,11,41,1,,,,,,,,,,,,,,,,,,,,,,,,,,,,
,,,,,v1_029,19,Female,2024-05-22_08h59.37.845,jersey_experiment_5_v1,2023.2.2,Win32,84.74576271,,,,,,,,,,,,,,,,627.7166,629.5104,629.5104,631.0516,return,0.4491,,36.84895833,,,,,,FBP-RB-81.png,0.35,1.2,51,1,,,,,,,,,,,,,0,12,12,50,1,,,,,,,,,,,,,,,,,,,,,,,,,,,,
,,,,,v1_029,19,Female,2024-05-22_08h59.37.845,jersey_experiment_5_v1,2023.2.2,Win32,84.74576271,,,,,,,,,,,,,,,,631.0517,632.8545,632.8546,634.3049,return,0.2736,,74.34895833,,,,,,FBP-YG-19.png,0.45,1.2,30,1,,,,,,,,,,,,,0,13,13,29,1,,,,,,,,,,,,,,,,,,,,,,,,,,,,
,,,,,v1_029,19,Female,2024-05-22_08h59.37.845,jersey_experiment_5_v1,2023.2.2,Win32,84.74576271,,,,,,,,,,,,,,,,634.305,636.0988,636.0988,637.8195,return,0.4824,,65.88541667,,,,,,FBP-YG-19.png,0.4,1.2,28,1,,,,,,,,,,,,,0,14,14,27,1,,,,,,,,,,,,,,,,,,,,,,,,,,,,
,,,,,v1_029,19,Female,2024-05-22_08h59.37.845,jersey_experiment_5_v1,2023.2.2,Win32,84.74576271,,,,,,,,,,,,,,,,637.8197,639.1224,639.1225,640.8519,return,0.3799,,84.89583333,,,,,,FBP-PT-91.png,0.45,1.2,15,0.5,,,,,,,,,,,,,0,15,15,14,1,,,,,,,,,,,,,,,,,,,,,,,,,,,,
,,,,,v1_029,19,Female,2024-05-22_08h59.37.845,jersey_experiment_5_v1,2023.2.2,Win32,84.74576271,,,,,,,,,,,,,,,,640.8522,642.6519,642.6519,643.7523,return,0.2738,,89.19270833,,,,,,FBP-YG-19.png,0.43,1.2,29,1,,,,,,,,,,,,,0,16,16,28,1,,,,,,,,,,,,,,,,,,,,,,,,,,,,
,,,,,v1_029,19,Female,2024-05-22_08h59.37.845,jersey_experiment_5_v1,2023.2.2,Win32,84.74576271,,,,,,,,,,,,,,,,643.7525,645.5492,645.5492,647.9418,return,0.2484,,33.07291667,,,,,,FBP-RB-91.png,0.37,1.2,57,1,,,,,,,,,,,,,0,17,17,56,1,,,,,,,,,,,,,,,,,,,,,,,,,,,,
,,,,,v1_029,19,Female,2024-05-22_08h59.37.845,jersey_experiment_5_v1,2023.2.2,Win32,84.74576271,,,,,,,,,,,,,,,,647.9419,649.7376,649.7376,650.9615,return,0.3534,,58.85416667,,,,,,FBP-RB-91.png,0.4,1.2,58,1,,,,,,,,,,,,,0,18,18,57,1,,,,,,,,,,,,,,,,,,,,,,,,,,,,
,,,,,v1_029,19,Female,2024-05-22_08h59.37.845,jersey_experiment_5_v1,2023.2.2,Win32,84.74576271,,,,,,,,,,,,,,,,650.9616,652.7581,652.7582,653.9465,return,0.4884,,77.21354167,,,,,,FBP-RB-81.png,0.43,1.2,54,1,,,,,,,,,,,,,0,19,19,53,1,,,,,,,,,,,,,,,,,,,,,,,,,,,,
,,,,,v1_029,19,Female,2024-05-22_08h59.37.845,jersey_experiment_5_v1,2023.2.2,Win32,84.74576271,,,,,,,,,,,,,,,,653.9467,655.7405,655.7405,657.4877,return,0.4237,,78.38541667,,,,,,FBP-OG-17.png,0.4,1.2,33,1,,,,,,,,,,,,,0,20,20,32,1,,,,,,,,,,,,,,,,,,,,,,,,,,,,
,,,,,v1_029,19,Female,2024-05-22_08h59.37.845,jersey_experiment_5_v1,2023.2.2,Win32,84.74576271,,,,,,,,,,,,,,,,657.488,659.2878,659.2878,661.4173,return,0.7809,,62.890625,,,,,,FBP-OG-18.png,0.4,1.2,38,1,,,,,,,,,,,,,0,21,21,37,1,,,,,,,,,,,,,,,,,,,,,,,,,,,,
,,,,,v1_029,19,Female,2024-05-22_08h59.37.845,jersey_experiment_5_v1,2023.2.2,Win32,84.74576271,,,,,,,,,,,,,,,,661.4173,663.2206,663.2206,665.2646,return,0.46,,24.73958333,,,,,,FBP-YG-19.png,0.35,1.2,26,1,,,,,,,,,,,,,0,22,22,25,1,,,,,,,,,,,,,,,,,,,,,,,,,,,,
,,,,,v1_029,19,Female,2024-05-22_08h59.37.845,jersey_experiment_5_v1,2023.2.2,Win32,84.74576271,,,,,,,,,,,,,,,,665.2647,666.5586,666.5586,668.3352,return,0.3767,,61.45833333,,,,,,FBP-PT-71.png,0.4,1.2,3,0.5,,,,,,,,,,,,,0,23,23,2,1,,,,,,,,,,,,,,,,,,,,,,,,,,,,
,,,,,v1_029,19,Female,2024-05-22_08h59.37.845,jersey_experiment_5_v1,2023.2.2,Win32,84.74576271,,,,,,,,,,,,,,,,668.3353,670.1352,670.1352,672.1001,return,0.303,,69.921875,,,,,,FBP-RB-71.png,0.4,1.2,48,1,,,,,,,,,,,,,0,24,24,47,1,,,,,,,,,,,,,,,,,,,,,,,,,,,,
,,,,,v1_029,19,Female,2024-05-22_08h59.37.845,jersey_experiment_5_v1,2023.2.2,Win32,84.74576271,,,,,,,,,,,,,,,,672.1002,673.3943,673.3943,675.3588,return,0.3195,,57.68229167,,,,,,FBP-PT-91.png,0.4,1.2,13,0.5,,,,,,,,,,,,,0,25,25,12,1,,,,,,,,,,,,,,,,,,,,,,,,,,,,
,,,,,v1_029,19,Female,2024-05-22_08h59.37.845,jersey_experiment_5_v1,2023.2.2,Win32,84.74576271,,,,,,,,,,,,,,,,675.359,677.1622,677.1622,678.3622,return,0.2471,,15.10416667,,,,,,FBP-YG-18.png,0.35,1.2,21,1,,,,,,,,,,,,,0,26,26,20,1,,,,,,,,,,,,,,,,,,,,,,,,,,,,
,,,,,v1_029,19,Female,2024-05-22_08h59.37.845,jersey_experiment_5_v1,2023.2.2,Win32,84.74576271,,,,,,,,,,,,,,,,678.3623,680.1591,680.1591,681.1004,return,0.2131,,11.84895833,,,,,,FBP-OG-18.png,0.35,1.2,36,1,,,,,,,,,,,,,0,27,27,35,1,,,,,,,,,,,,,,,,,,,,,,,,,,,,
,,,,,v1_029,19,Female,2024-05-22_08h59.37.845,jersey_experiment_5_v1,2023.2.2,Win32,84.74576271,,,,,,,,,,,,,,,,681.1006,682.9038,682.9039,684.0652,return,0.2266,,45.44270833,,,,,,FBP-YG-18.png,0.4,1.2,23,1,,,,,,,,,,,,,0,28,28,22,1,,,,,,,,,,,,,,,,,,,,,,,,,,,,
,,,,,v1_029,19,Female,2024-05-22_08h59.37.845,jersey_experiment_5_v1,2023.2.2,Win32,84.74576271,,,,,,,,,,,,,,,,684.0654,685.3594,685.3594,687.0011,return,0.2389,,91.66666667,,,,,,FBP-PT-81.png,0.45,1.2,10,0.5,,,,,,,,,,,,,0,29,29,9,1,,,,,,,,,,,,,,,,,,,,,,,,,,,,
,,,,,v1_029,19,Female,2024-05-22_08h59.37.845,jersey_experiment_5_v1,2023.2.2,Win32,84.74576271,,,,,,,,,,,,,,,,687.0012,688.7977,688.7977,689.6654,return,0.2474,,91.53645833,,,,,,FBP-OG-17.png,0.43,1.2,34,1,,,,,,,,,,,,,0,30,30,33,1,,,,,,,,,,,,,,,,,,,,,,,,,,,,
,,,,,v1_029,19,Female,2024-05-22_08h59.37.845,jersey_experiment_5_v1,2023.2.2,Win32,84.74576271,,,,,,,,,,,,,,,,689.6656,691.4656,691.4656,692.3862,return,0.2002,,95.44270833,,,,,,FBP-OG-18.png,0.45,1.2,40,1,,,,,,,,,,,,,0,31,31,39,1,,,,,,,,,,,,,,,,,,,,,,,,,,,,
,,,,,v1_029,19,Female,2024-05-22_08h59.37.845,jersey_experiment_5_v1,2023.2.2,Win32,84.74576271,,,,,,,,,,,,,,,,692.3864,693.692,693.692,694.5478,return,0.291,,95.44270833,,,,,,FBP-PT-81.png,0.43,1.2,9,0.5,,,,,,,,,,,,,0,32,32,8,1,,,,,,,,,,,,,,,,,,,,,,,,,,,,
,,,,,v1_029,19,Female,2024-05-22_08h59.37.845,jersey_experiment_5_v1,2023.2.2,Win32,84.74576271,,,,,,,,,,,,,,,,694.548,696.3509,696.351,697.6774,return,0.2505,,17.1875,,,,,,FBP-OG-17.png,0.35,1.2,31,1,,,,,,,,,,,,,0,33,33,30,1,,,,,,,,,,,,,,,,,,,,,,,,,,,,
,,,,,v1_029,19,Female,2024-05-22_08h59.37.845,jersey_experiment_5_v1,2023.2.2,Win32,84.74576271,,,,,,,,,,,,,,,,697.6776,699.4806,699.4806,700.7992,return,0.1746,,78.515625,,,,,,FBP-OG-18.png,0.43,1.2,39,1,,,,,,,,,,,,,0,34,34,38,1,,,,,,,,,,,,,,,,,,,,,,,,,,,,
,,,,,v1_029,19,Female,2024-05-22_08h59.37.845,jersey_experiment_5_v1,2023.2.2,Win32,84.74576271,,,,,,,,,,,,,,,,700.7993,702.5988,702.5988,703.7363,return,0.2557,,37.76041667,,,,,,FBP-RB-71.png,0.35,1.2,46,1,,,,,,,,,,,,,0,35,35,45,1,,,,,,,,,,,,,,,,,,,,,,,,,,,,
,,,,,v1_029,19,Female,2024-05-22_08h59.37.845,jersey_experiment_5_v1,2023.2.2,Win32,84.74576271,,,,,,,,,,,,,,,,703.7366,705.0306,705.0306,706.5074,return,0.212,,87.63020833,,,,,,FBP-PT-71.png,0.45,1.2,5,0.5,,,,,,,,,,,,,0,36,36,4,1,,,,,,,,,,,,,,,,,,,,,,,,,,,,
,,,,,v1_029,19,Female,2024-05-22_08h59.37.845,jersey_experiment_5_v1,2023.2.2,Win32,84.74576271,,,,,,,,,,,,,,,,706.5075,708.3013,708.3013,710.3956,return,1.0997,,79.03645833,,,,,,FBP-OG-19.png,0.43,1.2,44,1,,,,,,,,,,,,,0,37,37,43,1,,,,,,,,,,,,,,,,,,,,,,,,,,,,
,,,,,v1_029,19,Female,2024-05-22_08h59.37.845,jersey_experiment_5_v1,2023.2.2,Win32,84.74576271,,,,,,,,,,,,,,,,710.3958,711.6897,711.6897,713.4838,return,0.1912,,26.953125,,,,,,FBP-PT-81.png,0.35,1.2,6,0.5,,,,,,,,,,,,,0,38,38,5,1,,,,,,,,,,,,,,,,,,,,,,,,,,,,
,,,,,v1_029,19,Female,2024-05-22_08h59.37.845,jersey_experiment_5_v1,2023.2.2,Win32,84.74576271,,,,,,,,,,,,,,,,713.4839,715.278,715.278,716.7486,return,0.2715,,24.47916667,,,,,,FBP-RB-71.png,0.37,1.2,47,1,,,,,,,,,,,,,0,39,39,46,1,,,,,,,,,,,,,,,,,,,,,,,,,,,,
,,,,,v1_029,19,Female,2024-05-22_08h59.37.845,jersey_experiment_5_v1,2023.2.2,Win32,84.74576271,,,,,,,,,,,,,,,,716.7487,718.5519,718.5519,719.999,return,0.2826,,74.609375,,,,,,FBP-YG-18.png,0.43,1.2,24,1,,,,,,,,,,,,,0,40,40,23,1,,,,,,,,,,,,,,,,,,,,,,,,,,,,
,,,,,v1_029,19,Female,2024-05-22_08h59.37.845,jersey_experiment_5_v1,2023.2.2,Win32,84.74576271,,,,,,,,,,,,,,,,719.9992,721.3017,721.3017,722.6077,return,0.2389,,42.05729167,,,,,,FBP-PT-71.png,0.37,1.2,2,0.5,,,,,,,,,,,,,0,41,41,1,1,,,,,,,,,,,,,,,,,,,,,,,,,,,,
,,,,,v1_029,19,Female,2024-05-22_08h59.37.845,jersey_experiment_5_v1,2023.2.2,Win32,84.74576271,,,,,,,,,,,,,,,,722.6079,724.4078,724.4078,725.502,return,0.2145,,40.625,,,,,,FBP-YG-19.png,0.37,1.2,27,1,,,,,,,,,,,,,0,42,42,26,1,,,,,,,,,,,,,,,,,,,,,,,,,,,,
,,,,,v1_029,19,Female,2024-05-22_08h59.37.845,jersey_experiment_5_v1,2023.2.2,Win32,84.74576271,,,,,,,,,,,,,,,,725.5021,727.3019,727.3019,728.7138,return,0.2394,,90.234375,,,,,,FBP-OG-17.png,0.45,1.2,35,1,,,,,,,,,,,,,0,43,43,34,1,,,,,,,,,,,,,,,,,,,,,,,,,,,,
,,,,,v1_029,19,Female,2024-05-22_08h59.37.845,jersey_experiment_5_v1,2023.2.2,Win32,84.74576271,,,,,,,,,,,,,,,,728.7139,730.5138,730.5138,731.4817,return,0.2915,,89.84375,,,,,,FBP-RB-91.png,0.45,1.2,60,1,,,,,,,,,,,,,0,44,44,59,1,,,,,,,,,,,,,,,,,,,,,,,,,,,,
,,,,,v1_029,19,Female,2024-05-22_08h59.37.845,jersey_experiment_5_v1,2023.2.2,Win32,84.74576271,,,,,,,,,,,,,,,,731.4819,733.2787,733.2788,734.5847,return,0.2404,,60.546875,,,,,,FBP-OG-19.png,0.4,1.2,43,1,,,,,,,,,,,,,0,45,45,42,1,,,,,,,,,,,,,,,,,,,,,,,,,,,,
,,,,,v1_029,19,Female,2024-05-22_08h59.37.845,jersey_experiment_5_v1,2023.2.2,Win32,84.74576271,,,,,,,,,,,,,,,,734.5849,735.8788,735.8788,737.8082,return,0.1769,,74.86979167,,,,,,FBP-PT-91.png,0.43,1.2,14,0.5,,,,,,,,,,,,,0,46,46,13,1,,,,,,,,,,,,,,,,,,,,,,,,,,,,
,,,,,v1_029,19,Female,2024-05-22_08h59.37.845,jersey_experiment_5_v1,2023.2.2,Win32,84.74576271,,,,,,,,,,,,,,,,737.8084,739.5997,739.5997,740.9407,return,0.3027,,49.47916667,,,,,,FBP-YG-18.png,0.37,1.2,22,1,,,,,,,,,,,,,0,47,47,21,1,,,,,,,,,,,,,,,,,,,,,,,,,,,,
,,,,,v1_029,19,Female,2024-05-22_08h59.37.845,jersey_experiment_5_v1,2023.2.2,Win32,84.74576271,,,,,,,,,,,,,,,,740.9409,742.7378,742.7379,744.832,return,0.8595,,81.640625,,,,,,FBP-OG-19.png,0.45,1.2,45,1,,,,,,,,,,,,,0,48,48,44,1,,,,,,,,,,,,,,,,,,,,,,,,,,,,
,,,,,v1_029,19,Female,2024-05-22_08h59.37.845,jersey_experiment_5_v1,2023.2.2,Win32,84.74576271,,,,,,,,,,,,,,,,744.8322,746.6321,746.6321,749.8558,return,1.5548,,85.41666667,,,,,,FBP-RB-81.png,0.45,1.2,55,1,,,,,,,,,,,,,0,49,49,54,1,,,,,,,,,,,,,,,,,,,,,,,,,,,,
,,,,,v1_029,19,Female,2024-05-22_08h59.37.845,jersey_experiment_5_v1,2023.2.2,Win32,84.74576271,,,,,,,,,,,,,,,,749.8559,751.6558,751.6558,753.1029,return,0.2698,,28.125,,,,,,FBP-OG-18.png,0.37,1.2,37,1,,,,,,,,,,,,,0,50,50,36,1,,,,,,,,,,,,,,,,,,,,,,,,,,,,
,,,,,v1_029,19,Female,2024-05-22_08h59.37.845,jersey_experiment_5_v1,2023.2.2,Win32,84.74576271,,,,,,,,,,,,,,,,753.103,754.4003,754.4003,757.4323,return,1.3851,,22.65625,,,,,,FBP-PT-91.png,0.37,1.2,12,0.5,,,,,,,,,,,,,0,51,51,11,1,,,,,,,,,,,,,,,,,,,,,,,,,,,,
,,,,,v1_029,19,Female,2024-05-22_08h59.37.845,jersey_experiment_5_v1,2023.2.2,Win32,84.74576271,,,,,,,,,,,,,,,,757.4325,758.7265,758.7265,760.2712,return,0.2472,,74.21875,,,,,,FBP-PT-71.png,0.43,1.2,4,0.5,,,,,,,,,,,,,0,52,52,3,1,,,,,,,,,,,,,,,,,,,,,,,,,,,,
,,,,,v1_029,19,Female,2024-05-22_08h59.37.845,jersey_experiment_5_v1,2023.2.2,Win32,84.74576271,,,,,,,,,,,,,,,,760.2712,762.0678,762.0679,764.5652,return,1.2322,,33.33333333,,,,,,FBP-OG-17.png,0.37,1.2,32,1,,,,,,,,,,,,,0,53,53,31,1,,,,,,,,,,,,,,,,,,,,,,,,,,,,
,,,,,v1_029,19,Female,2024-05-22_08h59.37.845,jersey_experiment_5_v1,2023.2.2,Win32,84.74576271,,,,,,,,,,,,,,,,764.5654,766.3621,766.3622,769.4565,return,1.871,,32.29166667,,,,,,FBP-YG-17.png,0.37,1.2,17,1,,,,,,,,,,,,,0,54,54,16,1,,,,,,,,,,,,,,,,,,,,,,,,,,,,
,,,,,v1_029,19,Female,2024-05-22_08h59.37.845,jersey_experiment_5_v1,2023.2.2,Win32,84.74576271,,,,,,,,,,,,,,,,769.4567,771.2522,771.2523,774.3153,return,1.132,,79.03645833,,,,,,FBP-RB-71.png,0.43,1.2,49,1,,,,,,,,,,,,,0,55,55,48,1,,,,,,,,,,,,,,,,,,,,,,,,,,,,
,,,,,v1_029,19,Female,2024-05-22_08h59.37.845,jersey_experiment_5_v1,2023.2.2,Win32,84.74576271,,,,,,,,,,,,,,,,774.3156,775.6095,775.6096,778.3862,return,1.1649,,9.895833333,,,,,,FBP-PT-81.png,0.37,1.2,7,0.5,,,,,,,,,,,,,0,56,56,6,1,,,,,,,,,,,,,,,,,,,,,,,,,,,,
,,,,,v1_029,19,Female,2024-05-22_08h59.37.845,jersey_experiment_5_v1,2023.2.2,Win32,84.74576271,,,,,,,,,,,,,,,,778.3863,780.1864,780.1864,783.7274,return,1.8335,,5.078125,,,,,,FBP-YG-17.png,0.35,1.2,16,1,,,,,,,,,,,,,0,57,57,15,1,,,,,,,,,,,,,,,,,,,,,,,,,,,,
,,,,,v1_029,19,Female,2024-05-22_08h59.37.845,jersey_experiment_5_v1,2023.2.2,Win32,84.74576271,,,,,,,,,,,,,,,,783.7276,785.5275,785.5275,787.9902,return,1.2006,,69.27083333,,,,,,FBP-RB-91.png,0.43,1.2,59,1,,,,,,,,,,,,,0,58,58,58,1,,,,,,,,,,,,,,,,,,,,,,,,,,,,
,,,,,v1_029,19,Female,2024-05-22_08h59.37.845,jersey_experiment_5_v1,2023.2.2,Win32,84.74576271,,,,,,,,,,,,,,,,787.9903,789.2925,789.2925,792.175,return,1.2738,,6.380208333,,,,,,FBP-PT-71.png,0.35,1.2,1,0.5,,,,,,,,,,,,,0,59,59,0,1,,,,,,,,,,,,,,,,,,,,,,,,,,,,
,,,,,v1_029,19,Female,2024-05-22_08h59.37.845,jersey_experiment_5_v1,2023.2.2,Win32,84.74576271,,,,,,,,,,,,,,,,792.1768,793.975,793.975,796.4842,return,1.4941,,88.93229167,,,,,,FBP-YG-91.png,0.43,1.2,29,1,,,,,,,,,,,,,,,,,,0,0,0,28,1,,,,,,,,,,,,,,,,,,,,,,,
,,,,,v1_029,19,Female,2024-05-22_08h59.37.845,jersey_experiment_5_v1,2023.2.2,Win32,84.74576271,,,,,,,,,,,,,,,,796.4845,798.2811,798.2811,800.8021,return,1.2563,,87.109375,,,,,,FBP-YG-71.png,0.45,1.2,20,1,,,,,,,,,,,,,,,,,,0,1,1,19,1,,,,,,,,,,,,,,,,,,,,,,,
,,,,,v1_029,19,Female,2024-05-22_08h59.37.845,jersey_experiment_5_v1,2023.2.2,Win32,84.74576271,,,,,,,,,,,,,,,,800.8024,802.6019,802.6019,804.8991,return,1.1681,,89.32291667,,,,,,FBP-OG-91.png,0.45,1.2,45,1,,,,,,,,,,,,,,,,,,0,2,2,44,1,,,,,,,,,,,,,,,,,,,,,,,
,,,,,v1_029,19,Female,2024-05-22_08h59.37.845,jersey_experiment_5_v1,2023.2.2,Win32,84.74576271,,,,,,,,,,,,,,,,804.8993,806.6931,806.6931,809.8815,return,1.7105,,20.96354167,,,,,,FBP-RB-18.png,0.4,1.2,53,1,,,,,,,,,,,,,,,,,,0,3,3,52,1,,,,,,,,,,,,,,,,,,,,,,,
,,,,,v1_029,19,Female,2024-05-22_08h59.37.845,jersey_experiment_5_v1,2023.2.2,Win32,84.74576271,,,,,,,,,,,,,,,,809.8816,811.1817,811.1817,813.5638,return,1.2368,,61.58854167,,,,,,FBP-PT-17.png,0.45,1.2,5,0.5,,,,,,,,,,,,,,,,,,0,4,4,4,1,,,,,,,,,,,,,,,,,,,,,,,
,,,,,v1_029,19,Female,2024-05-22_08h59.37.845,jersey_experiment_5_v1,2023.2.2,Win32,84.74576271,,,,,,,,,,,,,,,,813.564,815.3639,815.3639,818.7523,return,1.4591,,11.06770833,,,,,,FBP-YG-71.png,0.35,1.2,16,1,,,,,,,,,,,,,,,,,,0,5,5,15,1,,,,,,,,,,,,,,,,,,,,,,,
,,,,,v1_029,19,Female,2024-05-22_08h59.37.845,jersey_experiment_5_v1,2023.2.2,Win32,84.74576271,,,,,,,,,,,,,,,,818.7524,820.5437,820.5437,822.6348,return,1.2266,,75.13020833,,,,,,FBP-OG-81.png,0.43,1.2,39,1,,,,,,,,,,,,,,,,,,0,6,6,38,1,,,,,,,,,,,,,,,,,,,,,,,
,,,,,v1_029,19,Female,2024-05-22_08h59.37.845,jersey_experiment_5_v1,2023.2.2,Win32,84.74576271,,,,,,,,,,,,,,,,822.635,823.9289,823.9289,826.5588,return,1.4739,,7.291666667,,,,,,FBP-PT-17.png,0.35,1.2,1,0.5,,,,,,,,,,,,,,,,,,0,7,7,0,1,,,,,,,,,,,,,,,,,,,,,,,
,,,,,v1_029,19,Female,2024-05-22_08h59.37.845,jersey_experiment_5_v1,2023.2.2,Win32,84.74576271,,,,,,,,,,,,,,,,826.5589,828.3599,828.3599,830.4116,return,1.2758,,2.34375,,,,,,FBP-RB-17.png,0.35,1.2,46,1,,,,,,,,,,,,,,,,,,0,8,8,45,1,,,,,,,,,,,,,,,,,,,,,,,
,,,,,v1_029,19,Female,2024-05-22_08h59.37.845,jersey_experiment_5_v1,2023.2.2,Win32,84.74576271,,,,,,,,,,,,,,,,830.4118,832.2073,832.2073,834.4034,return,1.2211,,10.9375,,,,,,FBP-OG-71.png,0.35,1.2,31,1,,,,,,,,,,,,,,,,,,0,9,9,30,1,,,,,,,,,,,,,,,,,,,,,,,
,,,,,v1_029,19,Female,2024-05-22_08h59.37.845,jersey_experiment_5_v1,2023.2.2,Win32,84.74576271,,,,,,,,,,,,,,,,834.4035,836.2031,836.2031,838.2978,return,0.8473,,35.9375,,,,,,FBP-YG-91.png,0.4,1.2,28,1,,,,,,,,,,,,,,,,,,0,10,10,27,1,,,,,,,,,,,,,,,,,,,,,,,
,,,,,v1_029,19,Female,2024-05-22_08h59.37.845,jersey_experiment_5_v1,2023.2.2,Win32,84.74576271,,,,,,,,,,,,,,,,838.2979,839.6025,839.6026,842.1212,return,1.071,,64.453125,,,,,,FBP-PT-18.png,0.45,1.2,10,0.5,,,,,,,,,,,,,,,,,,0,11,11,9,1,,,,,,,,,,,,,,,,,,,,,,,
,,,,,v1_029,19,Female,2024-05-22_08h59.37.845,jersey_experiment_5_v1,2023.2.2,Win32,84.74576271,,,,,,,,,,,,,,,,842.1213,843.4238,843.4238,847.0655,return,1.0975,,74.34895833,,,,,,FBP-PT-19.png,0.43,1.2,14,0.5,,,,,,,,,,,,,,,,,,0,12,12,13,1,,,,,,,,,,,,,,,,,,,,,,,
,,,,,v1_029,19,Female,2024-05-22_08h59.37.845,jersey_experiment_5_v1,2023.2.2,Win32,84.74576271,,,,,,,,,,,,,,,,847.0655,848.3651,848.3651,851.4241,return,2.0919,,78.515625,,,,,,FBP-PT-17.png,0.43,1.2,4,0.5,,,,,,,,,,,,,,,,,,0,13,13,3,1,,,,,,,,,,,,,,,,,,,,,,,
,,,,,v1_029,19,Female,2024-05-22_08h59.37.845,jersey_experiment_5_v1,2023.2.2,Win32,84.74576271,,,,,,,,,,,,,,,,851.4242,853.2197,853.2197,855.083,return,0.9235,,82.03125,,,,,,FBP-OG-81.png,0.4,1.2,38,1,,,,,,,,,,,,,,,,,,0,14,14,37,1,,,,,,,,,,,,,,,,,,,,,,,
,,,,,v1_029,19,Female,2024-05-22_08h59.37.845,jersey_experiment_5_v1,2023.2.2,Win32,84.74576271,,,,,,,,,,,,,,,,855.0831,856.8832,856.8832,858.7333,return,1.0356,,14.71354167,,,,,,FBP-OG-91.png,0.35,1.2,41,1,,,,,,,,,,,,,,,,,,0,15,15,40,1,,,,,,,,,,,,,,,,,,,,,,,
,,,,,v1_029,19,Female,2024-05-22_08h59.37.845,jersey_experiment_5_v1,2023.2.2,Win32,84.74576271,,,,,,,,,,,,,,,,858.7335,860.5303,860.5303,862.2597,return,0.8087,,78.64583333,,,,,,FBP-YG-91.png,0.45,1.2,30,1,,,,,,,,,,,,,,,,,,0,16,16,29,1,,,,,,,,,,,,,,,,,,,,,,,
,,,,,v1_029,19,Female,2024-05-22_08h59.37.845,jersey_experiment_5_v1,2023.2.2,Win32,84.74576271,,,,,,,,,,,,,,,,862.2599,864.0511,864.0512,865.7068,return,0.8498,,5.989583333,,,,,,FBP-RB-18.png,0.35,1.2,51,1,,,,,,,,,,,,,,,,,,0,17,17,50,1,,,,,,,,,,,,,,,,,,,,,,,
,,,,,v1_029,19,Female,2024-05-22_08h59.37.845,jersey_experiment_5_v1,2023.2.2,Win32,84.74576271,,,,,,,,,,,,,,,,865.707,867.5069,867.507,868.9423,return,0.6624,,61.45833333,,,,,,FBP-RB-18.png,0.43,1.2,54,1,,,,,,,,,,,,,,,,,,0,18,18,53,1,,,,,,,,,,,,,,,,,,,,,,,
,,,,,v1_029,19,Female,2024-05-22_08h59.37.845,jersey_experiment_5_v1,2023.2.2,Win32,84.74576271,,,,,,,,,,,,,,,,868.9425,870.2365,870.2365,872.1425,return,0.7789,,60.41666667,,,,,,FBP-PT-19.png,0.4,1.2,13,0.5,,,,,,,,,,,,,,,,,,0,19,19,12,1,,,,,,,,,,,,,,,,,,,,,,,
,,,,,v1_029,19,Female,2024-05-22_08h59.37.845,jersey_experiment_5_v1,2023.2.2,Win32,84.74576271,,,,,,,,,,,,,,,,872.1426,873.9455,873.9455,875.2399,return,0.6474,,49.609375,,,,,,FBP-YG-91.png,0.37,1.2,27,1,,,,,,,,,,,,,,,,,,0,20,20,26,1,,,,,,,,,,,,,,,,,,,,,,,
,,,,,v1_029,19,Female,2024-05-22_08h59.37.845,jersey_experiment_5_v1,2023.2.2,Win32,84.74576271,,,,,,,,,,,,,,,,875.2401,877.0367,877.0368,878.5779,return,0.7643,,55.72916667,,,,,,FBP-RB-17.png,0.4,1.2,48,1,,,,,,,,,,,,,,,,,,0,21,21,47,1,,,,,,,,,,,,,,,,,,,,,,,
,,,,,v1_029,19,Female,2024-05-22_08h59.37.845,jersey_experiment_5_v1,2023.2.2,Win32,84.74576271,,,,,,,,,,,,,,,,878.5781,880.3812,880.3812,882.3965,return,0.9566,,74.47916667,,,,,,FBP-OG-71.png,0.45,1.2,35,1,,,,,,,,,,,,,,,,,,0,22,22,34,1,,,,,,,,,,,,,,,,,,,,,,,
,,,,,v1_029,19,Female,2024-05-22_08h59.37.845,jersey_experiment_5_v1,2023.2.2,Win32,84.74576271,,,,,,,,,,,,,,,,882.3967,884.1898,884.1899,885.6317,return,0.4266,,74.86979167,,,,,,FBP-RB-19.png,0.45,1.2,60,1,,,,,,,,,,,,,,,,,,0,23,23,59,1,,,,,,,,,,,,,,,,,,,,,,,
,,,,,v1_029,19,Female,2024-05-22_08h59.37.845,jersey_experiment_5_v1,2023.2.2,Win32,84.74576271,,,,,,,,,,,,,,,,885.6318,887.4254,887.4254,888.3549,return,0.2385,,49.86979167,,,,,,FBP-OG-81.png,0.35,1.2,36,1,,,,,,,,,,,,,,,,,,0,24,24,35,1,,,,,,,,,,,,,,,,,,,,,,,
,,,,,v1_029,19,Female,2024-05-22_08h59.37.845,jersey_experiment_5_v1,2023.2.2,Win32,84.74576271,,,,,,,,,,,,,,,,888.3551,890.155,890.155,891.4959,return,0.4173,,31.11979167,,,,,,FBP-YG-81.png,0.37,1.2,22,1,,,,,,,,,,,,,,,,,,0,25,25,21,1,,,,,,,,,,,,,,,,,,,,,,,
,,,,,v1_029,19,Female,2024-05-22_08h59.37.845,jersey_experiment_5_v1,2023.2.2,Win32,84.74576271,,,,,,,,,,,,,,,,891.496,893.2962,893.2962,894.7196,return,0.4805,,22.39583333,,,,,,FBP-YG-81.png,0.35,1.2,21,1,,,,,,,,,,,,,,,,,,0,26,26,20,1,,,,,,,,,,,,,,,,,,,,,,,
,,,,,v1_029,19,Female,2024-05-22_08h59.37.845,jersey_experiment_5_v1,2023.2.2,Win32,84.74576271,,,,,,,,,,,,,,,,894.7198,896.0169,896.0169,897.6727,return,0.5256,,24.47916667,,,,,,FBP-PT-19.png,0.37,1.2,12,0.5,,,,,,,,,,,,,,,,,,0,27,27,11,1,,,,,,,,,,,,,,,,,,,,,,,
,,,,,v1_029,19,Female,2024-05-22_08h59.37.845,jersey_experiment_5_v1,2023.2.2,Win32,84.74576271,,,,,,,,,,,,,,,,897.6729,898.9729,898.9729,900.8141,return,0.8973,,20.18229167,,,,,,FBP-PT-19.png,0.35,1.2,11,0.5,,,,,,,,,,,,,,,,,,0,28,28,10,1,,,,,,,,,,,,,,,,,,,,,,,
,,,,,v1_029,19,Female,2024-05-22_08h59.37.845,jersey_experiment_5_v1,2023.2.2,Win32,84.74576271,,,,,,,,,,,,,,,,900.8142,902.6203,902.6203,904.4024,return,0.2117,,52.08333333,,,,,,FBP-YG-81.png,0.4,1.2,23,1,,,,,,,,,,,,,,,,,,0,29,29,22,1,,,,,,,,,,,,,,,,,,,,,,,
,,,,,v1_029,19,Female,2024-05-22_08h59.37.845,jersey_experiment_5_v1,2023.2.2,Win32,84.74576271,,,,,,,,,,,,,,,,904.4026,906.1952,906.1952,907.2966,return,0.4708,,39.0625,,,,,,FBP-OG-81.png,0.37,1.2,37,1,,,,,,,,,,,,,,,,,,0,30,30,36,1,,,,,,,,,,,,,,,,,,,,,,,
,,,,,v1_029,19,Female,2024-05-22_08h59.37.845,jersey_experiment_5_v1,2023.2.2,Win32,84.74576271,,,,,,,,,,,,,,,,907.2967,909.0967,909.0967,911.2496,return,0.5883,,79.03645833,,,,,,FBP-YG-81.png,0.45,1.2,25,1,,,,,,,,,,,,,,,,,,0,31,31,24,1,,,,,,,,,,,,,,,,,,,,,,,
,,,,,v1_029,19,Female,2024-05-22_08h59.37.845,jersey_experiment_5_v1,2023.2.2,Win32,84.74576271,,,,,,,,,,,,,,,,911.2499,912.5472,912.5472,914.2206,return,0.3797,,49.609375,,,,,,FBP-PT-18.png,0.37,1.2,7,0.5,,,,,,,,,,,,,,,,,,0,32,32,6,1,,,,,,,,,,,,,,,,,,,,,,,
,,,,,v1_029,19,Female,2024-05-22_08h59.37.845,jersey_experiment_5_v1,2023.2.2,Win32,84.74576271,,,,,,,,,,,,,,,,914.2207,916.0221,916.0221,917.897,return,1.3958,,61.84895833,,,,,,FBP-RB-19.png,0.4,1.2,58,1,,,,,,,,,,,,,,,,,,0,33,33,57,1,,,,,,,,,,,,,,,,,,,,,,,
,,,,,v1_029,19,Female,2024-05-22_08h59.37.845,jersey_experiment_5_v1,2023.2.2,Win32,84.74576271,,,,,,,,,,,,,,,,917.8972,919.1913,919.1913,920.9794,return,0.7769,,29.6875,,,,,,FBP-PT-18.png,0.35,1.2,6,0.5,,,,,,,,,,,,,,,,,,0,34,34,5,1,,,,,,,,,,,,,,,,,,,,,,,
,,,,,v1_029,19,Female,2024-05-22_08h59.37.845,jersey_experiment_5_v1,2023.2.2,Win32,84.74576271,,,,,,,,,,,,,,,,920.9796,922.7822,922.7822,924.3206,return,0.5294,,34.50520833,,,,,,FBP-RB-18.png,0.37,1.2,52,1,,,,,,,,,,,,,,,,,,0,35,35,51,1,,,,,,,,,,,,,,,,,,,,,,,
,,,,,v1_029,19,Female,2024-05-22_08h59.37.845,jersey_experiment_5_v1,2023.2.2,Win32,84.74576271,,,,,,,,,,,,,,,,924.3208,926.1241,926.1242,927.5798,return,0.7342,,80.98958333,,,,,,FBP-YG-81.png,0.43,1.2,24,1,,,,,,,,,,,,,,,,,,0,36,36,23,1,,,,,,,,,,,,,,,,,,,,,,,
,,,,,v1_029,19,Female,2024-05-22_08h59.37.845,jersey_experiment_5_v1,2023.2.2,Win32,84.74576271,,,,,,,,,,,,,,,,927.58,928.8739,928.8739,931.2976,return,0.9061,,87.5,,,,,,FBP-PT-19.png,0.45,1.2,15,0.5,,,,,,,,,,,,,,,,,,0,37,37,14,1,,,,,,,,,,,,,,,,,,,,,,,
,,,,,v1_029,19,Female,2024-05-22_08h59.37.845,jersey_experiment_5_v1,2023.2.2,Win32,84.74576271,,,,,,,,,,,,,,,,931.2977,932.5916,932.5917,934.4505,return,0.8383,,16.92708333,,,,,,FBP-PT-17.png,0.37,1.2,2,0.5,,,,,,,,,,,,,,,,,,0,38,38,1,1,,,,,,,,,,,,,,,,,,,,,,,
,,,,,v1_029,19,Female,2024-05-22_08h59.37.845,jersey_experiment_5_v1,2023.2.2,Win32,84.74576271,,,,,,,,,,,,,,,,934.4507,936.2506,936.2506,939.7247,return,2.3757,,75.13020833,,,,,,FBP-RB-19.png,0.43,1.2,59,1,,,,,,,,,,,,,,,,,,0,39,39,58,1,,,,,,,,,,,,,,,,,,,,,,,
,,,,,v1_029,19,Female,2024-05-22_08h59.37.845,jersey_experiment_5_v1,2023.2.2,Win32,84.74576271,,,,,,,,,,,,,,,,939.7248,941.5161,941.5161,943.7215,return,0.8631,,30.078125,,,,,,FBP-RB-17.png,0.37,1.2,47,1,,,,,,,,,,,,,,,,,,0,40,40,46,1,,,,,,,,,,,,,,,,,,,,,,,
,,,,,v1_029,19,Female,2024-05-22_08h59.37.845,jersey_experiment_5_v1,2023.2.2,Win32,84.74576271,,,,,,,,,,,,,,,,943.7217,945.5215,945.5215,947.3686,return,0.5693,,64.58333333,,,,,,FBP-YG-71.png,0.4,1.2,18,1,,,,,,,,,,,,,,,,,,0,41,41,17,1,,,,,,,,,,,,,,,,,,,,,,,
,,,,,v1_029,19,Female,2024-05-22_08h59.37.845,jersey_experiment_5_v1,2023.2.2,Win32,84.74576271,,,,,,,,,,,,,,,,947.3687,949.1687,949.1687,950.7688,return,0.7743,,25.91145833,,,,,,FBP-OG-71.png,0.37,1.2,32,1,,,,,,,,,,,,,,,,,,0,42,42,31,1,,,,,,,,,,,,,,,,,,,,,,,
,,,,,v1_029,19,Female,2024-05-22_08h59.37.845,jersey_experiment_5_v1,2023.2.2,Win32,84.74576271,,,,,,,,,,,,,,,,950.7689,952.5601,952.5601,953.834,return,0.6268,,20.703125,,,,,,FBP-RB-19.png,0.37,1.2,57,1,,,,,,,,,,,,,,,,,,0,43,43,56,1,,,,,,,,,,,,,,,,,,,,,,,
,,,,,v1_029,19,Female,2024-05-22_08h59.37.845,jersey_experiment_5_v1,2023.2.2,Win32,84.74576271,,,,,,,,,,,,,,,,953.834,955.6305,955.6305,957.4458,return,0.9091,,18.75,,,,,,FBP-YG-91.png,0.35,1.2,26,1,,,,,,,,,,,,,,,,,,0,44,44,25,1,,,,,,,,,,,,,,,,,,,,,,,
,,,,,v1_029,19,Female,2024-05-22_08h59.37.845,jersey_experiment_5_v1,2023.2.2,Win32,84.74576271,,,,,,,,,,,,,,,,957.4458,959.2468,959.2468,961.8707,return,0.4866,,16.14583333,,,,,,FBP-RB-19.png,0.35,1.2,56,1,,,,,,,,,,,,,,,,,,0,45,45,55,1,,,,,,,,,,,,,,,,,,,,,,,
,,,,,v1_029,19,Female,2024-05-22_08h59.37.845,jersey_experiment_5_v1,2023.2.2,Win32,84.74576271,,,,,,,,,,,,,,,,961.8708,963.1691,963.1691,964.6986,return,0.5232,,73.95833333,,,,,,FBP-PT-18.png,0.43,1.2,9,0.5,,,,,,,,,,,,,,,,,,0,46,46,8,1,,,,,,,,,,,,,,,,,,,,,,,
,,,,,v1_029,19,Female,2024-05-22_08h59.37.845,jersey_experiment_5_v1,2023.2.2,Win32,84.74576271,,,,,,,,,,,,,,,,964.6989,966.4931,966.4931,967.5607,return,0.3265,,80.078125,,,,,,FBP-OG-91.png,0.43,1.2,44,1,,,,,,,,,,,,,,,,,,0,47,47,43,1,,,,,,,,,,,,,,,,,,,,,,,
,,,,,v1_029,19,Female,2024-05-22_08h59.37.845,jersey_experiment_5_v1,2023.2.2,Win32,84.74576271,,,,,,,,,,,,,,,,967.5608,969.3605,969.3606,971.0871,return,0.8015,,77.34375,,,,,,FBP-OG-71.png,0.4,1.2,33,1,,,,,,,,,,,,,,,,,,0,48,48,32,1,,,,,,,,,,,,,,,,,,,,,,,
,,,,,v1_029,19,Female,2024-05-22_08h59.37.845,jersey_experiment_5_v1,2023.2.2,Win32,84.74576271,,,,,,,,,,,,,,,,971.0873,972.8788,972.8788,974.3343,return,0.7788,,83.85416667,,,,,,FBP-RB-17.png,0.45,1.2,50,1,,,,,,,,,,,,,,,,,,0,49,49,49,1,,,,,,,,,,,,,,,,,,,,,,,
,,,,,v1_029,19,Female,2024-05-22_08h59.37.845,jersey_experiment_5_v1,2023.2.2,Win32,84.74576271,,,,,,,,,,,,,,,,974.3346,976.1294,976.1294,977.7579,return,0.5175,,90.10416667,,,,,,FBP-RB-18.png,0.45,1.2,55,1,,,,,,,,,,,,,,,,,,0,50,50,54,1,,,,,,,,,,,,,,,,,,,,,,,
,,,,,v1_029,19,Female,2024-05-22_08h59.37.845,jersey_experiment_5_v1,2023.2.2,Win32,84.74576271,,,,,,,,,,,,,,,,977.7581,979.0553,979.0553,980.0788,return,0.1618,,47.78645833,,,,,,FBP-PT-17.png,0.4,1.2,3,0.5,,,,,,,,,,,,,,,,,,0,51,51,2,1,,,,,,,,,,,,,,,,,,,,,,,
,,,,,v1_029,19,Female,2024-05-22_08h59.37.845,jersey_experiment_5_v1,2023.2.2,Win32,84.74576271,,,,,,,,,,,,,,,,980.079,981.8758,981.8759,982.9496,return,0.443,,32.03125,,,,,,FBP-OG-91.png,0.37,1.2,42,1,,,,,,,,,,,,,,,,,,0,52,52,41,1,,,,,,,,,,,,,,,,,,,,,,,
,,,,,v1_029,19,Female,2024-05-22_08h59.37.845,jersey_experiment_5_v1,2023.2.2,Win32,84.74576271,,,,,,,,,,,,,,,,982.9497,984.7497,984.7497,986.0087,return,0.4234,,72.00520833,,,,,,FBP-YG-71.png,0.43,1.2,19,1,,,,,,,,,,,,,,,,,,0,53,53,18,1,,,,,,,,,,,,,,,,,,,,,,,
,,,,,v1_029,19,Female,2024-05-22_08h59.37.845,jersey_experiment_5_v1,2023.2.2,Win32,84.74576271,,,,,,,,,,,,,,,,986.0088,987.8127,987.8127,988.6408,return,0.2471,,82.29166667,,,,,,FBP-OG-71.png,0.43,1.2,34,1,,,,,,,,,,,,,,,,,,0,54,54,33,1,,,,,,,,,,,,,,,,,,,,,,,
,,,,,v1_029,19,Female,2024-05-22_08h59.37.845,jersey_experiment_5_v1,2023.2.2,Win32,84.74576271,,,,,,,,,,,,,,,,988.6409,990.4361,990.4361,991.6172,return,0.459,,79.55729167,,,,,,FBP-RB-17.png,0.43,1.2,49,1,,,,,,,,,,,,,,,,,,0,55,55,48,1,,,,,,,,,,,,,,,,,,,,,,,
,,,,,v1_029,19,Female,2024-05-22_08h59.37.845,jersey_experiment_5_v1,2023.2.2,Win32,84.74576271,,,,,,,,,,,,,,,,991.6173,992.9114,992.9114,994.6091,return,0.5036,,74.609375,,,,,,FBP-PT-18.png,0.4,1.2,8,0.5,,,,,,,,,,,,,,,,,,0,56,56,7,1,,,,,,,,,,,,,,,,,,,,,,,
,,,,,v1_029,19,Female,2024-05-22_08h59.37.845,jersey_experiment_5_v1,2023.2.2,Win32,84.74576271,,,,,,,,,,,,,,,,994.6092,996.4057,996.4057,997.0646,return,0.1933,,49.34895833,,,,,,FBP-YG-71.png,0.37,1.2,17,1,,,,,,,,,,,,,,,,,,0,57,57,16,1,,,,,,,,,,,,,,,,,,,,,,,
,,,,,v1_029,19,Female,2024-05-22_08h59.37.845,jersey_experiment_5_v1,2023.2.2,Win32,84.74576271,,,,,,,,,,,,,,,,997.0647,998.8646,998.8646,1000.2136,return,0.8487,,59.63541667,,,,,,FBP-OG-91.png,0.4,1.2,43,1,,,,,,,,,,,,,,,,,,0,58,58,42,1,,,,,,,,,,,,,,,,,,,,,,,
,,,,,v1_029,19,Female,2024-05-22_08h59.37.845,jersey_experiment_5_v1,2023.2.2,Win32,84.74576271,,,,,,,,,,,,,,,,1000.2137,1002.0089,1002.009,1002.9941,return,0.4239,,79.16666667,,,,,,FBP-OG-81.png,0.45,1.2,40,1,,,,,,,,,,,,,,,,,,0,59,59,39,1,,,,,,,,,,,,,,,,,,,,,,,
,,,,,v1_029,19,Female,2024-05-22_08h59.37.845,jersey_experiment_5_v1,2023.2.2,Win32,84.74576271,,,,,,,,,,,,,,,,,,,,,,,,,,,,,,,,,,,,,,,,,,,,,,,,,,,,,,,,1002.9945,1006.2564,return,3.2465,,,,,,,,,,,,,,,,,,,
,,,,,v1_029,19,Female,2024-05-22_08h59.37.845,jersey_experiment_5_v1,2023.2.2,Win32,84.74576271,,,,,,,,,,,,,,,,,,,,,,,,,,,,,,,,,,,,,,,,,,,,,,,,,,,,,,,,,,,,,1006.2564,1011.4799,1,4.184,return,1.02,,,,,,,,,,,,
,,,,,v1_029,19,Female,2024-05-22_08h59.37.845,jersey_experiment_5_v1,2023.2.2,Win32,84.74576271,,,,,,,,,,,,,,,,,,,,,,,,,,,,,,,,,,,,,,,,,,,,,,,,,,,,,,,,,,,,,,,,,,,,1011.48,1115.4445,"I'm not too sure about what this study is about, but I do think I recognized a pattern when answering the rating scale. I saw that I would get more husky rated platers, and once I would get closer to the very husky rating, or consistenly match with husky players, I would get drastically slimmer football players.",right,92.9945,,,,,,
,,,,,v1_029,19,Female,2024-05-22_08h59.37.845,jersey_experiment_5_v1,2023.2.2,Win32,84.74576271,,,,,,,,,,,,,,,,,,,,,,,,,,,,,,,,,,,,,,,,,,,,,,,,,,,,,,,,,,,,,,,,,,,,,,,,,,1115.4445,1120.3279,return,4.8791,