requirements.started,requirements.stopped,key_resp_3.keys,key_resp_3.rt,key_resp_3.duration,Subject ID,Age,Gender,date,expName,psychopyVersion,OS,frameRate,instructions1.started,instructions1.stopped,key_resp.keys,key_resp.rt,key_resp.duration,example.started,example.stopped,enter_2.keys,enter_2.rt,enter_2.duration,instructions2.started,instructions2.stopped,enter_3.keys,enter_3.rt,enter_3.duration,image.started,image.stopped,slider_2.started,slider_2.stopped,next.keys,next.rt,next.duration,slider.response,trial_block_1.thisRepN,trial_block_1.thisTrialN,trial_block_1.thisN,trial_block_1.thisIndex,trial_block_1.ran,Path,Width,Height,Index,Duration,trial_block_2.thisRepN,trial_block_2.thisTrialN,trial_block_2.thisN,trial_block_2.thisIndex,trial_block_2.ran,rest_break.started,rest_break.stopped,end_break.started,end_break.stopped,key_resp_5.keys,key_resp_5.rt,key_resp_5.duration,trial_block_3.thisRepN,trial_block_3.thisTrialN,trial_block_3.thisN,trial_block_3.thisIndex,trial_block_3.ran,trial_block_4.thisRepN,trial_block_4.thisTrialN,trial_block_4.thisN,trial_block_4.thisIndex,trial_block_4.ran,questions_intro.started,questions_intro.stopped,enter_12.keys,enter_12.rt,enter_12.duration,question2.started,question2.stopped,question_doingbest.response,question_doingbest.rt,enter_15.keys,enter_15.rt,enter_15.duration,pattern.started,pattern.stopped,pattern_2.text,enter_17.keys,enter_17.rt,enter_17.duration,thankyou.started,thankyou.stopped,enter_14.keys,enter_14.rt,enter_14.duration
0,10.044,return,10.0392,,V1_025,31,Male,2024-05-17_11h33.45.277,jersey_experiment_5_v1,2023.2.2,Win32,84.74576271,,,,,,,,,,,,,,,,,,,,,,,,,,,,,,,,,,,,,,,,,,,,,,,,,,,,,,,,,,,,,,,,,,,,,,,,,,,,,,
,,,,,V1_025,31,Male,2024-05-17_11h33.45.277,jersey_experiment_5_v1,2023.2.2,Win32,84.74576271,10.0441,19.2161,return,9.1659,,,,,,,,,,,,,,,,,,,,,,,,,,,,,,,,,,,,,,,,,,,,,,,,,,,,,,,,,,,,,,,,,,,,,,,,,,
,,,,,V1_025,31,Male,2024-05-17_11h33.45.277,jersey_experiment_5_v1,2023.2.2,Win32,84.74576271,,,,,,19.2162,26.095,return,6.8462,,,,,,,,,,,,,,,,,,,,,,,,,,,,,,,,,,,,,,,,,,,,,,,,,,,,,,,,,,,,,,,,,,,,,
,,,,,V1_025,31,Male,2024-05-17_11h33.45.277,jersey_experiment_5_v1,2023.2.2,Win32,84.74576271,,,,,,,,,,,26.0951,50.4841,return,24.3649,,,,,,,,,,,,,,,,,,,,,,,,,,,,,,,,,,,,,,,,,,,,,,,,,,,,,,,,,,,,,,,,
,,,,,V1_025,31,Male,2024-05-17_11h33.45.277,jersey_experiment_5_v1,2023.2.2,Win32,84.74576271,,,,,,,,,,,,,,,,50.4916,51.7927,51.7927,59.3433,return,3.1328,,25.13020833,0,0,0,41,1,FBP-OG-19.png,0.37,1.2,42,0.5,,,,,,,,,,,,,,,,,,,,,,,,,,,,,,,,,,,,,,,,,,,,,
,,,,,V1_025,31,Male,2024-05-17_11h33.45.277,jersey_experiment_5_v1,2023.2.2,Win32,84.74576271,,,,,,,,,,,,,,,,59.3477,61.1429,61.1429,64.2725,return,1.5431,,75.52083333,0,1,1,9,1,FBP-PT-81.png,0.45,1.2,10,1,,,,,,,,,,,,,,,,,,,,,,,,,,,,,,,,,,,,,,,,,,,,,
,,,,,V1_025,31,Male,2024-05-17_11h33.45.277,jersey_experiment_5_v1,2023.2.2,Win32,84.74576271,,,,,,,,,,,,,,,,64.2726,65.5666,65.5666,68.9786,return,2.2376,,50.65104167,0,2,2,15,1,FBP-YG-17.png,0.35,1.2,16,0.5,,,,,,,,,,,,,,,,,,,,,,,,,,,,,,,,,,,,,,,,,,,,,
,,,,,V1_025,31,Male,2024-05-17_11h33.45.277,jersey_experiment_5_v1,2023.2.2,Win32,84.74576271,,,,,,,,,,,,,,,,68.9788,70.2727,70.2727,74.4967,return,2.6145,,49.609375,0,3,3,46,1,FBP-RB-71.png,0.37,1.2,47,0.5,,,,,,,,,,,,,,,,,,,,,,,,,,,,,,,,,,,,,,,,,,,,,
,,,,,V1_025,31,Male,2024-05-17_11h33.45.277,jersey_experiment_5_v1,2023.2.2,Win32,84.74576271,,,,,,,,,,,,,,,,74.5011,75.8023,75.8023,79.9318,return,1.9124,,50.390625,0,4,4,42,1,FBP-OG-19.png,0.4,1.2,43,0.5,,,,,,,,,,,,,,,,,,,,,,,,,,,,,,,,,,,,,,,,,,,,,
,,,,,V1_025,31,Male,2024-05-17_11h33.45.277,jersey_experiment_5_v1,2023.2.2,Win32,84.74576271,,,,,,,,,,,,,,,,79.932,81.226,81.226,85.4615,return,1.5534,,99.47916667,0,5,5,19,1,FBP-YG-17.png,0.45,1.2,20,0.5,,,,,,,,,,,,,,,,,,,,,,,,,,,,,,,,,,,,,,,,,,,,,
,,,,,V1_025,31,Male,2024-05-17_11h33.45.277,jersey_experiment_5_v1,2023.2.2,Win32,84.74576271,,,,,,,,,,,,,,,,85.4618,86.7557,86.7557,91.697,return,1.8369,,74.86979167,0,6,6,57,1,FBP-RB-91.png,0.4,1.2,58,0.5,,,,,,,,,,,,,,,,,,,,,,,,,,,,,,,,,,,,,,,,,,,,,
,,,,,V1_025,31,Male,2024-05-17_11h33.45.277,jersey_experiment_5_v1,2023.2.2,Win32,84.74576271,,,,,,,,,,,,,,,,91.6973,93.4971,93.4971,95.9561,return,1.7558,,74.86979167,0,7,7,3,1,FBP-PT-71.png,0.43,1.2,4,1,,,,,,,,,,,,,,,,,,,,,,,,,,,,,,,,,,,,,,,,,,,,,
,,,,,V1_025,31,Male,2024-05-17_11h33.45.277,jersey_experiment_5_v1,2023.2.2,Win32,84.74576271,,,,,,,,,,,,,,,,95.9563,97.756,97.756,106.6623,return,6.5411,,85.15625,0,8,8,8,1,FBP-PT-81.png,0.43,1.2,9,1,,,,,,,,,,,,,,,,,,,,,,,,,,,,,,,,,,,,,,,,,,,,,
,,,,,V1_025,31,Male,2024-05-17_11h33.45.277,jersey_experiment_5_v1,2023.2.2,Win32,84.74576271,,,,,,,,,,,,,,,,106.6626,107.9565,107.9565,111.5332,return,1.1115,,57.94270833,0,9,9,59,1,FBP-RB-91.png,0.45,1.2,60,0.5,,,,,,,,,,,,,,,,,,,,,,,,,,,,,,,,,,,,,,,,,,,,,
,,,,,V1_025,31,Male,2024-05-17_11h33.45.277,jersey_experiment_5_v1,2023.2.2,Win32,84.74576271,,,,,,,,,,,,,,,,111.5334,112.8273,112.8273,117.1686,return,1.4482,,76.69270833,0,10,10,48,1,FBP-RB-71.png,0.43,1.2,49,0.5,,,,,,,,,,,,,,,,,,,,,,,,,,,,,,,,,,,,,,,,,,,,,
,,,,,V1_025,31,Male,2024-05-17_11h33.45.277,jersey_experiment_5_v1,2023.2.2,Win32,84.74576271,,,,,,,,,,,,,,,,117.1688,118.4626,118.4626,121.9217,return,0.9914,,25.26041667,0,11,11,31,1,FBP-OG-17.png,0.37,1.2,32,0.5,,,,,,,,,,,,,,,,,,,,,,,,,,,,,,,,,,,,,,,,,,,,,
,,,,,V1_025,31,Male,2024-05-17_11h33.45.277,jersey_experiment_5_v1,2023.2.2,Win32,84.74576271,,,,,,,,,,,,,,,,121.9219,123.7218,123.7218,126.4865,return,1.0446,,20.3125,0,12,12,1,1,FBP-PT-71.png,0.37,1.2,2,1,,,,,,,,,,,,,,,,,,,,,,,,,,,,,,,,,,,,,,,,,,,,,
,,,,,V1_025,31,Male,2024-05-17_11h33.45.277,jersey_experiment_5_v1,2023.2.2,Win32,84.74576271,,,,,,,,,,,,,,,,126.4867,128.2865,128.2866,131.4398,return,1.6732,,21.35416667,0,13,13,11,1,FBP-PT-91.png,0.37,1.2,12,1,,,,,,,,,,,,,,,,,,,,,,,,,,,,,,,,,,,,,,,,,,,,,
,,,,,V1_025,31,Male,2024-05-17_11h33.45.277,jersey_experiment_5_v1,2023.2.2,Win32,84.74576271,,,,,,,,,,,,,,,,131.44,132.7338,132.7338,135.828,return,0.9278,,35.546875,0,14,14,32,1,FBP-OG-17.png,0.4,1.2,33,0.5,,,,,,,,,,,,,,,,,,,,,,,,,,,,,,,,,,,,,,,,,,,,,
,,,,,V1_025,31,Male,2024-05-17_11h33.45.277,jersey_experiment_5_v1,2023.2.2,Win32,84.74576271,,,,,,,,,,,,,,,,135.8282,137.1221,137.1221,142.3578,return,1.8737,,75.91145833,0,15,15,54,1,FBP-RB-81.png,0.45,1.2,55,0.5,,,,,,,,,,,,,,,,,,,,,,,,,,,,,,,,,,,,,,,,,,,,,
,,,,,V1_025,31,Male,2024-05-17_11h33.45.277,jersey_experiment_5_v1,2023.2.2,Win32,84.74576271,,,,,,,,,,,,,,,,142.358,144.1577,144.1578,147.5581,return,1.2617,,95.57291667,0,16,16,4,1,FBP-PT-71.png,0.45,1.2,5,1,,,,,,,,,,,,,,,,,,,,,,,,,,,,,,,,,,,,,,,,,,,,,
,,,,,V1_025,31,Male,2024-05-17_11h33.45.277,jersey_experiment_5_v1,2023.2.2,Win32,84.74576271,,,,,,,,,,,,,,,,147.5583,149.3581,149.3581,152.2051,return,1.1142,,12.890625,0,17,17,6,1,FBP-PT-81.png,0.37,1.2,7,1,,,,,,,,,,,,,,,,,,,,,,,,,,,,,,,,,,,,,,,,,,,,,
,,,,,V1_025,31,Male,2024-05-17_11h33.45.277,jersey_experiment_5_v1,2023.2.2,Win32,84.74576271,,,,,,,,,,,,,,,,152.2053,153.4992,153.4992,159.7938,return,4.2741,,70.703125,0,18,18,43,1,FBP-OG-19.png,0.43,1.2,44,0.5,,,,,,,,,,,,,,,,,,,,,,,,,,,,,,,,,,,,,,,,,,,,,
,,,,,V1_025,31,Male,2024-05-17_11h33.45.277,jersey_experiment_5_v1,2023.2.2,Win32,84.74576271,,,,,,,,,,,,,,,,159.7979,161.5937,161.5937,168.947,return,1.4592,,69.40104167,0,19,19,14,1,FBP-PT-91.png,0.45,1.2,15,1,,,,,,,,,,,,,,,,,,,,,,,,,,,,,,,,,,,,,,,,,,,,,
,,,,,V1_025,31,Male,2024-05-17_11h33.45.277,jersey_experiment_5_v1,2023.2.2,Win32,84.74576271,,,,,,,,,,,,,,,,168.9473,170.241,170.241,173.8884,return,1.2257,,5.598958333,0,20,20,50,1,FBP-RB-81.png,0.35,1.2,51,0.5,,,,,,,,,,,,,,,,,,,,,,,,,,,,,,,,,,,,,,,,,,,,,
,,,,,V1_025,31,Male,2024-05-17_11h33.45.277,jersey_experiment_5_v1,2023.2.2,Win32,84.74576271,,,,,,,,,,,,,,,,173.8886,175.1825,175.1825,179.4061,return,1.4394,,76.04166667,0,21,21,53,1,FBP-RB-81.png,0.43,1.2,54,0.5,,,,,,,,,,,,,,,,,,,,,,,,,,,,,,,,,,,,,,,,,,,,,
,,,,,V1_025,31,Male,2024-05-17_11h33.45.277,jersey_experiment_5_v1,2023.2.2,Win32,84.74576271,,,,,,,,,,,,,,,,179.4064,180.7001,180.7002,185.83,return,2.8147,,92.83854167,0,22,22,24,1,FBP-YG-18.png,0.45,1.2,25,0.5,,,,,,,,,,,,,,,,,,,,,,,,,,,,,,,,,,,,,,,,,,,,,
,,,,,V1_025,31,Male,2024-05-17_11h33.45.277,jersey_experiment_5_v1,2023.2.2,Win32,84.74576271,,,,,,,,,,,,,,,,185.8302,187.1242,187.1242,193.795,return,2.3076,,77.34375,0,23,23,28,1,FBP-YG-19.png,0.43,1.2,29,0.5,,,,,,,,,,,,,,,,,,,,,,,,,,,,,,,,,,,,,,,,,,,,,
,,,,,V1_025,31,Male,2024-05-17_11h33.45.277,jersey_experiment_5_v1,2023.2.2,Win32,84.74576271,,,,,,,,,,,,,,,,193.7952,195.089,195.089,200.7715,return,2.8143,,68.88020833,0,24,24,40,1,FBP-OG-19.png,0.35,1.2,41,0.5,,,,,,,,,,,,,,,,,,,,,,,,,,,,,,,,,,,,,,,,,,,,,
,,,,,V1_025,31,Male,2024-05-17_11h33.45.277,jersey_experiment_5_v1,2023.2.2,Win32,84.74576271,,,,,,,,,,,,,,,,200.776,202.0775,202.0776,204.3834,return,0.8151,,52.34375,0,25,25,47,1,FBP-RB-71.png,0.4,1.2,48,0.5,,,,,,,,,,,,,,,,,,,,,,,,,,,,,,,,,,,,,,,,,,,,,
,,,,,V1_025,31,Male,2024-05-17_11h33.45.277,jersey_experiment_5_v1,2023.2.2,Win32,84.74576271,,,,,,,,,,,,,,,,204.3835,205.6777,205.6777,207.6072,return,0.9883,,49.08854167,0,26,26,16,1,FBP-YG-17.png,0.37,1.2,17,0.5,,,,,,,,,,,,,,,,,,,,,,,,,,,,,,,,,,,,,,,,,,,,,
,,,,,V1_025,31,Male,2024-05-17_11h33.45.277,jersey_experiment_5_v1,2023.2.2,Win32,84.74576271,,,,,,,,,,,,,,,,207.6073,208.9013,208.9013,211.3602,return,0.8638,,27.60416667,0,27,27,51,1,FBP-RB-81.png,0.37,1.2,52,0.5,,,,,,,,,,,,,,,,,,,,,,,,,,,,,,,,,,,,,,,,,,,,,
,,,,,V1_025,31,Male,2024-05-17_11h33.45.277,jersey_experiment_5_v1,2023.2.2,Win32,84.74576271,,,,,,,,,,,,,,,,211.3604,213.1602,213.1603,214.5721,return,0.724,,27.08333333,0,28,28,0,1,FBP-PT-71.png,0.35,1.2,1,1,,,,,,,,,,,,,,,,,,,,,,,,,,,,,,,,,,,,,,,,,,,,,
,,,,,V1_025,31,Male,2024-05-17_11h33.45.277,jersey_experiment_5_v1,2023.2.2,Win32,84.74576271,,,,,,,,,,,,,,,,214.5722,215.8662,215.8662,218.9607,return,1.4842,,48.30729167,0,29,29,26,1,FBP-YG-19.png,0.37,1.2,27,0.5,,,,,,,,,,,,,,,,,,,,,,,,,,,,,,,,,,,,,,,,,,,,,
,,,,,V1_025,31,Male,2024-05-17_11h33.45.277,jersey_experiment_5_v1,2023.2.2,Win32,84.74576271,,,,,,,,,,,,,,,,218.9609,220.2547,220.2548,223.0431,return,1.1645,,79.94791667,0,30,30,18,1,FBP-YG-17.png,0.43,1.2,19,0.5,,,,,,,,,,,,,,,,,,,,,,,,,,,,,,,,,,,,,,,,,,,,,
,,,,,V1_025,31,Male,2024-05-17_11h33.45.277,jersey_experiment_5_v1,2023.2.2,Win32,84.74576271,,,,,,,,,,,,,,,,223.0434,224.8431,224.8431,226.7373,return,0.7897,,75.91145833,0,31,31,12,1,FBP-PT-91.png,0.4,1.2,13,1,,,,,,,,,,,,,,,,,,,,,,,,,,,,,,,,,,,,,,,,,,,,,
,,,,,V1_025,31,Male,2024-05-17_11h33.45.277,jersey_experiment_5_v1,2023.2.2,Win32,84.74576271,,,,,,,,,,,,,,,,226.7374,228.0312,228.0312,229.8903,return,0.6003,,68.09895833,0,32,32,33,1,FBP-OG-17.png,0.43,1.2,34,0.5,,,,,,,,,,,,,,,,,,,,,,,,,,,,,,,,,,,,,,,,,,,,,
,,,,,V1_025,31,Male,2024-05-17_11h33.45.277,jersey_experiment_5_v1,2023.2.2,Win32,84.74576271,,,,,,,,,,,,,,,,229.8904,231.1845,231.1845,232.7257,return,0.5885,,68.09895833,0,33,33,38,1,FBP-OG-18.png,0.43,1.2,39,0.5,,,,,,,,,,,,,,,,,,,,,,,,,,,,,,,,,,,,,,,,,,,,,
,,,,,V1_025,31,Male,2024-05-17_11h33.45.277,jersey_experiment_5_v1,2023.2.2,Win32,84.74576271,,,,,,,,,,,,,,,,232.7259,234.02,234.02,236.3376,return,0.7093,,35.67708333,0,34,34,35,1,FBP-OG-18.png,0.35,1.2,36,0.5,,,,,,,,,,,,,,,,,,,,,,,,,,,,,,,,,,,,,,,,,,,,,
,,,,,V1_025,31,Male,2024-05-17_11h33.45.277,jersey_experiment_5_v1,2023.2.2,Win32,84.74576271,,,,,,,,,,,,,,,,236.3378,237.6319,237.6319,239.1966,return,0.8441,,35.67708333,0,35,35,27,1,FBP-YG-19.png,0.4,1.2,28,0.5,,,,,,,,,,,,,,,,,,,,,,,,,,,,,,,,,,,,,,,,,,,,,
,,,,,V1_025,31,Male,2024-05-17_11h33.45.277,jersey_experiment_5_v1,2023.2.2,Win32,84.74576271,,,,,,,,,,,,,,,,239.1968,240.4907,240.4907,244.8204,return,1.0827,,29.16666667,0,36,36,36,1,FBP-OG-18.png,0.37,1.2,37,0.5,,,,,,,,,,,,,,,,,,,,,,,,,,,,,,,,,,,,,,,,,,,,,
,,,,,V1_025,31,Male,2024-05-17_11h33.45.277,jersey_experiment_5_v1,2023.2.2,Win32,84.74576271,,,,,,,,,,,,,,,,244.8206,246.1143,246.1143,249.1852,return,1.6131,,76.04166667,0,37,37,22,1,FBP-YG-18.png,0.4,1.2,23,0.5,,,,,,,,,,,,,,,,,,,,,,,,,,,,,,,,,,,,,,,,,,,,,
,,,,,V1_025,31,Male,2024-05-17_11h33.45.277,jersey_experiment_5_v1,2023.2.2,Win32,84.74576271,,,,,,,,,,,,,,,,249.1854,250.9852,250.9852,252.5148,return,0.9093,,75,0,38,38,7,1,FBP-PT-81.png,0.4,1.2,8,1,,,,,,,,,,,,,,,,,,,,,,,,,,,,,,,,,,,,,,,,,,,,,
,,,,,V1_025,31,Male,2024-05-17_11h33.45.277,jersey_experiment_5_v1,2023.2.2,Win32,84.74576271,,,,,,,,,,,,,,,,252.5149,253.8087,253.8088,257.1032,return,1.2501,,50,0,39,39,21,1,FBP-YG-18.png,0.37,1.2,22,0.5,,,,,,,,,,,,,,,,,,,,,,,,,,,,,,,,,,,,,,,,,,,,,
,,,,,V1_025,31,Male,2024-05-17_11h33.45.277,jersey_experiment_5_v1,2023.2.2,Win32,84.74576271,,,,,,,,,,,,,,,,257.1033,258.3973,258.3973,260.9739,return,1.3012,,26.82291667,0,40,40,20,1,FBP-YG-18.png,0.35,1.2,21,0.5,,,,,,,,,,,,,,,,,,,,,,,,,,,,,,,,,,,,,,,,,,,,,
,,,,,V1_025,31,Male,2024-05-17_11h33.45.277,jersey_experiment_5_v1,2023.2.2,Win32,84.74576271,,,,,,,,,,,,,,,,260.9741,262.2679,262.268,265.127,return,1.2946,,74.21875,0,41,41,52,1,FBP-RB-81.png,0.4,1.2,53,0.5,,,,,,,,,,,,,,,,,,,,,,,,,,,,,,,,,,,,,,,,,,,,,
,,,,,V1_025,31,Male,2024-05-17_11h33.45.277,jersey_experiment_5_v1,2023.2.2,Win32,84.74576271,,,,,,,,,,,,,,,,265.1272,266.421,266.421,268.5153,return,0.6586,,8.463541667,0,42,42,55,1,FBP-RB-91.png,0.35,1.2,56,0.5,,,,,,,,,,,,,,,,,,,,,,,,,,,,,,,,,,,,,,,,,,,,,
,,,,,V1_025,31,Male,2024-05-17_11h33.45.277,jersey_experiment_5_v1,2023.2.2,Win32,84.74576271,,,,,,,,,,,,,,,,268.5155,269.8094,269.8094,271.8095,return,0.6036,,61.19791667,0,43,43,58,1,FBP-RB-91.png,0.43,1.2,59,0.5,,,,,,,,,,,,,,,,,,,,,,,,,,,,,,,,,,,,,,,,,,,,,
,,,,,V1_025,31,Male,2024-05-17_11h33.45.277,jersey_experiment_5_v1,2023.2.2,Win32,84.74576271,,,,,,,,,,,,,,,,271.8098,273.1038,273.1038,275.2685,return,1.035,,47.39583333,0,44,44,30,1,FBP-OG-17.png,0.35,1.2,31,0.5,,,,,,,,,,,,,,,,,,,,,,,,,,,,,,,,,,,,,,,,,,,,,
,,,,,V1_025,31,Male,2024-05-17_11h33.45.277,jersey_experiment_5_v1,2023.2.2,Win32,84.74576271,,,,,,,,,,,,,,,,275.2687,277.0685,277.0685,285.1864,return,6.9536,,31.90104167,0,45,45,10,1,FBP-PT-91.png,0.35,1.2,11,1,,,,,,,,,,,,,,,,,,,,,,,,,,,,,,,,,,,,,,,,,,,,,
,,,,,V1_025,31,Male,2024-05-17_11h33.45.277,jersey_experiment_5_v1,2023.2.2,Win32,84.74576271,,,,,,,,,,,,,,,,285.1908,286.4925,286.4925,288.8926,return,0.712,,84.375,0,46,46,23,1,FBP-YG-18.png,0.43,1.2,24,0.5,,,,,,,,,,,,,,,,,,,,,,,,,,,,,,,,,,,,,,,,,,,,,
,,,,,V1_025,31,Male,2024-05-17_11h33.45.277,jersey_experiment_5_v1,2023.2.2,Win32,84.74576271,,,,,,,,,,,,,,,,288.8928,290.1867,290.1867,293.1162,return,0.9975,,27.08333333,0,47,47,56,1,FBP-RB-91.png,0.37,1.2,57,0.5,,,,,,,,,,,,,,,,,,,,,,,,,,,,,,,,,,,,,,,,,,,,,
,,,,,V1_025,31,Male,2024-05-17_11h33.45.277,jersey_experiment_5_v1,2023.2.2,Win32,84.74576271,,,,,,,,,,,,,,,,293.1163,294.4104,294.4104,297.3753,return,0.6506,,53.77604167,0,48,48,17,1,FBP-YG-17.png,0.4,1.2,18,0.5,,,,,,,,,,,,,,,,,,,,,,,,,,,,,,,,,,,,,,,,,,,,,
,,,,,V1_025,31,Male,2024-05-17_11h33.45.277,jersey_experiment_5_v1,2023.2.2,Win32,84.74576271,,,,,,,,,,,,,,,,297.3754,299.1752,299.1752,301.293,return,0.8432,,67.578125,0,49,49,13,1,FBP-PT-91.png,0.43,1.2,14,1,,,,,,,,,,,,,,,,,,,,,,,,,,,,,,,,,,,,,,,,,,,,,
,,,,,V1_025,31,Male,2024-05-17_11h33.45.277,jersey_experiment_5_v1,2023.2.2,Win32,84.74576271,,,,,,,,,,,,,,,,301.2932,302.5872,302.5872,304.6108,return,0.8612,,64.32291667,0,50,50,39,1,FBP-OG-18.png,0.45,1.2,40,0.5,,,,,,,,,,,,,,,,,,,,,,,,,,,,,,,,,,,,,,,,,,,,,
,,,,,V1_025,31,Male,2024-05-17_11h33.45.277,jersey_experiment_5_v1,2023.2.2,Win32,84.74576271,,,,,,,,,,,,,,,,304.611,305.9049,305.9049,307.6815,return,0.5774,,22.91666667,0,51,51,25,1,FBP-YG-19.png,0.35,1.2,26,0.5,,,,,,,,,,,,,,,,,,,,,,,,,,,,,,,,,,,,,,,,,,,,,
,,,,,V1_025,31,Male,2024-05-17_11h33.45.277,jersey_experiment_5_v1,2023.2.2,Win32,84.74576271,,,,,,,,,,,,,,,,307.6816,308.9755,308.9755,312.7639,return,2.5033,,50.13020833,0,52,52,37,1,FBP-OG-18.png,0.4,1.2,38,0.5,,,,,,,,,,,,,,,,,,,,,,,,,,,,,,,,,,,,,,,,,,,,,
,,,,,V1_025,31,Male,2024-05-17_11h33.45.277,jersey_experiment_5_v1,2023.2.2,Win32,84.74576271,,,,,,,,,,,,,,,,312.7641,314.0582,314.0582,321.1526,return,2.7223,,75.13020833,0,53,53,34,1,FBP-OG-17.png,0.45,1.2,35,0.5,,,,,,,,,,,,,,,,,,,,,,,,,,,,,,,,,,,,,,,,,,,,,
,,,,,V1_025,31,Male,2024-05-17_11h33.45.277,jersey_experiment_5_v1,2023.2.2,Win32,84.74576271,,,,,,,,,,,,,,,,321.1569,322.4584,322.4584,325.6234,return,2.3911,,83.85416667,0,54,54,44,1,FBP-OG-19.png,0.45,1.2,45,0.5,,,,,,,,,,,,,,,,,,,,,,,,,,,,,,,,,,,,,,,,,,,,,
,,,,,V1_025,31,Male,2024-05-17_11h33.45.277,jersey_experiment_5_v1,2023.2.2,Win32,84.74576271,,,,,,,,,,,,,,,,325.6236,327.4233,327.4233,328.988,return,0.7976,,49.609375,0,55,55,2,1,FBP-PT-71.png,0.4,1.2,3,1,,,,,,,,,,,,,,,,,,,,,,,,,,,,,,,,,,,,,,,,,,,,,
,,,,,V1_025,31,Male,2024-05-17_11h33.45.277,jersey_experiment_5_v1,2023.2.2,Win32,84.74576271,,,,,,,,,,,,,,,,328.9882,330.7884,330.7884,332.3177,return,0.9486,,35.80729167,0,56,56,5,1,FBP-PT-81.png,0.35,1.2,6,1,,,,,,,,,,,,,,,,,,,,,,,,,,,,,,,,,,,,,,,,,,,,,
,,,,,V1_025,31,Male,2024-05-17_11h33.45.277,jersey_experiment_5_v1,2023.2.2,Win32,84.74576271,,,,,,,,,,,,,,,,332.3178,333.6119,333.6119,335.506,return,1.0972,,73.56770833,0,57,57,49,1,FBP-RB-71.png,0.45,1.2,50,0.5,,,,,,,,,,,,,,,,,,,,,,,,,,,,,,,,,,,,,,,,,,,,,
,,,,,V1_025,31,Male,2024-05-17_11h33.45.277,jersey_experiment_5_v1,2023.2.2,Win32,84.74576271,,,,,,,,,,,,,,,,335.5062,336.8002,336.8002,338.8472,return,0.968,,85.02604167,0,58,58,29,1,FBP-YG-19.png,0.45,1.2,30,0.5,,,,,,,,,,,,,,,,,,,,,,,,,,,,,,,,,,,,,,,,,,,,,
,,,,,V1_025,31,Male,2024-05-17_11h33.45.277,jersey_experiment_5_v1,2023.2.2,Win32,84.74576271,,,,,,,,,,,,,,,,338.8474,340.1416,340.1416,342.1297,return,0.6009,,28.515625,0,59,59,45,1,FBP-RB-71.png,0.35,1.2,46,0.5,,,,,,,,,,,,,,,,,,,,,,,,,,,,,,,,,,,,,,,,,,,,,
,,,,,V1_025,31,Male,2024-05-17_11h33.45.277,jersey_experiment_5_v1,2023.2.2,Win32,84.74576271,,,,,,,,,,,,,,,,342.132,343.424,343.424,345.8357,return,1.1975,,69.921875,,,,,,FBP-YG-71.png,0.43,1.2,19,0.5,0,0,0,18,1,,,,,,,,,,,,,,,,,,,,,,,,,,,,,,,,,,,,,,,,
,,,,,V1_025,31,Male,2024-05-17_11h33.45.277,jersey_experiment_5_v1,2023.2.2,Win32,84.74576271,,,,,,,,,,,,,,,,345.8361,347.1301,347.1301,349.4241,return,1.3323,,78.77604167,,,,,,FBP-OG-81.png,0.45,1.2,40,0.5,0,1,1,39,1,,,,,,,,,,,,,,,,,,,,,,,,,,,,,,,,,,,,,,,,
,,,,,V1_025,31,Male,2024-05-17_11h33.45.277,jersey_experiment_5_v1,2023.2.2,Win32,84.74576271,,,,,,,,,,,,,,,,349.4243,350.7184,350.7184,353.2949,return,0.6858,,33.72395833,,,,,,FBP-YG-91.png,0.37,1.2,27,0.5,0,2,2,26,1,,,,,,,,,,,,,,,,,,,,,,,,,,,,,,,,,,,,,,,,
,,,,,V1_025,31,Male,2024-05-17_11h33.45.277,jersey_experiment_5_v1,2023.2.2,Win32,84.74576271,,,,,,,,,,,,,,,,353.2952,354.5891,354.5891,356.6714,return,0.9092,,74.34895833,,,,,,FBP-OG-91.png,0.43,1.2,44,0.5,0,3,3,43,1,,,,,,,,,,,,,,,,,,,,,,,,,,,,,,,,,,,,,,,,
,,,,,V1_025,31,Male,2024-05-17_11h33.45.277,jersey_experiment_5_v1,2023.2.2,Win32,84.74576271,,,,,,,,,,,,,,,,356.6717,357.9656,357.9656,368.2131,return,4.3301,,55.078125,,,,,,FBP-YG-71.png,0.4,1.2,18,0.5,0,4,4,17,1,,,,,,,,,,,,,,,,,,,,,,,,,,,,,,,,,,,,,,,,
,,,,,V1_025,31,Male,2024-05-17_11h33.45.277,jersey_experiment_5_v1,2023.2.2,Win32,84.74576271,,,,,,,,,,,,,,,,368.2176,369.5189,369.5189,372.9192,return,1.6234,,28.515625,,,,,,FBP-OG-91.png,0.35,1.2,41,0.5,0,5,5,40,1,,,,,,,,,,,,,,,,,,,,,,,,,,,,,,,,,,,,,,,,
,,,,,V1_025,31,Male,2024-05-17_11h33.45.277,jersey_experiment_5_v1,2023.2.2,Win32,84.74576271,,,,,,,,,,,,,,,,372.9195,374.2134,374.2135,377.5547,return,1.2003,,89.32291667,,,,,,FBP-RB-17.png,0.45,1.2,50,0.5,0,6,6,49,1,,,,,,,,,,,,,,,,,,,,,,,,,,,,,,,,,,,,,,,,
,,,,,V1_025,31,Male,2024-05-17_11h33.45.277,jersey_experiment_5_v1,2023.2.2,Win32,84.74576271,,,,,,,,,,,,,,,,377.555,378.8488,378.8488,384.0018,return,2.7301,,72.78645833,,,,,,FBP-OG-81.png,0.43,1.2,39,0.5,0,7,7,38,1,,,,,,,,,,,,,,,,,,,,,,,,,,,,,,,,,,,,,,,,
,,,,,V1_025,31,Male,2024-05-17_11h33.45.277,jersey_experiment_5_v1,2023.2.2,Win32,84.74576271,,,,,,,,,,,,,,,,384.0021,385.296,385.296,392.3198,return,4.6495,,50.52083333,,,,,,FBP-OG-71.png,0.43,1.2,34,0.5,0,8,8,33,1,,,,,,,,,,,,,,,,,,,,,,,,,,,,,,,,,,,,,,,,
,,,,,V1_025,31,Male,2024-05-17_11h33.45.277,jersey_experiment_5_v1,2023.2.2,Win32,84.74576271,,,,,,,,,,,,,,,,392.32,393.614,393.614,395.8376,return,1.1105,,50.52083333,,,,,,FBP-OG-71.png,0.4,1.2,33,0.5,0,9,9,32,1,,,,,,,,,,,,,,,,,,,,,,,,,,,,,,,,,,,,,,,,
,,,,,V1_025,31,Male,2024-05-17_11h33.45.277,jersey_experiment_5_v1,2023.2.2,Win32,84.74576271,,,,,,,,,,,,,,,,395.8378,397.6377,397.6377,399.3789,return,0.8818,,49.86979167,,,,,,FBP-PT-18.png,0.4,1.2,8,1,0,10,10,7,1,,,,,,,,,,,,,,,,,,,,,,,,,,,,,,,,,,,,,,,,
,,,,,V1_025,31,Male,2024-05-17_11h33.45.277,jersey_experiment_5_v1,2023.2.2,Win32,84.74576271,,,,,,,,,,,,,,,,399.3791,401.1793,401.1793,403.0262,return,0.7322,,26.04166667,,,,,,FBP-PT-18.png,0.35,1.2,6,1,0,11,11,5,1,,,,,,,,,,,,,,,,,,,,,,,,,,,,,,,,,,,,,,,,
,,,,,V1_025,31,Male,2024-05-17_11h33.45.277,jersey_experiment_5_v1,2023.2.2,Win32,84.74576271,,,,,,,,,,,,,,,,403.0264,404.3202,404.3203,407.391,return,1.9709,,59.765625,,,,,,FBP-RB-18.png,0.43,1.2,54,0.5,0,12,12,53,1,,,,,,,,,,,,,,,,,,,,,,,,,,,,,,,,,,,,,,,,
,,,,,V1_025,31,Male,2024-05-17_11h33.45.277,jersey_experiment_5_v1,2023.2.2,Win32,84.74576271,,,,,,,,,,,,,,,,407.3913,408.6852,408.6852,415.1913,return,4.1883,,8.984375,,,,,,FBP-RB-17.png,0.37,1.2,47,0.5,0,13,13,46,1,,,,,,,,,,,,,,,,,,,,,,,,,,,,,,,,,,,,,,,,
,,,,,V1_025,31,Male,2024-05-17_11h33.45.277,jersey_experiment_5_v1,2023.2.2,Win32,84.74576271,,,,,,,,,,,,,,,,415.1915,416.4854,416.4854,430.1918,return,11.4763,,50,,,,,,FBP-YG-81.png,0.43,1.2,24,0.5,0,14,14,23,1,,,,,,,,,,,,,,,,,,,,,,,,,,,,,,,,,,,,,,,,
,,,,,V1_025,31,Male,2024-05-17_11h33.45.277,jersey_experiment_5_v1,2023.2.2,Win32,84.74576271,,,,,,,,,,,,,,,,430.1967,431.4977,431.4978,432.7334,return,0.3963,,24.47916667,,,,,,FBP-RB-17.png,0.35,1.2,46,0.5,0,15,15,45,1,,,,,,,,,,,,,,,,,,,,,,,,,,,,,,,,,,,,,,,,
,,,,,V1_025,31,Male,2024-05-17_11h33.45.277,jersey_experiment_5_v1,2023.2.2,Win32,84.74576271,,,,,,,,,,,,,,,,432.7336,434.0274,434.0274,435.6508,return,0.3296,,50.91145833,,,,,,FBP-YG-91.png,0.4,1.2,28,0.5,0,16,16,27,1,,,,,,,,,,,,,,,,,,,,,,,,,,,,,,,,,,,,,,,,
,,,,,V1_025,31,Male,2024-05-17_11h33.45.277,jersey_experiment_5_v1,2023.2.2,Win32,84.74576271,,,,,,,,,,,,,,,,435.6511,436.9451,436.9451,437.9571,return,0.2362,,48.30729167,,,,,,FBP-OG-91.png,0.4,1.2,43,0.5,0,17,17,42,1,,,,,,,,,,,,,,,,,,,,,,,,,,,,,,,,,,,,,,,,
,,,,,V1_025,31,Male,2024-05-17_11h33.45.277,jersey_experiment_5_v1,2023.2.2,Win32,84.74576271,,,,,,,,,,,,,,,,437.9573,439.251,439.251,440.6274,return,0.528,,62.890625,,,,,,FBP-YG-71.png,0.45,1.2,20,0.5,0,18,18,19,1,,,,,,,,,,,,,,,,,,,,,,,,,,,,,,,,,,,,,,,,
,,,,,V1_025,31,Male,2024-05-17_11h33.45.277,jersey_experiment_5_v1,2023.2.2,Win32,84.74576271,,,,,,,,,,,,,,,,440.6275,441.9217,441.9217,443.8866,return,1.0391,,75.78125,,,,,,FBP-YG-91.png,0.45,1.2,30,0.5,0,19,19,29,1,,,,,,,,,,,,,,,,,,,,,,,,,,,,,,,,,,,,,,,,
,,,,,V1_025,31,Male,2024-05-17_11h33.45.277,jersey_experiment_5_v1,2023.2.2,Win32,84.74576271,,,,,,,,,,,,,,,,443.8867,445.6866,445.6866,446.8868,return,0.3857,,78.25520833,,,,,,FBP-PT-18.png,0.43,1.2,9,1,0,20,20,8,1,,,,,,,,,,,,,,,,,,,,,,,,,,,,,,,,,,,,,,,,
,,,,,V1_025,31,Male,2024-05-17_11h33.45.277,jersey_experiment_5_v1,2023.2.2,Win32,84.74576271,,,,,,,,,,,,,,,,446.887,448.1807,448.1807,449.8634,return,0.8946,,26.171875,,,,,,FBP-RB-19.png,0.37,1.2,57,0.5,0,21,21,56,1,,,,,,,,,,,,,,,,,,,,,,,,,,,,,,,,,,,,,,,,
,,,,,V1_025,31,Male,2024-05-17_11h33.45.277,jersey_experiment_5_v1,2023.2.2,Win32,84.74576271,,,,,,,,,,,,,,,,449.8637,451.6631,451.6631,453.3106,return,0.6889,,61.328125,,,,,,FBP-PT-17.png,0.45,1.2,5,1,0,22,22,4,1,,,,,,,,,,,,,,,,,,,,,,,,,,,,,,,,,,,,,,,,
,,,,,V1_025,31,Male,2024-05-17_11h33.45.277,jersey_experiment_5_v1,2023.2.2,Win32,84.74576271,,,,,,,,,,,,,,,,453.3108,454.6043,454.6044,455.5576,return,0.2499,,28.90625,,,,,,FBP-RB-19.png,0.35,1.2,56,0.5,0,23,23,55,1,,,,,,,,,,,,,,,,,,,,,,,,,,,,,,,,,,,,,,,,
,,,,,V1_025,31,Male,2024-05-17_11h33.45.277,jersey_experiment_5_v1,2023.2.2,Win32,84.74576271,,,,,,,,,,,,,,,,455.5578,457.3575,457.3576,459.0518,return,0.6213,,59.50520833,,,,,,FBP-PT-19.png,0.45,1.2,15,1,0,24,24,14,1,,,,,,,,,,,,,,,,,,,,,,,,,,,,,,,,,,,,,,,,
,,,,,V1_025,31,Male,2024-05-17_11h33.45.277,jersey_experiment_5_v1,2023.2.2,Win32,84.74576271,,,,,,,,,,,,,,,,459.052,460.346,460.346,461.4518,return,0.2909,,39.84375,,,,,,FBP-YG-71.png,0.37,1.2,17,0.5,0,25,25,16,1,,,,,,,,,,,,,,,,,,,,,,,,,,,,,,,,,,,,,,,,
,,,,,V1_025,31,Male,2024-05-17_11h33.45.277,jersey_experiment_5_v1,2023.2.2,Win32,84.74576271,,,,,,,,,,,,,,,,461.452,463.252,463.252,464.4874,return,0.2688,,44.79166667,,,,,,FBP-PT-17.png,0.4,1.2,3,1,0,26,26,2,1,,,,,,,,,,,,,,,,,,,,,,,,,,,,,,,,,,,,,,,,
,,,,,V1_025,31,Male,2024-05-17_11h33.45.277,jersey_experiment_5_v1,2023.2.2,Win32,84.74576271,,,,,,,,,,,,,,,,464.4877,465.7814,465.7814,466.7582,return,0.1561,,56.11979167,,,,,,FBP-OG-81.png,0.4,1.2,38,0.5,0,27,27,37,1,,,,,,,,,,,,,,,,,,,,,,,,,,,,,,,,,,,,,,,,
,,,,,V1_025,31,Male,2024-05-17_11h33.45.277,jersey_experiment_5_v1,2023.2.2,Win32,84.74576271,,,,,,,,,,,,,,,,466.7584,468.052,468.0521,470.0052,return,0.8622,,50.13020833,,,,,,FBP-OG-81.png,0.37,1.2,37,0.5,0,28,28,36,1,,,,,,,,,,,,,,,,,,,,,,,,,,,,,,,,,,,,,,,,
,,,,,V1_025,31,Male,2024-05-17_11h33.45.277,jersey_experiment_5_v1,2023.2.2,Win32,84.74576271,,,,,,,,,,,,,,,,470.0054,471.2991,471.2991,472.7348,return,0.2771,,50.26041667,,,,,,FBP-YG-81.png,0.37,1.2,22,0.5,0,29,29,21,1,,,,,,,,,,,,,,,,,,,,,,,,,,,,,,,,,,,,,,,,
,,,,,V1_025,31,Male,2024-05-17_11h33.45.277,jersey_experiment_5_v1,2023.2.2,Win32,84.74576271,,,,,,,,,,,,,,,,472.735,474.0287,474.0287,475.6759,return,0.3359,,49.86979167,,,,,,FBP-YG-91.png,0.35,1.2,26,0.5,0,30,30,25,1,,,,,,,,,,,,,,,,,,,,,,,,,,,,,,,,,,,,,,,,
,,,,,V1_025,31,Male,2024-05-17_11h33.45.277,jersey_experiment_5_v1,2023.2.2,Win32,84.74576271,,,,,,,,,,,,,,,,475.6761,476.9701,476.9701,479.8879,return,0.7699,,89.97395833,,,,,,FBP-RB-19.png,0.45,1.2,60,0.5,0,31,31,59,1,,,,,,,,,,,,,,,,,,,,,,,,,,,,,,,,,,,,,,,,
,,,,,V1_025,31,Male,2024-05-17_11h33.45.277,jersey_experiment_5_v1,2023.2.2,Win32,84.74576271,,,,,,,,,,,,,,,,479.8882,481.182,481.1821,482.7351,return,0.6061,,76.171875,,,,,,FBP-RB-18.png,0.45,1.2,55,0.5,0,32,32,54,1,,,,,,,,,,,,,,,,,,,,,,,,,,,,,,,,,,,,,,,,
,,,,,V1_025,31,Male,2024-05-17_11h33.45.277,jersey_experiment_5_v1,2023.2.2,Win32,84.74576271,,,,,,,,,,,,,,,,482.7354,484.535,484.535,485.8058,return,0.2191,,51.43229167,,,,,,FBP-PT-19.png,0.35,1.2,11,1,0,33,33,10,1,,,,,,,,,,,,,,,,,,,,,,,,,,,,,,,,,,,,,,,,
,,,,,V1_025,31,Male,2024-05-17_11h33.45.277,jersey_experiment_5_v1,2023.2.2,Win32,84.74576271,,,,,,,,,,,,,,,,485.806,487.606,487.606,488.5115,return,0.203,,64.32291667,,,,,,FBP-PT-19.png,0.43,1.2,14,1,0,34,34,13,1,,,,,,,,,,,,,,,,,,,,,,,,,,,,,,,,,,,,,,,,
,,,,,V1_025,31,Male,2024-05-17_11h33.45.277,jersey_experiment_5_v1,2023.2.2,Win32,84.74576271,,,,,,,,,,,,,,,,488.5118,489.8058,489.8058,492.1589,return,1.498,,50.390625,,,,,,FBP-RB-18.png,0.35,1.2,51,0.5,0,35,35,50,1,,,,,,,,,,,,,,,,,,,,,,,,,,,,,,,,,,,,,,,,
,,,,,V1_025,31,Male,2024-05-17_11h33.45.277,jersey_experiment_5_v1,2023.2.2,Win32,84.74576271,,,,,,,,,,,,,,,,492.1592,493.9588,493.9589,496.3357,return,1.2028,,47.91666667,,,,,,FBP-PT-18.png,0.37,1.2,7,1,0,36,36,6,1,,,,,,,,,,,,,,,,,,,,,,,,,,,,,,,,,,,,,,,,
,,,,,V1_025,31,Male,2024-05-17_11h33.45.277,jersey_experiment_5_v1,2023.2.2,Win32,84.74576271,,,,,,,,,,,,,,,,496.3359,498.1355,498.1356,499.0417,return,0.227,,39.97395833,,,,,,FBP-PT-17.png,0.35,1.2,1,1,0,37,37,0,1,,,,,,,,,,,,,,,,,,,,,,,,,,,,,,,,,,,,,,,,
,,,,,V1_025,31,Male,2024-05-17_11h33.45.277,jersey_experiment_5_v1,2023.2.2,Win32,84.74576271,,,,,,,,,,,,,,,,499.0418,500.3356,500.3357,501.7594,return,0.2508,,69.27083333,,,,,,FBP-OG-91.png,0.45,1.2,45,0.5,0,38,38,44,1,,,,,,,,,,,,,,,,,,,,,,,,,,,,,,,,,,,,,,,,
,,,,,V1_025,31,Male,2024-05-17_11h33.45.277,jersey_experiment_5_v1,2023.2.2,Win32,84.74576271,,,,,,,,,,,,,,,,501.7595,503.0534,503.0534,505.2535,return,1.2705,,54.6875,,,,,,FBP-YG-81.png,0.4,1.2,23,0.5,0,39,39,22,1,,,,,,,,,,,,,,,,,,,,,,,,,,,,,,,,,,,,,,,,
,,,,,V1_025,31,Male,2024-05-17_11h33.45.277,jersey_experiment_5_v1,2023.2.2,Win32,84.74576271,,,,,,,,,,,,,,,,505.2537,506.5478,506.5478,508.0538,return,0.8944,,62.76041667,,,,,,FBP-RB-17.png,0.4,1.2,48,0.5,0,40,40,47,1,,,,,,,,,,,,,,,,,,,,,,,,,,,,,,,,,,,,,,,,
,,,,,V1_025,31,Male,2024-05-17_11h33.45.277,jersey_experiment_5_v1,2023.2.2,Win32,84.74576271,,,,,,,,,,,,,,,,508.0539,509.3477,509.3477,510.3361,return,0.3086,,63.54166667,,,,,,FBP-OG-71.png,0.45,1.2,35,0.5,0,41,41,34,1,,,,,,,,,,,,,,,,,,,,,,,,,,,,,,,,,,,,,,,,
,,,,,V1_025,31,Male,2024-05-17_11h33.45.277,jersey_experiment_5_v1,2023.2.2,Win32,84.74576271,,,,,,,,,,,,,,,,510.3363,511.6302,511.6302,512.8185,return,0.2233,,41.796875,,,,,,FBP-YG-71.png,0.35,1.2,16,0.5,0,42,42,15,1,,,,,,,,,,,,,,,,,,,,,,,,,,,,,,,,,,,,,,,,
,,,,,V1_025,31,Male,2024-05-17_11h33.45.277,jersey_experiment_5_v1,2023.2.2,Win32,84.74576271,,,,,,,,,,,,,,,,512.8187,514.1126,514.1126,515.7127,return,0.743,,33.33333333,,,,,,FBP-OG-71.png,0.35,1.2,31,0.5,0,43,43,30,1,,,,,,,,,,,,,,,,,,,,,,,,,,,,,,,,,,,,,,,,
,,,,,V1_025,31,Male,2024-05-17_11h33.45.277,jersey_experiment_5_v1,2023.2.2,Win32,84.74576271,,,,,,,,,,,,,,,,515.7129,517.0069,517.0069,518.9835,return,0.3394,,74.47916667,,,,,,FBP-RB-19.png,0.43,1.2,59,0.5,0,44,44,58,1,,,,,,,,,,,,,,,,,,,,,,,,,,,,,,,,,,,,,,,,
,,,,,V1_025,31,Male,2024-05-17_11h33.45.277,jersey_experiment_5_v1,2023.2.2,Win32,84.74576271,,,,,,,,,,,,,,,,518.9837,520.2775,520.2775,521.5366,return,0.2513,,74.609375,,,,,,FBP-YG-81.png,0.45,1.2,25,0.5,0,45,45,24,1,,,,,,,,,,,,,,,,,,,,,,,,,,,,,,,,,,,,,,,,
,,,,,V1_025,31,Male,2024-05-17_11h33.45.277,jersey_experiment_5_v1,2023.2.2,Win32,84.74576271,,,,,,,,,,,,,,,,521.5369,522.8305,522.8305,523.9013,return,0.2195,,74.86979167,,,,,,FBP-YG-91.png,0.43,1.2,29,0.5,0,46,46,28,1,,,,,,,,,,,,,,,,,,,,,,,,,,,,,,,,,,,,,,,,
,,,,,V1_025,31,Male,2024-05-17_11h33.45.277,jersey_experiment_5_v1,2023.2.2,Win32,84.74576271,,,,,,,,,,,,,,,,523.9015,525.1953,525.1953,526.6544,return,0.242,,47.52604167,,,,,,FBP-RB-18.png,0.37,1.2,52,0.5,0,47,47,51,1,,,,,,,,,,,,,,,,,,,,,,,,,,,,,,,,,,,,,,,,
,,,,,V1_025,31,Male,2024-05-17_11h33.45.277,jersey_experiment_5_v1,2023.2.2,Win32,84.74576271,,,,,,,,,,,,,,,,526.6545,528.4543,528.4544,530.4545,return,0.3675,,61.19791667,,,,,,FBP-PT-19.png,0.4,1.2,13,1,0,48,48,12,1,,,,,,,,,,,,,,,,,,,,,,,,,,,,,,,,,,,,,,,,
,,,,,V1_025,31,Male,2024-05-17_11h33.45.277,jersey_experiment_5_v1,2023.2.2,Win32,84.74576271,,,,,,,,,,,,,,,,530.4546,532.2543,532.2543,533.231,return,0.3563,,46.09375,,,,,,FBP-PT-19.png,0.37,1.2,12,1,0,49,49,11,1,,,,,,,,,,,,,,,,,,,,,,,,,,,,,,,,,,,,,,,,
,,,,,V1_025,31,Male,2024-05-17_11h33.45.277,jersey_experiment_5_v1,2023.2.2,Win32,84.74576271,,,,,,,,,,,,,,,,533.2313,534.5252,534.5252,536.4784,return,1.148,,40.10416667,,,,,,FBP-OG-81.png,0.35,1.2,36,0.5,0,50,50,35,1,,,,,,,,,,,,,,,,,,,,,,,,,,,,,,,,,,,,,,,,
,,,,,V1_025,31,Male,2024-05-17_11h33.45.277,jersey_experiment_5_v1,2023.2.2,Win32,84.74576271,,,,,,,,,,,,,,,,536.4786,537.7725,537.7725,539.2193,return,0.3871,,48.69791667,,,,,,FBP-OG-91.png,0.37,1.2,42,0.5,0,51,51,41,1,,,,,,,,,,,,,,,,,,,,,,,,,,,,,,,,,,,,,,,,
,,,,,V1_025,31,Male,2024-05-17_11h33.45.277,jersey_experiment_5_v1,2023.2.2,Win32,84.74576271,,,,,,,,,,,,,,,,539.2195,541.0196,541.0196,541.9959,return,0.2679,,66.27604167,,,,,,FBP-PT-17.png,0.43,1.2,4,1,0,52,52,3,1,,,,,,,,,,,,,,,,,,,,,,,,,,,,,,,,,,,,,,,,
,,,,,V1_025,31,Male,2024-05-17_11h33.45.277,jersey_experiment_5_v1,2023.2.2,Win32,84.74576271,,,,,,,,,,,,,,,,541.9962,543.2901,543.2901,544.5492,return,0.2357,,68.09895833,,,,,,FBP-RB-18.png,0.4,1.2,53,0.5,0,53,53,52,1,,,,,,,,,,,,,,,,,,,,,,,,,,,,,,,,,,,,,,,,
,,,,,V1_025,31,Male,2024-05-17_11h33.45.277,jersey_experiment_5_v1,2023.2.2,Win32,84.74576271,,,,,,,,,,,,,,,,544.5495,545.8431,545.8432,546.8197,return,0.1423,,75,,,,,,FBP-RB-17.png,0.43,1.2,49,0.5,0,54,54,48,1,,,,,,,,,,,,,,,,,,,,,,,,,,,,,,,,,,,,,,,,
,,,,,V1_025,31,Male,2024-05-17_11h33.45.277,jersey_experiment_5_v1,2023.2.2,Win32,84.74576271,,,,,,,,,,,,,,,,546.8198,548.6198,548.6198,550.0552,return,0.3535,,50.13020833,,,,,,FBP-PT-17.png,0.37,1.2,2,1,0,55,55,1,1,,,,,,,,,,,,,,,,,,,,,,,,,,,,,,,,,,,,,,,,
,,,,,V1_025,31,Male,2024-05-17_11h33.45.277,jersey_experiment_5_v1,2023.2.2,Win32,84.74576271,,,,,,,,,,,,,,,,550.0554,551.3493,551.3493,553.4198,return,0.962,,29.6875,,,,,,FBP-YG-81.png,0.35,1.2,21,0.5,0,56,56,20,1,,,,,,,,,,,,,,,,,,,,,,,,,,,,,,,,,,,,,,,,
,,,,,V1_025,31,Male,2024-05-17_11h33.45.277,jersey_experiment_5_v1,2023.2.2,Win32,84.74576271,,,,,,,,,,,,,,,,553.4201,554.7142,554.7142,556.42,return,0.1277,,55.59895833,,,,,,FBP-RB-19.png,0.4,1.2,58,0.5,0,57,57,57,1,,,,,,,,,,,,,,,,,,,,,,,,,,,,,,,,,,,,,,,,
,,,,,V1_025,31,Male,2024-05-17_11h33.45.277,jersey_experiment_5_v1,2023.2.2,Win32,84.74576271,,,,,,,,,,,,,,,,556.4202,558.2203,558.2203,559.1967,return,0.277,,80.72916667,,,,,,FBP-PT-18.png,0.45,1.2,10,1,0,58,58,9,1,,,,,,,,,,,,,,,,,,,,,,,,,,,,,,,,,,,,,,,,
,,,,,V1_025,31,Male,2024-05-17_11h33.45.277,jersey_experiment_5_v1,2023.2.2,Win32,84.74576271,,,,,,,,,,,,,,,,559.1969,560.4906,560.4907,561.7145,return,0.2,,50,,,,,,FBP-OG-71.png,0.37,1.2,32,0.5,0,59,59,31,1,,,,,,,,,,,,,,,,,,,,,,,,,,,,,,,,,,,,,,,,
,,,,,V1_025,31,Male,2024-05-17_11h33.45.277,jersey_experiment_5_v1,2023.2.2,Win32,84.74576271,,,,,,,,,,,,,,,,,,,,,,,,,,,,,,,,,,,,,,,561.7149,681.719,,,,,,,,,,,,,,,,,,,,,,,,,,,,,,,,,,,,,,
,,,,,V1_025,31,Male,2024-05-17_11h33.45.277,jersey_experiment_5_v1,2023.2.2,Win32,84.74576271,,,,,,,,,,,,,,,,,,,,,,,,,,,,,,,,,,,,,,,,,681.7192,684.9425,return,3.2159,,,,,,,,,,,,,,,,,,,,,,,,,,,,,,,,,,
,,,,,V1_025,31,Male,2024-05-17_11h33.45.277,jersey_experiment_5_v1,2023.2.2,Win32,84.74576271,,,,,,,,,,,,,,,,684.9486,686.7424,686.7425,690.9309,return,2.0622,,34.375,,,,,,FBP-RB-81.png,0.37,1.2,52,1,,,,,,,,,,,,,0,0,0,51,1,,,,,,,,,,,,,,,,,,,,,,,,,,,,
,,,,,V1_025,31,Male,2024-05-17_11h33.45.277,jersey_experiment_5_v1,2023.2.2,Win32,84.74576271,,,,,,,,,,,,,,,,690.9312,692.7308,692.7308,695.0721,return,0.9813,,61.45833333,,,,,,FBP-OG-17.png,0.45,1.2,35,1,,,,,,,,,,,,,0,1,1,34,1,,,,,,,,,,,,,,,,,,,,,,,,,,,,
,,,,,V1_025,31,Male,2024-05-17_11h33.45.277,jersey_experiment_5_v1,2023.2.2,Win32,84.74576271,,,,,,,,,,,,,,,,695.0724,696.8726,696.8726,698.0606,return,0.6886,,50.26041667,,,,,,FBP-YG-17.png,0.4,1.2,18,1,,,,,,,,,,,,,0,2,2,17,1,,,,,,,,,,,,,,,,,,,,,,,,,,,,
,,,,,V1_025,31,Male,2024-05-17_11h33.45.277,jersey_experiment_5_v1,2023.2.2,Win32,84.74576271,,,,,,,,,,,,,,,,698.0607,699.8606,699.8606,701.0371,return,0.723,,50,,,,,,FBP-RB-91.png,0.4,1.2,58,1,,,,,,,,,,,,,0,3,3,57,1,,,,,,,,,,,,,,,,,,,,,,,,,,,,
,,,,,V1_025,31,Male,2024-05-17_11h33.45.277,jersey_experiment_5_v1,2023.2.2,Win32,84.74576271,,,,,,,,,,,,,,,,701.0373,702.8374,702.8375,704.4842,return,1.0358,,69.921875,,,,,,FBP-YG-19.png,0.43,1.2,29,1,,,,,,,,,,,,,0,4,4,28,1,,,,,,,,,,,,,,,,,,,,,,,,,,,,
,,,,,V1_025,31,Male,2024-05-17_11h33.45.277,jersey_experiment_5_v1,2023.2.2,Win32,84.74576271,,,,,,,,,,,,,,,,704.4845,706.2844,706.2844,708.1078,return,0.7595,,49.34895833,,,,,,FBP-YG-19.png,0.37,1.2,27,1,,,,,,,,,,,,,0,5,5,26,1,,,,,,,,,,,,,,,,,,,,,,,,,,,,
,,,,,V1_025,31,Male,2024-05-17_11h33.45.277,jersey_experiment_5_v1,2023.2.2,Win32,84.74576271,,,,,,,,,,,,,,,,708.108,709.402,709.4021,711.567,return,1.627,,48.69791667,,,,,,FBP-PT-71.png,0.4,1.2,3,0.5,,,,,,,,,,,,,0,6,6,2,1,,,,,,,,,,,,,,,,,,,,,,,,,,,,
,,,,,V1_025,31,Male,2024-05-17_11h33.45.277,jersey_experiment_5_v1,2023.2.2,Win32,84.74576271,,,,,,,,,,,,,,,,711.5672,713.3671,713.3671,717.1672,return,0.8883,,25,,,,,,FBP-YG-18.png,0.37,1.2,22,1,,,,,,,,,,,,,0,7,7,21,1,,,,,,,,,,,,,,,,,,,,,,,,,,,,
,,,,,V1_025,31,Male,2024-05-17_11h33.45.277,jersey_experiment_5_v1,2023.2.2,Win32,84.74576271,,,,,,,,,,,,,,,,717.1674,718.9675,718.9675,720.5553,return,0.7502,,62.23958333,,,,,,FBP-OG-18.png,0.4,1.2,38,1,,,,,,,,,,,,,0,8,8,37,1,,,,,,,,,,,,,,,,,,,,,,,,,,,,
,,,,,V1_025,31,Male,2024-05-17_11h33.45.277,jersey_experiment_5_v1,2023.2.2,Win32,84.74576271,,,,,,,,,,,,,,,,720.5556,722.3556,722.3556,723.7907,return,0.7446,,73.828125,,,,,,FBP-OG-19.png,0.43,1.2,44,1,,,,,,,,,,,,,0,9,9,43,1,,,,,,,,,,,,,,,,,,,,,,,,,,,,
,,,,,V1_025,31,Male,2024-05-17_11h33.45.277,jersey_experiment_5_v1,2023.2.2,Win32,84.74576271,,,,,,,,,,,,,,,,723.791,725.5912,725.5912,727.2851,return,0.6592,,19.66145833,,,,,,FBP-YG-17.png,0.37,1.2,17,1,,,,,,,,,,,,,0,10,10,16,1,,,,,,,,,,,,,,,,,,,,,,,,,,,,
,,,,,V1_025,31,Male,2024-05-17_11h33.45.277,jersey_experiment_5_v1,2023.2.2,Win32,84.74576271,,,,,,,,,,,,,,,,727.2852,729.0853,729.0853,730.862,return,0.7952,,74.34895833,,,,,,FBP-RB-91.png,0.43,1.2,59,1,,,,,,,,,,,,,0,11,11,58,1,,,,,,,,,,,,,,,,,,,,,,,,,,,,
,,,,,V1_025,31,Male,2024-05-17_11h33.45.277,jersey_experiment_5_v1,2023.2.2,Win32,84.74576271,,,,,,,,,,,,,,,,730.8622,732.1559,732.1559,734.4971,return,1.1333,,35.9375,,,,,,FBP-PT-91.png,0.37,1.2,12,0.5,,,,,,,,,,,,,0,12,12,11,1,,,,,,,,,,,,,,,,,,,,,,,,,,,,
,,,,,V1_025,31,Male,2024-05-17_11h33.45.277,jersey_experiment_5_v1,2023.2.2,Win32,84.74576271,,,,,,,,,,,,,,,,734.4973,735.7912,735.7912,737.6149,return,0.6297,,54.16666667,,,,,,FBP-PT-91.png,0.43,1.2,14,0.5,,,,,,,,,,,,,0,13,13,13,1,,,,,,,,,,,,,,,,,,,,,,,,,,,,
,,,,,V1_025,31,Male,2024-05-17_11h33.45.277,jersey_experiment_5_v1,2023.2.2,Win32,84.74576271,,,,,,,,,,,,,,,,737.6151,739.4149,739.4149,740.6386,return,0.7686,,54.42708333,,,,,,FBP-OG-18.png,0.43,1.2,39,1,,,,,,,,,,,,,0,14,14,38,1,,,,,,,,,,,,,,,,,,,,,,,,,,,,
,,,,,V1_025,31,Male,2024-05-17_11h33.45.277,jersey_experiment_5_v1,2023.2.2,Win32,84.74576271,,,,,,,,,,,,,,,,740.6389,742.4389,742.4389,743.8857,return,0.7364,,26.171875,,,,,,FBP-YG-18.png,0.35,1.2,21,1,,,,,,,,,,,,,0,15,15,20,1,,,,,,,,,,,,,,,,,,,,,,,,,,,,
,,,,,V1_025,31,Male,2024-05-17_11h33.45.277,jersey_experiment_5_v1,2023.2.2,Win32,84.74576271,,,,,,,,,,,,,,,,743.8859,745.6858,745.6859,749.0388,return,1.8737,,50.65104167,,,,,,FBP-YG-18.png,0.43,1.2,24,1,,,,,,,,,,,,,0,16,16,23,1,,,,,,,,,,,,,,,,,,,,,,,,,,,,
,,,,,V1_025,31,Male,2024-05-17_11h33.45.277,jersey_experiment_5_v1,2023.2.2,Win32,84.74576271,,,,,,,,,,,,,,,,749.039,750.8391,750.8392,753.8273,return,2.4145,,87.5,,,,,,FBP-RB-71.png,0.45,1.2,50,1,,,,,,,,,,,,,0,17,17,49,1,,,,,,,,,,,,,,,,,,,,,,,,,,,,
,,,,,V1_025,31,Male,2024-05-17_11h33.45.277,jersey_experiment_5_v1,2023.2.2,Win32,84.74576271,,,,,,,,,,,,,,,,753.8274,755.6274,755.6274,757.2157,return,1.0289,,49.73958333,,,,,,FBP-YG-18.png,0.4,1.2,23,1,,,,,,,,,,,,,0,18,18,22,1,,,,,,,,,,,,,,,,,,,,,,,,,,,,
,,,,,V1_025,31,Male,2024-05-17_11h33.45.277,jersey_experiment_5_v1,2023.2.2,Win32,84.74576271,,,,,,,,,,,,,,,,757.2159,759.0159,759.0159,760.4158,return,0.7793,,31.51041667,,,,,,FBP-YG-17.png,0.35,1.2,16,1,,,,,,,,,,,,,0,19,19,15,1,,,,,,,,,,,,,,,,,,,,,,,,,,,,
,,,,,V1_025,31,Male,2024-05-17_11h33.45.277,jersey_experiment_5_v1,2023.2.2,Win32,84.74576271,,,,,,,,,,,,,,,,760.4161,762.2158,762.2158,763.2275,return,0.6539,,31.51041667,,,,,,FBP-RB-91.png,0.35,1.2,56,1,,,,,,,,,,,,,0,20,20,55,1,,,,,,,,,,,,,,,,,,,,,,,,,,,,
,,,,,V1_025,31,Male,2024-05-17_11h33.45.277,jersey_experiment_5_v1,2023.2.2,Win32,84.74576271,,,,,,,,,,,,,,,,763.2278,765.0277,765.0277,766.0866,return,0.6826,,31.51041667,,,,,,FBP-OG-19.png,0.35,1.2,41,1,,,,,,,,,,,,,0,21,21,40,1,,,,,,,,,,,,,,,,,,,,,,,,,,,,
,,,,,V1_025,31,Male,2024-05-17_11h33.45.277,jersey_experiment_5_v1,2023.2.2,Win32,84.74576271,,,,,,,,,,,,,,,,766.0868,767.3807,767.3807,770.6043,return,0.538,,74.86979167,,,,,,FBP-PT-81.png,0.45,1.2,10,0.5,,,,,,,,,,,,,0,22,22,9,1,,,,,,,,,,,,,,,,,,,,,,,,,,,,
,,,,,V1_025,31,Male,2024-05-17_11h33.45.277,jersey_experiment_5_v1,2023.2.2,Win32,84.74576271,,,,,,,,,,,,,,,,770.6045,771.8985,771.8985,773.5339,return,0.6752,,40.49479167,,,,,,FBP-PT-91.png,0.35,1.2,11,0.5,,,,,,,,,,,,,0,23,23,10,1,,,,,,,,,,,,,,,,,,,,,,,,,,,,
,,,,,V1_025,31,Male,2024-05-17_11h33.45.277,jersey_experiment_5_v1,2023.2.2,Win32,84.74576271,,,,,,,,,,,,,,,,773.5342,775.3342,775.3342,776.9339,return,0.7672,,81.11979167,,,,,,FBP-OG-18.png,0.45,1.2,40,1,,,,,,,,,,,,,0,24,24,39,1,,,,,,,,,,,,,,,,,,,,,,,,,,,,
,,,,,V1_025,31,Male,2024-05-17_11h33.45.277,jersey_experiment_5_v1,2023.2.2,Win32,84.74576271,,,,,,,,,,,,,,,,776.9341,778.734,778.734,781.0284,return,1.3649,,62.109375,,,,,,FBP-OG-17.png,0.4,1.2,33,1,,,,,,,,,,,,,0,25,25,32,1,,,,,,,,,,,,,,,,,,,,,,,,,,,,
,,,,,V1_025,31,Male,2024-05-17_11h33.45.277,jersey_experiment_5_v1,2023.2.2,Win32,84.74576271,,,,,,,,,,,,,,,,781.0285,782.8283,782.8284,783.8284,return,0.5792,,61.45833333,,,,,,FBP-YG-17.png,0.43,1.2,19,1,,,,,,,,,,,,,0,26,26,18,1,,,,,,,,,,,,,,,,,,,,,,,,,,,,
,,,,,V1_025,31,Male,2024-05-17_11h33.45.277,jersey_experiment_5_v1,2023.2.2,Win32,84.74576271,,,,,,,,,,,,,,,,783.8285,785.1226,785.1227,786.9579,return,1.4163,,75,,,,,,FBP-PT-91.png,0.45,1.2,15,0.5,,,,,,,,,,,,,0,27,27,14,1,,,,,,,,,,,,,,,,,,,,,,,,,,,,
,,,,,V1_025,31,Male,2024-05-17_11h33.45.277,jersey_experiment_5_v1,2023.2.2,Win32,84.74576271,,,,,,,,,,,,,,,,786.9581,788.2521,788.2521,789.6755,return,0.6068,,61.58854167,,,,,,FBP-PT-81.png,0.4,1.2,8,0.5,,,,,,,,,,,,,0,28,28,7,1,,,,,,,,,,,,,,,,,,,,,,,,,,,,
,,,,,V1_025,31,Male,2024-05-17_11h33.45.277,jersey_experiment_5_v1,2023.2.2,Win32,84.74576271,,,,,,,,,,,,,,,,789.6757,791.4757,791.4758,792.864,return,0.5908,,67.70833333,,,,,,FBP-YG-17.png,0.45,1.2,20,1,,,,,,,,,,,,,0,29,29,19,1,,,,,,,,,,,,,,,,,,,,,,,,,,,,
,,,,,V1_025,31,Male,2024-05-17_11h33.45.277,jersey_experiment_5_v1,2023.2.2,Win32,84.74576271,,,,,,,,,,,,,,,,792.8642,794.6642,794.6642,796.0052,return,0.5413,,42.83854167,,,,,,FBP-YG-19.png,0.35,1.2,26,1,,,,,,,,,,,,,0,30,30,25,1,,,,,,,,,,,,,,,,,,,,,,,,,,,,
,,,,,V1_025,31,Male,2024-05-17_11h33.45.277,jersey_experiment_5_v1,2023.2.2,Win32,84.74576271,,,,,,,,,,,,,,,,796.0054,797.8056,797.8056,800.0525,return,1.4357,,49.609375,,,,,,FBP-RB-71.png,0.4,1.2,48,1,,,,,,,,,,,,,0,31,31,47,1,,,,,,,,,,,,,,,,,,,,,,,,,,,,
,,,,,V1_025,31,Male,2024-05-17_11h33.45.277,jersey_experiment_5_v1,2023.2.2,Win32,84.74576271,,,,,,,,,,,,,,,,800.0527,801.3466,801.3466,803.1234,return,0.5885,,33.59375,,,,,,FBP-PT-71.png,0.35,1.2,1,0.5,,,,,,,,,,,,,0,32,32,0,1,,,,,,,,,,,,,,,,,,,,,,,,,,,,
,,,,,V1_025,31,Male,2024-05-17_11h33.45.277,jersey_experiment_5_v1,2023.2.2,Win32,84.74576271,,,,,,,,,,,,,,,,803.1235,804.4174,804.4174,807.0292,return,0.8476,,48.30729167,,,,,,FBP-PT-71.png,0.37,1.2,2,0.5,,,,,,,,,,,,,0,33,33,1,1,,,,,,,,,,,,,,,,,,,,,,,,,,,,
,,,,,V1_025,31,Male,2024-05-17_11h33.45.277,jersey_experiment_5_v1,2023.2.2,Win32,84.74576271,,,,,,,,,,,,,,,,807.0294,808.8292,808.8292,812.7823,return,1.7948,,73.4375,,,,,,FBP-YG-19.png,0.4,1.2,28,1,,,,,,,,,,,,,0,34,34,27,1,,,,,,,,,,,,,,,,,,,,,,,,,,,,
,,,,,V1_025,31,Male,2024-05-17_11h33.45.277,jersey_experiment_5_v1,2023.2.2,Win32,84.74576271,,,,,,,,,,,,,,,,812.7825,814.5826,814.5826,816.3353,return,0.8144,,92.31770833,,,,,,FBP-OG-19.png,0.45,1.2,45,1,,,,,,,,,,,,,0,35,35,44,1,,,,,,,,,,,,,,,,,,,,,,,,,,,,
,,,,,V1_025,31,Male,2024-05-17_11h33.45.277,jersey_experiment_5_v1,2023.2.2,Win32,84.74576271,,,,,,,,,,,,,,,,816.3355,817.6296,817.6296,819.3591,return,0.6384,,61.84895833,,,,,,FBP-PT-91.png,0.4,1.2,13,0.5,,,,,,,,,,,,,0,36,36,12,1,,,,,,,,,,,,,,,,,,,,,,,,,,,,
,,,,,V1_025,31,Male,2024-05-17_11h33.45.277,jersey_experiment_5_v1,2023.2.2,Win32,84.74576271,,,,,,,,,,,,,,,,819.3594,821.1593,821.1593,822.4533,return,0.6355,,42.578125,,,,,,FBP-RB-71.png,0.37,1.2,47,1,,,,,,,,,,,,,0,37,37,46,1,,,,,,,,,,,,,,,,,,,,,,,,,,,,
,,,,,V1_025,31,Male,2024-05-17_11h33.45.277,jersey_experiment_5_v1,2023.2.2,Win32,84.74576271,,,,,,,,,,,,,,,,822.4535,823.7475,823.7475,824.8533,return,0.5646,,42.578125,,,,,,FBP-PT-81.png,0.35,1.2,6,0.5,,,,,,,,,,,,,0,38,38,5,1,,,,,,,,,,,,,,,,,,,,,,,,,,,,
,,,,,V1_025,31,Male,2024-05-17_11h33.45.277,jersey_experiment_5_v1,2023.2.2,Win32,84.74576271,,,,,,,,,,,,,,,,824.8536,826.6537,826.6537,828.5947,return,0.6936,,75,,,,,,FBP-YG-19.png,0.45,1.2,30,1,,,,,,,,,,,,,0,39,39,29,1,,,,,,,,,,,,,,,,,,,,,,,,,,,,
,,,,,V1_025,31,Male,2024-05-17_11h33.45.277,jersey_experiment_5_v1,2023.2.2,Win32,84.74576271,,,,,,,,,,,,,,,,828.5949,830.395,830.395,832.5124,return,0.6135,,25,,,,,,FBP-OG-17.png,0.35,1.2,31,1,,,,,,,,,,,,,0,40,40,30,1,,,,,,,,,,,,,,,,,,,,,,,,,,,,
,,,,,V1_025,31,Male,2024-05-17_11h33.45.277,jersey_experiment_5_v1,2023.2.2,Win32,84.74576271,,,,,,,,,,,,,,,,832.5127,834.3127,834.3128,836.2538,return,1.0541,,44.140625,,,,,,FBP-OG-17.png,0.37,1.2,32,1,,,,,,,,,,,,,0,41,41,31,1,,,,,,,,,,,,,,,,,,,,,,,,,,,,
,,,,,V1_025,31,Male,2024-05-17_11h33.45.277,jersey_experiment_5_v1,2023.2.2,Win32,84.74576271,,,,,,,,,,,,,,,,836.2541,838.0538,838.0538,839.3952,return,0.6227,,48.17708333,,,,,,FBP-RB-71.png,0.35,1.2,46,1,,,,,,,,,,,,,0,42,42,45,1,,,,,,,,,,,,,,,,,,,,,,,,,,,,
,,,,,V1_025,31,Male,2024-05-17_11h33.45.277,jersey_experiment_5_v1,2023.2.2,Win32,84.74576271,,,,,,,,,,,,,,,,839.3953,841.1952,841.1952,843.4071,return,1.0529,,74.73958333,,,,,,FBP-RB-81.png,0.43,1.2,54,1,,,,,,,,,,,,,0,43,43,53,1,,,,,,,,,,,,,,,,,,,,,,,,,,,,
,,,,,V1_025,31,Male,2024-05-17_11h33.45.277,jersey_experiment_5_v1,2023.2.2,Win32,84.74576271,,,,,,,,,,,,,,,,843.4073,845.207,845.207,847.1484,return,0.7966,,50,,,,,,FBP-RB-81.png,0.35,1.2,51,1,,,,,,,,,,,,,0,44,44,50,1,,,,,,,,,,,,,,,,,,,,,,,,,,,,
,,,,,V1_025,31,Male,2024-05-17_11h33.45.277,jersey_experiment_5_v1,2023.2.2,Win32,84.74576271,,,,,,,,,,,,,,,,847.1487,848.9485,848.9485,850.772,return,0.6591,,91.14583333,,,,,,FBP-RB-91.png,0.45,1.2,60,1,,,,,,,,,,,,,0,45,45,59,1,,,,,,,,,,,,,,,,,,,,,,,,,,,,
,,,,,V1_025,31,Male,2024-05-17_11h33.45.277,jersey_experiment_5_v1,2023.2.2,Win32,84.74576271,,,,,,,,,,,,,,,,850.7722,852.572,852.572,853.7604,return,0.6985,,93.359375,,,,,,FBP-RB-81.png,0.45,1.2,55,1,,,,,,,,,,,,,0,46,46,54,1,,,,,,,,,,,,,,,,,,,,,,,,,,,,
,,,,,V1_025,31,Male,2024-05-17_11h33.45.277,jersey_experiment_5_v1,2023.2.2,Win32,84.74576271,,,,,,,,,,,,,,,,853.7606,855.5604,855.5604,857.3958,return,0.6688,,74.73958333,,,,,,FBP-OG-17.png,0.43,1.2,34,1,,,,,,,,,,,,,0,47,47,33,1,,,,,,,,,,,,,,,,,,,,,,,,,,,,
,,,,,V1_025,31,Male,2024-05-17_11h33.45.277,jersey_experiment_5_v1,2023.2.2,Win32,84.74576271,,,,,,,,,,,,,,,,857.396,859.1961,859.1961,860.6194,return,0.6535,,48.4375,,,,,,FBP-OG-18.png,0.37,1.2,37,1,,,,,,,,,,,,,0,48,48,36,1,,,,,,,,,,,,,,,,,,,,,,,,,,,,
,,,,,V1_025,31,Male,2024-05-17_11h33.45.277,jersey_experiment_5_v1,2023.2.2,Win32,84.74576271,,,,,,,,,,,,,,,,860.6196,862.4196,862.4196,863.9725,return,0.6119,,49.73958333,,,,,,FBP-OG-19.png,0.37,1.2,42,1,,,,,,,,,,,,,0,49,49,41,1,,,,,,,,,,,,,,,,,,,,,,,,,,,,
,,,,,V1_025,31,Male,2024-05-17_11h33.45.277,jersey_experiment_5_v1,2023.2.2,Win32,84.74576271,,,,,,,,,,,,,,,,863.9727,865.2667,865.2667,866.6784,return,0.6498,,54.16666667,,,,,,FBP-PT-81.png,0.37,1.2,7,0.5,,,,,,,,,,,,,0,50,50,6,1,,,,,,,,,,,,,,,,,,,,,,,,,,,,
,,,,,V1_025,31,Male,2024-05-17_11h33.45.277,jersey_experiment_5_v1,2023.2.2,Win32,84.74576271,,,,,,,,,,,,,,,,866.6787,867.9728,867.9728,869.5258,return,0.6356,,75.65104167,,,,,,FBP-PT-71.png,0.45,1.2,5,0.5,,,,,,,,,,,,,0,51,51,4,1,,,,,,,,,,,,,,,,,,,,,,,,,,,,
,,,,,V1_025,31,Male,2024-05-17_11h33.45.277,jersey_experiment_5_v1,2023.2.2,Win32,84.74576271,,,,,,,,,,,,,,,,869.526,871.3257,871.3258,872.6082,return,0.6375,,80.859375,,,,,,FBP-YG-18.png,0.45,1.2,25,1,,,,,,,,,,,,,0,52,52,24,1,,,,,,,,,,,,,,,,,,,,,,,,,,,,
,,,,,V1_025,31,Male,2024-05-17_11h33.45.277,jersey_experiment_5_v1,2023.2.2,Win32,84.74576271,,,,,,,,,,,,,,,,872.6084,874.4083,874.4083,875.7729,return,0.6666,,49.609375,,,,,,FBP-OG-19.png,0.4,1.2,43,1,,,,,,,,,,,,,0,53,53,42,1,,,,,,,,,,,,,,,,,,,,,,,,,,,,
,,,,,V1_025,31,Male,2024-05-17_11h33.45.277,jersey_experiment_5_v1,2023.2.2,Win32,84.74576271,,,,,,,,,,,,,,,,875.7732,877.0671,877.0671,879.02,return,0.6674,,69.921875,,,,,,FBP-PT-71.png,0.43,1.2,4,0.5,,,,,,,,,,,,,0,54,54,3,1,,,,,,,,,,,,,,,,,,,,,,,,,,,,
,,,,,V1_025,31,Male,2024-05-17_11h33.45.277,jersey_experiment_5_v1,2023.2.2,Win32,84.74576271,,,,,,,,,,,,,,,,879.0202,880.8202,880.8202,882.6791,return,1.294,,76.5625,,,,,,FBP-RB-71.png,0.43,1.2,49,1,,,,,,,,,,,,,0,55,55,48,1,,,,,,,,,,,,,,,,,,,,,,,,,,,,
,,,,,V1_025,31,Male,2024-05-17_11h33.45.277,jersey_experiment_5_v1,2023.2.2,Win32,84.74576271,,,,,,,,,,,,,,,,882.6794,884.4793,884.4793,885.4908,return,0.5761,,74.86979167,,,,,,FBP-RB-81.png,0.4,1.2,53,1,,,,,,,,,,,,,0,56,56,52,1,,,,,,,,,,,,,,,,,,,,,,,,,,,,
,,,,,V1_025,31,Male,2024-05-17_11h33.45.277,jersey_experiment_5_v1,2023.2.2,Win32,84.74576271,,,,,,,,,,,,,,,,885.491,887.2912,887.2912,888.8676,return,0.6126,,50.65104167,,,,,,FBP-RB-91.png,0.37,1.2,57,1,,,,,,,,,,,,,0,57,57,56,1,,,,,,,,,,,,,,,,,,,,,,,,,,,,
,,,,,V1_025,31,Male,2024-05-17_11h33.45.277,jersey_experiment_5_v1,2023.2.2,Win32,84.74576271,,,,,,,,,,,,,,,,888.8677,890.6676,890.6677,891.8559,return,0.5817,,26.82291667,,,,,,FBP-OG-18.png,0.35,1.2,36,1,,,,,,,,,,,,,0,58,58,35,1,,,,,,,,,,,,,,,,,,,,,,,,,,,,
,,,,,V1_025,31,Male,2024-05-17_11h33.45.277,jersey_experiment_5_v1,2023.2.2,Win32,84.74576271,,,,,,,,,,,,,,,,891.8563,893.1499,893.15,896.4209,return,2.3054,,83.59375,,,,,,FBP-PT-81.png,0.43,1.2,9,0.5,,,,,,,,,,,,,0,59,59,8,1,,,,,,,,,,,,,,,,,,,,,,,,,,,,
,,,,,V1_025,31,Male,2024-05-17_11h33.45.277,jersey_experiment_5_v1,2023.2.2,Win32,84.74576271,,,,,,,,,,,,,,,,896.4229,898.2207,898.2207,899.2325,return,0.6958,,83.59375,,,,,,FBP-RB-18.png,0.45,1.2,55,1,,,,,,,,,,,,,,,,,,0,0,0,54,1,,,,,,,,,,,,,,,,,,,,,,,
,,,,,V1_025,31,Male,2024-05-17_11h33.45.277,jersey_experiment_5_v1,2023.2.2,Win32,84.74576271,,,,,,,,,,,,,,,,899.2328,901.0327,901.0327,902.6918,return,1.1071,,49.86979167,,,,,,FBP-YG-91.png,0.37,1.2,27,1,,,,,,,,,,,,,,,,,,0,1,1,26,1,,,,,,,,,,,,,,,,,,,,,,,
,,,,,V1_025,31,Male,2024-05-17_11h33.45.277,jersey_experiment_5_v1,2023.2.2,Win32,84.74576271,,,,,,,,,,,,,,,,902.6919,903.9857,903.9857,905.5269,return,0.5886,,74.73958333,,,,,,FBP-PT-18.png,0.43,1.2,9,0.5,,,,,,,,,,,,,,,,,,0,2,2,8,1,,,,,,,,,,,,,,,,,,,,,,,
,,,,,V1_025,31,Male,2024-05-17_11h33.45.277,jersey_experiment_5_v1,2023.2.2,Win32,84.74576271,,,,,,,,,,,,,,,,905.5271,906.8212,906.8212,909.1742,return,0.5556,,50.390625,,,,,,FBP-PT-19.png,0.37,1.2,12,0.5,,,,,,,,,,,,,,,,,,0,3,3,11,1,,,,,,,,,,,,,,,,,,,,,,,
,,,,,V1_025,31,Male,2024-05-17_11h33.45.277,jersey_experiment_5_v1,2023.2.2,Win32,84.74576271,,,,,,,,,,,,,,,,909.1744,910.9741,910.9741,912.0215,return,0.6972,,50.390625,,,,,,FBP-RB-17.png,0.4,1.2,48,1,,,,,,,,,,,,,,,,,,0,4,4,47,1,,,,,,,,,,,,,,,,,,,,,,,
,,,,,V1_025,31,Male,2024-05-17_11h33.45.277,jersey_experiment_5_v1,2023.2.2,Win32,84.74576271,,,,,,,,,,,,,,,,912.0216,913.8214,913.8214,915.3627,return,0.8003,,74.47916667,,,,,,FBP-YG-71.png,0.45,1.2,20,1,,,,,,,,,,,,,,,,,,0,5,5,19,1,,,,,,,,,,,,,,,,,,,,,,,
,,,,,V1_025,31,Male,2024-05-17_11h33.45.277,jersey_experiment_5_v1,2023.2.2,Win32,84.74576271,,,,,,,,,,,,,,,,915.3629,917.1627,917.1627,919.6334,return,0.954,,79.81770833,,,,,,FBP-OG-81.png,0.45,1.2,40,1,,,,,,,,,,,,,,,,,,0,6,6,39,1,,,,,,,,,,,,,,,,,,,,,,,
,,,,,V1_025,31,Male,2024-05-17_11h33.45.277,jersey_experiment_5_v1,2023.2.2,Win32,84.74576271,,,,,,,,,,,,,,,,919.6336,920.9274,920.9274,923.8453,return,1.1764,,50.390625,,,,,,FBP-PT-19.png,0.35,1.2,11,0.5,,,,,,,,,,,,,,,,,,0,7,7,10,1,,,,,,,,,,,,,,,,,,,,,,,
,,,,,V1_025,31,Male,2024-05-17_11h33.45.277,jersey_experiment_5_v1,2023.2.2,Win32,84.74576271,,,,,,,,,,,,,,,,923.8455,925.6455,925.6455,927.2689,return,0.6123,,26.171875,,,,,,FBP-RB-19.png,0.37,1.2,57,1,,,,,,,,,,,,,,,,,,0,8,8,56,1,,,,,,,,,,,,,,,,,,,,,,,
,,,,,V1_025,31,Male,2024-05-17_11h33.45.277,jersey_experiment_5_v1,2023.2.2,Win32,84.74576271,,,,,,,,,,,,,,,,927.2692,928.5631,928.5631,930.7163,return,0.8413,,79.94791667,,,,,,FBP-PT-17.png,0.45,1.2,5,0.5,,,,,,,,,,,,,,,,,,0,9,9,4,1,,,,,,,,,,,,,,,,,,,,,,,
,,,,,V1_025,31,Male,2024-05-17_11h33.45.277,jersey_experiment_5_v1,2023.2.2,Win32,84.74576271,,,,,,,,,,,,,,,,930.7165,932.5163,932.5163,940.1165,return,0.9178,,50.390625,,,,,,FBP-RB-17.png,0.43,1.2,49,1,,,,,,,,,,,,,,,,,,0,10,10,48,1,,,,,,,,,,,,,,,,,,,,,,,
,,,,,V1_025,31,Male,2024-05-17_11h33.45.277,jersey_experiment_5_v1,2023.2.2,Win32,84.74576271,,,,,,,,,,,,,,,,940.1168,941.9164,941.9165,943.2341,return,0.6847,,39.19270833,,,,,,FBP-OG-81.png,0.4,1.2,38,1,,,,,,,,,,,,,,,,,,0,11,11,37,1,,,,,,,,,,,,,,,,,,,,,,,
,,,,,V1_025,31,Male,2024-05-17_11h33.45.277,jersey_experiment_5_v1,2023.2.2,Win32,84.74576271,,,,,,,,,,,,,,,,943.2344,945.0345,945.0345,946.4343,return,0.7319,,47.91666667,,,,,,FBP-OG-91.png,0.37,1.2,42,1,,,,,,,,,,,,,,,,,,0,12,12,41,1,,,,,,,,,,,,,,,,,,,,,,,
,,,,,V1_025,31,Male,2024-05-17_11h33.45.277,jersey_experiment_5_v1,2023.2.2,Win32,84.74576271,,,,,,,,,,,,,,,,946.4345,948.2346,948.2346,950.0462,return,0.7334,,73.17708333,,,,,,FBP-OG-91.png,0.43,1.2,44,1,,,,,,,,,,,,,,,,,,0,13,13,43,1,,,,,,,,,,,,,,,,,,,,,,,
,,,,,V1_025,31,Male,2024-05-17_11h33.45.277,jersey_experiment_5_v1,2023.2.2,Win32,84.74576271,,,,,,,,,,,,,,,,950.0465,951.3406,951.3406,953.1993,return,0.8268,,41.27604167,,,,,,FBP-PT-18.png,0.35,1.2,6,0.5,,,,,,,,,,,,,,,,,,0,14,14,5,1,,,,,,,,,,,,,,,,,,,,,,,
,,,,,V1_025,31,Male,2024-05-17_11h33.45.277,jersey_experiment_5_v1,2023.2.2,Win32,84.74576271,,,,,,,,,,,,,,,,953.1995,954.9993,954.9993,956.3406,return,0.9032,,39.58333333,,,,,,FBP-OG-81.png,0.37,1.2,37,1,,,,,,,,,,,,,,,,,,0,15,15,36,1,,,,,,,,,,,,,,,,,,,,,,,
,,,,,V1_025,31,Male,2024-05-17_11h33.45.277,jersey_experiment_5_v1,2023.2.2,Win32,84.74576271,,,,,,,,,,,,,,,,956.3407,958.1407,958.1408,960.6465,return,0.7418,,50.26041667,,,,,,FBP-YG-81.png,0.37,1.2,22,1,,,,,,,,,,,,,,,,,,0,16,16,21,1,,,,,,,,,,,,,,,,,,,,,,,
,,,,,V1_025,31,Male,2024-05-17_11h33.45.277,jersey_experiment_5_v1,2023.2.2,Win32,84.74576271,,,,,,,,,,,,,,,,960.6467,962.4469,962.4469,963.6703,return,0.7062,,50.26041667,,,,,,FBP-RB-18.png,0.37,1.2,52,1,,,,,,,,,,,,,,,,,,0,17,17,51,1,,,,,,,,,,,,,,,,,,,,,,,
,,,,,V1_025,31,Male,2024-05-17_11h33.45.277,jersey_experiment_5_v1,2023.2.2,Win32,84.74576271,,,,,,,,,,,,,,,,963.6706,965.4704,965.4704,966.7881,return,0.6358,,33.33333333,,,,,,FBP-YG-71.png,0.35,1.2,16,1,,,,,,,,,,,,,,,,,,0,18,18,15,1,,,,,,,,,,,,,,,,,,,,,,,
,,,,,V1_025,31,Male,2024-05-17_11h33.45.277,jersey_experiment_5_v1,2023.2.2,Win32,84.74576271,,,,,,,,,,,,,,,,966.7882,968.5881,968.5881,971.9411,return,2.5272,,75.52083333,,,,,,FBP-OG-91.png,0.45,1.2,45,1,,,,,,,,,,,,,,,,,,0,19,19,44,1,,,,,,,,,,,,,,,,,,,,,,,
,,,,,V1_025,31,Male,2024-05-17_11h33.45.277,jersey_experiment_5_v1,2023.2.2,Win32,84.74576271,,,,,,,,,,,,,,,,971.9413,973.7415,973.7416,974.9179,return,0.6594,,35.15625,,,,,,FBP-OG-91.png,0.35,1.2,41,1,,,,,,,,,,,,,,,,,,0,20,20,40,1,,,,,,,,,,,,,,,,,,,,,,,
,,,,,V1_025,31,Male,2024-05-17_11h33.45.277,jersey_experiment_5_v1,2023.2.2,Win32,84.74576271,,,,,,,,,,,,,,,,974.9181,976.7178,976.7178,977.6945,return,0.5924,,35.15625,,,,,,FBP-OG-71.png,0.37,1.2,32,1,,,,,,,,,,,,,,,,,,0,21,21,31,1,,,,,,,,,,,,,,,,,,,,,,,
,,,,,V1_025,31,Male,2024-05-17_11h33.45.277,jersey_experiment_5_v1,2023.2.2,Win32,84.74576271,,,,,,,,,,,,,,,,977.6948,979.4944,979.4944,981.2945,return,0.6864,,48.4375,,,,,,FBP-YG-71.png,0.37,1.2,17,1,,,,,,,,,,,,,,,,,,0,22,22,16,1,,,,,,,,,,,,,,,,,,,,,,,
,,,,,V1_025,31,Male,2024-05-17_11h33.45.277,jersey_experiment_5_v1,2023.2.2,Win32,84.74576271,,,,,,,,,,,,,,,,981.2947,982.5886,982.5886,984.3886,return,0.6207,,70.3125,,,,,,FBP-PT-18.png,0.4,1.2,8,0.5,,,,,,,,,,,,,,,,,,0,23,23,7,1,,,,,,,,,,,,,,,,,,,,,,,
,,,,,V1_025,31,Male,2024-05-17_11h33.45.277,jersey_experiment_5_v1,2023.2.2,Win32,84.74576271,,,,,,,,,,,,,,,,984.3887,986.1888,986.1889,987.7418,return,0.6158,,70.3125,,,,,,FBP-RB-18.png,0.4,1.2,53,1,,,,,,,,,,,,,,,,,,0,24,24,52,1,,,,,,,,,,,,,,,,,,,,,,,
,,,,,V1_025,31,Male,2024-05-17_11h33.45.277,jersey_experiment_5_v1,2023.2.2,Win32,84.74576271,,,,,,,,,,,,,,,,987.7421,989.0359,989.0359,990.3889,return,0.612,,70.3125,,,,,,FBP-PT-17.png,0.43,1.2,4,0.5,,,,,,,,,,,,,,,,,,0,25,25,3,1,,,,,,,,,,,,,,,,,,,,,,,
,,,,,V1_025,31,Male,2024-05-17_11h33.45.277,jersey_experiment_5_v1,2023.2.2,Win32,84.74576271,,,,,,,,,,,,,,,,990.3891,992.1891,992.1891,993.6479,return,0.7557,,88.28125,,,,,,FBP-YG-91.png,0.45,1.2,30,1,,,,,,,,,,,,,,,,,,0,26,26,29,1,,,,,,,,,,,,,,,,,,,,,,,
,,,,,V1_025,31,Male,2024-05-17_11h33.45.277,jersey_experiment_5_v1,2023.2.2,Win32,84.74576271,,,,,,,,,,,,,,,,993.6481,994.942,994.942,996.5302,return,0.624,,89.19270833,,,,,,FBP-PT-18.png,0.45,1.2,10,0.5,,,,,,,,,,,,,,,,,,0,27,27,9,1,,,,,,,,,,,,,,,,,,,,,,,
,,,,,V1_025,31,Male,2024-05-17_11h33.45.277,jersey_experiment_5_v1,2023.2.2,Win32,84.74576271,,,,,,,,,,,,,,,,996.5304,998.3305,998.3306,999.5421,return,0.6216,,70.44270833,,,,,,FBP-RB-19.png,0.4,1.2,58,1,,,,,,,,,,,,,,,,,,0,28,28,57,1,,,,,,,,,,,,,,,,,,,,,,,
,,,,,V1_025,31,Male,2024-05-17_11h33.45.277,jersey_experiment_5_v1,2023.2.2,Win32,84.74576271,,,,,,,,,,,,,,,,999.5423,1001.3423,1001.3423,1002.9658,return,0.6125,,42.44791667,,,,,,FBP-YG-91.png,0.35,1.2,26,1,,,,,,,,,,,,,,,,,,0,29,29,25,1,,,,,,,,,,,,,,,,,,,,,,,
,,,,,V1_025,31,Male,2024-05-17_11h33.45.277,jersey_experiment_5_v1,2023.2.2,Win32,84.74576271,,,,,,,,,,,,,,,,1002.9661,1004.7661,1004.7661,1005.8718,return,0.5555,,67.44791667,,,,,,FBP-RB-19.png,0.45,1.2,60,1,,,,,,,,,,,,,,,,,,0,30,30,59,1,,,,,,,,,,,,,,,,,,,,,,,
,,,,,V1_025,31,Male,2024-05-17_11h33.45.277,jersey_experiment_5_v1,2023.2.2,Win32,84.74576271,,,,,,,,,,,,,,,,1005.872,1007.672,1007.672,1008.6248,return,0.5777,,67.44791667,,,,,,FBP-RB-17.png,0.45,1.2,50,1,,,,,,,,,,,,,,,,,,0,31,31,49,1,,,,,,,,,,,,,,,,,,,,,,,
,,,,,V1_025,31,Male,2024-05-17_11h33.45.277,jersey_experiment_5_v1,2023.2.2,Win32,84.74576271,,,,,,,,,,,,,,,,1008.6251,1010.425,1010.425,1011.4133,return,0.6121,,67.44791667,,,,,,FBP-OG-71.png,0.4,1.2,33,1,,,,,,,,,,,,,,,,,,0,32,32,32,1,,,,,,,,,,,,,,,,,,,,,,,
,,,,,V1_025,31,Male,2024-05-17_11h33.45.277,jersey_experiment_5_v1,2023.2.2,Win32,84.74576271,,,,,,,,,,,,,,,,1011.4134,1013.2132,1013.2132,1014.5899,return,0.7718,,70.96354167,,,,,,FBP-OG-71.png,0.43,1.2,34,1,,,,,,,,,,,,,,,,,,0,33,33,33,1,,,,,,,,,,,,,,,,,,,,,,,
,,,,,V1_025,31,Male,2024-05-17_11h33.45.277,jersey_experiment_5_v1,2023.2.2,Win32,84.74576271,,,,,,,,,,,,,,,,1014.5901,1016.3899,1016.3899,1017.7074,return,0.5974,,35.67708333,,,,,,FBP-OG-81.png,0.35,1.2,36,1,,,,,,,,,,,,,,,,,,0,34,34,35,1,,,,,,,,,,,,,,,,,,,,,,,
,,,,,V1_025,31,Male,2024-05-17_11h33.45.277,jersey_experiment_5_v1,2023.2.2,Win32,84.74576271,,,,,,,,,,,,,,,,1017.7078,1019.5078,1019.5078,1020.7547,return,0.6587,,72.91666667,,,,,,FBP-YG-91.png,0.43,1.2,29,1,,,,,,,,,,,,,,,,,,0,35,35,28,1,,,,,,,,,,,,,,,,,,,,,,,
,,,,,V1_025,31,Male,2024-05-17_11h33.45.277,jersey_experiment_5_v1,2023.2.2,Win32,84.74576271,,,,,,,,,,,,,,,,1020.755,1022.5549,1022.5549,1023.8371,return,0.6168,,23.17708333,,,,,,FBP-OG-71.png,0.35,1.2,31,1,,,,,,,,,,,,,,,,,,0,36,36,30,1,,,,,,,,,,,,,,,,,,,,,,,
,,,,,V1_025,31,Male,2024-05-17_11h33.45.277,jersey_experiment_5_v1,2023.2.2,Win32,84.74576271,,,,,,,,,,,,,,,,1023.8374,1025.1312,1025.1312,1026.8021,return,0.6736,,75.13020833,,,,,,FBP-PT-19.png,0.45,1.2,15,0.5,,,,,,,,,,,,,,,,,,0,37,37,14,1,,,,,,,,,,,,,,,,,,,,,,,
,,,,,V1_025,31,Male,2024-05-17_11h33.45.277,jersey_experiment_5_v1,2023.2.2,Win32,84.74576271,,,,,,,,,,,,,,,,1026.8023,1028.6022,1028.6022,1030.3197,return,0.7436,,24.47916667,,,,,,FBP-RB-18.png,0.35,1.2,51,1,,,,,,,,,,,,,,,,,,0,38,38,50,1,,,,,,,,,,,,,,,,,,,,,,,
,,,,,V1_025,31,Male,2024-05-17_11h33.45.277,jersey_experiment_5_v1,2023.2.2,Win32,84.74576271,,,,,,,,,,,,,,,,1030.32,1032.1201,1032.1201,1034.1435,return,1.2731,,75.13020833,,,,,,FBP-RB-18.png,0.43,1.2,54,1,,,,,,,,,,,,,,,,,,0,39,39,53,1,,,,,,,,,,,,,,,,,,,,,,,
,,,,,V1_025,31,Male,2024-05-17_11h33.45.277,jersey_experiment_5_v1,2023.2.2,Win32,84.74576271,,,,,,,,,,,,,,,,1034.1437,1035.9436,1035.9436,1037.2612,return,0.7224,,49.47916667,,,,,,FBP-YG-81.png,0.4,1.2,23,1,,,,,,,,,,,,,,,,,,0,40,40,22,1,,,,,,,,,,,,,,,,,,,,,,,
,,,,,V1_025,31,Male,2024-05-17_11h33.45.277,jersey_experiment_5_v1,2023.2.2,Win32,84.74576271,,,,,,,,,,,,,,,,1037.2613,1039.0612,1039.0612,1040.2143,return,0.6731,,74.47916667,,,,,,FBP-YG-81.png,0.43,1.2,24,1,,,,,,,,,,,,,,,,,,0,41,41,23,1,,,,,,,,,,,,,,,,,,,,,,,
,,,,,V1_025,31,Male,2024-05-17_11h33.45.277,jersey_experiment_5_v1,2023.2.2,Win32,84.74576271,,,,,,,,,,,,,,,,1040.2145,1042.0143,1042.0143,1043.2968,return,0.6277,,62.36979167,,,,,,FBP-OG-91.png,0.4,1.2,43,1,,,,,,,,,,,,,,,,,,0,42,42,42,1,,,,,,,,,,,,,,,,,,,,,,,
,,,,,V1_025,31,Male,2024-05-17_11h33.45.277,jersey_experiment_5_v1,2023.2.2,Win32,84.74576271,,,,,,,,,,,,,,,,1043.297,1045.0968,1045.0969,1046.5322,return,0.612,,50,,,,,,FBP-RB-17.png,0.37,1.2,47,1,,,,,,,,,,,,,,,,,,0,43,43,46,1,,,,,,,,,,,,,,,,,,,,,,,
,,,,,V1_025,31,Male,2024-05-17_11h33.45.277,jersey_experiment_5_v1,2023.2.2,Win32,84.74576271,,,,,,,,,,,,,,,,1046.5324,1047.8262,1047.8262,1049.4734,return,1.0252,,45.703125,,,,,,FBP-PT-18.png,0.37,1.2,7,0.5,,,,,,,,,,,,,,,,,,0,44,44,6,1,,,,,,,,,,,,,,,,,,,,,,,
,,,,,V1_025,31,Male,2024-05-17_11h33.45.277,jersey_experiment_5_v1,2023.2.2,Win32,84.74576271,,,,,,,,,,,,,,,,1049.4736,1051.2737,1051.2737,1052.3324,return,0.5702,,69.40104167,,,,,,FBP-YG-81.png,0.45,1.2,25,1,,,,,,,,,,,,,,,,,,0,45,45,24,1,,,,,,,,,,,,,,,,,,,,,,,
,,,,,V1_025,31,Male,2024-05-17_11h33.45.277,jersey_experiment_5_v1,2023.2.2,Win32,84.74576271,,,,,,,,,,,,,,,,1052.3326,1054.1324,1054.1324,1056.1913,return,0.9908,,58.72395833,,,,,,FBP-YG-71.png,0.4,1.2,18,1,,,,,,,,,,,,,,,,,,0,46,46,17,1,,,,,,,,,,,,,,,,,,,,,,,
,,,,,V1_025,31,Male,2024-05-17_11h33.45.277,jersey_experiment_5_v1,2023.2.2,Win32,84.74576271,,,,,,,,,,,,,,,,1056.1916,1057.9915,1057.9916,1059.5209,return,1.1189,,70.3125,,,,,,FBP-OG-71.png,0.45,1.2,35,1,,,,,,,,,,,,,,,,,,0,47,47,34,1,,,,,,,,,,,,,,,,,,,,,,,
,,,,,V1_025,31,Male,2024-05-17_11h33.45.277,jersey_experiment_5_v1,2023.2.2,Win32,84.74576271,,,,,,,,,,,,,,,,1059.5211,1060.8149,1060.8149,1061.9327,return,0.6172,,70.3125,,,,,,FBP-PT-19.png,0.43,1.2,14,0.5,,,,,,,,,,,,,,,,,,0,48,48,13,1,,,,,,,,,,,,,,,,,,,,,,,
,,,,,V1_025,31,Male,2024-05-17_11h33.45.277,jersey_experiment_5_v1,2023.2.2,Win32,84.74576271,,,,,,,,,,,,,,,,1061.933,1063.7329,1063.7329,1065.0859,return,1.0628,,73.046875,,,,,,FBP-RB-19.png,0.43,1.2,59,1,,,,,,,,,,,,,,,,,,0,49,49,58,1,,,,,,,,,,,,,,,,,,,,,,,
,,,,,V1_025,31,Male,2024-05-17_11h33.45.277,jersey_experiment_5_v1,2023.2.2,Win32,84.74576271,,,,,,,,,,,,,,,,1065.0861,1066.8858,1066.8858,1068.4623,return,0.7216,,73.17708333,,,,,,FBP-YG-71.png,0.43,1.2,19,1,,,,,,,,,,,,,,,,,,0,50,50,18,1,,,,,,,,,,,,,,,,,,,,,,,
,,,,,V1_025,31,Male,2024-05-17_11h33.45.277,jersey_experiment_5_v1,2023.2.2,Win32,84.74576271,,,,,,,,,,,,,,,,1068.4625,1069.7566,1069.7566,1071.2036,return,0.6587,,50,,,,,,FBP-PT-17.png,0.37,1.2,2,0.5,,,,,,,,,,,,,,,,,,0,51,51,1,1,,,,,,,,,,,,,,,,,,,,,,,
,,,,,V1_025,31,Male,2024-05-17_11h33.45.277,jersey_experiment_5_v1,2023.2.2,Win32,84.74576271,,,,,,,,,,,,,,,,1071.2039,1072.4978,1072.4978,1073.5684,return,0.6488,,50,,,,,,FBP-PT-17.png,0.4,1.2,3,0.5,,,,,,,,,,,,,,,,,,0,52,52,2,1,,,,,,,,,,,,,,,,,,,,,,,
,,,,,V1_025,31,Male,2024-05-17_11h33.45.277,jersey_experiment_5_v1,2023.2.2,Win32,84.74576271,,,,,,,,,,,,,,,,1073.5686,1075.3685,1075.3686,1076.3568,return,0.588,,50,,,,,,FBP-YG-81.png,0.35,1.2,21,1,,,,,,,,,,,,,,,,,,0,53,53,20,1,,,,,,,,,,,,,,,,,,,,,,,
,,,,,V1_025,31,Male,2024-05-17_11h33.45.277,jersey_experiment_5_v1,2023.2.2,Win32,84.74576271,,,,,,,,,,,,,,,,1076.3571,1077.651,1077.651,1078.7804,return,0.5142,,45.18229167,,,,,,FBP-PT-17.png,0.35,1.2,1,0.5,,,,,,,,,,,,,,,,,,0,54,54,0,1,,,,,,,,,,,,,,,,,,,,,,,
,,,,,V1_025,31,Male,2024-05-17_11h33.45.277,jersey_experiment_5_v1,2023.2.2,Win32,84.74576271,,,,,,,,,,,,,,,,1078.7807,1080.5803,1080.5803,1082.3335,return,1.017,,66.53645833,,,,,,FBP-YG-91.png,0.4,1.2,28,1,,,,,,,,,,,,,,,,,,0,55,55,27,1,,,,,,,,,,,,,,,,,,,,,,,
,,,,,V1_025,31,Male,2024-05-17_11h33.45.277,jersey_experiment_5_v1,2023.2.2,Win32,84.74576271,,,,,,,,,,,,,,,,1082.3338,1083.6277,1083.6277,1085.263,return,0.6881,,67.05729167,,,,,,FBP-PT-19.png,0.4,1.2,13,0.5,,,,,,,,,,,,,,,,,,0,56,56,12,1,,,,,,,,,,,,,,,,,,,,,,,
,,,,,V1_025,31,Male,2024-05-17_11h33.45.277,jersey_experiment_5_v1,2023.2.2,Win32,84.74576271,,,,,,,,,,,,,,,,1085.2632,1087.063,1087.0631,1088.5099,return,0.5946,,49.86979167,,,,,,FBP-RB-19.png,0.35,1.2,56,1,,,,,,,,,,,,,,,,,,0,57,57,55,1,,,,,,,,,,,,,,,,,,,,,,,
,,,,,V1_025,31,Male,2024-05-17_11h33.45.277,jersey_experiment_5_v1,2023.2.2,Win32,84.74576271,,,,,,,,,,,,,,,,1088.5102,1090.3103,1090.3104,1092.8044,return,1.9763,,42.70833333,,,,,,FBP-RB-17.png,0.35,1.2,46,1,,,,,,,,,,,,,,,,,,0,58,58,45,1,,,,,,,,,,,,,,,,,,,,,,,
,,,,,V1_025,31,Male,2024-05-17_11h33.45.277,jersey_experiment_5_v1,2023.2.2,Win32,84.74576271,,,,,,,,,,,,,,,,1092.8047,1094.6044,1094.6045,1096.2281,return,1.186,,59.50520833,,,,,,FBP-OG-81.png,0.43,1.2,39,1,,,,,,,,,,,,,,,,,,0,59,59,38,1,,,,,,,,,,,,,,,,,,,,,,,
,,,,,V1_025,31,Male,2024-05-17_11h33.45.277,jersey_experiment_5_v1,2023.2.2,Win32,84.74576271,,,,,,,,,,,,,,,,,,,,,,,,,,,,,,,,,,,,,,,,,,,,,,,,,,,,,,,,1096.2284,1101.9228,return,5.682,,,,,,,,,,,,,,,,,,,
,,,,,V1_025,31,Male,2024-05-17_11h33.45.277,jersey_experiment_5_v1,2023.2.2,Win32,84.74576271,,,,,,,,,,,,,,,,,,,,,,,,,,,,,,,,,,,,,,,,,,,,,,,,,,,,,,,,,,,,,1101.9229,1108.2405,1,4.645,return,1.6486,,,,,,,,,,,,
,,,,,V1_025,31,Male,2024-05-17_11h33.45.277,jersey_experiment_5_v1,2023.2.2,Win32,84.74576271,,,,,,,,,,,,,,,,,,,,,,,,,,,,,,,,,,,,,,,,,,,,,,,,,,,,,,,,,,,,,,,,,,,,1108.2406,1204.2254,I would guess that the experiment is to test if I tend to rate them differently based upon race. It seemed as if often it would show the same size back to back but different races. I'd guess that is to see if one is perceived as smaller or bigger. ,right,88.6343,,,,,,
,,,,,V1_025,31,Male,2024-05-17_11h33.45.277,jersey_experiment_5_v1,2023.2.2,Win32,84.74576271,,,,,,,,,,,,,,,,,,,,,,,,,,,,,,,,,,,,,,,,,,,,,,,,,,,,,,,,,,,,,,,,,,,,,,,,,,1204.2255,1210.2208,return,5.9896,