requirements.started,requirements.stopped,key_resp_3.keys,key_resp_3.rt,key_resp_3.duration,Subject ID,Age,Gender,date,expName,psychopyVersion,OS,frameRate,instructions1.started,instructions1.stopped,key_resp.keys,key_resp.rt,key_resp.duration,example.started,example.stopped,enter_2.keys,enter_2.rt,enter_2.duration,instructions2.started,instructions2.stopped,enter_3.keys,enter_3.rt,enter_3.duration,image.started,image.stopped,slider_2.started,slider_2.stopped,next.keys,next.rt,next.duration,slider.response,trial_block_1.thisRepN,trial_block_1.thisTrialN,trial_block_1.thisN,trial_block_1.thisIndex,trial_block_1.ran,Path,Width,Height,Index,Duration,trial_block_2.thisRepN,trial_block_2.thisTrialN,trial_block_2.thisN,trial_block_2.thisIndex,trial_block_2.ran,rest_break.started,rest_break.stopped,end_break.started,end_break.stopped,key_resp_5.keys,key_resp_5.rt,key_resp_5.duration,trial_block_3.thisRepN,trial_block_3.thisTrialN,trial_block_3.thisN,trial_block_3.thisIndex,trial_block_3.ran,trial_block_4.thisRepN,trial_block_4.thisTrialN,trial_block_4.thisN,trial_block_4.thisIndex,trial_block_4.ran,questions_intro.started,questions_intro.stopped,enter_12.keys,enter_12.rt,enter_12.duration,question2.started,question2.stopped,question_doingbest.response,question_doingbest.rt,enter_15.keys,enter_15.rt,enter_15.duration,pattern.started,pattern.stopped,pattern_2.text,enter_17.keys,enter_17.rt,enter_17.duration,thankyou.started,thankyou.stopped,enter_14.keys,enter_14.rt,enter_14.duration
0.0002,6.2696,return,6.2614,,V1_012,20,Male,2024-04-30_17h07.26.048,jersey_experiment_5_v1,2023.2.2,Win32,84.74576271,,,,,,,,,,,,,,,,,,,,,,,,,,,,,,,,,,,,,,,,,,,,,,,,,,,,,,,,,,,,,,,,,,,,,,,,,,,,,,
,,,,,V1_012,20,Male,2024-04-30_17h07.26.048,jersey_experiment_5_v1,2023.2.2,Win32,84.74576271,6.2698,10.3755,return,4.101,,,,,,,,,,,,,,,,,,,,,,,,,,,,,,,,,,,,,,,,,,,,,,,,,,,,,,,,,,,,,,,,,,,,,,,,,,
,,,,,V1_012,20,Male,2024-04-30_17h07.26.048,jersey_experiment_5_v1,2023.2.2,Win32,84.74576271,,,,,,10.3757,17.9759,return,7.5745,,,,,,,,,,,,,,,,,,,,,,,,,,,,,,,,,,,,,,,,,,,,,,,,,,,,,,,,,,,,,,,,,,,,,
,,,,,V1_012,20,Male,2024-04-30_17h07.26.048,jersey_experiment_5_v1,2023.2.2,Win32,84.74576271,,,,,,,,,,,17.9761,34.306,return,16.3165,,,,,,,,,,,,,,,,,,,,,,,,,,,,,,,,,,,,,,,,,,,,,,,,,,,,,,,,,,,,,,,,
,,,,,V1_012,20,Male,2024-04-30_17h07.26.048,jersey_experiment_5_v1,2023.2.2,Win32,84.74576271,,,,,,,,,,,,,,,,34.3132,35.6115,35.6117,43.8357,return,2.6027,,24.73958333,0,0,0,31,1,FBP-OG-17.png,0.37,1.2,32,0.5,,,,,,,,,,,,,,,,,,,,,,,,,,,,,,,,,,,,,,,,,,,,,
,,,,,V1_012,20,Male,2024-04-30_17h07.26.048,jersey_experiment_5_v1,2023.2.2,Win32,84.74576271,,,,,,,,,,,,,,,,43.836,45.1296,45.1297,49.2593,return,2.426,,69.66145833,0,1,1,45,1,FBP-RB-71.png,0.35,1.2,46,0.5,,,,,,,,,,,,,,,,,,,,,,,,,,,,,,,,,,,,,,,,,,,,,
,,,,,V1_012,20,Male,2024-04-30_17h07.26.048,jersey_experiment_5_v1,2023.2.2,Win32,84.74576271,,,,,,,,,,,,,,,,49.2596,50.5534,50.5534,52.8945,return,0.2122,,74.86979167,0,2,2,22,1,FBP-YG-18.png,0.4,1.2,23,0.5,,,,,,,,,,,,,,,,,,,,,,,,,,,,,,,,,,,,,,,,,,,,,
,,,,,V1_012,20,Male,2024-04-30_17h07.26.048,jersey_experiment_5_v1,2023.2.2,Win32,84.74576271,,,,,,,,,,,,,,,,52.8948,54.6946,54.6946,56.8123,return,0.9185,,88.80208333,0,3,3,4,1,FBP-PT-71.png,0.45,1.2,5,1,,,,,,,,,,,,,,,,,,,,,,,,,,,,,,,,,,,,,,,,,,,,,
,,,,,V1_012,20,Male,2024-04-30_17h07.26.048,jersey_experiment_5_v1,2023.2.2,Win32,84.74576271,,,,,,,,,,,,,,,,56.8125,58.1065,58.1066,60.3302,return,0.1468,,79.55729167,0,4,4,16,1,FBP-YG-17.png,0.37,1.2,17,0.5,,,,,,,,,,,,,,,,,,,,,,,,,,,,,,,,,,,,,,,,,,,,,
,,,,,V1_012,20,Male,2024-04-30_17h07.26.048,jersey_experiment_5_v1,2023.2.2,Win32,84.74576271,,,,,,,,,,,,,,,,60.3304,61.6242,61.6244,62.8482,return,0.1886,,66.92708333,0,5,5,19,1,FBP-YG-17.png,0.45,1.2,20,0.5,,,,,,,,,,,,,,,,,,,,,,,,,,,,,,,,,,,,,,,,,,,,,
,,,,,V1_012,20,Male,2024-04-30_17h07.26.048,jersey_experiment_5_v1,2023.2.2,Win32,84.74576271,,,,,,,,,,,,,,,,62.8484,64.6479,64.648,65.9187,return,0.2582,,75,0,6,6,6,1,FBP-PT-81.png,0.37,1.2,7,1,,,,,,,,,,,,,,,,,,,,,,,,,,,,,,,,,,,,,,,,,,,,,
,,,,,V1_012,20,Male,2024-04-30_17h07.26.048,jersey_experiment_5_v1,2023.2.2,Win32,84.74576271,,,,,,,,,,,,,,,,65.919,67.2128,67.2128,68.9186,return,0.2208,,75.52083333,0,7,7,44,1,FBP-OG-19.png,0.45,1.2,45,0.5,,,,,,,,,,,,,,,,,,,,,,,,,,,,,,,,,,,,,,,,,,,,,
,,,,,V1_012,20,Male,2024-04-30_17h07.26.048,jersey_experiment_5_v1,2023.2.2,Win32,84.74576271,,,,,,,,,,,,,,,,68.9188,70.2128,70.2128,71.7423,return,0.2598,,97.265625,0,8,8,54,1,FBP-RB-81.png,0.45,1.2,55,0.5,,,,,,,,,,,,,,,,,,,,,,,,,,,,,,,,,,,,,,,,,,,,,
,,,,,V1_012,20,Male,2024-04-30_17h07.26.048,jersey_experiment_5_v1,2023.2.2,Win32,84.74576271,,,,,,,,,,,,,,,,71.7424,73.0365,73.0365,74.5188,return,0.4889,,41.796875,0,9,9,35,1,FBP-OG-18.png,0.35,1.2,36,0.5,,,,,,,,,,,,,,,,,,,,,,,,,,,,,,,,,,,,,,,,,,,,,
,,,,,V1_012,20,Male,2024-04-30_17h07.26.048,jersey_experiment_5_v1,2023.2.2,Win32,84.74576271,,,,,,,,,,,,,,,,74.5191,75.8129,75.8129,78.4485,return,0.2351,,73.56770833,0,10,10,33,1,FBP-OG-17.png,0.43,1.2,34,0.5,,,,,,,,,,,,,,,,,,,,,,,,,,,,,,,,,,,,,,,,,,,,,
,,,,,V1_012,20,Male,2024-04-30_17h07.26.048,jersey_experiment_5_v1,2023.2.2,Win32,84.74576271,,,,,,,,,,,,,,,,78.4487,80.2486,80.2486,84.2723,return,0.4009,,71.22395833,0,11,11,12,1,FBP-PT-91.png,0.4,1.2,13,1,,,,,,,,,,,,,,,,,,,,,,,,,,,,,,,,,,,,,,,,,,,,,
,,,,,V1_012,20,Male,2024-04-30_17h07.26.048,jersey_experiment_5_v1,2023.2.2,Win32,84.74576271,,,,,,,,,,,,,,,,84.2724,86.0721,86.0721,87.943,return,0.1721,,25.65104167,0,12,12,10,1,FBP-PT-91.png,0.35,1.2,11,1,,,,,,,,,,,,,,,,,,,,,,,,,,,,,,,,,,,,,,,,,,,,,
,,,,,V1_012,20,Male,2024-04-30_17h07.26.048,jersey_experiment_5_v1,2023.2.2,Win32,84.74576271,,,,,,,,,,,,,,,,87.9432,89.2374,89.2374,90.6961,return,0.1699,,97.265625,0,13,13,49,1,FBP-RB-71.png,0.45,1.2,50,0.5,,,,,,,,,,,,,,,,,,,,,,,,,,,,,,,,,,,,,,,,,,,,,
,,,,,V1_012,20,Male,2024-04-30_17h07.26.048,jersey_experiment_5_v1,2023.2.2,Win32,84.74576271,,,,,,,,,,,,,,,,90.6962,91.9901,91.9901,93.3903,return,0.1658,,98.17708333,0,14,14,58,1,FBP-RB-91.png,0.43,1.2,59,0.5,,,,,,,,,,,,,,,,,,,,,,,,,,,,,,,,,,,,,,,,,,,,,
,,,,,V1_012,20,Male,2024-04-30_17h07.26.048,jersey_experiment_5_v1,2023.2.2,Win32,84.74576271,,,,,,,,,,,,,,,,93.3905,94.6845,94.6845,96.5083,return,0.0724,,25,0,15,15,20,1,FBP-YG-18.png,0.35,1.2,21,0.5,,,,,,,,,,,,,,,,,,,,,,,,,,,,,,,,,,,,,,,,,,,,,
,,,,,V1_012,20,Male,2024-04-30_17h07.26.048,jersey_experiment_5_v1,2023.2.2,Win32,84.74576271,,,,,,,,,,,,,,,,96.5085,97.8023,97.8023,99.0495,return,0.193,,25.13020833,0,16,16,30,1,FBP-OG-17.png,0.35,1.2,31,0.5,,,,,,,,,,,,,,,,,,,,,,,,,,,,,,,,,,,,,,,,,,,,,
,,,,,V1_012,20,Male,2024-04-30_17h07.26.048,jersey_experiment_5_v1,2023.2.2,Win32,84.74576271,,,,,,,,,,,,,,,,99.0498,100.3435,100.3435,101.8025,return,0.0976,,99.609375,0,17,17,29,1,FBP-YG-19.png,0.45,1.2,30,0.5,,,,,,,,,,,,,,,,,,,,,,,,,,,,,,,,,,,,,,,,,,,,,
,,,,,V1_012,20,Male,2024-04-30_17h07.26.048,jersey_experiment_5_v1,2023.2.2,Win32,84.74576271,,,,,,,,,,,,,,,,101.8027,103.0966,103.0966,107.579,return,0.8377,,22.265625,0,18,18,21,1,FBP-YG-18.png,0.37,1.2,22,0.5,,,,,,,,,,,,,,,,,,,,,,,,,,,,,,,,,,,,,,,,,,,,,
,,,,,V1_012,20,Male,2024-04-30_17h07.26.048,jersey_experiment_5_v1,2023.2.2,Win32,84.74576271,,,,,,,,,,,,,,,,107.5792,108.8733,108.8734,110.1439,return,0.2123,,25.52083333,0,19,19,50,1,FBP-RB-81.png,0.35,1.2,51,0.5,,,,,,,,,,,,,,,,,,,,,,,,,,,,,,,,,,,,,,,,,,,,,
,,,,,V1_012,20,Male,2024-04-30_17h07.26.048,jersey_experiment_5_v1,2023.2.2,Win32,84.74576271,,,,,,,,,,,,,,,,110.1442,111.438,111.438,112.3909,return,0.0907,,24.73958333,0,20,20,56,1,FBP-RB-91.png,0.37,1.2,57,0.5,,,,,,,,,,,,,,,,,,,,,,,,,,,,,,,,,,,,,,,,,,,,,
,,,,,V1_012,20,Male,2024-04-30_17h07.26.048,jersey_experiment_5_v1,2023.2.2,Win32,84.74576271,,,,,,,,,,,,,,,,112.3912,114.191,114.191,115.1794,return,0.1688,,24.73958333,0,21,21,11,1,FBP-PT-91.png,0.37,1.2,12,1,,,,,,,,,,,,,,,,,,,,,,,,,,,,,,,,,,,,,,,,,,,,,
,,,,,V1_012,20,Male,2024-04-30_17h07.26.048,jersey_experiment_5_v1,2023.2.2,Win32,84.74576271,,,,,,,,,,,,,,,,115.1796,116.9795,116.9795,117.6618,return,0.1556,,31.90104167,0,22,22,5,1,FBP-PT-81.png,0.35,1.2,6,1,,,,,,,,,,,,,,,,,,,,,,,,,,,,,,,,,,,,,,,,,,,,,
,,,,,V1_012,20,Male,2024-04-30_17h07.26.048,jersey_experiment_5_v1,2023.2.2,Win32,84.74576271,,,,,,,,,,,,,,,,117.6621,118.956,118.956,119.7088,return,0.1088,,36.45833333,0,23,23,41,1,FBP-OG-19.png,0.37,1.2,42,0.5,,,,,,,,,,,,,,,,,,,,,,,,,,,,,,,,,,,,,,,,,,,,,
,,,,,V1_012,20,Male,2024-04-30_17h07.26.048,jersey_experiment_5_v1,2023.2.2,Win32,84.74576271,,,,,,,,,,,,,,,,119.709,121.003,121.0031,121.9443,return,0.1132,,39.19270833,0,24,24,26,1,FBP-YG-19.png,0.37,1.2,27,0.5,,,,,,,,,,,,,,,,,,,,,,,,,,,,,,,,,,,,,,,,,,,,,
,,,,,V1_012,20,Male,2024-04-30_17h07.26.048,jersey_experiment_5_v1,2023.2.2,Win32,84.74576271,,,,,,,,,,,,,,,,121.9445,123.2385,123.2385,124.2505,return,0.0878,,37.36979167,0,25,25,40,1,FBP-OG-19.png,0.35,1.2,41,0.5,,,,,,,,,,,,,,,,,,,,,,,,,,,,,,,,,,,,,,,,,,,,,
,,,,,V1_012,20,Male,2024-04-30_17h07.26.048,jersey_experiment_5_v1,2023.2.2,Win32,84.74576271,,,,,,,,,,,,,,,,124.2506,125.5444,125.5444,127.0739,return,0.212,,98.95833333,0,26,26,59,1,FBP-RB-91.png,0.45,1.2,60,0.5,,,,,,,,,,,,,,,,,,,,,,,,,,,,,,,,,,,,,,,,,,,,,
,,,,,V1_012,20,Male,2024-04-30_17h07.26.048,jersey_experiment_5_v1,2023.2.2,Win32,84.74576271,,,,,,,,,,,,,,,,127.0741,128.368,128.3681,136.2979,return,0.0975,,74.21875,0,27,27,24,1,FBP-YG-18.png,0.45,1.2,25,0.5,,,,,,,,,,,,,,,,,,,,,,,,,,,,,,,,,,,,,,,,,,,,,
,,,,,V1_012,20,Male,2024-04-30_17h07.26.048,jersey_experiment_5_v1,2023.2.2,Win32,84.74576271,,,,,,,,,,,,,,,,136.298,137.5921,137.5922,138.7216,return,0.3066,,99.34895833,0,28,28,47,1,FBP-RB-71.png,0.4,1.2,48,0.5,,,,,,,,,,,,,,,,,,,,,,,,,,,,,,,,,,,,,,,,,,,,,
,,,,,V1_012,20,Male,2024-04-30_17h07.26.048,jersey_experiment_5_v1,2023.2.2,Win32,84.74576271,,,,,,,,,,,,,,,,138.7219,140.5214,140.5214,142.192,return,0.3394,,32.94270833,0,29,29,0,1,FBP-PT-71.png,0.35,1.2,1,1,,,,,,,,,,,,,,,,,,,,,,,,,,,,,,,,,,,,,,,,,,,,,
,,,,,V1_012,20,Male,2024-04-30_17h07.26.048,jersey_experiment_5_v1,2023.2.2,Win32,84.74576271,,,,,,,,,,,,,,,,142.1923,143.992,143.9921,146.2392,return,0.2592,,94.01041667,0,30,30,3,1,FBP-PT-71.png,0.43,1.2,4,1,,,,,,,,,,,,,,,,,,,,,,,,,,,,,,,,,,,,,,,,,,,,,
,,,,,V1_012,20,Male,2024-04-30_17h07.26.048,jersey_experiment_5_v1,2023.2.2,Win32,84.74576271,,,,,,,,,,,,,,,,146.2394,147.5336,147.5336,149.0042,return,0.1566,,97.13541667,0,31,31,52,1,FBP-RB-81.png,0.4,1.2,53,0.5,,,,,,,,,,,,,,,,,,,,,,,,,,,,,,,,,,,,,,,,,,,,,
,,,,,V1_012,20,Male,2024-04-30_17h07.26.048,jersey_experiment_5_v1,2023.2.2,Win32,84.74576271,,,,,,,,,,,,,,,,149.0045,150.2985,150.2985,152.016,return,0.0235,,97.65625,0,32,32,23,1,FBP-YG-18.png,0.43,1.2,24,0.5,,,,,,,,,,,,,,,,,,,,,,,,,,,,,,,,,,,,,,,,,,,,,
,,,,,V1_012,20,Male,2024-04-30_17h07.26.048,jersey_experiment_5_v1,2023.2.2,Win32,84.74576271,,,,,,,,,,,,,,,,152.0163,153.3104,153.3104,154.2397,return,0.1285,,97.39583333,0,33,33,18,1,FBP-YG-17.png,0.43,1.2,19,0.5,,,,,,,,,,,,,,,,,,,,,,,,,,,,,,,,,,,,,,,,,,,,,
,,,,,V1_012,20,Male,2024-04-30_17h07.26.048,jersey_experiment_5_v1,2023.2.2,Win32,84.74576271,,,,,,,,,,,,,,,,154.2399,156.0397,156.0397,156.9691,return,0.124,,97.13541667,0,34,34,13,1,FBP-PT-91.png,0.43,1.2,14,1,,,,,,,,,,,,,,,,,,,,,,,,,,,,,,,,,,,,,,,,,,,,,
,,,,,V1_012,20,Male,2024-04-30_17h07.26.048,jersey_experiment_5_v1,2023.2.2,Win32,84.74576271,,,,,,,,,,,,,,,,156.9694,158.2632,158.2632,159.4161,return,0.2428,,94.921875,0,35,35,53,1,FBP-RB-81.png,0.43,1.2,54,0.5,,,,,,,,,,,,,,,,,,,,,,,,,,,,,,,,,,,,,,,,,,,,,
,,,,,V1_012,20,Male,2024-04-30_17h07.26.048,jersey_experiment_5_v1,2023.2.2,Win32,84.74576271,,,,,,,,,,,,,,,,159.4163,160.7105,160.7105,161.64,return,0.076,,94.140625,0,36,36,51,1,FBP-RB-81.png,0.37,1.2,52,0.5,,,,,,,,,,,,,,,,,,,,,,,,,,,,,,,,,,,,,,,,,,,,,
,,,,,V1_012,20,Male,2024-04-30_17h07.26.048,jersey_experiment_5_v1,2023.2.2,Win32,84.74576271,,,,,,,,,,,,,,,,161.6402,162.934,162.9341,163.852,return,0.1806,,90.625,0,37,37,34,1,FBP-OG-17.png,0.45,1.2,35,0.5,,,,,,,,,,,,,,,,,,,,,,,,,,,,,,,,,,,,,,,,,,,,,
,,,,,V1_012,20,Male,2024-04-30_17h07.26.048,jersey_experiment_5_v1,2023.2.2,Win32,84.74576271,,,,,,,,,,,,,,,,163.8522,165.6517,165.6517,166.6051,return,0.0944,,93.88020833,0,38,38,9,1,FBP-PT-81.png,0.45,1.2,10,1,,,,,,,,,,,,,,,,,,,,,,,,,,,,,,,,,,,,,,,,,,,,,
,,,,,V1_012,20,Male,2024-04-30_17h07.26.048,jersey_experiment_5_v1,2023.2.2,Win32,84.74576271,,,,,,,,,,,,,,,,166.6053,167.899,167.899,168.9931,return,0.1884,,91.14583333,0,39,39,38,1,FBP-OG-18.png,0.43,1.2,39,0.5,,,,,,,,,,,,,,,,,,,,,,,,,,,,,,,,,,,,,,,,,,,,,
,,,,,V1_012,20,Male,2024-04-30_17h07.26.048,jersey_experiment_5_v1,2023.2.2,Win32,84.74576271,,,,,,,,,,,,,,,,168.9932,170.7933,170.7934,172.4168,return,1.0966,,94.921875,0,40,40,2,1,FBP-PT-71.png,0.4,1.2,3,1,,,,,,,,,,,,,,,,,,,,,,,,,,,,,,,,,,,,,,,,,,,,,
,,,,,V1_012,20,Male,2024-04-30_17h07.26.048,jersey_experiment_5_v1,2023.2.2,Win32,84.74576271,,,,,,,,,,,,,,,,172.417,173.7109,173.7109,174.6992,return,0.1199,,93.48958333,0,41,41,57,1,FBP-RB-91.png,0.4,1.2,58,0.5,,,,,,,,,,,,,,,,,,,,,,,,,,,,,,,,,,,,,,,,,,,,,
,,,,,V1_012,20,Male,2024-04-30_17h07.26.048,jersey_experiment_5_v1,2023.2.2,Win32,84.74576271,,,,,,,,,,,,,,,,174.6995,175.9938,175.9938,177.3228,return,0.146,,93.88020833,0,42,42,17,1,FBP-YG-17.png,0.4,1.2,18,0.5,,,,,,,,,,,,,,,,,,,,,,,,,,,,,,,,,,,,,,,,,,,,,
,,,,,V1_012,20,Male,2024-04-30_17h07.26.048,jersey_experiment_5_v1,2023.2.2,Win32,84.74576271,,,,,,,,,,,,,,,,177.323,178.6169,178.617,179.6406,return,0.1702,,94.79166667,0,43,43,27,1,FBP-YG-19.png,0.4,1.2,28,0.5,,,,,,,,,,,,,,,,,,,,,,,,,,,,,,,,,,,,,,,,,,,,,
,,,,,V1_012,20,Male,2024-04-30_17h07.26.048,jersey_experiment_5_v1,2023.2.2,Win32,84.74576271,,,,,,,,,,,,,,,,179.6407,180.9347,180.9347,181.9349,return,0.1047,,90.234375,0,44,44,46,1,FBP-RB-71.png,0.37,1.2,47,0.5,,,,,,,,,,,,,,,,,,,,,,,,,,,,,,,,,,,,,,,,,,,,,
,,,,,V1_012,20,Male,2024-04-30_17h07.26.048,jersey_experiment_5_v1,2023.2.2,Win32,84.74576271,,,,,,,,,,,,,,,,181.935,183.2289,183.2289,184.2055,return,0.1079,,91.53645833,0,45,45,36,1,FBP-OG-18.png,0.37,1.2,37,0.5,,,,,,,,,,,,,,,,,,,,,,,,,,,,,,,,,,,,,,,,,,,,,
,,,,,V1_012,20,Male,2024-04-30_17h07.26.048,jersey_experiment_5_v1,2023.2.2,Win32,84.74576271,,,,,,,,,,,,,,,,184.2057,185.4996,185.4996,188.5232,return,1.9209,,75,0,46,46,48,1,FBP-RB-71.png,0.43,1.2,49,0.5,,,,,,,,,,,,,,,,,,,,,,,,,,,,,,,,,,,,,,,,,,,,,
,,,,,V1_012,20,Male,2024-04-30_17h07.26.048,jersey_experiment_5_v1,2023.2.2,Win32,84.74576271,,,,,,,,,,,,,,,,188.5235,189.8173,189.8174,190.9939,return,0.0476,,67.31770833,0,47,47,28,1,FBP-YG-19.png,0.43,1.2,29,0.5,,,,,,,,,,,,,,,,,,,,,,,,,,,,,,,,,,,,,,,,,,,,,
,,,,,V1_012,20,Male,2024-04-30_17h07.26.048,jersey_experiment_5_v1,2023.2.2,Win32,84.74576271,,,,,,,,,,,,,,,,190.9942,192.288,192.2881,196.9707,return,0.5559,,54.42708333,0,48,48,43,1,FBP-OG-19.png,0.43,1.2,44,0.5,,,,,,,,,,,,,,,,,,,,,,,,,,,,,,,,,,,,,,,,,,,,,
,,,,,V1_012,20,Male,2024-04-30_17h07.26.048,jersey_experiment_5_v1,2023.2.2,Win32,84.74576271,,,,,,,,,,,,,,,,196.971,198.2648,198.2649,199.2766,return,0.1445,,56.38020833,0,49,49,32,1,FBP-OG-17.png,0.4,1.2,33,0.5,,,,,,,,,,,,,,,,,,,,,,,,,,,,,,,,,,,,,,,,,,,,,
,,,,,V1_012,20,Male,2024-04-30_17h07.26.048,jersey_experiment_5_v1,2023.2.2,Win32,84.74576271,,,,,,,,,,,,,,,,199.2767,201.0766,201.0766,201.7944,return,0.1179,,61.84895833,0,50,50,7,1,FBP-PT-81.png,0.4,1.2,8,1,,,,,,,,,,,,,,,,,,,,,,,,,,,,,,,,,,,,,,,,,,,,,
,,,,,V1_012,20,Male,2024-04-30_17h07.26.048,jersey_experiment_5_v1,2023.2.2,Win32,84.74576271,,,,,,,,,,,,,,,,201.7946,203.0886,203.0886,204.112,return,0.1182,,64.71354167,0,51,51,25,1,FBP-YG-19.png,0.35,1.2,26,0.5,,,,,,,,,,,,,,,,,,,,,,,,,,,,,,,,,,,,,,,,,,,,,
,,,,,V1_012,20,Male,2024-04-30_17h07.26.048,jersey_experiment_5_v1,2023.2.2,Win32,84.74576271,,,,,,,,,,,,,,,,204.1122,205.9121,205.9122,206.9712,return,0.1455,,67.44791667,0,52,52,1,1,FBP-PT-71.png,0.37,1.2,2,1,,,,,,,,,,,,,,,,,,,,,,,,,,,,,,,,,,,,,,,,,,,,,
,,,,,V1_012,20,Male,2024-04-30_17h07.26.048,jersey_experiment_5_v1,2023.2.2,Win32,84.74576271,,,,,,,,,,,,,,,,206.9714,208.2651,208.2651,209.4181,return,0.2641,,66.66666667,0,53,53,55,1,FBP-RB-91.png,0.35,1.2,56,0.5,,,,,,,,,,,,,,,,,,,,,,,,,,,,,,,,,,,,,,,,,,,,,
,,,,,V1_012,20,Male,2024-04-30_17h07.26.048,jersey_experiment_5_v1,2023.2.2,Win32,84.74576271,,,,,,,,,,,,,,,,209.4184,210.7123,210.7123,213.6418,return,0.2061,,65.36458333,0,54,54,39,1,FBP-OG-18.png,0.45,1.2,40,0.5,,,,,,,,,,,,,,,,,,,,,,,,,,,,,,,,,,,,,,,,,,,,,
,,,,,V1_012,20,Male,2024-04-30_17h07.26.048,jersey_experiment_5_v1,2023.2.2,Win32,84.74576271,,,,,,,,,,,,,,,,213.642,214.936,214.936,215.8185,return,0.0994,,57.8125,0,55,55,37,1,FBP-OG-18.png,0.4,1.2,38,0.5,,,,,,,,,,,,,,,,,,,,,,,,,,,,,,,,,,,,,,,,,,,,,
,,,,,V1_012,20,Male,2024-04-30_17h07.26.048,jersey_experiment_5_v1,2023.2.2,Win32,84.74576271,,,,,,,,,,,,,,,,215.8186,217.1127,217.1127,217.8421,return,0.0946,,35.9375,0,56,56,15,1,FBP-YG-17.png,0.35,1.2,16,0.5,,,,,,,,,,,,,,,,,,,,,,,,,,,,,,,,,,,,,,,,,,,,,
,,,,,V1_012,20,Male,2024-04-30_17h07.26.048,jersey_experiment_5_v1,2023.2.2,Win32,84.74576271,,,,,,,,,,,,,,,,217.8423,219.642,219.642,221.2893,return,0.1124,,45.18229167,0,57,57,14,1,FBP-PT-91.png,0.45,1.2,15,1,,,,,,,,,,,,,,,,,,,,,,,,,,,,,,,,,,,,,,,,,,,,,
,,,,,V1_012,20,Male,2024-04-30_17h07.26.048,jersey_experiment_5_v1,2023.2.2,Win32,84.74576271,,,,,,,,,,,,,,,,221.2894,223.0892,223.0892,224.6186,return,0.5225,,61.45833333,0,58,58,8,1,FBP-PT-81.png,0.43,1.2,9,1,,,,,,,,,,,,,,,,,,,,,,,,,,,,,,,,,,,,,,,,,,,,,
,,,,,V1_012,20,Male,2024-04-30_17h07.26.048,jersey_experiment_5_v1,2023.2.2,Win32,84.74576271,,,,,,,,,,,,,,,,224.6189,225.9128,225.9129,226.5835,return,0.02,,65.75520833,0,59,59,42,1,FBP-OG-19.png,0.4,1.2,43,0.5,,,,,,,,,,,,,,,,,,,,,,,,,,,,,,,,,,,,,,,,,,,,,
,,,,,V1_012,20,Male,2024-04-30_17h07.26.048,jersey_experiment_5_v1,2023.2.2,Win32,84.74576271,,,,,,,,,,,,,,,,226.5856,227.8777,227.8777,229.7836,return,0.0995,,77.99479167,,,,,,FBP-YG-71.png,0.4,1.2,18,0.5,0,0,0,17,1,,,,,,,,,,,,,,,,,,,,,,,,,,,,,,,,,,,,,,,,
,,,,,V1_012,20,Male,2024-04-30_17h07.26.048,jersey_experiment_5_v1,2023.2.2,Win32,84.74576271,,,,,,,,,,,,,,,,229.784,231.0781,231.0781,232.1132,return,0.0939,,84.24479167,,,,,,FBP-RB-19.png,0.45,1.2,60,0.5,0,1,1,59,1,,,,,,,,,,,,,,,,,,,,,,,,,,,,,,,,,,,,,,,,
,,,,,V1_012,20,Male,2024-04-30_17h07.26.048,jersey_experiment_5_v1,2023.2.2,Win32,84.74576271,,,,,,,,,,,,,,,,232.1136,233.4076,233.4076,234.0072,return,0.0884,,88.41145833,,,,,,FBP-OG-91.png,0.43,1.2,44,0.5,0,2,2,43,1,,,,,,,,,,,,,,,,,,,,,,,,,,,,,,,,,,,,,,,,
,,,,,V1_012,20,Male,2024-04-30_17h07.26.048,jersey_experiment_5_v1,2023.2.2,Win32,84.74576271,,,,,,,,,,,,,,,,234.0074,235.3015,235.3015,236.0779,return,0.0015,,91.53645833,,,,,,FBP-YG-91.png,0.43,1.2,29,0.5,0,3,3,28,1,,,,,,,,,,,,,,,,,,,,,,,,,,,,,,,,,,,,,,,,
,,,,,V1_012,20,Male,2024-04-30_17h07.26.048,jersey_experiment_5_v1,2023.2.2,Win32,84.74576271,,,,,,,,,,,,,,,,236.0781,237.3722,237.3722,238.6192,return,0.1318,,55.20833333,,,,,,FBP-RB-17.png,0.35,1.2,46,0.5,0,4,4,45,1,,,,,,,,,,,,,,,,,,,,,,,,,,,,,,,,,,,,,,,,
,,,,,V1_012,20,Male,2024-04-30_17h07.26.048,jersey_experiment_5_v1,2023.2.2,Win32,84.74576271,,,,,,,,,,,,,,,,238.6194,239.9134,239.9134,241.7723,return,0.7561,,45.44270833,,,,,,FBP-OG-81.png,0.35,1.2,36,0.5,0,5,5,35,1,,,,,,,,,,,,,,,,,,,,,,,,,,,,,,,,,,,,,,,,
,,,,,V1_012,20,Male,2024-04-30_17h07.26.048,jersey_experiment_5_v1,2023.2.2,Win32,84.74576271,,,,,,,,,,,,,,,,241.7725,243.5727,243.5727,244.796,return,0.425,,84.765625,,,,,,FBP-PT-17.png,0.45,1.2,5,1,0,6,6,4,1,,,,,,,,,,,,,,,,,,,,,,,,,,,,,,,,,,,,,,,,
,,,,,V1_012,20,Male,2024-04-30_17h07.26.048,jersey_experiment_5_v1,2023.2.2,Win32,84.74576271,,,,,,,,,,,,,,,,244.7962,246.0903,246.0904,246.914,return,0.0952,,70.57291667,,,,,,FBP-RB-19.png,0.37,1.2,57,0.5,0,7,7,56,1,,,,,,,,,,,,,,,,,,,,,,,,,,,,,,,,,,,,,,,,
,,,,,V1_012,20,Male,2024-04-30_17h07.26.048,jersey_experiment_5_v1,2023.2.2,Win32,84.74576271,,,,,,,,,,,,,,,,246.9142,248.7139,248.7139,249.4197,return,0.132,,64.19270833,,,,,,FBP-PT-19.png,0.4,1.2,13,1,0,8,8,12,1,,,,,,,,,,,,,,,,,,,,,,,,,,,,,,,,,,,,,,,,
,,,,,V1_012,20,Male,2024-04-30_17h07.26.048,jersey_experiment_5_v1,2023.2.2,Win32,84.74576271,,,,,,,,,,,,,,,,249.4199,250.7138,250.7138,251.6549,return,0.1966,,95.3125,,,,,,FBP-YG-71.png,0.45,1.2,20,0.5,0,9,9,19,1,,,,,,,,,,,,,,,,,,,,,,,,,,,,,,,,,,,,,,,,
,,,,,V1_012,20,Male,2024-04-30_17h07.26.048,jersey_experiment_5_v1,2023.2.2,Win32,84.74576271,,,,,,,,,,,,,,,,251.6552,252.9491,252.9491,255.914,return,1.6764,,24.73958333,,,,,,FBP-OG-91.png,0.35,1.2,41,0.5,0,10,10,40,1,,,,,,,,,,,,,,,,,,,,,,,,,,,,,,,,,,,,,,,,
,,,,,V1_012,20,Male,2024-04-30_17h07.26.048,jersey_experiment_5_v1,2023.2.2,Win32,84.74576271,,,,,,,,,,,,,,,,255.9141,257.7143,257.7143,258.5259,return,0.1051,,26.82291667,,,,,,FBP-PT-17.png,0.4,1.2,3,1,0,11,11,2,1,,,,,,,,,,,,,,,,,,,,,,,,,,,,,,,,,,,,,,,,
,,,,,V1_012,20,Male,2024-04-30_17h07.26.048,jersey_experiment_5_v1,2023.2.2,Win32,84.74576271,,,,,,,,,,,,,,,,258.5261,259.82,259.82,261.6438,return,0.0724,,49.86979167,,,,,,FBP-YG-81.png,0.43,1.2,24,0.5,0,12,12,23,1,,,,,,,,,,,,,,,,,,,,,,,,,,,,,,,,,,,,,,,,
,,,,,V1_012,20,Male,2024-04-30_17h07.26.048,jersey_experiment_5_v1,2023.2.2,Win32,84.74576271,,,,,,,,,,,,,,,,261.644,262.938,262.938,263.5849,return,0.0572,,49.86979167,,,,,,FBP-RB-18.png,0.4,1.2,53,0.5,0,13,13,52,1,,,,,,,,,,,,,,,,,,,,,,,,,,,,,,,,,,,,,,,,
,,,,,V1_012,20,Male,2024-04-30_17h07.26.048,jersey_experiment_5_v1,2023.2.2,Win32,84.74576271,,,,,,,,,,,,,,,,263.5851,265.3852,265.3852,267.5969,return,0.0479,,76.69270833,,,,,,FBP-PT-18.png,0.45,1.2,10,1,0,14,14,9,1,,,,,,,,,,,,,,,,,,,,,,,,,,,,,,,,,,,,,,,,
,,,,,V1_012,20,Male,2024-04-30_17h07.26.048,jersey_experiment_5_v1,2023.2.2,Win32,84.74576271,,,,,,,,,,,,,,,,267.5971,268.8911,268.8911,270.7616,return,0.9706,,63.15104167,,,,,,FBP-YG-81.png,0.37,1.2,22,0.5,0,15,15,21,1,,,,,,,,,,,,,,,,,,,,,,,,,,,,,,,,,,,,,,,,
,,,,,V1_012,20,Male,2024-04-30_17h07.26.048,jersey_experiment_5_v1,2023.2.2,Win32,84.74576271,,,,,,,,,,,,,,,,270.7618,272.0557,272.0557,272.8325,return,0.0562,,57.16145833,,,,,,FBP-YG-71.png,0.37,1.2,17,0.5,0,16,16,16,1,,,,,,,,,,,,,,,,,,,,,,,,,,,,,,,,,,,,,,,,
,,,,,V1_012,20,Male,2024-04-30_17h07.26.048,jersey_experiment_5_v1,2023.2.2,Win32,84.74576271,,,,,,,,,,,,,,,,272.8326,274.1265,274.1266,274.7853,return,0.0578,,60.67708333,,,,,,FBP-RB-18.png,0.37,1.2,52,0.5,0,17,17,51,1,,,,,,,,,,,,,,,,,,,,,,,,,,,,,,,,,,,,,,,,
,,,,,V1_012,20,Male,2024-04-30_17h07.26.048,jersey_experiment_5_v1,2023.2.2,Win32,84.74576271,,,,,,,,,,,,,,,,274.7854,276.0796,276.0796,277.3383,return,0.1208,,72.00520833,,,,,,FBP-YG-81.png,0.4,1.2,23,0.5,0,18,18,22,1,,,,,,,,,,,,,,,,,,,,,,,,,,,,,,,,,,,,,,,,
,,,,,V1_012,20,Male,2024-04-30_17h07.26.048,jersey_experiment_5_v1,2023.2.2,Win32,84.74576271,,,,,,,,,,,,,,,,277.3385,278.6325,278.6325,279.5385,return,0.0944,,75.78125,,,,,,FBP-RB-17.png,0.43,1.2,49,0.5,0,19,19,48,1,,,,,,,,,,,,,,,,,,,,,,,,,,,,,,,,,,,,,,,,
,,,,,V1_012,20,Male,2024-04-30_17h07.26.048,jersey_experiment_5_v1,2023.2.2,Win32,84.74576271,,,,,,,,,,,,,,,,279.5388,280.8327,280.8328,283.1973,return,1.5905,,39.97395833,,,,,,FBP-RB-18.png,0.35,1.2,51,0.5,0,20,20,50,1,,,,,,,,,,,,,,,,,,,,,,,,,,,,,,,,,,,,,,,,
,,,,,V1_012,20,Male,2024-04-30_17h07.26.048,jersey_experiment_5_v1,2023.2.2,Win32,84.74576271,,,,,,,,,,,,,,,,283.1975,284.9975,284.9975,286.2095,return,0.1306,,31.11979167,,,,,,FBP-PT-18.png,0.35,1.2,6,1,0,21,21,5,1,,,,,,,,,,,,,,,,,,,,,,,,,,,,,,,,,,,,,,,,
,,,,,V1_012,20,Male,2024-04-30_17h07.26.048,jersey_experiment_5_v1,2023.2.2,Win32,84.74576271,,,,,,,,,,,,,,,,286.2098,287.5035,287.5035,288.6095,return,0.0943,,31.51041667,,,,,,FBP-OG-71.png,0.35,1.2,31,0.5,0,22,22,30,1,,,,,,,,,,,,,,,,,,,,,,,,,,,,,,,,,,,,,,,,
,,,,,V1_012,20,Male,2024-04-30_17h07.26.048,jersey_experiment_5_v1,2023.2.2,Win32,84.74576271,,,,,,,,,,,,,,,,288.6096,289.9036,289.9036,292.4448,return,1.3183,,71.35416667,,,,,,FBP-YG-81.png,0.45,1.2,25,0.5,0,23,23,24,1,,,,,,,,,,,,,,,,,,,,,,,,,,,,,,,,,,,,,,,,
,,,,,V1_012,20,Male,2024-04-30_17h07.26.048,jersey_experiment_5_v1,2023.2.2,Win32,84.74576271,,,,,,,,,,,,,,,,292.445,293.739,293.739,294.4567,return,0.1012,,83.33333333,,,,,,FBP-OG-81.png,0.45,1.2,40,0.5,0,24,24,39,1,,,,,,,,,,,,,,,,,,,,,,,,,,,,,,,,,,,,,,,,
,,,,,V1_012,20,Male,2024-04-30_17h07.26.048,jersey_experiment_5_v1,2023.2.2,Win32,84.74576271,,,,,,,,,,,,,,,,294.4569,295.7509,295.7509,296.845,return,0.4848,,78.77604167,,,,,,FBP-YG-91.png,0.4,1.2,28,0.5,0,25,25,27,1,,,,,,,,,,,,,,,,,,,,,,,,,,,,,,,,,,,,,,,,
,,,,,V1_012,20,Male,2024-04-30_17h07.26.048,jersey_experiment_5_v1,2023.2.2,Win32,84.74576271,,,,,,,,,,,,,,,,296.8452,298.645,298.645,299.2098,return,0.1471,,81.11979167,,,,,,FBP-PT-19.png,0.45,1.2,15,1,0,26,26,14,1,,,,,,,,,,,,,,,,,,,,,,,,,,,,,,,,,,,,,,,,
,,,,,V1_012,20,Male,2024-04-30_17h07.26.048,jersey_experiment_5_v1,2023.2.2,Win32,84.74576271,,,,,,,,,,,,,,,,299.21,301.0101,301.0101,303.4103,return,0.5645,,22.91666667,,,,,,FBP-PT-19.png,0.35,1.2,11,1,0,27,27,10,1,,,,,,,,,,,,,,,,,,,,,,,,,,,,,,,,,,,,,,,,
,,,,,V1_012,20,Male,2024-04-30_17h07.26.048,jersey_experiment_5_v1,2023.2.2,Win32,84.74576271,,,,,,,,,,,,,,,,303.4105,304.7041,304.7041,306.1396,return,0.0967,,22.265625,,,,,,FBP-YG-91.png,0.35,1.2,26,0.5,0,28,28,25,1,,,,,,,,,,,,,,,,,,,,,,,,,,,,,,,,,,,,,,,,
,,,,,V1_012,20,Male,2024-04-30_17h07.26.048,jersey_experiment_5_v1,2023.2.2,Win32,84.74576271,,,,,,,,,,,,,,,,306.1397,307.4336,307.4337,308.7747,return,0.1147,,49.609375,,,,,,FBP-OG-71.png,0.43,1.2,34,0.5,0,29,29,33,1,,,,,,,,,,,,,,,,,,,,,,,,,,,,,,,,,,,,,,,,
,,,,,V1_012,20,Male,2024-04-30_17h07.26.048,jersey_experiment_5_v1,2023.2.2,Win32,84.74576271,,,,,,,,,,,,,,,,308.7749,310.0693,310.0693,310.8573,return,0.1007,,50.78125,,,,,,FBP-RB-19.png,0.4,1.2,58,0.5,0,30,30,57,1,,,,,,,,,,,,,,,,,,,,,,,,,,,,,,,,,,,,,,,,
,,,,,V1_012,20,Male,2024-04-30_17h07.26.048,jersey_experiment_5_v1,2023.2.2,Win32,84.74576271,,,,,,,,,,,,,,,,310.8575,312.1514,312.1514,312.834,return,0.118,,57.29166667,,,,,,FBP-OG-81.png,0.43,1.2,39,0.5,0,31,31,38,1,,,,,,,,,,,,,,,,,,,,,,,,,,,,,,,,,,,,,,,,
,,,,,V1_012,20,Male,2024-04-30_17h07.26.048,jersey_experiment_5_v1,2023.2.2,Win32,84.74576271,,,,,,,,,,,,,,,,312.8342,314.6339,314.6339,316.5752,return,1.036,,44.53125,,,,,,FBP-PT-17.png,0.37,1.2,2,1,0,32,32,1,1,,,,,,,,,,,,,,,,,,,,,,,,,,,,,,,,,,,,,,,,
,,,,,V1_012,20,Male,2024-04-30_17h07.26.048,jersey_experiment_5_v1,2023.2.2,Win32,84.74576271,,,,,,,,,,,,,,,,316.5754,317.8694,317.8694,321.1282,return,0.147,,40.75520833,,,,,,FBP-OG-71.png,0.37,1.2,32,0.5,0,33,33,31,1,,,,,,,,,,,,,,,,,,,,,,,,,,,,,,,,,,,,,,,,
,,,,,V1_012,20,Male,2024-04-30_17h07.26.048,jersey_experiment_5_v1,2023.2.2,Win32,84.74576271,,,,,,,,,,,,,,,,321.1284,322.4224,322.4225,323.4225,return,0.0586,,70.05208333,,,,,,FBP-RB-17.png,0.4,1.2,48,0.5,0,34,34,47,1,,,,,,,,,,,,,,,,,,,,,,,,,,,,,,,,,,,,,,,,
,,,,,V1_012,20,Male,2024-04-30_17h07.26.048,jersey_experiment_5_v1,2023.2.2,Win32,84.74576271,,,,,,,,,,,,,,,,323.4228,324.7168,324.7168,326.1285,return,0.1042,,76.5625,,,,,,FBP-OG-71.png,0.4,1.2,33,0.5,0,35,35,32,1,,,,,,,,,,,,,,,,,,,,,,,,,,,,,,,,,,,,,,,,
,,,,,V1_012,20,Male,2024-04-30_17h07.26.048,jersey_experiment_5_v1,2023.2.2,Win32,84.74576271,,,,,,,,,,,,,,,,326.1287,327.4227,327.4227,328.3169,return,0.084,,82.29166667,,,,,,FBP-OG-91.png,0.4,1.2,43,0.5,0,36,36,42,1,,,,,,,,,,,,,,,,,,,,,,,,,,,,,,,,,,,,,,,,
,,,,,V1_012,20,Male,2024-04-30_17h07.26.048,jersey_experiment_5_v1,2023.2.2,Win32,84.74576271,,,,,,,,,,,,,,,,328.317,329.6108,329.6109,330.305,return,0.084,,91.27604167,,,,,,FBP-RB-19.png,0.43,1.2,59,0.5,0,37,37,58,1,,,,,,,,,,,,,,,,,,,,,,,,,,,,,,,,,,,,,,,,
,,,,,V1_012,20,Male,2024-04-30_17h07.26.048,jersey_experiment_5_v1,2023.2.2,Win32,84.74576271,,,,,,,,,,,,,,,,330.3053,331.5994,331.5994,332.5758,return,0.1051,,34.11458333,,,,,,FBP-RB-19.png,0.35,1.2,56,0.5,0,38,38,55,1,,,,,,,,,,,,,,,,,,,,,,,,,,,,,,,,,,,,,,,,
,,,,,V1_012,20,Male,2024-04-30_17h07.26.048,jersey_experiment_5_v1,2023.2.2,Win32,84.74576271,,,,,,,,,,,,,,,,332.5761,333.8699,333.87,335.9169,return,1.1657,,68.48958333,,,,,,FBP-OG-71.png,0.45,1.2,35,0.5,0,39,39,34,1,,,,,,,,,,,,,,,,,,,,,,,,,,,,,,,,,,,,,,,,
,,,,,V1_012,20,Male,2024-04-30_17h07.26.048,jersey_experiment_5_v1,2023.2.2,Win32,84.74576271,,,,,,,,,,,,,,,,335.917,337.2111,337.2111,338.4114,return,0.1218,,26.82291667,,,,,,FBP-OG-81.png,0.4,1.2,38,0.5,0,40,40,37,1,,,,,,,,,,,,,,,,,,,,,,,,,,,,,,,,,,,,,,,,
,,,,,V1_012,20,Male,2024-04-30_17h07.26.048,jersey_experiment_5_v1,2023.2.2,Win32,84.74576271,,,,,,,,,,,,,,,,338.4116,340.2113,340.2114,341.435,return,0.0871,,98.4375,,,,,,FBP-PT-19.png,0.43,1.2,14,1,0,41,41,13,1,,,,,,,,,,,,,,,,,,,,,,,,,,,,,,,,,,,,,,,,
,,,,,V1_012,20,Male,2024-04-30_17h07.26.048,jersey_experiment_5_v1,2023.2.2,Win32,84.74576271,,,,,,,,,,,,,,,,341.4352,342.7289,342.7289,343.4468,return,0.0653,,68.75,,,,,,FBP-RB-17.png,0.37,1.2,47,0.5,0,42,42,46,1,,,,,,,,,,,,,,,,,,,,,,,,,,,,,,,,,,,,,,,,
,,,,,V1_012,20,Male,2024-04-30_17h07.26.048,jersey_experiment_5_v1,2023.2.2,Win32,84.74576271,,,,,,,,,,,,,,,,343.4469,345.2469,345.2469,346.0586,return,0.1931,,79.94791667,,,,,,FBP-PT-18.png,0.4,1.2,8,1,0,43,43,7,1,,,,,,,,,,,,,,,,,,,,,,,,,,,,,,,,,,,,,,,,
,,,,,V1_012,20,Male,2024-04-30_17h07.26.048,jersey_experiment_5_v1,2023.2.2,Win32,84.74576271,,,,,,,,,,,,,,,,346.0588,347.8589,347.8589,348.7527,return,0.0945,,26.953125,,,,,,FBP-PT-19.png,0.37,1.2,12,1,0,44,44,11,1,,,,,,,,,,,,,,,,,,,,,,,,,,,,,,,,,,,,,,,,
,,,,,V1_012,20,Male,2024-04-30_17h07.26.048,jersey_experiment_5_v1,2023.2.2,Win32,84.74576271,,,,,,,,,,,,,,,,348.753,350.5529,350.5529,351.1295,return,0.0758,,16.40625,,,,,,FBP-PT-17.png,0.35,1.2,1,1,0,45,45,0,1,,,,,,,,,,,,,,,,,,,,,,,,,,,,,,,,,,,,,,,,
,,,,,V1_012,20,Male,2024-04-30_17h07.26.048,jersey_experiment_5_v1,2023.2.2,Win32,84.74576271,,,,,,,,,,,,,,,,351.1297,352.4235,352.4236,354.9767,return,1.6104,,93.88020833,,,,,,FBP-YG-91.png,0.45,1.2,30,0.5,0,46,46,29,1,,,,,,,,,,,,,,,,,,,,,,,,,,,,,,,,,,,,,,,,
,,,,,V1_012,20,Male,2024-04-30_17h07.26.048,jersey_experiment_5_v1,2023.2.2,Win32,84.74576271,,,,,,,,,,,,,,,,354.977,356.2708,356.2708,357.1533,return,0.3531,,97.65625,,,,,,FBP-RB-18.png,0.45,1.2,55,0.5,0,47,47,54,1,,,,,,,,,,,,,,,,,,,,,,,,,,,,,,,,,,,,,,,,
,,,,,V1_012,20,Male,2024-04-30_17h07.26.048,jersey_experiment_5_v1,2023.2.2,Win32,84.74576271,,,,,,,,,,,,,,,,357.1535,358.4474,358.4474,359.0473,return,0.1128,,95.96354167,,,,,,FBP-RB-17.png,0.45,1.2,50,0.5,0,48,48,49,1,,,,,,,,,,,,,,,,,,,,,,,,,,,,,,,,,,,,,,,,
,,,,,V1_012,20,Male,2024-04-30_17h07.26.048,jersey_experiment_5_v1,2023.2.2,Win32,84.74576271,,,,,,,,,,,,,,,,359.0476,360.3413,360.3414,362.9768,return,1.506,,60.80729167,,,,,,FBP-OG-91.png,0.37,1.2,42,0.5,0,49,49,41,1,,,,,,,,,,,,,,,,,,,,,,,,,,,,,,,,,,,,,,,,
,,,,,V1_012,20,Male,2024-04-30_17h07.26.048,jersey_experiment_5_v1,2023.2.2,Win32,84.74576271,,,,,,,,,,,,,,,,362.977,364.271,364.2711,365.2946,return,0.0609,,50.26041667,,,,,,FBP-OG-81.png,0.37,1.2,37,0.5,0,50,50,36,1,,,,,,,,,,,,,,,,,,,,,,,,,,,,,,,,,,,,,,,,
,,,,,V1_012,20,Male,2024-04-30_17h07.26.048,jersey_experiment_5_v1,2023.2.2,Win32,84.74576271,,,,,,,,,,,,,,,,365.2949,367.0948,367.0948,368.4713,return,0.7263,,25.13020833,,,,,,FBP-PT-18.png,0.37,1.2,7,1,0,51,51,6,1,,,,,,,,,,,,,,,,,,,,,,,,,,,,,,,,,,,,,,,,
,,,,,V1_012,20,Male,2024-04-30_17h07.26.048,jersey_experiment_5_v1,2023.2.2,Win32,84.74576271,,,,,,,,,,,,,,,,368.4715,369.7654,369.7654,370.5891,return,0.0142,,95.96354167,,,,,,FBP-RB-18.png,0.43,1.2,54,0.5,0,52,52,53,1,,,,,,,,,,,,,,,,,,,,,,,,,,,,,,,,,,,,,,,,
,,,,,V1_012,20,Male,2024-04-30_17h07.26.048,jersey_experiment_5_v1,2023.2.2,Win32,84.74576271,,,,,,,,,,,,,,,,370.5893,372.3889,372.3889,373.1772,return,0.1217,,95.57291667,,,,,,FBP-PT-17.png,0.43,1.2,4,1,0,53,53,3,1,,,,,,,,,,,,,,,,,,,,,,,,,,,,,,,,,,,,,,,,
,,,,,V1_012,20,Male,2024-04-30_17h07.26.048,jersey_experiment_5_v1,2023.2.2,Win32,84.74576271,,,,,,,,,,,,,,,,373.1775,374.4715,374.4715,375.3538,return,0.0532,,26.43229167,,,,,,FBP-YG-71.png,0.35,1.2,16,0.5,0,54,54,15,1,,,,,,,,,,,,,,,,,,,,,,,,,,,,,,,,,,,,,,,,
,,,,,V1_012,20,Male,2024-04-30_17h07.26.048,jersey_experiment_5_v1,2023.2.2,Win32,84.74576271,,,,,,,,,,,,,,,,375.3541,377.154,377.1541,377.801,return,0.0773,,95.18229167,,,,,,FBP-PT-18.png,0.43,1.2,9,1,0,55,55,8,1,,,,,,,,,,,,,,,,,,,,,,,,,,,,,,,,,,,,,,,,
,,,,,V1_012,20,Male,2024-04-30_17h07.26.048,jersey_experiment_5_v1,2023.2.2,Win32,84.74576271,,,,,,,,,,,,,,,,377.8013,379.095,379.0951,380.1071,return,0.0987,,26.43229167,,,,,,FBP-YG-81.png,0.35,1.2,21,0.5,0,56,56,20,1,,,,,,,,,,,,,,,,,,,,,,,,,,,,,,,,,,,,,,,,
,,,,,V1_012,20,Male,2024-04-30_17h07.26.048,jersey_experiment_5_v1,2023.2.2,Win32,84.74576271,,,,,,,,,,,,,,,,380.1073,381.4011,381.4011,382.3659,return,0.0585,,25.26041667,,,,,,FBP-YG-91.png,0.37,1.2,27,0.5,0,57,57,26,1,,,,,,,,,,,,,,,,,,,,,,,,,,,,,,,,,,,,,,,,
,,,,,V1_012,20,Male,2024-04-30_17h07.26.048,jersey_experiment_5_v1,2023.2.2,Win32,84.74576271,,,,,,,,,,,,,,,,382.3661,383.6599,383.66,384.7542,return,0.0611,,85.80729167,,,,,,FBP-YG-71.png,0.43,1.2,19,0.5,0,58,58,18,1,,,,,,,,,,,,,,,,,,,,,,,,,,,,,,,,,,,,,,,,
,,,,,V1_012,20,Male,2024-04-30_17h07.26.048,jersey_experiment_5_v1,2023.2.2,Win32,84.74576271,,,,,,,,,,,,,,,,384.7544,386.0487,386.0487,386.872,return,0.0903,,92.578125,,,,,,FBP-OG-91.png,0.45,1.2,45,0.5,0,59,59,44,1,,,,,,,,,,,,,,,,,,,,,,,,,,,,,,,,,,,,,,,,
,,,,,V1_012,20,Male,2024-04-30_17h07.26.048,jersey_experiment_5_v1,2023.2.2,Win32,84.74576271,,,,,,,,,,,,,,,,,,,,,,,,,,,,,,,,,,,,,,,386.8724,506.8768,,,,,,,,,,,,,,,,,,,,,,,,,,,,,,,,,,,,,,
,,,,,V1_012,20,Male,2024-04-30_17h07.26.048,jersey_experiment_5_v1,2023.2.2,Win32,84.74576271,,,,,,,,,,,,,,,,,,,,,,,,,,,,,,,,,,,,,,,,,506.877,508.4295,return,1.5431,,,,,,,,,,,,,,,,,,,,,,,,,,,,,,,,,,
,,,,,V1_012,20,Male,2024-04-30_17h07.26.048,jersey_experiment_5_v1,2023.2.2,Win32,84.74576271,,,,,,,,,,,,,,,,508.4356,510.2296,510.2296,513.2885,return,2.0876,,97.65625,,,,,,FBP-YG-19.png,0.45,1.2,30,1,,,,,,,,,,,,,0,0,0,29,1,,,,,,,,,,,,,,,,,,,,,,,,,,,,
,,,,,V1_012,20,Male,2024-04-30_17h07.26.048,jersey_experiment_5_v1,2023.2.2,Win32,84.74576271,,,,,,,,,,,,,,,,513.2888,515.0885,515.0885,516.112,return,0.1181,,74.21875,,,,,,FBP-YG-19.png,0.4,1.2,28,1,,,,,,,,,,,,,0,1,1,27,1,,,,,,,,,,,,,,,,,,,,,,,,,,,,
,,,,,V1_012,20,Male,2024-04-30_17h07.26.048,jersey_experiment_5_v1,2023.2.2,Win32,84.74576271,,,,,,,,,,,,,,,,516.1122,517.4061,517.4061,518.3591,return,0.1144,,24.21875,,,,,,FBP-PT-91.png,0.35,1.2,11,0.5,,,,,,,,,,,,,0,2,2,10,1,,,,,,,,,,,,,,,,,,,,,,,,,,,,
,,,,,V1_012,20,Male,2024-04-30_17h07.26.048,jersey_experiment_5_v1,2023.2.2,Win32,84.74576271,,,,,,,,,,,,,,,,518.3593,520.1596,520.1596,520.9827,return,0.0899,,99.21875,,,,,,FBP-OG-18.png,0.45,1.2,40,1,,,,,,,,,,,,,0,3,3,39,1,,,,,,,,,,,,,,,,,,,,,,,,,,,,
,,,,,V1_012,20,Male,2024-04-30_17h07.26.048,jersey_experiment_5_v1,2023.2.2,Win32,84.74576271,,,,,,,,,,,,,,,,520.983,522.7829,522.7829,523.3713,return,0.0739,,84.11458333,,,,,,FBP-YG-18.png,0.4,1.2,23,1,,,,,,,,,,,,,0,4,4,22,1,,,,,,,,,,,,,,,,,,,,,,,,,,,,
,,,,,V1_012,20,Male,2024-04-30_17h07.26.048,jersey_experiment_5_v1,2023.2.2,Win32,84.74576271,,,,,,,,,,,,,,,,523.3715,525.1712,525.1713,525.8654,return,0.0416,,95.3125,,,,,,FBP-OG-17.png,0.45,1.2,35,1,,,,,,,,,,,,,0,5,5,34,1,,,,,,,,,,,,,,,,,,,,,,,,,,,,
,,,,,V1_012,20,Male,2024-04-30_17h07.26.048,jersey_experiment_5_v1,2023.2.2,Win32,84.74576271,,,,,,,,,,,,,,,,525.8656,527.6655,527.6656,528.7832,return,0.1553,,57.94270833,,,,,,FBP-YG-18.png,0.35,1.2,21,1,,,,,,,,,,,,,0,6,6,20,1,,,,,,,,,,,,,,,,,,,,,,,,,,,,
,,,,,V1_012,20,Male,2024-04-30_17h07.26.048,jersey_experiment_5_v1,2023.2.2,Win32,84.74576271,,,,,,,,,,,,,,,,528.7835,530.0774,530.0775,531.1597,return,0.2416,,51.04166667,,,,,,FBP-PT-91.png,0.4,1.2,13,0.5,,,,,,,,,,,,,0,7,7,12,1,,,,,,,,,,,,,,,,,,,,,,,,,,,,
,,,,,V1_012,20,Male,2024-04-30_17h07.26.048,jersey_experiment_5_v1,2023.2.2,Win32,84.74576271,,,,,,,,,,,,,,,,531.16,532.4539,532.4539,533.4423,return,0.1414,,48.30729167,,,,,,FBP-PT-71.png,0.37,1.2,2,0.5,,,,,,,,,,,,,0,8,8,1,1,,,,,,,,,,,,,,,,,,,,,,,,,,,,
,,,,,V1_012,20,Male,2024-04-30_17h07.26.048,jersey_experiment_5_v1,2023.2.2,Win32,84.74576271,,,,,,,,,,,,,,,,533.4425,535.2422,535.2422,535.9835,return,0.0604,,49.609375,,,,,,FBP-RB-81.png,0.37,1.2,52,1,,,,,,,,,,,,,0,9,9,51,1,,,,,,,,,,,,,,,,,,,,,,,,,,,,
,,,,,V1_012,20,Male,2024-04-30_17h07.26.048,jersey_experiment_5_v1,2023.2.2,Win32,84.74576271,,,,,,,,,,,,,,,,535.9837,537.7835,537.7835,538.5364,return,0.1345,,96.35416667,,,,,,FBP-RB-91.png,0.45,1.2,60,1,,,,,,,,,,,,,0,10,10,59,1,,,,,,,,,,,,,,,,,,,,,,,,,,,,
,,,,,V1_012,20,Male,2024-04-30_17h07.26.048,jersey_experiment_5_v1,2023.2.2,Win32,84.74576271,,,,,,,,,,,,,,,,538.5366,540.3367,540.3367,541.5836,return,0.0945,,86.97916667,,,,,,FBP-OG-18.png,0.4,1.2,38,1,,,,,,,,,,,,,0,11,11,37,1,,,,,,,,,,,,,,,,,,,,,,,,,,,,
,,,,,V1_012,20,Male,2024-04-30_17h07.26.048,jersey_experiment_5_v1,2023.2.2,Win32,84.74576271,,,,,,,,,,,,,,,,541.5839,543.3838,543.3838,544.066,return,0.0336,,50,,,,,,FBP-YG-18.png,0.37,1.2,22,1,,,,,,,,,,,,,0,12,12,21,1,,,,,,,,,,,,,,,,,,,,,,,,,,,,
,,,,,V1_012,20,Male,2024-04-30_17h07.26.048,jersey_experiment_5_v1,2023.2.2,Win32,84.74576271,,,,,,,,,,,,,,,,544.0663,545.8662,545.8662,546.8662,return,0.0472,,89.97395833,,,,,,FBP-RB-81.png,0.45,1.2,55,1,,,,,,,,,,,,,0,13,13,54,1,,,,,,,,,,,,,,,,,,,,,,,,,,,,
,,,,,V1_012,20,Male,2024-04-30_17h07.26.048,jersey_experiment_5_v1,2023.2.2,Win32,84.74576271,,,,,,,,,,,,,,,,546.8664,548.6664,548.6665,549.3722,return,0.0965,,27.34375,,,,,,FBP-OG-17.png,0.35,1.2,31,1,,,,,,,,,,,,,0,14,14,30,1,,,,,,,,,,,,,,,,,,,,,,,,,,,,
,,,,,V1_012,20,Male,2024-04-30_17h07.26.048,jersey_experiment_5_v1,2023.2.2,Win32,84.74576271,,,,,,,,,,,,,,,,549.3722,551.1722,551.1722,552.2077,return,0.0576,,92.1875,,,,,,FBP-RB-81.png,0.43,1.2,54,1,,,,,,,,,,,,,0,15,15,53,1,,,,,,,,,,,,,,,,,,,,,,,,,,,,
,,,,,V1_012,20,Male,2024-04-30_17h07.26.048,jersey_experiment_5_v1,2023.2.2,Win32,84.74576271,,,,,,,,,,,,,,,,552.2078,554.0077,554.0077,555.3255,return,0.2494,,89.84375,,,,,,FBP-OG-18.png,0.43,1.2,39,1,,,,,,,,,,,,,0,16,16,38,1,,,,,,,,,,,,,,,,,,,,,,,,,,,,
,,,,,V1_012,20,Male,2024-04-30_17h07.26.048,jersey_experiment_5_v1,2023.2.2,Win32,84.74576271,,,,,,,,,,,,,,,,555.3256,556.6194,556.6194,557.6078,return,0.1233,,73.046875,,,,,,FBP-PT-91.png,0.37,1.2,12,0.5,,,,,,,,,,,,,0,17,17,11,1,,,,,,,,,,,,,,,,,,,,,,,,,,,,
,,,,,V1_012,20,Male,2024-04-30_17h07.26.048,jersey_experiment_5_v1,2023.2.2,Win32,84.74576271,,,,,,,,,,,,,,,,557.6081,559.4076,559.4077,559.9019,return,0.0491,,95.44270833,,,,,,FBP-YG-18.png,0.43,1.2,24,1,,,,,,,,,,,,,0,18,18,23,1,,,,,,,,,,,,,,,,,,,,,,,,,,,,
,,,,,V1_012,20,Male,2024-04-30_17h07.26.048,jersey_experiment_5_v1,2023.2.2,Win32,84.74576271,,,,,,,,,,,,,,,,559.9021,561.1961,561.1961,561.8078,return,0.0473,,95.703125,,,,,,FBP-PT-81.png,0.43,1.2,9,0.5,,,,,,,,,,,,,0,19,19,8,1,,,,,,,,,,,,,,,,,,,,,,,,,,,,
,,,,,V1_012,20,Male,2024-04-30_17h07.26.048,jersey_experiment_5_v1,2023.2.2,Win32,84.74576271,,,,,,,,,,,,,,,,561.808,563.6081,563.6082,564.008,return,0.0194,,73.17708333,,,,,,FBP-OG-17.png,0.4,1.2,33,1,,,,,,,,,,,,,0,20,20,32,1,,,,,,,,,,,,,,,,,,,,,,,,,,,,
,,,,,V1_012,20,Male,2024-04-30_17h07.26.048,jersey_experiment_5_v1,2023.2.2,Win32,84.74576271,,,,,,,,,,,,,,,,564.0082,565.8082,565.8083,567.408,return,0.9506,,94.66145833,,,,,,FBP-RB-91.png,0.43,1.2,59,1,,,,,,,,,,,,,0,21,21,58,1,,,,,,,,,,,,,,,,,,,,,,,,,,,,
,,,,,V1_012,20,Male,2024-04-30_17h07.26.048,jersey_experiment_5_v1,2023.2.2,Win32,84.74576271,,,,,,,,,,,,,,,,567.4082,569.2082,569.2082,569.773,return,0.0957,,83.203125,,,,,,FBP-YG-19.png,0.37,1.2,27,1,,,,,,,,,,,,,0,22,22,26,1,,,,,,,,,,,,,,,,,,,,,,,,,,,,
,,,,,V1_012,20,Male,2024-04-30_17h07.26.048,jersey_experiment_5_v1,2023.2.2,Win32,84.74576271,,,,,,,,,,,,,,,,569.7732,571.5731,571.5731,572.138,return,0.039,,29.94791667,,,,,,FBP-OG-18.png,0.35,1.2,36,1,,,,,,,,,,,,,0,23,23,35,1,,,,,,,,,,,,,,,,,,,,,,,,,,,,
,,,,,V1_012,20,Male,2024-04-30_17h07.26.048,jersey_experiment_5_v1,2023.2.2,Win32,84.74576271,,,,,,,,,,,,,,,,572.1381,573.938,573.938,575.1613,return,0.6398,,79.94791667,,,,,,FBP-RB-91.png,0.4,1.2,58,1,,,,,,,,,,,,,0,24,24,57,1,,,,,,,,,,,,,,,,,,,,,,,,,,,,
,,,,,V1_012,20,Male,2024-04-30_17h07.26.048,jersey_experiment_5_v1,2023.2.2,Win32,84.74576271,,,,,,,,,,,,,,,,575.1616,576.9613,576.9614,577.5852,return,0.0711,,26.69270833,,,,,,FBP-OG-18.png,0.37,1.2,37,1,,,,,,,,,,,,,0,25,25,36,1,,,,,,,,,,,,,,,,,,,,,,,,,,,,
,,,,,V1_012,20,Male,2024-04-30_17h07.26.048,jersey_experiment_5_v1,2023.2.2,Win32,84.74576271,,,,,,,,,,,,,,,,577.5855,578.8791,578.8791,579.6321,return,0.1181,,79.16666667,,,,,,FBP-PT-91.png,0.45,1.2,15,0.5,,,,,,,,,,,,,0,26,26,14,1,,,,,,,,,,,,,,,,,,,,,,,,,,,,
,,,,,V1_012,20,Male,2024-04-30_17h07.26.048,jersey_experiment_5_v1,2023.2.2,Win32,84.74576271,,,,,,,,,,,,,,,,579.6323,581.4321,581.4322,583.1619,return,0.2869,,98.4375,,,,,,FBP-OG-19.png,0.43,1.2,44,1,,,,,,,,,,,,,0,27,27,43,1,,,,,,,,,,,,,,,,,,,,,,,,,,,,
,,,,,V1_012,20,Male,2024-04-30_17h07.26.048,jersey_experiment_5_v1,2023.2.2,Win32,84.74576271,,,,,,,,,,,,,,,,583.162,584.9619,584.9619,586.1031,return,0.5244,,20.83333333,,,,,,FBP-YG-19.png,0.35,1.2,26,1,,,,,,,,,,,,,0,28,28,25,1,,,,,,,,,,,,,,,,,,,,,,,,,,,,
,,,,,V1_012,20,Male,2024-04-30_17h07.26.048,jersey_experiment_5_v1,2023.2.2,Win32,84.74576271,,,,,,,,,,,,,,,,586.1032,587.9029,587.903,588.8443,return,0.5318,,23.95833333,,,,,,FBP-RB-91.png,0.37,1.2,57,1,,,,,,,,,,,,,0,29,29,56,1,,,,,,,,,,,,,,,,,,,,,,,,,,,,
,,,,,V1_012,20,Male,2024-04-30_17h07.26.048,jersey_experiment_5_v1,2023.2.2,Win32,84.74576271,,,,,,,,,,,,,,,,588.8445,590.6445,590.6445,592.6796,return,0.8647,,51.82291667,,,,,,FBP-RB-71.png,0.4,1.2,48,1,,,,,,,,,,,,,0,30,30,47,1,,,,,,,,,,,,,,,,,,,,,,,,,,,,
,,,,,V1_012,20,Male,2024-04-30_17h07.26.048,jersey_experiment_5_v1,2023.2.2,Win32,84.74576271,,,,,,,,,,,,,,,,592.6798,593.9738,593.9738,594.668,return,0.0862,,28.125,,,,,,FBP-PT-81.png,0.35,1.2,6,0.5,,,,,,,,,,,,,0,31,31,5,1,,,,,,,,,,,,,,,,,,,,,,,,,,,,
,,,,,V1_012,20,Male,2024-04-30_17h07.26.048,jersey_experiment_5_v1,2023.2.2,Win32,84.74576271,,,,,,,,,,,,,,,,594.6683,595.9621,595.9621,597.633,return,0.0943,,33.33333333,,,,,,FBP-PT-81.png,0.4,1.2,8,0.5,,,,,,,,,,,,,0,32,32,7,1,,,,,,,,,,,,,,,,,,,,,,,,,,,,
,,,,,V1_012,20,Male,2024-04-30_17h07.26.048,jersey_experiment_5_v1,2023.2.2,Win32,84.74576271,,,,,,,,,,,,,,,,597.6333,599.4329,599.4329,600.0801,return,0.1173,,78.64583333,,,,,,FBP-RB-71.png,0.45,1.2,50,1,,,,,,,,,,,,,0,33,33,49,1,,,,,,,,,,,,,,,,,,,,,,,,,,,,
,,,,,V1_012,20,Male,2024-04-30_17h07.26.048,jersey_experiment_5_v1,2023.2.2,Win32,84.74576271,,,,,,,,,,,,,,,,600.0803,601.88,601.88,603.3273,return,0.4371,,38.41145833,,,,,,FBP-OG-19.png,0.35,1.2,41,1,,,,,,,,,,,,,0,34,34,40,1,,,,,,,,,,,,,,,,,,,,,,,,,,,,
,,,,,V1_012,20,Male,2024-04-30_17h07.26.048,jersey_experiment_5_v1,2023.2.2,Win32,84.74576271,,,,,,,,,,,,,,,,603.3275,605.127,605.127,605.5861,return,0.0708,,50.65104167,,,,,,FBP-YG-17.png,0.37,1.2,17,1,,,,,,,,,,,,,0,35,35,16,1,,,,,,,,,,,,,,,,,,,,,,,,,,,,
,,,,,V1_012,20,Male,2024-04-30_17h07.26.048,jersey_experiment_5_v1,2023.2.2,Win32,84.74576271,,,,,,,,,,,,,,,,605.5863,606.8802,606.8802,608.6096,return,1.0685,,87.5,,,,,,FBP-PT-71.png,0.45,1.2,5,0.5,,,,,,,,,,,,,0,36,36,4,1,,,,,,,,,,,,,,,,,,,,,,,,,,,,
,,,,,V1_012,20,Male,2024-04-30_17h07.26.048,jersey_experiment_5_v1,2023.2.2,Win32,84.74576271,,,,,,,,,,,,,,,,608.6099,610.4098,610.4098,611.2568,return,0.0425,,88.15104167,,,,,,FBP-RB-81.png,0.35,1.2,51,1,,,,,,,,,,,,,0,37,37,50,1,,,,,,,,,,,,,,,,,,,,,,,,,,,,
,,,,,V1_012,20,Male,2024-04-30_17h07.26.048,jersey_experiment_5_v1,2023.2.2,Win32,84.74576271,,,,,,,,,,,,,,,,611.257,613.0569,613.0569,613.9865,return,0.5177,,63.80208333,,,,,,FBP-RB-71.png,0.35,1.2,46,1,,,,,,,,,,,,,0,38,38,45,1,,,,,,,,,,,,,,,,,,,,,,,,,,,,
,,,,,V1_012,20,Male,2024-04-30_17h07.26.048,jersey_experiment_5_v1,2023.2.2,Win32,84.74576271,,,,,,,,,,,,,,,,613.9867,615.7863,615.7863,616.3511,return,0.152,,58.33333333,,,,,,FBP-OG-19.png,0.4,1.2,43,1,,,,,,,,,,,,,0,39,39,42,1,,,,,,,,,,,,,,,,,,,,,,,,,,,,
,,,,,V1_012,20,Male,2024-04-30_17h07.26.048,jersey_experiment_5_v1,2023.2.2,Win32,84.74576271,,,,,,,,,,,,,,,,616.3513,618.1512,618.1512,618.716,return,0.1099,,52.86458333,,,,,,FBP-RB-91.png,0.35,1.2,56,1,,,,,,,,,,,,,0,40,40,55,1,,,,,,,,,,,,,,,,,,,,,,,,,,,,
,,,,,V1_012,20,Male,2024-04-30_17h07.26.048,jersey_experiment_5_v1,2023.2.2,Win32,84.74576271,,,,,,,,,,,,,,,,618.7162,620.516,620.516,621.2806,return,0.0838,,60.28645833,,,,,,FBP-RB-71.png,0.37,1.2,47,1,,,,,,,,,,,,,0,41,41,46,1,,,,,,,,,,,,,,,,,,,,,,,,,,,,
,,,,,V1_012,20,Male,2024-04-30_17h07.26.048,jersey_experiment_5_v1,2023.2.2,Win32,84.74576271,,,,,,,,,,,,,,,,621.2809,622.5749,622.575,623.6456,return,0.0493,,89.71354167,,,,,,FBP-PT-91.png,0.43,1.2,14,0.5,,,,,,,,,,,,,0,42,42,13,1,,,,,,,,,,,,,,,,,,,,,,,,,,,,
,,,,,V1_012,20,Male,2024-04-30_17h07.26.048,jersey_experiment_5_v1,2023.2.2,Win32,84.74576271,,,,,,,,,,,,,,,,623.6458,625.4455,625.4457,626.3749,return,0.4325,,93.22916667,,,,,,FBP-OG-19.png,0.45,1.2,45,1,,,,,,,,,,,,,0,43,43,44,1,,,,,,,,,,,,,,,,,,,,,,,,,,,,
,,,,,V1_012,20,Male,2024-04-30_17h07.26.048,jersey_experiment_5_v1,2023.2.2,Win32,84.74576271,,,,,,,,,,,,,,,,626.375,628.1751,628.1751,628.7045,return,0.1413,,94.01041667,,,,,,FBP-OG-17.png,0.43,1.2,34,1,,,,,,,,,,,,,0,44,44,33,1,,,,,,,,,,,,,,,,,,,,,,,,,,,,
,,,,,V1_012,20,Male,2024-04-30_17h07.26.048,jersey_experiment_5_v1,2023.2.2,Win32,84.74576271,,,,,,,,,,,,,,,,628.7048,630.5045,630.5045,631.34,return,0.2487,,93.48958333,,,,,,FBP-RB-71.png,0.43,1.2,49,1,,,,,,,,,,,,,0,45,45,48,1,,,,,,,,,,,,,,,,,,,,,,,,,,,,
,,,,,V1_012,20,Male,2024-04-30_17h07.26.048,jersey_experiment_5_v1,2023.2.2,Win32,84.74576271,,,,,,,,,,,,,,,,631.3402,633.14,633.14,633.5752,return,0.0788,,93.48958333,,,,,,FBP-YG-19.png,0.43,1.2,29,1,,,,,,,,,,,,,0,46,46,28,1,,,,,,,,,,,,,,,,,,,,,,,,,,,,
,,,,,V1_012,20,Male,2024-04-30_17h07.26.048,jersey_experiment_5_v1,2023.2.2,Win32,84.74576271,,,,,,,,,,,,,,,,633.5755,634.8694,634.8694,636.1518,return,0.4667,,71.875,,,,,,FBP-PT-81.png,0.37,1.2,7,0.5,,,,,,,,,,,,,0,47,47,6,1,,,,,,,,,,,,,,,,,,,,,,,,,,,,
,,,,,V1_012,20,Male,2024-04-30_17h07.26.048,jersey_experiment_5_v1,2023.2.2,Win32,84.74576271,,,,,,,,,,,,,,,,636.1521,637.446,637.446,638.1872,return,0.1454,,69.40104167,,,,,,FBP-PT-71.png,0.35,1.2,1,0.5,,,,,,,,,,,,,0,48,48,0,1,,,,,,,,,,,,,,,,,,,,,,,,,,,,
,,,,,V1_012,20,Male,2024-04-30_17h07.26.048,jersey_experiment_5_v1,2023.2.2,Win32,84.74576271,,,,,,,,,,,,,,,,638.1875,639.4814,639.4814,640.764,return,0.7216,,91.66666667,,,,,,FBP-PT-71.png,0.43,1.2,4,0.5,,,,,,,,,,,,,0,49,49,3,1,,,,,,,,,,,,,,,,,,,,,,,,,,,,
,,,,,V1_012,20,Male,2024-04-30_17h07.26.048,jersey_experiment_5_v1,2023.2.2,Win32,84.74576271,,,,,,,,,,,,,,,,640.7642,642.5637,642.5638,643.2579,return,0.1353,,91.14583333,,,,,,FBP-RB-81.png,0.4,1.2,53,1,,,,,,,,,,,,,0,50,50,52,1,,,,,,,,,,,,,,,,,,,,,,,,,,,,
,,,,,V1_012,20,Male,2024-04-30_17h07.26.048,jersey_experiment_5_v1,2023.2.2,Win32,84.74576271,,,,,,,,,,,,,,,,643.2581,645.058,645.058,645.5757,return,0.1126,,90.75520833,,,,,,FBP-YG-17.png,0.43,1.2,19,1,,,,,,,,,,,,,0,51,51,18,1,,,,,,,,,,,,,,,,,,,,,,,,,,,,
,,,,,V1_012,20,Male,2024-04-30_17h07.26.048,jersey_experiment_5_v1,2023.2.2,Win32,84.74576271,,,,,,,,,,,,,,,,645.5759,646.8699,646.8699,647.9524,return,0.1178,,99.47916667,,,,,,FBP-PT-81.png,0.45,1.2,10,0.5,,,,,,,,,,,,,0,52,52,9,1,,,,,,,,,,,,,,,,,,,,,,,,,,,,
,,,,,V1_012,20,Male,2024-04-30_17h07.26.048,jersey_experiment_5_v1,2023.2.2,Win32,84.74576271,,,,,,,,,,,,,,,,647.9526,649.7525,649.7525,650.3171,return,0.0473,,75.13020833,,,,,,FBP-OG-19.png,0.37,1.2,42,1,,,,,,,,,,,,,0,53,53,41,1,,,,,,,,,,,,,,,,,,,,,,,,,,,,
,,,,,V1_012,20,Male,2024-04-30_17h07.26.048,jersey_experiment_5_v1,2023.2.2,Win32,84.74576271,,,,,,,,,,,,,,,,650.3173,652.1171,652.1172,652.623,return,0.1306,,91.66666667,,,,,,FBP-YG-18.png,0.45,1.2,25,1,,,,,,,,,,,,,0,54,54,24,1,,,,,,,,,,,,,,,,,,,,,,,,,,,,
,,,,,V1_012,20,Male,2024-04-30_17h07.26.048,jersey_experiment_5_v1,2023.2.2,Win32,84.74576271,,,,,,,,,,,,,,,,652.6232,653.9175,653.9175,654.8586,return,0.0642,,48.17708333,,,,,,FBP-PT-71.png,0.4,1.2,3,0.5,,,,,,,,,,,,,0,55,55,2,1,,,,,,,,,,,,,,,,,,,,,,,,,,,,
,,,,,V1_012,20,Male,2024-04-30_17h07.26.048,jersey_experiment_5_v1,2023.2.2,Win32,84.74576271,,,,,,,,,,,,,,,,654.8588,656.6586,656.6587,657.2587,return,0.0514,,28.38541667,,,,,,FBP-YG-17.png,0.35,1.2,16,1,,,,,,,,,,,,,0,56,56,15,1,,,,,,,,,,,,,,,,,,,,,,,,,,,,
,,,,,V1_012,20,Male,2024-04-30_17h07.26.048,jersey_experiment_5_v1,2023.2.2,Win32,84.74576271,,,,,,,,,,,,,,,,657.2589,659.0588,659.0588,659.7059,return,0.1358,,21.484375,,,,,,FBP-OG-17.png,0.37,1.2,32,1,,,,,,,,,,,,,0,57,57,31,1,,,,,,,,,,,,,,,,,,,,,,,,,,,,
,,,,,V1_012,20,Male,2024-04-30_17h07.26.048,jersey_experiment_5_v1,2023.2.2,Win32,84.74576271,,,,,,,,,,,,,,,,659.7061,661.5058,661.5058,662.5765,return,0.4009,,48.828125,,,,,,FBP-YG-17.png,0.4,1.2,18,1,,,,,,,,,,,,,0,58,58,17,1,,,,,,,,,,,,,,,,,,,,,,,,,,,,
,,,,,V1_012,20,Male,2024-04-30_17h07.26.048,jersey_experiment_5_v1,2023.2.2,Win32,84.74576271,,,,,,,,,,,,,,,,662.5768,664.3764,664.3764,665.3295,return,0.3672,,97.39583333,,,,,,FBP-YG-17.png,0.45,1.2,20,1,,,,,,,,,,,,,0,59,59,19,1,,,,,,,,,,,,,,,,,,,,,,,,,,,,
,,,,,V1_012,20,Male,2024-04-30_17h07.26.048,jersey_experiment_5_v1,2023.2.2,Win32,84.74576271,,,,,,,,,,,,,,,,665.3314,667.1296,667.1296,667.6942,return,0.1295,,96.35416667,,,,,,FBP-OG-81.png,0.43,1.2,39,1,,,,,,,,,,,,,,,,,,0,0,0,38,1,,,,,,,,,,,,,,,,,,,,,,,
,,,,,V1_012,20,Male,2024-04-30_17h07.26.048,jersey_experiment_5_v1,2023.2.2,Win32,84.74576271,,,,,,,,,,,,,,,,667.6945,668.9885,668.9885,669.6001,return,0.0806,,94.01041667,,,,,,FBP-PT-19.png,0.43,1.2,14,0.5,,,,,,,,,,,,,,,,,,0,1,1,13,1,,,,,,,,,,,,,,,,,,,,,,,
,,,,,V1_012,20,Male,2024-04-30_17h07.26.048,jersey_experiment_5_v1,2023.2.2,Win32,84.74576271,,,,,,,,,,,,,,,,669.6003,671.4004,671.4004,672.0005,return,0.0812,,55.078125,,,,,,FBP-YG-71.png,0.4,1.2,18,1,,,,,,,,,,,,,,,,,,0,2,2,17,1,,,,,,,,,,,,,,,,,,,,,,,
,,,,,V1_012,20,Male,2024-04-30_17h07.26.048,jersey_experiment_5_v1,2023.2.2,Win32,84.74576271,,,,,,,,,,,,,,,,672.0006,673.8005,673.8005,674.3181,return,0.1179,,91.92708333,,,,,,FBP-RB-17.png,0.45,1.2,50,1,,,,,,,,,,,,,,,,,,0,3,3,49,1,,,,,,,,,,,,,,,,,,,,,,,
,,,,,V1_012,20,Male,2024-04-30_17h07.26.048,jersey_experiment_5_v1,2023.2.2,Win32,84.74576271,,,,,,,,,,,,,,,,674.3183,676.1181,676.1181,676.7062,return,0.0944,,96.35416667,,,,,,FBP-YG-81.png,0.45,1.2,25,1,,,,,,,,,,,,,,,,,,0,4,4,24,1,,,,,,,,,,,,,,,,,,,,,,,
,,,,,V1_012,20,Male,2024-04-30_17h07.26.048,jersey_experiment_5_v1,2023.2.2,Win32,84.74576271,,,,,,,,,,,,,,,,676.7063,678.5064,678.5064,679.3887,return,0.0737,,95.83333333,,,,,,FBP-RB-17.png,0.43,1.2,49,1,,,,,,,,,,,,,,,,,,0,5,5,48,1,,,,,,,,,,,,,,,,,,,,,,,
,,,,,V1_012,20,Male,2024-04-30_17h07.26.048,jersey_experiment_5_v1,2023.2.2,Win32,84.74576271,,,,,,,,,,,,,,,,679.389,681.1889,681.1889,681.9653,return,0.085,,98.4375,,,,,,FBP-RB-18.png,0.43,1.2,54,1,,,,,,,,,,,,,,,,,,0,6,6,53,1,,,,,,,,,,,,,,,,,,,,,,,
,,,,,V1_012,20,Male,2024-04-30_17h07.26.048,jersey_experiment_5_v1,2023.2.2,Win32,84.74576271,,,,,,,,,,,,,,,,681.9654,683.2594,683.2594,683.9303,return,0.0525,,98.046875,,,,,,FBP-PT-18.png,0.4,1.2,8,0.5,,,,,,,,,,,,,,,,,,0,7,7,7,1,,,,,,,,,,,,,,,,,,,,,,,
,,,,,V1_012,20,Male,2024-04-30_17h07.26.048,jersey_experiment_5_v1,2023.2.2,Win32,84.74576271,,,,,,,,,,,,,,,,683.9304,685.7304,685.7304,686.401,return,0.1652,,84.765625,,,,,,FBP-OG-91.png,0.43,1.2,44,1,,,,,,,,,,,,,,,,,,0,8,8,43,1,,,,,,,,,,,,,,,,,,,,,,,
,,,,,V1_012,20,Male,2024-04-30_17h07.26.048,jersey_experiment_5_v1,2023.2.2,Win32,84.74576271,,,,,,,,,,,,,,,,686.4012,688.201,688.2011,688.7188,return,0.0704,,75.78125,,,,,,FBP-YG-91.png,0.4,1.2,28,1,,,,,,,,,,,,,,,,,,0,9,9,27,1,,,,,,,,,,,,,,,,,,,,,,,
,,,,,V1_012,20,Male,2024-04-30_17h07.26.048,jersey_experiment_5_v1,2023.2.2,Win32,84.74576271,,,,,,,,,,,,,,,,688.7191,690.5188,690.5188,691.0363,return,0.0269,,97.52604167,,,,,,FBP-YG-81.png,0.43,1.2,24,1,,,,,,,,,,,,,,,,,,0,10,10,23,1,,,,,,,,,,,,,,,,,,,,,,,
,,,,,V1_012,20,Male,2024-04-30_17h07.26.048,jersey_experiment_5_v1,2023.2.2,Win32,84.74576271,,,,,,,,,,,,,,,,691.0367,692.8365,692.8366,693.5305,return,0.0758,,97.13541667,,,,,,FBP-OG-81.png,0.4,1.2,38,1,,,,,,,,,,,,,,,,,,0,11,11,37,1,,,,,,,,,,,,,,,,,,,,,,,
,,,,,V1_012,20,Male,2024-04-30_17h07.26.048,jersey_experiment_5_v1,2023.2.2,Win32,84.74576271,,,,,,,,,,,,,,,,693.5307,695.3306,695.3307,696.1544,return,0.0741,,54.42708333,,,,,,FBP-YG-91.png,0.37,1.2,27,1,,,,,,,,,,,,,,,,,,0,12,12,26,1,,,,,,,,,,,,,,,,,,,,,,,
,,,,,V1_012,20,Male,2024-04-30_17h07.26.048,jersey_experiment_5_v1,2023.2.2,Win32,84.74576271,,,,,,,,,,,,,,,,696.1545,697.9543,697.9543,698.5426,return,0.1296,,57.8125,,,,,,FBP-RB-17.png,0.37,1.2,47,1,,,,,,,,,,,,,,,,,,0,13,13,46,1,,,,,,,,,,,,,,,,,,,,,,,
,,,,,V1_012,20,Male,2024-04-30_17h07.26.048,jersey_experiment_5_v1,2023.2.2,Win32,84.74576271,,,,,,,,,,,,,,,,698.5429,700.3425,700.3425,702.0248,return,0.6988,,63.671875,,,,,,FBP-OG-71.png,0.37,1.2,32,1,,,,,,,,,,,,,,,,,,0,14,14,31,1,,,,,,,,,,,,,,,,,,,,,,,
,,,,,V1_012,20,Male,2024-04-30_17h07.26.048,jersey_experiment_5_v1,2023.2.2,Win32,84.74576271,,,,,,,,,,,,,,,,702.025,703.319,703.319,703.9191,return,0.0841,,28.77604167,,,,,,FBP-PT-19.png,0.37,1.2,12,0.5,,,,,,,,,,,,,,,,,,0,15,15,11,1,,,,,,,,,,,,,,,,,,,,,,,
,,,,,V1_012,20,Male,2024-04-30_17h07.26.048,jersey_experiment_5_v1,2023.2.2,Win32,84.74576271,,,,,,,,,,,,,,,,703.9193,705.7192,705.7192,706.331,return,0.1086,,34.50520833,,,,,,FBP-OG-71.png,0.43,1.2,34,1,,,,,,,,,,,,,,,,,,0,16,16,33,1,,,,,,,,,,,,,,,,,,,,,,,
,,,,,V1_012,20,Male,2024-04-30_17h07.26.048,jersey_experiment_5_v1,2023.2.2,Win32,84.74576271,,,,,,,,,,,,,,,,706.3313,708.1313,708.1313,709.0959,return,0.4432,,87.76041667,,,,,,FBP-YG-71.png,0.45,1.2,20,1,,,,,,,,,,,,,,,,,,0,17,17,19,1,,,,,,,,,,,,,,,,,,,,,,,
,,,,,V1_012,20,Male,2024-04-30_17h07.26.048,jersey_experiment_5_v1,2023.2.2,Win32,84.74576271,,,,,,,,,,,,,,,,709.0961,710.8959,710.896,712.4018,return,0.9885,,96.74479167,,,,,,FBP-OG-71.png,0.45,1.2,35,1,,,,,,,,,,,,,,,,,,0,18,18,34,1,,,,,,,,,,,,,,,,,,,,,,,
,,,,,V1_012,20,Male,2024-04-30_17h07.26.048,jersey_experiment_5_v1,2023.2.2,Win32,84.74576271,,,,,,,,,,,,,,,,712.4021,714.2018,714.2018,714.9431,return,0.0714,,90.75520833,,,,,,FBP-RB-19.png,0.43,1.2,59,1,,,,,,,,,,,,,,,,,,0,19,19,58,1,,,,,,,,,,,,,,,,,,,,,,,
,,,,,V1_012,20,Male,2024-04-30_17h07.26.048,jersey_experiment_5_v1,2023.2.2,Win32,84.74576271,,,,,,,,,,,,,,,,714.9432,716.7432,716.7432,717.6022,return,0.1417,,63.54166667,,,,,,FBP-OG-71.png,0.35,1.2,31,1,,,,,,,,,,,,,,,,,,0,20,20,30,1,,,,,,,,,,,,,,,,,,,,,,,
,,,,,V1_012,20,Male,2024-04-30_17h07.26.048,jersey_experiment_5_v1,2023.2.2,Win32,84.74576271,,,,,,,,,,,,,,,,717.6024,719.402,719.402,720.8612,return,0.1794,,67.05729167,,,,,,FBP-OG-91.png,0.35,1.2,41,1,,,,,,,,,,,,,,,,,,0,21,21,40,1,,,,,,,,,,,,,,,,,,,,,,,
,,,,,V1_012,20,Male,2024-04-30_17h07.26.048,jersey_experiment_5_v1,2023.2.2,Win32,84.74576271,,,,,,,,,,,,,,,,720.8614,722.6611,722.6611,723.4966,return,0.1374,,47.00520833,,,,,,FBP-RB-18.png,0.35,1.2,51,1,,,,,,,,,,,,,,,,,,0,22,22,50,1,,,,,,,,,,,,,,,,,,,,,,,
,,,,,V1_012,20,Male,2024-04-30_17h07.26.048,jersey_experiment_5_v1,2023.2.2,Win32,84.74576271,,,,,,,,,,,,,,,,723.4968,725.2963,725.2963,726.2024,return,0.3337,,48.17708333,,,,,,FBP-YG-71.png,0.37,1.2,17,1,,,,,,,,,,,,,,,,,,0,23,23,16,1,,,,,,,,,,,,,,,,,,,,,,,
,,,,,V1_012,20,Male,2024-04-30_17h07.26.048,jersey_experiment_5_v1,2023.2.2,Win32,84.74576271,,,,,,,,,,,,,,,,726.2026,728.0026,728.0026,729.0379,return,0.4256,,58.203125,,,,,,FBP-RB-19.png,0.45,1.2,60,1,,,,,,,,,,,,,,,,,,0,24,24,59,1,,,,,,,,,,,,,,,,,,,,,,,
,,,,,V1_012,20,Male,2024-04-30_17h07.26.048,jersey_experiment_5_v1,2023.2.2,Win32,84.74576271,,,,,,,,,,,,,,,,729.038,730.3318,730.3319,732.0262,return,0.9095,,32.94270833,,,,,,FBP-PT-17.png,0.37,1.2,2,0.5,,,,,,,,,,,,,,,,,,0,25,25,1,1,,,,,,,,,,,,,,,,,,,,,,,
,,,,,V1_012,20,Male,2024-04-30_17h07.26.048,jersey_experiment_5_v1,2023.2.2,Win32,84.74576271,,,,,,,,,,,,,,,,732.0264,733.3203,733.3203,734.4261,return,0.4761,,39.97395833,,,,,,FBP-PT-17.png,0.43,1.2,4,0.5,,,,,,,,,,,,,,,,,,0,26,26,3,1,,,,,,,,,,,,,,,,,,,,,,,
,,,,,V1_012,20,Male,2024-04-30_17h07.26.048,jersey_experiment_5_v1,2023.2.2,Win32,84.74576271,,,,,,,,,,,,,,,,734.4263,736.2265,736.2265,736.7206,return,0.0618,,18.09895833,,,,,,FBP-RB-17.png,0.35,1.2,46,1,,,,,,,,,,,,,,,,,,0,27,27,45,1,,,,,,,,,,,,,,,,,,,,,,,
,,,,,V1_012,20,Male,2024-04-30_17h07.26.048,jersey_experiment_5_v1,2023.2.2,Win32,84.74576271,,,,,,,,,,,,,,,,736.7209,738.5204,738.5204,739.2499,return,0.2461,,26.43229167,,,,,,FBP-OG-71.png,0.4,1.2,33,1,,,,,,,,,,,,,,,,,,0,28,28,32,1,,,,,,,,,,,,,,,,,,,,,,,
,,,,,V1_012,20,Male,2024-04-30_17h07.26.048,jersey_experiment_5_v1,2023.2.2,Win32,84.74576271,,,,,,,,,,,,,,,,739.2501,740.544,740.544,741.4266,return,0.0952,,14.58333333,,,,,,FBP-PT-18.png,0.35,1.2,6,0.5,,,,,,,,,,,,,,,,,,0,29,29,5,1,,,,,,,,,,,,,,,,,,,,,,,
,,,,,V1_012,20,Male,2024-04-30_17h07.26.048,jersey_experiment_5_v1,2023.2.2,Win32,84.74576271,,,,,,,,,,,,,,,,741.4267,742.7208,742.7208,744.3208,return,0.2817,,66.796875,,,,,,FBP-PT-17.png,0.45,1.2,5,0.5,,,,,,,,,,,,,,,,,,0,30,30,4,1,,,,,,,,,,,,,,,,,,,,,,,
,,,,,V1_012,20,Male,2024-04-30_17h07.26.048,jersey_experiment_5_v1,2023.2.2,Win32,84.74576271,,,,,,,,,,,,,,,,744.321,746.1208,746.1208,746.7208,return,0.0619,,70.3125,,,,,,FBP-RB-19.png,0.37,1.2,57,1,,,,,,,,,,,,,,,,,,0,31,31,56,1,,,,,,,,,,,,,,,,,,,,,,,
,,,,,V1_012,20,Male,2024-04-30_17h07.26.048,jersey_experiment_5_v1,2023.2.2,Win32,84.74576271,,,,,,,,,,,,,,,,746.7211,748.5209,748.5209,749.7563,return,0.684,,44.140625,,,,,,FBP-YG-71.png,0.35,1.2,16,1,,,,,,,,,,,,,,,,,,0,32,32,15,1,,,,,,,,,,,,,,,,,,,,,,,
,,,,,V1_012,20,Male,2024-04-30_17h07.26.048,jersey_experiment_5_v1,2023.2.2,Win32,84.74576271,,,,,,,,,,,,,,,,749.7565,751.0505,751.0505,751.7445,return,0.0801,,38.41145833,,,,,,FBP-PT-17.png,0.4,1.2,3,0.5,,,,,,,,,,,,,,,,,,0,33,33,2,1,,,,,,,,,,,,,,,,,,,,,,,
,,,,,V1_012,20,Male,2024-04-30_17h07.26.048,jersey_experiment_5_v1,2023.2.2,Win32,84.74576271,,,,,,,,,,,,,,,,751.7447,753.0389,753.0389,754.2977,return,0.4035,,50.13020833,,,,,,FBP-PT-18.png,0.43,1.2,9,0.5,,,,,,,,,,,,,,,,,,0,34,34,8,1,,,,,,,,,,,,,,,,,,,,,,,
,,,,,V1_012,20,Male,2024-04-30_17h07.26.048,jersey_experiment_5_v1,2023.2.2,Win32,84.74576271,,,,,,,,,,,,,,,,754.2979,756.0977,756.0977,756.686,return,0.1195,,79.94791667,,,,,,FBP-OG-91.png,0.45,1.2,45,1,,,,,,,,,,,,,,,,,,0,35,35,44,1,,,,,,,,,,,,,,,,,,,,,,,
,,,,,V1_012,20,Male,2024-04-30_17h07.26.048,jersey_experiment_5_v1,2023.2.2,Win32,84.74576271,,,,,,,,,,,,,,,,756.6862,758.486,758.486,758.9683,return,0.1018,,88.15104167,,,,,,FBP-OG-81.png,0.45,1.2,40,1,,,,,,,,,,,,,,,,,,0,36,36,39,1,,,,,,,,,,,,,,,,,,,,,,,
,,,,,V1_012,20,Male,2024-04-30_17h07.26.048,jersey_experiment_5_v1,2023.2.2,Win32,84.74576271,,,,,,,,,,,,,,,,758.9685,760.7686,760.7686,761.3683,return,0.0408,,39.453125,,,,,,FBP-RB-19.png,0.35,1.2,56,1,,,,,,,,,,,,,,,,,,0,37,37,55,1,,,,,,,,,,,,,,,,,,,,,,,
,,,,,V1_012,20,Male,2024-04-30_17h07.26.048,jersey_experiment_5_v1,2023.2.2,Win32,84.74576271,,,,,,,,,,,,,,,,761.3685,762.6625,762.6625,763.5449,return,0.2625,,44.27083333,,,,,,FBP-PT-19.png,0.4,1.2,13,0.5,,,,,,,,,,,,,,,,,,0,38,38,12,1,,,,,,,,,,,,,,,,,,,,,,,
,,,,,V1_012,20,Male,2024-04-30_17h07.26.048,jersey_experiment_5_v1,2023.2.2,Win32,84.74576271,,,,,,,,,,,,,,,,763.5452,765.345,765.345,766.3333,return,0.0367,,25.52083333,,,,,,FBP-OG-81.png,0.35,1.2,36,1,,,,,,,,,,,,,,,,,,0,39,39,35,1,,,,,,,,,,,,,,,,,,,,,,,
,,,,,V1_012,20,Male,2024-04-30_17h07.26.048,jersey_experiment_5_v1,2023.2.2,Win32,84.74576271,,,,,,,,,,,,,,,,766.3335,767.6274,767.6274,768.792,return,0.57,,47.78645833,,,,,,FBP-PT-19.png,0.45,1.2,15,0.5,,,,,,,,,,,,,,,,,,0,40,40,14,1,,,,,,,,,,,,,,,,,,,,,,,
,,,,,V1_012,20,Male,2024-04-30_17h07.26.048,jersey_experiment_5_v1,2023.2.2,Win32,84.74576271,,,,,,,,,,,,,,,,768.7922,770.5921,770.5922,771.3688,return,0.394,,73.4375,,,,,,FBP-YG-71.png,0.43,1.2,19,1,,,,,,,,,,,,,,,,,,0,41,41,18,1,,,,,,,,,,,,,,,,,,,,,,,
,,,,,V1_012,20,Male,2024-04-30_17h07.26.048,jersey_experiment_5_v1,2023.2.2,Win32,84.74576271,,,,,,,,,,,,,,,,771.3689,772.6627,772.6627,774.5101,return,0.7197,,26.171875,,,,,,FBP-PT-19.png,0.35,1.2,11,0.5,,,,,,,,,,,,,,,,,,0,42,42,10,1,,,,,,,,,,,,,,,,,,,,,,,
,,,,,V1_012,20,Male,2024-04-30_17h07.26.048,jersey_experiment_5_v1,2023.2.2,Win32,84.74576271,,,,,,,,,,,,,,,,774.5103,776.3101,776.3101,777.0515,return,0.0872,,73.17708333,,,,,,FBP-OG-81.png,0.37,1.2,37,1,,,,,,,,,,,,,,,,,,0,43,43,36,1,,,,,,,,,,,,,,,,,,,,,,,
,,,,,V1_012,20,Male,2024-04-30_17h07.26.048,jersey_experiment_5_v1,2023.2.2,Win32,84.74576271,,,,,,,,,,,,,,,,777.0517,778.8513,778.8513,779.4517,return,0.0975,,49.609375,,,,,,FBP-RB-18.png,0.37,1.2,52,1,,,,,,,,,,,,,,,,,,0,44,44,51,1,,,,,,,,,,,,,,,,,,,,,,,
,,,,,V1_012,20,Male,2024-04-30_17h07.26.048,jersey_experiment_5_v1,2023.2.2,Win32,84.74576271,,,,,,,,,,,,,,,,779.4518,781.2513,781.2513,782.0986,return,0.0708,,63.93229167,,,,,,FBP-RB-19.png,0.4,1.2,58,1,,,,,,,,,,,,,,,,,,0,45,45,57,1,,,,,,,,,,,,,,,,,,,,,,,
,,,,,V1_012,20,Male,2024-04-30_17h07.26.048,jersey_experiment_5_v1,2023.2.2,Win32,84.74576271,,,,,,,,,,,,,,,,782.0988,783.8988,783.8988,784.7223,return,0.0944,,43.09895833,,,,,,FBP-YG-91.png,0.35,1.2,26,1,,,,,,,,,,,,,,,,,,0,46,46,25,1,,,,,,,,,,,,,,,,,,,,,,,
,,,,,V1_012,20,Male,2024-04-30_17h07.26.048,jersey_experiment_5_v1,2023.2.2,Win32,84.74576271,,,,,,,,,,,,,,,,784.7226,786.5222,786.5222,788.1693,return,0.924,,71.35416667,,,,,,FBP-YG-91.png,0.43,1.2,29,1,,,,,,,,,,,,,,,,,,0,47,47,28,1,,,,,,,,,,,,,,,,,,,,,,,
,,,,,V1_012,20,Male,2024-04-30_17h07.26.048,jersey_experiment_5_v1,2023.2.2,Win32,84.74576271,,,,,,,,,,,,,,,,788.1696,789.9697,789.9697,790.9577,return,0.4615,,63.80208333,,,,,,FBP-RB-18.png,0.4,1.2,53,1,,,,,,,,,,,,,,,,,,0,48,48,52,1,,,,,,,,,,,,,,,,,,,,,,,
,,,,,V1_012,20,Male,2024-04-30_17h07.26.048,jersey_experiment_5_v1,2023.2.2,Win32,84.74576271,,,,,,,,,,,,,,,,790.9579,792.2518,792.2518,795.7931,return,2.8943,,25.390625,,,,,,FBP-PT-17.png,0.35,1.2,1,0.5,,,,,,,,,,,,,,,,,,0,49,49,0,1,,,,,,,,,,,,,,,,,,,,,,,
,,,,,V1_012,20,Male,2024-04-30_17h07.26.048,jersey_experiment_5_v1,2023.2.2,Win32,84.74576271,,,,,,,,,,,,,,,,795.7933,797.5934,797.5934,798.3462,return,0.0882,,27.47395833,,,,,,FBP-YG-81.png,0.35,1.2,21,1,,,,,,,,,,,,,,,,,,0,50,50,20,1,,,,,,,,,,,,,,,,,,,,,,,
,,,,,V1_012,20,Male,2024-04-30_17h07.26.048,jersey_experiment_5_v1,2023.2.2,Win32,84.74576271,,,,,,,,,,,,,,,,798.3465,799.6406,799.6406,801.6759,return,0.5221,,64.71354167,,,,,,FBP-PT-18.png,0.45,1.2,10,0.5,,,,,,,,,,,,,,,,,,0,51,51,9,1,,,,,,,,,,,,,,,,,,,,,,,
,,,,,V1_012,20,Male,2024-04-30_17h07.26.048,jersey_experiment_5_v1,2023.2.2,Win32,84.74576271,,,,,,,,,,,,,,,,801.676,803.476,803.476,803.9701,return,0.0845,,48.828125,,,,,,FBP-RB-17.png,0.4,1.2,48,1,,,,,,,,,,,,,,,,,,0,52,52,47,1,,,,,,,,,,,,,,,,,,,,,,,
,,,,,V1_012,20,Male,2024-04-30_17h07.26.048,jersey_experiment_5_v1,2023.2.2,Win32,84.74576271,,,,,,,,,,,,,,,,803.9704,805.7699,805.77,806.7346,return,0.0245,,51.43229167,,,,,,FBP-YG-81.png,0.37,1.2,22,1,,,,,,,,,,,,,,,,,,0,53,53,21,1,,,,,,,,,,,,,,,,,,,,,,,
,,,,,V1_012,20,Male,2024-04-30_17h07.26.048,jersey_experiment_5_v1,2023.2.2,Win32,84.74576271,,,,,,,,,,,,,,,,806.7348,808.5349,808.5349,809.229,return,0.3191,,51.5625,,,,,,FBP-YG-81.png,0.4,1.2,23,1,,,,,,,,,,,,,,,,,,0,54,54,22,1,,,,,,,,,,,,,,,,,,,,,,,
,,,,,V1_012,20,Male,2024-04-30_17h07.26.048,jersey_experiment_5_v1,2023.2.2,Win32,84.74576271,,,,,,,,,,,,,,,,809.2292,811.029,811.029,812.5703,return,0.509,,70.3125,,,,,,FBP-OG-91.png,0.4,1.2,43,1,,,,,,,,,,,,,,,,,,0,55,55,42,1,,,,,,,,,,,,,,,,,,,,,,,
,,,,,V1_012,20,Male,2024-04-30_17h07.26.048,jersey_experiment_5_v1,2023.2.2,Win32,84.74576271,,,,,,,,,,,,,,,,812.5704,814.3705,814.3706,814.8409,return,0.1225,,83.46354167,,,,,,FBP-RB-18.png,0.45,1.2,55,1,,,,,,,,,,,,,,,,,,0,56,56,54,1,,,,,,,,,,,,,,,,,,,,,,,
,,,,,V1_012,20,Male,2024-04-30_17h07.26.048,jersey_experiment_5_v1,2023.2.2,Win32,84.74576271,,,,,,,,,,,,,,,,814.8412,816.1352,816.1352,816.7821,return,0.1054,,77.08333333,,,,,,FBP-PT-18.png,0.37,1.2,7,0.5,,,,,,,,,,,,,,,,,,0,57,57,6,1,,,,,,,,,,,,,,,,,,,,,,,
,,,,,V1_012,20,Male,2024-04-30_17h07.26.048,jersey_experiment_5_v1,2023.2.2,Win32,84.74576271,,,,,,,,,,,,,,,,816.7823,818.5824,818.5824,819.2764,return,0.0844,,86.71875,,,,,,FBP-YG-91.png,0.45,1.2,30,1,,,,,,,,,,,,,,,,,,0,58,58,29,1,,,,,,,,,,,,,,,,,,,,,,,
,,,,,V1_012,20,Male,2024-04-30_17h07.26.048,jersey_experiment_5_v1,2023.2.2,Win32,84.74576271,,,,,,,,,,,,,,,,819.2766,821.0766,821.0766,821.5707,return,0.1174,,58.203125,,,,,,FBP-OG-91.png,0.37,1.2,42,1,,,,,,,,,,,,,,,,,,0,59,59,41,1,,,,,,,,,,,,,,,,,,,,,,,
,,,,,V1_012,20,Male,2024-04-30_17h07.26.048,jersey_experiment_5_v1,2023.2.2,Win32,84.74576271,,,,,,,,,,,,,,,,,,,,,,,,,,,,,,,,,,,,,,,,,,,,,,,,,,,,,,,,821.5711,825.2416,return,3.6653,,,,,,,,,,,,,,,,,,,
,,,,,V1_012,20,Male,2024-04-30_17h07.26.048,jersey_experiment_5_v1,2023.2.2,Win32,84.74576271,,,,,,,,,,,,,,,,,,,,,,,,,,,,,,,,,,,,,,,,,,,,,,,,,,,,,,,,,,,,,825.2418,828.1239,1,2.145,return,0.7194,,,,,,,,,,,,
,,,,,V1_012,20,Male,2024-04-30_17h07.26.048,jersey_experiment_5_v1,2023.2.2,Win32,84.74576271,,,,,,,,,,,,,,,,,,,,,,,,,,,,,,,,,,,,,,,,,,,,,,,,,,,,,,,,,,,,,,,,,,,,828.1241,928.3325,"I am not sure what the study was entirely about. I am assuming that the study had to do with analyzing how focused the participant is on the body type of the body and how it can lead to the participant not focusing on patterns and such. I did not find any big patterns because I was so hyperfocused trying to understand whether the fball player was husky, slender, or neutral. ",right,92.9973,,,,,,
,,,,,V1_012,20,Male,2024-04-30_17h07.26.048,jersey_experiment_5_v1,2023.2.2,Win32,84.74576271,,,,,,,,,,,,,,,,,,,,,,,,,,,,,,,,,,,,,,,,,,,,,,,,,,,,,,,,,,,,,,,,,,,,,,,,,,928.3326,931.3278,return,2.9828,