requirements.started,requirements.stopped,key_resp_3.keys,key_resp_3.rt,key_resp_3.duration,Subject ID,Age,Gender,date,expName,psychopyVersion,OS,frameRate,instructions1.started,instructions1.stopped,key_resp.keys,key_resp.rt,key_resp.duration,example.started,example.stopped,enter_2.keys,enter_2.rt,enter_2.duration,instructions2.started,instructions2.stopped,enter_3.keys,enter_3.rt,enter_3.duration,image.started,image.stopped,slider_2.started,slider_2.stopped,next.keys,next.rt,next.duration,slider.response,trial_block_1.thisRepN,trial_block_1.thisTrialN,trial_block_1.thisN,trial_block_1.thisIndex,trial_block_1.ran,Path,Width,Height,Index,Duration,trial_block_2.thisRepN,trial_block_2.thisTrialN,trial_block_2.thisN,trial_block_2.thisIndex,trial_block_2.ran,rest_break.started,rest_break.stopped,end_break.started,end_break.stopped,key_resp_5.keys,key_resp_5.rt,key_resp_5.duration,trial_block_3.thisRepN,trial_block_3.thisTrialN,trial_block_3.thisN,trial_block_3.thisIndex,trial_block_3.ran,trial_block_4.thisRepN,trial_block_4.thisTrialN,trial_block_4.thisN,trial_block_4.thisIndex,trial_block_4.ran,questions_intro.started,questions_intro.stopped,enter_12.keys,enter_12.rt,enter_12.duration,question2.started,question2.stopped,question_doingbest.response,question_doingbest.rt,enter_15.keys,enter_15.rt,enter_15.duration,pattern.started,pattern.stopped,pattern_2.text,enter_17.keys,enter_17.rt,enter_17.duration,thankyou.started,thankyou.stopped,enter_14.keys,enter_14.rt,enter_14.duration
1E-04,15.2691,return,15.2616,,V1_006,18,male,2024-04-29_15h01.47.592,jersey_experiment_5_v1,2023.2.2,Win32,85.47008547,,,,,,,,,,,,,,,,,,,,,,,,,,,,,,,,,,,,,,,,,,,,,,,,,,,,,,,,,,,,,,,,,,,,,,,,,,,,,,
,,,,,V1_006,18,male,2024-04-29_15h01.47.592,jersey_experiment_5_v1,2023.2.2,Win32,85.47008547,15.2693,22.0994,return,6.8218,,,,,,,,,,,,,,,,,,,,,,,,,,,,,,,,,,,,,,,,,,,,,,,,,,,,,,,,,,,,,,,,,,,,,,,,,,
,,,,,V1_006,18,male,2024-04-29_15h01.47.592,jersey_experiment_5_v1,2023.2.2,Win32,85.47008547,,,,,,22.0995,27.6879,return,5.5527,,,,,,,,,,,,,,,,,,,,,,,,,,,,,,,,,,,,,,,,,,,,,,,,,,,,,,,,,,,,,,,,,,,,,
,,,,,V1_006,18,male,2024-04-29_15h01.47.592,jersey_experiment_5_v1,2023.2.2,Win32,85.47008547,,,,,,,,,,,27.688,41.6414,return,13.9387,,,,,,,,,,,,,,,,,,,,,,,,,,,,,,,,,,,,,,,,,,,,,,,,,,,,,,,,,,,,,,,,
,,,,,V1_006,18,male,2024-04-29_15h01.47.592,jersey_experiment_5_v1,2023.2.2,Win32,85.47008547,,,,,,,,,,,,,,,,41.6485,42.9471,42.9472,49.0181,return,1.2933,,51.30208333,0,0,0,20,1,FBP-YG-18.png,0.35,1.2,21,0.5,,,,,,,,,,,,,,,,,,,,,,,,,,,,,,,,,,,,,,,,,,,,,
,,,,,V1_006,18,male,2024-04-29_15h01.47.592,jersey_experiment_5_v1,2023.2.2,Win32,85.47008547,,,,,,,,,,,,,,,,49.0184,50.8178,50.8179,52.2651,return,0.2598,,16.92708333,0,1,1,5,1,FBP-PT-81.png,0.35,1.2,6,1,,,,,,,,,,,,,,,,,,,,,,,,,,,,,,,,,,,,,,,,,,,,,
,,,,,V1_006,18,male,2024-04-29_15h01.47.592,jersey_experiment_5_v1,2023.2.2,Win32,85.47008547,,,,,,,,,,,,,,,,52.2653,53.5591,53.5592,55.1946,return,0.2924,,82.03125,0,2,2,27,1,FBP-YG-19.png,0.4,1.2,28,0.5,,,,,,,,,,,,,,,,,,,,,,,,,,,,,,,,,,,,,,,,,,,,,
,,,,,V1_006,18,male,2024-04-29_15h01.47.592,jersey_experiment_5_v1,2023.2.2,Win32,85.47008547,,,,,,,,,,,,,,,,55.1948,56.9946,56.9946,58.1591,return,0.0557,,33.07291667,0,3,3,10,1,FBP-PT-91.png,0.35,1.2,11,1,,,,,,,,,,,,,,,,,,,,,,,,,,,,,,,,,,,,,,,,,,,,,
,,,,,V1_006,18,male,2024-04-29_15h01.47.592,jersey_experiment_5_v1,2023.2.2,Win32,85.47008547,,,,,,,,,,,,,,,,58.1594,59.4534,59.4534,60.1593,return,0.0649,,56.640625,0,4,4,46,1,FBP-RB-71.png,0.37,1.2,47,0.5,,,,,,,,,,,,,,,,,,,,,,,,,,,,,,,,,,,,,,,,,,,,,
,,,,,V1_006,18,male,2024-04-29_15h01.47.592,jersey_experiment_5_v1,2023.2.2,Win32,85.47008547,,,,,,,,,,,,,,,,60.1595,61.9595,61.9595,63.2417,return,0.128,,94.01041667,0,5,5,12,1,FBP-PT-91.png,0.4,1.2,13,1,,,,,,,,,,,,,,,,,,,,,,,,,,,,,,,,,,,,,,,,,,,,,
,,,,,V1_006,18,male,2024-04-29_15h01.47.592,jersey_experiment_5_v1,2023.2.2,Win32,85.47008547,,,,,,,,,,,,,,,,63.2419,64.5358,64.5359,65.4301,return,0.0723,,86.97916667,0,6,6,21,1,FBP-YG-18.png,0.37,1.2,22,0.5,,,,,,,,,,,,,,,,,,,,,,,,,,,,,,,,,,,,,,,,,,,,,
,,,,,V1_006,18,male,2024-04-29_15h01.47.592,jersey_experiment_5_v1,2023.2.2,Win32,85.47008547,,,,,,,,,,,,,,,,65.4303,66.7242,66.7243,67.4774,return,0.0729,,86.97916667,0,7,7,22,1,FBP-YG-18.png,0.4,1.2,23,0.5,,,,,,,,,,,,,,,,,,,,,,,,,,,,,,,,,,,,,,,,,,,,,
,,,,,V1_006,18,male,2024-04-29_15h01.47.592,jersey_experiment_5_v1,2023.2.2,Win32,85.47008547,,,,,,,,,,,,,,,,67.4776,68.7714,68.7714,70.3126,return,0.3661,,72.78645833,0,8,8,25,1,FBP-YG-19.png,0.35,1.2,26,0.5,,,,,,,,,,,,,,,,,,,,,,,,,,,,,,,,,,,,,,,,,,,,,
,,,,,V1_006,18,male,2024-04-29_15h01.47.592,jersey_experiment_5_v1,2023.2.2,Win32,85.47008547,,,,,,,,,,,,,,,,70.3129,71.6068,71.6069,72.6893,return,0.0994,,97.13541667,0,9,9,48,1,FBP-RB-71.png,0.43,1.2,49,0.5,,,,,,,,,,,,,,,,,,,,,,,,,,,,,,,,,,,,,,,,,,,,,
,,,,,V1_006,18,male,2024-04-29_15h01.47.592,jersey_experiment_5_v1,2023.2.2,Win32,85.47008547,,,,,,,,,,,,,,,,72.6895,73.9833,73.9833,74.9483,return,0.2745,,85.67708333,0,10,10,33,1,FBP-OG-17.png,0.43,1.2,34,0.5,,,,,,,,,,,,,,,,,,,,,,,,,,,,,,,,,,,,,,,,,,,,,
,,,,,V1_006,18,male,2024-04-29_15h01.47.592,jersey_experiment_5_v1,2023.2.2,Win32,85.47008547,,,,,,,,,,,,,,,,74.9485,76.2423,76.2423,78.7247,return,0.7327,,84.11458333,0,11,11,23,1,FBP-YG-18.png,0.43,1.2,24,0.5,,,,,,,,,,,,,,,,,,,,,,,,,,,,,,,,,,,,,,,,,,,,,
,,,,,V1_006,18,male,2024-04-29_15h01.47.592,jersey_experiment_5_v1,2023.2.2,Win32,85.47008547,,,,,,,,,,,,,,,,78.725,80.5248,80.5249,81.8425,return,0.3228,,88.28125,0,12,12,4,1,FBP-PT-71.png,0.45,1.2,5,1,,,,,,,,,,,,,,,,,,,,,,,,,,,,,,,,,,,,,,,,,,,,,
,,,,,V1_006,18,male,2024-04-29_15h01.47.592,jersey_experiment_5_v1,2023.2.2,Win32,85.47008547,,,,,,,,,,,,,,,,81.8426,83.1367,83.1367,84.4548,return,0.179,,68.359375,0,13,13,45,1,FBP-RB-71.png,0.35,1.2,46,0.5,,,,,,,,,,,,,,,,,,,,,,,,,,,,,,,,,,,,,,,,,,,,,
,,,,,V1_006,18,male,2024-04-29_15h01.47.592,jersey_experiment_5_v1,2023.2.2,Win32,85.47008547,,,,,,,,,,,,,,,,84.4551,85.7486,85.7486,87.0075,return,0.1967,,51.43229167,0,14,14,36,1,FBP-OG-18.png,0.37,1.2,37,0.5,,,,,,,,,,,,,,,,,,,,,,,,,,,,,,,,,,,,,,,,,,,,,
,,,,,V1_006,18,male,2024-04-29_15h01.47.592,jersey_experiment_5_v1,2023.2.2,Win32,85.47008547,,,,,,,,,,,,,,,,87.0077,88.8075,88.8075,89.7961,return,0.19,,36.45833333,0,15,15,0,1,FBP-PT-71.png,0.35,1.2,1,1,,,,,,,,,,,,,,,,,,,,,,,,,,,,,,,,,,,,,,,,,,,,,
,,,,,V1_006,18,male,2024-04-29_15h01.47.592,jersey_experiment_5_v1,2023.2.2,Win32,85.47008547,,,,,,,,,,,,,,,,89.7962,91.5957,91.5957,92.69,return,0.1926,,62.890625,0,16,16,6,1,FBP-PT-81.png,0.37,1.2,7,1,,,,,,,,,,,,,,,,,,,,,,,,,,,,,,,,,,,,,,,,,,,,,
,,,,,V1_006,18,male,2024-04-29_15h01.47.592,jersey_experiment_5_v1,2023.2.2,Win32,85.47008547,,,,,,,,,,,,,,,,92.6902,93.9842,93.9842,94.8549,return,0.1553,,61.328125,0,17,17,16,1,FBP-YG-17.png,0.37,1.2,17,0.5,,,,,,,,,,,,,,,,,,,,,,,,,,,,,,,,,,,,,,,,,,,,,
,,,,,V1_006,18,male,2024-04-29_15h01.47.592,jersey_experiment_5_v1,2023.2.2,Win32,85.47008547,,,,,,,,,,,,,,,,94.8551,96.6547,96.6548,99.7138,return,0.1947,,25,0,18,18,1,1,FBP-PT-71.png,0.37,1.2,2,1,,,,,,,,,,,,,,,,,,,,,,,,,,,,,,,,,,,,,,,,,,,,,
,,,,,V1_006,18,male,2024-04-29_15h01.47.592,jersey_experiment_5_v1,2023.2.2,Win32,85.47008547,,,,,,,,,,,,,,,,99.714,101.0079,101.0079,102.6905,return,0.1452,,74.86979167,0,19,19,47,1,FBP-RB-71.png,0.4,1.2,48,0.5,,,,,,,,,,,,,,,,,,,,,,,,,,,,,,,,,,,,,,,,,,,,,
,,,,,V1_006,18,male,2024-04-29_15h01.47.592,jersey_experiment_5_v1,2023.2.2,Win32,85.47008547,,,,,,,,,,,,,,,,102.6907,104.4904,104.4905,105.1611,return,0.1084,,94.921875,0,20,20,9,1,FBP-PT-81.png,0.45,1.2,10,1,,,,,,,,,,,,,,,,,,,,,,,,,,,,,,,,,,,,,,,,,,,,,
,,,,,V1_006,18,male,2024-04-29_15h01.47.592,jersey_experiment_5_v1,2023.2.2,Win32,85.47008547,,,,,,,,,,,,,,,,105.1614,106.4553,106.4553,107.3375,return,0.2356,,78.515625,0,21,21,31,1,FBP-OG-17.png,0.37,1.2,32,0.5,,,,,,,,,,,,,,,,,,,,,,,,,,,,,,,,,,,,,,,,,,,,,
,,,,,V1_006,18,male,2024-04-29_15h01.47.592,jersey_experiment_5_v1,2023.2.2,Win32,85.47008547,,,,,,,,,,,,,,,,107.3378,109.1378,109.1379,110.1142,return,0.3821,,32.03125,0,22,22,2,1,FBP-PT-71.png,0.4,1.2,3,1,,,,,,,,,,,,,,,,,,,,,,,,,,,,,,,,,,,,,,,,,,,,,
,,,,,V1_006,18,male,2024-04-29_15h01.47.592,jersey_experiment_5_v1,2023.2.2,Win32,85.47008547,,,,,,,,,,,,,,,,110.1144,111.4085,111.4085,112.2437,return,0.0733,,35.41666667,0,23,23,50,1,FBP-RB-81.png,0.35,1.2,51,0.5,,,,,,,,,,,,,,,,,,,,,,,,,,,,,,,,,,,,,,,,,,,,,
,,,,,V1_006,18,male,2024-04-29_15h01.47.592,jersey_experiment_5_v1,2023.2.2,Win32,85.47008547,,,,,,,,,,,,,,,,112.2438,113.5379,113.5379,121.2088,return,1.0833,,53.38541667,0,24,24,40,1,FBP-OG-19.png,0.35,1.2,41,0.5,,,,,,,,,,,,,,,,,,,,,,,,,,,,,,,,,,,,,,,,,,,,,
,,,,,V1_006,18,male,2024-04-29_15h01.47.592,jersey_experiment_5_v1,2023.2.2,Win32,85.47008547,,,,,,,,,,,,,,,,121.209,122.5029,122.5029,123.4793,return,0.1279,,95.96354167,0,25,25,28,1,FBP-YG-19.png,0.43,1.2,29,0.5,,,,,,,,,,,,,,,,,,,,,,,,,,,,,,,,,,,,,,,,,,,,,
,,,,,V1_006,18,male,2024-04-29_15h01.47.592,jersey_experiment_5_v1,2023.2.2,Win32,85.47008547,,,,,,,,,,,,,,,,123.4794,124.7736,124.7736,125.9737,return,0.2243,,5.338541667,0,26,26,30,1,FBP-OG-17.png,0.35,1.2,31,0.5,,,,,,,,,,,,,,,,,,,,,,,,,,,,,,,,,,,,,,,,,,,,,
,,,,,V1_006,18,male,2024-04-29_15h01.47.592,jersey_experiment_5_v1,2023.2.2,Win32,85.47008547,,,,,,,,,,,,,,,,125.9739,127.2679,127.2679,128.1382,return,0.1652,,71.74479167,0,27,27,24,1,FBP-YG-18.png,0.45,1.2,25,0.5,,,,,,,,,,,,,,,,,,,,,,,,,,,,,,,,,,,,,,,,,,,,,
,,,,,V1_006,18,male,2024-04-29_15h01.47.592,jersey_experiment_5_v1,2023.2.2,Win32,85.47008547,,,,,,,,,,,,,,,,128.1384,129.4324,129.4324,130.4091,return,0.1876,,80.98958333,0,28,28,56,1,FBP-RB-91.png,0.37,1.2,57,0.5,,,,,,,,,,,,,,,,,,,,,,,,,,,,,,,,,,,,,,,,,,,,,
,,,,,V1_006,18,male,2024-04-29_15h01.47.592,jersey_experiment_5_v1,2023.2.2,Win32,85.47008547,,,,,,,,,,,,,,,,130.4093,131.7032,131.7032,132.8327,return,0.1469,,98.17708333,0,29,29,59,1,FBP-RB-91.png,0.45,1.2,60,0.5,,,,,,,,,,,,,,,,,,,,,,,,,,,,,,,,,,,,,,,,,,,,,
,,,,,V1_006,18,male,2024-04-29_15h01.47.592,jersey_experiment_5_v1,2023.2.2,Win32,85.47008547,,,,,,,,,,,,,,,,132.8329,134.1269,134.1269,134.6917,return,0.1807,,98.17708333,0,30,30,49,1,FBP-RB-71.png,0.45,1.2,50,0.5,,,,,,,,,,,,,,,,,,,,,,,,,,,,,,,,,,,,,,,,,,,,,
,,,,,V1_006,18,male,2024-04-29_15h01.47.592,jersey_experiment_5_v1,2023.2.2,Win32,85.47008547,,,,,,,,,,,,,,,,134.6919,135.9858,135.9859,137.2096,return,0.1789,,29.16666667,0,31,31,32,1,FBP-OG-17.png,0.4,1.2,33,0.5,,,,,,,,,,,,,,,,,,,,,,,,,,,,,,,,,,,,,,,,,,,,,
,,,,,V1_006,18,male,2024-04-29_15h01.47.592,jersey_experiment_5_v1,2023.2.2,Win32,85.47008547,,,,,,,,,,,,,,,,137.2097,138.5035,138.5035,139.8565,return,0.2665,,74.08854167,0,32,32,29,1,FBP-YG-19.png,0.45,1.2,30,0.5,,,,,,,,,,,,,,,,,,,,,,,,,,,,,,,,,,,,,,,,,,,,,
,,,,,V1_006,18,male,2024-04-29_15h01.47.592,jersey_experiment_5_v1,2023.2.2,Win32,85.47008547,,,,,,,,,,,,,,,,139.8567,141.1506,141.1506,142.3272,return,0.1518,,75.65104167,0,33,33,26,1,FBP-YG-19.png,0.37,1.2,27,0.5,,,,,,,,,,,,,,,,,,,,,,,,,,,,,,,,,,,,,,,,,,,,,
,,,,,V1_006,18,male,2024-04-29_15h01.47.592,jersey_experiment_5_v1,2023.2.2,Win32,85.47008547,,,,,,,,,,,,,,,,142.3273,143.6213,143.6213,144.6803,return,0.2359,,94.921875,0,34,34,53,1,FBP-RB-81.png,0.43,1.2,54,0.5,,,,,,,,,,,,,,,,,,,,,,,,,,,,,,,,,,,,,,,,,,,,,
,,,,,V1_006,18,male,2024-04-29_15h01.47.592,jersey_experiment_5_v1,2023.2.2,Win32,85.47008547,,,,,,,,,,,,,,,,144.6804,146.4805,146.4805,147.3038,return,0.2363,,79.94791667,0,35,35,11,1,FBP-PT-91.png,0.37,1.2,12,1,,,,,,,,,,,,,,,,,,,,,,,,,,,,,,,,,,,,,,,,,,,,,
,,,,,V1_006,18,male,2024-04-29_15h01.47.592,jersey_experiment_5_v1,2023.2.2,Win32,85.47008547,,,,,,,,,,,,,,,,147.304,149.104,149.104,150.6334,return,0.2357,,92.31770833,0,36,36,14,1,FBP-PT-91.png,0.45,1.2,15,1,,,,,,,,,,,,,,,,,,,,,,,,,,,,,,,,,,,,,,,,,,,,,
,,,,,V1_006,18,male,2024-04-29_15h01.47.592,jersey_experiment_5_v1,2023.2.2,Win32,85.47008547,,,,,,,,,,,,,,,,150.6336,151.9277,151.9277,152.6098,return,0.1472,,97.78645833,0,37,37,44,1,FBP-OG-19.png,0.45,1.2,45,0.5,,,,,,,,,,,,,,,,,,,,,,,,,,,,,,,,,,,,,,,,,,,,,
,,,,,V1_006,18,male,2024-04-29_15h01.47.592,jersey_experiment_5_v1,2023.2.2,Win32,85.47008547,,,,,,,,,,,,,,,,152.6101,153.9039,153.9039,154.4334,return,0.1594,,85.15625,0,38,38,52,1,FBP-RB-81.png,0.4,1.2,53,0.5,,,,,,,,,,,,,,,,,,,,,,,,,,,,,,,,,,,,,,,,,,,,,
,,,,,V1_006,18,male,2024-04-29_15h01.47.592,jersey_experiment_5_v1,2023.2.2,Win32,85.47008547,,,,,,,,,,,,,,,,154.4336,155.7278,155.7278,156.2335,return,0.0574,,87.109375,0,39,39,17,1,FBP-YG-17.png,0.4,1.2,18,0.5,,,,,,,,,,,,,,,,,,,,,,,,,,,,,,,,,,,,,,,,,,,,,
,,,,,V1_006,18,male,2024-04-29_15h01.47.592,jersey_experiment_5_v1,2023.2.2,Win32,85.47008547,,,,,,,,,,,,,,,,156.2337,157.5279,157.5279,158.3511,return,0.2205,,78.77604167,0,40,40,37,1,FBP-OG-18.png,0.4,1.2,38,0.5,,,,,,,,,,,,,,,,,,,,,,,,,,,,,,,,,,,,,,,,,,,,,
,,,,,V1_006,18,male,2024-04-29_15h01.47.592,jersey_experiment_5_v1,2023.2.2,Win32,85.47008547,,,,,,,,,,,,,,,,158.3514,159.6453,159.6454,160.5514,return,0.1415,,93.61979167,0,41,41,51,1,FBP-RB-81.png,0.37,1.2,52,0.5,,,,,,,,,,,,,,,,,,,,,,,,,,,,,,,,,,,,,,,,,,,,,
,,,,,V1_006,18,male,2024-04-29_15h01.47.592,jersey_experiment_5_v1,2023.2.2,Win32,85.47008547,,,,,,,,,,,,,,,,160.5517,161.8455,161.8455,162.422,return,0.1055,,98.4375,0,42,42,58,1,FBP-RB-91.png,0.43,1.2,59,0.5,,,,,,,,,,,,,,,,,,,,,,,,,,,,,,,,,,,,,,,,,,,,,
,,,,,V1_006,18,male,2024-04-29_15h01.47.592,jersey_experiment_5_v1,2023.2.2,Win32,85.47008547,,,,,,,,,,,,,,,,162.4221,164.222,164.222,165.5279,return,0.2225,,49.86979167,0,43,43,7,1,FBP-PT-81.png,0.4,1.2,8,1,,,,,,,,,,,,,,,,,,,,,,,,,,,,,,,,,,,,,,,,,,,,,
,,,,,V1_006,18,male,2024-04-29_15h01.47.592,jersey_experiment_5_v1,2023.2.2,Win32,85.47008547,,,,,,,,,,,,,,,,165.5281,166.8222,166.8223,167.3046,return,0.0857,,49.609375,0,44,44,41,1,FBP-OG-19.png,0.37,1.2,42,0.5,,,,,,,,,,,,,,,,,,,,,,,,,,,,,,,,,,,,,,,,,,,,,
,,,,,V1_006,18,male,2024-04-29_15h01.47.592,jersey_experiment_5_v1,2023.2.2,Win32,85.47008547,,,,,,,,,,,,,,,,167.3048,168.5988,168.5988,169.4811,return,0.1415,,59.89583333,0,45,45,43,1,FBP-OG-19.png,0.43,1.2,44,0.5,,,,,,,,,,,,,,,,,,,,,,,,,,,,,,,,,,,,,,,,,,,,,
,,,,,V1_006,18,male,2024-04-29_15h01.47.592,jersey_experiment_5_v1,2023.2.2,Win32,85.47008547,,,,,,,,,,,,,,,,169.4812,170.7751,170.7752,171.6106,return,0.0932,,28.515625,0,46,46,15,1,FBP-YG-17.png,0.35,1.2,16,0.5,,,,,,,,,,,,,,,,,,,,,,,,,,,,,,,,,,,,,,,,,,,,,
,,,,,V1_006,18,male,2024-04-29_15h01.47.592,jersey_experiment_5_v1,2023.2.2,Win32,85.47008547,,,,,,,,,,,,,,,,171.6108,172.9049,172.9049,173.8932,return,0.0949,,81.77083333,0,47,47,34,1,FBP-OG-17.png,0.45,1.2,35,0.5,,,,,,,,,,,,,,,,,,,,,,,,,,,,,,,,,,,,,,,,,,,,,
,,,,,V1_006,18,male,2024-04-29_15h01.47.592,jersey_experiment_5_v1,2023.2.2,Win32,85.47008547,,,,,,,,,,,,,,,,173.8935,175.1872,175.1872,176.1286,return,0.0766,,82.68229167,0,48,48,57,1,FBP-RB-91.png,0.4,1.2,58,0.5,,,,,,,,,,,,,,,,,,,,,,,,,,,,,,,,,,,,,,,,,,,,,
,,,,,V1_006,18,male,2024-04-29_15h01.47.592,jersey_experiment_5_v1,2023.2.2,Win32,85.47008547,,,,,,,,,,,,,,,,176.1289,177.9284,177.9284,191.3172,return,11.9189,,90.75520833,0,49,49,3,1,FBP-PT-71.png,0.43,1.2,4,1,,,,,,,,,,,,,,,,,,,,,,,,,,,,,,,,,,,,,,,,,,,,,
,,,,,V1_006,18,male,2024-04-29_15h01.47.592,jersey_experiment_5_v1,2023.2.2,Win32,85.47008547,,,,,,,,,,,,,,,,191.3216,192.6232,192.6232,203.0236,return,1.1029,,75.52083333,0,50,50,55,1,FBP-RB-91.png,0.35,1.2,56,0.5,,,,,,,,,,,,,,,,,,,,,,,,,,,,,,,,,,,,,,,,,,,,,
,,,,,V1_006,18,male,2024-04-29_15h01.47.592,jersey_experiment_5_v1,2023.2.2,Win32,85.47008547,,,,,,,,,,,,,,,,203.0239,204.3178,204.3178,205.7648,return,0.4976,,42.1875,0,51,51,42,1,FBP-OG-19.png,0.4,1.2,43,0.5,,,,,,,,,,,,,,,,,,,,,,,,,,,,,,,,,,,,,,,,,,,,,
,,,,,V1_006,18,male,2024-04-29_15h01.47.592,jersey_experiment_5_v1,2023.2.2,Win32,85.47008547,,,,,,,,,,,,,,,,205.765,207.0589,207.059,208.4826,return,0.8511,,56.77083333,0,52,52,38,1,FBP-OG-18.png,0.43,1.2,39,0.5,,,,,,,,,,,,,,,,,,,,,,,,,,,,,,,,,,,,,,,,,,,,,
,,,,,V1_006,18,male,2024-04-29_15h01.47.592,jersey_experiment_5_v1,2023.2.2,Win32,85.47008547,,,,,,,,,,,,,,,,208.4828,209.7769,209.7769,211.3065,return,0.1414,,58.33333333,0,53,53,35,1,FBP-OG-18.png,0.35,1.2,36,0.5,,,,,,,,,,,,,,,,,,,,,,,,,,,,,,,,,,,,,,,,,,,,,
,,,,,V1_006,18,male,2024-04-29_15h01.47.592,jersey_experiment_5_v1,2023.2.2,Win32,85.47008547,,,,,,,,,,,,,,,,211.3067,212.6006,212.6006,213.3299,return,0.0754,,95.18229167,0,54,54,19,1,FBP-YG-17.png,0.45,1.2,20,0.5,,,,,,,,,,,,,,,,,,,,,,,,,,,,,,,,,,,,,,,,,,,,,
,,,,,V1_006,18,male,2024-04-29_15h01.47.592,jersey_experiment_5_v1,2023.2.2,Win32,85.47008547,,,,,,,,,,,,,,,,213.3301,215.1297,215.1297,215.7652,return,0.0736,,89.0625,0,55,55,8,1,FBP-PT-81.png,0.43,1.2,9,1,,,,,,,,,,,,,,,,,,,,,,,,,,,,,,,,,,,,,,,,,,,,,
,,,,,V1_006,18,male,2024-04-29_15h01.47.592,jersey_experiment_5_v1,2023.2.2,Win32,85.47008547,,,,,,,,,,,,,,,,215.7654,217.0594,217.0594,217.6828,return,0.1678,,87.890625,0,56,56,54,1,FBP-RB-81.png,0.45,1.2,55,0.5,,,,,,,,,,,,,,,,,,,,,,,,,,,,,,,,,,,,,,,,,,,,,
,,,,,V1_006,18,male,2024-04-29_15h01.47.592,jersey_experiment_5_v1,2023.2.2,Win32,85.47008547,,,,,,,,,,,,,,,,217.683,218.977,218.977,219.6009,return,0.1482,,82.421875,0,57,57,18,1,FBP-YG-17.png,0.43,1.2,19,0.5,,,,,,,,,,,,,,,,,,,,,,,,,,,,,,,,,,,,,,,,,,,,,
,,,,,V1_006,18,male,2024-04-29_15h01.47.592,jersey_experiment_5_v1,2023.2.2,Win32,85.47008547,,,,,,,,,,,,,,,,219.6011,221.4008,221.4008,222.2008,return,0.1882,,97.78645833,0,58,58,13,1,FBP-PT-91.png,0.43,1.2,14,1,,,,,,,,,,,,,,,,,,,,,,,,,,,,,,,,,,,,,,,,,,,,,
,,,,,V1_006,18,male,2024-04-29_15h01.47.592,jersey_experiment_5_v1,2023.2.2,Win32,85.47008547,,,,,,,,,,,,,,,,222.201,223.4948,223.4948,225.7773,return,1.4633,,100,0,59,59,39,1,FBP-OG-18.png,0.45,1.2,40,0.5,,,,,,,,,,,,,,,,,,,,,,,,,,,,,,,,,,,,,,,,,,,,,
,,,,,V1_006,18,male,2024-04-29_15h01.47.592,jersey_experiment_5_v1,2023.2.2,Win32,85.47008547,,,,,,,,,,,,,,,,225.7794,227.5774,227.5774,228.2597,return,0.0981,,7.552083333,,,,,,FBP-PT-18.png,0.37,1.2,7,1,0,0,0,6,1,,,,,,,,,,,,,,,,,,,,,,,,,,,,,,,,,,,,,,,,
,,,,,V1_006,18,male,2024-04-29_15h01.47.592,jersey_experiment_5_v1,2023.2.2,Win32,85.47008547,,,,,,,,,,,,,,,,228.2602,229.5538,229.5539,231.0716,return,0.1947,,92.1875,,,,,,FBP-RB-19.png,0.43,1.2,59,0.5,0,1,1,58,1,,,,,,,,,,,,,,,,,,,,,,,,,,,,,,,,,,,,,,,,
,,,,,V1_006,18,male,2024-04-29_15h01.47.592,jersey_experiment_5_v1,2023.2.2,Win32,85.47008547,,,,,,,,,,,,,,,,231.072,232.3659,232.3659,233.1894,return,0.1558,,77.99479167,,,,,,FBP-RB-18.png,0.37,1.2,52,0.5,0,2,2,51,1,,,,,,,,,,,,,,,,,,,,,,,,,,,,,,,,,,,,,,,,
,,,,,V1_006,18,male,2024-04-29_15h01.47.592,jersey_experiment_5_v1,2023.2.2,Win32,85.47008547,,,,,,,,,,,,,,,,233.1897,234.4835,234.4836,235.4484,return,0.1654,,88.54166667,,,,,,FBP-RB-17.png,0.43,1.2,49,0.5,0,3,3,48,1,,,,,,,,,,,,,,,,,,,,,,,,,,,,,,,,,,,,,,,,
,,,,,V1_006,18,male,2024-04-29_15h01.47.592,jersey_experiment_5_v1,2023.2.2,Win32,85.47008547,,,,,,,,,,,,,,,,235.4486,237.2483,237.2483,237.813,return,0.1078,,81.38020833,,,,,,FBP-PT-17.png,0.37,1.2,2,1,0,4,4,1,1,,,,,,,,,,,,,,,,,,,,,,,,,,,,,,,,,,,,,,,,
,,,,,V1_006,18,male,2024-04-29_15h01.47.592,jersey_experiment_5_v1,2023.2.2,Win32,85.47008547,,,,,,,,,,,,,,,,237.8133,239.6131,239.6132,240.3896,return,0.1318,,69.921875,,,,,,FBP-PT-17.png,0.4,1.2,3,1,0,5,5,2,1,,,,,,,,,,,,,,,,,,,,,,,,,,,,,,,,,,,,,,,,
,,,,,V1_006,18,male,2024-04-29_15h01.47.592,jersey_experiment_5_v1,2023.2.2,Win32,85.47008547,,,,,,,,,,,,,,,,240.3898,241.6838,241.6839,242.9192,return,0.5656,,67.05729167,,,,,,FBP-YG-71.png,0.37,1.2,17,0.5,0,6,6,16,1,,,,,,,,,,,,,,,,,,,,,,,,,,,,,,,,,,,,,,,,
,,,,,V1_006,18,male,2024-04-29_15h01.47.592,jersey_experiment_5_v1,2023.2.2,Win32,85.47008547,,,,,,,,,,,,,,,,242.9194,244.2134,244.2134,245.5783,return,0.1884,,94.79166667,,,,,,FBP-YG-81.png,0.43,1.2,24,0.5,0,7,7,23,1,,,,,,,,,,,,,,,,,,,,,,,,,,,,,,,,,,,,,,,,
,,,,,V1_006,18,male,2024-04-29_15h01.47.592,jersey_experiment_5_v1,2023.2.2,Win32,85.47008547,,,,,,,,,,,,,,,,245.5785,246.8723,246.8723,248.0724,return,0.1646,,92.96875,,,,,,FBP-OG-91.png,0.45,1.2,45,0.5,0,8,8,44,1,,,,,,,,,,,,,,,,,,,,,,,,,,,,,,,,,,,,,,,,
,,,,,V1_006,18,male,2024-04-29_15h01.47.592,jersey_experiment_5_v1,2023.2.2,Win32,85.47008547,,,,,,,,,,,,,,,,248.0727,249.3664,249.3664,250.9665,return,0.1529,,24.08854167,,,,,,FBP-YG-81.png,0.35,1.2,21,0.5,0,9,9,20,1,,,,,,,,,,,,,,,,,,,,,,,,,,,,,,,,,,,,,,,,
,,,,,V1_006,18,male,2024-04-29_15h01.47.592,jersey_experiment_5_v1,2023.2.2,Win32,85.47008547,,,,,,,,,,,,,,,,250.9667,252.2607,252.2607,253.2254,return,0.1414,,35.80729167,,,,,,FBP-RB-17.png,0.37,1.2,47,0.5,0,10,10,46,1,,,,,,,,,,,,,,,,,,,,,,,,,,,,,,,,,,,,,,,,
,,,,,V1_006,18,male,2024-04-29_15h01.47.592,jersey_experiment_5_v1,2023.2.2,Win32,85.47008547,,,,,,,,,,,,,,,,253.2256,254.5194,254.5194,255.3786,return,0.1928,,40.36458333,,,,,,FBP-RB-17.png,0.35,1.2,46,0.5,0,11,11,45,1,,,,,,,,,,,,,,,,,,,,,,,,,,,,,,,,,,,,,,,,
,,,,,V1_006,18,male,2024-04-29_15h01.47.592,jersey_experiment_5_v1,2023.2.2,Win32,85.47008547,,,,,,,,,,,,,,,,255.3788,256.6728,256.6729,257.5549,return,0.1699,,67.83854167,,,,,,FBP-RB-17.png,0.4,1.2,48,0.5,0,12,12,47,1,,,,,,,,,,,,,,,,,,,,,,,,,,,,,,,,,,,,,,,,
,,,,,V1_006,18,male,2024-04-29_15h01.47.592,jersey_experiment_5_v1,2023.2.2,Win32,85.47008547,,,,,,,,,,,,,,,,257.5551,258.8491,258.8491,260.1432,return,0.1838,,99.86979167,,,,,,FBP-YG-71.png,0.43,1.2,19,0.5,0,13,13,18,1,,,,,,,,,,,,,,,,,,,,,,,,,,,,,,,,,,,,,,,,
,,,,,V1_006,18,male,2024-04-29_15h01.47.592,jersey_experiment_5_v1,2023.2.2,Win32,85.47008547,,,,,,,,,,,,,,,,260.1434,261.9433,261.9434,263.6966,return,0.2665,,72.265625,,,,,,FBP-PT-18.png,0.43,1.2,9,1,0,14,14,8,1,,,,,,,,,,,,,,,,,,,,,,,,,,,,,,,,,,,,,,,,
,,,,,V1_006,18,male,2024-04-29_15h01.47.592,jersey_experiment_5_v1,2023.2.2,Win32,85.47008547,,,,,,,,,,,,,,,,263.6969,264.9907,264.9907,267.8614,return,0.2382,,71.09375,,,,,,FBP-YG-71.png,0.45,1.2,20,0.5,0,15,15,19,1,,,,,,,,,,,,,,,,,,,,,,,,,,,,,,,,,,,,,,,,
,,,,,V1_006,18,male,2024-04-29_15h01.47.592,jersey_experiment_5_v1,2023.2.2,Win32,85.47008547,,,,,,,,,,,,,,,,267.8617,269.1554,269.1555,270.026,return,0.1884,,48.828125,,,,,,FBP-OG-71.png,0.4,1.2,33,0.5,0,16,16,32,1,,,,,,,,,,,,,,,,,,,,,,,,,,,,,,,,,,,,,,,,
,,,,,V1_006,18,male,2024-04-29_15h01.47.592,jersey_experiment_5_v1,2023.2.2,Win32,85.47008547,,,,,,,,,,,,,,,,270.0262,271.3202,271.3203,271.8732,return,0.2171,,50.26041667,,,,,,FBP-RB-18.png,0.35,1.2,51,0.5,0,17,17,50,1,,,,,,,,,,,,,,,,,,,,,,,,,,,,,,,,,,,,,,,,
,,,,,V1_006,18,male,2024-04-29_15h01.47.592,jersey_experiment_5_v1,2023.2.2,Win32,85.47008547,,,,,,,,,,,,,,,,271.8734,273.6735,273.6735,275.1441,return,0.3676,,85.41666667,,,,,,FBP-PT-18.png,0.4,1.2,8,1,0,18,18,7,1,,,,,,,,,,,,,,,,,,,,,,,,,,,,,,,,,,,,,,,,
,,,,,V1_006,18,male,2024-04-29_15h01.47.592,jersey_experiment_5_v1,2023.2.2,Win32,85.47008547,,,,,,,,,,,,,,,,275.1443,276.4381,276.4381,277.4028,return,0.2482,,88.15104167,,,,,,FBP-RB-19.png,0.4,1.2,58,0.5,0,19,19,57,1,,,,,,,,,,,,,,,,,,,,,,,,,,,,,,,,,,,,,,,,
,,,,,V1_006,18,male,2024-04-29_15h01.47.592,jersey_experiment_5_v1,2023.2.2,Win32,85.47008547,,,,,,,,,,,,,,,,277.403,278.697,278.6971,279.8146,return,0.4717,,67.1875,,,,,,FBP-RB-19.png,0.45,1.2,60,0.5,0,20,20,59,1,,,,,,,,,,,,,,,,,,,,,,,,,,,,,,,,,,,,,,,,
,,,,,V1_006,18,male,2024-04-29_15h01.47.592,jersey_experiment_5_v1,2023.2.2,Win32,85.47008547,,,,,,,,,,,,,,,,279.8148,281.1088,281.1089,282.0971,return,0.1718,,34.63541667,,,,,,FBP-OG-91.png,0.4,1.2,43,0.5,0,21,21,42,1,,,,,,,,,,,,,,,,,,,,,,,,,,,,,,,,,,,,,,,,
,,,,,V1_006,18,male,2024-04-29_15h01.47.592,jersey_experiment_5_v1,2023.2.2,Win32,85.47008547,,,,,,,,,,,,,,,,282.0973,283.3914,283.3914,289.1091,return,0.403,,68.75,,,,,,FBP-OG-91.png,0.43,1.2,44,0.5,0,22,22,43,1,,,,,,,,,,,,,,,,,,,,,,,,,,,,,,,,,,,,,,,,
,,,,,V1_006,18,male,2024-04-29_15h01.47.592,jersey_experiment_5_v1,2023.2.2,Win32,85.47008547,,,,,,,,,,,,,,,,289.1093,290.9094,290.9094,299.5212,return,0.5835,,68.88020833,,,,,,FBP-PT-17.png,0.35,1.2,1,1,0,23,23,0,1,,,,,,,,,,,,,,,,,,,,,,,,,,,,,,,,,,,,,,,,
,,,,,V1_006,18,male,2024-04-29_15h01.47.592,jersey_experiment_5_v1,2023.2.2,Win32,85.47008547,,,,,,,,,,,,,,,,299.5213,301.3214,301.3214,302.1333,return,0.3066,,13.41145833,,,,,,FBP-PT-19.png,0.4,1.2,13,1,0,24,24,12,1,,,,,,,,,,,,,,,,,,,,,,,,,,,,,,,,,,,,,,,,
,,,,,V1_006,18,male,2024-04-29_15h01.47.592,jersey_experiment_5_v1,2023.2.2,Win32,85.47008547,,,,,,,,,,,,,,,,302.1336,303.4275,303.4275,305.8983,return,0.7543,,0,,,,,,FBP-OG-81.png,0.35,1.2,36,0.5,0,25,25,35,1,,,,,,,,,,,,,,,,,,,,,,,,,,,,,,,,,,,,,,,,
,,,,,V1_006,18,male,2024-04-29_15h01.47.592,jersey_experiment_5_v1,2023.2.2,Win32,85.47008547,,,,,,,,,,,,,,,,305.8986,307.1923,307.1923,307.8628,return,0.1657,,8.463541667,,,,,,FBP-YG-91.png,0.35,1.2,26,0.5,0,26,26,25,1,,,,,,,,,,,,,,,,,,,,,,,,,,,,,,,,,,,,,,,,
,,,,,V1_006,18,male,2024-04-29_15h01.47.592,jersey_experiment_5_v1,2023.2.2,Win32,85.47008547,,,,,,,,,,,,,,,,307.8631,309.1571,309.1571,309.8277,return,0.0506,,68.359375,,,,,,FBP-YG-81.png,0.4,1.2,23,0.5,0,27,27,22,1,,,,,,,,,,,,,,,,,,,,,,,,,,,,,,,,,,,,,,,,
,,,,,V1_006,18,male,2024-04-29_15h01.47.592,jersey_experiment_5_v1,2023.2.2,Win32,85.47008547,,,,,,,,,,,,,,,,309.8279,311.1219,311.1219,312.1218,return,0.1986,,64.58333333,,,,,,FBP-RB-18.png,0.43,1.2,54,0.5,0,28,28,53,1,,,,,,,,,,,,,,,,,,,,,,,,,,,,,,,,,,,,,,,,
,,,,,V1_006,18,male,2024-04-29_15h01.47.592,jersey_experiment_5_v1,2023.2.2,Win32,85.47008547,,,,,,,,,,,,,,,,312.1219,313.4158,313.4158,313.9219,return,0.1457,,61.71875,,,,,,FBP-OG-71.png,0.45,1.2,35,0.5,0,29,29,34,1,,,,,,,,,,,,,,,,,,,,,,,,,,,,,,,,,,,,,,,,
,,,,,V1_006,18,male,2024-04-29_15h01.47.592,jersey_experiment_5_v1,2023.2.2,Win32,85.47008547,,,,,,,,,,,,,,,,313.9221,315.2161,315.2161,316.0515,return,0.1221,,23.95833333,,,,,,FBP-YG-71.png,0.35,1.2,16,0.5,0,30,30,15,1,,,,,,,,,,,,,,,,,,,,,,,,,,,,,,,,,,,,,,,,
,,,,,V1_006,18,male,2024-04-29_15h01.47.592,jersey_experiment_5_v1,2023.2.2,Win32,85.47008547,,,,,,,,,,,,,,,,316.0517,317.3455,317.3455,318.6749,return,0.0971,,85.15625,,,,,,FBP-RB-18.png,0.45,1.2,55,0.5,0,31,31,54,1,,,,,,,,,,,,,,,,,,,,,,,,,,,,,,,,,,,,,,,,
,,,,,V1_006,18,male,2024-04-29_15h01.47.592,jersey_experiment_5_v1,2023.2.2,Win32,85.47008547,,,,,,,,,,,,,,,,318.6751,319.9691,319.9691,320.9456,return,0.0537,,94.79166667,,,,,,FBP-RB-17.png,0.45,1.2,50,0.5,0,32,32,49,1,,,,,,,,,,,,,,,,,,,,,,,,,,,,,,,,,,,,,,,,
,,,,,V1_006,18,male,2024-04-29_15h01.47.592,jersey_experiment_5_v1,2023.2.2,Win32,85.47008547,,,,,,,,,,,,,,,,320.9457,322.746,322.7461,323.9694,return,0.6171,,44.79166667,,,,,,FBP-PT-17.png,0.43,1.2,4,1,0,33,33,3,1,,,,,,,,,,,,,,,,,,,,,,,,,,,,,,,,,,,,,,,,
,,,,,V1_006,18,male,2024-04-29_15h01.47.592,jersey_experiment_5_v1,2023.2.2,Win32,85.47008547,,,,,,,,,,,,,,,,323.9696,325.2635,325.2636,326.2399,return,0.1728,,64.84375,,,,,,FBP-YG-81.png,0.37,1.2,22,0.5,0,34,34,21,1,,,,,,,,,,,,,,,,,,,,,,,,,,,,,,,,,,,,,,,,
,,,,,V1_006,18,male,2024-04-29_15h01.47.592,jersey_experiment_5_v1,2023.2.2,Win32,85.47008547,,,,,,,,,,,,,,,,326.2402,328.0402,328.0403,328.5695,return,0.1178,,83.59375,,,,,,FBP-PT-18.png,0.45,1.2,10,1,0,35,35,9,1,,,,,,,,,,,,,,,,,,,,,,,,,,,,,,,,,,,,,,,,
,,,,,V1_006,18,male,2024-04-29_15h01.47.592,jersey_experiment_5_v1,2023.2.2,Win32,85.47008547,,,,,,,,,,,,,,,,328.5697,329.8636,329.8636,331.0167,return,0.2593,,85.02604167,,,,,,FBP-YG-71.png,0.4,1.2,18,0.5,0,36,36,17,1,,,,,,,,,,,,,,,,,,,,,,,,,,,,,,,,,,,,,,,,
,,,,,V1_006,18,male,2024-04-29_15h01.47.592,jersey_experiment_5_v1,2023.2.2,Win32,85.47008547,,,,,,,,,,,,,,,,331.0168,332.8165,332.8166,334.8639,return,0.7591,,88.93229167,,,,,,FBP-PT-19.png,0.37,1.2,12,1,0,37,37,11,1,,,,,,,,,,,,,,,,,,,,,,,,,,,,,,,,,,,,,,,,
,,,,,V1_006,18,male,2024-04-29_15h01.47.592,jersey_experiment_5_v1,2023.2.2,Win32,85.47008547,,,,,,,,,,,,,,,,334.8641,336.1579,336.158,336.8993,return,0.1563,,86.84895833,,,,,,FBP-OG-81.png,0.45,1.2,40,0.5,0,38,38,39,1,,,,,,,,,,,,,,,,,,,,,,,,,,,,,,,,,,,,,,,,
,,,,,V1_006,18,male,2024-04-29_15h01.47.592,jersey_experiment_5_v1,2023.2.2,Win32,85.47008547,,,,,,,,,,,,,,,,336.8995,338.1935,338.1935,340.3936,return,1.0596,,11.45833333,,,,,,FBP-OG-81.png,0.4,1.2,38,0.5,0,39,39,37,1,,,,,,,,,,,,,,,,,,,,,,,,,,,,,,,,,,,,,,,,
,,,,,V1_006,18,male,2024-04-29_15h01.47.592,jersey_experiment_5_v1,2023.2.2,Win32,85.47008547,,,,,,,,,,,,,,,,340.3938,341.6879,341.6879,343.6642,return,0.6548,,36.45833333,,,,,,FBP-YG-91.png,0.37,1.2,27,0.5,0,40,40,26,1,,,,,,,,,,,,,,,,,,,,,,,,,,,,,,,,,,,,,,,,
,,,,,V1_006,18,male,2024-04-29_15h01.47.592,jersey_experiment_5_v1,2023.2.2,Win32,85.47008547,,,,,,,,,,,,,,,,343.6644,344.9583,344.9584,347.3937,return,1.2873,,5.729166667,,,,,,FBP-RB-19.png,0.35,1.2,56,0.5,0,41,41,55,1,,,,,,,,,,,,,,,,,,,,,,,,,,,,,,,,,,,,,,,,
,,,,,V1_006,18,male,2024-04-29_15h01.47.592,jersey_experiment_5_v1,2023.2.2,Win32,85.47008547,,,,,,,,,,,,,,,,347.3939,349.194,349.194,350.3703,return,0.1929,,99.86979167,,,,,,FBP-PT-19.png,0.45,1.2,15,1,0,42,42,14,1,,,,,,,,,,,,,,,,,,,,,,,,,,,,,,,,,,,,,,,,
,,,,,V1_006,18,male,2024-04-29_15h01.47.592,jersey_experiment_5_v1,2023.2.2,Win32,85.47008547,,,,,,,,,,,,,,,,350.3705,352.1703,352.1703,352.8646,return,0.0999,,84.89583333,,,,,,FBP-PT-18.png,0.35,1.2,6,1,0,43,43,5,1,,,,,,,,,,,,,,,,,,,,,,,,,,,,,,,,,,,,,,,,
,,,,,V1_006,18,male,2024-04-29_15h01.47.592,jersey_experiment_5_v1,2023.2.2,Win32,85.47008547,,,,,,,,,,,,,,,,352.8647,354.1587,354.1587,355.041,return,0.1114,,66.14583333,,,,,,FBP-YG-91.png,0.4,1.2,28,0.5,0,44,44,27,1,,,,,,,,,,,,,,,,,,,,,,,,,,,,,,,,,,,,,,,,
,,,,,V1_006,18,male,2024-04-29_15h01.47.592,jersey_experiment_5_v1,2023.2.2,Win32,85.47008547,,,,,,,,,,,,,,,,355.0412,356.3351,356.3351,374.983,return,1.5905,,74.86979167,,,,,,FBP-OG-71.png,0.43,1.2,34,0.5,0,45,45,33,1,,,,,,,,,,,,,,,,,,,,,,,,,,,,,,,,,,,,,,,,
,,,,,V1_006,18,male,2024-04-29_15h01.47.592,jersey_experiment_5_v1,2023.2.2,Win32,85.47008547,,,,,,,,,,,,,,,,374.9834,376.2771,376.2771,378.3595,return,0.6356,,0.260416667,,,,,,FBP-OG-71.png,0.37,1.2,32,0.5,0,46,46,31,1,,,,,,,,,,,,,,,,,,,,,,,,,,,,,,,,,,,,,,,,
,,,,,V1_006,18,male,2024-04-29_15h01.47.592,jersey_experiment_5_v1,2023.2.2,Win32,85.47008547,,,,,,,,,,,,,,,,378.3597,379.6539,379.6539,381.8656,return,1.106,,24.34895833,,,,,,FBP-YG-81.png,0.45,1.2,25,0.5,0,47,47,24,1,,,,,,,,,,,,,,,,,,,,,,,,,,,,,,,,,,,,,,,,
,,,,,V1_006,18,male,2024-04-29_15h01.47.592,jersey_experiment_5_v1,2023.2.2,Win32,85.47008547,,,,,,,,,,,,,,,,381.8658,383.6658,383.6658,385.3363,return,0.1315,,27.08333333,,,,,,FBP-PT-19.png,0.35,1.2,11,1,0,48,48,10,1,,,,,,,,,,,,,,,,,,,,,,,,,,,,,,,,,,,,,,,,
,,,,,V1_006,18,male,2024-04-29_15h01.47.592,jersey_experiment_5_v1,2023.2.2,Win32,85.47008547,,,,,,,,,,,,,,,,385.3365,386.6307,386.6308,387.4306,return,0.0709,,98.95833333,,,,,,FBP-YG-91.png,0.45,1.2,30,0.5,0,49,49,29,1,,,,,,,,,,,,,,,,,,,,,,,,,,,,,,,,,,,,,,,,
,,,,,V1_006,18,male,2024-04-29_15h01.47.592,jersey_experiment_5_v1,2023.2.2,Win32,85.47008547,,,,,,,,,,,,,,,,387.4309,388.7247,388.7247,389.4894,return,0.1012,,37.5,,,,,,FBP-OG-71.png,0.35,1.2,31,0.5,0,50,50,30,1,,,,,,,,,,,,,,,,,,,,,,,,,,,,,,,,,,,,,,,,
,,,,,V1_006,18,male,2024-04-29_15h01.47.592,jersey_experiment_5_v1,2023.2.2,Win32,85.47008547,,,,,,,,,,,,,,,,389.4896,390.7835,390.7835,391.6424,return,0.0929,,24.609375,,,,,,FBP-OG-91.png,0.35,1.2,41,0.5,0,51,51,40,1,,,,,,,,,,,,,,,,,,,,,,,,,,,,,,,,,,,,,,,,
,,,,,V1_006,18,male,2024-04-29_15h01.47.592,jersey_experiment_5_v1,2023.2.2,Win32,85.47008547,,,,,,,,,,,,,,,,391.6427,393.4425,393.4425,393.9835,return,0.1131,,77.60416667,,,,,,FBP-PT-19.png,0.43,1.2,14,1,0,52,52,13,1,,,,,,,,,,,,,,,,,,,,,,,,,,,,,,,,,,,,,,,,
,,,,,V1_006,18,male,2024-04-29_15h01.47.592,jersey_experiment_5_v1,2023.2.2,Win32,85.47008547,,,,,,,,,,,,,,,,393.9837,395.2777,395.2777,396.8192,return,0.3694,,89.58333333,,,,,,FBP-OG-81.png,0.43,1.2,39,0.5,0,53,53,38,1,,,,,,,,,,,,,,,,,,,,,,,,,,,,,,,,,,,,,,,,
,,,,,V1_006,18,male,2024-04-29_15h01.47.592,jersey_experiment_5_v1,2023.2.2,Win32,85.47008547,,,,,,,,,,,,,,,,396.8194,398.1135,398.1135,398.9958,return,0.146,,71.61458333,,,,,,FBP-OG-81.png,0.37,1.2,37,0.5,0,54,54,36,1,,,,,,,,,,,,,,,,,,,,,,,,,,,,,,,,,,,,,,,,
,,,,,V1_006,18,male,2024-04-29_15h01.47.592,jersey_experiment_5_v1,2023.2.2,Win32,85.47008547,,,,,,,,,,,,,,,,398.996,400.7957,400.7957,401.7841,return,0.1418,,96.875,,,,,,FBP-PT-17.png,0.45,1.2,5,1,0,55,55,4,1,,,,,,,,,,,,,,,,,,,,,,,,,,,,,,,,,,,,,,,,
,,,,,V1_006,18,male,2024-04-29_15h01.47.592,jersey_experiment_5_v1,2023.2.2,Win32,85.47008547,,,,,,,,,,,,,,,,401.7843,403.0781,403.0781,403.7134,return,0.1458,,98.95833333,,,,,,FBP-YG-91.png,0.43,1.2,29,0.5,0,56,56,28,1,,,,,,,,,,,,,,,,,,,,,,,,,,,,,,,,,,,,,,,,
,,,,,V1_006,18,male,2024-04-29_15h01.47.592,jersey_experiment_5_v1,2023.2.2,Win32,85.47008547,,,,,,,,,,,,,,,,403.7136,405.0078,405.0078,406.3606,return,0.0944,,59.765625,,,,,,FBP-RB-19.png,0.37,1.2,57,0.5,0,57,57,56,1,,,,,,,,,,,,,,,,,,,,,,,,,,,,,,,,,,,,,,,,
,,,,,V1_006,18,male,2024-04-29_15h01.47.592,jersey_experiment_5_v1,2023.2.2,Win32,85.47008547,,,,,,,,,,,,,,,,406.3608,407.6549,407.655,408.5372,return,0.0941,,77.99479167,,,,,,FBP-RB-18.png,0.4,1.2,53,0.5,0,58,58,52,1,,,,,,,,,,,,,,,,,,,,,,,,,,,,,,,,,,,,,,,,
,,,,,V1_006,18,male,2024-04-29_15h01.47.592,jersey_experiment_5_v1,2023.2.2,Win32,85.47008547,,,,,,,,,,,,,,,,408.5375,409.8314,409.8314,410.9021,return,0.1767,,95.83333333,,,,,,FBP-OG-91.png,0.37,1.2,42,0.5,0,59,59,41,1,,,,,,,,,,,,,,,,,,,,,,,,,,,,,,,,,,,,,,,,
,,,,,V1_006,18,male,2024-04-29_15h01.47.592,jersey_experiment_5_v1,2023.2.2,Win32,85.47008547,,,,,,,,,,,,,,,,,,,,,,,,,,,,,,,,,,,,,,,410.9025,530.9067,,,,,,,,,,,,,,,,,,,,,,,,,,,,,,,,,,,,,,
,,,,,V1_006,18,male,2024-04-29_15h01.47.592,jersey_experiment_5_v1,2023.2.2,Win32,85.47008547,,,,,,,,,,,,,,,,,,,,,,,,,,,,,,,,,,,,,,,,,530.9067,532.3773,return,1.4575,,,,,,,,,,,,,,,,,,,,,,,,,,,,,,,,,,
,,,,,V1_006,18,male,2024-04-29_15h01.47.592,jersey_experiment_5_v1,2023.2.2,Win32,85.47008547,,,,,,,,,,,,,,,,532.379,533.6714,533.6714,536.1185,return,0.6828,,31.11979167,,,,,,FBP-PT-81.png,0.4,1.2,8,0.5,,,,,,,,,,,,,0,0,0,7,1,,,,,,,,,,,,,,,,,,,,,,,,,,,,
,,,,,V1_006,18,male,2024-04-29_15h01.47.592,jersey_experiment_5_v1,2023.2.2,Win32,85.47008547,,,,,,,,,,,,,,,,536.1189,537.9186,537.9187,538.6008,return,0.0807,,77.86458333,,,,,,FBP-YG-19.png,0.4,1.2,28,1,,,,,,,,,,,,,0,1,1,27,1,,,,,,,,,,,,,,,,,,,,,,,,,,,,
,,,,,V1_006,18,male,2024-04-29_15h01.47.592,jersey_experiment_5_v1,2023.2.2,Win32,85.47008547,,,,,,,,,,,,,,,,538.6011,540.4011,540.4011,540.801,return,0.1705,,67.96875,,,,,,FBP-OG-17.png,0.4,1.2,33,1,,,,,,,,,,,,,0,2,2,32,1,,,,,,,,,,,,,,,,,,,,,,,,,,,,
,,,,,V1_006,18,male,2024-04-29_15h01.47.592,jersey_experiment_5_v1,2023.2.2,Win32,85.47008547,,,,,,,,,,,,,,,,540.8013,542.6012,542.6012,543.5423,return,0.3313,,96.61458333,,,,,,FBP-OG-18.png,0.45,1.2,40,1,,,,,,,,,,,,,0,3,3,39,1,,,,,,,,,,,,,,,,,,,,,,,,,,,,
,,,,,V1_006,18,male,2024-04-29_15h01.47.592,jersey_experiment_5_v1,2023.2.2,Win32,85.47008547,,,,,,,,,,,,,,,,543.5425,545.3423,545.3423,545.8599,return,0.3089,,96.484375,,,,,,FBP-YG-18.png,0.43,1.2,24,1,,,,,,,,,,,,,0,4,4,23,1,,,,,,,,,,,,,,,,,,,,,,,,,,,,
,,,,,V1_006,18,male,2024-04-29_15h01.47.592,jersey_experiment_5_v1,2023.2.2,Win32,85.47008547,,,,,,,,,,,,,,,,545.8601,547.1542,547.1542,547.719,return,0.1647,,96.484375,,,,,,FBP-PT-71.png,0.45,1.2,5,0.5,,,,,,,,,,,,,0,5,5,4,1,,,,,,,,,,,,,,,,,,,,,,,,,,,,
,,,,,V1_006,18,male,2024-04-29_15h01.47.592,jersey_experiment_5_v1,2023.2.2,Win32,85.47008547,,,,,,,,,,,,,,,,547.7192,549.5189,549.5189,550.1189,return,0.1419,,89.58333333,,,,,,FBP-OG-19.png,0.45,1.2,45,1,,,,,,,,,,,,,0,6,6,44,1,,,,,,,,,,,,,,,,,,,,,,,,,,,,
,,,,,V1_006,18,male,2024-04-29_15h01.47.592,jersey_experiment_5_v1,2023.2.2,Win32,85.47008547,,,,,,,,,,,,,,,,550.1191,551.9192,551.9192,552.6248,return,0.125,,87.36979167,,,,,,FBP-YG-17.png,0.4,1.2,18,1,,,,,,,,,,,,,0,7,7,17,1,,,,,,,,,,,,,,,,,,,,,,,,,,,,
,,,,,V1_006,18,male,2024-04-29_15h01.47.592,jersey_experiment_5_v1,2023.2.2,Win32,85.47008547,,,,,,,,,,,,,,,,552.6251,553.919,553.9191,555.778,return,0.3695,,77.734375,,,,,,FBP-PT-81.png,0.35,1.2,6,0.5,,,,,,,,,,,,,0,8,8,5,1,,,,,,,,,,,,,,,,,,,,,,,,,,,,
,,,,,V1_006,18,male,2024-04-29_15h01.47.592,jersey_experiment_5_v1,2023.2.2,Win32,85.47008547,,,,,,,,,,,,,,,,555.7782,557.5782,557.5782,558.5545,return,0.4098,,62.5,,,,,,FBP-YG-18.png,0.4,1.2,23,1,,,,,,,,,,,,,0,9,9,22,1,,,,,,,,,,,,,,,,,,,,,,,,,,,,
,,,,,V1_006,18,male,2024-04-29_15h01.47.592,jersey_experiment_5_v1,2023.2.2,Win32,85.47008547,,,,,,,,,,,,,,,,558.5548,560.3546,560.3547,561.2842,return,0.2262,,50,,,,,,FBP-YG-18.png,0.35,1.2,21,1,,,,,,,,,,,,,0,10,10,20,1,,,,,,,,,,,,,,,,,,,,,,,,,,,,
,,,,,V1_006,18,male,2024-04-29_15h01.47.592,jersey_experiment_5_v1,2023.2.2,Win32,85.47008547,,,,,,,,,,,,,,,,561.2845,563.0843,563.0843,569.3316,return,2.0755,,21.09375,,,,,,FBP-OG-18.png,0.35,1.2,36,1,,,,,,,,,,,,,0,11,11,35,1,,,,,,,,,,,,,,,,,,,,,,,,,,,,
,,,,,V1_006,18,male,2024-04-29_15h01.47.592,jersey_experiment_5_v1,2023.2.2,Win32,85.47008547,,,,,,,,,,,,,,,,569.3319,571.1317,571.1317,572.4846,return,0.1682,,27.21354167,,,,,,FBP-OG-18.png,0.37,1.2,37,1,,,,,,,,,,,,,0,12,12,36,1,,,,,,,,,,,,,,,,,,,,,,,,,,,,
,,,,,V1_006,18,male,2024-04-29_15h01.47.592,jersey_experiment_5_v1,2023.2.2,Win32,85.47008547,,,,,,,,,,,,,,,,572.4848,574.285,574.285,575.2729,return,0.4941,,49.47916667,,,,,,FBP-YG-17.png,0.37,1.2,17,1,,,,,,,,,,,,,0,13,13,16,1,,,,,,,,,,,,,,,,,,,,,,,,,,,,
,,,,,V1_006,18,male,2024-04-29_15h01.47.592,jersey_experiment_5_v1,2023.2.2,Win32,85.47008547,,,,,,,,,,,,,,,,575.2731,577.0729,577.0729,577.5084,return,0.1573,,59.24479167,,,,,,FBP-OG-18.png,0.4,1.2,38,1,,,,,,,,,,,,,0,14,14,37,1,,,,,,,,,,,,,,,,,,,,,,,,,,,,
,,,,,V1_006,18,male,2024-04-29_15h01.47.592,jersey_experiment_5_v1,2023.2.2,Win32,85.47008547,,,,,,,,,,,,,,,,577.5087,578.8025,578.8025,579.4729,return,0.0872,,51.30208333,,,,,,FBP-PT-91.png,0.37,1.2,12,0.5,,,,,,,,,,,,,0,15,15,11,1,,,,,,,,,,,,,,,,,,,,,,,,,,,,
,,,,,V1_006,18,male,2024-04-29_15h01.47.592,jersey_experiment_5_v1,2023.2.2,Win32,85.47008547,,,,,,,,,,,,,,,,579.4731,581.2732,581.2732,581.7437,return,0.0905,,94.140625,,,,,,FBP-RB-81.png,0.45,1.2,55,1,,,,,,,,,,,,,0,16,16,54,1,,,,,,,,,,,,,,,,,,,,,,,,,,,,
,,,,,V1_006,18,male,2024-04-29_15h01.47.592,jersey_experiment_5_v1,2023.2.2,Win32,85.47008547,,,,,,,,,,,,,,,,581.7438,583.0379,583.0379,583.7203,return,0.1784,,59.63541667,,,,,,FBP-PT-71.png,0.4,1.2,3,0.5,,,,,,,,,,,,,0,17,17,2,1,,,,,,,,,,,,,,,,,,,,,,,,,,,,
,,,,,V1_006,18,male,2024-04-29_15h01.47.592,jersey_experiment_5_v1,2023.2.2,Win32,85.47008547,,,,,,,,,,,,,,,,583.7205,585.5202,585.5203,586.3086,return,0.0856,,28.64583333,,,,,,FBP-YG-19.png,0.35,1.2,26,1,,,,,,,,,,,,,0,18,18,25,1,,,,,,,,,,,,,,,,,,,,,,,,,,,,
,,,,,V1_006,18,male,2024-04-29_15h01.47.592,jersey_experiment_5_v1,2023.2.2,Win32,85.47008547,,,,,,,,,,,,,,,,586.3088,588.1086,588.1086,588.8265,return,0.1315,,3.125,,,,,,FBP-RB-91.png,0.35,1.2,56,1,,,,,,,,,,,,,0,19,19,55,1,,,,,,,,,,,,,,,,,,,,,,,,,,,,
,,,,,V1_006,18,male,2024-04-29_15h01.47.592,jersey_experiment_5_v1,2023.2.2,Win32,85.47008547,,,,,,,,,,,,,,,,588.8267,590.6265,590.6265,593.6503,return,0.6535,,95.703125,,,,,,FBP-YG-17.png,0.43,1.2,19,1,,,,,,,,,,,,,0,20,20,18,1,,,,,,,,,,,,,,,,,,,,,,,,,,,,
,,,,,V1_006,18,male,2024-04-29_15h01.47.592,jersey_experiment_5_v1,2023.2.2,Win32,85.47008547,,,,,,,,,,,,,,,,593.6505,595.4501,595.4501,597.062,return,0.2025,,73.69791667,,,,,,FBP-OG-17.png,0.43,1.2,34,1,,,,,,,,,,,,,0,21,21,33,1,,,,,,,,,,,,,,,,,,,,,,,,,,,,
,,,,,V1_006,18,male,2024-04-29_15h01.47.592,jersey_experiment_5_v1,2023.2.2,Win32,85.47008547,,,,,,,,,,,,,,,,597.0622,598.356,598.3561,599.2504,return,0.2296,,52.734375,,,,,,FBP-PT-81.png,0.43,1.2,9,0.5,,,,,,,,,,,,,0,22,22,8,1,,,,,,,,,,,,,,,,,,,,,,,,,,,,
,,,,,V1_006,18,male,2024-04-29_15h01.47.592,jersey_experiment_5_v1,2023.2.2,Win32,85.47008547,,,,,,,,,,,,,,,,599.2505,600.5445,600.5445,601.3446,return,0.1711,,67.1875,,,,,,FBP-PT-91.png,0.43,1.2,14,0.5,,,,,,,,,,,,,0,23,23,13,1,,,,,,,,,,,,,,,,,,,,,,,,,,,,
,,,,,V1_006,18,male,2024-04-29_15h01.47.592,jersey_experiment_5_v1,2023.2.2,Win32,85.47008547,,,,,,,,,,,,,,,,601.3449,603.1444,603.1444,611.1211,return,0.2656,,64.97395833,,,,,,FBP-RB-71.png,0.35,1.2,46,1,,,,,,,,,,,,,0,24,24,45,1,,,,,,,,,,,,,,,,,,,,,,,,,,,,
,,,,,V1_006,18,male,2024-04-29_15h01.47.592,jersey_experiment_5_v1,2023.2.2,Win32,85.47008547,,,,,,,,,,,,,,,,611.1213,612.4154,612.4154,613.5567,return,0.12,,33.203125,,,,,,FBP-PT-91.png,0.4,1.2,13,0.5,,,,,,,,,,,,,0,25,25,12,1,,,,,,,,,,,,,,,,,,,,,,,,,,,,
,,,,,V1_006,18,male,2024-04-29_15h01.47.592,jersey_experiment_5_v1,2023.2.2,Win32,85.47008547,,,,,,,,,,,,,,,,613.557,615.3566,615.3566,616.6273,return,0.5461,,49.34895833,,,,,,FBP-OG-19.png,0.4,1.2,43,1,,,,,,,,,,,,,0,26,26,42,1,,,,,,,,,,,,,,,,,,,,,,,,,,,,
,,,,,V1_006,18,male,2024-04-29_15h01.47.592,jersey_experiment_5_v1,2023.2.2,Win32,85.47008547,,,,,,,,,,,,,,,,616.6275,618.4274,618.4274,618.9921,return,0.1704,,59.11458333,,,,,,FBP-OG-19.png,0.43,1.2,44,1,,,,,,,,,,,,,0,27,27,43,1,,,,,,,,,,,,,,,,,,,,,,,,,,,,
,,,,,V1_006,18,male,2024-04-29_15h01.47.592,jersey_experiment_5_v1,2023.2.2,Win32,85.47008547,,,,,,,,,,,,,,,,618.9924,620.2863,620.2864,621.3334,return,0.2015,,51.43229167,,,,,,FBP-PT-71.png,0.43,1.2,4,0.5,,,,,,,,,,,,,0,28,28,3,1,,,,,,,,,,,,,,,,,,,,,,,,,,,,
,,,,,V1_006,18,male,2024-04-29_15h01.47.592,jersey_experiment_5_v1,2023.2.2,Win32,85.47008547,,,,,,,,,,,,,,,,621.3336,623.1335,623.1335,624.4512,return,0.191,,39.84375,,,,,,FBP-OG-17.png,0.45,1.2,35,1,,,,,,,,,,,,,0,29,29,34,1,,,,,,,,,,,,,,,,,,,,,,,,,,,,
,,,,,V1_006,18,male,2024-04-29_15h01.47.592,jersey_experiment_5_v1,2023.2.2,Win32,85.47008547,,,,,,,,,,,,,,,,624.4514,625.7453,625.7453,626.4042,return,0.237,,35.9375,,,,,,FBP-PT-71.png,0.37,1.2,2,0.5,,,,,,,,,,,,,0,30,30,1,1,,,,,,,,,,,,,,,,,,,,,,,,,,,,
,,,,,V1_006,18,male,2024-04-29_15h01.47.592,jersey_experiment_5_v1,2023.2.2,Win32,85.47008547,,,,,,,,,,,,,,,,626.4045,628.2043,628.2043,628.8869,return,0.1661,,82.68229167,,,,,,FBP-RB-81.png,0.43,1.2,54,1,,,,,,,,,,,,,0,31,31,53,1,,,,,,,,,,,,,,,,,,,,,,,,,,,,
,,,,,V1_006,18,male,2024-04-29_15h01.47.592,jersey_experiment_5_v1,2023.2.2,Win32,85.47008547,,,,,,,,,,,,,,,,628.8872,630.6868,630.6868,631.2161,return,0.1023,,55.20833333,,,,,,FBP-RB-91.png,0.37,1.2,57,1,,,,,,,,,,,,,0,32,32,56,1,,,,,,,,,,,,,,,,,,,,,,,,,,,,
,,,,,V1_006,18,male,2024-04-29_15h01.47.592,jersey_experiment_5_v1,2023.2.2,Win32,85.47008547,,,,,,,,,,,,,,,,631.2164,633.0162,633.0162,633.7339,return,0.0834,,43.75,,,,,,FBP-OG-17.png,0.37,1.2,32,1,,,,,,,,,,,,,0,33,33,31,1,,,,,,,,,,,,,,,,,,,,,,,,,,,,
,,,,,V1_006,18,male,2024-04-29_15h01.47.592,jersey_experiment_5_v1,2023.2.2,Win32,85.47008547,,,,,,,,,,,,,,,,633.7341,635.5339,635.5339,636.0517,return,0.1339,,43.75,,,,,,FBP-YG-17.png,0.35,1.2,16,1,,,,,,,,,,,,,0,34,34,15,1,,,,,,,,,,,,,,,,,,,,,,,,,,,,
,,,,,V1_006,18,male,2024-04-29_15h01.47.592,jersey_experiment_5_v1,2023.2.2,Win32,85.47008547,,,,,,,,,,,,,,,,636.0519,637.8519,637.8519,638.5694,return,0.1169,,68.48958333,,,,,,FBP-OG-18.png,0.43,1.2,39,1,,,,,,,,,,,,,0,35,35,38,1,,,,,,,,,,,,,,,,,,,,,,,,,,,,
,,,,,V1_006,18,male,2024-04-29_15h01.47.592,jersey_experiment_5_v1,2023.2.2,Win32,85.47008547,,,,,,,,,,,,,,,,638.5697,640.3695,640.3695,641.1107,return,0.0839,,80.33854167,,,,,,FBP-RB-71.png,0.4,1.2,48,1,,,,,,,,,,,,,0,36,36,47,1,,,,,,,,,,,,,,,,,,,,,,,,,,,,
,,,,,V1_006,18,male,2024-04-29_15h01.47.592,jersey_experiment_5_v1,2023.2.2,Win32,85.47008547,,,,,,,,,,,,,,,,641.1109,642.9109,642.9109,643.6635,return,0.1732,,95.703125,,,,,,FBP-RB-91.png,0.43,1.2,59,1,,,,,,,,,,,,,0,37,37,58,1,,,,,,,,,,,,,,,,,,,,,,,,,,,,
,,,,,V1_006,18,male,2024-04-29_15h01.47.592,jersey_experiment_5_v1,2023.2.2,Win32,85.47008547,,,,,,,,,,,,,,,,643.6639,645.4638,645.4639,646.2756,return,0.0987,,65.625,,,,,,FBP-YG-19.png,0.37,1.2,27,1,,,,,,,,,,,,,0,38,38,26,1,,,,,,,,,,,,,,,,,,,,,,,,,,,,
,,,,,V1_006,18,male,2024-04-29_15h01.47.592,jersey_experiment_5_v1,2023.2.2,Win32,85.47008547,,,,,,,,,,,,,,,,646.2759,648.0758,648.0758,649.0756,return,0.5556,,88.41145833,,,,,,FBP-YG-17.png,0.45,1.2,20,1,,,,,,,,,,,,,0,39,39,19,1,,,,,,,,,,,,,,,,,,,,,,,,,,,,
,,,,,V1_006,18,male,2024-04-29_15h01.47.592,jersey_experiment_5_v1,2023.2.2,Win32,85.47008547,,,,,,,,,,,,,,,,649.0758,650.876,650.876,652.6406,return,0.5002,,58.203125,,,,,,FBP-RB-81.png,0.37,1.2,52,1,,,,,,,,,,,,,0,40,40,51,1,,,,,,,,,,,,,,,,,,,,,,,,,,,,
,,,,,V1_006,18,male,2024-04-29_15h01.47.592,jersey_experiment_5_v1,2023.2.2,Win32,85.47008547,,,,,,,,,,,,,,,,652.6409,654.4407,654.4407,655.0758,return,0.1086,,95.3125,,,,,,FBP-RB-81.png,0.4,1.2,53,1,,,,,,,,,,,,,0,41,41,52,1,,,,,,,,,,,,,,,,,,,,,,,,,,,,
,,,,,V1_006,18,male,2024-04-29_15h01.47.592,jersey_experiment_5_v1,2023.2.2,Win32,85.47008547,,,,,,,,,,,,,,,,655.076,656.3699,656.3699,657.6642,return,0.0891,,52.08333333,,,,,,FBP-PT-91.png,0.35,1.2,11,0.5,,,,,,,,,,,,,0,42,42,10,1,,,,,,,,,,,,,,,,,,,,,,,,,,,,
,,,,,V1_006,18,male,2024-04-29_15h01.47.592,jersey_experiment_5_v1,2023.2.2,Win32,85.47008547,,,,,,,,,,,,,,,,657.6644,659.4644,659.4644,660.9232,return,0.1778,,5.078125,,,,,,FBP-OG-19.png,0.37,1.2,42,1,,,,,,,,,,,,,0,43,43,41,1,,,,,,,,,,,,,,,,,,,,,,,,,,,,
,,,,,V1_006,18,male,2024-04-29_15h01.47.592,jersey_experiment_5_v1,2023.2.2,Win32,85.47008547,,,,,,,,,,,,,,,,660.9234,662.7232,662.7233,663.888,return,0.172,,49.73958333,,,,,,FBP-RB-81.png,0.35,1.2,51,1,,,,,,,,,,,,,0,44,44,50,1,,,,,,,,,,,,,,,,,,,,,,,,,,,,
,,,,,V1_006,18,male,2024-04-29_15h01.47.592,jersey_experiment_5_v1,2023.2.2,Win32,85.47008547,,,,,,,,,,,,,,,,663.8882,665.6881,665.6881,667.9587,return,1.0354,,94.140625,,,,,,FBP-YG-18.png,0.45,1.2,25,1,,,,,,,,,,,,,0,45,45,24,1,,,,,,,,,,,,,,,,,,,,,,,,,,,,
,,,,,V1_006,18,male,2024-04-29_15h01.47.592,jersey_experiment_5_v1,2023.2.2,Win32,85.47008547,,,,,,,,,,,,,,,,667.959,669.2529,669.2529,670.7234,return,0.1221,,54.03645833,,,,,,FBP-PT-91.png,0.45,1.2,15,0.5,,,,,,,,,,,,,0,46,46,14,1,,,,,,,,,,,,,,,,,,,,,,,,,,,,
,,,,,V1_006,18,male,2024-04-29_15h01.47.592,jersey_experiment_5_v1,2023.2.2,Win32,85.47008547,,,,,,,,,,,,,,,,670.7236,672.5236,672.5236,676.7709,return,0.8523,,89.58333333,,,,,,FBP-YG-19.png,0.43,1.2,29,1,,,,,,,,,,,,,0,47,47,28,1,,,,,,,,,,,,,,,,,,,,,,,,,,,,
,,,,,V1_006,18,male,2024-04-29_15h01.47.592,jersey_experiment_5_v1,2023.2.2,Win32,85.47008547,,,,,,,,,,,,,,,,676.771,678.5711,678.5712,679.4768,return,0.1443,,96.22395833,,,,,,FBP-RB-71.png,0.43,1.2,49,1,,,,,,,,,,,,,0,48,48,48,1,,,,,,,,,,,,,,,,,,,,,,,,,,,,
,,,,,V1_006,18,male,2024-04-29_15h01.47.592,jersey_experiment_5_v1,2023.2.2,Win32,85.47008547,,,,,,,,,,,,,,,,679.477,681.2768,681.2768,682.2179,return,0.1888,,94.140625,,,,,,FBP-RB-71.png,0.37,1.2,47,1,,,,,,,,,,,,,0,49,49,46,1,,,,,,,,,,,,,,,,,,,,,,,,,,,,
,,,,,V1_006,18,male,2024-04-29_15h01.47.592,jersey_experiment_5_v1,2023.2.2,Win32,85.47008547,,,,,,,,,,,,,,,,682.2182,684.0183,684.0183,684.889,return,0.2117,,1.041666667,,,,,,FBP-OG-17.png,0.35,1.2,31,1,,,,,,,,,,,,,0,50,50,30,1,,,,,,,,,,,,,,,,,,,,,,,,,,,,
,,,,,V1_006,18,male,2024-04-29_15h01.47.592,jersey_experiment_5_v1,2023.2.2,Win32,85.47008547,,,,,,,,,,,,,,,,684.8892,686.6888,686.6889,689.6183,return,0.1942,,53.64583333,,,,,,FBP-RB-91.png,0.4,1.2,58,1,,,,,,,,,,,,,0,51,51,57,1,,,,,,,,,,,,,,,,,,,,,,,,,,,,
,,,,,V1_006,18,male,2024-04-29_15h01.47.592,jersey_experiment_5_v1,2023.2.2,Win32,85.47008547,,,,,,,,,,,,,,,,689.6185,690.9125,690.9125,692.148,return,0.2279,,83.46354167,,,,,,FBP-PT-71.png,0.35,1.2,1,0.5,,,,,,,,,,,,,0,52,52,0,1,,,,,,,,,,,,,,,,,,,,,,,,,,,,
,,,,,V1_006,18,male,2024-04-29_15h01.47.592,jersey_experiment_5_v1,2023.2.2,Win32,85.47008547,,,,,,,,,,,,,,,,692.1482,693.9479,693.948,695.3481,return,0.4021,,77.99479167,,,,,,FBP-YG-18.png,0.37,1.2,22,1,,,,,,,,,,,,,0,53,53,21,1,,,,,,,,,,,,,,,,,,,,,,,,,,,,
,,,,,V1_006,18,male,2024-04-29_15h01.47.592,jersey_experiment_5_v1,2023.2.2,Win32,85.47008547,,,,,,,,,,,,,,,,695.3483,696.6421,696.6421,698.148,return,0.2616,,56.77083333,,,,,,FBP-PT-81.png,0.37,1.2,7,0.5,,,,,,,,,,,,,0,54,54,6,1,,,,,,,,,,,,,,,,,,,,,,,,,,,,
,,,,,V1_006,18,male,2024-04-29_15h01.47.592,jersey_experiment_5_v1,2023.2.2,Win32,85.47008547,,,,,,,,,,,,,,,,698.1482,699.948,699.9481,700.9364,return,0.1414,,90.88541667,,,,,,FBP-RB-91.png,0.45,1.2,60,1,,,,,,,,,,,,,0,55,55,59,1,,,,,,,,,,,,,,,,,,,,,,,,,,,,
,,,,,V1_006,18,male,2024-04-29_15h01.47.592,jersey_experiment_5_v1,2023.2.2,Win32,85.47008547,,,,,,,,,,,,,,,,700.9366,702.7366,702.7366,703.1837,return,0.1478,,19.53125,,,,,,FBP-OG-19.png,0.35,1.2,41,1,,,,,,,,,,,,,0,56,56,40,1,,,,,,,,,,,,,,,,,,,,,,,,,,,,
,,,,,V1_006,18,male,2024-04-29_15h01.47.592,jersey_experiment_5_v1,2023.2.2,Win32,85.47008547,,,,,,,,,,,,,,,,703.1838,704.9836,704.9836,705.6895,return,0.1746,,79.55729167,,,,,,FBP-RB-71.png,0.45,1.2,50,1,,,,,,,,,,,,,0,57,57,49,1,,,,,,,,,,,,,,,,,,,,,,,,,,,,
,,,,,V1_006,18,male,2024-04-29_15h01.47.592,jersey_experiment_5_v1,2023.2.2,Win32,85.47008547,,,,,,,,,,,,,,,,705.6897,707.4897,707.4897,708.372,return,0.1082,,79.6875,,,,,,FBP-YG-19.png,0.45,1.2,30,1,,,,,,,,,,,,,0,58,58,29,1,,,,,,,,,,,,,,,,,,,,,,,,,,,,
,,,,,V1_006,18,male,2024-04-29_15h01.47.592,jersey_experiment_5_v1,2023.2.2,Win32,85.47008547,,,,,,,,,,,,,,,,708.3722,709.6663,709.6663,710.1956,return,0.0261,,94.921875,,,,,,FBP-PT-81.png,0.45,1.2,10,0.5,,,,,,,,,,,,,0,59,59,9,1,,,,,,,,,,,,,,,,,,,,,,,,,,,,
,,,,,V1_006,18,male,2024-04-29_15h01.47.592,jersey_experiment_5_v1,2023.2.2,Win32,85.47008547,,,,,,,,,,,,,,,,710.1975,711.9956,711.9956,713.3017,return,0.2131,,86.19791667,,,,,,FBP-RB-17.png,0.4,1.2,48,1,,,,,,,,,,,,,,,,,,0,0,0,47,1,,,,,,,,,,,,,,,,,,,,,,,
,,,,,V1_006,18,male,2024-04-29_15h01.47.592,jersey_experiment_5_v1,2023.2.2,Win32,85.47008547,,,,,,,,,,,,,,,,713.3021,714.5959,714.5959,715.8663,return,0.4719,,70.57291667,,,,,,FBP-PT-18.png,0.4,1.2,8,0.5,,,,,,,,,,,,,,,,,,0,1,1,7,1,,,,,,,,,,,,,,,,,,,,,,,
,,,,,V1_006,18,male,2024-04-29_15h01.47.592,jersey_experiment_5_v1,2023.2.2,Win32,85.47008547,,,,,,,,,,,,,,,,715.8665,717.6664,717.6664,718.3844,return,0.2885,,89.71354167,,,,,,FBP-RB-19.png,0.4,1.2,58,1,,,,,,,,,,,,,,,,,,0,2,2,57,1,,,,,,,,,,,,,,,,,,,,,,,
,,,,,V1_006,18,male,2024-04-29_15h01.47.592,jersey_experiment_5_v1,2023.2.2,Win32,85.47008547,,,,,,,,,,,,,,,,718.3846,720.1843,720.1843,721.0077,return,0.2071,,95.703125,,,,,,FBP-RB-19.png,0.45,1.2,60,1,,,,,,,,,,,,,,,,,,0,3,3,59,1,,,,,,,,,,,,,,,,,,,,,,,
,,,,,V1_006,18,male,2024-04-29_15h01.47.592,jersey_experiment_5_v1,2023.2.2,Win32,85.47008547,,,,,,,,,,,,,,,,721.008,722.808,722.808,739.9616,return,4.2259,,1.822916667,,,,,,FBP-OG-81.png,0.35,1.2,36,1,,,,,,,,,,,,,,,,,,0,4,4,35,1,,,,,,,,,,,,,,,,,,,,,,,
,,,,,V1_006,18,male,2024-04-29_15h01.47.592,jersey_experiment_5_v1,2023.2.2,Win32,85.47008547,,,,,,,,,,,,,,,,739.9659,741.7613,741.7613,744.4086,return,0.1414,,49.86979167,,,,,,FBP-YG-71.png,0.45,1.2,20,1,,,,,,,,,,,,,,,,,,0,5,5,19,1,,,,,,,,,,,,,,,,,,,,,,,
,,,,,V1_006,18,male,2024-04-29_15h01.47.592,jersey_experiment_5_v1,2023.2.2,Win32,85.47008547,,,,,,,,,,,,,,,,744.4088,746.2087,746.2088,746.6912,return,0.0973,,49.47916667,,,,,,FBP-OG-81.png,0.37,1.2,37,1,,,,,,,,,,,,,,,,,,0,6,6,36,1,,,,,,,,,,,,,,,,,,,,,,,
,,,,,V1_006,18,male,2024-04-29_15h01.47.592,jersey_experiment_5_v1,2023.2.2,Win32,85.47008547,,,,,,,,,,,,,,,,746.6913,747.9855,747.9855,748.5381,return,0.071,,60.15625,,,,,,FBP-PT-17.png,0.4,1.2,3,0.5,,,,,,,,,,,,,,,,,,0,7,7,2,1,,,,,,,,,,,,,,,,,,,,,,,
,,,,,V1_006,18,male,2024-04-29_15h01.47.592,jersey_experiment_5_v1,2023.2.2,Win32,85.47008547,,,,,,,,,,,,,,,,748.5385,750.3382,750.3382,751.7032,return,0.3663,,25.65104167,,,,,,FBP-YG-71.png,0.35,1.2,16,1,,,,,,,,,,,,,,,,,,0,8,8,15,1,,,,,,,,,,,,,,,,,,,,,,,
,,,,,V1_006,18,male,2024-04-29_15h01.47.592,jersey_experiment_5_v1,2023.2.2,Win32,85.47008547,,,,,,,,,,,,,,,,751.7034,753.5033,753.5034,754.2916,return,0.3934,,95.44270833,,,,,,FBP-RB-18.png,0.45,1.2,55,1,,,,,,,,,,,,,,,,,,0,9,9,54,1,,,,,,,,,,,,,,,,,,,,,,,
,,,,,V1_006,18,male,2024-04-29_15h01.47.592,jersey_experiment_5_v1,2023.2.2,Win32,85.47008547,,,,,,,,,,,,,,,,754.2919,756.0914,756.0914,757.174,return,0.2239,,61.84895833,,,,,,FBP-RB-17.png,0.37,1.2,47,1,,,,,,,,,,,,,,,,,,0,10,10,46,1,,,,,,,,,,,,,,,,,,,,,,,
,,,,,V1_006,18,male,2024-04-29_15h01.47.592,jersey_experiment_5_v1,2023.2.2,Win32,85.47008547,,,,,,,,,,,,,,,,757.1742,758.9741,758.9742,759.9269,return,0.3311,,11.45833333,,,,,,FBP-OG-71.png,0.35,1.2,31,1,,,,,,,,,,,,,,,,,,0,11,11,30,1,,,,,,,,,,,,,,,,,,,,,,,
,,,,,V1_006,18,male,2024-04-29_15h01.47.592,jersey_experiment_5_v1,2023.2.2,Win32,85.47008547,,,,,,,,,,,,,,,,759.9272,761.7271,761.7271,763.5152,return,0.9414,,29.81770833,,,,,,FBP-YG-91.png,0.4,1.2,28,1,,,,,,,,,,,,,,,,,,0,12,12,27,1,,,,,,,,,,,,,,,,,,,,,,,
,,,,,V1_006,18,male,2024-04-29_15h01.47.592,jersey_experiment_5_v1,2023.2.2,Win32,85.47008547,,,,,,,,,,,,,,,,763.5155,765.3152,765.3152,767.2096,return,0.8374,,52.34375,,,,,,FBP-OG-81.png,0.45,1.2,40,1,,,,,,,,,,,,,,,,,,0,13,13,39,1,,,,,,,,,,,,,,,,,,,,,,,
,,,,,V1_006,18,male,2024-04-29_15h01.47.592,jersey_experiment_5_v1,2023.2.2,Win32,85.47008547,,,,,,,,,,,,,,,,767.2097,769.0094,769.0094,770.4332,return,0.5838,,82.94270833,,,,,,FBP-OG-81.png,0.43,1.2,39,1,,,,,,,,,,,,,,,,,,0,14,14,38,1,,,,,,,,,,,,,,,,,,,,,,,
,,,,,V1_006,18,male,2024-04-29_15h01.47.592,jersey_experiment_5_v1,2023.2.2,Win32,85.47008547,,,,,,,,,,,,,,,,770.4334,771.7273,771.7273,773.1862,return,0.7809,,74.609375,,,,,,FBP-PT-19.png,0.43,1.2,14,0.5,,,,,,,,,,,,,,,,,,0,15,15,13,1,,,,,,,,,,,,,,,,,,,,,,,
,,,,,V1_006,18,male,2024-04-29_15h01.47.592,jersey_experiment_5_v1,2023.2.2,Win32,85.47008547,,,,,,,,,,,,,,,,773.1865,774.9864,774.9865,776.0687,return,0.4977,,51.30208333,,,,,,FBP-YG-71.png,0.37,1.2,17,1,,,,,,,,,,,,,,,,,,0,16,16,16,1,,,,,,,,,,,,,,,,,,,,,,,
,,,,,V1_006,18,male,2024-04-29_15h01.47.592,jersey_experiment_5_v1,2023.2.2,Win32,85.47008547,,,,,,,,,,,,,,,,776.0689,777.3627,777.3627,778.6452,return,0.5193,,33.984375,,,,,,FBP-PT-19.png,0.35,1.2,11,0.5,,,,,,,,,,,,,,,,,,0,17,17,10,1,,,,,,,,,,,,,,,,,,,,,,,
,,,,,V1_006,18,male,2024-04-29_15h01.47.592,jersey_experiment_5_v1,2023.2.2,Win32,85.47008547,,,,,,,,,,,,,,,,778.6455,780.4454,780.4454,781.7865,return,0.5508,,52.21354167,,,,,,FBP-OG-91.png,0.37,1.2,42,1,,,,,,,,,,,,,,,,,,0,18,18,41,1,,,,,,,,,,,,,,,,,,,,,,,
,,,,,V1_006,18,male,2024-04-29_15h01.47.592,jersey_experiment_5_v1,2023.2.2,Win32,85.47008547,,,,,,,,,,,,,,,,781.7867,783.0806,783.0806,784.5278,return,0.8439,,52.21354167,,,,,,FBP-PT-18.png,0.35,1.2,6,0.5,,,,,,,,,,,,,,,,,,0,19,19,5,1,,,,,,,,,,,,,,,,,,,,,,,
,,,,,V1_006,18,male,2024-04-29_15h01.47.592,jersey_experiment_5_v1,2023.2.2,Win32,85.47008547,,,,,,,,,,,,,,,,784.528,786.3278,786.3279,787.7867,return,0.7404,,94.01041667,,,,,,FBP-YG-81.png,0.4,1.2,23,1,,,,,,,,,,,,,,,,,,0,20,20,22,1,,,,,,,,,,,,,,,,,,,,,,,
,,,,,V1_006,18,male,2024-04-29_15h01.47.592,jersey_experiment_5_v1,2023.2.2,Win32,85.47008547,,,,,,,,,,,,,,,,787.787,789.587,789.587,792.9633,return,0.4623,,50.26041667,,,,,,FBP-OG-91.png,0.4,1.2,43,1,,,,,,,,,,,,,,,,,,0,21,21,42,1,,,,,,,,,,,,,,,,,,,,,,,
,,,,,V1_006,18,male,2024-04-29_15h01.47.592,jersey_experiment_5_v1,2023.2.2,Win32,85.47008547,,,,,,,,,,,,,,,,792.9636,794.7635,794.7635,804.8816,return,0.5125,,50.78125,,,,,,FBP-OG-81.png,0.4,1.2,38,1,,,,,,,,,,,,,,,,,,0,22,22,37,1,,,,,,,,,,,,,,,,,,,,,,,
,,,,,V1_006,18,male,2024-04-29_15h01.47.592,jersey_experiment_5_v1,2023.2.2,Win32,85.47008547,,,,,,,,,,,,,,,,804.8818,806.6815,806.6816,808.9757,return,1.5732,,86.58854167,,,,,,FBP-YG-91.png,0.43,1.2,29,1,,,,,,,,,,,,,,,,,,0,23,23,28,1,,,,,,,,,,,,,,,,,,,,,,,
,,,,,V1_006,18,male,2024-04-29_15h01.47.592,jersey_experiment_5_v1,2023.2.2,Win32,85.47008547,,,,,,,,,,,,,,,,808.976,810.2698,810.2698,812.7877,return,0.3455,,51.04166667,,,,,,FBP-PT-17.png,0.37,1.2,2,0.5,,,,,,,,,,,,,,,,,,0,24,24,1,1,,,,,,,,,,,,,,,,,,,,,,,
,,,,,V1_006,18,male,2024-04-29_15h01.47.592,jersey_experiment_5_v1,2023.2.2,Win32,85.47008547,,,,,,,,,,,,,,,,812.7879,814.5877,814.5878,815.4349,return,0.1412,,77.47395833,,,,,,FBP-OG-91.png,0.35,1.2,41,1,,,,,,,,,,,,,,,,,,0,25,25,40,1,,,,,,,,,,,,,,,,,,,,,,,
,,,,,V1_006,18,male,2024-04-29_15h01.47.592,jersey_experiment_5_v1,2023.2.2,Win32,85.47008547,,,,,,,,,,,,,,,,815.4351,817.235,817.2351,819.1055,return,1.0758,,67.05729167,,,,,,FBP-YG-81.png,0.45,1.2,25,1,,,,,,,,,,,,,,,,,,0,26,26,24,1,,,,,,,,,,,,,,,,,,,,,,,
,,,,,V1_006,18,male,2024-04-29_15h01.47.592,jersey_experiment_5_v1,2023.2.2,Win32,85.47008547,,,,,,,,,,,,,,,,819.1057,820.9058,820.9058,823.1882,return,0.379,,42.578125,,,,,,FBP-OG-71.png,0.37,1.2,32,1,,,,,,,,,,,,,,,,,,0,27,27,31,1,,,,,,,,,,,,,,,,,,,,,,,
,,,,,V1_006,18,male,2024-04-29_15h01.47.592,jersey_experiment_5_v1,2023.2.2,Win32,85.47008547,,,,,,,,,,,,,,,,823.1884,824.4824,824.4824,825.894,return,0.673,,66.53645833,,,,,,FBP-PT-18.png,0.37,1.2,7,0.5,,,,,,,,,,,,,,,,,,0,28,28,6,1,,,,,,,,,,,,,,,,,,,,,,,
,,,,,V1_006,18,male,2024-04-29_15h01.47.592,jersey_experiment_5_v1,2023.2.2,Win32,85.47008547,,,,,,,,,,,,,,,,825.8942,827.1882,827.1883,829.7647,return,1.6504,,60.41666667,,,,,,FBP-PT-19.png,0.45,1.2,15,0.5,,,,,,,,,,,,,,,,,,0,29,29,14,1,,,,,,,,,,,,,,,,,,,,,,,
,,,,,V1_006,18,male,2024-04-29_15h01.47.592,jersey_experiment_5_v1,2023.2.2,Win32,85.47008547,,,,,,,,,,,,,,,,829.7649,831.0588,831.0589,838.3769,return,0.6588,,57.94270833,,,,,,FBP-PT-18.png,0.45,1.2,10,0.5,,,,,,,,,,,,,,,,,,0,30,30,9,1,,,,,,,,,,,,,,,,,,,,,,,
,,,,,V1_006,18,male,2024-04-29_15h01.47.592,jersey_experiment_5_v1,2023.2.2,Win32,85.47008547,,,,,,,,,,,,,,,,838.3771,839.6709,839.6709,843.1772,return,0.6695,,57.94270833,,,,,,FBP-PT-17.png,0.43,1.2,4,0.5,,,,,,,,,,,,,,,,,,0,31,31,3,1,,,,,,,,,,,,,,,,,,,,,,,
,,,,,V1_006,18,male,2024-04-29_15h01.47.592,jersey_experiment_5_v1,2023.2.2,Win32,85.47008547,,,,,,,,,,,,,,,,843.1774,844.4712,844.4713,846.1302,return,0.6391,,16.40625,,,,,,FBP-PT-17.png,0.35,1.2,1,0.5,,,,,,,,,,,,,,,,,,0,32,32,0,1,,,,,,,,,,,,,,,,,,,,,,,
,,,,,V1_006,18,male,2024-04-29_15h01.47.592,jersey_experiment_5_v1,2023.2.2,Win32,85.47008547,,,,,,,,,,,,,,,,846.1304,847.9303,847.9303,848.5068,return,0.1788,,59.765625,,,,,,FBP-OG-71.png,0.4,1.2,33,1,,,,,,,,,,,,,,,,,,0,33,33,32,1,,,,,,,,,,,,,,,,,,,,,,,
,,,,,V1_006,18,male,2024-04-29_15h01.47.592,jersey_experiment_5_v1,2023.2.2,Win32,85.47008547,,,,,,,,,,,,,,,,848.5069,850.3068,850.3069,850.7069,return,0.2748,,78.25520833,,,,,,FBP-RB-19.png,0.43,1.2,59,1,,,,,,,,,,,,,,,,,,0,34,34,58,1,,,,,,,,,,,,,,,,,,,,,,,
,,,,,V1_006,18,male,2024-04-29_15h01.47.592,jersey_experiment_5_v1,2023.2.2,Win32,85.47008547,,,,,,,,,,,,,,,,850.7071,852.507,852.5071,855.9425,return,0.6599,,0.390625,,,,,,FBP-RB-18.png,0.35,1.2,51,1,,,,,,,,,,,,,,,,,,0,35,35,50,1,,,,,,,,,,,,,,,,,,,,,,,
,,,,,V1_006,18,male,2024-04-29_15h01.47.592,jersey_experiment_5_v1,2023.2.2,Win32,85.47008547,,,,,,,,,,,,,,,,855.9427,857.7423,857.7424,858.213,return,0.1785,,97.52604167,,,,,,FBP-RB-18.png,0.43,1.2,54,1,,,,,,,,,,,,,,,,,,0,36,36,53,1,,,,,,,,,,,,,,,,,,,,,,,
,,,,,V1_006,18,male,2024-04-29_15h01.47.592,jersey_experiment_5_v1,2023.2.2,Win32,85.47008547,,,,,,,,,,,,,,,,858.2132,860.0131,860.0132,860.7779,return,0.0944,,50.26041667,,,,,,FBP-YG-81.png,0.35,1.2,21,1,,,,,,,,,,,,,,,,,,0,37,37,20,1,,,,,,,,,,,,,,,,,,,,,,,
,,,,,V1_006,18,male,2024-04-29_15h01.47.592,jersey_experiment_5_v1,2023.2.2,Win32,85.47008547,,,,,,,,,,,,,,,,860.7782,862.5778,862.5779,863.0131,return,0.1546,,74.73958333,,,,,,FBP-YG-71.png,0.43,1.2,19,1,,,,,,,,,,,,,,,,,,0,38,38,18,1,,,,,,,,,,,,,,,,,,,,,,,
,,,,,V1_006,18,male,2024-04-29_15h01.47.592,jersey_experiment_5_v1,2023.2.2,Win32,85.47008547,,,,,,,,,,,,,,,,863.0133,864.8132,864.8132,865.3663,return,0.1772,,84.11458333,,,,,,FBP-YG-91.png,0.45,1.2,30,1,,,,,,,,,,,,,,,,,,0,39,39,29,1,,,,,,,,,,,,,,,,,,,,,,,
,,,,,V1_006,18,male,2024-04-29_15h01.47.592,jersey_experiment_5_v1,2023.2.2,Win32,85.47008547,,,,,,,,,,,,,,,,865.3664,866.6604,866.6604,867.4486,return,0.0603,,40.49479167,,,,,,FBP-PT-19.png,0.37,1.2,12,0.5,,,,,,,,,,,,,,,,,,0,40,40,11,1,,,,,,,,,,,,,,,,,,,,,,,
,,,,,V1_006,18,male,2024-04-29_15h01.47.592,jersey_experiment_5_v1,2023.2.2,Win32,85.47008547,,,,,,,,,,,,,,,,867.4488,868.7427,868.7427,869.3546,return,0.0936,,52.99479167,,,,,,FBP-PT-19.png,0.4,1.2,13,0.5,,,,,,,,,,,,,,,,,,0,41,41,12,1,,,,,,,,,,,,,,,,,,,,,,,
,,,,,V1_006,18,male,2024-04-29_15h01.47.592,jersey_experiment_5_v1,2023.2.2,Win32,85.47008547,,,,,,,,,,,,,,,,869.3549,871.1547,871.1548,871.5076,return,0.2035,,33.85416667,,,,,,FBP-RB-19.png,0.37,1.2,57,1,,,,,,,,,,,,,,,,,,0,42,42,56,1,,,,,,,,,,,,,,,,,,,,,,,
,,,,,V1_006,18,male,2024-04-29_15h01.47.592,jersey_experiment_5_v1,2023.2.2,Win32,85.47008547,,,,,,,,,,,,,,,,871.5078,873.3077,873.3077,873.7785,return,0.1223,,81.25,,,,,,FBP-OG-71.png,0.43,1.2,34,1,,,,,,,,,,,,,,,,,,0,43,43,33,1,,,,,,,,,,,,,,,,,,,,,,,
,,,,,V1_006,18,male,2024-04-29_15h01.47.592,jersey_experiment_5_v1,2023.2.2,Win32,85.47008547,,,,,,,,,,,,,,,,873.7787,875.5783,875.5783,876.0726,return,0.2355,,16.53645833,,,,,,FBP-RB-18.png,0.37,1.2,52,1,,,,,,,,,,,,,,,,,,0,44,44,51,1,,,,,,,,,,,,,,,,,,,,,,,
,,,,,V1_006,18,male,2024-04-29_15h01.47.592,jersey_experiment_5_v1,2023.2.2,Win32,85.47008547,,,,,,,,,,,,,,,,876.0728,877.8725,877.8725,878.6139,return,0.1307,,66.40625,,,,,,FBP-YG-81.png,0.37,1.2,22,1,,,,,,,,,,,,,,,,,,0,45,45,21,1,,,,,,,,,,,,,,,,,,,,,,,
,,,,,V1_006,18,male,2024-04-29_15h01.47.592,jersey_experiment_5_v1,2023.2.2,Win32,85.47008547,,,,,,,,,,,,,,,,878.6141,880.414,880.414,881.555,return,0.203,,83.72395833,,,,,,FBP-RB-18.png,0.4,1.2,53,1,,,,,,,,,,,,,,,,,,0,46,46,52,1,,,,,,,,,,,,,,,,,,,,,,,
,,,,,V1_006,18,male,2024-04-29_15h01.47.592,jersey_experiment_5_v1,2023.2.2,Win32,85.47008547,,,,,,,,,,,,,,,,881.5552,883.3552,883.3552,885.0494,return,0.1317,,55.72916667,,,,,,FBP-RB-19.png,0.35,1.2,56,1,,,,,,,,,,,,,,,,,,0,47,47,55,1,,,,,,,,,,,,,,,,,,,,,,,
,,,,,V1_006,18,male,2024-04-29_15h01.47.592,jersey_experiment_5_v1,2023.2.2,Win32,85.47008547,,,,,,,,,,,,,,,,885.0496,886.8493,886.8494,893.426,return,0.3003,,57.68229167,,,,,,FBP-RB-17.png,0.45,1.2,50,1,,,,,,,,,,,,,,,,,,0,48,48,49,1,,,,,,,,,,,,,,,,,,,,,,,
,,,,,V1_006,18,male,2024-04-29_15h01.47.592,jersey_experiment_5_v1,2023.2.2,Win32,85.47008547,,,,,,,,,,,,,,,,893.4262,895.2261,895.2262,896.0969,return,0.1491,,85.41666667,,,,,,FBP-OG-91.png,0.45,1.2,45,1,,,,,,,,,,,,,,,,,,0,49,49,44,1,,,,,,,,,,,,,,,,,,,,,,,
,,,,,V1_006,18,male,2024-04-29_15h01.47.592,jersey_experiment_5_v1,2023.2.2,Win32,85.47008547,,,,,,,,,,,,,,,,896.0971,897.897,897.897,898.2733,return,0.1696,,72.265625,,,,,,FBP-OG-71.png,0.45,1.2,35,1,,,,,,,,,,,,,,,,,,0,50,50,34,1,,,,,,,,,,,,,,,,,,,,,,,
,,,,,V1_006,18,male,2024-04-29_15h01.47.592,jersey_experiment_5_v1,2023.2.2,Win32,85.47008547,,,,,,,,,,,,,,,,898.2735,900.0734,900.0734,900.9793,return,0.6994,,73.95833333,,,,,,FBP-RB-17.png,0.43,1.2,49,1,,,,,,,,,,,,,,,,,,0,51,51,48,1,,,,,,,,,,,,,,,,,,,,,,,
,,,,,V1_006,18,male,2024-04-29_15h01.47.592,jersey_experiment_5_v1,2023.2.2,Win32,85.47008547,,,,,,,,,,,,,,,,900.9795,902.2734,902.2735,903.5442,return,0.4694,,71.09375,,,,,,FBP-PT-17.png,0.45,1.2,5,0.5,,,,,,,,,,,,,,,,,,0,52,52,4,1,,,,,,,,,,,,,,,,,,,,,,,
,,,,,V1_006,18,male,2024-04-29_15h01.47.592,jersey_experiment_5_v1,2023.2.2,Win32,85.47008547,,,,,,,,,,,,,,,,903.5445,905.3442,905.3443,906.4501,return,0.2416,,85.41666667,,,,,,FBP-YG-91.png,0.35,1.2,26,1,,,,,,,,,,,,,,,,,,0,53,53,25,1,,,,,,,,,,,,,,,,,,,,,,,
,,,,,V1_006,18,male,2024-04-29_15h01.47.592,jersey_experiment_5_v1,2023.2.2,Win32,85.47008547,,,,,,,,,,,,,,,,906.4503,908.2502,908.2502,909.0618,return,0.2376,,71.74479167,,,,,,FBP-YG-71.png,0.4,1.2,18,1,,,,,,,,,,,,,,,,,,0,54,54,17,1,,,,,,,,,,,,,,,,,,,,,,,
,,,,,V1_006,18,male,2024-04-29_15h01.47.592,jersey_experiment_5_v1,2023.2.2,Win32,85.47008547,,,,,,,,,,,,,,,,909.0621,910.8621,910.8622,914.7445,return,0.2024,,5.208333333,,,,,,FBP-RB-17.png,0.35,1.2,46,1,,,,,,,,,,,,,,,,,,0,55,55,45,1,,,,,,,,,,,,,,,,,,,,,,,
,,,,,V1_006,18,male,2024-04-29_15h01.47.592,jersey_experiment_5_v1,2023.2.2,Win32,85.47008547,,,,,,,,,,,,,,,,914.7448,916.0385,916.0386,917.1566,return,0.2961,,49.609375,,,,,,FBP-PT-18.png,0.43,1.2,9,0.5,,,,,,,,,,,,,,,,,,0,56,56,8,1,,,,,,,,,,,,,,,,,,,,,,,
,,,,,V1_006,18,male,2024-04-29_15h01.47.592,jersey_experiment_5_v1,2023.2.2,Win32,85.47008547,,,,,,,,,,,,,,,,917.1568,918.9566,918.9566,919.5918,return,0.1896,,92.31770833,,,,,,FBP-YG-81.png,0.43,1.2,24,1,,,,,,,,,,,,,,,,,,0,57,57,23,1,,,,,,,,,,,,,,,,,,,,,,,
,,,,,V1_006,18,male,2024-04-29_15h01.47.592,jersey_experiment_5_v1,2023.2.2,Win32,85.47008547,,,,,,,,,,,,,,,,919.592,921.3919,921.3919,922.4976,return,0.1009,,45.44270833,,,,,,FBP-YG-91.png,0.37,1.2,27,1,,,,,,,,,,,,,,,,,,0,58,58,26,1,,,,,,,,,,,,,,,,,,,,,,,
,,,,,V1_006,18,male,2024-04-29_15h01.47.592,jersey_experiment_5_v1,2023.2.2,Win32,85.47008547,,,,,,,,,,,,,,,,922.4979,924.2978,924.2978,928.2744,return,0.5693,,54.16666667,,,,,,FBP-OG-91.png,0.43,1.2,44,1,,,,,,,,,,,,,,,,,,0,59,59,43,1,,,,,,,,,,,,,,,,,,,,,,,
,,,,,V1_006,18,male,2024-04-29_15h01.47.592,jersey_experiment_5_v1,2023.2.2,Win32,85.47008547,,,,,,,,,,,,,,,,,,,,,,,,,,,,,,,,,,,,,,,,,,,,,,,,,,,,,,,,928.2748,932.5925,return,4.3131,,,,,,,,,,,,,,,,,,,
,,,,,V1_006,18,male,2024-04-29_15h01.47.592,jersey_experiment_5_v1,2023.2.2,Win32,85.47008547,,,,,,,,,,,,,,,,,,,,,,,,,,,,,,,,,,,,,,,,,,,,,,,,,,,,,,,,,,,,,932.5926,937.2867,1,3.4988,return,1.1761,,,,,,,,,,,,
,,,,,V1_006,18,male,2024-04-29_15h01.47.592,jersey_experiment_5_v1,2023.2.2,Win32,85.47008547,,,,,,,,,,,,,,,,,,,,,,,,,,,,,,,,,,,,,,,,,,,,,,,,,,,,,,,,,,,,,,,,,,,,937.2869,979.4932,I saw a repetition of numbers on the players shirt. sometimes it seemed like the same person but different color shirt.,right,35.76,,,,,,
,,,,,V1_006,18,male,2024-04-29_15h01.47.592,jersey_experiment_5_v1,2023.2.2,Win32,85.47008547,,,,,,,,,,,,,,,,,,,,,,,,,,,,,,,,,,,,,,,,,,,,,,,,,,,,,,,,,,,,,,,,,,,,,,,,,,979.4934,981.3352,return,1.8316,