requirements.started,requirements.stopped,key_resp_3.keys,key_resp_3.rt,key_resp_3.duration,Subject ID,Age,Gender,date,expName,psychopyVersion,OS,frameRate,instructions1.started,instructions1.stopped,key_resp.keys,key_resp.rt,key_resp.duration,example.started,example.stopped,enter_2.keys,enter_2.rt,enter_2.duration,instructions2.started,instructions2.stopped,enter_3.keys,enter_3.rt,enter_3.duration,image.started,image.stopped,slider_2.started,slider_2.stopped,next.keys,next.rt,next.duration,slider.response,trial_block_1.thisRepN,trial_block_1.thisTrialN,trial_block_1.thisN,trial_block_1.thisIndex,trial_block_1.ran,Path,Width,Height,Index,Duration,trial_block_2.thisRepN,trial_block_2.thisTrialN,trial_block_2.thisN,trial_block_2.thisIndex,trial_block_2.ran,rest_break.started,rest_break.stopped,end_break.started,end_break.stopped,key_resp_5.keys,key_resp_5.rt,key_resp_5.duration,trial_block_3.thisRepN,trial_block_3.thisTrialN,trial_block_3.thisN,trial_block_3.thisIndex,trial_block_3.ran,trial_block_4.thisRepN,trial_block_4.thisTrialN,trial_block_4.thisN,trial_block_4.thisIndex,trial_block_4.ran,questions_intro.started,questions_intro.stopped,enter_12.keys,enter_12.rt,enter_12.duration,question2.started,question2.stopped,question_doingbest.response,question_doingbest.rt,enter_15.keys,enter_15.rt,enter_15.duration,pattern.started,pattern.stopped,pattern_2.text,enter_17.keys,enter_17.rt,enter_17.duration,thankyou.started,thankyou.stopped,enter_14.keys,enter_14.rt,enter_14.duration
0.0002,8.5197,return,8.5152,,V1_009,20,female,2024-04-29_17h02.09.461,jersey_experiment_5_v1,2023.2.2,Win32,84.74576271,,,,,,,,,,,,,,,,,,,,,,,,,,,,,,,,,,,,,,,,,,,,,,,,,,,,,,,,,,,,,,,,,,,,,,,,,,,,,,
,,,,,V1_009,20,female,2024-04-29_17h02.09.461,jersey_experiment_5_v1,2023.2.2,Win32,84.74576271,8.5197,22.544,return,14.0003,,,,,,,,,,,,,,,,,,,,,,,,,,,,,,,,,,,,,,,,,,,,,,,,,,,,,,,,,,,,,,,,,,,,,,,,,,
,,,,,V1_009,20,female,2024-04-29_17h02.09.461,jersey_experiment_5_v1,2023.2.2,Win32,84.74576271,,,,,,22.5441,35.2973,return,12.7151,,,,,,,,,,,,,,,,,,,,,,,,,,,,,,,,,,,,,,,,,,,,,,,,,,,,,,,,,,,,,,,,,,,,,
,,,,,V1_009,20,female,2024-04-29_17h02.09.461,jersey_experiment_5_v1,2023.2.2,Win32,84.74576271,,,,,,,,,,,35.2973,57.1924,return,21.89,,,,,,,,,,,,,,,,,,,,,,,,,,,,,,,,,,,,,,,,,,,,,,,,,,,,,,,,,,,,,,,,
,,,,,V1_009,20,female,2024-04-29_17h02.09.461,jersey_experiment_5_v1,2023.2.2,Win32,84.74576271,,,,,,,,,,,,,,,,57.2004,58.4979,58.4979,75.4046,return,7.2985,,50.13020833,0,0,0,28,1,FBP-YG-19.png,0.43,1.2,29,0.5,,,,,,,,,,,,,,,,,,,,,,,,,,,,,,,,,,,,,,,,,,,,,
,,,,,V1_009,20,female,2024-04-29_17h02.09.461,jersey_experiment_5_v1,2023.2.2,Win32,84.74576271,,,,,,,,,,,,,,,,75.4088,76.7103,76.7103,81.0516,return,1.049,,25.13020833,0,1,1,36,1,FBP-OG-18.png,0.37,1.2,37,0.5,,,,,,,,,,,,,,,,,,,,,,,,,,,,,,,,,,,,,,,,,,,,,
,,,,,V1_009,20,female,2024-04-29_17h02.09.461,jersey_experiment_5_v1,2023.2.2,Win32,84.74576271,,,,,,,,,,,,,,,,81.0519,82.3458,82.3459,85.9696,return,0.9413,,56.38020833,0,2,2,16,1,FBP-YG-17.png,0.37,1.2,17,0.5,,,,,,,,,,,,,,,,,,,,,,,,,,,,,,,,,,,,,,,,,,,,,
,,,,,V1_009,20,female,2024-04-29_17h02.09.461,jersey_experiment_5_v1,2023.2.2,Win32,84.74576271,,,,,,,,,,,,,,,,85.9698,87.2637,87.2637,91.0873,return,1.0496,,71.875,0,3,3,57,1,FBP-RB-91.png,0.4,1.2,58,0.5,,,,,,,,,,,,,,,,,,,,,,,,,,,,,,,,,,,,,,,,,,,,,
,,,,,V1_009,20,female,2024-04-29_17h02.09.461,jersey_experiment_5_v1,2023.2.2,Win32,84.74576271,,,,,,,,,,,,,,,,91.0876,92.3815,92.3816,96.8874,return,1.1948,,17.96875,0,4,4,30,1,FBP-OG-17.png,0.35,1.2,31,0.5,,,,,,,,,,,,,,,,,,,,,,,,,,,,,,,,,,,,,,,,,,,,,
,,,,,V1_009,20,female,2024-04-29_17h02.09.461,jersey_experiment_5_v1,2023.2.2,Win32,84.74576271,,,,,,,,,,,,,,,,96.8876,98.6876,98.6877,101.5113,return,0.6797,,16.27604167,0,5,5,5,1,FBP-PT-81.png,0.35,1.2,6,1,,,,,,,,,,,,,,,,,,,,,,,,,,,,,,,,,,,,,,,,,,,,,
,,,,,V1_009,20,female,2024-04-29_17h02.09.461,jersey_experiment_5_v1,2023.2.2,Win32,84.74576271,,,,,,,,,,,,,,,,101.5115,102.8056,102.8056,106.7702,return,0.7395,,83.984375,0,6,6,53,1,FBP-RB-81.png,0.43,1.2,54,0.5,,,,,,,,,,,,,,,,,,,,,,,,,,,,,,,,,,,,,,,,,,,,,
,,,,,V1_009,20,female,2024-04-29_17h02.09.461,jersey_experiment_5_v1,2023.2.2,Win32,84.74576271,,,,,,,,,,,,,,,,106.7704,108.0645,108.0646,110.5115,return,0.9892,,85.80729167,0,7,7,58,1,FBP-RB-91.png,0.43,1.2,59,0.5,,,,,,,,,,,,,,,,,,,,,,,,,,,,,,,,,,,,,,,,,,,,,
,,,,,V1_009,20,female,2024-04-29_17h02.09.461,jersey_experiment_5_v1,2023.2.2,Win32,84.74576271,,,,,,,,,,,,,,,,110.5118,112.3117,112.3117,114.2999,return,0.6256,,91.796875,0,8,8,3,1,FBP-PT-71.png,0.43,1.2,4,1,,,,,,,,,,,,,,,,,,,,,,,,,,,,,,,,,,,,,,,,,,,,,
,,,,,V1_009,20,female,2024-04-29_17h02.09.461,jersey_experiment_5_v1,2023.2.2,Win32,84.74576271,,,,,,,,,,,,,,,,114.3001,116.1002,116.1002,117.6413,return,0.675,,92.31770833,0,9,9,8,1,FBP-PT-81.png,0.43,1.2,9,1,,,,,,,,,,,,,,,,,,,,,,,,,,,,,,,,,,,,,,,,,,,,,
,,,,,V1_009,20,female,2024-04-29_17h02.09.461,jersey_experiment_5_v1,2023.2.2,Win32,84.74576271,,,,,,,,,,,,,,,,117.6416,118.9355,118.9355,121.0532,return,0.8736,,92.31770833,0,10,10,33,1,FBP-OG-17.png,0.43,1.2,34,0.5,,,,,,,,,,,,,,,,,,,,,,,,,,,,,,,,,,,,,,,,,,,,,
,,,,,V1_009,20,female,2024-04-29_17h02.09.461,jersey_experiment_5_v1,2023.2.2,Win32,84.74576271,,,,,,,,,,,,,,,,121.0534,122.3473,122.3473,126.6652,return,0.8516,,50.78125,0,11,11,22,1,FBP-YG-18.png,0.4,1.2,23,0.5,,,,,,,,,,,,,,,,,,,,,,,,,,,,,,,,,,,,,,,,,,,,,
,,,,,V1_009,20,female,2024-04-29_17h02.09.461,jersey_experiment_5_v1,2023.2.2,Win32,84.74576271,,,,,,,,,,,,,,,,126.6654,127.9592,127.9593,131.5595,return,0.736,,85.41666667,0,12,12,48,1,FBP-RB-71.png,0.43,1.2,49,0.5,,,,,,,,,,,,,,,,,,,,,,,,,,,,,,,,,,,,,,,,,,,,,
,,,,,V1_009,20,female,2024-04-29_17h02.09.461,jersey_experiment_5_v1,2023.2.2,Win32,84.74576271,,,,,,,,,,,,,,,,131.5597,133.3594,133.3594,135.2772,return,0.7536,,93.22916667,0,13,13,4,1,FBP-PT-71.png,0.45,1.2,5,1,,,,,,,,,,,,,,,,,,,,,,,,,,,,,,,,,,,,,,,,,,,,,
,,,,,V1_009,20,female,2024-04-29_17h02.09.461,jersey_experiment_5_v1,2023.2.2,Win32,84.74576271,,,,,,,,,,,,,,,,135.2773,137.0772,137.0773,139.8539,return,0.6704,,5.338541667,0,14,14,10,1,FBP-PT-91.png,0.35,1.2,11,1,,,,,,,,,,,,,,,,,,,,,,,,,,,,,,,,,,,,,,,,,,,,,
,,,,,V1_009,20,female,2024-04-29_17h02.09.461,jersey_experiment_5_v1,2023.2.2,Win32,84.74576271,,,,,,,,,,,,,,,,139.854,141.148,141.148,144.5833,return,0.5736,,25.52083333,0,15,15,37,1,FBP-OG-18.png,0.4,1.2,38,0.5,,,,,,,,,,,,,,,,,,,,,,,,,,,,,,,,,,,,,,,,,,,,,
,,,,,V1_009,20,female,2024-04-29_17h02.09.461,jersey_experiment_5_v1,2023.2.2,Win32,84.74576271,,,,,,,,,,,,,,,,144.5835,145.8777,145.8777,147.9836,return,0.5792,,29.81770833,0,16,16,17,1,FBP-YG-17.png,0.4,1.2,18,0.5,,,,,,,,,,,,,,,,,,,,,,,,,,,,,,,,,,,,,,,,,,,,,
,,,,,V1_009,20,female,2024-04-29_17h02.09.461,jersey_experiment_5_v1,2023.2.2,Win32,84.74576271,,,,,,,,,,,,,,,,147.9839,149.2779,149.2779,151.4074,return,0.6366,,3.255208333,0,17,17,15,1,FBP-YG-17.png,0.35,1.2,16,0.5,,,,,,,,,,,,,,,,,,,,,,,,,,,,,,,,,,,,,,,,,,,,,
,,,,,V1_009,20,female,2024-04-29_17h02.09.461,jersey_experiment_5_v1,2023.2.2,Win32,84.74576271,,,,,,,,,,,,,,,,151.4076,152.7015,152.7015,155.9486,return,0.6489,,50.65104167,0,18,18,56,1,FBP-RB-91.png,0.37,1.2,57,0.5,,,,,,,,,,,,,,,,,,,,,,,,,,,,,,,,,,,,,,,,,,,,,
,,,,,V1_009,20,female,2024-04-29_17h02.09.461,jersey_experiment_5_v1,2023.2.2,Win32,84.74576271,,,,,,,,,,,,,,,,155.9488,157.2432,157.2432,159.4309,return,0.5597,,92.96875,0,19,19,34,1,FBP-OG-17.png,0.45,1.2,35,0.5,,,,,,,,,,,,,,,,,,,,,,,,,,,,,,,,,,,,,,,,,,,,,
,,,,,V1_009,20,female,2024-04-29_17h02.09.461,jersey_experiment_5_v1,2023.2.2,Win32,84.74576271,,,,,,,,,,,,,,,,159.4311,160.7252,160.7253,162.3958,return,0.6023,,95.3125,0,20,20,49,1,FBP-RB-71.png,0.45,1.2,50,0.5,,,,,,,,,,,,,,,,,,,,,,,,,,,,,,,,,,,,,,,,,,,,,
,,,,,V1_009,20,female,2024-04-29_17h02.09.461,jersey_experiment_5_v1,2023.2.2,Win32,84.74576271,,,,,,,,,,,,,,,,162.396,163.69,163.69,167.7137,return,0.7159,,49.21875,0,21,21,27,1,FBP-YG-19.png,0.4,1.2,28,0.5,,,,,,,,,,,,,,,,,,,,,,,,,,,,,,,,,,,,,,,,,,,,,
,,,,,V1_009,20,female,2024-04-29_17h02.09.461,jersey_experiment_5_v1,2023.2.2,Win32,84.74576271,,,,,,,,,,,,,,,,167.7139,169.0079,169.0079,171.6081,return,0.6315,,24.34895833,0,22,22,51,1,FBP-RB-81.png,0.37,1.2,52,0.5,,,,,,,,,,,,,,,,,,,,,,,,,,,,,,,,,,,,,,,,,,,,,
,,,,,V1_009,20,female,2024-04-29_17h02.09.461,jersey_experiment_5_v1,2023.2.2,Win32,84.74576271,,,,,,,,,,,,,,,,171.6084,173.4082,173.4082,176.126,return,0.5644,,66.40625,0,23,23,2,1,FBP-PT-71.png,0.4,1.2,3,1,,,,,,,,,,,,,,,,,,,,,,,,,,,,,,,,,,,,,,,,,,,,,
,,,,,V1_009,20,female,2024-04-29_17h02.09.461,jersey_experiment_5_v1,2023.2.2,Win32,84.74576271,,,,,,,,,,,,,,,,176.1262,177.9259,177.926,181.3378,return,0.6421,,43.88020833,0,24,24,6,1,FBP-PT-81.png,0.37,1.2,7,1,,,,,,,,,,,,,,,,,,,,,,,,,,,,,,,,,,,,,,,,,,,,,
,,,,,V1_009,20,female,2024-04-29_17h02.09.461,jersey_experiment_5_v1,2023.2.2,Win32,84.74576271,,,,,,,,,,,,,,,,181.338,183.138,183.138,186.7145,return,0.5355,,75.13020833,0,25,25,13,1,FBP-PT-91.png,0.43,1.2,14,1,,,,,,,,,,,,,,,,,,,,,,,,,,,,,,,,,,,,,,,,,,,,,
,,,,,V1_009,20,female,2024-04-29_17h02.09.461,jersey_experiment_5_v1,2023.2.2,Win32,84.74576271,,,,,,,,,,,,,,,,186.7148,188.0087,188.0087,189.7145,return,0.5736,,74.08854167,0,26,26,38,1,FBP-OG-18.png,0.43,1.2,39,0.5,,,,,,,,,,,,,,,,,,,,,,,,,,,,,,,,,,,,,,,,,,,,,
,,,,,V1_009,20,female,2024-04-29_17h02.09.461,jersey_experiment_5_v1,2023.2.2,Win32,84.74576271,,,,,,,,,,,,,,,,189.7147,191.0088,191.0088,193.6558,return,0.6321,,47.65625,0,27,27,42,1,FBP-OG-19.png,0.4,1.2,43,0.5,,,,,,,,,,,,,,,,,,,,,,,,,,,,,,,,,,,,,,,,,,,,,
,,,,,V1_009,20,female,2024-04-29_17h02.09.461,jersey_experiment_5_v1,2023.2.2,Win32,84.74576271,,,,,,,,,,,,,,,,193.6561,194.9502,194.9502,198.668,return,0.5576,,28.125,0,28,28,31,1,FBP-OG-17.png,0.37,1.2,32,0.5,,,,,,,,,,,,,,,,,,,,,,,,,,,,,,,,,,,,,,,,,,,,,
,,,,,V1_009,20,female,2024-04-29_17h02.09.461,jersey_experiment_5_v1,2023.2.2,Win32,84.74576271,,,,,,,,,,,,,,,,198.6682,199.9621,199.9621,202.9857,return,0.5477,,24.86979167,0,29,29,26,1,FBP-YG-19.png,0.37,1.2,27,0.5,,,,,,,,,,,,,,,,,,,,,,,,,,,,,,,,,,,,,,,,,,,,,
,,,,,V1_009,20,female,2024-04-29_17h02.09.461,jersey_experiment_5_v1,2023.2.2,Win32,84.74576271,,,,,,,,,,,,,,,,202.9859,204.2799,204.2799,206.3506,return,0.623,,75.13020833,0,30,30,24,1,FBP-YG-18.png,0.45,1.2,25,0.5,,,,,,,,,,,,,,,,,,,,,,,,,,,,,,,,,,,,,,,,,,,,,
,,,,,V1_009,20,female,2024-04-29_17h02.09.461,jersey_experiment_5_v1,2023.2.2,Win32,84.74576271,,,,,,,,,,,,,,,,206.3508,208.1509,208.1509,210.1273,return,0.6355,,0.390625,0,31,31,0,1,FBP-PT-71.png,0.35,1.2,1,1,,,,,,,,,,,,,,,,,,,,,,,,,,,,,,,,,,,,,,,,,,,,,
,,,,,V1_009,20,female,2024-04-29_17h02.09.461,jersey_experiment_5_v1,2023.2.2,Win32,84.74576271,,,,,,,,,,,,,,,,210.1276,211.4213,211.4213,213.5156,return,0.5579,,11.328125,0,32,32,46,1,FBP-RB-71.png,0.37,1.2,47,0.5,,,,,,,,,,,,,,,,,,,,,,,,,,,,,,,,,,,,,,,,,,,,,
,,,,,V1_009,20,female,2024-04-29_17h02.09.461,jersey_experiment_5_v1,2023.2.2,Win32,84.74576271,,,,,,,,,,,,,,,,213.5158,215.3157,215.3158,217.7275,return,0.5316,,89.97395833,0,33,33,9,1,FBP-PT-81.png,0.45,1.2,10,1,,,,,,,,,,,,,,,,,,,,,,,,,,,,,,,,,,,,,,,,,,,,,
,,,,,V1_009,20,female,2024-04-29_17h02.09.461,jersey_experiment_5_v1,2023.2.2,Win32,84.74576271,,,,,,,,,,,,,,,,217.7276,219.0217,219.0217,221.8689,return,0.6271,,2.083333333,0,34,34,50,1,FBP-RB-81.png,0.35,1.2,51,0.5,,,,,,,,,,,,,,,,,,,,,,,,,,,,,,,,,,,,,,,,,,,,,
,,,,,V1_009,20,female,2024-04-29_17h02.09.461,jersey_experiment_5_v1,2023.2.2,Win32,84.74576271,,,,,,,,,,,,,,,,221.8691,223.669,223.669,226.4808,return,1.3407,,24.21875,0,35,35,1,1,FBP-PT-71.png,0.37,1.2,2,1,,,,,,,,,,,,,,,,,,,,,,,,,,,,,,,,,,,,,,,,,,,,,
,,,,,V1_009,20,female,2024-04-29_17h02.09.461,jersey_experiment_5_v1,2023.2.2,Win32,84.74576271,,,,,,,,,,,,,,,,226.481,227.7749,227.7749,230.1515,return,0.6889,,93.48958333,0,36,36,54,1,FBP-RB-81.png,0.45,1.2,55,0.5,,,,,,,,,,,,,,,,,,,,,,,,,,,,,,,,,,,,,,,,,,,,,
,,,,,V1_009,20,female,2024-04-29_17h02.09.461,jersey_experiment_5_v1,2023.2.2,Win32,84.74576271,,,,,,,,,,,,,,,,230.1516,231.4457,231.4457,234.5514,return,1.0177,,5.989583333,0,37,37,40,1,FBP-OG-19.png,0.35,1.2,41,0.5,,,,,,,,,,,,,,,,,,,,,,,,,,,,,,,,,,,,,,,,,,,,,
,,,,,V1_009,20,female,2024-04-29_17h02.09.461,jersey_experiment_5_v1,2023.2.2,Win32,84.74576271,,,,,,,,,,,,,,,,234.5516,235.8458,235.8458,242.2695,return,0.6263,,72.39583333,0,38,38,52,1,FBP-RB-81.png,0.4,1.2,53,0.5,,,,,,,,,,,,,,,,,,,,,,,,,,,,,,,,,,,,,,,,,,,,,
,,,,,V1_009,20,female,2024-04-29_17h02.09.461,jersey_experiment_5_v1,2023.2.2,Win32,84.74576271,,,,,,,,,,,,,,,,242.2697,243.5639,243.5639,245.1518,return,0.5511,,78.38541667,0,39,39,18,1,FBP-YG-17.png,0.43,1.2,19,0.5,,,,,,,,,,,,,,,,,,,,,,,,,,,,,,,,,,,,,,,,,,,,,
,,,,,V1_009,20,female,2024-04-29_17h02.09.461,jersey_experiment_5_v1,2023.2.2,Win32,84.74576271,,,,,,,,,,,,,,,,245.1521,246.4461,246.4461,250.5404,return,0.5311,,25.13020833,0,40,40,20,1,FBP-YG-18.png,0.35,1.2,21,0.5,,,,,,,,,,,,,,,,,,,,,,,,,,,,,,,,,,,,,,,,,,,,,
,,,,,V1_009,20,female,2024-04-29_17h02.09.461,jersey_experiment_5_v1,2023.2.2,Win32,84.74576271,,,,,,,,,,,,,,,,250.5406,252.3406,252.3406,257.129,return,0.643,,52.86458333,0,41,41,7,1,FBP-PT-81.png,0.4,1.2,8,1,,,,,,,,,,,,,,,,,,,,,,,,,,,,,,,,,,,,,,,,,,,,,
,,,,,V1_009,20,female,2024-04-29_17h02.09.461,jersey_experiment_5_v1,2023.2.2,Win32,84.74576271,,,,,,,,,,,,,,,,257.1293,258.423,258.423,260.823,return,0.5364,,63.28125,0,42,42,23,1,FBP-YG-18.png,0.43,1.2,24,0.5,,,,,,,,,,,,,,,,,,,,,,,,,,,,,,,,,,,,,,,,,,,,,
,,,,,V1_009,20,female,2024-04-29_17h02.09.461,jersey_experiment_5_v1,2023.2.2,Win32,84.74576271,,,,,,,,,,,,,,,,260.8233,262.1174,262.1174,263.4704,return,0.5791,,63.28125,0,43,43,32,1,FBP-OG-17.png,0.4,1.2,33,0.5,,,,,,,,,,,,,,,,,,,,,,,,,,,,,,,,,,,,,,,,,,,,,
,,,,,V1_009,20,female,2024-04-29_17h02.09.461,jersey_experiment_5_v1,2023.2.2,Win32,84.74576271,,,,,,,,,,,,,,,,263.4705,264.7644,264.7644,267.6588,return,1.5094,,75.26041667,0,44,44,44,1,FBP-OG-19.png,0.45,1.2,45,0.5,,,,,,,,,,,,,,,,,,,,,,,,,,,,,,,,,,,,,,,,,,,,,
,,,,,V1_009,20,female,2024-04-29_17h02.09.461,jersey_experiment_5_v1,2023.2.2,Win32,84.74576271,,,,,,,,,,,,,,,,267.659,268.953,268.953,271.7413,return,0.5774,,6.119791667,0,45,45,41,1,FBP-OG-19.png,0.37,1.2,42,0.5,,,,,,,,,,,,,,,,,,,,,,,,,,,,,,,,,,,,,,,,,,,,,
,,,,,V1_009,20,female,2024-04-29_17h02.09.461,jersey_experiment_5_v1,2023.2.2,Win32,84.74576271,,,,,,,,,,,,,,,,271.7415,273.0354,273.0354,275.3415,return,0.7564,,94.66145833,0,46,46,19,1,FBP-YG-17.png,0.45,1.2,20,0.5,,,,,,,,,,,,,,,,,,,,,,,,,,,,,,,,,,,,,,,,,,,,,
,,,,,V1_009,20,female,2024-04-29_17h02.09.461,jersey_experiment_5_v1,2023.2.2,Win32,84.74576271,,,,,,,,,,,,,,,,275.3417,276.6357,276.6357,279.0004,return,0.6647,,49.86979167,0,47,47,21,1,FBP-YG-18.png,0.37,1.2,22,0.5,,,,,,,,,,,,,,,,,,,,,,,,,,,,,,,,,,,,,,,,,,,,,
,,,,,V1_009,20,female,2024-04-29_17h02.09.461,jersey_experiment_5_v1,2023.2.2,Win32,84.74576271,,,,,,,,,,,,,,,,279.0006,280.2946,280.2946,282.8006,return,0.4941,,79.94791667,0,48,48,39,1,FBP-OG-18.png,0.45,1.2,40,0.5,,,,,,,,,,,,,,,,,,,,,,,,,,,,,,,,,,,,,,,,,,,,,
,,,,,V1_009,20,female,2024-04-29_17h02.09.461,jersey_experiment_5_v1,2023.2.2,Win32,84.74576271,,,,,,,,,,,,,,,,282.8007,284.0947,284.0947,285.7301,return,0.5315,,96.09375,0,49,49,59,1,FBP-RB-91.png,0.45,1.2,60,0.5,,,,,,,,,,,,,,,,,,,,,,,,,,,,,,,,,,,,,,,,,,,,,
,,,,,V1_009,20,female,2024-04-29_17h02.09.461,jersey_experiment_5_v1,2023.2.2,Win32,84.74576271,,,,,,,,,,,,,,,,285.7303,287.0241,287.0241,289.6711,return,0.5739,,6.901041667,0,50,50,25,1,FBP-YG-19.png,0.35,1.2,26,0.5,,,,,,,,,,,,,,,,,,,,,,,,,,,,,,,,,,,,,,,,,,,,,
,,,,,V1_009,20,female,2024-04-29_17h02.09.461,jersey_experiment_5_v1,2023.2.2,Win32,84.74576271,,,,,,,,,,,,,,,,289.6715,290.9654,290.9654,294.201,return,0.5465,,44.79166667,0,51,51,45,1,FBP-RB-71.png,0.35,1.2,46,0.5,,,,,,,,,,,,,,,,,,,,,,,,,,,,,,,,,,,,,,,,,,,,,
,,,,,V1_009,20,female,2024-04-29_17h02.09.461,jersey_experiment_5_v1,2023.2.2,Win32,84.74576271,,,,,,,,,,,,,,,,294.2012,296.0012,296.0013,297.4834,return,0.5931,,44.79166667,0,52,52,11,1,FBP-PT-91.png,0.37,1.2,12,1,,,,,,,,,,,,,,,,,,,,,,,,,,,,,,,,,,,,,,,,,,,,,
,,,,,V1_009,20,female,2024-04-29_17h02.09.461,jersey_experiment_5_v1,2023.2.2,Win32,84.74576271,,,,,,,,,,,,,,,,297.4835,298.7776,298.7776,301.9307,return,0.6646,,49.73958333,0,53,53,35,1,FBP-OG-18.png,0.35,1.2,36,0.5,,,,,,,,,,,,,,,,,,,,,,,,,,,,,,,,,,,,,,,,,,,,,
,,,,,V1_009,20,female,2024-04-29_17h02.09.461,jersey_experiment_5_v1,2023.2.2,Win32,84.74576271,,,,,,,,,,,,,,,,301.931,303.2248,303.2248,305.1661,return,0.9558,,49.73958333,0,54,54,55,1,FBP-RB-91.png,0.35,1.2,56,0.5,,,,,,,,,,,,,,,,,,,,,,,,,,,,,,,,,,,,,,,,,,,,,
,,,,,V1_009,20,female,2024-04-29_17h02.09.461,jersey_experiment_5_v1,2023.2.2,Win32,84.74576271,,,,,,,,,,,,,,,,305.1663,306.4602,306.4602,308.8721,return,0.6297,,95.57291667,0,55,55,29,1,FBP-YG-19.png,0.45,1.2,30,0.5,,,,,,,,,,,,,,,,,,,,,,,,,,,,,,,,,,,,,,,,,,,,,
,,,,,V1_009,20,female,2024-04-29_17h02.09.461,jersey_experiment_5_v1,2023.2.2,Win32,84.74576271,,,,,,,,,,,,,,,,308.8723,310.6723,310.6723,312.4605,return,0.6043,,50.26041667,0,56,56,12,1,FBP-PT-91.png,0.4,1.2,13,1,,,,,,,,,,,,,,,,,,,,,,,,,,,,,,,,,,,,,,,,,,,,,
,,,,,V1_009,20,female,2024-04-29_17h02.09.461,jersey_experiment_5_v1,2023.2.2,Win32,84.74576271,,,,,,,,,,,,,,,,312.4607,313.7546,313.7547,315.9665,return,0.5083,,92.1875,0,57,57,43,1,FBP-OG-19.png,0.43,1.2,44,0.5,,,,,,,,,,,,,,,,,,,,,,,,,,,,,,,,,,,,,,,,,,,,,
,,,,,V1_009,20,female,2024-04-29_17h02.09.461,jersey_experiment_5_v1,2023.2.2,Win32,84.74576271,,,,,,,,,,,,,,,,315.9667,317.2606,317.2607,319.0842,return,0.5218,,77.734375,0,58,58,47,1,FBP-RB-71.png,0.4,1.2,48,0.5,,,,,,,,,,,,,,,,,,,,,,,,,,,,,,,,,,,,,,,,,,,,,
,,,,,V1_009,20,female,2024-04-29_17h02.09.461,jersey_experiment_5_v1,2023.2.2,Win32,84.74576271,,,,,,,,,,,,,,,,319.0844,320.8843,320.8843,322.7197,return,0.7065,,90.49479167,0,59,59,14,1,FBP-PT-91.png,0.45,1.2,15,1,,,,,,,,,,,,,,,,,,,,,,,,,,,,,,,,,,,,,,,,,,,,,
,,,,,V1_009,20,female,2024-04-29_17h02.09.461,jersey_experiment_5_v1,2023.2.2,Win32,84.74576271,,,,,,,,,,,,,,,,322.7216,324.014,324.014,327.8491,return,2.1369,,31.11979167,,,,,,FBP-YG-81.png,0.35,1.2,21,0.5,0,0,0,20,1,,,,,,,,,,,,,,,,,,,,,,,,,,,,,,,,,,,,,,,,
,,,,,V1_009,20,female,2024-04-29_17h02.09.461,jersey_experiment_5_v1,2023.2.2,Win32,84.74576271,,,,,,,,,,,,,,,,327.8495,329.1435,329.1435,333.5788,return,0.5327,,5.859375,,,,,,FBP-OG-91.png,0.35,1.2,41,0.5,0,1,1,40,1,,,,,,,,,,,,,,,,,,,,,,,,,,,,,,,,,,,,,,,,
,,,,,V1_009,20,female,2024-04-29_17h02.09.461,jersey_experiment_5_v1,2023.2.2,Win32,84.74576271,,,,,,,,,,,,,,,,333.579,334.8729,334.873,336.2496,return,0.64,,5.598958333,,,,,,FBP-YG-91.png,0.37,1.2,27,0.5,0,2,2,26,1,,,,,,,,,,,,,,,,,,,,,,,,,,,,,,,,,,,,,,,,
,,,,,V1_009,20,female,2024-04-29_17h02.09.461,jersey_experiment_5_v1,2023.2.2,Win32,84.74576271,,,,,,,,,,,,,,,,336.2497,337.5436,337.5437,339.6967,return,0.48,,71.35416667,,,,,,FBP-YG-91.png,0.43,1.2,29,0.5,0,3,3,28,1,,,,,,,,,,,,,,,,,,,,,,,,,,,,,,,,,,,,,,,,
,,,,,V1_009,20,female,2024-04-29_17h02.09.461,jersey_experiment_5_v1,2023.2.2,Win32,84.74576271,,,,,,,,,,,,,,,,339.6968,340.9909,340.9909,342.344,return,0.5141,,84.63541667,,,,,,FBP-OG-71.png,0.43,1.2,34,0.5,0,4,4,33,1,,,,,,,,,,,,,,,,,,,,,,,,,,,,,,,,,,,,,,,,
,,,,,V1_009,20,female,2024-04-29_17h02.09.461,jersey_experiment_5_v1,2023.2.2,Win32,84.74576271,,,,,,,,,,,,,,,,342.3442,343.6382,343.6382,345.6146,return,0.5177,,71.22395833,,,,,,FBP-RB-19.png,0.43,1.2,59,0.5,0,5,5,58,1,,,,,,,,,,,,,,,,,,,,,,,,,,,,,,,,,,,,,,,,
,,,,,V1_009,20,female,2024-04-29_17h02.09.461,jersey_experiment_5_v1,2023.2.2,Win32,84.74576271,,,,,,,,,,,,,,,,345.6148,346.9088,346.9088,349.2619,return,0.9559,,49.86979167,,,,,,FBP-YG-81.png,0.37,1.2,22,0.5,0,6,6,21,1,,,,,,,,,,,,,,,,,,,,,,,,,,,,,,,,,,,,,,,,
,,,,,V1_009,20,female,2024-04-29_17h02.09.461,jersey_experiment_5_v1,2023.2.2,Win32,84.74576271,,,,,,,,,,,,,,,,349.2621,350.5561,350.5561,352.7326,return,0.6253,,56.51041667,,,,,,FBP-YG-81.png,0.4,1.2,23,0.5,0,7,7,22,1,,,,,,,,,,,,,,,,,,,,,,,,,,,,,,,,,,,,,,,,
,,,,,V1_009,20,female,2024-04-29_17h02.09.461,jersey_experiment_5_v1,2023.2.2,Win32,84.74576271,,,,,,,,,,,,,,,,352.7327,354.0268,354.0268,355.1914,return,0.5624,,56.51041667,,,,,,FBP-YG-71.png,0.4,1.2,18,0.5,0,8,8,17,1,,,,,,,,,,,,,,,,,,,,,,,,,,,,,,,,,,,,,,,,
,,,,,V1_009,20,female,2024-04-29_17h02.09.461,jersey_experiment_5_v1,2023.2.2,Win32,84.74576271,,,,,,,,,,,,,,,,355.1916,356.4856,356.4856,360.1682,return,0.5493,,22.265625,,,,,,FBP-RB-19.png,0.37,1.2,57,0.5,0,9,9,56,1,,,,,,,,,,,,,,,,,,,,,,,,,,,,,,,,,,,,,,,,
,,,,,V1_009,20,female,2024-04-29_17h02.09.461,jersey_experiment_5_v1,2023.2.2,Win32,84.74576271,,,,,,,,,,,,,,,,360.1684,361.4623,361.4623,363.1682,return,0.7298,,20.18229167,,,,,,FBP-RB-18.png,0.37,1.2,52,0.5,0,10,10,51,1,,,,,,,,,,,,,,,,,,,,,,,,,,,,,,,,,,,,,,,,
,,,,,V1_009,20,female,2024-04-29_17h02.09.461,jersey_experiment_5_v1,2023.2.2,Win32,84.74576271,,,,,,,,,,,,,,,,363.1684,364.9682,364.9682,367.8742,return,0.5411,,49.609375,,,,,,FBP-PT-17.png,0.37,1.2,2,1,0,11,11,1,1,,,,,,,,,,,,,,,,,,,,,,,,,,,,,,,,,,,,,,,,
,,,,,V1_009,20,female,2024-04-29_17h02.09.461,jersey_experiment_5_v1,2023.2.2,Win32,84.74576271,,,,,,,,,,,,,,,,367.8745,369.6746,369.6746,371.4509,return,0.5441,,33.46354167,,,,,,FBP-PT-17.png,0.35,1.2,1,1,0,12,12,0,1,,,,,,,,,,,,,,,,,,,,,,,,,,,,,,,,,,,,,,,,
,,,,,V1_009,20,female,2024-04-29_17h02.09.461,jersey_experiment_5_v1,2023.2.2,Win32,84.74576271,,,,,,,,,,,,,,,,371.4512,372.745,372.745,374.3334,return,0.5299,,31.640625,,,,,,FBP-OG-81.png,0.35,1.2,36,0.5,0,13,13,35,1,,,,,,,,,,,,,,,,,,,,,,,,,,,,,,,,,,,,,,,,
,,,,,V1_009,20,female,2024-04-29_17h02.09.461,jersey_experiment_5_v1,2023.2.2,Win32,84.74576271,,,,,,,,,,,,,,,,374.3337,376.1336,376.1336,377.7453,return,0.5737,,82.16145833,,,,,,FBP-PT-17.png,0.43,1.2,4,1,0,14,14,3,1,,,,,,,,,,,,,,,,,,,,,,,,,,,,,,,,,,,,,,,,
,,,,,V1_009,20,female,2024-04-29_17h02.09.461,jersey_experiment_5_v1,2023.2.2,Win32,84.74576271,,,,,,,,,,,,,,,,377.7454,379.0393,379.0393,381.4747,return,0.5549,,59.50520833,,,,,,FBP-YG-91.png,0.4,1.2,28,0.5,0,15,15,27,1,,,,,,,,,,,,,,,,,,,,,,,,,,,,,,,,,,,,,,,,
,,,,,V1_009,20,female,2024-04-29_17h02.09.461,jersey_experiment_5_v1,2023.2.2,Win32,84.74576271,,,,,,,,,,,,,,,,381.4749,382.769,382.769,385.7219,return,2.0772,,68.61979167,,,,,,FBP-YG-81.png,0.43,1.2,24,0.5,0,16,16,23,1,,,,,,,,,,,,,,,,,,,,,,,,,,,,,,,,,,,,,,,,
,,,,,V1_009,20,female,2024-04-29_17h02.09.461,jersey_experiment_5_v1,2023.2.2,Win32,84.74576271,,,,,,,,,,,,,,,,385.7221,387.0163,387.0163,390.287,return,0.576,,39.58333333,,,,,,FBP-RB-17.png,0.37,1.2,47,0.5,0,17,17,46,1,,,,,,,,,,,,,,,,,,,,,,,,,,,,,,,,,,,,,,,,
,,,,,V1_009,20,female,2024-04-29_17h02.09.461,jersey_experiment_5_v1,2023.2.2,Win32,84.74576271,,,,,,,,,,,,,,,,390.2873,392.0872,392.0872,393.7928,return,0.6116,,90.625,,,,,,FBP-PT-17.png,0.45,1.2,5,1,0,18,18,4,1,,,,,,,,,,,,,,,,,,,,,,,,,,,,,,,,,,,,,,,,
,,,,,V1_009,20,female,2024-04-29_17h02.09.461,jersey_experiment_5_v1,2023.2.2,Win32,84.74576271,,,,,,,,,,,,,,,,393.793,395.0871,395.0871,397.7224,return,0.6414,,0.260416667,,,,,,FBP-RB-18.png,0.35,1.2,51,0.5,0,19,19,50,1,,,,,,,,,,,,,,,,,,,,,,,,,,,,,,,,,,,,,,,,
,,,,,V1_009,20,female,2024-04-29_17h02.09.461,jersey_experiment_5_v1,2023.2.2,Win32,84.74576271,,,,,,,,,,,,,,,,397.7226,399.0166,399.0166,401.2638,return,0.5893,,87.76041667,,,,,,FBP-YG-71.png,0.45,1.2,20,0.5,0,20,20,19,1,,,,,,,,,,,,,,,,,,,,,,,,,,,,,,,,,,,,,,,,
,,,,,V1_009,20,female,2024-04-29_17h02.09.461,jersey_experiment_5_v1,2023.2.2,Win32,84.74576271,,,,,,,,,,,,,,,,401.264,402.558,402.558,405.5346,return,0.543,,72.52604167,,,,,,FBP-RB-18.png,0.43,1.2,54,0.5,0,21,21,53,1,,,,,,,,,,,,,,,,,,,,,,,,,,,,,,,,,,,,,,,,
,,,,,V1_009,20,female,2024-04-29_17h02.09.461,jersey_experiment_5_v1,2023.2.2,Win32,84.74576271,,,,,,,,,,,,,,,,405.5349,406.8287,406.8287,408.8876,return,1.0092,,68.22916667,,,,,,FBP-YG-71.png,0.43,1.2,19,0.5,0,22,22,18,1,,,,,,,,,,,,,,,,,,,,,,,,,,,,,,,,,,,,,,,,
,,,,,V1_009,20,female,2024-04-29_17h02.09.461,jersey_experiment_5_v1,2023.2.2,Win32,84.74576271,,,,,,,,,,,,,,,,408.8878,410.6876,410.6876,412.2053,return,0.5423,,50,,,,,,FBP-PT-19.png,0.4,1.2,13,1,0,23,23,12,1,,,,,,,,,,,,,,,,,,,,,,,,,,,,,,,,,,,,,,,,
,,,,,V1_009,20,female,2024-04-29_17h02.09.461,jersey_experiment_5_v1,2023.2.2,Win32,84.74576271,,,,,,,,,,,,,,,,412.2055,413.4996,413.4996,418.1586,return,1.6849,,25.13020833,,,,,,FBP-YG-71.png,0.37,1.2,17,0.5,0,24,24,16,1,,,,,,,,,,,,,,,,,,,,,,,,,,,,,,,,,,,,,,,,
,,,,,V1_009,20,female,2024-04-29_17h02.09.461,jersey_experiment_5_v1,2023.2.2,Win32,84.74576271,,,,,,,,,,,,,,,,418.1588,419.4528,419.4528,422.3822,return,0.3555,,35.41666667,,,,,,FBP-RB-17.png,0.4,1.2,48,0.5,0,25,25,47,1,,,,,,,,,,,,,,,,,,,,,,,,,,,,,,,,,,,,,,,,
,,,,,V1_009,20,female,2024-04-29_17h02.09.461,jersey_experiment_5_v1,2023.2.2,Win32,84.74576271,,,,,,,,,,,,,,,,422.3824,423.6765,423.6765,424.8647,return,0.2034,,1.5625,,,,,,FBP-YG-91.png,0.35,1.2,26,0.5,0,26,26,25,1,,,,,,,,,,,,,,,,,,,,,,,,,,,,,,,,,,,,,,,,
,,,,,V1_009,20,female,2024-04-29_17h02.09.461,jersey_experiment_5_v1,2023.2.2,Win32,84.74576271,,,,,,,,,,,,,,,,424.8648,426.1588,426.1589,428.1589,return,0.0854,,50.13020833,,,,,,FBP-OG-71.png,0.4,1.2,33,0.5,0,27,27,32,1,,,,,,,,,,,,,,,,,,,,,,,,,,,,,,,,,,,,,,,,
,,,,,V1_009,20,female,2024-04-29_17h02.09.461,jersey_experiment_5_v1,2023.2.2,Win32,84.74576271,,,,,,,,,,,,,,,,428.1592,429.9592,429.9592,431.218,return,0.1656,,95.703125,,,,,,FBP-PT-18.png,0.45,1.2,10,1,0,28,28,9,1,,,,,,,,,,,,,,,,,,,,,,,,,,,,,,,,,,,,,,,,
,,,,,V1_009,20,female,2024-04-29_17h02.09.461,jersey_experiment_5_v1,2023.2.2,Win32,84.74576271,,,,,,,,,,,,,,,,431.2182,432.5124,432.5124,438.6653,return,0.3367,,1.822916667,,,,,,FBP-OG-71.png,0.37,1.2,32,0.5,0,29,29,31,1,,,,,,,,,,,,,,,,,,,,,,,,,,,,,,,,,,,,,,,,
,,,,,V1_009,20,female,2024-04-29_17h02.09.461,jersey_experiment_5_v1,2023.2.2,Win32,84.74576271,,,,,,,,,,,,,,,,438.6653,439.9592,439.9592,441.6183,return,0.1652,,74.73958333,,,,,,FBP-OG-71.png,0.45,1.2,35,0.5,0,30,30,34,1,,,,,,,,,,,,,,,,,,,,,,,,,,,,,,,,,,,,,,,,
,,,,,V1_009,20,female,2024-04-29_17h02.09.461,jersey_experiment_5_v1,2023.2.2,Win32,84.74576271,,,,,,,,,,,,,,,,441.6185,442.9124,442.9124,444.9594,return,0.236,,7.161458333,,,,,,FBP-RB-17.png,0.35,1.2,46,0.5,0,31,31,45,1,,,,,,,,,,,,,,,,,,,,,,,,,,,,,,,,,,,,,,,,
,,,,,V1_009,20,female,2024-04-29_17h02.09.461,jersey_experiment_5_v1,2023.2.2,Win32,84.74576271,,,,,,,,,,,,,,,,444.9597,446.2537,446.2537,448.3951,return,0.2526,,85.80729167,,,,,,FBP-YG-81.png,0.45,1.2,25,0.5,0,32,32,24,1,,,,,,,,,,,,,,,,,,,,,,,,,,,,,,,,,,,,,,,,
,,,,,V1_009,20,female,2024-04-29_17h02.09.461,jersey_experiment_5_v1,2023.2.2,Win32,84.74576271,,,,,,,,,,,,,,,,448.3953,450.1952,450.1952,452.6189,return,0.8296,,2.864583333,,,,,,FBP-PT-18.png,0.35,1.2,6,1,0,33,33,5,1,,,,,,,,,,,,,,,,,,,,,,,,,,,,,,,,,,,,,,,,
,,,,,V1_009,20,female,2024-04-29_17h02.09.461,jersey_experiment_5_v1,2023.2.2,Win32,84.74576271,,,,,,,,,,,,,,,,452.619,453.9129,453.9129,455.2895,return,0.0989,,74.86979167,,,,,,FBP-RB-18.png,0.4,1.2,53,0.5,0,34,34,52,1,,,,,,,,,,,,,,,,,,,,,,,,,,,,,,,,,,,,,,,,
,,,,,V1_009,20,female,2024-04-29_17h02.09.461,jersey_experiment_5_v1,2023.2.2,Win32,84.74576271,,,,,,,,,,,,,,,,455.2897,456.5835,456.5835,458.3954,return,0.158,,99.21875,,,,,,FBP-OG-91.png,0.43,1.2,44,0.5,0,35,35,43,1,,,,,,,,,,,,,,,,,,,,,,,,,,,,,,,,,,,,,,,,
,,,,,V1_009,20,female,2024-04-29_17h02.09.461,jersey_experiment_5_v1,2023.2.2,Win32,84.74576271,,,,,,,,,,,,,,,,458.3956,459.6895,459.6895,460.7837,return,0.1518,,49.86979167,,,,,,FBP-OG-81.png,0.4,1.2,38,0.5,0,36,36,37,1,,,,,,,,,,,,,,,,,,,,,,,,,,,,,,,,,,,,,,,,
,,,,,V1_009,20,female,2024-04-29_17h02.09.461,jersey_experiment_5_v1,2023.2.2,Win32,84.74576271,,,,,,,,,,,,,,,,460.7839,462.0777,462.0778,464.0074,return,0.066,,81.51041667,,,,,,FBP-YG-91.png,0.45,1.2,30,0.5,0,37,37,29,1,,,,,,,,,,,,,,,,,,,,,,,,,,,,,,,,,,,,,,,,
,,,,,V1_009,20,female,2024-04-29_17h02.09.461,jersey_experiment_5_v1,2023.2.2,Win32,84.74576271,,,,,,,,,,,,,,,,464.0076,465.3014,465.3014,466.572,return,0.2961,,50,,,,,,FBP-RB-19.png,0.4,1.2,58,0.5,0,38,38,57,1,,,,,,,,,,,,,,,,,,,,,,,,,,,,,,,,,,,,,,,,
,,,,,V1_009,20,female,2024-04-29_17h02.09.461,jersey_experiment_5_v1,2023.2.2,Win32,84.74576271,,,,,,,,,,,,,,,,466.5723,468.3724,468.3724,470.2899,return,0.8323,,89.58333333,,,,,,FBP-PT-19.png,0.45,1.2,15,1,0,39,39,14,1,,,,,,,,,,,,,,,,,,,,,,,,,,,,,,,,,,,,,,,,
,,,,,V1_009,20,female,2024-04-29_17h02.09.461,jersey_experiment_5_v1,2023.2.2,Win32,84.74576271,,,,,,,,,,,,,,,,470.2901,472.0904,472.0904,472.9842,return,0.0905,,49.86979167,,,,,,FBP-PT-18.png,0.4,1.2,8,1,0,40,40,7,1,,,,,,,,,,,,,,,,,,,,,,,,,,,,,,,,,,,,,,,,
,,,,,V1_009,20,female,2024-04-29_17h02.09.461,jersey_experiment_5_v1,2023.2.2,Win32,84.74576271,,,,,,,,,,,,,,,,472.9844,474.7842,474.7842,476.8666,return,0.4241,,51.30208333,,,,,,FBP-PT-18.png,0.43,1.2,9,1,0,41,41,8,1,,,,,,,,,,,,,,,,,,,,,,,,,,,,,,,,,,,,,,,,
,,,,,V1_009,20,female,2024-04-29_17h02.09.461,jersey_experiment_5_v1,2023.2.2,Win32,84.74576271,,,,,,,,,,,,,,,,476.867,478.1609,478.1609,479.9375,return,0.2681,,73.30729167,,,,,,FBP-RB-19.png,0.45,1.2,60,0.5,0,42,42,59,1,,,,,,,,,,,,,,,,,,,,,,,,,,,,,,,,,,,,,,,,
,,,,,V1_009,20,female,2024-04-29_17h02.09.461,jersey_experiment_5_v1,2023.2.2,Win32,84.74576271,,,,,,,,,,,,,,,,479.9377,481.2315,481.2315,482.8433,return,0.2523,,70.44270833,,,,,,FBP-OG-81.png,0.43,1.2,39,0.5,0,43,43,38,1,,,,,,,,,,,,,,,,,,,,,,,,,,,,,,,,,,,,,,,,
,,,,,V1_009,20,female,2024-04-29_17h02.09.461,jersey_experiment_5_v1,2023.2.2,Win32,84.74576271,,,,,,,,,,,,,,,,482.8435,484.6435,484.6436,485.8316,return,0.1386,,57.03125,,,,,,FBP-PT-19.png,0.43,1.2,14,1,0,44,44,13,1,,,,,,,,,,,,,,,,,,,,,,,,,,,,,,,,,,,,,,,,
,,,,,V1_009,20,female,2024-04-29_17h02.09.461,jersey_experiment_5_v1,2023.2.2,Win32,84.74576271,,,,,,,,,,,,,,,,485.8319,487.1259,487.1259,489.1495,return,0.0473,,66.53645833,,,,,,FBP-OG-81.png,0.45,1.2,40,0.5,0,45,45,39,1,,,,,,,,,,,,,,,,,,,,,,,,,,,,,,,,,,,,,,,,
,,,,,V1_009,20,female,2024-04-29_17h02.09.461,jersey_experiment_5_v1,2023.2.2,Win32,84.74576271,,,,,,,,,,,,,,,,489.1497,490.4437,490.4437,492.0084,return,0.1259,,0.520833333,,,,,,FBP-OG-71.png,0.35,1.2,31,0.5,0,46,46,30,1,,,,,,,,,,,,,,,,,,,,,,,,,,,,,,,,,,,,,,,,
,,,,,V1_009,20,female,2024-04-29_17h02.09.461,jersey_experiment_5_v1,2023.2.2,Win32,84.74576271,,,,,,,,,,,,,,,,492.0085,493.8086,493.8086,495.1967,return,0.1799,,0.911458333,,,,,,FBP-PT-19.png,0.37,1.2,12,1,0,47,47,11,1,,,,,,,,,,,,,,,,,,,,,,,,,,,,,,,,,,,,,,,,
,,,,,V1_009,20,female,2024-04-29_17h02.09.461,jersey_experiment_5_v1,2023.2.2,Win32,84.74576271,,,,,,,,,,,,,,,,495.197,496.4909,496.491,498.491,return,0.2859,,0.260416667,,,,,,FBP-RB-19.png,0.35,1.2,56,0.5,0,48,48,55,1,,,,,,,,,,,,,,,,,,,,,,,,,,,,,,,,,,,,,,,,
,,,,,V1_009,20,female,2024-04-29_17h02.09.461,jersey_experiment_5_v1,2023.2.2,Win32,84.74576271,,,,,,,,,,,,,,,,498.4913,499.7852,499.7852,501.7263,return,0.1054,,74.47916667,,,,,,FBP-RB-18.png,0.45,1.2,55,0.5,0,49,49,54,1,,,,,,,,,,,,,,,,,,,,,,,,,,,,,,,,,,,,,,,,
,,,,,V1_009,20,female,2024-04-29_17h02.09.461,jersey_experiment_5_v1,2023.2.2,Win32,84.74576271,,,,,,,,,,,,,,,,501.7266,503.0205,503.0206,504.303,return,0.142,,80.72916667,,,,,,FBP-RB-17.png,0.45,1.2,50,0.5,0,50,50,49,1,,,,,,,,,,,,,,,,,,,,,,,,,,,,,,,,,,,,,,,,
,,,,,V1_009,20,female,2024-04-29_17h02.09.461,jersey_experiment_5_v1,2023.2.2,Win32,84.74576271,,,,,,,,,,,,,,,,504.3032,505.5971,505.5972,508.8325,return,0.2451,,2.34375,,,,,,FBP-YG-71.png,0.35,1.2,16,0.5,0,51,51,15,1,,,,,,,,,,,,,,,,,,,,,,,,,,,,,,,,,,,,,,,,
,,,,,V1_009,20,female,2024-04-29_17h02.09.461,jersey_experiment_5_v1,2023.2.2,Win32,84.74576271,,,,,,,,,,,,,,,,508.8327,510.6328,510.6328,511.9386,return,0.151,,50,,,,,,FBP-PT-17.png,0.4,1.2,3,1,0,52,52,2,1,,,,,,,,,,,,,,,,,,,,,,,,,,,,,,,,,,,,,,,,
,,,,,V1_009,20,female,2024-04-29_17h02.09.461,jersey_experiment_5_v1,2023.2.2,Win32,84.74576271,,,,,,,,,,,,,,,,511.9387,513.7388,513.7388,515.821,return,0.107,,10.41666667,,,,,,FBP-PT-18.png,0.37,1.2,7,1,0,53,53,6,1,,,,,,,,,,,,,,,,,,,,,,,,,,,,,,,,,,,,,,,,
,,,,,V1_009,20,female,2024-04-29_17h02.09.461,jersey_experiment_5_v1,2023.2.2,Win32,84.74576271,,,,,,,,,,,,,,,,515.8212,517.6214,517.6214,518.7625,return,0.2509,,0.260416667,,,,,,FBP-PT-19.png,0.35,1.2,11,1,0,54,54,10,1,,,,,,,,,,,,,,,,,,,,,,,,,,,,,,,,,,,,,,,,
,,,,,V1_009,20,female,2024-04-29_17h02.09.461,jersey_experiment_5_v1,2023.2.2,Win32,84.74576271,,,,,,,,,,,,,,,,518.7627,520.0564,520.0564,521.8683,return,0.2492,,0.78125,,,,,,FBP-OG-91.png,0.37,1.2,42,0.5,0,55,55,41,1,,,,,,,,,,,,,,,,,,,,,,,,,,,,,,,,,,,,,,,,
,,,,,V1_009,20,female,2024-04-29_17h02.09.461,jersey_experiment_5_v1,2023.2.2,Win32,84.74576271,,,,,,,,,,,,,,,,521.8685,523.1625,523.1625,526.2098,return,0.6358,,69.40104167,,,,,,FBP-OG-91.png,0.45,1.2,45,0.5,0,56,56,44,1,,,,,,,,,,,,,,,,,,,,,,,,,,,,,,,,,,,,,,,,
,,,,,V1_009,20,female,2024-04-29_17h02.09.461,jersey_experiment_5_v1,2023.2.2,Win32,84.74576271,,,,,,,,,,,,,,,,526.2101,527.5039,527.5039,528.9744,return,0.0586,,50,,,,,,FBP-OG-91.png,0.4,1.2,43,0.5,0,57,57,42,1,,,,,,,,,,,,,,,,,,,,,,,,,,,,,,,,,,,,,,,,
,,,,,V1_009,20,female,2024-04-29_17h02.09.461,jersey_experiment_5_v1,2023.2.2,Win32,84.74576271,,,,,,,,,,,,,,,,528.9746,530.2685,530.2685,531.9864,return,0.1178,,74.86979167,,,,,,FBP-RB-17.png,0.43,1.2,49,0.5,0,58,58,48,1,,,,,,,,,,,,,,,,,,,,,,,,,,,,,,,,,,,,,,,,
,,,,,V1_009,20,female,2024-04-29_17h02.09.461,jersey_experiment_5_v1,2023.2.2,Win32,84.74576271,,,,,,,,,,,,,,,,531.9866,533.2804,533.2805,535.6806,return,0.0941,,25.26041667,,,,,,FBP-OG-81.png,0.37,1.2,37,0.5,0,59,59,36,1,,,,,,,,,,,,,,,,,,,,,,,,,,,,,,,,,,,,,,,,
,,,,,V1_009,20,female,2024-04-29_17h02.09.461,jersey_experiment_5_v1,2023.2.2,Win32,84.74576271,,,,,,,,,,,,,,,,,,,,,,,,,,,,,,,,,,,,,,,535.681,655.6854,,,,,,,,,,,,,,,,,,,,,,,,,,,,,,,,,,,,,,
,,,,,V1_009,20,female,2024-04-29_17h02.09.461,jersey_experiment_5_v1,2023.2.2,Win32,84.74576271,,,,,,,,,,,,,,,,,,,,,,,,,,,,,,,,,,,,,,,,,655.6855,659.3208,return,3.6295,,,,,,,,,,,,,,,,,,,,,,,,,,,,,,,,,,
,,,,,V1_009,20,female,2024-04-29_17h02.09.461,jersey_experiment_5_v1,2023.2.2,Win32,84.74576271,,,,,,,,,,,,,,,,659.3269,661.1206,661.1206,664.8033,return,1.5678,,49.73958333,,,,,,FBP-OG-17.png,0.4,1.2,33,1,,,,,,,,,,,,,0,0,0,32,1,,,,,,,,,,,,,,,,,,,,,,,,,,,,
,,,,,V1_009,20,female,2024-04-29_17h02.09.461,jersey_experiment_5_v1,2023.2.2,Win32,84.74576271,,,,,,,,,,,,,,,,664.8035,666.6032,666.6032,667.7444,return,0.1653,,64.19270833,,,,,,FBP-RB-81.png,0.43,1.2,54,1,,,,,,,,,,,,,0,1,1,53,1,,,,,,,,,,,,,,,,,,,,,,,,,,,,
,,,,,V1_009,20,female,2024-04-29_17h02.09.461,jersey_experiment_5_v1,2023.2.2,Win32,84.74576271,,,,,,,,,,,,,,,,667.7446,669.5446,669.5447,670.6503,return,0.006,,36.19791667,,,,,,FBP-OG-17.png,0.37,1.2,32,1,,,,,,,,,,,,,0,2,2,31,1,,,,,,,,,,,,,,,,,,,,,,,,,,,,
,,,,,V1_009,20,female,2024-04-29_17h02.09.461,jersey_experiment_5_v1,2023.2.2,Win32,84.74576271,,,,,,,,,,,,,,,,670.6505,672.4505,672.4506,674.2389,return,0.5324,,61.71875,,,,,,FBP-RB-71.png,0.43,1.2,49,1,,,,,,,,,,,,,0,3,3,48,1,,,,,,,,,,,,,,,,,,,,,,,,,,,,
,,,,,V1_009,20,female,2024-04-29_17h02.09.461,jersey_experiment_5_v1,2023.2.2,Win32,84.74576271,,,,,,,,,,,,,,,,674.2391,676.0389,676.0389,677.4741,return,0.1512,,19.53125,,,,,,FBP-RB-91.png,0.37,1.2,57,1,,,,,,,,,,,,,0,4,4,56,1,,,,,,,,,,,,,,,,,,,,,,,,,,,,
,,,,,V1_009,20,female,2024-04-29_17h02.09.461,jersey_experiment_5_v1,2023.2.2,Win32,84.74576271,,,,,,,,,,,,,,,,677.4743,679.2747,679.2747,680.6979,return,0.1243,,91.92708333,,,,,,FBP-OG-17.png,0.45,1.2,35,1,,,,,,,,,,,,,0,5,5,34,1,,,,,,,,,,,,,,,,,,,,,,,,,,,,
,,,,,V1_009,20,female,2024-04-29_17h02.09.461,jersey_experiment_5_v1,2023.2.2,Win32,84.74576271,,,,,,,,,,,,,,,,680.6981,682.4979,682.4979,683.9919,return,0.1726,,23.95833333,,,,,,FBP-YG-19.png,0.35,1.2,26,1,,,,,,,,,,,,,0,6,6,25,1,,,,,,,,,,,,,,,,,,,,,,,,,,,,
,,,,,V1_009,20,female,2024-04-29_17h02.09.461,jersey_experiment_5_v1,2023.2.2,Win32,84.74576271,,,,,,,,,,,,,,,,683.9922,685.7923,685.7923,687.8511,return,0.947,,74.73958333,,,,,,FBP-RB-91.png,0.43,1.2,59,1,,,,,,,,,,,,,0,7,7,58,1,,,,,,,,,,,,,,,,,,,,,,,,,,,,
,,,,,V1_009,20,female,2024-04-29_17h02.09.461,jersey_experiment_5_v1,2023.2.2,Win32,84.74576271,,,,,,,,,,,,,,,,687.8514,689.6512,689.6513,692.969,return,1.6194,,18.09895833,,,,,,FBP-RB-71.png,0.35,1.2,46,1,,,,,,,,,,,,,0,8,8,45,1,,,,,,,,,,,,,,,,,,,,,,,,,,,,
,,,,,V1_009,20,female,2024-04-29_17h02.09.461,jersey_experiment_5_v1,2023.2.2,Win32,84.74576271,,,,,,,,,,,,,,,,692.9692,694.7691,694.7692,696.6749,return,0.4709,,4.947916667,,,,,,FBP-OG-18.png,0.35,1.2,36,1,,,,,,,,,,,,,0,9,9,35,1,,,,,,,,,,,,,,,,,,,,,,,,,,,,
,,,,,V1_009,20,female,2024-04-29_17h02.09.461,jersey_experiment_5_v1,2023.2.2,Win32,84.74576271,,,,,,,,,,,,,,,,696.6751,697.9692,697.9692,701.0045,return,1.6845,,23.828125,,,,,,FBP-PT-71.png,0.35,1.2,1,0.5,,,,,,,,,,,,,0,10,10,0,1,,,,,,,,,,,,,,,,,,,,,,,,,,,,
,,,,,V1_009,20,female,2024-04-29_17h02.09.461,jersey_experiment_5_v1,2023.2.2,Win32,84.74576271,,,,,,,,,,,,,,,,701.0047,702.2987,702.2987,703.487,return,0.1787,,11.19791667,,,,,,FBP-PT-91.png,0.35,1.2,11,0.5,,,,,,,,,,,,,0,11,11,10,1,,,,,,,,,,,,,,,,,,,,,,,,,,,,
,,,,,V1_009,20,female,2024-04-29_17h02.09.461,jersey_experiment_5_v1,2023.2.2,Win32,84.74576271,,,,,,,,,,,,,,,,703.4873,705.2871,705.2871,706.5222,return,0.1457,,28.25520833,,,,,,FBP-YG-17.png,0.35,1.2,16,1,,,,,,,,,,,,,0,12,12,15,1,,,,,,,,,,,,,,,,,,,,,,,,,,,,
,,,,,V1_009,20,female,2024-04-29_17h02.09.461,jersey_experiment_5_v1,2023.2.2,Win32,84.74576271,,,,,,,,,,,,,,,,706.5225,708.3225,708.3225,710.5224,return,0.0979,,49.73958333,,,,,,FBP-RB-71.png,0.4,1.2,48,1,,,,,,,,,,,,,0,13,13,47,1,,,,,,,,,,,,,,,,,,,,,,,,,,,,
,,,,,V1_009,20,female,2024-04-29_17h02.09.461,jersey_experiment_5_v1,2023.2.2,Win32,84.74576271,,,,,,,,,,,,,,,,710.5227,712.3225,712.3225,713.3225,return,0.1123,,56.11979167,,,,,,FBP-OG-18.png,0.4,1.2,38,1,,,,,,,,,,,,,0,14,14,37,1,,,,,,,,,,,,,,,,,,,,,,,,,,,,
,,,,,V1_009,20,female,2024-04-29_17h02.09.461,jersey_experiment_5_v1,2023.2.2,Win32,84.74576271,,,,,,,,,,,,,,,,713.3228,715.1226,715.1226,716.5933,return,0.3204,,62.5,,,,,,FBP-RB-91.png,0.4,1.2,58,1,,,,,,,,,,,,,0,15,15,57,1,,,,,,,,,,,,,,,,,,,,,,,,,,,,
,,,,,V1_009,20,female,2024-04-29_17h02.09.461,jersey_experiment_5_v1,2023.2.2,Win32,84.74576271,,,,,,,,,,,,,,,,716.5936,718.3933,718.3933,719.711,return,0.1193,,70.83333333,,,,,,FBP-YG-18.png,0.4,1.2,23,1,,,,,,,,,,,,,0,16,16,22,1,,,,,,,,,,,,,,,,,,,,,,,,,,,,
,,,,,V1_009,20,female,2024-04-29_17h02.09.461,jersey_experiment_5_v1,2023.2.2,Win32,84.74576271,,,,,,,,,,,,,,,,719.7112,721.5115,721.5115,722.6642,return,0.1707,,88.41145833,,,,,,FBP-OG-18.png,0.45,1.2,40,1,,,,,,,,,,,,,0,17,17,39,1,,,,,,,,,,,,,,,,,,,,,,,,,,,,
,,,,,V1_009,20,female,2024-04-29_17h02.09.461,jersey_experiment_5_v1,2023.2.2,Win32,84.74576271,,,,,,,,,,,,,,,,722.6643,724.4642,724.4642,725.4993,return,0.1465,,92.31770833,,,,,,FBP-YG-18.png,0.43,1.2,24,1,,,,,,,,,,,,,0,18,18,23,1,,,,,,,,,,,,,,,,,,,,,,,,,,,,
,,,,,V1_009,20,female,2024-04-29_17h02.09.461,jersey_experiment_5_v1,2023.2.2,Win32,84.74576271,,,,,,,,,,,,,,,,725.4995,727.2997,727.2998,729.5938,return,0.4633,,30.59895833,,,,,,FBP-RB-91.png,0.35,1.2,56,1,,,,,,,,,,,,,0,19,19,55,1,,,,,,,,,,,,,,,,,,,,,,,,,,,,
,,,,,V1_009,20,female,2024-04-29_17h02.09.461,jersey_experiment_5_v1,2023.2.2,Win32,84.74576271,,,,,,,,,,,,,,,,729.594,731.3939,731.3939,732.9234,return,0.1346,,24.21875,,,,,,FBP-RB-81.png,0.37,1.2,52,1,,,,,,,,,,,,,0,20,20,51,1,,,,,,,,,,,,,,,,,,,,,,,,,,,,
,,,,,V1_009,20,female,2024-04-29_17h02.09.461,jersey_experiment_5_v1,2023.2.2,Win32,84.74576271,,,,,,,,,,,,,,,,732.9235,734.2177,734.2177,735.8882,return,0.1089,,23.95833333,,,,,,FBP-PT-81.png,0.37,1.2,7,0.5,,,,,,,,,,,,,0,21,21,6,1,,,,,,,,,,,,,,,,,,,,,,,,,,,,
,,,,,V1_009,20,female,2024-04-29_17h02.09.461,jersey_experiment_5_v1,2023.2.2,Win32,84.74576271,,,,,,,,,,,,,,,,735.8885,737.6882,737.6882,738.4765,return,0.3547,,23.828125,,,,,,FBP-RB-81.png,0.35,1.2,51,1,,,,,,,,,,,,,0,22,22,50,1,,,,,,,,,,,,,,,,,,,,,,,,,,,,
,,,,,V1_009,20,female,2024-04-29_17h02.09.461,jersey_experiment_5_v1,2023.2.2,Win32,84.74576271,,,,,,,,,,,,,,,,738.4768,740.2766,740.2766,744.8179,return,2.1507,,65.49479167,,,,,,FBP-YG-17.png,0.4,1.2,18,1,,,,,,,,,,,,,0,23,23,17,1,,,,,,,,,,,,,,,,,,,,,,,,,,,,
,,,,,V1_009,20,female,2024-04-29_17h02.09.461,jersey_experiment_5_v1,2023.2.2,Win32,84.74576271,,,,,,,,,,,,,,,,744.8181,746.112,746.1121,747.5005,return,0.2257,,1.432291667,,,,,,FBP-PT-81.png,0.35,1.2,6,0.5,,,,,,,,,,,,,0,24,24,5,1,,,,,,,,,,,,,,,,,,,,,,,,,,,,
,,,,,V1_009,20,female,2024-04-29_17h02.09.461,jersey_experiment_5_v1,2023.2.2,Win32,84.74576271,,,,,,,,,,,,,,,,747.5007,748.7947,748.7947,750.7358,return,0.2824,,92.83854167,,,,,,FBP-PT-71.png,0.43,1.2,4,0.5,,,,,,,,,,,,,0,25,25,3,1,,,,,,,,,,,,,,,,,,,,,,,,,,,,
,,,,,V1_009,20,female,2024-04-29_17h02.09.461,jersey_experiment_5_v1,2023.2.2,Win32,84.74576271,,,,,,,,,,,,,,,,750.7359,752.03,752.03,752.7946,return,0.2181,,92.83854167,,,,,,FBP-PT-91.png,0.43,1.2,14,0.5,,,,,,,,,,,,,0,26,26,13,1,,,,,,,,,,,,,,,,,,,,,,,,,,,,
,,,,,V1_009,20,female,2024-04-29_17h02.09.461,jersey_experiment_5_v1,2023.2.2,Win32,84.74576271,,,,,,,,,,,,,,,,752.7948,754.5947,754.5947,755.7948,return,0.7305,,92.83854167,,,,,,FBP-OG-19.png,0.43,1.2,44,1,,,,,,,,,,,,,0,27,27,43,1,,,,,,,,,,,,,,,,,,,,,,,,,,,,
,,,,,V1_009,20,female,2024-04-29_17h02.09.461,jersey_experiment_5_v1,2023.2.2,Win32,84.74576271,,,,,,,,,,,,,,,,755.7949,757.5947,757.5948,759.7124,return,0.1973,,98.046875,,,,,,FBP-RB-91.png,0.45,1.2,60,1,,,,,,,,,,,,,0,28,28,59,1,,,,,,,,,,,,,,,,,,,,,,,,,,,,
,,,,,V1_009,20,female,2024-04-29_17h02.09.461,jersey_experiment_5_v1,2023.2.2,Win32,84.74576271,,,,,,,,,,,,,,,,759.7128,761.0066,761.0066,762.2067,return,0.1998,,98.95833333,,,,,,FBP-PT-91.png,0.45,1.2,15,0.5,,,,,,,,,,,,,0,29,29,14,1,,,,,,,,,,,,,,,,,,,,,,,,,,,,
,,,,,V1_009,20,female,2024-04-29_17h02.09.461,jersey_experiment_5_v1,2023.2.2,Win32,84.74576271,,,,,,,,,,,,,,,,762.2068,764.0069,764.0069,765.948,return,1.0637,,24.73958333,,,,,,FBP-YG-17.png,0.37,1.2,17,1,,,,,,,,,,,,,0,30,30,16,1,,,,,,,,,,,,,,,,,,,,,,,,,,,,
,,,,,V1_009,20,female,2024-04-29_17h02.09.461,jersey_experiment_5_v1,2023.2.2,Win32,84.74576271,,,,,,,,,,,,,,,,765.9481,767.7485,767.7485,769.5011,return,0.8036,,41.27604167,,,,,,FBP-RB-71.png,0.37,1.2,47,1,,,,,,,,,,,,,0,31,31,46,1,,,,,,,,,,,,,,,,,,,,,,,,,,,,
,,,,,V1_009,20,female,2024-04-29_17h02.09.461,jersey_experiment_5_v1,2023.2.2,Win32,84.74576271,,,,,,,,,,,,,,,,769.5012,771.3012,771.3012,772.36,return,0.1475,,50,,,,,,FBP-OG-19.png,0.4,1.2,43,1,,,,,,,,,,,,,0,32,32,42,1,,,,,,,,,,,,,,,,,,,,,,,,,,,,
,,,,,V1_009,20,female,2024-04-29_17h02.09.461,jersey_experiment_5_v1,2023.2.2,Win32,84.74576271,,,,,,,,,,,,,,,,772.3602,773.6542,773.6542,774.9838,return,0.1831,,50.13020833,,,,,,FBP-PT-71.png,0.4,1.2,3,0.5,,,,,,,,,,,,,0,33,33,2,1,,,,,,,,,,,,,,,,,,,,,,,,,,,,
,,,,,V1_009,20,female,2024-04-29_17h02.09.461,jersey_experiment_5_v1,2023.2.2,Win32,84.74576271,,,,,,,,,,,,,,,,774.9839,776.7837,776.7838,777.5015,return,0.1539,,50,,,,,,FBP-OG-18.png,0.37,1.2,37,1,,,,,,,,,,,,,0,34,34,36,1,,,,,,,,,,,,,,,,,,,,,,,,,,,,
,,,,,V1_009,20,female,2024-04-29_17h02.09.461,jersey_experiment_5_v1,2023.2.2,Win32,84.74576271,,,,,,,,,,,,,,,,777.5017,779.3014,779.3014,781.2311,return,0.4371,,92.31770833,,,,,,FBP-RB-71.png,0.45,1.2,50,1,,,,,,,,,,,,,0,35,35,49,1,,,,,,,,,,,,,,,,,,,,,,,,,,,,
,,,,,V1_009,20,female,2024-04-29_17h02.09.461,jersey_experiment_5_v1,2023.2.2,Win32,84.74576271,,,,,,,,,,,,,,,,781.2315,783.0312,783.0312,784.1839,return,0.1733,,49.609375,,,,,,FBP-RB-81.png,0.4,1.2,53,1,,,,,,,,,,,,,0,36,36,52,1,,,,,,,,,,,,,,,,,,,,,,,,,,,,
,,,,,V1_009,20,female,2024-04-29_17h02.09.461,jersey_experiment_5_v1,2023.2.2,Win32,84.74576271,,,,,,,,,,,,,,,,784.1841,785.4782,785.4782,786.7607,return,0.1709,,33.85416667,,,,,,FBP-PT-71.png,0.37,1.2,2,0.5,,,,,,,,,,,,,0,37,37,1,1,,,,,,,,,,,,,,,,,,,,,,,,,,,,
,,,,,V1_009,20,female,2024-04-29_17h02.09.461,jersey_experiment_5_v1,2023.2.2,Win32,84.74576271,,,,,,,,,,,,,,,,786.7609,788.5608,788.5608,790.2667,return,0.4414,,71.74479167,,,,,,FBP-YG-17.png,0.43,1.2,19,1,,,,,,,,,,,,,0,38,38,18,1,,,,,,,,,,,,,,,,,,,,,,,,,,,,
,,,,,V1_009,20,female,2024-04-29_17h02.09.461,jersey_experiment_5_v1,2023.2.2,Win32,84.74576271,,,,,,,,,,,,,,,,790.267,792.0668,792.0668,793.6316,return,0.555,,23.56770833,,,,,,FBP-YG-19.png,0.37,1.2,27,1,,,,,,,,,,,,,0,39,39,26,1,,,,,,,,,,,,,,,,,,,,,,,,,,,,
,,,,,V1_009,20,female,2024-04-29_17h02.09.461,jersey_experiment_5_v1,2023.2.2,Win32,84.74576271,,,,,,,,,,,,,,,,793.6318,795.4316,795.4316,797.8905,return,0.4611,,98.4375,,,,,,FBP-YG-19.png,0.45,1.2,30,1,,,,,,,,,,,,,0,40,40,29,1,,,,,,,,,,,,,,,,,,,,,,,,,,,,
,,,,,V1_009,20,female,2024-04-29_17h02.09.461,jersey_experiment_5_v1,2023.2.2,Win32,84.74576271,,,,,,,,,,,,,,,,797.8907,799.1846,799.1847,800.5141,return,0.1513,,5.729166667,,,,,,FBP-PT-91.png,0.37,1.2,12,0.5,,,,,,,,,,,,,0,41,41,11,1,,,,,,,,,,,,,,,,,,,,,,,,,,,,
,,,,,V1_009,20,female,2024-04-29_17h02.09.461,jersey_experiment_5_v1,2023.2.2,Win32,84.74576271,,,,,,,,,,,,,,,,800.5143,802.3143,802.3143,803.9494,return,0.154,,74.08854167,,,,,,FBP-YG-19.png,0.43,1.2,29,1,,,,,,,,,,,,,0,42,42,28,1,,,,,,,,,,,,,,,,,,,,,,,,,,,,
,,,,,V1_009,20,female,2024-04-29_17h02.09.461,jersey_experiment_5_v1,2023.2.2,Win32,84.74576271,,,,,,,,,,,,,,,,803.9496,805.7498,805.7498,806.6555,return,0.128,,95.18229167,,,,,,FBP-YG-18.png,0.45,1.2,25,1,,,,,,,,,,,,,0,43,43,24,1,,,,,,,,,,,,,,,,,,,,,,,,,,,,
,,,,,V1_009,20,female,2024-04-29_17h02.09.461,jersey_experiment_5_v1,2023.2.2,Win32,84.74576271,,,,,,,,,,,,,,,,806.6557,808.4557,808.4557,809.3379,return,0.0396,,50.52083333,,,,,,FBP-YG-19.png,0.4,1.2,28,1,,,,,,,,,,,,,0,44,44,27,1,,,,,,,,,,,,,,,,,,,,,,,,,,,,
,,,,,V1_009,20,female,2024-04-29_17h02.09.461,jersey_experiment_5_v1,2023.2.2,Win32,84.74576271,,,,,,,,,,,,,,,,809.3381,810.6321,810.6321,812.3851,return,0.0848,,50.52083333,,,,,,FBP-PT-81.png,0.43,1.2,9,0.5,,,,,,,,,,,,,0,45,45,8,1,,,,,,,,,,,,,,,,,,,,,,,,,,,,
,,,,,V1_009,20,female,2024-04-29_17h02.09.461,jersey_experiment_5_v1,2023.2.2,Win32,84.74576271,,,,,,,,,,,,,,,,812.3853,813.6794,813.6794,816.3383,return,1.0735,,65.10416667,,,,,,FBP-PT-71.png,0.45,1.2,5,0.5,,,,,,,,,,,,,0,46,46,4,1,,,,,,,,,,,,,,,,,,,,,,,,,,,,
,,,,,V1_009,20,female,2024-04-29_17h02.09.461,jersey_experiment_5_v1,2023.2.2,Win32,84.74576271,,,,,,,,,,,,,,,,816.3386,817.6323,817.6323,818.9618,return,0.118,,71.22395833,,,,,,FBP-PT-81.png,0.45,1.2,10,0.5,,,,,,,,,,,,,0,47,47,9,1,,,,,,,,,,,,,,,,,,,,,,,,,,,,
,,,,,V1_009,20,female,2024-04-29_17h02.09.461,jersey_experiment_5_v1,2023.2.2,Win32,84.74576271,,,,,,,,,,,,,,,,818.962,820.7621,820.7622,822.3384,return,0.1643,,25.65104167,,,,,,FBP-OG-19.png,0.37,1.2,42,1,,,,,,,,,,,,,0,48,48,41,1,,,,,,,,,,,,,,,,,,,,,,,,,,,,
,,,,,V1_009,20,female,2024-04-29_17h02.09.461,jersey_experiment_5_v1,2023.2.2,Win32,84.74576271,,,,,,,,,,,,,,,,822.3386,824.1386,824.1386,825.0209,return,0.1427,,87.36979167,,,,,,FBP-YG-17.png,0.45,1.2,20,1,,,,,,,,,,,,,0,49,49,19,1,,,,,,,,,,,,,,,,,,,,,,,,,,,,
,,,,,V1_009,20,female,2024-04-29_17h02.09.461,jersey_experiment_5_v1,2023.2.2,Win32,84.74576271,,,,,,,,,,,,,,,,825.021,826.8207,826.8209,828.221,return,0.0628,,95.96354167,,,,,,FBP-RB-81.png,0.45,1.2,55,1,,,,,,,,,,,,,0,50,50,54,1,,,,,,,,,,,,,,,,,,,,,,,,,,,,
,,,,,V1_009,20,female,2024-04-29_17h02.09.461,jersey_experiment_5_v1,2023.2.2,Win32,84.74576271,,,,,,,,,,,,,,,,828.2212,829.5152,829.5152,831.9035,return,0.058,,50.13020833,,,,,,FBP-PT-81.png,0.4,1.2,8,0.5,,,,,,,,,,,,,0,51,51,7,1,,,,,,,,,,,,,,,,,,,,,,,,,,,,
,,,,,V1_009,20,female,2024-04-29_17h02.09.461,jersey_experiment_5_v1,2023.2.2,Win32,84.74576271,,,,,,,,,,,,,,,,831.9037,833.7037,833.7037,835.033,return,0.1351,,56.25,,,,,,FBP-OG-17.png,0.43,1.2,34,1,,,,,,,,,,,,,0,52,52,33,1,,,,,,,,,,,,,,,,,,,,,,,,,,,,
,,,,,V1_009,20,female,2024-04-29_17h02.09.461,jersey_experiment_5_v1,2023.2.2,Win32,84.74576271,,,,,,,,,,,,,,,,835.0332,836.8334,836.8334,837.8331,return,0.2282,,5.338541667,,,,,,FBP-OG-17.png,0.35,1.2,31,1,,,,,,,,,,,,,0,53,53,30,1,,,,,,,,,,,,,,,,,,,,,,,,,,,,
,,,,,V1_009,20,female,2024-04-29_17h02.09.461,jersey_experiment_5_v1,2023.2.2,Win32,84.74576271,,,,,,,,,,,,,,,,837.8333,839.6334,839.6334,840.7627,return,0.0415,,74.73958333,,,,,,FBP-OG-18.png,0.43,1.2,39,1,,,,,,,,,,,,,0,54,54,38,1,,,,,,,,,,,,,,,,,,,,,,,,,,,,
,,,,,V1_009,20,female,2024-04-29_17h02.09.461,jersey_experiment_5_v1,2023.2.2,Win32,84.74576271,,,,,,,,,,,,,,,,840.7629,842.5628,842.5628,843.6569,return,0.0903,,0.911458333,,,,,,FBP-YG-18.png,0.37,1.2,22,1,,,,,,,,,,,,,0,55,55,21,1,,,,,,,,,,,,,,,,,,,,,,,,,,,,
,,,,,V1_009,20,female,2024-04-29_17h02.09.461,jersey_experiment_5_v1,2023.2.2,Win32,84.74576271,,,,,,,,,,,,,,,,843.6572,845.4571,845.4571,846.41,return,0.2401,,0.651041667,,,,,,FBP-OG-19.png,0.35,1.2,41,1,,,,,,,,,,,,,0,56,56,40,1,,,,,,,,,,,,,,,,,,,,,,,,,,,,
,,,,,V1_009,20,female,2024-04-29_17h02.09.461,jersey_experiment_5_v1,2023.2.2,Win32,84.74576271,,,,,,,,,,,,,,,,846.4102,848.21,848.21,849.0806,return,0.2197,,1.302083333,,,,,,FBP-YG-18.png,0.35,1.2,21,1,,,,,,,,,,,,,0,57,57,20,1,,,,,,,,,,,,,,,,,,,,,,,,,,,,
,,,,,V1_009,20,female,2024-04-29_17h02.09.461,jersey_experiment_5_v1,2023.2.2,Win32,84.74576271,,,,,,,,,,,,,,,,849.0808,850.3748,850.3748,852.3161,return,0.1816,,49.08854167,,,,,,FBP-PT-91.png,0.4,1.2,13,0.5,,,,,,,,,,,,,0,58,58,12,1,,,,,,,,,,,,,,,,,,,,,,,,,,,,
,,,,,V1_009,20,female,2024-04-29_17h02.09.461,jersey_experiment_5_v1,2023.2.2,Win32,84.74576271,,,,,,,,,,,,,,,,852.3164,854.1162,854.1162,856.1045,return,0.1,,81.38020833,,,,,,FBP-OG-19.png,0.45,1.2,45,1,,,,,,,,,,,,,0,59,59,44,1,,,,,,,,,,,,,,,,,,,,,,,,,,,,
,,,,,V1_009,20,female,2024-04-29_17h02.09.461,jersey_experiment_5_v1,2023.2.2,Win32,84.74576271,,,,,,,,,,,,,,,,856.1063,857.9046,857.9046,859.2928,return,0.3101,,49.21875,,,,,,FBP-OG-81.png,0.4,1.2,38,1,,,,,,,,,,,,,,,,,,0,0,0,37,1,,,,,,,,,,,,,,,,,,,,,,,
,,,,,V1_009,20,female,2024-04-29_17h02.09.461,jersey_experiment_5_v1,2023.2.2,Win32,84.74576271,,,,,,,,,,,,,,,,859.293,861.0927,861.0927,862.0106,return,0.1456,,49.609375,,,,,,FBP-YG-71.png,0.4,1.2,18,1,,,,,,,,,,,,,,,,,,0,1,1,17,1,,,,,,,,,,,,,,,,,,,,,,,
,,,,,V1_009,20,female,2024-04-29_17h02.09.461,jersey_experiment_5_v1,2023.2.2,Win32,84.74576271,,,,,,,,,,,,,,,,862.0108,863.8104,863.8104,865.552,return,0.1274,,66.66666667,,,,,,FBP-OG-71.png,0.45,1.2,35,1,,,,,,,,,,,,,,,,,,0,2,2,34,1,,,,,,,,,,,,,,,,,,,,,,,
,,,,,V1_009,20,female,2024-04-29_17h02.09.461,jersey_experiment_5_v1,2023.2.2,Win32,84.74576271,,,,,,,,,,,,,,,,865.5521,867.352,867.352,868.3519,return,0.1039,,88.41145833,,,,,,FBP-OG-81.png,0.45,1.2,40,1,,,,,,,,,,,,,,,,,,0,3,3,39,1,,,,,,,,,,,,,,,,,,,,,,,
,,,,,V1_009,20,female,2024-04-29_17h02.09.461,jersey_experiment_5_v1,2023.2.2,Win32,84.74576271,,,,,,,,,,,,,,,,868.352,870.1522,870.1522,871.4344,return,0.1245,,50,,,,,,FBP-OG-91.png,0.4,1.2,43,1,,,,,,,,,,,,,,,,,,0,4,4,42,1,,,,,,,,,,,,,,,,,,,,,,,
,,,,,V1_009,20,female,2024-04-29_17h02.09.461,jersey_experiment_5_v1,2023.2.2,Win32,84.74576271,,,,,,,,,,,,,,,,871.4347,873.2346,873.2347,874.8817,return,0.2263,,59.24479167,,,,,,FBP-RB-18.png,0.4,1.2,53,1,,,,,,,,,,,,,,,,,,0,5,5,52,1,,,,,,,,,,,,,,,,,,,,,,,
,,,,,V1_009,20,female,2024-04-29_17h02.09.461,jersey_experiment_5_v1,2023.2.2,Win32,84.74576271,,,,,,,,,,,,,,,,874.8819,876.682,876.682,877.7289,return,0.1651,,85.41666667,,,,,,FBP-RB-19.png,0.45,1.2,60,1,,,,,,,,,,,,,,,,,,0,6,6,59,1,,,,,,,,,,,,,,,,,,,,,,,
,,,,,V1_009,20,female,2024-04-29_17h02.09.461,jersey_experiment_5_v1,2023.2.2,Win32,84.74576271,,,,,,,,,,,,,,,,877.729,879.0229,879.0229,880.0818,return,0.0944,,49.08854167,,,,,,FBP-PT-17.png,0.4,1.2,3,0.5,,,,,,,,,,,,,,,,,,0,7,7,2,1,,,,,,,,,,,,,,,,,,,,,,,
,,,,,V1_009,20,female,2024-04-29_17h02.09.461,jersey_experiment_5_v1,2023.2.2,Win32,84.74576271,,,,,,,,,,,,,,,,880.0821,881.8818,881.8819,882.9761,return,0.3907,,52.34375,,,,,,FBP-YG-91.png,0.4,1.2,28,1,,,,,,,,,,,,,,,,,,0,8,8,27,1,,,,,,,,,,,,,,,,,,,,,,,
,,,,,V1_009,20,female,2024-04-29_17h02.09.461,jersey_experiment_5_v1,2023.2.2,Win32,84.74576271,,,,,,,,,,,,,,,,882.9763,884.2703,884.2703,887.2353,return,2.0146,,41.27604167,,,,,,FBP-PT-19.png,0.37,1.2,12,0.5,,,,,,,,,,,,,,,,,,0,9,9,11,1,,,,,,,,,,,,,,,,,,,,,,,
,,,,,V1_009,20,female,2024-04-29_17h02.09.461,jersey_experiment_5_v1,2023.2.2,Win32,84.74576271,,,,,,,,,,,,,,,,887.2355,889.0352,889.0352,891.0234,return,0.8616,,3.125,,,,,,FBP-OG-81.png,0.35,1.2,36,1,,,,,,,,,,,,,,,,,,0,10,10,35,1,,,,,,,,,,,,,,,,,,,,,,,
,,,,,V1_009,20,female,2024-04-29_17h02.09.461,jersey_experiment_5_v1,2023.2.2,Win32,84.74576271,,,,,,,,,,,,,,,,891.0235,892.3176,892.3176,893.8588,return,0.3532,,2.34375,,,,,,FBP-PT-17.png,0.35,1.2,1,0.5,,,,,,,,,,,,,,,,,,0,11,11,0,1,,,,,,,,,,,,,,,,,,,,,,,
,,,,,V1_009,20,female,2024-04-29_17h02.09.461,jersey_experiment_5_v1,2023.2.2,Win32,84.74576271,,,,,,,,,,,,,,,,893.8589,895.1528,895.1528,897.4589,return,0.4474,,20.44270833,,,,,,FBP-PT-19.png,0.35,1.2,11,0.5,,,,,,,,,,,,,,,,,,0,12,12,10,1,,,,,,,,,,,,,,,,,,,,,,,
,,,,,V1_009,20,female,2024-04-29_17h02.09.461,jersey_experiment_5_v1,2023.2.2,Win32,84.74576271,,,,,,,,,,,,,,,,897.4591,899.259,899.259,900.1767,return,0.1186,,8.072916667,,,,,,FBP-OG-91.png,0.35,1.2,41,1,,,,,,,,,,,,,,,,,,0,13,13,40,1,,,,,,,,,,,,,,,,,,,,,,,
,,,,,V1_009,20,female,2024-04-29_17h02.09.461,jersey_experiment_5_v1,2023.2.2,Win32,84.74576271,,,,,,,,,,,,,,,,900.1769,901.9768,901.9768,903.3062,return,0.4986,,32.68229167,,,,,,FBP-YG-81.png,0.35,1.2,21,1,,,,,,,,,,,,,,,,,,0,14,14,20,1,,,,,,,,,,,,,,,,,,,,,,,
,,,,,V1_009,20,female,2024-04-29_17h02.09.461,jersey_experiment_5_v1,2023.2.2,Win32,84.74576271,,,,,,,,,,,,,,,,903.3064,905.1061,905.1062,906.13,return,0.1887,,50.26041667,,,,,,FBP-YG-91.png,0.37,1.2,27,1,,,,,,,,,,,,,,,,,,0,15,15,26,1,,,,,,,,,,,,,,,,,,,,,,,
,,,,,V1_009,20,female,2024-04-29_17h02.09.461,jersey_experiment_5_v1,2023.2.2,Win32,84.74576271,,,,,,,,,,,,,,,,906.1302,907.9299,907.9299,908.8831,return,0.0854,,49.86979167,,,,,,FBP-YG-71.png,0.37,1.2,17,1,,,,,,,,,,,,,,,,,,0,16,16,16,1,,,,,,,,,,,,,,,,,,,,,,,
,,,,,V1_009,20,female,2024-04-29_17h02.09.461,jersey_experiment_5_v1,2023.2.2,Win32,84.74576271,,,,,,,,,,,,,,,,908.8834,910.6829,910.6829,914.8595,return,0.7228,,63.671875,,,,,,FBP-OG-81.png,0.43,1.2,39,1,,,,,,,,,,,,,,,,,,0,17,17,38,1,,,,,,,,,,,,,,,,,,,,,,,
,,,,,V1_009,20,female,2024-04-29_17h02.09.461,jersey_experiment_5_v1,2023.2.2,Win32,84.74576271,,,,,,,,,,,,,,,,914.8597,916.6597,916.6598,918.448,return,0.7166,,85.67708333,,,,,,FBP-RB-18.png,0.45,1.2,55,1,,,,,,,,,,,,,,,,,,0,18,18,54,1,,,,,,,,,,,,,,,,,,,,,,,
,,,,,V1_009,20,female,2024-04-29_17h02.09.461,jersey_experiment_5_v1,2023.2.2,Win32,84.74576271,,,,,,,,,,,,,,,,918.4483,920.248,920.2481,922.3188,return,0.1187,,49.86979167,,,,,,FBP-YG-71.png,0.35,1.2,16,1,,,,,,,,,,,,,,,,,,0,19,19,15,1,,,,,,,,,,,,,,,,,,,,,,,
,,,,,V1_009,20,female,2024-04-29_17h02.09.461,jersey_experiment_5_v1,2023.2.2,Win32,84.74576271,,,,,,,,,,,,,,,,922.319,924.1188,924.1188,924.7188,return,0.1085,,49.609375,,,,,,FBP-RB-18.png,0.37,1.2,52,1,,,,,,,,,,,,,,,,,,0,20,20,51,1,,,,,,,,,,,,,,,,,,,,,,,
,,,,,V1_009,20,female,2024-04-29_17h02.09.461,jersey_experiment_5_v1,2023.2.2,Win32,84.74576271,,,,,,,,,,,,,,,,924.719,926.0129,926.0129,928.2248,return,0.885,,67.44791667,,,,,,FBP-PT-19.png,0.45,1.2,15,0.5,,,,,,,,,,,,,,,,,,0,21,21,14,1,,,,,,,,,,,,,,,,,,,,,,,
,,,,,V1_009,20,female,2024-04-29_17h02.09.461,jersey_experiment_5_v1,2023.2.2,Win32,84.74576271,,,,,,,,,,,,,,,,928.225,930.0248,930.0248,932.0015,return,1.0685,,79.42708333,,,,,,FBP-RB-19.png,0.43,1.2,59,1,,,,,,,,,,,,,,,,,,0,22,22,58,1,,,,,,,,,,,,,,,,,,,,,,,
,,,,,V1_009,20,female,2024-04-29_17h02.09.461,jersey_experiment_5_v1,2023.2.2,Win32,84.74576271,,,,,,,,,,,,,,,,932.0017,933.2954,933.2955,934.5545,return,0.122,,25.390625,,,,,,FBP-PT-18.png,0.37,1.2,7,0.5,,,,,,,,,,,,,,,,,,0,23,23,6,1,,,,,,,,,,,,,,,,,,,,,,,
,,,,,V1_009,20,female,2024-04-29_17h02.09.461,jersey_experiment_5_v1,2023.2.2,Win32,84.74576271,,,,,,,,,,,,,,,,934.5548,936.3543,936.3544,937.5544,return,0.188,,50,,,,,,FBP-OG-71.png,0.4,1.2,33,1,,,,,,,,,,,,,,,,,,0,24,24,32,1,,,,,,,,,,,,,,,,,,,,,,,
,,,,,V1_009,20,female,2024-04-29_17h02.09.461,jersey_experiment_5_v1,2023.2.2,Win32,84.74576271,,,,,,,,,,,,,,,,937.5547,939.3547,939.3547,940.9546,return,0.098,,42.70833333,,,,,,FBP-RB-19.png,0.37,1.2,57,1,,,,,,,,,,,,,,,,,,0,25,25,56,1,,,,,,,,,,,,,,,,,,,,,,,
,,,,,V1_009,20,female,2024-04-29_17h02.09.461,jersey_experiment_5_v1,2023.2.2,Win32,84.74576271,,,,,,,,,,,,,,,,940.9549,942.7547,942.7547,945.7431,return,0.0576,,36.06770833,,,,,,FBP-OG-91.png,0.37,1.2,42,1,,,,,,,,,,,,,,,,,,0,26,26,41,1,,,,,,,,,,,,,,,,,,,,,,,
,,,,,V1_009,20,female,2024-04-29_17h02.09.461,jersey_experiment_5_v1,2023.2.2,Win32,84.74576271,,,,,,,,,,,,,,,,945.7434,947.0373,947.0373,948.9196,return,0.0188,,49.86979167,,,,,,FBP-PT-18.png,0.4,1.2,8,0.5,,,,,,,,,,,,,,,,,,0,27,27,7,1,,,,,,,,,,,,,,,,,,,,,,,
,,,,,V1_009,20,female,2024-04-29_17h02.09.461,jersey_experiment_5_v1,2023.2.2,Win32,84.74576271,,,,,,,,,,,,,,,,948.9198,950.7197,950.7197,951.9198,return,0.0611,,73.828125,,,,,,FBP-OG-91.png,0.43,1.2,44,1,,,,,,,,,,,,,,,,,,0,28,28,43,1,,,,,,,,,,,,,,,,,,,,,,,
,,,,,V1_009,20,female,2024-04-29_17h02.09.461,jersey_experiment_5_v1,2023.2.2,Win32,84.74576271,,,,,,,,,,,,,,,,951.92,953.7198,953.7199,954.6258,return,0.0615,,88.41145833,,,,,,FBP-YG-91.png,0.43,1.2,29,1,,,,,,,,,,,,,,,,,,0,29,29,28,1,,,,,,,,,,,,,,,,,,,,,,,
,,,,,V1_009,20,female,2024-04-29_17h02.09.461,jersey_experiment_5_v1,2023.2.2,Win32,84.74576271,,,,,,,,,,,,,,,,954.626,956.4259,956.4259,957.6258,return,0.1247,,25,,,,,,FBP-RB-18.png,0.35,1.2,51,1,,,,,,,,,,,,,,,,,,0,30,30,50,1,,,,,,,,,,,,,,,,,,,,,,,
,,,,,V1_009,20,female,2024-04-29_17h02.09.461,jersey_experiment_5_v1,2023.2.2,Win32,84.74576271,,,,,,,,,,,,,,,,957.6261,959.426,959.426,960.3438,return,0.0683,,20.3125,,,,,,FBP-OG-71.png,0.35,1.2,31,1,,,,,,,,,,,,,,,,,,0,31,31,30,1,,,,,,,,,,,,,,,,,,,,,,,
,,,,,V1_009,20,female,2024-04-29_17h02.09.461,jersey_experiment_5_v1,2023.2.2,Win32,84.74576271,,,,,,,,,,,,,,,,960.3441,962.1437,962.1437,962.7674,return,0.1175,,20.3125,,,,,,FBP-OG-81.png,0.37,1.2,37,1,,,,,,,,,,,,,,,,,,0,32,32,36,1,,,,,,,,,,,,,,,,,,,,,,,
,,,,,V1_009,20,female,2024-04-29_17h02.09.461,jersey_experiment_5_v1,2023.2.2,Win32,84.74576271,,,,,,,,,,,,,,,,962.7675,964.5674,964.5674,965.5438,return,0.0909,,84.89583333,,,,,,FBP-YG-91.png,0.45,1.2,30,1,,,,,,,,,,,,,,,,,,0,33,33,29,1,,,,,,,,,,,,,,,,,,,,,,,
,,,,,V1_009,20,female,2024-04-29_17h02.09.461,jersey_experiment_5_v1,2023.2.2,Win32,84.74576271,,,,,,,,,,,,,,,,965.5439,967.3438,967.3438,969.0264,return,0.0937,,24.73958333,,,,,,FBP-RB-17.png,0.35,1.2,46,1,,,,,,,,,,,,,,,,,,0,34,34,45,1,,,,,,,,,,,,,,,,,,,,,,,
,,,,,V1_009,20,female,2024-04-29_17h02.09.461,jersey_experiment_5_v1,2023.2.2,Win32,84.74576271,,,,,,,,,,,,,,,,969.0267,970.3204,970.3204,972.6383,return,0.483,,74.21875,,,,,,FBP-PT-18.png,0.43,1.2,9,0.5,,,,,,,,,,,,,,,,,,0,35,35,8,1,,,,,,,,,,,,,,,,,,,,,,,
,,,,,V1_009,20,female,2024-04-29_17h02.09.461,jersey_experiment_5_v1,2023.2.2,Win32,84.74576271,,,,,,,,,,,,,,,,972.6385,974.4384,974.4384,975.5442,return,0.1005,,49.34895833,,,,,,FBP-RB-17.png,0.4,1.2,48,1,,,,,,,,,,,,,,,,,,0,36,36,47,1,,,,,,,,,,,,,,,,,,,,,,,
,,,,,V1_009,20,female,2024-04-29_17h02.09.461,jersey_experiment_5_v1,2023.2.2,Win32,84.74576271,,,,,,,,,,,,,,,,975.5444,976.8382,976.8383,978.8149,return,0.0614,,4.557291667,,,,,,FBP-PT-18.png,0.35,1.2,6,0.5,,,,,,,,,,,,,,,,,,0,37,37,5,1,,,,,,,,,,,,,,,,,,,,,,,
,,,,,V1_009,20,female,2024-04-29_17h02.09.461,jersey_experiment_5_v1,2023.2.2,Win32,84.74576271,,,,,,,,,,,,,,,,978.815,980.6149,980.615,982.0974,return,0.2826,,19.53125,,,,,,FBP-YG-91.png,0.35,1.2,26,1,,,,,,,,,,,,,,,,,,0,38,38,25,1,,,,,,,,,,,,,,,,,,,,,,,
,,,,,V1_009,20,female,2024-04-29_17h02.09.461,jersey_experiment_5_v1,2023.2.2,Win32,84.74576271,,,,,,,,,,,,,,,,982.0976,983.8974,983.8974,986.2976,return,0.137,,41.92708333,,,,,,FBP-OG-71.png,0.37,1.2,32,1,,,,,,,,,,,,,,,,,,0,39,39,31,1,,,,,,,,,,,,,,,,,,,,,,,
,,,,,V1_009,20,female,2024-04-29_17h02.09.461,jersey_experiment_5_v1,2023.2.2,Win32,84.74576271,,,,,,,,,,,,,,,,986.2978,987.5918,987.5918,988.6036,return,0.3707,,48.95833333,,,,,,FBP-PT-17.png,0.37,1.2,2,0.5,,,,,,,,,,,,,,,,,,0,40,40,1,1,,,,,,,,,,,,,,,,,,,,,,,
,,,,,V1_009,20,female,2024-04-29_17h02.09.461,jersey_experiment_5_v1,2023.2.2,Win32,84.74576271,,,,,,,,,,,,,,,,988.6038,990.4036,990.4036,991.5213,return,0.0848,,69.79166667,,,,,,FBP-RB-17.png,0.43,1.2,49,1,,,,,,,,,,,,,,,,,,0,41,41,48,1,,,,,,,,,,,,,,,,,,,,,,,
,,,,,V1_009,20,female,2024-04-29_17h02.09.461,jersey_experiment_5_v1,2023.2.2,Win32,84.74576271,,,,,,,,,,,,,,,,991.5215,993.3213,993.3213,994.2743,return,0.0378,,74.86979167,,,,,,FBP-YG-71.png,0.45,1.2,20,1,,,,,,,,,,,,,,,,,,0,42,42,19,1,,,,,,,,,,,,,,,,,,,,,,,
,,,,,V1_009,20,female,2024-04-29_17h02.09.461,jersey_experiment_5_v1,2023.2.2,Win32,84.74576271,,,,,,,,,,,,,,,,994.2746,996.0743,996.0743,996.8628,return,0.024,,74.47916667,,,,,,FBP-YG-71.png,0.43,1.2,19,1,,,,,,,,,,,,,,,,,,0,43,43,18,1,,,,,,,,,,,,,,,,,,,,,,,
,,,,,V1_009,20,female,2024-04-29_17h02.09.461,jersey_experiment_5_v1,2023.2.2,Win32,84.74576271,,,,,,,,,,,,,,,,996.863,998.1567,998.1567,999.4158,return,0.3152,,74.47916667,,,,,,FBP-PT-18.png,0.45,1.2,10,0.5,,,,,,,,,,,,,,,,,,0,44,44,9,1,,,,,,,,,,,,,,,,,,,,,,,
,,,,,V1_009,20,female,2024-04-29_17h02.09.461,jersey_experiment_5_v1,2023.2.2,Win32,84.74576271,,,,,,,,,,,,,,,,999.416,1001.2158,1001.2158,1002.5452,return,0.1509,,39.71354167,,,,,,FBP-YG-81.png,0.37,1.2,22,1,,,,,,,,,,,,,,,,,,0,45,45,21,1,,,,,,,,,,,,,,,,,,,,,,,
,,,,,V1_009,20,female,2024-04-29_17h02.09.461,jersey_experiment_5_v1,2023.2.2,Win32,84.74576271,,,,,,,,,,,,,,,,1002.5454,1004.3454,1004.3454,1005.1924,return,0.1847,,60.546875,,,,,,FBP-YG-81.png,0.43,1.2,24,1,,,,,,,,,,,,,,,,,,0,46,46,23,1,,,,,,,,,,,,,,,,,,,,,,,
,,,,,V1_009,20,female,2024-04-29_17h02.09.461,jersey_experiment_5_v1,2023.2.2,Win32,84.74576271,,,,,,,,,,,,,,,,1005.1926,1006.9927,1006.9927,1008.2159,return,0.0888,,49.609375,,,,,,FBP-YG-81.png,0.4,1.2,23,1,,,,,,,,,,,,,,,,,,0,47,47,22,1,,,,,,,,,,,,,,,,,,,,,,,
,,,,,V1_009,20,female,2024-04-29_17h02.09.461,jersey_experiment_5_v1,2023.2.2,Win32,84.74576271,,,,,,,,,,,,,,,,1008.2162,1010.0162,1010.0162,1010.7691,return,0.094,,82.8125,,,,,,FBP-RB-17.png,0.45,1.2,50,1,,,,,,,,,,,,,,,,,,0,48,48,49,1,,,,,,,,,,,,,,,,,,,,,,,
,,,,,V1_009,20,female,2024-04-29_17h02.09.461,jersey_experiment_5_v1,2023.2.2,Win32,84.74576271,,,,,,,,,,,,,,,,1010.7693,1012.0632,1012.0632,1013.6397,return,0.4776,,49.73958333,,,,,,FBP-PT-17.png,0.43,1.2,4,0.5,,,,,,,,,,,,,,,,,,0,49,49,3,1,,,,,,,,,,,,,,,,,,,,,,,
,,,,,V1_009,20,female,2024-04-29_17h02.09.461,jersey_experiment_5_v1,2023.2.2,Win32,84.74576271,,,,,,,,,,,,,,,,1013.64,1014.9339,1014.9339,1017.3223,return,0.3458,,59.24479167,,,,,,FBP-PT-17.png,0.45,1.2,5,0.5,,,,,,,,,,,,,,,,,,0,50,50,4,1,,,,,,,,,,,,,,,,,,,,,,,
,,,,,V1_009,20,female,2024-04-29_17h02.09.461,jersey_experiment_5_v1,2023.2.2,Win32,84.74576271,,,,,,,,,,,,,,,,1017.3225,1019.1223,1019.1224,1021.3225,return,0.1805,,61.58854167,,,,,,FBP-YG-81.png,0.45,1.2,25,1,,,,,,,,,,,,,,,,,,0,51,51,24,1,,,,,,,,,,,,,,,,,,,,,,,
,,,,,V1_009,20,female,2024-04-29_17h02.09.461,jersey_experiment_5_v1,2023.2.2,Win32,84.74576271,,,,,,,,,,,,,,,,1021.3228,1023.1225,1023.1225,1023.8636,return,0.1598,,51.69270833,,,,,,FBP-RB-18.png,0.43,1.2,54,1,,,,,,,,,,,,,,,,,,0,52,52,53,1,,,,,,,,,,,,,,,,,,,,,,,
,,,,,V1_009,20,female,2024-04-29_17h02.09.461,jersey_experiment_5_v1,2023.2.2,Win32,84.74576271,,,,,,,,,,,,,,,,1023.8639,1025.6637,1025.6637,1026.6638,return,0.1124,,26.30208333,,,,,,FBP-RB-19.png,0.35,1.2,56,1,,,,,,,,,,,,,,,,,,0,53,53,55,1,,,,,,,,,,,,,,,,,,,,,,,
,,,,,V1_009,20,female,2024-04-29_17h02.09.461,jersey_experiment_5_v1,2023.2.2,Win32,84.74576271,,,,,,,,,,,,,,,,1026.6641,1027.958,1027.958,1029.7581,return,0.1796,,70.05208333,,,,,,FBP-PT-19.png,0.43,1.2,14,0.5,,,,,,,,,,,,,,,,,,0,54,54,13,1,,,,,,,,,,,,,,,,,,,,,,,
,,,,,V1_009,20,female,2024-04-29_17h02.09.461,jersey_experiment_5_v1,2023.2.2,Win32,84.74576271,,,,,,,,,,,,,,,,1029.7583,1031.5583,1031.5583,1032.6638,return,0.197,,39.84375,,,,,,FBP-RB-17.png,0.37,1.2,47,1,,,,,,,,,,,,,,,,,,0,55,55,46,1,,,,,,,,,,,,,,,,,,,,,,,
,,,,,V1_009,20,female,2024-04-29_17h02.09.461,jersey_experiment_5_v1,2023.2.2,Win32,84.74576271,,,,,,,,,,,,,,,,1032.6639,1034.4644,1034.4644,1036.1229,return,0.815,,75,,,,,,FBP-OG-91.png,0.45,1.2,45,1,,,,,,,,,,,,,,,,,,0,56,56,44,1,,,,,,,,,,,,,,,,,,,,,,,
,,,,,V1_009,20,female,2024-04-29_17h02.09.461,jersey_experiment_5_v1,2023.2.2,Win32,84.74576271,,,,,,,,,,,,,,,,1036.1231,1037.4171,1037.4171,1039.7702,return,1.1921,,49.47916667,,,,,,FBP-PT-19.png,0.4,1.2,13,0.5,,,,,,,,,,,,,,,,,,0,57,57,12,1,,,,,,,,,,,,,,,,,,,,,,,
,,,,,V1_009,20,female,2024-04-29_17h02.09.461,jersey_experiment_5_v1,2023.2.2,Win32,84.74576271,,,,,,,,,,,,,,,,1039.7704,1041.5703,1041.5703,1043.2878,return,0.1246,,53.38541667,,,,,,FBP-OG-71.png,0.43,1.2,34,1,,,,,,,,,,,,,,,,,,0,58,58,33,1,,,,,,,,,,,,,,,,,,,,,,,
,,,,,V1_009,20,female,2024-04-29_17h02.09.461,jersey_experiment_5_v1,2023.2.2,Win32,84.74576271,,,,,,,,,,,,,,,,1043.2881,1045.088,1045.088,1045.888,return,0.2692,,49.73958333,,,,,,FBP-RB-19.png,0.4,1.2,58,1,,,,,,,,,,,,,,,,,,0,59,59,57,1,,,,,,,,,,,,,,,,,,,,,,,
,,,,,V1_009,20,female,2024-04-29_17h02.09.461,jersey_experiment_5_v1,2023.2.2,Win32,84.74576271,,,,,,,,,,,,,,,,,,,,,,,,,,,,,,,,,,,,,,,,,,,,,,,,,,,,,,,,1045.8884,1050.9474,return,5.0445,,,,,,,,,,,,,,,,,,,
,,,,,V1_009,20,female,2024-04-29_17h02.09.461,jersey_experiment_5_v1,2023.2.2,Win32,84.74576271,,,,,,,,,,,,,,,,,,,,,,,,,,,,,,,,,,,,,,,,,,,,,,,,,,,,,,,,,,,,,1050.9475,1054.9239,1,3.2159,return,0.7433,,,,,,,,,,,,
,,,,,V1_009,20,female,2024-04-29_17h02.09.461,jersey_experiment_5_v1,2023.2.2,Win32,84.74576271,,,,,,,,,,,,,,,,,,,,,,,,,,,,,,,,,,,,,,,,,,,,,,,,,,,,,,,,,,,,,,,,,,,,1054.924,1100.7066,possibly if sport number influences percieved size of an individual or something regarding the colors of the jerseys?,right,42.3543,,,,,,
,,,,,V1_009,20,female,2024-04-29_17h02.09.461,jersey_experiment_5_v1,2023.2.2,Win32,84.74576271,,,,,,,,,,,,,,,,,,,,,,,,,,,,,,,,,,,,,,,,,,,,,,,,,,,,,,,,,,,,,,,,,,,,,,,,,,1100.7066,1103.2784,return,2.5618,