requirements.started,requirements.stopped,key_resp_3.keys,key_resp_3.rt,key_resp_3.duration,Subject ID,Age,Gender,date,expName,psychopyVersion,OS,frameRate,instructions1.started,instructions1.stopped,key_resp.keys,key_resp.rt,key_resp.duration,example.started,example.stopped,enter_2.keys,enter_2.rt,enter_2.duration,instructions2.started,instructions2.stopped,enter_3.keys,enter_3.rt,enter_3.duration,image.started,image.stopped,slider_2.started,slider_2.stopped,next.keys,next.rt,next.duration,slider.response,trial_block_1.thisRepN,trial_block_1.thisTrialN,trial_block_1.thisN,trial_block_1.thisIndex,trial_block_1.ran,Path,Width,Height,Index,Duration,trial_block_2.thisRepN,trial_block_2.thisTrialN,trial_block_2.thisN,trial_block_2.thisIndex,trial_block_2.ran,rest_break.started,rest_break.stopped,end_break.started,end_break.stopped,key_resp_5.keys,key_resp_5.rt,key_resp_5.duration,trial_block_3.thisRepN,trial_block_3.thisTrialN,trial_block_3.thisN,trial_block_3.thisIndex,trial_block_3.ran,trial_block_4.thisRepN,trial_block_4.thisTrialN,trial_block_4.thisN,trial_block_4.thisIndex,trial_block_4.ran,questions_intro.started,questions_intro.stopped,enter_12.keys,enter_12.rt,enter_12.duration,question2.started,question2.stopped,question_doingbest.response,question_doingbest.rt,enter_15.keys,enter_15.rt,enter_15.duration,pattern.started,pattern.stopped,pattern_2.text,enter_17.keys,enter_17.rt,enter_17.duration,thankyou.started,thankyou.stopped,enter_14.keys,enter_14.rt,enter_14.duration
0.0002,14.1506,return,14.1457,,WIN24_046,19,male,2024-02-09_11h36.27.320,jersey_experiment_5,2023.2.2,Win32,85.47008547,,,,,,,,,,,,,,,,,,,,,,,,,,,,,,,,,,,,,,,,,,,,,,,,,,,,,,,,,,,,,,,,,,,,,,,,,,,,,,
,,,,,WIN24_046,19,male,2024-02-09_11h36.27.320,jersey_experiment_5,2023.2.2,Win32,85.47008547,14.1507,23.1947,return,9.022,,,,,,,,,,,,,,,,,,,,,,,,,,,,,,,,,,,,,,,,,,,,,,,,,,,,,,,,,,,,,,,,,,,,,,,,,,
,,,,,WIN24_046,19,male,2024-02-09_11h36.27.320,jersey_experiment_5,2023.2.2,Win32,85.47008547,,,,,,23.1948,29.5478,return,6.311,,,,,,,,,,,,,,,,,,,,,,,,,,,,,,,,,,,,,,,,,,,,,,,,,,,,,,,,,,,,,,,,,,,,,
,,,,,WIN24_046,19,male,2024-02-09_11h36.27.320,jersey_experiment_5,2023.2.2,Win32,85.47008547,,,,,,,,,,,29.5478,55.2197,return,25.6648,,,,,,,,,,,,,,,,,,,,,,,,,,,,,,,,,,,,,,,,,,,,,,,,,,,,,,,,,,,,,,,,
,,,,,WIN24_046,19,male,2024-02-09_11h36.27.320,jersey_experiment_5,2023.2.2,Win32,85.47008547,,,,,,,,,,,,,,,,55.2279,56.5252,56.5254,62.6196,return,1.7412,,25,0,0,0,47,1,FBP-PT-17.png,0.4,1.2,48,0.5,,,,,,,,,,,,,,,,,,,,,,,,,,,,,,,,,,,,,,,,,,,,,
,,,,,WIN24_046,19,male,2024-02-09_11h36.27.320,jersey_experiment_5,2023.2.2,Win32,85.47008547,,,,,,,,,,,,,,,,62.62,63.9136,63.9137,67.1725,return,1.1214,,50.13020833,0,1,1,56,1,FBP-PT-19.png,0.37,1.2,57,0.5,,,,,,,,,,,,,,,,,,,,,,,,,,,,,,,,,,,,,,,,,,,,,
,,,,,WIN24_046,19,male,2024-02-09_11h36.27.320,jersey_experiment_5,2023.2.2,Win32,85.47008547,,,,,,,,,,,,,,,,67.1727,68.4667,68.4667,70.4668,return,0.9959,,49.86979167,0,2,2,1,1,FBP-OG-71.png,0.37,1.2,2,0.5,,,,,,,,,,,,,,,,,,,,,,,,,,,,,,,,,,,,,,,,,,,,,
,,,,,WIN24_046,19,male,2024-02-09_11h36.27.320,jersey_experiment_5,2023.2.2,Win32,85.47008547,,,,,,,,,,,,,,,,70.467,72.267,72.267,77.42,return,1.4969,,99.73958333,0,3,3,44,1,FBP-YG-91.png,0.45,1.2,45,1,,,,,,,,,,,,,,,,,,,,,,,,,,,,,,,,,,,,,,,,,,,,,
,,,,,WIN24_046,19,male,2024-02-09_11h36.27.320,jersey_experiment_5,2023.2.2,Win32,85.47008547,,,,,,,,,,,,,,,,77.4203,79.2202,79.2202,82.2673,return,1.0357,,49.34895833,0,4,4,36,1,FBP-YG-81.png,0.37,1.2,37,1,,,,,,,,,,,,,,,,,,,,,,,,,,,,,,,,,,,,,,,,,,,,,
,,,,,WIN24_046,19,male,2024-02-09_11h36.27.320,jersey_experiment_5,2023.2.2,Win32,85.47008547,,,,,,,,,,,,,,,,82.2675,83.5615,83.5615,86.4087,return,0.965,,49.73958333,0,5,5,51,1,FBP-PT-18.png,0.37,1.2,52,0.5,,,,,,,,,,,,,,,,,,,,,,,,,,,,,,,,,,,,,,,,,,,,,
,,,,,WIN24_046,19,male,2024-02-09_11h36.27.320,jersey_experiment_5,2023.2.2,Win32,85.47008547,,,,,,,,,,,,,,,,86.4088,87.7029,87.7029,91.1853,return,1.5739,,23.56770833,0,6,6,5,1,FBP-OG-81.png,0.35,1.2,6,0.5,,,,,,,,,,,,,,,,,,,,,,,,,,,,,,,,,,,,,,,,,,,,,
,,,,,WIN24_046,19,male,2024-02-09_11h36.27.320,jersey_experiment_5,2023.2.2,Win32,85.47008547,,,,,,,,,,,,,,,,91.1855,92.9852,92.9852,95.4325,return,1.1639,,75.65104167,0,7,7,37,1,FBP-YG-81.png,0.4,1.2,38,1,,,,,,,,,,,,,,,,,,,,,,,,,,,,,,,,,,,,,,,,,,,,,
,,,,,WIN24_046,19,male,2024-02-09_11h36.27.320,jersey_experiment_5,2023.2.2,Win32,85.47008547,,,,,,,,,,,,,,,,95.4326,96.7265,96.7265,99.6679,return,1.4421,,90.75520833,0,8,8,13,1,FBP-OG-91.png,0.43,1.2,14,0.5,,,,,,,,,,,,,,,,,,,,,,,,,,,,,,,,,,,,,,,,,,,,,
,,,,,WIN24_046,19,male,2024-02-09_11h36.27.320,jersey_experiment_5,2023.2.2,Win32,85.47008547,,,,,,,,,,,,,,,,99.6681,100.9619,100.9619,103.5739,return,1.0263,,49.86979167,0,9,9,12,1,FBP-OG-91.png,0.4,1.2,13,0.5,,,,,,,,,,,,,,,,,,,,,,,,,,,,,,,,,,,,,,,,,,,,,
,,,,,WIN24_046,19,male,2024-02-09_11h36.27.320,jersey_experiment_5,2023.2.2,Win32,85.47008547,,,,,,,,,,,,,,,,103.574,105.374,105.374,111.5154,return,3.1067,,24.47916667,0,10,10,40,1,FBP-YG-91.png,0.35,1.2,41,1,,,,,,,,,,,,,,,,,,,,,,,,,,,,,,,,,,,,,,,,,,,,,
,,,,,WIN24_046,19,male,2024-02-09_11h36.27.320,jersey_experiment_5,2023.2.2,Win32,85.47008547,,,,,,,,,,,,,,,,111.5156,113.3154,113.3154,117.0921,return,2.0746,,32.68229167,0,11,11,31,1,FBP-YG-71.png,0.37,1.2,32,1,,,,,,,,,,,,,,,,,,,,,,,,,,,,,,,,,,,,,,,,,,,,,
,,,,,WIN24_046,19,male,2024-02-09_11h36.27.320,jersey_experiment_5,2023.2.2,Win32,85.47008547,,,,,,,,,,,,,,,,117.0923,118.8921,118.8921,121.4097,return,0.7381,,32.68229167,0,12,12,21,1,FBP-RB-18.png,0.37,1.2,22,1,,,,,,,,,,,,,,,,,,,,,,,,,,,,,,,,,,,,,,,,,,,,,
,,,,,WIN24_046,19,male,2024-02-09_11h36.27.320,jersey_experiment_5,2023.2.2,Win32,85.47008547,,,,,,,,,,,,,,,,121.4098,122.7039,122.7039,126.01,return,1.1054,,77.21354167,0,13,13,58,1,FBP-PT-19.png,0.43,1.2,59,0.5,,,,,,,,,,,,,,,,,,,,,,,,,,,,,,,,,,,,,,,,,,,,,
,,,,,WIN24_046,19,male,2024-02-09_11h36.27.320,jersey_experiment_5,2023.2.2,Win32,85.47008547,,,,,,,,,,,,,,,,126.0103,127.81,127.81,129.763,return,0.9111,,32.421875,0,14,14,35,1,FBP-YG-81.png,0.35,1.2,36,1,,,,,,,,,,,,,,,,,,,,,,,,,,,,,,,,,,,,,,,,,,,,,
,,,,,WIN24_046,19,male,2024-02-09_11h36.27.320,jersey_experiment_5,2023.2.2,Win32,85.47008547,,,,,,,,,,,,,,,,129.7632,131.0572,131.0572,133.0456,return,0.7697,,32.421875,0,15,15,55,1,FBP-PT-19.png,0.35,1.2,56,0.5,,,,,,,,,,,,,,,,,,,,,,,,,,,,,,,,,,,,,,,,,,,,,
,,,,,WIN24_046,19,male,2024-02-09_11h36.27.320,jersey_experiment_5,2023.2.2,Win32,85.47008547,,,,,,,,,,,,,,,,133.0458,134.8456,134.8456,137.081,return,0.7778,,75.13020833,0,16,16,32,1,FBP-YG-71.png,0.4,1.2,33,1,,,,,,,,,,,,,,,,,,,,,,,,,,,,,,,,,,,,,,,,,,,,,
,,,,,WIN24_046,19,male,2024-02-09_11h36.27.320,jersey_experiment_5,2023.2.2,Win32,85.47008547,,,,,,,,,,,,,,,,137.0811,138.8811,138.8811,142.6574,return,2.2209,,75.13020833,0,17,17,42,1,FBP-YG-91.png,0.4,1.2,43,1,,,,,,,,,,,,,,,,,,,,,,,,,,,,,,,,,,,,,,,,,,,,,
,,,,,WIN24_046,19,male,2024-02-09_11h36.27.320,jersey_experiment_5,2023.2.2,Win32,85.47008547,,,,,,,,,,,,,,,,142.6577,144.4578,144.4578,150.3638,return,2.2027,,49.08854167,0,18,18,27,1,FBP-RB-19.png,0.4,1.2,28,1,,,,,,,,,,,,,,,,,,,,,,,,,,,,,,,,,,,,,,,,,,,,,
,,,,,WIN24_046,19,male,2024-02-09_11h36.27.320,jersey_experiment_5,2023.2.2,Win32,85.47008547,,,,,,,,,,,,,,,,150.3639,151.658,151.658,154.6815,return,0.8573,,31.11979167,0,19,19,10,1,FBP-OG-91.png,0.35,1.2,11,0.5,,,,,,,,,,,,,,,,,,,,,,,,,,,,,,,,,,,,,,,,,,,,,
,,,,,WIN24_046,19,male,2024-02-09_11h36.27.320,jersey_experiment_5,2023.2.2,Win32,85.47008547,,,,,,,,,,,,,,,,154.6818,156.4817,156.4818,160.3408,return,0.7236,,59.50520833,0,20,20,22,1,FBP-RB-18.png,0.4,1.2,23,1,,,,,,,,,,,,,,,,,,,,,,,,,,,,,,,,,,,,,,,,,,,,,
,,,,,WIN24_046,19,male,2024-02-09_11h36.27.320,jersey_experiment_5,2023.2.2,Win32,85.47008547,,,,,,,,,,,,,,,,160.341,161.6348,161.6349,163.9759,return,0.7556,,83.85416667,0,21,21,9,1,FBP-OG-81.png,0.45,1.2,10,0.5,,,,,,,,,,,,,,,,,,,,,,,,,,,,,,,,,,,,,,,,,,,,,
,,,,,WIN24_046,19,male,2024-02-09_11h36.27.320,jersey_experiment_5,2023.2.2,Win32,85.47008547,,,,,,,,,,,,,,,,163.9761,165.2701,165.2701,167.3408,return,0.7529,,88.02083333,0,22,22,49,1,FBP-PT-17.png,0.45,1.2,50,0.5,,,,,,,,,,,,,,,,,,,,,,,,,,,,,,,,,,,,,,,,,,,,,
,,,,,WIN24_046,19,male,2024-02-09_11h36.27.320,jersey_experiment_5,2023.2.2,Win32,85.47008547,,,,,,,,,,,,,,,,167.3411,169.141,169.141,170.3881,return,0.5923,,88.02083333,0,23,23,33,1,FBP-YG-71.png,0.43,1.2,34,1,,,,,,,,,,,,,,,,,,,,,,,,,,,,,,,,,,,,,,,,,,,,,
,,,,,WIN24_046,19,male,2024-02-09_11h36.27.320,jersey_experiment_5,2023.2.2,Win32,85.47008547,,,,,,,,,,,,,,,,170.3883,172.1881,172.1881,174.1293,return,0.8678,,34.24479167,0,24,24,20,1,FBP-RB-18.png,0.35,1.2,21,1,,,,,,,,,,,,,,,,,,,,,,,,,,,,,,,,,,,,,,,,,,,,,
,,,,,WIN24_046,19,male,2024-02-09_11h36.27.320,jersey_experiment_5,2023.2.2,Win32,85.47008547,,,,,,,,,,,,,,,,174.1294,175.4235,175.4235,177.6354,return,0.7013,,34.375,0,25,25,46,1,FBP-PT-17.png,0.37,1.2,47,0.5,,,,,,,,,,,,,,,,,,,,,,,,,,,,,,,,,,,,,,,,,,,,,
,,,,,WIN24_046,19,male,2024-02-09_11h36.27.320,jersey_experiment_5,2023.2.2,Win32,85.47008547,,,,,,,,,,,,,,,,177.6357,179.4354,179.4354,181.8826,return,0.7392,,75.13020833,0,26,26,18,1,FBP-RB-17.png,0.43,1.2,19,1,,,,,,,,,,,,,,,,,,,,,,,,,,,,,,,,,,,,,,,,,,,,,
,,,,,WIN24_046,19,male,2024-02-09_11h36.27.320,jersey_experiment_5,2023.2.2,Win32,85.47008547,,,,,,,,,,,,,,,,181.8828,183.6827,183.6828,185.4945,return,0.8016,,51.171875,0,27,27,26,1,FBP-RB-19.png,0.37,1.2,27,1,,,,,,,,,,,,,,,,,,,,,,,,,,,,,,,,,,,,,,,,,,,,,
,,,,,WIN24_046,19,male,2024-02-09_11h36.27.320,jersey_experiment_5,2023.2.2,Win32,85.47008547,,,,,,,,,,,,,,,,185.4948,187.2945,187.2945,189.6239,return,0.883,,75,0,28,28,19,1,FBP-RB-17.png,0.45,1.2,20,1,,,,,,,,,,,,,,,,,,,,,,,,,,,,,,,,,,,,,,,,,,,,,
,,,,,WIN24_046,19,male,2024-02-09_11h36.27.320,jersey_experiment_5,2023.2.2,Win32,85.47008547,,,,,,,,,,,,,,,,189.6242,191.4241,191.4241,192.7064,return,0.6902,,75,0,29,29,24,1,FBP-RB-18.png,0.45,1.2,25,1,,,,,,,,,,,,,,,,,,,,,,,,,,,,,,,,,,,,,,,,,,,,,
,,,,,WIN24_046,19,male,2024-02-09_11h36.27.320,jersey_experiment_5,2023.2.2,Win32,85.47008547,,,,,,,,,,,,,,,,192.7067,194.0007,194.0007,198.1185,return,2.7572,,24.08854167,0,30,30,0,1,FBP-OG-71.png,0.35,1.2,1,0.5,,,,,,,,,,,,,,,,,,,,,,,,,,,,,,,,,,,,,,,,,,,,,
,,,,,WIN24_046,19,male,2024-02-09_11h36.27.320,jersey_experiment_5,2023.2.2,Win32,85.47008547,,,,,,,,,,,,,,,,198.1186,199.9187,199.9187,201.8481,return,0.9794,,23.56770833,0,31,31,25,1,FBP-RB-19.png,0.35,1.2,26,1,,,,,,,,,,,,,,,,,,,,,,,,,,,,,,,,,,,,,,,,,,,,,
,,,,,WIN24_046,19,male,2024-02-09_11h36.27.320,jersey_experiment_5,2023.2.2,Win32,85.47008547,,,,,,,,,,,,,,,,201.8482,203.1422,203.1422,204.9186,return,0.7098,,68.61979167,0,32,32,52,1,FBP-PT-18.png,0.4,1.2,53,0.5,,,,,,,,,,,,,,,,,,,,,,,,,,,,,,,,,,,,,,,,,,,,,
,,,,,WIN24_046,19,male,2024-02-09_11h36.27.320,jersey_experiment_5,2023.2.2,Win32,85.47008547,,,,,,,,,,,,,,,,204.9188,206.719,206.719,208.1306,return,0.6548,,75.52083333,0,33,33,43,1,FBP-YG-91.png,0.43,1.2,44,1,,,,,,,,,,,,,,,,,,,,,,,,,,,,,,,,,,,,,,,,,,,,,
,,,,,WIN24_046,19,male,2024-02-09_11h36.27.320,jersey_experiment_5,2023.2.2,Win32,85.47008547,,,,,,,,,,,,,,,,208.1309,209.4248,209.4248,211.1306,return,0.8239,,78.77604167,0,34,34,54,1,FBP-PT-18.png,0.45,1.2,55,0.5,,,,,,,,,,,,,,,,,,,,,,,,,,,,,,,,,,,,,,,,,,,,,
,,,,,WIN24_046,19,male,2024-02-09_11h36.27.320,jersey_experiment_5,2023.2.2,Win32,85.47008547,,,,,,,,,,,,,,,,211.1309,212.4248,212.4248,213.9307,return,0.6826,,80.078125,0,35,35,4,1,FBP-OG-71.png,0.45,1.2,5,0.5,,,,,,,,,,,,,,,,,,,,,,,,,,,,,,,,,,,,,,,,,,,,,
,,,,,WIN24_046,19,male,2024-02-09_11h36.27.320,jersey_experiment_5,2023.2.2,Win32,85.47008547,,,,,,,,,,,,,,,,213.9309,215.7309,215.7309,217.4485,return,0.7535,,52.08333333,0,36,36,17,1,FBP-RB-17.png,0.4,1.2,18,1,,,,,,,,,,,,,,,,,,,,,,,,,,,,,,,,,,,,,,,,,,,,,
,,,,,WIN24_046,19,male,2024-02-09_11h36.27.320,jersey_experiment_5,2023.2.2,Win32,85.47008547,,,,,,,,,,,,,,,,217.4488,219.2486,219.2486,220.9074,return,0.6971,,50.52083333,0,37,37,16,1,FBP-RB-17.png,0.37,1.2,17,1,,,,,,,,,,,,,,,,,,,,,,,,,,,,,,,,,,,,,,,,,,,,,
,,,,,WIN24_046,19,male,2024-02-09_11h36.27.320,jersey_experiment_5,2023.2.2,Win32,85.47008547,,,,,,,,,,,,,,,,220.9076,222.2017,222.2017,224.2605,return,0.6645,,35.9375,0,38,38,6,1,FBP-OG-81.png,0.37,1.2,7,0.5,,,,,,,,,,,,,,,,,,,,,,,,,,,,,,,,,,,,,,,,,,,,,
,,,,,WIN24_046,19,male,2024-02-09_11h36.27.320,jersey_experiment_5,2023.2.2,Win32,85.47008547,,,,,,,,,,,,,,,,224.2608,226.0607,226.0607,228.0372,return,0.6853,,62.63020833,0,39,39,28,1,FBP-RB-19.png,0.43,1.2,29,1,,,,,,,,,,,,,,,,,,,,,,,,,,,,,,,,,,,,,,,,,,,,,
,,,,,WIN24_046,19,male,2024-02-09_11h36.27.320,jersey_experiment_5,2023.2.2,Win32,85.47008547,,,,,,,,,,,,,,,,228.0375,229.8372,229.8372,231.2844,return,0.9453,,63.28125,0,40,40,29,1,FBP-RB-19.png,0.45,1.2,30,1,,,,,,,,,,,,,,,,,,,,,,,,,,,,,,,,,,,,,,,,,,,,,
,,,,,WIN24_046,19,male,2024-02-09_11h36.27.320,jersey_experiment_5,2023.2.2,Win32,85.47008547,,,,,,,,,,,,,,,,231.2845,233.0845,233.0845,234.3785,return,0.6588,,83.07291667,0,41,41,34,1,FBP-YG-71.png,0.45,1.2,35,1,,,,,,,,,,,,,,,,,,,,,,,,,,,,,,,,,,,,,,,,,,,,,
,,,,,WIN24_046,19,male,2024-02-09_11h36.27.320,jersey_experiment_5,2023.2.2,Win32,85.47008547,,,,,,,,,,,,,,,,234.3788,235.6726,235.6726,237.1787,return,0.692,,74.86979167,0,42,42,8,1,FBP-OG-81.png,0.43,1.2,9,0.5,,,,,,,,,,,,,,,,,,,,,,,,,,,,,,,,,,,,,,,,,,,,,
,,,,,WIN24_046,19,male,2024-02-09_11h36.27.320,jersey_experiment_5,2023.2.2,Win32,85.47008547,,,,,,,,,,,,,,,,237.1789,238.4728,238.4728,240.2963,return,0.7761,,21.484375,0,43,43,50,1,FBP-PT-18.png,0.35,1.2,51,0.5,,,,,,,,,,,,,,,,,,,,,,,,,,,,,,,,,,,,,,,,,,,,,
,,,,,WIN24_046,19,male,2024-02-09_11h36.27.320,jersey_experiment_5,2023.2.2,Win32,85.47008547,,,,,,,,,,,,,,,,240.2966,241.5905,241.5906,243.7672,return,0.6387,,69.66145833,0,44,44,3,1,FBP-OG-71.png,0.43,1.2,4,0.5,,,,,,,,,,,,,,,,,,,,,,,,,,,,,,,,,,,,,,,,,,,,,
,,,,,WIN24_046,19,male,2024-02-09_11h36.27.320,jersey_experiment_5,2023.2.2,Win32,85.47008547,,,,,,,,,,,,,,,,243.7674,245.0612,245.0613,247.0731,return,0.7598,,34.24479167,0,45,45,45,1,FBP-PT-17.png,0.35,1.2,46,0.5,,,,,,,,,,,,,,,,,,,,,,,,,,,,,,,,,,,,,,,,,,,,,
,,,,,WIN24_046,19,male,2024-02-09_11h36.27.320,jersey_experiment_5,2023.2.2,Win32,85.47008547,,,,,,,,,,,,,,,,247.0732,248.8731,248.8731,250.2614,return,0.6963,,32.29166667,0,46,46,15,1,FBP-RB-17.png,0.35,1.2,16,1,,,,,,,,,,,,,,,,,,,,,,,,,,,,,,,,,,,,,,,,,,,,,
,,,,,WIN24_046,19,male,2024-02-09_11h36.27.320,jersey_experiment_5,2023.2.2,Win32,85.47008547,,,,,,,,,,,,,,,,250.2615,251.5556,251.5556,253.0264,return,0.6644,,41.27604167,0,47,47,11,1,FBP-OG-91.png,0.37,1.2,12,0.5,,,,,,,,,,,,,,,,,,,,,,,,,,,,,,,,,,,,,,,,,,,,,
,,,,,WIN24_046,19,male,2024-02-09_11h36.27.320,jersey_experiment_5,2023.2.2,Win32,85.47008547,,,,,,,,,,,,,,,,253.0266,254.8263,254.8263,257.2969,return,0.9125,,71.09375,0,48,48,39,1,FBP-YG-81.png,0.45,1.2,40,1,,,,,,,,,,,,,,,,,,,,,,,,,,,,,,,,,,,,,,,,,,,,,
,,,,,WIN24_046,19,male,2024-02-09_11h36.27.320,jersey_experiment_5,2023.2.2,Win32,85.47008547,,,,,,,,,,,,,,,,257.2971,258.5912,258.5913,261.0267,return,0.7254,,71.09375,0,49,49,2,1,FBP-OG-71.png,0.4,1.2,3,0.5,,,,,,,,,,,,,,,,,,,,,,,,,,,,,,,,,,,,,,,,,,,,,
,,,,,WIN24_046,19,male,2024-02-09_11h36.27.320,jersey_experiment_5,2023.2.2,Win32,85.47008547,,,,,,,,,,,,,,,,261.0269,262.3208,262.3208,264.4032,return,0.6893,,83.33333333,0,50,50,14,1,FBP-OG-91.png,0.45,1.2,15,0.5,,,,,,,,,,,,,,,,,,,,,,,,,,,,,,,,,,,,,,,,,,,,,
,,,,,WIN24_046,19,male,2024-02-09_11h36.27.320,jersey_experiment_5,2023.2.2,Win32,85.47008547,,,,,,,,,,,,,,,,264.4035,266.2034,266.2034,267.9091,return,0.854,,36.328125,0,51,51,41,1,FBP-YG-91.png,0.37,1.2,42,1,,,,,,,,,,,,,,,,,,,,,,,,,,,,,,,,,,,,,,,,,,,,,
,,,,,WIN24_046,19,male,2024-02-09_11h36.27.320,jersey_experiment_5,2023.2.2,Win32,85.47008547,,,,,,,,,,,,,,,,267.9094,269.2034,269.2034,270.8858,return,0.6619,,74.609375,0,52,52,48,1,FBP-PT-17.png,0.43,1.2,49,0.5,,,,,,,,,,,,,,,,,,,,,,,,,,,,,,,,,,,,,,,,,,,,,
,,,,,WIN24_046,19,male,2024-02-09_11h36.27.320,jersey_experiment_5,2023.2.2,Win32,85.47008547,,,,,,,,,,,,,,,,270.886,272.6858,272.6858,273.8271,return,0.5932,,79.03645833,0,53,53,23,1,FBP-RB-18.png,0.43,1.2,24,1,,,,,,,,,,,,,,,,,,,,,,,,,,,,,,,,,,,,,,,,,,,,,
,,,,,WIN24_046,19,male,2024-02-09_11h36.27.320,jersey_experiment_5,2023.2.2,Win32,85.47008547,,,,,,,,,,,,,,,,273.8273,275.6272,275.6272,276.6507,return,0.683,,79.03645833,0,54,54,38,1,FBP-YG-81.png,0.43,1.2,39,1,,,,,,,,,,,,,,,,,,,,,,,,,,,,,,,,,,,,,,,,,,,,,
,,,,,WIN24_046,19,male,2024-02-09_11h36.27.320,jersey_experiment_5,2023.2.2,Win32,85.47008547,,,,,,,,,,,,,,,,276.651,277.9448,277.9449,279.5213,return,0.6411,,39.58333333,0,55,55,57,1,FBP-PT-19.png,0.4,1.2,58,0.5,,,,,,,,,,,,,,,,,,,,,,,,,,,,,,,,,,,,,,,,,,,,,
,,,,,WIN24_046,19,male,2024-02-09_11h36.27.320,jersey_experiment_5,2023.2.2,Win32,85.47008547,,,,,,,,,,,,,,,,279.5215,280.8156,280.8156,282.5684,return,0.6934,,67.96875,0,56,56,53,1,FBP-PT-18.png,0.43,1.2,54,0.5,,,,,,,,,,,,,,,,,,,,,,,,,,,,,,,,,,,,,,,,,,,,,
,,,,,WIN24_046,19,male,2024-02-09_11h36.27.320,jersey_experiment_5,2023.2.2,Win32,85.47008547,,,,,,,,,,,,,,,,282.5687,283.8627,283.8627,285.5451,return,0.8849,,82.29166667,0,57,57,59,1,FBP-PT-19.png,0.45,1.2,60,0.5,,,,,,,,,,,,,,,,,,,,,,,,,,,,,,,,,,,,,,,,,,,,,
,,,,,WIN24_046,19,male,2024-02-09_11h36.27.320,jersey_experiment_5,2023.2.2,Win32,85.47008547,,,,,,,,,,,,,,,,285.5453,287.3451,287.3451,289.1099,return,0.6489,,24.86979167,0,58,58,30,1,FBP-YG-71.png,0.35,1.2,31,1,,,,,,,,,,,,,,,,,,,,,,,,,,,,,,,,,,,,,,,,,,,,,
,,,,,WIN24_046,19,male,2024-02-09_11h36.27.320,jersey_experiment_5,2023.2.2,Win32,85.47008547,,,,,,,,,,,,,,,,289.1101,290.4042,290.4042,293.4159,return,2.2471,,71.875,0,59,59,7,1,FBP-OG-81.png,0.4,1.2,8,0.5,,,,,,,,,,,,,,,,,,,,,,,,,,,,,,,,,,,,,,,,,,,,,
,,,,,WIN24_046,19,male,2024-02-09_11h36.27.320,jersey_experiment_5,2023.2.2,Win32,85.47008547,,,,,,,,,,,,,,,,293.4187,295.2163,295.2163,296.4867,return,0.6034,,25.26041667,,,,,,FBP-YG-18.png,0.35,1.2,36,1,0,0,0,35,1,,,,,,,,,,,,,,,,,,,,,,,,,,,,,,,,,,,,,,,,
,,,,,WIN24_046,19,male,2024-02-09_11h36.27.320,jersey_experiment_5,2023.2.2,Win32,85.47008547,,,,,,,,,,,,,,,,296.487,297.7808,297.7808,299.2869,return,0.6268,,63.80208333,,,,,,FBP-OG-18.png,0.4,1.2,8,0.5,0,1,1,7,1,,,,,,,,,,,,,,,,,,,,,,,,,,,,,,,,,,,,,,,,
,,,,,WIN24_046,19,male,2024-02-09_11h36.27.320,jersey_experiment_5,2023.2.2,Win32,85.47008547,,,,,,,,,,,,,,,,299.2871,301.087,301.087,302.2046,return,0.6345,,78.77604167,,,,,,FBP-YG-18.png,0.43,1.2,39,1,0,2,2,38,1,,,,,,,,,,,,,,,,,,,,,,,,,,,,,,,,,,,,,,,,
,,,,,WIN24_046,19,male,2024-02-09_11h36.27.320,jersey_experiment_5,2023.2.2,Win32,85.47008547,,,,,,,,,,,,,,,,302.2048,303.4987,303.4987,305.1224,return,0.6172,,55.078125,,,,,,FBP-OG-19.png,0.37,1.2,12,0.5,0,3,3,11,1,,,,,,,,,,,,,,,,,,,,,,,,,,,,,,,,,,,,,,,,
,,,,,WIN24_046,19,male,2024-02-09_11h36.27.320,jersey_experiment_5,2023.2.2,Win32,85.47008547,,,,,,,,,,,,,,,,305.1226,306.4165,306.4165,307.7812,return,0.5678,,81.11979167,,,,,,FBP-OG-18.png,0.45,1.2,10,0.5,0,4,4,9,1,,,,,,,,,,,,,,,,,,,,,,,,,,,,,,,,,,,,,,,,
,,,,,WIN24_046,19,male,2024-02-09_11h36.27.320,jersey_experiment_5,2023.2.2,Win32,85.47008547,,,,,,,,,,,,,,,,307.7815,309.5814,309.5815,310.8754,return,0.6446,,51.953125,,,,,,FBP-YG-19.png,0.37,1.2,42,1,0,5,5,41,1,,,,,,,,,,,,,,,,,,,,,,,,,,,,,,,,,,,,,,,,
,,,,,WIN24_046,19,male,2024-02-09_11h36.27.320,jersey_experiment_5,2023.2.2,Win32,85.47008547,,,,,,,,,,,,,,,,310.8756,312.1696,312.1696,314.2756,return,0.6397,,69.140625,,,,,,FBP-OG-17.png,0.4,1.2,3,0.5,0,6,6,2,1,,,,,,,,,,,,,,,,,,,,,,,,,,,,,,,,,,,,,,,,
,,,,,WIN24_046,19,male,2024-02-09_11h36.27.320,jersey_experiment_5,2023.2.2,Win32,85.47008547,,,,,,,,,,,,,,,,314.2757,316.0756,316.0756,317.9934,return,0.7295,,78.515625,,,,,,FBP-RB-81.png,0.45,1.2,25,1,0,7,7,24,1,,,,,,,,,,,,,,,,,,,,,,,,,,,,,,,,,,,,,,,,
,,,,,WIN24_046,19,male,2024-02-09_11h36.27.320,jersey_experiment_5,2023.2.2,Win32,85.47008547,,,,,,,,,,,,,,,,317.9937,319.2876,319.2877,321.8524,return,0.6116,,58.85416667,,,,,,FBP-PT-91.png,0.43,1.2,59,0.5,0,8,8,58,1,,,,,,,,,,,,,,,,,,,,,,,,,,,,,,,,,,,,,,,,
,,,,,WIN24_046,19,male,2024-02-09_11h36.27.320,jersey_experiment_5,2023.2.2,Win32,85.47008547,,,,,,,,,,,,,,,,321.8527,323.6522,323.6522,326.0524,return,0.6271,,36.71875,,,,,,FBP-YG-19.png,0.35,1.2,41,1,0,9,9,40,1,,,,,,,,,,,,,,,,,,,,,,,,,,,,,,,,,,,,,,,,
,,,,,WIN24_046,19,male,2024-02-09_11h36.27.320,jersey_experiment_5,2023.2.2,Win32,85.47008547,,,,,,,,,,,,,,,,326.0526,327.3466,327.3466,329.2879,return,0.6498,,81.11979167,,,,,,FBP-PT-81.png,0.45,1.2,55,0.5,0,10,10,54,1,,,,,,,,,,,,,,,,,,,,,,,,,,,,,,,,,,,,,,,,
,,,,,WIN24_046,19,male,2024-02-09_11h36.27.320,jersey_experiment_5,2023.2.2,Win32,85.47008547,,,,,,,,,,,,,,,,329.2881,331.0879,331.0879,333.1116,return,1.2499,,56.38020833,,,,,,FBP-RB-91.png,0.4,1.2,28,1,0,11,11,27,1,,,,,,,,,,,,,,,,,,,,,,,,,,,,,,,,,,,,,,,,
,,,,,WIN24_046,19,male,2024-02-09_11h36.27.320,jersey_experiment_5,2023.2.2,Win32,85.47008547,,,,,,,,,,,,,,,,333.1119,334.9118,334.9118,336.8175,return,1.2675,,72.65625,,,,,,FBP-RB-91.png,0.43,1.2,29,1,0,12,12,28,1,,,,,,,,,,,,,,,,,,,,,,,,,,,,,,,,,,,,,,,,
,,,,,WIN24_046,19,male,2024-02-09_11h36.27.320,jersey_experiment_5,2023.2.2,Win32,85.47008547,,,,,,,,,,,,,,,,336.8178,338.1117,338.1117,339.3941,return,0.573,,74.08854167,,,,,,FBP-OG-19.png,0.43,1.2,14,0.5,0,13,13,13,1,,,,,,,,,,,,,,,,,,,,,,,,,,,,,,,,,,,,,,,,
,,,,,WIN24_046,19,male,2024-02-09_11h36.27.320,jersey_experiment_5,2023.2.2,Win32,85.47008547,,,,,,,,,,,,,,,,339.3944,341.1944,341.1944,342.6177,return,0.7154,,53.125,,,,,,FBP-YG-17.png,0.35,1.2,31,1,0,14,14,30,1,,,,,,,,,,,,,,,,,,,,,,,,,,,,,,,,,,,,,,,,
,,,,,WIN24_046,19,male,2024-02-09_11h36.27.320,jersey_experiment_5,2023.2.2,Win32,85.47008547,,,,,,,,,,,,,,,,342.618,344.4178,344.4179,346.3709,return,0.9606,,46.875,,,,,,FBP-RB-71.png,0.35,1.2,16,1,0,15,15,15,1,,,,,,,,,,,,,,,,,,,,,,,,,,,,,,,,,,,,,,,,
,,,,,WIN24_046,19,male,2024-02-09_11h36.27.320,jersey_experiment_5,2023.2.2,Win32,85.47008547,,,,,,,,,,,,,,,,346.3711,348.1709,348.1709,349.571,return,0.6645,,61.58854167,,,,,,FBP-RB-81.png,0.37,1.2,22,1,0,16,16,21,1,,,,,,,,,,,,,,,,,,,,,,,,,,,,,,,,,,,,,,,,
,,,,,WIN24_046,19,male,2024-02-09_11h36.27.320,jersey_experiment_5,2023.2.2,Win32,85.47008547,,,,,,,,,,,,,,,,349.5712,351.371,351.371,352.3476,return,0.6028,,61.58854167,,,,,,FBP-RB-71.png,0.4,1.2,18,1,0,17,17,17,1,,,,,,,,,,,,,,,,,,,,,,,,,,,,,,,,,,,,,,,,
,,,,,WIN24_046,19,male,2024-02-09_11h36.27.320,jersey_experiment_5,2023.2.2,Win32,85.47008547,,,,,,,,,,,,,,,,352.3479,354.1477,354.1477,356.3477,return,1.2612,,76.5625,,,,,,FBP-RB-71.png,0.45,1.2,20,1,0,18,18,19,1,,,,,,,,,,,,,,,,,,,,,,,,,,,,,,,,,,,,,,,,
,,,,,WIN24_046,19,male,2024-02-09_11h36.27.320,jersey_experiment_5,2023.2.2,Win32,85.47008547,,,,,,,,,,,,,,,,356.348,357.6419,357.642,358.9713,return,0.5649,,77.47395833,,,,,,FBP-OG-17.png,0.43,1.2,4,0.5,0,19,19,3,1,,,,,,,,,,,,,,,,,,,,,,,,,,,,,,,,,,,,,,,,
,,,,,WIN24_046,19,male,2024-02-09_11h36.27.320,jersey_experiment_5,2023.2.2,Win32,85.47008547,,,,,,,,,,,,,,,,358.9715,360.7714,360.7714,363.0184,return,0.588,,63.80208333,,,,,,FBP-YG-19.png,0.4,1.2,43,1,0,20,20,42,1,,,,,,,,,,,,,,,,,,,,,,,,,,,,,,,,,,,,,,,,
,,,,,WIN24_046,19,male,2024-02-09_11h36.27.320,jersey_experiment_5,2023.2.2,Win32,85.47008547,,,,,,,,,,,,,,,,363.0188,364.8188,364.8188,365.9598,return,0.6851,,67.31770833,,,,,,FBP-YG-19.png,0.43,1.2,44,1,0,21,21,43,1,,,,,,,,,,,,,,,,,,,,,,,,,,,,,,,,,,,,,,,,
,,,,,WIN24_046,19,male,2024-02-09_11h36.27.320,jersey_experiment_5,2023.2.2,Win32,85.47008547,,,,,,,,,,,,,,,,365.9599,367.2539,367.254,368.3951,return,0.5559,,67.31770833,,,,,,FBP-PT-81.png,0.4,1.2,53,0.5,0,22,22,52,1,,,,,,,,,,,,,,,,,,,,,,,,,,,,,,,,,,,,,,,,
,,,,,WIN24_046,19,male,2024-02-09_11h36.27.320,jersey_experiment_5,2023.2.2,Win32,85.47008547,,,,,,,,,,,,,,,,368.3954,369.6894,369.6894,371.3364,return,0.6026,,77.47395833,,,,,,FBP-PT-71.png,0.43,1.2,49,0.5,0,23,23,48,1,,,,,,,,,,,,,,,,,,,,,,,,,,,,,,,,,,,,,,,,
,,,,,WIN24_046,19,male,2024-02-09_11h36.27.320,jersey_experiment_5,2023.2.2,Win32,85.47008547,,,,,,,,,,,,,,,,371.3367,373.1366,373.1366,374.3484,return,0.626,,36.97916667,,,,,,FBP-RB-71.png,0.37,1.2,17,1,0,24,24,16,1,,,,,,,,,,,,,,,,,,,,,,,,,,,,,,,,,,,,,,,,
,,,,,WIN24_046,19,male,2024-02-09_11h36.27.320,jersey_experiment_5,2023.2.2,Win32,85.47008547,,,,,,,,,,,,,,,,374.3487,375.6425,375.6426,377.3484,return,0.6277,,73.4375,,,,,,FBP-PT-81.png,0.43,1.2,54,0.5,0,25,25,53,1,,,,,,,,,,,,,,,,,,,,,,,,,,,,,,,,,,,,,,,,
,,,,,WIN24_046,19,male,2024-02-09_11h36.27.320,jersey_experiment_5,2023.2.2,Win32,85.47008547,,,,,,,,,,,,,,,,377.3488,379.1485,379.1485,380.1132,return,0.6184,,74.609375,,,,,,FBP-RB-71.png,0.43,1.2,19,1,0,26,26,18,1,,,,,,,,,,,,,,,,,,,,,,,,,,,,,,,,,,,,,,,,
,,,,,WIN24_046,19,male,2024-02-09_11h36.27.320,jersey_experiment_5,2023.2.2,Win32,85.47008547,,,,,,,,,,,,,,,,380.1133,381.4075,381.4075,383.1133,return,0.6688,,30.33854167,,,,,,FBP-OG-18.png,0.37,1.2,7,0.5,0,27,27,6,1,,,,,,,,,,,,,,,,,,,,,,,,,,,,,,,,,,,,,,,,
,,,,,WIN24_046,19,male,2024-02-09_11h36.27.320,jersey_experiment_5,2023.2.2,Win32,85.47008547,,,,,,,,,,,,,,,,383.1136,384.9134,384.9135,386.2663,return,0.565,,49.86979167,,,,,,FBP-YG-18.png,0.4,1.2,38,1,0,28,28,37,1,,,,,,,,,,,,,,,,,,,,,,,,,,,,,,,,,,,,,,,,
,,,,,WIN24_046,19,male,2024-02-09_11h36.27.320,jersey_experiment_5,2023.2.2,Win32,85.47008547,,,,,,,,,,,,,,,,386.2666,387.5605,387.5605,389.5136,return,0.6138,,23.95833333,,,,,,FBP-PT-91.png,0.37,1.2,57,0.5,0,29,29,56,1,,,,,,,,,,,,,,,,,,,,,,,,,,,,,,,,,,,,,,,,
,,,,,WIN24_046,19,male,2024-02-09_11h36.27.320,jersey_experiment_5,2023.2.2,Win32,85.47008547,,,,,,,,,,,,,,,,389.5138,390.8077,390.8078,392.8902,return,1.0827,,11.06770833,,,,,,FBP-OG-18.png,0.35,1.2,6,0.5,0,30,30,5,1,,,,,,,,,,,,,,,,,,,,,,,,,,,,,,,,,,,,,,,,
,,,,,WIN24_046,19,male,2024-02-09_11h36.27.320,jersey_experiment_5,2023.2.2,Win32,85.47008547,,,,,,,,,,,,,,,,392.8905,394.6903,394.6903,395.7962,return,0.6647,,11.19791667,,,,,,FBP-RB-91.png,0.35,1.2,26,1,0,31,31,25,1,,,,,,,,,,,,,,,,,,,,,,,,,,,,,,,,,,,,,,,,
,,,,,WIN24_046,19,male,2024-02-09_11h36.27.320,jersey_experiment_5,2023.2.2,Win32,85.47008547,,,,,,,,,,,,,,,,395.7964,397.5964,397.5964,399.0904,return,0.6431,,52.86458333,,,,,,FBP-RB-81.png,0.4,1.2,23,1,0,32,32,22,1,,,,,,,,,,,,,,,,,,,,,,,,,,,,,,,,,,,,,,,,
,,,,,WIN24_046,19,male,2024-02-09_11h36.27.320,jersey_experiment_5,2023.2.2,Win32,85.47008547,,,,,,,,,,,,,,,,399.0906,400.8905,400.8905,403.4199,return,0.5882,,71.22395833,,,,,,FBP-YG-17.png,0.4,1.2,33,1,0,33,33,32,1,,,,,,,,,,,,,,,,,,,,,,,,,,,,,,,,,,,,,,,,
,,,,,WIN24_046,19,male,2024-02-09_11h36.27.320,jersey_experiment_5,2023.2.2,Win32,85.47008547,,,,,,,,,,,,,,,,403.4201,405.22,405.2201,407.1966,return,0.5887,,86.19791667,,,,,,FBP-YG-19.png,0.45,1.2,45,1,0,34,34,44,1,,,,,,,,,,,,,,,,,,,,,,,,,,,,,,,,,,,,,,,,
,,,,,WIN24_046,19,male,2024-02-09_11h36.27.320,jersey_experiment_5,2023.2.2,Win32,85.47008547,,,,,,,,,,,,,,,,407.1967,408.9966,408.9966,410.0203,return,0.5449,,85.546875,,,,,,FBP-RB-91.png,0.45,1.2,30,1,0,35,35,29,1,,,,,,,,,,,,,,,,,,,,,,,,,,,,,,,,,,,,,,,,
,,,,,WIN24_046,19,male,2024-02-09_11h36.27.320,jersey_experiment_5,2023.2.2,Win32,85.47008547,,,,,,,,,,,,,,,,410.0205,411.3144,411.3144,412.8909,return,0.6027,,30.72916667,,,,,,FBP-PT-71.png,0.35,1.2,46,0.5,0,36,36,45,1,,,,,,,,,,,,,,,,,,,,,,,,,,,,,,,,,,,,,,,,
,,,,,WIN24_046,19,male,2024-02-09_11h36.27.320,jersey_experiment_5,2023.2.2,Win32,85.47008547,,,,,,,,,,,,,,,,412.8911,414.1851,414.1851,415.6205,return,0.5918,,29.16666667,,,,,,FBP-PT-91.png,0.35,1.2,56,0.5,0,37,37,55,1,,,,,,,,,,,,,,,,,,,,,,,,,,,,,,,,,,,,,,,,
,,,,,WIN24_046,19,male,2024-02-09_11h36.27.320,jersey_experiment_5,2023.2.2,Win32,85.47008547,,,,,,,,,,,,,,,,415.6207,417.4205,417.4205,419.2206,return,0.5917,,74.73958333,,,,,,FBP-YG-18.png,0.45,1.2,40,1,0,38,38,39,1,,,,,,,,,,,,,,,,,,,,,,,,,,,,,,,,,,,,,,,,
,,,,,WIN24_046,19,male,2024-02-09_11h36.27.320,jersey_experiment_5,2023.2.2,Win32,85.47008547,,,,,,,,,,,,,,,,419.2208,421.0204,421.0204,423.6913,return,0.6355,,75.390625,,,,,,FBP-YG-17.png,0.45,1.2,35,1,0,39,39,34,1,,,,,,,,,,,,,,,,,,,,,,,,,,,,,,,,,,,,,,,,
,,,,,WIN24_046,19,male,2024-02-09_11h36.27.320,jersey_experiment_5,2023.2.2,Win32,85.47008547,,,,,,,,,,,,,,,,423.6915,424.9854,424.9854,426.9502,return,0.6961,,21.484375,,,,,,FBP-OG-19.png,0.35,1.2,11,0.5,0,40,40,10,1,,,,,,,,,,,,,,,,,,,,,,,,,,,,,,,,,,,,,,,,
,,,,,WIN24_046,19,male,2024-02-09_11h36.27.320,jersey_experiment_5,2023.2.2,Win32,85.47008547,,,,,,,,,,,,,,,,426.9504,428.2443,428.2443,430.1032,return,1.0005,,65.88541667,,,,,,FBP-PT-71.png,0.45,1.2,50,0.5,0,41,41,49,1,,,,,,,,,,,,,,,,,,,,,,,,,,,,,,,,,,,,,,,,
,,,,,WIN24_046,19,male,2024-02-09_11h36.27.320,jersey_experiment_5,2023.2.2,Win32,85.47008547,,,,,,,,,,,,,,,,430.1034,431.3974,431.3974,433.0092,return,0.6328,,50.65104167,,,,,,FBP-PT-71.png,0.37,1.2,47,0.5,0,42,42,46,1,,,,,,,,,,,,,,,,,,,,,,,,,,,,,,,,,,,,,,,,
,,,,,WIN24_046,19,male,2024-02-09_11h36.27.320,jersey_experiment_5,2023.2.2,Win32,85.47008547,,,,,,,,,,,,,,,,433.0094,434.8092,434.8092,436.28,return,0.5086,,75.91145833,,,,,,FBP-RB-81.png,0.43,1.2,24,1,0,43,43,23,1,,,,,,,,,,,,,,,,,,,,,,,,,,,,,,,,,,,,,,,,
,,,,,WIN24_046,19,male,2024-02-09_11h36.27.320,jersey_experiment_5,2023.2.2,Win32,85.47008547,,,,,,,,,,,,,,,,436.2802,437.5743,437.5743,438.9976,return,0.531,,75.390625,,,,,,FBP-OG-18.png,0.43,1.2,9,0.5,0,44,44,8,1,,,,,,,,,,,,,,,,,,,,,,,,,,,,,,,,,,,,,,,,
,,,,,WIN24_046,19,male,2024-02-09_11h36.27.320,jersey_experiment_5,2023.2.2,Win32,85.47008547,,,,,,,,,,,,,,,,438.9978,440.7977,440.7977,442.7861,return,0.808,,49.609375,,,,,,FBP-YG-18.png,0.37,1.2,37,1,0,45,45,36,1,,,,,,,,,,,,,,,,,,,,,,,,,,,,,,,,,,,,,,,,
,,,,,WIN24_046,19,male,2024-02-09_11h36.27.320,jersey_experiment_5,2023.2.2,Win32,85.47008547,,,,,,,,,,,,,,,,442.7862,444.0802,444.0802,445.7626,return,0.6169,,73.95833333,,,,,,FBP-OG-17.png,0.45,1.2,5,0.5,0,46,46,4,1,,,,,,,,,,,,,,,,,,,,,,,,,,,,,,,,,,,,,,,,
,,,,,WIN24_046,19,male,2024-02-09_11h36.27.320,jersey_experiment_5,2023.2.2,Win32,85.47008547,,,,,,,,,,,,,,,,445.7628,447.0568,447.0569,449.5275,return,0.6829,,27.99479167,,,,,,FBP-OG-17.png,0.37,1.2,2,0.5,0,47,47,1,1,,,,,,,,,,,,,,,,,,,,,,,,,,,,,,,,,,,,,,,,
,,,,,WIN24_046,19,male,2024-02-09_11h36.27.320,jersey_experiment_5,2023.2.2,Win32,85.47008547,,,,,,,,,,,,,,,,449.5277,451.3275,451.3275,456.1159,return,0.6865,,51.953125,,,,,,FBP-YG-17.png,0.43,1.2,34,1,0,48,48,33,1,,,,,,,,,,,,,,,,,,,,,,,,,,,,,,,,,,,,,,,,
,,,,,WIN24_046,19,male,2024-02-09_11h36.27.320,jersey_experiment_5,2023.2.2,Win32,85.47008547,,,,,,,,,,,,,,,,456.1161,457.9159,457.916,463.1281,return,3.0593,,24.21875,,,,,,FBP-RB-81.png,0.35,1.2,21,1,0,49,49,20,1,,,,,,,,,,,,,,,,,,,,,,,,,,,,,,,,,,,,,,,,
,,,,,WIN24_046,19,male,2024-02-09_11h36.27.320,jersey_experiment_5,2023.2.2,Win32,85.47008547,,,,,,,,,,,,,,,,463.1282,464.4222,464.4222,466.3634,return,0.6355,,48.69791667,,,,,,FBP-OG-19.png,0.4,1.2,13,0.5,0,50,50,12,1,,,,,,,,,,,,,,,,,,,,,,,,,,,,,,,,,,,,,,,,
,,,,,WIN24_046,19,male,2024-02-09_11h36.27.320,jersey_experiment_5,2023.2.2,Win32,85.47008547,,,,,,,,,,,,,,,,466.3636,467.6576,467.6576,469.0341,return,0.5652,,50.26041667,,,,,,FBP-OG-17.png,0.35,1.2,1,0.5,0,51,51,0,1,,,,,,,,,,,,,,,,,,,,,,,,,,,,,,,,,,,,,,,,
,,,,,WIN24_046,19,male,2024-02-09_11h36.27.320,jersey_experiment_5,2023.2.2,Win32,85.47008547,,,,,,,,,,,,,,,,469.0343,470.3283,470.3283,471.7047,return,0.5752,,68.61979167,,,,,,FBP-OG-19.png,0.45,1.2,15,0.5,0,52,52,14,1,,,,,,,,,,,,,,,,,,,,,,,,,,,,,,,,,,,,,,,,
,,,,,WIN24_046,19,male,2024-02-09_11h36.27.320,jersey_experiment_5,2023.2.2,Win32,85.47008547,,,,,,,,,,,,,,,,471.7049,473.5049,473.5049,474.9048,return,0.599,,53.64583333,,,,,,FBP-RB-91.png,0.37,1.2,27,1,0,53,53,26,1,,,,,,,,,,,,,,,,,,,,,,,,,,,,,,,,,,,,,,,,
,,,,,WIN24_046,19,male,2024-02-09_11h36.27.320,jersey_experiment_5,2023.2.2,Win32,85.47008547,,,,,,,,,,,,,,,,474.9051,476.705,476.705,478.4227,return,0.6364,,57.68229167,,,,,,FBP-YG-17.png,0.37,1.2,32,1,0,54,54,31,1,,,,,,,,,,,,,,,,,,,,,,,,,,,,,,,,,,,,,,,,
,,,,,WIN24_046,19,male,2024-02-09_11h36.27.320,jersey_experiment_5,2023.2.2,Win32,85.47008547,,,,,,,,,,,,,,,,478.4229,479.7168,479.7168,481.1875,return,0.5478,,55.72916667,,,,,,FBP-PT-81.png,0.37,1.2,52,0.5,0,55,55,51,1,,,,,,,,,,,,,,,,,,,,,,,,,,,,,,,,,,,,,,,,
,,,,,WIN24_046,19,male,2024-02-09_11h36.27.320,jersey_experiment_5,2023.2.2,Win32,85.47008547,,,,,,,,,,,,,,,,481.1877,482.4816,482.4816,483.7523,return,0.717,,55.72916667,,,,,,FBP-PT-71.png,0.4,1.2,48,0.5,0,56,56,47,1,,,,,,,,,,,,,,,,,,,,,,,,,,,,,,,,,,,,,,,,
,,,,,WIN24_046,19,male,2024-02-09_11h36.27.320,jersey_experiment_5,2023.2.2,Win32,85.47008547,,,,,,,,,,,,,,,,483.7525,485.0464,485.0464,486.3875,return,0.6183,,55.72916667,,,,,,FBP-PT-91.png,0.4,1.2,58,0.5,0,57,57,57,1,,,,,,,,,,,,,,,,,,,,,,,,,,,,,,,,,,,,,,,,
,,,,,WIN24_046,19,male,2024-02-09_11h36.27.320,jersey_experiment_5,2023.2.2,Win32,85.47008547,,,,,,,,,,,,,,,,486.3877,487.6818,487.6818,489.4584,return,0.5703,,82.03125,,,,,,FBP-PT-91.png,0.45,1.2,60,0.5,0,58,58,59,1,,,,,,,,,,,,,,,,,,,,,,,,,,,,,,,,,,,,,,,,
,,,,,WIN24_046,19,male,2024-02-09_11h36.27.320,jersey_experiment_5,2023.2.2,Win32,85.47008547,,,,,,,,,,,,,,,,489.4586,490.7525,490.7526,492.8232,return,0.6032,,24.21875,,,,,,FBP-PT-81.png,0.35,1.2,51,0.5,0,59,59,50,1,,,,,,,,,,,,,,,,,,,,,,,,,,,,,,,,,,,,,,,,
,,,,,WIN24_046,19,male,2024-02-09_11h36.27.320,jersey_experiment_5,2023.2.2,Win32,85.47008547,,,,,,,,,,,,,,,,,,,,,,,,,,,,,,,,,,,,,,,492.8238,612.8278,,,,,,,,,,,,,,,,,,,,,,,,,,,,,,,,,,,,,,
,,,,,WIN24_046,19,male,2024-02-09_11h36.27.320,jersey_experiment_5,2023.2.2,Win32,85.47008547,,,,,,,,,,,,,,,,,,,,,,,,,,,,,,,,,,,,,,,,,612.8279,624.1811,return,11.3451,,,,,,,,,,,,,,,,,,,,,,,,,,,,,,,,,,
,,,,,WIN24_046,19,male,2024-02-09_11h36.27.320,jersey_experiment_5,2023.2.2,Win32,85.47008547,,,,,,,,,,,,,,,,624.1873,625.4867,625.4867,627.8986,return,0.6594,,50.65104167,,,,,,FBP-YG-71.png,0.35,1.2,31,0.5,,,,,,,,,,,,,0,0,0,30,1,,,,,,,,,,,,,,,,,,,,,,,,,,,,
,,,,,WIN24_046,19,male,2024-02-09_11h36.27.320,jersey_experiment_5,2023.2.2,Win32,85.47008547,,,,,,,,,,,,,,,,627.8989,629.6987,629.6987,631.5223,return,0.5726,,62.36979167,,,,,,FBP-PT-17.png,0.4,1.2,48,1,,,,,,,,,,,,,0,1,1,47,1,,,,,,,,,,,,,,,,,,,,,,,,,,,,
,,,,,WIN24_046,19,male,2024-02-09_11h36.27.320,jersey_experiment_5,2023.2.2,Win32,85.47008547,,,,,,,,,,,,,,,,631.5224,633.3226,633.3226,634.4871,return,0.6146,,69.66145833,,,,,,FBP-OG-71.png,0.45,1.2,5,1,,,,,,,,,,,,,0,2,2,4,1,,,,,,,,,,,,,,,,,,,,,,,,,,,,
,,,,,WIN24_046,19,male,2024-02-09_11h36.27.320,jersey_experiment_5,2023.2.2,Win32,85.47008547,,,,,,,,,,,,,,,,634.4873,636.2873,636.2873,637.9929,return,1.1067,,44.921875,,,,,,FBP-OG-81.png,0.35,1.2,6,1,,,,,,,,,,,,,0,3,3,5,1,,,,,,,,,,,,,,,,,,,,,,,,,,,,
,,,,,WIN24_046,19,male,2024-02-09_11h36.27.320,jersey_experiment_5,2023.2.2,Win32,85.47008547,,,,,,,,,,,,,,,,637.9931,639.7933,639.7933,641.1697,return,0.667,,76.43229167,,,,,,FBP-OG-91.png,0.45,1.2,15,1,,,,,,,,,,,,,0,4,4,14,1,,,,,,,,,,,,,,,,,,,,,,,,,,,,
,,,,,WIN24_046,19,male,2024-02-09_11h36.27.320,jersey_experiment_5,2023.2.2,Win32,85.47008547,,,,,,,,,,,,,,,,641.17,642.4638,642.4638,644.0875,return,0.5908,,49.21875,,,,,,FBP-RB-17.png,0.37,1.2,17,0.5,,,,,,,,,,,,,0,5,5,16,1,,,,,,,,,,,,,,,,,,,,,,,,,,,,
,,,,,WIN24_046,19,male,2024-02-09_11h36.27.320,jersey_experiment_5,2023.2.2,Win32,85.47008547,,,,,,,,,,,,,,,,644.0877,645.8876,645.8876,647.0758,return,0.5942,,73.69791667,,,,,,FBP-PT-19.png,0.43,1.2,59,1,,,,,,,,,,,,,0,6,6,58,1,,,,,,,,,,,,,,,,,,,,,,,,,,,,
,,,,,WIN24_046,19,male,2024-02-09_11h36.27.320,jersey_experiment_5,2023.2.2,Win32,85.47008547,,,,,,,,,,,,,,,,647.076,648.3699,648.3699,649.8523,return,0.5885,,48.828125,,,,,,FBP-RB-18.png,0.35,1.2,21,0.5,,,,,,,,,,,,,0,7,7,20,1,,,,,,,,,,,,,,,,,,,,,,,,,,,,
,,,,,WIN24_046,19,male,2024-02-09_11h36.27.320,jersey_experiment_5,2023.2.2,Win32,85.47008547,,,,,,,,,,,,,,,,649.8526,651.1465,651.1465,652.8054,return,0.6046,,58.72395833,,,,,,FBP-YG-81.png,0.35,1.2,36,0.5,,,,,,,,,,,,,0,8,8,35,1,,,,,,,,,,,,,,,,,,,,,,,,,,,,
,,,,,WIN24_046,19,male,2024-02-09_11h36.27.320,jersey_experiment_5,2023.2.2,Win32,85.47008547,,,,,,,,,,,,,,,,652.8057,654.0996,654.0996,656.0408,return,0.6129,,76.04166667,,,,,,FBP-RB-19.png,0.45,1.2,30,0.5,,,,,,,,,,,,,0,9,9,29,1,,,,,,,,,,,,,,,,,,,,,,,,,,,,
,,,,,WIN24_046,19,male,2024-02-09_11h36.27.320,jersey_experiment_5,2023.2.2,Win32,85.47008547,,,,,,,,,,,,,,,,656.041,657.8409,657.8409,658.7586,return,0.5562,,76.04166667,,,,,,FBP-OG-71.png,0.4,1.2,3,1,,,,,,,,,,,,,0,10,10,2,1,,,,,,,,,,,,,,,,,,,,,,,,,,,,
,,,,,WIN24_046,19,male,2024-02-09_11h36.27.320,jersey_experiment_5,2023.2.2,Win32,85.47008547,,,,,,,,,,,,,,,,658.7588,660.5585,660.5585,662.5235,return,0.9886,,59.11458333,,,,,,FBP-PT-19.png,0.4,1.2,58,1,,,,,,,,,,,,,0,11,11,57,1,,,,,,,,,,,,,,,,,,,,,,,,,,,,
,,,,,WIN24_046,19,male,2024-02-09_11h36.27.320,jersey_experiment_5,2023.2.2,Win32,85.47008547,,,,,,,,,,,,,,,,662.5236,664.3235,664.3236,666.0883,return,1.0937,,80.33854167,,,,,,FBP-PT-18.png,0.45,1.2,55,1,,,,,,,,,,,,,0,12,12,54,1,,,,,,,,,,,,,,,,,,,,,,,,,,,,
,,,,,WIN24_046,19,male,2024-02-09_11h36.27.320,jersey_experiment_5,2023.2.2,Win32,85.47008547,,,,,,,,,,,,,,,,666.0884,667.3822,667.3823,669.5942,return,0.5414,,44.27083333,,,,,,FBP-RB-17.png,0.35,1.2,16,0.5,,,,,,,,,,,,,0,13,13,15,1,,,,,,,,,,,,,,,,,,,,,,,,,,,,
,,,,,WIN24_046,19,male,2024-02-09_11h36.27.320,jersey_experiment_5,2023.2.2,Win32,85.47008547,,,,,,,,,,,,,,,,669.5944,671.3945,671.3946,672.7591,return,0.556,,79.42708333,,,,,,FBP-PT-19.png,0.45,1.2,60,1,,,,,,,,,,,,,0,14,14,59,1,,,,,,,,,,,,,,,,,,,,,,,,,,,,
,,,,,WIN24_046,19,male,2024-02-09_11h36.27.320,jersey_experiment_5,2023.2.2,Win32,85.47008547,,,,,,,,,,,,,,,,672.7594,674.5591,674.5591,675.6886,return,0.7873,,79.42708333,,,,,,FBP-PT-18.png,0.43,1.2,54,1,,,,,,,,,,,,,0,15,15,53,1,,,,,,,,,,,,,,,,,,,,,,,,,,,,
,,,,,WIN24_046,19,male,2024-02-09_11h36.27.320,jersey_experiment_5,2023.2.2,Win32,85.47008547,,,,,,,,,,,,,,,,675.6887,677.4887,677.4887,679.4182,return,0.565,,79.94791667,,,,,,FBP-OG-81.png,0.45,1.2,10,1,,,,,,,,,,,,,0,16,16,9,1,,,,,,,,,,,,,,,,,,,,,,,,,,,,
,,,,,WIN24_046,19,male,2024-02-09_11h36.27.320,jersey_experiment_5,2023.2.2,Win32,85.47008547,,,,,,,,,,,,,,,,679.4185,681.2183,681.2183,682.8066,return,0.7775,,44.40104167,,,,,,FBP-OG-71.png,0.37,1.2,2,1,,,,,,,,,,,,,0,17,17,1,1,,,,,,,,,,,,,,,,,,,,,,,,,,,,
,,,,,WIN24_046,19,male,2024-02-09_11h36.27.320,jersey_experiment_5,2023.2.2,Win32,85.47008547,,,,,,,,,,,,,,,,682.8068,684.6065,684.6066,685.8889,return,0.5857,,74.08854167,,,,,,FBP-PT-17.png,0.45,1.2,50,1,,,,,,,,,,,,,0,18,18,49,1,,,,,,,,,,,,,,,,,,,,,,,,,,,,
,,,,,WIN24_046,19,male,2024-02-09_11h36.27.320,jersey_experiment_5,2023.2.2,Win32,85.47008547,,,,,,,,,,,,,,,,685.8891,687.1834,687.1834,688.642,return,0.6078,,78.90625,,,,,,FBP-RB-18.png,0.45,1.2,25,0.5,,,,,,,,,,,,,0,19,19,24,1,,,,,,,,,,,,,,,,,,,,,,,,,,,,
,,,,,WIN24_046,19,male,2024-02-09_11h36.27.320,jersey_experiment_5,2023.2.2,Win32,85.47008547,,,,,,,,,,,,,,,,688.6422,689.9362,689.9362,692.4421,return,0.5035,,80.33854167,,,,,,FBP-YG-71.png,0.4,1.2,33,0.5,,,,,,,,,,,,,0,20,20,32,1,,,,,,,,,,,,,,,,,,,,,,,,,,,,
,,,,,WIN24_046,19,male,2024-02-09_11h36.27.320,jersey_experiment_5,2023.2.2,Win32,85.47008547,,,,,,,,,,,,,,,,692.4423,693.7362,693.7362,695.1128,return,0.4612,,66.40625,,,,,,FBP-RB-17.png,0.4,1.2,18,0.5,,,,,,,,,,,,,0,21,21,17,1,,,,,,,,,,,,,,,,,,,,,,,,,,,,
,,,,,WIN24_046,19,male,2024-02-09_11h36.27.320,jersey_experiment_5,2023.2.2,Win32,85.47008547,,,,,,,,,,,,,,,,695.113,696.9129,696.913,698.2424,return,0.5467,,48.17708333,,,,,,FBP-PT-18.png,0.37,1.2,52,1,,,,,,,,,,,,,0,22,22,51,1,,,,,,,,,,,,,,,,,,,,,,,,,,,,
,,,,,WIN24_046,19,male,2024-02-09_11h36.27.320,jersey_experiment_5,2023.2.2,Win32,85.47008547,,,,,,,,,,,,,,,,698.2426,699.5365,699.5365,701.0776,return,0.555,,75.13020833,,,,,,FBP-YG-91.png,0.45,1.2,45,0.5,,,,,,,,,,,,,0,23,23,44,1,,,,,,,,,,,,,,,,,,,,,,,,,,,,
,,,,,WIN24_046,19,male,2024-02-09_11h36.27.320,jersey_experiment_5,2023.2.2,Win32,85.47008547,,,,,,,,,,,,,,,,701.0778,702.3718,702.3718,704.9367,return,2.0343,,60.28645833,,,,,,FBP-RB-18.png,0.4,1.2,23,0.5,,,,,,,,,,,,,0,24,24,22,1,,,,,,,,,,,,,,,,,,,,,,,,,,,,
,,,,,WIN24_046,19,male,2024-02-09_11h36.27.320,jersey_experiment_5,2023.2.2,Win32,85.47008547,,,,,,,,,,,,,,,,704.9369,706.2309,706.2309,707.6661,return,0.535,,61.328125,,,,,,FBP-YG-81.png,0.4,1.2,38,0.5,,,,,,,,,,,,,0,25,25,37,1,,,,,,,,,,,,,,,,,,,,,,,,,,,,
,,,,,WIN24_046,19,male,2024-02-09_11h36.27.320,jersey_experiment_5,2023.2.2,Win32,85.47008547,,,,,,,,,,,,,,,,707.6664,708.9603,708.9603,710.3722,return,0.5566,,77.99479167,,,,,,FBP-YG-91.png,0.43,1.2,44,0.5,,,,,,,,,,,,,0,26,26,43,1,,,,,,,,,,,,,,,,,,,,,,,,,,,,
,,,,,WIN24_046,19,male,2024-02-09_11h36.27.320,jersey_experiment_5,2023.2.2,Win32,85.47008547,,,,,,,,,,,,,,,,710.3723,712.1723,712.1723,714.4077,return,0.5321,,54.6875,,,,,,FBP-OG-81.png,0.4,1.2,8,1,,,,,,,,,,,,,0,27,27,7,1,,,,,,,,,,,,,,,,,,,,,,,,,,,,
,,,,,WIN24_046,19,male,2024-02-09_11h36.27.320,jersey_experiment_5,2023.2.2,Win32,85.47008547,,,,,,,,,,,,,,,,714.4079,716.2078,716.2078,717.2548,return,0.5656,,44.53125,,,,,,FBP-OG-71.png,0.35,1.2,1,1,,,,,,,,,,,,,0,28,28,0,1,,,,,,,,,,,,,,,,,,,,,,,,,,,,
,,,,,WIN24_046,19,male,2024-02-09_11h36.27.320,jersey_experiment_5,2023.2.2,Win32,85.47008547,,,,,,,,,,,,,,,,717.2551,718.549,718.549,720.0902,return,0.5881,,50.65104167,,,,,,FBP-YG-91.png,0.4,1.2,43,0.5,,,,,,,,,,,,,0,29,29,42,1,,,,,,,,,,,,,,,,,,,,,,,,,,,,
,,,,,WIN24_046,19,male,2024-02-09_11h36.27.320,jersey_experiment_5,2023.2.2,Win32,85.47008547,,,,,,,,,,,,,,,,720.0903,721.8904,721.8904,722.9139,return,0.5728,,60.28645833,,,,,,FBP-OG-91.png,0.4,1.2,13,1,,,,,,,,,,,,,0,30,30,12,1,,,,,,,,,,,,,,,,,,,,,,,,,,,,
,,,,,WIN24_046,19,male,2024-02-09_11h36.27.320,jersey_experiment_5,2023.2.2,Win32,85.47008547,,,,,,,,,,,,,,,,722.9141,724.7141,724.7141,725.7845,return,0.5192,,69.53125,,,,,,FBP-OG-81.png,0.43,1.2,9,1,,,,,,,,,,,,,0,31,31,8,1,,,,,,,,,,,,,,,,,,,,,,,,,,,,
,,,,,WIN24_046,19,male,2024-02-09_11h36.27.320,jersey_experiment_5,2023.2.2,Win32,85.47008547,,,,,,,,,,,,,,,,725.7847,727.0786,727.0787,728.7376,return,0.5614,,82.03125,,,,,,FBP-YG-71.png,0.45,1.2,35,0.5,,,,,,,,,,,,,0,32,32,34,1,,,,,,,,,,,,,,,,,,,,,,,,,,,,
,,,,,WIN24_046,19,male,2024-02-09_11h36.27.320,jersey_experiment_5,2023.2.2,Win32,85.47008547,,,,,,,,,,,,,,,,728.7378,730.0317,730.0318,731.3141,return,0.5254,,79.296875,,,,,,FBP-RB-17.png,0.43,1.2,19,0.5,,,,,,,,,,,,,0,33,33,18,1,,,,,,,,,,,,,,,,,,,,,,,,,,,,
,,,,,WIN24_046,19,male,2024-02-09_11h36.27.320,jersey_experiment_5,2023.2.2,Win32,85.47008547,,,,,,,,,,,,,,,,731.3144,732.6083,732.6083,733.926,return,0.5314,,79.296875,,,,,,FBP-RB-19.png,0.4,1.2,28,0.5,,,,,,,,,,,,,0,34,34,27,1,,,,,,,,,,,,,,,,,,,,,,,,,,,,
,,,,,WIN24_046,19,male,2024-02-09_11h36.27.320,jersey_experiment_5,2023.2.2,Win32,85.47008547,,,,,,,,,,,,,,,,733.9262,735.7262,735.7262,737.3027,return,0.5419,,49.609375,,,,,,FBP-OG-91.png,0.37,1.2,12,1,,,,,,,,,,,,,0,35,35,11,1,,,,,,,,,,,,,,,,,,,,,,,,,,,,
,,,,,WIN24_046,19,male,2024-02-09_11h36.27.320,jersey_experiment_5,2023.2.2,Win32,85.47008547,,,,,,,,,,,,,,,,737.3029,738.5967,738.5967,740.1145,return,0.5111,,75.13020833,,,,,,FBP-YG-81.png,0.45,1.2,40,0.5,,,,,,,,,,,,,0,36,36,39,1,,,,,,,,,,,,,,,,,,,,,,,,,,,,
,,,,,WIN24_046,19,male,2024-02-09_11h36.27.320,jersey_experiment_5,2023.2.2,Win32,85.47008547,,,,,,,,,,,,,,,,740.1146,741.4086,741.4086,743.2205,return,0.5701,,49.609375,,,,,,FBP-RB-19.png,0.35,1.2,26,0.5,,,,,,,,,,,,,0,37,37,25,1,,,,,,,,,,,,,,,,,,,,,,,,,,,,
,,,,,WIN24_046,19,male,2024-02-09_11h36.27.320,jersey_experiment_5,2023.2.2,Win32,85.47008547,,,,,,,,,,,,,,,,743.2207,745.0205,745.0206,746.0676,return,0.557,,42.05729167,,,,,,FBP-PT-17.png,0.35,1.2,46,1,,,,,,,,,,,,,0,38,38,45,1,,,,,,,,,,,,,,,,,,,,,,,,,,,,
,,,,,WIN24_046,19,male,2024-02-09_11h36.27.320,jersey_experiment_5,2023.2.2,Win32,85.47008547,,,,,,,,,,,,,,,,746.0677,747.3618,747.3618,748.5501,return,0.5571,,42.05729167,,,,,,FBP-YG-91.png,0.37,1.2,42,0.5,,,,,,,,,,,,,0,39,39,41,1,,,,,,,,,,,,,,,,,,,,,,,,,,,,
,,,,,WIN24_046,19,male,2024-02-09_11h36.27.320,jersey_experiment_5,2023.2.2,Win32,85.47008547,,,,,,,,,,,,,,,,748.5502,750.35,750.35,752.5032,return,1.7088,,37.890625,,,,,,FBP-PT-18.png,0.35,1.2,51,1,,,,,,,,,,,,,0,40,40,50,1,,,,,,,,,,,,,,,,,,,,,,,,,,,,
,,,,,WIN24_046,19,male,2024-02-09_11h36.27.320,jersey_experiment_5,2023.2.2,Win32,85.47008547,,,,,,,,,,,,,,,,752.5035,753.7974,753.7974,755.3151,return,0.5338,,79.296875,,,,,,FBP-YG-81.png,0.43,1.2,39,0.5,,,,,,,,,,,,,0,41,41,38,1,,,,,,,,,,,,,,,,,,,,,,,,,,,,
,,,,,WIN24_046,19,male,2024-02-09_11h36.27.320,jersey_experiment_5,2023.2.2,Win32,85.47008547,,,,,,,,,,,,,,,,755.3153,757.1152,757.1152,758.2916,return,0.4886,,49.86979167,,,,,,FBP-PT-19.png,0.37,1.2,57,1,,,,,,,,,,,,,0,42,42,56,1,,,,,,,,,,,,,,,,,,,,,,,,,,,,
,,,,,WIN24_046,19,male,2024-02-09_11h36.27.320,jersey_experiment_5,2023.2.2,Win32,85.47008547,,,,,,,,,,,,,,,,758.2918,759.5858,759.5859,761.4917,return,0.7,,71.74479167,,,,,,FBP-YG-71.png,0.43,1.2,34,0.5,,,,,,,,,,,,,0,43,43,33,1,,,,,,,,,,,,,,,,,,,,,,,,,,,,
,,,,,WIN24_046,19,male,2024-02-09_11h36.27.320,jersey_experiment_5,2023.2.2,Win32,85.47008547,,,,,,,,,,,,,,,,761.492,762.7859,762.7859,765.633,return,1.5826,,38.80208333,,,,,,FBP-YG-91.png,0.35,1.2,41,0.5,,,,,,,,,,,,,0,44,44,40,1,,,,,,,,,,,,,,,,,,,,,,,,,,,,
,,,,,WIN24_046,19,male,2024-02-09_11h36.27.320,jersey_experiment_5,2023.2.2,Win32,85.47008547,,,,,,,,,,,,,,,,765.6332,767.4329,767.4329,769.786,return,0.574,,52.34375,,,,,,FBP-OG-81.png,0.37,1.2,7,1,,,,,,,,,,,,,0,45,45,6,1,,,,,,,,,,,,,,,,,,,,,,,,,,,,
,,,,,WIN24_046,19,male,2024-02-09_11h36.27.320,jersey_experiment_5,2023.2.2,Win32,85.47008547,,,,,,,,,,,,,,,,769.7863,771.0802,771.0803,772.2921,return,0.544,,50.26041667,,,,,,FBP-YG-71.png,0.37,1.2,32,0.5,,,,,,,,,,,,,0,46,46,31,1,,,,,,,,,,,,,,,,,,,,,,,,,,,,
,,,,,WIN24_046,19,male,2024-02-09_11h36.27.320,jersey_experiment_5,2023.2.2,Win32,85.47008547,,,,,,,,,,,,,,,,772.2924,773.5861,773.5862,775.2569,return,0.5085,,56.51041667,,,,,,FBP-RB-18.png,0.37,1.2,22,0.5,,,,,,,,,,,,,0,47,47,21,1,,,,,,,,,,,,,,,,,,,,,,,,,,,,
,,,,,WIN24_046,19,male,2024-02-09_11h36.27.320,jersey_experiment_5,2023.2.2,Win32,85.47008547,,,,,,,,,,,,,,,,775.2571,777.0569,777.0569,779.057,return,1.0204,,49.47916667,,,,,,FBP-OG-91.png,0.35,1.2,11,1,,,,,,,,,,,,,0,48,48,10,1,,,,,,,,,,,,,,,,,,,,,,,,,,,,
,,,,,WIN24_046,19,male,2024-02-09_11h36.27.320,jersey_experiment_5,2023.2.2,Win32,85.47008547,,,,,,,,,,,,,,,,779.0571,780.3512,780.3512,782.2571,return,0.5364,,76.43229167,,,,,,FBP-RB-17.png,0.45,1.2,20,0.5,,,,,,,,,,,,,0,49,49,19,1,,,,,,,,,,,,,,,,,,,,,,,,,,,,
,,,,,WIN24_046,19,male,2024-02-09_11h36.27.320,jersey_experiment_5,2023.2.2,Win32,85.47008547,,,,,,,,,,,,,,,,782.2573,783.5513,783.5513,784.6102,return,0.525,,76.43229167,,,,,,FBP-RB-18.png,0.43,1.2,24,0.5,,,,,,,,,,,,,0,50,50,23,1,,,,,,,,,,,,,,,,,,,,,,,,,,,,
,,,,,WIN24_046,19,male,2024-02-09_11h36.27.320,jersey_experiment_5,2023.2.2,Win32,85.47008547,,,,,,,,,,,,,,,,784.6103,786.4101,786.4102,787.4338,return,0.5882,,78.77604167,,,,,,FBP-OG-71.png,0.43,1.2,4,1,,,,,,,,,,,,,0,51,51,3,1,,,,,,,,,,,,,,,,,,,,,,,,,,,,
,,,,,WIN24_046,19,male,2024-02-09_11h36.27.320,jersey_experiment_5,2023.2.2,Win32,85.47008547,,,,,,,,,,,,,,,,787.4339,788.7279,788.7279,790.7399,return,0.8741,,50.91145833,,,,,,FBP-RB-19.png,0.37,1.2,27,0.5,,,,,,,,,,,,,0,52,52,26,1,,,,,,,,,,,,,,,,,,,,,,,,,,,,
,,,,,WIN24_046,19,male,2024-02-09_11h36.27.320,jersey_experiment_5,2023.2.2,Win32,85.47008547,,,,,,,,,,,,,,,,790.7401,792.5398,792.5398,794.4341,return,0.5605,,71.35416667,,,,,,FBP-PT-17.png,0.43,1.2,49,1,,,,,,,,,,,,,0,53,53,48,1,,,,,,,,,,,,,,,,,,,,,,,,,,,,
,,,,,WIN24_046,19,male,2024-02-09_11h36.27.320,jersey_experiment_5,2023.2.2,Win32,85.47008547,,,,,,,,,,,,,,,,794.4344,795.7283,795.7283,798.0107,return,0.5417,,52.734375,,,,,,FBP-YG-81.png,0.37,1.2,37,0.5,,,,,,,,,,,,,0,54,54,36,1,,,,,,,,,,,,,,,,,,,,,,,,,,,,
,,,,,WIN24_046,19,male,2024-02-09_11h36.27.320,jersey_experiment_5,2023.2.2,Win32,85.47008547,,,,,,,,,,,,,,,,798.0109,799.8108,799.8109,801.3049,return,0.5323,,33.85416667,,,,,,FBP-PT-19.png,0.35,1.2,56,1,,,,,,,,,,,,,0,55,55,55,1,,,,,,,,,,,,,,,,,,,,,,,,,,,,
,,,,,WIN24_046,19,male,2024-02-09_11h36.27.320,jersey_experiment_5,2023.2.2,Win32,85.47008547,,,,,,,,,,,,,,,,801.3051,803.1049,803.1049,804.7876,return,0.6769,,52.34375,,,,,,FBP-PT-18.png,0.4,1.2,53,1,,,,,,,,,,,,,0,56,56,52,1,,,,,,,,,,,,,,,,,,,,,,,,,,,,
,,,,,WIN24_046,19,male,2024-02-09_11h36.27.320,jersey_experiment_5,2023.2.2,Win32,85.47008547,,,,,,,,,,,,,,,,804.7877,806.0816,806.0816,807.6346,return,0.5228,,70.96354167,,,,,,FBP-RB-19.png,0.43,1.2,29,0.5,,,,,,,,,,,,,0,57,57,28,1,,,,,,,,,,,,,,,,,,,,,,,,,,,,
,,,,,WIN24_046,19,male,2024-02-09_11h36.27.320,jersey_experiment_5,2023.2.2,Win32,85.47008547,,,,,,,,,,,,,,,,807.6348,809.4347,809.4348,810.47,return,0.5306,,77.34375,,,,,,FBP-OG-91.png,0.43,1.2,14,1,,,,,,,,,,,,,0,58,58,13,1,,,,,,,,,,,,,,,,,,,,,,,,,,,,
,,,,,WIN24_046,19,male,2024-02-09_11h36.27.320,jersey_experiment_5,2023.2.2,Win32,85.47008547,,,,,,,,,,,,,,,,810.4702,812.2702,812.2702,813.6584,return,0.5172,,49.21875,,,,,,FBP-PT-17.png,0.37,1.2,47,1,,,,,,,,,,,,,0,59,59,46,1,,,,,,,,,,,,,,,,,,,,,,,,,,,,
,,,,,WIN24_046,19,male,2024-02-09_11h36.27.320,jersey_experiment_5,2023.2.2,Win32,85.47008547,,,,,,,,,,,,,,,,813.6604,814.9525,814.9525,816.8819,return,0.5937,,49.21875,,,,,,FBP-YG-17.png,0.37,1.2,32,0.5,,,,,,,,,,,,,,,,,,0,0,0,31,1,,,,,,,,,,,,,,,,,,,,,,,
,,,,,WIN24_046,19,male,2024-02-09_11h36.27.320,jersey_experiment_5,2023.2.2,Win32,85.47008547,,,,,,,,,,,,,,,,816.8823,818.6819,818.6819,820.4231,return,0.5533,,49.21875,,,,,,FBP-OG-18.png,0.4,1.2,8,1,,,,,,,,,,,,,,,,,,0,1,1,7,1,,,,,,,,,,,,,,,,,,,,,,,
,,,,,WIN24_046,19,male,2024-02-09_11h36.27.320,jersey_experiment_5,2023.2.2,Win32,85.47008547,,,,,,,,,,,,,,,,820.4234,822.2233,822.2234,823.5881,return,0.5442,,72.78645833,,,,,,FBP-PT-71.png,0.43,1.2,49,1,,,,,,,,,,,,,,,,,,0,2,2,48,1,,,,,,,,,,,,,,,,,,,,,,,
,,,,,WIN24_046,19,male,2024-02-09_11h36.27.320,jersey_experiment_5,2023.2.2,Win32,85.47008547,,,,,,,,,,,,,,,,823.5883,825.3881,825.3882,826.5294,return,0.5379,,73.95833333,,,,,,FBP-PT-81.png,0.45,1.2,55,1,,,,,,,,,,,,,,,,,,0,3,3,54,1,,,,,,,,,,,,,,,,,,,,,,,
,,,,,WIN24_046,19,male,2024-02-09_11h36.27.320,jersey_experiment_5,2023.2.2,Win32,85.47008547,,,,,,,,,,,,,,,,826.5296,827.8234,827.8235,829.5528,return,0.6067,,55.59895833,,,,,,FBP-RB-71.png,0.35,1.2,16,0.5,,,,,,,,,,,,,,,,,,0,4,4,15,1,,,,,,,,,,,,,,,,,,,,,,,
,,,,,WIN24_046,19,male,2024-02-09_11h36.27.320,jersey_experiment_5,2023.2.2,Win32,85.47008547,,,,,,,,,,,,,,,,829.553,830.847,830.847,832.9297,return,0.5475,,74.609375,,,,,,FBP-YG-17.png,0.45,1.2,35,0.5,,,,,,,,,,,,,,,,,,0,5,5,34,1,,,,,,,,,,,,,,,,,,,,,,,
,,,,,WIN24_046,19,male,2024-02-09_11h36.27.320,jersey_experiment_5,2023.2.2,Win32,85.47008547,,,,,,,,,,,,,,,,832.9299,834.2236,834.2236,835.5062,return,0.5815,,72.65625,,,,,,FBP-RB-71.png,0.4,1.2,18,0.5,,,,,,,,,,,,,,,,,,0,6,6,17,1,,,,,,,,,,,,,,,,,,,,,,,
,,,,,WIN24_046,19,male,2024-02-09_11h36.27.320,jersey_experiment_5,2023.2.2,Win32,85.47008547,,,,,,,,,,,,,,,,835.5064,837.3063,837.3063,838.7887,return,0.5348,,50.390625,,,,,,FBP-PT-71.png,0.37,1.2,47,1,,,,,,,,,,,,,,,,,,0,7,7,46,1,,,,,,,,,,,,,,,,,,,,,,,
,,,,,WIN24_046,19,male,2024-02-09_11h36.27.320,jersey_experiment_5,2023.2.2,Win32,85.47008547,,,,,,,,,,,,,,,,838.789,840.5887,840.5887,843.7652,return,2.0137,,47.91666667,,,,,,FBP-OG-17.png,0.37,1.2,2,1,,,,,,,,,,,,,,,,,,0,8,8,1,1,,,,,,,,,,,,,,,,,,,,,,,
,,,,,WIN24_046,19,male,2024-02-09_11h36.27.320,jersey_experiment_5,2023.2.2,Win32,85.47008547,,,,,,,,,,,,,,,,843.7655,845.0593,845.0594,846.6359,return,0.565,,59.765625,,,,,,FBP-YG-18.png,0.4,1.2,38,0.5,,,,,,,,,,,,,,,,,,0,9,9,37,1,,,,,,,,,,,,,,,,,,,,,,,
,,,,,WIN24_046,19,male,2024-02-09_11h36.27.320,jersey_experiment_5,2023.2.2,Win32,85.47008547,,,,,,,,,,,,,,,,846.6362,847.93,847.93,849.2597,return,0.5318,,68.75,,,,,,FBP-YG-19.png,0.4,1.2,43,0.5,,,,,,,,,,,,,,,,,,0,10,10,42,1,,,,,,,,,,,,,,,,,,,,,,,
,,,,,WIN24_046,19,male,2024-02-09_11h36.27.320,jersey_experiment_5,2023.2.2,Win32,85.47008547,,,,,,,,,,,,,,,,849.2599,850.5537,850.5537,851.8361,return,0.5275,,50.65104167,,,,,,FBP-RB-91.png,0.35,1.2,26,0.5,,,,,,,,,,,,,,,,,,0,11,11,25,1,,,,,,,,,,,,,,,,,,,,,,,
,,,,,WIN24_046,19,male,2024-02-09_11h36.27.320,jersey_experiment_5,2023.2.2,Win32,85.47008547,,,,,,,,,,,,,,,,851.8363,853.1301,853.1301,854.7422,return,0.5655,,73.95833333,,,,,,FBP-YG-18.png,0.45,1.2,40,0.5,,,,,,,,,,,,,,,,,,0,12,12,39,1,,,,,,,,,,,,,,,,,,,,,,,
,,,,,WIN24_046,19,male,2024-02-09_11h36.27.320,jersey_experiment_5,2023.2.2,Win32,85.47008547,,,,,,,,,,,,,,,,854.7424,856.5423,856.5423,857.8245,return,0.5623,,43.61979167,,,,,,FBP-OG-18.png,0.35,1.2,6,1,,,,,,,,,,,,,,,,,,0,13,13,5,1,,,,,,,,,,,,,,,,,,,,,,,
,,,,,WIN24_046,19,male,2024-02-09_11h36.27.320,jersey_experiment_5,2023.2.2,Win32,85.47008547,,,,,,,,,,,,,,,,857.8247,859.1188,859.1188,860.46,return,0.5646,,50.65104167,,,,,,FBP-YG-18.png,0.37,1.2,37,0.5,,,,,,,,,,,,,,,,,,0,14,14,36,1,,,,,,,,,,,,,,,,,,,,,,,
,,,,,WIN24_046,19,male,2024-02-09_11h36.27.320,jersey_experiment_5,2023.2.2,Win32,85.47008547,,,,,,,,,,,,,,,,860.4604,861.7542,861.7542,862.9659,return,0.5548,,57.29166667,,,,,,FBP-RB-81.png,0.4,1.2,23,0.5,,,,,,,,,,,,,,,,,,0,15,15,22,1,,,,,,,,,,,,,,,,,,,,,,,
,,,,,WIN24_046,19,male,2024-02-09_11h36.27.320,jersey_experiment_5,2023.2.2,Win32,85.47008547,,,,,,,,,,,,,,,,862.9662,864.7661,864.7661,867.2837,return,1.7687,,49.73958333,,,,,,FBP-PT-81.png,0.35,1.2,51,1,,,,,,,,,,,,,,,,,,0,16,16,50,1,,,,,,,,,,,,,,,,,,,,,,,
,,,,,WIN24_046,19,male,2024-02-09_11h36.27.320,jersey_experiment_5,2023.2.2,Win32,85.47008547,,,,,,,,,,,,,,,,867.2839,869.0837,869.0838,870.3075,return,0.5712,,65.625,,,,,,FBP-OG-18.png,0.43,1.2,9,1,,,,,,,,,,,,,,,,,,0,17,17,8,1,,,,,,,,,,,,,,,,,,,,,,,
,,,,,WIN24_046,19,male,2024-02-09_11h36.27.320,jersey_experiment_5,2023.2.2,Win32,85.47008547,,,,,,,,,,,,,,,,870.3076,872.1076,872.1076,873.284,return,0.5588,,49.86979167,,,,,,FBP-OG-19.png,0.35,1.2,11,1,,,,,,,,,,,,,,,,,,0,18,18,10,1,,,,,,,,,,,,,,,,,,,,,,,
,,,,,WIN24_046,19,male,2024-02-09_11h36.27.320,jersey_experiment_5,2023.2.2,Win32,85.47008547,,,,,,,,,,,,,,,,873.2842,875.0842,875.0842,876.1311,return,0.522,,56.51041667,,,,,,FBP-OG-18.png,0.37,1.2,7,1,,,,,,,,,,,,,,,,,,0,19,19,6,1,,,,,,,,,,,,,,,,,,,,,,,
,,,,,WIN24_046,19,male,2024-02-09_11h36.27.320,jersey_experiment_5,2023.2.2,Win32,85.47008547,,,,,,,,,,,,,,,,876.1313,877.4253,877.4254,878.7547,return,0.525,,74.34895833,,,,,,FBP-RB-91.png,0.45,1.2,30,0.5,,,,,,,,,,,,,,,,,,0,20,20,29,1,,,,,,,,,,,,,,,,,,,,,,,
,,,,,WIN24_046,19,male,2024-02-09_11h36.27.320,jersey_experiment_5,2023.2.2,Win32,85.47008547,,,,,,,,,,,,,,,,878.7549,880.0489,880.049,881.3314,return,0.6159,,70.3125,,,,,,FBP-RB-71.png,0.43,1.2,19,0.5,,,,,,,,,,,,,,,,,,0,21,21,18,1,,,,,,,,,,,,,,,,,,,,,,,
,,,,,WIN24_046,19,male,2024-02-09_11h36.27.320,jersey_experiment_5,2023.2.2,Win32,85.47008547,,,,,,,,,,,,,,,,881.3315,883.1315,883.1315,884.9667,return,1.2502,,49.34895833,,,,,,FBP-PT-71.png,0.35,1.2,46,1,,,,,,,,,,,,,,,,,,0,22,22,45,1,,,,,,,,,,,,,,,,,,,,,,,
,,,,,WIN24_046,19,male,2024-02-09_11h36.27.320,jersey_experiment_5,2023.2.2,Win32,85.47008547,,,,,,,,,,,,,,,,884.9669,886.7669,886.7669,888.6022,return,0.6123,,60.28645833,,,,,,FBP-OG-17.png,0.4,1.2,3,1,,,,,,,,,,,,,,,,,,0,23,23,2,1,,,,,,,,,,,,,,,,,,,,,,,
,,,,,WIN24_046,19,male,2024-02-09_11h36.27.320,jersey_experiment_5,2023.2.2,Win32,85.47008547,,,,,,,,,,,,,,,,888.6025,889.8964,889.8964,892.967,return,1.5791,,50,,,,,,FBP-RB-71.png,0.37,1.2,17,0.5,,,,,,,,,,,,,,,,,,0,24,24,16,1,,,,,,,,,,,,,,,,,,,,,,,
,,,,,WIN24_046,19,male,2024-02-09_11h36.27.320,jersey_experiment_5,2023.2.2,Win32,85.47008547,,,,,,,,,,,,,,,,892.9672,894.2611,894.2611,896.2142,return,0.6012,,70.3125,,,,,,FBP-RB-81.png,0.43,1.2,24,0.5,,,,,,,,,,,,,,,,,,0,25,25,23,1,,,,,,,,,,,,,,,,,,,,,,,
,,,,,WIN24_046,19,male,2024-02-09_11h36.27.320,jersey_experiment_5,2023.2.2,Win32,85.47008547,,,,,,,,,,,,,,,,896.2144,898.0143,898.0143,900.7085,return,0.556,,44.66145833,,,,,,FBP-PT-91.png,0.35,1.2,56,1,,,,,,,,,,,,,,,,,,0,26,26,55,1,,,,,,,,,,,,,,,,,,,,,,,
,,,,,WIN24_046,19,male,2024-02-09_11h36.27.320,jersey_experiment_5,2023.2.2,Win32,85.47008547,,,,,,,,,,,,,,,,900.7087,902.5086,902.5086,904.1321,return,0.5448,,75,,,,,,FBP-PT-81.png,0.4,1.2,53,1,,,,,,,,,,,,,,,,,,0,27,27,52,1,,,,,,,,,,,,,,,,,,,,,,,
,,,,,WIN24_046,19,male,2024-02-09_11h36.27.320,jersey_experiment_5,2023.2.2,Win32,85.47008547,,,,,,,,,,,,,,,,904.1323,905.9321,905.9321,908.7558,return,0.7919,,49.73958333,,,,,,FBP-PT-91.png,0.37,1.2,57,1,,,,,,,,,,,,,,,,,,0,28,28,56,1,,,,,,,,,,,,,,,,,,,,,,,
,,,,,WIN24_046,19,male,2024-02-09_11h36.27.320,jersey_experiment_5,2023.2.2,Win32,85.47008547,,,,,,,,,,,,,,,,908.756,910.556,910.556,911.9442,return,0.7906,,73.4375,,,,,,FBP-OG-19.png,0.45,1.2,15,1,,,,,,,,,,,,,,,,,,0,29,29,14,1,,,,,,,,,,,,,,,,,,,,,,,
,,,,,WIN24_046,19,male,2024-02-09_11h36.27.320,jersey_experiment_5,2023.2.2,Win32,85.47008547,,,,,,,,,,,,,,,,911.9444,913.7441,913.7442,914.6972,return,0.4709,,63.54166667,,,,,,FBP-PT-81.png,0.37,1.2,52,1,,,,,,,,,,,,,,,,,,0,30,30,51,1,,,,,,,,,,,,,,,,,,,,,,,
,,,,,WIN24_046,19,male,2024-02-09_11h36.27.320,jersey_experiment_5,2023.2.2,Win32,85.47008547,,,,,,,,,,,,,,,,914.6974,916.4972,916.4973,917.6973,return,0.5118,,78.25520833,,,,,,FBP-PT-91.png,0.43,1.2,59,1,,,,,,,,,,,,,,,,,,0,31,31,58,1,,,,,,,,,,,,,,,,,,,,,,,
,,,,,WIN24_046,19,male,2024-02-09_11h36.27.320,jersey_experiment_5,2023.2.2,Win32,85.47008547,,,,,,,,,,,,,,,,917.6975,919.4974,919.4974,922.3917,return,0.5422,,78.77604167,,,,,,FBP-OG-17.png,0.45,1.2,5,1,,,,,,,,,,,,,,,,,,0,32,32,4,1,,,,,,,,,,,,,,,,,,,,,,,
,,,,,WIN24_046,19,male,2024-02-09_11h36.27.320,jersey_experiment_5,2023.2.2,Win32,85.47008547,,,,,,,,,,,,,,,,922.3919,924.1917,924.1917,925.1447,return,0.5322,,76.953125,,,,,,FBP-PT-81.png,0.43,1.2,54,1,,,,,,,,,,,,,,,,,,0,33,33,53,1,,,,,,,,,,,,,,,,,,,,,,,
,,,,,WIN24_046,19,male,2024-02-09_11h36.27.320,jersey_experiment_5,2023.2.2,Win32,85.47008547,,,,,,,,,,,,,,,,925.1449,926.4389,926.4389,927.5447,return,0.4849,,76.953125,,,,,,FBP-RB-91.png,0.43,1.2,29,0.5,,,,,,,,,,,,,,,,,,0,34,34,28,1,,,,,,,,,,,,,,,,,,,,,,,
,,,,,WIN24_046,19,male,2024-02-09_11h36.27.320,jersey_experiment_5,2023.2.2,Win32,85.47008547,,,,,,,,,,,,,,,,927.545,928.839,928.839,930.0035,return,0.4857,,77.60416667,,,,,,FBP-YG-19.png,0.45,1.2,45,0.5,,,,,,,,,,,,,,,,,,0,35,35,44,1,,,,,,,,,,,,,,,,,,,,,,,
,,,,,WIN24_046,19,male,2024-02-09_11h36.27.320,jersey_experiment_5,2023.2.2,Win32,85.47008547,,,,,,,,,,,,,,,,930.0038,931.2978,931.2978,933.1215,return,0.4767,,67.44791667,,,,,,FBP-RB-81.png,0.37,1.2,22,0.5,,,,,,,,,,,,,,,,,,0,36,36,21,1,,,,,,,,,,,,,,,,,,,,,,,
,,,,,WIN24_046,19,male,2024-02-09_11h36.27.320,jersey_experiment_5,2023.2.2,Win32,85.47008547,,,,,,,,,,,,,,,,933.1216,934.4156,934.4157,935.698,return,0.5346,,65.10416667,,,,,,FBP-RB-91.png,0.37,1.2,27,0.5,,,,,,,,,,,,,,,,,,0,37,37,26,1,,,,,,,,,,,,,,,,,,,,,,,
,,,,,WIN24_046,19,male,2024-02-09_11h36.27.320,jersey_experiment_5,2023.2.2,Win32,85.47008547,,,,,,,,,,,,,,,,935.6983,936.9921,936.9921,938.1451,return,0.5357,,63.80208333,,,,,,FBP-RB-91.png,0.4,1.2,28,0.5,,,,,,,,,,,,,,,,,,0,38,38,27,1,,,,,,,,,,,,,,,,,,,,,,,
,,,,,WIN24_046,19,male,2024-02-09_11h36.27.320,jersey_experiment_5,2023.2.2,Win32,85.47008547,,,,,,,,,,,,,,,,938.1452,939.4392,939.4393,940.7452,return,0.5413,,77.21354167,,,,,,FBP-YG-18.png,0.43,1.2,39,0.5,,,,,,,,,,,,,,,,,,0,39,39,38,1,,,,,,,,,,,,,,,,,,,,,,,
,,,,,WIN24_046,19,male,2024-02-09_11h36.27.320,jersey_experiment_5,2023.2.2,Win32,85.47008547,,,,,,,,,,,,,,,,940.7454,942.5453,942.5453,943.9925,return,0.5087,,56.90104167,,,,,,FBP-PT-71.png,0.4,1.2,48,1,,,,,,,,,,,,,,,,,,0,40,40,47,1,,,,,,,,,,,,,,,,,,,,,,,
,,,,,WIN24_046,19,male,2024-02-09_11h36.27.320,jersey_experiment_5,2023.2.2,Win32,85.47008547,,,,,,,,,,,,,,,,943.9927,945.2866,945.2866,946.8396,return,0.532,,50.91145833,,,,,,FBP-YG-19.png,0.37,1.2,42,0.5,,,,,,,,,,,,,,,,,,0,41,41,41,1,,,,,,,,,,,,,,,,,,,,,,,
,,,,,WIN24_046,19,male,2024-02-09_11h36.27.320,jersey_experiment_5,2023.2.2,Win32,85.47008547,,,,,,,,,,,,,,,,946.8399,948.6396,948.6396,950.2162,return,0.5189,,78.125,,,,,,FBP-PT-91.png,0.45,1.2,60,1,,,,,,,,,,,,,,,,,,0,42,42,59,1,,,,,,,,,,,,,,,,,,,,,,,
,,,,,WIN24_046,19,male,2024-02-09_11h36.27.320,jersey_experiment_5,2023.2.2,Win32,85.47008547,,,,,,,,,,,,,,,,950.2164,952.0163,952.0163,953.1928,return,0.5318,,80.20833333,,,,,,FBP-PT-71.png,0.45,1.2,50,1,,,,,,,,,,,,,,,,,,0,43,43,49,1,,,,,,,,,,,,,,,,,,,,,,,
,,,,,WIN24_046,19,male,2024-02-09_11h36.27.320,jersey_experiment_5,2023.2.2,Win32,85.47008547,,,,,,,,,,,,,,,,953.1931,954.9931,954.9931,956.1341,return,0.4952,,65.75520833,,,,,,FBP-PT-91.png,0.4,1.2,58,1,,,,,,,,,,,,,,,,,,0,44,44,57,1,,,,,,,,,,,,,,,,,,,,,,,
,,,,,WIN24_046,19,male,2024-02-09_11h36.27.320,jersey_experiment_5,2023.2.2,Win32,85.47008547,,,,,,,,,,,,,,,,956.1343,957.4282,957.4283,959.5459,return,0.565,,48.69791667,,,,,,FBP-YG-17.png,0.35,1.2,31,0.5,,,,,,,,,,,,,,,,,,0,45,45,30,1,,,,,,,,,,,,,,,,,,,,,,,
,,,,,WIN24_046,19,male,2024-02-09_11h36.27.320,jersey_experiment_5,2023.2.2,Win32,85.47008547,,,,,,,,,,,,,,,,959.5461,960.8401,960.8401,962.5225,return,0.5279,,72.13541667,,,,,,FBP-YG-19.png,0.43,1.2,44,0.5,,,,,,,,,,,,,,,,,,0,46,46,43,1,,,,,,,,,,,,,,,,,,,,,,,
,,,,,WIN24_046,19,male,2024-02-09_11h36.27.320,jersey_experiment_5,2023.2.2,Win32,85.47008547,,,,,,,,,,,,,,,,962.5227,964.3226,964.3226,965.5226,return,0.5926,,72.13541667,,,,,,FBP-OG-17.png,0.43,1.2,4,1,,,,,,,,,,,,,,,,,,0,47,47,3,1,,,,,,,,,,,,,,,,,,,,,,,
,,,,,WIN24_046,19,male,2024-02-09_11h36.27.320,jersey_experiment_5,2023.2.2,Win32,85.47008547,,,,,,,,,,,,,,,,965.5229,967.3226,967.3226,968.5226,return,0.5179,,74.34895833,,,,,,FBP-OG-19.png,0.43,1.2,14,1,,,,,,,,,,,,,,,,,,0,48,48,13,1,,,,,,,,,,,,,,,,,,,,,,,
,,,,,WIN24_046,19,male,2024-02-09_11h36.27.320,jersey_experiment_5,2023.2.2,Win32,85.47008547,,,,,,,,,,,,,,,,968.5228,969.8168,969.8168,971.1464,return,0.5319,,79.55729167,,,,,,FBP-RB-81.png,0.45,1.2,25,0.5,,,,,,,,,,,,,,,,,,0,49,49,24,1,,,,,,,,,,,,,,,,,,,,,,,
,,,,,WIN24_046,19,male,2024-02-09_11h36.27.320,jersey_experiment_5,2023.2.2,Win32,85.47008547,,,,,,,,,,,,,,,,971.1466,972.4405,972.4405,974.0521,return,0.532,,49.08854167,,,,,,FBP-RB-81.png,0.35,1.2,21,0.5,,,,,,,,,,,,,,,,,,0,50,50,20,1,,,,,,,,,,,,,,,,,,,,,,,
,,,,,WIN24_046,19,male,2024-02-09_11h36.27.320,jersey_experiment_5,2023.2.2,Win32,85.47008547,,,,,,,,,,,,,,,,974.0523,975.3465,975.3465,976.7231,return,0.4985,,35.546875,,,,,,FBP-YG-18.png,0.35,1.2,36,0.5,,,,,,,,,,,,,,,,,,0,51,51,35,1,,,,,,,,,,,,,,,,,,,,,,,
,,,,,WIN24_046,19,male,2024-02-09_11h36.27.320,jersey_experiment_5,2023.2.2,Win32,85.47008547,,,,,,,,,,,,,,,,976.7233,978.523,978.523,979.382,return,0.6132,,35.546875,,,,,,FBP-OG-19.png,0.37,1.2,12,1,,,,,,,,,,,,,,,,,,0,52,52,11,1,,,,,,,,,,,,,,,,,,,,,,,
,,,,,WIN24_046,19,male,2024-02-09_11h36.27.320,jersey_experiment_5,2023.2.2,Win32,85.47008547,,,,,,,,,,,,,,,,979.3823,980.6761,980.6761,982.8409,return,0.5888,,72.78645833,,,,,,FBP-RB-71.png,0.45,1.2,20,0.5,,,,,,,,,,,,,,,,,,0,53,53,19,1,,,,,,,,,,,,,,,,,,,,,,,
,,,,,WIN24_046,19,male,2024-02-09_11h36.27.320,jersey_experiment_5,2023.2.2,Win32,85.47008547,,,,,,,,,,,,,,,,982.8411,984.1351,984.1351,985.7822,return,0.5423,,75.26041667,,,,,,FBP-YG-17.png,0.43,1.2,34,0.5,,,,,,,,,,,,,,,,,,0,54,54,33,1,,,,,,,,,,,,,,,,,,,,,,,
,,,,,WIN24_046,19,male,2024-02-09_11h36.27.320,jersey_experiment_5,2023.2.2,Win32,85.47008547,,,,,,,,,,,,,,,,985.7825,987.5823,987.5824,989.9001,return,1.143,,49.73958333,,,,,,FBP-OG-17.png,0.35,1.2,1,1,,,,,,,,,,,,,,,,,,0,55,55,0,1,,,,,,,,,,,,,,,,,,,,,,,
,,,,,WIN24_046,19,male,2024-02-09_11h36.27.320,jersey_experiment_5,2023.2.2,Win32,85.47008547,,,,,,,,,,,,,,,,989.9003,991.1942,991.1942,992.3588,return,0.4831,,41.796875,,,,,,FBP-YG-19.png,0.35,1.2,41,0.5,,,,,,,,,,,,,,,,,,0,56,56,40,1,,,,,,,,,,,,,,,,,,,,,,,
,,,,,WIN24_046,19,male,2024-02-09_11h36.27.320,jersey_experiment_5,2023.2.2,Win32,85.47008547,,,,,,,,,,,,,,,,992.359,994.1591,994.1591,995.3825,return,0.5658,,75.390625,,,,,,FBP-OG-18.png,0.45,1.2,10,1,,,,,,,,,,,,,,,,,,0,57,57,9,1,,,,,,,,,,,,,,,,,,,,,,,
,,,,,WIN24_046,19,male,2024-02-09_11h36.27.320,jersey_experiment_5,2023.2.2,Win32,85.47008547,,,,,,,,,,,,,,,,995.3827,996.6767,996.6768,1001.6063,return,1.5563,,54.296875,,,,,,FBP-YG-17.png,0.4,1.2,33,0.5,,,,,,,,,,,,,,,,,,0,58,58,32,1,,,,,,,,,,,,,,,,,,,,,,,
,,,,,WIN24_046,19,male,2024-02-09_11h36.27.320,jersey_experiment_5,2023.2.2,Win32,85.47008547,,,,,,,,,,,,,,,,1001.6064,1003.4063,1003.4064,1005.4652,return,0.5744,,69.921875,,,,,,FBP-OG-19.png,0.4,1.2,13,1,,,,,,,,,,,,,,,,,,0,59,59,12,1,,,,,,,,,,,,,,,,,,,,,,,
,,,,,WIN24_046,19,male,2024-02-09_11h36.27.320,jersey_experiment_5,2023.2.2,Win32,85.47008547,,,,,,,,,,,,,,,,,,,,,,,,,,,,,,,,,,,,,,,,,,,,,,,,,,,,,,,,1005.4655,1014.5836,return,9.1059,,,,,,,,,,,,,,,,,,,
,,,,,WIN24_046,19,male,2024-02-09_11h36.27.320,jersey_experiment_5,2023.2.2,Win32,85.47008547,,,,,,,,,,,,,,,,,,,,,,,,,,,,,,,,,,,,,,,,,,,,,,,,,,,,,,,,,,,,,1014.5836,1025.066,1,9.0122,return,1.444,,,,,,,,,,,,
,,,,,WIN24_046,19,male,2024-02-09_11h36.27.320,jersey_experiment_5,2023.2.2,Win32,85.47008547,,,,,,,,,,,,,,,,,,,,,,,,,,,,,,,,,,,,,,,,,,,,,,,,,,,,,,,,,,,,,,,,,,,,1025.0661,1181.9119,"During the study I had a few suspicions that it'd be about my perception of the sizes of football players due to race, and I also thought that I'd possible be getting tested on changing the real size of a player after showing me a few skinny players in a row, and then an average one, making me believe that the player is bigger than he actually is.",right,148.056,,,,,,
,,,,,WIN24_046,19,male,2024-02-09_11h36.27.320,jersey_experiment_5,2023.2.2,Win32,85.47008547,,,,,,,,,,,,,,,,,,,,,,,,,,,,,,,,,,,,,,,,,,,,,,,,,,,,,,,,,,,,,,,,,,,,,,,,,,1181.912,1187.6249,return,5.7018,