requirements.started,requirements.stopped,key_resp_3.keys,key_resp_3.rt,key_resp_3.duration,Subject ID,Age,Gender,date,expName,psychopyVersion,OS,frameRate,instructions1.started,instructions1.stopped,key_resp.keys,key_resp.rt,key_resp.duration,example.started,example.stopped,enter_2.keys,enter_2.rt,enter_2.duration,instructions2.started,instructions2.stopped,enter_3.keys,enter_3.rt,enter_3.duration,image.started,image.stopped,slider_2.started,slider_2.stopped,next.keys,next.rt,next.duration,slider.response,trial_block_1.thisRepN,trial_block_1.thisTrialN,trial_block_1.thisN,trial_block_1.thisIndex,trial_block_1.ran,Path,Width,Height,Index,Duration,trial_block_2.thisRepN,trial_block_2.thisTrialN,trial_block_2.thisN,trial_block_2.thisIndex,trial_block_2.ran,rest_break.started,rest_break.stopped,end_break.started,end_break.stopped,key_resp_5.keys,key_resp_5.rt,key_resp_5.duration,trial_block_3.thisRepN,trial_block_3.thisTrialN,trial_block_3.thisN,trial_block_3.thisIndex,trial_block_3.ran,trial_block_4.thisRepN,trial_block_4.thisTrialN,trial_block_4.thisN,trial_block_4.thisIndex,trial_block_4.ran,questions_intro.started,questions_intro.stopped,enter_12.keys,enter_12.rt,enter_12.duration,question2.started,question2.stopped,question_doingbest.response,question_doingbest.rt,enter_15.keys,enter_15.rt,enter_15.duration,pattern.started,pattern.stopped,pattern_2.text,enter_17.keys,enter_17.rt,enter_17.duration,thankyou.started,thankyou.stopped,enter_14.keys,enter_14.rt,enter_14.duration
0.0001,11.3093,return,11.3,,WIN24_001,19,Female,2024-01-23_16h02.24.362,jersey_experiment_5,2023.2.2,Win32,59.88023952,,,,,,,,,,,,,,,,,,,,,,,,,,,,,,,,,,,,,,,,,,,,,,,,,,,,,,,,,,,,,,,,,,,,,,,,,,,,,,
,,,,,WIN24_001,19,Female,2024-01-23_16h02.24.362,jersey_experiment_5,2023.2.2,Win32,59.88023952,11.3093,21.0392,return,9.6981,,,,,,,,,,,,,,,,,,,,,,,,,,,,,,,,,,,,,,,,,,,,,,,,,,,,,,,,,,,,,,,,,,,,,,,,,,
,,,,,WIN24_001,19,Female,2024-01-23_16h02.24.362,jersey_experiment_5,2023.2.2,Win32,59.88023952,,,,,,21.0392,27.487,return,6.3971,,,,,,,,,,,,,,,,,,,,,,,,,,,,,,,,,,,,,,,,,,,,,,,,,,,,,,,,,,,,,,,,,,,,,
,,,,,WIN24_001,19,Female,2024-01-23_16h02.24.362,jersey_experiment_5,2023.2.2,Win32,59.88023952,,,,,,,,,,,27.487,57.8602,return,30.3577,,,,,,,,,,,,,,,,,,,,,,,,,,,,,,,,,,,,,,,,,,,,,,,,,,,,,,,,,,,,,,,,
,,,,,WIN24_001,19,Female,2024-01-23_16h02.24.362,jersey_experiment_5,2023.2.2,Win32,59.88023952,,,,,,,,,,,,,,,,57.8675,59.1598,59.1599,63.575,return,1.7428,,74.609375,0,0,0,4,1,FBP-OG-71.png,0.45,1.2,5,0.5,,,,,,,,,,,,,,,,,,,,,,,,,,,,,,,,,,,,,,,,,,,,,
,,,,,WIN24_001,19,Female,2024-01-23_16h02.24.362,jersey_experiment_5,2023.2.2,Win32,59.88023952,,,,,,,,,,,,,,,,63.5753,65.3741,65.3741,67.6401,return,0.8254,,76.04166667,0,1,1,34,1,FBP-YG-71.png,0.45,1.2,35,1,,,,,,,,,,,,,,,,,,,,,,,,,,,,,,,,,,,,,,,,,,,,,
,,,,,WIN24_001,19,Female,2024-01-23_16h02.24.362,jersey_experiment_5,2023.2.2,Win32,59.88023952,,,,,,,,,,,,,,,,67.6404,68.9396,68.9396,71.8552,return,1.2342,,20.83333333,0,2,2,55,1,FBP-PT-19.png,0.35,1.2,56,0.5,,,,,,,,,,,,,,,,,,,,,,,,,,,,,,,,,,,,,,,,,,,,,
,,,,,WIN24_001,19,Female,2024-01-23_16h02.24.362,jersey_experiment_5,2023.2.2,Win32,59.88023952,,,,,,,,,,,,,,,,71.8554,73.1548,73.1548,74.8876,return,0.6754,,98.17708333,0,3,3,3,1,FBP-OG-71.png,0.43,1.2,4,0.5,,,,,,,,,,,,,,,,,,,,,,,,,,,,,,,,,,,,,,,,,,,,,
,,,,,WIN24_001,19,Female,2024-01-23_16h02.24.362,jersey_experiment_5,2023.2.2,Win32,59.88023952,,,,,,,,,,,,,,,,74.8878,76.6873,76.6873,78.4533,return,0.6,,83.203125,0,4,4,38,1,FBP-YG-81.png,0.43,1.2,39,1,,,,,,,,,,,,,,,,,,,,,,,,,,,,,,,,,,,,,,,,,,,,,
,,,,,WIN24_001,19,Female,2024-01-23_16h02.24.362,jersey_experiment_5,2023.2.2,Win32,59.88023952,,,,,,,,,,,,,,,,78.4535,80.2523,80.2524,81.8519,return,0.6213,,76.69270833,0,5,5,43,1,FBP-YG-91.png,0.43,1.2,44,1,,,,,,,,,,,,,,,,,,,,,,,,,,,,,,,,,,,,,,,,,,,,,
,,,,,WIN24_001,19,Female,2024-01-23_16h02.24.362,jersey_experiment_5,2023.2.2,Win32,59.88023952,,,,,,,,,,,,,,,,81.8522,83.6514,83.6514,85.2841,return,0.868,,89.32291667,0,6,6,39,1,FBP-YG-81.png,0.45,1.2,40,1,,,,,,,,,,,,,,,,,,,,,,,,,,,,,,,,,,,,,,,,,,,,,
,,,,,WIN24_001,19,Female,2024-01-23_16h02.24.362,jersey_experiment_5,2023.2.2,Win32,59.88023952,,,,,,,,,,,,,,,,85.2843,86.5838,86.5838,88.2164,return,0.5748,,13.02083333,0,7,7,5,1,FBP-OG-81.png,0.35,1.2,6,0.5,,,,,,,,,,,,,,,,,,,,,,,,,,,,,,,,,,,,,,,,,,,,,
,,,,,WIN24_001,19,Female,2024-01-23_16h02.24.362,jersey_experiment_5,2023.2.2,Win32,59.88023952,,,,,,,,,,,,,,,,88.2166,89.516,89.516,90.9822,return,0.6268,,11.71875,0,8,8,45,1,FBP-PT-17.png,0.35,1.2,46,0.5,,,,,,,,,,,,,,,,,,,,,,,,,,,,,,,,,,,,,,,,,,,,,
,,,,,WIN24_001,19,Female,2024-01-23_16h02.24.362,jersey_experiment_5,2023.2.2,Win32,59.88023952,,,,,,,,,,,,,,,,90.9823,92.7818,92.7819,94.181,return,0.5985,,76.43229167,0,9,9,19,1,FBP-RB-17.png,0.45,1.2,20,1,,,,,,,,,,,,,,,,,,,,,,,,,,,,,,,,,,,,,,,,,,,,,
,,,,,WIN24_001,19,Female,2024-01-23_16h02.24.362,jersey_experiment_5,2023.2.2,Win32,59.88023952,,,,,,,,,,,,,,,,94.1811,95.9805,95.9805,97.147,return,0.5557,,76.82291667,0,10,10,18,1,FBP-RB-17.png,0.43,1.2,19,1,,,,,,,,,,,,,,,,,,,,,,,,,,,,,,,,,,,,,,,,,,,,,
,,,,,WIN24_001,19,Female,2024-01-23_16h02.24.362,jersey_experiment_5,2023.2.2,Win32,59.88023952,,,,,,,,,,,,,,,,97.1473,98.4463,98.4463,99.8791,return,0.5926,,68.48958333,0,11,11,47,1,FBP-PT-17.png,0.4,1.2,48,0.5,,,,,,,,,,,,,,,,,,,,,,,,,,,,,,,,,,,,,,,,,,,,,
,,,,,WIN24_001,19,Female,2024-01-23_16h02.24.362,jersey_experiment_5,2023.2.2,Win32,59.88023952,,,,,,,,,,,,,,,,99.8793,101.6786,101.6788,102.9448,return,0.6501,,73.95833333,0,12,12,28,1,FBP-RB-19.png,0.43,1.2,29,1,,,,,,,,,,,,,,,,,,,,,,,,,,,,,,,,,,,,,,,,,,,,,
,,,,,WIN24_001,19,Female,2024-01-23_16h02.24.362,jersey_experiment_5,2023.2.2,Win32,59.88023952,,,,,,,,,,,,,,,,102.945,104.2445,104.2445,106.3104,return,1.1769,,31.90104167,0,13,13,56,1,FBP-PT-19.png,0.37,1.2,57,0.5,,,,,,,,,,,,,,,,,,,,,,,,,,,,,,,,,,,,,,,,,,,,,
,,,,,WIN24_001,19,Female,2024-01-23_16h02.24.362,jersey_experiment_5,2023.2.2,Win32,59.88023952,,,,,,,,,,,,,,,,106.3106,107.6098,107.6098,109.3261,return,0.9028,,21.35416667,0,14,14,50,1,FBP-PT-18.png,0.35,1.2,51,0.5,,,,,,,,,,,,,,,,,,,,,,,,,,,,,,,,,,,,,,,,,,,,,
,,,,,WIN24_001,19,Female,2024-01-23_16h02.24.362,jersey_experiment_5,2023.2.2,Win32,59.88023952,,,,,,,,,,,,,,,,109.3263,111.1255,111.1255,112.6083,return,0.6501,,20.44270833,0,15,15,16,1,FBP-RB-17.png,0.37,1.2,17,1,,,,,,,,,,,,,,,,,,,,,,,,,,,,,,,,,,,,,,,,,,,,,
,,,,,WIN24_001,19,Female,2024-01-23_16h02.24.362,jersey_experiment_5,2023.2.2,Win32,59.88023952,,,,,,,,,,,,,,,,112.6085,113.908,113.908,115.1407,return,0.6331,,19.53125,0,16,16,1,1,FBP-OG-71.png,0.37,1.2,2,0.5,,,,,,,,,,,,,,,,,,,,,,,,,,,,,,,,,,,,,,,,,,,,,
,,,,,WIN24_001,19,Female,2024-01-23_16h02.24.362,jersey_experiment_5,2023.2.2,Win32,59.88023952,,,,,,,,,,,,,,,,115.1408,116.4403,116.4403,117.8564,return,0.5334,,64.453125,0,17,17,14,1,FBP-OG-91.png,0.45,1.2,15,0.5,,,,,,,,,,,,,,,,,,,,,,,,,,,,,,,,,,,,,,,,,,,,,
,,,,,WIN24_001,19,Female,2024-01-23_16h02.24.362,jersey_experiment_5,2023.2.2,Win32,59.88023952,,,,,,,,,,,,,,,,117.8566,119.656,119.6561,120.8554,return,0.5588,,75.390625,0,18,18,29,1,FBP-RB-19.png,0.45,1.2,30,1,,,,,,,,,,,,,,,,,,,,,,,,,,,,,,,,,,,,,,,,,,,,,
,,,,,WIN24_001,19,Female,2024-01-23_16h02.24.362,jersey_experiment_5,2023.2.2,Win32,59.88023952,,,,,,,,,,,,,,,,120.8557,122.1552,122.1552,123.538,return,0.5833,,32.03125,0,19,19,10,1,FBP-OG-91.png,0.35,1.2,11,0.5,,,,,,,,,,,,,,,,,,,,,,,,,,,,,,,,,,,,,,,,,,,,,
,,,,,WIN24_001,19,Female,2024-01-23_16h02.24.362,jersey_experiment_5,2023.2.2,Win32,59.88023952,,,,,,,,,,,,,,,,123.5381,125.3377,125.3377,126.5203,return,0.625,,76.171875,0,20,20,44,1,FBP-YG-91.png,0.45,1.2,45,1,,,,,,,,,,,,,,,,,,,,,,,,,,,,,,,,,,,,,,,,,,,,,
,,,,,WIN24_001,19,Female,2024-01-23_16h02.24.362,jersey_experiment_5,2023.2.2,Win32,59.88023952,,,,,,,,,,,,,,,,126.5206,127.8199,127.8199,130.9521,return,1.6248,,62.63020833,0,21,21,7,1,FBP-OG-81.png,0.4,1.2,8,0.5,,,,,,,,,,,,,,,,,,,,,,,,,,,,,,,,,,,,,,,,,,,,,
,,,,,WIN24_001,19,Female,2024-01-23_16h02.24.362,jersey_experiment_5,2023.2.2,Win32,59.88023952,,,,,,,,,,,,,,,,130.9523,132.7517,132.7517,133.9344,return,0.6687,,18.09895833,0,22,22,30,1,FBP-YG-71.png,0.35,1.2,31,1,,,,,,,,,,,,,,,,,,,,,,,,,,,,,,,,,,,,,,,,,,,,,
,,,,,WIN24_001,19,Female,2024-01-23_16h02.24.362,jersey_experiment_5,2023.2.2,Win32,59.88023952,,,,,,,,,,,,,,,,133.9346,135.734,135.7341,136.8835,return,0.584,,23.046875,0,23,23,21,1,FBP-RB-18.png,0.37,1.2,22,1,,,,,,,,,,,,,,,,,,,,,,,,,,,,,,,,,,,,,,,,,,,,,
,,,,,WIN24_001,19,Female,2024-01-23_16h02.24.362,jersey_experiment_5,2023.2.2,Win32,59.88023952,,,,,,,,,,,,,,,,136.8837,138.6831,138.6831,140.1991,return,0.6093,,54.296875,0,24,24,37,1,FBP-YG-81.png,0.4,1.2,38,1,,,,,,,,,,,,,,,,,,,,,,,,,,,,,,,,,,,,,,,,,,,,,
,,,,,WIN24_001,19,Female,2024-01-23_16h02.24.362,jersey_experiment_5,2023.2.2,Win32,59.88023952,,,,,,,,,,,,,,,,140.1993,141.9986,141.9986,143.6645,return,0.6334,,36.45833333,0,25,25,15,1,FBP-RB-17.png,0.35,1.2,16,1,,,,,,,,,,,,,,,,,,,,,,,,,,,,,,,,,,,,,,,,,,,,,
,,,,,WIN24_001,19,Female,2024-01-23_16h02.24.362,jersey_experiment_5,2023.2.2,Win32,59.88023952,,,,,,,,,,,,,,,,143.6646,145.4639,145.4639,146.8635,return,0.701,,65.49479167,0,26,26,42,1,FBP-YG-91.png,0.4,1.2,43,1,,,,,,,,,,,,,,,,,,,,,,,,,,,,,,,,,,,,,,,,,,,,,
,,,,,WIN24_001,19,Female,2024-01-23_16h02.24.362,jersey_experiment_5,2023.2.2,Win32,59.88023952,,,,,,,,,,,,,,,,146.8637,148.663,148.663,149.8124,return,0.6783,,87.109375,0,27,27,24,1,FBP-RB-18.png,0.45,1.2,25,1,,,,,,,,,,,,,,,,,,,,,,,,,,,,,,,,,,,,,,,,,,,,,
,,,,,WIN24_001,19,Female,2024-01-23_16h02.24.362,jersey_experiment_5,2023.2.2,Win32,59.88023952,,,,,,,,,,,,,,,,149.8127,151.1122,151.1122,152.2782,return,0.5932,,87.109375,0,28,28,53,1,FBP-PT-18.png,0.43,1.2,54,0.5,,,,,,,,,,,,,,,,,,,,,,,,,,,,,,,,,,,,,,,,,,,,,
,,,,,WIN24_001,19,Female,2024-01-23_16h02.24.362,jersey_experiment_5,2023.2.2,Win32,59.88023952,,,,,,,,,,,,,,,,152.2785,153.5779,153.5779,154.8108,return,0.5722,,89.71354167,0,29,29,49,1,FBP-PT-17.png,0.45,1.2,50,0.5,,,,,,,,,,,,,,,,,,,,,,,,,,,,,,,,,,,,,,,,,,,,,
,,,,,WIN24_001,19,Female,2024-01-23_16h02.24.362,jersey_experiment_5,2023.2.2,Win32,59.88023952,,,,,,,,,,,,,,,,154.811,156.6103,156.6104,157.7432,return,0.5516,,77.734375,0,30,30,33,1,FBP-YG-71.png,0.43,1.2,34,1,,,,,,,,,,,,,,,,,,,,,,,,,,,,,,,,,,,,,,,,,,,,,
,,,,,WIN24_001,19,Female,2024-01-23_16h02.24.362,jersey_experiment_5,2023.2.2,Win32,59.88023952,,,,,,,,,,,,,,,,157.7434,159.0427,159.0427,161.8419,return,2.166,,76.04166667,0,31,31,48,1,FBP-PT-17.png,0.43,1.2,49,0.5,,,,,,,,,,,,,,,,,,,,,,,,,,,,,,,,,,,,,,,,,,,,,
,,,,,WIN24_001,19,Female,2024-01-23_16h02.24.362,jersey_experiment_5,2023.2.2,Win32,59.88023952,,,,,,,,,,,,,,,,161.8422,163.1414,163.1414,164.491,return,0.6388,,76.69270833,0,32,32,8,1,FBP-OG-81.png,0.43,1.2,9,0.5,,,,,,,,,,,,,,,,,,,,,,,,,,,,,,,,,,,,,,,,,,,,,
,,,,,WIN24_001,19,Female,2024-01-23_16h02.24.362,jersey_experiment_5,2023.2.2,Win32,59.88023952,,,,,,,,,,,,,,,,164.4911,165.7904,165.7904,168.023,return,1.2754,,31.90104167,0,33,33,51,1,FBP-PT-18.png,0.37,1.2,52,0.5,,,,,,,,,,,,,,,,,,,,,,,,,,,,,,,,,,,,,,,,,,,,,
,,,,,WIN24_001,19,Female,2024-01-23_16h02.24.362,jersey_experiment_5,2023.2.2,Win32,59.88023952,,,,,,,,,,,,,,,,168.0232,169.8227,169.8227,171.2387,return,0.5597,,33.59375,0,34,34,22,1,FBP-RB-18.png,0.4,1.2,23,1,,,,,,,,,,,,,,,,,,,,,,,,,,,,,,,,,,,,,,,,,,,,,
,,,,,WIN24_001,19,Female,2024-01-23_16h02.24.362,jersey_experiment_5,2023.2.2,Win32,59.88023952,,,,,,,,,,,,,,,,171.2389,173.0381,173.0381,175.2207,return,1.6668,,18.09895833,0,35,35,35,1,FBP-YG-81.png,0.35,1.2,36,1,,,,,,,,,,,,,,,,,,,,,,,,,,,,,,,,,,,,,,,,,,,,,
,,,,,WIN24_001,19,Female,2024-01-23_16h02.24.362,jersey_experiment_5,2023.2.2,Win32,59.88023952,,,,,,,,,,,,,,,,175.2209,177.0201,177.0201,178.3363,return,0.5671,,21.22395833,0,36,36,26,1,FBP-RB-19.png,0.37,1.2,27,1,,,,,,,,,,,,,,,,,,,,,,,,,,,,,,,,,,,,,,,,,,,,,
,,,,,WIN24_001,19,Female,2024-01-23_16h02.24.362,jersey_experiment_5,2023.2.2,Win32,59.88023952,,,,,,,,,,,,,,,,178.3364,180.1357,180.1358,181.3353,return,0.5592,,69.27083333,0,37,37,32,1,FBP-YG-71.png,0.4,1.2,33,1,,,,,,,,,,,,,,,,,,,,,,,,,,,,,,,,,,,,,,,,,,,,,
,,,,,WIN24_001,19,Female,2024-01-23_16h02.24.362,jersey_experiment_5,2023.2.2,Win32,59.88023952,,,,,,,,,,,,,,,,181.3354,182.6351,182.6351,184.3342,return,0.8865,,74.08854167,0,38,38,57,1,FBP-PT-19.png,0.4,1.2,58,0.5,,,,,,,,,,,,,,,,,,,,,,,,,,,,,,,,,,,,,,,,,,,,,
,,,,,WIN24_001,19,Female,2024-01-23_16h02.24.362,jersey_experiment_5,2023.2.2,Win32,59.88023952,,,,,,,,,,,,,,,,184.3344,185.6337,185.6339,188.4162,return,0.5167,,58.07291667,0,39,39,6,1,FBP-OG-81.png,0.37,1.2,7,0.5,,,,,,,,,,,,,,,,,,,,,,,,,,,,,,,,,,,,,,,,,,,,,
,,,,,WIN24_001,19,Female,2024-01-23_16h02.24.362,jersey_experiment_5,2023.2.2,Win32,59.88023952,,,,,,,,,,,,,,,,188.4165,190.2156,190.2156,191.4986,return,0.573,,56.51041667,0,40,40,41,1,FBP-YG-91.png,0.37,1.2,42,1,,,,,,,,,,,,,,,,,,,,,,,,,,,,,,,,,,,,,,,,,,,,,
,,,,,WIN24_001,19,Female,2024-01-23_16h02.24.362,jersey_experiment_5,2023.2.2,Win32,59.88023952,,,,,,,,,,,,,,,,191.4987,192.7982,192.7982,194.1143,return,0.5665,,70.96354167,0,41,41,52,1,FBP-PT-18.png,0.4,1.2,53,0.5,,,,,,,,,,,,,,,,,,,,,,,,,,,,,,,,,,,,,,,,,,,,,
,,,,,WIN24_001,19,Female,2024-01-23_16h02.24.362,jersey_experiment_5,2023.2.2,Win32,59.88023952,,,,,,,,,,,,,,,,194.1144,195.4139,195.4139,196.8134,return,0.4864,,90.234375,0,42,42,9,1,FBP-OG-81.png,0.45,1.2,10,0.5,,,,,,,,,,,,,,,,,,,,,,,,,,,,,,,,,,,,,,,,,,,,,
,,,,,WIN24_001,19,Female,2024-01-23_16h02.24.362,jersey_experiment_5,2023.2.2,Win32,59.88023952,,,,,,,,,,,,,,,,196.8136,198.113,198.113,199.0292,return,0.5614,,90.234375,0,43,43,58,1,FBP-PT-19.png,0.43,1.2,59,0.5,,,,,,,,,,,,,,,,,,,,,,,,,,,,,,,,,,,,,,,,,,,,,
,,,,,WIN24_001,19,Female,2024-01-23_16h02.24.362,jersey_experiment_5,2023.2.2,Win32,59.88023952,,,,,,,,,,,,,,,,199.0294,200.329,200.329,201.5119,return,0.5752,,75.26041667,0,44,44,12,1,FBP-OG-91.png,0.4,1.2,13,0.5,,,,,,,,,,,,,,,,,,,,,,,,,,,,,,,,,,,,,,,,,,,,,
,,,,,WIN24_001,19,Female,2024-01-23_16h02.24.362,jersey_experiment_5,2023.2.2,Win32,59.88023952,,,,,,,,,,,,,,,,201.512,203.3112,203.3112,206.6602,return,2.3516,,41.015625,0,45,45,40,1,FBP-YG-91.png,0.35,1.2,41,1,,,,,,,,,,,,,,,,,,,,,,,,,,,,,,,,,,,,,,,,,,,,,
,,,,,WIN24_001,19,Female,2024-01-23_16h02.24.362,jersey_experiment_5,2023.2.2,Win32,59.88023952,,,,,,,,,,,,,,,,206.6604,208.4598,208.4598,209.6924,return,0.5875,,61.84895833,0,46,46,31,1,FBP-YG-71.png,0.37,1.2,32,1,,,,,,,,,,,,,,,,,,,,,,,,,,,,,,,,,,,,,,,,,,,,,
,,,,,WIN24_001,19,Female,2024-01-23_16h02.24.362,jersey_experiment_5,2023.2.2,Win32,59.88023952,,,,,,,,,,,,,,,,209.6926,210.992,210.992,212.9414,return,1.3692,,70.703125,0,47,47,2,1,FBP-OG-71.png,0.4,1.2,3,0.5,,,,,,,,,,,,,,,,,,,,,,,,,,,,,,,,,,,,,,,,,,,,,
,,,,,WIN24_001,19,Female,2024-01-23_16h02.24.362,jersey_experiment_5,2023.2.2,Win32,59.88023952,,,,,,,,,,,,,,,,212.9416,214.7408,214.7408,215.8905,return,0.7005,,79.296875,0,48,48,27,1,FBP-RB-19.png,0.4,1.2,28,1,,,,,,,,,,,,,,,,,,,,,,,,,,,,,,,,,,,,,,,,,,,,,
,,,,,WIN24_001,19,Female,2024-01-23_16h02.24.362,jersey_experiment_5,2023.2.2,Win32,59.88023952,,,,,,,,,,,,,,,,215.8907,217.6897,217.6897,219.1726,return,0.5618,,57.8125,0,49,49,25,1,FBP-RB-19.png,0.35,1.2,26,1,,,,,,,,,,,,,,,,,,,,,,,,,,,,,,,,,,,,,,,,,,,,,
,,,,,WIN24_001,19,Female,2024-01-23_16h02.24.362,jersey_experiment_5,2023.2.2,Win32,59.88023952,,,,,,,,,,,,,,,,219.1727,220.9722,220.9722,221.9718,return,0.5836,,55.46875,0,50,50,20,1,FBP-RB-18.png,0.35,1.2,21,1,,,,,,,,,,,,,,,,,,,,,,,,,,,,,,,,,,,,,,,,,,,,,
,,,,,WIN24_001,19,Female,2024-01-23_16h02.24.362,jersey_experiment_5,2023.2.2,Win32,59.88023952,,,,,,,,,,,,,,,,221.972,223.2712,223.2712,225.0706,return,0.985,,65.10416667,0,51,51,46,1,FBP-PT-17.png,0.37,1.2,47,0.5,,,,,,,,,,,,,,,,,,,,,,,,,,,,,,,,,,,,,,,,,,,,,
,,,,,WIN24_001,19,Female,2024-01-23_16h02.24.362,jersey_experiment_5,2023.2.2,Win32,59.88023952,,,,,,,,,,,,,,,,225.0708,226.8702,226.8703,228.5196,return,1.2253,,88.41145833,0,52,52,23,1,FBP-RB-18.png,0.43,1.2,24,1,,,,,,,,,,,,,,,,,,,,,,,,,,,,,,,,,,,,,,,,,,,,,
,,,,,WIN24_001,19,Female,2024-01-23_16h02.24.362,jersey_experiment_5,2023.2.2,Win32,59.88023952,,,,,,,,,,,,,,,,228.5198,229.819,229.819,230.8188,return,0.6167,,88.41145833,0,53,53,13,1,FBP-OG-91.png,0.43,1.2,14,0.5,,,,,,,,,,,,,,,,,,,,,,,,,,,,,,,,,,,,,,,,,,,,,
,,,,,WIN24_001,19,Female,2024-01-23_16h02.24.362,jersey_experiment_5,2023.2.2,Win32,59.88023952,,,,,,,,,,,,,,,,230.8189,232.1182,232.1182,233.4178,return,0.6398,,95.83333333,0,54,54,54,1,FBP-PT-18.png,0.45,1.2,55,0.5,,,,,,,,,,,,,,,,,,,,,,,,,,,,,,,,,,,,,,,,,,,,,
,,,,,WIN24_001,19,Female,2024-01-23_16h02.24.362,jersey_experiment_5,2023.2.2,Win32,59.88023952,,,,,,,,,,,,,,,,233.4179,234.7174,234.7174,236.1504,return,0.5764,,16.14583333,0,55,55,0,1,FBP-OG-71.png,0.35,1.2,1,0.5,,,,,,,,,,,,,,,,,,,,,,,,,,,,,,,,,,,,,,,,,,,,,
,,,,,WIN24_001,19,Female,2024-01-23_16h02.24.362,jersey_experiment_5,2023.2.2,Win32,59.88023952,,,,,,,,,,,,,,,,236.1506,237.4497,237.4497,238.6828,return,0.7549,,16.14583333,0,56,56,11,1,FBP-OG-91.png,0.37,1.2,12,0.5,,,,,,,,,,,,,,,,,,,,,,,,,,,,,,,,,,,,,,,,,,,,,
,,,,,WIN24_001,19,Female,2024-01-23_16h02.24.362,jersey_experiment_5,2023.2.2,Win32,59.88023952,,,,,,,,,,,,,,,,238.6829,240.4822,240.4823,242.1483,return,1.0667,,34.765625,0,57,57,17,1,FBP-RB-17.png,0.4,1.2,18,1,,,,,,,,,,,,,,,,,,,,,,,,,,,,,,,,,,,,,,,,,,,,,
,,,,,WIN24_001,19,Female,2024-01-23_16h02.24.362,jersey_experiment_5,2023.2.2,Win32,59.88023952,,,,,,,,,,,,,,,,242.1484,243.4481,243.4481,245.0473,return,0.5757,,91.40625,0,58,58,59,1,FBP-PT-19.png,0.45,1.2,60,0.5,,,,,,,,,,,,,,,,,,,,,,,,,,,,,,,,,,,,,,,,,,,,,
,,,,,WIN24_001,19,Female,2024-01-23_16h02.24.362,jersey_experiment_5,2023.2.2,Win32,59.88023952,,,,,,,,,,,,,,,,245.0476,246.847,246.8471,247.9964,return,0.5544,,58.85416667,0,59,59,36,1,FBP-YG-81.png,0.37,1.2,37,1,,,,,,,,,,,,,,,,,,,,,,,,,,,,,,,,,,,,,,,,,,,,,
,,,,,WIN24_001,19,Female,2024-01-23_16h02.24.362,jersey_experiment_5,2023.2.2,Win32,59.88023952,,,,,,,,,,,,,,,,247.9981,249.296,249.2961,250.6287,return,0.5952,,75.13020833,,,,,,FBP-PT-81.png,0.43,1.2,54,0.5,0,0,0,53,1,,,,,,,,,,,,,,,,,,,,,,,,,,,,,,,,,,,,,,,,
,,,,,WIN24_001,19,Female,2024-01-23_16h02.24.362,jersey_experiment_5,2023.2.2,Win32,59.88023952,,,,,,,,,,,,,,,,250.6289,252.4281,252.4282,253.7279,return,0.5676,,55.33854167,,,,,,FBP-YG-17.png,0.37,1.2,32,1,0,1,1,31,1,,,,,,,,,,,,,,,,,,,,,,,,,,,,,,,,,,,,,,,,
,,,,,WIN24_001,19,Female,2024-01-23_16h02.24.362,jersey_experiment_5,2023.2.2,Win32,59.88023952,,,,,,,,,,,,,,,,253.7281,255.0272,255.0272,256.2601,return,0.6,,54.296875,,,,,,FBP-PT-81.png,0.4,1.2,53,0.5,0,2,2,52,1,,,,,,,,,,,,,,,,,,,,,,,,,,,,,,,,,,,,,,,,
,,,,,WIN24_001,19,Female,2024-01-23_16h02.24.362,jersey_experiment_5,2023.2.2,Win32,59.88023952,,,,,,,,,,,,,,,,256.2603,257.5598,257.5599,258.676,return,0.5336,,70.18229167,,,,,,FBP-OG-19.png,0.4,1.2,13,0.5,0,3,3,12,1,,,,,,,,,,,,,,,,,,,,,,,,,,,,,,,,,,,,,,,,
,,,,,WIN24_001,19,Female,2024-01-23_16h02.24.362,jersey_experiment_5,2023.2.2,Win32,59.88023952,,,,,,,,,,,,,,,,258.6763,259.9755,259.9756,261.092,return,0.5666,,69.921875,,,,,,FBP-PT-71.png,0.4,1.2,48,0.5,0,4,4,47,1,,,,,,,,,,,,,,,,,,,,,,,,,,,,,,,,,,,,,,,,
,,,,,WIN24_001,19,Female,2024-01-23_16h02.24.362,jersey_experiment_5,2023.2.2,Win32,59.88023952,,,,,,,,,,,,,,,,261.0921,262.3915,262.3915,263.6577,return,0.6081,,64.19270833,,,,,,FBP-OG-18.png,0.35,1.2,6,0.5,0,5,5,5,1,,,,,,,,,,,,,,,,,,,,,,,,,,,,,,,,,,,,,,,,
,,,,,WIN24_001,19,Female,2024-01-23_16h02.24.362,jersey_experiment_5,2023.2.2,Win32,59.88023952,,,,,,,,,,,,,,,,263.6577,265.4574,265.4574,266.5734,return,0.5359,,88.671875,,,,,,FBP-RB-81.png,0.45,1.2,25,1,0,6,6,24,1,,,,,,,,,,,,,,,,,,,,,,,,,,,,,,,,,,,,,,,,
,,,,,WIN24_001,19,Female,2024-01-23_16h02.24.362,jersey_experiment_5,2023.2.2,Win32,59.88023952,,,,,,,,,,,,,,,,266.5736,267.873,267.873,268.856,return,0.6412,,86.328125,,,,,,FBP-PT-91.png,0.43,1.2,59,0.5,0,7,7,58,1,,,,,,,,,,,,,,,,,,,,,,,,,,,,,,,,,,,,,,,,
,,,,,WIN24_001,19,Female,2024-01-23_16h02.24.362,jersey_experiment_5,2023.2.2,Win32,59.88023952,,,,,,,,,,,,,,,,268.8561,270.1556,270.1556,271.8383,return,0.5184,,38.671875,,,,,,FBP-PT-81.png,0.37,1.2,52,0.5,0,8,8,51,1,,,,,,,,,,,,,,,,,,,,,,,,,,,,,,,,,,,,,,,,
,,,,,WIN24_001,19,Female,2024-01-23_16h02.24.362,jersey_experiment_5,2023.2.2,Win32,59.88023952,,,,,,,,,,,,,,,,271.8386,273.6381,273.6381,274.7873,return,0.5676,,73.828125,,,,,,FBP-YG-18.png,0.43,1.2,39,1,0,9,9,38,1,,,,,,,,,,,,,,,,,,,,,,,,,,,,,,,,,,,,,,,,
,,,,,WIN24_001,19,Female,2024-01-23_16h02.24.362,jersey_experiment_5,2023.2.2,Win32,59.88023952,,,,,,,,,,,,,,,,274.7874,276.5868,276.5868,277.9363,return,0.9167,,75.91145833,,,,,,FBP-YG-17.png,0.4,1.2,33,1,0,10,10,32,1,,,,,,,,,,,,,,,,,,,,,,,,,,,,,,,,,,,,,,,,
,,,,,WIN24_001,19,Female,2024-01-23_16h02.24.362,jersey_experiment_5,2023.2.2,Win32,59.88023952,,,,,,,,,,,,,,,,277.9364,279.2359,279.2359,280.7187,return,0.9015,,85.80729167,,,,,,FBP-OG-19.png,0.45,1.2,15,0.5,0,11,11,14,1,,,,,,,,,,,,,,,,,,,,,,,,,,,,,,,,,,,,,,,,
,,,,,WIN24_001,19,Female,2024-01-23_16h02.24.362,jersey_experiment_5,2023.2.2,Win32,59.88023952,,,,,,,,,,,,,,,,280.719,282.0183,282.0183,282.8845,return,0.6003,,85.80729167,,,,,,FBP-OG-17.png,0.45,1.2,5,0.5,0,12,12,4,1,,,,,,,,,,,,,,,,,,,,,,,,,,,,,,,,,,,,,,,,
,,,,,WIN24_001,19,Female,2024-01-23_16h02.24.362,jersey_experiment_5,2023.2.2,Win32,59.88023952,,,,,,,,,,,,,,,,282.8848,284.684,284.6841,285.7004,return,0.5952,,84.50520833,,,,,,FBP-YG-19.png,0.43,1.2,44,1,0,13,13,43,1,,,,,,,,,,,,,,,,,,,,,,,,,,,,,,,,,,,,,,,,
,,,,,WIN24_001,19,Female,2024-01-23_16h02.24.362,jersey_experiment_5,2023.2.2,Win32,59.88023952,,,,,,,,,,,,,,,,285.7005,287.4998,287.4999,288.3328,return,0.636,,83.984375,,,,,,FBP-YG-17.png,0.45,1.2,35,1,0,14,14,34,1,,,,,,,,,,,,,,,,,,,,,,,,,,,,,,,,,,,,,,,,
,,,,,WIN24_001,19,Female,2024-01-23_16h02.24.362,jersey_experiment_5,2023.2.2,Win32,59.88023952,,,,,,,,,,,,,,,,288.3331,290.132,290.132,291.7317,return,1.1657,,76.82291667,,,,,,FBP-YG-18.png,0.4,1.2,38,1,0,15,15,37,1,,,,,,,,,,,,,,,,,,,,,,,,,,,,,,,,,,,,,,,,
,,,,,WIN24_001,19,Female,2024-01-23_16h02.24.362,jersey_experiment_5,2023.2.2,Win32,59.88023952,,,,,,,,,,,,,,,,291.7318,293.5312,293.5313,295.1307,return,1.0888,,47.39583333,,,,,,FBP-YG-19.png,0.4,1.2,43,1,0,16,16,42,1,,,,,,,,,,,,,,,,,,,,,,,,,,,,,,,,,,,,,,,,
,,,,,WIN24_001,19,Female,2024-01-23_16h02.24.362,jersey_experiment_5,2023.2.2,Win32,59.88023952,,,,,,,,,,,,,,,,295.1307,296.4302,296.4303,298.0629,return,0.9675,,40.10416667,,,,,,FBP-OG-19.png,0.37,1.2,12,0.5,0,17,17,11,1,,,,,,,,,,,,,,,,,,,,,,,,,,,,,,,,,,,,,,,,
,,,,,WIN24_001,19,Female,2024-01-23_16h02.24.362,jersey_experiment_5,2023.2.2,Win32,59.88023952,,,,,,,,,,,,,,,,298.0631,299.3626,299.3626,300.6286,return,0.5948,,26.04166667,,,,,,FBP-PT-71.png,0.35,1.2,46,0.5,0,18,18,45,1,,,,,,,,,,,,,,,,,,,,,,,,,,,,,,,,,,,,,,,,
,,,,,WIN24_001,19,Female,2024-01-23_16h02.24.362,jersey_experiment_5,2023.2.2,Win32,59.88023952,,,,,,,,,,,,,,,,300.6288,301.9283,301.9283,302.9279,return,0.6003,,26.04166667,,,,,,FBP-PT-81.png,0.35,1.2,51,0.5,0,19,19,50,1,,,,,,,,,,,,,,,,,,,,,,,,,,,,,,,,,,,,,,,,
,,,,,WIN24_001,19,Female,2024-01-23_16h02.24.362,jersey_experiment_5,2023.2.2,Win32,59.88023952,,,,,,,,,,,,,,,,302.9281,304.7277,304.7277,305.9103,return,0.5766,,75.13020833,,,,,,FBP-RB-71.png,0.45,1.2,20,1,0,20,20,19,1,,,,,,,,,,,,,,,,,,,,,,,,,,,,,,,,,,,,,,,,
,,,,,WIN24_001,19,Female,2024-01-23_16h02.24.362,jersey_experiment_5,2023.2.2,Win32,59.88023952,,,,,,,,,,,,,,,,305.9104,307.2099,307.2099,308.5594,return,0.5839,,28.77604167,,,,,,FBP-PT-91.png,0.35,1.2,56,0.5,0,21,21,55,1,,,,,,,,,,,,,,,,,,,,,,,,,,,,,,,,,,,,,,,,
,,,,,WIN24_001,19,Female,2024-01-23_16h02.24.362,jersey_experiment_5,2023.2.2,Win32,59.88023952,,,,,,,,,,,,,,,,308.5597,309.8589,309.8589,311.5084,return,0.8663,,76.69270833,,,,,,FBP-OG-18.png,0.45,1.2,10,0.5,0,22,22,9,1,,,,,,,,,,,,,,,,,,,,,,,,,,,,,,,,,,,,,,,,
,,,,,WIN24_001,19,Female,2024-01-23_16h02.24.362,jersey_experiment_5,2023.2.2,Win32,59.88023952,,,,,,,,,,,,,,,,311.5085,312.808,312.808,314.7907,return,0.6092,,60.15625,,,,,,FBP-PT-91.png,0.37,1.2,57,0.5,0,23,23,56,1,,,,,,,,,,,,,,,,,,,,,,,,,,,,,,,,,,,,,,,,
,,,,,WIN24_001,19,Female,2024-01-23_16h02.24.362,jersey_experiment_5,2023.2.2,Win32,59.88023952,,,,,,,,,,,,,,,,314.791,316.0903,316.0903,317.4563,return,0.5834,,53.25520833,,,,,,FBP-PT-71.png,0.37,1.2,47,0.5,0,24,24,46,1,,,,,,,,,,,,,,,,,,,,,,,,,,,,,,,,,,,,,,,,
,,,,,WIN24_001,19,Female,2024-01-23_16h02.24.362,jersey_experiment_5,2023.2.2,Win32,59.88023952,,,,,,,,,,,,,,,,317.4566,319.2559,319.256,320.4555,return,0.5087,,76.953125,,,,,,FBP-RB-81.png,0.4,1.2,23,1,0,25,25,22,1,,,,,,,,,,,,,,,,,,,,,,,,,,,,,,,,,,,,,,,,
,,,,,WIN24_001,19,Female,2024-01-23_16h02.24.362,jersey_experiment_5,2023.2.2,Win32,59.88023952,,,,,,,,,,,,,,,,320.4556,321.7549,321.755,322.9047,return,0.5241,,66.796875,,,,,,FBP-PT-91.png,0.4,1.2,58,0.5,0,26,26,57,1,,,,,,,,,,,,,,,,,,,,,,,,,,,,,,,,,,,,,,,,
,,,,,WIN24_001,19,Female,2024-01-23_16h02.24.362,jersey_experiment_5,2023.2.2,Win32,59.88023952,,,,,,,,,,,,,,,,322.9049,324.2044,324.2044,325.3038,return,0.5917,,77.21354167,,,,,,FBP-PT-71.png,0.43,1.2,49,0.5,0,27,27,48,1,,,,,,,,,,,,,,,,,,,,,,,,,,,,,,,,,,,,,,,,
,,,,,WIN24_001,19,Female,2024-01-23_16h02.24.362,jersey_experiment_5,2023.2.2,Win32,59.88023952,,,,,,,,,,,,,,,,325.304,326.6033,326.6034,327.7531,return,0.5071,,28.90625,,,,,,FBP-OG-17.png,0.37,1.2,2,0.5,0,28,28,1,1,,,,,,,,,,,,,,,,,,,,,,,,,,,,,,,,,,,,,,,,
,,,,,WIN24_001,19,Female,2024-01-23_16h02.24.362,jersey_experiment_5,2023.2.2,Win32,59.88023952,,,,,,,,,,,,,,,,327.7532,329.5526,329.5526,330.5853,return,0.557,,76.43229167,,,,,,FBP-RB-81.png,0.43,1.2,24,1,0,29,29,23,1,,,,,,,,,,,,,,,,,,,,,,,,,,,,,,,,,,,,,,,,
,,,,,WIN24_001,19,Female,2024-01-23_16h02.24.362,jersey_experiment_5,2023.2.2,Win32,59.88023952,,,,,,,,,,,,,,,,330.5856,332.3847,332.3847,333.3844,return,0.5743,,82.94270833,,,,,,FBP-YG-18.png,0.45,1.2,40,1,0,30,30,39,1,,,,,,,,,,,,,,,,,,,,,,,,,,,,,,,,,,,,,,,,
,,,,,WIN24_001,19,Female,2024-01-23_16h02.24.362,jersey_experiment_5,2023.2.2,Win32,59.88023952,,,,,,,,,,,,,,,,333.3846,335.1841,335.1842,337.6163,return,1.5993,,14.58333333,,,,,,FBP-YG-18.png,0.35,1.2,36,1,0,31,31,35,1,,,,,,,,,,,,,,,,,,,,,,,,,,,,,,,,,,,,,,,,
,,,,,WIN24_001,19,Female,2024-01-23_16h02.24.362,jersey_experiment_5,2023.2.2,Win32,59.88023952,,,,,,,,,,,,,,,,337.6166,339.4157,339.4157,340.5489,return,0.5163,,17.1875,,,,,,FBP-RB-81.png,0.35,1.2,21,1,0,32,32,20,1,,,,,,,,,,,,,,,,,,,,,,,,,,,,,,,,,,,,,,,,
,,,,,WIN24_001,19,Female,2024-01-23_16h02.24.362,jersey_experiment_5,2023.2.2,Win32,59.88023952,,,,,,,,,,,,,,,,340.549,341.8483,341.8483,342.8313,return,0.6011,,17.1875,,,,,,FBP-OG-19.png,0.35,1.2,11,0.5,0,33,33,10,1,,,,,,,,,,,,,,,,,,,,,,,,,,,,,,,,,,,,,,,,
,,,,,WIN24_001,19,Female,2024-01-23_16h02.24.362,jersey_experiment_5,2023.2.2,Win32,59.88023952,,,,,,,,,,,,,,,,342.8315,344.1309,344.1309,345.4472,return,0.542,,76.5625,,,,,,FBP-OG-17.png,0.43,1.2,4,0.5,0,34,34,3,1,,,,,,,,,,,,,,,,,,,,,,,,,,,,,,,,,,,,,,,,
,,,,,WIN24_001,19,Female,2024-01-23_16h02.24.362,jersey_experiment_5,2023.2.2,Win32,59.88023952,,,,,,,,,,,,,,,,345.4475,347.2467,347.2467,348.3294,return,0.5566,,22.91666667,,,,,,FBP-RB-71.png,0.35,1.2,16,1,0,35,35,15,1,,,,,,,,,,,,,,,,,,,,,,,,,,,,,,,,,,,,,,,,
,,,,,WIN24_001,19,Female,2024-01-23_16h02.24.362,jersey_experiment_5,2023.2.2,Win32,59.88023952,,,,,,,,,,,,,,,,348.3297,350.129,350.129,351.1618,return,0.4901,,43.359375,,,,,,FBP-RB-71.png,0.37,1.2,17,1,0,36,36,16,1,,,,,,,,,,,,,,,,,,,,,,,,,,,,,,,,,,,,,,,,
,,,,,WIN24_001,19,Female,2024-01-23_16h02.24.362,jersey_experiment_5,2023.2.2,Win32,59.88023952,,,,,,,,,,,,,,,,351.162,352.4613,352.4613,354.0109,return,0.5718,,79.16666667,,,,,,FBP-OG-18.png,0.37,1.2,7,0.5,0,37,37,6,1,,,,,,,,,,,,,,,,,,,,,,,,,,,,,,,,,,,,,,,,
,,,,,WIN24_001,19,Female,2024-01-23_16h02.24.362,jersey_experiment_5,2023.2.2,Win32,59.88023952,,,,,,,,,,,,,,,,354.0112,355.8106,355.8107,356.9599,return,0.5335,,40.88541667,,,,,,FBP-YG-18.png,0.37,1.2,37,1,0,38,38,36,1,,,,,,,,,,,,,,,,,,,,,,,,,,,,,,,,,,,,,,,,
,,,,,WIN24_001,19,Female,2024-01-23_16h02.24.362,jersey_experiment_5,2023.2.2,Win32,59.88023952,,,,,,,,,,,,,,,,356.9601,358.2597,358.2598,359.5592,return,0.5424,,76.69270833,,,,,,FBP-PT-91.png,0.45,1.2,60,0.5,0,39,39,59,1,,,,,,,,,,,,,,,,,,,,,,,,,,,,,,,,,,,,,,,,
,,,,,WIN24_001,19,Female,2024-01-23_16h02.24.362,jersey_experiment_5,2023.2.2,Win32,59.88023952,,,,,,,,,,,,,,,,359.5594,361.3587,361.3587,362.6579,return,0.9318,,78.90625,,,,,,FBP-RB-91.png,0.45,1.2,30,1,0,40,40,29,1,,,,,,,,,,,,,,,,,,,,,,,,,,,,,,,,,,,,,,,,
,,,,,WIN24_001,19,Female,2024-01-23_16h02.24.362,jersey_experiment_5,2023.2.2,Win32,59.88023952,,,,,,,,,,,,,,,,362.6581,364.4575,364.4576,367.4065,return,2.3177,,56.77083333,,,,,,FBP-RB-91.png,0.4,1.2,28,1,0,41,41,27,1,,,,,,,,,,,,,,,,,,,,,,,,,,,,,,,,,,,,,,,,
,,,,,WIN24_001,19,Female,2024-01-23_16h02.24.362,jersey_experiment_5,2023.2.2,Win32,59.88023952,,,,,,,,,,,,,,,,367.4067,369.2058,369.2058,370.3722,return,0.5333,,51.82291667,,,,,,FBP-YG-19.png,0.35,1.2,41,1,0,42,42,40,1,,,,,,,,,,,,,,,,,,,,,,,,,,,,,,,,,,,,,,,,
,,,,,WIN24_001,19,Female,2024-01-23_16h02.24.362,jersey_experiment_5,2023.2.2,Win32,59.88023952,,,,,,,,,,,,,,,,370.3723,372.1715,372.1715,374.1542,return,0.5558,,52.99479167,,,,,,FBP-YG-17.png,0.35,1.2,31,1,0,43,43,30,1,,,,,,,,,,,,,,,,,,,,,,,,,,,,,,,,,,,,,,,,
,,,,,WIN24_001,19,Female,2024-01-23_16h02.24.362,jersey_experiment_5,2023.2.2,Win32,59.88023952,,,,,,,,,,,,,,,,374.1543,375.9536,375.9537,377.0199,return,0.5374,,51.953125,,,,,,FBP-YG-19.png,0.37,1.2,42,1,0,44,44,41,1,,,,,,,,,,,,,,,,,,,,,,,,,,,,,,,,,,,,,,,,
,,,,,WIN24_001,19,Female,2024-01-23_16h02.24.362,jersey_experiment_5,2023.2.2,Win32,59.88023952,,,,,,,,,,,,,,,,377.0201,378.8194,378.8194,379.7357,return,0.5747,,51.69270833,,,,,,FBP-RB-91.png,0.37,1.2,27,1,0,45,45,26,1,,,,,,,,,,,,,,,,,,,,,,,,,,,,,,,,,,,,,,,,
,,,,,WIN24_001,19,Female,2024-01-23_16h02.24.362,jersey_experiment_5,2023.2.2,Win32,59.88023952,,,,,,,,,,,,,,,,379.7358,381.0355,381.0356,382.1681,return,0.6077,,79.94791667,,,,,,FBP-OG-18.png,0.43,1.2,9,0.5,0,46,46,8,1,,,,,,,,,,,,,,,,,,,,,,,,,,,,,,,,,,,,,,,,
,,,,,WIN24_001,19,Female,2024-01-23_16h02.24.362,jersey_experiment_5,2023.2.2,Win32,59.88023952,,,,,,,,,,,,,,,,382.1684,383.9678,383.9678,384.9006,return,0.5833,,84.375,,,,,,FBP-YG-17.png,0.43,1.2,34,1,0,47,47,33,1,,,,,,,,,,,,,,,,,,,,,,,,,,,,,,,,,,,,,,,,
,,,,,WIN24_001,19,Female,2024-01-23_16h02.24.362,jersey_experiment_5,2023.2.2,Win32,59.88023952,,,,,,,,,,,,,,,,384.9008,386.7,386.7001,387.7162,return,0.5783,,65.49479167,,,,,,FBP-RB-81.png,0.37,1.2,22,1,0,48,48,21,1,,,,,,,,,,,,,,,,,,,,,,,,,,,,,,,,,,,,,,,,
,,,,,WIN24_001,19,Female,2024-01-23_16h02.24.362,jersey_experiment_5,2023.2.2,Win32,59.88023952,,,,,,,,,,,,,,,,387.7164,389.0159,389.0159,390.0988,return,0.5,,88.28125,,,,,,FBP-OG-19.png,0.43,1.2,14,0.5,0,49,49,13,1,,,,,,,,,,,,,,,,,,,,,,,,,,,,,,,,,,,,,,,,
,,,,,WIN24_001,19,Female,2024-01-23_16h02.24.362,jersey_experiment_5,2023.2.2,Win32,59.88023952,,,,,,,,,,,,,,,,390.099,391.3986,391.3986,393.7477,return,0.5671,,31.90104167,,,,,,FBP-OG-17.png,0.35,1.2,1,0.5,0,50,50,0,1,,,,,,,,,,,,,,,,,,,,,,,,,,,,,,,,,,,,,,,,
,,,,,WIN24_001,19,Female,2024-01-23_16h02.24.362,jersey_experiment_5,2023.2.2,Win32,59.88023952,,,,,,,,,,,,,,,,393.748,395.0472,395.0473,396.8299,return,0.5361,,57.55208333,,,,,,FBP-OG-18.png,0.4,1.2,8,0.5,0,51,51,7,1,,,,,,,,,,,,,,,,,,,,,,,,,,,,,,,,,,,,,,,,
,,,,,WIN24_001,19,Female,2024-01-23_16h02.24.362,jersey_experiment_5,2023.2.2,Win32,59.88023952,,,,,,,,,,,,,,,,396.8301,398.6343,398.6343,400.4675,return,0.4835,,77.08333333,,,,,,FBP-RB-71.png,0.4,1.2,18,1,0,52,52,17,1,,,,,,,,,,,,,,,,,,,,,,,,,,,,,,,,,,,,,,,,
,,,,,WIN24_001,19,Female,2024-01-23_16h02.24.362,jersey_experiment_5,2023.2.2,Win32,59.88023952,,,,,,,,,,,,,,,,400.4675,401.7617,401.7617,402.7499,return,0.0835,,85.28645833,,,,,,FBP-OG-17.png,0.4,1.2,3,0.5,0,53,53,2,1,,,,,,,,,,,,,,,,,,,,,,,,,,,,,,,,,,,,,,,,
,,,,,WIN24_001,19,Female,2024-01-23_16h02.24.362,jersey_experiment_5,2023.2.2,Win32,59.88023952,,,,,,,,,,,,,,,,402.75,404.0442,404.0442,404.7325,return,0.1335,,88.80208333,,,,,,FBP-PT-71.png,0.45,1.2,50,0.5,0,54,54,49,1,,,,,,,,,,,,,,,,,,,,,,,,,,,,,,,,,,,,,,,,
,,,,,WIN24_001,19,Female,2024-01-23_16h02.24.362,jersey_experiment_5,2023.2.2,Win32,59.88023952,,,,,,,,,,,,,,,,404.7327,406.5316,406.5316,407.1316,return,0.1002,,78.38541667,,,,,,FBP-RB-91.png,0.43,1.2,29,1,0,55,55,28,1,,,,,,,,,,,,,,,,,,,,,,,,,,,,,,,,,,,,,,,,
,,,,,WIN24_001,19,Female,2024-01-23_16h02.24.362,jersey_experiment_5,2023.2.2,Win32,59.88023952,,,,,,,,,,,,,,,,407.1317,408.931,408.931,409.5641,return,0.0668,,52.86458333,,,,,,FBP-RB-91.png,0.35,1.2,26,1,0,56,56,25,1,,,,,,,,,,,,,,,,,,,,,,,,,,,,,,,,,,,,,,,,
,,,,,WIN24_001,19,Female,2024-01-23_16h02.24.362,jersey_experiment_5,2023.2.2,Win32,59.88023952,,,,,,,,,,,,,,,,409.5643,411.3636,411.3637,412.3633,return,0.0847,,81.90104167,,,,,,FBP-YG-19.png,0.45,1.2,45,1,0,57,57,44,1,,,,,,,,,,,,,,,,,,,,,,,,,,,,,,,,,,,,,,,,
,,,,,WIN24_001,19,Female,2024-01-23_16h02.24.362,jersey_experiment_5,2023.2.2,Win32,59.88023952,,,,,,,,,,,,,,,,412.3635,413.6629,413.6629,414.5575,return,0.0856,,88.54166667,,,,,,FBP-PT-81.png,0.45,1.2,55,0.5,0,58,58,54,1,,,,,,,,,,,,,,,,,,,,,,,,,,,,,,,,,,,,,,,,
,,,,,WIN24_001,19,Female,2024-01-23_16h02.24.362,jersey_experiment_5,2023.2.2,Win32,59.88023952,,,,,,,,,,,,,,,,414.5577,416.3567,416.3568,417.0616,return,0.067,,77.86458333,,,,,,FBP-RB-71.png,0.43,1.2,19,1,0,59,59,18,1,,,,,,,,,,,,,,,,,,,,,,,,,,,,,,,,,,,,,,,,
,,,,,WIN24_001,19,Female,2024-01-23_16h02.24.362,jersey_experiment_5,2023.2.2,Win32,59.88023952,,,,,,,,,,,,,,,,,,,,,,,,,,,,,,,,,,,,,,,417.0619,537.0715,,,,,,,,,,,,,,,,,,,,,,,,,,,,,,,,,,,,,,
,,,,,WIN24_001,19,Female,2024-01-23_16h02.24.362,jersey_experiment_5,2023.2.2,Win32,59.88023952,,,,,,,,,,,,,,,,,,,,,,,,,,,,,,,,,,,,,,,,,537.0715,539.4325,return,2.3396,,,,,,,,,,,,,,,,,,,,,,,,,,,,,,,,,,
,,,,,WIN24_001,19,Female,2024-01-23_16h02.24.362,jersey_experiment_5,2023.2.2,Win32,59.88023952,,,,,,,,,,,,,,,,539.4384,540.737,540.737,543.2863,return,1.6828,,75.78125,,,,,,FBP-YG-91.png,0.45,1.2,45,0.5,,,,,,,,,,,,,0,0,0,44,1,,,,,,,,,,,,,,,,,,,,,,,,,,,,
,,,,,WIN24_001,19,Female,2024-01-23_16h02.24.362,jersey_experiment_5,2023.2.2,Win32,59.88023952,,,,,,,,,,,,,,,,543.2866,544.5856,544.5856,545.084,return,0.0986,,77.08333333,,,,,,FBP-RB-19.png,0.43,1.2,29,0.5,,,,,,,,,,,,,0,1,1,28,1,,,,,,,,,,,,,,,,,,,,,,,,,,,,
,,,,,WIN24_001,19,Female,2024-01-23_16h02.24.362,jersey_experiment_5,2023.2.2,Win32,59.88023952,,,,,,,,,,,,,,,,545.0842,546.38,546.38,547.1186,return,0.0838,,35.41666667,,,,,,FBP-RB-17.png,0.35,1.2,16,0.5,,,,,,,,,,,,,0,2,2,15,1,,,,,,,,,,,,,,,,,,,,,,,,,,,,
,,,,,WIN24_001,19,Female,2024-01-23_16h02.24.362,jersey_experiment_5,2023.2.2,Win32,59.88023952,,,,,,,,,,,,,,,,547.1187,548.4177,548.4177,549.1839,return,0.0997,,23.4375,,,,,,FBP-RB-19.png,0.35,1.2,26,0.5,,,,,,,,,,,,,0,3,3,25,1,,,,,,,,,,,,,,,,,,,,,,,,,,,,
,,,,,WIN24_001,19,Female,2024-01-23_16h02.24.362,jersey_experiment_5,2023.2.2,Win32,59.88023952,,,,,,,,,,,,,,,,549.1841,550.9786,550.9787,551.6116,return,0.0706,,41.40625,,,,,,FBP-OG-91.png,0.37,1.2,12,1,,,,,,,,,,,,,0,4,4,11,1,,,,,,,,,,,,,,,,,,,,,,,,,,,,
,,,,,WIN24_001,19,Female,2024-01-23_16h02.24.362,jersey_experiment_5,2023.2.2,Win32,59.88023952,,,,,,,,,,,,,,,,551.6118,552.9112,552.9112,553.611,return,0.0714,,37.109375,,,,,,FBP-YG-91.png,0.37,1.2,42,0.5,,,,,,,,,,,,,0,5,5,41,1,,,,,,,,,,,,,,,,,,,,,,,,,,,,
,,,,,WIN24_001,19,Female,2024-01-23_16h02.24.362,jersey_experiment_5,2023.2.2,Win32,59.88023952,,,,,,,,,,,,,,,,553.6112,554.9154,554.9155,555.4158,return,0.0503,,73.56770833,,,,,,FBP-RB-18.png,0.43,1.2,24,0.5,,,,,,,,,,,,,0,6,6,23,1,,,,,,,,,,,,,,,,,,,,,,,,,,,,
,,,,,WIN24_001,19,Female,2024-01-23_16h02.24.362,jersey_experiment_5,2023.2.2,Win32,59.88023952,,,,,,,,,,,,,,,,555.4158,557.2098,557.2098,557.6647,return,0.1002,,73.56770833,,,,,,FBP-PT-19.png,0.43,1.2,59,1,,,,,,,,,,,,,0,7,7,58,1,,,,,,,,,,,,,,,,,,,,,,,,,,,,
,,,,,WIN24_001,19,Female,2024-01-23_16h02.24.362,jersey_experiment_5,2023.2.2,Win32,59.88023952,,,,,,,,,,,,,,,,557.665,558.9593,558.9593,559.6974,return,0.1171,,57.421875,,,,,,FBP-YG-91.png,0.4,1.2,43,0.5,,,,,,,,,,,,,0,8,8,42,1,,,,,,,,,,,,,,,,,,,,,,,,,,,,
,,,,,WIN24_001,19,Female,2024-01-23_16h02.24.362,jersey_experiment_5,2023.2.2,Win32,59.88023952,,,,,,,,,,,,,,,,559.6976,561.4917,561.4917,561.9748,return,0.0587,,39.19270833,,,,,,FBP-PT-17.png,0.4,1.2,48,1,,,,,,,,,,,,,0,9,9,47,1,,,,,,,,,,,,,,,,,,,,,,,,,,,,
,,,,,WIN24_001,19,Female,2024-01-23_16h02.24.362,jersey_experiment_5,2023.2.2,Win32,59.88023952,,,,,,,,,,,,,,,,561.975,563.779,563.779,564.3959,return,0.2165,,31.51041667,,,,,,FBP-PT-19.png,0.35,1.2,56,1,,,,,,,,,,,,,0,10,10,55,1,,,,,,,,,,,,,,,,,,,,,,,,,,,,
,,,,,WIN24_001,19,Female,2024-01-23_16h02.24.362,jersey_experiment_5,2023.2.2,Win32,59.88023952,,,,,,,,,,,,,,,,564.3961,566.1901,566.1901,566.7232,return,0.1502,,19.66145833,,,,,,FBP-OG-71.png,0.35,1.2,1,1,,,,,,,,,,,,,0,11,11,0,1,,,,,,,,,,,,,,,,,,,,,,,,,,,,
,,,,,WIN24_001,19,Female,2024-01-23_16h02.24.362,jersey_experiment_5,2023.2.2,Win32,59.88023952,,,,,,,,,,,,,,,,566.7234,568.5275,568.5276,569.0609,return,0.0336,,78.125,,,,,,FBP-OG-71.png,0.45,1.2,5,1,,,,,,,,,,,,,0,12,12,4,1,,,,,,,,,,,,,,,,,,,,,,,,,,,,
,,,,,WIN24_001,19,Female,2024-01-23_16h02.24.362,jersey_experiment_5,2023.2.2,Win32,59.88023952,,,,,,,,,,,,,,,,569.0611,570.3556,570.3556,571.0938,return,0.0505,,82.68229167,,,,,,FBP-RB-17.png,0.43,1.2,19,0.5,,,,,,,,,,,,,0,13,13,18,1,,,,,,,,,,,,,,,,,,,,,,,,,,,,
,,,,,WIN24_001,19,Female,2024-01-23_16h02.24.362,jersey_experiment_5,2023.2.2,Win32,59.88023952,,,,,,,,,,,,,,,,571.0939,572.393,572.393,572.9878,return,0.0205,,64.0625,,,,,,FBP-YG-71.png,0.4,1.2,33,0.5,,,,,,,,,,,,,0,14,14,32,1,,,,,,,,,,,,,,,,,,,,,,,,,,,,
,,,,,WIN24_001,19,Female,2024-01-23_16h02.24.362,jersey_experiment_5,2023.2.2,Win32,59.88023952,,,,,,,,,,,,,,,,572.9879,574.276,574.276,574.8423,return,0.0505,,69.01041667,,,,,,FBP-YG-81.png,0.43,1.2,39,0.5,,,,,,,,,,,,,0,15,15,38,1,,,,,,,,,,,,,,,,,,,,,,,,,,,,
,,,,,WIN24_001,19,Female,2024-01-23_16h02.24.362,jersey_experiment_5,2023.2.2,Win32,59.88023952,,,,,,,,,,,,,,,,574.8426,576.6367,576.6367,577.0531,return,0.1524,,86.71875,,,,,,FBP-PT-18.png,0.45,1.2,55,1,,,,,,,,,,,,,0,16,16,54,1,,,,,,,,,,,,,,,,,,,,,,,,,,,,
,,,,,WIN24_001,19,Female,2024-01-23_16h02.24.362,jersey_experiment_5,2023.2.2,Win32,59.88023952,,,,,,,,,,,,,,,,577.0533,578.8574,578.8574,579.2859,return,0.3098,,64.97395833,,,,,,FBP-PT-18.png,0.4,1.2,53,1,,,,,,,,,,,,,0,17,17,52,1,,,,,,,,,,,,,,,,,,,,,,,,,,,,
,,,,,WIN24_001,19,Female,2024-01-23_16h02.24.362,jersey_experiment_5,2023.2.2,Win32,59.88023952,,,,,,,,,,,,,,,,579.286,580.5852,580.5853,581.2404,return,0.0838,,41.796875,,,,,,FBP-RB-18.png,0.37,1.2,22,0.5,,,,,,,,,,,,,0,18,18,21,1,,,,,,,,,,,,,,,,,,,,,,,,,,,,
,,,,,WIN24_001,19,Female,2024-01-23_16h02.24.362,jersey_experiment_5,2023.2.2,Win32,59.88023952,,,,,,,,,,,,,,,,581.2406,583.0396,583.0396,583.8841,return,0.1199,,74.609375,,,,,,FBP-PT-17.png,0.45,1.2,50,1,,,,,,,,,,,,,0,19,19,49,1,,,,,,,,,,,,,,,,,,,,,,,,,,,,
,,,,,WIN24_001,19,Female,2024-01-23_16h02.24.362,jersey_experiment_5,2023.2.2,Win32,59.88023952,,,,,,,,,,,,,,,,583.8843,585.1722,585.1722,586.1053,return,0.4167,,89.453125,,,,,,FBP-YG-81.png,0.45,1.2,40,0.5,,,,,,,,,,,,,0,20,20,39,1,,,,,,,,,,,,,,,,,,,,,,,,,,,,
,,,,,WIN24_001,19,Female,2024-01-23_16h02.24.362,jersey_experiment_5,2023.2.2,Win32,59.88023952,,,,,,,,,,,,,,,,586.1054,587.4048,587.4049,588.1495,return,0.1434,,19.53125,,,,,,FBP-RB-19.png,0.37,1.2,27,0.5,,,,,,,,,,,,,0,21,21,26,1,,,,,,,,,,,,,,,,,,,,,,,,,,,,
,,,,,WIN24_001,19,Female,2024-01-23_16h02.24.362,jersey_experiment_5,2023.2.2,Win32,59.88023952,,,,,,,,,,,,,,,,588.1496,589.4538,589.4539,590.0208,return,0.1338,,13.54166667,,,,,,FBP-YG-71.png,0.37,1.2,32,0.5,,,,,,,,,,,,,0,22,22,31,1,,,,,,,,,,,,,,,,,,,,,,,,,,,,
,,,,,WIN24_001,19,Female,2024-01-23_16h02.24.362,jersey_experiment_5,2023.2.2,Win32,59.88023952,,,,,,,,,,,,,,,,590.0209,591.8182,591.8182,592.453,return,0.1336,,72.13541667,,,,,,FBP-OG-71.png,0.43,1.2,4,1,,,,,,,,,,,,,0,23,23,3,1,,,,,,,,,,,,,,,,,,,,,,,,,,,,
,,,,,WIN24_001,19,Female,2024-01-23_16h02.24.362,jersey_experiment_5,2023.2.2,Win32,59.88023952,,,,,,,,,,,,,,,,592.4532,594.2522,594.2523,594.6639,return,0.1076,,75.91145833,,,,,,FBP-PT-17.png,0.43,1.2,49,1,,,,,,,,,,,,,0,24,24,48,1,,,,,,,,,,,,,,,,,,,,,,,,,,,,
,,,,,WIN24_001,19,Female,2024-01-23_16h02.24.362,jersey_experiment_5,2023.2.2,Win32,59.88023952,,,,,,,,,,,,,,,,594.664,595.9635,595.9636,596.5502,return,0.0487,,87.890625,,,,,,FBP-YG-91.png,0.43,1.2,44,0.5,,,,,,,,,,,,,0,25,25,43,1,,,,,,,,,,,,,,,,,,,,,,,,,,,,
,,,,,WIN24_001,19,Female,2024-01-23_16h02.24.362,jersey_experiment_5,2023.2.2,Win32,59.88023952,,,,,,,,,,,,,,,,596.5504,598.346,598.346,598.7842,return,0.2168,,84.11458333,,,,,,FBP-PT-19.png,0.45,1.2,60,1,,,,,,,,,,,,,0,26,26,59,1,,,,,,,,,,,,,,,,,,,,,,,,,,,,
,,,,,WIN24_001,19,Female,2024-01-23_16h02.24.362,jersey_experiment_5,2023.2.2,Win32,59.88023952,,,,,,,,,,,,,,,,598.7844,600.0787,600.0788,600.5953,return,0.05,,85.546875,,,,,,FBP-RB-18.png,0.45,1.2,25,0.5,,,,,,,,,,,,,0,27,27,24,1,,,,,,,,,,,,,,,,,,,,,,,,,,,,
,,,,,WIN24_001,19,Female,2024-01-23_16h02.24.362,jersey_experiment_5,2023.2.2,Win32,59.88023952,,,,,,,,,,,,,,,,600.5954,601.8997,601.8997,603.0112,return,0.0336,,64.84375,,,,,,FBP-RB-18.png,0.4,1.2,23,0.5,,,,,,,,,,,,,0,28,28,22,1,,,,,,,,,,,,,,,,,,,,,,,,,,,,
,,,,,WIN24_001,19,Female,2024-01-23_16h02.24.362,jersey_experiment_5,2023.2.2,Win32,59.88023952,,,,,,,,,,,,,,,,603.0114,604.3107,604.3108,604.9105,return,0.0534,,82.16145833,,,,,,FBP-YG-71.png,0.43,1.2,34,0.5,,,,,,,,,,,,,0,29,29,33,1,,,,,,,,,,,,,,,,,,,,,,,,,,,,
,,,,,WIN24_001,19,Female,2024-01-23_16h02.24.362,jersey_experiment_5,2023.2.2,Win32,59.88023952,,,,,,,,,,,,,,,,604.9107,606.2149,606.2149,606.8599,return,0.1204,,65.10416667,,,,,,FBP-YG-81.png,0.37,1.2,37,0.5,,,,,,,,,,,,,0,30,30,36,1,,,,,,,,,,,,,,,,,,,,,,,,,,,,
,,,,,WIN24_001,19,Female,2024-01-23_16h02.24.362,jersey_experiment_5,2023.2.2,Win32,59.88023952,,,,,,,,,,,,,,,,606.8601,608.6593,608.6593,609.1257,return,0.0432,,84.11458333,,,,,,FBP-OG-81.png,0.43,1.2,9,1,,,,,,,,,,,,,0,31,31,8,1,,,,,,,,,,,,,,,,,,,,,,,,,,,,
,,,,,WIN24_001,19,Female,2024-01-23_16h02.24.362,jersey_experiment_5,2023.2.2,Win32,59.88023952,,,,,,,,,,,,,,,,609.1259,610.4137,610.4137,611.1917,return,0.0911,,63.671875,,,,,,FBP-YG-81.png,0.4,1.2,38,0.5,,,,,,,,,,,,,0,32,32,37,1,,,,,,,,,,,,,,,,,,,,,,,,,,,,
,,,,,WIN24_001,19,Female,2024-01-23_16h02.24.362,jersey_experiment_5,2023.2.2,Win32,59.88023952,,,,,,,,,,,,,,,,611.1919,612.9911,612.9911,613.8126,return,0.6668,,84.50520833,,,,,,FBP-OG-81.png,0.45,1.2,10,1,,,,,,,,,,,,,0,33,33,9,1,,,,,,,,,,,,,,,,,,,,,,,,,,,,
,,,,,WIN24_001,19,Female,2024-01-23_16h02.24.362,jersey_experiment_5,2023.2.2,Win32,59.88023952,,,,,,,,,,,,,,,,613.8127,615.612,615.612,616.1784,return,0.2001,,31.11979167,,,,,,FBP-OG-71.png,0.37,1.2,2,1,,,,,,,,,,,,,0,34,34,1,1,,,,,,,,,,,,,,,,,,,,,,,,,,,,
,,,,,WIN24_001,19,Female,2024-01-23_16h02.24.362,jersey_experiment_5,2023.2.2,Win32,59.88023952,,,,,,,,,,,,,,,,616.1786,617.978,617.978,618.7113,return,0.1007,,45.44270833,,,,,,FBP-OG-81.png,0.4,1.2,8,1,,,,,,,,,,,,,0,35,35,7,1,,,,,,,,,,,,,,,,,,,,,,,,,,,,
,,,,,WIN24_001,19,Female,2024-01-23_16h02.24.362,jersey_experiment_5,2023.2.2,Win32,59.88023952,,,,,,,,,,,,,,,,618.7115,620.0105,620.0105,621.2104,return,0.1837,,27.99479167,,,,,,FBP-YG-71.png,0.35,1.2,31,0.5,,,,,,,,,,,,,0,36,36,30,1,,,,,,,,,,,,,,,,,,,,,,,,,,,,
,,,,,WIN24_001,19,Female,2024-01-23_16h02.24.362,jersey_experiment_5,2023.2.2,Win32,59.88023952,,,,,,,,,,,,,,,,621.2106,623.008,623.008,623.621,return,0.1104,,50.52083333,,,,,,FBP-OG-81.png,0.37,1.2,7,1,,,,,,,,,,,,,0,37,37,6,1,,,,,,,,,,,,,,,,,,,,,,,,,,,,
,,,,,WIN24_001,19,Female,2024-01-23_16h02.24.362,jersey_experiment_5,2023.2.2,Win32,59.88023952,,,,,,,,,,,,,,,,623.6212,625.4204,625.4204,625.8754,return,0.2171,,49.47916667,,,,,,FBP-PT-17.png,0.37,1.2,47,1,,,,,,,,,,,,,0,38,38,46,1,,,,,,,,,,,,,,,,,,,,,,,,,,,,
,,,,,WIN24_001,19,Female,2024-01-23_16h02.24.362,jersey_experiment_5,2023.2.2,Win32,59.88023952,,,,,,,,,,,,,,,,625.8755,627.1698,627.1698,627.6084,return,0.0339,,49.47916667,,,,,,FBP-YG-91.png,0.35,1.2,41,0.5,,,,,,,,,,,,,0,39,39,40,1,,,,,,,,,,,,,,,,,,,,,,,,,,,,
,,,,,WIN24_001,19,Female,2024-01-23_16h02.24.362,jersey_experiment_5,2023.2.2,Win32,59.88023952,,,,,,,,,,,,,,,,627.6086,628.9075,628.9075,629.8909,return,0.4838,,83.85416667,,,,,,FBP-YG-71.png,0.45,1.2,35,0.5,,,,,,,,,,,,,0,40,40,34,1,,,,,,,,,,,,,,,,,,,,,,,,,,,,
,,,,,WIN24_001,19,Female,2024-01-23_16h02.24.362,jersey_experiment_5,2023.2.2,Win32,59.88023952,,,,,,,,,,,,,,,,629.8911,631.69,631.69,632.3732,return,0.1515,,76.171875,,,,,,FBP-OG-91.png,0.43,1.2,14,1,,,,,,,,,,,,,0,41,41,13,1,,,,,,,,,,,,,,,,,,,,,,,,,,,,
,,,,,WIN24_001,19,Female,2024-01-23_16h02.24.362,jersey_experiment_5,2023.2.2,Win32,59.88023952,,,,,,,,,,,,,,,,632.3733,633.6676,633.6676,635.3003,return,0.7289,,50.390625,,,,,,FBP-RB-18.png,0.35,1.2,21,0.5,,,,,,,,,,,,,0,42,42,20,1,,,,,,,,,,,,,,,,,,,,,,,,,,,,
,,,,,WIN24_001,19,Female,2024-01-23_16h02.24.362,jersey_experiment_5,2023.2.2,Win32,59.88023952,,,,,,,,,,,,,,,,635.3005,637.0882,637.0882,637.7828,return,0.0588,,76.04166667,,,,,,FBP-PT-18.png,0.43,1.2,54,1,,,,,,,,,,,,,0,43,43,53,1,,,,,,,,,,,,,,,,,,,,,,,,,,,,
,,,,,WIN24_001,19,Female,2024-01-23_16h02.24.362,jersey_experiment_5,2023.2.2,Win32,59.88023952,,,,,,,,,,,,,,,,637.7829,639.5875,639.5875,640.2039,return,0.067,,49.86979167,,,,,,FBP-PT-19.png,0.37,1.2,57,1,,,,,,,,,,,,,0,44,44,56,1,,,,,,,,,,,,,,,,,,,,,,,,,,,,
,,,,,WIN24_001,19,Female,2024-01-23_16h02.24.362,jersey_experiment_5,2023.2.2,Win32,59.88023952,,,,,,,,,,,,,,,,640.2041,641.9981,641.9981,642.4647,return,0.167,,51.171875,,,,,,FBP-PT-18.png,0.37,1.2,52,1,,,,,,,,,,,,,0,45,45,51,1,,,,,,,,,,,,,,,,,,,,,,,,,,,,
,,,,,WIN24_001,19,Female,2024-01-23_16h02.24.362,jersey_experiment_5,2023.2.2,Win32,59.88023952,,,,,,,,,,,,,,,,642.4649,644.2639,644.2639,644.8639,return,0.0669,,79.16666667,,,,,,FBP-OG-91.png,0.45,1.2,15,1,,,,,,,,,,,,,0,46,46,14,1,,,,,,,,,,,,,,,,,,,,,,,,,,,,
,,,,,WIN24_001,19,Female,2024-01-23_16h02.24.362,jersey_experiment_5,2023.2.2,Win32,59.88023952,,,,,,,,,,,,,,,,644.8641,646.152,646.152,646.8798,return,0.1503,,65.36458333,,,,,,FBP-RB-17.png,0.4,1.2,18,0.5,,,,,,,,,,,,,0,47,47,17,1,,,,,,,,,,,,,,,,,,,,,,,,,,,,
,,,,,WIN24_001,19,Female,2024-01-23_16h02.24.362,jersey_experiment_5,2023.2.2,Win32,59.88023952,,,,,,,,,,,,,,,,646.8801,648.6843,648.6844,649.6679,return,0.6004,,61.97916667,,,,,,FBP-OG-91.png,0.4,1.2,13,1,,,,,,,,,,,,,0,48,48,12,1,,,,,,,,,,,,,,,,,,,,,,,,,,,,
,,,,,WIN24_001,19,Female,2024-01-23_16h02.24.362,jersey_experiment_5,2023.2.2,Win32,59.88023952,,,,,,,,,,,,,,,,649.668,651.4616,651.4616,652.0168,return,0.117,,38.15104167,,,,,,FBP-OG-91.png,0.35,1.2,11,1,,,,,,,,,,,,,0,49,49,10,1,,,,,,,,,,,,,,,,,,,,,,,,,,,,
,,,,,WIN24_001,19,Female,2024-01-23_16h02.24.362,jersey_experiment_5,2023.2.2,Win32,59.88023952,,,,,,,,,,,,,,,,652.0169,653.8158,653.8158,654.244,return,0.0946,,38.15104167,,,,,,FBP-OG-81.png,0.35,1.2,6,1,,,,,,,,,,,,,0,50,50,5,1,,,,,,,,,,,,,,,,,,,,,,,,,,,,
,,,,,WIN24_001,19,Female,2024-01-23_16h02.24.362,jersey_experiment_5,2023.2.2,Win32,59.88023952,,,,,,,,,,,,,,,,654.2441,656.0434,656.0434,656.6799,return,0.082,,38.15104167,,,,,,FBP-PT-18.png,0.35,1.2,51,1,,,,,,,,,,,,,0,51,51,50,1,,,,,,,,,,,,,,,,,,,,,,,,,,,,
,,,,,WIN24_001,19,Female,2024-01-23_16h02.24.362,jersey_experiment_5,2023.2.2,Win32,59.88023952,,,,,,,,,,,,,,,,656.6801,657.981,657.9811,658.5426,return,0.0673,,66.66666667,,,,,,FBP-RB-19.png,0.4,1.2,28,0.5,,,,,,,,,,,,,0,52,52,27,1,,,,,,,,,,,,,,,,,,,,,,,,,,,,
,,,,,WIN24_001,19,Female,2024-01-23_16h02.24.362,jersey_experiment_5,2023.2.2,Win32,59.88023952,,,,,,,,,,,,,,,,658.5428,660.347,660.347,660.7472,return,0.1504,,70.05208333,,,,,,FBP-OG-71.png,0.4,1.2,3,1,,,,,,,,,,,,,0,53,53,2,1,,,,,,,,,,,,,,,,,,,,,,,,,,,,
,,,,,WIN24_001,19,Female,2024-01-23_16h02.24.362,jersey_experiment_5,2023.2.2,Win32,59.88023952,,,,,,,,,,,,,,,,660.7474,662.0463,662.0463,662.5132,return,0.0502,,84.24479167,,,,,,FBP-RB-19.png,0.45,1.2,30,0.5,,,,,,,,,,,,,0,54,54,29,1,,,,,,,,,,,,,,,,,,,,,,,,,,,,
,,,,,WIN24_001,19,Female,2024-01-23_16h02.24.362,jersey_experiment_5,2023.2.2,Win32,59.88023952,,,,,,,,,,,,,,,,662.5133,664.3072,664.3072,664.6959,return,0.2835,,71.35416667,,,,,,FBP-PT-19.png,0.4,1.2,58,1,,,,,,,,,,,,,0,55,55,57,1,,,,,,,,,,,,,,,,,,,,,,,,,,,,
,,,,,WIN24_001,19,Female,2024-01-23_16h02.24.362,jersey_experiment_5,2023.2.2,Win32,59.88023952,,,,,,,,,,,,,,,,664.6961,665.9902,665.9902,666.5233,return,0.1208,,85.41666667,,,,,,FBP-RB-17.png,0.45,1.2,20,0.5,,,,,,,,,,,,,0,56,56,19,1,,,,,,,,,,,,,,,,,,,,,,,,,,,,
,,,,,WIN24_001,19,Female,2024-01-23_16h02.24.362,jersey_experiment_5,2023.2.2,Win32,59.88023952,,,,,,,,,,,,,,,,666.5235,667.8113,667.8113,668.7727,return,0.4607,,29.6875,,,,,,FBP-RB-17.png,0.37,1.2,17,0.5,,,,,,,,,,,,,0,57,57,16,1,,,,,,,,,,,,,,,,,,,,,,,,,,,,
,,,,,WIN24_001,19,Female,2024-01-23_16h02.24.362,jersey_experiment_5,2023.2.2,Win32,59.88023952,,,,,,,,,,,,,,,,668.7729,670.5769,670.5769,671.1603,return,0.1336,,17.05729167,,,,,,FBP-PT-17.png,0.35,1.2,46,1,,,,,,,,,,,,,0,58,58,45,1,,,,,,,,,,,,,,,,,,,,,,,,,,,,
,,,,,WIN24_001,19,Female,2024-01-23_16h02.24.362,jersey_experiment_5,2023.2.2,Win32,59.88023952,,,,,,,,,,,,,,,,671.1604,672.4547,672.4547,673.3877,return,0.5037,,27.60416667,,,,,,FBP-YG-81.png,0.35,1.2,36,0.5,,,,,,,,,,,,,0,59,59,35,1,,,,,,,,,,,,,,,,,,,,,,,,,,,,
,,,,,WIN24_001,19,Female,2024-01-23_16h02.24.362,jersey_experiment_5,2023.2.2,Win32,59.88023952,,,,,,,,,,,,,,,,673.3892,675.187,675.187,676.0918,return,0.5166,,88.41145833,,,,,,FBP-OG-17.png,0.45,1.2,5,1,,,,,,,,,,,,,,,,,,0,0,0,4,1,,,,,,,,,,,,,,,,,,,,,,,
,,,,,WIN24_001,19,Female,2024-01-23_16h02.24.362,jersey_experiment_5,2023.2.2,Win32,59.88023952,,,,,,,,,,,,,,,,676.0921,677.8913,677.8913,678.4413,return,0.1839,,39.453125,,,,,,FBP-OG-19.png,0.35,1.2,11,1,,,,,,,,,,,,,,,,,,0,1,1,10,1,,,,,,,,,,,,,,,,,,,,,,,
,,,,,WIN24_001,19,Female,2024-01-23_16h02.24.362,jersey_experiment_5,2023.2.2,Win32,59.88023952,,,,,,,,,,,,,,,,678.4415,679.7407,679.7407,680.3519,return,0.1169,,66.66666667,,,,,,FBP-RB-81.png,0.43,1.2,24,0.5,,,,,,,,,,,,,,,,,,0,2,2,23,1,,,,,,,,,,,,,,,,,,,,,,,
,,,,,WIN24_001,19,Female,2024-01-23_16h02.24.362,jersey_experiment_5,2023.2.2,Win32,59.88023952,,,,,,,,,,,,,,,,680.3521,681.6567,681.6567,682.5896,return,0.0667,,41.40625,,,,,,FBP-RB-71.png,0.37,1.2,17,0.5,,,,,,,,,,,,,,,,,,0,3,3,16,1,,,,,,,,,,,,,,,,,,,,,,,
,,,,,WIN24_001,19,Female,2024-01-23_16h02.24.362,jersey_experiment_5,2023.2.2,Win32,59.88023952,,,,,,,,,,,,,,,,682.5897,684.384,684.384,685.2004,return,0.0834,,75.78125,,,,,,FBP-OG-17.png,0.43,1.2,4,1,,,,,,,,,,,,,,,,,,0,4,4,3,1,,,,,,,,,,,,,,,,,,,,,,,
,,,,,WIN24_001,19,Female,2024-01-23_16h02.24.362,jersey_experiment_5,2023.2.2,Win32,59.88023952,,,,,,,,,,,,,,,,685.2006,686.4884,686.4884,687.8495,return,0.0893,,65.36458333,,,,,,FBP-RB-91.png,0.4,1.2,28,0.5,,,,,,,,,,,,,,,,,,0,5,5,27,1,,,,,,,,,,,,,,,,,,,,,,,
,,,,,WIN24_001,19,Female,2024-01-23_16h02.24.362,jersey_experiment_5,2023.2.2,Win32,59.88023952,,,,,,,,,,,,,,,,687.8496,689.1492,689.1492,689.9154,return,0.287,,85.67708333,,,,,,FBP-RB-81.png,0.45,1.2,25,0.5,,,,,,,,,,,,,,,,,,0,6,6,24,1,,,,,,,,,,,,,,,,,,,,,,,
,,,,,WIN24_001,19,Female,2024-01-23_16h02.24.362,jersey_experiment_5,2023.2.2,Win32,59.88023952,,,,,,,,,,,,,,,,689.9156,691.7149,691.7149,692.2199,return,0.0835,,90.10416667,,,,,,FBP-PT-91.png,0.45,1.2,60,1,,,,,,,,,,,,,,,,,,0,7,7,59,1,,,,,,,,,,,,,,,,,,,,,,,
,,,,,WIN24_001,19,Female,2024-01-23_16h02.24.362,jersey_experiment_5,2023.2.2,Win32,59.88023952,,,,,,,,,,,,,,,,692.2201,693.5143,693.5143,694.0641,return,0.1172,,88.93229167,,,,,,FBP-YG-17.png,0.43,1.2,34,0.5,,,,,,,,,,,,,,,,,,0,8,8,33,1,,,,,,,,,,,,,,,,,,,,,,,
,,,,,WIN24_001,19,Female,2024-01-23_16h02.24.362,jersey_experiment_5,2023.2.2,Win32,59.88023952,,,,,,,,,,,,,,,,694.0643,695.3637,695.3637,696.0186,return,0.0837,,88.93229167,,,,,,FBP-RB-71.png,0.45,1.2,20,0.5,,,,,,,,,,,,,,,,,,0,9,9,19,1,,,,,,,,,,,,,,,,,,,,,,,
,,,,,WIN24_001,19,Female,2024-01-23_16h02.24.362,jersey_experiment_5,2023.2.2,Win32,59.88023952,,,,,,,,,,,,,,,,696.0187,697.818,697.818,698.501,return,0.0502,,54.296875,,,,,,FBP-OG-17.png,0.4,1.2,3,1,,,,,,,,,,,,,,,,,,0,10,10,2,1,,,,,,,,,,,,,,,,,,,,,,,
,,,,,WIN24_001,19,Female,2024-01-23_16h02.24.362,jersey_experiment_5,2023.2.2,Win32,59.88023952,,,,,,,,,,,,,,,,698.5012,699.7954,699.7954,700.3953,return,0.1218,,60.546875,,,,,,FBP-YG-18.png,0.4,1.2,38,0.5,,,,,,,,,,,,,,,,,,0,11,11,37,1,,,,,,,,,,,,,,,,,,,,,,,
,,,,,WIN24_001,19,Female,2024-01-23_16h02.24.362,jersey_experiment_5,2023.2.2,Win32,59.88023952,,,,,,,,,,,,,,,,700.3954,701.6836,701.6836,702.2167,return,0.0505,,64.58333333,,,,,,FBP-RB-91.png,0.37,1.2,27,0.5,,,,,,,,,,,,,,,,,,0,12,12,26,1,,,,,,,,,,,,,,,,,,,,,,,
,,,,,WIN24_001,19,Female,2024-01-23_16h02.24.362,jersey_experiment_5,2023.2.2,Win32,59.88023952,,,,,,,,,,,,,,,,702.2168,703.5109,703.5109,704.1158,return,0.0502,,82.03125,,,,,,FBP-RB-91.png,0.43,1.2,29,0.5,,,,,,,,,,,,,,,,,,0,13,13,28,1,,,,,,,,,,,,,,,,,,,,,,,
,,,,,WIN24_001,19,Female,2024-01-23_16h02.24.362,jersey_experiment_5,2023.2.2,Win32,59.88023952,,,,,,,,,,,,,,,,704.116,705.4137,705.4137,706.132,return,0.2005,,95.44270833,,,,,,FBP-YG-17.png,0.45,1.2,35,0.5,,,,,,,,,,,,,,,,,,0,14,14,34,1,,,,,,,,,,,,,,,,,,,,,,,
,,,,,WIN24_001,19,Female,2024-01-23_16h02.24.362,jersey_experiment_5,2023.2.2,Win32,59.88023952,,,,,,,,,,,,,,,,706.1321,707.9262,707.9262,708.5811,return,0.1502,,25,,,,,,FBP-PT-81.png,0.35,1.2,51,1,,,,,,,,,,,,,,,,,,0,15,15,50,1,,,,,,,,,,,,,,,,,,,,,,,
,,,,,WIN24_001,19,Female,2024-01-23_16h02.24.362,jersey_experiment_5,2023.2.2,Win32,59.88023952,,,,,,,,,,,,,,,,708.5812,709.8755,709.8755,710.4919,return,0.0536,,24.47916667,,,,,,FBP-YG-19.png,0.35,1.2,41,0.5,,,,,,,,,,,,,,,,,,0,16,16,40,1,,,,,,,,,,,,,,,,,,,,,,,
,,,,,WIN24_001,19,Female,2024-01-23_16h02.24.362,jersey_experiment_5,2023.2.2,Win32,59.88023952,,,,,,,,,,,,,,,,710.492,712.2798,712.2798,713.0911,return,0.05,,67.05729167,,,,,,FBP-OG-18.png,0.45,1.2,10,1,,,,,,,,,,,,,,,,,,0,17,17,9,1,,,,,,,,,,,,,,,,,,,,,,,
,,,,,WIN24_001,19,Female,2024-01-23_16h02.24.362,jersey_experiment_5,2023.2.2,Win32,59.88023952,,,,,,,,,,,,,,,,713.0912,714.8797,714.8797,715.3403,return,0.053,,78.38541667,,,,,,FBP-PT-71.png,0.45,1.2,50,1,,,,,,,,,,,,,,,,,,0,18,18,49,1,,,,,,,,,,,,,,,,,,,,,,,
,,,,,WIN24_001,19,Female,2024-01-23_16h02.24.362,jersey_experiment_5,2023.2.2,Win32,59.88023952,,,,,,,,,,,,,,,,715.3405,716.6402,716.6402,717.2617,return,0.1671,,73.17708333,,,,,,FBP-YG-18.png,0.43,1.2,39,0.5,,,,,,,,,,,,,,,,,,0,19,19,38,1,,,,,,,,,,,,,,,,,,,,,,,
,,,,,WIN24_001,19,Female,2024-01-23_16h02.24.362,jersey_experiment_5,2023.2.2,Win32,59.88023952,,,,,,,,,,,,,,,,717.2618,718.5559,718.5559,719.0443,return,0.0504,,78.38541667,,,,,,FBP-YG-19.png,0.43,1.2,44,0.5,,,,,,,,,,,,,,,,,,0,20,20,43,1,,,,,,,,,,,,,,,,,,,,,,,
,,,,,WIN24_001,19,Female,2024-01-23_16h02.24.362,jersey_experiment_5,2023.2.2,Win32,59.88023952,,,,,,,,,,,,,,,,719.0445,720.8384,720.8384,721.7597,return,0.4499,,64.0625,,,,,,FBP-PT-91.png,0.4,1.2,58,1,,,,,,,,,,,,,,,,,,0,21,21,57,1,,,,,,,,,,,,,,,,,,,,,,,
,,,,,WIN24_001,19,Female,2024-01-23_16h02.24.362,jersey_experiment_5,2023.2.2,Win32,59.88023952,,,,,,,,,,,,,,,,721.7599,723.5542,723.5542,724.0261,return,0.1671,,55.859375,,,,,,FBP-OG-18.png,0.35,1.2,6,1,,,,,,,,,,,,,,,,,,0,22,22,5,1,,,,,,,,,,,,,,,,,,,,,,,
,,,,,WIN24_001,19,Female,2024-01-23_16h02.24.362,jersey_experiment_5,2023.2.2,Win32,59.88023952,,,,,,,,,,,,,,,,724.0263,725.3205,725.3206,725.9751,return,0.0996,,56.38020833,,,,,,FBP-YG-18.png,0.37,1.2,37,0.5,,,,,,,,,,,,,,,,,,0,23,23,36,1,,,,,,,,,,,,,,,,,,,,,,,
,,,,,WIN24_001,19,Female,2024-01-23_16h02.24.362,jersey_experiment_5,2023.2.2,Win32,59.88023952,,,,,,,,,,,,,,,,725.9753,727.7695,727.7695,728.2027,return,0.2041,,56.38020833,,,,,,FBP-OG-18.png,0.37,1.2,7,1,,,,,,,,,,,,,,,,,,0,24,24,6,1,,,,,,,,,,,,,,,,,,,,,,,
,,,,,WIN24_001,19,Female,2024-01-23_16h02.24.362,jersey_experiment_5,2023.2.2,Win32,59.88023952,,,,,,,,,,,,,,,,728.203,730.0021,730.0022,730.5186,return,0.1586,,75.52083333,,,,,,FBP-PT-81.png,0.43,1.2,54,1,,,,,,,,,,,,,,,,,,0,25,25,53,1,,,,,,,,,,,,,,,,,,,,,,,
,,,,,WIN24_001,19,Female,2024-01-23_16h02.24.362,jersey_experiment_5,2023.2.2,Win32,59.88023952,,,,,,,,,,,,,,,,730.5187,731.8231,731.8231,732.9344,return,0.1584,,24.47916667,,,,,,FBP-YG-17.png,0.35,1.2,31,0.5,,,,,,,,,,,,,,,,,,0,26,26,30,1,,,,,,,,,,,,,,,,,,,,,,,
,,,,,WIN24_001,19,Female,2024-01-23_16h02.24.362,jersey_experiment_5,2023.2.2,Win32,59.88023952,,,,,,,,,,,,,,,,732.9347,734.7388,734.7388,735.2384,return,0.283,,76.30208333,,,,,,FBP-OG-18.png,0.43,1.2,9,1,,,,,,,,,,,,,,,,,,0,27,27,8,1,,,,,,,,,,,,,,,,,,,,,,,
,,,,,WIN24_001,19,Female,2024-01-23_16h02.24.362,jersey_experiment_5,2023.2.2,Win32,59.88023952,,,,,,,,,,,,,,,,735.2386,736.5332,736.5332,737.0997,return,0.0368,,73.30729167,,,,,,FBP-RB-81.png,0.4,1.2,23,0.5,,,,,,,,,,,,,,,,,,0,28,28,22,1,,,,,,,,,,,,,,,,,,,,,,,
,,,,,WIN24_001,19,Female,2024-01-23_16h02.24.362,jersey_experiment_5,2023.2.2,Win32,59.88023952,,,,,,,,,,,,,,,,737.0999,738.8878,738.8878,739.5525,return,0.1321,,23.56770833,,,,,,FBP-PT-91.png,0.35,1.2,56,1,,,,,,,,,,,,,,,,,,0,29,29,55,1,,,,,,,,,,,,,,,,,,,,,,,
,,,,,WIN24_001,19,Female,2024-01-23_16h02.24.362,jersey_experiment_5,2023.2.2,Win32,59.88023952,,,,,,,,,,,,,,,,739.5527,741.3483,741.3483,742.6979,return,0.7051,,73.046875,,,,,,FBP-OG-18.png,0.4,1.2,8,1,,,,,,,,,,,,,,,,,,0,30,30,7,1,,,,,,,,,,,,,,,,,,,,,,,
,,,,,WIN24_001,19,Female,2024-01-23_16h02.24.362,jersey_experiment_5,2023.2.2,Win32,59.88023952,,,,,,,,,,,,,,,,742.6981,744.4973,744.4973,744.8522,return,0.1335,,70.57291667,,,,,,FBP-PT-91.png,0.37,1.2,57,1,,,,,,,,,,,,,,,,,,0,31,31,56,1,,,,,,,,,,,,,,,,,,,,,,,
,,,,,WIN24_001,19,Female,2024-01-23_16h02.24.362,jersey_experiment_5,2023.2.2,Win32,59.88023952,,,,,,,,,,,,,,,,744.8523,746.6518,746.6519,747.7514,return,0.6004,,50.26041667,,,,,,FBP-OG-17.png,0.37,1.2,2,1,,,,,,,,,,,,,,,,,,0,32,32,1,1,,,,,,,,,,,,,,,,,,,,,,,
,,,,,WIN24_001,19,Female,2024-01-23_16h02.24.362,jersey_experiment_5,2023.2.2,Win32,59.88023952,,,,,,,,,,,,,,,,747.7516,749.0457,749.0457,749.7005,return,0.0836,,67.44791667,,,,,,FBP-YG-17.png,0.4,1.2,33,0.5,,,,,,,,,,,,,,,,,,0,33,33,32,1,,,,,,,,,,,,,,,,,,,,,,,
,,,,,WIN24_001,19,Female,2024-01-23_16h02.24.362,jersey_experiment_5,2023.2.2,Win32,59.88023952,,,,,,,,,,,,,,,,749.7006,751.4949,751.4949,752.2447,return,0.0606,,58.59375,,,,,,FBP-OG-19.png,0.37,1.2,12,1,,,,,,,,,,,,,,,,,,0,34,34,11,1,,,,,,,,,,,,,,,,,,,,,,,
,,,,,WIN24_001,19,Female,2024-01-23_16h02.24.362,jersey_experiment_5,2023.2.2,Win32,59.88023952,,,,,,,,,,,,,,,,752.2447,754.0324,754.0324,754.5142,return,0.1985,,86.97916667,,,,,,FBP-OG-19.png,0.43,1.2,14,1,,,,,,,,,,,,,,,,,,0,35,35,13,1,,,,,,,,,,,,,,,,,,,,,,,
,,,,,WIN24_001,19,Female,2024-01-23_16h02.24.362,jersey_experiment_5,2023.2.2,Win32,59.88023952,,,,,,,,,,,,,,,,754.5143,756.31,756.31,757.2482,return,0.5001,,80.72916667,,,,,,FBP-PT-71.png,0.43,1.2,49,1,,,,,,,,,,,,,,,,,,0,36,36,48,1,,,,,,,,,,,,,,,,,,,,,,,
,,,,,WIN24_001,19,Female,2024-01-23_16h02.24.362,jersey_experiment_5,2023.2.2,Win32,59.88023952,,,,,,,,,,,,,,,,757.2484,758.5427,758.5427,759.246,return,0.0643,,29.94791667,,,,,,FBP-YG-17.png,0.37,1.2,32,0.5,,,,,,,,,,,,,,,,,,0,37,37,31,1,,,,,,,,,,,,,,,,,,,,,,,
,,,,,WIN24_001,19,Female,2024-01-23_16h02.24.362,jersey_experiment_5,2023.2.2,Win32,59.88023952,,,,,,,,,,,,,,,,759.2463,761.0417,761.0418,761.5134,return,0.1171,,80.72916667,,,,,,FBP-PT-81.png,0.45,1.2,55,1,,,,,,,,,,,,,,,,,,0,38,38,54,1,,,,,,,,,,,,,,,,,,,,,,,
,,,,,WIN24_001,19,Female,2024-01-23_16h02.24.362,jersey_experiment_5,2023.2.2,Win32,59.88023952,,,,,,,,,,,,,,,,761.5136,762.8079,762.808,763.396,return,0.0669,,32.55208333,,,,,,FBP-YG-18.png,0.35,1.2,36,0.5,,,,,,,,,,,,,,,,,,0,39,39,35,1,,,,,,,,,,,,,,,,,,,,,,,
,,,,,WIN24_001,19,Female,2024-01-23_16h02.24.362,jersey_experiment_5,2023.2.2,Win32,59.88023952,,,,,,,,,,,,,,,,763.3962,764.6905,764.6905,765.3785,return,0.1834,,81.90104167,,,,,,FBP-YG-18.png,0.45,1.2,40,0.5,,,,,,,,,,,,,,,,,,0,40,40,39,1,,,,,,,,,,,,,,,,,,,,,,,
,,,,,WIN24_001,19,Female,2024-01-23_16h02.24.362,jersey_experiment_5,2023.2.2,Win32,59.88023952,,,,,,,,,,,,,,,,765.3786,766.6733,766.6734,767.3731,return,0.0689,,58.72395833,,,,,,FBP-RB-81.png,0.35,1.2,21,0.5,,,,,,,,,,,,,,,,,,0,41,41,20,1,,,,,,,,,,,,,,,,,,,,,,,
,,,,,WIN24_001,19,Female,2024-01-23_16h02.24.362,jersey_experiment_5,2023.2.2,Win32,59.88023952,,,,,,,,,,,,,,,,767.3732,768.6607,768.6607,769.239,return,0.0747,,83.46354167,,,,,,FBP-RB-71.png,0.43,1.2,19,0.5,,,,,,,,,,,,,,,,,,0,42,42,18,1,,,,,,,,,,,,,,,,,,,,,,,
,,,,,WIN24_001,19,Female,2024-01-23_16h02.24.362,jersey_experiment_5,2023.2.2,Win32,59.88023952,,,,,,,,,,,,,,,,769.2391,771.0385,771.0385,771.5881,return,0.1611,,58.72395833,,,,,,FBP-PT-71.png,0.37,1.2,47,1,,,,,,,,,,,,,,,,,,0,43,43,46,1,,,,,,,,,,,,,,,,,,,,,,,
,,,,,WIN24_001,19,Female,2024-01-23_16h02.24.362,jersey_experiment_5,2023.2.2,Win32,59.88023952,,,,,,,,,,,,,,,,771.5883,773.3876,773.3877,774.2761,return,0.5507,,87.23958333,,,,,,FBP-OG-19.png,0.45,1.2,15,1,,,,,,,,,,,,,,,,,,0,44,44,14,1,,,,,,,,,,,,,,,,,,,,,,,
,,,,,WIN24_001,19,Female,2024-01-23_16h02.24.362,jersey_experiment_5,2023.2.2,Win32,59.88023952,,,,,,,,,,,,,,,,774.2763,775.5747,775.5747,776.8697,return,0.7091,,39.0625,,,,,,FBP-YG-19.png,0.37,1.2,42,0.5,,,,,,,,,,,,,,,,,,0,45,45,41,1,,,,,,,,,,,,,,,,,,,,,,,
,,,,,WIN24_001,19,Female,2024-01-23_16h02.24.362,jersey_experiment_5,2023.2.2,Win32,59.88023952,,,,,,,,,,,,,,,,776.8699,778.1745,778.1745,779.0242,return,0.2836,,25.78125,,,,,,FBP-RB-71.png,0.35,1.2,16,0.5,,,,,,,,,,,,,,,,,,0,46,46,15,1,,,,,,,,,,,,,,,,,,,,,,,
,,,,,WIN24_001,19,Female,2024-01-23_16h02.24.362,jersey_experiment_5,2023.2.2,Win32,59.88023952,,,,,,,,,,,,,,,,779.0244,780.8184,780.8184,781.3901,return,0.1503,,77.60416667,,,,,,FBP-PT-91.png,0.43,1.2,59,1,,,,,,,,,,,,,,,,,,0,47,47,58,1,,,,,,,,,,,,,,,,,,,,,,,
,,,,,WIN24_001,19,Female,2024-01-23_16h02.24.362,jersey_experiment_5,2023.2.2,Win32,59.88023952,,,,,,,,,,,,,,,,781.3903,782.6846,782.6846,783.401,return,0.039,,33.46354167,,,,,,FBP-RB-91.png,0.35,1.2,26,0.5,,,,,,,,,,,,,,,,,,0,48,48,25,1,,,,,,,,,,,,,,,,,,,,,,,
,,,,,WIN24_001,19,Female,2024-01-23_16h02.24.362,jersey_experiment_5,2023.2.2,Win32,59.88023952,,,,,,,,,,,,,,,,783.4013,785.2039,785.2039,785.6553,return,0.1337,,34.11458333,,,,,,FBP-PT-81.png,0.37,1.2,52,1,,,,,,,,,,,,,,,,,,0,49,49,51,1,,,,,,,,,,,,,,,,,,,,,,,
,,,,,WIN24_001,19,Female,2024-01-23_16h02.24.362,jersey_experiment_5,2023.2.2,Win32,59.88023952,,,,,,,,,,,,,,,,785.6555,787.4496,787.4496,787.8995,return,0.1202,,34.11458333,,,,,,FBP-OG-19.png,0.4,1.2,13,1,,,,,,,,,,,,,,,,,,0,50,50,12,1,,,,,,,,,,,,,,,,,,,,,,,
,,,,,WIN24_001,19,Female,2024-01-23_16h02.24.362,jersey_experiment_5,2023.2.2,Win32,59.88023952,,,,,,,,,,,,,,,,787.8996,789.1991,789.1991,789.7044,return,0.1005,,34.11458333,,,,,,FBP-RB-81.png,0.37,1.2,22,0.5,,,,,,,,,,,,,,,,,,0,51,51,21,1,,,,,,,,,,,,,,,,,,,,,,,
,,,,,WIN24_001,19,Female,2024-01-23_16h02.24.362,jersey_experiment_5,2023.2.2,Win32,59.88023952,,,,,,,,,,,,,,,,789.7044,791.503,791.503,792.2032,return,0.1337,,59.89583333,,,,,,FBP-PT-71.png,0.4,1.2,48,1,,,,,,,,,,,,,,,,,,0,52,52,47,1,,,,,,,,,,,,,,,,,,,,,,,
,,,,,WIN24_001,19,Female,2024-01-23_16h02.24.362,jersey_experiment_5,2023.2.2,Win32,59.88023952,,,,,,,,,,,,,,,,792.2033,793.4976,793.4976,794.1525,return,0.1836,,79.55729167,,,,,,FBP-YG-19.png,0.45,1.2,45,0.5,,,,,,,,,,,,,,,,,,0,53,53,44,1,,,,,,,,,,,,,,,,,,,,,,,
,,,,,WIN24_001,19,Female,2024-01-23_16h02.24.362,jersey_experiment_5,2023.2.2,Win32,59.88023952,,,,,,,,,,,,,,,,794.1526,795.4469,795.4469,796.1635,return,0.0835,,67.96875,,,,,,FBP-YG-19.png,0.4,1.2,43,0.5,,,,,,,,,,,,,,,,,,0,54,54,42,1,,,,,,,,,,,,,,,,,,,,,,,
,,,,,WIN24_001,19,Female,2024-01-23_16h02.24.362,jersey_experiment_5,2023.2.2,Win32,59.88023952,,,,,,,,,,,,,,,,796.1637,797.9629,797.963,798.6625,return,0.0918,,82.421875,,,,,,FBP-PT-81.png,0.4,1.2,53,1,,,,,,,,,,,,,,,,,,0,55,55,52,1,,,,,,,,,,,,,,,,,,,,,,,
,,,,,WIN24_001,19,Female,2024-01-23_16h02.24.362,jersey_experiment_5,2023.2.2,Win32,59.88023952,,,,,,,,,,,,,,,,798.6626,799.9621,799.9621,800.5452,return,0.1334,,73.69791667,,,,,,FBP-RB-71.png,0.4,1.2,18,0.5,,,,,,,,,,,,,,,,,,0,56,56,17,1,,,,,,,,,,,,,,,,,,,,,,,
,,,,,WIN24_001,19,Female,2024-01-23_16h02.24.362,jersey_experiment_5,2023.2.2,Win32,59.88023952,,,,,,,,,,,,,,,,800.5454,801.8332,801.8332,802.4279,return,0.1367,,90.75520833,,,,,,FBP-RB-91.png,0.45,1.2,30,0.5,,,,,,,,,,,,,,,,,,0,57,57,29,1,,,,,,,,,,,,,,,,,,,,,,,
,,,,,WIN24_001,19,Female,2024-01-23_16h02.24.362,jersey_experiment_5,2023.2.2,Win32,59.88023952,,,,,,,,,,,,,,,,802.4281,804.2157,804.2158,804.899,return,0.4166,,33.59375,,,,,,FBP-OG-17.png,0.35,1.2,1,1,,,,,,,,,,,,,,,,,,0,58,58,0,1,,,,,,,,,,,,,,,,,,,,,,,
,,,,,WIN24_001,19,Female,2024-01-23_16h02.24.362,jersey_experiment_5,2023.2.2,Win32,59.88023952,,,,,,,,,,,,,,,,804.8993,806.6932,806.6932,807.2431,return,0.1041,,26.04166667,,,,,,FBP-PT-71.png,0.35,1.2,46,1,,,,,,,,,,,,,,,,,,0,59,59,45,1,,,,,,,,,,,,,,,,,,,,,,,
,,,,,WIN24_001,19,Female,2024-01-23_16h02.24.362,jersey_experiment_5,2023.2.2,Win32,59.88023952,,,,,,,,,,,,,,,,,,,,,,,,,,,,,,,,,,,,,,,,,,,,,,,,,,,,,,,,807.2433,808.9643,return,1.6996,,,,,,,,,,,,,,,,,,,
,,,,,WIN24_001,19,Female,2024-01-23_16h02.24.362,jersey_experiment_5,2023.2.2,Win32,59.88023952,,,,,,,,,,,,,,,,,,,,,,,,,,,,,,,,,,,,,,,,,,,,,,,,,,,,,,,,,,,,,808.9643,818.6614,1,7.9469,return,1.7164,,,,,,,,,,,,
,,,,,WIN24_001,19,Female,2024-01-23_16h02.24.362,jersey_experiment_5,2023.2.2,Win32,59.88023952,,,,,,,,,,,,,,,,,,,,,,,,,,,,,,,,,,,,,,,,,,,,,,,,,,,,,,,,,,,,,,,,,,,,818.6615,860.9595,image comparison,right,35.1053,,,,,,
,,,,,WIN24_001,19,Female,2024-01-23_16h02.24.362,jersey_experiment_5,2023.2.2,Win32,59.88023952,,,,,,,,,,,,,,,,,,,,,,,,,,,,,,,,,,,,,,,,,,,,,,,,,,,,,,,,,,,,,,,,,,,,,,,,,,860.9595,863.7575,return,2.7668,