requirements.started,requirements.stopped,key_resp_3.keys,key_resp_3.rt,key_resp_3.duration,Subject ID,Age,Gender,date,expName,psychopyVersion,OS,frameRate,instructions1.started,instructions1.stopped,key_resp.keys,key_resp.rt,key_resp.duration,example.started,example.stopped,enter_2.keys,enter_2.rt,enter_2.duration,instructions2.started,instructions2.stopped,enter_3.keys,enter_3.rt,enter_3.duration,image.started,image.stopped,slider_2.started,slider_2.stopped,next.keys,next.rt,next.duration,slider.response,trial_block_1.thisRepN,trial_block_1.thisTrialN,trial_block_1.thisN,trial_block_1.thisIndex,trial_block_1.ran,Path,Width,Height,Index,Duration,trial_block_2.thisRepN,trial_block_2.thisTrialN,trial_block_2.thisN,trial_block_2.thisIndex,trial_block_2.ran,rest_break.started,rest_break.stopped,end_break.started,end_break.stopped,key_resp_5.keys,key_resp_5.rt,key_resp_5.duration,trial_block_3.thisRepN,trial_block_3.thisTrialN,trial_block_3.thisN,trial_block_3.thisIndex,trial_block_3.ran,trial_block_4.thisRepN,trial_block_4.thisTrialN,trial_block_4.thisN,trial_block_4.thisIndex,trial_block_4.ran,questions_intro.started,questions_intro.stopped,enter_12.keys,enter_12.rt,enter_12.duration,question2.started,question2.stopped,question_doingbest.response,question_doingbest.rt,enter_15.keys,enter_15.rt,enter_15.duration,pattern.started,pattern.stopped,pattern_2.text,enter_17.keys,enter_17.rt,enter_17.duration,thankyou.started,thankyou.stopped,enter_14.keys,enter_14.rt,enter_14.duration
0.0001,8.9991,return,8.987099999,,FALL23_088,21,Female,2024-01-23_12h47.15.010,jersey_experiment_5,2023.2.2,Win32,59.88023952,,,,,,,,,,,,,,,,,,,,,,,,,,,,,,,,,,,,,,,,,,,,,,,,,,,,,,,,,,,,,,,,,,,,,,,,,,,,,,
,,,,,FALL23_088,21,Female,2024-01-23_12h47.15.010,jersey_experiment_5,2023.2.2,Win32,59.88023952,8.999200001,18.4292,return,9.4227,,,,,,,,,,,,,,,,,,,,,,,,,,,,,,,,,,,,,,,,,,,,,,,,,,,,,,,,,,,,,,,,,,,,,,,,,,
,,,,,FALL23_088,21,Female,2024-01-23_12h47.15.010,jersey_experiment_5,2023.2.2,Win32,59.88023952,,,,,,18.4293,23.3775,return,4.915400001,,,,,,,,,,,,,,,,,,,,,,,,,,,,,,,,,,,,,,,,,,,,,,,,,,,,,,,,,,,,,,,,,,,,,
,,,,,FALL23_088,21,Female,2024-01-23_12h47.15.010,jersey_experiment_5,2023.2.2,Win32,59.88023952,,,,,,,,,,,23.3775,54.6168,return,31.2231,,,,,,,,,,,,,,,,,,,,,,,,,,,,,,,,,,,,,,,,,,,,,,,,,,,,,,,,,,,,,,,,
,,,,,FALL23_088,21,Female,2024-01-23_12h47.15.010,jersey_experiment_5,2023.2.2,Win32,59.88023952,,,,,,,,,,,,,,,,54.6243,55.9213,55.9215,70.6447,return,12.7479,,0.78125,0,0,0,10,1,FBP-OG-91.png,0.35,1.2,11,0.5,,,,,,,,,,,,,,,,,,,,,,,,,,,,,,,,,,,,,,,,,,,,,
,,,,,FALL23_088,21,Female,2024-01-23_12h47.15.010,jersey_experiment_5,2023.2.2,Win32,59.88023952,,,,,,,,,,,,,,,,70.6489,71.944,71.944,74.1601,return,0.5897,,99.86979167,0,1,1,53,1,FBP-PT-18.png,0.43,1.2,54,0.5,,,,,,,,,,,,,,,,,,,,,,,,,,,,,,,,,,,,,,,,,,,,,
,,,,,FALL23_088,21,Female,2024-01-23_12h47.15.010,jersey_experiment_5,2023.2.2,Win32,59.88023952,,,,,,,,,,,,,,,,74.1604,75.9644,75.9644,80.4285,return,2.314599999,,95.57291667,0,2,2,44,1,FBP-YG-91.png,0.45,1.2,45,1,,,,,,,,,,,,,,,,,,,,,,,,,,,,,,,,,,,,,,,,,,,,,
,,,,,FALL23_088,21,Female,2024-01-23_12h47.15.010,jersey_experiment_5,2023.2.2,Win32,59.88023952,,,,,,,,,,,,,,,,80.4288,81.7289,81.729,84.4619,return,0.516900001,,63.54166667,0,3,3,11,1,FBP-OG-91.png,0.37,1.2,12,0.5,,,,,,,,,,,,,,,,,,,,,,,,,,,,,,,,,,,,,,,,,,,,,
,,,,,FALL23_088,21,Female,2024-01-23_12h47.15.010,jersey_experiment_5,2023.2.2,Win32,59.88023952,,,,,,,,,,,,,,,,84.462,85.756,85.7561,88.3606,return,0.517,,73.30729167,0,4,4,47,1,FBP-PT-17.png,0.4,1.2,48,0.5,,,,,,,,,,,,,,,,,,,,,,,,,,,,,,,,,,,,,,,,,,,,,
,,,,,FALL23_088,21,Female,2024-01-23_12h47.15.010,jersey_experiment_5,2023.2.2,Win32,59.88023952,,,,,,,,,,,,,,,,88.3608,90.1547,90.1547,92.0427,return,0.3337,,81.25,0,5,5,43,1,FBP-YG-91.png,0.43,1.2,44,1,,,,,,,,,,,,,,,,,,,,,,,,,,,,,,,,,,,,,,,,,,,,,
,,,,,FALL23_088,21,Female,2024-01-23_12h47.15.010,jersey_experiment_5,2023.2.2,Win32,59.88023952,,,,,,,,,,,,,,,,92.0429,93.342,93.342,97.2076,return,0.85,,43.48958333,0,6,6,5,1,FBP-OG-81.png,0.35,1.2,6,0.5,,,,,,,,,,,,,,,,,,,,,,,,,,,,,,,,,,,,,,,,,,,,,
,,,,,FALL23_088,21,Female,2024-01-23_12h47.15.010,jersey_experiment_5,2023.2.2,Win32,59.88023952,,,,,,,,,,,,,,,,97.2077,99.0069,99.0069,101.0228,return,0.3168,,42.05729167,0,7,7,36,1,FBP-YG-81.png,0.37,1.2,37,1,,,,,,,,,,,,,,,,,,,,,,,,,,,,,,,,,,,,,,,,,,,,,
,,,,,FALL23_088,21,Female,2024-01-23_12h47.15.010,jersey_experiment_5,2023.2.2,Win32,59.88023952,,,,,,,,,,,,,,,,101.023,102.8171,102.8171,105.0384,return,0.3005,,65.625,0,8,8,32,1,FBP-YG-71.png,0.4,1.2,33,1,,,,,,,,,,,,,,,,,,,,,,,,,,,,,,,,,,,,,,,,,,,,,
,,,,,FALL23_088,21,Female,2024-01-23_12h47.15.010,jersey_experiment_5,2023.2.2,Win32,59.88023952,,,,,,,,,,,,,,,,105.0386,106.3326,106.3326,108.8374,return,0.283099999,,31.11979167,0,9,9,45,1,FBP-PT-17.png,0.35,1.2,46,0.5,,,,,,,,,,,,,,,,,,,,,,,,,,,,,,,,,,,,,,,,,,,,,
,,,,,FALL23_088,21,Female,2024-01-23_12h47.15.010,jersey_experiment_5,2023.2.2,Win32,59.88023952,,,,,,,,,,,,,,,,108.8375,110.6362,110.6362,113.8185,return,0.216599999,,59.375,0,10,10,27,1,FBP-RB-19.png,0.4,1.2,28,1,,,,,,,,,,,,,,,,,,,,,,,,,,,,,,,,,,,,,,,,,,,,,
,,,,,FALL23_088,21,Female,2024-01-23_12h47.15.010,jersey_experiment_5,2023.2.2,Win32,59.88023952,,,,,,,,,,,,,,,,113.8186,115.113,115.113,116.7514,return,0.283900001,,99.08854167,0,11,11,9,1,FBP-OG-81.png,0.45,1.2,10,0.5,,,,,,,,,,,,,,,,,,,,,,,,,,,,,,,,,,,,,,,,,,,,,
,,,,,FALL23_088,21,Female,2024-01-23_12h47.15.010,jersey_experiment_5,2023.2.2,Win32,59.88023952,,,,,,,,,,,,,,,,116.7515,118.0455,118.0455,119.5616,return,0.4334,,83.07291667,0,12,12,56,1,FBP-PT-19.png,0.37,1.2,57,0.5,,,,,,,,,,,,,,,,,,,,,,,,,,,,,,,,,,,,,,,,,,,,,
,,,,,FALL23_088,21,Female,2024-01-23_12h47.15.010,jersey_experiment_5,2023.2.2,Win32,59.88023952,,,,,,,,,,,,,,,,119.5617,120.8657,120.8657,122.0941,return,0.175200001,,97.265625,0,13,13,14,1,FBP-OG-91.png,0.45,1.2,15,0.5,,,,,,,,,,,,,,,,,,,,,,,,,,,,,,,,,,,,,,,,,,,,,
,,,,,FALL23_088,21,Female,2024-01-23_12h47.15.010,jersey_experiment_5,2023.2.2,Win32,59.88023952,,,,,,,,,,,,,,,,122.0942,123.8822,123.8822,125.9315,return,0.5335,,59.24479167,0,14,14,15,1,FBP-RB-17.png,0.35,1.2,16,1,,,,,,,,,,,,,,,,,,,,,,,,,,,,,,,,,,,,,,,,,,,,,
,,,,,FALL23_088,21,Female,2024-01-23_12h47.15.010,jersey_experiment_5,2023.2.2,Win32,59.88023952,,,,,,,,,,,,,,,,125.9318,127.2257,127.2257,129.2251,return,0.1335,,77.08333333,0,15,15,2,1,FBP-OG-71.png,0.4,1.2,3,0.5,,,,,,,,,,,,,,,,,,,,,,,,,,,,,,,,,,,,,,,,,,,,,
,,,,,FALL23_088,21,Female,2024-01-23_12h47.15.010,jersey_experiment_5,2023.2.2,Win32,59.88023952,,,,,,,,,,,,,,,,129.2253,130.5246,130.5246,132.274,return,0.439200001,,96.484375,0,16,16,4,1,FBP-OG-71.png,0.45,1.2,5,0.5,,,,,,,,,,,,,,,,,,,,,,,,,,,,,,,,,,,,,,,,,,,,,
,,,,,FALL23_088,21,Female,2024-01-23_12h47.15.010,jersey_experiment_5,2023.2.2,Win32,59.88023952,,,,,,,,,,,,,,,,132.2742,133.5736,133.5737,135.6729,return,0.2167,,96.22395833,0,17,17,59,1,FBP-PT-19.png,0.45,1.2,60,0.5,,,,,,,,,,,,,,,,,,,,,,,,,,,,,,,,,,,,,,,,,,,,,
,,,,,FALL23_088,21,Female,2024-01-23_12h47.15.010,jersey_experiment_5,2023.2.2,Win32,59.88023952,,,,,,,,,,,,,,,,135.673,137.4609,137.4609,138.422,return,0.217,,98.17708333,0,18,18,38,1,FBP-YG-81.png,0.43,1.2,39,1,,,,,,,,,,,,,,,,,,,,,,,,,,,,,,,,,,,,,,,,,,,,,
,,,,,FALL23_088,21,Female,2024-01-23_12h47.15.010,jersey_experiment_5,2023.2.2,Win32,59.88023952,,,,,,,,,,,,,,,,138.4221,140.2106,140.2107,141.7263,return,0.4837,,80.46875,0,19,19,22,1,FBP-RB-18.png,0.4,1.2,23,1,,,,,,,,,,,,,,,,,,,,,,,,,,,,,,,,,,,,,,,,,,,,,
,,,,,FALL23_088,21,Female,2024-01-23_12h47.15.010,jersey_experiment_5,2023.2.2,Win32,59.88023952,,,,,,,,,,,,,,,,141.7265,143.5203,143.5204,146.7912,return,0.1669,,59.63541667,0,20,20,42,1,FBP-YG-91.png,0.4,1.2,43,1,,,,,,,,,,,,,,,,,,,,,,,,,,,,,,,,,,,,,,,,,,,,,
,,,,,FALL23_088,21,Female,2024-01-23_12h47.15.010,jersey_experiment_5,2023.2.2,Win32,59.88023952,,,,,,,,,,,,,,,,146.7914,148.5903,148.5903,150.7732,return,0.2002,,48.95833333,0,21,21,41,1,FBP-YG-91.png,0.37,1.2,42,1,,,,,,,,,,,,,,,,,,,,,,,,,,,,,,,,,,,,,,,,,,,,,
,,,,,FALL23_088,21,Female,2024-01-23_12h47.15.010,jersey_experiment_5,2023.2.2,Win32,59.88023952,,,,,,,,,,,,,,,,150.7734,152.0675,152.0675,153.2004,return,0.1893,,94.921875,0,22,22,8,1,FBP-OG-81.png,0.43,1.2,9,0.5,,,,,,,,,,,,,,,,,,,,,,,,,,,,,,,,,,,,,,,,,,,,,
,,,,,FALL23_088,21,Female,2024-01-23_12h47.15.010,jersey_experiment_5,2023.2.2,Win32,59.88023952,,,,,,,,,,,,,,,,153.2006,154.9885,154.9885,155.9827,return,0.1575,,86.58854167,0,23,23,18,1,FBP-RB-17.png,0.43,1.2,19,1,,,,,,,,,,,,,,,,,,,,,,,,,,,,,,,,,,,,,,,,,,,,,
,,,,,FALL23_088,21,Female,2024-01-23_12h47.15.010,jersey_experiment_5,2023.2.2,Win32,59.88023952,,,,,,,,,,,,,,,,155.9828,157.2823,157.2824,159.7034,return,0.3,,56.51041667,0,24,24,57,1,FBP-PT-19.png,0.4,1.2,58,0.5,,,,,,,,,,,,,,,,,,,,,,,,,,,,,,,,,,,,,,,,,,,,,
,,,,,FALL23_088,21,Female,2024-01-23_12h47.15.010,jersey_experiment_5,2023.2.2,Win32,59.88023952,,,,,,,,,,,,,,,,159.7036,161.4976,161.4977,164.5189,return,0.2002,,22.13541667,0,25,25,21,1,FBP-RB-18.png,0.37,1.2,22,1,,,,,,,,,,,,,,,,,,,,,,,,,,,,,,,,,,,,,,,,,,,,,
,,,,,FALL23_088,21,Female,2024-01-23_12h47.15.010,jersey_experiment_5,2023.2.2,Win32,59.88023952,,,,,,,,,,,,,,,,164.5191,165.8181,165.8181,167.7673,return,0.4335,,33.46354167,0,26,26,12,1,FBP-OG-91.png,0.4,1.2,13,0.5,,,,,,,,,,,,,,,,,,,,,,,,,,,,,,,,,,,,,,,,,,,,,
,,,,,FALL23_088,21,Female,2024-01-23_12h47.15.010,jersey_experiment_5,2023.2.2,Win32,59.88023952,,,,,,,,,,,,,,,,167.7674,169.567,169.567,174.8324,return,1.335,,80.33854167,0,27,27,39,1,FBP-YG-81.png,0.45,1.2,40,1,,,,,,,,,,,,,,,,,,,,,,,,,,,,,,,,,,,,,,,,,,,,,
,,,,,FALL23_088,21,Female,2024-01-23_12h47.15.010,jersey_experiment_5,2023.2.2,Win32,59.88023952,,,,,,,,,,,,,,,,174.8325,176.1262,176.1262,180.2467,return,0.9002,,28.90625,0,28,28,46,1,FBP-PT-17.png,0.37,1.2,47,0.5,,,,,,,,,,,,,,,,,,,,,,,,,,,,,,,,,,,,,,,,,,,,,
,,,,,FALL23_088,21,Female,2024-01-23_12h47.15.010,jersey_experiment_5,2023.2.2,Win32,59.88023952,,,,,,,,,,,,,,,,180.2468,181.541,181.541,182.8908,return,0.1665,,26.171875,0,29,29,0,1,FBP-OG-71.png,0.35,1.2,1,0.5,,,,,,,,,,,,,,,,,,,,,,,,,,,,,,,,,,,,,,,,,,,,,
,,,,,FALL23_088,21,Female,2024-01-23_12h47.15.010,jersey_experiment_5,2023.2.2,Win32,59.88023952,,,,,,,,,,,,,,,,182.891,184.19,184.19,187.361,return,0.433400001,,88.41145833,0,30,30,48,1,FBP-PT-17.png,0.43,1.2,49,0.5,,,,,,,,,,,,,,,,,,,,,,,,,,,,,,,,,,,,,,,,,,,,,
,,,,,FALL23_088,21,Female,2024-01-23_12h47.15.010,jersey_experiment_5,2023.2.2,Win32,59.88023952,,,,,,,,,,,,,,,,187.3611,188.6553,188.6553,190.8713,return,0.2349,,61.97916667,0,31,31,52,1,FBP-PT-18.png,0.4,1.2,53,0.5,,,,,,,,,,,,,,,,,,,,,,,,,,,,,,,,,,,,,,,,,,,,,
,,,,,FALL23_088,21,Female,2024-01-23_12h47.15.010,jersey_experiment_5,2023.2.2,Win32,59.88023952,,,,,,,,,,,,,,,,190.8715,192.1708,192.1708,193.6871,return,0.1503,,91.66666667,0,32,32,54,1,FBP-PT-18.png,0.45,1.2,55,0.5,,,,,,,,,,,,,,,,,,,,,,,,,,,,,,,,,,,,,,,,,,,,,
,,,,,FALL23_088,21,Female,2024-01-23_12h47.15.010,jersey_experiment_5,2023.2.2,Win32,59.88023952,,,,,,,,,,,,,,,,193.6872,194.975,194.975,196.3412,return,0.4165,,91.66666667,0,33,33,49,1,FBP-PT-17.png,0.45,1.2,50,0.5,,,,,,,,,,,,,,,,,,,,,,,,,,,,,,,,,,,,,,,,,,,,,
,,,,,FALL23_088,21,Female,2024-01-23_12h47.15.010,jersey_experiment_5,2023.2.2,Win32,59.88023952,,,,,,,,,,,,,,,,196.3414,197.6357,197.6357,199.1018,return,0.125200001,,88.54166667,0,34,34,58,1,FBP-PT-19.png,0.43,1.2,59,0.5,,,,,,,,,,,,,,,,,,,,,,,,,,,,,,,,,,,,,,,,,,,,,
,,,,,FALL23_088,21,Female,2024-01-23_12h47.15.010,jersey_experiment_5,2023.2.2,Win32,59.88023952,,,,,,,,,,,,,,,,199.102,200.8899,200.8899,202.1729,return,0.1003,,11.71875,0,35,35,16,1,FBP-RB-17.png,0.37,1.2,17,1,,,,,,,,,,,,,,,,,,,,,,,,,,,,,,,,,,,,,,,,,,,,,
,,,,,FALL23_088,21,Female,2024-01-23_12h47.15.010,jersey_experiment_5,2023.2.2,Win32,59.88023952,,,,,,,,,,,,,,,,202.173,203.9723,203.9723,204.9556,return,0.1838,,92.578125,0,36,36,19,1,FBP-RB-17.png,0.45,1.2,20,1,,,,,,,,,,,,,,,,,,,,,,,,,,,,,,,,,,,,,,,,,,,,,
,,,,,FALL23_088,21,Female,2024-01-23_12h47.15.010,jersey_experiment_5,2023.2.2,Win32,59.88023952,,,,,,,,,,,,,,,,204.9558,206.2496,206.2496,208.5374,return,0.100200001,,31.90104167,0,37,37,55,1,FBP-PT-19.png,0.35,1.2,56,0.5,,,,,,,,,,,,,,,,,,,,,,,,,,,,,,,,,,,,,,,,,,,,,
,,,,,FALL23_088,21,Female,2024-01-23_12h47.15.010,jersey_experiment_5,2023.2.2,Win32,59.88023952,,,,,,,,,,,,,,,,208.5376,210.3349,210.3349,213.3526,return,0.1836,,94.921875,0,38,38,24,1,FBP-RB-18.png,0.45,1.2,25,1,,,,,,,,,,,,,,,,,,,,,,,,,,,,,,,,,,,,,,,,,,,,,
,,,,,FALL23_088,21,Female,2024-01-23_12h47.15.010,jersey_experiment_5,2023.2.2,Win32,59.88023952,,,,,,,,,,,,,,,,213.3528,214.6467,214.6467,216.4514,return,0.2019,,89.32291667,0,39,39,7,1,FBP-OG-81.png,0.4,1.2,8,0.5,,,,,,,,,,,,,,,,,,,,,,,,,,,,,,,,,,,,,,,,,,,,,
,,,,,FALL23_088,21,Female,2024-01-23_12h47.15.010,jersey_experiment_5,2023.2.2,Win32,59.88023952,,,,,,,,,,,,,,,,216.4516,218.2509,218.2509,219.9116,return,0.318599999,,4.296875,0,40,40,40,1,FBP-YG-91.png,0.35,1.2,41,1,,,,,,,,,,,,,,,,,,,,,,,,,,,,,,,,,,,,,,,,,,,,,
,,,,,FALL23_088,21,Female,2024-01-23_12h47.15.010,jersey_experiment_5,2023.2.2,Win32,59.88023952,,,,,,,,,,,,,,,,219.9118,221.6997,221.6998,226.093,return,0.1945,,81.90104167,0,41,41,34,1,FBP-YG-71.png,0.45,1.2,35,1,,,,,,,,,,,,,,,,,,,,,,,,,,,,,,,,,,,,,,,,,,,,,
,,,,,FALL23_088,21,Female,2024-01-23_12h47.15.010,jersey_experiment_5,2023.2.2,Win32,59.88023952,,,,,,,,,,,,,,,,226.0933,227.3925,227.3925,230.6581,return,0.1047,,23.30729167,0,42,42,1,1,FBP-OG-71.png,0.37,1.2,2,0.5,,,,,,,,,,,,,,,,,,,,,,,,,,,,,,,,,,,,,,,,,,,,,
,,,,,FALL23_088,21,Female,2024-01-23_12h47.15.010,jersey_experiment_5,2023.2.2,Win32,59.88023952,,,,,,,,,,,,,,,,230.6583,231.9629,231.9629,234.7118,return,1.083400001,,24.609375,0,43,43,51,1,FBP-PT-18.png,0.37,1.2,52,0.5,,,,,,,,,,,,,,,,,,,,,,,,,,,,,,,,,,,,,,,,,,,,,
,,,,,FALL23_088,21,Female,2024-01-23_12h47.15.010,jersey_experiment_5,2023.2.2,Win32,59.88023952,,,,,,,,,,,,,,,,234.712,236.5112,236.5112,239.7883,return,0.2103,,23.17708333,0,44,44,17,1,FBP-RB-17.png,0.4,1.2,18,1,,,,,,,,,,,,,,,,,,,,,,,,,,,,,,,,,,,,,,,,,,,,,
,,,,,FALL23_088,21,Female,2024-01-23_12h47.15.010,jersey_experiment_5,2023.2.2,Win32,59.88023952,,,,,,,,,,,,,,,,239.7886,241.593,241.593,242.7593,return,0.1835,,81.11979167,0,45,45,29,1,FBP-RB-19.png,0.45,1.2,30,1,,,,,,,,,,,,,,,,,,,,,,,,,,,,,,,,,,,,,,,,,,,,,
,,,,,FALL23_088,21,Female,2024-01-23_12h47.15.010,jersey_experiment_5,2023.2.2,Win32,59.88023952,,,,,,,,,,,,,,,,242.7594,244.5536,244.5536,245.753,return,0.316900001,,83.46354167,0,46,46,23,1,FBP-RB-18.png,0.43,1.2,24,1,,,,,,,,,,,,,,,,,,,,,,,,,,,,,,,,,,,,,,,,,,,,,
,,,,,FALL23_088,21,Female,2024-01-23_12h47.15.010,jersey_experiment_5,2023.2.2,Win32,59.88023952,,,,,,,,,,,,,,,,245.7533,247.5524,247.5524,251.4511,return,0.194900001,,23.56770833,0,47,47,26,1,FBP-RB-19.png,0.37,1.2,27,1,,,,,,,,,,,,,,,,,,,,,,,,,,,,,,,,,,,,,,,,,,,,,
,,,,,FALL23_088,21,Female,2024-01-23_12h47.15.010,jersey_experiment_5,2023.2.2,Win32,59.88023952,,,,,,,,,,,,,,,,251.4513,253.2391,253.2391,256.5047,return,0.0836,,73.4375,0,48,48,28,1,FBP-RB-19.png,0.43,1.2,29,1,,,,,,,,,,,,,,,,,,,,,,,,,,,,,,,,,,,,,,,,,,,,,
,,,,,FALL23_088,21,Female,2024-01-23_12h47.15.010,jersey_experiment_5,2023.2.2,Win32,59.88023952,,,,,,,,,,,,,,,,256.505,258.2989,258.2989,261.2812,return,0.156900001,,23.69791667,0,49,49,35,1,FBP-YG-81.png,0.35,1.2,36,1,,,,,,,,,,,,,,,,,,,,,,,,,,,,,,,,,,,,,,,,,,,,,
,,,,,FALL23_088,21,Female,2024-01-23_12h47.15.010,jersey_experiment_5,2023.2.2,Win32,59.88023952,,,,,,,,,,,,,,,,261.2815,262.5843,262.5843,264.247,return,0.166400001,,84.11458333,0,50,50,3,1,FBP-OG-71.png,0.43,1.2,4,0.5,,,,,,,,,,,,,,,,,,,,,,,,,,,,,,,,,,,,,,,,,,,,,
,,,,,FALL23_088,21,Female,2024-01-23_12h47.15.010,jersey_experiment_5,2023.2.2,Win32,59.88023952,,,,,,,,,,,,,,,,264.2471,266.0462,266.0462,268.3008,return,0.5682,,32.03125,0,51,51,30,1,FBP-YG-71.png,0.35,1.2,31,1,,,,,,,,,,,,,,,,,,,,,,,,,,,,,,,,,,,,,,,,,,,,,
,,,,,FALL23_088,21,Female,2024-01-23_12h47.15.010,jersey_experiment_5,2023.2.2,Win32,59.88023952,,,,,,,,,,,,,,,,268.3009,269.595,269.5951,272.5328,return,0.1835,,42.96875,0,52,52,6,1,FBP-OG-81.png,0.37,1.2,7,0.5,,,,,,,,,,,,,,,,,,,,,,,,,,,,,,,,,,,,,,,,,,,,,
,,,,,FALL23_088,21,Female,2024-01-23_12h47.15.010,jersey_experiment_5,2023.2.2,Win32,59.88023952,,,,,,,,,,,,,,,,272.533,274.3321,274.3321,275.3931,return,0.521900001,,43.09895833,0,53,53,20,1,FBP-RB-18.png,0.35,1.2,21,1,,,,,,,,,,,,,,,,,,,,,,,,,,,,,,,,,,,,,,,,,,,,,
,,,,,FALL23_088,21,Female,2024-01-23_12h47.15.010,jersey_experiment_5,2023.2.2,Win32,59.88023952,,,,,,,,,,,,,,,,275.3934,277.1926,277.1926,278.4626,return,0.099,,47.52604167,0,54,54,25,1,FBP-RB-19.png,0.35,1.2,26,1,,,,,,,,,,,,,,,,,,,,,,,,,,,,,,,,,,,,,,,,,,,,,
,,,,,FALL23_088,21,Female,2024-01-23_12h47.15.010,jersey_experiment_5,2023.2.2,Win32,59.88023952,,,,,,,,,,,,,,,,278.4628,280.2581,280.2582,282.1963,return,0.1671,,63.02083333,0,55,55,31,1,FBP-YG-71.png,0.37,1.2,32,1,,,,,,,,,,,,,,,,,,,,,,,,,,,,,,,,,,,,,,,,,,,,,
,,,,,FALL23_088,21,Female,2024-01-23_12h47.15.010,jersey_experiment_5,2023.2.2,Win32,59.88023952,,,,,,,,,,,,,,,,282.1964,283.9957,283.9957,285.1788,return,0.1834,,91.14583333,0,56,56,33,1,FBP-YG-71.png,0.43,1.2,34,1,,,,,,,,,,,,,,,,,,,,,,,,,,,,,,,,,,,,,,,,,,,,,
,,,,,FALL23_088,21,Female,2024-01-23_12h47.15.010,jersey_experiment_5,2023.2.2,Win32,59.88023952,,,,,,,,,,,,,,,,285.179,286.9727,286.9727,288.0223,return,0.1024,,89.97395833,0,57,57,37,1,FBP-YG-81.png,0.4,1.2,38,1,,,,,,,,,,,,,,,,,,,,,,,,,,,,,,,,,,,,,,,,,,,,,
,,,,,FALL23_088,21,Female,2024-01-23_12h47.15.010,jersey_experiment_5,2023.2.2,Win32,59.88023952,,,,,,,,,,,,,,,,288.0224,289.3103,289.3104,290.8269,return,0.0506,,41.14583333,0,58,58,50,1,FBP-PT-18.png,0.35,1.2,51,0.5,,,,,,,,,,,,,,,,,,,,,,,,,,,,,,,,,,,,,,,,,,,,,
,,,,,FALL23_088,21,Female,2024-01-23_12h47.15.010,jersey_experiment_5,2023.2.2,Win32,59.88023952,,,,,,,,,,,,,,,,290.8271,292.1211,292.1211,293.8257,return,0.2004,,81.640625,0,59,59,13,1,FBP-OG-91.png,0.43,1.2,14,0.5,,,,,,,,,,,,,,,,,,,,,,,,,,,,,,,,,,,,,,,,,,,,,
,,,,,FALL23_088,21,Female,2024-01-23_12h47.15.010,jersey_experiment_5,2023.2.2,Win32,59.88023952,,,,,,,,,,,,,,,,293.8281,295.6253,295.6253,296.7581,return,0.083599999,,69.40104167,,,,,,FBP-RB-91.png,0.37,1.2,27,1,0,0,0,26,1,,,,,,,,,,,,,,,,,,,,,,,,,,,,,,,,,,,,,,,,
,,,,,FALL23_088,21,Female,2024-01-23_12h47.15.010,jersey_experiment_5,2023.2.2,Win32,59.88023952,,,,,,,,,,,,,,,,296.7585,298.5576,298.5576,299.5906,return,0.2001,,88.93229167,,,,,,FBP-YG-18.png,0.43,1.2,39,1,0,1,1,38,1,,,,,,,,,,,,,,,,,,,,,,,,,,,,,,,,,,,,,,,,
,,,,,FALL23_088,21,Female,2024-01-23_12h47.15.010,jersey_experiment_5,2023.2.2,Win32,59.88023952,,,,,,,,,,,,,,,,299.5908,300.8883,300.8883,303.956,return,0.2835,,44.53125,,,,,,FBP-PT-91.png,0.35,1.2,56,0.5,0,2,2,55,1,,,,,,,,,,,,,,,,,,,,,,,,,,,,,,,,,,,,,,,,
,,,,,FALL23_088,21,Female,2024-01-23_12h47.15.010,jersey_experiment_5,2023.2.2,Win32,59.88023952,,,,,,,,,,,,,,,,303.9561,305.7548,305.7549,307.0382,return,0.1007,,56.51041667,,,,,,FBP-YG-19.png,0.37,1.2,42,1,0,3,3,41,1,,,,,,,,,,,,,,,,,,,,,,,,,,,,,,,,,,,,,,,,
,,,,,FALL23_088,21,Female,2024-01-23_12h47.15.010,jersey_experiment_5,2023.2.2,Win32,59.88023952,,,,,,,,,,,,,,,,307.0383,308.3372,308.3373,309.8039,return,0.0836,,61.58854167,,,,,,FBP-PT-81.png,0.4,1.2,53,0.5,0,4,4,52,1,,,,,,,,,,,,,,,,,,,,,,,,,,,,,,,,,,,,,,,,
,,,,,FALL23_088,21,Female,2024-01-23_12h47.15.010,jersey_experiment_5,2023.2.2,Win32,59.88023952,,,,,,,,,,,,,,,,309.8041,311.1031,311.1031,312.081,return,0.072299999,,63.02083333,,,,,,FBP-PT-81.png,0.43,1.2,54,0.5,0,5,5,53,1,,,,,,,,,,,,,,,,,,,,,,,,,,,,,,,,,,,,,,,,
,,,,,FALL23_088,21,Female,2024-01-23_12h47.15.010,jersey_experiment_5,2023.2.2,Win32,59.88023952,,,,,,,,,,,,,,,,312.0812,313.3806,313.3807,314.5469,return,0.4039,,63.02083333,,,,,,FBP-PT-71.png,0.43,1.2,49,0.5,0,6,6,48,1,,,,,,,,,,,,,,,,,,,,,,,,,,,,,,,,,,,,,,,,
,,,,,FALL23_088,21,Female,2024-01-23_12h47.15.010,jersey_experiment_5,2023.2.2,Win32,59.88023952,,,,,,,,,,,,,,,,314.5471,316.3464,316.3464,318.2456,return,0.185,,64.71354167,,,,,,FBP-YG-17.png,0.35,1.2,31,1,0,7,7,30,1,,,,,,,,,,,,,,,,,,,,,,,,,,,,,,,,,,,,,,,,
,,,,,FALL23_088,21,Female,2024-01-23_12h47.15.010,jersey_experiment_5,2023.2.2,Win32,59.88023952,,,,,,,,,,,,,,,,318.2458,320.0336,320.0336,321.4279,return,0.1375,,81.51041667,,,,,,FBP-YG-17.png,0.43,1.2,34,1,0,8,8,33,1,,,,,,,,,,,,,,,,,,,,,,,,,,,,,,,,,,,,,,,,
,,,,,FALL23_088,21,Female,2024-01-23_12h47.15.010,jersey_experiment_5,2023.2.2,Win32,59.88023952,,,,,,,,,,,,,,,,321.4281,323.2158,323.2158,323.927,return,0.1002,,91.66666667,,,,,,FBP-YG-17.png,0.4,1.2,33,1,0,9,9,32,1,,,,,,,,,,,,,,,,,,,,,,,,,,,,,,,,,,,,,,,,
,,,,,FALL23_088,21,Female,2024-01-23_12h47.15.010,jersey_experiment_5,2023.2.2,Win32,59.88023952,,,,,,,,,,,,,,,,323.9272,325.7315,325.7315,326.3096,return,0.0353,,86.97916667,,,,,,FBP-YG-18.png,0.37,1.2,37,1,0,10,10,36,1,,,,,,,,,,,,,,,,,,,,,,,,,,,,,,,,,,,,,,,,
,,,,,FALL23_088,21,Female,2024-01-23_12h47.15.010,jersey_experiment_5,2023.2.2,Win32,59.88023952,,,,,,,,,,,,,,,,326.3099,327.6144,327.6144,330.6582,return,0.9541,,72.65625,,,,,,FBP-OG-17.png,0.35,1.2,1,0.5,0,11,11,0,1,,,,,,,,,,,,,,,,,,,,,,,,,,,,,,,,,,,,,,,,
,,,,,FALL23_088,21,Female,2024-01-23_12h47.15.010,jersey_experiment_5,2023.2.2,Win32,59.88023952,,,,,,,,,,,,,,,,330.6584,332.4627,332.4627,333.7459,return,0.300200001,,73.95833333,,,,,,FBP-YG-19.png,0.4,1.2,43,1,0,12,12,42,1,,,,,,,,,,,,,,,,,,,,,,,,,,,,,,,,,,,,,,,,
,,,,,FALL23_088,21,Female,2024-01-23_12h47.15.010,jersey_experiment_5,2023.2.2,Win32,59.88023952,,,,,,,,,,,,,,,,333.7461,335.0452,335.0452,336.1451,return,0.1505,,95.05208333,,,,,,FBP-PT-71.png,0.45,1.2,50,0.5,0,13,13,49,1,,,,,,,,,,,,,,,,,,,,,,,,,,,,,,,,,,,,,,,,
,,,,,FALL23_088,21,Female,2024-01-23_12h47.15.010,jersey_experiment_5,2023.2.2,Win32,59.88023952,,,,,,,,,,,,,,,,336.1453,337.4444,337.4444,339.0775,return,0.3005,,38.54166667,,,,,,FBP-PT-71.png,0.35,1.2,46,0.5,0,14,14,45,1,,,,,,,,,,,,,,,,,,,,,,,,,,,,,,,,,,,,,,,,
,,,,,FALL23_088,21,Female,2024-01-23_12h47.15.010,jersey_experiment_5,2023.2.2,Win32,59.88023952,,,,,,,,,,,,,,,,339.0776,340.3769,340.3769,342.4763,return,0.0005,,70.3125,,,,,,FBP-PT-81.png,0.45,1.2,55,0.5,0,15,15,54,1,,,,,,,,,,,,,,,,,,,,,,,,,,,,,,,,,,,,,,,,
,,,,,FALL23_088,21,Female,2024-01-23_12h47.15.010,jersey_experiment_5,2023.2.2,Win32,59.88023952,,,,,,,,,,,,,,,,342.4765,344.2758,344.2759,345.392,return,0.1684,,73.828125,,,,,,FBP-RB-81.png,0.43,1.2,24,1,0,16,16,23,1,,,,,,,,,,,,,,,,,,,,,,,,,,,,,,,,,,,,,,,,
,,,,,FALL23_088,21,Female,2024-01-23_12h47.15.010,jersey_experiment_5,2023.2.2,Win32,59.88023952,,,,,,,,,,,,,,,,345.3921,346.6914,346.6914,348.0857,return,0.1012,,45.96354167,,,,,,FBP-PT-91.png,0.37,1.2,57,0.5,0,17,17,56,1,,,,,,,,,,,,,,,,,,,,,,,,,,,,,,,,,,,,,,,,
,,,,,FALL23_088,21,Female,2024-01-23_12h47.15.010,jersey_experiment_5,2023.2.2,Win32,59.88023952,,,,,,,,,,,,,,,,348.0859,349.3854,349.3854,351.4733,return,0.066599999,,42.578125,,,,,,FBP-OG-17.png,0.37,1.2,2,0.5,0,18,18,1,1,,,,,,,,,,,,,,,,,,,,,,,,,,,,,,,,,,,,,,,,
,,,,,FALL23_088,21,Female,2024-01-23_12h47.15.010,jersey_experiment_5,2023.2.2,Win32,59.88023952,,,,,,,,,,,,,,,,351.4734,353.2728,353.2728,354.3556,return,0.0835,,73.69791667,,,,,,FBP-YG-19.png,0.43,1.2,44,1,0,19,19,43,1,,,,,,,,,,,,,,,,,,,,,,,,,,,,,,,,,,,,,,,,
,,,,,FALL23_088,21,Female,2024-01-23_12h47.15.010,jersey_experiment_5,2023.2.2,Win32,59.88023952,,,,,,,,,,,,,,,,354.3558,356.1535,356.1535,357.8878,return,0.2999,,33.72395833,,,,,,FBP-YG-19.png,0.35,1.2,41,1,0,20,20,40,1,,,,,,,,,,,,,,,,,,,,,,,,,,,,,,,,,,,,,,,,
,,,,,FALL23_088,21,Female,2024-01-23_12h47.15.010,jersey_experiment_5,2023.2.2,Win32,59.88023952,,,,,,,,,,,,,,,,357.888,359.1869,359.1869,365.0634,return,1.4997,,36.06770833,,,,,,FBP-OG-18.png,0.4,1.2,8,0.5,0,21,21,7,1,,,,,,,,,,,,,,,,,,,,,,,,,,,,,,,,,,,,,,,,
,,,,,FALL23_088,21,Female,2024-01-23_12h47.15.010,jersey_experiment_5,2023.2.2,Win32,59.88023952,,,,,,,,,,,,,,,,365.0637,366.3516,366.3517,367.8327,return,0.1819,,39.0625,,,,,,FBP-PT-91.png,0.4,1.2,58,0.5,0,22,22,57,1,,,,,,,,,,,,,,,,,,,,,,,,,,,,,,,,,,,,,,,,
,,,,,FALL23_088,21,Female,2024-01-23_12h47.15.010,jersey_experiment_5,2023.2.2,Win32,59.88023952,,,,,,,,,,,,,,,,367.8329,369.6286,369.6286,372.1778,return,0.954599999,,96.74479167,,,,,,FBP-YG-17.png,0.45,1.2,35,1,0,23,23,34,1,,,,,,,,,,,,,,,,,,,,,,,,,,,,,,,,,,,,,,,,
,,,,,FALL23_088,21,Female,2024-01-23_12h47.15.010,jersey_experiment_5,2023.2.2,Win32,59.88023952,,,,,,,,,,,,,,,,372.178,373.4831,373.4832,374.9821,return,0.5182,,96.09375,,,,,,FBP-OG-17.png,0.45,1.2,5,0.5,0,24,24,4,1,,,,,,,,,,,,,,,,,,,,,,,,,,,,,,,,,,,,,,,,
,,,,,FALL23_088,21,Female,2024-01-23_12h47.15.010,jersey_experiment_5,2023.2.2,Win32,59.88023952,,,,,,,,,,,,,,,,374.9822,376.2817,376.2817,377.348,return,0.117099999,,95.96354167,,,,,,FBP-OG-19.png,0.45,1.2,15,0.5,0,25,25,14,1,,,,,,,,,,,,,,,,,,,,,,,,,,,,,,,,,,,,,,,,
,,,,,FALL23_088,21,Female,2024-01-23_12h47.15.010,jersey_experiment_5,2023.2.2,Win32,59.88023952,,,,,,,,,,,,,,,,377.3482,379.1473,379.1473,383.3406,return,0.1267,,22.52604167,,,,,,FBP-RB-71.png,0.35,1.2,16,1,0,26,26,15,1,,,,,,,,,,,,,,,,,,,,,,,,,,,,,,,,,,,,,,,,
,,,,,FALL23_088,21,Female,2024-01-23_12h47.15.010,jersey_experiment_5,2023.2.2,Win32,59.88023952,,,,,,,,,,,,,,,,383.3407,384.6454,384.6454,386.6451,return,0.1837,,77.99479167,,,,,,FBP-OG-18.png,0.43,1.2,9,0.5,0,27,27,8,1,,,,,,,,,,,,,,,,,,,,,,,,,,,,,,,,,,,,,,,,
,,,,,FALL23_088,21,Female,2024-01-23_12h47.15.010,jersey_experiment_5,2023.2.2,Win32,59.88023952,,,,,,,,,,,,,,,,386.6452,388.4391,388.4391,390.4551,return,0.1164,,31.77083333,,,,,,FBP-RB-71.png,0.37,1.2,17,1,0,28,28,16,1,,,,,,,,,,,,,,,,,,,,,,,,,,,,,,,,,,,,,,,,
,,,,,FALL23_088,21,Female,2024-01-23_12h47.15.010,jersey_experiment_5,2023.2.2,Win32,59.88023952,,,,,,,,,,,,,,,,390.4554,391.7546,391.7547,395.7754,return,0.0683,,79.55729167,,,,,,FBP-OG-17.png,0.43,1.2,4,0.5,0,29,29,3,1,,,,,,,,,,,,,,,,,,,,,,,,,,,,,,,,,,,,,,,,
,,,,,FALL23_088,21,Female,2024-01-23_12h47.15.010,jersey_experiment_5,2023.2.2,Win32,59.88023952,,,,,,,,,,,,,,,,395.7757,397.0698,397.0699,406.1498,return,0.667099999,,69.66145833,,,,,,FBP-PT-71.png,0.4,1.2,48,0.5,0,30,30,47,1,,,,,,,,,,,,,,,,,,,,,,,,,,,,,,,,,,,,,,,,
,,,,,FALL23_088,21,Female,2024-01-23_12h47.15.010,jersey_experiment_5,2023.2.2,Win32,59.88023952,,,,,,,,,,,,,,,,406.15,407.4376,407.4376,409.8206,return,1.266599999,,30.72916667,,,,,,FBP-OG-18.png,0.35,1.2,6,0.5,0,31,31,5,1,,,,,,,,,,,,,,,,,,,,,,,,,,,,,,,,,,,,,,,,
,,,,,FALL23_088,21,Female,2024-01-23_12h47.15.010,jersey_experiment_5,2023.2.2,Win32,59.88023952,,,,,,,,,,,,,,,,409.8208,411.1148,411.1149,416.0501,return,1.564799999,,41.796875,,,,,,FBP-OG-19.png,0.35,1.2,11,0.5,0,32,32,10,1,,,,,,,,,,,,,,,,,,,,,,,,,,,,,,,,,,,,,,,,
,,,,,FALL23_088,21,Female,2024-01-23_12h47.15.010,jersey_experiment_5,2023.2.2,Win32,59.88023952,,,,,,,,,,,,,,,,416.0502,417.8496,417.8496,419.1123,return,0.100400001,,92.83854167,,,,,,FBP-RB-71.png,0.45,1.2,20,1,0,33,33,19,1,,,,,,,,,,,,,,,,,,,,,,,,,,,,,,,,,,,,,,,,
,,,,,FALL23_088,21,Female,2024-01-23_12h47.15.010,jersey_experiment_5,2023.2.2,Win32,59.88023952,,,,,,,,,,,,,,,,419.1125,420.4172,420.4172,421.8114,return,0.0035,,26.43229167,,,,,,FBP-OG-19.png,0.37,1.2,12,0.5,0,34,34,11,1,,,,,,,,,,,,,,,,,,,,,,,,,,,,,,,,,,,,,,,,
,,,,,FALL23_088,21,Female,2024-01-23_12h47.15.010,jersey_experiment_5,2023.2.2,Win32,59.88023952,,,,,,,,,,,,,,,,421.8115,423.6162,423.6162,424.699,return,0.1837,,93.09895833,,,,,,FBP-YG-19.png,0.45,1.2,45,1,0,35,35,44,1,,,,,,,,,,,,,,,,,,,,,,,,,,,,,,,,,,,,,,,,
,,,,,FALL23_088,21,Female,2024-01-23_12h47.15.010,jersey_experiment_5,2023.2.2,Win32,59.88023952,,,,,,,,,,,,,,,,424.6993,425.9936,425.9936,429.2128,return,1.899799999,,60.67708333,,,,,,FBP-OG-19.png,0.4,1.2,13,0.5,0,36,36,12,1,,,,,,,,,,,,,,,,,,,,,,,,,,,,,,,,,,,,,,,,
,,,,,FALL23_088,21,Female,2024-01-23_12h47.15.010,jersey_experiment_5,2023.2.2,Win32,59.88023952,,,,,,,,,,,,,,,,429.2129,431.0087,431.0087,433.0409,return,0.2725,,65.625,,,,,,FBP-RB-71.png,0.4,1.2,18,1,0,37,37,17,1,,,,,,,,,,,,,,,,,,,,,,,,,,,,,,,,,,,,,,,,
,,,,,FALL23_088,21,Female,2024-01-23_12h47.15.010,jersey_experiment_5,2023.2.2,Win32,59.88023952,,,,,,,,,,,,,,,,433.041,434.8404,434.8404,435.512,return,0.183400001,,65.625,,,,,,FBP-RB-81.png,0.4,1.2,23,1,0,38,38,22,1,,,,,,,,,,,,,,,,,,,,,,,,,,,,,,,,,,,,,,,,
,,,,,FALL23_088,21,Female,2024-01-23_12h47.15.010,jersey_experiment_5,2023.2.2,Win32,59.88023952,,,,,,,,,,,,,,,,435.5122,437.3116,437.3116,438.2943,return,0.150200001,,78.64583333,,,,,,FBP-RB-91.png,0.45,1.2,30,1,0,39,39,29,1,,,,,,,,,,,,,,,,,,,,,,,,,,,,,,,,,,,,,,,,
,,,,,FALL23_088,21,Female,2024-01-23_12h47.15.010,jersey_experiment_5,2023.2.2,Win32,59.88023952,,,,,,,,,,,,,,,,438.2945,440.0938,440.0938,441.1102,return,0.383,,55.078125,,,,,,FBP-YG-17.png,0.37,1.2,32,1,0,40,40,31,1,,,,,,,,,,,,,,,,,,,,,,,,,,,,,,,,,,,,,,,,
,,,,,FALL23_088,21,Female,2024-01-23_12h47.15.010,jersey_experiment_5,2023.2.2,Win32,59.88023952,,,,,,,,,,,,,,,,441.1104,442.9044,442.9044,450.935,return,6.964400001,,64.0625,,,,,,FBP-RB-91.png,0.43,1.2,29,1,0,41,41,28,1,,,,,,,,,,,,,,,,,,,,,,,,,,,,,,,,,,,,,,,,
,,,,,FALL23_088,21,Female,2024-01-23_12h47.15.010,jersey_experiment_5,2023.2.2,Win32,59.88023952,,,,,,,,,,,,,,,,450.9407,452.7394,452.7394,454.5729,return,0.133900001,,38.28125,,,,,,FBP-YG-18.png,0.35,1.2,36,1,0,42,42,35,1,,,,,,,,,,,,,,,,,,,,,,,,,,,,,,,,,,,,,,,,
,,,,,FALL23_088,21,Female,2024-01-23_12h47.15.010,jersey_experiment_5,2023.2.2,Win32,59.88023952,,,,,,,,,,,,,,,,454.5729,455.872,455.8721,456.9882,return,0.151799999,,71.74479167,,,,,,FBP-OG-17.png,0.4,1.2,3,0.5,0,43,43,2,1,,,,,,,,,,,,,,,,,,,,,,,,,,,,,,,,,,,,,,,,
,,,,,FALL23_088,21,Female,2024-01-23_12h47.15.010,jersey_experiment_5,2023.2.2,Win32,59.88023952,,,,,,,,,,,,,,,,456.9884,458.2877,458.2877,459.3207,return,0.1834,,95.05208333,,,,,,FBP-PT-91.png,0.45,1.2,60,0.5,0,44,44,59,1,,,,,,,,,,,,,,,,,,,,,,,,,,,,,,,,,,,,,,,,
,,,,,FALL23_088,21,Female,2024-01-23_12h47.15.010,jersey_experiment_5,2023.2.2,Win32,59.88023952,,,,,,,,,,,,,,,,459.3208,461.1203,461.1203,462.2031,return,0.2496,,87.76041667,,,,,,FBP-RB-91.png,0.4,1.2,28,1,0,45,45,27,1,,,,,,,,,,,,,,,,,,,,,,,,,,,,,,,,,,,,,,,,
,,,,,FALL23_088,21,Female,2024-01-23_12h47.15.010,jersey_experiment_5,2023.2.2,Win32,59.88023952,,,,,,,,,,,,,,,,462.2033,463.4976,463.4976,465.9187,return,0.2517,,67.70833333,,,,,,FBP-PT-81.png,0.37,1.2,52,0.5,0,46,46,51,1,,,,,,,,,,,,,,,,,,,,,,,,,,,,,,,,,,,,,,,,
,,,,,FALL23_088,21,Female,2024-01-23_12h47.15.010,jersey_experiment_5,2023.2.2,Win32,59.88023952,,,,,,,,,,,,,,,,465.9188,467.7182,467.7182,469.3289,return,0.3061,,88.15104167,,,,,,FBP-RB-81.png,0.45,1.2,25,1,0,47,47,24,1,,,,,,,,,,,,,,,,,,,,,,,,,,,,,,,,,,,,,,,,
,,,,,FALL23_088,21,Female,2024-01-23_12h47.15.010,jersey_experiment_5,2023.2.2,Win32,59.88023952,,,,,,,,,,,,,,,,469.3291,470.6286,470.6286,477.1818,return,3.3492,,49.34895833,,,,,,FBP-OG-18.png,0.37,1.2,7,0.5,0,48,48,6,1,,,,,,,,,,,,,,,,,,,,,,,,,,,,,,,,,,,,,,,,
,,,,,FALL23_088,21,Female,2024-01-23_12h47.15.010,jersey_experiment_5,2023.2.2,Win32,59.88023952,,,,,,,,,,,,,,,,477.1821,478.4811,478.4811,480.292,return,0.5863,,31.25,,,,,,FBP-PT-81.png,0.35,1.2,51,0.5,0,49,49,50,1,,,,,,,,,,,,,,,,,,,,,,,,,,,,,,,,,,,,,,,,
,,,,,FALL23_088,21,Female,2024-01-23_12h47.15.010,jersey_experiment_5,2023.2.2,Win32,59.88023952,,,,,,,,,,,,,,,,480.2922,481.58,481.58,483.2076,return,0.1503,,37.5,,,,,,FBP-PT-71.png,0.37,1.2,47,0.5,0,50,50,46,1,,,,,,,,,,,,,,,,,,,,,,,,,,,,,,,,,,,,,,,,
,,,,,FALL23_088,21,Female,2024-01-23_12h47.15.010,jersey_experiment_5,2023.2.2,Win32,59.88023952,,,,,,,,,,,,,,,,483.208,485.0071,485.0071,485.5288,return,0.1501,,37.36979167,,,,,,FBP-RB-81.png,0.35,1.2,21,1,0,51,51,20,1,,,,,,,,,,,,,,,,,,,,,,,,,,,,,,,,,,,,,,,,
,,,,,FALL23_088,21,Female,2024-01-23_12h47.15.010,jersey_experiment_5,2023.2.2,Win32,59.88023952,,,,,,,,,,,,,,,,485.5289,487.323,487.323,487.8227,return,0.092799999,,37.36979167,,,,,,FBP-RB-81.png,0.37,1.2,22,1,0,52,52,21,1,,,,,,,,,,,,,,,,,,,,,,,,,,,,,,,,,,,,,,,,
,,,,,FALL23_088,21,Female,2024-01-23_12h47.15.010,jersey_experiment_5,2023.2.2,Win32,59.88023952,,,,,,,,,,,,,,,,487.8229,489.6109,489.6109,491.2101,return,0.017,,71.22395833,,,,,,FBP-YG-18.png,0.45,1.2,40,1,0,53,53,39,1,,,,,,,,,,,,,,,,,,,,,,,,,,,,,,,,,,,,,,,,
,,,,,FALL23_088,21,Female,2024-01-23_12h47.15.010,jersey_experiment_5,2023.2.2,Win32,59.88023952,,,,,,,,,,,,,,,,491.2103,492.5049,492.5049,493.3929,return,0.1017,,71.61458333,,,,,,FBP-OG-19.png,0.43,1.2,14,0.5,0,54,54,13,1,,,,,,,,,,,,,,,,,,,,,,,,,,,,,,,,,,,,,,,,
,,,,,FALL23_088,21,Female,2024-01-23_12h47.15.010,jersey_experiment_5,2023.2.2,Win32,59.88023952,,,,,,,,,,,,,,,,493.393,495.187,495.187,496.2921,return,0.2165,,37.5,,,,,,FBP-RB-91.png,0.35,1.2,26,1,0,55,55,25,1,,,,,,,,,,,,,,,,,,,,,,,,,,,,,,,,,,,,,,,,
,,,,,FALL23_088,21,Female,2024-01-23_12h47.15.010,jersey_experiment_5,2023.2.2,Win32,59.88023952,,,,,,,,,,,,,,,,496.2922,497.5912,497.5912,498.9911,return,0.067,,68.22916667,,,,,,FBP-PT-91.png,0.43,1.2,59,0.5,0,56,56,58,1,,,,,,,,,,,,,,,,,,,,,,,,,,,,,,,,,,,,,,,,
,,,,,FALL23_088,21,Female,2024-01-23_12h47.15.010,jersey_experiment_5,2023.2.2,Win32,59.88023952,,,,,,,,,,,,,,,,498.9912,500.7906,500.7907,501.3517,return,0.0171,,73.4375,,,,,,FBP-RB-71.png,0.43,1.2,19,1,0,57,57,18,1,,,,,,,,,,,,,,,,,,,,,,,,,,,,,,,,,,,,,,,,
,,,,,FALL23_088,21,Female,2024-01-23_12h47.15.010,jersey_experiment_5,2023.2.2,Win32,59.88023952,,,,,,,,,,,,,,,,501.3518,502.6397,502.6397,503.7059,return,0.2,,87.23958333,,,,,,FBP-OG-18.png,0.45,1.2,10,0.5,0,58,58,9,1,,,,,,,,,,,,,,,,,,,,,,,,,,,,,,,,,,,,,,,,
,,,,,FALL23_088,21,Female,2024-01-23_12h47.15.010,jersey_experiment_5,2023.2.2,Win32,59.88023952,,,,,,,,,,,,,,,,503.7061,505.5057,505.5057,506.7382,return,0.0334,,69.66145833,,,,,,FBP-YG-18.png,0.4,1.2,38,1,0,59,59,37,1,,,,,,,,,,,,,,,,,,,,,,,,,,,,,,,,,,,,,,,,
,,,,,FALL23_088,21,Female,2024-01-23_12h47.15.010,jersey_experiment_5,2023.2.2,Win32,59.88023952,,,,,,,,,,,,,,,,,,,,,,,,,,,,,,,,,,,,,,,506.7385,626.7488,,,,,,,,,,,,,,,,,,,,,,,,,,,,,,,,,,,,,,
,,,,,FALL23_088,21,Female,2024-01-23_12h47.15.010,jersey_experiment_5,2023.2.2,Win32,59.88023952,,,,,,,,,,,,,,,,,,,,,,,,,,,,,,,,,,,,,,,,,626.7488,629.2483,return,2.4828,,,,,,,,,,,,,,,,,,,,,,,,,,,,,,,,,,
,,,,,FALL23_088,21,Female,2024-01-23_12h47.15.010,jersey_experiment_5,2023.2.2,Win32,59.88023952,,,,,,,,,,,,,,,,629.2541,630.5475,630.5475,633.7246,return,1.743599999,,31.90104167,,,,,,FBP-YG-91.png,0.37,1.2,42,0.5,,,,,,,,,,,,,0,0,0,41,1,,,,,,,,,,,,,,,,,,,,,,,,,,,,
,,,,,FALL23_088,21,Female,2024-01-23_12h47.15.010,jersey_experiment_5,2023.2.2,Win32,59.88023952,,,,,,,,,,,,,,,,633.7248,635.0124,635.0124,638.4898,return,0.200099999,,61.45833333,,,,,,FBP-YG-81.png,0.37,1.2,37,0.5,,,,,,,,,,,,,0,1,1,36,1,,,,,,,,,,,,,,,,,,,,,,,,,,,,
,,,,,FALL23_088,21,Female,2024-01-23_12h47.15.010,jersey_experiment_5,2023.2.2,Win32,59.88023952,,,,,,,,,,,,,,,,638.49,639.7777,639.7777,640.5223,return,0.1001,,63.02083333,,,,,,FBP-RB-19.png,0.37,1.2,27,0.5,,,,,,,,,,,,,0,2,2,26,1,,,,,,,,,,,,,,,,,,,,,,,,,,,,
,,,,,FALL23_088,21,Female,2024-01-23_12h47.15.010,jersey_experiment_5,2023.2.2,Win32,59.88023952,,,,,,,,,,,,,,,,640.5225,642.3101,642.3101,643.3268,return,0.1505,,66.53645833,,,,,,FBP-PT-17.png,0.37,1.2,47,1,,,,,,,,,,,,,0,3,3,46,1,,,,,,,,,,,,,,,,,,,,,,,,,,,,
,,,,,FALL23_088,21,Female,2024-01-23_12h47.15.010,jersey_experiment_5,2023.2.2,Win32,59.88023952,,,,,,,,,,,,,,,,643.3269,644.626,644.626,648.8914,return,2.5663,,69.66145833,,,,,,FBP-RB-18.png,0.43,1.2,24,0.5,,,,,,,,,,,,,0,4,4,23,1,,,,,,,,,,,,,,,,,,,,,,,,,,,,
,,,,,FALL23_088,21,Female,2024-01-23_12h47.15.010,jersey_experiment_5,2023.2.2,Win32,59.88023952,,,,,,,,,,,,,,,,648.8915,650.6905,650.6905,655.0228,return,1.6331,,67.31770833,,,,,,FBP-PT-18.png,0.37,1.2,52,1,,,,,,,,,,,,,0,5,5,51,1,,,,,,,,,,,,,,,,,,,,,,,,,,,,
,,,,,FALL23_088,21,Female,2024-01-23_12h47.15.010,jersey_experiment_5,2023.2.2,Win32,59.88023952,,,,,,,,,,,,,,,,655.0229,656.317,656.3171,657.4166,return,0.0669,,70.18229167,,,,,,FBP-YG-71.png,0.37,1.2,32,0.5,,,,,,,,,,,,,0,6,6,31,1,,,,,,,,,,,,,,,,,,,,,,,,,,,,
,,,,,FALL23_088,21,Female,2024-01-23_12h47.15.010,jersey_experiment_5,2023.2.2,Win32,59.88023952,,,,,,,,,,,,,,,,657.4168,658.7163,658.7163,659.4713,return,0.0837,,76.953125,,,,,,FBP-RB-18.png,0.45,1.2,25,0.5,,,,,,,,,,,,,0,7,7,24,1,,,,,,,,,,,,,,,,,,,,,,,,,,,,
,,,,,FALL23_088,21,Female,2024-01-23_12h47.15.010,jersey_experiment_5,2023.2.2,Win32,59.88023952,,,,,,,,,,,,,,,,659.4714,660.7657,660.7657,661.7319,return,0.1367,,62.23958333,,,,,,FBP-RB-19.png,0.35,1.2,26,0.5,,,,,,,,,,,,,0,8,8,25,1,,,,,,,,,,,,,,,,,,,,,,,,,,,,
,,,,,FALL23_088,21,Female,2024-01-23_12h47.15.010,jersey_experiment_5,2023.2.2,Win32,59.88023952,,,,,,,,,,,,,,,,661.732,663.5197,663.5198,664.8197,return,0.3836,,66.66666667,,,,,,FBP-PT-17.png,0.4,1.2,48,1,,,,,,,,,,,,,0,9,9,47,1,,,,,,,,,,,,,,,,,,,,,,,,,,,,
,,,,,FALL23_088,21,Female,2024-01-23_12h47.15.010,jersey_experiment_5,2023.2.2,Win32,59.88023952,,,,,,,,,,,,,,,,664.8198,666.6191,666.6191,668.2518,return,0.4502,,93.61979167,,,,,,FBP-PT-19.png,0.45,1.2,60,1,,,,,,,,,,,,,0,10,10,59,1,,,,,,,,,,,,,,,,,,,,,,,,,,,,
,,,,,FALL23_088,21,Female,2024-01-23_12h47.15.010,jersey_experiment_5,2023.2.2,Win32,59.88023952,,,,,,,,,,,,,,,,668.2521,669.5515,669.5515,672.6783,return,0.1187,,79.16666667,,,,,,FBP-YG-91.png,0.4,1.2,43,0.5,,,,,,,,,,,,,0,11,11,42,1,,,,,,,,,,,,,,,,,,,,,,,,,,,,
,,,,,FALL23_088,21,Female,2024-01-23_12h47.15.010,jersey_experiment_5,2023.2.2,Win32,59.88023952,,,,,,,,,,,,,,,,672.6784,674.4831,674.4831,675.9163,return,0.9172,,95.703125,,,,,,FBP-OG-91.png,0.45,1.2,15,1,,,,,,,,,,,,,0,12,12,14,1,,,,,,,,,,,,,,,,,,,,,,,,,,,,
,,,,,FALL23_088,21,Female,2024-01-23_12h47.15.010,jersey_experiment_5,2023.2.2,Win32,59.88023952,,,,,,,,,,,,,,,,675.9164,677.7153,677.7153,678.2317,return,0.0499,,91.796875,,,,,,FBP-OG-81.png,0.43,1.2,9,1,,,,,,,,,,,,,0,13,13,8,1,,,,,,,,,,,,,,,,,,,,,,,,,,,,
,,,,,FALL23_088,21,Female,2024-01-23_12h47.15.010,jersey_experiment_5,2023.2.2,Win32,59.88023952,,,,,,,,,,,,,,,,678.2318,679.5312,679.5312,684.924,return,1.6437,,87.23958333,,,,,,FBP-YG-81.png,0.45,1.2,40,0.5,,,,,,,,,,,,,0,14,14,39,1,,,,,,,,,,,,,,,,,,,,,,,,,,,,
,,,,,FALL23_088,21,Female,2024-01-23_12h47.15.010,jersey_experiment_5,2023.2.2,Win32,59.88023952,,,,,,,,,,,,,,,,684.9243,686.7292,686.7292,688.0787,return,0.1838,,91.015625,,,,,,FBP-OG-71.png,0.45,1.2,5,1,,,,,,,,,,,,,0,15,15,4,1,,,,,,,,,,,,,,,,,,,,,,,,,,,,
,,,,,FALL23_088,21,Female,2024-01-23_12h47.15.010,jersey_experiment_5,2023.2.2,Win32,59.88023952,,,,,,,,,,,,,,,,688.0788,689.878,689.878,691.4888,return,0.1564,,26.171875,,,,,,FBP-PT-17.png,0.35,1.2,46,1,,,,,,,,,,,,,0,16,16,45,1,,,,,,,,,,,,,,,,,,,,,,,,,,,,
,,,,,FALL23_088,21,Female,2024-01-23_12h47.15.010,jersey_experiment_5,2023.2.2,Win32,59.88023952,,,,,,,,,,,,,,,,691.489,692.7933,692.7933,694.3544,return,0.2048,,61.19791667,,,,,,FBP-RB-17.png,0.43,1.2,19,0.5,,,,,,,,,,,,,0,17,17,18,1,,,,,,,,,,,,,,,,,,,,,,,,,,,,
,,,,,FALL23_088,21,Female,2024-01-23_12h47.15.010,jersey_experiment_5,2023.2.2,Win32,59.88023952,,,,,,,,,,,,,,,,694.3545,696.1423,696.1423,702.7848,return,0.156099999,,61.06770833,,,,,,FBP-OG-81.png,0.4,1.2,8,1,,,,,,,,,,,,,0,18,18,7,1,,,,,,,,,,,,,,,,,,,,,,,,,,,,
,,,,,FALL23_088,21,Female,2024-01-23_12h47.15.010,jersey_experiment_5,2023.2.2,Win32,59.88023952,,,,,,,,,,,,,,,,702.785,704.0845,704.0846,705.0676,return,0.133799999,,66.66666667,,,,,,FBP-YG-81.png,0.4,1.2,38,0.5,,,,,,,,,,,,,0,19,19,37,1,,,,,,,,,,,,,,,,,,,,,,,,,,,,
,,,,,FALL23_088,21,Female,2024-01-23_12h47.15.010,jersey_experiment_5,2023.2.2,Win32,59.88023952,,,,,,,,,,,,,,,,705.0677,706.8556,706.8556,707.9387,return,0.1837,,66.66666667,,,,,,FBP-OG-91.png,0.4,1.2,13,1,,,,,,,,,,,,,0,20,20,12,1,,,,,,,,,,,,,,,,,,,,,,,,,,,,
,,,,,FALL23_088,21,Female,2024-01-23_12h47.15.010,jersey_experiment_5,2023.2.2,Win32,59.88023952,,,,,,,,,,,,,,,,707.9388,709.2329,709.2329,710.4711,return,0.0836,,74.73958333,,,,,,FBP-YG-81.png,0.43,1.2,39,0.5,,,,,,,,,,,,,0,21,21,38,1,,,,,,,,,,,,,,,,,,,,,,,,,,,,
,,,,,FALL23_088,21,Female,2024-01-23_12h47.15.010,jersey_experiment_5,2023.2.2,Win32,59.88023952,,,,,,,,,,,,,,,,710.4713,711.7654,711.7654,712.5871,return,0.067099999,,74.609375,,,,,,FBP-RB-19.png,0.43,1.2,29,0.5,,,,,,,,,,,,,0,22,22,28,1,,,,,,,,,,,,,,,,,,,,,,,,,,,,
,,,,,FALL23_088,21,Female,2024-01-23_12h47.15.010,jersey_experiment_5,2023.2.2,Win32,59.88023952,,,,,,,,,,,,,,,,712.5872,714.3861,714.3861,716.1138,return,0.088400001,,37.76041667,,,,,,FBP-PT-19.png,0.37,1.2,57,1,,,,,,,,,,,,,0,23,23,56,1,,,,,,,,,,,,,,,,,,,,,,,,,,,,
,,,,,FALL23_088,21,Female,2024-01-23_12h47.15.010,jersey_experiment_5,2023.2.2,Win32,59.88023952,,,,,,,,,,,,,,,,716.1139,717.4134,717.4134,720.2791,return,0.315599999,,54.81770833,,,,,,FBP-RB-17.png,0.37,1.2,17,0.5,,,,,,,,,,,,,0,24,24,16,1,,,,,,,,,,,,,,,,,,,,,,,,,,,,
,,,,,FALL23_088,21,Female,2024-01-23_12h47.15.010,jersey_experiment_5,2023.2.2,Win32,59.88023952,,,,,,,,,,,,,,,,720.2793,721.5672,721.5673,723.5836,return,0.7678,,32.421875,,,,,,FBP-RB-17.png,0.35,1.2,16,0.5,,,,,,,,,,,,,0,25,25,15,1,,,,,,,,,,,,,,,,,,,,,,,,,,,,
,,,,,FALL23_088,21,Female,2024-01-23_12h47.15.010,jersey_experiment_5,2023.2.2,Win32,59.88023952,,,,,,,,,,,,,,,,723.5837,724.8777,724.8777,728.9763,return,3.1075,,55.078125,,,,,,FBP-RB-18.png,0.37,1.2,22,0.5,,,,,,,,,,,,,0,26,26,21,1,,,,,,,,,,,,,,,,,,,,,,,,,,,,
,,,,,FALL23_088,21,Female,2024-01-23_12h47.15.010,jersey_experiment_5,2023.2.2,Win32,59.88023952,,,,,,,,,,,,,,,,728.9766,730.7809,730.781,731.6254,return,0.050200001,,93.48958333,,,,,,FBP-PT-18.png,0.45,1.2,55,1,,,,,,,,,,,,,0,27,27,54,1,,,,,,,,,,,,,,,,,,,,,,,,,,,,
,,,,,FALL23_088,21,Female,2024-01-23_12h47.15.010,jersey_experiment_5,2023.2.2,Win32,59.88023952,,,,,,,,,,,,,,,,731.6257,733.4134,733.4134,735.2131,return,0.1171,,24.609375,,,,,,FBP-OG-71.png,0.35,1.2,1,1,,,,,,,,,,,,,0,28,28,0,1,,,,,,,,,,,,,,,,,,,,,,,,,,,,
,,,,,FALL23_088,21,Female,2024-01-23_12h47.15.010,jersey_experiment_5,2023.2.2,Win32,59.88023952,,,,,,,,,,,,,,,,735.2132,737.007,737.007,740.3725,return,0.0877,,54.81770833,,,,,,FBP-OG-91.png,0.37,1.2,12,1,,,,,,,,,,,,,0,29,29,11,1,,,,,,,,,,,,,,,,,,,,,,,,,,,,
,,,,,FALL23_088,21,Female,2024-01-23_12h47.15.010,jersey_experiment_5,2023.2.2,Win32,59.88023952,,,,,,,,,,,,,,,,740.3728,741.6721,741.6721,742.5439,return,0.0006,,75.78125,,,,,,FBP-YG-71.png,0.43,1.2,34,0.5,,,,,,,,,,,,,0,30,30,33,1,,,,,,,,,,,,,,,,,,,,,,,,,,,,
,,,,,FALL23_088,21,Female,2024-01-23_12h47.15.010,jersey_experiment_5,2023.2.2,Win32,59.88023952,,,,,,,,,,,,,,,,742.544,744.338,744.338,745.4763,return,0.100400001,,29.81770833,,,,,,FBP-PT-18.png,0.35,1.2,51,1,,,,,,,,,,,,,0,31,31,50,1,,,,,,,,,,,,,,,,,,,,,,,,,,,,
,,,,,FALL23_088,21,Female,2024-01-23_12h47.15.010,jersey_experiment_5,2023.2.2,Win32,59.88023952,,,,,,,,,,,,,,,,745.4765,747.2753,747.2753,748.9917,return,0.1838,,70.05208333,,,,,,FBP-OG-71.png,0.4,1.2,3,1,,,,,,,,,,,,,0,32,32,2,1,,,,,,,,,,,,,,,,,,,,,,,,,,,,
,,,,,FALL23_088,21,Female,2024-01-23_12h47.15.010,jersey_experiment_5,2023.2.2,Win32,59.88023952,,,,,,,,,,,,,,,,748.9919,750.7857,750.7857,751.924,return,0.1506,,90.10416667,,,,,,FBP-PT-17.png,0.43,1.2,49,1,,,,,,,,,,,,,0,33,33,48,1,,,,,,,,,,,,,,,,,,,,,,,,,,,,
,,,,,FALL23_088,21,Female,2024-01-23_12h47.15.010,jersey_experiment_5,2023.2.2,Win32,59.88023952,,,,,,,,,,,,,,,,751.9242,753.2235,753.2235,756.8224,return,0.1671,,28.125,,,,,,FBP-YG-81.png,0.35,1.2,36,0.5,,,,,,,,,,,,,0,34,34,35,1,,,,,,,,,,,,,,,,,,,,,,,,,,,,
,,,,,FALL23_088,21,Female,2024-01-23_12h47.15.010,jersey_experiment_5,2023.2.2,Win32,59.88023952,,,,,,,,,,,,,,,,756.8225,758.6215,758.6215,760.0326,return,0.0912,,77.86458333,,,,,,FBP-PT-18.png,0.43,1.2,54,1,,,,,,,,,,,,,0,35,35,53,1,,,,,,,,,,,,,,,,,,,,,,,,,,,,
,,,,,FALL23_088,21,Female,2024-01-23_12h47.15.010,jersey_experiment_5,2023.2.2,Win32,59.88023952,,,,,,,,,,,,,,,,760.0328,761.3375,761.3375,762.6872,return,0.7332,,77.86458333,,,,,,FBP-RB-18.png,0.4,1.2,23,0.5,,,,,,,,,,,,,0,36,36,22,1,,,,,,,,,,,,,,,,,,,,,,,,,,,,
,,,,,FALL23_088,21,Female,2024-01-23_12h47.15.010,jersey_experiment_5,2023.2.2,Win32,59.88023952,,,,,,,,,,,,,,,,762.6873,764.4814,764.4814,766.8473,return,0.758099999,,30.859375,,,,,,FBP-OG-91.png,0.35,1.2,11,1,,,,,,,,,,,,,0,37,37,10,1,,,,,,,,,,,,,,,,,,,,,,,,,,,,
,,,,,FALL23_088,21,Female,2024-01-23_12h47.15.010,jersey_experiment_5,2023.2.2,Win32,59.88023952,,,,,,,,,,,,,,,,766.8475,768.6354,768.6354,771.4341,return,1.1665,,90.75520833,,,,,,FBP-OG-81.png,0.45,1.2,10,1,,,,,,,,,,,,,0,38,38,9,1,,,,,,,,,,,,,,,,,,,,,,,,,,,,
,,,,,FALL23_088,21,Female,2024-01-23_12h47.15.010,jersey_experiment_5,2023.2.2,Win32,59.88023952,,,,,,,,,,,,,,,,771.4343,772.7283,772.7283,773.7781,return,0.2881,,68.75,,,,,,FBP-RB-17.png,0.4,1.2,18,0.5,,,,,,,,,,,,,0,39,39,17,1,,,,,,,,,,,,,,,,,,,,,,,,,,,,
,,,,,FALL23_088,21,Female,2024-01-23_12h47.15.010,jersey_experiment_5,2023.2.2,Win32,59.88023952,,,,,,,,,,,,,,,,773.7783,775.5662,775.5662,776.3491,return,0.3002,,72.52604167,,,,,,FBP-OG-71.png,0.37,1.2,2,1,,,,,,,,,,,,,0,40,40,1,1,,,,,,,,,,,,,,,,,,,,,,,,,,,,
,,,,,FALL23_088,21,Female,2024-01-23_12h47.15.010,jersey_experiment_5,2023.2.2,Win32,59.88023952,,,,,,,,,,,,,,,,776.3493,778.1484,778.1484,779.3482,return,0.0334,,39.58333333,,,,,,FBP-OG-81.png,0.35,1.2,6,1,,,,,,,,,,,,,0,41,41,5,1,,,,,,,,,,,,,,,,,,,,,,,,,,,,
,,,,,FALL23_088,21,Female,2024-01-23_12h47.15.010,jersey_experiment_5,2023.2.2,Win32,59.88023952,,,,,,,,,,,,,,,,779.3484,781.1475,781.1475,781.6309,return,0.0672,,38.80208333,,,,,,FBP-OG-81.png,0.37,1.2,7,1,,,,,,,,,,,,,0,42,42,6,1,,,,,,,,,,,,,,,,,,,,,,,,,,,,
,,,,,FALL23_088,21,Female,2024-01-23_12h47.15.010,jersey_experiment_5,2023.2.2,Win32,59.88023952,,,,,,,,,,,,,,,,781.6311,783.4304,783.4304,785.1964,return,0.6683,,72.52604167,,,,,,FBP-PT-17.png,0.45,1.2,50,1,,,,,,,,,,,,,0,43,43,49,1,,,,,,,,,,,,,,,,,,,,,,,,,,,,
,,,,,FALL23_088,21,Female,2024-01-23_12h47.15.010,jersey_experiment_5,2023.2.2,Win32,59.88023952,,,,,,,,,,,,,,,,785.1966,786.9905,786.9906,787.7622,return,0.0005,,74.609375,,,,,,FBP-PT-19.png,0.43,1.2,59,1,,,,,,,,,,,,,0,44,44,58,1,,,,,,,,,,,,,,,,,,,,,,,,,,,,
,,,,,FALL23_088,21,Female,2024-01-23_12h47.15.010,jersey_experiment_5,2023.2.2,Win32,59.88023952,,,,,,,,,,,,,,,,787.7623,789.5563,789.5563,790.3726,return,0.102799999,,74.47916667,,,,,,FBP-OG-91.png,0.43,1.2,14,1,,,,,,,,,,,,,0,45,45,13,1,,,,,,,,,,,,,,,,,,,,,,,,,,,,
,,,,,FALL23_088,21,Female,2024-01-23_12h47.15.010,jersey_experiment_5,2023.2.2,Win32,59.88023952,,,,,,,,,,,,,,,,790.3729,792.1721,792.1721,793.9771,return,0.8684,,33.46354167,,,,,,FBP-PT-19.png,0.35,1.2,56,1,,,,,,,,,,,,,0,46,46,55,1,,,,,,,,,,,,,,,,,,,,,,,,,,,,
,,,,,FALL23_088,21,Female,2024-01-23_12h47.15.010,jersey_experiment_5,2023.2.2,Win32,59.88023952,,,,,,,,,,,,,,,,793.9773,795.2711,795.2711,797.2925,return,0.0004,,88.93229167,,,,,,FBP-RB-19.png,0.45,1.2,30,0.5,,,,,,,,,,,,,0,47,47,29,1,,,,,,,,,,,,,,,,,,,,,,,,,,,,
,,,,,FALL23_088,21,Female,2024-01-23_12h47.15.010,jersey_experiment_5,2023.2.2,Win32,59.88023952,,,,,,,,,,,,,,,,797.2928,798.5916,798.5917,800.2085,return,0.1005,,86.45833333,,,,,,FBP-YG-91.png,0.43,1.2,44,0.5,,,,,,,,,,,,,0,48,48,43,1,,,,,,,,,,,,,,,,,,,,,,,,,,,,
,,,,,FALL23_088,21,Female,2024-01-23_12h47.15.010,jersey_experiment_5,2023.2.2,Win32,59.88023952,,,,,,,,,,,,,,,,800.2086,802.0022,802.0022,803.2738,return,0.1004,,85.9375,,,,,,FBP-PT-19.png,0.4,1.2,58,1,,,,,,,,,,,,,0,49,49,57,1,,,,,,,,,,,,,,,,,,,,,,,,,,,,
,,,,,FALL23_088,21,Female,2024-01-23_12h47.15.010,jersey_experiment_5,2023.2.2,Win32,59.88023952,,,,,,,,,,,,,,,,803.2739,804.568,804.568,806.1223,return,0.3334,,84.63541667,,,,,,FBP-YG-91.png,0.45,1.2,45,0.5,,,,,,,,,,,,,0,50,50,44,1,,,,,,,,,,,,,,,,,,,,,,,,,,,,
,,,,,FALL23_088,21,Female,2024-01-23_12h47.15.010,jersey_experiment_5,2023.2.2,Win32,59.88023952,,,,,,,,,,,,,,,,806.1224,807.4172,807.4172,816.6361,return,0.3003,,65.625,,,,,,FBP-YG-71.png,0.45,1.2,35,0.5,,,,,,,,,,,,,0,51,51,34,1,,,,,,,,,,,,,,,,,,,,,,,,,,,,
,,,,,FALL23_088,21,Female,2024-01-23_12h47.15.010,jersey_experiment_5,2023.2.2,Win32,59.88023952,,,,,,,,,,,,,,,,816.6362,817.9303,817.9303,819.0523,return,0.0506,,78.515625,,,,,,FBP-RB-17.png,0.45,1.2,20,0.5,,,,,,,,,,,,,0,52,52,19,1,,,,,,,,,,,,,,,,,,,,,,,,,,,,
,,,,,FALL23_088,21,Female,2024-01-23_12h47.15.010,jersey_experiment_5,2023.2.2,Win32,59.88023952,,,,,,,,,,,,,,,,819.0524,820.3513,820.3513,821.0677,return,0.067,,77.21354167,,,,,,FBP-YG-71.png,0.4,1.2,33,0.5,,,,,,,,,,,,,0,53,53,32,1,,,,,,,,,,,,,,,,,,,,,,,,,,,,
,,,,,FALL23_088,21,Female,2024-01-23_12h47.15.010,jersey_experiment_5,2023.2.2,Win32,59.88023952,,,,,,,,,,,,,,,,821.0679,822.3622,822.3623,822.8341,return,0.018599999,,77.21354167,,,,,,FBP-RB-19.png,0.4,1.2,28,0.5,,,,,,,,,,,,,0,54,54,27,1,,,,,,,,,,,,,,,,,,,,,,,,,,,,
,,,,,FALL23_088,21,Female,2024-01-23_12h47.15.010,jersey_experiment_5,2023.2.2,Win32,59.88023952,,,,,,,,,,,,,,,,822.8344,824.1281,824.1281,825.7163,return,0.117,,36.328125,,,,,,FBP-YG-91.png,0.35,1.2,41,0.5,,,,,,,,,,,,,0,55,55,40,1,,,,,,,,,,,,,,,,,,,,,,,,,,,,
,,,,,FALL23_088,21,Female,2024-01-23_12h47.15.010,jersey_experiment_5,2023.2.2,Win32,59.88023952,,,,,,,,,,,,,,,,825.7165,827.0106,827.0106,828.3323,return,0.1169,,27.734375,,,,,,FBP-YG-71.png,0.35,1.2,31,0.5,,,,,,,,,,,,,0,56,56,30,1,,,,,,,,,,,,,,,,,,,,,,,,,,,,
,,,,,FALL23_088,21,Female,2024-01-23_12h47.15.010,jersey_experiment_5,2023.2.2,Win32,59.88023952,,,,,,,,,,,,,,,,828.3323,830.1262,830.1262,831.3924,return,0.0403,,60.02604167,,,,,,FBP-PT-18.png,0.4,1.2,53,1,,,,,,,,,,,,,0,57,57,52,1,,,,,,,,,,,,,,,,,,,,,,,,,,,,
,,,,,FALL23_088,21,Female,2024-01-23_12h47.15.010,jersey_experiment_5,2023.2.2,Win32,59.88023952,,,,,,,,,,,,,,,,831.3925,832.6803,832.6803,833.6918,return,0.4018,,60.02604167,,,,,,FBP-RB-18.png,0.35,1.2,21,0.5,,,,,,,,,,,,,0,58,58,20,1,,,,,,,,,,,,,,,,,,,,,,,,,,,,
,,,,,FALL23_088,21,Female,2024-01-23_12h47.15.010,jersey_experiment_5,2023.2.2,Win32,59.88023952,,,,,,,,,,,,,,,,833.692,835.4963,835.4963,838.7453,return,0.200299999,,86.19791667,,,,,,FBP-OG-71.png,0.43,1.2,4,1,,,,,,,,,,,,,0,59,59,3,1,,,,,,,,,,,,,,,,,,,,,,,,,,,,
,,,,,FALL23_088,21,Female,2024-01-23_12h47.15.010,jersey_experiment_5,2023.2.2,Win32,59.88023952,,,,,,,,,,,,,,,,838.7467,840.0398,840.0398,840.9949,return,0.268700001,,86.19791667,,,,,,FBP-YG-19.png,0.4,1.2,43,0.5,,,,,,,,,,,,,,,,,,0,0,0,42,1,,,,,,,,,,,,,,,,,,,,,,,
,,,,,FALL23_088,21,Female,2024-01-23_12h47.15.010,jersey_experiment_5,2023.2.2,Win32,59.88023952,,,,,,,,,,,,,,,,840.9951,842.7939,842.7939,844.9433,return,0.0672,,52.34375,,,,,,FBP-OG-18.png,0.37,1.2,7,1,,,,,,,,,,,,,,,,,,0,1,1,6,1,,,,,,,,,,,,,,,,,,,,,,,
,,,,,FALL23_088,21,Female,2024-01-23_12h47.15.010,jersey_experiment_5,2023.2.2,Win32,59.88023952,,,,,,,,,,,,,,,,844.9436,846.2427,846.2427,847.6704,return,0.034299999,,44.40104167,,,,,,FBP-YG-18.png,0.35,1.2,36,0.5,,,,,,,,,,,,,,,,,,0,2,2,35,1,,,,,,,,,,,,,,,,,,,,,,,
,,,,,FALL23_088,21,Female,2024-01-23_12h47.15.010,jersey_experiment_5,2023.2.2,Win32,59.88023952,,,,,,,,,,,,,,,,847.6706,848.9698,848.9699,849.8915,return,0.2502,,49.609375,,,,,,FBP-RB-91.png,0.35,1.2,26,0.5,,,,,,,,,,,,,,,,,,0,3,3,25,1,,,,,,,,,,,,,,,,,,,,,,,
,,,,,FALL23_088,21,Female,2024-01-23_12h47.15.010,jersey_experiment_5,2023.2.2,Win32,59.88023952,,,,,,,,,,,,,,,,849.8917,851.1859,851.1859,851.8521,return,0.0112,,49.609375,,,,,,FBP-YG-17.png,0.37,1.2,32,0.5,,,,,,,,,,,,,,,,,,0,4,4,31,1,,,,,,,,,,,,,,,,,,,,,,,
,,,,,FALL23_088,21,Female,2024-01-23_12h47.15.010,jersey_experiment_5,2023.2.2,Win32,59.88023952,,,,,,,,,,,,,,,,851.8524,853.657,853.657,854.407,return,0.0005,,74.47916667,,,,,,FBP-OG-17.png,0.45,1.2,5,1,,,,,,,,,,,,,,,,,,0,5,5,4,1,,,,,,,,,,,,,,,,,,,,,,,
,,,,,FALL23_088,21,Female,2024-01-23_12h47.15.010,jersey_experiment_5,2023.2.2,Win32,59.88023952,,,,,,,,,,,,,,,,854.4073,856.2009,856.201,857.0173,return,0.4003,,74.47916667,,,,,,FBP-OG-19.png,0.43,1.2,14,1,,,,,,,,,,,,,,,,,,0,6,6,13,1,,,,,,,,,,,,,,,,,,,,,,,
,,,,,FALL23_088,21,Female,2024-01-23_12h47.15.010,jersey_experiment_5,2023.2.2,Win32,59.88023952,,,,,,,,,,,,,,,,857.0174,858.3054,858.3054,859.8999,return,0.1786,,86.58854167,,,,,,FBP-YG-18.png,0.45,1.2,40,0.5,,,,,,,,,,,,,,,,,,0,7,7,39,1,,,,,,,,,,,,,,,,,,,,,,,
,,,,,FALL23_088,21,Female,2024-01-23_12h47.15.010,jersey_experiment_5,2023.2.2,Win32,59.88023952,,,,,,,,,,,,,,,,859.9001,861.6877,861.6877,865.3865,return,2.0496,,62.5,,,,,,FBP-PT-81.png,0.43,1.2,54,1,,,,,,,,,,,,,,,,,,0,8,8,53,1,,,,,,,,,,,,,,,,,,,,,,,
,,,,,FALL23_088,21,Female,2024-01-23_12h47.15.010,jersey_experiment_5,2023.2.2,Win32,59.88023952,,,,,,,,,,,,,,,,865.3867,867.1806,867.1806,868.5689,return,0.4334,,74.73958333,,,,,,FBP-OG-17.png,0.43,1.2,4,1,,,,,,,,,,,,,,,,,,0,9,9,3,1,,,,,,,,,,,,,,,,,,,,,,,
,,,,,FALL23_088,21,Female,2024-01-23_12h47.15.010,jersey_experiment_5,2023.2.2,Win32,59.88023952,,,,,,,,,,,,,,,,868.5691,870.3687,870.3689,871.8845,return,0.3498,,30.59895833,,,,,,FBP-PT-71.png,0.35,1.2,46,1,,,,,,,,,,,,,,,,,,0,10,10,45,1,,,,,,,,,,,,,,,,,,,,,,,
,,,,,FALL23_088,21,Female,2024-01-23_12h47.15.010,jersey_experiment_5,2023.2.2,Win32,59.88023952,,,,,,,,,,,,,,,,871.8846,873.6834,873.6835,874.6499,return,0.2169,,33.203125,,,,,,FBP-PT-81.png,0.35,1.2,51,1,,,,,,,,,,,,,,,,,,0,11,11,50,1,,,,,,,,,,,,,,,,,,,,,,,
,,,,,FALL23_088,21,Female,2024-01-23_12h47.15.010,jersey_experiment_5,2023.2.2,Win32,59.88023952,,,,,,,,,,,,,,,,874.6502,875.9495,875.9495,877.5105,return,0.119,,69.921875,,,,,,FBP-YG-19.png,0.43,1.2,44,0.5,,,,,,,,,,,,,,,,,,0,12,12,43,1,,,,,,,,,,,,,,,,,,,,,,,
,,,,,FALL23_088,21,Female,2024-01-23_12h47.15.010,jersey_experiment_5,2023.2.2,Win32,59.88023952,,,,,,,,,,,,,,,,877.5108,879.2985,879.2986,881.1646,return,0.185,,29.81770833,,,,,,FBP-OG-18.png,0.4,1.2,8,1,,,,,,,,,,,,,,,,,,0,13,13,7,1,,,,,,,,,,,,,,,,,,,,,,,
,,,,,FALL23_088,21,Female,2024-01-23_12h47.15.010,jersey_experiment_5,2023.2.2,Win32,59.88023952,,,,,,,,,,,,,,,,881.1648,882.9586,882.9586,883.9304,return,0.0004,,26.171875,,,,,,FBP-OG-17.png,0.37,1.2,2,1,,,,,,,,,,,,,,,,,,0,14,14,1,1,,,,,,,,,,,,,,,,,,,,,,,
,,,,,FALL23_088,21,Female,2024-01-23_12h47.15.010,jersey_experiment_5,2023.2.2,Win32,59.88023952,,,,,,,,,,,,,,,,883.9304,885.2244,885.2244,886.5129,return,0.2995,,26.69270833,,,,,,FBP-RB-81.png,0.35,1.2,21,0.5,,,,,,,,,,,,,,,,,,0,15,15,20,1,,,,,,,,,,,,,,,,,,,,,,,
,,,,,FALL23_088,21,Female,2024-01-23_12h47.15.010,jersey_experiment_5,2023.2.2,Win32,59.88023952,,,,,,,,,,,,,,,,886.513,888.307,888.307,889.1899,return,0.101700001,,26.69270833,,,,,,FBP-OG-17.png,0.35,1.2,1,1,,,,,,,,,,,,,,,,,,0,16,16,0,1,,,,,,,,,,,,,,,,,,,,,,,
,,,,,FALL23_088,21,Female,2024-01-23_12h47.15.010,jersey_experiment_5,2023.2.2,Win32,59.88023952,,,,,,,,,,,,,,,,889.1901,890.4896,890.4896,893.0886,return,0.0568,,22.65625,,,,,,FBP-RB-71.png,0.35,1.2,16,0.5,,,,,,,,,,,,,,,,,,0,17,17,15,1,,,,,,,,,,,,,,,,,,,,,,,
,,,,,FALL23_088,21,Female,2024-01-23_12h47.15.010,jersey_experiment_5,2023.2.2,Win32,59.88023952,,,,,,,,,,,,,,,,893.0888,894.8931,894.8931,896.2096,return,0.100400001,,54.296875,,,,,,FBP-OG-19.png,0.4,1.2,13,1,,,,,,,,,,,,,,,,,,0,18,18,12,1,,,,,,,,,,,,,,,,,,,,,,,
,,,,,FALL23_088,21,Female,2024-01-23_12h47.15.010,jersey_experiment_5,2023.2.2,Win32,59.88023952,,,,,,,,,,,,,,,,896.2097,898.0037,898.0037,898.6741,return,0.000400001,,54.296875,,,,,,FBP-PT-91.png,0.37,1.2,57,1,,,,,,,,,,,,,,,,,,0,19,19,56,1,,,,,,,,,,,,,,,,,,,,,,,
,,,,,FALL23_088,21,Female,2024-01-23_12h47.15.010,jersey_experiment_5,2023.2.2,Win32,59.88023952,,,,,,,,,,,,,,,,898.6744,900.475,900.475,903.7186,return,0.4355,,81.51041667,,,,,,FBP-OG-18.png,0.43,1.2,9,1,,,,,,,,,,,,,,,,,,0,20,20,8,1,,,,,,,,,,,,,,,,,,,,,,,
,,,,,FALL23_088,21,Female,2024-01-23_12h47.15.010,jersey_experiment_5,2023.2.2,Win32,59.88023952,,,,,,,,,,,,,,,,903.7188,905.0066,905.0066,906.2395,return,0.1336,,89.32291667,,,,,,FBP-RB-71.png,0.43,1.2,19,0.5,,,,,,,,,,,,,,,,,,0,21,21,18,1,,,,,,,,,,,,,,,,,,,,,,,
,,,,,FALL23_088,21,Female,2024-01-23_12h47.15.010,jersey_experiment_5,2023.2.2,Win32,59.88023952,,,,,,,,,,,,,,,,906.2396,907.5372,907.5372,908.9723,return,0.2167,,40.49479167,,,,,,FBP-YG-17.png,0.35,1.2,31,0.5,,,,,,,,,,,,,,,,,,0,22,22,30,1,,,,,,,,,,,,,,,,,,,,,,,
,,,,,FALL23_088,21,Female,2024-01-23_12h47.15.010,jersey_experiment_5,2023.2.2,Win32,59.88023952,,,,,,,,,,,,,,,,908.9725,910.2664,910.2664,912.4707,return,0.983099999,,75.78125,,,,,,FBP-RB-81.png,0.4,1.2,23,0.5,,,,,,,,,,,,,,,,,,0,23,23,22,1,,,,,,,,,,,,,,,,,,,,,,,
,,,,,FALL23_088,21,Female,2024-01-23_12h47.15.010,jersey_experiment_5,2023.2.2,Win32,59.88023952,,,,,,,,,,,,,,,,912.4709,914.2701,914.2701,919.9686,return,0.9832,,73.046875,,,,,,FBP-PT-91.png,0.43,1.2,59,1,,,,,,,,,,,,,,,,,,0,24,24,58,1,,,,,,,,,,,,,,,,,,,,,,,
,,,,,FALL23_088,21,Female,2024-01-23_12h47.15.010,jersey_experiment_5,2023.2.2,Win32,59.88023952,,,,,,,,,,,,,,,,919.9687,921.7681,921.7681,924.7001,return,0.6003,,91.92708333,,,,,,FBP-OG-18.png,0.45,1.2,10,1,,,,,,,,,,,,,,,,,,0,25,25,9,1,,,,,,,,,,,,,,,,,,,,,,,
,,,,,FALL23_088,21,Female,2024-01-23_12h47.15.010,jersey_experiment_5,2023.2.2,Win32,59.88023952,,,,,,,,,,,,,,,,924.7002,925.9944,925.9945,928.9324,return,0.9016,,85.67708333,,,,,,FBP-RB-71.png,0.4,1.2,18,0.5,,,,,,,,,,,,,,,,,,0,26,26,17,1,,,,,,,,,,,,,,,,,,,,,,,
,,,,,FALL23_088,21,Female,2024-01-23_12h47.15.010,jersey_experiment_5,2023.2.2,Win32,59.88023952,,,,,,,,,,,,,,,,928.9325,930.2316,930.2316,933.3087,return,1.4105,,33.984375,,,,,,FBP-RB-71.png,0.37,1.2,17,0.5,,,,,,,,,,,,,,,,,,0,27,27,16,1,,,,,,,,,,,,,,,,,,,,,,,
,,,,,FALL23_088,21,Female,2024-01-23_12h47.15.010,jersey_experiment_5,2023.2.2,Win32,59.88023952,,,,,,,,,,,,,,,,933.3089,934.5966,934.5966,938.2622,return,0.9,,63.54166667,,,,,,FBP-YG-17.png,0.45,1.2,35,0.5,,,,,,,,,,,,,,,,,,0,28,28,34,1,,,,,,,,,,,,,,,,,,,,,,,
,,,,,FALL23_088,21,Female,2024-01-23_12h47.15.010,jersey_experiment_5,2023.2.2,Win32,59.88023952,,,,,,,,,,,,,,,,938.2624,939.5619,939.5619,942.2612,return,1.199400001,,50.52083333,,,,,,FBP-RB-81.png,0.37,1.2,22,0.5,,,,,,,,,,,,,,,,,,0,29,29,21,1,,,,,,,,,,,,,,,,,,,,,,,
,,,,,FALL23_088,21,Female,2024-01-23_12h47.15.010,jersey_experiment_5,2023.2.2,Win32,59.88023952,,,,,,,,,,,,,,,,942.2614,944.0602,944.0603,946.06,return,0.7849,,38.15104167,,,,,,FBP-PT-71.png,0.37,1.2,47,1,,,,,,,,,,,,,,,,,,0,30,30,46,1,,,,,,,,,,,,,,,,,,,,,,,
,,,,,FALL23_088,21,Female,2024-01-23_12h47.15.010,jersey_experiment_5,2023.2.2,Win32,59.88023952,,,,,,,,,,,,,,,,946.0601,947.3597,947.3598,962.055,return,0.7673,,59.24479167,,,,,,FBP-RB-91.png,0.4,1.2,28,0.5,,,,,,,,,,,,,,,,,,0,31,31,27,1,,,,,,,,,,,,,,,,,,,,,,,
,,,,,FALL23_088,21,Female,2024-01-23_12h47.15.010,jersey_experiment_5,2023.2.2,Win32,59.88023952,,,,,,,,,,,,,,,,962.0552,963.3541,963.3541,968.3858,return,0.2172,,38.15104167,,,,,,FBP-YG-19.png,0.37,1.2,42,0.5,,,,,,,,,,,,,,,,,,0,32,32,41,1,,,,,,,,,,,,,,,,,,,,,,,
,,,,,FALL23_088,21,Female,2024-01-23_12h47.15.010,jersey_experiment_5,2023.2.2,Win32,59.88023952,,,,,,,,,,,,,,,,968.386,969.685,969.6851,971.0796,return,0.166900001,,80.078125,,,,,,FBP-RB-81.png,0.43,1.2,24,0.5,,,,,,,,,,,,,,,,,,0,33,33,23,1,,,,,,,,,,,,,,,,,,,,,,,
,,,,,FALL23_088,21,Female,2024-01-23_12h47.15.010,jersey_experiment_5,2023.2.2,Win32,59.88023952,,,,,,,,,,,,,,,,971.0798,972.379,972.379,973.1841,return,0.0003,,78.125,,,,,,FBP-YG-17.png,0.4,1.2,33,0.5,,,,,,,,,,,,,,,,,,0,34,34,32,1,,,,,,,,,,,,,,,,,,,,,,,
,,,,,FALL23_088,21,Female,2024-01-23_12h47.15.010,jersey_experiment_5,2023.2.2,Win32,59.88023952,,,,,,,,,,,,,,,,973.1842,974.4785,974.4785,975.7947,return,0.089700001,,91.796875,,,,,,FBP-YG-19.png,0.45,1.2,45,0.5,,,,,,,,,,,,,,,,,,0,35,35,44,1,,,,,,,,,,,,,,,,,,,,,,,
,,,,,FALL23_088,21,Female,2024-01-23_12h47.15.010,jersey_experiment_5,2023.2.2,Win32,59.88023952,,,,,,,,,,,,,,,,975.7949,977.5829,977.5829,978.8324,return,0.4168,,73.30729167,,,,,,FBP-OG-17.png,0.4,1.2,3,1,,,,,,,,,,,,,,,,,,0,36,36,2,1,,,,,,,,,,,,,,,,,,,,,,,
,,,,,FALL23_088,21,Female,2024-01-23_12h47.15.010,jersey_experiment_5,2023.2.2,Win32,59.88023952,,,,,,,,,,,,,,,,978.8327,980.6316,980.6316,981.2095,return,0.0005,,73.17708333,,,,,,FBP-PT-91.png,0.4,1.2,58,1,,,,,,,,,,,,,,,,,,0,37,37,57,1,,,,,,,,,,,,,,,,,,,,,,,
,,,,,FALL23_088,21,Female,2024-01-23_12h47.15.010,jersey_experiment_5,2023.2.2,Win32,59.88023952,,,,,,,,,,,,,,,,981.2096,982.9975,982.9975,983.742,return,0.0277,,78.125,,,,,,FBP-PT-71.png,0.43,1.2,49,1,,,,,,,,,,,,,,,,,,0,38,38,48,1,,,,,,,,,,,,,,,,,,,,,,,
,,,,,FALL23_088,21,Female,2024-01-23_12h47.15.010,jersey_experiment_5,2023.2.2,Win32,59.88023952,,,,,,,,,,,,,,,,983.7422,985.0302,985.0302,986.3131,return,0.0502,,93.48958333,,,,,,FBP-RB-91.png,0.43,1.2,29,0.5,,,,,,,,,,,,,,,,,,0,39,39,28,1,,,,,,,,,,,,,,,,,,,,,,,
,,,,,FALL23_088,21,Female,2024-01-23_12h47.15.010,jersey_experiment_5,2023.2.2,Win32,59.88023952,,,,,,,,,,,,,,,,986.3133,988.1072,988.1072,989.4902,return,0.055400001,,24.21875,,,,,,FBP-PT-81.png,0.37,1.2,52,1,,,,,,,,,,,,,,,,,,0,40,40,51,1,,,,,,,,,,,,,,,,,,,,,,,
,,,,,FALL23_088,21,Female,2024-01-23_12h47.15.010,jersey_experiment_5,2023.2.2,Win32,59.88023952,,,,,,,,,,,,,,,,989.4903,991.2785,991.2785,998.4704,return,1.485400001,,95.05208333,,,,,,FBP-PT-71.png,0.45,1.2,50,1,,,,,,,,,,,,,,,,,,0,41,41,49,1,,,,,,,,,,,,,,,,,,,,,,,
,,,,,FALL23_088,21,Female,2024-01-23_12h47.15.010,jersey_experiment_5,2023.2.2,Win32,59.88023952,,,,,,,,,,,,,,,,998.4705,1000.2699,1000.2699,1000.9419,return,0.1184,,95.05208333,,,,,,FBP-OG-19.png,0.45,1.2,15,1,,,,,,,,,,,,,,,,,,0,42,42,14,1,,,,,,,,,,,,,,,,,,,,,,,
,,,,,FALL23_088,21,Female,2024-01-23_12h47.15.010,jersey_experiment_5,2023.2.2,Win32,59.88023952,,,,,,,,,,,,,,,,1000.9421,1002.2359,1002.2359,1006.8229,return,0.134900001,,32.29166667,,,,,,FBP-YG-18.png,0.4,1.2,38,0.5,,,,,,,,,,,,,,,,,,0,43,43,37,1,,,,,,,,,,,,,,,,,,,,,,,
,,,,,FALL23_088,21,Female,2024-01-23_12h47.15.010,jersey_experiment_5,2023.2.2,Win32,59.88023952,,,,,,,,,,,,,,,,1006.823,1008.1223,1008.1223,1008.789,return,0.1002,,34.375,,,,,,FBP-RB-91.png,0.37,1.2,27,0.5,,,,,,,,,,,,,,,,,,0,44,44,26,1,,,,,,,,,,,,,,,,,,,,,,,
,,,,,FALL23_088,21,Female,2024-01-23_12h47.15.010,jersey_experiment_5,2023.2.2,Win32,59.88023952,,,,,,,,,,,,,,,,1008.7893,1010.0833,1010.0833,1011.9327,return,0.1942,,80.98958333,,,,,,FBP-RB-71.png,0.45,1.2,20,0.5,,,,,,,,,,,,,,,,,,0,45,45,19,1,,,,,,,,,,,,,,,,,,,,,,,
,,,,,FALL23_088,21,Female,2024-01-23_12h47.15.010,jersey_experiment_5,2023.2.2,Win32,59.88023952,,,,,,,,,,,,,,,,1011.933,1013.7209,1013.7209,1015.4205,return,0.217099999,,30.33854167,,,,,,FBP-OG-18.png,0.35,1.2,6,1,,,,,,,,,,,,,,,,,,0,46,46,5,1,,,,,,,,,,,,,,,,,,,,,,,
,,,,,FALL23_088,21,Female,2024-01-23_12h47.15.010,jersey_experiment_5,2023.2.2,Win32,59.88023952,,,,,,,,,,,,,,,,1015.4207,1017.2198,1017.2198,1018.7857,return,0.1502,,62.63020833,,,,,,FBP-PT-81.png,0.4,1.2,53,1,,,,,,,,,,,,,,,,,,0,47,47,52,1,,,,,,,,,,,,,,,,,,,,,,,
,,,,,FALL23_088,21,Female,2024-01-23_12h47.15.010,jersey_experiment_5,2023.2.2,Win32,59.88023952,,,,,,,,,,,,,,,,1018.7859,1020.5849,1020.585,1022.3516,return,0.3337,,80.46875,,,,,,FBP-PT-81.png,0.45,1.2,55,1,,,,,,,,,,,,,,,,,,0,48,48,54,1,,,,,,,,,,,,,,,,,,,,,,,
,,,,,FALL23_088,21,Female,2024-01-23_12h47.15.010,jersey_experiment_5,2023.2.2,Win32,59.88023952,,,,,,,,,,,,,,,,1022.3517,1023.6455,1023.6455,1029.149,return,0.350099999,,69.27083333,,,,,,FBP-YG-17.png,0.43,1.2,34,0.5,,,,,,,,,,,,,,,,,,0,49,49,33,1,,,,,,,,,,,,,,,,,,,,,,,
,,,,,FALL23_088,21,Female,2024-01-23_12h47.15.010,jersey_experiment_5,2023.2.2,Win32,59.88023952,,,,,,,,,,,,,,,,1029.1492,1030.9467,1030.9467,1032.3259,return,0.4684,,37.36979167,,,,,,FBP-PT-71.png,0.4,1.2,48,1,,,,,,,,,,,,,,,,,,0,50,50,47,1,,,,,,,,,,,,,,,,,,,,,,,
,,,,,FALL23_088,21,Female,2024-01-23_12h47.15.010,jersey_experiment_5,2023.2.2,Win32,59.88023952,,,,,,,,,,,,,,,,1032.3262,1033.614,1033.614,1036.5299,return,1.0499,,43.09895833,,,,,,FBP-YG-19.png,0.35,1.2,41,0.5,,,,,,,,,,,,,,,,,,0,51,51,40,1,,,,,,,,,,,,,,,,,,,,,,,
,,,,,FALL23_088,21,Female,2024-01-23_12h47.15.010,jersey_experiment_5,2023.2.2,Win32,59.88023952,,,,,,,,,,,,,,,,1036.53,1037.8242,1037.8242,1045.4883,return,0.140599999,,56.77083333,,,,,,FBP-YG-18.png,0.37,1.2,37,0.5,,,,,,,,,,,,,,,,,,0,52,52,36,1,,,,,,,,,,,,,,,,,,,,,,,
,,,,,FALL23_088,21,Female,2024-01-23_12h47.15.010,jersey_experiment_5,2023.2.2,Win32,59.88023952,,,,,,,,,,,,,,,,1045.4884,1047.276,1047.2761,1048.1762,return,0.1004,,91.27604167,,,,,,FBP-PT-91.png,0.45,1.2,60,1,,,,,,,,,,,,,,,,,,0,53,53,59,1,,,,,,,,,,,,,,,,,,,,,,,
,,,,,FALL23_088,21,Female,2024-01-23_12h47.15.010,jersey_experiment_5,2023.2.2,Win32,59.88023952,,,,,,,,,,,,,,,,1048.1764,1049.4704,1049.4705,1050.1255,return,0.100200001,,89.84375,,,,,,FBP-YG-18.png,0.43,1.2,39,0.5,,,,,,,,,,,,,,,,,,0,54,54,38,1,,,,,,,,,,,,,,,,,,,,,,,
,,,,,FALL23_088,21,Female,2024-01-23_12h47.15.010,jersey_experiment_5,2023.2.2,Win32,59.88023952,,,,,,,,,,,,,,,,1050.1257,1051.9245,1051.9245,1054.5739,return,1.134700001,,23.046875,,,,,,FBP-OG-19.png,0.35,1.2,11,1,,,,,,,,,,,,,,,,,,0,55,55,10,1,,,,,,,,,,,,,,,,,,,,,,,
,,,,,FALL23_088,21,Female,2024-01-23_12h47.15.010,jersey_experiment_5,2023.2.2,Win32,59.88023952,,,,,,,,,,,,,,,,1054.574,1055.8682,1055.8682,1057.8841,return,0.8945,,84.375,,,,,,FBP-RB-91.png,0.45,1.2,30,0.5,,,,,,,,,,,,,,,,,,0,56,56,29,1,,,,,,,,,,,,,,,,,,,,,,,
,,,,,FALL23_088,21,Female,2024-01-23_12h47.15.010,jersey_experiment_5,2023.2.2,Win32,59.88023952,,,,,,,,,,,,,,,,1057.8843,1059.1838,1059.1838,1060.4054,return,0.4501,,88.28125,,,,,,FBP-RB-81.png,0.45,1.2,25,0.5,,,,,,,,,,,,,,,,,,0,57,57,24,1,,,,,,,,,,,,,,,,,,,,,,,
,,,,,FALL23_088,21,Female,2024-01-23_12h47.15.010,jersey_experiment_5,2023.2.2,Win32,59.88023952,,,,,,,,,,,,,,,,1060.4056,1062.1994,1062.1995,1064.1488,return,0.5693,,33.59375,,,,,,FBP-OG-19.png,0.37,1.2,12,1,,,,,,,,,,,,,,,,,,0,58,58,11,1,,,,,,,,,,,,,,,,,,,,,,,
,,,,,FALL23_088,21,Female,2024-01-23_12h47.15.010,jersey_experiment_5,2023.2.2,Win32,59.88023952,,,,,,,,,,,,,,,,1064.1489,1065.9482,1065.9482,1068.1678,return,0.5486,,25.390625,,,,,,FBP-PT-91.png,0.35,1.2,56,1,,,,,,,,,,,,,,,,,,0,59,59,55,1,,,,,,,,,,,,,,,,,,,,,,,
,,,,,FALL23_088,21,Female,2024-01-23_12h47.15.010,jersey_experiment_5,2023.2.2,Win32,59.88023952,,,,,,,,,,,,,,,,,,,,,,,,,,,,,,,,,,,,,,,,,,,,,,,,,,,,,,,,1068.1681,1075.3507,return,7.1643,,,,,,,,,,,,,,,,,,,
,,,,,FALL23_088,21,Female,2024-01-23_12h47.15.010,jersey_experiment_5,2023.2.2,Win32,59.88023952,,,,,,,,,,,,,,,,,,,,,,,,,,,,,,,,,,,,,,,,,,,,,,,,,,,,,,,,,,,,,1075.3507,1084.0259,1,6.0764,return,2.5658,,,,,,,,,,,,
,,,,,FALL23_088,21,Female,2024-01-23_12h47.15.010,jersey_experiment_5,2023.2.2,Win32,59.88023952,,,,,,,,,,,,,,,,,,,,,,,,,,,,,,,,,,,,,,,,,,,,,,,,,,,,,,,,,,,,,,,,,,,,1084.0302,1140.9836,Is it based on perception from previously viewed information to gauge an estimated category?,right,47.9842,,,,,,
,,,,,FALL23_088,21,Female,2024-01-23_12h47.15.010,jersey_experiment_5,2023.2.2,Win32,59.88023952,,,,,,,,,,,,,,,,,,,,,,,,,,,,,,,,,,,,,,,,,,,,,,,,,,,,,,,,,,,,,,,,,,,,,,,,,,1140.9837,1147.1382,return,6.137,