requirements.started,requirements.stopped,key_resp_3.keys,key_resp_3.rt,key_resp_3.duration,Subject ID,Age,Gender,date,expName,psychopyVersion,OS,frameRate,instructions1.started,instructions1.stopped,key_resp.keys,key_resp.rt,key_resp.duration,example.started,example.stopped,enter_2.keys,enter_2.rt,enter_2.duration,instructions2.started,instructions2.stopped,enter_3.keys,enter_3.rt,enter_3.duration,image.started,image.stopped,slider_2.started,slider_2.stopped,next.keys,next.rt,next.duration,slider.response,trial_block_1.thisRepN,trial_block_1.thisTrialN,trial_block_1.thisN,trial_block_1.thisIndex,trial_block_1.ran,Path,Width,Height,Index,Duration,trial_block_2.thisRepN,trial_block_2.thisTrialN,trial_block_2.thisN,trial_block_2.thisIndex,trial_block_2.ran,rest_break.started,rest_break.stopped,end_break.started,end_break.stopped,key_resp_5.keys,key_resp_5.rt,key_resp_5.duration,trial_block_3.thisRepN,trial_block_3.thisTrialN,trial_block_3.thisN,trial_block_3.thisIndex,trial_block_3.ran,trial_block_4.thisRepN,trial_block_4.thisTrialN,trial_block_4.thisN,trial_block_4.thisIndex,trial_block_4.ran,questions_intro.started,questions_intro.stopped,enter_12.keys,enter_12.rt,enter_12.duration,question2.started,question2.stopped,question_doingbest.response,question_doingbest.rt,enter_15.keys,enter_15.rt,enter_15.duration,pattern.started,pattern.stopped,pattern_2.text,enter_17.keys,enter_17.rt,enter_17.duration,thankyou.started,thankyou.stopped,enter_14.keys,enter_14.rt,enter_14.duration
0.0002,9.594,return,9.5871,,WIN24_064,19,Male ,2024-02-15_14h59.57.085,jersey_experiment_5,2023.2.2,Win32,85.47008547,,,,,,,,,,,,,,,,,,,,,,,,,,,,,,,,,,,,,,,,,,,,,,,,,,,,,,,,,,,,,,,,,,,,,,,,,,,,,,
,,,,,WIN24_064,19,Male ,2024-02-15_14h59.57.085,jersey_experiment_5,2023.2.2,Win32,85.47008547,9.5941,15.9825,return,6.3668,,,,,,,,,,,,,,,,,,,,,,,,,,,,,,,,,,,,,,,,,,,,,,,,,,,,,,,,,,,,,,,,,,,,,,,,,,
,,,,,WIN24_064,19,Male ,2024-02-15_14h59.57.085,jersey_experiment_5,2023.2.2,Win32,85.47008547,,,,,,15.9825,21.5356,return,5.5145,,,,,,,,,,,,,,,,,,,,,,,,,,,,,,,,,,,,,,,,,,,,,,,,,,,,,,,,,,,,,,,,,,,,,
,,,,,WIN24_064,19,Male ,2024-02-15_14h59.57.085,jersey_experiment_5,2023.2.2,Win32,85.47008547,,,,,,,,,,,21.5356,38.6068,return,17.0595,,,,,,,,,,,,,,,,,,,,,,,,,,,,,,,,,,,,,,,,,,,,,,,,,,,,,,,,,,,,,,,,
,,,,,WIN24_064,19,Male ,2024-02-15_14h59.57.085,jersey_experiment_5,2023.2.2,Win32,85.47008547,,,,,,,,,,,,,,,,38.613,40.4066,40.4066,46.842,return,2.5566,,75,0,0,0,26,1,FBP-RB-19.png,0.37,1.2,27,1,,,,,,,,,,,,,,,,,,,,,,,,,,,,,,,,,,,,,,,,,,,,,
,,,,,WIN24_064,19,Male ,2024-02-15_14h59.57.085,jersey_experiment_5,2023.2.2,Win32,85.47008547,,,,,,,,,,,,,,,,46.8463,48.6421,48.6421,51.3833,return,0.8083,,74.73958333,0,1,1,31,1,FBP-YG-71.png,0.37,1.2,32,1,,,,,,,,,,,,,,,,,,,,,,,,,,,,,,,,,,,,,,,,,,,,,
,,,,,WIN24_064,19,Male ,2024-02-15_14h59.57.085,jersey_experiment_5,2023.2.2,Win32,85.47008547,,,,,,,,,,,,,,,,51.3836,52.6776,52.6776,56.6189,return,1.2036,,50.13020833,0,2,2,55,1,FBP-PT-19.png,0.35,1.2,56,0.5,,,,,,,,,,,,,,,,,,,,,,,,,,,,,,,,,,,,,,,,,,,,,
,,,,,WIN24_064,19,Male ,2024-02-15_14h59.57.085,jersey_experiment_5,2023.2.2,Win32,85.47008547,,,,,,,,,,,,,,,,56.6192,58.4191,58.4191,61.0426,return,0.894,,99.21875,0,3,3,29,1,FBP-RB-19.png,0.45,1.2,30,1,,,,,,,,,,,,,,,,,,,,,,,,,,,,,,,,,,,,,,,,,,,,,
,,,,,WIN24_064,19,Male ,2024-02-15_14h59.57.085,jersey_experiment_5,2023.2.2,Win32,85.47008547,,,,,,,,,,,,,,,,61.0429,62.3368,62.3368,64.9722,return,1.0975,,50.390625,0,4,4,1,1,FBP-OG-71.png,0.37,1.2,2,0.5,,,,,,,,,,,,,,,,,,,,,,,,,,,,,,,,,,,,,,,,,,,,,
,,,,,WIN24_064,19,Male ,2024-02-15_14h59.57.085,jersey_experiment_5,2023.2.2,Win32,85.47008547,,,,,,,,,,,,,,,,64.9723,66.2663,66.2664,69.09,return,0.8141,,75.78125,0,5,5,13,1,FBP-OG-91.png,0.43,1.2,14,0.5,,,,,,,,,,,,,,,,,,,,,,,,,,,,,,,,,,,,,,,,,,,,,
,,,,,WIN24_064,19,Male ,2024-02-15_14h59.57.085,jersey_experiment_5,2023.2.2,Win32,85.47008547,,,,,,,,,,,,,,,,69.0902,70.89,70.89,74.6903,return,0.8244,,99.73958333,0,6,6,34,1,FBP-YG-71.png,0.45,1.2,35,1,,,,,,,,,,,,,,,,,,,,,,,,,,,,,,,,,,,,,,,,,,,,,
,,,,,WIN24_064,19,Male ,2024-02-15_14h59.57.085,jersey_experiment_5,2023.2.2,Win32,85.47008547,,,,,,,,,,,,,,,,74.6905,75.9843,75.9843,78.3844,return,0.6953,,23.828125,0,7,7,10,1,FBP-OG-91.png,0.35,1.2,11,0.5,,,,,,,,,,,,,,,,,,,,,,,,,,,,,,,,,,,,,,,,,,,,,
,,,,,WIN24_064,19,Male ,2024-02-15_14h59.57.085,jersey_experiment_5,2023.2.2,Win32,85.47008547,,,,,,,,,,,,,,,,78.3846,80.1845,80.1845,81.9846,return,0.6489,,74.47916667,0,8,8,18,1,FBP-RB-17.png,0.43,1.2,19,1,,,,,,,,,,,,,,,,,,,,,,,,,,,,,,,,,,,,,,,,,,,,,
,,,,,WIN24_064,19,Male ,2024-02-15_14h59.57.085,jersey_experiment_5,2023.2.2,Win32,85.47008547,,,,,,,,,,,,,,,,81.9848,83.2787,83.2787,85.867,return,0.8165,,74.73958333,0,9,9,12,1,FBP-OG-91.png,0.4,1.2,13,0.5,,,,,,,,,,,,,,,,,,,,,,,,,,,,,,,,,,,,,,,,,,,,,
,,,,,WIN24_064,19,Male ,2024-02-15_14h59.57.085,jersey_experiment_5,2023.2.2,Win32,85.47008547,,,,,,,,,,,,,,,,85.8672,87.667,87.6671,95.7144,return,4.4943,,26.04166667,0,10,10,30,1,FBP-YG-71.png,0.35,1.2,31,1,,,,,,,,,,,,,,,,,,,,,,,,,,,,,,,,,,,,,,,,,,,,,
,,,,,WIN24_064,19,Male ,2024-02-15_14h59.57.085,jersey_experiment_5,2023.2.2,Win32,85.47008547,,,,,,,,,,,,,,,,95.7187,97.5147,97.5147,100.444,return,1.0259,,99.73958333,0,11,11,44,1,FBP-YG-91.png,0.45,1.2,45,1,,,,,,,,,,,,,,,,,,,,,,,,,,,,,,,,,,,,,,,,,,,,,
,,,,,WIN24_064,19,Male ,2024-02-15_14h59.57.085,jersey_experiment_5,2023.2.2,Win32,85.47008547,,,,,,,,,,,,,,,,100.4441,101.7382,101.7382,104.4443,return,0.6387,,50.26041667,0,12,12,11,1,FBP-OG-91.png,0.37,1.2,12,0.5,,,,,,,,,,,,,,,,,,,,,,,,,,,,,,,,,,,,,,,,,,,,,
,,,,,WIN24_064,19,Male ,2024-02-15_14h59.57.085,jersey_experiment_5,2023.2.2,Win32,85.47008547,,,,,,,,,,,,,,,,104.4444,105.7383,105.7384,109.7856,return,1.146,,98.95833333,0,13,13,59,1,FBP-PT-19.png,0.45,1.2,60,0.5,,,,,,,,,,,,,,,,,,,,,,,,,,,,,,,,,,,,,,,,,,,,,
,,,,,WIN24_064,19,Male ,2024-02-15_14h59.57.085,jersey_experiment_5,2023.2.2,Win32,85.47008547,,,,,,,,,,,,,,,,109.7858,111.5856,111.5857,114.7387,return,1.7072,,74.609375,0,14,14,24,1,FBP-RB-18.png,0.45,1.2,25,1,,,,,,,,,,,,,,,,,,,,,,,,,,,,,,,,,,,,,,,,,,,,,
,,,,,WIN24_064,19,Male ,2024-02-15_14h59.57.085,jersey_experiment_5,2023.2.2,Win32,85.47008547,,,,,,,,,,,,,,,,114.739,116.5388,116.5388,118.0095,return,0.3009,,24.86979167,0,15,15,41,1,FBP-YG-91.png,0.37,1.2,42,1,,,,,,,,,,,,,,,,,,,,,,,,,,,,,,,,,,,,,,,,,,,,,
,,,,,WIN24_064,19,Male ,2024-02-15_14h59.57.085,jersey_experiment_5,2023.2.2,Win32,85.47008547,,,,,,,,,,,,,,,,118.0097,119.3036,119.3036,122.2684,return,0.8727,,99.47916667,0,16,16,49,1,FBP-PT-17.png,0.45,1.2,50,0.5,,,,,,,,,,,,,,,,,,,,,,,,,,,,,,,,,,,,,,,,,,,,,
,,,,,WIN24_064,19,Male ,2024-02-15_14h59.57.085,jersey_experiment_5,2023.2.2,Win32,85.47008547,,,,,,,,,,,,,,,,122.2687,123.5627,123.5627,127.0333,return,2.1713,,26.04166667,0,17,17,56,1,FBP-PT-19.png,0.37,1.2,57,0.5,,,,,,,,,,,,,,,,,,,,,,,,,,,,,,,,,,,,,,,,,,,,,
,,,,,WIN24_064,19,Male ,2024-02-15_14h59.57.085,jersey_experiment_5,2023.2.2,Win32,85.47008547,,,,,,,,,,,,,,,,127.0335,128.8333,128.8333,132.3158,return,0.6614,,74.47916667,0,18,18,17,1,FBP-RB-17.png,0.4,1.2,18,1,,,,,,,,,,,,,,,,,,,,,,,,,,,,,,,,,,,,,,,,,,,,,
,,,,,WIN24_064,19,Male ,2024-02-15_14h59.57.085,jersey_experiment_5,2023.2.2,Win32,85.47008547,,,,,,,,,,,,,,,,132.3161,134.1157,134.1158,136.716,return,1.0982,,75.13020833,0,19,19,27,1,FBP-RB-19.png,0.4,1.2,28,1,,,,,,,,,,,,,,,,,,,,,,,,,,,,,,,,,,,,,,,,,,,,,
,,,,,WIN24_064,19,Male ,2024-02-15_14h59.57.085,jersey_experiment_5,2023.2.2,Win32,85.47008547,,,,,,,,,,,,,,,,136.716,138.0104,138.0104,141.5279,return,0.6767,,87.890625,0,20,20,9,1,FBP-OG-81.png,0.45,1.2,10,0.5,,,,,,,,,,,,,,,,,,,,,,,,,,,,,,,,,,,,,,,,,,,,,
,,,,,WIN24_064,19,Male ,2024-02-15_14h59.57.085,jersey_experiment_5,2023.2.2,Win32,85.47008547,,,,,,,,,,,,,,,,141.5282,143.3281,143.3282,145.1986,return,0.6129,,12.36979167,0,21,21,16,1,FBP-RB-17.png,0.37,1.2,17,1,,,,,,,,,,,,,,,,,,,,,,,,,,,,,,,,,,,,,,,,,,,,,
,,,,,WIN24_064,19,Male ,2024-02-15_14h59.57.085,jersey_experiment_5,2023.2.2,Win32,85.47008547,,,,,,,,,,,,,,,,145.1989,146.4928,146.4928,149.3047,return,0.4897,,4.427083333,0,22,22,50,1,FBP-PT-18.png,0.35,1.2,51,0.5,,,,,,,,,,,,,,,,,,,,,,,,,,,,,,,,,,,,,,,,,,,,,
,,,,,WIN24_064,19,Male ,2024-02-15_14h59.57.085,jersey_experiment_5,2023.2.2,Win32,85.47008547,,,,,,,,,,,,,,,,149.305,151.1049,151.1049,152.4107,return,0.2524,,25,0,23,23,21,1,FBP-RB-18.png,0.37,1.2,22,1,,,,,,,,,,,,,,,,,,,,,,,,,,,,,,,,,,,,,,,,,,,,,
,,,,,WIN24_064,19,Male ,2024-02-15_14h59.57.085,jersey_experiment_5,2023.2.2,Win32,85.47008547,,,,,,,,,,,,,,,,152.411,154.2108,154.2109,157.3404,return,0.7193,,78.515625,0,24,24,19,1,FBP-RB-17.png,0.45,1.2,20,1,,,,,,,,,,,,,,,,,,,,,,,,,,,,,,,,,,,,,,,,,,,,,
,,,,,WIN24_064,19,Male ,2024-02-15_14h59.57.085,jersey_experiment_5,2023.2.2,Win32,85.47008547,,,,,,,,,,,,,,,,157.3406,158.6345,158.6346,160.9405,return,0.5307,,86.71875,0,25,25,53,1,FBP-PT-18.png,0.43,1.2,54,0.5,,,,,,,,,,,,,,,,,,,,,,,,,,,,,,,,,,,,,,,,,,,,,
,,,,,WIN24_064,19,Male ,2024-02-15_14h59.57.085,jersey_experiment_5,2023.2.2,Win32,85.47008547,,,,,,,,,,,,,,,,160.9408,162.2344,162.2345,164.1523,return,0.5372,,74.73958333,0,26,26,8,1,FBP-OG-81.png,0.43,1.2,9,0.5,,,,,,,,,,,,,,,,,,,,,,,,,,,,,,,,,,,,,,,,,,,,,
,,,,,WIN24_064,19,Male ,2024-02-15_14h59.57.085,jersey_experiment_5,2023.2.2,Win32,85.47008547,,,,,,,,,,,,,,,,164.1525,165.4465,165.4465,167.6229,return,0.3248,,50.13020833,0,27,27,2,1,FBP-OG-71.png,0.4,1.2,3,0.5,,,,,,,,,,,,,,,,,,,,,,,,,,,,,,,,,,,,,,,,,,,,,
,,,,,WIN24_064,19,Male ,2024-02-15_14h59.57.085,jersey_experiment_5,2023.2.2,Win32,85.47008547,,,,,,,,,,,,,,,,167.623,169.4232,169.4232,170.6585,return,0.1974,,61.328125,0,28,28,33,1,FBP-YG-71.png,0.43,1.2,34,1,,,,,,,,,,,,,,,,,,,,,,,,,,,,,,,,,,,,,,,,,,,,,
,,,,,WIN24_064,19,Male ,2024-02-15_14h59.57.085,jersey_experiment_5,2023.2.2,Win32,85.47008547,,,,,,,,,,,,,,,,170.6587,172.4585,172.4585,175.3763,return,0.6128,,74.34895833,0,29,29,28,1,FBP-RB-19.png,0.43,1.2,29,1,,,,,,,,,,,,,,,,,,,,,,,,,,,,,,,,,,,,,,,,,,,,,
,,,,,WIN24_064,19,Male ,2024-02-15_14h59.57.085,jersey_experiment_5,2023.2.2,Win32,85.47008547,,,,,,,,,,,,,,,,175.3765,177.1764,177.1764,179.1531,return,0.175,,73.828125,0,30,30,38,1,FBP-YG-81.png,0.43,1.2,39,1,,,,,,,,,,,,,,,,,,,,,,,,,,,,,,,,,,,,,,,,,,,,,
,,,,,WIN24_064,19,Male ,2024-02-15_14h59.57.085,jersey_experiment_5,2023.2.2,Win32,85.47008547,,,,,,,,,,,,,,,,179.1532,180.447,180.4471,182.6825,return,0.288,,22.265625,0,31,31,45,1,FBP-PT-17.png,0.35,1.2,46,0.5,,,,,,,,,,,,,,,,,,,,,,,,,,,,,,,,,,,,,,,,,,,,,
,,,,,WIN24_064,19,Male ,2024-02-15_14h59.57.085,jersey_experiment_5,2023.2.2,Win32,85.47008547,,,,,,,,,,,,,,,,182.6827,184.4825,184.4825,186.7059,return,0.565,,75.26041667,0,32,32,23,1,FBP-RB-18.png,0.43,1.2,24,1,,,,,,,,,,,,,,,,,,,,,,,,,,,,,,,,,,,,,,,,,,,,,
,,,,,WIN24_064,19,Male ,2024-02-15_14h59.57.085,jersey_experiment_5,2023.2.2,Win32,85.47008547,,,,,,,,,,,,,,,,186.7063,188.0002,188.0002,191.1651,return,0.6967,,80.59895833,0,33,33,14,1,FBP-OG-91.png,0.45,1.2,15,0.5,,,,,,,,,,,,,,,,,,,,,,,,,,,,,,,,,,,,,,,,,,,,,
,,,,,WIN24_064,19,Male ,2024-02-15_14h59.57.085,jersey_experiment_5,2023.2.2,Win32,85.47008547,,,,,,,,,,,,,,,,191.1653,192.4593,192.4593,197.0006,return,2.9473,,50.91145833,0,34,34,7,1,FBP-OG-81.png,0.4,1.2,8,0.5,,,,,,,,,,,,,,,,,,,,,,,,,,,,,,,,,,,,,,,,,,,,,
,,,,,WIN24_064,19,Male ,2024-02-15_14h59.57.085,jersey_experiment_5,2023.2.2,Win32,85.47008547,,,,,,,,,,,,,,,,197.0008,198.2947,198.2948,201.4008,return,0.3718,,26.04166667,0,35,35,46,1,FBP-PT-17.png,0.37,1.2,47,0.5,,,,,,,,,,,,,,,,,,,,,,,,,,,,,,,,,,,,,,,,,,,,,
,,,,,WIN24_064,19,Male ,2024-02-15_14h59.57.085,jersey_experiment_5,2023.2.2,Win32,85.47008547,,,,,,,,,,,,,,,,201.401,202.695,202.695,208.3539,return,2.9051,,75,0,36,36,48,1,FBP-PT-17.png,0.43,1.2,49,0.5,,,,,,,,,,,,,,,,,,,,,,,,,,,,,,,,,,,,,,,,,,,,,
,,,,,WIN24_064,19,Male ,2024-02-15_14h59.57.085,jersey_experiment_5,2023.2.2,Win32,85.47008547,,,,,,,,,,,,,,,,208.3542,210.1542,210.1542,212.0131,return,0.1658,,4.6875,0,37,37,40,1,FBP-YG-91.png,0.35,1.2,41,1,,,,,,,,,,,,,,,,,,,,,,,,,,,,,,,,,,,,,,,,,,,,,
,,,,,WIN24_064,19,Male ,2024-02-15_14h59.57.085,jersey_experiment_5,2023.2.2,Win32,85.47008547,,,,,,,,,,,,,,,,212.0133,213.307,213.307,218.0014,return,0.1652,,38.15104167,0,38,38,57,1,FBP-PT-19.png,0.4,1.2,58,0.5,,,,,,,,,,,,,,,,,,,,,,,,,,,,,,,,,,,,,,,,,,,,,
,,,,,WIN24_064,19,Male ,2024-02-15_14h59.57.085,jersey_experiment_5,2023.2.2,Win32,85.47008547,,,,,,,,,,,,,,,,218.0016,219.8015,219.8015,221.0957,return,0.2082,,18.75,0,39,39,25,1,FBP-RB-19.png,0.35,1.2,26,1,,,,,,,,,,,,,,,,,,,,,,,,,,,,,,,,,,,,,,,,,,,,,
,,,,,WIN24_064,19,Male ,2024-02-15_14h59.57.085,jersey_experiment_5,2023.2.2,Win32,85.47008547,,,,,,,,,,,,,,,,221.096,222.8956,222.8956,224.6957,return,0.1374,,56.90104167,0,40,40,32,1,FBP-YG-71.png,0.4,1.2,33,1,,,,,,,,,,,,,,,,,,,,,,,,,,,,,,,,,,,,,,,,,,,,,
,,,,,WIN24_064,19,Male ,2024-02-15_14h59.57.085,jersey_experiment_5,2023.2.2,Win32,85.47008547,,,,,,,,,,,,,,,,224.696,226.4958,226.4959,228.4017,return,0.1649,,73.828125,0,41,41,42,1,FBP-YG-91.png,0.4,1.2,43,1,,,,,,,,,,,,,,,,,,,,,,,,,,,,,,,,,,,,,,,,,,,,,
,,,,,WIN24_064,19,Male ,2024-02-15_14h59.57.085,jersey_experiment_5,2023.2.2,Win32,85.47008547,,,,,,,,,,,,,,,,228.4019,230.2019,230.2019,232.9549,return,0.3699,,99.609375,0,42,42,39,1,FBP-YG-81.png,0.45,1.2,40,1,,,,,,,,,,,,,,,,,,,,,,,,,,,,,,,,,,,,,,,,,,,,,
,,,,,WIN24_064,19,Male ,2024-02-15_14h59.57.085,jersey_experiment_5,2023.2.2,Win32,85.47008547,,,,,,,,,,,,,,,,232.9551,234.7549,234.7549,237.5432,return,1.2205,,11.19791667,0,43,43,15,1,FBP-RB-17.png,0.35,1.2,16,1,,,,,,,,,,,,,,,,,,,,,,,,,,,,,,,,,,,,,,,,,,,,,
,,,,,WIN24_064,19,Male ,2024-02-15_14h59.57.085,jersey_experiment_5,2023.2.2,Win32,85.47008547,,,,,,,,,,,,,,,,237.5434,239.3433,239.3433,241.4374,return,0.1903,,74.47916667,0,44,44,36,1,FBP-YG-81.png,0.37,1.2,37,1,,,,,,,,,,,,,,,,,,,,,,,,,,,,,,,,,,,,,,,,,,,,,
,,,,,WIN24_064,19,Male ,2024-02-15_14h59.57.085,jersey_experiment_5,2023.2.2,Win32,85.47008547,,,,,,,,,,,,,,,,241.4377,242.7316,242.7316,244.6024,return,0.1211,,26.171875,0,45,45,5,1,FBP-OG-81.png,0.35,1.2,6,0.5,,,,,,,,,,,,,,,,,,,,,,,,,,,,,,,,,,,,,,,,,,,,,
,,,,,WIN24_064,19,Male ,2024-02-15_14h59.57.085,jersey_experiment_5,2023.2.2,Win32,85.47008547,,,,,,,,,,,,,,,,244.6026,246.4024,246.4024,247.8379,return,0.0831,,87.23958333,0,46,46,43,1,FBP-YG-91.png,0.43,1.2,44,1,,,,,,,,,,,,,,,,,,,,,,,,,,,,,,,,,,,,,,,,,,,,,
,,,,,WIN24_064,19,Male ,2024-02-15_14h59.57.085,jersey_experiment_5,2023.2.2,Win32,85.47008547,,,,,,,,,,,,,,,,247.8382,249.6379,249.6379,250.8144,return,0.0702,,75.13020833,0,47,47,37,1,FBP-YG-81.png,0.4,1.2,38,1,,,,,,,,,,,,,,,,,,,,,,,,,,,,,,,,,,,,,,,,,,,,,
,,,,,WIN24_064,19,Male ,2024-02-15_14h59.57.085,jersey_experiment_5,2023.2.2,Win32,85.47008547,,,,,,,,,,,,,,,,250.8147,252.1085,252.1085,253.7204,return,0.0871,,75.13020833,0,48,48,52,1,FBP-PT-18.png,0.4,1.2,53,0.5,,,,,,,,,,,,,,,,,,,,,,,,,,,,,,,,,,,,,,,,,,,,,
,,,,,WIN24_064,19,Male ,2024-02-15_14h59.57.085,jersey_experiment_5,2023.2.2,Win32,85.47008547,,,,,,,,,,,,,,,,253.7205,255.5206,255.5207,256.991,return,0.0479,,25.52083333,0,49,49,20,1,FBP-RB-18.png,0.35,1.2,21,1,,,,,,,,,,,,,,,,,,,,,,,,,,,,,,,,,,,,,,,,,,,,,
,,,,,WIN24_064,19,Male ,2024-02-15_14h59.57.085,jersey_experiment_5,2023.2.2,Win32,85.47008547,,,,,,,,,,,,,,,,256.9913,258.2852,258.2852,260.7914,return,0.1722,,74.609375,0,50,50,58,1,FBP-PT-19.png,0.43,1.2,59,0.5,,,,,,,,,,,,,,,,,,,,,,,,,,,,,,,,,,,,,,,,,,,,,
,,,,,WIN24_064,19,Male ,2024-02-15_14h59.57.085,jersey_experiment_5,2023.2.2,Win32,85.47008547,,,,,,,,,,,,,,,,260.7916,262.0854,262.0855,263.7562,return,0.1803,,83.72395833,0,51,51,54,1,FBP-PT-18.png,0.45,1.2,55,0.5,,,,,,,,,,,,,,,,,,,,,,,,,,,,,,,,,,,,,,,,,,,,,
,,,,,WIN24_064,19,Male ,2024-02-15_14h59.57.085,jersey_experiment_5,2023.2.2,Win32,85.47008547,,,,,,,,,,,,,,,,263.7564,265.0504,265.0504,266.7915,return,0.1378,,19.921875,0,52,52,0,1,FBP-OG-71.png,0.35,1.2,1,0.5,,,,,,,,,,,,,,,,,,,,,,,,,,,,,,,,,,,,,,,,,,,,,
,,,,,WIN24_064,19,Male ,2024-02-15_14h59.57.085,jersey_experiment_5,2023.2.2,Win32,85.47008547,,,,,,,,,,,,,,,,266.7917,268.5915,268.5915,270.3916,return,0.1381,,73.56770833,0,53,53,22,1,FBP-RB-18.png,0.4,1.2,23,1,,,,,,,,,,,,,,,,,,,,,,,,,,,,,,,,,,,,,,,,,,,,,
,,,,,WIN24_064,19,Male ,2024-02-15_14h59.57.085,jersey_experiment_5,2023.2.2,Win32,85.47008547,,,,,,,,,,,,,,,,270.3919,272.1917,272.1917,273.2504,return,0.1648,,46.74479167,0,54,54,35,1,FBP-YG-81.png,0.35,1.2,36,1,,,,,,,,,,,,,,,,,,,,,,,,,,,,,,,,,,,,,,,,,,,,,
,,,,,WIN24_064,19,Male ,2024-02-15_14h59.57.085,jersey_experiment_5,2023.2.2,Win32,85.47008547,,,,,,,,,,,,,,,,273.2507,274.5446,274.5446,276.1565,return,0.3307,,80.46875,0,55,55,4,1,FBP-OG-71.png,0.45,1.2,5,0.5,,,,,,,,,,,,,,,,,,,,,,,,,,,,,,,,,,,,,,,,,,,,,
,,,,,WIN24_064,19,Male ,2024-02-15_14h59.57.085,jersey_experiment_5,2023.2.2,Win32,85.47008547,,,,,,,,,,,,,,,,276.1568,277.4506,277.4507,279.4153,return,0.0893,,74.08854167,0,56,56,6,1,FBP-OG-81.png,0.37,1.2,7,0.5,,,,,,,,,,,,,,,,,,,,,,,,,,,,,,,,,,,,,,,,,,,,,
,,,,,WIN24_064,19,Male ,2024-02-15_14h59.57.085,jersey_experiment_5,2023.2.2,Win32,85.47008547,,,,,,,,,,,,,,,,279.4155,280.7095,280.7096,282.4743,return,0.0997,,63.54166667,0,57,57,3,1,FBP-OG-71.png,0.43,1.2,4,0.5,,,,,,,,,,,,,,,,,,,,,,,,,,,,,,,,,,,,,,,,,,,,,
,,,,,WIN24_064,19,Male ,2024-02-15_14h59.57.085,jersey_experiment_5,2023.2.2,Win32,85.47008547,,,,,,,,,,,,,,,,282.4746,283.7684,283.7684,284.7921,return,0.1135,,56.51041667,0,58,58,51,1,FBP-PT-18.png,0.37,1.2,52,0.5,,,,,,,,,,,,,,,,,,,,,,,,,,,,,,,,,,,,,,,,,,,,,
,,,,,WIN24_064,19,Male ,2024-02-15_14h59.57.085,jersey_experiment_5,2023.2.2,Win32,85.47008547,,,,,,,,,,,,,,,,284.7924,286.0863,286.0863,287.004,return,0.1097,,56.51041667,0,59,59,47,1,FBP-PT-17.png,0.4,1.2,48,0.5,,,,,,,,,,,,,,,,,,,,,,,,,,,,,,,,,,,,,,,,,,,,,
,,,,,WIN24_064,19,Male ,2024-02-15_14h59.57.085,jersey_experiment_5,2023.2.2,Win32,85.47008547,,,,,,,,,,,,,,,,287.006,288.2981,288.2981,289.8864,return,0.0824,,38.54166667,,,,,,FBP-OG-18.png,0.4,1.2,8,0.5,0,0,0,7,1,,,,,,,,,,,,,,,,,,,,,,,,,,,,,,,,,,,,,,,,
,,,,,WIN24_064,19,Male ,2024-02-15_14h59.57.085,jersey_experiment_5,2023.2.2,Win32,85.47008547,,,,,,,,,,,,,,,,289.8867,291.1805,291.1806,292.6043,return,0.0955,,74.21875,,,,,,FBP-OG-18.png,0.45,1.2,10,0.5,0,1,1,9,1,,,,,,,,,,,,,,,,,,,,,,,,,,,,,,,,,,,,,,,,
,,,,,WIN24_064,19,Male ,2024-02-15_14h59.57.085,jersey_experiment_5,2023.2.2,Win32,85.47008547,,,,,,,,,,,,,,,,292.6045,294.4043,294.4043,295.2631,return,0.1076,,76.69270833,,,,,,FBP-RB-71.png,0.43,1.2,19,1,0,2,2,18,1,,,,,,,,,,,,,,,,,,,,,,,,,,,,,,,,,,,,,,,,
,,,,,WIN24_064,19,Male ,2024-02-15_14h59.57.085,jersey_experiment_5,2023.2.2,Win32,85.47008547,,,,,,,,,,,,,,,,295.2633,296.5571,296.5572,298.2515,return,0.0975,,60.80729167,,,,,,FBP-PT-71.png,0.43,1.2,49,0.5,0,3,3,48,1,,,,,,,,,,,,,,,,,,,,,,,,,,,,,,,,,,,,,,,,
,,,,,WIN24_064,19,Male ,2024-02-15_14h59.57.085,jersey_experiment_5,2023.2.2,Win32,85.47008547,,,,,,,,,,,,,,,,298.2517,299.5457,299.5457,300.7221,return,0.1405,,25.65104167,,,,,,FBP-OG-18.png,0.35,1.2,6,0.5,0,4,4,5,1,,,,,,,,,,,,,,,,,,,,,,,,,,,,,,,,,,,,,,,,
,,,,,WIN24_064,19,Male ,2024-02-15_14h59.57.085,jersey_experiment_5,2023.2.2,Win32,85.47008547,,,,,,,,,,,,,,,,300.7223,302.0163,302.0164,303.1693,return,0.165,,24.609375,,,,,,FBP-OG-18.png,0.37,1.2,7,0.5,0,5,5,6,1,,,,,,,,,,,,,,,,,,,,,,,,,,,,,,,,,,,,,,,,
,,,,,WIN24_064,19,Male ,2024-02-15_14h59.57.085,jersey_experiment_5,2023.2.2,Win32,85.47008547,,,,,,,,,,,,,,,,303.1696,304.4635,304.4635,305.7458,return,0.0472,,21.35416667,,,,,,FBP-PT-71.png,0.35,1.2,46,0.5,0,6,6,45,1,,,,,,,,,,,,,,,,,,,,,,,,,,,,,,,,,,,,,,,,
,,,,,WIN24_064,19,Male ,2024-02-15_14h59.57.085,jersey_experiment_5,2023.2.2,Win32,85.47008547,,,,,,,,,,,,,,,,305.7461,307.5461,307.5461,308.5577,return,0.0846,,81.51041667,,,,,,FBP-YG-18.png,0.45,1.2,40,1,0,7,7,39,1,,,,,,,,,,,,,,,,,,,,,,,,,,,,,,,,,,,,,,,,
,,,,,WIN24_064,19,Male ,2024-02-15_14h59.57.085,jersey_experiment_5,2023.2.2,Win32,85.47008547,,,,,,,,,,,,,,,,308.5578,309.8518,309.8519,311.2637,return,0.1322,,75.65104167,,,,,,FBP-PT-91.png,0.35,1.2,56,0.5,0,8,8,55,1,,,,,,,,,,,,,,,,,,,,,,,,,,,,,,,,,,,,,,,,
,,,,,WIN24_064,19,Male ,2024-02-15_14h59.57.085,jersey_experiment_5,2023.2.2,Win32,85.47008547,,,,,,,,,,,,,,,,311.2639,313.0638,313.0638,314.2404,return,0.1413,,86.71875,,,,,,FBP-RB-91.png,0.45,1.2,30,1,0,9,9,29,1,,,,,,,,,,,,,,,,,,,,,,,,,,,,,,,,,,,,,,,,
,,,,,WIN24_064,19,Male ,2024-02-15_14h59.57.085,jersey_experiment_5,2023.2.2,Win32,85.47008547,,,,,,,,,,,,,,,,314.2406,316.0405,316.0405,317.4405,return,0.1653,,88.28125,,,,,,FBP-RB-71.png,0.45,1.2,20,1,0,10,10,19,1,,,,,,,,,,,,,,,,,,,,,,,,,,,,,,,,,,,,,,,,
,,,,,WIN24_064,19,Male ,2024-02-15_14h59.57.085,jersey_experiment_5,2023.2.2,Win32,85.47008547,,,,,,,,,,,,,,,,317.4408,318.7344,318.7345,319.9463,return,0.1456,,69.66145833,,,,,,FBP-PT-81.png,0.37,1.2,52,0.5,0,11,11,51,1,,,,,,,,,,,,,,,,,,,,,,,,,,,,,,,,,,,,,,,,
,,,,,WIN24_064,19,Male ,2024-02-15_14h59.57.085,jersey_experiment_5,2023.2.2,Win32,85.47008547,,,,,,,,,,,,,,,,319.9466,321.2405,321.2405,323.417,return,0.1245,,48.30729167,,,,,,FBP-OG-17.png,0.35,1.2,1,0.5,0,12,12,0,1,,,,,,,,,,,,,,,,,,,,,,,,,,,,,,,,,,,,,,,,
,,,,,WIN24_064,19,Male ,2024-02-15_14h59.57.085,jersey_experiment_5,2023.2.2,Win32,85.47008547,,,,,,,,,,,,,,,,323.4173,325.2173,325.2173,326.4408,return,0.0896,,69.27083333,,,,,,FBP-RB-81.png,0.4,1.2,23,1,0,13,13,22,1,,,,,,,,,,,,,,,,,,,,,,,,,,,,,,,,,,,,,,,,
,,,,,WIN24_064,19,Male ,2024-02-15_14h59.57.085,jersey_experiment_5,2023.2.2,Win32,85.47008547,,,,,,,,,,,,,,,,326.4409,327.7349,327.7349,329.0526,return,0.0859,,78.90625,,,,,,FBP-PT-91.png,0.45,1.2,60,0.5,0,14,14,59,1,,,,,,,,,,,,,,,,,,,,,,,,,,,,,,,,,,,,,,,,
,,,,,WIN24_064,19,Male ,2024-02-15_14h59.57.085,jersey_experiment_5,2023.2.2,Win32,85.47008547,,,,,,,,,,,,,,,,329.0528,330.8527,330.8528,331.7115,return,0.0838,,61.328125,,,,,,FBP-YG-18.png,0.4,1.2,38,1,0,15,15,37,1,,,,,,,,,,,,,,,,,,,,,,,,,,,,,,,,,,,,,,,,
,,,,,WIN24_064,19,Male ,2024-02-15_14h59.57.085,jersey_experiment_5,2023.2.2,Win32,85.47008547,,,,,,,,,,,,,,,,331.7117,333.0057,333.0057,334.3822,return,0.0726,,87.63020833,,,,,,FBP-OG-19.png,0.45,1.2,15,0.5,0,16,16,14,1,,,,,,,,,,,,,,,,,,,,,,,,,,,,,,,,,,,,,,,,
,,,,,WIN24_064,19,Male ,2024-02-15_14h59.57.085,jersey_experiment_5,2023.2.2,Win32,85.47008547,,,,,,,,,,,,,,,,334.3824,335.6763,335.6764,337.5941,return,0.0751,,59.375,,,,,,FBP-OG-17.png,0.4,1.2,3,0.5,0,17,17,2,1,,,,,,,,,,,,,,,,,,,,,,,,,,,,,,,,,,,,,,,,
,,,,,WIN24_064,19,Male ,2024-02-15_14h59.57.085,jersey_experiment_5,2023.2.2,Win32,85.47008547,,,,,,,,,,,,,,,,337.5943,339.3942,339.3942,340.8883,return,0.1134,,50.13020833,,,,,,FBP-RB-81.png,0.37,1.2,22,1,0,18,18,21,1,,,,,,,,,,,,,,,,,,,,,,,,,,,,,,,,,,,,,,,,
,,,,,WIN24_064,19,Male ,2024-02-15_14h59.57.085,jersey_experiment_5,2023.2.2,Win32,85.47008547,,,,,,,,,,,,,,,,340.8886,342.1824,342.1825,343.5825,return,0.1659,,79.03645833,,,,,,FBP-OG-17.png,0.45,1.2,5,0.5,0,19,19,4,1,,,,,,,,,,,,,,,,,,,,,,,,,,,,,,,,,,,,,,,,
,,,,,WIN24_064,19,Male ,2024-02-15_14h59.57.085,jersey_experiment_5,2023.2.2,Win32,85.47008547,,,,,,,,,,,,,,,,343.5828,344.8765,344.8765,346.3121,return,0.1824,,82.68229167,,,,,,FBP-OG-18.png,0.43,1.2,9,0.5,0,20,20,8,1,,,,,,,,,,,,,,,,,,,,,,,,,,,,,,,,,,,,,,,,
,,,,,WIN24_064,19,Male ,2024-02-15_14h59.57.085,jersey_experiment_5,2023.2.2,Win32,85.47008547,,,,,,,,,,,,,,,,346.3123,348.1122,348.1124,349.218,return,0.1648,,83.46354167,,,,,,FBP-YG-18.png,0.43,1.2,39,1,0,21,21,38,1,,,,,,,,,,,,,,,,,,,,,,,,,,,,,,,,,,,,,,,,
,,,,,WIN24_064,19,Male ,2024-02-15_14h59.57.085,jersey_experiment_5,2023.2.2,Win32,85.47008547,,,,,,,,,,,,,,,,349.2183,351.0182,351.0182,352.3476,return,0.1808,,66.53645833,,,,,,FBP-YG-18.png,0.37,1.2,37,1,0,22,22,36,1,,,,,,,,,,,,,,,,,,,,,,,,,,,,,,,,,,,,,,,,
,,,,,WIN24_064,19,Male ,2024-02-15_14h59.57.085,jersey_experiment_5,2023.2.2,Win32,85.47008547,,,,,,,,,,,,,,,,352.3478,354.1477,354.1477,355.1124,return,0.0872,,45.05208333,,,,,,FBP-YG-18.png,0.35,1.2,36,1,0,23,23,35,1,,,,,,,,,,,,,,,,,,,,,,,,,,,,,,,,,,,,,,,,
,,,,,WIN24_064,19,Male ,2024-02-15_14h59.57.085,jersey_experiment_5,2023.2.2,Win32,85.47008547,,,,,,,,,,,,,,,,355.1126,356.4065,356.4065,357.8654,return,0.1243,,44.40104167,,,,,,FBP-OG-17.png,0.37,1.2,2,0.5,0,24,24,1,1,,,,,,,,,,,,,,,,,,,,,,,,,,,,,,,,,,,,,,,,
,,,,,WIN24_064,19,Male ,2024-02-15_14h59.57.085,jersey_experiment_5,2023.2.2,Win32,85.47008547,,,,,,,,,,,,,,,,357.8656,359.1596,359.1596,361.7714,return,0.203,,67.83854167,,,,,,FBP-OG-17.png,0.43,1.2,4,0.5,0,25,25,3,1,,,,,,,,,,,,,,,,,,,,,,,,,,,,,,,,,,,,,,,,
,,,,,WIN24_064,19,Male ,2024-02-15_14h59.57.085,jersey_experiment_5,2023.2.2,Win32,85.47008547,,,,,,,,,,,,,,,,361.7717,363.5715,363.5715,364.6539,return,0.2268,,66.40625,,,,,,FBP-RB-71.png,0.37,1.2,17,1,0,26,26,16,1,,,,,,,,,,,,,,,,,,,,,,,,,,,,,,,,,,,,,,,,
,,,,,WIN24_064,19,Male ,2024-02-15_14h59.57.085,jersey_experiment_5,2023.2.2,Win32,85.47008547,,,,,,,,,,,,,,,,364.6541,365.9479,365.948,367.1012,return,0.166,,74.21875,,,,,,FBP-PT-71.png,0.45,1.2,50,0.5,0,27,27,49,1,,,,,,,,,,,,,,,,,,,,,,,,,,,,,,,,,,,,,,,,
,,,,,WIN24_064,19,Male ,2024-02-15_14h59.57.085,jersey_experiment_5,2023.2.2,Win32,85.47008547,,,,,,,,,,,,,,,,367.1013,368.3953,368.3953,369.3246,return,0.1078,,75.390625,,,,,,FBP-PT-81.png,0.43,1.2,54,0.5,0,28,28,53,1,,,,,,,,,,,,,,,,,,,,,,,,,,,,,,,,,,,,,,,,
,,,,,WIN24_064,19,Male ,2024-02-15_14h59.57.085,jersey_experiment_5,2023.2.2,Win32,85.47008547,,,,,,,,,,,,,,,,369.3249,371.1248,371.1248,372.0895,return,0.2405,,75.390625,,,,,,FBP-RB-91.png,0.43,1.2,29,1,0,29,29,28,1,,,,,,,,,,,,,,,,,,,,,,,,,,,,,,,,,,,,,,,,
,,,,,WIN24_064,19,Male ,2024-02-15_14h59.57.085,jersey_experiment_5,2023.2.2,Win32,85.47008547,,,,,,,,,,,,,,,,372.0897,373.8895,373.8895,376.0308,return,0.4345,,77.86458333,,,,,,FBP-RB-71.png,0.4,1.2,18,1,0,30,30,17,1,,,,,,,,,,,,,,,,,,,,,,,,,,,,,,,,,,,,,,,,
,,,,,WIN24_064,19,Male ,2024-02-15_14h59.57.085,jersey_experiment_5,2023.2.2,Win32,85.47008547,,,,,,,,,,,,,,,,376.0311,377.3249,377.3249,378.6662,return,0.1467,,69.921875,,,,,,FBP-PT-91.png,0.4,1.2,58,0.5,0,31,31,57,1,,,,,,,,,,,,,,,,,,,,,,,,,,,,,,,,,,,,,,,,
,,,,,WIN24_064,19,Male ,2024-02-15_14h59.57.085,jersey_experiment_5,2023.2.2,Win32,85.47008547,,,,,,,,,,,,,,,,378.6664,380.4664,380.4664,381.3369,return,0.1472,,76.953125,,,,,,FBP-YG-19.png,0.45,1.2,45,1,0,32,32,44,1,,,,,,,,,,,,,,,,,,,,,,,,,,,,,,,,,,,,,,,,
,,,,,WIN24_064,19,Male ,2024-02-15_14h59.57.085,jersey_experiment_5,2023.2.2,Win32,85.47008547,,,,,,,,,,,,,,,,381.3371,383.137,383.137,384.4075,return,0.2204,,79.03645833,,,,,,FBP-YG-17.png,0.43,1.2,34,1,0,33,33,33,1,,,,,,,,,,,,,,,,,,,,,,,,,,,,,,,,,,,,,,,,
,,,,,WIN24_064,19,Male ,2024-02-15_14h59.57.085,jersey_experiment_5,2023.2.2,Win32,85.47008547,,,,,,,,,,,,,,,,384.4077,386.2077,386.2077,387.89,return,0.1752,,80.20833333,,,,,,FBP-YG-17.png,0.45,1.2,35,1,0,34,34,34,1,,,,,,,,,,,,,,,,,,,,,,,,,,,,,,,,,,,,,,,,
,,,,,WIN24_064,19,Male ,2024-02-15_14h59.57.085,jersey_experiment_5,2023.2.2,Win32,85.47008547,,,,,,,,,,,,,,,,387.8902,389.6903,389.6903,390.7607,return,0.111,,34.89583333,,,,,,FBP-YG-19.png,0.35,1.2,41,1,0,35,35,40,1,,,,,,,,,,,,,,,,,,,,,,,,,,,,,,,,,,,,,,,,
,,,,,WIN24_064,19,Male ,2024-02-15_14h59.57.085,jersey_experiment_5,2023.2.2,Win32,85.47008547,,,,,,,,,,,,,,,,390.761,392.5609,392.5609,393.4196,return,0.0852,,31.640625,,,,,,FBP-YG-19.png,0.4,1.2,43,1,0,36,36,42,1,,,,,,,,,,,,,,,,,,,,,,,,,,,,,,,,,,,,,,,,
,,,,,WIN24_064,19,Male ,2024-02-15_14h59.57.085,jersey_experiment_5,2023.2.2,Win32,85.47008547,,,,,,,,,,,,,,,,393.4199,395.2198,395.2198,396.1844,return,0.1457,,30.59895833,,,,,,FBP-YG-19.png,0.37,1.2,42,1,0,37,37,41,1,,,,,,,,,,,,,,,,,,,,,,,,,,,,,,,,,,,,,,,,
,,,,,WIN24_064,19,Male ,2024-02-15_14h59.57.085,jersey_experiment_5,2023.2.2,Win32,85.47008547,,,,,,,,,,,,,,,,396.1846,397.4787,397.4787,399.2434,return,0.1202,,70.57291667,,,,,,FBP-PT-91.png,0.43,1.2,59,0.5,0,38,38,58,1,,,,,,,,,,,,,,,,,,,,,,,,,,,,,,,,,,,,,,,,
,,,,,WIN24_064,19,Male ,2024-02-15_14h59.57.085,jersey_experiment_5,2023.2.2,Win32,85.47008547,,,,,,,,,,,,,,,,399.2437,400.5375,400.5375,402.2318,return,0.0669,,39.71354167,,,,,,FBP-PT-81.png,0.35,1.2,51,0.5,0,39,39,50,1,,,,,,,,,,,,,,,,,,,,,,,,,,,,,,,,,,,,,,,,
,,,,,WIN24_064,19,Male ,2024-02-15_14h59.57.085,jersey_experiment_5,2023.2.2,Win32,85.47008547,,,,,,,,,,,,,,,,402.232,404.0317,404.0317,405.5613,return,0.0875,,76.82291667,,,,,,FBP-RB-81.png,0.43,1.2,24,1,0,40,40,23,1,,,,,,,,,,,,,,,,,,,,,,,,,,,,,,,,,,,,,,,,
,,,,,WIN24_064,19,Male ,2024-02-15_14h59.57.085,jersey_experiment_5,2023.2.2,Win32,85.47008547,,,,,,,,,,,,,,,,405.5615,406.8554,406.8555,408.0084,return,0.0781,,74.34895833,,,,,,FBP-OG-19.png,0.43,1.2,14,0.5,0,41,41,13,1,,,,,,,,,,,,,,,,,,,,,,,,,,,,,,,,,,,,,,,,
,,,,,WIN24_064,19,Male ,2024-02-15_14h59.57.085,jersey_experiment_5,2023.2.2,Win32,85.47008547,,,,,,,,,,,,,,,,408.0086,409.8087,409.8087,411.0555,return,0.0605,,50.26041667,,,,,,FBP-YG-17.png,0.37,1.2,32,1,0,42,42,31,1,,,,,,,,,,,,,,,,,,,,,,,,,,,,,,,,,,,,,,,,
,,,,,WIN24_064,19,Male ,2024-02-15_14h59.57.085,jersey_experiment_5,2023.2.2,Win32,85.47008547,,,,,,,,,,,,,,,,411.0559,412.3499,412.3499,413.9616,return,0.218,,70.96354167,,,,,,FBP-PT-71.png,0.4,1.2,48,0.5,0,43,43,47,1,,,,,,,,,,,,,,,,,,,,,,,,,,,,,,,,,,,,,,,,
,,,,,WIN24_064,19,Male ,2024-02-15_14h59.57.085,jersey_experiment_5,2023.2.2,Win32,85.47008547,,,,,,,,,,,,,,,,413.9619,415.2557,415.2558,416.0441,return,0.0863,,70.96354167,,,,,,FBP-PT-81.png,0.4,1.2,53,0.5,0,44,44,52,1,,,,,,,,,,,,,,,,,,,,,,,,,,,,,,,,,,,,,,,,
,,,,,WIN24_064,19,Male ,2024-02-15_14h59.57.085,jersey_experiment_5,2023.2.2,Win32,85.47008547,,,,,,,,,,,,,,,,416.0443,417.844,417.8441,418.9265,return,0.1428,,65.75520833,,,,,,FBP-YG-17.png,0.35,1.2,31,1,0,45,45,30,1,,,,,,,,,,,,,,,,,,,,,,,,,,,,,,,,,,,,,,,,
,,,,,WIN24_064,19,Male ,2024-02-15_14h59.57.085,jersey_experiment_5,2023.2.2,Win32,85.47008547,,,,,,,,,,,,,,,,418.9267,420.7266,420.7266,421.5148,return,0.0849,,65.75520833,,,,,,FBP-RB-91.png,0.4,1.2,28,1,0,46,46,27,1,,,,,,,,,,,,,,,,,,,,,,,,,,,,,,,,,,,,,,,,
,,,,,WIN24_064,19,Male ,2024-02-15_14h59.57.085,jersey_experiment_5,2023.2.2,Win32,85.47008547,,,,,,,,,,,,,,,,421.5151,423.3149,423.3149,424.2326,return,0.0661,,67.70833333,,,,,,FBP-RB-91.png,0.35,1.2,26,1,0,47,47,25,1,,,,,,,,,,,,,,,,,,,,,,,,,,,,,,,,,,,,,,,,
,,,,,WIN24_064,19,Male ,2024-02-15_14h59.57.085,jersey_experiment_5,2023.2.2,Win32,85.47008547,,,,,,,,,,,,,,,,424.2328,425.5268,425.5268,426.9268,return,0.1189,,84.765625,,,,,,FBP-PT-81.png,0.45,1.2,55,0.5,0,48,48,54,1,,,,,,,,,,,,,,,,,,,,,,,,,,,,,,,,,,,,,,,,
,,,,,WIN24_064,19,Male ,2024-02-15_14h59.57.085,jersey_experiment_5,2023.2.2,Win32,85.47008547,,,,,,,,,,,,,,,,426.927,428.2208,428.2208,429.8681,return,0.1213,,51.171875,,,,,,FBP-OG-19.png,0.37,1.2,12,0.5,0,49,49,11,1,,,,,,,,,,,,,,,,,,,,,,,,,,,,,,,,,,,,,,,,
,,,,,WIN24_064,19,Male ,2024-02-15_14h59.57.085,jersey_experiment_5,2023.2.2,Win32,85.47008547,,,,,,,,,,,,,,,,429.8683,431.6683,431.6684,432.7153,return,0.1457,,79.55729167,,,,,,FBP-RB-81.png,0.45,1.2,25,1,0,50,50,24,1,,,,,,,,,,,,,,,,,,,,,,,,,,,,,,,,,,,,,,,,
,,,,,WIN24_064,19,Male ,2024-02-15_14h59.57.085,jersey_experiment_5,2023.2.2,Win32,85.47008547,,,,,,,,,,,,,,,,432.7156,434.0094,434.0094,435.1859,return,0.0946,,56.51041667,,,,,,FBP-PT-71.png,0.37,1.2,47,0.5,0,51,51,46,1,,,,,,,,,,,,,,,,,,,,,,,,,,,,,,,,,,,,,,,,
,,,,,WIN24_064,19,Male ,2024-02-15_14h59.57.085,jersey_experiment_5,2023.2.2,Win32,85.47008547,,,,,,,,,,,,,,,,435.1862,436.9861,436.9862,437.8685,return,0.0844,,57.421875,,,,,,FBP-RB-71.png,0.35,1.2,16,1,0,52,52,15,1,,,,,,,,,,,,,,,,,,,,,,,,,,,,,,,,,,,,,,,,
,,,,,WIN24_064,19,Male ,2024-02-15_14h59.57.085,jersey_experiment_5,2023.2.2,Win32,85.47008547,,,,,,,,,,,,,,,,437.8687,439.1626,439.1626,440.3155,return,0.0383,,61.71875,,,,,,FBP-PT-91.png,0.37,1.2,57,0.5,0,53,53,56,1,,,,,,,,,,,,,,,,,,,,,,,,,,,,,,,,,,,,,,,,
,,,,,WIN24_064,19,Male ,2024-02-15_14h59.57.085,jersey_experiment_5,2023.2.2,Win32,85.47008547,,,,,,,,,,,,,,,,440.3158,442.1157,442.1158,443.3627,return,0.1081,,86.97916667,,,,,,FBP-YG-19.png,0.43,1.2,44,1,0,54,54,43,1,,,,,,,,,,,,,,,,,,,,,,,,,,,,,,,,,,,,,,,,
,,,,,WIN24_064,19,Male ,2024-02-15_14h59.57.085,jersey_experiment_5,2023.2.2,Win32,85.47008547,,,,,,,,,,,,,,,,443.3629,444.6569,444.6569,446.257,return,0.0957,,50.26041667,,,,,,FBP-OG-19.png,0.35,1.2,11,0.5,0,55,55,10,1,,,,,,,,,,,,,,,,,,,,,,,,,,,,,,,,,,,,,,,,
,,,,,WIN24_064,19,Male ,2024-02-15_14h59.57.085,jersey_experiment_5,2023.2.2,Win32,85.47008547,,,,,,,,,,,,,,,,446.2572,448.0569,448.057,449.2453,return,0.0719,,54.16666667,,,,,,FBP-RB-81.png,0.35,1.2,21,1,0,56,56,20,1,,,,,,,,,,,,,,,,,,,,,,,,,,,,,,,,,,,,,,,,
,,,,,WIN24_064,19,Male ,2024-02-15_14h59.57.085,jersey_experiment_5,2023.2.2,Win32,85.47008547,,,,,,,,,,,,,,,,449.2456,450.5394,450.5395,452.2218,return,0.1301,,74.609375,,,,,,FBP-OG-19.png,0.4,1.2,13,0.5,0,57,57,12,1,,,,,,,,,,,,,,,,,,,,,,,,,,,,,,,,,,,,,,,,
,,,,,WIN24_064,19,Male ,2024-02-15_14h59.57.085,jersey_experiment_5,2023.2.2,Win32,85.47008547,,,,,,,,,,,,,,,,452.2219,454.022,454.022,454.7279,return,0.1236,,74.609375,,,,,,FBP-RB-91.png,0.37,1.2,27,1,0,58,58,26,1,,,,,,,,,,,,,,,,,,,,,,,,,,,,,,,,,,,,,,,,
,,,,,WIN24_064,19,Male ,2024-02-15_14h59.57.085,jersey_experiment_5,2023.2.2,Win32,85.47008547,,,,,,,,,,,,,,,,454.7281,456.5277,456.5278,457.5986,return,0.166,,78.77604167,,,,,,FBP-YG-17.png,0.4,1.2,33,1,0,59,59,32,1,,,,,,,,,,,,,,,,,,,,,,,,,,,,,,,,,,,,,,,,
,,,,,WIN24_064,19,Male ,2024-02-15_14h59.57.085,jersey_experiment_5,2023.2.2,Win32,85.47008547,,,,,,,,,,,,,,,,,,,,,,,,,,,,,,,,,,,,,,,457.599,577.6035,,,,,,,,,,,,,,,,,,,,,,,,,,,,,,,,,,,,,,
,,,,,WIN24_064,19,Male ,2024-02-15_14h59.57.085,jersey_experiment_5,2023.2.2,Win32,85.47008547,,,,,,,,,,,,,,,,,,,,,,,,,,,,,,,,,,,,,,,,,577.6035,582.2034,return,4.5926,,,,,,,,,,,,,,,,,,,,,,,,,,,,,,,,,,
,,,,,WIN24_064,19,Male ,2024-02-15_14h59.57.085,jersey_experiment_5,2023.2.2,Win32,85.47008547,,,,,,,,,,,,,,,,582.2099,584.0035,584.0035,587.074,return,1.6807,,64.0625,,,,,,FBP-OG-81.png,0.35,1.2,6,1,,,,,,,,,,,,,0,0,0,5,1,,,,,,,,,,,,,,,,,,,,,,,,,,,,
,,,,,WIN24_064,19,Male ,2024-02-15_14h59.57.085,jersey_experiment_5,2023.2.2,Win32,85.47008547,,,,,,,,,,,,,,,,587.0743,588.3681,588.3681,589.4859,return,0.1079,,59.765625,,,,,,FBP-RB-18.png,0.35,1.2,21,0.5,,,,,,,,,,,,,0,1,1,20,1,,,,,,,,,,,,,,,,,,,,,,,,,,,,
,,,,,WIN24_064,19,Male ,2024-02-15_14h59.57.085,jersey_experiment_5,2023.2.2,Win32,85.47008547,,,,,,,,,,,,,,,,589.4861,591.2861,591.2862,592.5094,return,0.403,,86.71875,,,,,,FBP-PT-18.png,0.43,1.2,54,1,,,,,,,,,,,,,0,2,2,53,1,,,,,,,,,,,,,,,,,,,,,,,,,,,,
,,,,,WIN24_064,19,Male ,2024-02-15_14h59.57.085,jersey_experiment_5,2023.2.2,Win32,85.47008547,,,,,,,,,,,,,,,,592.5097,594.3097,594.3097,594.9213,return,0.0422,,89.0625,,,,,,FBP-OG-71.png,0.43,1.2,4,1,,,,,,,,,,,,,0,3,3,3,1,,,,,,,,,,,,,,,,,,,,,,,,,,,,
,,,,,WIN24_064,19,Male ,2024-02-15_14h59.57.085,jersey_experiment_5,2023.2.2,Win32,85.47008547,,,,,,,,,,,,,,,,594.9216,596.7214,596.7215,597.9449,return,0.1012,,74.86979167,,,,,,FBP-OG-81.png,0.4,1.2,8,1,,,,,,,,,,,,,0,4,4,7,1,,,,,,,,,,,,,,,,,,,,,,,,,,,,
,,,,,WIN24_064,19,Male ,2024-02-15_14h59.57.085,jersey_experiment_5,2023.2.2,Win32,85.47008547,,,,,,,,,,,,,,,,597.9451,599.239,599.2391,600.4391,return,0.0559,,70.44270833,,,,,,FBP-RB-18.png,0.37,1.2,22,0.5,,,,,,,,,,,,,0,5,5,21,1,,,,,,,,,,,,,,,,,,,,,,,,,,,,
,,,,,WIN24_064,19,Male ,2024-02-15_14h59.57.085,jersey_experiment_5,2023.2.2,Win32,85.47008547,,,,,,,,,,,,,,,,600.4394,601.7332,601.7333,602.8157,return,0.0943,,75.390625,,,,,,FBP-RB-17.png,0.43,1.2,19,0.5,,,,,,,,,,,,,0,6,6,18,1,,,,,,,,,,,,,,,,,,,,,,,,,,,,
,,,,,WIN24_064,19,Male ,2024-02-15_14h59.57.085,jersey_experiment_5,2023.2.2,Win32,85.47008547,,,,,,,,,,,,,,,,602.8159,604.6158,604.6159,605.9335,return,0.1318,,71.484375,,,,,,FBP-PT-19.png,0.37,1.2,57,1,,,,,,,,,,,,,0,7,7,56,1,,,,,,,,,,,,,,,,,,,,,,,,,,,,
,,,,,WIN24_064,19,Male ,2024-02-15_14h59.57.085,jersey_experiment_5,2023.2.2,Win32,85.47008547,,,,,,,,,,,,,,,,605.9337,607.2277,607.2277,608.463,return,0.1186,,76.30208333,,,,,,FBP-YG-71.png,0.37,1.2,32,0.5,,,,,,,,,,,,,0,8,8,31,1,,,,,,,,,,,,,,,,,,,,,,,,,,,,
,,,,,WIN24_064,19,Male ,2024-02-15_14h59.57.085,jersey_experiment_5,2023.2.2,Win32,85.47008547,,,,,,,,,,,,,,,,608.4632,609.7572,609.7572,610.7454,return,0.1005,,63.41145833,,,,,,FBP-YG-81.png,0.37,1.2,37,0.5,,,,,,,,,,,,,0,9,9,36,1,,,,,,,,,,,,,,,,,,,,,,,,,,,,
,,,,,WIN24_064,19,Male ,2024-02-15_14h59.57.085,jersey_experiment_5,2023.2.2,Win32,85.47008547,,,,,,,,,,,,,,,,610.7456,612.0395,612.0395,613.275,return,0.1341,,79.42708333,,,,,,FBP-YG-81.png,0.43,1.2,39,0.5,,,,,,,,,,,,,0,10,10,38,1,,,,,,,,,,,,,,,,,,,,,,,,,,,,
,,,,,WIN24_064,19,Male ,2024-02-15_14h59.57.085,jersey_experiment_5,2023.2.2,Win32,85.47008547,,,,,,,,,,,,,,,,613.2752,614.5691,614.5692,616.075,return,0.0971,,75.26041667,,,,,,FBP-RB-19.png,0.37,1.2,27,0.5,,,,,,,,,,,,,0,11,11,26,1,,,,,,,,,,,,,,,,,,,,,,,,,,,,
,,,,,WIN24_064,19,Male ,2024-02-15_14h59.57.085,jersey_experiment_5,2023.2.2,Win32,85.47008547,,,,,,,,,,,,,,,,616.0753,617.3692,617.3692,618.7928,return,0.3002,,89.84375,,,,,,FBP-RB-17.png,0.45,1.2,20,0.5,,,,,,,,,,,,,0,12,12,19,1,,,,,,,,,,,,,,,,,,,,,,,,,,,,
,,,,,WIN24_064,19,Male ,2024-02-15_14h59.57.085,jersey_experiment_5,2023.2.2,Win32,85.47008547,,,,,,,,,,,,,,,,618.7931,620.593,620.593,621.4633,return,0.1381,,89.84375,,,,,,FBP-PT-19.png,0.43,1.2,59,1,,,,,,,,,,,,,0,13,13,58,1,,,,,,,,,,,,,,,,,,,,,,,,,,,,
,,,,,WIN24_064,19,Male ,2024-02-15_14h59.57.085,jersey_experiment_5,2023.2.2,Win32,85.47008547,,,,,,,,,,,,,,,,621.4636,623.2636,623.2636,624.6872,return,0.1413,,25.13020833,,,,,,FBP-OG-71.png,0.35,1.2,1,1,,,,,,,,,,,,,0,14,14,0,1,,,,,,,,,,,,,,,,,,,,,,,,,,,,
,,,,,WIN24_064,19,Male ,2024-02-15_14h59.57.085,jersey_experiment_5,2023.2.2,Win32,85.47008547,,,,,,,,,,,,,,,,624.6874,626.4872,626.4872,627.852,return,0.1686,,50.78125,,,,,,FBP-PT-17.png,0.35,1.2,46,1,,,,,,,,,,,,,0,15,15,45,1,,,,,,,,,,,,,,,,,,,,,,,,,,,,
,,,,,WIN24_064,19,Male ,2024-02-15_14h59.57.085,jersey_experiment_5,2023.2.2,Win32,85.47008547,,,,,,,,,,,,,,,,627.8522,629.6519,629.6519,631.0403,return,0.1411,,58.203125,,,,,,FBP-PT-18.png,0.35,1.2,51,1,,,,,,,,,,,,,0,16,16,50,1,,,,,,,,,,,,,,,,,,,,,,,,,,,,
,,,,,WIN24_064,19,Male ,2024-02-15_14h59.57.085,jersey_experiment_5,2023.2.2,Win32,85.47008547,,,,,,,,,,,,,,,,631.0405,632.3345,632.3345,633.9698,return,0.1413,,62.109375,,,,,,FBP-RB-17.png,0.35,1.2,16,0.5,,,,,,,,,,,,,0,17,17,15,1,,,,,,,,,,,,,,,,,,,,,,,,,,,,
,,,,,WIN24_064,19,Male ,2024-02-15_14h59.57.085,jersey_experiment_5,2023.2.2,Win32,85.47008547,,,,,,,,,,,,,,,,633.9701,635.2639,635.2639,636.57,return,0.1463,,72.65625,,,,,,FBP-YG-71.png,0.4,1.2,33,0.5,,,,,,,,,,,,,0,18,18,32,1,,,,,,,,,,,,,,,,,,,,,,,,,,,,
,,,,,WIN24_064,19,Male ,2024-02-15_14h59.57.085,jersey_experiment_5,2023.2.2,Win32,85.47008547,,,,,,,,,,,,,,,,636.5702,637.8641,637.8641,641.0054,return,0.1306,,77.08333333,,,,,,FBP-RB-19.png,0.35,1.2,26,0.5,,,,,,,,,,,,,0,19,19,25,1,,,,,,,,,,,,,,,,,,,,,,,,,,,,
,,,,,WIN24_064,19,Male ,2024-02-15_14h59.57.085,jersey_experiment_5,2023.2.2,Win32,85.47008547,,,,,,,,,,,,,,,,641.0056,642.2995,642.2995,643.4643,return,0.0999,,92.96875,,,,,,FBP-YG-81.png,0.45,1.2,40,0.5,,,,,,,,,,,,,0,20,20,39,1,,,,,,,,,,,,,,,,,,,,,,,,,,,,
,,,,,WIN24_064,19,Male ,2024-02-15_14h59.57.085,jersey_experiment_5,2023.2.2,Win32,85.47008547,,,,,,,,,,,,,,,,643.4646,644.7584,644.7585,645.8526,return,0.0976,,88.02083333,,,,,,FBP-RB-19.png,0.43,1.2,29,0.5,,,,,,,,,,,,,0,21,21,28,1,,,,,,,,,,,,,,,,,,,,,,,,,,,,
,,,,,WIN24_064,19,Male ,2024-02-15_14h59.57.085,jersey_experiment_5,2023.2.2,Win32,85.47008547,,,,,,,,,,,,,,,,645.8528,647.1467,647.1467,649.0646,return,0.1227,,54.94791667,,,,,,FBP-YG-81.png,0.35,1.2,36,0.5,,,,,,,,,,,,,0,22,22,35,1,,,,,,,,,,,,,,,,,,,,,,,,,,,,
,,,,,WIN24_064,19,Male ,2024-02-15_14h59.57.085,jersey_experiment_5,2023.2.2,Win32,85.47008547,,,,,,,,,,,,,,,,649.0648,650.8646,650.8646,651.7116,return,0.1651,,62.76041667,,,,,,FBP-PT-19.png,0.35,1.2,56,1,,,,,,,,,,,,,0,23,23,55,1,,,,,,,,,,,,,,,,,,,,,,,,,,,,
,,,,,WIN24_064,19,Male ,2024-02-15_14h59.57.085,jersey_experiment_5,2023.2.2,Win32,85.47008547,,,,,,,,,,,,,,,,651.7118,653.0057,653.0058,654.0412,return,0.1007,,58.59375,,,,,,FBP-YG-71.png,0.35,1.2,31,0.5,,,,,,,,,,,,,0,24,24,30,1,,,,,,,,,,,,,,,,,,,,,,,,,,,,
,,,,,WIN24_064,19,Male ,2024-02-15_14h59.57.085,jersey_experiment_5,2023.2.2,Win32,85.47008547,,,,,,,,,,,,,,,,654.0415,655.8413,655.8413,656.8883,return,0.1585,,64.71354167,,,,,,FBP-OG-81.png,0.37,1.2,7,1,,,,,,,,,,,,,0,25,25,6,1,,,,,,,,,,,,,,,,,,,,,,,,,,,,
,,,,,WIN24_064,19,Male ,2024-02-15_14h59.57.085,jersey_experiment_5,2023.2.2,Win32,85.47008547,,,,,,,,,,,,,,,,656.8886,658.1824,658.1824,659.2766,return,0.0954,,84.765625,,,,,,FBP-RB-19.png,0.45,1.2,30,0.5,,,,,,,,,,,,,0,26,26,29,1,,,,,,,,,,,,,,,,,,,,,,,,,,,,
,,,,,WIN24_064,19,Male ,2024-02-15_14h59.57.085,jersey_experiment_5,2023.2.2,Win32,85.47008547,,,,,,,,,,,,,,,,659.2769,661.0768,661.0768,662.1356,return,0.0891,,75.26041667,,,,,,FBP-PT-18.png,0.4,1.2,53,1,,,,,,,,,,,,,0,27,27,52,1,,,,,,,,,,,,,,,,,,,,,,,,,,,,
,,,,,WIN24_064,19,Male ,2024-02-15_14h59.57.085,jersey_experiment_5,2023.2.2,Win32,85.47008547,,,,,,,,,,,,,,,,662.1357,663.9357,663.9358,664.5945,return,0.1651,,75.26041667,,,,,,FBP-PT-17.png,0.37,1.2,47,1,,,,,,,,,,,,,0,28,28,46,1,,,,,,,,,,,,,,,,,,,,,,,,,,,,
,,,,,WIN24_064,19,Male ,2024-02-15_14h59.57.085,jersey_experiment_5,2023.2.2,Win32,85.47008547,,,,,,,,,,,,,,,,664.5948,665.8887,665.8887,667.0652,return,0.1459,,89.97395833,,,,,,FBP-YG-71.png,0.45,1.2,35,0.5,,,,,,,,,,,,,0,29,29,34,1,,,,,,,,,,,,,,,,,,,,,,,,,,,,
,,,,,WIN24_064,19,Male ,2024-02-15_14h59.57.085,jersey_experiment_5,2023.2.2,Win32,85.47008547,,,,,,,,,,,,,,,,667.0655,668.8652,668.8653,669.583,return,0.2106,,89.97395833,,,,,,FBP-OG-91.png,0.45,1.2,15,1,,,,,,,,,,,,,0,30,30,14,1,,,,,,,,,,,,,,,,,,,,,,,,,,,,
,,,,,WIN24_064,19,Male ,2024-02-15_14h59.57.085,jersey_experiment_5,2023.2.2,Win32,85.47008547,,,,,,,,,,,,,,,,669.5833,670.8771,670.8772,672.1948,return,0.0836,,73.95833333,,,,,,FBP-RB-17.png,0.37,1.2,17,0.5,,,,,,,,,,,,,0,31,31,16,1,,,,,,,,,,,,,,,,,,,,,,,,,,,,
,,,,,WIN24_064,19,Male ,2024-02-15_14h59.57.085,jersey_experiment_5,2023.2.2,Win32,85.47008547,,,,,,,,,,,,,,,,672.195,673.9948,673.9948,675.336,return,0.0653,,92.31770833,,,,,,FBP-OG-71.png,0.45,1.2,5,1,,,,,,,,,,,,,0,32,32,4,1,,,,,,,,,,,,,,,,,,,,,,,,,,,,
,,,,,WIN24_064,19,Male ,2024-02-15_14h59.57.085,jersey_experiment_5,2023.2.2,Win32,85.47008547,,,,,,,,,,,,,,,,675.3362,677.1361,677.1361,677.9833,return,0.1898,,92.31770833,,,,,,FBP-OG-81.png,0.43,1.2,9,1,,,,,,,,,,,,,0,33,33,8,1,,,,,,,,,,,,,,,,,,,,,,,,,,,,
,,,,,WIN24_064,19,Male ,2024-02-15_14h59.57.085,jersey_experiment_5,2023.2.2,Win32,85.47008547,,,,,,,,,,,,,,,,677.9835,679.2774,679.2774,680.4656,return,0.212,,92.31770833,,,,,,FBP-RB-18.png,0.43,1.2,24,0.5,,,,,,,,,,,,,0,34,34,23,1,,,,,,,,,,,,,,,,,,,,,,,,,,,,
,,,,,WIN24_064,19,Male ,2024-02-15_14h59.57.085,jersey_experiment_5,2023.2.2,Win32,85.47008547,,,,,,,,,,,,,,,,680.4659,682.2658,682.2658,683.4893,return,0.0943,,83.59375,,,,,,FBP-PT-17.png,0.43,1.2,49,1,,,,,,,,,,,,,0,35,35,48,1,,,,,,,,,,,,,,,,,,,,,,,,,,,,
,,,,,WIN24_064,19,Male ,2024-02-15_14h59.57.085,jersey_experiment_5,2023.2.2,Win32,85.47008547,,,,,,,,,,,,,,,,683.4896,684.7835,684.7835,686.0424,return,0.1707,,89.58333333,,,,,,FBP-YG-71.png,0.43,1.2,34,0.5,,,,,,,,,,,,,0,36,36,33,1,,,,,,,,,,,,,,,,,,,,,,,,,,,,
,,,,,WIN24_064,19,Male ,2024-02-15_14h59.57.085,jersey_experiment_5,2023.2.2,Win32,85.47008547,,,,,,,,,,,,,,,,686.0425,687.3365,687.3365,688.9248,return,0.1422,,85.9375,,,,,,FBP-RB-18.png,0.4,1.2,23,0.5,,,,,,,,,,,,,0,37,37,22,1,,,,,,,,,,,,,,,,,,,,,,,,,,,,
,,,,,WIN24_064,19,Male ,2024-02-15_14h59.57.085,jersey_experiment_5,2023.2.2,Win32,85.47008547,,,,,,,,,,,,,,,,688.925,690.219,690.219,691.3366,return,0.1014,,69.40104167,,,,,,FBP-RB-19.png,0.4,1.2,28,0.5,,,,,,,,,,,,,0,38,38,27,1,,,,,,,,,,,,,,,,,,,,,,,,,,,,
,,,,,WIN24_064,19,Male ,2024-02-15_14h59.57.085,jersey_experiment_5,2023.2.2,Win32,85.47008547,,,,,,,,,,,,,,,,691.3369,693.137,693.137,693.9838,return,0.1085,,82.421875,,,,,,FBP-PT-19.png,0.4,1.2,58,1,,,,,,,,,,,,,0,39,39,57,1,,,,,,,,,,,,,,,,,,,,,,,,,,,,
,,,,,WIN24_064,19,Male ,2024-02-15_14h59.57.085,jersey_experiment_5,2023.2.2,Win32,85.47008547,,,,,,,,,,,,,,,,693.9841,695.7838,695.7839,697.1015,return,0.0834,,62.63020833,,,,,,FBP-PT-18.png,0.37,1.2,52,1,,,,,,,,,,,,,0,40,40,51,1,,,,,,,,,,,,,,,,,,,,,,,,,,,,
,,,,,WIN24_064,19,Male ,2024-02-15_14h59.57.085,jersey_experiment_5,2023.2.2,Win32,85.47008547,,,,,,,,,,,,,,,,697.1018,698.9018,698.9018,699.5017,return,0.026,,50.390625,,,,,,FBP-OG-71.png,0.4,1.2,3,1,,,,,,,,,,,,,0,41,41,2,1,,,,,,,,,,,,,,,,,,,,,,,,,,,,
,,,,,WIN24_064,19,Male ,2024-02-15_14h59.57.085,jersey_experiment_5,2023.2.2,Win32,85.47008547,,,,,,,,,,,,,,,,699.5019,700.7958,700.7958,702.0312,return,0.1317,,70.703125,,,,,,FBP-YG-91.png,0.4,1.2,43,0.5,,,,,,,,,,,,,0,42,42,42,1,,,,,,,,,,,,,,,,,,,,,,,,,,,,
,,,,,WIN24_064,19,Male ,2024-02-15_14h59.57.085,jersey_experiment_5,2023.2.2,Win32,85.47008547,,,,,,,,,,,,,,,,702.0314,703.3254,703.3254,704.2311,return,0.0427,,63.54166667,,,,,,FBP-YG-81.png,0.4,1.2,38,0.5,,,,,,,,,,,,,0,43,43,37,1,,,,,,,,,,,,,,,,,,,,,,,,,,,,
,,,,,WIN24_064,19,Male ,2024-02-15_14h59.57.085,jersey_experiment_5,2023.2.2,Win32,85.47008547,,,,,,,,,,,,,,,,704.2314,706.0313,706.0313,707.0547,return,0.1186,,77.86458333,,,,,,FBP-OG-81.png,0.45,1.2,10,1,,,,,,,,,,,,,0,44,44,9,1,,,,,,,,,,,,,,,,,,,,,,,,,,,,
,,,,,WIN24_064,19,Male ,2024-02-15_14h59.57.085,jersey_experiment_5,2023.2.2,Win32,85.47008547,,,,,,,,,,,,,,,,707.0549,708.349,708.349,709.7138,return,0.0944,,88.15104167,,,,,,FBP-YG-91.png,0.45,1.2,45,0.5,,,,,,,,,,,,,0,45,45,44,1,,,,,,,,,,,,,,,,,,,,,,,,,,,,
,,,,,WIN24_064,19,Male ,2024-02-15_14h59.57.085,jersey_experiment_5,2023.2.2,Win32,85.47008547,,,,,,,,,,,,,,,,709.7142,711.0079,711.0079,712.8433,return,0.0621,,72.39583333,,,,,,FBP-YG-91.png,0.37,1.2,42,0.5,,,,,,,,,,,,,0,46,46,41,1,,,,,,,,,,,,,,,,,,,,,,,,,,,,
,,,,,WIN24_064,19,Male ,2024-02-15_14h59.57.085,jersey_experiment_5,2023.2.2,Win32,85.47008547,,,,,,,,,,,,,,,,712.8436,714.6434,714.6435,716.1374,return,0.0301,,68.75,,,,,,FBP-PT-17.png,0.4,1.2,48,1,,,,,,,,,,,,,0,47,47,47,1,,,,,,,,,,,,,,,,,,,,,,,,,,,,
,,,,,WIN24_064,19,Male ,2024-02-15_14h59.57.085,jersey_experiment_5,2023.2.2,Win32,85.47008547,,,,,,,,,,,,,,,,716.1375,717.9376,717.9377,718.9612,return,0.0798,,83.984375,,,,,,FBP-PT-19.png,0.45,1.2,60,1,,,,,,,,,,,,,0,48,48,59,1,,,,,,,,,,,,,,,,,,,,,,,,,,,,
,,,,,WIN24_064,19,Male ,2024-02-15_14h59.57.085,jersey_experiment_5,2023.2.2,Win32,85.47008547,,,,,,,,,,,,,,,,718.9614,720.7613,720.7613,721.7731,return,0.0614,,70.83333333,,,,,,FBP-OG-91.png,0.37,1.2,12,1,,,,,,,,,,,,,0,49,49,11,1,,,,,,,,,,,,,,,,,,,,,,,,,,,,
,,,,,WIN24_064,19,Male ,2024-02-15_14h59.57.085,jersey_experiment_5,2023.2.2,Win32,85.47008547,,,,,,,,,,,,,,,,721.7733,723.5731,723.5731,724.7496,return,0.0492,,45.96354167,,,,,,FBP-OG-91.png,0.35,1.2,11,1,,,,,,,,,,,,,0,50,50,10,1,,,,,,,,,,,,,,,,,,,,,,,,,,,,
,,,,,WIN24_064,19,Male ,2024-02-15_14h59.57.085,jersey_experiment_5,2023.2.2,Win32,85.47008547,,,,,,,,,,,,,,,,724.7498,726.55,726.55,727.4675,return,0.0633,,67.31770833,,,,,,FBP-OG-91.png,0.43,1.2,14,1,,,,,,,,,,,,,0,51,51,13,1,,,,,,,,,,,,,,,,,,,,,,,,,,,,
,,,,,WIN24_064,19,Male ,2024-02-15_14h59.57.085,jersey_experiment_5,2023.2.2,Win32,85.47008547,,,,,,,,,,,,,,,,727.4677,729.2675,729.2675,731.1499,return,0.8961,,80.33854167,,,,,,FBP-PT-17.png,0.45,1.2,50,1,,,,,,,,,,,,,0,52,52,49,1,,,,,,,,,,,,,,,,,,,,,,,,,,,,
,,,,,WIN24_064,19,Male ,2024-02-15_14h59.57.085,jersey_experiment_5,2023.2.2,Win32,85.47008547,,,,,,,,,,,,,,,,731.1501,732.9501,732.9501,733.6911,return,0.0752,,77.34375,,,,,,FBP-PT-18.png,0.45,1.2,55,1,,,,,,,,,,,,,0,53,53,54,1,,,,,,,,,,,,,,,,,,,,,,,,,,,,
,,,,,WIN24_064,19,Male ,2024-02-15_14h59.57.085,jersey_experiment_5,2023.2.2,Win32,85.47008547,,,,,,,,,,,,,,,,733.6913,735.4914,735.4914,736.3971,return,0.1764,,66.796875,,,,,,FBP-OG-91.png,0.4,1.2,13,1,,,,,,,,,,,,,0,54,54,12,1,,,,,,,,,,,,,,,,,,,,,,,,,,,,
,,,,,WIN24_064,19,Male ,2024-02-15_14h59.57.085,jersey_experiment_5,2023.2.2,Win32,85.47008547,,,,,,,,,,,,,,,,736.3974,737.6913,737.6913,738.8913,return,0.0517,,76.953125,,,,,,FBP-YG-91.png,0.43,1.2,44,0.5,,,,,,,,,,,,,0,55,55,43,1,,,,,,,,,,,,,,,,,,,,,,,,,,,,
,,,,,WIN24_064,19,Male ,2024-02-15_14h59.57.085,jersey_experiment_5,2023.2.2,Win32,85.47008547,,,,,,,,,,,,,,,,738.8916,740.1855,740.1855,741.2444,return,0.0611,,81.11979167,,,,,,FBP-RB-18.png,0.45,1.2,25,0.5,,,,,,,,,,,,,0,56,56,24,1,,,,,,,,,,,,,,,,,,,,,,,,,,,,
,,,,,WIN24_064,19,Male ,2024-02-15_14h59.57.085,jersey_experiment_5,2023.2.2,Win32,85.47008547,,,,,,,,,,,,,,,,741.2446,742.5385,742.5385,743.4681,return,0.1805,,81.11979167,,,,,,FBP-RB-17.png,0.4,1.2,18,0.5,,,,,,,,,,,,,0,57,57,17,1,,,,,,,,,,,,,,,,,,,,,,,,,,,,
,,,,,WIN24_064,19,Male ,2024-02-15_14h59.57.085,jersey_experiment_5,2023.2.2,Win32,85.47008547,,,,,,,,,,,,,,,,743.4682,745.2681,745.2681,746.2211,return,0.0716,,34.89583333,,,,,,FBP-OG-71.png,0.37,1.2,2,1,,,,,,,,,,,,,0,58,58,1,1,,,,,,,,,,,,,,,,,,,,,,,,,,,,
,,,,,WIN24_064,19,Male ,2024-02-15_14h59.57.085,jersey_experiment_5,2023.2.2,Win32,85.47008547,,,,,,,,,,,,,,,,746.2213,747.5152,747.5152,748.6682,return,0.1194,,26.30208333,,,,,,FBP-YG-91.png,0.35,1.2,41,0.5,,,,,,,,,,,,,0,59,59,40,1,,,,,,,,,,,,,,,,,,,,,,,,,,,,
,,,,,WIN24_064,19,Male ,2024-02-15_14h59.57.085,jersey_experiment_5,2023.2.2,Win32,85.47008547,,,,,,,,,,,,,,,,748.6695,750.4682,750.4683,751.5036,return,0.1651,,21.484375,,,,,,FBP-OG-17.png,0.35,1.2,1,1,,,,,,,,,,,,,,,,,,0,0,0,0,1,,,,,,,,,,,,,,,,,,,,,,,
,,,,,WIN24_064,19,Male ,2024-02-15_14h59.57.085,jersey_experiment_5,2023.2.2,Win32,85.47008547,,,,,,,,,,,,,,,,751.5039,752.7978,752.7978,753.6448,return,0.1077,,21.875,,,,,,FBP-YG-18.png,0.35,1.2,36,0.5,,,,,,,,,,,,,,,,,,0,1,1,35,1,,,,,,,,,,,,,,,,,,,,,,,
,,,,,WIN24_064,19,Male ,2024-02-15_14h59.57.085,jersey_experiment_5,2023.2.2,Win32,85.47008547,,,,,,,,,,,,,,,,753.6452,754.939,754.939,756.5862,return,0.0291,,45.05208333,,,,,,FBP-RB-81.png,0.4,1.2,23,0.5,,,,,,,,,,,,,,,,,,0,2,2,22,1,,,,,,,,,,,,,,,,,,,,,,,
,,,,,WIN24_064,19,Male ,2024-02-15_14h59.57.085,jersey_experiment_5,2023.2.2,Win32,85.47008547,,,,,,,,,,,,,,,,756.5864,758.3865,758.3865,759.0686,return,0.0961,,35.41666667,,,,,,FBP-OG-19.png,0.35,1.2,11,1,,,,,,,,,,,,,,,,,,0,3,3,10,1,,,,,,,,,,,,,,,,,,,,,,,
,,,,,WIN24_064,19,Male ,2024-02-15_14h59.57.085,jersey_experiment_5,2023.2.2,Win32,85.47008547,,,,,,,,,,,,,,,,759.0689,760.3628,760.3628,761.245,return,0.131,,39.84375,,,,,,FBP-RB-91.png,0.35,1.2,26,0.5,,,,,,,,,,,,,,,,,,0,4,4,25,1,,,,,,,,,,,,,,,,,,,,,,,
,,,,,WIN24_064,19,Male ,2024-02-15_14h59.57.085,jersey_experiment_5,2023.2.2,Win32,85.47008547,,,,,,,,,,,,,,,,761.2453,763.0452,763.0452,763.6099,return,0.065,,39.84375,,,,,,FBP-PT-91.png,0.37,1.2,57,1,,,,,,,,,,,,,,,,,,0,5,5,56,1,,,,,,,,,,,,,,,,,,,,,,,
,,,,,WIN24_064,19,Male ,2024-02-15_14h59.57.085,jersey_experiment_5,2023.2.2,Win32,85.47008547,,,,,,,,,,,,,,,,763.6102,764.9042,764.9042,766.21,return,0.034,,46.35416667,,,,,,FBP-YG-17.png,0.4,1.2,33,0.5,,,,,,,,,,,,,,,,,,0,6,6,32,1,,,,,,,,,,,,,,,,,,,,,,,
,,,,,WIN24_064,19,Male ,2024-02-15_14h59.57.085,jersey_experiment_5,2023.2.2,Win32,85.47008547,,,,,,,,,,,,,,,,766.2102,768.0104,768.0104,769.422,return,0.141,,69.66145833,,,,,,FBP-OG-18.png,0.4,1.2,8,1,,,,,,,,,,,,,,,,,,0,7,7,7,1,,,,,,,,,,,,,,,,,,,,,,,
,,,,,WIN24_064,19,Male ,2024-02-15_14h59.57.085,jersey_experiment_5,2023.2.2,Win32,85.47008547,,,,,,,,,,,,,,,,769.4222,770.716,770.716,772.175,return,0.1545,,43.75,,,,,,FBP-RB-71.png,0.35,1.2,16,0.5,,,,,,,,,,,,,,,,,,0,8,8,15,1,,,,,,,,,,,,,,,,,,,,,,,
,,,,,WIN24_064,19,Male ,2024-02-15_14h59.57.085,jersey_experiment_5,2023.2.2,Win32,85.47008547,,,,,,,,,,,,,,,,772.1752,773.4692,773.4692,775.1516,return,0.0812,,74.73958333,,,,,,FBP-YG-19.png,0.45,1.2,45,0.5,,,,,,,,,,,,,,,,,,0,9,9,44,1,,,,,,,,,,,,,,,,,,,,,,,
,,,,,WIN24_064,19,Male ,2024-02-15_14h59.57.085,jersey_experiment_5,2023.2.2,Win32,85.47008547,,,,,,,,,,,,,,,,775.1517,776.9517,776.9517,777.9163,return,0.1427,,66.27604167,,,,,,FBP-PT-81.png,0.35,1.2,51,1,,,,,,,,,,,,,,,,,,0,10,10,50,1,,,,,,,,,,,,,,,,,,,,,,,
,,,,,WIN24_064,19,Male ,2024-02-15_14h59.57.085,jersey_experiment_5,2023.2.2,Win32,85.47008547,,,,,,,,,,,,,,,,777.9165,779.7164,779.7164,780.6811,return,0.0645,,61.06770833,,,,,,FBP-PT-81.png,0.37,1.2,52,1,,,,,,,,,,,,,,,,,,0,11,11,51,1,,,,,,,,,,,,,,,,,,,,,,,
,,,,,WIN24_064,19,Male ,2024-02-15_14h59.57.085,jersey_experiment_5,2023.2.2,Win32,85.47008547,,,,,,,,,,,,,,,,780.6814,781.9753,781.9753,783.1519,return,0.0944,,44.79166667,,,,,,FBP-YG-19.png,0.35,1.2,41,0.5,,,,,,,,,,,,,,,,,,0,12,12,40,1,,,,,,,,,,,,,,,,,,,,,,,
,,,,,WIN24_064,19,Male ,2024-02-15_14h59.57.085,jersey_experiment_5,2023.2.2,Win32,85.47008547,,,,,,,,,,,,,,,,783.1521,784.4461,784.4461,786.0932,return,0.0735,,60.80729167,,,,,,FBP-YG-18.png,0.4,1.2,38,0.5,,,,,,,,,,,,,,,,,,0,13,13,37,1,,,,,,,,,,,,,,,,,,,,,,,
,,,,,WIN24_064,19,Male ,2024-02-15_14h59.57.085,jersey_experiment_5,2023.2.2,Win32,85.47008547,,,,,,,,,,,,,,,,786.0933,787.8932,787.8932,789.3756,return,0.1179,,50,,,,,,FBP-PT-71.png,0.37,1.2,47,1,,,,,,,,,,,,,,,,,,0,14,14,46,1,,,,,,,,,,,,,,,,,,,,,,,
,,,,,WIN24_064,19,Male ,2024-02-15_14h59.57.085,jersey_experiment_5,2023.2.2,Win32,85.47008547,,,,,,,,,,,,,,,,789.3758,791.1757,791.1757,792.2227,return,0.1417,,58.984375,,,,,,FBP-OG-18.png,0.37,1.2,7,1,,,,,,,,,,,,,,,,,,0,15,15,6,1,,,,,,,,,,,,,,,,,,,,,,,
,,,,,WIN24_064,19,Male ,2024-02-15_14h59.57.085,jersey_experiment_5,2023.2.2,Win32,85.47008547,,,,,,,,,,,,,,,,792.2229,793.5169,793.517,794.7522,return,0.0103,,70.57291667,,,,,,FBP-YG-18.png,0.43,1.2,39,0.5,,,,,,,,,,,,,,,,,,0,16,16,38,1,,,,,,,,,,,,,,,,,,,,,,,
,,,,,WIN24_064,19,Male ,2024-02-15_14h59.57.085,jersey_experiment_5,2023.2.2,Win32,85.47008547,,,,,,,,,,,,,,,,794.7525,796.5525,796.5525,797.2348,return,0.1305,,70.57291667,,,,,,FBP-OG-19.png,0.45,1.2,15,1,,,,,,,,,,,,,,,,,,0,17,17,14,1,,,,,,,,,,,,,,,,,,,,,,,
,,,,,WIN24_064,19,Male ,2024-02-15_14h59.57.085,jersey_experiment_5,2023.2.2,Win32,85.47008547,,,,,,,,,,,,,,,,797.2351,799.0348,799.0348,799.9053,return,0.1746,,72.65625,,,,,,FBP-PT-71.png,0.45,1.2,50,1,,,,,,,,,,,,,,,,,,0,18,18,49,1,,,,,,,,,,,,,,,,,,,,,,,
,,,,,WIN24_064,19,Male ,2024-02-15_14h59.57.085,jersey_experiment_5,2023.2.2,Win32,85.47008547,,,,,,,,,,,,,,,,799.9056,801.7055,801.7055,802.5879,return,0.1688,,72.65625,,,,,,FBP-OG-17.png,0.45,1.2,5,1,,,,,,,,,,,,,,,,,,0,19,19,4,1,,,,,,,,,,,,,,,,,,,,,,,
,,,,,WIN24_064,19,Male ,2024-02-15_14h59.57.085,jersey_experiment_5,2023.2.2,Win32,85.47008547,,,,,,,,,,,,,,,,802.5882,803.882,803.8821,804.882,return,0.1186,,64.453125,,,,,,FBP-YG-19.png,0.4,1.2,43,0.5,,,,,,,,,,,,,,,,,,0,20,20,42,1,,,,,,,,,,,,,,,,,,,,,,,
,,,,,WIN24_064,19,Male ,2024-02-15_14h59.57.085,jersey_experiment_5,2023.2.2,Win32,85.47008547,,,,,,,,,,,,,,,,804.8822,806.1762,806.1764,807.3292,return,0.1423,,84.63541667,,,,,,FBP-RB-81.png,0.45,1.2,25,0.5,,,,,,,,,,,,,,,,,,0,21,21,24,1,,,,,,,,,,,,,,,,,,,,,,,
,,,,,WIN24_064,19,Male ,2024-02-15_14h59.57.085,jersey_experiment_5,2023.2.2,Win32,85.47008547,,,,,,,,,,,,,,,,807.3295,808.6234,808.6234,809.5293,return,0.1818,,84.63541667,,,,,,FBP-RB-91.png,0.37,1.2,27,0.5,,,,,,,,,,,,,,,,,,0,22,22,26,1,,,,,,,,,,,,,,,,,,,,,,,
,,,,,WIN24_064,19,Male ,2024-02-15_14h59.57.085,jersey_experiment_5,2023.2.2,Win32,85.47008547,,,,,,,,,,,,,,,,809.5296,811.3294,811.3294,813.7412,return,0.1542,,84.63541667,,,,,,FBP-PT-81.png,0.45,1.2,55,1,,,,,,,,,,,,,,,,,,0,23,23,54,1,,,,,,,,,,,,,,,,,,,,,,,
,,,,,WIN24_064,19,Male ,2024-02-15_14h59.57.085,jersey_experiment_5,2023.2.2,Win32,85.47008547,,,,,,,,,,,,,,,,813.7415,815.0354,815.0355,816.2825,return,0.204,,91.015625,,,,,,FBP-YG-18.png,0.45,1.2,40,0.5,,,,,,,,,,,,,,,,,,0,24,24,39,1,,,,,,,,,,,,,,,,,,,,,,,
,,,,,WIN24_064,19,Male ,2024-02-15_14h59.57.085,jersey_experiment_5,2023.2.2,Win32,85.47008547,,,,,,,,,,,,,,,,816.2828,818.0825,818.0826,819.165,return,0.1089,,73.95833333,,,,,,FBP-PT-91.png,0.35,1.2,56,1,,,,,,,,,,,,,,,,,,0,25,25,55,1,,,,,,,,,,,,,,,,,,,,,,,
,,,,,WIN24_064,19,Male ,2024-02-15_14h59.57.085,jersey_experiment_5,2023.2.2,Win32,85.47008547,,,,,,,,,,,,,,,,819.1653,820.965,820.9651,821.6474,return,0.08,,75.65104167,,,,,,FBP-OG-17.png,0.4,1.2,3,1,,,,,,,,,,,,,,,,,,0,26,26,2,1,,,,,,,,,,,,,,,,,,,,,,,
,,,,,WIN24_064,19,Male ,2024-02-15_14h59.57.085,jersey_experiment_5,2023.2.2,Win32,85.47008547,,,,,,,,,,,,,,,,821.6476,823.4475,823.4475,824.5886,return,0.0976,,69.27083333,,,,,,FBP-PT-71.png,0.35,1.2,46,1,,,,,,,,,,,,,,,,,,0,27,27,45,1,,,,,,,,,,,,,,,,,,,,,,,
,,,,,WIN24_064,19,Male ,2024-02-15_14h59.57.085,jersey_experiment_5,2023.2.2,Win32,85.47008547,,,,,,,,,,,,,,,,824.5888,826.3888,826.3888,827.5063,return,0.1181,,67.31770833,,,,,,FBP-OG-17.png,0.37,1.2,2,1,,,,,,,,,,,,,,,,,,0,28,28,1,1,,,,,,,,,,,,,,,,,,,,,,,
,,,,,WIN24_064,19,Male ,2024-02-15_14h59.57.085,jersey_experiment_5,2023.2.2,Win32,85.47008547,,,,,,,,,,,,,,,,827.5066,828.8006,828.8006,829.9536,return,0.1051,,60.28645833,,,,,,FBP-RB-81.png,0.37,1.2,22,0.5,,,,,,,,,,,,,,,,,,0,29,29,21,1,,,,,,,,,,,,,,,,,,,,,,,
,,,,,WIN24_064,19,Male ,2024-02-15_14h59.57.085,jersey_experiment_5,2023.2.2,Win32,85.47008547,,,,,,,,,,,,,,,,829.9538,831.7539,831.7539,832.7772,return,0.1009,,72.65625,,,,,,FBP-OG-17.png,0.43,1.2,4,1,,,,,,,,,,,,,,,,,,0,30,30,3,1,,,,,,,,,,,,,,,,,,,,,,,
,,,,,WIN24_064,19,Male ,2024-02-15_14h59.57.085,jersey_experiment_5,2023.2.2,Win32,85.47008547,,,,,,,,,,,,,,,,832.7775,834.0713,834.0713,835.4009,return,0.0897,,77.60416667,,,,,,FBP-RB-71.png,0.45,1.2,20,0.5,,,,,,,,,,,,,,,,,,0,31,31,19,1,,,,,,,,,,,,,,,,,,,,,,,
,,,,,WIN24_064,19,Male ,2024-02-15_14h59.57.085,jersey_experiment_5,2023.2.2,Win32,85.47008547,,,,,,,,,,,,,,,,835.4011,837.2009,837.2009,838.5069,return,0.1689,,83.07291667,,,,,,FBP-PT-91.png,0.45,1.2,60,1,,,,,,,,,,,,,,,,,,0,32,32,59,1,,,,,,,,,,,,,,,,,,,,,,,
,,,,,WIN24_064,19,Male ,2024-02-15_14h59.57.085,jersey_experiment_5,2023.2.2,Win32,85.47008547,,,,,,,,,,,,,,,,838.5071,840.3069,840.3069,842.2247,return,0.1655,,79.94791667,,,,,,FBP-PT-81.png,0.43,1.2,54,1,,,,,,,,,,,,,,,,,,0,33,33,53,1,,,,,,,,,,,,,,,,,,,,,,,
,,,,,WIN24_064,19,Male ,2024-02-15_14h59.57.085,jersey_experiment_5,2023.2.2,Win32,85.47008547,,,,,,,,,,,,,,,,842.2249,844.0245,844.0245,845.1777,return,0.1008,,82.16145833,,,,,,FBP-PT-91.png,0.4,1.2,58,1,,,,,,,,,,,,,,,,,,0,34,34,57,1,,,,,,,,,,,,,,,,,,,,,,,
,,,,,WIN24_064,19,Male ,2024-02-15_14h59.57.085,jersey_experiment_5,2023.2.2,Win32,85.47008547,,,,,,,,,,,,,,,,845.1779,846.9777,846.9777,848.3308,return,0.1228,,79.55729167,,,,,,FBP-PT-91.png,0.43,1.2,59,1,,,,,,,,,,,,,,,,,,0,35,35,58,1,,,,,,,,,,,,,,,,,,,,,,,
,,,,,WIN24_064,19,Male ,2024-02-15_14h59.57.085,jersey_experiment_5,2023.2.2,Win32,85.47008547,,,,,,,,,,,,,,,,848.331,850.1308,850.1308,850.825,return,0.1336,,79.55729167,,,,,,FBP-OG-19.png,0.43,1.2,14,1,,,,,,,,,,,,,,,,,,0,36,36,13,1,,,,,,,,,,,,,,,,,,,,,,,
,,,,,WIN24_064,19,Male ,2024-02-15_14h59.57.085,jersey_experiment_5,2023.2.2,Win32,85.47008547,,,,,,,,,,,,,,,,850.8252,852.1191,852.1191,853.0838,return,0.0981,,75,,,,,,FBP-RB-91.png,0.4,1.2,28,0.5,,,,,,,,,,,,,,,,,,0,37,37,27,1,,,,,,,,,,,,,,,,,,,,,,,
,,,,,WIN24_064,19,Male ,2024-02-15_14h59.57.085,jersey_experiment_5,2023.2.2,Win32,85.47008547,,,,,,,,,,,,,,,,853.084,854.378,854.378,855.4487,return,0.1231,,78.77604167,,,,,,FBP-RB-81.png,0.43,1.2,24,0.5,,,,,,,,,,,,,,,,,,0,38,38,23,1,,,,,,,,,,,,,,,,,,,,,,,
,,,,,WIN24_064,19,Male ,2024-02-15_14h59.57.085,jersey_experiment_5,2023.2.2,Win32,85.47008547,,,,,,,,,,,,,,,,855.4489,856.7429,856.7429,858.3311,return,0.1224,,55.72916667,,,,,,FBP-YG-18.png,0.37,1.2,37,0.5,,,,,,,,,,,,,,,,,,0,39,39,36,1,,,,,,,,,,,,,,,,,,,,,,,
,,,,,WIN24_064,19,Male ,2024-02-15_14h59.57.085,jersey_experiment_5,2023.2.2,Win32,85.47008547,,,,,,,,,,,,,,,,858.3313,860.1313,860.1314,861.0842,return,0.0509,,66.40625,,,,,,FBP-OG-18.png,0.43,1.2,9,1,,,,,,,,,,,,,,,,,,0,40,40,8,1,,,,,,,,,,,,,,,,,,,,,,,
,,,,,WIN24_064,19,Male ,2024-02-15_14h59.57.085,jersey_experiment_5,2023.2.2,Win32,85.47008547,,,,,,,,,,,,,,,,861.0843,862.8844,862.8845,863.5313,return,0.0615,,69.140625,,,,,,FBP-OG-18.png,0.35,1.2,6,1,,,,,,,,,,,,,,,,,,0,41,41,5,1,,,,,,,,,,,,,,,,,,,,,,,
,,,,,WIN24_064,19,Male ,2024-02-15_14h59.57.085,jersey_experiment_5,2023.2.2,Win32,85.47008547,,,,,,,,,,,,,,,,863.5316,864.8254,864.8255,866.1195,return,0.1367,,78.515625,,,,,,FBP-YG-19.png,0.43,1.2,44,0.5,,,,,,,,,,,,,,,,,,0,42,42,43,1,,,,,,,,,,,,,,,,,,,,,,,
,,,,,WIN24_064,19,Male ,2024-02-15_14h59.57.085,jersey_experiment_5,2023.2.2,Win32,85.47008547,,,,,,,,,,,,,,,,866.1197,867.9199,867.9199,868.7668,return,0.084,,75.91145833,,,,,,FBP-PT-71.png,0.4,1.2,48,1,,,,,,,,,,,,,,,,,,0,43,43,47,1,,,,,,,,,,,,,,,,,,,,,,,
,,,,,WIN24_064,19,Male ,2024-02-15_14h59.57.085,jersey_experiment_5,2023.2.2,Win32,85.47008547,,,,,,,,,,,,,,,,868.767,870.5668,870.5669,871.6257,return,0.1004,,81.640625,,,,,,FBP-PT-71.png,0.43,1.2,49,1,,,,,,,,,,,,,,,,,,0,44,44,48,1,,,,,,,,,,,,,,,,,,,,,,,
,,,,,WIN24_064,19,Male ,2024-02-15_14h59.57.085,jersey_experiment_5,2023.2.2,Win32,85.47008547,,,,,,,,,,,,,,,,871.626,873.4258,873.4259,874.4023,return,0.08,,76.04166667,,,,,,FBP-PT-81.png,0.4,1.2,53,1,,,,,,,,,,,,,,,,,,0,45,45,52,1,,,,,,,,,,,,,,,,,,,,,,,
,,,,,WIN24_064,19,Male ,2024-02-15_14h59.57.085,jersey_experiment_5,2023.2.2,Win32,85.47008547,,,,,,,,,,,,,,,,874.4026,875.6964,875.6965,877.1787,return,0.1466,,49.21875,,,,,,FBP-YG-17.png,0.35,1.2,31,0.5,,,,,,,,,,,,,,,,,,0,46,46,30,1,,,,,,,,,,,,,,,,,,,,,,,
,,,,,WIN24_064,19,Male ,2024-02-15_14h59.57.085,jersey_experiment_5,2023.2.2,Win32,85.47008547,,,,,,,,,,,,,,,,877.179,878.4731,878.4731,879.8377,return,0.1527,,79.55729167,,,,,,FBP-RB-91.png,0.43,1.2,29,0.5,,,,,,,,,,,,,,,,,,0,47,47,28,1,,,,,,,,,,,,,,,,,,,,,,,
,,,,,WIN24_064,19,Male ,2024-02-15_14h59.57.085,jersey_experiment_5,2023.2.2,Win32,85.47008547,,,,,,,,,,,,,,,,879.838,881.1319,881.1319,882.0732,return,0.0773,,75,,,,,,FBP-RB-71.png,0.43,1.2,19,0.5,,,,,,,,,,,,,,,,,,0,48,48,18,1,,,,,,,,,,,,,,,,,,,,,,,
,,,,,WIN24_064,19,Male ,2024-02-15_14h59.57.085,jersey_experiment_5,2023.2.2,Win32,85.47008547,,,,,,,,,,,,,,,,882.0735,883.8733,883.8733,884.5908,return,0.082,,79.94791667,,,,,,FBP-OG-19.png,0.4,1.2,13,1,,,,,,,,,,,,,,,,,,0,49,49,12,1,,,,,,,,,,,,,,,,,,,,,,,
,,,,,WIN24_064,19,Male ,2024-02-15_14h59.57.085,jersey_experiment_5,2023.2.2,Win32,85.47008547,,,,,,,,,,,,,,,,884.591,885.885,885.885,886.6499,return,0.0183,,79.94791667,,,,,,FBP-YG-19.png,0.37,1.2,42,0.5,,,,,,,,,,,,,,,,,,0,50,50,41,1,,,,,,,,,,,,,,,,,,,,,,,
,,,,,WIN24_064,19,Male ,2024-02-15_14h59.57.085,jersey_experiment_5,2023.2.2,Win32,85.47008547,,,,,,,,,,,,,,,,886.6501,887.944,887.9441,888.7675,return,0.0233,,80.59895833,,,,,,FBP-YG-17.png,0.45,1.2,35,0.5,,,,,,,,,,,,,,,,,,0,51,51,34,1,,,,,,,,,,,,,,,,,,,,,,,
,,,,,WIN24_064,19,Male ,2024-02-15_14h59.57.085,jersey_experiment_5,2023.2.2,Win32,85.47008547,,,,,,,,,,,,,,,,888.7678,890.0617,890.0617,891.0029,return,0.0509,,51.171875,,,,,,FBP-RB-81.png,0.35,1.2,21,0.5,,,,,,,,,,,,,,,,,,0,52,52,20,1,,,,,,,,,,,,,,,,,,,,,,,
,,,,,WIN24_064,19,Male ,2024-02-15_14h59.57.085,jersey_experiment_5,2023.2.2,Win32,85.47008547,,,,,,,,,,,,,,,,891.0032,892.2972,892.2972,893.4853,return,0.1763,,81.90104167,,,,,,FBP-YG-17.png,0.43,1.2,34,0.5,,,,,,,,,,,,,,,,,,0,53,53,33,1,,,,,,,,,,,,,,,,,,,,,,,
,,,,,WIN24_064,19,Male ,2024-02-15_14h59.57.085,jersey_experiment_5,2023.2.2,Win32,85.47008547,,,,,,,,,,,,,,,,893.4856,894.7794,894.7794,895.8973,return,0.1468,,84.24479167,,,,,,FBP-RB-91.png,0.45,1.2,30,0.5,,,,,,,,,,,,,,,,,,0,54,54,29,1,,,,,,,,,,,,,,,,,,,,,,,
,,,,,WIN24_064,19,Male ,2024-02-15_14h59.57.085,jersey_experiment_5,2023.2.2,Win32,85.47008547,,,,,,,,,,,,,,,,895.8976,897.6972,897.6972,899.7444,return,0.1516,,63.54166667,,,,,,FBP-OG-18.png,0.45,1.2,10,1,,,,,,,,,,,,,,,,,,0,55,55,9,1,,,,,,,,,,,,,,,,,,,,,,,
,,,,,WIN24_064,19,Male ,2024-02-15_14h59.57.085,jersey_experiment_5,2023.2.2,Win32,85.47008547,,,,,,,,,,,,,,,,899.7446,901.5447,901.5447,902.7446,return,0.0753,,49.609375,,,,,,FBP-OG-19.png,0.37,1.2,12,1,,,,,,,,,,,,,,,,,,0,56,56,11,1,,,,,,,,,,,,,,,,,,,,,,,
,,,,,WIN24_064,19,Male ,2024-02-15_14h59.57.085,jersey_experiment_5,2023.2.2,Win32,85.47008547,,,,,,,,,,,,,,,,902.7448,904.0387,904.0387,905.1211,return,0.0861,,62.109375,,,,,,FBP-RB-71.png,0.4,1.2,18,0.5,,,,,,,,,,,,,,,,,,0,57,57,17,1,,,,,,,,,,,,,,,,,,,,,,,
,,,,,WIN24_064,19,Male ,2024-02-15_14h59.57.085,jersey_experiment_5,2023.2.2,Win32,85.47008547,,,,,,,,,,,,,,,,905.1214,906.4153,906.4153,907.4152,return,0.1266,,57.8125,,,,,,FBP-RB-71.png,0.37,1.2,17,0.5,,,,,,,,,,,,,,,,,,0,58,58,16,1,,,,,,,,,,,,,,,,,,,,,,,
,,,,,WIN24_064,19,Male ,2024-02-15_14h59.57.085,jersey_experiment_5,2023.2.2,Win32,85.47008547,,,,,,,,,,,,,,,,907.4154,908.7095,908.7095,910.0742,return,0.0764,,43.75,,,,,,FBP-YG-17.png,0.37,1.2,32,0.5,,,,,,,,,,,,,,,,,,0,59,59,31,1,,,,,,,,,,,,,,,,,,,,,,,
,,,,,WIN24_064,19,Male ,2024-02-15_14h59.57.085,jersey_experiment_5,2023.2.2,Win32,85.47008547,,,,,,,,,,,,,,,,,,,,,,,,,,,,,,,,,,,,,,,,,,,,,,,,,,,,,,,,910.0745,915.5806,return,5.4966,,,,,,,,,,,,,,,,,,,
,,,,,WIN24_064,19,Male ,2024-02-15_14h59.57.085,jersey_experiment_5,2023.2.2,Win32,85.47008547,,,,,,,,,,,,,,,,,,,,,,,,,,,,,,,,,,,,,,,,,,,,,,,,,,,,,,,,,,,,,915.5807,920.9925,1,4.3904,return,0.9984,,,,,,,,,,,,
,,,,,WIN24_064,19,Male ,2024-02-15_14h59.57.085,jersey_experiment_5,2023.2.2,Win32,85.47008547,,,,,,,,,,,,,,,,,,,,,,,,,,,,,,,,,,,,,,,,,,,,,,,,,,,,,,,,,,,,,,,,,,,,920.9926,1011.9069,noticing differences in arm and leg size in comparison to the torso of the football players. changing the color of the jersey and player to influence perceiving depth,right,83.8953,,,,,,
,,,,,WIN24_064,19,Male ,2024-02-15_14h59.57.085,jersey_experiment_5,2023.2.2,Win32,85.47008547,,,,,,,,,,,,,,,,,,,,,,,,,,,,,,,,,,,,,,,,,,,,,,,,,,,,,,,,,,,,,,,,,,,,,,,,,,1011.907,1016.9137,return,4.9964,