requirements.started,requirements.stopped,key_resp_3.keys,key_resp_3.rt,key_resp_3.duration,Subject ID,Age,Gender,date,expName,psychopyVersion,OS,frameRate,instructions1.started,instructions1.stopped,key_resp.keys,key_resp.rt,key_resp.duration,example.started,example.stopped,enter_2.keys,enter_2.rt,enter_2.duration,instructions2.started,instructions2.stopped,enter_3.keys,enter_3.rt,enter_3.duration,image.started,image.stopped,slider_2.started,slider_2.stopped,next.keys,next.rt,next.duration,slider.response,trial_block_1.thisRepN,trial_block_1.thisTrialN,trial_block_1.thisN,trial_block_1.thisIndex,trial_block_1.ran,Path,Width,Height,Index,Duration,trial_block_2.thisRepN,trial_block_2.thisTrialN,trial_block_2.thisN,trial_block_2.thisIndex,trial_block_2.ran,rest_break.started,rest_break.stopped,end_break.started,end_break.stopped,key_resp_5.keys,key_resp_5.rt,key_resp_5.duration,trial_block_3.thisRepN,trial_block_3.thisTrialN,trial_block_3.thisN,trial_block_3.thisIndex,trial_block_3.ran,trial_block_4.thisRepN,trial_block_4.thisTrialN,trial_block_4.thisN,trial_block_4.thisIndex,trial_block_4.ran,questions_intro.started,questions_intro.stopped,enter_12.keys,enter_12.rt,enter_12.duration,question2.started,question2.stopped,question_doingbest.response,question_doingbest.rt,enter_15.keys,enter_15.rt,enter_15.duration,pattern.started,pattern.stopped,pattern_2.text,enter_17.keys,enter_17.rt,enter_17.duration,thankyou.started,thankyou.stopped,enter_14.keys,enter_14.rt,enter_14.duration
0.0001,8.0216,return,8.007,,WIN24_019,21,Female,2024-01-30_11h48.08.274,jersey_experiment_5,2023.2.2,Win32,84.74576271,,,,,,,,,,,,,,,,,,,,,,,,,,,,,,,,,,,,,,,,,,,,,,,,,,,,,,,,,,,,,,,,,,,,,,,,,,,,,,
,,,,,WIN24_019,21,Female,2024-01-30_11h48.08.274,jersey_experiment_5,2023.2.2,Win32,84.74576271,8.0217,13.3171,return,5.2824,,,,,,,,,,,,,,,,,,,,,,,,,,,,,,,,,,,,,,,,,,,,,,,,,,,,,,,,,,,,,,,,,,,,,,,,,,
,,,,,WIN24_019,21,Female,2024-01-30_11h48.08.274,jersey_experiment_5,2023.2.2,Win32,84.74576271,,,,,,13.3172,17.6337,return,4.2786,,,,,,,,,,,,,,,,,,,,,,,,,,,,,,,,,,,,,,,,,,,,,,,,,,,,,,,,,,,,,,,,,,,,,
,,,,,WIN24_019,21,Female,2024-01-30_11h48.08.274,jersey_experiment_5,2023.2.2,Win32,84.74576271,,,,,,,,,,,17.6338,35.3409,return,17.7005,,,,,,,,,,,,,,,,,,,,,,,,,,,,,,,,,,,,,,,,,,,,,,,,,,,,,,,,,,,,,,,,
,,,,,WIN24_019,21,Female,2024-01-30_11h48.08.274,jersey_experiment_5,2023.2.2,Win32,84.74576271,,,,,,,,,,,,,,,,35.3549,37.1525,37.1529,40.1172,return,1.1071,,50,0,0,0,16,1,FBP-RB-17.png,0.37,1.2,17,1,,,,,,,,,,,,,,,,,,,,,,,,,,,,,,,,,,,,,,,,,,,,,
,,,,,WIN24_019,21,Female,2024-01-30_11h48.08.274,jersey_experiment_5,2023.2.2,Win32,84.74576271,,,,,,,,,,,,,,,,40.1179,41.4111,41.4112,48.0347,return,5.5071,,37.63020833,0,1,1,46,1,FBP-PT-17.png,0.37,1.2,47,0.5,,,,,,,,,,,,,,,,,,,,,,,,,,,,,,,,,,,,,,,,,,,,,
,,,,,WIN24_019,21,Female,2024-01-30_11h48.08.274,jersey_experiment_5,2023.2.2,Win32,84.74576271,,,,,,,,,,,,,,,,48.0438,49.3405,49.3407,51.4583,return,0.6724,,37.5,0,2,2,56,1,FBP-PT-19.png,0.37,1.2,57,0.5,,,,,,,,,,,,,,,,,,,,,,,,,,,,,,,,,,,,,,,,,,,,,
,,,,,WIN24_019,21,Female,2024-01-30_11h48.08.274,jersey_experiment_5,2023.2.2,Win32,84.74576271,,,,,,,,,,,,,,,,51.4588,53.2586,53.2587,57.1173,return,1.5709,,87.890625,0,3,3,24,1,FBP-RB-18.png,0.45,1.2,25,1,,,,,,,,,,,,,,,,,,,,,,,,,,,,,,,,,,,,,,,,,,,,,
,,,,,WIN24_019,21,Female,2024-01-30_11h48.08.274,jersey_experiment_5,2023.2.2,Win32,84.74576271,,,,,,,,,,,,,,,,57.1179,58.4117,58.4118,60.4823,return,0.6132,,24.73958333,0,4,4,1,1,FBP-OG-71.png,0.37,1.2,2,0.5,,,,,,,,,,,,,,,,,,,,,,,,,,,,,,,,,,,,,,,,,,,,,
,,,,,WIN24_019,21,Female,2024-01-30_11h48.08.274,jersey_experiment_5,2023.2.2,Win32,84.74576271,,,,,,,,,,,,,,,,60.4827,61.7767,61.7768,65.4234,return,0.5914,,49.609375,0,5,5,7,1,FBP-OG-81.png,0.4,1.2,8,0.5,,,,,,,,,,,,,,,,,,,,,,,,,,,,,,,,,,,,,,,,,,,,,
,,,,,WIN24_019,21,Female,2024-01-30_11h48.08.274,jersey_experiment_5,2023.2.2,Win32,84.74576271,,,,,,,,,,,,,,,,65.4235,67.2245,67.2245,68.9296,return,0.5787,,39.97395833,0,6,6,15,1,FBP-RB-17.png,0.35,1.2,16,1,,,,,,,,,,,,,,,,,,,,,,,,,,,,,,,,,,,,,,,,,,,,,
,,,,,WIN24_019,21,Female,2024-01-30_11h48.08.274,jersey_experiment_5,2023.2.2,Win32,84.74576271,,,,,,,,,,,,,,,,68.93,70.7298,70.7299,72.9768,return,0.5565,,50,0,7,7,26,1,FBP-RB-19.png,0.37,1.2,27,1,,,,,,,,,,,,,,,,,,,,,,,,,,,,,,,,,,,,,,,,,,,,,
,,,,,WIN24_019,21,Female,2024-01-30_11h48.08.274,jersey_experiment_5,2023.2.2,Win32,84.74576271,,,,,,,,,,,,,,,,72.9772,74.7768,74.7768,76.6592,return,0.6484,,88.54166667,0,8,8,29,1,FBP-RB-19.png,0.45,1.2,30,1,,,,,,,,,,,,,,,,,,,,,,,,,,,,,,,,,,,,,,,,,,,,,
,,,,,WIN24_019,21,Female,2024-01-30_11h48.08.274,jersey_experiment_5,2023.2.2,Win32,84.74576271,,,,,,,,,,,,,,,,76.6596,78.4594,78.4596,79.6476,return,0.6042,,88.41145833,0,9,9,43,1,FBP-YG-91.png,0.43,1.2,44,1,,,,,,,,,,,,,,,,,,,,,,,,,,,,,,,,,,,,,,,,,,,,,
,,,,,WIN24_019,21,Female,2024-01-30_11h48.08.274,jersey_experiment_5,2023.2.2,Win32,84.74576271,,,,,,,,,,,,,,,,79.6479,81.4475,81.4475,83.0359,return,0.5256,,75.390625,0,10,10,27,1,FBP-RB-19.png,0.4,1.2,28,1,,,,,,,,,,,,,,,,,,,,,,,,,,,,,,,,,,,,,,,,,,,,,
,,,,,WIN24_019,21,Female,2024-01-30_11h48.08.274,jersey_experiment_5,2023.2.2,Win32,84.74576271,,,,,,,,,,,,,,,,83.0362,84.3299,84.33,86.3307,return,0.6218,,87.109375,0,11,11,3,1,FBP-OG-71.png,0.43,1.2,4,0.5,,,,,,,,,,,,,,,,,,,,,,,,,,,,,,,,,,,,,,,,,,,,,
,,,,,WIN24_019,21,Female,2024-01-30_11h48.08.274,jersey_experiment_5,2023.2.2,Win32,84.74576271,,,,,,,,,,,,,,,,86.3311,88.1311,88.1312,89.2484,return,0.1447,,25.65104167,0,12,12,20,1,FBP-RB-18.png,0.35,1.2,21,1,,,,,,,,,,,,,,,,,,,,,,,,,,,,,,,,,,,,,,,,,,,,,
,,,,,WIN24_019,21,Female,2024-01-30_11h48.08.274,jersey_experiment_5,2023.2.2,Win32,84.74576271,,,,,,,,,,,,,,,,89.2488,90.5423,90.5423,91.8128,return,0.1765,,25.390625,0,13,13,10,1,FBP-OG-91.png,0.35,1.2,11,0.5,,,,,,,,,,,,,,,,,,,,,,,,,,,,,,,,,,,,,,,,,,,,,
,,,,,WIN24_019,21,Female,2024-01-30_11h48.08.274,jersey_experiment_5,2023.2.2,Win32,84.74576271,,,,,,,,,,,,,,,,91.8131,93.107,93.1071,94.8834,return,0.9772,,49.609375,0,14,14,47,1,FBP-PT-17.png,0.4,1.2,48,0.5,,,,,,,,,,,,,,,,,,,,,,,,,,,,,,,,,,,,,,,,,,,,,
,,,,,WIN24_019,21,Female,2024-01-30_11h48.08.274,jersey_experiment_5,2023.2.2,Win32,84.74576271,,,,,,,,,,,,,,,,94.8838,96.1776,96.1778,98.0835,return,0.1301,,75,0,15,15,58,1,FBP-PT-19.png,0.43,1.2,59,0.5,,,,,,,,,,,,,,,,,,,,,,,,,,,,,,,,,,,,,,,,,,,,,
,,,,,WIN24_019,21,Female,2024-01-30_11h48.08.274,jersey_experiment_5,2023.2.2,Win32,84.74576271,,,,,,,,,,,,,,,,98.0838,99.8837,99.8837,101.6012,return,1.2142,,75,0,16,16,28,1,FBP-RB-19.png,0.43,1.2,29,1,,,,,,,,,,,,,,,,,,,,,,,,,,,,,,,,,,,,,,,,,,,,,
,,,,,WIN24_019,21,Female,2024-01-30_11h48.08.274,jersey_experiment_5,2023.2.2,Win32,84.74576271,,,,,,,,,,,,,,,,101.6018,103.402,103.4021,104.8484,return,0.2269,,89.0625,0,17,17,19,1,FBP-RB-17.png,0.45,1.2,20,1,,,,,,,,,,,,,,,,,,,,,,,,,,,,,,,,,,,,,,,,,,,,,
,,,,,WIN24_019,21,Female,2024-01-30_11h48.08.274,jersey_experiment_5,2023.2.2,Win32,84.74576271,,,,,,,,,,,,,,,,104.8489,106.6486,106.6487,107.6486,return,0.2271,,90.10416667,0,18,18,38,1,FBP-YG-81.png,0.43,1.2,39,1,,,,,,,,,,,,,,,,,,,,,,,,,,,,,,,,,,,,,,,,,,,,,
,,,,,WIN24_019,21,Female,2024-01-30_11h48.08.274,jersey_experiment_5,2023.2.2,Win32,84.74576271,,,,,,,,,,,,,,,,107.6489,109.4495,109.4496,110.8486,return,0.191,,24.609375,0,19,19,35,1,FBP-YG-81.png,0.35,1.2,36,1,,,,,,,,,,,,,,,,,,,,,,,,,,,,,,,,,,,,,,,,,,,,,
,,,,,WIN24_019,21,Female,2024-01-30_11h48.08.274,jersey_experiment_5,2023.2.2,Win32,84.74576271,,,,,,,,,,,,,,,,110.8491,112.1429,112.1429,113.5664,return,0.17,,90.49479167,0,20,20,14,1,FBP-OG-91.png,0.45,1.2,15,0.5,,,,,,,,,,,,,,,,,,,,,,,,,,,,,,,,,,,,,,,,,,,,,
,,,,,WIN24_019,21,Female,2024-01-30_11h48.08.274,jersey_experiment_5,2023.2.2,Win32,84.74576271,,,,,,,,,,,,,,,,113.5667,114.8606,114.8607,116.3546,return,0.2488,,24.86979167,0,21,21,11,1,FBP-OG-91.png,0.37,1.2,12,0.5,,,,,,,,,,,,,,,,,,,,,,,,,,,,,,,,,,,,,,,,,,,,,
,,,,,WIN24_019,21,Female,2024-01-30_11h48.08.274,jersey_experiment_5,2023.2.2,Win32,84.74576271,,,,,,,,,,,,,,,,116.3548,118.155,118.155,119.6136,return,0.1362,,50,0,22,22,17,1,FBP-RB-17.png,0.4,1.2,18,1,,,,,,,,,,,,,,,,,,,,,,,,,,,,,,,,,,,,,,,,,,,,,
,,,,,WIN24_019,21,Female,2024-01-30_11h48.08.274,jersey_experiment_5,2023.2.2,Win32,84.74576271,,,,,,,,,,,,,,,,119.6137,120.9077,120.9077,122.7783,return,0.1512,,24.86979167,0,23,23,55,1,FBP-PT-19.png,0.35,1.2,56,0.5,,,,,,,,,,,,,,,,,,,,,,,,,,,,,,,,,,,,,,,,,,,,,
,,,,,WIN24_019,21,Female,2024-01-30_11h48.08.274,jersey_experiment_5,2023.2.2,Win32,84.74576271,,,,,,,,,,,,,,,,122.7785,124.5784,124.5784,125.602,return,0.1082,,74.73958333,0,24,24,18,1,FBP-RB-17.png,0.43,1.2,19,1,,,,,,,,,,,,,,,,,,,,,,,,,,,,,,,,,,,,,,,,,,,,,
,,,,,WIN24_019,21,Female,2024-01-30_11h48.08.274,jersey_experiment_5,2023.2.2,Win32,84.74576271,,,,,,,,,,,,,,,,125.6022,126.8964,126.8964,128.3784,return,0.1392,,92.83854167,0,25,25,4,1,FBP-OG-71.png,0.45,1.2,5,0.5,,,,,,,,,,,,,,,,,,,,,,,,,,,,,,,,,,,,,,,,,,,,,
,,,,,WIN24_019,21,Female,2024-01-30_11h48.08.274,jersey_experiment_5,2023.2.2,Win32,84.74576271,,,,,,,,,,,,,,,,128.3785,130.1786,130.1787,131.2623,return,0.1647,,13.80208333,0,26,26,25,1,FBP-RB-19.png,0.35,1.2,26,1,,,,,,,,,,,,,,,,,,,,,,,,,,,,,,,,,,,,,,,,,,,,,
,,,,,WIN24_019,21,Female,2024-01-30_11h48.08.274,jersey_experiment_5,2023.2.2,Win32,84.74576271,,,,,,,,,,,,,,,,131.2625,133.0623,133.0623,134.2509,return,0.1178,,74.609375,0,27,27,23,1,FBP-RB-18.png,0.43,1.2,24,1,,,,,,,,,,,,,,,,,,,,,,,,,,,,,,,,,,,,,,,,,,,,,
,,,,,WIN24_019,21,Female,2024-01-30_11h48.08.274,jersey_experiment_5,2023.2.2,Win32,84.74576271,,,,,,,,,,,,,,,,134.2511,136.0508,136.0508,137.4026,return,0.1272,,6.901041667,0,28,28,30,1,FBP-YG-71.png,0.35,1.2,31,1,,,,,,,,,,,,,,,,,,,,,,,,,,,,,,,,,,,,,,,,,,,,,
,,,,,WIN24_019,21,Female,2024-01-30_11h48.08.274,jersey_experiment_5,2023.2.2,Win32,84.74576271,,,,,,,,,,,,,,,,137.4031,138.6969,138.697,140.5907,return,0.1113,,25.13020833,0,29,29,6,1,FBP-OG-81.png,0.37,1.2,7,0.5,,,,,,,,,,,,,,,,,,,,,,,,,,,,,,,,,,,,,,,,,,,,,
,,,,,WIN24_019,21,Female,2024-01-30_11h48.08.274,jersey_experiment_5,2023.2.2,Win32,84.74576271,,,,,,,,,,,,,,,,140.5909,142.3908,142.3908,143.6511,return,0.1176,,50,0,30,30,37,1,FBP-YG-81.png,0.4,1.2,38,1,,,,,,,,,,,,,,,,,,,,,,,,,,,,,,,,,,,,,,,,,,,,,
,,,,,WIN24_019,21,Female,2024-01-30_11h48.08.274,jersey_experiment_5,2023.2.2,Win32,84.74576271,,,,,,,,,,,,,,,,143.6512,144.9441,144.9442,145.5204,return,0.1691,,50,0,31,31,51,1,FBP-PT-18.png,0.37,1.2,52,0.5,,,,,,,,,,,,,,,,,,,,,,,,,,,,,,,,,,,,,,,,,,,,,
,,,,,WIN24_019,21,Female,2024-01-30_11h48.08.274,jersey_experiment_5,2023.2.2,Win32,84.74576271,,,,,,,,,,,,,,,,145.5208,147.3205,147.3205,148.3572,return,0.1297,,74.86979167,0,32,32,33,1,FBP-YG-71.png,0.43,1.2,34,1,,,,,,,,,,,,,,,,,,,,,,,,,,,,,,,,,,,,,,,,,,,,,
,,,,,WIN24_019,21,Female,2024-01-30_11h48.08.274,jersey_experiment_5,2023.2.2,Win32,84.74576271,,,,,,,,,,,,,,,,148.3573,149.6502,149.6502,150.9794,return,0.1536,,88.02083333,0,33,33,9,1,FBP-OG-81.png,0.45,1.2,10,0.5,,,,,,,,,,,,,,,,,,,,,,,,,,,,,,,,,,,,,,,,,,,,,
,,,,,WIN24_019,21,Female,2024-01-30_11h48.08.274,jersey_experiment_5,2023.2.2,Win32,84.74576271,,,,,,,,,,,,,,,,150.9798,152.7808,152.7808,154.0749,return,0.2118,,12.23958333,0,34,34,40,1,FBP-YG-91.png,0.35,1.2,41,1,,,,,,,,,,,,,,,,,,,,,,,,,,,,,,,,,,,,,,,,,,,,,
,,,,,WIN24_019,21,Female,2024-01-30_11h48.08.274,jersey_experiment_5,2023.2.2,Win32,84.74576271,,,,,,,,,,,,,,,,154.0751,155.3681,155.3682,157.0281,return,0.2355,,98.95833333,0,35,35,54,1,FBP-PT-18.png,0.45,1.2,55,0.5,,,,,,,,,,,,,,,,,,,,,,,,,,,,,,,,,,,,,,,,,,,,,
,,,,,WIN24_019,21,Female,2024-01-30_11h48.08.274,jersey_experiment_5,2023.2.2,Win32,84.74576271,,,,,,,,,,,,,,,,157.0283,158.8278,158.8278,161.1209,return,1.0153,,63.41145833,0,36,36,32,1,FBP-YG-71.png,0.4,1.2,33,1,,,,,,,,,,,,,,,,,,,,,,,,,,,,,,,,,,,,,,,,,,,,,
,,,,,WIN24_019,21,Female,2024-01-30_11h48.08.274,jersey_experiment_5,2023.2.2,Win32,84.74576271,,,,,,,,,,,,,,,,161.1211,162.4153,162.4154,163.9342,return,0.1178,,50,0,37,37,52,1,FBP-PT-18.png,0.4,1.2,53,0.5,,,,,,,,,,,,,,,,,,,,,,,,,,,,,,,,,,,,,,,,,,,,,
,,,,,WIN24_019,21,Female,2024-01-30_11h48.08.274,jersey_experiment_5,2023.2.2,Win32,84.74576271,,,,,,,,,,,,,,,,163.9343,165.2272,165.2273,166.4151,return,0.1228,,10.15625,0,38,38,5,1,FBP-OG-81.png,0.35,1.2,6,0.5,,,,,,,,,,,,,,,,,,,,,,,,,,,,,,,,,,,,,,,,,,,,,
,,,,,WIN24_019,21,Female,2024-01-30_11h48.08.274,jersey_experiment_5,2023.2.2,Win32,84.74576271,,,,,,,,,,,,,,,,166.4154,168.2152,168.2152,169.5329,return,0.1015,,74.86979167,0,39,39,42,1,FBP-YG-91.png,0.4,1.2,43,1,,,,,,,,,,,,,,,,,,,,,,,,,,,,,,,,,,,,,,,,,,,,,
,,,,,WIN24_019,21,Female,2024-01-30_11h48.08.274,jersey_experiment_5,2023.2.2,Win32,84.74576271,,,,,,,,,,,,,,,,169.5331,170.8274,170.8275,172.4746,return,0.9977,,99.08854167,0,40,40,49,1,FBP-PT-17.png,0.45,1.2,50,0.5,,,,,,,,,,,,,,,,,,,,,,,,,,,,,,,,,,,,,,,,,,,,,
,,,,,WIN24_019,21,Female,2024-01-30_11h48.08.274,jersey_experiment_5,2023.2.2,Win32,84.74576271,,,,,,,,,,,,,,,,172.475,174.2757,174.2759,175.2156,return,0.1573,,98.828125,0,41,41,39,1,FBP-YG-81.png,0.45,1.2,40,1,,,,,,,,,,,,,,,,,,,,,,,,,,,,,,,,,,,,,,,,,,,,,
,,,,,WIN24_019,21,Female,2024-01-30_11h48.08.274,jersey_experiment_5,2023.2.2,Win32,84.74576271,,,,,,,,,,,,,,,,175.2161,177.0164,177.0164,178.2041,return,0.2195,,49.08854167,0,42,42,36,1,FBP-YG-81.png,0.37,1.2,37,1,,,,,,,,,,,,,,,,,,,,,,,,,,,,,,,,,,,,,,,,,,,,,
,,,,,WIN24_019,21,Female,2024-01-30_11h48.08.274,jersey_experiment_5,2023.2.2,Win32,84.74576271,,,,,,,,,,,,,,,,178.2046,179.4984,179.4985,181.2515,return,0.1659,,99.73958333,0,43,43,59,1,FBP-PT-19.png,0.45,1.2,60,0.5,,,,,,,,,,,,,,,,,,,,,,,,,,,,,,,,,,,,,,,,,,,,,
,,,,,WIN24_019,21,Female,2024-01-30_11h48.08.274,jersey_experiment_5,2023.2.2,Win32,84.74576271,,,,,,,,,,,,,,,,181.2519,182.5454,182.5456,184.7691,return,0.2027,,0.390625,0,44,44,45,1,FBP-PT-17.png,0.35,1.2,46,0.5,,,,,,,,,,,,,,,,,,,,,,,,,,,,,,,,,,,,,,,,,,,,,
,,,,,WIN24_019,21,Female,2024-01-30_11h48.08.274,jersey_experiment_5,2023.2.2,Win32,84.74576271,,,,,,,,,,,,,,,,184.7696,186.0632,186.0633,187.4985,return,0.2213,,75.390625,0,45,45,48,1,FBP-PT-17.png,0.43,1.2,49,0.5,,,,,,,,,,,,,,,,,,,,,,,,,,,,,,,,,,,,,,,,,,,,,
,,,,,WIN24_019,21,Female,2024-01-30_11h48.08.274,jersey_experiment_5,2023.2.2,Win32,84.74576271,,,,,,,,,,,,,,,,187.499,189.2987,189.2988,192.5227,return,2.6218,,60.546875,0,46,46,22,1,FBP-RB-18.png,0.4,1.2,23,1,,,,,,,,,,,,,,,,,,,,,,,,,,,,,,,,,,,,,,,,,,,,,
,,,,,WIN24_019,21,Female,2024-01-30_11h48.08.274,jersey_experiment_5,2023.2.2,Win32,84.74576271,,,,,,,,,,,,,,,,192.5231,193.8166,193.8166,194.381,return,0.1952,,60.546875,0,47,47,2,1,FBP-OG-71.png,0.4,1.2,3,0.5,,,,,,,,,,,,,,,,,,,,,,,,,,,,,,,,,,,,,,,,,,,,,
,,,,,WIN24_019,21,Female,2024-01-30_11h48.08.274,jersey_experiment_5,2023.2.2,Win32,84.74576271,,,,,,,,,,,,,,,,194.3814,196.182,196.182,197.3228,return,0.292,,38.93229167,0,48,48,31,1,FBP-YG-71.png,0.37,1.2,32,1,,,,,,,,,,,,,,,,,,,,,,,,,,,,,,,,,,,,,,,,,,,,,
,,,,,WIN24_019,21,Female,2024-01-30_11h48.08.274,jersey_experiment_5,2023.2.2,Win32,84.74576271,,,,,,,,,,,,,,,,197.3233,199.1238,199.1239,200.9812,return,0.6593,,75.52083333,0,49,49,34,1,FBP-YG-71.png,0.45,1.2,35,1,,,,,,,,,,,,,,,,,,,,,,,,,,,,,,,,,,,,,,,,,,,,,
,,,,,WIN24_019,21,Female,2024-01-30_11h48.08.274,jersey_experiment_5,2023.2.2,Win32,84.74576271,,,,,,,,,,,,,,,,200.9816,202.2755,202.2756,204.4056,return,0.2001,,38.671875,0,50,50,50,1,FBP-PT-18.png,0.35,1.2,51,0.5,,,,,,,,,,,,,,,,,,,,,,,,,,,,,,,,,,,,,,,,,,,,,
,,,,,WIN24_019,21,Female,2024-01-30_11h48.08.274,jersey_experiment_5,2023.2.2,Win32,84.74576271,,,,,,,,,,,,,,,,204.406,205.6993,205.6994,207.0049,return,0.1005,,74.73958333,0,51,51,53,1,FBP-PT-18.png,0.43,1.2,54,0.5,,,,,,,,,,,,,,,,,,,,,,,,,,,,,,,,,,,,,,,,,,,,,
,,,,,WIN24_019,21,Female,2024-01-30_11h48.08.274,jersey_experiment_5,2023.2.2,Win32,84.74576271,,,,,,,,,,,,,,,,207.0054,208.8062,208.8063,210.1816,return,0.2709,,50.13020833,0,52,52,21,1,FBP-RB-18.png,0.37,1.2,22,1,,,,,,,,,,,,,,,,,,,,,,,,,,,,,,,,,,,,,,,,,,,,,
,,,,,WIN24_019,21,Female,2024-01-30_11h48.08.274,jersey_experiment_5,2023.2.2,Win32,84.74576271,,,,,,,,,,,,,,,,210.1821,211.9816,211.9817,212.5815,return,0.1883,,50.13020833,0,53,53,41,1,FBP-YG-91.png,0.37,1.2,42,1,,,,,,,,,,,,,,,,,,,,,,,,,,,,,,,,,,,,,,,,,,,,,
,,,,,WIN24_019,21,Female,2024-01-30_11h48.08.274,jersey_experiment_5,2023.2.2,Win32,84.74576271,,,,,,,,,,,,,,,,212.5819,214.3823,214.3824,216.229,return,0.8357,,88.671875,0,54,54,44,1,FBP-YG-91.png,0.45,1.2,45,1,,,,,,,,,,,,,,,,,,,,,,,,,,,,,,,,,,,,,,,,,,,,,
,,,,,WIN24_019,21,Female,2024-01-30_11h48.08.274,jersey_experiment_5,2023.2.2,Win32,84.74576271,,,,,,,,,,,,,,,,216.2297,217.5231,217.5232,219.476,return,0.2359,,35.15625,0,55,55,0,1,FBP-OG-71.png,0.35,1.2,1,0.5,,,,,,,,,,,,,,,,,,,,,,,,,,,,,,,,,,,,,,,,,,,,,
,,,,,WIN24_019,21,Female,2024-01-30_11h48.08.274,jersey_experiment_5,2023.2.2,Win32,84.74576271,,,,,,,,,,,,,,,,219.4764,220.7703,220.7705,221.9465,return,0.115,,49.609375,0,56,56,57,1,FBP-PT-19.png,0.4,1.2,58,0.5,,,,,,,,,,,,,,,,,,,,,,,,,,,,,,,,,,,,,,,,,,,,,
,,,,,WIN24_019,21,Female,2024-01-30_11h48.08.274,jersey_experiment_5,2023.2.2,Win32,84.74576271,,,,,,,,,,,,,,,,221.9468,223.2409,223.2409,226.5467,return,0.1074,,74.609375,0,57,57,13,1,FBP-OG-91.png,0.43,1.2,14,0.5,,,,,,,,,,,,,,,,,,,,,,,,,,,,,,,,,,,,,,,,,,,,,
,,,,,WIN24_019,21,Female,2024-01-30_11h48.08.274,jersey_experiment_5,2023.2.2,Win32,84.74576271,,,,,,,,,,,,,,,,226.5471,227.841,227.8411,230.0527,return,0.9423,,61.328125,0,58,58,12,1,FBP-OG-91.png,0.4,1.2,13,0.5,,,,,,,,,,,,,,,,,,,,,,,,,,,,,,,,,,,,,,,,,,,,,
,,,,,WIN24_019,21,Female,2024-01-30_11h48.08.274,jersey_experiment_5,2023.2.2,Win32,84.74576271,,,,,,,,,,,,,,,,230.0531,231.3472,231.3473,232.5116,return,0.1458,,75,0,59,59,8,1,FBP-OG-81.png,0.43,1.2,9,0.5,,,,,,,,,,,,,,,,,,,,,,,,,,,,,,,,,,,,,,,,,,,,,
,,,,,WIN24_019,21,Female,2024-01-30_11h48.08.274,jersey_experiment_5,2023.2.2,Win32,84.74576271,,,,,,,,,,,,,,,,232.514,233.8069,233.8069,234.9706,return,0.1747,,25,,,,,,FBP-OG-18.png,0.35,1.2,6,0.5,0,0,0,5,1,,,,,,,,,,,,,,,,,,,,,,,,,,,,,,,,,,,,,,,,
,,,,,WIN24_019,21,Female,2024-01-30_11h48.08.274,jersey_experiment_5,2023.2.2,Win32,84.74576271,,,,,,,,,,,,,,,,234.9711,236.2648,236.2648,237.8307,return,0.2472,,93.09895833,,,,,,FBP-PT-81.png,0.45,1.2,55,0.5,0,1,1,54,1,,,,,,,,,,,,,,,,,,,,,,,,,,,,,,,,,,,,,,,,
,,,,,WIN24_019,21,Female,2024-01-30_11h48.08.274,jersey_experiment_5,2023.2.2,Win32,84.74576271,,,,,,,,,,,,,,,,237.831,239.1238,239.1238,240.3236,return,0.3655,,75.26041667,,,,,,FBP-OG-18.png,0.4,1.2,8,0.5,0,2,2,7,1,,,,,,,,,,,,,,,,,,,,,,,,,,,,,,,,,,,,,,,,
,,,,,WIN24_019,21,Female,2024-01-30_11h48.08.274,jersey_experiment_5,2023.2.2,Win32,84.74576271,,,,,,,,,,,,,,,,240.324,242.1245,242.1246,243.2767,return,0.4187,,95.44270833,,,,,,FBP-YG-17.png,0.45,1.2,35,1,0,3,3,34,1,,,,,,,,,,,,,,,,,,,,,,,,,,,,,,,,,,,,,,,,
,,,,,WIN24_019,21,Female,2024-01-30_11h48.08.274,jersey_experiment_5,2023.2.2,Win32,84.74576271,,,,,,,,,,,,,,,,243.2771,244.5709,244.5709,246.9119,return,0.1336,,36.58854167,,,,,,FBP-OG-17.png,0.37,1.2,2,0.5,0,4,4,1,1,,,,,,,,,,,,,,,,,,,,,,,,,,,,,,,,,,,,,,,,
,,,,,WIN24_019,21,Female,2024-01-30_11h48.08.274,jersey_experiment_5,2023.2.2,Win32,84.74576271,,,,,,,,,,,,,,,,246.9121,248.2064,248.2065,249.2649,return,0.1089,,24.73958333,,,,,,FBP-PT-91.png,0.37,1.2,57,0.5,0,5,5,56,1,,,,,,,,,,,,,,,,,,,,,,,,,,,,,,,,,,,,,,,,
,,,,,WIN24_019,21,Female,2024-01-30_11h48.08.274,jersey_experiment_5,2023.2.2,Win32,84.74576271,,,,,,,,,,,,,,,,249.2651,251.0663,251.0664,251.983,return,0.0869,,74.73958333,,,,,,FBP-RB-91.png,0.43,1.2,29,1,0,6,6,28,1,,,,,,,,,,,,,,,,,,,,,,,,,,,,,,,,,,,,,,,,
,,,,,WIN24_019,21,Female,2024-01-30_11h48.08.274,jersey_experiment_5,2023.2.2,Win32,84.74576271,,,,,,,,,,,,,,,,251.9835,253.783,253.783,255.8418,return,1.2138,,50.26041667,,,,,,FBP-YG-17.png,0.4,1.2,33,1,0,7,7,32,1,,,,,,,,,,,,,,,,,,,,,,,,,,,,,,,,,,,,,,,,
,,,,,WIN24_019,21,Female,2024-01-30_11h48.08.274,jersey_experiment_5,2023.2.2,Win32,84.74576271,,,,,,,,,,,,,,,,255.8422,257.6426,257.6426,258.736,return,0.1212,,37.23958333,,,,,,FBP-RB-81.png,0.35,1.2,21,1,0,8,8,20,1,,,,,,,,,,,,,,,,,,,,,,,,,,,,,,,,,,,,,,,,
,,,,,WIN24_019,21,Female,2024-01-30_11h48.08.274,jersey_experiment_5,2023.2.2,Win32,84.74576271,,,,,,,,,,,,,,,,258.7365,260.5364,260.5366,261.9829,return,0.2515,,37.23958333,,,,,,FBP-YG-18.png,0.37,1.2,37,1,0,9,9,36,1,,,,,,,,,,,,,,,,,,,,,,,,,,,,,,,,,,,,,,,,
,,,,,WIN24_019,21,Female,2024-01-30_11h48.08.274,jersey_experiment_5,2023.2.2,Win32,84.74576271,,,,,,,,,,,,,,,,261.9831,263.7834,263.7835,265.4539,return,0.1707,,63.41145833,,,,,,FBP-YG-17.png,0.43,1.2,34,1,0,10,10,33,1,,,,,,,,,,,,,,,,,,,,,,,,,,,,,,,,,,,,,,,,
,,,,,WIN24_019,21,Female,2024-01-30_11h48.08.274,jersey_experiment_5,2023.2.2,Win32,84.74576271,,,,,,,,,,,,,,,,265.4544,267.2548,267.2549,268.0776,return,0.1349,,85.9375,,,,,,FBP-RB-81.png,0.43,1.2,24,1,0,11,11,23,1,,,,,,,,,,,,,,,,,,,,,,,,,,,,,,,,,,,,,,,,
,,,,,WIN24_019,21,Female,2024-01-30_11h48.08.274,jersey_experiment_5,2023.2.2,Win32,84.74576271,,,,,,,,,,,,,,,,268.0781,269.3719,269.372,272.5601,return,2.3802,,61.45833333,,,,,,FBP-PT-81.png,0.4,1.2,53,0.5,0,12,12,52,1,,,,,,,,,,,,,,,,,,,,,,,,,,,,,,,,,,,,,,,,
,,,,,WIN24_019,21,Female,2024-01-30_11h48.08.274,jersey_experiment_5,2023.2.2,Win32,84.74576271,,,,,,,,,,,,,,,,272.5605,274.3609,274.361,275.1719,return,0.1304,,83.203125,,,,,,FBP-YG-18.png,0.45,1.2,40,1,0,13,13,39,1,,,,,,,,,,,,,,,,,,,,,,,,,,,,,,,,,,,,,,,,
,,,,,WIN24_019,21,Female,2024-01-30_11h48.08.274,jersey_experiment_5,2023.2.2,Win32,84.74576271,,,,,,,,,,,,,,,,275.1724,276.9722,276.9722,278.1955,return,0.1537,,57.8125,,,,,,FBP-RB-91.png,0.37,1.2,27,1,0,14,14,26,1,,,,,,,,,,,,,,,,,,,,,,,,,,,,,,,,,,,,,,,,
,,,,,WIN24_019,21,Female,2024-01-30_11h48.08.274,jersey_experiment_5,2023.2.2,Win32,84.74576271,,,,,,,,,,,,,,,,278.196,279.4898,279.4899,280.9015,return,0.6945,,54.94791667,,,,,,FBP-PT-71.png,0.37,1.2,47,0.5,0,15,15,46,1,,,,,,,,,,,,,,,,,,,,,,,,,,,,,,,,,,,,,,,,
,,,,,WIN24_019,21,Female,2024-01-30_11h48.08.274,jersey_experiment_5,2023.2.2,Win32,84.74576271,,,,,,,,,,,,,,,,280.9019,282.7024,282.7025,284.7957,return,1.3959,,37.76041667,,,,,,FBP-YG-19.png,0.37,1.2,42,1,0,16,16,41,1,,,,,,,,,,,,,,,,,,,,,,,,,,,,,,,,,,,,,,,,
,,,,,WIN24_019,21,Female,2024-01-30_11h48.08.274,jersey_experiment_5,2023.2.2,Win32,84.74576271,,,,,,,,,,,,,,,,284.7962,286.596,286.596,288.3019,return,0.123,,64.0625,,,,,,FBP-RB-91.png,0.4,1.2,28,1,0,17,17,27,1,,,,,,,,,,,,,,,,,,,,,,,,,,,,,,,,,,,,,,,,
,,,,,WIN24_019,21,Female,2024-01-30_11h48.08.274,jersey_experiment_5,2023.2.2,Win32,84.74576271,,,,,,,,,,,,,,,,288.3021,289.5961,289.5962,292.0904,return,0.6684,,62.63020833,,,,,,FBP-PT-91.png,0.35,1.2,56,0.5,0,18,18,55,1,,,,,,,,,,,,,,,,,,,,,,,,,,,,,,,,,,,,,,,,
,,,,,WIN24_019,21,Female,2024-01-30_11h48.08.274,jersey_experiment_5,2023.2.2,Win32,84.74576271,,,,,,,,,,,,,,,,292.0908,293.8902,293.8902,294.7976,return,0.1414,,25.52083333,,,,,,FBP-RB-91.png,0.35,1.2,26,1,0,19,19,25,1,,,,,,,,,,,,,,,,,,,,,,,,,,,,,,,,,,,,,,,,
,,,,,WIN24_019,21,Female,2024-01-30_11h48.08.274,jersey_experiment_5,2023.2.2,Win32,84.74576271,,,,,,,,,,,,,,,,294.7978,296.5962,296.5962,297.2432,return,0.1268,,16.40625,,,,,,FBP-YG-18.png,0.35,1.2,36,1,0,20,20,35,1,,,,,,,,,,,,,,,,,,,,,,,,,,,,,,,,,,,,,,,,
,,,,,WIN24_019,21,Female,2024-01-30_11h48.08.274,jersey_experiment_5,2023.2.2,Win32,84.74576271,,,,,,,,,,,,,,,,297.2434,299.0435,299.0436,300.4904,return,0.1157,,59.11458333,,,,,,FBP-YG-19.png,0.4,1.2,43,1,0,21,21,42,1,,,,,,,,,,,,,,,,,,,,,,,,,,,,,,,,,,,,,,,,
,,,,,WIN24_019,21,Female,2024-01-30_11h48.08.274,jersey_experiment_5,2023.2.2,Win32,84.74576271,,,,,,,,,,,,,,,,300.4905,302.2906,302.2907,303.2684,return,0.1885,,82.55208333,,,,,,FBP-RB-81.png,0.45,1.2,25,1,0,22,22,24,1,,,,,,,,,,,,,,,,,,,,,,,,,,,,,,,,,,,,,,,,
,,,,,WIN24_019,21,Female,2024-01-30_11h48.08.274,jersey_experiment_5,2023.2.2,Win32,84.74576271,,,,,,,,,,,,,,,,303.2686,305.0671,305.0671,305.8201,return,0.0788,,25.390625,,,,,,FBP-YG-17.png,0.35,1.2,31,1,0,23,23,30,1,,,,,,,,,,,,,,,,,,,,,,,,,,,,,,,,,,,,,,,,
,,,,,WIN24_019,21,Female,2024-01-30_11h48.08.274,jersey_experiment_5,2023.2.2,Win32,84.74576271,,,,,,,,,,,,,,,,305.8204,307.1144,307.1145,308.939,return,1.0354,,41.40625,,,,,,FBP-OG-19.png,0.37,1.2,12,0.5,0,24,24,11,1,,,,,,,,,,,,,,,,,,,,,,,,,,,,,,,,,,,,,,,,
,,,,,WIN24_019,21,Female,2024-01-30_11h48.08.274,jersey_experiment_5,2023.2.2,Win32,84.74576271,,,,,,,,,,,,,,,,308.9391,310.232,310.232,311.5378,return,0.1786,,97.00520833,,,,,,FBP-PT-91.png,0.45,1.2,60,0.5,0,25,25,59,1,,,,,,,,,,,,,,,,,,,,,,,,,,,,,,,,,,,,,,,,
,,,,,WIN24_019,21,Female,2024-01-30_11h48.08.274,jersey_experiment_5,2023.2.2,Win32,84.74576271,,,,,,,,,,,,,,,,311.5381,312.8322,312.8322,314.5377,return,0.2924,,99.73958333,,,,,,FBP-OG-18.png,0.45,1.2,10,0.5,0,26,26,9,1,,,,,,,,,,,,,,,,,,,,,,,,,,,,,,,,,,,,,,,,
,,,,,WIN24_019,21,Female,2024-01-30_11h48.08.274,jersey_experiment_5,2023.2.2,Win32,84.74576271,,,,,,,,,,,,,,,,314.5378,315.8323,315.8324,317.2453,return,0.106,,25.65104167,,,,,,FBP-PT-71.png,0.35,1.2,46,0.5,0,27,27,45,1,,,,,,,,,,,,,,,,,,,,,,,,,,,,,,,,,,,,,,,,
,,,,,WIN24_019,21,Female,2024-01-30_11h48.08.274,jersey_experiment_5,2023.2.2,Win32,84.74576271,,,,,,,,,,,,,,,,317.2455,318.5381,318.5381,319.891,return,0.1546,,50.26041667,,,,,,FBP-PT-81.png,0.37,1.2,52,0.5,0,28,28,51,1,,,,,,,,,,,,,,,,,,,,,,,,,,,,,,,,,,,,,,,,
,,,,,WIN24_019,21,Female,2024-01-30_11h48.08.274,jersey_experiment_5,2023.2.2,Win32,84.74576271,,,,,,,,,,,,,,,,319.8911,321.6925,321.6925,322.5279,return,0.2354,,24.73958333,,,,,,FBP-RB-71.png,0.35,1.2,16,1,0,29,29,15,1,,,,,,,,,,,,,,,,,,,,,,,,,,,,,,,,,,,,,,,,
,,,,,WIN24_019,21,Female,2024-01-30_11h48.08.274,jersey_experiment_5,2023.2.2,Win32,84.74576271,,,,,,,,,,,,,,,,322.5281,324.3265,324.3265,325.2324,return,0.1923,,67.96875,,,,,,FBP-RB-71.png,0.4,1.2,18,1,0,30,30,17,1,,,,,,,,,,,,,,,,,,,,,,,,,,,,,,,,,,,,,,,,
,,,,,WIN24_019,21,Female,2024-01-30_11h48.08.274,jersey_experiment_5,2023.2.2,Win32,84.74576271,,,,,,,,,,,,,,,,325.2326,326.5265,326.5265,327.5046,return,0.1649,,49.47916667,,,,,,FBP-OG-19.png,0.35,1.2,11,0.5,0,31,31,10,1,,,,,,,,,,,,,,,,,,,,,,,,,,,,,,,,,,,,,,,,
,,,,,WIN24_019,21,Female,2024-01-30_11h48.08.274,jersey_experiment_5,2023.2.2,Win32,84.74576271,,,,,,,,,,,,,,,,327.5048,329.3035,329.3035,330.1148,return,0.2247,,49.47916667,,,,,,FBP-RB-71.png,0.37,1.2,17,1,0,32,32,16,1,,,,,,,,,,,,,,,,,,,,,,,,,,,,,,,,,,,,,,,,
,,,,,WIN24_019,21,Female,2024-01-30_11h48.08.274,jersey_experiment_5,2023.2.2,Win32,84.74576271,,,,,,,,,,,,,,,,330.1149,331.4093,331.4094,332.2561,return,0.4157,,49.47916667,,,,,,FBP-OG-17.png,0.35,1.2,1,0.5,0,33,33,0,1,,,,,,,,,,,,,,,,,,,,,,,,,,,,,,,,,,,,,,,,
,,,,,WIN24_019,21,Female,2024-01-30_11h48.08.274,jersey_experiment_5,2023.2.2,Win32,84.74576271,,,,,,,,,,,,,,,,332.2563,334.0576,334.0576,336.1753,return,0.1767,,88.93229167,,,,,,FBP-RB-71.png,0.45,1.2,20,1,0,34,34,19,1,,,,,,,,,,,,,,,,,,,,,,,,,,,,,,,,,,,,,,,,
,,,,,WIN24_019,21,Female,2024-01-30_11h48.08.274,jersey_experiment_5,2023.2.2,Win32,84.74576271,,,,,,,,,,,,,,,,336.1755,337.4685,337.4685,338.3389,return,0.2139,,98.828125,,,,,,FBP-OG-19.png,0.45,1.2,15,0.5,0,35,35,14,1,,,,,,,,,,,,,,,,,,,,,,,,,,,,,,,,,,,,,,,,
,,,,,WIN24_019,21,Female,2024-01-30_11h48.08.274,jersey_experiment_5,2023.2.2,Win32,84.74576271,,,,,,,,,,,,,,,,338.3394,340.1391,340.1391,341.0697,return,0.1649,,99.73958333,,,,,,FBP-YG-19.png,0.43,1.2,44,1,0,36,36,43,1,,,,,,,,,,,,,,,,,,,,,,,,,,,,,,,,,,,,,,,,
,,,,,WIN24_019,21,Female,2024-01-30_11h48.08.274,jersey_experiment_5,2023.2.2,Win32,84.74576271,,,,,,,,,,,,,,,,341.0698,342.8683,342.8683,344.739,return,0.9192,,50.78125,,,,,,FBP-YG-17.png,0.37,1.2,32,1,0,37,37,31,1,,,,,,,,,,,,,,,,,,,,,,,,,,,,,,,,,,,,,,,,
,,,,,WIN24_019,21,Female,2024-01-30_11h48.08.274,jersey_experiment_5,2023.2.2,Win32,84.74576271,,,,,,,,,,,,,,,,344.7391,346.5404,346.5404,347.8819,return,0.1415,,62.109375,,,,,,FBP-RB-81.png,0.4,1.2,23,1,0,38,38,22,1,,,,,,,,,,,,,,,,,,,,,,,,,,,,,,,,,,,,,,,,
,,,,,WIN24_019,21,Female,2024-01-30_11h48.08.274,jersey_experiment_5,2023.2.2,Win32,84.74576271,,,,,,,,,,,,,,,,347.8821,349.1747,349.1748,350.3878,return,0.1532,,98.828125,,,,,,FBP-PT-81.png,0.43,1.2,54,0.5,0,39,39,53,1,,,,,,,,,,,,,,,,,,,,,,,,,,,,,,,,,,,,,,,,
,,,,,WIN24_019,21,Female,2024-01-30_11h48.08.274,jersey_experiment_5,2023.2.2,Win32,84.74576271,,,,,,,,,,,,,,,,350.3879,351.6804,351.6804,355.8702,return,3.4593,,71.09375,,,,,,FBP-OG-17.png,0.4,1.2,3,0.5,0,40,40,2,1,,,,,,,,,,,,,,,,,,,,,,,,,,,,,,,,,,,,,,,,
,,,,,WIN24_019,21,Female,2024-01-30_11h48.08.274,jersey_experiment_5,2023.2.2,Win32,84.74576271,,,,,,,,,,,,,,,,355.8704,357.164,357.164,358.2689,return,0.525,,65.625,,,,,,FBP-PT-71.png,0.4,1.2,48,0.5,0,41,41,47,1,,,,,,,,,,,,,,,,,,,,,,,,,,,,,,,,,,,,,,,,
,,,,,WIN24_019,21,Female,2024-01-30_11h48.08.274,jersey_experiment_5,2023.2.2,Win32,84.74576271,,,,,,,,,,,,,,,,358.2691,359.5632,359.5632,361.1984,return,0.6649,,97.65625,,,,,,FBP-OG-17.png,0.45,1.2,5,0.5,0,42,42,4,1,,,,,,,,,,,,,,,,,,,,,,,,,,,,,,,,,,,,,,,,
,,,,,WIN24_019,21,Female,2024-01-30_11h48.08.274,jersey_experiment_5,2023.2.2,Win32,84.74576271,,,,,,,,,,,,,,,,361.1988,362.9986,362.9986,363.7396,return,0.1142,,87.23958333,,,,,,FBP-RB-71.png,0.43,1.2,19,1,0,43,43,18,1,,,,,,,,,,,,,,,,,,,,,,,,,,,,,,,,,,,,,,,,
,,,,,WIN24_019,21,Female,2024-01-30_11h48.08.274,jersey_experiment_5,2023.2.2,Win32,84.74576271,,,,,,,,,,,,,,,,363.7396,365.0337,365.0337,366.5869,return,0.3391,,66.796875,,,,,,FBP-PT-91.png,0.4,1.2,58,0.5,0,44,44,57,1,,,,,,,,,,,,,,,,,,,,,,,,,,,,,,,,,,,,,,,,
,,,,,WIN24_019,21,Female,2024-01-30_11h48.08.274,jersey_experiment_5,2023.2.2,Win32,84.74576271,,,,,,,,,,,,,,,,366.5874,367.8812,367.8813,369.3638,return,0.1306,,84.63541667,,,,,,FBP-PT-91.png,0.43,1.2,59,0.5,0,45,45,58,1,,,,,,,,,,,,,,,,,,,,,,,,,,,,,,,,,,,,,,,,
,,,,,WIN24_019,21,Female,2024-01-30_11h48.08.274,jersey_experiment_5,2023.2.2,Win32,84.74576271,,,,,,,,,,,,,,,,369.3641,370.6587,370.6587,371.4224,return,0.1592,,83.85416667,,,,,,FBP-OG-19.png,0.43,1.2,14,0.5,0,46,46,13,1,,,,,,,,,,,,,,,,,,,,,,,,,,,,,,,,,,,,,,,,
,,,,,WIN24_019,21,Female,2024-01-30_11h48.08.274,jersey_experiment_5,2023.2.2,Win32,84.74576271,,,,,,,,,,,,,,,,371.4228,373.2237,373.2237,373.8105,return,0.1782,,91.92708333,,,,,,FBP-RB-91.png,0.45,1.2,30,1,0,47,47,29,1,,,,,,,,,,,,,,,,,,,,,,,,,,,,,,,,,,,,,,,,
,,,,,WIN24_019,21,Female,2024-01-30_11h48.08.274,jersey_experiment_5,2023.2.2,Win32,84.74576271,,,,,,,,,,,,,,,,373.8107,375.105,375.105,375.8943,return,0.1883,,91.015625,,,,,,FBP-OG-18.png,0.43,1.2,9,0.5,0,48,48,8,1,,,,,,,,,,,,,,,,,,,,,,,,,,,,,,,,,,,,,,,,
,,,,,WIN24_019,21,Female,2024-01-30_11h48.08.274,jersey_experiment_5,2023.2.2,Win32,84.74576271,,,,,,,,,,,,,,,,375.8944,377.6944,377.6945,378.9166,return,0.1181,,60.41666667,,,,,,FBP-RB-81.png,0.37,1.2,22,1,0,49,49,21,1,,,,,,,,,,,,,,,,,,,,,,,,,,,,,,,,,,,,,,,,
,,,,,WIN24_019,21,Female,2024-01-30_11h48.08.274,jersey_experiment_5,2023.2.2,Win32,84.74576271,,,,,,,,,,,,,,,,378.9168,380.2109,380.2109,380.8815,return,0.1678,,60.41666667,,,,,,FBP-OG-19.png,0.4,1.2,13,0.5,0,50,50,12,1,,,,,,,,,,,,,,,,,,,,,,,,,,,,,,,,,,,,,,,,
,,,,,WIN24_019,21,Female,2024-01-30_11h48.08.274,jersey_experiment_5,2023.2.2,Win32,84.74576271,,,,,,,,,,,,,,,,380.882,382.1759,382.1759,383.0932,return,0.1297,,36.71875,,,,,,FBP-PT-81.png,0.35,1.2,51,0.5,0,51,51,50,1,,,,,,,,,,,,,,,,,,,,,,,,,,,,,,,,,,,,,,,,
,,,,,WIN24_019,21,Female,2024-01-30_11h48.08.274,jersey_experiment_5,2023.2.2,Win32,84.74576271,,,,,,,,,,,,,,,,383.0933,384.8944,384.8944,385.8241,return,0.1649,,75.26041667,,,,,,FBP-YG-18.png,0.43,1.2,39,1,0,52,52,38,1,,,,,,,,,,,,,,,,,,,,,,,,,,,,,,,,,,,,,,,,
,,,,,WIN24_019,21,Female,2024-01-30_11h48.08.274,jersey_experiment_5,2023.2.2,Win32,84.74576271,,,,,,,,,,,,,,,,385.8243,387.1171,387.1172,387.6345,return,0.0956,,75.26041667,,,,,,FBP-PT-71.png,0.43,1.2,49,0.5,0,53,53,48,1,,,,,,,,,,,,,,,,,,,,,,,,,,,,,,,,,,,,,,,,
,,,,,WIN24_019,21,Female,2024-01-30_11h48.08.274,jersey_experiment_5,2023.2.2,Win32,84.74576271,,,,,,,,,,,,,,,,387.6347,388.9289,388.929,390.1068,return,0.6474,,81.51041667,,,,,,FBP-OG-17.png,0.43,1.2,4,0.5,0,54,54,3,1,,,,,,,,,,,,,,,,,,,,,,,,,,,,,,,,,,,,,,,,
,,,,,WIN24_019,21,Female,2024-01-30_11h48.08.274,jersey_experiment_5,2023.2.2,Win32,84.74576271,,,,,,,,,,,,,,,,390.1069,391.9055,391.9055,392.8124,return,0.1178,,68.75,,,,,,FBP-YG-18.png,0.4,1.2,38,1,0,55,55,37,1,,,,,,,,,,,,,,,,,,,,,,,,,,,,,,,,,,,,,,,,
,,,,,WIN24_019,21,Female,2024-01-30_11h48.08.274,jersey_experiment_5,2023.2.2,Win32,84.74576271,,,,,,,,,,,,,,,,392.8126,394.6126,394.6126,395.7539,return,0.2001,,28.125,,,,,,FBP-YG-19.png,0.35,1.2,41,1,0,56,56,40,1,,,,,,,,,,,,,,,,,,,,,,,,,,,,,,,,,,,,,,,,
,,,,,WIN24_019,21,Female,2024-01-30_11h48.08.274,jersey_experiment_5,2023.2.2,Win32,84.74576271,,,,,,,,,,,,,,,,395.7541,397.5538,397.5538,398.2365,return,0.1531,,92.578125,,,,,,FBP-YG-19.png,0.45,1.2,45,1,0,57,57,44,1,,,,,,,,,,,,,,,,,,,,,,,,,,,,,,,,,,,,,,,,
,,,,,WIN24_019,21,Female,2024-01-30_11h48.08.274,jersey_experiment_5,2023.2.2,Win32,84.74576271,,,,,,,,,,,,,,,,398.2366,399.5294,399.5294,400.6234,return,0.2055,,72.52604167,,,,,,FBP-OG-18.png,0.37,1.2,7,0.5,0,58,58,6,1,,,,,,,,,,,,,,,,,,,,,,,,,,,,,,,,,,,,,,,,
,,,,,WIN24_019,21,Female,2024-01-30_11h48.08.274,jersey_experiment_5,2023.2.2,Win32,84.74576271,,,,,,,,,,,,,,,,400.6238,401.9177,401.9177,403.3763,return,0.1322,,90.625,,,,,,FBP-PT-71.png,0.45,1.2,50,0.5,0,59,59,49,1,,,,,,,,,,,,,,,,,,,,,,,,,,,,,,,,,,,,,,,,
,,,,,WIN24_019,21,Female,2024-01-30_11h48.08.274,jersey_experiment_5,2023.2.2,Win32,84.74576271,,,,,,,,,,,,,,,,,,,,,,,,,,,,,,,,,,,,,,,403.3771,523.3818,,,,,,,,,,,,,,,,,,,,,,,,,,,,,,,,,,,,,,
,,,,,WIN24_019,21,Female,2024-01-30_11h48.08.274,jersey_experiment_5,2023.2.2,Win32,84.74576271,,,,,,,,,,,,,,,,,,,,,,,,,,,,,,,,,,,,,,,,,523.3822,525.2632,return,1.8658,,,,,,,,,,,,,,,,,,,,,,,,,,,,,,,,,,
,,,,,WIN24_019,21,Female,2024-01-30_11h48.08.274,jersey_experiment_5,2023.2.2,Win32,84.74576271,,,,,,,,,,,,,,,,525.2757,526.5691,526.5691,529.1337,return,1.2055,,75.26041667,,,,,,FBP-RB-18.png,0.43,1.2,24,0.5,,,,,,,,,,,,,0,0,0,23,1,,,,,,,,,,,,,,,,,,,,,,,,,,,,
,,,,,WIN24_019,21,Female,2024-01-30_11h48.08.274,jersey_experiment_5,2023.2.2,Win32,84.74576271,,,,,,,,,,,,,,,,529.1346,530.9339,530.934,532.5222,return,0.2914,,49.47916667,,,,,,FBP-PT-19.png,0.37,1.2,57,1,,,,,,,,,,,,,0,1,1,56,1,,,,,,,,,,,,,,,,,,,,,,,,,,,,
,,,,,WIN24_019,21,Female,2024-01-30_11h48.08.274,jersey_experiment_5,2023.2.2,Win32,84.74576271,,,,,,,,,,,,,,,,532.5225,534.323,534.3231,535.6516,return,0.5891,,25.78125,,,,,,FBP-OG-81.png,0.35,1.2,6,1,,,,,,,,,,,,,0,2,2,5,1,,,,,,,,,,,,,,,,,,,,,,,,,,,,
,,,,,WIN24_019,21,Female,2024-01-30_11h48.08.274,jersey_experiment_5,2023.2.2,Win32,84.74576271,,,,,,,,,,,,,,,,535.652,537.4523,537.4524,538.8282,return,0.2187,,80.98958333,,,,,,FBP-OG-81.png,0.43,1.2,9,1,,,,,,,,,,,,,0,3,3,8,1,,,,,,,,,,,,,,,,,,,,,,,,,,,,
,,,,,WIN24_019,21,Female,2024-01-30_11h48.08.274,jersey_experiment_5,2023.2.2,Win32,84.74576271,,,,,,,,,,,,,,,,538.8286,540.6286,540.6287,541.4753,return,0.3426,,68.61979167,,,,,,FBP-OG-81.png,0.4,1.2,8,1,,,,,,,,,,,,,0,4,4,7,1,,,,,,,,,,,,,,,,,,,,,,,,,,,,
,,,,,WIN24_019,21,Female,2024-01-30_11h48.08.274,jersey_experiment_5,2023.2.2,Win32,84.74576271,,,,,,,,,,,,,,,,541.4757,543.2755,543.2757,543.7581,return,0.0759,,68.88020833,,,,,,FBP-OG-91.png,0.4,1.2,13,1,,,,,,,,,,,,,0,5,5,12,1,,,,,,,,,,,,,,,,,,,,,,,,,,,,
,,,,,WIN24_019,21,Female,2024-01-30_11h48.08.274,jersey_experiment_5,2023.2.2,Win32,84.74576271,,,,,,,,,,,,,,,,543.7586,545.5587,545.5587,546.0519,return,0.1186,,91.92708333,,,,,,FBP-PT-17.png,0.45,1.2,50,1,,,,,,,,,,,,,0,6,6,49,1,,,,,,,,,,,,,,,,,,,,,,,,,,,,
,,,,,WIN24_019,21,Female,2024-01-30_11h48.08.274,jersey_experiment_5,2023.2.2,Win32,84.74576271,,,,,,,,,,,,,,,,546.0523,547.347,547.347,548.3226,return,0.1303,,36.71875,,,,,,FBP-RB-19.png,0.35,1.2,26,0.5,,,,,,,,,,,,,0,7,7,25,1,,,,,,,,,,,,,,,,,,,,,,,,,,,,
,,,,,WIN24_019,21,Female,2024-01-30_11h48.08.274,jersey_experiment_5,2023.2.2,Win32,84.74576271,,,,,,,,,,,,,,,,548.323,550.1228,550.1229,550.6989,return,0.2195,,36.71875,,,,,,FBP-PT-17.png,0.37,1.2,47,1,,,,,,,,,,,,,0,8,8,46,1,,,,,,,,,,,,,,,,,,,,,,,,,,,,
,,,,,WIN24_019,21,Female,2024-01-30_11h48.08.274,jersey_experiment_5,2023.2.2,Win32,84.74576271,,,,,,,,,,,,,,,,550.6991,551.9935,551.9935,553.4523,return,0.1838,,65.234375,,,,,,FBP-YG-91.png,0.4,1.2,43,0.5,,,,,,,,,,,,,0,9,9,42,1,,,,,,,,,,,,,,,,,,,,,,,,,,,,
,,,,,WIN24_019,21,Female,2024-01-30_11h48.08.274,jersey_experiment_5,2023.2.2,Win32,84.74576271,,,,,,,,,,,,,,,,553.4527,555.2529,555.253,556.0169,return,0.179,,68.61979167,,,,,,FBP-PT-18.png,0.4,1.2,53,1,,,,,,,,,,,,,0,10,10,52,1,,,,,,,,,,,,,,,,,,,,,,,,,,,,
,,,,,WIN24_019,21,Female,2024-01-30_11h48.08.274,jersey_experiment_5,2023.2.2,Win32,84.74576271,,,,,,,,,,,,,,,,556.0174,557.8169,557.817,558.6774,return,0.1766,,51.04166667,,,,,,FBP-OG-81.png,0.37,1.2,7,1,,,,,,,,,,,,,0,11,11,6,1,,,,,,,,,,,,,,,,,,,,,,,,,,,,
,,,,,WIN24_019,21,Female,2024-01-30_11h48.08.274,jersey_experiment_5,2023.2.2,Win32,84.74576271,,,,,,,,,,,,,,,,558.6776,559.9703,559.9704,561.2172,return,0.3442,,24.21875,,,,,,FBP-RB-18.png,0.35,1.2,21,0.5,,,,,,,,,,,,,0,12,12,20,1,,,,,,,,,,,,,,,,,,,,,,,,,,,,
,,,,,WIN24_019,21,Female,2024-01-30_11h48.08.274,jersey_experiment_5,2023.2.2,Win32,84.74576271,,,,,,,,,,,,,,,,561.2174,562.5115,562.5116,563.8765,return,0.0957,,64.71354167,,,,,,FBP-YG-71.png,0.4,1.2,33,0.5,,,,,,,,,,,,,0,13,13,32,1,,,,,,,,,,,,,,,,,,,,,,,,,,,,
,,,,,WIN24_019,21,Female,2024-01-30_11h48.08.274,jersey_experiment_5,2023.2.2,Win32,84.74576271,,,,,,,,,,,,,,,,563.8769,565.1706,565.1707,566.8643,return,0.1093,,64.453125,,,,,,FBP-RB-19.png,0.37,1.2,27,0.5,,,,,,,,,,,,,0,14,14,26,1,,,,,,,,,,,,,,,,,,,,,,,,,,,,
,,,,,WIN24_019,21,Female,2024-01-30_11h48.08.274,jersey_experiment_5,2023.2.2,Win32,84.74576271,,,,,,,,,,,,,,,,566.8644,568.1588,568.1588,568.6999,return,0.1608,,64.0625,,,,,,FBP-RB-18.png,0.37,1.2,22,0.5,,,,,,,,,,,,,0,15,15,21,1,,,,,,,,,,,,,,,,,,,,,,,,,,,,
,,,,,WIN24_019,21,Female,2024-01-30_11h48.08.274,jersey_experiment_5,2023.2.2,Win32,84.74576271,,,,,,,,,,,,,,,,568.7003,570.501,570.5011,571.1821,return,0.1122,,64.453125,,,,,,FBP-OG-71.png,0.37,1.2,2,1,,,,,,,,,,,,,0,16,16,1,1,,,,,,,,,,,,,,,,,,,,,,,,,,,,
,,,,,WIN24_019,21,Female,2024-01-30_11h48.08.274,jersey_experiment_5,2023.2.2,Win32,84.74576271,,,,,,,,,,,,,,,,571.1826,572.9823,572.9823,573.6542,return,0.1062,,75.13020833,,,,,,FBP-OG-71.png,0.4,1.2,3,1,,,,,,,,,,,,,0,17,17,2,1,,,,,,,,,,,,,,,,,,,,,,,,,,,,
,,,,,WIN24_019,21,Female,2024-01-30_11h48.08.274,jersey_experiment_5,2023.2.2,Win32,84.74576271,,,,,,,,,,,,,,,,573.6543,574.9474,574.9474,576.194,return,0.1892,,99.34895833,,,,,,FBP-YG-91.png,0.45,1.2,45,0.5,,,,,,,,,,,,,0,18,18,44,1,,,,,,,,,,,,,,,,,,,,,,,,,,,,
,,,,,WIN24_019,21,Female,2024-01-30_11h48.08.274,jersey_experiment_5,2023.2.2,Win32,84.74576271,,,,,,,,,,,,,,,,576.1942,577.4889,577.4889,579.4061,return,0.2527,,49.73958333,,,,,,FBP-RB-17.png,0.37,1.2,17,0.5,,,,,,,,,,,,,0,19,19,16,1,,,,,,,,,,,,,,,,,,,,,,,,,,,,
,,,,,WIN24_019,21,Female,2024-01-30_11h48.08.274,jersey_experiment_5,2023.2.2,Win32,84.74576271,,,,,,,,,,,,,,,,579.4064,580.7003,580.7003,581.7591,return,0.1699,,26.30208333,,,,,,FBP-YG-91.png,0.35,1.2,41,0.5,,,,,,,,,,,,,0,20,20,40,1,,,,,,,,,,,,,,,,,,,,,,,,,,,,
,,,,,WIN24_019,21,Female,2024-01-30_11h48.08.274,jersey_experiment_5,2023.2.2,Win32,84.74576271,,,,,,,,,,,,,,,,581.7594,583.5592,583.5592,584.6533,return,0.1132,,89.453125,,,,,,FBP-OG-71.png,0.45,1.2,5,1,,,,,,,,,,,,,0,21,21,4,1,,,,,,,,,,,,,,,,,,,,,,,,,,,,
,,,,,WIN24_019,21,Female,2024-01-30_11h48.08.274,jersey_experiment_5,2023.2.2,Win32,84.74576271,,,,,,,,,,,,,,,,584.6538,586.4534,586.4534,587.7957,return,0.4118,,51.82291667,,,,,,FBP-OG-71.png,0.35,1.2,1,1,,,,,,,,,,,,,0,22,22,0,1,,,,,,,,,,,,,,,,,,,,,,,,,,,,
,,,,,WIN24_019,21,Female,2024-01-30_11h48.08.274,jersey_experiment_5,2023.2.2,Win32,84.74576271,,,,,,,,,,,,,,,,587.7959,589.0889,589.089,590.5725,return,0.3769,,75.390625,,,,,,FBP-YG-81.png,0.43,1.2,39,0.5,,,,,,,,,,,,,0,23,23,38,1,,,,,,,,,,,,,,,,,,,,,,,,,,,,
,,,,,WIN24_019,21,Female,2024-01-30_11h48.08.274,jersey_experiment_5,2023.2.2,Win32,84.74576271,,,,,,,,,,,,,,,,590.5726,591.8655,591.8656,593.0065,return,0.1117,,50.13020833,,,,,,FBP-YG-71.png,0.35,1.2,31,0.5,,,,,,,,,,,,,0,24,24,30,1,,,,,,,,,,,,,,,,,,,,,,,,,,,,
,,,,,WIN24_019,21,Female,2024-01-30_11h48.08.274,jersey_experiment_5,2023.2.2,Win32,84.74576271,,,,,,,,,,,,,,,,593.0068,594.8078,594.8079,595.4889,return,0.1208,,99.08854167,,,,,,FBP-PT-18.png,0.45,1.2,55,1,,,,,,,,,,,,,0,25,25,54,1,,,,,,,,,,,,,,,,,,,,,,,,,,,,
,,,,,WIN24_019,21,Female,2024-01-30_11h48.08.274,jersey_experiment_5,2023.2.2,Win32,84.74576271,,,,,,,,,,,,,,,,595.4891,597.289,597.289,598.4774,return,0.2532,,76.171875,,,,,,FBP-PT-17.png,0.4,1.2,48,1,,,,,,,,,,,,,0,26,26,47,1,,,,,,,,,,,,,,,,,,,,,,,,,,,,
,,,,,WIN24_019,21,Female,2024-01-30_11h48.08.274,jersey_experiment_5,2023.2.2,Win32,84.74576271,,,,,,,,,,,,,,,,598.4777,600.2776,600.2776,600.8303,return,0.1585,,76.171875,,,,,,FBP-PT-19.png,0.45,1.2,60,1,,,,,,,,,,,,,0,27,27,59,1,,,,,,,,,,,,,,,,,,,,,,,,,,,,
,,,,,WIN24_019,21,Female,2024-01-30_11h48.08.274,jersey_experiment_5,2023.2.2,Win32,84.74576271,,,,,,,,,,,,,,,,600.8305,602.1247,602.1247,603.1717,return,0.0947,,50.26041667,,,,,,FBP-YG-81.png,0.35,1.2,36,0.5,,,,,,,,,,,,,0,28,28,35,1,,,,,,,,,,,,,,,,,,,,,,,,,,,,
,,,,,WIN24_019,21,Female,2024-01-30_11h48.08.274,jersey_experiment_5,2023.2.2,Win32,84.74576271,,,,,,,,,,,,,,,,603.1721,604.4659,604.466,605.4539,return,0.0885,,74.21875,,,,,,FBP-RB-19.png,0.43,1.2,29,0.5,,,,,,,,,,,,,0,29,29,28,1,,,,,,,,,,,,,,,,,,,,,,,,,,,,
,,,,,WIN24_019,21,Female,2024-01-30_11h48.08.274,jersey_experiment_5,2023.2.2,Win32,84.74576271,,,,,,,,,,,,,,,,605.454,606.7484,606.7484,608.5377,return,0.1177,,63.02083333,,,,,,FBP-YG-81.png,0.37,1.2,37,0.5,,,,,,,,,,,,,0,30,30,36,1,,,,,,,,,,,,,,,,,,,,,,,,,,,,
,,,,,WIN24_019,21,Female,2024-01-30_11h48.08.274,jersey_experiment_5,2023.2.2,Win32,84.74576271,,,,,,,,,,,,,,,,608.5379,610.3377,610.3378,611.5014,return,0.0766,,35.15625,,,,,,FBP-PT-18.png,0.35,1.2,51,1,,,,,,,,,,,,,0,31,31,50,1,,,,,,,,,,,,,,,,,,,,,,,,,,,,
,,,,,WIN24_019,21,Female,2024-01-30_11h48.08.274,jersey_experiment_5,2023.2.2,Win32,84.74576271,,,,,,,,,,,,,,,,611.5018,612.7955,612.7955,614.0308,return,0.1468,,94.140625,,,,,,FBP-RB-17.png,0.45,1.2,20,0.5,,,,,,,,,,,,,0,32,32,19,1,,,,,,,,,,,,,,,,,,,,,,,,,,,,
,,,,,WIN24_019,21,Female,2024-01-30_11h48.08.274,jersey_experiment_5,2023.2.2,Win32,84.74576271,,,,,,,,,,,,,,,,614.0311,615.8311,615.8312,616.4427,return,0.2101,,94.140625,,,,,,FBP-PT-19.png,0.43,1.2,59,1,,,,,,,,,,,,,0,33,33,58,1,,,,,,,,,,,,,,,,,,,,,,,,,,,,
,,,,,WIN24_019,21,Female,2024-01-30_11h48.08.274,jersey_experiment_5,2023.2.2,Win32,84.74576271,,,,,,,,,,,,,,,,616.443,618.2426,618.2426,619.6662,return,0.1432,,74.73958333,,,,,,FBP-PT-19.png,0.4,1.2,58,1,,,,,,,,,,,,,0,34,34,57,1,,,,,,,,,,,,,,,,,,,,,,,,,,,,
,,,,,WIN24_019,21,Female,2024-01-30_11h48.08.274,jersey_experiment_5,2023.2.2,Win32,84.74576271,,,,,,,,,,,,,,,,619.6666,620.9607,620.9607,621.6193,return,0.1427,,74.609375,,,,,,FBP-RB-18.png,0.4,1.2,23,0.5,,,,,,,,,,,,,0,35,35,22,1,,,,,,,,,,,,,,,,,,,,,,,,,,,,
,,,,,WIN24_019,21,Female,2024-01-30_11h48.08.274,jersey_experiment_5,2023.2.2,Win32,84.74576271,,,,,,,,,,,,,,,,621.6198,623.4206,623.4206,624.2665,return,0.1041,,49.86979167,,,,,,FBP-OG-91.png,0.35,1.2,11,1,,,,,,,,,,,,,0,36,36,10,1,,,,,,,,,,,,,,,,,,,,,,,,,,,,
,,,,,WIN24_019,21,Female,2024-01-30_11h48.08.274,jersey_experiment_5,2023.2.2,Win32,84.74576271,,,,,,,,,,,,,,,,624.2668,626.0665,626.0665,627.2326,return,0.2823,,74.73958333,,,,,,FBP-PT-18.png,0.43,1.2,54,1,,,,,,,,,,,,,0,37,37,53,1,,,,,,,,,,,,,,,,,,,,,,,,,,,,
,,,,,WIN24_019,21,Female,2024-01-30_11h48.08.274,jersey_experiment_5,2023.2.2,Win32,84.74576271,,,,,,,,,,,,,,,,627.2329,629.0314,629.0316,629.6446,return,0.1411,,74.73958333,,,,,,FBP-OG-91.png,0.43,1.2,14,1,,,,,,,,,,,,,0,38,38,13,1,,,,,,,,,,,,,,,,,,,,,,,,,,,,
,,,,,WIN24_019,21,Female,2024-01-30_11h48.08.274,jersey_experiment_5,2023.2.2,Win32,84.74576271,,,,,,,,,,,,,,,,629.6447,631.4435,631.4435,632.5975,return,0.1412,,62.5,,,,,,FBP-OG-91.png,0.37,1.2,12,1,,,,,,,,,,,,,0,39,39,11,1,,,,,,,,,,,,,,,,,,,,,,,,,,,,
,,,,,WIN24_019,21,Female,2024-01-30_11h48.08.274,jersey_experiment_5,2023.2.2,Win32,84.74576271,,,,,,,,,,,,,,,,632.5976,634.3969,634.3969,635.4683,return,0.1535,,50.26041667,,,,,,FBP-PT-18.png,0.37,1.2,52,1,,,,,,,,,,,,,0,40,40,51,1,,,,,,,,,,,,,,,,,,,,,,,,,,,,
,,,,,WIN24_019,21,Female,2024-01-30_11h48.08.274,jersey_experiment_5,2023.2.2,Win32,84.74576271,,,,,,,,,,,,,,,,635.4684,636.7608,636.7608,638.1609,return,0.1793,,74.47916667,,,,,,FBP-RB-19.png,0.4,1.2,28,0.5,,,,,,,,,,,,,0,41,41,27,1,,,,,,,,,,,,,,,,,,,,,,,,,,,,
,,,,,WIN24_019,21,Female,2024-01-30_11h48.08.274,jersey_experiment_5,2023.2.2,Win32,84.74576271,,,,,,,,,,,,,,,,638.1611,639.9623,639.9623,641.1022,return,0.1116,,99.73958333,,,,,,FBP-OG-81.png,0.45,1.2,10,1,,,,,,,,,,,,,0,42,42,9,1,,,,,,,,,,,,,,,,,,,,,,,,,,,,
,,,,,WIN24_019,21,Female,2024-01-30_11h48.08.274,jersey_experiment_5,2023.2.2,Win32,84.74576271,,,,,,,,,,,,,,,,641.1024,642.3967,642.3968,643.0213,return,0.1648,,99.73958333,,,,,,FBP-YG-71.png,0.43,1.2,34,0.5,,,,,,,,,,,,,0,43,43,33,1,,,,,,,,,,,,,,,,,,,,,,,,,,,,
,,,,,WIN24_019,21,Female,2024-01-30_11h48.08.274,jersey_experiment_5,2023.2.2,Win32,84.74576271,,,,,,,,,,,,,,,,643.0216,644.3145,644.3146,644.9141,return,0.1311,,99.73958333,,,,,,FBP-YG-71.png,0.45,1.2,35,0.5,,,,,,,,,,,,,0,44,44,34,1,,,,,,,,,,,,,,,,,,,,,,,,,,,,
,,,,,WIN24_019,21,Female,2024-01-30_11h48.08.274,jersey_experiment_5,2023.2.2,Win32,84.74576271,,,,,,,,,,,,,,,,644.9143,646.7145,646.7145,649.1378,return,0.1902,,84.11458333,,,,,,FBP-PT-17.png,0.43,1.2,49,1,,,,,,,,,,,,,0,45,45,48,1,,,,,,,,,,,,,,,,,,,,,,,,,,,,
,,,,,WIN24_019,21,Female,2024-01-30_11h48.08.274,jersey_experiment_5,2023.2.2,Win32,84.74576271,,,,,,,,,,,,,,,,649.138,650.938,650.9381,653.0674,return,1.2556,,90.49479167,,,,,,FBP-OG-71.png,0.43,1.2,4,1,,,,,,,,,,,,,0,46,46,3,1,,,,,,,,,,,,,,,,,,,,,,,,,,,,
,,,,,WIN24_019,21,Female,2024-01-30_11h48.08.274,jersey_experiment_5,2023.2.2,Win32,84.74576271,,,,,,,,,,,,,,,,653.0676,654.3617,654.3618,655.4099,return,0.1766,,75,,,,,,FBP-RB-17.png,0.4,1.2,18,0.5,,,,,,,,,,,,,0,47,47,17,1,,,,,,,,,,,,,,,,,,,,,,,,,,,,
,,,,,WIN24_019,21,Female,2024-01-30_11h48.08.274,jersey_experiment_5,2023.2.2,Win32,84.74576271,,,,,,,,,,,,,,,,655.4101,656.7031,656.7031,657.3616,return,0.2012,,75,,,,,,FBP-YG-81.png,0.4,1.2,38,0.5,,,,,,,,,,,,,0,48,48,37,1,,,,,,,,,,,,,,,,,,,,,,,,,,,,
,,,,,WIN24_019,21,Female,2024-01-30_11h48.08.274,jersey_experiment_5,2023.2.2,Win32,84.74576271,,,,,,,,,,,,,,,,657.3618,659.1616,659.1616,659.9499,return,0.0882,,50,,,,,,FBP-PT-19.png,0.35,1.2,56,1,,,,,,,,,,,,,0,49,49,55,1,,,,,,,,,,,,,,,,,,,,,,,,,,,,
,,,,,WIN24_019,21,Female,2024-01-30_11h48.08.274,jersey_experiment_5,2023.2.2,Win32,84.74576271,,,,,,,,,,,,,,,,659.9503,661.7513,661.7513,663.3971,return,0.753,,98.828125,,,,,,FBP-OG-91.png,0.45,1.2,15,1,,,,,,,,,,,,,0,50,50,14,1,,,,,,,,,,,,,,,,,,,,,,,,,,,,
,,,,,WIN24_019,21,Female,2024-01-30_11h48.08.274,jersey_experiment_5,2023.2.2,Win32,84.74576271,,,,,,,,,,,,,,,,663.3974,664.6912,664.6913,666.2224,return,0.4003,,51.04166667,,,,,,FBP-RB-17.png,0.35,1.2,16,0.5,,,,,,,,,,,,,0,51,51,15,1,,,,,,,,,,,,,,,,,,,,,,,,,,,,
,,,,,WIN24_019,21,Female,2024-01-30_11h48.08.274,jersey_experiment_5,2023.2.2,Win32,84.74576271,,,,,,,,,,,,,,,,666.2225,667.515,667.515,669.3388,return,0.1176,,87.23958333,,,,,,FBP-YG-91.png,0.43,1.2,44,0.5,,,,,,,,,,,,,0,52,52,43,1,,,,,,,,,,,,,,,,,,,,,,,,,,,,
,,,,,WIN24_019,21,Female,2024-01-30_11h48.08.274,jersey_experiment_5,2023.2.2,Win32,84.74576271,,,,,,,,,,,,,,,,669.339,671.1386,671.1387,672.0459,return,0.1885,,50.52083333,,,,,,FBP-PT-17.png,0.35,1.2,46,1,,,,,,,,,,,,,0,53,53,45,1,,,,,,,,,,,,,,,,,,,,,,,,,,,,
,,,,,WIN24_019,21,Female,2024-01-30_11h48.08.274,jersey_experiment_5,2023.2.2,Win32,84.74576271,,,,,,,,,,,,,,,,672.0461,673.3389,673.339,675.1636,return,0.412,,97.52604167,,,,,,FBP-RB-19.png,0.45,1.2,30,0.5,,,,,,,,,,,,,0,54,54,29,1,,,,,,,,,,,,,,,,,,,,,,,,,,,,
,,,,,WIN24_019,21,Female,2024-01-30_11h48.08.274,jersey_experiment_5,2023.2.2,Win32,84.74576271,,,,,,,,,,,,,,,,675.1638,676.4568,676.4568,677.8462,return,0.2238,,49.08854167,,,,,,FBP-YG-71.png,0.37,1.2,32,0.5,,,,,,,,,,,,,0,55,55,31,1,,,,,,,,,,,,,,,,,,,,,,,,,,,,
,,,,,WIN24_019,21,Female,2024-01-30_11h48.08.274,jersey_experiment_5,2023.2.2,Win32,84.74576271,,,,,,,,,,,,,,,,677.8463,679.1398,679.1399,680.7993,return,0.1297,,99.47916667,,,,,,FBP-YG-81.png,0.45,1.2,40,0.5,,,,,,,,,,,,,0,56,56,39,1,,,,,,,,,,,,,,,,,,,,,,,,,,,,
,,,,,WIN24_019,21,Female,2024-01-30_11h48.08.274,jersey_experiment_5,2023.2.2,Win32,84.74576271,,,,,,,,,,,,,,,,680.7995,682.0922,682.0924,684.2686,return,0.1722,,86.97916667,,,,,,FBP-RB-17.png,0.43,1.2,19,0.5,,,,,,,,,,,,,0,57,57,18,1,,,,,,,,,,,,,,,,,,,,,,,,,,,,
,,,,,WIN24_019,21,Female,2024-01-30_11h48.08.274,jersey_experiment_5,2023.2.2,Win32,84.74576271,,,,,,,,,,,,,,,,684.269,685.5629,685.563,687.9395,return,0.1299,,50,,,,,,FBP-YG-91.png,0.37,1.2,42,0.5,,,,,,,,,,,,,0,58,58,41,1,,,,,,,,,,,,,,,,,,,,,,,,,,,,
,,,,,WIN24_019,21,Female,2024-01-30_11h48.08.274,jersey_experiment_5,2023.2.2,Win32,84.74576271,,,,,,,,,,,,,,,,687.9399,689.2337,689.2337,690.5642,return,0.1884,,96.484375,,,,,,FBP-RB-18.png,0.45,1.2,25,0.5,,,,,,,,,,,,,0,59,59,24,1,,,,,,,,,,,,,,,,,,,,,,,,,,,,
,,,,,WIN24_019,21,Female,2024-01-30_11h48.08.274,jersey_experiment_5,2023.2.2,Win32,84.74576271,,,,,,,,,,,,,,,,690.566,691.8582,691.8583,692.5761,return,0.1295,,96.61458333,,,,,,FBP-RB-91.png,0.45,1.2,30,0.5,,,,,,,,,,,,,,,,,,0,0,0,29,1,,,,,,,,,,,,,,,,,,,,,,,
,,,,,WIN24_019,21,Female,2024-01-30_11h48.08.274,jersey_experiment_5,2023.2.2,Win32,84.74576271,,,,,,,,,,,,,,,,692.5763,694.3762,694.3763,695.8688,return,0.4422,,49.86979167,,,,,,FBP-OG-18.png,0.37,1.2,7,1,,,,,,,,,,,,,,,,,,0,1,1,6,1,,,,,,,,,,,,,,,,,,,,,,,
,,,,,WIN24_019,21,Female,2024-01-30_11h48.08.274,jersey_experiment_5,2023.2.2,Win32,84.74576271,,,,,,,,,,,,,,,,695.8689,697.163,697.163,698.1277,return,0.1333,,49.609375,,,,,,FBP-RB-91.png,0.37,1.2,27,0.5,,,,,,,,,,,,,,,,,,0,2,2,26,1,,,,,,,,,,,,,,,,,,,,,,,
,,,,,WIN24_019,21,Female,2024-01-30_11h48.08.274,jersey_experiment_5,2023.2.2,Win32,84.74576271,,,,,,,,,,,,,,,,698.128,699.422,699.4221,701.0103,return,0.1191,,36.328125,,,,,,FBP-YG-19.png,0.35,1.2,41,0.5,,,,,,,,,,,,,,,,,,0,3,3,40,1,,,,,,,,,,,,,,,,,,,,,,,
,,,,,WIN24_019,21,Female,2024-01-30_11h48.08.274,jersey_experiment_5,2023.2.2,Win32,84.74576271,,,,,,,,,,,,,,,,701.0104,702.3047,702.3047,703.1043,return,0.203,,36.328125,,,,,,FBP-RB-81.png,0.37,1.2,22,0.5,,,,,,,,,,,,,,,,,,0,4,4,21,1,,,,,,,,,,,,,,,,,,,,,,,
,,,,,WIN24_019,21,Female,2024-01-30_11h48.08.274,jersey_experiment_5,2023.2.2,Win32,84.74576271,,,,,,,,,,,,,,,,703.1045,704.399,704.399,705.1059,return,0.2002,,36.328125,,,,,,FBP-RB-71.png,0.37,1.2,17,0.5,,,,,,,,,,,,,,,,,,0,5,5,16,1,,,,,,,,,,,,,,,,,,,,,,,
,,,,,WIN24_019,21,Female,2024-01-30_11h48.08.274,jersey_experiment_5,2023.2.2,Win32,84.74576271,,,,,,,,,,,,,,,,705.1061,706.3987,706.3987,707.9061,return,0.1297,,93.22916667,,,,,,FBP-YG-18.png,0.45,1.2,40,0.5,,,,,,,,,,,,,,,,,,0,6,6,39,1,,,,,,,,,,,,,,,,,,,,,,,
,,,,,WIN24_019,21,Female,2024-01-30_11h48.08.274,jersey_experiment_5,2023.2.2,Win32,84.74576271,,,,,,,,,,,,,,,,707.9063,709.7048,709.7048,711.0357,return,0.0591,,75.26041667,,,,,,FBP-PT-81.png,0.43,1.2,54,1,,,,,,,,,,,,,,,,,,0,7,7,53,1,,,,,,,,,,,,,,,,,,,,,,,
,,,,,WIN24_019,21,Female,2024-01-30_11h48.08.274,jersey_experiment_5,2023.2.2,Win32,84.74576271,,,,,,,,,,,,,,,,711.0358,712.8355,712.8355,714.7298,return,0.0942,,50.26041667,,,,,,FBP-OG-18.png,0.35,1.2,6,1,,,,,,,,,,,,,,,,,,0,8,8,5,1,,,,,,,,,,,,,,,,,,,,,,,
,,,,,WIN24_019,21,Female,2024-01-30_11h48.08.274,jersey_experiment_5,2023.2.2,Win32,84.74576271,,,,,,,,,,,,,,,,714.73,716.0237,716.0237,718.5065,return,1.5416,,85.02604167,,,,,,FBP-YG-19.png,0.43,1.2,44,0.5,,,,,,,,,,,,,,,,,,0,9,9,43,1,,,,,,,,,,,,,,,,,,,,,,,
,,,,,WIN24_019,21,Female,2024-01-30_11h48.08.274,jersey_experiment_5,2023.2.2,Win32,84.74576271,,,,,,,,,,,,,,,,718.5067,720.305,720.305,721.73,return,0.2112,,41.66666667,,,,,,FBP-PT-81.png,0.35,1.2,51,1,,,,,,,,,,,,,,,,,,0,10,10,50,1,,,,,,,,,,,,,,,,,,,,,,,
,,,,,WIN24_019,21,Female,2024-01-30_11h48.08.274,jersey_experiment_5,2023.2.2,Win32,84.74576271,,,,,,,,,,,,,,,,721.7301,723.53,723.53,724.3536,return,0.1757,,74.08854167,,,,,,FBP-PT-91.png,0.45,1.2,60,1,,,,,,,,,,,,,,,,,,0,11,11,59,1,,,,,,,,,,,,,,,,,,,,,,,
,,,,,WIN24_019,21,Female,2024-01-30_11h48.08.274,jersey_experiment_5,2023.2.2,Win32,84.74576271,,,,,,,,,,,,,,,,724.3537,725.6466,725.6467,726.2243,return,0.1766,,73.95833333,,,,,,FBP-RB-91.png,0.43,1.2,29,0.5,,,,,,,,,,,,,,,,,,0,12,12,28,1,,,,,,,,,,,,,,,,,,,,,,,
,,,,,WIN24_019,21,Female,2024-01-30_11h48.08.274,jersey_experiment_5,2023.2.2,Win32,84.74576271,,,,,,,,,,,,,,,,726.2245,727.5174,727.5174,728.27,return,0.1234,,85.546875,,,,,,FBP-RB-71.png,0.45,1.2,20,0.5,,,,,,,,,,,,,,,,,,0,13,13,19,1,,,,,,,,,,,,,,,,,,,,,,,
,,,,,WIN24_019,21,Female,2024-01-30_11h48.08.274,jersey_experiment_5,2023.2.2,Win32,84.74576271,,,,,,,,,,,,,,,,728.2702,729.5646,729.5646,730.5656,return,0.1062,,74.609375,,,,,,FBP-RB-81.png,0.4,1.2,23,0.5,,,,,,,,,,,,,,,,,,0,14,14,22,1,,,,,,,,,,,,,,,,,,,,,,,
,,,,,WIN24_019,21,Female,2024-01-30_11h48.08.274,jersey_experiment_5,2023.2.2,Win32,84.74576271,,,,,,,,,,,,,,,,730.5658,731.8594,731.8594,734.0821,return,0.2252,,51.30208333,,,,,,FBP-YG-19.png,0.37,1.2,42,0.5,,,,,,,,,,,,,,,,,,0,15,15,41,1,,,,,,,,,,,,,,,,,,,,,,,
,,,,,WIN24_019,21,Female,2024-01-30_11h48.08.274,jersey_experiment_5,2023.2.2,Win32,84.74576271,,,,,,,,,,,,,,,,734.0823,735.8824,735.8824,736.9762,return,0.3329,,49.08854167,,,,,,FBP-OG-19.png,0.37,1.2,12,1,,,,,,,,,,,,,,,,,,0,16,16,11,1,,,,,,,,,,,,,,,,,,,,,,,
,,,,,WIN24_019,21,Female,2024-01-30_11h48.08.274,jersey_experiment_5,2023.2.2,Win32,84.74576271,,,,,,,,,,,,,,,,736.9765,738.7764,738.7764,739.8837,return,0.1179,,24.73958333,,,,,,FBP-PT-91.png,0.35,1.2,56,1,,,,,,,,,,,,,,,,,,0,17,17,55,1,,,,,,,,,,,,,,,,,,,,,,,
,,,,,WIN24_019,21,Female,2024-01-30_11h48.08.274,jersey_experiment_5,2023.2.2,Win32,84.74576271,,,,,,,,,,,,,,,,739.8839,741.6835,741.6835,743.1999,return,0.2036,,37.23958333,,,,,,FBP-PT-71.png,0.4,1.2,48,1,,,,,,,,,,,,,,,,,,0,18,18,47,1,,,,,,,,,,,,,,,,,,,,,,,
,,,,,WIN24_019,21,Female,2024-01-30_11h48.08.274,jersey_experiment_5,2023.2.2,Win32,84.74576271,,,,,,,,,,,,,,,,743.2002,745.0001,745.0001,745.8353,return,0.1025,,49.609375,,,,,,FBP-OG-17.png,0.4,1.2,3,1,,,,,,,,,,,,,,,,,,0,19,19,2,1,,,,,,,,,,,,,,,,,,,,,,,
,,,,,WIN24_019,21,Female,2024-01-30_11h48.08.274,jersey_experiment_5,2023.2.2,Win32,84.74576271,,,,,,,,,,,,,,,,745.8355,747.6358,747.6359,749.5307,return,0.7175,,64.32291667,,,,,,FBP-OG-17.png,0.43,1.2,4,1,,,,,,,,,,,,,,,,,,0,20,20,3,1,,,,,,,,,,,,,,,,,,,,,,,
,,,,,WIN24_019,21,Female,2024-01-30_11h48.08.274,jersey_experiment_5,2023.2.2,Win32,84.74576271,,,,,,,,,,,,,,,,749.5309,750.8241,750.8242,751.6943,return,0.1112,,50.13020833,,,,,,FBP-YG-18.png,0.37,1.2,37,0.5,,,,,,,,,,,,,,,,,,0,21,21,36,1,,,,,,,,,,,,,,,,,,,,,,,
,,,,,WIN24_019,21,Female,2024-01-30_11h48.08.274,jersey_experiment_5,2023.2.2,Win32,84.74576271,,,,,,,,,,,,,,,,751.6945,752.9884,752.9884,753.484,return,0.1176,,50.13020833,,,,,,FBP-YG-18.png,0.35,1.2,36,0.5,,,,,,,,,,,,,,,,,,0,22,22,35,1,,,,,,,,,,,,,,,,,,,,,,,
,,,,,WIN24_019,21,Female,2024-01-30_11h48.08.274,jersey_experiment_5,2023.2.2,Win32,84.74576271,,,,,,,,,,,,,,,,753.4841,755.2839,755.2839,756.271,return,0.0989,,84.89583333,,,,,,FBP-PT-71.png,0.45,1.2,50,1,,,,,,,,,,,,,,,,,,0,23,23,49,1,,,,,,,,,,,,,,,,,,,,,,,
,,,,,WIN24_019,21,Female,2024-01-30_11h48.08.274,jersey_experiment_5,2023.2.2,Win32,84.74576271,,,,,,,,,,,,,,,,756.2712,758.0711,758.0711,758.5063,return,0.0916,,85.80729167,,,,,,FBP-OG-19.png,0.43,1.2,14,1,,,,,,,,,,,,,,,,,,0,24,24,13,1,,,,,,,,,,,,,,,,,,,,,,,
,,,,,WIN24_019,21,Female,2024-01-30_11h48.08.274,jersey_experiment_5,2023.2.2,Win32,84.74576271,,,,,,,,,,,,,,,,758.5065,760.3075,760.3075,761.6962,return,0.0587,,74.34895833,,,,,,FBP-PT-71.png,0.43,1.2,49,1,,,,,,,,,,,,,,,,,,0,25,25,48,1,,,,,,,,,,,,,,,,,,,,,,,
,,,,,WIN24_019,21,Female,2024-01-30_11h48.08.274,jersey_experiment_5,2023.2.2,Win32,84.74576271,,,,,,,,,,,,,,,,761.6965,763.4951,763.4952,764.483,return,0.2358,,74.34895833,,,,,,FBP-PT-91.png,0.43,1.2,59,1,,,,,,,,,,,,,,,,,,0,26,26,58,1,,,,,,,,,,,,,,,,,,,,,,,
,,,,,WIN24_019,21,Female,2024-01-30_11h48.08.274,jersey_experiment_5,2023.2.2,Win32,84.74576271,,,,,,,,,,,,,,,,764.4831,765.7775,765.7775,767.3892,return,0.0656,,76.171875,,,,,,FBP-YG-18.png,0.43,1.2,39,0.5,,,,,,,,,,,,,,,,,,0,27,27,38,1,,,,,,,,,,,,,,,,,,,,,,,
,,,,,WIN24_019,21,Female,2024-01-30_11h48.08.274,jersey_experiment_5,2023.2.2,Win32,84.74576271,,,,,,,,,,,,,,,,767.3894,769.1901,769.1901,769.7538,return,0.104,,83.72395833,,,,,,FBP-OG-18.png,0.45,1.2,10,1,,,,,,,,,,,,,,,,,,0,28,28,9,1,,,,,,,,,,,,,,,,,,,,,,,
,,,,,WIN24_019,21,Female,2024-01-30_11h48.08.274,jersey_experiment_5,2023.2.2,Win32,84.74576271,,,,,,,,,,,,,,,,769.754,771.554,771.554,773.4611,return,0.0942,,62.109375,,,,,,FBP-PT-91.png,0.37,1.2,57,1,,,,,,,,,,,,,,,,,,0,29,29,56,1,,,,,,,,,,,,,,,,,,,,,,,
,,,,,WIN24_019,21,Female,2024-01-30_11h48.08.274,jersey_experiment_5,2023.2.2,Win32,84.74576271,,,,,,,,,,,,,,,,773.4613,774.7542,774.7544,775.2363,return,0.1062,,62.109375,,,,,,FBP-YG-19.png,0.4,1.2,43,0.5,,,,,,,,,,,,,,,,,,0,30,30,42,1,,,,,,,,,,,,,,,,,,,,,,,
,,,,,WIN24_019,21,Female,2024-01-30_11h48.08.274,jersey_experiment_5,2023.2.2,Win32,84.74576271,,,,,,,,,,,,,,,,775.2365,776.5309,776.531,777.354,return,0.0447,,74.47916667,,,,,,FBP-RB-71.png,0.43,1.2,19,0.5,,,,,,,,,,,,,,,,,,0,31,31,18,1,,,,,,,,,,,,,,,,,,,,,,,
,,,,,WIN24_019,21,Female,2024-01-30_11h48.08.274,jersey_experiment_5,2023.2.2,Win32,84.74576271,,,,,,,,,,,,,,,,777.3541,779.1544,779.1545,780.6837,return,1.0555,,63.671875,,,,,,FBP-OG-18.png,0.4,1.2,8,1,,,,,,,,,,,,,,,,,,0,32,32,7,1,,,,,,,,,,,,,,,,,,,,,,,
,,,,,WIN24_019,21,Female,2024-01-30_11h48.08.274,jersey_experiment_5,2023.2.2,Win32,84.74576271,,,,,,,,,,,,,,,,780.6841,782.4837,782.4837,783.1557,return,0.1532,,89.71354167,,,,,,FBP-OG-19.png,0.45,1.2,15,1,,,,,,,,,,,,,,,,,,0,33,33,14,1,,,,,,,,,,,,,,,,,,,,,,,
,,,,,WIN24_019,21,Female,2024-01-30_11h48.08.274,jersey_experiment_5,2023.2.2,Win32,84.74576271,,,,,,,,,,,,,,,,783.1559,784.9545,784.9545,786.1794,return,0.2238,,51.171875,,,,,,FBP-PT-81.png,0.37,1.2,52,1,,,,,,,,,,,,,,,,,,0,34,34,51,1,,,,,,,,,,,,,,,,,,,,,,,
,,,,,WIN24_019,21,Female,2024-01-30_11h48.08.274,jersey_experiment_5,2023.2.2,Win32,84.74576271,,,,,,,,,,,,,,,,786.1795,787.4724,787.4725,788.5796,return,0.0826,,74.34895833,,,,,,FBP-RB-81.png,0.43,1.2,24,0.5,,,,,,,,,,,,,,,,,,0,35,35,23,1,,,,,,,,,,,,,,,,,,,,,,,
,,,,,WIN24_019,21,Female,2024-01-30_11h48.08.274,jersey_experiment_5,2023.2.2,Win32,84.74576271,,,,,,,,,,,,,,,,788.5798,789.8725,789.8726,790.3663,return,0.1231,,74.34895833,,,,,,FBP-RB-91.png,0.4,1.2,28,0.5,,,,,,,,,,,,,,,,,,0,36,36,27,1,,,,,,,,,,,,,,,,,,,,,,,
,,,,,WIN24_019,21,Female,2024-01-30_11h48.08.274,jersey_experiment_5,2023.2.2,Win32,84.74576271,,,,,,,,,,,,,,,,790.3665,792.1676,792.1676,792.8016,return,0.1313,,87.76041667,,,,,,FBP-PT-81.png,0.45,1.2,55,1,,,,,,,,,,,,,,,,,,0,37,37,54,1,,,,,,,,,,,,,,,,,,,,,,,
,,,,,WIN24_019,21,Female,2024-01-30_11h48.08.274,jersey_experiment_5,2023.2.2,Win32,84.74576271,,,,,,,,,,,,,,,,792.8018,794.0962,794.0962,794.7561,return,0.2354,,87.63020833,,,,,,FBP-YG-17.png,0.4,1.2,33,0.5,,,,,,,,,,,,,,,,,,0,38,38,32,1,,,,,,,,,,,,,,,,,,,,,,,
,,,,,WIN24_019,21,Female,2024-01-30_11h48.08.274,jersey_experiment_5,2023.2.2,Win32,84.74576271,,,,,,,,,,,,,,,,794.7563,796.5563,796.5563,798.4621,return,0.1061,,62.109375,,,,,,FBP-PT-71.png,0.37,1.2,47,1,,,,,,,,,,,,,,,,,,0,39,39,46,1,,,,,,,,,,,,,,,,,,,,,,,
,,,,,WIN24_019,21,Female,2024-01-30_11h48.08.274,jersey_experiment_5,2023.2.2,Win32,84.74576271,,,,,,,,,,,,,,,,798.4622,799.7547,799.7547,801.027,return,0.0942,,88.80208333,,,,,,FBP-YG-17.png,0.45,1.2,35,0.5,,,,,,,,,,,,,,,,,,0,40,40,34,1,,,,,,,,,,,,,,,,,,,,,,,
,,,,,WIN24_019,21,Female,2024-01-30_11h48.08.274,jersey_experiment_5,2023.2.2,Win32,84.74576271,,,,,,,,,,,,,,,,801.0271,802.32,802.32,803.7329,return,0.1648,,49.47916667,,,,,,FBP-RB-81.png,0.35,1.2,21,0.5,,,,,,,,,,,,,,,,,,0,41,41,20,1,,,,,,,,,,,,,,,,,,,,,,,
,,,,,WIN24_019,21,Female,2024-01-30_11h48.08.274,jersey_experiment_5,2023.2.2,Win32,84.74576271,,,,,,,,,,,,,,,,803.7331,805.5318,805.5318,806.4507,return,0.1766,,56.25,,,,,,FBP-PT-81.png,0.4,1.2,53,1,,,,,,,,,,,,,,,,,,0,42,42,52,1,,,,,,,,,,,,,,,,,,,,,,,
,,,,,WIN24_019,21,Female,2024-01-30_11h48.08.274,jersey_experiment_5,2023.2.2,Win32,84.74576271,,,,,,,,,,,,,,,,806.4509,807.7437,807.7437,808.9803,return,0.0826,,75.390625,,,,,,FBP-YG-17.png,0.43,1.2,34,0.5,,,,,,,,,,,,,,,,,,0,43,43,33,1,,,,,,,,,,,,,,,,,,,,,,,
,,,,,WIN24_019,21,Female,2024-01-30_11h48.08.274,jersey_experiment_5,2023.2.2,Win32,84.74576271,,,,,,,,,,,,,,,,808.9804,810.7788,810.7788,811.4509,return,0.0943,,58.72395833,,,,,,FBP-OG-17.png,0.37,1.2,2,1,,,,,,,,,,,,,,,,,,0,44,44,1,1,,,,,,,,,,,,,,,,,,,,,,,
,,,,,WIN24_019,21,Female,2024-01-30_11h48.08.274,jersey_experiment_5,2023.2.2,Win32,84.74576271,,,,,,,,,,,,,,,,811.451,813.2509,813.2509,813.9557,return,0.0948,,75.78125,,,,,,FBP-OG-18.png,0.43,1.2,9,1,,,,,,,,,,,,,,,,,,0,45,45,8,1,,,,,,,,,,,,,,,,,,,,,,,
,,,,,WIN24_019,21,Female,2024-01-30_11h48.08.274,jersey_experiment_5,2023.2.2,Win32,84.74576271,,,,,,,,,,,,,,,,813.9561,815.25,815.25,816.2261,return,0.1067,,51.04166667,,,,,,FBP-RB-91.png,0.35,1.2,26,0.5,,,,,,,,,,,,,,,,,,0,46,46,25,1,,,,,,,,,,,,,,,,,,,,,,,
,,,,,WIN24_019,21,Female,2024-01-30_11h48.08.274,jersey_experiment_5,2023.2.2,Win32,84.74576271,,,,,,,,,,,,,,,,816.2266,817.5204,817.5205,818.7088,return,0.1416,,97.265625,,,,,,FBP-RB-81.png,0.45,1.2,25,0.5,,,,,,,,,,,,,,,,,,0,47,47,24,1,,,,,,,,,,,,,,,,,,,,,,,
,,,,,WIN24_019,21,Female,2024-01-30_11h48.08.274,jersey_experiment_5,2023.2.2,Win32,84.74576271,,,,,,,,,,,,,,,,818.7092,820.509,820.509,821.0382,return,0.0637,,97.13541667,,,,,,FBP-OG-17.png,0.45,1.2,5,1,,,,,,,,,,,,,,,,,,0,48,48,4,1,,,,,,,,,,,,,,,,,,,,,,,
,,,,,WIN24_019,21,Female,2024-01-30_11h48.08.274,jersey_experiment_5,2023.2.2,Win32,84.74576271,,,,,,,,,,,,,,,,821.0386,822.3326,822.3326,823.3794,return,0.1295,,75.26041667,,,,,,FBP-RB-71.png,0.4,1.2,18,0.5,,,,,,,,,,,,,,,,,,0,49,49,17,1,,,,,,,,,,,,,,,,,,,,,,,
,,,,,WIN24_019,21,Female,2024-01-30_11h48.08.274,jersey_experiment_5,2023.2.2,Win32,84.74576271,,,,,,,,,,,,,,,,823.3799,825.1809,825.1809,825.956,return,0.0947,,50,,,,,,FBP-PT-71.png,0.35,1.2,46,1,,,,,,,,,,,,,,,,,,0,50,50,45,1,,,,,,,,,,,,,,,,,,,,,,,
,,,,,WIN24_019,21,Female,2024-01-30_11h48.08.274,jersey_experiment_5,2023.2.2,Win32,84.74576271,,,,,,,,,,,,,,,,825.9565,827.2503,827.2504,828.4267,return,0.1143,,61.19791667,,,,,,FBP-YG-18.png,0.4,1.2,38,0.5,,,,,,,,,,,,,,,,,,0,51,51,37,1,,,,,,,,,,,,,,,,,,,,,,,
,,,,,WIN24_019,21,Female,2024-01-30_11h48.08.274,jersey_experiment_5,2023.2.2,Win32,84.74576271,,,,,,,,,,,,,,,,828.4271,829.7209,829.721,831.5561,return,1.0469,,75.52083333,,,,,,FBP-YG-19.png,0.45,1.2,45,0.5,,,,,,,,,,,,,,,,,,0,52,52,44,1,,,,,,,,,,,,,,,,,,,,,,,
,,,,,WIN24_019,21,Female,2024-01-30_11h48.08.274,jersey_experiment_5,2023.2.2,Win32,84.74576271,,,,,,,,,,,,,,,,831.5566,832.8505,832.8506,833.8268,return,0.236,,61.45833333,,,,,,FBP-YG-17.png,0.37,1.2,32,0.5,,,,,,,,,,,,,,,,,,0,53,53,31,1,,,,,,,,,,,,,,,,,,,,,,,
,,,,,WIN24_019,21,Female,2024-01-30_11h48.08.274,jersey_experiment_5,2023.2.2,Win32,84.74576271,,,,,,,,,,,,,,,,833.8272,835.1213,835.1213,836.627,return,0.1654,,26.43229167,,,,,,FBP-RB-71.png,0.35,1.2,16,0.5,,,,,,,,,,,,,,,,,,0,54,54,15,1,,,,,,,,,,,,,,,,,,,,,,,
,,,,,WIN24_019,21,Female,2024-01-30_11h48.08.274,jersey_experiment_5,2023.2.2,Win32,84.74576271,,,,,,,,,,,,,,,,836.6275,837.9214,837.9214,838.4276,return,0.1374,,26.171875,,,,,,FBP-YG-17.png,0.35,1.2,31,0.5,,,,,,,,,,,,,,,,,,0,55,55,30,1,,,,,,,,,,,,,,,,,,,,,,,
,,,,,WIN24_019,21,Female,2024-01-30_11h48.08.274,jersey_experiment_5,2023.2.2,Win32,84.74576271,,,,,,,,,,,,,,,,838.4279,840.2273,840.2274,841.6036,return,0.1068,,72.13541667,,,,,,FBP-PT-91.png,0.4,1.2,58,1,,,,,,,,,,,,,,,,,,0,56,56,57,1,,,,,,,,,,,,,,,,,,,,,,,
,,,,,WIN24_019,21,Female,2024-01-30_11h48.08.274,jersey_experiment_5,2023.2.2,Win32,84.74576271,,,,,,,,,,,,,,,,841.604,843.4039,843.404,844.1566,return,0.1242,,62.5,,,,,,FBP-OG-19.png,0.4,1.2,13,1,,,,,,,,,,,,,,,,,,0,57,57,12,1,,,,,,,,,,,,,,,,,,,,,,,
,,,,,WIN24_019,21,Female,2024-01-30_11h48.08.274,jersey_experiment_5,2023.2.2,Win32,84.74576271,,,,,,,,,,,,,,,,844.157,845.9565,845.9565,847.7801,return,1.0943,,48.30729167,,,,,,FBP-OG-19.png,0.35,1.2,11,1,,,,,,,,,,,,,,,,,,0,58,58,10,1,,,,,,,,,,,,,,,,,,,,,,,
,,,,,WIN24_019,21,Female,2024-01-30_11h48.08.274,jersey_experiment_5,2023.2.2,Win32,84.74576271,,,,,,,,,,,,,,,,847.7804,849.5816,849.5816,850.1569,return,0.2292,,38.80208333,,,,,,FBP-OG-17.png,0.35,1.2,1,1,,,,,,,,,,,,,,,,,,0,59,59,0,1,,,,,,,,,,,,,,,,,,,,,,,
,,,,,WIN24_019,21,Female,2024-01-30_11h48.08.274,jersey_experiment_5,2023.2.2,Win32,84.74576271,,,,,,,,,,,,,,,,,,,,,,,,,,,,,,,,,,,,,,,,,,,,,,,,,,,,,,,,850.1578,853.7226,return,3.5583,,,,,,,,,,,,,,,,,,,
,,,,,WIN24_019,21,Female,2024-01-30_11h48.08.274,jersey_experiment_5,2023.2.2,Win32,84.74576271,,,,,,,,,,,,,,,,,,,,,,,,,,,,,,,,,,,,,,,,,,,,,,,,,,,,,,,,,,,,,853.7229,856.9222,1,2.4219,return,0.758,,,,,,,,,,,,
,,,,,WIN24_019,21,Female,2024-01-30_11h48.08.274,jersey_experiment_5,2023.2.2,Win32,84.74576271,,,,,,,,,,,,,,,,,,,,,,,,,,,,,,,,,,,,,,,,,,,,,,,,,,,,,,,,,,,,,,,,,,,,856.9225,868.2057,I have no idea,right,2.5896,,,,,,
,,,,,WIN24_019,21,Female,2024-01-30_11h48.08.274,jersey_experiment_5,2023.2.2,Win32,84.74576271,,,,,,,,,,,,,,,,,,,,,,,,,,,,,,,,,,,,,,,,,,,,,,,,,,,,,,,,,,,,,,,,,,,,,,,,,,868.2058,873.1346,return,4.9185,