requirements.started,requirements.stopped,key_resp_3.keys,key_resp_3.rt,key_resp_3.duration,Subject ID,Age,Gender,date,expName,psychopyVersion,OS,frameRate,instructions1.started,instructions1.stopped,key_resp.keys,key_resp.rt,key_resp.duration,example.started,example.stopped,enter_2.keys,enter_2.rt,enter_2.duration,instructions2.started,instructions2.stopped,enter_3.keys,enter_3.rt,enter_3.duration,image.started,image.stopped,slider_2.started,slider_2.stopped,next.keys,next.rt,next.duration,slider.response,trial_block_1.thisRepN,trial_block_1.thisTrialN,trial_block_1.thisN,trial_block_1.thisIndex,trial_block_1.ran,Path,Width,Height,Index,Duration,trial_block_2.thisRepN,trial_block_2.thisTrialN,trial_block_2.thisN,trial_block_2.thisIndex,trial_block_2.ran,rest_break.started,rest_break.stopped,end_break.started,end_break.stopped,key_resp_5.keys,key_resp_5.rt,key_resp_5.duration,trial_block_3.thisRepN,trial_block_3.thisTrialN,trial_block_3.thisN,trial_block_3.thisIndex,trial_block_3.ran,trial_block_4.thisRepN,trial_block_4.thisTrialN,trial_block_4.thisN,trial_block_4.thisIndex,trial_block_4.ran,questions_intro.started,questions_intro.stopped,enter_12.keys,enter_12.rt,enter_12.duration,question2.started,question2.stopped,question_doingbest.response,question_doingbest.rt,enter_15.keys,enter_15.rt,enter_15.duration,pattern.started,pattern.stopped,pattern_2.text,enter_17.keys,enter_17.rt,enter_17.duration,thankyou.started,thankyou.stopped,enter_14.keys,enter_14.rt,enter_14.duration
0.0002,8.5189,return,8.5115,,WIN24_009,19,male,2024-01-26_15h50.43.203,jersey_experiment_5,2023.2.2,Win32,85.47008547,,,,,,,,,,,,,,,,,,,,,,,,,,,,,,,,,,,,,,,,,,,,,,,,,,,,,,,,,,,,,,,,,,,,,,,,,,,,,,
,,,,,WIN24_009,19,male,2024-01-26_15h50.43.203,jersey_experiment_5,2023.2.2,Win32,85.47008547,8.519,16.9075,return,8.3659,,,,,,,,,,,,,,,,,,,,,,,,,,,,,,,,,,,,,,,,,,,,,,,,,,,,,,,,,,,,,,,,,,,,,,,,,,
,,,,,WIN24_009,19,male,2024-01-26_15h50.43.203,jersey_experiment_5,2023.2.2,Win32,85.47008547,,,,,,16.9075,22.6137,return,5.6718,,,,,,,,,,,,,,,,,,,,,,,,,,,,,,,,,,,,,,,,,,,,,,,,,,,,,,,,,,,,,,,,,,,,,
,,,,,WIN24_009,19,male,2024-01-26_15h50.43.203,jersey_experiment_5,2023.2.2,Win32,85.47008547,,,,,,,,,,,22.6138,51.8145,return,29.1828,,,,,,,,,,,,,,,,,,,,,,,,,,,,,,,,,,,,,,,,,,,,,,,,,,,,,,,,,,,,,,,,
,,,,,WIN24_009,19,male,2024-01-26_15h50.43.203,jersey_experiment_5,2023.2.2,Win32,85.47008547,,,,,,,,,,,,,,,,51.8216,53.1203,53.1203,61.1327,return,5.3428,,75.390625,0,0,0,59,1,FBP-PT-19.png,0.45,1.2,60,0.5,,,,,,,,,,,,,,,,,,,,,,,,,,,,,,,,,,,,,,,,,,,,,
,,,,,WIN24_009,19,male,2024-01-26_15h50.43.203,jersey_experiment_5,2023.2.2,Win32,85.47008547,,,,,,,,,,,,,,,,61.1371,62.9323,62.9323,67.6854,return,1.6664,,25.52083333,0,1,1,21,1,FBP-RB-18.png,0.37,1.2,22,1,,,,,,,,,,,,,,,,,,,,,,,,,,,,,,,,,,,,,,,,,,,,,
,,,,,WIN24_009,19,male,2024-01-26_15h50.43.203,jersey_experiment_5,2023.2.2,Win32,85.47008547,,,,,,,,,,,,,,,,67.6855,69.4855,69.4856,72.972,return,1.7899,,26.30208333,0,2,2,25,1,FBP-RB-19.png,0.35,1.2,26,1,,,,,,,,,,,,,,,,,,,,,,,,,,,,,,,,,,,,,,,,,,,,,
,,,,,WIN24_009,19,male,2024-01-26_15h50.43.203,jersey_experiment_5,2023.2.2,Win32,85.47008547,,,,,,,,,,,,,,,,72.9722,74.7703,74.7705,77.1006,return,1.481,,48.4375,0,3,3,32,1,FBP-YG-71.png,0.4,1.2,33,1,,,,,,,,,,,,,,,,,,,,,,,,,,,,,,,,,,,,,,,,,,,,,
,,,,,WIN24_009,19,male,2024-01-26_15h50.43.203,jersey_experiment_5,2023.2.2,Win32,85.47008547,,,,,,,,,,,,,,,,77.1007,78.3942,78.3942,80.6625,return,0.7822,,26.04166667,0,4,4,45,1,FBP-PT-17.png,0.35,1.2,46,0.5,,,,,,,,,,,,,,,,,,,,,,,,,,,,,,,,,,,,,,,,,,,,,
,,,,,WIN24_009,19,male,2024-01-26_15h50.43.203,jersey_experiment_5,2023.2.2,Win32,85.47008547,,,,,,,,,,,,,,,,80.6626,81.9592,81.9593,83.8509,return,0.8944,,67.05729167,0,5,5,13,1,FBP-OG-91.png,0.43,1.2,14,0.5,,,,,,,,,,,,,,,,,,,,,,,,,,,,,,,,,,,,,,,,,,,,,
,,,,,WIN24_009,19,male,2024-01-26_15h50.43.203,jersey_experiment_5,2023.2.2,Win32,85.47008547,,,,,,,,,,,,,,,,83.8512,85.145,85.145,86.9,return,1.5042,,77.60416667,0,6,6,14,1,FBP-OG-91.png,0.45,1.2,15,0.5,,,,,,,,,,,,,,,,,,,,,,,,,,,,,,,,,,,,,,,,,,,,,
,,,,,WIN24_009,19,male,2024-01-26_15h50.43.203,jersey_experiment_5,2023.2.2,Win32,85.47008547,,,,,,,,,,,,,,,,86.9002,88.1922,88.1923,90.2068,return,0.5653,,59.50520833,0,7,7,2,1,FBP-OG-71.png,0.4,1.2,3,0.5,,,,,,,,,,,,,,,,,,,,,,,,,,,,,,,,,,,,,,,,,,,,,
,,,,,WIN24_009,19,male,2024-01-26_15h50.43.203,jersey_experiment_5,2023.2.2,Win32,85.47008547,,,,,,,,,,,,,,,,90.207,91.5099,91.51,93.557,return,0.5005,,67.05729167,0,8,8,58,1,FBP-PT-19.png,0.43,1.2,59,0.5,,,,,,,,,,,,,,,,,,,,,,,,,,,,,,,,,,,,,,,,,,,,,
,,,,,WIN24_009,19,male,2024-01-26_15h50.43.203,jersey_experiment_5,2023.2.2,Win32,85.47008547,,,,,,,,,,,,,,,,93.5572,94.8511,94.8512,96.3805,return,0.6956,,73.30729167,0,9,9,3,1,FBP-OG-71.png,0.43,1.2,4,0.5,,,,,,,,,,,,,,,,,,,,,,,,,,,,,,,,,,,,,,,,,,,,,
,,,,,WIN24_009,19,male,2024-01-26_15h50.43.203,jersey_experiment_5,2023.2.2,Win32,85.47008547,,,,,,,,,,,,,,,,96.3807,98.1737,98.1737,99.6396,return,0.6632,,27.86458333,0,10,10,35,1,FBP-YG-81.png,0.35,1.2,36,1,,,,,,,,,,,,,,,,,,,,,,,,,,,,,,,,,,,,,,,,,,,,,
,,,,,WIN24_009,19,male,2024-01-26_15h50.43.203,jersey_experiment_5,2023.2.2,Win32,85.47008547,,,,,,,,,,,,,,,,99.6398,100.9336,100.9337,103.5927,return,0.6619,,46.875,0,11,11,52,1,FBP-PT-18.png,0.4,1.2,53,0.5,,,,,,,,,,,,,,,,,,,,,,,,,,,,,,,,,,,,,,,,,,,,,
,,,,,WIN24_009,19,male,2024-01-26_15h50.43.203,jersey_experiment_5,2023.2.2,Win32,85.47008547,,,,,,,,,,,,,,,,103.5929,104.8868,104.8868,106.1339,return,0.4781,,38.28125,0,12,12,0,1,FBP-OG-71.png,0.35,1.2,1,0.5,,,,,,,,,,,,,,,,,,,,,,,,,,,,,,,,,,,,,,,,,,,,,
,,,,,WIN24_009,19,male,2024-01-26_15h50.43.203,jersey_experiment_5,2023.2.2,Win32,85.47008547,,,,,,,,,,,,,,,,106.1342,107.9365,107.9365,111.1811,return,2.1157,,49.47916667,0,13,13,22,1,FBP-RB-18.png,0.4,1.2,23,1,,,,,,,,,,,,,,,,,,,,,,,,,,,,,,,,,,,,,,,,,,,,,
,,,,,WIN24_009,19,male,2024-01-26_15h50.43.203,jersey_experiment_5,2023.2.2,Win32,85.47008547,,,,,,,,,,,,,,,,111.1813,112.4753,112.4753,114.0794,return,0.4487,,40.75520833,0,14,14,46,1,FBP-PT-17.png,0.37,1.2,47,0.5,,,,,,,,,,,,,,,,,,,,,,,,,,,,,,,,,,,,,,,,,,,,,
,,,,,WIN24_009,19,male,2024-01-26_15h50.43.203,jersey_experiment_5,2023.2.2,Win32,85.47008547,,,,,,,,,,,,,,,,114.0795,115.878,115.878,117.9815,return,1.4943,,73.95833333,0,15,15,18,1,FBP-RB-17.png,0.43,1.2,19,1,,,,,,,,,,,,,,,,,,,,,,,,,,,,,,,,,,,,,,,,,,,,,
,,,,,WIN24_009,19,male,2024-01-26_15h50.43.203,jersey_experiment_5,2023.2.2,Win32,85.47008547,,,,,,,,,,,,,,,,117.9817,119.7815,119.7815,121.1254,return,0.553,,76.171875,0,16,16,42,1,FBP-YG-91.png,0.4,1.2,43,1,,,,,,,,,,,,,,,,,,,,,,,,,,,,,,,,,,,,,,,,,,,,,
,,,,,WIN24_009,19,male,2024-01-26_15h50.43.203,jersey_experiment_5,2023.2.2,Win32,85.47008547,,,,,,,,,,,,,,,,121.1256,122.417,122.417,123.6318,return,0.5978,,80.859375,0,17,17,8,1,FBP-OG-81.png,0.43,1.2,9,0.5,,,,,,,,,,,,,,,,,,,,,,,,,,,,,,,,,,,,,,,,,,,,,
,,,,,WIN24_009,19,male,2024-01-26_15h50.43.203,jersey_experiment_5,2023.2.2,Win32,85.47008547,,,,,,,,,,,,,,,,123.632,125.4328,125.4328,128.5626,return,2.3543,,39.97395833,0,18,18,30,1,FBP-YG-71.png,0.35,1.2,31,1,,,,,,,,,,,,,,,,,,,,,,,,,,,,,,,,,,,,,,,,,,,,,
,,,,,WIN24_009,19,male,2024-01-26_15h50.43.203,jersey_experiment_5,2023.2.2,Win32,85.47008547,,,,,,,,,,,,,,,,128.5628,129.8565,129.8565,132.127,return,0.541,,56.11979167,0,19,19,57,1,FBP-PT-19.png,0.4,1.2,58,0.5,,,,,,,,,,,,,,,,,,,,,,,,,,,,,,,,,,,,,,,,,,,,,
,,,,,WIN24_009,19,male,2024-01-26_15h50.43.203,jersey_experiment_5,2023.2.2,Win32,85.47008547,,,,,,,,,,,,,,,,132.1272,133.4289,133.429,135.2702,return,1.2487,,58.46354167,0,20,20,56,1,FBP-PT-19.png,0.37,1.2,57,0.5,,,,,,,,,,,,,,,,,,,,,,,,,,,,,,,,,,,,,,,,,,,,,
,,,,,WIN24_009,19,male,2024-01-26_15h50.43.203,jersey_experiment_5,2023.2.2,Win32,85.47008547,,,,,,,,,,,,,,,,135.2702,137.0681,137.0681,140.4217,return,2.649,,74.86979167,0,21,21,33,1,FBP-YG-71.png,0.43,1.2,34,1,,,,,,,,,,,,,,,,,,,,,,,,,,,,,,,,,,,,,,,,,,,,,
,,,,,WIN24_009,19,male,2024-01-26_15h50.43.203,jersey_experiment_5,2023.2.2,Win32,85.47008547,,,,,,,,,,,,,,,,140.4219,142.2206,142.2206,143.5044,return,0.5409,,72.265625,0,22,22,27,1,FBP-RB-19.png,0.4,1.2,28,1,,,,,,,,,,,,,,,,,,,,,,,,,,,,,,,,,,,,,,,,,,,,,
,,,,,WIN24_009,19,male,2024-01-26_15h50.43.203,jersey_experiment_5,2023.2.2,Win32,85.47008547,,,,,,,,,,,,,,,,143.5045,144.7963,144.7964,147.7621,return,2.318,,44.53125,0,23,23,50,1,FBP-PT-18.png,0.35,1.2,51,0.5,,,,,,,,,,,,,,,,,,,,,,,,,,,,,,,,,,,,,,,,,,,,,
,,,,,WIN24_009,19,male,2024-01-26_15h50.43.203,jersey_experiment_5,2023.2.2,Win32,85.47008547,,,,,,,,,,,,,,,,147.7622,149.0565,149.0565,150.5398,return,0.4946,,27.34375,0,24,24,55,1,FBP-PT-19.png,0.35,1.2,56,0.5,,,,,,,,,,,,,,,,,,,,,,,,,,,,,,,,,,,,,,,,,,,,,
,,,,,WIN24_009,19,male,2024-01-26_15h50.43.203,jersey_experiment_5,2023.2.2,Win32,85.47008547,,,,,,,,,,,,,,,,150.54,152.3357,152.3357,153.9735,return,0.6089,,95.83333333,0,25,25,39,1,FBP-YG-81.png,0.45,1.2,40,1,,,,,,,,,,,,,,,,,,,,,,,,,,,,,,,,,,,,,,,,,,,,,
,,,,,WIN24_009,19,male,2024-01-26_15h50.43.203,jersey_experiment_5,2023.2.2,Win32,85.47008547,,,,,,,,,,,,,,,,153.9736,155.2654,155.2654,156.3516,return,0.531,,97.39583333,0,26,26,48,1,FBP-PT-17.png,0.43,1.2,49,0.5,,,,,,,,,,,,,,,,,,,,,,,,,,,,,,,,,,,,,,,,,,,,,
,,,,,WIN24_009,19,male,2024-01-26_15h50.43.203,jersey_experiment_5,2023.2.2,Win32,85.47008547,,,,,,,,,,,,,,,,156.3517,158.1476,158.1477,159.1948,return,0.5205,,32.55208333,0,27,27,15,1,FBP-RB-17.png,0.35,1.2,16,1,,,,,,,,,,,,,,,,,,,,,,,,,,,,,,,,,,,,,,,,,,,,,
,,,,,WIN24_009,19,male,2024-01-26_15h50.43.203,jersey_experiment_5,2023.2.2,Win32,85.47008547,,,,,,,,,,,,,,,,159.1948,160.4888,160.4888,162.3241,return,0.4665,,30.859375,0,28,28,51,1,FBP-PT-18.png,0.37,1.2,52,0.5,,,,,,,,,,,,,,,,,,,,,,,,,,,,,,,,,,,,,,,,,,,,,
,,,,,WIN24_009,19,male,2024-01-26_15h50.43.203,jersey_experiment_5,2023.2.2,Win32,85.47008547,,,,,,,,,,,,,,,,162.3243,164.1275,164.1275,165.3985,return,0.4696,,28.77604167,0,29,29,41,1,FBP-YG-91.png,0.37,1.2,42,1,,,,,,,,,,,,,,,,,,,,,,,,,,,,,,,,,,,,,,,,,,,,,
,,,,,WIN24_009,19,male,2024-01-26_15h50.43.203,jersey_experiment_5,2023.2.2,Win32,85.47008547,,,,,,,,,,,,,,,,165.3987,167.195,167.195,168.7641,return,0.612,,68.75,0,30,30,43,1,FBP-YG-91.png,0.43,1.2,44,1,,,,,,,,,,,,,,,,,,,,,,,,,,,,,,,,,,,,,,,,,,,,,
,,,,,WIN24_009,19,male,2024-01-26_15h50.43.203,jersey_experiment_5,2023.2.2,Win32,85.47008547,,,,,,,,,,,,,,,,168.7642,170.0578,170.0578,171.1403,return,0.4353,,27.47395833,0,31,31,10,1,FBP-OG-91.png,0.35,1.2,11,0.5,,,,,,,,,,,,,,,,,,,,,,,,,,,,,,,,,,,,,,,,,,,,,
,,,,,WIN24_009,19,male,2024-01-26_15h50.43.203,jersey_experiment_5,2023.2.2,Win32,85.47008547,,,,,,,,,,,,,,,,171.1404,172.433,172.433,174.986,return,1.7393,,70.83333333,0,32,32,53,1,FBP-PT-18.png,0.43,1.2,54,0.5,,,,,,,,,,,,,,,,,,,,,,,,,,,,,,,,,,,,,,,,,,,,,
,,,,,WIN24_009,19,male,2024-01-26_15h50.43.203,jersey_experiment_5,2023.2.2,Win32,85.47008547,,,,,,,,,,,,,,,,174.9861,176.2776,176.2776,177.0804,return,0.4457,,70.83333333,0,33,33,47,1,FBP-PT-17.png,0.4,1.2,48,0.5,,,,,,,,,,,,,,,,,,,,,,,,,,,,,,,,,,,,,,,,,,,,,
,,,,,WIN24_009,19,male,2024-01-26_15h50.43.203,jersey_experiment_5,2023.2.2,Win32,85.47008547,,,,,,,,,,,,,,,,177.0805,178.8827,178.8827,180.8939,return,1.3415,,46.74479167,0,34,34,36,1,FBP-YG-81.png,0.37,1.2,37,1,,,,,,,,,,,,,,,,,,,,,,,,,,,,,,,,,,,,,,,,,,,,,
,,,,,WIN24_009,19,male,2024-01-26_15h50.43.203,jersey_experiment_5,2023.2.2,Win32,85.47008547,,,,,,,,,,,,,,,,180.894,182.6936,182.6937,184.5279,return,0.6356,,27.86458333,0,35,35,40,1,FBP-YG-91.png,0.35,1.2,41,1,,,,,,,,,,,,,,,,,,,,,,,,,,,,,,,,,,,,,,,,,,,,,
,,,,,WIN24_009,19,male,2024-01-26_15h50.43.203,jersey_experiment_5,2023.2.2,Win32,85.47008547,,,,,,,,,,,,,,,,184.528,185.8234,185.8235,187.519,return,0.6133,,95.3125,0,36,36,49,1,FBP-PT-17.png,0.45,1.2,50,0.5,,,,,,,,,,,,,,,,,,,,,,,,,,,,,,,,,,,,,,,,,,,,,
,,,,,WIN24_009,19,male,2024-01-26_15h50.43.203,jersey_experiment_5,2023.2.2,Win32,85.47008547,,,,,,,,,,,,,,,,187.5191,188.8193,188.8193,190.7253,return,1.3376,,80.46875,0,37,37,7,1,FBP-OG-81.png,0.4,1.2,8,0.5,,,,,,,,,,,,,,,,,,,,,,,,,,,,,,,,,,,,,,,,,,,,,
,,,,,WIN24_009,19,male,2024-01-26_15h50.43.203,jersey_experiment_5,2023.2.2,Win32,85.47008547,,,,,,,,,,,,,,,,190.7254,192.5254,192.5254,193.7372,return,0.4982,,85.80729167,0,38,38,37,1,FBP-YG-81.png,0.4,1.2,38,1,,,,,,,,,,,,,,,,,,,,,,,,,,,,,,,,,,,,,,,,,,,,,
,,,,,WIN24_009,19,male,2024-01-26_15h50.43.203,jersey_experiment_5,2023.2.2,Win32,85.47008547,,,,,,,,,,,,,,,,193.7373,195.5438,195.5438,197.0584,return,0.6367,,99.47916667,0,39,39,23,1,FBP-RB-18.png,0.43,1.2,24,1,,,,,,,,,,,,,,,,,,,,,,,,,,,,,,,,,,,,,,,,,,,,,
,,,,,WIN24_009,19,male,2024-01-26_15h50.43.203,jersey_experiment_5,2023.2.2,Win32,85.47008547,,,,,,,,,,,,,,,,197.0585,198.3514,198.3515,199.6255,return,0.6608,,94.140625,0,40,40,12,1,FBP-OG-91.png,0.4,1.2,13,0.5,,,,,,,,,,,,,,,,,,,,,,,,,,,,,,,,,,,,,,,,,,,,,
,,,,,WIN24_009,19,male,2024-01-26_15h50.43.203,jersey_experiment_5,2023.2.2,Win32,85.47008547,,,,,,,,,,,,,,,,199.6256,200.9256,200.9256,203.7846,return,1.0267,,67.70833333,0,41,41,6,1,FBP-OG-81.png,0.37,1.2,7,0.5,,,,,,,,,,,,,,,,,,,,,,,,,,,,,,,,,,,,,,,,,,,,,
,,,,,WIN24_009,19,male,2024-01-26_15h50.43.203,jersey_experiment_5,2023.2.2,Win32,85.47008547,,,,,,,,,,,,,,,,203.7849,205.5847,205.5847,206.9376,return,0.6142,,92.31770833,0,42,42,38,1,FBP-YG-81.png,0.43,1.2,39,1,,,,,,,,,,,,,,,,,,,,,,,,,,,,,,,,,,,,,,,,,,,,,
,,,,,WIN24_009,19,male,2024-01-26_15h50.43.203,jersey_experiment_5,2023.2.2,Win32,85.47008547,,,,,,,,,,,,,,,,206.9378,208.2359,208.2359,209.4494,return,0.5313,,99.47916667,0,43,43,54,1,FBP-PT-18.png,0.45,1.2,55,0.5,,,,,,,,,,,,,,,,,,,,,,,,,,,,,,,,,,,,,,,,,,,,,
,,,,,WIN24_009,19,male,2024-01-26_15h50.43.203,jersey_experiment_5,2023.2.2,Win32,85.47008547,,,,,,,,,,,,,,,,209.4495,211.2482,211.2482,212.3752,return,0.4822,,54.296875,0,44,44,26,1,FBP-RB-19.png,0.37,1.2,27,1,,,,,,,,,,,,,,,,,,,,,,,,,,,,,,,,,,,,,,,,,,,,,
,,,,,WIN24_009,19,male,2024-01-26_15h50.43.203,jersey_experiment_5,2023.2.2,Win32,85.47008547,,,,,,,,,,,,,,,,212.3754,213.6847,213.6847,216.4909,return,2.1673,,41.14583333,0,45,45,11,1,FBP-OG-91.png,0.37,1.2,12,0.5,,,,,,,,,,,,,,,,,,,,,,,,,,,,,,,,,,,,,,,,,,,,,
,,,,,WIN24_009,19,male,2024-01-26_15h50.43.203,jersey_experiment_5,2023.2.2,Win32,85.47008547,,,,,,,,,,,,,,,,216.4911,218.284,218.284,219.3381,return,0.4853,,91.92708333,0,46,46,19,1,FBP-RB-17.png,0.45,1.2,20,1,,,,,,,,,,,,,,,,,,,,,,,,,,,,,,,,,,,,,,,,,,,,,
,,,,,WIN24_009,19,male,2024-01-26_15h50.43.203,jersey_experiment_5,2023.2.2,Win32,85.47008547,,,,,,,,,,,,,,,,219.3383,220.6346,220.6346,222.8911,return,0.4356,,38.54166667,0,47,47,5,1,FBP-OG-81.png,0.35,1.2,6,0.5,,,,,,,,,,,,,,,,,,,,,,,,,,,,,,,,,,,,,,,,,,,,,
,,,,,WIN24_009,19,male,2024-01-26_15h50.43.203,jersey_experiment_5,2023.2.2,Win32,85.47008547,,,,,,,,,,,,,,,,222.8913,224.694,224.694,225.5308,return,0.4841,,37.5,0,48,48,16,1,FBP-RB-17.png,0.37,1.2,17,1,,,,,,,,,,,,,,,,,,,,,,,,,,,,,,,,,,,,,,,,,,,,,
,,,,,WIN24_009,19,male,2024-01-26_15h50.43.203,jersey_experiment_5,2023.2.2,Win32,85.47008547,,,,,,,,,,,,,,,,225.5311,227.3291,227.3291,228.5502,return,0.5117,,69.27083333,0,49,49,28,1,FBP-RB-19.png,0.43,1.2,29,1,,,,,,,,,,,,,,,,,,,,,,,,,,,,,,,,,,,,,,,,,,,,,
,,,,,WIN24_009,19,male,2024-01-26_15h50.43.203,jersey_experiment_5,2023.2.2,Win32,85.47008547,,,,,,,,,,,,,,,,228.5505,229.8472,229.8472,230.8112,return,0.4916,,41.015625,0,50,50,1,1,FBP-OG-71.png,0.37,1.2,2,0.5,,,,,,,,,,,,,,,,,,,,,,,,,,,,,,,,,,,,,,,,,,,,,
,,,,,WIN24_009,19,male,2024-01-26_15h50.43.203,jersey_experiment_5,2023.2.2,Win32,85.47008547,,,,,,,,,,,,,,,,230.8114,232.6157,232.6157,233.915,return,0.8589,,97.65625,0,51,51,44,1,FBP-YG-91.png,0.45,1.2,45,1,,,,,,,,,,,,,,,,,,,,,,,,,,,,,,,,,,,,,,,,,,,,,
,,,,,WIN24_009,19,male,2024-01-26_15h50.43.203,jersey_experiment_5,2023.2.2,Win32,85.47008547,,,,,,,,,,,,,,,,233.9153,235.7151,235.7151,237.4722,return,0.6721,,100,0,52,52,24,1,FBP-RB-18.png,0.45,1.2,25,1,,,,,,,,,,,,,,,,,,,,,,,,,,,,,,,,,,,,,,,,,,,,,
,,,,,WIN24_009,19,male,2024-01-26_15h50.43.203,jersey_experiment_5,2023.2.2,Win32,85.47008547,,,,,,,,,,,,,,,,237.4723,239.2681,239.2681,240.2954,return,0.4954,,77.08333333,0,53,53,17,1,FBP-RB-17.png,0.4,1.2,18,1,,,,,,,,,,,,,,,,,,,,,,,,,,,,,,,,,,,,,,,,,,,,,
,,,,,WIN24_009,19,male,2024-01-26_15h50.43.203,jersey_experiment_5,2023.2.2,Win32,85.47008547,,,,,,,,,,,,,,,,240.2957,241.5897,241.5898,243.0214,return,0.4838,,84.50520833,0,54,54,9,1,FBP-OG-81.png,0.45,1.2,10,0.5,,,,,,,,,,,,,,,,,,,,,,,,,,,,,,,,,,,,,,,,,,,,,
,,,,,WIN24_009,19,male,2024-01-26_15h50.43.203,jersey_experiment_5,2023.2.2,Win32,85.47008547,,,,,,,,,,,,,,,,243.0215,244.8238,244.8238,246.1179,return,0.9255,,66.40625,0,55,55,31,1,FBP-YG-71.png,0.37,1.2,32,1,,,,,,,,,,,,,,,,,,,,,,,,,,,,,,,,,,,,,,,,,,,,,
,,,,,WIN24_009,19,male,2024-01-26_15h50.43.203,jersey_experiment_5,2023.2.2,Win32,85.47008547,,,,,,,,,,,,,,,,246.118,247.4097,247.4097,248.9082,return,0.5313,,94.27083333,0,56,56,4,1,FBP-OG-71.png,0.45,1.2,5,0.5,,,,,,,,,,,,,,,,,,,,,,,,,,,,,,,,,,,,,,,,,,,,,
,,,,,WIN24_009,19,male,2024-01-26_15h50.43.203,jersey_experiment_5,2023.2.2,Win32,85.47008547,,,,,,,,,,,,,,,,248.9084,250.7039,250.704,252.2731,return,0.6708,,99.34895833,0,57,57,34,1,FBP-YG-71.png,0.45,1.2,35,1,,,,,,,,,,,,,,,,,,,,,,,,,,,,,,,,,,,,,,,,,,,,,
,,,,,WIN24_009,19,male,2024-01-26_15h50.43.203,jersey_experiment_5,2023.2.2,Win32,85.47008547,,,,,,,,,,,,,,,,252.2731,254.0715,254.0715,255.1091,return,0.5189,,99.34895833,0,58,58,29,1,FBP-RB-19.png,0.45,1.2,30,1,,,,,,,,,,,,,,,,,,,,,,,,,,,,,,,,,,,,,,,,,,,,,
,,,,,WIN24_009,19,male,2024-01-26_15h50.43.203,jersey_experiment_5,2023.2.2,Win32,85.47008547,,,,,,,,,,,,,,,,255.1093,256.9088,256.9089,258.7788,return,1.0942,,28.77604167,0,59,59,20,1,FBP-RB-18.png,0.35,1.2,21,1,,,,,,,,,,,,,,,,,,,,,,,,,,,,,,,,,,,,,,,,,,,,,
,,,,,WIN24_009,19,male,2024-01-26_15h50.43.203,jersey_experiment_5,2023.2.2,Win32,85.47008547,,,,,,,,,,,,,,,,258.7809,260.575,260.575,261.3907,return,0.4603,,9.114583333,,,,,,FBP-RB-71.png,0.35,1.2,16,1,0,0,0,15,1,,,,,,,,,,,,,,,,,,,,,,,,,,,,,,,,,,,,,,,,
,,,,,WIN24_009,19,male,2024-01-26_15h50.43.203,jersey_experiment_5,2023.2.2,Win32,85.47008547,,,,,,,,,,,,,,,,261.3909,262.6925,262.6925,264.4378,return,1.1547,,9.635416667,,,,,,FBP-OG-19.png,0.35,1.2,11,0.5,0,1,1,10,1,,,,,,,,,,,,,,,,,,,,,,,,,,,,,,,,,,,,,,,,
,,,,,WIN24_009,19,male,2024-01-26_15h50.43.203,jersey_experiment_5,2023.2.2,Win32,85.47008547,,,,,,,,,,,,,,,,264.438,266.2339,266.234,268.4485,return,1.5152,,67.96875,,,,,,FBP-YG-17.png,0.43,1.2,34,1,0,2,2,33,1,,,,,,,,,,,,,,,,,,,,,,,,,,,,,,,,,,,,,,,,
,,,,,WIN24_009,19,male,2024-01-26_15h50.43.203,jersey_experiment_5,2023.2.2,Win32,85.47008547,,,,,,,,,,,,,,,,268.4487,270.2506,270.2507,271.2577,return,0.484,,88.28125,,,,,,FBP-RB-81.png,0.43,1.2,24,1,0,3,3,23,1,,,,,,,,,,,,,,,,,,,,,,,,,,,,,,,,,,,,,,,,
,,,,,WIN24_009,19,male,2024-01-26_15h50.43.203,jersey_experiment_5,2023.2.2,Win32,85.47008547,,,,,,,,,,,,,,,,271.258,273.0619,273.062,274.1165,return,0.5014,,76.82291667,,,,,,FBP-YG-19.png,0.4,1.2,43,1,0,4,4,42,1,,,,,,,,,,,,,,,,,,,,,,,,,,,,,,,,,,,,,,,,
,,,,,WIN24_009,19,male,2024-01-26_15h50.43.203,jersey_experiment_5,2023.2.2,Win32,85.47008547,,,,,,,,,,,,,,,,274.1167,275.9233,275.9233,279.6109,return,3.0242,,61.58854167,,,,,,FBP-YG-18.png,0.4,1.2,38,1,0,5,5,37,1,,,,,,,,,,,,,,,,,,,,,,,,,,,,,,,,,,,,,,,,
,,,,,WIN24_009,19,male,2024-01-26_15h50.43.203,jersey_experiment_5,2023.2.2,Win32,85.47008547,,,,,,,,,,,,,,,,279.6111,280.9051,280.9051,283.6111,return,0.4476,,79.55729167,,,,,,FBP-OG-19.png,0.43,1.2,14,0.5,0,6,6,13,1,,,,,,,,,,,,,,,,,,,,,,,,,,,,,,,,,,,,,,,,
,,,,,WIN24_009,19,male,2024-01-26_15h50.43.203,jersey_experiment_5,2023.2.2,Win32,85.47008547,,,,,,,,,,,,,,,,283.6113,285.4151,285.4151,286.4699,return,0.4428,,91.40625,,,,,,FBP-RB-91.png,0.45,1.2,30,1,0,7,7,29,1,,,,,,,,,,,,,,,,,,,,,,,,,,,,,,,,,,,,,,,,
,,,,,WIN24_009,19,male,2024-01-26_15h50.43.203,jersey_experiment_5,2023.2.2,Win32,85.47008547,,,,,,,,,,,,,,,,286.4701,287.7641,287.7642,288.9083,return,0.483,,97.52604167,,,,,,FBP-OG-19.png,0.45,1.2,15,0.5,0,8,8,14,1,,,,,,,,,,,,,,,,,,,,,,,,,,,,,,,,,,,,,,,,
,,,,,WIN24_009,19,male,2024-01-26_15h50.43.203,jersey_experiment_5,2023.2.2,Win32,85.47008547,,,,,,,,,,,,,,,,288.9086,290.7077,290.7078,292.3912,return,0.6699,,99.34895833,,,,,,FBP-YG-19.png,0.43,1.2,44,1,0,9,9,43,1,,,,,,,,,,,,,,,,,,,,,,,,,,,,,,,,,,,,,,,,
,,,,,WIN24_009,19,male,2024-01-26_15h50.43.203,jersey_experiment_5,2023.2.2,Win32,85.47008547,,,,,,,,,,,,,,,,292.3913,294.1926,294.1926,296.0982,return,0.5653,,0.78125,,,,,,FBP-RB-81.png,0.35,1.2,21,1,0,10,10,20,1,,,,,,,,,,,,,,,,,,,,,,,,,,,,,,,,,,,,,,,,
,,,,,WIN24_009,19,male,2024-01-26_15h50.43.203,jersey_experiment_5,2023.2.2,Win32,85.47008547,,,,,,,,,,,,,,,,296.0983,297.3912,297.3912,299.4235,return,0.5767,,78.25520833,,,,,,FBP-PT-81.png,0.45,1.2,55,0.5,0,11,11,54,1,,,,,,,,,,,,,,,,,,,,,,,,,,,,,,,,,,,,,,,,
,,,,,WIN24_009,19,male,2024-01-26_15h50.43.203,jersey_experiment_5,2023.2.2,Win32,85.47008547,,,,,,,,,,,,,,,,299.4237,300.7175,300.7175,302.4706,return,0.466,,70.703125,,,,,,FBP-OG-19.png,0.4,1.2,13,0.5,0,12,12,12,1,,,,,,,,,,,,,,,,,,,,,,,,,,,,,,,,,,,,,,,,
,,,,,WIN24_009,19,male,2024-01-26_15h50.43.203,jersey_experiment_5,2023.2.2,Win32,85.47008547,,,,,,,,,,,,,,,,302.4708,304.2707,304.2707,306.0237,return,1.0761,,65.10416667,,,,,,FBP-YG-17.png,0.4,1.2,33,1,0,13,13,32,1,,,,,,,,,,,,,,,,,,,,,,,,,,,,,,,,,,,,,,,,
,,,,,WIN24_009,19,male,2024-01-26_15h50.43.203,jersey_experiment_5,2023.2.2,Win32,85.47008547,,,,,,,,,,,,,,,,306.0239,307.3244,307.3244,308.3296,return,0.4976,,78.25520833,,,,,,FBP-PT-81.png,0.43,1.2,54,0.5,0,14,14,53,1,,,,,,,,,,,,,,,,,,,,,,,,,,,,,,,,,,,,,,,,
,,,,,WIN24_009,19,male,2024-01-26_15h50.43.203,jersey_experiment_5,2023.2.2,Win32,85.47008547,,,,,,,,,,,,,,,,308.3299,310.1329,310.1329,311.0474,return,0.5455,,73.4375,,,,,,FBP-RB-71.png,0.4,1.2,18,1,0,15,15,17,1,,,,,,,,,,,,,,,,,,,,,,,,,,,,,,,,,,,,,,,,
,,,,,WIN24_009,19,male,2024-01-26_15h50.43.203,jersey_experiment_5,2023.2.2,Win32,85.47008547,,,,,,,,,,,,,,,,311.0475,312.8473,312.8474,313.718,return,0.5697,,73.4375,,,,,,FBP-RB-81.png,0.4,1.2,23,1,0,16,16,22,1,,,,,,,,,,,,,,,,,,,,,,,,,,,,,,,,,,,,,,,,
,,,,,WIN24_009,19,male,2024-01-26_15h50.43.203,jersey_experiment_5,2023.2.2,Win32,85.47008547,,,,,,,,,,,,,,,,313.7182,315.0158,315.0159,316.9556,return,1.2235,,82.55208333,,,,,,FBP-OG-18.png,0.43,1.2,9,0.5,0,17,17,8,1,,,,,,,,,,,,,,,,,,,,,,,,,,,,,,,,,,,,,,,,
,,,,,WIN24_009,19,male,2024-01-26_15h50.43.203,jersey_experiment_5,2023.2.2,Win32,85.47008547,,,,,,,,,,,,,,,,316.9557,318.2476,318.2476,320.1209,return,0.5516,,51.5625,,,,,,FBP-OG-19.png,0.37,1.2,12,0.5,0,18,18,11,1,,,,,,,,,,,,,,,,,,,,,,,,,,,,,,,,,,,,,,,,
,,,,,WIN24_009,19,male,2024-01-26_15h50.43.203,jersey_experiment_5,2023.2.2,Win32,85.47008547,,,,,,,,,,,,,,,,320.1212,321.9209,321.921,323.568,return,0.5276,,73.4375,,,,,,FBP-YG-18.png,0.43,1.2,39,1,0,19,19,38,1,,,,,,,,,,,,,,,,,,,,,,,,,,,,,,,,,,,,,,,,
,,,,,WIN24_009,19,male,2024-01-26_15h50.43.203,jersey_experiment_5,2023.2.2,Win32,85.47008547,,,,,,,,,,,,,,,,323.5681,325.3682,325.3682,327.2889,return,1.3329,,57.94270833,,,,,,FBP-RB-81.png,0.37,1.2,22,1,0,20,20,21,1,,,,,,,,,,,,,,,,,,,,,,,,,,,,,,,,,,,,,,,,
,,,,,WIN24_009,19,male,2024-01-26_15h50.43.203,jersey_experiment_5,2023.2.2,Win32,85.47008547,,,,,,,,,,,,,,,,327.2892,328.5892,328.5892,329.9304,return,0.5311,,82.68229167,,,,,,FBP-OG-18.png,0.45,1.2,10,0.5,0,21,21,9,1,,,,,,,,,,,,,,,,,,,,,,,,,,,,,,,,,,,,,,,,
,,,,,WIN24_009,19,male,2024-01-26_15h50.43.203,jersey_experiment_5,2023.2.2,Win32,85.47008547,,,,,,,,,,,,,,,,329.9307,331.7344,331.7344,332.8128,return,0.6116,,82.16145833,,,,,,FBP-YG-17.png,0.45,1.2,35,1,0,22,22,34,1,,,,,,,,,,,,,,,,,,,,,,,,,,,,,,,,,,,,,,,,
,,,,,WIN24_009,19,male,2024-01-26_15h50.43.203,jersey_experiment_5,2023.2.2,Win32,85.47008547,,,,,,,,,,,,,,,,332.8131,334.107,334.107,336.5658,return,1.8292,,56.11979167,,,,,,FBP-PT-91.png,0.4,1.2,58,0.5,0,23,23,57,1,,,,,,,,,,,,,,,,,,,,,,,,,,,,,,,,,,,,,,,,
,,,,,WIN24_009,19,male,2024-01-26_15h50.43.203,jersey_experiment_5,2023.2.2,Win32,85.47008547,,,,,,,,,,,,,,,,336.566,337.8629,337.8629,339.3541,return,0.9651,,64.71354167,,,,,,FBP-PT-91.png,0.43,1.2,59,0.5,0,24,24,58,1,,,,,,,,,,,,,,,,,,,,,,,,,,,,,,,,,,,,,,,,
,,,,,WIN24_009,19,male,2024-01-26_15h50.43.203,jersey_experiment_5,2023.2.2,Win32,85.47008547,,,,,,,,,,,,,,,,339.3544,340.6486,340.6486,342.9114,return,0.9783,,9.505208333,,,,,,FBP-PT-91.png,0.35,1.2,56,0.5,0,25,25,55,1,,,,,,,,,,,,,,,,,,,,,,,,,,,,,,,,,,,,,,,,
,,,,,WIN24_009,19,male,2024-01-26_15h50.43.203,jersey_experiment_5,2023.2.2,Win32,85.47008547,,,,,,,,,,,,,,,,342.9116,344.2132,344.2132,345.3545,return,0.5656,,5.729166667,,,,,,FBP-OG-17.png,0.37,1.2,2,0.5,0,26,26,1,1,,,,,,,,,,,,,,,,,,,,,,,,,,,,,,,,,,,,,,,,
,,,,,WIN24_009,19,male,2024-01-26_15h50.43.203,jersey_experiment_5,2023.2.2,Win32,85.47008547,,,,,,,,,,,,,,,,345.3547,347.1568,347.1568,348.7782,return,0.7777,,84.89583333,,,,,,FBP-YG-19.png,0.45,1.2,45,1,0,27,27,44,1,,,,,,,,,,,,,,,,,,,,,,,,,,,,,,,,,,,,,,,,
,,,,,WIN24_009,19,male,2024-01-26_15h50.43.203,jersey_experiment_5,2023.2.2,Win32,85.47008547,,,,,,,,,,,,,,,,348.7784,350.5806,350.5807,353.7591,return,2.5665,,48.56770833,,,,,,FBP-RB-91.png,0.37,1.2,27,1,0,28,28,26,1,,,,,,,,,,,,,,,,,,,,,,,,,,,,,,,,,,,,,,,,
,,,,,WIN24_009,19,male,2024-01-26_15h50.43.203,jersey_experiment_5,2023.2.2,Win32,85.47008547,,,,,,,,,,,,,,,,353.7592,355.5547,355.5547,356.5571,return,0.5852,,71.875,,,,,,FBP-RB-71.png,0.45,1.2,20,1,0,29,29,19,1,,,,,,,,,,,,,,,,,,,,,,,,,,,,,,,,,,,,,,,,
,,,,,WIN24_009,19,male,2024-01-26_15h50.43.203,jersey_experiment_5,2023.2.2,Win32,85.47008547,,,,,,,,,,,,,,,,356.5572,358.3599,358.3599,360.877,return,1.7554,,39.32291667,,,,,,FBP-YG-19.png,0.35,1.2,41,1,0,30,30,40,1,,,,,,,,,,,,,,,,,,,,,,,,,,,,,,,,,,,,,,,,
,,,,,WIN24_009,19,male,2024-01-26_15h50.43.203,jersey_experiment_5,2023.2.2,Win32,85.47008547,,,,,,,,,,,,,,,,360.8771,362.1711,362.1711,363.2258,return,0.4844,,17.31770833,,,,,,FBP-PT-81.png,0.37,1.2,52,0.5,0,31,31,51,1,,,,,,,,,,,,,,,,,,,,,,,,,,,,,,,,,,,,,,,,
,,,,,WIN24_009,19,male,2024-01-26_15h50.43.203,jersey_experiment_5,2023.2.2,Win32,85.47008547,,,,,,,,,,,,,,,,363.226,364.5199,364.5199,365.6845,return,0.4317,,28.515625,,,,,,FBP-PT-71.png,0.4,1.2,48,0.5,0,32,32,47,1,,,,,,,,,,,,,,,,,,,,,,,,,,,,,,,,,,,,,,,,
,,,,,WIN24_009,19,male,2024-01-26_15h50.43.203,jersey_experiment_5,2023.2.2,Win32,85.47008547,,,,,,,,,,,,,,,,365.6846,367.4873,367.4873,368.6281,return,0.5044,,73.4375,,,,,,FBP-RB-91.png,0.43,1.2,29,1,0,33,33,28,1,,,,,,,,,,,,,,,,,,,,,,,,,,,,,,,,,,,,,,,,
,,,,,WIN24_009,19,male,2024-01-26_15h50.43.203,jersey_experiment_5,2023.2.2,Win32,85.47008547,,,,,,,,,,,,,,,,368.6283,369.9248,369.9248,372.7083,return,1.7609,,26.171875,,,,,,FBP-OG-18.png,0.37,1.2,7,0.5,0,34,34,6,1,,,,,,,,,,,,,,,,,,,,,,,,,,,,,,,,,,,,,,,,
,,,,,WIN24_009,19,male,2024-01-26_15h50.43.203,jersey_experiment_5,2023.2.2,Win32,85.47008547,,,,,,,,,,,,,,,,372.7085,374.0027,374.0027,377.0145,return,2.3712,,53.38541667,,,,,,FBP-OG-17.png,0.43,1.2,4,0.5,0,35,35,3,1,,,,,,,,,,,,,,,,,,,,,,,,,,,,,,,,,,,,,,,,
,,,,,WIN24_009,19,male,2024-01-26_15h50.43.203,jersey_experiment_5,2023.2.2,Win32,85.47008547,,,,,,,,,,,,,,,,377.0146,378.3087,378.3087,379.5087,return,0.4306,,27.47395833,,,,,,FBP-PT-81.png,0.35,1.2,51,0.5,0,36,36,50,1,,,,,,,,,,,,,,,,,,,,,,,,,,,,,,,,,,,,,,,,
,,,,,WIN24_009,19,male,2024-01-26_15h50.43.203,jersey_experiment_5,2023.2.2,Win32,85.47008547,,,,,,,,,,,,,,,,379.5088,380.8027,380.8027,383.0068,return,1.5663,,74.08854167,,,,,,FBP-OG-17.png,0.45,1.2,5,0.5,0,37,37,4,1,,,,,,,,,,,,,,,,,,,,,,,,,,,,,,,,,,,,,,,,
,,,,,WIN24_009,19,male,2024-01-26_15h50.43.203,jersey_experiment_5,2023.2.2,Win32,85.47008547,,,,,,,,,,,,,,,,383.007,384.8058,384.8058,386.0853,return,0.8652,,72.265625,,,,,,FBP-RB-71.png,0.43,1.2,19,1,0,38,38,18,1,,,,,,,,,,,,,,,,,,,,,,,,,,,,,,,,,,,,,,,,
,,,,,WIN24_009,19,male,2024-01-26_15h50.43.203,jersey_experiment_5,2023.2.2,Win32,85.47008547,,,,,,,,,,,,,,,,386.0855,387.3797,387.3797,388.7444,return,0.8145,,95.44270833,,,,,,FBP-PT-91.png,0.45,1.2,60,0.5,0,39,39,59,1,,,,,,,,,,,,,,,,,,,,,,,,,,,,,,,,,,,,,,,,
,,,,,WIN24_009,19,male,2024-01-26_15h50.43.203,jersey_experiment_5,2023.2.2,Win32,85.47008547,,,,,,,,,,,,,,,,388.7445,390.5385,390.5385,393.3131,return,1.6837,,58.46354167,,,,,,FBP-YG-17.png,0.37,1.2,32,1,0,40,40,31,1,,,,,,,,,,,,,,,,,,,,,,,,,,,,,,,,,,,,,,,,
,,,,,WIN24_009,19,male,2024-01-26_15h50.43.203,jersey_experiment_5,2023.2.2,Win32,85.47008547,,,,,,,,,,,,,,,,393.3134,394.6151,394.6152,395.5916,return,0.5337,,58.85416667,,,,,,FBP-OG-18.png,0.4,1.2,8,0.5,0,41,41,7,1,,,,,,,,,,,,,,,,,,,,,,,,,,,,,,,,,,,,,,,,
,,,,,WIN24_009,19,male,2024-01-26_15h50.43.203,jersey_experiment_5,2023.2.2,Win32,85.47008547,,,,,,,,,,,,,,,,395.5917,396.8858,396.8859,398.3015,return,0.482,,20.83333333,,,,,,FBP-OG-17.png,0.35,1.2,1,0.5,0,42,42,0,1,,,,,,,,,,,,,,,,,,,,,,,,,,,,,,,,,,,,,,,,
,,,,,WIN24_009,19,male,2024-01-26_15h50.43.203,jersey_experiment_5,2023.2.2,Win32,85.47008547,,,,,,,,,,,,,,,,398.3016,399.6035,399.6035,400.6153,return,0.4511,,13.80208333,,,,,,FBP-PT-71.png,0.37,1.2,47,0.5,0,43,43,46,1,,,,,,,,,,,,,,,,,,,,,,,,,,,,,,,,,,,,,,,,
,,,,,WIN24_009,19,male,2024-01-26_15h50.43.203,jersey_experiment_5,2023.2.2,Win32,85.47008547,,,,,,,,,,,,,,,,400.6155,402.4074,402.4074,404.0677,return,1.0264,,4.557291667,,,,,,FBP-RB-91.png,0.35,1.2,26,1,0,44,44,25,1,,,,,,,,,,,,,,,,,,,,,,,,,,,,,,,,,,,,,,,,
,,,,,WIN24_009,19,male,2024-01-26_15h50.43.203,jersey_experiment_5,2023.2.2,Win32,85.47008547,,,,,,,,,,,,,,,,404.0678,405.8628,405.8628,410.8628,return,0.6741,,0.390625,,,,,,FBP-YG-17.png,0.35,1.2,31,1,0,45,45,30,1,,,,,,,,,,,,,,,,,,,,,,,,,,,,,,,,,,,,,,,,
,,,,,WIN24_009,19,male,2024-01-26_15h50.43.203,jersey_experiment_5,2023.2.2,Win32,85.47008547,,,,,,,,,,,,,,,,410.863,412.157,412.157,414.2041,return,0.6378,,75.91145833,,,,,,FBP-PT-71.png,0.45,1.2,50,0.5,0,46,46,49,1,,,,,,,,,,,,,,,,,,,,,,,,,,,,,,,,,,,,,,,,
,,,,,WIN24_009,19,male,2024-01-26_15h50.43.203,jersey_experiment_5,2023.2.2,Win32,85.47008547,,,,,,,,,,,,,,,,414.2042,416.0041,416.0041,416.9729,return,0.505,,2.994791667,,,,,,FBP-YG-18.png,0.35,1.2,36,1,0,47,47,35,1,,,,,,,,,,,,,,,,,,,,,,,,,,,,,,,,,,,,,,,,
,,,,,WIN24_009,19,male,2024-01-26_15h50.43.203,jersey_experiment_5,2023.2.2,Win32,85.47008547,,,,,,,,,,,,,,,,416.9731,418.2786,418.2786,420.169,return,1.32,,2.083333333,,,,,,FBP-PT-91.png,0.37,1.2,57,0.5,0,48,48,56,1,,,,,,,,,,,,,,,,,,,,,,,,,,,,,,,,,,,,,,,,
,,,,,WIN24_009,19,male,2024-01-26_15h50.43.203,jersey_experiment_5,2023.2.2,Win32,85.47008547,,,,,,,,,,,,,,,,420.1693,421.969,421.969,423.2439,return,0.6358,,81.77083333,,,,,,FBP-YG-18.png,0.45,1.2,40,1,0,49,49,39,1,,,,,,,,,,,,,,,,,,,,,,,,,,,,,,,,,,,,,,,,
,,,,,WIN24_009,19,male,2024-01-26_15h50.43.203,jersey_experiment_5,2023.2.2,Win32,85.47008547,,,,,,,,,,,,,,,,423.244,424.5457,424.5457,425.6751,return,0.6137,,84.24479167,,,,,,FBP-PT-71.png,0.43,1.2,49,0.5,0,50,50,48,1,,,,,,,,,,,,,,,,,,,,,,,,,,,,,,,,,,,,,,,,
,,,,,WIN24_009,19,male,2024-01-26_15h50.43.203,jersey_experiment_5,2023.2.2,Win32,85.47008547,,,,,,,,,,,,,,,,425.6752,427.4701,427.4701,428.581,return,0.7235,,80.98958333,,,,,,FBP-RB-91.png,0.4,1.2,28,1,0,51,51,27,1,,,,,,,,,,,,,,,,,,,,,,,,,,,,,,,,,,,,,,,,
,,,,,WIN24_009,19,male,2024-01-26_15h50.43.203,jersey_experiment_5,2023.2.2,Win32,85.47008547,,,,,,,,,,,,,,,,428.5812,430.3741,430.3741,432.2662,return,0.9047,,38.15104167,,,,,,FBP-RB-71.png,0.37,1.2,17,1,0,52,52,16,1,,,,,,,,,,,,,,,,,,,,,,,,,,,,,,,,,,,,,,,,
,,,,,WIN24_009,19,male,2024-01-26_15h50.43.203,jersey_experiment_5,2023.2.2,Win32,85.47008547,,,,,,,,,,,,,,,,432.2664,433.5577,433.5577,434.5501,return,0.5191,,16.796875,,,,,,FBP-PT-71.png,0.35,1.2,46,0.5,0,53,53,45,1,,,,,,,,,,,,,,,,,,,,,,,,,,,,,,,,,,,,,,,,
,,,,,WIN24_009,19,male,2024-01-26_15h50.43.203,jersey_experiment_5,2023.2.2,Win32,85.47008547,,,,,,,,,,,,,,,,434.5502,436.35,436.35,437.1622,return,0.3889,,16.796875,,,,,,FBP-YG-18.png,0.37,1.2,37,1,0,54,54,36,1,,,,,,,,,,,,,,,,,,,,,,,,,,,,,,,,,,,,,,,,
,,,,,WIN24_009,19,male,2024-01-26_15h50.43.203,jersey_experiment_5,2023.2.2,Win32,85.47008547,,,,,,,,,,,,,,,,437.1623,438.9581,438.9581,440.0873,return,0.473,,69.921875,,,,,,FBP-RB-81.png,0.45,1.2,25,1,0,55,55,24,1,,,,,,,,,,,,,,,,,,,,,,,,,,,,,,,,,,,,,,,,
,,,,,WIN24_009,19,male,2024-01-26_15h50.43.203,jersey_experiment_5,2023.2.2,Win32,85.47008547,,,,,,,,,,,,,,,,440.0874,441.3874,441.3874,442.9816,return,0.935,,25.390625,,,,,,FBP-OG-18.png,0.35,1.2,6,0.5,0,56,56,5,1,,,,,,,,,,,,,,,,,,,,,,,,,,,,,,,,,,,,,,,,
,,,,,WIN24_009,19,male,2024-01-26_15h50.43.203,jersey_experiment_5,2023.2.2,Win32,85.47008547,,,,,,,,,,,,,,,,442.9819,444.7816,444.7816,445.9977,return,0.8591,,19.53125,,,,,,FBP-YG-19.png,0.37,1.2,42,1,0,57,57,41,1,,,,,,,,,,,,,,,,,,,,,,,,,,,,,,,,,,,,,,,,
,,,,,WIN24_009,19,male,2024-01-26_15h50.43.203,jersey_experiment_5,2023.2.2,Win32,85.47008547,,,,,,,,,,,,,,,,445.9978,447.3033,447.3033,448.7743,return,0.7998,,51.5625,,,,,,FBP-OG-17.png,0.4,1.2,3,0.5,0,58,58,2,1,,,,,,,,,,,,,,,,,,,,,,,,,,,,,,,,,,,,,,,,
,,,,,WIN24_009,19,male,2024-01-26_15h50.43.203,jersey_experiment_5,2023.2.2,Win32,85.47008547,,,,,,,,,,,,,,,,448.7744,450.076,450.0761,451.3135,return,0.8689,,51.5625,,,,,,FBP-PT-81.png,0.4,1.2,53,0.5,0,59,59,52,1,,,,,,,,,,,,,,,,,,,,,,,,,,,,,,,,,,,,,,,,
,,,,,WIN24_009,19,male,2024-01-26_15h50.43.203,jersey_experiment_5,2023.2.2,Win32,85.47008547,,,,,,,,,,,,,,,,,,,,,,,,,,,,,,,,,,,,,,,451.3138,571.316,,,,,,,,,,,,,,,,,,,,,,,,,,,,,,,,,,,,,,
,,,,,WIN24_009,19,male,2024-01-26_15h50.43.203,jersey_experiment_5,2023.2.2,Win32,85.47008547,,,,,,,,,,,,,,,,,,,,,,,,,,,,,,,,,,,,,,,,,571.3161,626.5063,return,55.1686,,,,,,,,,,,,,,,,,,,,,,,,,,,,,,,,,,
,,,,,WIN24_009,19,male,2024-01-26_15h50.43.203,jersey_experiment_5,2023.2.2,Win32,85.47008547,,,,,,,,,,,,,,,,626.5124,627.8119,627.8119,630.2709,return,0.681,,51.30208333,,,,,,FBP-RB-19.png,0.4,1.2,28,0.5,,,,,,,,,,,,,0,0,0,27,1,,,,,,,,,,,,,,,,,,,,,,,,,,,,
,,,,,WIN24_009,19,male,2024-01-26_15h50.43.203,jersey_experiment_5,2023.2.2,Win32,85.47008547,,,,,,,,,,,,,,,,630.2711,632.064,632.064,633.271,return,0.6519,,28.77604167,,,,,,FBP-PT-19.png,0.37,1.2,57,1,,,,,,,,,,,,,0,1,1,56,1,,,,,,,,,,,,,,,,,,,,,,,,,,,,
,,,,,WIN24_009,19,male,2024-01-26_15h50.43.203,jersey_experiment_5,2023.2.2,Win32,85.47008547,,,,,,,,,,,,,,,,633.2711,634.565,634.5651,635.1106,return,0.208,,30.859375,,,,,,FBP-RB-17.png,0.37,1.2,17,0.5,,,,,,,,,,,,,0,2,2,16,1,,,,,,,,,,,,,,,,,,,,,,,,,,,,
,,,,,WIN24_009,19,male,2024-01-26_15h50.43.203,jersey_experiment_5,2023.2.2,Win32,85.47008547,,,,,,,,,,,,,,,,635.1109,636.911,636.911,637.9106,return,0.1079,,63.93229167,,,,,,FBP-PT-18.png,0.43,1.2,54,1,,,,,,,,,,,,,0,3,3,53,1,,,,,,,,,,,,,,,,,,,,,,,,,,,,
,,,,,WIN24_009,19,male,2024-01-26_15h50.43.203,jersey_experiment_5,2023.2.2,Win32,85.47008547,,,,,,,,,,,,,,,,637.9108,639.7111,639.7111,640.2389,return,0.1989,,90.49479167,,,,,,FBP-PT-18.png,0.45,1.2,55,1,,,,,,,,,,,,,0,4,4,54,1,,,,,,,,,,,,,,,,,,,,,,,,,,,,
,,,,,WIN24_009,19,male,2024-01-26_15h50.43.203,jersey_experiment_5,2023.2.2,Win32,85.47008547,,,,,,,,,,,,,,,,640.239,642.0359,642.0359,643.0507,return,0.2209,,46.875,,,,,,FBP-PT-18.png,0.37,1.2,52,1,,,,,,,,,,,,,0,5,5,51,1,,,,,,,,,,,,,,,,,,,,,,,,,,,,
,,,,,WIN24_009,19,male,2024-01-26_15h50.43.203,jersey_experiment_5,2023.2.2,Win32,85.47008547,,,,,,,,,,,,,,,,643.0508,644.346,644.346,645.0871,return,0.2124,,27.21354167,,,,,,FBP-RB-18.png,0.35,1.2,21,0.5,,,,,,,,,,,,,0,6,6,20,1,,,,,,,,,,,,,,,,,,,,,,,,,,,,
,,,,,WIN24_009,19,male,2024-01-26_15h50.43.203,jersey_experiment_5,2023.2.2,Win32,85.47008547,,,,,,,,,,,,,,,,645.0873,646.8831,646.8831,647.4638,return,0.1193,,9.505208333,,,,,,FBP-PT-19.png,0.35,1.2,56,1,,,,,,,,,,,,,0,7,7,55,1,,,,,,,,,,,,,,,,,,,,,,,,,,,,
,,,,,WIN24_009,19,male,2024-01-26_15h50.43.203,jersey_experiment_5,2023.2.2,Win32,85.47008547,,,,,,,,,,,,,,,,647.4639,648.7689,648.7689,649.9922,return,0.5165,,92.83854167,,,,,,FBP-YG-91.png,0.45,1.2,45,0.5,,,,,,,,,,,,,0,8,8,44,1,,,,,,,,,,,,,,,,,,,,,,,,,,,,
,,,,,WIN24_009,19,male,2024-01-26_15h50.43.203,jersey_experiment_5,2023.2.2,Win32,85.47008547,,,,,,,,,,,,,,,,649.9923,651.2989,651.2989,652.8743,return,0.3992,,27.08333333,,,,,,FBP-YG-71.png,0.35,1.2,31,0.5,,,,,,,,,,,,,0,9,9,30,1,,,,,,,,,,,,,,,,,,,,,,,,,,,,
,,,,,WIN24_009,19,male,2024-01-26_15h50.43.203,jersey_experiment_5,2023.2.2,Win32,85.47008547,,,,,,,,,,,,,,,,652.8746,654.6754,654.6754,655.498,return,0.4473,,59.24479167,,,,,,FBP-OG-71.png,0.43,1.2,4,1,,,,,,,,,,,,,0,10,10,3,1,,,,,,,,,,,,,,,,,,,,,,,,,,,,
,,,,,WIN24_009,19,male,2024-01-26_15h50.43.203,jersey_experiment_5,2023.2.2,Win32,85.47008547,,,,,,,,,,,,,,,,655.4982,656.7958,656.7958,657.6866,return,0.3052,,71.74479167,,,,,,FBP-YG-71.png,0.43,1.2,34,0.5,,,,,,,,,,,,,0,11,11,33,1,,,,,,,,,,,,,,,,,,,,,,,,,,,,
,,,,,WIN24_009,19,male,2024-01-26_15h50.43.203,jersey_experiment_5,2023.2.2,Win32,85.47008547,,,,,,,,,,,,,,,,657.6867,659.4862,659.4862,660.6131,return,0.6528,,64.71354167,,,,,,FBP-OG-81.png,0.4,1.2,8,1,,,,,,,,,,,,,0,12,12,7,1,,,,,,,,,,,,,,,,,,,,,,,,,,,,
,,,,,WIN24_009,19,male,2024-01-26_15h50.43.203,jersey_experiment_5,2023.2.2,Win32,85.47008547,,,,,,,,,,,,,,,,660.6133,661.9072,661.9072,662.4632,return,0.1286,,61.58854167,,,,,,FBP-YG-71.png,0.4,1.2,33,0.5,,,,,,,,,,,,,0,13,13,32,1,,,,,,,,,,,,,,,,,,,,,,,,,,,,
,,,,,WIN24_009,19,male,2024-01-26_15h50.43.203,jersey_experiment_5,2023.2.2,Win32,85.47008547,,,,,,,,,,,,,,,,662.4634,664.2641,664.2641,665.7104,return,0.917,,73.30729167,,,,,,FBP-OG-91.png,0.4,1.2,13,1,,,,,,,,,,,,,0,14,14,12,1,,,,,,,,,,,,,,,,,,,,,,,,,,,,
,,,,,WIN24_009,19,male,2024-01-26_15h50.43.203,jersey_experiment_5,2023.2.2,Win32,85.47008547,,,,,,,,,,,,,,,,665.7106,667.5103,667.5103,668.8295,return,0.1547,,28.38541667,,,,,,FBP-PT-17.png,0.37,1.2,47,1,,,,,,,,,,,,,0,15,15,46,1,,,,,,,,,,,,,,,,,,,,,,,,,,,,
,,,,,WIN24_009,19,male,2024-01-26_15h50.43.203,jersey_experiment_5,2023.2.2,Win32,85.47008547,,,,,,,,,,,,,,,,668.8296,670.133,670.133,672.241,return,1.5296,,29.81770833,,,,,,FBP-RB-19.png,0.37,1.2,27,0.5,,,,,,,,,,,,,0,16,16,26,1,,,,,,,,,,,,,,,,,,,,,,,,,,,,
,,,,,WIN24_009,19,male,2024-01-26_15h50.43.203,jersey_experiment_5,2023.2.2,Win32,85.47008547,,,,,,,,,,,,,,,,672.2411,673.5471,673.5472,675.4189,return,0.2363,,48.046875,,,,,,FBP-RB-18.png,0.37,1.2,22,0.5,,,,,,,,,,,,,0,17,17,21,1,,,,,,,,,,,,,,,,,,,,,,,,,,,,
,,,,,WIN24_009,19,male,2024-01-26_15h50.43.203,jersey_experiment_5,2023.2.2,Win32,85.47008547,,,,,,,,,,,,,,,,675.4191,676.7118,676.7119,677.3826,return,0.2121,,64.32291667,,,,,,FBP-RB-18.png,0.43,1.2,24,0.5,,,,,,,,,,,,,0,18,18,23,1,,,,,,,,,,,,,,,,,,,,,,,,,,,,
,,,,,WIN24_009,19,male,2024-01-26_15h50.43.203,jersey_experiment_5,2023.2.2,Win32,85.47008547,,,,,,,,,,,,,,,,677.3828,679.1784,679.1784,681.0608,return,1.3356,,12.36979167,,,,,,FBP-OG-81.png,0.35,1.2,6,1,,,,,,,,,,,,,0,19,19,5,1,,,,,,,,,,,,,,,,,,,,,,,,,,,,
,,,,,WIN24_009,19,male,2024-01-26_15h50.43.203,jersey_experiment_5,2023.2.2,Win32,85.47008547,,,,,,,,,,,,,,,,681.0611,682.8637,682.8638,687.1006,return,1.4356,,63.41145833,,,,,,FBP-PT-18.png,0.4,1.2,53,1,,,,,,,,,,,,,0,20,20,52,1,,,,,,,,,,,,,,,,,,,,,,,,,,,,
,,,,,WIN24_009,19,male,2024-01-26_15h50.43.203,jersey_experiment_5,2023.2.2,Win32,85.47008547,,,,,,,,,,,,,,,,687.1008,688.4057,688.4057,690.3375,return,1.296,,88.80208333,,,,,,FBP-RB-17.png,0.43,1.2,19,0.5,,,,,,,,,,,,,0,21,21,18,1,,,,,,,,,,,,,,,,,,,,,,,,,,,,
,,,,,WIN24_009,19,male,2024-01-26_15h50.43.203,jersey_experiment_5,2023.2.2,Win32,85.47008547,,,,,,,,,,,,,,,,690.3377,692.1368,692.1368,692.6872,return,0.2578,,88.93229167,,,,,,FBP-OG-91.png,0.43,1.2,14,1,,,,,,,,,,,,,0,22,22,13,1,,,,,,,,,,,,,,,,,,,,,,,,,,,,
,,,,,WIN24_009,19,male,2024-01-26_15h50.43.203,jersey_experiment_5,2023.2.2,Win32,85.47008547,,,,,,,,,,,,,,,,692.6874,693.983,693.983,695.1347,return,0.1988,,66.40625,,,,,,FBP-YG-81.png,0.37,1.2,37,0.5,,,,,,,,,,,,,0,23,23,36,1,,,,,,,,,,,,,,,,,,,,,,,,,,,,
,,,,,WIN24_009,19,male,2024-01-26_15h50.43.203,jersey_experiment_5,2023.2.2,Win32,85.47008547,,,,,,,,,,,,,,,,695.1348,696.4262,696.4262,698.09,return,0.7542,,100,,,,,,FBP-RB-17.png,0.45,1.2,20,0.5,,,,,,,,,,,,,0,24,24,19,1,,,,,,,,,,,,,,,,,,,,,,,,,,,,
,,,,,WIN24_009,19,male,2024-01-26_15h50.43.203,jersey_experiment_5,2023.2.2,Win32,85.47008547,,,,,,,,,,,,,,,,698.0902,699.8877,699.8877,700.4876,return,0.1986,,5.598958333,,,,,,FBP-PT-18.png,0.35,1.2,51,1,,,,,,,,,,,,,0,25,25,50,1,,,,,,,,,,,,,,,,,,,,,,,,,,,,
,,,,,WIN24_009,19,male,2024-01-26_15h50.43.203,jersey_experiment_5,2023.2.2,Win32,85.47008547,,,,,,,,,,,,,,,,700.4878,702.2893,702.2893,703.0969,return,0.061,,70.3125,,,,,,FBP-PT-19.png,0.43,1.2,59,1,,,,,,,,,,,,,0,26,26,58,1,,,,,,,,,,,,,,,,,,,,,,,,,,,,
,,,,,WIN24_009,19,male,2024-01-26_15h50.43.203,jersey_experiment_5,2023.2.2,Win32,85.47008547,,,,,,,,,,,,,,,,703.0972,704.3951,704.3951,706.1937,return,0.2219,,61.06770833,,,,,,FBP-YG-91.png,0.37,1.2,42,0.5,,,,,,,,,,,,,0,27,27,41,1,,,,,,,,,,,,,,,,,,,,,,,,,,,,
,,,,,WIN24_009,19,male,2024-01-26_15h50.43.203,jersey_experiment_5,2023.2.2,Win32,85.47008547,,,,,,,,,,,,,,,,706.1939,707.9854,707.9854,708.4737,return,0.1559,,34.24479167,,,,,,FBP-PT-17.png,0.35,1.2,46,1,,,,,,,,,,,,,0,28,28,45,1,,,,,,,,,,,,,,,,,,,,,,,,,,,,
,,,,,WIN24_009,19,male,2024-01-26_15h50.43.203,jersey_experiment_5,2023.2.2,Win32,85.47008547,,,,,,,,,,,,,,,,708.4739,709.7678,709.7679,711.2555,return,0.2015,,79.16666667,,,,,,FBP-RB-18.png,0.45,1.2,25,0.5,,,,,,,,,,,,,0,29,29,24,1,,,,,,,,,,,,,,,,,,,,,,,,,,,,
,,,,,WIN24_009,19,male,2024-01-26_15h50.43.203,jersey_experiment_5,2023.2.2,Win32,85.47008547,,,,,,,,,,,,,,,,711.2557,713.0504,713.0504,713.9941,return,0.2006,,32.55208333,,,,,,FBP-OG-71.png,0.37,1.2,2,1,,,,,,,,,,,,,0,30,30,1,1,,,,,,,,,,,,,,,,,,,,,,,,,,,,
,,,,,WIN24_009,19,male,2024-01-26_15h50.43.203,jersey_experiment_5,2023.2.2,Win32,85.47008547,,,,,,,,,,,,,,,,713.9943,715.7956,715.7957,716.3587,return,0.234,,11.06770833,,,,,,FBP-OG-91.png,0.35,1.2,11,1,,,,,,,,,,,,,0,31,31,10,1,,,,,,,,,,,,,,,,,,,,,,,,,,,,
,,,,,WIN24_009,19,male,2024-01-26_15h50.43.203,jersey_experiment_5,2023.2.2,Win32,85.47008547,,,,,,,,,,,,,,,,716.3589,717.6526,717.6526,718.1828,return,0.1637,,11.06770833,,,,,,FBP-RB-19.png,0.35,1.2,26,0.5,,,,,,,,,,,,,0,32,32,25,1,,,,,,,,,,,,,,,,,,,,,,,,,,,,
,,,,,WIN24_009,19,male,2024-01-26_15h50.43.203,jersey_experiment_5,2023.2.2,Win32,85.47008547,,,,,,,,,,,,,,,,718.183,719.4878,719.4878,721.5135,return,0.3428,,14.32291667,,,,,,FBP-YG-91.png,0.35,1.2,41,0.5,,,,,,,,,,,,,0,33,33,40,1,,,,,,,,,,,,,,,,,,,,,,,,,,,,
,,,,,WIN24_009,19,male,2024-01-26_15h50.43.203,jersey_experiment_5,2023.2.2,Win32,85.47008547,,,,,,,,,,,,,,,,721.5136,723.3124,723.3124,725.3042,return,0.3561,,91.14583333,,,,,,FBP-OG-71.png,0.45,1.2,5,1,,,,,,,,,,,,,0,34,34,4,1,,,,,,,,,,,,,,,,,,,,,,,,,,,,
,,,,,WIN24_009,19,male,2024-01-26_15h50.43.203,jersey_experiment_5,2023.2.2,Win32,85.47008547,,,,,,,,,,,,,,,,725.3042,726.6058,726.6058,728.3119,return,0.3512,,85.28645833,,,,,,FBP-RB-19.png,0.45,1.2,30,0.5,,,,,,,,,,,,,0,35,35,29,1,,,,,,,,,,,,,,,,,,,,,,,,,,,,
,,,,,WIN24_009,19,male,2024-01-26_15h50.43.203,jersey_experiment_5,2023.2.2,Win32,85.47008547,,,,,,,,,,,,,,,,728.3121,730.1038,730.1038,731.2905,return,0.2355,,69.79166667,,,,,,FBP-PT-17.png,0.4,1.2,48,1,,,,,,,,,,,,,0,36,36,47,1,,,,,,,,,,,,,,,,,,,,,,,,,,,,
,,,,,WIN24_009,19,male,2024-01-26_15h50.43.203,jersey_experiment_5,2023.2.2,Win32,85.47008547,,,,,,,,,,,,,,,,731.2906,733.0863,733.0864,734.4782,return,0.1289,,51.953125,,,,,,FBP-OG-91.png,0.37,1.2,12,1,,,,,,,,,,,,,0,37,37,11,1,,,,,,,,,,,,,,,,,,,,,,,,,,,,
,,,,,WIN24_009,19,male,2024-01-26_15h50.43.203,jersey_experiment_5,2023.2.2,Win32,85.47008547,,,,,,,,,,,,,,,,734.4784,735.7735,735.7735,736.42,return,0.1168,,33.85416667,,,,,,FBP-YG-81.png,0.35,1.2,36,0.5,,,,,,,,,,,,,0,38,38,35,1,,,,,,,,,,,,,,,,,,,,,,,,,,,,
,,,,,WIN24_009,19,male,2024-01-26_15h50.43.203,jersey_experiment_5,2023.2.2,Win32,85.47008547,,,,,,,,,,,,,,,,736.4202,737.724,737.724,738.7728,return,0.3532,,75,,,,,,FBP-RB-19.png,0.43,1.2,29,0.5,,,,,,,,,,,,,0,39,39,28,1,,,,,,,,,,,,,,,,,,,,,,,,,,,,
,,,,,WIN24_009,19,male,2024-01-26_15h50.43.203,jersey_experiment_5,2023.2.2,Win32,85.47008547,,,,,,,,,,,,,,,,738.7729,740.0662,740.0662,741.5244,return,0.6205,,90.49479167,,,,,,FBP-YG-71.png,0.45,1.2,35,0.5,,,,,,,,,,,,,0,40,40,34,1,,,,,,,,,,,,,,,,,,,,,,,,,,,,
,,,,,WIN24_009,19,male,2024-01-26_15h50.43.203,jersey_experiment_5,2023.2.2,Win32,85.47008547,,,,,,,,,,,,,,,,741.5247,742.8208,742.8208,745.3043,return,1.3804,,53.64583333,,,,,,FBP-RB-17.png,0.35,1.2,16,0.5,,,,,,,,,,,,,0,41,41,15,1,,,,,,,,,,,,,,,,,,,,,,,,,,,,
,,,,,WIN24_009,19,male,2024-01-26_15h50.43.203,jersey_experiment_5,2023.2.2,Win32,85.47008547,,,,,,,,,,,,,,,,745.3044,747.1027,747.1027,748.0046,return,0.0659,,90.10416667,,,,,,FBP-OG-81.png,0.45,1.2,10,1,,,,,,,,,,,,,0,42,42,9,1,,,,,,,,,,,,,,,,,,,,,,,,,,,,
,,,,,WIN24_009,19,male,2024-01-26_15h50.43.203,jersey_experiment_5,2023.2.2,Win32,85.47008547,,,,,,,,,,,,,,,,748.0047,749.2988,749.2988,752.5271,return,2.1199,,32.8125,,,,,,FBP-YG-71.png,0.37,1.2,32,0.5,,,,,,,,,,,,,0,43,43,31,1,,,,,,,,,,,,,,,,,,,,,,,,,,,,
,,,,,WIN24_009,19,male,2024-01-26_15h50.43.203,jersey_experiment_5,2023.2.2,Win32,85.47008547,,,,,,,,,,,,,,,,752.5273,753.8322,753.8323,755.4519,return,0.0584,,47.00520833,,,,,,FBP-YG-81.png,0.4,1.2,38,0.5,,,,,,,,,,,,,0,44,44,37,1,,,,,,,,,,,,,,,,,,,,,,,,,,,,
,,,,,WIN24_009,19,male,2024-01-26_15h50.43.203,jersey_experiment_5,2023.2.2,Win32,85.47008547,,,,,,,,,,,,,,,,755.452,756.7502,756.7502,757.4049,return,0.214,,66.14583333,,,,,,FBP-YG-81.png,0.43,1.2,39,0.5,,,,,,,,,,,,,0,45,45,38,1,,,,,,,,,,,,,,,,,,,,,,,,,,,,
,,,,,WIN24_009,19,male,2024-01-26_15h50.43.203,jersey_experiment_5,2023.2.2,Win32,85.47008547,,,,,,,,,,,,,,,,757.4051,759.2094,759.2094,759.6519,return,0.0999,,15.234375,,,,,,FBP-OG-71.png,0.35,1.2,1,1,,,,,,,,,,,,,0,46,46,0,1,,,,,,,,,,,,,,,,,,,,,,,,,,,,
,,,,,WIN24_009,19,male,2024-01-26_15h50.43.203,jersey_experiment_5,2023.2.2,Win32,85.47008547,,,,,,,,,,,,,,,,759.6523,760.9464,760.9464,761.6208,return,0.047,,48.828125,,,,,,FBP-YG-91.png,0.4,1.2,43,0.5,,,,,,,,,,,,,0,47,47,42,1,,,,,,,,,,,,,,,,,,,,,,,,,,,,
,,,,,WIN24_009,19,male,2024-01-26_15h50.43.203,jersey_experiment_5,2023.2.2,Win32,85.47008547,,,,,,,,,,,,,,,,761.6209,763.4196,763.4196,763.911,return,0.0617,,43.88020833,,,,,,FBP-OG-71.png,0.4,1.2,3,1,,,,,,,,,,,,,0,48,48,2,1,,,,,,,,,,,,,,,,,,,,,,,,,,,,
,,,,,WIN24_009,19,male,2024-01-26_15h50.43.203,jersey_experiment_5,2023.2.2,Win32,85.47008547,,,,,,,,,,,,,,,,763.9113,765.7052,765.7053,766.114,return,0.0714,,41.015625,,,,,,FBP-PT-19.png,0.4,1.2,58,1,,,,,,,,,,,,,0,49,49,57,1,,,,,,,,,,,,,,,,,,,,,,,,,,,,
,,,,,WIN24_009,19,male,2024-01-26_15h50.43.203,jersey_experiment_5,2023.2.2,Win32,85.47008547,,,,,,,,,,,,,,,,766.1143,767.9111,767.9111,768.3974,return,0.1882,,66.796875,,,,,,FBP-OG-91.png,0.45,1.2,15,1,,,,,,,,,,,,,0,50,50,14,1,,,,,,,,,,,,,,,,,,,,,,,,,,,,
,,,,,WIN24_009,19,male,2024-01-26_15h50.43.203,jersey_experiment_5,2023.2.2,Win32,85.47008547,,,,,,,,,,,,,,,,768.3975,770.1936,770.1936,771.0339,return,0.0732,,88.93229167,,,,,,FBP-PT-17.png,0.45,1.2,50,1,,,,,,,,,,,,,0,51,51,49,1,,,,,,,,,,,,,,,,,,,,,,,,,,,,
,,,,,WIN24_009,19,male,2024-01-26_15h50.43.203,jersey_experiment_5,2023.2.2,Win32,85.47008547,,,,,,,,,,,,,,,,771.034,772.829,772.829,773.3741,return,0.2001,,84.765625,,,,,,FBP-OG-81.png,0.43,1.2,9,1,,,,,,,,,,,,,0,52,52,8,1,,,,,,,,,,,,,,,,,,,,,,,,,,,,
,,,,,WIN24_009,19,male,2024-01-26_15h50.43.203,jersey_experiment_5,2023.2.2,Win32,85.47008547,,,,,,,,,,,,,,,,773.3742,774.6782,774.6782,775.9743,return,0.1868,,94.53125,,,,,,FBP-YG-91.png,0.43,1.2,44,0.5,,,,,,,,,,,,,0,53,53,43,1,,,,,,,,,,,,,,,,,,,,,,,,,,,,
,,,,,WIN24_009,19,male,2024-01-26_15h50.43.203,jersey_experiment_5,2023.2.2,Win32,85.47008547,,,,,,,,,,,,,,,,775.9745,777.2788,777.2788,778.5516,return,0.4718,,96.875,,,,,,FBP-YG-81.png,0.45,1.2,40,0.5,,,,,,,,,,,,,0,54,54,39,1,,,,,,,,,,,,,,,,,,,,,,,,,,,,
,,,,,WIN24_009,19,male,2024-01-26_15h50.43.203,jersey_experiment_5,2023.2.2,Win32,85.47008547,,,,,,,,,,,,,,,,778.5518,780.347,780.347,780.9507,return,0.0942,,100,,,,,,FBP-PT-19.png,0.45,1.2,60,1,,,,,,,,,,,,,0,55,55,59,1,,,,,,,,,,,,,,,,,,,,,,,,,,,,
,,,,,WIN24_009,19,male,2024-01-26_15h50.43.203,jersey_experiment_5,2023.2.2,Win32,85.47008547,,,,,,,,,,,,,,,,780.9509,782.2434,782.2434,783.3733,return,0.1534,,73.046875,,,,,,FBP-RB-18.png,0.4,1.2,23,0.5,,,,,,,,,,,,,0,56,56,22,1,,,,,,,,,,,,,,,,,,,,,,,,,,,,
,,,,,WIN24_009,19,male,2024-01-26_15h50.43.203,jersey_experiment_5,2023.2.2,Win32,85.47008547,,,,,,,,,,,,,,,,783.3735,784.6789,784.6789,785.9745,return,0.6838,,54.6875,,,,,,FBP-RB-17.png,0.4,1.2,18,0.5,,,,,,,,,,,,,0,57,57,17,1,,,,,,,,,,,,,,,,,,,,,,,,,,,,
,,,,,WIN24_009,19,male,2024-01-26_15h50.43.203,jersey_experiment_5,2023.2.2,Win32,85.47008547,,,,,,,,,,,,,,,,785.9746,787.7707,787.7707,790.058,return,1.8718,,60.67708333,,,,,,FBP-PT-17.png,0.43,1.2,49,1,,,,,,,,,,,,,0,58,58,48,1,,,,,,,,,,,,,,,,,,,,,,,,,,,,
,,,,,WIN24_009,19,male,2024-01-26_15h50.43.203,jersey_experiment_5,2023.2.2,Win32,85.47008547,,,,,,,,,,,,,,,,790.0582,791.8531,791.8531,792.4575,return,0.2237,,30.72916667,,,,,,FBP-OG-81.png,0.37,1.2,7,1,,,,,,,,,,,,,0,59,59,6,1,,,,,,,,,,,,,,,,,,,,,,,,,,,,
,,,,,WIN24_009,19,male,2024-01-26_15h50.43.203,jersey_experiment_5,2023.2.2,Win32,85.47008547,,,,,,,,,,,,,,,,792.4594,793.7616,793.7616,795.0678,return,0.1887,,45.3125,,,,,,FBP-RB-81.png,0.4,1.2,23,0.5,,,,,,,,,,,,,,,,,,0,0,0,22,1,,,,,,,,,,,,,,,,,,,,,,,
,,,,,WIN24_009,19,male,2024-01-26_15h50.43.203,jersey_experiment_5,2023.2.2,Win32,85.47008547,,,,,,,,,,,,,,,,795.068,796.8689,796.8689,797.868,return,0.5761,,14.19270833,,,,,,FBP-OG-19.png,0.35,1.2,11,1,,,,,,,,,,,,,,,,,,0,1,1,10,1,,,,,,,,,,,,,,,,,,,,,,,
,,,,,WIN24_009,19,male,2024-01-26_15h50.43.203,jersey_experiment_5,2023.2.2,Win32,85.47008547,,,,,,,,,,,,,,,,797.8682,799.1711,799.1711,801.375,return,0.6471,,85.80729167,,,,,,FBP-RB-91.png,0.45,1.2,30,0.5,,,,,,,,,,,,,,,,,,0,2,2,29,1,,,,,,,,,,,,,,,,,,,,,,,
,,,,,WIN24_009,19,male,2024-01-26_15h50.43.203,jersey_experiment_5,2023.2.2,Win32,85.47008547,,,,,,,,,,,,,,,,801.3751,803.1736,803.1736,803.8944,return,0.1795,,83.85416667,,,,,,FBP-OG-19.png,0.43,1.2,14,1,,,,,,,,,,,,,,,,,,0,3,3,13,1,,,,,,,,,,,,,,,,,,,,,,,
,,,,,WIN24_009,19,male,2024-01-26_15h50.43.203,jersey_experiment_5,2023.2.2,Win32,85.47008547,,,,,,,,,,,,,,,,803.8945,805.1975,805.1975,806.0591,return,0.121,,91.66666667,,,,,,FBP-YG-18.png,0.43,1.2,39,0.5,,,,,,,,,,,,,,,,,,0,4,4,38,1,,,,,,,,,,,,,,,,,,,,,,,
,,,,,WIN24_009,19,male,2024-01-26_15h50.43.203,jersey_experiment_5,2023.2.2,Win32,85.47008547,,,,,,,,,,,,,,,,806.0593,807.3643,807.3643,808.2697,return,0.1665,,30.859375,,,,,,FBP-YG-18.png,0.35,1.2,36,0.5,,,,,,,,,,,,,,,,,,0,5,5,35,1,,,,,,,,,,,,,,,,,,,,,,,
,,,,,WIN24_009,19,male,2024-01-26_15h50.43.203,jersey_experiment_5,2023.2.2,Win32,85.47008547,,,,,,,,,,,,,,,,808.2699,809.5662,809.5662,810.2186,return,0.0847,,11.45833333,,,,,,FBP-YG-19.png,0.35,1.2,41,0.5,,,,,,,,,,,,,,,,,,0,6,6,40,1,,,,,,,,,,,,,,,,,,,,,,,
,,,,,WIN24_009,19,male,2024-01-26_15h50.43.203,jersey_experiment_5,2023.2.2,Win32,85.47008547,,,,,,,,,,,,,,,,810.2188,812.0152,812.0152,812.7951,return,0.0961,,75.91145833,,,,,,FBP-PT-81.png,0.45,1.2,55,1,,,,,,,,,,,,,,,,,,0,7,7,54,1,,,,,,,,,,,,,,,,,,,,,,,
,,,,,WIN24_009,19,male,2024-01-26_15h50.43.203,jersey_experiment_5,2023.2.2,Win32,85.47008547,,,,,,,,,,,,,,,,812.7953,814.5979,814.5979,815.0933,return,0.1533,,49.609375,,,,,,FBP-OG-18.png,0.4,1.2,8,1,,,,,,,,,,,,,,,,,,0,8,8,7,1,,,,,,,,,,,,,,,,,,,,,,,
,,,,,WIN24_009,19,male,2024-01-26_15h50.43.203,jersey_experiment_5,2023.2.2,Win32,85.47008547,,,,,,,,,,,,,,,,815.0934,816.3875,816.3875,817.16,return,0.1225,,39.97395833,,,,,,FBP-RB-91.png,0.4,1.2,28,0.5,,,,,,,,,,,,,,,,,,0,9,9,27,1,,,,,,,,,,,,,,,,,,,,,,,
,,,,,WIN24_009,19,male,2024-01-26_15h50.43.203,jersey_experiment_5,2023.2.2,Win32,85.47008547,,,,,,,,,,,,,,,,817.1603,818.9621,818.9621,819.4703,return,0.1434,,37.109375,,,,,,FBP-OG-19.png,0.4,1.2,13,1,,,,,,,,,,,,,,,,,,0,10,10,12,1,,,,,,,,,,,,,,,,,,,,,,,
,,,,,WIN24_009,19,male,2024-01-26_15h50.43.203,jersey_experiment_5,2023.2.2,Win32,85.47008547,,,,,,,,,,,,,,,,819.4705,820.7623,820.7623,821.9718,return,0.5487,,26.43229167,,,,,,FBP-RB-81.png,0.37,1.2,22,0.5,,,,,,,,,,,,,,,,,,0,11,11,21,1,,,,,,,,,,,,,,,,,,,,,,,
,,,,,WIN24_009,19,male,2024-01-26_15h50.43.203,jersey_experiment_5,2023.2.2,Win32,85.47008547,,,,,,,,,,,,,,,,821.972,823.2661,823.2662,823.9158,return,0.1165,,39.97395833,,,,,,FBP-YG-19.png,0.4,1.2,43,0.5,,,,,,,,,,,,,,,,,,0,12,12,42,1,,,,,,,,,,,,,,,,,,,,,,,
,,,,,WIN24_009,19,male,2024-01-26_15h50.43.203,jersey_experiment_5,2023.2.2,Win32,85.47008547,,,,,,,,,,,,,,,,823.916,825.7159,825.7159,826.4571,return,0.1159,,62.5,,,,,,FBP-PT-71.png,0.45,1.2,50,1,,,,,,,,,,,,,,,,,,0,13,13,49,1,,,,,,,,,,,,,,,,,,,,,,,
,,,,,WIN24_009,19,male,2024-01-26_15h50.43.203,jersey_experiment_5,2023.2.2,Win32,85.47008547,,,,,,,,,,,,,,,,826.4573,828.2544,828.2544,828.6309,return,0.0856,,38.02083333,,,,,,FBP-OG-19.png,0.37,1.2,12,1,,,,,,,,,,,,,,,,,,0,14,14,11,1,,,,,,,,,,,,,,,,,,,,,,,
,,,,,WIN24_009,19,male,2024-01-26_15h50.43.203,jersey_experiment_5,2023.2.2,Win32,85.47008547,,,,,,,,,,,,,,,,828.6311,829.9299,829.9299,830.5881,return,0.2347,,39.71354167,,,,,,FBP-YG-18.png,0.37,1.2,37,0.5,,,,,,,,,,,,,,,,,,0,15,15,36,1,,,,,,,,,,,,,,,,,,,,,,,
,,,,,WIN24_009,19,male,2024-01-26_15h50.43.203,jersey_experiment_5,2023.2.2,Win32,85.47008547,,,,,,,,,,,,,,,,830.5882,831.882,831.882,832.4117,return,0.1167,,34.63541667,,,,,,FBP-RB-71.png,0.37,1.2,17,0.5,,,,,,,,,,,,,,,,,,0,16,16,16,1,,,,,,,,,,,,,,,,,,,,,,,
,,,,,WIN24_009,19,male,2024-01-26_15h50.43.203,jersey_experiment_5,2023.2.2,Win32,85.47008547,,,,,,,,,,,,,,,,832.4118,834.2077,834.2077,834.8548,return,0.1577,,21.875,,,,,,FBP-PT-91.png,0.37,1.2,57,1,,,,,,,,,,,,,,,,,,0,17,17,56,1,,,,,,,,,,,,,,,,,,,,,,,
,,,,,WIN24_009,19,male,2024-01-26_15h50.43.203,jersey_experiment_5,2023.2.2,Win32,85.47008547,,,,,,,,,,,,,,,,834.855,836.6576,836.6576,837.5401,return,0.281,,28.125,,,,,,FBP-OG-17.png,0.4,1.2,3,1,,,,,,,,,,,,,,,,,,0,18,18,2,1,,,,,,,,,,,,,,,,,,,,,,,
,,,,,WIN24_009,19,male,2024-01-26_15h50.43.203,jersey_experiment_5,2023.2.2,Win32,85.47008547,,,,,,,,,,,,,,,,837.5404,838.838,838.838,839.6942,return,0.376,,23.046875,,,,,,FBP-RB-91.png,0.37,1.2,27,0.5,,,,,,,,,,,,,,,,,,0,19,19,26,1,,,,,,,,,,,,,,,,,,,,,,,
,,,,,WIN24_009,19,male,2024-01-26_15h50.43.203,jersey_experiment_5,2023.2.2,Win32,85.47008547,,,,,,,,,,,,,,,,839.6943,840.9994,840.9994,841.7165,return,0.0589,,8.723958333,,,,,,FBP-RB-71.png,0.35,1.2,16,0.5,,,,,,,,,,,,,,,,,,0,20,20,15,1,,,,,,,,,,,,,,,,,,,,,,,
,,,,,WIN24_009,19,male,2024-01-26_15h50.43.203,jersey_experiment_5,2023.2.2,Win32,85.47008547,,,,,,,,,,,,,,,,841.7167,843.0082,843.0082,843.8717,return,0.2131,,66.14583333,,,,,,FBP-RB-91.png,0.43,1.2,29,0.5,,,,,,,,,,,,,,,,,,0,21,21,28,1,,,,,,,,,,,,,,,,,,,,,,,
,,,,,WIN24_009,19,male,2024-01-26_15h50.43.203,jersey_experiment_5,2023.2.2,Win32,85.47008547,,,,,,,,,,,,,,,,843.8718,845.1637,845.1637,846.0123,return,0.0723,,75,,,,,,FBP-RB-71.png,0.43,1.2,19,0.5,,,,,,,,,,,,,,,,,,0,22,22,18,1,,,,,,,,,,,,,,,,,,,,,,,
,,,,,WIN24_009,19,male,2024-01-26_15h50.43.203,jersey_experiment_5,2023.2.2,Win32,85.47008547,,,,,,,,,,,,,,,,846.0124,847.814,847.814,848.9066,return,0.5431,,74.73958333,,,,,,FBP-OG-18.png,0.43,1.2,9,1,,,,,,,,,,,,,,,,,,0,23,23,8,1,,,,,,,,,,,,,,,,,,,,,,,
,,,,,WIN24_009,19,male,2024-01-26_15h50.43.203,jersey_experiment_5,2023.2.2,Win32,85.47008547,,,,,,,,,,,,,,,,848.9067,850.7024,850.7024,851.2245,return,0.1195,,86.19791667,,,,,,FBP-OG-17.png,0.45,1.2,5,1,,,,,,,,,,,,,,,,,,0,24,24,4,1,,,,,,,,,,,,,,,,,,,,,,,
,,,,,WIN24_009,19,male,2024-01-26_15h50.43.203,jersey_experiment_5,2023.2.2,Win32,85.47008547,,,,,,,,,,,,,,,,851.2247,852.5169,852.5169,854.4126,return,0.2959,,34.50520833,,,,,,FBP-YG-19.png,0.37,1.2,42,0.5,,,,,,,,,,,,,,,,,,0,25,25,41,1,,,,,,,,,,,,,,,,,,,,,,,
,,,,,WIN24_009,19,male,2024-01-26_15h50.43.203,jersey_experiment_5,2023.2.2,Win32,85.47008547,,,,,,,,,,,,,,,,854.4127,856.2086,856.2086,857.379,return,0.1903,,16.66666667,,,,,,FBP-PT-81.png,0.35,1.2,51,1,,,,,,,,,,,,,,,,,,0,26,26,50,1,,,,,,,,,,,,,,,,,,,,,,,
,,,,,WIN24_009,19,male,2024-01-26_15h50.43.203,jersey_experiment_5,2023.2.2,Win32,85.47008547,,,,,,,,,,,,,,,,857.3792,859.1733,859.1733,860.5881,return,0.6102,,95.05208333,,,,,,FBP-PT-91.png,0.45,1.2,60,1,,,,,,,,,,,,,,,,,,0,27,27,59,1,,,,,,,,,,,,,,,,,,,,,,,
,,,,,WIN24_009,19,male,2024-01-26_15h50.43.203,jersey_experiment_5,2023.2.2,Win32,85.47008547,,,,,,,,,,,,,,,,860.5883,861.8818,861.8818,863.0478,return,0.0484,,81.25,,,,,,FBP-YG-17.png,0.43,1.2,34,0.5,,,,,,,,,,,,,,,,,,0,28,28,33,1,,,,,,,,,,,,,,,,,,,,,,,
,,,,,WIN24_009,19,male,2024-01-26_15h50.43.203,jersey_experiment_5,2023.2.2,Win32,85.47008547,,,,,,,,,,,,,,,,863.0479,864.8442,864.8442,866.5662,return,0.3771,,50.52083333,,,,,,FBP-PT-71.png,0.37,1.2,47,1,,,,,,,,,,,,,,,,,,0,29,29,46,1,,,,,,,,,,,,,,,,,,,,,,,
,,,,,WIN24_009,19,male,2024-01-26_15h50.43.203,jersey_experiment_5,2023.2.2,Win32,85.47008547,,,,,,,,,,,,,,,,866.5663,868.3654,868.3654,869.4468,return,0.1165,,51.43229167,,,,,,FBP-PT-81.png,0.37,1.2,52,1,,,,,,,,,,,,,,,,,,0,30,30,51,1,,,,,,,,,,,,,,,,,,,,,,,
,,,,,WIN24_009,19,male,2024-01-26_15h50.43.203,jersey_experiment_5,2023.2.2,Win32,85.47008547,,,,,,,,,,,,,,,,869.447,870.7441,870.7442,871.5645,return,0.0937,,25.78125,,,,,,FBP-YG-17.png,0.35,1.2,31,0.5,,,,,,,,,,,,,,,,,,0,31,31,30,1,,,,,,,,,,,,,,,,,,,,,,,
,,,,,WIN24_009,19,male,2024-01-26_15h50.43.203,jersey_experiment_5,2023.2.2,Win32,85.47008547,,,,,,,,,,,,,,,,871.5647,873.3646,873.3646,874.2012,return,0.0579,,24.21875,,,,,,FBP-OG-17.png,0.37,1.2,2,1,,,,,,,,,,,,,,,,,,0,32,32,1,1,,,,,,,,,,,,,,,,,,,,,,,
,,,,,WIN24_009,19,male,2024-01-26_15h50.43.203,jersey_experiment_5,2023.2.2,Win32,85.47008547,,,,,,,,,,,,,,,,874.2014,875.9974,875.9974,877.2681,return,0.0676,,61.45833333,,,,,,FBP-OG-19.png,0.45,1.2,15,1,,,,,,,,,,,,,,,,,,0,33,33,14,1,,,,,,,,,,,,,,,,,,,,,,,
,,,,,WIN24_009,19,male,2024-01-26_15h50.43.203,jersey_experiment_5,2023.2.2,Win32,85.47008547,,,,,,,,,,,,,,,,877.2682,878.5669,878.5669,879.7408,return,0.2686,,13.02083333,,,,,,FBP-RB-81.png,0.35,1.2,21,0.5,,,,,,,,,,,,,,,,,,0,34,34,20,1,,,,,,,,,,,,,,,,,,,,,,,
,,,,,WIN24_009,19,male,2024-01-26_15h50.43.203,jersey_experiment_5,2023.2.2,Win32,85.47008547,,,,,,,,,,,,,,,,879.741,881.5412,881.5412,882.6447,return,0.1007,,37.890625,,,,,,FBP-PT-91.png,0.4,1.2,58,1,,,,,,,,,,,,,,,,,,0,35,35,57,1,,,,,,,,,,,,,,,,,,,,,,,
,,,,,WIN24_009,19,male,2024-01-26_15h50.43.203,jersey_experiment_5,2023.2.2,Win32,85.47008547,,,,,,,,,,,,,,,,882.6449,884.4474,884.4474,885.0488,return,0.0588,,62.109375,,,,,,FBP-PT-91.png,0.43,1.2,59,1,,,,,,,,,,,,,,,,,,0,36,36,58,1,,,,,,,,,,,,,,,,,,,,,,,
,,,,,WIN24_009,19,male,2024-01-26_15h50.43.203,jersey_experiment_5,2023.2.2,Win32,85.47008547,,,,,,,,,,,,,,,,885.0489,886.3508,886.3509,887.284,return,0.1543,,86.84895833,,,,,,FBP-RB-71.png,0.45,1.2,20,0.5,,,,,,,,,,,,,,,,,,0,37,37,19,1,,,,,,,,,,,,,,,,,,,,,,,
,,,,,WIN24_009,19,male,2024-01-26_15h50.43.203,jersey_experiment_5,2023.2.2,Win32,85.47008547,,,,,,,,,,,,,,,,887.2841,888.5792,888.5792,889.2492,return,0.0838,,96.74479167,,,,,,FBP-YG-18.png,0.45,1.2,40,0.5,,,,,,,,,,,,,,,,,,0,38,38,39,1,,,,,,,,,,,,,,,,,,,,,,,
,,,,,WIN24_009,19,male,2024-01-26_15h50.43.203,jersey_experiment_5,2023.2.2,Win32,85.47008547,,,,,,,,,,,,,,,,889.2493,890.5549,890.5549,891.6451,return,0.1548,,65.36458333,,,,,,FBP-YG-17.png,0.4,1.2,33,0.5,,,,,,,,,,,,,,,,,,0,39,39,32,1,,,,,,,,,,,,,,,,,,,,,,,
,,,,,WIN24_009,19,male,2024-01-26_15h50.43.203,jersey_experiment_5,2023.2.2,Win32,85.47008547,,,,,,,,,,,,,,,,891.6452,893.4379,893.4379,894.9903,return,0.4369,,43.88020833,,,,,,FBP-OG-18.png,0.37,1.2,7,1,,,,,,,,,,,,,,,,,,0,40,40,6,1,,,,,,,,,,,,,,,,,,,,,,,
,,,,,WIN24_009,19,male,2024-01-26_15h50.43.203,jersey_experiment_5,2023.2.2,Win32,85.47008547,,,,,,,,,,,,,,,,894.9905,896.7866,896.7866,897.3317,return,0.1539,,49.08854167,,,,,,FBP-PT-71.png,0.4,1.2,48,1,,,,,,,,,,,,,,,,,,0,41,41,47,1,,,,,,,,,,,,,,,,,,,,,,,
,,,,,WIN24_009,19,male,2024-01-26_15h50.43.203,jersey_experiment_5,2023.2.2,Win32,85.47008547,,,,,,,,,,,,,,,,897.3318,899.1318,899.1318,899.6101,return,0.1554,,35.41666667,,,,,,FBP-OG-17.png,0.35,1.2,1,1,,,,,,,,,,,,,,,,,,0,42,42,0,1,,,,,,,,,,,,,,,,,,,,,,,
,,,,,WIN24_009,19,male,2024-01-26_15h50.43.203,jersey_experiment_5,2023.2.2,Win32,85.47008547,,,,,,,,,,,,,,,,899.6104,901.402,901.4021,902.0573,return,0.1429,,66.92708333,,,,,,FBP-PT-71.png,0.43,1.2,49,1,,,,,,,,,,,,,,,,,,0,43,43,48,1,,,,,,,,,,,,,,,,,,,,,,,
,,,,,WIN24_009,19,male,2024-01-26_15h50.43.203,jersey_experiment_5,2023.2.2,Win32,85.47008547,,,,,,,,,,,,,,,,902.0574,903.3561,903.3561,904.2024,return,0.3778,,31.25,,,,,,FBP-RB-91.png,0.35,1.2,26,0.5,,,,,,,,,,,,,,,,,,0,44,44,25,1,,,,,,,,,,,,,,,,,,,,,,,
,,,,,WIN24_009,19,male,2024-01-26_15h50.43.203,jersey_experiment_5,2023.2.2,Win32,85.47008547,,,,,,,,,,,,,,,,904.2026,905.9985,905.9985,906.4605,return,0.176,,67.44791667,,,,,,FBP-OG-17.png,0.43,1.2,4,1,,,,,,,,,,,,,,,,,,0,45,45,3,1,,,,,,,,,,,,,,,,,,,,,,,
,,,,,WIN24_009,19,male,2024-01-26_15h50.43.203,jersey_experiment_5,2023.2.2,Win32,85.47008547,,,,,,,,,,,,,,,,906.4607,907.7632,907.7632,908.5201,return,0.0943,,69.140625,,,,,,FBP-RB-71.png,0.4,1.2,18,0.5,,,,,,,,,,,,,,,,,,0,46,46,17,1,,,,,,,,,,,,,,,,,,,,,,,
,,,,,WIN24_009,19,male,2024-01-26_15h50.43.203,jersey_experiment_5,2023.2.2,Win32,85.47008547,,,,,,,,,,,,,,,,908.5203,910.3163,910.3164,910.7304,return,0.0809,,83.72395833,,,,,,FBP-PT-81.png,0.43,1.2,54,1,,,,,,,,,,,,,,,,,,0,47,47,53,1,,,,,,,,,,,,,,,,,,,,,,,
,,,,,WIN24_009,19,male,2024-01-26_15h50.43.203,jersey_experiment_5,2023.2.2,Win32,85.47008547,,,,,,,,,,,,,,,,910.7305,912.0271,912.0271,912.485,return,0.0353,,86.06770833,,,,,,FBP-YG-19.png,0.43,1.2,44,0.5,,,,,,,,,,,,,,,,,,0,48,48,43,1,,,,,,,,,,,,,,,,,,,,,,,
,,,,,WIN24_009,19,male,2024-01-26_15h50.43.203,jersey_experiment_5,2023.2.2,Win32,85.47008547,,,,,,,,,,,,,,,,912.4851,914.2813,914.2813,915.0341,return,0.0618,,21.74479167,,,,,,FBP-OG-18.png,0.35,1.2,6,1,,,,,,,,,,,,,,,,,,0,49,49,5,1,,,,,,,,,,,,,,,,,,,,,,,
,,,,,WIN24_009,19,male,2024-01-26_15h50.43.203,jersey_experiment_5,2023.2.2,Win32,85.47008547,,,,,,,,,,,,,,,,915.0343,916.8273,916.8273,917.2932,return,0.1725,,5.46875,,,,,,FBP-PT-91.png,0.35,1.2,56,1,,,,,,,,,,,,,,,,,,0,50,50,55,1,,,,,,,,,,,,,,,,,,,,,,,
,,,,,WIN24_009,19,male,2024-01-26_15h50.43.203,jersey_experiment_5,2023.2.2,Win32,85.47008547,,,,,,,,,,,,,,,,917.2933,918.5902,918.5902,919.9911,return,0.0467,,69.66145833,,,,,,FBP-RB-81.png,0.45,1.2,25,0.5,,,,,,,,,,,,,,,,,,0,51,51,24,1,,,,,,,,,,,,,,,,,,,,,,,
,,,,,WIN24_009,19,male,2024-01-26_15h50.43.203,jersey_experiment_5,2023.2.2,Win32,85.47008547,,,,,,,,,,,,,,,,919.9912,921.2933,921.2933,921.9924,return,0.012,,91.66666667,,,,,,FBP-YG-19.png,0.45,1.2,45,0.5,,,,,,,,,,,,,,,,,,0,52,52,44,1,,,,,,,,,,,,,,,,,,,,,,,
,,,,,WIN24_009,19,male,2024-01-26_15h50.43.203,jersey_experiment_5,2023.2.2,Win32,85.47008547,,,,,,,,,,,,,,,,921.9926,923.2935,923.2935,924.5993,return,0.0742,,55.98958333,,,,,,FBP-YG-18.png,0.4,1.2,38,0.5,,,,,,,,,,,,,,,,,,0,53,53,37,1,,,,,,,,,,,,,,,,,,,,,,,
,,,,,WIN24_009,19,male,2024-01-26_15h50.43.203,jersey_experiment_5,2023.2.2,Win32,85.47008547,,,,,,,,,,,,,,,,924.5994,925.8934,925.8934,927.112,return,0.5671,,95.18229167,,,,,,FBP-YG-17.png,0.45,1.2,35,0.5,,,,,,,,,,,,,,,,,,0,54,54,34,1,,,,,,,,,,,,,,,,,,,,,,,
,,,,,WIN24_009,19,male,2024-01-26_15h50.43.203,jersey_experiment_5,2023.2.2,Win32,85.47008547,,,,,,,,,,,,,,,,927.1121,928.9093,928.9093,929.3994,return,0.2979,,10.02604167,,,,,,FBP-PT-71.png,0.35,1.2,46,1,,,,,,,,,,,,,,,,,,0,55,55,45,1,,,,,,,,,,,,,,,,,,,,,,,
,,,,,WIN24_009,19,male,2024-01-26_15h50.43.203,jersey_experiment_5,2023.2.2,Win32,85.47008547,,,,,,,,,,,,,,,,929.3995,931.1923,931.1923,933.5173,return,0.1531,,61.19791667,,,,,,FBP-OG-18.png,0.45,1.2,10,1,,,,,,,,,,,,,,,,,,0,56,56,9,1,,,,,,,,,,,,,,,,,,,,,,,
,,,,,WIN24_009,19,male,2024-01-26_15h50.43.203,jersey_experiment_5,2023.2.2,Win32,85.47008547,,,,,,,,,,,,,,,,933.5176,934.8136,934.8136,936.0232,return,0.1673,,22.39583333,,,,,,FBP-YG-17.png,0.37,1.2,32,0.5,,,,,,,,,,,,,,,,,,0,57,57,31,1,,,,,,,,,,,,,,,,,,,,,,,
,,,,,WIN24_009,19,male,2024-01-26_15h50.43.203,jersey_experiment_5,2023.2.2,Win32,85.47008547,,,,,,,,,,,,,,,,936.0234,937.818,937.818,938.3763,return,0.1445,,29.81770833,,,,,,FBP-PT-81.png,0.4,1.2,53,1,,,,,,,,,,,,,,,,,,0,58,58,52,1,,,,,,,,,,,,,,,,,,,,,,,
,,,,,WIN24_009,19,male,2024-01-26_15h50.43.203,jersey_experiment_5,2023.2.2,Win32,85.47008547,,,,,,,,,,,,,,,,938.3765,939.6703,939.6703,941.5646,return,1.2936,,63.54166667,,,,,,FBP-RB-81.png,0.43,1.2,24,0.5,,,,,,,,,,,,,,,,,,0,59,59,23,1,,,,,,,,,,,,,,,,,,,,,,,
,,,,,WIN24_009,19,male,2024-01-26_15h50.43.203,jersey_experiment_5,2023.2.2,Win32,85.47008547,,,,,,,,,,,,,,,,,,,,,,,,,,,,,,,,,,,,,,,,,,,,,,,,,,,,,,,,941.5648,947.9916,return,6.4111,,,,,,,,,,,,,,,,,,,
,,,,,WIN24_009,19,male,2024-01-26_15h50.43.203,jersey_experiment_5,2023.2.2,Win32,85.47008547,,,,,,,,,,,,,,,,,,,,,,,,,,,,,,,,,,,,,,,,,,,,,,,,,,,,,,,,,,,,,947.9917,953.8521,1,4.8316,return,1.0025,,,,,,,,,,,,
,,,,,WIN24_009,19,male,2024-01-26_15h50.43.203,jersey_experiment_5,2023.2.2,Win32,85.47008547,,,,,,,,,,,,,,,,,,,,,,,,,,,,,,,,,,,,,,,,,,,,,,,,,,,,,,,,,,,,,,,,,,,,953.8523,982.2338,maybe about race and body size?,right,20.1067,,,,,,
,,,,,WIN24_009,19,male,2024-01-26_15h50.43.203,jersey_experiment_5,2023.2.2,Win32,85.47008547,,,,,,,,,,,,,,,,,,,,,,,,,,,,,,,,,,,,,,,,,,,,,,,,,,,,,,,,,,,,,,,,,,,,,,,,,,982.2338,986.3781,return,4.1307,